Time,Device name,Chip Time(),Acceleration X(g),Acceleration Y(g),Acceleration Z(g),Angular velocity X(°/s),Angular velocity Y(°/s),Angular velocity Z(°/s),Angle X(°),Angle Y(°),Angle Z(°),Magnetic field X(ʯt),Magnetic field Y(ʯt),Magnetic field Z(ʯt),Temperature(℃),Quaternions 0(),Quaternions 1(),Quaternions 2(),Quaternions 3()
 11:01:19.521,ed:35:33:d3:6c:f8, 2015-01-01 00:14:19.795, 0.725, -0.016, 0.694, -0.732, -0.305, 0.61, -1.714, -46.252, 174.996, -19.500, -6.807, -20.027, 28.84, 0.04547, 0.39163, -0.03055, 0.91843,
 11:01:19.521,ed:35:33:d3:6c:f8, 2015-01-01 00:14:19.795, 0.722, -0.019, 0.705, -1.282, 0, 0.793, -1.747, -46.247, 175.001, -19.500, -6.807, -20.027, 28.84, 0.04547, 0.39163, -0.03055, 0.91843,
 11:01:19.523,f6:90:cc:01:6d:25, 2015-01-01 00:14:19.575, 0.966, -0.076, 0.188, -0.916, 1.099, 0.244, -23.489, -78.283, -127.958, -30.160, -5.387, -1.000, 27.57, 0.21613, -0.6254, -0.12872, -0.73859,
 11:01:19.523,f6:90:cc:01:6d:25, 2015-01-01 00:14:19.575, 0.96, -0.066, 0.178, -2.136, 0.549, 0.366, -23.505, -78.272, -127.925, -30.160, -5.387, -1.000, 27.57, 0.21613, -0.6254, -0.12872, -0.73859,
 11:01:19.545,ed:35:33:d3:6c:f8, 2015-01-01 00:14:20.150, 0.713, -0.018, 0.695, -0.305, -1.099, -0.427, -1.747, -46.258, 175.04, -19.500, -6.807, -20.027, 28.84, 0.04547, 0.39163, -0.03055, 0.91843,
 11:01:19.546,ed:35:33:d3:6c:f8, 2015-01-01 00:14:20.150, 0.708, -0.011, 0.677, 0.549, -2.808, -1.77, -1.708, -46.302, 175.051, -19.500, -6.807, -20.027, 28.84, 0.04547, 0.39163, -0.03055, 0.91843,
 11:01:19.547,ed:40:fe:65:30:6c, 2015-01-01 00:14:16.540, 0.786, 0.099, 0.627, -0.977, -0.366, -0.122, 8.553, -51.696, -116.867, -24.433, -7.633, 1.240, 23.45, 0.49527, -0.33801, -0.28674, -0.74707,
 11:01:19.547,ed:40:fe:65:30:6c, 2015-01-01 00:14:16.540, 0.782, 0.102, 0.614, -0.61, -1.221, -0.549, 8.553, -51.702, -116.878, -24.433, -7.633, 1.240, 23.45, 0.49527, -0.33801, -0.28674, -0.74707,
 11:01:19.547,e3:ca:2d:fd:e0:8c, 2015-01-01 00:14:16.845, 0.894, -0.064, 0.474, -2.502, 0.183, 0, -9.569, -62.012, 175.853, -24.080, -5.640, -14.673, 22, -0.07452, -0.50903, 0.09152, -0.85257,
 11:01:19.547,e3:ca:2d:fd:e0:8c, 2015-01-01 00:14:16.845, 0.891, -0.072, 0.475, -2.563, 0, -0.183, -9.608, -62.007, 175.82, -24.080, -5.640, -14.673, 22, -0.07452, -0.50903, 0.09152, -0.85257,
 11:01:19.569,ed:40:fe:65:30:6c, 2015-01-01 00:14:16.540, 0.779, 0.104, 0.606, -0.122, -2.136, -1.16, 8.575, -51.718, -116.906, -24.433, -7.633, 1.240, 23.45, 0.49716, -0.33551, -0.28494, -0.74762,
 11:01:19.569,ed:40:fe:65:30:6c, 2015-01-01 00:14:16.540, 0.785, 0.096, 0.607, -0.061, -2.136, -1.16, 8.613, -51.757, -116.96, -24.433, -7.633, 1.240, 23.45, 0.49716, -0.33551, -0.28494, -0.74762,
 11:01:19.589,ed:35:33:d3:6c:f8, 2015-01-01 00:14:20.150, 0.716, -0.013, 0.674, -0.671, -2.136, -1.282, -1.686, -46.346, 175.04, -19.500, -6.807, -20.027, 28.84, 0.04547, 0.39163, -0.03055, 0.91843,
 11:01:19.589,ed:35:33:d3:6c:f8, 2015-01-01 00:14:20.150, 0.715, -0.017, 0.681, -1.16, -1.465, -0.244, -1.692, -46.373, 175.067, -19.500, -6.807, -20.027, 28.84, 0.04547, 0.39163, -0.03055, 0.91843,
 11:01:19.591,f6:90:cc:01:6d:25, 2015-01-01 00:14:19.575, 0.963, -0.074, 0.186, -2.197, 1.16, 0.366, -23.538, -78.261, -127.936, -30.160, -5.387, -1.000, 27.57, 0.21613, -0.6254, -0.12872, -0.73859,
 11:01:19.591,f6:90:cc:01:6d:25, 2015-01-01 00:14:19.575, 0.961, -0.08, 0.19, -1.404, 1.587, 0.122, -23.538, -78.239, -127.974, -30.160, -5.387, -1.000, 27.57, 0.21613, -0.6254, -0.12872, -0.73859,
 11:01:19.593,e3:ca:2d:fd:e0:8c, 2015-01-01 00:14:16.845, 0.89, -0.079, 0.476, -1.892, -1.099, 0.122, -9.646, -62.023, 175.836, -24.080, -5.640, -14.673, 22, -0.07407, -0.51035, 0.09027, -0.85193,
 11:01:19.593,e3:ca:2d:fd:e0:8c, 2015-01-01 00:14:16.845, 0.893, -0.078, 0.47, -1.221, -2.014, 0.549, -9.69, -62.051, 175.902, -24.080, -5.640, -14.673, 22, -0.07407, -0.51035, 0.09027, -0.85193,
 11:01:19.612,f6:90:cc:01:6d:25, 2015-01-01 00:14:19.575, 0.96, -0.081, 0.182, -0.122, 1.648, 0, -23.489, -78.212, -128.035, -30.160, -5.387, -1.000, 27.57, 0.21613, -0.6254, -0.12872, -0.73859,
 11:01:19.612,f6:90:cc:01:6d:25, 2015-01-01 00:14:19.575, 0.956, -0.082, 0.176, 0.366, 0.793, -0.061, -23.423, -78.19, -128.106, -30.160, -5.387, -1.000, 27.57, 0.21613, -0.6254, -0.12872, -0.73859,
 11:01:19.613,ed:40:fe:65:30:6c, 2015-01-01 00:14:16.540, 0.784, 0.094, 0.612, 0, -1.77, -0.854, 8.657, -51.79, -117.01, -24.433, -7.633, 1.240, 23.45, 0.49716, -0.33551, -0.28494, -0.74762,
 11:01:19.613,ed:40:fe:65:30:6c, 2015-01-01 00:14:16.540, 0.779, 0.096, 0.619, 0.061, -1.038, -0.61, 8.69, -51.812, -117.037, -24.433, -7.633, 1.240, 23.45, 0.49716, -0.33551, -0.28494, -0.74762,
 11:01:19.634,ed:35:33:d3:6c:f8, 2015-01-01 00:14:20.150, 0.713, -0.016, 0.691, -0.916, -0.61, 0.061, -1.708, -46.384, 175.122, -19.500, -6.807, -20.027, 28.84, 0.04547, 0.39163, -0.03055, 0.91843,
 11:01:19.634,ed:35:33:d3:6c:f8, 2015-01-01 00:14:20.150, 0.711, -0.018, 0.678, 0, -1.709, -0.061, -1.708, -46.412, 175.161, -19.500, -6.807, -20.027, 28.84, 0.04547, 0.39163, -0.03055, 0.91843,
 11:01:19.636,ed:40:fe:65:30:6c, 2015-01-01 00:14:16.875, 0.778, 0.096, 0.606, 0.244, -0.916, -0.366, 8.712, -51.828, -117.076, -24.433, -7.633, 1.240, 23.45, 0.49716, -0.33551, -0.28494, -0.74762,
 11:01:19.636,ed:40:fe:65:30:6c, 2015-01-01 00:14:16.875, 0.787, 0.093, 0.608, 0.549, -1.099, -0.488, 8.74, -51.839, -117.109, -24.433, -7.633, 1.240, 23.45, 0.49716, -0.33551, -0.28494, -0.74762,
 11:01:19.636,f6:90:cc:01:6d:25, 2015-01-01 00:14:19.575, 0.96, -0.085, 0.188, -0.488, 0.854, 0.244, -23.384, -78.173, -128.128, -30.160, -5.387, -1.000, 27.57, 0.21613, -0.6254, -0.12872, -0.73859,
 11:01:19.636,f6:90:cc:01:6d:25, 2015-01-01 00:14:19.575, 0.97, -0.086, 0.196, -0.854, 1.526, 0.488, -23.379, -78.157, -128.139, -30.160, -5.387, -1.000, 27.57, 0.21613, -0.6254, -0.12872, -0.73859,
 11:01:19.638,e3:ca:2d:fd:e0:8c, 2015-01-01 00:14:17.155, 0.887, -0.082, 0.466, -1.038, -1.221, 0.61, -9.734, -62.073, 175.957, -24.080, -5.640, -14.673, 22, -0.07407, -0.51035, 0.09027, -0.85193,
 11:01:19.638,e3:ca:2d:fd:e0:8c, 2015-01-01 00:14:17.155, 0.89, -0.085, 0.475, -1.282, -0.183, 0.244, -9.767, -62.067, 175.952, -24.080, -5.640, -14.673, 22, -0.07407, -0.51035, 0.09027, -0.85193,
 11:01:19.655,ed:35:33:d3:6c:f8, 2015-01-01 00:14:20.150, 0.718, -0.021, 0.674, -0.122, -1.465, -0.427, -1.697, -46.439, 175.161, -19.500, -6.807, -20.027, 28.84, 0.04547, 0.39163, -0.03055, 0.91843,
 11:01:19.655,ed:35:33:d3:6c:f8, 2015-01-01 00:14:20.150, 0.727, -0.019, 0.687, -0.061, -0.061, 0.366, -1.703, -46.445, 175.139, -19.500, -6.807, -20.027, 28.84, 0.04547, 0.39163, -0.03055, 0.91843,
 11:01:19.682,ed:40:fe:65:30:6c, 2015-01-01 00:14:16.875, 0.794, 0.093, 0.62, 0.549, -0.549, -0.183, 8.767, -51.85, -117.147, -24.433, -7.633, 1.240, 23.45, 0.49716, -0.33551, -0.28494, -0.74762,
 11:01:19.682,ed:40:fe:65:30:6c, 2015-01-01 00:14:16.875, 0.798, 0.089, 0.63, 0.366, 0.61, 0.366, 8.773, -51.85, -117.164, -24.433, -7.633, 1.240, 23.45, 0.49716, -0.33551, -0.28494, -0.74762,
 11:01:19.682,e3:ca:2d:fd:e0:8c, 2015-01-01 00:14:17.155, 0.909, -0.082, 0.477, -1.465, -1.038, 0, -9.794, -62.084, 175.952, -24.080, -5.640, -14.673, 22, -0.07407, -0.51035, 0.09027, -0.85193,
 11:01:19.682,e3:ca:2d:fd:e0:8c, 2015-01-01 00:14:17.155, 0.919, -0.085, 0.468, -1.221, -1.587, 0.061, -9.827, -62.111, 175.957, -24.080, -5.640, -14.673, 22, -0.07407, -0.51035, 0.09027, -0.85193,
 11:01:19.703,f6:90:cc:01:6d:25, 2015-01-01 00:14:19.575, 0.974, -0.091, 0.185, -0.427, 1.099, 0.122, -23.373, -78.129, -128.139, -30.160, -5.387, -1.000, 27.57, 0.21613, -0.6254, -0.12872, -0.73859,
 11:01:19.703,f6:90:cc:01:6d:25, 2015-01-01 00:14:19.575, 0.971, -0.088, 0.182, -0.366, -0.183, -0.061, -23.362, -78.113, -128.134, -30.160, -5.387, -1.000, 27.57, 0.21613, -0.6254, -0.12872, -0.73859,
 11:01:19.705,e3:ca:2d:fd:e0:8c, 2015-01-01 00:14:17.155, 0.912, -0.087, 0.466, -0.732, -1.038, 0.183, -9.855, -62.133, 175.963, -24.080, -5.640, -14.673, 22, -0.07407, -0.51035, 0.09027, -0.85193,
 11:01:19.705,e3:ca:2d:fd:e0:8c, 2015-01-01 00:14:17.155, 0.907, -0.088, 0.464, 0, -0.244, 0.61, -9.877, -62.133, 175.995, -24.080, -5.640, -14.673, 22, -0.07407, -0.51035, 0.09027, -0.85193,
 11:01:19.723,ed:35:33:d3:6c:f8, 2015-01-01 00:14:20.150, 0.734, -0.026, 0.701, -0.305, 1.709, 1.282, -1.725, -46.417, 175.144, -19.500, -6.807, -20.027, 28.84, 0.04547, 0.39163, -0.03055, 0.91843,
 11:01:19.723,ed:35:33:d3:6c:f8, 2015-01-01 00:14:20.150, 0.727, -0.034, 0.701, 0.305, 1.404, 0.793, -1.736, -46.384, 175.144, -19.500, -6.807, -20.027, 28.84, 0.04547, 0.39163, -0.03055, 0.91843,
 11:01:19.727,ed:40:fe:65:30:6c, 2015-01-01 00:14:16.875, 0.793, 0.088, 0.623, 0.305, 0.977, 0.488, 8.767, -51.828, -117.175, -24.433, -7.633, 1.240, 23.45, 0.49716, -0.33551, -0.28494, -0.74762,
 11:01:19.727,ed:40:fe:65:30:6c, 2015-01-01 00:14:16.875, 0.79, 0.09, 0.608, 0.732, 0.305, 0.122, 8.767, -51.817, -117.197, -24.433, -7.633, 1.240, 23.45, 0.49716, -0.33551, -0.28494, -0.74762,
 11:01:19.747,ed:35:33:d3:6c:f8, 2015-01-01 00:14:20.150, 0.719, -0.027, 0.684, 1.953, -0.061, -0.244, -1.708, -46.373, 175.095, -19.413, -6.580, -20.913, 28.84, 0.04547, 0.39163, -0.03055, 0.91843,
 11:01:19.747,ed:35:33:d3:6c:f8, 2015-01-01 00:14:20.150, 0.721, -0.016, 0.679, 1.77, -0.122, -0.305, -1.67, -46.379, 175.084, -19.413, -6.580, -20.913, 28.84, 0.04547, 0.39163, -0.03055, 0.91843,
 11:01:19.747,f6:90:cc:01:6d:25, 2015-01-01 00:14:19.575, 0.968, -0.085, 0.171, 0.61, -1.038, -0.305, -23.379, -78.118, -128.106, -30.160, -5.387, -1.000, 27.57, 0.21613, -0.6254, -0.12872, -0.73859,
 11:01:19.747,f6:90:cc:01:6d:25, 2015-01-01 00:14:19.575, 0.97, -0.088, 0.18, 0.549, -0.732, -0.061, -23.395, -78.14, -128.073, -30.160, -5.387, -1.000, 27.57, 0.21613, -0.6254, -0.12872, -0.73859,
 11:01:19.748,ed:40:fe:65:30:6c, 2015-01-01 00:14:16.875, 0.793, 0.096, 0.608, 0.916, -0.244, 0, 8.778, -51.812, -117.23, -24.433, -7.633, 1.240, 23.45, 0.49716, -0.33551, -0.28494, -0.74762,
 11:01:19.748,ed:40:fe:65:30:6c, 2015-01-01 00:14:16.875, 0.792, 0.095, 0.613, 0.671, -0.183, 0.366, 8.789, -51.817, -117.252, -24.433, -7.633, 1.240, 23.45, 0.49716, -0.33551, -0.28494, -0.74762,
 11:01:19.752,e3:ca:2d:fd:e0:8c, 2015-01-01 00:14:17.155, 0.908, -0.09, 0.467, 0.488, 0, 0.671, -9.899, -62.128, 176.05, -24.080, -5.640, -14.673, 22, -0.07407, -0.51035, 0.09027, -0.85193,
 11:01:19.752,e3:ca:2d:fd:e0:8c, 2015-01-01 00:14:17.155, 0.912, -0.089, 0.467, 0.854, -0.061, 0.61, -9.904, -62.128, 176.089, -24.080, -5.640, -14.673, 22, -0.07407, -0.51035, 0.09027, -0.85193,
 11:01:19.772,f6:90:cc:01:6d:25, 2015-01-01 00:14:19.575, 0.971, -0.088, 0.178, 0.549, -0.671, 0, -23.428, -78.157, -128.062, -29.847, -5.800, -1.607, 27.57, 0.21613, -0.6254, -0.12872, -0.73859,
 11:01:19.772,f6:90:cc:01:6d:25, 2015-01-01 00:14:19.575, 0.969, -0.088, 0.176, 0.488, -1.038, 0, -23.467, -78.173, -128.035, -29.847, -5.800, -1.607, 27.57, 0.21613, -0.6254, -0.12872, -0.73859,
 11:01:19.792,ed:35:33:d3:6c:f8, 2015-01-01 00:14:20.150, 0.722, -0.016, 0.683, 1.038, 0.427, 0.793, -1.659, -46.373, 175.045, -19.413, -6.580, -20.913, 28.84, 0.04547, 0.39163, -0.03055, 0.91843,
 11:01:19.792,ed:35:33:d3:6c:f8, 2015-01-01 00:14:20.150, 0.723, -0.02, 0.685, 0.427, 0.61, 1.465, -1.67, -46.362, 175.034, -19.413, -6.580, -20.913, 28.84, 0.04547, 0.39163, -0.03055, 0.91843,
 11:01:19.795,e3:ca:2d:fd:e0:8c, 2015-01-01 00:14:17.155, 0.91, -0.089, 0.463, 0.549, -0.122, 0.305, -9.91, -62.133, 176.105, -24.080, -5.640, -14.673, 22, -0.07407, -0.51035, 0.09027, -0.85193,
 11:01:19.795,e3:ca:2d:fd:e0:8c, 2015-01-01 00:14:17.155, 0.905, -0.082, 0.46, 0.427, -0.122, 0.183, -9.915, -62.139, 176.149, -24.080, -5.640, -14.673, 22, -0.07407, -0.51035, 0.09027, -0.85193,
 11:01:19.815,f6:90:cc:01:6d:25, 2015-01-01 00:14:19.575, 0.966, -0.085, 0.17, 0.61, -1.526, -0.122, -23.516, -78.195, -127.991, -29.847, -5.800, -1.607, 27.57, 0.21613, -0.6254, -0.12872, -0.73859,
 11:01:19.815,f6:90:cc:01:6d:25, 2015-01-01 00:14:19.575, 0.968, -0.081, 0.175, 0.732, -1.465, -0.122, -23.577, -78.228, -127.947, -29.847, -5.800, -1.607, 27.57, 0.21613, -0.6254, -0.12872, -0.73859,
 11:01:19.816,ed:40:fe:65:30:6c, 2015-01-01 00:14:16.875, 0.791, 0.094, 0.613, 0.366, 0, 0.793, 8.784, -51.817, -117.257, -24.433, -7.633, 1.240, 23.45, 0.49716, -0.33551, -0.28494, -0.74762,
 11:01:19.816,ed:40:fe:65:30:6c, 2015-01-01 00:14:16.875, 0.79, 0.092, 0.607, 0.183, -0.183, 0.916, 8.767, -51.823, -117.257, -24.433, -7.633, 1.240, 23.45, 0.49716, -0.33551, -0.28494, -0.74762,
 11:01:19.837,f6:90:cc:01:6d:25, 2015-01-01 00:14:19.575, 0.967, -0.083, 0.181, 0.916, -0.977, -0.183, -23.621, -78.256, -127.903, -29.847, -5.800, -1.607, 27.57, 0.21735, -0.62457, -0.12851, -0.73895,
 11:01:19.837,f6:90:cc:01:6d:25, 2015-01-01 00:14:19.575, 0.971, -0.082, 0.182, 1.465, -0.366, -0.366, -23.632, -78.272, -127.864, -29.847, -5.800, -1.607, 27.57, 0.21735, -0.62457, -0.12851, -0.73895,
 11:01:19.839,ed:40:fe:65:30:6c, 2015-01-01 00:14:16.875, 0.79, 0.094, 0.606, 0.244, -0.427, 0.793, 8.751, -51.833, -117.268, -24.347, -8.313, 0.307, 23.45, 0.49716, -0.33551, -0.28494, -0.74762,
 11:01:19.839,ed:40:fe:65:30:6c, 2015-01-01 00:14:16.875, 0.792, 0.092, 0.608, 0.244, -0.549, 0.854, 8.734, -51.844, -117.268, -24.347, -8.313, 0.307, 23.45, 0.49716, -0.33551, -0.28494, -0.74762,
 11:01:19.840,e3:ca:2d:fd:e0:8c, 2015-01-01 00:14:17.155, 0.901, -0.083, 0.466, 0.61, 0, 0.183, -9.915, -62.139, 176.16, -24.253, -6.160, -14.460, 22, -0.07407, -0.51035, 0.09027, -0.85193,
 11:01:19.840,e3:ca:2d:fd:e0:8c, 2015-01-01 00:14:17.155, 0.898, -0.082, 0.47, 1.16, -0.122, 0.305, -9.91, -62.144, 176.16, -24.253, -6.160, -14.460, 22, -0.07407, -0.51035, 0.09027, -0.85193,
 11:01:19.859,ed:35:33:d3:6c:f8, 2015-01-01 00:14:20.150, 0.721, -0.024, 0.683, 0, 0, 1.526, -1.703, -46.357, 175.056, -19.413, -6.580, -20.913, 28.84, 0.04553, 0.39261, -0.03046, 0.918,
 11:01:19.859,ed:35:33:d3:6c:f8, 2015-01-01 00:14:20.150, 0.721, -0.021, 0.679, -0.366, -0.671, 1.526, -1.741, -46.368, 175.084, -19.413, -6.580, -20.913, 28.84, 0.04553, 0.39261, -0.03046, 0.918,
 11:01:19.864,e3:ca:2d:fd:e0:8c, 2015-01-01 00:14:17.155, 0.897, -0.082, 0.471, 1.709, -0.61, 0.488, -9.899, -62.155, 176.177, -24.253, -6.160, -14.460, 22, -0.07288, -0.51157, 0.09094, -0.85123,
 11:01:19.864,e3:ca:2d:fd:e0:8c, 2015-01-01 00:14:17.155, 0.899, -0.078, 0.479, 1.709, -1.221, 0.61, -9.899, -62.177, 176.226, -24.253, -6.160, -14.460, 22, -0.07288, -0.51157, 0.09094, -0.85123,
 11:01:19.881,ed:35:33:d3:6c:f8, 2015-01-01 00:14:20.485, 0.723, -0.023, 0.68, -0.793, -0.732, 1.77, -1.791, -46.384, 175.095, -19.413, -6.580, -20.913, 28.84, 0.04553, 0.39261, -0.03046, 0.918,
 11:01:19.881,ed:35:33:d3:6c:f8, 2015-01-01 00:14:20.485, 0.722, -0.024, 0.683, -0.854, -0.366, 1.648, -1.846, -46.39, 175.062, -19.413, -6.580, -20.913, 28.84, 0.04553, 0.39261, -0.03046, 0.918,
 11:01:19.882,f6:90:cc:01:6d:25, 2015-01-01 00:14:19.575, 0.967, -0.077, 0.188, 1.648, 0.122, -0.549, -23.593, -78.283, -127.848, -29.847, -5.800, -1.607, 27.57, 0.21735, -0.62457, -0.12851, -0.73895,
 11:01:19.882,f6:90:cc:01:6d:25, 2015-01-01 00:14:19.575, 0.964, -0.075, 0.175, 1.892, 0.122, -0.488, -23.522, -78.289, -127.892, -29.847, -5.800, -1.607, 27.57, 0.21735, -0.62457, -0.12851, -0.73895,
 11:01:19.884,ed:40:fe:65:30:6c, 2015-01-01 00:14:16.875, 0.791, 0.094, 0.609, 0.122, -0.244, 0.671, 8.723, -51.855, -117.274, -24.347, -8.313, 0.307, 23.45, 0.49716, -0.33551, -0.28494, -0.74762,
 11:01:19.885,ed:40:fe:65:30:6c, 2015-01-01 00:14:16.875, 0.784, 0.097, 0.616, 0.549, 0, 0.244, 8.718, -51.861, -117.285, -24.347, -8.313, 0.307, 23.45, 0.49716, -0.33551, -0.28494, -0.74762,
 11:01:19.904,ed:35:33:d3:6c:f8, 2015-01-01 00:14:20.485, 0.718, -0.022, 0.688, 0, -0.061, 1.16, -1.873, -46.395, 175.012, -19.413, -6.580, -20.913, 28.84, 0.04553, 0.39261, -0.03046, 0.918,
 11:01:19.904,ed:35:33:d3:6c:f8, 2015-01-01 00:14:20.485, 0.718, -0.017, 0.687, 0.854, -0.305, 0.427, -1.873, -46.401, 174.968, -19.413, -6.580, -20.913, 28.84, 0.04553, 0.39261, -0.03046, 0.918,
 11:01:19.906,ed:40:fe:65:30:6c, 2015-01-01 00:14:16.875, 0.784, 0.101, 0.612, 0.916, -0.061, 0.244, 8.729, -51.866, -117.307, -24.347, -8.313, 0.307, 23.45, 0.49496, -0.33676, -0.28528, -0.74841,
 11:01:19.906,ed:40:fe:65:30:6c, 2015-01-01 00:14:16.875, 0.79, 0.102, 0.609, 0.793, -0.305, 0.183, 8.74, -51.866, -117.328, -24.347, -8.313, 0.307, 23.45, 0.49496, -0.33676, -0.28528, -0.74841,
 11:01:19.907,e3:ca:2d:fd:e0:8c, 2015-01-01 00:14:17.155, 0.9, -0.077, 0.47, 1.343, -1.343, 0.732, -9.904, -62.199, 176.265, -24.253, -6.160, -14.460, 22, -0.07288, -0.51157, 0.09094, -0.85123,
 11:01:19.907,e3:ca:2d:fd:e0:8c, 2015-01-01 00:14:17.155, 0.899, -0.08, 0.474, 0.854, -0.305, 0.366, -9.904, -62.205, 176.27, -24.253, -6.160, -14.460, 22, -0.07288, -0.51157, 0.09094, -0.85123,
 11:01:19.928,f6:90:cc:01:6d:25, 2015-01-01 00:14:19.975, 0.965, -0.077, 0.183, 0.977, -0.061, -0.305, -23.467, -78.294, -127.941, -29.847, -5.800, -1.607, 27.57, 0.21735, -0.62457, -0.12851, -0.73895,
 11:01:19.928,f6:90:cc:01:6d:25, 2015-01-01 00:14:19.975, 0.97, -0.073, 0.183, 0.183, 0.244, -0.122, -23.439, -78.294, -127.991, -29.847, -5.800, -1.607, 27.57, 0.21735, -0.62457, -0.12851, -0.73895,
 11:01:19.949,ed:35:33:d3:6c:f8, 2015-01-01 00:14:20.485, 0.723, -0.016, 0.681, 0.977, -0.488, 0, -1.857, -46.412, 174.93, -19.413, -6.580, -20.913, 28.84, 0.04553, 0.39261, -0.03046, 0.918,
 11:01:19.949,ed:35:33:d3:6c:f8, 2015-01-01 00:14:20.485, 0.726, -0.016, 0.679, 0.854, 0, -0.122, -1.835, -46.412, 174.902, -19.413, -6.580, -20.913, 28.84, 0.04553, 0.39261, -0.03046, 0.918,
 11:01:19.951,e3:ca:2d:fd:e0:8c, 2015-01-01 00:14:17.450, 0.899, -0.076, 0.474, 0.549, 0, 0.305, -9.904, -62.199, 176.259, -24.253, -6.160, -14.460, 22, -0.07288, -0.51157, 0.09094, -0.85123,
 11:01:19.951,e3:ca:2d:fd:e0:8c, 2015-01-01 00:14:17.450, 0.906, -0.079, 0.474, 0.916, -0.244, 0.61, -9.904, -62.205, 176.259, -24.253, -6.160, -14.460, 22, -0.07288, -0.51157, 0.09094, -0.85123,
 11:01:19.951,ed:40:fe:65:30:6c, 2015-01-01 00:14:16.875, 0.794, 0.102, 0.608, 0.977, -0.366, 0.061, 8.762, -51.877, -117.35, -24.347, -8.313, 0.307, 23.45, 0.49496, -0.33676, -0.28528, -0.74841,
 11:01:19.951,ed:40:fe:65:30:6c, 2015-01-01 00:14:16.875, 0.792, 0.101, 0.617, 0.854, 0.244, 0.061, 8.784, -51.877, -117.367, -24.347, -8.313, 0.307, 23.45, 0.49496, -0.33676, -0.28528, -0.74841,
 11:01:19.972,f6:90:cc:01:6d:25, 2015-01-01 00:14:19.975, 0.974, -0.078, 0.188, 0.122, 0.427, -0.061, -23.417, -78.289, -128.04, -29.847, -5.800, -1.607, 27.57, 0.21735, -0.62457, -0.12851, -0.73895,
 11:01:19.972,f6:90:cc:01:6d:25, 2015-01-01 00:14:19.975, 0.967, -0.086, 0.184, 1.16, 0.366, -0.183, -23.379, -78.283, -128.079, -29.847, -5.800, -1.607, 27.57, 0.21735, -0.62457, -0.12851, -0.73895,
 11:01:19.993,ed:35:33:d3:6c:f8, 2015-01-01 00:14:20.485, 0.721, -0.016, 0.689, 0.183, 0.61, 0, -1.829, -46.401, 174.891, -19.413, -6.580, -20.913, 28.84, 0.04553, 0.39261, -0.03046, 0.918,
 11:01:19.993,ed:35:33:d3:6c:f8, 2015-01-01 00:14:20.485, 0.725, -0.027, 0.688, -0.183, 0.854, 0.366, -1.835, -46.384, 174.902, -19.413, -6.580, -20.913, 28.84, 0.04553, 0.39261, -0.03046, 0.918,
 11:01:19.994,f6:90:cc:01:6d:25, 2015-01-01 00:14:19.975, 0.967, -0.083, 0.175, 1.221, -0.061, -0.183, -23.34, -78.283, -128.112, -29.847, -5.800, -1.607, 27.57, 0.21735, -0.62457, -0.12851, -0.73895,
 11:01:19.994,f6:90:cc:01:6d:25, 2015-01-01 00:14:19.975, 0.972, -0.073, 0.174, 0.488, 0.061, 0.244, -23.329, -78.289, -128.117, -29.847, -5.800, -1.607, 27.57, 0.21735, -0.62457, -0.12851, -0.73895,
 11:01:19.996,ed:40:fe:65:30:6c, 2015-01-01 00:14:17.210, 0.789, 0.089, 0.615, 0.061, 1.099, 0.549, 8.784, -51.866, -117.361, -24.347, -8.313, 0.307, 23.45, 0.49496, -0.33676, -0.28528, -0.74841,
 11:01:19.996,ed:40:fe:65:30:6c, 2015-01-01 00:14:17.210, 0.792, 0.099, 0.608, -0.061, 0.488, 0.122, 8.773, -51.85, -117.35, -24.347, -8.313, 0.307, 23.45, 0.49496, -0.33676, -0.28528, -0.74841,
 11:01:19.997,e3:ca:2d:fd:e0:8c, 2015-01-01 00:14:17.450, 0.906, -0.094, 0.469, 0.977, -0.793, 0.61, -9.915, -62.216, 176.265, -24.253, -6.160, -14.460, 22, -0.07288, -0.51157, 0.09094, -0.85123,
 11:01:19.997,e3:ca:2d:fd:e0:8c, 2015-01-01 00:14:17.450, 0.901, -0.087, 0.464, 0.488, -0.61, 0.488, -9.926, -62.221, 176.298, -24.253, -6.160, -14.460, 22, -0.07288, -0.51157, 0.09094, -0.85123,
 11:01:20.039,f6:90:cc:01:6d:25, 2015-01-01 00:14:19.975, 0.976, -0.076, 0.179, -0.122, 0.549, 0.549, -23.357, -78.278, -128.084, -29.847, -5.800, -1.607, 27.57, 0.21735, -0.62457, -0.12851, -0.73895,
 11:01:20.039,f6:90:cc:01:6d:25, 2015-01-01 00:14:19.975, 0.973, -0.088, 0.175, 0.061, 0.793, 0.305, -23.373, -78.267, -128.068, -29.847, -5.800, -1.607, 27.57, 0.21735, -0.62457, -0.12851, -0.73895,
 11:01:20.040,ed:40:fe:65:30:6c, 2015-01-01 00:14:17.210, 0.794, 0.107, 0.604, 0.244, -0.122, -0.366, 8.784, -51.844, -117.356, -24.347, -8.313, 0.307, 23.45, 0.49496, -0.33676, -0.28528, -0.74841,
 11:01:20.040,ed:40:fe:65:30:6c, 2015-01-01 00:14:17.210, 0.799, 0.101, 0.612, 0, 0.061, 0, 8.795, -51.85, -117.367, -24.347, -8.313, 0.307, 23.45, 0.49496, -0.33676, -0.28528, -0.74841,
 11:01:20.043,e3:ca:2d:fd:e0:8c, 2015-01-01 00:14:17.450, 0.906, -0.079, 0.468, 0.427, -0.488, 0.549, -9.943, -62.227, 176.336, -24.253, -6.160, -14.460, 22, -0.07288, -0.51157, 0.09094, -0.85123,
 11:01:20.043,e3:ca:2d:fd:e0:8c, 2015-01-01 00:14:17.450, 0.916, -0.083, 0.473, 0.061, 0, 0.244, -9.954, -62.227, 176.369, -24.253, -6.160, -14.460, 22, -0.07288, -0.51157, 0.09094, -0.85123,
 11:01:20.062,ed:35:33:d3:6c:f8, 2015-01-01 00:14:20.485, 0.724, -0.021, 0.682, 0, 0.305, 0, -1.835, -46.379, 174.908, -19.413, -6.580, -20.913, 28.84, 0.04553, 0.39261, -0.03046, 0.918,
 11:01:20.062,ed:35:33:d3:6c:f8, 2015-01-01 00:14:20.485, 0.724, -0.009, 0.68, 0, -0.061, -0.732, -1.818, -46.384, 174.902, -19.413, -6.580, -20.913, 28.84, 0.04553, 0.39261, -0.03046, 0.918,
 11:01:20.066,e3:ca:2d:fd:e0:8c, 2015-01-01 00:14:17.450, 0.914, -0.083, 0.466, 0.793, 0, 0.366, -9.948, -62.227, 176.391, -24.253, -6.160, -14.460, 22, -0.07288, -0.51157, 0.09094, -0.85123,
 11:01:20.066,e3:ca:2d:fd:e0:8c, 2015-01-01 00:14:17.450, 0.909, -0.083, 0.465, 1.709, 0.061, 0.793, -9.948, -62.221, 176.418, -24.253, -6.160, -14.460, 22, -0.07288, -0.51157, 0.09094, -0.85123,
 11:01:20.084,ed:35:33:d3:6c:f8, 2015-01-01 00:14:20.485, 0.729, -0.015, 0.685, -0.61, 0.244, 0.183, -1.829, -46.384, 174.908, -19.120, -6.473, -19.033, 28.84, 0.04553, 0.39261, -0.03046, 0.918,
 11:01:20.084,ed:35:33:d3:6c:f8, 2015-01-01 00:14:20.485, 0.726, -0.041, 0.692, -0.793, 0.488, 0.977, -1.862, -46.373, 174.913, -19.120, -6.473, -19.033, 28.84, 0.04553, 0.39261, -0.03046, 0.918,
 11:01:20.084,f6:90:cc:01:6d:25, 2015-01-01 00:14:19.975, 0.972, -0.085, 0.176, 1.587, 0.366, -0.427, -23.34, -78.261, -128.106, -29.847, -5.800, -1.607, 27.57, 0.21735, -0.62457, -0.12851, -0.73895,
 11:01:20.084,f6:90:cc:01:6d:25, 2015-01-01 00:14:19.975, 0.966, -0.081, 0.173, 1.648, -0.366, -0.916, -23.264, -78.272, -128.167, -29.847, -5.800, -1.607, 27.57, 0.21735, -0.62457, -0.12851, -0.73895,
 11:01:20.085,ed:40:fe:65:30:6c, 2015-01-01 00:14:17.210, 0.795, 0.08, 0.619, 0.061, 0.488, 0.61, 8.789, -51.844, -117.345, -24.347, -8.313, 0.307, 23.45, 0.49496, -0.33676, -0.28528, -0.74841,
 11:01:20.085,ed:40:fe:65:30:6c, 2015-01-01 00:14:17.210, 0.791, 0.083, 0.619, 0.488, 0.366, 0.427, 8.784, -51.839, -117.339, -24.347, -8.313, 0.307, 23.45, 0.49496, -0.33676, -0.28528, -0.74841,
 11:01:20.109,ed:40:fe:65:30:6c, 2015-01-01 00:14:17.210, 0.787, 0.092, 0.606, 1.038, -0.305, 0.061, 8.789, -51.839, -117.345, -24.347, -8.313, 0.307, 23.45, 0.49496, -0.33676, -0.28528, -0.74841,
 11:01:20.109,ed:40:fe:65:30:6c, 2015-01-01 00:14:17.210, 0.789, 0.101, 0.599, 1.526, -1.038, -0.305, 8.822, -51.855, -117.372, -24.347, -8.313, 0.307, 23.45, 0.49496, -0.33676, -0.28528, -0.74841,
 11:01:20.110,e3:ca:2d:fd:e0:8c, 2015-01-01 00:14:17.450, 0.903, -0.08, 0.464, 1.587, 0.488, 0.61, -9.932, -62.21, 176.424, -24.253, -6.160, -14.460, 22, -0.07288, -0.51157, 0.09094, -0.85123,
 11:01:20.110,e3:ca:2d:fd:e0:8c, 2015-01-01 00:14:17.450, 0.896, -0.084, 0.468, 0.916, 1.465, 0.427, -9.921, -62.183, 176.446, -24.253, -6.160, -14.460, 22, -0.07288, -0.51157, 0.09094, -0.85123,
 11:01:20.129,ed:35:33:d3:6c:f8, 2015-01-01 00:14:20.485, 0.723, -0.035, 0.692, 0.488, -0.122, 0.977, -1.879, -46.379, 174.913, -19.120, -6.473, -19.033, 28.84, 0.04553, 0.39261, -0.03046, 0.918,
 11:01:20.129,ed:35:33:d3:6c:f8, 2015-01-01 00:14:20.485, 0.718, -0.026, 0.679, 1.16, -0.916, 0.427, -1.868, -46.395, 174.886, -19.120, -6.473, -19.033, 28.84, 0.04553, 0.39261, -0.03046, 0.918,
 11:01:20.152,ed:35:33:d3:6c:f8, 2015-01-01 00:14:20.485, 0.72, -0.014, 0.671, 1.038, -1.221, 0.061, -1.851, -46.423, 174.858, -19.120, -6.473, -19.033, 28.84, 0.04749, 0.39297, -0.0325, 0.91769,
 11:01:20.152,ed:35:33:d3:6c:f8, 2015-01-01 00:14:20.485, 0.724, -0.013, 0.676, 0.366, -0.854, 0.488, -1.851, -46.445, 174.842, -19.120, -6.473, -19.033, 28.84, 0.04749, 0.39297, -0.0325, 0.91769,
 11:01:20.152,f6:90:cc:01:6d:25, 2015-01-01 00:14:19.975, 0.965, -0.075, 0.172, 0.793, -0.183, -0.732, -23.192, -78.283, -128.238, -30.113, -5.633, -1.053, 27.57, 0.21735, -0.62457, -0.12851, -0.73895,
 11:01:20.152,f6:90:cc:01:6d:25, 2015-01-01 00:14:19.975, 0.968, -0.08, 0.18, 0.061, 0.671, -0.122, -23.154, -78.289, -128.287, -30.113, -5.633, -1.053, 27.57, 0.21735, -0.62457, -0.12851, -0.73895,
 11:01:20.154,ed:40:fe:65:30:6c, 2015-01-01 00:14:17.210, 0.792, 0.103, 0.604, 1.526, -1.282, -0.305, 8.86, -51.877, -117.405, -24.347, -8.313, 0.307, 23.45, 0.49496, -0.33676, -0.28528, -0.74841,
 11:01:20.154,ed:40:fe:65:30:6c, 2015-01-01 00:14:17.210, 0.791, 0.099, 0.614, 0.916, -0.549, 0, 8.893, -51.899, -117.433, -24.347, -8.313, 0.307, 23.45, 0.49496, -0.33676, -0.28528, -0.74841,
 11:01:20.156,e3:ca:2d:fd:e0:8c, 2015-01-01 00:14:17.450, 0.899, -0.089, 0.471, 0.061, 1.404, 0.305, -9.926, -62.155, 176.429, -24.227, -5.853, -14.333, 22, -0.07288, -0.51157, 0.09094, -0.85123,
 11:01:20.156,e3:ca:2d:fd:e0:8c, 2015-01-01 00:14:17.450, 0.901, -0.089, 0.472, -0.122, 1.038, 0.183, -9.932, -62.133, 176.402, -24.227, -5.853, -14.333, 22, -0.07288, -0.51157, 0.09094, -0.85123,
 11:01:20.175,f6:90:cc:01:6d:25, 2015-01-01 00:14:19.975, 0.972, -0.086, 0.186, -0.244, 1.16, 0.305, -23.143, -78.278, -128.298, -30.113, -5.633, -1.053, 27.57, 0.21738, -0.62427, -0.12958, -0.73901,
 11:01:20.175,f6:90:cc:01:6d:25, 2015-01-01 00:14:19.975, 0.968, -0.081, 0.185, 0.183, 1.282, 0.305, -23.137, -78.256, -128.298, -30.113, -5.633, -1.053, 27.57, 0.21738, -0.62427, -0.12958, -0.73901,
 11:01:20.196,ed:35:33:d3:6c:f8, 2015-01-01 00:14:20.485, 0.723, -0.02, 0.686, -0.244, 0.244, 1.038, -1.879, -46.439, 174.803, -19.120, -6.473, -19.033, 28.84, 0.04749, 0.39297, -0.0325, 0.91769,
 11:01:20.196,ed:35:33:d3:6c:f8, 2015-01-01 00:14:20.485, 0.718, -0.024, 0.69, -0.244, 0.549, 0.916, -1.901, -46.434, 174.776, -19.120, -6.473, -19.033, 28.84, 0.04749, 0.39297, -0.0325, 0.91769,
 11:01:20.200,e3:ca:2d:fd:e0:8c, 2015-01-01 00:14:17.450, 0.897, -0.086, 0.472, 0, 0.671, 0.122, -9.937, -62.122, 176.407, -24.227, -5.853, -14.333, 22, -0.07141, -0.51144, 0.09027, -0.8515,
 11:01:20.200,e3:ca:2d:fd:e0:8c, 2015-01-01 00:14:17.450, 0.895, -0.084, 0.474, -0.061, 0.793, 0.183, -9.943, -62.106, 176.413, -24.227, -5.853, -14.333, 22, -0.07141, -0.51144, 0.09027, -0.8515,
 11:01:20.219,ed:35:33:d3:6c:f8, 2015-01-01 00:14:20.820, 0.717, -0.02, 0.692, 0.122, 0.366, 0.244, -1.901, -46.423, 174.765, -19.120, -6.473, -19.033, 28.84, 0.04749, 0.39297, -0.0325, 0.91769,
 11:01:20.219,ed:35:33:d3:6c:f8, 2015-01-01 00:14:20.820, 0.715, -0.02, 0.69, 0.488, 0.427, 0, -1.89, -46.417, 174.776, -19.120, -6.473, -19.033, 28.84, 0.04749, 0.39297, -0.0325, 0.91769,
 11:01:20.220,f6:90:cc:01:6d:25, 2015-01-01 00:14:19.975, 0.964, -0.077, 0.187, 0.671, 0.977, 0.366, -23.132, -78.234, -128.304, -30.113, -5.633, -1.053, 27.57, 0.21738, -0.62427, -0.12958, -0.73901,
 11:01:20.220,f6:90:cc:01:6d:25, 2015-01-01 00:14:19.975, 0.962, -0.077, 0.186, 0.366, 0.916, 0.549, -23.132, -78.212, -128.304, -30.113, -5.633, -1.053, 27.57, 0.21738, -0.62427, -0.12958, -0.73901,
 11:01:20.221,ed:40:fe:65:30:6c, 2015-01-01 00:14:17.210, 0.785, 0.097, 0.617, 0.549, 0.183, 0.122, 8.91, -51.905, -117.455, -24.187, -7.953, 0.740, 23.45, 0.49496, -0.33676, -0.28528, -0.74841,
 11:01:20.221,ed:40:fe:65:30:6c, 2015-01-01 00:14:17.210, 0.783, 0.101, 0.617, 0.366, 0.488, -0.122, 8.921, -51.899, -117.471, -24.187, -7.953, 0.740, 23.45, 0.49496, -0.33676, -0.28528, -0.74841,
 11:01:20.243,f6:90:cc:01:6d:25, 2015-01-01 00:14:20.310, 0.962, -0.077, 0.193, -0.671, 0.854, 0.671, -23.165, -78.195, -128.287, -30.113, -5.633, -1.053, 27.57, 0.21738, -0.62427, -0.12958, -0.73901,
 11:01:20.243,f6:90:cc:01:6d:25, 2015-01-01 00:14:20.310, 0.962, -0.082, 0.193, -1.16, 1.099, 0.61, -23.203, -78.173, -128.271, -30.113, -5.633, -1.053, 27.57, 0.21738, -0.62427, -0.12958, -0.73901,
 11:01:20.244,ed:40:fe:65:30:6c, 2015-01-01 00:14:17.210, 0.782, 0.1, 0.616, 0.61, 0.305, -0.122, 8.932, -51.888, -117.488, -24.187, -7.953, 0.740, 23.45, 0.49423, -0.33655, -0.28616, -0.74863,
 11:01:20.244,ed:40:fe:65:30:6c, 2015-01-01 00:14:17.210, 0.785, 0.098, 0.615, 0.793, 0.366, -0.122, 8.948, -51.883, -117.493, -24.187, -7.953, 0.740, 23.45, 0.49423, -0.33655, -0.28616, -0.74863,
 11:01:20.245,e3:ca:2d:fd:e0:8c, 2015-01-01 00:14:17.760, 0.892, -0.078, 0.479, -0.732, 0.916, 0.183, -9.954, -62.089, 176.424, -24.227, -5.853, -14.333, 22, -0.07141, -0.51144, 0.09027, -0.8515,
 11:01:20.245,e3:ca:2d:fd:e0:8c, 2015-01-01 00:14:17.760, 0.896, -0.082, 0.476, -1.038, 0.488, -0.122, -9.97, -62.073, 176.424, -24.227, -5.853, -14.333, 22, -0.07141, -0.51144, 0.09027, -0.8515,
 11:01:20.264,ed:35:33:d3:6c:f8, 2015-01-01 00:14:20.820, 0.715, -0.022, 0.686, 0.488, 0.793, -0.061, -1.879, -46.401, 174.809, -19.120, -6.473, -19.033, 28.84, 0.04749, 0.39297, -0.0325, 0.91769,
 11:01:20.264,ed:35:33:d3:6c:f8, 2015-01-01 00:14:20.820, 0.714, -0.021, 0.691, 0.244, 1.709, -0.061, -1.868, -46.368, 174.809, -19.120, -6.473, -19.033, 28.84, 0.04749, 0.39297, -0.0325, 0.91769,
 11:01:20.267,e3:ca:2d:fd:e0:8c, 2015-01-01 00:14:17.760, 0.896, -0.082, 0.471, -0.977, 0.305, -0.366, -9.981, -62.062, 176.418, -24.227, -5.853, -14.333, 22, -0.07141, -0.51144, 0.09027, -0.8515,
 11:01:20.267,e3:ca:2d:fd:e0:8c, 2015-01-01 00:14:17.760, 0.898, -0.084, 0.469, -0.916, 0.549, -0.427, -9.981, -62.051, 176.407, -24.227, -5.853, -14.333, 22, -0.07141, -0.51144, 0.09027, -0.8515,
 11:01:20.288,f6:90:cc:01:6d:25, 2015-01-01 00:14:20.310, 0.961, -0.084, 0.185, -1.16, 0.732, 0.244, -23.231, -78.151, -128.282, -30.113, -5.633, -1.053, 27.57, 0.21738, -0.62427, -0.12958, -0.73901,
 11:01:20.288,f6:90:cc:01:6d:25, 2015-01-01 00:14:20.310, 0.962, -0.082, 0.176, -1.038, 0.305, 0, -23.247, -78.146, -128.282, -30.113, -5.633, -1.053, 27.57, 0.21738, -0.62427, -0.12958, -0.73901,
 11:01:20.309,ed:35:33:d3:6c:f8, 2015-01-01 00:14:20.820, 0.716, -0.024, 0.688, 0.549, 1.465, 0.244, -1.862, -46.335, 174.82, -19.120, -6.473, -19.033, 28.84, 0.04749, 0.39297, -0.0325, 0.91769,
 11:01:20.309,ed:35:33:d3:6c:f8, 2015-01-01 00:14:20.820, 0.72, -0.028, 0.687, 0.122, 1.16, 0, -1.857, -46.313, 174.814, -19.120, -6.473, -19.033, 28.84, 0.04749, 0.39297, -0.0325, 0.91769,
 11:01:20.310,ed:40:fe:65:30:6c, 2015-01-01 00:14:17.210, 0.783, 0.097, 0.621, 0.488, 0.732, -0.122, 8.965, -51.866, -117.499, -24.187, -7.953, 0.740, 23.45, 0.49423, -0.33655, -0.28616, -0.74863,
 11:01:20.310,ed:40:fe:65:30:6c, 2015-01-01 00:14:17.210, 0.783, 0.095, 0.615, 0.366, 0.854, 0.244, 8.965, -51.85, -117.482, -24.187, -7.953, 0.740, 23.45, 0.49423, -0.33655, -0.28616, -0.74863,
 11:01:20.312,e3:ca:2d:fd:e0:8c, 2015-01-01 00:14:17.760, 0.905, -0.088, 0.472, -0.916, 1.038, -0.549, -9.976, -62.04, 176.38, -24.227, -5.853, -14.333, 22, -0.07141, -0.51144, 0.09027, -0.8515,
 11:01:20.312,e3:ca:2d:fd:e0:8c, 2015-01-01 00:14:17.760, 0.91, -0.091, 0.472, -0.671, 0.732, -0.488, -9.97, -62.018, 176.331, -24.227, -5.853, -14.333, 22, -0.07141, -0.51144, 0.09027, -0.8515,
 11:01:20.332,f6:90:cc:01:6d:25, 2015-01-01 00:14:20.310, 0.97, -0.085, 0.185, -1.099, 0.244, 0, -23.264, -78.14, -128.265, -30.113, -5.633, -1.053, 27.57, 0.21738, -0.62427, -0.12958, -0.73901,
 11:01:20.332,f6:90:cc:01:6d:25, 2015-01-01 00:14:20.310, 0.975, -0.09, 0.188, -1.038, 0.244, 0, -23.28, -78.14, -128.26, -30.113, -5.633, -1.053, 27.57, 0.21738, -0.62427, -0.12958, -0.73901,
 11:01:20.334,ed:40:fe:65:30:6c, 2015-01-01 00:14:17.545, 0.79, 0.094, 0.612, 0.061, 0.61, 0.305, 8.959, -51.833, -117.466, -24.187, -7.953, 0.740, 23.45, 0.49423, -0.33655, -0.28616, -0.74863,
 11:01:20.334,ed:40:fe:65:30:6c, 2015-01-01 00:14:17.545, 0.793, 0.095, 0.617, 0, 0.305, 0.061, 8.954, -51.823, -117.449, -24.187, -7.953, 0.740, 23.45, 0.49423, -0.33655, -0.28616, -0.74863,
 11:01:20.353,ed:35:33:d3:6c:f8, 2015-01-01 00:14:20.820, 0.721, -0.024, 0.691, 0.122, 1.038, 0, -1.857, -46.291, 174.798, -19.120, -6.473, -19.033, 28.84, 0.04749, 0.39297, -0.0325, 0.91769,
 11:01:20.353,ed:35:33:d3:6c:f8, 2015-01-01 00:14:20.820, 0.719, -0.022, 0.698, -0.183, 1.221, 0.366, -1.868, -46.263, 174.82, -19.120, -6.473, -19.033, 28.84, 0.04749, 0.39297, -0.0325, 0.91769,
 11:01:20.355,f6:90:cc:01:6d:25, 2015-01-01 00:14:20.310, 0.969, -0.09, 0.185, -0.549, -0.122, 0, -23.307, -78.14, -128.249, -30.113, -5.633, -1.053, 27.57, 0.21738, -0.62427, -0.12958, -0.73901,
 11:01:20.355,f6:90:cc:01:6d:25, 2015-01-01 00:14:20.310, 0.96, -0.085, 0.174, 0.244, -0.61, -0.366, -23.318, -78.151, -128.243, -30.113, -5.633, -1.053, 27.57, 0.21738, -0.62427, -0.12958, -0.73901,
 11:01:20.356,ed:40:fe:65:30:6c, 2015-01-01 00:14:17.545, 0.79, 0.096, 0.623, -0.366, 0.488, 0.122, 8.943, -51.812, -117.438, -24.187, -7.953, 0.740, 23.45, 0.49423, -0.33655, -0.28616, -0.74863,
 11:01:20.356,ed:40:fe:65:30:6c, 2015-01-01 00:14:17.545, 0.781, 0.095, 0.624, -0.61, 0.732, 0.488, 8.921, -51.801, -117.411, -24.187, -7.953, 0.740, 23.45, 0.49423, -0.33655, -0.28616, -0.74863,
 11:01:20.358,e3:ca:2d:fd:e0:8c, 2015-01-01 00:14:17.760, 0.909, -0.089, 0.469, 0, 0, -0.488, -9.959, -62.007, 176.287, -24.227, -5.853, -14.333, 22, -0.07141, -0.51144, 0.09027, -0.8515,
 11:01:20.358,e3:ca:2d:fd:e0:8c, 2015-01-01 00:14:17.760, 0.905, -0.084, 0.463, 0.671, -0.244, -0.366, -9.943, -62.012, 176.226, -24.227, -5.853, -14.333, 22, -0.07141, -0.51144, 0.09027, -0.8515,
 11:01:20.399,ed:35:33:d3:6c:f8, 2015-01-01 00:14:20.820, 0.711, -0.023, 0.7, -0.183, 0.793, 0.366, -1.879, -46.247, 174.864, -19.120, -6.473, -19.033, 28.84, 0.04749, 0.39297, -0.0325, 0.91769,
 11:01:20.399,ed:35:33:d3:6c:f8, 2015-01-01 00:14:20.820, 0.713, -0.021, 0.69, -0.061, -0.366, 0.244, -1.884, -46.252, 174.875, -19.120, -6.473, -19.033, 28.84, 0.04749, 0.39297, -0.0325, 0.91769,
 11:01:20.401,ed:40:fe:65:30:6c, 2015-01-01 00:14:17.545, 0.78, 0.096, 0.617, -0.671, 0.305, 0.854, 8.882, -51.79, -117.378, -24.187, -7.953, 0.740, 23.45, 0.49423, -0.33655, -0.28616, -0.74863,
 11:01:20.401,ed:40:fe:65:30:6c, 2015-01-01 00:14:17.545, 0.785, 0.102, 0.603, -0.061, -0.916, 0.732, 8.86, -51.801, -117.356, -24.187, -7.953, 0.740, 23.45, 0.49423, -0.33655, -0.28616, -0.74863,
 11:01:20.402,e3:ca:2d:fd:e0:8c, 2015-01-01 00:14:17.760, 0.899, -0.079, 0.464, 0.977, 0.854, -0.061, -9.921, -62.012, 176.16, -24.227, -5.853, -14.333, 22, -0.07141, -0.51144, 0.09027, -0.8515,
 11:01:20.402,e3:ca:2d:fd:e0:8c, 2015-01-01 00:14:17.760, 0.899, -0.079, 0.47, 0.305, 1.343, 0, -9.904, -61.996, 176.122, -24.227, -5.853, -14.333, 22, -0.07141, -0.51144, 0.09027, -0.8515,
 11:01:20.421,ed:35:33:d3:6c:f8, 2015-01-01 00:14:20.820, 0.714, -0.02, 0.678, 0.427, -1.831, 0.061, -1.879, -46.285, 174.891, -19.660, -6.660, -19.893, 28.84, 0.04749, 0.39297, -0.0325, 0.91769,
 11:01:20.421,ed:35:33:d3:6c:f8, 2015-01-01 00:14:20.820, 0.721, -0.021, 0.68, -0.244, -1.77, 0.305, -1.89, -46.318, 174.924, -19.660, -6.660, -19.893, 28.84, 0.04749, 0.39297, -0.0325, 0.91769,
 11:01:20.422,f6:90:cc:01:6d:25, 2015-01-01 00:14:20.310, 0.96, -0.075, 0.166, 0.549, -1.16, -0.732, -23.307, -78.173, -128.243, -30.113, -5.633, -1.053, 27.57, 0.21738, -0.62427, -0.12958, -0.73901,
 11:01:20.422,f6:90:cc:01:6d:25, 2015-01-01 00:14:20.310, 0.966, -0.071, 0.176, 0.549, -0.854, -0.488, -23.297, -78.201, -128.221, -30.113, -5.633, -1.053, 27.57, 0.21738, -0.62427, -0.12958, -0.73901,
 11:01:20.445,f6:90:cc:01:6d:25, 2015-01-01 00:14:20.310, 0.97, -0.077, 0.187, -0.427, -0.305, -0.122, -23.307, -78.212, -128.177, -30.160, -5.767, -0.413, 27.57, 0.21738, -0.62427, -0.12958, -0.73901,
 11:01:20.445,f6:90:cc:01:6d:25, 2015-01-01 00:14:20.310, 0.976, -0.08, 0.179, -0.671, -0.549, -0.061, -23.34, -78.223, -128.161, -30.160, -5.767, -0.413, 27.57, 0.21738, -0.62427, -0.12958, -0.73901,
 11:01:20.446,ed:40:fe:65:30:6c, 2015-01-01 00:14:17.545, 0.79, 0.098, 0.605, 0.366, -1.709, 0.244, 8.866, -51.828, -117.356, -24.187, -7.953, 0.740, 23.45, 0.49423, -0.33655, -0.28616, -0.74863,
 11:01:20.446,ed:40:fe:65:30:6c, 2015-01-01 00:14:17.545, 0.795, 0.1, 0.615, 0.122, -1.892, 0, 8.877, -51.866, -117.367, -24.187, -7.953, 0.740, 23.45, 0.49423, -0.33655, -0.28616, -0.74863,
 11:01:20.447,e3:ca:2d:fd:e0:8c, 2015-01-01 00:14:17.760, 0.907, -0.079, 0.473, -0.366, 0.977, 0, -9.893, -61.974, 176.105, -23.880, -5.740, -14.787, 22, -0.07141, -0.51144, 0.09027, -0.8515,
 11:01:20.447,e3:ca:2d:fd:e0:8c, 2015-01-01 00:14:17.760, 0.903, -0.084, 0.471, -0.244, 1.221, -0.244, -9.893, -61.952, 176.078, -23.880, -5.740, -14.787, 22, -0.07141, -0.51144, 0.09027, -0.8515,
 11:01:20.466,ed:35:33:d3:6c:f8, 2015-01-01 00:14:20.820, 0.728, -0.018, 0.688, -0.854, -1.099, 0.793, -1.923, -46.335, 174.935, -19.660, -6.660, -19.893, 28.84, 0.04749, 0.39297, -0.0325, 0.91769,
 11:01:20.466,ed:35:33:d3:6c:f8, 2015-01-01 00:14:20.820, 0.717, -0.019, 0.692, -0.977, -1.343, 0.305, -1.95, -46.362, 174.908, -19.660, -6.660, -19.893, 28.84, 0.04749, 0.39297, -0.0325, 0.91769,
 11:01:20.470,e3:ca:2d:fd:e0:8c, 2015-01-01 00:14:17.760, 0.906, -0.084, 0.478, 0, 1.038, -0.427, -9.877, -61.935, 176.045, -23.880, -5.740, -14.787, 22, -0.07373, -0.50974, 0.09143, -0.8522,
 11:01:20.470,e3:ca:2d:fd:e0:8c, 2015-01-01 00:14:17.760, 0.891, -0.083, 0.472, 0.183, 2.93, -0.183, -9.855, -61.908, 176.023, -23.880, -5.740, -14.787, 22, -0.07373, -0.50974, 0.09143, -0.8522,
 11:01:20.490,f6:90:cc:01:6d:25, 2015-01-01 00:14:20.310, 0.966, -0.08, 0.185, -0.183, -0.854, -0.061, -23.373, -78.245, -128.145, -30.160, -5.767, -0.413, 27.57, 0.21738, -0.62427, -0.12958, -0.73901,
 11:01:20.490,f6:90:cc:01:6d:25, 2015-01-01 00:14:20.310, 0.961, -0.078, 0.157, 0, -1.221, 0, -23.428, -78.267, -128.123, -30.160, -5.767, -0.413, 27.57, 0.21738, -0.62427, -0.12958, -0.73901,
 11:01:20.514,ed:40:fe:65:30:6c, 2015-01-01 00:14:17.545, 0.789, 0.103, 0.617, -0.305, -1.587, -0.061, 8.882, -51.894, -117.389, -24.187, -7.953, 0.740, 23.45, 0.49423, -0.33655, -0.28616, -0.74863,
 11:01:20.514,ed:40:fe:65:30:6c, 2015-01-01 00:14:17.545, 0.785, 0.102, 0.62, -0.793, -0.916, -0.183, 8.882, -51.916, -117.405, -24.187, -7.953, 0.740, 23.45, 0.49423, -0.33655, -0.28616, -0.74863,
 11:01:20.515,e3:ca:2d:fd:e0:8c, 2015-01-01 00:14:17.760, 0.885, -0.083, 0.489, -0.122, 4.028, -0.183, -9.827, -61.848, 176.001, -23.880, -5.740, -14.787, 22, -0.07373, -0.50974, 0.09143, -0.8522,
 11:01:20.515,e3:ca:2d:fd:e0:8c, 2015-01-01 00:14:17.760, 0.899, -0.083, 0.491, -1.282, 2.747, -0.366, -9.805, -61.776, 175.979, -23.880, -5.740, -14.787, 22, -0.07373, -0.50974, 0.09143, -0.8522,
 11:01:20.536,ed:40:fe:65:30:6c, 2015-01-01 00:14:17.545, 0.792, 0.099, 0.601, -0.549, -1.831, -0.061, 8.882, -51.943, -117.427, -24.487, -7.973, 0.653, 23.45, 0.49423, -0.33655, -0.28616, -0.74863,
 11:01:20.536,ed:40:fe:65:30:6c, 2015-01-01 00:14:17.545, 0.801, 0.097, 0.604, -0.61, -2.136, 0, 8.882, -51.982, -117.449, -24.487, -7.973, 0.653, 23.45, 0.49423, -0.33655, -0.28616, -0.74863,
 11:01:20.556,ed:35:33:d3:6c:f8, 2015-01-01 00:14:20.820, 0.723, -0.018, 0.693, -1.099, -1.221, -0.061, -1.967, -46.384, 174.858, -19.660, -6.660, -19.893, 28.84, 0.04733, 0.3924, -0.03296, 0.91794,
 11:01:20.556,ed:35:33:d3:6c:f8, 2015-01-01 00:14:20.820, 0.719, -0.022, 0.675, -0.366, -2.93, -0.366, -1.967, -46.445, 174.776, -19.660, -6.660, -19.893, 28.84, 0.04733, 0.3924, -0.03296, 0.91794,
 11:01:20.558,f6:90:cc:01:6d:25, 2015-01-01 00:14:20.310, 0.972, -0.08, 0.186, -0.427, -0.854, 0.061, -23.483, -78.289, -128.084, -30.160, -5.767, -0.413, 27.57, 0.21695, -0.6246, -0.12866, -0.73901,
 11:01:20.558,f6:90:cc:01:6d:25, 2015-01-01 00:14:20.310, 0.976, -0.081, 0.201, -1.343, 0.488, 0.366, -23.527, -78.283, -128.073, -30.160, -5.767, -0.413, 27.57, 0.21695, -0.6246, -0.12866, -0.73901,
 11:01:20.560,e3:ca:2d:fd:e0:8c, 2015-01-01 00:14:18.050, 0.903, -0.081, 0.471, -1.343, 1.282, -0.427, -9.805, -61.732, 175.979, -23.880, -5.740, -14.787, 22, -0.07373, -0.50974, 0.09143, -0.8522,
 11:01:20.560,e3:ca:2d:fd:e0:8c, 2015-01-01 00:14:18.050, 0.889, -0.086, 0.475, -0.427, 1.953, -0.549, -9.8, -61.705, 175.99, -23.880, -5.740, -14.787, 22, -0.07373, -0.50974, 0.09143, -0.8522,
 11:01:20.579,ed:35:33:d3:6c:f8, 2015-01-01 00:14:21.155, 0.728, -0.02, 0.669, -1.221, -2.502, 0, -1.989, -46.494, 174.71, -19.660, -6.660, -19.893, 28.84, 0.04733, 0.3924, -0.03296, 0.91794,
 11:01:20.579,ed:35:33:d3:6c:f8, 2015-01-01 00:14:21.155, 0.722, -0.022, 0.687, -1.709, -0.916, 0.916, -2.038, -46.511, 174.666, -19.660, -6.660, -19.893, 28.84, 0.04733, 0.3924, -0.03296, 0.91794,
 11:01:20.580,f6:90:cc:01:6d:25, 2015-01-01 00:14:20.645, 0.965, -0.084, 0.191, -1.831, 0.977, 0.61, -23.577, -78.267, -128.073, -30.160, -5.767, -0.413, 27.57, 0.21695, -0.6246, -0.12866, -0.73901,
 11:01:20.580,f6:90:cc:01:6d:25, 2015-01-01 00:14:20.645, 0.961, -0.085, 0.183, -0.854, -1.099, 0.305, -23.659, -78.272, -128.024, -30.160, -5.767, -0.413, 27.57, 0.21695, -0.6246, -0.12866, -0.73901,
 11:01:20.581,ed:40:fe:65:30:6c, 2015-01-01 00:14:17.545, 0.791, 0.099, 0.61, -0.671, -1.465, -0.122, 8.882, -52.009, -117.471, -24.487, -7.973, 0.653, 23.45, 0.49423, -0.33655, -0.28616, -0.74863,
 11:01:20.581,ed:40:fe:65:30:6c, 2015-01-01 00:14:17.545, 0.79, 0.094, 0.621, -0.488, 0, -0.061, 8.877, -52.02, -117.482, -24.487, -7.973, 0.653, 23.45, 0.49423, -0.33655, -0.28616, -0.74863,
 11:01:20.601,ed:35:33:d3:6c:f8, 2015-01-01 00:14:21.155, 0.725, -0.027, 0.689, -1.343, 0.549, 1.404, -2.093, -46.494, 174.644, -19.660, -6.660, -19.893, 28.84, 0.04733, 0.3924, -0.03296, 0.91794,
 11:01:20.601,ed:35:33:d3:6c:f8, 2015-01-01 00:14:21.155, 0.722, -0.034, 0.679, -0.671, -0.244, 1.465, -2.137, -46.5, 174.661, -19.660, -6.660, -19.893, 28.84, 0.04733, 0.3924, -0.03296, 0.91794,
 11:01:20.604,ed:40:fe:65:30:6c, 2015-01-01 00:14:17.545, 0.79, 0.086, 0.608, -0.244, 0.305, 0.488, 8.866, -52.015, -117.482, -24.487, -7.973, 0.653, 23.45, 0.4939, -0.33765, -0.28625, -0.74835,
 11:01:20.604,ed:40:fe:65:30:6c, 2015-01-01 00:14:17.545, 0.794, 0.091, 0.607, 0.061, 0.305, 0.61, 8.849, -52.009, -117.477, -24.487, -7.973, 0.653, 23.45, 0.4939, -0.33765, -0.28625, -0.74835,
 11:01:20.604,e3:ca:2d:fd:e0:8c, 2015-01-01 00:14:18.050, 0.891, -0.083, 0.483, 0, 1.709, -0.549, -9.778, -61.666, 175.968, -23.880, -5.740, -14.787, 22, -0.07373, -0.50974, 0.09143, -0.8522,
 11:01:20.604,e3:ca:2d:fd:e0:8c, 2015-01-01 00:14:18.050, 0.899, -0.083, 0.478, -0.122, 1.099, -0.488, -9.75, -61.639, 175.919, -23.880, -5.740, -14.787, 22, -0.07373, -0.50974, 0.09143, -0.8522,
 11:01:20.624,ed:35:33:d3:6c:f8, 2015-01-01 00:14:21.155, 0.732, -0.031, 0.681, -0.427, 0.122, 1.038, -2.164, -46.5, 174.694, -19.660, -6.660, -19.893, 28.84, 0.04733, 0.3924, -0.03296, 0.91794,
 11:01:20.624,ed:35:33:d3:6c:f8, 2015-01-01 00:14:21.155, 0.734, -0.027, 0.677, 0.671, 0.183, 0.977, -2.17, -46.494, 174.721, -19.660, -6.660, -19.893, 28.84, 0.04733, 0.3924, -0.03296, 0.91794,
 11:01:20.624,f6:90:cc:01:6d:25, 2015-01-01 00:14:20.645, 0.964, -0.09, 0.183, -0.61, -1.282, -0.061, -23.725, -78.294, -127.969, -30.160, -5.767, -0.413, 27.57, 0.21695, -0.6246, -0.12866, -0.73901,
 11:01:20.624,f6:90:cc:01:6d:25, 2015-01-01 00:14:20.645, 0.968, -0.084, 0.175, -0.305, -0.305, -0.305, -23.741, -78.305, -127.969, -30.160, -5.767, -0.413, 27.57, 0.21695, -0.6246, -0.12866, -0.73901,
 11:01:20.647,f6:90:cc:01:6d:25, 2015-01-01 00:14:20.645, 0.979, -0.085, 0.179, -0.305, 0, -0.366, -23.73, -78.311, -127.98, -30.160, -5.767, -0.413, 27.57, 0.21695, -0.6246, -0.12866, -0.73901,
 11:01:20.647,f6:90:cc:01:6d:25, 2015-01-01 00:14:20.645, 0.976, -0.087, 0.178, -0.427, 0.854, -0.305, -23.692, -78.3, -128.035, -30.160, -5.767, -0.413, 27.57, 0.21695, -0.6246, -0.12866, -0.73901,
 11:01:20.649,ed:40:fe:65:30:6c, 2015-01-01 00:14:17.545, 0.804, 0.092, 0.604, 0.61, 0.244, 0.427, 8.844, -52.004, -117.477, -24.487, -7.973, 0.653, 23.45, 0.4939, -0.33765, -0.28625, -0.74835,
 11:01:20.649,ed:40:fe:65:30:6c, 2015-01-01 00:14:17.545, 0.804, 0.094, 0.605, 0.793, 0.366, 0.671, 8.844, -51.998, -117.477, -24.487, -7.973, 0.653, 23.45, 0.4939, -0.33765, -0.28625, -0.74835,
 11:01:20.651,e3:ca:2d:fd:e0:8c, 2015-01-01 00:14:18.050, 0.902, -0.087, 0.484, -0.366, 1.404, -0.732, -9.728, -61.617, 175.88, -23.880, -5.740, -14.787, 22, -0.07373, -0.50974, 0.09143, -0.8522,
 11:01:20.651,e3:ca:2d:fd:e0:8c, 2015-01-01 00:14:18.050, 0.909, -0.086, 0.479, -0.244, 1.099, -0.916, -9.701, -61.595, 175.836, -23.880, -5.740, -14.787, 22, -0.07373, -0.50974, 0.09143, -0.8522,
 11:01:20.669,ed:35:33:d3:6c:f8, 2015-01-01 00:14:21.155, 0.733, -0.028, 0.678, 0.732, 0.183, 1.404, -2.186, -46.494, 174.749, -19.660, -6.660, -19.893, 28.84, 0.04733, 0.3924, -0.03296, 0.91794,
 11:01:20.669,ed:35:33:d3:6c:f8, 2015-01-01 00:14:21.155, 0.733, -0.034, 0.672, 0.122, 0.488, 1.404, -2.214, -46.489, 174.765, -19.660, -6.660, -19.893, 28.84, 0.04733, 0.3924, -0.03296, 0.91794,
 11:01:20.671,ed:40:fe:65:30:6c, 2015-01-01 00:14:17.900, 0.803, 0.091, 0.603, 0.427, 0.732, 0.671, 8.833, -51.993, -117.471, -24.487, -7.973, 0.653, 23.45, 0.4939, -0.33765, -0.28625, -0.74835,
 11:01:20.671,ed:40:fe:65:30:6c, 2015-01-01 00:14:17.900, 0.8, 0.092, 0.595, 0.549, 0.732, 0, 8.839, -51.982, -117.471, -24.487, -7.973, 0.653, 23.45, 0.4939, -0.33765, -0.28625, -0.74835,
 11:01:20.673,e3:ca:2d:fd:e0:8c, 2015-01-01 00:14:18.050, 0.903, -0.085, 0.479, 0.061, 2.136, -0.916, -9.668, -61.567, 175.781, -23.880, -5.740, -14.787, 22, -0.07373, -0.50974, 0.09143, -0.8522,
 11:01:20.673,e3:ca:2d:fd:e0:8c, 2015-01-01 00:14:18.050, 0.904, -0.081, 0.489, 0.732, 3.052, -0.854, -9.619, -61.523, 175.682, -23.880, -5.740, -14.787, 22, -0.07373, -0.50974, 0.09143, -0.8522,
 11:01:20.692,f6:90:cc:01:6d:25, 2015-01-01 00:14:20.645, 0.976, -0.082, 0.164, 0.366, 0.61, -0.488, -23.632, -78.294, -128.095, -30.160, -5.767, -0.413, 27.57, 0.21695, -0.6246, -0.12866, -0.73901,
 11:01:20.692,f6:90:cc:01:6d:25, 2015-01-01 00:14:20.645, 0.975, -0.082, 0.172, 0.854, 1.099, -0.549, -23.544, -78.278, -128.177, -30.160, -5.767, -0.413, 27.57, 0.21695, -0.6246, -0.12866, -0.73901,
 11:01:20.715,ed:35:33:d3:6c:f8, 2015-01-01 00:14:21.155, 0.729, -0.031, 0.67, 0.244, 0.366, 0.916, -2.23, -46.483, 174.749, -19.660, -6.660, -19.893, 28.84, 0.04733, 0.3924, -0.03296, 0.91794,
 11:01:20.715,ed:35:33:d3:6c:f8, 2015-01-01 00:14:21.155, 0.725, -0.026, 0.675, 0.305, 0.732, 0.977, -2.247, -46.478, 174.749, -19.660, -6.660, -19.893, 28.84, 0.04733, 0.3924, -0.03296, 0.91794,
 11:01:20.716,ed:40:fe:65:30:6c, 2015-01-01 00:14:17.900, 0.796, 0.093, 0.603, 0.671, 1.16, -0.061, 8.844, -51.965, -117.477, -24.487, -7.973, 0.653, 23.45, 0.4939, -0.33765, -0.28625, -0.74835,
 11:01:20.716,ed:40:fe:65:30:6c, 2015-01-01 00:14:17.900, 0.792, 0.091, 0.612, 0.427, 1.953, 0.244, 8.844, -51.938, -117.466, -24.487, -7.973, 0.653, 23.45, 0.4939, -0.33765, -0.28625, -0.74835,
 11:01:20.718,e3:ca:2d:fd:e0:8c, 2015-01-01 00:14:18.050, 0.904, -0.086, 0.482, 1.221, 4.272, -0.671, -9.553, -61.463, 175.573, -23.880, -5.740, -14.787, 22, -0.07373, -0.50974, 0.09143, -0.8522,
 11:01:20.718,e3:ca:2d:fd:e0:8c, 2015-01-01 00:14:18.050, 0.898, -0.084, 0.473, 0.61, 4.15, -0.427, -9.492, -61.381, 175.474, -23.880, -5.740, -14.787, 22, -0.07373, -0.50974, 0.09143, -0.8522,
 11:01:20.737,f6:90:cc:01:6d:25, 2015-01-01 00:14:20.645, 0.971, -0.087, 0.173, 1.526, 1.648, -0.732, -23.406, -78.261, -128.298, -30.160, -5.767, -0.413, 27.57, 0.21695, -0.6246, -0.12866, -0.73901,
 11:01:20.737,f6:90:cc:01:6d:25, 2015-01-01 00:14:20.645, 0.969, -0.082, 0.18, 1.282, 1.587, -0.793, -23.275, -78.239, -128.414, -30.160, -5.767, -0.413, 27.57, 0.21695, -0.6246, -0.12866, -0.73901,
 11:01:20.760,ed:40:fe:65:30:6c, 2015-01-01 00:14:17.900, 0.788, 0.099, 0.615, 0.61, 2.136, 0.305, 8.839, -51.905, -117.449, -24.487, -7.973, 0.653, 23.45, 0.4939, -0.33765, -0.28625, -0.74835,
 11:01:20.760,ed:40:fe:65:30:6c, 2015-01-01 00:14:17.900, 0.782, 0.099, 0.619, 0.732, 2.136, 0.061, 8.839, -51.866, -117.444, -24.487, -7.973, 0.653, 23.45, 0.4939, -0.33765, -0.28625, -0.74835,
 11:01:20.760,ed:35:33:d3:6c:f8, 2015-01-01 00:14:21.155, 0.724, -0.029, 0.685, 0.244, 1.16, 1.648, -2.28, -46.456, 174.76, -19.660, -6.660, -19.893, 28.84, 0.04733, 0.3924, -0.03296, 0.91794,
 11:01:20.760,ed:35:33:d3:6c:f8, 2015-01-01 00:14:21.155, 0.722, -0.026, 0.689, 0.61, 1.648, 1.282, -2.291, -46.428, 174.76, -19.660, -6.660, -19.893, 28.84, 0.04733, 0.3924, -0.03296, 0.91794,
 11:01:20.763,e3:ca:2d:fd:e0:8c, 2015-01-01 00:14:18.050, 0.89, -0.076, 0.477, -0.061, 3.357, -0.671, -9.448, -61.309, 175.408, -24.247, -5.973, -15.373, 22, -0.07373, -0.50974, 0.09143, -0.8522,
 11:01:20.763,e3:ca:2d:fd:e0:8c, 2015-01-01 00:14:18.050, 0.881, -0.081, 0.479, 0, 2.869, -0.61, -9.41, -61.254, 175.364, -24.247, -5.973, -15.373, 22, -0.07373, -0.50974, 0.09143, -0.8522,
 11:01:20.782,f6:90:cc:01:6d:25, 2015-01-01 00:14:20.645, 0.967, -0.079, 0.184, 0.122, 1.16, -0.732, -23.187, -78.228, -128.507, -30.160, -5.767, -0.413, 27.57, 0.21695, -0.6246, -0.12866, -0.73901,
 11:01:20.782,f6:90:cc:01:6d:25, 2015-01-01 00:14:20.645, 0.958, -0.077, 0.183, -0.427, 0.244, -0.732, -23.137, -78.234, -128.546, -30.160, -5.767, -0.413, 27.57, 0.21695, -0.6246, -0.12866, -0.73901,
 11:01:20.805,f6:90:cc:01:6d:25, 2015-01-01 00:14:20.645, 0.952, -0.081, 0.179, -0.244, 0, -0.488, -23.115, -78.239, -128.551, -30.073, -5.920, -0.647, 27.57, 0.21695, -0.6246, -0.12866, -0.73901,
 11:01:20.805,f6:90:cc:01:6d:25, 2015-01-01 00:14:20.645, 0.955, -0.077, 0.182, 0, 0.61, -0.427, -23.071, -78.239, -128.573, -30.073, -5.920, -0.647, 27.57, 0.21695, -0.6246, -0.12866, -0.73901,
 11:01:20.806,ed:40:fe:65:30:6c, 2015-01-01 00:14:17.900, 0.774, 0.097, 0.61, 0.427, 2.014, -0.122, 8.844, -51.828, -117.438, -24.487, -7.973, 0.653, 23.45, 0.4939, -0.33765, -0.28625, -0.74835,
 11:01:20.806,ed:40:fe:65:30:6c, 2015-01-01 00:14:17.900, 0.776, 0.094, 0.604, 0.427, 1.892, -0.244, 8.855, -51.795, -117.449, -24.487, -7.973, 0.653, 23.45, 0.4939, -0.33765, -0.28625, -0.74835,
 11:01:20.808,e3:ca:2d:fd:e0:8c, 2015-01-01 00:14:18.050, 0.871, -0.083, 0.484, 0.061, 2.686, -0.61, -9.377, -61.205, 175.336, -24.247, -5.973, -15.373, 22, -0.07645, -0.50406, 0.09091, -0.85541,
 11:01:20.808,e3:ca:2d:fd:e0:8c, 2015-01-01 00:14:18.050, 0.883, -0.075, 0.498, 0, 2.625, -0.671, -9.344, -61.155, 175.314, -24.247, -5.973, -15.373, 22, -0.07645, -0.50406, 0.09091, -0.85541,
 11:01:20.827,ed:35:33:d3:6c:f8, 2015-01-01 00:14:21.155, 0.712, -0.029, 0.691, 0.732, 1.77, 0.549, -2.291, -46.401, 174.738, -19.667, -6.760, -20.027, 28.84, 0.04733, 0.3924, -0.03296, 0.91794,
 11:01:20.827,ed:35:33:d3:6c:f8, 2015-01-01 00:14:21.155, 0.707, -0.028, 0.68, 0.916, 1.099, -0.183, -2.269, -46.379, 174.716, -19.667, -6.760, -20.027, 28.84, 0.04733, 0.3924, -0.03296, 0.91794,
 11:01:20.830,e3:ca:2d:fd:e0:8c, 2015-01-01 00:14:18.365, 0.886, -0.077, 0.491, 0.305, 3.357, -0.549, -9.305, -61.1, 175.314, -24.247, -5.973, -15.373, 22, -0.07645, -0.50406, 0.09091, -0.85541,
 11:01:20.830,e3:ca:2d:fd:e0:8c, 2015-01-01 00:14:18.365, 0.887, -0.08, 0.501, 0.305, 4.15, -0.732, -9.256, -61.035, 175.309, -24.247, -5.973, -15.373, 22, -0.07645, -0.50406, 0.09091, -0.85541,
 11:01:20.848,ed:35:33:d3:6c:f8, 2015-01-01 00:14:21.155, 0.708, -0.026, 0.675, 0.854, 0.732, -0.305, -2.241, -46.368, 174.699, -19.667, -6.760, -20.027, 28.84, 0.05017, 0.39233, -0.03616, 0.91769,
 11:01:20.848,ed:35:33:d3:6c:f8, 2015-01-01 00:14:21.155, 0.72, -0.022, 0.685, 0.671, 0.671, 0, -2.23, -46.357, 174.694, -19.667, -6.760, -20.027, 28.84, 0.05017, 0.39233, -0.03616, 0.91769,
 11:01:20.850,f6:90:cc:01:6d:25, 2015-01-01 00:14:20.645, 0.964, -0.077, 0.178, 0.244, 1.648, -0.549, -22.967, -78.212, -128.683, -30.073, -5.920, -0.647, 27.57, 0.21695, -0.6246, -0.12866, -0.73901,
 11:01:20.850,f6:90:cc:01:6d:25, 2015-01-01 00:14:20.645, 0.975, -0.081, 0.19, 0.549, 1.709, -0.793, -22.835, -78.19, -128.815, -30.073, -5.920, -0.647, 27.57, 0.21695, -0.6246, -0.12866, -0.73901,
 11:01:20.873,ed:40:fe:65:30:6c, 2015-01-01 00:14:17.900, 0.781, 0.097, 0.61, 0.183, 1.831, -0.305, 8.855, -51.757, -117.466, -24.487, -7.973, 0.653, 23.45, 0.4939, -0.33765, -0.28625, -0.74835,
 11:01:20.873,ed:40:fe:65:30:6c, 2015-01-01 00:14:17.900, 0.793, 0.093, 0.61, 0.427, 1.648, 0, 8.86, -51.729, -117.471, -24.487, -7.973, 0.653, 23.45, 0.4939, -0.33765, -0.28625, -0.74835,
 11:01:20.875,e3:ca:2d:fd:e0:8c, 2015-01-01 00:14:18.365, 0.898, -0.074, 0.501, 0, 2.93, -0.671, -9.212, -60.969, 175.309, -24.247, -5.973, -15.373, 22, -0.07645, -0.50406, 0.09091, -0.85541,
 11:01:20.875,e3:ca:2d:fd:e0:8c, 2015-01-01 00:14:18.365, 0.903, -0.074, 0.489, -0.122, 2.319, -0.488, -9.174, -60.914, 175.331, -24.247, -5.973, -15.373, 22, -0.07645, -0.50406, 0.09091, -0.85541,
 11:01:20.894,ed:35:33:d3:6c:f8, 2015-01-01 00:14:21.155, 0.729, -0.031, 0.68, 0.977, 0.488, 0.61, -2.225, -46.351, 174.677, -19.667, -6.760, -20.027, 28.84, 0.05017, 0.39233, -0.03616, 0.91769,
 11:01:20.894,ed:35:33:d3:6c:f8, 2015-01-01 00:14:21.155, 0.724, -0.028, 0.685, 0.977, 0.549, 0.183, -2.208, -46.34, 174.639, -19.667, -6.760, -20.027, 28.84, 0.05017, 0.39233, -0.03616, 0.91769,
 11:01:20.897,ed:40:fe:65:30:6c, 2015-01-01 00:14:17.900, 0.796, 0.096, 0.616, 0.793, 1.648, -0.244, 8.871, -51.696, -117.488, -23.860, -7.847, 0.760, 23.45, 0.4939, -0.33765, -0.28625, -0.74835,
 11:01:20.897,ed:40:fe:65:30:6c, 2015-01-01 00:14:17.900, 0.79, 0.101, 0.62, 1.221, 1.831, -0.61, 8.904, -51.658, -117.504, -23.860, -7.847, 0.760, 23.45, 0.4939, -0.33765, -0.28625, -0.74835,
 11:01:20.916,ed:35:33:d3:6c:f8, 2015-01-01 00:14:21.515, 0.723, -0.024, 0.693, 0.854, 1.221, 0.549, -2.203, -46.318, 174.622, -19.667, -6.760, -20.027, 28.84, 0.05017, 0.39233, -0.03616, 0.91769,
 11:01:20.916,ed:35:33:d3:6c:f8, 2015-01-01 00:14:21.515, 0.722, -0.028, 0.692, 0.488, 1.404, 0.488, -2.203, -46.291, 174.6, -19.667, -6.760, -20.027, 28.84, 0.05017, 0.39233, -0.03616, 0.91769,
 11:01:20.918,f6:90:cc:01:6d:25, 2015-01-01 00:14:20.645, 0.978, -0.075, 0.2, 0, 2.747, -0.671, -22.681, -78.146, -128.952, -30.073, -5.920, -0.647, 27.57, 0.21597, -0.6239, -0.12839, -0.73993,
 11:01:20.918,f6:90:cc:01:6d:25, 2015-01-01 00:14:20.645, 0.97, -0.075, 0.184, -0.061, 3.052, -0.732, -22.516, -78.096, -129.095, -30.073, -5.920, -0.647, 27.57, 0.21597, -0.6239, -0.12839, -0.73993,
 11:01:20.920,e3:ca:2d:fd:e0:8c, 2015-01-01 00:14:18.365, 0.888, -0.079, 0.487, -0.183, 3.601, -0.549, -9.141, -60.859, 175.325, -24.247, -5.973, -15.373, 22, -0.07645, -0.50406, 0.09091, -0.85541,
 11:01:20.920,e3:ca:2d:fd:e0:8c, 2015-01-01 00:14:18.365, 0.885, -0.075, 0.494, -0.305, 3.235, -0.61, -9.108, -60.793, 175.303, -24.247, -5.973, -15.373, 22, -0.07645, -0.50406, 0.09091, -0.85541,
 11:01:20.941,ed:40:fe:65:30:6c, 2015-01-01 00:14:17.900, 0.787, 0.099, 0.622, 0.61, 2.136, -0.61, 8.926, -51.619, -117.515, -23.860, -7.847, 0.760, 23.45, 0.4939, -0.33765, -0.28625, -0.74835,
 11:01:20.941,ed:40:fe:65:30:6c, 2015-01-01 00:14:17.900, 0.783, 0.101, 0.618, 0.305, 1.709, -0.916, 8.948, -51.581, -117.537, -23.860, -7.847, 0.760, 23.45, 0.4939, -0.33765, -0.28625, -0.74835,
 11:01:20.941,f6:90:cc:01:6d:25, 2015-01-01 00:14:21.005, 0.968, -0.077, 0.177, -0.061, 1.953, -0.977, -22.368, -78.074, -129.238, -30.073, -5.920, -0.647, 27.57, 0.21597, -0.6239, -0.12839, -0.73993,
 11:01:20.941,f6:90:cc:01:6d:25, 2015-01-01 00:14:21.005, 0.966, -0.075, 0.19, -0.549, 1.709, -0.977, -22.236, -78.052, -129.359, -30.073, -5.920, -0.647, 27.57, 0.21597, -0.6239, -0.12839, -0.73993,
 11:01:20.963,f6:90:cc:01:6d:25, 2015-01-01 00:14:21.005, 0.961, -0.07, 0.189, -0.488, 2.319, -0.854, -22.094, -78.019, -129.49, -30.073, -5.920, -0.647, 27.57, 0.21597, -0.6239, -0.12839, -0.73993,
 11:01:20.963,f6:90:cc:01:6d:25, 2015-01-01 00:14:21.005, 0.96, -0.076, 0.18, -0.244, 1.831, -0.793, -21.973, -77.992, -129.595, -30.073, -5.920, -0.647, 27.57, 0.21597, -0.6239, -0.12839, -0.73993,
 11:01:20.963,ed:35:33:d3:6c:f8, 2015-01-01 00:14:21.515, 0.713, -0.023, 0.687, 0.854, 1.099, -0.244, -2.181, -46.269, 174.578, -19.667, -6.760, -20.027, 28.84, 0.05017, 0.39233, -0.03616, 0.91769,
 11:01:20.963,ed:35:33:d3:6c:f8, 2015-01-01 00:14:21.515, 0.712, -0.014, 0.691, 0.61, 1.282, -0.61, -2.153, -46.247, 174.54, -19.667, -6.760, -20.027, 28.84, 0.05017, 0.39233, -0.03616, 0.91769,
 11:01:20.965,ed:40:fe:65:30:6c, 2015-01-01 00:14:17.900, 0.777, 0.109, 0.618, 0, 1.648, -1.221, 8.976, -51.548, -117.57, -23.860, -7.847, 0.760, 23.45, 0.49435, -0.33432, -0.28494, -0.75,
 11:01:20.965,ed:40:fe:65:30:6c, 2015-01-01 00:14:17.900, 0.776, 0.109, 0.616, -0.61, 1.709, -1.099, 8.987, -51.509, -117.598, -23.860, -7.847, 0.760, 23.45, 0.49435, -0.33432, -0.28494, -0.75,
 11:01:20.965,e3:ca:2d:fd:e0:8c, 2015-01-01 00:14:18.365, 0.885, -0.074, 0.489, -0.427, 2.075, -0.305, -9.086, -60.743, 175.27, -24.247, -5.973, -15.373, 22, -0.07645, -0.50406, 0.09091, -0.85541,
 11:01:20.965,e3:ca:2d:fd:e0:8c, 2015-01-01 00:14:18.365, 0.879, -0.078, 0.494, -0.366, 2.869, -0.244, -9.064, -60.699, 175.259, -24.247, -5.973, -15.373, 22, -0.07645, -0.50406, 0.09091, -0.85541,
 11:01:20.985,ed:35:33:d3:6c:f8, 2015-01-01 00:14:21.515, 0.711, -0.012, 0.686, 0.549, 0.916, -0.366, -2.131, -46.23, 174.54, -19.667, -6.760, -20.027, 28.84, 0.05017, 0.39233, -0.03616, 0.91769,
 11:01:20.985,ed:35:33:d3:6c:f8, 2015-01-01 00:14:21.515, 0.711, -0.016, 0.689, 0, 0.61, -0.183, -2.12, -46.219, 174.529, -19.667, -6.760, -20.027, 28.84, 0.05017, 0.39233, -0.03616, 0.91769,
 11:01:21.008,f6:90:cc:01:6d:25, 2015-01-01 00:14:21.005, 0.968, -0.075, 0.2, -0.671, 2.136, -0.488, -21.868, -77.959, -129.683, -30.073, -5.920, -0.647, 27.57, 0.21597, -0.6239, -0.12839, -0.73993,
 11:01:21.008,f6:90:cc:01:6d:25, 2015-01-01 00:14:21.005, 0.964, -0.076, 0.204, 0.488, 1.587, -0.488, -21.764, -77.926, -129.76, -30.073, -5.920, -0.647, 27.57, 0.21597, -0.6239, -0.12839, -0.73993,
 11:01:21.008,ed:40:fe:65:30:6c, 2015-01-01 00:14:17.900, 0.778, 0.108, 0.617, -0.916, 1.526, -0.671, 8.987, -51.476, -117.614, -23.860, -7.847, 0.760, 23.45, 0.49435, -0.33432, -0.28494, -0.75,
 11:01:21.008,ed:40:fe:65:30:6c, 2015-01-01 00:14:17.900, 0.782, 0.104, 0.631, -0.671, 2.014, -0.549, 8.981, -51.438, -117.614, -23.860, -7.847, 0.760, 23.45, 0.49435, -0.33432, -0.28494, -0.75,
 11:01:21.010,e3:ca:2d:fd:e0:8c, 2015-01-01 00:14:18.365, 0.884, -0.077, 0.5, -0.305, 2.319, -0.427, -9.047, -60.65, 175.259, -24.247, -5.973, -15.373, 22, -0.07645, -0.50406, 0.09091, -0.85541,
 11:01:21.010,e3:ca:2d:fd:e0:8c, 2015-01-01 00:14:18.365, 0.885, -0.078, 0.497, -0.061, 1.099, -0.305, -9.025, -60.617, 175.254, -24.247, -5.973, -15.373, 22, -0.07645, -0.50406, 0.09091, -0.85541,
 11:01:21.030,ed:35:33:d3:6c:f8, 2015-01-01 00:14:21.515, 0.717, -0.022, 0.701, -0.916, 1.77, 0.183, -2.137, -46.181, 174.523, -19.667, -6.760, -20.027, 28.84, 0.05017, 0.39233, -0.03616, 0.91769,
 11:01:21.030,ed:35:33:d3:6c:f8, 2015-01-01 00:14:21.515, 0.707, -0.025, 0.702, -0.183, 1.648, 0.671, -2.153, -46.148, 174.54, -19.667, -6.760, -20.027, 28.84, 0.05017, 0.39233, -0.03616, 0.91769,
 11:01:21.035,e3:ca:2d:fd:e0:8c, 2015-01-01 00:14:18.365, 0.885, -0.08, 0.504, -0.183, 0, -0.061, -9.02, -60.606, 175.248, -23.920, -5.833, -15.193, 22, -0.07645, -0.50406, 0.09091, -0.85541,
 11:01:21.035,e3:ca:2d:fd:e0:8c, 2015-01-01 00:14:18.365, 0.873, -0.079, 0.5, -0.183, 0, 0.122, -9.02, -60.606, 175.292, -23.920, -5.833, -15.193, 22, -0.07645, -0.50406, 0.09091, -0.85541,
 11:01:21.053,f6:90:cc:01:6d:25, 2015-01-01 00:14:21.005, 0.958, -0.078, 0.196, 0.305, 0.977, -0.488, -21.66, -77.904, -129.831, -30.073, -5.920, -0.647, 27.57, 0.21597, -0.6239, -0.12839, -0.73993,
 11:01:21.053,f6:90:cc:01:6d:25, 2015-01-01 00:14:21.005, 0.955, -0.078, 0.202, 0.122, 0.244, -0.366, -21.588, -77.893, -129.886, -30.073, -5.920, -0.647, 27.57, 0.21597, -0.6239, -0.12839, -0.73993,
 11:01:21.055,ed:40:fe:65:30:6c, 2015-01-01 00:14:18.260, 0.776, 0.098, 0.631, -0.244, 2.258, -0.244, 8.981, -51.389, -117.62, -23.860, -7.847, 0.760, 23.45, 0.49435, -0.33432, -0.28494, -0.75,
 11:01:21.055,ed:40:fe:65:30:6c, 2015-01-01 00:14:18.260, 0.769, 0.102, 0.639, 0.244, 2.502, 0, 8.981, -51.334, -117.614, -23.860, -7.847, 0.760, 23.45, 0.49435, -0.33432, -0.28494, -0.75,
 11:01:21.077,e3:ca:2d:fd:e0:8c, 2015-01-01 00:14:18.365, 0.868, -0.082, 0.507, -0.305, 0.244, 0, -9.025, -60.601, 175.364, -23.920, -5.833, -15.193, 22, -0.07645, -0.50406, 0.09091, -0.85541,
 11:01:21.077,e3:ca:2d:fd:e0:8c, 2015-01-01 00:14:18.365, 0.874, -0.082, 0.506, -0.305, -0.305, -0.244, -9.031, -60.601, 175.397, -23.920, -5.833, -15.193, 22, -0.07645, -0.50406, 0.09091, -0.85541,
 11:01:21.077,ed:40:fe:65:30:6c, 2015-01-01 00:14:18.260, 0.765, 0.102, 0.63, 0.793, 2.014, 0.122, 8.987, -51.29, -117.603, -23.860, -7.847, 0.760, 23.45, 0.49435, -0.33432, -0.28494, -0.75,
 11:01:21.077,ed:40:fe:65:30:6c, 2015-01-01 00:14:18.260, 0.764, 0.106, 0.629, 1.038, 1.404, 0.305, 8.998, -51.257, -117.587, -23.860, -7.847, 0.760, 23.45, 0.49435, -0.33432, -0.28494, -0.75,
 11:01:21.096,ed:35:33:d3:6c:f8, 2015-01-01 00:14:21.515, 0.705, -0.024, 0.707, 0.427, 2.197, 0.366, -2.142, -46.099, 174.573, -19.667, -6.760, -20.027, 28.84, 0.05017, 0.39233, -0.03616, 0.91769,
 11:01:21.096,ed:35:33:d3:6c:f8, 2015-01-01 00:14:21.515, 0.697, -0.021, 0.698, 1.892, 1.526, -0.305, -2.098, -46.066, 174.562, -19.667, -6.760, -20.027, 28.84, 0.05017, 0.39233, -0.03616, 0.91769,
 11:01:21.097,f6:90:cc:01:6d:25, 2015-01-01 00:14:21.005, 0.956, -0.078, 0.206, 0, 0.732, 0.061, -21.55, -77.888, -129.902, -30.073, -5.920, -0.647, 27.57, 0.21597, -0.6239, -0.12839, -0.73993,
 11:01:21.097,f6:90:cc:01:6d:25, 2015-01-01 00:14:21.005, 0.959, -0.078, 0.208, 0.366, 0.854, 0.244, -21.533, -77.871, -129.902, -30.073, -5.920, -0.647, 27.57, 0.21597, -0.6239, -0.12839, -0.73993,
 11:01:21.119,ed:35:33:d3:6c:f8, 2015-01-01 00:14:21.515, 0.697, -0.014, 0.696, 1.953, 1.038, -0.61, -2.038, -46.038, 174.551, -19.720, -6.653, -20.313, 28.84, 0.05017, 0.39233, -0.03616, 0.91769,
 11:01:21.119,ed:35:33:d3:6c:f8, 2015-01-01 00:14:21.515, 0.702, -0.018, 0.705, 1.099, 1.831, 0, -2.01, -45.994, 174.556, -19.720, -6.653, -20.313, 28.84, 0.05017, 0.39233, -0.03616, 0.91769,
 11:01:21.121,ed:40:fe:65:30:6c, 2015-01-01 00:14:18.260, 0.767, 0.105, 0.633, 0.61, 1.343, 0.549, 8.998, -51.224, -117.565, -23.860, -7.847, 0.760, 23.45, 0.49435, -0.33432, -0.28494, -0.75,
 11:01:21.121,ed:40:fe:65:30:6c, 2015-01-01 00:14:18.260, 0.768, 0.103, 0.64, 0, 1.77, 0.732, 8.976, -51.185, -117.532, -23.860, -7.847, 0.760, 23.45, 0.49435, -0.33432, -0.28494, -0.75,
 11:01:21.123,e3:ca:2d:fd:e0:8c, 2015-01-01 00:14:18.365, 0.875, -0.077, 0.503, -0.122, -0.916, -0.183, -9.031, -60.606, 175.435, -23.920, -5.833, -15.193, 22, -0.07431, -0.49979, 0.08817, -0.85837,
 11:01:21.123,e3:ca:2d:fd:e0:8c, 2015-01-01 00:14:18.365, 0.875, -0.075, 0.503, -0.244, -0.977, -0.122, -9.031, -60.617, 175.457, -23.920, -5.833, -15.193, 22, -0.07431, -0.49979, 0.08817, -0.85837,
 11:01:21.142,f6:90:cc:01:6d:25, 2015-01-01 00:14:21.005, 0.958, -0.075, 0.203, 0.305, 0, 0.122, -21.517, -77.855, -129.902, -30.073, -5.920, -0.647, 27.57, 0.21597, -0.6239, -0.12839, -0.73993,
 11:01:21.142,f6:90:cc:01:6d:25, 2015-01-01 00:14:21.005, 0.959, -0.072, 0.206, 0.061, -0.366, 0.183, -21.522, -77.849, -129.908, -30.073, -5.920, -0.647, 27.57, 0.21597, -0.6239, -0.12839, -0.73993,
 11:01:21.164,ed:35:33:d3:6c:f8, 2015-01-01 00:14:21.515, 0.702, -0.02, 0.706, 0.854, 2.136, 0.427, -2, -45.945, 174.567, -19.720, -6.653, -20.313, 28.84, 0.05017, 0.39233, -0.03616, 0.91769,
 11:01:21.164,ed:35:33:d3:6c:f8, 2015-01-01 00:14:21.515, 0.7, -0.021, 0.706, 1.404, 1.648, 0.061, -1.967, -45.901, 174.589, -19.720, -6.653, -20.313, 28.84, 0.05017, 0.39233, -0.03616, 0.91769,
 11:01:21.166,ed:40:fe:65:30:6c, 2015-01-01 00:14:18.260, 0.768, 0.103, 0.636, -0.061, 1.587, 0.732, 8.954, -51.147, -117.493, -23.860, -7.847, 0.760, 23.45, 0.49435, -0.33432, -0.28494, -0.75,
 11:01:21.168,ed:40:fe:65:30:6c, 2015-01-01 00:14:18.260, 0.768, 0.101, 0.638, 0.122, 1.526, 0.671, 8.937, -51.108, -117.455, -23.860, -7.847, 0.760, 23.45, 0.49435, -0.33432, -0.28494, -0.75,
 11:01:21.170,f6:90:cc:01:6d:25, 2015-01-01 00:14:21.005, 0.958, -0.073, 0.197, 0.305, -0.549, 0, -21.533, -77.849, -129.913, -30.020, -6.013, -1.787, 27.57, 0.21597, -0.6239, -0.12839, -0.73993,
 11:01:21.170,f6:90:cc:01:6d:25, 2015-01-01 00:14:21.005, 0.96, -0.08, 0.19, 0.183, -1.343, -0.183, -21.539, -77.86, -129.946, -30.020, -6.013, -1.787, 27.57, 0.21597, -0.6239, -0.12839, -0.73993,
 11:01:21.171,e3:ca:2d:fd:e0:8c, 2015-01-01 00:14:18.675, 0.884, -0.074, 0.5, -0.305, -1.709, -0.122, -9.042, -60.639, 175.501, -23.920, -5.833, -15.193, 22, -0.07431, -0.49979, 0.08817, -0.85837,
 11:01:21.171,e3:ca:2d:fd:e0:8c, 2015-01-01 00:14:18.675, 0.882, -0.075, 0.495, -0.305, -2.075, 0, -9.053, -60.667, 175.545, -23.920, -5.833, -15.193, 22, -0.07431, -0.49979, 0.08817, -0.85837,
 11:01:21.187,ed:35:33:d3:6c:f8, 2015-01-01 00:14:21.515, 0.703, -0.02, 0.708, 1.465, 1.587, 0.061, -1.934, -45.862, 174.628, -19.720, -6.653, -20.313, 28.84, 0.05011, 0.3887, -0.03418, 0.91931,
 11:01:21.187,ed:35:33:d3:6c:f8, 2015-01-01 00:14:21.515, 0.707, -0.022, 0.696, 1.526, 0.305, 0.244, -1.906, -45.846, 174.644, -19.720, -6.653, -20.313, 28.84, 0.05011, 0.3887, -0.03418, 0.91931,
 11:01:21.210,f6:90:cc:01:6d:25, 2015-01-01 00:14:21.005, 0.965, -0.073, 0.194, -0.488, -1.038, -0.183, -21.561, -77.882, -129.946, -30.020, -6.013, -1.787, 27.57, 0.21597, -0.6239, -0.12839, -0.73993,
 11:01:21.210,f6:90:cc:01:6d:25, 2015-01-01 00:14:21.005, 0.971, -0.07, 0.195, -0.549, -0.732, 0, -21.583, -77.893, -129.919, -30.020, -6.013, -1.787, 27.57, 0.21597, -0.6239, -0.12839, -0.73993,
 11:01:21.214,e3:ca:2d:fd:e0:8c, 2015-01-01 00:14:18.675, 0.879, -0.077, 0.5, -0.244, -1.221, 0, -9.064, -60.694, 175.589, -23.920, -5.833, -15.193, 22, -0.07431, -0.49979, 0.08817, -0.85837,
 11:01:21.214,e3:ca:2d:fd:e0:8c, 2015-01-01 00:14:18.675, 0.889, -0.076, 0.498, -0.671, -1.16, -0.183, -9.075, -60.71, 175.616, -23.920, -5.833, -15.193, 22, -0.07431, -0.49979, 0.08817, -0.85837,
 11:01:21.232,ed:35:33:d3:6c:f8, 2015-01-01 00:14:21.515, 0.711, -0.019, 0.691, 0.366, -0.244, -0.244, -1.89, -45.846, 174.628, -19.720, -6.653, -20.313, 28.84, 0.05011, 0.3887, -0.03418, 0.91931,
 11:01:21.232,ed:35:33:d3:6c:f8, 2015-01-01 00:14:21.515, 0.712, -0.008, 0.694, 0, 0, 0, -1.884, -45.835, 174.639, -19.720, -6.653, -20.313, 28.84, 0.05011, 0.3887, -0.03418, 0.91931,
 11:01:21.233,ed:40:fe:65:30:6c, 2015-01-01 00:14:18.260, 0.77, 0.099, 0.629, -0.488, 1.16, 0.977, 8.904, -51.081, -117.411, -23.860, -7.847, 0.760, 23.45, 0.49435, -0.33432, -0.28494, -0.75,
 11:01:21.233,ed:40:fe:65:30:6c, 2015-01-01 00:14:18.260, 0.776, 0.101, 0.625, -1.038, 0.427, 0.854, 8.866, -51.064, -117.367, -23.860, -7.847, 0.760, 23.45, 0.49435, -0.33432, -0.28494, -0.75,
 11:01:21.235,e3:ca:2d:fd:e0:8c, 2015-01-01 00:14:18.675, 0.902, -0.076, 0.498, -1.038, -1.526, -0.122, -9.091, -60.727, 175.644, -23.920, -5.833, -15.193, 22, -0.07431, -0.49979, 0.08817, -0.85837,
 11:01:21.235,e3:ca:2d:fd:e0:8c, 2015-01-01 00:14:18.675, 0.896, -0.081, 0.489, -1.16, -1.343, -0.061, -9.113, -60.749, 175.66, -23.920, -5.833, -15.193, 22, -0.07431, -0.49979, 0.08817, -0.85837,
 11:01:21.258,ed:40:fe:65:30:6c, 2015-01-01 00:14:18.260, 0.78, 0.109, 0.623, -1.038, 0.061, 0.305, 8.844, -51.059, -117.361, -24.147, -7.813, 0.780, 23.45, 0.49435, -0.33432, -0.28494, -0.75,
 11:01:21.258,ed:40:fe:65:30:6c, 2015-01-01 00:14:18.260, 0.783, 0.107, 0.633, -1.16, 0.122, 0.61, 8.811, -51.048, -117.339, -24.147, -7.813, 0.780, 23.45, 0.49435, -0.33432, -0.28494, -0.75,
 11:01:21.277,ed:35:33:d3:6c:f8, 2015-01-01 00:14:21.850, 0.723, -0.015, 0.706, -1.099, 0.488, 0.977, -1.923, -45.818, 174.666, -19.720, -6.653, -20.313, 28.84, 0.05011, 0.3887, -0.03418, 0.91931,
 11:01:21.277,ed:35:33:d3:6c:f8, 2015-01-01 00:14:21.850, 0.71, -0.031, 0.699, -0.793, -0.732, 0.122, -1.939, -45.829, 174.639, -19.720, -6.653, -20.313, 28.84, 0.05011, 0.3887, -0.03418, 0.91931,
 11:01:21.278,f6:90:cc:01:6d:25, 2015-01-01 00:14:21.005, 0.971, -0.075, 0.184, -0.549, -0.916, 0.061, -21.61, -77.904, -129.869, -30.020, -6.013, -1.787, 27.57, 0.21661, -0.62106, -0.12936, -0.74197,
 11:01:21.278,f6:90:cc:01:6d:25, 2015-01-01 00:14:21.005, 0.967, -0.078, 0.185, -0.366, -1.343, 0.305, -21.66, -77.921, -129.809, -30.020, -6.013, -1.787, 27.57, 0.21661, -0.62106, -0.12936, -0.74197,
 11:01:21.280,e3:ca:2d:fd:e0:8c, 2015-01-01 00:14:18.675, 0.892, -0.083, 0.49, -0.793, -0.916, -0.122, -9.13, -60.771, 175.649, -23.920, -5.833, -15.193, 22, -0.07431, -0.49979, 0.08817, -0.85837,
 11:01:21.280,e3:ca:2d:fd:e0:8c, 2015-01-01 00:14:18.675, 0.892, -0.08, 0.489, -0.488, -0.916, 0, -9.146, -60.782, 175.605, -23.920, -5.833, -15.193, 22, -0.07431, -0.49979, 0.08817, -0.85837,
 11:01:21.301,f6:90:cc:01:6d:25, 2015-01-01 00:14:21.360, 0.967, -0.078, 0.184, -0.061, -1.465, 0.244, -21.731, -77.943, -129.716, -30.020, -6.013, -1.787, 27.57, 0.21661, -0.62106, -0.12936, -0.74197,
 11:01:21.301,f6:90:cc:01:6d:25, 2015-01-01 00:14:21.360, 0.967, -0.079, 0.187, -0.183, -1.465, 0.122, -21.802, -77.97, -129.6, -30.020, -6.013, -1.787, 27.57, 0.21661, -0.62106, -0.12936, -0.74197,
 11:01:21.301,ed:40:fe:65:30:6c, 2015-01-01 00:14:18.260, 0.781, 0.098, 0.628, -1.587, -0.244, 0.916, 8.762, -51.048, -117.323, -24.147, -7.813, 0.780, 23.45, 0.49435, -0.33432, -0.28494, -0.75,
 11:01:21.301,ed:40:fe:65:30:6c, 2015-01-01 00:14:18.260, 0.78, 0.092, 0.625, -1.77, -0.854, 0.427, 8.723, -51.064, -117.328, -24.147, -7.813, 0.780, 23.45, 0.49435, -0.33432, -0.28494, -0.75,
 11:01:21.321,ed:35:33:d3:6c:f8, 2015-01-01 00:14:21.850, 0.715, -0.028, 0.69, -0.916, -1.404, 0.427, -1.939, -45.857, 174.628, -19.720, -6.653, -20.313, 28.84, 0.05011, 0.3887, -0.03418, 0.91931,
 11:01:21.321,ed:35:33:d3:6c:f8, 2015-01-01 00:14:21.850, 0.718, -0.022, 0.69, -1.038, -1.282, 0.671, -1.972, -45.879, 174.655, -19.720, -6.653, -20.313, 28.84, 0.05011, 0.3887, -0.03418, 0.91931,
 11:01:21.322,f6:90:cc:01:6d:25, 2015-01-01 00:14:21.360, 0.964, -0.08, 0.183, -0.305, -1.709, 0.061, -21.868, -77.997, -129.507, -30.020, -6.013, -1.787, 27.57, 0.21661, -0.62106, -0.12936, -0.74197,
 11:01:21.322,f6:90:cc:01:6d:25, 2015-01-01 00:14:21.360, 0.965, -0.081, 0.181, -0.488, -1.587, 0.061, -21.94, -78.03, -129.419, -30.020, -6.013, -1.787, 27.57, 0.21661, -0.62106, -0.12936, -0.74197,
 11:01:21.324,ed:40:fe:65:30:6c, 2015-01-01 00:14:18.260, 0.78, 0.089, 0.623, -1.526, -1.221, 0.122, 8.701, -51.081, -117.345, -24.147, -7.813, 0.780, 23.45, 0.49576, -0.33151, -0.28204, -0.75143,
 11:01:21.324,ed:40:fe:65:30:6c, 2015-01-01 00:14:18.260, 0.783, 0.095, 0.625, -1.526, -1.282, 0.061, 8.674, -51.103, -117.35, -24.147, -7.813, 0.780, 23.45, 0.49576, -0.33151, -0.28204, -0.75143,
 11:01:21.325,e3:ca:2d:fd:e0:8c, 2015-01-01 00:14:18.675, 0.891, -0.081, 0.49, -0.549, -1.404, 0, -9.163, -60.804, 175.578, -23.920, -5.833, -15.193, 22, -0.07431, -0.49979, 0.08817, -0.85837,
 11:01:21.325,e3:ca:2d:fd:e0:8c, 2015-01-01 00:14:18.675, 0.886, -0.083, 0.489, -0.61, -1.404, -0.061, -9.179, -60.831, 175.545, -23.920, -5.833, -15.193, 22, -0.07431, -0.49979, 0.08817, -0.85837,
 11:01:21.366,ed:35:33:d3:6c:f8, 2015-01-01 00:14:21.850, 0.716, -0.027, 0.684, -0.61, -2.258, 0.488, -2, -45.906, 174.655, -19.720, -6.653, -20.313, 28.84, 0.05011, 0.3887, -0.03418, 0.91931,
 11:01:21.366,ed:35:33:d3:6c:f8, 2015-01-01 00:14:21.850, 0.72, -0.028, 0.68, -1.038, -2.014, 0.549, -2.027, -45.95, 174.65, -19.720, -6.653, -20.313, 28.84, 0.05011, 0.3887, -0.03418, 0.91931,
 11:01:21.367,f6:90:cc:01:6d:25, 2015-01-01 00:14:21.360, 0.967, -0.08, 0.184, -0.61, -1.16, 0.122, -22.017, -78.058, -129.348, -30.020, -6.013, -1.787, 27.57, 0.21661, -0.62106, -0.12936, -0.74197,
 11:01:21.367,f6:90:cc:01:6d:25, 2015-01-01 00:14:21.360, 0.971, -0.08, 0.187, -0.366, -0.732, 0.061, -22.083, -78.074, -129.282, -30.020, -6.013, -1.787, 27.57, 0.21661, -0.62106, -0.12936, -0.74197,
 11:01:21.368,ed:40:fe:65:30:6c, 2015-01-01 00:14:18.260, 0.782, 0.095, 0.615, -1.221, -1.526, 0.366, 8.652, -51.13, -117.345, -24.147, -7.813, 0.780, 23.45, 0.49576, -0.33151, -0.28204, -0.75143,
 11:01:21.368,ed:40:fe:65:30:6c, 2015-01-01 00:14:18.260, 0.785, 0.091, 0.615, -1.038, -1.587, 0.366, 8.63, -51.163, -117.328, -24.147, -7.813, 0.780, 23.45, 0.49576, -0.33151, -0.28204, -0.75143,
 11:01:21.370,e3:ca:2d:fd:e0:8c, 2015-01-01 00:14:18.675, 0.886, -0.083, 0.491, -0.427, -1.221, -0.122, -9.196, -60.853, 175.518, -24.340, -5.413, -15.927, 22, -0.07431, -0.49979, 0.08817, -0.85837,
 11:01:21.370,e3:ca:2d:fd:e0:8c, 2015-01-01 00:14:18.675, 0.89, -0.082, 0.495, -0.366, -1.221, -0.122, -9.207, -60.875, 175.485, -24.340, -5.413, -15.927, 22, -0.07431, -0.49979, 0.08817, -0.85837,
 11:01:21.389,ed:35:33:d3:6c:f8, 2015-01-01 00:14:21.850, 0.726, -0.027, 0.683, -1.221, -1.404, 1.099, -2.065, -45.983, 174.661, -19.720, -6.653, -20.313, 28.84, 0.05011, 0.3887, -0.03418, 0.91931,
 11:01:21.389,ed:35:33:d3:6c:f8, 2015-01-01 00:14:21.850, 0.723, -0.029, 0.687, -1.16, -1.038, 1.099, -2.109, -46.011, 174.683, -19.720, -6.653, -20.313, 28.84, 0.05011, 0.3887, -0.03418, 0.91931,
 11:01:21.412,f6:90:cc:01:6d:25, 2015-01-01 00:14:21.360, 0.971, -0.08, 0.185, -0.183, -0.488, 0, -22.121, -78.085, -129.238, -30.020, -6.013, -1.787, 27.57, 0.21661, -0.62106, -0.12936, -0.74197,
 11:01:21.412,f6:90:cc:01:6d:25, 2015-01-01 00:14:21.360, 0.97, -0.08, 0.183, 0, -0.549, -0.061, -22.148, -78.096, -129.188, -30.020, -6.013, -1.787, 27.57, 0.21661, -0.62106, -0.12936, -0.74197,
 11:01:21.413,ed:40:fe:65:30:6c, 2015-01-01 00:14:18.615, 0.79, 0.091, 0.617, -1.099, -1.343, 0.305, 8.608, -51.191, -117.323, -24.147, -7.813, 0.780, 23.45, 0.49576, -0.33151, -0.28204, -0.75143,
 11:01:21.413,ed:40:fe:65:30:6c, 2015-01-01 00:14:18.615, 0.79, 0.092, 0.618, -1.038, -0.854, 0.183, 8.586, -51.207, -117.312, -24.147, -7.813, 0.780, 23.45, 0.49576, -0.33151, -0.28204, -0.75143,
 11:01:21.414,e3:ca:2d:fd:e0:8c, 2015-01-01 00:14:18.675, 0.894, -0.082, 0.494, -0.183, -1.404, -0.183, -9.212, -60.903, 175.468, -24.340, -5.413, -15.927, 22, -0.07462, -0.50201, 0.08914, -0.85696,
 11:01:21.414,e3:ca:2d:fd:e0:8c, 2015-01-01 00:14:18.675, 0.896, -0.081, 0.493, -0.183, -1.282, -0.244, -9.218, -60.925, 175.49, -24.340, -5.413, -15.927, 22, -0.07462, -0.50201, 0.08914, -0.85696,
 11:01:21.436,ed:40:fe:65:30:6c, 2015-01-01 00:14:18.615, 0.785, 0.091, 0.62, -1.038, -0.488, 0.305, 8.558, -51.218, -117.301, -24.147, -7.813, 0.780, 23.45, 0.49576, -0.33151, -0.28204, -0.75143,
 11:01:21.436,ed:40:fe:65:30:6c, 2015-01-01 00:14:18.615, 0.785, 0.092, 0.617, -0.916, -0.244, 0.305, 8.536, -51.224, -117.279, -24.147, -7.813, 0.780, 23.45, 0.49576, -0.33151, -0.28204, -0.75143,
 11:01:21.438,e3:ca:2d:fd:e0:8c, 2015-01-01 00:14:18.965, 0.891, -0.08, 0.492, -0.244, -0.916, -0.305, -9.218, -60.941, 175.485, -24.340, -5.413, -15.927, 22, -0.07462, -0.50201, 0.08914, -0.85696,
 11:01:21.438,e3:ca:2d:fd:e0:8c, 2015-01-01 00:14:18.965, 0.892, -0.08, 0.489, -0.183, -0.61, -0.366, -9.218, -60.958, 175.485, -24.340, -5.413, -15.927, 22, -0.07462, -0.50201, 0.08914, -0.85696,
 11:01:21.457,ed:35:33:d3:6c:f8, 2015-01-01 00:14:21.850, 0.72, -0.028, 0.686, -0.854, -0.916, 0.916, -2.153, -46.027, 174.683, -19.720, -6.653, -20.313, 28.84, 0.05011, 0.3887, -0.03418, 0.91931,
 11:01:21.457,ed:35:33:d3:6c:f8, 2015-01-01 00:14:21.850, 0.724, -0.031, 0.684, -0.732, -0.732, 0.549, -2.192, -46.049, 174.661, -19.720, -6.653, -20.313, 28.84, 0.05011, 0.3887, -0.03418, 0.91931,
 11:01:21.457,f6:90:cc:01:6d:25, 2015-01-01 00:14:21.360, 0.966, -0.079, 0.181, 0.061, -0.488, -0.183, -22.165, -78.107, -129.128, -30.020, -6.013, -1.787, 27.57, 0.21661, -0.62106, -0.12936, -0.74197,
 11:01:21.457,f6:90:cc:01:6d:25, 2015-01-01 00:14:21.360, 0.968, -0.075, 0.176, 0, -0.061, -0.183, -22.165, -78.118, -129.122, -30.020, -6.013, -1.787, 27.57, 0.21661, -0.62106, -0.12936, -0.74197,
 11:01:21.479,ed:35:33:d3:6c:f8, 2015-01-01 00:14:21.850, 0.721, -0.021, 0.682, -0.366, -0.793, 0.061, -2.214, -46.066, 174.628, -19.447, -6.620, -20.700, 28.84, 0.05011, 0.3887, -0.03418, 0.91931,
 11:01:21.479,ed:35:33:d3:6c:f8, 2015-01-01 00:14:21.850, 0.728, -0.021, 0.686, -0.488, -0.488, 0.244, -2.225, -46.082, 174.644, -19.447, -6.620, -20.700, 28.84, 0.05011, 0.3887, -0.03418, 0.91931,
 11:01:21.481,ed:40:fe:65:30:6c, 2015-01-01 00:14:18.615, 0.786, 0.095, 0.614, -0.916, -0.427, 0, 8.52, -51.235, -117.268, -24.147, -7.813, 0.780, 23.45, 0.49576, -0.33151, -0.28204, -0.75143,
 11:01:21.481,ed:40:fe:65:30:6c, 2015-01-01 00:14:18.615, 0.792, 0.1, 0.616, -0.916, -0.427, 0.122, 8.503, -51.246, -117.279, -24.147, -7.813, 0.780, 23.45, 0.49576, -0.33151, -0.28204, -0.75143,
 11:01:21.483,e3:ca:2d:fd:e0:8c, 2015-01-01 00:14:18.965, 0.897, -0.079, 0.489, -0.061, -0.183, -0.305, -9.212, -60.963, 175.463, -24.340, -5.413, -15.927, 22, -0.07462, -0.50201, 0.08914, -0.85696,
 11:01:21.483,e3:ca:2d:fd:e0:8c, 2015-01-01 00:14:18.965, 0.898, -0.078, 0.487, -0.183, 0, -0.244, -9.207, -60.963, 175.446, -24.340, -5.413, -15.927, 22, -0.07462, -0.50201, 0.08914, -0.85696,
 11:01:21.502,f6:90:cc:01:6d:25, 2015-01-01 00:14:21.360, 0.971, -0.076, 0.182, -0.244, 0.305, -0.183, -22.159, -78.118, -129.139, -30.020, -6.013, -1.787, 27.57, 0.21661, -0.62106, -0.12936, -0.74197,
 11:01:21.502,f6:90:cc:01:6d:25, 2015-01-01 00:14:21.360, 0.974, -0.075, 0.18, -0.427, 0.122, 0, -22.159, -78.118, -129.15, -30.020, -6.013, -1.787, 27.57, 0.21661, -0.62106, -0.12936, -0.74197,
 11:01:21.524,ed:35:33:d3:6c:f8, 2015-01-01 00:14:21.850, 0.724, -0.03, 0.687, -0.732, -0.244, 0.061, -2.236, -46.093, 174.694, -19.447, -6.620, -20.700, 28.84, 0.05011, 0.3887, -0.03418, 0.91931,
 11:01:21.524,ed:35:33:d3:6c:f8, 2015-01-01 00:14:21.850, 0.719, -0.027, 0.686, -0.732, -0.488, -0.244, -2.252, -46.104, 174.699, -19.447, -6.620, -20.700, 28.84, 0.05011, 0.3887, -0.03418, 0.91931,
 11:01:21.525,f6:90:cc:01:6d:25, 2015-01-01 00:14:21.360, 0.971, -0.075, 0.179, -0.427, 0.305, 0, -22.17, -78.118, -129.161, -30.047, -5.827, -1.320, 27.57, 0.21661, -0.62106, -0.12936, -0.74197,
 11:01:21.525,f6:90:cc:01:6d:25, 2015-01-01 00:14:21.360, 0.965, -0.077, 0.174, -0.122, -0.061, 0, -22.181, -78.124, -129.188, -30.047, -5.827, -1.320, 27.57, 0.21661, -0.62106, -0.12936, -0.74197,
 11:01:21.526,ed:40:fe:65:30:6c, 2015-01-01 00:14:18.615, 0.786, 0.093, 0.619, -0.916, -0.427, 0, 8.481, -51.257, -117.285, -24.147, -7.813, 0.780, 23.45, 0.49576, -0.33151, -0.28204, -0.75143,
 11:01:21.526,ed:40:fe:65:30:6c, 2015-01-01 00:14:18.615, 0.782, 0.095, 0.618, -0.732, -0.427, -0.061, 8.47, -51.268, -117.296, -24.147, -7.813, 0.780, 23.45, 0.49576, -0.33151, -0.28204, -0.75143,
 11:01:21.528,e3:ca:2d:fd:e0:8c, 2015-01-01 00:14:18.965, 0.9, -0.079, 0.487, -0.244, 0, -0.183, -9.201, -60.963, 175.435, -24.340, -5.413, -15.927, 22, -0.07462, -0.50201, 0.08914, -0.85696,
 11:01:21.528,e3:ca:2d:fd:e0:8c, 2015-01-01 00:14:18.965, 0.898, -0.08, 0.484, -0.183, -0.122, -0.183, -9.201, -60.963, 175.43, -24.340, -5.413, -15.927, 22, -0.07462, -0.50201, 0.08914, -0.85696,
 11:01:21.570,f6:90:cc:01:6d:25, 2015-01-01 00:14:21.360, 0.966, -0.074, 0.175, -0.305, -0.122, 0, -22.198, -78.129, -129.216, -30.047, -5.827, -1.320, 27.57, 0.21661, -0.62106, -0.12936, -0.74197,
 11:01:21.570,f6:90:cc:01:6d:25, 2015-01-01 00:14:21.360, 0.968, -0.074, 0.181, -0.305, 0.305, 0, -22.214, -78.129, -129.243, -30.047, -5.827, -1.320, 27.57, 0.21661, -0.62106, -0.12936, -0.74197,
 11:01:21.571,ed:40:fe:65:30:6c, 2015-01-01 00:14:18.615, 0.782, 0.097, 0.613, -0.61, -0.549, 0, 8.459, -51.279, -117.301, -24.147, -7.813, 0.780, 23.45, 0.49576, -0.33151, -0.28204, -0.75143,
 11:01:21.571,ed:40:fe:65:30:6c, 2015-01-01 00:14:18.615, 0.785, 0.092, 0.613, -0.305, -0.854, -0.061, 8.459, -51.29, -117.318, -24.147, -7.813, 0.780, 23.45, 0.49576, -0.33151, -0.28204, -0.75143,
 11:01:21.573,e3:ca:2d:fd:e0:8c, 2015-01-01 00:14:18.965, 0.891, -0.078, 0.484, -0.061, 0.427, -0.122, -9.196, -60.963, 175.446, -24.340, -5.413, -15.927, 22, -0.07462, -0.50201, 0.08914, -0.85696,
 11:01:21.573,e3:ca:2d:fd:e0:8c, 2015-01-01 00:14:18.965, 0.888, -0.077, 0.489, -0.061, 1.038, -0.061, -9.19, -60.947, 175.474, -24.340, -5.413, -15.927, 22, -0.07462, -0.50201, 0.08914, -0.85696,
 11:01:21.591,ed:35:33:d3:6c:f8, 2015-01-01 00:14:21.850, 0.717, -0.021, 0.685, -1.099, -0.732, 0, -2.263, -46.115, 174.688, -19.447, -6.620, -20.700, 28.84, 0.0502, 0.39023, -0.03613, 0.91858,
 11:01:21.591,ed:35:33:d3:6c:f8, 2015-01-01 00:14:21.850, 0.718, -0.027, 0.679, -0.977, -1.16, 0.122, -2.285, -46.137, 174.699, -19.447, -6.620, -20.700, 28.84, 0.0502, 0.39023, -0.03613, 0.91858,
 11:01:21.596,e3:ca:2d:fd:e0:8c, 2015-01-01 00:14:18.965, 0.889, -0.077, 0.491, -0.122, 1.038, 0, -9.185, -60.925, 175.501, -24.340, -5.413, -15.927, 22, -0.07462, -0.50201, 0.08914, -0.85696,
 11:01:21.596,e3:ca:2d:fd:e0:8c, 2015-01-01 00:14:18.965, 0.889, -0.079, 0.493, -0.122, 0.793, 0, -9.185, -60.908, 175.507, -24.340, -5.413, -15.927, 22, -0.07462, -0.50201, 0.08914, -0.85696,
 11:01:21.615,ed:35:33:d3:6c:f8, 2015-01-01 00:14:22.205, 0.722, -0.028, 0.68, -0.854, -1.282, 0.244, -2.302, -46.165, 174.705, -19.447, -6.620, -20.700, 28.84, 0.0502, 0.39023, -0.03613, 0.91858,
 11:01:21.615,ed:35:33:d3:6c:f8, 2015-01-01 00:14:22.205, 0.72, -0.027, 0.684, -0.549, -0.977, 0.244, -2.324, -46.192, 174.694, -19.447, -6.620, -20.700, 28.84, 0.0502, 0.39023, -0.03613, 0.91858,
 11:01:21.636,ed:35:33:d3:6c:f8, 2015-01-01 00:14:22.205, 0.719, -0.031, 0.687, -0.427, -0.671, 0.244, -2.34, -46.214, 174.683, -19.447, -6.620, -20.700, 28.84, 0.0502, 0.39023, -0.03613, 0.91858,
 11:01:21.636,ed:35:33:d3:6c:f8, 2015-01-01 00:14:22.205, 0.716, -0.027, 0.688, -0.244, -0.549, 0.183, -2.351, -46.225, 174.677, -19.447, -6.620, -20.700, 28.84, 0.0502, 0.39023, -0.03613, 0.91858,
 11:01:21.637,f6:90:cc:01:6d:25, 2015-01-01 00:14:21.360, 0.968, -0.077, 0.187, -0.122, 0.671, 0, -22.209, -78.129, -129.276, -30.047, -5.827, -1.320, 27.57, 0.21689, -0.6228, -0.12997, -0.74033,
 11:01:21.637,f6:90:cc:01:6d:25, 2015-01-01 00:14:21.360, 0.967, -0.081, 0.189, -0.061, 0.793, -0.061, -22.187, -78.118, -129.287, -30.047, -5.827, -1.320, 27.57, 0.21689, -0.6228, -0.12997, -0.74033,
 11:01:21.639,ed:40:fe:65:30:6c, 2015-01-01 00:14:18.615, 0.785, 0.094, 0.617, 0.122, -1.16, -0.244, 8.465, -51.312, -117.339, -24.220, -7.773, 0.307, 23.45, 0.49576, -0.33151, -0.28204, -0.75143,
 11:01:21.639,ed:40:fe:65:30:6c, 2015-01-01 00:14:18.615, 0.784, 0.091, 0.62, 0.427, -0.916, -0.183, 8.481, -51.334, -117.361, -24.220, -7.773, 0.307, 23.45, 0.49576, -0.33151, -0.28204, -0.75143,
 11:01:21.640,e3:ca:2d:fd:e0:8c, 2015-01-01 00:14:18.965, 0.887, -0.08, 0.495, -0.122, 0.488, -0.061, -9.179, -60.897, 175.518, -24.340, -5.413, -15.927, 22, -0.07462, -0.50201, 0.08914, -0.85696,
 11:01:21.640,e3:ca:2d:fd:e0:8c, 2015-01-01 00:14:18.965, 0.883, -0.079, 0.493, -0.061, 0.366, 0, -9.179, -60.892, 175.518, -24.340, -5.413, -15.927, 22, -0.07462, -0.50201, 0.08914, -0.85696,
 11:01:21.660,ed:40:fe:65:30:6c, 2015-01-01 00:14:18.615, 0.78, 0.091, 0.622, 0.488, -0.671, -0.122, 8.498, -51.356, -117.389, -24.220, -7.773, 0.307, 23.45, 0.49438, -0.3345, -0.28159, -0.75119,
 11:01:21.660,ed:40:fe:65:30:6c, 2015-01-01 00:14:18.615, 0.779, 0.096, 0.623, 0.305, -0.427, -0.061, 8.514, -51.367, -117.4, -24.220, -7.773, 0.307, 23.45, 0.49438, -0.3345, -0.28159, -0.75119,
 11:01:21.660,f6:90:cc:01:6d:25, 2015-01-01 00:14:21.720, 0.965, -0.079, 0.187, -0.122, 0.977, -0.061, -22.159, -78.107, -129.315, -30.047, -5.827, -1.320, 27.57, 0.21689, -0.6228, -0.12997, -0.74033,
 11:01:21.660,f6:90:cc:01:6d:25, 2015-01-01 00:14:21.720, 0.963, -0.079, 0.188, -0.061, 0.854, -0.122, -22.126, -78.096, -129.331, -30.047, -5.827, -1.320, 27.57, 0.21689, -0.6228, -0.12997, -0.74033,
 11:01:21.682,ed:35:33:d3:6c:f8, 2015-01-01 00:14:22.205, 0.717, -0.025, 0.688, -0.061, -0.305, 0, -2.357, -46.241, 174.65, -19.447, -6.620, -20.700, 28.84, 0.0502, 0.39023, -0.03613, 0.91858,
 11:01:21.682,ed:35:33:d3:6c:f8, 2015-01-01 00:14:22.205, 0.716, -0.025, 0.688, -0.122, 0, 0, -2.357, -46.247, 174.622, -19.447, -6.620, -20.700, 28.84, 0.0502, 0.39023, -0.03613, 0.91858,
 11:01:21.685,e3:ca:2d:fd:e0:8c, 2015-01-01 00:14:18.965, 0.882, -0.081, 0.497, -0.061, 0.488, 0, -9.179, -60.881, 175.496, -24.193, -5.553, -15.187, 22, -0.07462, -0.50201, 0.08914, -0.85696,
 11:01:21.685,e3:ca:2d:fd:e0:8c, 2015-01-01 00:14:18.965, 0.884, -0.081, 0.499, -0.061, 0.366, -0.122, -9.174, -60.87, 175.49, -24.193, -5.553, -15.187, 22, -0.07462, -0.50201, 0.08914, -0.85696,
 11:01:21.704,f6:90:cc:01:6d:25, 2015-01-01 00:14:21.720, 0.964, -0.079, 0.192, 0.061, 0.916, -0.122, -22.094, -78.08, -129.348, -30.047, -5.827, -1.320, 27.57, 0.21689, -0.6228, -0.12997, -0.74033,
 11:01:21.704,f6:90:cc:01:6d:25, 2015-01-01 00:14:21.720, 0.964, -0.08, 0.194, -0.183, 1.16, -0.061, -22.055, -78.063, -129.37, -30.047, -5.827, -1.320, 27.57, 0.21689, -0.6228, -0.12997, -0.74033,
 11:01:21.707,ed:40:fe:65:30:6c, 2015-01-01 00:14:18.615, 0.782, 0.097, 0.623, 0, -0.305, 0, 8.52, -51.372, -117.416, -24.220, -7.773, 0.307, 23.45, 0.49438, -0.3345, -0.28159, -0.75119,
 11:01:21.707,ed:40:fe:65:30:6c, 2015-01-01 00:14:18.615, 0.779, 0.093, 0.623, 0.122, -0.183, 0.244, 8.52, -51.378, -117.427, -24.220, -7.773, 0.307, 23.45, 0.49438, -0.3345, -0.28159, -0.75119,
 11:01:21.726,ed:35:33:d3:6c:f8, 2015-01-01 00:14:22.205, 0.713, -0.031, 0.688, -0.183, 0.183, 0.366, -2.362, -46.247, 174.606, -19.447, -6.620, -20.700, 28.84, 0.0502, 0.39023, -0.03613, 0.91858,
 11:01:21.726,ed:35:33:d3:6c:f8, 2015-01-01 00:14:22.205, 0.713, -0.032, 0.686, -0.305, 0.305, 0.488, -2.373, -46.241, 174.589, -19.447, -6.620, -20.700, 28.84, 0.0502, 0.39023, -0.03613, 0.91858,
 11:01:21.727,f6:90:cc:01:6d:25, 2015-01-01 00:14:21.720, 0.963, -0.081, 0.188, 0.061, 0.977, -0.061, -22.022, -78.047, -129.391, -30.047, -5.827, -1.320, 27.57, 0.21689, -0.6228, -0.12997, -0.74033,
 11:01:21.727,f6:90:cc:01:6d:25, 2015-01-01 00:14:21.720, 0.962, -0.081, 0.188, -0.366, 0.977, 0, -22, -78.03, -129.386, -30.047, -5.827, -1.320, 27.57, 0.21689, -0.6228, -0.12997, -0.74033,
 11:01:21.728,ed:40:fe:65:30:6c, 2015-01-01 00:14:18.950, 0.779, 0.089, 0.622, 0.061, 0, 0.427, 8.52, -51.383, -117.427, -24.220, -7.773, 0.307, 23.45, 0.49438, -0.3345, -0.28159, -0.75119,
 11:01:21.728,ed:40:fe:65:30:6c, 2015-01-01 00:14:18.950, 0.779, 0.091, 0.619, 0.122, -0.122, 0.305, 8.514, -51.383, -117.433, -24.220, -7.773, 0.307, 23.45, 0.49438, -0.3345, -0.28159, -0.75119,
 11:01:21.729,e3:ca:2d:fd:e0:8c, 2015-01-01 00:14:18.965, 0.886, -0.081, 0.495, -0.122, 0.122, -0.244, -9.168, -60.864, 175.518, -24.193, -5.553, -15.187, 22, -0.07407, -0.5018, 0.08862, -0.85718,
 11:01:21.729,e3:ca:2d:fd:e0:8c, 2015-01-01 00:14:18.965, 0.883, -0.083, 0.494, -0.244, 0, -0.305, -9.163, -60.864, 175.54, -24.193, -5.553, -15.187, 22, -0.07407, -0.5018, 0.08862, -0.85718,
 11:01:21.774,ed:40:fe:65:30:6c, 2015-01-01 00:14:18.950, 0.782, 0.094, 0.625, -0.427, 0, 0.122, 8.503, -51.383, -117.433, -24.220, -7.773, 0.307, 23.45, 0.49438, -0.3345, -0.28159, -0.75119,
 11:01:21.774,ed:40:fe:65:30:6c, 2015-01-01 00:14:18.950, 0.781, 0.09, 0.623, -0.793, 0.061, 0.427, 8.492, -51.383, -117.422, -24.220, -7.773, 0.307, 23.45, 0.49438, -0.3345, -0.28159, -0.75119,
 11:01:21.774,e3:ca:2d:fd:e0:8c, 2015-01-01 00:14:19.280, 0.888, -0.08, 0.494, -0.244, 0, -0.549, -9.152, -60.859, 175.551, -24.193, -5.553, -15.187, 22, -0.07407, -0.5018, 0.08862, -0.85718,
 11:01:21.774,e3:ca:2d:fd:e0:8c, 2015-01-01 00:14:19.280, 0.89, -0.081, 0.493, -0.122, -0.122, -0.488, -9.135, -60.859, 175.545, -24.193, -5.553, -15.187, 22, -0.07407, -0.5018, 0.08862, -0.85718,
 11:01:21.794,ed:35:33:d3:6c:f8, 2015-01-01 00:14:22.205, 0.714, -0.029, 0.687, -0.488, 0.366, 0.427, -2.39, -46.236, 174.562, -19.447, -6.620, -20.700, 28.84, 0.0502, 0.39023, -0.03613, 0.91858,
 11:01:21.794,ed:35:33:d3:6c:f8, 2015-01-01 00:14:22.205, 0.716, -0.027, 0.691, -0.854, 0.671, 0.427, -2.406, -46.225, 174.551, -19.447, -6.620, -20.700, 28.84, 0.0502, 0.39023, -0.03613, 0.91858,
 11:01:21.795,f6:90:cc:01:6d:25, 2015-01-01 00:14:21.720, 0.966, -0.078, 0.191, -0.244, 1.038, -0.061, -21.973, -78.008, -129.38, -30.047, -5.827, -1.320, 27.57, 0.21689, -0.6228, -0.12997, -0.74033,
 11:01:21.795,f6:90:cc:01:6d:25, 2015-01-01 00:14:21.720, 0.966, -0.08, 0.187, 0.061, 0.732, 0, -21.951, -77.997, -129.375, -30.047, -5.827, -1.320, 27.57, 0.21689, -0.6228, -0.12997, -0.74033,
 11:01:21.797,e3:ca:2d:fd:e0:8c, 2015-01-01 00:14:19.280, 0.888, -0.08, 0.492, -0.122, -0.061, -0.427, -9.124, -60.859, 175.545, -24.193, -5.553, -15.187, 22, -0.07407, -0.5018, 0.08862, -0.85718,
 11:01:21.797,e3:ca:2d:fd:e0:8c, 2015-01-01 00:14:19.280, 0.896, -0.079, 0.494, -0.183, -0.244, -0.549, -9.113, -60.864, 175.518, -24.193, -5.553, -15.187, 22, -0.07407, -0.5018, 0.08862, -0.85718,
 11:01:21.818,ed:35:33:d3:6c:f8, 2015-01-01 00:14:22.205, 0.72, -0.032, 0.691, -1.16, 0.549, 0.671, -2.433, -46.208, 174.54, -19.113, -6.627, -19.707, 28.84, 0.0502, 0.39023, -0.03613, 0.91858,
 11:01:21.818,ed:35:33:d3:6c:f8, 2015-01-01 00:14:22.205, 0.721, -0.029, 0.69, -0.854, 0.366, 0.122, -2.466, -46.198, 174.54, -19.113, -6.627, -19.707, 28.84, 0.0502, 0.39023, -0.03613, 0.91858,
 11:01:21.818,ed:40:fe:65:30:6c, 2015-01-01 00:14:18.950, 0.785, 0.094, 0.624, -0.854, -0.183, 0.366, 8.465, -51.378, -117.4, -24.220, -7.773, 0.307, 23.45, 0.49438, -0.3345, -0.28159, -0.75119,
 11:01:21.818,ed:40:fe:65:30:6c, 2015-01-01 00:14:18.950, 0.787, 0.099, 0.623, -0.61, -0.488, -0.183, 8.443, -51.383, -117.389, -24.220, -7.773, 0.307, 23.45, 0.49438, -0.3345, -0.28159, -0.75119,
 11:01:21.840,f6:90:cc:01:6d:25, 2015-01-01 00:14:21.720, 0.967, -0.077, 0.189, -0.427, 0.671, 0, -21.94, -77.986, -129.359, -30.047, -5.827, -1.320, 27.57, 0.21689, -0.6228, -0.12997, -0.74033,
 11:01:21.840,f6:90:cc:01:6d:25, 2015-01-01 00:14:21.720, 0.972, -0.074, 0.188, -0.305, 0.854, 0, -21.929, -77.97, -129.353, -30.047, -5.827, -1.320, 27.57, 0.21689, -0.6228, -0.12997, -0.74033,
 11:01:21.840,ed:40:fe:65:30:6c, 2015-01-01 00:14:18.950, 0.786, 0.099, 0.625, -0.366, -0.366, 0.122, 8.438, -51.389, -117.389, -24.220, -7.773, 0.307, 23.45, 0.49438, -0.3345, -0.28159, -0.75119,
 11:01:21.840,ed:40:fe:65:30:6c, 2015-01-01 00:14:18.950, 0.785, 0.09, 0.624, -0.305, -0.549, 0.366, 8.432, -51.394, -117.383, -24.220, -7.773, 0.307, 23.45, 0.49438, -0.3345, -0.28159, -0.75119,
 11:01:21.842,e3:ca:2d:fd:e0:8c, 2015-01-01 00:14:19.280, 0.898, -0.079, 0.493, -0.305, 0, -0.671, -9.097, -60.864, 175.474, -24.193, -5.553, -15.187, 22, -0.07407, -0.5018, 0.08862, -0.85718,
 11:01:21.842,e3:ca:2d:fd:e0:8c, 2015-01-01 00:14:19.280, 0.894, -0.075, 0.49, -0.427, 0.122, -0.549, -9.086, -60.859, 175.413, -24.193, -5.553, -15.187, 22, -0.07407, -0.5018, 0.08862, -0.85718,
 11:01:21.861,ed:35:33:d3:6c:f8, 2015-01-01 00:14:22.205, 0.721, -0.019, 0.694, -0.488, 0.183, -0.061, -2.483, -46.192, 174.507, -19.113, -6.627, -19.707, 28.84, 0.0502, 0.39023, -0.03613, 0.91858,
 11:01:21.861,ed:35:33:d3:6c:f8, 2015-01-01 00:14:22.205, 0.721, -0.029, 0.695, -0.61, 0, 0.122, -2.494, -46.187, 174.501, -19.113, -6.627, -19.707, 28.84, 0.0502, 0.39023, -0.03613, 0.91858,
 11:01:21.862,f6:90:cc:01:6d:25, 2015-01-01 00:14:21.720, 0.969, -0.075, 0.186, -0.61, 0.671, 0, -21.918, -77.959, -129.342, -30.320, -5.713, -0.880, 27.57, 0.21689, -0.6228, -0.12997, -0.74033,
 11:01:21.862,f6:90:cc:01:6d:25, 2015-01-01 00:14:21.720, 0.967, -0.074, 0.183, -0.732, 0.488, 0, -21.918, -77.953, -129.315, -30.320, -5.713, -0.880, 27.57, 0.21689, -0.6228, -0.12997, -0.74033,
 11:01:21.885,ed:35:33:d3:6c:f8, 2015-01-01 00:14:22.205, 0.715, -0.034, 0.688, -0.488, -0.671, -0.366, -2.499, -46.192, 174.485, -19.113, -6.627, -19.707, 28.84, 0.0527, 0.39072, -0.03888, 0.91812,
 11:01:21.885,ed:35:33:d3:6c:f8, 2015-01-01 00:14:22.205, 0.714, -0.025, 0.685, -0.061, -1.038, -0.366, -2.499, -46.208, 174.441, -19.113, -6.627, -19.707, 28.84, 0.0527, 0.39072, -0.03888, 0.91812,
 11:01:21.886,ed:40:fe:65:30:6c, 2015-01-01 00:14:18.950, 0.781, 0.093, 0.62, -0.183, -0.916, 0, 8.427, -51.405, -117.383, -24.220, -7.773, 0.307, 23.45, 0.49438, -0.3345, -0.28159, -0.75119,
 11:01:21.886,ed:40:fe:65:30:6c, 2015-01-01 00:14:18.950, 0.781, 0.095, 0.618, 0.183, -0.977, 0.122, 8.427, -51.422, -117.389, -24.220, -7.773, 0.307, 23.45, 0.49438, -0.3345, -0.28159, -0.75119,
 11:01:21.887,e3:ca:2d:fd:e0:8c, 2015-01-01 00:14:19.280, 0.891, -0.074, 0.492, -0.305, 0.122, -0.366, -9.08, -60.859, 175.347, -24.193, -5.553, -15.187, 22, -0.07407, -0.5018, 0.08862, -0.85718,
 11:01:21.887,e3:ca:2d:fd:e0:8c, 2015-01-01 00:14:19.280, 0.887, -0.078, 0.49, -0.122, 0.061, -0.183, -9.075, -60.859, 175.303, -24.193, -5.553, -15.187, 22, -0.07407, -0.5018, 0.08862, -0.85718,
 11:01:21.907,f6:90:cc:01:6d:25, 2015-01-01 00:14:21.720, 0.966, -0.076, 0.188, -0.244, 0.427, 0, -21.912, -77.948, -129.298, -30.320, -5.713, -0.880, 27.57, 0.21689, -0.6228, -0.12997, -0.74033,
 11:01:21.907,f6:90:cc:01:6d:25, 2015-01-01 00:14:21.720, 0.961, -0.078, 0.188, -0.488, 0.183, 0, -21.918, -77.948, -129.254, -30.320, -5.713, -0.880, 27.57, 0.21689, -0.6228, -0.12997, -0.74033,
 11:01:21.928,ed:35:33:d3:6c:f8, 2015-01-01 00:14:22.205, 0.716, -0.026, 0.684, -0.671, -1.099, 0.061, -2.499, -46.225, 174.419, -19.113, -6.627, -19.707, 28.84, 0.0527, 0.39072, -0.03888, 0.91812,
 11:01:21.928,ed:35:33:d3:6c:f8, 2015-01-01 00:14:22.205, 0.717, -0.026, 0.683, -0.732, -1.282, 0.183, -2.51, -46.247, 174.419, -19.113, -6.627, -19.707, 28.84, 0.0527, 0.39072, -0.03888, 0.91812,
 11:01:21.930,f6:90:cc:01:6d:25, 2015-01-01 00:14:21.720, 0.962, -0.075, 0.188, -0.488, 0.122, 0, -21.929, -77.948, -129.21, -30.320, -5.713, -0.880, 27.57, 0.21906, -0.62122, -0.13107, -0.74081,
 11:01:21.930,f6:90:cc:01:6d:25, 2015-01-01 00:14:21.720, 0.964, -0.075, 0.188, -0.061, 0.122, 0, -21.929, -77.948, -129.177, -30.320, -5.713, -0.880, 27.57, 0.21906, -0.62122, -0.13107, -0.74081,
 11:01:21.931,ed:40:fe:65:30:6c, 2015-01-01 00:14:18.950, 0.781, 0.095, 0.616, 0.183, -1.221, 0.183, 8.432, -51.438, -117.389, -24.220, -7.773, 0.307, 23.45, 0.49438, -0.3345, -0.28159, -0.75119,
 11:01:21.931,ed:40:fe:65:30:6c, 2015-01-01 00:14:18.950, 0.782, 0.093, 0.616, 0.305, -1.282, 0.183, 8.443, -51.465, -117.389, -24.220, -7.773, 0.307, 23.45, 0.49438, -0.3345, -0.28159, -0.75119,
 11:01:21.933,e3:ca:2d:fd:e0:8c, 2015-01-01 00:14:19.280, 0.886, -0.076, 0.49, -0.122, 0, -0.061, -9.069, -60.853, 175.314, -24.193, -5.553, -15.187, 22, -0.07407, -0.5018, 0.08862, -0.85718,
 11:01:21.933,e3:ca:2d:fd:e0:8c, 2015-01-01 00:14:19.280, 0.886, -0.077, 0.491, -0.061, -0.122, 0, -9.069, -60.859, 175.336, -24.193, -5.553, -15.187, 22, -0.07407, -0.5018, 0.08862, -0.85718,
 11:01:21.951,ed:35:33:d3:6c:f8, 2015-01-01 00:14:22.540, 0.719, -0.029, 0.684, -0.732, -1.282, 0.488, -2.532, -46.274, 174.413, -19.113, -6.627, -19.707, 28.84, 0.0527, 0.39072, -0.03888, 0.91812,
 11:01:21.951,ed:35:33:d3:6c:f8, 2015-01-01 00:14:22.540, 0.722, -0.029, 0.687, -0.549, -1.038, 0.183, -2.554, -46.296, 174.424, -19.113, -6.627, -19.707, 28.84, 0.0527, 0.39072, -0.03888, 0.91812,
 11:01:21.975,f6:90:cc:01:6d:25, 2015-01-01 00:14:21.720, 0.966, -0.074, 0.19, 0, 0.244, 0, -21.923, -77.943, -129.166, -30.320, -5.713, -0.880, 27.57, 0.21906, -0.62122, -0.13107, -0.74081,
 11:01:21.975,f6:90:cc:01:6d:25, 2015-01-01 00:14:21.720, 0.967, -0.072, 0.192, 0, 0.183, 0, -21.912, -77.943, -129.188, -30.320, -5.713, -0.880, 27.57, 0.21906, -0.62122, -0.13107, -0.74081,
 11:01:21.978,e3:ca:2d:fd:e0:8c, 2015-01-01 00:14:19.280, 0.887, -0.075, 0.493, 0.122, -0.061, 0.122, -9.075, -60.859, 175.358, -24.307, -5.547, -15.067, 22, -0.07407, -0.5018, 0.08862, -0.85718,
 11:01:21.978,e3:ca:2d:fd:e0:8c, 2015-01-01 00:14:19.280, 0.887, -0.074, 0.494, 0, -0.061, 0.244, -9.08, -60.859, 175.391, -24.307, -5.547, -15.067, 22, -0.07407, -0.5018, 0.08862, -0.85718,
 11:01:21.997,ed:35:33:d3:6c:f8, 2015-01-01 00:14:22.540, 0.72, -0.031, 0.688, -0.061, -0.671, -0.427, -2.56, -46.313, 174.397, -19.113, -6.627, -19.707, 28.84, 0.0527, 0.39072, -0.03888, 0.91812,
 11:01:21.997,ed:35:33:d3:6c:f8, 2015-01-01 00:14:22.540, 0.724, -0.026, 0.69, -0.122, -0.122, -0.549, -2.549, -46.324, 174.348, -19.113, -6.627, -19.707, 28.84, 0.0527, 0.39072, -0.03888, 0.91812,
 11:01:21.998,ed:40:fe:65:30:6c, 2015-01-01 00:14:18.950, 0.784, 0.095, 0.619, 0.183, -1.16, 0.122, 8.448, -51.487, -117.389, -24.373, -7.687, 0.520, 23.45, 0.49438, -0.3345, -0.28159, -0.75119,
 11:01:21.998,ed:40:fe:65:30:6c, 2015-01-01 00:14:18.950, 0.786, 0.096, 0.62, 0.244, -1.038, -0.244, 8.459, -51.504, -117.394, -24.373, -7.687, 0.520, 23.45, 0.49438, -0.3345, -0.28159, -0.75119,
 11:01:21.999,e3:ca:2d:fd:e0:8c, 2015-01-01 00:14:19.280, 0.891, -0.077, 0.497, 0, -0.183, 0.244, -9.086, -60.859, 175.424, -24.307, -5.547, -15.067, 22, -0.07428, -0.50174, 0.08835, -0.85721,
 11:01:21.999,e3:ca:2d:fd:e0:8c, 2015-01-01 00:14:19.280, 0.889, -0.079, 0.494, -0.061, -0.305, 0.244, -9.091, -60.859, 175.457, -24.307, -5.547, -15.067, 22, -0.07428, -0.50174, 0.08835, -0.85721,
 11:01:22.042,f6:90:cc:01:6d:25, 2015-01-01 00:14:22.055, 0.968, -0.076, 0.193, 0, 0.366, 0, -21.901, -77.937, -129.221, -30.320, -5.713, -0.880, 27.57, 0.21906, -0.62122, -0.13107, -0.74081,
 11:01:22.042,f6:90:cc:01:6d:25, 2015-01-01 00:14:22.055, 0.968, -0.077, 0.192, -0.122, 0.122, 0, -21.896, -77.937, -129.221, -30.320, -5.713, -0.880, 27.57, 0.21906, -0.62122, -0.13107, -0.74081,
 11:01:22.042,ed:35:33:d3:6c:f8, 2015-01-01 00:14:22.540, 0.72, -0.023, 0.687, 0.122, -0.183, -0.488, -2.538, -46.324, 174.304, -19.113, -6.627, -19.707, 28.84, 0.0527, 0.39072, -0.03888, 0.91812,
 11:01:22.042,ed:35:33:d3:6c:f8, 2015-01-01 00:14:22.540, 0.72, -0.027, 0.682, 0.122, -0.122, -0.549, -2.521, -46.329, 174.309, -19.113, -6.627, -19.707, 28.84, 0.0527, 0.39072, -0.03888, 0.91812,
 11:01:22.044,ed:40:fe:65:30:6c, 2015-01-01 00:14:18.950, 0.788, 0.094, 0.623, 0.122, -0.793, -0.488, 8.476, -51.52, -117.416, -24.373, -7.687, 0.520, 23.45, 0.4939, -0.33578, -0.28201, -0.75076,
 11:01:22.044,ed:40:fe:65:30:6c, 2015-01-01 00:14:18.950, 0.786, 0.096, 0.621, -0.122, -0.671, -0.366, 8.492, -51.531, -117.438, -24.373, -7.687, 0.520, 23.45, 0.4939, -0.33578, -0.28201, -0.75076,
 11:01:22.066,f6:90:cc:01:6d:25, 2015-01-01 00:14:22.055, 0.965, -0.075, 0.188, -0.427, 0.061, 0, -21.896, -77.937, -129.188, -30.320, -5.713, -0.880, 27.57, 0.21906, -0.62122, -0.13107, -0.74081,
 11:01:22.066,f6:90:cc:01:6d:25, 2015-01-01 00:14:22.055, 0.965, -0.078, 0.191, -0.488, 0.244, 0.427, -21.923, -77.932, -129.139, -30.320, -5.713, -0.880, 27.57, 0.21906, -0.62122, -0.13107, -0.74081,
 11:01:22.067,e3:ca:2d:fd:e0:8c, 2015-01-01 00:14:19.280, 0.887, -0.077, 0.495, -0.366, -0.244, 0.183, -9.102, -60.859, 175.457, -24.307, -5.547, -15.067, 22, -0.07428, -0.50174, 0.08835, -0.85721,
 11:01:22.067,e3:ca:2d:fd:e0:8c, 2015-01-01 00:14:19.280, 0.887, -0.081, 0.494, -0.427, -0.061, 0.122, -9.113, -60.859, 175.452, -24.307, -5.547, -15.067, 22, -0.07428, -0.50174, 0.08835, -0.85721,
 11:01:22.089,e3:ca:2d:fd:e0:8c, 2015-01-01 00:14:19.595, 0.89, -0.081, 0.492, -0.305, -0.244, 0.122, -9.124, -60.859, 175.468, -24.307, -5.547, -15.067, 22, -0.07428, -0.50174, 0.08835, -0.85721,
 11:01:22.089,e3:ca:2d:fd:e0:8c, 2015-01-01 00:14:19.595, 0.89, -0.081, 0.491, -0.061, -0.061, 0.183, -9.135, -60.859, 175.452, -24.307, -5.547, -15.067, 22, -0.07428, -0.50174, 0.08835, -0.85721,
 11:01:22.110,ed:35:33:d3:6c:f8, 2015-01-01 00:14:22.540, 0.72, -0.021, 0.683, 0.122, -0.244, -0.427, -2.505, -46.335, 174.326, -19.113, -6.627, -19.707, 28.84, 0.0527, 0.39072, -0.03888, 0.91812,
 11:01:22.110,ed:35:33:d3:6c:f8, 2015-01-01 00:14:22.540, 0.72, -0.032, 0.683, 0, -0.122, 0.244, -2.494, -46.34, 174.364, -19.113, -6.627, -19.707, 28.84, 0.0527, 0.39072, -0.03888, 0.91812,
 11:01:22.110,f6:90:cc:01:6d:25, 2015-01-01 00:14:22.055, 0.964, -0.081, 0.186, -0.244, 0.305, 0.549, -21.962, -77.926, -129.095, -30.320, -5.713, -0.880, 27.57, 0.21906, -0.62122, -0.13107, -0.74081,
 11:01:22.110,f6:90:cc:01:6d:25, 2015-01-01 00:14:22.055, 0.964, -0.083, 0.187, 0.122, 0.305, 0.427, -21.995, -77.915, -129.029, -30.320, -5.713, -0.880, 27.57, 0.21906, -0.62122, -0.13107, -0.74081,
 11:01:22.112,ed:40:fe:65:30:6c, 2015-01-01 00:14:18.950, 0.786, 0.098, 0.617, 0, -0.549, -0.183, 8.503, -51.542, -117.455, -24.373, -7.687, 0.520, 23.45, 0.4939, -0.33578, -0.28201, -0.75076,
 11:01:22.112,ed:40:fe:65:30:6c, 2015-01-01 00:14:18.950, 0.784, 0.097, 0.615, 0.122, -0.549, -0.244, 8.514, -51.548, -117.46, -24.373, -7.687, 0.520, 23.45, 0.4939, -0.33578, -0.28201, -0.75076,
 11:01:22.132,f6:90:cc:01:6d:25, 2015-01-01 00:14:22.055, 0.967, -0.085, 0.185, 0.305, 0.366, 0.122, -22, -77.91, -129.001, -30.320, -5.713, -0.880, 27.57, 0.21906, -0.62122, -0.13107, -0.74081,
 11:01:22.132,f6:90:cc:01:6d:25, 2015-01-01 00:14:22.055, 0.968, -0.083, 0.186, 0.183, 0.488, -0.122, -21.978, -77.904, -128.996, -30.320, -5.713, -0.880, 27.57, 0.21906, -0.62122, -0.13107, -0.74081,
 11:01:22.133,ed:40:fe:65:30:6c, 2015-01-01 00:14:19.310, 0.787, 0.096, 0.615, 0.427, -0.305, 0, 8.531, -51.559, -117.466, -24.373, -7.687, 0.520, 23.45, 0.4939, -0.33578, -0.28201, -0.75076,
 11:01:22.133,ed:40:fe:65:30:6c, 2015-01-01 00:14:19.310, 0.787, 0.083, 0.615, 0.793, -0.183, 0.61, 8.542, -51.559, -117.46, -24.373, -7.687, 0.520, 23.45, 0.4939, -0.33578, -0.28201, -0.75076,
 11:01:22.135,e3:ca:2d:fd:e0:8c, 2015-01-01 00:14:19.595, 0.891, -0.082, 0.49, 0, -0.061, 0.244, -9.141, -60.859, 175.463, -24.307, -5.547, -15.067, 22, -0.07428, -0.50174, 0.08835, -0.85721,
 11:01:22.135,e3:ca:2d:fd:e0:8c, 2015-01-01 00:14:19.595, 0.893, -0.082, 0.49, 0, -0.061, 0.183, -9.152, -60.859, 175.463, -24.307, -5.547, -15.067, 22, -0.07428, -0.50174, 0.08835, -0.85721,
 11:01:22.154,ed:35:33:d3:6c:f8, 2015-01-01 00:14:22.540, 0.721, -0.044, 0.683, -0.122, -0.244, 0.732, -2.499, -46.34, 174.391, -19.113, -6.627, -19.707, 28.84, 0.0527, 0.39072, -0.03888, 0.91812,
 11:01:22.154,ed:35:33:d3:6c:f8, 2015-01-01 00:14:22.540, 0.724, -0.042, 0.683, 0.305, -0.427, 0.977, -2.521, -46.346, 174.413, -19.113, -6.627, -19.707, 28.84, 0.0527, 0.39072, -0.03888, 0.91812,
 11:01:22.156,ed:40:fe:65:30:6c, 2015-01-01 00:14:19.310, 0.788, 0.079, 0.614, 0.977, -0.244, 0.488, 8.547, -51.564, -117.444, -24.373, -7.687, 0.520, 23.45, 0.4939, -0.33578, -0.28201, -0.75076,
 11:01:22.156,ed:40:fe:65:30:6c, 2015-01-01 00:14:19.310, 0.787, 0.088, 0.616, 0.793, -0.671, 0.244, 8.553, -51.575, -117.427, -24.373, -7.687, 0.520, 23.45, 0.4939, -0.33578, -0.28201, -0.75076,
 11:01:22.176,ed:35:33:d3:6c:f8, 2015-01-01 00:14:22.540, 0.723, -0.028, 0.683, 0.305, -0.427, 0.977, -2.538, -46.357, 174.43, -19.367, -6.380, -19.827, 28.84, 0.0527, 0.39072, -0.03888, 0.91812,
 11:01:22.176,ed:35:33:d3:6c:f8, 2015-01-01 00:14:22.540, 0.722, -0.026, 0.683, 0.305, -0.549, 0.793, -2.549, -46.362, 174.452, -19.367, -6.380, -19.827, 28.84, 0.0527, 0.39072, -0.03888, 0.91812,
 11:01:22.177,f6:90:cc:01:6d:25, 2015-01-01 00:14:22.055, 0.967, -0.079, 0.185, -0.183, 0.488, -0.061, -21.973, -77.899, -128.99, -30.320, -5.713, -0.880, 27.57, 0.21906, -0.62122, -0.13107, -0.74081,
 11:01:22.177,f6:90:cc:01:6d:25, 2015-01-01 00:14:22.055, 0.966, -0.078, 0.187, -0.244, 0.549, 0, -21.973, -77.888, -128.963, -30.320, -5.713, -0.880, 27.57, 0.21906, -0.62122, -0.13107, -0.74081,
 11:01:22.178,ed:40:fe:65:30:6c, 2015-01-01 00:14:19.310, 0.788, 0.098, 0.615, 0.549, -0.793, 0, 8.564, -51.592, -117.427, -24.373, -7.687, 0.520, 23.45, 0.4939, -0.33578, -0.28201, -0.75076,
 11:01:22.178,ed:40:fe:65:30:6c, 2015-01-01 00:14:19.310, 0.788, 0.098, 0.614, 0.427, -0.916, 0.061, 8.58, -51.608, -117.433, -24.373, -7.687, 0.520, 23.45, 0.4939, -0.33578, -0.28201, -0.75076,
 11:01:22.179,e3:ca:2d:fd:e0:8c, 2015-01-01 00:14:19.595, 0.892, -0.081, 0.49, -0.061, -0.122, 0, -9.152, -60.859, 175.479, -24.307, -5.547, -15.067, 22, -0.07428, -0.50174, 0.08835, -0.85721,
 11:01:22.179,e3:ca:2d:fd:e0:8c, 2015-01-01 00:14:19.595, 0.89, -0.08, 0.491, -0.061, -0.061, -0.122, -9.152, -60.859, 175.479, -24.307, -5.547, -15.067, 22, -0.07428, -0.50174, 0.08835, -0.85721,
 11:01:22.203,e3:ca:2d:fd:e0:8c, 2015-01-01 00:14:19.595, 0.89, -0.079, 0.493, -0.122, 0, -0.122, -9.152, -60.859, 175.485, -24.307, -5.547, -15.067, 22, -0.07428, -0.50174, 0.08835, -0.85721,
 11:01:22.203,e3:ca:2d:fd:e0:8c, 2015-01-01 00:14:19.595, 0.891, -0.081, 0.494, -0.061, -0.061, -0.183, -9.146, -60.859, 175.49, -24.307, -5.547, -15.067, 22, -0.07428, -0.50174, 0.08835, -0.85721,
 11:01:22.222,ed:35:33:d3:6c:f8, 2015-01-01 00:14:22.540, 0.722, -0.027, 0.683, 0.183, -0.549, 0.671, -2.56, -46.379, 174.452, -19.367, -6.380, -19.827, 28.84, 0.0527, 0.39072, -0.03888, 0.91812,
 11:01:22.222,ed:35:33:d3:6c:f8, 2015-01-01 00:14:22.540, 0.722, -0.03, 0.685, -0.244, -0.305, 0.61, -2.576, -46.384, 174.457, -19.367, -6.380, -19.827, 28.84, 0.0527, 0.39072, -0.03888, 0.91812,
 11:01:22.245,ed:40:fe:65:30:6c, 2015-01-01 00:14:19.310, 0.788, 0.096, 0.617, 0.183, -0.732, 0.061, 8.586, -51.625, -117.444, -24.373, -7.687, 0.520, 23.45, 0.4939, -0.33578, -0.28201, -0.75076,
 11:01:22.245,ed:40:fe:65:30:6c, 2015-01-01 00:14:19.310, 0.788, 0.093, 0.618, 0, -0.305, 0.122, 8.591, -51.636, -117.438, -24.373, -7.687, 0.520, 23.45, 0.4939, -0.33578, -0.28201, -0.75076,
 11:01:22.245,ed:35:33:d3:6c:f8, 2015-01-01 00:14:22.540, 0.724, -0.031, 0.687, -0.305, -0.183, 0.671, -2.593, -46.395, 174.479, -19.367, -6.380, -19.827, 28.84, 0.05322, 0.3923, -0.0397, 0.91739,
 11:01:22.245,ed:35:33:d3:6c:f8, 2015-01-01 00:14:22.540, 0.719, -0.031, 0.685, -0.427, -0.183, 0.488, -2.609, -46.395, 174.529, -19.367, -6.380, -19.827, 28.84, 0.05322, 0.3923, -0.0397, 0.91739,
 11:01:22.245,f6:90:cc:01:6d:25, 2015-01-01 00:14:22.055, 0.967, -0.078, 0.189, -0.183, 0.671, 0.183, -21.978, -77.877, -128.93, -30.387, -5.773, -0.673, 27.57, 0.21906, -0.62122, -0.13107, -0.74081,
 11:01:22.245,f6:90:cc:01:6d:25, 2015-01-01 00:14:22.055, 0.967, -0.081, 0.191, 0.183, 0.671, 0.122, -21.967, -77.866, -128.892, -30.387, -5.773, -0.673, 27.57, 0.21906, -0.62122, -0.13107, -0.74081,
 11:01:22.247,e3:ca:2d:fd:e0:8c, 2015-01-01 00:14:19.595, 0.889, -0.08, 0.492, 0.061, -0.122, -0.122, -9.141, -60.859, 175.512, -24.307, -5.547, -15.067, 22, -0.07428, -0.50174, 0.08835, -0.85721,
 11:01:22.247,e3:ca:2d:fd:e0:8c, 2015-01-01 00:14:19.595, 0.887, -0.078, 0.493, 0, -0.061, -0.122, -9.141, -60.859, 175.534, -24.307, -5.547, -15.067, 22, -0.07428, -0.50174, 0.08835, -0.85721,
 11:01:22.267,f6:90:cc:01:6d:25, 2015-01-01 00:14:22.055, 0.966, -0.08, 0.189, 0.061, 0.488, 0, -21.962, -77.86, -128.875, -30.387, -5.773, -0.673, 27.57, 0.22147, -0.62042, -0.13248, -0.74051,
 11:01:22.267,f6:90:cc:01:6d:25, 2015-01-01 00:14:22.055, 0.964, -0.078, 0.189, -0.061, 0.488, 0, -21.956, -77.855, -128.864, -30.387, -5.773, -0.673, 27.57, 0.22147, -0.62042, -0.13248, -0.74051,
 11:01:22.268,ed:40:fe:65:30:6c, 2015-01-01 00:14:19.310, 0.787, 0.094, 0.617, -0.183, -0.183, 0.305, 8.586, -51.636, -117.438, -24.373, -7.687, 0.520, 23.45, 0.4939, -0.33578, -0.28201, -0.75076,
 11:01:22.268,ed:40:fe:65:30:6c, 2015-01-01 00:14:19.310, 0.784, 0.096, 0.615, -0.244, -0.183, 0.305, 8.575, -51.641, -117.427, -24.373, -7.687, 0.520, 23.45, 0.4939, -0.33578, -0.28201, -0.75076,
 11:01:22.290,ed:35:33:d3:6c:f8, 2015-01-01 00:14:22.540, 0.718, -0.03, 0.683, -0.244, -0.183, 0.183, -2.626, -46.401, 174.573, -19.367, -6.380, -19.827, 28.84, 0.05322, 0.3923, -0.0397, 0.91739,
 11:01:22.290,ed:35:33:d3:6c:f8, 2015-01-01 00:14:22.540, 0.72, -0.03, 0.684, -0.427, 0.122, 0.061, -2.637, -46.406, 174.6, -19.367, -6.380, -19.827, 28.84, 0.05322, 0.3923, -0.0397, 0.91739,
 11:01:22.292,ed:40:fe:65:30:6c, 2015-01-01 00:14:19.310, 0.784, 0.095, 0.616, -0.122, -0.244, 0.122, 8.564, -51.647, -117.411, -24.373, -7.687, 0.520, 23.45, 0.4939, -0.33578, -0.28201, -0.75076,
 11:01:22.292,ed:40:fe:65:30:6c, 2015-01-01 00:14:19.310, 0.786, 0.093, 0.616, -0.183, -0.122, 0.061, 8.564, -51.652, -117.4, -24.373, -7.687, 0.520, 23.45, 0.4939, -0.33578, -0.28201, -0.75076,
 11:01:22.293,e3:ca:2d:fd:e0:8c, 2015-01-01 00:14:19.595, 0.886, -0.078, 0.494, -0.183, 0, -0.122, -9.141, -60.859, 175.556, -24.533, -5.627, -15.273, 22, -0.07428, -0.50174, 0.08835, -0.85721,
 11:01:22.293,e3:ca:2d:fd:e0:8c, 2015-01-01 00:14:19.595, 0.886, -0.079, 0.493, -0.305, 0.061, -0.244, -9.135, -60.859, 175.578, -24.533, -5.627, -15.273, 22, -0.07428, -0.50174, 0.08835, -0.85721,
 11:01:22.312,f6:90:cc:01:6d:25, 2015-01-01 00:14:22.055, 0.963, -0.076, 0.191, -0.244, 0.549, 0.122, -21.956, -77.844, -128.837, -30.387, -5.773, -0.673, 27.57, 0.22147, -0.62042, -0.13248, -0.74051,
 11:01:22.312,f6:90:cc:01:6d:25, 2015-01-01 00:14:22.055, 0.965, -0.079, 0.193, -0.427, 0.671, 0.183, -21.967, -77.833, -128.804, -30.387, -5.773, -0.673, 27.57, 0.22147, -0.62042, -0.13248, -0.74051,
 11:01:22.333,ed:35:33:d3:6c:f8, 2015-01-01 00:14:22.900, 0.719, -0.033, 0.685, -0.427, 0.183, 0, -2.642, -46.401, 174.589, -19.367, -6.380, -19.827, 28.84, 0.05322, 0.3923, -0.0397, 0.91739,
 11:01:22.333,ed:35:33:d3:6c:f8, 2015-01-01 00:14:22.900, 0.719, -0.031, 0.685, -0.244, 0.305, 0, -2.653, -46.401, 174.551, -19.367, -6.380, -19.827, 28.84, 0.05322, 0.3923, -0.0397, 0.91739,
 11:01:22.335,f6:90:cc:01:6d:25, 2015-01-01 00:14:22.390, 0.964, -0.08, 0.192, -0.305, 0.732, 0.183, -21.967, -77.822, -128.787, -30.387, -5.773, -0.673, 27.57, 0.22147, -0.62042, -0.13248, -0.74051,
 11:01:22.335,f6:90:cc:01:6d:25, 2015-01-01 00:14:22.390, 0.963, -0.081, 0.19, -0.122, 0.488, 0, -21.962, -77.811, -128.793, -30.387, -5.773, -0.673, 27.57, 0.22147, -0.62042, -0.13248, -0.74051,
 11:01:22.336,ed:40:fe:65:30:6c, 2015-01-01 00:14:19.310, 0.784, 0.093, 0.618, -0.305, 0.061, 0.061, 8.558, -51.647, -117.389, -24.373, -7.687, 0.520, 23.45, 0.4939, -0.33578, -0.28201, -0.75076,
 11:01:22.336,ed:40:fe:65:30:6c, 2015-01-01 00:14:19.310, 0.785, 0.094, 0.618, -0.732, 0.183, 0, 8.547, -51.647, -117.378, -24.373, -7.687, 0.520, 23.45, 0.4939, -0.33578, -0.28201, -0.75076,
 11:01:22.338,e3:ca:2d:fd:e0:8c, 2015-01-01 00:14:19.595, 0.888, -0.08, 0.494, -0.244, -0.122, -0.305, -9.13, -60.859, 175.633, -24.533, -5.627, -15.273, 22, -0.07303, -0.50186, 0.08783, -0.8573,
 11:01:22.338,e3:ca:2d:fd:e0:8c, 2015-01-01 00:14:19.595, 0.888, -0.079, 0.492, 0, -0.183, -0.183, -9.124, -60.859, 175.704, -24.533, -5.627, -15.273, 22, -0.07303, -0.50186, 0.08783, -0.8573,
 11:01:22.357,ed:35:33:d3:6c:f8, 2015-01-01 00:14:22.900, 0.72, -0.031, 0.685, -0.061, 0.305, -0.122, -2.653, -46.395, 174.496, -19.367, -6.380, -19.827, 28.84, 0.05322, 0.3923, -0.0397, 0.91739,
 11:01:22.357,ed:35:33:d3:6c:f8, 2015-01-01 00:14:22.900, 0.72, -0.03, 0.686, 0, 0.366, -0.183, -2.648, -46.39, 174.457, -19.367, -6.380, -19.827, 28.84, 0.05322, 0.3923, -0.0397, 0.91739,
 11:01:22.359,e3:ca:2d:fd:e0:8c, 2015-01-01 00:14:19.885, 0.889, -0.079, 0.492, 0, -0.122, -0.122, -9.124, -60.859, 175.781, -24.533, -5.627, -15.273, 22, -0.07303, -0.50186, 0.08783, -0.8573,
 11:01:22.359,e3:ca:2d:fd:e0:8c, 2015-01-01 00:14:19.885, 0.889, -0.079, 0.492, -0.061, -0.244, -0.305, -9.113, -60.864, 175.842, -24.533, -5.627, -15.273, 22, -0.07303, -0.50186, 0.08783, -0.8573,
 11:01:22.380,f6:90:cc:01:6d:25, 2015-01-01 00:14:22.390, 0.966, -0.078, 0.192, 0, 0.488, 0, -21.951, -77.805, -128.793, -30.387, -5.773, -0.673, 27.57, 0.22147, -0.62042, -0.13248, -0.74051,
 11:01:22.380,f6:90:cc:01:6d:25, 2015-01-01 00:14:22.390, 0.963, -0.079, 0.191, 0.183, 0.427, 0.122, -21.951, -77.794, -128.787, -30.387, -5.773, -0.673, 27.57, 0.22147, -0.62042, -0.13248, -0.74051,
 11:01:22.403,ed:35:33:d3:6c:f8, 2015-01-01 00:14:22.900, 0.718, -0.033, 0.682, 0, 0.061, 0.122, -2.648, -46.384, 174.413, -19.367, -6.380, -19.827, 28.84, 0.05322, 0.3923, -0.0397, 0.91739,
 11:01:22.403,ed:35:33:d3:6c:f8, 2015-01-01 00:14:22.900, 0.725, -0.034, 0.684, -0.305, 0.183, 0.366, -2.653, -46.379, 174.419, -19.367, -6.380, -19.827, 28.84, 0.05322, 0.3923, -0.0397, 0.91739,
 11:01:22.404,ed:40:fe:65:30:6c, 2015-01-01 00:14:19.310, 0.786, 0.094, 0.617, -0.793, 0.061, 0, 8.536, -51.641, -117.372, -24.273, -7.347, 1.240, 23.45, 0.4939, -0.33578, -0.28201, -0.75076,
 11:01:22.404,ed:40:fe:65:30:6c, 2015-01-01 00:14:19.310, 0.785, 0.092, 0.616, -0.427, 0, -0.061, 8.525, -51.641, -117.361, -24.273, -7.347, 1.240, 23.45, 0.4939, -0.33578, -0.28201, -0.75076,
 11:01:22.405,e3:ca:2d:fd:e0:8c, 2015-01-01 00:14:19.885, 0.886, -0.079, 0.494, 0, -0.122, -0.244, -9.108, -60.864, 175.897, -24.533, -5.627, -15.273, 22, -0.07303, -0.50186, 0.08783, -0.8573,
 11:01:22.405,e3:ca:2d:fd:e0:8c, 2015-01-01 00:14:19.885, 0.89, -0.078, 0.494, -0.122, -0.122, -0.244, -9.102, -60.864, 175.941, -24.533, -5.627, -15.273, 22, -0.07303, -0.50186, 0.08783, -0.8573,
 11:01:22.426,f6:90:cc:01:6d:25, 2015-01-01 00:14:22.390, 0.964, -0.083, 0.191, 0, 0.549, -0.061, -21.934, -77.789, -128.793, -30.387, -5.773, -0.673, 27.57, 0.22147, -0.62042, -0.13248, -0.74051,
 11:01:22.426,f6:90:cc:01:6d:25, 2015-01-01 00:14:22.390, 0.968, -0.077, 0.19, -0.427, 0.671, 0, -21.929, -77.778, -128.815, -30.387, -5.773, -0.673, 27.57, 0.22147, -0.62042, -0.13248, -0.74051,
 11:01:22.426,ed:40:fe:65:30:6c, 2015-01-01 00:14:19.310, 0.786, 0.088, 0.614, -0.366, 0.122, 0.305, 8.514, -51.636, -117.345, -24.273, -7.347, 1.240, 23.45, 0.49435, -0.33624, -0.2829, -0.74994,
 11:01:22.426,ed:40:fe:65:30:6c, 2015-01-01 00:14:19.310, 0.788, 0.095, 0.615, -0.549, 0, 0, 8.503, -51.636, -117.334, -24.273, -7.347, 1.240, 23.45, 0.49435, -0.33624, -0.2829, -0.74994,
 11:01:22.449,e3:ca:2d:fd:e0:8c, 2015-01-01 00:14:19.885, 0.896, -0.078, 0.493, -0.305, -0.061, -0.366, -9.097, -60.864, 175.979, -24.533, -5.627, -15.273, 22, -0.07303, -0.50186, 0.08783, -0.8573,
 11:01:22.449,e3:ca:2d:fd:e0:8c, 2015-01-01 00:14:19.885, 0.896, -0.077, 0.492, -0.366, -0.061, -0.305, -9.091, -60.864, 176.023, -24.533, -5.627, -15.273, 22, -0.07303, -0.50186, 0.08783, -0.8573,
 11:01:22.469,ed:35:33:d3:6c:f8, 2015-01-01 00:14:22.900, 0.723, -0.021, 0.687, 0.122, 0.061, 0.183, -2.664, -46.379, 174.408, -19.367, -6.380, -19.827, 28.84, 0.05322, 0.3923, -0.0397, 0.91739,
 11:01:22.469,ed:35:33:d3:6c:f8, 2015-01-01 00:14:22.900, 0.728, -0.019, 0.691, -0.122, 0.366, 0.366, -2.664, -46.373, 174.386, -19.367, -6.380, -19.827, 28.84, 0.05322, 0.3923, -0.0397, 0.91739,
 11:01:22.470,f6:90:cc:01:6d:25, 2015-01-01 00:14:22.390, 0.971, -0.073, 0.194, -0.732, 0.916, 0.244, -21.934, -77.761, -128.809, -30.387, -5.773, -0.673, 27.57, 0.22147, -0.62042, -0.13248, -0.74051,
 11:01:22.470,f6:90:cc:01:6d:25, 2015-01-01 00:14:22.390, 0.969, -0.077, 0.189, -0.671, 0.671, 0.366, -21.962, -77.745, -128.793, -30.387, -5.773, -0.673, 27.57, 0.22147, -0.62042, -0.13248, -0.74051,
 11:01:22.471,ed:40:fe:65:30:6c, 2015-01-01 00:14:19.310, 0.791, 0.107, 0.619, -0.305, 0, -0.122, 8.498, -51.636, -117.345, -24.273, -7.347, 1.240, 23.45, 0.49435, -0.33624, -0.2829, -0.74994,
 11:01:22.471,ed:40:fe:65:30:6c, 2015-01-01 00:14:19.310, 0.791, 0.097, 0.621, -0.122, 0.244, 0.488, 8.492, -51.63, -117.339, -24.273, -7.347, 1.240, 23.45, 0.49435, -0.33624, -0.2829, -0.74994,
 11:01:22.493,ed:40:fe:65:30:6c, 2015-01-01 00:14:19.710, 0.784, 0.09, 0.617, -0.244, 0.244, 0.244, 8.481, -51.63, -117.323, -24.273, -7.347, 1.240, 23.45, 0.49435, -0.33624, -0.2829, -0.74994,
 11:01:22.493,ed:40:fe:65:30:6c, 2015-01-01 00:14:19.710, 0.782, 0.091, 0.616, 0.122, -0.061, 0.183, 8.476, -51.625, -117.312, -24.273, -7.347, 1.240, 23.45, 0.49435, -0.33624, -0.2829, -0.74994,
 11:01:22.497,e3:ca:2d:fd:e0:8c, 2015-01-01 00:14:19.885, 0.894, -0.077, 0.49, -0.366, -0.061, -0.122, -9.097, -60.864, 176.072, -24.533, -5.627, -15.273, 22, -0.07303, -0.50186, 0.08783, -0.8573,
 11:01:22.497,e3:ca:2d:fd:e0:8c, 2015-01-01 00:14:19.885, 0.889, -0.078, 0.49, -0.244, -0.061, -0.061, -9.097, -60.864, 176.122, -24.533, -5.627, -15.273, 22, -0.07303, -0.50186, 0.08783, -0.8573,
 11:01:22.514,ed:35:33:d3:6c:f8, 2015-01-01 00:14:22.900, 0.719, -0.038, 0.689, -0.549, 0.183, 0.183, -2.67, -46.368, 174.419, -19.367, -6.380, -19.827, 28.84, 0.05322, 0.3923, -0.0397, 0.91739,
 11:01:22.514,ed:35:33:d3:6c:f8, 2015-01-01 00:14:22.900, 0.717, -0.033, 0.685, 0.122, -0.305, 0.061, -2.681, -46.368, 174.49, -19.367, -6.380, -19.827, 28.84, 0.05322, 0.3923, -0.0397, 0.91739,
 11:01:22.515,f6:90:cc:01:6d:25, 2015-01-01 00:14:22.390, 0.961, -0.078, 0.188, -0.427, 0.427, 0.366, -21.989, -77.739, -128.76, -30.387, -5.773, -0.673, 27.57, 0.22147, -0.62042, -0.13248, -0.74051,
 11:01:22.515,f6:90:cc:01:6d:25, 2015-01-01 00:14:22.390, 0.96, -0.083, 0.189, -0.427, 0.427, 0.122, -22.006, -77.734, -128.76, -30.387, -5.773, -0.673, 27.57, 0.22147, -0.62042, -0.13248, -0.74051,
 11:01:22.536,ed:35:33:d3:6c:f8, 2015-01-01 00:14:22.900, 0.714, -0.031, 0.681, 0, -0.61, 0.427, -2.681, -46.379, 174.567, -19.607, -6.453, -19.133, 28.84, 0.05322, 0.3923, -0.0397, 0.91739,
 11:01:22.536,ed:35:33:d3:6c:f8, 2015-01-01 00:14:22.900, 0.718, -0.034, 0.678, -0.061, -0.793, 0.671, -2.686, -46.39, 174.622, -19.607, -6.453, -19.133, 28.84, 0.05322, 0.3923, -0.0397, 0.91739,
 11:01:22.538,ed:40:fe:65:30:6c, 2015-01-01 00:14:19.710, 0.782, 0.089, 0.613, -0.244, -0.305, 0.488, 8.47, -51.63, -117.296, -24.273, -7.347, 1.240, 23.45, 0.49435, -0.33624, -0.2829, -0.74994,
 11:01:22.538,ed:40:fe:65:30:6c, 2015-01-01 00:14:19.710, 0.785, 0.09, 0.613, -0.854, -0.427, 0.366, 8.454, -51.636, -117.279, -24.273, -7.347, 1.240, 23.45, 0.49435, -0.33624, -0.2829, -0.74994,
 11:01:22.538,f6:90:cc:01:6d:25, 2015-01-01 00:14:22.390, 0.962, -0.081, 0.191, -0.427, 0.549, 0, -22.017, -77.728, -128.76, -30.160, -5.607, -1.333, 27.57, 0.22147, -0.62042, -0.13248, -0.74051,
 11:01:22.538,f6:90:cc:01:6d:25, 2015-01-01 00:14:22.390, 0.967, -0.083, 0.194, -0.427, 0.671, 0, -22.011, -77.717, -128.765, -30.160, -5.607, -1.333, 27.57, 0.22147, -0.62042, -0.13248, -0.74051,
 11:01:22.540,e3:ca:2d:fd:e0:8c, 2015-01-01 00:14:19.885, 0.885, -0.078, 0.49, -0.183, 0, -0.061, -9.097, -60.864, 176.171, -24.533, -5.627, -15.273, 22, -0.07303, -0.50186, 0.08783, -0.8573,
 11:01:22.540,e3:ca:2d:fd:e0:8c, 2015-01-01 00:14:19.885, 0.884, -0.078, 0.491, -0.305, 0.122, -0.183, -9.097, -60.864, 176.215, -24.533, -5.627, -15.273, 22, -0.07303, -0.50186, 0.08783, -0.8573,
 11:01:22.564,e3:ca:2d:fd:e0:8c, 2015-01-01 00:14:19.885, 0.889, -0.081, 0.492, -0.305, 0.061, -0.244, -9.097, -60.859, 176.259, -24.313, -5.447, -15.107, 22, -0.07303, -0.50186, 0.08783, -0.8573,
 11:01:22.564,e3:ca:2d:fd:e0:8c, 2015-01-01 00:14:19.885, 0.892, -0.082, 0.492, -0.244, -0.061, -0.244, -9.091, -60.864, 176.298, -24.313, -5.447, -15.107, 22, -0.07303, -0.50186, 0.08783, -0.8573,
 11:01:22.582,f6:90:cc:01:6d:25, 2015-01-01 00:14:22.390, 0.967, -0.082, 0.195, -0.427, 0.427, 0, -22.011, -77.712, -128.776, -30.160, -5.607, -1.333, 27.57, 0.22147, -0.62042, -0.13248, -0.74051,
 11:01:22.582,f6:90:cc:01:6d:25, 2015-01-01 00:14:22.390, 0.967, -0.082, 0.195, -0.61, 0.183, 0.061, -22.017, -77.706, -128.837, -30.160, -5.607, -1.333, 27.57, 0.22147, -0.62042, -0.13248, -0.74051,
