Time,Device name,Chip Time(),Acceleration X(g),Acceleration Y(g),Acceleration Z(g),Angular velocity X(°/s),Angular velocity Y(°/s),Angular velocity Z(°/s),Angle X(°),Angle Y(°),Angle Z(°),Magnetic field X(ʯt),Magnetic field Y(ʯt),Magnetic field Z(ʯt),Temperature(℃),Quaternions 0(),Quaternions 1(),Quaternions 2(),Quaternions 3()
 10:46:26.276,f6:90:cc:01:6d:25, 2015-01-01 00:11:13.800, 0.922, -0.14, 0.338, -0.427, -0.977, -0.427, -22.538, -68.505, -134.923, -31.107, -8.380, -5.507, 28.73, 0.20587, -0.56989, -0.06003, -0.79318,
 10:46:26.276,f6:90:cc:01:6d:25, 2015-01-01 00:11:13.800, 0.922, -0.142, 0.334, -0.61, -0.488, -0.366, -22.549, -68.516, -134.929, -31.107, -8.380, -5.507, 28.73, 0.20587, -0.56989, -0.06003, -0.79318,
 10:46:26.277,ed:40:fe:65:30:6c, 2015-01-01 00:11:04.840, 0.361, 0.062, 0.926, -0.61, 1.831, -1.465, 3.549, -21.237, -138.499, -12.867, -11.153, -9.280, 24.81, 0.36066, -0.16077, -0.09152, -0.91412,
 10:46:26.277,ed:40:fe:65:30:6c, 2015-01-01 00:11:04.840, 0.363, 0.064, 0.934, -0.61, 2.686, -1.831, 3.554, -21.182, -138.571, -12.867, -11.153, -9.280, 24.81, 0.36066, -0.16077, -0.09152, -0.91412,
 10:46:26.301,ed:35:33:d3:6c:f8, 2015-01-01 00:11:57.420, 0.306, 0.062, 0.949, -0.366, -3.174, 0.122, 3.95, -17.715, -158.242, -9.840, -13.173, -16.453, 28.54, 0.19183, -0.14319, -0.06268, -0.96884,
 10:46:26.302,ed:35:33:d3:6c:f8, 2015-01-01 00:11:57.420, 0.306, 0.064, 0.942, 0.427, -4.761, 0.305, 3.955, -17.798, -158.258, -9.840, -13.173, -16.453, 28.54, 0.19183, -0.14319, -0.06268, -0.96884,
 10:46:26.304,e3:ca:2d:fd:e0:8c, 2015-01-01 00:10:43.640, 0.959, -0.077, 0.351, -0.549, -1.16, 0, -12.393, -69.664, -174.38, -26.927, -9.960, -11.367, 25.44, -0.02054, -0.57303, 0.05862, -0.81711,
 10:46:26.304,e3:ca:2d:fd:e0:8c, 2015-01-01 00:10:43.640, 0.958, -0.08, 0.351, -0.427, -0.549, -0.061, -12.404, -69.675, -174.375, -26.927, -9.960, -11.367, 25.44, -0.02054, -0.57303, 0.05862, -0.81711,
 10:46:26.322,f6:90:cc:01:6d:25, 2015-01-01 00:11:13.800, 0.92, -0.145, 0.333, -0.488, 0.061, -0.305, -22.549, -68.516, -134.956, -31.107, -8.380, -5.507, 28.73, 0.20587, -0.56989, -0.06003, -0.79318,
 10:46:26.322,f6:90:cc:01:6d:25, 2015-01-01 00:11:13.800, 0.919, -0.144, 0.333, -0.061, 0.549, -0.122, -22.544, -68.511, -135.016, -31.107, -8.380, -5.507, 28.73, 0.20587, -0.56989, -0.06003, -0.79318,
 10:46:26.322,ed:40:fe:65:30:6c, 2015-01-01 00:11:04.840, 0.359, 0.064, 0.928, -1.099, 3.601, -2.258, 3.549, -21.11, -138.647, -12.867, -11.153, -9.280, 24.81, 0.36066, -0.16077, -0.09152, -0.91412,
 10:46:26.322,ed:40:fe:65:30:6c, 2015-01-01 00:11:04.840, 0.359, 0.064, 0.929, -0.427, 4.089, -2.014, 3.554, -21.028, -138.708, -12.867, -11.153, -9.280, 24.81, 0.36066, -0.16077, -0.09152, -0.91412,
 10:46:26.324,ed:35:33:d3:6c:f8, 2015-01-01 00:11:57.780, 0.306, 0.063, 0.945, 1.343, -5.371, 0, 3.977, -17.897, -158.286, -9.840, -13.173, -16.453, 28.54, 0.19183, -0.14319, -0.06268, -0.96884,
 10:46:26.324,ed:35:33:d3:6c:f8, 2015-01-01 00:11:57.780, 0.312, 0.067, 0.938, 2.319, -5.493, -0.793, 4.032, -18.001, -158.329, -9.840, -13.173, -16.453, 28.54, 0.19183, -0.14319, -0.06268, -0.96884,
 10:46:26.347,ed:35:33:d3:6c:f8, 2015-01-01 00:11:57.780, 0.313, 0.071, 0.939, 3.967, -5.371, -0.671, 4.114, -18.1, -158.362, -9.840, -13.173, -16.453, 28.54, 0.19183, -0.14319, -0.06268, -0.96884,
 10:46:26.347,ed:35:33:d3:6c:f8, 2015-01-01 00:11:57.780, 0.316, 0.066, 0.941, 4.578, -3.662, -0.671, 4.208, -18.166, -158.39, -9.840, -13.173, -16.453, 28.54, 0.19183, -0.14319, -0.06268, -0.96884,
 10:46:26.367,f6:90:cc:01:6d:25, 2015-01-01 00:11:13.800, 0.92, -0.144, 0.335, 0.183, 0.793, 0, -22.533, -68.494, -135.088, -31.107, -8.380, -5.507, 28.73, 0.20816, -0.57181, -0.06168, -0.79108,
 10:46:26.367,f6:90:cc:01:6d:25, 2015-01-01 00:11:13.800, 0.921, -0.141, 0.334, 0.488, 0.793, 0.061, -22.516, -68.478, -135.126, -31.107, -8.380, -5.507, 28.73, 0.20816, -0.57181, -0.06168, -0.79108,
 10:46:26.372,e3:ca:2d:fd:e0:8c, 2015-01-01 00:10:43.640, 0.957, -0.08, 0.349, -0.183, 0, -0.122, -12.398, -69.675, -174.38, -26.987, -9.880, -11.587, 25.44, -0.02054, -0.57303, 0.05862, -0.81711,
 10:46:26.372,e3:ca:2d:fd:e0:8c, 2015-01-01 00:10:43.640, 0.96, -0.081, 0.349, -0.061, 0, -0.061, -12.398, -69.675, -174.408, -26.987, -9.880, -11.587, 25.44, -0.02054, -0.57303, 0.05862, -0.81711,
 10:46:26.372,e3:ca:2d:fd:e0:8c, 2015-01-01 00:10:43.640, 0.96, -0.078, 0.348, 0.061, 0.061, 0, -12.398, -69.67, -174.413, -26.987, -9.880, -11.587, 25.44, -0.02054, -0.57303, 0.05862, -0.81711,
 10:46:26.372,e3:ca:2d:fd:e0:8c, 2015-01-01 00:10:43.640, 0.96, -0.076, 0.342, 0.061, 0.793, -0.061, -12.393, -69.659, -174.408, -26.987, -9.880, -11.587, 25.44, -0.02054, -0.57303, 0.05862, -0.81711,
 10:46:26.390,ed:40:fe:65:30:6c, 2015-01-01 00:11:04.840, 0.361, 0.06, 0.931, -0.183, 3.235, -1.648, 3.56, -20.956, -138.763, -12.867, -11.153, -9.280, 24.81, 0.35196, -0.16025, -0.09296, -0.91745,
 10:46:26.390,ed:40:fe:65:30:6c, 2015-01-01 00:11:04.840, 0.357, 0.06, 0.93, 0.061, 3.113, -1.587, 3.576, -20.891, -138.801, -12.867, -11.153, -9.280, 24.81, 0.35196, -0.16025, -0.09296, -0.91745,
 10:46:26.391,ed:35:33:d3:6c:f8, 2015-01-01 00:11:57.780, 0.314, 0.068, 0.942, 5.005, -3.967, -0.305, 4.307, -18.237, -158.412, -9.840, -13.173, -16.453, 28.54, 0.19183, -0.14319, -0.06268, -0.96884,
 10:46:26.391,ed:35:33:d3:6c:f8, 2015-01-01 00:11:57.780, 0.316, 0.071, 0.942, 4.944, -3.662, -0.122, 4.406, -18.309, -158.445, -9.840, -13.173, -16.453, 28.54, 0.19183, -0.14319, -0.06268, -0.96884,
 10:46:26.412,ed:40:fe:65:30:6c, 2015-01-01 00:11:05.200, 0.356, 0.062, 0.933, 0.122, 2.808, -1.709, 3.593, -20.836, -138.845, -12.867, -11.153, -9.280, 24.81, 0.35196, -0.16025, -0.09296, -0.91745,
 10:46:26.412,ed:40:fe:65:30:6c, 2015-01-01 00:11:05.200, 0.355, 0.064, 0.932, 0, 2.808, -1.587, 3.604, -20.781, -138.9, -12.867, -11.153, -9.280, 24.81, 0.35196, -0.16025, -0.09296, -0.91745,
 10:46:26.412,f6:90:cc:01:6d:25, 2015-01-01 00:11:13.800, 0.92, -0.141, 0.333, 0.977, 0.793, 0.061, -22.495, -68.461, -135.159, -31.107, -8.380, -5.507, 28.73, 0.20816, -0.57181, -0.06168, -0.79108,
 10:46:26.412,f6:90:cc:01:6d:25, 2015-01-01 00:11:13.800, 0.92, -0.142, 0.332, 0.671, 1.038, 0, -22.473, -68.439, -135.198, -31.107, -8.380, -5.507, 28.73, 0.20816, -0.57181, -0.06168, -0.79108,
 10:46:26.416,e3:ca:2d:fd:e0:8c, 2015-01-01 00:10:43.640, 0.96, -0.075, 0.342, -0.183, 0.793, -0.122, -12.382, -69.642, -174.402, -26.987, -9.880, -11.587, 25.44, -0.02185, -0.57147, 0.06088, -0.81799,
 10:46:26.416,e3:ca:2d:fd:e0:8c, 2015-01-01 00:10:43.640, 0.961, -0.076, 0.342, -0.488, 0.732, -0.244, -12.371, -69.631, -174.402, -26.987, -9.880, -11.587, 25.44, -0.02185, -0.57147, 0.06088, -0.81799,
 10:46:26.434,f6:90:cc:01:6d:25, 2015-01-01 00:11:14.135, 0.92, -0.141, 0.331, 0.366, 1.16, -0.122, -22.44, -68.423, -135.253, -31.107, -8.380, -5.507, 28.73, 0.20816, -0.57181, -0.06168, -0.79108,
 10:46:26.434,f6:90:cc:01:6d:25, 2015-01-01 00:11:14.135, 0.92, -0.141, 0.332, -0.061, 1.282, -0.244, -22.412, -68.401, -135.302, -31.107, -8.380, -5.507, 28.73, 0.20816, -0.57181, -0.06168, -0.79108,
 10:46:26.436,ed:35:33:d3:6c:f8, 2015-01-01 00:11:57.780, 0.317, 0.074, 0.941, 4.211, -3.479, 0.061, 4.488, -18.375, -158.478, -9.840, -13.173, -16.453, 28.54, 0.19183, -0.14319, -0.06268, -0.96884,
 10:46:26.436,ed:35:33:d3:6c:f8, 2015-01-01 00:11:57.780, 0.313, 0.078, 0.94, 1.953, -3.113, 0.122, 4.521, -18.43, -158.505, -9.840, -13.173, -16.453, 28.54, 0.19183, -0.14319, -0.06268, -0.96884,
 10:46:26.436,ed:40:fe:65:30:6c, 2015-01-01 00:11:05.200, 0.35, 0.063, 0.934, -0.61, 3.357, -1.099, 3.604, -20.715, -138.95, -12.867, -11.153, -9.280, 24.81, 0.35196, -0.16025, -0.09296, -0.91745,
 10:46:26.436,ed:40:fe:65:30:6c, 2015-01-01 00:11:05.200, 0.35, 0.068, 0.936, -1.465, 2.502, -0.916, 3.587, -20.665, -139.005, -12.867, -11.153, -9.280, 24.81, 0.35196, -0.16025, -0.09296, -0.91745,
 10:46:26.457,f6:90:cc:01:6d:25, 2015-01-01 00:11:14.135, 0.92, -0.138, 0.333, -0.366, 1.221, -0.366, -22.39, -68.379, -135.357, -31.107, -8.380, -5.507, 28.73, 0.20816, -0.57181, -0.06168, -0.79108,
 10:46:26.457,f6:90:cc:01:6d:25, 2015-01-01 00:11:14.135, 0.919, -0.137, 0.333, -0.366, 1.16, -0.305, -22.363, -68.362, -135.406, -31.107, -8.380, -5.507, 28.73, 0.20816, -0.57181, -0.06168, -0.79108,
 10:46:26.461,e3:ca:2d:fd:e0:8c, 2015-01-01 00:10:43.950, 0.96, -0.075, 0.341, -0.549, 0.61, -0.366, -12.36, -69.62, -174.413, -26.987, -9.880, -11.587, 25.44, -0.02185, -0.57147, 0.06088, -0.81799,
 10:46:26.461,e3:ca:2d:fd:e0:8c, 2015-01-01 00:10:43.950, 0.959, -0.074, 0.343, -0.366, 0.488, -0.366, -12.349, -69.609, -174.435, -26.987, -9.880, -11.587, 25.44, -0.02185, -0.57147, 0.06088, -0.81799,
 10:46:26.480,ed:40:fe:65:30:6c, 2015-01-01 00:11:05.200, 0.35, 0.071, 0.935, -1.892, 2.38, -0.793, 3.56, -20.616, -139.065, -12.867, -11.153, -9.280, 24.81, 0.35196, -0.16025, -0.09296, -0.91745,
 10:46:26.480,ed:40:fe:65:30:6c, 2015-01-01 00:11:05.200, 0.343, 0.071, 0.936, -2.075, 3.357, -0.549, 3.527, -20.555, -139.103, -12.867, -11.153, -9.280, 24.81, 0.35196, -0.16025, -0.09296, -0.91745,
 10:46:26.482,ed:35:33:d3:6c:f8, 2015-01-01 00:11:57.780, 0.315, 0.083, 0.94, 0.854, -0.916, -0.061, 4.537, -18.446, -158.538, -9.840, -13.173, -16.453, 28.54, 0.19183, -0.14319, -0.06268, -0.96884,
 10:46:26.482,ed:35:33:d3:6c:f8, 2015-01-01 00:11:57.780, 0.312, 0.085, 0.942, 0.061, -0.793, -0.061, 4.537, -18.457, -158.56, -9.840, -13.173, -16.453, 28.54, 0.19183, -0.14319, -0.06268, -0.96884,
 10:46:26.502,f6:90:cc:01:6d:25, 2015-01-01 00:11:14.135, 0.918, -0.138, 0.334, -0.305, 1.16, -0.244, -22.341, -68.346, -135.45, -31.107, -8.380, -5.507, 28.73, 0.20816, -0.57181, -0.06168, -0.79108,
 10:46:26.502,f6:90:cc:01:6d:25, 2015-01-01 00:11:14.135, 0.917, -0.14, 0.337, -0.122, 1.404, -0.183, -22.313, -68.324, -135.472, -31.107, -8.380, -5.507, 28.73, 0.20816, -0.57181, -0.06168, -0.79108,
 10:46:26.505,e3:ca:2d:fd:e0:8c, 2015-01-01 00:10:43.950, 0.959, -0.074, 0.343, -0.122, 0.488, -0.366, -12.332, -69.604, -174.457, -26.987, -9.880, -11.587, 25.44, -0.02185, -0.57147, 0.06088, -0.81799,
 10:46:26.505,e3:ca:2d:fd:e0:8c, 2015-01-01 00:10:43.950, 0.958, -0.076, 0.345, -0.061, 0.488, -0.183, -12.31, -69.598, -174.49, -26.987, -9.880, -11.587, 25.44, -0.02185, -0.57147, 0.06088, -0.81799,
 10:46:26.527,ed:35:33:d3:6c:f8, 2015-01-01 00:11:57.780, 0.312, 0.085, 0.942, -1.282, -2.319, 0.671, 4.51, -18.501, -158.577, -9.840, -13.173, -16.453, 28.54, 0.19183, -0.14319, -0.06268, -0.96884,
 10:46:26.527,ed:35:33:d3:6c:f8, 2015-01-01 00:11:57.780, 0.315, 0.084, 0.947, -2.38, -1.831, 0.61, 4.46, -18.539, -158.582, -9.840, -13.173, -16.453, 28.54, 0.19183, -0.14319, -0.06268, -0.96884,
 10:46:26.546,f6:90:cc:01:6d:25, 2015-01-01 00:11:14.135, 0.917, -0.139, 0.34, -0.305, 1.465, -0.122, -22.291, -68.297, -135.478, -31.107, -8.380, -5.507, 28.73, 0.20816, -0.57181, -0.06168, -0.79108,
 10:46:26.546,f6:90:cc:01:6d:25, 2015-01-01 00:11:14.135, 0.917, -0.136, 0.342, -0.61, 1.221, 0, -22.28, -68.275, -135.478, -31.107, -8.380, -5.507, 28.73, 0.20816, -0.57181, -0.06168, -0.79108,
 10:46:26.547,ed:40:fe:65:30:6c, 2015-01-01 00:11:05.200, 0.342, 0.069, 0.943, -2.075, 4.639, -0.122, 3.494, -20.473, -139.147, -12.867, -11.153, -9.280, 24.81, 0.35196, -0.16025, -0.09296, -0.91745,
 10:46:26.547,ed:40:fe:65:30:6c, 2015-01-01 00:11:05.200, 0.343, 0.066, 0.939, -2.93, 2.38, -0.061, 3.444, -20.413, -139.186, -12.867, -11.153, -9.280, 24.81, 0.35196, -0.16025, -0.09296, -0.91745,
 10:46:26.549,ed:35:33:d3:6c:f8, 2015-01-01 00:11:57.780, 0.314, 0.08, 0.947, -2.563, -0.977, 0.488, 4.411, -18.556, -158.571, -10.713, -13.400, -16.727, 28.54, 0.19183, -0.14319, -0.06268, -0.96884,
 10:46:26.549,ed:35:33:d3:6c:f8, 2015-01-01 00:11:57.780, 0.314, 0.069, 0.943, -1.953, -1.709, 0.122, 4.378, -18.583, -158.571, -10.713, -13.400, -16.727, 28.54, 0.19183, -0.14319, -0.06268, -0.96884,
 10:46:26.550,e3:ca:2d:fd:e0:8c, 2015-01-01 00:10:43.950, 0.958, -0.076, 0.349, -0.183, 0.427, -0.183, -12.299, -69.593, -174.523, -26.987, -9.880, -11.587, 25.44, -0.02185, -0.57147, 0.06088, -0.81799,
 10:46:26.550,e3:ca:2d:fd:e0:8c, 2015-01-01 00:10:43.950, 0.956, -0.075, 0.349, -0.305, 0.366, 0, -12.294, -69.587, -174.556, -26.987, -9.880, -11.587, 25.44, -0.02185, -0.57147, 0.06088, -0.81799,
 10:46:26.573,e3:ca:2d:fd:e0:8c, 2015-01-01 00:10:43.950, 0.956, -0.075, 0.35, -0.427, 0.366, 0, -12.294, -69.582, -174.578, -26.987, -9.880, -11.587, 25.44, -0.02185, -0.57147, 0.06088, -0.81799,
 10:46:26.573,e3:ca:2d:fd:e0:8c, 2015-01-01 00:10:43.950, 0.954, -0.075, 0.351, -0.488, 0.488, -0.061, -12.299, -69.576, -174.611, -26.987, -9.880, -11.587, 25.44, -0.02185, -0.57147, 0.06088, -0.81799,
 10:46:26.591,f6:90:cc:01:6d:25, 2015-01-01 00:11:14.135, 0.916, -0.139, 0.341, -0.793, 1.099, 0, -22.275, -68.258, -135.472, -31.107, -8.380, -5.507, 28.73, 0.20816, -0.57181, -0.06168, -0.79108,
 10:46:26.591,f6:90:cc:01:6d:25, 2015-01-01 00:11:14.135, 0.914, -0.142, 0.341, -0.732, 1.038, -0.061, -22.269, -68.236, -135.456, -31.107, -8.380, -5.507, 28.73, 0.20816, -0.57181, -0.06168, -0.79108,
 10:46:26.592,ed:40:fe:65:30:6c, 2015-01-01 00:11:05.200, 0.341, 0.06, 0.938, -2.93, 0.793, -0.183, 3.395, -20.391, -139.219, -12.867, -11.153, -9.280, 24.81, 0.35196, -0.16025, -0.09296, -0.91745,
 10:46:26.592,ed:40:fe:65:30:6c, 2015-01-01 00:11:05.200, 0.344, 0.054, 0.94, -2.319, 0.671, -0.916, 3.356, -20.374, -139.274, -12.867, -11.153, -9.280, 24.81, 0.35196, -0.16025, -0.09296, -0.91745,
 10:46:26.594,ed:35:33:d3:6c:f8, 2015-01-01 00:11:57.780, 0.315, 0.067, 0.939, -1.16, -0.854, -0.305, 4.356, -18.6, -158.588, -10.713, -13.400, -16.727, 28.54, 0.19183, -0.14319, -0.06268, -0.96884,
 10:46:26.594,ed:35:33:d3:6c:f8, 2015-01-01 00:11:57.780, 0.311, 0.073, 0.937, -0.671, -0.305, -0.122, 4.351, -18.6, -158.604, -10.713, -13.400, -16.727, 28.54, 0.19183, -0.14319, -0.06268, -0.96884,
 10:46:26.617,ed:40:fe:65:30:6c, 2015-01-01 00:11:05.200, 0.338, 0.056, 0.935, -1.953, 1.282, -0.793, 3.329, -20.352, -139.329, -12.287, -11.340, -8.853, 24.81, 0.35196, -0.16025, -0.09296, -0.91745,
 10:46:26.617,ed:40:fe:65:30:6c, 2015-01-01 00:11:05.200, 0.337, 0.058, 0.937, -1.221, 1.892, 0, 3.307, -20.314, -139.373, -12.287, -11.340, -8.853, 24.81, 0.35196, -0.16025, -0.09296, -0.91745,
 10:46:26.619,e3:ca:2d:fd:e0:8c, 2015-01-01 00:10:43.950, 0.954, -0.075, 0.351, -0.427, 0.61, -0.122, -12.299, -69.565, -174.628, -26.987, -9.880, -11.587, 25.44, -0.02185, -0.57147, 0.06088, -0.81799,
 10:46:26.619,e3:ca:2d:fd:e0:8c, 2015-01-01 00:10:43.950, 0.954, -0.076, 0.352, -0.366, 0.61, -0.122, -12.294, -69.554, -174.655, -26.987, -9.880, -11.587, 25.44, -0.02185, -0.57147, 0.06088, -0.81799,
 10:46:26.636,f6:90:cc:01:6d:25, 2015-01-01 00:11:14.135, 0.914, -0.14, 0.342, -0.366, 1.099, -0.183, -22.253, -68.22, -135.456, -31.107, -8.380, -5.507, 28.73, 0.20816, -0.57181, -0.06168, -0.79108,
 10:46:26.636,f6:90:cc:01:6d:25, 2015-01-01 00:11:14.135, 0.914, -0.138, 0.346, -0.183, 0.916, -0.244, -22.231, -68.203, -135.467, -31.107, -8.380, -5.507, 28.73, 0.20816, -0.57181, -0.06168, -0.79108,
 10:46:26.659,f6:90:cc:01:6d:25, 2015-01-01 00:11:14.135, 0.913, -0.141, 0.345, -0.061, 0.854, -0.183, -22.209, -68.187, -135.472, -30.660, -8.320, -5.133, 28.73, 0.20816, -0.57181, -0.06168, -0.79108,
 10:46:26.659,f6:90:cc:01:6d:25, 2015-01-01 00:11:14.135, 0.915, -0.142, 0.346, -0.061, 0.977, -0.244, -22.181, -68.17, -135.483, -30.660, -8.320, -5.133, 28.73, 0.20816, -0.57181, -0.06168, -0.79108,
 10:46:26.662,ed:40:fe:65:30:6c, 2015-01-01 00:11:05.200, 0.34, 0.059, 0.937, -0.732, 2.014, 0.122, 3.29, -20.275, -139.389, -12.287, -11.340, -8.853, 24.81, 0.35196, -0.16025, -0.09296, -0.91745,
 10:46:26.662,ed:40:fe:65:30:6c, 2015-01-01 00:11:05.200, 0.338, 0.056, 0.933, -0.366, 2.014, 0.061, 3.285, -20.231, -139.417, -12.287, -11.340, -8.853, 24.81, 0.35196, -0.16025, -0.09296, -0.91745,
 10:46:26.662,ed:35:33:d3:6c:f8, 2015-01-01 00:11:57.780, 0.312, 0.074, 0.939, 0.061, 0, 0.305, 4.351, -18.6, -158.599, -10.713, -13.400, -16.727, 28.54, 0.18912, -0.1517, -0.06683, -0.9678,
 10:46:26.662,ed:35:33:d3:6c:f8, 2015-01-01 00:11:57.780, 0.315, 0.074, 0.939, 0.488, 0.122, 0.671, 4.356, -18.594, -158.588, -10.713, -13.400, -16.727, 28.54, 0.18912, -0.1517, -0.06683, -0.9678,
 10:46:26.664,e3:ca:2d:fd:e0:8c, 2015-01-01 00:10:43.950, 0.953, -0.076, 0.352, -0.366, 0.488, -0.122, -12.288, -69.543, -174.661, -26.753, -9.887, -11.327, 25.44, -0.02185, -0.57147, 0.06088, -0.81799,
 10:46:26.664,e3:ca:2d:fd:e0:8c, 2015-01-01 00:10:43.950, 0.955, -0.076, 0.352, -0.244, 0.488, -0.183, -12.277, -69.538, -174.672, -26.753, -9.887, -11.327, 25.44, -0.02185, -0.57147, 0.06088, -0.81799,
 10:46:26.683,ed:40:fe:65:30:6c, 2015-01-01 00:11:05.200, 0.335, 0.055, 0.934, 0, 2.747, -0.061, 3.29, -20.182, -139.438, -12.287, -11.340, -8.853, 24.81, 0.34589, -0.15482, -0.08734, -0.92123,
 10:46:26.683,ed:40:fe:65:30:6c, 2015-01-01 00:11:05.200, 0.337, 0.06, 0.941, 0.061, 3.723, -0.671, 3.296, -20.11, -139.488, -12.287, -11.340, -8.853, 24.81, 0.34589, -0.15482, -0.08734, -0.92123,
 10:46:26.683,ed:35:33:d3:6c:f8, 2015-01-01 00:11:58.160, 0.312, 0.07, 0.936, 0.549, -0.488, 0.793, 4.367, -18.6, -158.571, -10.713, -13.400, -16.727, 28.54, 0.18912, -0.1517, -0.06683, -0.9678,
 10:46:26.683,ed:35:33:d3:6c:f8, 2015-01-01 00:11:58.160, 0.313, 0.068, 0.935, 0.427, -1.16, 0.732, 4.367, -18.622, -158.566, -10.713, -13.400, -16.727, 28.54, 0.18912, -0.1517, -0.06683, -0.9678,
 10:46:26.704,f6:90:cc:01:6d:25, 2015-01-01 00:11:14.135, 0.917, -0.139, 0.344, 0, 1.16, -0.244, -22.148, -68.148, -135.516, -30.660, -8.320, -5.133, 28.73, 0.20816, -0.57181, -0.06168, -0.79108,
 10:46:26.704,f6:90:cc:01:6d:25, 2015-01-01 00:11:14.135, 0.918, -0.14, 0.342, 0.061, 1.038, -0.183, -22.121, -68.126, -135.56, -30.660, -8.320, -5.133, 28.73, 0.20816, -0.57181, -0.06168, -0.79108,
 10:46:26.706,ed:35:33:d3:6c:f8, 2015-01-01 00:11:58.160, 0.317, 0.075, 0.94, 0.549, -0.244, 0.183, 4.378, -18.627, -158.577, -10.713, -13.400, -16.727, 28.54, 0.18912, -0.1517, -0.06683, -0.9678,
 10:46:26.706,ed:35:33:d3:6c:f8, 2015-01-01 00:11:58.160, 0.319, 0.081, 0.944, 1.16, 0.122, 0.488, 4.4, -18.622, -158.593, -10.713, -13.400, -16.727, 28.54, 0.18912, -0.1517, -0.06683, -0.9678,
 10:46:26.707,e3:ca:2d:fd:e0:8c, 2015-01-01 00:10:43.950, 0.957, -0.074, 0.352, -0.427, 0.427, -0.244, -12.266, -69.527, -174.688, -26.753, -9.887, -11.327, 25.44, -0.02301, -0.5704, 0.06143, -0.8187,
 10:46:26.707,e3:ca:2d:fd:e0:8c, 2015-01-01 00:10:43.950, 0.958, -0.076, 0.349, -0.366, 0.549, -0.183, -12.255, -69.521, -174.721, -26.753, -9.887, -11.327, 25.44, -0.02301, -0.5704, 0.06143, -0.8187,
 10:46:26.728,ed:40:fe:65:30:6c, 2015-01-01 00:11:05.200, 0.338, 0.063, 0.94, 0.366, 3.54, -0.549, 3.307, -20.034, -139.554, -12.287, -11.340, -8.853, 24.81, 0.34589, -0.15482, -0.08734, -0.92123,
 10:46:26.728,ed:40:fe:65:30:6c, 2015-01-01 00:11:05.200, 0.337, 0.063, 0.942, 0.549, 2.747, 0.183, 3.323, -19.979, -139.609, -12.287, -11.340, -8.853, 24.81, 0.34589, -0.15482, -0.08734, -0.92123,
 10:46:26.751,ed:35:33:d3:6c:f8, 2015-01-01 00:11:58.160, 0.318, 0.081, 0.946, 0.977, -0.366, 1.099, 4.417, -18.627, -158.582, -10.713, -13.400, -16.727, 28.54, 0.18912, -0.1517, -0.06683, -0.9678,
 10:46:26.751,ed:35:33:d3:6c:f8, 2015-01-01 00:11:58.160, 0.315, 0.079, 0.945, 0.427, -0.793, 1.282, 4.417, -18.644, -158.566, -10.713, -13.400, -16.727, 28.54, 0.18912, -0.1517, -0.06683, -0.9678,
 10:46:26.752,e3:ca:2d:fd:e0:8c, 2015-01-01 00:10:44.240, 0.959, -0.076, 0.349, -0.305, 0.793, -0.244, -12.244, -69.505, -174.749, -26.753, -9.887, -11.327, 25.44, -0.02301, -0.5704, 0.06143, -0.8187,
 10:46:26.752,e3:ca:2d:fd:e0:8c, 2015-01-01 00:10:44.240, 0.958, -0.075, 0.348, -0.366, 0.732, -0.122, -12.233, -69.494, -174.781, -26.753, -9.887, -11.327, 25.44, -0.02301, -0.5704, 0.06143, -0.8187,
 10:46:26.772,f6:90:cc:01:6d:25, 2015-01-01 00:11:14.135, 0.919, -0.14, 0.343, -0.183, 0.916, -0.122, -22.099, -68.11, -135.593, -30.660, -8.320, -5.133, 28.73, 0.20798, -0.56906, -0.06076, -0.79318,
 10:46:26.772,f6:90:cc:01:6d:25, 2015-01-01 00:11:14.135, 0.917, -0.138, 0.342, -0.183, 0.732, -0.061, -22.088, -68.093, -135.621, -30.660, -8.320, -5.133, 28.73, 0.20798, -0.56906, -0.06076, -0.79318,
 10:46:26.772,ed:40:fe:65:30:6c, 2015-01-01 00:11:05.535, 0.334, 0.063, 0.943, 0.244, 2.38, 0.61, 3.329, -19.924, -139.642, -12.287, -11.340, -8.853, 24.81, 0.34589, -0.15482, -0.08734, -0.92123,
 10:46:26.772,ed:40:fe:65:30:6c, 2015-01-01 00:11:05.535, 0.331, 0.062, 0.943, 0.305, 2.441, 0.732, 3.334, -19.88, -139.669, -12.287, -11.340, -8.853, 24.81, 0.34589, -0.15482, -0.08734, -0.92123,
 10:46:26.775,e3:ca:2d:fd:e0:8c, 2015-01-01 00:10:44.240, 0.957, -0.074, 0.346, -0.244, 0.549, 0, -12.228, -69.478, -174.803, -26.753, -9.887, -11.327, 25.44, -0.02301, -0.5704, 0.06143, -0.8187,
 10:46:26.775,e3:ca:2d:fd:e0:8c, 2015-01-01 00:10:44.240, 0.956, -0.075, 0.347, -0.366, 0.427, -0.061, -12.222, -69.472, -174.82, -26.753, -9.887, -11.327, 25.44, -0.02301, -0.5704, 0.06143, -0.8187,
 10:46:26.793,f6:90:cc:01:6d:25, 2015-01-01 00:11:14.515, 0.916, -0.138, 0.342, 0, 0.671, -0.061, -22.072, -68.082, -135.637, -30.660, -8.320, -5.133, 28.73, 0.20798, -0.56906, -0.06076, -0.79318,
 10:46:26.793,f6:90:cc:01:6d:25, 2015-01-01 00:11:14.515, 0.915, -0.139, 0.342, -0.122, 0.61, 0, -22.066, -68.071, -135.665, -30.660, -8.320, -5.133, 28.73, 0.20798, -0.56906, -0.06076, -0.79318,
 10:46:26.796,ed:35:33:d3:6c:f8, 2015-01-01 00:11:58.160, 0.313, 0.077, 0.942, 0.183, -0.549, 1.343, 4.417, -18.655, -158.549, -10.713, -13.400, -16.727, 28.54, 0.18912, -0.1517, -0.06683, -0.9678,
 10:46:26.796,ed:35:33:d3:6c:f8, 2015-01-01 00:11:58.160, 0.315, 0.077, 0.944, -0.366, -0.061, 1.038, 4.406, -18.655, -158.533, -10.713, -13.400, -16.727, 28.54, 0.18912, -0.1517, -0.06683, -0.9678,
 10:46:26.817,ed:40:fe:65:30:6c, 2015-01-01 00:11:05.535, 0.331, 0.062, 0.945, 0, 2.441, 0.488, 3.334, -19.83, -139.68, -12.287, -11.340, -8.853, 24.81, 0.34589, -0.15482, -0.08734, -0.92123,
 10:46:26.817,ed:40:fe:65:30:6c, 2015-01-01 00:11:05.535, 0.331, 0.063, 0.942, -0.244, 2.319, 0.488, 3.329, -19.781, -139.702, -12.287, -11.340, -8.853, 24.81, 0.34589, -0.15482, -0.08734, -0.92123,
 10:46:26.820,e3:ca:2d:fd:e0:8c, 2015-01-01 00:10:44.240, 0.956, -0.075, 0.348, -0.427, 0.305, -0.122, -12.222, -69.467, -174.864, -26.753, -9.887, -11.327, 25.44, -0.02301, -0.5704, 0.06143, -0.8187,
 10:46:26.820,e3:ca:2d:fd:e0:8c, 2015-01-01 00:10:44.240, 0.957, -0.075, 0.349, -0.366, 0.061, -0.122, -12.222, -69.461, -174.908, -26.753, -9.887, -11.327, 25.44, -0.02301, -0.5704, 0.06143, -0.8187,
 10:46:26.841,ed:40:fe:65:30:6c, 2015-01-01 00:11:05.535, 0.33, 0.06, 0.942, -0.305, 2.136, 0.671, 3.323, -19.737, -139.719, -12.287, -11.340, -8.853, 24.81, 0.34589, -0.15482, -0.08734, -0.92123,
 10:46:26.841,ed:40:fe:65:30:6c, 2015-01-01 00:11:05.535, 0.33, 0.06, 0.942, -0.244, 1.892, 0.854, 3.318, -19.698, -139.741, -12.287, -11.340, -8.853, 24.81, 0.34589, -0.15482, -0.08734, -0.92123,
 10:46:26.842,ed:35:33:d3:6c:f8, 2015-01-01 00:11:58.160, 0.315, 0.078, 0.941, -0.671, -0.244, 1.038, 4.389, -18.655, -158.522, -10.713, -13.400, -16.727, 28.54, 0.18912, -0.1517, -0.06683, -0.9678,
 10:46:26.842,ed:35:33:d3:6c:f8, 2015-01-01 00:11:58.160, 0.317, 0.075, 0.942, -0.916, -0.305, 1.16, 4.367, -18.66, -158.511, -10.713, -13.400, -16.727, 28.54, 0.18912, -0.1517, -0.06683, -0.9678,
 10:46:26.861,f6:90:cc:01:6d:25, 2015-01-01 00:11:14.515, 0.915, -0.139, 0.342, -0.183, 0.549, 0, -22.061, -68.06, -135.67, -30.660, -8.320, -5.133, 28.73, 0.20798, -0.56906, -0.06076, -0.79318,
 10:46:26.861,f6:90:cc:01:6d:25, 2015-01-01 00:11:14.515, 0.916, -0.139, 0.343, -0.122, 0.427, 0, -22.055, -68.049, -135.676, -30.660, -8.320, -5.133, 28.73, 0.20798, -0.56906, -0.06076, -0.79318,
 10:46:26.866,e3:ca:2d:fd:e0:8c, 2015-01-01 00:10:44.240, 0.956, -0.075, 0.349, -0.366, 0, -0.122, -12.222, -69.461, -174.952, -26.753, -9.887, -11.327, 25.44, -0.02301, -0.5704, 0.06143, -0.8187,
 10:46:26.866,e3:ca:2d:fd:e0:8c, 2015-01-01 00:10:44.240, 0.956, -0.076, 0.35, -0.366, -0.061, -0.122, -12.222, -69.461, -174.974, -26.753, -9.887, -11.327, 25.44, -0.02301, -0.5704, 0.06143, -0.8187,
 10:46:26.884,f6:90:cc:01:6d:25, 2015-01-01 00:11:14.515, 0.915, -0.139, 0.344, -0.061, 0.305, 0, -22.05, -68.044, -135.659, -30.660, -8.320, -5.133, 28.73, 0.20798, -0.56906, -0.06076, -0.79318,
 10:46:26.884,f6:90:cc:01:6d:25, 2015-01-01 00:11:14.515, 0.916, -0.14, 0.344, -0.061, 0.183, 0, -22.05, -68.038, -135.659, -30.660, -8.320, -5.133, 28.73, 0.20798, -0.56906, -0.06076, -0.79318,
 10:46:26.885,ed:40:fe:65:30:6c, 2015-01-01 00:11:05.535, 0.33, 0.06, 0.943, -0.305, 1.709, 0.854, 3.307, -19.66, -139.757, -12.287, -11.340, -8.853, 24.81, 0.34589, -0.15482, -0.08734, -0.92123,
 10:46:26.885,ed:40:fe:65:30:6c, 2015-01-01 00:11:05.535, 0.329, 0.059, 0.941, -0.122, 1.526, 0.854, 3.307, -19.627, -139.779, -12.287, -11.340, -8.853, 24.81, 0.34589, -0.15482, -0.08734, -0.92123,
 10:46:26.887,ed:35:33:d3:6c:f8, 2015-01-01 00:11:58.160, 0.316, 0.074, 0.941, -0.977, 0, 1.404, 4.34, -18.66, -158.494, -10.713, -13.400, -16.727, 28.54, 0.18912, -0.1517, -0.06683, -0.9678,
 10:46:26.887,ed:35:33:d3:6c:f8, 2015-01-01 00:11:58.160, 0.317, 0.073, 0.942, -0.916, 0.183, 1.343, 4.318, -18.66, -158.478, -10.713, -13.400, -16.727, 28.54, 0.18912, -0.1517, -0.06683, -0.9678,
 10:46:26.906,f6:90:cc:01:6d:25, 2015-01-01 00:11:14.515, 0.915, -0.139, 0.346, -0.122, 0.061, 0, -22.05, -68.038, -135.665, -30.660, -8.320, -5.133, 28.73, 0.20798, -0.56906, -0.06076, -0.79318,
 10:46:26.906,f6:90:cc:01:6d:25, 2015-01-01 00:11:14.515, 0.915, -0.14, 0.345, -0.183, 0.061, 0, -22.055, -68.038, -135.659, -30.660, -8.320, -5.133, 28.73, 0.20798, -0.56906, -0.06076, -0.79318,
 10:46:26.908,ed:35:33:d3:6c:f8, 2015-01-01 00:11:58.160, 0.317, 0.072, 0.939, -0.549, 0, 1.404, 4.296, -18.66, -158.467, -10.813, -13.367, -17.380, 28.54, 0.18912, -0.1517, -0.06683, -0.9678,
 10:46:26.908,ed:35:33:d3:6c:f8, 2015-01-01 00:11:58.160, 0.316, 0.067, 0.939, -0.183, -0.122, 1.221, 4.29, -18.66, -158.434, -10.813, -13.367, -17.380, 28.54, 0.18912, -0.1517, -0.06683, -0.9678,
 10:46:26.912,e3:ca:2d:fd:e0:8c, 2015-01-01 00:10:44.240, 0.956, -0.074, 0.351, -0.427, -0.122, -0.122, -12.222, -69.467, -174.985, -26.753, -9.887, -11.327, 25.44, -0.02301, -0.5704, 0.06143, -0.8187,
 10:46:26.912,e3:ca:2d:fd:e0:8c, 2015-01-01 00:10:44.240, 0.955, -0.074, 0.352, -0.488, -0.061, -0.061, -12.228, -69.472, -175.012, -26.753, -9.887, -11.327, 25.44, -0.02301, -0.5704, 0.06143, -0.8187,
 10:46:26.953,ed:40:fe:65:30:6c, 2015-01-01 00:11:05.535, 0.328, 0.057, 0.942, 0, 1.343, 0.61, 3.301, -19.6, -139.801, -12.287, -11.340, -8.853, 24.81, 0.34589, -0.15482, -0.08734, -0.92123,
 10:46:26.953,ed:40:fe:65:30:6c, 2015-01-01 00:11:05.535, 0.327, 0.056, 0.942, 0.183, 1.465, 0, 3.312, -19.567, -139.828, -12.287, -11.340, -8.853, 24.81, 0.34589, -0.15482, -0.08734, -0.92123,
 10:46:26.954,ed:35:33:d3:6c:f8, 2015-01-01 00:11:58.160, 0.316, 0.069, 0.939, 0.549, 0.305, 0.916, 4.296, -18.655, -158.395, -10.813, -13.367, -17.380, 28.54, 0.18912, -0.1517, -0.06683, -0.9678,
 10:46:26.954,ed:35:33:d3:6c:f8, 2015-01-01 00:11:58.160, 0.317, 0.072, 0.943, 0.854, 0.305, 0.732, 4.307, -18.649, -158.379, -10.813, -13.367, -17.380, 28.54, 0.18912, -0.1517, -0.06683, -0.9678,
 10:46:26.955,e3:ca:2d:fd:e0:8c, 2015-01-01 00:10:44.240, 0.954, -0.074, 0.352, -0.366, 0.061, -0.061, -12.233, -69.472, -175.04, -26.580, -10.560, -11.640, 25.44, -0.02301, -0.5704, 0.06143, -0.8187,
 10:46:26.955,e3:ca:2d:fd:e0:8c, 2015-01-01 00:10:44.240, 0.955, -0.076, 0.352, -0.305, 0.122, -0.122, -12.233, -69.472, -175.051, -26.580, -10.560, -11.640, 25.44, -0.02301, -0.5704, 0.06143, -0.8187,
 10:46:26.976,ed:40:fe:65:30:6c, 2015-01-01 00:11:05.535, 0.328, 0.058, 0.944, 0.549, 1.221, -0.061, 3.323, -19.539, -139.861, -11.907, -10.793, -9.367, 24.81, 0.34589, -0.15482, -0.08734, -0.92123,
 10:46:26.976,ed:40:fe:65:30:6c, 2015-01-01 00:11:05.535, 0.327, 0.061, 0.943, 0.305, 0.732, 0.061, 3.334, -19.523, -139.883, -11.907, -10.793, -9.367, 24.81, 0.34589, -0.15482, -0.08734, -0.92123,
 10:46:26.976,f6:90:cc:01:6d:25, 2015-01-01 00:11:14.515, 0.914, -0.139, 0.345, 0.061, 0.183, 0, -22.05, -68.033, -135.665, -30.660, -8.320, -5.133, 28.73, 0.20798, -0.56906, -0.06076, -0.79318,
 10:46:26.976,f6:90:cc:01:6d:25, 2015-01-01 00:11:14.515, 0.914, -0.14, 0.345, 0, 0.244, -0.061, -22.044, -68.027, -135.681, -30.660, -8.320, -5.133, 28.73, 0.20798, -0.56906, -0.06076, -0.79318,
 10:46:26.978,e3:ca:2d:fd:e0:8c, 2015-01-01 00:10:44.240, 0.956, -0.077, 0.351, -0.488, 0.244, -0.183, -12.228, -69.467, -175.073, -26.580, -10.560, -11.640, 25.44, -0.02554, -0.56973, 0.06314, -0.81894,
 10:46:26.978,e3:ca:2d:fd:e0:8c, 2015-01-01 00:10:44.240, 0.956, -0.076, 0.351, -0.488, 0.244, -0.122, -12.222, -69.461, -175.089, -26.580, -10.560, -11.640, 25.44, -0.02554, -0.56973, 0.06314, -0.81894,
 10:46:26.998,f6:90:cc:01:6d:25, 2015-01-01 00:11:14.515, 0.915, -0.142, 0.346, -0.244, 0.305, -0.122, -22.039, -68.016, -135.698, -30.487, -8.040, -5.960, 28.73, 0.20798, -0.56906, -0.06076, -0.79318,
 10:46:26.998,f6:90:cc:01:6d:25, 2015-01-01 00:11:14.515, 0.915, -0.14, 0.345, -0.122, 0.305, 0, -22.033, -68.011, -135.714, -30.487, -8.040, -5.960, 28.73, 0.20798, -0.56906, -0.06076, -0.79318,
 10:46:27.021,ed:35:33:d3:6c:f8, 2015-01-01 00:11:58.160, 0.315, 0.074, 0.939, 0.488, 0.305, 0.549, 4.318, -18.644, -158.368, -10.813, -13.367, -17.380, 28.54, 0.19083, -0.15213, -0.06674, -0.96741,
 10:46:27.021,ed:35:33:d3:6c:f8, 2015-01-01 00:11:58.160, 0.314, 0.074, 0.943, 0.61, 0.732, 0.61, 4.323, -18.627, -158.351, -10.813, -13.367, -17.380, 28.54, 0.19083, -0.15213, -0.06674, -0.96741,
 10:46:27.021,ed:40:fe:65:30:6c, 2015-01-01 00:11:05.535, 0.325, 0.06, 0.945, 0.244, 0.854, 0.305, 3.34, -19.506, -139.894, -11.907, -10.793, -9.367, 24.81, 0.34589, -0.15482, -0.08734, -0.92123,
 10:46:27.021,ed:40:fe:65:30:6c, 2015-01-01 00:11:05.535, 0.325, 0.062, 0.946, 0.305, 0.671, 0.366, 3.345, -19.484, -139.905, -11.907, -10.793, -9.367, 24.81, 0.34589, -0.15482, -0.08734, -0.92123,
 10:46:27.022,e3:ca:2d:fd:e0:8c, 2015-01-01 00:10:44.240, 0.957, -0.076, 0.349, -0.427, 0.244, 0, -12.228, -69.456, -175.111, -26.580, -10.560, -11.640, 25.44, -0.02554, -0.56973, 0.06314, -0.81894,
 10:46:27.022,e3:ca:2d:fd:e0:8c, 2015-01-01 00:10:44.240, 0.957, -0.076, 0.348, -0.305, 0.122, 0, -12.233, -69.456, -175.117, -26.580, -10.560, -11.640, 25.44, -0.02554, -0.56973, 0.06314, -0.81894,
 10:46:27.042,f6:90:cc:01:6d:25, 2015-01-01 00:11:14.515, 0.915, -0.139, 0.346, -0.122, 0.305, 0, -22.033, -68.005, -135.72, -30.487, -8.040, -5.960, 28.73, 0.20798, -0.56906, -0.06076, -0.79318,
 10:46:27.042,f6:90:cc:01:6d:25, 2015-01-01 00:11:14.515, 0.915, -0.141, 0.345, -0.122, 0.244, 0, -22.028, -68, -135.742, -30.487, -8.040, -5.960, 28.73, 0.20798, -0.56906, -0.06076, -0.79318,
 10:46:27.044,ed:35:33:d3:6c:f8, 2015-01-01 00:11:58.515, 0.315, 0.071, 0.944, 0.427, 0.549, 0.977, 4.334, -18.616, -158.324, -10.813, -13.367, -17.380, 28.54, 0.19083, -0.15213, -0.06674, -0.96741,
 10:46:27.044,ed:35:33:d3:6c:f8, 2015-01-01 00:11:58.515, 0.314, 0.073, 0.945, -0.122, 0.61, 0.793, 4.334, -18.605, -158.297, -10.813, -13.367, -17.380, 28.54, 0.19083, -0.15213, -0.06674, -0.96741,
 10:46:27.044,ed:40:fe:65:30:6c, 2015-01-01 00:11:05.535, 0.325, 0.06, 0.947, 0.183, 0.488, 0.305, 3.351, -19.473, -139.927, -11.907, -10.793, -9.367, 24.81, 0.34225, -0.14902, -0.08502, -0.92377,
 10:46:27.044,ed:40:fe:65:30:6c, 2015-01-01 00:11:05.535, 0.324, 0.059, 0.946, -0.061, 0.427, 0.122, 3.351, -19.462, -139.949, -11.907, -10.793, -9.367, 24.81, 0.34225, -0.14902, -0.08502, -0.92377,
 10:46:27.067,e3:ca:2d:fd:e0:8c, 2015-01-01 00:10:44.530, 0.957, -0.076, 0.349, -0.183, 0, 0, -12.233, -69.45, -175.15, -26.580, -10.560, -11.640, 25.44, -0.02554, -0.56973, 0.06314, -0.81894,
 10:46:27.067,e3:ca:2d:fd:e0:8c, 2015-01-01 00:10:44.530, 0.957, -0.076, 0.349, -0.183, -0.122, 0, -12.239, -69.456, -175.177, -26.580, -10.560, -11.640, 25.44, -0.02554, -0.56973, 0.06314, -0.81894,
 10:46:27.067,f6:90:cc:01:6d:25, 2015-01-01 00:11:14.515, 0.915, -0.141, 0.345, -0.061, 0.183, 0, -22.028, -67.994, -135.764, -30.487, -8.040, -5.960, 28.73, 0.20749, -0.56808, -0.05997, -0.79404,
 10:46:27.067,f6:90:cc:01:6d:25, 2015-01-01 00:11:14.515, 0.916, -0.139, 0.345, 0, 0.122, 0, -22.028, -67.989, -135.786, -30.487, -8.040, -5.960, 28.73, 0.20749, -0.56808, -0.05997, -0.79404,
 10:46:27.088,ed:40:fe:65:30:6c, 2015-01-01 00:11:05.535, 0.325, 0.062, 0.947, -0.183, 0.183, 0.244, 3.351, -19.451, -139.966, -11.907, -10.793, -9.367, 24.81, 0.34225, -0.14902, -0.08502, -0.92377,
 10:46:27.088,ed:40:fe:65:30:6c, 2015-01-01 00:11:05.535, 0.327, 0.062, 0.945, 0, -0.122, 0.305, 3.351, -19.451, -139.982, -11.907, -10.793, -9.367, 24.81, 0.34225, -0.14902, -0.08502, -0.92377,
 10:46:27.090,ed:35:33:d3:6c:f8, 2015-01-01 00:11:58.515, 0.314, 0.077, 0.945, -0.183, 0.366, 0.793, 4.329, -18.594, -158.275, -10.813, -13.367, -17.380, 28.54, 0.19083, -0.15213, -0.06674, -0.96741,
 10:46:27.090,ed:35:33:d3:6c:f8, 2015-01-01 00:11:58.515, 0.316, 0.075, 0.943, 0, 0.061, 0.732, 4.323, -18.589, -158.253, -10.813, -13.367, -17.380, 28.54, 0.19083, -0.15213, -0.06674, -0.96741,
 10:46:27.110,f6:90:cc:01:6d:25, 2015-01-01 00:11:14.515, 0.916, -0.139, 0.344, -0.061, 0, 0, -22.028, -67.989, -135.797, -30.487, -8.040, -5.960, 28.73, 0.20749, -0.56808, -0.05997, -0.79404,
 10:46:27.110,f6:90:cc:01:6d:25, 2015-01-01 00:11:14.515, 0.916, -0.141, 0.344, -0.122, -0.122, 0, -22.033, -67.989, -135.807, -30.487, -8.040, -5.960, 28.73, 0.20749, -0.56808, -0.05997, -0.79404,
 10:46:27.112,ed:35:33:d3:6c:f8, 2015-01-01 00:11:58.515, 0.316, 0.075, 0.939, 0.183, 0.061, 0.854, 4.318, -18.583, -158.231, -10.813, -13.367, -17.380, 28.54, 0.19083, -0.15213, -0.06674, -0.96741,
 10:46:27.112,ed:35:33:d3:6c:f8, 2015-01-01 00:11:58.515, 0.315, 0.073, 0.94, 0.427, 0.305, 0.916, 4.318, -18.583, -158.22, -10.813, -13.367, -17.380, 28.54, 0.19083, -0.15213, -0.06674, -0.96741,
 10:46:27.112,e3:ca:2d:fd:e0:8c, 2015-01-01 00:10:44.530, 0.957, -0.076, 0.35, -0.244, -0.122, 0, -12.244, -69.456, -175.188, -26.580, -10.560, -11.640, 25.44, -0.02554, -0.56973, 0.06314, -0.81894,
 10:46:27.112,e3:ca:2d:fd:e0:8c, 2015-01-01 00:10:44.530, 0.957, -0.076, 0.35, -0.183, -0.183, 0, -12.25, -69.461, -175.215, -26.580, -10.560, -11.640, 25.44, -0.02554, -0.56973, 0.06314, -0.81894,
 10:46:27.133,ed:40:fe:65:30:6c, 2015-01-01 00:11:05.890, 0.327, 0.062, 0.943, 0.061, -0.305, 0.305, 3.356, -19.451, -139.999, -11.907, -10.793, -9.367, 24.81, 0.34225, -0.14902, -0.08502, -0.92377,
 10:46:27.133,ed:40:fe:65:30:6c, 2015-01-01 00:11:05.890, 0.326, 0.061, 0.944, 0.183, 0, 0.427, 3.362, -19.446, -140.021, -11.907, -10.793, -9.367, 24.81, 0.34225, -0.14902, -0.08502, -0.92377,
 10:46:27.134,e3:ca:2d:fd:e0:8c, 2015-01-01 00:10:44.530, 0.956, -0.076, 0.351, -0.122, -0.061, 0, -12.255, -69.461, -175.232, -26.580, -10.560, -11.640, 25.44, -0.02554, -0.56973, 0.06314, -0.81894,
 10:46:27.134,e3:ca:2d:fd:e0:8c, 2015-01-01 00:10:44.530, 0.956, -0.075, 0.351, -0.122, 0, 0, -12.261, -69.461, -175.215, -26.580, -10.560, -11.640, 25.44, -0.02554, -0.56973, 0.06314, -0.81894,
 10:46:27.153,f6:90:cc:01:6d:25, 2015-01-01 00:11:14.850, 0.915, -0.141, 0.344, 0, -0.122, 0, -22.039, -67.989, -135.824, -30.487, -8.040, -5.960, 28.73, 0.20749, -0.56808, -0.05997, -0.79404,
 10:46:27.153,f6:90:cc:01:6d:25, 2015-01-01 00:11:14.850, 0.916, -0.139, 0.346, 0, 0.061, 0, -22.039, -67.989, -135.835, -30.487, -8.040, -5.960, 28.73, 0.20749, -0.56808, -0.05997, -0.79404,
 10:46:27.156,ed:35:33:d3:6c:f8, 2015-01-01 00:11:58.515, 0.316, 0.073, 0.941, 0.122, 0.366, 0.854, 4.323, -18.578, -158.214, -10.813, -13.367, -17.380, 28.54, 0.19083, -0.15213, -0.06674, -0.96741,
 10:46:27.156,ed:35:33:d3:6c:f8, 2015-01-01 00:11:58.515, 0.316, 0.074, 0.943, 0.061, 0.366, 0.732, 4.323, -18.567, -158.214, -10.813, -13.367, -17.380, 28.54, 0.19083, -0.15213, -0.06674, -0.96741,
 10:46:27.179,ed:40:fe:65:30:6c, 2015-01-01 00:11:05.890, 0.326, 0.061, 0.943, 0, 0.183, 0.488, 3.362, -19.44, -140.048, -11.907, -10.793, -9.367, 24.81, 0.34225, -0.14902, -0.08502, -0.92377,
 10:46:27.179,ed:40:fe:65:30:6c, 2015-01-01 00:11:05.890, 0.326, 0.061, 0.946, 0.061, 0.122, 0.427, 3.362, -19.435, -140.076, -11.907, -10.793, -9.367, 24.81, 0.34225, -0.14902, -0.08502, -0.92377,
 10:46:27.179,e3:ca:2d:fd:e0:8c, 2015-01-01 00:10:44.530, 0.958, -0.076, 0.351, -0.183, -0.061, 0, -12.261, -69.461, -175.21, -26.580, -10.560, -11.640, 25.44, -0.02554, -0.56973, 0.06314, -0.81894,
 10:46:27.179,e3:ca:2d:fd:e0:8c, 2015-01-01 00:10:44.530, 0.956, -0.076, 0.352, -0.061, -0.061, 0, -12.266, -69.467, -175.21, -26.580, -10.560, -11.640, 25.44, -0.02554, -0.56973, 0.06314, -0.81894,
 10:46:27.200,f6:90:cc:01:6d:25, 2015-01-01 00:11:14.850, 0.915, -0.142, 0.346, 0, -0.183, 0, -22.039, -67.983, -135.851, -30.487, -8.040, -5.960, 28.73, 0.20749, -0.56808, -0.05997, -0.79404,
 10:46:27.200,f6:90:cc:01:6d:25, 2015-01-01 00:11:14.850, 0.913, -0.142, 0.347, 0.305, -0.122, 0, -22.039, -67.989, -135.857, -30.487, -8.040, -5.960, 28.73, 0.20749, -0.56808, -0.05997, -0.79404,
 10:46:27.222,f6:90:cc:01:6d:25, 2015-01-01 00:11:14.850, 0.915, -0.139, 0.344, 0.061, 0, 0, -22.039, -67.989, -135.868, -30.487, -8.040, -5.960, 28.73, 0.20749, -0.56808, -0.05997, -0.79404,
 10:46:27.222,f6:90:cc:01:6d:25, 2015-01-01 00:11:14.850, 0.917, -0.138, 0.345, 0.122, 0.061, 0, -22.039, -67.983, -135.879, -30.487, -8.040, -5.960, 28.73, 0.20749, -0.56808, -0.05997, -0.79404,
 10:46:27.222,ed:40:fe:65:30:6c, 2015-01-01 00:11:05.890, 0.327, 0.059, 0.945, 0.244, -0.122, 0.427, 3.367, -19.429, -140.103, -11.907, -10.793, -9.367, 24.81, 0.34225, -0.14902, -0.08502, -0.92377,
 10:46:27.222,ed:40:fe:65:30:6c, 2015-01-01 00:11:05.890, 0.324, 0.06, 0.941, 0.061, -0.122, 0.732, 3.367, -19.429, -140.114, -11.907, -10.793, -9.367, 24.81, 0.34225, -0.14902, -0.08502, -0.92377,
 10:46:27.223,ed:35:33:d3:6c:f8, 2015-01-01 00:11:58.515, 0.314, 0.073, 0.941, -0.122, 0.244, 0.916, 4.318, -18.561, -158.214, -10.813, -13.367, -17.380, 28.54, 0.19083, -0.15213, -0.06674, -0.96741,
 10:46:27.223,ed:35:33:d3:6c:f8, 2015-01-01 00:11:58.515, 0.315, 0.072, 0.936, -0.244, 0.488, 1.038, 4.312, -18.556, -158.203, -10.813, -13.367, -17.380, 28.54, 0.19083, -0.15213, -0.06674, -0.96741,
 10:46:27.225,e3:ca:2d:fd:e0:8c, 2015-01-01 00:10:44.530, 0.954, -0.077, 0.351, 0.061, 0, 0, -12.266, -69.467, -175.215, -26.580, -10.560, -11.640, 25.44, -0.02554, -0.56973, 0.06314, -0.81894,
 10:46:27.225,e3:ca:2d:fd:e0:8c, 2015-01-01 00:10:44.530, 0.956, -0.075, 0.351, -0.061, -0.122, 0, -12.266, -69.467, -175.21, -26.580, -10.560, -11.640, 25.44, -0.02554, -0.56973, 0.06314, -0.81894,
 10:46:27.246,ed:40:fe:65:30:6c, 2015-01-01 00:11:05.890, 0.327, 0.062, 0.943, 0.061, 0.549, 0.549, 3.367, -19.413, -140.136, -11.907, -10.793, -9.367, 24.81, 0.34225, -0.14902, -0.08502, -0.92377,
 10:46:27.246,ed:40:fe:65:30:6c, 2015-01-01 00:11:05.890, 0.327, 0.062, 0.942, 0.122, 0.549, 0.244, 3.373, -19.396, -140.169, -11.907, -10.793, -9.367, 24.81, 0.34225, -0.14902, -0.08502, -0.92377,
 10:46:27.246,ed:35:33:d3:6c:f8, 2015-01-01 00:11:58.515, 0.317, 0.073, 0.939, -0.183, 1.343, 0.549, 4.301, -18.545, -158.192, -10.827, -13.827, -16.027, 28.54, 0.19083, -0.15213, -0.06674, -0.96741,
 10:46:27.246,ed:35:33:d3:6c:f8, 2015-01-01 00:11:58.515, 0.317, 0.075, 0.943, 0, 0.916, 0.305, 4.296, -18.517, -158.192, -10.827, -13.827, -16.027, 28.54, 0.19083, -0.15213, -0.06674, -0.96741,
 10:46:27.267,f6:90:cc:01:6d:25, 2015-01-01 00:11:14.850, 0.917, -0.14, 0.343, 0, 0, 0, -22.033, -67.983, -135.879, -30.487, -8.040, -5.960, 28.73, 0.20749, -0.56808, -0.05997, -0.79404,
 10:46:27.267,f6:90:cc:01:6d:25, 2015-01-01 00:11:14.850, 0.917, -0.14, 0.343, -0.427, 0, 0, -22.039, -67.978, -135.873, -30.487, -8.040, -5.960, 28.73, 0.20749, -0.56808, -0.05997, -0.79404,
 10:46:27.270,e3:ca:2d:fd:e0:8c, 2015-01-01 00:10:44.530, 0.958, -0.075, 0.351, -0.061, 0, 0, -12.266, -69.467, -175.199, -26.940, -10.107, -11.093, 25.44, -0.02554, -0.56973, 0.06314, -0.81894,
 10:46:27.270,e3:ca:2d:fd:e0:8c, 2015-01-01 00:10:44.530, 0.959, -0.076, 0.351, 0, 0.061, 0, -12.266, -69.467, -175.188, -26.940, -10.107, -11.093, 25.44, -0.02554, -0.56973, 0.06314, -0.81894,
 10:46:27.294,ed:35:33:d3:6c:f8, 2015-01-01 00:11:58.515, 0.316, 0.073, 0.946, -0.122, 0.427, 0.244, 4.296, -18.501, -158.198, -10.827, -13.827, -16.027, 28.54, 0.19083, -0.15213, -0.06674, -0.96741,
 10:46:27.294,ed:35:33:d3:6c:f8, 2015-01-01 00:11:58.515, 0.314, 0.07, 0.943, -0.366, 0.366, 0, 4.29, -18.495, -158.198, -10.827, -13.827, -16.027, 28.54, 0.19083, -0.15213, -0.06674, -0.96741,
 10:46:27.314,ed:40:fe:65:30:6c, 2015-01-01 00:11:05.890, 0.327, 0.062, 0.947, 0.122, -0.061, 0.366, 3.378, -19.396, -140.191, -11.907, -10.793, -9.367, 24.81, 0.34225, -0.14902, -0.08502, -0.92377,
 10:46:27.314,ed:40:fe:65:30:6c, 2015-01-01 00:11:05.890, 0.326, 0.06, 0.947, 0, -0.244, 0.183, 3.378, -19.396, -140.224, -11.907, -10.793, -9.367, 24.81, 0.34225, -0.14902, -0.08502, -0.92377,
 10:46:27.314,ed:35:33:d3:6c:f8, 2015-01-01 00:11:58.515, 0.312, 0.071, 0.942, -0.427, 0.549, -0.122, 4.285, -18.484, -158.198, -10.827, -13.827, -16.027, 28.54, 0.19238, -0.1507, -0.06665, -0.96735,
 10:46:27.314,ed:35:33:d3:6c:f8, 2015-01-01 00:11:58.515, 0.313, 0.074, 0.944, -0.305, 0.488, -0.183, 4.279, -18.474, -158.209, -10.827, -13.827, -16.027, 28.54, 0.19238, -0.1507, -0.06665, -0.96735,
 10:46:27.315,e3:ca:2d:fd:e0:8c, 2015-01-01 00:10:44.530, 0.958, -0.075, 0.349, -0.183, 0.305, 0, -12.266, -69.461, -175.188, -26.940, -10.107, -11.093, 25.44, -0.02652, -0.56964, 0.06396, -0.81891,
 10:46:27.315,e3:ca:2d:fd:e0:8c, 2015-01-01 00:10:44.530, 0.956, -0.075, 0.348, -0.183, 0.061, 0, -12.266, -69.456, -175.188, -26.940, -10.107, -11.093, 25.44, -0.02652, -0.56964, 0.06396, -0.81891,
 10:46:27.334,f6:90:cc:01:6d:25, 2015-01-01 00:11:14.850, 0.915, -0.139, 0.345, -0.244, 0, 0, -22.044, -67.978, -135.851, -30.487, -8.040, -5.960, 28.73, 0.20749, -0.56808, -0.05997, -0.79404,
 10:46:27.334,f6:90:cc:01:6d:25, 2015-01-01 00:11:14.850, 0.914, -0.141, 0.344, -0.122, 0, 0, -22.05, -67.978, -135.835, -30.487, -8.040, -5.960, 28.73, 0.20749, -0.56808, -0.05997, -0.79404,
 10:46:27.336,ed:40:fe:65:30:6c, 2015-01-01 00:11:05.890, 0.324, 0.06, 0.946, -0.061, -0.122, 0, 3.384, -19.396, -140.251, -11.813, -10.947, -9.220, 24.81, 0.34225, -0.14902, -0.08502, -0.92377,
 10:46:27.336,ed:40:fe:65:30:6c, 2015-01-01 00:11:05.890, 0.324, 0.061, 0.945, -0.061, 0, 0, 3.384, -19.391, -140.268, -11.813, -10.947, -9.220, 24.81, 0.34225, -0.14902, -0.08502, -0.92377,
 10:46:27.338,e3:ca:2d:fd:e0:8c, 2015-01-01 00:10:44.845, 0.956, -0.076, 0.348, -0.122, 0, 0, -12.266, -69.456, -175.188, -26.940, -10.107, -11.093, 25.44, -0.02652, -0.56964, 0.06396, -0.81891,
 10:46:27.338,e3:ca:2d:fd:e0:8c, 2015-01-01 00:10:44.845, 0.956, -0.077, 0.349, -0.061, -0.061, 0, -12.266, -69.461, -175.182, -26.940, -10.107, -11.093, 25.44, -0.02652, -0.56964, 0.06396, -0.81891,
 10:46:27.357,f6:90:cc:01:6d:25, 2015-01-01 00:11:14.850, 0.914, -0.142, 0.344, -0.122, -0.122, 0, -22.055, -67.978, -135.829, -30.267, -8.400, -5.420, 28.73, 0.20749, -0.56808, -0.05997, -0.79404,
 10:46:27.357,f6:90:cc:01:6d:25, 2015-01-01 00:11:14.850, 0.915, -0.142, 0.344, -0.061, -0.183, 0, -22.061, -67.978, -135.818, -30.267, -8.400, -5.420, 28.73, 0.20749, -0.56808, -0.05997, -0.79404,
 10:46:27.359,ed:35:33:d3:6c:f8, 2015-01-01 00:11:58.515, 0.312, 0.071, 0.943, -0.427, 0.366, -0.061, 4.274, -18.468, -158.214, -10.827, -13.827, -16.027, 28.54, 0.19238, -0.1507, -0.06665, -0.96735,
 10:46:27.359,ed:35:33:d3:6c:f8, 2015-01-01 00:11:58.515, 0.312, 0.068, 0.943, -0.488, 0.122, -0.122, 4.268, -18.457, -158.214, -10.827, -13.827, -16.027, 28.54, 0.19238, -0.1507, -0.06665, -0.96735,
 10:46:27.380,ed:40:fe:65:30:6c, 2015-01-01 00:11:05.890, 0.324, 0.06, 0.945, -0.061, -0.061, 0.122, 3.389, -19.385, -140.295, -11.813, -10.947, -9.220, 24.81, 0.34225, -0.14902, -0.08502, -0.92377,
 10:46:27.380,ed:40:fe:65:30:6c, 2015-01-01 00:11:05.890, 0.324, 0.058, 0.944, -0.183, -0.305, 0.183, 3.384, -19.391, -140.328, -11.813, -10.947, -9.220, 24.81, 0.34225, -0.14902, -0.08502, -0.92377,
 10:46:27.383,e3:ca:2d:fd:e0:8c, 2015-01-01 00:10:44.845, 0.956, -0.076, 0.35, -0.061, -0.061, 0, -12.272, -69.461, -175.182, -26.940, -10.107, -11.093, 25.44, -0.02652, -0.56964, 0.06396, -0.81891,
 10:46:27.383,e3:ca:2d:fd:e0:8c, 2015-01-01 00:10:44.845, 0.956, -0.076, 0.351, -0.122, -0.122, 0, -12.272, -69.461, -175.177, -26.940, -10.107, -11.093, 25.44, -0.02652, -0.56964, 0.06396, -0.81891,
 10:46:27.404,f6:90:cc:01:6d:25, 2015-01-01 00:11:14.850, 0.915, -0.141, 0.345, -0.061, -0.183, 0, -22.066, -67.983, -135.807, -30.267, -8.400, -5.420, 28.73, 0.20749, -0.56808, -0.05997, -0.79404,
 10:46:27.404,f6:90:cc:01:6d:25, 2015-01-01 00:11:14.850, 0.914, -0.141, 0.344, -0.244, -0.122, 0, -22.072, -67.983, -135.791, -30.267, -8.400, -5.420, 28.73, 0.20749, -0.56808, -0.05997, -0.79404,
 10:46:27.406,ed:40:fe:65:30:6c, 2015-01-01 00:11:05.890, 0.326, 0.057, 0.944, -0.183, -0.366, 0, 3.384, -19.391, -140.361, -11.813, -10.947, -9.220, 24.81, 0.33899, -0.14844, -0.0845, -0.92511,
 10:46:27.406,ed:40:fe:65:30:6c, 2015-01-01 00:11:05.890, 0.324, 0.06, 0.943, -0.305, -0.122, -0.244, 3.384, -19.385, -140.411, -11.813, -10.947, -9.220, 24.81, 0.33899, -0.14844, -0.0845, -0.92511,
 10:46:27.406,ed:35:33:d3:6c:f8, 2015-01-01 00:11:58.850, 0.313, 0.068, 0.941, -0.488, 0.061, -0.427, 4.263, -18.457, -158.214, -10.827, -13.827, -16.027, 28.54, 0.19238, -0.1507, -0.06665, -0.96735,
 10:46:27.406,ed:35:33:d3:6c:f8, 2015-01-01 00:11:58.850, 0.314, 0.069, 0.94, -0.244, 0.305, -0.671, 4.257, -18.452, -158.22, -10.827, -13.827, -16.027, 28.54, 0.19238, -0.1507, -0.06665, -0.96735,
 10:46:27.425,f6:90:cc:01:6d:25, 2015-01-01 00:11:14.850, 0.916, -0.141, 0.345, -0.305, -0.061, 0, -22.083, -67.983, -135.775, -30.267, -8.400, -5.420, 28.73, 0.20703, -0.56812, -0.05939, -0.79419,
 10:46:27.425,f6:90:cc:01:6d:25, 2015-01-01 00:11:14.850, 0.915, -0.141, 0.347, -0.305, -0.122, 0, -22.094, -67.983, -135.775, -30.267, -8.400, -5.420, 28.73, 0.20703, -0.56812, -0.05939, -0.79419,
 10:46:27.427,e3:ca:2d:fd:e0:8c, 2015-01-01 00:10:44.845, 0.956, -0.076, 0.351, -0.183, -0.122, 0, -12.277, -69.467, -175.177, -26.940, -10.107, -11.093, 25.44, -0.02652, -0.56964, 0.06396, -0.81891,
 10:46:27.427,e3:ca:2d:fd:e0:8c, 2015-01-01 00:10:44.845, 0.956, -0.076, 0.351, -0.183, -0.061, 0, -12.283, -69.467, -175.172, -26.940, -10.107, -11.093, 25.44, -0.02652, -0.56964, 0.06396, -0.81891,
 10:46:27.450,ed:35:33:d3:6c:f8, 2015-01-01 00:11:58.850, 0.312, 0.071, 0.941, 0, 0.427, -0.732, 4.257, -18.446, -158.225, -10.827, -13.827, -16.027, 28.54, 0.19238, -0.1507, -0.06665, -0.96735,
 10:46:27.450,ed:35:33:d3:6c:f8, 2015-01-01 00:11:58.850, 0.312, 0.07, 0.942, -0.122, 0.244, -0.671, 4.263, -18.435, -158.236, -10.827, -13.827, -16.027, 28.54, 0.19238, -0.1507, -0.06665, -0.96735,
 10:46:27.469,f6:90:cc:01:6d:25, 2015-01-01 00:11:14.850, 0.915, -0.142, 0.345, -0.244, 0, 0, -22.099, -67.983, -135.786, -30.267, -8.400, -5.420, 28.73, 0.20703, -0.56812, -0.05939, -0.79419,
 10:46:27.469,f6:90:cc:01:6d:25, 2015-01-01 00:11:14.850, 0.914, -0.143, 0.345, -0.061, -0.061, 0, -22.11, -67.983, -135.786, -30.267, -8.400, -5.420, 28.73, 0.20703, -0.56812, -0.05939, -0.79419,
 10:46:27.469,ed:40:fe:65:30:6c, 2015-01-01 00:11:05.890, 0.323, 0.06, 0.943, -0.366, 0.122, -0.427, 3.384, -19.38, -140.455, -11.813, -10.947, -9.220, 24.81, 0.33899, -0.14844, -0.0845, -0.92511,
 10:46:27.469,ed:40:fe:65:30:6c, 2015-01-01 00:11:05.890, 0.323, 0.06, 0.946, -0.732, 0.366, -0.671, 3.378, -19.369, -140.51, -11.813, -10.947, -9.220, 24.81, 0.33899, -0.14844, -0.0845, -0.92511,
 10:46:27.472,e3:ca:2d:fd:e0:8c, 2015-01-01 00:10:44.845, 0.956, -0.076, 0.353, -0.244, 0, 0, -12.283, -69.467, -175.172, -26.940, -10.107, -11.093, 25.44, -0.02652, -0.56964, 0.06396, -0.81891,
 10:46:27.472,e3:ca:2d:fd:e0:8c, 2015-01-01 00:10:44.845, 0.956, -0.076, 0.351, -0.244, 0, 0, -12.288, -69.467, -175.172, -26.940, -10.107, -11.093, 25.44, -0.02652, -0.56964, 0.06396, -0.81891,
 10:46:27.494,ed:40:fe:65:30:6c, 2015-01-01 00:11:06.250, 0.322, 0.061, 0.944, -0.549, 0.549, -0.61, 3.373, -19.358, -140.565, -11.813, -10.947, -9.220, 24.81, 0.33899, -0.14844, -0.0845, -0.92511,
 10:46:27.494,ed:40:fe:65:30:6c, 2015-01-01 00:11:06.250, 0.318, 0.063, 0.946, -0.244, 0.732, -0.244, 3.373, -19.336, -140.609, -11.813, -10.947, -9.220, 24.81, 0.33899, -0.14844, -0.0845, -0.92511,
 10:46:27.494,ed:35:33:d3:6c:f8, 2015-01-01 00:11:58.850, 0.312, 0.071, 0.942, -0.305, 0.244, -0.916, 4.263, -18.43, -158.264, -10.827, -13.827, -16.027, 28.54, 0.19238, -0.1507, -0.06665, -0.96735,
 10:46:27.494,ed:35:33:d3:6c:f8, 2015-01-01 00:11:58.850, 0.31, 0.075, 0.941, 0, 0.244, -0.61, 4.268, -18.419, -158.291, -10.827, -13.827, -16.027, 28.54, 0.19238, -0.1507, -0.06665, -0.96735,
 10:46:27.514,f6:90:cc:01:6d:25, 2015-01-01 00:11:15.210, 0.914, -0.144, 0.344, -0.244, -0.061, 0, -22.11, -67.983, -135.786, -30.267, -8.400, -5.420, 28.73, 0.20703, -0.56812, -0.05939, -0.79419,
 10:46:27.514,f6:90:cc:01:6d:25, 2015-01-01 00:11:15.210, 0.915, -0.142, 0.346, -0.427, 0.122, 0, -22.121, -67.978, -135.78, -30.267, -8.400, -5.420, 28.73, 0.20703, -0.56812, -0.05939, -0.79419,
 10:46:27.516,ed:35:33:d3:6c:f8, 2015-01-01 00:11:58.850, 0.307, 0.074, 0.943, 0.244, 0.427, -0.61, 4.274, -18.413, -158.313, -10.827, -13.827, -16.027, 28.54, 0.19238, -0.1507, -0.06665, -0.96735,
 10:46:27.516,ed:35:33:d3:6c:f8, 2015-01-01 00:11:58.850, 0.305, 0.074, 0.948, 0.183, 0.549, -0.732, 4.279, -18.402, -158.346, -10.827, -13.827, -16.027, 28.54, 0.19238, -0.1507, -0.06665, -0.96735,
 10:46:27.518,e3:ca:2d:fd:e0:8c, 2015-01-01 00:10:44.845, 0.956, -0.077, 0.351, -0.122, 0.061, 0, -12.294, -69.467, -175.166, -26.940, -10.107, -11.093, 25.44, -0.02652, -0.56964, 0.06396, -0.81891,
 10:46:27.518,e3:ca:2d:fd:e0:8c, 2015-01-01 00:10:44.845, 0.956, -0.077, 0.35, -0.122, 0.122, 0, -12.294, -69.461, -175.166, -26.940, -10.107, -11.093, 25.44, -0.02652, -0.56964, 0.06396, -0.81891,
 10:46:27.538,ed:40:fe:65:30:6c, 2015-01-01 00:11:06.250, 0.317, 0.062, 0.95, -0.305, 1.404, -0.488, 3.373, -19.314, -140.647, -11.813, -10.947, -9.220, 24.81, 0.33899, -0.14844, -0.0845, -0.92511,
 10:46:27.538,ed:40:fe:65:30:6c, 2015-01-01 00:11:06.250, 0.316, 0.064, 0.948, -0.977, 1.404, -0.61, 3.367, -19.281, -140.674, -11.813, -10.947, -9.220, 24.81, 0.33899, -0.14844, -0.0845, -0.92511,
 10:46:27.541,e3:ca:2d:fd:e0:8c, 2015-01-01 00:10:44.845, 0.957, -0.076, 0.35, -0.122, 0, 0, -12.294, -69.461, -175.166, -26.707, -10.200, -11.480, 25.44, -0.02652, -0.56964, 0.06396, -0.81891,
 10:46:27.541,e3:ca:2d:fd:e0:8c, 2015-01-01 00:10:44.845, 0.956, -0.075, 0.351, -0.183, -0.061, 0, -12.299, -69.461, -175.166, -26.707, -10.200, -11.480, 25.44, -0.02652, -0.56964, 0.06396, -0.81891,
 10:46:27.560,f6:90:cc:01:6d:25, 2015-01-01 00:11:15.210, 0.915, -0.14, 0.347, -0.427, 0.183, -0.305, -22.121, -67.972, -135.775, -30.267, -8.400, -5.420, 28.73, 0.20703, -0.56812, -0.05939, -0.79419,
 10:46:27.560,f6:90:cc:01:6d:25, 2015-01-01 00:11:15.210, 0.917, -0.136, 0.344, -0.671, -0.061, -0.244, -22.121, -67.972, -135.769, -30.267, -8.400, -5.420, 28.73, 0.20703, -0.56812, -0.05939, -0.79419,
 10:46:27.584,ed:40:fe:65:30:6c, 2015-01-01 00:11:06.250, 0.327, 0.075, 0.947, -1.77, 1.404, -0.671, 3.351, -19.248, -140.713, -11.813, -10.947, -9.220, 24.81, 0.33899, -0.14844, -0.0845, -0.92511,
 10:46:27.584,ed:40:fe:65:30:6c, 2015-01-01 00:11:06.250, 0.32, 0.075, 0.934, -1.892, 1.404, -0.305, 3.329, -19.21, -140.735, -11.813, -10.947, -9.220, 24.81, 0.33899, -0.14844, -0.0845, -0.92511,
 10:46:27.585,e3:ca:2d:fd:e0:8c, 2015-01-01 00:10:44.845, 0.956, -0.073, 0.352, -0.427, 0, 0, -12.305, -69.461, -175.161, -26.707, -10.200, -11.480, 25.44, -0.02652, -0.56964, 0.06396, -0.81891,
 10:46:27.585,e3:ca:2d:fd:e0:8c, 2015-01-01 00:10:44.845, 0.955, -0.074, 0.352, -0.977, 0.061, 0, -12.316, -69.461, -175.161, -26.707, -10.200, -11.480, 25.44, -0.02652, -0.56964, 0.06396, -0.81891,
 10:46:27.605,ed:40:fe:65:30:6c, 2015-01-01 00:11:06.250, 0.315, 0.058, 0.945, -1.953, 3.662, 0.305, 3.296, -19.166, -140.746, -11.813, -10.947, -9.220, 24.81, 0.33899, -0.14844, -0.0845, -0.92511,
 10:46:27.605,ed:40:fe:65:30:6c, 2015-01-01 00:11:06.250, 0.332, 0.064, 0.945, -2.136, 2.258, 0.366, 3.263, -19.1, -140.751, -11.813, -10.947, -9.220, 24.81, 0.33899, -0.14844, -0.0845, -0.92511,
 10:46:27.605,f6:90:cc:01:6d:25, 2015-01-01 00:11:15.210, 0.914, -0.134, 0.342, -1.587, -0.366, -0.122, -22.137, -67.978, -135.747, -30.267, -8.400, -5.420, 28.73, 0.20703, -0.56812, -0.05939, -0.79419,
 10:46:27.605,f6:90:cc:01:6d:25, 2015-01-01 00:11:15.210, 0.913, -0.133, 0.339, -1.953, -0.305, 0.122, -22.181, -67.983, -135.731, -30.267, -8.400, -5.420, 28.73, 0.20703, -0.56812, -0.05939, -0.79419,
 10:46:27.607,ed:35:33:d3:6c:f8, 2015-01-01 00:11:58.850, 0.31, 0.078, 0.948, -0.244, -0.488, -0.488, 4.29, -18.391, -158.373, -10.827, -13.827, -16.027, 28.54, 0.19238, -0.1507, -0.06665, -0.96735,
 10:46:27.607,ed:35:33:d3:6c:f8, 2015-01-01 00:11:58.850, 0.318, 0.093, 0.94, -0.793, -1.587, -0.061, 4.285, -18.402, -158.395, -10.827, -13.827, -16.027, 28.54, 0.19238, -0.1507, -0.06665, -0.96735,
 10:46:27.628,f6:90:cc:01:6d:25, 2015-01-01 00:11:15.210, 0.917, -0.137, 0.343, -1.465, -0.671, 0.366, -22.231, -67.989, -135.709, -30.267, -8.400, -5.420, 28.73, 0.20703, -0.56812, -0.05939, -0.79419,
 10:46:27.628,f6:90:cc:01:6d:25, 2015-01-01 00:11:15.210, 0.918, -0.139, 0.342, -1.282, -0.854, 0.549, -22.291, -68, -135.67, -30.267, -8.400, -5.420, 28.73, 0.20703, -0.56812, -0.05939, -0.79419,
 10:46:27.630,e3:ca:2d:fd:e0:8c, 2015-01-01 00:10:44.845, 0.957, -0.073, 0.349, -1.282, 0.366, 0, -12.332, -69.456, -175.155, -26.707, -10.200, -11.480, 25.44, -0.02655, -0.56964, 0.06412, -0.81891,
 10:46:27.630,e3:ca:2d:fd:e0:8c, 2015-01-01 00:10:44.845, 0.959, -0.075, 0.347, -1.282, 0.427, 0, -12.349, -69.45, -175.155, -26.707, -10.200, -11.480, 25.44, -0.02655, -0.56964, 0.06412, -0.81891,
 10:46:27.630,ed:35:33:d3:6c:f8, 2015-01-01 00:11:58.850, 0.311, 0.081, 0.93, -1.343, -3.54, 0.061, 4.274, -18.441, -158.412, -10.520, -13.700, -16.107, 28.54, 0.19238, -0.1507, -0.06665, -0.96735,
 10:46:27.630,ed:35:33:d3:6c:f8, 2015-01-01 00:11:58.850, 0.318, 0.075, 0.945, -2.625, -3.113, 0.61, 4.246, -18.506, -158.417, -10.520, -13.700, -16.107, 28.54, 0.19238, -0.1507, -0.06665, -0.96735,
 10:46:27.650,ed:40:fe:65:30:6c, 2015-01-01 00:11:06.250, 0.319, 0.059, 0.933, -1.953, 2.747, 1.221, 3.224, -19.045, -140.751, -11.813, -10.947, -9.220, 24.81, 0.33899, -0.14844, -0.0845, -0.92511,
 10:46:27.650,ed:40:fe:65:30:6c, 2015-01-01 00:11:06.250, 0.315, 0.059, 0.954, -1.831, 1.648, 0.793, 3.181, -18.995, -140.735, -11.813, -10.947, -9.220, 24.81, 0.33899, -0.14844, -0.0845, -0.92511,
 10:46:27.672,f6:90:cc:01:6d:25, 2015-01-01 00:11:15.210, 0.917, -0.137, 0.345, -1.465, -0.793, 0.793, -22.357, -68.011, -135.615, -30.267, -8.400, -5.420, 28.73, 0.20703, -0.56812, -0.05939, -0.79419,
 10:46:27.672,f6:90:cc:01:6d:25, 2015-01-01 00:11:15.210, 0.918, -0.131, 0.347, -2.197, -0.854, 1.038, -22.445, -68.016, -135.56, -30.267, -8.400, -5.420, 28.73, 0.20703, -0.56812, -0.05939, -0.79419,
 10:46:27.673,ed:35:33:d3:6c:f8, 2015-01-01 00:11:58.850, 0.329, 0.078, 0.937, -3.052, -3.418, 0.977, 4.197, -18.572, -158.412, -10.520, -13.700, -16.107, 28.54, 0.19238, -0.1507, -0.06665, -0.96735,
 10:46:27.673,ed:35:33:d3:6c:f8, 2015-01-01 00:11:58.850, 0.32, 0.07, 0.931, -2.563, -6.165, 2.075, 4.136, -18.649, -158.384, -10.520, -13.700, -16.107, 28.54, 0.19238, -0.1507, -0.06665, -0.96735,
 10:46:27.675,e3:ca:2d:fd:e0:8c, 2015-01-01 00:10:45.155, 0.959, -0.075, 0.348, -1.038, 0.366, 0, -12.365, -69.439, -175.166, -26.707, -10.200, -11.480, 25.44, -0.02655, -0.56964, 0.06412, -0.81891,
 10:46:27.675,e3:ca:2d:fd:e0:8c, 2015-01-01 00:10:45.155, 0.956, -0.071, 0.348, -1.099, 0.183, 0.366, -12.393, -69.434, -175.144, -26.707, -10.200, -11.480, 25.44, -0.02655, -0.56964, 0.06412, -0.81891,
 10:46:27.697,ed:35:33:d3:6c:f8, 2015-01-01 00:11:58.850, 0.319, 0.064, 0.947, -1.709, -2.441, 0.61, 4.087, -18.754, -158.362, -10.520, -13.700, -16.107, 28.54, 0.19077, -0.15344, -0.06506, -0.96732,
 10:46:27.697,ed:35:33:d3:6c:f8, 2015-01-01 00:11:58.850, 0.322, 0.067, 0.951, -1.465, -1.709, -0.916, 4.059, -18.798, -158.351, -10.520, -13.700, -16.107, 28.54, 0.19077, -0.15344, -0.06506, -0.96732,
 10:46:27.697,ed:40:fe:65:30:6c, 2015-01-01 00:11:06.250, 0.317, 0.057, 0.955, -2.136, 0.671, -0.854, 3.148, -18.968, -140.746, -11.813, -10.947, -9.220, 24.81, 0.33899, -0.14844, -0.0845, -0.92511,
 10:46:27.697,ed:40:fe:65:30:6c, 2015-01-01 00:11:06.250, 0.323, 0.059, 0.95, -0.854, -0.671, -1.282, 3.126, -18.957, -140.784, -11.813, -10.947, -9.220, 24.81, 0.33899, -0.14844, -0.0845, -0.92511,
 10:46:27.720,e3:ca:2d:fd:e0:8c, 2015-01-01 00:10:45.155, 0.957, -0.068, 0.352, -1.526, 0, 0.61, -12.442, -69.434, -175.111, -26.707, -10.200, -11.480, 25.44, -0.02655, -0.56964, 0.06412, -0.81891,
 10:46:27.720,e3:ca:2d:fd:e0:8c, 2015-01-01 00:10:45.155, 0.958, -0.069, 0.353, -2.075, 0, 0.671, -12.508, -69.434, -175.089, -26.707, -10.200, -11.480, 25.44, -0.02655, -0.56964, 0.06412, -0.81891,
 10:46:27.739,f6:90:cc:01:6d:25, 2015-01-01 00:11:15.210, 0.917, -0.133, 0.344, -2.991, -0.732, 1.099, -22.549, -68.022, -135.494, -30.507, -8.367, -5.627, 28.73, 0.20703, -0.56812, -0.05939, -0.79419,
 10:46:27.739,f6:90:cc:01:6d:25, 2015-01-01 00:11:15.210, 0.917, -0.14, 0.341, -3.479, -0.366, 0.977, -22.659, -68.022, -135.434, -30.507, -8.367, -5.627, 28.73, 0.20703, -0.56812, -0.05939, -0.79419,
 10:46:27.744,e3:ca:2d:fd:e0:8c, 2015-01-01 00:10:45.155, 0.957, -0.073, 0.354, -2.197, 0.366, 0.671, -12.574, -69.423, -175.073, -26.707, -10.200, -11.480, 25.44, -0.02655, -0.56964, 0.06412, -0.81891,
 10:46:27.744,e3:ca:2d:fd:e0:8c, 2015-01-01 00:10:45.155, 0.958, -0.075, 0.352, -2.075, 0.854, 0.671, -12.629, -69.406, -175.078, -26.707, -10.200, -11.480, 25.44, -0.02655, -0.56964, 0.06412, -0.81891,
 10:46:27.763,ed:40:fe:65:30:6c, 2015-01-01 00:11:06.250, 0.326, 0.053, 0.946, -0.732, 0, -1.16, 3.126, -18.962, -140.845, -12.007, -11.060, -9.720, 24.81, 0.33899, -0.14844, -0.0845, -0.92511,
 10:46:27.763,ed:40:fe:65:30:6c, 2015-01-01 00:11:06.250, 0.326, 0.05, 0.944, -0.977, 1.953, -1.16, 3.126, -18.946, -140.9, -12.007, -11.060, -9.720, 24.81, 0.33899, -0.14844, -0.0845, -0.92511,
 10:46:27.763,f6:90:cc:01:6d:25, 2015-01-01 00:11:15.210, 0.917, -0.145, 0.339, -2.747, 0.183, 0.732, -22.753, -68.016, -135.379, -30.507, -8.367, -5.627, 28.73, 0.20636, -0.56934, -0.05692, -0.79367,
 10:46:27.763,f6:90:cc:01:6d:25, 2015-01-01 00:11:15.210, 0.918, -0.148, 0.34, -2.441, 0.793, 0.427, -22.813, -68.005, -135.341, -30.507, -8.367, -5.627, 28.73, 0.20636, -0.56934, -0.05692, -0.79367,
 10:46:27.764,ed:35:33:d3:6c:f8, 2015-01-01 00:11:58.850, 0.328, 0.07, 0.94, -0.549, -2.319, -0.977, 4.043, -18.831, -158.368, -10.520, -13.700, -16.107, 28.54, 0.19077, -0.15344, -0.06506, -0.96732,
 10:46:27.764,ed:35:33:d3:6c:f8, 2015-01-01 00:11:58.850, 0.332, 0.062, 0.928, -0.488, -1.953, -0.488, 4.043, -18.869, -158.39, -10.520, -13.700, -16.107, 28.54, 0.19077, -0.15344, -0.06506, -0.96732,
 10:46:27.784,ed:40:fe:65:30:6c, 2015-01-01 00:11:06.250, 0.321, 0.054, 0.944, -1.038, 2.075, -2.075, 3.12, -18.902, -140.955, -12.007, -11.060, -9.720, 24.81, 0.33371, -0.14575, -0.08017, -0.92783,
 10:46:27.784,ed:40:fe:65:30:6c, 2015-01-01 00:11:06.250, 0.316, 0.052, 0.948, -0.854, 0.732, -2.686, 3.115, -18.864, -141.021, -12.007, -11.060, -9.720, 24.81, 0.33371, -0.14575, -0.08017, -0.92783,
 10:46:27.786,ed:35:33:d3:6c:f8, 2015-01-01 00:11:59.230, 0.329, 0.06, 0.936, -0.488, -0.244, -1.038, 4.043, -18.896, -158.406, -10.520, -13.700, -16.107, 28.54, 0.19077, -0.15344, -0.06506, -0.96732,
 10:46:27.786,ed:35:33:d3:6c:f8, 2015-01-01 00:11:59.230, 0.328, 0.063, 0.941, -0.305, -0.305, -2.441, 4.043, -18.902, -158.434, -10.520, -13.700, -16.107, 28.54, 0.19077, -0.15344, -0.06506, -0.96732,
 10:46:27.788,e3:ca:2d:fd:e0:8c, 2015-01-01 00:10:45.155, 0.958, -0.08, 0.351, -1.831, 1.16, 0.549, -12.673, -69.384, -175.084, -26.707, -10.200, -11.480, 25.44, -0.02655, -0.56964, 0.06412, -0.81891,
 10:46:27.788,e3:ca:2d:fd:e0:8c, 2015-01-01 00:10:45.155, 0.955, -0.083, 0.35, -1.526, 1.221, 0.305, -12.706, -69.362, -175.106, -26.707, -10.200, -11.480, 25.44, -0.02655, -0.56964, 0.06412, -0.81891,
 10:46:27.809,ed:35:33:d3:6c:f8, 2015-01-01 00:11:59.230, 0.32, 0.063, 0.938, 0.183, -0.366, -2.869, 4.059, -18.902, -158.489, -10.520, -13.700, -16.107, 28.54, 0.19077, -0.15344, -0.06506, -0.96732,
 10:46:27.809,ed:35:33:d3:6c:f8, 2015-01-01 00:11:59.230, 0.318, 0.063, 0.946, 0.366, 1.16, -2.747, 4.087, -18.902, -158.538, -10.520, -13.700, -16.107, 28.54, 0.19077, -0.15344, -0.06506, -0.96732,
 10:46:27.830,f6:90:cc:01:6d:25, 2015-01-01 00:11:15.210, 0.916, -0.152, 0.339, -2.38, 0.732, 0.244, -22.852, -67.989, -135.308, -30.507, -8.367, -5.627, 28.73, 0.20636, -0.56934, -0.05692, -0.79367,
 10:46:27.830,f6:90:cc:01:6d:25, 2015-01-01 00:11:15.210, 0.914, -0.153, 0.344, -2.319, 0.488, 0, -22.89, -67.978, -135.297, -30.507, -8.367, -5.627, 28.73, 0.20636, -0.56934, -0.05692, -0.79367,
 10:46:27.830,ed:40:fe:65:30:6c, 2015-01-01 00:11:06.250, 0.312, 0.049, 0.948, -0.549, -0.122, -2.319, 3.12, -18.853, -141.086, -12.007, -11.060, -9.720, 24.81, 0.33371, -0.14575, -0.08017, -0.92783,
 10:46:27.830,ed:40:fe:65:30:6c, 2015-01-01 00:11:06.250, 0.311, 0.055, 0.957, -0.305, -0.427, -2.441, 3.131, -18.853, -141.152, -12.007, -11.060, -9.720, 24.81, 0.33371, -0.14575, -0.08017, -0.92783,
 10:46:27.832,e3:ca:2d:fd:e0:8c, 2015-01-01 00:10:45.155, 0.953, -0.083, 0.351, -1.709, 1.16, 0.244, -12.733, -69.335, -175.139, -26.707, -10.200, -11.480, 25.44, -0.02655, -0.56964, 0.06412, -0.81891,
 10:46:27.832,e3:ca:2d:fd:e0:8c, 2015-01-01 00:10:45.155, 0.955, -0.083, 0.35, -2.808, 0.793, 0.061, -12.772, -69.318, -175.155, -26.707, -10.200, -11.480, 25.44, -0.02655, -0.56964, 0.06412, -0.81891,
 10:46:27.852,f6:90:cc:01:6d:25, 2015-01-01 00:11:15.545, 0.913, -0.145, 0.341, -2.991, 0.427, 0.183, -22.939, -67.967, -135.291, -30.507, -8.367, -5.627, 28.73, 0.20636, -0.56934, -0.05692, -0.79367,
 10:46:27.852,f6:90:cc:01:6d:25, 2015-01-01 00:11:15.545, 0.916, -0.148, 0.341, -3.479, 0, 0.488, -23.016, -67.961, -135.269, -30.507, -8.367, -5.627, 28.73, 0.20636, -0.56934, -0.05692, -0.79367,
 10:46:27.852,ed:40:fe:65:30:6c, 2015-01-01 00:11:06.630, 0.318, 0.061, 0.953, -0.488, -1.709, -2.075, 3.142, -18.858, -141.224, -12.007, -11.060, -9.720, 24.81, 0.33371, -0.14575, -0.08017, -0.92783,
 10:46:27.852,ed:40:fe:65:30:6c, 2015-01-01 00:11:06.630, 0.322, 0.06, 0.95, -1.343, -2.014, -1.526, 3.148, -18.891, -141.29, -12.007, -11.060, -9.720, 24.81, 0.33371, -0.14575, -0.08017, -0.92783,
 10:46:27.855,ed:35:33:d3:6c:f8, 2015-01-01 00:11:59.230, 0.318, 0.074, 0.95, 0, 1.343, -2.747, 4.109, -18.875, -158.593, -10.520, -13.700, -16.107, 28.54, 0.19077, -0.15344, -0.06506, -0.96732,
 10:46:27.855,ed:35:33:d3:6c:f8, 2015-01-01 00:11:59.230, 0.324, 0.076, 0.946, -0.427, 0.427, -2.502, 4.12, -18.847, -158.637, -10.520, -13.700, -16.107, 28.54, 0.19077, -0.15344, -0.06506, -0.96732,
 10:46:27.874,f6:90:cc:01:6d:25, 2015-01-01 00:11:15.545, 0.917, -0.155, 0.342, -3.174, -0.305, 0.488, -23.104, -67.961, -135.242, -30.507, -8.367, -5.627, 28.73, 0.20636, -0.56934, -0.05692, -0.79367,
 10:46:27.874,f6:90:cc:01:6d:25, 2015-01-01 00:11:15.545, 0.917, -0.154, 0.341, -2.625, -0.183, 0.549, -23.192, -67.956, -135.214, -30.507, -8.367, -5.627, 28.73, 0.20636, -0.56934, -0.05692, -0.79367,
 10:46:27.876,ed:35:33:d3:6c:f8, 2015-01-01 00:11:59.230, 0.324, 0.072, 0.938, -1.16, -0.427, -2.014, 4.125, -18.842, -158.665, -10.520, -13.700, -16.107, 28.54, 0.19077, -0.15344, -0.06506, -0.96732,
 10:46:27.876,ed:35:33:d3:6c:f8, 2015-01-01 00:11:59.230, 0.326, 0.065, 0.93, -1.526, -0.732, -1.404, 4.114, -18.847, -158.687, -10.520, -13.700, -16.107, 28.54, 0.19077, -0.15344, -0.06506, -0.96732,
 10:46:27.878,e3:ca:2d:fd:e0:8c, 2015-01-01 00:10:45.155, 0.956, -0.086, 0.349, -2.808, 0.671, 0.061, -12.821, -69.307, -175.133, -26.767, -9.927, -10.800, 25.44, -0.02655, -0.56964, 0.06412, -0.81891,
 10:46:27.878,e3:ca:2d:fd:e0:8c, 2015-01-01 00:10:45.155, 0.958, -0.087, 0.351, -2.441, 0.488, -0.061, -12.865, -69.296, -175.128, -26.767, -9.927, -10.800, 25.44, -0.02655, -0.56964, 0.06412, -0.81891,
 10:46:27.898,ed:40:fe:65:30:6c, 2015-01-01 00:11:06.630, 0.324, 0.053, 0.947, -1.953, -0.916, -1.16, 3.131, -18.918, -141.35, -12.007, -11.060, -9.720, 24.81, 0.33371, -0.14575, -0.08017, -0.92783,
 10:46:27.898,ed:40:fe:65:30:6c, 2015-01-01 00:11:06.630, 0.314, 0.047, 0.938, -1.587, 0.977, -0.732, 3.104, -18.918, -141.405, -12.007, -11.060, -9.720, 24.81, 0.33371, -0.14575, -0.08017, -0.92783,
 10:46:27.919,f6:90:cc:01:6d:25, 2015-01-01 00:11:15.545, 0.912, -0.156, 0.336, -1.892, 0.122, 0.305, -23.258, -67.956, -135.181, -30.507, -8.367, -5.627, 28.73, 0.20636, -0.56934, -0.05692, -0.79367,
 10:46:27.919,f6:90:cc:01:6d:25, 2015-01-01 00:11:15.545, 0.91, -0.161, 0.336, -1.221, 0.183, 0.061, -23.291, -67.95, -135.165, -30.507, -8.367, -5.627, 28.73, 0.20636, -0.56934, -0.05692, -0.79367,
 10:46:27.921,ed:35:33:d3:6c:f8, 2015-01-01 00:11:59.230, 0.317, 0.063, 0.931, -0.488, 0.061, -0.732, 4.098, -18.858, -158.692, -10.520, -13.700, -16.107, 28.54, 0.19077, -0.15344, -0.06506, -0.96732,
 10:46:27.921,ed:35:33:d3:6c:f8, 2015-01-01 00:11:59.230, 0.319, 0.063, 0.944, -0.366, 1.343, -0.427, 4.098, -18.847, -158.687, -10.520, -13.700, -16.107, 28.54, 0.19077, -0.15344, -0.06506, -0.96732,
 10:46:27.922,e3:ca:2d:fd:e0:8c, 2015-01-01 00:10:45.155, 0.956, -0.083, 0.352, -2.136, 0.305, -0.061, -12.903, -69.291, -175.122, -26.767, -9.927, -10.800, 25.44, -0.02911, -0.5683, 0.06842, -0.8194,
 10:46:27.922,e3:ca:2d:fd:e0:8c, 2015-01-01 00:10:45.155, 0.952, -0.085, 0.351, -1.892, 0.488, -0.122, -12.936, -69.285, -175.111, -26.767, -9.927, -10.800, 25.44, -0.02911, -0.5683, 0.06842, -0.8194,
 10:46:27.946,e3:ca:2d:fd:e0:8c, 2015-01-01 00:10:45.445, 0.952, -0.087, 0.352, -1.526, 0.793, -0.427, -12.947, -69.274, -175.106, -26.767, -9.927, -10.800, 25.44, -0.02911, -0.5683, 0.06842, -0.8194,
 10:46:27.946,e3:ca:2d:fd:e0:8c, 2015-01-01 00:10:45.445, 0.955, -0.084, 0.351, -1.038, 0.61, -0.732, -12.931, -69.263, -175.133, -26.767, -9.927, -10.800, 25.44, -0.02911, -0.5683, 0.06842, -0.8194,
 10:46:27.965,ed:40:fe:65:30:6c, 2015-01-01 00:11:06.630, 0.313, 0.046, 0.949, 0.061, 1.587, 0.061, 3.087, -18.891, -141.432, -12.007, -11.060, -9.720, 24.81, 0.33371, -0.14575, -0.08017, -0.92783,
 10:46:27.965,ed:40:fe:65:30:6c, 2015-01-01 00:11:06.630, 0.315, 0.052, 0.952, -0.671, 1.282, 0.122, 3.082, -18.858, -141.454, -12.007, -11.060, -9.720, 24.81, 0.33371, -0.14575, -0.08017, -0.92783,
 10:46:27.966,f6:90:cc:01:6d:25, 2015-01-01 00:11:15.545, 0.913, -0.159, 0.338, -0.305, 0.183, -0.244, -23.302, -67.945, -135.17, -30.507, -8.367, -5.627, 28.73, 0.20636, -0.56934, -0.05692, -0.79367,
 10:46:27.966,f6:90:cc:01:6d:25, 2015-01-01 00:11:15.545, 0.915, -0.153, 0.344, 0.183, 0.305, -0.427, -23.291, -67.939, -135.187, -30.507, -8.367, -5.627, 28.73, 0.20636, -0.56934, -0.05692, -0.79367,
 10:46:27.986,f6:90:cc:01:6d:25, 2015-01-01 00:11:15.545, 0.917, -0.151, 0.345, 0.183, 0.305, -0.671, -23.264, -67.939, -135.203, -30.507, -8.367, -5.627, 28.73, 0.20636, -0.56934, -0.05692, -0.79367,
 10:46:27.986,f6:90:cc:01:6d:25, 2015-01-01 00:11:15.545, 0.917, -0.149, 0.345, 0.549, 0.305, -0.732, -23.225, -67.939, -135.242, -30.507, -8.367, -5.627, 28.73, 0.20636, -0.56934, -0.05692, -0.79367,
 10:46:27.988,ed:40:fe:65:30:6c, 2015-01-01 00:11:06.630, 0.316, 0.049, 0.951, -1.404, 1.038, 0.244, 3.065, -18.831, -141.471, -12.007, -11.060, -9.720, 24.81, 0.33371, -0.14575, -0.08017, -0.92783,
 10:46:27.988,ed:40:fe:65:30:6c, 2015-01-01 00:11:06.630, 0.318, 0.049, 0.952, -1.221, 0.854, 0.183, 3.038, -18.809, -141.482, -12.007, -11.060, -9.720, 24.81, 0.33371, -0.14575, -0.08017, -0.92783,
 10:46:27.989,e3:ca:2d:fd:e0:8c, 2015-01-01 00:10:45.445, 0.956, -0.081, 0.353, -0.671, 0.366, -0.916, -12.903, -69.258, -175.188, -26.767, -9.927, -10.800, 25.44, -0.02911, -0.5683, 0.06842, -0.8194,
 10:46:27.989,e3:ca:2d:fd:e0:8c, 2015-01-01 00:10:45.445, 0.956, -0.08, 0.354, -0.366, 0.244, -0.916, -12.865, -69.258, -175.248, -26.767, -9.927, -10.800, 25.44, -0.02911, -0.5683, 0.06842, -0.8194,
 10:46:28.013,ed:40:fe:65:30:6c, 2015-01-01 00:11:06.630, 0.315, 0.052, 0.951, -0.549, 0.671, -0.061, 3.016, -18.787, -141.493, -12.007, -11.060, -9.720, 24.81, 0.33371, -0.14575, -0.08017, -0.92783,
 10:46:28.013,ed:40:fe:65:30:6c, 2015-01-01 00:11:06.630, 0.313, 0.059, 0.954, -1.282, -0.244, -0.488, 3.005, -18.776, -141.515, -12.007, -11.060, -9.720, 24.81, 0.33371, -0.14575, -0.08017, -0.92783,
 10:46:28.031,f6:90:cc:01:6d:25, 2015-01-01 00:11:15.545, 0.916, -0.146, 0.345, 0.244, 0.305, -0.732, -23.187, -67.934, -135.269, -30.507, -8.367, -5.627, 28.73, 0.20636, -0.56934, -0.05692, -0.79367,
 10:46:28.031,f6:90:cc:01:6d:25, 2015-01-01 00:11:15.545, 0.914, -0.142, 0.346, -0.183, 0.122, -0.61, -23.165, -67.934, -135.291, -30.507, -8.367, -5.627, 28.73, 0.20636, -0.56934, -0.05692, -0.79367,
 10:46:28.033,ed:35:33:d3:6c:f8, 2015-01-01 00:11:59.230, 0.321, 0.065, 0.946, -1.038, 0.61, -0.183, 4.087, -18.825, -158.687, -10.520, -13.700, -16.107, 28.54, 0.19077, -0.15344, -0.06506, -0.96732,
 10:46:28.033,ed:35:33:d3:6c:f8, 2015-01-01 00:11:59.230, 0.323, 0.063, 0.941, -1.282, -0.427, -0.061, 4.065, -18.82, -158.692, -10.520, -13.700, -16.107, 28.54, 0.19077, -0.15344, -0.06506, -0.96732,
 10:46:28.038,e3:ca:2d:fd:e0:8c, 2015-01-01 00:10:45.445, 0.956, -0.079, 0.354, -0.244, 0, -0.854, -12.827, -69.263, -175.314, -26.767, -9.927, -10.800, 25.44, -0.02911, -0.5683, 0.06842, -0.8194,
 10:46:28.038,e3:ca:2d:fd:e0:8c, 2015-01-01 00:10:45.445, 0.955, -0.078, 0.355, -0.427, -0.061, -0.793, -12.799, -69.269, -175.364, -26.767, -9.927, -10.800, 25.44, -0.02911, -0.5683, 0.06842, -0.8194,
 10:46:28.056,ed:35:33:d3:6c:f8, 2015-01-01 00:11:59.230, 0.324, 0.063, 0.942, -0.427, 0.61, -0.244, 4.043, -18.82, -158.698, -10.880, -13.567, -16.340, 28.54, 0.19077, -0.15344, -0.06506, -0.96732,
 10:46:28.056,ed:35:33:d3:6c:f8, 2015-01-01 00:11:59.230, 0.319, 0.067, 0.946, -0.671, 1.282, -0.916, 4.037, -18.803, -158.703, -10.880, -13.567, -16.340, 28.54, 0.19077, -0.15344, -0.06506, -0.96732,
 10:46:28.056,ed:40:fe:65:30:6c, 2015-01-01 00:11:06.630, 0.315, 0.061, 0.95, -2.136, -1.343, -0.854, 2.983, -18.781, -141.548, -12.007, -11.060, -9.720, 24.81, 0.33371, -0.14575, -0.08017, -0.92783,
 10:46:28.056,ed:40:fe:65:30:6c, 2015-01-01 00:11:06.630, 0.314, 0.057, 0.946, -2.869, -2.075, -1.282, 2.944, -18.809, -141.586, -12.007, -11.060, -9.720, 24.81, 0.33371, -0.14575, -0.08017, -0.92783,
 10:46:28.078,ed:35:33:d3:6c:f8, 2015-01-01 00:11:59.230, 0.32, 0.073, 0.949, -1.465, 0.916, -1.404, 4.026, -18.781, -158.708, -10.880, -13.567, -16.340, 28.54, 0.19077, -0.15344, -0.06506, -0.96732,
 10:46:28.078,ed:35:33:d3:6c:f8, 2015-01-01 00:11:59.230, 0.319, 0.072, 0.941, -2.502, -0.061, -1.831, 4.005, -18.765, -158.714, -10.880, -13.567, -16.340, 28.54, 0.19077, -0.15344, -0.06506, -0.96732,
 10:46:28.081,e3:ca:2d:fd:e0:8c, 2015-01-01 00:10:45.445, 0.954, -0.078, 0.355, -0.549, 0.061, -0.671, -12.772, -69.269, -175.397, -26.767, -9.927, -10.800, 25.44, -0.02911, -0.5683, 0.06842, -0.8194,
 10:46:28.081,e3:ca:2d:fd:e0:8c, 2015-01-01 00:10:45.445, 0.954, -0.079, 0.353, -0.366, 0.061, -0.488, -12.755, -69.269, -175.435, -26.767, -9.927, -10.800, 25.44, -0.02911, -0.5683, 0.06842, -0.8194,
 10:46:28.099,f6:90:cc:01:6d:25, 2015-01-01 00:11:15.545, 0.914, -0.141, 0.343, -0.366, 0.061, -0.427, -23.148, -67.934, -135.324, -30.547, -7.947, -5.513, 28.73, 0.20636, -0.56934, -0.05692, -0.79367,
 10:46:28.099,f6:90:cc:01:6d:25, 2015-01-01 00:11:15.545, 0.914, -0.144, 0.342, 0, 0.061, -0.244, -23.137, -67.934, -135.346, -30.547, -7.947, -5.513, 28.73, 0.20636, -0.56934, -0.05692, -0.79367,
 10:46:28.104,e3:ca:2d:fd:e0:8c, 2015-01-01 00:10:45.445, 0.956, -0.079, 0.351, 0, 0, -0.305, -12.739, -69.269, -175.463, -26.767, -9.927, -10.800, 25.44, -0.02911, -0.5683, 0.06842, -0.8194,
 10:46:28.104,e3:ca:2d:fd:e0:8c, 2015-01-01 00:10:45.445, 0.956, -0.079, 0.351, 0.061, -0.061, -0.183, -12.728, -69.269, -175.479, -26.767, -9.927, -10.800, 25.44, -0.02911, -0.5683, 0.06842, -0.8194,
 10:46:28.126,ed:40:fe:65:30:6c, 2015-01-01 00:11:06.630, 0.317, 0.057, 0.949, -2.38, -1.648, -1.221, 2.906, -18.836, -141.641, -11.707, -11.067, -9.133, 24.81, 0.33371, -0.14575, -0.08017, -0.92783,
 10:46:28.126,ed:40:fe:65:30:6c, 2015-01-01 00:11:06.630, 0.319, 0.053, 0.948, -2.136, -1.343, -1.099, 2.873, -18.864, -141.691, -11.707, -11.067, -9.133, 24.81, 0.33371, -0.14575, -0.08017, -0.92783,
 10:46:28.127,f6:90:cc:01:6d:25, 2015-01-01 00:11:15.545, 0.915, -0.146, 0.341, 0.244, 0.183, -0.122, -23.126, -67.928, -135.368, -30.547, -7.947, -5.513, 28.73, 0.20486, -0.56949, -0.05399, -0.79416,
 10:46:28.127,f6:90:cc:01:6d:25, 2015-01-01 00:11:15.545, 0.915, -0.145, 0.341, 0.427, 0.244, -0.122, -23.11, -67.928, -135.385, -30.547, -7.947, -5.513, 28.73, 0.20486, -0.56949, -0.05399, -0.79416,
 10:46:28.129,ed:35:33:d3:6c:f8, 2015-01-01 00:11:59.230, 0.319, 0.072, 0.938, -2.869, -0.427, -1.77, 3.966, -18.765, -158.747, -10.880, -13.567, -16.340, 28.54, 0.19077, -0.15344, -0.06506, -0.96732,
 10:46:28.129,ed:35:33:d3:6c:f8, 2015-01-01 00:11:59.230, 0.322, 0.07, 0.94, -2.319, 0.122, -1.526, 3.922, -18.77, -158.774, -10.880, -13.567, -16.340, 28.54, 0.19077, -0.15344, -0.06506, -0.96732,
 10:46:28.146,ed:35:33:d3:6c:f8, 2015-01-01 00:11:59.230, 0.323, 0.063, 0.94, -1.709, -0.122, -1.282, 3.895, -18.765, -158.802, -10.880, -13.567, -16.340, 28.54, 0.18689, -0.15396, -0.06305, -0.96814,
 10:46:28.146,ed:35:33:d3:6c:f8, 2015-01-01 00:11:59.230, 0.32, 0.057, 0.942, -0.916, -0.61, -1.465, 3.878, -18.77, -158.818, -10.880, -13.567, -16.340, 28.54, 0.18689, -0.15396, -0.06305, -0.96814,
 10:46:28.146,ed:40:fe:65:30:6c, 2015-01-01 00:11:06.630, 0.32, 0.047, 0.948, -1.648, -1.404, -1.221, 2.851, -18.88, -141.746, -11.707, -11.067, -9.133, 24.81, 0.32693, -0.14688, -0.0769, -0.93033,
 10:46:28.146,ed:40:fe:65:30:6c, 2015-01-01 00:11:06.630, 0.317, 0.045, 0.948, -1.831, -1.526, -2.075, 2.829, -18.902, -141.806, -11.707, -11.067, -9.133, 24.81, 0.32693, -0.14688, -0.0769, -0.93033,
 10:46:28.147,e3:ca:2d:fd:e0:8c, 2015-01-01 00:10:45.445, 0.955, -0.079, 0.351, 0, -0.244, -0.061, -12.722, -69.274, -175.474, -26.713, -9.960, -11.253, 25.44, -0.02911, -0.5683, 0.06842, -0.8194,
 10:46:28.147,e3:ca:2d:fd:e0:8c, 2015-01-01 00:10:45.445, 0.955, -0.079, 0.352, 0, -0.305, -0.061, -12.722, -69.28, -175.479, -26.713, -9.960, -11.253, 25.44, -0.02911, -0.5683, 0.06842, -0.8194,
 10:46:28.167,f6:90:cc:01:6d:25, 2015-01-01 00:11:15.545, 0.914, -0.145, 0.342, 0.366, 0.244, -0.122, -23.093, -67.923, -135.396, -30.547, -7.947, -5.513, 28.73, 0.20486, -0.56949, -0.05399, -0.79416,
 10:46:28.167,f6:90:cc:01:6d:25, 2015-01-01 00:11:15.545, 0.915, -0.148, 0.342, 0.305, 0.366, -0.183, -23.071, -67.917, -135.417, -30.547, -7.947, -5.513, 28.73, 0.20486, -0.56949, -0.05399, -0.79416,
 10:46:28.189,f6:90:cc:01:6d:25, 2015-01-01 00:11:15.900, 0.914, -0.149, 0.343, 0.366, 0.305, -0.244, -23.049, -67.912, -135.439, -30.547, -7.947, -5.513, 28.73, 0.20486, -0.56949, -0.05399, -0.79416,
 10:46:28.189,f6:90:cc:01:6d:25, 2015-01-01 00:11:15.900, 0.916, -0.15, 0.344, 0.488, 0.305, -0.366, -23.022, -67.906, -135.456, -30.547, -7.947, -5.513, 28.73, 0.20486, -0.56949, -0.05399, -0.79416,
 10:46:28.191,ed:40:fe:65:30:6c, 2015-01-01 00:11:06.630, 0.317, 0.049, 0.945, -1.648, -1.099, -2.441, 2.812, -18.924, -141.872, -11.707, -11.067, -9.133, 24.81, 0.32693, -0.14688, -0.0769, -0.93033,
 10:46:28.191,ed:40:fe:65:30:6c, 2015-01-01 00:11:06.630, 0.319, 0.048, 0.946, -0.366, -0.732, -1.648, 2.812, -18.935, -141.916, -11.707, -11.067, -9.133, 24.81, 0.32693, -0.14688, -0.0769, -0.93033,
 10:46:28.192,ed:35:33:d3:6c:f8, 2015-01-01 00:11:59.230, 0.322, 0.06, 0.937, -0.854, -1.465, -1.892, 3.873, -18.787, -158.846, -10.880, -13.567, -16.340, 28.54, 0.18689, -0.15396, -0.06305, -0.96814,
 10:46:28.192,ed:35:33:d3:6c:f8, 2015-01-01 00:11:59.230, 0.321, 0.068, 0.935, 0.488, -1.038, -1.404, 3.873, -18.809, -158.868, -10.880, -13.567, -16.340, 28.54, 0.18689, -0.15396, -0.06305, -0.96814,
 10:46:28.193,e3:ca:2d:fd:e0:8c, 2015-01-01 00:10:45.445, 0.955, -0.08, 0.353, 0, -0.427, -0.122, -12.722, -69.291, -175.485, -26.713, -9.960, -11.253, 25.44, -0.03073, -0.56808, 0.06885, -0.81943,
 10:46:28.193,e3:ca:2d:fd:e0:8c, 2015-01-01 00:10:45.445, 0.955, -0.08, 0.353, 0.183, -0.305, -0.183, -12.717, -69.296, -175.49, -26.713, -9.960, -11.253, 25.44, -0.03073, -0.56808, 0.06885, -0.81943,
 10:46:28.212,ed:40:fe:65:30:6c, 2015-01-01 00:11:06.985, 0.321, 0.048, 0.947, -0.183, 0, -1.404, 2.818, -18.935, -141.949, -11.707, -11.067, -9.133, 24.81, 0.32693, -0.14688, -0.0769, -0.93033,
 10:46:28.212,ed:40:fe:65:30:6c, 2015-01-01 00:11:06.985, 0.319, 0.05, 0.947, -0.305, 0.244, -1.282, 2.829, -18.924, -141.976, -11.707, -11.067, -9.133, 24.81, 0.32693, -0.14688, -0.0769, -0.93033,
 10:46:28.214,ed:35:33:d3:6c:f8, 2015-01-01 00:11:59.680, 0.323, 0.064, 0.937, 0.916, 0, -1.038, 3.895, -18.825, -158.884, -10.880, -13.567, -16.340, 28.54, 0.18689, -0.15396, -0.06305, -0.96814,
 10:46:28.214,ed:35:33:d3:6c:f8, 2015-01-01 00:11:59.680, 0.325, 0.065, 0.938, 0.305, 0.61, -0.977, 3.922, -18.82, -158.901, -10.880, -13.567, -16.340, 28.54, 0.18689, -0.15396, -0.06305, -0.96814,
 10:46:28.234,f6:90:cc:01:6d:25, 2015-01-01 00:11:15.900, 0.916, -0.15, 0.345, 0.488, 0.427, -0.366, -22.994, -67.901, -135.494, -30.547, -7.947, -5.513, 28.73, 0.20486, -0.56949, -0.05399, -0.79416,
 10:46:28.234,f6:90:cc:01:6d:25, 2015-01-01 00:11:15.900, 0.915, -0.148, 0.345, 0.549, 0.488, -0.366, -22.961, -67.89, -135.505, -30.547, -7.947, -5.513, 28.73, 0.20486, -0.56949, -0.05399, -0.79416,
 10:46:28.238,e3:ca:2d:fd:e0:8c, 2015-01-01 00:10:45.715, 0.955, -0.081, 0.355, 0.366, -0.244, -0.122, -12.706, -69.302, -175.496, -26.713, -9.960, -11.253, 25.44, -0.03073, -0.56808, 0.06885, -0.81943,
 10:46:28.238,e3:ca:2d:fd:e0:8c, 2015-01-01 00:10:45.715, 0.956, -0.081, 0.355, 0.427, -0.183, -0.244, -12.689, -69.307, -175.496, -26.713, -9.960, -11.253, 25.44, -0.03073, -0.56808, 0.06885, -0.81943,
 10:46:28.258,ed:40:fe:65:30:6c, 2015-01-01 00:11:06.985, 0.318, 0.053, 0.95, 0, 0.305, -0.793, 2.834, -18.913, -141.982, -11.707, -11.067, -9.133, 24.81, 0.32693, -0.14688, -0.0769, -0.93033,
 10:46:28.258,ed:40:fe:65:30:6c, 2015-01-01 00:11:06.985, 0.319, 0.051, 0.947, 0, 0.183, -0.366, 2.84, -18.902, -141.976, -11.707, -11.067, -9.133, 24.81, 0.32693, -0.14688, -0.0769, -0.93033,
 10:46:28.259,ed:35:33:d3:6c:f8, 2015-01-01 00:11:59.680, 0.32, 0.071, 0.94, 0.122, 0.793, -0.793, 3.933, -18.803, -158.912, -10.880, -13.567, -16.340, 28.54, 0.18689, -0.15396, -0.06305, -0.96814,
 10:46:28.259,ed:35:33:d3:6c:f8, 2015-01-01 00:11:59.680, 0.323, 0.07, 0.942, -0.122, 1.16, -0.671, 3.939, -18.787, -158.923, -10.880, -13.567, -16.340, 28.54, 0.18689, -0.15396, -0.06305, -0.96814,
 10:46:28.283,ed:35:33:d3:6c:f8, 2015-01-01 00:11:59.680, 0.321, 0.066, 0.938, -0.122, 1.343, -0.671, 3.944, -18.765, -158.923, -10.880, -13.567, -16.340, 28.54, 0.18689, -0.15396, -0.06305, -0.96814,
 10:46:28.283,ed:35:33:d3:6c:f8, 2015-01-01 00:11:59.680, 0.317, 0.07, 0.937, 0.122, 1.16, -0.549, 3.944, -18.737, -158.917, -10.880, -13.567, -16.340, 28.54, 0.18689, -0.15396, -0.06305, -0.96814,
 10:46:28.283,e3:ca:2d:fd:e0:8c, 2015-01-01 00:10:45.715, 0.955, -0.081, 0.354, 0.427, -0.061, -0.244, -12.667, -69.307, -175.512, -26.713, -9.960, -11.253, 25.44, -0.03073, -0.56808, 0.06885, -0.81943,
 10:46:28.283,e3:ca:2d:fd:e0:8c, 2015-01-01 00:10:45.715, 0.955, -0.08, 0.354, 0.488, 0, -0.183, -12.651, -69.307, -175.545, -26.713, -9.960, -11.253, 25.44, -0.03073, -0.56808, 0.06885, -0.81943,
 10:46:28.302,ed:40:fe:65:30:6c, 2015-01-01 00:11:06.985, 0.317, 0.051, 0.944, 0.122, 0.244, -0.244, 2.845, -18.896, -141.976, -11.707, -11.067, -9.133, 24.81, 0.32693, -0.14688, -0.0769, -0.93033,
 10:46:28.302,ed:40:fe:65:30:6c, 2015-01-01 00:11:06.985, 0.315, 0.054, 0.946, 0.122, 0.427, -0.061, 2.851, -18.885, -141.976, -11.707, -11.067, -9.133, 24.81, 0.32693, -0.14688, -0.0769, -0.93033,
 10:46:28.302,f6:90:cc:01:6d:25, 2015-01-01 00:11:15.900, 0.915, -0.148, 0.344, 0.732, 0.366, -0.305, -22.928, -67.885, -135.505, -30.547, -7.947, -5.513, 28.73, 0.20486, -0.56949, -0.05399, -0.79416,
 10:46:28.302,f6:90:cc:01:6d:25, 2015-01-01 00:11:15.900, 0.915, -0.147, 0.344, 0.61, 0.305, -0.305, -22.906, -67.879, -135.516, -30.547, -7.947, -5.513, 28.73, 0.20486, -0.56949, -0.05399, -0.79416,
 10:46:28.305,e3:ca:2d:fd:e0:8c, 2015-01-01 00:10:45.715, 0.955, -0.079, 0.353, 0.366, 0, -0.244, -12.634, -69.307, -175.605, -26.713, -9.960, -11.253, 25.44, -0.03073, -0.56808, 0.06885, -0.81943,
 10:46:28.305,e3:ca:2d:fd:e0:8c, 2015-01-01 00:10:45.715, 0.954, -0.078, 0.353, 0.122, 0, -0.183, -12.623, -69.307, -175.655, -26.713, -9.960, -11.253, 25.44, -0.03073, -0.56808, 0.06885, -0.81943,
 10:46:28.325,f6:90:cc:01:6d:25, 2015-01-01 00:11:15.900, 0.914, -0.145, 0.342, 0.122, 0.244, -0.244, -22.89, -67.879, -135.511, -30.547, -7.947, -5.513, 28.73, 0.20486, -0.56949, -0.05399, -0.79416,
 10:46:28.325,f6:90:cc:01:6d:25, 2015-01-01 00:11:15.900, 0.913, -0.141, 0.344, -0.061, 0.061, -0.122, -22.89, -67.874, -135.489, -30.547, -7.947, -5.513, 28.73, 0.20486, -0.56949, -0.05399, -0.79416,
 10:46:28.326,ed:35:33:d3:6c:f8, 2015-01-01 00:11:59.680, 0.318, 0.07, 0.939, 0.366, 1.648, -0.305, 3.955, -18.715, -158.917, -10.880, -13.567, -16.340, 28.54, 0.18689, -0.15396, -0.06305, -0.96814,
 10:46:28.326,ed:35:33:d3:6c:f8, 2015-01-01 00:11:59.680, 0.316, 0.067, 0.938, 0.549, 1.892, -0.305, 3.966, -18.682, -158.923, -10.880, -13.567, -16.340, 28.54, 0.18689, -0.15396, -0.06305, -0.96814,
 10:46:28.348,ed:40:fe:65:30:6c, 2015-01-01 00:11:06.985, 0.316, 0.054, 0.946, 0.549, 0.793, 0, 2.862, -18.869, -141.982, -11.707, -11.067, -9.133, 24.81, 0.32693, -0.14688, -0.0769, -0.93033,
 10:46:28.348,ed:40:fe:65:30:6c, 2015-01-01 00:11:06.985, 0.312, 0.051, 0.945, 0.61, 0.977, -0.244, 2.878, -18.847, -141.993, -11.707, -11.067, -9.133, 24.81, 0.32693, -0.14688, -0.0769, -0.93033,
 10:46:28.350,e3:ca:2d:fd:e0:8c, 2015-01-01 00:10:45.715, 0.954, -0.076, 0.352, 0, 0.061, -0.122, -12.618, -69.307, -175.677, -26.713, -9.960, -11.253, 25.44, -0.03073, -0.56808, 0.06885, -0.81943,
 10:46:28.350,e3:ca:2d:fd:e0:8c, 2015-01-01 00:10:45.715, 0.954, -0.077, 0.353, -0.122, 0, -0.122, -12.612, -69.307, -175.688, -26.713, -9.960, -11.253, 25.44, -0.03073, -0.56808, 0.06885, -0.81943,
 10:46:28.372,ed:35:33:d3:6c:f8, 2015-01-01 00:11:59.680, 0.312, 0.067, 0.94, 0.305, 1.648, -0.427, 3.977, -18.644, -158.939, -10.880, -13.567, -16.340, 28.54, 0.18689, -0.15396, -0.06305, -0.96814,
 10:46:28.372,ed:35:33:d3:6c:f8, 2015-01-01 00:11:59.680, 0.315, 0.075, 0.948, 0, 1.77, -0.183, 3.988, -18.616, -158.967, -10.880, -13.567, -16.340, 28.54, 0.18689, -0.15396, -0.06305, -0.96814,
 10:46:28.372,ed:40:fe:65:30:6c, 2015-01-01 00:11:06.985, 0.31, 0.055, 0.951, 0.183, 0.916, -0.244, 2.889, -18.825, -141.993, -11.707, -11.067, -9.133, 24.81, 0.32693, -0.14688, -0.0769, -0.93033,
 10:46:28.373,ed:40:fe:65:30:6c, 2015-01-01 00:11:06.985, 0.313, 0.059, 0.951, -0.061, 0.61, 0, 2.895, -18.803, -141.987, -11.707, -11.067, -9.133, 24.81, 0.32693, -0.14688, -0.0769, -0.93033,
 10:46:28.392,f6:90:cc:01:6d:25, 2015-01-01 00:11:15.900, 0.913, -0.142, 0.343, -0.366, 0.061, -0.061, -22.89, -67.874, -135.472, -30.547, -7.947, -5.513, 28.73, 0.20486, -0.56949, -0.05399, -0.79416,
 10:46:28.392,f6:90:cc:01:6d:25, 2015-01-01 00:11:15.900, 0.913, -0.146, 0.345, -0.61, 0, -0.061, -22.901, -67.874, -135.45, -30.547, -7.947, -5.513, 28.73, 0.20486, -0.56949, -0.05399, -0.79416,
 10:46:28.395,e3:ca:2d:fd:e0:8c, 2015-01-01 00:10:45.715, 0.956, -0.077, 0.353, -0.183, -0.061, -0.122, -12.607, -69.307, -175.682, -26.713, -9.960, -11.253, 25.44, -0.03073, -0.56808, 0.06885, -0.81943,
 10:46:28.395,e3:ca:2d:fd:e0:8c, 2015-01-01 00:10:45.715, 0.956, -0.076, 0.353, -0.244, -0.244, -0.122, -12.607, -69.313, -175.677, -26.713, -9.960, -11.253, 25.44, -0.03073, -0.56808, 0.06885, -0.81943,
 10:46:28.415,f6:90:cc:01:6d:25, 2015-01-01 00:11:15.900, 0.915, -0.144, 0.346, -0.61, -0.122, -0.122, -22.912, -67.874, -135.434, -30.280, -8.067, -5.287, 28.73, 0.20486, -0.56949, -0.05399, -0.79416,
 10:46:28.415,f6:90:cc:01:6d:25, 2015-01-01 00:11:15.900, 0.915, -0.143, 0.347, -0.366, -0.427, -0.061, -22.923, -67.885, -135.406, -30.280, -8.067, -5.287, 28.73, 0.20486, -0.56949, -0.05399, -0.79416,
 10:46:28.415,ed:40:fe:65:30:6c, 2015-01-01 00:11:06.985, 0.313, 0.057, 0.948, -0.183, -0.061, 0.061, 2.895, -18.792, -141.987, -11.707, -11.067, -9.133, 24.81, 0.32693, -0.14688, -0.0769, -0.93033,
 10:46:28.416,ed:40:fe:65:30:6c, 2015-01-01 00:11:06.985, 0.314, 0.054, 0.952, -0.183, 0.244, -0.244, 2.9, -18.787, -141.987, -11.707, -11.067, -9.133, 24.81, 0.32693, -0.14688, -0.0769, -0.93033,
 10:46:28.418,ed:35:33:d3:6c:f8, 2015-01-01 00:11:59.680, 0.314, 0.074, 0.943, -0.122, 1.038, 0, 3.988, -18.589, -158.994, -10.880, -13.567, -16.340, 28.54, 0.18689, -0.15396, -0.06305, -0.96814,
 10:46:28.418,ed:35:33:d3:6c:f8, 2015-01-01 00:11:59.680, 0.315, 0.068, 0.942, -0.183, 1.099, -0.366, 3.988, -18.567, -159, -10.880, -13.567, -16.340, 28.54, 0.18689, -0.15396, -0.06305, -0.96814,
 10:46:28.438,ed:35:33:d3:6c:f8, 2015-01-01 00:11:59.680, 0.313, 0.067, 0.944, 0.122, 1.465, -0.549, 3.994, -18.539, -159, -10.580, -13.333, -15.753, 28.54, 0.18689, -0.15396, -0.06305, -0.96814,
 10:46:28.438,ed:35:33:d3:6c:f8, 2015-01-01 00:11:59.680, 0.312, 0.065, 0.942, 0.183, 1.038, -0.305, 3.999, -18.517, -159.016, -10.580, -13.333, -15.753, 28.54, 0.18689, -0.15396, -0.06305, -0.96814,
 10:46:28.440,e3:ca:2d:fd:e0:8c, 2015-01-01 00:10:45.715, 0.956, -0.075, 0.354, -0.122, -0.305, 0, -12.612, -69.318, -175.671, -26.673, -10.053, -11.407, 25.44, -0.03073, -0.56808, 0.06885, -0.81943,
 10:46:28.440,e3:ca:2d:fd:e0:8c, 2015-01-01 00:10:45.715, 0.956, -0.076, 0.353, -0.122, -0.488, 0, -12.618, -69.324, -175.66, -26.673, -10.053, -11.407, 25.44, -0.03073, -0.56808, 0.06885, -0.81943,
 10:46:28.461,f6:90:cc:01:6d:25, 2015-01-01 00:11:15.900, 0.915, -0.142, 0.344, -0.305, -0.366, 0, -22.934, -67.89, -135.423, -30.280, -8.067, -5.287, 28.73, 0.20486, -0.56949, -0.05399, -0.79416,
 10:46:28.461,f6:90:cc:01:6d:25, 2015-01-01 00:11:15.900, 0.914, -0.146, 0.346, -0.488, -0.549, 0, -22.95, -67.896, -135.45, -30.280, -8.067, -5.287, 28.73, 0.20486, -0.56949, -0.05399, -0.79416,
 10:46:28.482,f6:90:cc:01:6d:25, 2015-01-01 00:11:15.900, 0.911, -0.147, 0.345, -0.061, -0.488, -0.061, -22.956, -67.901, -135.467, -30.280, -8.067, -5.287, 28.73, 0.20523, -0.56903, -0.05466, -0.79437,
 10:46:28.482,f6:90:cc:01:6d:25, 2015-01-01 00:11:15.900, 0.913, -0.146, 0.344, -0.244, -0.244, -0.061, -22.961, -67.906, -135.478, -30.280, -8.067, -5.287, 28.73, 0.20523, -0.56903, -0.05466, -0.79437,
 10:46:28.483,ed:35:33:d3:6c:f8, 2015-01-01 00:11:59.680, 0.314, 0.066, 0.943, 0.122, 0.916, -0.427, 4.01, -18.495, -159.027, -10.580, -13.333, -15.753, 28.54, 0.18689, -0.15396, -0.06305, -0.96814,
 10:46:28.483,ed:35:33:d3:6c:f8, 2015-01-01 00:11:59.680, 0.315, 0.069, 0.946, 0.122, 0.854, -0.916, 4.016, -18.479, -159.038, -10.580, -13.333, -15.753, 28.54, 0.18689, -0.15396, -0.06305, -0.96814,
 10:46:28.483,ed:40:fe:65:30:6c, 2015-01-01 00:11:06.985, 0.312, 0.05, 0.948, -0.061, 0.061, -0.305, 2.9, -18.776, -141.993, -11.720, -10.713, -9.500, 24.81, 0.32693, -0.14688, -0.0769, -0.93033,
 10:46:28.484,ed:40:fe:65:30:6c, 2015-01-01 00:11:06.985, 0.312, 0.05, 0.949, -0.305, -0.122, -0.183, 2.906, -18.77, -141.993, -11.720, -10.713, -9.500, 24.81, 0.32693, -0.14688, -0.0769, -0.93033,
 10:46:28.485,e3:ca:2d:fd:e0:8c, 2015-01-01 00:10:45.715, 0.952, -0.077, 0.355, -0.183, -0.427, 0, -12.623, -69.335, -175.638, -26.673, -10.053, -11.407, 25.44, -0.0314, -0.56836, 0.06885, -0.81921,
 10:46:28.485,e3:ca:2d:fd:e0:8c, 2015-01-01 00:10:45.715, 0.953, -0.079, 0.354, 0, -0.244, 0.061, -12.623, -69.335, -175.611, -26.673, -10.053, -11.407, 25.44, -0.0314, -0.56836, 0.06885, -0.81921,
 10:46:28.506,ed:40:fe:65:30:6c, 2015-01-01 00:11:06.985, 0.313, 0.053, 0.95, -0.488, -0.122, -0.61, 2.9, -18.765, -141.998, -11.720, -10.713, -9.500, 24.81, 0.32501, -0.14597, -0.07672, -0.93115,
 10:46:28.506,ed:40:fe:65:30:6c, 2015-01-01 00:11:06.985, 0.319, 0.053, 0.948, -0.366, -0.977, -0.671, 2.9, -18.77, -142.02, -11.720, -10.713, -9.500, 24.81, 0.32501, -0.14597, -0.07672, -0.93115,
 10:46:28.507,e3:ca:2d:fd:e0:8c, 2015-01-01 00:10:46.005, 0.956, -0.077, 0.353, -0.122, -0.549, 0, -12.634, -69.346, -175.589, -26.673, -10.053, -11.407, 25.44, -0.0314, -0.56836, 0.06885, -0.81921,
 10:46:28.507,e3:ca:2d:fd:e0:8c, 2015-01-01 00:10:46.005, 0.958, -0.078, 0.352, -0.122, -0.671, 0.061, -12.64, -69.357, -175.556, -26.673, -10.053, -11.407, 25.44, -0.0314, -0.56836, 0.06885, -0.81921,
 10:46:28.528,f6:90:cc:01:6d:25, 2015-01-01 00:11:15.900, 0.917, -0.144, 0.345, -0.305, -0.366, 0, -22.972, -67.912, -135.483, -30.280, -8.067, -5.287, 28.73, 0.20523, -0.56903, -0.05466, -0.79437,
 10:46:28.528,f6:90:cc:01:6d:25, 2015-01-01 00:11:15.900, 0.917, -0.147, 0.344, -0.427, -0.793, 0, -22.994, -67.923, -135.483, -30.280, -8.067, -5.287, 28.73, 0.20523, -0.56903, -0.05466, -0.79437,
 10:46:28.552,ed:35:33:d3:6c:f8, 2015-01-01 00:11:59.680, 0.32, 0.07, 0.943, 0.305, 0, -0.732, 4.026, -18.468, -159.066, -10.580, -13.333, -15.753, 28.54, 0.185, -0.15155, -0.06317, -0.96887,
 10:46:28.552,ed:35:33:d3:6c:f8, 2015-01-01 00:11:59.680, 0.317, 0.064, 0.936, 1.16, 0.366, -0.427, 4.048, -18.463, -159.077, -10.580, -13.333, -15.753, 28.54, 0.185, -0.15155, -0.06317, -0.96887,
 10:46:28.552,ed:40:fe:65:30:6c, 2015-01-01 00:11:06.985, 0.32, 0.051, 0.948, 0, -1.526, -0.366, 2.906, -18.792, -142.048, -11.720, -10.713, -9.500, 24.81, 0.32501, -0.14597, -0.07672, -0.93115,
 10:46:28.552,ed:40:fe:65:30:6c, 2015-01-01 00:11:06.985, 0.317, 0.047, 0.946, 0.305, -0.916, -0.366, 2.917, -18.809, -142.07, -11.720, -10.713, -9.500, 24.81, 0.32501, -0.14597, -0.07672, -0.93115,
 10:46:28.553,e3:ca:2d:fd:e0:8c, 2015-01-01 00:10:46.005, 0.957, -0.08, 0.352, -0.122, -0.61, 0, -12.651, -69.368, -175.529, -26.673, -10.053, -11.407, 25.44, -0.0314, -0.56836, 0.06885, -0.81921,
 10:46:28.553,e3:ca:2d:fd:e0:8c, 2015-01-01 00:10:46.005, 0.956, -0.078, 0.352, -0.244, -0.549, 0, -12.656, -69.379, -175.512, -26.673, -10.053, -11.407, 25.44, -0.0314, -0.56836, 0.06885, -0.81921,
 10:46:28.572,f6:90:cc:01:6d:25, 2015-01-01 00:11:16.260, 0.917, -0.147, 0.342, -0.61, -0.916, 0, -23.027, -67.939, -135.483, -30.280, -8.067, -5.287, 28.73, 0.20523, -0.56903, -0.05466, -0.79437,
 10:46:28.572,f6:90:cc:01:6d:25, 2015-01-01 00:11:16.260, 0.915, -0.146, 0.34, -0.366, -0.671, -0.061, -23.044, -67.95, -135.478, -30.280, -8.067, -5.287, 28.73, 0.20523, -0.56903, -0.05466, -0.79437,
 10:46:28.573,ed:40:fe:65:30:6c, 2015-01-01 00:11:07.345, 0.317, 0.05, 0.949, 0.244, -0.488, -0.977, 2.928, -18.814, -142.097, -11.720, -10.713, -9.500, 24.81, 0.32501, -0.14597, -0.07672, -0.93115,
 10:46:28.573,ed:40:fe:65:30:6c, 2015-01-01 00:11:07.345, 0.317, 0.052, 0.948, 0.122, -0.549, -0.977, 2.939, -18.82, -142.13, -11.720, -10.713, -9.500, 24.81, 0.32501, -0.14597, -0.07672, -0.93115,
 10:46:28.574,ed:35:33:d3:6c:f8, 2015-01-01 00:12:00.035, 0.314, 0.063, 0.941, 1.77, 0.916, -0.61, 4.081, -18.452, -159.093, -10.580, -13.333, -15.753, 28.54, 0.185, -0.15155, -0.06317, -0.96887,
 10:46:28.574,ed:35:33:d3:6c:f8, 2015-01-01 00:12:00.035, 0.316, 0.069, 0.943, 1.831, 0.549, -0.793, 4.12, -18.435, -159.099, -10.580, -13.333, -15.753, 28.54, 0.185, -0.15155, -0.06317, -0.96887,
 10:46:28.594,f6:90:cc:01:6d:25, 2015-01-01 00:11:16.260, 0.914, -0.148, 0.339, -0.366, -0.488, -0.122, -23.055, -67.956, -135.483, -30.280, -8.067, -5.287, 28.73, 0.20523, -0.56903, -0.05466, -0.79437,
 10:46:28.594,f6:90:cc:01:6d:25, 2015-01-01 00:11:16.260, 0.916, -0.149, 0.34, -0.305, -0.549, -0.183, -23.066, -67.967, -135.472, -30.280, -8.067, -5.287, 28.73, 0.20523, -0.56903, -0.05466, -0.79437,
 10:46:28.597,e3:ca:2d:fd:e0:8c, 2015-01-01 00:10:46.005, 0.955, -0.08, 0.35, -0.244, -0.427, 0, -12.667, -69.384, -175.474, -26.673, -10.053, -11.407, 25.44, -0.0314, -0.56836, 0.06885, -0.81921,
 10:46:28.597,e3:ca:2d:fd:e0:8c, 2015-01-01 00:10:46.005, 0.956, -0.082, 0.35, -0.183, -0.366, 0, -12.673, -69.39, -175.446, -26.673, -10.053, -11.407, 25.44, -0.0314, -0.56836, 0.06885, -0.81921,
 10:46:28.617,ed:40:fe:65:30:6c, 2015-01-01 00:11:07.345, 0.319, 0.054, 0.947, 0.122, -0.671, -0.427, 2.95, -18.825, -142.152, -11.720, -10.713, -9.500, 24.81, 0.32501, -0.14597, -0.07672, -0.93115,
 10:46:28.617,ed:40:fe:65:30:6c, 2015-01-01 00:11:07.345, 0.319, 0.053, 0.947, 0.305, -0.671, 0, 2.955, -18.836, -142.163, -11.720, -10.713, -9.500, 24.81, 0.32501, -0.14597, -0.07672, -0.93115,
 10:46:28.619,ed:35:33:d3:6c:f8, 2015-01-01 00:12:00.035, 0.316, 0.074, 0.942, 1.587, 0.366, -0.61, 4.158, -18.424, -159.115, -10.580, -13.333, -15.753, 28.54, 0.185, -0.15155, -0.06317, -0.96887,
 10:46:28.619,ed:35:33:d3:6c:f8, 2015-01-01 00:12:00.035, 0.317, 0.074, 0.941, 1.465, 0.488, -0.122, 4.191, -18.419, -159.131, -10.580, -13.333, -15.753, 28.54, 0.185, -0.15155, -0.06317, -0.96887,
 10:46:28.639,f6:90:cc:01:6d:25, 2015-01-01 00:11:16.260, 0.917, -0.149, 0.34, 0, -0.61, -0.244, -23.066, -67.978, -135.445, -30.280, -8.067, -5.287, 28.73, 0.20523, -0.56903, -0.05466, -0.79437,
 10:46:28.639,f6:90:cc:01:6d:25, 2015-01-01 00:11:16.260, 0.918, -0.146, 0.34, 0.244, -0.61, -0.305, -23.066, -67.989, -135.423, -30.280, -8.067, -5.287, 28.73, 0.20523, -0.56903, -0.05466, -0.79437,
 10:46:28.642,ed:35:33:d3:6c:f8, 2015-01-01 00:12:00.035, 0.318, 0.07, 0.942, 1.404, 0.61, 0, 4.219, -18.408, -159.142, -10.580, -13.333, -15.753, 28.54, 0.185, -0.15155, -0.06317, -0.96887,
 10:46:28.642,ed:35:33:d3:6c:f8, 2015-01-01 00:12:00.035, 0.316, 0.071, 0.943, 1.099, 0.549, -0.122, 4.246, -18.397, -159.142, -10.580, -13.333, -15.753, 28.54, 0.185, -0.15155, -0.06317, -0.96887,
 10:46:28.644,e3:ca:2d:fd:e0:8c, 2015-01-01 00:10:46.005, 0.957, -0.08, 0.349, -0.061, -0.366, 0, -12.678, -69.395, -175.413, -26.673, -10.053, -11.407, 25.44, -0.0314, -0.56836, 0.06885, -0.81921,
 10:46:28.644,e3:ca:2d:fd:e0:8c, 2015-01-01 00:10:46.005, 0.958, -0.08, 0.349, 0, -0.61, 0, -12.689, -69.406, -175.369, -26.673, -10.053, -11.407, 25.44, -0.0314, -0.56836, 0.06885, -0.81921,
 10:46:28.663,ed:40:fe:65:30:6c, 2015-01-01 00:11:07.345, 0.32, 0.051, 0.948, 0.244, -0.916, 0, 2.966, -18.847, -142.185, -11.720, -10.713, -9.500, 24.81, 0.32501, -0.14597, -0.07672, -0.93115,
 10:46:28.663,ed:40:fe:65:30:6c, 2015-01-01 00:11:07.345, 0.32, 0.054, 0.949, 0.183, -1.343, -0.122, 2.972, -18.864, -142.202, -11.720, -10.713, -9.500, 24.81, 0.32501, -0.14597, -0.07672, -0.93115,
 10:46:28.685,f6:90:cc:01:6d:25, 2015-01-01 00:11:16.260, 0.918, -0.146, 0.339, 0.061, -0.671, -0.244, -23.06, -68.005, -135.401, -30.280, -8.067, -5.287, 28.73, 0.20523, -0.56903, -0.05466, -0.79437,
 10:46:28.685,f6:90:cc:01:6d:25, 2015-01-01 00:11:16.260, 0.917, -0.144, 0.339, 0.061, -0.732, -0.244, -23.066, -68.016, -135.385, -30.280, -8.067, -5.287, 28.73, 0.20523, -0.56903, -0.05466, -0.79437,
 10:46:28.709,ed:40:fe:65:30:6c, 2015-01-01 00:11:07.345, 0.322, 0.055, 0.947, 0.122, -1.648, -0.061, 2.977, -18.891, -142.213, -11.720, -10.713, -9.500, 24.81, 0.32501, -0.14597, -0.07672, -0.93115,
 10:46:28.709,ed:40:fe:65:30:6c, 2015-01-01 00:11:07.345, 0.32, 0.053, 0.945, 0.061, -2.075, -0.122, 2.983, -18.924, -142.224, -11.720, -10.713, -9.500, 24.81, 0.32501, -0.14597, -0.07672, -0.93115,
 10:46:28.709,ed:35:33:d3:6c:f8, 2015-01-01 00:12:00.035, 0.318, 0.075, 0.942, 1.099, 0.732, -0.061, 4.268, -18.386, -159.148, -10.580, -13.333, -15.753, 28.54, 0.185, -0.15155, -0.06317, -0.96887,
 10:46:28.709,ed:35:33:d3:6c:f8, 2015-01-01 00:12:00.035, 0.317, 0.074, 0.942, 0.854, 0.244, 0, 4.285, -18.38, -159.148, -10.580, -13.333, -15.753, 28.54, 0.185, -0.15155, -0.06317, -0.96887,
 10:46:28.710,e3:ca:2d:fd:e0:8c, 2015-01-01 00:10:46.005, 0.957, -0.079, 0.35, 0, -0.671, 0, -12.695, -69.423, -175.342, -26.673, -10.053, -11.407, 25.44, -0.0314, -0.56836, 0.06885, -0.81921,
 10:46:28.710,e3:ca:2d:fd:e0:8c, 2015-01-01 00:10:46.005, 0.958, -0.079, 0.35, 0, -0.549, 0, -12.706, -69.434, -175.314, -26.673, -10.053, -11.407, 25.44, -0.0314, -0.56836, 0.06885, -0.81921,
 10:46:28.710,e3:ca:2d:fd:e0:8c, 2015-01-01 00:10:46.005, 0.958, -0.078, 0.35, 0.061, -0.488, 0, -12.706, -69.439, -175.303, -26.673, -10.053, -11.407, 25.44, -0.0314, -0.56836, 0.06885, -0.81921,
 10:46:28.710,e3:ca:2d:fd:e0:8c, 2015-01-01 00:10:46.005, 0.956, -0.077, 0.351, 0, -0.305, 0, -12.711, -69.445, -175.298, -26.673, -10.053, -11.407, 25.44, -0.0314, -0.56836, 0.06885, -0.81921,
 10:46:28.753,f6:90:cc:01:6d:25, 2015-01-01 00:11:16.260, 0.916, -0.145, 0.339, 0.061, -0.671, -0.244, -23.071, -68.033, -135.385, -30.280, -8.067, -5.287, 28.73, 0.20523, -0.56903, -0.05466, -0.79437,
 10:46:28.753,f6:90:cc:01:6d:25, 2015-01-01 00:11:16.260, 0.916, -0.146, 0.338, 0.305, -0.549, -0.305, -23.071, -68.044, -135.363, -30.280, -8.067, -5.287, 28.73, 0.20523, -0.56903, -0.05466, -0.79437,
 10:46:28.755,ed:35:33:d3:6c:f8, 2015-01-01 00:12:00.035, 0.315, 0.07, 0.941, 0.427, -0.183, -0.122, 4.301, -18.38, -159.17, -10.580, -13.333, -15.753, 28.54, 0.185, -0.15155, -0.06317, -0.96887,
 10:46:28.755,ed:35:33:d3:6c:f8, 2015-01-01 00:12:00.035, 0.315, 0.073, 0.938, 0.427, 0, -0.305, 4.312, -18.386, -159.214, -10.580, -13.333, -15.753, 28.54, 0.185, -0.15155, -0.06317, -0.96887,
 10:46:28.756,e3:ca:2d:fd:e0:8c, 2015-01-01 00:10:46.005, 0.956, -0.078, 0.351, 0, -0.122, 0, -12.711, -69.45, -175.27, -26.460, -9.653, -11.480, 25.44, -0.0314, -0.56836, 0.06885, -0.81921,
 10:46:28.756,e3:ca:2d:fd:e0:8c, 2015-01-01 00:10:46.005, 0.956, -0.079, 0.35, 0, -0.122, 0, -12.711, -69.45, -175.248, -26.460, -9.653, -11.480, 25.44, -0.0314, -0.56836, 0.06885, -0.81921,
 10:46:28.774,f6:90:cc:01:6d:25, 2015-01-01 00:11:16.260, 0.915, -0.147, 0.34, 0.244, -0.549, -0.305, -23.066, -68.055, -135.357, -30.560, -8.073, -5.313, 28.73, 0.20523, -0.56903, -0.05466, -0.79437,
 10:46:28.774,f6:90:cc:01:6d:25, 2015-01-01 00:11:16.260, 0.917, -0.146, 0.337, 0.305, -0.549, -0.366, -23.06, -68.071, -135.341, -30.560, -8.073, -5.313, 28.73, 0.20523, -0.56903, -0.05466, -0.79437,
 10:46:28.774,ed:40:fe:65:30:6c, 2015-01-01 00:11:07.345, 0.321, 0.052, 0.947, -0.061, -1.831, -0.488, 2.988, -18.957, -142.24, -11.720, -10.713, -9.500, 24.81, 0.32501, -0.14597, -0.07672, -0.93115,
 10:46:28.774,ed:40:fe:65:30:6c, 2015-01-01 00:11:07.345, 0.321, 0.055, 0.943, 0.061, -1.404, -0.61, 2.999, -18.984, -142.284, -11.720, -10.713, -9.500, 24.81, 0.32501, -0.14597, -0.07672, -0.93115,
 10:46:28.799,ed:35:33:d3:6c:f8, 2015-01-01 00:12:00.035, 0.315, 0.078, 0.937, 0.671, 0.488, -0.244, 4.323, -18.38, -159.247, -10.580, -13.333, -15.753, 28.54, 0.185, -0.15155, -0.06317, -0.96887,
 10:46:28.799,ed:35:33:d3:6c:f8, 2015-01-01 00:12:00.035, 0.313, 0.079, 0.94, 0.244, 0.793, 0.061, 4.334, -18.369, -159.269, -10.580, -13.333, -15.753, 28.54, 0.185, -0.15155, -0.06317, -0.96887,
 10:46:28.799,ed:40:fe:65:30:6c, 2015-01-01 00:11:07.345, 0.321, 0.056, 0.943, 0.366, -1.221, -0.061, 3.01, -19.006, -142.322, -11.153, -10.933, -9.453, 24.81, 0.32501, -0.14597, -0.07672, -0.93115,
 10:46:28.799,ed:40:fe:65:30:6c, 2015-01-01 00:11:07.345, 0.319, 0.058, 0.945, 0.305, -1.282, 0.305, 3.016, -19.023, -142.339, -11.153, -10.933, -9.453, 24.81, 0.32501, -0.14597, -0.07672, -0.93115,
 10:46:28.800,e3:ca:2d:fd:e0:8c, 2015-01-01 00:10:46.005, 0.957, -0.078, 0.35, 0.122, -0.122, 0, -12.711, -69.45, -175.243, -26.460, -9.653, -11.480, 25.44, -0.02908, -0.56943, 0.06738, -0.8187,
 10:46:28.800,e3:ca:2d:fd:e0:8c, 2015-01-01 00:10:46.005, 0.958, -0.079, 0.35, 0.183, -0.122, 0, -12.706, -69.456, -175.254, -26.460, -9.653, -11.480, 25.44, -0.02908, -0.56943, 0.06738, -0.8187,
 10:46:28.822,ed:35:33:d3:6c:f8, 2015-01-01 00:12:00.035, 0.312, 0.077, 0.947, -0.305, 0.244, 0.183, 4.334, -18.358, -159.274, -10.300, -13.567, -16.200, 28.54, 0.185, -0.15155, -0.06317, -0.96887,
 10:46:28.822,ed:35:33:d3:6c:f8, 2015-01-01 00:12:00.035, 0.312, 0.075, 0.944, -0.244, -0.61, 0.244, 4.329, -18.364, -159.269, -10.300, -13.567, -16.200, 28.54, 0.185, -0.15155, -0.06317, -0.96887,
 10:46:28.842,f6:90:cc:01:6d:25, 2015-01-01 00:11:16.260, 0.917, -0.145, 0.337, 0.366, -0.427, -0.305, -23.049, -68.082, -135.33, -30.560, -8.073, -5.313, 28.73, 0.20523, -0.56903, -0.05466, -0.79437,
 10:46:28.842,f6:90:cc:01:6d:25, 2015-01-01 00:11:16.260, 0.917, -0.144, 0.339, 0.488, -0.61, -0.305, -23.038, -68.093, -135.324, -30.560, -8.073, -5.313, 28.73, 0.20523, -0.56903, -0.05466, -0.79437,
 10:46:28.843,ed:40:fe:65:30:6c, 2015-01-01 00:11:07.345, 0.32, 0.057, 0.948, 0, -1.831, 0.549, 3.021, -19.056, -142.344, -11.153, -10.933, -9.453, 24.81, 0.32501, -0.14597, -0.07672, -0.93115,
 10:46:28.843,ed:40:fe:65:30:6c, 2015-01-01 00:11:07.345, 0.321, 0.056, 0.948, 0, -1.892, 0.427, 3.021, -19.089, -142.35, -11.153, -10.933, -9.453, 24.81, 0.32501, -0.14597, -0.07672, -0.93115,
 10:46:28.845,e3:ca:2d:fd:e0:8c, 2015-01-01 00:10:46.005, 0.958, -0.078, 0.349, 0.244, 0.061, 0, -12.7, -69.456, -175.237, -26.460, -9.653, -11.480, 25.44, -0.02908, -0.56943, 0.06738, -0.8187,
 10:46:28.845,e3:ca:2d:fd:e0:8c, 2015-01-01 00:10:46.005, 0.957, -0.078, 0.349, 0.244, 0.183, 0, -12.689, -69.45, -175.226, -26.460, -9.653, -11.480, 25.44, -0.02908, -0.56943, 0.06738, -0.8187,
 10:46:28.864,f6:90:cc:01:6d:25, 2015-01-01 00:11:16.260, 0.917, -0.144, 0.341, 0.366, -0.671, -0.183, -23.033, -68.104, -135.308, -30.560, -8.073, -5.313, 28.73, 0.20517, -0.57031, -0.05548, -0.7934,
 10:46:28.864,f6:90:cc:01:6d:25, 2015-01-01 00:11:16.260, 0.916, -0.144, 0.34, 0.366, -0.549, -0.122, -23.033, -68.115, -135.269, -30.560, -8.073, -5.313, 28.73, 0.20517, -0.57031, -0.05548, -0.7934,
 10:46:28.866,ed:40:fe:65:30:6c, 2015-01-01 00:11:07.345, 0.321, 0.056, 0.949, 0, -1.404, 0.244, 3.021, -19.111, -142.372, -11.153, -10.933, -9.453, 24.81, 0.32205, -0.14865, -0.07812, -0.93164,
 10:46:28.866,ed:40:fe:65:30:6c, 2015-01-01 00:11:07.345, 0.32, 0.056, 0.947, 0, -0.854, 0, 3.027, -19.127, -142.388, -11.153, -10.933, -9.453, 24.81, 0.32205, -0.14865, -0.07812, -0.93164,
 10:46:28.866,ed:35:33:d3:6c:f8, 2015-01-01 00:12:00.035, 0.313, 0.075, 0.943, 0, -0.671, 0.122, 4.329, -18.38, -159.252, -10.300, -13.567, -16.200, 28.54, 0.185, -0.15155, -0.06317, -0.96887,
 10:46:28.866,ed:35:33:d3:6c:f8, 2015-01-01 00:12:00.035, 0.313, 0.075, 0.941, 0.427, -0.977, 0.061, 4.334, -18.397, -159.247, -10.300, -13.567, -16.200, 28.54, 0.185, -0.15155, -0.06317, -0.96887,
 10:46:28.868,e3:ca:2d:fd:e0:8c, 2015-01-01 00:10:46.005, 0.956, -0.078, 0.348, 0.183, -0.061, 0, -12.689, -69.45, -175.215, -26.460, -9.653, -11.480, 25.53, -0.02908, -0.56943, 0.06738, -0.8187,
 10:46:28.868,e3:ca:2d:fd:e0:8c, 2015-01-01 00:10:46.005, 0.956, -0.077, 0.35, 0.122, -0.183, 0, -12.684, -69.456, -175.199, -26.460, -9.653, -11.480, 25.53, -0.02908, -0.56943, 0.06738, -0.8187,
 10:46:28.891,ed:35:33:d3:6c:f8, 2015-01-01 00:12:00.035, 0.313, 0.073, 0.942, 0.61, -0.732, -0.244, 4.351, -18.413, -159.258, -10.300, -13.567, -16.200, 28.54, 0.18356, -0.15048, -0.06555, -0.96915,
 10:46:28.891,ed:35:33:d3:6c:f8, 2015-01-01 00:12:00.035, 0.314, 0.075, 0.943, 0.549, -1.038, -0.793, 4.367, -18.43, -159.269, -10.300, -13.567, -16.200, 28.54, 0.18356, -0.15048, -0.06555, -0.96915,
 10:46:28.909,f6:90:cc:01:6d:25, 2015-01-01 00:11:16.260, 0.916, -0.143, 0.34, 0.305, -0.549, -0.061, -23.033, -68.126, -135.242, -30.560, -8.073, -5.313, 28.73, 0.20517, -0.57031, -0.05548, -0.7934,
 10:46:28.909,f6:90:cc:01:6d:25, 2015-01-01 00:11:16.260, 0.916, -0.144, 0.34, 0.183, -0.549, 0, -23.033, -68.137, -135.225, -30.560, -8.073, -5.313, 28.73, 0.20517, -0.57031, -0.05548, -0.7934,
 10:46:28.912,e3:ca:2d:fd:e0:8c, 2015-01-01 00:10:46.005, 0.956, -0.078, 0.35, 0.061, -0.305, 0, -12.689, -69.461, -175.199, -26.460, -9.653, -11.480, 25.53, -0.02908, -0.56943, 0.06738, -0.8187,
 10:46:28.912,e3:ca:2d:fd:e0:8c, 2015-01-01 00:10:46.005, 0.956, -0.078, 0.351, 0, -0.305, 0, -12.689, -69.467, -175.199, -26.460, -9.653, -11.480, 25.53, -0.02908, -0.56943, 0.06738, -0.8187,
 10:46:28.932,ed:40:fe:65:30:6c, 2015-01-01 00:11:07.345, 0.321, 0.056, 0.947, 0, -0.793, -0.427, 3.032, -19.138, -142.399, -11.153, -10.933, -9.453, 24.81, 0.32205, -0.14865, -0.07812, -0.93164,
 10:46:28.932,ed:40:fe:65:30:6c, 2015-01-01 00:11:07.345, 0.321, 0.055, 0.945, -0.488, -0.854, -0.793, 3.038, -19.149, -142.399, -11.153, -10.933, -9.453, 24.81, 0.32205, -0.14865, -0.07812, -0.93164,
 10:46:28.932,f6:90:cc:01:6d:25, 2015-01-01 00:11:16.640, 0.916, -0.144, 0.34, 0, -0.549, -0.061, -23.044, -68.143, -135.203, -30.560, -8.073, -5.313, 28.73, 0.20517, -0.57031, -0.05548, -0.7934,
 10:46:28.932,f6:90:cc:01:6d:25, 2015-01-01 00:11:16.640, 0.917, -0.146, 0.34, 0, -0.549, 0, -23.049, -68.154, -135.17, -30.560, -8.073, -5.313, 28.73, 0.20517, -0.57031, -0.05548, -0.7934,
 10:46:28.933,ed:35:33:d3:6c:f8, 2015-01-01 00:12:00.035, 0.317, 0.076, 0.94, 0.488, -1.465, -0.61, 4.384, -18.452, -159.28, -10.300, -13.567, -16.200, 28.54, 0.18356, -0.15048, -0.06555, -0.96915,
 10:46:28.933,ed:35:33:d3:6c:f8, 2015-01-01 00:12:00.035, 0.314, 0.077, 0.939, 0.61, -1.099, -0.549, 4.4, -18.479, -159.285, -10.300, -13.567, -16.200, 28.54, 0.18356, -0.15048, -0.06555, -0.96915,
 10:46:28.954,f6:90:cc:01:6d:25, 2015-01-01 00:11:16.640, 0.917, -0.146, 0.34, 0, -0.427, 0, -23.06, -68.165, -135.148, -30.560, -8.073, -5.313, 28.73, 0.20517, -0.57031, -0.05548, -0.7934,
 10:46:28.954,f6:90:cc:01:6d:25, 2015-01-01 00:11:16.640, 0.916, -0.146, 0.34, 0, -0.366, 0, -23.066, -68.17, -135.132, -30.560, -8.073, -5.313, 28.73, 0.20517, -0.57031, -0.05548, -0.7934,
 10:46:28.955,ed:40:fe:65:30:6c, 2015-01-01 00:11:07.700, 0.324, 0.056, 0.944, -0.793, -0.793, -0.854, 3.032, -19.155, -142.405, -11.153, -10.933, -9.453, 24.81, 0.32205, -0.14865, -0.07812, -0.93164,
 10:46:28.955,ed:40:fe:65:30:6c, 2015-01-01 00:11:07.700, 0.322, 0.056, 0.946, -0.549, -0.549, -0.61, 3.027, -19.166, -142.421, -11.153, -10.933, -9.453, 24.81, 0.32205, -0.14865, -0.07812, -0.93164,
 10:46:28.957,e3:ca:2d:fd:e0:8c, 2015-01-01 00:10:46.410, 0.956, -0.078, 0.352, 0, -0.366, 0, -12.689, -69.472, -175.226, -26.460, -9.653, -11.480, 25.53, -0.02908, -0.56943, 0.06738, -0.8187,
 10:46:28.957,e3:ca:2d:fd:e0:8c, 2015-01-01 00:10:46.410, 0.955, -0.078, 0.351, 0, -0.366, 0, -12.695, -69.478, -175.27, -26.460, -9.653, -11.480, 25.53, -0.02908, -0.56943, 0.06738, -0.8187,
 10:46:28.979,ed:40:fe:65:30:6c, 2015-01-01 00:11:07.700, 0.323, 0.054, 0.947, -0.427, -0.427, -0.549, 3.027, -19.166, -142.449, -11.153, -10.933, -9.453, 24.81, 0.32205, -0.14865, -0.07812, -0.93164,
 10:46:28.979,ed:40:fe:65:30:6c, 2015-01-01 00:11:07.700, 0.323, 0.054, 0.945, -0.244, -0.366, -0.427, 3.027, -19.166, -142.471, -11.153, -10.933, -9.453, 24.81, 0.32205, -0.14865, -0.07812, -0.93164,
 10:46:28.979,ed:35:33:d3:6c:f8, 2015-01-01 00:12:00.415, 0.316, 0.076, 0.943, 0.732, -0.732, -0.427, 4.422, -18.495, -159.296, -10.300, -13.567, -16.200, 28.54, 0.18356, -0.15048, -0.06555, -0.96915,
 10:46:28.980,ed:35:33:d3:6c:f8, 2015-01-01 00:12:00.415, 0.317, 0.076, 0.94, 0.366, -0.61, -0.427, 4.438, -18.506, -159.296, -10.300, -13.567, -16.200, 28.54, 0.18356, -0.15048, -0.06555, -0.96915,
 10:46:28.999,f6:90:cc:01:6d:25, 2015-01-01 00:11:16.640, 0.917, -0.146, 0.34, 0, -0.366, 0, -23.077, -68.176, -135.11, -30.560, -8.073, -5.313, 28.73, 0.20517, -0.57031, -0.05548, -0.7934,
 10:46:28.999,f6:90:cc:01:6d:25, 2015-01-01 00:11:16.640, 0.917, -0.146, 0.339, 0.183, -0.305, -0.061, -23.082, -68.176, -135.093, -30.560, -8.073, -5.313, 28.73, 0.20517, -0.57031, -0.05548, -0.7934,
 10:46:29.003,e3:ca:2d:fd:e0:8c, 2015-01-01 00:10:46.410, 0.956, -0.079, 0.351, 0, -0.366, 0, -12.695, -69.483, -175.314, -26.460, -9.653, -11.480, 25.53, -0.02908, -0.56943, 0.06738, -0.8187,
 10:46:29.003,e3:ca:2d:fd:e0:8c, 2015-01-01 00:10:46.410, 0.956, -0.079, 0.351, 0, -0.366, 0, -12.7, -69.489, -175.358, -26.460, -9.653, -11.480, 25.53, -0.02908, -0.56943, 0.06738, -0.8187,
 10:46:29.023,ed:40:fe:65:30:6c, 2015-01-01 00:11:07.700, 0.324, 0.054, 0.944, -0.061, -0.122, -0.183, 3.032, -19.166, -142.476, -11.153, -10.933, -9.453, 24.81, 0.32205, -0.14865, -0.07812, -0.93164,
 10:46:29.023,ed:40:fe:65:30:6c, 2015-01-01 00:11:07.700, 0.326, 0.055, 0.944, 0.183, 0, 0.183, 3.038, -19.16, -142.476, -11.153, -10.933, -9.453, 24.81, 0.32205, -0.14865, -0.07812, -0.93164,
 10:46:29.024,ed:35:33:d3:6c:f8, 2015-01-01 00:12:00.415, 0.316, 0.077, 0.939, 0.305, -0.183, -0.305, 4.449, -18.512, -159.28, -10.300, -13.567, -16.200, 28.54, 0.18356, -0.15048, -0.06555, -0.96915,
 10:46:29.024,ed:35:33:d3:6c:f8, 2015-01-01 00:12:00.415, 0.319, 0.079, 0.939, 0.732, -0.244, 0.061, 4.46, -18.517, -159.258, -10.300, -13.567, -16.200, 28.54, 0.18356, -0.15048, -0.06555, -0.96915,
 10:46:29.045,f6:90:cc:01:6d:25, 2015-01-01 00:11:16.640, 0.917, -0.146, 0.337, 0.244, -0.183, -0.122, -23.077, -68.181, -135.082, -30.560, -8.073, -5.313, 28.73, 0.20517, -0.57031, -0.05548, -0.7934,
 10:46:29.045,f6:90:cc:01:6d:25, 2015-01-01 00:11:16.640, 0.917, -0.146, 0.336, 0.183, 0, -0.061, -23.071, -68.181, -135.077, -30.560, -8.073, -5.313, 28.73, 0.20517, -0.57031, -0.05548, -0.7934,
 10:46:29.046,ed:35:33:d3:6c:f8, 2015-01-01 00:12:00.415, 0.321, 0.073, 0.937, 1.038, -0.427, 0.244, 4.477, -18.523, -159.241, -10.300, -13.567, -16.200, 28.54, 0.18356, -0.15048, -0.06555, -0.96915,
 10:46:29.046,ed:35:33:d3:6c:f8, 2015-01-01 00:12:00.415, 0.32, 0.075, 0.939, 0.793, 0.061, 0.122, 4.499, -18.528, -159.236, -10.300, -13.567, -16.200, 28.54, 0.18356, -0.15048, -0.06555, -0.96915,
 10:46:29.047,e3:ca:2d:fd:e0:8c, 2015-01-01 00:10:46.410, 0.957, -0.079, 0.349, 0, -0.305, 0, -12.7, -69.494, -175.402, -26.460, -9.653, -11.480, 25.53, -0.02908, -0.56943, 0.06738, -0.8187,
 10:46:29.047,e3:ca:2d:fd:e0:8c, 2015-01-01 00:10:46.410, 0.957, -0.078, 0.349, 0.061, -0.183, 0, -12.7, -69.5, -175.446, -26.460, -9.653, -11.480, 25.53, -0.02908, -0.56943, 0.06738, -0.8187,
 10:46:29.067,ed:40:fe:65:30:6c, 2015-01-01 00:11:07.700, 0.326, 0.052, 0.942, 0, 0.549, 0.122, 3.038, -19.149, -142.471, -11.153, -10.933, -9.453, 24.81, 0.32205, -0.14865, -0.07812, -0.93164,
 10:46:29.067,ed:40:fe:65:30:6c, 2015-01-01 00:11:07.700, 0.326, 0.054, 0.945, 0, 0.732, 0, 3.043, -19.133, -142.465, -11.153, -10.933, -9.453, 24.81, 0.32205, -0.14865, -0.07812, -0.93164,
 10:46:29.071,e3:ca:2d:fd:e0:8c, 2015-01-01 00:10:46.410, 0.958, -0.079, 0.348, 0, -0.183, 0, -12.7, -69.505, -175.49, -26.460, -9.653, -11.480, 25.53, -0.02908, -0.56943, 0.06738, -0.8187,
 10:46:29.071,e3:ca:2d:fd:e0:8c, 2015-01-01 00:10:46.410, 0.959, -0.078, 0.348, 0, -0.183, 0, -12.706, -69.505, -175.534, -26.460, -9.653, -11.480, 25.53, -0.02908, -0.56943, 0.06738, -0.8187,
 10:46:29.089,f6:90:cc:01:6d:25, 2015-01-01 00:11:16.640, 0.918, -0.145, 0.336, 0.183, 0.061, -0.122, -23.066, -68.181, -135.071, -30.560, -8.073, -5.313, 28.73, 0.20517, -0.57031, -0.05548, -0.7934,
 10:46:29.089,f6:90:cc:01:6d:25, 2015-01-01 00:11:16.640, 0.92, -0.144, 0.335, 0.122, 0, -0.061, -23.06, -68.181, -135.066, -30.560, -8.073, -5.313, 28.73, 0.20517, -0.57031, -0.05548, -0.7934,
 10:46:29.092,ed:35:33:d3:6c:f8, 2015-01-01 00:12:00.415, 0.321, 0.081, 0.943, 0.488, 0.122, 0.244, 4.51, -18.523, -159.241, -10.300, -13.567, -16.200, 28.54, 0.18356, -0.15048, -0.06555, -0.96915,
 10:46:29.092,ed:35:33:d3:6c:f8, 2015-01-01 00:12:00.415, 0.322, 0.084, 0.942, 0.061, 0, 0.488, 4.515, -18.528, -159.241, -10.300, -13.567, -16.200, 28.54, 0.18356, -0.15048, -0.06555, -0.96915,
 10:46:29.116,e3:ca:2d:fd:e0:8c, 2015-01-01 00:10:46.410, 0.959, -0.077, 0.347, 0, -0.122, 0, -12.706, -69.51, -175.578, -26.460, -9.653, -11.480, 25.53, -0.02908, -0.56943, 0.06738, -0.8187,
 10:46:29.117,e3:ca:2d:fd:e0:8c, 2015-01-01 00:10:46.410, 0.96, -0.078, 0.346, 0.061, -0.122, 0, -12.706, -69.51, -175.622, -26.460, -9.653, -11.480, 25.53, -0.02908, -0.56943, 0.06738, -0.8187,
 10:46:29.135,f6:90:cc:01:6d:25, 2015-01-01 00:11:16.640, 0.921, -0.143, 0.335, 0.305, 0, 0, -23.055, -68.181, -135.055, -30.560, -8.073, -5.313, 28.73, 0.20517, -0.57031, -0.05548, -0.7934,
 10:46:29.135,f6:90:cc:01:6d:25, 2015-01-01 00:11:16.640, 0.92, -0.143, 0.337, 0.427, -0.061, 0, -23.049, -68.181, -135.044, -30.560, -8.073, -5.313, 28.73, 0.20517, -0.57031, -0.05548, -0.7934,
 10:46:29.135,ed:40:fe:65:30:6c, 2015-01-01 00:11:07.700, 0.327, 0.058, 0.945, 0, 0.366, 0.061, 3.043, -19.122, -142.465, -11.153, -10.933, -9.453, 24.81, 0.32205, -0.14865, -0.07812, -0.93164,
 10:46:29.135,ed:40:fe:65:30:6c, 2015-01-01 00:11:07.700, 0.328, 0.059, 0.945, -0.061, -0.122, 0.488, 3.043, -19.122, -142.465, -11.153, -10.933, -9.453, 24.81, 0.32205, -0.14865, -0.07812, -0.93164,
 10:46:29.136,ed:35:33:d3:6c:f8, 2015-01-01 00:12:00.415, 0.322, 0.081, 0.94, 0, 0.061, 0.793, 4.515, -18.528, -159.252, -10.300, -13.567, -16.200, 28.54, 0.18356, -0.15048, -0.06555, -0.96915,
 10:46:29.136,ed:35:33:d3:6c:f8, 2015-01-01 00:12:00.415, 0.323, 0.082, 0.942, 0.122, 0.427, 0.793, 4.515, -18.528, -159.252, -10.300, -13.567, -16.200, 28.54, 0.18356, -0.15048, -0.06555, -0.96915,
 10:46:29.157,f6:90:cc:01:6d:25, 2015-01-01 00:11:16.640, 0.917, -0.144, 0.334, 0.793, 0, 0.061, -23.044, -68.181, -135.033, -30.420, -8.140, -5.153, 28.73, 0.20517, -0.57031, -0.05548, -0.7934,
 10:46:29.157,f6:90:cc:01:6d:25, 2015-01-01 00:11:16.640, 0.916, -0.145, 0.337, 1.099, 0.122, 0, -23.027, -68.181, -135.022, -30.420, -8.140, -5.153, 28.73, 0.20517, -0.57031, -0.05548, -0.7934,
 10:46:29.158,ed:40:fe:65:30:6c, 2015-01-01 00:11:07.700, 0.328, 0.058, 0.946, 0.122, -0.122, 0.732, 3.049, -19.122, -142.454, -11.787, -10.600, -9.307, 24.81, 0.32205, -0.14865, -0.07812, -0.93164,
 10:46:29.158,ed:40:fe:65:30:6c, 2015-01-01 00:11:07.700, 0.327, 0.058, 0.947, 0.549, -0.122, 0.793, 3.054, -19.122, -142.427, -11.787, -10.600, -9.307, 24.81, 0.32205, -0.14865, -0.07812, -0.93164,
 10:46:29.161,e3:ca:2d:fd:e0:8c, 2015-01-01 00:10:46.410, 0.957, -0.078, 0.347, 0.122, -0.061, 0, -12.706, -69.516, -175.666, -27.007, -9.847, -12.313, 25.53, -0.02908, -0.56943, 0.06738, -0.8187,
 10:46:29.161,e3:ca:2d:fd:e0:8c, 2015-01-01 00:10:46.410, 0.955, -0.079, 0.349, 0.305, 0.061, 0, -12.7, -69.516, -175.704, -27.007, -9.847, -12.313, 25.53, -0.02908, -0.56943, 0.06738, -0.8187,
 10:46:29.202,f6:90:cc:01:6d:25, 2015-01-01 00:11:16.640, 0.918, -0.141, 0.335, 0.854, 0.305, 0.183, -23.011, -68.176, -135.011, -30.420, -8.140, -5.153, 28.73, 0.20517, -0.57031, -0.05548, -0.7934,
 10:46:29.202,f6:90:cc:01:6d:25, 2015-01-01 00:11:16.640, 0.919, -0.141, 0.337, 0.977, 0.305, 0.183, -22.994, -68.17, -135, -30.420, -8.140, -5.153, 28.73, 0.20517, -0.57031, -0.05548, -0.7934,
 10:46:29.204,ed:35:33:d3:6c:f8, 2015-01-01 00:12:00.415, 0.319, 0.078, 0.938, 0.366, 0.61, 1.038, 4.515, -18.517, -159.252, -10.300, -13.567, -16.200, 28.54, 0.18356, -0.15048, -0.06555, -0.96915,
 10:46:29.204,ed:35:33:d3:6c:f8, 2015-01-01 00:12:00.415, 0.321, 0.078, 0.936, 0.488, 0.977, 1.221, 4.521, -18.506, -159.236, -10.300, -13.567, -16.200, 28.54, 0.18356, -0.15048, -0.06555, -0.96915,
 10:46:29.204,ed:40:fe:65:30:6c, 2015-01-01 00:11:07.700, 0.324, 0.054, 0.942, 0.854, -0.061, 1.16, 3.065, -19.122, -142.399, -11.787, -10.600, -9.307, 24.81, 0.32205, -0.14865, -0.07812, -0.93164,
 10:46:29.204,ed:40:fe:65:30:6c, 2015-01-01 00:11:07.700, 0.328, 0.057, 0.942, 1.16, 0, 1.282, 3.082, -19.122, -142.377, -11.787, -10.600, -9.307, 24.81, 0.32205, -0.14865, -0.07812, -0.93164,
 10:46:29.206,e3:ca:2d:fd:e0:8c, 2015-01-01 00:10:46.410, 0.958, -0.077, 0.349, 0.244, 0.061, 0, -12.695, -69.516, -175.748, -27.007, -9.847, -12.313, 25.53, -0.02908, -0.56943, 0.06738, -0.8187,
 10:46:29.206,e3:ca:2d:fd:e0:8c, 2015-01-01 00:10:46.410, 0.958, -0.076, 0.348, 0.061, 0.122, 0, -12.689, -69.516, -175.792, -27.007, -9.847, -12.313, 25.53, -0.02908, -0.56943, 0.06738, -0.8187,
 10:46:29.229,ed:40:fe:65:30:6c, 2015-01-01 00:11:07.700, 0.327, 0.059, 0.944, 1.16, 0, 0.916, 3.104, -19.122, -142.361, -11.787, -10.600, -9.307, 24.81, 0.32214, -0.14859, -0.07877, -0.93158,
 10:46:29.229,ed:40:fe:65:30:6c, 2015-01-01 00:11:07.700, 0.326, 0.055, 0.944, 1.404, -0.671, 1.282, 3.126, -19.133, -142.333, -11.787, -10.600, -9.307, 24.81, 0.32214, -0.14859, -0.07877, -0.93158,
 10:46:29.249,ed:35:33:d3:6c:f8, 2015-01-01 00:12:00.415, 0.321, 0.078, 0.939, 0.488, 1.282, 1.038, 4.526, -18.49, -159.219, -10.553, -13.560, -16.173, 28.54, 0.18356, -0.15048, -0.06555, -0.96915,
 10:46:29.249,ed:35:33:d3:6c:f8, 2015-01-01 00:12:00.415, 0.321, 0.08, 0.942, 0.427, 1.038, 1.221, 4.526, -18.474, -159.197, -10.553, -13.560, -16.173, 28.54, 0.18356, -0.15048, -0.06555, -0.96915,
 10:46:29.250,e3:ca:2d:fd:e0:8c, 2015-01-01 00:10:46.410, 0.957, -0.078, 0.348, 0.183, 0.183, 0, -12.684, -69.51, -175.836, -27.007, -9.847, -12.313, 25.53, -0.03302, -0.56955, 0.06995, -0.81827,
 10:46:29.250,e3:ca:2d:fd:e0:8c, 2015-01-01 00:10:46.410, 0.957, -0.079, 0.349, 0.244, 0.183, 0, -12.678, -69.51, -175.88, -27.007, -9.847, -12.313, 25.53, -0.03302, -0.56955, 0.06995, -0.81827,
 10:46:29.271,ed:40:fe:65:30:6c, 2015-01-01 00:11:07.700, 0.324, 0.054, 0.944, 2.197, -1.892, 2.502, 3.153, -19.166, -142.289, -11.787, -10.600, -9.307, 24.81, 0.32214, -0.14859, -0.07877, -0.93158,
 10:46:29.271,ed:40:fe:65:30:6c, 2015-01-01 00:11:07.700, 0.326, 0.056, 0.949, 3.235, -3.54, 3.296, 3.197, -19.226, -142.224, -11.787, -10.600, -9.307, 24.81, 0.32214, -0.14859, -0.07877, -0.93158,
 10:46:29.273,e3:ca:2d:fd:e0:8c, 2015-01-01 00:10:46.765, 0.956, -0.078, 0.349, 0.366, -0.183, 0.366, -12.673, -69.505, -175.919, -27.007, -9.847, -12.313, 25.53, -0.03302, -0.56955, 0.06995, -0.81827,
 10:46:29.273,e3:ca:2d:fd:e0:8c, 2015-01-01 00:10:46.765, 0.955, -0.077, 0.351, 0.549, -0.427, 0.488, -12.689, -69.51, -175.935, -27.007, -9.847, -12.313, 25.53, -0.03302, -0.56955, 0.06995, -0.81827,
 10:46:29.292,f6:90:cc:01:6d:25, 2015-01-01 00:11:16.640, 0.918, -0.145, 0.338, 1.16, 0.183, 0.122, -22.978, -68.165, -135.005, -30.420, -8.140, -5.153, 28.73, 0.20721, -0.57059, -0.05753, -0.79251,
 10:46:29.292,f6:90:cc:01:6d:25, 2015-01-01 00:11:16.640, 0.917, -0.144, 0.341, 1.282, 0, 0.122, -22.956, -68.165, -135.011, -30.420, -8.140, -5.153, 28.73, 0.20721, -0.57059, -0.05753, -0.79251,
 10:46:29.294,ed:35:33:d3:6c:f8, 2015-01-01 00:12:00.415, 0.318, 0.079, 0.943, 0.61, 1.038, 2.075, 4.532, -18.457, -159.164, -10.553, -13.560, -16.173, 28.54, 0.18356, -0.15048, -0.06555, -0.96915,
 10:46:29.294,ed:35:33:d3:6c:f8, 2015-01-01 00:12:00.415, 0.315, 0.079, 0.946, 1.648, 2.075, 2.869, 4.537, -18.435, -159.109, -10.553, -13.560, -16.173, 28.54, 0.18356, -0.15048, -0.06555, -0.96915,
 10:46:29.313,f6:90:cc:01:6d:25, 2015-01-01 00:11:16.995, 0.915, -0.143, 0.343, 1.77, -0.305, 0.122, -22.939, -68.165, -135.005, -30.420, -8.140, -5.153, 28.73, 0.20721, -0.57059, -0.05753, -0.79251,
 10:46:29.313,f6:90:cc:01:6d:25, 2015-01-01 00:11:16.995, 0.915, -0.144, 0.344, 2.197, -0.305, 0.183, -22.912, -68.17, -134.995, -30.420, -8.140, -5.153, 28.73, 0.20721, -0.57059, -0.05753, -0.79251,
 10:46:29.315,ed:40:fe:65:30:6c, 2015-01-01 00:11:08.060, 0.324, 0.06, 0.944, 4.395, -3.845, 3.723, 3.257, -19.303, -142.147, -11.787, -10.600, -9.307, 24.81, 0.32214, -0.14859, -0.07877, -0.93158,
