Time,Device name,Chip Time(),Acceleration X(g),Acceleration Y(g),Acceleration Z(g),Angular velocity X(°/s),Angular velocity Y(°/s),Angular velocity Z(°/s),Angle X(°),Angle Y(°),Angle Z(°),Magnetic field X(ʯt),Magnetic field Y(ʯt),Magnetic field Z(ʯt),Temperature(℃),Quaternions 0(),Quaternions 1(),Quaternions 2(),Quaternions 3()
 15:09:01.792,e3:ca:2d:fd:e0:8c, 2015-01-01 00:39:10.930, 0.973, -0.16, 0.27, -0.61, -0.427, 0, -30.558, -72.092, -161.136, -27.540, -9.780, -10.580, 30.28, 0.02457, 0.59445, -0.11646, 0.7952,
 15:09:01.793,e3:ca:2d:fd:e0:8c, 2015-01-01 00:39:10.930, 0.974, -0.161, 0.27, -0.854, -0.549, 0, -30.58, -72.103, -161.125, -27.540, -9.780, -10.580, 30.28, 0.02457, 0.59445, -0.11646, 0.7952,
 15:09:01.794,ed:35:33:d3:6c:f8, 2015-01-01 00:39:09.965, -0.131, -0.093, 0.987, -0.122, 0.732, 0.488, -5.526, 7.015, -166.981, 1.280, -7.227, -33.953, 27.53, 0.10989, 0.05359, 0.05563, -0.99088,
 15:09:01.794,ed:35:33:d3:6c:f8, 2015-01-01 00:39:09.965, -0.133, -0.091, 0.989, 0.061, 0.122, 0.427, -5.526, 7.026, -166.943, 1.280, -7.227, -33.953, 27.53, 0.10989, 0.05359, 0.05563, -0.99088,
 15:09:01.794,f6:90:cc:01:6d:25, 2015-01-01 00:39:05.175, 0.952, -0.055, 0.256, -1.831, 0.122, -0.122, -12.404, -74.608, -151.968, -29.993, -12.820, -2.833, 33.2, 0.12823, -0.60562, -0.06314, -0.78275,
 15:09:01.794,f6:90:cc:01:6d:25, 2015-01-01 00:39:05.175, 0.952, -0.054, 0.257, -2.502, 0, -0.122, -12.431, -74.608, -151.99, -29.993, -12.820, -2.833, 33.2, 0.12823, -0.60562, -0.06314, -0.78275,
 15:09:01.818,f6:90:cc:01:6d:25, 2015-01-01 00:39:05.175, 0.952, -0.055, 0.256, -2.808, -0.061, -0.061, -12.469, -74.608, -152.018, -29.993, -12.820, -2.833, 33.2, 0.12823, -0.60562, -0.06314, -0.78275,
 15:09:01.818,f6:90:cc:01:6d:25, 2015-01-01 00:39:05.175, 0.953, -0.056, 0.253, -2.38, 0, 0, -12.519, -74.608, -152.04, -29.993, -12.820, -2.833, 33.2, 0.12823, -0.60562, -0.06314, -0.78275,
 15:09:01.818,ed:35:33:d3:6c:f8, 2015-01-01 00:39:09.965, -0.126, -0.09, 0.991, 0.549, -0.305, 0.183, -5.515, 7.026, -166.899, 1.280, -7.227, -33.953, 27.53, 0.11646, 0.05536, 0.05475, -0.99008,
 15:09:01.818,ed:35:33:d3:6c:f8, 2015-01-01 00:39:09.965, -0.122, -0.087, 0.988, 0.977, -0.366, -0.183, -5.493, 7.026, -166.866, 1.280, -7.227, -33.953, 27.53, 0.11646, 0.05536, 0.05475, -0.99008,
 15:09:01.836,e3:ca:2d:fd:e0:8c, 2015-01-01 00:39:10.930, 0.974, -0.16, 0.27, -0.916, -0.61, 0, -30.619, -72.109, -161.115, -27.540, -9.780, -10.580, 30.28, 0.02457, 0.59445, -0.11646, 0.7952,
 15:09:01.836,e3:ca:2d:fd:e0:8c, 2015-01-01 00:39:10.930, 0.975, -0.159, 0.268, -0.671, -0.549, 0, -30.652, -72.12, -161.098, -27.540, -9.780, -10.580, 30.28, 0.02457, 0.59445, -0.11646, 0.7952,
 15:09:01.840,ed:40:fe:65:30:6c, 2015-01-01 00:39:01.760, 0.768, -0.029, 0.649, -0.977, 0.793, -0.427, -2.917, -49.96, -120.482, -24.267, -8.067, -1.840, 28.05, 0.44067, -0.3786, -0.19016, -0.79132,
 15:09:01.840,ed:40:fe:65:30:6c, 2015-01-01 00:39:01.760, 0.77, -0.029, 0.647, -1.16, 0.793, -0.488, -2.928, -49.944, -120.493, -24.267, -8.067, -1.840, 28.05, 0.44067, -0.3786, -0.19016, -0.79132,
 15:09:01.861,f6:90:cc:01:6d:25, 2015-01-01 00:39:05.175, 0.953, -0.058, 0.254, -1.892, 0.122, 0, -12.563, -74.608, -152.04, -29.993, -12.820, -2.833, 33.2, 0.12823, -0.60562, -0.06314, -0.78275,
 15:09:01.861,f6:90:cc:01:6d:25, 2015-01-01 00:39:05.175, 0.951, -0.059, 0.256, -1.587, 0.183, 0, -12.59, -74.603, -152.029, -29.993, -12.820, -2.833, 33.2, 0.12823, -0.60562, -0.06314, -0.78275,
 15:09:01.863,ed:40:fe:65:30:6c, 2015-01-01 00:39:01.760, 0.77, -0.03, 0.645, -1.038, 0.732, -0.427, -2.933, -49.927, -120.504, -24.267, -8.067, -1.840, 28.05, 0.44067, -0.3786, -0.19016, -0.79132,
 15:09:01.863,ed:40:fe:65:30:6c, 2015-01-01 00:39:01.760, 0.769, -0.031, 0.647, -0.793, 0.549, -0.244, -2.939, -49.911, -120.509, -24.267, -8.067, -1.840, 28.05, 0.44067, -0.3786, -0.19016, -0.79132,
 15:09:01.882,ed:35:33:d3:6c:f8, 2015-01-01 00:39:09.965, -0.125, -0.083, 0.988, 0.916, -0.549, -0.427, -5.471, 7.02, -166.844, 1.280, -7.227, -33.953, 27.53, 0.11646, 0.05536, 0.05475, -0.99008,
 15:09:01.882,ed:35:33:d3:6c:f8, 2015-01-01 00:39:09.965, -0.125, -0.083, 0.989, 0.854, -0.977, -0.61, -5.455, 7.004, -166.827, 1.280, -7.227, -33.953, 27.53, 0.11646, 0.05536, 0.05475, -0.99008,
 15:09:01.903,e3:ca:2d:fd:e0:8c, 2015-01-01 00:39:10.930, 0.973, -0.161, 0.27, -0.305, -0.366, 0, -30.679, -72.131, -161.087, -27.727, -9.793, -10.180, 30.28, 0.02457, 0.59445, -0.11646, 0.7952,
 15:09:01.903,e3:ca:2d:fd:e0:8c, 2015-01-01 00:39:10.930, 0.972, -0.161, 0.271, -0.122, -0.183, 0, -30.69, -72.131, -161.082, -27.727, -9.793, -10.180, 30.28, 0.02457, 0.59445, -0.11646, 0.7952,
 15:09:01.905,ed:35:33:d3:6c:f8, 2015-01-01 00:39:10.300, -0.125, -0.086, 0.99, 0.549, -1.099, 0, -5.433, 6.987, -166.811, 1.280, -7.227, -33.953, 27.53, 0.11646, 0.05536, 0.05475, -0.99008,
 15:09:01.905,ed:35:33:d3:6c:f8, 2015-01-01 00:39:10.300, -0.118, -0.088, 0.987, 0.854, -1.038, 0.488, -5.416, 6.971, -166.772, 1.280, -7.227, -33.953, 27.53, 0.11646, 0.05536, 0.05475, -0.99008,
 15:09:01.906,f6:90:cc:01:6d:25, 2015-01-01 00:39:05.175, 0.952, -0.058, 0.256, -1.221, 0.305, 0.061, -12.618, -74.603, -152.023, -29.993, -12.820, -2.833, 33.2, 0.12823, -0.60562, -0.06314, -0.78275,
 15:09:01.906,f6:90:cc:01:6d:25, 2015-01-01 00:39:05.175, 0.954, -0.057, 0.256, -1.16, 0.366, 0.122, -12.64, -74.592, -152.012, -29.993, -12.820, -2.833, 33.2, 0.12823, -0.60562, -0.06314, -0.78275,
 15:09:01.909,ed:40:fe:65:30:6c, 2015-01-01 00:39:01.760, 0.767, -0.034, 0.648, -0.427, 0.488, -0.061, -2.944, -49.9, -120.52, -24.053, -8.720, -1.547, 28.05, 0.44067, -0.3786, -0.19016, -0.79132,
 15:09:01.909,ed:40:fe:65:30:6c, 2015-01-01 00:39:01.760, 0.771, -0.032, 0.646, -0.366, 0.488, -0.061, -2.95, -49.894, -120.515, -24.053, -8.720, -1.547, 28.05, 0.44067, -0.3786, -0.19016, -0.79132,
 15:09:01.926,e3:ca:2d:fd:e0:8c, 2015-01-01 00:39:10.930, 0.974, -0.162, 0.27, -0.061, -0.122, 0, -30.696, -72.136, -161.076, -27.727, -9.793, -10.180, 30.28, 0.02563, 0.59518, -0.11774, 0.79443,
 15:09:01.926,e3:ca:2d:fd:e0:8c, 2015-01-01 00:39:10.930, 0.974, -0.161, 0.27, -0.061, -0.183, 0, -30.701, -72.136, -161.076, -27.727, -9.793, -10.180, 30.28, 0.02563, 0.59518, -0.11774, 0.79443,
 15:09:01.929,ed:35:33:d3:6c:f8, 2015-01-01 00:39:10.300, -0.121, -0.088, 0.987, 0.671, -0.488, 0.549, -5.394, 6.96, -166.718, 1.280, -7.227, -33.953, 27.53, 0.11646, 0.05536, 0.05475, -0.99008,
 15:09:01.929,ed:35:33:d3:6c:f8, 2015-01-01 00:39:10.300, -0.127, -0.086, 0.989, 0.427, 0.122, 0.61, -5.383, 6.965, -166.69, 1.280, -7.227, -33.953, 27.53, 0.11646, 0.05536, 0.05475, -0.99008,
 15:09:01.930,ed:40:fe:65:30:6c, 2015-01-01 00:39:01.760, 0.77, -0.033, 0.644, -0.244, 0.732, -0.061, -2.95, -49.878, -120.498, -24.053, -8.720, -1.547, 28.05, 0.44034, -0.37753, -0.18884, -0.79233,
 15:09:01.930,ed:40:fe:65:30:6c, 2015-01-01 00:39:01.760, 0.766, -0.033, 0.648, 0, 0.793, -0.183, -2.95, -49.867, -120.487, -24.053, -8.720, -1.547, 28.05, 0.44034, -0.37753, -0.18884, -0.79233,
 15:09:01.951,f6:90:cc:01:6d:25, 2015-01-01 00:39:05.175, 0.953, -0.058, 0.257, -1.038, 0.427, 0.183, -12.667, -74.586, -152.012, -29.993, -12.820, -2.833, 33.2, 0.12823, -0.60562, -0.06314, -0.78275,
 15:09:01.951,f6:90:cc:01:6d:25, 2015-01-01 00:39:05.175, 0.952, -0.061, 0.259, -1.099, 0.488, 0.061, -12.689, -74.575, -152.012, -29.993, -12.820, -2.833, 33.2, 0.12823, -0.60562, -0.06314, -0.78275,
 15:09:01.973,ed:35:33:d3:6c:f8, 2015-01-01 00:39:10.300, -0.128, -0.087, 0.988, 0.549, 0.183, 0.549, -5.367, 6.971, -166.663, 1.280, -7.227, -33.953, 27.53, 0.11646, 0.05536, 0.05475, -0.99008,
 15:09:01.973,ed:35:33:d3:6c:f8, 2015-01-01 00:39:10.300, -0.128, -0.091, 0.991, 0.488, -0.122, 0.549, -5.35, 6.971, -166.641, 1.280, -7.227, -33.953, 27.53, 0.11646, 0.05536, 0.05475, -0.99008,
 15:09:01.975,ed:40:fe:65:30:6c, 2015-01-01 00:39:01.760, 0.767, -0.034, 0.652, 0.366, 1.099, -0.122, -2.939, -49.845, -120.471, -24.053, -8.720, -1.547, 28.05, 0.44034, -0.37753, -0.18884, -0.79233,
 15:09:01.975,ed:40:fe:65:30:6c, 2015-01-01 00:39:01.760, 0.764, -0.039, 0.65, 0.732, 1.038, 0, -2.928, -49.823, -120.46, -24.053, -8.720, -1.547, 28.05, 0.44034, -0.37753, -0.18884, -0.79233,
 15:09:01.994,e3:ca:2d:fd:e0:8c, 2015-01-01 00:39:10.930, 0.972, -0.16, 0.271, 0, -0.122, 0, -30.707, -72.142, -161.076, -27.727, -9.793, -10.180, 30.28, 0.02563, 0.59518, -0.11774, 0.79443,
 15:09:01.994,e3:ca:2d:fd:e0:8c, 2015-01-01 00:39:10.930, 0.973, -0.162, 0.271, 0, -0.244, 0, -30.712, -72.142, -161.076, -27.727, -9.793, -10.180, 30.28, 0.02563, 0.59518, -0.11774, 0.79443,
 15:09:02.016,e3:ca:2d:fd:e0:8c, 2015-01-01 00:39:11.310, 0.972, -0.16, 0.271, 0, -0.305, 0, -30.723, -72.147, -161.071, -27.727, -9.793, -10.180, 30.28, 0.02563, 0.59518, -0.11774, 0.79443,
 15:09:02.016,e3:ca:2d:fd:e0:8c, 2015-01-01 00:39:11.310, 0.971, -0.161, 0.27, 0.305, -0.305, 0, -30.729, -72.147, -161.065, -27.727, -9.793, -10.180, 30.28, 0.02563, 0.59518, -0.11774, 0.79443,
 15:09:02.017,ed:35:33:d3:6c:f8, 2015-01-01 00:39:10.300, -0.125, -0.089, 0.99, 0.549, -0.61, 0.916, -5.334, 6.965, -166.619, 1.280, -7.227, -33.953, 27.53, 0.11646, 0.05536, 0.05475, -0.99008,
 15:09:02.017,ed:35:33:d3:6c:f8, 2015-01-01 00:39:10.300, -0.124, -0.09, 0.984, 0.305, -0.977, 0.732, -5.323, 6.954, -166.586, 1.280, -7.227, -33.953, 27.53, 0.11646, 0.05536, 0.05475, -0.99008,
 15:09:02.018,f6:90:cc:01:6d:25, 2015-01-01 00:39:05.175, 0.95, -0.062, 0.258, -0.854, 0.427, 0, -12.706, -74.564, -152.018, -30.687, -12.773, -3.813, 33.2, 0.12823, -0.60562, -0.06314, -0.78275,
 15:09:02.018,f6:90:cc:01:6d:25, 2015-01-01 00:39:05.175, 0.949, -0.062, 0.256, -0.427, 0.488, -0.183, -12.711, -74.559, -152.029, -30.687, -12.773, -3.813, 33.2, 0.12823, -0.60562, -0.06314, -0.78275,
 15:09:02.020,ed:40:fe:65:30:6c, 2015-01-01 00:39:02.050, 0.764, -0.039, 0.648, 0.854, 0.977, 0.061, -2.911, -49.807, -120.438, -24.053, -8.720, -1.547, 28.05, 0.44034, -0.37753, -0.18884, -0.79233,
 15:09:02.020,ed:40:fe:65:30:6c, 2015-01-01 00:39:02.050, 0.766, -0.032, 0.648, 0.549, 0.854, 0, -2.895, -49.785, -120.41, -24.053, -8.720, -1.547, 28.05, 0.44034, -0.37753, -0.18884, -0.79233,
 15:09:02.038,e3:ca:2d:fd:e0:8c, 2015-01-01 00:39:11.310, 0.972, -0.16, 0.271, 0.305, -0.244, 0, -30.734, -72.153, -161.06, -27.727, -9.793, -10.180, 30.28, 0.02563, 0.59518, -0.11774, 0.79443,
 15:09:02.038,e3:ca:2d:fd:e0:8c, 2015-01-01 00:39:11.310, 0.976, -0.16, 0.27, 0.183, -0.244, 0, -30.734, -72.158, -161.054, -27.727, -9.793, -10.180, 30.28, 0.02563, 0.59518, -0.11774, 0.79443,
 15:09:02.041,f6:90:cc:01:6d:25, 2015-01-01 00:39:05.175, 0.951, -0.058, 0.258, -0.305, 0.61, -0.305, -12.695, -74.548, -152.045, -30.687, -12.773, -3.813, 33.2, 0.12604, -0.60532, -0.06, -0.78357,
 15:09:02.041,f6:90:cc:01:6d:25, 2015-01-01 00:39:05.175, 0.954, -0.055, 0.259, -0.305, 0.671, -0.244, -12.678, -74.537, -152.04, -30.687, -12.773, -3.813, 33.2, 0.12604, -0.60532, -0.06, -0.78357,
 15:09:02.064,ed:40:fe:65:30:6c, 2015-01-01 00:39:02.050, 0.771, -0.022, 0.652, 0.183, 0.916, -0.244, -2.889, -49.768, -120.405, -24.053, -8.720, -1.547, 28.05, 0.44034, -0.37753, -0.18884, -0.79233,
 15:09:02.064,ed:40:fe:65:30:6c, 2015-01-01 00:39:02.050, 0.769, -0.028, 0.649, 0.122, 1.221, -0.305, -2.873, -49.746, -120.405, -24.053, -8.720, -1.547, 28.05, 0.44034, -0.37753, -0.18884, -0.79233,
 15:09:02.084,e3:ca:2d:fd:e0:8c, 2015-01-01 00:39:11.310, 0.976, -0.161, 0.27, 0, -0.366, 0, -30.74, -72.158, -161.049, -27.727, -9.793, -10.180, 30.28, 0.02563, 0.59518, -0.11774, 0.79443,
 15:09:02.084,e3:ca:2d:fd:e0:8c, 2015-01-01 00:39:11.310, 0.974, -0.161, 0.267, 0.244, -0.122, 0, -30.751, -72.164, -161.043, -27.727, -9.793, -10.180, 30.28, 0.02563, 0.59518, -0.11774, 0.79443,
 15:09:02.085,ed:35:33:d3:6c:f8, 2015-01-01 00:39:10.300, -0.122, -0.083, 0.984, 1.038, -0.61, -0.244, -5.301, 6.943, -166.564, 1.280, -7.227, -33.953, 27.53, 0.11646, 0.05536, 0.05475, -0.99008,
 15:09:02.085,ed:35:33:d3:6c:f8, 2015-01-01 00:39:10.300, -0.125, -0.081, 0.993, 1.648, -0.793, -0.549, -5.273, 6.932, -166.558, 1.280, -7.227, -33.953, 27.53, 0.11646, 0.05536, 0.05475, -0.99008,
 15:09:02.086,f6:90:cc:01:6d:25, 2015-01-01 00:39:05.175, 0.954, -0.055, 0.257, -0.61, 0.549, 0, -12.662, -74.526, -152.023, -30.687, -12.773, -3.813, 33.2, 0.12604, -0.60532, -0.06, -0.78357,
 15:09:02.086,f6:90:cc:01:6d:25, 2015-01-01 00:39:05.175, 0.952, -0.06, 0.255, -0.488, 0.488, 0, -12.667, -74.515, -152.012, -30.687, -12.773, -3.813, 33.2, 0.12604, -0.60532, -0.06, -0.78357,
 15:09:02.089,ed:40:fe:65:30:6c, 2015-01-01 00:39:02.050, 0.764, -0.035, 0.652, 0.61, 0.916, -0.061, -2.862, -49.724, -120.399, -24.053, -8.720, -1.547, 28.05, 0.44034, -0.37753, -0.18884, -0.79233,
 15:09:02.089,ed:40:fe:65:30:6c, 2015-01-01 00:39:02.050, 0.762, -0.037, 0.655, 0.854, 0.793, 0.061, -2.845, -49.708, -120.388, -24.053, -8.720, -1.547, 28.05, 0.44034, -0.37753, -0.18884, -0.79233,
 15:09:02.106,e3:ca:2d:fd:e0:8c, 2015-01-01 00:39:11.310, 0.972, -0.16, 0.266, 0.122, 0, 0, -30.745, -72.164, -161.043, -27.727, -9.793, -10.180, 30.28, 0.02563, 0.59518, -0.11774, 0.79443,
 15:09:02.106,e3:ca:2d:fd:e0:8c, 2015-01-01 00:39:11.310, 0.973, -0.159, 0.269, 0, -0.061, 0, -30.745, -72.164, -161.049, -27.727, -9.793, -10.180, 30.28, 0.02563, 0.59518, -0.11774, 0.79443,
 15:09:02.108,f6:90:cc:01:6d:25, 2015-01-01 00:39:05.510, 0.949, -0.062, 0.255, -0.305, 0.244, 0, -12.667, -74.509, -152.023, -30.687, -12.773, -3.813, 33.2, 0.12604, -0.60532, -0.06, -0.78357,
 15:09:02.108,f6:90:cc:01:6d:25, 2015-01-01 00:39:05.510, 0.95, -0.058, 0.257, -0.244, 0, -0.244, -12.667, -74.504, -152.04, -30.687, -12.773, -3.813, 33.2, 0.12604, -0.60532, -0.06, -0.78357,
 15:09:02.108,ed:35:33:d3:6c:f8, 2015-01-01 00:39:10.300, -0.13, -0.083, 0.995, 1.221, -0.916, 0.732, -5.24, 6.916, -166.525, 1.013, -7.927, -34.693, 27.53, 0.11646, 0.05536, 0.05475, -0.99008,
 15:09:02.108,ed:35:33:d3:6c:f8, 2015-01-01 00:39:10.300, -0.128, -0.087, 0.993, 1.221, -2.014, 0.854, -5.213, 6.888, -166.47, 1.013, -7.927, -34.693, 27.53, 0.11646, 0.05536, 0.05475, -0.99008,
 15:09:02.132,ed:40:fe:65:30:6c, 2015-01-01 00:39:02.050, 0.764, -0.033, 0.651, 0.671, 0.488, 0, -2.829, -49.697, -120.372, -24.053, -8.720, -1.547, 28.05, 0.44034, -0.37753, -0.18884, -0.79233,
 15:09:02.132,ed:40:fe:65:30:6c, 2015-01-01 00:39:02.050, 0.767, -0.028, 0.649, 0.244, 0.427, -0.244, -2.818, -49.686, -120.366, -24.053, -8.720, -1.547, 28.05, 0.44034, -0.37753, -0.18884, -0.79233,
 15:09:02.152,e3:ca:2d:fd:e0:8c, 2015-01-01 00:39:11.310, 0.973, -0.161, 0.269, 0, -0.183, 0, -30.751, -72.169, -161.049, -27.727, -9.793, -10.180, 30.28, 0.02563, 0.59518, -0.11774, 0.79443,
 15:09:02.152,e3:ca:2d:fd:e0:8c, 2015-01-01 00:39:11.310, 0.972, -0.161, 0.269, 0.061, -0.366, 0, -30.756, -72.169, -161.049, -27.727, -9.793, -10.180, 30.28, 0.02563, 0.59518, -0.11774, 0.79443,
 15:09:02.152,ed:35:33:d3:6c:f8, 2015-01-01 00:39:10.300, -0.122, -0.088, 0.989, 1.465, -2.808, 0.61, -5.18, 6.839, -166.41, 1.013, -7.927, -34.693, 27.53, 0.11646, 0.05536, 0.05475, -0.99008,
 15:09:02.152,ed:35:33:d3:6c:f8, 2015-01-01 00:39:10.300, -0.116, -0.084, 0.985, 1.831, -2.625, -0.305, -5.142, 6.79, -166.366, 1.013, -7.927, -34.693, 27.53, 0.11646, 0.05536, 0.05475, -0.99008,
 15:09:02.154,f6:90:cc:01:6d:25, 2015-01-01 00:39:05.510, 0.952, -0.056, 0.258, -0.366, 0, -0.305, -12.656, -74.509, -152.051, -30.687, -12.773, -3.813, 33.2, 0.12604, -0.60532, -0.06, -0.78357,
 15:09:02.154,f6:90:cc:01:6d:25, 2015-01-01 00:39:05.510, 0.951, -0.059, 0.258, -0.366, 0, -0.305, -12.645, -74.509, -152.062, -30.687, -12.773, -3.813, 33.2, 0.12604, -0.60532, -0.06, -0.78357,
 15:09:02.175,ed:35:33:d3:6c:f8, 2015-01-01 00:39:10.300, -0.114, -0.08, 0.988, 1.404, -1.404, -0.488, -5.109, 6.762, -166.344, 1.013, -7.927, -34.693, 27.53, 0.12103, 0.05331, 0.05133, -0.98984,
 15:09:02.175,ed:35:33:d3:6c:f8, 2015-01-01 00:39:10.300, -0.121, -0.081, 0.986, 0.854, -0.427, -0.244, -5.087, 6.751, -166.317, 1.013, -7.927, -34.693, 27.53, 0.12103, 0.05331, 0.05133, -0.98984,
 15:09:02.178,ed:40:fe:65:30:6c, 2015-01-01 00:39:02.050, 0.766, -0.03, 0.648, 0.183, 0.549, -0.305, -2.807, -49.675, -120.355, -24.053, -8.720, -1.547, 28.05, 0.44034, -0.37753, -0.18884, -0.79233,
 15:09:02.178,ed:40:fe:65:30:6c, 2015-01-01 00:39:02.050, 0.763, -0.032, 0.647, 0.122, 0.732, -0.305, -2.796, -49.658, -120.344, -24.053, -8.720, -1.547, 28.05, 0.44034, -0.37753, -0.18884, -0.79233,
 15:09:02.199,f6:90:cc:01:6d:25, 2015-01-01 00:39:05.510, 0.95, -0.059, 0.258, -0.305, 0.183, -0.244, -12.629, -74.509, -152.078, -30.687, -12.773, -3.813, 33.2, 0.12604, -0.60532, -0.06, -0.78357,
 15:09:02.199,f6:90:cc:01:6d:25, 2015-01-01 00:39:05.510, 0.948, -0.059, 0.26, -0.427, 0.244, -0.183, -12.623, -74.504, -152.089, -30.687, -12.773, -3.813, 33.2, 0.12604, -0.60532, -0.06, -0.78357,
 15:09:02.219,e3:ca:2d:fd:e0:8c, 2015-01-01 00:39:11.310, 0.972, -0.162, 0.271, 0.183, -0.366, 0, -30.767, -72.18, -161.038, -27.727, -9.793, -10.180, 30.28, 0.02563, 0.59518, -0.11774, 0.79443,
 15:09:02.219,e3:ca:2d:fd:e0:8c, 2015-01-01 00:39:11.310, 0.972, -0.161, 0.272, 0.122, -0.366, 0, -30.778, -72.186, -161.027, -27.727, -9.793, -10.180, 30.28, 0.02563, 0.59518, -0.11774, 0.79443,
 15:09:02.220,ed:35:33:d3:6c:f8, 2015-01-01 00:39:10.300, -0.126, -0.08, 0.988, 0.854, -0.671, 0, -5.07, 6.74, -166.284, 1.013, -7.927, -34.693, 27.53, 0.12103, 0.05331, 0.05133, -0.98984,
 15:09:02.220,ed:35:33:d3:6c:f8, 2015-01-01 00:39:10.300, -0.123, -0.08, 0.989, 1.099, -1.526, 0.061, -5.043, 6.718, -166.245, 1.013, -7.927, -34.693, 27.53, 0.12103, 0.05331, 0.05133, -0.98984,
 15:09:02.221,f6:90:cc:01:6d:25, 2015-01-01 00:39:05.510, 0.949, -0.058, 0.26, -0.488, 0.305, -0.183, -12.618, -74.498, -152.089, -30.687, -12.773, -3.813, 33.2, 0.12604, -0.60532, -0.06, -0.78357,
 15:09:02.221,f6:90:cc:01:6d:25, 2015-01-01 00:39:05.510, 0.952, -0.058, 0.261, -0.854, 0.122, -0.122, -12.618, -74.493, -152.089, -30.687, -12.773, -3.813, 33.2, 0.12604, -0.60532, -0.06, -0.78357,
 15:09:02.223,ed:40:fe:65:30:6c, 2015-01-01 00:39:02.050, 0.76, -0.031, 0.653, 0.183, 0.916, -0.244, -2.785, -49.642, -120.339, -23.913, -8.067, -1.427, 28.05, 0.44034, -0.37753, -0.18884, -0.79233,
 15:09:02.223,ed:40:fe:65:30:6c, 2015-01-01 00:39:02.050, 0.762, -0.03, 0.654, 0, 0.732, -0.183, -2.78, -49.625, -120.328, -23.913, -8.067, -1.427, 28.05, 0.44034, -0.37753, -0.18884, -0.79233,
 15:09:02.242,e3:ca:2d:fd:e0:8c, 2015-01-01 00:39:11.310, 0.972, -0.16, 0.27, 0, -0.305, 0, -30.784, -72.186, -161.021, -27.600, -9.953, -10.647, 30.28, 0.02563, 0.59518, -0.11774, 0.79443,
 15:09:02.242,e3:ca:2d:fd:e0:8c, 2015-01-01 00:39:11.310, 0.973, -0.159, 0.271, -0.183, -0.305, 0, -30.795, -72.191, -161.016, -27.600, -9.953, -10.647, 30.28, 0.02563, 0.59518, -0.11774, 0.79443,
 15:09:02.264,ed:35:33:d3:6c:f8, 2015-01-01 00:39:10.655, -0.111, -0.077, 0.99, 1.038, -2.258, 0, -5.021, 6.685, -166.201, 1.013, -7.927, -34.693, 27.53, 0.12103, 0.05331, 0.05133, -0.98984,
 15:09:02.264,ed:35:33:d3:6c:f8, 2015-01-01 00:39:10.655, -0.107, -0.077, 0.989, 0.427, -1.282, -0.366, -5.004, 6.658, -166.168, 1.013, -7.927, -34.693, 27.53, 0.12103, 0.05331, 0.05133, -0.98984,
 15:09:02.269,ed:40:fe:65:30:6c, 2015-01-01 00:39:02.050, 0.768, -0.028, 0.654, -0.061, 0.549, -0.122, -2.78, -49.614, -120.311, -23.913, -8.067, -1.427, 28.05, 0.44272, -0.37476, -0.18961, -0.79214,
 15:09:02.269,ed:40:fe:65:30:6c, 2015-01-01 00:39:02.050, 0.771, -0.028, 0.649, 0, 0.549, -0.061, -2.774, -49.603, -120.3, -23.913, -8.067, -1.427, 28.05, 0.44272, -0.37476, -0.18961, -0.79214,
 15:09:02.286,e3:ca:2d:fd:e0:8c, 2015-01-01 00:39:11.310, 0.975, -0.16, 0.27, -0.244, -0.305, 0, -30.806, -72.197, -161.01, -27.600, -9.953, -10.647, 30.28, 0.02563, 0.59518, -0.11774, 0.79443,
 15:09:02.286,e3:ca:2d:fd:e0:8c, 2015-01-01 00:39:11.310, 0.974, -0.159, 0.266, 0, -0.122, 0, -30.817, -72.197, -161.005, -27.600, -9.953, -10.647, 30.28, 0.02563, 0.59518, -0.11774, 0.79443,
 15:09:02.288,f6:90:cc:01:6d:25, 2015-01-01 00:39:05.510, 0.953, -0.059, 0.26, -0.793, 0.122, -0.183, -12.623, -74.493, -152.084, -30.687, -12.773, -3.813, 33.2, 0.12604, -0.60532, -0.06, -0.78357,
 15:09:02.288,f6:90:cc:01:6d:25, 2015-01-01 00:39:05.510, 0.952, -0.056, 0.254, -0.244, 0.366, -0.122, -12.618, -74.487, -152.067, -30.687, -12.773, -3.813, 33.2, 0.12604, -0.60532, -0.06, -0.78357,
 15:09:02.290,ed:40:fe:65:30:6c, 2015-01-01 00:39:02.365, 0.765, -0.028, 0.644, 0.122, 0.366, 0.122, -2.774, -49.592, -120.289, -23.913, -8.067, -1.427, 28.05, 0.44272, -0.37476, -0.18961, -0.79214,
 15:09:02.290,ed:40:fe:65:30:6c, 2015-01-01 00:39:02.365, 0.767, -0.029, 0.651, 0.977, -0.366, 0.305, -2.763, -49.598, -120.273, -23.913, -8.067, -1.427, 28.05, 0.44272, -0.37476, -0.18961, -0.79214,
 15:09:02.310,e3:ca:2d:fd:e0:8c, 2015-01-01 00:39:11.310, 0.976, -0.159, 0.265, 0, 0.061, 0, -30.817, -72.197, -161.005, -27.600, -9.953, -10.647, 30.28, 0.02588, 0.59564, -0.11801, 0.79404,
 15:09:02.310,e3:ca:2d:fd:e0:8c, 2015-01-01 00:39:11.310, 0.977, -0.158, 0.263, 0.183, 0.366, 0, -30.806, -72.197, -161.016, -27.600, -9.953, -10.647, 30.28, 0.02588, 0.59564, -0.11801, 0.79404,
 15:09:02.310,ed:35:33:d3:6c:f8, 2015-01-01 00:39:10.655, -0.123, -0.072, 0.993, -0.061, -0.366, -0.244, -4.999, 6.647, -166.13, 1.013, -7.927, -34.693, 27.53, 0.12103, 0.05331, 0.05133, -0.98984,
 15:09:02.310,ed:35:33:d3:6c:f8, 2015-01-01 00:39:10.655, -0.12, -0.077, 0.994, -0.549, -0.427, 0, -5.004, 6.641, -166.08, 1.013, -7.927, -34.693, 27.53, 0.12103, 0.05331, 0.05133, -0.98984,
 15:09:02.333,ed:35:33:d3:6c:f8, 2015-01-01 00:39:10.655, -0.11, -0.083, 0.995, -0.488, -1.892, -0.488, -5.01, 6.614, -166.031, 1.013, -7.927, -34.693, 27.53, 0.12103, 0.05331, 0.05133, -0.98984,
 15:09:02.333,ed:35:33:d3:6c:f8, 2015-01-01 00:39:10.655, -0.12, -0.083, 0.997, -0.977, -0.61, -1.221, -5.026, 6.592, -166.003, 1.013, -7.927, -34.693, 27.53, 0.12103, 0.05331, 0.05133, -0.98984,
 15:09:02.334,f6:90:cc:01:6d:25, 2015-01-01 00:39:05.510, 0.95, -0.056, 0.253, 0.427, 0.427, -0.061, -12.607, -74.482, -152.062, -30.687, -12.773, -3.813, 33.2, 0.12604, -0.60532, -0.06, -0.78357,
 15:09:02.334,f6:90:cc:01:6d:25, 2015-01-01 00:39:05.510, 0.957, -0.057, 0.253, 1.465, 0.305, -0.061, -12.579, -74.471, -152.062, -30.687, -12.773, -3.813, 33.2, 0.12604, -0.60532, -0.06, -0.78357,
 15:09:02.335,ed:40:fe:65:30:6c, 2015-01-01 00:39:02.365, 0.772, -0.032, 0.651, 0.61, -0.793, 0.366, -2.758, -49.609, -120.245, -23.913, -8.067, -1.427, 28.05, 0.44272, -0.37476, -0.18961, -0.79214,
 15:09:02.335,ed:40:fe:65:30:6c, 2015-01-01 00:39:02.365, 0.761, -0.031, 0.651, 0.732, -0.793, 0.244, -2.747, -49.625, -120.223, -23.913, -8.067, -1.427, 28.05, 0.44272, -0.37476, -0.18961, -0.79214,
 15:09:02.355,e3:ca:2d:fd:e0:8c, 2015-01-01 00:39:11.310, 0.973, -0.159, 0.265, 0.366, 0.671, 0, -30.784, -72.186, -161.038, -27.600, -9.953, -10.647, 30.28, 0.02588, 0.59564, -0.11801, 0.79404,
 15:09:02.355,e3:ca:2d:fd:e0:8c, 2015-01-01 00:39:11.310, 0.972, -0.159, 0.27, 0.427, 0.427, 0, -30.762, -72.18, -161.06, -27.600, -9.953, -10.647, 30.28, 0.02588, 0.59564, -0.11801, 0.79404,
 15:09:02.357,f6:90:cc:01:6d:25, 2015-01-01 00:39:05.510, 0.952, -0.056, 0.253, 2.441, 0.244, 0, -12.535, -74.471, -152.062, -30.287, -13.127, -3.507, 33.2, 0.12604, -0.60532, -0.06, -0.78357,
 15:09:02.357,f6:90:cc:01:6d:25, 2015-01-01 00:39:05.510, 0.949, -0.059, 0.263, 3.052, -0.061, 0, -12.48, -74.465, -152.073, -30.287, -13.127, -3.507, 33.2, 0.12604, -0.60532, -0.06, -0.78357,
 15:09:02.377,ed:35:33:d3:6c:f8, 2015-01-01 00:39:10.655, -0.117, -0.082, 0.988, -1.526, -0.549, -0.977, -5.048, 6.581, -165.981, 1.013, -7.927, -34.693, 27.53, 0.12103, 0.05331, 0.05133, -0.98984,
 15:09:02.377,ed:35:33:d3:6c:f8, 2015-01-01 00:39:10.655, -0.123, -0.082, 0.987, -1.648, -0.977, -0.366, -5.076, 6.57, -165.948, 1.013, -7.927, -34.693, 27.53, 0.12103, 0.05331, 0.05133, -0.98984,
 15:09:02.380,ed:40:fe:65:30:6c, 2015-01-01 00:39:02.365, 0.762, -0.032, 0.657, 0.916, -0.732, 0.305, -2.736, -49.642, -120.207, -23.913, -8.067, -1.427, 28.05, 0.44272, -0.37476, -0.18961, -0.79214,
 15:09:02.380,ed:40:fe:65:30:6c, 2015-01-01 00:39:02.365, 0.759, -0.03, 0.652, 0.732, -0.305, 0.244, -2.73, -49.647, -120.185, -23.913, -8.067, -1.427, 28.05, 0.44272, -0.37476, -0.18961, -0.79214,
 15:09:02.399,e3:ca:2d:fd:e0:8c, 2015-01-01 00:39:11.690, 0.971, -0.162, 0.27, 0.305, 0.183, 0, -30.745, -72.175, -161.071, -27.600, -9.953, -10.647, 30.28, 0.02588, 0.59564, -0.11801, 0.79404,
 15:09:02.399,e3:ca:2d:fd:e0:8c, 2015-01-01 00:39:11.690, 0.971, -0.159, 0.272, -0.061, 0.061, 0, -30.74, -72.175, -161.082, -27.600, -9.953, -10.647, 30.28, 0.02588, 0.59564, -0.11801, 0.79404,
 15:09:02.401,f6:90:cc:01:6d:25, 2015-01-01 00:39:05.510, 0.949, -0.061, 0.259, 2.991, -0.488, -0.061, -12.426, -74.476, -152.089, -30.287, -13.127, -3.507, 33.2, 0.12604, -0.60532, -0.06, -0.78357,
 15:09:02.401,f6:90:cc:01:6d:25, 2015-01-01 00:39:05.510, 0.947, -0.058, 0.259, 1.892, -0.671, -0.183, -12.382, -74.487, -152.095, -30.287, -13.127, -3.507, 33.2, 0.12604, -0.60532, -0.06, -0.78357,
 15:09:02.423,f6:90:cc:01:6d:25, 2015-01-01 00:39:05.510, 0.95, -0.055, 0.259, 0.793, -0.488, -0.244, -12.354, -74.498, -152.095, -30.287, -13.127, -3.507, 33.2, 0.12747, -0.60461, -0.06177, -0.78375,
 15:09:02.423,f6:90:cc:01:6d:25, 2015-01-01 00:39:05.510, 0.953, -0.053, 0.257, 0.671, -0.122, -0.061, -12.332, -74.504, -152.084, -30.287, -13.127, -3.507, 33.2, 0.12747, -0.60461, -0.06177, -0.78375,
 15:09:02.425,ed:40:fe:65:30:6c, 2015-01-01 00:39:02.365, 0.76, -0.029, 0.654, 0.488, -0.305, 0.305, -2.725, -49.653, -120.174, -23.913, -8.067, -1.427, 28.05, 0.44272, -0.37476, -0.18961, -0.79214,
 15:09:02.425,ed:40:fe:65:30:6c, 2015-01-01 00:39:02.365, 0.767, -0.027, 0.646, 0.244, -0.183, 0.244, -2.725, -49.653, -120.157, -23.913, -8.067, -1.427, 28.05, 0.44272, -0.37476, -0.18961, -0.79214,
 15:09:02.445,ed:35:33:d3:6c:f8, 2015-01-01 00:39:10.655, -0.116, -0.081, 0.986, -1.16, -1.221, 0.183, -5.098, 6.548, -165.91, 1.013, -7.927, -34.693, 27.53, 0.12103, 0.05331, 0.05133, -0.98984,
 15:09:02.445,ed:35:33:d3:6c:f8, 2015-01-01 00:39:10.655, -0.112, -0.083, 0.983, -0.488, -0.977, 0.061, -5.103, 6.531, -165.877, 1.013, -7.927, -34.693, 27.53, 0.12103, 0.05331, 0.05133, -0.98984,
 15:09:02.445,e3:ca:2d:fd:e0:8c, 2015-01-01 00:39:11.690, 0.973, -0.16, 0.272, -0.183, 0, 0, -30.74, -72.169, -161.087, -27.600, -9.953, -10.647, 30.28, 0.02588, 0.59564, -0.11801, 0.79404,
 15:09:02.445,e3:ca:2d:fd:e0:8c, 2015-01-01 00:39:11.690, 0.974, -0.159, 0.271, -0.061, 0, 0, -30.74, -72.169, -161.087, -27.600, -9.953, -10.647, 30.28, 0.02588, 0.59564, -0.11801, 0.79404,
 15:09:02.466,e3:ca:2d:fd:e0:8c, 2015-01-01 00:39:11.690, 0.974, -0.159, 0.27, 0, 0.183, 0, -30.74, -72.169, -161.093, -27.600, -9.953, -10.647, 30.28, 0.02588, 0.59564, -0.11801, 0.79404,
 15:09:02.466,e3:ca:2d:fd:e0:8c, 2015-01-01 00:39:11.690, 0.973, -0.159, 0.269, 0.061, 0.305, 0, -30.729, -72.164, -161.104, -27.600, -9.953, -10.647, 30.28, 0.02588, 0.59564, -0.11801, 0.79404,
 15:09:02.468,ed:35:33:d3:6c:f8, 2015-01-01 00:39:10.655, -0.116, -0.081, 0.99, -0.305, -0.061, -0.549, -5.109, 6.526, -165.861, 1.067, -7.407, -34.227, 27.53, 0.12103, 0.05331, 0.05133, -0.98984,
 15:09:02.468,ed:35:33:d3:6c:f8, 2015-01-01 00:39:10.655, -0.12, -0.08, 0.993, -0.244, 0.427, -0.488, -5.109, 6.537, -165.844, 1.067, -7.407, -34.227, 27.53, 0.12103, 0.05331, 0.05133, -0.98984,
 15:09:02.469,f6:90:cc:01:6d:25, 2015-01-01 00:39:05.510, 0.952, -0.055, 0.257, 0.488, -0.061, 0, -12.327, -74.504, -152.067, -30.287, -13.127, -3.507, 33.2, 0.12747, -0.60461, -0.06177, -0.78375,
 15:09:02.469,f6:90:cc:01:6d:25, 2015-01-01 00:39:05.510, 0.952, -0.056, 0.257, 0.305, -0.061, 0, -12.321, -74.504, -152.04, -30.287, -13.127, -3.507, 33.2, 0.12747, -0.60461, -0.06177, -0.78375,
 15:09:02.470,ed:40:fe:65:30:6c, 2015-01-01 00:39:02.365, 0.768, -0.025, 0.647, 0.183, -0.061, 0.122, -2.719, -49.653, -120.146, -23.913, -8.067, -1.427, 28.05, 0.44272, -0.37476, -0.18961, -0.79214,
 15:09:02.470,ed:40:fe:65:30:6c, 2015-01-01 00:39:02.365, 0.766, -0.027, 0.652, 0.122, -0.061, 0.122, -2.719, -49.653, -120.135, -23.913, -8.067, -1.427, 28.05, 0.44272, -0.37476, -0.18961, -0.79214,
 15:09:02.493,ed:40:fe:65:30:6c, 2015-01-01 00:39:02.365, 0.765, -0.029, 0.653, 0.122, -0.244, 0.244, -2.719, -49.658, -120.125, -24.107, -8.507, -1.553, 28.05, 0.44272, -0.37476, -0.18961, -0.79214,
 15:09:02.493,ed:40:fe:65:30:6c, 2015-01-01 00:39:02.365, 0.765, -0.028, 0.654, 0.244, -0.488, 0.244, -2.719, -49.664, -120.114, -24.107, -8.507, -1.553, 28.05, 0.44272, -0.37476, -0.18961, -0.79214,
 15:09:02.511,e3:ca:2d:fd:e0:8c, 2015-01-01 00:39:11.690, 0.973, -0.16, 0.27, 0.122, 0.122, 0, -30.718, -72.164, -161.115, -27.600, -9.953, -10.647, 30.28, 0.02588, 0.59564, -0.11801, 0.79404,
 15:09:02.511,e3:ca:2d:fd:e0:8c, 2015-01-01 00:39:11.690, 0.971, -0.159, 0.27, 0.122, 0, 0, -30.712, -72.158, -161.12, -27.600, -9.953, -10.647, 30.28, 0.02588, 0.59564, -0.11801, 0.79404,
 15:09:02.513,f6:90:cc:01:6d:25, 2015-01-01 00:39:05.890, 0.951, -0.057, 0.261, 0.488, -0.183, 0, -12.316, -74.509, -152.018, -30.287, -13.127, -3.507, 33.2, 0.12747, -0.60461, -0.06177, -0.78375,
 15:09:02.513,f6:90:cc:01:6d:25, 2015-01-01 00:39:05.890, 0.95, -0.054, 0.26, 0.854, -0.427, 0.061, -12.305, -74.515, -152.007, -30.287, -13.127, -3.507, 33.2, 0.12747, -0.60461, -0.06177, -0.78375,
 15:09:02.513,ed:35:33:d3:6c:f8, 2015-01-01 00:39:10.655, -0.119, -0.079, 0.994, -0.549, 0.183, 0, -5.114, 6.542, -165.811, 1.067, -7.407, -34.227, 27.53, 0.12103, 0.05331, 0.05133, -0.98984,
 15:09:02.513,ed:35:33:d3:6c:f8, 2015-01-01 00:39:10.655, -0.115, -0.081, 0.99, -0.793, 0.122, 0.183, -5.125, 6.548, -165.773, 1.067, -7.407, -34.227, 27.53, 0.12103, 0.05331, 0.05133, -0.98984,
 15:09:02.535,ed:35:33:d3:6c:f8, 2015-01-01 00:39:10.655, -0.116, -0.082, 0.988, -0.732, 0.427, 0.061, -5.131, 6.559, -165.74, 1.067, -7.407, -34.227, 27.53, 0.12607, 0.05109, 0.05139, -0.98932,
 15:09:02.535,ed:35:33:d3:6c:f8, 2015-01-01 00:39:10.655, -0.121, -0.085, 0.989, -0.977, 0.61, 0, -5.147, 6.57, -165.701, 1.067, -7.407, -34.227, 27.53, 0.12607, 0.05109, 0.05139, -0.98932,
 15:09:02.538,ed:40:fe:65:30:6c, 2015-01-01 00:39:02.365, 0.765, -0.028, 0.65, 0.366, -0.549, 0.244, -2.719, -49.675, -120.108, -24.107, -8.507, -1.553, 28.05, 0.44272, -0.37476, -0.18961, -0.79214,
 15:09:02.538,ed:40:fe:65:30:6c, 2015-01-01 00:39:02.365, 0.764, -0.034, 0.646, 0.244, -0.488, 0.427, -2.719, -49.68, -120.092, -24.107, -8.507, -1.553, 28.05, 0.44272, -0.37476, -0.18961, -0.79214,
 15:09:02.579,e3:ca:2d:fd:e0:8c, 2015-01-01 00:39:11.690, 0.972, -0.159, 0.27, 0.305, 0.061, 0, -30.707, -72.158, -161.125, -27.600, -9.953, -10.647, 30.28, 0.02588, 0.59564, -0.11801, 0.79404,
 15:09:02.579,e3:ca:2d:fd:e0:8c, 2015-01-01 00:39:11.690, 0.972, -0.159, 0.271, 0.183, 0.061, 0, -30.701, -72.158, -161.131, -27.600, -9.953, -10.647, 30.28, 0.02588, 0.59564, -0.11801, 0.79404,
 15:09:02.580,ed:35:33:d3:6c:f8, 2015-01-01 00:39:10.655, -0.113, -0.087, 0.987, -0.671, 0.916, -0.488, -5.158, 6.586, -165.679, 1.067, -7.407, -34.227, 27.53, 0.12607, 0.05109, 0.05139, -0.98932,
 15:09:02.580,ed:35:33:d3:6c:f8, 2015-01-01 00:39:10.655, -0.117, -0.083, 0.99, -0.427, 0.61, -0.732, -5.164, 6.603, -165.679, 1.067, -7.407, -34.227, 27.53, 0.12607, 0.05109, 0.05139, -0.98932,
 15:09:02.581,f6:90:cc:01:6d:25, 2015-01-01 00:39:05.890, 0.949, -0.06, 0.257, 0.916, -0.305, 0, -12.294, -74.52, -152.001, -30.287, -13.127, -3.507, 33.2, 0.12747, -0.60461, -0.06177, -0.78375,
 15:09:02.581,f6:90:cc:01:6d:25, 2015-01-01 00:39:05.890, 0.95, -0.054, 0.258, 1.099, -0.122, -0.061, -12.277, -74.52, -152.007, -30.287, -13.127, -3.507, 33.2, 0.12747, -0.60461, -0.06177, -0.78375,
 15:09:02.602,e3:ca:2d:fd:e0:8c, 2015-01-01 00:39:11.690, 0.976, -0.158, 0.267, -0.061, 0.122, 0, -30.69, -72.158, -161.136, -27.507, -10.187, -10.580, 30.28, 0.02588, 0.59564, -0.11801, 0.79404,
 15:09:02.602,e3:ca:2d:fd:e0:8c, 2015-01-01 00:39:11.690, 0.975, -0.16, 0.27, 0, 0, 0, -30.69, -72.153, -161.142, -27.507, -10.187, -10.580, 30.28, 0.02588, 0.59564, -0.11801, 0.79404,
 15:09:02.604,f6:90:cc:01:6d:25, 2015-01-01 00:39:05.890, 0.953, -0.051, 0.256, 0.732, 0, 0.122, -12.266, -74.52, -151.996, -30.287, -13.127, -3.507, 33.2, 0.12747, -0.60461, -0.06177, -0.78375,
 15:09:02.604,f6:90:cc:01:6d:25, 2015-01-01 00:39:05.890, 0.956, -0.055, 0.259, 0.671, -0.305, 0.122, -12.261, -74.526, -151.974, -30.287, -13.127, -3.507, 33.2, 0.12747, -0.60461, -0.06177, -0.78375,
 15:09:02.605,ed:40:fe:65:30:6c, 2015-01-01 00:39:02.365, 0.768, -0.028, 0.649, -0.427, -0.488, 0.244, -2.73, -49.691, -120.086, -24.107, -8.507, -1.553, 28.05, 0.44424, -0.3746, -0.19098, -0.79102,
 15:09:02.605,ed:40:fe:65:30:6c, 2015-01-01 00:39:02.365, 0.768, -0.025, 0.648, -0.488, -0.305, 0, -2.741, -49.697, -120.081, -24.107, -8.507, -1.553, 28.05, 0.44424, -0.3746, -0.19098, -0.79102,
 15:09:02.626,ed:35:33:d3:6c:f8, 2015-01-01 00:39:11.015, -0.116, -0.079, 0.991, -0.183, 0.244, -0.244, -5.164, 6.608, -165.685, 1.067, -7.407, -34.227, 27.53, 0.12607, 0.05109, 0.05139, -0.98932,
 15:09:02.626,ed:35:33:d3:6c:f8, 2015-01-01 00:39:11.015, -0.117, -0.08, 0.995, -0.427, -0.122, 0.366, -5.169, 6.608, -165.674, 1.067, -7.407, -34.227, 27.53, 0.12607, 0.05109, 0.05139, -0.98932,
 15:09:02.626,f6:90:cc:01:6d:25, 2015-01-01 00:39:05.890, 0.953, -0.058, 0.26, 1.099, -0.549, 0.122, -12.255, -74.531, -151.952, -30.287, -13.127, -3.507, 33.2, 0.12747, -0.60461, -0.06177, -0.78375,
 15:09:02.626,f6:90:cc:01:6d:25, 2015-01-01 00:39:05.890, 0.95, -0.06, 0.257, 1.16, -0.732, 0.183, -12.255, -74.548, -151.919, -30.287, -13.127, -3.507, 33.2, 0.12747, -0.60461, -0.06177, -0.78375,
 15:09:02.627,ed:40:fe:65:30:6c, 2015-01-01 00:39:02.680, 0.77, -0.028, 0.653, -0.183, -0.549, 0, -2.741, -49.702, -120.081, -24.107, -8.507, -1.553, 28.05, 0.44424, -0.3746, -0.19098, -0.79102,
 15:09:02.627,ed:40:fe:65:30:6c, 2015-01-01 00:39:02.680, 0.766, -0.031, 0.654, 0.488, -0.549, 0.305, -2.741, -49.713, -120.075, -24.107, -8.507, -1.553, 28.05, 0.44424, -0.3746, -0.19098, -0.79102,
 15:09:02.670,ed:35:33:d3:6c:f8, 2015-01-01 00:39:11.015, -0.12, -0.087, 0.991, -0.916, -0.061, 0.61, -5.175, 6.614, -165.652, 1.067, -7.407, -34.227, 27.53, 0.12607, 0.05109, 0.05139, -0.98932,
 15:09:02.670,ed:35:33:d3:6c:f8, 2015-01-01 00:39:11.015, -0.117, -0.089, 0.989, -0.488, -0.366, 0.305, -5.18, 6.608, -165.635, 1.067, -7.407, -34.227, 27.53, 0.12607, 0.05109, 0.05139, -0.98932,
 15:09:02.670,e3:ca:2d:fd:e0:8c, 2015-01-01 00:39:11.690, 0.972, -0.163, 0.272, 0.305, 0, 0, -30.685, -72.153, -161.142, -27.507, -10.187, -10.580, 30.28, 0.02588, 0.59564, -0.11801, 0.79404,
 15:09:02.670,e3:ca:2d:fd:e0:8c, 2015-01-01 00:39:11.690, 0.972, -0.16, 0.271, 0.305, 0, 0, -30.679, -72.153, -161.147, -27.507, -10.187, -10.580, 30.28, 0.02588, 0.59564, -0.11801, 0.79404,
 15:09:02.671,f6:90:cc:01:6d:25, 2015-01-01 00:39:05.890, 0.951, -0.058, 0.256, 1.648, -0.366, 0, -12.239, -74.553, -151.897, -30.287, -13.127, -3.507, 33.2, 0.12747, -0.60461, -0.06177, -0.78375,
 15:09:02.671,f6:90:cc:01:6d:25, 2015-01-01 00:39:05.890, 0.952, -0.054, 0.255, 1.465, -0.061, 0, -12.211, -74.553, -151.875, -30.287, -13.127, -3.507, 33.2, 0.12747, -0.60461, -0.06177, -0.78375,
 15:09:02.673,ed:40:fe:65:30:6c, 2015-01-01 00:39:02.680, 0.765, -0.036, 0.648, 0.732, -0.671, 0.549, -2.736, -49.724, -120.053, -24.107, -8.507, -1.553, 28.05, 0.44424, -0.3746, -0.19098, -0.79102,
 15:09:02.673,ed:40:fe:65:30:6c, 2015-01-01 00:39:02.680, 0.765, -0.031, 0.648, 0.793, -0.732, 0.488, -2.73, -49.741, -120.031, -24.107, -8.507, -1.553, 28.05, 0.44424, -0.3746, -0.19098, -0.79102,
 15:09:02.692,e3:ca:2d:fd:e0:8c, 2015-01-01 00:39:11.690, 0.973, -0.16, 0.271, 0.366, 0.122, 0, -30.668, -72.153, -161.153, -27.507, -10.187, -10.580, 30.28, 0.02603, 0.59521, -0.11792, 0.79437,
 15:09:02.692,e3:ca:2d:fd:e0:8c, 2015-01-01 00:39:11.690, 0.973, -0.159, 0.271, 0.366, 0.244, 0, -30.657, -72.147, -161.158, -27.507, -10.187, -10.580, 30.28, 0.02603, 0.59521, -0.11792, 0.79437,
 15:09:02.693,ed:35:33:d3:6c:f8, 2015-01-01 00:39:11.015, -0.116, -0.09, 0.988, 0, -1.16, -0.183, -5.18, 6.592, -165.624, 1.067, -7.407, -34.227, 27.53, 0.12607, 0.05109, 0.05139, -0.98932,
 15:09:02.693,ed:35:33:d3:6c:f8, 2015-01-01 00:39:11.015, -0.115, -0.087, 0.989, 0.183, -0.916, -0.061, -5.175, 6.57, -165.602, 1.067, -7.407, -34.227, 27.53, 0.12607, 0.05109, 0.05139, -0.98932,
 15:09:02.694,ed:40:fe:65:30:6c, 2015-01-01 00:39:02.680, 0.767, -0.03, 0.647, 0.427, -0.671, 0.305, -2.73, -49.752, -120.009, -24.107, -8.507, -1.553, 28.05, 0.44424, -0.3746, -0.19098, -0.79102,
 15:09:02.694,ed:40:fe:65:30:6c, 2015-01-01 00:39:02.680, 0.767, -0.031, 0.646, 0, -0.427, 0, -2.73, -49.757, -120.009, -24.107, -8.507, -1.553, 28.05, 0.44424, -0.3746, -0.19098, -0.79102,
 15:09:02.736,e3:ca:2d:fd:e0:8c, 2015-01-01 00:39:11.690, 0.973, -0.161, 0.268, 0.305, 0.366, 0, -30.641, -72.142, -161.175, -27.507, -10.187, -10.580, 30.28, 0.02603, 0.59521, -0.11792, 0.79437,
 15:09:02.736,e3:ca:2d:fd:e0:8c, 2015-01-01 00:39:11.690, 0.973, -0.162, 0.268, 0, 0.183, 0, -30.63, -72.136, -161.186, -27.507, -10.187, -10.580, 30.28, 0.02603, 0.59521, -0.11792, 0.79437,
 15:09:02.737,ed:35:33:d3:6c:f8, 2015-01-01 00:39:11.015, -0.113, -0.084, 0.989, 0, -0.366, 0.305, -5.169, 6.564, -165.569, 1.067, -7.407, -34.227, 27.53, 0.12607, 0.05109, 0.05139, -0.98932,
 15:09:02.737,ed:35:33:d3:6c:f8, 2015-01-01 00:39:11.015, -0.11, -0.081, 0.99, -0.122, -0.427, 0.488, -5.169, 6.559, -165.536, 1.067, -7.407, -34.227, 27.53, 0.12607, 0.05109, 0.05139, -0.98932,
 15:09:02.740,ed:40:fe:65:30:6c, 2015-01-01 00:39:02.680, 0.767, -0.031, 0.649, 0, -0.305, 0, -2.73, -49.763, -120.009, -24.107, -8.507, -1.553, 28.05, 0.44424, -0.3746, -0.19098, -0.79102,
 15:09:02.740,ed:40:fe:65:30:6c, 2015-01-01 00:39:02.680, 0.77, -0.03, 0.652, 0.061, -0.183, 0.061, -2.73, -49.768, -120.004, -24.107, -8.507, -1.553, 28.05, 0.44424, -0.3746, -0.19098, -0.79102,
 15:09:02.760,f6:90:cc:01:6d:25, 2015-01-01 00:39:05.890, 0.951, -0.055, 0.253, 1.099, 0.183, 0, -12.189, -74.553, -151.842, -30.613, -12.547, -3.440, 33.2, 0.12747, -0.60461, -0.06177, -0.78375,
 15:09:02.760,f6:90:cc:01:6d:25, 2015-01-01 00:39:05.890, 0.952, -0.057, 0.256, 0.427, 0.122, 0, -12.173, -74.548, -151.826, -30.613, -12.547, -3.440, 33.2, 0.12747, -0.60461, -0.06177, -0.78375,
 15:09:02.781,e3:ca:2d:fd:e0:8c, 2015-01-01 00:39:12.070, 0.973, -0.163, 0.271, 0, -0.061, 0, -30.63, -72.136, -161.191, -27.507, -10.187, -10.580, 30.28, 0.02603, 0.59521, -0.11792, 0.79437,
 15:09:02.781,e3:ca:2d:fd:e0:8c, 2015-01-01 00:39:12.070, 0.971, -0.163, 0.271, 0.122, -0.122, 0, -30.63, -72.136, -161.191, -27.507, -10.187, -10.580, 30.28, 0.02603, 0.59521, -0.11792, 0.79437,
 15:09:02.783,ed:35:33:d3:6c:f8, 2015-01-01 00:39:11.015, -0.121, -0.081, 0.992, -0.549, -0.61, 0.183, -5.175, 6.548, -165.504, 1.067, -7.407, -34.227, 27.53, 0.12607, 0.05109, 0.05139, -0.98932,
 15:09:02.783,ed:35:33:d3:6c:f8, 2015-01-01 00:39:11.015, -0.122, -0.084, 0.992, -0.793, -0.305, 0, -5.186, 6.542, -165.476, 1.067, -7.407, -34.227, 27.53, 0.12607, 0.05109, 0.05139, -0.98932,
 15:09:02.783,f6:90:cc:01:6d:25, 2015-01-01 00:39:05.890, 0.953, -0.058, 0.26, 0.122, -0.061, 0, -12.173, -74.548, -151.82, -30.613, -12.547, -3.440, 33.2, 0.13028, -0.60464, -0.06473, -0.78302,
 15:09:02.783,f6:90:cc:01:6d:25, 2015-01-01 00:39:05.890, 0.953, -0.058, 0.259, 0.305, 0, 0, -12.173, -74.548, -151.809, -30.613, -12.547, -3.440, 33.2, 0.13028, -0.60464, -0.06473, -0.78302,
 15:09:02.785,ed:40:fe:65:30:6c, 2015-01-01 00:39:02.680, 0.767, -0.03, 0.649, 0.244, -0.122, 0.305, -2.73, -49.768, -119.987, -24.107, -8.507, -1.553, 28.05, 0.44424, -0.3746, -0.19098, -0.79102,
 15:09:02.785,ed:40:fe:65:30:6c, 2015-01-01 00:39:02.680, 0.766, -0.029, 0.65, 0.183, -0.244, 0.427, -2.736, -49.774, -119.965, -24.107, -8.507, -1.553, 28.05, 0.44424, -0.3746, -0.19098, -0.79102,
 15:09:02.804,e3:ca:2d:fd:e0:8c, 2015-01-01 00:39:12.070, 0.972, -0.161, 0.271, 0.366, 0.061, 0, -30.63, -72.136, -161.191, -27.507, -10.187, -10.580, 30.28, 0.02603, 0.59521, -0.11792, 0.79437,
 15:09:02.804,e3:ca:2d:fd:e0:8c, 2015-01-01 00:39:12.070, 0.973, -0.159, 0.271, 0.488, 0.244, 0, -30.619, -72.136, -161.197, -27.507, -10.187, -10.580, 30.28, 0.02603, 0.59521, -0.11792, 0.79437,
 15:09:02.806,f6:90:cc:01:6d:25, 2015-01-01 00:39:05.890, 0.95, -0.057, 0.257, 0.916, 0.122, 0, -12.156, -74.548, -151.793, -30.613, -12.547, -3.440, 33.2, 0.13028, -0.60464, -0.06473, -0.78302,
 15:09:02.806,f6:90:cc:01:6d:25, 2015-01-01 00:39:05.890, 0.952, -0.056, 0.255, 0.793, 0.061, 0, -12.145, -74.548, -151.787, -30.613, -12.547, -3.440, 33.2, 0.13028, -0.60464, -0.06473, -0.78302,
 15:09:02.831,ed:40:fe:65:30:6c, 2015-01-01 00:39:02.680, 0.768, -0.029, 0.649, 0.122, -0.366, 0.488, -2.747, -49.779, -119.943, -24.107, -8.507, -1.553, 28.05, 0.44424, -0.3746, -0.19098, -0.79102,
 15:09:02.831,ed:40:fe:65:30:6c, 2015-01-01 00:39:02.680, 0.768, -0.031, 0.65, 0.061, -0.427, 0.366, -2.752, -49.785, -119.921, -24.107, -8.507, -1.553, 28.05, 0.44424, -0.3746, -0.19098, -0.79102,
 15:09:02.850,e3:ca:2d:fd:e0:8c, 2015-01-01 00:39:12.070, 0.972, -0.159, 0.272, 0.305, 0.305, 0, -30.602, -72.131, -161.208, -27.507, -10.187, -10.580, 30.28, 0.02603, 0.59521, -0.11792, 0.79437,
 15:09:02.850,e3:ca:2d:fd:e0:8c, 2015-01-01 00:39:12.070, 0.97, -0.159, 0.274, 0.244, 0.244, 0, -30.591, -72.125, -161.224, -27.507, -10.187, -10.580, 30.28, 0.02603, 0.59521, -0.11792, 0.79437,
 15:09:02.852,f6:90:cc:01:6d:25, 2015-01-01 00:39:05.890, 0.952, -0.054, 0.258, 0.244, 0.061, 0, -12.14, -74.542, -151.787, -30.613, -12.547, -3.440, 33.2, 0.13028, -0.60464, -0.06473, -0.78302,
 15:09:02.852,f6:90:cc:01:6d:25, 2015-01-01 00:39:05.890, 0.949, -0.055, 0.26, 0.244, 0.061, 0, -12.134, -74.542, -151.782, -30.613, -12.547, -3.440, 33.2, 0.13028, -0.60464, -0.06473, -0.78302,
 15:09:02.853,ed:40:fe:65:30:6c, 2015-01-01 00:39:02.680, 0.763, -0.034, 0.647, 0.244, -0.305, 0.244, -2.752, -49.79, -119.894, -24.453, -8.353, -0.987, 28.05, 0.44424, -0.3746, -0.19098, -0.79102,
 15:09:02.853,ed:40:fe:65:30:6c, 2015-01-01 00:39:02.680, 0.763, -0.033, 0.65, 0.305, -0.061, 0.122, -2.752, -49.79, -119.877, -24.453, -8.353, -0.987, 28.05, 0.44424, -0.3746, -0.19098, -0.79102,
 15:09:02.871,ed:35:33:d3:6c:f8, 2015-01-01 00:39:11.015, -0.114, -0.086, 0.99, -0.366, -1.648, -0.061, -5.191, 6.52, -165.449, 0.680, -7.933, -34.753, 27.53, 0.12607, 0.05109, 0.05139, -0.98932,
 15:09:02.871,ed:35:33:d3:6c:f8, 2015-01-01 00:39:11.015, -0.11, -0.087, 0.99, 0.061, -1.77, 0.122, -5.186, 6.487, -165.41, 0.680, -7.933, -34.753, 27.53, 0.12607, 0.05109, 0.05139, -0.98932,
 15:09:02.871,e3:ca:2d:fd:e0:8c, 2015-01-01 00:39:12.070, 0.971, -0.159, 0.272, 0.183, 0.183, 0, -30.58, -72.12, -161.23, -27.507, -10.187, -10.580, 30.28, 0.02603, 0.59521, -0.11792, 0.79437,
 15:09:02.871,e3:ca:2d:fd:e0:8c, 2015-01-01 00:39:12.070, 0.971, -0.159, 0.271, 0.122, 0, 0, -30.569, -72.114, -161.235, -27.507, -10.187, -10.580, 30.28, 0.02603, 0.59521, -0.11792, 0.79437,
 15:09:02.873,f6:90:cc:01:6d:25, 2015-01-01 00:39:06.250, 0.949, -0.057, 0.257, 0.488, 0.122, 0, -12.123, -74.542, -151.776, -30.613, -12.547, -3.440, 33.2, 0.13028, -0.60464, -0.06473, -0.78302,
 15:09:02.873,f6:90:cc:01:6d:25, 2015-01-01 00:39:06.250, 0.95, -0.056, 0.258, 0.366, 0.061, 0, -12.118, -74.537, -151.771, -30.613, -12.547, -3.440, 33.2, 0.13028, -0.60464, -0.06473, -0.78302,
 15:09:02.895,ed:35:33:d3:6c:f8, 2015-01-01 00:39:11.015, -0.12, -0.091, 0.987, -0.305, 0.122, -0.122, -5.186, 6.482, -165.377, 0.680, -7.933, -34.753, 27.53, 0.12943, 0.05026, 0.052, -0.98889,
 15:09:02.895,ed:35:33:d3:6c:f8, 2015-01-01 00:39:11.015, -0.124, -0.087, 0.987, 0, -0.061, -0.427, -5.186, 6.482, -165.361, 0.680, -7.933, -34.753, 27.53, 0.12943, 0.05026, 0.052, -0.98889,
 15:09:02.898,ed:40:fe:65:30:6c, 2015-01-01 00:39:02.680, 0.766, -0.03, 0.65, 0.244, -0.183, 0.061, -2.747, -49.79, -119.866, -24.453, -8.353, -0.987, 28.05, 0.44424, -0.3746, -0.19098, -0.79102,
 15:09:02.898,ed:40:fe:65:30:6c, 2015-01-01 00:39:02.680, 0.763, -0.03, 0.643, 0.061, -0.122, 0.061, -2.747, -49.796, -119.855, -24.453, -8.353, -0.987, 28.05, 0.44424, -0.3746, -0.19098, -0.79102,
 15:09:02.917,ed:35:33:d3:6c:f8, 2015-01-01 00:39:11.015, -0.11, -0.084, 0.989, 0.427, -0.793, -0.488, -5.18, 6.471, -165.35, 0.680, -7.933, -34.753, 27.53, 0.12943, 0.05026, 0.052, -0.98889,
 15:09:02.917,ed:35:33:d3:6c:f8, 2015-01-01 00:39:11.015, -0.123, -0.083, 0.985, 0.488, 0, -0.122, -5.169, 6.471, -165.344, 0.680, -7.933, -34.753, 27.53, 0.12943, 0.05026, 0.052, -0.98889,
 15:09:02.919,f6:90:cc:01:6d:25, 2015-01-01 00:39:06.250, 0.949, -0.055, 0.257, 0.061, 0.061, 0, -12.118, -74.537, -151.76, -30.613, -12.547, -3.440, 33.2, 0.13028, -0.60464, -0.06473, -0.78302,
 15:09:02.919,f6:90:cc:01:6d:25, 2015-01-01 00:39:06.250, 0.951, -0.054, 0.256, -0.183, 0.122, 0, -12.123, -74.531, -151.76, -30.613, -12.547, -3.440, 33.2, 0.13028, -0.60464, -0.06473, -0.78302,
 15:09:02.938,e3:ca:2d:fd:e0:8c, 2015-01-01 00:39:12.070, 0.972, -0.16, 0.273, 0, -0.061, 0, -30.569, -72.114, -161.235, -27.507, -10.187, -10.580, 30.28, 0.02603, 0.59521, -0.11792, 0.79437,
 15:09:02.938,e3:ca:2d:fd:e0:8c, 2015-01-01 00:39:12.070, 0.973, -0.159, 0.269, -0.061, -0.122, 0, -30.575, -72.114, -161.235, -27.507, -10.187, -10.580, 30.28, 0.02603, 0.59521, -0.11792, 0.79437,
 15:09:02.961,e3:ca:2d:fd:e0:8c, 2015-01-01 00:39:12.070, 0.973, -0.158, 0.274, -0.244, -0.488, 0, -30.591, -72.12, -161.224, -27.653, -9.953, -9.767, 30.28, 0.02603, 0.59521, -0.11792, 0.79437,
 15:09:02.961,e3:ca:2d:fd:e0:8c, 2015-01-01 00:39:12.070, 0.973, -0.157, 0.271, -0.305, -0.488, 0, -30.608, -72.131, -161.213, -27.653, -9.953, -9.767, 30.28, 0.02603, 0.59521, -0.11792, 0.79437,
 15:09:02.963,f6:90:cc:01:6d:25, 2015-01-01 00:39:06.250, 0.952, -0.051, 0.262, -0.366, -0.122, 0, -12.129, -74.537, -151.754, -30.613, -12.547, -3.440, 33.2, 0.13028, -0.60464, -0.06473, -0.78302,
 15:09:02.963,f6:90:cc:01:6d:25, 2015-01-01 00:39:06.250, 0.952, -0.051, 0.261, -0.427, -0.305, 0, -12.14, -74.542, -151.743, -30.613, -12.547, -3.440, 33.2, 0.13028, -0.60464, -0.06473, -0.78302,
 15:09:02.963,ed:35:33:d3:6c:f8, 2015-01-01 00:39:11.015, -0.114, -0.083, 0.994, 0.732, -0.671, 0.061, -5.153, 6.465, -165.322, 0.680, -7.933, -34.753, 27.53, 0.12943, 0.05026, 0.052, -0.98889,
 15:09:02.963,ed:35:33:d3:6c:f8, 2015-01-01 00:39:11.015, -0.11, -0.08, 0.988, -0.122, 0.244, -0.366, -5.147, 6.465, -165.289, 0.680, -7.933, -34.753, 27.53, 0.12943, 0.05026, 0.052, -0.98889,
 15:09:02.964,ed:40:fe:65:30:6c, 2015-01-01 00:39:02.680, 0.766, -0.027, 0.652, 0.061, -0.122, 0.061, -2.747, -49.796, -119.844, -24.453, -8.353, -0.987, 28.05, 0.44556, -0.37512, -0.19202, -0.78979,
 15:09:02.964,ed:40:fe:65:30:6c, 2015-01-01 00:39:02.680, 0.77, -0.024, 0.652, 0, 0, 0, -2.747, -49.79, -119.833, -24.453, -8.353, -0.987, 28.05, 0.44556, -0.37512, -0.19202, -0.78979,
 15:09:02.986,f6:90:cc:01:6d:25, 2015-01-01 00:39:06.250, 0.951, -0.05, 0.256, -0.732, -0.244, 0, -12.156, -74.542, -151.727, -30.613, -12.547, -3.440, 33.2, 0.13028, -0.60464, -0.06473, -0.78302,
 15:09:02.986,f6:90:cc:01:6d:25, 2015-01-01 00:39:06.250, 0.951, -0.053, 0.256, -0.916, -0.122, 0, -12.167, -74.548, -151.699, -30.613, -12.547, -3.440, 33.2, 0.13028, -0.60464, -0.06473, -0.78302,
 15:09:02.987,ed:35:33:d3:6c:f8, 2015-01-01 00:39:11.370, -0.115, -0.08, 0.989, 0, 0.732, -0.305, -5.147, 6.482, -165.262, 0.680, -7.933, -34.753, 27.53, 0.12943, 0.05026, 0.052, -0.98889,
 15:09:02.987,ed:35:33:d3:6c:f8, 2015-01-01 00:39:11.370, -0.113, -0.081, 0.99, 0.122, 1.282, 0, -5.142, 6.504, -165.229, 0.680, -7.933, -34.753, 27.53, 0.12943, 0.05026, 0.052, -0.98889,
 15:09:02.988,ed:40:fe:65:30:6c, 2015-01-01 00:39:03.035, 0.768, -0.025, 0.646, -0.244, 0, -0.061, -2.747, -49.79, -119.822, -24.453, -8.353, -0.987, 28.05, 0.44556, -0.37512, -0.19202, -0.78979,
 15:09:02.988,ed:40:fe:65:30:6c, 2015-01-01 00:39:03.035, 0.766, -0.026, 0.646, -0.366, -0.122, -0.061, -2.752, -49.796, -119.811, -24.453, -8.353, -0.987, 28.05, 0.44556, -0.37512, -0.19202, -0.78979,
 15:09:03.006,e3:ca:2d:fd:e0:8c, 2015-01-01 00:39:12.070, 0.972, -0.157, 0.271, -0.549, -0.305, 0, -30.624, -72.136, -161.202, -27.653, -9.953, -9.767, 30.28, 0.02603, 0.59521, -0.11792, 0.79437,
 15:09:03.006,e3:ca:2d:fd:e0:8c, 2015-01-01 00:39:12.070, 0.973, -0.158, 0.272, -0.549, -0.305, 0, -30.641, -72.136, -161.197, -27.653, -9.953, -9.767, 30.28, 0.02603, 0.59521, -0.11792, 0.79437,
 15:09:03.030,ed:35:33:d3:6c:f8, 2015-01-01 00:39:11.370, -0.111, -0.084, 0.986, 0.427, 0.732, 0.244, -5.125, 6.526, -165.179, 0.680, -7.933, -34.753, 27.53, 0.12943, 0.05026, 0.052, -0.98889,
 15:09:03.030,ed:35:33:d3:6c:f8, 2015-01-01 00:39:11.370, -0.119, -0.084, 0.99, 0.488, 0.61, 0.061, -5.114, 6.537, -165.146, 0.680, -7.933, -34.753, 27.53, 0.12943, 0.05026, 0.052, -0.98889,
 15:09:03.031,f6:90:cc:01:6d:25, 2015-01-01 00:39:06.250, 0.953, -0.054, 0.255, -1.282, 0, 0, -12.189, -74.548, -151.672, -30.613, -12.547, -3.440, 33.2, 0.13028, -0.60464, -0.06473, -0.78302,
 15:09:03.031,f6:90:cc:01:6d:25, 2015-01-01 00:39:06.250, 0.951, -0.057, 0.256, -1.343, 0.244, 0, -12.206, -74.542, -151.661, -30.613, -12.547, -3.440, 33.2, 0.13028, -0.60464, -0.06473, -0.78302,
 15:09:03.032,ed:40:fe:65:30:6c, 2015-01-01 00:39:03.035, 0.769, -0.028, 0.646, -0.549, -0.061, -0.122, -2.758, -49.796, -119.8, -24.453, -8.353, -0.987, 28.05, 0.44556, -0.37512, -0.19202, -0.78979,
 15:09:03.032,ed:40:fe:65:30:6c, 2015-01-01 00:39:03.035, 0.768, -0.031, 0.644, -0.549, 0.244, -0.183, -2.758, -49.79, -119.795, -24.453, -8.353, -0.987, 28.05, 0.44556, -0.37512, -0.19202, -0.78979,
 15:09:03.055,ed:40:fe:65:30:6c, 2015-01-01 00:39:03.035, 0.765, -0.03, 0.651, -0.488, 0.427, -0.122, -2.763, -49.779, -119.789, -24.453, -8.353, -0.987, 28.05, 0.44556, -0.37512, -0.19202, -0.78979,
 15:09:03.055,ed:40:fe:65:30:6c, 2015-01-01 00:39:03.035, 0.767, -0.031, 0.653, -0.488, 0.549, -0.122, -2.769, -49.768, -119.784, -24.453, -8.353, -0.987, 28.05, 0.44556, -0.37512, -0.19202, -0.78979,
 15:09:03.075,ed:35:33:d3:6c:f8, 2015-01-01 00:39:11.370, -0.121, -0.085, 0.991, 0.793, 0.916, -0.061, -5.098, 6.553, -165.108, 0.680, -7.933, -34.753, 27.53, 0.12943, 0.05026, 0.052, -0.98889,
 15:09:03.075,ed:35:33:d3:6c:f8, 2015-01-01 00:39:11.370, -0.112, -0.082, 0.989, 1.282, 0.977, 0.488, -5.07, 6.575, -165.07, 0.680, -7.933, -34.753, 27.53, 0.12943, 0.05026, 0.052, -0.98889,
 15:09:03.076,f6:90:cc:01:6d:25, 2015-01-01 00:39:06.250, 0.951, -0.057, 0.261, -1.648, 0.122, 0, -12.233, -74.537, -151.655, -30.613, -12.547, -3.440, 33.2, 0.13028, -0.60464, -0.06473, -0.78302,
 15:09:03.076,f6:90:cc:01:6d:25, 2015-01-01 00:39:06.250, 0.951, -0.058, 0.256, -1.465, 0, 0, -12.261, -74.537, -151.666, -30.613, -12.547, -3.440, 33.2, 0.13028, -0.60464, -0.06473, -0.78302,
 15:09:03.096,e3:ca:2d:fd:e0:8c, 2015-01-01 00:39:12.070, 0.973, -0.159, 0.27, -0.671, -0.305, 0, -30.657, -72.142, -161.186, -27.653, -9.953, -9.767, 30.28, 0.02615, 0.59509, -0.11795, 0.79446,
 15:09:03.096,e3:ca:2d:fd:e0:8c, 2015-01-01 00:39:12.070, 0.972, -0.16, 0.271, -0.671, -0.366, 0, -30.679, -72.147, -161.175, -27.653, -9.953, -9.767, 30.28, 0.02615, 0.59509, -0.11795, 0.79446,
 15:09:03.097,ed:35:33:d3:6c:f8, 2015-01-01 00:39:11.370, -0.116, -0.084, 0.99, 1.343, 0.305, 0.854, -5.037, 6.586, -165.026, 0.680, -7.933, -34.753, 27.53, 0.12943, 0.05026, 0.052, -0.98889,
 15:09:03.097,ed:35:33:d3:6c:f8, 2015-01-01 00:39:11.370, -0.111, -0.081, 0.989, 1.404, 0.366, 0.549, -5.01, 6.597, -164.982, 0.680, -7.933, -34.753, 27.53, 0.12943, 0.05026, 0.052, -0.98889,
 15:09:03.099,ed:40:fe:65:30:6c, 2015-01-01 00:39:03.035, 0.767, -0.034, 0.648, -0.305, 0.549, 0, -2.769, -49.757, -119.784, -24.453, -8.353, -0.987, 28.05, 0.44556, -0.37512, -0.19202, -0.78979,
 15:09:03.099,ed:40:fe:65:30:6c, 2015-01-01 00:39:03.035, 0.77, -0.029, 0.648, -0.183, 0.488, 0, -2.774, -49.746, -119.778, -24.453, -8.353, -0.987, 28.05, 0.44556, -0.37512, -0.19202, -0.78979,
 15:09:03.119,e3:ca:2d:fd:e0:8c, 2015-01-01 00:39:12.405, 0.974, -0.161, 0.272, -0.732, -0.61, 0, -30.707, -72.158, -161.164, -27.653, -9.953, -9.767, 30.28, 0.02615, 0.59509, -0.11795, 0.79446,
 15:09:03.119,e3:ca:2d:fd:e0:8c, 2015-01-01 00:39:12.405, 0.973, -0.162, 0.269, -0.427, -0.671, 0, -30.734, -72.169, -161.142, -27.653, -9.953, -9.767, 30.28, 0.02615, 0.59509, -0.11795, 0.79446,
 15:09:03.141,e3:ca:2d:fd:e0:8c, 2015-01-01 00:39:12.405, 0.975, -0.162, 0.267, -0.488, -0.427, 0, -30.756, -72.175, -161.125, -27.653, -9.953, -9.767, 30.28, 0.02615, 0.59509, -0.11795, 0.79446,
 15:09:03.141,e3:ca:2d:fd:e0:8c, 2015-01-01 00:39:12.405, 0.978, -0.16, 0.266, 0, 0.061, 0, -30.762, -72.175, -161.125, -27.653, -9.953, -9.767, 30.28, 0.02615, 0.59509, -0.11795, 0.79446,
 15:09:03.143,f6:90:cc:01:6d:25, 2015-01-01 00:39:06.250, 0.951, -0.057, 0.255, -0.671, 0.183, 0, -12.272, -74.531, -151.672, -31.020, -12.660, -4.100, 33.2, 0.13028, -0.60464, -0.06473, -0.78302,
 15:09:03.143,f6:90:cc:01:6d:25, 2015-01-01 00:39:06.250, 0.955, -0.054, 0.247, -0.366, 0.122, 0, -12.277, -74.531, -151.661, -31.020, -12.660, -4.100, 33.2, 0.13028, -0.60464, -0.06473, -0.78302,
 15:09:03.143,ed:35:33:d3:6c:f8, 2015-01-01 00:39:11.370, -0.115, -0.076, 0.991, 1.892, 0, 0.122, -4.971, 6.597, -164.938, 0.680, -7.933, -34.753, 27.53, 0.12943, 0.05026, 0.052, -0.98889,
 15:09:03.143,ed:35:33:d3:6c:f8, 2015-01-01 00:39:11.370, -0.119, -0.076, 0.998, 2.075, -0.244, 0.305, -4.927, 6.597, -164.894, 0.680, -7.933, -34.753, 27.53, 0.12943, 0.05026, 0.052, -0.98889,
 15:09:03.145,ed:40:fe:65:30:6c, 2015-01-01 00:39:03.035, 0.774, -0.026, 0.648, -0.366, 0.183, 0.061, -2.78, -49.746, -119.773, -24.453, -8.353, -0.987, 28.05, 0.44556, -0.37512, -0.19202, -0.78979,
 15:09:03.145,ed:40:fe:65:30:6c, 2015-01-01 00:39:03.035, 0.771, -0.029, 0.654, -0.061, 0, 0.366, -2.785, -49.746, -119.756, -24.453, -8.353, -0.987, 28.05, 0.44556, -0.37512, -0.19202, -0.78979,
 15:09:03.163,e3:ca:2d:fd:e0:8c, 2015-01-01 00:39:12.405, 0.975, -0.162, 0.266, 0.061, 0.977, 0, -30.734, -72.164, -161.153, -27.653, -9.953, -9.767, 30.28, 0.02615, 0.59509, -0.11795, 0.79446,
 15:09:03.163,e3:ca:2d:fd:e0:8c, 2015-01-01 00:39:12.405, 0.975, -0.163, 0.269, 0, 1.16, 0, -30.701, -72.142, -161.169, -27.653, -9.953, -9.767, 30.28, 0.02615, 0.59509, -0.11795, 0.79446,
 15:09:03.166,f6:90:cc:01:6d:25, 2015-01-01 00:39:06.250, 0.957, -0.056, 0.245, 0, -0.305, 0, -12.277, -74.542, -151.644, -31.020, -12.660, -4.100, 33.2, 0.13095, -0.60458, -0.06491, -0.78293,
 15:09:03.166,f6:90:cc:01:6d:25, 2015-01-01 00:39:06.250, 0.955, -0.062, 0.253, -0.671, -1.404, 0, -12.316, -74.57, -151.606, -31.020, -12.660, -4.100, 33.2, 0.13095, -0.60458, -0.06491, -0.78293,
 15:09:03.188,ed:35:33:d3:6c:f8, 2015-01-01 00:39:11.370, -0.117, -0.079, 0.999, 1.282, -0.244, 0.61, -4.894, 6.592, -164.855, 0.680, -7.933, -34.753, 27.53, 0.12943, 0.05026, 0.052, -0.98889,
 15:09:03.188,ed:35:33:d3:6c:f8, 2015-01-01 00:39:11.370, -0.113, -0.082, 0.994, 1.099, -0.366, 0.427, -4.867, 6.586, -164.822, 0.680, -7.933, -34.753, 27.53, 0.12943, 0.05026, 0.052, -0.98889,
 15:09:03.191,ed:40:fe:65:30:6c, 2015-01-01 00:39:03.035, 0.771, -0.034, 0.65, 0, -0.488, 0.732, -2.802, -49.752, -119.729, -24.453, -8.353, -0.987, 28.05, 0.44556, -0.37512, -0.19202, -0.78979,
 15:09:03.191,ed:40:fe:65:30:6c, 2015-01-01 00:39:03.035, 0.765, -0.033, 0.65, 0.061, -0.854, 0.854, -2.818, -49.768, -119.696, -24.453, -8.353, -0.987, 28.05, 0.44556, -0.37512, -0.19202, -0.78979,
 15:09:03.209,e3:ca:2d:fd:e0:8c, 2015-01-01 00:39:12.405, 0.973, -0.161, 0.27, 0, 0.854, 0, -30.674, -72.125, -161.191, -27.653, -9.953, -9.767, 30.28, 0.02615, 0.59509, -0.11795, 0.79446,
 15:09:03.209,e3:ca:2d:fd:e0:8c, 2015-01-01 00:39:12.405, 0.971, -0.16, 0.269, -0.122, 0.732, 0, -30.657, -72.114, -161.208, -27.653, -9.953, -9.767, 30.28, 0.02615, 0.59509, -0.11795, 0.79446,
 15:09:03.213,f6:90:cc:01:6d:25, 2015-01-01 00:39:06.250, 0.949, -0.06, 0.259, -0.671, -1.343, 0, -12.354, -74.597, -151.573, -31.020, -12.660, -4.100, 33.2, 0.13095, -0.60458, -0.06491, -0.78293,
 15:09:03.213,f6:90:cc:01:6d:25, 2015-01-01 00:39:06.250, 0.951, -0.057, 0.255, -0.366, -0.854, 0, -12.387, -74.619, -151.529, -31.020, -12.660, -4.100, 33.2, 0.13095, -0.60458, -0.06491, -0.78293,
 15:09:03.231,e3:ca:2d:fd:e0:8c, 2015-01-01 00:39:12.405, 0.972, -0.16, 0.271, -0.061, 0.488, 0, -30.641, -72.103, -161.235, -27.653, -9.953, -9.767, 30.28, 0.02615, 0.59509, -0.11795, 0.79446,
 15:09:03.231,e3:ca:2d:fd:e0:8c, 2015-01-01 00:39:12.405, 0.973, -0.16, 0.271, 0, 0.488, 0, -30.63, -72.098, -161.263, -27.653, -9.953, -9.767, 30.28, 0.02615, 0.59509, -0.11795, 0.79446,
 15:09:03.233,f6:90:cc:01:6d:25, 2015-01-01 00:39:06.630, 0.952, -0.058, 0.253, 0.061, -0.305, 0, -12.404, -74.636, -151.507, -31.020, -12.660, -4.100, 33.2, 0.13095, -0.60458, -0.06491, -0.78293,
 15:09:03.233,f6:90:cc:01:6d:25, 2015-01-01 00:39:06.630, 0.954, -0.057, 0.248, 0.244, 0, 0, -12.409, -74.636, -151.49, -31.020, -12.660, -4.100, 33.2, 0.13095, -0.60458, -0.06491, -0.78293,
 15:09:03.235,ed:40:fe:65:30:6c, 2015-01-01 00:39:03.035, 0.767, -0.035, 0.645, 0.244, -0.671, 0.732, -2.834, -49.785, -119.669, -24.207, -8.093, -1.880, 28.05, 0.44556, -0.37512, -0.19202, -0.78979,
 15:09:03.235,ed:40:fe:65:30:6c, 2015-01-01 00:39:03.035, 0.77, -0.038, 0.641, 0.427, -0.061, 0.549, -2.84, -49.785, -119.647, -24.207, -8.093, -1.880, 28.05, 0.44556, -0.37512, -0.19202, -0.78979,
 15:09:03.256,ed:35:33:d3:6c:f8, 2015-01-01 00:39:11.370, -0.105, -0.086, 0.984, 1.343, -1.343, 0.549, -4.834, 6.564, -164.767, 0.727, -7.553, -34.180, 27.53, 0.12943, 0.05026, 0.052, -0.98889,
 15:09:03.256,ed:35:33:d3:6c:f8, 2015-01-01 00:39:11.370, -0.1, -0.085, 0.982, 1.831, -1.709, 1.099, -4.801, 6.537, -164.702, 0.727, -7.553, -34.180, 27.53, 0.12943, 0.05026, 0.052, -0.98889,
 15:09:03.258,ed:40:fe:65:30:6c, 2015-01-01 00:39:03.035, 0.771, -0.035, 0.638, 0.366, 0.244, 0.427, -2.84, -49.779, -119.625, -24.207, -8.093, -1.880, 28.05, 0.44693, -0.37497, -0.19208, -0.78909,
 15:09:03.258,ed:40:fe:65:30:6c, 2015-01-01 00:39:03.035, 0.77, -0.029, 0.642, 0.061, 0.671, 0.366, -2.845, -49.768, -119.614, -24.207, -8.093, -1.880, 28.05, 0.44693, -0.37497, -0.19208, -0.78909,
 15:09:03.279,ed:35:33:d3:6c:f8, 2015-01-01 00:39:11.370, -0.108, -0.079, 0.984, 1.831, 0.061, 1.648, -4.757, 6.531, -164.641, 0.727, -7.553, -34.180, 27.53, 0.13571, 0.05087, 0.04861, -0.98819,
 15:09:03.279,ed:35:33:d3:6c:f8, 2015-01-01 00:39:11.370, -0.119, -0.071, 0.994, 0.61, 2.136, 1.343, -4.735, 6.564, -164.597, 0.727, -7.553, -34.180, 27.53, 0.13571, 0.05087, 0.04861, -0.98819,
 15:09:03.279,f6:90:cc:01:6d:25, 2015-01-01 00:39:06.630, 0.955, -0.055, 0.254, -0.305, -0.305, 0, -12.409, -74.641, -151.479, -31.020, -12.660, -4.100, 33.2, 0.13095, -0.60458, -0.06491, -0.78293,
 15:09:03.279,f6:90:cc:01:6d:25, 2015-01-01 00:39:06.630, 0.953, -0.054, 0.259, -0.793, -0.183, 0, -12.426, -74.647, -151.447, -31.020, -12.660, -4.100, 33.2, 0.13095, -0.60458, -0.06491, -0.78293,
 15:09:03.300,e3:ca:2d:fd:e0:8c, 2015-01-01 00:39:12.405, 0.973, -0.161, 0.271, 0, 0.977, -0.305, -30.591, -72.087, -161.307, -27.653, -9.953, -9.767, 30.28, 0.02615, 0.59509, -0.11795, 0.79446,
 15:09:03.300,e3:ca:2d:fd:e0:8c, 2015-01-01 00:39:12.405, 0.974, -0.163, 0.275, 0, 1.16, -0.305, -30.542, -72.07, -161.34, -27.653, -9.953, -9.767, 30.28, 0.02615, 0.59509, -0.11795, 0.79446,
 15:09:03.302,ed:40:fe:65:30:6c, 2015-01-01 00:39:03.035, 0.768, -0.025, 0.65, -0.366, 0.549, 0.427, -2.862, -49.757, -119.597, -24.207, -8.093, -1.880, 28.05, 0.44693, -0.37497, -0.19208, -0.78909,
 15:09:03.302,ed:40:fe:65:30:6c, 2015-01-01 00:39:03.035, 0.764, -0.026, 0.653, -0.671, 0.183, 0.61, -2.889, -49.757, -119.575, -24.207, -8.093, -1.880, 28.05, 0.44693, -0.37497, -0.19208, -0.78909,
 15:09:03.322,e3:ca:2d:fd:e0:8c, 2015-01-01 00:39:12.405, 0.971, -0.16, 0.275, 0, 1.099, -0.183, -30.498, -72.054, -161.367, -27.480, -10.200, -10.067, 30.28, 0.02615, 0.59509, -0.11795, 0.79446,
 15:09:03.322,e3:ca:2d:fd:e0:8c, 2015-01-01 00:39:12.405, 0.971, -0.156, 0.273, -0.427, 0.916, -0.061, -30.471, -72.037, -161.395, -27.480, -10.200, -10.067, 30.28, 0.02615, 0.59509, -0.11795, 0.79446,
 15:09:03.323,f6:90:cc:01:6d:25, 2015-01-01 00:39:06.630, 0.949, -0.051, 0.26, -1.343, -0.061, 0.366, -12.453, -74.652, -151.425, -31.020, -12.660, -4.100, 33.2, 0.13095, -0.60458, -0.06491, -0.78293,
 15:09:03.323,f6:90:cc:01:6d:25, 2015-01-01 00:39:06.630, 0.949, -0.048, 0.26, -2.014, -0.061, 0.427, -12.513, -74.652, -151.381, -31.020, -12.660, -4.100, 33.2, 0.13095, -0.60458, -0.06491, -0.78293,
 15:09:03.345,ed:35:33:d3:6c:f8, 2015-01-01 00:39:11.370, -0.123, -0.068, 0.997, -0.183, 3.357, 0.671, -4.735, 6.63, -164.581, 0.727, -7.553, -34.180, 27.53, 0.13571, 0.05087, 0.04861, -0.98819,
 15:09:03.345,ed:35:33:d3:6c:f8, 2015-01-01 00:39:11.370, -0.124, -0.073, 0.994, -0.732, 3.784, -0.427, -4.752, 6.702, -164.586, 0.727, -7.553, -34.180, 27.53, 0.13571, 0.05087, 0.04861, -0.98819,
 15:09:03.346,f6:90:cc:01:6d:25, 2015-01-01 00:39:06.630, 0.949, -0.051, 0.262, -1.892, -0.244, 0.488, -12.574, -74.647, -151.32, -31.020, -12.660, -4.100, 33.2, 0.13095, -0.60458, -0.06491, -0.78293,
 15:09:03.346,f6:90:cc:01:6d:25, 2015-01-01 00:39:06.630, 0.95, -0.058, 0.262, -1.526, -0.244, 0.427, -12.64, -74.652, -151.249, -31.020, -12.660, -4.100, 33.2, 0.13095, -0.60458, -0.06491, -0.78293,
 15:09:03.347,ed:40:fe:65:30:6c, 2015-01-01 00:39:03.370, 0.763, -0.025, 0.651, -1.038, -0.061, 0.305, -2.911, -49.757, -119.559, -24.207, -8.093, -1.880, 28.05, 0.44693, -0.37497, -0.19208, -0.78909,
 15:09:03.347,ed:40:fe:65:30:6c, 2015-01-01 00:39:03.370, 0.762, -0.025, 0.652, -1.221, -0.183, 0, -2.933, -49.763, -119.57, -24.207, -8.093, -1.880, 28.05, 0.44693, -0.37497, -0.19208, -0.78909,
 15:09:03.367,e3:ca:2d:fd:e0:8c, 2015-01-01 00:39:12.405, 0.97, -0.153, 0.275, -0.671, 0.671, 0.061, -30.46, -72.026, -161.411, -27.480, -10.200, -10.067, 30.28, 0.02615, 0.59509, -0.11795, 0.79446,
 15:09:03.367,e3:ca:2d:fd:e0:8c, 2015-01-01 00:39:12.405, 0.971, -0.154, 0.276, -0.671, 0.427, 0.061, -30.46, -72.015, -161.422, -27.480, -10.200, -10.067, 30.28, 0.02615, 0.59509, -0.11795, 0.79446,
 15:09:03.367,ed:35:33:d3:6c:f8, 2015-01-01 00:39:11.750, -0.125, -0.075, 0.988, -0.916, 3.967, -1.282, -4.768, 6.779, -164.608, 0.727, -7.553, -34.180, 27.53, 0.13571, 0.05087, 0.04861, -0.98819,
 15:09:03.367,ed:35:33:d3:6c:f8, 2015-01-01 00:39:11.750, -0.132, -0.072, 0.99, -0.671, 4.028, -1.648, -4.785, 6.855, -164.63, 0.727, -7.553, -34.180, 27.53, 0.13571, 0.05087, 0.04861, -0.98819,
 15:09:03.390,ed:35:33:d3:6c:f8, 2015-01-01 00:39:11.750, -0.126, -0.078, 0.989, -1.038, 4.15, -1.709, -4.801, 6.932, -164.652, 0.727, -7.553, -34.180, 27.53, 0.13571, 0.05087, 0.04861, -0.98819,
 15:09:03.392,ed:35:33:d3:6c:f8, 2015-01-01 00:39:11.750, -0.127, -0.085, 0.985, -1.038, 3.601, -1.587, -4.823, 7.004, -164.658, 0.727, -7.553, -34.180, 27.53, 0.13571, 0.05087, 0.04861, -0.98819,
 15:09:03.394,ed:40:fe:65:30:6c, 2015-01-01 00:39:03.370, 0.763, -0.032, 0.653, -0.732, 0, 0.122, -2.944, -49.763, -119.575, -24.207, -8.093, -1.880, 28.05, 0.44693, -0.37497, -0.19208, -0.78909,
 15:09:03.394,ed:40:fe:65:30:6c, 2015-01-01 00:39:03.370, 0.761, -0.038, 0.652, -0.244, 0.244, 0.122, -2.95, -49.752, -119.575, -24.207, -8.093, -1.880, 28.05, 0.44693, -0.37497, -0.19208, -0.78909,
 15:09:03.394,f6:90:cc:01:6d:25, 2015-01-01 00:39:06.630, 0.948, -0.058, 0.259, -0.977, -0.122, 0.122, -12.684, -74.652, -151.188, -31.020, -12.660, -4.100, 33.2, 0.13095, -0.60458, -0.06491, -0.78293,
 15:09:03.394,f6:90:cc:01:6d:25, 2015-01-01 00:39:06.630, 0.949, -0.054, 0.258, -0.916, 0, -0.061, -12.706, -74.652, -151.155, -31.020, -12.660, -4.100, 33.2, 0.13095, -0.60458, -0.06491, -0.78293,
 15:09:03.435,ed:35:33:d3:6c:f8, 2015-01-01 00:39:11.750, -0.131, -0.091, 0.982, -0.244, 2.808, -1.648, -4.828, 7.053, -164.658, 0.727, -7.553, -34.180, 27.53, 0.13571, 0.05087, 0.04861, -0.98819,
 15:09:03.435,ed:35:33:d3:6c:f8, 2015-01-01 00:39:11.750, -0.137, -0.081, 0.989, -0.366, 3.113, -1.587, -4.839, 7.114, -164.669, 0.727, -7.553, -34.180, 27.53, 0.13571, 0.05087, 0.04861, -0.98819,
 15:09:03.436,f6:90:cc:01:6d:25, 2015-01-01 00:39:06.630, 0.95, -0.054, 0.258, -0.977, 0, -0.244, -12.706, -74.647, -151.15, -31.020, -12.660, -4.100, 33.2, 0.13095, -0.60458, -0.06491, -0.78293,
 15:09:03.436,f6:90:cc:01:6d:25, 2015-01-01 00:39:06.630, 0.951, -0.053, 0.261, -1.404, -0.122, -0.122, -12.706, -74.647, -151.15, -31.020, -12.660, -4.100, 33.2, 0.13095, -0.60458, -0.06491, -0.78293,
 15:09:03.437,ed:40:fe:65:30:6c, 2015-01-01 00:39:03.370, 0.761, -0.038, 0.651, 0.183, 0.549, -0.122, -2.944, -49.741, -119.575, -24.207, -8.093, -1.880, 28.05, 0.44693, -0.37497, -0.19208, -0.78909,
 15:09:03.437,ed:40:fe:65:30:6c, 2015-01-01 00:39:03.370, 0.761, -0.027, 0.653, -0.427, 0.793, -0.977, -2.922, -49.724, -119.592, -24.207, -8.093, -1.880, 28.05, 0.44693, -0.37497, -0.19208, -0.78909,
 15:09:03.456,e3:ca:2d:fd:e0:8c, 2015-01-01 00:39:12.405, 0.971, -0.156, 0.276, -0.488, 0.061, 0, -30.46, -72.01, -161.433, -27.480, -10.200, -10.067, 30.28, 0.02643, 0.59409, -0.11813, 0.79517,
 15:09:03.456,e3:ca:2d:fd:e0:8c, 2015-01-01 00:39:12.405, 0.97, -0.156, 0.275, -0.366, 0, 0, -30.46, -72.01, -161.45, -27.480, -10.200, -10.067, 30.28, 0.02643, 0.59409, -0.11813, 0.79517,
 15:09:03.458,ed:35:33:d3:6c:f8, 2015-01-01 00:39:11.750, -0.139, -0.073, 0.992, -0.61, 3.784, -1.831, -4.856, 7.191, -164.68, 0.727, -7.553, -34.180, 27.53, 0.13571, 0.05087, 0.04861, -0.98819,
 15:09:03.458,ed:35:33:d3:6c:f8, 2015-01-01 00:39:11.750, -0.137, -0.069, 0.992, -0.366, 3.357, -2.258, -4.867, 7.251, -164.707, 0.727, -7.553, -34.180, 27.53, 0.13571, 0.05087, 0.04861, -0.98819,
 15:09:03.459,ed:40:fe:65:30:6c, 2015-01-01 00:39:03.370, 0.762, -0.023, 0.659, -0.854, 0.671, -0.916, -2.911, -49.708, -119.614, -24.207, -8.093, -1.880, 28.05, 0.44693, -0.37497, -0.19208, -0.78909,
 15:09:03.459,ed:40:fe:65:30:6c, 2015-01-01 00:39:03.370, 0.765, -0.028, 0.657, -0.854, 0.488, -0.793, -2.9, -49.691, -119.63, -24.207, -8.093, -1.880, 28.05, 0.44693, -0.37497, -0.19208, -0.78909,
 15:09:03.479,e3:ca:2d:fd:e0:8c, 2015-01-01 00:39:12.765, 0.97, -0.156, 0.276, -0.427, -0.122, 0.061, -30.465, -72.01, -161.472, -27.480, -10.200, -10.067, 30.28, 0.02643, 0.59409, -0.11813, 0.79517,
 15:09:03.479,e3:ca:2d:fd:e0:8c, 2015-01-01 00:39:12.765, 0.971, -0.156, 0.275, -0.488, -0.244, 0.122, -30.476, -72.015, -161.483, -27.480, -10.200, -10.067, 30.28, 0.02643, 0.59409, -0.11813, 0.79517,
 15:09:03.501,e3:ca:2d:fd:e0:8c, 2015-01-01 00:39:12.765, 0.972, -0.157, 0.276, -0.793, -0.549, 0.183, -30.509, -72.021, -161.472, -27.480, -10.200, -10.067, 30.28, 0.02643, 0.59409, -0.11813, 0.79517,
 15:09:03.501,e3:ca:2d:fd:e0:8c, 2015-01-01 00:39:12.765, 0.972, -0.158, 0.276, -1.282, -0.854, 0.183, -30.553, -72.032, -161.439, -27.480, -10.200, -10.067, 30.28, 0.02643, 0.59409, -0.11813, 0.79517,
 15:09:03.502,ed:35:33:d3:6c:f8, 2015-01-01 00:39:11.750, -0.131, -0.079, 0.99, -0.305, 2.991, -2.869, -4.872, 7.311, -164.756, 0.727, -7.553, -34.180, 27.53, 0.13571, 0.05087, 0.04861, -0.98819,
 15:09:03.502,ed:35:33:d3:6c:f8, 2015-01-01 00:39:11.750, -0.131, -0.083, 0.986, -0.122, 3.601, -3.479, -4.883, 7.377, -164.833, 0.727, -7.553, -34.180, 27.53, 0.13571, 0.05087, 0.04861, -0.98819,
 15:09:03.503,f6:90:cc:01:6d:25, 2015-01-01 00:39:06.630, 0.951, -0.054, 0.262, -2.075, -0.305, -0.061, -12.722, -74.647, -151.15, -31.260, -12.627, -3.387, 33.2, 0.13095, -0.60458, -0.06491, -0.78293,
 15:09:03.503,f6:90:cc:01:6d:25, 2015-01-01 00:39:06.630, 0.952, -0.056, 0.26, -2.625, -0.488, 0, -12.755, -74.652, -151.133, -31.260, -12.627, -3.387, 33.2, 0.13095, -0.60458, -0.06491, -0.78293,
 15:09:03.505,ed:40:fe:65:30:6c, 2015-01-01 00:39:03.370, 0.764, -0.032, 0.651, -0.977, 0.244, -0.916, -2.895, -49.68, -119.658, -24.207, -8.093, -1.880, 28.05, 0.44693, -0.37497, -0.19208, -0.78909,
 15:09:03.505,ed:40:fe:65:30:6c, 2015-01-01 00:39:03.370, 0.763, -0.033, 0.649, -1.221, 0.244, -1.16, -2.889, -49.675, -119.702, -24.207, -8.093, -1.880, 28.05, 0.44693, -0.37497, -0.19208, -0.78909,
 15:09:03.524,e3:ca:2d:fd:e0:8c, 2015-01-01 00:39:12.765, 0.971, -0.161, 0.275, -1.404, -1.099, 0.183, -30.613, -72.043, -161.4, -27.480, -10.200, -10.067, 30.28, 0.02643, 0.59409, -0.11813, 0.79517,
 15:09:03.524,e3:ca:2d:fd:e0:8c, 2015-01-01 00:39:12.765, 0.97, -0.162, 0.274, -1.404, -1.099, 0.305, -30.685, -72.059, -161.367, -27.480, -10.200, -10.067, 30.28, 0.02643, 0.59409, -0.11813, 0.79517,
 15:09:03.526,f6:90:cc:01:6d:25, 2015-01-01 00:39:06.630, 0.95, -0.059, 0.257, -2.625, -0.488, -0.061, -12.805, -74.658, -151.122, -31.260, -12.627, -3.387, 33.2, 0.1315, -0.60568, -0.06436, -0.78204,
 15:09:03.526,f6:90:cc:01:6d:25, 2015-01-01 00:39:06.630, 0.95, -0.059, 0.254, -2.563, -0.244, -0.122, -12.849, -74.663, -151.117, -31.260, -12.627, -3.387, 33.2, 0.1315, -0.60568, -0.06436, -0.78204,
 15:09:03.550,ed:40:fe:65:30:6c, 2015-01-01 00:39:03.370, 0.762, -0.033, 0.648, -1.343, 0.366, -1.282, -2.884, -49.669, -119.745, -23.987, -8.353, -1.647, 28.05, 0.44693, -0.37497, -0.19208, -0.78909,
 15:09:03.550,ed:40:fe:65:30:6c, 2015-01-01 00:39:03.370, 0.764, -0.033, 0.653, -1.465, 0.61, -1.099, -2.878, -49.658, -119.784, -23.987, -8.353, -1.647, 28.05, 0.44693, -0.37497, -0.19208, -0.78909,
 15:09:03.569,e3:ca:2d:fd:e0:8c, 2015-01-01 00:39:12.765, 0.97, -0.163, 0.274, -1.282, -1.038, 0.244, -30.745, -72.07, -161.329, -27.480, -10.200, -10.067, 30.28, 0.02643, 0.59409, -0.11813, 0.79517,
 15:09:03.569,e3:ca:2d:fd:e0:8c, 2015-01-01 00:39:12.765, 0.972, -0.163, 0.273, -1.099, -1.038, 0.183, -30.8, -72.087, -161.296, -27.480, -10.200, -10.067, 30.28, 0.02643, 0.59409, -0.11813, 0.79517,
 15:09:03.570,ed:35:33:d3:6c:f8, 2015-01-01 00:39:11.750, -0.136, -0.083, 0.985, -0.671, 3.052, -3.052, -4.9, 7.432, -164.905, 0.727, -7.553, -34.180, 27.53, 0.13571, 0.05087, 0.04861, -0.98819,
 15:09:03.570,ed:35:33:d3:6c:f8, 2015-01-01 00:39:11.750, -0.141, -0.08, 0.987, -0.671, 2.747, -2.319, -4.916, 7.487, -164.96, 0.727, -7.553, -34.180, 27.53, 0.13571, 0.05087, 0.04861, -0.98819,
 15:09:03.572,f6:90:cc:01:6d:25, 2015-01-01 00:39:06.630, 0.951, -0.06, 0.255, -2.441, 0.061, -0.061, -12.887, -74.669, -151.1, -31.260, -12.627, -3.387, 33.2, 0.1315, -0.60568, -0.06436, -0.78204,
 15:09:03.572,f6:90:cc:01:6d:25, 2015-01-01 00:39:06.630, 0.952, -0.063, 0.257, -2.197, 0.183, 0, -12.925, -74.663, -151.078, -31.260, -12.627, -3.387, 33.2, 0.1315, -0.60568, -0.06436, -0.78204,
 15:09:03.594,ed:35:33:d3:6c:f8, 2015-01-01 00:39:11.750, -0.139, -0.08, 0.989, -0.549, 1.831, -1.953, -4.927, 7.52, -165.004, 1.687, -7.893, -34.600, 27.53, 0.13571, 0.05087, 0.04861, -0.98819,
 15:09:03.594,ed:35:33:d3:6c:f8, 2015-01-01 00:39:11.750, -0.132, -0.086, 0.99, 0, 1.038, -0.977, -4.927, 7.542, -165.026, 1.687, -7.893, -34.600, 27.53, 0.13571, 0.05087, 0.04861, -0.98819,
 15:09:03.594,f6:90:cc:01:6d:25, 2015-01-01 00:39:06.985, 0.954, -0.063, 0.257, -1.648, 0.183, 0, -12.958, -74.658, -151.062, -31.260, -12.627, -3.387, 33.2, 0.1315, -0.60568, -0.06436, -0.78204,
 15:09:03.594,f6:90:cc:01:6d:25, 2015-01-01 00:39:06.985, 0.953, -0.059, 0.256, -1.465, 0.305, -0.061, -12.98, -74.652, -151.04, -31.260, -12.627, -3.387, 33.2, 0.1315, -0.60568, -0.06436, -0.78204,
 15:09:03.595,ed:40:fe:65:30:6c, 2015-01-01 00:39:03.370, 0.766, -0.036, 0.655, -1.282, 0.61, -0.977, -2.884, -49.647, -119.811, -23.987, -8.353, -1.647, 28.05, 0.44577, -0.37454, -0.19067, -0.79028,
 15:09:03.595,ed:40:fe:65:30:6c, 2015-01-01 00:39:03.370, 0.768, -0.037, 0.65, -1.038, 0.61, -0.977, -2.884, -49.631, -119.833, -23.987, -8.353, -1.647, 28.05, 0.44577, -0.37454, -0.19067, -0.79028,
 15:09:03.613,e3:ca:2d:fd:e0:8c, 2015-01-01 00:39:12.765, 0.975, -0.163, 0.272, -0.977, -1.221, 0.122, -30.861, -72.103, -161.274, -27.480, -10.200, -10.067, 30.28, 0.02643, 0.59409, -0.11813, 0.79517,
 15:09:03.613,e3:ca:2d:fd:e0:8c, 2015-01-01 00:39:12.765, 0.973, -0.162, 0.271, -0.793, -1.404, 0.061, -30.916, -72.125, -161.23, -27.480, -10.200, -10.067, 30.28, 0.02643, 0.59409, -0.11813, 0.79517,
 15:09:03.617,ed:40:fe:65:30:6c, 2015-01-01 00:39:03.685, 0.77, -0.033, 0.647, -1.16, 0.916, -1.343, -2.878, -49.614, -119.861, -23.987, -8.353, -1.647, 28.05, 0.44577, -0.37454, -0.19067, -0.79028,
 15:09:03.617,ed:40:fe:65:30:6c, 2015-01-01 00:39:03.685, 0.771, -0.029, 0.647, -1.282, 1.282, -1.404, -2.867, -49.598, -119.894, -23.987, -8.353, -1.647, 28.05, 0.44577, -0.37454, -0.19067, -0.79028,
 15:09:03.637,ed:35:33:d3:6c:f8, 2015-01-01 00:39:11.750, -0.127, -0.09, 0.985, 0.732, 1.221, -1.099, -4.916, 7.564, -165.042, 1.687, -7.893, -34.600, 27.53, 0.13571, 0.05087, 0.04861, -0.98819,
 15:09:03.637,ed:35:33:d3:6c:f8, 2015-01-01 00:39:11.750, -0.13, -0.085, 0.985, 1.16, 1.404, -2.502, -4.9, 7.592, -165.097, 1.687, -7.893, -34.600, 27.53, 0.13571, 0.05087, 0.04861, -0.98819,
 15:09:03.639,f6:90:cc:01:6d:25, 2015-01-01 00:39:06.985, 0.955, -0.059, 0.253, -1.343, 0.732, -0.061, -12.997, -74.636, -151.029, -31.260, -12.627, -3.387, 33.2, 0.1315, -0.60568, -0.06436, -0.78204,
 15:09:03.639,f6:90:cc:01:6d:25, 2015-01-01 00:39:06.985, 0.956, -0.061, 0.251, -1.099, 0.977, 0, -13.002, -74.619, -151.018, -31.260, -12.627, -3.387, 33.2, 0.1315, -0.60568, -0.06436, -0.78204,
 15:09:03.658,e3:ca:2d:fd:e0:8c, 2015-01-01 00:39:12.765, 0.973, -0.161, 0.272, -0.854, -1.587, 0.122, -30.987, -72.147, -161.186, -27.480, -10.200, -10.067, 30.28, 0.02643, 0.59409, -0.11813, 0.79517,
 15:09:03.658,e3:ca:2d:fd:e0:8c, 2015-01-01 00:39:12.765, 0.976, -0.162, 0.267, -0.732, -1.526, 0.122, -31.053, -72.169, -161.142, -27.480, -10.200, -10.067, 30.28, 0.02643, 0.59409, -0.11813, 0.79517,
 15:09:03.659,ed:35:33:d3:6c:f8, 2015-01-01 00:39:11.750, -0.133, -0.072, 0.991, 1.648, 1.343, -2.747, -4.872, 7.614, -165.135, 1.687, -7.893, -34.600, 27.53, 0.13196, 0.06009, 0.05081, -0.98807,
 15:09:03.659,ed:35:33:d3:6c:f8, 2015-01-01 00:39:11.750, -0.14, -0.07, 0.998, 1.587, 0.61, -2.686, -4.845, 7.619, -165.179, 1.687, -7.893, -34.600, 27.53, 0.13196, 0.06009, 0.05081, -0.98807,
 15:09:03.663,ed:40:fe:65:30:6c, 2015-01-01 00:39:03.685, 0.766, -0.03, 0.652, -0.916, 1.038, -0.977, -2.862, -49.576, -119.921, -23.987, -8.353, -1.647, 28.05, 0.44577, -0.37454, -0.19067, -0.79028,
 15:09:03.663,ed:40:fe:65:30:6c, 2015-01-01 00:39:03.685, 0.765, -0.037, 0.654, -0.183, 0.671, -0.244, -2.856, -49.554, -119.938, -23.987, -8.353, -1.647, 28.05, 0.44577, -0.37454, -0.19067, -0.79028,
 15:09:03.681,e3:ca:2d:fd:e0:8c, 2015-01-01 00:39:12.765, 0.974, -0.163, 0.268, -0.366, -1.343, 0, -31.097, -72.191, -161.098, -27.227, -9.947, -10.553, 30.28, 0.02643, 0.59409, -0.11813, 0.79517,
 15:09:03.681,e3:ca:2d:fd:e0:8c, 2015-01-01 00:39:12.765, 0.975, -0.163, 0.266, 0, -1.099, -0.061, -31.124, -72.208, -161.071, -27.227, -9.947, -10.553, 30.28, 0.02643, 0.59409, -0.11813, 0.79517,
 15:09:03.683,f6:90:cc:01:6d:25, 2015-01-01 00:39:06.985, 0.952, -0.064, 0.253, -0.671, 1.038, -0.061, -13.002, -74.603, -151.007, -31.260, -12.627, -3.387, 33.2, 0.1315, -0.60568, -0.06436, -0.78204,
 15:09:03.683,f6:90:cc:01:6d:25, 2015-01-01 00:39:06.985, 0.953, -0.066, 0.253, -0.305, 0.916, -0.122, -12.997, -74.581, -151.018, -31.260, -12.627, -3.387, 33.2, 0.1315, -0.60568, -0.06436, -0.78204,
 15:09:03.704,ed:35:33:d3:6c:f8, 2015-01-01 00:39:11.750, -0.138, -0.08, 0.994, 1.465, -0.305, -2.136, -4.818, 7.608, -165.218, 1.687, -7.893, -34.600, 27.53, 0.13196, 0.06009, 0.05081, -0.98807,
 15:09:03.704,ed:35:33:d3:6c:f8, 2015-01-01 00:39:11.750, -0.132, -0.09, 0.99, 2.075, -2.502, -1.343, -4.779, 7.559, -165.229, 1.687, -7.893, -34.600, 27.53, 0.13196, 0.06009, 0.05081, -0.98807,
 15:09:03.708,ed:40:fe:65:30:6c, 2015-01-01 00:39:03.685, 0.765, -0.042, 0.654, 0.244, 0.366, 0, -2.851, -49.543, -119.949, -23.987, -8.353, -1.647, 28.05, 0.44577, -0.37454, -0.19067, -0.79028,
 15:09:03.708,ed:40:fe:65:30:6c, 2015-01-01 00:39:03.685, 0.766, -0.036, 0.65, 0.366, 0.305, -0.183, -2.845, -49.537, -119.943, -23.987, -8.353, -1.647, 28.05, 0.44577, -0.37454, -0.19067, -0.79028,
 15:09:03.727,e3:ca:2d:fd:e0:8c, 2015-01-01 00:39:12.765, 0.975, -0.164, 0.265, 0, -1.038, -0.244, -31.141, -72.224, -161.065, -27.227, -9.947, -10.553, 30.28, 0.02643, 0.59409, -0.11813, 0.79517,
 15:09:03.727,e3:ca:2d:fd:e0:8c, 2015-01-01 00:39:12.765, 0.974, -0.161, 0.265, -0.061, -0.916, -0.366, -31.152, -72.246, -161.093, -27.227, -9.947, -10.553, 30.28, 0.02643, 0.59409, -0.11813, 0.79517,
 15:09:03.750,ed:35:33:d3:6c:f8, 2015-01-01 00:39:12.130, -0.119, -0.086, 0.983, 3.235, -3.052, -1.953, -4.719, 7.498, -165.267, 1.687, -7.893, -34.600, 27.53, 0.13196, 0.06009, 0.05081, -0.98807,
 15:09:03.750,ed:35:33:d3:6c:f8, 2015-01-01 00:39:12.130, -0.12, -0.081, 0.98, 3.357, -2.747, -2.258, -4.658, 7.443, -165.306, 1.687, -7.893, -34.600, 27.53, 0.13196, 0.06009, 0.05081, -0.98807,
 15:09:03.751,f6:90:cc:01:6d:25, 2015-01-01 00:39:06.985, 0.952, -0.063, 0.252, -0.244, 0.61, -0.366, -12.98, -74.57, -151.046, -31.260, -12.627, -3.387, 33.2, 0.1315, -0.60568, -0.06436, -0.78204,
 15:09:03.751,f6:90:cc:01:6d:25, 2015-01-01 00:39:06.985, 0.952, -0.058, 0.251, -0.244, 0.671, -0.549, -12.947, -74.559, -151.084, -31.260, -12.627, -3.387, 33.2, 0.1315, -0.60568, -0.06436, -0.78204,
 15:09:03.752,ed:40:fe:65:30:6c, 2015-01-01 00:39:03.685, 0.768, -0.033, 0.645, 0.305, 0.488, -0.488, -2.834, -49.532, -119.954, -23.987, -8.353, -1.647, 28.05, 0.44577, -0.37454, -0.19067, -0.79028,
 15:09:03.752,ed:40:fe:65:30:6c, 2015-01-01 00:39:03.685, 0.768, -0.032, 0.644, 0, 0.793, -0.793, -2.818, -49.521, -119.976, -23.987, -8.353, -1.647, 28.05, 0.44577, -0.37454, -0.19067, -0.79028,
 15:09:03.773,f6:90:cc:01:6d:25, 2015-01-01 00:39:06.985, 0.953, -0.057, 0.25, -0.183, 0.916, -0.549, -12.909, -74.548, -151.133, -31.260, -12.627, -3.387, 33.2, 0.1315, -0.60568, -0.06436, -0.78204,
 15:09:03.773,f6:90:cc:01:6d:25, 2015-01-01 00:39:06.985, 0.953, -0.06, 0.251, -0.183, 1.16, -0.671, -12.854, -74.531, -151.188, -31.260, -12.627, -3.387, 33.2, 0.1315, -0.60568, -0.06436, -0.78204,
 15:09:03.793,e3:ca:2d:fd:e0:8c, 2015-01-01 00:39:12.765, 0.974, -0.161, 0.264, -0.122, -0.854, -0.305, -31.168, -72.263, -161.12, -27.227, -9.947, -10.553, 30.28, 0.02829, 0.59573, -0.12064, 0.79349,
 15:09:03.793,e3:ca:2d:fd:e0:8c, 2015-01-01 00:39:12.765, 0.974, -0.161, 0.265, 0, -0.732, -0.183, -31.179, -72.274, -161.131, -27.227, -9.947, -10.553, 30.28, 0.02829, 0.59573, -0.12064, 0.79349,
 15:09:03.795,ed:35:33:d3:6c:f8, 2015-01-01 00:39:12.130, -0.126, -0.074, 0.986, 2.136, -1.526, -1.404, -4.62, 7.41, -165.35, 1.687, -7.893, -34.600, 27.53, 0.13196, 0.06009, 0.05081, -0.98807,
 15:09:03.795,ed:35:33:d3:6c:f8, 2015-01-01 00:39:12.130, -0.131, -0.07, 0.992, 1.343, -0.793, -1.221, -4.592, 7.394, -165.383, 1.687, -7.893, -34.600, 27.53, 0.13196, 0.06009, 0.05081, -0.98807,
 15:09:03.798,ed:40:fe:65:30:6c, 2015-01-01 00:39:03.685, 0.767, -0.029, 0.647, -0.244, 1.038, -0.793, -2.807, -49.51, -119.998, -23.987, -8.353, -1.647, 28.05, 0.44577, -0.37454, -0.19067, -0.79028,
 15:09:03.798,ed:40:fe:65:30:6c, 2015-01-01 00:39:03.685, 0.765, -0.027, 0.653, -0.244, 1.038, -0.671, -2.791, -49.493, -120.026, -23.987, -8.353, -1.647, 28.05, 0.44577, -0.37454, -0.19067, -0.79028,
 15:09:03.817,e3:ca:2d:fd:e0:8c, 2015-01-01 00:39:13.120, 0.975, -0.162, 0.267, 0, -0.671, -0.244, -31.19, -72.285, -161.136, -27.227, -9.947, -10.553, 30.28, 0.02829, 0.59573, -0.12064, 0.79349,
 15:09:03.817,e3:ca:2d:fd:e0:8c, 2015-01-01 00:39:13.120, 0.976, -0.162, 0.267, 0, -0.366, -0.366, -31.179, -72.296, -161.169, -27.227, -9.947, -10.553, 30.28, 0.02829, 0.59573, -0.12064, 0.79349,
 15:09:03.818,f6:90:cc:01:6d:25, 2015-01-01 00:39:06.985, 0.954, -0.059, 0.253, -0.427, 1.526, -0.549, -12.805, -74.509, -151.254, -31.260, -12.627, -3.387, 33.2, 0.1315, -0.60568, -0.06436, -0.78204,
 15:09:03.818,f6:90:cc:01:6d:25, 2015-01-01 00:39:06.985, 0.954, -0.058, 0.256, -0.671, 1.465, -0.427, -12.761, -74.487, -151.32, -31.260, -12.627, -3.387, 33.2, 0.1315, -0.60568, -0.06436, -0.78204,
 15:09:03.820,ed:40:fe:65:30:6c, 2015-01-01 00:39:03.685, 0.764, -0.031, 0.654, -0.122, 0.793, -0.488, -2.78, -49.477, -120.042, -24.387, -8.333, -1.907, 28.05, 0.44577, -0.37454, -0.19067, -0.79028,
 15:09:03.820,ed:40:fe:65:30:6c, 2015-01-01 00:39:03.685, 0.765, -0.03, 0.652, 0, 0.61, -0.305, -2.774, -49.46, -120.048, -24.387, -8.333, -1.907, 28.05, 0.44577, -0.37454, -0.19067, -0.79028,
 15:09:03.840,ed:35:33:d3:6c:f8, 2015-01-01 00:39:12.130, -0.128, -0.07, 0.993, 1.587, -0.793, -1.221, -4.565, 7.372, -165.421, 1.687, -7.893, -34.600, 27.53, 0.13196, 0.06009, 0.05081, -0.98807,
 15:09:03.840,ed:35:33:d3:6c:f8, 2015-01-01 00:39:12.130, -0.126, -0.069, 0.993, 1.404, -0.488, -1.16, -4.537, 7.361, -165.46, 1.687, -7.893, -34.600, 27.53, 0.13196, 0.06009, 0.05081, -0.98807,
 15:09:03.840,e3:ca:2d:fd:e0:8c, 2015-01-01 00:39:13.120, 0.974, -0.162, 0.267, -0.122, -0.244, -0.305, -31.174, -72.301, -161.18, -27.227, -9.947, -10.553, 30.28, 0.02829, 0.59573, -0.12064, 0.79349,
 15:09:03.840,e3:ca:2d:fd:e0:8c, 2015-01-01 00:39:13.120, 0.973, -0.162, 0.266, -0.183, -0.122, -0.244, -31.168, -72.307, -161.18, -27.227, -9.947, -10.553, 30.28, 0.02829, 0.59573, -0.12064, 0.79349,
 15:09:03.842,f6:90:cc:01:6d:25, 2015-01-01 00:39:06.985, 0.952, -0.059, 0.258, -0.793, 1.343, -0.366, -12.733, -74.465, -151.364, -31.053, -12.227, -4.167, 33.2, 0.1315, -0.60568, -0.06436, -0.78204,
 15:09:03.842,f6:90:cc:01:6d:25, 2015-01-01 00:39:06.985, 0.951, -0.059, 0.256, -0.671, 1.404, -0.366, -12.706, -74.443, -151.408, -31.053, -12.227, -4.167, 33.2, 0.1315, -0.60568, -0.06436, -0.78204,
 15:09:03.864,ed:35:33:d3:6c:f8, 2015-01-01 00:39:12.130, -0.126, -0.071, 0.988, 0.916, -0.549, -0.305, -4.515, 7.35, -165.46, 1.687, -7.893, -34.600, 27.53, 0.13196, 0.06009, 0.05081, -0.98807,
 15:09:03.864,ed:35:33:d3:6c:f8, 2015-01-01 00:39:12.130, -0.129, -0.07, 0.988, 1.282, -0.793, -0.122, -4.488, 7.339, -165.449, 1.687, -7.893, -34.600, 27.53, 0.13196, 0.06009, 0.05081, -0.98807,
 15:09:03.865,ed:40:fe:65:30:6c, 2015-01-01 00:39:03.685, 0.762, -0.027, 0.653, 0.122, 0.671, -0.244, -2.763, -49.449, -120.048, -24.387, -8.333, -1.907, 28.05, 0.44577, -0.37454, -0.19067, -0.79028,
 15:09:03.865,ed:40:fe:65:30:6c, 2015-01-01 00:39:03.685, 0.763, -0.027, 0.654, 0.122, 0.793, -0.122, -2.758, -49.438, -120.042, -24.387, -8.333, -1.907, 28.05, 0.44577, -0.37454, -0.19067, -0.79028,
 15:09:03.884,e3:ca:2d:fd:e0:8c, 2015-01-01 00:39:13.120, 0.974, -0.161, 0.266, 0, 0, -0.244, -31.157, -72.307, -161.175, -27.227, -9.947, -10.553, 30.28, 0.02829, 0.59573, -0.12064, 0.79349,
 15:09:03.884,e3:ca:2d:fd:e0:8c, 2015-01-01 00:39:13.120, 0.973, -0.161, 0.267, 0.183, 0, -0.183, -31.146, -72.307, -161.164, -27.227, -9.947, -10.553, 30.28, 0.02829, 0.59573, -0.12064, 0.79349,
 15:09:03.886,f6:90:cc:01:6d:25, 2015-01-01 00:39:06.985, 0.951, -0.059, 0.26, -0.427, 1.404, -0.366, -12.673, -74.416, -151.447, -31.053, -12.227, -4.167, 33.2, 0.1315, -0.60568, -0.06436, -0.78204,
 15:09:03.886,f6:90:cc:01:6d:25, 2015-01-01 00:39:06.985, 0.95, -0.057, 0.26, -0.305, 1.282, -0.305, -12.64, -74.394, -151.469, -31.053, -12.227, -4.167, 33.2, 0.1315, -0.60568, -0.06436, -0.78204,
 15:09:03.908,ed:35:33:d3:6c:f8, 2015-01-01 00:39:12.130, -0.128, -0.068, 0.989, 1.038, -0.549, 0.061, -4.466, 7.328, -165.427, 1.687, -7.893, -34.600, 27.53, 0.13196, 0.06009, 0.05081, -0.98807,
 15:09:03.908,ed:35:33:d3:6c:f8, 2015-01-01 00:39:12.130, -0.129, -0.074, 0.987, 0.977, -0.122, -0.061, -4.444, 7.322, -165.416, 1.687, -7.893, -34.600, 27.53, 0.13196, 0.06009, 0.05081, -0.98807,
 15:09:03.909,ed:40:fe:65:30:6c, 2015-01-01 00:39:03.685, 0.761, -0.031, 0.653, 0.305, 0.977, 0, -2.747, -49.422, -120.037, -24.387, -8.333, -1.907, 28.05, 0.44492, -0.37311, -0.18991, -0.7916,
 15:09:03.909,ed:40:fe:65:30:6c, 2015-01-01 00:39:03.685, 0.762, -0.032, 0.655, 0.427, 1.16, -0.122, -2.741, -49.406, -120.037, -24.387, -8.333, -1.907, 28.05, 0.44492, -0.37311, -0.18991, -0.7916,
 15:09:03.929,e3:ca:2d:fd:e0:8c, 2015-01-01 00:39:13.120, 0.973, -0.16, 0.267, 0.061, -0.061, -0.244, -31.135, -72.312, -161.153, -27.227, -9.947, -10.553, 30.28, 0.02829, 0.59573, -0.12064, 0.79349,
 15:09:03.929,e3:ca:2d:fd:e0:8c, 2015-01-01 00:39:13.120, 0.975, -0.159, 0.267, 0, -0.183, -0.244, -31.124, -72.318, -161.153, -27.227, -9.947, -10.553, 30.28, 0.02829, 0.59573, -0.12064, 0.79349,
 15:09:03.954,f6:90:cc:01:6d:25, 2015-01-01 00:39:06.985, 0.95, -0.058, 0.26, -0.427, 1.221, -0.244, -12.612, -74.372, -151.512, -31.053, -12.227, -4.167, 33.2, 0.13052, -0.60397, -0.06305, -0.78366,
 15:09:03.954,f6:90:cc:01:6d:25, 2015-01-01 00:39:06.985, 0.951, -0.058, 0.26, -0.427, 1.221, -0.366, -12.585, -74.355, -151.551, -31.053, -12.227, -4.167, 33.2, 0.13052, -0.60397, -0.06305, -0.78366,
 15:09:03.955,ed:40:fe:65:30:6c, 2015-01-01 00:39:03.995, 0.76, -0.03, 0.655, 0.427, 1.221, -0.244, -2.725, -49.384, -120.042, -24.387, -8.333, -1.907, 28.05, 0.44492, -0.37311, -0.18991, -0.7916,
 15:09:03.955,ed:40:fe:65:30:6c, 2015-01-01 00:39:03.995, 0.76, -0.028, 0.657, 0.305, 1.099, -0.366, -2.708, -49.362, -120.059, -24.387, -8.333, -1.907, 28.05, 0.44492, -0.37311, -0.18991, -0.7916,
 15:09:03.975,ed:35:33:d3:6c:f8, 2015-01-01 00:39:12.130, -0.129, -0.074, 0.988, 0.793, -0.366, -0.061, -4.427, 7.317, -165.416, 1.393, -7.740, -34.420, 27.53, 0.13196, 0.06009, 0.05081, -0.98807,
 15:09:03.975,ed:35:33:d3:6c:f8, 2015-01-01 00:39:12.130, -0.132, -0.073, 0.989, 0.671, -0.671, -0.244, -4.411, 7.306, -165.41, 1.393, -7.740, -34.420, 27.53, 0.13196, 0.06009, 0.05081, -0.98807,
 15:09:03.977,f6:90:cc:01:6d:25, 2015-01-01 00:39:07.365, 0.949, -0.056, 0.261, -0.366, 1.16, -0.427, -12.546, -74.333, -151.595, -31.053, -12.227, -4.167, 33.2, 0.13052, -0.60397, -0.06305, -0.78366,
 15:09:03.977,f6:90:cc:01:6d:25, 2015-01-01 00:39:07.365, 0.949, -0.056, 0.261, -0.305, 1.099, -0.427, -12.508, -74.317, -151.655, -31.053, -12.227, -4.167, 33.2, 0.13052, -0.60397, -0.06305, -0.78366,
 15:09:03.999,ed:35:33:d3:6c:f8, 2015-01-01 00:39:12.130, -0.127, -0.068, 0.988, 0.793, -0.671, -0.671, -4.395, 7.289, -165.405, 1.393, -7.740, -34.420, 27.53, 0.12906, 0.05817, 0.04602, -0.9888,
 15:09:03.999,ed:35:33:d3:6c:f8, 2015-01-01 00:39:12.130, -0.127, -0.065, 0.99, 0.854, -0.488, -0.916, -4.378, 7.284, -165.399, 1.393, -7.740, -34.420, 27.53, 0.12906, 0.05817, 0.04602, -0.9888,
 15:09:03.999,e3:ca:2d:fd:e0:8c, 2015-01-01 00:39:13.120, 0.974, -0.159, 0.267, 0, -0.183, -0.244, -31.119, -72.323, -161.147, -27.227, -9.947, -10.553, 30.28, 0.02829, 0.59573, -0.12064, 0.79349,
 15:09:03.999,e3:ca:2d:fd:e0:8c, 2015-01-01 00:39:13.120, 0.973, -0.16, 0.266, 0.061, -0.183, -0.183, -31.113, -72.328, -161.147, -27.227, -9.947, -10.553, 30.28, 0.02829, 0.59573, -0.12064, 0.79349,
 15:09:04.001,ed:40:fe:65:30:6c, 2015-01-01 00:39:03.995, 0.761, -0.025, 0.655, 0.305, 1.16, -0.366, -2.692, -49.34, -120.081, -24.387, -8.333, -1.907, 28.05, 0.44492, -0.37311, -0.18991, -0.7916,
 15:09:04.001,ed:40:fe:65:30:6c, 2015-01-01 00:39:03.995, 0.762, -0.025, 0.656, 0.305, 1.16, -0.305, -2.675, -49.318, -120.092, -24.387, -8.333, -1.907, 28.05, 0.44492, -0.37311, -0.18991, -0.7916,
 15:09:04.001,f6:90:cc:01:6d:25, 2015-01-01 00:39:07.365, 0.95, -0.055, 0.262, -0.305, 0.977, -0.366, -12.475, -74.301, -151.721, -31.053, -12.227, -4.167, 33.2, 0.13052, -0.60397, -0.06305, -0.78366,
 15:09:04.001,f6:90:cc:01:6d:25, 2015-01-01 00:39:07.365, 0.951, -0.055, 0.262, -0.305, 0.916, -0.244, -12.448, -74.284, -151.771, -31.053, -12.227, -4.167, 33.2, 0.13052, -0.60397, -0.06305, -0.78366,
 15:09:04.020,e3:ca:2d:fd:e0:8c, 2015-01-01 00:39:13.120, 0.974, -0.159, 0.266, 0.122, -0.244, -0.122, -31.108, -72.328, -161.136, -27.540, -9.940, -10.140, 30.28, 0.02829, 0.59573, -0.12064, 0.79349,
 15:09:04.020,e3:ca:2d:fd:e0:8c, 2015-01-01 00:39:13.120, 0.974, -0.159, 0.266, 0.061, -0.244, 0, -31.113, -72.334, -161.109, -27.540, -9.940, -10.140, 30.28, 0.02829, 0.59573, -0.12064, 0.79349,
 15:09:04.024,ed:40:fe:65:30:6c, 2015-01-01 00:39:03.995, 0.762, -0.026, 0.655, 0.244, 1.343, -0.122, -2.659, -49.29, -120.092, -24.387, -8.333, -1.907, 28.05, 0.44492, -0.37311, -0.18991, -0.7916,
 15:09:04.024,ed:40:fe:65:30:6c, 2015-01-01 00:39:03.995, 0.76, -0.026, 0.655, 0.488, 1.221, -0.061, -2.648, -49.268, -120.097, -24.387, -8.333, -1.907, 28.05, 0.44492, -0.37311, -0.18991, -0.7916,
 15:09:04.042,ed:35:33:d3:6c:f8, 2015-01-01 00:39:12.130, -0.127, -0.066, 0.987, 0.854, -0.427, -0.61, -4.356, 7.273, -165.399, 1.393, -7.740, -34.420, 27.53, 0.12906, 0.05817, 0.04602, -0.9888,
 15:09:04.042,ed:35:33:d3:6c:f8, 2015-01-01 00:39:12.130, -0.128, -0.065, 0.989, 0.793, -0.061, 0.061, -4.334, 7.273, -165.372, 1.393, -7.740, -34.420, 27.53, 0.12906, 0.05817, 0.04602, -0.9888,
 15:09:04.044,f6:90:cc:01:6d:25, 2015-01-01 00:39:07.365, 0.951, -0.056, 0.262, -0.427, 0.854, -0.183, -12.426, -74.268, -151.815, -31.053, -12.227, -4.167, 33.2, 0.13052, -0.60397, -0.06305, -0.78366,
 15:09:04.044,f6:90:cc:01:6d:25, 2015-01-01 00:39:07.365, 0.95, -0.056, 0.261, -0.427, 0.916, -0.122, -12.409, -74.251, -151.853, -31.053, -12.227, -4.167, 33.2, 0.13052, -0.60397, -0.06305, -0.78366,
 15:09:04.064,ed:35:33:d3:6c:f8, 2015-01-01 00:39:12.465, -0.13, -0.067, 0.991, 0.854, -0.061, 0.488, -4.312, 7.273, -165.322, 1.393, -7.740, -34.420, 27.53, 0.12906, 0.05817, 0.04602, -0.9888,
 15:09:04.064,ed:35:33:d3:6c:f8, 2015-01-01 00:39:12.465, -0.13, -0.068, 0.991, 0.488, 0, 0.671, -4.301, 7.278, -165.273, 1.393, -7.740, -34.420, 27.53, 0.12906, 0.05817, 0.04602, -0.9888,
 15:09:04.064,e3:ca:2d:fd:e0:8c, 2015-01-01 00:39:13.120, 0.974, -0.16, 0.267, 0.061, -0.305, 0, -31.119, -72.339, -161.087, -27.540, -9.940, -10.140, 30.28, 0.02829, 0.59573, -0.12064, 0.79349,
 15:09:04.064,e3:ca:2d:fd:e0:8c, 2015-01-01 00:39:13.120, 0.974, -0.16, 0.267, 0.061, -0.244, 0, -31.124, -72.345, -161.065, -27.540, -9.940, -10.140, 30.28, 0.02829, 0.59573, -0.12064, 0.79349,
 15:09:04.068,ed:40:fe:65:30:6c, 2015-01-01 00:39:03.995, 0.758, -0.028, 0.656, 0.427, 1.099, -0.061, -2.637, -49.246, -120.114, -24.387, -8.333, -1.907, 28.05, 0.44492, -0.37311, -0.18991, -0.7916,
 15:09:04.068,ed:40:fe:65:30:6c, 2015-01-01 00:39:03.995, 0.758, -0.03, 0.658, 0.183, 1.16, -0.061, -2.626, -49.224, -120.119, -24.387, -8.333, -1.907, 28.05, 0.44492, -0.37311, -0.18991, -0.7916,
 15:09:04.087,e3:ca:2d:fd:e0:8c, 2015-01-01 00:39:13.120, 0.973, -0.159, 0.267, 0.122, -0.244, 0, -31.13, -72.345, -161.032, -27.540, -9.940, -10.140, 30.28, 0.0282, 0.59647, -0.12006, 0.79306,
 15:09:04.087,e3:ca:2d:fd:e0:8c, 2015-01-01 00:39:13.120, 0.974, -0.16, 0.266, 0.122, -0.183, 0, -31.13, -72.35, -161.01, -27.540, -9.940, -10.140, 30.28, 0.0282, 0.59647, -0.12006, 0.79306,
 15:09:04.089,f6:90:cc:01:6d:25, 2015-01-01 00:39:07.365, 0.949, -0.057, 0.261, -0.366, 0.977, -0.061, -12.398, -74.235, -151.875, -31.053, -12.227, -4.167, 33.2, 0.13052, -0.60397, -0.06305, -0.78366,
 15:09:04.089,f6:90:cc:01:6d:25, 2015-01-01 00:39:07.365, 0.95, -0.059, 0.265, -0.366, 0.793, -0.061, -12.387, -74.218, -151.88, -31.053, -12.227, -4.167, 33.2, 0.13052, -0.60397, -0.06305, -0.78366,
 15:09:04.109,ed:35:33:d3:6c:f8, 2015-01-01 00:39:12.465, -0.132, -0.07, 0.988, 0, -0.061, 0.427, -4.296, 7.278, -165.218, 1.393, -7.740, -34.420, 27.53, 0.12906, 0.05817, 0.04602, -0.9888,
 15:09:04.109,ed:35:33:d3:6c:f8, 2015-01-01 00:39:12.465, -0.124, -0.07, 0.988, 0.244, 0.122, -0.061, -4.285, 7.284, -165.19, 1.393, -7.740, -34.420, 27.53, 0.12906, 0.05817, 0.04602, -0.9888,
 15:09:04.111,f6:90:cc:01:6d:25, 2015-01-01 00:39:07.365, 0.949, -0.056, 0.265, -0.305, 0.549, -0.122, -12.376, -74.207, -151.88, -31.053, -12.227, -4.167, 33.2, 0.13052, -0.60397, -0.06305, -0.78366,
 15:09:04.111,f6:90:cc:01:6d:25, 2015-01-01 00:39:07.365, 0.95, -0.058, 0.264, -0.244, 0.671, -0.183, -12.36, -74.196, -151.902, -31.053, -12.227, -4.167, 33.2, 0.13052, -0.60397, -0.06305, -0.78366,
 15:09:04.113,ed:40:fe:65:30:6c, 2015-01-01 00:39:03.995, 0.759, -0.027, 0.661, 0.183, 1.038, -0.122, -2.615, -49.202, -120.119, -24.387, -8.333, -1.907, 28.05, 0.44492, -0.37311, -0.18991, -0.7916,
 15:09:04.113,ed:40:fe:65:30:6c, 2015-01-01 00:39:03.995, 0.761, -0.031, 0.655, 0.366, 1.038, -0.183, -2.604, -49.18, -120.119, -24.387, -8.333, -1.907, 28.05, 0.44492, -0.37311, -0.18991, -0.7916,
 15:09:04.131,e3:ca:2d:fd:e0:8c, 2015-01-01 00:39:13.120, 0.974, -0.159, 0.267, 0, -0.366, 0, -31.141, -72.356, -160.988, -27.540, -9.940, -10.140, 30.28, 0.0282, 0.59647, -0.12006, 0.79306,
 15:09:04.131,e3:ca:2d:fd:e0:8c, 2015-01-01 00:39:13.120, 0.973, -0.159, 0.266, 0.061, -0.305, 0, -31.146, -72.361, -160.955, -27.540, -9.940, -10.140, 30.28, 0.0282, 0.59647, -0.12006, 0.79306,
 15:09:04.156,ed:35:33:d3:6c:f8, 2015-01-01 00:39:12.465, -0.125, -0.07, 0.989, 0, 0, 0.183, -4.285, 7.284, -165.168, 1.393, -7.740, -34.420, 27.53, 0.12906, 0.05817, 0.04602, -0.9888,
 15:09:04.156,ed:35:33:d3:6c:f8, 2015-01-01 00:39:12.465, -0.127, -0.07, 0.985, -0.183, 1.404, 0.122, -4.285, 7.311, -165.157, 1.393, -7.740, -34.420, 27.53, 0.12906, 0.05817, 0.04602, -0.9888,
 15:09:04.156,f6:90:cc:01:6d:25, 2015-01-01 00:39:07.365, 0.95, -0.059, 0.264, -0.244, 0.916, -0.305, -12.332, -74.18, -151.935, -31.053, -12.227, -4.167, 33.2, 0.13052, -0.60397, -0.06305, -0.78366,
 15:09:04.156,f6:90:cc:01:6d:25, 2015-01-01 00:39:07.365, 0.953, -0.055, 0.263, -0.488, 1.099, -0.122, -12.31, -74.158, -151.946, -31.053, -12.227, -4.167, 33.2, 0.13052, -0.60397, -0.06305, -0.78366,
 15:09:04.157,ed:40:fe:65:30:6c, 2015-01-01 00:39:03.995, 0.758, -0.03, 0.655, 0.122, 1.221, -0.122, -2.593, -49.158, -120.13, -23.553, -8.460, -1.260, 28.05, 0.44492, -0.37311, -0.18991, -0.7916,
 15:09:04.157,ed:40:fe:65:30:6c, 2015-01-01 00:39:03.995, 0.763, -0.021, 0.657, -0.061, 1.404, -0.183, -2.587, -49.131, -120.135, -23.553, -8.460, -1.260, 28.05, 0.44492, -0.37311, -0.18991, -0.7916,
 15:09:04.177,e3:ca:2d:fd:e0:8c, 2015-01-01 00:39:13.455, 0.976, -0.16, 0.269, 0, -0.427, 0, -31.157, -72.367, -160.939, -27.540, -9.940, -10.140, 30.28, 0.0282, 0.59647, -0.12006, 0.79306,
 15:09:04.177,e3:ca:2d:fd:e0:8c, 2015-01-01 00:39:13.455, 0.978, -0.162, 0.264, 0, -0.305, 0, -31.168, -72.372, -160.928, -27.540, -9.940, -10.140, 30.28, 0.0282, 0.59647, -0.12006, 0.79306,
 15:09:04.199,e3:ca:2d:fd:e0:8c, 2015-01-01 00:39:13.455, 0.975, -0.16, 0.264, 0.244, -0.122, 0.122, -31.174, -72.372, -160.944, -27.540, -9.940, -10.140, 30.28, 0.0282, 0.59647, -0.12006, 0.79306,
 15:09:04.199,e3:ca:2d:fd:e0:8c, 2015-01-01 00:39:13.455, 0.975, -0.158, 0.262, 0.183, 0, 0.122, -31.179, -72.372, -160.961, -27.540, -9.940, -10.140, 30.28, 0.0282, 0.59647, -0.12006, 0.79306,
 15:09:04.200,ed:35:33:d3:6c:f8, 2015-01-01 00:39:12.465, -0.134, -0.064, 0.989, -0.122, 1.831, -0.244, -4.285, 7.35, -165.141, 1.393, -7.740, -34.420, 27.53, 0.12906, 0.05817, 0.04602, -0.9888,
 15:09:04.200,ed:35:33:d3:6c:f8, 2015-01-01 00:39:12.465, -0.139, -0.066, 0.996, 0.305, 1.221, 0.122, -4.274, 7.377, -165.125, 1.393, -7.740, -34.420, 27.53, 0.12906, 0.05817, 0.04602, -0.9888,
 15:09:04.203,ed:40:fe:65:30:6c, 2015-01-01 00:39:03.995, 0.761, -0.025, 0.66, 0.244, 1.526, -0.183, -2.576, -49.103, -120.135, -23.553, -8.460, -1.260, 28.05, 0.44559, -0.37021, -0.18951, -0.79269,
 15:09:04.203,ed:40:fe:65:30:6c, 2015-01-01 00:39:03.995, 0.757, -0.029, 0.666, 0.488, 1.099, 0, -2.565, -49.076, -120.141, -23.553, -8.460, -1.260, 28.05, 0.44559, -0.37021, -0.18951, -0.79269,
 15:09:04.224,f6:90:cc:01:6d:25, 2015-01-01 00:39:07.365, 0.952, -0.057, 0.263, -0.488, 0.916, 0, -12.305, -74.141, -151.941, -31.033, -12.513, -4.047, 33.2, 0.13052, -0.60397, -0.06305, -0.78366,
 15:09:04.224,f6:90:cc:01:6d:25, 2015-01-01 00:39:07.365, 0.949, -0.057, 0.263, -0.244, 0.488, 0, -12.299, -74.13, -151.913, -31.033, -12.513, -4.047, 33.2, 0.13052, -0.60397, -0.06305, -0.78366,
 15:09:04.225,ed:40:fe:65:30:6c, 2015-01-01 00:39:04.285, 0.757, -0.031, 0.661, 0.427, 0.671, 0, -2.549, -49.059, -120.157, -23.553, -8.460, -1.260, 28.05, 0.44559, -0.37021, -0.18951, -0.79269,
 15:09:04.225,ed:40:fe:65:30:6c, 2015-01-01 00:39:04.285, 0.758, -0.029, 0.659, 0.244, 0.61, -0.183, -2.538, -49.048, -120.168, -23.553, -8.460, -1.260, 28.05, 0.44559, -0.37021, -0.18951, -0.79269,
 15:09:04.244,ed:35:33:d3:6c:f8, 2015-01-01 00:39:12.465, -0.135, -0.072, 0.997, 0.488, 0, 0.305, -4.257, 7.377, -165.114, 1.393, -7.740, -34.420, 27.53, 0.12906, 0.05817, 0.04602, -0.9888,
 15:09:04.244,ed:35:33:d3:6c:f8, 2015-01-01 00:39:12.465, -0.128, -0.075, 0.99, 1.038, -0.488, -0.305, -4.235, 7.366, -165.097, 1.393, -7.740, -34.420, 27.53, 0.12906, 0.05817, 0.04602, -0.9888,
 15:09:04.244,e3:ca:2d:fd:e0:8c, 2015-01-01 00:39:13.455, 0.973, -0.158, 0.263, 0.061, 0, 0.183, -31.179, -72.372, -160.966, -27.540, -9.940, -10.140, 30.28, 0.0282, 0.59647, -0.12006, 0.79306,
 15:09:04.244,e3:ca:2d:fd:e0:8c, 2015-01-01 00:39:13.455, 0.972, -0.16, 0.264, 0, -0.061, 0, -31.185, -72.372, -160.961, -27.540, -9.940, -10.140, 30.28, 0.0282, 0.59647, -0.12006, 0.79306,
 15:09:04.246,f6:90:cc:01:6d:25, 2015-01-01 00:39:07.365, 0.949, -0.056, 0.262, 0, 0.305, -0.122, -12.288, -74.125, -151.886, -31.033, -12.513, -4.047, 33.2, 0.13, -0.60202, -0.06259, -0.78525,
 15:09:04.246,f6:90:cc:01:6d:25, 2015-01-01 00:39:07.365, 0.949, -0.057, 0.263, 0, 0.244, -0.305, -12.266, -74.125, -151.88, -31.033, -12.513, -4.047, 33.2, 0.13, -0.60202, -0.06259, -0.78525,
 15:09:04.268,ed:35:33:d3:6c:f8, 2015-01-01 00:39:12.465, -0.128, -0.07, 0.988, 0.977, -0.549, -0.854, -4.213, 7.361, -165.092, 1.327, -7.787, -34.313, 27.53, 0.12906, 0.05817, 0.04602, -0.9888,
 15:09:04.268,ed:35:33:d3:6c:f8, 2015-01-01 00:39:12.465, -0.13, -0.068, 0.989, 0.305, 0, -0.61, -4.208, 7.361, -165.097, 1.327, -7.787, -34.313, 27.53, 0.12906, 0.05817, 0.04602, -0.9888,
 15:09:04.270,ed:40:fe:65:30:6c, 2015-01-01 00:39:04.285, 0.757, -0.031, 0.658, 0.305, 0.671, -0.244, -2.527, -49.032, -120.179, -23.553, -8.460, -1.260, 28.05, 0.44559, -0.37021, -0.18951, -0.79269,
 15:09:04.270,ed:40:fe:65:30:6c, 2015-01-01 00:39:04.285, 0.757, -0.029, 0.659, 0.061, 0.671, -0.244, -2.516, -49.021, -120.19, -23.553, -8.460, -1.260, 28.05, 0.44559, -0.37021, -0.18951, -0.79269,
 15:09:04.288,e3:ca:2d:fd:e0:8c, 2015-01-01 00:39:13.455, 0.973, -0.162, 0.265, 0.183, -0.183, -0.122, -31.185, -72.372, -160.966, -27.540, -9.940, -10.140, 30.28, 0.0282, 0.59647, -0.12006, 0.79306,
 15:09:04.288,e3:ca:2d:fd:e0:8c, 2015-01-01 00:39:13.455, 0.974, -0.162, 0.266, 0.122, -0.244, -0.183, -31.179, -72.378, -160.977, -27.540, -9.940, -10.140, 30.28, 0.0282, 0.59647, -0.12006, 0.79306,
 15:09:04.291,f6:90:cc:01:6d:25, 2015-01-01 00:39:07.365, 0.949, -0.061, 0.264, 0, 0.244, -0.427, -12.239, -74.119, -151.88, -31.033, -12.513, -4.047, 33.2, 0.13, -0.60202, -0.06259, -0.78525,
 15:09:04.291,f6:90:cc:01:6d:25, 2015-01-01 00:39:07.365, 0.948, -0.06, 0.265, -0.122, 0.366, -0.427, -12.206, -74.114, -151.88, -31.033, -12.513, -4.047, 33.2, 0.13, -0.60202, -0.06259, -0.78525,
 15:09:04.312,ed:35:33:d3:6c:f8, 2015-01-01 00:39:12.465, -0.131, -0.068, 0.987, -0.244, 0.427, -0.427, -4.213, 7.366, -165.097, 1.327, -7.787, -34.313, 27.53, 0.12906, 0.05817, 0.04602, -0.9888,
 15:09:04.312,ed:35:33:d3:6c:f8, 2015-01-01 00:39:12.465, -0.133, -0.067, 0.989, -0.366, 0.793, 0, -4.219, 7.388, -165.081, 1.327, -7.787, -34.313, 27.53, 0.12906, 0.05817, 0.04602, -0.9888,
 15:09:04.313,f6:90:cc:01:6d:25, 2015-01-01 00:39:07.700, 0.949, -0.057, 0.265, -0.183, 0.427, -0.427, -12.178, -74.108, -151.886, -31.033, -12.513, -4.047, 33.2, 0.13, -0.60202, -0.06259, -0.78525,
 15:09:04.313,f6:90:cc:01:6d:25, 2015-01-01 00:39:07.700, 0.95, -0.053, 0.266, -0.366, 0.427, -0.366, -12.151, -74.103, -151.919, -31.033, -12.513, -4.047, 33.2, 0.13, -0.60202, -0.06259, -0.78525,
 15:09:04.315,ed:40:fe:65:30:6c, 2015-01-01 00:39:04.285, 0.755, -0.028, 0.659, 0, 0.61, -0.183, -2.51, -49.01, -120.201, -23.553, -8.460, -1.260, 28.05, 0.44559, -0.37021, -0.18951, -0.79269,
 15:09:04.315,ed:40:fe:65:30:6c, 2015-01-01 00:39:04.285, 0.757, -0.024, 0.661, -0.122, 0.549, -0.305, -2.505, -48.999, -120.207, -23.553, -8.460, -1.260, 28.05, 0.44559, -0.37021, -0.18951, -0.79269,
 15:09:04.333,e3:ca:2d:fd:e0:8c, 2015-01-01 00:39:13.455, 0.975, -0.16, 0.267, 0.122, -0.244, -0.061, -31.179, -72.383, -160.999, -27.540, -9.940, -10.140, 30.28, 0.0282, 0.59647, -0.12006, 0.79306,
 15:09:04.333,e3:ca:2d:fd:e0:8c, 2015-01-01 00:39:13.455, 0.973, -0.158, 0.267, 0, -0.183, 0, -31.179, -72.389, -161.016, -27.540, -9.940, -10.140, 30.28, 0.0282, 0.59647, -0.12006, 0.79306,
 15:09:04.358,f6:90:cc:01:6d:25, 2015-01-01 00:39:07.700, 0.949, -0.054, 0.267, -0.488, 0.488, -0.244, -12.14, -74.092, -151.957, -31.033, -12.513, -4.047, 33.2, 0.13, -0.60202, -0.06259, -0.78525,
 15:09:04.358,f6:90:cc:01:6d:25, 2015-01-01 00:39:07.700, 0.948, -0.058, 0.265, -0.549, 0.61, -0.183, -12.129, -74.081, -151.99, -31.033, -12.513, -4.047, 33.2, 0.13, -0.60202, -0.06259, -0.78525,
 15:09:04.360,ed:40:fe:65:30:6c, 2015-01-01 00:39:04.285, 0.757, -0.023, 0.661, -0.122, 0.488, -0.366, -2.499, -48.988, -120.212, -23.553, -8.460, -1.260, 28.05, 0.44559, -0.37021, -0.18951, -0.79269,
 15:09:04.360,ed:40:fe:65:30:6c, 2015-01-01 00:39:04.285, 0.756, -0.027, 0.659, 0, 0.549, -0.183, -2.494, -48.977, -120.223, -23.553, -8.460, -1.260, 28.05, 0.44559, -0.37021, -0.18951, -0.79269,
 15:09:04.380,ed:35:33:d3:6c:f8, 2015-01-01 00:39:12.465, -0.131, -0.065, 0.991, -0.366, 1.221, -0.305, -4.224, 7.41, -165.064, 1.327, -7.787, -34.313, 27.53, 0.13171, 0.05902, 0.04477, -0.98846,
 15:09:04.380,ed:35:33:d3:6c:f8, 2015-01-01 00:39:12.465, -0.13, -0.064, 0.99, -0.305, 1.099, -0.366, -4.224, 7.432, -165.064, 1.327, -7.787, -34.313, 27.53, 0.13171, 0.05902, 0.04477, -0.98846,
 15:09:04.404,f6:90:cc:01:6d:25, 2015-01-01 00:39:07.700, 0.948, -0.056, 0.267, -0.488, 0.61, -0.183, -12.118, -74.07, -152.023, -31.033, -12.513, -4.047, 33.2, 0.13, -0.60202, -0.06259, -0.78525,
 15:09:04.404,f6:90:cc:01:6d:25, 2015-01-01 00:39:07.700, 0.948, -0.056, 0.267, -0.366, 0.549, -0.183, -12.101, -74.064, -152.062, -31.033, -12.513, -4.047, 33.2, 0.13, -0.60202, -0.06259, -0.78525,
 15:09:04.404,ed:35:33:d3:6c:f8, 2015-01-01 00:39:12.800, -0.129, -0.068, 0.988, -0.305, 1.465, -0.183, -4.23, 7.465, -165.064, 1.327, -7.787, -34.313, 27.53, 0.13171, 0.05902, 0.04477, -0.98846,
 15:09:04.404,ed:35:33:d3:6c:f8, 2015-01-01 00:39:12.800, -0.136, -0.067, 0.986, -0.183, 1.221, 0.122, -4.23, 7.487, -165.064, 1.327, -7.787, -34.313, 27.53, 0.13171, 0.05902, 0.04477, -0.98846,
 15:09:04.405,ed:40:fe:65:30:6c, 2015-01-01 00:39:04.285, 0.756, -0.027, 0.66, 0.244, 0.793, -0.122, -2.483, -48.961, -120.229, -23.553, -8.460, -1.260, 28.05, 0.44559, -0.37021, -0.18951, -0.79269,
 15:09:04.405,ed:40:fe:65:30:6c, 2015-01-01 00:39:04.285, 0.755, -0.025, 0.663, 0.183, 0.732, -0.122, -2.477, -48.944, -120.229, -23.553, -8.460, -1.260, 28.05, 0.44559, -0.37021, -0.18951, -0.79269,
 15:09:04.424,e3:ca:2d:fd:e0:8c, 2015-01-01 00:39:13.455, 0.974, -0.16, 0.267, -0.122, -0.061, 0, -31.185, -72.389, -161.021, -27.680, -9.713, -10.760, 30.28, 0.0282, 0.59647, -0.12006, 0.79306,
 15:09:04.424,e3:ca:2d:fd:e0:8c, 2015-01-01 00:39:13.455, 0.974, -0.159, 0.267, 0, 0, 0, -31.185, -72.389, -161.038, -27.680, -9.713, -10.760, 30.28, 0.0282, 0.59647, -0.12006, 0.79306,
 15:09:04.425,ed:35:33:d3:6c:f8, 2015-01-01 00:39:12.800, -0.134, -0.065, 0.989, -0.305, 0.854, 0.244, -4.23, 7.509, -165.059, 1.327, -7.787, -34.313, 27.53, 0.13171, 0.05902, 0.04477, -0.98846,
 15:09:04.425,ed:35:33:d3:6c:f8, 2015-01-01 00:39:12.800, -0.138, -0.074, 0.988, -0.183, 0.488, -0.122, -4.23, 7.515, -165.075, 1.327, -7.787, -34.313, 27.53, 0.13171, 0.05902, 0.04477, -0.98846,
 15:09:04.427,ed:40:fe:65:30:6c, 2015-01-01 00:39:04.285, 0.753, -0.026, 0.663, 0.122, 0.366, -0.122, -2.466, -48.933, -120.234, -23.480, -8.307, -2.013, 28.05, 0.44559, -0.37021, -0.18951, -0.79269,
 15:09:04.427,ed:40:fe:65:30:6c, 2015-01-01 00:39:04.285, 0.756, -0.026, 0.665, -0.305, 0.427, -0.488, -2.461, -48.928, -120.24, -23.480, -8.307, -2.013, 28.05, 0.44559, -0.37021, -0.18951, -0.79269,
 15:09:04.446,e3:ca:2d:fd:e0:8c, 2015-01-01 00:39:13.455, 0.974, -0.159, 0.266, 0, 0, 0, -31.185, -72.389, -161.049, -27.680, -9.713, -10.760, 30.28, 0.02863, 0.59671, -0.12033, 0.79279,
 15:09:04.446,e3:ca:2d:fd:e0:8c, 2015-01-01 00:39:13.455, 0.974, -0.159, 0.265, 0, 0, 0, -31.185, -72.389, -161.065, -27.680, -9.713, -10.760, 30.28, 0.02863, 0.59671, -0.12033, 0.79279,
 15:09:04.449,f6:90:cc:01:6d:25, 2015-01-01 00:39:07.700, 0.948, -0.054, 0.266, -0.488, 0.366, -0.122, -12.096, -74.053, -152.095, -31.033, -12.513, -4.047, 33.2, 0.13, -0.60202, -0.06259, -0.78525,
 15:09:04.449,f6:90:cc:01:6d:25, 2015-01-01 00:39:07.700, 0.949, -0.054, 0.266, -0.854, 0.122, -0.122, -12.101, -74.053, -152.106, -31.033, -12.513, -4.047, 33.2, 0.13, -0.60202, -0.06259, -0.78525,
 15:09:04.468,e3:ca:2d:fd:e0:8c, 2015-01-01 00:39:13.455, 0.974, -0.158, 0.263, -0.183, -0.061, 0, -31.179, -72.389, -161.076, -27.680, -9.713, -10.760, 30.28, 0.02863, 0.59671, -0.12033, 0.79279,
 15:09:04.468,e3:ca:2d:fd:e0:8c, 2015-01-01 00:39:13.455, 0.973, -0.158, 0.264, -0.427, -0.122, 0, -31.185, -72.389, -161.087, -27.680, -9.713, -10.760, 30.28, 0.02863, 0.59671, -0.12033, 0.79279,
 15:09:04.472,ed:40:fe:65:30:6c, 2015-01-01 00:39:04.285, 0.754, -0.028, 0.662, -0.549, 0.366, -0.732, -2.45, -48.917, -120.256, -23.480, -8.307, -2.013, 28.05, 0.44559, -0.37021, -0.18951, -0.79269,
 15:09:04.472,ed:40:fe:65:30:6c, 2015-01-01 00:39:04.285, 0.755, -0.027, 0.661, -0.244, 0.183, -0.61, -2.444, -48.911, -120.278, -23.480, -8.307, -2.013, 28.05, 0.44559, -0.37021, -0.18951, -0.79269,
 15:09:04.472,ed:35:33:d3:6c:f8, 2015-01-01 00:39:12.800, -0.135, -0.072, 0.991, 0.305, -0.366, -1.099, -4.224, 7.509, -165.108, 1.327, -7.787, -34.313, 27.53, 0.13171, 0.05902, 0.04477, -0.98846,
 15:09:04.472,ed:35:33:d3:6c:f8, 2015-01-01 00:39:12.800, -0.131, -0.068, 0.992, 0.732, -0.671, -1.343, -4.213, 7.498, -165.125, 1.327, -7.787, -34.313, 27.53, 0.13171, 0.05902, 0.04477, -0.98846,
 15:09:04.495,f6:90:cc:01:6d:25, 2015-01-01 00:39:07.700, 0.947, -0.057, 0.265, -0.977, 0, -0.244, -12.101, -74.053, -152.111, -31.033, -12.513, -4.047, 33.2, 0.13, -0.60202, -0.06259, -0.78525,
 15:09:04.495,f6:90:cc:01:6d:25, 2015-01-01 00:39:07.700, 0.947, -0.058, 0.265, -0.916, -0.122, -0.366, -12.096, -74.059, -152.111, -31.033, -12.513, -4.047, 33.2, 0.13, -0.60202, -0.06259, -0.78525,
 15:09:04.514,ed:35:33:d3:6c:f8, 2015-01-01 00:39:12.800, -0.128, -0.062, 0.988, 0.671, -0.732, -0.854, -4.197, 7.482, -165.13, 1.327, -7.787, -34.313, 27.53, 0.13171, 0.05902, 0.04477, -0.98846,
 15:09:04.514,ed:35:33:d3:6c:f8, 2015-01-01 00:39:12.800, -0.128, -0.059, 0.986, 0, 0.366, -0.732, -4.197, 7.493, -165.13, 1.327, -7.787, -34.313, 27.53, 0.13171, 0.05902, 0.04477, -0.98846,
 15:09:04.518,ed:40:fe:65:30:6c, 2015-01-01 00:39:04.285, 0.756, -0.023, 0.659, -0.183, 0.305, -0.366, -2.433, -48.906, -120.289, -23.480, -8.307, -2.013, 28.05, 0.44543, -0.36862, -0.18921, -0.79358,
 15:09:04.518,ed:40:fe:65:30:6c, 2015-01-01 00:39:04.285, 0.758, -0.021, 0.658, 0, 0.366, -0.061, -2.428, -48.895, -120.295, -23.480, -8.307, -2.013, 28.05, 0.44543, -0.36862, -0.18921, -0.79358,
 15:09:04.537,e3:ca:2d:fd:e0:8c, 2015-01-01 00:39:13.455, 0.973, -0.16, 0.263, -0.488, -0.183, 0, -31.196, -72.389, -161.082, -27.680, -9.713, -10.760, 30.28, 0.02863, 0.59671, -0.12033, 0.79279,
 15:09:04.537,e3:ca:2d:fd:e0:8c, 2015-01-01 00:39:13.455, 0.973, -0.16, 0.264, -0.488, -0.305, 0, -31.212, -72.394, -161.06, -27.680, -9.713, -10.760, 30.28, 0.02863, 0.59671, -0.12033, 0.79279,
 15:09:04.539,f6:90:cc:01:6d:25, 2015-01-01 00:39:07.700, 0.949, -0.057, 0.265, -0.671, -0.183, -0.366, -12.085, -74.064, -152.1, -30.640, -12.673, -3.193, 33.2, 0.13, -0.60202, -0.06259, -0.78525,
 15:09:04.539,f6:90:cc:01:6d:25, 2015-01-01 00:39:07.700, 0.949, -0.055, 0.265, -0.671, -0.183, -0.183, -12.09, -74.064, -152.084, -30.640, -12.673, -3.193, 33.2, 0.13, -0.60202, -0.06259, -0.78525,
 15:09:04.560,e3:ca:2d:fd:e0:8c, 2015-01-01 00:39:13.815, 0.974, -0.16, 0.265, -0.427, -0.366, 0, -31.229, -72.4, -161.054, -27.680, -9.713, -10.760, 30.28, 0.02863, 0.59671, -0.12033, 0.79279,
 15:09:04.560,e3:ca:2d:fd:e0:8c, 2015-01-01 00:39:13.815, 0.975, -0.161, 0.265, -0.488, -0.305, 0, -31.251, -72.405, -161.038, -27.680, -9.713, -10.760, 30.28, 0.02863, 0.59671, -0.12033, 0.79279,
 15:09:04.562,ed:40:fe:65:30:6c, 2015-01-01 00:39:04.600, 0.759, -0.023, 0.658, 0.244, 0.488, -0.061, -2.422, -48.889, -120.284, -23.480, -8.307, -2.013, 28.05, 0.44543, -0.36862, -0.18921, -0.79358,
 15:09:04.562,ed:40:fe:65:30:6c, 2015-01-01 00:39:04.600, 0.755, -0.028, 0.66, 0.549, 0.488, 0, -2.411, -48.878, -120.273, -23.480, -8.307, -2.013, 28.05, 0.44543, -0.36862, -0.18921, -0.79358,
 15:09:04.583,ed:35:33:d3:6c:f8, 2015-01-01 00:39:12.800, -0.128, -0.064, 0.986, -0.366, 0.854, -1.038, -4.202, 7.509, -165.119, 1.327, -7.787, -34.313, 27.53, 0.13171, 0.05902, 0.04477, -0.98846,
 15:09:04.583,ed:35:33:d3:6c:f8, 2015-01-01 00:39:12.800, -0.133, -0.066, 0.99, -0.549, 0.305, -0.549, -4.208, 7.515, -165.097, 1.327, -7.787, -34.313, 27.53, 0.13171, 0.05902, 0.04477, -0.98846,
 15:09:04.583,e3:ca:2d:fd:e0:8c, 2015-01-01 00:39:13.815, 0.975, -0.161, 0.266, -0.366, -0.183, 0, -31.267, -72.411, -161.01, -27.680, -9.713, -10.760, 30.28, 0.02863, 0.59671, -0.12033, 0.79279,
 15:09:04.583,e3:ca:2d:fd:e0:8c, 2015-01-01 00:39:13.815, 0.973, -0.161, 0.265, -0.244, 0, 0, -31.273, -72.411, -160.988, -27.680, -9.713, -10.760, 30.28, 0.02863, 0.59671, -0.12033, 0.79279,
 15:09:04.584,f6:90:cc:01:6d:25, 2015-01-01 00:39:07.700, 0.951, -0.054, 0.264, -0.671, 0, 0, -12.101, -74.064, -152.04, -30.640, -12.673, -3.193, 33.2, 0.13, -0.60202, -0.06259, -0.78525,
 15:09:04.584,f6:90:cc:01:6d:25, 2015-01-01 00:39:07.700, 0.949, -0.058, 0.265, -0.671, 0.183, 0, -12.107, -74.064, -152.012, -30.640, -12.673, -3.193, 33.2, 0.13, -0.60202, -0.06259, -0.78525,
 15:09:04.585,ed:40:fe:65:30:6c, 2015-01-01 00:39:04.600, 0.753, -0.029, 0.663, 0.488, 0.305, 0.061, -2.401, -48.867, -120.267, -23.480, -8.307, -2.013, 28.05, 0.44543, -0.36862, -0.18921, -0.79358,
 15:09:04.585,ed:40:fe:65:30:6c, 2015-01-01 00:39:04.600, 0.753, -0.025, 0.666, 0.366, 0.183, 0.183, -2.39, -48.862, -120.262, -23.480, -8.307, -2.013, 28.05, 0.44543, -0.36862, -0.18921, -0.79358,
 15:09:04.604,e3:ca:2d:fd:e0:8c, 2015-01-01 00:39:13.815, 0.975, -0.161, 0.265, -0.244, 0, 0, -31.278, -72.411, -160.95, -27.680, -9.713, -10.760, 30.28, 0.02863, 0.59671, -0.12033, 0.79279,
 15:09:04.604,e3:ca:2d:fd:e0:8c, 2015-01-01 00:39:13.815, 0.974, -0.159, 0.265, -0.183, 0, 0, -31.284, -72.411, -160.911, -27.680, -9.713, -10.760, 30.28, 0.02863, 0.59671, -0.12033, 0.79279,
 15:09:04.606,ed:35:33:d3:6c:f8, 2015-01-01 00:39:12.800, -0.136, -0.067, 0.992, -0.732, 0.061, 0, -4.219, 7.515, -165.064, 1.267, -7.500, -34.840, 27.53, 0.13171, 0.05902, 0.04477, -0.98846,
 15:09:04.606,ed:35:33:d3:6c:f8, 2015-01-01 00:39:12.800, -0.138, -0.066, 0.991, -0.854, -0.183, 0.122, -4.23, 7.515, -165.015, 1.267, -7.500, -34.840, 27.53, 0.13171, 0.05902, 0.04477, -0.98846,
 15:09:04.606,f6:90:cc:01:6d:25, 2015-01-01 00:39:07.700, 0.948, -0.059, 0.265, -0.488, 0.183, 0, -12.118, -74.059, -151.985, -30.640, -12.673, -3.193, 33.2, 0.13022, -0.60147, -0.06305, -0.78561,
 15:09:04.606,f6:90:cc:01:6d:25, 2015-01-01 00:39:07.700, 0.948, -0.059, 0.268, -0.427, 0.061, 0, -12.123, -74.059, -151.963, -30.640, -12.673, -3.193, 33.2, 0.13022, -0.60147, -0.06305, -0.78561,
 15:09:04.629,ed:40:fe:65:30:6c, 2015-01-01 00:39:04.600, 0.757, -0.023, 0.661, 0.061, -0.061, 0.183, -2.39, -48.862, -120.245, -23.480, -8.307, -2.013, 28.05, 0.44543, -0.36862, -0.18921, -0.79358,
 15:09:04.629,ed:40:fe:65:30:6c, 2015-01-01 00:39:04.600, 0.756, -0.027, 0.658, 0, 0, 0.061, -2.39, -48.862, -120.234, -23.480, -8.307, -2.013, 28.05, 0.44543, -0.36862, -0.18921, -0.79358,
 15:09:04.649,ed:35:33:d3:6c:f8, 2015-01-01 00:39:12.800, -0.13, -0.067, 0.989, -1.526, -0.061, -0.366, -4.257, 7.509, -164.982, 1.267, -7.500, -34.840, 27.53, 0.13171, 0.05902, 0.04477, -0.98846,
 15:09:04.649,ed:35:33:d3:6c:f8, 2015-01-01 00:39:12.800, -0.131, -0.074, 0.987, -1.282, 0.366, -0.854, -4.279, 7.515, -164.96, 1.267, -7.500, -34.840, 27.53, 0.13171, 0.05902, 0.04477, -0.98846,
 15:09:04.649,e3:ca:2d:fd:e0:8c, 2015-01-01 00:39:13.815, 0.974, -0.16, 0.264, -0.122, 0, 0, -31.284, -72.411, -160.878, -27.680, -9.713, -10.760, 30.28, 0.02863, 0.59671, -0.12033, 0.79279,
 15:09:04.649,e3:ca:2d:fd:e0:8c, 2015-01-01 00:39:13.815, 0.976, -0.163, 0.266, -0.061, -0.183, 0, -31.284, -72.411, -160.851, -27.680, -9.713, -10.760, 30.28, 0.02863, 0.59671, -0.12033, 0.79279,
 15:09:04.675,ed:35:33:d3:6c:f8, 2015-01-01 00:39:12.800, -0.132, -0.068, 0.986, -0.549, 1.038, -0.977, -4.301, 7.526, -164.949, 1.267, -7.500, -34.840, 27.53, 0.13297, 0.06006, 0.04562, -0.98819,
 15:09:04.675,ed:35:33:d3:6c:f8, 2015-01-01 00:39:12.800, -0.141, -0.069, 0.994, -0.061, 1.038, -0.854, -4.307, 7.548, -164.96, 1.267, -7.500, -34.840, 27.53, 0.13297, 0.06006, 0.04562, -0.98819,
 15:09:04.675,f6:90:cc:01:6d:25, 2015-01-01 00:39:07.700, 0.949, -0.053, 0.265, -0.488, 0, 0, -12.129, -74.059, -151.968, -30.640, -12.673, -3.193, 33.2, 0.13022, -0.60147, -0.06305, -0.78561,
 15:09:04.675,f6:90:cc:01:6d:25, 2015-01-01 00:39:07.700, 0.949, -0.055, 0.266, -0.305, 0.244, 0, -12.134, -74.053, -151.968, -30.640, -12.673, -3.193, 33.2, 0.13022, -0.60147, -0.06305, -0.78561,
 15:09:04.677,ed:40:fe:65:30:6c, 2015-01-01 00:39:04.600, 0.759, -0.026, 0.661, -0.488, 0.061, 0, -2.395, -48.862, -120.218, -23.480, -8.307, -2.013, 28.05, 0.44543, -0.36862, -0.18921, -0.79358,
 15:09:04.677,ed:40:fe:65:30:6c, 2015-01-01 00:39:04.600, 0.76, -0.023, 0.664, -0.183, 0.366, -0.061, -2.395, -48.856, -120.212, -23.480, -8.307, -2.013, 28.05, 0.44543, -0.36862, -0.18921, -0.79358,
 15:09:04.694,e3:ca:2d:fd:e0:8c, 2015-01-01 00:39:13.815, 0.978, -0.162, 0.262, -0.122, -0.122, 0, -31.289, -72.411, -160.818, -27.680, -9.713, -10.760, 30.28, 0.02863, 0.59671, -0.12033, 0.79279,
 15:09:04.694,e3:ca:2d:fd:e0:8c, 2015-01-01 00:39:13.815, 0.975, -0.163, 0.264, 0.183, 0, 0, -31.295, -72.411, -160.785, -27.680, -9.713, -10.760, 30.28, 0.02863, 0.59671, -0.12033, 0.79279,
 15:09:04.696,f6:90:cc:01:6d:25, 2015-01-01 00:39:08.060, 0.951, -0.057, 0.267, -0.244, 0.366, 0, -12.129, -74.042, -151.979, -30.640, -12.673, -3.193, 33.2, 0.13022, -0.60147, -0.06305, -0.78561,
 15:09:04.696,f6:90:cc:01:6d:25, 2015-01-01 00:39:08.060, 0.949, -0.057, 0.264, -0.244, 0.366, 0.183, -12.14, -74.037, -151.99, -30.640, -12.673, -3.193, 33.2, 0.13022, -0.60147, -0.06305, -0.78561,
 15:09:04.717,ed:35:33:d3:6c:f8, 2015-01-01 00:39:12.800, -0.138, -0.065, 0.997, 0.366, 0.183, -0.061, -4.301, 7.564, -164.96, 1.267, -7.500, -34.840, 27.53, 0.13297, 0.06006, 0.04562, -0.98819,
 15:09:04.717,ed:35:33:d3:6c:f8, 2015-01-01 00:39:12.800, -0.134, -0.072, 0.991, 0.244, -0.793, 0, -4.29, 7.564, -164.932, 1.267, -7.500, -34.840, 27.53, 0.13297, 0.06006, 0.04562, -0.98819,
 15:09:04.719,f6:90:cc:01:6d:25, 2015-01-01 00:39:08.060, 0.948, -0.058, 0.264, 0.427, -0.122, 0.244, -12.151, -74.037, -151.979, -30.640, -12.673, -3.193, 33.2, 0.13022, -0.60147, -0.06305, -0.78561,
 15:09:04.719,f6:90:cc:01:6d:25, 2015-01-01 00:39:08.060, 0.949, -0.059, 0.264, 0.61, -0.305, 0.122, -12.162, -74.037, -151.946, -30.640, -12.673, -3.193, 33.2, 0.13022, -0.60147, -0.06305, -0.78561,
 15:09:04.720,ed:40:fe:65:30:6c, 2015-01-01 00:39:04.600, 0.755, -0.026, 0.666, 0.061, 0.122, 0.061, -2.395, -48.851, -120.196, -23.480, -8.307, -2.013, 28.05, 0.44543, -0.36862, -0.18921, -0.79358,
 15:09:04.720,ed:40:fe:65:30:6c, 2015-01-01 00:39:04.600, 0.755, -0.028, 0.667, 0.488, 0, 0.427, -2.395, -48.851, -120.179, -23.480, -8.307, -2.013, 28.05, 0.44543, -0.36862, -0.18921, -0.79358,
 15:09:04.739,e3:ca:2d:fd:e0:8c, 2015-01-01 00:39:13.815, 0.973, -0.161, 0.264, 0.366, 0.122, 0, -31.289, -72.411, -160.757, -27.680, -9.713, -10.760, 30.28, 0.02863, 0.59671, -0.12033, 0.79279,
 15:09:04.739,e3:ca:2d:fd:e0:8c, 2015-01-01 00:39:13.815, 0.974, -0.16, 0.263, 0.183, 0.244, 0, -31.278, -72.411, -160.73, -27.680, -9.713, -10.760, 30.28, 0.02863, 0.59671, -0.12033, 0.79279,
 15:09:04.762,ed:35:33:d3:6c:f8, 2015-01-01 00:39:13.135, -0.131, -0.073, 0.989, -0.061, -1.282, -0.305, -4.285, 7.548, -164.921, 1.267, -7.500, -34.840, 27.53, 0.13297, 0.06006, 0.04562, -0.98819,
 15:09:04.762,ed:35:33:d3:6c:f8, 2015-01-01 00:39:13.135, -0.135, -0.072, 0.989, -0.488, -0.427, -0.549, -4.285, 7.526, -164.921, 1.267, -7.500, -34.840, 27.53, 0.13297, 0.06006, 0.04562, -0.98819,
 15:09:04.764,f6:90:cc:01:6d:25, 2015-01-01 00:39:08.060, 0.948, -0.056, 0.267, 0.244, -0.305, -0.061, -12.162, -74.042, -151.924, -30.640, -12.673, -3.193, 33.2, 0.13022, -0.60147, -0.06305, -0.78561,
 15:09:04.764,f6:90:cc:01:6d:25, 2015-01-01 00:39:08.060, 0.947, -0.054, 0.266, 0.061, -0.122, -0.061, -12.156, -74.048, -151.913, -30.640, -12.673, -3.193, 33.2, 0.13022, -0.60147, -0.06305, -0.78561,
 15:09:04.765,ed:40:fe:65:30:6c, 2015-01-01 00:39:04.600, 0.757, -0.029, 0.663, 0.61, -0.122, 0.488, -2.39, -48.851, -120.157, -23.827, -8.020, -2.427, 28.05, 0.44543, -0.36862, -0.18921, -0.79358,
 15:09:04.765,ed:40:fe:65:30:6c, 2015-01-01 00:39:04.600, 0.756, -0.028, 0.661, 0.305, -0.183, 0.366, -2.39, -48.851, -120.146, -23.827, -8.020, -2.427, 28.05, 0.44543, -0.36862, -0.18921, -0.79358,
 15:09:04.788,ed:40:fe:65:30:6c, 2015-01-01 00:39:04.600, 0.753, -0.026, 0.66, 0, -0.122, 0.183, -2.395, -48.851, -120.146, -23.827, -8.020, -2.427, 28.05, 0.44656, -0.36783, -0.1897, -0.79321,
 15:09:04.788,ed:40:fe:65:30:6c, 2015-01-01 00:39:04.600, 0.754, -0.025, 0.661, -0.122, -0.183, 0, -2.395, -48.856, -120.152, -23.827, -8.020, -2.427, 28.05, 0.44656, -0.36783, -0.1897, -0.79321,
 15:09:04.807,ed:35:33:d3:6c:f8, 2015-01-01 00:39:13.135, -0.135, -0.071, 0.988, -0.549, 0.244, -0.183, -4.296, 7.52, -164.927, 1.267, -7.500, -34.840, 27.53, 0.13297, 0.06006, 0.04562, -0.98819,
 15:09:04.807,ed:35:33:d3:6c:f8, 2015-01-01 00:39:13.135, -0.134, -0.072, 0.986, -0.427, 0, -0.244, -4.301, 7.526, -164.927, 1.267, -7.500, -34.840, 27.53, 0.13297, 0.06006, 0.04562, -0.98819,
 15:09:04.807,e3:ca:2d:fd:e0:8c, 2015-01-01 00:39:13.815, 0.974, -0.16, 0.265, 0.122, 0.122, 0, -31.273, -72.405, -160.708, -27.620, -10.273, -9.433, 30.28, 0.02863, 0.59671, -0.12033, 0.79279,
 15:09:04.807,e3:ca:2d:fd:e0:8c, 2015-01-01 00:39:13.815, 0.973, -0.159, 0.265, 0.061, 0, 0, -31.267, -72.405, -160.681, -27.620, -10.273, -9.433, 30.28, 0.02863, 0.59671, -0.12033, 0.79279,
 15:09:04.809,f6:90:cc:01:6d:25, 2015-01-01 00:39:08.060, 0.948, -0.055, 0.266, 0, -0.061, -0.122, -12.151, -74.048, -151.902, -30.640, -12.673, -3.193, 33.2, 0.13022, -0.60147, -0.06305, -0.78561,
 15:09:04.809,f6:90:cc:01:6d:25, 2015-01-01 00:39:08.060, 0.949, -0.057, 0.267, -0.061, 0, -0.061, -12.14, -74.048, -151.897, -30.640, -12.673, -3.193, 33.2, 0.13022, -0.60147, -0.06305, -0.78561,
 15:09:04.828,e3:ca:2d:fd:e0:8c, 2015-01-01 00:39:13.815, 0.974, -0.16, 0.265, 0, -0.061, 0, -31.267, -72.405, -160.653, -27.620, -10.273, -9.433, 30.28, 0.02631, 0.59723, -0.11874, 0.79272,
 15:09:04.828,e3:ca:2d:fd:e0:8c, 2015-01-01 00:39:13.815, 0.974, -0.162, 0.266, -0.061, -0.122, 0, -31.267, -72.405, -160.62, -27.620, -10.273, -9.433, 30.28, 0.02631, 0.59723, -0.11874, 0.79272,
 15:09:04.830,ed:35:33:d3:6c:f8, 2015-01-01 00:39:13.135, -0.134, -0.071, 0.989, -0.183, -0.122, -0.488, -4.307, 7.531, -164.916, 1.267, -7.500, -34.840, 27.53, 0.13297, 0.06006, 0.04562, -0.98819,
 15:09:04.830,ed:35:33:d3:6c:f8, 2015-01-01 00:39:13.135, -0.135, -0.068, 0.99, -0.183, 0.122, -0.488, -4.312, 7.531, -164.91, 1.267, -7.500, -34.840, 27.53, 0.13297, 0.06006, 0.04562, -0.98819,
 15:09:04.832,ed:40:fe:65:30:6c, 2015-01-01 00:39:04.600, 0.755, -0.026, 0.663, -0.122, -0.122, -0.061, -2.395, -48.856, -120.163, -23.827, -8.020, -2.427, 28.05, 0.44656, -0.36783, -0.1897, -0.79321,
