Time,Device name,Chip Time(),Acceleration X(g),Acceleration Y(g),Acceleration Z(g),Angular velocity X(°/s),Angular velocity Y(°/s),Angular velocity Z(°/s),Angle X(°),Angle Y(°),Angle Z(°),Magnetic field X(ʯt),Magnetic field Y(ʯt),Magnetic field Z(ʯt),Temperature(℃),Quaternions 0(),Quaternions 1(),Quaternions 2(),Quaternions 3()
 15:47:10.667,ed:40:fe:65:30:6c, 2015-01-01 03:32:12.000, 1.002, -0.054, 0.002, -0.061, -2.075, -0.61, -84.012, -86.759, -53.652, -27.380, -13.940, 13.640, 25.17, 0.27527, -0.66348, -0.23529, -0.65463,
 15:47:10.667,ed:40:fe:65:30:6c, 2015-01-01 03:32:12.000, 1.001, -0.055, 0.002, 0, -1.343, -0.366, -84.457, -86.77, -53.212, -27.380, -13.940, 13.640, 25.17, 0.27527, -0.66348, -0.23529, -0.65463,
 15:47:10.668,ed:35:33:d3:6c:f8, 2015-01-01 03:32:11.865, 0.927, 0.075, 0.348, 1.953, 0, -0.549, 11.36, -68.961, 132.671, -21.907, -13.787, -18.073, 29.36, 0.27823, 0.54846, -0.15222, 0.77362,
 15:47:10.668,ed:35:33:d3:6c:f8, 2015-01-01 03:32:11.865, 0.926, 0.074, 0.347, 1.526, 0, 0, 11.404, -68.961, 132.665, -21.907, -13.787, -18.073, 29.36, 0.27823, 0.54846, -0.15222, 0.77362,
 15:47:10.670,f6:90:cc:01:6d:25, 2015-01-01 03:32:11.450, 0.86, -0.076, -0.477, 0.183, -0.122, 0, -170.876, -60.639, -24.049, -27.680, -12.087, 10.953, 29.52, -0.03778, -0.84982, 0.14011, -0.50659,
 15:47:10.670,f6:90:cc:01:6d:25, 2015-01-01 03:32:11.450, 0.86, -0.075, -0.476, 0.122, -0.061, 0, -170.87, -60.639, -24.044, -27.680, -12.087, 10.953, 29.52, -0.03778, -0.84982, 0.14011, -0.50659,
 15:47:10.691,ed:35:33:d3:6c:f8, 2015-01-01 03:32:12.220, 0.926, 0.073, 0.352, 0.977, 0.183, 0.122, 11.42, -68.961, 132.665, -21.907, -13.787, -18.073, 29.36, 0.27823, 0.54846, -0.15222, 0.77362,
 15:47:10.691,ed:35:33:d3:6c:f8, 2015-01-01 03:32:12.220, 0.93, 0.071, 0.353, 0.793, 0.061, 0.427, 11.415, -68.961, 132.698, -21.907, -13.787, -18.073, 29.36, 0.27823, 0.54846, -0.15222, 0.77362,
 15:47:10.713,ed:40:fe:65:30:6c, 2015-01-01 03:32:12.000, 1.001, -0.053, 0.006, 0.061, -1.099, -0.244, -84.82, -86.781, -52.861, -27.380, -13.940, 13.640, 25.17, 0.27527, -0.66348, -0.23529, -0.65463,
 15:47:10.713,ed:40:fe:65:30:6c, 2015-01-01 03:32:12.000, 1.001, -0.054, 0.005, 0.122, -0.977, -0.061, -85.144, -86.781, -52.548, -27.380, -13.940, 13.640, 25.17, 0.27527, -0.66348, -0.23529, -0.65463,
 15:47:10.715,f6:90:cc:01:6d:25, 2015-01-01 03:32:11.450, 0.86, -0.075, -0.476, 0.244, -0.061, 0, -170.87, -60.639, -24.044, -27.680, -12.087, 10.953, 29.52, -0.03778, -0.84982, 0.14011, -0.50659,
 15:47:10.715,f6:90:cc:01:6d:25, 2015-01-01 03:32:11.450, 0.86, -0.076, -0.476, 0.244, -0.061, 0, -170.87, -60.639, -24.038, -27.680, -12.087, 10.953, 29.52, -0.03778, -0.84982, 0.14011, -0.50659,
 15:47:10.734,e3:ca:2d:fd:e0:8c, 2015-01-01 03:32:12.845, 0.892, -0.107, -0.475, 0.122, -0.427, 0, -167.311, -61.194, -40.523, -24.507, -11.853, 4.307, 26.86, -0.08575, -0.82172, 0.24286, -0.5083,
 15:47:10.734,e3:ca:2d:fd:e0:8c, 2015-01-01 03:32:12.845, 0.891, -0.107, -0.474, 0, -0.427, 0, -167.311, -61.188, -40.507, -24.507, -11.853, 4.307, 26.86, -0.08575, -0.82172, 0.24286, -0.5083,
 15:47:10.735,ed:40:fe:65:30:6c, 2015-01-01 03:32:12.000, 1.002, -0.056, 0.003, 0.122, -0.854, -0.122, -85.424, -86.786, -52.273, -27.380, -13.940, 13.640, 25.17, 0.27527, -0.66348, -0.23529, -0.65463,
 15:47:10.735,ed:40:fe:65:30:6c, 2015-01-01 03:32:12.000, 1.003, -0.056, 0.003, -0.061, -0.427, -0.183, -85.556, -86.792, -52.152, -27.380, -13.940, 13.640, 25.17, 0.27527, -0.66348, -0.23529, -0.65463,
 15:47:10.736,ed:35:33:d3:6c:f8, 2015-01-01 03:32:12.220, 0.927, 0.068, 0.35, 0.854, 0.122, 0.488, 11.409, -68.956, 132.731, -21.907, -13.787, -18.073, 29.36, 0.27823, 0.54846, -0.15222, 0.77362,
 15:47:10.736,ed:35:33:d3:6c:f8, 2015-01-01 03:32:12.220, 0.932, 0.066, 0.353, 0.793, 0.305, 0.122, 11.409, -68.95, 132.726, -21.907, -13.787, -18.073, 29.36, 0.27823, 0.54846, -0.15222, 0.77362,
 15:47:10.757,e3:ca:2d:fd:e0:8c, 2015-01-01 03:32:12.845, 0.891, -0.108, -0.476, 0.061, -0.244, 0, -167.316, -61.183, -40.49, -25.053, -11.827, 3.320, 26.86, -0.08575, -0.82172, 0.24286, -0.5083,
 15:47:10.757,e3:ca:2d:fd:e0:8c, 2015-01-01 03:32:12.845, 0.892, -0.109, -0.479, -0.183, -0.183, 0, -167.316, -61.177, -40.479, -25.053, -11.827, 3.320, 26.86, -0.08575, -0.82172, 0.24286, -0.5083,
 15:47:10.760,f6:90:cc:01:6d:25, 2015-01-01 03:32:11.450, 0.86, -0.077, -0.478, 0, -0.122, 0, -170.87, -60.634, -24.033, -27.680, -12.087, 10.953, 29.52, -0.03778, -0.84982, 0.14011, -0.50659,
 15:47:10.760,f6:90:cc:01:6d:25, 2015-01-01 03:32:11.450, 0.86, -0.077, -0.481, 0, -0.122, 0, -170.87, -60.634, -24.027, -27.680, -12.087, 10.953, 29.52, -0.03778, -0.84982, 0.14011, -0.50659,
 15:47:10.779,ed:40:fe:65:30:6c, 2015-01-01 03:32:12.000, 1.004, -0.056, 0, -0.061, -0.305, -0.183, -85.66, -86.797, -52.07, -27.380, -13.940, 13.640, 25.17, 0.27527, -0.66348, -0.23529, -0.65463,
 15:47:10.779,ed:40:fe:65:30:6c, 2015-01-01 03:32:12.000, 1.003, -0.056, -0.002, 0, 0, 0, -85.666, -86.797, -52.075, -27.380, -13.940, 13.640, 25.17, 0.27527, -0.66348, -0.23529, -0.65463,
 15:47:10.781,ed:35:33:d3:6c:f8, 2015-01-01 03:32:12.220, 0.931, 0.072, 0.347, 0.977, 0.183, -0.305, 11.437, -68.95, 132.704, -21.907, -13.787, -18.073, 29.36, 0.27823, 0.54846, -0.15222, 0.77362,
 15:47:10.781,ed:35:33:d3:6c:f8, 2015-01-01 03:32:12.220, 0.927, 0.076, 0.348, 0.183, 0.183, 0.122, 11.442, -68.945, 132.715, -21.907, -13.787, -18.073, 29.36, 0.27823, 0.54846, -0.15222, 0.77362,
 15:47:10.784,f6:90:cc:01:6d:25, 2015-01-01 03:32:11.450, 0.86, -0.077, -0.483, 0, -0.122, 0, -170.87, -60.634, -24.027, -27.680, -12.087, 10.953, 29.52, -0.03778, -0.84982, 0.14011, -0.50659,
 15:47:10.784,f6:90:cc:01:6d:25, 2015-01-01 03:32:11.450, 0.86, -0.078, -0.481, 0.061, -0.061, 0, -170.87, -60.628, -24.022, -27.680, -12.087, 10.953, 29.52, -0.03778, -0.84982, 0.14011, -0.50659,
 15:47:10.801,e3:ca:2d:fd:e0:8c, 2015-01-01 03:32:12.845, 0.891, -0.108, -0.482, -0.244, -0.183, 0, -167.322, -61.177, -40.463, -25.053, -11.827, 3.320, 26.86, -0.08575, -0.82172, 0.24286, -0.5083,
 15:47:10.801,e3:ca:2d:fd:e0:8c, 2015-01-01 03:32:12.845, 0.891, -0.11, -0.481, -0.305, -0.061, 0, -167.327, -61.172, -40.452, -25.053, -11.827, 3.320, 26.86, -0.08575, -0.82172, 0.24286, -0.5083,
 15:47:10.823,e3:ca:2d:fd:e0:8c, 2015-01-01 03:32:12.845, 0.891, -0.109, -0.48, -0.183, 0, 0, -167.333, -61.172, -40.441, -25.053, -11.827, 3.320, 26.86, -0.08569, -0.82224, 0.24304, -0.50739,
 15:47:10.823,e3:ca:2d:fd:e0:8c, 2015-01-01 03:32:12.845, 0.89, -0.109, -0.48, -0.122, -0.061, 0, -167.333, -61.172, -40.424, -25.053, -11.827, 3.320, 26.86, -0.08569, -0.82224, 0.24304, -0.50739,
 15:47:10.827,ed:35:33:d3:6c:f8, 2015-01-01 03:32:12.220, 0.929, 0.07, 0.35, -0.183, 0.122, 0.366, 11.42, -68.945, 132.742, -21.907, -13.787, -18.073, 29.36, 0.27823, 0.54846, -0.15222, 0.77362,
 15:47:10.827,ed:35:33:d3:6c:f8, 2015-01-01 03:32:12.220, 0.927, 0.068, 0.348, 0, 0, 0.366, 11.404, -68.945, 132.737, -21.907, -13.787, -18.073, 29.36, 0.27823, 0.54846, -0.15222, 0.77362,
 15:47:10.828,f6:90:cc:01:6d:25, 2015-01-01 03:32:11.450, 0.859, -0.077, -0.479, 0.061, -0.061, 0, -170.87, -60.628, -24.016, -27.680, -12.087, 10.953, 29.52, -0.03778, -0.84982, 0.14011, -0.50659,
 15:47:10.828,f6:90:cc:01:6d:25, 2015-01-01 03:32:11.450, 0.859, -0.077, -0.479, 0.061, 0, 0, -170.87, -60.623, -24.016, -27.680, -12.087, 10.953, 29.52, -0.03778, -0.84982, 0.14011, -0.50659,
 15:47:10.847,ed:40:fe:65:30:6c, 2015-01-01 03:32:12.000, 1.003, -0.056, 0, 0.244, 0.305, 0.122, -85.573, -86.792, -52.169, -27.380, -13.940, 13.640, 25.17, 0.27527, -0.66348, -0.23529, -0.65463,
 15:47:10.847,ed:40:fe:65:30:6c, 2015-01-01 03:32:12.000, 1.002, -0.057, 0, 0.427, 0.183, 0.244, -85.529, -86.786, -52.218, -27.380, -13.940, 13.640, 25.17, 0.27527, -0.66348, -0.23529, -0.65463,
 15:47:10.868,e3:ca:2d:fd:e0:8c, 2015-01-01 03:32:12.845, 0.89, -0.109, -0.479, -0.061, -0.122, 0, -167.333, -61.172, -40.413, -25.053, -11.827, 3.320, 26.86, -0.08569, -0.82224, 0.24304, -0.50739,
 15:47:10.868,e3:ca:2d:fd:e0:8c, 2015-01-01 03:32:12.845, 0.891, -0.109, -0.479, -0.061, -0.061, 0, -167.333, -61.166, -40.402, -25.053, -11.827, 3.320, 26.86, -0.08569, -0.82224, 0.24304, -0.50739,
 15:47:10.870,ed:40:fe:65:30:6c, 2015-01-01 03:32:12.000, 1.001, -0.057, 0, 0.427, 0.305, 0.122, -85.446, -86.786, -52.3, -27.280, -13.760, 13.373, 25.17, 0.27527, -0.66348, -0.23529, -0.65463,
 15:47:10.870,ed:40:fe:65:30:6c, 2015-01-01 03:32:12.000, 1.002, -0.06, 0, 0.061, 0.488, -0.244, -85.298, -86.786, -52.46, -27.280, -13.760, 13.373, 25.17, 0.27527, -0.66348, -0.23529, -0.65463,
 15:47:10.872,ed:35:33:d3:6c:f8, 2015-01-01 03:32:12.220, 0.928, 0.066, 0.346, 0.488, -0.122, 0.671, 11.382, -68.95, 132.731, -21.907, -13.787, -18.073, 29.36, 0.27823, 0.54846, -0.15222, 0.77362,
 15:47:10.872,ed:35:33:d3:6c:f8, 2015-01-01 03:32:12.220, 0.924, 0.06, 0.345, 1.648, -0.183, 1.282, 11.349, -68.956, 132.764, -21.907, -13.787, -18.073, 29.36, 0.27823, 0.54846, -0.15222, 0.77362,
 15:47:10.872,f6:90:cc:01:6d:25, 2015-01-01 03:32:11.450, 0.859, -0.078, -0.48, 0, 0.122, 0, -170.87, -60.628, -24.011, -28.187, -11.820, 10.587, 29.52, -0.03778, -0.84982, 0.14011, -0.50659,
 15:47:10.872,f6:90:cc:01:6d:25, 2015-01-01 03:32:11.450, 0.86, -0.078, -0.48, -0.061, 0.244, 0, -170.87, -60.628, -24.011, -28.187, -11.820, 10.587, 29.52, -0.03778, -0.84982, 0.14011, -0.50659,
 15:47:10.891,e3:ca:2d:fd:e0:8c, 2015-01-01 03:32:13.180, 0.891, -0.107, -0.48, -0.366, -0.061, 0, -167.338, -61.166, -40.391, -25.053, -11.827, 3.320, 26.86, -0.08569, -0.82224, 0.24304, -0.50739,
 15:47:10.891,e3:ca:2d:fd:e0:8c, 2015-01-01 03:32:13.180, 0.891, -0.107, -0.478, -0.61, -0.244, 0, -167.349, -61.161, -40.375, -25.053, -11.827, 3.320, 26.86, -0.08569, -0.82224, 0.24304, -0.50739,
 15:47:10.893,ed:35:33:d3:6c:f8, 2015-01-01 03:32:12.220, 0.924, 0.062, 0.351, 0.977, 0.122, 0.916, 11.316, -68.961, 132.803, -21.113, -13.760, -18.007, 29.36, 0.27823, 0.54846, -0.15222, 0.77362,
 15:47:10.893,ed:35:33:d3:6c:f8, 2015-01-01 03:32:12.220, 0.923, 0.064, 0.355, -0.549, 0.549, 0.122, 11.288, -68.956, 132.825, -21.113, -13.760, -18.007, 29.36, 0.27823, 0.54846, -0.15222, 0.77362,
 15:47:10.915,ed:40:fe:65:30:6c, 2015-01-01 03:32:12.000, 1.001, -0.059, 0.003, -0.671, 0.488, -0.61, -85.161, -86.797, -52.635, -27.280, -13.760, 13.373, 25.17, 0.27527, -0.66348, -0.23529, -0.65463,
 15:47:10.915,ed:40:fe:65:30:6c, 2015-01-01 03:32:12.000, 1, -0.054, 0.007, -1.16, 0, -0.732, -85.188, -86.814, -52.641, -27.280, -13.760, 13.373, 25.17, 0.27527, -0.66348, -0.23529, -0.65463,
 15:47:10.917,f6:90:cc:01:6d:25, 2015-01-01 03:32:11.450, 0.861, -0.076, -0.478, -0.183, 0.244, 0, -170.87, -60.634, -24.011, -28.187, -11.820, 10.587, 29.52, -0.03748, -0.85001, 0.13968, -0.50644,
 15:47:10.917,f6:90:cc:01:6d:25, 2015-01-01 03:32:11.450, 0.861, -0.075, -0.477, -0.244, 0.244, 0, -170.876, -60.634, -24.005, -28.187, -11.820, 10.587, 29.52, -0.03748, -0.85001, 0.13968, -0.50644,
 15:47:10.936,e3:ca:2d:fd:e0:8c, 2015-01-01 03:32:13.180, 0.892, -0.106, -0.477, -0.61, -0.366, 0, -167.366, -61.155, -40.364, -25.053, -11.827, 3.320, 26.86, -0.08569, -0.82224, 0.24304, -0.50739,
 15:47:10.936,e3:ca:2d:fd:e0:8c, 2015-01-01 03:32:13.180, 0.891, -0.107, -0.478, -0.488, -0.427, 0, -167.377, -61.144, -40.347, -25.053, -11.827, 3.320, 26.86, -0.08569, -0.82224, 0.24304, -0.50739,
 15:47:10.938,ed:35:33:d3:6c:f8, 2015-01-01 03:32:12.220, 0.922, 0.069, 0.357, -1.587, 0.671, -0.549, 11.266, -68.939, 132.814, -21.113, -13.760, -18.007, 29.36, 0.27823, 0.54846, -0.15222, 0.77362,
 15:47:10.938,ed:35:33:d3:6c:f8, 2015-01-01 03:32:12.220, 0.92, 0.071, 0.36, -1.953, 0.671, -0.61, 11.25, -68.923, 132.803, -21.113, -13.760, -18.007, 29.36, 0.27823, 0.54846, -0.15222, 0.77362,
 15:47:10.938,ed:40:fe:65:30:6c, 2015-01-01 03:32:12.000, 1, -0.052, 0.009, -1.465, -0.366, -0.854, -85.336, -86.83, -52.531, -27.280, -13.760, 13.373, 25.17, 0.27301, -0.66501, -0.23535, -0.65399,
 15:47:10.938,ed:40:fe:65:30:6c, 2015-01-01 03:32:12.000, 1, -0.053, 0.01, -1.526, -0.854, -0.854, -85.644, -86.847, -52.256, -27.280, -13.760, 13.373, 25.17, 0.27301, -0.66501, -0.23535, -0.65399,
 15:47:10.962,f6:90:cc:01:6d:25, 2015-01-01 03:32:11.760, 0.86, -0.076, -0.476, -0.305, 0.061, 0, -170.876, -60.639, -24.005, -28.187, -11.820, 10.587, 29.52, -0.03748, -0.85001, 0.13968, -0.50644,
 15:47:10.962,f6:90:cc:01:6d:25, 2015-01-01 03:32:11.760, 0.86, -0.076, -0.475, -0.305, -0.061, 0, -170.887, -60.639, -24, -28.187, -11.820, 10.587, 29.52, -0.03748, -0.85001, 0.13968, -0.50644,
 15:47:10.981,e3:ca:2d:fd:e0:8c, 2015-01-01 03:32:13.180, 0.891, -0.109, -0.476, -0.244, -0.61, 0, -167.388, -61.133, -40.331, -25.053, -11.827, 3.320, 26.86, -0.08569, -0.82224, 0.24304, -0.50739,
 15:47:10.981,e3:ca:2d:fd:e0:8c, 2015-01-01 03:32:13.180, 0.89, -0.108, -0.476, -0.183, -0.61, 0, -167.393, -61.122, -40.314, -25.053, -11.827, 3.320, 26.86, -0.08569, -0.82224, 0.24304, -0.50739,
 15:47:10.982,ed:40:fe:65:30:6c, 2015-01-01 03:32:12.000, 1.001, -0.054, 0.009, -1.404, -1.587, -0.671, -86.21, -86.863, -51.724, -27.280, -13.760, 13.373, 25.17, 0.27301, -0.66501, -0.23535, -0.65399,
 15:47:10.982,ed:40:fe:65:30:6c, 2015-01-01 03:32:12.000, 1.002, -0.055, 0.004, -1.099, -2.075, -0.671, -86.946, -86.88, -51.031, -27.280, -13.760, 13.373, 25.17, 0.27301, -0.66501, -0.23535, -0.65399,
 15:47:10.985,f6:90:cc:01:6d:25, 2015-01-01 03:32:11.760, 0.86, -0.077, -0.476, -0.244, -0.183, 0, -170.892, -60.634, -24, -28.187, -11.820, 10.587, 29.52, -0.03748, -0.85001, 0.13968, -0.50644,
 15:47:10.985,f6:90:cc:01:6d:25, 2015-01-01 03:32:11.760, 0.86, -0.076, -0.476, -0.061, -0.183, 0, -170.892, -60.628, -23.994, -28.187, -11.820, 10.587, 29.52, -0.03748, -0.85001, 0.13968, -0.50644,
 15:47:11.006,ed:35:33:d3:6c:f8, 2015-01-01 03:32:12.220, 0.928, 0.07, 0.358, -1.282, 0.549, -0.366, 11.228, -68.912, 132.792, -21.113, -13.760, -18.007, 29.36, 0.27753, 0.54846, -0.15131, 0.77405,
 15:47:11.006,ed:35:33:d3:6c:f8, 2015-01-01 03:32:12.220, 0.928, 0.069, 0.356, -0.183, 0.488, 0.183, 11.212, -68.895, 132.808, -21.113, -13.760, -18.007, 29.36, 0.27753, 0.54846, -0.15131, 0.77405,
 15:47:11.026,e3:ca:2d:fd:e0:8c, 2015-01-01 03:32:13.180, 0.891, -0.108, -0.478, -0.183, -0.488, 0, -167.399, -61.117, -40.298, -25.053, -11.827, 3.320, 26.86, -0.08569, -0.82224, 0.24304, -0.50739,
 15:47:11.026,e3:ca:2d:fd:e0:8c, 2015-01-01 03:32:13.180, 0.891, -0.104, -0.479, -0.061, -0.488, 0, -167.404, -61.106, -40.287, -25.053, -11.827, 3.320, 26.86, -0.08569, -0.82224, 0.24304, -0.50739,
 15:47:11.027,ed:40:fe:65:30:6c, 2015-01-01 03:32:12.335, 1.002, -0.053, 0.001, -0.671, -1.892, -0.61, -87.61, -86.891, -50.389, -27.280, -13.760, 13.373, 25.17, 0.27301, -0.66501, -0.23535, -0.65399,
 15:47:11.027,ed:40:fe:65:30:6c, 2015-01-01 03:32:12.335, 1.004, -0.05, -0.003, -0.244, -1.526, -0.366, -88.149, -86.902, -49.867, -27.280, -13.760, 13.373, 25.17, 0.27301, -0.66501, -0.23535, -0.65399,
 15:47:11.029,ed:35:33:d3:6c:f8, 2015-01-01 03:32:12.555, 0.93, 0.072, 0.352, 0.244, 0.305, 0.061, 11.201, -68.89, 132.836, -21.113, -13.760, -18.007, 29.36, 0.27753, 0.54846, -0.15131, 0.77405,
 15:47:11.029,ed:35:33:d3:6c:f8, 2015-01-01 03:32:12.555, 0.931, 0.076, 0.348, 0.122, 0.061, -0.061, 11.206, -68.884, 132.852, -21.113, -13.760, -18.007, 29.36, 0.27753, 0.54846, -0.15131, 0.77405,
 15:47:11.030,f6:90:cc:01:6d:25, 2015-01-01 03:32:11.760, 0.86, -0.074, -0.478, 0, -0.122, 0, -170.898, -60.628, -23.989, -28.187, -11.820, 10.587, 29.52, -0.03748, -0.85001, 0.13968, -0.50644,
 15:47:11.030,f6:90:cc:01:6d:25, 2015-01-01 03:32:11.760, 0.86, -0.072, -0.479, 0, -0.061, 0, -170.898, -60.628, -23.989, -28.187, -11.820, 10.587, 29.52, -0.03748, -0.85001, 0.13968, -0.50644,
 15:47:11.071,e3:ca:2d:fd:e0:8c, 2015-01-01 03:32:13.180, 0.891, -0.104, -0.48, -0.122, -0.366, 0, -167.41, -61.1, -40.27, -25.053, -11.827, 3.320, 26.86, -0.08569, -0.82224, 0.24304, -0.50739,
 15:47:11.071,e3:ca:2d:fd:e0:8c, 2015-01-01 03:32:13.180, 0.89, -0.104, -0.481, -0.122, -0.183, 0, -167.41, -61.095, -40.259, -25.053, -11.827, 3.320, 26.86, -0.08569, -0.82224, 0.24304, -0.50739,
 15:47:11.072,ed:40:fe:65:30:6c, 2015-01-01 03:32:12.335, 1.005, -0.047, -0.004, 0.061, -0.793, -0.061, -88.434, -86.902, -49.592, -27.280, -13.760, 13.373, 25.17, 0.27301, -0.66501, -0.23535, -0.65399,
 15:47:11.072,ed:40:fe:65:30:6c, 2015-01-01 03:32:12.335, 1.003, -0.047, -0.006, 0.427, -0.305, 0.305, -88.55, -86.902, -49.466, -27.280, -13.760, 13.373, 25.17, 0.27301, -0.66501, -0.23535, -0.65399,
 15:47:11.074,ed:35:33:d3:6c:f8, 2015-01-01 03:32:12.555, 0.93, 0.079, 0.347, -0.244, -0.305, -0.061, 11.206, -68.89, 132.852, -21.113, -13.760, -18.007, 29.36, 0.27753, 0.54846, -0.15131, 0.77405,
 15:47:11.074,ed:35:33:d3:6c:f8, 2015-01-01 03:32:12.555, 0.93, 0.078, 0.347, -0.488, -0.793, 0.122, 11.206, -68.901, 132.841, -21.113, -13.760, -18.007, 29.36, 0.27753, 0.54846, -0.15131, 0.77405,
 15:47:11.075,f6:90:cc:01:6d:25, 2015-01-01 03:32:11.760, 0.86, -0.072, -0.481, 0, 0.061, 0, -170.898, -60.628, -23.983, -28.187, -11.820, 10.587, 29.52, -0.03748, -0.85001, 0.13968, -0.50644,
 15:47:11.075,f6:90:cc:01:6d:25, 2015-01-01 03:32:11.760, 0.859, -0.074, -0.482, 0, 0.183, 0, -170.903, -60.628, -23.983, -28.187, -11.820, 10.587, 29.52, -0.03748, -0.85001, 0.13968, -0.50644,
 15:47:11.094,ed:40:fe:65:30:6c, 2015-01-01 03:32:12.335, 1.002, -0.052, -0.003, 0.366, 0.366, 0.488, -88.528, -86.891, -49.466, -27.280, -13.760, 13.373, 25.17, 0.27301, -0.66501, -0.23535, -0.65399,
 15:47:11.094,ed:40:fe:65:30:6c, 2015-01-01 03:32:12.335, 1.002, -0.051, -0.002, 0.061, 0.671, 0.244, -88.391, -86.885, -49.598, -27.280, -13.760, 13.373, 25.17, 0.27301, -0.66501, -0.23535, -0.65399,
 15:47:11.094,e3:ca:2d:fd:e0:8c, 2015-01-01 03:32:13.180, 0.89, -0.104, -0.483, 0, -0.122, 0, -167.415, -61.095, -40.248, -25.100, -11.507, 4.287, 26.86, -0.08569, -0.82224, 0.24304, -0.50739,
 15:47:11.094,e3:ca:2d:fd:e0:8c, 2015-01-01 03:32:13.180, 0.89, -0.104, -0.484, 0.061, -0.183, 0, -167.415, -61.089, -40.237, -25.100, -11.507, 4.287, 26.86, -0.08569, -0.82224, 0.24304, -0.50739,
 15:47:11.095,ed:35:33:d3:6c:f8, 2015-01-01 03:32:12.555, 0.93, 0.072, 0.346, -0.488, -0.977, 0.488, 11.195, -68.917, 132.836, -21.113, -13.760, -18.007, 29.36, 0.27753, 0.54846, -0.15131, 0.77405,
 15:47:11.095,ed:35:33:d3:6c:f8, 2015-01-01 03:32:12.555, 0.928, 0.066, 0.347, -0.244, -0.854, 0.305, 11.184, -68.939, 132.803, -21.113, -13.760, -18.007, 29.36, 0.27753, 0.54846, -0.15131, 0.77405,
 15:47:11.121,f6:90:cc:01:6d:25, 2015-01-01 03:32:11.760, 0.859, -0.074, -0.482, 0.061, 0.244, 0, -170.903, -60.634, -23.983, -28.187, -11.820, 10.587, 29.52, -0.03748, -0.85001, 0.13968, -0.50644,
 15:47:11.121,f6:90:cc:01:6d:25, 2015-01-01 03:32:11.760, 0.859, -0.073, -0.481, 0.061, 0.183, 0, -170.903, -60.639, -23.978, -28.187, -11.820, 10.587, 29.52, -0.03748, -0.85001, 0.13968, -0.50644,
 15:47:11.138,e3:ca:2d:fd:e0:8c, 2015-01-01 03:32:13.180, 0.89, -0.104, -0.483, 0, -0.305, 0, -167.421, -61.084, -40.221, -25.100, -11.507, 4.287, 26.86, -0.08569, -0.82224, 0.24304, -0.50739,
 15:47:11.138,e3:ca:2d:fd:e0:8c, 2015-01-01 03:32:13.180, 0.89, -0.104, -0.482, -0.244, -0.366, 0, -167.432, -61.078, -40.21, -25.100, -11.507, 4.287, 26.86, -0.08569, -0.82224, 0.24304, -0.50739,
 15:47:11.139,ed:40:fe:65:30:6c, 2015-01-01 03:32:12.335, 1.001, -0.05, 0, -0.366, 0.671, 0, -88.182, -86.885, -49.807, -27.280, -13.760, 13.373, 25.17, 0.27301, -0.66501, -0.23535, -0.65399,
 15:47:11.139,ed:40:fe:65:30:6c, 2015-01-01 03:32:12.335, 1.001, -0.052, 0.001, -0.488, 0.732, -0.061, -87.973, -86.885, -50.026, -27.280, -13.760, 13.373, 25.17, 0.27301, -0.66501, -0.23535, -0.65399,
 15:47:11.141,ed:35:33:d3:6c:f8, 2015-01-01 03:32:12.555, 0.926, 0.065, 0.349, -0.122, -0.671, 0, 11.19, -68.956, 132.72, -21.113, -13.760, -18.007, 29.36, 0.27753, 0.54846, -0.15131, 0.77405,
 15:47:11.141,ed:35:33:d3:6c:f8, 2015-01-01 03:32:12.555, 0.925, 0.068, 0.35, 0, -0.61, -0.305, 11.212, -68.967, 132.643, -21.113, -13.760, -18.007, 29.36, 0.27753, 0.54846, -0.15131, 0.77405,
 15:47:11.165,f6:90:cc:01:6d:25, 2015-01-01 03:32:11.760, 0.86, -0.073, -0.48, 0, 0.122, 0, -170.903, -60.639, -23.978, -28.080, -11.600, 11.047, 29.52, -0.03748, -0.85001, 0.13968, -0.50644,
 15:47:11.165,f6:90:cc:01:6d:25, 2015-01-01 03:32:11.760, 0.86, -0.074, -0.479, -0.061, 0, 0, -170.909, -60.639, -23.972, -28.080, -11.600, 11.047, 29.52, -0.03748, -0.85001, 0.13968, -0.50644,
 15:47:11.185,ed:40:fe:65:30:6c, 2015-01-01 03:32:12.335, 1.003, -0.054, 0.002, -0.549, 0.61, 0, -87.759, -86.891, -50.257, -27.280, -13.760, 13.373, 25.17, 0.27301, -0.66501, -0.23535, -0.65399,
 15:47:11.185,ed:40:fe:65:30:6c, 2015-01-01 03:32:12.335, 1.003, -0.056, 0, -0.244, 0.488, 0.183, -87.583, -86.891, -50.444, -27.280, -13.760, 13.373, 25.17, 0.27301, -0.66501, -0.23535, -0.65399,
 15:47:11.188,f6:90:cc:01:6d:25, 2015-01-01 03:32:11.760, 0.861, -0.076, -0.478, -0.122, 0, 0, -170.914, -60.639, -23.972, -28.080, -11.600, 11.047, 29.52, -0.03766, -0.85001, 0.13962, -0.50644,
 15:47:11.188,f6:90:cc:01:6d:25, 2015-01-01 03:32:11.760, 0.861, -0.078, -0.479, 0, 0, 0, -170.92, -60.639, -23.972, -28.080, -11.600, 11.047, 29.52, -0.03766, -0.85001, 0.13962, -0.50644,
 15:47:11.206,e3:ca:2d:fd:e0:8c, 2015-01-01 03:32:13.180, 0.89, -0.106, -0.481, -0.488, -0.488, 0, -167.443, -61.068, -40.193, -25.100, -11.507, 4.287, 26.86, -0.08508, -0.82297, 0.24207, -0.50671,
 15:47:11.206,e3:ca:2d:fd:e0:8c, 2015-01-01 03:32:13.180, 0.89, -0.108, -0.479, -0.366, -0.549, 0, -167.459, -61.057, -40.182, -25.100, -11.507, 4.287, 26.86, -0.08508, -0.82297, 0.24207, -0.50671,
 15:47:11.208,ed:35:33:d3:6c:f8, 2015-01-01 03:32:12.555, 0.926, 0.069, 0.353, 0, -0.427, -0.488, 11.239, -68.972, 132.583, -21.113, -13.760, -18.007, 29.36, 0.27753, 0.54846, -0.15131, 0.77405,
 15:47:11.208,ed:35:33:d3:6c:f8, 2015-01-01 03:32:12.555, 0.928, 0.068, 0.353, -0.488, -0.549, -0.916, 11.277, -68.978, 132.517, -21.113, -13.760, -18.007, 29.36, 0.27753, 0.54846, -0.15131, 0.77405,
 15:47:11.228,e3:ca:2d:fd:e0:8c, 2015-01-01 03:32:13.515, 0.89, -0.11, -0.48, -0.183, -0.549, 0, -167.47, -61.046, -40.166, -25.100, -11.507, 4.287, 26.86, -0.08508, -0.82297, 0.24207, -0.50671,
 15:47:11.228,e3:ca:2d:fd:e0:8c, 2015-01-01 03:32:13.515, 0.89, -0.109, -0.48, 0, -0.366, 0, -167.47, -61.04, -40.155, -25.100, -11.507, 4.287, 26.86, -0.08508, -0.82297, 0.24207, -0.50671,
 15:47:11.231,ed:35:33:d3:6c:f8, 2015-01-01 03:32:12.555, 0.933, 0.069, 0.352, -0.793, -0.793, -1.038, 11.321, -68.989, 132.44, -21.540, -13.507, -18.313, 29.36, 0.27753, 0.54846, -0.15131, 0.77405,
 15:47:11.231,ed:35:33:d3:6c:f8, 2015-01-01 03:32:12.555, 0.933, 0.069, 0.344, -1.099, -1.099, -0.793, 11.354, -69.005, 132.38, -21.540, -13.507, -18.313, 29.36, 0.27753, 0.54846, -0.15131, 0.77405,
 15:47:11.232,f6:90:cc:01:6d:25, 2015-01-01 03:32:11.760, 0.861, -0.078, -0.479, 0.061, 0, 0, -170.92, -60.634, -23.967, -28.080, -11.600, 11.047, 29.52, -0.03766, -0.85001, 0.13962, -0.50644,
 15:47:11.232,f6:90:cc:01:6d:25, 2015-01-01 03:32:11.760, 0.86, -0.078, -0.478, 0.122, 0, 0, -170.92, -60.634, -23.967, -28.080, -11.600, 11.047, 29.52, -0.03766, -0.85001, 0.13962, -0.50644,
 15:47:11.253,ed:40:fe:65:30:6c, 2015-01-01 03:32:12.335, 1.002, -0.056, -0.002, 0, 0.61, 0.427, -87.424, -86.885, -50.609, -27.453, -13.887, 13.667, 25.17, 0.27301, -0.66501, -0.23535, -0.65399,
 15:47:11.253,ed:40:fe:65:30:6c, 2015-01-01 03:32:12.335, 1.001, -0.056, -0.001, 0.122, 1.526, 0.488, -87.16, -86.874, -50.894, -27.453, -13.887, 13.667, 25.17, 0.27301, -0.66501, -0.23535, -0.65399,
 15:47:11.273,e3:ca:2d:fd:e0:8c, 2015-01-01 03:32:13.515, 0.89, -0.109, -0.479, 0, -0.366, 0, -167.476, -61.029, -40.144, -25.100, -11.507, 4.287, 26.86, -0.08508, -0.82297, 0.24207, -0.50671,
 15:47:11.273,e3:ca:2d:fd:e0:8c, 2015-01-01 03:32:13.515, 0.889, -0.108, -0.477, 0, -0.488, 0, -167.476, -61.024, -40.128, -25.100, -11.507, 4.287, 26.86, -0.08508, -0.82297, 0.24207, -0.50671,
 15:47:11.277,f6:90:cc:01:6d:25, 2015-01-01 03:32:12.050, 0.86, -0.077, -0.474, 0.061, 0, 0, -170.914, -60.634, -23.961, -28.080, -11.600, 11.047, 29.52, -0.03766, -0.85001, 0.13962, -0.50644,
 15:47:11.277,f6:90:cc:01:6d:25, 2015-01-01 03:32:12.050, 0.86, -0.078, -0.475, 0, 0.061, 0, -170.914, -60.634, -23.961, -28.080, -11.600, 11.047, 29.52, -0.03766, -0.85001, 0.13962, -0.50644,
 15:47:11.295,e3:ca:2d:fd:e0:8c, 2015-01-01 03:32:13.515, 0.89, -0.108, -0.476, 0.061, -0.488, 0, -167.476, -61.013, -40.117, -25.100, -11.507, 4.287, 26.86, -0.08508, -0.82297, 0.24207, -0.50671,
 15:47:11.295,e3:ca:2d:fd:e0:8c, 2015-01-01 03:32:13.515, 0.889, -0.109, -0.477, 0.122, -0.305, 0, -167.476, -61.007, -40.106, -25.100, -11.507, 4.287, 26.86, -0.08508, -0.82297, 0.24207, -0.50671,
 15:47:11.297,ed:40:fe:65:30:6c, 2015-01-01 03:32:12.335, 1.001, -0.056, 0, 0.183, 2.869, 0.549, -86.528, -86.863, -51.526, -27.453, -13.887, 13.667, 25.17, 0.27136, -0.6658, -0.2345, -0.65417,
 15:47:11.297,ed:40:fe:65:30:6c, 2015-01-01 03:32:12.335, 1.002, -0.057, 0.002, 0.061, 3.906, 0.549, -85.457, -86.852, -52.614, -27.453, -13.887, 13.667, 25.17, 0.27136, -0.6658, -0.2345, -0.65417,
 15:47:11.298,ed:35:33:d3:6c:f8, 2015-01-01 03:32:12.555, 0.93, 0.068, 0.342, -1.526, -0.916, -0.549, 11.365, -69.022, 132.352, -21.540, -13.507, -18.313, 29.36, 0.27753, 0.54846, -0.15131, 0.77405,
 15:47:11.298,ed:35:33:d3:6c:f8, 2015-01-01 03:32:12.555, 0.928, 0.067, 0.343, -2.075, -0.366, -0.366, 11.354, -69.033, 132.336, -21.540, -13.507, -18.313, 29.36, 0.27753, 0.54846, -0.15131, 0.77405,
 15:47:11.320,ed:35:33:d3:6c:f8, 2015-01-01 03:32:12.555, 0.927, 0.07, 0.344, -2.93, -0.061, -0.366, 11.316, -69.033, 132.314, -21.540, -13.507, -18.313, 29.36, 0.28003, 0.54868, -0.15329, 0.77261,
 15:47:11.320,ed:35:33:d3:6c:f8, 2015-01-01 03:32:12.555, 0.929, 0.071, 0.344, -2.991, 0.061, -0.183, 11.272, -69.033, 132.297, -21.540, -13.507, -18.313, 29.36, 0.28003, 0.54868, -0.15329, 0.77261,
 15:47:11.322,f6:90:cc:01:6d:25, 2015-01-01 03:32:12.050, 0.86, -0.077, -0.476, -0.061, 0.244, 0, -170.914, -60.639, -23.956, -28.080, -11.600, 11.047, 29.52, -0.03766, -0.85001, 0.13962, -0.50644,
 15:47:11.322,f6:90:cc:01:6d:25, 2015-01-01 03:32:12.050, 0.861, -0.077, -0.477, -0.183, 0.366, 0, -170.914, -60.645, -23.956, -28.080, -11.600, 11.047, 29.52, -0.03766, -0.85001, 0.13962, -0.50644,
 15:47:11.342,ed:40:fe:65:30:6c, 2015-01-01 03:32:12.335, 1.002, -0.056, 0.002, 0.122, 4.578, 0.793, -84.067, -86.83, -54.009, -27.453, -13.887, 13.667, 25.17, 0.27136, -0.6658, -0.2345, -0.65417,
 15:47:11.342,ed:40:fe:65:30:6c, 2015-01-01 03:32:12.335, 1.003, -0.056, 0.004, 0.366, 5.066, 0.854, -82.491, -86.803, -55.596, -27.453, -13.887, 13.667, 25.17, 0.27136, -0.6658, -0.2345, -0.65417,
 15:47:11.342,e3:ca:2d:fd:e0:8c, 2015-01-01 03:32:13.515, 0.89, -0.108, -0.48, 0.061, -0.122, 0, -167.47, -61.007, -40.095, -25.100, -11.507, 4.287, 26.86, -0.08508, -0.82297, 0.24207, -0.50671,
 15:47:11.342,e3:ca:2d:fd:e0:8c, 2015-01-01 03:32:13.515, 0.89, -0.107, -0.483, -0.244, -0.122, 0, -167.476, -61.007, -40.084, -25.100, -11.507, 4.287, 26.86, -0.08508, -0.82297, 0.24207, -0.50671,
 15:47:11.344,f6:90:cc:01:6d:25, 2015-01-01 03:32:12.050, 0.86, -0.076, -0.48, -0.366, 0.488, 0, -170.92, -60.656, -23.961, -28.080, -11.600, 11.047, 29.52, -0.03766, -0.85001, 0.13962, -0.50644,
 15:47:11.344,f6:90:cc:01:6d:25, 2015-01-01 03:32:12.050, 0.86, -0.075, -0.48, -0.427, 0.488, 0, -170.925, -60.667, -23.961, -28.080, -11.600, 11.047, 29.52, -0.03766, -0.85001, 0.13962, -0.50644,
 15:47:11.365,ed:35:33:d3:6c:f8, 2015-01-01 03:32:12.555, 0.93, 0.068, 0.346, -2.319, 0.305, 0.244, 11.212, -69.033, 132.303, -21.540, -13.507, -18.313, 29.36, 0.28003, 0.54868, -0.15329, 0.77261,
 15:47:11.365,ed:35:33:d3:6c:f8, 2015-01-01 03:32:12.555, 0.929, 0.063, 0.349, -1.465, 0.366, 0.488, 11.151, -69.027, 132.325, -21.540, -13.507, -18.313, 29.36, 0.28003, 0.54868, -0.15329, 0.77261,
 15:47:11.365,ed:40:fe:65:30:6c, 2015-01-01 03:32:12.670, 1.002, -0.056, 0.006, 0.366, 5.432, 0.732, -80.793, -86.776, -57.305, -27.453, -13.887, 13.667, 25.17, 0.27136, -0.6658, -0.2345, -0.65417,
 15:47:11.365,ed:40:fe:65:30:6c, 2015-01-01 03:32:12.670, 1.003, -0.056, 0.009, 0.183, 5.615, 0.427, -79.014, -86.743, -59.095, -27.453, -13.887, 13.667, 25.17, 0.27136, -0.6658, -0.2345, -0.65417,
 15:47:11.388,ed:35:33:d3:6c:f8, 2015-01-01 03:32:12.915, 0.929, 0.063, 0.35, -0.61, 0.244, 0.122, 11.124, -69.027, 132.33, -21.540, -13.507, -18.313, 29.36, 0.28003, 0.54868, -0.15329, 0.77261,
 15:47:11.388,ed:35:33:d3:6c:f8, 2015-01-01 03:32:12.915, 0.927, 0.066, 0.356, -0.793, 0.366, -0.305, 11.118, -69.016, 132.303, -21.540, -13.507, -18.313, 29.36, 0.28003, 0.54868, -0.15329, 0.77261,
 15:47:11.388,ed:40:fe:65:30:6c, 2015-01-01 03:32:12.670, 1.002, -0.055, 0.013, 0, 5.676, 0.183, -77.206, -86.715, -60.908, -27.453, -13.887, 13.667, 25.17, 0.27136, -0.6658, -0.2345, -0.65417,
 15:47:11.388,ed:40:fe:65:30:6c, 2015-01-01 03:32:12.670, 1.003, -0.052, 0.016, 0, 5.249, 0.183, -75.449, -86.688, -62.682, -27.453, -13.887, 13.667, 25.17, 0.27136, -0.6658, -0.2345, -0.65417,
 15:47:11.389,f6:90:cc:01:6d:25, 2015-01-01 03:32:12.050, 0.86, -0.075, -0.481, -0.61, 0.488, 0, -170.931, -60.672, -23.961, -28.080, -11.600, 11.047, 29.52, -0.03766, -0.85001, 0.13962, -0.50644,
 15:47:11.389,f6:90:cc:01:6d:25, 2015-01-01 03:32:12.050, 0.86, -0.073, -0.481, -0.671, 0.366, 0, -170.947, -60.683, -23.961, -28.080, -11.600, 11.047, 29.52, -0.03766, -0.85001, 0.13962, -0.50644,
 15:47:11.409,e3:ca:2d:fd:e0:8c, 2015-01-01 03:32:13.515, 0.889, -0.106, -0.483, -0.305, -0.061, 0, -167.481, -61.007, -40.073, -25.100, -11.507, 4.287, 26.86, -0.08508, -0.82297, 0.24207, -0.50671,
 15:47:11.409,e3:ca:2d:fd:e0:8c, 2015-01-01 03:32:13.515, 0.89, -0.105, -0.484, -0.305, -0.061, 0, -167.487, -61.002, -40.067, -25.100, -11.507, 4.287, 26.86, -0.08508, -0.82297, 0.24207, -0.50671,
 15:47:11.431,e3:ca:2d:fd:e0:8c, 2015-01-01 03:32:13.515, 0.89, -0.105, -0.488, -0.244, -0.061, 0, -167.487, -61.002, -40.056, -25.247, -11.740, 4.200, 26.86, -0.08508, -0.82297, 0.24207, -0.50671,
 15:47:11.431,e3:ca:2d:fd:e0:8c, 2015-01-01 03:32:13.515, 0.89, -0.104, -0.488, -0.183, -0.122, 0, -167.492, -61.002, -40.045, -25.247, -11.740, 4.200, 26.86, -0.08508, -0.82297, 0.24207, -0.50671,
 15:47:11.434,ed:35:33:d3:6c:f8, 2015-01-01 03:32:12.915, 0.928, 0.068, 0.357, -0.366, -0.488, -0.793, 11.151, -69.022, 132.253, -21.540, -13.507, -18.313, 29.36, 0.28003, 0.54868, -0.15329, 0.77261,
 15:47:11.434,ed:35:33:d3:6c:f8, 2015-01-01 03:32:12.915, 0.924, 0.069, 0.359, -0.61, -0.793, -0.732, 11.184, -69.033, 132.204, -21.540, -13.507, -18.313, 29.36, 0.28003, 0.54868, -0.15329, 0.77261,
 15:47:11.434,ed:40:fe:65:30:6c, 2015-01-01 03:32:12.670, 1.003, -0.053, 0.016, -0.061, 4.639, 0.061, -73.861, -86.66, -64.276, -27.453, -13.887, 13.667, 25.17, 0.27136, -0.6658, -0.2345, -0.65417,
 15:47:11.434,ed:40:fe:65:30:6c, 2015-01-01 03:32:12.670, 1.003, -0.052, 0.019, -0.183, 3.784, 0, -72.51, -86.633, -65.632, -27.453, -13.887, 13.667, 25.17, 0.27136, -0.6658, -0.2345, -0.65417,
 15:47:11.435,f6:90:cc:01:6d:25, 2015-01-01 03:32:12.050, 0.861, -0.072, -0.484, -0.488, 0.183, 0, -170.958, -60.683, -23.961, -28.080, -11.600, 11.047, 29.52, -0.03766, -0.85001, 0.13962, -0.50644,
 15:47:11.435,f6:90:cc:01:6d:25, 2015-01-01 03:32:12.050, 0.86, -0.072, -0.482, -0.305, -0.061, 0, -170.964, -60.677, -23.956, -28.080, -11.600, 11.047, 29.52, -0.03766, -0.85001, 0.13962, -0.50644,
 15:47:11.457,ed:35:33:d3:6c:f8, 2015-01-01 03:32:12.915, 0.929, 0.069, 0.354, -1.099, -1.343, -0.916, 11.217, -69.055, 132.138, -21.540, -13.507, -18.313, 29.36, 0.28003, 0.54868, -0.15329, 0.77261,
 15:47:11.457,ed:35:33:d3:6c:f8, 2015-01-01 03:32:12.915, 0.928, 0.072, 0.345, -1.587, -1.465, -1.282, 11.261, -69.077, 132.045, -21.540, -13.507, -18.313, 29.36, 0.28003, 0.54868, -0.15329, 0.77261,
 15:47:11.477,ed:40:fe:65:30:6c, 2015-01-01 03:32:12.670, 1.002, -0.051, 0.017, -0.488, 2.747, 0.061, -71.461, -86.616, -66.682, -27.453, -13.887, 13.667, 25.17, 0.27136, -0.6658, -0.2345, -0.65417,
 15:47:11.477,ed:40:fe:65:30:6c, 2015-01-01 03:32:12.670, 1.001, -0.052, 0.016, -0.671, 2.93, 0.183, -70.664, -86.6, -67.478, -27.453, -13.887, 13.667, 25.17, 0.27136, -0.6658, -0.2345, -0.65417,
 15:47:11.477,e3:ca:2d:fd:e0:8c, 2015-01-01 03:32:13.515, 0.889, -0.104, -0.484, -0.305, -0.061, 0, -167.503, -60.996, -40.04, -25.247, -11.740, 4.200, 26.86, -0.08508, -0.82297, 0.24207, -0.50671,
 15:47:11.477,e3:ca:2d:fd:e0:8c, 2015-01-01 03:32:13.515, 0.888, -0.104, -0.483, -0.427, -0.244, 0, -167.514, -60.991, -40.029, -25.247, -11.740, 4.200, 26.86, -0.08508, -0.82297, 0.24207, -0.50671,
 15:47:11.479,f6:90:cc:01:6d:25, 2015-01-01 03:32:12.050, 0.86, -0.071, -0.479, -0.244, -0.061, 0, -170.975, -60.677, -23.956, -27.933, -11.900, 10.900, 29.52, -0.03766, -0.85001, 0.13962, -0.50644,
 15:47:11.479,f6:90:cc:01:6d:25, 2015-01-01 03:32:12.050, 0.86, -0.072, -0.478, -0.305, 0, 0, -170.98, -60.677, -23.95, -27.933, -11.900, 10.900, 29.52, -0.03766, -0.85001, 0.13962, -0.50644,
 15:47:11.500,e3:ca:2d:fd:e0:8c, 2015-01-01 03:32:13.515, 0.889, -0.104, -0.481, -0.427, -0.488, 0, -167.531, -60.98, -40.018, -25.247, -11.740, 4.200, 26.86, -0.08463, -0.82367, 0.2413, -0.50604,
 15:47:11.500,e3:ca:2d:fd:e0:8c, 2015-01-01 03:32:13.515, 0.889, -0.105, -0.479, -0.305, -0.427, 0, -167.542, -60.974, -40.001, -25.247, -11.740, 4.200, 26.86, -0.08463, -0.82367, 0.2413, -0.50604,
 15:47:11.500,ed:40:fe:65:30:6c, 2015-01-01 03:32:12.670, 1.002, -0.054, 0.017, -0.854, 3.54, 0.305, -69.802, -86.578, -68.351, -27.453, -13.887, 13.667, 25.17, 0.27136, -0.6658, -0.2345, -0.65417,
 15:47:11.500,ed:40:fe:65:30:6c, 2015-01-01 03:32:12.670, 1.003, -0.056, 0.019, -1.038, 4.028, 0.488, -68.791, -86.55, -69.379, -27.453, -13.887, 13.667, 25.17, 0.27136, -0.6658, -0.2345, -0.65417,
 15:47:11.502,ed:35:33:d3:6c:f8, 2015-01-01 03:32:12.915, 0.928, 0.072, 0.343, -2.197, -1.343, -1.282, 11.299, -69.099, 131.935, -21.540, -13.507, -18.313, 29.36, 0.28003, 0.54868, -0.15329, 0.77261,
 15:47:11.502,ed:35:33:d3:6c:f8, 2015-01-01 03:32:12.915, 0.929, 0.07, 0.342, -2.991, -1.404, -1.77, 11.343, -69.115, 131.803, -21.540, -13.507, -18.313, 29.36, 0.28003, 0.54868, -0.15329, 0.77261,
 15:47:11.524,f6:90:cc:01:6d:25, 2015-01-01 03:32:12.050, 0.86, -0.073, -0.477, -0.305, 0.122, 0, -170.991, -60.677, -23.95, -27.933, -11.900, 10.900, 29.52, -0.03818, -0.84985, 0.13971, -0.50662,
 15:47:11.524,f6:90:cc:01:6d:25, 2015-01-01 03:32:12.050, 0.861, -0.075, -0.477, -0.244, 0.366, 0, -170.997, -60.683, -23.95, -27.933, -11.900, 10.900, 29.52, -0.03818, -0.84985, 0.13971, -0.50662,
 15:47:11.544,e3:ca:2d:fd:e0:8c, 2015-01-01 03:32:13.515, 0.889, -0.106, -0.48, -0.122, -0.183, 0, -167.547, -60.969, -39.996, -25.247, -11.740, 4.200, 26.86, -0.08463, -0.82367, 0.2413, -0.50604,
 15:47:11.544,e3:ca:2d:fd:e0:8c, 2015-01-01 03:32:13.515, 0.889, -0.106, -0.482, -0.183, 0, 0, -167.547, -60.969, -39.985, -25.247, -11.740, 4.200, 26.86, -0.08463, -0.82367, 0.2413, -0.50604,
 15:47:11.545,ed:40:fe:65:30:6c, 2015-01-01 03:32:12.670, 1.003, -0.056, 0.02, -0.977, 4.15, 0.549, -67.703, -86.512, -70.483, -27.453, -13.887, 13.667, 25.17, 0.27136, -0.6658, -0.2345, -0.65417,
 15:47:11.545,ed:40:fe:65:30:6c, 2015-01-01 03:32:12.670, 1.002, -0.056, 0.02, -0.916, 4.578, 0.61, -66.594, -86.473, -71.603, -27.453, -13.887, 13.667, 25.17, 0.27136, -0.6658, -0.2345, -0.65417,
 15:47:11.547,f6:90:cc:01:6d:25, 2015-01-01 03:32:12.365, 0.86, -0.075, -0.478, -0.366, 0.61, 0, -171.002, -60.694, -23.95, -27.933, -11.900, 10.900, 29.52, -0.03818, -0.84985, 0.13971, -0.50662,
 15:47:11.547,f6:90:cc:01:6d:25, 2015-01-01 03:32:12.365, 0.861, -0.075, -0.479, -0.305, 0.732, 0, -171.008, -60.705, -23.956, -27.933, -11.900, 10.900, 29.52, -0.03818, -0.84985, 0.13971, -0.50662,
 15:47:11.569,ed:35:33:d3:6c:f8, 2015-01-01 03:32:12.915, 0.93, 0.071, 0.344, -2.991, -1.709, -1.892, 11.398, -69.142, 131.682, -21.540, -13.507, -18.313, 29.36, 0.28003, 0.54868, -0.15329, 0.77261,
 15:47:11.569,ed:35:33:d3:6c:f8, 2015-01-01 03:32:12.915, 0.935, 0.071, 0.342, -2.502, -2.136, -1.587, 11.453, -69.175, 131.578, -21.540, -13.507, -18.313, 29.36, 0.28003, 0.54868, -0.15329, 0.77261,
 15:47:11.588,e3:ca:2d:fd:e0:8c, 2015-01-01 03:32:13.850, 0.89, -0.106, -0.483, -0.122, 0, 0, -167.552, -60.969, -39.979, -25.247, -11.740, 4.200, 26.86, -0.08463, -0.82367, 0.2413, -0.50604,
 15:47:11.588,e3:ca:2d:fd:e0:8c, 2015-01-01 03:32:13.850, 0.89, -0.106, -0.484, -0.122, 0, 0, -167.552, -60.969, -39.974, -25.247, -11.740, 4.200, 26.86, -0.08463, -0.82367, 0.2413, -0.50604,
 15:47:11.590,ed:35:33:d3:6c:f8, 2015-01-01 03:32:12.915, 0.929, 0.072, 0.344, -2.014, -2.258, -1.282, 11.503, -69.214, 131.495, -21.633, -13.820, -17.393, 29.36, 0.28003, 0.54868, -0.15329, 0.77261,
 15:47:11.590,ed:35:33:d3:6c:f8, 2015-01-01 03:32:12.915, 0.921, 0.069, 0.351, -1.16, -1.465, -0.916, 11.541, -69.241, 131.44, -21.633, -13.820, -17.393, 29.36, 0.28003, 0.54868, -0.15329, 0.77261,
 15:47:11.592,f6:90:cc:01:6d:25, 2015-01-01 03:32:12.365, 0.861, -0.075, -0.479, -0.244, 0.732, 0, -171.013, -60.721, -23.956, -27.933, -11.900, 10.900, 29.52, -0.03818, -0.84985, 0.13971, -0.50662,
 15:47:11.592,f6:90:cc:01:6d:25, 2015-01-01 03:32:12.365, 0.862, -0.074, -0.477, 0, 0.61, 0, -171.008, -60.732, -23.961, -27.933, -11.900, 10.900, 29.52, -0.03818, -0.84985, 0.13971, -0.50662,
 15:47:11.612,ed:40:fe:65:30:6c, 2015-01-01 03:32:12.670, 1, -0.056, 0.026, -0.305, 5.066, 0.671, -65.385, -86.429, -72.817, -27.227, -13.613, 13.853, 25.17, 0.27136, -0.6658, -0.2345, -0.65417,
 15:47:11.612,ed:40:fe:65:30:6c, 2015-01-01 03:32:12.670, 0.998, -0.058, 0.035, 0.122, 4.395, 0.366, -64.138, -86.38, -74.064, -27.227, -13.613, 13.853, 25.17, 0.27136, -0.6658, -0.2345, -0.65417,
 15:47:11.634,e3:ca:2d:fd:e0:8c, 2015-01-01 03:32:13.850, 0.889, -0.106, -0.481, 0, -0.122, 0, -167.558, -60.963, -39.963, -25.247, -11.740, 4.200, 26.86, -0.08463, -0.82367, 0.2413, -0.50604,
 15:47:11.634,e3:ca:2d:fd:e0:8c, 2015-01-01 03:32:13.850, 0.889, -0.108, -0.479, 0.122, -0.244, 0, -167.558, -60.963, -39.952, -25.247, -11.740, 4.200, 26.86, -0.08463, -0.82367, 0.2413, -0.50604,
 15:47:11.634,ed:40:fe:65:30:6c, 2015-01-01 03:32:12.670, 0.997, -0.06, 0.041, 0.488, 2.747, 0, -63.111, -86.342, -75.092, -27.227, -13.613, 13.853, 25.17, 0.27448, -0.65787, -0.22961, -0.6626,
 15:47:11.634,ed:40:fe:65:30:6c, 2015-01-01 03:32:12.670, 0.998, -0.06, 0.042, 0.916, 1.404, -0.122, -62.468, -86.325, -75.734, -27.227, -13.613, 13.853, 25.17, 0.27448, -0.65787, -0.22961, -0.6626,
 15:47:11.635,ed:35:33:d3:6c:f8, 2015-01-01 03:32:12.915, 0.921, 0.065, 0.354, 0.122, -0.427, -0.122, 11.552, -69.247, 131.451, -21.633, -13.820, -17.393, 29.36, 0.28003, 0.54868, -0.15329, 0.77261,
 15:47:11.635,ed:35:33:d3:6c:f8, 2015-01-01 03:32:12.915, 0.919, 0.066, 0.361, 1.343, 0.183, 0.366, 11.552, -69.241, 131.495, -21.633, -13.820, -17.393, 29.36, 0.28003, 0.54868, -0.15329, 0.77261,
 15:47:11.638,f6:90:cc:01:6d:25, 2015-01-01 03:32:12.365, 0.862, -0.076, -0.474, 0.244, 0.366, 0, -171.002, -60.738, -23.961, -27.933, -11.900, 10.900, 29.52, -0.03818, -0.84985, 0.13971, -0.50662,
 15:47:11.638,f6:90:cc:01:6d:25, 2015-01-01 03:32:12.365, 0.861, -0.077, -0.471, 0.488, 0.061, 0, -170.997, -60.738, -23.956, -27.933, -11.900, 10.900, 29.52, -0.03818, -0.84985, 0.13971, -0.50662,
 15:47:11.656,e3:ca:2d:fd:e0:8c, 2015-01-01 03:32:13.850, 0.889, -0.107, -0.479, 0.366, -0.488, 0, -167.552, -60.952, -39.941, -25.247, -11.740, 4.200, 26.86, -0.08463, -0.82367, 0.2413, -0.50604,
 15:47:11.656,e3:ca:2d:fd:e0:8c, 2015-01-01 03:32:13.850, 0.889, -0.104, -0.478, 0.488, -0.61, 0, -167.547, -60.941, -39.93, -25.247, -11.740, 4.200, 26.86, -0.08463, -0.82367, 0.2413, -0.50604,
 15:47:11.658,ed:35:33:d3:6c:f8, 2015-01-01 03:32:12.915, 0.922, 0.064, 0.359, 2.197, 0.305, 0.305, 11.569, -69.23, 131.528, -21.633, -13.820, -17.393, 29.36, 0.28412, 0.54938, -0.15665, 0.76993,
 15:47:11.658,ed:35:33:d3:6c:f8, 2015-01-01 03:32:12.915, 0.921, 0.068, 0.358, 2.441, 0.366, 0.122, 11.596, -69.219, 131.567, -21.633, -13.820, -17.393, 29.36, 0.28412, 0.54938, -0.15665, 0.76993,
 15:47:11.680,ed:40:fe:65:30:6c, 2015-01-01 03:32:12.670, 0.998, -0.057, 0.041, 0.854, 0.244, -0.244, -62.139, -86.314, -76.053, -27.227, -13.613, 13.853, 25.17, 0.27448, -0.65787, -0.22961, -0.6626,
 15:47:11.680,ed:40:fe:65:30:6c, 2015-01-01 03:32:12.670, 0.999, -0.053, 0.04, 0.61, -0.671, -0.549, -62.073, -86.32, -76.102, -27.227, -13.613, 13.853, 25.17, 0.27448, -0.65787, -0.22961, -0.6626,
 15:47:11.682,f6:90:cc:01:6d:25, 2015-01-01 03:32:12.365, 0.861, -0.075, -0.472, 0.61, -0.122, 0, -170.986, -60.738, -23.956, -27.933, -11.900, 10.900, 29.52, -0.03818, -0.84985, 0.13971, -0.50662,
 15:47:11.682,f6:90:cc:01:6d:25, 2015-01-01 03:32:12.365, 0.861, -0.072, -0.474, 0.549, -0.366, 0, -170.975, -60.727, -23.95, -27.933, -11.900, 10.900, 29.52, -0.03818, -0.84985, 0.13971, -0.50662,
 15:47:11.701,e3:ca:2d:fd:e0:8c, 2015-01-01 03:32:13.850, 0.889, -0.103, -0.48, 0.366, -0.671, 0, -167.547, -60.93, -39.919, -25.247, -11.740, 4.200, 26.86, -0.08463, -0.82367, 0.2413, -0.50604,
 15:47:11.701,e3:ca:2d:fd:e0:8c, 2015-01-01 03:32:13.850, 0.888, -0.103, -0.479, 0, -0.793, 0, -167.552, -60.914, -39.902, -25.247, -11.740, 4.200, 26.86, -0.08463, -0.82367, 0.2413, -0.50604,
 15:47:11.702,ed:40:fe:65:30:6c, 2015-01-01 03:32:13.025, 1, -0.053, 0.039, 0.122, -1.526, -0.977, -62.188, -86.342, -75.976, -27.227, -13.613, 13.853, 25.17, 0.27448, -0.65787, -0.22961, -0.6626,
 15:47:11.702,ed:40:fe:65:30:6c, 2015-01-01 03:32:13.025, 1.001, -0.054, 0.034, 0, -1.648, -1.221, -62.424, -86.375, -75.734, -27.227, -13.613, 13.853, 25.17, 0.27448, -0.65787, -0.22961, -0.6626,
 15:47:11.704,ed:35:33:d3:6c:f8, 2015-01-01 03:32:12.915, 0.924, 0.067, 0.357, 2.991, 0.488, 0.122, 11.635, -69.203, 131.6, -21.633, -13.820, -17.393, 29.36, 0.28412, 0.54938, -0.15665, 0.76993,
 15:47:11.704,ed:35:33:d3:6c:f8, 2015-01-01 03:32:12.915, 0.926, 0.067, 0.354, 2.991, 0.549, -0.305, 11.695, -69.186, 131.594, -21.633, -13.820, -17.393, 29.36, 0.28412, 0.54938, -0.15665, 0.76993,
 15:47:11.728,f6:90:cc:01:6d:25, 2015-01-01 03:32:12.365, 0.86, -0.073, -0.472, 0.488, -0.732, 0, -170.969, -60.721, -23.945, -27.933, -11.900, 10.900, 29.52, -0.03818, -0.84985, 0.13971, -0.50662,
 15:47:11.728,f6:90:cc:01:6d:25, 2015-01-01 03:32:12.365, 0.86, -0.075, -0.475, 0.488, -0.793, 0, -170.969, -60.705, -23.939, -27.933, -11.900, 10.900, 29.52, -0.03818, -0.84985, 0.13971, -0.50662,
 15:47:11.746,e3:ca:2d:fd:e0:8c, 2015-01-01 03:32:13.850, 0.888, -0.105, -0.48, -0.061, -0.854, 0, -167.563, -60.903, -39.886, -25.247, -11.740, 4.200, 26.86, -0.08463, -0.82367, 0.2413, -0.50604,
 15:47:11.746,e3:ca:2d:fd:e0:8c, 2015-01-01 03:32:13.850, 0.888, -0.107, -0.482, 0.061, -0.854, 0, -167.569, -60.886, -39.875, -25.247, -11.740, 4.200, 26.86, -0.08463, -0.82367, 0.2413, -0.50604,
 15:47:11.750,f6:90:cc:01:6d:25, 2015-01-01 03:32:12.365, 0.86, -0.076, -0.479, 0.488, -0.793, 0, -170.964, -60.694, -23.934, -28.200, -11.800, 10.833, 29.52, -0.03818, -0.84985, 0.13971, -0.50662,
 15:47:11.750,f6:90:cc:01:6d:25, 2015-01-01 03:32:12.365, 0.859, -0.075, -0.482, 0.488, -0.732, 0, -170.958, -60.677, -23.923, -28.200, -11.800, 10.833, 29.52, -0.03818, -0.84985, 0.13971, -0.50662,
 15:47:11.770,ed:40:fe:65:30:6c, 2015-01-01 03:32:13.025, 1.002, -0.055, 0.03, 0, -1.648, -0.977, -62.682, -86.407, -75.471, -27.227, -13.613, 13.853, 25.17, 0.27448, -0.65787, -0.22961, -0.6626,
 15:47:11.770,ed:40:fe:65:30:6c, 2015-01-01 03:32:13.025, 1.004, -0.055, 0.027, 0.244, -2.136, -0.61, -63.056, -86.435, -75.086, -27.227, -13.613, 13.853, 25.17, 0.27448, -0.65787, -0.22961, -0.6626,
 15:47:11.771,ed:35:33:d3:6c:f8, 2015-01-01 03:32:13.250, 0.926, 0.074, 0.348, 2.258, 0.061, -0.732, 11.766, -69.175, 131.561, -21.633, -13.820, -17.393, 29.36, 0.28412, 0.54938, -0.15665, 0.76993,
 15:47:11.771,ed:35:33:d3:6c:f8, 2015-01-01 03:32:13.250, 0.929, 0.076, 0.348, 2.258, -0.122, -0.366, 11.827, -69.17, 131.539, -21.633, -13.820, -17.393, 29.36, 0.28412, 0.54938, -0.15665, 0.76993,
 15:47:11.792,ed:40:fe:65:30:6c, 2015-01-01 03:32:13.025, 1.007, -0.054, 0.021, 0.244, -2.441, -0.366, -63.6, -86.462, -74.531, -27.227, -13.613, 13.853, 25.17, 0.27448, -0.65787, -0.22961, -0.6626,
 15:47:11.792,ed:40:fe:65:30:6c, 2015-01-01 03:32:13.025, 1.006, -0.054, 0.019, 0.122, -2.319, -0.244, -64.221, -86.49, -73.9, -27.227, -13.613, 13.853, 25.17, 0.27448, -0.65787, -0.22961, -0.6626,
 15:47:11.793,ed:35:33:d3:6c:f8, 2015-01-01 03:32:13.250, 0.935, 0.075, 0.345, 2.258, -0.488, -0.122, 11.876, -69.175, 131.528, -21.633, -13.820, -17.393, 29.36, 0.28412, 0.54938, -0.15665, 0.76993,
 15:47:11.793,ed:35:33:d3:6c:f8, 2015-01-01 03:32:13.250, 0.937, 0.073, 0.341, 1.831, -0.732, -0.366, 11.937, -69.186, 131.501, -21.633, -13.820, -17.393, 29.36, 0.28412, 0.54938, -0.15665, 0.76993,
 15:47:11.794,f6:90:cc:01:6d:25, 2015-01-01 03:32:12.365, 0.859, -0.074, -0.485, 0.488, -0.61, 0, -170.953, -60.667, -23.917, -28.200, -11.800, 10.833, 29.52, -0.03818, -0.84985, 0.13971, -0.50662,
 15:47:11.794,f6:90:cc:01:6d:25, 2015-01-01 03:32:12.365, 0.86, -0.074, -0.486, 0.488, -0.488, 0, -170.953, -60.656, -23.912, -28.200, -11.800, 10.833, 29.52, -0.03818, -0.84985, 0.13971, -0.50662,
 15:47:11.813,e3:ca:2d:fd:e0:8c, 2015-01-01 03:32:13.850, 0.888, -0.107, -0.487, 0.305, -0.793, 0, -167.569, -60.87, -39.858, -24.800, -11.787, 4.033, 26.86, -0.08463, -0.82367, 0.2413, -0.50604,
 15:47:11.813,e3:ca:2d:fd:e0:8c, 2015-01-01 03:32:13.850, 0.888, -0.105, -0.488, 0.427, -0.671, 0, -167.563, -60.859, -39.847, -24.800, -11.787, 4.033, 26.86, -0.08463, -0.82367, 0.2413, -0.50604,
 15:47:11.836,e3:ca:2d:fd:e0:8c, 2015-01-01 03:32:13.850, 0.887, -0.106, -0.491, 0.366, -0.488, 0, -167.563, -60.848, -39.836, -24.800, -11.787, 4.033, 26.86, -0.08371, -0.82458, 0.24045, -0.5051,
 15:47:11.836,e3:ca:2d:fd:e0:8c, 2015-01-01 03:32:13.850, 0.888, -0.106, -0.491, 0.244, -0.427, 0, -167.563, -60.842, -39.825, -24.800, -11.787, 4.033, 26.86, -0.08371, -0.82458, 0.24045, -0.5051,
 15:47:11.837,ed:40:fe:65:30:6c, 2015-01-01 03:32:13.025, 1.005, -0.054, 0.017, 0, -2.319, -0.183, -64.858, -86.512, -73.257, -27.227, -13.613, 13.853, 25.17, 0.27448, -0.65787, -0.22961, -0.6626,
 15:47:11.837,ed:40:fe:65:30:6c, 2015-01-01 03:32:13.025, 1.005, -0.054, 0.016, 0, -1.953, -0.183, -65.468, -86.534, -72.642, -27.227, -13.613, 13.853, 25.17, 0.27448, -0.65787, -0.22961, -0.6626,
 15:47:11.838,ed:35:33:d3:6c:f8, 2015-01-01 03:32:13.250, 0.937, 0.074, 0.34, 1.465, -0.916, -0.671, 12.008, -69.203, 131.468, -21.633, -13.820, -17.393, 29.36, 0.28412, 0.54938, -0.15665, 0.76993,
 15:47:11.838,ed:35:33:d3:6c:f8, 2015-01-01 03:32:13.250, 0.937, 0.074, 0.337, 1.282, -0.793, -0.549, 12.068, -69.214, 131.429, -21.633, -13.820, -17.393, 29.36, 0.28412, 0.54938, -0.15665, 0.76993,
 15:47:11.840,f6:90:cc:01:6d:25, 2015-01-01 03:32:12.365, 0.859, -0.074, -0.486, 0.427, -0.366, 0, -170.947, -60.645, -23.906, -28.200, -11.800, 10.833, 29.52, -0.03772, -0.84998, 0.13931, -0.50656,
 15:47:11.840,f6:90:cc:01:6d:25, 2015-01-01 03:32:12.365, 0.859, -0.075, -0.486, 0.366, -0.183, 0, -170.942, -60.634, -23.906, -28.200, -11.800, 10.833, 29.52, -0.03772, -0.84998, 0.13931, -0.50656,
 15:47:11.860,ed:40:fe:65:30:6c, 2015-01-01 03:32:13.025, 1.004, -0.055, 0.015, -0.183, -1.648, -0.244, -65.989, -86.556, -72.12, -27.227, -13.613, 13.853, 25.17, 0.27448, -0.65787, -0.22961, -0.6626,
 15:47:11.860,ed:40:fe:65:30:6c, 2015-01-01 03:32:13.025, 1.001, -0.057, 0.017, -0.122, -1.221, -0.244, -66.418, -86.572, -71.708, -27.227, -13.613, 13.853, 25.17, 0.27448, -0.65787, -0.22961, -0.6626,
 15:47:11.861,ed:35:33:d3:6c:f8, 2015-01-01 03:32:13.250, 0.935, 0.073, 0.336, 0.854, -0.793, -0.61, 12.118, -69.225, 131.375, -21.633, -13.820, -17.393, 29.36, 0.28412, 0.54938, -0.15665, 0.76993,
 15:47:11.861,ed:35:33:d3:6c:f8, 2015-01-01 03:32:13.250, 0.933, 0.074, 0.336, 0.488, -0.793, -0.671, 12.173, -69.241, 131.32, -21.633, -13.820, -17.393, 29.36, 0.28412, 0.54938, -0.15665, 0.76993,
 15:47:11.881,e3:ca:2d:fd:e0:8c, 2015-01-01 03:32:13.850, 0.887, -0.106, -0.49, 0.122, -0.305, 0, -167.563, -60.831, -39.814, -24.800, -11.787, 4.033, 26.86, -0.08371, -0.82458, 0.24045, -0.5051,
 15:47:11.881,e3:ca:2d:fd:e0:8c, 2015-01-01 03:32:13.850, 0.887, -0.108, -0.489, 0.183, -0.122, 0, -167.563, -60.826, -39.809, -24.800, -11.787, 4.033, 26.86, -0.08371, -0.82458, 0.24045, -0.5051,
 15:47:11.887,f6:90:cc:01:6d:25, 2015-01-01 03:32:12.675, 0.859, -0.076, -0.484, 0.366, -0.122, 0, -170.942, -60.628, -23.901, -28.200, -11.800, 10.833, 29.52, -0.03772, -0.84998, 0.13931, -0.50656,
 15:47:11.887,f6:90:cc:01:6d:25, 2015-01-01 03:32:12.675, 0.86, -0.078, -0.479, 0.366, -0.061, 0, -170.936, -60.623, -23.901, -28.200, -11.800, 10.833, 29.52, -0.03772, -0.84998, 0.13931, -0.50656,
 15:47:11.904,e3:ca:2d:fd:e0:8c, 2015-01-01 03:32:14.185, 0.887, -0.109, -0.487, 0.244, -0.122, 0, -167.558, -60.826, -39.803, -24.800, -11.787, 4.033, 26.86, -0.08371, -0.82458, 0.24045, -0.5051,
 15:47:11.904,e3:ca:2d:fd:e0:8c, 2015-01-01 03:32:14.185, 0.887, -0.108, -0.483, 0.183, -0.122, 0, -167.558, -60.82, -39.792, -24.800, -11.787, 4.033, 26.86, -0.08371, -0.82458, 0.24045, -0.5051,
 15:47:11.905,ed:40:fe:65:30:6c, 2015-01-01 03:32:13.025, 1, -0.059, 0.022, -0.122, -0.854, -0.305, -66.725, -86.583, -71.411, -27.227, -13.613, 13.853, 25.17, 0.27448, -0.65787, -0.22961, -0.6626,
 15:47:11.905,ed:40:fe:65:30:6c, 2015-01-01 03:32:13.025, 1.001, -0.059, 0.027, -0.305, -1.099, -0.61, -66.989, -86.6, -71.153, -27.227, -13.613, 13.853, 25.17, 0.27448, -0.65787, -0.22961, -0.6626,
 15:47:11.907,ed:35:33:d3:6c:f8, 2015-01-01 03:32:13.250, 0.927, 0.072, 0.337, 0.183, -0.549, -0.488, 12.206, -69.252, 131.259, -21.633, -13.820, -17.393, 29.36, 0.28412, 0.54938, -0.15665, 0.76993,
 15:47:11.907,ed:35:33:d3:6c:f8, 2015-01-01 03:32:13.250, 0.925, 0.066, 0.343, 0, 0, -0.122, 12.206, -69.252, 131.21, -21.633, -13.820, -17.393, 29.36, 0.28412, 0.54938, -0.15665, 0.76993,
 15:47:11.930,f6:90:cc:01:6d:25, 2015-01-01 03:32:12.675, 0.86, -0.079, -0.477, 0.366, -0.183, 0, -170.931, -60.623, -23.895, -28.200, -11.800, 10.833, 29.52, -0.03772, -0.84998, 0.13931, -0.50656,
 15:47:11.930,f6:90:cc:01:6d:25, 2015-01-01 03:32:12.675, 0.86, -0.077, -0.476, 0.427, -0.244, -0.366, -170.931, -60.617, -23.89, -28.200, -11.800, 10.833, 29.52, -0.03772, -0.84998, 0.13931, -0.50656,
 15:47:11.949,e3:ca:2d:fd:e0:8c, 2015-01-01 03:32:14.185, 0.888, -0.109, -0.481, 0.244, -0.244, 0, -167.552, -60.815, -39.787, -24.800, -11.787, 4.033, 26.86, -0.08371, -0.82458, 0.24045, -0.5051,
 15:47:11.949,e3:ca:2d:fd:e0:8c, 2015-01-01 03:32:14.185, 0.888, -0.107, -0.483, 0.305, -0.305, 0, -167.547, -60.809, -39.776, -24.800, -11.787, 4.033, 26.86, -0.08371, -0.82458, 0.24045, -0.5051,
 15:47:11.952,f6:90:cc:01:6d:25, 2015-01-01 03:32:12.675, 0.859, -0.075, -0.478, 0.366, -0.305, -0.366, -170.936, -60.612, -23.873, -28.200, -11.800, 10.833, 29.52, -0.03772, -0.84998, 0.13931, -0.50656,
 15:47:11.952,f6:90:cc:01:6d:25, 2015-01-01 03:32:12.675, 0.86, -0.074, -0.477, 0.305, -0.366, -0.366, -170.942, -60.606, -23.851, -28.200, -11.800, 10.833, 29.52, -0.03772, -0.84998, 0.13931, -0.50656,
 15:47:11.974,ed:40:fe:65:30:6c, 2015-01-01 03:32:13.025, 1.001, -0.055, 0.025, -0.183, -1.587, -0.61, -67.341, -86.622, -70.812, -27.127, -13.647, 12.787, 25.17, 0.27448, -0.65787, -0.22961, -0.6626,
 15:47:11.974,ed:40:fe:65:30:6c, 2015-01-01 03:32:13.025, 1.001, -0.053, 0.021, 0, -1.343, -0.671, -67.72, -86.644, -70.439, -27.127, -13.647, 12.787, 25.17, 0.27448, -0.65787, -0.22961, -0.6626,
 15:47:11.974,ed:35:33:d3:6c:f8, 2015-01-01 03:32:13.250, 0.929, 0.071, 0.347, -0.061, 0.793, -0.122, 12.2, -69.241, 131.171, -21.540, -13.533, -18.680, 29.36, 0.28412, 0.54938, -0.15665, 0.76993,
 15:47:11.974,ed:35:33:d3:6c:f8, 2015-01-01 03:32:13.250, 0.931, 0.074, 0.344, 0.427, 1.099, 0, 12.189, -69.219, 131.16, -21.540, -13.533, -18.680, 29.36, 0.28412, 0.54938, -0.15665, 0.76993,
 15:47:11.993,e3:ca:2d:fd:e0:8c, 2015-01-01 03:32:14.185, 0.887, -0.105, -0.484, 0.427, -0.427, -0.305, -167.552, -60.798, -39.754, -24.800, -11.787, 4.033, 26.86, -0.08371, -0.82458, 0.24045, -0.5051,
 15:47:11.993,e3:ca:2d:fd:e0:8c, 2015-01-01 03:32:14.185, 0.887, -0.105, -0.483, 0.305, -0.549, -0.366, -167.563, -60.793, -39.732, -24.800, -11.787, 4.033, 26.86, -0.08371, -0.82458, 0.24045, -0.5051,
 15:47:11.994,ed:40:fe:65:30:6c, 2015-01-01 03:32:13.025, 1.002, -0.053, 0.02, -0.122, -0.732, -1.038, -67.939, -86.666, -70.219, -27.127, -13.647, 12.787, 25.17, 0.27292, -0.65976, -0.23175, -0.66061,
 15:47:11.995,ed:40:fe:65:30:6c, 2015-01-01 03:32:13.025, 1.001, -0.053, 0.022, 0, -0.244, -1.282, -67.945, -86.688, -70.219, -27.127, -13.647, 12.787, 25.17, 0.27292, -0.65976, -0.23175, -0.66061,
 15:47:11.997,f6:90:cc:01:6d:25, 2015-01-01 03:32:12.675, 0.86, -0.074, -0.479, 0.244, -0.427, -0.366, -170.953, -60.595, -23.835, -28.200, -11.800, 10.833, 29.52, -0.03772, -0.84998, 0.13931, -0.50656,
 15:47:11.997,f6:90:cc:01:6d:25, 2015-01-01 03:32:12.675, 0.86, -0.074, -0.479, 0.427, -0.427, -0.366, -170.964, -60.59, -23.813, -28.200, -11.800, 10.833, 29.52, -0.03772, -0.84998, 0.13931, -0.50656,
 15:47:11.997,ed:35:33:d3:6c:f8, 2015-01-01 03:32:13.250, 0.932, 0.072, 0.34, 1.282, 1.587, 0.305, 12.178, -69.192, 131.177, -21.540, -13.533, -18.680, 29.36, 0.28336, 0.5502, -0.15378, 0.7702,
 15:47:11.997,ed:35:33:d3:6c:f8, 2015-01-01 03:32:13.250, 0.928, 0.071, 0.342, 1.953, 2.38, 0.427, 12.167, -69.148, 131.221, -21.540, -13.533, -18.680, 29.36, 0.28336, 0.5502, -0.15378, 0.7702,
 15:47:12.061,e3:ca:2d:fd:e0:8c, 2015-01-01 03:32:14.185, 0.888, -0.105, -0.483, 0.305, -0.305, -0.366, -167.574, -60.787, -39.705, -24.800, -11.787, 4.033, 26.86, -0.08371, -0.82458, 0.24045, -0.5051,
 15:47:12.061,e3:ca:2d:fd:e0:8c, 2015-01-01 03:32:14.185, 0.888, -0.103, -0.485, 0.366, -0.183, -0.366, -167.58, -60.782, -39.683, -24.800, -11.787, 4.033, 26.86, -0.08371, -0.82458, 0.24045, -0.5051,
 15:47:12.085,ed:40:fe:65:30:6c, 2015-01-01 03:32:13.025, 1.001, -0.05, 0.023, 0.366, -0.305, -1.282, -67.857, -86.715, -70.307, -27.127, -13.647, 12.787, 25.17, 0.27292, -0.65976, -0.23175, -0.66061,
 15:47:12.085,ed:40:fe:65:30:6c, 2015-01-01 03:32:13.025, 1.001, -0.049, 0.026, 0.305, -0.854, -1.16, -67.863, -86.743, -70.296, -27.127, -13.647, 12.787, 25.17, 0.27292, -0.65976, -0.23175, -0.66061,
 15:47:12.086,ed:35:33:d3:6c:f8, 2015-01-01 03:32:13.250, 0.927, 0.073, 0.349, 2.38, 2.869, 0.122, 12.173, -69.099, 131.232, -21.540, -13.533, -18.680, 29.36, 0.28336, 0.5502, -0.15378, 0.7702,
 15:47:12.086,ed:35:33:d3:6c:f8, 2015-01-01 03:32:13.250, 0.924, 0.078, 0.354, 2.319, 3.662, 0.183, 12.167, -69.027, 131.265, -21.540, -13.533, -18.680, 29.36, 0.28336, 0.5502, -0.15378, 0.7702,
 15:47:12.089,f6:90:cc:01:6d:25, 2015-01-01 03:32:12.675, 0.86, -0.073, -0.48, 0.549, -0.549, -0.366, -170.975, -60.579, -23.796, -28.200, -11.800, 10.833, 29.52, -0.03772, -0.84998, 0.13931, -0.50656,
 15:47:12.089,f6:90:cc:01:6d:25, 2015-01-01 03:32:12.675, 0.859, -0.072, -0.478, 0.549, -0.671, -0.366, -170.98, -60.573, -23.774, -28.200, -11.800, 10.833, 29.52, -0.03772, -0.84998, 0.13931, -0.50656,
 15:47:12.110,f6:90:cc:01:6d:25, 2015-01-01 03:32:12.675, 0.859, -0.071, -0.478, 0.427, -0.671, -0.305, -170.986, -60.557, -23.758, -28.280, -12.120, 10.380, 29.52, -0.03772, -0.84998, 0.13931, -0.50656,
 15:47:12.110,f6:90:cc:01:6d:25, 2015-01-01 03:32:12.675, 0.859, -0.071, -0.477, 0.305, -0.549, -0.244, -170.997, -60.546, -23.741, -28.280, -12.120, 10.380, 29.52, -0.03772, -0.84998, 0.13931, -0.50656,
 15:47:12.129,e3:ca:2d:fd:e0:8c, 2015-01-01 03:32:14.185, 0.888, -0.103, -0.484, 0.244, -0.061, -0.427, -167.591, -60.787, -39.661, -24.800, -11.787, 4.033, 26.86, -0.08371, -0.82458, 0.24045, -0.5051,
 15:47:12.129,e3:ca:2d:fd:e0:8c, 2015-01-01 03:32:14.185, 0.887, -0.103, -0.483, 0.061, -0.122, -0.366, -167.607, -60.787, -39.639, -24.800, -11.787, 4.033, 26.86, -0.08371, -0.82458, 0.24045, -0.5051,
 15:47:12.129,ed:40:fe:65:30:6c, 2015-01-01 03:32:13.405, 1.001, -0.047, 0.023, 0.183, -1.404, -1.099, -68.06, -86.77, -70.104, -27.127, -13.647, 12.787, 25.17, 0.27292, -0.65976, -0.23175, -0.66061,
 15:47:12.129,ed:40:fe:65:30:6c, 2015-01-01 03:32:13.405, 1.001, -0.045, 0.02, 0.122, -1.282, -0.916, -68.335, -86.797, -69.818, -27.127, -13.647, 12.787, 25.17, 0.27292, -0.65976, -0.23175, -0.66061,
 15:47:12.131,ed:35:33:d3:6c:f8, 2015-01-01 03:32:13.605, 0.926, 0.077, 0.357, 1.465, 3.601, 0.366, 12.134, -68.961, 131.32, -21.540, -13.533, -18.680, 29.36, 0.28336, 0.5502, -0.15378, 0.7702,
 15:47:12.131,ed:35:33:d3:6c:f8, 2015-01-01 03:32:13.605, 0.926, 0.079, 0.352, 0.854, 3.235, -0.061, 12.123, -68.895, 131.358, -21.540, -13.533, -18.680, 29.36, 0.28336, 0.5502, -0.15378, 0.7702,
 15:47:12.151,e3:ca:2d:fd:e0:8c, 2015-01-01 03:32:14.185, 0.887, -0.104, -0.481, -0.183, -0.427, -0.183, -167.624, -60.782, -39.622, -24.793, -12.060, 4.333, 26.86, -0.08371, -0.82458, 0.24045, -0.5051,
 15:47:12.151,e3:ca:2d:fd:e0:8c, 2015-01-01 03:32:14.185, 0.886, -0.104, -0.482, -0.183, -0.183, -0.122, -167.64, -60.776, -39.606, -24.793, -12.060, 4.333, 26.86, -0.08371, -0.82458, 0.24045, -0.5051,
 15:47:12.153,ed:40:fe:65:30:6c, 2015-01-01 03:32:13.405, 1.002, -0.045, 0.018, 0.183, -0.793, -0.61, -68.549, -86.819, -69.593, -27.127, -13.647, 12.787, 25.17, 0.27292, -0.65976, -0.23175, -0.66061,
 15:47:12.153,ed:40:fe:65:30:6c, 2015-01-01 03:32:13.405, 1.002, -0.045, 0.018, 0.122, -0.61, -0.488, -68.681, -86.836, -69.45, -27.127, -13.647, 12.787, 25.17, 0.27292, -0.65976, -0.23175, -0.66061,
 15:47:12.153,ed:35:33:d3:6c:f8, 2015-01-01 03:32:13.605, 0.924, 0.083, 0.349, 0.488, 2.93, -0.244, 12.112, -68.84, 131.375, -21.540, -13.533, -18.680, 29.36, 0.28336, 0.5502, -0.15378, 0.7702,
 15:47:12.153,ed:35:33:d3:6c:f8, 2015-01-01 03:32:13.605, 0.925, 0.082, 0.348, 0.854, 2.502, 0.061, 12.107, -68.796, 131.402, -21.540, -13.533, -18.680, 29.36, 0.28336, 0.5502, -0.15378, 0.7702,
 15:47:12.155,f6:90:cc:01:6d:25, 2015-01-01 03:32:12.675, 0.858, -0.071, -0.479, 0.244, -0.366, -0.183, -171.002, -60.54, -23.725, -28.280, -12.120, 10.380, 29.52, -0.03772, -0.84998, 0.13931, -0.50656,
 15:47:12.155,f6:90:cc:01:6d:25, 2015-01-01 03:32:12.675, 0.858, -0.072, -0.48, 0.244, -0.244, -0.122, -171.008, -60.535, -23.719, -28.280, -12.120, 10.380, 29.52, -0.03772, -0.84998, 0.13931, -0.50656,
 15:47:12.174,e3:ca:2d:fd:e0:8c, 2015-01-01 03:32:14.185, 0.887, -0.104, -0.486, 0.061, -0.061, -0.061, -167.646, -60.771, -39.595, -24.793, -12.060, 4.333, 26.86, -0.08371, -0.82458, 0.24045, -0.5051,
 15:47:12.174,e3:ca:2d:fd:e0:8c, 2015-01-01 03:32:14.185, 0.887, -0.105, -0.488, 0.122, -0.122, -0.061, -167.651, -60.771, -39.584, -24.793, -12.060, 4.333, 26.86, -0.08371, -0.82458, 0.24045, -0.5051,
 15:47:12.176,ed:35:33:d3:6c:f8, 2015-01-01 03:32:13.605, 0.924, 0.081, 0.35, 1.038, 2.075, 0.244, 12.096, -68.758, 131.429, -21.540, -13.533, -18.680, 29.36, 0.28336, 0.5502, -0.15378, 0.7702,
 15:47:12.176,ed:35:33:d3:6c:f8, 2015-01-01 03:32:13.605, 0.927, 0.077, 0.35, 1.16, 1.953, 0.427, 12.085, -68.719, 131.462, -21.540, -13.533, -18.680, 29.36, 0.28336, 0.5502, -0.15378, 0.7702,
 15:47:12.176,ed:40:fe:65:30:6c, 2015-01-01 03:32:13.405, 1.003, -0.046, 0.017, 0.122, -0.732, -0.427, -68.824, -86.852, -69.307, -27.127, -13.647, 12.787, 25.17, 0.27292, -0.65976, -0.23175, -0.66061,
 15:47:12.176,ed:40:fe:65:30:6c, 2015-01-01 03:32:13.405, 1.004, -0.048, 0.017, 0.061, -0.793, -0.427, -69.005, -86.863, -69.12, -27.127, -13.647, 12.787, 25.17, 0.27292, -0.65976, -0.23175, -0.66061,
 15:47:12.178,f6:90:cc:01:6d:25, 2015-01-01 03:32:12.675, 0.859, -0.073, -0.482, 0.183, -0.244, -0.061, -171.013, -60.535, -23.708, -28.280, -12.120, 10.380, 29.52, -0.03772, -0.84998, 0.13931, -0.50656,
 15:47:12.178,f6:90:cc:01:6d:25, 2015-01-01 03:32:12.675, 0.859, -0.074, -0.483, 0.183, -0.244, 0, -171.019, -60.529, -23.708, -28.280, -12.120, 10.380, 29.52, -0.03772, -0.84998, 0.13931, -0.50656,
 15:47:12.197,ed:40:fe:65:30:6c, 2015-01-01 03:32:13.405, 1.004, -0.049, 0.016, 0, -0.793, -0.305, -69.214, -86.88, -68.906, -27.127, -13.647, 12.787, 25.17, 0.27292, -0.65976, -0.23175, -0.66061,
 15:47:12.197,ed:40:fe:65:30:6c, 2015-01-01 03:32:13.405, 1.003, -0.05, 0.015, -0.061, -0.854, -0.244, -69.456, -86.891, -68.665, -27.127, -13.647, 12.787, 25.17, 0.27292, -0.65976, -0.23175, -0.66061,
 15:47:12.198,ed:35:33:d3:6c:f8, 2015-01-01 03:32:13.605, 0.928, 0.076, 0.352, 0.671, 1.892, 0.122, 12.074, -68.687, 131.506, -21.540, -13.533, -18.680, 29.36, 0.28336, 0.5502, -0.15378, 0.7702,
 15:47:12.198,ed:35:33:d3:6c:f8, 2015-01-01 03:32:13.605, 0.927, 0.077, 0.355, 0.488, 1.587, 0, 12.074, -68.659, 131.545, -21.540, -13.533, -18.680, 29.36, 0.28336, 0.5502, -0.15378, 0.7702,
 15:47:12.200,f6:90:cc:01:6d:25, 2015-01-01 03:32:12.675, 0.859, -0.075, -0.485, 0.122, -0.305, 0, -171.019, -60.524, -23.703, -28.280, -12.120, 10.380, 29.52, -0.03702, -0.85077, 0.13824, -0.50558,
 15:47:12.201,f6:90:cc:01:6d:25, 2015-01-01 03:32:12.675, 0.858, -0.074, -0.485, 0.061, -0.366, -0.061, -171.024, -60.513, -23.698, -28.280, -12.120, 10.380, 29.52, -0.03702, -0.85077, 0.13824, -0.50558,
 15:47:12.220,e3:ca:2d:fd:e0:8c, 2015-01-01 03:32:14.185, 0.887, -0.105, -0.49, 0.061, -0.305, 0, -167.657, -60.771, -39.578, -24.793, -12.060, 4.333, 26.86, -0.08371, -0.82458, 0.24045, -0.5051,
 15:47:12.220,e3:ca:2d:fd:e0:8c, 2015-01-01 03:32:14.185, 0.887, -0.105, -0.49, 0, -0.366, -0.061, -167.657, -60.765, -39.567, -24.793, -12.060, 4.333, 26.86, -0.08371, -0.82458, 0.24045, -0.5051,
 15:47:12.221,ed:35:33:d3:6c:f8, 2015-01-01 03:32:13.605, 0.93, 0.075, 0.354, 0.977, 0.854, 0.122, 12.085, -68.643, 131.616, -21.540, -13.533, -18.680, 29.36, 0.28336, 0.5502, -0.15378, 0.7702,
 15:47:12.221,ed:35:33:d3:6c:f8, 2015-01-01 03:32:13.605, 0.93, 0.07, 0.355, 1.526, 0.061, 0.183, 12.107, -68.643, 131.704, -21.540, -13.533, -18.680, 29.36, 0.28336, 0.5502, -0.15378, 0.7702,
 15:47:12.241,e3:ca:2d:fd:e0:8c, 2015-01-01 03:32:14.185, 0.886, -0.105, -0.49, 0, -0.366, -0.061, -167.668, -60.754, -39.556, -24.793, -12.060, 4.333, 26.86, -0.08298, -0.82538, 0.23917, -0.50452,
 15:47:12.241,e3:ca:2d:fd:e0:8c, 2015-01-01 03:32:14.185, 0.887, -0.106, -0.49, 0.122, -0.244, -0.061, -167.673, -60.749, -39.545, -24.793, -12.060, 4.333, 26.86, -0.08298, -0.82538, 0.23917, -0.50452,
 15:47:12.242,ed:40:fe:65:30:6c, 2015-01-01 03:32:13.405, 1.004, -0.051, 0.015, -0.305, -0.977, -0.427, -69.73, -86.907, -68.384, -27.127, -13.647, 12.787, 25.17, 0.27292, -0.65976, -0.23175, -0.66061,
 15:47:12.242,ed:40:fe:65:30:6c, 2015-01-01 03:32:13.405, 1.004, -0.051, 0.014, -0.549, -1.221, -0.61, -70.06, -86.924, -68.044, -27.127, -13.647, 12.787, 25.17, 0.27292, -0.65976, -0.23175, -0.66061,
 15:47:12.246,f6:90:cc:01:6d:25, 2015-01-01 03:32:12.675, 0.859, -0.075, -0.485, 0.061, -0.366, -0.061, -171.03, -60.507, -23.692, -28.280, -12.120, 10.380, 29.52, -0.03702, -0.85077, 0.13824, -0.50558,
 15:47:12.246,f6:90:cc:01:6d:25, 2015-01-01 03:32:12.675, 0.858, -0.076, -0.486, 0.122, -0.244, -0.122, -171.035, -60.502, -23.687, -28.280, -12.120, 10.380, 29.52, -0.03702, -0.85077, 0.13824, -0.50558,
 15:47:12.287,ed:40:fe:65:30:6c, 2015-01-01 03:32:13.405, 1.004, -0.05, 0.012, -0.793, -1.343, -0.732, -70.45, -86.946, -67.654, -27.127, -13.647, 12.787, 25.17, 0.27292, -0.65976, -0.23175, -0.66061,
 15:47:12.287,ed:40:fe:65:30:6c, 2015-01-01 03:32:13.405, 1.002, -0.048, 0.011, -0.793, -1.282, -0.854, -70.851, -86.973, -67.253, -27.127, -13.647, 12.787, 25.17, 0.27292, -0.65976, -0.23175, -0.66061,
 15:47:12.287,e3:ca:2d:fd:e0:8c, 2015-01-01 03:32:14.185, 0.887, -0.105, -0.49, 0.183, -0.183, -0.122, -167.673, -60.743, -39.54, -24.793, -12.060, 4.333, 26.86, -0.08298, -0.82538, 0.23917, -0.50452,
 15:47:12.287,e3:ca:2d:fd:e0:8c, 2015-01-01 03:32:14.185, 0.886, -0.105, -0.488, 0.183, 0, -0.183, -167.679, -60.738, -39.523, -24.793, -12.060, 4.333, 26.86, -0.08298, -0.82538, 0.23917, -0.50452,
 15:47:12.289,ed:35:33:d3:6c:f8, 2015-01-01 03:32:13.605, 0.929, 0.071, 0.353, 1.77, -1.038, -0.183, 12.162, -68.665, 131.737, -21.540, -13.533, -18.680, 29.36, 0.28336, 0.5502, -0.15378, 0.7702,
 15:47:12.289,ed:35:33:d3:6c:f8, 2015-01-01 03:32:13.605, 0.929, 0.075, 0.349, 1.099, -0.977, -0.671, 12.222, -68.681, 131.721, -21.540, -13.533, -18.680, 29.36, 0.28336, 0.5502, -0.15378, 0.7702,
 15:47:12.290,f6:90:cc:01:6d:25, 2015-01-01 03:32:13.055, 0.858, -0.075, -0.485, 0.183, -0.244, -0.122, -171.041, -60.491, -23.676, -28.280, -12.120, 10.380, 29.52, -0.03702, -0.85077, 0.13824, -0.50558,
 15:47:12.290,f6:90:cc:01:6d:25, 2015-01-01 03:32:13.055, 0.858, -0.074, -0.483, 0.244, -0.183, -0.122, -171.046, -60.485, -23.67, -28.280, -12.120, 10.380, 29.52, -0.03702, -0.85077, 0.13824, -0.50558,
 15:47:12.309,e3:ca:2d:fd:e0:8c, 2015-01-01 03:32:14.590, 0.887, -0.105, -0.485, 0.061, 0, -0.122, -167.684, -60.738, -39.512, -24.793, -12.060, 4.333, 26.86, -0.08298, -0.82538, 0.23917, -0.50452,
 15:47:12.309,e3:ca:2d:fd:e0:8c, 2015-01-01 03:32:14.590, 0.888, -0.106, -0.482, 0, -0.122, -0.122, -167.69, -60.738, -39.501, -24.793, -12.060, 4.333, 26.86, -0.08298, -0.82538, 0.23917, -0.50452,
 15:47:12.309,ed:40:fe:65:30:6c, 2015-01-01 03:32:13.405, 1, -0.048, 0.014, -0.366, -0.671, -0.732, -71.136, -86.995, -66.978, -27.173, -13.553, 12.940, 25.17, 0.27292, -0.65976, -0.23175, -0.66061,
 15:47:12.309,ed:40:fe:65:30:6c, 2015-01-01 03:32:13.405, 1, -0.049, 0.019, 0, -0.61, -0.854, -71.29, -87.012, -66.824, -27.173, -13.553, 12.940, 25.17, 0.27292, -0.65976, -0.23175, -0.66061,
 15:47:12.311,ed:35:33:d3:6c:f8, 2015-01-01 03:32:13.605, 0.922, 0.081, 0.347, 0.183, -0.916, -0.793, 12.277, -68.698, 131.682, -21.887, -13.887, -17.387, 29.36, 0.28336, 0.5502, -0.15378, 0.7702,
 15:47:12.311,ed:35:33:d3:6c:f8, 2015-01-01 03:32:13.605, 0.922, 0.078, 0.352, 0.793, -0.244, 0, 12.294, -68.708, 131.682, -21.887, -13.887, -17.387, 29.36, 0.28336, 0.5502, -0.15378, 0.7702,
 15:47:12.312,f6:90:cc:01:6d:25, 2015-01-01 03:32:13.055, 0.858, -0.075, -0.479, 0.244, -0.244, -0.122, -171.046, -60.48, -23.665, -28.280, -12.120, 10.380, 29.52, -0.03702, -0.85077, 0.13824, -0.50558,
 15:47:12.312,f6:90:cc:01:6d:25, 2015-01-01 03:32:13.055, 0.859, -0.075, -0.478, 0.305, -0.183, -0.122, -171.052, -60.474, -23.654, -28.280, -12.120, 10.380, 29.52, -0.03702, -0.85077, 0.13824, -0.50558,
 15:47:12.353,e3:ca:2d:fd:e0:8c, 2015-01-01 03:32:14.590, 0.887, -0.105, -0.481, 0.122, -0.122, -0.122, -167.695, -60.738, -39.49, -24.793, -12.060, 4.333, 26.86, -0.08298, -0.82538, 0.23917, -0.50452,
 15:47:12.353,e3:ca:2d:fd:e0:8c, 2015-01-01 03:32:14.590, 0.887, -0.104, -0.482, 0.244, -0.183, -0.122, -167.695, -60.732, -39.485, -24.793, -12.060, 4.333, 26.86, -0.08298, -0.82538, 0.23917, -0.50452,
 15:47:12.355,ed:40:fe:65:30:6c, 2015-01-01 03:32:13.405, 1, -0.048, 0.019, 0, -0.793, -0.854, -71.45, -87.034, -66.665, -27.173, -13.553, 12.940, 25.17, 0.27292, -0.65976, -0.23175, -0.66061,
 15:47:12.355,ed:40:fe:65:30:6c, 2015-01-01 03:32:13.405, 1, -0.047, 0.02, -0.061, -0.61, -0.793, -71.592, -87.056, -66.533, -27.173, -13.553, 12.940, 25.17, 0.27292, -0.65976, -0.23175, -0.66061,
 15:47:12.356,f6:90:cc:01:6d:25, 2015-01-01 03:32:13.055, 0.859, -0.075, -0.477, 0.305, -0.244, -0.183, -171.052, -60.474, -23.648, -28.280, -12.120, 10.380, 29.52, -0.03702, -0.85077, 0.13824, -0.50558,
 15:47:12.356,f6:90:cc:01:6d:25, 2015-01-01 03:32:13.055, 0.859, -0.073, -0.477, 0.244, -0.305, -0.183, -171.057, -60.469, -23.637, -28.280, -12.120, 10.380, 29.52, -0.03702, -0.85077, 0.13824, -0.50558,
 15:47:12.356,ed:35:33:d3:6c:f8, 2015-01-01 03:32:13.605, 0.923, 0.075, 0.354, 1.282, 0.366, 0.366, 12.294, -68.703, 131.704, -21.887, -13.887, -17.387, 29.36, 0.28336, 0.5502, -0.15378, 0.7702,
 15:47:12.356,ed:35:33:d3:6c:f8, 2015-01-01 03:32:13.605, 0.922, 0.075, 0.355, 1.343, 0.732, 0.183, 12.305, -68.687, 131.732, -21.887, -13.887, -17.387, 29.36, 0.28336, 0.5502, -0.15378, 0.7702,
 15:47:12.399,e3:ca:2d:fd:e0:8c, 2015-01-01 03:32:14.590, 0.888, -0.103, -0.482, 0.122, -0.244, -0.183, -167.701, -60.732, -39.468, -24.793, -12.060, 4.333, 26.86, -0.08298, -0.82538, 0.23917, -0.50452,
 15:47:12.399,e3:ca:2d:fd:e0:8c, 2015-01-01 03:32:14.590, 0.888, -0.104, -0.484, -0.061, -0.244, -0.183, -167.706, -60.727, -39.457, -24.793, -12.060, 4.333, 26.86, -0.08298, -0.82538, 0.23917, -0.50452,
 15:47:12.402,f6:90:cc:01:6d:25, 2015-01-01 03:32:13.055, 0.858, -0.073, -0.479, 0.122, -0.366, -0.122, -171.063, -60.463, -23.626, -28.280, -12.120, 10.380, 29.52, -0.03702, -0.85077, 0.13824, -0.50558,
 15:47:12.402,f6:90:cc:01:6d:25, 2015-01-01 03:32:13.055, 0.858, -0.073, -0.481, 0.061, -0.366, -0.122, -171.068, -60.452, -23.615, -28.280, -12.120, 10.380, 29.52, -0.03702, -0.85077, 0.13824, -0.50558,
 15:47:12.422,ed:40:fe:65:30:6c, 2015-01-01 03:32:13.405, 1.002, -0.044, 0.018, -0.183, -0.732, -0.732, -71.752, -87.072, -66.379, -27.173, -13.553, 12.940, 25.17, 0.27075, -0.66095, -0.23441, -0.65936,
 15:47:12.422,ed:40:fe:65:30:6c, 2015-01-01 03:32:13.405, 1.003, -0.044, 0.015, -0.305, -0.549, -0.732, -71.867, -87.089, -66.275, -27.173, -13.553, 12.940, 25.17, 0.27075, -0.66095, -0.23441, -0.65936,
 15:47:12.424,ed:35:33:d3:6c:f8, 2015-01-01 03:32:13.605, 0.925, 0.077, 0.356, 1.404, 0.977, -0.122, 12.327, -68.67, 131.737, -21.887, -13.887, -17.387, 29.36, 0.28046, 0.54807, -0.14862, 0.7738,
 15:47:12.424,ed:35:33:d3:6c:f8, 2015-01-01 03:32:13.605, 0.926, 0.079, 0.355, 0.916, 1.16, -0.244, 12.343, -68.643, 131.737, -21.887, -13.887, -17.387, 29.36, 0.28046, 0.54807, -0.14862, 0.7738,
 15:47:12.444,e3:ca:2d:fd:e0:8c, 2015-01-01 03:32:14.590, 0.887, -0.104, -0.485, -0.183, -0.244, -0.183, -167.717, -60.727, -39.441, -24.793, -12.060, 4.333, 26.86, -0.08298, -0.82538, 0.23917, -0.50452,
 15:47:12.444,e3:ca:2d:fd:e0:8c, 2015-01-01 03:32:14.590, 0.887, -0.104, -0.486, -0.183, -0.183, -0.122, -167.728, -60.721, -39.43, -24.793, -12.060, 4.333, 26.86, -0.08298, -0.82538, 0.23917, -0.50452,
 15:47:12.444,ed:40:fe:65:30:6c, 2015-01-01 03:32:13.765, 1.003, -0.045, 0.012, -0.305, -0.183, -0.549, -71.889, -87.105, -66.259, -27.173, -13.553, 12.940, 25.17, 0.27075, -0.66095, -0.23441, -0.65936,
 15:47:12.444,ed:40:fe:65:30:6c, 2015-01-01 03:32:13.765, 1.003, -0.045, 0.01, -0.244, 0.183, -0.366, -71.807, -87.111, -66.346, -27.173, -13.553, 12.940, 25.17, 0.27075, -0.66095, -0.23441, -0.65936,
 15:47:12.446,ed:35:33:d3:6c:f8, 2015-01-01 03:32:13.965, 0.928, 0.081, 0.354, 0.366, 1.038, -0.427, 12.36, -68.621, 131.743, -21.887, -13.887, -17.387, 29.36, 0.28046, 0.54807, -0.14862, 0.7738,
 15:47:12.446,ed:35:33:d3:6c:f8, 2015-01-01 03:32:13.965, 0.927, 0.081, 0.351, -0.061, 1.16, -0.488, 12.371, -68.599, 131.754, -21.887, -13.887, -17.387, 29.36, 0.28046, 0.54807, -0.14862, 0.7738,
 15:47:12.447,f6:90:cc:01:6d:25, 2015-01-01 03:32:13.055, 0.857, -0.074, -0.483, 0, -0.183, -0.061, -171.074, -60.452, -23.61, -28.280, -12.120, 10.380, 29.52, -0.03702, -0.85077, 0.13824, -0.50558,
 15:47:12.447,f6:90:cc:01:6d:25, 2015-01-01 03:32:13.055, 0.858, -0.074, -0.484, 0, -0.061, -0.061, -171.079, -60.447, -23.604, -28.280, -12.120, 10.380, 29.52, -0.03702, -0.85077, 0.13824, -0.50558,
 15:47:12.467,ed:40:fe:65:30:6c, 2015-01-01 03:32:13.765, 1.003, -0.046, 0.012, -0.122, 0.244, -0.244, -71.697, -87.116, -66.462, -27.173, -13.553, 12.940, 25.17, 0.27075, -0.66095, -0.23441, -0.65936,
 15:47:12.467,ed:40:fe:65:30:6c, 2015-01-01 03:32:13.765, 1.003, -0.047, 0.012, 0, 0.122, -0.305, -71.62, -87.122, -66.55, -27.173, -13.553, 12.940, 25.17, 0.27075, -0.66095, -0.23441, -0.65936,
 15:47:12.469,ed:35:33:d3:6c:f8, 2015-01-01 03:32:13.965, 0.926, 0.08, 0.354, -0.366, 1.404, -0.244, 12.365, -68.571, 131.792, -21.887, -13.887, -17.387, 29.36, 0.28046, 0.54807, -0.14862, 0.7738,
 15:47:12.469,ed:35:33:d3:6c:f8, 2015-01-01 03:32:13.965, 0.926, 0.077, 0.355, -0.244, 1.343, -0.122, 12.349, -68.544, 131.825, -21.887, -13.887, -17.387, 29.36, 0.28046, 0.54807, -0.14862, 0.7738,
 15:47:12.488,e3:ca:2d:fd:e0:8c, 2015-01-01 03:32:14.590, 0.887, -0.106, -0.488, -0.183, -0.061, -0.122, -167.739, -60.721, -39.419, -24.793, -12.060, 4.333, 26.86, -0.08298, -0.82538, 0.23917, -0.50452,
 15:47:12.488,e3:ca:2d:fd:e0:8c, 2015-01-01 03:32:14.590, 0.887, -0.106, -0.49, -0.244, 0, -0.122, -167.75, -60.721, -39.408, -24.793, -12.060, 4.333, 26.86, -0.08298, -0.82538, 0.23917, -0.50452,
 15:47:12.493,f6:90:cc:01:6d:25, 2015-01-01 03:32:13.055, 0.858, -0.075, -0.485, 0, 0, -0.061, -171.085, -60.447, -23.604, -27.993, -11.740, 10.333, 29.52, -0.03702, -0.85077, 0.13824, -0.50558,
 15:47:12.493,f6:90:cc:01:6d:25, 2015-01-01 03:32:13.055, 0.858, -0.075, -0.484, -0.061, -0.061, -0.122, -171.09, -60.447, -23.599, -27.993, -11.740, 10.333, 29.52, -0.03702, -0.85077, 0.13824, -0.50558,
 15:47:12.511,e3:ca:2d:fd:e0:8c, 2015-01-01 03:32:14.590, 0.887, -0.105, -0.489, -0.061, -0.061, -0.122, -167.761, -60.721, -39.397, -24.613, -11.913, 4.540, 26.86, -0.08298, -0.82538, 0.23917, -0.50452,
 15:47:12.511,e3:ca:2d:fd:e0:8c, 2015-01-01 03:32:14.590, 0.886, -0.105, -0.488, 0.061, -0.061, -0.183, -167.767, -60.721, -39.391, -24.613, -11.913, 4.540, 26.86, -0.08298, -0.82538, 0.23917, -0.50452,
 15:47:12.513,ed:35:33:d3:6c:f8, 2015-01-01 03:32:13.965, 0.924, 0.077, 0.356, -0.061, 1.221, -0.244, 12.349, -68.522, 131.858, -21.887, -13.887, -17.387, 29.36, 0.28046, 0.54807, -0.14862, 0.7738,
 15:47:12.513,ed:35:33:d3:6c:f8, 2015-01-01 03:32:13.965, 0.923, 0.075, 0.357, 0.061, 0.916, -0.305, 12.354, -68.505, 131.863, -21.887, -13.887, -17.387, 29.36, 0.28046, 0.54807, -0.14862, 0.7738,
 15:47:12.513,ed:40:fe:65:30:6c, 2015-01-01 03:32:13.765, 1.003, -0.047, 0.013, 0, 0.183, -0.305, -71.537, -87.127, -66.649, -27.173, -13.553, 12.940, 25.17, 0.27075, -0.66095, -0.23441, -0.65936,
 15:47:12.513,ed:40:fe:65:30:6c, 2015-01-01 03:32:13.765, 1.003, -0.047, 0.013, -0.183, 0, -0.305, -71.51, -87.133, -66.687, -27.173, -13.553, 12.940, 25.17, 0.27075, -0.66095, -0.23441, -0.65936,
 15:47:12.515,f6:90:cc:01:6d:25, 2015-01-01 03:32:13.055, 0.857, -0.075, -0.485, 0, -0.122, -0.122, -171.096, -60.441, -23.588, -27.993, -11.740, 10.333, 29.52, -0.03696, -0.85123, 0.13785, -0.50491,
 15:47:12.515,f6:90:cc:01:6d:25, 2015-01-01 03:32:13.055, 0.857, -0.075, -0.485, 0.061, -0.061, -0.183, -171.101, -60.441, -23.582, -27.993, -11.740, 10.333, 29.52, -0.03696, -0.85123, 0.13785, -0.50491,
 15:47:12.556,e3:ca:2d:fd:e0:8c, 2015-01-01 03:32:14.590, 0.886, -0.104, -0.488, 0.122, 0, -0.183, -167.772, -60.721, -39.375, -24.613, -11.913, 4.540, 26.86, -0.08298, -0.82538, 0.23917, -0.50452,
 15:47:12.556,e3:ca:2d:fd:e0:8c, 2015-01-01 03:32:14.590, 0.887, -0.104, -0.487, -0.122, 0, -0.183, -167.778, -60.721, -39.364, -24.613, -11.913, 4.540, 26.86, -0.08298, -0.82538, 0.23917, -0.50452,
 15:47:12.557,ed:40:fe:65:30:6c, 2015-01-01 03:32:13.765, 1.003, -0.046, 0.013, -0.244, -0.305, -0.366, -71.581, -87.144, -66.616, -27.173, -13.553, 12.940, 25.17, 0.27075, -0.66095, -0.23441, -0.65936,
 15:47:12.557,ed:40:fe:65:30:6c, 2015-01-01 03:32:13.765, 1.003, -0.044, 0.011, -0.305, -0.305, -0.427, -71.675, -87.155, -66.517, -27.173, -13.553, 12.940, 25.17, 0.27075, -0.66095, -0.23441, -0.65936,
 15:47:12.559,ed:35:33:d3:6c:f8, 2015-01-01 03:32:13.965, 0.927, 0.075, 0.356, 0, 0.61, -0.549, 12.376, -68.489, 131.869, -21.887, -13.887, -17.387, 29.36, 0.28046, 0.54807, -0.14862, 0.7738,
 15:47:12.559,ed:35:33:d3:6c:f8, 2015-01-01 03:32:13.965, 0.925, 0.077, 0.356, -0.122, 0.61, -0.977, 12.415, -68.472, 131.847, -21.887, -13.887, -17.387, 29.36, 0.28046, 0.54807, -0.14862, 0.7738,
 15:47:12.560,f6:90:cc:01:6d:25, 2015-01-01 03:32:13.055, 0.857, -0.074, -0.485, 0.122, 0, -0.122, -171.107, -60.441, -23.577, -27.993, -11.740, 10.333, 29.52, -0.03696, -0.85123, 0.13785, -0.50491,
 15:47:12.560,f6:90:cc:01:6d:25, 2015-01-01 03:32:13.055, 0.858, -0.072, -0.483, 0.061, 0, -0.122, -171.112, -60.441, -23.571, -27.993, -11.740, 10.333, 29.52, -0.03696, -0.85123, 0.13785, -0.50491,
 15:47:12.603,ed:35:33:d3:6c:f8, 2015-01-01 03:32:13.965, 0.929, 0.078, 0.352, -0.183, 0.366, -1.221, 12.464, -68.461, 131.797, -21.887, -13.887, -17.387, 29.36, 0.28046, 0.54807, -0.14862, 0.7738,
 15:47:12.603,ed:35:33:d3:6c:f8, 2015-01-01 03:32:13.965, 0.922, 0.079, 0.352, -0.244, 0.61, -1.16, 12.508, -68.45, 131.748, -21.887, -13.887, -17.387, 29.36, 0.28046, 0.54807, -0.14862, 0.7738,
 15:47:12.605,f6:90:cc:01:6d:25, 2015-01-01 03:32:13.370, 0.858, -0.073, -0.483, -0.061, 0.061, 0, -171.118, -60.436, -23.566, -27.993, -11.740, 10.333, 29.52, -0.03696, -0.85123, 0.13785, -0.50491,
 15:47:12.605,f6:90:cc:01:6d:25, 2015-01-01 03:32:13.370, 0.858, -0.073, -0.482, -0.122, 0.122, 0, -171.118, -60.441, -23.566, -27.993, -11.740, 10.333, 29.52, -0.03696, -0.85123, 0.13785, -0.50491,
 15:47:12.624,e3:ca:2d:fd:e0:8c, 2015-01-01 03:32:14.590, 0.886, -0.104, -0.486, -0.183, 0, -0.122, -167.789, -60.721, -39.353, -24.613, -11.913, 4.540, 26.86, -0.08279, -0.8259, 0.23831, -0.50412,
 15:47:12.624,e3:ca:2d:fd:e0:8c, 2015-01-01 03:32:14.590, 0.886, -0.104, -0.486, -0.244, 0.122, 0, -167.794, -60.721, -39.348, -24.613, -11.913, 4.540, 26.86, -0.08279, -0.8259, 0.23831, -0.50412,
 15:47:12.625,ed:40:fe:65:30:6c, 2015-01-01 03:32:13.765, 1.002, -0.043, 0.011, -0.427, -0.122, -0.488, -71.713, -87.166, -66.467, -27.173, -13.553, 12.940, 25.17, 0.27075, -0.66095, -0.23441, -0.65936,
 15:47:12.625,ed:40:fe:65:30:6c, 2015-01-01 03:32:13.765, 1.002, -0.043, 0.013, -0.61, 0.366, -0.61, -71.587, -87.177, -66.594, -27.173, -13.553, 12.940, 25.17, 0.27075, -0.66095, -0.23441, -0.65936,
 15:47:12.646,e3:ca:2d:fd:e0:8c, 2015-01-01 03:32:14.925, 0.887, -0.104, -0.488, -0.183, 0.122, 0, -167.8, -60.721, -39.348, -24.613, -11.913, 4.540, 26.86, -0.08279, -0.8259, 0.23831, -0.50412,
 15:47:12.646,e3:ca:2d:fd:e0:8c, 2015-01-01 03:32:14.925, 0.888, -0.104, -0.486, 0, 0.061, 0, -167.8, -60.721, -39.342, -24.613, -11.913, 4.540, 26.86, -0.08279, -0.8259, 0.23831, -0.50412,
 15:47:12.647,ed:40:fe:65:30:6c, 2015-01-01 03:32:13.765, 1.003, -0.043, 0.014, -0.427, 0.488, -0.61, -71.367, -87.188, -66.813, -27.173, -14.187, 13.367, 25.17, 0.27075, -0.66095, -0.23441, -0.65936,
 15:47:12.647,ed:40:fe:65:30:6c, 2015-01-01 03:32:13.765, 1.001, -0.044, 0.015, -0.122, 0.61, -0.488, -71.109, -87.193, -67.083, -27.173, -14.187, 13.367, 25.17, 0.27075, -0.66095, -0.23441, -0.65936,
 15:47:12.648,ed:35:33:d3:6c:f8, 2015-01-01 03:32:13.965, 0.927, 0.081, 0.357, 0.122, 0.61, -1.404, 12.574, -68.434, 131.677, -21.887, -13.887, -17.387, 29.36, 0.28046, 0.54807, -0.14862, 0.7738,
 15:47:12.648,ed:35:33:d3:6c:f8, 2015-01-01 03:32:13.965, 0.925, 0.084, 0.357, 0.366, 1.221, -1.038, 12.618, -68.406, 131.633, -21.887, -13.887, -17.387, 29.36, 0.28046, 0.54807, -0.14862, 0.7738,
 15:47:12.650,f6:90:cc:01:6d:25, 2015-01-01 03:32:13.370, 0.858, -0.074, -0.483, -0.122, 0, 0, -171.123, -60.436, -23.566, -27.993, -11.740, 10.333, 29.52, -0.03696, -0.85123, 0.13785, -0.50491,
 15:47:12.650,f6:90:cc:01:6d:25, 2015-01-01 03:32:13.370, 0.858, -0.074, -0.481, 0, 0, 0, -171.129, -60.436, -23.566, -27.993, -11.740, 10.333, 29.52, -0.03696, -0.85123, 0.13785, -0.50491,
 15:47:12.669,e3:ca:2d:fd:e0:8c, 2015-01-01 03:32:14.925, 0.887, -0.104, -0.485, 0, 0.061, 0, -167.8, -60.721, -39.337, -24.613, -11.913, 4.540, 26.86, -0.08279, -0.8259, 0.23831, -0.50412,
 15:47:12.669,e3:ca:2d:fd:e0:8c, 2015-01-01 03:32:14.925, 0.887, -0.103, -0.485, 0, -0.122, 0, -167.805, -60.721, -39.337, -24.613, -11.913, 4.540, 26.86, -0.08279, -0.8259, 0.23831, -0.50412,
 15:47:12.671,ed:35:33:d3:6c:f8, 2015-01-01 03:32:13.965, 0.92, 0.08, 0.364, 0.061, 0.854, -0.61, 12.64, -68.384, 131.611, -21.460, -14.253, -17.987, 29.36, 0.28046, 0.54807, -0.14862, 0.7738,
 15:47:12.671,ed:35:33:d3:6c:f8, 2015-01-01 03:32:13.965, 0.92, 0.076, 0.364, -0.122, 0.244, -1.465, 12.7, -68.373, 131.545, -21.460, -14.253, -17.987, 29.36, 0.28046, 0.54807, -0.14862, 0.7738,
 15:47:12.693,ed:40:fe:65:30:6c, 2015-01-01 03:32:13.765, 1.001, -0.045, 0.018, -0.061, 0.671, -0.427, -70.818, -87.198, -67.368, -27.173, -14.187, 13.367, 25.17, 0.27075, -0.66095, -0.23441, -0.65936,
 15:47:12.693,ed:40:fe:65:30:6c, 2015-01-01 03:32:13.765, 1, -0.044, 0.019, 0, 0.488, -0.427, -70.565, -87.204, -67.626, -27.173, -14.187, 13.367, 25.17, 0.27075, -0.66095, -0.23441, -0.65936,
 15:47:12.696,f6:90:cc:01:6d:25, 2015-01-01 03:32:13.370, 0.858, -0.075, -0.48, -0.061, -0.122, 0, -171.129, -60.436, -23.56, -27.993, -11.740, 10.333, 29.52, -0.03696, -0.85123, 0.13785, -0.50491,
 15:47:12.696,f6:90:cc:01:6d:25, 2015-01-01 03:32:13.370, 0.857, -0.073, -0.48, -0.122, -0.244, 0, -171.134, -60.43, -23.56, -27.993, -11.740, 10.333, 29.52, -0.03696, -0.85123, 0.13785, -0.50491,
 15:47:12.714,e3:ca:2d:fd:e0:8c, 2015-01-01 03:32:14.925, 0.887, -0.103, -0.484, -0.122, -0.305, 0, -167.805, -60.721, -39.331, -24.613, -11.913, 4.540, 26.86, -0.08279, -0.8259, 0.23831, -0.50412,
 15:47:12.714,e3:ca:2d:fd:e0:8c, 2015-01-01 03:32:14.925, 0.886, -0.103, -0.484, -0.122, -0.183, 0, -167.811, -60.716, -39.326, -24.613, -11.913, 4.540, 26.86, -0.08279, -0.8259, 0.23831, -0.50412,
 15:47:12.715,ed:40:fe:65:30:6c, 2015-01-01 03:32:13.765, 1, -0.042, 0.018, -0.061, 0.244, -0.488, -70.389, -87.215, -67.808, -27.173, -14.187, 13.367, 25.17, 0.26935, -0.66077, -0.23495, -0.65994,
 15:47:12.715,ed:40:fe:65:30:6c, 2015-01-01 03:32:13.765, 1.002, -0.043, 0.017, -0.305, -0.061, -0.732, -70.296, -87.226, -67.917, -27.173, -14.187, 13.367, 25.17, 0.26935, -0.66077, -0.23495, -0.65994,
 15:47:12.717,f6:90:cc:01:6d:25, 2015-01-01 03:32:13.370, 0.857, -0.073, -0.48, -0.183, -0.305, 0, -171.14, -60.425, -23.555, -27.993, -11.740, 10.333, 29.52, -0.03696, -0.85123, 0.13785, -0.50491,
 15:47:12.717,f6:90:cc:01:6d:25, 2015-01-01 03:32:13.370, 0.857, -0.073, -0.481, -0.061, -0.305, 0, -171.145, -60.414, -23.555, -27.993, -11.740, 10.333, 29.52, -0.03696, -0.85123, 0.13785, -0.50491,
 15:47:12.739,ed:35:33:d3:6c:f8, 2015-01-01 03:32:13.965, 0.918, 0.081, 0.362, -0.305, 0.122, -2.136, 12.799, -68.362, 131.435, -21.460, -14.253, -17.987, 29.36, 0.28046, 0.54807, -0.14862, 0.7738,
 15:47:12.739,ed:35:33:d3:6c:f8, 2015-01-01 03:32:13.965, 0.922, 0.082, 0.361, 0.061, 0, -1.953, 12.887, -68.351, 131.353, -21.460, -14.253, -17.987, 29.36, 0.28046, 0.54807, -0.14862, 0.7738,
 15:47:12.759,e3:ca:2d:fd:e0:8c, 2015-01-01 03:32:14.925, 0.886, -0.104, -0.486, 0, -0.183, 0, -167.816, -60.71, -39.32, -24.613, -11.913, 4.540, 26.86, -0.08279, -0.8259, 0.23831, -0.50412,
 15:47:12.759,e3:ca:2d:fd:e0:8c, 2015-01-01 03:32:14.925, 0.887, -0.104, -0.487, 0.061, -0.183, 0, -167.816, -60.71, -39.315, -24.613, -11.913, 4.540, 26.86, -0.08279, -0.8259, 0.23831, -0.50412,
 15:47:12.760,ed:40:fe:65:30:6c, 2015-01-01 03:32:13.765, 1.003, -0.043, 0.015, -0.366, -0.244, -0.854, -70.263, -87.242, -67.956, -27.173, -14.187, 13.367, 25.17, 0.26935, -0.66077, -0.23495, -0.65994,
 15:47:12.760,ed:40:fe:65:30:6c, 2015-01-01 03:32:13.765, 1.003, -0.043, 0.014, -0.305, -0.244, -0.793, -70.252, -87.264, -67.978, -27.173, -14.187, 13.367, 25.17, 0.26935, -0.66077, -0.23495, -0.65994,
 15:47:12.761,ed:35:33:d3:6c:f8, 2015-01-01 03:32:13.965, 0.922, 0.083, 0.356, 0.366, 0, -1.404, 12.975, -68.346, 131.265, -21.460, -14.253, -17.987, 29.36, 0.28104, 0.54688, -0.14532, 0.77505,
 15:47:12.761,ed:35:33:d3:6c:f8, 2015-01-01 03:32:13.965, 0.923, 0.085, 0.358, 0.183, 0, -1.16, 13.041, -68.335, 131.188, -21.460, -14.253, -17.987, 29.36, 0.28104, 0.54688, -0.14532, 0.77505,
 15:47:12.762,f6:90:cc:01:6d:25, 2015-01-01 03:32:13.370, 0.858, -0.074, -0.482, -0.061, -0.244, 0, -171.151, -60.408, -23.549, -27.993, -11.740, 10.333, 29.52, -0.03696, -0.85123, 0.13785, -0.50491,
 15:47:12.762,f6:90:cc:01:6d:25, 2015-01-01 03:32:13.370, 0.858, -0.073, -0.484, 0, -0.244, 0, -171.156, -60.403, -23.549, -27.993, -11.740, 10.333, 29.52, -0.03696, -0.85123, 0.13785, -0.50491,
 15:47:12.806,ed:35:33:d3:6c:f8, 2015-01-01 03:32:13.965, 0.924, 0.087, 0.359, 0.244, 0, -0.854, 13.096, -68.329, 131.127, -21.460, -14.253, -17.987, 29.36, 0.28104, 0.54688, -0.14532, 0.77505,
 15:47:12.806,ed:35:33:d3:6c:f8, 2015-01-01 03:32:13.965, 0.924, 0.087, 0.361, 0.366, -0.183, -0.793, 13.14, -68.329, 131.083, -21.460, -14.253, -17.987, 29.36, 0.28104, 0.54688, -0.14532, 0.77505,
 15:47:12.807,f6:90:cc:01:6d:25, 2015-01-01 03:32:13.370, 0.857, -0.073, -0.484, 0, -0.244, 0, -171.156, -60.403, -23.549, -27.933, -11.980, 11.167, 29.52, -0.03696, -0.85123, 0.13785, -0.50491,
 15:47:12.807,f6:90:cc:01:6d:25, 2015-01-01 03:32:13.370, 0.857, -0.073, -0.485, 0, -0.183, 0, -171.161, -60.397, -23.544, -27.933, -11.980, 11.167, 29.52, -0.03696, -0.85123, 0.13785, -0.50491,
 15:47:12.827,ed:40:fe:65:30:6c, 2015-01-01 03:32:13.765, 1.003, -0.042, 0.014, -0.305, -0.305, -0.671, -70.28, -87.281, -67.978, -27.173, -14.187, 13.367, 25.17, 0.26935, -0.66077, -0.23495, -0.65994,
 15:47:12.827,ed:40:fe:65:30:6c, 2015-01-01 03:32:13.765, 1.003, -0.042, 0.014, -0.183, -0.427, -0.488, -70.373, -87.292, -67.912, -27.173, -14.187, 13.367, 25.17, 0.26935, -0.66077, -0.23495, -0.65994,
 15:47:12.827,e3:ca:2d:fd:e0:8c, 2015-01-01 03:32:14.925, 0.887, -0.105, -0.487, 0.061, -0.244, 0, -167.822, -60.705, -39.309, -24.613, -11.913, 4.540, 26.86, -0.08279, -0.8259, 0.23831, -0.50412,
 15:47:12.827,e3:ca:2d:fd:e0:8c, 2015-01-01 03:32:14.925, 0.887, -0.104, -0.489, 0.122, -0.305, 0, -167.822, -60.699, -39.304, -24.613, -11.913, 4.540, 26.86, -0.08279, -0.8259, 0.23831, -0.50412,
 15:47:12.829,ed:35:33:d3:6c:f8, 2015-01-01 03:32:14.345, 0.927, 0.087, 0.357, 0.549, -0.427, -0.854, 13.189, -68.329, 131.034, -21.460, -14.253, -17.987, 29.36, 0.28104, 0.54688, -0.14532, 0.77505,
 15:47:12.829,ed:35:33:d3:6c:f8, 2015-01-01 03:32:14.345, 0.925, 0.083, 0.357, 0.427, -0.549, -1.038, 13.25, -68.329, 130.995, -21.460, -14.253, -17.987, 29.36, 0.28104, 0.54688, -0.14532, 0.77505,
 15:47:12.849,e3:ca:2d:fd:e0:8c, 2015-01-01 03:32:14.925, 0.887, -0.104, -0.488, 0.122, -0.305, 0, -167.822, -60.694, -39.293, -24.920, -11.633, 4.127, 26.86, -0.08279, -0.8259, 0.23831, -0.50412,
 15:47:12.849,e3:ca:2d:fd:e0:8c, 2015-01-01 03:32:14.925, 0.887, -0.104, -0.488, 0.122, -0.244, 0, -167.822, -60.688, -39.287, -24.920, -11.633, 4.127, 26.86, -0.08279, -0.8259, 0.23831, -0.50412,
 15:47:12.850,ed:40:fe:65:30:6c, 2015-01-01 03:32:13.765, 1.004, -0.042, 0.013, -0.122, -0.61, -0.366, -70.554, -87.303, -67.764, -27.173, -14.187, 13.367, 25.18, 0.26935, -0.66077, -0.23495, -0.65994,
 15:47:12.850,ed:40:fe:65:30:6c, 2015-01-01 03:32:13.765, 1.004, -0.042, 0.011, 0, -0.671, -0.244, -70.79, -87.314, -67.533, -27.173, -14.187, 13.367, 25.18, 0.26935, -0.66077, -0.23495, -0.65994,
 15:47:12.852,f6:90:cc:01:6d:25, 2015-01-01 03:32:13.370, 0.857, -0.073, -0.485, 0, -0.244, 0, -171.167, -60.392, -23.544, -27.933, -11.980, 11.167, 29.52, -0.03714, -0.85147, 0.13788, -0.50449,
 15:47:12.852,f6:90:cc:01:6d:25, 2015-01-01 03:32:13.370, 0.858, -0.073, -0.486, 0, -0.183, 0, -171.167, -60.386, -23.538, -27.933, -11.980, 11.167, 29.52, -0.03714, -0.85147, 0.13788, -0.50449,
 15:47:12.873,ed:35:33:d3:6c:f8, 2015-01-01 03:32:14.345, 0.924, 0.084, 0.355, 0.732, -0.793, -1.648, 13.326, -68.335, 130.935, -21.460, -14.253, -17.987, 29.36, 0.28104, 0.54688, -0.14532, 0.77505,
 15:47:12.873,ed:35:33:d3:6c:f8, 2015-01-01 03:32:14.345, 0.924, 0.087, 0.357, 0.671, -0.427, -1.709, 13.425, -68.34, 130.853, -21.460, -14.253, -17.987, 29.36, 0.28104, 0.54688, -0.14532, 0.77505,
 15:47:12.894,e3:ca:2d:fd:e0:8c, 2015-01-01 03:32:14.925, 0.886, -0.104, -0.488, 0.122, -0.061, 0, -167.822, -60.683, -39.282, -24.920, -11.633, 4.127, 26.86, -0.08279, -0.8259, 0.23831, -0.50412,
 15:47:12.894,e3:ca:2d:fd:e0:8c, 2015-01-01 03:32:14.925, 0.886, -0.104, -0.488, 0.061, -0.122, 0, -167.822, -60.683, -39.282, -24.920, -11.633, 4.127, 26.86, -0.08279, -0.8259, 0.23831, -0.50412,
 15:47:12.896,ed:40:fe:65:30:6c, 2015-01-01 03:32:13.765, 1.003, -0.042, 0.011, 0, -0.427, -0.183, -70.972, -87.325, -67.357, -27.173, -14.187, 13.367, 25.18, 0.26935, -0.66077, -0.23495, -0.65994,
 15:47:12.896,ed:40:fe:65:30:6c, 2015-01-01 03:32:13.765, 1.002, -0.042, 0.011, -0.061, -0.305, -0.183, -71.098, -87.33, -67.231, -27.173, -14.187, 13.367, 25.18, 0.26935, -0.66077, -0.23495, -0.65994,
 15:47:12.897,f6:90:cc:01:6d:25, 2015-01-01 03:32:13.685, 0.857, -0.073, -0.485, 0, -0.061, 0, -171.172, -60.381, -23.538, -27.933, -11.980, 11.167, 29.52, -0.03714, -0.85147, 0.13788, -0.50449,
 15:47:12.897,f6:90:cc:01:6d:25, 2015-01-01 03:32:13.685, 0.857, -0.073, -0.483, -0.061, -0.061, 0, -171.172, -60.381, -23.538, -27.933, -11.980, 11.167, 29.52, -0.03714, -0.85147, 0.13788, -0.50449,
 15:47:12.916,e3:ca:2d:fd:e0:8c, 2015-01-01 03:32:14.925, 0.886, -0.104, -0.486, -0.122, 0, 0, -167.827, -60.683, -39.276, -24.920, -11.633, 4.127, 26.86, -0.08264, -0.8262, 0.23798, -0.50381,
 15:47:12.916,e3:ca:2d:fd:e0:8c, 2015-01-01 03:32:14.925, 0.886, -0.104, -0.487, -0.305, 0.061, 0, -167.833, -60.683, -39.271, -24.920, -11.633, 4.127, 26.86, -0.08264, -0.8262, 0.23798, -0.50381,
 15:47:12.918,ed:35:33:d3:6c:f8, 2015-01-01 03:32:14.345, 0.923, 0.085, 0.358, 0.427, -0.366, -1.648, 13.524, -68.34, 130.776, -21.460, -14.253, -17.987, 29.36, 0.28104, 0.54688, -0.14532, 0.77505,
 15:47:12.918,ed:35:33:d3:6c:f8, 2015-01-01 03:32:14.345, 0.921, 0.089, 0.357, 0.305, -0.366, -1.77, 13.618, -68.34, 130.693, -21.460, -14.253, -17.987, 29.36, 0.28104, 0.54688, -0.14532, 0.77505,
 15:47:12.918,ed:40:fe:65:30:6c, 2015-01-01 03:32:14.230, 1.002, -0.042, 0.012, -0.122, -0.183, -0.183, -71.18, -87.336, -67.154, -27.173, -14.187, 13.367, 25.18, 0.26935, -0.66077, -0.23495, -0.65994,
 15:47:12.918,ed:40:fe:65:30:6c, 2015-01-01 03:32:14.230, 1.002, -0.041, 0.014, -0.244, -0.183, -0.183, -71.252, -87.341, -67.088, -27.173, -14.187, 13.367, 25.18, 0.26935, -0.66077, -0.23495, -0.65994,
 15:47:12.919,f6:90:cc:01:6d:25, 2015-01-01 03:32:13.685, 0.857, -0.073, -0.484, -0.061, -0.122, 0, -171.178, -60.375, -23.538, -27.933, -11.980, 11.167, 29.52, -0.03714, -0.85147, 0.13788, -0.50449,
 15:47:12.919,f6:90:cc:01:6d:25, 2015-01-01 03:32:13.685, 0.858, -0.074, -0.483, -0.122, -0.122, 0, -171.183, -60.375, -23.533, -27.933, -11.980, 11.167, 29.52, -0.03714, -0.85147, 0.13788, -0.50449,
 15:47:12.961,e3:ca:2d:fd:e0:8c, 2015-01-01 03:32:14.925, 0.886, -0.104, -0.486, -0.427, -0.122, 0, -167.838, -60.683, -39.271, -24.920, -11.633, 4.127, 26.86, -0.08264, -0.8262, 0.23798, -0.50381,
 15:47:12.961,e3:ca:2d:fd:e0:8c, 2015-01-01 03:32:14.925, 0.886, -0.104, -0.486, -0.244, -0.244, 0, -167.849, -60.677, -39.265, -24.920, -11.633, 4.127, 26.86, -0.08264, -0.8262, 0.23798, -0.50381,
 15:47:12.963,ed:40:fe:65:30:6c, 2015-01-01 03:32:14.230, 1.002, -0.041, 0.014, -0.122, 0, -0.122, -71.268, -87.347, -67.072, -27.173, -14.187, 13.367, 25.18, 0.26935, -0.66077, -0.23495, -0.65994,
 15:47:12.963,ed:40:fe:65:30:6c, 2015-01-01 03:32:14.230, 1.002, -0.042, 0.014, 0, 0.122, -0.122, -71.224, -87.352, -67.11, -27.173, -14.187, 13.367, 25.18, 0.26935, -0.66077, -0.23495, -0.65994,
 15:47:12.964,ed:35:33:d3:6c:f8, 2015-01-01 03:32:14.345, 0.922, 0.09, 0.358, 0.427, -0.305, -1.282, 13.705, -68.34, 130.616, -21.460, -14.253, -17.987, 29.36, 0.28104, 0.54688, -0.14532, 0.77505,
 15:47:12.964,ed:35:33:d3:6c:f8, 2015-01-01 03:32:14.345, 0.923, 0.088, 0.358, 0.732, -0.244, -0.671, 13.771, -68.335, 130.556, -21.460, -14.253, -17.987, 29.36, 0.28104, 0.54688, -0.14532, 0.77505,
 15:47:12.965,f6:90:cc:01:6d:25, 2015-01-01 03:32:13.685, 0.857, -0.074, -0.482, -0.183, -0.244, 0, -171.189, -60.37, -23.533, -27.933, -11.980, 11.167, 29.52, -0.03714, -0.85147, 0.13788, -0.50449,
 15:47:12.965,f6:90:cc:01:6d:25, 2015-01-01 03:32:13.685, 0.857, -0.073, -0.483, 0, -0.366, 0, -171.194, -60.359, -23.527, -27.933, -11.980, 11.167, 29.52, -0.03714, -0.85147, 0.13788, -0.50449,
 15:47:13.006,e3:ca:2d:fd:e0:8c, 2015-01-01 03:32:15.260, 0.886, -0.104, -0.486, 0, -0.183, 0, -167.855, -60.672, -39.26, -24.920, -11.633, 4.127, 26.86, -0.08264, -0.8262, 0.23798, -0.50381,
 15:47:13.006,e3:ca:2d:fd:e0:8c, 2015-01-01 03:32:15.260, 0.886, -0.104, -0.487, 0.183, -0.122, 0, -167.855, -60.672, -39.254, -24.920, -11.633, 4.127, 26.86, -0.08264, -0.8262, 0.23798, -0.50381,
 15:47:13.008,ed:35:33:d3:6c:f8, 2015-01-01 03:32:14.345, 0.923, 0.089, 0.356, 0.427, -0.427, -0.488, 13.815, -68.34, 130.523, -21.460, -14.253, -17.987, 29.36, 0.28104, 0.54688, -0.14532, 0.77505,
 15:47:13.008,ed:35:33:d3:6c:f8, 2015-01-01 03:32:14.345, 0.924, 0.091, 0.354, 0, -0.366, -0.427, 13.848, -68.346, 130.512, -21.460, -14.253, -17.987, 29.36, 0.28104, 0.54688, -0.14532, 0.77505,
 15:47:13.008,ed:40:fe:65:30:6c, 2015-01-01 03:32:14.230, 1.003, -0.042, 0.013, -0.061, 0.122, -0.183, -71.164, -87.358, -67.159, -27.173, -14.187, 13.367, 25.18, 0.26935, -0.66077, -0.23495, -0.65994,
 15:47:13.008,ed:40:fe:65:30:6c, 2015-01-01 03:32:14.230, 1.002, -0.042, 0.012, -0.061, 0, -0.061, -71.169, -87.358, -67.137, -27.173, -14.187, 13.367, 25.18, 0.26935, -0.66077, -0.23495, -0.65994,
 15:47:13.010,f6:90:cc:01:6d:25, 2015-01-01 03:32:13.685, 0.857, -0.074, -0.484, 0, -0.305, 0, -171.2, -60.353, -23.527, -27.933, -11.980, 11.167, 29.52, -0.03714, -0.85147, 0.13788, -0.50449,
 15:47:13.010,f6:90:cc:01:6d:25, 2015-01-01 03:32:13.685, 0.857, -0.073, -0.484, 0, -0.183, 0, -171.2, -60.348, -23.522, -27.933, -11.980, 11.167, 29.52, -0.03714, -0.85147, 0.13788, -0.50449,
 15:47:13.029,e3:ca:2d:fd:e0:8c, 2015-01-01 03:32:15.260, 0.887, -0.103, -0.487, 0, -0.122, 0, -167.855, -60.667, -39.249, -24.920, -11.633, 4.127, 26.86, -0.08264, -0.8262, 0.23798, -0.50381,
 15:47:13.029,e3:ca:2d:fd:e0:8c, 2015-01-01 03:32:15.260, 0.886, -0.103, -0.488, -0.122, -0.183, 0, -167.86, -60.667, -39.243, -24.920, -11.633, 4.127, 26.86, -0.08264, -0.8262, 0.23798, -0.50381,
 15:47:13.030,ed:40:fe:65:30:6c, 2015-01-01 03:32:14.230, 1.003, -0.04, 0.011, 0, 0, 0, -71.186, -87.358, -67.104, -27.173, -14.187, 13.367, 25.18, 0.26935, -0.66077, -0.23495, -0.65994,
 15:47:13.030,ed:40:fe:65:30:6c, 2015-01-01 03:32:14.230, 1.003, -0.039, 0.012, -0.061, 0.122, 0.061, -71.158, -87.358, -67.121, -27.173, -14.187, 13.367, 25.18, 0.26935, -0.66077, -0.23495, -0.65994,
 15:47:13.031,ed:35:33:d3:6c:f8, 2015-01-01 03:32:14.345, 0.923, 0.092, 0.355, -0.366, -0.061, -0.305, 13.87, -68.346, 130.512, -21.193, -14.093, -16.813, 29.36, 0.28104, 0.54688, -0.14532, 0.77505,
 15:47:13.031,ed:35:33:d3:6c:f8, 2015-01-01 03:32:14.345, 0.925, 0.09, 0.356, -0.427, 0.183, -0.244, 13.881, -68.346, 130.518, -21.193, -14.093, -16.813, 29.36, 0.28104, 0.54688, -0.14532, 0.77505,
 15:47:13.054,f6:90:cc:01:6d:25, 2015-01-01 03:32:13.685, 0.857, -0.072, -0.484, 0, -0.183, 0, -171.205, -60.342, -23.522, -27.933, -11.980, 11.167, 29.52, -0.03714, -0.85147, 0.13788, -0.50449,
 15:47:13.054,f6:90:cc:01:6d:25, 2015-01-01 03:32:13.685, 0.857, -0.072, -0.485, -0.122, -0.183, 0, -171.211, -60.342, -23.522, -27.933, -11.980, 11.167, 29.52, -0.03714, -0.85147, 0.13788, -0.50449,
 15:47:13.073,e3:ca:2d:fd:e0:8c, 2015-01-01 03:32:15.260, 0.887, -0.103, -0.488, -0.244, -0.183, 0, -167.866, -60.661, -39.243, -24.920, -11.633, 4.127, 26.86, -0.08264, -0.8262, 0.23798, -0.50381,
 15:47:13.073,e3:ca:2d:fd:e0:8c, 2015-01-01 03:32:15.260, 0.886, -0.104, -0.488, -0.122, -0.061, 0, -167.871, -60.656, -39.238, -24.920, -11.633, 4.127, 26.86, -0.08264, -0.8262, 0.23798, -0.50381,
 15:47:13.074,ed:40:fe:65:30:6c, 2015-01-01 03:32:14.230, 1.003, -0.04, 0.011, -0.183, 0.122, 0, -71.131, -87.363, -67.148, -27.173, -14.187, 13.367, 25.18, 0.26935, -0.66077, -0.23495, -0.65994,
 15:47:13.074,ed:40:fe:65:30:6c, 2015-01-01 03:32:14.230, 1.003, -0.04, 0.01, -0.122, 0.122, 0, -71.104, -87.363, -67.165, -27.173, -14.187, 13.367, 25.18, 0.26935, -0.66077, -0.23495, -0.65994,
 15:47:13.077,ed:35:33:d3:6c:f8, 2015-01-01 03:32:14.345, 0.925, 0.092, 0.355, -0.427, 0.061, -0.183, 13.881, -68.34, 130.523, -21.193, -14.093, -16.813, 29.36, 0.28104, 0.54688, -0.14532, 0.77505,
 15:47:13.077,ed:35:33:d3:6c:f8, 2015-01-01 03:32:14.345, 0.923, 0.092, 0.355, -0.488, -0.122, 0, 13.881, -68.34, 130.523, -21.193, -14.093, -16.813, 29.36, 0.28104, 0.54688, -0.14532, 0.77505,
 15:47:13.078,f6:90:cc:01:6d:25, 2015-01-01 03:32:13.685, 0.856, -0.072, -0.486, -0.244, -0.122, 0, -171.216, -60.337, -23.516, -28.300, -11.753, 10.940, 29.52, -0.03714, -0.85147, 0.13788, -0.50449,
 15:47:13.078,f6:90:cc:01:6d:25, 2015-01-01 03:32:13.685, 0.856, -0.073, -0.486, -0.122, -0.061, 0, -171.222, -60.331, -23.516, -28.300, -11.753, 10.940, 29.52, -0.03714, -0.85147, 0.13788, -0.50449,
 15:47:13.119,e3:ca:2d:fd:e0:8c, 2015-01-01 03:32:15.260, 0.886, -0.104, -0.488, 0, 0, 0, -167.877, -60.656, -39.232, -24.920, -11.633, 4.127, 26.86, -0.08264, -0.8262, 0.23798, -0.50381,
 15:47:13.119,e3:ca:2d:fd:e0:8c, 2015-01-01 03:32:15.260, 0.886, -0.103, -0.487, 0.061, 0, 0, -167.877, -60.656, -39.232, -24.920, -11.633, 4.127, 26.86, -0.08264, -0.8262, 0.23798, -0.50381,
 15:47:13.120,ed:40:fe:65:30:6c, 2015-01-01 03:32:14.230, 1.002, -0.041, 0.012, 0.122, 0.122, 0.183, -71.104, -87.363, -67.154, -27.173, -14.187, 13.367, 25.18, 0.26935, -0.66077, -0.23495, -0.65994,
 15:47:13.120,ed:40:fe:65:30:6c, 2015-01-01 03:32:14.230, 1.002, -0.041, 0.013, 0.244, 0.183, 0.305, -71.093, -87.358, -67.154, -27.173, -14.187, 13.367, 25.18, 0.26935, -0.66077, -0.23495, -0.65994,
 15:47:13.122,f6:90:cc:01:6d:25, 2015-01-01 03:32:13.685, 0.857, -0.073, -0.485, -0.061, -0.061, 0, -171.227, -60.331, -23.516, -28.300, -11.753, 10.940, 29.52, -0.03714, -0.85147, 0.13788, -0.50449,
 15:47:13.122,f6:90:cc:01:6d:25, 2015-01-01 03:32:13.685, 0.857, -0.072, -0.484, 0, -0.061, 0, -171.227, -60.331, -23.516, -28.300, -11.753, 10.940, 29.52, -0.03714, -0.85147, 0.13788, -0.50449,
 15:47:13.144,ed:35:33:d3:6c:f8, 2015-01-01 03:32:14.345, 0.923, 0.09, 0.356, -0.427, 0, 0, 13.876, -68.34, 130.523, -21.193, -14.093, -16.813, 29.36, 0.28201, 0.54819, -0.14246, 0.77429,
 15:47:13.144,ed:35:33:d3:6c:f8, 2015-01-01 03:32:14.345, 0.924, 0.091, 0.356, -0.427, 0.122, 0.061, 13.87, -68.34, 130.523, -21.193, -14.093, -16.813, 29.36, 0.28201, 0.54819, -0.14246, 0.77429,
 15:47:13.163,e3:ca:2d:fd:e0:8c, 2015-01-01 03:32:15.260, 0.886, -0.102, -0.486, 0.183, -0.061, 0, -167.877, -60.656, -39.227, -24.920, -11.633, 4.127, 26.86, -0.08264, -0.8262, 0.23798, -0.50381,
 15:47:13.163,e3:ca:2d:fd:e0:8c, 2015-01-01 03:32:15.260, 0.886, -0.102, -0.487, 0.244, 0.061, 0, -167.871, -60.656, -39.227, -24.920, -11.633, 4.127, 26.86, -0.08264, -0.8262, 0.23798, -0.50381,
 15:47:13.166,ed:35:33:d3:6c:f8, 2015-01-01 03:32:14.680, 0.925, 0.09, 0.355, -0.427, 0.122, 0.244, 13.859, -68.335, 130.523, -21.193, -14.093, -16.813, 29.36, 0.28201, 0.54819, -0.14246, 0.77429,
 15:47:13.166,ed:35:33:d3:6c:f8, 2015-01-01 03:32:14.680, 0.923, 0.089, 0.356, -0.183, 0.244, 0.305, 13.843, -68.335, 130.518, -21.193, -14.093, -16.813, 29.36, 0.28201, 0.54819, -0.14246, 0.77429,
 15:47:13.168,f6:90:cc:01:6d:25, 2015-01-01 03:32:13.685, 0.857, -0.072, -0.484, 0.061, 0, 0, -171.227, -60.326, -23.516, -28.300, -11.753, 10.940, 29.52, -0.03738, -0.85175, 0.13803, -0.50397,
 15:47:13.168,f6:90:cc:01:6d:25, 2015-01-01 03:32:13.685, 0.856, -0.072, -0.485, 0.122, 0, 0, -171.227, -60.326, -23.511, -28.300, -11.753, 10.940, 29.52, -0.03738, -0.85175, 0.13803, -0.50397,
 15:47:13.209,ed:40:fe:65:30:6c, 2015-01-01 03:32:14.230, 1.002, -0.04, 0.013, 0.305, 0.183, 0.305, -71.076, -87.352, -67.165, -26.933, -13.833, 13.367, 25.18, 0.26935, -0.66077, -0.23495, -0.65994,
 15:47:13.209,ed:40:fe:65:30:6c, 2015-01-01 03:32:14.230, 1.003, -0.04, 0.013, 0.305, 0.305, 0.305, -71.005, -87.347, -67.225, -26.933, -13.833, 13.367, 25.18, 0.26935, -0.66077, -0.23495, -0.65994,
 15:47:13.211,f6:90:cc:01:6d:25, 2015-01-01 03:32:13.995, 0.856, -0.073, -0.484, 0.061, 0, 0, -171.233, -60.326, -23.511, -28.300, -11.753, 10.940, 29.52, -0.03738, -0.85175, 0.13803, -0.50397,
 15:47:13.211,f6:90:cc:01:6d:25, 2015-01-01 03:32:13.995, 0.857, -0.074, -0.483, 0, 0.061, 0, -171.233, -60.326, -23.511, -28.300, -11.753, 10.940, 29.52, -0.03738, -0.85175, 0.13803, -0.50397,
 15:47:13.211,ed:35:33:d3:6c:f8, 2015-01-01 03:32:14.680, 0.925, 0.088, 0.356, -0.244, 0.366, 0.183, 13.826, -68.329, 130.523, -21.193, -14.093, -16.813, 29.36, 0.28201, 0.54819, -0.14246, 0.77429,
 15:47:13.211,ed:35:33:d3:6c:f8, 2015-01-01 03:32:14.680, 0.922, 0.086, 0.355, -0.183, 0.549, 0.061, 13.815, -68.324, 130.512, -21.193, -14.093, -16.813, 29.36, 0.28201, 0.54819, -0.14246, 0.77429,
 15:47:13.231,e3:ca:2d:fd:e0:8c, 2015-01-01 03:32:15.260, 0.886, -0.103, -0.488, 0, 0, 0, -167.871, -60.656, -39.221, -24.867, -11.607, 4.280, 26.86, -0.08264, -0.8262, 0.23798, -0.50381,
 15:47:13.231,e3:ca:2d:fd:e0:8c, 2015-01-01 03:32:15.260, 0.886, -0.104, -0.487, 0, 0, 0, -167.877, -60.656, -39.221, -24.867, -11.607, 4.280, 26.86, -0.08264, -0.8262, 0.23798, -0.50381,
 15:47:13.232,ed:40:fe:65:30:6c, 2015-01-01 03:32:14.230, 1.002, -0.041, 0.013, 0.305, 0.549, 0.244, -70.829, -87.341, -67.385, -26.933, -13.833, 13.367, 25.18, 0.26846, -0.66089, -0.23569, -0.65991,
 15:47:13.232,ed:40:fe:65:30:6c, 2015-01-01 03:32:14.230, 1.003, -0.042, 0.013, 0.244, 0.549, 0.244, -70.653, -87.336, -67.538, -26.933, -13.833, 13.367, 25.18, 0.26846, -0.66089, -0.23569, -0.65991,
 15:47:13.235,ed:35:33:d3:6c:f8, 2015-01-01 03:32:14.680, 0.925, 0.087, 0.359, 0.488, 0.549, 0.061, 13.804, -68.313, 130.496, -21.193, -14.093, -16.813, 29.36, 0.28201, 0.54819, -0.14246, 0.77429,
 15:47:13.235,ed:35:33:d3:6c:f8, 2015-01-01 03:32:14.680, 0.924, 0.09, 0.356, 1.648, 0.427, 0.366, 13.81, -68.302, 130.49, -21.193, -14.093, -16.813, 29.36, 0.28201, 0.54819, -0.14246, 0.77429,
 15:47:13.253,e3:ca:2d:fd:e0:8c, 2015-01-01 03:32:15.260, 0.886, -0.104, -0.486, -0.061, 0.061, 0, -167.877, -60.656, -39.216, -24.867, -11.607, 4.280, 26.86, -0.08267, -0.82639, 0.23779, -0.5036,
 15:47:13.253,e3:ca:2d:fd:e0:8c, 2015-01-01 03:32:15.260, 0.886, -0.105, -0.489, 0, 0.061, 0, -167.877, -60.661, -39.216, -24.867, -11.607, 4.280, 26.86, -0.08267, -0.82639, 0.23779, -0.5036,
 15:47:13.254,ed:40:fe:65:30:6c, 2015-01-01 03:32:14.230, 1.002, -0.043, 0.014, 0.122, 0.793, 0.183, -70.378, -87.33, -67.797, -26.933, -13.833, 13.367, 25.18, 0.26846, -0.66089, -0.23569, -0.65991,
 15:47:13.254,ed:40:fe:65:30:6c, 2015-01-01 03:32:14.230, 1.003, -0.042, 0.015, 0.366, 0.977, 0.183, -70.027, -87.319, -68.132, -26.933, -13.833, 13.367, 25.18, 0.26846, -0.66089, -0.23569, -0.65991,
 15:47:13.259,f6:90:cc:01:6d:25, 2015-01-01 03:32:13.995, 0.857, -0.074, -0.486, 0, 0, 0, -171.233, -60.326, -23.511, -28.300, -11.753, 10.940, 29.52, -0.03738, -0.85175, 0.13803, -0.50397,
 15:47:13.259,f6:90:cc:01:6d:25, 2015-01-01 03:32:13.995, 0.857, -0.074, -0.486, 0.122, -0.061, 0, -171.238, -60.326, -23.511, -28.300, -11.753, 10.940, 29.52, -0.03738, -0.85175, 0.13803, -0.50397,
 15:47:13.279,f6:90:cc:01:6d:25, 2015-01-01 03:32:13.995, 0.857, -0.074, -0.485, 0.183, -0.122, 0, -171.238, -60.32, -23.511, -28.300, -11.753, 10.940, 29.52, -0.03738, -0.85175, 0.13803, -0.50397,
 15:47:13.279,f6:90:cc:01:6d:25, 2015-01-01 03:32:13.995, 0.856, -0.074, -0.485, 0.061, -0.061, 0, -171.233, -60.32, -23.505, -28.300, -11.753, 10.940, 29.52, -0.03738, -0.85175, 0.13803, -0.50397,
 15:47:13.279,ed:35:33:d3:6c:f8, 2015-01-01 03:32:14.680, 0.924, 0.089, 0.359, 1.465, 0.488, 0.916, 13.815, -68.297, 130.496, -21.193, -14.093, -16.813, 29.36, 0.28201, 0.54819, -0.14246, 0.77429,
 15:47:13.279,ed:35:33:d3:6c:f8, 2015-01-01 03:32:14.680, 0.92, 0.084, 0.359, 0.854, 0.488, 0.854, 13.793, -68.291, 130.529, -21.193, -14.093, -16.813, 29.36, 0.28201, 0.54819, -0.14246, 0.77429,
 15:47:13.298,e3:ca:2d:fd:e0:8c, 2015-01-01 03:32:15.260, 0.887, -0.104, -0.488, 0.061, 0.122, 0, -167.877, -60.661, -39.21, -24.867, -11.607, 4.280, 26.86, -0.08267, -0.82639, 0.23779, -0.5036,
 15:47:13.298,e3:ca:2d:fd:e0:8c, 2015-01-01 03:32:15.260, 0.887, -0.104, -0.487, 0.061, 0.122, 0, -167.877, -60.661, -39.21, -24.867, -11.607, 4.280, 26.86, -0.08267, -0.82639, 0.23779, -0.5036,
 15:47:13.299,ed:40:fe:65:30:6c, 2015-01-01 03:32:14.230, 1.003, -0.042, 0.014, 0.488, 1.16, 0.183, -69.604, -87.314, -68.544, -26.933, -13.833, 13.367, 25.18, 0.26846, -0.66089, -0.23569, -0.65991,
 15:47:13.299,ed:40:fe:65:30:6c, 2015-01-01 03:32:14.230, 1.002, -0.042, 0.016, 0.549, 1.16, 0.183, -69.181, -87.303, -68.956, -26.933, -13.833, 13.367, 25.18, 0.26846, -0.66089, -0.23569, -0.65991,
 15:47:13.321,e3:ca:2d:fd:e0:8c, 2015-01-01 03:32:15.595, 0.886, -0.104, -0.487, -0.061, 0.122, 0, -167.877, -60.667, -39.21, -24.867, -11.607, 4.280, 26.86, -0.08267, -0.82639, 0.23779, -0.5036,
 15:47:13.321,e3:ca:2d:fd:e0:8c, 2015-01-01 03:32:15.595, 0.885, -0.103, -0.487, -0.183, 0, 0, -167.882, -60.667, -39.205, -24.867, -11.607, 4.280, 26.86, -0.08267, -0.82639, 0.23779, -0.5036,
 15:47:13.321,ed:40:fe:65:30:6c, 2015-01-01 03:32:14.610, 1.001, -0.042, 0.016, 0.549, 0.977, 0.122, -68.829, -87.297, -69.296, -26.933, -13.833, 13.367, 25.18, 0.26846, -0.66089, -0.23569, -0.65991,
 15:47:13.321,ed:40:fe:65:30:6c, 2015-01-01 03:32:14.610, 1.001, -0.042, 0.018, 0.366, 0.671, 0.061, -68.588, -87.292, -69.516, -26.933, -13.833, 13.367, 25.18, 0.26846, -0.66089, -0.23569, -0.65991,
 15:47:13.325,f6:90:cc:01:6d:25, 2015-01-01 03:32:13.995, 0.856, -0.073, -0.484, 0, -0.061, 0, -171.238, -60.315, -23.505, -28.300, -11.753, 10.940, 29.52, -0.03738, -0.85175, 0.13803, -0.50397,
 15:47:13.325,f6:90:cc:01:6d:25, 2015-01-01 03:32:13.995, 0.856, -0.074, -0.484, 0.061, -0.122, 0, -171.238, -60.315, -23.505, -28.300, -11.753, 10.940, 29.52, -0.03738, -0.85175, 0.13803, -0.50397,
 15:47:13.346,ed:35:33:d3:6c:f8, 2015-01-01 03:32:14.680, 0.92, 0.085, 0.361, 0.488, 0.671, 0.427, 13.771, -68.286, 130.573, -21.193, -14.093, -16.813, 29.36, 0.28201, 0.54819, -0.14246, 0.77429,
 15:47:13.346,ed:35:33:d3:6c:f8, 2015-01-01 03:32:14.680, 0.919, 0.086, 0.36, 0.488, 0.671, 0.366, 13.749, -68.275, 130.605, -21.193, -14.093, -16.813, 29.36, 0.28201, 0.54819, -0.14246, 0.77429,
 15:47:13.366,e3:ca:2d:fd:e0:8c, 2015-01-01 03:32:15.595, 0.886, -0.104, -0.486, -0.122, 0, 0, -167.882, -60.667, -39.205, -24.867, -11.607, 4.280, 26.86, -0.08267, -0.82639, 0.23779, -0.5036,
 15:47:13.366,e3:ca:2d:fd:e0:8c, 2015-01-01 03:32:15.595, 0.886, -0.104, -0.486, 0, 0, 0, -167.888, -60.667, -39.199, -24.867, -11.607, 4.280, 26.86, -0.08267, -0.82639, 0.23779, -0.5036,
 15:47:13.367,ed:40:fe:65:30:6c, 2015-01-01 03:32:14.610, 1.001, -0.043, 0.018, 0.183, 0.305, 0, -68.478, -87.292, -69.615, -26.933, -13.833, 13.367, 25.18, 0.26846, -0.66089, -0.23569, -0.65991,
 15:47:13.367,ed:40:fe:65:30:6c, 2015-01-01 03:32:14.610, 1.002, -0.043, 0.017, 0.122, 0.183, -0.061, -68.412, -87.292, -69.697, -26.933, -13.833, 13.367, 25.18, 0.26846, -0.66089, -0.23569, -0.65991,
 15:47:13.368,ed:35:33:d3:6c:f8, 2015-01-01 03:32:14.680, 0.922, 0.086, 0.358, 0.305, 0.732, 0.305, 13.733, -68.258, 130.644, -21.993, -14.127, -17.653, 29.36, 0.28201, 0.54819, -0.14246, 0.77429,
 15:47:13.368,ed:35:33:d3:6c:f8, 2015-01-01 03:32:14.680, 0.923, 0.086, 0.357, 0.061, 0.793, 0.244, 13.716, -68.247, 130.677, -21.993, -14.127, -17.653, 29.36, 0.28201, 0.54819, -0.14246, 0.77429,
 15:47:13.369,f6:90:cc:01:6d:25, 2015-01-01 03:32:13.995, 0.857, -0.075, -0.483, 0.183, -0.122, 0, -171.238, -60.309, -23.505, -28.300, -11.753, 10.940, 29.52, -0.03738, -0.85175, 0.13803, -0.50397,
 15:47:13.369,f6:90:cc:01:6d:25, 2015-01-01 03:32:13.995, 0.856, -0.075, -0.483, 0.244, 0, 0, -171.238, -60.304, -23.505, -28.300, -11.753, 10.940, 29.52, -0.03738, -0.85175, 0.13803, -0.50397,
 15:47:13.388,e3:ca:2d:fd:e0:8c, 2015-01-01 03:32:15.595, 0.886, -0.105, -0.485, 0.122, -0.061, 0, -167.888, -60.667, -39.199, -24.867, -11.607, 4.280, 26.86, -0.08267, -0.82639, 0.23779, -0.5036,
 15:47:13.388,e3:ca:2d:fd:e0:8c, 2015-01-01 03:32:15.595, 0.886, -0.105, -0.486, 0, -0.061, 0, -167.888, -60.667, -39.194, -24.867, -11.607, 4.280, 26.86, -0.08267, -0.82639, 0.23779, -0.5036,
 15:47:13.389,ed:40:fe:65:30:6c, 2015-01-01 03:32:14.610, 1.003, -0.044, 0.015, 0.061, 0.244, -0.061, -68.318, -87.292, -69.796, -26.933, -13.833, 13.367, 25.18, 0.26846, -0.66089, -0.23569, -0.65991,
 15:47:13.391,ed:40:fe:65:30:6c, 2015-01-01 03:32:14.610, 1.004, -0.043, 0.014, 0.061, 0.305, 0, -68.214, -87.292, -69.895, -26.933, -13.833, 13.367, 25.18, 0.26846, -0.66089, -0.23569, -0.65991,
 15:47:13.414,ed:35:33:d3:6c:f8, 2015-01-01 03:32:14.680, 0.924, 0.087, 0.357, 0, 0.793, 0.183, 13.694, -68.231, 130.71, -21.993, -14.127, -17.653, 29.36, 0.28201, 0.54819, -0.14246, 0.77429,
 15:47:13.414,ed:35:33:d3:6c:f8, 2015-01-01 03:32:14.680, 0.925, 0.089, 0.358, -0.061, 0.61, 0.122, 13.678, -68.22, 130.721, -21.993, -14.127, -17.653, 29.36, 0.28201, 0.54819, -0.14246, 0.77429,
 15:47:13.417,f6:90:cc:01:6d:25, 2015-01-01 03:32:13.995, 0.857, -0.075, -0.484, 0.305, 0.061, 0, -171.233, -60.304, -23.5, -28.447, -12.100, 10.960, 29.52, -0.03738, -0.85175, 0.13803, -0.50397,
 15:47:13.417,f6:90:cc:01:6d:25, 2015-01-01 03:32:13.995, 0.856, -0.073, -0.486, 0.244, 0.122, 0, -171.227, -60.304, -23.5, -28.447, -12.100, 10.960, 29.52, -0.03738, -0.85175, 0.13803, -0.50397,
 15:47:13.434,e3:ca:2d:fd:e0:8c, 2015-01-01 03:32:15.595, 0.887, -0.104, -0.488, 0, 0, 0, -167.888, -60.667, -39.194, -24.867, -11.607, 4.280, 26.86, -0.08267, -0.82639, 0.23779, -0.5036,
 15:47:13.434,e3:ca:2d:fd:e0:8c, 2015-01-01 03:32:15.595, 0.887, -0.103, -0.488, 0, 0.061, 0, -167.888, -60.667, -39.188, -24.867, -11.607, 4.280, 26.86, -0.08267, -0.82639, 0.23779, -0.5036,
 15:47:13.435,ed:40:fe:65:30:6c, 2015-01-01 03:32:14.610, 1.004, -0.041, 0.014, 0.183, 0.488, 0, -68.044, -87.292, -70.082, -26.933, -13.833, 13.367, 25.18, 0.26846, -0.66089, -0.23569, -0.65991,
 15:47:13.435,ed:40:fe:65:30:6c, 2015-01-01 03:32:14.610, 1.004, -0.04, 0.014, 0.183, 0.549, 0.122, -67.874, -87.286, -70.28, -26.933, -13.833, 13.367, 25.18, 0.26846, -0.66089, -0.23569, -0.65991,
 15:47:13.436,ed:35:33:d3:6c:f8, 2015-01-01 03:32:14.680, 0.922, 0.091, 0.359, -0.183, 0.61, 0.183, 13.661, -68.209, 130.743, -21.993, -14.127, -17.653, 29.36, 0.28195, 0.54715, -0.14243, 0.77509,
 15:47:13.436,ed:35:33:d3:6c:f8, 2015-01-01 03:32:14.680, 0.923, 0.09, 0.358, -0.305, 0.427, 0.244, 13.645, -68.198, 130.765, -21.993, -14.127, -17.653, 29.36, 0.28195, 0.54715, -0.14243, 0.77509,
 15:47:13.459,f6:90:cc:01:6d:25, 2015-01-01 03:32:13.995, 0.856, -0.072, -0.487, 0.244, 0.244, 0, -171.222, -60.309, -23.5, -28.447, -12.100, 10.960, 29.52, -0.03738, -0.85175, 0.13803, -0.50397,
 15:47:13.459,f6:90:cc:01:6d:25, 2015-01-01 03:32:13.995, 0.857, -0.073, -0.486, 0.183, 0.305, 0, -171.216, -60.309, -23.505, -28.447, -12.100, 10.960, 29.52, -0.03738, -0.85175, 0.13803, -0.50397,
 15:47:13.481,ed:35:33:d3:6c:f8, 2015-01-01 03:32:14.680, 0.921, 0.091, 0.36, -1.16, 0.366, 0.061, 13.623, -68.192, 130.787, -21.993, -14.127, -17.653, 29.36, 0.28195, 0.54715, -0.14243, 0.77509,
 15:47:13.481,ed:35:33:d3:6c:f8, 2015-01-01 03:32:14.680, 0.92, 0.093, 0.361, -1.587, 0.305, 0, 13.596, -68.181, 130.792, -21.993, -14.127, -17.653, 29.36, 0.28195, 0.54715, -0.14243, 0.77509,
 15:47:13.482,f6:90:cc:01:6d:25, 2015-01-01 03:32:13.995, 0.856, -0.073, -0.484, 0.183, 0.305, 0, -171.216, -60.315, -23.505, -28.447, -12.100, 10.960, 29.52, -0.0372, -0.85184, 0.13794, -0.50385,
 15:47:13.482,f6:90:cc:01:6d:25, 2015-01-01 03:32:13.995, 0.856, -0.072, -0.485, 0.061, 0.305, 0, -171.211, -60.32, -23.505, -28.447, -12.100, 10.960, 29.52, -0.0372, -0.85184, 0.13794, -0.50385,
 15:47:13.500,e3:ca:2d:fd:e0:8c, 2015-01-01 03:32:15.595, 0.887, -0.103, -0.488, 0.061, 0.122, 0, -167.888, -60.667, -39.188, -24.867, -11.607, 4.280, 26.86, -0.08267, -0.82639, 0.23779, -0.5036,
 15:47:13.500,e3:ca:2d:fd:e0:8c, 2015-01-01 03:32:15.595, 0.886, -0.104, -0.488, 0, 0.122, 0, -167.888, -60.667, -39.188, -24.867, -11.607, 4.280, 26.86, -0.08267, -0.82639, 0.23779, -0.5036,
 15:47:13.502,ed:40:fe:65:30:6c, 2015-01-01 03:32:14.610, 1.002, -0.04, 0.016, 0.183, 0.366, 0.244, -67.791, -87.281, -70.384, -26.933, -13.833, 13.367, 25.18, 0.26846, -0.66089, -0.23569, -0.65991,
 15:47:13.502,ed:40:fe:65:30:6c, 2015-01-01 03:32:14.610, 1.002, -0.04, 0.017, 0.244, 0.366, 0.488, -67.742, -87.27, -70.45, -26.933, -13.833, 13.367, 25.18, 0.26846, -0.66089, -0.23569, -0.65991,
 15:47:13.524,ed:40:fe:65:30:6c, 2015-01-01 03:32:14.610, 1.002, -0.04, 0.017, 0.549, 0.244, 0.793, -67.78, -87.253, -70.411, -27.420, -14.133, 13.067, 25.18, 0.26846, -0.66089, -0.23569, -0.65991,
 15:47:13.524,ed:40:fe:65:30:6c, 2015-01-01 03:32:14.610, 1.002, -0.039, 0.017, 0.854, 0.183, 1.038, -67.863, -87.237, -70.312, -27.420, -14.133, 13.067, 25.18, 0.26846, -0.66089, -0.23569, -0.65991,
 15:47:13.526,ed:35:33:d3:6c:f8, 2015-01-01 03:32:15.015, 0.924, 0.094, 0.36, -1.465, 0.366, 0.427, 13.563, -68.176, 130.792, -21.993, -14.127, -17.653, 29.36, 0.28195, 0.54715, -0.14243, 0.77509,
 15:47:13.526,ed:35:33:d3:6c:f8, 2015-01-01 03:32:15.015, 0.923, 0.086, 0.359, -0.977, 0, 1.099, 13.513, -68.176, 130.825, -21.993, -14.127, -17.653, 29.36, 0.28195, 0.54715, -0.14243, 0.77509,
 15:47:13.528,f6:90:cc:01:6d:25, 2015-01-01 03:32:13.995, 0.857, -0.072, -0.485, 0, 0.244, 0, -171.211, -60.326, -23.505, -28.447, -12.100, 10.960, 29.52, -0.0372, -0.85184, 0.13794, -0.50385,
 15:47:13.528,f6:90:cc:01:6d:25, 2015-01-01 03:32:13.995, 0.857, -0.074, -0.484, 0.122, 0.244, 0, -171.211, -60.326, -23.505, -28.447, -12.100, 10.960, 29.52, -0.0372, -0.85184, 0.13794, -0.50385,
 15:47:13.547,e3:ca:2d:fd:e0:8c, 2015-01-01 03:32:15.595, 0.886, -0.103, -0.488, 0, 0, 0, -167.888, -60.667, -39.188, -24.867, -11.607, 4.280, 26.86, -0.08267, -0.82639, 0.23779, -0.5036,
 15:47:13.547,e3:ca:2d:fd:e0:8c, 2015-01-01 03:32:15.595, 0.887, -0.102, -0.487, 0.122, 0, 0, -167.888, -60.667, -39.183, -24.867, -11.607, 4.280, 26.86, -0.08267, -0.82639, 0.23779, -0.5036,
 15:47:13.569,ed:40:fe:65:30:6c, 2015-01-01 03:32:14.610, 1.002, -0.043, 0.016, 0.854, 0.305, 0.977, -67.885, -87.22, -70.274, -27.420, -14.133, 13.067, 25.18, 0.26846, -0.66089, -0.23569, -0.65991,
 15:47:13.569,ed:40:fe:65:30:6c, 2015-01-01 03:32:14.610, 1.001, -0.046, 0.018, 0.61, 0.427, 0.732, -67.835, -87.204, -70.323, -27.420, -14.133, 13.067, 25.18, 0.26846, -0.66089, -0.23569, -0.65991,
 15:47:13.569,e3:ca:2d:fd:e0:8c, 2015-01-01 03:32:15.595, 0.886, -0.103, -0.488, 0.183, 0.061, 0, -167.882, -60.672, -39.183, -24.580, -11.867, 4.827, 26.86, -0.08267, -0.82639, 0.23779, -0.5036,
 15:47:13.569,e3:ca:2d:fd:e0:8c, 2015-01-01 03:32:15.595, 0.886, -0.104, -0.487, 0.183, 0, 0, -167.882, -60.672, -39.177, -24.580, -11.867, 4.827, 26.86, -0.08267, -0.82639, 0.23779, -0.5036,
 15:47:13.570,ed:35:33:d3:6c:f8, 2015-01-01 03:32:15.015, 0.922, 0.08, 0.358, -0.488, 0.061, 1.16, 13.447, -68.176, 130.875, -21.993, -14.127, -17.653, 29.36, 0.28195, 0.54715, -0.14243, 0.77509,
 15:47:13.570,ed:35:33:d3:6c:f8, 2015-01-01 03:32:15.015, 0.92, 0.081, 0.36, -0.183, 0.305, 0.977, 13.387, -68.181, 130.93, -21.993, -14.127, -17.653, 29.36, 0.28195, 0.54715, -0.14243, 0.77509,
 15:47:13.573,f6:90:cc:01:6d:25, 2015-01-01 03:32:14.330, 0.857, -0.075, -0.483, 0.183, 0.244, 0, -171.211, -60.331, -23.511, -28.447, -12.100, 10.960, 29.52, -0.0372, -0.85184, 0.13794, -0.50385,
 15:47:13.573,f6:90:cc:01:6d:25, 2015-01-01 03:32:14.330, 0.857, -0.073, -0.483, 0.061, 0.244, 0, -171.211, -60.337, -23.511, -28.447, -12.100, 10.960, 29.52, -0.0372, -0.85184, 0.13794, -0.50385,
 15:47:13.593,ed:40:fe:65:30:6c, 2015-01-01 03:32:14.610, 1.002, -0.044, 0.018, 0.427, 0.549, 0.549, -67.709, -87.193, -70.444, -27.420, -14.133, 13.067, 25.18, 0.26959, -0.65988, -0.23517, -0.66064,
 15:47:13.593,ed:40:fe:65:30:6c, 2015-01-01 03:32:14.610, 1.002, -0.041, 0.019, -0.122, 0.549, 0.061, -67.527, -87.188, -70.642, -27.420, -14.133, 13.067, 25.18, 0.26959, -0.65988, -0.23517, -0.66064,
 15:47:13.594,ed:35:33:d3:6c:f8, 2015-01-01 03:32:15.015, 0.92, 0.08, 0.36, -0.305, 0.244, 0.61, 13.343, -68.176, 130.979, -21.993, -14.127, -17.653, 29.36, 0.28195, 0.54715, -0.14243, 0.77509,
 15:47:13.594,ed:35:33:d3:6c:f8, 2015-01-01 03:32:15.015, 0.921, 0.084, 0.362, -0.427, 0.183, 0.061, 13.31, -68.176, 131.006, -21.993, -14.127, -17.653, 29.36, 0.28195, 0.54715, -0.14243, 0.77509,
 15:47:13.613,e3:ca:2d:fd:e0:8c, 2015-01-01 03:32:15.595, 0.886, -0.103, -0.486, 0.122, -0.061, 0, -167.882, -60.667, -39.177, -24.580, -11.867, 4.827, 26.86, -0.08267, -0.82639, 0.23779, -0.5036,
 15:47:13.613,e3:ca:2d:fd:e0:8c, 2015-01-01 03:32:15.595, 0.887, -0.102, -0.485, 0, -0.122, 0, -167.882, -60.667, -39.172, -24.580, -11.867, 4.827, 26.86, -0.08267, -0.82639, 0.23779, -0.5036,
 15:47:13.617,f6:90:cc:01:6d:25, 2015-01-01 03:32:14.330, 0.857, -0.071, -0.483, 0, 0.183, 0, -171.211, -60.337, -23.511, -28.447, -12.100, 10.960, 29.52, -0.0372, -0.85184, 0.13794, -0.50385,
 15:47:13.617,f6:90:cc:01:6d:25, 2015-01-01 03:32:14.330, 0.857, -0.073, -0.483, 0, 0.122, 0, -171.211, -60.342, -23.511, -28.447, -12.100, 10.960, 29.52, -0.0372, -0.85184, 0.13794, -0.50385,
 15:47:13.637,e3:ca:2d:fd:e0:8c, 2015-01-01 03:32:15.595, 0.886, -0.103, -0.486, -0.122, -0.061, 0, -167.888, -60.667, -39.172, -24.580, -11.867, 4.827, 26.86, -0.08255, -0.82645, 0.23752, -0.50366,
 15:47:13.637,e3:ca:2d:fd:e0:8c, 2015-01-01 03:32:15.595, 0.887, -0.104, -0.487, -0.061, -0.061, 0, -167.893, -60.667, -39.166, -24.580, -11.867, 4.827, 26.86, -0.08255, -0.82645, 0.23752, -0.50366,
 15:47:13.639,ed:35:33:d3:6c:f8, 2015-01-01 03:32:15.015, 0.921, 0.086, 0.361, -0.122, 0, -0.061, 13.299, -68.17, 130.995, -21.993, -14.127, -17.653, 29.36, 0.28195, 0.54715, -0.14243, 0.77509,
 15:47:13.639,ed:35:33:d3:6c:f8, 2015-01-01 03:32:15.015, 0.921, 0.086, 0.362, -0.061, -0.061, -0.061, 13.304, -68.17, 130.984, -21.993, -14.127, -17.653, 29.36, 0.28195, 0.54715, -0.14243, 0.77509,
 15:47:13.661,ed:40:fe:65:30:6c, 2015-01-01 03:32:14.610, 1.002, -0.043, 0.019, -0.183, 0.549, 0.061, -67.335, -87.182, -70.851, -27.420, -14.133, 13.067, 25.18, 0.26959, -0.65988, -0.23517, -0.66064,
 15:47:13.661,ed:40:fe:65:30:6c, 2015-01-01 03:32:14.610, 1.002, -0.045, 0.019, 0, 0.549, 0.183, -67.148, -87.182, -71.054, -27.420, -14.133, 13.067, 25.18, 0.26959, -0.65988, -0.23517, -0.66064,
 15:47:13.663,f6:90:cc:01:6d:25, 2015-01-01 03:32:14.330, 0.858, -0.074, -0.483, 0, 0.122, 0, -171.211, -60.342, -23.511, -28.447, -12.100, 10.960, 29.52, -0.0372, -0.85184, 0.13794, -0.50385,
 15:47:13.663,f6:90:cc:01:6d:25, 2015-01-01 03:32:14.330, 0.857, -0.075, -0.484, 0, 0.061, 0, -171.211, -60.342, -23.511, -28.447, -12.100, 10.960, 29.52, -0.0372, -0.85184, 0.13794, -0.50385,
 15:47:13.682,ed:40:fe:65:30:6c, 2015-01-01 03:32:14.970, 1.004, -0.044, 0.019, 0.305, 0.366, 0.366, -66.995, -87.177, -71.202, -27.420, -14.133, 13.067, 25.18, 0.26959, -0.65988, -0.23517, -0.66064,
 15:47:13.682,ed:40:fe:65:30:6c, 2015-01-01 03:32:14.970, 1.003, -0.043, 0.016, 0.671, 0.183, 0.61, -66.94, -87.166, -71.257, -27.420, -14.133, 13.067, 25.18, 0.26959, -0.65988, -0.23517, -0.66064,
 15:47:13.682,e3:ca:2d:fd:e0:8c, 2015-01-01 03:32:15.595, 0.887, -0.105, -0.487, 0, -0.183, 0, -167.893, -60.661, -39.166, -24.580, -11.867, 4.827, 26.86, -0.08255, -0.82645, 0.23752, -0.50366,
 15:47:13.682,e3:ca:2d:fd:e0:8c, 2015-01-01 03:32:15.595, 0.886, -0.105, -0.487, 0.061, -0.183, 0, -167.893, -60.661, -39.161, -24.580, -11.867, 4.827, 26.86, -0.08255, -0.82645, 0.23752, -0.50366,
 15:47:13.685,f6:90:cc:01:6d:25, 2015-01-01 03:32:14.330, 0.857, -0.075, -0.485, 0.122, 0.061, 0, -171.211, -60.342, -23.511, -28.447, -12.100, 10.960, 29.52, -0.0372, -0.85184, 0.13794, -0.50385,
 15:47:13.685,f6:90:cc:01:6d:25, 2015-01-01 03:32:14.330, 0.857, -0.074, -0.485, 0.244, 0.122, 0, -171.211, -60.342, -23.511, -28.447, -12.100, 10.960, 29.52, -0.0372, -0.85184, 0.13794, -0.50385,
 15:47:13.706,ed:35:33:d3:6c:f8, 2015-01-01 03:32:15.015, 0.923, 0.087, 0.363, -0.366, 0, 0.061, 13.304, -68.17, 130.974, -21.993, -14.127, -17.653, 29.36, 0.28195, 0.54715, -0.14243, 0.77509,
 15:47:13.706,ed:35:33:d3:6c:f8, 2015-01-01 03:32:15.015, 0.927, 0.089, 0.362, -0.61, 0, 0.305, 13.288, -68.17, 130.968, -21.993, -14.127, -17.653, 29.36, 0.28195, 0.54715, -0.14243, 0.77509,
