Time,Device name,Chip Time(),Acceleration X(g),Acceleration Y(g),Acceleration Z(g),Angular velocity X(°/s),Angular velocity Y(°/s),Angular velocity Z(°/s),Angle X(°),Angle Y(°),Angle Z(°),Magnetic field X(ʯt),Magnetic field Y(ʯt),Magnetic field Z(ʯt),Temperature(℃),Quaternions 0(),Quaternions 1(),Quaternions 2(),Quaternions 3()
 14:06:20.117,ed:40:fe:65:30:6c, 2015-01-01 00:29:25.855, 0.38, 0.103, 0.917, 0.244, -0.793, 1.587, 6.806, -22.341, -142.712, -12.993, -12.100, -7.947, 25.66, -0.32196, 0.1637, 0.11685, 0.92508,
 14:06:20.117,ed:40:fe:65:30:6c, 2015-01-01 00:29:25.855, 0.382, 0.104, 0.916, 0.244, -0.793, 1.404, 6.795, -22.357, -142.674, -12.993, -12.100, -7.947, 25.66, -0.32196, 0.1637, 0.11685, 0.92508,
 14:06:20.120,e3:ca:2d:fd:e0:8c, 2015-01-01 00:29:14.900, 0.993, 0.011, 0.24, 0.977, 0, 0.732, 2.401, -76.234, 158.802, -26.373, -10.800, -8.907, 29.43, 0.13211, 0.60959, -0.09735, 0.77548,
 14:06:20.120,e3:ca:2d:fd:e0:8c, 2015-01-01 00:29:14.900, 0.995, 0.01, 0.24, 1.038, 0, 0.549, 2.362, -76.234, 158.884, -26.373, -10.800, -8.907, 29.43, 0.13211, 0.60959, -0.09735, 0.77548,
 14:06:20.122,ed:35:33:d3:6c:f8, 2015-01-01 00:29:13.760, 0.448, -0.03, 0.885, -0.244, 0.671, 1.892, -1.994, -26.818, 173.491, -13.720, -10.273, -31.267, 30.67, -0.0592, -0.23053, 0.03006, -0.97073,
 14:06:20.122,ed:35:33:d3:6c:f8, 2015-01-01 00:29:13.760, 0.447, -0.033, 0.889, -0.793, 0.366, 1.221, -2.016, -26.801, 173.557, -13.720, -10.273, -31.267, 30.67, -0.0592, -0.23053, 0.03006, -0.97073,
 14:06:20.149,ed:40:fe:65:30:6c, 2015-01-01 00:29:25.855, 0.384, 0.105, 0.919, 0.122, -0.671, 1.099, 6.784, -22.374, -142.614, -12.993, -12.100, -7.947, 25.66, -0.32196, 0.1637, 0.11685, 0.92508,
 14:06:20.149,ed:40:fe:65:30:6c, 2015-01-01 00:29:25.855, 0.384, 0.105, 0.922, 0.183, -0.793, 0.977, 6.779, -22.39, -142.564, -12.993, -12.100, -7.947, 25.66, -0.32196, 0.1637, 0.11685, 0.92508,
 14:06:20.157,f6:90:cc:01:6d:25, 2015-01-01 00:29:12.620, 0.891, 0.124, 0.406, 0.977, -0.183, 0.488, 16.793, -64.27, -171.183, -26.993, -13.847, -7.487, 31.98, -0.14017, 0.51477, 0.1629, 0.8299,
 14:06:20.157,f6:90:cc:01:6d:25, 2015-01-01 00:29:12.620, 0.896, 0.125, 0.408, 0.916, -0.549, 0.305, 16.798, -64.286, -171.183, -26.993, -13.847, -7.487, 31.98, -0.14017, 0.51477, 0.1629, 0.8299,
 14:06:20.178,ed:40:fe:65:30:6c, 2015-01-01 00:29:25.855, 0.382, 0.104, 0.923, 0.183, -0.854, 0.977, 6.773, -22.412, -142.531, -12.993, -12.100, -7.947, 25.66, -0.32196, 0.1637, 0.11685, 0.92508,
 14:06:20.178,ed:40:fe:65:30:6c, 2015-01-01 00:29:25.855, 0.383, 0.106, 0.918, 0.244, -0.977, 0.977, 6.768, -22.429, -142.498, -12.993, -12.100, -7.947, 25.66, -0.32196, 0.1637, 0.11685, 0.92508,
 14:06:20.180,e3:ca:2d:fd:e0:8c, 2015-01-01 00:29:14.900, 0.996, 0.012, 0.239, 0.977, 0, 0.488, 2.34, -76.234, 158.945, -26.373, -10.800, -8.907, 29.43, 0.13211, 0.60959, -0.09735, 0.77548,
 14:06:20.180,e3:ca:2d:fd:e0:8c, 2015-01-01 00:29:14.900, 0.991, 0.008, 0.238, 1.16, -0.061, 0.427, 2.324, -76.24, 158.989, -26.373, -10.800, -8.907, 29.43, 0.13211, 0.60959, -0.09735, 0.77548,
 14:06:20.182,ed:35:33:d3:6c:f8, 2015-01-01 00:29:13.760, 0.451, -0.032, 0.893, -0.977, 0.122, 0.916, -2.043, -26.796, 173.6, -13.720, -10.273, -31.267, 30.67, -0.0592, -0.23053, 0.03006, -0.97073,
 14:06:20.182,ed:35:33:d3:6c:f8, 2015-01-01 00:29:13.760, 0.448, -0.033, 0.891, -0.488, -0.488, 1.282, -2.071, -26.796, 173.628, -13.720, -10.273, -31.267, 30.67, -0.0592, -0.23053, 0.03006, -0.97073,
 14:06:20.211,e3:ca:2d:fd:e0:8c, 2015-01-01 00:29:15.290, 0.992, 0.01, 0.237, 1.404, 0, 0.427, 2.313, -76.24, 159.016, -26.373, -10.800, -8.907, 29.43, 0.13211, 0.60959, -0.09735, 0.77548,
 14:06:20.211,e3:ca:2d:fd:e0:8c, 2015-01-01 00:29:15.290, 0.989, 0.012, 0.239, 1.16, 0.061, 0.305, 2.307, -76.245, 159.055, -26.373, -10.800, -8.907, 29.43, 0.13211, 0.60959, -0.09735, 0.77548,
 14:06:20.213,ed:35:33:d3:6c:f8, 2015-01-01 00:29:14.180, 0.445, -0.032, 0.889, -0.305, -0.244, 1.16, -2.087, -26.801, 173.644, -13.720, -10.273, -31.267, 30.67, -0.0592, -0.23053, 0.03006, -0.97073,
 14:06:20.213,ed:35:33:d3:6c:f8, 2015-01-01 00:29:14.180, 0.445, -0.032, 0.888, -0.488, -0.427, 0.671, -2.104, -26.807, 173.672, -13.720, -10.273, -31.267, 30.67, -0.0592, -0.23053, 0.03006, -0.97073,
 14:06:20.217,f6:90:cc:01:6d:25, 2015-01-01 00:29:12.620, 0.892, 0.121, 0.407, 0.916, -0.549, 0.183, 16.815, -64.297, -171.189, -26.993, -13.847, -7.487, 31.98, -0.14017, 0.51477, 0.1629, 0.8299,
 14:06:20.217,f6:90:cc:01:6d:25, 2015-01-01 00:29:12.620, 0.891, 0.123, 0.404, 0.854, -0.366, 0.183, 16.826, -64.308, -171.2, -26.993, -13.847, -7.487, 31.98, -0.14017, 0.51477, 0.1629, 0.8299,
 14:06:20.237,ed:40:fe:65:30:6c, 2015-01-01 00:29:25.855, 0.382, 0.105, 0.917, 0.427, -0.916, 0.916, 6.762, -22.451, -142.465, -12.993, -12.100, -7.947, 25.66, -0.32196, 0.1637, 0.11685, 0.92508,
 14:06:20.237,ed:40:fe:65:30:6c, 2015-01-01 00:29:25.855, 0.379, 0.103, 0.915, 0.427, -0.916, 0.732, 6.762, -22.473, -142.443, -12.993, -12.100, -7.947, 25.66, -0.32196, 0.1637, 0.11685, 0.92508,
 14:06:20.241,e3:ca:2d:fd:e0:8c, 2015-01-01 00:29:15.290, 0.987, 0.011, 0.241, 0.916, 0.122, 0.244, 2.307, -76.245, 159.088, -26.373, -10.800, -8.907, 29.43, 0.13211, 0.60959, -0.09735, 0.77548,
 14:06:20.241,e3:ca:2d:fd:e0:8c, 2015-01-01 00:29:15.290, 0.988, 0.011, 0.241, 0.793, 0, 0.183, 2.307, -76.245, 159.126, -26.373, -10.800, -8.907, 29.43, 0.13211, 0.60959, -0.09735, 0.77548,
 14:06:20.243,ed:35:33:d3:6c:f8, 2015-01-01 00:29:14.180, 0.442, -0.033, 0.885, -0.732, 0.061, 0.61, -2.12, -26.812, 173.688, -13.720, -10.273, -31.267, 30.67, -0.0592, -0.23053, 0.03006, -0.97073,
 14:06:20.243,ed:35:33:d3:6c:f8, 2015-01-01 00:29:14.180, 0.441, -0.034, 0.886, -0.854, -0.916, 0.793, -2.142, -26.812, 173.716, -13.720, -10.273, -31.267, 30.67, -0.0592, -0.23053, 0.03006, -0.97073,
 14:06:20.266,ed:40:fe:65:30:6c, 2015-01-01 00:29:25.855, 0.38, 0.103, 0.916, 0.488, -0.916, 0.61, 6.762, -22.489, -142.416, -13.000, -11.980, -7.513, 25.66, -0.32196, 0.1637, 0.11685, 0.92508,
 14:06:20.266,ed:40:fe:65:30:6c, 2015-01-01 00:29:25.855, 0.38, 0.103, 0.916, 0.549, -0.977, 0.427, 6.768, -22.511, -142.388, -13.000, -11.980, -7.513, 25.66, -0.32196, 0.1637, 0.11685, 0.92508,
 14:06:20.275,f6:90:cc:01:6d:25, 2015-01-01 00:29:12.620, 0.89, 0.124, 0.406, 0.916, -0.244, 0.183, 16.842, -64.319, -171.194, -26.993, -13.847, -7.487, 31.98, -0.14017, 0.51477, 0.1629, 0.8299,
 14:06:20.275,f6:90:cc:01:6d:25, 2015-01-01 00:29:12.620, 0.887, 0.124, 0.408, 0.916, -0.122, 0.122, 16.853, -64.325, -171.205, -26.993, -13.847, -7.487, 31.98, -0.14017, 0.51477, 0.1629, 0.8299,
 14:06:20.278,f6:90:cc:01:6d:25, 2015-01-01 00:29:12.620, 0.887, 0.123, 0.407, 0.916, -0.122, 0, 16.87, -64.33, -171.216, -26.993, -13.847, -7.487, 31.98, -0.14017, 0.51477, 0.1629, 0.8299,
 14:06:20.278,f6:90:cc:01:6d:25, 2015-01-01 00:29:12.620, 0.887, 0.124, 0.408, 0.854, -0.061, -0.061, 16.891, -64.33, -171.216, -26.993, -13.847, -7.487, 31.98, -0.14017, 0.51477, 0.1629, 0.8299,
 14:06:20.297,ed:40:fe:65:30:6c, 2015-01-01 00:29:25.855, 0.38, 0.104, 0.915, 0.488, -0.854, 0.244, 6.773, -22.527, -142.383, -13.000, -11.980, -7.513, 25.66, -0.32196, 0.1637, 0.11685, 0.92508,
 14:06:20.297,ed:40:fe:65:30:6c, 2015-01-01 00:29:25.855, 0.382, 0.105, 0.915, 0.61, -0.61, 0.122, 6.779, -22.544, -142.377, -13.000, -11.980, -7.513, 25.66, -0.32196, 0.1637, 0.11685, 0.92508,
 14:06:20.300,e3:ca:2d:fd:e0:8c, 2015-01-01 00:29:15.290, 0.989, 0.01, 0.241, 0.61, 0, 0.061, 2.313, -76.245, 159.164, -26.373, -10.800, -8.907, 29.43, 0.13211, 0.60959, -0.09735, 0.77548,
 14:06:20.300,e3:ca:2d:fd:e0:8c, 2015-01-01 00:29:15.290, 0.99, 0.01, 0.242, 0.244, 0.061, 0, 2.324, -76.245, 159.186, -26.373, -10.800, -8.907, 29.43, 0.13211, 0.60959, -0.09735, 0.77548,
 14:06:20.302,ed:35:33:d3:6c:f8, 2015-01-01 00:29:14.180, 0.443, -0.033, 0.887, -0.427, -0.549, 0.488, -2.164, -26.823, 173.738, -13.720, -10.273, -31.267, 30.67, -0.0592, -0.23053, 0.03006, -0.97073,
 14:06:20.302,ed:35:33:d3:6c:f8, 2015-01-01 00:29:14.180, 0.442, -0.035, 0.884, 0.488, -1.221, 0.916, -2.175, -26.84, 173.754, -13.720, -10.273, -31.267, 30.67, -0.0592, -0.23053, 0.03006, -0.97073,
 14:06:20.305,f6:90:cc:01:6d:25, 2015-01-01 00:29:12.620, 0.887, 0.124, 0.409, 0.61, -0.244, -0.122, 16.908, -64.336, -171.222, -26.907, -13.547, -7.600, 31.98, -0.14017, 0.51477, 0.1629, 0.8299,
 14:06:20.305,f6:90:cc:01:6d:25, 2015-01-01 00:29:12.620, 0.889, 0.124, 0.408, 0.549, -0.366, -0.122, 16.924, -64.341, -171.233, -26.907, -13.547, -7.600, 31.98, -0.14017, 0.51477, 0.1629, 0.8299,
 14:06:20.330,e3:ca:2d:fd:e0:8c, 2015-01-01 00:29:15.290, 0.991, 0.009, 0.242, -0.366, 0.244, 0, 2.324, -76.245, 159.192, -26.373, -10.800, -8.907, 29.43, 0.13211, 0.60959, -0.09735, 0.77548,
 14:06:20.330,e3:ca:2d:fd:e0:8c, 2015-01-01 00:29:15.290, 0.991, 0.008, 0.242, -0.549, 0.244, 0, 2.313, -76.24, 159.197, -26.373, -10.800, -8.907, 29.43, 0.13211, 0.60959, -0.09735, 0.77548,
 14:06:20.334,ed:35:33:d3:6c:f8, 2015-01-01 00:29:14.180, 0.445, -0.033, 0.884, 0.427, -0.183, 0.183, -2.17, -26.851, 173.793, -13.720, -10.273, -31.267, 30.67, -0.0592, -0.23053, 0.03006, -0.97073,
 14:06:20.334,ed:35:33:d3:6c:f8, 2015-01-01 00:29:14.180, 0.448, -0.031, 0.887, -0.61, 0.61, -0.61, -2.164, -26.851, 173.809, -13.720, -10.273, -31.267, 30.67, -0.0592, -0.23053, 0.03006, -0.97073,
 14:06:20.357,ed:40:fe:65:30:6c, 2015-01-01 00:29:25.855, 0.385, 0.107, 0.916, 0.488, -0.488, 0.061, 6.784, -22.555, -142.372, -13.000, -11.980, -7.513, 25.66, -0.32657, 0.16602, 0.1178, 0.92294,
 14:06:20.357,ed:40:fe:65:30:6c, 2015-01-01 00:29:25.855, 0.383, 0.103, 0.917, 0.366, -0.305, 0.122, 6.79, -22.56, -142.366, -13.000, -11.980, -7.513, 25.66, -0.32657, 0.16602, 0.1178, 0.92294,
 14:06:20.362,ed:35:33:d3:6c:f8, 2015-01-01 00:29:14.180, 0.443, -0.033, 0.884, 0, 0, -0.427, -2.17, -26.84, 173.837, -13.720, -10.273, -31.267, 30.67, -0.0592, -0.23053, 0.03006, -0.97073,
 14:06:20.362,ed:35:33:d3:6c:f8, 2015-01-01 00:29:14.180, 0.446, -0.036, 0.881, -0.061, -0.427, -0.61, -2.164, -26.84, 173.859, -13.720, -10.273, -31.267, 30.67, -0.0592, -0.23053, 0.03006, -0.97073,
 14:06:20.366,f6:90:cc:01:6d:25, 2015-01-01 00:29:12.620, 0.891, 0.122, 0.408, 0.427, -0.305, -0.122, 16.946, -64.347, -171.238, -26.907, -13.547, -7.600, 31.98, -0.14017, 0.51477, 0.1629, 0.8299,
 14:06:20.366,f6:90:cc:01:6d:25, 2015-01-01 00:29:12.620, 0.888, 0.122, 0.404, 0.061, -0.122, 0, 16.952, -64.352, -171.255, -26.907, -13.547, -7.600, 31.98, -0.14017, 0.51477, 0.1629, 0.8299,
 14:06:20.386,ed:40:fe:65:30:6c, 2015-01-01 00:29:26.240, 0.382, 0.103, 0.91, 0.366, 0, 0, 6.795, -22.566, -142.35, -13.000, -11.980, -7.513, 25.66, -0.32657, 0.16602, 0.1178, 0.92294,
 14:06:20.386,ed:40:fe:65:30:6c, 2015-01-01 00:29:26.240, 0.381, 0.102, 0.914, 0.61, 0.488, -0.122, 6.801, -22.56, -142.339, -13.000, -11.980, -7.513, 25.66, -0.32657, 0.16602, 0.1178, 0.92294,
 14:06:20.393,e3:ca:2d:fd:e0:8c, 2015-01-01 00:29:15.290, 0.985, 0.009, 0.24, -0.854, 0.366, 0, 2.302, -76.234, 159.241, -26.373, -10.800, -8.907, 29.43, 0.13211, 0.60959, -0.09735, 0.77548,
 14:06:20.393,e3:ca:2d:fd:e0:8c, 2015-01-01 00:29:15.290, 0.987, 0.007, 0.239, -1.221, 0.488, 0, 2.28, -76.229, 159.274, -26.373, -10.800, -8.907, 29.43, 0.13211, 0.60959, -0.09735, 0.77548,
 14:06:20.397,f6:90:cc:01:6d:25, 2015-01-01 00:29:12.620, 0.885, 0.121, 0.405, 0, 0, -0.122, 16.952, -64.352, -171.266, -26.907, -13.547, -7.600, 31.98, -0.14212, 0.51566, 0.16458, 0.82867,
 14:06:20.397,f6:90:cc:01:6d:25, 2015-01-01 00:29:12.620, 0.89, 0.124, 0.403, -0.488, 0.122, -0.122, 16.952, -64.352, -171.277, -26.907, -13.547, -7.600, 31.98, -0.14212, 0.51566, 0.16458, 0.82867,
 14:06:20.417,ed:40:fe:65:30:6c, 2015-01-01 00:29:26.240, 0.381, 0.105, 0.918, 0.366, 0.305, -0.366, 6.806, -22.555, -142.35, -13.000, -11.980, -7.513, 25.66, -0.32657, 0.16602, 0.1178, 0.92294,
 14:06:20.417,ed:40:fe:65:30:6c, 2015-01-01 00:29:26.240, 0.384, 0.107, 0.917, 0, 0.671, -0.549, 6.812, -22.544, -142.372, -13.000, -11.980, -7.513, 25.66, -0.32657, 0.16602, 0.1178, 0.92294,
 14:06:20.420,e3:ca:2d:fd:e0:8c, 2015-01-01 00:29:15.290, 0.991, 0.011, 0.239, -1.77, 0.671, -0.244, 2.258, -76.218, 159.269, -26.020, -10.487, -10.167, 29.43, 0.13211, 0.60959, -0.09735, 0.77548,
 14:06:20.420,e3:ca:2d:fd:e0:8c, 2015-01-01 00:29:15.290, 0.991, 0.012, 0.245, -2.441, 0.732, -0.244, 2.23, -76.201, 159.23, -26.020, -10.487, -10.167, 29.43, 0.13211, 0.60959, -0.09735, 0.77548,
 14:06:20.423,ed:35:33:d3:6c:f8, 2015-01-01 00:29:14.180, 0.443, -0.034, 0.881, 0.366, 0, -0.366, -2.159, -26.845, 173.875, -13.720, -10.273, -31.267, 30.67, -0.0592, -0.23053, 0.03006, -0.97073,
 14:06:20.423,ed:35:33:d3:6c:f8, 2015-01-01 00:29:14.180, 0.443, -0.035, 0.885, 0.305, 0.305, -0.183, -2.148, -26.84, 173.886, -13.720, -10.273, -31.267, 30.67, -0.0592, -0.23053, 0.03006, -0.97073,
 14:06:20.428,f6:90:cc:01:6d:25, 2015-01-01 00:29:12.620, 0.89, 0.125, 0.411, -0.671, 0.183, -0.244, 16.946, -64.352, -171.288, -26.907, -13.547, -7.600, 31.98, -0.14212, 0.51566, 0.16458, 0.82867,
 14:06:20.428,f6:90:cc:01:6d:25, 2015-01-01 00:29:12.620, 0.893, 0.123, 0.408, -0.854, 0, -0.305, 16.935, -64.347, -171.304, -26.907, -13.547, -7.600, 31.98, -0.14212, 0.51566, 0.16458, 0.82867,
 14:06:20.452,e3:ca:2d:fd:e0:8c, 2015-01-01 00:29:15.290, 0.995, 0.008, 0.243, -2.747, 0.977, -0.183, 2.197, -76.19, 159.214, -26.020, -10.487, -10.167, 29.43, 0.13211, 0.60959, -0.09735, 0.77548,
 14:06:20.452,e3:ca:2d:fd:e0:8c, 2015-01-01 00:29:15.290, 0.994, 0.008, 0.242, -3.174, 1.038, -0.183, 2.153, -76.168, 159.225, -26.020, -10.487, -10.167, 29.43, 0.13211, 0.60959, -0.09735, 0.77548,
 14:06:20.453,ed:35:33:d3:6c:f8, 2015-01-01 00:29:14.180, 0.447, -0.03, 0.888, 0, 0.305, -0.854, -2.137, -26.834, 173.892, -14.453, -9.987, -31.060, 30.67, -0.0592, -0.23053, 0.03006, -0.97073,
 14:06:20.453,ed:35:33:d3:6c:f8, 2015-01-01 00:29:14.180, 0.448, -0.032, 0.889, -0.122, 0.061, -1.16, -2.131, -26.829, 173.897, -14.453, -9.987, -31.060, 30.67, -0.0592, -0.23053, 0.03006, -0.97073,
 14:06:20.476,ed:40:fe:65:30:6c, 2015-01-01 00:29:26.240, 0.385, 0.107, 0.919, 0.061, 0.793, -0.488, 6.812, -22.527, -142.388, -13.000, -11.980, -7.513, 25.66, -0.32657, 0.16602, 0.1178, 0.92294,
 14:06:20.476,ed:40:fe:65:30:6c, 2015-01-01 00:29:26.240, 0.383, 0.108, 0.918, 0.122, 0.916, -0.61, 6.812, -22.511, -142.394, -13.000, -11.980, -7.513, 25.66, -0.32657, 0.16602, 0.1178, 0.92294,
 14:06:20.484,ed:35:33:d3:6c:f8, 2015-01-01 00:29:14.180, 0.45, -0.031, 0.888, 0.183, 0.061, -1.343, -2.12, -26.823, 173.903, -14.453, -9.987, -31.060, 30.67, -0.0592, -0.23053, 0.03006, -0.97073,
 14:06:20.484,ed:35:33:d3:6c:f8, 2015-01-01 00:29:14.180, 0.448, -0.03, 0.884, 1.099, 0.183, -1.648, -2.098, -26.823, 173.908, -14.453, -9.987, -31.060, 30.67, -0.0592, -0.23053, 0.03006, -0.97073,
 14:06:20.486,f6:90:cc:01:6d:25, 2015-01-01 00:29:13.065, 0.894, 0.123, 0.407, -1.099, -0.061, -0.244, 16.924, -64.347, -171.31, -26.907, -13.547, -7.600, 31.98, -0.14212, 0.51566, 0.16458, 0.82867,
 14:06:20.486,f6:90:cc:01:6d:25, 2015-01-01 00:29:13.065, 0.891, 0.125, 0.407, -1.099, -0.244, -0.183, 16.913, -64.352, -171.315, -26.907, -13.547, -7.600, 31.98, -0.14212, 0.51566, 0.16458, 0.82867,
 14:06:20.507,ed:40:fe:65:30:6c, 2015-01-01 00:29:26.240, 0.383, 0.109, 0.917, 0.183, 1.221, -0.732, 6.817, -22.489, -142.399, -13.000, -11.980, -7.513, 25.66, -0.32657, 0.16602, 0.1178, 0.92294,
 14:06:20.507,ed:40:fe:65:30:6c, 2015-01-01 00:29:26.240, 0.381, 0.108, 0.917, 0.061, 1.221, -0.977, 6.823, -22.462, -142.405, -13.000, -11.980, -7.513, 25.66, -0.32657, 0.16602, 0.1178, 0.92294,
 14:06:20.511,e3:ca:2d:fd:e0:8c, 2015-01-01 00:29:15.290, 0.991, 0.009, 0.242, -3.357, 1.221, -0.183, 2.098, -76.146, 159.247, -26.020, -10.487, -10.167, 29.43, 0.13046, 0.60922, -0.09665, 0.77612,
 14:06:20.511,e3:ca:2d:fd:e0:8c, 2015-01-01 00:29:15.290, 0.991, 0.011, 0.242, -3.418, 1.343, -0.244, 2.049, -76.124, 159.258, -26.020, -10.487, -10.167, 29.43, 0.13046, 0.60922, -0.09665, 0.77612,
 14:06:20.517,f6:90:cc:01:6d:25, 2015-01-01 00:29:13.065, 0.891, 0.127, 0.406, -1.282, -0.366, -0.122, 16.897, -64.358, -171.321, -26.907, -13.547, -7.600, 31.98, -0.14212, 0.51566, 0.16458, 0.82867,
 14:06:20.517,f6:90:cc:01:6d:25, 2015-01-01 00:29:13.065, 0.89, 0.127, 0.406, -1.343, -0.366, -0.183, 16.886, -64.369, -171.31, -26.907, -13.547, -7.600, 31.98, -0.14212, 0.51566, 0.16458, 0.82867,
 14:06:20.536,ed:40:fe:65:30:6c, 2015-01-01 00:29:26.240, 0.381, 0.107, 0.919, 0.061, 1.038, -1.16, 6.828, -22.44, -142.41, -13.000, -11.980, -7.513, 25.66, -0.32657, 0.16602, 0.1178, 0.92294,
 14:06:20.536,ed:40:fe:65:30:6c, 2015-01-01 00:29:26.240, 0.382, 0.104, 0.919, 0.244, 0.977, -1.221, 6.839, -22.418, -142.421, -13.000, -11.980, -7.513, 25.66, -0.32657, 0.16602, 0.1178, 0.92294,
 14:06:20.540,e3:ca:2d:fd:e0:8c, 2015-01-01 00:29:15.645, 0.989, 0.013, 0.243, -3.235, 1.282, -0.305, 2.005, -76.097, 159.252, -26.020, -10.487, -10.167, 29.43, 0.13046, 0.60922, -0.09665, 0.77612,
 14:06:20.540,e3:ca:2d:fd:e0:8c, 2015-01-01 00:29:15.645, 0.99, 0.014, 0.243, -2.93, 1.099, -0.366, 1.972, -76.075, 159.263, -26.020, -10.487, -10.167, 29.43, 0.13046, 0.60922, -0.09665, 0.77612,
 14:06:20.570,e3:ca:2d:fd:e0:8c, 2015-01-01 00:29:15.645, 0.992, 0.008, 0.243, -2.686, 0.977, -0.549, 1.961, -76.058, 159.263, -26.020, -10.487, -10.167, 29.43, 0.13046, 0.60922, -0.09665, 0.77612,
 14:06:20.570,e3:ca:2d:fd:e0:8c, 2015-01-01 00:29:15.645, 0.993, 0.003, 0.244, -2.319, 0.793, -0.671, 1.961, -76.042, 159.258, -26.020, -10.487, -10.167, 29.43, 0.13046, 0.60922, -0.09665, 0.77612,
 14:06:20.572,ed:35:33:d3:6c:f8, 2015-01-01 00:29:14.180, 0.445, -0.031, 0.888, 0.793, 0.244, -1.648, -2.06, -26.818, 173.892, -14.453, -9.987, -31.060, 30.67, -0.05588, -0.23062, 0.03, -0.97092,
 14:06:20.572,ed:35:33:d3:6c:f8, 2015-01-01 00:29:14.180, 0.446, -0.031, 0.891, 0.916, 0.183, -1.953, -2.027, -26.812, 173.875, -14.453, -9.987, -31.060, 30.67, -0.05588, -0.23062, 0.03, -0.97092,
 14:06:20.574,ed:35:33:d3:6c:f8, 2015-01-01 00:29:14.565, 0.448, -0.03, 0.889, 1.465, 0.549, -2.075, -1.983, -26.807, 173.859, -14.453, -9.987, -31.060, 30.67, -0.05588, -0.23062, 0.03, -0.97092,
 14:06:20.574,ed:35:33:d3:6c:f8, 2015-01-01 00:29:14.565, 0.446, -0.029, 0.888, 1.465, 0.793, -1.404, -1.939, -26.796, 173.837, -14.453, -9.987, -31.060, 30.67, -0.05588, -0.23062, 0.03, -0.97092,
 14:06:20.576,f6:90:cc:01:6d:25, 2015-01-01 00:29:13.065, 0.89, 0.127, 0.405, -1.587, -0.366, -0.305, 16.875, -64.374, -171.288, -26.907, -13.547, -7.600, 31.98, -0.14212, 0.51566, 0.16458, 0.82867,
 14:06:20.576,f6:90:cc:01:6d:25, 2015-01-01 00:29:13.065, 0.893, 0.121, 0.404, -1.587, -0.305, -0.488, 16.864, -64.38, -171.293, -26.907, -13.547, -7.600, 31.98, -0.14212, 0.51566, 0.16458, 0.82867,
 14:06:20.596,ed:40:fe:65:30:6c, 2015-01-01 00:29:26.240, 0.381, 0.104, 0.921, 0.366, 0.916, -1.038, 6.85, -22.396, -142.427, -13.000, -11.980, -7.513, 25.66, -0.32657, 0.16602, 0.1178, 0.92294,
 14:06:20.596,ed:40:fe:65:30:6c, 2015-01-01 00:29:26.240, 0.381, 0.108, 0.922, 0, 0.977, -0.916, 6.861, -22.379, -142.427, -13.000, -11.980, -7.513, 25.66, -0.32657, 0.16602, 0.1178, 0.92294,
 14:06:20.602,ed:35:33:d3:6c:f8, 2015-01-01 00:29:14.565, 0.446, -0.023, 0.889, 1.465, 1.587, -1.343, -1.895, -26.774, 173.831, -14.453, -9.987, -31.060, 30.67, -0.05588, -0.23062, 0.03, -0.97092,
 14:06:20.602,ed:35:33:d3:6c:f8, 2015-01-01 00:29:14.565, 0.446, -0.021, 0.887, 1.77, 2.38, -1.16, -1.851, -26.741, 173.815, -14.453, -9.987, -31.060, 30.67, -0.05588, -0.23062, 0.03, -0.97092,
 14:06:20.606,f6:90:cc:01:6d:25, 2015-01-01 00:29:13.065, 0.894, 0.117, 0.404, -1.648, -0.305, -0.61, 16.864, -64.38, -171.31, -26.907, -13.547, -7.600, 31.98, -0.14212, 0.51566, 0.16458, 0.82867,
 14:06:20.606,f6:90:cc:01:6d:25, 2015-01-01 00:29:13.065, 0.895, 0.118, 0.407, -1.465, -0.244, -0.549, 16.859, -64.385, -171.326, -26.907, -13.547, -7.600, 31.98, -0.14212, 0.51566, 0.16458, 0.82867,
 14:06:20.626,ed:40:fe:65:30:6c, 2015-01-01 00:29:26.240, 0.382, 0.11, 0.918, -0.061, 1.343, -0.549, 6.861, -22.352, -142.421, -13.533, -12.080, -7.213, 25.66, -0.32657, 0.16602, 0.1178, 0.92294,
 14:06:20.626,ed:40:fe:65:30:6c, 2015-01-01 00:29:26.240, 0.38, 0.105, 0.917, 0.061, 1.587, -0.305, 6.861, -22.324, -142.416, -13.533, -12.080, -7.213, 25.66, -0.32657, 0.16602, 0.1178, 0.92294,
 14:06:20.630,e3:ca:2d:fd:e0:8c, 2015-01-01 00:29:15.645, 0.992, 0.002, 0.245, -2.014, 0.732, -0.549, 1.967, -76.031, 159.23, -26.020, -10.487, -10.167, 29.43, 0.13046, 0.60922, -0.09665, 0.77612,
 14:06:20.630,e3:ca:2d:fd:e0:8c, 2015-01-01 00:29:15.645, 0.99, 0, 0.245, -1.709, 0.732, -0.305, 1.961, -76.014, 159.203, -26.020, -10.487, -10.167, 29.43, 0.13046, 0.60922, -0.09665, 0.77612,
 14:06:20.638,f6:90:cc:01:6d:25, 2015-01-01 00:29:13.065, 0.892, 0.116, 0.407, -1.099, -0.183, -0.427, 16.853, -64.391, -171.321, -26.907, -13.547, -7.600, 31.98, -0.14212, 0.51566, 0.16458, 0.82867,
 14:06:20.638,f6:90:cc:01:6d:25, 2015-01-01 00:29:13.065, 0.892, 0.117, 0.406, -0.732, -0.061, -0.244, 16.842, -64.391, -171.321, -26.907, -13.547, -7.600, 31.98, -0.14212, 0.51566, 0.16458, 0.82867,
 14:06:20.658,ed:40:fe:65:30:6c, 2015-01-01 00:29:26.240, 0.382, 0.105, 0.919, 0.122, 1.526, -0.366, 6.861, -22.297, -142.421, -13.533, -12.080, -7.213, 25.66, -0.32657, 0.16602, 0.1178, 0.92294,
 14:06:20.658,ed:40:fe:65:30:6c, 2015-01-01 00:29:26.240, 0.38, 0.105, 0.921, -0.061, 1.221, -0.488, 6.861, -22.269, -142.427, -13.533, -12.080, -7.213, 25.66, -0.32657, 0.16602, 0.1178, 0.92294,
 14:06:20.661,e3:ca:2d:fd:e0:8c, 2015-01-01 00:29:15.645, 0.992, 0.003, 0.244, -1.282, 0.671, -0.244, 1.945, -76.003, 159.17, -26.020, -10.487, -10.167, 29.43, 0.13046, 0.60922, -0.09665, 0.77612,
 14:06:20.661,e3:ca:2d:fd:e0:8c, 2015-01-01 00:29:15.645, 0.992, 0.004, 0.244, -0.977, 0.549, -0.244, 1.934, -75.992, 159.126, -26.020, -10.487, -10.167, 29.43, 0.13046, 0.60922, -0.09665, 0.77612,
 14:06:20.663,ed:35:33:d3:6c:f8, 2015-01-01 00:29:14.565, 0.443, -0.03, 0.887, 2.014, 1.892, -0.549, -1.802, -26.697, 173.82, -14.453, -9.987, -31.060, 30.67, -0.05588, -0.23062, 0.03, -0.97092,
 14:06:20.663,ed:35:33:d3:6c:f8, 2015-01-01 00:29:14.565, 0.444, -0.028, 0.891, 2.197, 1.77, -0.366, -1.758, -26.658, 173.837, -14.453, -9.987, -31.060, 30.67, -0.05588, -0.23062, 0.03, -0.97092,
 14:06:20.667,f6:90:cc:01:6d:25, 2015-01-01 00:29:13.065, 0.894, 0.119, 0.405, -0.549, 0, -0.183, 16.837, -64.391, -171.343, -26.753, -13.733, -7.673, 31.98, -0.14212, 0.51566, 0.16458, 0.82867,
 14:06:20.667,f6:90:cc:01:6d:25, 2015-01-01 00:29:13.065, 0.894, 0.119, 0.403, -0.61, 0, -0.122, 16.826, -64.396, -171.365, -26.753, -13.733, -7.673, 31.98, -0.14212, 0.51566, 0.16458, 0.82867,
 14:06:20.691,e3:ca:2d:fd:e0:8c, 2015-01-01 00:29:15.645, 0.991, 0.004, 0.242, -0.671, 0.61, -0.183, 1.928, -75.987, 159.104, -26.020, -10.487, -10.167, 29.43, 0.13046, 0.60922, -0.09665, 0.77612,
 14:06:20.691,e3:ca:2d:fd:e0:8c, 2015-01-01 00:29:15.645, 0.992, 0.005, 0.243, -0.671, 0.488, -0.183, 1.917, -75.976, 159.071, -26.020, -10.487, -10.167, 29.43, 0.13046, 0.60922, -0.09665, 0.77612,
 14:06:20.693,ed:35:33:d3:6c:f8, 2015-01-01 00:29:14.565, 0.446, -0.027, 0.893, 1.282, 1.648, -0.549, -1.714, -26.625, 173.853, -14.453, -9.987, -31.060, 30.67, -0.05588, -0.23062, 0.03, -0.97092,
 14:06:20.693,ed:35:33:d3:6c:f8, 2015-01-01 00:29:14.565, 0.443, -0.025, 0.89, 2.136, 0.549, -0.427, -1.681, -26.598, 173.875, -14.453, -9.987, -31.060, 30.67, -0.05588, -0.23062, 0.03, -0.97092,
 14:06:20.718,ed:40:fe:65:30:6c, 2015-01-01 00:29:26.240, 0.381, 0.107, 0.92, -0.183, 1.16, -0.427, 6.861, -22.247, -142.438, -13.533, -12.080, -7.213, 25.66, -0.32632, 0.16357, 0.11768, 0.92346,
 14:06:20.718,ed:40:fe:65:30:6c, 2015-01-01 00:29:26.240, 0.382, 0.107, 0.919, -0.183, 0.916, -0.366, 6.855, -22.225, -142.449, -13.533, -12.080, -7.213, 25.66, -0.32632, 0.16357, 0.11768, 0.92346,
 14:06:20.722,ed:35:33:d3:6c:f8, 2015-01-01 00:29:14.565, 0.446, -0.023, 0.893, 1.587, 0.854, -0.427, -1.637, -26.587, 173.886, -14.453, -9.987, -31.060, 30.67, -0.05588, -0.23062, 0.03, -0.97092,
 14:06:20.722,ed:35:33:d3:6c:f8, 2015-01-01 00:29:14.565, 0.445, -0.025, 0.892, 1.282, 0.549, -0.366, -1.604, -26.57, 173.886, -14.453, -9.987, -31.060, 30.67, -0.05588, -0.23062, 0.03, -0.97092,
 14:06:20.725,f6:90:cc:01:6d:25, 2015-01-01 00:29:13.065, 0.893, 0.119, 0.402, -0.732, 0, -0.061, 16.809, -64.396, -171.398, -26.753, -13.733, -7.673, 31.98, -0.14212, 0.51566, 0.16458, 0.82867,
 14:06:20.725,f6:90:cc:01:6d:25, 2015-01-01 00:29:13.065, 0.894, 0.12, 0.405, -0.916, 0, 0, 16.793, -64.402, -171.447, -26.753, -13.733, -7.673, 31.98, -0.14212, 0.51566, 0.16458, 0.82867,
 14:06:20.750,e3:ca:2d:fd:e0:8c, 2015-01-01 00:29:15.645, 0.993, 0.005, 0.245, -0.671, 0.549, -0.122, 1.906, -75.97, 159.038, -26.020, -10.487, -10.167, 29.43, 0.13046, 0.60922, -0.09665, 0.77612,
 14:06:20.750,e3:ca:2d:fd:e0:8c, 2015-01-01 00:29:15.645, 0.992, 0.006, 0.242, -0.549, 0.61, -0.305, 1.906, -75.959, 159.016, -26.020, -10.487, -10.167, 29.43, 0.13046, 0.60922, -0.09665, 0.77612,
 14:06:20.756,f6:90:cc:01:6d:25, 2015-01-01 00:29:13.065, 0.896, 0.12, 0.402, -0.732, -0.061, 0, 16.771, -64.407, -171.497, -26.753, -13.733, -7.673, 31.98, -0.14011, 0.51645, 0.1626, 0.82892,
 14:06:20.756,f6:90:cc:01:6d:25, 2015-01-01 00:29:13.065, 0.888, 0.114, 0.404, -0.732, 0, -0.183, 16.76, -64.407, -171.546, -26.753, -13.733, -7.673, 31.98, -0.14011, 0.51645, 0.1626, 0.82892,
 14:06:20.777,ed:40:fe:65:30:6c, 2015-01-01 00:29:26.600, 0.382, 0.104, 0.923, 0, 0.732, -0.183, 6.85, -22.209, -142.454, -13.533, -12.080, -7.213, 25.66, -0.32632, 0.16357, 0.11768, 0.92346,
 14:06:20.777,ed:40:fe:65:30:6c, 2015-01-01 00:29:26.600, 0.375, 0.103, 0.92, 0.122, 0.549, -0.061, 6.85, -22.198, -142.465, -13.533, -12.080, -7.213, 25.66, -0.32632, 0.16357, 0.11768, 0.92346,
 14:06:20.781,e3:ca:2d:fd:e0:8c, 2015-01-01 00:29:15.645, 0.988, 0.004, 0.245, -0.549, 0.488, -0.183, 1.906, -75.954, 158.978, -26.020, -10.260, -10.107, 29.43, 0.13046, 0.60922, -0.09665, 0.77612,
 14:06:20.781,e3:ca:2d:fd:e0:8c, 2015-01-01 00:29:15.645, 0.99, 0.014, 0.245, -0.488, 0.427, -0.244, 1.901, -75.943, 158.95, -26.020, -10.260, -10.107, 29.43, 0.13046, 0.60922, -0.09665, 0.77612,
 14:06:20.783,ed:35:33:d3:6c:f8, 2015-01-01 00:29:14.565, 0.438, -0.029, 0.89, 1.892, 0.977, 0.122, -1.577, -26.554, 173.886, -14.453, -9.987, -31.060, 30.67, -0.05588, -0.23062, 0.03, -0.97092,
 14:06:20.783,ed:35:33:d3:6c:f8, 2015-01-01 00:29:14.565, 0.446, -0.017, 0.889, 1.343, 0.854, -0.244, -1.544, -26.537, 173.886, -14.453, -9.987, -31.060, 30.67, -0.05588, -0.23062, 0.03, -0.97092,
 14:06:20.807,ed:40:fe:65:30:6c, 2015-01-01 00:29:26.600, 0.377, 0.11, 0.918, 0.183, 0.305, -0.183, 6.85, -22.192, -142.471, -13.533, -12.080, -7.213, 25.66, -0.32632, 0.16357, 0.11768, 0.92346,
 14:06:20.807,ed:40:fe:65:30:6c, 2015-01-01 00:29:26.600, 0.379, 0.113, 0.917, 0.305, 0.488, -0.183, 6.855, -22.187, -142.482, -13.533, -12.080, -7.213, 25.66, -0.32632, 0.16357, 0.11768, 0.92346,
 14:06:20.811,e3:ca:2d:fd:e0:8c, 2015-01-01 00:29:15.645, 0.993, 0.011, 0.248, -0.61, 0.366, -0.305, 1.912, -75.938, 158.912, -26.020, -10.260, -10.107, 29.43, 0.13046, 0.60922, -0.09665, 0.77612,
 14:06:20.811,e3:ca:2d:fd:e0:8c, 2015-01-01 00:29:15.645, 0.994, 0.007, 0.247, -0.427, 0.305, -0.183, 1.917, -75.938, 158.857, -26.020, -10.260, -10.107, 29.43, 0.13046, 0.60922, -0.09665, 0.77612,
 14:06:20.813,ed:35:33:d3:6c:f8, 2015-01-01 00:29:14.565, 0.444, -0.016, 0.886, 1.404, 0.916, -0.427, -1.511, -26.521, 173.881, -14.013, -9.827, -30.760, 30.67, -0.05588, -0.23062, 0.03, -0.97092,
 14:06:20.813,ed:35:33:d3:6c:f8, 2015-01-01 00:29:14.565, 0.445, -0.012, 0.893, 0.916, 0.977, -0.427, -1.483, -26.505, 173.864, -14.013, -9.827, -30.760, 30.67, -0.05588, -0.23062, 0.03, -0.97092,
 14:06:20.817,f6:90:cc:01:6d:25, 2015-01-01 00:29:13.065, 0.89, 0.125, 0.404, -0.854, 0.122, -0.183, 16.743, -64.407, -171.579, -26.753, -13.733, -7.673, 31.98, -0.14011, 0.51645, 0.1626, 0.82892,
 14:06:20.817,f6:90:cc:01:6d:25, 2015-01-01 00:29:13.065, 0.893, 0.126, 0.407, -0.61, 0, -0.305, 16.743, -64.407, -171.601, -26.753, -13.733, -7.673, 31.98, -0.14011, 0.51645, 0.1626, 0.82892,
 14:06:20.837,ed:40:fe:65:30:6c, 2015-01-01 00:29:26.600, 0.379, 0.115, 0.919, 0.366, 0.488, 0, 6.861, -22.176, -142.482, -13.533, -12.080, -7.213, 25.66, -0.32632, 0.16357, 0.11768, 0.92346,
 14:06:20.837,ed:40:fe:65:30:6c, 2015-01-01 00:29:26.600, 0.378, 0.113, 0.924, 0.366, 0.427, 0.122, 6.866, -22.17, -142.465, -13.533, -12.080, -7.213, 25.66, -0.32632, 0.16357, 0.11768, 0.92346,
 14:06:20.843,ed:35:33:d3:6c:f8, 2015-01-01 00:29:14.565, 0.444, -0.014, 0.895, 0.732, 0.732, -0.122, -1.461, -26.483, 173.859, -14.013, -9.827, -30.760, 30.67, -0.05588, -0.23062, 0.03, -0.97092,
 14:06:20.843,ed:35:33:d3:6c:f8, 2015-01-01 00:29:14.565, 0.441, -0.02, 0.894, 0.854, 0.366, 0.244, -1.445, -26.472, 173.859, -14.013, -9.827, -30.760, 30.67, -0.05588, -0.23062, 0.03, -0.97092,
 14:06:20.847,f6:90:cc:01:6d:25, 2015-01-01 00:29:13.425, 0.896, 0.123, 0.407, -0.549, 0, -0.183, 16.738, -64.413, -171.601, -26.753, -13.733, -7.673, 31.98, -0.14011, 0.51645, 0.1626, 0.82892,
 14:06:20.847,f6:90:cc:01:6d:25, 2015-01-01 00:29:13.425, 0.894, 0.123, 0.406, -0.488, 0.122, 0, 16.727, -64.413, -171.59, -26.753, -13.733, -7.673, 31.98, -0.14011, 0.51645, 0.1626, 0.82892,
 14:06:20.867,ed:40:fe:65:30:6c, 2015-01-01 00:29:26.600, 0.378, 0.111, 0.922, 0.183, 0.305, 0.183, 6.866, -22.165, -142.443, -13.533, -12.080, -7.213, 25.66, -0.32632, 0.16357, 0.11768, 0.92346,
 14:06:20.867,ed:40:fe:65:30:6c, 2015-01-01 00:29:26.600, 0.378, 0.11, 0.921, 0.183, 0.183, 0.061, 6.872, -22.159, -142.432, -13.533, -12.080, -7.213, 25.66, -0.32632, 0.16357, 0.11768, 0.92346,
 14:06:20.870,e3:ca:2d:fd:e0:8c, 2015-01-01 00:29:15.645, 0.991, 0.007, 0.245, -0.366, 0.427, -0.061, 1.917, -75.932, 158.807, -26.020, -10.260, -10.107, 29.43, 0.13449, 0.60709, -0.09988, 0.7767,
 14:06:20.870,e3:ca:2d:fd:e0:8c, 2015-01-01 00:29:15.645, 0.992, 0.009, 0.244, -0.305, 0.427, 0, 1.906, -75.921, 158.763, -26.020, -10.260, -10.107, 29.43, 0.13449, 0.60709, -0.09988, 0.7767,
 14:06:20.876,f6:90:cc:01:6d:25, 2015-01-01 00:29:13.425, 0.893, 0.123, 0.402, -0.549, 0.183, 0.061, 16.71, -64.413, -171.59, -26.753, -13.733, -7.673, 31.98, -0.14011, 0.51645, 0.1626, 0.82892,
 14:06:20.876,f6:90:cc:01:6d:25, 2015-01-01 00:29:13.425, 0.894, 0.125, 0.405, -0.671, 0.122, 0.122, 16.694, -64.413, -171.584, -26.753, -13.733, -7.673, 31.98, -0.14011, 0.51645, 0.1626, 0.82892,
 14:06:20.900,e3:ca:2d:fd:e0:8c, 2015-01-01 00:29:16.005, 0.991, 0.012, 0.246, -0.305, 0.366, 0, 1.901, -75.921, 158.747, -26.020, -10.260, -10.107, 29.43, 0.13449, 0.60709, -0.09988, 0.7767,
 14:06:20.900,e3:ca:2d:fd:e0:8c, 2015-01-01 00:29:16.005, 0.989, 0.01, 0.246, -0.488, 0.427, -0.061, 1.895, -75.91, 158.769, -26.020, -10.260, -10.107, 29.43, 0.13449, 0.60709, -0.09988, 0.7767,
 14:06:20.902,ed:35:33:d3:6c:f8, 2015-01-01 00:29:14.565, 0.443, -0.02, 0.894, 0.61, 0.366, 0, -1.428, -26.466, 173.859, -14.013, -9.827, -30.760, 30.67, -0.05499, -0.22794, 0.02448, -0.97177,
 14:06:20.902,ed:35:33:d3:6c:f8, 2015-01-01 00:29:14.565, 0.438, -0.022, 0.888, 1.16, 0.427, -0.061, -1.412, -26.455, 173.864, -14.013, -9.827, -30.760, 30.67, -0.05499, -0.22794, 0.02448, -0.97177,
 14:06:20.906,f6:90:cc:01:6d:25, 2015-01-01 00:29:13.425, 0.891, 0.125, 0.406, -0.732, 0.061, 0.061, 16.677, -64.413, -171.584, -26.753, -13.733, -7.673, 31.98, -0.14011, 0.51645, 0.1626, 0.82892,
 14:06:20.906,f6:90:cc:01:6d:25, 2015-01-01 00:29:13.425, 0.89, 0.121, 0.406, -0.671, 0.061, 0, 16.666, -64.413, -171.568, -26.753, -13.733, -7.673, 31.98, -0.14011, 0.51645, 0.1626, 0.82892,
 14:06:20.927,ed:40:fe:65:30:6c, 2015-01-01 00:29:26.600, 0.376, 0.107, 0.92, 0.183, 0.061, -0.061, 6.872, -22.159, -142.427, -13.533, -12.080, -7.213, 25.66, -0.32632, 0.16357, 0.11768, 0.92346,
 14:06:20.927,ed:40:fe:65:30:6c, 2015-01-01 00:29:26.600, 0.375, 0.108, 0.917, 0.244, 0.244, 0, 6.877, -22.159, -142.432, -13.533, -12.080, -7.213, 25.66, -0.32632, 0.16357, 0.11768, 0.92346,
 14:06:20.931,e3:ca:2d:fd:e0:8c, 2015-01-01 00:29:16.005, 0.988, 0.007, 0.247, -0.61, 0.427, -0.061, 1.89, -75.905, 158.774, -26.020, -10.260, -10.107, 29.43, 0.13449, 0.60709, -0.09988, 0.7767,
 14:06:20.931,e3:ca:2d:fd:e0:8c, 2015-01-01 00:29:16.005, 0.99, 0.006, 0.247, -0.671, 0.427, 0, 1.879, -75.899, 158.785, -26.020, -10.260, -10.107, 29.43, 0.13449, 0.60709, -0.09988, 0.7767,
 14:06:20.933,ed:35:33:d3:6c:f8, 2015-01-01 00:29:14.565, 0.439, -0.016, 0.892, 0.916, 0.183, 0, -1.39, -26.45, 173.859, -14.013, -9.827, -30.760, 30.67, -0.05499, -0.22794, 0.02448, -0.97177,
 14:06:20.933,ed:35:33:d3:6c:f8, 2015-01-01 00:29:14.565, 0.438, -0.017, 0.889, 1.404, 0.671, 0, -1.368, -26.444, 173.87, -14.013, -9.827, -30.760, 30.67, -0.05499, -0.22794, 0.02448, -0.97177,
 14:06:20.967,f6:90:cc:01:6d:25, 2015-01-01 00:29:13.425, 0.891, 0.118, 0.405, -0.549, 0.122, 0, 16.655, -64.413, -171.552, -26.753, -13.733, -7.673, 31.98, -0.14011, 0.51645, 0.1626, 0.82892,
 14:06:20.967,f6:90:cc:01:6d:25, 2015-01-01 00:29:13.425, 0.892, 0.118, 0.405, -0.427, 0.122, 0, 16.644, -64.413, -171.524, -26.753, -13.733, -7.673, 31.98, -0.14011, 0.51645, 0.1626, 0.82892,
 14:06:20.987,ed:40:fe:65:30:6c, 2015-01-01 00:29:26.600, 0.377, 0.108, 0.918, 0.366, 0.244, 0.061, 6.883, -22.154, -142.438, -13.207, -12.367, -8.020, 25.66, -0.32632, 0.16357, 0.11768, 0.92346,
 14:06:20.987,ed:40:fe:65:30:6c, 2015-01-01 00:29:26.600, 0.376, 0.108, 0.918, 0.549, 0.366, 0.305, 6.888, -22.148, -142.427, -13.207, -12.367, -8.020, 25.66, -0.32632, 0.16357, 0.11768, 0.92346,
 14:06:20.987,ed:40:fe:65:30:6c, 2015-01-01 00:29:26.600, 0.376, 0.108, 0.92, 0.488, 0.244, 0.305, 6.894, -22.143, -142.41, -13.207, -12.367, -8.020, 25.66, -0.32632, 0.16357, 0.11768, 0.92346,
 14:06:20.987,ed:40:fe:65:30:6c, 2015-01-01 00:29:26.600, 0.377, 0.109, 0.922, 0.427, 0.305, 0.244, 6.899, -22.143, -142.394, -13.207, -12.367, -8.020, 25.66, -0.32632, 0.16357, 0.11768, 0.92346,
 14:06:20.990,e3:ca:2d:fd:e0:8c, 2015-01-01 00:29:16.005, 0.99, 0.005, 0.248, -0.61, 0.427, 0, 1.868, -75.894, 158.813, -26.020, -10.260, -10.107, 29.43, 0.13449, 0.60709, -0.09988, 0.7767,
 14:06:20.990,e3:ca:2d:fd:e0:8c, 2015-01-01 00:29:16.005, 0.992, 0.006, 0.248, -0.549, 0.366, 0.061, 1.851, -75.888, 158.851, -26.020, -10.260, -10.107, 29.43, 0.13449, 0.60709, -0.09988, 0.7767,
 14:06:20.993,ed:35:33:d3:6c:f8, 2015-01-01 00:29:14.950, 0.439, -0.018, 0.891, 0.977, 0.305, 0.122, -1.34, -26.433, 173.886, -14.013, -9.827, -30.760, 30.67, -0.05499, -0.22794, 0.02448, -0.97177,
 14:06:20.993,ed:35:33:d3:6c:f8, 2015-01-01 00:29:14.950, 0.44, -0.018, 0.892, 1.099, 0.427, 0, -1.318, -26.422, 173.886, -14.013, -9.827, -30.760, 30.67, -0.05499, -0.22794, 0.02448, -0.97177,
 14:06:20.997,f6:90:cc:01:6d:25, 2015-01-01 00:29:13.425, 0.892, 0.119, 0.407, -0.305, 0.061, 0.061, 16.639, -64.418, -171.491, -26.753, -13.733, -7.673, 31.98, -0.14011, 0.51645, 0.1626, 0.82892,
 14:06:20.997,f6:90:cc:01:6d:25, 2015-01-01 00:29:13.425, 0.893, 0.12, 0.407, -0.244, 0.061, 0.061, 16.628, -64.418, -171.486, -26.753, -13.733, -7.673, 31.98, -0.14011, 0.51645, 0.1626, 0.82892,
 14:06:21.022,e3:ca:2d:fd:e0:8c, 2015-01-01 00:29:16.005, 0.991, 0.006, 0.247, -0.427, 0.305, 0.122, 1.829, -75.883, 158.901, -26.020, -10.260, -10.107, 29.43, 0.13449, 0.60709, -0.09988, 0.7767,
 14:06:21.022,e3:ca:2d:fd:e0:8c, 2015-01-01 00:29:16.005, 0.99, 0.006, 0.247, -0.366, 0.183, 0.183, 1.807, -75.877, 158.912, -26.020, -10.260, -10.107, 29.43, 0.13449, 0.60709, -0.09988, 0.7767,
 14:06:21.023,ed:35:33:d3:6c:f8, 2015-01-01 00:29:14.950, 0.441, -0.016, 0.893, 2.563, -0.061, 0.427, -1.291, -26.417, 173.892, -14.013, -9.827, -30.760, 30.67, -0.05499, -0.22794, 0.02448, -0.97177,
 14:06:21.023,ed:35:33:d3:6c:f8, 2015-01-01 00:29:14.950, 0.438, -0.017, 0.895, 0.183, -0.061, 0, -1.252, -26.417, 173.903, -14.013, -9.827, -30.760, 30.67, -0.05499, -0.22794, 0.02448, -0.97177,
 14:06:21.027,f6:90:cc:01:6d:25, 2015-01-01 00:29:13.425, 0.893, 0.12, 0.406, -0.305, 0.122, 0.183, 16.611, -64.418, -171.469, -26.753, -13.733, -7.673, 31.98, -0.14011, 0.51645, 0.1626, 0.82892,
 14:06:21.027,f6:90:cc:01:6d:25, 2015-01-01 00:29:13.425, 0.889, 0.118, 0.406, -0.366, 0.122, 0.183, 16.595, -64.418, -171.453, -26.753, -13.733, -7.673, 31.98, -0.14011, 0.51645, 0.1626, 0.82892,
 14:06:21.050,ed:40:fe:65:30:6c, 2015-01-01 00:29:26.600, 0.375, 0.108, 0.923, 0.244, 0.244, 0.183, 6.899, -22.137, -142.383, -13.207, -12.367, -8.020, 25.66, -0.32632, 0.16357, 0.11768, 0.92346,
 14:06:21.050,ed:40:fe:65:30:6c, 2015-01-01 00:29:26.600, 0.375, 0.107, 0.92, 0, 0.244, 0.183, 6.899, -22.132, -142.372, -13.207, -12.367, -8.020, 25.66, -0.32632, 0.16357, 0.11768, 0.92346,
 14:06:21.050,e3:ca:2d:fd:e0:8c, 2015-01-01 00:29:16.005, 0.988, 0.006, 0.248, -0.488, 0.122, 0.183, 1.78, -75.877, 158.945, -26.020, -10.260, -10.107, 29.43, 0.13449, 0.60709, -0.09988, 0.7767,
 14:06:21.050,e3:ca:2d:fd:e0:8c, 2015-01-01 00:29:16.005, 0.992, 0.007, 0.247, -0.305, 0.122, 0.183, 1.758, -75.877, 158.989, -26.020, -10.260, -10.107, 29.43, 0.13449, 0.60709, -0.09988, 0.7767,
 14:06:21.054,ed:35:33:d3:6c:f8, 2015-01-01 00:29:14.950, 0.438, -0.018, 0.893, 0.244, -0.061, 0.061, -1.247, -26.417, 173.903, -14.013, -9.827, -30.760, 30.67, -0.05499, -0.22794, 0.02448, -0.97177,
 14:06:21.054,ed:35:33:d3:6c:f8, 2015-01-01 00:29:14.950, 0.442, -0.019, 0.891, 0.61, 0.366, -0.061, -1.241, -26.417, 173.892, -14.013, -9.827, -30.760, 30.67, -0.05499, -0.22794, 0.02448, -0.97177,
 14:06:21.076,ed:40:fe:65:30:6c, 2015-01-01 00:29:26.600, 0.379, 0.107, 0.92, 0.122, 0.061, 0.122, 6.899, -22.126, -142.355, -13.207, -12.367, -8.020, 25.66, -0.32678, 0.16232, 0.11771, 0.92352,
 14:06:21.076,ed:40:fe:65:30:6c, 2015-01-01 00:29:26.600, 0.379, 0.109, 0.919, 0.244, 0.183, 0.061, 6.899, -22.126, -142.35, -13.207, -12.367, -8.020, 25.66, -0.32678, 0.16232, 0.11771, 0.92352,
 14:06:21.084,ed:35:33:d3:6c:f8, 2015-01-01 00:29:14.950, 0.441, -0.013, 0.891, 0.916, -0.366, 0, -1.225, -26.411, 173.87, -14.013, -9.827, -30.760, 30.67, -0.05499, -0.22794, 0.02448, -0.97177,
 14:06:21.084,ed:35:33:d3:6c:f8, 2015-01-01 00:29:14.950, 0.44, -0.017, 0.89, 0.549, 0, 0.366, -1.208, -26.411, 173.87, -14.013, -9.827, -30.760, 30.67, -0.05499, -0.22794, 0.02448, -0.97177,
 14:06:21.088,f6:90:cc:01:6d:25, 2015-01-01 00:29:13.425, 0.893, 0.119, 0.404, -0.366, 0.122, 0.183, 16.578, -64.418, -171.436, -27.107, -13.773, -7.507, 31.98, -0.14011, 0.51645, 0.1626, 0.82892,
 14:06:21.088,f6:90:cc:01:6d:25, 2015-01-01 00:29:13.425, 0.894, 0.119, 0.407, -0.366, 0.061, 0.122, 16.562, -64.424, -171.436, -27.107, -13.773, -7.507, 31.98, -0.14011, 0.51645, 0.1626, 0.82892,
 14:06:21.107,ed:40:fe:65:30:6c, 2015-01-01 00:29:26.600, 0.377, 0.107, 0.919, 0.183, 0.305, 0.366, 6.899, -22.121, -142.339, -13.207, -12.367, -8.020, 25.66, -0.32678, 0.16232, 0.11771, 0.92352,
 14:06:21.107,ed:40:fe:65:30:6c, 2015-01-01 00:29:26.600, 0.378, 0.107, 0.919, 0.122, 0.305, 0.366, 6.894, -22.115, -142.328, -13.207, -12.367, -8.020, 25.66, -0.32678, 0.16232, 0.11771, 0.92352,
 14:06:21.109,e3:ca:2d:fd:e0:8c, 2015-01-01 00:29:16.005, 0.991, 0.005, 0.248, -0.244, 0.122, 0.122, 1.736, -75.877, 159.044, -26.020, -10.260, -10.107, 29.43, 0.13449, 0.60709, -0.09988, 0.7767,
 14:06:21.109,e3:ca:2d:fd:e0:8c, 2015-01-01 00:29:16.005, 0.99, 0.004, 0.246, -0.122, 0.183, 0.183, 1.719, -75.877, 159.093, -26.020, -10.260, -10.107, 29.43, 0.13449, 0.60709, -0.09988, 0.7767,
 14:06:21.118,f6:90:cc:01:6d:25, 2015-01-01 00:29:13.425, 0.892, 0.116, 0.405, -0.183, 0.244, 0.122, 16.551, -64.424, -171.425, -27.107, -13.773, -7.507, 31.98, -0.1391, 0.51688, 0.16086, 0.82916,
 14:06:21.118,f6:90:cc:01:6d:25, 2015-01-01 00:29:13.425, 0.894, 0.117, 0.404, 0, 0.305, 0.183, 16.534, -64.418, -171.392, -27.107, -13.773, -7.507, 31.98, -0.1391, 0.51688, 0.16086, 0.82916,
 14:06:21.142,e3:ca:2d:fd:e0:8c, 2015-01-01 00:29:16.005, 0.991, 0.005, 0.247, 0, 0.244, 0.183, 1.697, -75.872, 159.153, -25.747, -10.213, -9.520, 29.43, 0.13449, 0.60709, -0.09988, 0.7767,
 14:06:21.142,e3:ca:2d:fd:e0:8c, 2015-01-01 00:29:16.005, 0.991, 0.008, 0.247, 0, 0.244, 0.061, 1.686, -75.866, 159.175, -25.747, -10.213, -9.520, 29.43, 0.13449, 0.60709, -0.09988, 0.7767,
 14:06:21.144,ed:35:33:d3:6c:f8, 2015-01-01 00:29:14.950, 0.441, -0.019, 0.892, 0.183, -0.122, 0.427, -1.203, -26.411, 173.881, -14.013, -9.827, -30.760, 30.67, -0.05499, -0.22794, 0.02448, -0.97177,
 14:06:21.144,ed:35:33:d3:6c:f8, 2015-01-01 00:29:14.950, 0.439, -0.019, 0.895, 0.061, -0.183, 0.061, -1.203, -26.411, 173.892, -14.013, -9.827, -30.760, 30.67, -0.05499, -0.22794, 0.02448, -0.97177,
 14:06:21.148,f6:90:cc:01:6d:25, 2015-01-01 00:29:13.425, 0.892, 0.121, 0.406, -0.183, 0.183, 0.122, 16.523, -64.418, -171.392, -27.107, -13.773, -7.507, 31.98, -0.1391, 0.51688, 0.16086, 0.82916,
 14:06:21.148,f6:90:cc:01:6d:25, 2015-01-01 00:29:13.425, 0.891, 0.12, 0.407, -0.244, 0.061, 0, 16.512, -64.418, -171.403, -27.107, -13.773, -7.507, 31.98, -0.1391, 0.51688, 0.16086, 0.82916,
 14:06:21.169,ed:40:fe:65:30:6c, 2015-01-01 00:29:26.600, 0.376, 0.107, 0.922, 0.061, 0.183, 0.244, 6.894, -22.115, -142.322, -13.207, -12.367, -8.020, 25.66, -0.32678, 0.16232, 0.11771, 0.92352,
 14:06:21.169,ed:40:fe:65:30:6c, 2015-01-01 00:29:26.600, 0.375, 0.105, 0.923, 0.061, 0.061, 0.122, 6.888, -22.115, -142.328, -13.207, -12.367, -8.020, 25.66, -0.32678, 0.16232, 0.11771, 0.92352,
 14:06:21.171,e3:ca:2d:fd:e0:8c, 2015-01-01 00:29:16.005, 0.989, 0.009, 0.247, 0, 0.244, 0, 1.686, -75.866, 159.186, -25.747, -10.213, -9.520, 29.43, 0.13449, 0.60709, -0.09988, 0.7767,
 14:06:21.171,e3:ca:2d:fd:e0:8c, 2015-01-01 00:29:16.005, 0.989, 0.008, 0.248, -0.061, 0.244, -0.061, 1.686, -75.861, 159.181, -25.747, -10.213, -9.520, 29.43, 0.13449, 0.60709, -0.09988, 0.7767,
 14:06:21.196,ed:40:fe:65:30:6c, 2015-01-01 00:29:26.600, 0.375, 0.107, 0.921, 0.183, 0, 0, 6.888, -22.11, -142.333, -13.207, -12.367, -8.020, 25.72, -0.32678, 0.16232, 0.11771, 0.92352,
 14:06:21.196,ed:40:fe:65:30:6c, 2015-01-01 00:29:26.600, 0.375, 0.109, 0.92, 0.183, 0, 0, 6.888, -22.115, -142.333, -13.207, -12.367, -8.020, 25.72, -0.32678, 0.16232, 0.11771, 0.92352,
 14:06:21.202,ed:35:33:d3:6c:f8, 2015-01-01 00:29:14.950, 0.439, -0.019, 0.895, 0.061, -0.122, 0, -1.203, -26.411, 173.897, -14.233, -10.453, -31.307, 30.67, -0.05499, -0.22794, 0.02448, -0.97177,
 14:06:21.202,ed:35:33:d3:6c:f8, 2015-01-01 00:29:14.950, 0.44, -0.017, 0.893, 0.122, -0.183, 0, -1.203, -26.417, 173.908, -14.233, -10.453, -31.307, 30.67, -0.05499, -0.22794, 0.02448, -0.97177,
 14:06:21.202,ed:35:33:d3:6c:f8, 2015-01-01 00:29:14.950, 0.439, -0.014, 0.892, 1.77, -0.488, 0.122, -1.181, -26.417, 173.908, -14.233, -10.453, -31.307, 30.67, -0.05499, -0.22794, 0.02448, -0.97177,
 14:06:21.202,ed:35:33:d3:6c:f8, 2015-01-01 00:29:14.950, 0.441, -0.014, 0.893, 0, -0.061, -0.122, -1.165, -26.422, 173.897, -14.233, -10.453, -31.307, 30.67, -0.05499, -0.22794, 0.02448, -0.97177,
 14:06:21.206,f6:90:cc:01:6d:25, 2015-01-01 00:29:13.780, 0.891, 0.119, 0.406, -0.244, 0, 0, 16.507, -64.418, -171.42, -27.107, -13.773, -7.507, 31.98, -0.1391, 0.51688, 0.16086, 0.82916,
 14:06:21.206,f6:90:cc:01:6d:25, 2015-01-01 00:29:13.780, 0.891, 0.118, 0.407, -0.183, 0.061, -0.061, 16.501, -64.424, -171.409, -27.107, -13.773, -7.507, 31.98, -0.1391, 0.51688, 0.16086, 0.82916,
 14:06:21.226,ed:40:fe:65:30:6c, 2015-01-01 00:29:26.600, 0.375, 0.109, 0.92, 0.244, 0, 0, 6.888, -22.115, -142.333, -13.207, -12.367, -8.020, 25.72, -0.32678, 0.16232, 0.11771, 0.92352,
 14:06:21.226,ed:40:fe:65:30:6c, 2015-01-01 00:29:26.600, 0.377, 0.108, 0.921, 0.183, -0.061, 0, 6.894, -22.115, -142.339, -13.207, -12.367, -8.020, 25.72, -0.32678, 0.16232, 0.11771, 0.92352,
 14:06:21.230,e3:ca:2d:fd:e0:8c, 2015-01-01 00:29:16.005, 0.989, 0.007, 0.248, -0.061, 0.183, -0.061, 1.692, -75.861, 159.186, -25.747, -10.213, -9.520, 29.43, 0.13351, 0.60663, -0.09958, 0.77728,
 14:06:21.230,e3:ca:2d:fd:e0:8c, 2015-01-01 00:29:16.005, 0.989, 0.007, 0.249, -0.061, 0.061, 0, 1.692, -75.861, 159.192, -25.747, -10.213, -9.520, 29.43, 0.13351, 0.60663, -0.09958, 0.77728,
 14:06:21.236,f6:90:cc:01:6d:25, 2015-01-01 00:29:13.780, 0.891, 0.119, 0.406, -0.305, 0, -0.061, 16.496, -64.424, -171.42, -27.107, -13.773, -7.507, 31.98, -0.1391, 0.51688, 0.16086, 0.82916,
 14:06:21.236,f6:90:cc:01:6d:25, 2015-01-01 00:29:13.780, 0.893, 0.119, 0.406, -0.305, 0, -0.061, 16.49, -64.424, -171.425, -27.107, -13.773, -7.507, 31.98, -0.1391, 0.51688, 0.16086, 0.82916,
 14:06:21.261,e3:ca:2d:fd:e0:8c, 2015-01-01 00:29:16.360, 0.991, 0.007, 0.248, -0.122, 0.061, 0, 1.686, -75.861, 159.17, -25.747, -10.213, -9.520, 29.43, 0.13351, 0.60663, -0.09958, 0.77728,
 14:06:21.261,e3:ca:2d:fd:e0:8c, 2015-01-01 00:29:16.360, 0.991, 0.007, 0.248, -0.183, 0.122, -0.122, 1.692, -75.855, 159.148, -25.747, -10.213, -9.520, 29.43, 0.13351, 0.60663, -0.09958, 0.77728,
 14:06:21.263,ed:35:33:d3:6c:f8, 2015-01-01 00:29:14.950, 0.44, -0.018, 0.888, 0.916, 0, -0.061, -1.154, -26.422, 173.881, -14.233, -10.453, -31.307, 30.67, -0.05499, -0.22794, 0.02448, -0.97177,
 14:06:21.263,ed:35:33:d3:6c:f8, 2015-01-01 00:29:14.950, 0.439, -0.013, 0.893, -0.183, 0.549, -0.122, -1.143, -26.411, 173.875, -14.233, -10.453, -31.307, 30.67, -0.05499, -0.22794, 0.02448, -0.97177,
 14:06:21.286,ed:40:fe:65:30:6c, 2015-01-01 00:29:27.105, 0.377, 0.109, 0.92, 0.183, 0, 0, 6.894, -22.115, -142.339, -13.207, -12.367, -8.020, 25.72, -0.32678, 0.16232, 0.11771, 0.92352,
 14:06:21.286,ed:40:fe:65:30:6c, 2015-01-01 00:29:27.105, 0.377, 0.108, 0.919, 0.244, 0.061, 0, 6.894, -22.115, -142.328, -13.207, -12.367, -8.020, 25.72, -0.32678, 0.16232, 0.11771, 0.92352,
 14:06:21.290,e3:ca:2d:fd:e0:8c, 2015-01-01 00:29:16.360, 0.991, 0.005, 0.249, -0.061, 0.122, -0.061, 1.692, -75.855, 159.137, -25.747, -10.213, -9.520, 29.43, 0.13351, 0.60663, -0.09958, 0.77728,
 14:06:21.290,e3:ca:2d:fd:e0:8c, 2015-01-01 00:29:16.360, 0.99, 0.006, 0.248, -0.061, 0.122, 0, 1.692, -75.855, 159.142, -25.747, -10.213, -9.520, 29.43, 0.13351, 0.60663, -0.09958, 0.77728,
 14:06:21.292,ed:35:33:d3:6c:f8, 2015-01-01 00:29:14.950, 0.441, -0.017, 0.892, -0.488, 1.343, 0, -1.148, -26.395, 173.859, -14.233, -10.453, -31.307, 30.67, -0.0542, -0.22766, 0.02191, -0.97192,
 14:06:21.292,ed:35:33:d3:6c:f8, 2015-01-01 00:29:14.950, 0.437, -0.021, 0.889, 0.732, -0.183, 0.183, -1.148, -26.378, 173.853, -14.233, -10.453, -31.307, 30.67, -0.0542, -0.22766, 0.02191, -0.97192,
 14:06:21.296,f6:90:cc:01:6d:25, 2015-01-01 00:29:13.780, 0.893, 0.119, 0.406, -0.305, 0, -0.061, 16.485, -64.429, -171.497, -27.107, -13.773, -7.507, 31.98, -0.1391, 0.51688, 0.16086, 0.82916,
 14:06:21.296,f6:90:cc:01:6d:25, 2015-01-01 00:29:13.780, 0.892, 0.117, 0.407, -0.183, 0.122, 0, 16.479, -64.429, -171.595, -27.107, -13.773, -7.507, 31.98, -0.1391, 0.51688, 0.16086, 0.82916,
 14:06:21.316,ed:40:fe:65:30:6c, 2015-01-01 00:29:27.105, 0.376, 0.107, 0.921, 0.244, 0.183, 0, 6.899, -22.11, -142.311, -13.207, -12.367, -8.020, 25.72, -0.32678, 0.16232, 0.11771, 0.92352,
 14:06:21.316,ed:40:fe:65:30:6c, 2015-01-01 00:29:27.105, 0.376, 0.106, 0.921, 0.183, 0.122, -0.061, 6.899, -22.11, -142.3, -13.207, -12.367, -8.020, 25.72, -0.32678, 0.16232, 0.11771, 0.92352,
 14:06:21.323,ed:35:33:d3:6c:f8, 2015-01-01 00:29:14.950, 0.44, -0.016, 0.896, 0.427, 0.244, 0, -1.137, -26.378, 173.842, -14.233, -10.453, -31.307, 30.67, -0.0542, -0.22766, 0.02191, -0.97192,
 14:06:21.323,ed:35:33:d3:6c:f8, 2015-01-01 00:29:14.950, 0.439, -0.017, 0.892, 0.061, 0.244, -0.061, -1.126, -26.373, 173.82, -14.233, -10.453, -31.307, 30.67, -0.0542, -0.22766, 0.02191, -0.97192,
 14:06:21.326,f6:90:cc:01:6d:25, 2015-01-01 00:29:13.780, 0.892, 0.118, 0.407, -0.183, 0.183, 0, 16.474, -64.429, -171.678, -27.107, -13.773, -7.507, 31.98, -0.1391, 0.51688, 0.16086, 0.82916,
 14:06:21.326,f6:90:cc:01:6d:25, 2015-01-01 00:29:13.780, 0.893, 0.118, 0.405, -0.244, 0.122, 0, 16.463, -64.429, -171.727, -27.107, -13.773, -7.507, 31.98, -0.1391, 0.51688, 0.16086, 0.82916,
 14:06:21.348,ed:40:fe:65:30:6c, 2015-01-01 00:29:27.105, 0.376, 0.107, 0.921, 0.122, 0.122, -0.061, 6.899, -22.104, -142.306, -13.207, -12.367, -8.020, 25.72, -0.32678, 0.16232, 0.11771, 0.92352,
 14:06:21.348,ed:40:fe:65:30:6c, 2015-01-01 00:29:27.105, 0.376, 0.109, 0.921, 0.122, 0.061, -0.122, 6.899, -22.104, -142.311, -13.207, -12.367, -8.020, 25.72, -0.32678, 0.16232, 0.11771, 0.92352,
 14:06:21.351,e3:ca:2d:fd:e0:8c, 2015-01-01 00:29:16.360, 0.99, 0.006, 0.247, 0, 0.122, 0, 1.692, -75.855, 159.175, -25.747, -10.213, -9.520, 29.43, 0.13351, 0.60663, -0.09958, 0.77728,
 14:06:21.351,e3:ca:2d:fd:e0:8c, 2015-01-01 00:29:16.360, 0.99, 0.005, 0.247, 0, 0.061, 0, 1.692, -75.855, 159.192, -25.747, -10.213, -9.520, 29.43, 0.13351, 0.60663, -0.09958, 0.77728,
 14:06:21.359,f6:90:cc:01:6d:25, 2015-01-01 00:29:13.780, 0.892, 0.118, 0.406, -0.183, 0.061, 0, 16.458, -64.429, -171.766, -27.107, -13.773, -7.507, 31.98, -0.1391, 0.51688, 0.16086, 0.82916,
 14:06:21.359,f6:90:cc:01:6d:25, 2015-01-01 00:29:13.780, 0.894, 0.118, 0.406, -0.244, 0.061, 0, 16.447, -64.429, -171.782, -27.107, -13.773, -7.507, 31.98, -0.1391, 0.51688, 0.16086, 0.82916,
 14:06:21.381,e3:ca:2d:fd:e0:8c, 2015-01-01 00:29:16.360, 0.991, 0.006, 0.247, 0, 0.061, 0, 1.686, -75.855, 159.203, -25.747, -10.213, -9.520, 29.43, 0.13351, 0.60663, -0.09958, 0.77728,
 14:06:21.381,e3:ca:2d:fd:e0:8c, 2015-01-01 00:29:16.360, 0.99, 0.006, 0.247, 0, 0, 0, 1.686, -75.855, 159.208, -25.747, -10.213, -9.520, 29.43, 0.13351, 0.60663, -0.09958, 0.77728,
 14:06:21.384,ed:35:33:d3:6c:f8, 2015-01-01 00:29:15.340, 0.439, -0.014, 0.894, 1.587, -0.427, 0.305, -1.115, -26.373, 173.809, -14.233, -10.453, -31.307, 30.67, -0.0542, -0.22766, 0.02191, -0.97192,
 14:06:21.384,ed:35:33:d3:6c:f8, 2015-01-01 00:29:15.340, 0.44, -0.013, 0.895, 0, 0, -0.183, -1.099, -26.373, 173.804, -14.233, -10.453, -31.307, 30.67, -0.0542, -0.22766, 0.02191, -0.97192,
 14:06:21.387,f6:90:cc:01:6d:25, 2015-01-01 00:29:13.780, 0.891, 0.117, 0.406, -0.244, 0, 0, 16.441, -64.429, -171.799, -26.887, -13.287, -8.007, 31.98, -0.1391, 0.51688, 0.16086, 0.82916,
 14:06:21.387,f6:90:cc:01:6d:25, 2015-01-01 00:29:13.780, 0.891, 0.118, 0.406, -0.305, 0, 0, 16.43, -64.429, -171.837, -26.887, -13.287, -8.007, 31.98, -0.1391, 0.51688, 0.16086, 0.82916,
 14:06:21.406,ed:40:fe:65:30:6c, 2015-01-01 00:29:27.105, 0.375, 0.109, 0.921, 0.122, 0, -0.061, 6.899, -22.104, -142.322, -13.207, -12.367, -8.020, 25.72, -0.32678, 0.16232, 0.11771, 0.92352,
 14:06:21.406,ed:40:fe:65:30:6c, 2015-01-01 00:29:27.105, 0.375, 0.108, 0.922, 0.122, 0, 0, 6.899, -22.104, -142.322, -13.207, -12.367, -8.020, 25.72, -0.32678, 0.16232, 0.11771, 0.92352,
 14:06:21.411,e3:ca:2d:fd:e0:8c, 2015-01-01 00:29:16.360, 0.989, 0.005, 0.247, -0.061, 0.061, 0, 1.681, -75.855, 159.197, -25.747, -10.213, -9.520, 29.43, 0.13351, 0.60663, -0.09958, 0.77728,
 14:06:21.411,e3:ca:2d:fd:e0:8c, 2015-01-01 00:29:16.360, 0.991, 0.007, 0.248, 0, 0, 0, 1.681, -75.855, 159.214, -25.747, -10.213, -9.520, 29.43, 0.13351, 0.60663, -0.09958, 0.77728,
 14:06:21.412,ed:35:33:d3:6c:f8, 2015-01-01 00:29:15.340, 0.439, -0.015, 0.893, 0, 0, -0.061, -1.093, -26.373, 173.793, -14.233, -10.453, -31.307, 30.67, -0.0542, -0.22766, 0.02191, -0.97192,
 14:06:21.412,ed:35:33:d3:6c:f8, 2015-01-01 00:29:15.340, 0.439, -0.015, 0.89, 0.793, -0.732, 0.305, -1.088, -26.378, 173.787, -14.233, -10.453, -31.307, 30.67, -0.0542, -0.22766, 0.02191, -0.97192,
 14:06:21.436,ed:40:fe:65:30:6c, 2015-01-01 00:29:27.105, 0.376, 0.107, 0.92, 0, 0, 0, 6.899, -22.099, -142.328, -13.207, -12.367, -8.020, 25.72, -0.32678, 0.16232, 0.11771, 0.92352,
 14:06:21.436,ed:40:fe:65:30:6c, 2015-01-01 00:29:27.105, 0.379, 0.109, 0.92, 0, 0.061, -0.122, 6.899, -22.099, -142.339, -13.207, -12.367, -8.020, 25.72, -0.32678, 0.16232, 0.11771, 0.92352,
 14:06:21.446,ed:35:33:d3:6c:f8, 2015-01-01 00:29:15.340, 0.442, -0.014, 0.893, 0, -0.61, -0.061, -1.082, -26.389, 173.782, -14.233, -10.453, -31.307, 30.67, -0.0542, -0.22766, 0.02191, -0.97192,
 14:06:21.446,ed:35:33:d3:6c:f8, 2015-01-01 00:29:15.340, 0.438, -0.016, 0.89, -0.122, -0.183, -0.122, -1.077, -26.395, 173.771, -14.233, -10.453, -31.307, 30.67, -0.0542, -0.22766, 0.02191, -0.97192,
 14:06:21.470,e3:ca:2d:fd:e0:8c, 2015-01-01 00:29:16.360, 0.992, 0.007, 0.248, 0.061, 0.061, 0, 1.675, -75.855, 159.225, -25.747, -10.213, -9.520, 29.43, 0.13351, 0.60663, -0.09958, 0.77728,
 14:06:21.470,e3:ca:2d:fd:e0:8c, 2015-01-01 00:29:16.360, 0.989, 0.005, 0.248, 0.061, 0.061, 0, 1.675, -75.855, 159.203, -25.747, -10.213, -9.520, 29.43, 0.13351, 0.60663, -0.09958, 0.77728,
 14:06:21.477,f6:90:cc:01:6d:25, 2015-01-01 00:29:13.780, 0.894, 0.119, 0.408, -0.122, 0, 0, 16.425, -64.435, -171.887, -26.887, -13.287, -8.007, 31.98, -0.1391, 0.51688, 0.16086, 0.82916,
 14:06:21.477,f6:90:cc:01:6d:25, 2015-01-01 00:29:13.780, 0.893, 0.118, 0.406, -0.061, -0.061, 0, 16.419, -64.435, -171.909, -26.887, -13.287, -8.007, 31.98, -0.1391, 0.51688, 0.16086, 0.82916,
 14:06:21.477,f6:90:cc:01:6d:25, 2015-01-01 00:29:13.780, 0.889, 0.116, 0.404, -0.183, 0.183, 0, 16.419, -64.44, -171.931, -26.887, -13.287, -8.007, 31.98, -0.1391, 0.51688, 0.16086, 0.82916,
 14:06:21.477,f6:90:cc:01:6d:25, 2015-01-01 00:29:13.780, 0.891, 0.122, 0.409, -0.427, 0.122, 0, 16.408, -64.44, -171.953, -26.887, -13.287, -8.007, 31.98, -0.1391, 0.51688, 0.16086, 0.82916,
 14:06:21.496,ed:40:fe:65:30:6c, 2015-01-01 00:29:27.105, 0.375, 0.107, 0.92, 0, 0.183, 0, 6.894, -22.099, -142.344, -12.893, -12.300, -7.200, 25.72, -0.32678, 0.16232, 0.11771, 0.92352,
 14:06:21.496,ed:40:fe:65:30:6c, 2015-01-01 00:29:27.105, 0.374, 0.107, 0.919, 0.183, 0, 0, 6.894, -22.094, -142.344, -12.893, -12.300, -7.200, 25.72, -0.32678, 0.16232, 0.11771, 0.92352,
 14:06:21.502,ed:35:33:d3:6c:f8, 2015-01-01 00:29:15.340, 0.437, -0.016, 0.888, 1.892, -0.549, 0.671, -1.066, -26.4, 173.776, -14.233, -10.453, -31.307, 30.67, -0.0542, -0.22766, 0.02191, -0.97192,
 14:06:21.502,ed:35:33:d3:6c:f8, 2015-01-01 00:29:15.340, 0.446, -0.01, 0.892, 0.061, 0.305, -0.366, -1.044, -26.4, 173.787, -14.233, -10.453, -31.307, 30.67, -0.0542, -0.22766, 0.02191, -0.97192,
 14:06:21.506,f6:90:cc:01:6d:25, 2015-01-01 00:29:13.780, 0.896, 0.121, 0.407, -0.244, 0.122, 0, 16.397, -64.435, -171.958, -26.887, -13.287, -8.007, 31.98, -0.13504, 0.51782, 0.15778, 0.82983,
 14:06:21.506,f6:90:cc:01:6d:25, 2015-01-01 00:29:13.780, 0.893, 0.117, 0.409, 0, 0.061, 0, 16.392, -64.435, -171.974, -26.887, -13.287, -8.007, 31.98, -0.13504, 0.51782, 0.15778, 0.82983,
 14:06:21.528,ed:40:fe:65:30:6c, 2015-01-01 00:29:27.105, 0.377, 0.112, 0.918, 0, 0.122, -0.061, 6.894, -22.094, -142.339, -12.893, -12.300, -7.200, 25.72, -0.32678, 0.16232, 0.11771, 0.92352,
 14:06:21.528,ed:40:fe:65:30:6c, 2015-01-01 00:29:27.105, 0.376, 0.112, 0.92, 0.183, 0.305, -0.061, 6.899, -22.088, -142.339, -12.893, -12.300, -7.200, 25.72, -0.32678, 0.16232, 0.11771, 0.92352,
 14:06:21.535,ed:35:33:d3:6c:f8, 2015-01-01 00:29:15.340, 0.441, -0.01, 0.891, 0, 0, -0.427, -1.038, -26.395, 173.787, -14.233, -10.453, -31.307, 30.67, -0.0542, -0.22766, 0.02191, -0.97192,
 14:06:21.535,ed:35:33:d3:6c:f8, 2015-01-01 00:29:15.340, 0.441, -0.009, 0.895, 0.122, 0.122, 0, -1.033, -26.395, 173.782, -14.233, -10.453, -31.307, 30.67, -0.0542, -0.22766, 0.02191, -0.97192,
 14:06:21.557,ed:40:fe:65:30:6c, 2015-01-01 00:29:27.105, 0.376, 0.112, 0.924, 0, 0.366, 0.061, 6.894, -22.083, -142.339, -12.893, -12.300, -7.200, 25.72, -0.32706, 0.16196, 0.11758, 0.92349,
 14:06:21.557,ed:40:fe:65:30:6c, 2015-01-01 00:29:27.105, 0.378, 0.109, 0.923, -0.061, 0.366, 0.183, 6.894, -22.077, -142.333, -12.893, -12.300, -7.200, 25.72, -0.32706, 0.16196, 0.11758, 0.92349,
 14:06:21.559,e3:ca:2d:fd:e0:8c, 2015-01-01 00:29:16.360, 0.988, 0.007, 0.248, -0.061, 0.061, 0, 1.675, -75.855, 159.175, -26.040, -10.700, -10.660, 29.43, 0.13351, 0.60663, -0.09958, 0.77728,
 14:06:21.559,e3:ca:2d:fd:e0:8c, 2015-01-01 00:29:16.360, 0.992, 0.009, 0.249, -0.122, 0.061, 0, 1.67, -75.855, 159.159, -26.040, -10.700, -10.660, 29.43, 0.13351, 0.60663, -0.09958, 0.77728,
 14:06:21.563,ed:35:33:d3:6c:f8, 2015-01-01 00:29:15.340, 0.442, -0.016, 0.896, -0.061, 0, 0.244, -1.033, -26.389, 173.793, -13.853, -10.087, -30.753, 30.67, -0.0542, -0.22766, 0.02191, -0.97192,
 14:06:21.563,ed:35:33:d3:6c:f8, 2015-01-01 00:29:15.340, 0.441, -0.017, 0.896, -0.671, -0.671, -0.183, -1.038, -26.395, 173.809, -13.853, -10.087, -30.753, 30.67, -0.0542, -0.22766, 0.02191, -0.97192,
 14:06:21.567,f6:90:cc:01:6d:25, 2015-01-01 00:29:13.780, 0.893, 0.117, 0.404, -0.061, 0.122, 0, 16.386, -64.435, -171.991, -26.887, -13.287, -8.007, 31.98, -0.13504, 0.51782, 0.15778, 0.82983,
 14:06:21.567,f6:90:cc:01:6d:25, 2015-01-01 00:29:13.780, 0.894, 0.12, 0.404, -0.366, 0.061, 0, 16.381, -64.44, -172.007, -26.887, -13.287, -8.007, 31.98, -0.13504, 0.51782, 0.15778, 0.82983,
 14:06:21.586,ed:40:fe:65:30:6c, 2015-01-01 00:29:27.105, 0.379, 0.108, 0.923, -0.183, 0.122, 0, 6.888, -22.072, -142.339, -12.893, -12.300, -7.200, 25.72, -0.32706, 0.16196, 0.11758, 0.92349,
 14:06:21.586,ed:40:fe:65:30:6c, 2015-01-01 00:29:27.105, 0.377, 0.107, 0.922, -0.061, 0, -0.122, 6.883, -22.072, -142.339, -12.893, -12.300, -7.200, 25.72, -0.32706, 0.16196, 0.11758, 0.92349,
 14:06:21.590,e3:ca:2d:fd:e0:8c, 2015-01-01 00:29:16.360, 0.993, 0.007, 0.249, -0.122, 0, 0, 1.67, -75.855, 159.181, -26.040, -10.700, -10.660, 29.43, 0.13351, 0.60663, -0.09958, 0.77728,
 14:06:21.590,e3:ca:2d:fd:e0:8c, 2015-01-01 00:29:16.360, 0.99, 0.004, 0.248, 0.061, 0.061, 0, 1.67, -75.855, 159.225, -26.040, -10.700, -10.660, 29.43, 0.13351, 0.60663, -0.09958, 0.77728,
 14:06:21.596,f6:90:cc:01:6d:25, 2015-01-01 00:29:14.170, 0.893, 0.121, 0.405, -0.549, 0, 0, 16.37, -64.44, -171.991, -26.887, -13.287, -8.007, 31.98, -0.13504, 0.51782, 0.15778, 0.82983,
 14:06:21.596,f6:90:cc:01:6d:25, 2015-01-01 00:29:14.170, 0.892, 0.117, 0.404, -0.366, 0, 0, 16.364, -64.44, -171.985, -26.887, -13.287, -8.007, 31.98, -0.13504, 0.51782, 0.15778, 0.82983,
 14:06:21.620,e3:ca:2d:fd:e0:8c, 2015-01-01 00:29:16.360, 0.992, 0.006, 0.246, 0.122, 0.061, 0, 1.67, -75.855, 159.252, -26.040, -10.700, -10.660, 29.43, 0.13336, 0.6066, -0.09949, 0.77734,
 14:06:21.620,e3:ca:2d:fd:e0:8c, 2015-01-01 00:29:16.360, 0.991, 0.009, 0.246, 0, 0.061, 0, 1.67, -75.855, 159.258, -26.040, -10.700, -10.660, 29.43, 0.13336, 0.6066, -0.09949, 0.77734,
 14:06:21.624,ed:35:33:d3:6c:f8, 2015-01-01 00:29:15.340, 0.442, -0.016, 0.892, -0.549, -0.427, -0.244, -1.044, -26.406, 173.831, -13.853, -10.087, -30.753, 30.67, -0.0542, -0.22766, 0.02191, -0.97192,
 14:06:21.624,ed:35:33:d3:6c:f8, 2015-01-01 00:29:15.340, 0.438, -0.02, 0.886, 0.854, -0.549, 0.183, -1.044, -26.417, 173.859, -13.853, -10.087, -30.753, 30.67, -0.0542, -0.22766, 0.02191, -0.97192,
 14:06:21.646,ed:40:fe:65:30:6c, 2015-01-01 00:29:27.105, 0.375, 0.105, 0.92, 0.061, 0, -0.122, 6.883, -22.072, -142.344, -12.893, -12.300, -7.200, 25.72, -0.32706, 0.16196, 0.11758, 0.92349,
 14:06:21.646,ed:40:fe:65:30:6c, 2015-01-01 00:29:27.105, 0.374, 0.108, 0.918, 0.183, 0.061, 0, 6.883, -22.072, -142.35, -12.893, -12.300, -7.200, 25.72, -0.32706, 0.16196, 0.11758, 0.92349,
 14:06:21.650,e3:ca:2d:fd:e0:8c, 2015-01-01 00:29:16.360, 0.99, 0.009, 0.246, -0.061, 0.122, 0, 1.664, -75.855, 159.241, -26.040, -10.700, -10.660, 29.43, 0.13336, 0.6066, -0.09949, 0.77734,
 14:06:21.650,e3:ca:2d:fd:e0:8c, 2015-01-01 00:29:16.360, 0.989, 0.007, 0.246, -0.122, 0.122, 0, 1.664, -75.855, 159.219, -26.040, -10.700, -10.660, 29.43, 0.13336, 0.6066, -0.09949, 0.77734,
 14:06:21.652,ed:35:33:d3:6c:f8, 2015-01-01 00:29:15.340, 0.438, -0.012, 0.894, 0, 0.122, -0.061, -1.033, -26.417, 173.892, -13.853, -10.087, -30.753, 30.67, -0.05392, -0.22769, 0.02097, -0.97195,
 14:06:21.652,ed:35:33:d3:6c:f8, 2015-01-01 00:29:15.340, 0.438, -0.013, 0.891, -0.122, 0.183, -0.244, -1.033, -26.411, 173.919, -13.853, -10.087, -30.753, 30.67, -0.05392, -0.22769, 0.02097, -0.97195,
 14:06:21.656,f6:90:cc:01:6d:25, 2015-01-01 00:29:14.170, 0.89, 0.117, 0.404, -0.305, 0, 0, 16.353, -64.446, -171.969, -26.887, -13.287, -8.007, 31.98, -0.13504, 0.51782, 0.15778, 0.82983,
 14:06:21.656,f6:90:cc:01:6d:25, 2015-01-01 00:29:14.170, 0.891, 0.117, 0.406, -0.366, -0.061, 0, 16.348, -64.446, -171.958, -26.887, -13.287, -8.007, 31.98, -0.13504, 0.51782, 0.15778, 0.82983,
 14:06:21.677,ed:40:fe:65:30:6c, 2015-01-01 00:29:27.490, 0.375, 0.108, 0.92, 0.183, 0, 0, 6.888, -22.072, -142.35, -12.893, -12.300, -7.200, 25.72, -0.32706, 0.16196, 0.11758, 0.92349,
 14:06:21.677,ed:40:fe:65:30:6c, 2015-01-01 00:29:27.490, 0.375, 0.108, 0.921, 0.122, -0.122, 0, 6.888, -22.072, -142.355, -12.893, -12.300, -7.200, 25.72, -0.32706, 0.16196, 0.11758, 0.92349,
 14:06:21.680,e3:ca:2d:fd:e0:8c, 2015-01-01 00:29:16.360, 0.988, 0.006, 0.247, -0.183, 0.122, 0, 1.659, -75.855, 159.192, -26.040, -10.700, -10.660, 29.43, 0.13336, 0.6066, -0.09949, 0.77734,
 14:06:21.680,e3:ca:2d:fd:e0:8c, 2015-01-01 00:29:16.360, 0.99, 0.005, 0.248, -0.122, 0.061, 0, 1.659, -75.855, 159.175, -26.040, -10.700, -10.660, 29.43, 0.13336, 0.6066, -0.09949, 0.77734,
 14:06:21.686,f6:90:cc:01:6d:25, 2015-01-01 00:29:14.170, 0.892, 0.116, 0.407, -0.427, -0.061, 0, 16.342, -64.451, -171.942, -26.887, -13.287, -8.007, 31.98, -0.13504, 0.51782, 0.15778, 0.82983,
 14:06:21.686,f6:90:cc:01:6d:25, 2015-01-01 00:29:14.170, 0.891, 0.116, 0.407, -0.366, -0.061, 0, 16.331, -64.457, -171.931, -26.887, -13.287, -8.007, 31.98, -0.13504, 0.51782, 0.15778, 0.82983,
 14:06:21.707,ed:40:fe:65:30:6c, 2015-01-01 00:29:27.490, 0.374, 0.108, 0.921, 0.122, 0.061, 0, 6.888, -22.072, -142.366, -12.893, -12.300, -7.200, 25.72, -0.32706, 0.16196, 0.11758, 0.92349,
 14:06:21.707,ed:40:fe:65:30:6c, 2015-01-01 00:29:27.490, 0.375, 0.107, 0.92, 0.061, 0.183, 0, 6.888, -22.072, -142.383, -12.893, -12.300, -7.200, 25.72, -0.32706, 0.16196, 0.11758, 0.92349,
 14:06:21.710,e3:ca:2d:fd:e0:8c, 2015-01-01 00:29:16.780, 0.99, 0.005, 0.25, -0.183, 0, 0, 1.653, -75.855, 159.159, -26.040, -10.700, -10.660, 29.43, 0.13336, 0.6066, -0.09949, 0.77734,
 14:06:21.710,e3:ca:2d:fd:e0:8c, 2015-01-01 00:29:16.780, 0.989, 0.005, 0.25, -0.183, 0, 0, 1.648, -75.855, 159.142, -26.040, -10.700, -10.660, 29.43, 0.13336, 0.6066, -0.09949, 0.77734,
 14:06:21.713,ed:35:33:d3:6c:f8, 2015-01-01 00:29:15.340, 0.44, -0.009, 0.894, 0.549, -0.061, -0.061, -1.022, -26.411, 173.941, -13.853, -10.087, -30.753, 30.67, -0.05392, -0.22769, 0.02097, -0.97195,
 14:06:21.713,ed:35:33:d3:6c:f8, 2015-01-01 00:29:15.340, 0.439, -0.015, 0.89, 0, 0, 0, -1.016, -26.406, 173.969, -13.853, -10.087, -30.753, 30.67, -0.05392, -0.22769, 0.02097, -0.97195,
 14:06:21.717,f6:90:cc:01:6d:25, 2015-01-01 00:29:14.170, 0.891, 0.117, 0.407, -0.244, 0, 0, 16.32, -64.457, -171.914, -26.887, -13.287, -8.007, 31.98, -0.13504, 0.51782, 0.15778, 0.82983,
 14:06:21.717,f6:90:cc:01:6d:25, 2015-01-01 00:29:14.170, 0.892, 0.117, 0.406, -0.366, 0, 0, 16.315, -64.462, -171.903, -26.887, -13.287, -8.007, 31.98, -0.13504, 0.51782, 0.15778, 0.82983,
 14:06:21.742,e3:ca:2d:fd:e0:8c, 2015-01-01 00:29:16.780, 0.989, 0.006, 0.25, -0.061, 0, 0, 1.642, -75.861, 159.126, -26.040, -10.700, -10.660, 29.43, 0.13336, 0.6066, -0.09949, 0.77734,
 14:06:21.742,e3:ca:2d:fd:e0:8c, 2015-01-01 00:29:16.780, 0.991, 0.007, 0.249, -0.122, 0, 0, 1.642, -75.861, 159.104, -26.040, -10.700, -10.660, 29.43, 0.13336, 0.6066, -0.09949, 0.77734,
 14:06:21.745,ed:35:33:d3:6c:f8, 2015-01-01 00:29:15.695, 0.438, -0.011, 0.893, 1.099, -0.427, 0.122, -1.005, -26.411, 173.99, -13.853, -10.087, -30.753, 30.67, -0.05392, -0.22769, 0.02097, -0.97195,
 14:06:21.745,ed:35:33:d3:6c:f8, 2015-01-01 00:29:15.695, 0.44, -0.014, 0.894, -0.305, -0.122, 0.061, -0.994, -26.411, 174.001, -13.853, -10.087, -30.753, 30.67, -0.05392, -0.22769, 0.02097, -0.97195,
 14:06:21.767,ed:40:fe:65:30:6c, 2015-01-01 00:29:27.490, 0.376, 0.108, 0.922, 0.061, 0, 0, 6.888, -22.066, -142.399, -12.893, -12.300, -7.200, 25.72, -0.32706, 0.16196, 0.11758, 0.92349,
 14:06:21.767,ed:40:fe:65:30:6c, 2015-01-01 00:29:27.490, 0.375, 0.107, 0.92, 0, 0.061, 0, 6.883, -22.066, -142.416, -12.893, -12.300, -7.200, 25.72, -0.32706, 0.16196, 0.11758, 0.92349,
 14:06:21.771,e3:ca:2d:fd:e0:8c, 2015-01-01 00:29:16.780, 0.989, 0.007, 0.248, -0.061, -0.061, 0, 1.637, -75.861, 159.088, -26.040, -10.700, -10.660, 29.43, 0.13336, 0.6066, -0.09949, 0.77734,
 14:06:21.771,e3:ca:2d:fd:e0:8c, 2015-01-01 00:29:16.780, 0.99, 0.007, 0.247, 0.122, -0.061, 0, 1.637, -75.861, 159.071, -26.040, -10.700, -10.660, 29.43, 0.13336, 0.6066, -0.09949, 0.77734,
 14:06:21.778,f6:90:cc:01:6d:25, 2015-01-01 00:29:14.170, 0.893, 0.118, 0.407, -0.488, 0.061, 0, 16.304, -64.462, -171.892, -26.887, -13.287, -8.007, 31.98, -0.13504, 0.51782, 0.15778, 0.82983,
 14:06:21.778,f6:90:cc:01:6d:25, 2015-01-01 00:29:14.170, 0.892, 0.117, 0.407, -0.183, 0.183, 0, 16.293, -64.462, -171.876, -26.887, -13.287, -8.007, 31.98, -0.13504, 0.51782, 0.15778, 0.82983,
 14:06:21.797,ed:40:fe:65:30:6c, 2015-01-01 00:29:27.490, 0.377, 0.108, 0.919, 0.061, 0.122, 0, 6.883, -22.066, -142.432, -12.893, -12.300, -7.200, 25.72, -0.32706, 0.16196, 0.11758, 0.92349,
 14:06:21.797,ed:40:fe:65:30:6c, 2015-01-01 00:29:27.490, 0.375, 0.11, 0.918, 0.183, 0.305, 0, 6.883, -22.061, -142.449, -12.893, -12.300, -7.200, 25.72, -0.32706, 0.16196, 0.11758, 0.92349,
 14:06:21.803,ed:35:33:d3:6c:f8, 2015-01-01 00:29:15.695, 0.44, -0.016, 0.89, 0.977, -0.488, 0.061, -0.989, -26.417, 174.007, -13.853, -10.087, -30.753, 30.67, -0.05392, -0.22769, 0.02097, -0.97195,
 14:06:21.803,ed:35:33:d3:6c:f8, 2015-01-01 00:29:15.695, 0.443, -0.013, 0.892, -0.183, 0.183, -0.366, -0.978, -26.417, 174.029, -13.853, -10.087, -30.753, 30.67, -0.05392, -0.22769, 0.02097, -0.97195,
 14:06:21.807,f6:90:cc:01:6d:25, 2015-01-01 00:29:14.170, 0.891, 0.117, 0.406, -0.061, 0.305, 0, 16.287, -64.457, -171.859, -27.033, -13.327, -7.620, 31.98, -0.13504, 0.51782, 0.15778, 0.82983,
 14:06:21.807,f6:90:cc:01:6d:25, 2015-01-01 00:29:14.170, 0.891, 0.117, 0.405, 0, 0.305, 0, 16.282, -64.451, -171.843, -27.033, -13.327, -7.620, 31.98, -0.13504, 0.51782, 0.15778, 0.82983,
 14:06:21.827,ed:40:fe:65:30:6c, 2015-01-01 00:29:27.490, 0.375, 0.107, 0.92, 0.122, 0.305, 0, 6.883, -22.055, -142.465, -12.893, -12.300, -7.200, 25.72, -0.32706, 0.16196, 0.11758, 0.92349,
 14:06:21.827,ed:40:fe:65:30:6c, 2015-01-01 00:29:27.490, 0.378, 0.109, 0.923, 0.122, 0.244, 0, 6.883, -22.05, -142.482, -12.893, -12.300, -7.200, 25.72, -0.32706, 0.16196, 0.11758, 0.92349,
 14:06:21.831,e3:ca:2d:fd:e0:8c, 2015-01-01 00:29:16.780, 0.989, 0.006, 0.248, 0.183, -0.061, 0, 1.642, -75.866, 159.06, -26.040, -10.700, -10.660, 29.43, 0.13336, 0.6066, -0.09949, 0.77734,
 14:06:21.831,e3:ca:2d:fd:e0:8c, 2015-01-01 00:29:16.780, 0.991, 0.006, 0.247, 0.183, 0, 0, 1.642, -75.866, 159.044, -26.040, -10.700, -10.660, 29.43, 0.13336, 0.6066, -0.09949, 0.77734,
 14:06:21.833,ed:35:33:d3:6c:f8, 2015-01-01 00:29:15.695, 0.438, -0.011, 0.888, -0.122, -0.122, -0.366, -0.978, -26.417, 174.029, -13.853, -10.087, -30.753, 30.67, -0.05392, -0.22769, 0.02097, -0.97195,
 14:06:21.833,ed:35:33:d3:6c:f8, 2015-01-01 00:29:15.695, 0.443, -0.013, 0.893, 0.183, -0.122, 0, -0.972, -26.417, 174.007, -13.853, -10.087, -30.753, 30.67, -0.05392, -0.22769, 0.02097, -0.97195,
 14:06:21.837,f6:90:cc:01:6d:25, 2015-01-01 00:29:14.170, 0.894, 0.117, 0.405, 0, 0.183, 0, 16.276, -64.451, -171.826, -27.033, -13.327, -7.620, 31.98, -0.13504, 0.51782, 0.15778, 0.82983,
 14:06:21.837,f6:90:cc:01:6d:25, 2015-01-01 00:29:14.170, 0.896, 0.118, 0.405, -0.183, 0, 0, 16.271, -64.451, -171.81, -27.033, -13.327, -7.620, 31.98, -0.13504, 0.51782, 0.15778, 0.82983,
 14:06:21.861,e3:ca:2d:fd:e0:8c, 2015-01-01 00:29:16.780, 0.993, 0.007, 0.247, 0.183, -0.061, 0, 1.648, -75.866, 159.027, -26.040, -10.700, -10.660, 29.43, 0.13336, 0.6066, -0.09949, 0.77734,
 14:06:21.861,e3:ca:2d:fd:e0:8c, 2015-01-01 00:29:16.780, 0.991, 0.007, 0.246, 0.183, -0.122, 0, 1.648, -75.872, 159.011, -26.040, -10.700, -10.660, 29.43, 0.13336, 0.6066, -0.09949, 0.77734,
 14:06:21.863,ed:35:33:d3:6c:f8, 2015-01-01 00:29:15.695, 0.443, -0.016, 0.891, 0.305, 0.122, -0.122, -0.967, -26.417, 173.985, -13.853, -10.087, -30.753, 30.67, -0.05392, -0.22769, 0.02097, -0.97195,
 14:06:21.863,ed:35:33:d3:6c:f8, 2015-01-01 00:29:15.695, 0.442, -0.01, 0.898, 0.427, -0.122, 0, -0.956, -26.417, 173.969, -13.853, -10.087, -30.753, 30.67, -0.05392, -0.22769, 0.02097, -0.97195,
 14:06:21.888,ed:40:fe:65:30:6c, 2015-01-01 00:29:27.490, 0.378, 0.109, 0.923, 0, 0.061, 0, 6.883, -22.044, -142.498, -12.893, -12.300, -7.200, 25.72, -0.32706, 0.16196, 0.11758, 0.92349,
 14:06:21.888,ed:40:fe:65:30:6c, 2015-01-01 00:29:27.490, 0.377, 0.109, 0.923, 0.061, 0.061, 0, 6.883, -22.044, -142.515, -12.893, -12.300, -7.200, 25.72, -0.32706, 0.16196, 0.11758, 0.92349,
 14:06:21.894,ed:35:33:d3:6c:f8, 2015-01-01 00:29:15.695, 0.443, -0.013, 0.892, -0.183, 0, 0, -0.956, -26.417, 173.941, -13.853, -10.087, -30.753, 30.67, -0.05392, -0.22769, 0.02097, -0.97195,
 14:06:21.894,ed:35:33:d3:6c:f8, 2015-01-01 00:29:15.695, 0.439, -0.014, 0.888, 1.465, -0.854, 0.61, -0.945, -26.422, 173.936, -13.853, -10.087, -30.753, 30.67, -0.05392, -0.22769, 0.02097, -0.97195,
 14:06:21.908,f6:90:cc:01:6d:25, 2015-01-01 00:29:14.170, 0.893, 0.118, 0.404, -0.244, 0, 0, 16.265, -64.451, -171.799, -27.033, -13.327, -7.620, 31.98, -0.13504, 0.51797, 0.15707, 0.82986,
 14:06:21.908,f6:90:cc:01:6d:25, 2015-01-01 00:29:14.170, 0.892, 0.118, 0.404, -0.183, 0.122, 0, 16.26, -64.457, -171.788, -27.033, -13.327, -7.620, 31.98, -0.13504, 0.51797, 0.15707, 0.82986,
 14:06:21.917,ed:40:fe:65:30:6c, 2015-01-01 00:29:27.490, 0.376, 0.109, 0.919, 0.183, 0.061, 0, 6.883, -22.044, -142.531, -12.773, -12.100, -7.033, 25.72, -0.32706, 0.16196, 0.11758, 0.92349,
 14:06:21.917,ed:40:fe:65:30:6c, 2015-01-01 00:29:27.490, 0.376, 0.109, 0.919, 0.366, 0, 0, 6.888, -22.044, -142.548, -12.773, -12.100, -7.033, 25.72, -0.32706, 0.16196, 0.11758, 0.92349,
 14:06:21.921,e3:ca:2d:fd:e0:8c, 2015-01-01 00:29:16.780, 0.991, 0.007, 0.245, 0.488, -0.305, 0, 1.659, -75.877, 158.994, -26.040, -10.700, -10.660, 29.43, 0.13336, 0.6066, -0.09949, 0.77734,
 14:06:21.921,e3:ca:2d:fd:e0:8c, 2015-01-01 00:29:16.780, 0.99, 0.01, 0.246, 0.793, -0.61, 0, 1.675, -75.894, 158.978, -26.040, -10.700, -10.660, 29.43, 0.13336, 0.6066, -0.09949, 0.77734,
 14:06:21.928,f6:90:cc:01:6d:25, 2015-01-01 00:29:14.525, 0.892, 0.118, 0.405, -0.183, 0.122, 0, 16.254, -64.457, -171.771, -27.033, -13.327, -7.620, 31.98, -0.13504, 0.51797, 0.15707, 0.82986,
 14:06:21.928,f6:90:cc:01:6d:25, 2015-01-01 00:29:14.525, 0.892, 0.117, 0.406, -0.183, 0.061, 0, 16.249, -64.457, -171.76, -27.033, -13.327, -7.620, 31.98, -0.13504, 0.51797, 0.15707, 0.82986,
 14:06:21.947,ed:40:fe:65:30:6c, 2015-01-01 00:29:27.490, 0.375, 0.109, 0.919, 0.427, 0.122, 0, 6.894, -22.044, -142.564, -12.773, -12.100, -7.033, 25.72, -0.32706, 0.16196, 0.11758, 0.92349,
 14:06:21.947,ed:40:fe:65:30:6c, 2015-01-01 00:29:27.490, 0.375, 0.109, 0.92, 0.427, 0.183, 0, 6.899, -22.044, -142.581, -12.773, -12.100, -7.033, 25.72, -0.32706, 0.16196, 0.11758, 0.92349,
 14:06:21.951,e3:ca:2d:fd:e0:8c, 2015-01-01 00:29:16.780, 0.991, 0.007, 0.247, 0.183, -0.061, 0, 1.681, -75.894, 158.961, -26.160, -10.293, -9.820, 29.43, 0.13336, 0.6066, -0.09949, 0.77734,
 14:06:21.951,e3:ca:2d:fd:e0:8c, 2015-01-01 00:29:16.780, 0.99, 0.007, 0.247, 0.061, 0, 0, 1.686, -75.894, 158.95, -26.160, -10.293, -9.820, 29.43, 0.13336, 0.6066, -0.09949, 0.77734,
 14:06:21.953,ed:35:33:d3:6c:f8, 2015-01-01 00:29:15.695, 0.442, -0.011, 0.891, -0.122, -0.061, 0, -0.934, -26.428, 173.936, -13.853, -10.087, -30.753, 30.67, -0.05392, -0.22769, 0.02097, -0.97195,
 14:06:21.953,ed:35:33:d3:6c:f8, 2015-01-01 00:29:15.695, 0.443, -0.01, 0.891, 0.366, 0.061, 0, -0.928, -26.428, 173.93, -13.853, -10.087, -30.753, 30.67, -0.05392, -0.22769, 0.02097, -0.97195,
 14:06:21.958,f6:90:cc:01:6d:25, 2015-01-01 00:29:14.525, 0.892, 0.116, 0.406, -0.183, 0.122, 0, 16.243, -64.457, -171.744, -27.033, -13.327, -7.620, 31.98, -0.13504, 0.51797, 0.15707, 0.82986,
 14:06:21.958,f6:90:cc:01:6d:25, 2015-01-01 00:29:14.525, 0.892, 0.117, 0.406, -0.244, 0.122, 0, 16.232, -64.457, -171.733, -27.033, -13.327, -7.620, 31.98, -0.13504, 0.51797, 0.15707, 0.82986,
 14:06:21.984,ed:35:33:d3:6c:f8, 2015-01-01 00:29:15.695, 0.44, -0.014, 0.888, 0.671, 0, 0.183, -0.917, -26.428, 173.919, -14.073, -10.307, -31.287, 30.67, -0.05392, -0.22769, 0.02097, -0.97195,
 14:06:21.984,ed:35:33:d3:6c:f8, 2015-01-01 00:29:15.695, 0.441, -0.007, 0.896, -0.549, 0.549, 0.183, -0.917, -26.422, 173.903, -14.073, -10.307, -31.287, 30.67, -0.05392, -0.22769, 0.02097, -0.97195,
 14:06:22.009,ed:40:fe:65:30:6c, 2015-01-01 00:29:27.490, 0.375, 0.11, 0.921, 0.305, 0.061, 0, 6.905, -22.039, -142.592, -12.773, -12.100, -7.033, 25.72, -0.32516, 0.16177, 0.11716, 0.92426,
 14:06:22.009,ed:40:fe:65:30:6c, 2015-01-01 00:29:27.490, 0.375, 0.11, 0.922, 0.244, 0.183, 0, 6.91, -22.039, -142.608, -12.773, -12.100, -7.033, 25.72, -0.32516, 0.16177, 0.11716, 0.92426,
 14:06:22.010,e3:ca:2d:fd:e0:8c, 2015-01-01 00:29:16.780, 0.991, 0.006, 0.247, 0.061, 0, 0, 1.686, -75.899, 158.934, -26.160, -10.293, -9.820, 29.43, 0.13336, 0.6066, -0.09949, 0.77734,
 14:06:22.010,e3:ca:2d:fd:e0:8c, 2015-01-01 00:29:16.780, 0.991, 0.007, 0.247, 0, 0.061, 0, 1.686, -75.899, 158.917, -26.160, -10.293, -9.820, 29.43, 0.13336, 0.6066, -0.09949, 0.77734,
 14:06:22.014,ed:35:33:d3:6c:f8, 2015-01-01 00:29:15.695, 0.441, -0.011, 0.892, 0.183, 0.61, 0.183, -0.917, -26.406, 173.892, -14.073, -10.307, -31.287, 30.67, -0.05392, -0.22769, 0.02097, -0.97195,
 14:06:22.014,ed:35:33:d3:6c:f8, 2015-01-01 00:29:15.695, 0.436, -0.015, 0.89, 0.916, 0.549, 0.61, -0.912, -26.395, 173.875, -14.073, -10.307, -31.287, 30.67, -0.05392, -0.22769, 0.02097, -0.97195,
 14:06:22.017,f6:90:cc:01:6d:25, 2015-01-01 00:29:14.525, 0.893, 0.117, 0.407, -0.305, 0.183, 0, 16.227, -64.457, -171.716, -27.033, -13.327, -7.620, 31.98, -0.13504, 0.51797, 0.15707, 0.82986,
 14:06:22.017,f6:90:cc:01:6d:25, 2015-01-01 00:29:14.525, 0.893, 0.116, 0.408, -0.183, 0.122, 0, 16.216, -64.457, -171.705, -27.033, -13.327, -7.620, 31.98, -0.13504, 0.51797, 0.15707, 0.82986,
 14:06:22.038,ed:40:fe:65:30:6c, 2015-01-01 00:29:27.880, 0.374, 0.109, 0.922, 0.305, 0.183, 0, 6.91, -22.033, -142.625, -12.773, -12.100, -7.033, 25.72, -0.32516, 0.16177, 0.11716, 0.92426,
 14:06:22.038,ed:40:fe:65:30:6c, 2015-01-01 00:29:27.880, 0.374, 0.109, 0.921, 0.366, 0.244, 0, 6.916, -22.028, -142.635, -12.773, -12.100, -7.033, 25.72, -0.32516, 0.16177, 0.11716, 0.92426,
 14:06:22.042,e3:ca:2d:fd:e0:8c, 2015-01-01 00:29:16.780, 0.991, 0.007, 0.248, 0, 0.061, 0, 1.686, -75.899, 158.906, -26.160, -10.293, -9.820, 29.43, 0.13531, 0.60663, -0.10104, 0.77676,
 14:06:22.042,e3:ca:2d:fd:e0:8c, 2015-01-01 00:29:16.780, 0.99, 0.007, 0.248, 0, 0.061, 0, 1.686, -75.894, 158.89, -26.160, -10.293, -9.820, 29.43, 0.13531, 0.60663, -0.10104, 0.77676,
 14:06:22.048,f6:90:cc:01:6d:25, 2015-01-01 00:29:14.525, 0.891, 0.117, 0.408, -0.061, 0.183, 0, 16.216, -64.457, -171.694, -27.033, -13.327, -7.620, 31.98, -0.13504, 0.51797, 0.15707, 0.82986,
 14:06:22.048,f6:90:cc:01:6d:25, 2015-01-01 00:29:14.525, 0.891, 0.117, 0.407, -0.061, 0.183, 0, 16.21, -64.457, -171.678, -27.033, -13.327, -7.620, 31.98, -0.13504, 0.51797, 0.15707, 0.82986,
 14:06:22.066,ed:40:fe:65:30:6c, 2015-01-01 00:29:27.880, 0.374, 0.108, 0.921, 0.366, 0.305, 0, 6.921, -22.022, -142.652, -12.773, -12.100, -7.033, 25.72, -0.32516, 0.16177, 0.11716, 0.92426,
 14:06:22.066,ed:40:fe:65:30:6c, 2015-01-01 00:29:27.880, 0.374, 0.109, 0.921, 0.183, 0.183, 0, 6.927, -22.017, -142.663, -12.773, -12.100, -7.033, 25.72, -0.32516, 0.16177, 0.11716, 0.92426,
 14:06:22.072,e3:ca:2d:fd:e0:8c, 2015-01-01 00:29:16.780, 0.989, 0.007, 0.248, 0.122, 0.061, 0, 1.686, -75.894, 158.879, -26.160, -10.293, -9.820, 29.43, 0.13531, 0.60663, -0.10104, 0.77676,
 14:06:22.072,e3:ca:2d:fd:e0:8c, 2015-01-01 00:29:16.780, 0.989, 0.007, 0.247, 0.122, 0, 0, 1.686, -75.899, 158.862, -26.160, -10.293, -9.820, 29.43, 0.13531, 0.60663, -0.10104, 0.77676,
 14:06:22.076,ed:35:33:d3:6c:f8, 2015-01-01 00:29:15.695, 0.44, -0.01, 0.895, 0.366, 0.916, 0.305, -0.901, -26.378, 173.859, -14.073, -10.307, -31.287, 30.67, -0.05383, -0.22754, 0.0199, -0.97202,
 14:06:22.076,ed:35:33:d3:6c:f8, 2015-01-01 00:29:15.695, 0.438, -0.013, 0.891, 0.61, 0.122, 0.244, -0.89, -26.367, 173.853, -14.073, -10.307, -31.287, 30.67, -0.05383, -0.22754, 0.0199, -0.97202,
 14:06:22.078,f6:90:cc:01:6d:25, 2015-01-01 00:29:14.525, 0.891, 0.116, 0.407, -0.122, 0.122, 0, 16.205, -64.451, -171.667, -27.033, -13.327, -7.620, 31.98, -0.13504, 0.51797, 0.15707, 0.82986,
 14:06:22.078,f6:90:cc:01:6d:25, 2015-01-01 00:29:14.525, 0.892, 0.116, 0.407, -0.122, 0.061, 0, 16.199, -64.457, -171.656, -27.033, -13.327, -7.620, 31.98, -0.13504, 0.51797, 0.15707, 0.82986,
 14:06:22.100,e3:ca:2d:fd:e0:8c, 2015-01-01 00:29:17.195, 0.99, 0.007, 0.247, 0.061, 0, 0, 1.692, -75.899, 158.851, -26.160, -10.293, -9.820, 29.43, 0.13531, 0.60663, -0.10104, 0.77676,
 14:06:22.100,e3:ca:2d:fd:e0:8c, 2015-01-01 00:29:17.195, 0.991, 0.008, 0.248, 0.061, 0, 0, 1.692, -75.899, 158.835, -26.160, -10.293, -9.820, 29.43, 0.13531, 0.60663, -0.10104, 0.77676,
 14:06:22.104,ed:35:33:d3:6c:f8, 2015-01-01 00:29:16.085, 0.438, -0.01, 0.895, -0.061, 0, 0.183, -0.89, -26.367, 173.87, -14.073, -10.307, -31.287, 30.67, -0.05383, -0.22754, 0.0199, -0.97202,
 14:06:22.104,ed:35:33:d3:6c:f8, 2015-01-01 00:29:16.085, 0.439, -0.012, 0.893, 0, -0.183, 0.122, -0.89, -26.367, 173.881, -14.073, -10.307, -31.287, 30.67, -0.05383, -0.22754, 0.0199, -0.97202,
 14:06:22.126,ed:40:fe:65:30:6c, 2015-01-01 00:29:27.880, 0.375, 0.109, 0.922, 0.244, 0.183, 0, 6.927, -22.017, -142.679, -12.773, -12.100, -7.033, 25.72, -0.32516, 0.16177, 0.11716, 0.92426,
 14:06:22.126,ed:40:fe:65:30:6c, 2015-01-01 00:29:27.880, 0.375, 0.109, 0.922, 0.244, 0.122, 0, 6.932, -22.011, -142.69, -12.773, -12.100, -7.033, 25.72, -0.32516, 0.16177, 0.11716, 0.92426,
 14:06:22.132,ed:35:33:d3:6c:f8, 2015-01-01 00:29:16.085, 0.44, -0.011, 0.893, 0.122, 0.061, 0.122, -0.884, -26.367, 173.892, -14.073, -10.307, -31.287, 30.67, -0.05383, -0.22754, 0.0199, -0.97202,
 14:06:22.132,ed:35:33:d3:6c:f8, 2015-01-01 00:29:16.085, 0.44, -0.011, 0.893, 0.061, 0, 0.122, -0.884, -26.362, 173.908, -14.073, -10.307, -31.287, 30.67, -0.05383, -0.22754, 0.0199, -0.97202,
 14:06:22.138,f6:90:cc:01:6d:25, 2015-01-01 00:29:14.525, 0.893, 0.117, 0.406, -0.122, 0.061, 0, 16.194, -64.457, -171.639, -27.033, -13.327, -7.620, 31.98, -0.13504, 0.51797, 0.15707, 0.82986,
 14:06:22.138,f6:90:cc:01:6d:25, 2015-01-01 00:29:14.525, 0.893, 0.116, 0.407, -0.061, 0, 0, 16.188, -64.457, -171.628, -27.033, -13.327, -7.620, 31.98, -0.13504, 0.51797, 0.15707, 0.82986,
 14:06:22.157,ed:40:fe:65:30:6c, 2015-01-01 00:29:27.880, 0.375, 0.11, 0.922, 0.183, 0.122, 0, 6.932, -22.011, -142.707, -12.773, -12.100, -7.033, 25.72, -0.32516, 0.16177, 0.11716, 0.92426,
 14:06:22.157,ed:40:fe:65:30:6c, 2015-01-01 00:29:27.880, 0.375, 0.11, 0.921, 0.183, 0.061, 0, 6.932, -22.006, -142.718, -12.773, -12.100, -7.033, 25.72, -0.32516, 0.16177, 0.11716, 0.92426,
 14:06:22.160,e3:ca:2d:fd:e0:8c, 2015-01-01 00:29:17.195, 0.991, 0.007, 0.247, 0.061, 0, 0, 1.692, -75.899, 158.824, -26.160, -10.293, -9.820, 29.43, 0.13531, 0.60663, -0.10104, 0.77676,
 14:06:22.160,e3:ca:2d:fd:e0:8c, 2015-01-01 00:29:17.195, 0.99, 0.007, 0.247, 0.061, 0, 0, 1.692, -75.899, 158.813, -26.160, -10.293, -9.820, 29.43, 0.13531, 0.60663, -0.10104, 0.77676,
 14:06:22.191,e3:ca:2d:fd:e0:8c, 2015-01-01 00:29:17.195, 0.99, 0.007, 0.246, 0.122, 0, 0, 1.697, -75.899, 158.796, -26.160, -10.293, -9.820, 29.43, 0.13531, 0.60663, -0.10104, 0.77676,
 14:06:22.191,e3:ca:2d:fd:e0:8c, 2015-01-01 00:29:17.195, 0.99, 0.006, 0.246, 0.061, 0, 0, 1.697, -75.905, 158.785, -26.160, -10.293, -9.820, 29.43, 0.13531, 0.60663, -0.10104, 0.77676,
 14:06:22.193,ed:35:33:d3:6c:f8, 2015-01-01 00:29:16.085, 0.44, -0.009, 0.893, 0.854, -0.061, 0.427, -0.879, -26.362, 173.914, -14.073, -10.307, -31.287, 30.67, -0.05383, -0.22754, 0.0199, -0.97202,
 14:06:22.193,ed:35:33:d3:6c:f8, 2015-01-01 00:29:16.085, 0.44, -0.011, 0.893, -0.183, -0.122, 0.244, -0.873, -26.362, 173.93, -14.073, -10.307, -31.287, 30.67, -0.05383, -0.22754, 0.0199, -0.97202,
 14:06:22.196,f6:90:cc:01:6d:25, 2015-01-01 00:29:14.525, 0.893, 0.117, 0.406, 0, 0.061, 0, 16.188, -64.457, -171.617, -27.107, -13.260, -7.667, 31.98, -0.13504, 0.51797, 0.15707, 0.82986,
 14:06:22.197,f6:90:cc:01:6d:25, 2015-01-01 00:29:14.525, 0.892, 0.116, 0.406, 0, 0.061, 0, 16.183, -64.457, -171.606, -27.107, -13.260, -7.667, 31.98, -0.13504, 0.51797, 0.15707, 0.82986,
 14:06:22.200,f6:90:cc:01:6d:25, 2015-01-01 00:29:14.525, 0.892, 0.117, 0.406, 0, 0.122, 0, 16.183, -64.457, -171.595, -27.107, -13.260, -7.667, 31.98, -0.13504, 0.51797, 0.15707, 0.82986,
 14:06:22.200,f6:90:cc:01:6d:25, 2015-01-01 00:29:14.525, 0.892, 0.116, 0.405, -0.061, 0.122, 0, 16.177, -64.457, -171.584, -27.107, -13.260, -7.667, 31.98, -0.13504, 0.51797, 0.15707, 0.82986,
 14:06:22.219,ed:40:fe:65:30:6c, 2015-01-01 00:29:27.880, 0.376, 0.109, 0.921, 0.183, 0, 0.305, 6.932, -22.006, -142.729, -12.773, -12.100, -7.033, 25.72, -0.32516, 0.16177, 0.11716, 0.92426,
 14:06:22.219,ed:40:fe:65:30:6c, 2015-01-01 00:29:27.880, 0.375, 0.108, 0.92, 0.183, 0.061, 0.305, 6.932, -22.006, -142.734, -12.773, -12.100, -7.033, 25.72, -0.32516, 0.16177, 0.11716, 0.92426,
 14:06:22.221,e3:ca:2d:fd:e0:8c, 2015-01-01 00:29:17.195, 0.99, 0.006, 0.246, 0.061, 0, 0, 1.697, -75.905, 158.774, -26.160, -10.293, -9.820, 29.43, 0.13531, 0.60663, -0.10104, 0.77676,
 14:06:22.221,e3:ca:2d:fd:e0:8c, 2015-01-01 00:29:17.195, 0.993, 0.007, 0.246, 0.061, 0, 0, 1.697, -75.905, 158.758, -26.160, -10.293, -9.820, 29.43, 0.13531, 0.60663, -0.10104, 0.77676,
 14:06:22.223,ed:35:33:d3:6c:f8, 2015-01-01 00:29:16.085, 0.439, -0.013, 0.892, 0.244, 0, 0.366, -0.873, -26.362, 173.936, -14.073, -10.307, -31.287, 30.67, -0.05383, -0.22754, 0.0199, -0.97202,
 14:06:22.223,ed:35:33:d3:6c:f8, 2015-01-01 00:29:16.085, 0.44, -0.01, 0.893, -0.122, -0.244, 0.366, -0.873, -26.362, 173.952, -14.073, -10.307, -31.287, 30.67, -0.05383, -0.22754, 0.0199, -0.97202,
 14:06:22.247,ed:40:fe:65:30:6c, 2015-01-01 00:29:27.880, 0.374, 0.109, 0.921, 0.183, 0.061, 0.305, 6.932, -22.006, -142.74, -12.773, -12.100, -7.033, 25.72, -0.32516, 0.16177, 0.11716, 0.92426,
 14:06:22.247,ed:40:fe:65:30:6c, 2015-01-01 00:29:27.880, 0.378, 0.11, 0.921, 0.244, 0.061, 0.305, 6.932, -22.006, -142.745, -12.773, -12.100, -7.033, 25.72, -0.32516, 0.16177, 0.11716, 0.92426,
 14:06:22.253,ed:35:33:d3:6c:f8, 2015-01-01 00:29:16.085, 0.443, -0.012, 0.89, 0.122, 0.366, 0.244, -0.873, -26.362, 173.963, -14.073, -10.307, -31.287, 30.67, -0.05383, -0.22754, 0.0199, -0.97202,
 14:06:22.253,ed:35:33:d3:6c:f8, 2015-01-01 00:29:16.085, 0.442, -0.013, 0.89, 0.305, 0, 0.183, -0.868, -26.356, 173.969, -14.073, -10.307, -31.287, 30.67, -0.05383, -0.22754, 0.0199, -0.97202,
 14:06:22.257,f6:90:cc:01:6d:25, 2015-01-01 00:29:14.525, 0.893, 0.116, 0.406, -0.183, 0.122, 0, 16.172, -64.457, -171.573, -27.107, -13.260, -7.667, 31.98, -0.13626, 0.51782, 0.15744, 0.82968,
 14:06:22.257,f6:90:cc:01:6d:25, 2015-01-01 00:29:14.525, 0.896, 0.117, 0.408, 0, 0, 0, 16.166, -64.462, -171.562, -27.107, -13.260, -7.667, 31.98, -0.13626, 0.51782, 0.15744, 0.82968,
 14:06:22.277,ed:40:fe:65:30:6c, 2015-01-01 00:29:27.880, 0.378, 0.109, 0.92, 0.305, 0.183, 0.305, 6.932, -22.006, -142.756, -12.960, -12.227, -7.813, 25.72, -0.32516, 0.16177, 0.11716, 0.92426,
 14:06:22.277,ed:40:fe:65:30:6c, 2015-01-01 00:29:27.880, 0.374, 0.106, 0.921, 0.244, 0.427, 0.366, 6.932, -21.995, -142.756, -12.960, -12.227, -7.813, 25.72, -0.32516, 0.16177, 0.11716, 0.92426,
 14:06:22.280,e3:ca:2d:fd:e0:8c, 2015-01-01 00:29:17.195, 0.993, 0.006, 0.246, 0.122, 0, 0, 1.703, -75.905, 158.747, -26.160, -10.293, -9.820, 29.43, 0.13531, 0.60663, -0.10104, 0.77676,
 14:06:22.280,e3:ca:2d:fd:e0:8c, 2015-01-01 00:29:17.195, 0.989, 0.004, 0.247, 0.244, 0.061, 0, 1.703, -75.905, 158.736, -26.160, -10.293, -9.820, 29.43, 0.13531, 0.60663, -0.10104, 0.77676,
 14:06:22.286,f6:90:cc:01:6d:25, 2015-01-01 00:29:14.885, 0.894, 0.114, 0.406, 0.183, 0.122, 0, 16.166, -64.462, -171.552, -27.107, -13.260, -7.667, 31.98, -0.13626, 0.51782, 0.15744, 0.82968,
 14:06:22.286,f6:90:cc:01:6d:25, 2015-01-01 00:29:14.885, 0.891, 0.114, 0.405, 0.183, 0.244, 0, 16.166, -64.457, -171.541, -27.107, -13.260, -7.667, 31.98, -0.13626, 0.51782, 0.15744, 0.82968,
 14:06:22.310,e3:ca:2d:fd:e0:8c, 2015-01-01 00:29:17.195, 0.987, 0.008, 0.247, 0.061, 0.122, 0, 1.703, -75.905, 158.725, -25.787, -10.140, -9.700, 29.43, 0.13531, 0.60663, -0.10104, 0.77676,
 14:06:22.310,e3:ca:2d:fd:e0:8c, 2015-01-01 00:29:17.195, 0.992, 0.009, 0.247, 0.061, 0.122, 0, 1.703, -75.905, 158.714, -25.787, -10.140, -9.700, 29.43, 0.13531, 0.60663, -0.10104, 0.77676,
 14:06:22.312,ed:35:33:d3:6c:f8, 2015-01-01 00:29:16.085, 0.436, -0.014, 0.893, 0.244, -0.061, 0.366, -0.868, -26.356, 173.974, -14.073, -10.307, -31.287, 30.67, -0.05383, -0.22754, 0.0199, -0.97202,
 14:06:22.312,ed:35:33:d3:6c:f8, 2015-01-01 00:29:16.085, 0.438, -0.011, 0.893, 0, 0, 0.366, -0.868, -26.356, 173.985, -14.073, -10.307, -31.287, 30.67, -0.05383, -0.22754, 0.0199, -0.97202,
 14:06:22.316,f6:90:cc:01:6d:25, 2015-01-01 00:29:14.885, 0.89, 0.117, 0.407, 0, 0.366, 0, 16.155, -64.457, -171.524, -27.107, -13.260, -7.667, 31.98, -0.13626, 0.51782, 0.15744, 0.82968,
 14:06:22.316,f6:90:cc:01:6d:25, 2015-01-01 00:29:14.885, 0.894, 0.12, 0.406, -0.183, 0.305, 0, 16.15, -64.451, -171.513, -27.107, -13.260, -7.667, 31.98, -0.13626, 0.51782, 0.15744, 0.82968,
 14:06:22.337,ed:40:fe:65:30:6c, 2015-01-01 00:29:27.880, 0.372, 0.106, 0.922, 0.305, 0.183, 0.427, 6.932, -21.995, -142.762, -12.960, -12.227, -7.813, 25.72, -0.32516, 0.16177, 0.11716, 0.92426,
 14:06:22.337,ed:40:fe:65:30:6c, 2015-01-01 00:29:27.880, 0.375, 0.111, 0.921, 0.122, 0.305, 0.183, 6.932, -21.989, -142.767, -12.960, -12.227, -7.813, 25.72, -0.32516, 0.16177, 0.11716, 0.92426,
 14:06:22.341,e3:ca:2d:fd:e0:8c, 2015-01-01 00:29:17.195, 0.992, 0.008, 0.248, 0, 0, 0, 1.703, -75.905, 158.698, -25.787, -10.140, -9.700, 29.43, 0.13531, 0.60663, -0.10104, 0.77676,
 14:06:22.341,e3:ca:2d:fd:e0:8c, 2015-01-01 00:29:17.195, 0.99, 0.005, 0.247, 0.122, 0.061, 0, 1.703, -75.905, 158.687, -25.787, -10.140, -9.700, 29.43, 0.13531, 0.60663, -0.10104, 0.77676,
 14:06:22.343,ed:35:33:d3:6c:f8, 2015-01-01 00:29:16.085, 0.443, -0.011, 0.892, 0.305, 0.244, 0, -0.862, -26.351, 174.001, -14.060, -10.380, -30.820, 30.67, -0.05383, -0.22754, 0.0199, -0.97202,
 14:06:22.343,ed:35:33:d3:6c:f8, 2015-01-01 00:29:16.085, 0.439, -0.01, 0.893, -0.122, -0.122, -0.244, -0.862, -26.351, 173.99, -14.060, -10.380, -30.820, 30.67, -0.05383, -0.22754, 0.0199, -0.97202,
 14:06:22.366,ed:40:fe:65:30:6c, 2015-01-01 00:29:27.880, 0.375, 0.11, 0.921, 0.183, 0.244, 0.061, 6.932, -21.984, -142.778, -12.960, -12.227, -7.813, 25.72, -0.32367, 0.16147, 0.117, 0.92487,
 14:06:22.366,ed:40:fe:65:30:6c, 2015-01-01 00:29:27.880, 0.373, 0.11, 0.925, 0, 0.305, 0.122, 6.927, -21.978, -142.789, -12.960, -12.227, -7.813, 25.72, -0.32367, 0.16147, 0.117, 0.92487,
 14:06:22.374,ed:35:33:d3:6c:f8, 2015-01-01 00:29:16.085, 0.438, -0.007, 0.896, 0.305, -0.061, 0.366, -0.857, -26.351, 173.963, -14.060, -10.380, -30.820, 30.67, -0.05383, -0.22754, 0.0199, -0.97202,
 14:06:22.374,ed:35:33:d3:6c:f8, 2015-01-01 00:29:16.085, 0.44, -0.015, 0.897, -0.366, -0.366, 0.427, -0.862, -26.351, 173.947, -14.060, -10.380, -30.820, 30.67, -0.05383, -0.22754, 0.0199, -0.97202,
 14:06:22.376,f6:90:cc:01:6d:25, 2015-01-01 00:29:14.885, 0.893, 0.116, 0.409, 0, 0.122, 0, 16.144, -64.451, -171.502, -27.107, -13.260, -7.667, 31.98, -0.13626, 0.51782, 0.15744, 0.82968,
 14:06:22.376,f6:90:cc:01:6d:25, 2015-01-01 00:29:14.885, 0.893, 0.113, 0.405, 0, 0.183, 0, 16.144, -64.451, -171.491, -27.107, -13.260, -7.667, 31.98, -0.13626, 0.51782, 0.15744, 0.82968,
 14:06:22.397,ed:40:fe:65:30:6c, 2015-01-01 00:29:27.880, 0.375, 0.107, 0.924, -0.122, 0.244, 0.244, 6.921, -21.973, -142.795, -12.960, -12.227, -7.813, 25.72, -0.32367, 0.16147, 0.117, 0.92487,
 14:06:22.397,ed:40:fe:65:30:6c, 2015-01-01 00:29:27.880, 0.375, 0.106, 0.924, -0.183, 0.183, 0.061, 6.916, -21.973, -142.806, -12.960, -12.227, -7.813, 25.72, -0.32367, 0.16147, 0.117, 0.92487,
 14:06:22.401,e3:ca:2d:fd:e0:8c, 2015-01-01 00:29:17.195, 0.993, 0.005, 0.246, 0.061, 0.061, 0, 1.708, -75.905, 158.676, -25.787, -10.140, -9.700, 29.43, 0.13675, 0.60651, -0.10214, 0.77649,
 14:06:22.401,e3:ca:2d:fd:e0:8c, 2015-01-01 00:29:17.195, 0.99, 0.009, 0.246, -0.061, 0.122, 0, 1.708, -75.905, 158.665, -25.787, -10.140, -9.700, 29.43, 0.13675, 0.60651, -0.10214, 0.77649,
 14:06:22.406,f6:90:cc:01:6d:25, 2015-01-01 00:29:14.885, 0.894, 0.115, 0.406, -0.244, 0.061, 0, 16.133, -64.451, -171.48, -27.107, -13.260, -7.667, 31.98, -0.13626, 0.51782, 0.15744, 0.82968,
 14:06:22.406,f6:90:cc:01:6d:25, 2015-01-01 00:29:14.885, 0.892, 0.118, 0.406, -0.366, 0, 0, 16.122, -64.451, -171.469, -27.107, -13.260, -7.667, 31.98, -0.13626, 0.51782, 0.15744, 0.82968,
 14:06:22.430,e3:ca:2d:fd:e0:8c, 2015-01-01 00:29:17.525, 0.989, 0.008, 0.245, -0.122, 0.122, 0, 1.703, -75.905, 158.654, -25.787, -10.140, -9.700, 29.43, 0.13675, 0.60651, -0.10214, 0.77649,
 14:06:22.430,e3:ca:2d:fd:e0:8c, 2015-01-01 00:29:17.525, 0.989, 0.007, 0.245, -0.122, 0.061, 0, 1.703, -75.905, 158.643, -25.787, -10.140, -9.700, 29.43, 0.13675, 0.60651, -0.10214, 0.77649,
 14:06:22.435,f6:90:cc:01:6d:25, 2015-01-01 00:29:14.885, 0.891, 0.116, 0.406, -0.305, 0, 0, 16.117, -64.457, -171.464, -27.107, -13.260, -7.667, 31.98, -0.13626, 0.51782, 0.15744, 0.82968,
 14:06:22.435,f6:90:cc:01:6d:25, 2015-01-01 00:29:14.885, 0.891, 0.115, 0.405, -0.305, -0.061, 0, 16.111, -64.457, -171.453, -27.107, -13.260, -7.667, 31.98, -0.13626, 0.51782, 0.15744, 0.82968,
 14:06:22.436,ed:35:33:d3:6c:f8, 2015-01-01 00:29:16.085, 0.439, -0.017, 0.896, -0.244, -0.671, 0, -0.868, -26.362, 173.936, -14.060, -10.380, -30.820, 30.67, -0.05307, -0.22723, 0.01932, -0.97214,
 14:06:22.436,ed:35:33:d3:6c:f8, 2015-01-01 00:29:16.085, 0.438, -0.017, 0.892, -0.122, -0.793, 0.183, -0.873, -26.373, 173.919, -14.060, -10.380, -30.820, 30.67, -0.05307, -0.22723, 0.01932, -0.97214,
 14:06:22.457,ed:40:fe:65:30:6c, 2015-01-01 00:29:28.265, 0.375, 0.104, 0.922, 0.061, 0.061, -0.122, 6.916, -21.967, -142.817, -12.960, -12.227, -7.813, 25.72, -0.32367, 0.16147, 0.117, 0.92487,
 14:06:22.457,ed:40:fe:65:30:6c, 2015-01-01 00:29:28.265, 0.373, 0.106, 0.921, 0.183, 0, -0.183, 6.916, -21.967, -142.833, -12.960, -12.227, -7.813, 25.72, -0.32367, 0.16147, 0.117, 0.92487,
 14:06:22.460,e3:ca:2d:fd:e0:8c, 2015-01-01 00:29:17.525, 0.988, 0.005, 0.247, -0.183, 0, 0, 1.697, -75.905, 158.632, -25.787, -10.140, -9.700, 29.43, 0.13675, 0.60651, -0.10214, 0.77649,
 14:06:22.460,e3:ca:2d:fd:e0:8c, 2015-01-01 00:29:17.525, 0.989, 0.006, 0.248, -0.183, 0.061, 0, 1.697, -75.905, 158.621, -25.787, -10.140, -9.700, 29.43, 0.13675, 0.60651, -0.10214, 0.77649,
 14:06:22.462,ed:35:33:d3:6c:f8, 2015-01-01 00:29:16.440, 0.439, -0.013, 0.891, -0.732, -0.427, 0.244, -0.879, -26.384, 173.903, -14.060, -10.380, -30.820, 30.67, -0.05307, -0.22723, 0.01932, -0.97214,
 14:06:22.462,ed:35:33:d3:6c:f8, 2015-01-01 00:29:16.440, 0.438, -0.01, 0.891, -0.366, -0.366, -0.122, -0.89, -26.389, 173.886, -14.060, -10.380, -30.820, 30.67, -0.05307, -0.22723, 0.01932, -0.97214,
 14:06:22.487,ed:40:fe:65:30:6c, 2015-01-01 00:29:28.265, 0.373, 0.109, 0.92, 0.061, 0, -0.244, 6.916, -21.967, -142.85, -12.960, -12.227, -7.813, 25.72, -0.32367, 0.16147, 0.117, 0.92487,
 14:06:22.487,ed:40:fe:65:30:6c, 2015-01-01 00:29:28.265, 0.372, 0.107, 0.919, -0.061, 0, -0.244, 6.916, -21.967, -142.866, -12.960, -12.227, -7.813, 25.72, -0.32367, 0.16147, 0.117, 0.92487,
 14:06:22.493,ed:35:33:d3:6c:f8, 2015-01-01 00:29:16.440, 0.436, -0.01, 0.894, 0, -0.854, 0, -0.895, -26.4, 173.87, -14.060, -10.380, -30.820, 30.67, -0.05307, -0.22723, 0.01932, -0.97214,
 14:06:22.493,ed:35:33:d3:6c:f8, 2015-01-01 00:29:16.440, 0.441, -0.011, 0.893, -0.427, -0.305, -0.305, -0.895, -26.406, 173.848, -14.060, -10.380, -30.820, 30.67, -0.05307, -0.22723, 0.01932, -0.97214,
 14:06:22.497,f6:90:cc:01:6d:25, 2015-01-01 00:29:14.885, 0.89, 0.114, 0.407, -0.366, -0.122, 0, 16.1, -64.462, -171.447, -27.107, -13.260, -7.667, 31.98, -0.13626, 0.51782, 0.15744, 0.82968,
 14:06:22.497,f6:90:cc:01:6d:25, 2015-01-01 00:29:14.885, 0.891, 0.115, 0.407, -0.427, -0.122, 0, 16.089, -64.468, -171.436, -27.107, -13.260, -7.667, 31.98, -0.13626, 0.51782, 0.15744, 0.82968,
 14:06:22.516,ed:40:fe:65:30:6c, 2015-01-01 00:29:28.265, 0.372, 0.108, 0.921, 0, 0, -0.244, 6.91, -21.967, -142.883, -12.960, -12.227, -7.813, 25.72, -0.32367, 0.16147, 0.117, 0.92487,
 14:06:22.516,ed:40:fe:65:30:6c, 2015-01-01 00:29:28.265, 0.374, 0.11, 0.922, 0.122, -0.061, -0.183, 6.916, -21.967, -142.899, -12.960, -12.227, -7.813, 25.72, -0.32367, 0.16147, 0.117, 0.92487,
 14:06:22.520,e3:ca:2d:fd:e0:8c, 2015-01-01 00:29:17.525, 0.99, 0.006, 0.249, -0.122, 0, 0, 1.692, -75.905, 158.615, -25.787, -10.140, -9.700, 29.43, 0.13675, 0.60651, -0.10214, 0.77649,
 14:06:22.520,e3:ca:2d:fd:e0:8c, 2015-01-01 00:29:17.525, 0.991, 0.006, 0.249, -0.122, 0, 0, 1.686, -75.905, 158.604, -25.787, -10.140, -9.700, 29.43, 0.13675, 0.60651, -0.10214, 0.77649,
 14:06:22.527,f6:90:cc:01:6d:25, 2015-01-01 00:29:14.885, 0.892, 0.115, 0.409, -0.427, -0.122, 0, 16.084, -64.473, -171.431, -26.807, -13.607, -7.527, 31.98, -0.13626, 0.51782, 0.15744, 0.82968,
 14:06:22.527,f6:90:cc:01:6d:25, 2015-01-01 00:29:14.885, 0.893, 0.114, 0.409, -0.183, -0.122, 0, 16.078, -64.479, -171.425, -26.807, -13.607, -7.527, 31.98, -0.13626, 0.51782, 0.15744, 0.82968,
 14:06:22.550,e3:ca:2d:fd:e0:8c, 2015-01-01 00:29:17.525, 0.99, 0.005, 0.249, 0, 0, 0, 1.681, -75.905, 158.593, -25.787, -10.140, -9.700, 29.43, 0.13675, 0.60651, -0.10214, 0.77649,
 14:06:22.550,e3:ca:2d:fd:e0:8c, 2015-01-01 00:29:17.525, 0.99, 0.007, 0.247, 0.061, 0, 0, 1.681, -75.91, 158.582, -25.787, -10.140, -9.700, 29.43, 0.13675, 0.60651, -0.10214, 0.77649,
 14:06:22.552,ed:35:33:d3:6c:f8, 2015-01-01 00:29:16.440, 0.441, -0.012, 0.889, 0.122, 0, -0.488, -0.89, -26.406, 173.837, -14.060, -10.380, -30.820, 30.67, -0.05307, -0.22723, 0.01932, -0.97214,
 14:06:22.552,ed:35:33:d3:6c:f8, 2015-01-01 00:29:16.440, 0.441, -0.008, 0.895, 0.854, 0, -0.061, -0.873, -26.406, 173.831, -14.060, -10.380, -30.820, 30.67, -0.05307, -0.22723, 0.01932, -0.97214,
 14:06:22.556,f6:90:cc:01:6d:25, 2015-01-01 00:29:14.885, 0.893, 0.114, 0.407, -0.061, 0, 0, 16.073, -64.479, -171.414, -26.807, -13.607, -7.527, 31.98, -0.13626, 0.51782, 0.15744, 0.82968,
 14:06:22.556,f6:90:cc:01:6d:25, 2015-01-01 00:29:14.885, 0.893, 0.115, 0.406, -0.183, 0.183, 0, 16.062, -64.473, -171.409, -26.807, -13.607, -7.527, 31.98, -0.13626, 0.51782, 0.15744, 0.82968,
 14:06:22.576,ed:40:fe:65:30:6c, 2015-01-01 00:29:28.265, 0.375, 0.11, 0.922, 0.183, 0, 0, 6.916, -21.967, -142.91, -12.960, -12.227, -7.813, 25.72, -0.32367, 0.16147, 0.117, 0.92487,
 14:06:22.576,ed:40:fe:65:30:6c, 2015-01-01 00:29:28.265, 0.375, 0.107, 0.923, 0.061, 0.061, 0, 6.916, -21.967, -142.921, -12.960, -12.227, -7.813, 25.72, -0.32367, 0.16147, 0.117, 0.92487,
 14:06:22.580,e3:ca:2d:fd:e0:8c, 2015-01-01 00:29:17.525, 0.99, 0.008, 0.246, 0.122, -0.061, 0, 1.681, -75.91, 158.571, -25.787, -10.140, -9.700, 29.43, 0.13675, 0.60651, -0.10214, 0.77649,
 14:06:22.580,e3:ca:2d:fd:e0:8c, 2015-01-01 00:29:17.525, 0.991, 0.008, 0.245, 0.244, -0.061, 0, 1.686, -75.91, 158.56, -25.787, -10.140, -9.700, 29.43, 0.13675, 0.60651, -0.10214, 0.77649,
 14:06:22.582,ed:35:33:d3:6c:f8, 2015-01-01 00:29:16.440, 0.441, -0.013, 0.893, -0.366, 0.061, 0, -0.873, -26.4, 173.82, -14.060, -10.380, -30.820, 30.67, -0.05307, -0.22723, 0.01932, -0.97214,
 14:06:22.582,ed:35:33:d3:6c:f8, 2015-01-01 00:29:16.440, 0.44, -0.017, 0.888, 0.244, -0.061, 0, -0.873, -26.4, 173.826, -14.060, -10.380, -30.820, 30.67, -0.05307, -0.22723, 0.01932, -0.97214,
 14:06:22.608,ed:40:fe:65:30:6c, 2015-01-01 00:29:28.265, 0.376, 0.106, 0.921, 0, 0.061, -0.061, 6.91, -21.962, -142.932, -12.960, -12.227, -7.813, 25.72, -0.32367, 0.16147, 0.117, 0.92487,
 14:06:22.612,ed:40:fe:65:30:6c, 2015-01-01 00:29:28.265, 0.375, 0.11, 0.918, 0.183, 0.244, -0.244, 6.91, -21.962, -142.949, -12.960, -12.227, -7.813, 25.72, -0.32367, 0.16147, 0.117, 0.92487,
 14:06:22.614,ed:35:33:d3:6c:f8, 2015-01-01 00:29:16.440, 0.443, -0.011, 0.891, -0.061, 0.488, -0.488, -0.868, -26.389, 173.842, -14.060, -10.380, -30.820, 30.67, -0.05307, -0.22723, 0.01932, -0.97214,
 14:06:22.614,ed:35:33:d3:6c:f8, 2015-01-01 00:29:16.440, 0.44, -0.008, 0.89, 0, 0.061, -0.488, -0.862, -26.384, 173.87, -14.060, -10.380, -30.820, 30.67, -0.05307, -0.22723, 0.01932, -0.97214,
 14:06:22.618,f6:90:cc:01:6d:25, 2015-01-01 00:29:14.885, 0.892, 0.117, 0.407, 0, 0.122, 0, 16.057, -64.473, -171.398, -26.807, -13.607, -7.527, 31.98, -0.13705, 0.51785, 0.15741, 0.82956,
 14:06:22.618,f6:90:cc:01:6d:25, 2015-01-01 00:29:14.885, 0.893, 0.116, 0.404, -0.061, 0.244, 0, 16.051, -64.473, -171.387, -26.807, -13.607, -7.527, 31.98, -0.13705, 0.51785, 0.15741, 0.82956,
 14:06:22.636,ed:40:fe:65:30:6c, 2015-01-01 00:29:28.265, 0.374, 0.11, 0.92, 0.183, 0.122, 0, 6.916, -21.956, -142.965, -12.747, -12.347, -8.473, 25.72, -0.32367, 0.16147, 0.117, 0.92487,
 14:06:22.636,ed:40:fe:65:30:6c, 2015-01-01 00:29:28.265, 0.376, 0.112, 0.922, 0.244, 0.122, 0.061, 6.916, -21.956, -142.976, -12.747, -12.347, -8.473, 25.72, -0.32367, 0.16147, 0.117, 0.92487,
 14:06:22.640,e3:ca:2d:fd:e0:8c, 2015-01-01 00:29:17.525, 0.989, 0.007, 0.245, 0.183, 0, 0, 1.686, -75.91, 158.549, -25.787, -10.140, -9.700, 29.43, 0.13675, 0.60651, -0.10214, 0.77649,
 14:06:22.640,e3:ca:2d:fd:e0:8c, 2015-01-01 00:29:17.525, 0.991, 0.005, 0.245, 0.183, 0.061, 0, 1.692, -75.916, 158.538, -25.787, -10.140, -9.700, 29.43, 0.13675, 0.60651, -0.10214, 0.77649,
 14:06:22.646,f6:90:cc:01:6d:25, 2015-01-01 00:29:15.240, 0.893, 0.115, 0.404, -0.061, 0.244, 0, 16.046, -64.468, -171.376, -26.807, -13.607, -7.527, 31.98, -0.13705, 0.51785, 0.15741, 0.82956,
 14:06:22.646,f6:90:cc:01:6d:25, 2015-01-01 00:29:15.240, 0.895, 0.116, 0.404, 0, 0.122, 0, 16.04, -64.468, -171.365, -26.807, -13.607, -7.527, 31.98, -0.13705, 0.51785, 0.15741, 0.82956,
 14:06:22.671,e3:ca:2d:fd:e0:8c, 2015-01-01 00:29:17.525, 0.993, 0.007, 0.244, 0.244, 0.061, 0, 1.697, -75.916, 158.533, -25.860, -10.140, -9.007, 29.43, 0.13675, 0.60651, -0.10214, 0.77649,
 14:06:22.671,e3:ca:2d:fd:e0:8c, 2015-01-01 00:29:17.525, 0.992, 0.009, 0.246, 0.122, 0, 0, 1.697, -75.916, 158.522, -25.860, -10.140, -9.007, 29.43, 0.13675, 0.60651, -0.10214, 0.77649,
 14:06:22.673,ed:35:33:d3:6c:f8, 2015-01-01 00:29:16.440, 0.443, -0.006, 0.893, 0.549, 0.122, 0.122, -0.851, -26.384, 173.892, -14.060, -10.380, -30.820, 30.67, -0.05307, -0.22723, 0.01932, -0.97214,
 14:06:22.673,ed:35:33:d3:6c:f8, 2015-01-01 00:29:16.440, 0.445, -0.008, 0.893, 0.122, 0.305, -0.305, -0.84, -26.378, 173.886, -14.060, -10.380, -30.820, 30.67, -0.05307, -0.22723, 0.01932, -0.97214,
 14:06:22.677,f6:90:cc:01:6d:25, 2015-01-01 00:29:15.240, 0.894, 0.118, 0.405, -0.244, 0, 0, 16.04, -64.468, -171.354, -26.807, -13.607, -7.527, 31.98, -0.13705, 0.51785, 0.15741, 0.82956,
 14:06:22.677,f6:90:cc:01:6d:25, 2015-01-01 00:29:15.240, 0.892, 0.119, 0.405, -0.244, 0, 0, 16.035, -64.473, -171.348, -26.807, -13.607, -7.527, 31.98, -0.13705, 0.51785, 0.15741, 0.82956,
 14:06:22.698,ed:40:fe:65:30:6c, 2015-01-01 00:29:28.265, 0.376, 0.111, 0.923, 0.244, 0.061, 0.122, 6.916, -21.951, -142.982, -12.747, -12.347, -8.473, 25.72, -0.32367, 0.16147, 0.117, 0.92487,
 14:06:22.698,ed:40:fe:65:30:6c, 2015-01-01 00:29:28.265, 0.374, 0.11, 0.923, 0.244, -0.061, 0, 6.921, -21.951, -142.993, -12.747, -12.347, -8.473, 25.72, -0.32367, 0.16147, 0.117, 0.92487,
 14:06:22.702,e3:ca:2d:fd:e0:8c, 2015-01-01 00:29:17.525, 0.99, 0.01, 0.245, 0, 0, 0, 1.697, -75.916, 158.511, -25.860, -10.140, -9.007, 29.43, 0.13675, 0.60651, -0.10214, 0.77649,
 14:06:22.702,e3:ca:2d:fd:e0:8c, 2015-01-01 00:29:17.525, 0.989, 0.008, 0.246, 0, 0, 0, 1.703, -75.916, 158.505, -25.860, -10.140, -9.007, 29.43, 0.13675, 0.60651, -0.10214, 0.77649,
 14:06:22.703,ed:35:33:d3:6c:f8, 2015-01-01 00:29:16.440, 0.441, -0.01, 0.894, 0.549, -0.061, 0, -0.829, -26.378, 173.853, -13.980, -10.420, -30.980, 30.67, -0.05307, -0.22723, 0.01932, -0.97214,
 14:06:22.703,ed:35:33:d3:6c:f8, 2015-01-01 00:29:16.440, 0.442, -0.01, 0.894, -0.122, 0, 0, -0.829, -26.378, 173.82, -13.980, -10.420, -30.980, 30.67, -0.05307, -0.22723, 0.01932, -0.97214,
 14:06:22.728,ed:40:fe:65:30:6c, 2015-01-01 00:29:28.265, 0.375, 0.108, 0.922, 0.305, 0, 0.061, 6.921, -21.956, -142.998, -12.747, -12.347, -8.473, 25.72, -0.32187, 0.16141, 0.11652, 0.92557,
 14:06:22.728,ed:40:fe:65:30:6c, 2015-01-01 00:29:28.265, 0.373, 0.11, 0.918, 0.366, 0, 0.122, 6.927, -21.956, -143.009, -12.747, -12.347, -8.473, 25.72, -0.32187, 0.16141, 0.11652, 0.92557,
 14:06:22.733,ed:35:33:d3:6c:f8, 2015-01-01 00:29:16.440, 0.439, -0.01, 0.889, 0.732, -0.122, 0.366, -0.818, -26.378, 173.804, -13.980, -10.420, -30.980, 30.67, -0.05307, -0.22723, 0.01932, -0.97214,
 14:06:22.733,ed:35:33:d3:6c:f8, 2015-01-01 00:29:16.440, 0.439, -0.009, 0.89, 0, -0.183, 0.183, -0.813, -26.378, 173.787, -13.980, -10.420, -30.980, 30.67, -0.05307, -0.22723, 0.01932, -0.97214,
 14:06:22.737,f6:90:cc:01:6d:25, 2015-01-01 00:29:15.240, 0.891, 0.115, 0.405, -0.244, 0.061, 0, 16.029, -64.473, -171.337, -26.807, -13.607, -7.527, 31.98, -0.13705, 0.51785, 0.15741, 0.82956,
 14:06:22.737,f6:90:cc:01:6d:25, 2015-01-01 00:29:15.240, 0.891, 0.114, 0.406, -0.183, 0.122, 0, 16.024, -64.479, -171.332, -26.807, -13.607, -7.527, 31.98, -0.13705, 0.51785, 0.15741, 0.82956,
 14:06:22.758,ed:40:fe:65:30:6c, 2015-01-01 00:29:28.265, 0.373, 0.111, 0.919, 0.488, 0.183, 0.183, 6.932, -21.956, -143.015, -12.747, -12.347, -8.473, 25.72, -0.32187, 0.16141, 0.11652, 0.92557,
 14:06:22.758,ed:40:fe:65:30:6c, 2015-01-01 00:29:28.265, 0.372, 0.109, 0.921, 0.488, 0.183, 0.305, 6.938, -21.951, -143.02, -12.747, -12.347, -8.473, 25.72, -0.32187, 0.16141, 0.11652, 0.92557,
 14:06:22.762,e3:ca:2d:fd:e0:8c, 2015-01-01 00:29:17.525, 0.988, 0.007, 0.246, 0, 0.061, 0, 1.703, -75.921, 158.494, -25.860, -10.140, -9.007, 29.43, 0.138, 0.60641, -0.10315, 0.77618,
 14:06:22.762,e3:ca:2d:fd:e0:8c, 2015-01-01 00:29:17.525, 0.99, 0.007, 0.247, 0.061, 0.061, 0, 1.703, -75.921, 158.483, -25.860, -10.140, -9.007, 29.43, 0.138, 0.60641, -0.10315, 0.77618,
 14:06:22.767,f6:90:cc:01:6d:25, 2015-01-01 00:29:15.240, 0.892, 0.115, 0.407, -0.122, 0.183, 0, 16.018, -64.479, -171.321, -26.807, -13.607, -7.527, 31.98, -0.13705, 0.51785, 0.15741, 0.82956,
 14:06:22.767,f6:90:cc:01:6d:25, 2015-01-01 00:29:15.240, 0.892, 0.115, 0.407, -0.061, 0.183, 0, 16.013, -64.473, -171.315, -26.807, -13.607, -7.527, 31.98, -0.13705, 0.51785, 0.15741, 0.82956,
 14:06:22.792,e3:ca:2d:fd:e0:8c, 2015-01-01 00:29:17.880, 0.99, 0.007, 0.247, 0.122, 0.061, 0, 1.708, -75.921, 158.478, -25.860, -10.140, -9.007, 29.43, 0.138, 0.60641, -0.10315, 0.77618,
 14:06:22.792,e3:ca:2d:fd:e0:8c, 2015-01-01 00:29:17.880, 0.991, 0.006, 0.248, 0.122, 0, 0, 1.708, -75.921, 158.467, -25.860, -10.140, -9.007, 29.43, 0.138, 0.60641, -0.10315, 0.77618,
 14:06:22.794,ed:35:33:d3:6c:f8, 2015-01-01 00:29:16.440, 0.44, -0.009, 0.89, 0.305, 0.122, 0.122, -0.807, -26.378, 173.771, -13.980, -10.420, -30.980, 30.67, -0.05432, -0.22748, 0.01929, -0.97202,
 14:06:22.794,ed:35:33:d3:6c:f8, 2015-01-01 00:29:16.440, 0.438, -0.01, 0.892, 0.427, 0, 0.305, -0.802, -26.378, 173.754, -13.980, -10.420, -30.980, 30.67, -0.05432, -0.22748, 0.01929, -0.97202,
 14:06:22.797,f6:90:cc:01:6d:25, 2015-01-01 00:29:15.240, 0.893, 0.115, 0.407, -0.244, 0.244, 0, 16.007, -64.473, -171.304, -26.807, -13.607, -7.527, 31.98, -0.13705, 0.51785, 0.15741, 0.82956,
 14:06:22.797,f6:90:cc:01:6d:25, 2015-01-01 00:29:15.240, 0.893, 0.115, 0.408, -0.244, 0.183, 0, 15.996, -64.473, -171.293, -26.807, -13.607, -7.527, 31.98, -0.13705, 0.51785, 0.15741, 0.82956,
 14:06:22.817,ed:40:fe:65:30:6c, 2015-01-01 00:29:28.625, 0.372, 0.11, 0.922, 0.427, 0.122, 0.305, 6.943, -21.951, -143.026, -12.747, -12.347, -8.473, 25.72, -0.32187, 0.16141, 0.11652, 0.92557,
 14:06:22.817,ed:40:fe:65:30:6c, 2015-01-01 00:29:28.625, 0.374, 0.111, 0.924, 0.366, 0, 0.305, 6.949, -21.945, -143.026, -12.747, -12.347, -8.473, 25.72, -0.32187, 0.16141, 0.11652, 0.92557,
 14:06:22.820,e3:ca:2d:fd:e0:8c, 2015-01-01 00:29:17.880, 0.992, 0.006, 0.248, 0.061, 0, 0, 1.714, -75.921, 158.456, -25.860, -10.140, -9.007, 29.43, 0.138, 0.60641, -0.10315, 0.77618,
 14:06:22.820,e3:ca:2d:fd:e0:8c, 2015-01-01 00:29:17.880, 0.989, 0.006, 0.248, 0.122, 0, 0, 1.714, -75.921, 158.45, -25.860, -10.140, -9.007, 29.43, 0.138, 0.60641, -0.10315, 0.77618,
 14:06:22.822,ed:35:33:d3:6c:f8, 2015-01-01 00:29:16.800, 0.439, -0.007, 0.896, 0.488, -0.305, 0.732, -0.797, -26.378, 173.76, -13.980, -10.420, -30.980, 30.67, -0.05432, -0.22748, 0.01929, -0.97202,
 14:06:22.822,ed:35:33:d3:6c:f8, 2015-01-01 00:29:16.800, 0.441, -0.008, 0.896, -0.732, -0.244, 0.244, -0.807, -26.384, 173.765, -13.980, -10.420, -30.980, 30.67, -0.05432, -0.22748, 0.01929, -0.97202,
 14:06:22.846,ed:40:fe:65:30:6c, 2015-01-01 00:29:28.625, 0.373, 0.11, 0.924, 0.305, 0.122, 0.366, 6.949, -21.945, -143.026, -12.747, -12.347, -8.473, 25.72, -0.32187, 0.16141, 0.11652, 0.92557,
 14:06:22.846,ed:40:fe:65:30:6c, 2015-01-01 00:29:28.625, 0.373, 0.107, 0.922, 0.305, 0.183, 0.366, 6.954, -21.945, -143.031, -12.747, -12.347, -8.473, 25.72, -0.32187, 0.16141, 0.11652, 0.92557,
 14:06:22.853,ed:35:33:d3:6c:f8, 2015-01-01 00:29:16.800, 0.438, -0.012, 0.892, 0.183, 0.305, 0.183, -0.807, -26.378, 173.771, -13.980, -10.420, -30.980, 30.67, -0.05432, -0.22748, 0.01929, -0.97202,
 14:06:22.853,ed:35:33:d3:6c:f8, 2015-01-01 00:29:16.800, 0.438, -0.01, 0.892, 1.099, -0.305, 0.854, -0.797, -26.378, 173.804, -13.980, -10.420, -30.980, 30.67, -0.05432, -0.22748, 0.01929, -0.97202,
 14:06:22.856,f6:90:cc:01:6d:25, 2015-01-01 00:29:15.240, 0.892, 0.114, 0.409, -0.183, 0.183, 0, 15.991, -64.468, -171.282, -26.807, -13.607, -7.527, 31.98, -0.13705, 0.51785, 0.15741, 0.82956,
 14:06:22.856,f6:90:cc:01:6d:25, 2015-01-01 00:29:15.240, 0.891, 0.114, 0.408, -0.061, 0.183, 0, 15.98, -64.468, -171.277, -26.807, -13.607, -7.527, 31.98, -0.13705, 0.51785, 0.15741, 0.82956,
 14:06:22.877,ed:40:fe:65:30:6c, 2015-01-01 00:29:28.625, 0.374, 0.108, 0.92, 0.305, 0.244, 0.305, 6.954, -21.94, -143.031, -12.747, -12.347, -8.473, 25.72, -0.32187, 0.16141, 0.11652, 0.92557,
 14:06:22.877,ed:40:fe:65:30:6c, 2015-01-01 00:29:28.625, 0.374, 0.108, 0.921, 0.183, 0.183, 0.305, 6.954, -21.94, -143.031, -12.747, -12.347, -8.473, 25.72, -0.32187, 0.16141, 0.11652, 0.92557,
 14:06:22.881,e3:ca:2d:fd:e0:8c, 2015-01-01 00:29:17.880, 0.989, 0.006, 0.247, 0.244, 0, 0, 1.714, -75.921, 158.439, -25.860, -10.140, -9.007, 29.43, 0.138, 0.60641, -0.10315, 0.77618,
 14:06:22.881,e3:ca:2d:fd:e0:8c, 2015-01-01 00:29:17.880, 0.99, 0.007, 0.246, 0.305, -0.061, 0, 1.719, -75.927, 158.434, -25.860, -10.140, -9.007, 29.43, 0.138, 0.60641, -0.10315, 0.77618,
 14:06:22.887,f6:90:cc:01:6d:25, 2015-01-01 00:29:15.240, 0.891, 0.114, 0.406, -0.061, 0.122, 0, 15.974, -64.468, -171.266, -26.780, -13.320, -7.213, 31.98, -0.13705, 0.51785, 0.15741, 0.82956,
 14:06:22.887,f6:90:cc:01:6d:25, 2015-01-01 00:29:15.240, 0.892, 0.115, 0.406, -0.122, 0.122, 0, 15.969, -64.468, -171.255, -26.780, -13.320, -7.213, 31.98, -0.13705, 0.51785, 0.15741, 0.82956,
 14:06:22.911,e3:ca:2d:fd:e0:8c, 2015-01-01 00:29:17.880, 0.99, 0.007, 0.246, 0.183, -0.061, 0, 1.725, -75.927, 158.423, -25.860, -10.140, -9.007, 29.43, 0.138, 0.60641, -0.10315, 0.77618,
 14:06:22.911,e3:ca:2d:fd:e0:8c, 2015-01-01 00:29:17.880, 0.992, 0.008, 0.246, 0.183, -0.061, 0, 1.725, -75.927, 158.417, -25.860, -10.140, -9.007, 29.43, 0.138, 0.60641, -0.10315, 0.77618,
 14:06:22.913,ed:35:33:d3:6c:f8, 2015-01-01 00:29:16.800, 0.441, -0.011, 0.892, -0.183, -0.427, 0.366, -0.797, -26.384, 173.82, -13.980, -10.420, -30.980, 30.67, -0.05432, -0.22748, 0.01929, -0.97202,
 14:06:22.913,ed:35:33:d3:6c:f8, 2015-01-01 00:29:16.800, 0.438, -0.013, 0.891, -0.183, -0.244, 0.366, -0.802, -26.389, 173.831, -13.980, -10.420, -30.980, 30.67, -0.05432, -0.22748, 0.01929, -0.97202,
 14:06:22.916,f6:90:cc:01:6d:25, 2015-01-01 00:29:15.240, 0.893, 0.114, 0.406, -0.244, 0.061, 0, 15.963, -64.468, -171.249, -26.780, -13.320, -7.213, 31.98, -0.13705, 0.51785, 0.15741, 0.82956,
 14:06:22.916,f6:90:cc:01:6d:25, 2015-01-01 00:29:15.240, 0.894, 0.114, 0.407, -0.244, 0.061, 0, 15.958, -64.468, -171.244, -26.780, -13.320, -7.213, 31.98, -0.13705, 0.51785, 0.15741, 0.82956,
 14:06:22.937,ed:40:fe:65:30:6c, 2015-01-01 00:29:28.625, 0.374, 0.108, 0.921, 0.122, 0.122, 0.244, 6.954, -21.934, -143.036, -12.747, -12.347, -8.473, 25.72, -0.32187, 0.16141, 0.11652, 0.92557,
 14:06:22.937,ed:40:fe:65:30:6c, 2015-01-01 00:29:28.625, 0.374, 0.108, 0.921, 0.183, 0.061, 0.244, 6.949, -21.934, -143.036, -12.747, -12.347, -8.473, 25.72, -0.32187, 0.16141, 0.11652, 0.92557,
 14:06:22.941,e3:ca:2d:fd:e0:8c, 2015-01-01 00:29:17.880, 0.992, 0.007, 0.246, 0.122, -0.061, 0, 1.73, -75.932, 158.406, -25.860, -10.140, -9.007, 29.43, 0.138, 0.60641, -0.10315, 0.77618,
 14:06:22.941,e3:ca:2d:fd:e0:8c, 2015-01-01 00:29:17.880, 0.992, 0.007, 0.246, 0.122, -0.061, 0, 1.73, -75.932, 158.401, -25.860, -10.140, -9.007, 29.43, 0.138, 0.60641, -0.10315, 0.77618,
 14:06:22.943,ed:35:33:d3:6c:f8, 2015-01-01 00:29:16.800, 0.441, -0.009, 0.894, -0.977, -0.977, 0.916, -0.824, -26.406, 173.853, -13.980, -10.420, -30.980, 30.67, -0.05432, -0.22748, 0.01929, -0.97202,
 14:06:22.943,ed:35:33:d3:6c:f8, 2015-01-01 00:29:16.800, 0.442, -0.014, 0.892, -2.93, 0.977, 0.549, -0.873, -26.389, 173.87, -13.980, -10.420, -30.980, 30.67, -0.05432, -0.22748, 0.01929, -0.97202,
 14:06:22.968,ed:40:fe:65:30:6c, 2015-01-01 00:29:28.625, 0.375, 0.108, 0.923, 0.183, 0.061, 0.244, 6.949, -21.934, -143.042, -12.747, -12.347, -8.473, 25.72, -0.32187, 0.16141, 0.11652, 0.92557,
 14:06:22.968,ed:40:fe:65:30:6c, 2015-01-01 00:29:28.625, 0.374, 0.108, 0.923, 0.183, 0.061, 0.183, 6.949, -21.929, -143.042, -12.747, -12.347, -8.473, 25.72, -0.32187, 0.16141, 0.11652, 0.92557,
 14:06:22.973,ed:35:33:d3:6c:f8, 2015-01-01 00:29:16.800, 0.44, -0.014, 0.893, -0.244, -0.427, 0.366, -0.895, -26.389, 173.892, -13.980, -10.420, -30.980, 30.67, -0.05432, -0.22748, 0.01929, -0.97202,
 14:06:22.973,ed:35:33:d3:6c:f8, 2015-01-01 00:29:16.800, 0.441, -0.011, 0.894, -0.061, -0.061, 0.488, -0.901, -26.395, 173.936, -13.980, -10.420, -30.980, 30.67, -0.05432, -0.22748, 0.01929, -0.97202,
 14:06:22.977,f6:90:cc:01:6d:25, 2015-01-01 00:29:15.240, 0.894, 0.114, 0.407, -0.244, 0.122, 0, 15.947, -64.468, -171.233, -26.780, -13.320, -7.213, 31.98, -0.13776, 0.5177, 0.15738, 0.82953,
 14:06:22.977,f6:90:cc:01:6d:25, 2015-01-01 00:29:15.240, 0.893, 0.114, 0.407, -0.122, 0.122, 0, 15.941, -64.468, -171.227, -26.780, -13.320, -7.213, 31.98, -0.13776, 0.5177, 0.15738, 0.82953,
 14:06:22.996,ed:40:fe:65:30:6c, 2015-01-01 00:29:28.625, 0.374, 0.11, 0.921, 0.183, 0, 0.122, 6.949, -21.929, -143.047, -12.980, -12.260, -8.173, 25.72, -0.32187, 0.16141, 0.11652, 0.92557,
 14:06:22.996,ed:40:fe:65:30:6c, 2015-01-01 00:29:28.625, 0.374, 0.11, 0.922, 0.183, 0, 0.122, 6.949, -21.929, -143.053, -12.980, -12.260, -8.173, 25.72, -0.32187, 0.16141, 0.11652, 0.92557,
 14:06:23.001,e3:ca:2d:fd:e0:8c, 2015-01-01 00:29:17.880, 0.991, 0.008, 0.246, 0.122, -0.061, 0, 1.736, -75.938, 158.39, -25.860, -10.140, -9.007, 29.43, 0.138, 0.60641, -0.10315, 0.77618,
 14:06:23.001,e3:ca:2d:fd:e0:8c, 2015-01-01 00:29:17.880, 0.99, 0.007, 0.246, 0.122, -0.061, 0, 1.736, -75.938, 158.384, -25.860, -10.140, -9.007, 29.43, 0.138, 0.60641, -0.10315, 0.77618,
 14:06:23.007,f6:90:cc:01:6d:25, 2015-01-01 00:29:15.600, 0.892, 0.114, 0.407, -0.183, 0.061, 0, 15.936, -64.468, -171.216, -26.780, -13.320, -7.213, 31.98, -0.13776, 0.5177, 0.15738, 0.82953,
 14:06:23.007,f6:90:cc:01:6d:25, 2015-01-01 00:29:15.600, 0.892, 0.114, 0.407, -0.183, 0.061, 0, 15.925, -64.468, -171.211, -26.780, -13.320, -7.213, 31.98, -0.13776, 0.5177, 0.15738, 0.82953,
 14:06:23.030,e3:ca:2d:fd:e0:8c, 2015-01-01 00:29:17.880, 0.99, 0.007, 0.246, 0.061, 0, 0, 1.741, -75.938, 158.373, -25.873, -10.427, -10.467, 29.43, 0.138, 0.60641, -0.10315, 0.77618,
 14:06:23.030,e3:ca:2d:fd:e0:8c, 2015-01-01 00:29:17.880, 0.99, 0.006, 0.247, 0.122, 0, 0, 1.741, -75.943, 158.368, -25.873, -10.427, -10.467, 29.43, 0.138, 0.60641, -0.10315, 0.77618,
 14:06:23.032,ed:35:33:d3:6c:f8, 2015-01-01 00:29:16.800, 0.44, -0.012, 0.892, -0.427, -0.183, 0.183, -0.906, -26.395, 173.963, -13.980, -10.420, -30.980, 30.67, -0.05432, -0.22748, 0.01929, -0.97202,
 14:06:23.032,ed:35:33:d3:6c:f8, 2015-01-01 00:29:16.800, 0.441, -0.011, 0.891, 0.122, -0.305, 0.427, -0.912, -26.395, 173.99, -13.980, -10.420, -30.980, 30.67, -0.05432, -0.22748, 0.01929, -0.97202,
 14:06:23.057,ed:40:fe:65:30:6c, 2015-01-01 00:29:28.625, 0.373, 0.11, 0.92, 0.122, 0, 0.183, 6.949, -21.929, -143.058, -12.980, -12.260, -8.173, 25.72, -0.32187, 0.16141, 0.11652, 0.92557,
 14:06:23.057,ed:40:fe:65:30:6c, 2015-01-01 00:29:28.625, 0.374, 0.109, 0.921, 0.183, 0, 0.305, 6.949, -21.934, -143.064, -12.980, -12.260, -8.173, 25.72, -0.32187, 0.16141, 0.11652, 0.92557,
 14:06:23.061,e3:ca:2d:fd:e0:8c, 2015-01-01 00:29:17.880, 0.991, 0.006, 0.246, 0.122, 0, 0, 1.741, -75.943, 158.357, -25.873, -10.427, -10.467, 29.43, 0.138, 0.60641, -0.10315, 0.77618,
 14:06:23.061,e3:ca:2d:fd:e0:8c, 2015-01-01 00:29:17.880, 0.991, 0.007, 0.246, 0.183, 0, 0, 1.741, -75.943, 158.351, -25.873, -10.427, -10.467, 29.43, 0.138, 0.60641, -0.10315, 0.77618,
 14:06:23.063,ed:35:33:d3:6c:f8, 2015-01-01 00:29:16.800, 0.441, -0.012, 0.891, -0.427, 0.122, 0.122, -0.917, -26.395, 174.007, -14.007, -10.273, -30.560, 30.67, -0.05432, -0.22748, 0.01929, -0.97202,
 14:06:23.063,ed:35:33:d3:6c:f8, 2015-01-01 00:29:16.800, 0.44, -0.012, 0.891, 0.183, 0, 0.305, -0.917, -26.395, 174.007, -14.007, -10.273, -30.560, 30.67, -0.05432, -0.22748, 0.01929, -0.97202,
 14:06:23.066,f6:90:cc:01:6d:25, 2015-01-01 00:29:15.600, 0.892, 0.114, 0.407, -0.122, 0.061, 0, 15.919, -64.473, -171.205, -26.780, -13.320, -7.213, 31.98, -0.13776, 0.5177, 0.15738, 0.82953,
 14:06:23.066,f6:90:cc:01:6d:25, 2015-01-01 00:29:15.600, 0.893, 0.114, 0.407, -0.122, 0.122, 0, 15.914, -64.473, -171.194, -26.780, -13.320, -7.213, 31.98, -0.13776, 0.5177, 0.15738, 0.82953,
 14:06:23.087,ed:40:fe:65:30:6c, 2015-01-01 00:29:28.625, 0.374, 0.109, 0.921, 0.244, 0, 0.305, 6.949, -21.934, -143.064, -12.980, -12.260, -8.173, 25.72, -0.32132, 0.16125, 0.11658, 0.92578,
 14:06:23.087,ed:40:fe:65:30:6c, 2015-01-01 00:29:28.625, 0.374, 0.109, 0.92, 0.305, 0.061, 0.244, 6.949, -21.934, -143.069, -12.980, -12.260, -8.173, 25.72, -0.32132, 0.16125, 0.11658, 0.92578,
 14:06:23.117,ed:40:fe:65:30:6c, 2015-01-01 00:29:28.625, 0.372, 0.109, 0.922, 0.244, 0.061, 0.183, 6.949, -21.934, -143.069, -12.980, -12.260, -8.173, 25.72, -0.32132, 0.16125, 0.11658, 0.92578,
 14:06:23.117,ed:40:fe:65:30:6c, 2015-01-01 00:29:28.625, 0.373, 0.109, 0.923, 0.122, 0, 0.244, 6.949, -21.934, -143.075, -12.980, -12.260, -8.173, 25.72, -0.32132, 0.16125, 0.11658, 0.92578,
 14:06:23.122,ed:35:33:d3:6c:f8, 2015-01-01 00:29:16.800, 0.441, -0.013, 0.891, -0.366, 0.61, 0, -0.917, -26.384, 174.001, -14.007, -10.273, -30.560, 30.67, -0.05432, -0.22748, 0.01929, -0.97202,
 14:06:23.122,ed:35:33:d3:6c:f8, 2015-01-01 00:29:16.800, 0.439, -0.014, 0.891, 0, 0.244, 0.061, -0.917, -26.378, 174.001, -14.007, -10.273, -30.560, 30.67, -0.05432, -0.22748, 0.01929, -0.97202,
 14:06:23.122,e3:ca:2d:fd:e0:8c, 2015-01-01 00:29:17.880, 0.991, 0.008, 0.246, 0.183, 0, 0, 1.747, -75.943, 158.346, -25.873, -10.427, -10.467, 29.43, 0.13876, 0.60651, -0.1037, 0.77591,
 14:06:23.122,e3:ca:2d:fd:e0:8c, 2015-01-01 00:29:17.880, 0.99, 0.007, 0.246, 0.183, 0.061, 0, 1.747, -75.943, 158.335, -25.873, -10.427, -10.467, 29.43, 0.13876, 0.60651, -0.1037, 0.77591,
 14:06:23.126,f6:90:cc:01:6d:25, 2015-01-01 00:29:15.600, 0.892, 0.114, 0.407, -0.061, 0.122, 0, 15.908, -64.473, -171.189, -26.780, -13.320, -7.213, 31.98, -0.13776, 0.5177, 0.15738, 0.82953,
 14:06:23.126,f6:90:cc:01:6d:25, 2015-01-01 00:29:15.600, 0.892, 0.116, 0.407, 0, 0.122, 0, 15.903, -64.468, -171.183, -26.780, -13.320, -7.213, 31.98, -0.13776, 0.5177, 0.15738, 0.82953,
 14:06:23.126,f6:90:cc:01:6d:25, 2015-01-01 00:29:15.600, 0.892, 0.114, 0.407, 0, 0.122, 0, 15.903, -64.468, -171.172, -26.780, -13.320, -7.213, 31.98, -0.13776, 0.5177, 0.15738, 0.82953,
 14:06:23.126,f6:90:cc:01:6d:25, 2015-01-01 00:29:15.600, 0.892, 0.114, 0.407, 0, 0.122, 0, 15.897, -64.468, -171.167, -26.780, -13.320, -7.213, 31.98, -0.13776, 0.5177, 0.15738, 0.82953,
 14:06:23.151,e3:ca:2d:fd:e0:8c, 2015-01-01 00:29:18.240, 0.99, 0.007, 0.246, 0.122, 0, 0, 1.752, -75.943, 158.329, -25.873, -10.427, -10.467, 29.43, 0.13876, 0.60651, -0.1037, 0.77591,
 14:06:23.151,e3:ca:2d:fd:e0:8c, 2015-01-01 00:29:18.240, 0.99, 0.007, 0.246, 0.122, 0, 0, 1.752, -75.948, 158.324, -25.873, -10.427, -10.467, 29.43, 0.13876, 0.60651, -0.1037, 0.77591,
 14:06:23.153,ed:35:33:d3:6c:f8, 2015-01-01 00:29:16.800, 0.44, -0.01, 0.896, 0.183, 0.061, 0.305, -0.917, -26.373, 174.018, -14.007, -10.273, -30.560, 30.67, -0.05273, -0.22742, 0.01974, -0.97211,
 14:06:23.153,ed:35:33:d3:6c:f8, 2015-01-01 00:29:16.800, 0.44, -0.012, 0.893, -0.305, 0.122, 0, -0.923, -26.367, 174.04, -14.007, -10.273, -30.560, 30.67, -0.05273, -0.22742, 0.01974, -0.97211,
 14:06:23.176,ed:40:fe:65:30:6c, 2015-01-01 00:29:28.980, 0.373, 0.109, 0.923, 0.061, 0.061, 0.122, 6.949, -21.934, -143.075, -12.980, -12.260, -8.173, 25.72, -0.32132, 0.16125, 0.11658, 0.92578,
 14:06:23.176,ed:40:fe:65:30:6c, 2015-01-01 00:29:28.980, 0.373, 0.109, 0.922, 0.061, 0, 0.183, 6.949, -21.929, -143.08, -12.980, -12.260, -8.173, 25.72, -0.32132, 0.16125, 0.11658, 0.92578,
 14:06:23.180,e3:ca:2d:fd:e0:8c, 2015-01-01 00:29:18.240, 0.99, 0.008, 0.245, 0.122, 0, 0, 1.758, -75.948, 158.318, -25.873, -10.427, -10.467, 29.43, 0.13876, 0.60651, -0.1037, 0.77591,
 14:06:23.180,e3:ca:2d:fd:e0:8c, 2015-01-01 00:29:18.240, 0.992, 0.008, 0.246, 0.122, 0, 0, 1.758, -75.948, 158.307, -25.873, -10.427, -10.467, 29.43, 0.13876, 0.60651, -0.1037, 0.77591,
 14:06:23.184,ed:35:33:d3:6c:f8, 2015-01-01 00:29:16.800, 0.439, -0.012, 0.893, -0.366, 0.183, 0, -0.923, -26.362, 174.062, -14.007, -10.273, -30.560, 30.67, -0.05273, -0.22742, 0.01974, -0.97211,
 14:06:23.184,ed:35:33:d3:6c:f8, 2015-01-01 00:29:16.800, 0.44, -0.011, 0.893, 0, 0.061, 0.305, -0.928, -26.362, 174.089, -14.007, -10.273, -30.560, 30.67, -0.05273, -0.22742, 0.01974, -0.97211,
 14:06:23.186,f6:90:cc:01:6d:25, 2015-01-01 00:29:15.600, 0.892, 0.114, 0.408, 0, 0.122, 0, 15.892, -64.468, -171.161, -26.780, -13.320, -7.213, 31.98, -0.13776, 0.5177, 0.15738, 0.82953,
 14:06:23.186,f6:90:cc:01:6d:25, 2015-01-01 00:29:15.600, 0.892, 0.114, 0.407, -0.122, 0.122, 0, 15.886, -64.468, -171.151, -26.780, -13.320, -7.213, 31.98, -0.13776, 0.5177, 0.15738, 0.82953,
 14:06:23.207,ed:40:fe:65:30:6c, 2015-01-01 00:29:28.980, 0.375, 0.11, 0.921, 0.122, 0, 0.183, 6.943, -21.929, -143.086, -12.980, -12.260, -8.173, 25.72, -0.32132, 0.16125, 0.11658, 0.92578,
 14:06:23.207,ed:40:fe:65:30:6c, 2015-01-01 00:29:28.980, 0.376, 0.109, 0.922, 0.122, 0.061, 0.122, 6.943, -21.929, -143.091, -12.980, -12.260, -8.173, 25.72, -0.32132, 0.16125, 0.11658, 0.92578,
 14:06:23.217,f6:90:cc:01:6d:25, 2015-01-01 00:29:15.600, 0.894, 0.115, 0.408, 0, 0, 0, 15.886, -64.468, -171.145, -26.613, -13.380, -7.693, 31.98, -0.13776, 0.5177, 0.15738, 0.82953,
 14:06:23.217,f6:90:cc:01:6d:25, 2015-01-01 00:29:15.600, 0.895, 0.113, 0.407, 0.061, 0, 0, 15.881, -64.473, -171.14, -26.613, -13.380, -7.693, 31.98, -0.13776, 0.5177, 0.15738, 0.82953,
