Time,Device name,Chip Time(),Acceleration X(g),Acceleration Y(g),Acceleration Z(g),Angular velocity X(°/s),Angular velocity Y(°/s),Angular velocity Z(°/s),Angle X(°),Angle Y(°),Angle Z(°),Magnetic field X(ʯt),Magnetic field Y(ʯt),Magnetic field Z(ʯt),Temperature(℃),Quaternions 0(),Quaternions 1(),Quaternions 2(),Quaternions 3()
 16:09:19.367,e3:ca:2d:fd:e0:8c, 2015-01-01 01:21:54.670, 0.937, -0.079, 0.401, 0.122, -0.122, 0, -11.327, -66.566, -174.534, -26.327, -10.733, -12.973, 29.47, 0.0145, 0.54938, -0.05646, 0.8335,
 16:09:19.367,e3:ca:2d:fd:e0:8c, 2015-01-01 01:21:54.670, 0.937, -0.08, 0.4, 0.061, -0.061, 0, -11.327, -66.566, -174.529, -26.327, -10.733, -12.973, 29.47, 0.0145, 0.54938, -0.05646, 0.8335,
 16:09:19.368,ed:40:fe:65:30:6c, 2015-01-01 01:21:33.815, 0.565, 0.217, 0.797, -0.122, 0, 0, 15.244, -34.365, -126.826, -19.620, -10.927, -5.047, 27.9, 0.45895, -0.20493, -0.24432, -0.82919,
 16:09:19.368,ed:40:fe:65:30:6c, 2015-01-01 01:21:33.815, 0.564, 0.215, 0.8, -0.244, 0, 0, 15.238, -34.365, -126.826, -19.620, -10.927, -5.047, 27.9, 0.45895, -0.20493, -0.24432, -0.82919,
 16:09:19.371,f6:90:cc:01:6d:25, 2015-01-01 01:21:43.315, 0.904, 0.159, 0.367, 0.061, 0.305, 0, 23.505, -66.061, -168.223, -28.113, -14.260, -4.827, 32.72, 0.19446, -0.5134, -0.22443, -0.80505,
 16:09:19.371,f6:90:cc:01:6d:25, 2015-01-01 01:21:43.315, 0.903, 0.16, 0.368, 0, 0.244, 0, 23.5, -66.055, -168.217, -28.113, -14.260, -4.827, 32.72, 0.19446, -0.5134, -0.22443, -0.80505,
 16:09:19.390,ed:40:fe:65:30:6c, 2015-01-01 01:21:33.815, 0.565, 0.216, 0.799, -0.305, -0.122, 0, 15.233, -34.365, -126.826, -19.620, -10.927, -5.047, 27.9, 0.45895, -0.20493, -0.24432, -0.82919,
 16:09:19.390,ed:40:fe:65:30:6c, 2015-01-01 01:21:33.815, 0.565, 0.217, 0.798, -0.122, -0.061, -0.061, 15.233, -34.365, -126.832, -19.620, -10.927, -5.047, 27.9, 0.45895, -0.20493, -0.24432, -0.82919,
 16:09:19.412,e3:ca:2d:fd:e0:8c, 2015-01-01 01:21:54.670, 0.936, -0.078, 0.4, 0.183, -0.061, 0, -11.321, -66.566, -174.529, -26.327, -10.733, -12.973, 29.47, 0.0145, 0.54938, -0.05646, 0.8335,
 16:09:19.412,e3:ca:2d:fd:e0:8c, 2015-01-01 01:21:54.670, 0.936, -0.078, 0.401, 0.244, -0.122, 0, -11.316, -66.566, -174.529, -26.327, -10.733, -12.973, 29.47, 0.0145, 0.54938, -0.05646, 0.8335,
 16:09:19.414,ed:35:33:d3:6c:f8, 2015-01-01 01:21:45.590, 0.416, 0.212, 0.882, -0.305, 0, -0.122, 13.667, -24.615, 173.65, -10.547, -11.760, -23.600, 32.94, -0.02646, -0.21765, -0.10498, -0.96994,
 16:09:19.414,ed:35:33:d3:6c:f8, 2015-01-01 01:21:45.590, 0.417, 0.213, 0.881, -0.366, 0.061, -0.122, 13.656, -24.615, 173.633, -10.547, -11.760, -23.600, 32.94, -0.02646, -0.21765, -0.10498, -0.96994,
 16:09:19.415,f6:90:cc:01:6d:25, 2015-01-01 01:21:43.315, 0.902, 0.161, 0.368, 0.061, 0.183, 0, 23.5, -66.05, -168.212, -27.880, -14.467, -5.427, 32.72, 0.19446, -0.5134, -0.22443, -0.80505,
 16:09:19.415,f6:90:cc:01:6d:25, 2015-01-01 01:21:43.315, 0.902, 0.161, 0.368, 0.122, 0.183, 0, 23.494, -66.05, -168.212, -27.880, -14.467, -5.427, 32.72, 0.19446, -0.5134, -0.22443, -0.80505,
 16:09:19.433,ed:40:fe:65:30:6c, 2015-01-01 01:21:33.815, 0.565, 0.216, 0.799, -0.122, -0.061, -0.061, 15.227, -34.365, -126.832, -19.620, -10.927, -5.047, 27.9, 0.45895, -0.20493, -0.24432, -0.82919,
 16:09:19.433,ed:40:fe:65:30:6c, 2015-01-01 01:21:33.815, 0.564, 0.216, 0.799, 0, 0, -0.061, 15.227, -34.365, -126.832, -19.620, -10.927, -5.047, 27.9, 0.45895, -0.20493, -0.24432, -0.82919,
 16:09:19.437,ed:35:33:d3:6c:f8, 2015-01-01 01:21:45.590, 0.416, 0.214, 0.88, -0.183, 0.061, -0.122, 13.656, -24.615, 173.611, -10.547, -11.760, -23.600, 32.94, -0.02646, -0.21765, -0.10498, -0.96994,
 16:09:19.437,ed:35:33:d3:6c:f8, 2015-01-01 01:21:45.590, 0.416, 0.213, 0.88, -0.122, 0.122, -0.061, 13.651, -24.609, 173.589, -10.547, -11.760, -23.600, 32.94, -0.02646, -0.21765, -0.10498, -0.96994,
 16:09:19.458,e3:ca:2d:fd:e0:8c, 2015-01-01 01:21:54.670, 0.936, -0.079, 0.4, 0.244, -0.122, 0, -11.31, -66.566, -174.529, -26.327, -10.733, -12.973, 29.47, 0.0145, 0.54938, -0.05646, 0.8335,
 16:09:19.458,e3:ca:2d:fd:e0:8c, 2015-01-01 01:21:54.670, 0.935, -0.08, 0.399, 0.366, -0.122, 0, -11.305, -66.566, -174.529, -26.327, -10.733, -12.973, 29.47, 0.0145, 0.54938, -0.05646, 0.8335,
 16:09:19.461,f6:90:cc:01:6d:25, 2015-01-01 01:21:43.315, 0.901, 0.159, 0.367, 0.244, 0.305, 0, 23.494, -66.044, -168.206, -27.880, -14.467, -5.427, 32.72, 0.1947, -0.51315, -0.22461, -0.80511,
 16:09:19.461,f6:90:cc:01:6d:25, 2015-01-01 01:21:43.315, 0.902, 0.159, 0.369, 0.244, 0.305, 0, 23.494, -66.039, -168.201, -27.880, -14.467, -5.427, 32.72, 0.1947, -0.51315, -0.22461, -0.80511,
 16:09:19.479,ed:40:fe:65:30:6c, 2015-01-01 01:21:33.815, 0.564, 0.217, 0.8, 0, -0.061, 0, 15.227, -34.365, -126.837, -19.620, -10.927, -5.047, 27.9, 0.45895, -0.20493, -0.24432, -0.82919,
 16:09:19.479,ed:40:fe:65:30:6c, 2015-01-01 01:21:33.815, 0.565, 0.217, 0.8, 0.061, 0, 0, 15.227, -34.365, -126.837, -19.620, -10.927, -5.047, 27.9, 0.45895, -0.20493, -0.24432, -0.82919,
 16:09:19.481,e3:ca:2d:fd:e0:8c, 2015-01-01 01:21:54.670, 0.936, -0.079, 0.4, 0.427, -0.183, 0, -11.294, -66.572, -174.523, -26.327, -10.733, -12.973, 29.55, 0.0145, 0.54938, -0.05646, 0.8335,
 16:09:19.481,e3:ca:2d:fd:e0:8c, 2015-01-01 01:21:54.670, 0.936, -0.079, 0.398, 0.305, -0.244, 0, -11.288, -66.572, -174.523, -26.327, -10.733, -12.973, 29.55, 0.0145, 0.54938, -0.05646, 0.8335,
 16:09:19.483,f6:90:cc:01:6d:25, 2015-01-01 01:21:43.605, 0.901, 0.16, 0.368, 0.244, 0.244, 0, 23.494, -66.033, -168.195, -27.880, -14.467, -5.427, 32.72, 0.1947, -0.51315, -0.22461, -0.80511,
 16:09:19.483,f6:90:cc:01:6d:25, 2015-01-01 01:21:43.605, 0.902, 0.16, 0.367, 0.183, 0.183, 0, 23.494, -66.028, -168.19, -27.880, -14.467, -5.427, 32.72, 0.1947, -0.51315, -0.22461, -0.80511,
 16:09:19.483,ed:35:33:d3:6c:f8, 2015-01-01 01:21:45.590, 0.415, 0.214, 0.882, 0, 0.183, 0, 13.651, -24.609, 173.573, -10.547, -11.760, -23.600, 32.94, -0.02646, -0.21765, -0.10498, -0.96994,
 16:09:19.483,ed:35:33:d3:6c:f8, 2015-01-01 01:21:45.590, 0.415, 0.214, 0.881, 0, 0.244, 0.061, 13.651, -24.604, 173.562, -10.547, -11.760, -23.600, 32.94, -0.02646, -0.21765, -0.10498, -0.96994,
 16:09:19.504,ed:35:33:d3:6c:f8, 2015-01-01 01:21:45.590, 0.417, 0.214, 0.881, 0.061, 0.244, 0, 13.651, -24.598, 173.546, -10.687, -11.907, -23.607, 32.94, -0.02646, -0.21765, -0.10498, -0.96994,
 16:09:19.504,ed:35:33:d3:6c:f8, 2015-01-01 01:21:45.590, 0.416, 0.215, 0.882, 0, 0.122, 0.061, 13.651, -24.598, 173.529, -10.687, -11.907, -23.607, 32.94, -0.02646, -0.21765, -0.10498, -0.96994,
 16:09:19.525,e3:ca:2d:fd:e0:8c, 2015-01-01 01:21:54.670, 0.936, -0.078, 0.399, 0.305, -0.183, 0, -11.283, -66.577, -174.523, -26.327, -10.733, -12.973, 29.55, 0.0145, 0.54938, -0.05646, 0.8335,
 16:09:19.525,e3:ca:2d:fd:e0:8c, 2015-01-01 01:21:54.670, 0.936, -0.079, 0.399, 0.366, -0.244, 0, -11.277, -66.577, -174.518, -26.327, -10.733, -12.973, 29.55, 0.0145, 0.54938, -0.05646, 0.8335,
 16:09:19.527,f6:90:cc:01:6d:25, 2015-01-01 01:21:43.605, 0.902, 0.16, 0.368, 0.122, 0.122, 0, 23.494, -66.028, -168.19, -27.880, -14.467, -5.427, 32.72, 0.1947, -0.51315, -0.22461, -0.80511,
 16:09:19.527,f6:90:cc:01:6d:25, 2015-01-01 01:21:43.605, 0.902, 0.16, 0.368, 0.183, 0.122, 0, 23.494, -66.022, -168.184, -27.880, -14.467, -5.427, 32.72, 0.1947, -0.51315, -0.22461, -0.80511,
 16:09:19.547,ed:40:fe:65:30:6c, 2015-01-01 01:21:33.815, 0.564, 0.218, 0.799, 0, -0.061, 0.061, 15.227, -34.365, -126.832, -20.287, -10.900, -4.433, 27.9, 0.45895, -0.20493, -0.24432, -0.82919,
 16:09:19.547,ed:40:fe:65:30:6c, 2015-01-01 01:21:33.815, 0.564, 0.217, 0.798, -0.061, -0.244, 0.122, 15.227, -34.371, -126.832, -20.287, -10.900, -4.433, 27.9, 0.45895, -0.20493, -0.24432, -0.82919,
 16:09:19.548,e3:ca:2d:fd:e0:8c, 2015-01-01 01:21:55.185, 0.936, -0.079, 0.399, 0.305, -0.305, 0, -11.272, -66.583, -174.518, -26.327, -10.733, -12.973, 29.55, 0.0145, 0.54938, -0.05646, 0.8335,
 16:09:19.548,e3:ca:2d:fd:e0:8c, 2015-01-01 01:21:55.185, 0.936, -0.079, 0.4, 0.305, -0.305, 0, -11.266, -66.588, -174.512, -26.327, -10.733, -12.973, 29.55, 0.0145, 0.54938, -0.05646, 0.8335,
 16:09:19.549,ed:35:33:d3:6c:f8, 2015-01-01 01:21:45.590, 0.416, 0.213, 0.88, -0.061, 0.061, 0.122, 13.651, -24.598, 173.518, -10.687, -11.907, -23.607, 32.94, -0.02646, -0.21765, -0.10498, -0.96994,
 16:09:19.549,ed:35:33:d3:6c:f8, 2015-01-01 01:21:45.590, 0.417, 0.212, 0.88, 0, 0.183, 0.061, 13.651, -24.593, 173.502, -10.687, -11.907, -23.607, 32.94, -0.02646, -0.21765, -0.10498, -0.96994,
 16:09:19.569,ed:40:fe:65:30:6c, 2015-01-01 01:21:33.815, 0.565, 0.215, 0.798, 0, -0.122, 0, 15.227, -34.371, -126.832, -20.287, -10.900, -4.433, 27.9, 0.45871, -0.20526, -0.24423, -0.82928,
 16:09:19.569,ed:40:fe:65:30:6c, 2015-01-01 01:21:33.815, 0.564, 0.215, 0.797, 0.061, 0, 0, 15.227, -34.371, -126.832, -20.287, -10.900, -4.433, 27.9, 0.45871, -0.20526, -0.24423, -0.82928,
 16:09:19.571,ed:35:33:d3:6c:f8, 2015-01-01 01:21:45.590, 0.417, 0.212, 0.879, 0, 0.244, 0.122, 13.645, -24.593, 173.491, -10.687, -11.907, -23.607, 32.94, -0.02969, -0.21771, -0.10391, -0.96997,
 16:09:19.571,ed:35:33:d3:6c:f8, 2015-01-01 01:21:45.590, 0.416, 0.212, 0.88, 0, 0.183, 0.122, 13.645, -24.593, 173.474, -10.687, -11.907, -23.607, 32.94, -0.02969, -0.21771, -0.10391, -0.96997,
 16:09:19.572,f6:90:cc:01:6d:25, 2015-01-01 01:21:43.605, 0.902, 0.159, 0.367, 0.183, 0.061, 0, 23.5, -66.022, -168.184, -27.880, -14.467, -5.427, 32.72, 0.1947, -0.51315, -0.22461, -0.80511,
 16:09:19.572,f6:90:cc:01:6d:25, 2015-01-01 01:21:43.605, 0.902, 0.159, 0.368, 0.244, 0.122, 0, 23.5, -66.022, -168.179, -27.880, -14.467, -5.427, 32.72, 0.1947, -0.51315, -0.22461, -0.80511,
 16:09:19.593,e3:ca:2d:fd:e0:8c, 2015-01-01 01:21:55.185, 0.937, -0.079, 0.398, 0.305, -0.244, 0, -11.266, -66.594, -174.512, -26.327, -10.733, -12.973, 29.55, 0.0145, 0.54938, -0.05646, 0.8335,
 16:09:19.593,e3:ca:2d:fd:e0:8c, 2015-01-01 01:21:55.185, 0.936, -0.078, 0.398, 0.305, -0.183, 0, -11.261, -66.594, -174.507, -26.327, -10.733, -12.973, 29.55, 0.0145, 0.54938, -0.05646, 0.8335,
 16:09:19.615,ed:40:fe:65:30:6c, 2015-01-01 01:21:33.815, 0.565, 0.216, 0.798, 0, 0, 0, 15.227, -34.371, -126.832, -20.287, -10.900, -4.433, 27.9, 0.45871, -0.20526, -0.24423, -0.82928,
 16:09:19.615,ed:40:fe:65:30:6c, 2015-01-01 01:21:33.815, 0.564, 0.217, 0.8, 0, 0, 0, 15.227, -34.365, -126.832, -20.287, -10.900, -4.433, 27.9, 0.45871, -0.20526, -0.24423, -0.82928,
 16:09:19.617,ed:35:33:d3:6c:f8, 2015-01-01 01:21:45.590, 0.415, 0.213, 0.881, 0, 0.244, 0, 13.645, -24.587, 173.463, -10.687, -11.907, -23.607, 32.94, -0.02969, -0.21771, -0.10391, -0.96997,
 16:09:19.617,ed:35:33:d3:6c:f8, 2015-01-01 01:21:45.590, 0.416, 0.213, 0.882, 0, 0.183, 0, 13.645, -24.582, 173.447, -10.687, -11.907, -23.607, 32.94, -0.02969, -0.21771, -0.10391, -0.96997,
 16:09:19.617,f6:90:cc:01:6d:25, 2015-01-01 01:21:43.605, 0.902, 0.16, 0.367, 0.305, 0.244, 0, 23.505, -66.017, -168.179, -27.880, -14.467, -5.427, 32.72, 0.1947, -0.51315, -0.22461, -0.80511,
 16:09:19.617,f6:90:cc:01:6d:25, 2015-01-01 01:21:43.605, 0.902, 0.161, 0.368, 0.244, 0.183, 0, 23.505, -66.011, -168.173, -27.880, -14.467, -5.427, 32.72, 0.1947, -0.51315, -0.22461, -0.80511,
 16:09:19.636,ed:40:fe:65:30:6c, 2015-01-01 01:21:34.150, 0.565, 0.217, 0.8, 0, -0.061, 0, 15.227, -34.365, -126.832, -20.287, -10.900, -4.433, 27.9, 0.45871, -0.20526, -0.24423, -0.82928,
 16:09:19.636,ed:40:fe:65:30:6c, 2015-01-01 01:21:34.150, 0.565, 0.215, 0.798, -0.122, -0.183, 0, 15.222, -34.371, -126.837, -20.287, -10.900, -4.433, 27.9, 0.45871, -0.20526, -0.24423, -0.82928,
 16:09:19.638,e3:ca:2d:fd:e0:8c, 2015-01-01 01:21:55.185, 0.936, -0.078, 0.398, 0.244, -0.122, 0, -11.255, -66.599, -174.507, -26.327, -10.733, -12.973, 29.55, 0.0145, 0.54938, -0.05646, 0.8335,
 16:09:19.638,e3:ca:2d:fd:e0:8c, 2015-01-01 01:21:55.185, 0.937, -0.079, 0.399, 0.244, -0.244, 0, -11.25, -66.599, -174.507, -26.327, -10.733, -12.973, 29.55, 0.0145, 0.54938, -0.05646, 0.8335,
 16:09:19.664,f6:90:cc:01:6d:25, 2015-01-01 01:21:43.605, 0.902, 0.159, 0.368, 0.061, 0.122, 0, 23.505, -66.011, -168.168, -27.880, -14.467, -5.427, 32.72, 0.1947, -0.51315, -0.22461, -0.80511,
 16:09:19.664,f6:90:cc:01:6d:25, 2015-01-01 01:21:43.605, 0.903, 0.16, 0.367, 0, 0.061, 0, 23.5, -66.011, -168.168, -27.880, -14.467, -5.427, 32.72, 0.1947, -0.51315, -0.22461, -0.80511,
 16:09:19.682,ed:40:fe:65:30:6c, 2015-01-01 01:21:34.150, 0.566, 0.215, 0.798, -0.183, -0.122, 0, 15.222, -34.371, -126.837, -20.287, -10.900, -4.433, 27.9, 0.45871, -0.20526, -0.24423, -0.82928,
 16:09:19.682,ed:40:fe:65:30:6c, 2015-01-01 01:21:34.150, 0.564, 0.217, 0.8, 0, 0, 0, 15.216, -34.371, -126.837, -20.287, -10.900, -4.433, 27.9, 0.45871, -0.20526, -0.24423, -0.82928,
 16:09:19.682,e3:ca:2d:fd:e0:8c, 2015-01-01 01:21:55.185, 0.938, -0.079, 0.399, 0.244, -0.244, 0, -11.245, -66.605, -174.501, -26.327, -10.733, -12.973, 29.55, 0.0145, 0.54938, -0.05646, 0.8335,
 16:09:19.682,e3:ca:2d:fd:e0:8c, 2015-01-01 01:21:55.185, 0.938, -0.079, 0.399, 0, -0.122, 0, -11.245, -66.605, -174.501, -26.327, -10.733, -12.973, 29.55, 0.0145, 0.54938, -0.05646, 0.8335,
 16:09:19.686,f6:90:cc:01:6d:25, 2015-01-01 01:21:43.605, 0.903, 0.16, 0.368, 0, 0, 0, 23.5, -66.006, -168.168, -28.433, -14.653, -4.753, 32.72, 0.1947, -0.51315, -0.22461, -0.80511,
 16:09:19.686,f6:90:cc:01:6d:25, 2015-01-01 01:21:43.605, 0.901, 0.158, 0.367, 0, 0, 0, 23.5, -66.006, -168.168, -28.433, -14.653, -4.753, 32.72, 0.1947, -0.51315, -0.22461, -0.80511,
 16:09:19.706,e3:ca:2d:fd:e0:8c, 2015-01-01 01:21:55.185, 0.935, -0.079, 0.399, -0.061, -0.122, 0, -11.245, -66.605, -174.501, -26.327, -10.733, -12.973, 29.55, 0.0145, 0.54938, -0.05646, 0.8335,
 16:09:19.706,e3:ca:2d:fd:e0:8c, 2015-01-01 01:21:55.185, 0.936, -0.081, 0.399, 0.061, -0.061, 0, -11.245, -66.605, -174.501, -26.327, -10.733, -12.973, 29.55, 0.0145, 0.54938, -0.05646, 0.8335,
 16:09:19.726,ed:40:fe:65:30:6c, 2015-01-01 01:21:34.150, 0.564, 0.214, 0.796, 0, 0, 0, 15.216, -34.371, -126.837, -20.287, -10.900, -4.433, 27.9, 0.45871, -0.20526, -0.24423, -0.82928,
 16:09:19.726,ed:40:fe:65:30:6c, 2015-01-01 01:21:34.150, 0.565, 0.212, 0.795, -0.061, 0.488, 0, 15.216, -34.371, -126.837, -20.287, -10.900, -4.433, 27.9, 0.45871, -0.20526, -0.24423, -0.82928,
 16:09:19.729,ed:35:33:d3:6c:f8, 2015-01-01 01:21:45.590, 0.416, 0.214, 0.883, -0.061, 0.122, 0.061, 13.64, -24.582, 173.43, -10.687, -11.907, -23.607, 32.94, -0.02969, -0.21771, -0.10391, -0.96997,
 16:09:19.729,ed:35:33:d3:6c:f8, 2015-01-01 01:21:45.590, 0.416, 0.212, 0.88, -0.122, 0.061, 0.061, 13.64, -24.582, 173.419, -10.687, -11.907, -23.607, 32.94, -0.02969, -0.21771, -0.10391, -0.96997,
 16:09:19.730,f6:90:cc:01:6d:25, 2015-01-01 01:21:43.605, 0.901, 0.157, 0.364, 0.061, 0.305, 0, 23.5, -66.006, -168.162, -28.433, -14.653, -4.753, 32.72, 0.1947, -0.51315, -0.22461, -0.80511,
 16:09:19.730,f6:90:cc:01:6d:25, 2015-01-01 01:21:43.605, 0.901, 0.161, 0.371, 0.122, 0.305, 0, 23.494, -66, -168.157, -28.433, -14.653, -4.753, 32.72, 0.1947, -0.51315, -0.22461, -0.80511,
 16:09:19.750,e3:ca:2d:fd:e0:8c, 2015-01-01 01:21:55.185, 0.937, -0.081, 0.4, 0.061, 0.122, 0, -11.245, -66.605, -174.501, -26.327, -10.733, -12.973, 29.55, 0.0145, 0.54938, -0.05646, 0.8335,
 16:09:19.750,e3:ca:2d:fd:e0:8c, 2015-01-01 01:21:55.185, 0.937, -0.076, 0.4, 0.122, 0, 0, -11.239, -66.605, -174.501, -26.327, -10.733, -12.973, 29.55, 0.0145, 0.54938, -0.05646, 0.8335,
 16:09:19.751,ed:35:33:d3:6c:f8, 2015-01-01 01:21:45.590, 0.417, 0.211, 0.88, -0.183, 0.061, 0, 13.634, -24.582, 173.403, -10.687, -11.907, -23.607, 32.99, -0.02969, -0.21771, -0.10391, -0.96997,
 16:09:19.751,ed:35:33:d3:6c:f8, 2015-01-01 01:21:45.590, 0.414, 0.214, 0.881, 0.183, 0.122, 0, 13.634, -24.582, 173.392, -10.687, -11.907, -23.607, 32.99, -0.02969, -0.21771, -0.10391, -0.96997,
 16:09:19.771,ed:40:fe:65:30:6c, 2015-01-01 01:21:34.150, 0.563, 0.22, 0.801, 0, 0.549, 0, 15.211, -34.36, -126.832, -20.287, -10.900, -4.433, 27.9, 0.45871, -0.20526, -0.24423, -0.82928,
 16:09:19.771,ed:40:fe:65:30:6c, 2015-01-01 01:21:34.150, 0.564, 0.218, 0.803, 0.061, 0.244, 0, 15.211, -34.349, -126.832, -20.287, -10.900, -4.433, 27.9, 0.45871, -0.20526, -0.24423, -0.82928,
 16:09:19.774,ed:35:33:d3:6c:f8, 2015-01-01 01:21:45.590, 0.416, 0.21, 0.876, 0, 0.183, 0.061, 13.634, -24.576, 173.375, -10.687, -11.907, -23.607, 32.99, -0.02969, -0.21771, -0.10391, -0.96997,
 16:09:19.774,ed:35:33:d3:6c:f8, 2015-01-01 01:21:45.590, 0.415, 0.209, 0.878, -0.244, 0.427, -0.122, 13.629, -24.571, 173.364, -10.687, -11.907, -23.607, 32.99, -0.02969, -0.21771, -0.10391, -0.96997,
 16:09:19.775,f6:90:cc:01:6d:25, 2015-01-01 01:21:43.605, 0.902, 0.161, 0.371, 0.122, 0.122, 0, 23.489, -66, -168.151, -28.433, -14.653, -4.753, 32.72, 0.19495, -0.51282, -0.22482, -0.80521,
 16:09:19.775,f6:90:cc:01:6d:25, 2015-01-01 01:21:43.605, 0.902, 0.159, 0.369, 0.061, 0.122, 0, 23.489, -65.995, -168.151, -28.433, -14.653, -4.753, 32.72, 0.19495, -0.51282, -0.22482, -0.80521,
 16:09:19.795,ed:40:fe:65:30:6c, 2015-01-01 01:21:34.150, 0.564, 0.213, 0.802, -0.122, -0.061, 0, 15.211, -34.343, -126.832, -20.287, -10.900, -4.433, 27.9, 0.45871, -0.20526, -0.24423, -0.82928,
 16:09:19.795,ed:40:fe:65:30:6c, 2015-01-01 01:21:34.150, 0.564, 0.215, 0.799, -0.061, -0.427, 0, 15.205, -34.349, -126.832, -20.287, -10.900, -4.433, 27.9, 0.45871, -0.20526, -0.24423, -0.82928,
 16:09:19.818,e3:ca:2d:fd:e0:8c, 2015-01-01 01:21:55.185, 0.936, -0.079, 0.399, 0.244, -0.122, 0, -11.239, -66.605, -174.501, -25.887, -10.613, -12.193, 29.55, 0.0145, 0.54938, -0.05646, 0.8335,
 16:09:19.818,e3:ca:2d:fd:e0:8c, 2015-01-01 01:21:55.185, 0.937, -0.079, 0.4, 0.366, -0.061, 0, -11.234, -66.605, -174.501, -25.887, -10.613, -12.193, 29.55, 0.0145, 0.54938, -0.05646, 0.8335,
 16:09:19.820,ed:35:33:d3:6c:f8, 2015-01-01 01:21:45.590, 0.415, 0.218, 0.885, 0.122, 0.366, 0, 13.629, -24.565, 173.348, -10.687, -11.907, -23.607, 32.99, -0.02969, -0.21771, -0.10391, -0.96997,
 16:09:19.820,ed:35:33:d3:6c:f8, 2015-01-01 01:21:45.590, 0.415, 0.213, 0.888, 0.061, 0.122, 0.183, 13.629, -24.565, 173.337, -10.687, -11.907, -23.607, 32.99, -0.02969, -0.21771, -0.10391, -0.96997,
 16:09:19.820,f6:90:cc:01:6d:25, 2015-01-01 01:21:43.920, 0.902, 0.16, 0.37, 0.122, 0.122, 0, 23.489, -65.995, -168.151, -28.433, -14.653, -4.753, 32.72, 0.19495, -0.51282, -0.22482, -0.80521,
 16:09:19.820,f6:90:cc:01:6d:25, 2015-01-01 01:21:43.920, 0.901, 0.16, 0.368, 0.305, 0.061, 0, 23.489, -65.989, -168.146, -28.433, -14.653, -4.753, 32.72, 0.19495, -0.51282, -0.22482, -0.80521,
 16:09:19.840,e3:ca:2d:fd:e0:8c, 2015-01-01 01:21:55.185, 0.936, -0.079, 0.398, 0.122, -0.244, 0, -11.228, -66.605, -174.496, -25.887, -10.613, -12.193, 29.55, 0.01373, 0.54971, -0.05545, 0.83334,
 16:09:19.840,e3:ca:2d:fd:e0:8c, 2015-01-01 01:21:55.185, 0.935, -0.079, 0.397, 0.061, -0.305, 0, -11.228, -66.61, -174.496, -25.887, -10.613, -12.193, 29.55, 0.01373, 0.54971, -0.05545, 0.83334,
 16:09:19.840,ed:40:fe:65:30:6c, 2015-01-01 01:21:34.150, 0.563, 0.217, 0.8, 0.061, -0.366, 0, 15.205, -34.354, -126.832, -20.287, -10.900, -4.433, 27.9, 0.45871, -0.20526, -0.24423, -0.82928,
 16:09:19.840,ed:40:fe:65:30:6c, 2015-01-01 01:21:34.150, 0.563, 0.215, 0.797, 0.305, -0.183, 0, 15.211, -34.36, -126.837, -20.287, -10.900, -4.433, 27.9, 0.45871, -0.20526, -0.24423, -0.82928,
 16:09:19.842,ed:35:33:d3:6c:f8, 2015-01-01 01:21:46.150, 0.415, 0.208, 0.883, -0.061, 0, 0, 13.629, -24.565, 173.326, -10.687, -11.907, -23.607, 32.99, -0.02969, -0.21771, -0.10391, -0.96997,
 16:09:19.842,ed:35:33:d3:6c:f8, 2015-01-01 01:21:46.150, 0.414, 0.213, 0.882, 0, -0.122, 0, 13.623, -24.565, 173.309, -10.687, -11.907, -23.607, 32.99, -0.02969, -0.21771, -0.10391, -0.96997,
 16:09:19.863,ed:35:33:d3:6c:f8, 2015-01-01 01:21:46.150, 0.414, 0.214, 0.88, 0.244, 0, 0, 13.629, -24.565, 173.298, -10.687, -11.907, -23.607, 32.99, -0.02969, -0.21771, -0.10391, -0.96997,
 16:09:19.863,ed:35:33:d3:6c:f8, 2015-01-01 01:21:46.150, 0.414, 0.213, 0.879, 0.427, 0.122, 0, 13.64, -24.565, 173.282, -10.687, -11.907, -23.607, 32.99, -0.02969, -0.21771, -0.10391, -0.96997,
 16:09:19.865,f6:90:cc:01:6d:25, 2015-01-01 01:21:43.920, 0.9, 0.158, 0.368, 0.244, 0, 0, 23.494, -65.989, -168.146, -28.433, -14.653, -4.753, 32.72, 0.19495, -0.51282, -0.22482, -0.80521,
 16:09:19.865,f6:90:cc:01:6d:25, 2015-01-01 01:21:43.920, 0.901, 0.16, 0.367, 0.305, 0, 0, 23.5, -65.989, -168.146, -28.433, -14.653, -4.753, 32.72, 0.19495, -0.51282, -0.22482, -0.80521,
 16:09:19.885,e3:ca:2d:fd:e0:8c, 2015-01-01 01:21:55.185, 0.936, -0.079, 0.398, 0.244, -0.366, 0, -11.228, -66.616, -174.49, -25.887, -10.613, -12.193, 29.55, 0.01373, 0.54971, -0.05545, 0.83334,
 16:09:19.885,e3:ca:2d:fd:e0:8c, 2015-01-01 01:21:55.185, 0.936, -0.078, 0.397, 0.244, -0.366, 0, -11.228, -66.621, -174.485, -25.887, -10.613, -12.193, 29.55, 0.01373, 0.54971, -0.05545, 0.83334,
 16:09:19.907,e3:ca:2d:fd:e0:8c, 2015-01-01 01:21:55.545, 0.938, -0.077, 0.399, 0.305, -0.305, 0, -11.223, -66.627, -174.485, -25.887, -10.613, -12.193, 29.55, 0.01373, 0.54971, -0.05545, 0.83334,
 16:09:19.907,e3:ca:2d:fd:e0:8c, 2015-01-01 01:21:55.545, 0.938, -0.076, 0.399, 0.244, -0.244, 0, -11.217, -66.632, -174.479, -25.887, -10.613, -12.193, 29.55, 0.01373, 0.54971, -0.05545, 0.83334,
 16:09:19.907,ed:40:fe:65:30:6c, 2015-01-01 01:21:34.150, 0.564, 0.215, 0.797, 0.305, -0.061, 0, 15.216, -34.36, -126.837, -19.753, -10.940, -4.960, 27.9, 0.45871, -0.20526, -0.24423, -0.82928,
 16:09:19.907,ed:40:fe:65:30:6c, 2015-01-01 01:21:34.150, 0.565, 0.216, 0.796, 0.122, -0.061, 0, 15.216, -34.36, -126.837, -19.753, -10.940, -4.960, 27.9, 0.45871, -0.20526, -0.24423, -0.82928,
 16:09:19.910,f6:90:cc:01:6d:25, 2015-01-01 01:21:43.920, 0.902, 0.161, 0.368, 0.427, 0, 0, 23.505, -65.989, -168.146, -28.433, -14.653, -4.753, 32.72, 0.19495, -0.51282, -0.22482, -0.80521,
 16:09:19.910,f6:90:cc:01:6d:25, 2015-01-01 01:21:43.920, 0.903, 0.162, 0.369, 0.366, 0, 0, 23.511, -65.989, -168.146, -28.433, -14.653, -4.753, 32.72, 0.19495, -0.51282, -0.22482, -0.80521,
 16:09:19.910,ed:35:33:d3:6c:f8, 2015-01-01 01:21:46.150, 0.415, 0.212, 0.88, 0.183, 0.122, 0.305, 13.64, -24.565, 173.276, -10.687, -11.907, -23.607, 32.99, -0.02969, -0.21771, -0.10391, -0.96997,
 16:09:19.910,ed:35:33:d3:6c:f8, 2015-01-01 01:21:46.150, 0.415, 0.21, 0.88, 0, 0.122, 0, 13.634, -24.56, 173.265, -10.687, -11.907, -23.607, 32.99, -0.02969, -0.21771, -0.10391, -0.96997,
 16:09:19.928,ed:40:fe:65:30:6c, 2015-01-01 01:21:34.150, 0.566, 0.217, 0.799, 0, 0, 0, 15.222, -34.36, -126.837, -19.753, -10.940, -4.960, 27.9, 0.45868, -0.20523, -0.24414, -0.82932,
 16:09:19.928,ed:40:fe:65:30:6c, 2015-01-01 01:21:34.150, 0.567, 0.219, 0.799, 0, 0, 0, 15.216, -34.36, -126.837, -19.753, -10.940, -4.960, 27.9, 0.45868, -0.20523, -0.24414, -0.82932,
 16:09:19.932,ed:35:33:d3:6c:f8, 2015-01-01 01:21:46.150, 0.417, 0.214, 0.883, 0, 0.183, -0.061, 13.634, -24.56, 173.249, -10.687, -11.907, -23.607, 32.99, -0.02969, -0.21771, -0.10391, -0.96997,
 16:09:19.932,ed:35:33:d3:6c:f8, 2015-01-01 01:21:46.150, 0.417, 0.216, 0.883, 0, 0.183, -0.061, 13.634, -24.554, 173.238, -10.687, -11.907, -23.607, 32.99, -0.02969, -0.21771, -0.10391, -0.96997,
 16:09:19.932,f6:90:cc:01:6d:25, 2015-01-01 01:21:43.920, 0.903, 0.162, 0.369, 0.244, 0, 0, 23.516, -65.989, -168.146, -28.433, -14.653, -4.753, 32.72, 0.19495, -0.51282, -0.22482, -0.80521,
 16:09:19.932,f6:90:cc:01:6d:25, 2015-01-01 01:21:43.920, 0.903, 0.162, 0.37, 0.122, 0, 0, 23.522, -65.989, -168.146, -28.433, -14.653, -4.753, 32.72, 0.19495, -0.51282, -0.22482, -0.80521,
 16:09:19.977,ed:35:33:d3:6c:f8, 2015-01-01 01:21:46.150, 0.414, 0.215, 0.884, 0, 0.061, 0, 13.634, -24.554, 173.227, -10.687, -11.907, -23.607, 32.99, -0.02969, -0.21771, -0.10391, -0.96997,
 16:09:19.977,ed:35:33:d3:6c:f8, 2015-01-01 01:21:46.150, 0.416, 0.213, 0.88, 0, 0, 0.061, 13.634, -24.554, 173.21, -10.687, -11.907, -23.607, 32.99, -0.02969, -0.21771, -0.10391, -0.96997,
 16:09:19.977,e3:ca:2d:fd:e0:8c, 2015-01-01 01:21:55.545, 0.938, -0.077, 0.399, 0, -0.122, 0, -11.217, -66.632, -174.479, -25.887, -10.613, -12.193, 29.55, 0.01373, 0.54971, -0.05545, 0.83334,
 16:09:19.977,e3:ca:2d:fd:e0:8c, 2015-01-01 01:21:55.545, 0.936, -0.079, 0.399, 0, -0.061, 0, -11.217, -66.632, -174.479, -25.887, -10.613, -12.193, 29.55, 0.01373, 0.54971, -0.05545, 0.83334,
 16:09:19.998,e3:ca:2d:fd:e0:8c, 2015-01-01 01:21:55.545, 0.936, -0.08, 0.399, 0, -0.122, 0, -11.217, -66.632, -174.479, -25.887, -10.613, -12.193, 29.55, 0.01373, 0.54971, -0.05545, 0.83334,
 16:09:19.998,e3:ca:2d:fd:e0:8c, 2015-01-01 01:21:55.545, 0.935, -0.08, 0.397, 0, -0.061, 0, -11.217, -66.638, -174.479, -25.887, -10.613, -12.193, 29.55, 0.01373, 0.54971, -0.05545, 0.83334,
 16:09:20.000,f6:90:cc:01:6d:25, 2015-01-01 01:21:43.920, 0.902, 0.16, 0.369, 0.061, 0, 0, 23.527, -65.989, -168.146, -28.433, -14.653, -4.753, 32.72, 0.19495, -0.51282, -0.22482, -0.80521,
 16:09:20.000,f6:90:cc:01:6d:25, 2015-01-01 01:21:43.920, 0.901, 0.159, 0.368, 0.122, 0.061, 0, 23.527, -65.989, -168.146, -28.433, -14.653, -4.753, 32.72, 0.19495, -0.51282, -0.22482, -0.80521,
 16:09:20.024,f6:90:cc:01:6d:25, 2015-01-01 01:21:43.920, 0.9, 0.159, 0.369, 0.183, 0.061, 0, 23.527, -65.989, -168.146, -28.427, -14.533, -5.427, 32.72, 0.19495, -0.51282, -0.22482, -0.80521,
 16:09:20.024,f6:90:cc:01:6d:25, 2015-01-01 01:21:43.920, 0.901, 0.16, 0.368, 0.244, 0.122, 0, 23.533, -65.989, -168.14, -28.427, -14.533, -5.427, 32.72, 0.19495, -0.51282, -0.22482, -0.80521,
 16:09:20.041,ed:40:fe:65:30:6c, 2015-01-01 01:21:34.150, 0.564, 0.219, 0.8, 0, -0.061, 0, 15.216, -34.36, -126.837, -19.753, -10.940, -4.960, 27.9, 0.45868, -0.20523, -0.24414, -0.82932,
 16:09:20.041,ed:40:fe:65:30:6c, 2015-01-01 01:21:34.150, 0.565, 0.216, 0.799, 0, -0.244, 0, 15.216, -34.36, -126.837, -19.753, -10.940, -4.960, 27.9, 0.45868, -0.20523, -0.24414, -0.82932,
 16:09:20.043,e3:ca:2d:fd:e0:8c, 2015-01-01 01:21:55.545, 0.936, -0.079, 0.397, 0.122, -0.183, 0, -11.212, -66.638, -174.474, -25.887, -10.613, -12.193, 29.55, 0.01373, 0.54971, -0.05545, 0.83334,
 16:09:20.043,e3:ca:2d:fd:e0:8c, 2015-01-01 01:21:55.545, 0.937, -0.079, 0.398, 0.122, -0.183, 0, -11.212, -66.638, -174.474, -25.887, -10.613, -12.193, 29.55, 0.01373, 0.54971, -0.05545, 0.83334,
 16:09:20.064,ed:40:fe:65:30:6c, 2015-01-01 01:21:34.505, 0.564, 0.213, 0.796, 0, 0, 0, 15.216, -34.365, -126.837, -19.753, -10.940, -4.960, 27.9, 0.45868, -0.20523, -0.24414, -0.82932,
 16:09:20.064,ed:40:fe:65:30:6c, 2015-01-01 01:21:34.505, 0.564, 0.215, 0.796, 0.122, 0.122, 0, 15.216, -34.365, -126.837, -19.753, -10.940, -4.960, 27.9, 0.45868, -0.20523, -0.24414, -0.82932,
 16:09:20.066,ed:35:33:d3:6c:f8, 2015-01-01 01:21:46.150, 0.414, 0.209, 0.878, 0, 0.122, -0.061, 13.634, -24.554, 173.199, -10.687, -11.907, -23.607, 32.99, -0.02969, -0.21771, -0.10391, -0.96997,
 16:09:20.066,ed:35:33:d3:6c:f8, 2015-01-01 01:21:46.150, 0.415, 0.215, 0.88, 0.244, 0.061, -0.061, 13.64, -24.549, 173.188, -10.687, -11.907, -23.607, 32.99, -0.02969, -0.21771, -0.10391, -0.96997,
 16:09:20.068,f6:90:cc:01:6d:25, 2015-01-01 01:21:43.920, 0.902, 0.16, 0.369, 0.183, 0, 0, 23.533, -65.984, -168.14, -28.427, -14.533, -5.427, 32.72, 0.19495, -0.51282, -0.22482, -0.80521,
 16:09:20.068,f6:90:cc:01:6d:25, 2015-01-01 01:21:43.920, 0.902, 0.161, 0.369, 0.183, 0.061, 0, 23.538, -65.984, -168.14, -28.427, -14.533, -5.427, 32.72, 0.19495, -0.51282, -0.22482, -0.80521,
 16:09:20.086,ed:40:fe:65:30:6c, 2015-01-01 01:21:34.505, 0.565, 0.218, 0.8, 0.061, 0.061, 0, 15.216, -34.36, -126.837, -19.753, -10.940, -4.960, 27.9, 0.45868, -0.20523, -0.24414, -0.82932,
 16:09:20.086,ed:40:fe:65:30:6c, 2015-01-01 01:21:34.505, 0.564, 0.216, 0.798, 0.061, 0, 0, 15.222, -34.36, -126.837, -19.753, -10.940, -4.960, 27.9, 0.45868, -0.20523, -0.24414, -0.82932,
 16:09:20.088,e3:ca:2d:fd:e0:8c, 2015-01-01 01:21:55.545, 0.938, -0.078, 0.399, 0.122, -0.183, 0, -11.212, -66.643, -174.474, -25.887, -10.613, -12.193, 29.55, 0.01373, 0.54971, -0.05545, 0.83334,
 16:09:20.088,e3:ca:2d:fd:e0:8c, 2015-01-01 01:21:55.545, 0.937, -0.079, 0.399, 0.061, -0.183, 0, -11.212, -66.643, -174.468, -25.887, -10.613, -12.193, 29.55, 0.01373, 0.54971, -0.05545, 0.83334,
 16:09:20.089,ed:35:33:d3:6c:f8, 2015-01-01 01:21:46.150, 0.416, 0.215, 0.882, 0.061, 0.122, 0.061, 13.64, -24.549, 173.177, -11.473, -11.840, -23.660, 32.99, -0.02969, -0.21771, -0.10391, -0.96997,
 16:09:20.089,ed:35:33:d3:6c:f8, 2015-01-01 01:21:46.150, 0.415, 0.212, 0.882, 0.061, 0, 0.061, 13.64, -24.549, 173.167, -11.473, -11.840, -23.660, 32.99, -0.02969, -0.21771, -0.10391, -0.96997,
 16:09:20.091,f6:90:cc:01:6d:25, 2015-01-01 01:21:43.920, 0.902, 0.16, 0.369, 0.061, 0.061, 0, 23.538, -65.984, -168.14, -28.427, -14.533, -5.427, 32.72, 0.19495, -0.51282, -0.22482, -0.80521,
 16:09:20.091,f6:90:cc:01:6d:25, 2015-01-01 01:21:43.920, 0.901, 0.16, 0.368, 0, 0, 0, 23.538, -65.984, -168.14, -28.427, -14.533, -5.427, 32.72, 0.19495, -0.51282, -0.22482, -0.80521,
 16:09:20.108,ed:40:fe:65:30:6c, 2015-01-01 01:21:34.505, 0.564, 0.215, 0.801, 0, -0.122, 0, 15.222, -34.36, -126.837, -19.753, -10.940, -4.960, 27.9, 0.45868, -0.20523, -0.24414, -0.82932,
 16:09:20.108,ed:40:fe:65:30:6c, 2015-01-01 01:21:34.505, 0.566, 0.216, 0.799, -0.061, -0.122, 0, 15.216, -34.36, -126.843, -19.753, -10.940, -4.960, 27.9, 0.45868, -0.20523, -0.24414, -0.82932,
 16:09:20.110,e3:ca:2d:fd:e0:8c, 2015-01-01 01:21:55.545, 0.937, -0.079, 0.399, -0.122, -0.122, 0, -11.212, -66.643, -174.468, -26.127, -10.600, -12.567, 29.55, 0.01373, 0.54971, -0.05545, 0.83334,
 16:09:20.110,e3:ca:2d:fd:e0:8c, 2015-01-01 01:21:55.545, 0.937, -0.08, 0.398, -0.122, -0.183, 0, -11.217, -66.649, -174.468, -26.127, -10.600, -12.567, 29.55, 0.01373, 0.54971, -0.05545, 0.83334,
 16:09:20.132,ed:40:fe:65:30:6c, 2015-01-01 01:21:34.505, 0.566, 0.216, 0.797, 0, -0.061, 0, 15.216, -34.365, -126.843, -19.753, -10.940, -4.960, 27.9, 0.45868, -0.20523, -0.24414, -0.82932,
 16:09:20.132,ed:40:fe:65:30:6c, 2015-01-01 01:21:34.505, 0.564, 0.215, 0.798, 0, 0, 0, 15.216, -34.365, -126.843, -19.753, -10.940, -4.960, 27.9, 0.45868, -0.20523, -0.24414, -0.82932,
 16:09:20.134,ed:35:33:d3:6c:f8, 2015-01-01 01:21:46.150, 0.415, 0.212, 0.884, -0.061, 0, 0, 13.634, -24.549, 173.156, -11.473, -11.840, -23.660, 32.99, -0.02969, -0.21771, -0.10391, -0.96997,
 16:09:20.134,ed:35:33:d3:6c:f8, 2015-01-01 01:21:46.150, 0.416, 0.213, 0.881, -0.061, 0.183, 0.061, 13.634, -24.549, 173.145, -11.473, -11.840, -23.660, 32.99, -0.02969, -0.21771, -0.10391, -0.96997,
 16:09:20.135,f6:90:cc:01:6d:25, 2015-01-01 01:21:43.920, 0.902, 0.16, 0.369, 0, 0, 0, 23.538, -65.984, -168.14, -28.427, -14.533, -5.427, 32.72, 0.19528, -0.51254, -0.22522, -0.80521,
 16:09:20.135,f6:90:cc:01:6d:25, 2015-01-01 01:21:43.920, 0.901, 0.16, 0.368, 0.122, 0.061, 0, 23.538, -65.984, -168.135, -28.427, -14.533, -5.427, 32.72, 0.19528, -0.51254, -0.22522, -0.80521,
 16:09:20.155,ed:40:fe:65:30:6c, 2015-01-01 01:21:34.505, 0.564, 0.216, 0.799, 0, 0.061, 0, 15.216, -34.36, -126.843, -19.753, -10.940, -4.960, 27.9, 0.45868, -0.20523, -0.24414, -0.82932,
 16:09:20.155,ed:40:fe:65:30:6c, 2015-01-01 01:21:34.505, 0.563, 0.216, 0.799, 0, 0, 0, 15.216, -34.36, -126.843, -19.753, -10.940, -4.960, 27.9, 0.45868, -0.20523, -0.24414, -0.82932,
 16:09:20.155,e3:ca:2d:fd:e0:8c, 2015-01-01 01:21:55.545, 0.936, -0.079, 0.398, 0.061, -0.122, 0, -11.217, -66.649, -174.468, -26.127, -10.600, -12.567, 29.55, 0.01373, 0.54971, -0.05545, 0.83334,
 16:09:20.155,e3:ca:2d:fd:e0:8c, 2015-01-01 01:21:55.545, 0.936, -0.079, 0.397, 0.183, -0.122, 0, -11.217, -66.649, -174.463, -26.127, -10.600, -12.567, 29.55, 0.01373, 0.54971, -0.05545, 0.83334,
 16:09:20.157,ed:35:33:d3:6c:f8, 2015-01-01 01:21:46.150, 0.415, 0.213, 0.879, 0, 0.122, 0.061, 13.634, -24.549, 173.134, -11.473, -11.840, -23.660, 32.99, -0.0329, -0.21765, -0.10312, -0.96997,
 16:09:20.157,ed:35:33:d3:6c:f8, 2015-01-01 01:21:46.150, 0.414, 0.212, 0.881, 0, 0.122, 0.122, 13.629, -24.543, 173.123, -11.473, -11.840, -23.660, 32.99, -0.0329, -0.21765, -0.10312, -0.96997,
 16:09:20.179,f6:90:cc:01:6d:25, 2015-01-01 01:21:44.275, 0.901, 0.16, 0.368, 0.122, 0.122, 0, 23.538, -65.978, -168.135, -28.427, -14.533, -5.427, 32.72, 0.19528, -0.51254, -0.22522, -0.80521,
 16:09:20.179,f6:90:cc:01:6d:25, 2015-01-01 01:21:44.275, 0.901, 0.161, 0.369, 0.122, 0.061, 0, 23.538, -65.978, -168.135, -28.427, -14.533, -5.427, 32.72, 0.19528, -0.51254, -0.22522, -0.80521,
 16:09:20.199,ed:40:fe:65:30:6c, 2015-01-01 01:21:34.505, 0.564, 0.216, 0.799, 0.061, -0.061, 0, 15.216, -34.36, -126.843, -19.753, -10.940, -4.960, 27.9, 0.45868, -0.20523, -0.24414, -0.82932,
 16:09:20.199,ed:40:fe:65:30:6c, 2015-01-01 01:21:34.505, 0.565, 0.217, 0.798, 0, -0.061, 0, 15.216, -34.36, -126.843, -19.753, -10.940, -4.960, 27.9, 0.45868, -0.20523, -0.24414, -0.82932,
 16:09:20.201,ed:35:33:d3:6c:f8, 2015-01-01 01:21:46.150, 0.413, 0.213, 0.882, 0.061, 0.183, 0.061, 13.629, -24.543, 173.117, -11.473, -11.840, -23.660, 32.99, -0.0329, -0.21765, -0.10312, -0.96997,
 16:09:20.201,ed:35:33:d3:6c:f8, 2015-01-01 01:21:46.150, 0.414, 0.212, 0.882, 0, 0.061, 0.061, 13.629, -24.543, 173.106, -11.473, -11.840, -23.660, 32.99, -0.0329, -0.21765, -0.10312, -0.96997,
 16:09:20.222,e3:ca:2d:fd:e0:8c, 2015-01-01 01:21:55.545, 0.936, -0.078, 0.398, 0.244, -0.122, 0, -11.212, -66.649, -174.463, -26.127, -10.600, -12.567, 29.55, 0.01349, 0.55005, -0.05518, 0.83313,
 16:09:20.222,e3:ca:2d:fd:e0:8c, 2015-01-01 01:21:55.545, 0.937, -0.078, 0.398, 0.122, -0.122, 0, -11.212, -66.654, -174.463, -26.127, -10.600, -12.567, 29.55, 0.01349, 0.55005, -0.05518, 0.83313,
 16:09:20.223,ed:35:33:d3:6c:f8, 2015-01-01 01:21:46.550, 0.414, 0.213, 0.881, 0.061, 0.122, 0.122, 13.629, -24.543, 173.101, -11.473, -11.840, -23.660, 32.99, -0.0329, -0.21765, -0.10312, -0.96997,
 16:09:20.223,ed:35:33:d3:6c:f8, 2015-01-01 01:21:46.550, 0.415, 0.214, 0.881, 0, 0.122, 0.061, 13.629, -24.538, 173.09, -11.473, -11.840, -23.660, 32.99, -0.0329, -0.21765, -0.10312, -0.96997,
 16:09:20.224,f6:90:cc:01:6d:25, 2015-01-01 01:21:44.275, 0.901, 0.162, 0.37, 0.122, 0.061, 0, 23.538, -65.978, -168.135, -28.427, -14.533, -5.427, 32.72, 0.19528, -0.51254, -0.22522, -0.80521,
 16:09:20.224,f6:90:cc:01:6d:25, 2015-01-01 01:21:44.275, 0.901, 0.161, 0.369, 0, 0, 0, 23.538, -65.978, -168.129, -28.427, -14.533, -5.427, 32.72, 0.19528, -0.51254, -0.22522, -0.80521,
 16:09:20.244,ed:40:fe:65:30:6c, 2015-01-01 01:21:34.505, 0.564, 0.216, 0.798, 0, 0, 0, 15.211, -34.36, -126.843, -19.753, -10.940, -4.960, 27.9, 0.45868, -0.20523, -0.24414, -0.82932,
 16:09:20.244,ed:40:fe:65:30:6c, 2015-01-01 01:21:34.505, 0.564, 0.215, 0.799, 0, 0, 0, 15.211, -34.36, -126.843, -19.753, -10.940, -4.960, 27.9, 0.45868, -0.20523, -0.24414, -0.82932,
 16:09:20.245,e3:ca:2d:fd:e0:8c, 2015-01-01 01:21:55.880, 0.936, -0.078, 0.398, -0.061, -0.122, 0, -11.212, -66.654, -174.463, -26.127, -10.600, -12.567, 29.55, 0.01349, 0.55005, -0.05518, 0.83313,
 16:09:20.245,e3:ca:2d:fd:e0:8c, 2015-01-01 01:21:55.880, 0.937, -0.08, 0.398, -0.122, -0.122, 0, -11.212, -66.654, -174.463, -26.127, -10.600, -12.567, 29.55, 0.01349, 0.55005, -0.05518, 0.83313,
 16:09:20.249,f6:90:cc:01:6d:25, 2015-01-01 01:21:44.275, 0.902, 0.16, 0.369, 0, 0, 0, 23.538, -65.978, -168.129, -28.427, -14.533, -5.427, 32.72, 0.19528, -0.51254, -0.22522, -0.80521,
 16:09:20.249,f6:90:cc:01:6d:25, 2015-01-01 01:21:44.275, 0.901, 0.161, 0.369, 0, 0, 0, 23.538, -65.978, -168.129, -28.427, -14.533, -5.427, 32.72, 0.19528, -0.51254, -0.22522, -0.80521,
 16:09:20.267,e3:ca:2d:fd:e0:8c, 2015-01-01 01:21:55.880, 0.937, -0.079, 0.398, 0, -0.122, 0, -11.217, -66.654, -174.457, -26.127, -10.600, -12.567, 29.55, 0.01349, 0.55005, -0.05518, 0.83313,
 16:09:20.267,e3:ca:2d:fd:e0:8c, 2015-01-01 01:21:55.880, 0.937, -0.078, 0.397, 0, -0.183, 0, -11.217, -66.66, -174.457, -26.127, -10.600, -12.567, 29.55, 0.01349, 0.55005, -0.05518, 0.83313,
 16:09:20.269,ed:35:33:d3:6c:f8, 2015-01-01 01:21:46.550, 0.414, 0.212, 0.881, 0, 0.061, 0.061, 13.623, -24.538, 173.079, -11.473, -11.840, -23.660, 32.99, -0.0329, -0.21765, -0.10312, -0.96997,
 16:09:20.269,ed:35:33:d3:6c:f8, 2015-01-01 01:21:46.550, 0.415, 0.212, 0.881, 0, 0.061, 0.061, 13.623, -24.538, 173.073, -11.473, -11.840, -23.660, 32.99, -0.0329, -0.21765, -0.10312, -0.96997,
 16:09:20.294,f6:90:cc:01:6d:25, 2015-01-01 01:21:44.275, 0.901, 0.161, 0.369, 0.061, 0, 0, 23.538, -65.978, -168.129, -28.427, -14.533, -5.427, 32.72, 0.19528, -0.51254, -0.22522, -0.80521,
 16:09:20.294,f6:90:cc:01:6d:25, 2015-01-01 01:21:44.275, 0.901, 0.16, 0.368, 0.061, 0, 0, 23.538, -65.973, -168.129, -28.427, -14.533, -5.427, 32.72, 0.19528, -0.51254, -0.22522, -0.80521,
 16:09:20.313,ed:40:fe:65:30:6c, 2015-01-01 01:21:34.505, 0.564, 0.216, 0.799, 0, 0, 0, 15.211, -34.36, -126.843, -19.947, -10.840, -4.960, 27.9, 0.45868, -0.20523, -0.24414, -0.82932,
 16:09:20.313,ed:40:fe:65:30:6c, 2015-01-01 01:21:34.505, 0.565, 0.216, 0.798, 0, 0, 0, 15.211, -34.36, -126.843, -19.947, -10.840, -4.960, 27.9, 0.45868, -0.20523, -0.24414, -0.82932,
 16:09:20.333,ed:40:fe:65:30:6c, 2015-01-01 01:21:34.505, 0.564, 0.216, 0.798, 0, -0.061, 0, 15.211, -34.36, -126.843, -19.947, -10.840, -4.960, 27.9, 0.45862, -0.20526, -0.24408, -0.82938,
 16:09:20.333,ed:40:fe:65:30:6c, 2015-01-01 01:21:34.505, 0.564, 0.216, 0.799, 0.061, -0.061, 0, 15.211, -34.36, -126.843, -19.947, -10.840, -4.960, 27.9, 0.45862, -0.20526, -0.24408, -0.82938,
 16:09:20.337,ed:35:33:d3:6c:f8, 2015-01-01 01:21:46.550, 0.415, 0.212, 0.882, 0, 0.061, 0, 13.623, -24.538, 173.062, -11.473, -11.840, -23.660, 32.99, -0.0329, -0.21765, -0.10312, -0.96997,
 16:09:20.337,ed:35:33:d3:6c:f8, 2015-01-01 01:21:46.550, 0.414, 0.212, 0.881, 0.061, 0.061, 0, 13.623, -24.538, 173.051, -11.473, -11.840, -23.660, 32.99, -0.0329, -0.21765, -0.10312, -0.96997,
 16:09:20.338,f6:90:cc:01:6d:25, 2015-01-01 01:21:44.275, 0.902, 0.162, 0.369, 0.122, 0, 0, 23.544, -65.973, -168.129, -28.427, -14.533, -5.427, 32.72, 0.19528, -0.51254, -0.22522, -0.80521,
 16:09:20.338,f6:90:cc:01:6d:25, 2015-01-01 01:21:44.275, 0.902, 0.161, 0.369, 0.122, 0, 0, 23.544, -65.973, -168.129, -28.427, -14.533, -5.427, 32.72, 0.19528, -0.51254, -0.22522, -0.80521,
 16:09:20.357,e3:ca:2d:fd:e0:8c, 2015-01-01 01:21:55.880, 0.937, -0.079, 0.397, 0, -0.122, 0, -11.217, -66.66, -174.457, -26.127, -10.600, -12.567, 29.55, 0.01349, 0.55005, -0.05518, 0.83313,
 16:09:20.357,e3:ca:2d:fd:e0:8c, 2015-01-01 01:21:55.880, 0.937, -0.078, 0.398, 0.061, -0.183, 0, -11.217, -66.66, -174.452, -26.127, -10.600, -12.567, 29.55, 0.01349, 0.55005, -0.05518, 0.83313,
 16:09:20.359,ed:35:33:d3:6c:f8, 2015-01-01 01:21:46.550, 0.415, 0.212, 0.882, 0.061, 0, 0, 13.623, -24.538, 173.04, -11.473, -11.840, -23.660, 32.99, -0.0329, -0.21765, -0.10312, -0.96997,
 16:09:20.359,ed:35:33:d3:6c:f8, 2015-01-01 01:21:46.550, 0.415, 0.213, 0.882, 0.183, 0, 0.061, 13.629, -24.538, 173.029, -11.473, -11.840, -23.660, 32.99, -0.0329, -0.21765, -0.10312, -0.96997,
 16:09:20.379,ed:40:fe:65:30:6c, 2015-01-01 01:21:34.505, 0.565, 0.216, 0.799, 0.183, 0, 0, 15.211, -34.36, -126.843, -19.947, -10.840, -4.960, 27.9, 0.45862, -0.20526, -0.24408, -0.82938,
 16:09:20.379,ed:40:fe:65:30:6c, 2015-01-01 01:21:34.505, 0.565, 0.217, 0.797, 0.183, 0, 0, 15.216, -34.36, -126.843, -19.947, -10.840, -4.960, 27.9, 0.45862, -0.20526, -0.24408, -0.82938,
 16:09:20.381,e3:ca:2d:fd:e0:8c, 2015-01-01 01:21:55.880, 0.937, -0.078, 0.398, 0.061, -0.183, 0, -11.217, -66.665, -174.452, -26.127, -10.600, -12.567, 29.55, 0.01349, 0.55005, -0.05518, 0.83313,
 16:09:20.381,e3:ca:2d:fd:e0:8c, 2015-01-01 01:21:55.880, 0.937, -0.08, 0.397, 0, -0.183, 0, -11.217, -66.665, -174.452, -26.127, -10.600, -12.567, 29.55, 0.01349, 0.55005, -0.05518, 0.83313,
 16:09:20.383,f6:90:cc:01:6d:25, 2015-01-01 01:21:44.275, 0.902, 0.159, 0.369, 0.122, 0, 0, 23.549, -65.973, -168.129, -28.307, -14.407, -6.107, 32.72, 0.19528, -0.51254, -0.22522, -0.80521,
 16:09:20.383,f6:90:cc:01:6d:25, 2015-01-01 01:21:44.275, 0.901, 0.16, 0.369, 0.122, 0, 0, 23.549, -65.973, -168.129, -28.307, -14.407, -6.107, 32.72, 0.19528, -0.51254, -0.22522, -0.80521,
 16:09:20.403,ed:35:33:d3:6c:f8, 2015-01-01 01:21:46.550, 0.415, 0.213, 0.881, 0.183, 0.061, 0.122, 13.629, -24.538, 173.024, -11.473, -11.840, -23.660, 32.99, -0.0329, -0.21765, -0.10312, -0.96997,
 16:09:20.403,ed:35:33:d3:6c:f8, 2015-01-01 01:21:46.550, 0.415, 0.213, 0.881, 0.183, 0.122, 0, 13.629, -24.538, 173.018, -11.473, -11.840, -23.660, 32.99, -0.0329, -0.21765, -0.10312, -0.96997,
 16:09:20.404,ed:40:fe:65:30:6c, 2015-01-01 01:21:34.910, 0.565, 0.217, 0.798, 0.122, 0, 0, 15.216, -34.36, -126.843, -19.947, -10.840, -4.960, 27.9, 0.45862, -0.20526, -0.24408, -0.82938,
 16:09:20.404,ed:40:fe:65:30:6c, 2015-01-01 01:21:34.910, 0.563, 0.216, 0.8, 0.061, 0, 0, 15.216, -34.36, -126.843, -19.947, -10.840, -4.960, 27.9, 0.45862, -0.20526, -0.24408, -0.82938,
 16:09:20.425,e3:ca:2d:fd:e0:8c, 2015-01-01 01:21:55.880, 0.937, -0.079, 0.397, 0, -0.122, 0, -11.217, -66.665, -174.452, -26.127, -10.600, -12.567, 29.55, 0.01349, 0.55005, -0.05518, 0.83313,
 16:09:20.425,e3:ca:2d:fd:e0:8c, 2015-01-01 01:21:55.880, 0.936, -0.078, 0.398, 0.122, -0.122, 0, -11.217, -66.671, -174.446, -26.127, -10.600, -12.567, 29.55, 0.01349, 0.55005, -0.05518, 0.83313,
 16:09:20.427,ed:35:33:d3:6c:f8, 2015-01-01 01:21:46.550, 0.414, 0.213, 0.882, 0.061, 0.061, 0, 13.629, -24.532, 173.007, -11.207, -11.953, -22.920, 32.99, -0.0329, -0.21765, -0.10312, -0.96997,
 16:09:20.427,ed:35:33:d3:6c:f8, 2015-01-01 01:21:46.550, 0.413, 0.213, 0.883, 0.061, 0.061, 0, 13.634, -24.532, 172.996, -11.207, -11.953, -22.920, 32.99, -0.0329, -0.21765, -0.10312, -0.96997,
 16:09:20.427,f6:90:cc:01:6d:25, 2015-01-01 01:21:44.275, 0.9, 0.161, 0.369, 0.183, 0, 0, 23.555, -65.973, -168.129, -28.307, -14.407, -6.107, 32.72, 0.1954, -0.51242, -0.22537, -0.80521,
 16:09:20.427,f6:90:cc:01:6d:25, 2015-01-01 01:21:44.275, 0.901, 0.16, 0.37, 0.061, -0.061, 0, 23.555, -65.973, -168.135, -28.307, -14.407, -6.107, 32.72, 0.1954, -0.51242, -0.22537, -0.80521,
 16:09:20.446,ed:40:fe:65:30:6c, 2015-01-01 01:21:34.910, 0.564, 0.216, 0.8, 0.061, 0, 0, 15.222, -34.354, -126.843, -19.947, -10.840, -4.960, 27.9, 0.45862, -0.20526, -0.24408, -0.82938,
 16:09:20.446,ed:40:fe:65:30:6c, 2015-01-01 01:21:34.910, 0.566, 0.215, 0.798, 0.061, -0.122, 0, 15.222, -34.36, -126.843, -19.947, -10.840, -4.960, 27.9, 0.45862, -0.20526, -0.24408, -0.82938,
 16:09:20.447,e3:ca:2d:fd:e0:8c, 2015-01-01 01:21:55.880, 0.937, -0.079, 0.398, 0.122, -0.122, 0, -11.217, -66.671, -174.446, -26.120, -11.087, -12.287, 29.55, 0.01349, 0.55005, -0.05518, 0.83313,
 16:09:20.447,e3:ca:2d:fd:e0:8c, 2015-01-01 01:21:55.880, 0.937, -0.079, 0.398, 0, -0.183, 0, -11.217, -66.671, -174.446, -26.120, -11.087, -12.287, 29.55, 0.01349, 0.55005, -0.05518, 0.83313,
 16:09:20.449,f6:90:cc:01:6d:25, 2015-01-01 01:21:44.565, 0.902, 0.16, 0.37, 0.061, -0.061, 0, 23.555, -65.973, -168.135, -28.307, -14.407, -6.107, 32.72, 0.1954, -0.51242, -0.22537, -0.80521,
 16:09:20.449,f6:90:cc:01:6d:25, 2015-01-01 01:21:44.565, 0.902, 0.16, 0.368, 0, -0.061, 0, 23.555, -65.973, -168.135, -28.307, -14.407, -6.107, 32.72, 0.1954, -0.51242, -0.22537, -0.80521,
 16:09:20.471,ed:35:33:d3:6c:f8, 2015-01-01 01:21:46.550, 0.416, 0.212, 0.883, 0.061, 0.122, 0, 13.634, -24.532, 172.991, -11.207, -11.953, -22.920, 32.99, -0.0329, -0.21765, -0.10312, -0.96997,
 16:09:20.471,ed:35:33:d3:6c:f8, 2015-01-01 01:21:46.550, 0.415, 0.212, 0.882, 0.061, 0.061, 0, 13.634, -24.532, 172.98, -11.207, -11.953, -22.920, 32.99, -0.0329, -0.21765, -0.10312, -0.96997,
 16:09:20.471,e3:ca:2d:fd:e0:8c, 2015-01-01 01:21:55.880, 0.938, -0.079, 0.398, 0, -0.183, 0, -11.217, -66.676, -174.441, -26.120, -11.087, -12.287, 29.55, 0.01349, 0.55005, -0.05518, 0.83313,
 16:09:20.472,e3:ca:2d:fd:e0:8c, 2015-01-01 01:21:55.880, 0.938, -0.079, 0.397, 0, -0.183, 0, -11.217, -66.676, -174.441, -26.120, -11.087, -12.287, 29.55, 0.01349, 0.55005, -0.05518, 0.83313,
 16:09:20.491,ed:40:fe:65:30:6c, 2015-01-01 01:21:34.910, 0.566, 0.215, 0.798, 0, -0.244, 0, 15.222, -34.36, -126.848, -19.947, -10.840, -4.960, 27.9, 0.45862, -0.20526, -0.24408, -0.82938,
 16:09:20.491,ed:40:fe:65:30:6c, 2015-01-01 01:21:34.910, 0.567, 0.215, 0.797, -0.183, -0.122, 0, 15.216, -34.365, -126.848, -19.947, -10.840, -4.960, 27.9, 0.45862, -0.20526, -0.24408, -0.82938,
 16:09:20.495,f6:90:cc:01:6d:25, 2015-01-01 01:21:44.565, 0.903, 0.16, 0.368, 0, 0, 0, 23.555, -65.973, -168.135, -28.307, -14.407, -6.107, 32.72, 0.1954, -0.51242, -0.22537, -0.80521,
 16:09:20.495,f6:90:cc:01:6d:25, 2015-01-01 01:21:44.565, 0.904, 0.161, 0.368, -0.122, 0, 0, 23.555, -65.973, -168.135, -28.307, -14.407, -6.107, 32.72, 0.1954, -0.51242, -0.22537, -0.80521,
 16:09:20.516,ed:35:33:d3:6c:f8, 2015-01-01 01:21:46.550, 0.416, 0.211, 0.881, -0.061, 0, 0, 13.629, -24.532, 172.969, -11.207, -11.953, -22.920, 32.99, -0.0329, -0.21765, -0.10312, -0.96997,
 16:09:20.516,ed:35:33:d3:6c:f8, 2015-01-01 01:21:46.550, 0.417, 0.212, 0.88, -0.305, 0, 0, 13.623, -24.532, 172.963, -11.207, -11.953, -22.920, 32.99, -0.0329, -0.21765, -0.10312, -0.96997,
 16:09:20.537,e3:ca:2d:fd:e0:8c, 2015-01-01 01:21:55.880, 0.939, -0.079, 0.398, -0.061, -0.061, 0, -11.223, -66.676, -174.441, -26.120, -11.087, -12.287, 29.55, 0.01349, 0.55005, -0.05518, 0.83313,
 16:09:20.537,e3:ca:2d:fd:e0:8c, 2015-01-01 01:21:55.880, 0.937, -0.078, 0.399, -0.305, 0, 0, -11.228, -66.676, -174.441, -26.120, -11.087, -12.287, 29.55, 0.01349, 0.55005, -0.05518, 0.83313,
 16:09:20.537,ed:40:fe:65:30:6c, 2015-01-01 01:21:34.910, 0.566, 0.218, 0.798, -0.183, 0.061, 0, 15.211, -34.365, -126.848, -19.947, -10.840, -4.960, 27.9, 0.45862, -0.20526, -0.24408, -0.82938,
 16:09:20.537,ed:40:fe:65:30:6c, 2015-01-01 01:21:34.910, 0.562, 0.214, 0.798, 0, 0, 0, 15.211, -34.365, -126.848, -19.947, -10.840, -4.960, 27.9, 0.45862, -0.20526, -0.24408, -0.82938,
 16:09:20.539,ed:35:33:d3:6c:f8, 2015-01-01 01:21:46.550, 0.413, 0.214, 0.883, 0, 0, 0, 13.623, -24.532, 172.952, -11.207, -11.953, -22.920, 32.99, -0.03439, -0.21768, -0.10272, -0.96994,
 16:09:20.539,ed:35:33:d3:6c:f8, 2015-01-01 01:21:46.550, 0.414, 0.209, 0.879, 0, 0, 0, 13.623, -24.532, 172.941, -11.207, -11.953, -22.920, 32.99, -0.03439, -0.21768, -0.10272, -0.96994,
 16:09:20.541,f6:90:cc:01:6d:25, 2015-01-01 01:21:44.565, 0.901, 0.162, 0.37, -0.061, 0, 0, 23.549, -65.973, -168.135, -28.307, -14.407, -6.107, 32.72, 0.1954, -0.51242, -0.22537, -0.80521,
 16:09:20.541,f6:90:cc:01:6d:25, 2015-01-01 01:21:44.565, 0.898, 0.157, 0.366, -0.183, 0, 0, 23.549, -65.973, -168.135, -28.307, -14.407, -6.107, 32.72, 0.1954, -0.51242, -0.22537, -0.80521,
 16:09:20.560,e3:ca:2d:fd:e0:8c, 2015-01-01 01:21:55.880, 0.934, -0.08, 0.398, -0.305, 0.061, 0, -11.234, -66.676, -174.441, -26.120, -11.087, -12.287, 29.55, 0.01337, 0.55026, -0.05508, 0.83301,
 16:09:20.560,e3:ca:2d:fd:e0:8c, 2015-01-01 01:21:55.880, 0.937, -0.082, 0.397, -0.305, 0.366, 0, -11.234, -66.671, -174.446, -26.120, -11.087, -12.287, 29.55, 0.01337, 0.55026, -0.05508, 0.83301,
 16:09:20.581,ed:40:fe:65:30:6c, 2015-01-01 01:21:34.910, 0.563, 0.21, 0.797, -0.061, 0.305, 0, 15.211, -34.36, -126.848, -19.947, -10.840, -4.960, 27.9, 0.45862, -0.20526, -0.24408, -0.82938,
 16:09:20.581,ed:40:fe:65:30:6c, 2015-01-01 01:21:34.910, 0.562, 0.216, 0.801, 0, 0.183, 0, 15.205, -34.354, -126.843, -19.947, -10.840, -4.960, 27.9, 0.45862, -0.20526, -0.24408, -0.82938,
 16:09:20.583,ed:35:33:d3:6c:f8, 2015-01-01 01:21:46.550, 0.412, 0.207, 0.88, -0.122, 0.244, 0, 13.618, -24.527, 172.936, -11.207, -11.953, -22.920, 32.99, -0.03439, -0.21768, -0.10272, -0.96994,
 16:09:20.583,ed:35:33:d3:6c:f8, 2015-01-01 01:21:46.550, 0.414, 0.214, 0.891, 0.61, -0.183, 0.305, 13.623, -24.532, 172.925, -11.207, -11.953, -22.920, 32.99, -0.03439, -0.21768, -0.10272, -0.96994,
 16:09:20.586,f6:90:cc:01:6d:25, 2015-01-01 01:21:44.565, 0.901, 0.159, 0.368, -0.122, 0.122, 0, 23.544, -65.973, -168.135, -28.307, -14.407, -6.107, 32.72, 0.1954, -0.51242, -0.22537, -0.80521,
 16:09:20.586,f6:90:cc:01:6d:25, 2015-01-01 01:21:44.565, 0.902, 0.163, 0.373, -0.061, -0.244, 0, 23.544, -65.973, -168.135, -28.307, -14.407, -6.107, 32.72, 0.1954, -0.51242, -0.22537, -0.80521,
 16:09:20.605,ed:40:fe:65:30:6c, 2015-01-01 01:21:34.910, 0.565, 0.218, 0.807, 0.427, -0.183, 0, 15.211, -34.354, -126.843, -19.993, -10.840, -4.620, 27.9, 0.45862, -0.20526, -0.24408, -0.82938,
 16:09:20.605,ed:40:fe:65:30:6c, 2015-01-01 01:21:34.910, 0.563, 0.214, 0.804, 0.305, -0.732, 0, 15.216, -34.36, -126.848, -19.993, -10.840, -4.620, 27.9, 0.45862, -0.20526, -0.24408, -0.82938,
 16:09:20.607,e3:ca:2d:fd:e0:8c, 2015-01-01 01:21:55.880, 0.937, -0.076, 0.398, -0.305, 0.366, 0, -11.239, -66.66, -174.446, -26.120, -11.087, -12.287, 29.55, 0.01337, 0.55026, -0.05508, 0.83301,
 16:09:20.607,e3:ca:2d:fd:e0:8c, 2015-01-01 01:21:55.880, 0.937, -0.077, 0.398, -0.122, 0.061, 0, -11.239, -66.654, -174.446, -26.120, -11.087, -12.287, 29.55, 0.01337, 0.55026, -0.05508, 0.83301,
 16:09:20.630,f6:90:cc:01:6d:25, 2015-01-01 01:21:44.565, 0.902, 0.161, 0.369, -0.061, -0.366, 0, 23.549, -65.978, -168.14, -28.307, -14.407, -6.107, 32.72, 0.1954, -0.51242, -0.22537, -0.80521,
 16:09:20.630,f6:90:cc:01:6d:25, 2015-01-01 01:21:44.565, 0.902, 0.16, 0.37, -0.122, -0.366, 0, 23.549, -65.984, -168.151, -28.307, -14.407, -6.107, 32.72, 0.1954, -0.51242, -0.22537, -0.80521,
 16:09:20.650,ed:40:fe:65:30:6c, 2015-01-01 01:21:34.910, 0.563, 0.213, 0.799, 0.488, -1.16, 0, 15.227, -34.376, -126.865, -19.993, -10.840, -4.620, 27.9, 0.45862, -0.20526, -0.24408, -0.82938,
 16:09:20.650,ed:40:fe:65:30:6c, 2015-01-01 01:21:34.910, 0.565, 0.217, 0.799, 0.732, -1.221, 0, 15.238, -34.398, -126.887, -19.993, -10.840, -4.620, 27.9, 0.45862, -0.20526, -0.24408, -0.82938,
 16:09:20.650,e3:ca:2d:fd:e0:8c, 2015-01-01 01:21:56.260, 0.937, -0.081, 0.399, 0, 0.122, 0, -11.239, -66.654, -174.452, -26.120, -11.087, -12.287, 29.55, 0.01337, 0.55026, -0.05508, 0.83301,
 16:09:20.650,e3:ca:2d:fd:e0:8c, 2015-01-01 01:21:56.260, 0.936, -0.079, 0.398, -0.183, 0, 0, -11.239, -66.649, -174.452, -26.120, -11.087, -12.287, 29.55, 0.01337, 0.55026, -0.05508, 0.83301,
 16:09:20.653,f6:90:cc:01:6d:25, 2015-01-01 01:21:44.565, 0.902, 0.16, 0.37, -0.061, -0.366, 0, 23.555, -65.995, -168.157, -27.853, -14.727, -5.620, 32.72, 0.1954, -0.51242, -0.22537, -0.80521,
 16:09:20.653,f6:90:cc:01:6d:25, 2015-01-01 01:21:44.565, 0.9, 0.158, 0.367, -0.122, -0.366, 0, 23.56, -66, -168.162, -27.853, -14.727, -5.620, 32.72, 0.1954, -0.51242, -0.22537, -0.80521,
 16:09:20.673,e3:ca:2d:fd:e0:8c, 2015-01-01 01:21:56.260, 0.936, -0.081, 0.397, -0.427, 0, 0, -11.245, -66.649, -174.452, -26.120, -11.087, -12.287, 29.55, 0.01337, 0.55026, -0.05508, 0.83301,
 16:09:20.673,e3:ca:2d:fd:e0:8c, 2015-01-01 01:21:56.260, 0.937, -0.079, 0.397, -0.427, 0.061, 0, -11.255, -66.649, -174.452, -26.120, -11.087, -12.287, 29.55, 0.01337, 0.55026, -0.05508, 0.83301,
 16:09:20.674,ed:35:33:d3:6c:f8, 2015-01-01 01:21:46.930, 0.413, 0.209, 0.886, 0.488, -0.549, 0.122, 13.629, -24.538, 172.925, -11.207, -11.953, -22.920, 32.99, -0.03439, -0.21768, -0.10272, -0.96994,
 16:09:20.674,ed:35:33:d3:6c:f8, 2015-01-01 01:21:46.930, 0.414, 0.212, 0.883, 0.916, -0.977, 0.122, 13.64, -24.549, 172.914, -11.207, -11.953, -22.920, 32.99, -0.03439, -0.21768, -0.10272, -0.96994,
 16:09:20.696,ed:35:33:d3:6c:f8, 2015-01-01 01:21:46.930, 0.416, 0.214, 0.88, 1.099, -0.977, 0.061, 13.656, -24.565, 172.903, -11.207, -11.953, -22.920, 32.99, -0.03439, -0.21768, -0.10272, -0.96994,
 16:09:20.696,ed:35:33:d3:6c:f8, 2015-01-01 01:21:46.930, 0.415, 0.214, 0.875, 1.221, -0.854, 0.183, 13.678, -24.587, 172.914, -11.207, -11.953, -22.920, 32.99, -0.03439, -0.21768, -0.10272, -0.96994,
 16:09:20.698,f6:90:cc:01:6d:25, 2015-01-01 01:21:44.565, 0.901, 0.16, 0.367, -0.244, -0.427, 0, 23.56, -66.006, -168.173, -27.853, -14.727, -5.620, 32.72, 0.1954, -0.51242, -0.22537, -0.80521,
 16:09:20.698,f6:90:cc:01:6d:25, 2015-01-01 01:21:44.565, 0.901, 0.162, 0.367, -0.122, -0.366, 0, 23.566, -66.011, -168.179, -27.853, -14.727, -5.620, 32.72, 0.1954, -0.51242, -0.22537, -0.80521,
 16:09:20.716,ed:40:fe:65:30:6c, 2015-01-01 01:21:34.910, 0.565, 0.216, 0.795, 0.977, -0.977, 0, 15.26, -34.42, -126.914, -19.993, -10.840, -4.620, 27.9, 0.45837, -0.20551, -0.24429, -0.82938,
 16:09:20.716,ed:40:fe:65:30:6c, 2015-01-01 01:21:34.910, 0.566, 0.216, 0.794, 0.916, -0.549, 0, 15.276, -34.431, -126.931, -19.993, -10.840, -4.620, 27.9, 0.45837, -0.20551, -0.24429, -0.82938,
 16:09:20.718,e3:ca:2d:fd:e0:8c, 2015-01-01 01:21:56.260, 0.937, -0.078, 0.399, -0.427, 0.183, 0, -11.261, -66.643, -174.452, -26.120, -11.087, -12.287, 29.55, 0.01337, 0.55026, -0.05508, 0.83301,
 16:09:20.718,e3:ca:2d:fd:e0:8c, 2015-01-01 01:21:56.260, 0.936, -0.078, 0.401, -0.305, 0.305, 0, -11.266, -66.638, -174.457, -26.120, -11.087, -12.287, 29.55, 0.01337, 0.55026, -0.05508, 0.83301,
 16:09:20.739,ed:40:fe:65:30:6c, 2015-01-01 01:21:35.245, 0.565, 0.218, 0.795, 0.732, -0.183, 0, 15.293, -34.437, -126.942, -19.993, -10.840, -4.620, 27.9, 0.45837, -0.20551, -0.24429, -0.82938,
 16:09:20.739,ed:40:fe:65:30:6c, 2015-01-01 01:21:35.245, 0.567, 0.22, 0.798, 0.549, 0.061, 0, 15.304, -34.437, -126.947, -19.993, -10.840, -4.620, 27.9, 0.45837, -0.20551, -0.24429, -0.82938,
 16:09:20.742,f6:90:cc:01:6d:25, 2015-01-01 01:21:44.565, 0.901, 0.162, 0.37, -0.244, -0.305, 0, 23.566, -66.017, -168.184, -27.853, -14.727, -5.620, 32.72, 0.19516, -0.51276, -0.22522, -0.80508,
 16:09:20.742,f6:90:cc:01:6d:25, 2015-01-01 01:21:44.565, 0.903, 0.162, 0.37, -0.366, -0.244, 0, 23.56, -66.022, -168.19, -27.853, -14.727, -5.620, 32.72, 0.19516, -0.51276, -0.22522, -0.80508,
 16:09:20.742,ed:35:33:d3:6c:f8, 2015-01-01 01:21:46.930, 0.416, 0.213, 0.876, 0.977, -0.671, 0.183, 13.7, -24.604, 172.996, -11.207, -11.953, -22.920, 32.99, -0.03439, -0.21768, -0.10272, -0.96994,
 16:09:20.742,ed:35:33:d3:6c:f8, 2015-01-01 01:21:46.930, 0.416, 0.215, 0.878, 0.732, -0.488, 0, 13.716, -24.615, 173.095, -11.207, -11.953, -22.920, 32.99, -0.03439, -0.21768, -0.10272, -0.96994,
 16:09:20.762,ed:40:fe:65:30:6c, 2015-01-01 01:21:35.245, 0.568, 0.22, 0.798, 0.244, 0.122, 0, 15.309, -34.437, -126.953, -19.993, -10.840, -4.620, 27.9, 0.45837, -0.20551, -0.24429, -0.82938,
 16:09:20.762,ed:40:fe:65:30:6c, 2015-01-01 01:21:35.245, 0.567, 0.222, 0.798, -0.061, 0, 0, 15.315, -34.431, -126.969, -19.993, -10.840, -4.620, 27.9, 0.45837, -0.20551, -0.24429, -0.82938,
 16:09:20.762,e3:ca:2d:fd:e0:8c, 2015-01-01 01:21:56.260, 0.937, -0.079, 0.401, -0.488, 0.427, 0, -11.272, -66.627, -174.457, -26.120, -11.087, -12.287, 29.55, 0.01337, 0.55026, -0.05508, 0.83301,
 16:09:20.762,e3:ca:2d:fd:e0:8c, 2015-01-01 01:21:56.260, 0.938, -0.079, 0.399, -0.671, 0.488, 0, -11.277, -66.616, -174.463, -26.120, -11.087, -12.287, 29.55, 0.01337, 0.55026, -0.05508, 0.83301,
 16:09:20.764,ed:35:33:d3:6c:f8, 2015-01-01 01:21:46.930, 0.418, 0.216, 0.88, 0.61, -0.244, -0.183, 13.733, -24.62, 173.183, -11.207, -11.953, -22.920, 32.99, -0.03439, -0.21768, -0.10272, -0.96994,
 16:09:20.764,ed:35:33:d3:6c:f8, 2015-01-01 01:21:46.930, 0.418, 0.219, 0.882, 0.122, -0.244, -0.183, 13.744, -24.626, 173.249, -11.207, -11.953, -22.920, 32.99, -0.03439, -0.21768, -0.10272, -0.96994,
 16:09:20.788,f6:90:cc:01:6d:25, 2015-01-01 01:21:44.880, 0.903, 0.161, 0.368, -0.549, -0.244, 0, 23.555, -66.022, -168.195, -27.853, -14.727, -5.620, 32.72, 0.19516, -0.51276, -0.22522, -0.80508,
 16:09:20.788,f6:90:cc:01:6d:25, 2015-01-01 01:21:44.880, 0.903, 0.161, 0.368, -0.61, -0.244, 0, 23.549, -66.028, -168.201, -27.853, -14.727, -5.620, 32.72, 0.19516, -0.51276, -0.22522, -0.80508,
 16:09:20.806,ed:40:fe:65:30:6c, 2015-01-01 01:21:35.245, 0.566, 0.219, 0.799, 0, -0.061, 0, 15.309, -34.431, -126.974, -19.993, -10.840, -4.620, 27.9, 0.45837, -0.20551, -0.24429, -0.82938,
 16:09:20.806,ed:40:fe:65:30:6c, 2015-01-01 01:21:35.245, 0.568, 0.216, 0.796, 0, -0.183, 0.366, 15.309, -34.437, -126.974, -19.993, -10.840, -4.620, 27.9, 0.45837, -0.20551, -0.24429, -0.82938,
 16:09:20.809,ed:35:33:d3:6c:f8, 2015-01-01 01:21:46.930, 0.417, 0.219, 0.882, 0, -0.244, 0, 13.744, -24.631, 173.293, -11.207, -11.953, -22.920, 32.99, -0.03439, -0.21768, -0.10272, -0.96994,
 16:09:20.809,ed:35:33:d3:6c:f8, 2015-01-01 01:21:46.930, 0.418, 0.217, 0.882, 0, -0.122, 0.305, 13.744, -24.637, 173.375, -11.207, -11.953, -22.920, 32.99, -0.03439, -0.21768, -0.10272, -0.96994,
 16:09:20.812,f6:90:cc:01:6d:25, 2015-01-01 01:21:44.880, 0.903, 0.16, 0.366, -0.549, -0.305, 0, 23.544, -66.033, -168.206, -27.853, -14.727, -5.620, 32.72, 0.19516, -0.51276, -0.22522, -0.80508,
 16:09:20.812,f6:90:cc:01:6d:25, 2015-01-01 01:21:44.880, 0.902, 0.159, 0.365, -0.488, -0.244, 0, 23.538, -66.039, -168.212, -27.853, -14.727, -5.620, 32.72, 0.19516, -0.51276, -0.22522, -0.80508,
 16:09:20.831,e3:ca:2d:fd:e0:8c, 2015-01-01 01:21:56.260, 0.937, -0.079, 0.397, -0.671, 0.427, 0, -11.288, -66.61, -174.468, -26.120, -11.087, -12.287, 29.55, 0.01337, 0.55026, -0.05508, 0.83301,
 16:09:20.831,e3:ca:2d:fd:e0:8c, 2015-01-01 01:21:56.260, 0.937, -0.08, 0.396, -0.61, 0.366, 0, -11.294, -66.599, -174.474, -26.120, -11.087, -12.287, 29.55, 0.01337, 0.55026, -0.05508, 0.83301,
 16:09:20.852,ed:40:fe:65:30:6c, 2015-01-01 01:21:35.245, 0.566, 0.218, 0.795, 0.183, 0.061, 0.305, 15.309, -34.437, -126.98, -19.993, -10.840, -4.620, 27.9, 0.45837, -0.20551, -0.24429, -0.82938,
 16:09:20.852,ed:40:fe:65:30:6c, 2015-01-01 01:21:35.245, 0.567, 0.219, 0.796, 0.488, 0, 0.244, 15.315, -34.437, -126.985, -19.993, -10.840, -4.620, 27.9, 0.45837, -0.20551, -0.24429, -0.82938,
 16:09:20.852,e3:ca:2d:fd:e0:8c, 2015-01-01 01:21:56.260, 0.937, -0.08, 0.396, -0.488, 0.366, 0, -11.299, -66.594, -174.474, -26.247, -10.893, -12.593, 29.55, 0.01337, 0.55026, -0.05508, 0.83301,
 16:09:20.852,e3:ca:2d:fd:e0:8c, 2015-01-01 01:21:56.260, 0.937, -0.079, 0.396, -0.244, 0.305, 0, -11.299, -66.588, -174.479, -26.247, -10.893, -12.593, 29.55, 0.01337, 0.55026, -0.05508, 0.83301,
 16:09:20.854,ed:35:33:d3:6c:f8, 2015-01-01 01:21:46.930, 0.417, 0.213, 0.876, -0.061, 0, 0.305, 13.744, -24.637, 173.469, -11.513, -11.800, -22.787, 32.99, -0.03439, -0.21768, -0.10272, -0.96994,
 16:09:20.854,ed:35:33:d3:6c:f8, 2015-01-01 01:21:46.930, 0.418, 0.217, 0.879, 0.305, -0.061, 0.366, 13.738, -24.642, 173.573, -11.513, -11.800, -22.787, 32.99, -0.03439, -0.21768, -0.10272, -0.96994,
 16:09:20.855,f6:90:cc:01:6d:25, 2015-01-01 01:21:44.880, 0.902, 0.162, 0.365, -0.244, -0.366, 0, 23.544, -66.044, -168.217, -27.853, -14.727, -5.620, 32.72, 0.19516, -0.51276, -0.22522, -0.80508,
 16:09:20.855,f6:90:cc:01:6d:25, 2015-01-01 01:21:44.880, 0.902, 0.162, 0.366, -0.183, -0.427, 0, 23.549, -66.05, -168.228, -27.853, -14.727, -5.620, 32.72, 0.19516, -0.51276, -0.22522, -0.80508,
 16:09:20.897,e3:ca:2d:fd:e0:8c, 2015-01-01 01:21:56.260, 0.937, -0.078, 0.395, -0.061, 0.244, 0, -11.299, -66.583, -174.479, -26.247, -10.893, -12.593, 29.55, 0.01337, 0.55026, -0.05508, 0.83301,
 16:09:20.897,e3:ca:2d:fd:e0:8c, 2015-01-01 01:21:56.260, 0.938, -0.078, 0.395, 0.549, 0.061, 0, -11.288, -66.583, -174.479, -26.247, -10.893, -12.593, 29.55, 0.01337, 0.55026, -0.05508, 0.83301,
 16:09:20.899,ed:35:33:d3:6c:f8, 2015-01-01 01:21:46.930, 0.42, 0.215, 0.88, 0.671, -0.183, 0.427, 13.744, -24.642, 173.633, -11.513, -11.800, -22.787, 32.99, -0.03439, -0.21768, -0.10272, -0.96994,
 16:09:20.899,ed:35:33:d3:6c:f8, 2015-01-01 01:21:46.930, 0.419, 0.211, 0.879, 0.671, -0.61, 0.244, 13.755, -24.653, 173.688, -11.513, -11.800, -22.787, 32.99, -0.03439, -0.21768, -0.10272, -0.96994,
 16:09:20.901,f6:90:cc:01:6d:25, 2015-01-01 01:21:44.880, 0.904, 0.16, 0.366, -0.061, -0.671, 0, 23.56, -66.066, -168.239, -27.853, -14.727, -5.620, 32.72, 0.19516, -0.51276, -0.22522, -0.80508,
 16:09:20.901,f6:90:cc:01:6d:25, 2015-01-01 01:21:44.880, 0.905, 0.158, 0.366, -0.244, -0.671, 0, 23.566, -66.077, -168.256, -27.853, -14.727, -5.620, 32.72, 0.19516, -0.51276, -0.22522, -0.80508,
 16:09:20.920,e3:ca:2d:fd:e0:8c, 2015-01-01 01:21:56.260, 0.938, -0.08, 0.392, 1.343, -0.122, 0, -11.261, -66.583, -174.518, -26.247, -10.893, -12.593, 29.55, 0.01398, 0.54953, -0.05585, 0.83344,
 16:09:20.920,e3:ca:2d:fd:e0:8c, 2015-01-01 01:21:56.260, 0.944, -0.081, 0.378, 2.319, -0.427, 0, -11.223, -66.594, -174.534, -26.247, -10.893, -12.593, 29.55, 0.01398, 0.54953, -0.05585, 0.83344,
 16:09:20.920,ed:40:fe:65:30:6c, 2015-01-01 01:21:35.245, 0.568, 0.216, 0.795, 0.549, -0.183, 0.244, 15.32, -34.442, -126.991, -19.993, -10.840, -4.620, 27.9, 0.45837, -0.20551, -0.24429, -0.82938,
 16:09:20.920,ed:40:fe:65:30:6c, 2015-01-01 01:21:35.245, 0.565, 0.215, 0.793, 0.305, -0.61, 0.122, 15.326, -34.453, -127.007, -19.993, -10.840, -4.620, 27.9, 0.45837, -0.20551, -0.24429, -0.82938,
 16:09:20.922,ed:35:33:d3:6c:f8, 2015-01-01 01:21:46.930, 0.415, 0.214, 0.88, 0.61, -1.343, 0, 13.771, -24.67, 173.738, -11.513, -11.800, -22.787, 32.99, -0.0278, -0.21805, -0.10516, -0.96979,
 16:09:20.922,ed:35:33:d3:6c:f8, 2015-01-01 01:21:46.930, 0.418, 0.215, 0.881, 1.16, -1.343, 0.305, 13.788, -24.697, 173.749, -11.513, -11.800, -22.787, 32.99, -0.0278, -0.21805, -0.10516, -0.96979,
 16:09:20.942,ed:40:fe:65:30:6c, 2015-01-01 01:21:35.245, 0.566, 0.215, 0.797, 0.61, -1.16, 0.366, 15.337, -34.475, -127.013, -19.693, -10.833, -4.713, 27.9, 0.45837, -0.20551, -0.24429, -0.82938,
 16:09:20.942,ed:40:fe:65:30:6c, 2015-01-01 01:21:35.245, 0.569, 0.216, 0.8, 2.258, -1.16, 0.671, 15.37, -34.497, -127.013, -19.693, -10.833, -4.713, 27.9, 0.45837, -0.20551, -0.24429, -0.82938,
 16:09:20.947,f6:90:cc:01:6d:25, 2015-01-01 01:21:44.880, 0.91, 0.159, 0.36, -0.244, -1.343, 0, 23.588, -66.099, -168.327, -27.853, -14.727, -5.620, 32.72, 0.19516, -0.51276, -0.22522, -0.80508,
 16:09:20.947,f6:90:cc:01:6d:25, 2015-01-01 01:21:44.880, 0.911, 0.162, 0.359, 0.549, -2.625, 0, 23.648, -66.149, -168.431, -27.853, -14.727, -5.620, 32.72, 0.19516, -0.51276, -0.22522, -0.80508,
 16:09:20.966,e3:ca:2d:fd:e0:8c, 2015-01-01 01:21:56.260, 0.946, -0.078, 0.393, 4.15, -0.549, 0, -11.146, -66.61, -174.54, -26.247, -10.893, -12.593, 29.55, 0.01398, 0.54953, -0.05585, 0.83344,
 16:09:20.966,e3:ca:2d:fd:e0:8c, 2015-01-01 01:21:56.260, 0.943, -0.071, 0.405, 5.249, 0.122, 0.366, -11.058, -66.61, -174.54, -26.247, -10.893, -12.593, 29.55, 0.01398, 0.54953, -0.05585, 0.83344,
 16:09:20.987,ed:40:fe:65:30:6c, 2015-01-01 01:21:35.245, 0.564, 0.223, 0.804, 4.578, -1.526, 0.549, 15.447, -34.53, -127.024, -19.693, -10.833, -4.713, 27.9, 0.45837, -0.20551, -0.24429, -0.82938,
 16:09:20.987,ed:40:fe:65:30:6c, 2015-01-01 01:21:35.245, 0.564, 0.222, 0.805, 6.287, -2.686, -0.122, 15.568, -34.574, -127.051, -19.693, -10.833, -4.713, 27.9, 0.45837, -0.20551, -0.24429, -0.82938,
 16:09:20.991,f6:90:cc:01:6d:25, 2015-01-01 01:21:44.880, 0.907, 0.173, 0.363, 2.563, -3.052, 0.366, 23.741, -66.209, -168.53, -28.147, -14.740, -5.553, 32.72, 0.19516, -0.51276, -0.22522, -0.80508,
 16:09:20.991,f6:90:cc:01:6d:25, 2015-01-01 01:21:44.880, 0.903, 0.181, 0.367, 4.578, -2.991, 0.793, 23.862, -66.27, -168.607, -28.147, -14.740, -5.553, 32.72, 0.19516, -0.51276, -0.22522, -0.80508,
 16:09:21.010,ed:40:fe:65:30:6c, 2015-01-01 01:21:35.245, 0.563, 0.215, 0.804, 6.714, -4.028, -1.282, 15.721, -34.634, -127.117, -19.693, -10.833, -4.713, 27.9, 0.45761, -0.20587, -0.24759, -0.82874,
 16:09:21.010,ed:40:fe:65:30:6c, 2015-01-01 01:21:35.245, 0.562, 0.213, 0.795, 6.042, -4.089, -1.648, 15.875, -34.7, -127.194, -19.693, -10.833, -4.713, 27.9, 0.45761, -0.20587, -0.24759, -0.82874,
 16:09:21.011,ed:35:33:d3:6c:f8, 2015-01-01 01:21:46.930, 0.417, 0.218, 0.884, 2.747, -0.793, 0.793, 13.815, -24.725, 173.776, -11.513, -11.800, -22.787, 32.99, -0.0278, -0.21805, -0.10516, -0.96979,
 16:09:21.011,ed:35:33:d3:6c:f8, 2015-01-01 01:21:46.930, 0.413, 0.219, 0.891, 4.517, -0.732, 0.488, 13.87, -24.741, 173.809, -11.513, -11.800, -22.787, 32.99, -0.0278, -0.21805, -0.10516, -0.96979,
 16:09:21.013,f6:90:cc:01:6d:25, 2015-01-01 01:21:44.880, 0.898, 0.166, 0.371, 4.272, -2.502, 0.427, 23.983, -66.319, -168.684, -28.147, -14.740, -5.553, 32.72, 0.19373, -0.51532, -0.22586, -0.80359,
 16:09:21.013,f6:90:cc:01:6d:25, 2015-01-01 01:21:44.880, 0.894, 0.149, 0.37, 2.686, -2.075, 0, 24.077, -66.352, -168.772, -28.147, -14.740, -5.553, 32.72, 0.19373, -0.51532, -0.22586, -0.80359,
 16:09:21.033,e3:ca:2d:fd:e0:8c, 2015-01-01 01:21:56.615, 0.937, -0.064, 0.408, 4.883, 0.488, 0.854, -10.992, -66.599, -174.534, -26.247, -10.893, -12.593, 29.55, 0.01398, 0.54953, -0.05585, 0.83344,
 16:09:21.033,e3:ca:2d:fd:e0:8c, 2015-01-01 01:21:56.615, 0.925, -0.069, 0.411, 2.991, 0.427, 0.732, -10.959, -66.588, -174.545, -26.247, -10.893, -12.593, 29.55, 0.01398, 0.54953, -0.05585, 0.83344,
 16:09:21.034,ed:35:33:d3:6c:f8, 2015-01-01 01:21:47.310, 0.415, 0.21, 0.895, 5.859, -1.404, -0.305, 13.969, -24.758, 173.859, -11.513, -11.800, -22.787, 32.99, -0.0278, -0.21805, -0.10516, -0.96979,
 16:09:21.034,ed:35:33:d3:6c:f8, 2015-01-01 01:21:47.310, 0.412, 0.206, 0.883, 5.92, -1.709, -1.221, 14.09, -24.785, 173.897, -11.513, -11.800, -22.787, 32.99, -0.0278, -0.21805, -0.10516, -0.96979,
 16:09:21.054,ed:40:fe:65:30:6c, 2015-01-01 01:21:35.245, 0.562, 0.224, 0.793, 5.493, -3.601, -1.282, 16.013, -34.761, -127.26, -19.693, -10.833, -4.713, 27.9, 0.45761, -0.20587, -0.24759, -0.82874,
 16:09:21.054,ed:40:fe:65:30:6c, 2015-01-01 01:21:35.245, 0.566, 0.225, 0.792, 5.127, -2.991, -0.732, 16.128, -34.81, -127.31, -19.693, -10.833, -4.713, 27.9, 0.45761, -0.20587, -0.24759, -0.82874,
 16:09:21.054,e3:ca:2d:fd:e0:8c, 2015-01-01 01:21:56.615, 0.921, -0.083, 0.408, 1.404, 0.183, 0.366, -10.942, -66.583, -174.551, -26.247, -10.893, -12.593, 29.55, 0.01398, 0.54953, -0.05585, 0.83344,
 16:09:21.054,e3:ca:2d:fd:e0:8c, 2015-01-01 01:21:56.615, 0.923, -0.087, 0.406, 0.549, -0.122, 0.244, -10.942, -66.583, -174.534, -26.247, -10.893, -12.593, 29.55, 0.01398, 0.54953, -0.05585, 0.83344,
 16:09:21.057,ed:35:33:d3:6c:f8, 2015-01-01 01:21:47.310, 0.41, 0.218, 0.875, 5.676, -1.892, -0.916, 14.211, -24.807, 173.914, -11.513, -11.800, -22.787, 32.99, -0.0278, -0.21805, -0.10516, -0.96979,
 16:09:21.057,ed:35:33:d3:6c:f8, 2015-01-01 01:21:47.310, 0.413, 0.225, 0.874, 5.371, -1.587, -0.183, 14.326, -24.84, 173.925, -11.513, -11.800, -22.787, 32.99, -0.0278, -0.21805, -0.10516, -0.96979,
 16:09:21.059,f6:90:cc:01:6d:25, 2015-01-01 01:21:44.880, 0.896, 0.147, 0.366, 1.648, -1.77, 0.122, 24.131, -66.379, -168.843, -28.147, -14.740, -5.553, 32.72, 0.19373, -0.51532, -0.22586, -0.80359,
 16:09:21.059,f6:90:cc:01:6d:25, 2015-01-01 01:21:44.880, 0.901, 0.146, 0.368, 1.221, -1.343, 0.244, 24.164, -66.407, -168.909, -28.147, -14.740, -5.553, 32.72, 0.19373, -0.51532, -0.22586, -0.80359,
 16:09:21.078,e3:ca:2d:fd:e0:8c, 2015-01-01 01:21:56.615, 0.93, -0.085, 0.404, 0.61, -0.61, 0.122, -10.942, -66.588, -174.529, -26.247, -10.893, -12.593, 29.55, 0.01398, 0.54953, -0.05585, 0.83344,
 16:09:21.078,e3:ca:2d:fd:e0:8c, 2015-01-01 01:21:56.615, 0.934, -0.084, 0.402, 1.038, -0.916, -0.183, -10.926, -66.599, -174.529, -26.247, -10.893, -12.593, 29.55, 0.01398, 0.54953, -0.05585, 0.83344,
 16:09:21.078,ed:35:33:d3:6c:f8, 2015-01-01 01:21:47.310, 0.418, 0.223, 0.87, 5.31, -1.099, 0.427, 14.431, -24.862, 173.914, -11.513, -11.800, -22.787, 32.99, -0.0278, -0.21805, -0.10516, -0.96979,
 16:09:21.078,ed:35:33:d3:6c:f8, 2015-01-01 01:21:47.310, 0.421, 0.22, 0.868, 4.395, -0.732, 0.916, 14.524, -24.884, 173.958, -11.513, -11.800, -22.787, 32.99, -0.0278, -0.21805, -0.10516, -0.96979,
 16:09:21.102,f6:90:cc:01:6d:25, 2015-01-01 01:21:45.170, 0.904, 0.148, 0.363, 0.916, -0.977, 0.061, 24.181, -66.418, -168.959, -28.147, -14.740, -5.553, 32.72, 0.19373, -0.51532, -0.22586, -0.80359,
 16:09:21.102,f6:90:cc:01:6d:25, 2015-01-01 01:21:45.170, 0.907, 0.152, 0.361, 1.099, -0.916, -0.183, 24.214, -66.429, -169.019, -28.147, -14.740, -5.553, 32.72, 0.19373, -0.51532, -0.22586, -0.80359,
 16:09:21.102,ed:35:33:d3:6c:f8, 2015-01-01 01:21:47.310, 0.424, 0.223, 0.874, 3.662, -0.244, 1.16, 14.59, -24.895, 173.969, -11.513, -11.800, -22.787, 32.99, -0.0278, -0.21805, -0.10516, -0.96979,
 16:09:21.102,ed:35:33:d3:6c:f8, 2015-01-01 01:21:47.310, 0.425, 0.229, 0.877, 3.235, 0.122, 1.709, 14.645, -24.906, 173.979, -11.513, -11.800, -22.787, 32.99, -0.0278, -0.21805, -0.10516, -0.96979,
 16:09:21.122,ed:40:fe:65:30:6c, 2015-01-01 01:21:35.580, 0.571, 0.222, 0.786, 4.822, -2.136, -0.061, 16.232, -34.849, -127.343, -19.693, -10.833, -4.713, 27.9, 0.45761, -0.20587, -0.24759, -0.82874,
 16:09:21.122,ed:40:fe:65:30:6c, 2015-01-01 01:21:35.580, 0.574, 0.223, 0.789, 3.967, -0.977, 0.183, 16.309, -34.871, -127.359, -19.693, -10.833, -4.713, 27.9, 0.45761, -0.20587, -0.24759, -0.82874,
 16:09:21.123,e3:ca:2d:fd:e0:8c, 2015-01-01 01:21:56.615, 0.935, -0.081, 0.401, 1.16, -0.977, -0.366, -10.898, -66.616, -174.534, -26.247, -10.893, -12.593, 29.55, 0.01398, 0.54953, -0.05585, 0.83344,
 16:09:21.124,e3:ca:2d:fd:e0:8c, 2015-01-01 01:21:56.615, 0.937, -0.081, 0.403, 1.282, -1.038, -0.427, -10.871, -66.638, -174.556, -26.247, -10.893, -12.593, 29.55, 0.01398, 0.54953, -0.05585, 0.83344,
 16:09:21.144,ed:40:fe:65:30:6c, 2015-01-01 01:21:35.580, 0.578, 0.226, 0.792, 3.601, -0.427, 0.61, 16.37, -34.876, -127.37, -19.693, -10.833, -4.713, 27.9, 0.45761, -0.20587, -0.24759, -0.82874,
 16:09:21.144,ed:40:fe:65:30:6c, 2015-01-01 01:21:35.580, 0.578, 0.232, 0.792, 3.479, -0.244, 1.099, 16.419, -34.887, -127.365, -19.693, -10.833, -4.713, 27.9, 0.45761, -0.20587, -0.24759, -0.82874,
 16:09:21.148,f6:90:cc:01:6d:25, 2015-01-01 01:21:45.170, 0.907, 0.158, 0.364, 0.916, -0.854, -0.488, 24.252, -66.44, -169.074, -28.147, -14.740, -5.553, 32.72, 0.19373, -0.51532, -0.22586, -0.80359,
 16:09:21.148,f6:90:cc:01:6d:25, 2015-01-01 01:21:45.170, 0.909, 0.16, 0.362, 0.61, -0.671, -0.427, 24.291, -66.451, -169.129, -28.147, -14.740, -5.553, 32.72, 0.19373, -0.51532, -0.22586, -0.80359,
 16:09:21.148,ed:35:33:d3:6c:f8, 2015-01-01 01:21:47.310, 0.424, 0.232, 0.879, 3.296, 0.549, 2.197, 14.683, -24.906, 174.034, -11.513, -11.800, -22.787, 32.99, -0.0278, -0.21805, -0.10516, -0.96979,
 16:09:21.148,ed:35:33:d3:6c:f8, 2015-01-01 01:21:47.310, 0.425, 0.231, 0.88, 3.296, 0.427, 2.38, 14.722, -24.906, 174.117, -11.513, -11.800, -22.787, 32.99, -0.0278, -0.21805, -0.10516, -0.96979,
 16:09:21.166,ed:40:fe:65:30:6c, 2015-01-01 01:21:35.580, 0.577, 0.234, 0.792, 3.601, -0.244, 1.343, 16.463, -34.893, -127.354, -19.693, -10.833, -4.713, 27.9, 0.45761, -0.20587, -0.24759, -0.82874,
 16:09:21.166,ed:40:fe:65:30:6c, 2015-01-01 01:21:35.580, 0.576, 0.236, 0.788, 3.235, -0.732, 1.221, 16.512, -34.909, -127.348, -19.693, -10.833, -4.713, 27.9, 0.45761, -0.20587, -0.24759, -0.82874,
 16:09:21.191,e3:ca:2d:fd:e0:8c, 2015-01-01 01:21:56.615, 0.938, -0.079, 0.403, 1.221, -1.282, -0.488, -10.838, -66.66, -174.573, -26.247, -10.893, -12.593, 29.55, 0.01398, 0.54953, -0.05585, 0.83344,
 16:09:21.191,e3:ca:2d:fd:e0:8c, 2015-01-01 01:21:56.615, 0.939, -0.079, 0.401, 1.221, -1.221, -0.488, -10.811, -66.676, -174.589, -26.247, -10.893, -12.593, 29.55, 0.01398, 0.54953, -0.05585, 0.83344,
 16:09:21.192,f6:90:cc:01:6d:25, 2015-01-01 01:21:45.170, 0.908, 0.162, 0.358, 0.305, -0.427, -0.305, 24.318, -66.456, -169.184, -28.147, -14.740, -5.553, 32.72, 0.19373, -0.51532, -0.22586, -0.80359,
 16:09:21.192,f6:90:cc:01:6d:25, 2015-01-01 01:21:45.170, 0.905, 0.162, 0.355, -0.061, 0.122, -0.061, 24.329, -66.456, -169.239, -28.147, -14.740, -5.553, 32.72, 0.19373, -0.51532, -0.22586, -0.80359,
 16:09:21.211,ed:40:fe:65:30:6c, 2015-01-01 01:21:35.580, 0.575, 0.237, 0.786, 2.93, -0.671, 1.221, 16.551, -34.931, -127.343, -19.693, -10.833, -4.713, 27.9, 0.45761, -0.20587, -0.24759, -0.82874,
 16:09:21.211,ed:40:fe:65:30:6c, 2015-01-01 01:21:35.580, 0.576, 0.237, 0.782, 3.418, -0.305, 1.465, 16.595, -34.942, -127.326, -19.693, -10.833, -4.713, 27.9, 0.45761, -0.20587, -0.24759, -0.82874,
 16:09:21.212,e3:ca:2d:fd:e0:8c, 2015-01-01 01:21:56.615, 0.938, -0.078, 0.401, 0.793, -0.854, -0.61, -10.778, -66.693, -174.617, -26.000, -11.020, -12.427, 29.55, 0.01398, 0.54953, -0.05585, 0.83344,
 16:09:21.212,e3:ca:2d:fd:e0:8c, 2015-01-01 01:21:56.615, 0.937, -0.077, 0.399, 0.427, -0.671, -0.671, -10.75, -66.703, -174.639, -26.000, -11.020, -12.427, 29.55, 0.01398, 0.54953, -0.05585, 0.83344,
 16:09:21.214,ed:35:33:d3:6c:f8, 2015-01-01 01:21:47.310, 0.424, 0.234, 0.873, 2.869, 0.061, 2.014, 14.76, -24.911, 174.183, -11.513, -11.800, -22.787, 32.99, -0.0278, -0.21805, -0.10516, -0.96979,
 16:09:21.214,ed:35:33:d3:6c:f8, 2015-01-01 01:21:47.310, 0.423, 0.236, 0.869, 2.93, 0.488, 2.136, 14.799, -24.917, 174.221, -11.513, -11.800, -22.787, 32.99, -0.0278, -0.21805, -0.10516, -0.96979,
 16:09:21.238,ed:35:33:d3:6c:f8, 2015-01-01 01:21:47.310, 0.424, 0.235, 0.865, 3.052, 1.038, 2.502, 14.832, -24.922, 174.293, -10.920, -12.680, -22.280, 32.99, -0.0278, -0.21805, -0.10516, -0.96979,
 16:09:21.238,ed:35:33:d3:6c:f8, 2015-01-01 01:21:47.310, 0.424, 0.236, 0.864, 2.625, 1.221, 2.686, 14.865, -24.911, 174.359, -10.920, -12.680, -22.280, 32.99, -0.0278, -0.21805, -0.10516, -0.96979,
 16:09:21.240,f6:90:cc:01:6d:25, 2015-01-01 01:21:45.170, 0.907, 0.163, 0.352, -0.488, 0.793, 0.061, 24.313, -66.451, -169.261, -28.147, -14.740, -5.553, 32.72, 0.19373, -0.51532, -0.22586, -0.80359,
 16:09:21.240,f6:90:cc:01:6d:25, 2015-01-01 01:21:45.170, 0.917, 0.165, 0.342, -2.319, 1.099, 0.427, 24.263, -66.44, -169.255, -28.147, -14.740, -5.553, 32.72, 0.19373, -0.51532, -0.22586, -0.80359,
 16:09:21.257,e3:ca:2d:fd:e0:8c, 2015-01-01 01:21:56.615, 0.942, -0.076, 0.396, 0.061, -0.366, -0.61, -10.728, -66.709, -174.655, -26.000, -11.020, -12.427, 29.55, 0.01398, 0.54953, -0.05585, 0.83344,
 16:09:21.257,e3:ca:2d:fd:e0:8c, 2015-01-01 01:21:56.615, 0.958, -0.073, 0.393, -0.244, 0.366, -0.854, -10.695, -66.703, -174.688, -26.000, -11.020, -12.427, 29.55, 0.01398, 0.54953, -0.05585, 0.83344,
 16:09:21.259,f6:90:cc:01:6d:25, 2015-01-01 01:21:45.170, 0.923, 0.174, 0.343, -6.653, 0.488, 1.465, 24.148, -66.429, -169.217, -28.147, -14.740, -5.553, 32.72, 0.19373, -0.51532, -0.22586, -0.80359,
 16:09:21.259,f6:90:cc:01:6d:25, 2015-01-01 01:21:45.170, 0.909, 0.165, 0.359, -2.075, -0.671, 0.305, 23.994, -66.44, -169.184, -28.147, -14.740, -5.553, 32.72, 0.19373, -0.51532, -0.22586, -0.80359,
 16:09:21.279,ed:40:fe:65:30:6c, 2015-01-01 01:21:35.580, 0.575, 0.238, 0.778, 3.296, 0, 1.709, 16.639, -34.953, -127.31, -19.693, -10.833, -4.713, 27.9, 0.45761, -0.20587, -0.24759, -0.82874,
 16:09:21.279,ed:40:fe:65:30:6c, 2015-01-01 01:21:35.580, 0.581, 0.238, 0.777, 3.235, -0.122, 1.953, 16.677, -34.964, -127.271, -19.693, -10.833, -4.713, 27.9, 0.45761, -0.20587, -0.24759, -0.82874,
 16:09:21.280,e3:ca:2d:fd:e0:8c, 2015-01-01 01:21:56.615, 0.947, -0.067, 0.39, -1.587, 3.052, -1.831, -10.618, -66.649, -174.787, -26.000, -11.020, -12.427, 29.55, 0.01276, 0.55029, -0.0524, 0.83316,
 16:09:21.280,e3:ca:2d:fd:e0:8c, 2015-01-01 01:21:56.615, 0.938, -0.069, 0.385, -2.625, 3.296, -2.563, -10.53, -66.599, -174.924, -26.000, -11.020, -12.427, 29.55, 0.01276, 0.55029, -0.0524, 0.83316,
 16:09:21.301,ed:40:fe:65:30:6c, 2015-01-01 01:21:35.580, 0.577, 0.237, 0.786, 4.333, 0.549, 2.258, 16.727, -34.975, -127.227, -19.973, -11.153, -3.993, 27.9, 0.45761, -0.20587, -0.24759, -0.82874,
 16:09:21.301,ed:40:fe:65:30:6c, 2015-01-01 01:21:35.580, 0.571, 0.233, 0.785, 5.737, 0.916, 3.296, 16.787, -34.975, -127.156, -19.973, -11.153, -3.993, 27.9, 0.45761, -0.20587, -0.24759, -0.82874,
 16:09:21.303,ed:35:33:d3:6c:f8, 2015-01-01 01:21:47.310, 0.428, 0.238, 0.867, 2.747, 1.404, 2.991, 14.886, -24.906, 174.446, -10.920, -12.680, -22.280, 32.99, -0.0278, -0.21805, -0.10516, -0.96979,
 16:09:21.303,ed:35:33:d3:6c:f8, 2015-01-01 01:21:47.310, 0.417, 0.237, 0.875, 3.967, 2.197, 3.967, 14.914, -24.895, 174.523, -10.920, -12.680, -22.280, 32.99, -0.0278, -0.21805, -0.10516, -0.96979,
 16:09:21.306,f6:90:cc:01:6d:25, 2015-01-01 01:21:45.170, 0.899, 0.147, 0.353, -1.282, 0.977, -0.793, 23.967, -66.445, -169.222, -28.447, -14.773, -4.873, 32.72, 0.19373, -0.51532, -0.22586, -0.80359,
 16:09:21.306,f6:90:cc:01:6d:25, 2015-01-01 01:21:45.170, 0.889, 0.156, 0.369, -0.671, 0, -1.465, 23.978, -66.429, -169.316, -28.447, -14.773, -4.873, 32.72, 0.19373, -0.51532, -0.22586, -0.80359,
 16:09:21.325,e3:ca:2d:fd:e0:8c, 2015-01-01 01:21:56.615, 0.929, -0.076, 0.396, -1.587, 0.977, -2.197, -10.453, -66.588, -175.04, -26.000, -11.020, -12.427, 29.55, 0.01276, 0.55029, -0.0524, 0.83316,
 16:09:21.325,e3:ca:2d:fd:e0:8c, 2015-01-01 01:21:56.615, 0.921, -0.072, 0.403, -1.404, -0.244, -1.892, -10.404, -66.605, -175.15, -26.000, -11.020, -12.427, 29.55, 0.01276, 0.55029, -0.0524, 0.83316,
 16:09:21.326,ed:35:33:d3:6c:f8, 2015-01-01 01:21:47.310, 0.417, 0.234, 0.876, 4.7, 2.075, 5.188, 14.958, -24.879, 174.606, -10.920, -12.680, -22.280, 32.99, -0.0181, -0.21945, -0.11652, -0.96841,
 16:09:21.326,ed:35:33:d3:6c:f8, 2015-01-01 01:21:47.310, 0.417, 0.225, 0.888, 5.31, 2.563, 5.92, 15.002, -24.868, 174.732, -10.920, -12.680, -22.280, 32.99, -0.0181, -0.21945, -0.11652, -0.96841,
 16:09:21.347,ed:40:fe:65:30:6c, 2015-01-01 01:21:35.580, 0.574, 0.23, 0.794, 6.409, 0.305, 4.517, 16.848, -34.991, -127.068, -19.973, -11.153, -3.993, 27.9, 0.45761, -0.20587, -0.24759, -0.82874,
 16:09:21.347,ed:40:fe:65:30:6c, 2015-01-01 01:21:35.580, 0.569, 0.233, 0.798, 7.202, 0.366, 4.395, 16.924, -35.008, -126.974, -19.973, -11.153, -3.993, 27.9, 0.45761, -0.20587, -0.24759, -0.82874,
 16:09:21.351,f6:90:cc:01:6d:25, 2015-01-01 01:21:45.170, 0.898, 0.162, 0.369, 1.038, -0.854, -1.221, 24.038, -66.429, -169.437, -28.447, -14.773, -4.873, 32.72, 0.19373, -0.51532, -0.22586, -0.80359,
 16:09:21.351,f6:90:cc:01:6d:25, 2015-01-01 01:21:45.170, 0.9, 0.164, 0.359, 0.427, -0.732, -0.916, 24.115, -66.434, -169.541, -28.447, -14.773, -4.873, 32.72, 0.19373, -0.51532, -0.22586, -0.80359,
 16:09:21.369,ed:40:fe:65:30:6c, 2015-01-01 01:21:35.580, 0.572, 0.237, 0.783, 7.019, -3.174, 3.174, 17.023, -35.074, -126.936, -19.973, -11.153, -3.993, 27.9, 0.46094, -0.20352, -0.25885, -0.82401,
 16:09:21.369,ed:40:fe:65:30:6c, 2015-01-01 01:21:35.580, 0.572, 0.238, 0.785, 6.592, -4.089, 2.136, 17.133, -35.156, -126.925, -19.973, -11.153, -3.993, 27.9, 0.46094, -0.20352, -0.25885, -0.82401,
 16:09:21.370,e3:ca:2d:fd:e0:8c, 2015-01-01 01:21:56.975, 0.931, -0.069, 0.406, -0.366, -0.732, -1.099, -10.366, -66.621, -175.221, -26.000, -11.020, -12.427, 29.55, 0.01276, 0.55029, -0.0524, 0.83316,
 16:09:21.370,e3:ca:2d:fd:e0:8c, 2015-01-01 01:21:56.975, 0.933, -0.072, 0.402, 0.122, -1.038, -1.038, -10.322, -66.643, -175.281, -26.000, -11.020, -12.427, 29.55, 0.01276, 0.55029, -0.0524, 0.83316,
 16:09:21.371,ed:35:33:d3:6c:f8, 2015-01-01 01:21:47.310, 0.415, 0.224, 0.891, 5.859, 2.136, 4.761, 15.051, -24.846, 174.853, -10.920, -12.680, -22.280, 32.99, -0.0181, -0.21945, -0.11652, -0.96841,
 16:09:21.371,ed:35:33:d3:6c:f8, 2015-01-01 01:21:47.310, 0.415, 0.227, 0.877, 5.615, 0.488, 3.113, 15.117, -24.84, 174.974, -10.920, -12.680, -22.280, 32.99, -0.0181, -0.21945, -0.11652, -0.96841,
 16:09:21.394,ed:35:33:d3:6c:f8, 2015-01-01 01:21:47.715, 0.417, 0.232, 0.866, 5.676, 0.916, 2.197, 15.2, -24.84, 175.078, -10.920, -12.680, -22.280, 32.99, -0.0181, -0.21945, -0.11652, -0.96841,
 16:09:21.394,ed:35:33:d3:6c:f8, 2015-01-01 01:21:47.715, 0.42, 0.237, 0.861, 5.31, 1.343, 1.526, 15.282, -24.835, 175.177, -10.920, -12.680, -22.280, 32.99, -0.0181, -0.21945, -0.11652, -0.96841,
 16:09:21.395,f6:90:cc:01:6d:25, 2015-01-01 01:21:45.170, 0.901, 0.162, 0.361, 0.366, -0.427, -0.671, 24.17, -66.44, -169.629, -28.447, -14.773, -4.873, 32.72, 0.18848, -0.51755, -0.22284, -0.80426,
 16:09:21.395,f6:90:cc:01:6d:25, 2015-01-01 01:21:45.170, 0.903, 0.163, 0.363, 0.061, -0.061, -0.488, 24.208, -66.44, -169.7, -28.447, -14.773, -4.873, 32.72, 0.18848, -0.51755, -0.22284, -0.80426,
 16:09:21.415,e3:ca:2d:fd:e0:8c, 2015-01-01 01:21:56.975, 0.935, -0.071, 0.405, -0.244, -0.916, -0.671, -10.289, -66.665, -175.342, -26.000, -11.020, -12.427, 29.55, 0.01276, 0.55029, -0.0524, 0.83316,
 16:09:21.415,e3:ca:2d:fd:e0:8c, 2015-01-01 01:21:56.975, 0.934, -0.07, 0.4, -0.671, -0.671, -0.732, -10.272, -66.682, -175.38, -26.000, -11.020, -12.427, 29.55, 0.01276, 0.55029, -0.0524, 0.83316,
 16:09:21.417,f6:90:cc:01:6d:25, 2015-01-01 01:21:45.525, 0.903, 0.164, 0.358, -0.305, 0.244, -0.305, 24.225, -66.434, -169.75, -28.447, -14.773, -4.873, 32.72, 0.18848, -0.51755, -0.22284, -0.80426,
 16:09:21.417,f6:90:cc:01:6d:25, 2015-01-01 01:21:45.525, 0.904, 0.162, 0.359, -0.61, 0.671, -0.061, 24.219, -66.423, -169.783, -28.447, -14.773, -4.873, 32.72, 0.18848, -0.51755, -0.22284, -0.80426,
 16:09:21.436,ed:40:fe:65:30:6c, 2015-01-01 01:21:35.580, 0.577, 0.241, 0.774, 6.47, -3.662, 1.526, 17.249, -35.239, -126.936, -19.973, -11.153, -3.993, 27.9, 0.46094, -0.20352, -0.25885, -0.82401,
 16:09:21.436,ed:40:fe:65:30:6c, 2015-01-01 01:21:35.580, 0.581, 0.249, 0.771, 5.249, -2.991, 0.854, 17.353, -35.299, -126.953, -19.973, -11.153, -3.993, 27.9, 0.46094, -0.20352, -0.25885, -0.82401,
 16:09:21.438,e3:ca:2d:fd:e0:8c, 2015-01-01 01:21:56.975, 0.936, -0.071, 0.402, -0.549, -0.366, -0.732, -10.256, -66.693, -175.408, -26.000, -11.020, -12.427, 29.55, 0.01276, 0.55029, -0.0524, 0.83316,
 16:09:21.438,e3:ca:2d:fd:e0:8c, 2015-01-01 01:21:56.975, 0.936, -0.07, 0.399, -0.427, -0.061, -0.549, -10.234, -66.698, -175.452, -26.000, -11.020, -12.427, 29.55, 0.01276, 0.55029, -0.0524, 0.83316,
 16:09:21.461,ed:40:fe:65:30:6c, 2015-01-01 01:21:35.935, 0.583, 0.252, 0.772, 3.296, -1.892, 0.244, 17.43, -35.338, -126.969, -19.973, -11.153, -3.993, 27.9, 0.46094, -0.20352, -0.25885, -0.82401,
 16:09:21.461,ed:40:fe:65:30:6c, 2015-01-01 01:21:35.935, 0.585, 0.255, 0.768, 1.526, -1.16, 0, 17.468, -35.365, -126.991, -19.973, -11.153, -3.993, 27.9, 0.46094, -0.20352, -0.25885, -0.82401,
 16:09:21.461,ed:35:33:d3:6c:f8, 2015-01-01 01:21:47.715, 0.422, 0.244, 0.863, 3.479, 0.977, 0.854, 15.359, -24.818, 175.237, -10.920, -12.680, -22.280, 32.99, -0.0181, -0.21945, -0.11652, -0.96841,
 16:09:21.461,ed:35:33:d3:6c:f8, 2015-01-01 01:21:47.715, 0.424, 0.248, 0.861, 1.648, 0.854, 0.366, 15.408, -24.802, 175.309, -10.920, -12.680, -22.280, 32.99, -0.0181, -0.21945, -0.11652, -0.96841,
 16:09:21.462,f6:90:cc:01:6d:25, 2015-01-01 01:21:45.525, 0.904, 0.165, 0.356, -0.854, 1.16, 0.122, 24.192, -66.412, -169.794, -28.447, -14.773, -4.873, 32.72, 0.18848, -0.51755, -0.22284, -0.80426,
 16:09:21.462,f6:90:cc:01:6d:25, 2015-01-01 01:21:45.525, 0.903, 0.164, 0.359, -0.427, 1.099, 0.305, 24.153, -66.39, -169.799, -28.447, -14.773, -4.873, 32.72, 0.18848, -0.51755, -0.22284, -0.80426,
 16:09:21.483,e3:ca:2d:fd:e0:8c, 2015-01-01 01:21:56.975, 0.936, -0.069, 0.399, -0.122, 0, -0.244, -10.217, -66.698, -175.49, -26.000, -11.020, -12.427, 29.55, 0.01276, 0.55029, -0.0524, 0.83316,
 16:09:21.483,e3:ca:2d:fd:e0:8c, 2015-01-01 01:21:56.975, 0.938, -0.069, 0.397, 0.122, 0, 0, -10.212, -66.698, -175.518, -26.000, -11.020, -12.427, 29.55, 0.01276, 0.55029, -0.0524, 0.83316,
 16:09:21.485,ed:35:33:d3:6c:f8, 2015-01-01 01:21:47.715, 0.423, 0.252, 0.864, 0.549, 0.549, 0.305, 15.425, -24.791, 175.364, -10.920, -12.680, -22.280, 32.99, -0.0181, -0.21945, -0.11652, -0.96841,
 16:09:21.485,ed:35:33:d3:6c:f8, 2015-01-01 01:21:47.715, 0.421, 0.252, 0.868, 0.183, 0.793, 0.61, 15.43, -24.785, 175.386, -10.920, -12.680, -22.280, 32.99, -0.0181, -0.21945, -0.11652, -0.96841,
 16:09:21.503,ed:40:fe:65:30:6c, 2015-01-01 01:21:35.935, 0.583, 0.255, 0.773, 0.793, -0.366, 0.122, 17.485, -35.37, -127.007, -19.973, -11.153, -3.993, 27.9, 0.46094, -0.20352, -0.25885, -0.82401,
 16:09:21.503,ed:40:fe:65:30:6c, 2015-01-01 01:21:35.935, 0.583, 0.255, 0.776, 0.61, 0.061, 0.61, 17.49, -35.376, -127.024, -19.973, -11.153, -3.993, 27.9, 0.46094, -0.20352, -0.25885, -0.82401,
 16:09:21.506,ed:35:33:d3:6c:f8, 2015-01-01 01:21:47.715, 0.422, 0.251, 0.871, -0.305, 0.854, 0.916, 15.425, -24.774, 175.402, -10.920, -12.680, -22.280, 32.99, -0.0181, -0.21945, -0.11652, -0.96841,
 16:09:21.506,ed:35:33:d3:6c:f8, 2015-01-01 01:21:47.715, 0.422, 0.252, 0.874, -0.916, 0.61, 0.916, 15.408, -24.769, 175.419, -10.920, -12.680, -22.280, 32.99, -0.0181, -0.21945, -0.11652, -0.96841,
 16:09:21.508,f6:90:cc:01:6d:25, 2015-01-01 01:21:45.525, 0.904, 0.162, 0.361, 0.183, 0.916, 0.305, 24.115, -66.374, -169.788, -28.447, -14.773, -4.873, 32.72, 0.18848, -0.51755, -0.22284, -0.80426,
 16:09:21.508,f6:90:cc:01:6d:25, 2015-01-01 01:21:45.525, 0.904, 0.167, 0.361, 0.488, 0.793, 0.244, 24.099, -66.363, -169.772, -28.447, -14.773, -4.873, 32.72, 0.18848, -0.51755, -0.22284, -0.80426,
 16:09:21.526,ed:40:fe:65:30:6c, 2015-01-01 01:21:35.935, 0.584, 0.255, 0.776, 0, 0.305, 0.916, 17.479, -35.37, -127.04, -19.973, -11.153, -3.993, 27.9, 0.46094, -0.20352, -0.25885, -0.82401,
 16:09:21.526,ed:40:fe:65:30:6c, 2015-01-01 01:21:35.935, 0.583, 0.259, 0.779, -0.549, 0.244, 0.916, 17.457, -35.376, -127.057, -19.973, -11.153, -3.993, 27.9, 0.46094, -0.20352, -0.25885, -0.82401,
 16:09:21.528,e3:ca:2d:fd:e0:8c, 2015-01-01 01:21:56.975, 0.939, -0.066, 0.396, 0.244, -0.244, 0.122, -10.206, -66.698, -175.523, -26.000, -11.020, -12.427, 29.55, 0.01276, 0.55029, -0.0524, 0.83316,
 16:09:21.528,e3:ca:2d:fd:e0:8c, 2015-01-01 01:21:56.975, 0.937, -0.063, 0.394, 0.061, -0.305, 0.366, -10.212, -66.698, -175.529, -26.000, -11.020, -12.427, 29.55, 0.01276, 0.55029, -0.0524, 0.83316,
 16:09:21.552,ed:35:33:d3:6c:f8, 2015-01-01 01:21:47.715, 0.419, 0.252, 0.879, -0.854, 0.427, 0.732, 15.386, -24.763, 175.452, -10.920, -12.680, -22.280, 32.99, -0.0181, -0.21945, -0.11652, -0.96841,
 16:09:21.552,ed:35:33:d3:6c:f8, 2015-01-01 01:21:47.715, 0.422, 0.245, 0.874, -0.916, 0.305, 0.549, 15.364, -24.763, 175.501, -10.920, -12.680, -22.280, 32.99, -0.0181, -0.21945, -0.11652, -0.96841,
 16:09:21.553,f6:90:cc:01:6d:25, 2015-01-01 01:21:45.525, 0.903, 0.17, 0.358, 0.732, 0.366, 0.427, 24.093, -66.352, -169.766, -28.447, -14.773, -4.873, 32.72, 0.18848, -0.51755, -0.22284, -0.80426,
 16:09:21.553,f6:90:cc:01:6d:25, 2015-01-01 01:21:45.525, 0.901, 0.17, 0.358, 0.366, -0.122, 0.366, 24.088, -66.357, -169.783, -28.447, -14.773, -4.873, 32.72, 0.18848, -0.51755, -0.22284, -0.80426,
 16:09:21.571,ed:40:fe:65:30:6c, 2015-01-01 01:21:35.935, 0.581, 0.256, 0.781, -0.61, -0.488, 0.854, 17.441, -35.387, -127.084, -19.973, -11.153, -3.993, 27.9, 0.46094, -0.20352, -0.25885, -0.82401,
 16:09:21.571,ed:40:fe:65:30:6c, 2015-01-01 01:21:35.935, 0.585, 0.25, 0.774, -1.343, -1.221, 0.671, 17.419, -35.414, -127.106, -19.973, -11.153, -3.993, 27.9, 0.46094, -0.20352, -0.25885, -0.82401,
 16:09:21.575,f6:90:cc:01:6d:25, 2015-01-01 01:21:45.525, 0.905, 0.171, 0.356, 0.061, 0.061, 0.427, 24.088, -66.357, -169.783, -28.447, -14.773, -4.873, 32.72, 0.18848, -0.51755, -0.22284, -0.80426,
 16:09:21.575,f6:90:cc:01:6d:25, 2015-01-01 01:21:45.525, 0.907, 0.173, 0.358, -0.244, -0.183, 0.488, 24.077, -66.363, -169.794, -28.447, -14.773, -4.873, 32.72, 0.18848, -0.51755, -0.22284, -0.80426,
 16:09:21.595,e3:ca:2d:fd:e0:8c, 2015-01-01 01:21:56.975, 0.938, -0.062, 0.394, 0, -0.61, 0.488, -10.228, -66.703, -175.512, -26.407, -11.113, -12.560, 29.55, 0.01276, 0.55029, -0.0524, 0.83316,
 16:09:21.595,e3:ca:2d:fd:e0:8c, 2015-01-01 01:21:56.975, 0.94, -0.062, 0.395, -0.305, -0.549, 0.732, -10.25, -66.714, -175.496, -26.407, -11.113, -12.560, 29.55, 0.01276, 0.55029, -0.0524, 0.83316,
 16:09:21.596,ed:35:33:d3:6c:f8, 2015-01-01 01:21:47.715, 0.422, 0.245, 0.869, -2.319, -0.061, -0.305, 15.342, -24.763, 175.54, -10.920, -12.680, -22.280, 32.99, -0.0181, -0.21945, -0.11652, -0.96841,
 16:09:21.596,ed:35:33:d3:6c:f8, 2015-01-01 01:21:47.715, 0.422, 0.251, 0.87, -2.258, -0.061, -0.916, 15.304, -24.763, 175.54, -10.920, -12.680, -22.280, 32.99, -0.0181, -0.21945, -0.11652, -0.96841,
 16:09:21.619,e3:ca:2d:fd:e0:8c, 2015-01-01 01:21:56.975, 0.942, -0.062, 0.395, -1.099, -0.61, 0.793, -10.289, -66.725, -175.474, -26.407, -11.113, -12.560, 29.55, 0.01645, 0.55023, -0.05322, 0.8331,
 16:09:21.619,e3:ca:2d:fd:e0:8c, 2015-01-01 01:21:56.975, 0.941, -0.063, 0.398, -1.282, -0.488, 0.793, -10.344, -66.731, -175.463, -26.407, -11.113, -12.560, 29.55, 0.01645, 0.55023, -0.05322, 0.8331,
 16:09:21.619,f6:90:cc:01:6d:25, 2015-01-01 01:21:45.525, 0.908, 0.172, 0.358, -0.549, 0, 0.61, 24.06, -66.368, -169.799, -28.447, -14.773, -4.873, 32.72, 0.18848, -0.51755, -0.22284, -0.80426,
 16:09:21.619,f6:90:cc:01:6d:25, 2015-01-01 01:21:45.525, 0.908, 0.169, 0.36, -0.671, 0.427, 0.732, 24.033, -66.368, -169.799, -28.447, -14.773, -4.873, 32.72, 0.18848, -0.51755, -0.22284, -0.80426,
 16:09:21.639,ed:40:fe:65:30:6c, 2015-01-01 01:21:35.935, 0.585, 0.257, 0.772, -2.502, -1.16, 0.061, 17.38, -35.442, -127.134, -19.973, -11.153, -3.993, 27.9, 0.46094, -0.20352, -0.25885, -0.82401,
 16:09:21.639,ed:40:fe:65:30:6c, 2015-01-01 01:21:35.935, 0.588, 0.256, 0.776, -2.258, -1.099, -0.244, 17.347, -35.458, -127.172, -19.973, -11.153, -3.993, 27.9, 0.46094, -0.20352, -0.25885, -0.82401,
 16:09:21.662,ed:40:fe:65:30:6c, 2015-01-01 01:21:35.935, 0.585, 0.251, 0.776, -2.014, -0.549, -0.488, 17.325, -35.469, -127.2, -20.460, -11.533, -3.527, 27.9, 0.46094, -0.20352, -0.25885, -0.82401,
 16:09:21.662,ed:40:fe:65:30:6c, 2015-01-01 01:21:35.935, 0.582, 0.247, 0.772, -2.502, -0.122, -1.038, 17.298, -35.464, -127.233, -20.460, -11.533, -3.527, 27.9, 0.46094, -0.20352, -0.25885, -0.82401,
 16:09:21.663,e3:ca:2d:fd:e0:8c, 2015-01-01 01:21:56.975, 0.943, -0.066, 0.4, -1.16, -0.488, 0.793, -10.399, -66.742, -175.452, -26.407, -11.113, -12.560, 29.55, 0.01645, 0.55023, -0.05322, 0.8331,
 16:09:21.663,e3:ca:2d:fd:e0:8c, 2015-01-01 01:21:56.975, 0.94, -0.069, 0.399, -1.16, -0.183, 0.793, -10.448, -66.747, -175.43, -26.407, -11.113, -12.560, 29.55, 0.01645, 0.55023, -0.05322, 0.8331,
 16:09:21.664,ed:35:33:d3:6c:f8, 2015-01-01 01:21:47.715, 0.423, 0.248, 0.872, -1.587, 0.061, -0.916, 15.276, -24.763, 175.534, -11.440, -12.213, -23.007, 32.99, -0.0181, -0.21945, -0.11652, -0.96841,
 16:09:21.664,ed:35:33:d3:6c:f8, 2015-01-01 01:21:47.715, 0.42, 0.241, 0.869, -1.831, 0.305, -1.343, 15.26, -24.758, 175.54, -11.440, -12.213, -23.007, 32.99, -0.0181, -0.21945, -0.11652, -0.96841,
 16:09:21.685,e3:ca:2d:fd:e0:8c, 2015-01-01 01:21:57.310, 0.935, -0.071, 0.399, -1.404, 0.061, 0.732, -10.497, -66.747, -175.413, -26.407, -11.113, -12.560, 29.55, 0.01645, 0.55023, -0.05322, 0.8331,
 16:09:21.685,e3:ca:2d:fd:e0:8c, 2015-01-01 01:21:57.310, 0.934, -0.074, 0.4, -1.343, 0, 0.671, -10.541, -66.742, -175.397, -26.407, -11.113, -12.560, 29.55, 0.01645, 0.55023, -0.05322, 0.8331,
 16:09:21.686,ed:35:33:d3:6c:f8, 2015-01-01 01:21:47.715, 0.416, 0.239, 0.867, -2.319, 0.244, -2.075, 15.238, -24.747, 175.523, -11.440, -12.213, -23.007, 32.99, -0.00946, -0.21725, -0.12109, -0.96848,
 16:09:21.686,ed:35:33:d3:6c:f8, 2015-01-01 01:21:47.715, 0.412, 0.238, 0.87, -1.709, 0.244, -2.014, 15.222, -24.736, 175.485, -11.440, -12.213, -23.007, 32.99, -0.00946, -0.21725, -0.12109, -0.96848,
 16:09:21.688,f6:90:cc:01:6d:25, 2015-01-01 01:21:45.525, 0.908, 0.167, 0.358, -0.793, 0.977, 0.732, 23.989, -66.363, -169.783, -28.400, -14.813, -5.180, 32.72, 0.18848, -0.51755, -0.22284, -0.80426,
 16:09:21.688,f6:90:cc:01:6d:25, 2015-01-01 01:21:45.525, 0.904, 0.164, 0.36, -0.916, 1.038, 0.854, 23.934, -66.352, -169.766, -28.400, -14.813, -5.180, 32.72, 0.18848, -0.51755, -0.22284, -0.80426,
 16:09:21.707,ed:40:fe:65:30:6c, 2015-01-01 01:21:35.935, 0.578, 0.244, 0.773, -2.625, 0.305, -1.465, 17.276, -35.453, -127.288, -20.460, -11.533, -3.527, 27.9, 0.46094, -0.20352, -0.25885, -0.82401,
 16:09:21.707,ed:40:fe:65:30:6c, 2015-01-01 01:21:35.935, 0.574, 0.239, 0.779, -1.77, 0.61, -1.343, 17.26, -35.436, -127.337, -20.460, -11.533, -3.527, 27.9, 0.46094, -0.20352, -0.25885, -0.82401,
 16:09:21.729,ed:40:fe:65:30:6c, 2015-01-01 01:21:35.935, 0.575, 0.236, 0.781, -1.221, 0.549, -1.099, 17.254, -35.42, -127.381, -20.460, -11.533, -3.527, 27.9, 0.45856, -0.20624, -0.26154, -0.82382,
 16:09:21.729,ed:40:fe:65:30:6c, 2015-01-01 01:21:35.935, 0.576, 0.234, 0.78, -0.977, 0.183, -0.793, 17.249, -35.409, -127.425, -20.460, -11.533, -3.527, 27.9, 0.45856, -0.20624, -0.26154, -0.82382,
 16:09:21.729,e3:ca:2d:fd:e0:8c, 2015-01-01 01:21:57.310, 0.932, -0.076, 0.399, -1.16, -0.183, 0.61, -10.591, -66.742, -175.386, -26.407, -11.113, -12.560, 29.55, 0.01645, 0.55023, -0.05322, 0.8331,
 16:09:21.729,e3:ca:2d:fd:e0:8c, 2015-01-01 01:21:57.310, 0.933, -0.079, 0.398, -0.916, -0.183, 0.61, -10.635, -66.742, -175.353, -26.407, -11.113, -12.560, 29.55, 0.01645, 0.55023, -0.05322, 0.8331,
 16:09:21.732,ed:35:33:d3:6c:f8, 2015-01-01 01:21:47.715, 0.411, 0.234, 0.875, -0.854, 0.366, -1.404, 15.211, -24.725, 175.479, -11.440, -12.213, -23.007, 32.99, -0.00946, -0.21725, -0.12109, -0.96848,
 16:09:21.732,ed:35:33:d3:6c:f8, 2015-01-01 01:21:47.715, 0.412, 0.23, 0.875, -0.793, 0.366, -1.038, 15.211, -24.708, 175.452, -11.440, -12.213, -23.007, 32.99, -0.00946, -0.21725, -0.12109, -0.96848,
 16:09:21.733,f6:90:cc:01:6d:25, 2015-01-01 01:21:45.525, 0.901, 0.16, 0.365, -0.916, 1.038, 0.854, 23.873, -66.341, -169.744, -28.400, -14.813, -5.180, 32.72, 0.18594, -0.51767, -0.22034, -0.80548,
 16:09:21.733,f6:90:cc:01:6d:25, 2015-01-01 01:21:45.525, 0.901, 0.156, 0.365, -0.854, 1.038, 0.732, 23.813, -66.324, -169.733, -28.400, -14.813, -5.180, 32.72, 0.18594, -0.51767, -0.22034, -0.80548,
 16:09:21.754,ed:35:33:d3:6c:f8, 2015-01-01 01:21:48.070, 0.414, 0.23, 0.876, -0.366, 0.305, -0.671, 15.205, -24.697, 175.435, -11.440, -12.213, -23.007, 32.99, -0.00946, -0.21725, -0.12109, -0.96848,
 16:09:21.754,ed:35:33:d3:6c:f8, 2015-01-01 01:21:48.070, 0.415, 0.229, 0.877, 0, 0.305, -0.549, 15.205, -24.692, 175.43, -11.440, -12.213, -23.007, 32.99, -0.00946, -0.21725, -0.12109, -0.96848,
 16:09:21.755,f6:90:cc:01:6d:25, 2015-01-01 01:21:45.525, 0.902, 0.154, 0.364, -0.549, 0.916, 0.671, 23.758, -66.313, -169.711, -28.400, -14.813, -5.180, 32.72, 0.18594, -0.51767, -0.22034, -0.80548,
 16:09:21.755,f6:90:cc:01:6d:25, 2015-01-01 01:21:45.525, 0.903, 0.151, 0.366, -0.183, 0.732, 0.61, 23.714, -66.302, -169.673, -28.400, -14.813, -5.180, 32.72, 0.18594, -0.51767, -0.22034, -0.80548,
 16:09:21.774,ed:40:fe:65:30:6c, 2015-01-01 01:21:35.935, 0.577, 0.234, 0.782, -0.366, 0, -0.61, 17.249, -35.409, -127.469, -20.460, -11.533, -3.527, 27.9, 0.45856, -0.20624, -0.26154, -0.82382,
 16:09:21.774,ed:40:fe:65:30:6c, 2015-01-01 01:21:35.935, 0.578, 0.235, 0.782, -0.183, -0.122, -0.549, 17.254, -35.403, -127.513, -20.460, -11.533, -3.527, 27.9, 0.45856, -0.20624, -0.26154, -0.82382,
 16:09:21.776,e3:ca:2d:fd:e0:8c, 2015-01-01 01:21:57.310, 0.934, -0.079, 0.399, -0.427, -0.366, 0.61, -10.673, -66.742, -175.325, -26.407, -11.113, -12.560, 29.55, 0.01645, 0.55023, -0.05322, 0.8331,
 16:09:21.776,e3:ca:2d:fd:e0:8c, 2015-01-01 01:21:57.310, 0.936, -0.08, 0.399, 0, -0.732, 0.549, -10.706, -66.747, -175.287, -26.407, -11.113, -12.560, 29.55, 0.01645, 0.55023, -0.05322, 0.8331,
 16:09:21.778,f6:90:cc:01:6d:25, 2015-01-01 01:21:45.860, 0.903, 0.151, 0.367, 0, 0.671, 0.488, 23.681, -66.297, -169.612, -28.400, -14.813, -5.180, 32.72, 0.18594, -0.51767, -0.22034, -0.80548,
 16:09:21.778,f6:90:cc:01:6d:25, 2015-01-01 01:21:45.860, 0.903, 0.152, 0.368, 0.366, 0.549, 0.305, 23.654, -66.292, -169.552, -28.400, -14.813, -5.180, 32.72, 0.18594, -0.51767, -0.22034, -0.80548,
 16:09:21.800,ed:35:33:d3:6c:f8, 2015-01-01 01:21:48.070, 0.414, 0.231, 0.875, -0.061, 0.244, -0.488, 15.211, -24.681, 175.419, -11.440, -12.213, -23.007, 32.99, -0.00946, -0.21725, -0.12109, -0.96848,
 16:09:21.800,ed:35:33:d3:6c:f8, 2015-01-01 01:21:48.070, 0.413, 0.231, 0.877, 0, 0.305, -0.366, 15.211, -24.675, 175.43, -11.440, -12.213, -23.007, 32.99, -0.00946, -0.21725, -0.12109, -0.96848,
 16:09:21.819,ed:40:fe:65:30:6c, 2015-01-01 01:21:36.295, 0.576, 0.236, 0.782, -0.244, 0, -0.488, 17.254, -35.403, -127.546, -20.460, -11.533, -3.527, 27.9, 0.45856, -0.20624, -0.26154, -0.82382,
 16:09:21.819,ed:40:fe:65:30:6c, 2015-01-01 01:21:36.295, 0.578, 0.235, 0.783, 0, 0, -0.366, 17.254, -35.398, -127.579, -20.460, -11.533, -3.527, 27.9, 0.45856, -0.20624, -0.26154, -0.82382,
 16:09:21.820,e3:ca:2d:fd:e0:8c, 2015-01-01 01:21:57.310, 0.935, -0.079, 0.4, 0.122, -0.916, 0.549, -10.734, -66.758, -175.215, -26.407, -11.113, -12.560, 29.55, 0.01645, 0.55023, -0.05322, 0.8331,
 16:09:21.820,e3:ca:2d:fd:e0:8c, 2015-01-01 01:21:57.310, 0.936, -0.08, 0.4, 0.183, -0.854, 0.427, -10.761, -66.769, -175.155, -26.407, -11.113, -12.560, 29.55, 0.01645, 0.55023, -0.05322, 0.8331,
 16:09:21.824,f6:90:cc:01:6d:25, 2015-01-01 01:21:45.860, 0.903, 0.151, 0.366, 0.793, 0.366, 0.122, 23.648, -66.281, -169.503, -28.400, -14.813, -5.180, 32.72, 0.18594, -0.51767, -0.22034, -0.80548,
 16:09:21.824,f6:90:cc:01:6d:25, 2015-01-01 01:21:45.860, 0.903, 0.153, 0.368, 1.038, 0.366, 0, 23.648, -66.275, -169.497, -28.400, -14.813, -5.180, 32.72, 0.18594, -0.51767, -0.22034, -0.80548,
 16:09:21.845,ed:35:33:d3:6c:f8, 2015-01-01 01:21:48.070, 0.414, 0.23, 0.877, 0.061, 0.366, -0.183, 15.211, -24.664, 175.435, -11.440, -12.213, -23.007, 32.99, -0.00946, -0.21725, -0.12109, -0.96848,
 16:09:21.845,ed:35:33:d3:6c:f8, 2015-01-01 01:21:48.070, 0.415, 0.233, 0.875, -0.061, 0.183, -0.061, 15.211, -24.659, 175.391, -11.440, -12.213, -23.007, 32.99, -0.00946, -0.21725, -0.12109, -0.96848,
 16:09:21.865,ed:40:fe:65:30:6c, 2015-01-01 01:21:36.295, 0.578, 0.235, 0.782, 0, -0.183, -0.122, 17.254, -35.398, -127.59, -20.460, -11.533, -3.527, 27.9, 0.45856, -0.20624, -0.26154, -0.82382,
 16:09:21.865,ed:40:fe:65:30:6c, 2015-01-01 01:21:36.295, 0.579, 0.238, 0.78, -0.061, -0.366, -0.061, 17.254, -35.403, -127.606, -20.460, -11.533, -3.527, 27.9, 0.45856, -0.20624, -0.26154, -0.82382,
 16:09:21.865,e3:ca:2d:fd:e0:8c, 2015-01-01 01:21:57.310, 0.937, -0.079, 0.401, 0.61, -0.793, 0.488, -10.783, -66.78, -175.111, -26.407, -11.113, -12.560, 29.55, 0.01645, 0.55023, -0.05322, 0.8331,
 16:09:21.865,e3:ca:2d:fd:e0:8c, 2015-01-01 01:21:57.310, 0.938, -0.077, 0.398, 0.61, -0.671, 0.427, -10.8, -66.791, -175.056, -26.407, -11.113, -12.560, 29.55, 0.01645, 0.55023, -0.05322, 0.8331,
 16:09:21.867,ed:35:33:d3:6c:f8, 2015-01-01 01:21:48.070, 0.416, 0.236, 0.872, -0.061, 0, -0.061, 15.205, -24.653, 175.331, -11.440, -12.213, -23.007, 32.99, -0.00946, -0.21725, -0.12109, -0.96848,
 16:09:21.867,ed:35:33:d3:6c:f8, 2015-01-01 01:21:48.070, 0.416, 0.239, 0.873, 0, 0.122, 0, 15.2, -24.653, 175.298, -11.440, -12.213, -23.007, 32.99, -0.00946, -0.21725, -0.12109, -0.96848,
 16:09:21.868,f6:90:cc:01:6d:25, 2015-01-01 01:21:45.860, 0.904, 0.155, 0.365, 1.038, 0.488, 0, 23.654, -66.27, -169.503, -28.400, -14.813, -5.180, 32.72, 0.18594, -0.51767, -0.22034, -0.80548,
 16:09:21.868,f6:90:cc:01:6d:25, 2015-01-01 01:21:45.860, 0.904, 0.157, 0.364, 0.977, 0.549, 0, 23.659, -66.259, -169.514, -28.400, -14.813, -5.180, 32.72, 0.18594, -0.51767, -0.22034, -0.80548,
 16:09:21.886,ed:40:fe:65:30:6c, 2015-01-01 01:21:36.295, 0.58, 0.242, 0.779, 0, 0, -0.061, 17.249, -35.403, -127.617, -20.460, -11.533, -3.527, 27.9, 0.45856, -0.20624, -0.26154, -0.82382,
 16:09:21.886,ed:40:fe:65:30:6c, 2015-01-01 01:21:36.295, 0.579, 0.243, 0.78, 0.061, 0.183, 0, 17.249, -35.398, -127.623, -20.460, -11.533, -3.527, 27.9, 0.45856, -0.20624, -0.26154, -0.82382,
 16:09:21.888,e3:ca:2d:fd:e0:8c, 2015-01-01 01:21:57.310, 0.938, -0.077, 0.396, 0.61, -0.427, 0.305, -10.811, -66.802, -174.996, -26.047, -10.680, -11.667, 29.55, 0.01645, 0.55023, -0.05322, 0.8331,
 16:09:21.888,e3:ca:2d:fd:e0:8c, 2015-01-01 01:21:57.310, 0.938, -0.077, 0.396, 0.549, -0.488, 0.305, -10.822, -66.802, -174.979, -26.047, -10.680, -11.667, 29.55, 0.01645, 0.55023, -0.05322, 0.8331,
 16:09:21.913,ed:35:33:d3:6c:f8, 2015-01-01 01:21:48.070, 0.416, 0.238, 0.875, 0, 0.061, 0.122, 15.2, -24.653, 175.292, -11.440, -12.213, -23.007, 32.99, -0.00946, -0.21725, -0.12109, -0.96848,
 16:09:21.913,ed:35:33:d3:6c:f8, 2015-01-01 01:21:48.070, 0.419, 0.236, 0.875, -0.183, 0, 0, 15.194, -24.653, 175.32, -11.440, -12.213, -23.007, 32.99, -0.00946, -0.21725, -0.12109, -0.96848,
 16:09:21.914,f6:90:cc:01:6d:25, 2015-01-01 01:21:45.860, 0.903, 0.157, 0.365, 0.977, 0.366, 0, 23.665, -66.253, -169.525, -28.400, -14.813, -5.180, 32.72, 0.18594, -0.51767, -0.22034, -0.80548,
 16:09:21.914,f6:90:cc:01:6d:25, 2015-01-01 01:21:45.860, 0.904, 0.159, 0.362, 0.916, 0.305, 0, 23.676, -66.248, -169.536, -28.400, -14.813, -5.180, 32.72, 0.18594, -0.51767, -0.22034, -0.80548,
 16:09:21.932,e3:ca:2d:fd:e0:8c, 2015-01-01 01:21:57.310, 0.939, -0.075, 0.393, 0.61, -0.488, 0.305, -10.827, -66.808, -174.979, -26.047, -10.680, -11.667, 29.55, 0.01645, 0.55023, -0.05322, 0.8331,
 16:09:21.932,e3:ca:2d:fd:e0:8c, 2015-01-01 01:21:57.310, 0.941, -0.074, 0.394, 0.61, -0.488, 0.244, -10.833, -66.819, -174.935, -26.047, -10.680, -11.667, 29.55, 0.01645, 0.55023, -0.05322, 0.8331,
 16:09:21.932,ed:40:fe:65:30:6c, 2015-01-01 01:21:36.295, 0.581, 0.241, 0.78, 0.061, 0.244, 0.122, 17.243, -35.398, -127.628, -20.460, -11.533, -3.527, 27.9, 0.45856, -0.20624, -0.26154, -0.82382,
 16:09:21.932,ed:40:fe:65:30:6c, 2015-01-01 01:21:36.295, 0.583, 0.241, 0.778, -0.244, 0.183, 0.061, 17.238, -35.392, -127.639, -20.460, -11.533, -3.527, 27.9, 0.45856, -0.20624, -0.26154, -0.82382,
 16:09:21.957,ed:35:33:d3:6c:f8, 2015-01-01 01:21:48.070, 0.418, 0.236, 0.874, -0.244, -0.061, 0, 15.189, -24.653, 175.342, -11.440, -12.213, -23.007, 32.99, -0.00946, -0.21725, -0.12109, -0.96848,
 16:09:21.957,ed:35:33:d3:6c:f8, 2015-01-01 01:21:48.070, 0.421, 0.234, 0.875, -0.183, -0.061, -0.061, 15.183, -24.653, 175.336, -11.440, -12.213, -23.007, 32.99, -0.00946, -0.21725, -0.12109, -0.96848,
 16:09:21.957,f6:90:cc:01:6d:25, 2015-01-01 01:21:45.860, 0.905, 0.16, 0.362, 0.916, 0.244, -0.061, 23.681, -66.242, -169.557, -28.400, -14.813, -5.180, 32.72, 0.18594, -0.51767, -0.22034, -0.80548,
 16:09:21.957,f6:90:cc:01:6d:25, 2015-01-01 01:21:45.860, 0.906, 0.16, 0.362, 0.793, 0.244, -0.183, 23.698, -66.237, -169.59, -28.400, -14.813, -5.180, 32.72, 0.18594, -0.51767, -0.22034, -0.80548,
 16:09:21.977,ed:40:fe:65:30:6c, 2015-01-01 01:21:36.295, 0.583, 0.241, 0.779, -0.183, 0.122, 0, 17.232, -35.387, -127.661, -20.460, -11.533, -3.527, 27.9, 0.45856, -0.20624, -0.26154, -0.82382,
 16:09:21.977,ed:40:fe:65:30:6c, 2015-01-01 01:21:36.295, 0.585, 0.24, 0.78, -0.122, 0.305, -0.183, 17.227, -35.381, -127.683, -20.460, -11.533, -3.527, 27.9, 0.45856, -0.20624, -0.26154, -0.82382,
 16:09:21.981,f6:90:cc:01:6d:25, 2015-01-01 01:21:45.860, 0.907, 0.162, 0.362, 0.427, 0.122, -0.244, 23.714, -66.231, -169.645, -28.400, -14.620, -5.927, 32.72, 0.18594, -0.51767, -0.22034, -0.80548,
 16:09:21.981,f6:90:cc:01:6d:25, 2015-01-01 01:21:45.860, 0.907, 0.162, 0.362, 0.305, 0.244, -0.366, 23.73, -66.226, -169.706, -28.400, -14.620, -5.927, 32.72, 0.18594, -0.51767, -0.22034, -0.80548,
 16:09:22.000,e3:ca:2d:fd:e0:8c, 2015-01-01 01:21:57.310, 0.941, -0.074, 0.393, 0.488, -0.488, 0.122, -10.838, -66.824, -174.891, -26.047, -10.680, -11.667, 29.55, 0.01532, 0.55106, -0.05457, 0.83249,
 16:09:22.000,e3:ca:2d:fd:e0:8c, 2015-01-01 01:21:57.310, 0.943, -0.073, 0.394, 0.244, -0.488, 0, -10.838, -66.83, -174.88, -26.047, -10.680, -11.667, 29.55, 0.01532, 0.55106, -0.05457, 0.83249,
 16:09:22.022,e3:ca:2d:fd:e0:8c, 2015-01-01 01:21:57.645, 0.938, -0.074, 0.395, 0, -0.549, -0.122, -10.838, -66.841, -174.869, -26.047, -10.680, -11.667, 29.55, 0.01532, 0.55106, -0.05457, 0.83249,
 16:09:22.022,e3:ca:2d:fd:e0:8c, 2015-01-01 01:21:57.645, 0.938, -0.077, 0.393, 0, -0.244, -0.244, -10.827, -66.846, -174.88, -26.047, -10.680, -11.667, 29.55, 0.01532, 0.55106, -0.05457, 0.83249,
 16:09:22.023,ed:35:33:d3:6c:f8, 2015-01-01 01:21:48.070, 0.42, 0.235, 0.875, -0.244, -0.061, -0.427, 15.183, -24.653, 175.325, -11.287, -12.467, -23.367, 32.99, -0.00946, -0.21725, -0.12109, -0.96848,
 16:09:22.023,ed:35:33:d3:6c:f8, 2015-01-01 01:21:48.070, 0.421, 0.235, 0.871, -0.305, -0.183, -0.61, 15.178, -24.653, 175.276, -11.287, -12.467, -23.367, 32.99, -0.00946, -0.21725, -0.12109, -0.96848,
 16:09:22.026,f6:90:cc:01:6d:25, 2015-01-01 01:21:45.860, 0.903, 0.158, 0.359, 0.122, 0.549, -0.427, 23.736, -66.215, -169.75, -28.400, -14.620, -5.927, 32.72, 0.18594, -0.51767, -0.22034, -0.80548,
 16:09:22.026,f6:90:cc:01:6d:25, 2015-01-01 01:21:45.860, 0.903, 0.159, 0.363, 0, 0.61, -0.488, 23.747, -66.204, -169.783, -28.400, -14.620, -5.927, 32.72, 0.18594, -0.51767, -0.22034, -0.80548,
 16:09:22.044,ed:40:fe:65:30:6c, 2015-01-01 01:21:36.295, 0.582, 0.241, 0.778, -0.305, 0.244, -0.488, 17.227, -35.376, -127.722, -19.980, -11.647, -4.480, 27.9, 0.45856, -0.20624, -0.26154, -0.82382,
 16:09:22.044,ed:40:fe:65:30:6c, 2015-01-01 01:21:36.295, 0.583, 0.239, 0.776, -0.549, 0.305, -0.61, 17.221, -35.37, -127.766, -19.980, -11.647, -4.480, 27.9, 0.45856, -0.20624, -0.26154, -0.82382,
 16:09:22.045,e3:ca:2d:fd:e0:8c, 2015-01-01 01:21:57.645, 0.938, -0.075, 0.395, 0, -0.183, -0.244, -10.822, -66.852, -174.891, -26.047, -10.680, -11.667, 29.55, 0.01532, 0.55106, -0.05457, 0.83249,
 16:09:22.045,e3:ca:2d:fd:e0:8c, 2015-01-01 01:21:57.645, 0.938, -0.074, 0.394, 0.061, -0.305, -0.183, -10.811, -66.857, -174.913, -26.047, -10.680, -11.667, 29.55, 0.01532, 0.55106, -0.05457, 0.83249,
 16:09:22.048,ed:35:33:d3:6c:f8, 2015-01-01 01:21:48.070, 0.418, 0.23, 0.868, -0.671, 0.244, -0.977, 15.178, -24.653, 175.226, -11.287, -12.467, -23.367, 32.99, -0.01212, -0.2168, -0.12009, -0.96869,
 16:09:22.048,ed:35:33:d3:6c:f8, 2015-01-01 01:21:48.070, 0.416, 0.24, 0.876, -0.488, 0.305, -1.038, 15.172, -24.642, 175.188, -11.287, -12.467, -23.367, 32.99, -0.01212, -0.2168, -0.12009, -0.96869,
 16:09:22.068,ed:40:fe:65:30:6c, 2015-01-01 01:21:36.295, 0.581, 0.237, 0.777, -0.61, 0.916, -0.854, 17.216, -35.349, -127.809, -19.980, -11.647, -4.480, 27.9, 0.45517, -0.20685, -0.2601, -0.82599,
 16:09:22.068,ed:40:fe:65:30:6c, 2015-01-01 01:21:36.295, 0.579, 0.246, 0.782, -0.427, 0.854, -0.854, 17.216, -35.327, -127.848, -19.980, -11.647, -4.480, 27.9, 0.45517, -0.20685, -0.2601, -0.82599,
 16:09:22.071,f6:90:cc:01:6d:25, 2015-01-01 01:21:45.860, 0.904, 0.161, 0.366, 0.183, 0.366, -0.549, 23.763, -66.193, -169.805, -28.400, -14.620, -5.927, 32.72, 0.18503, -0.51697, -0.2193, -0.8064,
 16:09:22.071,f6:90:cc:01:6d:25, 2015-01-01 01:21:45.860, 0.904, 0.16, 0.363, 0, 0.305, -0.488, 23.78, -66.187, -169.832, -28.400, -14.620, -5.927, 32.72, 0.18503, -0.51697, -0.2193, -0.8064,
 16:09:22.090,e3:ca:2d:fd:e0:8c, 2015-01-01 01:21:57.645, 0.938, -0.077, 0.394, 0.244, -0.244, -0.244, -10.8, -66.863, -174.946, -26.047, -10.680, -11.667, 29.55, 0.01532, 0.55106, -0.05457, 0.83249,
 16:09:22.090,e3:ca:2d:fd:e0:8c, 2015-01-01 01:21:57.645, 0.938, -0.077, 0.396, 0.122, -0.122, -0.122, -10.789, -66.868, -174.985, -26.047, -10.680, -11.667, 29.55, 0.01532, 0.55106, -0.05457, 0.83249,
 16:09:22.092,ed:35:33:d3:6c:f8, 2015-01-01 01:21:48.070, 0.417, 0.244, 0.88, -0.427, 0.183, -0.61, 15.167, -24.637, 175.133, -11.287, -12.467, -23.367, 32.99, -0.01212, -0.2168, -0.12009, -0.96869,
 16:09:22.092,ed:35:33:d3:6c:f8, 2015-01-01 01:21:48.070, 0.416, 0.238, 0.879, -0.549, 0, -0.549, 15.161, -24.631, 175.1, -11.287, -12.467, -23.367, 32.99, -0.01212, -0.2168, -0.12009, -0.96869,
 16:09:22.111,ed:40:fe:65:30:6c, 2015-01-01 01:21:36.295, 0.579, 0.246, 0.784, -0.549, 0.488, -0.549, 17.21, -35.316, -127.881, -19.980, -11.647, -4.480, 27.9, 0.45517, -0.20685, -0.2601, -0.82599,
 16:09:22.111,ed:40:fe:65:30:6c, 2015-01-01 01:21:36.295, 0.577, 0.243, 0.783, -0.549, -0.244, -0.427, 17.205, -35.316, -127.908, -19.980, -11.647, -4.480, 27.9, 0.45517, -0.20685, -0.2601, -0.82599,
 16:09:22.114,ed:35:33:d3:6c:f8, 2015-01-01 01:21:48.430, 0.414, 0.238, 0.878, -0.549, -0.183, -0.549, 15.156, -24.631, 175.067, -11.287, -12.467, -23.367, 32.99, -0.01212, -0.2168, -0.12009, -0.96869,
 16:09:22.114,ed:35:33:d3:6c:f8, 2015-01-01 01:21:48.430, 0.414, 0.239, 0.875, -0.488, -0.183, -0.488, 15.15, -24.637, 175.034, -11.287, -12.467, -23.367, 32.99, -0.01212, -0.2168, -0.12009, -0.96869,
 16:09:22.116,f6:90:cc:01:6d:25, 2015-01-01 01:21:46.195, 0.904, 0.16, 0.364, -0.122, 0.183, -0.305, 23.785, -66.182, -169.838, -28.400, -14.620, -5.927, 32.72, 0.18503, -0.51697, -0.2193, -0.8064,
 16:09:22.116,f6:90:cc:01:6d:25, 2015-01-01 01:21:46.195, 0.902, 0.159, 0.366, -0.122, 0.061, -0.244, 23.791, -66.176, -169.838, -28.400, -14.620, -5.927, 32.72, 0.18503, -0.51697, -0.2193, -0.8064,
 16:09:22.134,ed:40:fe:65:30:6c, 2015-01-01 01:21:36.630, 0.577, 0.243, 0.782, -0.427, -0.183, -0.366, 17.199, -35.316, -127.925, -19.980, -11.647, -4.480, 27.9, 0.45517, -0.20685, -0.2601, -0.82599,
 16:09:22.134,ed:40:fe:65:30:6c, 2015-01-01 01:21:36.630, 0.578, 0.239, 0.779, -0.122, -0.122, -0.305, 17.199, -35.321, -127.941, -19.980, -11.647, -4.480, 27.9, 0.45517, -0.20685, -0.2601, -0.82599,
 16:09:22.159,ed:35:33:d3:6c:f8, 2015-01-01 01:21:48.430, 0.415, 0.236, 0.873, -0.122, -0.061, -0.427, 15.15, -24.637, 175.001, -11.287, -12.467, -23.367, 32.99, -0.01212, -0.2168, -0.12009, -0.96869,
 16:09:22.159,ed:35:33:d3:6c:f8, 2015-01-01 01:21:48.430, 0.416, 0.235, 0.875, -0.061, -0.122, -0.183, 15.15, -24.637, 174.996, -11.287, -12.467, -23.367, 32.99, -0.01212, -0.2168, -0.12009, -0.96869,
 16:09:22.159,e3:ca:2d:fd:e0:8c, 2015-01-01 01:21:57.645, 0.937, -0.076, 0.395, -0.061, -0.183, -0.061, -10.789, -66.868, -175.007, -26.047, -10.680, -11.667, 29.55, 0.01532, 0.55106, -0.05457, 0.83249,
 16:09:22.159,e3:ca:2d:fd:e0:8c, 2015-01-01 01:21:57.645, 0.937, -0.076, 0.395, -0.183, -0.183, 0, -10.794, -66.874, -175.023, -26.047, -10.680, -11.667, 29.55, 0.01532, 0.55106, -0.05457, 0.83249,
 16:09:22.160,f6:90:cc:01:6d:25, 2015-01-01 01:21:46.195, 0.901, 0.159, 0.366, -0.061, 0.061, -0.122, 23.791, -66.176, -169.849, -28.400, -14.620, -5.927, 32.72, 0.18503, -0.51697, -0.2193, -0.8064,
 16:09:22.160,f6:90:cc:01:6d:25, 2015-01-01 01:21:46.195, 0.901, 0.159, 0.366, -0.122, 0.061, -0.122, 23.791, -66.176, -169.865, -28.400, -14.620, -5.927, 32.72, 0.18503, -0.51697, -0.2193, -0.8064,
 16:09:22.180,e3:ca:2d:fd:e0:8c, 2015-01-01 01:21:57.645, 0.937, -0.075, 0.395, -0.122, -0.305, -0.061, -10.794, -66.879, -175.04, -26.047, -10.680, -11.667, 29.55, 0.01532, 0.55106, -0.05457, 0.83249,
 16:09:22.180,e3:ca:2d:fd:e0:8c, 2015-01-01 01:21:57.645, 0.938, -0.074, 0.394, 0, -0.244, 0, -10.8, -66.879, -175.062, -26.047, -10.680, -11.667, 29.55, 0.01532, 0.55106, -0.05457, 0.83249,
 16:09:22.180,ed:40:fe:65:30:6c, 2015-01-01 01:21:36.630, 0.578, 0.24, 0.781, -0.183, -0.183, -0.183, 17.199, -35.321, -127.969, -19.980, -11.647, -4.480, 27.9, 0.45517, -0.20685, -0.2601, -0.82599,
 16:09:22.180,ed:40:fe:65:30:6c, 2015-01-01 01:21:36.630, 0.579, 0.241, 0.781, -0.305, -0.122, -0.366, 17.199, -35.321, -127.985, -19.980, -11.647, -4.480, 27.9, 0.45517, -0.20685, -0.2601, -0.82599,
 16:09:22.182,f6:90:cc:01:6d:25, 2015-01-01 01:21:46.195, 0.901, 0.16, 0.364, -0.061, 0.183, -0.122, 23.791, -66.171, -169.86, -28.400, -14.620, -5.927, 32.72, 0.18503, -0.51697, -0.2193, -0.8064,
 16:09:22.182,f6:90:cc:01:6d:25, 2015-01-01 01:21:46.195, 0.903, 0.161, 0.367, 0, 0.061, -0.183, 23.796, -66.171, -169.827, -28.400, -14.620, -5.927, 32.72, 0.18503, -0.51697, -0.2193, -0.8064,
 16:09:22.205,ed:35:33:d3:6c:f8, 2015-01-01 01:21:48.430, 0.416, 0.234, 0.874, -0.244, 0, -0.305, 15.15, -24.637, 174.963, -11.287, -12.467, -23.367, 32.99, -0.01212, -0.2168, -0.12009, -0.96869,
 16:09:22.205,ed:35:33:d3:6c:f8, 2015-01-01 01:21:48.430, 0.417, 0.235, 0.875, -0.183, 0, -0.549, 15.15, -24.631, 174.924, -11.287, -12.467, -23.367, 32.99, -0.01212, -0.2168, -0.12009, -0.96869,
 16:09:22.224,ed:40:fe:65:30:6c, 2015-01-01 01:21:36.630, 0.581, 0.241, 0.781, -0.366, -0.244, -0.549, 17.199, -35.321, -127.991, -19.980, -11.647, -4.480, 27.9, 0.45517, -0.20685, -0.2601, -0.82599,
 16:09:22.224,ed:40:fe:65:30:6c, 2015-01-01 01:21:36.630, 0.579, 0.244, 0.782, -0.366, -0.427, -0.61, 17.199, -35.327, -128.007, -19.980, -11.647, -4.480, 27.9, 0.45517, -0.20685, -0.2601, -0.82599,
 16:09:22.226,e3:ca:2d:fd:e0:8c, 2015-01-01 01:21:57.645, 0.939, -0.073, 0.396, 0.061, -0.244, 0, -10.8, -66.885, -175.089, -26.047, -10.680, -11.667, 29.55, 0.01532, 0.55106, -0.05457, 0.83249,
 16:09:22.226,e3:ca:2d:fd:e0:8c, 2015-01-01 01:21:57.645, 0.941, -0.073, 0.396, 0.122, -0.244, -0.061, -10.8, -66.89, -175.122, -26.047, -10.680, -11.667, 29.55, 0.01532, 0.55106, -0.05457, 0.83249,
 16:09:22.227,f6:90:cc:01:6d:25, 2015-01-01 01:21:46.195, 0.904, 0.163, 0.367, 0, 0.183, -0.244, 23.802, -66.165, -169.794, -28.400, -14.620, -5.927, 32.72, 0.18503, -0.51697, -0.2193, -0.8064,
 16:09:22.227,f6:90:cc:01:6d:25, 2015-01-01 01:21:46.195, 0.904, 0.164, 0.366, -0.061, 0.183, -0.244, 23.807, -66.16, -169.788, -28.400, -14.620, -5.927, 32.72, 0.18503, -0.51697, -0.2193, -0.8064,
 16:09:22.248,e3:ca:2d:fd:e0:8c, 2015-01-01 01:21:57.645, 0.939, -0.073, 0.395, 0.122, -0.122, 0, -10.794, -66.89, -175.161, -26.127, -11.060, -13.193, 29.55, 0.01532, 0.55106, -0.05457, 0.83249,
 16:09:22.248,e3:ca:2d:fd:e0:8c, 2015-01-01 01:21:57.645, 0.938, -0.073, 0.395, -0.122, -0.061, -0.061, -10.794, -66.89, -175.193, -26.127, -11.060, -13.193, 29.55, 0.01532, 0.55106, -0.05457, 0.83249,
 16:09:22.250,ed:35:33:d3:6c:f8, 2015-01-01 01:21:48.430, 0.416, 0.239, 0.878, -0.244, -0.122, -0.61, 15.15, -24.631, 174.908, -11.287, -12.467, -23.367, 32.99, -0.01212, -0.2168, -0.12009, -0.96869,
 16:09:22.250,ed:35:33:d3:6c:f8, 2015-01-01 01:21:48.430, 0.415, 0.239, 0.876, -0.244, -0.183, -0.61, 15.15, -24.631, 174.875, -11.287, -12.467, -23.367, 32.99, -0.01212, -0.2168, -0.12009, -0.96869,
 16:09:22.269,ed:40:fe:65:30:6c, 2015-01-01 01:21:36.630, 0.578, 0.244, 0.783, -0.366, -0.488, -0.671, 17.205, -35.327, -128.018, -19.980, -11.647, -4.480, 27.9, 0.45517, -0.20685, -0.2601, -0.82599,
 16:09:22.269,ed:40:fe:65:30:6c, 2015-01-01 01:21:36.630, 0.579, 0.244, 0.78, -0.549, -0.61, -0.61, 17.205, -35.338, -128.029, -19.980, -11.647, -4.480, 27.9, 0.45517, -0.20685, -0.2601, -0.82599,
 16:09:22.272,ed:35:33:d3:6c:f8, 2015-01-01 01:21:48.430, 0.417, 0.239, 0.875, -0.305, -0.244, -0.549, 15.15, -24.631, 174.853, -11.287, -12.467, -23.367, 32.99, -0.01212, -0.2168, -0.12009, -0.96869,
 16:09:22.272,ed:35:33:d3:6c:f8, 2015-01-01 01:21:48.430, 0.416, 0.236, 0.871, -0.305, -0.183, -0.61, 15.15, -24.637, 174.869, -11.287, -12.467, -23.367, 32.99, -0.01212, -0.2168, -0.12009, -0.96869,
 16:09:22.273,f6:90:cc:01:6d:25, 2015-01-01 01:21:46.195, 0.903, 0.163, 0.365, -0.244, 0, -0.183, 23.807, -66.154, -169.794, -28.400, -14.620, -5.927, 32.72, 0.18503, -0.51697, -0.2193, -0.8064,
 16:09:22.273,f6:90:cc:01:6d:25, 2015-01-01 01:21:46.195, 0.902, 0.161, 0.364, -0.366, 0.061, -0.183, 23.807, -66.154, -169.81, -28.400, -14.620, -5.927, 32.72, 0.18503, -0.51697, -0.2193, -0.8064,
 16:09:22.292,e3:ca:2d:fd:e0:8c, 2015-01-01 01:21:57.645, 0.937, -0.074, 0.393, -0.366, 0, -0.061, -10.794, -66.89, -175.215, -26.127, -11.060, -13.193, 29.55, 0.01532, 0.55106, -0.05457, 0.83249,
 16:09:22.292,e3:ca:2d:fd:e0:8c, 2015-01-01 01:21:57.645, 0.937, -0.073, 0.395, -0.244, -0.061, -0.061, -10.794, -66.89, -175.243, -26.127, -11.060, -13.193, 29.55, 0.01532, 0.55106, -0.05457, 0.83249,
 16:09:22.292,ed:40:fe:65:30:6c, 2015-01-01 01:21:36.630, 0.578, 0.241, 0.778, -0.366, -0.244, -0.671, 17.21, -35.343, -128.051, -19.980, -11.647, -4.480, 27.9, 0.45517, -0.20685, -0.2601, -0.82599,
 16:09:22.292,ed:40:fe:65:30:6c, 2015-01-01 01:21:36.630, 0.579, 0.242, 0.778, -0.061, -0.122, -0.671, 17.21, -35.338, -128.068, -19.980, -11.647, -4.480, 27.9, 0.45517, -0.20685, -0.2601, -0.82599,
 16:09:22.317,ed:35:33:d3:6c:f8, 2015-01-01 01:21:48.430, 0.416, 0.237, 0.872, 0, -0.061, -0.61, 15.156, -24.631, 174.864, -11.287, -12.467, -23.367, 32.99, -0.01212, -0.2168, -0.12009, -0.96869,
 16:09:22.317,ed:35:33:d3:6c:f8, 2015-01-01 01:21:48.430, 0.417, 0.237, 0.875, 0, -0.061, -0.671, 15.161, -24.631, 174.88, -11.287, -12.467, -23.367, 32.99, -0.01212, -0.2168, -0.12009, -0.96869,
 16:09:22.318,f6:90:cc:01:6d:25, 2015-01-01 01:21:46.195, 0.902, 0.162, 0.365, -0.366, 0, -0.183, 23.807, -66.154, -169.832, -28.267, -14.260, -5.360, 32.72, 0.18503, -0.51697, -0.2193, -0.8064,
 16:09:22.318,f6:90:cc:01:6d:25, 2015-01-01 01:21:46.195, 0.902, 0.162, 0.365, -0.366, 0.061, -0.183, 23.807, -66.149, -169.854, -28.267, -14.260, -5.360, 32.72, 0.18503, -0.51697, -0.2193, -0.8064,
 16:09:22.337,ed:40:fe:65:30:6c, 2015-01-01 01:21:36.630, 0.58, 0.243, 0.779, -0.183, -0.061, -0.793, 17.221, -35.338, -128.101, -19.980, -11.647, -4.480, 27.9, 0.45517, -0.20685, -0.2601, -0.82599,
 16:09:22.338,ed:40:fe:65:30:6c, 2015-01-01 01:21:36.630, 0.579, 0.245, 0.778, -0.61, -0.122, -0.732, 17.227, -35.332, -128.128, -19.980, -11.647, -4.480, 27.9, 0.45517, -0.20685, -0.2601, -0.82599,
 16:09:22.340,f6:90:cc:01:6d:25, 2015-01-01 01:21:46.195, 0.902, 0.162, 0.364, -0.488, 0.122, -0.183, 23.807, -66.143, -169.865, -28.267, -14.260, -5.360, 32.72, 0.18445, -0.5166, -0.21927, -0.80679,
 16:09:22.340,f6:90:cc:01:6d:25, 2015-01-01 01:21:46.195, 0.904, 0.161, 0.364, -0.549, 0.122, -0.183, 23.802, -66.143, -169.898, -28.267, -14.260, -5.360, 32.72, 0.18445, -0.5166, -0.21927, -0.80679,
 16:09:22.360,e3:ca:2d:fd:e0:8c, 2015-01-01 01:21:57.645, 0.938, -0.074, 0.394, -0.244, -0.122, -0.122, -10.794, -66.896, -175.27, -26.127, -11.060, -13.193, 29.55, 0.0173, 0.55148, -0.05563, 0.83209,
 16:09:22.360,e3:ca:2d:fd:e0:8c, 2015-01-01 01:21:57.645, 0.939, -0.074, 0.393, -0.244, -0.061, -0.061, -10.794, -66.896, -175.298, -26.127, -11.060, -13.193, 29.55, 0.0173, 0.55148, -0.05563, 0.83209,
 16:09:22.382,e3:ca:2d:fd:e0:8c, 2015-01-01 01:21:58.000, 0.939, -0.074, 0.395, -0.305, 0, -0.122, -10.794, -66.896, -175.325, -26.127, -11.060, -13.193, 29.55, 0.0173, 0.55148, -0.05563, 0.83209,
 16:09:22.382,e3:ca:2d:fd:e0:8c, 2015-01-01 01:21:58.000, 0.938, -0.076, 0.396, -0.244, 0, -0.122, -10.789, -66.896, -175.353, -26.127, -11.060, -13.193, 29.55, 0.0173, 0.55148, -0.05563, 0.83209,
 16:09:22.384,ed:35:33:d3:6c:f8, 2015-01-01 01:21:48.430, 0.417, 0.239, 0.872, -0.305, -0.183, -0.732, 15.161, -24.631, 174.908, -11.360, -12.533, -22.813, 32.99, -0.01212, -0.2168, -0.12009, -0.96869,
 16:09:22.384,ed:35:33:d3:6c:f8, 2015-01-01 01:21:48.430, 0.414, 0.241, 0.874, -0.61, -0.122, -0.793, 15.161, -24.631, 174.941, -11.360, -12.533, -22.813, 32.99, -0.01212, -0.2168, -0.12009, -0.96869,
 16:09:22.386,f6:90:cc:01:6d:25, 2015-01-01 01:21:46.195, 0.903, 0.161, 0.367, -0.488, 0, -0.183, 23.796, -66.138, -169.937, -28.267, -14.260, -5.360, 32.72, 0.18445, -0.5166, -0.21927, -0.80679,
 16:09:22.386,f6:90:cc:01:6d:25, 2015-01-01 01:21:46.195, 0.902, 0.161, 0.368, -0.061, 0, -0.061, 23.802, -66.138, -169.964, -28.267, -14.260, -5.360, 32.72, 0.18445, -0.5166, -0.21927, -0.80679,
 16:09:22.406,e3:ca:2d:fd:e0:8c, 2015-01-01 01:21:58.000, 0.938, -0.075, 0.396, -0.061, -0.183, 0, -10.789, -66.896, -175.364, -26.127, -11.060, -13.193, 29.55, 0.0173, 0.55148, -0.05563, 0.83209,
 16:09:22.406,e3:ca:2d:fd:e0:8c, 2015-01-01 01:21:58.000, 0.938, -0.074, 0.396, 0.122, -0.366, 0, -10.789, -66.901, -175.364, -26.127, -11.060, -13.193, 29.55, 0.0173, 0.55148, -0.05563, 0.83209,
 16:09:22.427,ed:40:fe:65:30:6c, 2015-01-01 01:21:36.630, 0.576, 0.245, 0.782, -0.793, 0.183, -0.61, 17.221, -35.332, -128.15, -20.107, -11.560, -3.787, 27.9, 0.45517, -0.20685, -0.2601, -0.82599,
 16:09:22.427,ed:40:fe:65:30:6c, 2015-01-01 01:21:36.630, 0.576, 0.242, 0.785, -0.183, 0.183, -0.122, 17.216, -35.327, -128.161, -20.107, -11.560, -3.787, 27.9, 0.45517, -0.20685, -0.2601, -0.82599,
 16:09:22.429,ed:35:33:d3:6c:f8, 2015-01-01 01:21:48.430, 0.413, 0.241, 0.878, -0.366, 0, -0.305, 15.156, -24.631, 174.99, -11.360, -12.533, -22.813, 32.99, -0.01416, -0.21686, -0.11951, -0.96872,
 16:09:22.429,ed:35:33:d3:6c:f8, 2015-01-01 01:21:48.430, 0.415, 0.237, 0.878, 0.183, 0, 0.122, 15.161, -24.631, 175.078, -11.360, -12.533, -22.813, 32.99, -0.01416, -0.21686, -0.11951, -0.96872,
