Time,Device name,Chip Time(),Acceleration X(g),Acceleration Y(g),Acceleration Z(g),Angular velocity X(°/s),Angular velocity Y(°/s),Angular velocity Z(°/s),Angle X(°),Angle Y(°),Angle Z(°),Magnetic field X(ʯt),Magnetic field Y(ʯt),Magnetic field Z(ʯt),Temperature(℃),Quaternions 0(),Quaternions 1(),Quaternions 2(),Quaternions 3()
 12:46:20.772,e3:ca:2d:fd:e0:8c, 2015-01-01 02:15:59.445, 1.001, -0.09, 0.185, 0, 0, 0, -25.862, -78.404, 175.358, -27.000, -10.660, -12.647, 24.38, 0.17181, 0.60849, -0.19818, 0.7489,
 12:46:20.772,e3:ca:2d:fd:e0:8c, 2015-01-01 02:15:59.445, 1.001, -0.09, 0.185, 0, 0, 0, -25.862, -78.404, 175.353, -27.000, -10.660, -12.647, 24.38, 0.17181, 0.60849, -0.19818, 0.7489,
 12:46:20.776,ed:35:33:d3:6c:f8, 2015-01-01 02:15:58.585, 0.885, 0.031, 0.452, -0.061, 1.16, 0, 3.972, -63.034, 143.004, -22.140, -9.640, -17.373, 27.77, 0.25287, 0.50656, -0.13834, 0.81253,
 12:46:20.776,ed:35:33:d3:6c:f8, 2015-01-01 02:15:58.585, 0.884, 0.03, 0.453, -0.122, 1.038, 0, 3.966, -63.012, 143.015, -22.140, -9.640, -17.373, 27.77, 0.25287, 0.50656, -0.13834, 0.81253,
 12:46:20.778,ed:40:fe:65:30:6c, 2015-01-01 02:15:58.460, 0.765, -0.094, 0.646, 0, 0.305, 0.061, -8.421, -49.565, -105.101, -24.207, -4.453, -0.880, 23.28, 0.52618, -0.37265, -0.20148, -0.73724,
 12:46:20.778,ed:40:fe:65:30:6c, 2015-01-01 02:15:58.460, 0.764, -0.093, 0.647, 0, 0.244, 0, -8.421, -49.559, -105.106, -24.207, -4.453, -0.880, 23.28, 0.52618, -0.37265, -0.20148, -0.73724,
 12:46:20.802,f6:90:cc:01:6d:25, 2015-01-01 02:15:59.400, 0.98, -0.098, 0.044, -0.061, 0.427, 0, -65.012, -83.732, -121.042, -31.287, -8.020, -2.607, 27.79, 0.00281, 0.68701, -0.07111, 0.72308,
 12:46:20.802,f6:90:cc:01:6d:25, 2015-01-01 02:15:59.400, 0.98, -0.098, 0.043, -0.244, 0.427, 0, -64.946, -83.727, -121.097, -31.287, -8.020, -2.607, 27.79, 0.00281, 0.68701, -0.07111, 0.72308,
 12:46:20.804,ed:35:33:d3:6c:f8, 2015-01-01 02:15:58.585, 0.883, 0.031, 0.453, 0, 0.977, -0.061, 3.966, -62.99, 143.036, -22.120, -9.640, -17.073, 27.77, 0.25287, 0.50656, -0.13834, 0.81253,
 12:46:20.804,ed:35:33:d3:6c:f8, 2015-01-01 02:15:58.585, 0.884, 0.031, 0.454, 0, 0.977, 0, 3.966, -62.974, 143.036, -22.120, -9.640, -17.073, 27.77, 0.25287, 0.50656, -0.13834, 0.81253,
 12:46:20.833,f6:90:cc:01:6d:25, 2015-01-01 02:15:59.400, 0.981, -0.099, 0.043, -0.183, 0.305, 0, -64.902, -83.727, -121.135, -31.287, -8.020, -2.607, 27.79, 0.00281, 0.68701, -0.07111, 0.72308,
 12:46:20.833,f6:90:cc:01:6d:25, 2015-01-01 02:15:59.400, 0.98, -0.1, 0.047, -0.183, 0.061, 0, -64.891, -83.721, -121.152, -31.287, -8.020, -2.607, 27.79, 0.00281, 0.68701, -0.07111, 0.72308,
 12:46:20.833,e3:ca:2d:fd:e0:8c, 2015-01-01 02:15:59.445, 1.001, -0.089, 0.184, 0, 0, 0, -25.862, -78.404, 175.347, -27.000, -10.660, -12.647, 24.38, 0.17181, 0.60849, -0.19818, 0.7489,
 12:46:20.833,e3:ca:2d:fd:e0:8c, 2015-01-01 02:15:59.445, 1.001, -0.089, 0.184, 0, 0.061, 0, -25.856, -78.404, 175.342, -27.000, -10.660, -12.647, 24.38, 0.17181, 0.60849, -0.19818, 0.7489,
 12:46:20.837,ed:40:fe:65:30:6c, 2015-01-01 02:15:58.460, 0.765, -0.094, 0.646, -0.061, 0.122, 0.061, -8.421, -49.554, -105.112, -24.207, -4.453, -0.880, 23.28, 0.52618, -0.37265, -0.20148, -0.73724,
 12:46:20.837,ed:40:fe:65:30:6c, 2015-01-01 02:15:58.460, 0.765, -0.094, 0.646, -0.061, 0.061, 0.122, -8.421, -49.554, -105.117, -24.207, -4.453, -0.880, 23.28, 0.52618, -0.37265, -0.20148, -0.73724,
 12:46:20.860,e3:ca:2d:fd:e0:8c, 2015-01-01 02:15:59.445, 1, -0.09, 0.184, 0, 0, 0, -25.856, -78.398, 175.336, -27.000, -10.660, -12.647, 24.38, 0.17181, 0.60849, -0.19818, 0.7489,
 12:46:20.860,e3:ca:2d:fd:e0:8c, 2015-01-01 02:15:59.445, 1, -0.091, 0.184, 0.061, 0, 0, -25.856, -78.404, 175.331, -27.000, -10.660, -12.647, 24.38, 0.17181, 0.60849, -0.19818, 0.7489,
 12:46:20.864,f6:90:cc:01:6d:25, 2015-01-01 02:15:59.400, 0.98, -0.101, 0.045, 0, 0, 0, -64.896, -83.721, -121.152, -31.287, -8.020, -2.607, 27.79, 0.00281, 0.68701, -0.07111, 0.72308,
 12:46:20.864,f6:90:cc:01:6d:25, 2015-01-01 02:15:59.400, 0.98, -0.1, 0.048, 0.061, 0, 0, -64.896, -83.721, -121.152, -31.287, -8.020, -2.607, 27.79, 0.00281, 0.68701, -0.07111, 0.72308,
 12:46:20.866,ed:35:33:d3:6c:f8, 2015-01-01 02:15:58.585, 0.884, 0.032, 0.451, 0, 0.977, 0, 3.961, -62.952, 143.042, -22.120, -9.640, -17.073, 27.77, 0.25287, 0.50656, -0.13834, 0.81253,
 12:46:20.866,ed:35:33:d3:6c:f8, 2015-01-01 02:15:58.585, 0.882, 0.031, 0.452, 0, 1.16, 0.183, 3.955, -62.93, 143.058, -22.120, -9.640, -17.073, 27.77, 0.25287, 0.50656, -0.13834, 0.81253,
 12:46:20.868,ed:40:fe:65:30:6c, 2015-01-01 02:15:58.460, 0.764, -0.095, 0.646, 0, 0.183, 0.244, -8.421, -49.548, -105.117, -24.207, -4.453, -0.880, 23.28, 0.52618, -0.37265, -0.20148, -0.73724,
 12:46:20.868,ed:40:fe:65:30:6c, 2015-01-01 02:15:58.460, 0.766, -0.094, 0.647, 0, 0.244, 0.305, -8.427, -49.543, -105.117, -24.207, -4.453, -0.880, 23.28, 0.52618, -0.37265, -0.20148, -0.73724,
 12:46:20.890,e3:ca:2d:fd:e0:8c, 2015-01-01 02:15:59.445, 1.001, -0.09, 0.185, 0.122, 0, 0, -25.856, -78.404, 175.325, -27.000, -10.660, -12.647, 24.38, 0.17181, 0.60849, -0.19818, 0.7489,
 12:46:20.890,e3:ca:2d:fd:e0:8c, 2015-01-01 02:15:59.445, 1.001, -0.089, 0.187, 0.122, 0.061, 0, -25.851, -78.398, 175.32, -27.000, -10.660, -12.647, 24.38, 0.17181, 0.60849, -0.19818, 0.7489,
 12:46:20.896,ed:35:33:d3:6c:f8, 2015-01-01 02:15:58.585, 0.884, 0.031, 0.453, 0, 1.465, 0.366, 3.939, -62.902, 143.102, -22.120, -9.640, -17.073, 27.77, 0.25296, 0.50415, -0.13736, 0.81418,
 12:46:20.896,ed:35:33:d3:6c:f8, 2015-01-01 02:15:58.585, 0.884, 0.031, 0.456, 0.305, 1.038, 0.427, 3.922, -62.88, 143.119, -22.120, -9.640, -17.073, 27.77, 0.25296, 0.50415, -0.13736, 0.81418,
 12:46:20.898,ed:40:fe:65:30:6c, 2015-01-01 02:15:58.460, 0.765, -0.095, 0.646, 0.244, 0.305, 0.427, -8.427, -49.537, -105.112, -24.480, -4.333, -0.527, 23.28, 0.52618, -0.37265, -0.20148, -0.73724,
 12:46:20.898,ed:40:fe:65:30:6c, 2015-01-01 02:15:58.460, 0.764, -0.099, 0.649, 0.122, 0.122, 0.61, -8.432, -49.532, -105.101, -24.480, -4.333, -0.527, 23.28, 0.52618, -0.37265, -0.20148, -0.73724,
 12:46:20.924,f6:90:cc:01:6d:25, 2015-01-01 02:15:59.400, 0.982, -0.099, 0.046, 0.183, 0.183, 0, -64.874, -83.721, -121.174, -31.287, -8.020, -2.607, 27.79, 0.00281, 0.68701, -0.07111, 0.72308,
 12:46:20.924,f6:90:cc:01:6d:25, 2015-01-01 02:15:59.400, 0.982, -0.101, 0.048, 0.305, 0.305, 0, -64.83, -83.716, -121.218, -31.287, -8.020, -2.607, 27.79, 0.00281, 0.68701, -0.07111, 0.72308,
 12:46:20.926,ed:35:33:d3:6c:f8, 2015-01-01 02:15:58.585, 0.883, 0.026, 0.458, 0.305, 0.854, 0.916, 3.895, -62.864, 143.124, -22.120, -9.640, -17.073, 27.77, 0.25296, 0.50415, -0.13736, 0.81418,
 12:46:20.926,ed:35:33:d3:6c:f8, 2015-01-01 02:15:58.585, 0.881, 0.028, 0.454, 0.183, 0.732, 0.427, 3.878, -62.847, 143.135, -22.120, -9.640, -17.073, 27.77, 0.25296, 0.50415, -0.13736, 0.81418,
 12:46:20.949,e3:ca:2d:fd:e0:8c, 2015-01-01 02:15:59.445, 1, -0.09, 0.187, 0, 0, 0, -25.851, -78.398, 175.314, -27.000, -10.660, -12.647, 24.38, 0.17181, 0.60849, -0.19818, 0.7489,
 12:46:20.949,e3:ca:2d:fd:e0:8c, 2015-01-01 02:15:59.445, 1, -0.089, 0.187, 0, 0, 0, -25.851, -78.398, 175.309, -27.000, -10.660, -12.647, 24.38, 0.17181, 0.60849, -0.19818, 0.7489,
 12:46:20.953,f6:90:cc:01:6d:25, 2015-01-01 02:15:59.400, 0.979, -0.101, 0.044, 0.244, 0.488, 0, -64.753, -83.71, -121.289, -31.260, -7.707, -2.667, 27.79, 0.00281, 0.68701, -0.07111, 0.72308,
 12:46:20.953,f6:90:cc:01:6d:25, 2015-01-01 02:15:59.400, 0.981, -0.096, 0.045, -0.183, 0.427, 0, -64.693, -83.71, -121.36, -31.260, -7.707, -2.667, 27.79, 0.00281, 0.68701, -0.07111, 0.72308,
 12:46:20.957,ed:40:fe:65:30:6c, 2015-01-01 02:15:58.460, 0.764, -0.095, 0.646, 0, 0.122, 0.488, -8.443, -49.526, -105.09, -24.480, -4.333, -0.527, 23.28, 0.52618, -0.37265, -0.20148, -0.73724,
 12:46:20.957,ed:40:fe:65:30:6c, 2015-01-01 02:15:58.460, 0.768, -0.093, 0.644, 0.122, 0.122, 0.305, -8.448, -49.526, -105.084, -24.480, -4.333, -0.527, 23.28, 0.52618, -0.37265, -0.20148, -0.73724,
 12:46:20.979,e3:ca:2d:fd:e0:8c, 2015-01-01 02:15:59.445, 1.002, -0.089, 0.185, 0, 0, 0, -25.851, -78.398, 175.309, -27.053, -10.900, -12.747, 24.38, 0.17181, 0.60849, -0.19818, 0.7489,
 12:46:20.979,e3:ca:2d:fd:e0:8c, 2015-01-01 02:15:59.445, 1.002, -0.089, 0.187, 0, 0.061, 0, -25.845, -78.398, 175.303, -27.053, -10.900, -12.747, 24.38, 0.17181, 0.60849, -0.19818, 0.7489,
 12:46:20.983,f6:90:cc:01:6d:25, 2015-01-01 02:15:59.400, 0.985, -0.096, 0.045, 0.061, 0.244, 0, -64.649, -83.705, -121.41, -31.260, -7.707, -2.667, 27.79, 0.00281, 0.68701, -0.07111, 0.72308,
 12:46:20.983,f6:90:cc:01:6d:25, 2015-01-01 02:15:59.400, 0.984, -0.101, 0.05, 0.061, 0.061, 0, -64.633, -83.705, -121.426, -31.260, -7.707, -2.667, 27.79, 0.00281, 0.68701, -0.07111, 0.72308,
 12:46:20.985,ed:35:33:d3:6c:f8, 2015-01-01 02:15:58.945, 0.886, 0.031, 0.45, 0.244, 1.343, 0.061, 3.873, -62.825, 143.146, -22.120, -9.640, -17.073, 27.77, 0.25296, 0.50415, -0.13736, 0.81418,
 12:46:20.985,ed:35:33:d3:6c:f8, 2015-01-01 02:15:58.945, 0.886, 0.032, 0.456, 0, 0.916, 0, 3.867, -62.803, 143.163, -22.120, -9.640, -17.073, 27.77, 0.25296, 0.50415, -0.13736, 0.81418,
 12:46:20.987,ed:40:fe:65:30:6c, 2015-01-01 02:15:58.460, 0.769, -0.093, 0.646, 0, 0.183, 0.122, -8.454, -49.521, -105.084, -24.480, -4.333, -0.527, 23.28, 0.52618, -0.37228, -0.20093, -0.73758,
 12:46:20.987,ed:40:fe:65:30:6c, 2015-01-01 02:15:58.460, 0.766, -0.093, 0.648, 0.122, 0.244, 0.244, -8.454, -49.515, -105.084, -24.480, -4.333, -0.527, 23.28, 0.52618, -0.37228, -0.20093, -0.73758,
 12:46:21.011,e3:ca:2d:fd:e0:8c, 2015-01-01 02:15:59.445, 1.001, -0.089, 0.185, 0, 0.061, 0, -25.845, -78.398, 175.292, -27.053, -10.900, -12.747, 24.38, 0.17181, 0.60849, -0.19818, 0.7489,
 12:46:21.011,e3:ca:2d:fd:e0:8c, 2015-01-01 02:15:59.445, 1.001, -0.089, 0.185, 0, 0, 0, -25.84, -78.398, 175.287, -27.053, -10.900, -12.747, 24.38, 0.17181, 0.60849, -0.19818, 0.7489,
 12:46:21.015,ed:35:33:d3:6c:f8, 2015-01-01 02:15:58.945, 0.884, 0.034, 0.457, 0.366, 0.61, 0.244, 3.867, -62.787, 143.174, -22.120, -9.640, -17.073, 27.77, 0.25296, 0.50415, -0.13736, 0.81418,
 12:46:21.015,ed:35:33:d3:6c:f8, 2015-01-01 02:15:58.945, 0.879, 0.028, 0.459, 0.244, 0.549, 0.61, 3.851, -62.776, 143.201, -22.120, -9.640, -17.073, 27.77, 0.25296, 0.50415, -0.13736, 0.81418,
 12:46:21.017,ed:40:fe:65:30:6c, 2015-01-01 02:15:58.460, 0.761, -0.096, 0.649, 0.244, 0.305, 0.427, -8.454, -49.51, -105.079, -24.480, -4.333, -0.527, 23.28, 0.52618, -0.37228, -0.20093, -0.73758,
 12:46:21.017,ed:40:fe:65:30:6c, 2015-01-01 02:15:58.460, 0.759, -0.095, 0.65, 0.061, 0.244, 0.427, -8.459, -49.504, -105.073, -24.480, -4.333, -0.527, 23.28, 0.52618, -0.37228, -0.20093, -0.73758,
 12:46:21.043,f6:90:cc:01:6d:25, 2015-01-01 02:15:59.400, 0.98, -0.101, 0.045, 0.305, 0.366, 0, -64.583, -83.699, -121.476, -31.260, -7.707, -2.667, 27.79, 0.0032, 0.68655, -0.07147, 0.72348,
 12:46:21.043,f6:90:cc:01:6d:25, 2015-01-01 02:15:59.400, 0.978, -0.1, 0.047, 0.366, 0.61, 0, -64.49, -83.694, -121.564, -31.260, -7.707, -2.667, 27.79, 0.0032, 0.68655, -0.07147, 0.72348,
 12:46:21.045,ed:35:33:d3:6c:f8, 2015-01-01 02:15:58.945, 0.878, 0.028, 0.462, 0.122, 0.183, 0.244, 3.84, -62.77, 143.223, -22.120, -9.640, -17.073, 27.77, 0.25296, 0.50415, -0.13736, 0.81418,
 12:46:21.045,ed:35:33:d3:6c:f8, 2015-01-01 02:15:58.945, 0.88, 0.028, 0.458, 0.244, 0, 0.244, 3.834, -62.77, 143.24, -22.120, -9.640, -17.073, 27.77, 0.25296, 0.50415, -0.13736, 0.81418,
 12:46:21.070,e3:ca:2d:fd:e0:8c, 2015-01-01 02:15:59.445, 1.002, -0.089, 0.182, -0.061, -0.244, 0, -25.845, -78.398, 175.287, -27.053, -10.900, -12.747, 24.38, 0.17224, 0.60834, -0.19843, 0.74884,
 12:46:21.070,e3:ca:2d:fd:e0:8c, 2015-01-01 02:15:59.445, 1.001, -0.089, 0.185, 0, -0.244, 0, -25.856, -78.404, 175.298, -27.053, -10.900, -12.747, 24.38, 0.17224, 0.60834, -0.19843, 0.74884,
 12:46:21.072,f6:90:cc:01:6d:25, 2015-01-01 02:15:59.725, 0.978, -0.098, 0.046, 0, 0.549, 0, -64.407, -83.688, -121.652, -31.260, -7.707, -2.667, 27.79, 0.0032, 0.68655, -0.07147, 0.72348,
 12:46:21.072,f6:90:cc:01:6d:25, 2015-01-01 02:15:59.725, 0.979, -0.098, 0.046, -0.244, 0.183, 0, -64.391, -83.688, -121.679, -31.260, -7.707, -2.667, 27.79, 0.0032, 0.68655, -0.07147, 0.72348,
 12:46:21.100,e3:ca:2d:fd:e0:8c, 2015-01-01 02:15:59.805, 1.001, -0.089, 0.184, -0.061, -0.122, 0, -25.862, -78.404, 175.298, -27.053, -10.900, -12.747, 24.38, 0.17224, 0.60834, -0.19843, 0.74884,
 12:46:21.100,e3:ca:2d:fd:e0:8c, 2015-01-01 02:15:59.805, 1, -0.088, 0.184, 0, -0.061, 0, -25.867, -78.409, 175.298, -27.053, -10.900, -12.747, 24.38, 0.17224, 0.60834, -0.19843, 0.74884,
 12:46:21.104,f6:90:cc:01:6d:25, 2015-01-01 02:15:59.725, 0.98, -0.097, 0.046, -0.061, -0.122, 0, -64.418, -83.688, -121.663, -31.260, -7.707, -2.667, 27.79, 0.0032, 0.68655, -0.07147, 0.72348,
 12:46:21.104,f6:90:cc:01:6d:25, 2015-01-01 02:15:59.725, 0.983, -0.099, 0.047, 0.122, -0.244, 0, -64.457, -83.688, -121.619, -31.260, -7.707, -2.667, 27.79, 0.0032, 0.68655, -0.07147, 0.72348,
 12:46:21.106,ed:35:33:d3:6c:f8, 2015-01-01 02:15:58.945, 0.881, 0.027, 0.456, 0.183, -0.183, 0.183, 3.829, -62.77, 143.234, -22.120, -9.640, -17.073, 27.77, 0.25296, 0.50415, -0.13736, 0.81418,
 12:46:21.106,ed:35:33:d3:6c:f8, 2015-01-01 02:15:58.945, 0.882, 0.028, 0.455, 0.061, -0.122, 0, 3.829, -62.77, 143.212, -22.120, -9.640, -17.073, 27.77, 0.25296, 0.50415, -0.13736, 0.81418,
 12:46:21.108,ed:40:fe:65:30:6c, 2015-01-01 02:15:58.820, 0.762, -0.095, 0.648, 0.122, 0, 0.305, -8.465, -49.499, -105.068, -24.480, -4.333, -0.527, 23.28, 0.52618, -0.37228, -0.20093, -0.73758,
 12:46:21.108,ed:40:fe:65:30:6c, 2015-01-01 02:15:58.820, 0.763, -0.096, 0.646, 0, -0.183, 0.122, -8.465, -49.499, -105.062, -24.480, -4.333, -0.527, 23.28, 0.52618, -0.37228, -0.20093, -0.73758,
 12:46:21.110,ed:40:fe:65:30:6c, 2015-01-01 02:15:58.820, 0.765, -0.095, 0.646, 0, -0.183, 0, -8.465, -49.504, -105.068, -24.480, -4.333, -0.527, 23.28, 0.52618, -0.37228, -0.20093, -0.73758,
 12:46:21.110,ed:40:fe:65:30:6c, 2015-01-01 02:15:58.820, 0.767, -0.094, 0.647, -0.061, -0.183, 0, -8.465, -49.504, -105.073, -24.480, -4.333, -0.527, 23.28, 0.52618, -0.37228, -0.20093, -0.73758,
 12:46:21.130,e3:ca:2d:fd:e0:8c, 2015-01-01 02:15:59.805, 1, -0.09, 0.187, 0.061, 0, 0, -25.867, -78.409, 175.298, -27.053, -10.900, -12.747, 24.38, 0.17224, 0.60834, -0.19843, 0.74884,
 12:46:21.130,e3:ca:2d:fd:e0:8c, 2015-01-01 02:15:59.805, 1, -0.091, 0.187, 0.061, -0.122, 0, -25.867, -78.409, 175.298, -27.053, -10.900, -12.747, 24.38, 0.17224, 0.60834, -0.19843, 0.74884,
 12:46:21.136,ed:35:33:d3:6c:f8, 2015-01-01 02:15:58.945, 0.885, 0.031, 0.456, 0, -0.061, -0.122, 3.829, -62.77, 143.185, -22.120, -9.640, -17.073, 27.77, 0.25296, 0.50415, -0.13736, 0.81418,
 12:46:21.136,ed:35:33:d3:6c:f8, 2015-01-01 02:15:58.945, 0.882, 0.03, 0.458, -0.061, -0.427, 0, 3.829, -62.776, 143.168, -22.120, -9.640, -17.073, 27.77, 0.25296, 0.50415, -0.13736, 0.81418,
 12:46:21.162,f6:90:cc:01:6d:25, 2015-01-01 02:15:59.725, 0.981, -0.101, 0.05, 0.244, -0.305, 0, -64.506, -83.694, -121.569, -31.260, -7.707, -2.667, 27.79, 0.0032, 0.68655, -0.07147, 0.72348,
 12:46:21.162,f6:90:cc:01:6d:25, 2015-01-01 02:15:59.725, 0.98, -0.101, 0.048, 0.183, -0.061, 0, -64.512, -83.694, -121.558, -31.260, -7.707, -2.667, 27.79, 0.0032, 0.68655, -0.07147, 0.72348,
 12:46:21.166,ed:35:33:d3:6c:f8, 2015-01-01 02:15:58.945, 0.885, 0.028, 0.456, 0, -0.366, 0.061, 3.829, -62.781, 143.174, -22.333, -9.633, -18.047, 27.77, 0.25296, 0.50415, -0.13736, 0.81418,
 12:46:21.166,ed:35:33:d3:6c:f8, 2015-01-01 02:15:58.945, 0.883, 0.028, 0.458, -0.183, -0.549, -0.122, 3.829, -62.787, 143.185, -22.333, -9.633, -18.047, 27.77, 0.25296, 0.50415, -0.13736, 0.81418,
 12:46:21.168,ed:40:fe:65:30:6c, 2015-01-01 02:15:58.820, 0.763, -0.095, 0.649, -0.061, -0.122, 0, -8.465, -49.51, -105.073, -24.480, -4.333, -0.527, 23.28, 0.52618, -0.37228, -0.20093, -0.73758,
 12:46:21.168,ed:40:fe:65:30:6c, 2015-01-01 02:15:58.820, 0.765, -0.096, 0.647, -0.122, -0.183, 0, -8.465, -49.51, -105.079, -24.480, -4.333, -0.527, 23.28, 0.52618, -0.37228, -0.20093, -0.73758,
 12:46:21.191,e3:ca:2d:fd:e0:8c, 2015-01-01 02:15:59.805, 1, -0.09, 0.187, 0, -0.305, 0, -25.873, -78.415, 175.303, -27.053, -10.900, -12.747, 24.38, 0.17224, 0.60834, -0.19843, 0.74884,
 12:46:21.191,e3:ca:2d:fd:e0:8c, 2015-01-01 02:15:59.805, 1, -0.09, 0.188, 0, -0.183, 0, -25.884, -78.415, 175.309, -27.053, -10.900, -12.747, 24.38, 0.17224, 0.60834, -0.19843, 0.74884,
 12:46:21.197,ed:40:fe:65:30:6c, 2015-01-01 02:15:58.820, 0.766, -0.095, 0.648, -0.122, -0.061, -0.061, -8.465, -49.51, -105.084, -24.480, -4.333, -0.527, 23.28, 0.52618, -0.37228, -0.20093, -0.73758,
 12:46:21.197,ed:40:fe:65:30:6c, 2015-01-01 02:15:58.820, 0.768, -0.093, 0.646, -0.122, -0.244, -0.122, -8.465, -49.515, -105.09, -24.480, -4.333, -0.527, 23.28, 0.52618, -0.37228, -0.20093, -0.73758,
 12:46:21.221,e3:ca:2d:fd:e0:8c, 2015-01-01 02:15:59.805, 1, -0.09, 0.188, 0, -0.183, 0, -25.889, -78.42, 175.314, -27.053, -10.900, -12.747, 24.38, 0.17224, 0.60834, -0.19843, 0.74884,
 12:46:21.221,e3:ca:2d:fd:e0:8c, 2015-01-01 02:15:59.805, 1.002, -0.09, 0.184, 0, -0.305, 0, -25.9, -78.42, 175.32, -27.053, -10.900, -12.747, 24.38, 0.17224, 0.60834, -0.19843, 0.74884,
 12:46:21.223,f6:90:cc:01:6d:25, 2015-01-01 02:15:59.725, 0.982, -0.099, 0.046, 0, -0.122, 0, -64.534, -83.688, -121.536, -31.260, -7.707, -2.667, 27.79, 0.0032, 0.68655, -0.07147, 0.72348,
 12:46:21.223,f6:90:cc:01:6d:25, 2015-01-01 02:15:59.725, 0.983, -0.099, 0.048, -0.061, -0.244, 0, -64.572, -83.694, -121.498, -31.260, -7.707, -2.667, 27.79, 0.0032, 0.68655, -0.07147, 0.72348,
 12:46:21.251,e3:ca:2d:fd:e0:8c, 2015-01-01 02:15:59.805, 1.001, -0.09, 0.184, 0, -0.305, 0, -25.911, -78.426, 175.331, -27.053, -10.900, -12.747, 24.38, 0.17224, 0.60834, -0.19843, 0.74884,
 12:46:21.251,e3:ca:2d:fd:e0:8c, 2015-01-01 02:15:59.805, 1.001, -0.09, 0.182, -0.061, -0.305, 0, -25.928, -78.431, 175.336, -27.053, -10.900, -12.747, 24.38, 0.17224, 0.60834, -0.19843, 0.74884,
 12:46:21.253,f6:90:cc:01:6d:25, 2015-01-01 02:15:59.725, 0.982, -0.098, 0.045, -0.122, -0.183, 0, -64.605, -83.694, -121.465, -31.260, -7.707, -2.667, 27.79, 0.0032, 0.68655, -0.07147, 0.72348,
 12:46:21.253,f6:90:cc:01:6d:25, 2015-01-01 02:15:59.725, 0.981, -0.1, 0.047, 0.061, -0.061, 0, -64.616, -83.694, -121.454, -31.260, -7.707, -2.667, 27.79, 0.0032, 0.68655, -0.07147, 0.72348,
 12:46:21.258,ed:40:fe:65:30:6c, 2015-01-01 02:15:58.820, 0.767, -0.093, 0.647, 0, 0, -0.122, -8.459, -49.515, -105.101, -24.480, -4.333, -0.527, 23.28, 0.52618, -0.37228, -0.20093, -0.73758,
 12:46:21.258,ed:40:fe:65:30:6c, 2015-01-01 02:15:58.820, 0.764, -0.094, 0.646, 0, 0, -0.061, -8.459, -49.515, -105.106, -24.480, -4.333, -0.527, 23.28, 0.52618, -0.37228, -0.20093, -0.73758,
 12:46:21.284,ed:35:33:d3:6c:f8, 2015-01-01 02:15:58.945, 0.886, 0.032, 0.453, 0.183, -0.977, -0.366, 3.84, -62.803, 143.196, -22.333, -9.633, -18.047, 27.77, 0.25296, 0.50415, -0.13736, 0.81418,
 12:46:21.284,ed:35:33:d3:6c:f8, 2015-01-01 02:15:58.945, 0.885, 0.033, 0.455, 0.122, -0.793, 0, 3.851, -62.82, 143.196, -22.333, -9.633, -18.047, 27.77, 0.25296, 0.50415, -0.13736, 0.81418,
 12:46:21.284,f6:90:cc:01:6d:25, 2015-01-01 02:15:59.725, 0.98, -0.101, 0.047, 0, 0, 0, -64.616, -83.694, -121.454, -31.260, -7.707, -2.667, 27.79, 0.0032, 0.68655, -0.07147, 0.72348,
 12:46:21.284,f6:90:cc:01:6d:25, 2015-01-01 02:15:59.725, 0.978, -0.099, 0.044, -0.061, -0.122, 0, -64.638, -83.694, -121.432, -31.260, -7.707, -2.667, 27.79, 0.0032, 0.68655, -0.07147, 0.72348,
 12:46:21.286,ed:35:33:d3:6c:f8, 2015-01-01 02:15:58.945, 0.882, 0.031, 0.453, 0.061, -0.793, -0.061, 3.856, -62.831, 143.185, -22.333, -9.633, -18.047, 27.77, 0.25296, 0.50415, -0.13736, 0.81418,
 12:46:21.286,ed:35:33:d3:6c:f8, 2015-01-01 02:15:58.945, 0.88, 0.032, 0.456, 0.061, -0.671, -0.061, 3.862, -62.842, 143.157, -22.333, -9.633, -18.047, 27.77, 0.25296, 0.50415, -0.13736, 0.81418,
 12:46:21.288,ed:40:fe:65:30:6c, 2015-01-01 02:15:58.820, 0.762, -0.093, 0.648, 0, 0, 0, -8.454, -49.515, -105.112, -24.633, -4.653, -0.287, 23.28, 0.52618, -0.37228, -0.20093, -0.73758,
 12:46:21.288,ed:40:fe:65:30:6c, 2015-01-01 02:15:58.820, 0.762, -0.092, 0.647, 0, 0, 0.061, -8.454, -49.515, -105.112, -24.633, -4.653, -0.287, 23.28, 0.52618, -0.37228, -0.20093, -0.73758,
 12:46:21.310,e3:ca:2d:fd:e0:8c, 2015-01-01 02:15:59.805, 1.002, -0.088, 0.183, -0.183, -0.183, 0, -25.939, -78.437, 175.347, -27.053, -10.900, -12.747, 24.38, 0.17224, 0.60834, -0.19843, 0.74884,
 12:46:21.310,e3:ca:2d:fd:e0:8c, 2015-01-01 02:15:59.805, 1.001, -0.088, 0.182, -0.244, -0.122, 0, -25.95, -78.437, 175.347, -27.053, -10.900, -12.747, 24.38, 0.17224, 0.60834, -0.19843, 0.74884,
 12:46:21.312,f6:90:cc:01:6d:25, 2015-01-01 02:15:59.725, 0.979, -0.098, 0.045, -0.305, -0.305, 0, -64.693, -83.694, -121.382, -31.287, -8.120, -2.180, 27.79, 0.0032, 0.68655, -0.07147, 0.72348,
 12:46:21.312,f6:90:cc:01:6d:25, 2015-01-01 02:15:59.725, 0.982, -0.099, 0.043, -0.366, -0.549, 0, -64.797, -83.699, -121.289, -31.287, -8.120, -2.180, 27.79, 0.0032, 0.68655, -0.07147, 0.72348,
 12:46:21.316,ed:35:33:d3:6c:f8, 2015-01-01 02:15:58.945, 0.881, 0.032, 0.455, 0.061, -0.854, -0.061, 3.867, -62.858, 143.124, -22.333, -9.633, -18.047, 27.77, 0.25262, 0.5032, -0.13718, 0.81488,
 12:46:21.316,ed:35:33:d3:6c:f8, 2015-01-01 02:15:58.945, 0.883, 0.032, 0.453, 0, -0.488, 0, 3.867, -62.869, 143.091, -22.333, -9.633, -18.047, 27.77, 0.25262, 0.5032, -0.13718, 0.81488,
 12:46:21.318,ed:40:fe:65:30:6c, 2015-01-01 02:15:58.820, 0.764, -0.091, 0.646, 0, -0.183, 0.061, -8.454, -49.515, -105.112, -24.633, -4.653, -0.287, 23.28, 0.52618, -0.37228, -0.20093, -0.73758,
 12:46:21.318,ed:40:fe:65:30:6c, 2015-01-01 02:15:58.820, 0.768, -0.093, 0.649, -0.366, -0.122, 0, -8.459, -49.515, -105.117, -24.633, -4.653, -0.287, 23.28, 0.52618, -0.37228, -0.20093, -0.73758,
 12:46:21.339,e3:ca:2d:fd:e0:8c, 2015-01-01 02:15:59.805, 1.002, -0.088, 0.182, -0.366, -0.122, 0, -25.961, -78.442, 175.347, -27.147, -10.540, -12.820, 24.38, 0.17224, 0.60834, -0.19843, 0.74884,
 12:46:21.339,e3:ca:2d:fd:e0:8c, 2015-01-01 02:15:59.805, 1.001, -0.088, 0.184, -0.305, -0.061, 0, -25.972, -78.442, 175.347, -27.147, -10.540, -12.820, 24.38, 0.17224, 0.60834, -0.19843, 0.74884,
 12:46:21.343,f6:90:cc:01:6d:25, 2015-01-01 02:15:59.725, 0.984, -0.099, 0.045, -0.305, -0.854, 0, -64.946, -83.705, -121.146, -31.287, -8.120, -2.180, 27.79, 0.0032, 0.68655, -0.07147, 0.72348,
 12:46:21.343,f6:90:cc:01:6d:25, 2015-01-01 02:15:59.725, 0.985, -0.1, 0.045, 0.122, -0.732, 0, -65.067, -83.71, -121.025, -31.287, -8.120, -2.180, 27.79, 0.0032, 0.68655, -0.07147, 0.72348,
 12:46:21.346,ed:35:33:d3:6c:f8, 2015-01-01 02:15:58.945, 0.887, 0.031, 0.456, -0.366, -0.122, 0, 3.867, -62.869, 143.069, -22.333, -9.633, -18.047, 27.77, 0.25262, 0.5032, -0.13718, 0.81488,
 12:46:21.346,ed:35:33:d3:6c:f8, 2015-01-01 02:15:58.945, 0.89, 0.03, 0.453, -0.671, -0.183, 0.122, 3.851, -62.869, 143.053, -22.333, -9.633, -18.047, 27.77, 0.25262, 0.5032, -0.13718, 0.81488,
 12:46:21.371,e3:ca:2d:fd:e0:8c, 2015-01-01 02:15:59.805, 1, -0.089, 0.184, -0.183, -0.061, 0, -25.977, -78.442, 175.347, -27.147, -10.540, -12.820, 24.38, 0.17224, 0.60834, -0.19843, 0.74884,
 12:46:21.371,e3:ca:2d:fd:e0:8c, 2015-01-01 02:15:59.805, 1, -0.091, 0.185, -0.061, -0.061, 0, -25.977, -78.448, 175.347, -27.147, -10.540, -12.820, 24.38, 0.17224, 0.60834, -0.19843, 0.74884,
 12:46:21.376,ed:35:33:d3:6c:f8, 2015-01-01 02:15:58.945, 0.889, 0.028, 0.45, -0.488, -0.305, 0.122, 3.834, -62.875, 143.053, -22.333, -9.633, -18.047, 27.77, 0.25262, 0.5032, -0.13718, 0.81488,
 12:46:21.376,ed:35:33:d3:6c:f8, 2015-01-01 02:15:58.945, 0.885, 0.028, 0.447, -0.061, -0.427, 0.122, 3.829, -62.88, 143.047, -22.333, -9.633, -18.047, 27.77, 0.25262, 0.5032, -0.13718, 0.81488,
 12:46:21.377,ed:40:fe:65:30:6c, 2015-01-01 02:15:58.820, 0.771, -0.096, 0.647, -0.61, -0.183, 0, -8.465, -49.521, -105.123, -24.633, -4.653, -0.287, 23.28, 0.52594, -0.37238, -0.20068, -0.73779,
 12:46:21.377,ed:40:fe:65:30:6c, 2015-01-01 02:15:58.820, 0.771, -0.099, 0.646, -0.427, -0.122, 0.122, -8.476, -49.521, -105.123, -24.633, -4.653, -0.287, 23.28, 0.52594, -0.37238, -0.20068, -0.73779,
 12:46:21.403,f6:90:cc:01:6d:25, 2015-01-01 02:15:59.725, 0.98, -0.101, 0.044, 0.122, -0.61, 0, -65.165, -83.716, -120.927, -31.287, -8.120, -2.180, 27.79, 0.0033, 0.68683, -0.07181, 0.72318,
 12:46:21.403,f6:90:cc:01:6d:25, 2015-01-01 02:15:59.725, 0.979, -0.098, 0.047, -0.183, -0.122, 0, -65.22, -83.716, -120.872, -31.287, -8.120, -2.180, 27.79, 0.0033, 0.68683, -0.07181, 0.72318,
 12:46:21.409,ed:40:fe:65:30:6c, 2015-01-01 02:15:58.820, 0.767, -0.098, 0.643, -0.183, 0, 0.183, -8.481, -49.521, -105.117, -24.633, -4.653, -0.287, 23.28, 0.52594, -0.37238, -0.20068, -0.73779,
 12:46:21.409,ed:40:fe:65:30:6c, 2015-01-01 02:15:58.820, 0.764, -0.096, 0.644, -0.061, 0.244, 0.061, -8.487, -49.521, -105.123, -24.633, -4.653, -0.287, 23.28, 0.52594, -0.37238, -0.20068, -0.73779,
 12:46:21.431,e3:ca:2d:fd:e0:8c, 2015-01-01 02:15:59.805, 0.999, -0.09, 0.185, 0, -0.122, 0, -25.983, -78.448, 175.347, -27.147, -10.540, -12.820, 24.38, 0.17264, 0.60855, -0.19897, 0.74841,
 12:46:21.431,e3:ca:2d:fd:e0:8c, 2015-01-01 02:15:59.805, 1.001, -0.088, 0.185, 0, -0.183, 0, -25.988, -78.448, 175.353, -27.147, -10.540, -12.820, 24.38, 0.17264, 0.60855, -0.19897, 0.74841,
 12:46:21.433,f6:90:cc:01:6d:25, 2015-01-01 02:16:00.085, 0.979, -0.096, 0.047, -0.183, -0.122, 0, -65.242, -83.716, -120.855, -31.287, -8.120, -2.180, 27.79, 0.0033, 0.68683, -0.07181, 0.72318,
 12:46:21.433,f6:90:cc:01:6d:25, 2015-01-01 02:16:00.085, 0.98, -0.096, 0.043, 0, 0, 0, -65.259, -83.716, -120.839, -31.287, -8.120, -2.180, 27.79, 0.0033, 0.68683, -0.07181, 0.72318,
 12:46:21.435,ed:35:33:d3:6c:f8, 2015-01-01 02:15:58.945, 0.882, 0.029, 0.447, 0, -0.061, 0.061, 3.823, -62.886, 143.064, -22.333, -9.633, -18.047, 27.77, 0.25262, 0.5032, -0.13718, 0.81488,
 12:46:21.435,ed:35:33:d3:6c:f8, 2015-01-01 02:15:58.945, 0.88, 0.03, 0.451, -0.061, 0.244, -0.122, 3.829, -62.88, 143.091, -22.333, -9.633, -18.047, 27.77, 0.25262, 0.5032, -0.13718, 0.81488,
 12:46:21.437,ed:40:fe:65:30:6c, 2015-01-01 02:15:59.205, 0.761, -0.094, 0.645, -0.061, 0.488, -0.061, -8.481, -49.51, -105.128, -24.633, -4.653, -0.287, 23.28, 0.52594, -0.37238, -0.20068, -0.73779,
 12:46:21.437,ed:40:fe:65:30:6c, 2015-01-01 02:15:59.205, 0.762, -0.091, 0.646, -0.183, 0.549, -0.244, -8.481, -49.499, -105.139, -24.633, -4.653, -0.287, 23.28, 0.52594, -0.37238, -0.20068, -0.73779,
 12:46:21.461,e3:ca:2d:fd:e0:8c, 2015-01-01 02:16:00.160, 1.001, -0.086, 0.184, 0.183, -0.183, 0, -25.994, -78.453, 175.358, -27.147, -10.540, -12.820, 24.38, 0.17264, 0.60855, -0.19897, 0.74841,
 12:46:21.461,e3:ca:2d:fd:e0:8c, 2015-01-01 02:16:00.160, 1.002, -0.087, 0.184, 0.061, -0.122, 0, -25.994, -78.453, 175.358, -27.147, -10.540, -12.820, 24.38, 0.17264, 0.60855, -0.19897, 0.74841,
 12:46:21.463,f6:90:cc:01:6d:25, 2015-01-01 02:16:00.085, 0.98, -0.096, 0.046, -0.061, -0.183, 0, -65.264, -83.716, -120.828, -31.287, -8.120, -2.180, 27.79, 0.0033, 0.68683, -0.07181, 0.72318,
 12:46:21.463,f6:90:cc:01:6d:25, 2015-01-01 02:16:00.085, 0.982, -0.099, 0.042, -0.244, -0.305, 0, -65.297, -83.716, -120.795, -31.287, -8.120, -2.180, 27.79, 0.0033, 0.68683, -0.07181, 0.72318,
 12:46:21.465,ed:35:33:d3:6c:f8, 2015-01-01 02:15:58.945, 0.883, 0.032, 0.453, -0.366, 0.671, -0.305, 3.829, -62.869, 143.119, -22.333, -9.633, -18.047, 27.87, 0.25262, 0.5032, -0.13718, 0.81488,
 12:46:21.465,ed:35:33:d3:6c:f8, 2015-01-01 02:15:58.945, 0.881, 0.031, 0.456, -0.366, 0.488, -0.366, 3.834, -62.858, 143.13, -22.333, -9.633, -18.047, 27.87, 0.25262, 0.5032, -0.13718, 0.81488,
 12:46:21.468,ed:40:fe:65:30:6c, 2015-01-01 02:15:59.205, 0.761, -0.092, 0.646, -0.122, 0.427, -0.366, -8.47, -49.493, -105.156, -24.633, -4.653, -0.287, 23.28, 0.52594, -0.37238, -0.20068, -0.73779,
 12:46:21.468,ed:40:fe:65:30:6c, 2015-01-01 02:15:59.205, 0.765, -0.092, 0.648, -0.122, 0.305, -0.427, -8.459, -49.488, -105.172, -24.633, -4.653, -0.287, 23.28, 0.52594, -0.37238, -0.20068, -0.73779,
 12:46:21.491,e3:ca:2d:fd:e0:8c, 2015-01-01 02:16:00.160, 1.001, -0.088, 0.182, 0, 0, 0, -25.994, -78.453, 175.358, -27.147, -10.540, -12.820, 24.38, 0.17264, 0.60855, -0.19897, 0.74841,
 12:46:21.491,e3:ca:2d:fd:e0:8c, 2015-01-01 02:16:00.160, 1.001, -0.088, 0.184, 0, 0, 0, -25.988, -78.453, 175.353, -27.147, -10.540, -12.820, 24.38, 0.17264, 0.60855, -0.19897, 0.74841,
 12:46:21.523,f6:90:cc:01:6d:25, 2015-01-01 02:16:00.085, 0.983, -0.1, 0.046, -0.122, -0.61, 0, -65.363, -83.721, -120.729, -31.287, -8.120, -2.180, 27.79, 0.0033, 0.68683, -0.07181, 0.72318,
 12:46:21.523,f6:90:cc:01:6d:25, 2015-01-01 02:16:00.085, 0.983, -0.099, 0.045, -0.244, -0.305, 0, -65.451, -83.727, -120.641, -31.287, -8.120, -2.180, 27.79, 0.0033, 0.68683, -0.07181, 0.72318,
 12:46:21.551,e3:ca:2d:fd:e0:8c, 2015-01-01 02:16:00.160, 1.001, -0.089, 0.184, -0.061, -0.061, 0, -25.988, -78.459, 175.353, -27.147, -10.540, -12.820, 24.38, 0.17264, 0.60855, -0.19897, 0.74841,
 12:46:21.551,e3:ca:2d:fd:e0:8c, 2015-01-01 02:16:00.160, 1.003, -0.089, 0.183, -0.061, -0.122, 0, -25.994, -78.459, 175.353, -27.147, -10.540, -12.820, 24.38, 0.17264, 0.60855, -0.19897, 0.74841,
 12:46:21.559,ed:40:fe:65:30:6c, 2015-01-01 02:15:59.205, 0.766, -0.094, 0.648, -0.183, 0.305, -0.488, -8.448, -49.482, -105.194, -24.633, -4.653, -0.287, 23.28, 0.52594, -0.37238, -0.20068, -0.73779,
 12:46:21.559,ed:40:fe:65:30:6c, 2015-01-01 02:15:59.205, 0.767, -0.094, 0.646, -0.183, 0.488, -0.366, -8.438, -49.477, -105.211, -24.633, -4.653, -0.287, 23.28, 0.52594, -0.37238, -0.20068, -0.73779,
 12:46:21.559,ed:40:fe:65:30:6c, 2015-01-01 02:15:59.205, 0.767, -0.092, 0.647, 0, 0.61, -0.366, -8.427, -49.466, -105.227, -24.633, -4.653, -0.287, 23.28, 0.52594, -0.37238, -0.20068, -0.73779,
 12:46:21.559,ed:40:fe:65:30:6c, 2015-01-01 02:15:59.205, 0.764, -0.095, 0.649, 0.122, 0.488, -0.244, -8.416, -49.455, -105.244, -24.633, -4.653, -0.287, 23.28, 0.52594, -0.37238, -0.20068, -0.73779,
 12:46:21.581,e3:ca:2d:fd:e0:8c, 2015-01-01 02:16:00.160, 1.002, -0.089, 0.183, -0.122, -0.061, 0, -25.994, -78.459, 175.353, -27.147, -10.540, -12.820, 24.38, 0.17264, 0.60855, -0.19897, 0.74841,
 12:46:21.581,e3:ca:2d:fd:e0:8c, 2015-01-01 02:16:00.160, 1.001, -0.091, 0.182, -0.183, -0.061, 0, -25.999, -78.464, 175.353, -27.147, -10.540, -12.820, 24.38, 0.17264, 0.60855, -0.19897, 0.74841,
 12:46:21.585,ed:35:33:d3:6c:f8, 2015-01-01 02:15:58.945, 0.884, 0.032, 0.456, -0.305, 0.793, -0.549, 3.845, -62.842, 143.13, -22.333, -9.633, -18.047, 27.87, 0.25262, 0.5032, -0.13718, 0.81488,
 12:46:21.585,ed:35:33:d3:6c:f8, 2015-01-01 02:15:58.945, 0.884, 0.032, 0.453, -0.366, 1.038, -0.549, 3.856, -62.825, 143.13, -22.333, -9.633, -18.047, 27.87, 0.25262, 0.5032, -0.13718, 0.81488,
 12:46:21.585,f6:90:cc:01:6d:25, 2015-01-01 02:16:00.085, 0.982, -0.097, 0.042, -0.305, -0.122, 0, -65.5, -83.727, -120.597, -31.287, -8.120, -2.180, 27.79, 0.0033, 0.68683, -0.07181, 0.72318,
 12:46:21.585,f6:90:cc:01:6d:25, 2015-01-01 02:16:00.085, 0.981, -0.102, 0.044, -0.305, -0.183, 0, -65.528, -83.727, -120.575, -31.287, -8.120, -2.180, 27.79, 0.0033, 0.68683, -0.07181, 0.72318,
 12:46:21.587,ed:40:fe:65:30:6c, 2015-01-01 02:15:59.205, 0.765, -0.098, 0.65, -0.122, 0.366, -0.122, -8.41, -49.449, -105.255, -24.633, -4.653, -0.287, 23.28, 0.52594, -0.37238, -0.20068, -0.73779,
 12:46:21.587,ed:40:fe:65:30:6c, 2015-01-01 02:15:59.205, 0.768, -0.095, 0.644, -0.122, 0.305, 0, -8.41, -49.444, -105.26, -24.633, -4.653, -0.287, 23.28, 0.52594, -0.37238, -0.20068, -0.73779,
 12:46:21.609,e3:ca:2d:fd:e0:8c, 2015-01-01 02:16:00.160, 1.002, -0.091, 0.182, -0.122, 0, 0, -25.999, -78.464, 175.353, -27.147, -10.540, -12.820, 24.38, 0.17264, 0.60855, -0.19897, 0.74841,
 12:46:21.609,e3:ca:2d:fd:e0:8c, 2015-01-01 02:16:00.160, 1.002, -0.091, 0.183, -0.061, 0.122, 0, -25.999, -78.459, 175.347, -27.147, -10.540, -12.820, 24.38, 0.17264, 0.60855, -0.19897, 0.74841,
 12:46:21.613,f6:90:cc:01:6d:25, 2015-01-01 02:16:00.085, 0.981, -0.103, 0.038, -0.061, 0, 0, -65.555, -83.727, -120.547, -31.287, -8.120, -2.180, 27.79, 0.0033, 0.68683, -0.07181, 0.72318,
 12:46:21.613,f6:90:cc:01:6d:25, 2015-01-01 02:16:00.085, 0.983, -0.099, 0.041, -0.244, -0.183, 0, -65.572, -83.727, -120.542, -31.287, -8.120, -2.180, 27.79, 0.0033, 0.68683, -0.07181, 0.72318,
 12:46:21.615,ed:35:33:d3:6c:f8, 2015-01-01 02:15:59.510, 0.886, 0.033, 0.45, -0.366, 1.221, -0.366, 3.867, -62.798, 143.108, -22.333, -9.633, -18.047, 27.87, 0.25262, 0.5032, -0.13718, 0.81488,
 12:46:21.615,ed:35:33:d3:6c:f8, 2015-01-01 02:15:59.510, 0.886, 0.033, 0.455, -0.244, 1.16, -0.366, 3.873, -62.776, 143.075, -22.333, -9.633, -18.047, 27.87, 0.25262, 0.5032, -0.13718, 0.81488,
 12:46:21.646,ed:35:33:d3:6c:f8, 2015-01-01 02:15:59.510, 0.883, 0.032, 0.458, 0, 1.099, -0.183, 3.878, -62.754, 143.042, -22.333, -9.633, -18.047, 27.87, 0.25262, 0.5032, -0.13718, 0.81488,
 12:46:21.646,ed:35:33:d3:6c:f8, 2015-01-01 02:15:59.510, 0.883, 0.027, 0.457, -0.366, 0.793, 0, 3.873, -62.737, 143.009, -22.333, -9.633, -18.047, 27.87, 0.25262, 0.5032, -0.13718, 0.81488,
 12:46:21.648,ed:40:fe:65:30:6c, 2015-01-01 02:15:59.205, 0.771, -0.096, 0.643, 0.305, 0.366, 0.122, -8.405, -49.438, -105.26, -24.633, -4.653, -0.287, 23.28, 0.52594, -0.37238, -0.20068, -0.73779,
 12:46:21.648,ed:40:fe:65:30:6c, 2015-01-01 02:15:59.205, 0.766, -0.095, 0.646, 0.732, 0.549, 0.244, -8.394, -49.427, -105.26, -24.633, -4.653, -0.287, 23.28, 0.52594, -0.37238, -0.20068, -0.73779,
 12:46:21.672,f6:90:cc:01:6d:25, 2015-01-01 02:16:00.085, 0.984, -0.1, 0.043, -0.366, -0.122, 0, -65.616, -83.727, -120.515, -31.287, -8.120, -2.180, 27.79, 0.0033, 0.68683, -0.07181, 0.72318,
 12:46:21.672,f6:90:cc:01:6d:25, 2015-01-01 02:16:00.085, 0.982, -0.103, 0.045, 0, 0, 0, -65.649, -83.727, -120.498, -31.287, -8.120, -2.180, 27.79, 0.0033, 0.68683, -0.07181, 0.72318,
 12:46:21.674,ed:35:33:d3:6c:f8, 2015-01-01 02:15:59.510, 0.885, 0.03, 0.453, -0.061, 0.366, -0.122, 3.873, -62.726, 142.976, -22.333, -9.633, -18.047, 27.87, 0.25262, 0.5032, -0.13718, 0.81488,
 12:46:21.674,ed:35:33:d3:6c:f8, 2015-01-01 02:15:59.510, 0.889, 0.031, 0.448, 0.366, 0.427, -0.061, 3.878, -62.721, 142.943, -22.333, -9.633, -18.047, 27.87, 0.25262, 0.5032, -0.13718, 0.81488,
 12:46:21.676,ed:35:33:d3:6c:f8, 2015-01-01 02:15:59.510, 0.884, 0.032, 0.453, 0.916, 0.122, 0.061, 3.895, -62.715, 142.916, -22.333, -9.633, -18.047, 27.87, 0.25262, 0.5032, -0.13718, 0.81488,
 12:46:21.676,ed:35:33:d3:6c:f8, 2015-01-01 02:15:59.510, 0.881, 0.033, 0.456, 1.099, 0.61, 0.488, 3.9, -62.71, 142.899, -22.333, -9.633, -18.047, 27.87, 0.25262, 0.5032, -0.13718, 0.81488,
 12:46:21.678,ed:40:fe:65:30:6c, 2015-01-01 02:15:59.205, 0.76, -0.094, 0.65, 0.916, 0.732, 0.488, -8.388, -49.411, -105.249, -24.553, -4.460, -0.227, 23.28, 0.52594, -0.37238, -0.20068, -0.73779,
 12:46:21.678,ed:40:fe:65:30:6c, 2015-01-01 02:15:59.205, 0.756, -0.095, 0.649, 0.793, 0.61, 0.61, -8.383, -49.4, -105.238, -24.553, -4.460, -0.227, 23.28, 0.52594, -0.37238, -0.20068, -0.73779,
 12:46:21.702,e3:ca:2d:fd:e0:8c, 2015-01-01 02:16:00.160, 1.002, -0.091, 0.182, 0, 0.183, 0, -25.994, -78.459, 175.336, -27.147, -10.540, -12.820, 24.38, 0.17264, 0.60855, -0.19897, 0.74841,
 12:46:21.702,e3:ca:2d:fd:e0:8c, 2015-01-01 02:16:00.160, 1.001, -0.089, 0.181, 0.061, 0.122, 0, -25.994, -78.459, 175.325, -27.147, -10.540, -12.820, 24.38, 0.17264, 0.60855, -0.19897, 0.74841,
 12:46:21.703,f6:90:cc:01:6d:25, 2015-01-01 02:16:00.085, 0.978, -0.101, 0.04, 0.305, 0.244, 0, -65.649, -83.727, -120.504, -31.287, -8.120, -2.180, 27.79, 0.0033, 0.68683, -0.07181, 0.72318,
 12:46:21.703,f6:90:cc:01:6d:25, 2015-01-01 02:16:00.085, 0.978, -0.099, 0.04, 0.549, 0.305, 0, -65.616, -83.727, -120.547, -31.287, -8.120, -2.180, 27.79, 0.0033, 0.68683, -0.07181, 0.72318,
 12:46:21.704,ed:35:33:d3:6c:f8, 2015-01-01 02:15:59.510, 0.876, 0.028, 0.461, 0.732, 0.488, 0.61, 3.895, -62.699, 142.91, -22.333, -9.633, -18.047, 27.87, 0.25262, 0.5032, -0.13718, 0.81488,
 12:46:21.704,ed:35:33:d3:6c:f8, 2015-01-01 02:15:59.510, 0.881, 0.027, 0.462, 0.244, 0.061, 0.305, 3.884, -62.699, 142.927, -22.333, -9.633, -18.047, 27.87, 0.25262, 0.5032, -0.13718, 0.81488,
 12:46:21.708,ed:40:fe:65:30:6c, 2015-01-01 02:15:59.205, 0.759, -0.095, 0.651, 0.488, 0.183, 0.488, -8.383, -49.395, -105.227, -24.553, -4.460, -0.227, 23.28, 0.52594, -0.37238, -0.20068, -0.73779,
 12:46:21.708,ed:40:fe:65:30:6c, 2015-01-01 02:15:59.205, 0.765, -0.094, 0.652, 0.244, -0.122, 0.305, -8.383, -49.395, -105.222, -24.553, -4.460, -0.227, 23.28, 0.52594, -0.37238, -0.20068, -0.73779,
 12:46:21.730,e3:ca:2d:fd:e0:8c, 2015-01-01 02:16:00.160, 1.001, -0.088, 0.183, 0.061, 0.061, 0, -25.988, -78.453, 175.32, -26.987, -10.473, -12.167, 24.38, 0.17264, 0.60855, -0.19897, 0.74841,
 12:46:21.730,e3:ca:2d:fd:e0:8c, 2015-01-01 02:16:00.160, 1.002, -0.088, 0.184, 0, 0.061, 0, -25.988, -78.453, 175.314, -26.987, -10.473, -12.167, 24.38, 0.17264, 0.60855, -0.19897, 0.74841,
 12:46:21.734,ed:35:33:d3:6c:f8, 2015-01-01 02:15:59.510, 0.884, 0.029, 0.461, 0.183, -0.183, 0.244, 3.878, -62.699, 142.932, -22.333, -9.633, -18.047, 27.87, 0.25262, 0.5032, -0.13718, 0.81488,
 12:46:21.734,ed:35:33:d3:6c:f8, 2015-01-01 02:15:59.510, 0.884, 0.031, 0.457, 0.244, -0.366, 0.244, 3.873, -62.704, 142.938, -22.333, -9.633, -18.047, 27.87, 0.25262, 0.5032, -0.13718, 0.81488,
 12:46:21.762,f6:90:cc:01:6d:25, 2015-01-01 02:16:00.085, 0.981, -0.096, 0.043, 0.244, 0.061, 0, -65.583, -83.721, -120.591, -31.607, -7.913, -2.813, 27.79, 0.0033, 0.68683, -0.07181, 0.72318,
 12:46:21.762,f6:90:cc:01:6d:25, 2015-01-01 02:16:00.085, 0.984, -0.097, 0.045, -0.244, -0.244, 0, -65.599, -83.721, -120.586, -31.607, -7.913, -2.813, 27.79, 0.0033, 0.68683, -0.07181, 0.72318,
 12:46:21.768,ed:40:fe:65:30:6c, 2015-01-01 02:15:59.205, 0.766, -0.094, 0.65, 0.183, -0.183, 0.244, -8.383, -49.4, -105.216, -24.553, -4.460, -0.227, 23.28, 0.52588, -0.37143, -0.20026, -0.73843,
 12:46:21.768,ed:40:fe:65:30:6c, 2015-01-01 02:15:59.205, 0.764, -0.093, 0.649, 0.183, 0, 0.244, -8.388, -49.395, -105.211, -24.553, -4.460, -0.227, 23.28, 0.52588, -0.37143, -0.20026, -0.73843,
 12:46:21.790,e3:ca:2d:fd:e0:8c, 2015-01-01 02:16:00.160, 1.001, -0.087, 0.183, -0.061, 0.061, 0, -25.988, -78.453, 175.309, -26.987, -10.473, -12.167, 24.38, 0.17264, 0.60855, -0.19897, 0.74841,
 12:46:21.790,e3:ca:2d:fd:e0:8c, 2015-01-01 02:16:00.160, 1, -0.089, 0.183, 0, 0.061, 0, -25.983, -78.453, 175.303, -26.987, -10.473, -12.167, 24.38, 0.17264, 0.60855, -0.19897, 0.74841,
 12:46:21.792,f6:90:cc:01:6d:25, 2015-01-01 02:16:00.085, 0.982, -0.1, 0.048, -0.061, -0.305, 0, -65.654, -83.727, -120.542, -31.607, -7.913, -2.813, 27.79, 0.0033, 0.68683, -0.07181, 0.72318,
 12:46:21.792,f6:90:cc:01:6d:25, 2015-01-01 02:16:00.085, 0.981, -0.101, 0.046, 0.305, -0.183, 0, -65.704, -83.727, -120.498, -31.607, -7.913, -2.813, 27.79, 0.0033, 0.68683, -0.07181, 0.72318,
 12:46:21.796,ed:35:33:d3:6c:f8, 2015-01-01 02:15:59.510, 0.882, 0.034, 0.453, 0.183, -0.122, 0.305, 3.867, -62.704, 142.949, -22.333, -9.633, -18.047, 27.87, 0.25262, 0.5032, -0.13718, 0.81488,
 12:46:21.796,ed:35:33:d3:6c:f8, 2015-01-01 02:15:59.510, 0.881, 0.032, 0.456, 0.061, 0.183, 0.488, 3.845, -62.699, 142.954, -22.333, -9.633, -18.047, 27.87, 0.25262, 0.5032, -0.13718, 0.81488,
 12:46:21.798,ed:40:fe:65:30:6c, 2015-01-01 02:15:59.565, 0.762, -0.093, 0.648, 0.244, 0.305, 0.366, -8.388, -49.389, -105.205, -24.553, -4.460, -0.227, 23.28, 0.52588, -0.37143, -0.20026, -0.73843,
 12:46:21.798,ed:40:fe:65:30:6c, 2015-01-01 02:15:59.565, 0.758, -0.095, 0.649, 0.244, 0.366, 0.488, -8.388, -49.378, -105.194, -24.553, -4.460, -0.227, 23.28, 0.52588, -0.37143, -0.20026, -0.73843,
 12:46:21.820,e3:ca:2d:fd:e0:8c, 2015-01-01 02:16:00.160, 1, -0.088, 0.184, 0.061, 0.122, 0, -25.977, -78.453, 175.298, -26.987, -10.473, -12.167, 24.38, 0.17264, 0.60855, -0.19897, 0.74841,
 12:46:21.820,e3:ca:2d:fd:e0:8c, 2015-01-01 02:16:00.160, 1, -0.089, 0.185, 0.183, 0, 0, -25.972, -78.453, 175.292, -26.987, -10.473, -12.167, 24.38, 0.17264, 0.60855, -0.19897, 0.74841,
 12:46:21.822,f6:90:cc:01:6d:25, 2015-01-01 02:16:00.085, 0.979, -0.1, 0.045, 0.732, -0.183, 0, -65.726, -83.727, -120.465, -31.607, -7.913, -2.813, 27.79, 0.0033, 0.68683, -0.07181, 0.72318,
 12:46:21.822,f6:90:cc:01:6d:25, 2015-01-01 02:16:00.085, 0.978, -0.099, 0.046, 0.916, -0.244, 0, -65.748, -83.727, -120.427, -31.607, -7.913, -2.813, 27.79, 0.0033, 0.68683, -0.07181, 0.72318,
 12:46:21.826,ed:35:33:d3:6c:f8, 2015-01-01 02:15:59.510, 0.878, 0.029, 0.457, 0.122, -0.122, 0.671, 3.823, -62.704, 142.976, -21.960, -9.400, -17.873, 27.87, 0.25262, 0.5032, -0.13718, 0.81488,
 12:46:21.826,ed:35:33:d3:6c:f8, 2015-01-01 02:15:59.510, 0.88, 0.027, 0.457, 0.061, 0.366, 0.549, 3.801, -62.693, 143.004, -21.960, -9.400, -17.873, 27.87, 0.25262, 0.5032, -0.13718, 0.81488,
 12:46:21.828,ed:40:fe:65:30:6c, 2015-01-01 02:15:59.565, 0.76, -0.094, 0.65, 0.183, 0.183, 0.488, -8.394, -49.373, -105.183, -24.553, -4.460, -0.227, 23.28, 0.52588, -0.37143, -0.20026, -0.73843,
 12:46:21.828,ed:40:fe:65:30:6c, 2015-01-01 02:15:59.565, 0.763, -0.091, 0.65, 0.183, 0.183, 0.244, -8.394, -49.367, -105.183, -24.553, -4.460, -0.227, 23.28, 0.52588, -0.37143, -0.20026, -0.73843,
 12:46:21.851,e3:ca:2d:fd:e0:8c, 2015-01-01 02:16:00.160, 1, -0.089, 0.186, 0.244, 0.061, 0, -25.966, -78.453, 175.287, -26.987, -10.473, -12.167, 24.38, 0.17297, 0.60852, -0.19922, 0.74832,
 12:46:21.851,e3:ca:2d:fd:e0:8c, 2015-01-01 02:16:00.160, 1, -0.09, 0.186, 0.061, 0.061, 0, -25.961, -78.453, 175.281, -26.987, -10.473, -12.167, 24.38, 0.17297, 0.60852, -0.19922, 0.74832,
 12:46:21.853,f6:90:cc:01:6d:25, 2015-01-01 02:16:00.085, 0.98, -0.096, 0.045, 0.488, -0.244, 0, -65.775, -83.727, -120.388, -31.607, -7.913, -2.813, 27.79, 0.00366, 0.68726, -0.07236, 0.72275,
 12:46:21.853,f6:90:cc:01:6d:25, 2015-01-01 02:16:00.085, 0.983, -0.096, 0.045, 0.244, -0.305, 0, -65.808, -83.732, -120.339, -31.607, -7.913, -2.813, 27.79, 0.00366, 0.68726, -0.07236, 0.72275,
 12:46:21.855,ed:35:33:d3:6c:f8, 2015-01-01 02:15:59.510, 0.883, 0.031, 0.459, 0.122, 0, 0.061, 3.801, -62.693, 143.031, -21.960, -9.400, -17.873, 27.87, 0.25262, 0.5032, -0.13718, 0.81488,
 12:46:21.855,ed:35:33:d3:6c:f8, 2015-01-01 02:15:59.510, 0.886, 0.035, 0.454, 0.488, -0.061, 0.061, 3.812, -62.693, 143.036, -21.960, -9.400, -17.873, 27.87, 0.25262, 0.5032, -0.13718, 0.81488,
 12:46:21.881,e3:ca:2d:fd:e0:8c, 2015-01-01 02:16:00.160, 1, -0.091, 0.187, 0, 0.061, 0, -25.955, -78.448, 175.276, -26.987, -10.473, -12.167, 24.38, 0.17297, 0.60852, -0.19922, 0.74832,
 12:46:21.881,e3:ca:2d:fd:e0:8c, 2015-01-01 02:16:00.160, 1.001, -0.089, 0.185, 0.122, 0.061, 0, -25.95, -78.448, 175.27, -26.987, -10.473, -12.167, 24.38, 0.17297, 0.60852, -0.19922, 0.74832,
 12:46:21.882,f6:90:cc:01:6d:25, 2015-01-01 02:16:00.085, 0.984, -0.098, 0.044, 0, -0.244, 0, -65.847, -83.732, -120.295, -31.607, -7.913, -2.813, 27.79, 0.00366, 0.68726, -0.07236, 0.72275,
 12:46:21.882,f6:90:cc:01:6d:25, 2015-01-01 02:16:00.085, 0.983, -0.1, 0.042, 0.244, -0.122, 0, -65.874, -83.732, -120.262, -31.607, -7.913, -2.813, 27.79, 0.00366, 0.68726, -0.07236, 0.72275,
 12:46:21.892,ed:40:fe:65:30:6c, 2015-01-01 02:15:59.565, 0.767, -0.091, 0.649, 0.244, 0.122, 0.122, -8.388, -49.367, -105.178, -24.553, -4.460, -0.227, 23.28, 0.52588, -0.37143, -0.20026, -0.73843,
 12:46:21.892,ed:40:fe:65:30:6c, 2015-01-01 02:15:59.565, 0.765, -0.092, 0.649, 0.366, 0.305, 0.244, -8.388, -49.356, -105.178, -24.553, -4.460, -0.227, 23.28, 0.52588, -0.37143, -0.20026, -0.73843,
 12:46:21.910,e3:ca:2d:fd:e0:8c, 2015-01-01 02:16:00.605, 1.003, -0.088, 0.183, 0.183, 0.061, 0, -25.944, -78.448, 175.265, -26.987, -10.473, -12.167, 24.38, 0.17297, 0.60852, -0.19922, 0.74832,
 12:46:21.910,e3:ca:2d:fd:e0:8c, 2015-01-01 02:16:00.605, 1.001, -0.087, 0.183, 0.183, 0, 0, -25.939, -78.448, 175.265, -26.987, -10.473, -12.167, 24.38, 0.17297, 0.60852, -0.19922, 0.74832,
 12:46:21.912,f6:90:cc:01:6d:25, 2015-01-01 02:16:00.560, 0.98, -0.096, 0.043, 0.366, -0.122, 0, -65.885, -83.738, -120.24, -31.607, -7.913, -2.813, 27.79, 0.00366, 0.68726, -0.07236, 0.72275,
 12:46:21.912,f6:90:cc:01:6d:25, 2015-01-01 02:16:00.560, 0.977, -0.093, 0.043, 0.122, -0.305, 0, -65.912, -83.738, -120.207, -31.607, -7.913, -2.813, 27.79, 0.00366, 0.68726, -0.07236, 0.72275,
 12:46:21.916,ed:40:fe:65:30:6c, 2015-01-01 02:15:59.565, 0.761, -0.091, 0.65, 0.122, 0.427, 0.244, -8.383, -49.345, -105.172, -24.553, -4.460, -0.227, 23.28, 0.52588, -0.37143, -0.20026, -0.73843,
 12:46:21.916,ed:40:fe:65:30:6c, 2015-01-01 02:15:59.565, 0.758, -0.09, 0.651, 0, 0.549, 0.061, -8.383, -49.334, -105.178, -24.553, -4.460, -0.227, 23.28, 0.52588, -0.37143, -0.20026, -0.73843,
 12:46:21.940,e3:ca:2d:fd:e0:8c, 2015-01-01 02:16:00.605, 1.002, -0.087, 0.181, 0.061, 0, 0, -25.933, -78.448, 175.259, -26.987, -10.473, -12.167, 24.38, 0.17297, 0.60852, -0.19922, 0.74832,
 12:46:21.940,e3:ca:2d:fd:e0:8c, 2015-01-01 02:16:00.605, 1.002, -0.087, 0.181, -0.061, -0.061, 0, -25.933, -78.448, 175.259, -26.987, -10.473, -12.167, 24.38, 0.17297, 0.60852, -0.19922, 0.74832,
 12:46:21.942,f6:90:cc:01:6d:25, 2015-01-01 02:16:00.560, 0.978, -0.094, 0.041, -0.061, -0.427, 0, -65.967, -83.743, -120.146, -31.607, -7.913, -2.813, 27.79, 0.00366, 0.68726, -0.07236, 0.72275,
 12:46:21.942,f6:90:cc:01:6d:25, 2015-01-01 02:16:00.560, 0.979, -0.098, 0.042, -0.183, -0.549, 0, -66.05, -83.743, -120.064, -31.607, -7.913, -2.813, 27.79, 0.00366, 0.68726, -0.07236, 0.72275,
 12:46:21.948,ed:40:fe:65:30:6c, 2015-01-01 02:15:59.565, 0.758, -0.092, 0.65, -0.061, 0.427, -0.061, -8.377, -49.329, -105.183, -24.553, -4.460, -0.227, 23.28, 0.52588, -0.37143, -0.20026, -0.73843,
 12:46:21.948,ed:40:fe:65:30:6c, 2015-01-01 02:15:59.565, 0.761, -0.094, 0.65, -0.244, 0.244, -0.183, -8.372, -49.323, -105.194, -24.553, -4.460, -0.227, 23.28, 0.52588, -0.37143, -0.20026, -0.73843,
 12:46:21.976,ed:35:33:d3:6c:f8, 2015-01-01 02:15:59.510, 0.883, 0.033, 0.456, 0.366, 0.061, 0.366, 3.807, -62.693, 143.064, -21.960, -9.400, -17.873, 27.87, 0.25406, 0.50211, -0.13782, 0.815,
 12:46:21.976,ed:35:33:d3:6c:f8, 2015-01-01 02:15:59.510, 0.879, 0.032, 0.456, 0.061, 0.244, 0.244, 3.796, -62.688, 143.069, -21.960, -9.400, -17.873, 27.87, 0.25406, 0.50211, -0.13782, 0.815,
 12:46:22.000,e3:ca:2d:fd:e0:8c, 2015-01-01 02:16:00.605, 1.001, -0.087, 0.181, -0.122, 0, 0, -25.933, -78.448, 175.259, -26.987, -10.473, -12.167, 24.38, 0.17297, 0.60852, -0.19922, 0.74832,
 12:46:22.000,e3:ca:2d:fd:e0:8c, 2015-01-01 02:16:00.605, 1.002, -0.087, 0.183, -0.061, 0.061, 0, -25.933, -78.448, 175.254, -26.987, -10.473, -12.167, 24.38, 0.17297, 0.60852, -0.19922, 0.74832,
 12:46:22.002,f6:90:cc:01:6d:25, 2015-01-01 02:16:00.560, 0.982, -0.098, 0.042, 0, -0.549, 0, -66.143, -83.749, -119.971, -31.607, -7.913, -2.813, 27.79, 0.00366, 0.68726, -0.07236, 0.72275,
 12:46:22.002,f6:90:cc:01:6d:25, 2015-01-01 02:16:00.560, 0.983, -0.098, 0.042, 0.122, -0.671, 0, -66.242, -83.754, -119.866, -31.607, -7.913, -2.813, 27.79, 0.00366, 0.68726, -0.07236, 0.72275,
 12:46:22.004,ed:35:33:d3:6c:f8, 2015-01-01 02:15:59.925, 0.878, 0.032, 0.458, 0, 0.488, 0, 3.801, -62.677, 143.042, -21.960, -9.400, -17.873, 27.87, 0.25406, 0.50211, -0.13782, 0.815,
 12:46:22.004,ed:35:33:d3:6c:f8, 2015-01-01 02:15:59.925, 0.879, 0.03, 0.458, -0.244, 0.61, 0, 3.796, -62.661, 143.004, -21.960, -9.400, -17.873, 27.87, 0.25406, 0.50211, -0.13782, 0.815,
 12:46:22.006,ed:35:33:d3:6c:f8, 2015-01-01 02:15:59.925, 0.882, 0.029, 0.458, -0.427, 0.244, -0.061, 3.79, -62.655, 142.965, -21.960, -9.400, -17.873, 27.87, 0.25406, 0.50211, -0.13782, 0.815,
 12:46:22.006,ed:35:33:d3:6c:f8, 2015-01-01 02:15:59.925, 0.883, 0.029, 0.458, -0.183, 0.061, 0, 3.785, -62.655, 142.927, -21.960, -9.400, -17.873, 27.87, 0.25406, 0.50211, -0.13782, 0.815,
 12:46:22.030,e3:ca:2d:fd:e0:8c, 2015-01-01 02:16:00.605, 1.001, -0.089, 0.184, 0, 0.061, 0, -25.928, -78.448, 175.248, -26.987, -10.473, -12.167, 24.38, 0.17297, 0.60852, -0.19922, 0.74832,
 12:46:22.030,e3:ca:2d:fd:e0:8c, 2015-01-01 02:16:00.605, 1.001, -0.09, 0.185, 0.061, 0.061, 0, -25.922, -78.448, 175.243, -26.987, -10.473, -12.167, 24.38, 0.17297, 0.60852, -0.19922, 0.74832,
 12:46:22.032,f6:90:cc:01:6d:25, 2015-01-01 02:16:00.560, 0.982, -0.099, 0.042, 0.122, -0.671, 0, -66.352, -83.765, -119.751, -31.607, -7.913, -2.813, 27.79, 0.00366, 0.68726, -0.07236, 0.72275,
 12:46:22.032,f6:90:cc:01:6d:25, 2015-01-01 02:16:00.560, 0.982, -0.1, 0.042, 0.183, -0.427, 0, -66.44, -83.765, -119.658, -31.607, -7.913, -2.813, 27.79, 0.00366, 0.68726, -0.07236, 0.72275,
 12:46:22.036,ed:35:33:d3:6c:f8, 2015-01-01 02:15:59.925, 0.883, 0.031, 0.458, 0, 0, -0.122, 3.79, -62.65, 142.894, -21.960, -9.400, -17.873, 27.87, 0.25406, 0.50211, -0.13782, 0.815,
 12:46:22.036,ed:35:33:d3:6c:f8, 2015-01-01 02:15:59.925, 0.883, 0.032, 0.458, 0.183, -0.061, -0.061, 3.801, -62.65, 142.855, -21.960, -9.400, -17.873, 27.87, 0.25406, 0.50211, -0.13782, 0.815,
 12:46:22.038,ed:40:fe:65:30:6c, 2015-01-01 02:15:59.565, 0.762, -0.094, 0.65, -0.183, 0.122, -0.122, -8.372, -49.318, -105.2, -24.553, -4.460, -0.227, 23.28, 0.52588, -0.37143, -0.20026, -0.73843,
 12:46:22.038,ed:40:fe:65:30:6c, 2015-01-01 02:15:59.565, 0.763, -0.093, 0.651, 0, -0.061, 0, -8.366, -49.318, -105.205, -24.553, -4.460, -0.227, 23.28, 0.52588, -0.37143, -0.20026, -0.73843,
 12:46:22.038,ed:40:fe:65:30:6c, 2015-01-01 02:15:59.565, 0.764, -0.091, 0.651, 0.061, -0.122, 0, -8.361, -49.318, -105.205, -24.553, -4.460, -0.227, 23.28, 0.52588, -0.37143, -0.20026, -0.73843,
 12:46:22.038,ed:40:fe:65:30:6c, 2015-01-01 02:15:59.565, 0.764, -0.093, 0.65, 0.183, -0.061, 0.061, -8.355, -49.318, -105.205, -24.553, -4.460, -0.227, 23.28, 0.52588, -0.37143, -0.20026, -0.73843,
 12:46:22.059,e3:ca:2d:fd:e0:8c, 2015-01-01 02:16:00.605, 1, -0.091, 0.186, 0, 0, 0, -25.922, -78.448, 175.243, -26.987, -10.473, -12.167, 24.38, 0.17297, 0.60852, -0.19922, 0.74832,
 12:46:22.059,e3:ca:2d:fd:e0:8c, 2015-01-01 02:16:00.605, 1, -0.09, 0.185, -0.061, 0, 0, -25.922, -78.453, 175.237, -26.987, -10.473, -12.167, 24.38, 0.17297, 0.60852, -0.19922, 0.74832,
 12:46:22.065,ed:35:33:d3:6c:f8, 2015-01-01 02:15:59.925, 0.882, 0.031, 0.457, 0.244, -0.061, 0, 3.807, -62.65, 142.817, -21.960, -9.400, -17.873, 27.87, 0.25406, 0.50211, -0.13782, 0.815,
 12:46:22.065,ed:35:33:d3:6c:f8, 2015-01-01 02:15:59.925, 0.881, 0.032, 0.456, 0.061, 0, 0.061, 3.807, -62.65, 142.806, -21.960, -9.400, -17.873, 27.87, 0.25406, 0.50211, -0.13782, 0.815,
 12:46:22.067,ed:40:fe:65:30:6c, 2015-01-01 02:15:59.565, 0.762, -0.092, 0.649, 0.061, 0, 0.183, -8.355, -49.318, -105.205, -24.433, -4.800, 0.073, 23.28, 0.52588, -0.37143, -0.20026, -0.73843,
 12:46:22.067,ed:40:fe:65:30:6c, 2015-01-01 02:15:59.565, 0.76, -0.092, 0.65, 0, 0, 0.122, -8.355, -49.318, -105.2, -24.433, -4.800, 0.073, 23.28, 0.52588, -0.37143, -0.20026, -0.73843,
 12:46:22.093,f6:90:cc:01:6d:25, 2015-01-01 02:16:00.560, 0.981, -0.098, 0.042, 0.122, -0.366, 0, -66.5, -83.771, -119.592, -31.607, -7.913, -2.813, 27.79, 0.00366, 0.68726, -0.07236, 0.72275,
 12:46:22.093,f6:90:cc:01:6d:25, 2015-01-01 02:16:00.560, 0.979, -0.097, 0.043, -0.122, -0.305, 0, -66.561, -83.776, -119.537, -31.607, -7.913, -2.813, 27.79, 0.00366, 0.68726, -0.07236, 0.72275,
 12:46:22.095,ed:35:33:d3:6c:f8, 2015-01-01 02:15:59.925, 0.88, 0.031, 0.458, 0, 0, 0.061, 3.801, -62.65, 142.8, -21.960, -9.400, -17.873, 27.87, 0.25406, 0.50211, -0.13782, 0.815,
 12:46:22.096,ed:35:33:d3:6c:f8, 2015-01-01 02:15:59.925, 0.88, 0.031, 0.457, -0.122, 0.122, 0.122, 3.796, -62.644, 142.795, -21.960, -9.400, -17.873, 27.87, 0.25406, 0.50211, -0.13782, 0.815,
 12:46:22.120,e3:ca:2d:fd:e0:8c, 2015-01-01 02:16:00.605, 1.001, -0.09, 0.186, 0, 0, 0, -25.922, -78.448, 175.237, -26.987, -10.473, -12.167, 24.38, 0.17297, 0.60852, -0.19922, 0.74832,
 12:46:22.120,e3:ca:2d:fd:e0:8c, 2015-01-01 02:16:00.605, 1, -0.09, 0.184, 0, 0, 0, -25.922, -78.448, 175.237, -26.987, -10.473, -12.167, 24.38, 0.17297, 0.60852, -0.19922, 0.74832,
 12:46:22.122,f6:90:cc:01:6d:25, 2015-01-01 02:16:00.560, 0.979, -0.099, 0.042, -0.244, -0.366, 0, -66.616, -83.776, -119.476, -31.607, -7.913, -2.813, 27.79, 0.00366, 0.68726, -0.07236, 0.72275,
 12:46:22.122,f6:90:cc:01:6d:25, 2015-01-01 02:16:00.560, 0.979, -0.098, 0.041, -0.183, -0.305, 0, -66.676, -83.782, -119.421, -31.607, -7.913, -2.813, 27.79, 0.00366, 0.68726, -0.07236, 0.72275,
 12:46:22.127,ed:40:fe:65:30:6c, 2015-01-01 02:15:59.565, 0.76, -0.092, 0.65, -0.183, 0, 0.061, -8.361, -49.318, -105.2, -24.433, -4.800, 0.073, 23.28, 0.52588, -0.37143, -0.20026, -0.73843,
 12:46:22.127,ed:40:fe:65:30:6c, 2015-01-01 02:15:59.565, 0.76, -0.093, 0.65, -0.183, -0.061, 0.061, -8.361, -49.318, -105.205, -24.433, -4.800, 0.073, 23.28, 0.52588, -0.37143, -0.20026, -0.73843,
 12:46:22.153,f6:90:cc:01:6d:25, 2015-01-01 02:16:00.560, 0.979, -0.1, 0.043, -0.061, -0.305, 0, -66.731, -83.782, -119.366, -31.393, -8.047, -2.200, 27.79, 0.00366, 0.68726, -0.07236, 0.72275,
 12:46:22.153,f6:90:cc:01:6d:25, 2015-01-01 02:16:00.560, 0.981, -0.098, 0.042, -0.122, -0.305, 0, -66.78, -83.782, -119.317, -31.393, -8.047, -2.200, 27.79, 0.00366, 0.68726, -0.07236, 0.72275,
 12:46:22.155,ed:35:33:d3:6c:f8, 2015-01-01 02:15:59.925, 0.879, 0.029, 0.458, -0.122, 0.305, 0.061, 3.796, -62.639, 142.773, -21.960, -9.400, -17.873, 27.87, 0.25406, 0.50211, -0.13782, 0.815,
 12:46:22.155,ed:35:33:d3:6c:f8, 2015-01-01 02:15:59.925, 0.877, 0.03, 0.458, 0, 0, 0.061, 3.79, -62.633, 142.762, -21.960, -9.400, -17.873, 27.87, 0.25406, 0.50211, -0.13782, 0.815,
 12:46:22.157,ed:40:fe:65:30:6c, 2015-01-01 02:15:59.565, 0.759, -0.093, 0.65, -0.122, -0.122, 0.061, -8.361, -49.318, -105.205, -24.433, -4.800, 0.073, 23.28, 0.52628, -0.37079, -0.20004, -0.73853,
 12:46:22.157,ed:40:fe:65:30:6c, 2015-01-01 02:15:59.565, 0.761, -0.094, 0.65, -0.183, -0.061, 0.122, -8.366, -49.318, -105.2, -24.433, -4.800, 0.073, 23.28, 0.52628, -0.37079, -0.20004, -0.73853,
 12:46:22.179,e3:ca:2d:fd:e0:8c, 2015-01-01 02:16:00.605, 1, -0.089, 0.183, -0.061, 0, 0, -25.922, -78.448, 175.232, -26.913, -10.713, -12.627, 24.38, 0.17297, 0.60852, -0.19922, 0.74832,
 12:46:22.179,e3:ca:2d:fd:e0:8c, 2015-01-01 02:16:00.605, 1, -0.09, 0.184, -0.061, 0, 0, -25.922, -78.448, 175.232, -26.913, -10.713, -12.627, 24.38, 0.17297, 0.60852, -0.19922, 0.74832,
 12:46:22.185,ed:35:33:d3:6c:f8, 2015-01-01 02:15:59.925, 0.881, 0.03, 0.456, -0.061, 0.549, 0.122, 3.785, -62.622, 142.767, -21.960, -9.400, -17.873, 27.87, 0.25406, 0.50211, -0.13782, 0.815,
 12:46:22.185,ed:35:33:d3:6c:f8, 2015-01-01 02:15:59.925, 0.884, 0.031, 0.457, 0, 1.221, 0.122, 3.779, -62.595, 142.778, -21.960, -9.400, -17.873, 27.87, 0.25406, 0.50211, -0.13782, 0.815,
 12:46:22.187,ed:40:fe:65:30:6c, 2015-01-01 02:15:59.565, 0.764, -0.092, 0.65, -0.122, 0, 0.183, -8.372, -49.312, -105.2, -24.433, -4.800, 0.073, 23.28, 0.52628, -0.37079, -0.20004, -0.73853,
 12:46:22.187,ed:40:fe:65:30:6c, 2015-01-01 02:15:59.565, 0.762, -0.094, 0.65, 0.122, 0, 0.122, -8.366, -49.312, -105.194, -24.433, -4.800, 0.073, 23.28, 0.52628, -0.37079, -0.20004, -0.73853,
 12:46:22.213,f6:90:cc:01:6d:25, 2015-01-01 02:16:00.560, 0.983, -0.096, 0.044, -0.305, -0.305, 0.305, -66.852, -83.782, -119.246, -31.393, -8.047, -2.200, 27.79, 0.00366, 0.68726, -0.07236, 0.72275,
 12:46:22.213,f6:90:cc:01:6d:25, 2015-01-01 02:16:00.560, 0.982, -0.097, 0.041, -0.427, -0.122, 0.183, -66.896, -83.782, -119.202, -31.393, -8.047, -2.200, 27.79, 0.00366, 0.68726, -0.07236, 0.72275,
 12:46:22.215,ed:35:33:d3:6c:f8, 2015-01-01 02:15:59.925, 0.882, 0.029, 0.458, 0.183, 1.404, 0.122, 3.774, -62.567, 142.756, -22.040, -9.220, -18.573, 27.87, 0.25406, 0.50211, -0.13782, 0.815,
 12:46:22.215,ed:35:33:d3:6c:f8, 2015-01-01 02:15:59.925, 0.878, 0.024, 0.461, -0.122, 1.16, 0.122, 3.763, -62.545, 142.718, -22.040, -9.220, -18.573, 27.87, 0.25406, 0.50211, -0.13782, 0.815,
 12:46:22.239,e3:ca:2d:fd:e0:8c, 2015-01-01 02:16:00.605, 1.001, -0.089, 0.183, -0.122, 0, 0, -25.928, -78.448, 175.226, -26.913, -10.713, -12.627, 24.38, 0.17297, 0.60852, -0.19922, 0.74832,
 12:46:22.239,e3:ca:2d:fd:e0:8c, 2015-01-01 02:16:00.605, 1.001, -0.088, 0.184, -0.122, -0.061, 0, -25.933, -78.453, 175.226, -26.913, -10.713, -12.627, 24.38, 0.17297, 0.60852, -0.19922, 0.74832,
 12:46:22.244,f6:90:cc:01:6d:25, 2015-01-01 02:16:00.560, 0.979, -0.103, 0.042, 0.183, -0.061, 0.061, -66.912, -83.776, -119.185, -31.393, -8.047, -2.200, 27.79, 0.00314, 0.68811, -0.07199, 0.72192,
 12:46:22.244,f6:90:cc:01:6d:25, 2015-01-01 02:16:00.560, 0.979, -0.099, 0.037, 0, 0.061, 0, -66.907, -83.776, -119.185, -31.393, -8.047, -2.200, 27.79, 0.00314, 0.68811, -0.07199, 0.72192,
 12:46:22.248,ed:40:fe:65:30:6c, 2015-01-01 02:15:59.980, 0.761, -0.098, 0.653, 0.122, -0.061, 0.122, -8.366, -49.312, -105.194, -24.433, -4.800, 0.073, 23.28, 0.52628, -0.37079, -0.20004, -0.73853,
 12:46:22.248,ed:40:fe:65:30:6c, 2015-01-01 02:15:59.980, 0.76, -0.096, 0.649, -0.244, 0, 0.122, -8.372, -49.312, -105.194, -24.433, -4.800, 0.073, 23.28, 0.52628, -0.37079, -0.20004, -0.73853,
 12:46:22.270,e3:ca:2d:fd:e0:8c, 2015-01-01 02:16:00.605, 1.001, -0.087, 0.184, -0.183, -0.183, 0, -25.944, -78.453, 175.237, -26.913, -10.713, -12.627, 24.38, 0.17297, 0.60852, -0.19922, 0.74832,
 12:46:22.270,e3:ca:2d:fd:e0:8c, 2015-01-01 02:16:00.605, 1, -0.089, 0.185, -0.244, -0.183, 0, -25.955, -78.459, 175.243, -26.913, -10.713, -12.627, 24.38, 0.17297, 0.60852, -0.19922, 0.74832,
 12:46:22.274,f6:90:cc:01:6d:25, 2015-01-01 02:16:00.560, 0.984, -0.095, 0.039, -0.366, 0.061, 0, -66.907, -83.776, -119.196, -31.393, -8.047, -2.200, 27.79, 0.00314, 0.68811, -0.07199, 0.72192,
 12:46:22.274,f6:90:cc:01:6d:25, 2015-01-01 02:16:00.560, 0.986, -0.1, 0.042, -0.183, 0.183, 0, -66.89, -83.776, -119.224, -31.393, -8.047, -2.200, 27.79, 0.00314, 0.68811, -0.07199, 0.72192,
 12:46:22.276,ed:35:33:d3:6c:f8, 2015-01-01 02:15:59.925, 0.879, 0.028, 0.458, -0.183, 1.099, -0.061, 3.757, -62.523, 142.685, -22.040, -9.220, -18.573, 27.87, 0.25406, 0.50211, -0.13782, 0.815,
 12:46:22.276,ed:35:33:d3:6c:f8, 2015-01-01 02:15:59.925, 0.886, 0.031, 0.454, -0.061, 1.343, -0.122, 3.757, -62.496, 142.657, -22.040, -9.220, -18.573, 27.87, 0.25406, 0.50211, -0.13782, 0.815,
 12:46:22.278,ed:40:fe:65:30:6c, 2015-01-01 02:15:59.980, 0.768, -0.091, 0.647, -0.122, -0.061, 0, -8.372, -49.312, -105.194, -24.433, -4.800, 0.073, 23.28, 0.52628, -0.37079, -0.20004, -0.73853,
 12:46:22.278,ed:40:fe:65:30:6c, 2015-01-01 02:15:59.980, 0.765, -0.094, 0.649, 0.122, 0, 0, -8.366, -49.312, -105.2, -24.433, -4.800, 0.073, 23.28, 0.52628, -0.37079, -0.20004, -0.73853,
 12:46:22.300,e3:ca:2d:fd:e0:8c, 2015-01-01 02:16:00.605, 1, -0.089, 0.183, -0.183, -0.244, 0, -25.966, -78.464, 175.248, -26.913, -10.713, -12.627, 24.38, 0.17322, 0.60849, -0.19937, 0.74826,
 12:46:22.300,e3:ca:2d:fd:e0:8c, 2015-01-01 02:16:00.605, 1.001, -0.089, 0.184, -0.122, -0.122, 0, -25.972, -78.464, 175.254, -26.913, -10.713, -12.627, 24.38, 0.17322, 0.60849, -0.19937, 0.74826,
 12:46:22.306,ed:35:33:d3:6c:f8, 2015-01-01 02:15:59.925, 0.886, 0.032, 0.457, 0.061, 0.977, -0.305, 3.768, -62.474, 142.646, -22.040, -9.220, -18.573, 27.87, 0.25732, 0.50018, -0.13937, 0.81488,
 12:46:22.306,ed:35:33:d3:6c:f8, 2015-01-01 02:15:59.925, 0.883, 0.033, 0.458, 0.488, 1.099, 0.122, 3.768, -62.457, 142.641, -22.040, -9.220, -18.573, 27.87, 0.25732, 0.50018, -0.13937, 0.81488,
 12:46:22.307,ed:40:fe:65:30:6c, 2015-01-01 02:15:59.980, 0.76, -0.097, 0.649, 0.427, 0.061, 0.366, -8.361, -49.307, -105.2, -24.433, -4.800, 0.073, 23.28, 0.52628, -0.37079, -0.20004, -0.73853,
 12:46:22.307,ed:40:fe:65:30:6c, 2015-01-01 02:15:59.980, 0.759, -0.096, 0.651, 0.244, 0, 0.305, -8.361, -49.307, -105.194, -24.433, -4.800, 0.073, 23.28, 0.52628, -0.37079, -0.20004, -0.73853,
 12:46:22.329,e3:ca:2d:fd:e0:8c, 2015-01-01 02:16:00.605, 1.002, -0.091, 0.185, -0.305, 0, 0, -25.977, -78.464, 175.248, -26.913, -10.713, -12.627, 24.38, 0.17322, 0.60849, -0.19937, 0.74826,
 12:46:22.329,e3:ca:2d:fd:e0:8c, 2015-01-01 02:16:00.605, 1.001, -0.089, 0.184, -0.122, 0, 0, -25.983, -78.464, 175.248, -26.913, -10.713, -12.627, 24.38, 0.17322, 0.60849, -0.19937, 0.74826,
 12:46:22.333,f6:90:cc:01:6d:25, 2015-01-01 02:16:00.945, 0.983, -0.102, 0.041, -0.122, 0.488, 0.061, -66.835, -83.771, -119.29, -31.393, -8.047, -2.200, 27.79, 0.00314, 0.68811, -0.07199, 0.72192,
 12:46:22.333,f6:90:cc:01:6d:25, 2015-01-01 02:16:00.945, 0.98, -0.1, 0.04, 0.427, 0.732, 0.122, -66.731, -83.765, -119.394, -31.393, -8.047, -2.200, 27.79, 0.00314, 0.68811, -0.07199, 0.72192,
 12:46:22.335,ed:35:33:d3:6c:f8, 2015-01-01 02:15:59.925, 0.877, 0.026, 0.461, 0.427, 1.038, 0.366, 3.763, -62.435, 142.635, -22.040, -9.220, -18.573, 27.87, 0.25732, 0.50018, -0.13937, 0.81488,
 12:46:22.335,ed:35:33:d3:6c:f8, 2015-01-01 02:15:59.925, 0.879, 0.026, 0.462, 0.244, 0.671, 0.061, 3.763, -62.424, 142.619, -22.040, -9.220, -18.573, 27.87, 0.25732, 0.50018, -0.13937, 0.81488,
 12:46:22.360,e3:ca:2d:fd:e0:8c, 2015-01-01 02:16:00.605, 1.002, -0.089, 0.182, -0.061, -0.122, 0, -25.988, -78.464, 175.254, -26.913, -10.713, -12.627, 24.38, 0.17322, 0.60849, -0.19937, 0.74826,
 12:46:22.360,e3:ca:2d:fd:e0:8c, 2015-01-01 02:16:00.605, 1.002, -0.09, 0.182, -0.061, -0.244, 0, -25.999, -78.47, 175.259, -26.913, -10.713, -12.627, 24.38, 0.17322, 0.60849, -0.19937, 0.74826,
 12:46:22.362,f6:90:cc:01:6d:25, 2015-01-01 02:16:00.945, 0.979, -0.099, 0.042, 0.366, 0.671, 0, -66.621, -83.76, -119.509, -31.393, -8.047, -2.200, 27.79, 0.00314, 0.68811, -0.07199, 0.72192,
 12:46:22.362,f6:90:cc:01:6d:25, 2015-01-01 02:16:00.945, 0.98, -0.098, 0.041, 0, 0.549, 0, -66.533, -83.754, -119.603, -31.393, -8.047, -2.200, 27.79, 0.00314, 0.68811, -0.07199, 0.72192,
 12:46:22.394,f6:90:cc:01:6d:25, 2015-01-01 02:16:00.945, 0.979, -0.1, 0.041, -0.244, 0.427, -0.061, -66.467, -83.749, -119.685, -31.393, -8.047, -2.200, 27.79, 0.00314, 0.68811, -0.07199, 0.72192,
 12:46:22.394,f6:90:cc:01:6d:25, 2015-01-01 02:16:00.945, 0.979, -0.098, 0.042, 0, 0.244, -0.061, -66.429, -83.749, -119.74, -31.393, -8.047, -2.200, 27.79, 0.00314, 0.68811, -0.07199, 0.72192,
 12:46:22.396,ed:35:33:d3:6c:f8, 2015-01-01 02:16:00.345, 0.879, 0.026, 0.462, 0.244, 0.732, 0.061, 3.757, -62.408, 142.597, -22.040, -9.220, -18.573, 27.87, 0.25732, 0.50018, -0.13937, 0.81488,
 12:46:22.396,ed:35:33:d3:6c:f8, 2015-01-01 02:16:00.345, 0.879, 0.028, 0.461, 0.244, 0.732, 0.061, 3.757, -62.391, 142.592, -22.040, -9.220, -18.573, 27.87, 0.25732, 0.50018, -0.13937, 0.81488,
 12:46:22.398,ed:40:fe:65:30:6c, 2015-01-01 02:15:59.980, 0.762, -0.095, 0.651, 0.122, 0, 0.122, -8.361, -49.307, -105.189, -24.433, -4.800, 0.073, 23.28, 0.52628, -0.37079, -0.20004, -0.73853,
 12:46:22.398,ed:40:fe:65:30:6c, 2015-01-01 02:15:59.980, 0.761, -0.095, 0.649, 0.061, -0.122, 0.061, -8.361, -49.307, -105.183, -24.433, -4.800, 0.073, 23.28, 0.52628, -0.37079, -0.20004, -0.73853,
 12:46:22.400,ed:40:fe:65:30:6c, 2015-01-01 02:15:59.980, 0.761, -0.094, 0.649, 0.122, -0.122, 0, -8.361, -49.307, -105.183, -24.433, -4.800, 0.073, 23.28, 0.52628, -0.37079, -0.20004, -0.73853,
 12:46:22.400,ed:40:fe:65:30:6c, 2015-01-01 02:15:59.980, 0.761, -0.093, 0.649, 0.244, -0.061, 0, -8.361, -49.307, -105.189, -24.433, -4.800, 0.073, 23.28, 0.52628, -0.37079, -0.20004, -0.73853,
 12:46:22.421,e3:ca:2d:fd:e0:8c, 2015-01-01 02:16:01.055, 1.002, -0.09, 0.182, -0.061, -0.244, 0, -26.01, -78.475, 175.27, -26.913, -10.713, -12.627, 24.38, 0.17322, 0.60849, -0.19937, 0.74826,
 12:46:22.421,e3:ca:2d:fd:e0:8c, 2015-01-01 02:16:01.055, 1.001, -0.09, 0.181, -0.061, -0.122, 0, -26.021, -78.475, 175.276, -26.913, -10.713, -12.627, 24.38, 0.17322, 0.60849, -0.19937, 0.74826,
 12:46:22.421,e3:ca:2d:fd:e0:8c, 2015-01-01 02:16:01.055, 1, -0.089, 0.181, 0, -0.061, 0, -26.021, -78.475, 175.276, -26.913, -10.713, -12.627, 24.38, 0.17322, 0.60849, -0.19937, 0.74826,
 12:46:22.421,e3:ca:2d:fd:e0:8c, 2015-01-01 02:16:01.055, 1, -0.09, 0.184, 0, 0, 0, -26.027, -78.481, 175.27, -26.913, -10.713, -12.627, 24.38, 0.17322, 0.60849, -0.19937, 0.74826,
 12:46:22.426,ed:35:33:d3:6c:f8, 2015-01-01 02:16:00.345, 0.878, 0.029, 0.459, 0.244, 0.671, -0.183, 3.768, -62.38, 142.575, -22.040, -9.220, -18.573, 27.87, 0.25732, 0.50018, -0.13937, 0.81488,
 12:46:22.426,ed:35:33:d3:6c:f8, 2015-01-01 02:16:00.345, 0.879, 0.03, 0.459, 0.244, 0.916, -0.244, 3.774, -62.364, 142.548, -22.040, -9.220, -18.573, 27.87, 0.25732, 0.50018, -0.13937, 0.81488,
 12:46:22.427,ed:40:fe:65:30:6c, 2015-01-01 02:15:59.980, 0.76, -0.095, 0.651, 0.183, 0, 0.061, -8.355, -49.307, -105.189, -24.633, -4.707, -0.587, 23.28, 0.52628, -0.37079, -0.20004, -0.73853,
 12:46:22.427,ed:40:fe:65:30:6c, 2015-01-01 02:15:59.980, 0.763, -0.095, 0.649, 0.061, 0, 0.183, -8.35, -49.307, -105.189, -24.633, -4.707, -0.587, 23.28, 0.52628, -0.37079, -0.20004, -0.73853,
 12:46:22.454,f6:90:cc:01:6d:25, 2015-01-01 02:16:00.945, 0.981, -0.102, 0.044, 0.427, 0.183, -0.183, -66.39, -83.749, -119.784, -31.393, -8.047, -2.200, 27.79, 0.00314, 0.68811, -0.07199, 0.72192,
 12:46:22.454,f6:90:cc:01:6d:25, 2015-01-01 02:16:00.945, 0.979, -0.102, 0.043, 0.488, 0.366, -0.183, -66.324, -83.754, -119.85, -31.393, -8.047, -2.200, 27.79, 0.00314, 0.68811, -0.07199, 0.72192,
 12:46:22.456,ed:35:33:d3:6c:f8, 2015-01-01 02:16:00.345, 0.877, 0.029, 0.462, 0.244, 0.793, 0, 3.774, -62.347, 142.542, -22.040, -9.220, -18.573, 27.87, 0.25732, 0.50018, -0.13937, 0.81488,
 12:46:22.456,ed:35:33:d3:6c:f8, 2015-01-01 02:16:00.345, 0.882, 0.028, 0.459, 0, 1.404, 0, 3.768, -62.32, 142.526, -22.040, -9.220, -18.573, 27.87, 0.25732, 0.50018, -0.13937, 0.81488,
 12:46:22.480,e3:ca:2d:fd:e0:8c, 2015-01-01 02:16:01.055, 1, -0.091, 0.185, 0.061, 0, 0, -26.027, -78.481, 175.27, -26.913, -10.713, -12.627, 24.38, 0.17322, 0.60849, -0.19937, 0.74826,
 12:46:22.480,e3:ca:2d:fd:e0:8c, 2015-01-01 02:16:01.055, 1.001, -0.091, 0.186, 0, -0.061, 0, -26.027, -78.481, 175.27, -26.913, -10.713, -12.627, 24.38, 0.17322, 0.60849, -0.19937, 0.74826,
 12:46:22.488,ed:40:fe:65:30:6c, 2015-01-01 02:15:59.980, 0.768, -0.093, 0.649, 0, 0, 0.061, -8.355, -49.307, -105.183, -24.633, -4.707, -0.587, 23.28, 0.52628, -0.37079, -0.20004, -0.73853,
 12:46:22.488,ed:40:fe:65:30:6c, 2015-01-01 02:15:59.980, 0.767, -0.091, 0.649, -0.122, -0.061, 0, -8.355, -49.307, -105.183, -24.633, -4.707, -0.587, 23.28, 0.52628, -0.37079, -0.20004, -0.73853,
 12:46:22.510,e3:ca:2d:fd:e0:8c, 2015-01-01 02:16:01.055, 1.001, -0.09, 0.185, -0.122, 0, 0, -26.032, -78.481, 175.27, -26.913, -10.713, -12.627, 24.38, 0.17322, 0.60849, -0.19937, 0.74826,
 12:46:22.510,e3:ca:2d:fd:e0:8c, 2015-01-01 02:16:01.055, 1.002, -0.089, 0.183, -0.061, 0, 0, -26.032, -78.475, 175.265, -26.913, -10.713, -12.627, 24.38, 0.17322, 0.60849, -0.19937, 0.74826,
 12:46:22.512,f6:90:cc:01:6d:25, 2015-01-01 02:16:00.945, 0.982, -0.099, 0.043, 0.122, 0.305, -0.183, -66.264, -83.754, -119.916, -31.393, -8.047, -2.200, 27.79, 0.00314, 0.68811, -0.07199, 0.72192,
 12:46:22.512,f6:90:cc:01:6d:25, 2015-01-01 02:16:00.945, 0.986, -0.097, 0.043, 0, 0.427, 0, -66.204, -83.749, -119.987, -31.393, -8.047, -2.200, 27.79, 0.00314, 0.68811, -0.07199, 0.72192,
 12:46:22.514,ed:35:33:d3:6c:f8, 2015-01-01 02:16:00.345, 0.883, 0.029, 0.462, -0.122, 1.404, -0.061, 3.763, -62.292, 142.498, -22.040, -9.220, -18.573, 27.87, 0.25732, 0.50018, -0.13937, 0.81488,
 12:46:22.514,ed:35:33:d3:6c:f8, 2015-01-01 02:16:00.345, 0.883, 0.034, 0.46, 0, 1.343, -0.305, 3.774, -62.265, 142.46, -22.040, -9.220, -18.573, 27.87, 0.25732, 0.50018, -0.13937, 0.81488,
 12:46:22.517,ed:40:fe:65:30:6c, 2015-01-01 02:15:59.980, 0.768, -0.09, 0.65, -0.061, 0.122, 0, -8.355, -49.307, -105.189, -24.633, -4.707, -0.587, 23.28, 0.52646, -0.37067, -0.2001, -0.73843,
 12:46:22.517,ed:40:fe:65:30:6c, 2015-01-01 02:15:59.980, 0.764, -0.089, 0.648, -0.122, 0.366, 0.061, -8.355, -49.301, -105.189, -24.633, -4.707, -0.587, 23.28, 0.52646, -0.37067, -0.2001, -0.73843,
 12:46:22.541,e3:ca:2d:fd:e0:8c, 2015-01-01 02:16:01.055, 1.001, -0.09, 0.182, 0, 0.061, 0, -26.038, -78.475, 175.265, -26.913, -10.713, -12.627, 24.38, 0.17322, 0.60849, -0.19937, 0.74826,
 12:46:22.541,e3:ca:2d:fd:e0:8c, 2015-01-01 02:16:01.055, 1.001, -0.088, 0.182, 0, 0, 0, -26.032, -78.475, 175.259, -26.913, -10.713, -12.627, 24.38, 0.17322, 0.60849, -0.19937, 0.74826,
 12:46:22.544,f6:90:cc:01:6d:25, 2015-01-01 02:16:00.945, 0.985, -0.097, 0.042, -0.305, 0.427, -0.122, -66.138, -83.749, -120.064, -31.447, -8.727, -1.853, 27.79, 0.00314, 0.68811, -0.07199, 0.72192,
 12:46:22.544,f6:90:cc:01:6d:25, 2015-01-01 02:16:00.945, 0.983, -0.099, 0.041, -0.183, 0.549, -0.061, -66.055, -83.743, -120.157, -31.447, -8.727, -1.853, 27.79, 0.00314, 0.68811, -0.07199, 0.72192,
 12:46:22.546,ed:35:33:d3:6c:f8, 2015-01-01 02:16:00.345, 0.882, 0.036, 0.461, 0, 1.221, 0.244, 3.757, -62.243, 142.449, -22.040, -9.220, -18.573, 27.87, 0.25732, 0.50018, -0.13937, 0.81488,
 12:46:22.546,ed:35:33:d3:6c:f8, 2015-01-01 02:16:00.345, 0.878, 0.035, 0.46, -0.061, 1.099, 0.244, 3.746, -62.221, 142.432, -22.040, -9.220, -18.573, 27.87, 0.25732, 0.50018, -0.13937, 0.81488,
 12:46:22.574,f6:90:cc:01:6d:25, 2015-01-01 02:16:00.945, 0.982, -0.099, 0.042, 0, 0.549, 0.122, -65.984, -83.738, -120.24, -31.447, -8.727, -1.853, 27.79, 0.00314, 0.68811, -0.07199, 0.72192,
 12:46:22.574,f6:90:cc:01:6d:25, 2015-01-01 02:16:00.945, 0.98, -0.096, 0.044, 0.061, 0.488, 0.244, -65.929, -83.727, -120.3, -31.447, -8.727, -1.853, 27.79, 0.00314, 0.68811, -0.07199, 0.72192,
 12:46:22.574,ed:35:33:d3:6c:f8, 2015-01-01 02:16:00.345, 0.878, 0.03, 0.462, -0.061, 0.916, 0.122, 3.741, -62.205, 142.41, -21.733, -9.827, -18.900, 27.87, 0.25732, 0.50018, -0.13937, 0.81488,
 12:46:22.574,ed:35:33:d3:6c:f8, 2015-01-01 02:16:00.345, 0.875, 0.028, 0.463, 0.061, 0.854, 0, 3.741, -62.188, 142.372, -21.733, -9.827, -18.900, 27.87, 0.25732, 0.50018, -0.13937, 0.81488,
 12:46:22.600,e3:ca:2d:fd:e0:8c, 2015-01-01 02:16:01.055, 1.002, -0.087, 0.181, 0, 0, 0, -26.032, -78.475, 175.259, -26.913, -10.713, -12.627, 24.38, 0.17322, 0.60849, -0.19937, 0.74826,
 12:46:22.600,e3:ca:2d:fd:e0:8c, 2015-01-01 02:16:01.055, 1.002, -0.087, 0.181, -0.183, 0, 0, -26.038, -78.475, 175.259, -26.913, -10.713, -12.627, 24.38, 0.17322, 0.60849, -0.19937, 0.74826,
 12:46:22.602,f6:90:cc:01:6d:25, 2015-01-01 02:16:00.945, 0.979, -0.097, 0.042, -0.061, 0.427, 0.183, -65.88, -83.721, -120.361, -31.447, -8.727, -1.853, 27.79, 0.00406, 0.68723, -0.07288, 0.72269,
 12:46:22.602,f6:90:cc:01:6d:25, 2015-01-01 02:16:00.945, 0.979, -0.098, 0.043, -0.427, 0.549, 0.122, -65.814, -83.716, -120.443, -31.447, -8.727, -1.853, 27.79, 0.00406, 0.68723, -0.07288, 0.72269,
 12:46:22.608,ed:40:fe:65:30:6c, 2015-01-01 02:15:59.980, 0.762, -0.091, 0.649, -0.061, 0.427, 0.122, -8.355, -49.296, -105.189, -24.633, -4.707, -0.587, 23.28, 0.52646, -0.37067, -0.2001, -0.73843,
 12:46:22.608,ed:40:fe:65:30:6c, 2015-01-01 02:15:59.980, 0.76, -0.094, 0.648, 0, 0.488, 0, -8.35, -49.285, -105.194, -24.633, -4.707, -0.587, 23.28, 0.52646, -0.37067, -0.2001, -0.73843,
 12:46:22.608,ed:40:fe:65:30:6c, 2015-01-01 02:15:59.980, 0.759, -0.094, 0.65, 0.061, 0.427, 0, -8.344, -49.279, -105.194, -24.633, -4.707, -0.587, 23.28, 0.52646, -0.37067, -0.2001, -0.73843,
 12:46:22.608,ed:40:fe:65:30:6c, 2015-01-01 02:15:59.980, 0.761, -0.094, 0.65, 0, 0.427, -0.122, -8.339, -49.268, -105.2, -24.633, -4.707, -0.587, 23.28, 0.52646, -0.37067, -0.2001, -0.73843,
 12:46:22.630,e3:ca:2d:fd:e0:8c, 2015-01-01 02:16:01.055, 1.001, -0.086, 0.182, -0.122, 0.061, 0, -26.038, -78.475, 175.254, -27.173, -10.387, -12.927, 24.38, 0.17322, 0.60849, -0.19937, 0.74826,
 12:46:22.630,e3:ca:2d:fd:e0:8c, 2015-01-01 02:16:01.055, 1.001, -0.087, 0.183, 0, 0, 0, -26.038, -78.475, 175.254, -27.173, -10.387, -12.927, 24.38, 0.17322, 0.60849, -0.19937, 0.74826,
 12:46:22.634,f6:90:cc:01:6d:25, 2015-01-01 02:16:00.945, 0.98, -0.096, 0.042, -0.427, 0.488, 0.061, -65.753, -83.71, -120.52, -31.447, -8.727, -1.853, 27.79, 0.00406, 0.68723, -0.07288, 0.72269,
 12:46:22.634,f6:90:cc:01:6d:25, 2015-01-01 02:16:00.945, 0.983, -0.095, 0.042, -0.305, 0.366, -0.061, -65.704, -83.71, -120.586, -31.447, -8.727, -1.853, 27.79, 0.00406, 0.68723, -0.07288, 0.72269,
 12:46:22.636,ed:35:33:d3:6c:f8, 2015-01-01 02:16:00.345, 0.876, 0.028, 0.465, 0.061, 0.854, 0.061, 3.741, -62.172, 142.339, -21.733, -9.827, -18.900, 27.87, 0.25732, 0.50018, -0.13937, 0.81488,
 12:46:22.636,ed:35:33:d3:6c:f8, 2015-01-01 02:16:00.345, 0.877, 0.029, 0.464, -0.122, 1.221, -0.122, 3.741, -62.15, 142.311, -21.733, -9.827, -18.900, 27.87, 0.25732, 0.50018, -0.13937, 0.81488,
 12:46:22.638,ed:40:fe:65:30:6c, 2015-01-01 02:16:00.340, 0.763, -0.091, 0.651, 0, 0.183, -0.183, -8.333, -49.263, -105.211, -24.633, -4.707, -0.587, 23.28, 0.52646, -0.37067, -0.2001, -0.73843,
 12:46:22.638,ed:40:fe:65:30:6c, 2015-01-01 02:16:00.340, 0.764, -0.092, 0.651, 0.061, 0.061, -0.305, -8.328, -49.263, -105.216, -24.633, -4.707, -0.587, 23.28, 0.52646, -0.37067, -0.2001, -0.73843,
 12:46:22.661,e3:ca:2d:fd:e0:8c, 2015-01-01 02:16:01.055, 1.001, -0.089, 0.184, -0.061, 0, 0, -26.032, -78.475, 175.248, -27.173, -10.387, -12.927, 24.38, 0.17322, 0.60849, -0.19937, 0.74826,
 12:46:22.661,e3:ca:2d:fd:e0:8c, 2015-01-01 02:16:01.055, 1, -0.089, 0.184, 0, 0, 0, -26.032, -78.481, 175.248, -27.173, -10.387, -12.927, 24.38, 0.17322, 0.60849, -0.19937, 0.74826,
 12:46:22.665,ed:35:33:d3:6c:f8, 2015-01-01 02:16:00.345, 0.879, 0.03, 0.466, -0.122, 1.282, -0.305, 3.746, -62.122, 142.256, -21.733, -9.827, -18.900, 27.87, 0.26035, 0.49734, -0.14008, 0.81555,
 12:46:22.665,ed:35:33:d3:6c:f8, 2015-01-01 02:16:00.345, 0.879, 0.03, 0.465, -0.061, 1.343, -0.61, 3.763, -62.095, 142.191, -21.733, -9.827, -18.900, 27.87, 0.26035, 0.49734, -0.14008, 0.81555,
 12:46:22.693,f6:90:cc:01:6d:25, 2015-01-01 02:16:01.305, 0.983, -0.097, 0.043, -0.366, 0.244, -0.122, -65.665, -83.716, -120.635, -31.447, -8.727, -1.853, 27.79, 0.00406, 0.68723, -0.07288, 0.72269,
 12:46:22.693,f6:90:cc:01:6d:25, 2015-01-01 02:16:01.305, 0.982, -0.1, 0.045, -0.244, 0.305, -0.122, -65.616, -83.716, -120.696, -31.447, -8.727, -1.853, 27.79, 0.00406, 0.68723, -0.07288, 0.72269,
 12:46:22.695,ed:35:33:d3:6c:f8, 2015-01-01 02:16:00.345, 0.879, 0.032, 0.465, -0.183, 1.526, -0.488, 3.774, -62.062, 142.13, -21.733, -9.827, -18.900, 27.87, 0.26035, 0.49734, -0.14008, 0.81555,
 12:46:22.695,ed:35:33:d3:6c:f8, 2015-01-01 02:16:00.345, 0.877, 0.031, 0.465, 0, 1.099, -0.244, 3.779, -62.045, 142.081, -21.733, -9.827, -18.900, 27.87, 0.26035, 0.49734, -0.14008, 0.81555,
 12:46:22.697,ed:40:fe:65:30:6c, 2015-01-01 02:16:00.340, 0.764, -0.093, 0.651, 0.061, 0.183, -0.366, -8.317, -49.257, -105.227, -24.633, -4.707, -0.587, 23.28, 0.52646, -0.37067, -0.2001, -0.73843,
 12:46:22.697,ed:40:fe:65:30:6c, 2015-01-01 02:16:00.340, 0.763, -0.093, 0.649, 0.061, 0.305, -0.244, -8.306, -49.257, -105.244, -24.633, -4.707, -0.587, 23.28, 0.52646, -0.37067, -0.2001, -0.73843,
 12:46:22.721,e3:ca:2d:fd:e0:8c, 2015-01-01 02:16:01.055, 1.001, -0.09, 0.184, 0, 0, 0, -26.032, -78.481, 175.248, -27.173, -10.387, -12.927, 24.38, 0.17361, 0.60852, -0.19983, 0.74802,
 12:46:22.725,e3:ca:2d:fd:e0:8c, 2015-01-01 02:16:01.055, 1.001, -0.09, 0.184, 0, 0.122, 0, -26.027, -78.481, 175.243, -27.173, -10.387, -12.927, 24.38, 0.17361, 0.60852, -0.19983, 0.74802,
 12:46:22.727,ed:40:fe:65:30:6c, 2015-01-01 02:16:00.340, 0.763, -0.093, 0.65, 0, 0.305, -0.122, -8.295, -49.252, -105.255, -24.633, -4.707, -0.587, 23.28, 0.52646, -0.37067, -0.2001, -0.73843,
 12:46:22.727,ed:40:fe:65:30:6c, 2015-01-01 02:16:00.340, 0.763, -0.091, 0.651, -0.061, 0.366, -0.061, -8.289, -49.246, -105.26, -24.633, -4.707, -0.587, 23.28, 0.52646, -0.37067, -0.2001, -0.73843,
 12:46:22.727,f6:90:cc:01:6d:25, 2015-01-01 02:16:01.305, 0.982, -0.101, 0.042, -0.061, 0.488, 0, -65.544, -83.71, -120.778, -31.447, -8.727, -1.853, 27.79, 0.00406, 0.68723, -0.07288, 0.72269,
 12:46:22.727,f6:90:cc:01:6d:25, 2015-01-01 02:16:01.305, 0.982, -0.1, 0.043, 0, 0.488, 0, -65.473, -83.705, -120.855, -31.447, -8.727, -1.853, 27.79, 0.00406, 0.68723, -0.07288, 0.72269,
 12:46:22.750,e3:ca:2d:fd:e0:8c, 2015-01-01 02:16:01.440, 1.001, -0.091, 0.184, 0, 0.183, 0, -26.021, -78.475, 175.237, -27.173, -10.387, -12.927, 24.38, 0.17361, 0.60852, -0.19983, 0.74802,
 12:46:22.750,e3:ca:2d:fd:e0:8c, 2015-01-01 02:16:01.440, 1.001, -0.091, 0.183, 0.061, 0.122, 0, -26.016, -78.475, 175.226, -27.173, -10.387, -12.927, 24.38, 0.17361, 0.60852, -0.19983, 0.74802,
 12:46:22.754,ed:35:33:d3:6c:f8, 2015-01-01 02:16:00.700, 0.878, 0.032, 0.468, 0, 0.916, -0.122, 3.785, -62.023, 142.07, -21.733, -9.827, -18.900, 27.87, 0.26035, 0.49734, -0.14008, 0.81555,
 12:46:22.754,ed:35:33:d3:6c:f8, 2015-01-01 02:16:00.700, 0.876, 0.032, 0.467, 0.061, 0.854, 0, 3.779, -62.007, 142.048, -21.733, -9.827, -18.900, 27.87, 0.26035, 0.49734, -0.14008, 0.81555,
 12:46:22.757,ed:40:fe:65:30:6c, 2015-01-01 02:16:00.340, 0.761, -0.092, 0.65, 0, 0.244, 0.061, -8.284, -49.241, -105.26, -24.633, -4.707, -0.587, 23.28, 0.52646, -0.37067, -0.2001, -0.73843,
 12:46:22.757,ed:40:fe:65:30:6c, 2015-01-01 02:16:00.340, 0.759, -0.091, 0.65, 0.061, 0.366, 0.183, -8.284, -49.235, -105.26, -24.633, -4.707, -0.587, 23.28, 0.52646, -0.37067, -0.2001, -0.73843,
 12:46:22.780,e3:ca:2d:fd:e0:8c, 2015-01-01 02:16:01.440, 1, -0.091, 0.183, 0, 0.122, 0, -26.01, -78.47, 175.221, -27.173, -10.387, -12.927, 24.38, 0.17361, 0.60852, -0.19983, 0.74802,
 12:46:22.780,e3:ca:2d:fd:e0:8c, 2015-01-01 02:16:01.440, 1.002, -0.09, 0.183, 0, 0, 0, -26.005, -78.47, 175.215, -27.173, -10.387, -12.927, 24.38, 0.17361, 0.60852, -0.19983, 0.74802,
 12:46:22.784,ed:35:33:d3:6c:f8, 2015-01-01 02:16:00.700, 0.874, 0.032, 0.466, 0.183, 0.854, 0.122, 3.779, -61.99, 142.042, -21.733, -9.827, -18.900, 27.87, 0.26035, 0.49734, -0.14008, 0.81555,
 12:46:22.784,ed:35:33:d3:6c:f8, 2015-01-01 02:16:00.700, 0.875, 0.031, 0.466, 0.244, 0.916, 0.244, 3.774, -61.974, 142.048, -21.733, -9.827, -18.900, 27.87, 0.26035, 0.49734, -0.14008, 0.81555,
 12:46:22.812,f6:90:cc:01:6d:25, 2015-01-01 02:16:01.305, 0.981, -0.1, 0.043, -0.122, 0.488, 0, -65.407, -83.705, -120.938, -31.447, -8.727, -1.853, 27.79, 0.00406, 0.68723, -0.07288, 0.72269,
 12:46:22.812,f6:90:cc:01:6d:25, 2015-01-01 02:16:01.305, 0.98, -0.101, 0.043, -0.183, 0.61, 0, -65.319, -83.699, -121.036, -31.447, -8.727, -1.853, 27.79, 0.00406, 0.68723, -0.07288, 0.72269,
 12:46:22.814,ed:35:33:d3:6c:f8, 2015-01-01 02:16:00.700, 0.877, 0.028, 0.47, 0.244, 0.854, 0.244, 3.768, -61.957, 142.07, -21.733, -9.827, -18.900, 27.87, 0.26035, 0.49734, -0.14008, 0.81555,
 12:46:22.814,ed:35:33:d3:6c:f8, 2015-01-01 02:16:00.700, 0.876, 0.027, 0.473, 0.488, 0.793, 0.549, 3.757, -61.941, 142.114, -21.733, -9.827, -18.900, 27.87, 0.26035, 0.49734, -0.14008, 0.81555,
 12:46:22.818,ed:40:fe:65:30:6c, 2015-01-01 02:16:00.340, 0.761, -0.093, 0.652, 0.122, 0.427, 0.122, -8.284, -49.224, -105.26, -24.633, -4.707, -0.587, 23.28, 0.52646, -0.37067, -0.2001, -0.73843,
 12:46:22.818,ed:40:fe:65:30:6c, 2015-01-01 02:16:00.340, 0.759, -0.096, 0.653, 0.366, 0.305, 0.244, -8.278, -49.219, -105.26, -24.633, -4.707, -0.587, 23.28, 0.52646, -0.37067, -0.2001, -0.73843,
 12:46:22.840,e3:ca:2d:fd:e0:8c, 2015-01-01 02:16:01.440, 1.001, -0.089, 0.183, 0, 0.061, 0, -26.01, -78.47, 175.215, -27.173, -10.387, -12.927, 24.38, 0.17361, 0.60852, -0.19983, 0.74802,
 12:46:22.840,e3:ca:2d:fd:e0:8c, 2015-01-01 02:16:01.440, 1, -0.09, 0.185, -0.061, 0.061, 0, -26.01, -78.47, 175.21, -27.173, -10.387, -12.927, 24.38, 0.17361, 0.60852, -0.19983, 0.74802,
 12:46:22.842,f6:90:cc:01:6d:25, 2015-01-01 02:16:01.305, 0.979, -0.101, 0.047, -0.183, 0.488, 0, -65.259, -83.694, -121.119, -31.447, -8.727, -1.853, 27.79, 0.00406, 0.68723, -0.07288, 0.72269,
 12:46:22.842,f6:90:cc:01:6d:25, 2015-01-01 02:16:01.305, 0.98, -0.099, 0.045, -0.061, 0.61, 0, -65.165, -83.688, -121.218, -31.447, -8.727, -1.853, 27.79, 0.00406, 0.68723, -0.07288, 0.72269,
 12:46:22.848,ed:40:fe:65:30:6c, 2015-01-01 02:16:00.340, 0.759, -0.098, 0.655, 0.244, 0.061, 0.366, -8.278, -49.213, -105.255, -24.067, -4.280, -0.733, 23.28, 0.52646, -0.37067, -0.2001, -0.73843,
 12:46:22.848,ed:40:fe:65:30:6c, 2015-01-01 02:16:00.340, 0.759, -0.094, 0.651, 0.061, 0.122, 0.366, -8.278, -49.208, -105.244, -24.067, -4.280, -0.733, 23.28, 0.52646, -0.37067, -0.2001, -0.73843,
 12:46:22.870,e3:ca:2d:fd:e0:8c, 2015-01-01 02:16:01.440, 1, -0.09, 0.183, -0.061, 0, 0, -26.01, -78.47, 175.204, -27.173, -10.387, -12.927, 24.38, 0.17361, 0.60852, -0.19983, 0.74802,
 12:46:22.870,e3:ca:2d:fd:e0:8c, 2015-01-01 02:16:01.440, 1.001, -0.09, 0.183, 0, 0.061, 0, -26.01, -78.47, 175.204, -27.173, -10.387, -12.927, 24.38, 0.17361, 0.60852, -0.19983, 0.74802,
 12:46:22.872,f6:90:cc:01:6d:25, 2015-01-01 02:16:01.305, 0.982, -0.099, 0.047, 0.061, 0.549, 0, -65.083, -83.683, -121.311, -31.447, -8.727, -1.853, 27.79, 0.00406, 0.68723, -0.07288, 0.72269,
 12:46:22.872,f6:90:cc:01:6d:25, 2015-01-01 02:16:01.305, 0.979, -0.104, 0.048, 0.183, 0.549, 0, -65.001, -83.677, -121.399, -31.447, -8.727, -1.853, 27.79, 0.00406, 0.68723, -0.07288, 0.72269,
 12:46:22.874,ed:35:33:d3:6c:f8, 2015-01-01 02:16:00.700, 0.873, 0.024, 0.47, 0.061, 0.61, 0.488, 3.735, -61.93, 142.147, -21.733, -9.827, -18.900, 27.87, 0.26035, 0.49734, -0.14008, 0.81555,
 12:46:22.874,ed:35:33:d3:6c:f8, 2015-01-01 02:16:00.700, 0.875, 0.029, 0.466, 0.183, 0.793, 0, 3.735, -61.913, 142.163, -21.733, -9.827, -18.900, 27.87, 0.26035, 0.49734, -0.14008, 0.81555,
 12:46:22.878,ed:40:fe:65:30:6c, 2015-01-01 02:16:00.340, 0.764, -0.091, 0.649, 0.244, 0.244, 0.305, -8.284, -49.202, -105.238, -24.067, -4.280, -0.733, 23.28, 0.52646, -0.37067, -0.2001, -0.73843,
 12:46:22.878,ed:40:fe:65:30:6c, 2015-01-01 02:16:00.340, 0.763, -0.09, 0.651, 0.366, 0.122, 0.305, -8.284, -49.197, -105.227, -24.067, -4.280, -0.733, 23.28, 0.52646, -0.37067, -0.2001, -0.73843,
 12:46:22.899,e3:ca:2d:fd:e0:8c, 2015-01-01 02:16:01.440, 1.001, -0.091, 0.185, 0, 0.244, 0, -26.01, -78.464, 175.199, -27.173, -10.387, -12.927, 24.38, 0.17361, 0.60852, -0.19983, 0.74802,
 12:46:22.899,e3:ca:2d:fd:e0:8c, 2015-01-01 02:16:01.440, 1, -0.089, 0.186, 0, 0.183, 0, -25.999, -78.459, 175.188, -27.173, -10.387, -12.927, 24.38, 0.17361, 0.60852, -0.19983, 0.74802,
 12:46:22.902,f6:90:cc:01:6d:25, 2015-01-01 02:16:01.305, 0.982, -0.102, 0.044, 0, 0.671, 0, -64.896, -83.672, -121.509, -31.447, -8.727, -1.853, 27.79, 0.00406, 0.68723, -0.07288, 0.72269,
 12:46:22.902,f6:90:cc:01:6d:25, 2015-01-01 02:16:01.305, 0.986, -0.099, 0.047, 0.122, 0.183, 0, -64.852, -83.666, -121.569, -31.447, -8.727, -1.853, 27.79, 0.00406, 0.68723, -0.07288, 0.72269,
 12:46:22.905,ed:35:33:d3:6c:f8, 2015-01-01 02:16:00.700, 0.878, 0.032, 0.467, 0.305, 1.099, 0.122, 3.73, -61.891, 142.174, -21.733, -9.827, -18.900, 27.87, 0.26035, 0.49734, -0.14008, 0.81555,
 12:46:22.905,ed:35:33:d3:6c:f8, 2015-01-01 02:16:00.700, 0.877, 0.036, 0.469, 0.366, 0.793, 0.122, 3.73, -61.875, 142.163, -21.733, -9.827, -18.900, 27.87, 0.26035, 0.49734, -0.14008, 0.81555,
 12:46:22.932,f6:90:cc:01:6d:25, 2015-01-01 02:16:01.305, 0.984, -0.101, 0.048, 0.061, 0.427, 0, -64.819, -83.666, -121.613, -31.080, -8.373, -2.693, 27.79, 0.00406, 0.68723, -0.07288, 0.72269,
 12:46:22.932,f6:90:cc:01:6d:25, 2015-01-01 02:16:01.305, 0.98, -0.1, 0.044, 0.732, 0.793, 0, -64.737, -83.661, -121.696, -31.080, -8.373, -2.693, 27.79, 0.00406, 0.68723, -0.07288, 0.72269,
 12:46:22.934,ed:35:33:d3:6c:f8, 2015-01-01 02:16:00.700, 0.877, 0.033, 0.471, 0.671, 1.221, 0.732, 3.719, -61.853, 142.174, -21.807, -9.593, -18.807, 27.87, 0.26035, 0.49734, -0.14008, 0.81555,
 12:46:22.934,ed:35:33:d3:6c:f8, 2015-01-01 02:16:00.700, 0.873, 0.027, 0.471, 0.366, 0.793, 0.732, 3.697, -61.837, 142.185, -21.807, -9.593, -18.807, 27.87, 0.26035, 0.49734, -0.14008, 0.81555,
 12:46:22.937,ed:40:fe:65:30:6c, 2015-01-01 02:16:00.340, 0.763, -0.09, 0.653, 0.427, 0.122, 0.549, -8.284, -49.191, -105.222, -24.067, -4.280, -0.733, 23.28, 0.5267, -0.36975, -0.19986, -0.7388,
 12:46:22.937,ed:40:fe:65:30:6c, 2015-01-01 02:16:00.340, 0.759, -0.094, 0.653, 0.488, 0.366, 0.732, -8.284, -49.186, -105.2, -24.067, -4.280, -0.733, 23.28, 0.5267, -0.36975, -0.19986, -0.7388,
 12:46:22.961,e3:ca:2d:fd:e0:8c, 2015-01-01 02:16:01.440, 1, -0.089, 0.184, 0, 0.061, 0, -25.994, -78.459, 175.177, -27.173, -10.387, -12.927, 24.38, 0.17361, 0.60852, -0.19983, 0.74802,
 12:46:22.961,e3:ca:2d:fd:e0:8c, 2015-01-01 02:16:01.440, 1, -0.09, 0.186, 0, -0.122, 0, -25.994, -78.459, 175.177, -27.173, -10.387, -12.927, 24.38, 0.17361, 0.60852, -0.19983, 0.74802,
 12:46:22.967,ed:40:fe:65:30:6c, 2015-01-01 02:16:00.725, 0.759, -0.094, 0.652, 0.183, 0.305, 0.549, -8.289, -49.175, -105.183, -24.067, -4.280, -0.733, 23.28, 0.5267, -0.36975, -0.19986, -0.7388,
 12:46:22.967,ed:40:fe:65:30:6c, 2015-01-01 02:16:00.725, 0.762, -0.094, 0.652, 0.061, 0.366, 0.366, -8.295, -49.169, -105.172, -24.067, -4.280, -0.733, 23.28, 0.5267, -0.36975, -0.19986, -0.7388,
 12:46:22.991,e3:ca:2d:fd:e0:8c, 2015-01-01 02:16:01.440, 1.001, -0.089, 0.184, 0, -0.244, 0, -25.999, -78.459, 175.182, -27.100, -10.580, -11.393, 24.38, 0.17361, 0.60852, -0.19983, 0.74802,
 12:46:22.991,e3:ca:2d:fd:e0:8c, 2015-01-01 02:16:01.440, 1.001, -0.087, 0.183, 0.061, -0.183, 0, -26.01, -78.464, 175.188, -27.100, -10.580, -11.393, 24.38, 0.17361, 0.60852, -0.19983, 0.74802,
 12:46:22.992,f6:90:cc:01:6d:25, 2015-01-01 02:16:01.305, 0.98, -0.098, 0.05, 0.488, 1.038, 0, -64.589, -83.65, -121.838, -31.080, -8.373, -2.693, 27.79, 0.00406, 0.68723, -0.07288, 0.72269,
 12:46:22.992,f6:90:cc:01:6d:25, 2015-01-01 02:16:01.305, 0.981, -0.096, 0.05, 0, 1.099, 0, -64.418, -83.644, -122.009, -31.080, -8.373, -2.693, 27.79, 0.00406, 0.68723, -0.07288, 0.72269,
 12:46:22.996,ed:35:33:d3:6c:f8, 2015-01-01 02:16:00.700, 0.874, 0.026, 0.469, 0.183, 0.854, 0.427, 3.68, -61.82, 142.191, -21.807, -9.593, -18.807, 27.87, 0.26035, 0.49734, -0.14008, 0.81555,
 12:46:22.996,ed:35:33:d3:6c:f8, 2015-01-01 02:16:00.700, 0.876, 0.027, 0.468, 0.061, 0.977, 0.244, 3.669, -61.798, 142.207, -21.807, -9.593, -18.807, 27.87, 0.26035, 0.49734, -0.14008, 0.81555,
 12:46:22.997,ed:40:fe:65:30:6c, 2015-01-01 02:16:00.725, 0.763, -0.095, 0.649, 0.122, 0.427, 0.183, -8.295, -49.158, -105.172, -24.067, -4.280, -0.733, 23.28, 0.5267, -0.36975, -0.19986, -0.7388,
 12:46:22.997,ed:40:fe:65:30:6c, 2015-01-01 02:16:00.725, 0.764, -0.094, 0.646, 0.183, 0.671, 0, -8.289, -49.147, -105.172, -24.067, -4.280, -0.733, 23.28, 0.5267, -0.36975, -0.19986, -0.7388,
 12:46:23.020,e3:ca:2d:fd:e0:8c, 2015-01-01 02:16:01.440, 1, -0.087, 0.184, 0.244, -0.183, 0, -26.016, -78.464, 175.199, -27.100, -10.580, -11.393, 24.38, 0.17361, 0.60852, -0.19983, 0.74802,
 12:46:23.020,e3:ca:2d:fd:e0:8c, 2015-01-01 02:16:01.440, 0.999, -0.088, 0.186, 0.427, -0.061, 0.366, -26.021, -78.47, 175.21, -27.100, -10.580, -11.393, 24.38, 0.17361, 0.60852, -0.19983, 0.74802,
 12:46:23.023,f6:90:cc:01:6d:25, 2015-01-01 02:16:01.305, 0.981, -0.096, 0.049, -0.183, 0.732, 0, -64.259, -83.633, -122.173, -31.080, -8.373, -2.693, 27.79, 0.00525, 0.68591, -0.07394, 0.72382,
 12:46:23.023,f6:90:cc:01:6d:25, 2015-01-01 02:16:01.305, 0.981, -0.098, 0.051, -0.122, 0.732, 0, -64.144, -83.628, -122.289, -31.080, -8.373, -2.693, 27.79, 0.00525, 0.68591, -0.07394, 0.72382,
 12:46:23.026,ed:35:33:d3:6c:f8, 2015-01-01 02:16:00.700, 0.875, 0.028, 0.463, 0.061, 1.404, 0.122, 3.664, -61.771, 142.218, -21.807, -9.593, -18.807, 27.87, 0.26212, 0.4946, -0.1402, 0.81665,
 12:46:23.026,ed:35:33:d3:6c:f8, 2015-01-01 02:16:00.700, 0.876, 0.029, 0.46, 0.366, 1.709, -0.061, 3.664, -61.738, 142.202, -21.807, -9.593, -18.807, 27.87, 0.26212, 0.4946, -0.1402, 0.81665,
 12:46:23.057,ed:40:fe:65:30:6c, 2015-01-01 02:16:00.725, 0.763, -0.094, 0.643, 0.244, 1.16, -0.122, -8.284, -49.131, -105.189, -24.067, -4.280, -0.733, 23.28, 0.5267, -0.36975, -0.19986, -0.7388,
 12:46:23.057,ed:40:fe:65:30:6c, 2015-01-01 02:16:00.725, 0.762, -0.098, 0.647, 0.366, 1.343, -0.305, -8.267, -49.109, -105.211, -24.067, -4.280, -0.733, 23.28, 0.5267, -0.36975, -0.19986, -0.7388,
 12:46:23.081,e3:ca:2d:fd:e0:8c, 2015-01-01 02:16:01.440, 1, -0.09, 0.186, 0.366, -0.061, 0.427, -26.043, -78.464, 175.248, -27.100, -10.580, -11.393, 24.38, 0.17377, 0.6084, -0.19995, 0.74802,
 12:46:23.081,e3:ca:2d:fd:e0:8c, 2015-01-01 02:16:01.440, 1.003, -0.091, 0.184, 0.183, -0.122, 0.244, -26.071, -78.464, 175.281, -27.100, -10.580, -11.393, 24.38, 0.17377, 0.6084, -0.19995, 0.74802,
 12:46:23.085,ed:35:33:d3:6c:f8, 2015-01-01 02:16:00.700, 0.875, 0.025, 0.463, 2.258, 1.038, -0.061, 3.708, -61.721, 142.18, -21.807, -9.593, -18.807, 27.87, 0.26212, 0.4946, -0.1402, 0.81665,
 12:46:23.085,ed:35:33:d3:6c:f8, 2015-01-01 02:16:00.700, 0.877, 0.024, 0.464, 2.991, 0.671, -0.549, 3.785, -61.71, 142.136, -21.807, -9.593, -18.807, 27.87, 0.26212, 0.4946, -0.1402, 0.81665,
 12:46:23.085,f6:90:cc:01:6d:25, 2015-01-01 02:16:01.305, 0.981, -0.097, 0.049, 0, 1.16, 0, -64.006, -83.622, -122.421, -31.080, -8.373, -2.693, 27.79, 0.00525, 0.68591, -0.07394, 0.72382,
 12:46:23.085,f6:90:cc:01:6d:25, 2015-01-01 02:16:01.305, 0.981, -0.097, 0.048, 0, 1.404, -0.305, -63.803, -83.611, -122.618, -31.080, -8.373, -2.693, 27.79, 0.00525, 0.68591, -0.07394, 0.72382,
 12:46:23.087,ed:40:fe:65:30:6c, 2015-01-01 02:16:00.725, 0.761, -0.098, 0.65, 0.366, 1.465, -0.61, -8.245, -49.081, -105.238, -24.067, -4.280, -0.733, 23.28, 0.5267, -0.36975, -0.19986, -0.7388,
 12:46:23.087,ed:40:fe:65:30:6c, 2015-01-01 02:16:00.725, 0.763, -0.092, 0.654, 0.244, 1.343, -0.854, -8.218, -49.059, -105.287, -24.067, -4.280, -0.733, 23.28, 0.5267, -0.36975, -0.19986, -0.7388,
 12:46:23.110,e3:ca:2d:fd:e0:8c, 2015-01-01 02:16:01.800, 1.004, -0.091, 0.183, 0, 0, 0, -26.087, -78.464, 175.303, -27.100, -10.580, -11.393, 24.38, 0.17377, 0.6084, -0.19995, 0.74802,
 12:46:23.110,e3:ca:2d:fd:e0:8c, 2015-01-01 02:16:01.800, 1.003, -0.091, 0.183, -0.061, 0.061, 0, -26.082, -78.459, 175.298, -27.100, -10.580, -11.393, 24.38, 0.17377, 0.6084, -0.19995, 0.74802,
 12:46:23.112,f6:90:cc:01:6d:25, 2015-01-01 02:16:01.720, 0.981, -0.096, 0.042, -0.366, 1.77, -0.427, -63.539, -83.606, -122.882, -31.080, -8.373, -2.693, 27.79, 0.00525, 0.68591, -0.07394, 0.72382,
 12:46:23.112,f6:90:cc:01:6d:25, 2015-01-01 02:16:01.720, 0.983, -0.097, 0.045, -0.854, 1.587, -0.427, -63.254, -83.6, -123.173, -31.080, -8.373, -2.693, 27.79, 0.00525, 0.68591, -0.07394, 0.72382,
 12:46:23.112,f6:90:cc:01:6d:25, 2015-01-01 02:16:01.720, 0.986, -0.099, 0.048, -1.16, 1.404, -0.366, -63.007, -83.595, -123.448, -31.080, -8.373, -2.693, 27.79, 0.00525, 0.68591, -0.07394, 0.72382,
 12:46:23.112,f6:90:cc:01:6d:25, 2015-01-01 02:16:01.720, 0.984, -0.1, 0.044, -1.16, 1.282, -0.183, -62.803, -83.589, -123.684, -31.080, -8.373, -2.693, 27.79, 0.00525, 0.68591, -0.07394, 0.72382,
 12:46:23.114,ed:35:33:d3:6c:f8, 2015-01-01 02:16:01.060, 0.875, 0.028, 0.47, 1.648, 1.099, -0.427, 3.823, -61.688, 142.097, -21.807, -9.593, -18.807, 27.87, 0.26212, 0.4946, -0.1402, 0.81665,
 12:46:23.114,ed:35:33:d3:6c:f8, 2015-01-01 02:16:01.060, 0.878, 0.042, 0.471, 0.549, 1.526, -0.305, 3.845, -61.672, 142.081, -21.807, -9.593, -18.807, 27.87, 0.26212, 0.4946, -0.1402, 0.81665,
 12:46:23.117,ed:40:fe:65:30:6c, 2015-01-01 02:16:00.725, 0.765, -0.087, 0.654, 0.061, 1.16, -0.916, -8.19, -49.037, -105.337, -24.067, -4.280, -0.733, 23.28, 0.5267, -0.36975, -0.19986, -0.7388,
 12:46:23.117,ed:40:fe:65:30:6c, 2015-01-01 02:16:00.725, 0.763, -0.086, 0.656, 0.122, 1.221, -0.549, -8.168, -49.021, -105.375, -24.067, -4.280, -0.733, 23.28, 0.5267, -0.36975, -0.19986, -0.7388,
 12:46:23.141,e3:ca:2d:fd:e0:8c, 2015-01-01 02:16:01.800, 1.003, -0.09, 0.18, 0, 0, 0, -26.082, -78.459, 175.298, -27.100, -10.580, -11.393, 24.38, 0.17377, 0.6084, -0.19995, 0.74802,
 12:46:23.141,e3:ca:2d:fd:e0:8c, 2015-01-01 02:16:01.800, 1.003, -0.092, 0.178, 0, 0.183, 0.061, -26.082, -78.459, 175.292, -27.100, -10.580, -11.393, 24.38, 0.17377, 0.6084, -0.19995, 0.74802,
 12:46:23.145,ed:35:33:d3:6c:f8, 2015-01-01 02:16:01.060, 0.876, 0.04, 0.477, 0.183, 1.404, 0.732, 3.851, -61.644, 142.075, -21.807, -9.593, -18.807, 27.87, 0.26212, 0.4946, -0.1402, 0.81665,
 12:46:23.145,ed:35:33:d3:6c:f8, 2015-01-01 02:16:01.060, 0.871, 0.038, 0.476, -0.061, 0.732, 0.61, 3.829, -61.622, 142.092, -21.807, -9.593, -18.807, 27.87, 0.26212, 0.4946, -0.1402, 0.81665,
 12:46:23.173,f6:90:cc:01:6d:25, 2015-01-01 02:16:01.720, 0.98, -0.102, 0.044, -0.305, 1.038, 0, -62.639, -83.578, -123.854, -31.080, -8.373, -2.693, 27.79, 0.00525, 0.68591, -0.07394, 0.72382,
 12:46:23.173,f6:90:cc:01:6d:25, 2015-01-01 02:16:01.720, 0.977, -0.102, 0.048, -0.061, 0.977, 0.183, -62.512, -83.573, -123.959, -31.080, -8.373, -2.693, 27.79, 0.00525, 0.68591, -0.07394, 0.72382,
 12:46:23.177,ed:40:fe:65:30:6c, 2015-01-01 02:16:00.725, 0.758, -0.087, 0.657, 0.122, 1.221, -0.122, -8.152, -48.999, -105.403, -24.067, -4.280, -0.733, 23.28, 0.5267, -0.36975, -0.19986, -0.7388,
 12:46:23.177,ed:40:fe:65:30:6c, 2015-01-01 02:16:00.725, 0.753, -0.087, 0.656, 0.305, 1.221, 0.183, -8.141, -48.977, -105.436, -24.067, -4.280, -0.733, 23.28, 0.5267, -0.36975, -0.19986, -0.7388,
 12:46:23.199,e3:ca:2d:fd:e0:8c, 2015-01-01 02:16:01.800, 1.002, -0.093, 0.18, 0, 0.244, 0, -26.082, -78.453, 175.287, -27.100, -10.580, -11.393, 24.38, 0.17377, 0.6084, -0.19995, 0.74802,
 12:46:23.199,e3:ca:2d:fd:e0:8c, 2015-01-01 02:16:01.800, 1.001, -0.091, 0.18, -0.061, 0.244, -0.061, -26.076, -78.453, 175.27, -27.100, -10.580, -11.393, 24.38, 0.17377, 0.6084, -0.19995, 0.74802,
 12:46:23.203,f6:90:cc:01:6d:25, 2015-01-01 02:16:01.720, 0.974, -0.099, 0.05, 0, 0.854, 0.305, -62.413, -83.557, -124.03, -31.080, -8.373, -2.693, 27.79, 0.00525, 0.68591, -0.07394, 0.72382,
 12:46:23.203,f6:90:cc:01:6d:25, 2015-01-01 02:16:01.720, 0.978, -0.097, 0.052, -0.122, 0.549, 0.427, -62.347, -83.546, -124.08, -31.080, -8.373, -2.693, 27.79, 0.00525, 0.68591, -0.07394, 0.72382,
 12:46:23.205,ed:35:33:d3:6c:f8, 2015-01-01 02:16:01.060, 0.866, 0.035, 0.478, 0.427, 1.038, 0.916, 3.801, -61.606, 142.108, -21.807, -9.593, -18.807, 27.87, 0.26212, 0.4946, -0.1402, 0.81665,
 12:46:23.205,ed:35:33:d3:6c:f8, 2015-01-01 02:16:01.060, 0.865, 0.035, 0.478, 0.488, 0.977, 1.038, 3.779, -61.589, 142.152, -21.807, -9.593, -18.807, 27.87, 0.26212, 0.4946, -0.1402, 0.81665,
 12:46:23.207,ed:40:fe:65:30:6c, 2015-01-01 02:16:00.725, 0.75, -0.087, 0.658, 0.488, 0.977, 0.427, -8.135, -48.955, -105.452, -23.953, -4.953, -0.920, 23.28, 0.5267, -0.36975, -0.19986, -0.7388,
 12:46:23.207,ed:40:fe:65:30:6c, 2015-01-01 02:16:00.725, 0.752, -0.086, 0.658, 0.366, 0.671, 0.61, -8.13, -48.939, -105.463, -23.953, -4.953, -0.920, 23.28, 0.5267, -0.36975, -0.19986, -0.7388,
 12:46:23.229,e3:ca:2d:fd:e0:8c, 2015-01-01 02:16:01.800, 1.001, -0.088, 0.182, -0.061, 0.244, -0.061, -26.065, -78.448, 175.254, -27.100, -10.580, -11.393, 24.38, 0.17377, 0.6084, -0.19995, 0.74802,
 12:46:23.229,e3:ca:2d:fd:e0:8c, 2015-01-01 02:16:01.800, 1, -0.087, 0.184, -0.122, 0.183, 0, -26.06, -78.448, 175.243, -27.100, -10.580, -11.393, 24.38, 0.17377, 0.6084, -0.19995, 0.74802,
 12:46:23.233,f6:90:cc:01:6d:25, 2015-01-01 02:16:01.720, 0.98, -0.094, 0.053, -0.183, 0.183, 0.488, -62.336, -83.535, -124.091, -31.080, -8.373, -2.693, 27.79, 0.00525, 0.68591, -0.07394, 0.72382,
 12:46:23.233,f6:90:cc:01:6d:25, 2015-01-01 02:16:01.720, 0.983, -0.092, 0.053, -0.305, -0.061, 0.549, -62.375, -83.524, -124.047, -31.080, -8.373, -2.693, 27.79, 0.00525, 0.68591, -0.07394, 0.72382,
 12:46:23.235,ed:35:33:d3:6c:f8, 2015-01-01 02:16:01.060, 0.868, 0.034, 0.478, 0, 1.343, 1.038, 3.752, -61.567, 142.191, -21.807, -9.593, -18.807, 27.87, 0.26212, 0.4946, -0.1402, 0.81665,
 12:46:23.235,ed:35:33:d3:6c:f8, 2015-01-01 02:16:01.060, 0.872, 0.037, 0.48, -0.854, 1.587, 0.854, 3.708, -61.54, 142.207, -21.807, -9.593, -18.807, 27.87, 0.26212, 0.4946, -0.1402, 0.81665,
 12:46:23.239,ed:40:fe:65:30:6c, 2015-01-01 02:16:00.725, 0.754, -0.083, 0.659, 0.061, 0.488, 0.61, -8.135, -48.928, -105.452, -23.953, -4.953, -0.920, 23.28, 0.5267, -0.36975, -0.19986, -0.7388,
 12:46:23.239,ed:40:fe:65:30:6c, 2015-01-01 02:16:00.725, 0.758, -0.084, 0.661, -0.427, 0.427, 0.427, -8.141, -48.911, -105.441, -23.953, -4.953, -0.920, 23.28, 0.5267, -0.36975, -0.19986, -0.7388,
 12:46:23.265,ed:35:33:d3:6c:f8, 2015-01-01 02:16:01.060, 0.873, 0.033, 0.479, -1.648, 1.648, 0.549, 3.664, -61.507, 142.207, -21.807, -9.593, -18.807, 27.87, 0.26212, 0.4946, -0.1402, 0.81665,
 12:46:23.265,ed:35:33:d3:6c:f8, 2015-01-01 02:16:01.060, 0.872, 0.03, 0.479, -1.465, 1.892, 0.366, 3.615, -61.469, 142.207, -21.807, -9.593, -18.807, 27.87, 0.26212, 0.4946, -0.1402, 0.81665,
 12:46:23.291,e3:ca:2d:fd:e0:8c, 2015-01-01 02:16:01.800, 1, -0.087, 0.185, -0.244, 0.122, 0.122, -26.065, -78.442, 175.237, -27.100, -10.580, -11.393, 24.38, 0.17377, 0.6084, -0.19995, 0.74802,
 12:46:23.291,e3:ca:2d:fd:e0:8c, 2015-01-01 02:16:01.800, 1, -0.088, 0.188, -0.366, 0.061, 0.061, -26.076, -78.442, 175.243, -27.100, -10.580, -11.393, 24.38, 0.17377, 0.6084, -0.19995, 0.74802,
 12:46:23.299,ed:40:fe:65:30:6c, 2015-01-01 02:16:00.725, 0.757, -0.088, 0.658, -0.488, 0.427, 0.183, -8.152, -48.9, -105.436, -23.953, -4.953, -0.920, 23.28, 0.52652, -0.36774, -0.19864, -0.74023,
 12:46:23.299,ed:40:fe:65:30:6c, 2015-01-01 02:16:00.725, 0.755, -0.09, 0.659, -0.488, 0.488, 0.061, -8.157, -48.895, -105.436, -23.953, -4.953, -0.920, 23.28, 0.52652, -0.36774, -0.19864, -0.74023,
 12:46:23.321,e3:ca:2d:fd:e0:8c, 2015-01-01 02:16:01.800, 0.998, -0.089, 0.188, -0.427, -0.061, 0.061, -26.087, -78.442, 175.248, -27.120, -10.693, -12.973, 24.38, 0.17377, 0.6084, -0.19995, 0.74802,
 12:46:23.321,e3:ca:2d:fd:e0:8c, 2015-01-01 02:16:01.800, 0.999, -0.089, 0.188, -0.366, 0, 0, -26.093, -78.442, 175.248, -27.120, -10.693, -12.973, 24.38, 0.17377, 0.6084, -0.19995, 0.74802,
 12:46:23.322,f6:90:cc:01:6d:25, 2015-01-01 02:16:01.720, 0.982, -0.094, 0.057, -0.61, -0.122, 0.488, -62.446, -83.518, -123.959, -31.080, -8.373, -2.693, 27.79, 0.00525, 0.68591, -0.07394, 0.72382,
 12:46:23.322,f6:90:cc:01:6d:25, 2015-01-01 02:16:01.720, 0.981, -0.098, 0.055, -0.916, 0.061, 0.488, -62.501, -83.513, -123.887, -31.080, -8.373, -2.693, 27.79, 0.00525, 0.68591, -0.07394, 0.72382,
 12:46:23.324,f6:90:cc:01:6d:25, 2015-01-01 02:16:01.720, 0.978, -0.099, 0.055, -0.977, 0.244, 0.488, -62.529, -83.502, -123.838, -31.173, -7.920, -2.353, 27.79, 0.00525, 0.68591, -0.07394, 0.72382,
 12:46:23.324,f6:90:cc:01:6d:25, 2015-01-01 02:16:01.720, 0.98, -0.099, 0.057, -0.793, 0.305, 0.305, -62.523, -83.496, -123.838, -31.173, -7.920, -2.353, 27.79, 0.00525, 0.68591, -0.07394, 0.72382,
 12:46:23.325,ed:35:33:d3:6c:f8, 2015-01-01 02:16:01.060, 0.87, 0.027, 0.479, -0.854, 1.648, 0.427, 3.576, -61.43, 142.213, -21.807, -9.593, -18.807, 27.87, 0.26212, 0.4946, -0.1402, 0.81665,
 12:46:23.325,ed:35:33:d3:6c:f8, 2015-01-01 02:16:01.060, 0.87, 0.021, 0.479, -0.793, 1.77, -0.183, 3.549, -61.397, 142.234, -21.807, -9.593, -18.807, 27.87, 0.26212, 0.4946, -0.1402, 0.81665,
 12:46:23.350,e3:ca:2d:fd:e0:8c, 2015-01-01 02:16:01.800, 1.001, -0.089, 0.188, -0.244, -0.061, 0.061, -26.098, -78.442, 175.254, -27.120, -10.693, -12.973, 24.38, 0.17377, 0.6084, -0.19995, 0.74802,
 12:46:23.350,e3:ca:2d:fd:e0:8c, 2015-01-01 02:16:01.800, 1.001, -0.09, 0.186, -0.183, -0.061, 0.122, -26.109, -78.442, 175.265, -27.120, -10.693, -12.973, 24.38, 0.17377, 0.6084, -0.19995, 0.74802,
 12:46:23.352,f6:90:cc:01:6d:25, 2015-01-01 02:16:01.720, 0.982, -0.103, 0.053, -0.61, 0.549, 0, -62.474, -83.485, -123.904, -31.173, -7.920, -2.353, 27.79, 0.00525, 0.68591, -0.07394, 0.72382,
 12:46:23.352,f6:90:cc:01:6d:25, 2015-01-01 02:16:01.720, 0.981, -0.104, 0.051, -0.244, 0.671, -0.122, -62.369, -83.485, -124.003, -31.173, -7.920, -2.353, 27.79, 0.00525, 0.68591, -0.07394, 0.72382,
 12:46:23.355,ed:35:33:d3:6c:f8, 2015-01-01 02:16:01.060, 0.872, 0.022, 0.48, -0.427, 1.892, -0.732, 3.543, -61.359, 142.229, -21.920, -9.613, -18.567, 27.87, 0.26212, 0.4946, -0.1402, 0.81665,
 12:46:23.355,ed:35:33:d3:6c:f8, 2015-01-01 02:16:01.060, 0.872, 0.023, 0.479, 0.549, 1.526, -0.671, 3.56, -61.32, 142.185, -21.920, -9.613, -18.567, 27.87, 0.26212, 0.4946, -0.1402, 0.81665,
 12:46:23.358,ed:40:fe:65:30:6c, 2015-01-01 02:16:01.080, 0.752, -0.093, 0.659, -0.366, 0.61, 0, -8.157, -48.878, -105.436, -23.953, -4.953, -0.920, 23.28, 0.52652, -0.36774, -0.19864, -0.74023,
 12:46:23.358,ed:40:fe:65:30:6c, 2015-01-01 02:16:01.080, 0.755, -0.097, 0.658, -0.244, 0.61, -0.244, -8.152, -48.867, -105.441, -23.953, -4.953, -0.920, 23.28, 0.52652, -0.36774, -0.19864, -0.74023,
 12:46:23.358,ed:40:fe:65:30:6c, 2015-01-01 02:16:01.080, 0.758, -0.097, 0.656, 0, 0.61, -0.244, -8.146, -48.851, -105.458, -23.953, -4.953, -0.920, 23.28, 0.52652, -0.36774, -0.19864, -0.74023,
 12:46:23.358,ed:40:fe:65:30:6c, 2015-01-01 02:16:01.080, 0.756, -0.098, 0.655, 0.244, 0.488, -0.183, -8.135, -48.84, -105.474, -23.953, -4.953, -0.920, 23.28, 0.52652, -0.36774, -0.19864, -0.74023,
 12:46:23.385,ed:35:33:d3:6c:f8, 2015-01-01 02:16:01.060, 0.871, 0.021, 0.478, 1.526, 0.732, -0.549, 3.593, -61.293, 142.136, -21.920, -9.613, -18.567, 27.87, 0.26212, 0.4946, -0.1402, 0.81665,
 12:46:23.385,ed:35:33:d3:6c:f8, 2015-01-01 02:16:01.060, 0.873, 0.021, 0.477, 1.526, 0.61, -0.427, 3.636, -61.276, 142.092, -21.920, -9.613, -18.567, 27.87, 0.26212, 0.4946, -0.1402, 0.81665,
 12:46:23.418,ed:40:fe:65:30:6c, 2015-01-01 02:16:01.080, 0.757, -0.1, 0.656, 0.244, 0.61, -0.244, -8.119, -48.829, -105.496, -23.953, -4.953, -0.920, 23.28, 0.52652, -0.36774, -0.19864, -0.74023,
 12:46:23.418,ed:40:fe:65:30:6c, 2015-01-01 02:16:01.080, 0.756, -0.101, 0.658, 0.305, 0.671, -0.305, -8.108, -48.818, -105.518, -23.953, -4.953, -0.920, 23.28, 0.52652, -0.36774, -0.19864, -0.74023,
 12:46:23.440,e3:ca:2d:fd:e0:8c, 2015-01-01 02:16:01.800, 1.001, -0.091, 0.183, -0.122, -0.061, 0.061, -26.12, -78.442, 175.27, -27.120, -10.693, -12.973, 24.38, 0.17386, 0.60818, -0.20029, 0.74808,
 12:46:23.440,e3:ca:2d:fd:e0:8c, 2015-01-01 02:16:01.800, 1.002, -0.091, 0.182, -0.061, 0, 0.061, -26.125, -78.442, 175.276, -27.120, -10.693, -12.973, 24.38, 0.17386, 0.60818, -0.20029, 0.74808,
 12:46:23.442,f6:90:cc:01:6d:25, 2015-01-01 02:16:01.720, 0.981, -0.104, 0.052, -0.305, 0.793, -0.244, -62.243, -83.48, -124.102, -31.173, -7.920, -2.353, 27.79, 0.00525, 0.68591, -0.07394, 0.72382,
 12:46:23.442,f6:90:cc:01:6d:25, 2015-01-01 02:16:01.720, 0.98, -0.106, 0.053, 0, 0.793, -0.366, -62.1, -83.474, -124.228, -31.173, -7.920, -2.353, 27.79, 0.00525, 0.68591, -0.07394, 0.72382,
 12:46:23.445,ed:35:33:d3:6c:f8, 2015-01-01 02:16:01.060, 0.871, 0.023, 0.48, 1.221, 0.671, 0, 3.669, -61.26, 142.059, -21.920, -9.613, -18.567, 27.87, 0.26401, 0.4906, -0.13953, 0.81854,
 12:46:23.445,ed:35:33:d3:6c:f8, 2015-01-01 02:16:01.060, 0.871, 0.024, 0.482, 0.671, 0.671, 0.549, 3.68, -61.249, 142.053, -21.920, -9.613, -18.567, 27.87, 0.26401, 0.4906, -0.13953, 0.81854,
 12:46:23.447,ed:40:fe:65:30:6c, 2015-01-01 02:16:01.080, 0.755, -0.1, 0.66, 0.549, 0.549, -0.122, -8.097, -48.801, -105.529, -23.953, -4.953, -0.920, 23.28, 0.52652, -0.36774, -0.19864, -0.74023,
 12:46:23.447,ed:40:fe:65:30:6c, 2015-01-01 02:16:01.080, 0.755, -0.098, 0.66, 0.366, 0.366, 0.061, -8.086, -48.796, -105.535, -23.953, -4.953, -0.920, 23.28, 0.52652, -0.36774, -0.19864, -0.74023,
 12:46:23.471,e3:ca:2d:fd:e0:8c, 2015-01-01 02:16:02.125, 1.003, -0.093, 0.181, 0.061, 0, 0, -26.125, -78.437, 175.281, -27.120, -10.693, -12.973, 24.38, 0.17386, 0.60818, -0.20029, 0.74808,
 12:46:23.471,e3:ca:2d:fd:e0:8c, 2015-01-01 02:16:02.125, 1.002, -0.093, 0.18, 0.061, 0.061, 0, -26.125, -78.437, 175.276, -27.120, -10.693, -12.973, 24.38, 0.17386, 0.60818, -0.20029, 0.74808,
 12:46:23.471,e3:ca:2d:fd:e0:8c, 2015-01-01 02:16:02.125, 1.001, -0.094, 0.18, 0.122, 0.061, -0.061, -26.12, -78.437, 175.27, -27.120, -10.693, -12.973, 24.38, 0.17386, 0.60818, -0.20029, 0.74808,
 12:46:23.471,e3:ca:2d:fd:e0:8c, 2015-01-01 02:16:02.125, 1.001, -0.095, 0.182, 0.183, 0.061, -0.122, -26.115, -78.437, 175.259, -27.120, -10.693, -12.973, 24.38, 0.17386, 0.60818, -0.20029, 0.74808,
 12:46:23.477,ed:40:fe:65:30:6c, 2015-01-01 02:16:01.080, 0.757, -0.091, 0.655, 0.183, 0.244, 0.366, -8.086, -48.785, -105.529, -23.953, -4.953, -0.920, 23.28, 0.52652, -0.36774, -0.19864, -0.74023,
 12:46:23.477,ed:40:fe:65:30:6c, 2015-01-01 02:16:01.080, 0.761, -0.089, 0.655, 0.427, 0.183, 0.549, -8.091, -48.779, -105.513, -23.953, -4.953, -0.920, 23.28, 0.52652, -0.36774, -0.19864, -0.74023,
 12:46:23.504,ed:35:33:d3:6c:f8, 2015-01-01 02:16:01.445, 0.868, 0.027, 0.479, 0.122, 0.427, 0.549, 3.658, -61.238, 142.075, -21.920, -9.613, -18.567, 27.87, 0.26401, 0.4906, -0.13953, 0.81854,
 12:46:23.504,ed:35:33:d3:6c:f8, 2015-01-01 02:16:01.445, 0.873, 0.035, 0.475, 0.366, 0.61, 0.549, 3.636, -61.227, 142.097, -21.920, -9.613, -18.567, 27.87, 0.26401, 0.4906, -0.13953, 0.81854,
 12:46:23.507,ed:35:33:d3:6c:f8, 2015-01-01 02:16:01.445, 0.874, 0.033, 0.478, 0.366, 0.732, 0.793, 3.615, -61.216, 142.114, -21.920, -9.613, -18.567, 27.87, 0.26401, 0.4906, -0.13953, 0.81854,
 12:46:23.507,ed:35:33:d3:6c:f8, 2015-01-01 02:16:01.445, 0.874, 0.038, 0.48, 0.854, 0.488, 0.977, 3.587, -61.199, 142.158, -21.920, -9.613, -18.567, 27.87, 0.26401, 0.4906, -0.13953, 0.81854,
 12:46:23.530,e3:ca:2d:fd:e0:8c, 2015-01-01 02:16:02.125, 1.002, -0.094, 0.182, 0.305, 0.244, -0.183, -26.098, -78.437, 175.237, -27.120, -10.693, -12.973, 24.38, 0.17386, 0.60818, -0.20029, 0.74808,
 12:46:23.530,e3:ca:2d:fd:e0:8c, 2015-01-01 02:16:02.125, 1.001, -0.092, 0.186, 0.305, 0.427, -0.183, -26.071, -78.431, 175.204, -27.120, -10.693, -12.973, 24.38, 0.17386, 0.60818, -0.20029, 0.74808,
 12:46:23.532,f6:90:cc:01:6d:25, 2015-01-01 02:16:01.720, 0.98, -0.106, 0.05, 0.305, 0.854, -0.549, -61.941, -83.474, -124.36, -31.173, -7.920, -2.353, 27.79, 0.00458, 0.68414, -0.07352, 0.72556,
 12:46:23.532,f6:90:cc:01:6d:25, 2015-01-01 02:16:01.720, 0.978, -0.109, 0.05, 0.854, 0.916, -0.61, -61.76, -83.474, -124.508, -31.173, -7.920, -2.353, 27.79, 0.00458, 0.68414, -0.07352, 0.72556,
 12:46:23.538,ed:40:fe:65:30:6c, 2015-01-01 02:16:01.080, 0.761, -0.089, 0.656, 0.488, 0.122, 0.793, -8.097, -48.774, -105.491, -23.953, -4.953, -0.920, 23.28, 0.52652, -0.36774, -0.19864, -0.74023,
 12:46:23.538,ed:40:fe:65:30:6c, 2015-01-01 02:16:01.080, 0.759, -0.087, 0.66, 0.732, 0.305, 1.16, -8.108, -48.763, -105.452, -23.953, -4.953, -0.920, 23.28, 0.52652, -0.36774, -0.19864, -0.74023,
 12:46:23.561,e3:ca:2d:fd:e0:8c, 2015-01-01 02:16:02.125, 1, -0.09, 0.185, 0.244, 0.366, -0.183, -26.043, -78.426, 175.172, -27.120, -10.693, -12.973, 24.38, 0.17386, 0.60818, -0.20029, 0.74808,
 12:46:23.561,e3:ca:2d:fd:e0:8c, 2015-01-01 02:16:02.125, 1.001, -0.088, 0.186, 0.183, 0.305, -0.183, -26.016, -78.42, 175.139, -27.120, -10.693, -12.973, 24.38, 0.17386, 0.60818, -0.20029, 0.74808,
 12:46:23.563,f6:90:cc:01:6d:25, 2015-01-01 02:16:01.720, 0.979, -0.106, 0.048, 0.671, 0.977, -0.488, -61.578, -83.474, -124.667, -31.173, -7.920, -2.353, 27.79, 0.00458, 0.68414, -0.07352, 0.72556,
 12:46:23.563,f6:90:cc:01:6d:25, 2015-01-01 02:16:01.720, 0.983, -0.101, 0.048, 0.244, 0.671, -0.244, -61.441, -83.469, -124.777, -31.173, -7.920, -2.353, 27.79, 0.00458, 0.68414, -0.07352, 0.72556,
 12:46:23.567,ed:35:33:d3:6c:f8, 2015-01-01 02:16:01.445, 0.869, 0.035, 0.482, 0.916, 0.427, 1.77, 3.565, -61.194, 142.207, -21.920, -9.613, -18.567, 27.87, 0.26401, 0.4906, -0.13953, 0.81854,
 12:46:23.567,ed:35:33:d3:6c:f8, 2015-01-01 02:16:01.445, 0.865, 0.031, 0.482, 0.427, 0.305, 1.465, 3.521, -61.188, 142.262, -21.920, -9.613, -18.567, 27.87, 0.26401, 0.4906, -0.13953, 0.81854,
 12:46:23.567,ed:40:fe:65:30:6c, 2015-01-01 02:16:01.080, 0.753, -0.088, 0.659, 0.793, 0.305, 1.465, -8.124, -48.752, -105.408, -23.600, -4.087, -0.520, 23.28, 0.52652, -0.36774, -0.19864, -0.74023,
 12:46:23.567,ed:40:fe:65:30:6c, 2015-01-01 02:16:01.080, 0.751, -0.087, 0.661, 0.488, 0.244, 1.343, -8.141, -48.746, -105.364, -23.600, -4.087, -0.520, 23.28, 0.52652, -0.36774, -0.19864, -0.74023,
 12:46:23.590,e3:ca:2d:fd:e0:8c, 2015-01-01 02:16:02.125, 1.001, -0.086, 0.185, 0.061, 0.183, 0, -25.999, -78.42, 175.117, -27.120, -10.693, -12.973, 24.38, 0.17386, 0.60818, -0.20029, 0.74808,
 12:46:23.590,e3:ca:2d:fd:e0:8c, 2015-01-01 02:16:02.125, 1.001, -0.085, 0.184, -0.061, 0.122, 0, -25.994, -78.415, 175.111, -27.120, -10.693, -12.973, 24.38, 0.17386, 0.60818, -0.20029, 0.74808,
 12:46:23.592,f6:90:cc:01:6d:25, 2015-01-01 02:16:01.720, 0.986, -0.103, 0.054, 0.671, 0.366, -0.122, -61.37, -83.463, -124.843, -31.173, -7.920, -2.353, 27.79, 0.00458, 0.68414, -0.07352, 0.72556,
 12:46:23.592,f6:90:cc:01:6d:25, 2015-01-01 02:16:01.720, 0.984, -0.102, 0.053, 0.977, 0.549, 0.122, -61.309, -83.458, -124.898, -31.173, -7.920, -2.353, 27.79, 0.00458, 0.68414, -0.07352, 0.72556,
 12:46:23.594,ed:35:33:d3:6c:f8, 2015-01-01 02:16:01.445, 0.867, 0.031, 0.483, 0.427, 0.244, 1.282, 3.477, -61.183, 142.295, -21.920, -9.613, -18.567, 27.87, 0.26401, 0.4906, -0.13953, 0.81854,
 12:46:23.594,ed:35:33:d3:6c:f8, 2015-01-01 02:16:01.445, 0.867, 0.031, 0.481, 0.305, 0.183, 1.16, 3.444, -61.177, 142.317, -21.920, -9.613, -18.567, 27.87, 0.26401, 0.4906, -0.13953, 0.81854,
 12:46:23.598,ed:40:fe:65:30:6c, 2015-01-01 02:16:01.080, 0.753, -0.087, 0.659, 0.427, 0.061, 1.099, -8.152, -48.741, -105.331, -23.600, -4.087, -0.520, 23.28, 0.52652, -0.36774, -0.19864, -0.74023,
 12:46:23.598,ed:40:fe:65:30:6c, 2015-01-01 02:16:01.080, 0.753, -0.087, 0.658, 0.244, -0.061, 0.854, -8.163, -48.735, -105.298, -23.600, -4.087, -0.520, 23.28, 0.52652, -0.36774, -0.19864, -0.74023,
 12:46:23.622,f6:90:cc:01:6d:25, 2015-01-01 02:16:02.170, 0.979, -0.099, 0.053, 1.465, 1.099, 0.427, -61.21, -83.441, -124.986, -31.173, -7.920, -2.353, 27.79, 0.00458, 0.68414, -0.07352, 0.72556,
 12:46:23.622,f6:90:cc:01:6d:25, 2015-01-01 02:16:02.170, 0.978, -0.095, 0.055, 0.977, 1.343, 0.427, -61.057, -83.425, -125.129, -31.173, -7.920, -2.353, 27.79, 0.00458, 0.68414, -0.07352, 0.72556,
 12:46:23.624,f6:90:cc:01:6d:25, 2015-01-01 02:16:02.170, 0.979, -0.091, 0.056, 0.549, 1.099, 0.427, -60.914, -83.403, -125.31, -31.173, -7.920, -2.353, 27.79, 0.00458, 0.68414, -0.07352, 0.72556,
 12:46:23.624,f6:90:cc:01:6d:25, 2015-01-01 02:16:02.170, 0.979, -0.09, 0.054, 0.061, 0.61, 0.305, -60.82, -83.392, -125.436, -31.173, -7.920, -2.353, 27.79, 0.00458, 0.68414, -0.07352, 0.72556,
 12:46:23.626,ed:35:33:d3:6c:f8, 2015-01-01 02:16:01.445, 0.867, 0.031, 0.482, 0.183, 0.244, 0.854, 3.411, -61.172, 142.317, -21.920, -9.613, -18.567, 27.87, 0.26401, 0.4906, -0.13953, 0.81854,
 12:46:23.626,ed:35:33:d3:6c:f8, 2015-01-01 02:16:01.445, 0.866, 0.032, 0.483, 0, 0.488, 0.488, 3.389, -61.166, 142.328, -21.920, -9.613, -18.567, 27.87, 0.26401, 0.4906, -0.13953, 0.81854,
 12:46:23.650,e3:ca:2d:fd:e0:8c, 2015-01-01 02:16:02.125, 1, -0.083, 0.183, -0.061, 0.122, 0, -25.988, -78.415, 175.106, -27.120, -10.693, -12.973, 24.38, 0.17386, 0.60818, -0.20029, 0.74808,
 12:46:23.650,e3:ca:2d:fd:e0:8c, 2015-01-01 02:16:02.125, 1, -0.084, 0.185, -0.061, 0.183, 0, -25.983, -78.415, 175.095, -27.120, -10.693, -12.973, 24.38, 0.17386, 0.60818, -0.20029, 0.74808,
 12:46:23.658,ed:40:fe:65:30:6c, 2015-01-01 02:16:01.080, 0.752, -0.085, 0.659, 0.122, -0.061, 0.61, -8.168, -48.735, -105.282, -23.600, -4.087, -0.520, 23.28, 0.52783, -0.36649, -0.19812, -0.74008,
 12:46:23.658,ed:40:fe:65:30:6c, 2015-01-01 02:16:01.080, 0.751, -0.085, 0.66, 0, -0.061, 0.366, -8.174, -48.735, -105.276, -23.600, -4.087, -0.520, 23.28, 0.52783, -0.36649, -0.19812, -0.74008,
 12:46:23.680,e3:ca:2d:fd:e0:8c, 2015-01-01 02:16:02.125, 1, -0.086, 0.186, -0.061, 0.061, 0, -25.972, -78.409, 175.089, -26.900, -10.360, -12.973, 24.38, 0.17386, 0.60818, -0.20029, 0.74808,
 12:46:23.680,e3:ca:2d:fd:e0:8c, 2015-01-01 02:16:02.125, 1, -0.088, 0.187, -0.061, 0, 0, -25.961, -78.409, 175.089, -26.900, -10.360, -12.973, 24.38, 0.17386, 0.60818, -0.20029, 0.74808,
 12:46:23.682,f6:90:cc:01:6d:25, 2015-01-01 02:16:02.170, 0.979, -0.09, 0.059, 0.183, 0.305, 0.183, -60.776, -83.381, -125.513, -31.173, -7.920, -2.353, 27.79, 0.00458, 0.68414, -0.07352, 0.72556,
 12:46:23.682,f6:90:cc:01:6d:25, 2015-01-01 02:16:02.170, 0.979, -0.092, 0.058, 0.183, 0.244, 0, -60.732, -83.381, -125.557, -31.173, -7.920, -2.353, 27.79, 0.00458, 0.68414, -0.07352, 0.72556,
 12:46:23.682,f6:90:cc:01:6d:25, 2015-01-01 02:16:02.170, 0.978, -0.093, 0.058, 0.183, 0.122, 0, -60.699, -83.381, -125.585, -31.173, -7.920, -2.353, 27.79, 0.00458, 0.68414, -0.07352, 0.72556,
 12:46:23.682,f6:90:cc:01:6d:25, 2015-01-01 02:16:02.170, 0.979, -0.094, 0.058, -0.183, -0.122, -0.061, -60.694, -83.386, -125.585, -31.173, -7.920, -2.353, 27.79, 0.00458, 0.68414, -0.07352, 0.72556,
 12:46:23.684,ed:35:33:d3:6c:f8, 2015-01-01 02:16:01.445, 0.865, 0.03, 0.486, -0.183, 0.488, 0.183, 3.378, -61.155, 142.35, -21.920, -9.613, -18.567, 27.87, 0.26401, 0.4906, -0.13953, 0.81854,
 12:46:23.684,ed:35:33:d3:6c:f8, 2015-01-01 02:16:01.445, 0.867, 0.028, 0.483, -0.244, 0.244, -0.061, 3.373, -61.144, 142.383, -21.920, -9.613, -18.567, 27.87, 0.26401, 0.4906, -0.13953, 0.81854,
 12:46:23.688,ed:40:fe:65:30:6c, 2015-01-01 02:16:01.440, 0.751, -0.087, 0.662, -0.061, -0.183, 0.122, -8.168, -48.735, -105.271, -23.600, -4.087, -0.520, 23.28, 0.52783, -0.36649, -0.19812, -0.74008,
 12:46:23.688,ed:40:fe:65:30:6c, 2015-01-01 02:16:01.440, 0.754, -0.088, 0.66, -0.183, -0.366, -0.122, -8.168, -48.741, -105.276, -23.600, -4.087, -0.520, 23.28, 0.52783, -0.36649, -0.19812, -0.74008,
 12:46:23.710,e3:ca:2d:fd:e0:8c, 2015-01-01 02:16:02.125, 1.001, -0.089, 0.186, -0.183, 0, 0, -25.961, -78.409, 175.089, -26.900, -10.360, -12.973, 24.38, 0.17386, 0.60818, -0.20029, 0.74808,
 12:46:23.710,e3:ca:2d:fd:e0:8c, 2015-01-01 02:16:02.125, 1, -0.091, 0.187, -0.183, 0, 0, -25.955, -78.409, 175.089, -26.900, -10.360, -12.973, 24.38, 0.17386, 0.60818, -0.20029, 0.74808,
 12:46:23.714,ed:35:33:d3:6c:f8, 2015-01-01 02:16:01.445, 0.87, 0.027, 0.484, -0.427, 0.427, -0.366, 3.373, -61.133, 142.399, -21.553, -9.587, -18.233, 27.87, 0.26401, 0.4906, -0.13953, 0.81854,
 12:46:23.714,ed:35:33:d3:6c:f8, 2015-01-01 02:16:01.445, 0.87, 0.031, 0.481, -0.488, -0.061, -0.854, 3.384, -61.122, 142.388, -21.553, -9.587, -18.233, 27.87, 0.26401, 0.4906, -0.13953, 0.81854,
 12:46:23.718,ed:40:fe:65:30:6c, 2015-01-01 02:16:01.440, 0.757, -0.089, 0.659, -0.427, -0.366, -0.366, -8.163, -48.746, -105.293, -23.600, -4.087, -0.520, 23.28, 0.52783, -0.36649, -0.19812, -0.74008,
 12:46:23.718,ed:40:fe:65:30:6c, 2015-01-01 02:16:01.440, 0.759, -0.088, 0.658, -0.427, -0.427, -0.427, -8.157, -48.752, -105.309, -23.600, -4.087, -0.520, 23.28, 0.52783, -0.36649, -0.19812, -0.74008,
 12:46:23.742,f6:90:cc:01:6d:25, 2015-01-01 02:16:02.170, 0.981, -0.098, 0.058, -0.427, -0.366, -0.061, -60.727, -83.392, -125.563, -31.173, -7.920, -2.353, 27.79, 0.00458, 0.68414, -0.07352, 0.72556,
 12:46:23.742,f6:90:cc:01:6d:25, 2015-01-01 02:16:02.170, 0.982, -0.099, 0.057, -0.549, -0.305, -0.122, -60.76, -83.397, -125.53, -31.173, -7.920, -2.353, 27.79, 0.00458, 0.68414, -0.07352, 0.72556,
 12:46:23.745,ed:35:33:d3:6c:f8, 2015-01-01 02:16:01.445, 0.871, 0.033, 0.481, -0.061, 0.183, -0.366, 3.406, -61.117, 142.355, -21.553, -9.587, -18.233, 27.87, 0.26401, 0.4906, -0.13953, 0.81854,
 12:46:23.745,ed:35:33:d3:6c:f8, 2015-01-01 02:16:01.445, 0.87, 0.029, 0.48, -0.305, -0.122, -0.183, 3.417, -61.117, 142.339, -21.553, -9.587, -18.233, 27.87, 0.26401, 0.4906, -0.13953, 0.81854,
 12:46:23.770,e3:ca:2d:fd:e0:8c, 2015-01-01 02:16:02.125, 1, -0.09, 0.187, 0, 0, 0, -25.95, -78.409, 175.084, -26.900, -10.360, -12.973, 24.38, 0.17416, 0.60794, -0.20023, 0.74826,
 12:46:23.770,e3:ca:2d:fd:e0:8c, 2015-01-01 02:16:02.125, 1.001, -0.091, 0.186, 0, -0.061, 0, -25.95, -78.415, 175.089, -26.900, -10.360, -12.973, 24.38, 0.17416, 0.60794, -0.20023, 0.74826,
 12:46:23.772,f6:90:cc:01:6d:25, 2015-01-01 02:16:02.170, 0.982, -0.098, 0.056, -0.488, -0.305, 0, -60.804, -83.403, -125.502, -31.173, -7.920, -2.353, 27.79, 0.00458, 0.68414, -0.07352, 0.72556,
 12:46:23.772,f6:90:cc:01:6d:25, 2015-01-01 02:16:02.170, 0.982, -0.102, 0.057, -0.061, -0.183, 0.061, -60.831, -83.408, -125.48, -31.173, -7.920, -2.353, 27.79, 0.00458, 0.68414, -0.07352, 0.72556,
 12:46:23.778,ed:40:fe:65:30:6c, 2015-01-01 02:16:01.440, 0.758, -0.09, 0.658, -0.122, -0.366, -0.244, -8.146, -48.757, -105.326, -23.600, -4.087, -0.520, 23.28, 0.52783, -0.36649, -0.19812, -0.74008,
 12:46:23.778,ed:40:fe:65:30:6c, 2015-01-01 02:16:01.440, 0.756, -0.092, 0.657, -0.305, -0.305, -0.122, -8.146, -48.763, -105.331, -23.600, -4.087, -0.520, 23.28, 0.52783, -0.36649, -0.19812, -0.74008,
 12:46:23.800,e3:ca:2d:fd:e0:8c, 2015-01-01 02:16:02.485, 1.001, -0.093, 0.185, 0, -0.122, 0, -25.95, -78.415, 175.089, -26.900, -10.360, -12.973, 24.38, 0.17416, 0.60794, -0.20023, 0.74826,
 12:46:23.800,e3:ca:2d:fd:e0:8c, 2015-01-01 02:16:02.485, 1, -0.092, 0.184, 0, -0.183, 0, -25.955, -78.415, 175.1, -26.900, -10.360, -12.973, 24.38, 0.17416, 0.60794, -0.20023, 0.74826,
 12:46:23.808,ed:40:fe:65:30:6c, 2015-01-01 02:16:01.440, 0.756, -0.094, 0.658, -0.122, -0.061, -0.122, -8.141, -48.763, -105.337, -23.600, -4.087, -0.520, 23.28, 0.52783, -0.36649, -0.19812, -0.74008,
 12:46:23.808,ed:40:fe:65:30:6c, 2015-01-01 02:16:01.440, 0.752, -0.095, 0.658, -0.122, -0.061, -0.122, -8.141, -48.768, -105.337, -23.600, -4.087, -0.520, 23.28, 0.52783, -0.36649, -0.19812, -0.74008,
 12:46:23.830,e3:ca:2d:fd:e0:8c, 2015-01-01 02:16:02.485, 1.001, -0.091, 0.183, -0.122, -0.122, 0, -25.966, -78.42, 175.1, -26.900, -10.360, -12.973, 24.38, 0.17416, 0.60794, -0.20023, 0.74826,
 12:46:23.830,e3:ca:2d:fd:e0:8c, 2015-01-01 02:16:02.485, 1.001, -0.09, 0.182, -0.183, -0.122, 0, -25.977, -78.42, 175.106, -26.900, -10.360, -12.973, 24.38, 0.17416, 0.60794, -0.20023, 0.74826,
 12:46:23.836,ed:35:33:d3:6c:f8, 2015-01-01 02:16:01.445, 0.87, 0.026, 0.48, -0.244, 0.061, -0.305, 3.422, -61.111, 142.339, -21.553, -9.587, -18.233, 27.87, 0.2634, 0.48926, -0.13968, 0.81952,
 12:46:23.836,ed:35:33:d3:6c:f8, 2015-01-01 02:16:01.445, 0.868, 0.025, 0.482, -0.122, -0.183, -0.366, 3.428, -61.111, 142.317, -21.553, -9.587, -18.233, 27.87, 0.2634, 0.48926, -0.13968, 0.81952,
 12:46:23.838,ed:40:fe:65:30:6c, 2015-01-01 02:16:01.440, 0.753, -0.095, 0.658, -0.122, -0.061, -0.061, -8.135, -48.768, -105.331, -23.600, -4.087, -0.520, 23.28, 0.52783, -0.36649, -0.19812, -0.74008,
 12:46:23.838,ed:40:fe:65:30:6c, 2015-01-01 02:16:01.440, 0.755, -0.095, 0.658, -0.122, -0.305, 0, -8.141, -48.768, -105.32, -23.600, -4.087, -0.520, 23.28, 0.52783, -0.36649, -0.19812, -0.74008,
 12:46:23.865,ed:35:33:d3:6c:f8, 2015-01-01 02:16:01.800, 0.867, 0.025, 0.482, -0.122, -0.244, -0.183, 3.439, -61.111, 142.273, -21.553, -9.587, -18.233, 27.87, 0.2634, 0.48926, -0.13968, 0.81952,
 12:46:23.865,ed:35:33:d3:6c:f8, 2015-01-01 02:16:01.800, 0.869, 0.025, 0.483, -0.122, -0.305, -0.122, 3.444, -61.117, 142.256, -21.553, -9.587, -18.233, 27.87, 0.2634, 0.48926, -0.13968, 0.81952,
 12:46:23.865,ed:35:33:d3:6c:f8, 2015-01-01 02:16:01.800, 0.871, 0.026, 0.481, -0.122, -0.244, 0, 3.444, -61.117, 142.229, -21.553, -9.587, -18.233, 27.87, 0.2634, 0.48926, -0.13968, 0.81952,
 12:46:23.865,ed:35:33:d3:6c:f8, 2015-01-01 02:16:01.800, 0.872, 0.025, 0.479, -0.244, -0.122, 0.122, 3.433, -61.122, 142.224, -21.553, -9.587, -18.233, 27.87, 0.2634, 0.48926, -0.13968, 0.81952,
 12:46:23.889,e3:ca:2d:fd:e0:8c, 2015-01-01 02:16:02.485, 1.002, -0.091, 0.182, -0.061, 0, 0, -25.983, -78.42, 175.106, -26.900, -10.360, -12.973, 24.38, 0.17416, 0.60794, -0.20023, 0.74826,
 12:46:23.889,e3:ca:2d:fd:e0:8c, 2015-01-01 02:16:02.485, 1.001, -0.092, 0.184, 0, 0, 0, -25.988, -78.42, 175.106, -26.900, -10.360, -12.973, 24.38, 0.17416, 0.60794, -0.20023, 0.74826,
 12:46:23.893,f6:90:cc:01:6d:25, 2015-01-01 02:16:02.170, 0.981, -0.102, 0.056, -0.305, 0, 0.183, -60.842, -83.403, -125.486, -31.173, -7.920, -2.353, 27.79, 0.00458, 0.68414, -0.07352, 0.72556,
