Time,Device name,Chip Time(),Acceleration X(g),Acceleration Y(g),Acceleration Z(g),Angular velocity X(°/s),Angular velocity Y(°/s),Angular velocity Z(°/s),Angle X(°),Angle Y(°),Angle Z(°),Magnetic field X(ʯt),Magnetic field Y(ʯt),Magnetic field Z(ʯt),Temperature(℃),Quaternions 0(),Quaternions 1(),Quaternions 2(),Quaternions 3()
 15:31:48.272,f6:90:cc:01:6d:25, 2015-01-01 01:54:05.095, 0.965, -0.001, 0.219, -0.61, -1.038, 0, 1.055, -77.031, -155.418, -30.553, -11.427, -1.287, 32.55, 0.17477, -0.60562, -0.14163, -0.76321,
 15:31:48.272,f6:90:cc:01:6d:25, 2015-01-01 01:54:05.095, 0.962, 0, 0.221, -0.366, -0.671, 0, 1.038, -77.047, -155.418, -30.553, -11.427, -1.287, 32.55, 0.17477, -0.60562, -0.14163, -0.76321,
 15:31:48.292,ed:40:fe:65:30:6c, 2015-01-01 01:54:18.160, 0.792, -0.097, 0.611, -0.183, -0.854, 0.061, -8.438, -51.685, -112.17, -25.373, -6.700, -0.380, 27.94, -0.47354, 0.39743, 0.18701, 0.76334,
 15:31:48.292,ed:40:fe:65:30:6c, 2015-01-01 01:54:18.160, 0.791, -0.094, 0.612, 0.305, -0.61, 0.122, -8.443, -51.702, -112.154, -25.373, -6.700, -0.380, 27.94, -0.47354, 0.39743, 0.18701, 0.76334,
 15:31:48.296,e3:ca:2d:fd:e0:8c, 2015-01-01 01:54:07.465, 1.02, -0.022, -0.092, -1.16, -0.793, 0, -168.173, -84.836, -30.987, -26.660, -10.260, -1.587, 30.07, -0.10593, -0.72583, 0.12946, -0.66714,
 15:31:48.296,e3:ca:2d:fd:e0:8c, 2015-01-01 01:54:07.465, 1.021, -0.02, -0.09, -0.916, -0.793, 0, -168.234, -84.82, -30.932, -26.660, -10.260, -1.587, 30.07, -0.10593, -0.72583, 0.12946, -0.66714,
 15:31:48.298,ed:35:33:d3:6c:f8, 2015-01-01 01:54:06.195, 0.586, -0.134, 0.79, -0.671, -0.549, 0.061, -9.514, -35.771, 169.173, -17.687, -6.760, -28.207, 32.63, -0.11523, -0.29709, 0.10748, -0.94168,
 15:31:48.298,ed:35:33:d3:6c:f8, 2015-01-01 01:54:06.195, 0.583, -0.135, 0.79, -0.061, -0.244, 0.366, -9.525, -35.777, 169.244, -17.687, -6.760, -28.207, 32.63, -0.11523, -0.29709, 0.10748, -0.94168,
 15:31:48.304,f6:90:cc:01:6d:25, 2015-01-01 01:54:05.095, 0.964, 0, 0.219, -0.366, -0.488, 0, 1.022, -77.064, -155.424, -30.553, -11.427, -1.287, 32.55, 0.17477, -0.60562, -0.14163, -0.76321,
 15:31:48.304,f6:90:cc:01:6d:25, 2015-01-01 01:54:05.095, 0.963, -0.002, 0.221, -0.183, -0.122, 0.061, 1.011, -77.069, -155.424, -30.553, -11.427, -1.287, 32.55, 0.17477, -0.60562, -0.14163, -0.76321,
 15:31:48.323,ed:40:fe:65:30:6c, 2015-01-01 01:54:18.160, 0.793, -0.098, 0.613, 1.099, -0.549, 0, -8.438, -51.713, -112.148, -25.160, -6.647, 0.413, 27.94, -0.47354, 0.39743, 0.18701, 0.76334,
 15:31:48.323,ed:40:fe:65:30:6c, 2015-01-01 01:54:18.160, 0.786, -0.094, 0.611, 1.953, -0.671, 0.427, -8.416, -51.724, -112.148, -25.160, -6.647, 0.413, 27.94, -0.47354, 0.39743, 0.18701, 0.76334,
 15:31:48.325,e3:ca:2d:fd:e0:8c, 2015-01-01 01:54:07.465, 1.018, -0.02, -0.088, -0.488, -0.732, -0.122, -168.3, -84.803, -30.872, -26.660, -10.260, -1.587, 30.07, -0.10593, -0.72583, 0.12946, -0.66714,
 15:31:48.325,e3:ca:2d:fd:e0:8c, 2015-01-01 01:54:07.465, 1.017, -0.021, -0.091, -0.427, -0.427, -0.183, -168.365, -84.798, -30.806, -26.660, -10.260, -1.587, 30.07, -0.10593, -0.72583, 0.12946, -0.66714,
 15:31:48.330,ed:35:33:d3:6c:f8, 2015-01-01 01:54:06.195, 0.586, -0.133, 0.794, -0.244, 0.061, 0.671, -9.536, -35.777, 169.294, -17.687, -6.760, -28.207, 32.63, -0.11523, -0.29709, 0.10748, -0.94168,
 15:31:48.330,ed:35:33:d3:6c:f8, 2015-01-01 01:54:06.195, 0.576, -0.129, 0.791, 0.549, -0.061, 1.587, -9.547, -35.777, 169.332, -17.687, -6.760, -28.207, 32.63, -0.11523, -0.29709, 0.10748, -0.94168,
 15:31:48.352,ed:40:fe:65:30:6c, 2015-01-01 01:54:18.160, 0.785, -0.086, 0.615, 2.197, -0.549, 0.793, -8.394, -51.735, -112.121, -25.160, -6.647, 0.413, 27.94, -0.47354, 0.39743, 0.18701, 0.76334,
 15:31:48.352,ed:40:fe:65:30:6c, 2015-01-01 01:54:18.160, 0.783, -0.08, 0.612, 2.014, -0.305, 1.099, -8.383, -51.746, -112.083, -25.160, -6.647, 0.413, 27.94, -0.47354, 0.39743, 0.18701, 0.76334,
 15:31:48.356,e3:ca:2d:fd:e0:8c, 2015-01-01 01:54:07.465, 1.019, -0.021, -0.088, 0, -0.305, -0.122, -168.404, -84.787, -30.745, -26.660, -10.260, -1.587, 30.07, -0.10593, -0.72583, 0.12946, -0.66714,
 15:31:48.356,e3:ca:2d:fd:e0:8c, 2015-01-01 01:54:07.465, 1.015, -0.02, -0.086, 0.305, -0.122, 0, -168.404, -84.787, -30.712, -26.660, -10.260, -1.587, 30.07, -0.10593, -0.72583, 0.12946, -0.66714,
 15:31:48.358,ed:35:33:d3:6c:f8, 2015-01-01 01:54:06.555, 0.579, -0.125, 0.793, 1.282, 0, 2.075, -9.553, -35.771, 169.398, -17.687, -6.760, -28.207, 32.63, -0.11523, -0.29709, 0.10748, -0.94168,
 15:31:48.358,ed:35:33:d3:6c:f8, 2015-01-01 01:54:06.555, 0.577, -0.124, 0.793, 0.488, -0.122, 2.014, -9.564, -35.766, 169.448, -17.687, -6.760, -28.207, 32.63, -0.11523, -0.29709, 0.10748, -0.94168,
 15:31:48.362,f6:90:cc:01:6d:25, 2015-01-01 01:54:05.095, 0.958, 0.001, 0.224, 0.305, 0.122, 0.183, 0.989, -77.069, -155.413, -30.553, -11.427, -1.287, 32.55, 0.17477, -0.60562, -0.14163, -0.76321,
 15:31:48.362,f6:90:cc:01:6d:25, 2015-01-01 01:54:05.095, 0.955, 0.003, 0.223, 0.549, 0.305, 0.305, 0.967, -77.069, -155.402, -30.553, -11.427, -1.287, 32.55, 0.17477, -0.60562, -0.14163, -0.76321,
 15:31:48.386,e3:ca:2d:fd:e0:8c, 2015-01-01 01:54:07.465, 1.012, -0.017, -0.085, 0.61, 0.122, 0, -168.382, -84.787, -30.723, -26.733, -10.407, -1.313, 30.07, -0.10593, -0.72583, 0.12946, -0.66714,
 15:31:48.386,e3:ca:2d:fd:e0:8c, 2015-01-01 01:54:07.465, 1.011, -0.014, -0.089, 0.732, 0.122, 0, -168.36, -84.792, -30.745, -26.733, -10.407, -1.313, 30.07, -0.10593, -0.72583, 0.12946, -0.66714,
 15:31:48.414,ed:40:fe:65:30:6c, 2015-01-01 01:54:18.160, 0.785, -0.08, 0.615, 1.465, -0.244, 0.916, -8.372, -51.746, -112.05, -25.160, -6.647, 0.413, 27.94, -0.47473, 0.39771, 0.18851, 0.76208,
 15:31:48.414,ed:40:fe:65:30:6c, 2015-01-01 01:54:18.160, 0.788, -0.087, 0.619, 0.732, -0.488, 0.366, -8.366, -51.751, -112.028, -25.160, -6.647, 0.413, 27.94, -0.47473, 0.39771, 0.18851, 0.76208,
 15:31:48.416,e3:ca:2d:fd:e0:8c, 2015-01-01 01:54:07.465, 1.015, -0.01, -0.089, 0.549, -0.244, 0.061, -168.349, -84.792, -30.773, -26.733, -10.407, -1.313, 30.07, -0.10593, -0.72583, 0.12946, -0.66714,
 15:31:48.416,e3:ca:2d:fd:e0:8c, 2015-01-01 01:54:07.465, 1.015, -0.008, -0.093, 0, -0.61, 0.183, -168.349, -84.781, -30.767, -26.733, -10.407, -1.313, 30.07, -0.10593, -0.72583, 0.12946, -0.66714,
 15:31:48.418,ed:35:33:d3:6c:f8, 2015-01-01 01:54:06.555, 0.577, -0.13, 0.795, -0.305, 0, 1.16, -9.58, -35.766, 169.475, -17.687, -6.760, -28.207, 32.63, -0.11523, -0.29709, 0.10748, -0.94168,
 15:31:48.418,ed:35:33:d3:6c:f8, 2015-01-01 01:54:06.555, 0.577, -0.137, 0.801, -0.793, 0.122, 0.427, -9.602, -35.76, 169.47, -17.687, -6.760, -28.207, 32.63, -0.11523, -0.29709, 0.10748, -0.94168,
 15:31:48.441,ed:40:fe:65:30:6c, 2015-01-01 01:54:18.520, 0.787, -0.089, 0.619, 0.427, -0.854, 0.061, -8.361, -51.768, -112.022, -25.160, -6.647, 0.413, 27.94, -0.47473, 0.39771, 0.18851, 0.76208,
 15:31:48.441,ed:40:fe:65:30:6c, 2015-01-01 01:54:18.520, 0.788, -0.084, 0.618, 0, -1.038, 0.061, -8.361, -51.784, -112.006, -25.160, -6.647, 0.413, 27.94, -0.47473, 0.39771, 0.18851, 0.76208,
 15:31:48.446,e3:ca:2d:fd:e0:8c, 2015-01-01 01:54:07.465, 1.014, -0.011, -0.093, -0.366, -0.854, 0.244, -168.371, -84.765, -30.762, -26.733, -10.407, -1.313, 30.07, -0.10568, -0.72656, 0.12897, -0.66647,
 15:31:48.446,e3:ca:2d:fd:e0:8c, 2015-01-01 01:54:07.465, 1.013, -0.015, -0.096, -0.732, -0.854, 0.366, -168.376, -84.749, -30.767, -26.733, -10.407, -1.313, 30.07, -0.10568, -0.72656, 0.12897, -0.66647,
 15:31:48.473,ed:40:fe:65:30:6c, 2015-01-01 01:54:18.520, 0.789, -0.08, 0.618, -0.549, -1.404, 0.061, -8.372, -51.812, -111.978, -25.160, -6.647, 0.413, 27.94, -0.47473, 0.39771, 0.18851, 0.76208,
 15:31:48.473,ed:40:fe:65:30:6c, 2015-01-01 01:54:18.520, 0.794, -0.083, 0.613, -1.404, -1.587, 0.061, -8.399, -51.839, -111.973, -25.160, -6.647, 0.413, 27.94, -0.47473, 0.39771, 0.18851, 0.76208,
 15:31:48.481,f6:90:cc:01:6d:25, 2015-01-01 01:54:05.095, 0.957, 0.01, 0.226, 0.916, 0, 0.427, 0.945, -77.064, -155.369, -30.553, -11.427, -1.287, 32.55, 0.17477, -0.60562, -0.14163, -0.76321,
 15:31:48.481,f6:90:cc:01:6d:25, 2015-01-01 01:54:05.095, 0.961, 0.013, 0.223, 0.61, -0.488, 0.366, 0.923, -77.064, -155.33, -30.553, -11.427, -1.287, 32.55, 0.17477, -0.60562, -0.14163, -0.76321,
 15:31:48.483,f6:90:cc:01:6d:25, 2015-01-01 01:54:05.095, 0.961, 0.011, 0.22, 0.122, -0.549, 0.244, 0.906, -77.075, -155.292, -30.553, -11.427, -1.287, 32.55, 0.17477, -0.60562, -0.14163, -0.76321,
 15:31:48.483,f6:90:cc:01:6d:25, 2015-01-01 01:54:05.095, 0.959, 0.009, 0.219, -0.427, -0.549, 0.122, 0.895, -77.08, -155.253, -30.553, -11.427, -1.287, 32.55, 0.17477, -0.60562, -0.14163, -0.76321,
 15:31:48.483,f6:90:cc:01:6d:25, 2015-01-01 01:54:05.095, 0.959, 0.005, 0.217, -0.977, -0.977, 0.122, 0.884, -77.097, -155.22, -30.553, -11.427, -1.287, 32.55, 0.17477, -0.60562, -0.14163, -0.76321,
 15:31:48.483,f6:90:cc:01:6d:25, 2015-01-01 01:54:05.095, 0.961, 0.006, 0.217, -1.16, -1.648, 0.427, 0.851, -77.124, -155.165, -30.553, -11.427, -1.287, 32.55, 0.17477, -0.60562, -0.14163, -0.76321,
 15:31:48.505,e3:ca:2d:fd:e0:8c, 2015-01-01 01:54:07.465, 1.015, -0.018, -0.099, -0.977, -0.671, 0.427, -168.371, -84.732, -30.795, -26.733, -10.407, -1.313, 30.07, -0.10568, -0.72656, 0.12897, -0.66647,
 15:31:48.505,e3:ca:2d:fd:e0:8c, 2015-01-01 01:54:07.465, 1.02, -0.018, -0.096, -0.549, -0.916, 0.427, -168.354, -84.716, -30.839, -26.733, -10.407, -1.313, 30.07, -0.10568, -0.72656, 0.12897, -0.66647,
 15:31:48.509,ed:35:33:d3:6c:f8, 2015-01-01 01:54:06.555, 0.578, -0.132, 0.801, -0.427, -0.244, 0.366, -9.613, -35.76, 169.453, -17.687, -6.760, -28.207, 32.63, -0.11523, -0.29709, 0.10748, -0.94168,
 15:31:48.509,ed:35:33:d3:6c:f8, 2015-01-01 01:54:06.555, 0.578, -0.127, 0.8, -0.244, -0.549, 0.427, -9.624, -35.766, 169.47, -17.687, -6.760, -28.207, 32.63, -0.11523, -0.29709, 0.10748, -0.94168,
 15:31:48.509,ed:35:33:d3:6c:f8, 2015-01-01 01:54:06.555, 0.581, -0.127, 0.802, -1.465, -0.732, -0.122, -9.641, -35.777, 169.47, -17.687, -6.760, -28.207, 32.63, -0.11523, -0.29709, 0.10748, -0.94168,
 15:31:48.509,ed:35:33:d3:6c:f8, 2015-01-01 01:54:06.555, 0.587, -0.132, 0.795, -1.892, -1.099, -0.671, -9.668, -35.793, 169.47, -17.687, -6.760, -28.207, 32.63, -0.11523, -0.29709, 0.10748, -0.94168,
 15:31:48.533,ed:40:fe:65:30:6c, 2015-01-01 01:54:18.520, 0.802, -0.092, 0.608, -1.343, -1.648, -0.122, -8.421, -51.872, -111.978, -25.160, -6.647, 0.413, 27.94, -0.47473, 0.39771, 0.18851, 0.76208,
 15:31:48.533,ed:40:fe:65:30:6c, 2015-01-01 01:54:18.520, 0.8, -0.105, 0.606, -0.61, -1.343, -0.305, -8.438, -51.899, -111.989, -25.160, -6.647, 0.413, 27.94, -0.47473, 0.39771, 0.18851, 0.76208,
 15:31:48.537,e3:ca:2d:fd:e0:8c, 2015-01-01 01:54:07.850, 1.027, -0.019, -0.092, -0.183, -1.221, 0.427, -168.344, -84.688, -30.872, -26.733, -10.407, -1.313, 30.07, -0.10568, -0.72656, 0.12897, -0.66647,
 15:31:48.537,e3:ca:2d:fd:e0:8c, 2015-01-01 01:54:07.850, 1.023, -0.022, -0.089, -0.305, -1.038, 0.427, -168.322, -84.666, -30.916, -26.733, -10.407, -1.313, 30.07, -0.10568, -0.72656, 0.12897, -0.66647,
 15:31:48.539,ed:35:33:d3:6c:f8, 2015-01-01 01:54:06.555, 0.594, -0.139, 0.788, -1.77, -0.854, -0.977, -9.69, -35.815, 169.47, -17.687, -6.760, -28.207, 32.63, -0.11523, -0.29709, 0.10748, -0.94168,
 15:31:48.539,ed:35:33:d3:6c:f8, 2015-01-01 01:54:06.555, 0.59, -0.145, 0.785, -0.671, -0.244, -0.427, -9.701, -35.826, 169.453, -17.687, -6.760, -28.207, 32.63, -0.11523, -0.29709, 0.10748, -0.94168,
 15:31:48.541,f6:90:cc:01:6d:25, 2015-01-01 01:54:05.095, 0.968, 0.004, 0.219, -1.16, -2.197, 0.671, 0.791, -77.162, -155.083, -30.553, -11.427, -1.287, 32.55, 0.17477, -0.60562, -0.14163, -0.76321,
 15:31:48.541,f6:90:cc:01:6d:25, 2015-01-01 01:54:05.095, 0.973, -0.001, 0.22, -1.099, -2.197, 0.793, 0.714, -77.201, -154.979, -30.553, -11.427, -1.287, 32.55, 0.17477, -0.60562, -0.14163, -0.76321,
 15:31:48.542,f6:90:cc:01:6d:25, 2015-01-01 01:54:05.095, 0.969, -0.008, 0.216, -1.16, -1.221, 0.671, 0.632, -77.234, -154.88, -30.553, -11.427, -1.287, 32.55, 0.17477, -0.60562, -0.14163, -0.76321,
 15:31:48.542,f6:90:cc:01:6d:25, 2015-01-01 01:54:05.095, 0.962, -0.01, 0.214, -0.732, -0.61, 0.549, 0.56, -77.256, -154.781, -30.553, -11.427, -1.287, 32.55, 0.17477, -0.60562, -0.14163, -0.76321,
 15:31:48.561,ed:40:fe:65:30:6c, 2015-01-01 01:54:18.520, 0.797, -0.102, 0.609, -0.122, -0.671, 0.122, -8.443, -51.916, -111.989, -25.160, -6.647, 0.413, 27.94, -0.47473, 0.39771, 0.18851, 0.76208,
 15:31:48.561,ed:40:fe:65:30:6c, 2015-01-01 01:54:18.520, 0.79, -0.094, 0.606, 0.549, -0.122, 0.61, -8.448, -51.921, -111.967, -25.160, -6.647, 0.413, 27.94, -0.47473, 0.39771, 0.18851, 0.76208,
 15:31:48.566,e3:ca:2d:fd:e0:8c, 2015-01-01 01:54:07.850, 1.017, -0.026, -0.091, -0.549, -0.488, 0.549, -168.256, -84.655, -30.998, -26.733, -10.407, -1.313, 30.07, -0.10568, -0.72656, 0.12897, -0.66647,
 15:31:48.566,e3:ca:2d:fd:e0:8c, 2015-01-01 01:54:07.850, 1.013, -0.025, -0.093, -0.549, 0, 0.732, -168.124, -84.65, -31.124, -26.733, -10.407, -1.313, 30.07, -0.10568, -0.72656, 0.12897, -0.66647,
 15:31:48.568,ed:35:33:d3:6c:f8, 2015-01-01 01:54:06.555, 0.588, -0.135, 0.787, 0.061, 0.366, 0.244, -9.706, -35.826, 169.459, -17.793, -6.920, -29.773, 32.63, -0.11523, -0.29709, 0.10748, -0.94168,
 15:31:48.568,ed:35:33:d3:6c:f8, 2015-01-01 01:54:06.555, 0.581, -0.138, 0.79, 0, 0.916, 0.977, -9.712, -35.81, 169.475, -17.793, -6.920, -29.773, 32.63, -0.11523, -0.29709, 0.10748, -0.94168,
 15:31:48.599,ed:35:33:d3:6c:f8, 2015-01-01 01:54:06.555, 0.579, -0.144, 0.794, -0.244, 0.61, 0.427, -9.723, -35.799, 169.475, -17.793, -6.920, -29.773, 32.63, -0.11523, -0.29709, 0.10748, -0.94168,
 15:31:48.599,ed:35:33:d3:6c:f8, 2015-01-01 01:54:06.555, 0.578, -0.144, 0.794, -0.244, 0.061, 0, -9.734, -35.799, 169.47, -17.793, -6.920, -29.773, 32.63, -0.11523, -0.29709, 0.10748, -0.94168,
 15:31:48.603,f6:90:cc:01:6d:25, 2015-01-01 01:54:05.095, 0.959, -0.002, 0.215, -0.244, -0.488, 0.854, 0.483, -77.267, -154.677, -30.247, -10.840, -0.933, 32.55, 0.17477, -0.60562, -0.14163, -0.76321,
 15:31:48.603,f6:90:cc:01:6d:25, 2015-01-01 01:54:05.095, 0.96, 0.002, 0.213, -0.305, -0.732, 0.854, 0.396, -77.278, -154.572, -30.247, -10.840, -0.933, 32.55, 0.17477, -0.60562, -0.14163, -0.76321,
 15:31:48.623,ed:40:fe:65:30:6c, 2015-01-01 01:54:18.520, 0.789, -0.092, 0.61, 0.244, -0.244, 0.366, -8.459, -51.927, -111.956, -25.160, -6.647, 0.413, 27.94, -0.47473, 0.39771, 0.18851, 0.76208,
 15:31:48.623,ed:40:fe:65:30:6c, 2015-01-01 01:54:18.520, 0.789, -0.098, 0.609, 0.122, -0.488, -0.061, -8.459, -51.932, -111.962, -25.160, -6.647, 0.413, 27.94, -0.47473, 0.39771, 0.18851, 0.76208,
 15:31:48.627,e3:ca:2d:fd:e0:8c, 2015-01-01 01:54:07.850, 1.014, -0.017, -0.096, -0.305, -0.244, 0.732, -167.986, -84.644, -31.245, -26.733, -10.407, -1.313, 30.07, -0.10568, -0.72656, 0.12897, -0.66647,
 15:31:48.627,e3:ca:2d:fd:e0:8c, 2015-01-01 01:54:07.850, 1.017, -0.015, -0.094, -0.061, -0.366, 0.366, -167.91, -84.633, -31.295, -26.733, -10.407, -1.313, 30.07, -0.10568, -0.72656, 0.12897, -0.66647,
 15:31:48.632,f6:90:cc:01:6d:25, 2015-01-01 01:54:05.095, 0.962, 0, 0.215, -0.549, -0.977, 0.61, 0.319, -77.294, -154.479, -30.247, -10.840, -0.933, 32.55, 0.17416, -0.60861, -0.14005, -0.76129,
 15:31:48.632,f6:90:cc:01:6d:25, 2015-01-01 01:54:05.095, 0.962, -0.006, 0.212, -0.549, -1.038, 0.122, 0.275, -77.316, -154.429, -30.247, -10.840, -0.933, 32.55, 0.17416, -0.60861, -0.14005, -0.76129,
 15:31:48.682,ed:40:fe:65:30:6c, 2015-01-01 01:54:18.520, 0.788, -0.1, 0.612, 0.244, -0.671, -0.122, -8.459, -51.949, -111.973, -25.560, -7.113, -0.407, 27.94, -0.47473, 0.39771, 0.18851, 0.76208,
 15:31:48.682,ed:40:fe:65:30:6c, 2015-01-01 01:54:18.520, 0.788, -0.092, 0.615, 0.061, -0.732, 0.366, -8.47, -51.96, -111.973, -25.560, -7.113, -0.407, 27.94, -0.47473, 0.39771, 0.18851, 0.76208,
 15:31:48.682,ed:40:fe:65:30:6c, 2015-01-01 01:54:18.520, 0.792, -0.085, 0.616, -0.61, -0.854, 0.854, -8.503, -51.976, -111.951, -25.560, -7.113, -0.407, 27.94, -0.47473, 0.39771, 0.18851, 0.76208,
 15:31:48.682,ed:40:fe:65:30:6c, 2015-01-01 01:54:18.520, 0.792, -0.093, 0.615, -1.099, -1.282, 0.793, -8.547, -51.998, -111.907, -25.560, -7.113, -0.407, 27.94, -0.47473, 0.39771, 0.18851, 0.76208,
 15:31:48.686,e3:ca:2d:fd:e0:8c, 2015-01-01 01:54:07.850, 1.015, -0.019, -0.095, -0.061, -0.061, 0, -167.904, -84.633, -31.273, -26.733, -10.407, -1.313, 30.07, -0.10568, -0.72656, 0.12897, -0.66647,
 15:31:48.686,e3:ca:2d:fd:e0:8c, 2015-01-01 01:54:07.850, 1.015, -0.023, -0.096, -0.061, 0.244, 0, -167.904, -84.633, -31.251, -26.733, -10.407, -1.313, 30.07, -0.10568, -0.72656, 0.12897, -0.66647,
 15:31:48.688,ed:35:33:d3:6c:f8, 2015-01-01 01:54:06.555, 0.576, -0.138, 0.796, -0.366, -0.366, 0.244, -9.745, -35.804, 169.47, -17.793, -6.920, -29.773, 32.63, -0.11295, -0.29752, 0.10849, -0.94174,
 15:31:48.688,ed:35:33:d3:6c:f8, 2015-01-01 01:54:06.555, 0.578, -0.131, 0.799, -1.16, -0.488, 0.366, -9.767, -35.81, 169.481, -17.793, -6.920, -29.773, 32.63, -0.11295, -0.29752, 0.10849, -0.94174,
 15:31:48.690,ed:35:33:d3:6c:f8, 2015-01-01 01:54:06.555, 0.581, -0.131, 0.801, -2.136, -0.732, 0.244, -9.811, -35.821, 169.492, -17.793, -6.920, -29.773, 32.63, -0.11295, -0.29752, 0.10849, -0.94174,
 15:31:48.690,ed:35:33:d3:6c:f8, 2015-01-01 01:54:06.555, 0.581, -0.142, 0.8, -2.747, -1.16, 0.122, -9.866, -35.843, 169.492, -17.793, -6.920, -29.773, 32.63, -0.11295, -0.29752, 0.10849, -0.94174,
 15:31:48.692,f6:90:cc:01:6d:25, 2015-01-01 01:54:05.095, 0.962, -0.007, 0.215, 0, -1.16, 0.122, 0.253, -77.338, -154.413, -30.247, -10.840, -0.933, 32.55, 0.17416, -0.60861, -0.14005, -0.76129,
 15:31:48.692,f6:90:cc:01:6d:25, 2015-01-01 01:54:05.095, 0.962, 0, 0.217, 0.183, -1.404, 0.488, 0.214, -77.36, -154.385, -30.247, -10.840, -0.933, 32.55, 0.17416, -0.60861, -0.14005, -0.76129,
 15:31:48.716,e3:ca:2d:fd:e0:8c, 2015-01-01 01:54:07.850, 1.015, -0.021, -0.098, -0.427, 0, 0.305, -167.866, -84.633, -31.278, -26.733, -10.407, -1.313, 30.07, -0.10568, -0.72656, 0.12897, -0.66647,
 15:31:48.716,e3:ca:2d:fd:e0:8c, 2015-01-01 01:54:07.850, 1.016, -0.019, -0.097, -0.122, -0.671, 0.427, -167.811, -84.622, -31.317, -26.733, -10.407, -1.313, 30.07, -0.10568, -0.72656, 0.12897, -0.66647,
 15:31:48.720,ed:35:33:d3:6c:f8, 2015-01-01 01:54:06.880, 0.582, -0.14, 0.797, -2.686, -1.831, -0.061, -9.921, -35.87, 169.492, -17.793, -6.920, -29.773, 32.63, -0.11295, -0.29752, 0.10849, -0.94174,
 15:31:48.720,ed:35:33:d3:6c:f8, 2015-01-01 01:54:06.880, 0.585, -0.144, 0.792, -1.709, -2.014, 0.183, -9.97, -35.909, 169.497, -17.793, -6.920, -29.773, 32.63, -0.11295, -0.29752, 0.10849, -0.94174,
 15:31:48.722,f6:90:cc:01:6d:25, 2015-01-01 01:54:05.540, 0.963, 0, 0.218, 0, -1.526, 0.732, 0.154, -77.393, -154.336, -30.247, -10.840, -0.933, 32.55, 0.17416, -0.60861, -0.14005, -0.76129,
 15:31:48.722,f6:90:cc:01:6d:25, 2015-01-01 01:54:05.540, 0.964, -0.005, 0.214, -0.366, -1.404, 0.549, 0.088, -77.421, -154.276, -30.247, -10.840, -0.933, 32.55, 0.17416, -0.60861, -0.14005, -0.76129,
 15:31:48.742,ed:40:fe:65:30:6c, 2015-01-01 01:54:18.520, 0.792, -0.096, 0.614, -1.038, -1.526, 0.488, -8.591, -52.02, -111.879, -25.560, -7.113, -0.407, 27.94, -0.47473, 0.39771, 0.18851, 0.76208,
 15:31:48.742,ed:40:fe:65:30:6c, 2015-01-01 01:54:18.520, 0.793, -0.101, 0.611, -0.854, -1.526, 0.671, -8.63, -52.048, -111.846, -25.560, -7.113, -0.407, 27.94, -0.47473, 0.39771, 0.18851, 0.76208,
 15:31:48.747,e3:ca:2d:fd:e0:8c, 2015-01-01 01:54:07.850, 1.017, -0.021, -0.093, 0.122, -0.977, 0.244, -167.794, -84.6, -31.311, -26.733, -10.407, -1.313, 30.07, -0.10568, -0.72656, 0.12897, -0.66647,
 15:31:48.747,e3:ca:2d:fd:e0:8c, 2015-01-01 01:54:07.850, 1.016, -0.024, -0.093, -0.061, -0.671, 0.183, -167.789, -84.584, -31.295, -26.733, -10.407, -1.313, 30.07, -0.10568, -0.72656, 0.12897, -0.66647,
 15:31:48.753,f6:90:cc:01:6d:25, 2015-01-01 01:54:05.540, 0.962, -0.006, 0.213, -0.366, -1.282, 0.488, 0.027, -77.448, -154.237, -30.247, -10.840, -0.933, 32.55, 0.17416, -0.60861, -0.14005, -0.76129,
 15:31:48.753,f6:90:cc:01:6d:25, 2015-01-01 01:54:05.540, 0.966, -0.006, 0.211, -0.244, -1.221, 0.549, -0.027, -77.47, -154.204, -30.247, -10.840, -0.933, 32.55, 0.17416, -0.60861, -0.14005, -0.76129,
 15:31:48.772,ed:40:fe:65:30:6c, 2015-01-01 01:54:18.520, 0.794, -0.099, 0.605, -0.122, -1.526, 0.671, -8.663, -52.075, -111.802, -25.560, -7.113, -0.407, 27.94, -0.47464, 0.40021, 0.18909, 0.76071,
 15:31:48.772,ed:40:fe:65:30:6c, 2015-01-01 01:54:18.520, 0.8, -0.102, 0.601, 0.061, -1.221, 0.549, -8.685, -52.097, -111.769, -25.560, -7.113, -0.407, 27.94, -0.47464, 0.40021, 0.18909, 0.76071,
 15:31:48.776,e3:ca:2d:fd:e0:8c, 2015-01-01 01:54:07.850, 1.017, -0.024, -0.091, -0.122, -0.183, 0.244, -167.75, -84.578, -31.328, -27.060, -10.733, -1.387, 30.07, -0.10568, -0.72656, 0.12897, -0.66647,
 15:31:48.776,e3:ca:2d:fd:e0:8c, 2015-01-01 01:54:07.850, 1.02, -0.021, -0.093, -0.244, -0.061, 0.244, -167.701, -84.573, -31.393, -27.060, -10.733, -1.387, 30.07, -0.10568, -0.72656, 0.12897, -0.66647,
 15:31:48.778,ed:35:33:d3:6c:f8, 2015-01-01 01:54:06.880, 0.588, -0.145, 0.785, -1.709, -1.343, 0.366, -10.009, -35.936, 169.519, -17.793, -6.920, -29.773, 32.63, -0.11295, -0.29752, 0.10849, -0.94174,
 15:31:48.778,ed:35:33:d3:6c:f8, 2015-01-01 01:54:06.880, 0.593, -0.15, 0.783, -0.427, -1.221, 0.244, -10.031, -35.958, 169.547, -17.793, -6.920, -29.773, 32.63, -0.11295, -0.29752, 0.10849, -0.94174,
 15:31:48.782,f6:90:cc:01:6d:25, 2015-01-01 01:54:05.540, 0.968, -0.004, 0.21, -0.183, -0.977, 0.366, -0.088, -77.492, -154.177, -30.247, -10.840, -0.933, 32.55, 0.17416, -0.60861, -0.14005, -0.76129,
 15:31:48.782,f6:90:cc:01:6d:25, 2015-01-01 01:54:05.540, 0.97, -0.004, 0.213, -0.061, -0.488, 0.061, -0.115, -77.503, -154.171, -30.247, -10.840, -0.933, 32.55, 0.17416, -0.60861, -0.14005, -0.76129,
 15:31:48.804,ed:40:fe:65:30:6c, 2015-01-01 01:54:18.520, 0.801, -0.108, 0.599, 0.61, -1.16, 0.244, -8.69, -52.119, -111.742, -25.560, -7.113, -0.407, 27.94, -0.47464, 0.40021, 0.18909, 0.76071,
 15:31:48.804,ed:40:fe:65:30:6c, 2015-01-01 01:54:18.520, 0.804, -0.106, 0.598, 1.221, -0.61, 0.061, -8.685, -52.136, -111.731, -25.560, -7.113, -0.407, 27.94, -0.47464, 0.40021, 0.18909, 0.76071,
 15:31:48.806,e3:ca:2d:fd:e0:8c, 2015-01-01 01:54:07.850, 1.022, -0.017, -0.09, 0, 0, 0, -167.684, -84.573, -31.421, -27.060, -10.733, -1.387, 30.07, -0.10568, -0.72656, 0.12897, -0.66647,
 15:31:48.806,e3:ca:2d:fd:e0:8c, 2015-01-01 01:54:07.850, 1.023, -0.019, -0.089, -0.061, 0.183, -0.122, -167.695, -84.578, -31.404, -27.060, -10.733, -1.387, 30.07, -0.10568, -0.72656, 0.12897, -0.66647,
 15:31:48.808,ed:35:33:d3:6c:f8, 2015-01-01 01:54:06.880, 0.594, -0.154, 0.778, 0.122, -0.916, 0.305, -10.042, -35.975, 169.585, -17.793, -6.920, -29.773, 32.63, -0.11295, -0.29752, 0.10849, -0.94174,
 15:31:48.808,ed:35:33:d3:6c:f8, 2015-01-01 01:54:06.880, 0.596, -0.15, 0.779, 0.793, -0.244, 0.549, -10.042, -35.986, 169.618, -17.793, -6.920, -29.773, 32.63, -0.11295, -0.29752, 0.10849, -0.94174,
 15:31:48.839,ed:35:33:d3:6c:f8, 2015-01-01 01:54:06.880, 0.592, -0.149, 0.781, 1.587, 0.549, 1.16, -10.031, -35.975, 169.645, -17.793, -6.920, -29.773, 32.63, -0.11295, -0.29752, 0.10849, -0.94174,
 15:31:48.839,ed:35:33:d3:6c:f8, 2015-01-01 01:54:06.880, 0.59, -0.144, 0.784, 2.136, 0.366, 1.77, -10.02, -35.969, 169.684, -17.793, -6.920, -29.773, 32.63, -0.11295, -0.29752, 0.10849, -0.94174,
 15:31:48.842,f6:90:cc:01:6d:25, 2015-01-01 01:54:05.540, 0.971, -0.006, 0.213, 0.122, 0.122, -0.244, -0.11, -77.503, -154.21, -30.247, -10.840, -0.933, 32.55, 0.17416, -0.60861, -0.14005, -0.76129,
 15:31:48.842,f6:90:cc:01:6d:25, 2015-01-01 01:54:05.540, 0.968, -0.008, 0.212, 0.488, 0.793, -0.427, -0.082, -77.492, -154.259, -30.247, -10.840, -0.933, 32.55, 0.17416, -0.60861, -0.14005, -0.76129,
 15:31:48.872,f6:90:cc:01:6d:25, 2015-01-01 01:54:05.540, 0.967, -0.01, 0.208, 0.854, 1.404, -0.488, -0.044, -77.47, -154.297, -30.247, -10.840, -0.933, 32.55, 0.17416, -0.60861, -0.14005, -0.76129,
 15:31:48.872,f6:90:cc:01:6d:25, 2015-01-01 01:54:05.540, 0.966, -0.007, 0.202, 1.282, 1.465, -0.427, 0, -77.443, -154.314, -30.247, -10.840, -0.933, 32.55, 0.17416, -0.60861, -0.14005, -0.76129,
 15:31:48.894,ed:40:fe:65:30:6c, 2015-01-01 01:54:18.905, 0.801, -0.107, 0.6, 2.319, -0.183, 0, -8.652, -52.147, -111.725, -25.560, -7.113, -0.407, 27.94, -0.47464, 0.40021, 0.18909, 0.76071,
 15:31:48.894,ed:40:fe:65:30:6c, 2015-01-01 01:54:18.905, 0.799, -0.105, 0.6, 3.479, 0.061, 0.122, -8.602, -52.147, -111.714, -25.560, -7.113, -0.407, 27.94, -0.47464, 0.40021, 0.18909, 0.76071,
 15:31:48.894,ed:40:fe:65:30:6c, 2015-01-01 01:54:18.905, 0.8, -0.097, 0.603, 3.845, 0.427, 0.488, -8.547, -52.141, -111.698, -25.560, -7.113, -0.407, 27.94, -0.47464, 0.40021, 0.18909, 0.76071,
 15:31:48.894,ed:40:fe:65:30:6c, 2015-01-01 01:54:18.905, 0.8, -0.091, 0.603, 3.784, 0.61, 0.732, -8.498, -52.136, -111.671, -25.560, -7.113, -0.407, 27.94, -0.47464, 0.40021, 0.18909, 0.76071,
 15:31:48.897,e3:ca:2d:fd:e0:8c, 2015-01-01 01:54:07.850, 1.02, -0.022, -0.092, -0.305, 0.549, -0.122, -167.701, -84.589, -31.404, -27.060, -10.733, -1.387, 30.07, -0.10474, -0.72751, 0.12961, -0.66547,
 15:31:48.897,e3:ca:2d:fd:e0:8c, 2015-01-01 01:54:07.850, 1.016, -0.026, -0.098, -0.244, 0.854, -0.122, -167.69, -84.606, -31.426, -27.060, -10.733, -1.387, 30.07, -0.10474, -0.72751, 0.12961, -0.66547,
 15:31:48.899,ed:35:33:d3:6c:f8, 2015-01-01 01:54:06.880, 0.592, -0.139, 0.788, 3.052, 0.366, 2.319, -9.998, -35.958, 169.739, -17.793, -6.920, -29.773, 32.63, -0.11295, -0.29752, 0.10849, -0.94174,
 15:31:48.899,ed:35:33:d3:6c:f8, 2015-01-01 01:54:06.880, 0.592, -0.139, 0.789, 2.563, 0.061, 2.38, -9.981, -35.953, 169.794, -17.793, -6.920, -29.773, 32.63, -0.11295, -0.29752, 0.10849, -0.94174,
 15:31:48.903,f6:90:cc:01:6d:25, 2015-01-01 01:54:05.540, 0.969, -0.003, 0.208, 1.77, 1.465, -0.244, 0.033, -77.415, -154.303, -30.247, -10.840, -0.933, 32.55, 0.17416, -0.60861, -0.14005, -0.76129,
 15:31:48.903,f6:90:cc:01:6d:25, 2015-01-01 01:54:05.540, 0.969, -0.006, 0.21, 1.892, 1.77, -0.122, 0.066, -77.388, -154.303, -30.247, -10.840, -0.933, 32.55, 0.17416, -0.60861, -0.14005, -0.76129,
 15:31:48.922,ed:40:fe:65:30:6c, 2015-01-01 01:54:18.905, 0.799, -0.095, 0.604, 3.845, 0.427, 0.732, -8.448, -52.13, -111.643, -25.560, -7.113, -0.407, 27.94, -0.47464, 0.40021, 0.18909, 0.76071,
 15:31:48.922,ed:40:fe:65:30:6c, 2015-01-01 01:54:18.905, 0.8, -0.095, 0.605, 4.517, 0.549, 1.16, -8.394, -52.119, -111.616, -25.560, -7.113, -0.407, 27.94, -0.47464, 0.40021, 0.18909, 0.76071,
 15:31:48.925,e3:ca:2d:fd:e0:8c, 2015-01-01 01:54:08.240, 1.017, -0.025, -0.104, 0.244, 0.977, -0.183, -167.668, -84.622, -31.437, -27.060, -10.733, -1.387, 30.07, -0.10474, -0.72751, 0.12961, -0.66547,
 15:31:48.925,e3:ca:2d:fd:e0:8c, 2015-01-01 01:54:08.240, 1.021, -0.023, -0.1, 1.16, 0.916, -0.244, -167.646, -84.644, -31.432, -27.060, -10.733, -1.387, 30.07, -0.10474, -0.72751, 0.12961, -0.66547,
 15:31:48.927,e3:ca:2d:fd:e0:8c, 2015-01-01 01:54:08.240, 1.021, -0.022, -0.099, 1.282, 0.793, -0.061, -167.585, -84.655, -31.448, -27.060, -10.733, -1.387, 30.07, -0.10474, -0.72751, 0.12961, -0.66547,
 15:31:48.927,e3:ca:2d:fd:e0:8c, 2015-01-01 01:54:08.240, 1.019, -0.023, -0.098, 1.099, 0.916, 0.061, -167.498, -84.672, -31.514, -27.060, -10.733, -1.387, 30.07, -0.10474, -0.72751, 0.12961, -0.66547,
 15:31:48.929,ed:35:33:d3:6c:f8, 2015-01-01 01:54:06.880, 0.588, -0.14, 0.789, 2.93, -0.305, 2.686, -9.97, -35.953, 169.865, -17.793, -6.920, -29.773, 32.63, -0.11295, -0.29752, 0.10849, -0.94174,
 15:31:48.929,ed:35:33:d3:6c:f8, 2015-01-01 01:54:06.880, 0.593, -0.13, 0.791, 3.906, -0.916, 3.723, -9.948, -35.964, 169.937, -17.793, -6.920, -29.773, 32.63, -0.11295, -0.29752, 0.10849, -0.94174,
 15:31:48.958,ed:35:33:d3:6c:f8, 2015-01-01 01:54:06.880, 0.593, -0.131, 0.787, 4.333, -0.671, 4.517, -9.932, -35.964, 170.008, -17.500, -6.673, -29.880, 32.63, -0.11295, -0.29752, 0.10849, -0.94174,
 15:31:48.958,ed:35:33:d3:6c:f8, 2015-01-01 01:54:06.880, 0.589, -0.139, 0.789, 2.747, -0.244, 3.784, -9.926, -35.964, 170.101, -17.500, -6.673, -29.880, 32.63, -0.11295, -0.29752, 0.10849, -0.94174,
 15:31:48.964,f6:90:cc:01:6d:25, 2015-01-01 01:54:05.540, 0.967, -0.009, 0.208, 2.38, 2.38, -0.061, 0.099, -77.349, -154.297, -30.500, -11.213, -1.353, 32.55, 0.17416, -0.60861, -0.14005, -0.76129,
 15:31:48.964,f6:90:cc:01:6d:25, 2015-01-01 01:54:05.540, 0.964, -0.006, 0.208, 2.93, 2.563, 0.183, 0.121, -77.3, -154.281, -30.500, -11.213, -1.353, 32.55, 0.17416, -0.60861, -0.14005, -0.76129,
 15:31:48.983,ed:40:fe:65:30:6c, 2015-01-01 01:54:18.905, 0.799, -0.086, 0.604, 4.7, 0.793, 2.197, -8.361, -52.103, -111.561, -25.560, -7.113, -0.407, 27.94, -0.47464, 0.40021, 0.18909, 0.76071,
 15:31:48.983,ed:40:fe:65:30:6c, 2015-01-01 01:54:18.905, 0.798, -0.082, 0.604, 3.967, 0.793, 2.38, -8.339, -52.086, -111.495, -25.560, -7.113, -0.407, 27.94, -0.47464, 0.40021, 0.18909, 0.76071,
 15:31:48.990,e3:ca:2d:fd:e0:8c, 2015-01-01 01:54:08.240, 1.015, -0.025, -0.101, 0.977, 0.977, 0.122, -167.399, -84.683, -31.597, -27.060, -10.733, -1.387, 30.07, -0.10474, -0.72751, 0.12961, -0.66547,
 15:31:48.991,e3:ca:2d:fd:e0:8c, 2015-01-01 01:54:08.240, 1.016, -0.02, -0.102, 1.465, 0.916, 0.244, -167.267, -84.699, -31.712, -27.060, -10.733, -1.387, 30.07, -0.10474, -0.72751, 0.12961, -0.66547,
 15:31:48.992,f6:90:cc:01:6d:25, 2015-01-01 01:54:05.540, 0.964, 0.003, 0.21, 3.052, 1.953, 0.61, 0.115, -77.267, -154.254, -30.500, -11.213, -1.353, 32.55, 0.17462, -0.60846, -0.13983, -0.76135,
 15:31:48.992,f6:90:cc:01:6d:25, 2015-01-01 01:54:05.540, 0.961, 0.008, 0.209, 2.258, 1.648, 0.671, 0.093, -77.239, -154.232, -30.500, -11.213, -1.353, 32.55, 0.17462, -0.60846, -0.13983, -0.76135,
 15:31:49.012,ed:40:fe:65:30:6c, 2015-01-01 01:54:18.905, 0.793, -0.089, 0.606, 3.418, 0.61, 1.587, -8.317, -52.075, -111.451, -25.560, -7.113, -0.407, 27.94, -0.47464, 0.40021, 0.18909, 0.76071,
 15:31:49.012,ed:40:fe:65:30:6c, 2015-01-01 01:54:18.905, 0.791, -0.097, 0.608, 2.747, 0.488, 0.793, -8.284, -52.07, -111.434, -25.560, -7.113, -0.407, 27.94, -0.47464, 0.40021, 0.18909, 0.76071,
 15:31:49.016,e3:ca:2d:fd:e0:8c, 2015-01-01 01:54:08.240, 1.015, -0.014, -0.101, 1.709, 0.732, 0.366, -167.13, -84.705, -31.833, -27.060, -10.733, -1.387, 30.07, -0.10474, -0.72751, 0.12961, -0.66547,
 15:31:49.016,e3:ca:2d:fd:e0:8c, 2015-01-01 01:54:08.240, 1.016, -0.01, -0.092, 1.343, 0.977, 0.244, -167.025, -84.721, -31.921, -27.060, -10.733, -1.387, 30.07, -0.10474, -0.72751, 0.12961, -0.66547,
 15:31:49.018,ed:35:33:d3:6c:f8, 2015-01-01 01:54:06.880, 0.584, -0.15, 0.792, 2.258, 0.122, 2.747, -9.926, -35.958, 170.167, -17.500, -6.673, -29.880, 32.63, -0.11295, -0.29752, 0.10849, -0.94174,
 15:31:49.018,ed:35:33:d3:6c:f8, 2015-01-01 01:54:06.880, 0.582, -0.148, 0.787, 2.38, 0.366, 2.319, -9.915, -35.953, 170.222, -17.500, -6.673, -29.880, 32.63, -0.11295, -0.29752, 0.10849, -0.94174,
 15:31:49.042,ed:40:fe:65:30:6c, 2015-01-01 01:54:18.905, 0.787, -0.092, 0.607, 2.686, 0.671, 0.427, -8.251, -52.059, -111.434, -25.333, -7.140, 0.520, 27.94, -0.47464, 0.40021, 0.18909, 0.76071,
 15:31:49.042,ed:40:fe:65:30:6c, 2015-01-01 01:54:18.905, 0.786, -0.085, 0.613, 2.319, 0.61, 0.122, -8.207, -52.053, -111.445, -25.333, -7.140, 0.520, 27.94, -0.47464, 0.40021, 0.18909, 0.76071,
 15:31:49.047,e3:ca:2d:fd:e0:8c, 2015-01-01 01:54:08.240, 1.013, -0.01, -0.089, 0.549, 1.038, -0.244, -167.047, -84.738, -31.871, -27.060, -10.733, -1.387, 30.07, -0.10474, -0.72751, 0.12961, -0.66547,
 15:31:49.047,e3:ca:2d:fd:e0:8c, 2015-01-01 01:54:08.240, 1.01, -0.01, -0.087, -0.122, 1.16, -0.427, -167.119, -84.76, -31.783, -27.060, -10.733, -1.387, 30.07, -0.10474, -0.72751, 0.12961, -0.66547,
 15:31:49.048,ed:35:33:d3:6c:f8, 2015-01-01 01:54:06.880, 0.576, -0.142, 0.789, 2.869, 0.977, 2.014, -9.893, -35.931, 170.255, -17.500, -6.673, -29.880, 32.63, -0.10754, -0.29935, 0.10822, -0.9418,
 15:31:49.048,ed:35:33:d3:6c:f8, 2015-01-01 01:54:06.880, 0.575, -0.14, 0.795, 2.563, 1.282, 1.221, -9.86, -35.909, 170.261, -17.500, -6.673, -29.880, 32.63, -0.10754, -0.29935, 0.10822, -0.9418,
 15:31:49.053,f6:90:cc:01:6d:25, 2015-01-01 01:54:05.540, 0.959, 0.006, 0.216, 1.404, 1.343, 0.183, 0.088, -77.212, -154.254, -30.500, -11.213, -1.353, 32.55, 0.17462, -0.60846, -0.13983, -0.76135,
 15:31:49.053,f6:90:cc:01:6d:25, 2015-01-01 01:54:05.540, 0.957, 0.005, 0.219, 0.916, 1.16, -0.366, 0.126, -77.195, -154.336, -30.500, -11.213, -1.353, 32.55, 0.17462, -0.60846, -0.13983, -0.76135,
 15:31:49.104,ed:40:fe:65:30:6c, 2015-01-01 01:54:18.905, 0.783, -0.081, 0.615, 1.526, 0.61, -0.305, -8.168, -52.042, -111.467, -25.333, -7.140, 0.520, 27.94, -0.47464, 0.40021, 0.18909, 0.76071,
 15:31:49.104,ed:40:fe:65:30:6c, 2015-01-01 01:54:18.905, 0.779, -0.081, 0.615, 0.549, 0.488, -0.916, -8.135, -52.037, -111.511, -25.333, -7.140, 0.520, 27.94, -0.47464, 0.40021, 0.18909, 0.76071,
 15:31:49.107,e3:ca:2d:fd:e0:8c, 2015-01-01 01:54:08.240, 1.009, -0.013, -0.086, -0.61, 1.038, -0.366, -167.201, -84.781, -31.718, -27.060, -10.733, -1.387, 30.07, -0.10474, -0.72751, 0.12961, -0.66547,
 15:31:49.107,e3:ca:2d:fd:e0:8c, 2015-01-01 01:54:08.240, 1.012, -0.016, -0.086, -0.732, 0.793, -0.305, -167.278, -84.798, -31.635, -27.060, -10.733, -1.387, 30.07, -0.10474, -0.72751, 0.12961, -0.66547,
 15:31:49.109,ed:35:33:d3:6c:f8, 2015-01-01 01:54:06.880, 0.571, -0.137, 0.795, 1.709, 1.526, 0.183, -9.827, -35.876, 170.244, -17.500, -6.673, -29.880, 32.63, -0.10754, -0.29935, 0.10822, -0.9418,
 15:31:49.109,ed:35:33:d3:6c:f8, 2015-01-01 01:54:06.880, 0.568, -0.136, 0.799, 1.16, 1.526, -0.61, -9.794, -35.848, 170.211, -17.500, -6.673, -29.880, 32.63, -0.10754, -0.29935, 0.10822, -0.9418,
 15:31:49.111,f6:90:cc:01:6d:25, 2015-01-01 01:54:05.900, 0.954, 0.009, 0.223, 0.61, 0.854, -0.732, 0.198, -77.179, -154.429, -30.500, -11.213, -1.353, 32.55, 0.17462, -0.60846, -0.13983, -0.76135,
 15:31:49.111,f6:90:cc:01:6d:25, 2015-01-01 01:54:05.900, 0.953, 0.01, 0.225, -0.061, 0.61, -0.793, 0.275, -77.168, -154.523, -30.500, -11.213, -1.353, 32.55, 0.17462, -0.60846, -0.13983, -0.76135,
 15:31:49.113,f6:90:cc:01:6d:25, 2015-01-01 01:54:05.900, 0.954, 0.005, 0.225, -0.732, 0.244, -0.732, 0.335, -77.162, -154.616, -30.500, -11.213, -1.353, 32.55, 0.17462, -0.60846, -0.13983, -0.76135,
 15:31:49.113,f6:90:cc:01:6d:25, 2015-01-01 01:54:05.900, 0.957, 0.001, 0.229, -1.099, 0, -0.916, 0.401, -77.162, -154.715, -30.500, -11.213, -1.353, 32.55, 0.17462, -0.60846, -0.13983, -0.76135,
 15:31:49.133,ed:40:fe:65:30:6c, 2015-01-01 01:54:18.905, 0.78, -0.086, 0.618, 0.061, 0.061, -1.16, -8.108, -52.037, -111.555, -25.333, -7.140, 0.520, 27.94, -0.47864, 0.39761, 0.19345, 0.75845,
 15:31:49.133,ed:40:fe:65:30:6c, 2015-01-01 01:54:18.905, 0.784, -0.086, 0.621, -0.427, 0.122, -1.099, -8.086, -52.037, -111.588, -25.333, -7.140, 0.520, 27.94, -0.47864, 0.39761, 0.19345, 0.75845,
 15:31:49.136,e3:ca:2d:fd:e0:8c, 2015-01-01 01:54:08.240, 1.015, -0.018, -0.079, -0.977, 0.671, -0.244, -167.349, -84.809, -31.569, -27.060, -10.733, -1.387, 30.07, -0.10474, -0.72751, 0.12961, -0.66547,
 15:31:49.136,e3:ca:2d:fd:e0:8c, 2015-01-01 01:54:08.240, 1.018, -0.021, -0.08, -1.404, 0.488, -0.305, -167.443, -84.825, -31.481, -27.060, -10.733, -1.387, 30.07, -0.10474, -0.72751, 0.12961, -0.66547,
 15:31:49.138,ed:35:33:d3:6c:f8, 2015-01-01 01:54:07.300, 0.568, -0.135, 0.799, 0.427, 1.16, -0.854, -9.772, -35.826, 170.167, -17.500, -6.673, -29.880, 32.63, -0.10754, -0.29935, 0.10822, -0.9418,
 15:31:49.138,ed:35:33:d3:6c:f8, 2015-01-01 01:54:07.300, 0.572, -0.134, 0.802, 0, 0.671, -0.916, -9.756, -35.815, 170.112, -17.500, -6.673, -29.880, 32.63, -0.10754, -0.29935, 0.10822, -0.9418,
 15:31:49.168,ed:35:33:d3:6c:f8, 2015-01-01 01:54:07.300, 0.574, -0.136, 0.804, -0.305, 0.854, -1.099, -9.745, -35.799, 170.057, -17.500, -6.673, -29.880, 32.63, -0.10754, -0.29935, 0.10822, -0.9418,
 15:31:49.168,ed:35:33:d3:6c:f8, 2015-01-01 01:54:07.300, 0.576, -0.137, 0.802, -0.549, 0.854, -1.282, -9.739, -35.782, 170.008, -17.500, -6.673, -29.880, 32.63, -0.10754, -0.29935, 0.10822, -0.9418,
 15:31:49.172,f6:90:cc:01:6d:25, 2015-01-01 01:54:05.900, 0.96, 0, 0.229, -1.404, -0.061, -1.038, 0.467, -77.162, -154.803, -30.500, -11.213, -1.353, 32.55, 0.17462, -0.60846, -0.13983, -0.76135,
 15:31:49.172,f6:90:cc:01:6d:25, 2015-01-01 01:54:05.900, 0.961, 0, 0.23, -1.343, -0.244, -0.977, 0.527, -77.162, -154.891, -30.500, -11.213, -1.353, 32.55, 0.17462, -0.60846, -0.13983, -0.76135,
 15:31:49.193,ed:40:fe:65:30:6c, 2015-01-01 01:54:18.905, 0.787, -0.085, 0.622, -0.732, 0, -1.038, -8.075, -52.037, -111.616, -25.333, -7.140, 0.520, 27.94, -0.47864, 0.39761, 0.19345, 0.75845,
 15:31:49.193,ed:40:fe:65:30:6c, 2015-01-01 01:54:18.905, 0.789, -0.087, 0.621, -0.671, -0.122, -1.099, -8.064, -52.037, -111.649, -25.333, -7.140, 0.520, 27.94, -0.47864, 0.39761, 0.19345, 0.75845,
 15:31:49.197,e3:ca:2d:fd:e0:8c, 2015-01-01 01:54:08.240, 1.019, -0.022, -0.082, -1.221, 0.244, -0.488, -167.574, -84.831, -31.333, -27.067, -10.393, -0.827, 30.07, -0.10474, -0.72751, 0.12961, -0.66547,
 15:31:49.197,e3:ca:2d:fd:e0:8c, 2015-01-01 01:54:08.240, 1.017, -0.024, -0.082, -0.61, 0, -0.488, -167.695, -84.836, -31.19, -27.067, -10.393, -0.827, 30.07, -0.10474, -0.72751, 0.12961, -0.66547,
 15:31:49.203,f6:90:cc:01:6d:25, 2015-01-01 01:54:05.900, 0.961, -0.002, 0.228, -1.16, -0.183, -0.854, 0.582, -77.162, -154.968, -30.500, -11.213, -1.353, 32.55, 0.17462, -0.60846, -0.13983, -0.76135,
 15:31:49.203,f6:90:cc:01:6d:25, 2015-01-01 01:54:05.900, 0.959, -0.005, 0.224, -0.977, 0, -0.61, 0.61, -77.157, -155.001, -30.500, -11.213, -1.353, 32.55, 0.17462, -0.60846, -0.13983, -0.76135,
 15:31:49.222,ed:40:fe:65:30:6c, 2015-01-01 01:54:19.265, 0.789, -0.087, 0.618, -0.793, 0, -0.977, -8.053, -52.037, -111.676, -25.333, -7.140, 0.520, 27.94, -0.47864, 0.39761, 0.19345, 0.75845,
 15:31:49.222,ed:40:fe:65:30:6c, 2015-01-01 01:54:19.265, 0.788, -0.086, 0.615, -0.671, 0, -0.732, -8.047, -52.037, -111.698, -25.333, -7.140, 0.520, 27.94, -0.47864, 0.39761, 0.19345, 0.75845,
 15:31:49.226,e3:ca:2d:fd:e0:8c, 2015-01-01 01:54:08.240, 1.015, -0.027, -0.085, -0.305, 0, -0.244, -167.739, -84.842, -31.135, -27.067, -10.393, -0.827, 30.07, -0.10413, -0.72632, 0.12762, -0.66724,
 15:31:49.226,e3:ca:2d:fd:e0:8c, 2015-01-01 01:54:08.240, 1.013, -0.023, -0.088, -0.305, 0.183, -0.061, -167.734, -84.847, -31.174, -27.067, -10.393, -0.827, 30.07, -0.10413, -0.72632, 0.12762, -0.66724,
 15:31:49.228,ed:35:33:d3:6c:f8, 2015-01-01 01:54:07.300, 0.575, -0.134, 0.799, -0.671, 0.671, -1.221, -9.728, -35.766, 169.975, -17.500, -6.673, -29.880, 32.63, -0.10754, -0.29935, 0.10822, -0.9418,
 15:31:49.228,ed:35:33:d3:6c:f8, 2015-01-01 01:54:07.300, 0.576, -0.133, 0.798, -0.671, 0.549, -0.916, -9.728, -35.755, 169.958, -17.500, -6.673, -29.880, 32.63, -0.10754, -0.29935, 0.10822, -0.9418,
 15:31:49.232,f6:90:cc:01:6d:25, 2015-01-01 01:54:05.900, 0.957, -0.002, 0.219, -0.61, -0.061, -0.366, 0.621, -77.157, -155.012, -30.500, -11.213, -1.353, 32.55, 0.17462, -0.60846, -0.13983, -0.76135,
 15:31:49.232,f6:90:cc:01:6d:25, 2015-01-01 01:54:05.900, 0.958, 0, 0.222, -0.366, -0.305, -0.305, 0.632, -77.162, -155.017, -30.500, -11.213, -1.353, 32.55, 0.17462, -0.60846, -0.13983, -0.76135,
 15:31:49.254,ed:40:fe:65:30:6c, 2015-01-01 01:54:19.265, 0.788, -0.088, 0.613, -0.671, -0.061, -0.671, -8.047, -52.031, -111.72, -25.333, -7.140, 0.520, 27.94, -0.47864, 0.39761, 0.19345, 0.75845,
 15:31:49.254,ed:40:fe:65:30:6c, 2015-01-01 01:54:19.265, 0.792, -0.089, 0.611, -0.427, -0.244, -0.854, -8.031, -52.037, -111.753, -25.333, -7.140, 0.520, 27.94, -0.47864, 0.39761, 0.19345, 0.75845,
 15:31:49.257,e3:ca:2d:fd:e0:8c, 2015-01-01 01:54:08.240, 1.014, -0.019, -0.088, -0.122, 0.061, 0, -167.723, -84.847, -31.218, -27.067, -10.393, -0.827, 30.07, -0.10413, -0.72632, 0.12762, -0.66724,
 15:31:49.257,e3:ca:2d:fd:e0:8c, 2015-01-01 01:54:08.240, 1.017, -0.017, -0.089, -0.183, -0.244, -0.244, -167.778, -84.847, -31.174, -27.067, -10.393, -0.827, 30.07, -0.10413, -0.72632, 0.12762, -0.66724,
 15:31:49.259,ed:35:33:d3:6c:f8, 2015-01-01 01:54:07.300, 0.578, -0.139, 0.795, -0.854, 0.488, -0.854, -9.734, -35.744, 169.964, -17.500, -6.673, -29.880, 32.63, -0.10754, -0.29935, 0.10822, -0.9418,
 15:31:49.259,ed:35:33:d3:6c:f8, 2015-01-01 01:54:07.300, 0.582, -0.141, 0.793, -1.343, 0.427, -1.282, -9.739, -35.733, 169.937, -17.500, -6.673, -29.880, 32.63, -0.10754, -0.29935, 0.10822, -0.9418,
 15:31:49.283,ed:40:fe:65:30:6c, 2015-01-01 01:54:19.265, 0.792, -0.089, 0.609, -0.427, 0, -0.854, -8.02, -52.037, -111.797, -25.333, -7.140, 0.520, 27.94, -0.47864, 0.39761, 0.19345, 0.75845,
 15:31:49.283,ed:40:fe:65:30:6c, 2015-01-01 01:54:19.265, 0.792, -0.086, 0.61, -0.427, 0.061, -0.549, -8.015, -52.037, -111.824, -25.333, -7.140, 0.520, 27.94, -0.47864, 0.39761, 0.19345, 0.75845,
 15:31:49.289,ed:35:33:d3:6c:f8, 2015-01-01 01:54:07.300, 0.578, -0.134, 0.792, -0.793, 0.671, -1.099, -9.739, -35.722, 169.909, -17.500, -6.673, -29.880, 32.63, -0.10754, -0.29935, 0.10822, -0.9418,
 15:31:49.289,ed:35:33:d3:6c:f8, 2015-01-01 01:54:07.300, 0.58, -0.13, 0.794, -0.488, 0.977, -0.61, -9.739, -35.706, 169.898, -17.500, -6.673, -29.880, 32.63, -0.10754, -0.29935, 0.10822, -0.9418,
 15:31:49.293,f6:90:cc:01:6d:25, 2015-01-01 01:54:05.900, 0.962, 0.001, 0.221, -0.427, -0.488, -0.366, 0.648, -77.168, -155.034, -30.500, -11.213, -1.353, 32.55, 0.17462, -0.60846, -0.13983, -0.76135,
 15:31:49.293,f6:90:cc:01:6d:25, 2015-01-01 01:54:05.900, 0.96, -0.001, 0.218, -0.427, -0.305, -0.549, 0.681, -77.168, -155.072, -30.500, -11.213, -1.353, 32.55, 0.17462, -0.60846, -0.13983, -0.76135,
 15:31:49.316,e3:ca:2d:fd:e0:8c, 2015-01-01 01:54:08.625, 1.015, -0.02, -0.089, -0.183, -0.366, -0.305, -167.86, -84.842, -31.124, -27.067, -10.393, -0.827, 30.07, -0.10413, -0.72632, 0.12762, -0.66724,
 15:31:49.316,e3:ca:2d:fd:e0:8c, 2015-01-01 01:54:08.625, 1.014, -0.017, -0.094, -0.488, -0.122, -0.122, -167.893, -84.842, -31.119, -27.067, -10.393, -0.827, 30.07, -0.10413, -0.72632, 0.12762, -0.66724,
 15:31:49.322,f6:90:cc:01:6d:25, 2015-01-01 01:54:05.900, 0.96, 0.002, 0.212, -0.549, -0.244, -0.61, 0.714, -77.173, -155.116, -30.353, -11.187, -1.560, 32.55, 0.17462, -0.60846, -0.13983, -0.76135,
 15:31:49.322,f6:90:cc:01:6d:25, 2015-01-01 01:54:05.900, 0.963, 0.009, 0.213, -0.732, -0.549, -0.488, 0.742, -77.184, -155.149, -30.353, -11.187, -1.560, 32.55, 0.17462, -0.60846, -0.13983, -0.76135,
 15:31:49.344,ed:40:fe:65:30:6c, 2015-01-01 01:54:19.265, 0.796, -0.078, 0.61, -0.732, -0.061, -0.366, -8.02, -52.037, -111.835, -25.333, -7.140, 0.520, 27.94, -0.47864, 0.39761, 0.19345, 0.75845,
 15:31:49.344,ed:40:fe:65:30:6c, 2015-01-01 01:54:19.265, 0.797, -0.076, 0.612, -1.221, -0.244, -0.549, -8.031, -52.042, -111.852, -25.333, -7.140, 0.520, 27.94, -0.47864, 0.39761, 0.19345, 0.75845,
 15:31:49.346,e3:ca:2d:fd:e0:8c, 2015-01-01 01:54:08.625, 1.018, -0.013, -0.095, -0.732, 0, 0, -167.915, -84.842, -31.124, -27.067, -10.393, -0.827, 30.07, -0.10413, -0.72632, 0.12762, -0.66724,
 15:31:49.346,e3:ca:2d:fd:e0:8c, 2015-01-01 01:54:08.625, 1.02, -0.014, -0.095, -0.793, -0.366, 0, -167.959, -84.836, -31.108, -27.067, -10.393, -0.827, 30.07, -0.10413, -0.72632, 0.12762, -0.66724,
 15:31:49.348,ed:35:33:d3:6c:f8, 2015-01-01 01:54:07.300, 0.584, -0.129, 0.798, -1.526, 0.977, -0.671, -9.75, -35.689, 169.909, -17.500, -6.673, -29.880, 32.63, -0.10754, -0.29935, 0.10822, -0.9418,
 15:31:49.348,ed:35:33:d3:6c:f8, 2015-01-01 01:54:07.300, 0.583, -0.132, 0.802, -2.258, 0.549, -1.282, -9.772, -35.678, 169.887, -17.500, -6.673, -29.880, 32.63, -0.10754, -0.29935, 0.10822, -0.9418,
 15:31:49.352,f6:90:cc:01:6d:25, 2015-01-01 01:54:05.900, 0.965, 0.009, 0.214, -1.038, -0.916, -0.183, 0.736, -77.201, -155.154, -30.353, -11.187, -1.560, 32.55, 0.17462, -0.60846, -0.13983, -0.76135,
 15:31:49.352,f6:90:cc:01:6d:25, 2015-01-01 01:54:05.900, 0.966, 0.004, 0.216, -1.038, -0.916, 0, 0.72, -77.217, -155.149, -30.353, -11.187, -1.560, 32.55, 0.17462, -0.60846, -0.13983, -0.76135,
 15:31:49.372,ed:40:fe:65:30:6c, 2015-01-01 01:54:19.265, 0.795, -0.081, 0.611, -1.099, -0.549, -0.793, -8.031, -52.053, -111.868, -25.333, -7.140, 0.520, 27.94, -0.47864, 0.39761, 0.19345, 0.75845,
 15:31:49.372,ed:40:fe:65:30:6c, 2015-01-01 01:54:19.265, 0.796, -0.086, 0.608, -1.038, -0.61, -0.549, -8.036, -52.07, -111.89, -25.333, -7.140, 0.520, 27.94, -0.47864, 0.39761, 0.19345, 0.75845,
 15:31:49.376,e3:ca:2d:fd:e0:8c, 2015-01-01 01:54:08.625, 1.019, -0.017, -0.09, -0.671, -0.305, 0, -167.997, -84.825, -31.08, -27.067, -10.393, -0.827, 30.07, -0.10413, -0.72632, 0.12762, -0.66724,
 15:31:49.376,e3:ca:2d:fd:e0:8c, 2015-01-01 01:54:08.625, 1.019, -0.021, -0.091, -0.549, -0.244, 0.061, -168.019, -84.82, -31.058, -27.067, -10.393, -0.827, 30.07, -0.10413, -0.72632, 0.12762, -0.66724,
 15:31:49.378,ed:35:33:d3:6c:f8, 2015-01-01 01:54:07.300, 0.582, -0.13, 0.798, -2.136, -0.122, -1.282, -9.794, -35.684, 169.86, -17.713, -6.773, -29.820, 32.63, -0.10754, -0.29935, 0.10822, -0.9418,
 15:31:49.378,ed:35:33:d3:6c:f8, 2015-01-01 01:54:07.300, 0.583, -0.134, 0.794, -0.854, -0.488, -0.61, -9.805, -35.689, 169.843, -17.713, -6.773, -29.820, 32.63, -0.10754, -0.29935, 0.10822, -0.9418,
 15:31:49.404,ed:40:fe:65:30:6c, 2015-01-01 01:54:19.265, 0.797, -0.089, 0.609, -0.916, -0.549, -0.183, -8.053, -52.081, -111.901, -25.333, -7.140, 0.520, 27.94, -0.47864, 0.39761, 0.19345, 0.75845,
 15:31:49.404,ed:40:fe:65:30:6c, 2015-01-01 01:54:19.265, 0.796, -0.087, 0.608, -0.854, -0.488, -0.061, -8.069, -52.092, -111.907, -25.333, -7.140, 0.520, 27.94, -0.47864, 0.39761, 0.19345, 0.75845,
 15:31:49.409,ed:35:33:d3:6c:f8, 2015-01-01 01:54:07.300, 0.585, -0.136, 0.794, -1.038, -0.427, -0.305, -9.816, -35.7, 169.838, -17.713, -6.773, -29.820, 32.63, -0.10754, -0.29935, 0.10822, -0.9418,
 15:31:49.409,ed:35:33:d3:6c:f8, 2015-01-01 01:54:07.300, 0.583, -0.14, 0.792, -0.916, -0.183, -0.366, -9.827, -35.706, 169.821, -17.713, -6.773, -29.820, 32.63, -0.10754, -0.29935, 0.10822, -0.9418,
 15:31:49.413,f6:90:cc:01:6d:25, 2015-01-01 01:54:05.900, 0.965, 0, 0.218, -0.793, -0.61, 0, 0.709, -77.234, -155.149, -30.353, -11.187, -1.560, 32.55, 0.17191, -0.60834, -0.13904, -0.76218,
 15:31:49.413,f6:90:cc:01:6d:25, 2015-01-01 01:54:05.900, 0.964, 0, 0.212, -0.671, -0.488, 0, 0.692, -77.245, -155.138, -30.353, -11.187, -1.560, 32.55, 0.17191, -0.60834, -0.13904, -0.76218,
 15:31:49.436,e3:ca:2d:fd:e0:8c, 2015-01-01 01:54:08.625, 1.018, -0.02, -0.095, -0.732, -0.122, 0.305, -167.981, -84.82, -31.097, -27.067, -10.393, -0.827, 30.07, -0.10413, -0.72632, 0.12762, -0.66724,
 15:31:49.436,e3:ca:2d:fd:e0:8c, 2015-01-01 01:54:08.625, 1.018, -0.016, -0.091, -0.488, 0.061, 0.244, -167.948, -84.82, -31.152, -27.067, -10.393, -0.827, 30.07, -0.10413, -0.72632, 0.12762, -0.66724,
 15:31:49.442,f6:90:cc:01:6d:25, 2015-01-01 01:54:06.285, 0.964, 0.002, 0.216, -0.366, -0.732, 0, 0.687, -77.256, -155.121, -30.353, -11.187, -1.560, 32.55, 0.17191, -0.60834, -0.13904, -0.76218,
 15:31:49.442,f6:90:cc:01:6d:25, 2015-01-01 01:54:06.285, 0.965, 0, 0.212, -0.427, -0.61, 0, 0.676, -77.272, -155.099, -30.353, -11.187, -1.560, 32.55, 0.17191, -0.60834, -0.13904, -0.76218,
 15:31:49.464,ed:40:fe:65:30:6c, 2015-01-01 01:54:19.265, 0.797, -0.09, 0.607, -0.427, -0.549, -0.244, -8.069, -52.103, -111.918, -25.680, -7.120, 0.280, 27.94, -0.47864, 0.39761, 0.19345, 0.75845,
 15:31:49.464,ed:40:fe:65:30:6c, 2015-01-01 01:54:19.265, 0.795, -0.085, 0.604, -0.305, -0.61, -0.061, -8.08, -52.119, -111.923, -25.680, -7.120, 0.280, 27.94, -0.47864, 0.39761, 0.19345, 0.75845,
 15:31:49.470,ed:35:33:d3:6c:f8, 2015-01-01 01:54:07.300, 0.586, -0.139, 0.793, -1.16, -0.122, -0.427, -9.844, -35.711, 169.794, -17.713, -6.773, -29.820, 32.63, -0.11032, -0.29703, 0.10837, -0.9422,
 15:31:49.470,ed:35:33:d3:6c:f8, 2015-01-01 01:54:07.300, 0.583, -0.133, 0.789, -0.305, -0.366, -0.244, -9.849, -35.722, 169.783, -17.713, -6.773, -29.820, 32.63, -0.11032, -0.29703, 0.10837, -0.9422,
 15:31:49.494,ed:40:fe:65:30:6c, 2015-01-01 01:54:19.265, 0.794, -0.086, 0.605, 0, -0.244, 0.061, -8.08, -52.125, -111.929, -25.680, -7.120, 0.280, 27.94, -0.47583, 0.39859, 0.19281, 0.75986,
 15:31:49.494,ed:40:fe:65:30:6c, 2015-01-01 01:54:19.265, 0.794, -0.087, 0.606, 0.061, -0.122, 0, -8.08, -52.13, -111.929, -25.680, -7.120, 0.280, 27.94, -0.47583, 0.39859, 0.19281, 0.75986,
 15:31:49.498,ed:35:33:d3:6c:f8, 2015-01-01 01:54:07.685, 0.583, -0.136, 0.79, 0.305, -0.061, 0.122, -9.844, -35.728, 169.772, -17.713, -6.773, -29.820, 32.63, -0.11032, -0.29703, 0.10837, -0.9422,
 15:31:49.498,ed:35:33:d3:6c:f8, 2015-01-01 01:54:07.685, 0.582, -0.141, 0.79, 0.366, 0.244, 0, -9.838, -35.722, 169.744, -17.713, -6.773, -29.820, 32.63, -0.11032, -0.29703, 0.10837, -0.9422,
 15:31:49.504,f6:90:cc:01:6d:25, 2015-01-01 01:54:06.285, 0.963, 0, 0.215, 0, -0.549, 0.061, 0.67, -77.283, -155.078, -30.353, -11.187, -1.560, 32.55, 0.17191, -0.60834, -0.13904, -0.76218,
 15:31:49.504,f6:90:cc:01:6d:25, 2015-01-01 01:54:06.285, 0.962, 0.002, 0.215, 0.061, -0.244, 0.061, 0.659, -77.289, -155.061, -30.353, -11.187, -1.560, 32.55, 0.17191, -0.60834, -0.13904, -0.76218,
 15:31:49.523,ed:40:fe:65:30:6c, 2015-01-01 01:54:19.265, 0.794, -0.09, 0.608, 0, 0, -0.122, -8.075, -52.13, -111.934, -25.680, -7.120, 0.280, 27.94, -0.47583, 0.39859, 0.19281, 0.75986,
 15:31:49.523,ed:40:fe:65:30:6c, 2015-01-01 01:54:19.265, 0.797, -0.092, 0.608, 0.061, 0.061, -0.305, -8.069, -52.13, -111.945, -25.680, -7.120, 0.280, 27.94, -0.47583, 0.39859, 0.19281, 0.75986,
 15:31:49.527,e3:ca:2d:fd:e0:8c, 2015-01-01 01:54:08.625, 1.018, -0.018, -0.094, -0.366, -0.122, 0.061, -167.959, -84.814, -31.168, -27.067, -10.393, -0.827, 30.07, -0.10413, -0.72632, 0.12762, -0.66724,
 15:31:49.527,e3:ca:2d:fd:e0:8c, 2015-01-01 01:54:08.625, 1.017, -0.02, -0.088, 0.061, 0, 0, -167.964, -84.814, -31.157, -27.067, -10.393, -0.827, 30.07, -0.10413, -0.72632, 0.12762, -0.66724,
 15:31:49.529,ed:35:33:d3:6c:f8, 2015-01-01 01:54:07.685, 0.583, -0.143, 0.792, 0.305, 0.122, -0.427, -9.827, -35.728, 169.706, -17.713, -6.773, -29.820, 32.63, -0.11032, -0.29703, 0.10837, -0.9422,
 15:31:49.529,ed:35:33:d3:6c:f8, 2015-01-01 01:54:07.685, 0.585, -0.139, 0.792, 0.244, 0.305, -0.305, -9.816, -35.722, 169.684, -17.713, -6.773, -29.820, 32.63, -0.11032, -0.29703, 0.10837, -0.9422,
 15:31:49.531,f6:90:cc:01:6d:25, 2015-01-01 01:54:06.285, 0.962, 0.003, 0.218, 0.061, -0.122, 0, 0.659, -77.294, -155.05, -30.353, -11.187, -1.560, 32.55, 0.17191, -0.60834, -0.13904, -0.76218,
 15:31:49.531,f6:90:cc:01:6d:25, 2015-01-01 01:54:06.285, 0.964, 0, 0.215, 0, -0.244, 0, 0.659, -77.3, -155.045, -30.353, -11.187, -1.560, 32.55, 0.17191, -0.60834, -0.13904, -0.76218,
 15:31:49.556,e3:ca:2d:fd:e0:8c, 2015-01-01 01:54:08.625, 1.017, -0.018, -0.089, 0.122, 0.244, 0.183, -167.915, -84.814, -31.196, -27.160, -10.333, -1.287, 30.07, -0.10413, -0.72632, 0.12762, -0.66724,
 15:31:49.556,e3:ca:2d:fd:e0:8c, 2015-01-01 01:54:08.625, 1.015, -0.016, -0.089, 0, 0.183, 0.183, -167.877, -84.82, -31.234, -27.160, -10.333, -1.287, 30.07, -0.10413, -0.72632, 0.12762, -0.66724,
 15:31:49.562,f6:90:cc:01:6d:25, 2015-01-01 01:54:06.285, 0.966, -0.002, 0.215, 0.122, -0.244, -0.122, 0.67, -77.305, -155.056, -30.353, -11.187, -1.560, 32.55, 0.17191, -0.60834, -0.13904, -0.76218,
 15:31:49.562,f6:90:cc:01:6d:25, 2015-01-01 01:54:06.285, 0.965, 0.001, 0.216, -0.122, 0.061, 0, 0.67, -77.305, -155.056, -30.353, -11.187, -1.560, 32.55, 0.17191, -0.60834, -0.13904, -0.76218,
 15:31:49.582,ed:40:fe:65:30:6c, 2015-01-01 01:54:19.620, 0.798, -0.088, 0.605, 0.122, 0.183, 0, -8.069, -52.13, -111.94, -25.680, -7.120, 0.280, 27.94, -0.47583, 0.39859, 0.19281, 0.75986,
 15:31:49.582,ed:40:fe:65:30:6c, 2015-01-01 01:54:19.620, 0.796, -0.086, 0.607, 0.244, 0.305, 0.183, -8.069, -52.125, -111.945, -25.680, -7.120, 0.280, 27.94, -0.47583, 0.39859, 0.19281, 0.75986,
 15:31:49.586,e3:ca:2d:fd:e0:8c, 2015-01-01 01:54:08.625, 1.021, -0.018, -0.091, -0.183, 0.061, 0, -167.893, -84.82, -31.24, -27.160, -10.333, -1.287, 30.07, -0.10413, -0.72632, 0.12762, -0.66724,
 15:31:49.586,e3:ca:2d:fd:e0:8c, 2015-01-01 01:54:08.625, 1.02, -0.021, -0.09, -0.183, 0, 0, -167.915, -84.82, -31.234, -27.160, -10.333, -1.287, 30.07, -0.10413, -0.72632, 0.12762, -0.66724,
 15:31:49.588,ed:35:33:d3:6c:f8, 2015-01-01 01:54:07.685, 0.585, -0.134, 0.791, 0.549, 0.122, 0.061, -9.805, -35.722, 169.673, -17.713, -6.773, -29.820, 32.63, -0.11032, -0.29703, 0.10837, -0.9422,
 15:31:49.588,ed:35:33:d3:6c:f8, 2015-01-01 01:54:07.685, 0.582, -0.135, 0.795, 0.549, 0.305, 0.305, -9.8, -35.717, 169.645, -17.713, -6.773, -29.820, 32.63, -0.11032, -0.29703, 0.10837, -0.9422,
 15:31:49.592,f6:90:cc:01:6d:25, 2015-01-01 01:54:06.285, 0.962, 0.002, 0.217, -0.488, 0.061, 0.061, 0.659, -77.305, -155.045, -30.353, -11.187, -1.560, 32.55, 0.17191, -0.60834, -0.13904, -0.76218,
 15:31:49.592,f6:90:cc:01:6d:25, 2015-01-01 01:54:06.285, 0.96, 0.002, 0.219, -0.793, -0.061, 0.061, 0.637, -77.305, -155.023, -30.353, -11.187, -1.560, 32.55, 0.17191, -0.60834, -0.13904, -0.76218,
 15:31:49.612,ed:40:fe:65:30:6c, 2015-01-01 01:54:19.620, 0.793, -0.085, 0.61, 0.061, 0.183, 0.305, -8.075, -52.125, -111.94, -25.680, -7.120, 0.280, 27.94, -0.47583, 0.39859, 0.19281, 0.75986,
 15:31:49.612,ed:40:fe:65:30:6c, 2015-01-01 01:54:19.620, 0.792, -0.085, 0.612, -0.122, 0.122, 0.183, -8.086, -52.125, -111.94, -25.680, -7.120, 0.280, 27.94, -0.47583, 0.39859, 0.19281, 0.75986,
 15:31:49.616,e3:ca:2d:fd:e0:8c, 2015-01-01 01:54:08.625, 1.018, -0.02, -0.091, -0.122, 0.366, 0.122, -167.91, -84.82, -31.256, -27.160, -10.333, -1.287, 30.07, -0.10413, -0.72632, 0.12762, -0.66724,
 15:31:49.616,e3:ca:2d:fd:e0:8c, 2015-01-01 01:54:08.625, 1.016, -0.018, -0.092, -0.305, 0.366, 0.183, -167.871, -84.825, -31.317, -27.160, -10.333, -1.287, 30.07, -0.10413, -0.72632, 0.12762, -0.66724,
 15:31:49.618,ed:35:33:d3:6c:f8, 2015-01-01 01:54:07.685, 0.58, -0.136, 0.798, 0.61, 0.183, 0.305, -9.789, -35.717, 169.645, -17.713, -6.773, -29.820, 32.63, -0.11032, -0.29703, 0.10837, -0.9422,
 15:31:49.618,ed:35:33:d3:6c:f8, 2015-01-01 01:54:07.685, 0.577, -0.138, 0.796, 0.427, 0.122, -0.061, -9.778, -35.717, 169.645, -17.713, -6.773, -29.820, 32.63, -0.11032, -0.29703, 0.10837, -0.9422,
 15:31:49.642,ed:40:fe:65:30:6c, 2015-01-01 01:54:19.620, 0.791, -0.086, 0.612, -0.488, 0.244, 0.061, -8.097, -52.119, -111.94, -25.680, -7.120, 0.280, 27.94, -0.47583, 0.39859, 0.19281, 0.75986,
 15:31:49.642,ed:40:fe:65:30:6c, 2015-01-01 01:54:19.620, 0.793, -0.09, 0.61, -0.427, 0.305, 0, -8.102, -52.114, -111.94, -25.680, -7.120, 0.280, 27.94, -0.47583, 0.39859, 0.19281, 0.75986,
 15:31:49.646,e3:ca:2d:fd:e0:8c, 2015-01-01 01:54:08.625, 1.015, -0.019, -0.09, -0.305, 0.061, 0.183, -167.827, -84.831, -31.404, -27.160, -10.333, -1.287, 30.07, -0.10614, -0.72601, 0.12976, -0.66684,
 15:31:49.646,e3:ca:2d:fd:e0:8c, 2015-01-01 01:54:08.625, 1.015, -0.021, -0.088, -0.183, -0.183, 0.183, -167.8, -84.831, -31.465, -27.160, -10.333, -1.287, 30.07, -0.10614, -0.72601, 0.12976, -0.66684,
 15:31:49.648,ed:35:33:d3:6c:f8, 2015-01-01 01:54:07.685, 0.579, -0.138, 0.795, 0.793, 0.061, -0.305, -9.761, -35.717, 169.64, -17.713, -6.773, -29.820, 32.63, -0.11032, -0.29703, 0.10837, -0.9422,
 15:31:49.648,ed:35:33:d3:6c:f8, 2015-01-01 01:54:07.685, 0.583, -0.137, 0.793, 1.16, 0.122, 0, -9.739, -35.717, 169.645, -17.713, -6.773, -29.820, 32.63, -0.11032, -0.29703, 0.10837, -0.9422,
 15:31:49.652,f6:90:cc:01:6d:25, 2015-01-01 01:54:06.285, 0.961, 0.001, 0.219, -0.793, -0.122, 0.122, 0.615, -77.305, -154.979, -30.353, -11.187, -1.560, 32.55, 0.17191, -0.60834, -0.13904, -0.76218,
 15:31:49.652,f6:90:cc:01:6d:25, 2015-01-01 01:54:06.285, 0.963, -0.002, 0.216, -0.916, -0.061, 0.183, 0.582, -77.305, -154.946, -30.353, -11.187, -1.560, 32.55, 0.17191, -0.60834, -0.13904, -0.76218,
 15:31:49.682,f6:90:cc:01:6d:25, 2015-01-01 01:54:06.285, 0.961, -0.001, 0.216, -1.221, 0, 0.061, 0.544, -77.311, -154.951, -30.227, -11.040, -1.167, 32.55, 0.17191, -0.60834, -0.13904, -0.76218,
 15:31:49.682,f6:90:cc:01:6d:25, 2015-01-01 01:54:06.285, 0.958, 0.001, 0.218, -1.587, 0, 0.122, 0.505, -77.311, -154.957, -30.227, -11.040, -1.167, 32.55, 0.17191, -0.60834, -0.13904, -0.76218,
 15:31:49.703,ed:40:fe:65:30:6c, 2015-01-01 01:54:19.620, 0.786, -0.085, 0.61, -0.732, 0.549, 0.305, -8.119, -52.108, -111.929, -25.680, -7.120, 0.280, 27.94, -0.47583, 0.39859, 0.19281, 0.75986,
 15:31:49.703,ed:40:fe:65:30:6c, 2015-01-01 01:54:19.620, 0.788, -0.083, 0.613, -1.282, 0.427, 0.305, -8.141, -52.097, -111.912, -25.680, -7.120, 0.280, 27.94, -0.47583, 0.39859, 0.19281, 0.75986,
 15:31:49.707,e3:ca:2d:fd:e0:8c, 2015-01-01 01:54:08.625, 1.018, -0.021, -0.092, -0.366, -0.366, 0.366, -167.767, -84.825, -31.503, -27.160, -10.333, -1.287, 30.07, -0.10614, -0.72601, 0.12976, -0.66684,
 15:31:49.707,e3:ca:2d:fd:e0:8c, 2015-01-01 01:54:08.625, 1.016, -0.019, -0.088, -0.488, -0.183, 0.488, -167.706, -84.814, -31.553, -27.160, -10.333, -1.287, 30.07, -0.10614, -0.72601, 0.12976, -0.66684,
 15:31:49.710,ed:35:33:d3:6c:f8, 2015-01-01 01:54:07.685, 0.575, -0.136, 0.791, 1.343, 0.122, 0.183, -9.717, -35.711, 169.645, -17.713, -6.773, -29.820, 32.63, -0.11032, -0.29703, 0.10837, -0.9422,
 15:31:49.710,ed:35:33:d3:6c:f8, 2015-01-01 01:54:07.685, 0.573, -0.131, 0.797, 0.916, 0.366, 0.122, -9.701, -35.706, 169.64, -17.713, -6.773, -29.820, 32.63, -0.11032, -0.29703, 0.10837, -0.9422,
 15:31:49.714,f6:90:cc:01:6d:25, 2015-01-01 01:54:06.285, 0.96, 0.006, 0.222, -1.77, -0.122, 0.122, 0.456, -77.311, -154.935, -30.227, -11.040, -1.167, 32.55, 0.17191, -0.60834, -0.13904, -0.76218,
 15:31:49.714,f6:90:cc:01:6d:25, 2015-01-01 01:54:06.285, 0.963, 0.004, 0.224, -2.075, -0.488, 0, 0.412, -77.311, -154.918, -30.227, -11.040, -1.167, 32.55, 0.17191, -0.60834, -0.13904, -0.76218,
 15:31:49.732,ed:40:fe:65:30:6c, 2015-01-01 01:54:19.620, 0.791, -0.09, 0.611, -1.892, 0.793, 0, -8.174, -52.086, -111.896, -25.680, -7.120, 0.280, 27.94, -0.47583, 0.39859, 0.19281, 0.75986,
 15:31:49.734,ed:40:fe:65:30:6c, 2015-01-01 01:54:19.620, 0.784, -0.099, 0.61, -2.441, 1.404, -0.671, -8.207, -52.07, -111.896, -25.680, -7.120, 0.280, 27.94, -0.47583, 0.39859, 0.19281, 0.75986,
 15:31:49.736,e3:ca:2d:fd:e0:8c, 2015-01-01 01:54:09.045, 1.014, -0.016, -0.087, -0.61, -0.061, 0.549, -167.618, -84.809, -31.635, -27.160, -10.333, -1.287, 30.07, -0.10614, -0.72601, 0.12976, -0.66684,
 15:31:49.736,e3:ca:2d:fd:e0:8c, 2015-01-01 01:54:09.045, 1.016, -0.014, -0.087, -0.732, -0.244, 0.427, -167.531, -84.809, -31.74, -27.160, -10.333, -1.287, 30.07, -0.10614, -0.72601, 0.12976, -0.66684,
 15:31:49.738,e3:ca:2d:fd:e0:8c, 2015-01-01 01:54:09.045, 1.018, -0.015, -0.086, -0.916, -0.671, 0.366, -167.492, -84.798, -31.816, -27.160, -10.333, -1.287, 30.07, -0.10614, -0.72601, 0.12976, -0.66684,
 15:31:49.738,e3:ca:2d:fd:e0:8c, 2015-01-01 01:54:09.045, 1.015, -0.015, -0.086, -1.404, -0.916, 0.305, -167.487, -84.787, -31.877, -27.160, -10.333, -1.287, 30.07, -0.10614, -0.72601, 0.12976, -0.66684,
 15:31:49.739,ed:35:33:d3:6c:f8, 2015-01-01 01:54:07.685, 0.577, -0.138, 0.796, 0.427, 0.366, -0.183, -9.684, -35.7, 169.623, -17.320, -6.400, -29.407, 32.63, -0.11032, -0.29703, 0.10837, -0.9422,
 15:31:49.739,ed:35:33:d3:6c:f8, 2015-01-01 01:54:07.685, 0.576, -0.146, 0.791, 0.793, 0.122, -0.793, -9.662, -35.7, 169.596, -17.320, -6.400, -29.407, 32.63, -0.11032, -0.29703, 0.10837, -0.9422,
 15:31:49.762,ed:40:fe:65:30:6c, 2015-01-01 01:54:19.620, 0.782, -0.088, 0.615, -3.723, 1.892, -0.916, -8.234, -52.042, -111.918, -25.520, -6.420, 0.033, 27.94, -0.47583, 0.39859, 0.19281, 0.75986,
 15:31:49.762,ed:40:fe:65:30:6c, 2015-01-01 01:54:19.620, 0.785, -0.083, 0.62, -4.883, 1.953, -0.854, -8.289, -52.004, -111.956, -25.520, -6.420, 0.033, 27.94, -0.47583, 0.39859, 0.19281, 0.75986,
 15:31:49.768,ed:35:33:d3:6c:f8, 2015-01-01 01:54:07.685, 0.567, -0.145, 0.789, 0.488, 0.732, -1.221, -9.641, -35.689, 169.552, -17.320, -6.400, -29.407, 32.63, -0.11032, -0.29703, 0.10837, -0.9422,
 15:31:49.768,ed:35:33:d3:6c:f8, 2015-01-01 01:54:07.685, 0.569, -0.13, 0.805, -2.075, 0.244, -1.831, -9.646, -35.689, 169.503, -17.320, -6.400, -29.407, 32.63, -0.11032, -0.29703, 0.10837, -0.9422,
 15:31:49.772,f6:90:cc:01:6d:25, 2015-01-01 01:54:06.285, 0.958, 0.001, 0.223, -2.625, -0.366, -0.427, 0.379, -77.322, -154.918, -30.227, -11.040, -1.167, 32.55, 0.17169, -0.60913, -0.13831, -0.76172,
 15:31:49.772,f6:90:cc:01:6d:25, 2015-01-01 01:54:06.285, 0.957, 0.004, 0.225, -3.479, -0.305, -0.854, 0.374, -77.322, -154.962, -30.227, -11.040, -1.167, 32.55, 0.17169, -0.60913, -0.13831, -0.76172,
 15:31:49.796,e3:ca:2d:fd:e0:8c, 2015-01-01 01:54:09.045, 1.014, -0.016, -0.083, -1.709, -1.16, 0.183, -167.525, -84.765, -31.904, -27.160, -10.333, -1.287, 30.07, -0.10614, -0.72601, 0.12976, -0.66684,
 15:31:49.796,e3:ca:2d:fd:e0:8c, 2015-01-01 01:54:09.045, 1.014, -0.016, -0.083, -1.953, -1.465, 0.183, -167.602, -84.743, -31.882, -27.160, -10.333, -1.287, 30.07, -0.10614, -0.72601, 0.12976, -0.66684,
 15:31:49.802,f6:90:cc:01:6d:25, 2015-01-01 01:54:06.640, 0.958, 0.006, 0.224, -4.15, -0.549, -0.977, 0.379, -77.327, -155.028, -30.227, -11.040, -1.167, 32.55, 0.17169, -0.60913, -0.13831, -0.76172,
 15:31:49.802,f6:90:cc:01:6d:25, 2015-01-01 01:54:06.640, 0.959, 0.006, 0.221, -4.883, -0.549, -0.732, 0.379, -77.333, -155.089, -30.227, -11.040, -1.167, 32.55, 0.17169, -0.60913, -0.13831, -0.76172,
 15:31:49.822,ed:40:fe:65:30:6c, 2015-01-01 01:54:19.620, 0.786, -0.083, 0.625, -5.31, 1.465, -1.16, -8.355, -51.971, -111.989, -25.520, -6.420, 0.033, 27.94, -0.47583, 0.39859, 0.19281, 0.75986,
 15:31:49.822,ed:40:fe:65:30:6c, 2015-01-01 01:54:19.620, 0.785, -0.089, 0.624, -4.761, 1.16, -1.465, -8.416, -51.943, -112.028, -25.520, -6.420, 0.033, 27.94, -0.47583, 0.39859, 0.19281, 0.75986,
 15:31:49.826,e3:ca:2d:fd:e0:8c, 2015-01-01 01:54:09.045, 1.015, -0.016, -0.086, -2.258, -1.648, 0.183, -167.69, -84.716, -31.855, -27.160, -10.333, -1.287, 30.07, -0.10614, -0.72601, 0.12976, -0.66684,
 15:31:49.826,e3:ca:2d:fd:e0:8c, 2015-01-01 01:54:09.045, 1.014, -0.017, -0.086, -2.563, -1.77, 0.305, -167.789, -84.688, -31.827, -27.160, -10.333, -1.287, 30.07, -0.10614, -0.72601, 0.12976, -0.66684,
 15:31:49.828,ed:35:33:d3:6c:f8, 2015-01-01 01:54:07.685, 0.57, -0.133, 0.812, -3.235, -0.916, -2.563, -9.673, -35.706, 169.442, -17.320, -6.400, -29.407, 32.63, -0.11249, -0.29672, 0.1077, -0.94214,
 15:31:49.828,ed:35:33:d3:6c:f8, 2015-01-01 01:54:07.685, 0.574, -0.134, 0.808, -2.014, -1.404, -2.93, -9.684, -35.739, 169.382, -17.320, -6.400, -29.407, 32.63, -0.11249, -0.29672, 0.1077, -0.94214,
 15:31:49.832,f6:90:cc:01:6d:25, 2015-01-01 01:54:06.640, 0.959, 0.003, 0.222, -5.249, -0.549, -0.61, 0.352, -77.344, -155.132, -30.227, -11.040, -1.167, 32.55, 0.17169, -0.60913, -0.13831, -0.76172,
 15:31:49.832,f6:90:cc:01:6d:25, 2015-01-01 01:54:06.640, 0.956, -0.004, 0.221, -5.066, -0.488, -0.549, 0.308, -77.349, -155.182, -30.227, -11.040, -1.167, 32.55, 0.17169, -0.60913, -0.13831, -0.76172,
 15:31:49.851,ed:40:fe:65:30:6c, 2015-01-01 01:54:19.620, 0.78, -0.093, 0.618, -4.272, 1.099, -1.77, -8.465, -51.921, -112.077, -25.520, -6.420, 0.033, 27.94, -0.47467, 0.39896, 0.18973, 0.7612,
 15:31:49.851,ed:40:fe:65:30:6c, 2015-01-01 01:54:19.620, 0.781, -0.091, 0.619, -4.578, 0.977, -1.587, -8.498, -51.905, -112.126, -25.520, -6.420, 0.033, 27.94, -0.47467, 0.39896, 0.18973, 0.7612,
 15:31:49.855,e3:ca:2d:fd:e0:8c, 2015-01-01 01:54:09.045, 1.01, -0.023, -0.085, -2.38, -1.953, 0.366, -167.866, -84.655, -31.805, -27.160, -10.333, -1.287, 30.07, -0.10614, -0.72601, 0.12976, -0.66684,
 15:31:49.855,e3:ca:2d:fd:e0:8c, 2015-01-01 01:54:09.045, 1.01, -0.025, -0.09, -2.014, -1.77, 0.244, -167.932, -84.622, -31.745, -27.160, -10.333, -1.287, 30.07, -0.10614, -0.72601, 0.12976, -0.66684,
 15:31:49.859,ed:35:33:d3:6c:f8, 2015-01-01 01:54:08.045, 0.572, -0.136, 0.803, -1.282, -0.916, -2.563, -9.679, -35.76, 169.327, -17.320, -6.400, -29.407, 32.63, -0.11249, -0.29672, 0.1077, -0.94214,
 15:31:49.859,ed:35:33:d3:6c:f8, 2015-01-01 01:54:08.045, 0.57, -0.135, 0.801, -1.587, -1.526, -2.319, -9.679, -35.788, 169.283, -17.320, -6.400, -29.407, 32.63, -0.11249, -0.29672, 0.1077, -0.94214,
 15:31:49.894,f6:90:cc:01:6d:25, 2015-01-01 01:54:06.640, 0.956, -0.006, 0.216, -4.517, -0.488, -0.549, 0.264, -77.355, -155.226, -30.227, -11.040, -1.167, 32.55, 0.17169, -0.60913, -0.13831, -0.76172,
 15:31:49.894,f6:90:cc:01:6d:25, 2015-01-01 01:54:06.640, 0.959, -0.002, 0.216, -3.784, -0.916, -0.488, 0.22, -77.36, -155.259, -30.227, -11.040, -1.167, 32.55, 0.17169, -0.60913, -0.13831, -0.76172,
 15:31:49.914,ed:40:fe:65:30:6c, 2015-01-01 01:54:19.620, 0.787, -0.091, 0.616, -5.188, 0.916, -1.343, -8.547, -51.883, -112.17, -25.520, -6.420, 0.033, 27.94, -0.47467, 0.39896, 0.18973, 0.7612,
 15:31:49.914,ed:40:fe:65:30:6c, 2015-01-01 01:54:19.620, 0.79, -0.098, 0.612, -5.371, 0.854, -1.648, -8.608, -51.866, -112.209, -25.520, -6.420, 0.033, 27.94, -0.47467, 0.39896, 0.18973, 0.7612,
 15:31:49.916,e3:ca:2d:fd:e0:8c, 2015-01-01 01:54:09.045, 1.014, -0.021, -0.092, -1.648, -1.77, 0.244, -167.992, -84.589, -31.674, -27.160, -10.333, -1.287, 30.07, -0.10614, -0.72601, 0.12976, -0.66684,
 15:31:49.916,e3:ca:2d:fd:e0:8c, 2015-01-01 01:54:09.045, 1.017, -0.018, -0.092, -1.648, -2.014, 0.305, -168.041, -84.556, -31.63, -27.160, -10.333, -1.287, 30.07, -0.10614, -0.72601, 0.12976, -0.66684,
 15:31:49.918,ed:35:33:d3:6c:f8, 2015-01-01 01:54:08.045, 0.576, -0.136, 0.798, -2.319, -1.709, -2.808, -9.684, -35.821, 169.244, -17.320, -6.400, -29.407, 32.63, -0.11249, -0.29672, 0.1077, -0.94214,
 15:31:49.918,ed:35:33:d3:6c:f8, 2015-01-01 01:54:08.045, 0.581, -0.138, 0.793, -2.747, -1.648, -3.357, -9.695, -35.859, 169.195, -17.320, -6.400, -29.407, 32.63, -0.11249, -0.29672, 0.1077, -0.94214,
 15:31:49.922,f6:90:cc:01:6d:25, 2015-01-01 01:54:06.640, 0.963, 0.001, 0.216, -3.54, -1.038, -0.61, 0.192, -77.377, -155.281, -30.227, -11.040, -1.167, 32.55, 0.17169, -0.60913, -0.13831, -0.76172,
 15:31:49.922,f6:90:cc:01:6d:25, 2015-01-01 01:54:06.640, 0.965, -0.004, 0.211, -3.723, -0.854, -0.732, 0.176, -77.393, -155.314, -30.227, -11.040, -1.167, 32.55, 0.17169, -0.60913, -0.13831, -0.76172,
 15:31:49.942,ed:40:fe:65:30:6c, 2015-01-01 01:54:19.980, 0.792, -0.1, 0.611, -4.578, 0.488, -1.77, -8.663, -51.855, -112.264, -25.520, -6.420, 0.033, 27.94, -0.47467, 0.39896, 0.18973, 0.7612,
 15:31:49.942,ed:40:fe:65:30:6c, 2015-01-01 01:54:19.980, 0.792, -0.1, 0.612, -3.967, 0.366, -1.526, -8.707, -51.844, -112.313, -25.520, -6.420, 0.033, 27.94, -0.47467, 0.39896, 0.18973, 0.7612,
 15:31:49.946,e3:ca:2d:fd:e0:8c, 2015-01-01 01:54:09.045, 1.018, -0.02, -0.096, -1.831, -1.831, 0.122, -168.102, -84.523, -31.58, -26.880, -10.527, -1.200, 30.07, -0.10614, -0.72601, 0.12976, -0.66684,
 15:31:49.946,e3:ca:2d:fd:e0:8c, 2015-01-01 01:54:09.045, 1.015, -0.02, -0.095, -1.648, -1.587, 0, -168.195, -84.49, -31.509, -26.880, -10.527, -1.200, 30.07, -0.10614, -0.72601, 0.12976, -0.66684,
 15:31:49.948,ed:35:33:d3:6c:f8, 2015-01-01 01:54:08.045, 0.584, -0.14, 0.792, -2.625, -1.892, -3.418, -9.706, -35.898, 169.146, -17.320, -6.400, -29.407, 32.63, -0.11249, -0.29672, 0.1077, -0.94214,
 15:31:49.948,ed:35:33:d3:6c:f8, 2015-01-01 01:54:08.045, 0.586, -0.136, 0.792, -2.197, -1.648, -2.93, -9.712, -35.936, 169.102, -17.320, -6.400, -29.407, 32.63, -0.11249, -0.29672, 0.1077, -0.94214,
 15:31:49.952,f6:90:cc:01:6d:25, 2015-01-01 01:54:06.640, 0.964, -0.006, 0.212, -2.991, -0.671, -0.793, 0.176, -77.404, -155.374, -30.227, -11.040, -1.167, 32.55, 0.17169, -0.60913, -0.13831, -0.76172,
 15:31:49.952,f6:90:cc:01:6d:25, 2015-01-01 01:54:06.640, 0.965, -0.002, 0.211, -2.319, -0.366, -0.854, 0.187, -77.415, -155.44, -30.227, -11.040, -1.167, 32.55, 0.17169, -0.60913, -0.13831, -0.76172,
 15:31:49.972,ed:40:fe:65:30:6c, 2015-01-01 01:54:19.980, 0.793, -0.098, 0.61, -3.723, 0.671, -1.343, -8.745, -51.839, -112.352, -25.520, -6.420, 0.033, 27.94, -0.47467, 0.39896, 0.18973, 0.7612,
 15:31:49.972,ed:40:fe:65:30:6c, 2015-01-01 01:54:19.980, 0.797, -0.097, 0.609, -3.723, 0.916, -1.587, -8.778, -51.828, -112.396, -25.520, -6.420, 0.033, 27.94, -0.47467, 0.39896, 0.18973, 0.7612,
 15:31:49.976,e3:ca:2d:fd:e0:8c, 2015-01-01 01:54:09.045, 1.016, -0.021, -0.1, -1.404, -1.404, 0, -168.283, -84.463, -31.448, -26.880, -10.527, -1.200, 30.07, -0.10614, -0.72601, 0.12976, -0.66684,
 15:31:49.976,e3:ca:2d:fd:e0:8c, 2015-01-01 01:54:09.045, 1.02, -0.021, -0.101, -1.282, -1.892, 0.122, -168.365, -84.435, -31.388, -26.880, -10.527, -1.200, 30.07, -0.10614, -0.72601, 0.12976, -0.66684,
 15:31:49.979,ed:35:33:d3:6c:f8, 2015-01-01 01:54:08.045, 0.589, -0.138, 0.788, -1.892, -1.282, -2.625, -9.717, -35.969, 169.069, -17.320, -6.400, -29.407, 32.63, -0.11249, -0.29672, 0.1077, -0.94214,
 15:31:49.979,ed:35:33:d3:6c:f8, 2015-01-01 01:54:08.045, 0.592, -0.139, 0.784, -1.526, -0.61, -2.747, -9.712, -35.986, 169.019, -17.320, -6.400, -29.407, 32.63, -0.11249, -0.29672, 0.1077, -0.94214,
 15:31:50.009,ed:35:33:d3:6c:f8, 2015-01-01 01:54:08.045, 0.592, -0.141, 0.789, -0.854, 0.061, -3.052, -9.69, -35.997, 168.959, -17.320, -6.400, -29.407, 32.63, -0.11249, -0.29672, 0.1077, -0.94214,
 15:31:50.009,ed:35:33:d3:6c:f8, 2015-01-01 01:54:08.045, 0.585, -0.141, 0.791, -0.732, 0.061, -2.686, -9.668, -36.002, 168.909, -17.320, -6.400, -29.407, 32.63, -0.11249, -0.29672, 0.1077, -0.94214,
 15:31:50.013,f6:90:cc:01:6d:25, 2015-01-01 01:54:06.640, 0.969, 0, 0.21, -1.953, -0.427, -0.793, 0.214, -77.421, -155.506, -30.227, -11.040, -1.167, 32.55, 0.17169, -0.60913, -0.13831, -0.76172,
 15:31:50.013,f6:90:cc:01:6d:25, 2015-01-01 01:54:06.640, 0.966, -0.001, 0.21, -2.014, -0.305, -0.854, 0.242, -77.432, -155.577, -30.227, -11.040, -1.167, 32.55, 0.17169, -0.60913, -0.13831, -0.76172,
 15:31:50.032,ed:40:fe:65:30:6c, 2015-01-01 01:54:19.980, 0.794, -0.104, 0.607, -3.662, 0.793, -1.892, -8.811, -51.817, -112.434, -25.520, -6.420, 0.033, 27.94, -0.47467, 0.39896, 0.18973, 0.7612,
 15:31:50.032,ed:40:fe:65:30:6c, 2015-01-01 01:54:19.980, 0.791, -0.101, 0.612, -3.418, 0.427, -1.953, -8.833, -51.812, -112.484, -25.520, -6.420, 0.033, 27.94, -0.47467, 0.39896, 0.18973, 0.7612,
 15:31:50.042,f6:90:cc:01:6d:25, 2015-01-01 01:54:06.640, 0.963, -0.004, 0.204, -2.197, -0.122, -0.854, 0.269, -77.437, -155.66, -30.160, -11.160, -1.393, 32.55, 0.17169, -0.60913, -0.13831, -0.76172,
 15:31:50.042,f6:90:cc:01:6d:25, 2015-01-01 01:54:06.640, 0.964, -0.004, 0.206, -1.831, -0.427, -0.793, 0.291, -77.443, -155.715, -30.160, -11.160, -1.393, 32.55, 0.17169, -0.60913, -0.13831, -0.76172,
 15:31:50.063,ed:40:fe:65:30:6c, 2015-01-01 01:54:19.980, 0.792, -0.094, 0.613, -3.784, 0.305, -1.648, -8.855, -51.812, -112.516, -25.520, -6.420, 0.033, 27.94, -0.47467, 0.39896, 0.18973, 0.7612,
 15:31:50.063,ed:40:fe:65:30:6c, 2015-01-01 01:54:19.980, 0.792, -0.099, 0.612, -3.601, 0, -1.526, -8.893, -51.812, -112.549, -25.520, -6.420, 0.033, 27.94, -0.47467, 0.39896, 0.18973, 0.7612,
 15:31:50.065,e3:ca:2d:fd:e0:8c, 2015-01-01 01:54:09.045, 1.017, -0.021, -0.102, -1.221, -2.258, 0.305, -168.431, -84.397, -31.344, -26.880, -10.527, -1.200, 30.07, -0.10858, -0.72766, 0.13376, -0.66385,
 15:31:50.065,e3:ca:2d:fd:e0:8c, 2015-01-01 01:54:09.045, 1.015, -0.021, -0.106, -0.916, -1.77, 0.183, -168.481, -84.359, -31.339, -26.880, -10.527, -1.200, 30.07, -0.10858, -0.72766, 0.13376, -0.66385,
 15:31:50.067,e3:ca:2d:fd:e0:8c, 2015-01-01 01:54:09.400, 1.015, -0.02, -0.105, -0.427, -1.343, -0.061, -168.536, -84.326, -31.317, -26.880, -10.527, -1.200, 30.07, -0.10858, -0.72766, 0.13376, -0.66385,
 15:31:50.067,e3:ca:2d:fd:e0:8c, 2015-01-01 01:54:09.400, 1.016, -0.022, -0.104, -0.244, -1.526, -0.427, -168.629, -84.298, -31.262, -26.880, -10.527, -1.200, 30.07, -0.10858, -0.72766, 0.13376, -0.66385,
 15:31:50.069,ed:35:33:d3:6c:f8, 2015-01-01 01:54:08.045, 0.587, -0.132, 0.796, -1.831, -0.305, -2.563, -9.668, -36.019, 168.854, -17.320, -6.400, -29.407, 32.63, -0.11249, -0.29672, 0.1077, -0.94214,
 15:31:50.069,ed:35:33:d3:6c:f8, 2015-01-01 01:54:08.045, 0.588, -0.134, 0.797, -2.319, -0.916, -2.869, -9.679, -36.046, 168.788, -17.320, -6.400, -29.407, 32.63, -0.11249, -0.29672, 0.1077, -0.94214,
 15:31:50.073,f6:90:cc:01:6d:25, 2015-01-01 01:54:06.640, 0.965, -0.003, 0.211, -1.587, -0.488, -0.732, 0.319, -77.454, -155.753, -30.160, -11.160, -1.393, 32.55, 0.17169, -0.60913, -0.13831, -0.76172,
 15:31:50.073,f6:90:cc:01:6d:25, 2015-01-01 01:54:06.640, 0.966, -0.004, 0.208, -1.526, -0.488, -0.671, 0.335, -77.465, -155.775, -30.160, -11.160, -1.393, 32.55, 0.17169, -0.60913, -0.13831, -0.76172,
 15:31:50.092,ed:40:fe:65:30:6c, 2015-01-01 01:54:19.980, 0.795, -0.102, 0.61, -3.052, -0.122, -1.282, -8.926, -51.817, -112.577, -25.520, -6.420, 0.033, 27.94, -0.47467, 0.39896, 0.18973, 0.7612,
 15:31:50.092,ed:40:fe:65:30:6c, 2015-01-01 01:54:19.980, 0.795, -0.104, 0.606, -2.38, -0.244, -0.916, -8.954, -51.828, -112.599, -25.520, -6.420, 0.033, 27.94, -0.47467, 0.39896, 0.18973, 0.7612,
 15:31:50.096,e3:ca:2d:fd:e0:8c, 2015-01-01 01:54:09.400, 1.016, -0.024, -0.107, -0.183, -1.709, -0.366, -168.772, -84.271, -31.157, -26.880, -10.527, -1.200, 30.07, -0.10858, -0.72766, 0.13376, -0.66385,
 15:31:50.096,e3:ca:2d:fd:e0:8c, 2015-01-01 01:54:09.400, 1.016, -0.027, -0.105, -0.305, -1.221, -0.122, -168.887, -84.238, -31.064, -26.880, -10.527, -1.200, 30.07, -0.10858, -0.72766, 0.13376, -0.66385,
 15:31:50.098,ed:35:33:d3:6c:f8, 2015-01-01 01:54:08.045, 0.59, -0.134, 0.79, -2.258, -1.526, -2.93, -9.684, -36.085, 168.734, -17.913, -6.607, -30.207, 32.63, -0.11249, -0.29672, 0.1077, -0.94214,
 15:31:50.098,ed:35:33:d3:6c:f8, 2015-01-01 01:54:08.045, 0.594, -0.133, 0.788, -1.526, -1.282, -2.197, -9.69, -36.118, 168.701, -17.913, -6.607, -30.207, 32.63, -0.11249, -0.29672, 0.1077, -0.94214,
 15:31:50.128,ed:35:33:d3:6c:f8, 2015-01-01 01:54:08.045, 0.595, -0.138, 0.785, -1.465, -1.282, -1.587, -9.701, -36.145, 168.64, -17.913, -6.607, -30.207, 32.63, -0.11249, -0.29672, 0.1077, -0.94214,
 15:31:50.128,ed:35:33:d3:6c:f8, 2015-01-01 01:54:08.045, 0.597, -0.137, 0.782, -1.038, -1.404, -1.221, -9.706, -36.178, 168.596, -17.913, -6.607, -30.207, 32.63, -0.11249, -0.29672, 0.1077, -0.94214,
 15:31:50.152,ed:40:fe:65:30:6c, 2015-01-01 01:54:19.980, 0.796, -0.105, 0.604, -1.526, -0.244, -0.671, -8.981, -51.833, -112.621, -25.520, -6.420, 0.033, 27.94, -0.47467, 0.39896, 0.18973, 0.7612,
 15:31:50.152,ed:40:fe:65:30:6c, 2015-01-01 01:54:19.980, 0.796, -0.104, 0.602, -0.427, -0.183, -0.305, -8.998, -51.844, -112.643, -25.520, -6.420, 0.033, 27.94, -0.47467, 0.39896, 0.18973, 0.7612,
 15:31:50.158,e3:ca:2d:fd:e0:8c, 2015-01-01 01:54:09.400, 1.017, -0.026, -0.107, -0.488, -0.916, -0.061, -168.942, -84.216, -31.025, -26.880, -10.527, -1.200, 30.07, -0.10858, -0.72766, 0.13376, -0.66385,
 15:31:50.158,e3:ca:2d:fd:e0:8c, 2015-01-01 01:54:09.400, 1.017, -0.028, -0.104, 0, -0.671, -0.122, -168.975, -84.199, -31.009, -26.880, -10.527, -1.200, 30.07, -0.10858, -0.72766, 0.13376, -0.66385,
 15:31:50.162,f6:90:cc:01:6d:25, 2015-01-01 01:54:06.640, 0.966, -0.008, 0.202, -1.465, -0.305, -0.549, 0.346, -77.476, -155.797, -30.160, -11.160, -1.393, 32.55, 0.16547, -0.61127, -0.13351, -0.76227,
 15:31:50.162,f6:90:cc:01:6d:25, 2015-01-01 01:54:06.640, 0.966, -0.01, 0.203, -0.61, -0.122, -0.366, 0.352, -77.481, -155.797, -30.160, -11.160, -1.393, 32.55, 0.16547, -0.61127, -0.13351, -0.76227,
 15:31:50.164,f6:90:cc:01:6d:25, 2015-01-01 01:54:06.640, 0.966, -0.011, 0.206, 0.244, 0.061, -0.244, 0.357, -77.487, -155.764, -30.160, -11.160, -1.393, 32.55, 0.16547, -0.61127, -0.13351, -0.76227,
 15:31:50.164,f6:90:cc:01:6d:25, 2015-01-01 01:54:06.640, 0.967, -0.008, 0.206, 1.099, 0.366, -0.122, 0.363, -77.487, -155.726, -30.160, -11.160, -1.393, 32.55, 0.16547, -0.61127, -0.13351, -0.76227,
 15:31:50.183,ed:40:fe:65:30:6c, 2015-01-01 01:54:19.980, 0.796, -0.104, 0.602, 0.488, 0, 0, -8.998, -51.85, -112.643, -25.600, -6.867, -0.407, 27.94, -0.47467, 0.39896, 0.18973, 0.7612,
 15:31:50.183,ed:40:fe:65:30:6c, 2015-01-01 01:54:19.980, 0.8, -0.1, 0.602, 1.16, -0.122, 0.305, -8.998, -51.855, -112.626, -25.600, -6.867, -0.407, 27.94, -0.47467, 0.39896, 0.18973, 0.7612,
 15:31:50.185,e3:ca:2d:fd:e0:8c, 2015-01-01 01:54:09.400, 1.017, -0.025, -0.104, 0.854, -0.488, -0.183, -168.997, -84.183, -30.992, -26.880, -10.527, -1.200, 30.07, -0.10858, -0.72766, 0.13376, -0.66385,
 15:31:50.185,e3:ca:2d:fd:e0:8c, 2015-01-01 01:54:09.400, 1.021, -0.021, -0.107, 1.282, -0.061, -0.122, -168.986, -84.177, -30.981, -26.880, -10.527, -1.200, 30.07, -0.10858, -0.72766, 0.13376, -0.66385,
 15:31:50.189,ed:35:33:d3:6c:f8, 2015-01-01 01:54:08.045, 0.596, -0.137, 0.78, -0.244, -1.282, -0.793, -9.706, -36.211, 168.563, -17.913, -6.607, -30.207, 32.63, -0.12024, -0.29987, 0.11078, -0.93982,
 15:31:50.189,ed:35:33:d3:6c:f8, 2015-01-01 01:54:08.045, 0.599, -0.135, 0.783, 0.427, -1.221, -0.427, -9.695, -36.238, 168.541, -17.913, -6.607, -30.207, 32.63, -0.12024, -0.29987, 0.11078, -0.93982,
 15:31:50.193,f6:90:cc:01:6d:25, 2015-01-01 01:54:07.000, 0.969, -0.004, 0.205, 1.77, 0.61, -0.061, 0.374, -77.481, -155.704, -30.160, -11.160, -1.393, 32.55, 0.16547, -0.61127, -0.13351, -0.76227,
 15:31:50.193,f6:90:cc:01:6d:25, 2015-01-01 01:54:07.000, 0.973, 0, 0.203, 2.197, 0.549, 0, 0.39, -77.476, -155.687, -30.160, -11.160, -1.393, 32.55, 0.16547, -0.61127, -0.13351, -0.76227,
 15:31:50.213,ed:40:fe:65:30:6c, 2015-01-01 01:54:19.980, 0.804, -0.094, 0.6, 1.709, -0.244, 0.671, -8.987, -51.861, -112.604, -25.600, -6.867, -0.407, 27.94, -0.47467, 0.39896, 0.18973, 0.7612,
 15:31:50.213,ed:40:fe:65:30:6c, 2015-01-01 01:54:19.980, 0.802, -0.095, 0.603, 2.136, -0.183, 0.977, -8.976, -51.872, -112.571, -25.600, -6.867, -0.407, 27.94, -0.47467, 0.39896, 0.18973, 0.7612,
 15:31:50.215,e3:ca:2d:fd:e0:8c, 2015-01-01 01:54:09.400, 1.023, -0.018, -0.106, 1.404, 0.671, -0.183, -168.959, -84.183, -30.998, -26.880, -10.527, -1.200, 30.07, -0.10858, -0.72766, 0.13376, -0.66385,
 15:31:50.215,e3:ca:2d:fd:e0:8c, 2015-01-01 01:54:09.400, 1.021, -0.016, -0.105, 1.587, 1.282, -0.366, -168.931, -84.199, -31.009, -26.880, -10.527, -1.200, 30.07, -0.10858, -0.72766, 0.13376, -0.66385,
 15:31:50.219,ed:35:33:d3:6c:f8, 2015-01-01 01:54:08.400, 0.604, -0.129, 0.78, 0.427, -1.221, 0.122, -9.695, -36.266, 168.536, -17.913, -6.607, -30.207, 32.63, -0.12024, -0.29987, 0.11078, -0.93982,
 15:31:50.219,ed:35:33:d3:6c:f8, 2015-01-01 01:54:08.400, 0.604, -0.128, 0.782, 0.549, -1.099, 0.549, -9.695, -36.293, 168.53, -17.913, -6.607, -30.207, 32.63, -0.12024, -0.29987, 0.11078, -0.93982,
 15:31:50.249,ed:35:33:d3:6c:f8, 2015-01-01 01:54:08.400, 0.601, -0.13, 0.782, 0.549, -0.916, 0.732, -9.695, -36.315, 168.525, -17.913, -6.607, -30.207, 32.63, -0.12024, -0.29987, 0.11078, -0.93982,
 15:31:50.249,ed:35:33:d3:6c:f8, 2015-01-01 01:54:08.400, 0.599, -0.127, 0.783, 0.366, -0.061, 0.854, -9.701, -36.321, 168.514, -17.913, -6.607, -30.207, 32.63, -0.12024, -0.29987, 0.11078, -0.93982,
 15:31:50.253,f6:90:cc:01:6d:25, 2015-01-01 01:54:07.000, 0.972, 0.002, 0.206, 2.502, 0.61, 0.122, 0.412, -77.47, -155.671, -30.160, -11.160, -1.393, 32.55, 0.16547, -0.61127, -0.13351, -0.76227,
 15:31:50.253,f6:90:cc:01:6d:25, 2015-01-01 01:54:07.000, 0.968, 0.006, 0.209, 2.319, 0.854, 0.244, 0.428, -77.465, -155.654, -30.160, -11.160, -1.393, 32.55, 0.16547, -0.61127, -0.13351, -0.76227,
 15:31:50.273,ed:40:fe:65:30:6c, 2015-01-01 01:54:19.980, 0.799, -0.092, 0.605, 2.014, 0, 1.038, -8.959, -51.877, -112.527, -25.600, -6.867, -0.407, 27.94, -0.46918, 0.40173, 0.1835, 0.76465,
 15:31:50.273,ed:40:fe:65:30:6c, 2015-01-01 01:54:19.980, 0.795, -0.089, 0.608, 1.465, 0.305, 0.977, -8.954, -51.877, -112.484, -25.600, -6.867, -0.407, 27.94, -0.46918, 0.40173, 0.1835, 0.76465,
 15:31:50.277,e3:ca:2d:fd:e0:8c, 2015-01-01 01:54:09.400, 1.018, -0.015, -0.108, 1.77, 1.282, -0.305, -168.909, -84.221, -31.02, -26.880, -10.527, -1.200, 30.07, -0.10858, -0.72766, 0.13376, -0.66385,
 15:31:50.277,e3:ca:2d:fd:e0:8c, 2015-01-01 01:54:09.400, 1.015, -0.018, -0.108, 1.587, 1.099, -0.122, -168.876, -84.243, -31.036, -26.880, -10.527, -1.200, 30.07, -0.10858, -0.72766, 0.13376, -0.66385,
 15:31:50.282,f6:90:cc:01:6d:25, 2015-01-01 01:54:07.000, 0.965, 0.007, 0.207, 1.648, 0.916, 0.488, 0.423, -77.448, -155.616, -30.160, -11.160, -1.393, 32.55, 0.16547, -0.61127, -0.13351, -0.76227,
 15:31:50.282,f6:90:cc:01:6d:25, 2015-01-01 01:54:07.000, 0.961, 0.005, 0.209, 1.038, 0.732, 0.732, 0.39, -77.443, -155.544, -30.160, -11.160, -1.393, 32.55, 0.16547, -0.61127, -0.13351, -0.76227,
 15:31:50.303,ed:40:fe:65:30:6c, 2015-01-01 01:54:20.365, 0.789, -0.092, 0.608, 0.61, 0.488, 0.793, -8.948, -51.877, -112.451, -25.600, -6.867, -0.407, 27.94, -0.46918, 0.40173, 0.1835, 0.76465,
 15:31:50.303,ed:40:fe:65:30:6c, 2015-01-01 01:54:20.365, 0.784, -0.098, 0.611, 0.183, 0.427, 0.61, -8.959, -51.872, -112.418, -25.600, -6.867, -0.407, 27.94, -0.46918, 0.40173, 0.1835, 0.76465,
 15:31:50.307,e3:ca:2d:fd:e0:8c, 2015-01-01 01:54:09.400, 1.011, -0.017, -0.105, 1.465, 1.16, 0.061, -168.816, -84.265, -31.086, -27.173, -10.980, -1.633, 30.07, -0.10858, -0.72766, 0.13376, -0.66385,
 15:31:50.307,e3:ca:2d:fd:e0:8c, 2015-01-01 01:54:09.400, 1.008, -0.017, -0.101, 1.221, 1.16, 0.122, -168.739, -84.282, -31.157, -27.173, -10.980, -1.633, 30.07, -0.10858, -0.72766, 0.13376, -0.66385,
 15:31:50.309,ed:35:33:d3:6c:f8, 2015-01-01 01:54:08.400, 0.592, -0.13, 0.786, -0.244, 0.366, 0.549, -9.706, -36.315, 168.508, -17.913, -6.607, -30.207, 32.63, -0.12024, -0.29987, 0.11078, -0.93982,
 15:31:50.309,ed:35:33:d3:6c:f8, 2015-01-01 01:54:08.400, 0.585, -0.134, 0.789, -0.305, 0.122, 0.305, -9.717, -36.321, 168.508, -17.913, -6.607, -30.207, 32.63, -0.12024, -0.29987, 0.11078, -0.93982,
 15:31:50.313,f6:90:cc:01:6d:25, 2015-01-01 01:54:07.000, 0.957, 0.003, 0.211, 0.488, 0.854, 0.793, 0.33, -77.432, -155.479, -30.160, -11.160, -1.393, 32.55, 0.16547, -0.61127, -0.13351, -0.76227,
 15:31:50.313,f6:90:cc:01:6d:25, 2015-01-01 01:54:07.000, 0.954, 0, 0.215, 0.366, 0.854, 0.732, 0.269, -77.415, -155.435, -30.160, -11.160, -1.393, 32.55, 0.16547, -0.61127, -0.13351, -0.76227,
 15:31:50.332,ed:40:fe:65:30:6c, 2015-01-01 01:54:20.365, 0.779, -0.1, 0.611, 0.427, 0.305, 0.549, -8.965, -51.866, -112.39, -25.600, -6.867, -0.407, 27.94, -0.46918, 0.40173, 0.1835, 0.76465,
 15:31:50.332,ed:40:fe:65:30:6c, 2015-01-01 01:54:20.365, 0.778, -0.101, 0.612, 0.61, 0.183, 0.61, -8.97, -51.866, -112.374, -25.600, -6.867, -0.407, 27.94, -0.46918, 0.40173, 0.1835, 0.76465,
 15:31:50.337,e3:ca:2d:fd:e0:8c, 2015-01-01 01:54:09.400, 1.006, -0.016, -0.098, 1.282, 0.916, 0, -168.673, -84.298, -31.174, -27.173, -10.980, -1.633, 30.07, -0.10858, -0.72766, 0.13376, -0.66385,
 15:31:50.337,e3:ca:2d:fd:e0:8c, 2015-01-01 01:54:09.400, 1.007, -0.019, -0.098, 1.831, 0.671, -0.427, -168.673, -84.315, -31.064, -27.173, -10.980, -1.633, 30.07, -0.10858, -0.72766, 0.13376, -0.66385,
 15:31:50.338,ed:35:33:d3:6c:f8, 2015-01-01 01:54:08.400, 0.581, -0.136, 0.788, -0.122, -0.183, 0.305, -9.723, -36.326, 168.508, -17.913, -6.607, -30.207, 32.63, -0.12024, -0.29987, 0.11078, -0.93982,
 15:31:50.338,ed:35:33:d3:6c:f8, 2015-01-01 01:54:08.400, 0.579, -0.137, 0.786, 0, -0.427, 0.244, -9.728, -36.343, 168.508, -17.913, -6.607, -30.207, 32.63, -0.12024, -0.29987, 0.11078, -0.93982,
 15:31:50.369,ed:35:33:d3:6c:f8, 2015-01-01 01:54:08.400, 0.58, -0.136, 0.785, -0.061, -0.549, 0.244, -9.734, -36.354, 168.492, -17.913, -6.607, -30.207, 32.63, -0.12024, -0.29987, 0.11078, -0.93982,
 15:31:50.369,ed:35:33:d3:6c:f8, 2015-01-01 01:54:08.400, 0.582, -0.137, 0.787, 0, -0.732, 0.244, -9.739, -36.365, 168.486, -17.913, -6.607, -30.207, 32.63, -0.12024, -0.29987, 0.11078, -0.93982,
 15:31:50.372,f6:90:cc:01:6d:25, 2015-01-01 01:54:07.000, 0.953, -0.002, 0.215, 0.61, 0.793, 0.427, 0.236, -77.404, -155.402, -30.160, -11.160, -1.393, 32.55, 0.16547, -0.61127, -0.13351, -0.76227,
 15:31:50.372,f6:90:cc:01:6d:25, 2015-01-01 01:54:07.000, 0.956, -0.004, 0.215, 1.343, 0.61, 0.305, 0.225, -77.393, -155.38, -30.160, -11.160, -1.393, 32.55, 0.16547, -0.61127, -0.13351, -0.76227,
 15:31:50.393,ed:40:fe:65:30:6c, 2015-01-01 01:54:20.365, 0.78, -0.101, 0.61, 0.916, 0.122, 0.671, -8.97, -51.861, -112.352, -25.600, -6.867, -0.407, 27.94, -0.46918, 0.40173, 0.1835, 0.76465,
 15:31:50.393,ed:40:fe:65:30:6c, 2015-01-01 01:54:20.365, 0.785, -0.102, 0.613, 1.16, 0, 0.732, -8.97, -51.861, -112.319, -25.600, -6.867, -0.407, 27.94, -0.46918, 0.40173, 0.1835, 0.76465,
 15:31:50.402,f6:90:cc:01:6d:25, 2015-01-01 01:54:07.000, 0.96, -0.004, 0.217, 2.014, 0.549, 0.244, 0.231, -77.388, -155.341, -30.220, -11.053, -1.127, 32.55, 0.16547, -0.61127, -0.13351, -0.76227,
 15:31:50.402,f6:90:cc:01:6d:25, 2015-01-01 01:54:07.000, 0.966, -0.005, 0.22, 2.197, 0.671, 0.122, 0.253, -77.371, -155.297, -30.220, -11.053, -1.127, 32.55, 0.16547, -0.61127, -0.13351, -0.76227,
 15:31:50.423,ed:40:fe:65:30:6c, 2015-01-01 01:54:20.365, 0.789, -0.103, 0.614, 1.648, -0.122, 0.793, -8.965, -51.861, -112.291, -25.600, -6.867, -0.407, 27.94, -0.46918, 0.40173, 0.1835, 0.76465,
 15:31:50.423,ed:40:fe:65:30:6c, 2015-01-01 01:54:20.365, 0.791, -0.103, 0.616, 2.197, 0, 0.854, -8.948, -51.855, -112.264, -25.600, -6.867, -0.407, 27.94, -0.46918, 0.40173, 0.1835, 0.76465,
 15:31:50.426,e3:ca:2d:fd:e0:8c, 2015-01-01 01:54:09.400, 1.012, -0.023, -0.096, 2.258, 0.732, -0.549, -168.712, -84.326, -30.905, -27.173, -10.980, -1.633, 30.07, -0.10837, -0.72842, 0.13373, -0.66306,
 15:31:50.426,e3:ca:2d:fd:e0:8c, 2015-01-01 01:54:09.400, 1.018, -0.022, -0.09, 2.563, 0.916, -0.366, -168.728, -84.342, -30.789, -27.173, -10.980, -1.633, 30.07, -0.10837, -0.72842, 0.13373, -0.66306,
 15:31:50.428,ed:35:33:d3:6c:f8, 2015-01-01 01:54:08.400, 0.587, -0.138, 0.789, 0.732, -1.038, 0.488, -9.734, -36.387, 168.481, -17.913, -6.607, -30.207, 32.63, -0.12024, -0.29987, 0.11078, -0.93982,
 15:31:50.428,ed:35:33:d3:6c:f8, 2015-01-01 01:54:08.400, 0.59, -0.138, 0.789, 1.465, -0.977, 0.793, -9.717, -36.403, 168.486, -17.913, -6.607, -30.207, 32.63, -0.12024, -0.29987, 0.11078, -0.93982,
 15:31:50.452,ed:40:fe:65:30:6c, 2015-01-01 01:54:20.365, 0.793, -0.101, 0.62, 2.38, 0.244, 0.732, -8.926, -51.85, -112.242, -25.600, -6.867, -0.407, 27.94, -0.46918, 0.40173, 0.1835, 0.76465,
 15:31:50.452,ed:40:fe:65:30:6c, 2015-01-01 01:54:20.365, 0.796, -0.097, 0.618, 2.319, 0.366, 0.61, -8.904, -51.844, -112.225, -25.600, -6.867, -0.407, 27.94, -0.46918, 0.40173, 0.1835, 0.76465,
 15:31:50.456,e3:ca:2d:fd:e0:8c, 2015-01-01 01:54:09.760, 1.023, -0.021, -0.089, 2.502, 1.099, -0.244, -168.695, -84.364, -30.756, -27.173, -10.980, -1.633, 30.07, -0.10837, -0.72842, 0.13373, -0.66306,
 15:31:50.456,e3:ca:2d:fd:e0:8c, 2015-01-01 01:54:09.760, 1.022, -0.018, -0.085, 2.319, 1.282, -0.549, -168.673, -84.386, -30.734, -27.173, -10.980, -1.633, 30.07, -0.10837, -0.72842, 0.13373, -0.66306,
 15:31:50.456,e3:ca:2d:fd:e0:8c, 2015-01-01 01:54:09.760, 1.024, -0.017, -0.093, 2.075, 1.404, -0.793, -168.706, -84.419, -30.679, -27.173, -10.980, -1.633, 30.07, -0.10837, -0.72842, 0.13373, -0.66306,
 15:31:50.456,e3:ca:2d:fd:e0:8c, 2015-01-01 01:54:09.760, 1.025, -0.02, -0.091, 1.831, 1.587, -0.488, -168.734, -84.452, -30.624, -27.173, -10.980, -1.633, 30.07, -0.10837, -0.72842, 0.13373, -0.66306,
 15:31:50.458,ed:35:33:d3:6c:f8, 2015-01-01 01:54:08.400, 0.59, -0.141, 0.791, 1.709, -0.488, 0.793, -9.695, -36.409, 168.492, -17.627, -6.540, -30.000, 32.63, -0.12024, -0.29987, 0.11078, -0.93982,
 15:31:50.458,ed:35:33:d3:6c:f8, 2015-01-01 01:54:08.400, 0.594, -0.138, 0.794, 1.587, -0.122, 0.732, -9.679, -36.403, 168.503, -17.627, -6.540, -30.000, 32.63, -0.12024, -0.29987, 0.11078, -0.93982,
 15:31:50.463,f6:90:cc:01:6d:25, 2015-01-01 01:54:07.000, 0.967, -0.003, 0.226, 2.502, 0.793, 0, 0.291, -77.36, -155.253, -30.220, -11.053, -1.127, 32.55, 0.16547, -0.61127, -0.13351, -0.76227,
 15:31:50.463,f6:90:cc:01:6d:25, 2015-01-01 01:54:07.000, 0.968, 0, 0.224, 2.563, 1.221, -0.122, 0.335, -77.338, -155.204, -30.220, -11.053, -1.127, 32.55, 0.16547, -0.61127, -0.13351, -0.76227,
 15:31:50.489,ed:35:33:d3:6c:f8, 2015-01-01 01:54:08.400, 0.596, -0.135, 0.794, 1.77, -0.183, 0.793, -9.657, -36.403, 168.519, -17.627, -6.540, -30.000, 32.63, -0.12024, -0.29987, 0.11078, -0.93982,
 15:31:50.489,ed:35:33:d3:6c:f8, 2015-01-01 01:54:08.400, 0.594, -0.135, 0.792, 1.343, -0.427, 0.916, -9.646, -36.409, 168.547, -17.627, -6.540, -30.000, 32.63, -0.12024, -0.29987, 0.11078, -0.93982,
 15:31:50.492,f6:90:cc:01:6d:25, 2015-01-01 01:54:07.000, 0.971, 0.001, 0.221, 2.075, 1.282, -0.061, 0.379, -77.311, -155.171, -30.220, -11.053, -1.127, 32.55, 0.16547, -0.61127, -0.13351, -0.76227,
 15:31:50.492,f6:90:cc:01:6d:25, 2015-01-01 01:54:07.000, 0.97, 0.001, 0.22, 1.587, 1.587, 0, 0.406, -77.278, -155.154, -30.220, -11.053, -1.127, 32.55, 0.16547, -0.61127, -0.13351, -0.76227,
 15:31:50.512,ed:40:fe:65:30:6c, 2015-01-01 01:54:20.365, 0.796, -0.098, 0.617, 2.075, 0.244, 0.488, -8.877, -51.833, -112.209, -25.600, -6.867, -0.407, 27.94, -0.46918, 0.40173, 0.1835, 0.76465,
 15:31:50.512,ed:40:fe:65:30:6c, 2015-01-01 01:54:20.365, 0.793, -0.097, 0.616, 1.77, 0.427, 0.549, -8.849, -51.823, -112.192, -25.600, -6.867, -0.407, 27.94, -0.46918, 0.40173, 0.1835, 0.76465,
 15:31:50.516,e3:ca:2d:fd:e0:8c, 2015-01-01 01:54:09.760, 1.023, -0.019, -0.088, 1.465, 2.136, -0.183, -168.69, -84.49, -30.641, -27.173, -10.980, -1.633, 30.07, -0.10837, -0.72842, 0.13373, -0.66306,
 15:31:50.516,e3:ca:2d:fd:e0:8c, 2015-01-01 01:54:09.760, 1.021, -0.019, -0.09, 1.587, 2.869, -0.244, -168.596, -84.545, -30.707, -27.173, -10.980, -1.633, 30.07, -0.10837, -0.72842, 0.13373, -0.66306,
 15:31:50.522,f6:90:cc:01:6d:25, 2015-01-01 01:54:07.000, 0.968, -0.001, 0.221, 1.221, 1.831, 0, 0.423, -77.245, -155.165, -30.220, -11.053, -1.127, 32.55, 0.17004, -0.60931, -0.13693, -0.76221,
 15:31:50.522,f6:90:cc:01:6d:25, 2015-01-01 01:54:07.000, 0.963, 0.001, 0.225, 1.16, 1.892, 0, 0.434, -77.206, -155.187, -30.220, -11.053, -1.127, 32.55, 0.17004, -0.60931, -0.13693, -0.76221,
 15:31:50.543,ed:40:fe:65:30:6c, 2015-01-01 01:54:20.365, 0.79, -0.095, 0.614, 1.831, 0.671, 0.671, -8.833, -51.812, -112.165, -25.247, -6.760, 0.113, 27.94, -0.46918, 0.40173, 0.1835, 0.76465,
 15:31:50.543,ed:40:fe:65:30:6c, 2015-01-01 01:54:20.365, 0.787, -0.094, 0.614, 1.465, 1.038, 0.61, -8.817, -51.795, -112.137, -25.247, -6.760, 0.113, 27.94, -0.46918, 0.40173, 0.1835, 0.76465,
 15:31:50.547,e3:ca:2d:fd:e0:8c, 2015-01-01 01:54:09.760, 1.017, -0.018, -0.088, 1.648, 2.686, -0.366, -168.508, -84.6, -30.773, -27.173, -10.980, -1.633, 30.07, -0.10837, -0.72842, 0.13373, -0.66306,
 15:31:50.547,e3:ca:2d:fd:e0:8c, 2015-01-01 01:54:09.760, 1.013, -0.017, -0.093, 1.343, 2.197, -0.427, -168.453, -84.65, -30.784, -27.173, -10.980, -1.633, 30.07, -0.10837, -0.72842, 0.13373, -0.66306,
 15:31:50.549,ed:35:33:d3:6c:f8, 2015-01-01 01:54:08.400, 0.593, -0.132, 0.789, 1.282, -0.061, 0.916, -9.635, -36.409, 168.569, -17.627, -6.540, -30.000, 32.63, -0.12054, -0.30179, 0.11053, -0.93918,
 15:31:50.549,ed:35:33:d3:6c:f8, 2015-01-01 01:54:08.400, 0.59, -0.133, 0.786, 1.099, 0.488, 0.916, -9.63, -36.398, 168.585, -17.627, -6.540, -30.000, 32.63, -0.12054, -0.30179, 0.11053, -0.93918,
 15:31:50.573,ed:40:fe:65:30:6c, 2015-01-01 01:54:20.365, 0.786, -0.093, 0.614, 0.793, 1.282, 0.427, -8.806, -51.768, -112.115, -25.247, -6.760, 0.113, 27.94, -0.46918, 0.40173, 0.1835, 0.76465,
 15:31:50.573,ed:40:fe:65:30:6c, 2015-01-01 01:54:20.365, 0.783, -0.092, 0.614, 0.122, 1.221, 0.183, -8.8, -51.746, -112.11, -25.247, -6.760, 0.113, 27.94, -0.46918, 0.40173, 0.1835, 0.76465,
 15:31:50.581,f6:90:cc:01:6d:25, 2015-01-01 01:54:07.000, 0.959, 0.002, 0.226, 1.038, 1.953, 0, 0.45, -77.168, -155.193, -30.220, -11.053, -1.127, 32.55, 0.17004, -0.60931, -0.13693, -0.76221,
 15:31:50.581,f6:90:cc:01:6d:25, 2015-01-01 01:54:07.000, 0.957, 0.003, 0.222, 0.671, 1.831, 0, 0.461, -77.13, -155.204, -30.220, -11.053, -1.127, 32.55, 0.17004, -0.60931, -0.13693, -0.76221,
 15:31:50.581,ed:35:33:d3:6c:f8, 2015-01-01 01:54:08.760, 0.588, -0.133, 0.785, 0.793, 0.854, 0.549, -9.619, -36.376, 168.585, -17.627, -6.540, -30.000, 32.63, -0.12054, -0.30179, 0.11053, -0.93918,
 15:31:50.581,ed:35:33:d3:6c:f8, 2015-01-01 01:54:08.760, 0.585, -0.132, 0.787, 0.427, 0.793, 0.366, -9.613, -36.365, 168.596, -17.627, -6.540, -30.000, 32.63, -0.12054, -0.30179, 0.11053, -0.93918,
 15:31:50.607,e3:ca:2d:fd:e0:8c, 2015-01-01 01:54:09.760, 1.009, -0.019, -0.095, 1.038, 1.831, -0.183, -168.409, -84.694, -30.806, -27.173, -10.980, -1.633, 30.07, -0.10837, -0.72842, 0.13373, -0.66306,
 15:31:50.607,e3:ca:2d:fd:e0:8c, 2015-01-01 01:54:09.760, 1.007, -0.019, -0.097, 0.916, 1.587, 0.122, -168.327, -84.727, -30.883, -27.173, -10.980, -1.633, 30.07, -0.10837, -0.72842, 0.13373, -0.66306,
 15:31:50.612,f6:90:cc:01:6d:25, 2015-01-01 01:54:07.415, 0.955, 0.004, 0.217, 0.122, 1.709, 0.183, 0.45, -77.091, -155.193, -30.220, -11.053, -1.127, 32.55, 0.17004, -0.60931, -0.13693, -0.76221,
 15:31:50.612,f6:90:cc:01:6d:25, 2015-01-01 01:54:07.415, 0.953, 0.001, 0.214, -0.305, 1.465, 0.366, 0.417, -77.064, -155.176, -30.220, -11.053, -1.127, 32.55, 0.17004, -0.60931, -0.13693, -0.76221,
 15:31:50.633,ed:40:fe:65:30:6c, 2015-01-01 01:54:20.365, 0.781, -0.093, 0.613, -0.244, 1.099, 0.122, -8.8, -51.718, -112.104, -25.247, -6.760, 0.113, 27.94, -0.47314, 0.39944, 0.18564, 0.76291,
 15:31:50.633,ed:40:fe:65:30:6c, 2015-01-01 01:54:20.365, 0.784, -0.098, 0.612, -0.366, 0.732, 0.122, -8.806, -51.702, -112.099, -25.247, -6.760, 0.113, 27.94, -0.47314, 0.39944, 0.18564, 0.76291,
 15:31:50.637,e3:ca:2d:fd:e0:8c, 2015-01-01 01:54:09.760, 1.008, -0.019, -0.096, 0.61, 1.465, 0.305, -168.201, -84.754, -31.003, -27.173, -10.980, -1.633, 30.07, -0.10837, -0.72842, 0.13373, -0.66306,
 15:31:50.637,e3:ca:2d:fd:e0:8c, 2015-01-01 01:54:09.760, 1.014, -0.017, -0.095, 0.427, 1.16, 0.244, -168.08, -84.776, -31.119, -27.173, -10.980, -1.633, 30.07, -0.10837, -0.72842, 0.13373, -0.66306,
 15:31:50.639,ed:35:33:d3:6c:f8, 2015-01-01 01:54:08.760, 0.584, -0.13, 0.787, 0, 0.732, 0.122, -9.613, -36.348, 168.596, -17.627, -6.540, -30.000, 32.63, -0.12054, -0.30179, 0.11053, -0.93918,
 15:31:50.639,ed:35:33:d3:6c:f8, 2015-01-01 01:54:08.760, 0.583, -0.134, 0.786, -0.671, 0.61, 0, -9.624, -36.337, 168.596, -17.627, -6.540, -30.000, 32.63, -0.12054, -0.30179, 0.11053, -0.93918,
 15:31:50.643,f6:90:cc:01:6d:25, 2015-01-01 01:54:07.415, 0.958, 0, 0.218, -0.488, 1.038, 0.427, 0.368, -77.042, -155.127, -30.220, -11.053, -1.127, 32.55, 0.17004, -0.60931, -0.13693, -0.76221,
 15:31:50.643,f6:90:cc:01:6d:25, 2015-01-01 01:54:07.415, 0.96, 0, 0.22, -0.366, 0.854, 0.244, 0.335, -77.025, -155.105, -30.220, -11.053, -1.127, 32.55, 0.17004, -0.60931, -0.13693, -0.76221,
 15:31:50.662,ed:40:fe:65:30:6c, 2015-01-01 01:54:20.725, 0.787, -0.101, 0.611, -0.244, 0.61, 0.183, -8.817, -51.691, -112.099, -25.247, -6.760, 0.113, 27.94, -0.47314, 0.39944, 0.18564, 0.76291,
 15:31:50.662,ed:40:fe:65:30:6c, 2015-01-01 01:54:20.725, 0.787, -0.101, 0.614, -0.061, 0.732, 0.183, -8.822, -51.674, -112.099, -25.247, -6.760, 0.113, 27.94, -0.47314, 0.39944, 0.18564, 0.76291,
 15:31:50.666,e3:ca:2d:fd:e0:8c, 2015-01-01 01:54:09.760, 1.015, -0.017, -0.097, 0.488, 0.488, 0.122, -168.003, -84.787, -31.196, -26.967, -10.793, -1.527, 30.07, -0.10837, -0.72842, 0.13373, -0.66306,
 15:31:50.666,e3:ca:2d:fd:e0:8c, 2015-01-01 01:54:09.760, 1.013, -0.019, -0.098, 0.244, 0.244, 0, -167.981, -84.792, -31.201, -26.967, -10.793, -1.527, 30.07, -0.10837, -0.72842, 0.13373, -0.66306,
 15:31:50.669,ed:35:33:d3:6c:f8, 2015-01-01 01:54:08.760, 0.589, -0.135, 0.784, -0.549, 0.366, -0.061, -9.635, -36.332, 168.596, -17.627, -6.540, -30.000, 32.63, -0.12054, -0.30179, 0.11053, -0.93918,
 15:31:50.669,ed:35:33:d3:6c:f8, 2015-01-01 01:54:08.760, 0.589, -0.136, 0.784, 0, 0.488, 0.122, -9.635, -36.321, 168.585, -17.627, -6.540, -30.000, 32.63, -0.12054, -0.30179, 0.11053, -0.93918,
 15:31:50.692,ed:40:fe:65:30:6c, 2015-01-01 01:54:20.725, 0.787, -0.101, 0.614, 0, 0.854, 0, -8.822, -51.658, -112.099, -25.247, -6.760, 0.113, 27.94, -0.47314, 0.39944, 0.18564, 0.76291,
 15:31:50.692,ed:40:fe:65:30:6c, 2015-01-01 01:54:20.725, 0.791, -0.104, 0.613, 0, 0.61, -0.122, -8.822, -51.647, -112.104, -25.247, -6.760, 0.113, 27.94, -0.47314, 0.39944, 0.18564, 0.76291,
 15:31:50.698,ed:35:33:d3:6c:f8, 2015-01-01 01:54:08.760, 0.588, -0.141, 0.787, 0.305, 0.854, 0, -9.63, -36.304, 168.563, -17.627, -6.540, -30.000, 32.63, -0.12054, -0.30179, 0.11053, -0.93918,
 15:31:50.698,ed:35:33:d3:6c:f8, 2015-01-01 01:54:08.760, 0.591, -0.142, 0.789, -0.061, 0.732, -0.305, -9.63, -36.293, 168.541, -17.627, -6.540, -30.000, 32.63, -0.12054, -0.30179, 0.11053, -0.93918,
 15:31:50.727,e3:ca:2d:fd:e0:8c, 2015-01-01 01:54:09.760, 1.015, -0.018, -0.101, 0.122, 0.366, 0, -167.975, -84.798, -31.179, -26.967, -10.793, -1.527, 30.07, -0.10837, -0.72842, 0.13373, -0.66306,
 15:31:50.727,e3:ca:2d:fd:e0:8c, 2015-01-01 01:54:09.760, 1.021, -0.016, -0.095, 0.244, 0.732, -0.244, -167.992, -84.803, -31.119, -26.967, -10.793, -1.527, 30.07, -0.10837, -0.72842, 0.13373, -0.66306,
 15:31:50.733,f6:90:cc:01:6d:25, 2015-01-01 01:54:07.415, 0.959, -0.002, 0.218, -0.305, 0.793, 0.122, 0.313, -77.009, -155.078, -30.220, -11.053, -1.127, 32.55, 0.17004, -0.60931, -0.13693, -0.76221,
 15:31:50.733,f6:90:cc:01:6d:25, 2015-01-01 01:54:07.415, 0.959, -0.003, 0.217, -0.183, 0.427, 0, 0.302, -77.003, -155.078, -30.220, -11.053, -1.127, 32.55, 0.17004, -0.60931, -0.13693, -0.76221,
 15:31:50.733,f6:90:cc:01:6d:25, 2015-01-01 01:54:07.415, 0.964, -0.003, 0.211, -0.122, 0.061, -0.061, 0.302, -77.003, -155.072, -30.220, -11.053, -1.127, 32.55, 0.17004, -0.60931, -0.13693, -0.76221,
 15:31:50.733,f6:90:cc:01:6d:25, 2015-01-01 01:54:07.415, 0.971, -0.003, 0.217, 0.183, -0.061, -0.427, 0.335, -77.009, -155.105, -30.220, -11.053, -1.127, 32.55, 0.17004, -0.60931, -0.13693, -0.76221,
 15:31:50.753,ed:40:fe:65:30:6c, 2015-01-01 01:54:20.725, 0.796, -0.104, 0.614, 0.305, 0.366, -0.183, -8.817, -51.636, -112.11, -25.247, -6.760, 0.113, 27.94, -0.47314, 0.39944, 0.18564, 0.76291,
 15:31:50.753,ed:40:fe:65:30:6c, 2015-01-01 01:54:20.725, 0.796, -0.104, 0.617, 0.61, 0.244, -0.122, -8.811, -51.636, -112.126, -25.247, -6.760, 0.113, 27.94, -0.47314, 0.39944, 0.18564, 0.76291,
 15:31:50.757,e3:ca:2d:fd:e0:8c, 2015-01-01 01:54:09.760, 1.025, -0.016, -0.092, 0.244, 0.549, -0.61, -168.063, -84.814, -31.036, -26.967, -10.793, -1.527, 30.07, -0.10556, -0.72635, 0.12912, -0.66672,
 15:31:50.757,e3:ca:2d:fd:e0:8c, 2015-01-01 01:54:09.760, 1.021, -0.015, -0.092, 0.122, 0.488, -0.671, -168.195, -84.825, -30.899, -26.967, -10.793, -1.527, 30.07, -0.10556, -0.72635, 0.12912, -0.66672,
 15:31:50.759,ed:35:33:d3:6c:f8, 2015-01-01 01:54:08.760, 0.596, -0.141, 0.789, -0.488, 0.488, -0.427, -9.635, -36.288, 168.525, -17.627, -6.540, -30.000, 32.63, -0.12054, -0.30179, 0.11053, -0.93918,
 15:31:50.759,ed:35:33:d3:6c:f8, 2015-01-01 01:54:08.760, 0.597, -0.141, 0.792, -0.061, 0.305, -0.366, -9.63, -36.282, 168.497, -17.627, -6.540, -30.000, 32.63, -0.12054, -0.30179, 0.11053, -0.93918,
 15:31:50.763,f6:90:cc:01:6d:25, 2015-01-01 01:54:07.415, 0.97, 0, 0.22, 0.549, 0.122, -0.732, 0.401, -77.009, -155.16, -30.220, -11.053, -1.127, 32.55, 0.17004, -0.60931, -0.13693, -0.76221,
 15:31:50.763,f6:90:cc:01:6d:25, 2015-01-01 01:54:07.415, 0.965, 0.002, 0.217, 0.488, 0.549, -0.854, 0.478, -76.998, -155.209, -30.220, -11.053, -1.127, 32.55, 0.17004, -0.60931, -0.13693, -0.76221,
 15:31:50.782,ed:40:fe:65:30:6c, 2015-01-01 01:54:20.725, 0.794, -0.097, 0.616, 1.16, 0.305, -0.061, -8.795, -51.63, -112.137, -25.247, -6.760, 0.113, 27.94, -0.47314, 0.39944, 0.18564, 0.76291,
 15:31:50.782,ed:40:fe:65:30:6c, 2015-01-01 01:54:20.725, 0.791, -0.093, 0.615, 1.16, 0.244, -0.305, -8.773, -51.625, -112.148, -25.247, -6.760, 0.113, 27.94, -0.47314, 0.39944, 0.18564, 0.76291,
 15:31:50.786,e3:ca:2d:fd:e0:8c, 2015-01-01 01:54:09.760, 1.017, -0.016, -0.097, -0.183, 0.793, -0.488, -168.311, -84.836, -30.778, -26.967, -10.793, -1.527, 30.07, -0.10556, -0.72635, 0.12912, -0.66672,
 15:31:50.786,e3:ca:2d:fd:e0:8c, 2015-01-01 01:54:09.760, 1.017, -0.017, -0.095, -0.305, 0.977, -0.366, -168.387, -84.847, -30.69, -26.967, -10.793, -1.527, 30.07, -0.10556, -0.72635, 0.12912, -0.66672,
 15:31:50.788,ed:35:33:d3:6c:f8, 2015-01-01 01:54:08.760, 0.597, -0.134, 0.792, 0.61, 0.366, 0.244, -9.624, -36.277, 168.475, -17.593, -6.673, -30.587, 32.63, -0.12054, -0.30179, 0.11053, -0.93918,
 15:31:50.788,ed:35:33:d3:6c:f8, 2015-01-01 01:54:08.760, 0.594, -0.136, 0.791, 0.793, 0.854, 0.244, -9.613, -36.26, 168.442, -17.593, -6.673, -30.587, 32.63, -0.12054, -0.30179, 0.11053, -0.93918,
 15:31:50.812,ed:40:fe:65:30:6c, 2015-01-01 01:54:20.725, 0.791, -0.096, 0.612, 0.732, 0.061, -0.61, -8.745, -51.625, -112.159, -25.247, -6.760, 0.113, 27.94, -0.47314, 0.39944, 0.18564, 0.76291,
 15:31:50.812,ed:40:fe:65:30:6c, 2015-01-01 01:54:20.725, 0.79, -0.098, 0.611, 0.793, 0.061, -0.427, -8.723, -51.63, -112.17, -25.247, -6.760, 0.113, 27.94, -0.47314, 0.39944, 0.18564, 0.76291,
 15:31:50.819,ed:35:33:d3:6c:f8, 2015-01-01 01:54:08.760, 0.592, -0.136, 0.791, 0.488, 0.549, -0.427, -9.602, -36.255, 168.409, -17.593, -6.673, -30.587, 32.63, -0.12054, -0.30179, 0.11053, -0.93918,
 15:31:50.819,ed:35:33:d3:6c:f8, 2015-01-01 01:54:08.760, 0.592, -0.133, 0.787, 0.854, 0.061, -0.488, -9.58, -36.255, 168.371, -17.593, -6.673, -30.587, 32.63, -0.12054, -0.30179, 0.11053, -0.93918,
 15:31:50.822,f6:90:cc:01:6d:25, 2015-01-01 01:54:07.415, 0.962, 0.003, 0.215, 0.427, 0.366, -0.732, 0.544, -76.998, -155.253, -30.220, -11.053, -1.127, 32.55, 0.17004, -0.60931, -0.13693, -0.76221,
 15:31:50.822,f6:90:cc:01:6d:25, 2015-01-01 01:54:07.415, 0.963, 0.001, 0.218, 0.427, 0.122, -0.61, 0.599, -76.998, -155.286, -30.220, -11.053, -1.127, 32.55, 0.17004, -0.60931, -0.13693, -0.76221,
 15:31:50.846,e3:ca:2d:fd:e0:8c, 2015-01-01 01:54:10.145, 1.017, -0.018, -0.096, 0.061, 0.854, -0.61, -168.475, -84.864, -30.608, -26.967, -10.793, -1.527, 30.07, -0.10556, -0.72635, 0.12912, -0.66672,
 15:31:50.846,e3:ca:2d:fd:e0:8c, 2015-01-01 01:54:10.145, 1.017, -0.018, -0.089, 0.366, 0.854, -0.732, -168.596, -84.88, -30.476, -26.967, -10.793, -1.527, 30.07, -0.10556, -0.72635, 0.12912, -0.66672,
 15:31:50.852,f6:90:cc:01:6d:25, 2015-01-01 01:54:07.415, 0.962, 0, 0.216, 0.366, 0.061, -0.671, 0.659, -76.998, -155.341, -30.173, -11.487, -0.860, 32.55, 0.17004, -0.60931, -0.13693, -0.76221,
 15:31:50.852,f6:90:cc:01:6d:25, 2015-01-01 01:54:07.415, 0.96, 0.002, 0.22, 0.366, 0.366, -0.793, 0.725, -76.992, -155.391, -30.173, -11.487, -0.860, 32.55, 0.17004, -0.60931, -0.13693, -0.76221,
 15:31:50.872,ed:40:fe:65:30:6c, 2015-01-01 01:54:20.725, 0.788, -0.098, 0.61, 0.916, 0.183, -0.305, -8.701, -51.63, -112.176, -25.247, -6.760, 0.113, 27.94, -0.47314, 0.39944, 0.18564, 0.76291,
 15:31:50.872,ed:40:fe:65:30:6c, 2015-01-01 01:54:20.725, 0.789, -0.092, 0.612, 0.854, 0.183, -0.305, -8.679, -51.63, -112.181, -25.247, -6.760, 0.113, 27.94, -0.47314, 0.39944, 0.18564, 0.76291,
 15:31:50.877,e3:ca:2d:fd:e0:8c, 2015-01-01 01:54:10.145, 1.017, -0.016, -0.088, 0.183, 0.916, -0.61, -168.701, -84.897, -30.377, -26.967, -10.793, -1.527, 30.07, -0.10556, -0.72635, 0.12912, -0.66672,
 15:31:50.877,e3:ca:2d:fd:e0:8c, 2015-01-01 01:54:10.145, 1.016, -0.016, -0.089, -0.183, 0.793, -0.488, -168.794, -84.913, -30.295, -26.967, -10.793, -1.527, 30.07, -0.10556, -0.72635, 0.12912, -0.66672,
 15:31:50.879,ed:35:33:d3:6c:f8, 2015-01-01 01:54:08.760, 0.589, -0.133, 0.784, 1.16, 0.183, -0.061, -9.558, -36.255, 168.338, -17.593, -6.673, -30.587, 32.63, -0.1218, -0.30042, 0.11032, -0.93948,
 15:31:50.879,ed:35:33:d3:6c:f8, 2015-01-01 01:54:08.760, 0.591, -0.131, 0.785, 0.793, 0.244, 0, -9.542, -36.255, 168.316, -17.593, -6.673, -30.587, 32.63, -0.1218, -0.30042, 0.11032, -0.93948,
 15:31:50.883,f6:90:cc:01:6d:25, 2015-01-01 01:54:07.415, 0.961, 0.003, 0.223, 0.305, 0.549, -0.732, 0.791, -76.987, -155.44, -30.173, -11.487, -0.860, 32.55, 0.17004, -0.60931, -0.13693, -0.76221,
 15:31:50.883,f6:90:cc:01:6d:25, 2015-01-01 01:54:07.415, 0.96, 0.004, 0.221, 0.244, 0.671, -0.671, 0.846, -76.976, -155.468, -30.173, -11.487, -0.860, 32.55, 0.17004, -0.60931, -0.13693, -0.76221,
 15:31:50.903,ed:40:fe:65:30:6c, 2015-01-01 01:54:20.725, 0.787, -0.09, 0.613, 0.854, 0.427, -0.244, -8.657, -51.63, -112.176, -25.113, -6.700, -0.153, 27.94, -0.47314, 0.39944, 0.18564, 0.76291,
 15:31:50.903,ed:40:fe:65:30:6c, 2015-01-01 01:54:20.725, 0.785, -0.093, 0.615, 0.854, 0.549, -0.305, -8.635, -51.625, -112.17, -25.113, -6.700, -0.153, 27.94, -0.47314, 0.39944, 0.18564, 0.76291,
 15:31:50.933,ed:40:fe:65:30:6c, 2015-01-01 01:54:20.725, 0.786, -0.097, 0.616, 0.793, 0.427, -0.183, -8.613, -51.614, -112.17, -25.113, -6.700, -0.153, 27.94, -0.47314, 0.39944, 0.18564, 0.76291,
 15:31:50.933,ed:40:fe:65:30:6c, 2015-01-01 01:54:20.725, 0.789, -0.094, 0.618, 0.854, 0.549, 0.061, -8.597, -51.608, -112.17, -25.113, -6.700, -0.153, 27.94, -0.47314, 0.39944, 0.18564, 0.76291,
 15:31:50.937,e3:ca:2d:fd:e0:8c, 2015-01-01 01:54:10.145, 1.015, -0.017, -0.09, -0.244, 0.793, -0.305, -168.854, -84.93, -30.229, -26.967, -10.793, -1.527, 30.07, -0.10556, -0.72635, 0.12912, -0.66672,
 15:31:50.937,e3:ca:2d:fd:e0:8c, 2015-01-01 01:54:10.145, 1.018, -0.019, -0.087, 0, 0.793, -0.305, -168.893, -84.941, -30.196, -26.967, -10.793, -1.527, 30.07, -0.10556, -0.72635, 0.12912, -0.66672,
 15:31:50.939,ed:35:33:d3:6c:f8, 2015-01-01 01:54:09.085, 0.589, -0.128, 0.786, 0.732, 0.366, -0.061, -9.531, -36.249, 168.316, -17.593, -6.673, -30.587, 32.63, -0.1218, -0.30042, 0.11032, -0.93948,
 15:31:50.939,ed:35:33:d3:6c:f8, 2015-01-01 01:54:09.085, 0.586, -0.13, 0.787, 0.854, 0.671, -0.122, -9.509, -36.244, 168.333, -17.593, -6.673, -30.587, 32.63, -0.1218, -0.30042, 0.11032, -0.93948,
 15:31:50.939,ed:35:33:d3:6c:f8, 2015-01-01 01:54:09.085, 0.584, -0.131, 0.791, 0.916, 0.732, -0.061, -9.487, -36.233, 168.36, -17.593, -6.673, -30.587, 32.63, -0.1218, -0.30042, 0.11032, -0.93948,
 15:31:50.939,ed:35:33:d3:6c:f8, 2015-01-01 01:54:09.085, 0.589, -0.129, 0.791, 0.916, 0.305, 0.183, -9.47, -36.227, 168.393, -17.593, -6.673, -30.587, 32.63, -0.1218, -0.30042, 0.11032, -0.93948,
 15:31:50.942,f6:90:cc:01:6d:25, 2015-01-01 01:54:07.415, 0.96, 0.002, 0.221, 0.061, 0.61, -0.427, 0.879, -76.965, -155.473, -30.173, -11.487, -0.860, 32.55, 0.17081, -0.60684, -0.13791, -0.76382,
 15:31:50.942,f6:90:cc:01:6d:25, 2015-01-01 01:54:07.415, 0.961, 0, 0.223, 0.061, 0.61, -0.366, 0.906, -76.954, -155.473, -30.173, -11.487, -0.860, 32.55, 0.17081, -0.60684, -0.13791, -0.76382,
 15:31:50.965,e3:ca:2d:fd:e0:8c, 2015-01-01 01:54:10.145, 1.02, -0.018, -0.085, 0.305, 0.854, -0.305, -168.926, -84.957, -30.174, -26.967, -10.793, -1.527, 30.07, -0.10556, -0.72635, 0.12912, -0.66672,
 15:31:50.965,e3:ca:2d:fd:e0:8c, 2015-01-01 01:54:10.145, 1.021, -0.017, -0.083, 0.244, 0.793, -0.244, -168.942, -84.974, -30.168, -26.967, -10.793, -1.527, 30.07, -0.10556, -0.72635, 0.12912, -0.66672,
 15:31:50.973,f6:90:cc:01:6d:25, 2015-01-01 01:54:07.415, 0.963, 0, 0.227, 0.305, 0.671, -0.427, 0.939, -76.943, -155.479, -30.173, -11.487, -0.860, 32.55, 0.17081, -0.60684, -0.13791, -0.76382,
 15:31:50.973,f6:90:cc:01:6d:25, 2015-01-01 01:54:07.415, 0.963, 0.003, 0.227, 0.671, 0.793, -0.366, 0.978, -76.926, -155.468, -30.173, -11.487, -0.860, 32.55, 0.17081, -0.60684, -0.13791, -0.76382,
 15:31:50.997,e3:ca:2d:fd:e0:8c, 2015-01-01 01:54:10.145, 1.019, -0.015, -0.083, 0.122, 0.793, -0.183, -168.953, -84.99, -30.168, -26.967, -10.793, -1.527, 30.07, -0.10556, -0.72635, 0.12912, -0.66672,
 15:31:50.997,e3:ca:2d:fd:e0:8c, 2015-01-01 01:54:10.145, 1.017, -0.016, -0.085, 0.244, 0.854, -0.122, -168.942, -85.007, -30.207, -26.967, -10.793, -1.527, 30.07, -0.10556, -0.72635, 0.12912, -0.66672,
 15:31:50.999,ed:35:33:d3:6c:f8, 2015-01-01 01:54:09.085, 0.589, -0.128, 0.79, 0.977, 0.366, 0.366, -9.459, -36.222, 168.437, -17.593, -6.673, -30.587, 32.63, -0.1218, -0.30042, 0.11032, -0.93948,
 15:31:50.999,ed:35:33:d3:6c:f8, 2015-01-01 01:54:09.085, 0.586, -0.128, 0.79, 1.038, 0.671, 0.305, -9.437, -36.211, 168.459, -17.593, -6.673, -30.587, 32.63, -0.1218, -0.30042, 0.11032, -0.93948,
 15:31:51.002,f6:90:cc:01:6d:25, 2015-01-01 01:54:07.835, 0.96, 0.004, 0.226, 0.793, 0.977, -0.305, 1.011, -76.91, -155.462, -30.173, -11.487, -0.860, 32.55, 0.17081, -0.60684, -0.13791, -0.76382,
 15:31:51.002,f6:90:cc:01:6d:25, 2015-01-01 01:54:07.835, 0.96, 0.005, 0.225, 0.732, 1.038, -0.244, 1.044, -76.888, -155.451, -30.173, -11.487, -0.860, 32.55, 0.17081, -0.60684, -0.13791, -0.76382,
 15:31:51.022,ed:40:fe:65:30:6c, 2015-01-01 01:54:20.725, 0.788, -0.091, 0.618, 1.099, 0.732, 0.122, -8.575, -51.597, -112.159, -25.113, -6.700, -0.153, 27.94, -0.47379, 0.39789, 0.18616, 0.76318,
 15:31:51.022,ed:40:fe:65:30:6c, 2015-01-01 01:54:20.725, 0.786, -0.09, 0.619, 1.099, 0.854, 0.183, -8.558, -51.581, -112.159, -25.113, -6.700, -0.153, 27.94, -0.47379, 0.39789, 0.18616, 0.76318,
 15:31:51.022,ed:40:fe:65:30:6c, 2015-01-01 01:54:20.725, 0.787, -0.089, 0.618, 0.977, 0.916, 0.305, -8.542, -51.564, -112.154, -25.113, -6.700, -0.153, 27.94, -0.47379, 0.39789, 0.18616, 0.76318,
 15:31:51.022,ed:40:fe:65:30:6c, 2015-01-01 01:54:20.725, 0.784, -0.09, 0.62, 0.916, 0.854, 0.305, -8.531, -51.548, -112.154, -25.113, -6.700, -0.153, 27.94, -0.47379, 0.39789, 0.18616, 0.76318,
 15:31:51.026,e3:ca:2d:fd:e0:8c, 2015-01-01 01:54:10.145, 1.018, -0.016, -0.086, 0.183, 0.854, -0.061, -168.926, -85.023, -30.251, -26.933, -10.927, -2.227, 30.07, -0.10556, -0.72635, 0.12912, -0.66672,
 15:31:51.026,e3:ca:2d:fd:e0:8c, 2015-01-01 01:54:10.145, 1.016, -0.013, -0.084, 0.061, 0.793, 0, -168.893, -85.04, -30.278, -26.933, -10.927, -2.227, 30.07, -0.10556, -0.72635, 0.12912, -0.66672,
 15:31:51.029,ed:35:33:d3:6c:f8, 2015-01-01 01:54:09.085, 0.586, -0.125, 0.792, 1.16, 1.038, 0.61, -9.421, -36.189, 168.475, -17.593, -6.673, -30.587, 32.63, -0.1218, -0.30042, 0.11032, -0.93948,
 15:31:51.029,ed:35:33:d3:6c:f8, 2015-01-01 01:54:09.085, 0.584, -0.128, 0.792, 1.343, 1.099, 0.671, -9.399, -36.167, 168.492, -17.593, -6.673, -30.587, 32.63, -0.1218, -0.30042, 0.11032, -0.93948,
 15:31:51.052,ed:40:fe:65:30:6c, 2015-01-01 01:54:21.080, 0.781, -0.091, 0.624, 0.61, 0.671, 0.244, -8.52, -51.531, -112.154, -25.113, -6.700, -0.153, 27.94, -0.47379, 0.39789, 0.18616, 0.76318,
 15:31:51.052,ed:40:fe:65:30:6c, 2015-01-01 01:54:21.080, 0.782, -0.087, 0.623, 0.549, 0.488, 0.183, -8.509, -51.52, -112.154, -25.113, -6.700, -0.153, 27.94, -0.47379, 0.39789, 0.18616, 0.76318,
 15:31:51.058,ed:35:33:d3:6c:f8, 2015-01-01 01:54:09.085, 0.581, -0.13, 0.799, 0.977, 0.61, 0.488, -9.388, -36.156, 168.514, -17.593, -6.673, -30.587, 32.63, -0.1218, -0.30042, 0.11032, -0.93948,
 15:31:51.058,ed:35:33:d3:6c:f8, 2015-01-01 01:54:09.085, 0.581, -0.126, 0.798, 0.427, 0.427, 0.427, -9.382, -36.145, 168.552, -17.593, -6.673, -30.587, 32.63, -0.1218, -0.30042, 0.11032, -0.93948,
 15:31:51.062,f6:90:cc:01:6d:25, 2015-01-01 01:54:07.835, 0.958, 0.006, 0.225, 0.427, 0.916, -0.122, 1.055, -76.871, -155.457, -30.173, -11.487, -0.860, 32.55, 0.17081, -0.60684, -0.13791, -0.76382,
 15:31:51.062,f6:90:cc:01:6d:25, 2015-01-01 01:54:07.835, 0.957, 0.006, 0.226, 0.122, 0.549, -0.122, 1.066, -76.855, -155.462, -30.173, -11.487, -0.860, 32.55, 0.17081, -0.60684, -0.13791, -0.76382,
 15:31:51.086,e3:ca:2d:fd:e0:8c, 2015-01-01 01:54:10.145, 1.014, -0.012, -0.086, 0, 0.671, 0, -168.876, -85.056, -30.3, -26.933, -10.927, -2.227, 30.07, -0.10556, -0.72635, 0.12912, -0.66672,
 15:31:51.086,e3:ca:2d:fd:e0:8c, 2015-01-01 01:54:10.145, 1.015, -0.011, -0.085, -0.061, 0.549, -0.061, -168.876, -85.067, -30.295, -26.933, -10.927, -2.227, 30.07, -0.10556, -0.72635, 0.12912, -0.66672,
 15:31:51.092,f6:90:cc:01:6d:25, 2015-01-01 01:54:07.835, 0.959, 0.008, 0.227, 0.122, 0.244, -0.122, 1.082, -76.844, -155.451, -30.173, -11.487, -0.860, 32.55, 0.17081, -0.60684, -0.13791, -0.76382,
 15:31:51.092,f6:90:cc:01:6d:25, 2015-01-01 01:54:07.835, 0.961, 0.007, 0.227, 0, 0, -0.122, 1.093, -76.838, -155.457, -30.173, -11.487, -0.860, 32.55, 0.17081, -0.60684, -0.13791, -0.76382,
 15:31:51.119,ed:35:33:d3:6c:f8, 2015-01-01 01:54:09.085, 0.583, -0.126, 0.796, 0.061, 0.366, 0.122, -9.377, -36.134, 168.574, -17.593, -6.673, -30.587, 32.63, -0.1218, -0.30042, 0.11032, -0.93948,
 15:31:51.119,ed:35:33:d3:6c:f8, 2015-01-01 01:54:09.085, 0.584, -0.128, 0.797, -0.183, 0.305, 0, -9.382, -36.129, 168.596, -17.593, -6.673, -30.587, 32.63, -0.1218, -0.30042, 0.11032, -0.93948,
 15:31:51.121,f6:90:cc:01:6d:25, 2015-01-01 01:54:07.835, 0.961, 0.005, 0.226, -0.366, -0.183, -0.183, 1.104, -76.838, -155.451, -30.173, -11.487, -0.860, 32.55, 0.17081, -0.60684, -0.13791, -0.76382,
 15:31:51.121,f6:90:cc:01:6d:25, 2015-01-01 01:54:07.835, 0.959, 0.003, 0.225, -0.61, -0.305, -0.122, 1.115, -76.844, -155.451, -30.173, -11.487, -0.860, 32.55, 0.17081, -0.60684, -0.13791, -0.76382,
 15:31:51.142,ed:40:fe:65:30:6c, 2015-01-01 01:54:21.080, 0.784, -0.087, 0.623, 0.305, 0.305, 0.122, -8.503, -51.509, -112.148, -25.113, -6.700, -0.153, 27.94, -0.47379, 0.39789, 0.18616, 0.76318,
 15:31:51.142,ed:40:fe:65:30:6c, 2015-01-01 01:54:21.080, 0.785, -0.091, 0.623, 0, 0, 0.061, -8.498, -51.509, -112.132, -25.113, -6.700, -0.153, 27.94, -0.47379, 0.39789, 0.18616, 0.76318,
 15:31:51.142,ed:40:fe:65:30:6c, 2015-01-01 01:54:21.080, 0.785, -0.092, 0.624, -0.061, -0.122, 0, -8.498, -51.509, -112.11, -25.113, -6.700, -0.153, 27.94, -0.47379, 0.39789, 0.18616, 0.76318,
 15:31:51.142,ed:40:fe:65:30:6c, 2015-01-01 01:54:21.080, 0.784, -0.09, 0.622, -0.183, -0.061, 0.122, -8.503, -51.509, -112.094, -25.113, -6.700, -0.153, 27.94, -0.47379, 0.39789, 0.18616, 0.76318,
 15:31:51.148,e3:ca:2d:fd:e0:8c, 2015-01-01 01:54:10.145, 1.018, -0.013, -0.086, -0.427, 0.122, -0.061, -168.904, -85.073, -30.24, -26.933, -10.927, -2.227, 30.07, -0.1069, -0.72501, 0.12842, -0.66806,
 15:31:51.148,e3:ca:2d:fd:e0:8c, 2015-01-01 01:54:10.145, 1.018, -0.014, -0.087, -0.793, 0.061, 0.061, -168.931, -85.073, -30.19, -26.933, -10.927, -2.227, 30.07, -0.1069, -0.72501, 0.12842, -0.66806,
 15:31:51.148,ed:35:33:d3:6c:f8, 2015-01-01 01:54:09.085, 0.583, -0.131, 0.798, -0.244, 0.061, 0, -9.382, -36.123, 168.613, -17.987, -6.933, -29.273, 32.63, -0.1218, -0.30042, 0.11032, -0.93948,
 15:31:51.148,ed:35:33:d3:6c:f8, 2015-01-01 01:54:09.085, 0.585, -0.127, 0.796, -0.61, -0.183, -0.061, -9.393, -36.129, 168.624, -17.987, -6.933, -29.273, 32.63, -0.1218, -0.30042, 0.11032, -0.93948,
 15:31:51.172,ed:40:fe:65:30:6c, 2015-01-01 01:54:21.080, 0.783, -0.089, 0.618, -0.061, -0.183, 0.244, -8.509, -51.509, -112.083, -25.113, -6.700, -0.153, 27.94, -0.47379, 0.39789, 0.18616, 0.76318,
 15:31:51.172,ed:40:fe:65:30:6c, 2015-01-01 01:54:21.080, 0.784, -0.093, 0.617, -0.122, -0.366, 0.183, -8.514, -51.515, -112.061, -25.113, -6.700, -0.153, 27.94, -0.47379, 0.39789, 0.18616, 0.76318,
 15:31:51.177,e3:ca:2d:fd:e0:8c, 2015-01-01 01:54:10.145, 1.016, -0.015, -0.086, -1.221, -0.061, 0.183, -168.937, -85.073, -30.174, -26.933, -10.927, -2.227, 30.07, -0.1069, -0.72501, 0.12842, -0.66806,
 15:31:51.177,e3:ca:2d:fd:e0:8c, 2015-01-01 01:54:10.145, 1.014, -0.015, -0.086, -1.343, 0, 0.183, -168.942, -85.067, -30.163, -26.933, -10.927, -2.227, 30.07, -0.1069, -0.72501, 0.12842, -0.66806,
 15:31:51.179,ed:35:33:d3:6c:f8, 2015-01-01 01:54:09.085, 0.584, -0.125, 0.793, -0.488, -0.183, 0, -9.399, -36.129, 168.635, -17.987, -6.933, -29.273, 32.63, -0.1218, -0.30042, 0.11032, -0.93948,
 15:31:51.179,ed:35:33:d3:6c:f8, 2015-01-01 01:54:09.085, 0.585, -0.131, 0.792, -0.427, -0.061, -0.061, -9.404, -36.129, 168.646, -17.987, -6.933, -29.273, 32.63, -0.1218, -0.30042, 0.11032, -0.93948,
 15:31:51.183,f6:90:cc:01:6d:25, 2015-01-01 01:54:07.835, 0.957, 0.003, 0.223, -0.671, -0.427, -0.061, 1.115, -76.849, -155.446, -30.173, -11.487, -0.860, 32.55, 0.17081, -0.60684, -0.13791, -0.76382,
 15:31:51.183,f6:90:cc:01:6d:25, 2015-01-01 01:54:07.835, 0.957, 0.005, 0.222, -0.427, -0.427, 0, 1.11, -76.855, -155.429, -30.173, -11.487, -0.860, 32.55, 0.17081, -0.60684, -0.13791, -0.76382,
 15:31:51.207,e3:ca:2d:fd:e0:8c, 2015-01-01 01:54:10.145, 1.012, -0.015, -0.087, -1.16, 0, 0.122, -168.953, -85.067, -30.157, -26.933, -10.927, -2.227, 30.07, -0.1069, -0.72501, 0.12842, -0.66806,
 15:31:51.207,e3:ca:2d:fd:e0:8c, 2015-01-01 01:54:10.145, 1.013, -0.017, -0.088, -0.854, -0.122, 0, -168.986, -85.067, -30.13, -26.933, -10.927, -2.227, 30.07, -0.1069, -0.72501, 0.12842, -0.66806,
 15:31:51.213,f6:90:cc:01:6d:25, 2015-01-01 01:54:07.835, 0.958, 0.004, 0.221, -0.366, -0.61, 0.061, 1.099, -76.866, -155.407, -29.853, -11.967, -0.753, 32.55, 0.17081, -0.60684, -0.13791, -0.76382,
 15:31:51.213,f6:90:cc:01:6d:25, 2015-01-01 01:54:07.835, 0.963, 0.001, 0.222, -0.244, -0.549, 0.183, 1.088, -76.877, -155.391, -29.853, -11.967, -0.753, 32.55, 0.17081, -0.60684, -0.13791, -0.76382,
 15:31:51.233,ed:40:fe:65:30:6c, 2015-01-01 01:54:21.080, 0.787, -0.091, 0.612, -0.366, -0.366, 0.061, -8.52, -51.52, -112.05, -25.113, -6.700, -0.153, 27.94, -0.47379, 0.39789, 0.18616, 0.76318,
 15:31:51.233,ed:40:fe:65:30:6c, 2015-01-01 01:54:21.080, 0.791, -0.094, 0.61, -0.244, -0.366, 0.061, -8.531, -51.526, -112.033, -25.113, -6.700, -0.153, 27.94, -0.47379, 0.39789, 0.18616, 0.76318,
 15:31:51.239,ed:35:33:d3:6c:f8, 2015-01-01 01:54:09.085, 0.588, -0.129, 0.787, -0.793, -0.244, -0.183, -9.415, -36.134, 168.646, -17.987, -6.933, -29.273, 32.63, -0.11899, -0.29984, 0.10815, -0.94028,
 15:31:51.239,ed:35:33:d3:6c:f8, 2015-01-01 01:54:09.085, 0.59, -0.131, 0.784, -0.549, -0.061, -0.183, -9.421, -36.134, 168.646, -17.987, -6.933, -29.273, 32.63, -0.11899, -0.29984, 0.10815, -0.94028,
 15:31:51.243,f6:90:cc:01:6d:25, 2015-01-01 01:54:07.835, 0.964, 0, 0.223, -0.061, -0.305, 0.305, 1.066, -76.888, -155.369, -29.853, -11.967, -0.753, 32.55, 0.17081, -0.60684, -0.13791, -0.76382,
 15:31:51.243,f6:90:cc:01:6d:25, 2015-01-01 01:54:07.835, 0.963, 0, 0.224, 0, 0.122, 0.122, 1.038, -76.888, -155.336, -29.853, -11.967, -0.753, 32.55, 0.17081, -0.60684, -0.13791, -0.76382,
 15:31:51.263,ed:40:fe:65:30:6c, 2015-01-01 01:54:21.080, 0.79, -0.101, 0.61, 0.122, -0.122, 0.061, -8.531, -51.531, -112.022, -25.287, -6.660, -0.093, 27.94, -0.47379, 0.39789, 0.18616, 0.76318,
 15:31:51.263,ed:40:fe:65:30:6c, 2015-01-01 01:54:21.080, 0.788, -0.103, 0.614, 0.488, 0, 0, -8.525, -51.531, -112.022, -25.287, -6.660, -0.093, 27.94, -0.47379, 0.39789, 0.18616, 0.76318,
 15:31:51.267,e3:ca:2d:fd:e0:8c, 2015-01-01 01:54:10.535, 1.017, -0.02, -0.084, -0.488, -0.061, 0.183, -168.981, -85.062, -30.141, -26.933, -10.927, -2.227, 30.07, -0.1069, -0.72501, 0.12842, -0.66806,
 15:31:51.267,e3:ca:2d:fd:e0:8c, 2015-01-01 01:54:10.535, 1.021, -0.02, -0.083, -0.305, 0.061, 0.366, -168.92, -85.062, -30.207, -26.933, -10.927, -2.227, 30.07, -0.1069, -0.72501, 0.12842, -0.66806,
 15:31:51.267,e3:ca:2d:fd:e0:8c, 2015-01-01 01:54:10.535, 1.021, -0.016, -0.081, -0.183, 0.305, 0.366, -168.832, -85.067, -30.295, -26.933, -10.927, -2.227, 30.07, -0.1069, -0.72501, 0.12842, -0.66806,
 15:31:51.267,e3:ca:2d:fd:e0:8c, 2015-01-01 01:54:10.535, 1.019, -0.014, -0.083, -0.122, 0.305, 0, -168.805, -85.073, -30.333, -26.933, -10.927, -2.227, 30.07, -0.1069, -0.72501, 0.12842, -0.66806,
 15:31:51.269,ed:35:33:d3:6c:f8, 2015-01-01 01:54:09.445, 0.591, -0.135, 0.782, 0.122, 0, 0, -9.421, -36.134, 168.651, -17.987, -6.933, -29.273, 32.63, -0.11899, -0.29984, 0.10815, -0.94028,
 15:31:51.269,ed:35:33:d3:6c:f8, 2015-01-01 01:54:09.445, 0.589, -0.139, 0.786, 0.549, 0.488, 0.183, -9.41, -36.129, 168.668, -17.987, -6.933, -29.273, 32.63, -0.11899, -0.29984, 0.10815, -0.94028,
 15:31:51.293,ed:40:fe:65:30:6c, 2015-01-01 01:54:21.080, 0.79, -0.098, 0.616, 0.793, 0.244, 0, -8.514, -51.526, -112.022, -25.287, -6.660, -0.093, 27.94, -0.47379, 0.39789, 0.18616, 0.76318,
