Time,Device name,Chip Time(),Acceleration X(g),Acceleration Y(g),Acceleration Z(g),Angular velocity X(°/s),Angular velocity Y(°/s),Angular velocity Z(°/s),Angle X(°),Angle Y(°),Angle Z(°),Magnetic field X(ʯt),Magnetic field Y(ʯt),Magnetic field Z(ʯt),Temperature(℃),Quaternions 0(),Quaternions 1(),Quaternions 2(),Quaternions 3()
 12:15:18.288,ed:40:fe:65:30:6c, 2015-01-01 00:28:06.485, 0.604, -0.183, 0.778, 0, -0.183, -0.427, -12.722, -37.332, -115.906, -20.720, -6.267, -6.953, 23.21, -0.47089, 0.3252, 0.08017, 0.81607,
 12:15:18.288,ed:40:fe:65:30:6c, 2015-01-01 00:28:06.485, 0.611, -0.175, 0.781, -0.427, -0.366, -0.366, -12.728, -37.332, -115.95, -20.720, -6.267, -6.953, 23.21, -0.47089, 0.3252, 0.08017, 0.81607,
 12:15:18.290,f6:90:cc:01:6d:25, 2015-01-01 00:28:01.270, 0.938, -0.068, 0.299, -0.488, -0.305, 0.183, -12.458, -72.46, -157.176, -30.787, -11.113, -6.553, 27.35, -0.09186, 0.59363, 0.02792, 0.79892,
 12:15:18.290,f6:90:cc:01:6d:25, 2015-01-01 00:28:01.270, 0.937, -0.069, 0.294, -0.305, -0.183, -0.061, -12.464, -72.46, -157.115, -30.787, -11.113, -6.553, 27.35, -0.09186, 0.59363, 0.02792, 0.79892,
 12:15:18.312,e3:ca:2d:fd:e0:8c, 2015-01-01 00:28:01.185, 0.996, -0.048, 0.238, -0.122, -0.061, -0.122, -10.624, -76.328, 173.551, -29.340, -13.100, -11.287, 22.91, -0.10178, -0.61014, 0.10767, -0.77826,
 12:15:18.312,e3:ca:2d:fd:e0:8c, 2015-01-01 00:28:01.185, 0.994, -0.045, 0.235, -0.244, 0.183, -0.244, -10.613, -76.328, 173.546, -29.340, -13.100, -11.287, 22.91, -0.10178, -0.61014, 0.10767, -0.77826,
 12:15:18.314,ed:35:33:d3:6c:f8, 2015-01-01 00:28:01.555, 0.337, -0.292, 0.89, 0, -0.977, -0.061, -18.204, -19.715, 176.364, -10.700, -3.353, -35.473, 27.68, 0.05869, 0.16364, -0.16122, 0.97144,
 12:15:18.314,ed:35:33:d3:6c:f8, 2015-01-01 00:28:01.555, 0.334, -0.296, 0.89, 0.488, -1.587, -0.122, -18.199, -19.742, 176.407, -10.700, -3.353, -35.473, 27.68, 0.05869, 0.16364, -0.16122, 0.97144,
 12:15:18.333,ed:40:fe:65:30:6c, 2015-01-01 00:28:06.485, 0.608, -0.179, 0.782, 0, -0.244, -0.183, -12.728, -37.332, -115.994, -20.720, -6.267, -6.953, 23.21, -0.47089, 0.3252, 0.08017, 0.81607,
 12:15:18.333,ed:40:fe:65:30:6c, 2015-01-01 00:28:06.485, 0.603, -0.184, 0.78, 0.183, -0.183, -0.183, -12.728, -37.332, -116.032, -20.720, -6.267, -6.953, 23.21, -0.47089, 0.3252, 0.08017, 0.81607,
 12:15:18.335,f6:90:cc:01:6d:25, 2015-01-01 00:28:01.270, 0.942, -0.069, 0.293, -0.183, 0.122, -0.061, -12.464, -72.455, -157.077, -30.787, -11.113, -6.553, 27.35, -0.09186, 0.59363, 0.02792, 0.79892,
 12:15:18.335,f6:90:cc:01:6d:25, 2015-01-01 00:28:01.270, 0.946, -0.064, 0.293, -0.427, 0, 0.122, -12.48, -72.449, -157.039, -30.787, -11.113, -6.553, 27.35, -0.09186, 0.59363, 0.02792, 0.79892,
 12:15:18.357,e3:ca:2d:fd:e0:8c, 2015-01-01 00:28:01.185, 0.996, -0.046, 0.234, -0.122, 0.122, -0.122, -10.607, -76.328, 173.502, -29.340, -13.100, -11.287, 22.91, -0.10178, -0.61014, 0.10767, -0.77826,
 12:15:18.357,e3:ca:2d:fd:e0:8c, 2015-01-01 00:28:01.185, 0.992, -0.046, 0.239, 0, -0.244, 0, -10.607, -76.328, 173.491, -29.340, -13.100, -11.287, 22.91, -0.10178, -0.61014, 0.10767, -0.77826,
 12:15:18.359,f6:90:cc:01:6d:25, 2015-01-01 00:28:01.270, 0.942, -0.065, 0.292, -0.244, -0.122, 0.122, -12.497, -72.449, -156.995, -30.787, -11.113, -6.553, 27.35, -0.09662, 0.59314, 0.03098, 0.79861,
 12:15:18.359,f6:90:cc:01:6d:25, 2015-01-01 00:28:01.270, 0.943, -0.068, 0.301, -0.061, -0.061, 0, -12.497, -72.444, -156.956, -30.787, -11.113, -6.553, 27.35, -0.09662, 0.59314, 0.03098, 0.79861,
 12:15:18.359,ed:35:33:d3:6c:f8, 2015-01-01 00:28:01.555, 0.33, -0.3, 0.888, 0.183, -0.977, 0.427, -18.204, -19.753, 176.44, -10.700, -3.353, -35.473, 27.68, 0.05869, 0.16364, -0.16122, 0.97144,
 12:15:18.359,ed:35:33:d3:6c:f8, 2015-01-01 00:28:01.555, 0.331, -0.302, 0.896, -0.183, -0.793, 0, -18.21, -19.759, 176.457, -10.700, -3.353, -35.473, 27.68, 0.05869, 0.16364, -0.16122, 0.97144,
 12:15:18.379,ed:40:fe:65:30:6c, 2015-01-01 00:28:06.485, 0.608, -0.179, 0.788, -0.061, -0.61, -0.244, -12.728, -37.343, -116.065, -20.720, -6.267, -6.953, 23.21, -0.47089, 0.3252, 0.08017, 0.81607,
 12:15:18.379,ed:40:fe:65:30:6c, 2015-01-01 00:28:06.485, 0.604, -0.182, 0.78, -0.244, -0.183, -0.61, -12.728, -37.343, -116.087, -20.720, -6.267, -6.953, 23.21, -0.47089, 0.3252, 0.08017, 0.81607,
 12:15:18.383,ed:35:33:d3:6c:f8, 2015-01-01 00:28:01.555, 0.33, -0.298, 0.888, -0.305, 0.916, -1.343, -18.21, -19.748, 176.451, -10.700, -3.353, -35.473, 27.68, 0.05869, 0.16364, -0.16122, 0.97144,
 12:15:18.383,ed:35:33:d3:6c:f8, 2015-01-01 00:28:01.555, 0.328, -0.295, 0.883, -0.122, 0, -0.61, -18.215, -19.748, 176.462, -10.700, -3.353, -35.473, 27.68, 0.05869, 0.16364, -0.16122, 0.97144,
 12:15:18.403,f6:90:cc:01:6d:25, 2015-01-01 00:28:01.270, 0.939, -0.061, 0.297, 0.122, -0.122, 0, -12.497, -72.444, -156.929, -30.787, -11.113, -6.553, 27.35, -0.09662, 0.59314, 0.03098, 0.79861,
 12:15:18.403,f6:90:cc:01:6d:25, 2015-01-01 00:28:01.270, 0.937, -0.064, 0.292, 0.061, 0.183, -0.183, -12.48, -72.438, -156.923, -30.787, -11.113, -6.553, 27.35, -0.09662, 0.59314, 0.03098, 0.79861,
 12:15:18.403,e3:ca:2d:fd:e0:8c, 2015-01-01 00:28:01.185, 0.991, -0.043, 0.235, 0, 0, 0, -10.613, -76.328, 173.474, -29.340, -13.100, -11.287, 22.91, -0.10178, -0.61014, 0.10767, -0.77826,
 12:15:18.403,e3:ca:2d:fd:e0:8c, 2015-01-01 00:28:01.185, 0.992, -0.044, 0.235, -0.061, 0.183, -0.061, -10.613, -76.328, 173.452, -29.340, -13.100, -11.287, 22.91, -0.10178, -0.61014, 0.10767, -0.77826,
 12:15:18.424,ed:40:fe:65:30:6c, 2015-01-01 00:28:06.485, 0.602, -0.179, 0.775, 0.244, -0.183, -0.549, -12.722, -37.343, -116.109, -20.720, -6.267, -6.953, 23.21, -0.47089, 0.3252, 0.08017, 0.81607,
 12:15:18.424,ed:40:fe:65:30:6c, 2015-01-01 00:28:06.485, 0.605, -0.18, 0.78, 0.122, 0.061, -0.366, -12.717, -37.343, -116.125, -20.720, -6.267, -6.953, 23.21, -0.47089, 0.3252, 0.08017, 0.81607,
 12:15:18.426,f6:90:cc:01:6d:25, 2015-01-01 00:28:01.670, 0.938, -0.068, 0.293, 0.122, 0.061, -0.366, -12.458, -72.433, -156.923, -30.787, -11.113, -6.553, 27.35, -0.09662, 0.59314, 0.03098, 0.79861,
 12:15:18.426,f6:90:cc:01:6d:25, 2015-01-01 00:28:01.670, 0.941, -0.067, 0.295, 0.183, 0.061, -0.488, -12.426, -72.433, -156.929, -30.787, -11.113, -6.553, 27.35, -0.09662, 0.59314, 0.03098, 0.79861,
 12:15:18.428,ed:35:33:d3:6c:f8, 2015-01-01 00:28:01.555, 0.332, -0.292, 0.888, 0.183, 0.549, -0.183, -18.21, -19.731, 176.479, -10.700, -3.353, -35.473, 27.68, 0.05869, 0.16364, -0.16122, 0.97144,
 12:15:18.428,ed:35:33:d3:6c:f8, 2015-01-01 00:28:01.555, 0.33, -0.294, 0.887, 0.366, 0.854, 0.549, -18.21, -19.709, 176.495, -10.700, -3.353, -35.473, 27.68, 0.05869, 0.16364, -0.16122, 0.97144,
 12:15:18.447,e3:ca:2d:fd:e0:8c, 2015-01-01 00:28:01.185, 0.993, -0.046, 0.233, 0, 0.061, 0, -10.613, -76.328, 173.425, -29.340, -13.100, -11.287, 22.91, -0.10178, -0.61014, 0.10767, -0.77826,
 12:15:18.447,e3:ca:2d:fd:e0:8c, 2015-01-01 00:28:01.185, 0.994, -0.046, 0.235, 0, 0, 0, -10.618, -76.328, 173.386, -29.340, -13.100, -11.287, 22.91, -0.10178, -0.61014, 0.10767, -0.77826,
 12:15:18.469,e3:ca:2d:fd:e0:8c, 2015-01-01 00:28:01.185, 0.992, -0.045, 0.238, 0.061, 0.061, 0, -10.618, -76.328, 173.364, -28.793, -13.180, -12.360, 22.91, -0.10178, -0.61014, 0.10767, -0.77826,
 12:15:18.469,e3:ca:2d:fd:e0:8c, 2015-01-01 00:28:01.185, 0.99, -0.046, 0.241, 0, 0.122, 0, -10.618, -76.328, 173.348, -28.793, -13.180, -12.360, 22.91, -0.10178, -0.61014, 0.10767, -0.77826,
 12:15:18.469,ed:40:fe:65:30:6c, 2015-01-01 00:28:06.485, 0.606, -0.178, 0.78, 0.366, -0.061, -0.061, -12.711, -37.337, -116.142, -20.720, -6.267, -6.953, 23.21, -0.47089, 0.3252, 0.08017, 0.81607,
 12:15:18.469,ed:40:fe:65:30:6c, 2015-01-01 00:28:06.485, 0.605, -0.176, 0.784, 0.305, 0, 0, -12.706, -37.337, -116.153, -20.720, -6.267, -6.953, 23.21, -0.47089, 0.3252, 0.08017, 0.81607,
 12:15:18.471,f6:90:cc:01:6d:25, 2015-01-01 00:28:01.670, 0.942, -0.065, 0.294, 0.183, 0, -0.366, -12.398, -72.433, -156.94, -30.787, -11.113, -6.553, 27.35, -0.09662, 0.59314, 0.03098, 0.79861,
 12:15:18.471,f6:90:cc:01:6d:25, 2015-01-01 00:28:01.670, 0.941, -0.062, 0.298, 0.183, 0, -0.305, -12.376, -72.427, -156.951, -30.787, -11.113, -6.553, 27.35, -0.09662, 0.59314, 0.03098, 0.79861,
 12:15:18.473,ed:35:33:d3:6c:f8, 2015-01-01 00:28:01.555, 0.33, -0.293, 0.893, 0.366, 0.671, 0.366, -18.204, -19.693, 176.506, -10.700, -3.353, -35.473, 27.68, 0.05869, 0.16364, -0.16122, 0.97144,
 12:15:18.473,ed:35:33:d3:6c:f8, 2015-01-01 00:28:01.555, 0.329, -0.294, 0.894, 0.244, 0.854, 0.366, -18.199, -19.671, 176.528, -10.700, -3.353, -35.473, 27.68, 0.05869, 0.16364, -0.16122, 0.97144,
 12:15:18.491,ed:40:fe:65:30:6c, 2015-01-01 00:28:06.485, 0.606, -0.177, 0.785, 0.244, 0, 0.061, -12.706, -37.332, -116.175, -20.840, -5.800, -6.607, 23.21, -0.47089, 0.3252, 0.08017, 0.81607,
 12:15:18.491,ed:40:fe:65:30:6c, 2015-01-01 00:28:06.485, 0.605, -0.176, 0.781, 0.061, 0.122, -0.122, -12.706, -37.326, -116.191, -20.840, -5.800, -6.607, 23.21, -0.47089, 0.3252, 0.08017, 0.81607,
 12:15:18.515,f6:90:cc:01:6d:25, 2015-01-01 00:28:01.670, 0.94, -0.062, 0.294, 0.244, 0.244, -0.183, -12.36, -72.422, -156.962, -30.787, -11.113, -6.553, 27.35, -0.09662, 0.59314, 0.03098, 0.79861,
 12:15:18.515,f6:90:cc:01:6d:25, 2015-01-01 00:28:01.670, 0.94, -0.063, 0.295, -0.122, 0.366, -0.061, -12.354, -72.411, -156.967, -30.787, -11.113, -6.553, 27.35, -0.09662, 0.59314, 0.03098, 0.79861,
 12:15:18.515,e3:ca:2d:fd:e0:8c, 2015-01-01 00:28:01.185, 0.991, -0.047, 0.239, 0, 0.183, 0, -10.624, -76.322, 173.337, -28.793, -13.180, -12.360, 22.91, -0.10178, -0.61014, 0.10767, -0.77826,
 12:15:18.515,e3:ca:2d:fd:e0:8c, 2015-01-01 00:28:01.185, 0.99, -0.046, 0.238, 0, 0.305, 0, -10.624, -76.317, 173.342, -28.793, -13.180, -12.360, 22.91, -0.10178, -0.61014, 0.10767, -0.77826,
 12:15:18.517,ed:35:33:d3:6c:f8, 2015-01-01 00:28:01.555, 0.33, -0.295, 0.894, 0, 0.549, 0.183, -18.204, -19.655, 176.545, -10.980, -3.520, -35.220, 27.68, 0.05869, 0.16364, -0.16122, 0.97144,
 12:15:18.518,ed:35:33:d3:6c:f8, 2015-01-01 00:28:01.555, 0.329, -0.292, 0.891, 0.305, -0.061, -0.305, -18.199, -19.655, 176.55, -10.980, -3.520, -35.220, 27.68, 0.05869, 0.16364, -0.16122, 0.97144,
 12:15:18.539,f6:90:cc:01:6d:25, 2015-01-01 00:28:01.670, 0.939, -0.064, 0.294, -0.488, 0.183, 0.061, -12.365, -72.405, -156.967, -30.787, -11.113, -6.553, 27.35, -0.09662, 0.59314, 0.03098, 0.79861,
 12:15:18.539,f6:90:cc:01:6d:25, 2015-01-01 00:28:01.670, 0.938, -0.062, 0.296, -0.671, 0, 0.244, -12.387, -72.4, -156.962, -30.787, -11.113, -6.553, 27.35, -0.09662, 0.59314, 0.03098, 0.79861,
 12:15:18.557,ed:40:fe:65:30:6c, 2015-01-01 00:28:06.485, 0.604, -0.174, 0.782, 0, 0, -0.122, -12.706, -37.321, -116.224, -20.840, -5.800, -6.607, 23.21, -0.47089, 0.3252, 0.08017, 0.81607,
 12:15:18.557,ed:40:fe:65:30:6c, 2015-01-01 00:28:06.485, 0.604, -0.177, 0.782, 0.244, 0.061, 0, -12.7, -37.315, -116.246, -20.840, -5.800, -6.607, 23.21, -0.47089, 0.3252, 0.08017, 0.81607,
 12:15:18.561,ed:35:33:d3:6c:f8, 2015-01-01 00:28:01.555, 0.33, -0.292, 0.89, 0.549, 0.061, 0, -18.188, -19.649, 176.561, -10.980, -3.520, -35.220, 27.68, 0.05609, 0.16376, -0.16071, 0.97165,
 12:15:18.561,ed:35:33:d3:6c:f8, 2015-01-01 00:28:01.555, 0.327, -0.295, 0.891, 0.183, 0.671, 0.061, -18.182, -19.633, 176.561, -10.980, -3.520, -35.220, 27.68, 0.05609, 0.16376, -0.16071, 0.97165,
 12:15:18.581,ed:40:fe:65:30:6c, 2015-01-01 00:28:06.485, 0.603, -0.177, 0.783, 0.122, -0.122, 0, -12.7, -37.315, -116.263, -20.840, -5.800, -6.607, 23.21, -0.46719, 0.32538, 0.07892, 0.81824,
 12:15:18.581,ed:40:fe:65:30:6c, 2015-01-01 00:28:06.485, 0.601, -0.177, 0.785, 0, -0.244, -0.122, -12.7, -37.321, -116.274, -20.840, -5.800, -6.607, 23.21, -0.46719, 0.32538, 0.07892, 0.81824,
 12:15:18.583,f6:90:cc:01:6d:25, 2015-01-01 00:28:01.670, 0.937, -0.06, 0.297, -0.488, 0, 0.244, -12.415, -72.4, -156.934, -30.787, -11.113, -6.553, 27.35, -0.09662, 0.59314, 0.03098, 0.79861,
 12:15:18.583,f6:90:cc:01:6d:25, 2015-01-01 00:28:01.670, 0.939, -0.06, 0.297, -0.488, -0.122, 0.244, -12.431, -72.394, -156.901, -30.787, -11.113, -6.553, 27.35, -0.09662, 0.59314, 0.03098, 0.79861,
 12:15:18.583,e3:ca:2d:fd:e0:8c, 2015-01-01 00:28:01.185, 0.992, -0.044, 0.236, -0.122, 0.366, -0.305, -10.607, -76.311, 173.326, -28.793, -13.180, -12.360, 22.91, -0.10251, -0.60992, 0.10837, -0.77823,
 12:15:18.583,e3:ca:2d:fd:e0:8c, 2015-01-01 00:28:01.185, 0.991, -0.042, 0.237, -0.488, 0.305, -0.305, -10.591, -76.306, 173.298, -28.793, -13.180, -12.360, 22.91, -0.10251, -0.60992, 0.10837, -0.77823,
 12:15:18.585,ed:35:33:d3:6c:f8, 2015-01-01 00:28:01.845, 0.325, -0.295, 0.895, -0.122, 1.038, 0, -18.182, -19.611, 176.55, -10.980, -3.520, -35.220, 27.68, 0.05609, 0.16376, -0.16071, 0.97165,
 12:15:18.585,ed:35:33:d3:6c:f8, 2015-01-01 00:28:01.845, 0.326, -0.292, 0.896, -0.305, 0.427, 0, -18.193, -19.6, 176.556, -10.980, -3.520, -35.220, 27.68, 0.05609, 0.16376, -0.16071, 0.97165,
 12:15:18.605,e3:ca:2d:fd:e0:8c, 2015-01-01 00:28:01.520, 0.99, -0.043, 0.237, -0.488, 0.305, -0.244, -10.574, -76.3, 173.276, -28.793, -13.180, -12.360, 22.91, -0.10251, -0.60992, 0.10837, -0.77823,
 12:15:18.605,e3:ca:2d:fd:e0:8c, 2015-01-01 00:28:01.520, 0.992, -0.044, 0.236, -0.427, 0.183, -0.244, -10.563, -76.295, 173.254, -28.793, -13.180, -12.360, 22.91, -0.10251, -0.60992, 0.10837, -0.77823,
 12:15:18.626,ed:40:fe:65:30:6c, 2015-01-01 00:28:06.485, 0.602, -0.174, 0.785, 0.061, -0.488, -0.244, -12.695, -37.326, -116.29, -20.840, -5.800, -6.607, 23.21, -0.46719, 0.32538, 0.07892, 0.81824,
 12:15:18.626,ed:40:fe:65:30:6c, 2015-01-01 00:28:06.485, 0.606, -0.175, 0.783, -0.061, -0.549, -0.366, -12.695, -37.332, -116.312, -20.840, -5.800, -6.607, 23.21, -0.46719, 0.32538, 0.07892, 0.81824,
 12:15:18.626,e3:ca:2d:fd:e0:8c, 2015-01-01 00:28:01.520, 0.994, -0.043, 0.237, -0.366, 0.183, -0.183, -10.552, -76.295, 173.243, -28.793, -13.180, -12.360, 22.91, -0.10251, -0.60992, 0.10837, -0.77823,
 12:15:18.626,e3:ca:2d:fd:e0:8c, 2015-01-01 00:28:01.520, 0.995, -0.043, 0.236, -0.427, 0.122, -0.183, -10.541, -76.295, 173.227, -28.793, -13.180, -12.360, 22.91, -0.10251, -0.60992, 0.10837, -0.77823,
 12:15:18.628,f6:90:cc:01:6d:25, 2015-01-01 00:28:01.670, 0.942, -0.062, 0.298, -0.671, -0.244, 0.305, -12.458, -72.394, -156.852, -30.787, -11.113, -6.553, 27.35, -0.09662, 0.59314, 0.03098, 0.79861,
 12:15:18.628,f6:90:cc:01:6d:25, 2015-01-01 00:28:01.670, 0.942, -0.062, 0.296, -0.793, -0.244, 0.305, -12.486, -72.394, -156.813, -30.787, -11.113, -6.553, 27.35, -0.09662, 0.59314, 0.03098, 0.79861,
 12:15:18.630,ed:35:33:d3:6c:f8, 2015-01-01 00:28:01.845, 0.329, -0.291, 0.893, -0.183, -0.366, 0.61, -18.199, -19.594, 176.578, -10.980, -3.520, -35.220, 27.68, 0.05609, 0.16376, -0.16071, 0.97165,
 12:15:18.630,ed:35:33:d3:6c:f8, 2015-01-01 00:28:01.845, 0.331, -0.294, 0.891, -0.061, -0.732, 0.488, -18.204, -19.605, 176.605, -10.980, -3.520, -35.220, 27.68, 0.05609, 0.16376, -0.16071, 0.97165,
 12:15:18.648,ed:40:fe:65:30:6c, 2015-01-01 00:28:06.865, 0.608, -0.174, 0.782, -0.122, -0.488, -0.488, -12.689, -37.337, -116.34, -20.840, -5.800, -6.607, 23.21, -0.46719, 0.32538, 0.07892, 0.81824,
 12:15:18.648,ed:40:fe:65:30:6c, 2015-01-01 00:28:06.865, 0.607, -0.176, 0.782, -0.305, -0.488, -0.61, -12.689, -37.348, -116.367, -20.840, -5.800, -6.607, 23.21, -0.46719, 0.32538, 0.07892, 0.81824,
 12:15:18.673,e3:ca:2d:fd:e0:8c, 2015-01-01 00:28:01.520, 0.993, -0.043, 0.238, -0.427, 0.061, -0.061, -10.541, -76.289, 173.221, -28.793, -13.180, -12.360, 22.91, -0.10251, -0.60992, 0.10837, -0.77823,
 12:15:18.673,e3:ca:2d:fd:e0:8c, 2015-01-01 00:28:01.520, 0.991, -0.044, 0.239, -0.427, 0.061, -0.061, -10.541, -76.289, 173.221, -28.793, -13.180, -12.360, 22.91, -0.10251, -0.60992, 0.10837, -0.77823,
 12:15:18.675,ed:35:33:d3:6c:f8, 2015-01-01 00:28:01.845, 0.33, -0.294, 0.89, 0.061, 0, -0.061, -18.204, -19.6, 176.611, -10.980, -3.520, -35.220, 27.68, 0.05609, 0.16376, -0.16071, 0.97165,
 12:15:18.675,ed:35:33:d3:6c:f8, 2015-01-01 00:28:01.845, 0.328, -0.294, 0.892, 0.061, 0.122, -0.427, -18.199, -19.594, 176.611, -10.980, -3.520, -35.220, 27.68, 0.05609, 0.16376, -0.16071, 0.97165,
 12:15:18.694,ed:40:fe:65:30:6c, 2015-01-01 00:28:06.865, 0.605, -0.177, 0.782, -0.183, -0.427, -0.549, -12.684, -37.354, -116.395, -20.840, -5.800, -6.607, 23.21, -0.46719, 0.32538, 0.07892, 0.81824,
 12:15:18.694,ed:40:fe:65:30:6c, 2015-01-01 00:28:06.865, 0.604, -0.177, 0.781, -0.122, -0.244, -0.427, -12.684, -37.359, -116.433, -20.840, -5.800, -6.607, 23.21, -0.46719, 0.32538, 0.07892, 0.81824,
 12:15:18.695,f6:90:cc:01:6d:25, 2015-01-01 00:28:01.670, 0.942, -0.063, 0.297, -0.916, -0.366, 0.305, -12.519, -72.394, -156.786, -31.113, -11.347, -6.767, 27.35, -0.09662, 0.59314, 0.03098, 0.79861,
 12:15:18.695,f6:90:cc:01:6d:25, 2015-01-01 00:28:01.670, 0.941, -0.066, 0.298, -0.916, -0.366, 0.244, -12.552, -72.394, -156.753, -31.113, -11.347, -6.767, 27.35, -0.09662, 0.59314, 0.03098, 0.79861,
 12:15:18.717,e3:ca:2d:fd:e0:8c, 2015-01-01 00:28:01.520, 0.99, -0.044, 0.239, -0.427, 0, 0, -10.547, -76.289, 173.221, -28.793, -13.180, -12.360, 22.91, -0.10251, -0.60992, 0.10837, -0.77823,
 12:15:18.717,e3:ca:2d:fd:e0:8c, 2015-01-01 00:28:01.520, 0.989, -0.045, 0.239, -0.305, -0.061, -0.061, -10.552, -76.289, 173.221, -28.793, -13.180, -12.360, 22.91, -0.10251, -0.60992, 0.10837, -0.77823,
 12:15:18.717,f6:90:cc:01:6d:25, 2015-01-01 00:28:01.670, 0.938, -0.068, 0.298, -0.793, -0.183, 0.122, -12.579, -72.4, -156.714, -31.113, -11.347, -6.767, 27.35, -0.09845, 0.5928, 0.03183, 0.79861,
 12:15:18.717,f6:90:cc:01:6d:25, 2015-01-01 00:28:01.670, 0.938, -0.066, 0.299, -0.427, 0, 0, -12.596, -72.394, -156.676, -31.113, -11.347, -6.767, 27.35, -0.09845, 0.5928, 0.03183, 0.79861,
 12:15:18.720,ed:35:33:d3:6c:f8, 2015-01-01 00:28:01.845, 0.329, -0.291, 0.891, 0, -0.549, 0.061, -18.204, -19.605, 176.633, -10.980, -3.520, -35.220, 27.68, 0.05609, 0.16376, -0.16071, 0.97165,
 12:15:18.720,ed:35:33:d3:6c:f8, 2015-01-01 00:28:01.845, 0.328, -0.29, 0.89, -0.427, -0.549, 0.977, -18.221, -19.605, 176.66, -10.980, -3.520, -35.220, 27.68, 0.05609, 0.16376, -0.16071, 0.97165,
 12:15:18.739,ed:40:fe:65:30:6c, 2015-01-01 00:28:06.865, 0.603, -0.176, 0.782, 0, -0.122, -0.122, -12.678, -37.354, -116.472, -20.840, -5.800, -6.607, 23.21, -0.46719, 0.32538, 0.07892, 0.81824,
 12:15:18.739,ed:40:fe:65:30:6c, 2015-01-01 00:28:06.865, 0.604, -0.174, 0.781, -0.122, 0, 0.061, -12.684, -37.354, -116.488, -20.840, -5.800, -6.607, 23.21, -0.46719, 0.32538, 0.07892, 0.81824,
 12:15:18.762,e3:ca:2d:fd:e0:8c, 2015-01-01 00:28:01.520, 0.991, -0.046, 0.24, -0.122, -0.244, 0, -10.558, -76.295, 173.232, -28.793, -13.180, -12.360, 22.91, -0.10251, -0.60992, 0.10837, -0.77823,
 12:15:18.762,e3:ca:2d:fd:e0:8c, 2015-01-01 00:28:01.520, 0.994, -0.045, 0.24, 0.061, -0.305, 0.061, -10.563, -76.3, 173.243, -28.793, -13.180, -12.360, 22.91, -0.10251, -0.60992, 0.10837, -0.77823,
 12:15:18.764,f6:90:cc:01:6d:25, 2015-01-01 00:28:01.670, 0.941, -0.064, 0.3, -0.305, 0, 0.122, -12.601, -72.394, -156.649, -31.113, -11.347, -6.767, 27.35, -0.09845, 0.5928, 0.03183, 0.79861,
 12:15:18.764,f6:90:cc:01:6d:25, 2015-01-01 00:28:01.670, 0.94, -0.065, 0.296, -0.183, 0, 0.122, -12.612, -72.389, -156.61, -31.113, -11.347, -6.767, 27.35, -0.09845, 0.5928, 0.03183, 0.79861,
 12:15:18.766,ed:35:33:d3:6c:f8, 2015-01-01 00:28:01.845, 0.326, -0.293, 0.888, -0.366, -0.244, 1.038, -18.232, -19.6, 176.699, -10.980, -3.520, -35.220, 27.68, 0.05609, 0.16376, -0.16071, 0.97165,
 12:15:18.766,ed:35:33:d3:6c:f8, 2015-01-01 00:28:01.845, 0.327, -0.295, 0.891, -0.061, 0.488, 0.366, -18.237, -19.583, 176.715, -10.980, -3.520, -35.220, 27.68, 0.05609, 0.16376, -0.16071, 0.97165,
 12:15:18.783,ed:40:fe:65:30:6c, 2015-01-01 00:28:06.865, 0.605, -0.177, 0.783, -0.183, 0, 0, -12.689, -37.348, -116.505, -20.840, -5.800, -6.607, 23.21, -0.46719, 0.32538, 0.07892, 0.81824,
 12:15:18.783,ed:40:fe:65:30:6c, 2015-01-01 00:28:06.865, 0.603, -0.182, 0.78, -0.244, 0.122, -0.122, -12.689, -37.343, -116.516, -20.840, -5.800, -6.607, 23.21, -0.46719, 0.32538, 0.07892, 0.81824,
 12:15:18.786,f6:90:cc:01:6d:25, 2015-01-01 00:28:02.030, 0.937, -0.066, 0.294, 0.061, 0.305, 0, -12.612, -72.383, -156.583, -31.113, -11.347, -6.767, 27.35, -0.09845, 0.5928, 0.03183, 0.79861,
 12:15:18.786,f6:90:cc:01:6d:25, 2015-01-01 00:28:02.030, 0.941, -0.069, 0.299, -0.305, 0.427, 0, -12.607, -72.372, -156.561, -31.113, -11.347, -6.767, 27.35, -0.09845, 0.5928, 0.03183, 0.79861,
 12:15:18.787,ed:35:33:d3:6c:f8, 2015-01-01 00:28:01.845, 0.328, -0.3, 0.891, 0, 0, 0.549, -18.243, -19.578, 176.737, -10.693, -3.513, -35.320, 27.68, 0.05609, 0.16376, -0.16071, 0.97165,
 12:15:18.787,ed:35:33:d3:6c:f8, 2015-01-01 00:28:01.845, 0.326, -0.3, 0.89, 0, -1.404, 0.122, -18.248, -19.6, 176.77, -10.693, -3.513, -35.320, 27.68, 0.05609, 0.16376, -0.16071, 0.97165,
 12:15:18.807,e3:ca:2d:fd:e0:8c, 2015-01-01 00:28:01.520, 0.99, -0.045, 0.241, 0.061, -0.244, 0.122, -10.58, -76.306, 173.26, -28.793, -13.180, -12.360, 22.91, -0.10251, -0.60992, 0.10837, -0.77823,
 12:15:18.807,e3:ca:2d:fd:e0:8c, 2015-01-01 00:28:01.520, 0.993, -0.047, 0.238, 0, -0.122, 0.061, -10.585, -76.306, 173.276, -28.793, -13.180, -12.360, 22.91, -0.10251, -0.60992, 0.10837, -0.77823,
 12:15:18.829,e3:ca:2d:fd:e0:8c, 2015-01-01 00:28:01.520, 0.994, -0.047, 0.238, 0, -0.366, -0.061, -10.591, -76.311, 173.282, -28.827, -13.107, -10.967, 22.91, -0.10251, -0.60992, 0.10837, -0.77823,
 12:15:18.829,e3:ca:2d:fd:e0:8c, 2015-01-01 00:28:01.520, 0.994, -0.044, 0.236, -0.061, -0.244, -0.122, -10.591, -76.317, 173.282, -28.827, -13.107, -10.967, 22.91, -0.10251, -0.60992, 0.10837, -0.77823,
 12:15:18.830,ed:40:fe:65:30:6c, 2015-01-01 00:28:06.865, 0.607, -0.174, 0.786, -1.038, -0.061, -0.488, -12.7, -37.337, -116.543, -20.840, -5.800, -6.607, 23.21, -0.46719, 0.32538, 0.07892, 0.81824,
 12:15:18.830,ed:40:fe:65:30:6c, 2015-01-01 00:28:06.865, 0.605, -0.18, 0.786, -0.671, 0, -0.305, -12.711, -37.337, -116.576, -20.840, -5.800, -6.607, 23.21, -0.46719, 0.32538, 0.07892, 0.81824,
 12:15:18.831,f6:90:cc:01:6d:25, 2015-01-01 00:28:02.030, 0.942, -0.066, 0.299, -0.549, 0.122, 0.305, -12.612, -72.361, -156.533, -31.113, -11.347, -6.767, 27.35, -0.09845, 0.5928, 0.03183, 0.79861,
 12:15:18.831,f6:90:cc:01:6d:25, 2015-01-01 00:28:02.030, 0.941, -0.066, 0.295, -0.427, -0.183, 0.244, -12.634, -72.356, -156.489, -31.113, -11.347, -6.767, 27.35, -0.09845, 0.5928, 0.03183, 0.79861,
 12:15:18.833,ed:35:33:d3:6c:f8, 2015-01-01 00:28:01.845, 0.332, -0.294, 0.893, 0.305, -0.549, -1.221, -18.237, -19.611, 176.759, -10.693, -3.513, -35.320, 27.68, 0.05609, 0.16376, -0.16071, 0.97165,
 12:15:18.833,ed:35:33:d3:6c:f8, 2015-01-01 00:28:01.845, 0.328, -0.293, 0.896, 0.549, 0.122, -0.793, -18.221, -19.611, 176.759, -10.693, -3.513, -35.320, 27.68, 0.05609, 0.16376, -0.16071, 0.97165,
 12:15:18.850,ed:40:fe:65:30:6c, 2015-01-01 00:28:06.865, 0.604, -0.182, 0.785, -0.183, -0.244, -0.122, -12.717, -37.332, -116.609, -20.533, -5.920, -6.547, 23.21, -0.46719, 0.32538, 0.07892, 0.81824,
 12:15:18.850,ed:40:fe:65:30:6c, 2015-01-01 00:28:06.865, 0.604, -0.18, 0.784, -0.366, -0.366, -0.061, -12.722, -37.337, -116.625, -20.533, -5.920, -6.547, 23.21, -0.46719, 0.32538, 0.07892, 0.81824,
 12:15:18.875,e3:ca:2d:fd:e0:8c, 2015-01-01 00:28:01.520, 0.992, -0.043, 0.235, -0.122, -0.244, -0.061, -10.591, -76.322, 173.282, -28.827, -13.107, -10.967, 22.91, -0.10251, -0.60992, 0.10837, -0.77823,
 12:15:18.875,e3:ca:2d:fd:e0:8c, 2015-01-01 00:28:01.520, 0.99, -0.045, 0.236, 0, -0.488, 0, -10.602, -76.328, 173.293, -28.827, -13.107, -10.967, 22.91, -0.10251, -0.60992, 0.10837, -0.77823,
 12:15:18.877,f6:90:cc:01:6d:25, 2015-01-01 00:28:02.030, 0.939, -0.068, 0.296, -0.061, -0.244, 0, -12.656, -72.356, -156.451, -31.113, -11.347, -6.767, 27.35, -0.09845, 0.5928, 0.03183, 0.79861,
 12:15:18.877,f6:90:cc:01:6d:25, 2015-01-01 00:28:02.030, 0.938, -0.065, 0.299, 0, -0.122, -0.061, -12.656, -72.356, -156.423, -31.113, -11.347, -6.767, 27.35, -0.09845, 0.5928, 0.03183, 0.79861,
 12:15:18.877,ed:35:33:d3:6c:f8, 2015-01-01 00:28:01.845, 0.326, -0.297, 0.897, 0.488, -0.488, 0.671, -18.215, -19.611, 176.797, -10.693, -3.513, -35.320, 27.68, 0.05447, 0.16367, -0.16077, 0.97174,
 12:15:18.877,ed:35:33:d3:6c:f8, 2015-01-01 00:28:01.845, 0.326, -0.298, 0.892, 0.122, -1.282, 0.305, -18.221, -19.627, 176.836, -10.693, -3.513, -35.320, 27.68, 0.05447, 0.16367, -0.16077, 0.97174,
 12:15:18.896,ed:40:fe:65:30:6c, 2015-01-01 00:28:06.865, 0.605, -0.179, 0.78, -0.732, -0.305, -0.305, -12.733, -37.337, -116.631, -20.533, -5.920, -6.547, 23.21, -0.46719, 0.32538, 0.07892, 0.81824,
 12:15:18.896,ed:40:fe:65:30:6c, 2015-01-01 00:28:06.865, 0.607, -0.181, 0.777, -0.977, -0.122, -0.671, -12.744, -37.343, -116.647, -20.533, -5.920, -6.547, 23.21, -0.46719, 0.32538, 0.07892, 0.81824,
 12:15:18.897,f6:90:cc:01:6d:25, 2015-01-01 00:28:02.030, 0.939, -0.062, 0.295, 0.122, 0, -0.183, -12.651, -72.35, -156.401, -31.113, -11.347, -6.767, 27.35, -0.09845, 0.5928, 0.03183, 0.79861,
 12:15:18.897,f6:90:cc:01:6d:25, 2015-01-01 00:28:02.030, 0.941, -0.064, 0.294, -0.061, -0.061, -0.366, -12.634, -72.35, -156.396, -31.113, -11.347, -6.767, 27.35, -0.09845, 0.5928, 0.03183, 0.79861,
 12:15:18.923,ed:35:33:d3:6c:f8, 2015-01-01 00:28:02.160, 0.331, -0.3, 0.888, 0, -0.732, -0.854, -18.221, -19.644, 176.863, -10.693, -3.513, -35.320, 27.68, 0.05447, 0.16367, -0.16077, 0.97174,
 12:15:18.923,ed:35:33:d3:6c:f8, 2015-01-01 00:28:02.160, 0.332, -0.296, 0.886, -0.488, -0.244, -1.038, -18.226, -19.649, 176.88, -10.693, -3.513, -35.320, 27.68, 0.05447, 0.16367, -0.16077, 0.97174,
 12:15:18.943,e3:ca:2d:fd:e0:8c, 2015-01-01 00:28:01.520, 0.992, -0.045, 0.235, 0, -0.427, 0, -10.607, -76.339, 173.304, -28.827, -13.107, -10.967, 22.91, -0.10278, -0.60992, 0.10849, -0.77817,
 12:15:18.943,e3:ca:2d:fd:e0:8c, 2015-01-01 00:28:01.520, 0.992, -0.044, 0.235, 0, -0.427, 0, -10.618, -76.344, 173.315, -28.827, -13.107, -10.967, 22.91, -0.10278, -0.60992, 0.10849, -0.77817,
 12:15:18.945,ed:35:33:d3:6c:f8, 2015-01-01 00:28:02.160, 0.332, -0.294, 0.889, -0.305, 0.61, -0.366, -18.226, -19.638, 176.902, -10.693, -3.513, -35.320, 27.68, 0.05447, 0.16367, -0.16077, 0.97174,
 12:15:18.945,ed:35:33:d3:6c:f8, 2015-01-01 00:28:02.160, 0.329, -0.295, 0.889, 0.427, 0.732, 0.244, -18.221, -19.616, 176.951, -10.693, -3.513, -35.320, 27.68, 0.05447, 0.16367, -0.16077, 0.97174,
 12:15:18.963,ed:40:fe:65:30:6c, 2015-01-01 00:28:06.865, 0.607, -0.18, 0.777, -0.854, -0.244, -0.671, -12.755, -37.343, -116.664, -20.533, -5.920, -6.547, 23.21, -0.46417, 0.32596, 0.07758, 0.81985,
 12:15:18.963,ed:40:fe:65:30:6c, 2015-01-01 00:28:06.865, 0.605, -0.18, 0.781, -0.366, -0.305, -0.61, -12.766, -37.348, -116.68, -20.533, -5.920, -6.547, 23.21, -0.46417, 0.32596, 0.07758, 0.81985,
 12:15:18.965,e3:ca:2d:fd:e0:8c, 2015-01-01 00:28:01.880, 0.991, -0.044, 0.236, 0, -0.427, 0, -10.624, -76.355, 173.326, -28.827, -13.107, -10.967, 22.91, -0.10278, -0.60992, 0.10849, -0.77817,
 12:15:18.965,e3:ca:2d:fd:e0:8c, 2015-01-01 00:28:01.880, 0.992, -0.047, 0.238, 0, -0.549, 0, -10.635, -76.36, 173.337, -28.827, -13.107, -10.967, 22.91, -0.10278, -0.60992, 0.10849, -0.77817,
 12:15:18.965,f6:90:cc:01:6d:25, 2015-01-01 00:28:02.030, 0.94, -0.066, 0.295, -0.061, 0, -0.488, -12.607, -72.35, -156.396, -31.113, -11.347, -6.767, 27.35, -0.09845, 0.5928, 0.03183, 0.79861,
 12:15:18.965,f6:90:cc:01:6d:25, 2015-01-01 00:28:02.030, 0.941, -0.068, 0.298, 0.061, 0, -0.427, -12.579, -72.35, -156.401, -31.113, -11.347, -6.767, 27.35, -0.09845, 0.5928, 0.03183, 0.79861,
 12:15:18.985,ed:40:fe:65:30:6c, 2015-01-01 00:28:07.200, 0.607, -0.181, 0.782, -0.244, -0.122, -0.488, -12.766, -37.354, -116.697, -20.533, -5.920, -6.547, 23.21, -0.46417, 0.32596, 0.07758, 0.81985,
 12:15:18.985,ed:40:fe:65:30:6c, 2015-01-01 00:28:07.200, 0.607, -0.18, 0.781, 0, -0.122, -0.427, -12.766, -37.354, -116.713, -20.533, -5.920, -6.547, 23.21, -0.46417, 0.32596, 0.07758, 0.81985,
 12:15:18.989,f6:90:cc:01:6d:25, 2015-01-01 00:28:02.030, 0.942, -0.067, 0.297, 0.183, 0, -0.366, -12.552, -72.345, -156.401, -31.120, -11.260, -6.313, 27.35, -0.09845, 0.5928, 0.03183, 0.79861,
 12:15:18.989,f6:90:cc:01:6d:25, 2015-01-01 00:28:02.030, 0.94, -0.064, 0.296, 0.305, 0.061, -0.366, -12.524, -72.345, -156.401, -31.120, -11.260, -6.313, 27.35, -0.09845, 0.5928, 0.03183, 0.79861,
 12:15:18.991,ed:35:33:d3:6c:f8, 2015-01-01 00:28:02.160, 0.332, -0.297, 0.892, 0.427, 0.488, 0.366, -18.215, -19.6, 176.984, -10.693, -3.513, -35.320, 27.68, 0.05447, 0.16367, -0.16077, 0.97174,
 12:15:18.991,ed:35:33:d3:6c:f8, 2015-01-01 00:28:02.160, 0.332, -0.295, 0.893, 0.122, 0, 0.244, -18.221, -19.6, 177.001, -10.693, -3.513, -35.320, 27.68, 0.05447, 0.16367, -0.16077, 0.97174,
 12:15:19.011,e3:ca:2d:fd:e0:8c, 2015-01-01 00:28:01.880, 0.992, -0.046, 0.238, 0.122, -0.61, 0, -10.646, -76.371, 173.353, -28.827, -13.107, -10.967, 22.91, -0.10278, -0.60992, 0.10849, -0.77817,
 12:15:19.011,e3:ca:2d:fd:e0:8c, 2015-01-01 00:28:01.880, 0.991, -0.046, 0.238, 0.244, -0.549, 0, -10.651, -76.382, 173.364, -28.827, -13.107, -10.967, 22.91, -0.10278, -0.60992, 0.10849, -0.77817,
 12:15:19.031,ed:40:fe:65:30:6c, 2015-01-01 00:28:07.200, 0.609, -0.173, 0.78, -0.122, -0.122, -0.427, -12.761, -37.354, -116.735, -20.533, -5.920, -6.547, 23.21, -0.46417, 0.32596, 0.07758, 0.81985,
 12:15:19.031,ed:40:fe:65:30:6c, 2015-01-01 00:28:07.200, 0.607, -0.173, 0.778, -0.244, -0.061, -0.427, -12.761, -37.354, -116.757, -20.533, -5.920, -6.547, 23.21, -0.46417, 0.32596, 0.07758, 0.81985,
 12:15:19.033,e3:ca:2d:fd:e0:8c, 2015-01-01 00:28:01.880, 0.991, -0.046, 0.236, 0.183, -0.549, 0, -10.657, -76.393, 173.375, -28.827, -13.107, -10.967, 22.91, -0.10278, -0.60992, 0.10849, -0.77817,
 12:15:19.033,e3:ca:2d:fd:e0:8c, 2015-01-01 00:28:01.880, 0.992, -0.044, 0.235, 0.183, -0.488, 0, -10.668, -76.404, 173.386, -28.827, -13.107, -10.967, 22.91, -0.10278, -0.60992, 0.10849, -0.77817,
 12:15:19.033,f6:90:cc:01:6d:25, 2015-01-01 00:28:02.030, 0.94, -0.063, 0.294, 0.244, 0.244, -0.183, -12.502, -72.339, -156.401, -31.120, -11.260, -6.313, 27.35, -0.09845, 0.5928, 0.03183, 0.79861,
 12:15:19.033,f6:90:cc:01:6d:25, 2015-01-01 00:28:02.030, 0.94, -0.063, 0.293, -0.061, 0.061, -0.122, -12.486, -72.334, -156.39, -31.120, -11.260, -6.313, 27.35, -0.09845, 0.5928, 0.03183, 0.79861,
 12:15:19.034,ed:35:33:d3:6c:f8, 2015-01-01 00:28:02.160, 0.335, -0.291, 0.891, -0.122, -0.122, 0, -18.221, -19.6, 177.017, -10.693, -3.513, -35.320, 27.68, 0.05447, 0.16367, -0.16077, 0.97174,
 12:15:19.034,ed:35:33:d3:6c:f8, 2015-01-01 00:28:02.160, 0.331, -0.289, 0.889, 0.366, 0.061, -0.061, -18.215, -19.594, 177.028, -10.693, -3.513, -35.320, 27.68, 0.05447, 0.16367, -0.16077, 0.97174,
 12:15:19.053,ed:40:fe:65:30:6c, 2015-01-01 00:28:07.200, 0.608, -0.179, 0.779, 0, -0.122, -0.305, -12.761, -37.354, -116.785, -20.533, -5.920, -6.547, 23.21, -0.46417, 0.32596, 0.07758, 0.81985,
 12:15:19.053,ed:40:fe:65:30:6c, 2015-01-01 00:28:07.200, 0.608, -0.18, 0.78, 0, -0.244, -0.305, -12.755, -37.359, -116.801, -20.533, -5.920, -6.547, 23.21, -0.46417, 0.32596, 0.07758, 0.81985,
 12:15:19.080,ed:35:33:d3:6c:f8, 2015-01-01 00:28:02.160, 0.332, -0.295, 0.891, 0.61, -0.183, 0.366, -18.21, -19.594, 177.056, -10.693, -3.513, -35.320, 27.68, 0.05447, 0.16367, -0.16077, 0.97174,
 12:15:19.080,ed:35:33:d3:6c:f8, 2015-01-01 00:28:02.160, 0.332, -0.296, 0.891, 0.366, -0.488, 0.427, -18.204, -19.6, 177.083, -10.693, -3.513, -35.320, 27.68, 0.05447, 0.16367, -0.16077, 0.97174,
 12:15:19.098,ed:40:fe:65:30:6c, 2015-01-01 00:28:07.200, 0.608, -0.177, 0.781, 0.061, -0.366, -0.488, -12.755, -37.365, -116.818, -20.533, -5.920, -6.547, 23.21, -0.46417, 0.32596, 0.07758, 0.81985,
 12:15:19.098,ed:40:fe:65:30:6c, 2015-01-01 00:28:07.200, 0.61, -0.178, 0.779, 0.122, -0.244, -0.549, -12.75, -37.37, -116.84, -20.533, -5.920, -6.547, 23.21, -0.46417, 0.32596, 0.07758, 0.81985,
 12:15:19.098,e3:ca:2d:fd:e0:8c, 2015-01-01 00:28:01.880, 0.995, -0.044, 0.234, 0, -0.366, 0, -10.673, -76.41, 173.397, -28.827, -13.107, -10.967, 22.91, -0.10278, -0.60992, 0.10849, -0.77817,
 12:15:19.098,e3:ca:2d:fd:e0:8c, 2015-01-01 00:28:01.880, 0.993, -0.044, 0.233, -0.122, -0.366, 0, -10.679, -76.415, 173.408, -28.827, -13.107, -10.967, 22.91, -0.10278, -0.60992, 0.10849, -0.77817,
 12:15:19.101,f6:90:cc:01:6d:25, 2015-01-01 00:28:02.030, 0.941, -0.065, 0.294, 0, 0.061, -0.122, -12.48, -72.334, -156.374, -31.120, -11.260, -6.313, 27.35, -0.10126, 0.59219, 0.034, 0.79861,
 12:15:19.101,f6:90:cc:01:6d:25, 2015-01-01 00:28:02.030, 0.941, -0.062, 0.294, -0.183, -0.061, -0.061, -12.475, -72.328, -156.357, -31.120, -11.260, -6.313, 27.35, -0.10126, 0.59219, 0.034, 0.79861,
 12:15:19.122,e3:ca:2d:fd:e0:8c, 2015-01-01 00:28:01.880, 0.994, -0.043, 0.233, -0.122, -0.305, 0, -10.69, -76.421, 173.419, -28.827, -13.107, -10.967, 22.91, -0.10278, -0.60992, 0.10849, -0.77817,
 12:15:19.122,e3:ca:2d:fd:e0:8c, 2015-01-01 00:28:01.880, 0.995, -0.044, 0.231, -0.183, -0.183, 0, -10.695, -76.426, 173.425, -28.827, -13.107, -10.967, 22.91, -0.10278, -0.60992, 0.10849, -0.77817,
 12:15:19.124,f6:90:cc:01:6d:25, 2015-01-01 00:28:02.365, 0.942, -0.062, 0.293, -0.244, -0.122, -0.122, -12.475, -72.328, -156.341, -31.120, -11.260, -6.313, 27.35, -0.10126, 0.59219, 0.034, 0.79861,
 12:15:19.124,f6:90:cc:01:6d:25, 2015-01-01 00:28:02.365, 0.941, -0.064, 0.292, -0.183, -0.122, -0.244, -12.464, -72.334, -156.33, -31.120, -11.260, -6.313, 27.35, -0.10126, 0.59219, 0.034, 0.79861,
 12:15:19.124,ed:35:33:d3:6c:f8, 2015-01-01 00:28:02.160, 0.331, -0.295, 0.892, 0.61, -0.366, 0.122, -18.193, -19.605, 177.105, -10.920, -3.840, -34.953, 27.68, 0.05447, 0.16367, -0.16077, 0.97174,
 12:15:19.124,ed:35:33:d3:6c:f8, 2015-01-01 00:28:02.160, 0.334, -0.292, 0.89, 0.488, -0.916, 0.244, -18.193, -19.616, 177.127, -10.920, -3.840, -34.953, 27.68, 0.05447, 0.16367, -0.16077, 0.97174,
 12:15:19.145,f6:90:cc:01:6d:25, 2015-01-01 00:28:02.365, 0.941, -0.063, 0.294, -0.061, -0.122, -0.183, -12.458, -72.334, -156.319, -31.120, -11.260, -6.313, 27.35, -0.10126, 0.59219, 0.034, 0.79861,
 12:15:19.145,f6:90:cc:01:6d:25, 2015-01-01 00:28:02.365, 0.94, -0.063, 0.295, -0.061, -0.122, -0.183, -12.448, -72.334, -156.308, -31.120, -11.260, -6.313, 27.35, -0.10126, 0.59219, 0.034, 0.79861,
 12:15:19.147,ed:35:33:d3:6c:f8, 2015-01-01 00:28:02.160, 0.33, -0.289, 0.89, 0.183, -1.099, 1.099, -18.199, -19.627, 177.155, -10.920, -3.840, -34.953, 27.68, 0.05103, 0.1644, -0.15997, 0.97195,
 12:15:19.147,ed:35:33:d3:6c:f8, 2015-01-01 00:28:02.160, 0.33, -0.293, 0.89, 0, -0.244, 1.038, -18.204, -19.627, 177.177, -10.920, -3.840, -34.953, 27.68, 0.05103, 0.1644, -0.15997, 0.97195,
 12:15:19.167,e3:ca:2d:fd:e0:8c, 2015-01-01 00:28:01.880, 0.994, -0.045, 0.232, -0.183, -0.122, 0, -10.706, -76.432, 173.43, -28.827, -13.107, -10.967, 22.91, -0.10278, -0.60992, 0.10849, -0.77817,
 12:15:19.167,e3:ca:2d:fd:e0:8c, 2015-01-01 00:28:01.880, 0.993, -0.045, 0.232, -0.061, -0.061, 0, -10.706, -76.432, 173.436, -28.827, -13.107, -10.967, 22.91, -0.10278, -0.60992, 0.10849, -0.77817,
 12:15:19.167,ed:40:fe:65:30:6c, 2015-01-01 00:28:07.200, 0.608, -0.176, 0.779, 0.183, -0.061, -0.366, -12.739, -37.37, -116.856, -20.533, -5.920, -6.547, 23.21, -0.46417, 0.32596, 0.07758, 0.81985,
 12:15:19.167,ed:40:fe:65:30:6c, 2015-01-01 00:28:07.200, 0.607, -0.174, 0.782, 0.122, -0.122, -0.183, -12.733, -37.375, -116.873, -20.533, -5.920, -6.547, 23.21, -0.46417, 0.32596, 0.07758, 0.81985,
 12:15:19.188,ed:40:fe:65:30:6c, 2015-01-01 00:28:07.200, 0.606, -0.177, 0.781, 0.061, 0.061, -0.244, -12.728, -37.375, -116.889, -20.633, -5.993, -6.233, 23.21, -0.46417, 0.32596, 0.07758, 0.81985,
 12:15:19.188,ed:40:fe:65:30:6c, 2015-01-01 00:28:07.200, 0.606, -0.178, 0.78, 0.122, 0, -0.244, -12.722, -37.37, -116.9, -20.633, -5.993, -6.233, 23.21, -0.46417, 0.32596, 0.07758, 0.81985,
 12:15:19.190,e3:ca:2d:fd:e0:8c, 2015-01-01 00:28:01.880, 0.992, -0.046, 0.234, -0.061, -0.061, 0, -10.712, -76.432, 173.441, -28.760, -12.887, -11.460, 22.91, -0.10278, -0.60992, 0.10849, -0.77817,
 12:15:19.190,e3:ca:2d:fd:e0:8c, 2015-01-01 00:28:01.880, 0.991, -0.046, 0.235, 0, 0, 0, -10.717, -76.437, 173.441, -28.760, -12.887, -11.460, 22.91, -0.10278, -0.60992, 0.10849, -0.77817,
 12:15:19.190,f6:90:cc:01:6d:25, 2015-01-01 00:28:02.365, 0.939, -0.064, 0.294, -0.122, -0.183, -0.061, -12.442, -72.339, -156.292, -31.120, -11.260, -6.313, 27.35, -0.10126, 0.59219, 0.034, 0.79861,
 12:15:19.190,f6:90:cc:01:6d:25, 2015-01-01 00:28:02.365, 0.939, -0.064, 0.294, -0.122, -0.244, 0, -12.442, -72.339, -156.27, -31.120, -11.260, -6.313, 27.35, -0.10126, 0.59219, 0.034, 0.79861,
 12:15:19.192,ed:35:33:d3:6c:f8, 2015-01-01 00:28:02.160, 0.33, -0.294, 0.892, -0.122, 0.488, 0.427, -18.21, -19.611, 177.193, -10.920, -3.840, -34.953, 27.68, 0.05103, 0.1644, -0.15997, 0.97195,
 12:15:19.192,ed:35:33:d3:6c:f8, 2015-01-01 00:28:02.160, 0.328, -0.293, 0.891, 0.122, 0.671, 0.549, -18.21, -19.594, 177.209, -10.920, -3.840, -34.953, 27.68, 0.05103, 0.1644, -0.15997, 0.97195,
 12:15:19.233,ed:40:fe:65:30:6c, 2015-01-01 00:28:07.200, 0.606, -0.177, 0.78, 0.061, -0.061, -0.366, -12.717, -37.37, -116.917, -20.633, -5.993, -6.233, 23.21, -0.46417, 0.32596, 0.07758, 0.81985,
 12:15:19.233,ed:40:fe:65:30:6c, 2015-01-01 00:28:07.200, 0.605, -0.179, 0.779, 0.122, -0.244, -0.366, -12.711, -37.375, -116.933, -20.633, -5.993, -6.233, 23.21, -0.46417, 0.32596, 0.07758, 0.81985,
 12:15:19.234,e3:ca:2d:fd:e0:8c, 2015-01-01 00:28:01.880, 0.991, -0.046, 0.235, 0, 0, 0, -10.717, -76.437, 173.447, -28.760, -12.887, -11.460, 22.91, -0.10278, -0.60992, 0.10849, -0.77817,
 12:15:19.234,e3:ca:2d:fd:e0:8c, 2015-01-01 00:28:01.880, 0.992, -0.045, 0.235, 0, -0.061, 0, -10.723, -76.437, 173.452, -28.760, -12.887, -11.460, 22.91, -0.10278, -0.60992, 0.10849, -0.77817,
 12:15:19.235,f6:90:cc:01:6d:25, 2015-01-01 00:28:02.365, 0.94, -0.065, 0.296, -0.122, -0.244, 0, -12.448, -72.345, -156.248, -31.120, -11.260, -6.313, 27.35, -0.10126, 0.59219, 0.034, 0.79861,
 12:15:19.235,f6:90:cc:01:6d:25, 2015-01-01 00:28:02.365, 0.94, -0.065, 0.295, 0, -0.183, 0, -12.448, -72.35, -156.226, -31.120, -11.260, -6.313, 27.35, -0.10126, 0.59219, 0.034, 0.79861,
 12:15:19.237,ed:35:33:d3:6c:f8, 2015-01-01 00:28:02.450, 0.328, -0.295, 0.891, 0.122, 1.038, 0.793, -18.21, -19.567, 177.231, -10.920, -3.840, -34.953, 27.68, 0.05103, 0.1644, -0.15997, 0.97195,
 12:15:19.237,ed:35:33:d3:6c:f8, 2015-01-01 00:28:02.450, 0.326, -0.296, 0.892, 0.183, 1.16, 0.671, -18.21, -19.539, 177.253, -10.920, -3.840, -34.953, 27.68, 0.05103, 0.1644, -0.15997, 0.97195,
 12:15:19.255,ed:40:fe:65:30:6c, 2015-01-01 00:28:07.200, 0.604, -0.18, 0.782, 0.244, -0.366, -0.244, -12.706, -37.375, -116.949, -20.633, -5.993, -6.233, 23.21, -0.46204, 0.32626, 0.07712, 0.82098,
 12:15:19.255,ed:40:fe:65:30:6c, 2015-01-01 00:28:07.200, 0.607, -0.177, 0.782, 0.488, -0.305, 0.122, -12.7, -37.381, -116.96, -20.633, -5.993, -6.233, 23.21, -0.46204, 0.32626, 0.07712, 0.82098,
 12:15:19.281,f6:90:cc:01:6d:25, 2015-01-01 00:28:02.365, 0.939, -0.068, 0.296, 0.183, -0.244, 0, -12.448, -72.35, -156.204, -31.120, -11.260, -6.313, 27.35, -0.10126, 0.59219, 0.034, 0.79861,
 12:15:19.281,f6:90:cc:01:6d:25, 2015-01-01 00:28:02.365, 0.941, -0.067, 0.296, 0.427, -0.244, 0, -12.448, -72.35, -156.176, -31.120, -11.260, -6.313, 27.35, -0.10126, 0.59219, 0.034, 0.79861,
 12:15:19.283,ed:35:33:d3:6c:f8, 2015-01-01 00:28:02.450, 0.326, -0.294, 0.894, 0.305, 0.977, 0.671, -18.21, -19.512, 177.275, -10.920, -3.840, -34.953, 27.68, 0.05103, 0.1644, -0.15997, 0.97195,
 12:15:19.283,ed:35:33:d3:6c:f8, 2015-01-01 00:28:02.450, 0.331, -0.291, 0.895, 0.671, 0.122, 0.854, -18.199, -19.506, 177.314, -10.920, -3.840, -34.953, 27.68, 0.05103, 0.1644, -0.15997, 0.97195,
 12:15:19.300,ed:40:fe:65:30:6c, 2015-01-01 00:28:07.200, 0.612, -0.175, 0.779, 0.671, -0.244, 0.305, -12.695, -37.386, -116.96, -20.633, -5.993, -6.233, 23.21, -0.46204, 0.32626, 0.07712, 0.82098,
 12:15:19.300,ed:40:fe:65:30:6c, 2015-01-01 00:28:07.200, 0.612, -0.177, 0.774, 1.038, -0.061, 0.183, -12.689, -37.386, -116.96, -20.633, -5.993, -6.233, 23.21, -0.46204, 0.32626, 0.07712, 0.82098,
 12:15:19.304,e3:ca:2d:fd:e0:8c, 2015-01-01 00:28:01.880, 0.992, -0.046, 0.236, 0, 0, 0, -10.723, -76.437, 173.458, -28.760, -12.887, -11.460, 22.91, -0.10236, -0.61075, 0.10846, -0.77759,
 12:15:19.304,e3:ca:2d:fd:e0:8c, 2015-01-01 00:28:01.880, 0.991, -0.047, 0.236, 0, 0, 0, -10.728, -76.437, 173.458, -28.760, -12.887, -11.460, 22.91, -0.10236, -0.61075, 0.10846, -0.77759,
 12:15:19.324,e3:ca:2d:fd:e0:8c, 2015-01-01 00:28:02.235, 0.992, -0.046, 0.237, 0, -0.183, 0, -10.734, -76.443, 173.463, -28.760, -12.887, -11.460, 22.91, -0.10236, -0.61075, 0.10846, -0.77759,
 12:15:19.324,e3:ca:2d:fd:e0:8c, 2015-01-01 00:28:02.235, 0.992, -0.043, 0.235, 0, -0.183, 0, -10.739, -76.443, 173.469, -28.760, -12.887, -11.460, 22.91, -0.10236, -0.61075, 0.10846, -0.77759,
 12:15:19.325,f6:90:cc:01:6d:25, 2015-01-01 00:28:02.365, 0.943, -0.062, 0.296, 0.549, -0.244, 0.061, -12.442, -72.356, -156.154, -31.120, -11.260, -6.313, 27.35, -0.10126, 0.59219, 0.034, 0.79861,
 12:15:19.325,f6:90:cc:01:6d:25, 2015-01-01 00:28:02.365, 0.939, -0.06, 0.292, 0.305, -0.061, 0.122, -12.442, -72.356, -156.121, -31.120, -11.260, -6.313, 27.35, -0.10126, 0.59219, 0.034, 0.79861,
 12:15:19.327,ed:35:33:d3:6c:f8, 2015-01-01 00:28:02.450, 0.333, -0.293, 0.888, 0.732, 0.916, 0.244, -18.188, -19.484, 177.314, -10.920, -3.840, -34.953, 27.68, 0.05103, 0.1644, -0.15997, 0.97195,
 12:15:19.327,ed:35:33:d3:6c:f8, 2015-01-01 00:28:02.450, 0.332, -0.293, 0.886, 0.549, 2.441, 0.183, -18.171, -19.435, 177.292, -10.920, -3.840, -34.953, 27.68, 0.05103, 0.1644, -0.15997, 0.97195,
 12:15:19.346,ed:40:fe:65:30:6c, 2015-01-01 00:28:07.535, 0.602, -0.177, 0.775, 0.916, 0.061, 0.061, -12.673, -37.381, -116.966, -20.633, -5.993, -6.233, 23.21, -0.46204, 0.32626, 0.07712, 0.82098,
 12:15:19.346,ed:40:fe:65:30:6c, 2015-01-01 00:28:07.535, 0.611, -0.171, 0.778, 0.366, 0.061, 0, -12.656, -37.381, -116.971, -20.633, -5.993, -6.233, 23.21, -0.46204, 0.32626, 0.07712, 0.82098,
 12:15:19.348,f6:90:cc:01:6d:25, 2015-01-01 00:28:02.365, 0.938, -0.063, 0.294, 0.183, 0.183, 0, -12.437, -72.35, -156.105, -31.253, -11.500, -6.973, 27.35, -0.10126, 0.59219, 0.034, 0.79861,
 12:15:19.348,f6:90:cc:01:6d:25, 2015-01-01 00:28:02.365, 0.944, -0.063, 0.292, -0.305, 0.183, 0.183, -12.448, -72.345, -156.077, -31.253, -11.500, -6.973, 27.35, -0.10126, 0.59219, 0.034, 0.79861,
 12:15:19.350,ed:35:33:d3:6c:f8, 2015-01-01 00:28:02.450, 0.324, -0.293, 0.889, 0.732, 2.075, 0.916, -18.16, -19.391, 177.292, -10.920, -3.840, -34.953, 27.68, 0.05103, 0.1644, -0.15997, 0.97195,
 12:15:19.350,ed:35:33:d3:6c:f8, 2015-01-01 00:28:02.450, 0.332, -0.29, 0.89, 0.549, 2.075, 0.427, -18.149, -19.347, 177.281, -10.920, -3.840, -34.953, 27.68, 0.05103, 0.1644, -0.15997, 0.97195,
 12:15:19.368,ed:40:fe:65:30:6c, 2015-01-01 00:28:07.535, 0.612, -0.171, 0.779, 0.061, 0.244, 0, -12.651, -37.375, -116.977, -20.633, -5.993, -6.233, 23.21, -0.46204, 0.32626, 0.07712, 0.82098,
 12:15:19.368,ed:40:fe:65:30:6c, 2015-01-01 00:28:07.535, 0.604, -0.18, 0.784, 0.61, -0.122, 0.061, -12.651, -37.37, -116.988, -20.633, -5.993, -6.233, 23.21, -0.46204, 0.32626, 0.07712, 0.82098,
 12:15:19.370,e3:ca:2d:fd:e0:8c, 2015-01-01 00:28:02.235, 0.991, -0.043, 0.236, -0.122, -0.183, 0, -10.745, -76.448, 173.474, -28.760, -12.887, -11.460, 22.91, -0.10236, -0.61075, 0.10846, -0.77759,
 12:15:19.370,e3:ca:2d:fd:e0:8c, 2015-01-01 00:28:02.235, 0.996, -0.046, 0.233, -0.244, -0.061, 0, -10.756, -76.448, 173.48, -28.760, -12.887, -11.460, 22.91, -0.10236, -0.61075, 0.10846, -0.77759,
 12:15:19.392,e3:ca:2d:fd:e0:8c, 2015-01-01 00:28:02.235, 0.997, -0.045, 0.234, -0.122, -0.244, 0, -10.761, -76.454, 173.485, -28.760, -12.887, -11.460, 22.91, -0.10236, -0.61075, 0.10846, -0.77759,
 12:15:19.392,e3:ca:2d:fd:e0:8c, 2015-01-01 00:28:02.235, 0.993, -0.042, 0.232, -0.183, 0, 0, -10.767, -76.454, 173.491, -28.760, -12.887, -11.460, 22.91, -0.10236, -0.61075, 0.10846, -0.77759,
 12:15:19.393,f6:90:cc:01:6d:25, 2015-01-01 00:28:02.365, 0.944, -0.063, 0.294, -0.916, 0.061, 0.427, -12.48, -72.339, -156.039, -31.253, -11.500, -6.973, 27.35, -0.10126, 0.59219, 0.034, 0.79861,
 12:15:19.393,f6:90:cc:01:6d:25, 2015-01-01 00:28:02.365, 0.94, -0.062, 0.292, -0.488, -0.122, 0.366, -12.513, -72.339, -155.995, -31.253, -11.500, -6.973, 27.35, -0.10126, 0.59219, 0.034, 0.79861,
 12:15:19.395,ed:35:33:d3:6c:f8, 2015-01-01 00:28:02.450, 0.316, -0.292, 0.894, 0.61, 3.845, -0.732, -18.122, -19.281, 177.237, -10.920, -3.840, -34.953, 27.68, 0.05103, 0.1644, -0.15997, 0.97195,
 12:15:19.395,ed:35:33:d3:6c:f8, 2015-01-01 00:28:02.450, 0.319, -0.3, 0.901, 0.732, 2.502, -0.244, -18.094, -19.232, 177.215, -10.920, -3.840, -34.953, 27.68, 0.05103, 0.1644, -0.15997, 0.97195,
 12:15:19.413,ed:40:fe:65:30:6c, 2015-01-01 00:28:07.535, 0.604, -0.184, 0.785, 0.916, 0, -0.061, -12.634, -37.37, -116.993, -20.633, -5.993, -6.233, 23.21, -0.46204, 0.32626, 0.07712, 0.82098,
 12:15:19.413,ed:40:fe:65:30:6c, 2015-01-01 00:28:07.535, 0.608, -0.178, 0.785, 0.916, -0.061, -0.122, -12.618, -37.37, -117.004, -20.633, -5.993, -6.233, 23.21, -0.46204, 0.32626, 0.07712, 0.82098,
 12:15:19.436,e3:ca:2d:fd:e0:8c, 2015-01-01 00:28:02.235, 0.993, -0.044, 0.232, -0.305, 0.122, 0, -10.772, -76.448, 173.491, -28.760, -12.887, -11.460, 22.91, -0.10236, -0.61075, 0.10846, -0.77759,
 12:15:19.436,e3:ca:2d:fd:e0:8c, 2015-01-01 00:28:02.235, 0.994, -0.046, 0.232, -0.122, -0.061, 0, -10.778, -76.454, 173.496, -28.760, -12.887, -11.460, 22.91, -0.10236, -0.61075, 0.10846, -0.77759,
 12:15:19.440,ed:35:33:d3:6c:f8, 2015-01-01 00:28:02.450, 0.323, -0.293, 0.899, 0.61, 1.709, -0.549, -18.073, -19.188, 177.198, -10.720, -3.773, -35.267, 27.68, 0.05103, 0.1644, -0.15997, 0.97195,
 12:15:19.440,ed:35:33:d3:6c:f8, 2015-01-01 00:28:02.450, 0.323, -0.291, 0.892, 0.427, 1.343, -0.61, -18.056, -19.16, 177.188, -10.720, -3.773, -35.267, 27.68, 0.05103, 0.1644, -0.15997, 0.97195,
 12:15:19.458,ed:40:fe:65:30:6c, 2015-01-01 00:28:07.535, 0.607, -0.174, 0.78, 0.854, -0.183, -0.122, -12.601, -37.37, -117.01, -20.633, -5.993, -6.233, 23.21, -0.46204, 0.32626, 0.07712, 0.82098,
 12:15:19.458,ed:40:fe:65:30:6c, 2015-01-01 00:28:07.535, 0.605, -0.176, 0.777, 0.916, -0.061, -0.122, -12.585, -37.37, -117.021, -20.633, -5.993, -6.233, 23.21, -0.46204, 0.32626, 0.07712, 0.82098,
 12:15:19.460,f6:90:cc:01:6d:25, 2015-01-01 00:28:02.365, 0.941, -0.067, 0.294, -0.122, -0.183, 0, -12.519, -72.339, -155.967, -31.253, -11.500, -6.973, 27.35, -0.10388, 0.5921, 0.03592, 0.79825,
 12:15:19.460,f6:90:cc:01:6d:25, 2015-01-01 00:28:02.365, 0.94, -0.066, 0.295, 0.183, -0.183, -0.122, -12.513, -72.345, -155.951, -31.253, -11.500, -6.973, 27.35, -0.10388, 0.5921, 0.03592, 0.79825,
 12:15:19.484,ed:35:33:d3:6c:f8, 2015-01-01 00:28:02.450, 0.322, -0.291, 0.891, 0.061, 0.854, -0.244, -18.045, -19.138, 177.166, -10.720, -3.773, -35.267, 27.68, 0.05011, 0.16034, -0.15866, 0.97287,
 12:15:19.484,ed:35:33:d3:6c:f8, 2015-01-01 00:28:02.450, 0.322, -0.289, 0.893, 0.061, 1.221, 0.061, -18.045, -19.122, 177.16, -10.720, -3.773, -35.267, 27.68, 0.05011, 0.16034, -0.15866, 0.97287,
 12:15:19.484,f6:90:cc:01:6d:25, 2015-01-01 00:28:02.720, 0.939, -0.063, 0.292, 0.305, -0.183, -0.122, -12.502, -72.345, -155.94, -31.253, -11.500, -6.973, 27.35, -0.10388, 0.5921, 0.03592, 0.79825,
 12:15:19.484,f6:90:cc:01:6d:25, 2015-01-01 00:28:02.720, 0.939, -0.064, 0.292, 0.427, -0.183, -0.183, -12.486, -72.35, -155.929, -31.253, -11.500, -6.973, 27.35, -0.10388, 0.5921, 0.03592, 0.79825,
 12:15:19.504,e3:ca:2d:fd:e0:8c, 2015-01-01 00:28:02.235, 0.993, -0.045, 0.234, 0.061, 0, 0, -10.778, -76.454, 173.502, -28.760, -12.887, -11.460, 22.91, -0.10236, -0.61075, 0.10846, -0.77759,
 12:15:19.504,e3:ca:2d:fd:e0:8c, 2015-01-01 00:28:02.235, 0.993, -0.045, 0.233, 0.122, 0.183, 0, -10.772, -76.448, 173.502, -28.760, -12.887, -11.460, 22.91, -0.10236, -0.61075, 0.10846, -0.77759,
 12:15:19.506,f6:90:cc:01:6d:25, 2015-01-01 00:28:02.720, 0.941, -0.065, 0.295, 0.488, -0.122, -0.183, -12.464, -72.35, -155.923, -31.253, -11.500, -6.973, 27.35, -0.10388, 0.5921, 0.03592, 0.79825,
 12:15:19.506,f6:90:cc:01:6d:25, 2015-01-01 00:28:02.720, 0.941, -0.064, 0.295, 0.549, 0, -0.061, -12.448, -72.35, -155.912, -31.253, -11.500, -6.973, 27.35, -0.10388, 0.5921, 0.03592, 0.79825,
 12:15:19.526,e3:ca:2d:fd:e0:8c, 2015-01-01 00:28:02.235, 0.993, -0.046, 0.235, 0, 0.122, 0, -10.772, -76.448, 173.502, -28.640, -13.247, -11.027, 22.91, -0.10236, -0.61075, 0.10846, -0.77759,
 12:15:19.526,e3:ca:2d:fd:e0:8c, 2015-01-01 00:28:02.235, 0.992, -0.048, 0.236, 0.061, 0.122, 0, -10.772, -76.448, 173.502, -28.640, -13.247, -11.027, 22.91, -0.10236, -0.61075, 0.10846, -0.77759,
 12:15:19.526,ed:40:fe:65:30:6c, 2015-01-01 00:28:07.535, 0.607, -0.174, 0.778, 0.793, 0, 0, -12.568, -37.37, -117.032, -20.633, -5.993, -6.233, 23.21, -0.46204, 0.32626, 0.07712, 0.82098,
 12:15:19.526,ed:40:fe:65:30:6c, 2015-01-01 00:28:07.535, 0.608, -0.171, 0.78, 0.671, 0.122, 0.122, -12.557, -37.37, -117.037, -20.633, -5.993, -6.233, 23.21, -0.46204, 0.32626, 0.07712, 0.82098,
 12:15:19.530,ed:35:33:d3:6c:f8, 2015-01-01 00:28:02.760, 0.322, -0.287, 0.895, 0, 1.221, 0.122, -18.04, -19.094, 177.155, -10.720, -3.773, -35.267, 27.68, 0.05011, 0.16034, -0.15866, 0.97287,
 12:15:19.530,ed:35:33:d3:6c:f8, 2015-01-01 00:28:02.760, 0.32, -0.288, 0.897, -0.061, 0.488, 0.061, -18.04, -19.072, 177.155, -10.720, -3.773, -35.267, 27.68, 0.05011, 0.16034, -0.15866, 0.97287,
 12:15:19.548,ed:40:fe:65:30:6c, 2015-01-01 00:28:07.535, 0.606, -0.171, 0.781, 0.427, 0.061, 0.061, -12.552, -37.365, -117.043, -20.460, -5.673, -5.947, 23.21, -0.46204, 0.32626, 0.07712, 0.82098,
 12:15:19.548,ed:40:fe:65:30:6c, 2015-01-01 00:28:07.535, 0.606, -0.173, 0.783, 0.305, 0, 0.183, -12.546, -37.359, -117.043, -20.460, -5.673, -5.947, 23.21, -0.46204, 0.32626, 0.07712, 0.82098,
 12:15:19.550,f6:90:cc:01:6d:25, 2015-01-01 00:28:02.720, 0.94, -0.064, 0.295, 0.366, 0.061, 0.061, -12.437, -72.35, -155.896, -31.253, -11.500, -6.973, 27.35, -0.10388, 0.5921, 0.03592, 0.79825,
 12:15:19.550,f6:90:cc:01:6d:25, 2015-01-01 00:28:02.720, 0.942, -0.064, 0.297, 0.366, 0.061, 0.061, -12.431, -72.345, -155.874, -31.253, -11.500, -6.973, 27.35, -0.10388, 0.5921, 0.03592, 0.79825,
 12:15:19.552,ed:35:33:d3:6c:f8, 2015-01-01 00:28:02.760, 0.322, -0.29, 0.896, 0.183, -0.916, 0.366, -18.04, -19.072, 177.166, -10.720, -3.773, -35.267, 27.68, 0.05011, 0.16034, -0.15866, 0.97287,
 12:15:19.552,ed:35:33:d3:6c:f8, 2015-01-01 00:28:02.760, 0.323, -0.291, 0.896, 0.427, -0.916, 0.488, -18.04, -19.083, 177.182, -10.720, -3.773, -35.267, 27.68, 0.05011, 0.16034, -0.15866, 0.97287,
 12:15:19.572,e3:ca:2d:fd:e0:8c, 2015-01-01 00:28:02.235, 0.992, -0.047, 0.236, 0.305, 0.122, 0, -10.767, -76.443, 173.502, -28.640, -13.247, -11.027, 22.91, -0.10236, -0.61075, 0.10846, -0.77759,
 12:15:19.572,e3:ca:2d:fd:e0:8c, 2015-01-01 00:28:02.235, 0.993, -0.045, 0.237, 0.183, 0, 0, -10.767, -76.443, 173.507, -28.640, -13.247, -11.027, 22.91, -0.10236, -0.61075, 0.10846, -0.77759,
 12:15:19.594,e3:ca:2d:fd:e0:8c, 2015-01-01 00:28:02.235, 0.992, -0.045, 0.236, 0.122, 0, 0, -10.772, -76.443, 173.507, -28.640, -13.247, -11.027, 22.91, -0.10223, -0.61081, 0.10849, -0.77756,
 12:15:19.594,e3:ca:2d:fd:e0:8c, 2015-01-01 00:28:02.235, 0.991, -0.043, 0.236, 0.061, -0.061, 0, -10.772, -76.443, 173.513, -28.640, -13.247, -11.027, 22.91, -0.10223, -0.61081, 0.10849, -0.77756,
 12:15:19.594,ed:40:fe:65:30:6c, 2015-01-01 00:28:07.535, 0.608, -0.174, 0.782, 0.244, 0.061, 0.183, -12.541, -37.359, -117.048, -20.460, -5.673, -5.947, 23.21, -0.46204, 0.32626, 0.07712, 0.82098,
 12:15:19.594,ed:40:fe:65:30:6c, 2015-01-01 00:28:07.535, 0.608, -0.173, 0.78, 0.183, 0.061, 0.183, -12.541, -37.354, -117.048, -20.460, -5.673, -5.947, 23.21, -0.46204, 0.32626, 0.07712, 0.82098,
 12:15:19.598,ed:35:33:d3:6c:f8, 2015-01-01 00:28:02.760, 0.322, -0.291, 0.894, 0.427, -0.671, 0, -18.034, -19.094, 177.193, -10.720, -3.773, -35.267, 27.68, 0.05011, 0.16034, -0.15866, 0.97287,
 12:15:19.598,ed:35:33:d3:6c:f8, 2015-01-01 00:28:02.760, 0.324, -0.289, 0.892, 0.122, -0.183, -0.305, -18.029, -19.105, 177.204, -10.720, -3.773, -35.267, 27.68, 0.05011, 0.16034, -0.15866, 0.97287,
 12:15:19.617,ed:40:fe:65:30:6c, 2015-01-01 00:28:07.535, 0.609, -0.173, 0.779, 0.183, 0.305, 0.183, -12.541, -37.348, -117.054, -20.460, -5.673, -5.947, 23.21, -0.46179, 0.3255, 0.07791, 0.82135,
 12:15:19.617,ed:40:fe:65:30:6c, 2015-01-01 00:28:07.535, 0.608, -0.173, 0.777, 0.061, 0.427, 0.183, -12.541, -37.337, -117.054, -20.460, -5.673, -5.947, 23.21, -0.46179, 0.3255, 0.07791, 0.82135,
 12:15:19.619,f6:90:cc:01:6d:25, 2015-01-01 00:28:02.720, 0.941, -0.064, 0.297, 0.244, 0.122, 0.122, -12.431, -72.339, -155.852, -31.253, -11.500, -6.973, 27.35, -0.10388, 0.5921, 0.03592, 0.79825,
 12:15:19.619,f6:90:cc:01:6d:25, 2015-01-01 00:28:02.720, 0.94, -0.063, 0.296, 0.183, 0.244, 0.061, -12.426, -72.334, -155.836, -31.253, -11.500, -6.973, 27.35, -0.10388, 0.5921, 0.03592, 0.79825,
 12:15:19.639,e3:ca:2d:fd:e0:8c, 2015-01-01 00:28:02.235, 0.992, -0.042, 0.235, 0.061, 0, 0, -10.772, -76.443, 173.513, -28.640, -13.247, -11.027, 22.91, -0.10223, -0.61081, 0.10849, -0.77756,
 12:15:19.639,e3:ca:2d:fd:e0:8c, 2015-01-01 00:28:02.235, 0.993, -0.043, 0.234, 0.061, 0, 0, -10.772, -76.443, 173.518, -28.640, -13.247, -11.027, 22.91, -0.10223, -0.61081, 0.10849, -0.77756,
 12:15:19.642,ed:35:33:d3:6c:f8, 2015-01-01 00:28:02.760, 0.322, -0.293, 0.889, -0.793, 1.038, -0.916, -18.029, -19.105, 177.198, -10.720, -3.773, -35.267, 27.68, 0.05011, 0.16034, -0.15866, 0.97287,
 12:15:19.642,ed:35:33:d3:6c:f8, 2015-01-01 00:28:02.760, 0.319, -0.292, 0.892, -1.648, 1.77, -0.793, -18.04, -19.083, 177.166, -10.720, -3.773, -35.267, 27.68, 0.05011, 0.16034, -0.15866, 0.97287,
 12:15:19.662,ed:40:fe:65:30:6c, 2015-01-01 00:28:07.535, 0.604, -0.177, 0.777, -0.061, 0.671, 0, -12.541, -37.326, -117.065, -20.460, -5.673, -5.947, 23.21, -0.46179, 0.3255, 0.07791, 0.82135,
 12:15:19.662,ed:40:fe:65:30:6c, 2015-01-01 00:28:07.535, 0.603, -0.174, 0.782, 0, 0.793, 0, -12.541, -37.31, -117.076, -20.460, -5.673, -5.947, 23.21, -0.46179, 0.3255, 0.07791, 0.82135,
 12:15:19.664,f6:90:cc:01:6d:25, 2015-01-01 00:28:02.720, 0.941, -0.062, 0.294, 0.244, 0.244, 0.061, -12.42, -72.328, -155.819, -31.253, -11.500, -6.973, 27.35, -0.10388, 0.5921, 0.03592, 0.79825,
 12:15:19.664,f6:90:cc:01:6d:25, 2015-01-01 00:28:02.720, 0.94, -0.063, 0.292, 0.061, 0.244, 0, -12.415, -72.323, -155.803, -31.253, -11.500, -6.973, 27.35, -0.10388, 0.5921, 0.03592, 0.79825,
 12:15:19.685,e3:ca:2d:fd:e0:8c, 2015-01-01 00:28:02.570, 0.993, -0.046, 0.23, 0, 0.305, 0, -10.767, -76.437, 173.513, -28.640, -13.247, -11.027, 22.91, -0.10223, -0.61081, 0.10849, -0.77756,
 12:15:19.685,e3:ca:2d:fd:e0:8c, 2015-01-01 00:28:02.570, 0.996, -0.047, 0.232, -0.061, 0.244, 0, -10.767, -76.432, 173.513, -28.640, -13.247, -11.027, 22.91, -0.10223, -0.61081, 0.10849, -0.77756,
 12:15:19.686,f6:90:cc:01:6d:25, 2015-01-01 00:28:02.720, 0.939, -0.063, 0.288, -0.061, 0.488, 0, -12.409, -72.312, -155.792, -31.080, -11.420, -6.093, 27.35, -0.10388, 0.5921, 0.03592, 0.79825,
 12:15:19.686,f6:90:cc:01:6d:25, 2015-01-01 00:28:02.720, 0.941, -0.064, 0.298, -0.427, 0.061, 0, -12.415, -72.312, -155.781, -31.080, -11.420, -6.093, 27.35, -0.10388, 0.5921, 0.03592, 0.79825,
 12:15:19.686,ed:35:33:d3:6c:f8, 2015-01-01 00:28:02.760, 0.316, -0.293, 0.896, -2.014, 2.014, -0.549, -18.067, -19.05, 177.127, -10.720, -3.773, -35.267, 27.68, 0.05011, 0.16034, -0.15866, 0.97287,
 12:15:19.686,ed:35:33:d3:6c:f8, 2015-01-01 00:28:02.760, 0.323, -0.293, 0.903, -1.709, 2.014, -0.732, -18.094, -19.017, 177.1, -10.720, -3.773, -35.267, 27.68, 0.05011, 0.16034, -0.15866, 0.97287,
 12:15:19.705,ed:40:fe:65:30:6c, 2015-01-01 00:28:07.895, 0.61, -0.174, 0.788, 0, 0.366, -0.061, -12.535, -37.299, -117.081, -20.460, -5.673, -5.947, 23.21, -0.46179, 0.3255, 0.07791, 0.82135,
 12:15:19.705,ed:40:fe:65:30:6c, 2015-01-01 00:28:07.895, 0.611, -0.173, 0.784, 0.122, 0.183, -0.122, -12.535, -37.293, -117.092, -20.460, -5.673, -5.947, 23.21, -0.46179, 0.3255, 0.07791, 0.82135,
 12:15:19.711,ed:35:33:d3:6c:f8, 2015-01-01 00:28:02.760, 0.324, -0.293, 0.901, -1.404, 1.099, -0.549, -18.122, -18.984, 177.116, -10.767, -3.587, -35.733, 27.68, 0.05011, 0.16034, -0.15866, 0.97287,
 12:15:19.711,ed:35:33:d3:6c:f8, 2015-01-01 00:28:02.760, 0.317, -0.292, 0.896, -0.61, -0.488, -0.61, -18.138, -18.973, 177.155, -10.767, -3.587, -35.733, 27.68, 0.05011, 0.16034, -0.15866, 0.97287,
 12:15:19.730,e3:ca:2d:fd:e0:8c, 2015-01-01 00:28:02.570, 0.997, -0.045, 0.233, 0, 0.122, 0, -10.767, -76.432, 173.513, -28.640, -13.247, -11.027, 22.91, -0.10223, -0.61081, 0.10849, -0.77756,
 12:15:19.730,e3:ca:2d:fd:e0:8c, 2015-01-01 00:28:02.570, 0.994, -0.044, 0.234, 0.183, 0.183, 0, -10.761, -76.432, 173.513, -28.640, -13.247, -11.027, 22.91, -0.10223, -0.61081, 0.10849, -0.77756,
 12:15:19.731,f6:90:cc:01:6d:25, 2015-01-01 00:28:02.720, 0.944, -0.063, 0.298, -0.488, -0.061, 0.122, -12.426, -72.312, -155.753, -31.080, -11.420, -6.093, 27.35, -0.10388, 0.5921, 0.03592, 0.79825,
 12:15:19.731,f6:90:cc:01:6d:25, 2015-01-01 00:28:02.720, 0.942, -0.061, 0.294, -0.305, -0.183, 0.183, -12.442, -72.312, -155.726, -31.080, -11.420, -6.093, 27.35, -0.10388, 0.5921, 0.03592, 0.79825,
 12:15:19.750,ed:40:fe:65:30:6c, 2015-01-01 00:28:07.895, 0.605, -0.172, 0.78, 0.061, 0.244, -0.244, -12.53, -37.288, -117.103, -20.460, -5.673, -5.947, 23.21, -0.46179, 0.3255, 0.07791, 0.82135,
 12:15:19.750,ed:40:fe:65:30:6c, 2015-01-01 00:28:07.895, 0.601, -0.172, 0.782, 0.122, 0, -0.366, -12.524, -37.282, -117.12, -20.460, -5.673, -5.947, 23.21, -0.46179, 0.3255, 0.07791, 0.82135,
 12:15:19.753,f6:90:cc:01:6d:25, 2015-01-01 00:28:02.720, 0.937, -0.062, 0.287, -0.366, -0.122, 0.305, -12.469, -72.312, -155.687, -31.080, -11.420, -6.093, 27.35, -0.10626, 0.5918, 0.03772, 0.7981,
 12:15:19.753,f6:90:cc:01:6d:25, 2015-01-01 00:28:02.720, 0.939, -0.064, 0.298, -0.732, -0.427, 0.427, -12.508, -72.318, -155.643, -31.080, -11.420, -6.093, 27.35, -0.10626, 0.5918, 0.03772, 0.7981,
 12:15:19.755,ed:35:33:d3:6c:f8, 2015-01-01 00:28:02.760, 0.318, -0.291, 0.897, -0.183, -1.16, -0.671, -18.144, -18.99, 177.193, -10.767, -3.587, -35.733, 27.68, 0.05011, 0.16034, -0.15866, 0.97287,
 12:15:19.755,ed:35:33:d3:6c:f8, 2015-01-01 00:28:02.760, 0.328, -0.289, 0.896, 0.305, -1.953, -0.549, -18.144, -19.017, 177.22, -10.767, -3.587, -35.733, 27.68, 0.05011, 0.16034, -0.15866, 0.97287,
 12:15:19.773,ed:40:fe:65:30:6c, 2015-01-01 00:28:07.895, 0.609, -0.172, 0.785, 0, -0.244, -0.305, -12.519, -37.288, -117.131, -20.460, -5.673, -5.947, 23.21, -0.46179, 0.3255, 0.07791, 0.82135,
 12:15:19.773,ed:40:fe:65:30:6c, 2015-01-01 00:28:07.895, 0.607, -0.173, 0.779, -0.061, -0.122, -0.061, -12.513, -37.288, -117.142, -20.460, -5.673, -5.947, 23.21, -0.46179, 0.3255, 0.07791, 0.82135,
 12:15:19.775,e3:ca:2d:fd:e0:8c, 2015-01-01 00:28:02.570, 0.99, -0.045, 0.231, 0.244, 0.61, 0, -10.75, -76.421, 173.507, -28.640, -13.247, -11.027, 22.91, -0.10223, -0.61081, 0.10849, -0.77756,
 12:15:19.775,e3:ca:2d:fd:e0:8c, 2015-01-01 00:28:02.570, 0.991, -0.045, 0.234, 0.061, 0.488, 0, -10.745, -76.41, 173.502, -28.640, -13.247, -11.027, 22.91, -0.10223, -0.61081, 0.10849, -0.77756,
 12:15:19.796,e3:ca:2d:fd:e0:8c, 2015-01-01 00:28:02.570, 0.992, -0.043, 0.235, -0.061, 0.244, 0, -10.745, -76.41, 173.502, -28.640, -13.247, -11.027, 22.91, -0.10223, -0.61081, 0.10849, -0.77756,
 12:15:19.796,e3:ca:2d:fd:e0:8c, 2015-01-01 00:28:02.570, 0.99, -0.043, 0.238, 0, 0.122, 0, -10.745, -76.404, 173.502, -28.640, -13.247, -11.027, 22.91, -0.10223, -0.61081, 0.10849, -0.77756,
 12:15:19.799,ed:35:33:d3:6c:f8, 2015-01-01 00:28:02.760, 0.321, -0.292, 0.891, 0.488, -2.258, 0, -18.138, -19.056, 177.253, -10.767, -3.587, -35.733, 27.68, 0.04974, 0.15915, -0.15945, 0.97296,
 12:15:19.799,ed:35:33:d3:6c:f8, 2015-01-01 00:28:02.760, 0.323, -0.292, 0.891, 0.183, -0.977, 0.305, -18.133, -19.089, 177.281, -10.767, -3.587, -35.733, 27.68, 0.04974, 0.15915, -0.15945, 0.97296,
 12:15:19.818,ed:40:fe:65:30:6c, 2015-01-01 00:28:07.895, 0.604, -0.175, 0.78, 0.122, -0.244, 0, -12.513, -37.293, -117.147, -20.460, -5.673, -5.947, 23.21, -0.46179, 0.3255, 0.07791, 0.82135,
 12:15:19.818,ed:40:fe:65:30:6c, 2015-01-01 00:28:07.895, 0.606, -0.175, 0.78, 0, 0, 0, -12.513, -37.293, -117.153, -20.460, -5.673, -5.947, 23.21, -0.46179, 0.3255, 0.07791, 0.82135,
 12:15:19.821,f6:90:cc:01:6d:25, 2015-01-01 00:28:02.720, 0.942, -0.065, 0.299, -0.732, -0.61, 0.549, -12.563, -72.328, -155.583, -31.080, -11.420, -6.093, 27.35, -0.10626, 0.5918, 0.03772, 0.7981,
 12:15:19.821,f6:90:cc:01:6d:25, 2015-01-01 00:28:02.720, 0.939, -0.064, 0.292, -0.183, -0.366, 0.427, -12.59, -72.328, -155.533, -31.080, -11.420, -6.093, 27.35, -0.10626, 0.5918, 0.03772, 0.7981,
 12:15:19.843,f6:90:cc:01:6d:25, 2015-01-01 00:28:03.080, 0.94, -0.065, 0.295, -0.061, -0.061, 0.305, -12.607, -72.328, -155.5, -31.080, -11.420, -6.093, 27.35, -0.10626, 0.5918, 0.03772, 0.7981,
 12:15:19.843,f6:90:cc:01:6d:25, 2015-01-01 00:28:03.080, 0.94, -0.066, 0.296, -0.122, 0, 0.244, -12.623, -72.323, -155.473, -31.080, -11.420, -6.093, 27.35, -0.10626, 0.5918, 0.03772, 0.7981,
 12:15:19.843,e3:ca:2d:fd:e0:8c, 2015-01-01 00:28:02.570, 0.991, -0.044, 0.239, 0, 0.244, 0, -10.739, -76.404, 173.502, -28.640, -13.247, -11.027, 22.91, -0.10223, -0.61081, 0.10849, -0.77756,
 12:15:19.843,e3:ca:2d:fd:e0:8c, 2015-01-01 00:28:02.570, 0.99, -0.046, 0.238, -0.061, 0.122, 0, -10.739, -76.399, 173.502, -28.640, -13.247, -11.027, 22.91, -0.10223, -0.61081, 0.10849, -0.77756,
 12:15:19.845,ed:35:33:d3:6c:f8, 2015-01-01 00:28:03.075, 0.322, -0.295, 0.889, -0.061, -0.549, 0.427, -18.133, -19.1, 177.308, -10.767, -3.587, -35.733, 27.68, 0.04974, 0.15915, -0.15945, 0.97296,
 12:15:19.845,ed:35:33:d3:6c:f8, 2015-01-01 00:28:03.075, 0.324, -0.296, 0.893, 0.305, -0.366, 0.183, -18.138, -19.105, 177.33, -10.767, -3.587, -35.733, 27.68, 0.04974, 0.15915, -0.15945, 0.97296,
 12:15:19.865,f6:90:cc:01:6d:25, 2015-01-01 00:28:03.080, 0.942, -0.066, 0.296, -0.305, -0.122, 0.244, -12.64, -72.323, -155.44, -31.080, -11.420, -6.093, 27.35, -0.10626, 0.5918, 0.03772, 0.7981,
 12:15:19.865,f6:90:cc:01:6d:25, 2015-01-01 00:28:03.080, 0.939, -0.067, 0.296, -0.488, -0.122, 0.122, -12.656, -72.323, -155.418, -31.080, -11.420, -6.093, 27.35, -0.10626, 0.5918, 0.03772, 0.7981,
 12:15:19.885,ed:40:fe:65:30:6c, 2015-01-01 00:28:07.895, 0.607, -0.176, 0.781, 0.061, 0.183, 0, -12.513, -37.288, -117.158, -20.460, -5.673, -5.947, 23.21, -0.46179, 0.3255, 0.07791, 0.82135,
 12:15:19.885,ed:40:fe:65:30:6c, 2015-01-01 00:28:07.895, 0.607, -0.179, 0.781, 0.305, 0.183, -0.061, -12.508, -37.282, -117.164, -20.460, -5.673, -5.947, 23.21, -0.46179, 0.3255, 0.07791, 0.82135,
 12:15:19.890,ed:35:33:d3:6c:f8, 2015-01-01 00:28:03.075, 0.323, -0.297, 0.893, 0.61, -0.671, 0.61, -18.133, -19.105, 177.358, -10.767, -3.587, -35.733, 27.68, 0.04974, 0.15915, -0.15945, 0.97296,
 12:15:19.890,ed:35:33:d3:6c:f8, 2015-01-01 00:28:03.075, 0.325, -0.3, 0.888, 0.488, 0, 0.122, -18.127, -19.111, 177.38, -10.767, -3.587, -35.733, 27.68, 0.04974, 0.15915, -0.15945, 0.97296,
 12:15:19.909,ed:40:fe:65:30:6c, 2015-01-01 00:28:07.895, 0.608, -0.177, 0.777, 0.366, 0.366, -0.122, -12.502, -37.277, -117.175, -20.553, -5.847, -7.033, 23.21, -0.46179, 0.3255, 0.07791, 0.82135,
 12:15:19.909,ed:40:fe:65:30:6c, 2015-01-01 00:28:07.895, 0.607, -0.175, 0.781, 0.183, 0.305, -0.305, -12.497, -37.271, -117.186, -20.553, -5.847, -7.033, 23.21, -0.46179, 0.3255, 0.07791, 0.82135,
 12:15:19.909,e3:ca:2d:fd:e0:8c, 2015-01-01 00:28:02.570, 0.993, -0.045, 0.238, -0.244, 0, 0, -10.745, -76.399, 173.502, -29.007, -13.127, -11.360, 22.91, -0.10223, -0.61081, 0.10849, -0.77756,
 12:15:19.909,e3:ca:2d:fd:e0:8c, 2015-01-01 00:28:02.570, 0.99, -0.045, 0.238, -0.366, 0.061, 0, -10.75, -76.399, 173.502, -29.007, -13.127, -11.360, 22.91, -0.10223, -0.61081, 0.10849, -0.77756,
 12:15:19.911,ed:35:33:d3:6c:f8, 2015-01-01 00:28:03.075, 0.322, -0.295, 0.894, 0.183, 2.075, -1.282, -18.116, -19.1, 177.38, -10.767, -3.587, -35.733, 27.68, 0.04974, 0.15915, -0.15945, 0.97296,
 12:15:19.911,ed:35:33:d3:6c:f8, 2015-01-01 00:28:03.075, 0.315, -0.29, 0.904, 0.366, 1.465, -0.854, -18.1, -19.072, 177.358, -10.767, -3.587, -35.733, 27.68, 0.04974, 0.15915, -0.15945, 0.97296,
 12:15:19.911,f6:90:cc:01:6d:25, 2015-01-01 00:28:03.080, 0.942, -0.069, 0.291, -0.427, 0.305, 0, -12.662, -72.318, -155.407, -31.080, -11.420, -6.093, 27.35, -0.10626, 0.5918, 0.03772, 0.7981,
 12:15:19.911,f6:90:cc:01:6d:25, 2015-01-01 00:28:03.080, 0.943, -0.067, 0.294, -0.61, 0.244, 0.061, -12.673, -72.312, -155.391, -31.080, -11.420, -6.093, 27.35, -0.10626, 0.5918, 0.03772, 0.7981,
 12:15:19.932,e3:ca:2d:fd:e0:8c, 2015-01-01 00:28:02.570, 0.993, -0.048, 0.236, -0.244, 0.183, 0, -10.756, -76.393, 173.502, -29.007, -13.127, -11.360, 22.91, -0.10217, -0.61047, 0.1084, -0.77783,
 12:15:19.932,e3:ca:2d:fd:e0:8c, 2015-01-01 00:28:02.570, 0.998, -0.048, 0.235, -0.061, 0.122, 0, -10.756, -76.388, 173.502, -29.007, -13.127, -11.360, 22.91, -0.10217, -0.61047, 0.1084, -0.77783,
 12:15:19.954,ed:40:fe:65:30:6c, 2015-01-01 00:28:07.895, 0.602, -0.174, 0.786, 0.305, 0.061, -0.122, -12.486, -37.266, -117.202, -20.553, -5.847, -7.033, 23.21, -0.46179, 0.3255, 0.07791, 0.82135,
 12:15:19.954,ed:40:fe:65:30:6c, 2015-01-01 00:28:07.895, 0.605, -0.175, 0.789, 0.122, 0, 0, -12.486, -37.266, -117.208, -20.553, -5.847, -7.033, 23.21, -0.46179, 0.3255, 0.07791, 0.82135,
 12:15:19.955,f6:90:cc:01:6d:25, 2015-01-01 00:28:03.080, 0.941, -0.068, 0.292, -0.488, 0, 0.183, -12.695, -72.307, -155.369, -31.080, -11.420, -6.093, 27.35, -0.10626, 0.5918, 0.03772, 0.7981,
 12:15:19.955,f6:90:cc:01:6d:25, 2015-01-01 00:28:03.080, 0.94, -0.07, 0.294, -0.183, -0.366, 0.183, -12.717, -72.312, -155.336, -31.080, -11.420, -6.093, 27.35, -0.10626, 0.5918, 0.03772, 0.7981,
 12:15:19.957,ed:35:33:d3:6c:f8, 2015-01-01 00:28:03.075, 0.32, -0.295, 0.901, -0.061, 0.488, -0.61, -18.089, -19.05, 177.341, -10.767, -3.587, -35.733, 27.68, 0.04974, 0.15915, -0.15945, 0.97296,
 12:15:19.957,ed:35:33:d3:6c:f8, 2015-01-01 00:28:03.075, 0.32, -0.298, 0.897, -0.732, 0.549, -1.038, -18.089, -19.045, 177.341, -10.767, -3.587, -35.733, 27.68, 0.04974, 0.15915, -0.15945, 0.97296,
 12:15:19.977,e3:ca:2d:fd:e0:8c, 2015-01-01 00:28:02.570, 0.994, -0.046, 0.231, -0.122, 0.366, 0, -10.756, -76.382, 173.502, -29.007, -13.127, -11.360, 22.91, -0.10217, -0.61047, 0.1084, -0.77783,
 12:15:19.977,e3:ca:2d:fd:e0:8c, 2015-01-01 00:28:02.570, 0.992, -0.046, 0.233, -0.122, 0.183, 0, -10.761, -76.377, 173.496, -29.007, -13.127, -11.360, 22.91, -0.10217, -0.61047, 0.1084, -0.77783,
 12:15:19.997,ed:40:fe:65:30:6c, 2015-01-01 00:28:07.895, 0.605, -0.178, 0.783, -0.061, -0.183, -0.061, -12.486, -37.266, -117.213, -20.553, -5.847, -7.033, 23.21, -0.461, 0.32477, 0.07748, 0.82211,
 12:15:19.997,ed:40:fe:65:30:6c, 2015-01-01 00:28:07.895, 0.604, -0.177, 0.782, -0.061, -0.427, -0.244, -12.486, -37.266, -117.219, -20.553, -5.847, -7.033, 23.21, -0.461, 0.32477, 0.07748, 0.82211,
 12:15:20.002,ed:35:33:d3:6c:f8, 2015-01-01 00:28:03.075, 0.32, -0.294, 0.891, -0.793, 0.977, -0.977, -18.1, -19.034, 177.33, -10.767, -3.587, -35.733, 27.68, 0.04974, 0.15915, -0.15945, 0.97296,
 12:15:20.002,ed:35:33:d3:6c:f8, 2015-01-01 00:28:03.075, 0.319, -0.291, 0.895, -0.61, 0.916, -0.793, -18.105, -19.017, 177.319, -10.767, -3.587, -35.733, 27.68, 0.04974, 0.15915, -0.15945, 0.97296,
 12:15:20.022,e3:ca:2d:fd:e0:8c, 2015-01-01 00:28:02.905, 0.992, -0.045, 0.234, 0, 0.244, 0, -10.767, -76.371, 173.496, -29.007, -13.127, -11.360, 22.91, -0.10217, -0.61047, 0.1084, -0.77783,
 12:15:20.022,e3:ca:2d:fd:e0:8c, 2015-01-01 00:28:02.905, 0.991, -0.045, 0.235, -0.061, 0.488, 0, -10.767, -76.366, 173.496, -29.007, -13.127, -11.360, 22.91, -0.10217, -0.61047, 0.1084, -0.77783,
 12:15:20.024,f6:90:cc:01:6d:25, 2015-01-01 00:28:03.080, 0.939, -0.067, 0.294, -0.122, -0.366, 0.183, -12.739, -72.318, -155.308, -31.080, -11.420, -6.093, 27.35, -0.10626, 0.5918, 0.03772, 0.7981,
 12:15:20.024,f6:90:cc:01:6d:25, 2015-01-01 00:28:03.080, 0.939, -0.064, 0.292, -0.122, -0.366, 0, -12.744, -72.323, -155.292, -31.080, -11.420, -6.093, 27.35, -0.10626, 0.5918, 0.03772, 0.7981,
 12:15:20.043,ed:40:fe:65:30:6c, 2015-01-01 00:28:07.895, 0.604, -0.175, 0.779, 0.122, -0.427, -0.244, -12.486, -37.277, -117.23, -20.553, -5.847, -7.033, 23.21, -0.461, 0.32477, 0.07748, 0.82211,
 12:15:20.043,ed:40:fe:65:30:6c, 2015-01-01 00:28:07.895, 0.608, -0.171, 0.779, 0.061, -0.305, -0.061, -12.486, -37.282, -117.235, -20.553, -5.847, -7.033, 23.21, -0.461, 0.32477, 0.07748, 0.82211,
 12:15:20.044,e3:ca:2d:fd:e0:8c, 2015-01-01 00:28:02.905, 0.992, -0.046, 0.236, 0, 0.366, -0.305, -10.756, -76.36, 173.48, -29.007, -13.127, -11.360, 22.91, -0.10217, -0.61047, 0.1084, -0.77783,
 12:15:20.044,e3:ca:2d:fd:e0:8c, 2015-01-01 00:28:02.905, 0.991, -0.045, 0.239, 0.061, 0.305, -0.183, -10.734, -76.355, 173.458, -29.007, -13.127, -11.360, 22.91, -0.10217, -0.61047, 0.1084, -0.77783,
 12:15:20.046,f6:90:cc:01:6d:25, 2015-01-01 00:28:03.080, 0.941, -0.067, 0.294, 0.061, -0.244, -0.061, -12.744, -72.328, -155.275, -31.293, -11.073, -6.693, 27.35, -0.10626, 0.5918, 0.03772, 0.7981,
 12:15:20.046,f6:90:cc:01:6d:25, 2015-01-01 00:28:03.080, 0.942, -0.064, 0.294, 0.183, -0.183, 0, -12.744, -72.334, -155.264, -31.293, -11.073, -6.693, 27.35, -0.10626, 0.5918, 0.03772, 0.7981,
 12:15:20.046,ed:35:33:d3:6c:f8, 2015-01-01 00:28:03.075, 0.324, -0.289, 0.89, -0.488, 0.427, -0.549, -18.111, -19.006, 177.319, -10.667, -3.860, -35.547, 27.68, 0.04974, 0.15915, -0.15945, 0.97296,
 12:15:20.046,ed:35:33:d3:6c:f8, 2015-01-01 00:28:03.075, 0.323, -0.29, 0.893, -0.183, 1.404, -1.343, -18.116, -18.995, 177.314, -10.667, -3.860, -35.547, 27.68, 0.04974, 0.15915, -0.15945, 0.97296,
 12:15:20.065,ed:40:fe:65:30:6c, 2015-01-01 00:28:08.250, 0.61, -0.169, 0.78, 0.061, -0.183, 0, -12.486, -37.282, -117.241, -20.553, -5.847, -7.033, 23.21, -0.461, 0.32477, 0.07748, 0.82211,
 12:15:20.065,ed:40:fe:65:30:6c, 2015-01-01 00:28:08.250, 0.607, -0.171, 0.781, 0, -0.061, 0, -12.486, -37.282, -117.246, -20.553, -5.847, -7.033, 23.21, -0.461, 0.32477, 0.07748, 0.82211,
 12:15:20.089,e3:ca:2d:fd:e0:8c, 2015-01-01 00:28:02.905, 0.99, -0.045, 0.241, 0.061, 0.305, -0.122, -10.717, -76.349, 173.441, -29.007, -13.127, -11.360, 22.91, -0.10217, -0.61047, 0.1084, -0.77783,
 12:15:20.089,e3:ca:2d:fd:e0:8c, 2015-01-01 00:28:02.905, 0.991, -0.044, 0.241, 0, 0.305, 0, -10.706, -76.344, 173.43, -29.007, -13.127, -11.360, 22.91, -0.10217, -0.61047, 0.1084, -0.77783,
 12:15:20.090,f6:90:cc:01:6d:25, 2015-01-01 00:28:03.080, 0.941, -0.063, 0.295, 0.122, -0.183, 0, -12.744, -72.334, -155.248, -31.293, -11.073, -6.693, 27.35, -0.10626, 0.5918, 0.03772, 0.7981,
 12:15:20.090,f6:90:cc:01:6d:25, 2015-01-01 00:28:03.080, 0.941, -0.063, 0.296, 0, -0.122, 0, -12.744, -72.339, -155.231, -31.293, -11.073, -6.693, 27.35, -0.10626, 0.5918, 0.03772, 0.7981,
 12:15:20.092,ed:35:33:d3:6c:f8, 2015-01-01 00:28:03.075, 0.321, -0.289, 0.895, -0.305, 1.526, -1.343, -18.105, -18.973, 177.297, -10.667, -3.860, -35.547, 27.68, 0.04886, 0.15909, -0.159, 0.97308,
 12:15:20.092,ed:35:33:d3:6c:f8, 2015-01-01 00:28:03.075, 0.321, -0.289, 0.896, -0.061, 0.916, -0.183, -18.1, -18.957, 177.286, -10.667, -3.860, -35.547, 27.68, 0.04886, 0.15909, -0.159, 0.97308,
 12:15:20.110,ed:40:fe:65:30:6c, 2015-01-01 00:28:08.250, 0.607, -0.172, 0.783, 0.122, 0, 0.061, -12.486, -37.282, -117.246, -20.553, -5.847, -7.033, 23.21, -0.461, 0.32477, 0.07748, 0.82211,
 12:15:20.110,ed:40:fe:65:30:6c, 2015-01-01 00:28:08.250, 0.608, -0.172, 0.782, 0.122, 0.061, 0.183, -12.486, -37.277, -117.246, -20.553, -5.847, -7.033, 23.21, -0.461, 0.32477, 0.07748, 0.82211,
 12:15:20.114,ed:35:33:d3:6c:f8, 2015-01-01 00:28:03.365, 0.322, -0.292, 0.896, -0.122, 0.732, -0.061, -18.1, -18.94, 177.292, -10.667, -3.860, -35.547, 27.68, 0.04886, 0.15909, -0.159, 0.97308,
 12:15:20.114,ed:35:33:d3:6c:f8, 2015-01-01 00:28:03.365, 0.319, -0.289, 0.893, -0.366, 1.221, -0.549, -18.1, -18.924, 177.292, -10.667, -3.860, -35.547, 27.68, 0.04886, 0.15909, -0.159, 0.97308,
 12:15:20.114,f6:90:cc:01:6d:25, 2015-01-01 00:28:03.080, 0.942, -0.064, 0.297, 0, 0, 0.122, -12.744, -72.339, -155.22, -31.293, -11.073, -6.693, 27.35, -0.10803, 0.59207, 0.03824, 0.79761,
 12:15:20.114,f6:90:cc:01:6d:25, 2015-01-01 00:28:03.080, 0.94, -0.064, 0.295, 0, 0.122, 0.122, -12.75, -72.334, -155.198, -31.293, -11.073, -6.693, 27.35, -0.10803, 0.59207, 0.03824, 0.79761,
 12:15:20.135,e3:ca:2d:fd:e0:8c, 2015-01-01 00:28:02.905, 0.992, -0.045, 0.24, -0.061, 0.244, 0, -10.706, -76.339, 173.425, -29.007, -13.127, -11.360, 22.91, -0.10217, -0.61047, 0.1084, -0.77783,
 12:15:20.135,e3:ca:2d:fd:e0:8c, 2015-01-01 00:28:02.905, 0.99, -0.044, 0.239, 0, 0.122, 0, -10.701, -76.333, 173.425, -29.007, -13.127, -11.360, 22.91, -0.10217, -0.61047, 0.1084, -0.77783,
 12:15:20.156,ed:40:fe:65:30:6c, 2015-01-01 00:28:08.250, 0.606, -0.172, 0.781, 0.061, 0, 0.061, -12.486, -37.277, -117.252, -20.553, -5.847, -7.033, 23.21, -0.461, 0.32477, 0.07748, 0.82211,
 12:15:20.156,ed:40:fe:65:30:6c, 2015-01-01 00:28:08.250, 0.605, -0.17, 0.779, 0.061, 0.183, 0.244, -12.486, -37.271, -117.252, -20.553, -5.847, -7.033, 23.21, -0.461, 0.32477, 0.07748, 0.82211,
 12:15:20.158,f6:90:cc:01:6d:25, 2015-01-01 00:28:03.080, 0.939, -0.064, 0.294, 0, 0.305, 0.061, -12.75, -72.328, -155.182, -31.293, -11.073, -6.693, 27.35, -0.10803, 0.59207, 0.03824, 0.79761,
 12:15:20.158,f6:90:cc:01:6d:25, 2015-01-01 00:28:03.080, 0.938, -0.064, 0.294, 0, 0.183, 0.122, -12.75, -72.323, -155.171, -31.293, -11.073, -6.693, 27.35, -0.10803, 0.59207, 0.03824, 0.79761,
 12:15:20.159,ed:35:33:d3:6c:f8, 2015-01-01 00:28:03.365, 0.318, -0.288, 0.894, -0.671, 1.465, -0.549, -18.1, -18.902, 177.27, -10.667, -3.860, -35.547, 27.68, 0.04886, 0.15909, -0.159, 0.97308,
 12:15:20.159,ed:35:33:d3:6c:f8, 2015-01-01 00:28:03.365, 0.313, -0.29, 0.895, -0.549, 0.916, -0.061, -18.105, -18.88, 177.253, -10.667, -3.860, -35.547, 27.68, 0.04886, 0.15909, -0.159, 0.97308,
 12:15:20.179,ed:40:fe:65:30:6c, 2015-01-01 00:28:08.250, 0.603, -0.17, 0.781, 0, 0.244, 0.305, -12.491, -37.266, -117.252, -20.553, -5.847, -7.033, 23.21, -0.461, 0.32477, 0.07748, 0.82211,
 12:15:20.179,ed:40:fe:65:30:6c, 2015-01-01 00:28:08.250, 0.603, -0.174, 0.783, 0.122, 0.122, 0.244, -12.491, -37.26, -117.252, -20.553, -5.847, -7.033, 23.21, -0.461, 0.32477, 0.07748, 0.82211,
 12:15:20.179,e3:ca:2d:fd:e0:8c, 2015-01-01 00:28:02.905, 0.991, -0.043, 0.237, 0, 0.122, 0, -10.701, -76.333, 173.425, -29.007, -13.127, -11.360, 22.91, -0.10217, -0.61047, 0.1084, -0.77783,
 12:15:20.179,e3:ca:2d:fd:e0:8c, 2015-01-01 00:28:02.905, 0.992, -0.043, 0.236, -0.061, 0.061, 0.061, -10.701, -76.328, 173.425, -29.007, -13.127, -11.360, 22.91, -0.10217, -0.61047, 0.1084, -0.77783,
 12:15:20.202,e3:ca:2d:fd:e0:8c, 2015-01-01 00:28:02.905, 0.993, -0.045, 0.235, -0.061, 0.061, 0.061, -10.706, -76.328, 173.43, -28.740, -12.940, -11.133, 22.91, -0.10217, -0.61047, 0.1084, -0.77783,
 12:15:20.202,e3:ca:2d:fd:e0:8c, 2015-01-01 00:28:02.905, 0.994, -0.045, 0.235, 0, 0.061, 0, -10.706, -76.328, 173.436, -28.740, -12.940, -11.133, 22.91, -0.10217, -0.61047, 0.1084, -0.77783,
 12:15:20.203,f6:90:cc:01:6d:25, 2015-01-01 00:28:03.415, 0.94, -0.064, 0.295, 0, 0.061, 0.122, -12.75, -72.318, -155.154, -31.293, -11.073, -6.693, 27.35, -0.10803, 0.59207, 0.03824, 0.79761,
 12:15:20.203,f6:90:cc:01:6d:25, 2015-01-01 00:28:03.415, 0.941, -0.065, 0.294, -0.183, -0.061, 0.061, -12.75, -72.318, -155.132, -31.293, -11.073, -6.693, 27.35, -0.10803, 0.59207, 0.03824, 0.79761,
 12:15:20.204,ed:35:33:d3:6c:f8, 2015-01-01 00:28:03.365, 0.318, -0.294, 0.898, 0, -0.122, 0.671, -18.116, -18.864, 177.253, -10.667, -3.860, -35.547, 27.68, 0.04886, 0.15909, -0.159, 0.97308,
 12:15:20.204,ed:35:33:d3:6c:f8, 2015-01-01 00:28:03.365, 0.319, -0.294, 0.9, 0.183, -1.16, 0.549, -18.116, -18.864, 177.275, -10.667, -3.860, -35.547, 27.68, 0.04886, 0.15909, -0.159, 0.97308,
 12:15:20.246,e3:ca:2d:fd:e0:8c, 2015-01-01 00:28:02.905, 0.994, -0.046, 0.235, 0.061, 0.061, 0, -10.706, -76.322, 173.436, -28.740, -12.940, -11.133, 22.91, -0.10217, -0.61047, 0.1084, -0.77783,
 12:15:20.246,e3:ca:2d:fd:e0:8c, 2015-01-01 00:28:02.905, 0.994, -0.045, 0.236, 0.122, 0.183, 0.061, -10.706, -76.322, 173.441, -28.740, -12.940, -11.133, 22.91, -0.10217, -0.61047, 0.1084, -0.77783,
 12:15:20.246,ed:40:fe:65:30:6c, 2015-01-01 00:28:08.250, 0.606, -0.174, 0.785, 0.122, 0.122, 0.122, -12.491, -37.255, -117.252, -20.553, -5.847, -7.033, 23.21, -0.461, 0.32477, 0.07748, 0.82211,
 12:15:20.246,ed:40:fe:65:30:6c, 2015-01-01 00:28:08.250, 0.607, -0.173, 0.783, 0.122, 0, 0.061, -12.486, -37.249, -117.252, -20.553, -5.847, -7.033, 23.21, -0.461, 0.32477, 0.07748, 0.82211,
 12:15:20.248,f6:90:cc:01:6d:25, 2015-01-01 00:28:03.415, 0.942, -0.065, 0.294, -0.122, -0.122, 0.061, -12.755, -72.318, -155.121, -31.293, -11.073, -6.693, 27.35, -0.10803, 0.59207, 0.03824, 0.79761,
 12:15:20.248,f6:90:cc:01:6d:25, 2015-01-01 00:28:03.415, 0.943, -0.064, 0.292, -0.061, -0.244, 0.183, -12.761, -72.318, -155.099, -31.293, -11.073, -6.693, 27.35, -0.10803, 0.59207, 0.03824, 0.79761,
 12:15:20.250,ed:35:33:d3:6c:f8, 2015-01-01 00:28:03.365, 0.318, -0.294, 0.898, 0.183, -0.61, 0.122, -18.116, -18.88, 177.292, -10.667, -3.860, -35.547, 27.68, 0.04886, 0.15909, -0.159, 0.97308,
 12:15:20.250,ed:35:33:d3:6c:f8, 2015-01-01 00:28:03.365, 0.322, -0.292, 0.899, 0.122, -0.061, -0.671, -18.116, -18.885, 177.303, -10.667, -3.860, -35.547, 27.68, 0.04886, 0.15909, -0.159, 0.97308,
 12:15:20.268,ed:40:fe:65:30:6c, 2015-01-01 00:28:08.250, 0.608, -0.171, 0.785, 0, -0.183, -0.061, -12.486, -37.249, -117.257, -20.933, -5.460, -6.373, 23.21, -0.461, 0.32477, 0.07748, 0.82211,
 12:15:20.268,ed:40:fe:65:30:6c, 2015-01-01 00:28:08.250, 0.609, -0.171, 0.78, -0.061, -0.183, -0.061, -12.486, -37.255, -117.263, -20.933, -5.460, -6.373, 23.21, -0.461, 0.32477, 0.07748, 0.82211,
 12:15:20.270,f6:90:cc:01:6d:25, 2015-01-01 00:28:03.415, 0.943, -0.066, 0.29, -0.061, -0.366, 0.244, -12.777, -72.318, -155.072, -31.293, -11.073, -6.693, 27.35, -0.10803, 0.59207, 0.03824, 0.79761,
 12:15:20.270,f6:90:cc:01:6d:25, 2015-01-01 00:28:03.415, 0.942, -0.068, 0.291, -0.122, -0.427, 0.305, -12.794, -72.323, -155.039, -31.293, -11.073, -6.693, 27.35, -0.10803, 0.59207, 0.03824, 0.79761,
 12:15:20.295,ed:35:33:d3:6c:f8, 2015-01-01 00:28:03.365, 0.323, -0.291, 0.896, 0.244, -0.977, -0.854, -18.105, -18.896, 177.292, -10.667, -3.860, -35.547, 27.68, 0.04886, 0.15909, -0.159, 0.97308,
 12:15:20.295,ed:35:33:d3:6c:f8, 2015-01-01 00:28:03.365, 0.323, -0.291, 0.894, 0.183, -0.793, -0.488, -18.1, -18.913, 177.27, -10.667, -3.860, -35.547, 27.68, 0.04886, 0.15909, -0.159, 0.97308,
 12:15:20.313,ed:40:fe:65:30:6c, 2015-01-01 00:28:08.250, 0.608, -0.173, 0.781, -0.061, -0.183, 0, -12.486, -37.255, -117.268, -20.933, -5.460, -6.373, 23.21, -0.461, 0.32477, 0.07748, 0.82211,
 12:15:20.313,ed:40:fe:65:30:6c, 2015-01-01 00:28:08.250, 0.607, -0.173, 0.779, -0.122, -0.183, 0.122, -12.491, -37.26, -117.268, -20.933, -5.460, -6.373, 23.21, -0.461, 0.32477, 0.07748, 0.82211,
 12:15:20.316,f6:90:cc:01:6d:25, 2015-01-01 00:28:03.415, 0.94, -0.068, 0.291, -0.244, -0.427, 0.305, -12.821, -72.334, -155.001, -31.293, -11.073, -6.693, 27.35, -0.10803, 0.59207, 0.03824, 0.79761,
 12:15:20.316,f6:90:cc:01:6d:25, 2015-01-01 00:28:03.415, 0.94, -0.068, 0.29, -0.244, -0.183, 0.305, -12.849, -72.339, -154.968, -31.293, -11.073, -6.693, 27.35, -0.10803, 0.59207, 0.03824, 0.79761,
 12:15:20.316,e3:ca:2d:fd:e0:8c, 2015-01-01 00:28:02.905, 0.994, -0.046, 0.236, 0, 0.305, 0.122, -10.712, -76.317, 173.447, -28.740, -12.940, -11.133, 22.91, -0.10233, -0.60995, 0.10843, -0.7782,
 12:15:20.316,e3:ca:2d:fd:e0:8c, 2015-01-01 00:28:02.905, 0.992, -0.046, 0.237, 0, 0.305, 0, -10.712, -76.311, 173.452, -28.740, -12.940, -11.133, 22.91, -0.10233, -0.60995, 0.10843, -0.7782,
 12:15:20.318,ed:35:33:d3:6c:f8, 2015-01-01 00:28:03.365, 0.322, -0.292, 0.891, 0, 0, -0.427, -18.094, -18.929, 177.259, -10.333, -3.500, -35.613, 27.68, 0.04886, 0.15909, -0.159, 0.97308,
 12:15:20.318,ed:35:33:d3:6c:f8, 2015-01-01 00:28:03.365, 0.318, -0.294, 0.891, -0.122, 0, 0, -18.089, -18.929, 177.242, -10.333, -3.500, -35.613, 27.68, 0.04886, 0.15909, -0.159, 0.97308,
 12:15:20.336,ed:40:fe:65:30:6c, 2015-01-01 00:28:08.250, 0.606, -0.176, 0.777, 0, 0, 0.305, -12.497, -37.255, -117.268, -20.933, -5.460, -6.373, 23.21, -0.46057, 0.3248, 0.07721, 0.82239,
 12:15:20.336,ed:40:fe:65:30:6c, 2015-01-01 00:28:08.250, 0.608, -0.176, 0.781, 0, 0, 0.244, -12.502, -37.255, -117.263, -20.933, -5.460, -6.373, 23.21, -0.46057, 0.3248, 0.07721, 0.82239,
 12:15:20.338,e3:ca:2d:fd:e0:8c, 2015-01-01 00:28:03.240, 0.991, -0.045, 0.236, 0, 0.427, 0, -10.712, -76.306, 173.447, -28.740, -12.940, -11.133, 22.91, -0.10233, -0.60995, 0.10843, -0.7782,
 12:15:20.338,e3:ca:2d:fd:e0:8c, 2015-01-01 00:28:03.240, 0.991, -0.046, 0.235, 0, 0.488, -0.061, -10.706, -76.3, 173.441, -28.740, -12.940, -11.133, 22.91, -0.10233, -0.60995, 0.10843, -0.7782,
 12:15:20.359,e3:ca:2d:fd:e0:8c, 2015-01-01 00:28:03.240, 0.993, -0.045, 0.238, -0.061, 0.427, -0.061, -10.695, -76.289, 173.43, -28.740, -12.940, -11.133, 22.91, -0.10233, -0.60995, 0.10843, -0.7782,
 12:15:20.361,e3:ca:2d:fd:e0:8c, 2015-01-01 00:28:03.240, 0.989, -0.043, 0.24, 0, 0.305, 0, -10.69, -76.284, 173.419, -28.740, -12.940, -11.133, 22.91, -0.10233, -0.60995, 0.10843, -0.7782,
 12:15:20.362,ed:35:33:d3:6c:f8, 2015-01-01 00:28:03.365, 0.321, -0.298, 0.895, -0.549, 0.549, -0.183, -18.094, -18.924, 177.231, -10.333, -3.500, -35.613, 27.68, 0.04886, 0.15909, -0.159, 0.97308,
 12:15:20.362,ed:35:33:d3:6c:f8, 2015-01-01 00:28:03.365, 0.318, -0.297, 0.895, -0.671, 1.038, -0.244, -18.105, -18.913, 177.226, -10.333, -3.500, -35.613, 27.68, 0.04886, 0.15909, -0.159, 0.97308,
 12:15:20.362,f6:90:cc:01:6d:25, 2015-01-01 00:28:03.415, 0.942, -0.067, 0.292, -0.122, -0.183, 0.305, -12.87, -72.339, -154.935, -31.293, -11.073, -6.693, 27.35, -0.10803, 0.59207, 0.03824, 0.79761,
 12:15:20.362,f6:90:cc:01:6d:25, 2015-01-01 00:28:03.415, 0.94, -0.065, 0.297, 0, -0.305, 0.183, -12.892, -72.345, -154.902, -31.293, -11.073, -6.693, 27.35, -0.10803, 0.59207, 0.03824, 0.79761,
 12:15:20.381,ed:40:fe:65:30:6c, 2015-01-01 00:28:08.250, 0.607, -0.178, 0.783, 0.061, -0.061, 0, -12.502, -37.255, -117.268, -20.933, -5.460, -6.373, 23.21, -0.46057, 0.3248, 0.07721, 0.82239,
 12:15:20.381,ed:40:fe:65:30:6c, 2015-01-01 00:28:08.250, 0.602, -0.174, 0.779, -0.061, 0, -0.122, -12.502, -37.255, -117.274, -20.933, -5.460, -6.373, 23.21, -0.46057, 0.3248, 0.07721, 0.82239,
 12:15:20.405,e3:ca:2d:fd:e0:8c, 2015-01-01 00:28:03.240, 0.989, -0.046, 0.239, -0.061, 0.488, 0, -10.69, -76.278, 173.419, -28.740, -12.940, -11.133, 22.91, -0.10233, -0.60995, 0.10843, -0.7782,
 12:15:20.405,e3:ca:2d:fd:e0:8c, 2015-01-01 00:28:03.240, 0.993, -0.048, 0.238, -0.122, 0.366, -0.122, -10.679, -76.267, 173.408, -28.740, -12.940, -11.133, 22.91, -0.10233, -0.60995, 0.10843, -0.7782,
 12:15:20.407,ed:35:33:d3:6c:f8, 2015-01-01 00:28:03.365, 0.315, -0.292, 0.895, -0.732, -0.183, -0.305, -18.116, -18.896, 177.22, -10.333, -3.500, -35.613, 27.68, 0.04935, 0.15851, -0.15903, 0.97318,
 12:15:20.407,ed:35:33:d3:6c:f8, 2015-01-01 00:28:03.365, 0.321, -0.289, 0.896, -0.549, 0, -1.099, -18.127, -18.902, 177.198, -10.333, -3.500, -35.613, 27.68, 0.04935, 0.15851, -0.15903, 0.97318,
 12:15:20.427,ed:40:fe:65:30:6c, 2015-01-01 00:28:08.610, 0.604, -0.17, 0.782, -0.61, 0, -0.244, -12.508, -37.255, -117.279, -20.933, -5.460, -6.373, 23.21, -0.46057, 0.3248, 0.07721, 0.82239,
 12:15:20.427,ed:40:fe:65:30:6c, 2015-01-01 00:28:08.610, 0.605, -0.173, 0.785, -0.244, -0.061, 0, -12.513, -37.255, -117.285, -20.933, -5.460, -6.373, 23.21, -0.46057, 0.3248, 0.07721, 0.82239,
 12:15:20.429,f6:90:cc:01:6d:25, 2015-01-01 00:28:03.415, 0.938, -0.066, 0.292, 0, 0.061, 0, -12.903, -72.345, -154.88, -30.993, -11.527, -7.467, 27.35, -0.10803, 0.59207, 0.03824, 0.79761,
 12:15:20.429,f6:90:cc:01:6d:25, 2015-01-01 00:28:03.415, 0.94, -0.069, 0.294, -0.366, 0.183, 0.122, -12.909, -72.339, -154.869, -30.993, -11.527, -7.467, 27.35, -0.10803, 0.59207, 0.03824, 0.79761,
 12:15:20.451,e3:ca:2d:fd:e0:8c, 2015-01-01 00:28:03.240, 0.992, -0.045, 0.239, -0.305, 0.366, -0.244, -10.668, -76.262, 173.392, -28.740, -12.940, -11.133, 22.91, -0.10233, -0.60995, 0.10843, -0.7782,
 12:15:20.451,e3:ca:2d:fd:e0:8c, 2015-01-01 00:28:03.240, 0.99, -0.044, 0.24, -0.122, 0.244, -0.122, -10.657, -76.256, 173.37, -28.740, -12.940, -11.133, 22.91, -0.10233, -0.60995, 0.10843, -0.7782,
 12:15:20.451,f6:90:cc:01:6d:25, 2015-01-01 00:28:03.415, 0.943, -0.068, 0.295, -0.427, -0.183, 0.305, -12.925, -72.339, -154.847, -30.993, -11.527, -7.467, 27.35, -0.1098, 0.59213, 0.03894, 0.7973,
 12:15:20.451,f6:90:cc:01:6d:25, 2015-01-01 00:28:03.415, 0.941, -0.07, 0.298, -0.122, -0.488, 0.244, -12.953, -72.345, -154.814, -30.993, -11.527, -7.467, 27.35, -0.1098, 0.59213, 0.03894, 0.7973,
 12:15:20.452,ed:35:33:d3:6c:f8, 2015-01-01 00:28:03.680, 0.318, -0.29, 0.898, -0.366, -0.061, -0.427, -18.133, -18.907, 177.166, -10.333, -3.500, -35.613, 27.68, 0.04935, 0.15851, -0.15903, 0.97318,
 12:15:20.452,ed:35:33:d3:6c:f8, 2015-01-01 00:28:03.680, 0.317, -0.295, 0.898, -0.488, 0.061, 0, -18.138, -18.907, 177.149, -10.333, -3.500, -35.613, 27.68, 0.04935, 0.15851, -0.15903, 0.97318,
 12:15:20.471,ed:40:fe:65:30:6c, 2015-01-01 00:28:08.610, 0.606, -0.175, 0.787, -0.183, -0.183, 0.244, -12.524, -37.255, -117.285, -20.933, -5.460, -6.373, 23.21, -0.46057, 0.3248, 0.07721, 0.82239,
 12:15:20.471,ed:40:fe:65:30:6c, 2015-01-01 00:28:08.610, 0.601, -0.177, 0.783, -0.305, -0.183, 0.244, -12.535, -37.255, -117.285, -20.933, -5.460, -6.373, 23.21, -0.46057, 0.3248, 0.07721, 0.82239,
 12:15:20.495,e3:ca:2d:fd:e0:8c, 2015-01-01 00:28:03.240, 0.989, -0.046, 0.24, 0.122, 0.061, -0.061, -10.646, -76.251, 173.359, -28.740, -12.940, -11.133, 22.91, -0.10233, -0.60995, 0.10843, -0.7782,
 12:15:20.495,e3:ca:2d:fd:e0:8c, 2015-01-01 00:28:03.240, 0.991, -0.045, 0.239, 0, 0.061, -0.061, -10.64, -76.251, 173.359, -28.740, -12.940, -11.133, 22.91, -0.10233, -0.60995, 0.10843, -0.7782,
 12:15:20.496,f6:90:cc:01:6d:25, 2015-01-01 00:28:03.415, 0.938, -0.067, 0.294, 0.305, -0.183, 0.122, -12.969, -72.35, -154.786, -30.993, -11.527, -7.467, 27.35, -0.1098, 0.59213, 0.03894, 0.7973,
 12:15:20.496,f6:90:cc:01:6d:25, 2015-01-01 00:28:03.415, 0.939, -0.065, 0.295, 0.183, 0, 0.183, -12.975, -72.345, -154.764, -30.993, -11.527, -7.467, 27.35, -0.1098, 0.59213, 0.03894, 0.7973,
 12:15:20.497,ed:35:33:d3:6c:f8, 2015-01-01 00:28:03.680, 0.313, -0.296, 0.897, -0.671, 0.305, -0.061, -18.144, -18.902, 177.144, -10.333, -3.500, -35.613, 27.68, 0.04935, 0.15851, -0.15903, 0.97318,
 12:15:20.497,ed:35:33:d3:6c:f8, 2015-01-01 00:28:03.680, 0.321, -0.294, 0.897, -0.366, -1.221, 0.183, -18.16, -18.902, 177.138, -10.333, -3.500, -35.613, 27.68, 0.04935, 0.15851, -0.15903, 0.97318,
 12:15:20.517,ed:40:fe:65:30:6c, 2015-01-01 00:28:08.610, 0.604, -0.176, 0.783, -0.305, -0.366, 0, -12.541, -37.26, -117.285, -20.933, -5.460, -6.373, 23.21, -0.46057, 0.3248, 0.07721, 0.82239,
 12:15:20.517,ed:40:fe:65:30:6c, 2015-01-01 00:28:08.610, 0.608, -0.175, 0.779, -0.244, -0.244, -0.122, -12.546, -37.26, -117.29, -20.933, -5.460, -6.373, 23.21, -0.46057, 0.3248, 0.07721, 0.82239,
 12:15:20.519,ed:35:33:d3:6c:f8, 2015-01-01 00:28:03.680, 0.324, -0.294, 0.89, -0.244, -2.38, 0.183, -18.171, -18.924, 177.149, -10.333, -3.500, -35.613, 27.68, 0.04935, 0.15851, -0.15903, 0.97318,
 12:15:20.519,ed:35:33:d3:6c:f8, 2015-01-01 00:28:03.680, 0.322, -0.292, 0.889, -0.244, -1.099, 0, -18.177, -18.962, 177.155, -10.333, -3.500, -35.613, 27.68, 0.04935, 0.15851, -0.15903, 0.97318,
 12:15:20.539,e3:ca:2d:fd:e0:8c, 2015-01-01 00:28:03.240, 0.993, -0.043, 0.237, -0.122, 0.122, -0.122, -10.64, -76.251, 173.348, -28.740, -12.940, -11.133, 22.91, -0.10233, -0.60995, 0.10843, -0.7782,
 12:15:20.539,e3:ca:2d:fd:e0:8c, 2015-01-01 00:28:03.240, 0.992, -0.044, 0.237, -0.122, 0.061, -0.061, -10.629, -76.245, 173.342, -28.740, -12.940, -11.133, 22.91, -0.10233, -0.60995, 0.10843, -0.7782,
 12:15:20.539,ed:40:fe:65:30:6c, 2015-01-01 00:28:08.610, 0.608, -0.174, 0.778, -0.183, -0.183, -0.122, -12.552, -37.266, -117.296, -20.933, -5.460, -6.373, 23.21, -0.46057, 0.3248, 0.07721, 0.82239,
 12:15:20.539,ed:40:fe:65:30:6c, 2015-01-01 00:28:08.610, 0.607, -0.173, 0.778, -0.183, 0, 0.061, -12.557, -37.26, -117.296, -20.933, -5.460, -6.373, 23.21, -0.46057, 0.3248, 0.07721, 0.82239,
 12:15:20.541,f6:90:cc:01:6d:25, 2015-01-01 00:28:03.750, 0.941, -0.066, 0.293, 0, -0.061, 0.061, -12.98, -72.345, -154.748, -30.993, -11.527, -7.467, 27.35, -0.1098, 0.59213, 0.03894, 0.7973,
 12:15:20.541,f6:90:cc:01:6d:25, 2015-01-01 00:28:03.750, 0.941, -0.067, 0.293, 0, -0.061, 0, -12.98, -72.345, -154.737, -30.993, -11.527, -7.467, 27.35, -0.1098, 0.59213, 0.03894, 0.7973,
 12:15:20.562,e3:ca:2d:fd:e0:8c, 2015-01-01 00:28:03.240, 0.991, -0.045, 0.239, 0, 0, 0, -10.629, -76.245, 173.342, -28.680, -13.313, -11.280, 22.91, -0.10233, -0.60995, 0.10843, -0.7782,
 12:15:20.562,e3:ca:2d:fd:e0:8c, 2015-01-01 00:28:03.240, 0.991, -0.046, 0.24, 0.061, 0.061, 0, -10.629, -76.245, 173.342, -28.680, -13.313, -11.280, 22.91, -0.10233, -0.60995, 0.10843, -0.7782,
 12:15:20.563,f6:90:cc:01:6d:25, 2015-01-01 00:28:03.750, 0.941, -0.068, 0.291, 0.183, -0.061, 0, -12.975, -72.345, -154.726, -30.993, -11.527, -7.467, 27.35, -0.1098, 0.59213, 0.03894, 0.7973,
 12:15:20.563,f6:90:cc:01:6d:25, 2015-01-01 00:28:03.750, 0.939, -0.068, 0.292, 0.061, 0, 0, -12.975, -72.345, -154.715, -30.993, -11.527, -7.467, 27.35, -0.1098, 0.59213, 0.03894, 0.7973,
 12:15:20.565,ed:35:33:d3:6c:f8, 2015-01-01 00:28:03.680, 0.32, -0.294, 0.891, -0.488, 0.061, -0.183, -18.188, -18.973, 177.166, -10.333, -3.500, -35.613, 27.68, 0.04935, 0.15851, -0.15903, 0.97318,
 12:15:20.565,ed:35:33:d3:6c:f8, 2015-01-01 00:28:03.680, 0.316, -0.294, 0.9, -0.244, 0.549, -0.305, -18.193, -18.968, 177.149, -10.333, -3.500, -35.613, 27.68, 0.04935, 0.15851, -0.15903, 0.97318,
 12:15:20.583,ed:40:fe:65:30:6c, 2015-01-01 00:28:08.610, 0.603, -0.175, 0.782, -0.183, 0, 0, -12.557, -37.26, -117.301, -20.933, -5.460, -6.373, 23.21, -0.46057, 0.3248, 0.07721, 0.82239,
 12:15:20.583,ed:40:fe:65:30:6c, 2015-01-01 00:28:08.610, 0.603, -0.176, 0.786, 0, -0.244, 0, -12.563, -37.266, -117.301, -20.933, -5.460, -6.373, 23.21, -0.46057, 0.3248, 0.07721, 0.82239,
 12:15:20.608,e3:ca:2d:fd:e0:8c, 2015-01-01 00:28:03.240, 0.994, -0.046, 0.238, 0, 0.183, 0, -10.629, -76.245, 173.342, -28.680, -13.313, -11.280, 22.91, -0.10233, -0.60995, 0.10843, -0.7782,
 12:15:20.608,e3:ca:2d:fd:e0:8c, 2015-01-01 00:28:03.240, 0.994, -0.047, 0.238, -0.061, 0.183, 0, -10.629, -76.24, 173.342, -28.680, -13.313, -11.280, 22.91, -0.10233, -0.60995, 0.10843, -0.7782,
 12:15:20.608,f6:90:cc:01:6d:25, 2015-01-01 00:28:03.750, 0.94, -0.067, 0.295, 0.061, 0, -0.061, -12.969, -72.345, -154.709, -30.993, -11.527, -7.467, 27.35, -0.1098, 0.59213, 0.03894, 0.7973,
 12:15:20.608,f6:90:cc:01:6d:25, 2015-01-01 00:28:03.750, 0.944, -0.069, 0.291, 0.061, -0.122, 0, -12.969, -72.345, -154.698, -30.993, -11.527, -7.467, 27.35, -0.1098, 0.59213, 0.03894, 0.7973,
 12:15:20.610,ed:35:33:d3:6c:f8, 2015-01-01 00:28:03.680, 0.324, -0.291, 0.902, 0.549, -1.587, 0.549, -18.193, -18.968, 177.149, -10.333, -3.500, -35.613, 27.68, 0.04935, 0.15851, -0.15903, 0.97318,
 12:15:20.610,ed:35:33:d3:6c:f8, 2015-01-01 00:28:03.680, 0.334, -0.292, 0.893, 0.549, -1.77, -0.061, -18.188, -18.995, 177.171, -10.333, -3.500, -35.613, 27.68, 0.04935, 0.15851, -0.15903, 0.97318,
 12:15:20.632,f6:90:cc:01:6d:25, 2015-01-01 00:28:03.750, 0.945, -0.066, 0.289, -0.183, -0.244, 0.183, -12.975, -72.345, -154.682, -30.993, -11.527, -7.467, 27.35, -0.1098, 0.59213, 0.03894, 0.7973,
 12:15:20.632,f6:90:cc:01:6d:25, 2015-01-01 00:28:03.750, 0.945, -0.066, 0.291, -0.244, -0.122, 0.305, -12.997, -72.345, -154.655, -30.993, -11.527, -7.467, 27.35, -0.1098, 0.59213, 0.03894, 0.7973,
 12:15:20.650,ed:40:fe:65:30:6c, 2015-01-01 00:28:08.610, 0.615, -0.171, 0.782, 0, -0.183, 0.183, -12.563, -37.266, -117.301, -20.713, -6.007, -6.307, 23.21, -0.46057, 0.3248, 0.07721, 0.82239,
 12:15:20.650,ed:40:fe:65:30:6c, 2015-01-01 00:28:08.610, 0.614, -0.171, 0.776, 0, -0.244, 0.183, -12.568, -37.266, -117.301, -20.713, -6.007, -6.307, 23.21, -0.46057, 0.3248, 0.07721, 0.82239,
 12:15:20.655,ed:35:33:d3:6c:f8, 2015-01-01 00:28:03.680, 0.327, -0.291, 0.888, 0.305, -0.244, -1.526, -18.177, -19.017, 177.171, -10.700, -3.747, -36.480, 27.68, 0.04935, 0.15851, -0.15903, 0.97318,
 12:15:20.655,ed:35:33:d3:6c:f8, 2015-01-01 00:28:03.680, 0.325, -0.291, 0.895, 0.671, 1.16, -0.244, -18.16, -19.023, 177.155, -10.700, -3.747, -36.480, 27.68, 0.04935, 0.15851, -0.15903, 0.97318,
 12:15:20.673,ed:40:fe:65:30:6c, 2015-01-01 00:28:08.610, 0.612, -0.175, 0.778, 0.183, -0.183, 0.366, -12.568, -37.266, -117.296, -20.713, -6.007, -6.307, 23.21, -0.46014, 0.3252, 0.07663, 0.82251,
 12:15:20.673,ed:40:fe:65:30:6c, 2015-01-01 00:28:08.610, 0.609, -0.177, 0.78, -0.122, -0.061, 0.305, -12.574, -37.266, -117.29, -20.713, -6.007, -6.307, 23.21, -0.46014, 0.3252, 0.07663, 0.82251,
 12:15:20.674,e3:ca:2d:fd:e0:8c, 2015-01-01 00:28:03.240, 0.991, -0.045, 0.239, 0, 0.183, 0, -10.629, -76.24, 173.337, -28.680, -13.313, -11.280, 22.91, -0.10257, -0.60938, 0.10843, -0.77863,
 12:15:20.674,e3:ca:2d:fd:e0:8c, 2015-01-01 00:28:03.240, 0.994, -0.044, 0.239, -0.122, 0.305, 0, -10.629, -76.234, 173.337, -28.680, -13.313, -11.280, 22.91, -0.10257, -0.60938, 0.10843, -0.77863,
 12:15:20.678,ed:35:33:d3:6c:f8, 2015-01-01 00:28:03.680, 0.322, -0.294, 0.894, 0.244, 0.61, 0.854, -18.149, -19.006, 177.16, -10.700, -3.747, -36.480, 27.68, 0.05008, 0.15909, -0.15952, 0.97296,
 12:15:20.678,ed:35:33:d3:6c:f8, 2015-01-01 00:28:03.680, 0.32, -0.293, 0.892, 0.061, -0.488, 0.61, -18.149, -18.99, 177.188, -10.700, -3.747, -36.480, 27.68, 0.05008, 0.15909, -0.15952, 0.97296,
 12:15:20.698,e3:ca:2d:fd:e0:8c, 2015-01-01 00:28:03.600, 0.993, -0.045, 0.239, -0.244, 0.183, 0, -10.635, -76.229, 173.331, -28.680, -13.313, -11.280, 22.91, -0.10257, -0.60938, 0.10843, -0.77863,
 12:15:20.698,e3:ca:2d:fd:e0:8c, 2015-01-01 00:28:03.600, 0.991, -0.044, 0.238, -0.061, 0.183, 0, -10.635, -76.223, 173.331, -28.680, -13.313, -11.280, 22.91, -0.10257, -0.60938, 0.10843, -0.77863,
 12:15:20.698,f6:90:cc:01:6d:25, 2015-01-01 00:28:03.750, 0.943, -0.068, 0.293, -0.061, 0.061, 0.183, -13.019, -72.345, -154.633, -30.993, -11.527, -7.467, 27.35, -0.1098, 0.59213, 0.03894, 0.7973,
 12:15:20.698,f6:90:cc:01:6d:25, 2015-01-01 00:28:03.750, 0.94, -0.066, 0.292, -0.061, 0.305, 0.061, -13.024, -72.339, -154.616, -30.993, -11.527, -7.467, 27.35, -0.1098, 0.59213, 0.03894, 0.7973,
 12:15:20.718,ed:40:fe:65:30:6c, 2015-01-01 00:28:08.610, 0.607, -0.175, 0.78, 0, 0, 0.305, -12.579, -37.266, -117.285, -20.713, -6.007, -6.307, 23.21, -0.46014, 0.3252, 0.07663, 0.82251,
 12:15:20.718,ed:40:fe:65:30:6c, 2015-01-01 00:28:08.610, 0.603, -0.17, 0.778, 0, 0.305, 0.244, -12.585, -37.26, -117.285, -20.713, -6.007, -6.307, 23.21, -0.46014, 0.3252, 0.07663, 0.82251,
 12:15:20.721,f6:90:cc:01:6d:25, 2015-01-01 00:28:03.750, 0.938, -0.065, 0.292, -0.061, 0.427, 0.122, -13.024, -72.334, -154.611, -31.080, -11.473, -6.820, 27.35, -0.1098, 0.59213, 0.03894, 0.7973,
 12:15:20.721,f6:90:cc:01:6d:25, 2015-01-01 00:28:03.750, 0.937, -0.065, 0.29, -0.183, 0.549, 0.183, -13.024, -72.323, -154.6, -31.080, -11.473, -6.820, 27.35, -0.1098, 0.59213, 0.03894, 0.7973,
 12:15:20.722,ed:35:33:d3:6c:f8, 2015-01-01 00:28:03.680, 0.319, -0.291, 0.893, 0.488, -1.16, -0.244, -18.149, -19.001, 177.204, -10.700, -3.747, -36.480, 27.68, 0.05008, 0.15909, -0.15952, 0.97296,
 12:15:20.722,ed:35:33:d3:6c:f8, 2015-01-01 00:28:03.680, 0.32, -0.292, 0.893, 0.916, -0.732, -0.61, -18.138, -19.023, 177.209, -10.700, -3.747, -36.480, 27.68, 0.05008, 0.15909, -0.15952, 0.97296,
 12:15:20.740,ed:40:fe:65:30:6c, 2015-01-01 00:28:08.945, 0.603, -0.173, 0.779, -0.122, 0.183, 0.183, -12.59, -37.255, -117.285, -20.713, -6.007, -6.307, 23.21, -0.46014, 0.3252, 0.07663, 0.82251,
 12:15:20.740,ed:40:fe:65:30:6c, 2015-01-01 00:28:08.945, 0.605, -0.177, 0.78, 0, 0.061, 0.183, -12.59, -37.255, -117.285, -20.713, -6.007, -6.307, 23.21, -0.46014, 0.3252, 0.07663, 0.82251,
 12:15:20.742,e3:ca:2d:fd:e0:8c, 2015-01-01 00:28:03.600, 0.99, -0.044, 0.238, 0, 0.244, 0, -10.635, -76.218, 173.331, -28.680, -13.313, -11.280, 22.91, -0.10257, -0.60938, 0.10843, -0.77863,
 12:15:20.742,e3:ca:2d:fd:e0:8c, 2015-01-01 00:28:03.600, 0.991, -0.044, 0.237, -0.061, 0.305, 0, -10.629, -76.218, 173.326, -28.680, -13.313, -11.280, 22.91, -0.10257, -0.60938, 0.10843, -0.77863,
 12:15:20.764,e3:ca:2d:fd:e0:8c, 2015-01-01 00:28:03.600, 0.993, -0.045, 0.238, -0.061, 0.427, 0, -10.629, -76.207, 173.326, -28.680, -13.313, -11.280, 22.91, -0.10257, -0.60938, 0.10843, -0.77863,
 12:15:20.764,e3:ca:2d:fd:e0:8c, 2015-01-01 00:28:03.600, 0.993, -0.045, 0.239, -0.122, 0.427, 0, -10.624, -76.201, 173.32, -28.680, -13.313, -11.280, 22.91, -0.10257, -0.60938, 0.10843, -0.77863,
 12:15:20.765,f6:90:cc:01:6d:25, 2015-01-01 00:28:03.750, 0.94, -0.068, 0.29, -0.305, 0.549, 0.183, -13.035, -72.312, -154.589, -31.080, -11.473, -6.820, 27.35, -0.1098, 0.59213, 0.03894, 0.7973,
 12:15:20.765,f6:90:cc:01:6d:25, 2015-01-01 00:28:03.750, 0.943, -0.07, 0.293, -0.244, 0.366, 0.122, -13.041, -72.307, -154.578, -31.080, -11.473, -6.820, 27.35, -0.1098, 0.59213, 0.03894, 0.7973,
 12:15:20.766,ed:35:33:d3:6c:f8, 2015-01-01 00:28:03.970, 0.323, -0.294, 0.896, 1.221, -0.793, -0.488, -18.116, -19.039, 177.215, -10.700, -3.747, -36.480, 27.68, 0.05008, 0.15909, -0.15952, 0.97296,
 12:15:20.766,ed:35:33:d3:6c:f8, 2015-01-01 00:28:03.970, 0.325, -0.295, 0.896, 1.282, -0.671, 0, -18.089, -19.056, 177.215, -10.700, -3.747, -36.480, 27.68, 0.05008, 0.15909, -0.15952, 0.97296,
 12:15:20.786,ed:40:fe:65:30:6c, 2015-01-01 00:28:08.945, 0.609, -0.18, 0.785, 0.122, -0.122, 0.183, -12.59, -37.255, -117.279, -20.713, -6.007, -6.307, 23.21, -0.46014, 0.3252, 0.07663, 0.82251,
 12:15:20.786,ed:40:fe:65:30:6c, 2015-01-01 00:28:08.945, 0.608, -0.179, 0.783, 0.061, -0.305, 0.122, -12.596, -37.26, -117.279, -20.713, -6.007, -6.307, 23.21, -0.46014, 0.3252, 0.07663, 0.82251,
 12:15:20.810,e3:ca:2d:fd:e0:8c, 2015-01-01 00:28:03.600, 0.992, -0.044, 0.242, -0.061, 0.427, 0, -10.618, -76.19, 173.315, -28.680, -13.313, -11.280, 22.91, -0.10257, -0.60938, 0.10843, -0.77863,
 12:15:20.810,e3:ca:2d:fd:e0:8c, 2015-01-01 00:28:03.600, 0.99, -0.045, 0.242, 0, 0.305, 0, -10.613, -76.185, 173.309, -28.680, -13.313, -11.280, 22.91, -0.10257, -0.60938, 0.10843, -0.77863,
 12:15:20.812,ed:35:33:d3:6c:f8, 2015-01-01 00:28:03.970, 0.324, -0.294, 0.896, 1.038, -0.793, 0.427, -18.073, -19.067, 177.226, -10.700, -3.747, -36.480, 27.68, 0.05008, 0.15909, -0.15952, 0.97296,
 12:15:20.812,ed:35:33:d3:6c:f8, 2015-01-01 00:28:03.970, 0.324, -0.29, 0.897, 0.732, -0.916, 0.854, -18.062, -19.072, 177.253, -10.700, -3.747, -36.480, 27.68, 0.05008, 0.15909, -0.15952, 0.97296,
 12:15:20.832,ed:40:fe:65:30:6c, 2015-01-01 00:28:08.945, 0.607, -0.177, 0.784, 0.122, -0.183, 0.183, -12.596, -37.26, -117.279, -20.713, -6.007, -6.307, 23.21, -0.46014, 0.3252, 0.07663, 0.82251,
 12:15:20.832,ed:40:fe:65:30:6c, 2015-01-01 00:28:08.945, 0.603, -0.176, 0.784, 0.061, -0.183, 0.488, -12.601, -37.26, -117.268, -20.713, -6.007, -6.307, 23.21, -0.46014, 0.3252, 0.07663, 0.82251,
 12:15:20.834,f6:90:cc:01:6d:25, 2015-01-01 00:28:03.750, 0.943, -0.069, 0.292, 0, 0.305, 0.061, -13.041, -72.301, -154.567, -31.080, -11.473, -6.820, 27.35, -0.11115, 0.59192, 0.03949, 0.79724,
 12:15:20.834,f6:90:cc:01:6d:25, 2015-01-01 00:28:03.750, 0.942, -0.071, 0.296, 0.061, 0.366, 0, -13.035, -72.29, -154.561, -31.080, -11.473, -6.820, 27.35, -0.11115, 0.59192, 0.03949, 0.79724,
 12:15:20.856,f6:90:cc:01:6d:25, 2015-01-01 00:28:04.085, 0.938, -0.07, 0.295, 0.305, 0.61, -0.122, -13.019, -72.279, -154.572, -31.080, -11.473, -6.820, 27.35, -0.11115, 0.59192, 0.03949, 0.79724,
 12:15:20.856,f6:90:cc:01:6d:25, 2015-01-01 00:28:04.085, 0.937, -0.071, 0.298, 0.122, 0.793, -0.244, -12.997, -72.268, -154.589, -31.080, -11.473, -6.820, 27.35, -0.11115, 0.59192, 0.03949, 0.79724,
 12:15:20.856,ed:35:33:d3:6c:f8, 2015-01-01 00:28:03.970, 0.317, -0.291, 0.894, 0, -0.61, 1.282, -18.062, -19.083, 177.286, -10.700, -3.747, -36.480, 27.68, 0.05008, 0.15909, -0.15952, 0.97296,
 12:15:20.856,ed:35:33:d3:6c:f8, 2015-01-01 00:28:03.970, 0.318, -0.292, 0.891, -0.854, 0.305, 0.671, -18.078, -19.078, 177.325, -10.700, -3.747, -36.480, 27.68, 0.05008, 0.15909, -0.15952, 0.97296,
 12:15:20.877,ed:40:fe:65:30:6c, 2015-01-01 00:28:08.945, 0.6, -0.175, 0.781, -0.244, -0.305, 0.61, -12.618, -37.26, -117.252, -20.713, -6.007, -6.307, 23.21, -0.46014, 0.3252, 0.07663, 0.82251,
 12:15:20.877,ed:40:fe:65:30:6c, 2015-01-01 00:28:08.945, 0.605, -0.175, 0.786, -0.61, -0.122, 0.427, -12.64, -37.26, -117.246, -20.713, -6.007, -6.307, 23.21, -0.46014, 0.3252, 0.07663, 0.82251,
 12:15:20.877,e3:ca:2d:fd:e0:8c, 2015-01-01 00:28:03.600, 0.989, -0.045, 0.242, 0, 0.183, 0, -10.613, -76.179, 173.304, -28.680, -13.313, -11.280, 22.91, -0.10257, -0.60938, 0.10843, -0.77863,
 12:15:20.877,e3:ca:2d:fd:e0:8c, 2015-01-01 00:28:03.600, 0.993, -0.046, 0.242, -0.183, 0.244, 0, -10.607, -76.174, 173.304, -28.680, -13.313, -11.280, 22.91, -0.10257, -0.60938, 0.10843, -0.77863,
 12:15:20.878,f6:90:cc:01:6d:25, 2015-01-01 00:28:04.085, 0.941, -0.066, 0.3, 0, 0.793, -0.183, -12.975, -72.252, -154.605, -31.080, -11.473, -6.820, 27.35, -0.11115, 0.59192, 0.03949, 0.79724,
 12:15:20.878,f6:90:cc:01:6d:25, 2015-01-01 00:28:04.085, 0.935, -0.062, 0.305, 0.427, 0.793, -0.549, -12.931, -72.235, -154.638, -31.080, -11.473, -6.820, 27.35, -0.11115, 0.59192, 0.03949, 0.79724,
 12:15:20.880,ed:35:33:d3:6c:f8, 2015-01-01 00:28:03.970, 0.313, -0.293, 0.897, -1.038, 1.77, 0.305, -18.1, -19.05, 177.341, -10.700, -3.747, -36.480, 27.68, 0.05008, 0.15909, -0.15952, 0.97296,
 12:15:20.880,ed:35:33:d3:6c:f8, 2015-01-01 00:28:03.970, 0.304, -0.299, 0.897, -0.916, 1.221, 1.221, -18.122, -19.017, 177.363, -10.700, -3.747, -36.480, 27.68, 0.05008, 0.15909, -0.15952, 0.97296,
 12:15:20.899,e3:ca:2d:fd:e0:8c, 2015-01-01 00:28:03.600, 0.991, -0.045, 0.243, -0.183, 0.061, 0, -10.613, -76.174, 173.304, -28.727, -13.307, -11.047, 22.91, -0.10257, -0.60938, 0.10843, -0.77863,
 12:15:20.899,e3:ca:2d:fd:e0:8c, 2015-01-01 00:28:03.600, 0.982, -0.041, 0.245, 0.061, -0.122, 0, -10.613, -76.174, 173.304, -28.727, -13.307, -11.047, 22.91, -0.10257, -0.60938, 0.10843, -0.77863,
 12:15:20.921,ed:40:fe:65:30:6c, 2015-01-01 00:28:08.945, 0.596, -0.181, 0.786, -0.732, -0.244, 0.305, -12.662, -37.26, -117.241, -20.713, -6.007, -6.307, 23.21, -0.46014, 0.3252, 0.07663, 0.82251,
 12:15:20.921,ed:40:fe:65:30:6c, 2015-01-01 00:28:08.945, 0.593, -0.182, 0.785, -1.16, -0.305, -0.183, -12.684, -37.26, -117.257, -20.713, -6.007, -6.307, 23.21, -0.46014, 0.3252, 0.07663, 0.82251,
 12:15:20.923,f6:90:cc:01:6d:25, 2015-01-01 00:28:04.085, 0.933, -0.065, 0.304, 1.038, 1.221, -1.343, -12.827, -72.219, -154.737, -31.080, -11.473, -6.820, 27.35, -0.11115, 0.59192, 0.03949, 0.79724,
 12:15:20.923,f6:90:cc:01:6d:25, 2015-01-01 00:28:04.085, 0.938, -0.067, 0.3, 0.977, 1.16, -1.526, -12.7, -72.197, -154.841, -31.080, -11.473, -6.820, 27.35, -0.11115, 0.59192, 0.03949, 0.79724,
 12:15:20.924,ed:35:33:d3:6c:f8, 2015-01-01 00:28:03.970, 0.317, -0.292, 0.895, -0.916, 0.244, 2.38, -18.149, -18.99, 177.418, -10.700, -3.747, -36.480, 27.68, 0.05008, 0.15909, -0.15952, 0.97296,
 12:15:20.924,ed:35:33:d3:6c:f8, 2015-01-01 00:28:03.970, 0.319, -0.293, 0.899, -0.671, 1.038, 0.977, -18.171, -18.962, 177.473, -10.700, -3.747, -36.480, 27.68, 0.05008, 0.15909, -0.15952, 0.97296,
 12:15:20.943,ed:40:fe:65:30:6c, 2015-01-01 00:28:08.945, 0.606, -0.172, 0.785, -1.587, 0.122, -0.366, -12.711, -37.255, -117.285, -20.613, -5.907, -6.580, 23.21, -0.46014, 0.3252, 0.07663, 0.82251,
 12:15:20.943,ed:40:fe:65:30:6c, 2015-01-01 00:28:08.945, 0.606, -0.173, 0.786, -1.526, -0.244, -0.427, -12.733, -37.26, -117.307, -20.613, -5.907, -6.580, 23.21, -0.46014, 0.3252, 0.07663, 0.82251,
 12:15:20.944,e3:ca:2d:fd:e0:8c, 2015-01-01 00:28:03.600, 0.986, -0.042, 0.243, 0.183, -0.305, 0.305, -10.624, -76.174, 173.32, -28.727, -13.307, -11.047, 22.91, -0.10257, -0.60938, 0.10843, -0.77863,
 12:15:20.944,e3:ca:2d:fd:e0:8c, 2015-01-01 00:28:03.600, 0.994, -0.046, 0.244, 0.244, -0.854, 0.183, -10.646, -76.185, 173.353, -28.727, -13.307, -11.047, 22.91, -0.10257, -0.60938, 0.10843, -0.77863,
 12:15:20.966,e3:ca:2d:fd:e0:8c, 2015-01-01 00:28:03.600, 0.997, -0.043, 0.241, 0.305, -0.671, 0.183, -10.662, -76.196, 173.381, -28.727, -13.307, -11.047, 22.91, -0.10251, -0.60901, 0.10846, -0.77893,
 12:15:20.966,e3:ca:2d:fd:e0:8c, 2015-01-01 00:28:03.600, 0.997, -0.043, 0.24, 0.122, -0.305, 0.122, -10.673, -76.201, 173.403, -28.727, -13.307, -11.047, 22.91, -0.10251, -0.60901, 0.10846, -0.77893,
 12:15:20.967,f6:90:cc:01:6d:25, 2015-01-01 00:28:04.085, 0.944, -0.065, 0.299, 0.549, 0.671, -1.282, -12.596, -72.186, -154.929, -31.080, -11.473, -6.820, 27.35, -0.11115, 0.59192, 0.03949, 0.79724,
 12:15:20.967,f6:90:cc:01:6d:25, 2015-01-01 00:28:04.085, 0.944, -0.065, 0.297, 0.916, 0.061, -1.099, -12.502, -72.18, -155.001, -31.080, -11.473, -6.820, 27.35, -0.11115, 0.59192, 0.03949, 0.79724,
 12:15:20.970,ed:35:33:d3:6c:f8, 2015-01-01 00:28:03.970, 0.317, -0.294, 0.903, -0.61, 0.305, 0, -18.188, -18.94, 177.495, -10.653, -3.800, -35.100, 27.68, 0.05008, 0.15909, -0.15952, 0.97296,
 12:15:20.970,ed:35:33:d3:6c:f8, 2015-01-01 00:28:03.970, 0.316, -0.299, 0.905, -1.099, -0.061, 0.732, -18.204, -18.929, 177.523, -10.653, -3.800, -35.100, 27.68, 0.05008, 0.15909, -0.15952, 0.97296,
 12:15:20.989,ed:40:fe:65:30:6c, 2015-01-01 00:28:08.945, 0.606, -0.182, 0.789, -1.282, -0.854, -0.488, -12.755, -37.271, -117.328, -20.613, -5.907, -6.580, 23.21, -0.46014, 0.3252, 0.07663, 0.82251,
 12:15:20.989,ed:40:fe:65:30:6c, 2015-01-01 00:28:08.945, 0.606, -0.184, 0.791, -1.221, -1.038, -0.366, -12.777, -37.288, -117.334, -20.613, -5.907, -6.580, 23.21, -0.46014, 0.3252, 0.07663, 0.82251,
 12:15:21.012,f6:90:cc:01:6d:25, 2015-01-01 00:28:04.085, 0.944, -0.068, 0.3, 1.587, 0.122, -1.404, -12.398, -72.186, -155.061, -31.080, -11.473, -6.820, 27.35, -0.11115, 0.59192, 0.03949, 0.79724,
 12:15:21.012,f6:90:cc:01:6d:25, 2015-01-01 00:28:04.085, 0.939, -0.067, 0.301, 2.441, 0.244, -1.709, -12.255, -72.186, -155.143, -31.080, -11.473, -6.820, 27.35, -0.11115, 0.59192, 0.03949, 0.79724,
 12:15:21.012,e3:ca:2d:fd:e0:8c, 2015-01-01 00:28:03.600, 0.991, -0.046, 0.239, 0.244, -0.427, 0.488, -10.695, -76.207, 173.436, -28.727, -13.307, -11.047, 22.91, -0.10251, -0.60901, 0.10846, -0.77893,
 12:15:21.012,e3:ca:2d:fd:e0:8c, 2015-01-01 00:28:03.600, 0.987, -0.048, 0.239, 0.427, -0.549, 0.61, -10.739, -76.212, 173.491, -28.727, -13.307, -11.047, 22.91, -0.10251, -0.60901, 0.10846, -0.77893,
 12:15:21.014,ed:35:33:d3:6c:f8, 2015-01-01 00:28:03.970, 0.32, -0.297, 0.9, -1.038, -0.122, 0.61, -18.232, -18.924, 177.55, -10.653, -3.800, -35.100, 27.68, 0.04688, 0.15897, -0.15967, 0.97311,
 12:15:21.014,ed:35:33:d3:6c:f8, 2015-01-01 00:28:03.970, 0.317, -0.293, 0.896, -1.343, 0.854, 0.854, -18.259, -18.907, 177.572, -10.653, -3.800, -35.100, 27.68, 0.04688, 0.15897, -0.15967, 0.97311,
 12:15:21.056,ed:40:fe:65:30:6c, 2015-01-01 00:28:08.945, 0.607, -0.178, 0.786, -1.16, -1.16, -0.244, -12.799, -37.304, -117.339, -20.613, -5.907, -6.580, 23.21, -0.45929, 0.32608, 0.0752, 0.82275,
 12:15:21.056,ed:40:fe:65:30:6c, 2015-01-01 00:28:08.945, 0.602, -0.176, 0.779, -1.404, -1.16, -0.244, -12.827, -37.326, -117.356, -20.613, -5.907, -6.580, 23.21, -0.45929, 0.32608, 0.0752, 0.82275,
 12:15:21.058,e3:ca:2d:fd:e0:8c, 2015-01-01 00:28:03.935, 0.988, -0.048, 0.236, 0.61, -0.549, 0.488, -10.778, -76.223, 173.546, -28.727, -13.307, -11.047, 22.91, -0.10251, -0.60901, 0.10846, -0.77893,
 12:15:21.058,e3:ca:2d:fd:e0:8c, 2015-01-01 00:28:03.935, 0.989, -0.048, 0.235, 0.183, -1.221, 0.183, -10.811, -76.234, 173.595, -28.727, -13.307, -11.047, 22.91, -0.10251, -0.60901, 0.10846, -0.77893,
 12:15:21.059,ed:35:33:d3:6c:f8, 2015-01-01 00:28:04.280, 0.316, -0.294, 0.892, -1.526, 0.305, 0.61, -18.287, -18.891, 177.605, -10.653, -3.800, -35.100, 27.68, 0.04688, 0.15897, -0.15967, 0.97311,
 12:15:21.059,ed:35:33:d3:6c:f8, 2015-01-01 00:28:04.280, 0.324, -0.293, 0.887, -1.709, 0.122, -0.183, -18.32, -18.88, 177.616, -10.653, -3.800, -35.100, 27.68, 0.04688, 0.15897, -0.15967, 0.97311,
 12:15:21.060,f6:90:cc:01:6d:25, 2015-01-01 00:28:04.085, 0.934, -0.063, 0.296, 2.563, 0.061, -1.587, -12.107, -72.186, -155.209, -31.080, -11.473, -6.820, 27.35, -0.11115, 0.59192, 0.03949, 0.79724,
 12:15:21.060,f6:90:cc:01:6d:25, 2015-01-01 00:28:04.085, 0.935, -0.061, 0.297, 1.953, -0.366, -1.282, -11.992, -72.191, -155.264, -31.080, -11.473, -6.820, 27.35, -0.11115, 0.59192, 0.03949, 0.79724,
 12:15:21.078,ed:40:fe:65:30:6c, 2015-01-01 00:28:09.280, 0.605, -0.176, 0.775, -1.465, -1.343, -0.244, -12.859, -37.348, -117.367, -20.613, -5.907, -6.580, 23.21, -0.45929, 0.32608, 0.0752, 0.82275,
 12:15:21.078,ed:40:fe:65:30:6c, 2015-01-01 00:28:09.280, 0.61, -0.176, 0.775, -1.648, -1.221, -0.244, -12.887, -37.37, -117.372, -20.613, -5.907, -6.580, 23.21, -0.45929, 0.32608, 0.0752, 0.82275,
 12:15:21.081,f6:90:cc:01:6d:25, 2015-01-01 00:28:04.085, 0.941, -0.061, 0.298, 1.648, -0.732, -1.038, -11.904, -72.208, -155.297, -31.313, -10.767, -6.553, 27.35, -0.11115, 0.59192, 0.03949, 0.79724,
 12:15:21.081,f6:90:cc:01:6d:25, 2015-01-01 00:28:04.085, 0.941, -0.062, 0.295, 1.282, -0.793, -0.854, -11.832, -72.224, -155.297, -31.313, -10.767, -6.553, 27.35, -0.11115, 0.59192, 0.03949, 0.79724,
 12:15:21.083,ed:35:33:d3:6c:f8, 2015-01-01 00:28:04.280, 0.324, -0.29, 0.89, -1.709, 1.404, 0, -18.353, -18.864, 177.61, -10.653, -3.800, -35.100, 27.68, 0.04688, 0.15897, -0.15967, 0.97311,
 12:15:21.083,ed:35:33:d3:6c:f8, 2015-01-01 00:28:04.280, 0.324, -0.292, 0.893, -1.709, 1.099, 0.977, -18.386, -18.836, 177.61, -10.653, -3.800, -35.100, 27.68, 0.04688, 0.15897, -0.15967, 0.97311,
 12:15:21.100,ed:40:fe:65:30:6c, 2015-01-01 00:28:09.280, 0.612, -0.176, 0.774, -1.404, -1.099, 0, -12.92, -37.386, -117.372, -20.613, -5.907, -6.580, 23.21, -0.45929, 0.32608, 0.0752, 0.82275,
 12:15:21.100,ed:40:fe:65:30:6c, 2015-01-01 00:28:09.280, 0.616, -0.179, 0.772, -0.977, -1.038, 0.183, -12.942, -37.403, -117.372, -20.613, -5.907, -6.580, 23.21, -0.45929, 0.32608, 0.0752, 0.82275,
 12:15:21.101,e3:ca:2d:fd:e0:8c, 2015-01-01 00:28:03.935, 0.993, -0.046, 0.236, 0.427, -0.977, 0.305, -10.838, -76.256, 173.633, -28.727, -13.307, -11.047, 22.91, -0.10251, -0.60901, 0.10846, -0.77893,
 12:15:21.101,e3:ca:2d:fd:e0:8c, 2015-01-01 00:28:03.935, 0.992, -0.047, 0.237, 0.305, -1.221, 0.244, -10.871, -76.278, 173.666, -28.727, -13.307, -11.047, 22.91, -0.10251, -0.60901, 0.10846, -0.77893,
 12:15:21.125,e3:ca:2d:fd:e0:8c, 2015-01-01 00:28:03.935, 0.994, -0.049, 0.235, 0.244, -0.793, 0.061, -10.898, -76.295, 173.688, -28.727, -13.307, -11.047, 22.91, -0.10251, -0.60901, 0.10846, -0.77893,
 12:15:21.125,e3:ca:2d:fd:e0:8c, 2015-01-01 00:28:03.935, 0.995, -0.048, 0.236, 0.061, -0.61, -0.061, -10.909, -76.306, 173.71, -28.727, -13.307, -11.047, 22.91, -0.10251, -0.60901, 0.10846, -0.77893,
 12:15:21.125,f6:90:cc:01:6d:25, 2015-01-01 00:28:04.085, 0.942, -0.062, 0.29, 0.671, -0.793, -0.61, -11.788, -72.241, -155.292, -31.313, -10.767, -6.553, 27.35, -0.11115, 0.59192, 0.03949, 0.79724,
 12:15:21.125,f6:90:cc:01:6d:25, 2015-01-01 00:28:04.085, 0.946, -0.061, 0.289, 0.122, -0.732, -0.244, -11.777, -72.257, -155.264, -31.313, -10.767, -6.553, 27.35, -0.11115, 0.59192, 0.03949, 0.79724,
 12:15:21.127,ed:35:33:d3:6c:f8, 2015-01-01 00:28:04.280, 0.331, -0.298, 0.89, -1.953, 0, 1.343, -18.424, -18.814, 177.621, -10.653, -3.800, -35.100, 27.68, 0.04688, 0.15897, -0.15967, 0.97311,
 12:15:21.127,ed:35:33:d3:6c:f8, 2015-01-01 00:28:04.280, 0.335, -0.294, 0.889, -1.343, 0.122, 1.099, -18.463, -18.809, 177.638, -10.653, -3.800, -35.100, 27.68, 0.04688, 0.15897, -0.15967, 0.97311,
 12:15:21.146,ed:40:fe:65:30:6c, 2015-01-01 00:28:09.280, 0.622, -0.177, 0.771, -0.916, -0.854, 0, -12.964, -37.419, -117.372, -20.613, -5.907, -6.580, 23.21, -0.45929, 0.32608, 0.0752, 0.82275,
 12:15:21.146,ed:40:fe:65:30:6c, 2015-01-01 00:28:09.280, 0.621, -0.174, 0.77, -0.549, -0.977, 0.183, -12.98, -37.436, -117.372, -20.613, -5.907, -6.580, 23.21, -0.45929, 0.32608, 0.0752, 0.82275,
 12:15:21.170,e3:ca:2d:fd:e0:8c, 2015-01-01 00:28:03.935, 0.992, -0.045, 0.235, 0.061, -0.488, -0.122, -10.909, -76.317, 173.732, -28.727, -13.307, -11.047, 22.91, -0.10251, -0.60901, 0.10846, -0.77893,
 12:15:21.170,e3:ca:2d:fd:e0:8c, 2015-01-01 00:28:03.935, 0.992, -0.044, 0.231, 0, -0.183, -0.122, -10.909, -76.328, 173.738, -28.727, -13.307, -11.047, 22.91, -0.10251, -0.60901, 0.10846, -0.77893,
 12:15:21.172,ed:35:33:d3:6c:f8, 2015-01-01 00:28:04.280, 0.33, -0.293, 0.89, -0.977, 0.122, 1.16, -18.49, -18.803, 177.638, -10.653, -3.800, -35.100, 27.68, 0.04688, 0.15897, -0.15967, 0.97311,
 12:15:21.172,ed:35:33:d3:6c:f8, 2015-01-01 00:28:04.280, 0.323, -0.295, 0.888, -1.038, 0.061, 1.099, -18.512, -18.798, 177.643, -10.653, -3.800, -35.100, 27.68, 0.04688, 0.15897, -0.15967, 0.97311,
 12:15:21.190,ed:40:fe:65:30:6c, 2015-01-01 00:28:09.280, 0.613, -0.175, 0.767, -0.122, -0.854, 0.366, -12.991, -37.452, -117.35, -20.613, -5.907, -6.580, 23.21, -0.45929, 0.32608, 0.0752, 0.82275,
 12:15:21.190,ed:40:fe:65:30:6c, 2015-01-01 00:28:09.280, 0.611, -0.174, 0.772, 0, -0.671, 0.366, -12.997, -37.469, -117.323, -20.613, -5.907, -6.580, 23.21, -0.45929, 0.32608, 0.0752, 0.82275,
 12:15:21.194,f6:90:cc:01:6d:25, 2015-01-01 00:28:04.085, 0.945, -0.058, 0.288, -0.244, -0.61, 0, -11.794, -72.268, -155.231, -31.313, -10.767, -6.553, 27.35, -0.11288, 0.59058, 0.04459, 0.79773,
 12:15:21.194,f6:90:cc:01:6d:25, 2015-01-01 00:28:04.085, 0.941, -0.056, 0.284, -0.244, -0.244, 0.183, -11.81, -72.274, -155.204, -31.313, -10.767, -6.553, 27.35, -0.11288, 0.59058, 0.04459, 0.79773,
 12:15:21.216,f6:90:cc:01:6d:25, 2015-01-01 00:28:04.440, 0.939, -0.058, 0.286, -0.732, -0.488, 0.488, -11.865, -72.279, -155.165, -31.313, -10.767, -6.553, 27.35, -0.11288, 0.59058, 0.04459, 0.79773,
 12:15:21.216,f6:90:cc:01:6d:25, 2015-01-01 00:28:04.440, 0.94, -0.057, 0.297, -1.16, -0.977, 0.854, -11.948, -72.301, -155.105, -31.313, -10.767, -6.553, 27.35, -0.11288, 0.59058, 0.04459, 0.79773,
 12:15:21.217,ed:35:33:d3:6c:f8, 2015-01-01 00:28:04.280, 0.321, -0.298, 0.887, -0.488, 0.244, 0.427, -18.528, -18.792, 177.621, -10.653, -3.800, -35.100, 27.68, 0.04688, 0.15897, -0.15967, 0.97311,
 12:15:21.217,ed:35:33:d3:6c:f8, 2015-01-01 00:28:04.280, 0.325, -0.299, 0.89, -0.183, 0.549, 0.61, -18.539, -18.787, 177.605, -10.653, -3.800, -35.100, 27.68, 0.04688, 0.15897, -0.15967, 0.97311,
 12:15:21.237,e3:ca:2d:fd:e0:8c, 2015-01-01 00:28:03.935, 0.991, -0.044, 0.232, -0.183, -0.061, -0.183, -10.904, -76.328, 173.738, -28.727, -13.307, -11.047, 22.91, -0.10251, -0.60901, 0.10846, -0.77893,
 12:15:21.237,e3:ca:2d:fd:e0:8c, 2015-01-01 00:28:03.935, 0.99, -0.042, 0.235, -0.305, -0.244, -0.183, -10.893, -76.333, 173.732, -28.727, -13.307, -11.047, 22.91, -0.10251, -0.60901, 0.10846, -0.77893,
 12:15:21.239,f6:90:cc:01:6d:25, 2015-01-01 00:28:04.440, 0.941, -0.057, 0.294, -1.16, -0.732, 0.854, -12.025, -72.312, -155.05, -31.313, -10.767, -6.553, 27.35, -0.11288, 0.59058, 0.04459, 0.79773,
 12:15:21.239,f6:90:cc:01:6d:25, 2015-01-01 00:28:04.440, 0.943, -0.061, 0.291, -0.732, -0.244, 0.549, -12.068, -72.312, -155.006, -31.313, -10.767, -6.553, 27.35, -0.11288, 0.59058, 0.04459, 0.79773,
 12:15:21.259,e3:ca:2d:fd:e0:8c, 2015-01-01 00:28:03.935, 0.993, -0.042, 0.236, -0.427, -0.244, -0.122, -10.893, -76.339, 173.721, -29.047, -13.100, -11.533, 22.91, -0.10251, -0.60901, 0.10846, -0.77893,
 12:15:21.259,e3:ca:2d:fd:e0:8c, 2015-01-01 00:28:03.935, 0.997, -0.043, 0.237, -0.366, -0.244, -0.122, -10.893, -76.344, 173.727, -29.047, -13.100, -11.533, 22.91, -0.10251, -0.60901, 0.10846, -0.77893,
 12:15:21.259,ed:40:fe:65:30:6c, 2015-01-01 00:28:09.280, 0.612, -0.179, 0.773, 0.244, -0.427, 0.305, -12.997, -37.474, -117.312, -20.613, -5.907, -6.580, 23.21, -0.45929, 0.32608, 0.0752, 0.82275,
 12:15:21.259,ed:40:fe:65:30:6c, 2015-01-01 00:28:09.280, 0.614, -0.181, 0.772, 0.366, -0.122, 0.183, -12.991, -37.48, -117.29, -20.613, -5.907, -6.580, 23.21, -0.45929, 0.32608, 0.0752, 0.82275,
 12:15:21.261,ed:35:33:d3:6c:f8, 2015-01-01 00:28:04.280, 0.325, -0.296, 0.889, -0.305, -0.793, 1.343, -18.545, -18.787, 177.621, -10.433, -3.347, -35.733, 27.68, 0.04688, 0.15897, -0.15967, 0.97311,
 12:15:21.261,ed:35:33:d3:6c:f8, 2015-01-01 00:28:04.280, 0.321, -0.295, 0.891, -0.183, -2.075, 2.441, -18.567, -18.803, 177.665, -10.433, -3.347, -35.733, 27.68, 0.04688, 0.15897, -0.15967, 0.97311,
 12:15:21.281,ed:40:fe:65:30:6c, 2015-01-01 00:28:09.280, 0.613, -0.18, 0.771, 0.61, 0.183, 0.366, -12.98, -37.474, -117.268, -20.653, -5.260, -6.400, 23.21, -0.45929, 0.32608, 0.0752, 0.82275,
 12:15:21.281,ed:40:fe:65:30:6c, 2015-01-01 00:28:09.280, 0.616, -0.18, 0.777, 0.793, 0.305, 0.732, -12.975, -37.469, -117.246, -20.653, -5.260, -6.400, 23.21, -0.45929, 0.32608, 0.0752, 0.82275,
 12:15:21.282,f6:90:cc:01:6d:25, 2015-01-01 00:28:04.440, 0.944, -0.062, 0.29, -0.671, 0.122, 0.305, -12.096, -72.312, -154.984, -31.313, -10.767, -6.553, 27.35, -0.11288, 0.59058, 0.04459, 0.79773,
 12:15:21.282,f6:90:cc:01:6d:25, 2015-01-01 00:28:04.440, 0.946, -0.062, 0.293, -0.732, 0.122, 0.305, -12.123, -72.312, -154.962, -31.313, -10.767, -6.553, 27.35, -0.11288, 0.59058, 0.04459, 0.79773,
 12:15:21.285,ed:35:33:d3:6c:f8, 2015-01-01 00:28:04.280, 0.323, -0.301, 0.895, -0.183, -1.282, 3.174, -18.589, -18.82, 177.715, -10.433, -3.347, -35.733, 27.68, 0.04568, 0.15817, -0.16254, 0.97281,
 12:15:21.285,ed:35:33:d3:6c:f8, 2015-01-01 00:28:04.280, 0.326, -0.304, 0.888, -1.099, -0.427, 3.357, -18.622, -18.82, 177.764, -10.433, -3.347, -35.733, 27.68, 0.04568, 0.15817, -0.16254, 0.97281,
 12:15:21.305,e3:ca:2d:fd:e0:8c, 2015-01-01 00:28:03.935, 0.998, -0.046, 0.234, -0.244, -0.061, -0.061, -10.893, -76.349, 173.732, -29.047, -13.100, -11.533, 22.91, -0.10251, -0.60901, 0.10846, -0.77893,
 12:15:21.305,e3:ca:2d:fd:e0:8c, 2015-01-01 00:28:03.935, 0.994, -0.046, 0.236, -0.122, 0, 0, -10.893, -76.349, 173.732, -29.047, -13.100, -11.533, 22.91, -0.10251, -0.60901, 0.10846, -0.77893,
 12:15:21.326,ed:40:fe:65:30:6c, 2015-01-01 00:28:09.280, 0.616, -0.184, 0.775, 0.549, 0.671, 0.671, -12.969, -37.463, -117.23, -20.653, -5.260, -6.400, 23.21, -0.45929, 0.32608, 0.0752, 0.82275,
 12:15:21.326,ed:40:fe:65:30:6c, 2015-01-01 00:28:09.280, 0.605, -0.184, 0.77, 0.61, 1.099, 0.61, -12.969, -37.447, -117.219, -20.653, -5.260, -6.400, 23.21, -0.45929, 0.32608, 0.0752, 0.82275,
 12:15:21.327,e3:ca:2d:fd:e0:8c, 2015-01-01 00:28:03.935, 0.992, -0.045, 0.237, -0.183, 0, 0, -10.898, -76.349, 173.754, -29.047, -13.100, -11.533, 22.91, -0.10132, -0.61026, 0.10812, -0.77814,
 12:15:21.327,e3:ca:2d:fd:e0:8c, 2015-01-01 00:28:03.935, 0.992, -0.048, 0.237, -0.244, 0.244, 0, -10.898, -76.349, 173.76, -29.047, -13.100, -11.533, 22.91, -0.10132, -0.61026, 0.10812, -0.77814,
 12:15:21.328,f6:90:cc:01:6d:25, 2015-01-01 00:28:04.440, 0.944, -0.062, 0.294, -0.549, 0.122, 0.244, -12.14, -72.307, -154.951, -31.313, -10.767, -6.553, 27.35, -0.11288, 0.59058, 0.04459, 0.79773,
 12:15:21.328,f6:90:cc:01:6d:25, 2015-01-01 00:28:04.440, 0.941, -0.065, 0.287, -0.427, 0.549, 0, -12.14, -72.301, -154.984, -31.313, -10.767, -6.553, 27.35, -0.11288, 0.59058, 0.04459, 0.79773,
