Time,Device name,Chip Time(),Acceleration X(g),Acceleration Y(g),Acceleration Z(g),Angular velocity X(°/s),Angular velocity Y(°/s),Angular velocity Z(°/s),Angle X(°),Angle Y(°),Angle Z(°),Magnetic field X(ʯt),Magnetic field Y(ʯt),Magnetic field Z(ʯt),Temperature(℃),Quaternions 0(),Quaternions 1(),Quaternions 2(),Quaternions 3()
 17:45:28.380,ed:35:33:d3:6c:f8, 2015-01-01 04:06:15.220, 0.581, -0.062, 0.801, 0.488, -0.305, 0.671, -4.241, -35.552, 157.736, -15.807, -8.873, -30.673, 27.2, 0.1954, 0.29248, -0.09247, 0.93146,
 17:45:28.380,ed:35:33:d3:6c:f8, 2015-01-01 04:06:15.220, 0.577, -0.064, 0.807, 0.916, -0.183, 0.671, -4.235, -35.557, 157.72, -15.807, -8.873, -30.673, 27.2, 0.1954, 0.29248, -0.09247, 0.93146,
 17:45:28.380,ed:35:33:d3:6c:f8, 2015-01-01 04:06:15.220, 0.581, -0.065, 0.804, 0.549, -0.488, 0.061, -4.23, -35.563, 157.698, -15.807, -8.873, -30.673, 27.2, 0.1954, 0.29248, -0.09247, 0.93146,
 17:45:28.380,ed:35:33:d3:6c:f8, 2015-01-01 04:06:15.220, 0.577, -0.064, 0.807, 0.916, -0.183, 0.671, -4.235, -35.557, 157.72, -15.807, -8.873, -30.673, 27.2, 0.1954, 0.29248, -0.09247, 0.93146,
 17:45:28.380,ed:35:33:d3:6c:f8, 2015-01-01 04:06:15.220, 0.581, -0.065, 0.804, 0.549, -0.488, 0.061, -4.23, -35.563, 157.698, -15.807, -8.873, -30.673, 27.2, 0.1954, 0.29248, -0.09247, 0.93146,
 17:45:28.380,ed:35:33:d3:6c:f8, 2015-01-01 04:06:15.220, 0.577, -0.064, 0.807, 0.916, -0.183, 0.671, -4.235, -35.557, 157.72, -15.807, -8.873, -30.673, 27.2, 0.1954, 0.29248, -0.09247, 0.93146,
 17:45:28.382,f6:90:cc:01:6d:25, 2015-01-01 04:06:26.000, 0.926, -0.271, 0.203, 0.183, -0.122, 0.122, -53.152, -70.01, -122.333, -31.120, -6.560, -5.087, 33.05, 0.12805, -0.62601, 0.07321, -0.76566,
 17:45:28.382,f6:90:cc:01:6d:25, 2015-01-01 04:06:26.000, 0.929, -0.27, 0.202, 0.183, 0, 0.183, -53.157, -70.01, -122.338, -31.120, -6.560, -5.087, 33.05, 0.12805, -0.62601, 0.07321, -0.76566,
 17:45:28.382,f6:90:cc:01:6d:25, 2015-01-01 04:06:26.000, 0.926, -0.273, 0.204, 0.061, 0.061, 0.244, -53.157, -70.005, -122.344, -31.120, -6.560, -5.087, 33.05, 0.12805, -0.62601, 0.07321, -0.76566,
 17:45:28.382,f6:90:cc:01:6d:25, 2015-01-01 04:06:26.000, 0.929, -0.27, 0.202, 0.183, 0, 0.183, -53.157, -70.01, -122.338, -31.120, -6.560, -5.087, 33.05, 0.12805, -0.62601, 0.07321, -0.76566,
 17:45:28.382,f6:90:cc:01:6d:25, 2015-01-01 04:06:26.000, 0.926, -0.273, 0.204, 0.061, 0.061, 0.244, -53.157, -70.005, -122.344, -31.120, -6.560, -5.087, 33.05, 0.12805, -0.62601, 0.07321, -0.76566,
 17:45:28.382,f6:90:cc:01:6d:25, 2015-01-01 04:06:26.000, 0.929, -0.27, 0.202, 0.183, 0, 0.183, -53.157, -70.01, -122.338, -31.120, -6.560, -5.087, 33.05, 0.12805, -0.62601, 0.07321, -0.76566,
 17:45:28.382,f6:90:cc:01:6d:25, 2015-01-01 04:06:26.000, 0.928, -0.273, 0.204, 0.061, 0.061, 0.244, -53.157, -70.005, -122.344, -31.120, -6.560, -5.087, 33.05, 0.12805, -0.62601, 0.07321, -0.76566,
 17:45:28.382,f6:90:cc:01:6d:25, 2015-01-01 04:06:26.000, 0.927, -0.273, 0.202, 0.549, 0.183, 0.183, -53.152, -69.999, -122.355, -31.120, -6.560, -5.087, 33.05, 0.12805, -0.62601, 0.07321, -0.76566,
 17:45:28.382,f6:90:cc:01:6d:25, 2015-01-01 04:06:26.000, 0.928, -0.271, 0.202, 0.61, 0.183, 0.061, -53.135, -69.994, -122.371, -31.120, -6.560, -5.087, 33.05, 0.12805, -0.62601, 0.07321, -0.76566,
 17:45:28.382,f6:90:cc:01:6d:25, 2015-01-01 04:06:26.000, 0.927, -0.273, 0.202, 0.549, 0.183, 0.183, -53.152, -69.999, -122.355, -31.120, -6.560, -5.087, 33.05, 0.12805, -0.62601, 0.07321, -0.76566,
 17:45:28.382,f6:90:cc:01:6d:25, 2015-01-01 04:06:26.000, 0.928, -0.271, 0.202, 0.61, 0.183, 0.061, -53.135, -69.994, -122.371, -31.120, -6.560, -5.087, 33.05, 0.12805, -0.62601, 0.07321, -0.76566,
 17:45:28.382,f6:90:cc:01:6d:25, 2015-01-01 04:06:26.000, 0.927, -0.273, 0.202, 0.549, 0.183, 0.183, -53.152, -69.999, -122.355, -31.120, -6.560, -5.087, 33.05, 0.12805, -0.62601, 0.07321, -0.76566,
 17:45:28.401,e3:ca:2d:fd:e0:8c, 2015-01-01 04:06:34.420, 1.019, -0.074, 0.039, 0.488, 0.61, 0.061, -63.138, -85.369, -144.965, -26.687, -10.413, -7.720, 31.35, -0.15088, -0.66632, 0.19363, -0.70401,
 17:45:28.401,e3:ca:2d:fd:e0:8c, 2015-01-01 04:06:34.420, 1.019, -0.074, 0.04, 0.427, 0.732, 0.061, -62.979, -85.358, -145.124, -26.687, -10.413, -7.720, 31.35, -0.15088, -0.66632, 0.19363, -0.70401,
 17:45:28.401,e3:ca:2d:fd:e0:8c, 2015-01-01 04:06:34.420, 1.019, -0.074, 0.039, 0.366, 0.61, 0.061, -62.82, -85.353, -145.278, -26.687, -10.413, -7.720, 31.35, -0.15088, -0.66632, 0.19363, -0.70401,
 17:45:28.401,e3:ca:2d:fd:e0:8c, 2015-01-01 04:06:34.420, 1.019, -0.074, 0.04, 0.427, 0.732, 0.061, -62.979, -85.358, -145.124, -26.687, -10.413, -7.720, 31.35, -0.15088, -0.66632, 0.19363, -0.70401,
 17:45:28.401,e3:ca:2d:fd:e0:8c, 2015-01-01 04:06:34.420, 1.019, -0.074, 0.039, 0.366, 0.61, 0.061, -62.82, -85.353, -145.278, -26.687, -10.413, -7.720, 31.35, -0.15088, -0.66632, 0.19363, -0.70401,
 17:45:28.401,e3:ca:2d:fd:e0:8c, 2015-01-01 04:06:34.420, 1.019, -0.074, 0.04, 0.427, 0.732, 0.061, -62.979, -85.358, -145.124, -26.687, -10.413, -7.720, 31.35, -0.15088, -0.66632, 0.19363, -0.70401,
 17:45:28.435,ed:40:fe:65:30:6c, 2015-01-01 04:06:39.740, 0.59, -0.056, 0.807, 0.366, 0, 0.183, -3.609, -36.052, -127.288, -18.780, -8.307, -6.547, 28.65, -0.41293, 0.29028, 0.11047, 0.85611,
 17:45:28.435,ed:40:fe:65:30:6c, 2015-01-01 04:06:39.740, 0.591, -0.056, 0.808, 0.122, 0.183, 0.122, -3.604, -36.052, -127.293, -18.780, -8.307, -6.547, 28.65, -0.41293, 0.29028, 0.11047, 0.85611,
 17:45:28.435,ed:40:fe:65:30:6c, 2015-01-01 04:06:39.740, 0.59, -0.052, 0.808, 0.549, 0.122, 0.244, -3.604, -36.046, -127.304, -18.780, -8.307, -6.547, 28.65, -0.41293, 0.29028, 0.11047, 0.85611,
 17:45:28.435,ed:40:fe:65:30:6c, 2015-01-01 04:06:39.740, 0.591, -0.056, 0.808, 0.122, 0.183, 0.122, -3.604, -36.052, -127.293, -18.780, -8.307, -6.547, 28.65, -0.41293, 0.29028, 0.11047, 0.85611,
 17:45:28.435,ed:40:fe:65:30:6c, 2015-01-01 04:06:39.740, 0.59, -0.052, 0.808, 0.549, 0.122, 0.244, -3.604, -36.046, -127.304, -18.780, -8.307, -6.547, 28.65, -0.41293, 0.29028, 0.11047, 0.85611,
 17:45:28.435,ed:40:fe:65:30:6c, 2015-01-01 04:06:39.740, 0.591, -0.056, 0.808, 0.122, 0.183, 0.122, -3.604, -36.052, -127.293, -18.780, -8.307, -6.547, 28.65, -0.41293, 0.29028, 0.11047, 0.85611,
 17:45:28.435,ed:40:fe:65:30:6c, 2015-01-01 04:06:39.740, 0.592, -0.052, 0.808, 0.549, 0.122, 0.244, -3.604, -36.046, -127.304, -18.780, -8.307, -6.547, 28.65, -0.41293, 0.29028, 0.11047, 0.85611,
 17:45:28.435,ed:40:fe:65:30:6c, 2015-01-01 04:06:39.740, 0.591, -0.054, 0.808, 0.732, 0.183, 0.366, -3.598, -36.046, -127.299, -18.780, -8.307, -6.547, 28.65, -0.41293, 0.29028, 0.11047, 0.85611,
 17:45:28.435,ed:40:fe:65:30:6c, 2015-01-01 04:06:39.740, 0.592, -0.054, 0.811, 0.732, 0.183, 0.122, -3.587, -36.041, -127.299, -18.780, -8.307, -6.547, 28.65, -0.41293, 0.29028, 0.11047, 0.85611,
 17:45:28.435,ed:40:fe:65:30:6c, 2015-01-01 04:06:39.740, 0.591, -0.054, 0.808, 0.732, 0.183, 0.366, -3.598, -36.046, -127.299, -18.780, -8.307, -6.547, 28.65, -0.41293, 0.29028, 0.11047, 0.85611,
 17:45:28.435,ed:40:fe:65:30:6c, 2015-01-01 04:06:39.740, 0.592, -0.054, 0.811, 0.732, 0.183, 0.122, -3.587, -36.041, -127.299, -18.780, -8.307, -6.547, 28.65, -0.41293, 0.29028, 0.11047, 0.85611,
 17:45:28.435,ed:40:fe:65:30:6c, 2015-01-01 04:06:39.740, 0.591, -0.054, 0.808, 0.732, 0.183, 0.366, -3.598, -36.046, -127.299, -18.780, -8.307, -6.547, 28.65, -0.41293, 0.29028, 0.11047, 0.85611,
 17:45:28.439,ed:35:33:d3:6c:f8, 2015-01-01 04:06:15.220, 0.579, -0.065, 0.804, 0.549, -0.488, 0.061, -4.23, -35.563, 157.698, -15.807, -8.873, -30.673, 27.2, 0.1954, 0.29248, -0.09247, 0.93146,
 17:45:28.439,ed:35:33:d3:6c:f8, 2015-01-01 04:06:15.220, 0.583, -0.059, 0.801, 0.366, 0.427, 0.244, -4.224, -35.568, 157.676, -15.807, -8.873, -30.673, 27.2, 0.1954, 0.29248, -0.09247, 0.93146,
 17:45:28.439,ed:35:33:d3:6c:f8, 2015-01-01 04:06:15.220, 0.579, -0.063, 0.806, 0.793, 0.366, 0.305, -4.219, -35.557, 157.681, -15.807, -8.873, -30.673, 27.2, 0.1954, 0.29248, -0.09247, 0.93146,
 17:45:28.439,ed:35:33:d3:6c:f8, 2015-01-01 04:06:15.220, 0.583, -0.059, 0.801, 0.366, 0.427, 0.244, -4.224, -35.568, 157.676, -15.807, -8.873, -30.673, 27.2, 0.1954, 0.29248, -0.09247, 0.93146,
 17:45:28.439,ed:35:33:d3:6c:f8, 2015-01-01 04:06:15.220, 0.579, -0.063, 0.806, 0.793, 0.366, 0.305, -4.219, -35.557, 157.681, -15.807, -8.873, -30.673, 27.2, 0.1954, 0.29248, -0.09247, 0.93146,
 17:45:28.439,ed:35:33:d3:6c:f8, 2015-01-01 04:06:15.220, 0.583, -0.059, 0.801, 0.366, 0.427, 0.244, -4.224, -35.568, 157.676, -15.807, -8.873, -30.673, 27.2, 0.1954, 0.29248, -0.09247, 0.93146,
 17:45:28.441,f6:90:cc:01:6d:25, 2015-01-01 04:06:26.000, 0.928, -0.271, 0.202, 0.61, 0.183, 0.061, -53.135, -69.994, -122.371, -31.120, -6.560, -5.087, 33.05, 0.12805, -0.62601, 0.07321, -0.76566,
 17:45:28.441,f6:90:cc:01:6d:25, 2015-01-01 04:06:26.000, 0.93, -0.271, 0.203, 0.549, 0.183, 0, -53.119, -69.988, -122.393, -31.120, -6.560, -5.087, 33.05, 0.12805, -0.62601, 0.07321, -0.76566,
 17:45:28.441,f6:90:cc:01:6d:25, 2015-01-01 04:06:26.000, 0.928, -0.271, 0.203, 0.488, 0.244, -0.061, -53.097, -69.988, -122.415, -31.120, -6.560, -5.087, 33.05, 0.12805, -0.62601, 0.07321, -0.76566,
 17:45:28.441,f6:90:cc:01:6d:25, 2015-01-01 04:06:26.000, 0.93, -0.271, 0.203, 0.549, 0.183, 0, -53.119, -69.988, -122.393, -31.120, -6.560, -5.087, 33.05, 0.12805, -0.62601, 0.07321, -0.76566,
 17:45:28.441,f6:90:cc:01:6d:25, 2015-01-01 04:06:26.000, 0.928, -0.271, 0.203, 0.488, 0.244, -0.061, -53.097, -69.988, -122.415, -31.120, -6.560, -5.087, 33.05, 0.12805, -0.62601, 0.07321, -0.76566,
 17:45:28.441,f6:90:cc:01:6d:25, 2015-01-01 04:06:26.000, 0.93, -0.271, 0.203, 0.549, 0.183, 0, -53.119, -69.988, -122.393, -31.120, -6.560, -5.087, 33.05, 0.12805, -0.62601, 0.07321, -0.76566,
 17:45:28.461,e3:ca:2d:fd:e0:8c, 2015-01-01 04:06:34.420, 1.019, -0.074, 0.039, 0.366, 0.61, 0.061, -62.82, -85.353, -145.278, -26.687, -10.413, -7.720, 31.35, -0.15088, -0.66632, 0.19363, -0.70401,
 17:45:28.461,e3:ca:2d:fd:e0:8c, 2015-01-01 04:06:34.420, 1.02, -0.073, 0.04, 0.244, 0.427, 0.122, -62.704, -85.347, -145.382, -26.687, -10.413, -7.720, 31.35, -0.15088, -0.66632, 0.19363, -0.70401,
 17:45:28.461,e3:ca:2d:fd:e0:8c, 2015-01-01 04:06:34.420, 1.019, -0.072, 0.038, 0.061, 0.183, 0.122, -62.639, -85.342, -145.443, -26.687, -10.413, -7.720, 31.35, -0.15088, -0.66632, 0.19363, -0.70401,
 17:45:28.461,e3:ca:2d:fd:e0:8c, 2015-01-01 04:06:34.420, 1.02, -0.073, 0.04, 0.244, 0.427, 0.122, -62.704, -85.347, -145.382, -26.687, -10.413, -7.720, 31.35, -0.15088, -0.66632, 0.19363, -0.70401,
 17:45:28.461,e3:ca:2d:fd:e0:8c, 2015-01-01 04:06:34.420, 1.019, -0.072, 0.038, 0.061, 0.183, 0.122, -62.639, -85.342, -145.443, -26.687, -10.413, -7.720, 31.35, -0.15088, -0.66632, 0.19363, -0.70401,
 17:45:28.461,e3:ca:2d:fd:e0:8c, 2015-01-01 04:06:34.420, 1.02, -0.073, 0.04, 0.244, 0.427, 0.122, -62.704, -85.347, -145.382, -26.687, -10.413, -7.720, 31.35, -0.15088, -0.66632, 0.19363, -0.70401,
 17:45:28.465,ed:40:fe:65:30:6c, 2015-01-01 04:06:39.740, 0.589, -0.054, 0.811, 0.732, 0.183, 0.122, -3.587, -36.041, -127.299, -18.780, -8.307, -6.547, 28.65, -0.41293, 0.29028, 0.11047, 0.85611,
 17:45:28.465,ed:40:fe:65:30:6c, 2015-01-01 04:06:39.740, 0.588, -0.054, 0.812, 0.366, 0.244, -0.061, -3.582, -36.041, -127.299, -18.780, -8.307, -6.547, 28.65, -0.41293, 0.29028, 0.11047, 0.85611,
 17:45:28.465,ed:40:fe:65:30:6c, 2015-01-01 04:06:39.740, 0.589, -0.052, 0.81, 0.305, 0.122, -0.183, -3.576, -36.035, -127.31, -18.780, -8.307, -6.547, 28.65, -0.41293, 0.29028, 0.11047, 0.85611,
 17:45:28.465,ed:40:fe:65:30:6c, 2015-01-01 04:06:39.740, 0.588, -0.054, 0.812, 0.366, 0.244, -0.061, -3.582, -36.041, -127.299, -18.780, -8.307, -6.547, 28.65, -0.41293, 0.29028, 0.11047, 0.85611,
 17:45:28.465,ed:40:fe:65:30:6c, 2015-01-01 04:06:39.740, 0.589, -0.052, 0.81, 0.305, 0.122, -0.183, -3.576, -36.035, -127.31, -18.780, -8.307, -6.547, 28.65, -0.41293, 0.29028, 0.11047, 0.85611,
 17:45:28.465,ed:40:fe:65:30:6c, 2015-01-01 04:06:39.740, 0.588, -0.054, 0.812, 0.366, 0.244, -0.061, -3.582, -36.041, -127.299, -18.780, -8.307, -6.547, 28.65, -0.41293, 0.29028, 0.11047, 0.85611,
 17:45:28.469,ed:35:33:d3:6c:f8, 2015-01-01 04:06:15.220, 0.579, -0.063, 0.806, 0.793, 0.366, 0.305, -4.219, -35.557, 157.681, -15.833, -8.853, -31.047, 27.2, 0.1954, 0.29248, -0.09247, 0.93146,
 17:45:28.469,ed:35:33:d3:6c:f8, 2015-01-01 04:06:15.220, 0.577, -0.063, 0.812, 1.099, 0.122, -0.183, -4.202, -35.557, 157.692, -15.833, -8.853, -31.047, 27.2, 0.1954, 0.29248, -0.09247, 0.93146,
 17:45:28.469,ed:35:33:d3:6c:f8, 2015-01-01 04:06:15.220, 0.579, -0.062, 0.81, 0.366, -0.061, 0, -4.186, -35.557, 157.692, -15.833, -8.853, -31.047, 27.2, 0.1954, 0.29248, -0.09247, 0.93146,
 17:45:28.469,ed:35:33:d3:6c:f8, 2015-01-01 04:06:15.220, 0.577, -0.063, 0.812, 1.099, 0.122, -0.183, -4.202, -35.557, 157.692, -15.833, -8.853, -31.047, 27.2, 0.1954, 0.29248, -0.09247, 0.93146,
 17:45:28.469,ed:35:33:d3:6c:f8, 2015-01-01 04:06:15.220, 0.579, -0.062, 0.81, 0.366, -0.061, 0, -4.186, -35.557, 157.692, -15.833, -8.853, -31.047, 27.2, 0.1954, 0.29248, -0.09247, 0.93146,
 17:45:28.469,ed:35:33:d3:6c:f8, 2015-01-01 04:06:15.220, 0.577, -0.063, 0.812, 1.099, 0.122, -0.183, -4.202, -35.557, 157.692, -15.833, -8.853, -31.047, 27.2, 0.1954, 0.29248, -0.09247, 0.93146,
 17:45:28.472,f6:90:cc:01:6d:25, 2015-01-01 04:06:26.000, 0.929, -0.271, 0.203, 0.488, 0.244, -0.061, -53.097, -69.988, -122.415, -31.187, -6.247, -5.960, 33.05, 0.12805, -0.62601, 0.07321, -0.76566,
 17:45:28.472,f6:90:cc:01:6d:25, 2015-01-01 04:06:26.000, 0.927, -0.27, 0.204, 0.366, 0.305, -0.183, -53.069, -69.988, -122.448, -31.187, -6.247, -5.960, 33.05, 0.12805, -0.62601, 0.07321, -0.76566,
 17:45:28.472,f6:90:cc:01:6d:25, 2015-01-01 04:06:26.000, 0.929, -0.267, 0.201, 0.305, 0.244, -0.366, -53.042, -69.988, -122.481, -31.187, -6.247, -5.960, 33.05, 0.12805, -0.62601, 0.07321, -0.76566,
 17:45:28.472,f6:90:cc:01:6d:25, 2015-01-01 04:06:26.000, 0.927, -0.27, 0.204, 0.366, 0.305, -0.183, -53.069, -69.988, -122.448, -31.187, -6.247, -5.960, 33.05, 0.12805, -0.62601, 0.07321, -0.76566,
 17:45:28.472,f6:90:cc:01:6d:25, 2015-01-01 04:06:26.000, 0.929, -0.267, 0.201, 0.305, 0.244, -0.366, -53.042, -69.988, -122.481, -31.187, -6.247, -5.960, 33.05, 0.12805, -0.62601, 0.07321, -0.76566,
 17:45:28.472,f6:90:cc:01:6d:25, 2015-01-01 04:06:26.000, 0.927, -0.27, 0.204, 0.366, 0.305, -0.183, -53.069, -69.988, -122.448, -31.187, -6.247, -5.960, 33.05, 0.12805, -0.62601, 0.07321, -0.76566,
 17:45:28.492,e3:ca:2d:fd:e0:8c, 2015-01-01 04:06:34.420, 1.02, -0.072, 0.038, 0.061, 0.183, 0.122, -62.639, -85.342, -145.443, -26.687, -10.413, -7.720, 31.35, -0.15088, -0.66632, 0.19363, -0.70401,
 17:45:28.492,e3:ca:2d:fd:e0:8c, 2015-01-01 04:06:34.420, 1.02, -0.069, 0.036, -0.244, 0.122, 0, -62.606, -85.336, -145.486, -26.687, -10.413, -7.720, 31.35, -0.15088, -0.66632, 0.19363, -0.70401,
 17:45:28.492,e3:ca:2d:fd:e0:8c, 2015-01-01 04:06:34.420, 1.02, -0.069, 0.035, -0.732, 0.061, 0, -62.595, -85.336, -145.525, -26.687, -10.413, -7.720, 31.35, -0.15088, -0.66632, 0.19363, -0.70401,
 17:45:28.492,e3:ca:2d:fd:e0:8c, 2015-01-01 04:06:34.420, 1.02, -0.069, 0.036, -0.244, 0.122, 0, -62.606, -85.336, -145.486, -26.687, -10.413, -7.720, 31.35, -0.15088, -0.66632, 0.19363, -0.70401,
 17:45:28.492,e3:ca:2d:fd:e0:8c, 2015-01-01 04:06:34.420, 1.02, -0.069, 0.035, -0.732, 0.061, 0, -62.595, -85.336, -145.525, -26.687, -10.413, -7.720, 31.35, -0.15088, -0.66632, 0.19363, -0.70401,
 17:45:28.492,e3:ca:2d:fd:e0:8c, 2015-01-01 04:06:34.420, 1.02, -0.069, 0.036, -0.244, 0.122, 0, -62.606, -85.336, -145.486, -26.687, -10.413, -7.720, 31.35, -0.15088, -0.66632, 0.19363, -0.70401,
 17:45:28.521,e3:ca:2d:fd:e0:8c, 2015-01-01 04:06:34.420, 1.02, -0.069, 0.035, -0.732, 0.061, 0, -62.595, -85.336, -145.525, -26.687, -10.413, -7.720, 31.35, -0.15088, -0.66632, 0.19363, -0.70401,
 17:45:28.521,e3:ca:2d:fd:e0:8c, 2015-01-01 04:06:34.420, 1.021, -0.076, 0.036, -1.099, -0.061, 0, -62.611, -85.336, -145.547, -26.687, -10.413, -7.720, 31.35, -0.15088, -0.66632, 0.19363, -0.70401,
 17:45:28.521,e3:ca:2d:fd:e0:8c, 2015-01-01 04:06:34.420, 1.02, -0.081, 0.035, -1.038, -0.427, 0, -62.704, -85.342, -145.481, -26.687, -10.413, -7.720, 31.35, -0.15088, -0.66632, 0.19363, -0.70401,
 17:45:28.521,e3:ca:2d:fd:e0:8c, 2015-01-01 04:06:34.420, 1.021, -0.076, 0.036, -1.099, -0.061, 0, -62.611, -85.336, -145.547, -26.687, -10.413, -7.720, 31.35, -0.15088, -0.66632, 0.19363, -0.70401,
 17:45:28.521,e3:ca:2d:fd:e0:8c, 2015-01-01 04:06:34.420, 1.02, -0.081, 0.035, -1.038, -0.427, 0, -62.704, -85.342, -145.481, -26.687, -10.413, -7.720, 31.35, -0.15088, -0.66632, 0.19363, -0.70401,
 17:45:28.521,e3:ca:2d:fd:e0:8c, 2015-01-01 04:06:34.420, 1.021, -0.076, 0.036, -1.099, -0.061, 0, -62.611, -85.336, -145.547, -26.687, -10.413, -7.720, 31.35, -0.15088, -0.66632, 0.19363, -0.70401,
 17:45:28.525,ed:40:fe:65:30:6c, 2015-01-01 04:06:39.740, 0.588, -0.052, 0.81, 0.305, 0.122, -0.183, -3.576, -36.035, -127.31, -18.780, -8.307, -6.547, 28.65, -0.41293, 0.29028, 0.11047, 0.85611,
 17:45:28.525,ed:40:fe:65:30:6c, 2015-01-01 04:06:39.740, 0.589, -0.049, 0.808, 0.488, -0.061, -0.244, -3.565, -36.035, -127.315, -18.780, -8.307, -6.547, 28.65, -0.41293, 0.29028, 0.11047, 0.85611,
 17:45:28.525,ed:40:fe:65:30:6c, 2015-01-01 04:06:39.740, 0.588, -0.048, 0.809, 0.427, -0.183, -0.488, -3.554, -36.041, -127.326, -18.780, -8.307, -6.547, 28.65, -0.41293, 0.29028, 0.11047, 0.85611,
 17:45:28.525,ed:40:fe:65:30:6c, 2015-01-01 04:06:39.740, 0.589, -0.049, 0.808, 0.488, -0.061, -0.244, -3.565, -36.035, -127.315, -18.780, -8.307, -6.547, 28.65, -0.41293, 0.29028, 0.11047, 0.85611,
 17:45:28.525,ed:40:fe:65:30:6c, 2015-01-01 04:06:39.740, 0.588, -0.048, 0.809, 0.427, -0.183, -0.488, -3.554, -36.041, -127.326, -18.780, -8.307, -6.547, 28.65, -0.41293, 0.29028, 0.11047, 0.85611,
 17:45:28.525,ed:40:fe:65:30:6c, 2015-01-01 04:06:39.740, 0.589, -0.049, 0.808, 0.488, -0.061, -0.244, -3.565, -36.035, -127.315, -18.780, -8.307, -6.547, 28.65, -0.41293, 0.29028, 0.11047, 0.85611,
 17:45:28.529,ed:35:33:d3:6c:f8, 2015-01-01 04:06:15.220, 0.576, -0.062, 0.81, 0.366, -0.061, 0, -4.186, -35.557, 157.692, -15.833, -8.853, -31.047, 27.2, 0.1954, 0.29248, -0.09247, 0.93146,
 17:45:28.529,ed:35:33:d3:6c:f8, 2015-01-01 04:06:15.220, 0.577, -0.059, 0.808, 0.122, 0.427, 0, -4.186, -35.552, 157.698, -15.833, -8.853, -31.047, 27.2, 0.1954, 0.29248, -0.09247, 0.93146,
 17:45:28.529,ed:35:33:d3:6c:f8, 2015-01-01 04:06:15.220, 0.576, -0.059, 0.805, -0.366, 0.549, 0.244, -4.191, -35.541, 157.725, -15.833, -8.853, -31.047, 27.2, 0.1954, 0.29248, -0.09247, 0.93146,
 17:45:28.529,ed:35:33:d3:6c:f8, 2015-01-01 04:06:15.220, 0.577, -0.059, 0.808, 0.122, 0.427, 0, -4.186, -35.552, 157.698, -15.833, -8.853, -31.047, 27.2, 0.1954, 0.29248, -0.09247, 0.93146,
 17:45:28.529,ed:35:33:d3:6c:f8, 2015-01-01 04:06:15.220, 0.576, -0.059, 0.805, -0.366, 0.549, 0.244, -4.191, -35.541, 157.725, -15.833, -8.853, -31.047, 27.2, 0.1954, 0.29248, -0.09247, 0.93146,
 17:45:28.529,ed:35:33:d3:6c:f8, 2015-01-01 04:06:15.220, 0.577, -0.059, 0.808, 0.122, 0.427, 0, -4.186, -35.552, 157.698, -15.833, -8.853, -31.047, 27.2, 0.1954, 0.29248, -0.09247, 0.93146,
 17:45:28.531,f6:90:cc:01:6d:25, 2015-01-01 04:06:26.000, 0.926, -0.267, 0.201, 0.305, 0.244, -0.366, -53.042, -69.988, -122.481, -31.187, -6.247, -5.960, 33.05, 0.12805, -0.62601, 0.07321, -0.76566,
 17:45:28.531,f6:90:cc:01:6d:25, 2015-01-01 04:06:26.000, 0.926, -0.265, 0.2, 0, 0, -0.549, -53.026, -69.999, -122.514, -31.187, -6.247, -5.960, 33.05, 0.12805, -0.62601, 0.07321, -0.76566,
 17:45:28.531,f6:90:cc:01:6d:25, 2015-01-01 04:06:26.000, 0.926, -0.266, 0.2, -0.427, -0.183, -0.61, -53.02, -70.01, -122.536, -31.187, -6.247, -5.960, 33.05, 0.12805, -0.62601, 0.07321, -0.76566,
 17:45:28.531,f6:90:cc:01:6d:25, 2015-01-01 04:06:26.000, 0.926, -0.265, 0.2, 0, 0, -0.549, -53.026, -69.999, -122.514, -31.187, -6.247, -5.960, 33.05, 0.12805, -0.62601, 0.07321, -0.76566,
 17:45:28.531,f6:90:cc:01:6d:25, 2015-01-01 04:06:26.000, 0.926, -0.266, 0.2, -0.427, -0.183, -0.61, -53.02, -70.01, -122.536, -31.187, -6.247, -5.960, 33.05, 0.12805, -0.62601, 0.07321, -0.76566,
 17:45:28.531,f6:90:cc:01:6d:25, 2015-01-01 04:06:26.000, 0.926, -0.265, 0.2, 0, 0, -0.549, -53.026, -69.999, -122.514, -31.187, -6.247, -5.960, 33.05, 0.12805, -0.62601, 0.07321, -0.76566,
 17:45:28.555,ed:40:fe:65:30:6c, 2015-01-01 04:06:39.740, 0.591, -0.048, 0.809, 0.427, -0.183, -0.488, -3.554, -36.041, -127.326, -18.780, -8.307, -6.547, 28.65, -0.41293, 0.29028, 0.11047, 0.85611,
 17:45:28.555,ed:40:fe:65:30:6c, 2015-01-01 04:06:39.740, 0.592, -0.05, 0.81, 0.122, -0.305, -0.61, -3.538, -36.046, -127.343, -18.780, -8.307, -6.547, 28.65, -0.41293, 0.29028, 0.11047, 0.85611,
 17:45:28.555,ed:40:fe:65:30:6c, 2015-01-01 04:06:39.740, 0.591, -0.05, 0.808, -0.183, -0.427, -0.61, -3.532, -36.052, -127.359, -18.780, -8.307, -6.547, 28.65, -0.41293, 0.29028, 0.11047, 0.85611,
 17:45:28.555,ed:40:fe:65:30:6c, 2015-01-01 04:06:39.740, 0.592, -0.05, 0.81, 0.122, -0.305, -0.61, -3.538, -36.046, -127.343, -18.780, -8.307, -6.547, 28.65, -0.41293, 0.29028, 0.11047, 0.85611,
 17:45:28.555,ed:40:fe:65:30:6c, 2015-01-01 04:06:39.740, 0.591, -0.05, 0.808, -0.183, -0.427, -0.61, -3.532, -36.052, -127.359, -18.780, -8.307, -6.547, 28.65, -0.41293, 0.29028, 0.11047, 0.85611,
 17:45:28.555,ed:40:fe:65:30:6c, 2015-01-01 04:06:39.740, 0.592, -0.05, 0.81, 0.122, -0.305, -0.61, -3.538, -36.046, -127.343, -18.780, -8.307, -6.547, 28.65, -0.41293, 0.29028, 0.11047, 0.85611,
 17:45:28.559,ed:35:33:d3:6c:f8, 2015-01-01 04:06:15.220, 0.578, -0.059, 0.805, -0.366, 0.549, 0.244, -4.191, -35.541, 157.725, -15.833, -8.853, -31.047, 27.2, 0.19476, 0.29257, -0.09308, 0.93152,
 17:45:28.559,ed:35:33:d3:6c:f8, 2015-01-01 04:06:15.220, 0.578, -0.06, 0.81, 0.061, 0.183, -0.549, -4.191, -35.535, 157.753, -15.833, -8.853, -31.047, 27.2, 0.19476, 0.29257, -0.09308, 0.93152,
 17:45:28.559,ed:35:33:d3:6c:f8, 2015-01-01 04:06:15.220, 0.578, -0.059, 0.81, 0, 0, -0.671, -4.186, -35.535, 157.758, -15.833, -8.853, -31.047, 27.2, 0.19476, 0.29257, -0.09308, 0.93152,
 17:45:28.559,ed:35:33:d3:6c:f8, 2015-01-01 04:06:15.220, 0.578, -0.06, 0.81, 0.061, 0.183, -0.549, -4.191, -35.535, 157.753, -15.833, -8.853, -31.047, 27.2, 0.19476, 0.29257, -0.09308, 0.93152,
 17:45:28.559,ed:35:33:d3:6c:f8, 2015-01-01 04:06:15.220, 0.578, -0.059, 0.81, 0, 0, -0.671, -4.186, -35.535, 157.758, -15.833, -8.853, -31.047, 27.2, 0.19476, 0.29257, -0.09308, 0.93152,
 17:45:28.559,ed:35:33:d3:6c:f8, 2015-01-01 04:06:15.220, 0.578, -0.06, 0.81, 0.061, 0.183, -0.549, -4.191, -35.535, 157.753, -15.833, -8.853, -31.047, 27.2, 0.19476, 0.29257, -0.09308, 0.93152,
 17:45:28.561,f6:90:cc:01:6d:25, 2015-01-01 04:06:26.000, 0.928, -0.266, 0.2, -0.427, -0.183, -0.61, -53.02, -70.01, -122.536, -31.187, -6.247, -5.960, 33.05, 0.12796, -0.62582, 0.07379, -0.76578,
 17:45:28.561,f6:90:cc:01:6d:25, 2015-01-01 04:06:26.000, 0.928, -0.271, 0.201, -0.977, -0.122, -0.427, -53.031, -70.021, -122.552, -31.187, -6.247, -5.960, 33.05, 0.12796, -0.62582, 0.07379, -0.76578,
 17:45:28.561,f6:90:cc:01:6d:25, 2015-01-01 04:06:26.000, 0.928, -0.275, 0.2, -1.16, 0, -0.244, -53.053, -70.027, -122.569, -31.187, -6.247, -5.960, 33.05, 0.12796, -0.62582, 0.07379, -0.76578,
 17:45:28.561,f6:90:cc:01:6d:25, 2015-01-01 04:06:26.000, 0.928, -0.271, 0.201, -0.977, -0.122, -0.427, -53.031, -70.021, -122.552, -31.187, -6.247, -5.960, 33.05, 0.12796, -0.62582, 0.07379, -0.76578,
 17:45:28.561,f6:90:cc:01:6d:25, 2015-01-01 04:06:26.000, 0.928, -0.275, 0.2, -1.16, 0, -0.244, -53.053, -70.027, -122.569, -31.187, -6.247, -5.960, 33.05, 0.12796, -0.62582, 0.07379, -0.76578,
 17:45:28.561,f6:90:cc:01:6d:25, 2015-01-01 04:06:26.000, 0.928, -0.271, 0.201, -0.977, -0.122, -0.427, -53.031, -70.021, -122.552, -31.187, -6.247, -5.960, 33.05, 0.12796, -0.62582, 0.07379, -0.76578,
 17:45:28.581,e3:ca:2d:fd:e0:8c, 2015-01-01 04:06:34.420, 1.021, -0.081, 0.035, -1.038, -0.427, 0, -62.704, -85.342, -145.481, -26.733, -10.473, -7.820, 31.35, -0.15088, -0.66632, 0.19363, -0.70401,
 17:45:28.581,e3:ca:2d:fd:e0:8c, 2015-01-01 04:06:34.420, 1.018, -0.082, 0.036, -1.038, -0.977, 0, -62.919, -85.347, -145.311, -26.733, -10.473, -7.820, 31.35, -0.15088, -0.66632, 0.19363, -0.70401,
 17:45:28.581,e3:ca:2d:fd:e0:8c, 2015-01-01 04:06:34.420, 1.021, -0.081, 0.038, -0.793, -0.488, -0.061, -63.078, -85.353, -145.19, -26.733, -10.473, -7.820, 31.35, -0.15088, -0.66632, 0.19363, -0.70401,
 17:45:28.581,e3:ca:2d:fd:e0:8c, 2015-01-01 04:06:34.420, 1.018, -0.082, 0.036, -1.038, -0.977, 0, -62.919, -85.347, -145.311, -26.733, -10.473, -7.820, 31.35, -0.15088, -0.66632, 0.19363, -0.70401,
 17:45:28.581,e3:ca:2d:fd:e0:8c, 2015-01-01 04:06:34.420, 1.021, -0.081, 0.038, -0.793, -0.488, -0.061, -63.078, -85.353, -145.19, -26.733, -10.473, -7.820, 31.35, -0.15088, -0.66632, 0.19363, -0.70401,
 17:45:28.581,e3:ca:2d:fd:e0:8c, 2015-01-01 04:06:34.420, 1.018, -0.082, 0.036, -1.038, -0.977, 0, -62.919, -85.347, -145.311, -26.733, -10.473, -7.820, 31.35, -0.15088, -0.66632, 0.19363, -0.70401,
 17:45:28.589,ed:35:33:d3:6c:f8, 2015-01-01 04:06:15.220, 0.579, -0.059, 0.81, 0, 0, -0.671, -4.186, -35.535, 157.758, -15.833, -8.853, -31.047, 27.2, 0.19476, 0.29257, -0.09308, 0.93152,
 17:45:28.589,ed:35:33:d3:6c:f8, 2015-01-01 04:06:15.220, 0.581, -0.057, 0.808, -0.305, -0.122, -0.366, -4.18, -35.535, 157.758, -15.833, -8.853, -31.047, 27.2, 0.19476, 0.29257, -0.09308, 0.93152,
 17:45:28.589,ed:35:33:d3:6c:f8, 2015-01-01 04:06:15.220, 0.579, -0.055, 0.804, -0.61, -0.305, 0.366, -4.191, -35.541, 157.758, -15.833, -8.853, -31.047, 27.2, 0.19476, 0.29257, -0.09308, 0.93152,
 17:45:28.589,ed:35:33:d3:6c:f8, 2015-01-01 04:06:15.220, 0.581, -0.057, 0.808, -0.305, -0.122, -0.366, -4.18, -35.535, 157.758, -15.833, -8.853, -31.047, 27.2, 0.19476, 0.29257, -0.09308, 0.93152,
 17:45:28.589,ed:35:33:d3:6c:f8, 2015-01-01 04:06:15.220, 0.579, -0.055, 0.804, -0.61, -0.305, 0.366, -4.191, -35.541, 157.758, -15.833, -8.853, -31.047, 27.2, 0.19476, 0.29257, -0.09308, 0.93152,
 17:45:28.589,ed:35:33:d3:6c:f8, 2015-01-01 04:06:15.220, 0.581, -0.057, 0.808, -0.305, -0.122, -0.366, -4.18, -35.535, 157.758, -15.833, -8.853, -31.047, 27.2, 0.19476, 0.29257, -0.09308, 0.93152,
 17:45:28.591,f6:90:cc:01:6d:25, 2015-01-01 04:06:26.000, 0.927, -0.275, 0.2, -1.16, 0, -0.244, -53.053, -70.027, -122.569, -31.187, -6.247, -5.960, 33.05, 0.12796, -0.62582, 0.07379, -0.76578,
 17:45:28.591,f6:90:cc:01:6d:25, 2015-01-01 04:06:26.000, 0.924, -0.277, 0.2, -1.038, -0.061, -0.061, -53.075, -70.027, -122.563, -31.187, -6.247, -5.960, 33.05, 0.12796, -0.62582, 0.07379, -0.76578,
 17:45:28.591,f6:90:cc:01:6d:25, 2015-01-01 04:06:26.000, 0.927, -0.277, 0.201, -0.61, -0.122, 0, -53.097, -70.027, -122.547, -31.187, -6.247, -5.960, 33.05, 0.12796, -0.62582, 0.07379, -0.76578,
 17:45:28.591,f6:90:cc:01:6d:25, 2015-01-01 04:06:26.000, 0.924, -0.277, 0.2, -1.038, -0.061, -0.061, -53.075, -70.027, -122.563, -31.187, -6.247, -5.960, 33.05, 0.12796, -0.62582, 0.07379, -0.76578,
 17:45:28.591,f6:90:cc:01:6d:25, 2015-01-01 04:06:26.000, 0.927, -0.277, 0.201, -0.61, -0.122, 0, -53.097, -70.027, -122.547, -31.187, -6.247, -5.960, 33.05, 0.12796, -0.62582, 0.07379, -0.76578,
 17:45:28.591,f6:90:cc:01:6d:25, 2015-01-01 04:06:26.000, 0.924, -0.277, 0.2, -1.038, -0.061, -0.061, -53.075, -70.027, -122.563, -31.187, -6.247, -5.960, 33.05, 0.12796, -0.62582, 0.07379, -0.76578,
 17:45:28.616,ed:40:fe:65:30:6c, 2015-01-01 04:06:39.740, 0.591, -0.05, 0.808, -0.183, -0.427, -0.61, -3.532, -36.052, -127.359, -18.813, -8.360, -6.887, 28.65, -0.41293, 0.29028, 0.11047, 0.85611,
 17:45:28.616,ed:40:fe:65:30:6c, 2015-01-01 04:06:39.740, 0.587, -0.048, 0.804, -0.183, -0.305, -0.305, -3.532, -36.063, -127.375, -18.813, -8.360, -6.887, 28.65, -0.41293, 0.29028, 0.11047, 0.85611,
 17:45:28.616,ed:40:fe:65:30:6c, 2015-01-01 04:06:39.740, 0.591, -0.05, 0.804, 0.061, -0.244, 0.122, -3.532, -36.068, -127.381, -18.813, -8.360, -6.887, 28.65, -0.41293, 0.29028, 0.11047, 0.85611,
 17:45:28.616,ed:40:fe:65:30:6c, 2015-01-01 04:06:39.740, 0.587, -0.048, 0.804, -0.183, -0.305, -0.305, -3.532, -36.063, -127.375, -18.813, -8.360, -6.887, 28.65, -0.41293, 0.29028, 0.11047, 0.85611,
 17:45:28.616,ed:40:fe:65:30:6c, 2015-01-01 04:06:39.740, 0.591, -0.05, 0.804, 0.061, -0.244, 0.122, -3.532, -36.068, -127.381, -18.813, -8.360, -6.887, 28.65, -0.41293, 0.29028, 0.11047, 0.85611,
 17:45:28.616,ed:40:fe:65:30:6c, 2015-01-01 04:06:39.740, 0.587, -0.048, 0.804, -0.183, -0.305, -0.305, -3.532, -36.063, -127.375, -18.813, -8.360, -6.887, 28.65, -0.41293, 0.29028, 0.11047, 0.85611,
 17:45:28.620,ed:35:33:d3:6c:f8, 2015-01-01 04:06:15.605, 0.576, -0.055, 0.804, -0.61, -0.305, 0.366, -4.191, -35.541, 157.758, -15.833, -8.853, -31.047, 27.2, 0.19476, 0.29257, -0.09308, 0.93152,
 17:45:28.620,ed:35:33:d3:6c:f8, 2015-01-01 04:06:15.605, 0.57, -0.056, 0.803, 0.061, -0.427, 0.305, -4.202, -35.546, 157.769, -15.833, -8.853, -31.047, 27.2, 0.19476, 0.29257, -0.09308, 0.93152,
 17:45:28.620,ed:35:33:d3:6c:f8, 2015-01-01 04:06:15.605, 0.576, -0.058, 0.803, 0.427, -0.305, 0.671, -4.202, -35.552, 157.797, -15.833, -8.853, -31.047, 27.2, 0.19476, 0.29257, -0.09308, 0.93152,
 17:45:28.620,ed:35:33:d3:6c:f8, 2015-01-01 04:06:15.605, 0.57, -0.056, 0.803, 0.061, -0.427, 0.305, -4.202, -35.546, 157.769, -15.833, -8.853, -31.047, 27.2, 0.19476, 0.29257, -0.09308, 0.93152,
 17:45:28.620,ed:35:33:d3:6c:f8, 2015-01-01 04:06:15.605, 0.576, -0.058, 0.803, 0.427, -0.305, 0.671, -4.202, -35.552, 157.797, -15.833, -8.853, -31.047, 27.2, 0.19476, 0.29257, -0.09308, 0.93152,
 17:45:28.620,ed:35:33:d3:6c:f8, 2015-01-01 04:06:15.605, 0.57, -0.056, 0.803, 0.061, -0.427, 0.305, -4.202, -35.546, 157.769, -15.833, -8.853, -31.047, 27.2, 0.19476, 0.29257, -0.09308, 0.93152,
 17:45:28.621,f6:90:cc:01:6d:25, 2015-01-01 04:06:26.390, 0.921, -0.277, 0.201, -0.61, -0.122, 0, -53.097, -70.027, -122.547, -31.187, -6.247, -5.960, 33.05, 0.12796, -0.62582, 0.07379, -0.76578,
 17:45:28.621,f6:90:cc:01:6d:25, 2015-01-01 04:06:26.390, 0.922, -0.274, 0.205, 0, -0.122, 0.061, -53.113, -70.027, -122.52, -31.187, -6.247, -5.960, 33.05, 0.12796, -0.62582, 0.07379, -0.76578,
 17:45:28.621,f6:90:cc:01:6d:25, 2015-01-01 04:06:26.390, 0.921, -0.267, 0.21, 0.793, -0.305, -0.183, -53.108, -70.032, -122.503, -31.187, -6.247, -5.960, 33.05, 0.12796, -0.62582, 0.07379, -0.76578,
 17:45:28.621,f6:90:cc:01:6d:25, 2015-01-01 04:06:26.390, 0.922, -0.274, 0.205, 0, -0.122, 0.061, -53.113, -70.027, -122.52, -31.187, -6.247, -5.960, 33.05, 0.12796, -0.62582, 0.07379, -0.76578,
 17:45:28.621,f6:90:cc:01:6d:25, 2015-01-01 04:06:26.390, 0.921, -0.267, 0.21, 0.793, -0.305, -0.183, -53.108, -70.032, -122.503, -31.187, -6.247, -5.960, 33.05, 0.12796, -0.62582, 0.07379, -0.76578,
 17:45:28.621,f6:90:cc:01:6d:25, 2015-01-01 04:06:26.390, 0.922, -0.274, 0.205, 0, -0.122, 0.061, -53.113, -70.027, -122.52, -31.187, -6.247, -5.960, 33.05, 0.12796, -0.62582, 0.07379, -0.76578,
 17:45:28.644,e3:ca:2d:fd:e0:8c, 2015-01-01 04:06:34.420, 1.013, -0.081, 0.038, -0.793, -0.488, -0.061, -63.078, -85.353, -145.19, -26.733, -10.473, -7.820, 31.35, -0.15094, -0.66626, 0.19415, -0.70392,
 17:45:28.644,e3:ca:2d:fd:e0:8c, 2015-01-01 04:06:34.420, 1.009, -0.076, 0.042, -0.366, 0.916, -0.183, -62.957, -85.347, -145.344, -26.733, -10.473, -7.820, 31.35, -0.15094, -0.66626, 0.19415, -0.70392,
 17:45:28.644,e3:ca:2d:fd:e0:8c, 2015-01-01 04:06:34.420, 1.013, -0.063, 0.049, -0.244, 2.625, -0.61, -62.43, -85.336, -145.882, -26.733, -10.473, -7.820, 31.35, -0.15094, -0.66626, 0.19415, -0.70392,
 17:45:28.644,e3:ca:2d:fd:e0:8c, 2015-01-01 04:06:34.420, 1.009, -0.076, 0.042, -0.366, 0.916, -0.183, -62.957, -85.347, -145.344, -26.733, -10.473, -7.820, 31.35, -0.15094, -0.66626, 0.19415, -0.70392,
 17:45:28.644,e3:ca:2d:fd:e0:8c, 2015-01-01 04:06:34.420, 1.013, -0.063, 0.049, -0.244, 2.625, -0.61, -62.43, -85.336, -145.882, -26.733, -10.473, -7.820, 31.35, -0.15094, -0.66626, 0.19415, -0.70392,
 17:45:28.644,e3:ca:2d:fd:e0:8c, 2015-01-01 04:06:34.420, 1.009, -0.076, 0.042, -0.366, 0.916, -0.183, -62.957, -85.347, -145.344, -26.733, -10.473, -7.820, 31.35, -0.15094, -0.66626, 0.19415, -0.70392,
 17:45:28.646,ed:40:fe:65:30:6c, 2015-01-01 04:06:39.740, 0.583, -0.05, 0.804, 0.061, -0.244, 0.122, -3.532, -36.068, -127.381, -18.813, -8.360, -6.887, 28.65, -0.41266, 0.29037, 0.11084, 0.85614,
 17:45:28.646,ed:40:fe:65:30:6c, 2015-01-01 04:06:39.740, 0.584, -0.054, 0.807, 0.305, -0.061, 0.488, -3.532, -36.068, -127.375, -18.813, -8.360, -6.887, 28.65, -0.41266, 0.29037, 0.11084, 0.85614,
 17:45:28.646,ed:40:fe:65:30:6c, 2015-01-01 04:06:39.740, 0.583, -0.056, 0.809, 0.427, 0, 0.427, -3.532, -36.068, -127.365, -18.813, -8.360, -6.887, 28.65, -0.41266, 0.29037, 0.11084, 0.85614,
 17:45:28.646,ed:40:fe:65:30:6c, 2015-01-01 04:06:39.740, 0.584, -0.054, 0.807, 0.305, -0.061, 0.488, -3.532, -36.068, -127.375, -18.813, -8.360, -6.887, 28.65, -0.41266, 0.29037, 0.11084, 0.85614,
 17:45:28.646,ed:40:fe:65:30:6c, 2015-01-01 04:06:39.740, 0.583, -0.056, 0.809, 0.427, 0, 0.427, -3.532, -36.068, -127.365, -18.813, -8.360, -6.887, 28.65, -0.41266, 0.29037, 0.11084, 0.85614,
 17:45:28.646,ed:40:fe:65:30:6c, 2015-01-01 04:06:39.740, 0.584, -0.054, 0.807, 0.305, -0.061, 0.488, -3.532, -36.068, -127.375, -18.813, -8.360, -6.887, 28.65, -0.41266, 0.29037, 0.11084, 0.85614,
 17:45:28.648,ed:35:33:d3:6c:f8, 2015-01-01 04:06:15.605, 0.568, -0.058, 0.803, 0.427, -0.305, 0.671, -4.202, -35.552, 157.797, -15.833, -8.853, -31.047, 27.2, 0.19476, 0.29257, -0.09308, 0.93152,
 17:45:28.648,ed:35:33:d3:6c:f8, 2015-01-01 04:06:15.605, 0.575, -0.063, 0.804, 0.732, 0.122, 1.16, -4.202, -35.552, 157.841, -15.833, -8.853, -31.047, 27.2, 0.19476, 0.29257, -0.09308, 0.93152,
 17:45:28.648,ed:35:33:d3:6c:f8, 2015-01-01 04:06:15.605, 0.568, -0.064, 0.806, 0.61, 0.183, 1.16, -4.208, -35.546, 157.896, -15.833, -8.853, -31.047, 27.2, 0.19476, 0.29257, -0.09308, 0.93152,
 17:45:28.648,ed:35:33:d3:6c:f8, 2015-01-01 04:06:15.605, 0.575, -0.063, 0.804, 0.732, 0.122, 1.16, -4.202, -35.552, 157.841, -15.833, -8.853, -31.047, 27.2, 0.19476, 0.29257, -0.09308, 0.93152,
 17:45:28.648,ed:35:33:d3:6c:f8, 2015-01-01 04:06:15.605, 0.568, -0.064, 0.806, 0.61, 0.183, 1.16, -4.208, -35.546, 157.896, -15.833, -8.853, -31.047, 27.2, 0.19476, 0.29257, -0.09308, 0.93152,
 17:45:28.648,ed:35:33:d3:6c:f8, 2015-01-01 04:06:15.605, 0.575, -0.063, 0.804, 0.732, 0.122, 1.16, -4.202, -35.552, 157.841, -15.833, -8.853, -31.047, 27.2, 0.19476, 0.29257, -0.09308, 0.93152,
 17:45:28.673,e3:ca:2d:fd:e0:8c, 2015-01-01 04:06:34.420, 1.01, -0.063, 0.049, -0.244, 2.625, -0.61, -62.43, -85.336, -145.882, -26.733, -10.473, -7.820, 31.35, -0.15094, -0.66626, 0.19415, -0.70392,
 17:45:28.673,e3:ca:2d:fd:e0:8c, 2015-01-01 04:06:34.420, 1.014, -0.059, 0.054, -0.488, 3.662, -1.099, -61.573, -85.32, -146.75, -26.733, -10.473, -7.820, 31.35, -0.15094, -0.66626, 0.19415, -0.70392,
 17:45:28.673,e3:ca:2d:fd:e0:8c, 2015-01-01 04:06:34.420, 1.01, -0.068, 0.056, -0.61, 2.869, -1.099, -60.765, -85.309, -147.574, -26.733, -10.473, -7.820, 31.35, -0.15094, -0.66626, 0.19415, -0.70392,
 17:45:28.673,e3:ca:2d:fd:e0:8c, 2015-01-01 04:06:34.420, 1.014, -0.059, 0.054, -0.488, 3.662, -1.099, -61.573, -85.32, -146.75, -26.733, -10.473, -7.820, 31.35, -0.15094, -0.66626, 0.19415, -0.70392,
 17:45:28.673,e3:ca:2d:fd:e0:8c, 2015-01-01 04:06:34.420, 1.01, -0.068, 0.056, -0.61, 2.869, -1.099, -60.765, -85.309, -147.574, -26.733, -10.473, -7.820, 31.35, -0.15094, -0.66626, 0.19415, -0.70392,
 17:45:28.673,e3:ca:2d:fd:e0:8c, 2015-01-01 04:06:34.420, 1.014, -0.059, 0.054, -0.488, 3.662, -1.099, -61.573, -85.32, -146.75, -26.733, -10.473, -7.820, 31.35, -0.15094, -0.66626, 0.19415, -0.70392,
 17:45:28.675,ed:40:fe:65:30:6c, 2015-01-01 04:06:39.740, 0.589, -0.056, 0.809, 0.427, 0, 0.427, -3.532, -36.068, -127.365, -18.813, -8.360, -6.887, 28.65, -0.41266, 0.29037, 0.11084, 0.85614,
 17:45:28.675,ed:40:fe:65:30:6c, 2015-01-01 04:06:39.740, 0.59, -0.053, 0.81, 0.854, 0.183, 0.183, -3.527, -36.068, -127.359, -18.813, -8.360, -6.887, 28.65, -0.41266, 0.29037, 0.11084, 0.85614,
 17:45:28.675,ed:40:fe:65:30:6c, 2015-01-01 04:06:39.740, 0.589, -0.048, 0.812, 1.221, 0.671, 0, -3.505, -36.052, -127.37, -18.813, -8.360, -6.887, 28.65, -0.41266, 0.29037, 0.11084, 0.85614,
 17:45:28.675,ed:40:fe:65:30:6c, 2015-01-01 04:06:39.740, 0.59, -0.053, 0.81, 0.854, 0.183, 0.183, -3.527, -36.068, -127.359, -18.813, -8.360, -6.887, 28.65, -0.41266, 0.29037, 0.11084, 0.85614,
 17:45:28.675,ed:40:fe:65:30:6c, 2015-01-01 04:06:39.740, 0.589, -0.048, 0.812, 1.221, 0.671, 0, -3.505, -36.052, -127.37, -18.813, -8.360, -6.887, 28.65, -0.41266, 0.29037, 0.11084, 0.85614,
 17:45:28.675,ed:40:fe:65:30:6c, 2015-01-01 04:06:39.740, 0.59, -0.053, 0.81, 0.854, 0.183, 0.183, -3.527, -36.068, -127.359, -18.813, -8.360, -6.887, 28.65, -0.41266, 0.29037, 0.11084, 0.85614,
 17:45:28.683,f6:90:cc:01:6d:25, 2015-01-01 04:06:26.390, 0.928, -0.267, 0.21, 0.793, -0.305, -0.183, -53.108, -70.032, -122.503, -31.187, -6.247, -5.960, 33.05, 0.12796, -0.62582, 0.07379, -0.76578,
 17:45:28.683,f6:90:cc:01:6d:25, 2015-01-01 04:06:26.390, 0.934, -0.262, 0.216, 1.099, -0.122, -0.671, -53.064, -70.043, -122.498, -31.187, -6.247, -5.960, 33.05, 0.12796, -0.62582, 0.07379, -0.76578,
 17:45:28.683,f6:90:cc:01:6d:25, 2015-01-01 04:06:26.390, 0.928, -0.261, 0.217, 1.038, 0.122, -1.038, -52.998, -70.054, -122.509, -31.187, -6.247, -5.960, 33.05, 0.12796, -0.62582, 0.07379, -0.76578,
 17:45:28.683,f6:90:cc:01:6d:25, 2015-01-01 04:06:26.390, 0.934, -0.262, 0.216, 1.099, -0.122, -0.671, -53.064, -70.043, -122.498, -31.187, -6.247, -5.960, 33.05, 0.12796, -0.62582, 0.07379, -0.76578,
 17:45:28.683,f6:90:cc:01:6d:25, 2015-01-01 04:06:26.390, 0.928, -0.261, 0.217, 1.038, 0.122, -1.038, -52.998, -70.054, -122.509, -31.187, -6.247, -5.960, 33.05, 0.12796, -0.62582, 0.07379, -0.76578,
 17:45:28.683,f6:90:cc:01:6d:25, 2015-01-01 04:06:26.390, 0.934, -0.262, 0.216, 1.099, -0.122, -0.671, -53.064, -70.043, -122.498, -31.187, -6.247, -5.960, 33.05, 0.12796, -0.62582, 0.07379, -0.76578,
 17:45:28.702,e3:ca:2d:fd:e0:8c, 2015-01-01 04:06:34.805, 1.019, -0.068, 0.056, -0.61, 2.869, -1.099, -60.765, -85.309, -147.574, -26.733, -10.473, -7.820, 31.35, -0.15094, -0.66626, 0.19415, -0.70392,
 17:45:28.702,e3:ca:2d:fd:e0:8c, 2015-01-01 04:06:34.805, 1.02, -0.081, 0.054, -0.366, 1.038, -0.244, -60.364, -85.303, -147.975, -26.733, -10.473, -7.820, 31.35, -0.15094, -0.66626, 0.19415, -0.70392,
 17:45:28.702,e3:ca:2d:fd:e0:8c, 2015-01-01 04:06:34.805, 1.019, -0.081, 0.046, -0.366, -0.854, 0.488, -60.452, -85.298, -147.92, -26.733, -10.473, -7.820, 31.35, -0.15094, -0.66626, 0.19415, -0.70392,
 17:45:28.702,e3:ca:2d:fd:e0:8c, 2015-01-01 04:06:34.805, 1.02, -0.081, 0.054, -0.366, 1.038, -0.244, -60.364, -85.303, -147.975, -26.733, -10.473, -7.820, 31.35, -0.15094, -0.66626, 0.19415, -0.70392,
 17:45:28.702,e3:ca:2d:fd:e0:8c, 2015-01-01 04:06:34.805, 1.019, -0.081, 0.046, -0.366, -0.854, 0.488, -60.452, -85.298, -147.92, -26.733, -10.473, -7.820, 31.35, -0.15094, -0.66626, 0.19415, -0.70392,
 17:45:28.702,e3:ca:2d:fd:e0:8c, 2015-01-01 04:06:34.805, 1.02, -0.081, 0.054, -0.366, 1.038, -0.244, -60.364, -85.303, -147.975, -26.733, -10.473, -7.820, 31.35, -0.15094, -0.66626, 0.19415, -0.70392,
 17:45:28.708,ed:35:33:d3:6c:f8, 2015-01-01 04:06:15.605, 0.58, -0.064, 0.806, 0.61, 0.183, 1.16, -4.208, -35.546, 157.896, -15.833, -8.853, -31.047, 27.2, 0.19476, 0.29257, -0.09308, 0.93152,
 17:45:28.708,ed:35:33:d3:6c:f8, 2015-01-01 04:06:15.605, 0.577, -0.062, 0.809, 0.854, 0, 0.488, -4.208, -35.546, 157.95, -15.833, -8.853, -31.047, 27.2, 0.19476, 0.29257, -0.09308, 0.93152,
 17:45:28.708,ed:35:33:d3:6c:f8, 2015-01-01 04:06:15.605, 0.58, -0.059, 0.817, 1.343, 0.61, -0.427, -4.186, -35.535, 157.978, -15.833, -8.853, -31.047, 27.2, 0.19476, 0.29257, -0.09308, 0.93152,
 17:45:28.708,ed:35:33:d3:6c:f8, 2015-01-01 04:06:15.605, 0.577, -0.062, 0.809, 0.854, 0, 0.488, -4.208, -35.546, 157.95, -15.833, -8.853, -31.047, 27.2, 0.19476, 0.29257, -0.09308, 0.93152,
 17:45:28.708,ed:35:33:d3:6c:f8, 2015-01-01 04:06:15.605, 0.58, -0.059, 0.817, 1.343, 0.61, -0.427, -4.186, -35.535, 157.978, -15.833, -8.853, -31.047, 27.2, 0.19476, 0.29257, -0.09308, 0.93152,
 17:45:28.708,ed:35:33:d3:6c:f8, 2015-01-01 04:06:15.605, 0.577, -0.062, 0.809, 0.854, 0, 0.488, -4.208, -35.546, 157.95, -15.833, -8.853, -31.047, 27.2, 0.19476, 0.29257, -0.09308, 0.93152,
 17:45:28.712,f6:90:cc:01:6d:25, 2015-01-01 04:06:26.390, 0.935, -0.261, 0.217, 1.038, 0.122, -1.038, -52.998, -70.054, -122.509, -31.187, -6.247, -5.960, 33.05, 0.12796, -0.62582, 0.07379, -0.76578,
 17:45:28.712,f6:90:cc:01:6d:25, 2015-01-01 04:06:26.390, 0.932, -0.264, 0.215, 0.549, 0.549, -1.16, -52.91, -70.065, -122.558, -31.187, -6.247, -5.960, 33.05, 0.12796, -0.62582, 0.07379, -0.76578,
 17:45:28.712,f6:90:cc:01:6d:25, 2015-01-01 04:06:26.390, 0.935, -0.264, 0.208, -0.305, 0.61, -0.977, -52.85, -70.071, -122.613, -31.187, -6.247, -5.960, 33.05, 0.12796, -0.62582, 0.07379, -0.76578,
 17:45:28.712,f6:90:cc:01:6d:25, 2015-01-01 04:06:26.390, 0.932, -0.264, 0.215, 0.549, 0.549, -1.16, -52.91, -70.065, -122.558, -31.187, -6.247, -5.960, 33.05, 0.12796, -0.62582, 0.07379, -0.76578,
 17:45:28.712,f6:90:cc:01:6d:25, 2015-01-01 04:06:26.390, 0.935, -0.264, 0.208, -0.305, 0.61, -0.977, -52.85, -70.071, -122.613, -31.187, -6.247, -5.960, 33.05, 0.12796, -0.62582, 0.07379, -0.76578,
 17:45:28.712,f6:90:cc:01:6d:25, 2015-01-01 04:06:26.390, 0.932, -0.264, 0.215, 0.549, 0.549, -1.16, -52.91, -70.065, -122.558, -31.187, -6.247, -5.960, 33.05, 0.12796, -0.62582, 0.07379, -0.76578,
 17:45:28.732,e3:ca:2d:fd:e0:8c, 2015-01-01 04:06:34.805, 1.022, -0.081, 0.046, -0.366, -0.854, 0.488, -60.452, -85.298, -147.92, -26.733, -10.473, -7.820, 31.35, -0.15094, -0.66626, 0.19415, -0.70392,
 17:45:28.732,e3:ca:2d:fd:e0:8c, 2015-01-01 04:06:34.805, 1.022, -0.074, 0.04, -0.793, -2.075, 0.793, -60.897, -85.303, -147.519, -26.733, -10.473, -7.820, 31.35, -0.15094, -0.66626, 0.19415, -0.70392,
 17:45:28.732,e3:ca:2d:fd:e0:8c, 2015-01-01 04:06:34.805, 1.022, -0.065, 0.035, -1.526, -2.808, 0.549, -61.523, -85.314, -146.948, -26.733, -10.473, -7.820, 31.35, -0.15094, -0.66626, 0.19415, -0.70392,
 17:45:28.732,e3:ca:2d:fd:e0:8c, 2015-01-01 04:06:34.805, 1.022, -0.074, 0.04, -0.793, -2.075, 0.793, -60.897, -85.303, -147.519, -26.733, -10.473, -7.820, 31.35, -0.15094, -0.66626, 0.19415, -0.70392,
 17:45:28.732,e3:ca:2d:fd:e0:8c, 2015-01-01 04:06:34.805, 1.022, -0.065, 0.035, -1.526, -2.808, 0.549, -61.523, -85.314, -146.948, -26.733, -10.473, -7.820, 31.35, -0.15094, -0.66626, 0.19415, -0.70392,
 17:45:28.732,e3:ca:2d:fd:e0:8c, 2015-01-01 04:06:34.805, 1.022, -0.074, 0.04, -0.793, -2.075, 0.793, -60.897, -85.303, -147.519, -26.733, -10.473, -7.820, 31.35, -0.15094, -0.66626, 0.19415, -0.70392,
 17:45:28.738,ed:40:fe:65:30:6c, 2015-01-01 04:06:40.065, 0.586, -0.048, 0.812, 1.221, 0.671, 0, -3.505, -36.052, -127.37, -18.813, -8.360, -6.887, 28.65, -0.41266, 0.29037, 0.11084, 0.85614,
 17:45:28.738,ed:40:fe:65:30:6c, 2015-01-01 04:06:40.065, 0.583, -0.047, 0.819, 1.343, 0.732, -0.305, -3.477, -36.041, -127.397, -18.813, -8.360, -6.887, 28.65, -0.41266, 0.29037, 0.11084, 0.85614,
 17:45:28.738,ed:40:fe:65:30:6c, 2015-01-01 04:06:40.065, 0.586, -0.045, 0.82, 0.61, 0.671, -0.732, -3.455, -36.024, -127.419, -18.813, -8.360, -6.887, 28.65, -0.41266, 0.29037, 0.11084, 0.85614,
 17:45:28.738,ed:40:fe:65:30:6c, 2015-01-01 04:06:40.065, 0.583, -0.047, 0.819, 1.343, 0.732, -0.305, -3.477, -36.041, -127.397, -18.813, -8.360, -6.887, 28.65, -0.41266, 0.29037, 0.11084, 0.85614,
 17:45:28.738,ed:40:fe:65:30:6c, 2015-01-01 04:06:40.065, 0.586, -0.045, 0.82, 0.61, 0.671, -0.732, -3.455, -36.024, -127.419, -18.813, -8.360, -6.887, 28.65, -0.41266, 0.29037, 0.11084, 0.85614,
 17:45:28.738,ed:40:fe:65:30:6c, 2015-01-01 04:06:40.065, 0.583, -0.047, 0.819, 1.343, 0.732, -0.305, -3.477, -36.041, -127.397, -18.813, -8.360, -6.887, 28.65, -0.41266, 0.29037, 0.11084, 0.85614,
 17:45:28.740,ed:35:33:d3:6c:f8, 2015-01-01 04:06:15.605, 0.571, -0.059, 0.817, 1.343, 0.61, -0.427, -4.186, -35.535, 157.978, -15.833, -8.853, -31.047, 27.2, 0.19476, 0.29257, -0.09308, 0.93152,
 17:45:28.740,ed:35:33:d3:6c:f8, 2015-01-01 04:06:15.605, 0.571, -0.056, 0.82, 0.549, 0.61, -0.977, -4.158, -35.524, 157.994, -15.833, -8.853, -31.047, 27.2, 0.19476, 0.29257, -0.09308, 0.93152,
 17:45:28.740,ed:35:33:d3:6c:f8, 2015-01-01 04:06:15.605, 0.571, -0.051, 0.814, -0.977, 0.183, -1.648, -4.142, -35.513, 158, -15.833, -8.853, -31.047, 27.2, 0.19476, 0.29257, -0.09308, 0.93152,
 17:45:28.740,ed:35:33:d3:6c:f8, 2015-01-01 04:06:15.605, 0.571, -0.056, 0.82, 0.549, 0.61, -0.977, -4.158, -35.524, 157.994, -15.833, -8.853, -31.047, 27.2, 0.19476, 0.29257, -0.09308, 0.93152,
 17:45:28.740,ed:35:33:d3:6c:f8, 2015-01-01 04:06:15.605, 0.571, -0.051, 0.814, -0.977, 0.183, -1.648, -4.142, -35.513, 158, -15.833, -8.853, -31.047, 27.2, 0.19476, 0.29257, -0.09308, 0.93152,
 17:45:28.740,ed:35:33:d3:6c:f8, 2015-01-01 04:06:15.605, 0.571, -0.056, 0.82, 0.549, 0.61, -0.977, -4.158, -35.524, 157.994, -15.833, -8.853, -31.047, 27.2, 0.19476, 0.29257, -0.09308, 0.93152,
 17:45:28.741,f6:90:cc:01:6d:25, 2015-01-01 04:06:26.390, 0.927, -0.264, 0.208, -0.305, 0.61, -0.977, -52.85, -70.071, -122.613, -31.187, -6.247, -5.960, 33.05, 0.12796, -0.62582, 0.07379, -0.76578,
 17:45:28.741,f6:90:cc:01:6d:25, 2015-01-01 04:06:26.390, 0.924, -0.263, 0.203, -1.16, 0.183, -0.793, -52.828, -70.082, -122.64, -31.187, -6.247, -5.960, 33.05, 0.12796, -0.62582, 0.07379, -0.76578,
 17:45:28.741,f6:90:cc:01:6d:25, 2015-01-01 04:06:26.390, 0.927, -0.264, 0.196, -1.77, -0.305, -0.549, -52.85, -70.093, -122.618, -31.187, -6.247, -5.960, 33.05, 0.12796, -0.62582, 0.07379, -0.76578,
 17:45:28.741,f6:90:cc:01:6d:25, 2015-01-01 04:06:26.390, 0.924, -0.263, 0.203, -1.16, 0.183, -0.793, -52.828, -70.082, -122.64, -31.187, -6.247, -5.960, 33.05, 0.12796, -0.62582, 0.07379, -0.76578,
 17:45:28.741,f6:90:cc:01:6d:25, 2015-01-01 04:06:26.390, 0.927, -0.264, 0.196, -1.77, -0.305, -0.549, -52.85, -70.093, -122.618, -31.187, -6.247, -5.960, 33.05, 0.12796, -0.62582, 0.07379, -0.76578,
 17:45:28.741,f6:90:cc:01:6d:25, 2015-01-01 04:06:26.390, 0.924, -0.263, 0.203, -1.16, 0.183, -0.793, -52.828, -70.082, -122.64, -31.187, -6.247, -5.960, 33.05, 0.12796, -0.62582, 0.07379, -0.76578,
 17:45:28.767,ed:40:fe:65:30:6c, 2015-01-01 04:06:40.065, 0.582, -0.045, 0.82, 0.61, 0.671, -0.732, -3.455, -36.024, -127.419, -18.813, -8.360, -6.887, 28.65, -0.41266, 0.29037, 0.11084, 0.85614,
 17:45:28.767,ed:40:fe:65:30:6c, 2015-01-01 04:06:40.065, 0.584, -0.04, 0.814, -0.183, 0.122, -1.099, -3.439, -36.019, -127.436, -18.813, -8.360, -6.887, 28.65, -0.41266, 0.29037, 0.11084, 0.85614,
 17:45:28.767,ed:40:fe:65:30:6c, 2015-01-01 04:06:40.065, 0.582, -0.035, 0.812, -0.549, 0, -1.16, -3.428, -36.013, -127.447, -18.813, -8.360, -6.887, 28.65, -0.41266, 0.29037, 0.11084, 0.85614,
 17:45:28.767,ed:40:fe:65:30:6c, 2015-01-01 04:06:40.065, 0.584, -0.04, 0.814, -0.183, 0.122, -1.099, -3.439, -36.019, -127.436, -18.813, -8.360, -6.887, 28.65, -0.41266, 0.29037, 0.11084, 0.85614,
 17:45:28.767,ed:40:fe:65:30:6c, 2015-01-01 04:06:40.065, 0.582, -0.035, 0.812, -0.549, 0, -1.16, -3.428, -36.013, -127.447, -18.813, -8.360, -6.887, 28.65, -0.41266, 0.29037, 0.11084, 0.85614,
 17:45:28.767,ed:40:fe:65:30:6c, 2015-01-01 04:06:40.065, 0.584, -0.04, 0.814, -0.183, 0.122, -1.099, -3.439, -36.019, -127.436, -18.813, -8.360, -6.887, 28.65, -0.41266, 0.29037, 0.11084, 0.85614,
 17:45:28.769,ed:35:33:d3:6c:f8, 2015-01-01 04:06:15.605, 0.576, -0.051, 0.814, -0.977, 0.183, -1.648, -4.142, -35.513, 158, -15.833, -8.853, -31.047, 27.2, 0.19476, 0.29257, -0.09308, 0.93152,
 17:45:28.769,ed:35:33:d3:6c:f8, 2015-01-01 04:06:15.605, 0.576, -0.046, 0.812, -1.404, -0.183, -1.953, -4.136, -35.513, 157.978, -15.833, -8.853, -31.047, 27.2, 0.19476, 0.29257, -0.09308, 0.93152,
 17:45:28.769,ed:35:33:d3:6c:f8, 2015-01-01 04:06:15.605, 0.576, -0.043, 0.812, -1.709, -0.732, -2.014, -4.142, -35.524, 157.95, -15.833, -8.853, -31.047, 27.2, 0.19476, 0.29257, -0.09308, 0.93152,
 17:45:28.769,ed:35:33:d3:6c:f8, 2015-01-01 04:06:15.605, 0.576, -0.046, 0.812, -1.404, -0.183, -1.953, -4.136, -35.513, 157.978, -15.833, -8.853, -31.047, 27.2, 0.19476, 0.29257, -0.09308, 0.93152,
 17:45:28.769,ed:35:33:d3:6c:f8, 2015-01-01 04:06:15.605, 0.576, -0.043, 0.812, -1.709, -0.732, -2.014, -4.142, -35.524, 157.95, -15.833, -8.853, -31.047, 27.2, 0.19476, 0.29257, -0.09308, 0.93152,
 17:45:28.769,ed:35:33:d3:6c:f8, 2015-01-01 04:06:15.605, 0.576, -0.046, 0.812, -1.404, -0.183, -1.953, -4.136, -35.513, 157.978, -15.833, -8.853, -31.047, 27.2, 0.19476, 0.29257, -0.09308, 0.93152,
 17:45:28.792,e3:ca:2d:fd:e0:8c, 2015-01-01 04:06:34.805, 1.021, -0.065, 0.035, -1.526, -2.808, 0.549, -61.523, -85.314, -146.948, -26.733, -10.473, -7.820, 31.35, -0.15094, -0.66626, 0.19415, -0.70392,
 17:45:28.792,e3:ca:2d:fd:e0:8c, 2015-01-01 04:06:34.805, 1.021, -0.063, 0.031, -2.258, -2.686, -0.122, -62.122, -85.336, -146.404, -26.733, -10.473, -7.820, 31.35, -0.15094, -0.66626, 0.19415, -0.70392,
 17:45:28.792,e3:ca:2d:fd:e0:8c, 2015-01-01 04:06:34.805, 1.021, -0.07, 0.031, -2.502, -2.502, -0.671, -62.644, -85.375, -145.937, -26.733, -10.473, -7.820, 31.35, -0.15094, -0.66626, 0.19415, -0.70392,
 17:45:28.792,e3:ca:2d:fd:e0:8c, 2015-01-01 04:06:34.805, 1.021, -0.063, 0.031, -2.258, -2.686, -0.122, -62.122, -85.336, -146.404, -26.733, -10.473, -7.820, 31.35, -0.15094, -0.66626, 0.19415, -0.70392,
 17:45:28.792,e3:ca:2d:fd:e0:8c, 2015-01-01 04:06:34.805, 1.021, -0.07, 0.031, -2.502, -2.502, -0.671, -62.644, -85.375, -145.937, -26.733, -10.473, -7.820, 31.35, -0.15094, -0.66626, 0.19415, -0.70392,
 17:45:28.792,e3:ca:2d:fd:e0:8c, 2015-01-01 04:06:34.805, 1.021, -0.063, 0.031, -2.258, -2.686, -0.122, -62.122, -85.336, -146.404, -26.733, -10.473, -7.820, 31.35, -0.15094, -0.66626, 0.19415, -0.70392,
 17:45:28.795,ed:40:fe:65:30:6c, 2015-01-01 04:06:40.065, 0.586, -0.035, 0.812, -0.549, 0, -1.16, -3.428, -36.013, -127.447, -18.813, -8.360, -6.887, 28.65, -0.41266, 0.29037, 0.11084, 0.85614,
 17:45:28.795,ed:40:fe:65:30:6c, 2015-01-01 04:06:40.065, 0.587, -0.036, 0.81, -1.16, -0.366, -1.038, -3.433, -36.019, -127.463, -18.813, -8.360, -6.887, 28.65, -0.41266, 0.29037, 0.11084, 0.85614,
 17:45:28.795,ed:40:fe:65:30:6c, 2015-01-01 04:06:40.065, 0.586, -0.045, 0.81, -1.526, -0.732, -0.61, -3.444, -36.03, -127.474, -18.813, -8.360, -6.887, 28.65, -0.41266, 0.29037, 0.11084, 0.85614,
 17:45:28.795,ed:40:fe:65:30:6c, 2015-01-01 04:06:40.065, 0.587, -0.036, 0.81, -1.16, -0.366, -1.038, -3.433, -36.019, -127.463, -18.813, -8.360, -6.887, 28.65, -0.41266, 0.29037, 0.11084, 0.85614,
 17:45:28.795,ed:40:fe:65:30:6c, 2015-01-01 04:06:40.065, 0.586, -0.045, 0.81, -1.526, -0.732, -0.61, -3.444, -36.03, -127.474, -18.813, -8.360, -6.887, 28.65, -0.41266, 0.29037, 0.11084, 0.85614,
 17:45:28.795,ed:40:fe:65:30:6c, 2015-01-01 04:06:40.065, 0.587, -0.036, 0.81, -1.16, -0.366, -1.038, -3.433, -36.019, -127.463, -18.813, -8.360, -6.887, 28.65, -0.41266, 0.29037, 0.11084, 0.85614,
 17:45:28.802,f6:90:cc:01:6d:25, 2015-01-01 04:06:26.390, 0.923, -0.264, 0.196, -1.77, -0.305, -0.549, -52.85, -70.093, -122.618, -31.187, -6.247, -5.960, 33.05, 0.12796, -0.62582, 0.07379, -0.76578,
 17:45:28.802,f6:90:cc:01:6d:25, 2015-01-01 04:06:26.390, 0.923, -0.267, 0.195, -1.709, -0.916, 0, -52.91, -70.104, -122.536, -31.187, -6.247, -5.960, 33.05, 0.12796, -0.62582, 0.07379, -0.76578,
 17:45:28.802,f6:90:cc:01:6d:25, 2015-01-01 04:06:26.390, 0.923, -0.272, 0.196, -1.953, -0.916, 0.244, -52.982, -70.115, -122.448, -31.187, -6.247, -5.960, 33.05, 0.12796, -0.62582, 0.07379, -0.76578,
 17:45:28.802,f6:90:cc:01:6d:25, 2015-01-01 04:06:26.390, 0.923, -0.267, 0.195, -1.709, -0.916, 0, -52.91, -70.104, -122.536, -31.187, -6.247, -5.960, 33.05, 0.12796, -0.62582, 0.07379, -0.76578,
 17:45:28.802,f6:90:cc:01:6d:25, 2015-01-01 04:06:26.390, 0.923, -0.272, 0.196, -1.953, -0.916, 0.244, -52.982, -70.115, -122.448, -31.187, -6.247, -5.960, 33.05, 0.12796, -0.62582, 0.07379, -0.76578,
 17:45:28.802,f6:90:cc:01:6d:25, 2015-01-01 04:06:26.390, 0.923, -0.267, 0.195, -1.709, -0.916, 0, -52.91, -70.104, -122.536, -31.187, -6.247, -5.960, 33.05, 0.12796, -0.62582, 0.07379, -0.76578,
 17:45:28.822,e3:ca:2d:fd:e0:8c, 2015-01-01 04:06:34.805, 1.019, -0.07, 0.031, -2.502, -2.502, -0.671, -62.644, -85.375, -145.937, -26.733, -10.473, -7.820, 31.35, -0.15094, -0.66626, 0.19415, -0.70392,
 17:45:28.822,e3:ca:2d:fd:e0:8c, 2015-01-01 04:06:34.805, 1.019, -0.082, 0.034, -2.319, -2.014, -0.61, -63.073, -85.402, -145.563, -26.733, -10.473, -7.820, 31.35, -0.15094, -0.66626, 0.19415, -0.70392,
 17:45:28.822,e3:ca:2d:fd:e0:8c, 2015-01-01 04:06:34.805, 1.019, -0.086, 0.034, -1.831, -0.793, -0.427, -63.298, -85.419, -145.404, -26.733, -10.473, -7.820, 31.35, -0.15094, -0.66626, 0.19415, -0.70392,
 17:45:28.822,e3:ca:2d:fd:e0:8c, 2015-01-01 04:06:34.805, 1.019, -0.082, 0.034, -2.319, -2.014, -0.61, -63.073, -85.402, -145.563, -26.733, -10.473, -7.820, 31.35, -0.15094, -0.66626, 0.19415, -0.70392,
 17:45:28.822,e3:ca:2d:fd:e0:8c, 2015-01-01 04:06:34.805, 1.019, -0.086, 0.034, -1.831, -0.793, -0.427, -63.298, -85.419, -145.404, -26.733, -10.473, -7.820, 31.35, -0.15094, -0.66626, 0.19415, -0.70392,
 17:45:28.822,e3:ca:2d:fd:e0:8c, 2015-01-01 04:06:34.805, 1.019, -0.082, 0.034, -2.319, -2.014, -0.61, -63.073, -85.402, -145.563, -26.733, -10.473, -7.820, 31.35, -0.15094, -0.66626, 0.19415, -0.70392,
 17:45:28.829,ed:35:33:d3:6c:f8, 2015-01-01 04:06:15.605, 0.577, -0.043, 0.812, -1.709, -0.732, -2.014, -4.142, -35.524, 157.95, -15.833, -8.853, -31.047, 27.2, 0.19476, 0.29257, -0.09308, 0.93152,
 17:45:28.829,ed:35:33:d3:6c:f8, 2015-01-01 04:06:15.605, 0.578, -0.046, 0.811, -1.953, -0.244, -1.16, -4.147, -35.53, 157.906, -15.833, -8.853, -31.047, 27.2, 0.19476, 0.29257, -0.09308, 0.93152,
 17:45:28.829,ed:35:33:d3:6c:f8, 2015-01-01 04:06:15.605, 0.577, -0.059, 0.809, -3.052, -0.916, 0.244, -4.186, -35.541, 157.89, -15.833, -8.853, -31.047, 27.2, 0.19476, 0.29257, -0.09308, 0.93152,
 17:45:28.829,ed:35:33:d3:6c:f8, 2015-01-01 04:06:15.605, 0.578, -0.046, 0.811, -1.953, -0.244, -1.16, -4.147, -35.53, 157.906, -15.833, -8.853, -31.047, 27.2, 0.19476, 0.29257, -0.09308, 0.93152,
 17:45:28.829,ed:35:33:d3:6c:f8, 2015-01-01 04:06:15.605, 0.577, -0.059, 0.809, -3.052, -0.916, 0.244, -4.186, -35.541, 157.89, -15.833, -8.853, -31.047, 27.2, 0.19476, 0.29257, -0.09308, 0.93152,
 17:45:28.829,ed:35:33:d3:6c:f8, 2015-01-01 04:06:15.605, 0.578, -0.046, 0.811, -1.953, -0.244, -1.16, -4.147, -35.53, 157.906, -15.833, -8.853, -31.047, 27.2, 0.19476, 0.29257, -0.09308, 0.93152,
 17:45:28.832,f6:90:cc:01:6d:25, 2015-01-01 04:06:26.390, 0.928, -0.272, 0.196, -1.953, -0.916, 0.244, -52.982, -70.115, -122.448, -31.060, -6.607, -4.313, 33.05, 0.12796, -0.62582, 0.07379, -0.76578,
 17:45:28.832,f6:90:cc:01:6d:25, 2015-01-01 04:06:26.390, 0.935, -0.272, 0.197, -2.075, -0.732, 0.427, -53.069, -70.12, -122.393, -31.060, -6.607, -4.313, 33.05, 0.12796, -0.62582, 0.07379, -0.76578,
 17:45:28.832,f6:90:cc:01:6d:25, 2015-01-01 04:06:26.390, 0.928, -0.27, 0.201, -1.953, -0.61, 0.305, -53.157, -70.12, -122.338, -31.060, -6.607, -4.313, 33.05, 0.12796, -0.62582, 0.07379, -0.76578,
 17:45:28.832,f6:90:cc:01:6d:25, 2015-01-01 04:06:26.390, 0.935, -0.272, 0.197, -2.075, -0.732, 0.427, -53.069, -70.12, -122.393, -31.060, -6.607, -4.313, 33.05, 0.12796, -0.62582, 0.07379, -0.76578,
 17:45:28.832,f6:90:cc:01:6d:25, 2015-01-01 04:06:26.390, 0.928, -0.27, 0.201, -1.953, -0.61, 0.305, -53.157, -70.12, -122.338, -31.060, -6.607, -4.313, 33.05, 0.12796, -0.62582, 0.07379, -0.76578,
 17:45:28.832,f6:90:cc:01:6d:25, 2015-01-01 04:06:26.390, 0.935, -0.272, 0.197, -2.075, -0.732, 0.427, -53.069, -70.12, -122.393, -31.060, -6.607, -4.313, 33.05, 0.12796, -0.62582, 0.07379, -0.76578,
 17:45:28.851,e3:ca:2d:fd:e0:8c, 2015-01-01 04:06:34.805, 1.02, -0.086, 0.034, -1.831, -0.793, -0.427, -63.298, -85.419, -145.404, -26.733, -10.473, -7.820, 31.35, -0.15094, -0.66626, 0.19415, -0.70392,
 17:45:28.851,e3:ca:2d:fd:e0:8c, 2015-01-01 04:06:34.805, 1.019, -0.078, 0.037, -1.404, -0.183, -0.183, -63.375, -85.424, -145.366, -26.733, -10.473, -7.820, 31.35, -0.15094, -0.66626, 0.19415, -0.70392,
 17:45:28.851,e3:ca:2d:fd:e0:8c, 2015-01-01 04:06:34.805, 1.02, -0.067, 0.038, -1.282, -0.427, 0, -63.479, -85.43, -145.294, -26.733, -10.473, -7.820, 31.35, -0.15094, -0.66626, 0.19415, -0.70392,
 17:45:28.851,e3:ca:2d:fd:e0:8c, 2015-01-01 04:06:34.805, 1.019, -0.078, 0.037, -1.404, -0.183, -0.183, -63.375, -85.424, -145.366, -26.733, -10.473, -7.820, 31.35, -0.15094, -0.66626, 0.19415, -0.70392,
 17:45:28.851,e3:ca:2d:fd:e0:8c, 2015-01-01 04:06:34.805, 1.02, -0.067, 0.038, -1.282, -0.427, 0, -63.479, -85.43, -145.294, -26.733, -10.473, -7.820, 31.35, -0.15094, -0.66626, 0.19415, -0.70392,
 17:45:28.851,e3:ca:2d:fd:e0:8c, 2015-01-01 04:06:34.805, 1.019, -0.078, 0.037, -1.404, -0.183, -0.183, -63.375, -85.424, -145.366, -26.733, -10.473, -7.820, 31.35, -0.15094, -0.66626, 0.19415, -0.70392,
 17:45:28.855,ed:40:fe:65:30:6c, 2015-01-01 04:06:40.065, 0.591, -0.045, 0.81, -1.526, -0.732, -0.61, -3.444, -36.03, -127.474, -18.813, -8.360, -6.887, 28.65, -0.41266, 0.29037, 0.11084, 0.85614,
 17:45:28.855,ed:40:fe:65:30:6c, 2015-01-01 04:06:40.065, 0.598, -0.051, 0.809, -2.014, -1.16, -0.549, -3.472, -36.046, -127.474, -18.813, -8.360, -6.887, 28.65, -0.41266, 0.29037, 0.11084, 0.85614,
 17:45:28.855,ed:40:fe:65:30:6c, 2015-01-01 04:06:40.065, 0.591, -0.052, 0.806, -2.197, -1.282, -0.671, -3.505, -36.068, -127.48, -18.813, -8.360, -6.887, 28.65, -0.41266, 0.29037, 0.11084, 0.85614,
 17:45:28.855,ed:40:fe:65:30:6c, 2015-01-01 04:06:40.065, 0.598, -0.051, 0.809, -2.014, -1.16, -0.549, -3.472, -36.046, -127.474, -18.813, -8.360, -6.887, 28.65, -0.41266, 0.29037, 0.11084, 0.85614,
 17:45:28.855,ed:40:fe:65:30:6c, 2015-01-01 04:06:40.065, 0.591, -0.052, 0.806, -2.197, -1.282, -0.671, -3.505, -36.068, -127.48, -18.813, -8.360, -6.887, 28.65, -0.41266, 0.29037, 0.11084, 0.85614,
 17:45:28.855,ed:40:fe:65:30:6c, 2015-01-01 04:06:40.065, 0.598, -0.051, 0.809, -2.014, -1.16, -0.549, -3.472, -36.046, -127.474, -18.813, -8.360, -6.887, 28.65, -0.41266, 0.29037, 0.11084, 0.85614,
 17:45:28.859,ed:35:33:d3:6c:f8, 2015-01-01 04:06:15.605, 0.584, -0.059, 0.809, -3.052, -0.916, 0.244, -4.186, -35.541, 157.89, -15.833, -9.047, -31.000, 27.2, 0.19476, 0.29257, -0.09308, 0.93152,
 17:45:28.859,ed:35:33:d3:6c:f8, 2015-01-01 04:06:15.605, 0.589, -0.065, 0.805, -3.357, -1.221, -0.061, -4.252, -35.557, 157.879, -15.833, -9.047, -31.000, 27.2, 0.19476, 0.29257, -0.09308, 0.93152,
 17:45:28.859,ed:35:33:d3:6c:f8, 2015-01-01 04:06:15.605, 0.584, -0.063, 0.802, -1.831, -0.916, -0.061, -4.296, -35.579, 157.874, -15.833, -9.047, -31.000, 27.2, 0.19476, 0.29257, -0.09308, 0.93152,
 17:45:28.859,ed:35:33:d3:6c:f8, 2015-01-01 04:06:15.605, 0.589, -0.065, 0.805, -3.357, -1.221, -0.061, -4.252, -35.557, 157.879, -15.833, -9.047, -31.000, 27.2, 0.19476, 0.29257, -0.09308, 0.93152,
 17:45:28.859,ed:35:33:d3:6c:f8, 2015-01-01 04:06:15.605, 0.584, -0.063, 0.802, -1.831, -0.916, -0.061, -4.296, -35.579, 157.874, -15.833, -9.047, -31.000, 27.2, 0.19476, 0.29257, -0.09308, 0.93152,
 17:45:28.859,ed:35:33:d3:6c:f8, 2015-01-01 04:06:15.605, 0.589, -0.065, 0.805, -3.357, -1.221, -0.061, -4.252, -35.557, 157.879, -15.833, -9.047, -31.000, 27.2, 0.19476, 0.29257, -0.09308, 0.93152,
 17:45:28.886,ed:40:fe:65:30:6c, 2015-01-01 04:06:40.065, 0.601, -0.052, 0.806, -2.197, -1.282, -0.671, -3.505, -36.068, -127.48, -18.813, -8.360, -6.887, 28.65, -0.41266, 0.29037, 0.11084, 0.85614,
 17:45:28.886,ed:40:fe:65:30:6c, 2015-01-01 04:06:40.065, 0.598, -0.055, 0.806, -1.404, -1.16, -0.488, -3.527, -36.096, -127.491, -18.813, -8.360, -6.887, 28.65, -0.41266, 0.29037, 0.11084, 0.85614,
 17:45:28.886,ed:40:fe:65:30:6c, 2015-01-01 04:06:40.065, 0.601, -0.056, 0.806, -0.793, -0.793, -0.427, -3.538, -36.112, -127.507, -18.813, -8.360, -6.887, 28.65, -0.41266, 0.29037, 0.11084, 0.85614,
 17:45:28.886,ed:40:fe:65:30:6c, 2015-01-01 04:06:40.065, 0.598, -0.055, 0.806, -1.404, -1.16, -0.488, -3.527, -36.096, -127.491, -18.813, -8.360, -6.887, 28.65, -0.41266, 0.29037, 0.11084, 0.85614,
 17:45:28.886,ed:40:fe:65:30:6c, 2015-01-01 04:06:40.065, 0.601, -0.056, 0.806, -0.793, -0.793, -0.427, -3.538, -36.112, -127.507, -18.813, -8.360, -6.887, 28.65, -0.41266, 0.29037, 0.11084, 0.85614,
 17:45:28.886,ed:40:fe:65:30:6c, 2015-01-01 04:06:40.065, 0.598, -0.055, 0.806, -1.404, -1.16, -0.488, -3.527, -36.096, -127.491, -18.813, -8.360, -6.887, 28.65, -0.41266, 0.29037, 0.11084, 0.85614,
 17:45:28.889,ed:35:33:d3:6c:f8, 2015-01-01 04:06:15.605, 0.583, -0.063, 0.802, -1.831, -0.916, -0.061, -4.296, -35.579, 157.874, -15.833, -9.047, -31.000, 27.2, 0.19476, 0.29257, -0.09308, 0.93152,
 17:45:28.889,ed:35:33:d3:6c:f8, 2015-01-01 04:06:15.605, 0.582, -0.066, 0.801, -0.61, -0.427, 0.305, -4.323, -35.596, 157.874, -15.833, -9.047, -31.000, 27.2, 0.19476, 0.29257, -0.09308, 0.93152,
 17:45:28.889,ed:35:33:d3:6c:f8, 2015-01-01 04:06:15.605, 0.583, -0.061, 0.8, -0.122, -0.427, 0.183, -4.329, -35.601, 157.868, -15.833, -9.047, -31.000, 27.2, 0.19476, 0.29257, -0.09308, 0.93152,
 17:45:28.889,ed:35:33:d3:6c:f8, 2015-01-01 04:06:15.605, 0.582, -0.066, 0.801, -0.61, -0.427, 0.305, -4.323, -35.596, 157.874, -15.833, -9.047, -31.000, 27.2, 0.19476, 0.29257, -0.09308, 0.93152,
 17:45:28.889,ed:35:33:d3:6c:f8, 2015-01-01 04:06:15.605, 0.583, -0.061, 0.8, -0.122, -0.427, 0.183, -4.329, -35.601, 157.868, -15.833, -9.047, -31.000, 27.2, 0.19476, 0.29257, -0.09308, 0.93152,
 17:45:28.889,ed:35:33:d3:6c:f8, 2015-01-01 04:06:15.605, 0.582, -0.066, 0.801, -0.61, -0.427, 0.305, -4.323, -35.596, 157.874, -15.833, -9.047, -31.000, 27.2, 0.19476, 0.29257, -0.09308, 0.93152,
 17:45:28.912,e3:ca:2d:fd:e0:8c, 2015-01-01 04:06:34.805, 1.018, -0.067, 0.038, -1.282, -0.427, 0, -63.479, -85.43, -145.294, -26.733, -10.473, -7.820, 31.35, -0.15094, -0.66626, 0.19415, -0.70392,
 17:45:28.912,e3:ca:2d:fd:e0:8c, 2015-01-01 04:06:34.805, 1.017, -0.064, 0.04, -1.587, -0.61, -0.122, -63.616, -85.435, -145.173, -26.733, -10.473, -7.820, 31.35, -0.15094, -0.66626, 0.19415, -0.70392,
 17:45:28.912,e3:ca:2d:fd:e0:8c, 2015-01-01 04:06:34.805, 1.018, -0.071, 0.041, -1.892, -0.488, -0.244, -63.726, -85.441, -145.091, -26.733, -10.473, -7.820, 31.35, -0.15094, -0.66626, 0.19415, -0.70392,
 17:45:28.912,e3:ca:2d:fd:e0:8c, 2015-01-01 04:06:34.805, 1.017, -0.064, 0.04, -1.587, -0.61, -0.122, -63.616, -85.435, -145.173, -26.733, -10.473, -7.820, 31.35, -0.15094, -0.66626, 0.19415, -0.70392,
 17:45:28.912,e3:ca:2d:fd:e0:8c, 2015-01-01 04:06:34.805, 1.018, -0.071, 0.041, -1.892, -0.488, -0.244, -63.726, -85.441, -145.091, -26.733, -10.473, -7.820, 31.35, -0.15094, -0.66626, 0.19415, -0.70392,
 17:45:28.912,e3:ca:2d:fd:e0:8c, 2015-01-01 04:06:34.805, 1.017, -0.064, 0.04, -1.587, -0.61, -0.122, -63.616, -85.435, -145.173, -26.733, -10.473, -7.820, 31.35, -0.15094, -0.66626, 0.19415, -0.70392,
 17:45:28.915,ed:40:fe:65:30:6c, 2015-01-01 04:06:40.065, 0.595, -0.056, 0.806, -0.793, -0.793, -0.427, -3.538, -36.112, -127.507, -19.273, -8.513, -7.260, 28.65, -0.41266, 0.29037, 0.11084, 0.85614,
 17:45:28.915,ed:40:fe:65:30:6c, 2015-01-01 04:06:40.065, 0.591, -0.051, 0.805, 0, -0.427, -0.183, -3.538, -36.123, -127.513, -19.273, -8.513, -7.260, 28.65, -0.41266, 0.29037, 0.11084, 0.85614,
 17:45:28.915,ed:40:fe:65:30:6c, 2015-01-01 04:06:40.065, 0.595, -0.048, 0.805, 0.305, -0.305, 0, -3.532, -36.134, -127.518, -19.273, -8.513, -7.260, 28.65, -0.41266, 0.29037, 0.11084, 0.85614,
 17:45:28.915,ed:40:fe:65:30:6c, 2015-01-01 04:06:40.065, 0.591, -0.051, 0.805, 0, -0.427, -0.183, -3.538, -36.123, -127.513, -19.273, -8.513, -7.260, 28.65, -0.41266, 0.29037, 0.11084, 0.85614,
 17:45:28.915,ed:40:fe:65:30:6c, 2015-01-01 04:06:40.065, 0.595, -0.048, 0.805, 0.305, -0.305, 0, -3.532, -36.134, -127.518, -19.273, -8.513, -7.260, 28.65, -0.41266, 0.29037, 0.11084, 0.85614,
 17:45:28.915,ed:40:fe:65:30:6c, 2015-01-01 04:06:40.065, 0.591, -0.051, 0.805, 0, -0.427, -0.183, -3.538, -36.123, -127.513, -19.273, -8.513, -7.260, 28.65, -0.41266, 0.29037, 0.11084, 0.85614,
 17:45:28.923,f6:90:cc:01:6d:25, 2015-01-01 04:06:26.390, 0.936, -0.27, 0.201, -1.953, -0.61, 0.305, -53.157, -70.12, -122.338, -31.060, -6.607, -4.313, 33.05, 0.12796, -0.62582, 0.07379, -0.76578,
 17:45:28.923,f6:90:cc:01:6d:25, 2015-01-01 04:06:26.390, 0.934, -0.27, 0.201, -1.526, -0.427, 0, -53.223, -70.126, -122.3, -31.060, -6.607, -4.313, 33.05, 0.12796, -0.62582, 0.07379, -0.76578,
 17:45:28.923,f6:90:cc:01:6d:25, 2015-01-01 04:06:26.390, 0.936, -0.271, 0.203, -1.099, -0.488, -0.366, -53.267, -70.131, -122.283, -31.060, -6.607, -4.313, 33.05, 0.12796, -0.62582, 0.07379, -0.76578,
 17:45:28.923,f6:90:cc:01:6d:25, 2015-01-01 04:06:26.390, 0.934, -0.27, 0.201, -1.526, -0.427, 0, -53.223, -70.126, -122.3, -31.060, -6.607, -4.313, 33.05, 0.12796, -0.62582, 0.07379, -0.76578,
 17:45:28.923,f6:90:cc:01:6d:25, 2015-01-01 04:06:26.390, 0.936, -0.271, 0.203, -1.099, -0.488, -0.366, -53.267, -70.131, -122.283, -31.060, -6.607, -4.313, 33.05, 0.12796, -0.62582, 0.07379, -0.76578,
 17:45:28.923,f6:90:cc:01:6d:25, 2015-01-01 04:06:26.390, 0.934, -0.27, 0.201, -1.526, -0.427, 0, -53.223, -70.126, -122.3, -31.060, -6.607, -4.313, 33.05, 0.12796, -0.62582, 0.07379, -0.76578,
 17:45:28.923,f6:90:cc:01:6d:25, 2015-01-01 04:06:26.390, 0.93, -0.271, 0.203, -1.099, -0.488, -0.366, -53.267, -70.131, -122.283, -31.060, -6.607, -4.313, 33.05, 0.12796, -0.62582, 0.07379, -0.76578,
 17:45:28.923,f6:90:cc:01:6d:25, 2015-01-01 04:06:26.390, 0.927, -0.272, 0.203, -1.038, -0.488, -0.366, -53.3, -70.142, -122.278, -31.060, -6.607, -4.313, 33.05, 0.12796, -0.62582, 0.07379, -0.76578,
 17:45:28.923,f6:90:cc:01:6d:25, 2015-01-01 04:06:26.390, 0.93, -0.271, 0.204, -0.977, -0.366, -0.183, -53.328, -70.153, -122.272, -31.060, -6.607, -4.313, 33.05, 0.12796, -0.62582, 0.07379, -0.76578,
 17:45:28.923,f6:90:cc:01:6d:25, 2015-01-01 04:06:26.390, 0.927, -0.272, 0.203, -1.038, -0.488, -0.366, -53.3, -70.142, -122.278, -31.060, -6.607, -4.313, 33.05, 0.12796, -0.62582, 0.07379, -0.76578,
 17:45:28.923,f6:90:cc:01:6d:25, 2015-01-01 04:06:26.390, 0.93, -0.271, 0.204, -0.977, -0.366, -0.183, -53.328, -70.153, -122.272, -31.060, -6.607, -4.313, 33.05, 0.12796, -0.62582, 0.07379, -0.76578,
 17:45:28.923,f6:90:cc:01:6d:25, 2015-01-01 04:06:26.390, 0.927, -0.272, 0.203, -1.038, -0.488, -0.366, -53.3, -70.142, -122.278, -31.060, -6.607, -4.313, 33.05, 0.12796, -0.62582, 0.07379, -0.76578,
 17:45:28.942,e3:ca:2d:fd:e0:8c, 2015-01-01 04:06:34.805, 1.017, -0.071, 0.041, -1.892, -0.488, -0.244, -63.726, -85.441, -145.091, -26.567, -10.373, -7.527, 31.35, -0.15094, -0.66626, 0.19415, -0.70392,
 17:45:28.942,e3:ca:2d:fd:e0:8c, 2015-01-01 04:06:34.805, 1.018, -0.077, 0.042, -1.831, -0.61, -0.244, -63.842, -85.452, -145.014, -26.567, -10.373, -7.527, 31.35, -0.15094, -0.66626, 0.19415, -0.70392,
 17:45:28.942,e3:ca:2d:fd:e0:8c, 2015-01-01 04:06:34.805, 1.017, -0.08, 0.04, -1.526, -0.671, -0.061, -63.99, -85.457, -144.91, -26.567, -10.373, -7.527, 31.35, -0.15094, -0.66626, 0.19415, -0.70392,
 17:45:28.942,e3:ca:2d:fd:e0:8c, 2015-01-01 04:06:34.805, 1.018, -0.077, 0.042, -1.831, -0.61, -0.244, -63.842, -85.452, -145.014, -26.567, -10.373, -7.527, 31.35, -0.15094, -0.66626, 0.19415, -0.70392,
 17:45:28.942,e3:ca:2d:fd:e0:8c, 2015-01-01 04:06:34.805, 1.017, -0.08, 0.04, -1.526, -0.671, -0.061, -63.99, -85.457, -144.91, -26.567, -10.373, -7.527, 31.35, -0.15094, -0.66626, 0.19415, -0.70392,
 17:45:28.942,e3:ca:2d:fd:e0:8c, 2015-01-01 04:06:34.805, 1.018, -0.077, 0.042, -1.831, -0.61, -0.244, -63.842, -85.452, -145.014, -26.567, -10.373, -7.527, 31.35, -0.15094, -0.66626, 0.19415, -0.70392,
 17:45:28.952,f6:90:cc:01:6d:25, 2015-01-01 04:06:26.390, 0.926, -0.271, 0.204, -0.977, -0.366, -0.183, -53.328, -70.153, -122.272, -31.060, -6.607, -4.313, 33.05, 0.12772, -0.62674, 0.07327, -0.76514,
 17:45:28.952,f6:90:cc:01:6d:25, 2015-01-01 04:06:26.390, 0.927, -0.27, 0.202, -0.671, -0.183, -0.183, -53.355, -70.159, -122.283, -31.060, -6.607, -4.313, 33.05, 0.12772, -0.62674, 0.07327, -0.76514,
 17:45:28.952,f6:90:cc:01:6d:25, 2015-01-01 04:06:26.390, 0.926, -0.27, 0.201, -0.427, -0.122, -0.122, -53.366, -70.164, -122.289, -31.060, -6.607, -4.313, 33.05, 0.12772, -0.62674, 0.07327, -0.76514,
 17:45:28.952,f6:90:cc:01:6d:25, 2015-01-01 04:06:26.390, 0.927, -0.27, 0.202, -0.671, -0.183, -0.183, -53.355, -70.159, -122.283, -31.060, -6.607, -4.313, 33.05, 0.12772, -0.62674, 0.07327, -0.76514,
 17:45:28.952,f6:90:cc:01:6d:25, 2015-01-01 04:06:26.390, 0.926, -0.27, 0.201, -0.427, -0.122, -0.122, -53.366, -70.164, -122.289, -31.060, -6.607, -4.313, 33.05, 0.12772, -0.62674, 0.07327, -0.76514,
 17:45:28.952,f6:90:cc:01:6d:25, 2015-01-01 04:06:26.390, 0.927, -0.27, 0.202, -0.671, -0.183, -0.183, -53.355, -70.159, -122.283, -31.060, -6.607, -4.313, 33.05, 0.12772, -0.62674, 0.07327, -0.76514,
 17:45:28.975,ed:40:fe:65:30:6c, 2015-01-01 04:06:40.065, 0.589, -0.048, 0.805, 0.305, -0.305, 0, -3.532, -36.134, -127.518, -19.273, -8.513, -7.260, 28.65, -0.41266, 0.29037, 0.11084, 0.85614,
 17:45:28.975,ed:40:fe:65:30:6c, 2015-01-01 04:06:40.065, 0.59, -0.047, 0.806, 0.366, -0.122, 0.183, -3.527, -36.134, -127.524, -19.273, -8.513, -7.260, 28.65, -0.41266, 0.29037, 0.11084, 0.85614,
 17:45:28.975,ed:40:fe:65:30:6c, 2015-01-01 04:06:40.065, 0.589, -0.05, 0.806, 0.183, -0.061, 0.183, -3.527, -36.14, -127.524, -19.273, -8.513, -7.260, 28.65, -0.41266, 0.29037, 0.11084, 0.85614,
 17:45:28.975,ed:40:fe:65:30:6c, 2015-01-01 04:06:40.065, 0.59, -0.047, 0.806, 0.366, -0.122, 0.183, -3.527, -36.134, -127.524, -19.273, -8.513, -7.260, 28.65, -0.41266, 0.29037, 0.11084, 0.85614,
 17:45:28.975,ed:40:fe:65:30:6c, 2015-01-01 04:06:40.065, 0.589, -0.05, 0.806, 0.183, -0.061, 0.183, -3.527, -36.14, -127.524, -19.273, -8.513, -7.260, 28.65, -0.41266, 0.29037, 0.11084, 0.85614,
 17:45:28.975,ed:40:fe:65:30:6c, 2015-01-01 04:06:40.065, 0.59, -0.047, 0.806, 0.366, -0.122, 0.183, -3.527, -36.134, -127.524, -19.273, -8.513, -7.260, 28.65, -0.41266, 0.29037, 0.11084, 0.85614,
 17:45:28.979,ed:35:33:d3:6c:f8, 2015-01-01 04:06:15.605, 0.582, -0.061, 0.8, -0.122, -0.427, 0.183, -4.329, -35.601, 157.868, -15.833, -9.047, -31.000, 27.2, 0.19385, 0.29288, -0.09387, 0.93152,
 17:45:28.979,ed:35:33:d3:6c:f8, 2015-01-01 04:06:15.605, 0.576, -0.059, 0.802, 0.305, 0.122, 0.427, -4.334, -35.607, 157.868, -15.833, -9.047, -31.000, 27.2, 0.19385, 0.29288, -0.09387, 0.93152,
 17:45:28.979,ed:35:33:d3:6c:f8, 2015-01-01 04:06:15.605, 0.582, -0.057, 0.801, 0, 0.366, 0.244, -4.334, -35.601, 157.863, -15.833, -9.047, -31.000, 27.2, 0.19385, 0.29288, -0.09387, 0.93152,
 17:45:28.979,ed:35:33:d3:6c:f8, 2015-01-01 04:06:15.605, 0.576, -0.059, 0.802, 0.305, 0.122, 0.427, -4.334, -35.607, 157.868, -15.833, -9.047, -31.000, 27.2, 0.19385, 0.29288, -0.09387, 0.93152,
 17:45:28.979,ed:35:33:d3:6c:f8, 2015-01-01 04:06:15.605, 0.582, -0.057, 0.801, 0, 0.366, 0.244, -4.334, -35.601, 157.863, -15.833, -9.047, -31.000, 27.2, 0.19385, 0.29288, -0.09387, 0.93152,
 17:45:28.979,ed:35:33:d3:6c:f8, 2015-01-01 04:06:15.605, 0.576, -0.059, 0.802, 0.305, 0.122, 0.427, -4.334, -35.607, 157.868, -15.833, -9.047, -31.000, 27.2, 0.19385, 0.29288, -0.09387, 0.93152,
 17:45:29.001,e3:ca:2d:fd:e0:8c, 2015-01-01 04:06:34.805, 1.018, -0.08, 0.04, -1.526, -0.671, -0.061, -63.99, -85.457, -144.91, -26.567, -10.373, -7.527, 31.35, -0.15094, -0.66626, 0.19415, -0.70392,
 17:45:29.001,e3:ca:2d:fd:e0:8c, 2015-01-01 04:06:34.805, 1.019, -0.079, 0.039, -1.099, -0.732, 0, -64.149, -85.463, -144.778, -26.567, -10.373, -7.527, 31.35, -0.15094, -0.66626, 0.19415, -0.70392,
 17:45:29.001,e3:ca:2d:fd:e0:8c, 2015-01-01 04:06:34.805, 1.018, -0.077, 0.037, -0.549, -0.61, 0.061, -64.292, -85.463, -144.657, -26.567, -10.373, -7.527, 31.35, -0.15094, -0.66626, 0.19415, -0.70392,
 17:45:29.001,e3:ca:2d:fd:e0:8c, 2015-01-01 04:06:34.805, 1.019, -0.079, 0.039, -1.099, -0.732, 0, -64.149, -85.463, -144.778, -26.567, -10.373, -7.527, 31.35, -0.15094, -0.66626, 0.19415, -0.70392,
 17:45:29.001,e3:ca:2d:fd:e0:8c, 2015-01-01 04:06:34.805, 1.018, -0.077, 0.037, -0.549, -0.61, 0.061, -64.292, -85.463, -144.657, -26.567, -10.373, -7.527, 31.35, -0.15094, -0.66626, 0.19415, -0.70392,
 17:45:29.001,e3:ca:2d:fd:e0:8c, 2015-01-01 04:06:34.805, 1.019, -0.079, 0.039, -1.099, -0.732, 0, -64.149, -85.463, -144.778, -26.567, -10.373, -7.527, 31.35, -0.15094, -0.66626, 0.19415, -0.70392,
 17:45:29.005,ed:40:fe:65:30:6c, 2015-01-01 04:06:40.065, 0.59, -0.05, 0.806, 0.183, -0.061, 0.183, -3.527, -36.14, -127.524, -19.273, -8.513, -7.260, 28.65, -0.4115, 0.29102, 0.11075, 0.85651,
 17:45:29.005,ed:40:fe:65:30:6c, 2015-01-01 04:06:40.065, 0.592, -0.05, 0.807, 0.305, 0, 0.244, -3.527, -36.14, -127.524, -19.273, -8.513, -7.260, 28.65, -0.4115, 0.29102, 0.11075, 0.85651,
 17:45:29.005,ed:40:fe:65:30:6c, 2015-01-01 04:06:40.065, 0.59, -0.049, 0.811, 0.244, 0, 0.244, -3.521, -36.14, -127.535, -19.273, -8.513, -7.260, 28.65, -0.4115, 0.29102, 0.11075, 0.85651,
 17:45:29.005,ed:40:fe:65:30:6c, 2015-01-01 04:06:40.065, 0.592, -0.05, 0.807, 0.305, 0, 0.244, -3.527, -36.14, -127.524, -19.273, -8.513, -7.260, 28.65, -0.4115, 0.29102, 0.11075, 0.85651,
 17:45:29.005,ed:40:fe:65:30:6c, 2015-01-01 04:06:40.065, 0.59, -0.049, 0.811, 0.244, 0, 0.244, -3.521, -36.14, -127.535, -19.273, -8.513, -7.260, 28.65, -0.4115, 0.29102, 0.11075, 0.85651,
 17:45:29.005,ed:40:fe:65:30:6c, 2015-01-01 04:06:40.065, 0.592, -0.05, 0.807, 0.305, 0, 0.244, -3.527, -36.14, -127.524, -19.273, -8.513, -7.260, 28.65, -0.4115, 0.29102, 0.11075, 0.85651,
 17:45:29.009,ed:35:33:d3:6c:f8, 2015-01-01 04:06:15.965, 0.578, -0.057, 0.801, 0, 0.366, 0.244, -4.334, -35.601, 157.863, -15.833, -9.047, -31.000, 27.2, 0.19385, 0.29288, -0.09387, 0.93152,
 17:45:29.009,ed:35:33:d3:6c:f8, 2015-01-01 04:06:15.965, 0.578, -0.06, 0.804, 0.122, 0.671, 0.305, -4.334, -35.59, 157.868, -15.833, -9.047, -31.000, 27.2, 0.19385, 0.29288, -0.09387, 0.93152,
 17:45:29.009,ed:35:33:d3:6c:f8, 2015-01-01 04:06:15.965, 0.578, -0.061, 0.804, 0, 0.305, 0.366, -4.334, -35.585, 157.874, -15.833, -9.047, -31.000, 27.2, 0.19385, 0.29288, -0.09387, 0.93152,
 17:45:29.009,ed:35:33:d3:6c:f8, 2015-01-01 04:06:15.965, 0.578, -0.06, 0.804, 0.122, 0.671, 0.305, -4.334, -35.59, 157.868, -15.833, -9.047, -31.000, 27.2, 0.19385, 0.29288, -0.09387, 0.93152,
 17:45:29.009,ed:35:33:d3:6c:f8, 2015-01-01 04:06:15.965, 0.578, -0.061, 0.804, 0, 0.305, 0.366, -4.334, -35.585, 157.874, -15.833, -9.047, -31.000, 27.2, 0.19385, 0.29288, -0.09387, 0.93152,
 17:45:29.009,ed:35:33:d3:6c:f8, 2015-01-01 04:06:15.965, 0.578, -0.06, 0.804, 0.122, 0.671, 0.305, -4.334, -35.59, 157.868, -15.833, -9.047, -31.000, 27.2, 0.19385, 0.29288, -0.09387, 0.93152,
 17:45:29.009,ed:35:33:d3:6c:f8, 2015-01-01 04:06:15.965, 0.579, -0.061, 0.804, 0, 0.305, 0.366, -4.334, -35.585, 157.874, -15.833, -9.047, -31.000, 27.2, 0.19385, 0.29288, -0.09387, 0.93152,
 17:45:29.009,ed:35:33:d3:6c:f8, 2015-01-01 04:06:15.965, 0.579, -0.062, 0.811, 0.244, 0.488, 0.244, -4.334, -35.579, 157.879, -15.833, -9.047, -31.000, 27.2, 0.19385, 0.29288, -0.09387, 0.93152,
 17:45:29.009,ed:35:33:d3:6c:f8, 2015-01-01 04:06:15.965, 0.579, -0.065, 0.809, 0.366, -0.061, -0.427, -4.323, -35.574, 157.868, -15.833, -9.047, -31.000, 27.2, 0.19385, 0.29288, -0.09387, 0.93152,
 17:45:29.009,ed:35:33:d3:6c:f8, 2015-01-01 04:06:15.965, 0.579, -0.062, 0.811, 0.244, 0.488, 0.244, -4.334, -35.579, 157.879, -15.833, -9.047, -31.000, 27.2, 0.19385, 0.29288, -0.09387, 0.93152,
 17:45:29.009,ed:35:33:d3:6c:f8, 2015-01-01 04:06:15.965, 0.579, -0.065, 0.809, 0.366, -0.061, -0.427, -4.323, -35.574, 157.868, -15.833, -9.047, -31.000, 27.2, 0.19385, 0.29288, -0.09387, 0.93152,
 17:45:29.009,ed:35:33:d3:6c:f8, 2015-01-01 04:06:15.965, 0.579, -0.062, 0.811, 0.244, 0.488, 0.244, -4.334, -35.579, 157.879, -15.833, -9.047, -31.000, 27.2, 0.19385, 0.29288, -0.09387, 0.93152,
 17:45:29.012,f6:90:cc:01:6d:25, 2015-01-01 04:06:26.390, 0.928, -0.27, 0.201, -0.427, -0.122, -0.122, -53.366, -70.164, -122.289, -31.060, -6.607, -4.313, 33.05, 0.12772, -0.62674, 0.07327, -0.76514,
 17:45:29.012,f6:90:cc:01:6d:25, 2015-01-01 04:06:26.390, 0.93, -0.271, 0.2, -0.244, -0.183, -0.061, -53.372, -70.164, -122.294, -31.060, -6.607, -4.313, 33.05, 0.12772, -0.62674, 0.07327, -0.76514,
 17:45:29.012,f6:90:cc:01:6d:25, 2015-01-01 04:06:26.390, 0.928, -0.271, 0.2, 0, -0.183, 0, -53.383, -70.164, -122.3, -31.060, -6.607, -4.313, 33.05, 0.12772, -0.62674, 0.07327, -0.76514,
 17:45:29.012,f6:90:cc:01:6d:25, 2015-01-01 04:06:26.390, 0.93, -0.271, 0.2, -0.244, -0.183, -0.061, -53.372, -70.164, -122.294, -31.060, -6.607, -4.313, 33.05, 0.12772, -0.62674, 0.07327, -0.76514,
 17:45:29.012,f6:90:cc:01:6d:25, 2015-01-01 04:06:26.390, 0.928, -0.271, 0.2, 0, -0.183, 0, -53.383, -70.164, -122.3, -31.060, -6.607, -4.313, 33.05, 0.12772, -0.62674, 0.07327, -0.76514,
 17:45:29.012,f6:90:cc:01:6d:25, 2015-01-01 04:06:26.390, 0.93, -0.271, 0.2, -0.244, -0.183, -0.061, -53.372, -70.164, -122.294, -31.060, -6.607, -4.313, 33.05, 0.12772, -0.62674, 0.07327, -0.76514,
 17:45:29.032,e3:ca:2d:fd:e0:8c, 2015-01-01 04:06:34.805, 1.018, -0.077, 0.037, -0.549, -0.61, 0.061, -64.292, -85.463, -144.657, -26.567, -10.373, -7.527, 31.35, -0.15094, -0.66626, 0.19415, -0.70392,
 17:45:29.032,e3:ca:2d:fd:e0:8c, 2015-01-01 04:06:34.805, 1.019, -0.077, 0.036, -0.427, -0.427, 0.061, -64.402, -85.463, -144.564, -26.567, -10.373, -7.527, 31.35, -0.15094, -0.66626, 0.19415, -0.70392,
 17:45:29.032,e3:ca:2d:fd:e0:8c, 2015-01-01 04:06:34.805, 1.018, -0.077, 0.036, -0.183, -0.244, 0.122, -64.468, -85.463, -144.498, -26.567, -10.373, -7.527, 31.35, -0.15094, -0.66626, 0.19415, -0.70392,
 17:45:29.032,e3:ca:2d:fd:e0:8c, 2015-01-01 04:06:34.805, 1.019, -0.077, 0.036, -0.427, -0.427, 0.061, -64.402, -85.463, -144.564, -26.567, -10.373, -7.527, 31.35, -0.15094, -0.66626, 0.19415, -0.70392,
 17:45:29.032,e3:ca:2d:fd:e0:8c, 2015-01-01 04:06:34.805, 1.018, -0.077, 0.036, -0.183, -0.244, 0.122, -64.468, -85.463, -144.498, -26.567, -10.373, -7.527, 31.35, -0.15094, -0.66626, 0.19415, -0.70392,
 17:45:29.032,e3:ca:2d:fd:e0:8c, 2015-01-01 04:06:34.805, 1.019, -0.077, 0.036, -0.427, -0.427, 0.061, -64.402, -85.463, -144.564, -26.567, -10.373, -7.527, 31.35, -0.15094, -0.66626, 0.19415, -0.70392,
 17:45:29.035,ed:40:fe:65:30:6c, 2015-01-01 04:06:40.065, 0.592, -0.049, 0.811, 0.244, 0, 0.244, -3.521, -36.14, -127.535, -19.273, -8.513, -7.260, 28.65, -0.4115, 0.29102, 0.11075, 0.85651,
 17:45:29.035,ed:40:fe:65:30:6c, 2015-01-01 04:06:40.065, 0.591, -0.052, 0.809, -0.061, 0, 0.122, -3.521, -36.14, -127.551, -19.273, -8.513, -7.260, 28.65, -0.4115, 0.29102, 0.11075, 0.85651,
 17:45:29.035,ed:40:fe:65:30:6c, 2015-01-01 04:06:40.065, 0.592, -0.052, 0.81, -0.122, -0.244, 0, -3.527, -36.14, -127.562, -19.273, -8.513, -7.260, 28.65, -0.4115, 0.29102, 0.11075, 0.85651,
 17:45:29.035,ed:40:fe:65:30:6c, 2015-01-01 04:06:40.065, 0.591, -0.052, 0.809, -0.061, 0, 0.122, -3.521, -36.14, -127.551, -19.273, -8.513, -7.260, 28.65, -0.4115, 0.29102, 0.11075, 0.85651,
 17:45:29.035,ed:40:fe:65:30:6c, 2015-01-01 04:06:40.065, 0.592, -0.052, 0.81, -0.122, -0.244, 0, -3.527, -36.14, -127.562, -19.273, -8.513, -7.260, 28.65, -0.4115, 0.29102, 0.11075, 0.85651,
 17:45:29.035,ed:40:fe:65:30:6c, 2015-01-01 04:06:40.065, 0.591, -0.052, 0.809, -0.061, 0, 0.122, -3.521, -36.14, -127.551, -19.273, -8.513, -7.260, 28.65, -0.4115, 0.29102, 0.11075, 0.85651,
 17:45:29.041,f6:90:cc:01:6d:25, 2015-01-01 04:06:26.805, 0.929, -0.271, 0.2, 0, -0.183, 0, -53.383, -70.164, -122.3, -31.060, -6.607, -4.313, 33.05, 0.12772, -0.62674, 0.07327, -0.76514,
 17:45:29.041,f6:90:cc:01:6d:25, 2015-01-01 04:06:26.805, 0.93, -0.271, 0.198, 0, -0.122, 0.061, -53.388, -70.164, -122.311, -31.060, -6.607, -4.313, 33.05, 0.12772, -0.62674, 0.07327, -0.76514,
 17:45:29.041,f6:90:cc:01:6d:25, 2015-01-01 04:06:26.805, 0.929, -0.272, 0.198, -0.305, -0.061, 0.183, -53.399, -70.164, -122.316, -31.060, -6.607, -4.313, 33.05, 0.12772, -0.62674, 0.07327, -0.76514,
 17:45:29.041,f6:90:cc:01:6d:25, 2015-01-01 04:06:26.805, 0.93, -0.271, 0.198, 0, -0.122, 0.061, -53.388, -70.164, -122.311, -31.060, -6.607, -4.313, 33.05, 0.12772, -0.62674, 0.07327, -0.76514,
 17:45:29.041,f6:90:cc:01:6d:25, 2015-01-01 04:06:26.805, 0.929, -0.272, 0.198, -0.305, -0.061, 0.183, -53.399, -70.164, -122.316, -31.060, -6.607, -4.313, 33.05, 0.12772, -0.62674, 0.07327, -0.76514,
 17:45:29.041,f6:90:cc:01:6d:25, 2015-01-01 04:06:26.805, 0.93, -0.271, 0.198, 0, -0.122, 0.061, -53.388, -70.164, -122.311, -31.060, -6.607, -4.313, 33.05, 0.12772, -0.62674, 0.07327, -0.76514,
 17:45:29.062,e3:ca:2d:fd:e0:8c, 2015-01-01 04:06:34.805, 1.02, -0.077, 0.036, -0.183, -0.244, 0.122, -64.468, -85.463, -144.498, -26.567, -10.373, -7.527, 31.35, -0.1553, -0.66605, 0.19809, -0.70209,
 17:45:29.062,e3:ca:2d:fd:e0:8c, 2015-01-01 04:06:34.805, 1.02, -0.078, 0.035, -0.061, -0.305, 0.244, -64.55, -85.457, -144.415, -26.567, -10.373, -7.527, 31.35, -0.1553, -0.66605, 0.19809, -0.70209,
 17:45:29.062,e3:ca:2d:fd:e0:8c, 2015-01-01 04:06:34.805, 1.02, -0.077, 0.035, -0.061, -0.305, 0.122, -64.633, -85.457, -144.327, -26.567, -10.373, -7.527, 31.35, -0.1553, -0.66605, 0.19809, -0.70209,
 17:45:29.062,e3:ca:2d:fd:e0:8c, 2015-01-01 04:06:34.805, 1.02, -0.078, 0.035, -0.061, -0.305, 0.244, -64.55, -85.457, -144.415, -26.567, -10.373, -7.527, 31.35, -0.1553, -0.66605, 0.19809, -0.70209,
 17:45:29.062,e3:ca:2d:fd:e0:8c, 2015-01-01 04:06:34.805, 1.02, -0.077, 0.035, -0.061, -0.305, 0.122, -64.633, -85.457, -144.327, -26.567, -10.373, -7.527, 31.35, -0.1553, -0.66605, 0.19809, -0.70209,
 17:45:29.062,e3:ca:2d:fd:e0:8c, 2015-01-01 04:06:34.805, 1.02, -0.078, 0.035, -0.061, -0.305, 0.244, -64.55, -85.457, -144.415, -26.567, -10.373, -7.527, 31.35, -0.1553, -0.66605, 0.19809, -0.70209,
 17:45:29.068,ed:35:33:d3:6c:f8, 2015-01-01 04:06:15.965, 0.578, -0.065, 0.809, 0.366, -0.061, -0.427, -4.323, -35.574, 157.868, -15.833, -9.047, -31.000, 27.2, 0.19385, 0.29288, -0.09387, 0.93152,
 17:45:29.068,ed:35:33:d3:6c:f8, 2015-01-01 04:06:15.965, 0.58, -0.062, 0.809, 0.183, -0.061, -0.183, -4.318, -35.574, 157.863, -15.833, -9.047, -31.000, 27.2, 0.19385, 0.29288, -0.09387, 0.93152,
 17:45:29.068,ed:35:33:d3:6c:f8, 2015-01-01 04:06:15.965, 0.578, -0.062, 0.81, -0.061, -0.488, 0.366, -4.318, -35.579, 157.874, -15.833, -9.047, -31.000, 27.2, 0.19385, 0.29288, -0.09387, 0.93152,
 17:45:29.068,ed:35:33:d3:6c:f8, 2015-01-01 04:06:15.965, 0.58, -0.062, 0.809, 0.183, -0.061, -0.183, -4.318, -35.574, 157.863, -15.833, -9.047, -31.000, 27.2, 0.19385, 0.29288, -0.09387, 0.93152,
 17:45:29.068,ed:35:33:d3:6c:f8, 2015-01-01 04:06:15.965, 0.578, -0.062, 0.81, -0.061, -0.488, 0.366, -4.318, -35.579, 157.874, -15.833, -9.047, -31.000, 27.2, 0.19385, 0.29288, -0.09387, 0.93152,
 17:45:29.068,ed:35:33:d3:6c:f8, 2015-01-01 04:06:15.965, 0.58, -0.062, 0.809, 0.183, -0.061, -0.183, -4.318, -35.574, 157.863, -15.833, -9.047, -31.000, 27.2, 0.19385, 0.29288, -0.09387, 0.93152,
 17:45:29.072,f6:90:cc:01:6d:25, 2015-01-01 04:06:26.805, 0.928, -0.272, 0.198, -0.305, -0.061, 0.183, -53.399, -70.164, -122.316, -31.060, -6.607, -4.313, 33.05, 0.12772, -0.62674, 0.07327, -0.76514,
 17:45:29.072,f6:90:cc:01:6d:25, 2015-01-01 04:06:26.805, 0.927, -0.273, 0.198, -0.366, -0.061, 0.244, -53.416, -70.159, -122.311, -31.060, -6.607, -4.313, 33.05, 0.12772, -0.62674, 0.07327, -0.76514,
 17:45:29.072,f6:90:cc:01:6d:25, 2015-01-01 04:06:26.805, 0.928, -0.276, 0.2, -0.244, -0.244, 0.305, -53.438, -70.159, -122.294, -31.060, -6.607, -4.313, 33.05, 0.12772, -0.62674, 0.07327, -0.76514,
 17:45:29.072,f6:90:cc:01:6d:25, 2015-01-01 04:06:26.805, 0.927, -0.273, 0.198, -0.366, -0.061, 0.244, -53.416, -70.159, -122.311, -31.060, -6.607, -4.313, 33.05, 0.12772, -0.62674, 0.07327, -0.76514,
 17:45:29.072,f6:90:cc:01:6d:25, 2015-01-01 04:06:26.805, 0.928, -0.276, 0.2, -0.244, -0.244, 0.305, -53.438, -70.159, -122.294, -31.060, -6.607, -4.313, 33.05, 0.12772, -0.62674, 0.07327, -0.76514,
 17:45:29.072,f6:90:cc:01:6d:25, 2015-01-01 04:06:26.805, 0.927, -0.273, 0.198, -0.366, -0.061, 0.244, -53.416, -70.159, -122.311, -31.060, -6.607, -4.313, 33.05, 0.12772, -0.62674, 0.07327, -0.76514,
 17:45:29.096,ed:40:fe:65:30:6c, 2015-01-01 04:06:40.425, 0.592, -0.052, 0.81, -0.122, -0.244, 0, -3.527, -36.14, -127.562, -19.273, -8.513, -7.260, 28.65, -0.4115, 0.29102, 0.11075, 0.85651,
 17:45:29.096,ed:40:fe:65:30:6c, 2015-01-01 04:06:40.425, 0.591, -0.051, 0.811, -0.122, -0.305, 0.061, -3.532, -36.145, -127.562, -19.273, -8.513, -7.260, 28.65, -0.4115, 0.29102, 0.11075, 0.85651,
 17:45:29.096,ed:40:fe:65:30:6c, 2015-01-01 04:06:40.425, 0.592, -0.051, 0.809, -0.244, -0.427, 0.244, -3.538, -36.156, -127.557, -19.273, -8.513, -7.260, 28.65, -0.4115, 0.29102, 0.11075, 0.85651,
 17:45:29.096,ed:40:fe:65:30:6c, 2015-01-01 04:06:40.425, 0.591, -0.051, 0.811, -0.122, -0.305, 0.061, -3.532, -36.145, -127.562, -19.273, -8.513, -7.260, 28.65, -0.4115, 0.29102, 0.11075, 0.85651,
 17:45:29.096,ed:40:fe:65:30:6c, 2015-01-01 04:06:40.425, 0.592, -0.051, 0.809, -0.244, -0.427, 0.244, -3.538, -36.156, -127.557, -19.273, -8.513, -7.260, 28.65, -0.4115, 0.29102, 0.11075, 0.85651,
 17:45:29.096,ed:40:fe:65:30:6c, 2015-01-01 04:06:40.425, 0.591, -0.051, 0.811, -0.122, -0.305, 0.061, -3.532, -36.145, -127.562, -19.273, -8.513, -7.260, 28.65, -0.4115, 0.29102, 0.11075, 0.85651,
 17:45:29.099,ed:35:33:d3:6c:f8, 2015-01-01 04:06:15.965, 0.58, -0.062, 0.81, -0.061, -0.488, 0.366, -4.318, -35.579, 157.874, -15.833, -9.047, -31.000, 27.2, 0.19385, 0.29288, -0.09387, 0.93152,
 17:45:29.099,ed:35:33:d3:6c:f8, 2015-01-01 04:06:15.965, 0.579, -0.06, 0.809, -0.183, -0.549, 0.366, -4.323, -35.59, 157.906, -15.833, -9.047, -31.000, 27.2, 0.19385, 0.29288, -0.09387, 0.93152,
 17:45:29.099,ed:35:33:d3:6c:f8, 2015-01-01 04:06:15.965, 0.58, -0.063, 0.808, -0.732, -0.793, 0.366, -4.34, -35.601, 157.917, -15.833, -9.047, -31.000, 27.2, 0.19385, 0.29288, -0.09387, 0.93152,
 17:45:29.099,ed:35:33:d3:6c:f8, 2015-01-01 04:06:15.965, 0.579, -0.06, 0.809, -0.183, -0.549, 0.366, -4.323, -35.59, 157.906, -15.833, -9.047, -31.000, 27.2, 0.19385, 0.29288, -0.09387, 0.93152,
 17:45:29.099,ed:35:33:d3:6c:f8, 2015-01-01 04:06:15.965, 0.58, -0.063, 0.808, -0.732, -0.793, 0.366, -4.34, -35.601, 157.917, -15.833, -9.047, -31.000, 27.2, 0.19385, 0.29288, -0.09387, 0.93152,
 17:45:29.099,ed:35:33:d3:6c:f8, 2015-01-01 04:06:15.965, 0.579, -0.06, 0.809, -0.183, -0.549, 0.366, -4.323, -35.59, 157.906, -15.833, -9.047, -31.000, 27.2, 0.19385, 0.29288, -0.09387, 0.93152,
 17:45:29.121,e3:ca:2d:fd:e0:8c, 2015-01-01 04:06:34.805, 1.02, -0.077, 0.035, -0.061, -0.305, 0.122, -64.633, -85.457, -144.327, -26.567, -10.373, -7.527, 31.35, -0.1553, -0.66605, 0.19809, -0.70209,
 17:45:29.121,e3:ca:2d:fd:e0:8c, 2015-01-01 04:06:34.805, 1.019, -0.078, 0.034, 0, -0.488, 0.061, -64.737, -85.457, -144.223, -26.567, -10.373, -7.527, 31.35, -0.1553, -0.66605, 0.19809, -0.70209,
 17:45:29.121,e3:ca:2d:fd:e0:8c, 2015-01-01 04:06:34.805, 1.02, -0.078, 0.035, 0.061, -0.549, 0, -64.858, -85.457, -144.097, -26.567, -10.373, -7.527, 31.35, -0.1553, -0.66605, 0.19809, -0.70209,
 17:45:29.121,e3:ca:2d:fd:e0:8c, 2015-01-01 04:06:34.805, 1.019, -0.078, 0.034, 0, -0.488, 0.061, -64.737, -85.457, -144.223, -26.567, -10.373, -7.527, 31.35, -0.1553, -0.66605, 0.19809, -0.70209,
 17:45:29.121,e3:ca:2d:fd:e0:8c, 2015-01-01 04:06:34.805, 1.02, -0.078, 0.035, 0.061, -0.549, 0, -64.858, -85.457, -144.097, -26.567, -10.373, -7.527, 31.35, -0.1553, -0.66605, 0.19809, -0.70209,
 17:45:29.121,e3:ca:2d:fd:e0:8c, 2015-01-01 04:06:34.805, 1.019, -0.078, 0.034, 0, -0.488, 0.061, -64.737, -85.457, -144.223, -26.567, -10.373, -7.527, 31.35, -0.1553, -0.66605, 0.19809, -0.70209,
 17:45:29.124,ed:40:fe:65:30:6c, 2015-01-01 04:06:40.425, 0.592, -0.051, 0.809, -0.244, -0.427, 0.244, -3.538, -36.156, -127.557, -19.273, -8.513, -7.260, 28.65, -0.4115, 0.29102, 0.11075, 0.85651,
 17:45:29.124,ed:40:fe:65:30:6c, 2015-01-01 04:06:40.425, 0.594, -0.053, 0.809, -0.305, -0.366, 0.427, -3.549, -36.161, -127.535, -19.273, -8.513, -7.260, 28.65, -0.4115, 0.29102, 0.11075, 0.85651,
 17:45:29.124,ed:40:fe:65:30:6c, 2015-01-01 04:06:40.425, 0.592, -0.057, 0.808, -0.488, -0.305, 0.427, -3.565, -36.167, -127.524, -19.273, -8.513, -7.260, 28.65, -0.4115, 0.29102, 0.11075, 0.85651,
 17:45:29.124,ed:40:fe:65:30:6c, 2015-01-01 04:06:40.425, 0.594, -0.053, 0.809, -0.305, -0.366, 0.427, -3.549, -36.161, -127.535, -19.273, -8.513, -7.260, 28.65, -0.4115, 0.29102, 0.11075, 0.85651,
 17:45:29.124,ed:40:fe:65:30:6c, 2015-01-01 04:06:40.425, 0.592, -0.057, 0.808, -0.488, -0.305, 0.427, -3.565, -36.167, -127.524, -19.273, -8.513, -7.260, 28.65, -0.4115, 0.29102, 0.11075, 0.85651,
 17:45:29.124,ed:40:fe:65:30:6c, 2015-01-01 04:06:40.425, 0.594, -0.053, 0.809, -0.305, -0.366, 0.427, -3.549, -36.161, -127.535, -19.273, -8.513, -7.260, 28.65, -0.4115, 0.29102, 0.11075, 0.85651,
 17:45:29.129,ed:35:33:d3:6c:f8, 2015-01-01 04:06:15.965, 0.58, -0.063, 0.808, -0.732, -0.793, 0.366, -4.34, -35.601, 157.917, -15.833, -9.047, -31.000, 27.2, 0.19385, 0.29288, -0.09387, 0.93152,
 17:45:29.129,ed:35:33:d3:6c:f8, 2015-01-01 04:06:15.965, 0.583, -0.067, 0.807, -0.427, -0.732, 0.427, -4.356, -35.618, 157.917, -15.833, -9.047, -31.000, 27.2, 0.19385, 0.29288, -0.09387, 0.93152,
 17:45:29.129,ed:35:33:d3:6c:f8, 2015-01-01 04:06:15.965, 0.58, -0.067, 0.806, -0.488, -1.038, 0.854, -4.378, -35.634, 157.928, -15.833, -9.047, -31.000, 27.2, 0.19385, 0.29288, -0.09387, 0.93152,
 17:45:29.129,ed:35:33:d3:6c:f8, 2015-01-01 04:06:15.965, 0.583, -0.067, 0.807, -0.427, -0.732, 0.427, -4.356, -35.618, 157.917, -15.833, -9.047, -31.000, 27.2, 0.19385, 0.29288, -0.09387, 0.93152,
 17:45:29.129,ed:35:33:d3:6c:f8, 2015-01-01 04:06:15.965, 0.58, -0.067, 0.806, -0.488, -1.038, 0.854, -4.378, -35.634, 157.928, -15.833, -9.047, -31.000, 27.2, 0.19385, 0.29288, -0.09387, 0.93152,
 17:45:29.129,ed:35:33:d3:6c:f8, 2015-01-01 04:06:15.965, 0.583, -0.067, 0.807, -0.427, -0.732, 0.427, -4.356, -35.618, 157.917, -15.833, -9.047, -31.000, 27.2, 0.19385, 0.29288, -0.09387, 0.93152,
 17:45:29.131,f6:90:cc:01:6d:25, 2015-01-01 04:06:26.805, 0.928, -0.276, 0.2, -0.244, -0.244, 0.305, -53.438, -70.159, -122.294, -31.060, -6.607, -4.313, 33.05, 0.12772, -0.62674, 0.07327, -0.76514,
 17:45:29.131,f6:90:cc:01:6d:25, 2015-01-01 04:06:26.805, 0.929, -0.275, 0.199, 0, -0.244, 0.305, -53.465, -70.153, -122.272, -31.060, -6.607, -4.313, 33.05, 0.12772, -0.62674, 0.07327, -0.76514,
 17:45:29.131,f6:90:cc:01:6d:25, 2015-01-01 04:06:26.805, 0.928, -0.274, 0.199, 0.244, -0.305, 0.183, -53.487, -70.148, -122.245, -31.060, -6.607, -4.313, 33.05, 0.12772, -0.62674, 0.07327, -0.76514,
 17:45:29.131,f6:90:cc:01:6d:25, 2015-01-01 04:06:26.805, 0.929, -0.275, 0.199, 0, -0.244, 0.305, -53.465, -70.153, -122.272, -31.060, -6.607, -4.313, 33.05, 0.12772, -0.62674, 0.07327, -0.76514,
 17:45:29.131,f6:90:cc:01:6d:25, 2015-01-01 04:06:26.805, 0.928, -0.274, 0.199, 0.244, -0.305, 0.183, -53.487, -70.148, -122.245, -31.060, -6.607, -4.313, 33.05, 0.12772, -0.62674, 0.07327, -0.76514,
 17:45:29.131,f6:90:cc:01:6d:25, 2015-01-01 04:06:26.805, 0.929, -0.275, 0.199, 0, -0.244, 0.305, -53.465, -70.153, -122.272, -31.060, -6.607, -4.313, 33.05, 0.12772, -0.62674, 0.07327, -0.76514,
 17:45:29.151,e3:ca:2d:fd:e0:8c, 2015-01-01 04:06:35.225, 1.019, -0.078, 0.035, 0.061, -0.549, 0, -64.858, -85.457, -144.097, -26.567, -10.373, -7.527, 31.35, -0.1553, -0.66605, 0.19809, -0.70209,
 17:45:29.151,e3:ca:2d:fd:e0:8c, 2015-01-01 04:06:35.225, 1.018, -0.076, 0.036, 0.061, -0.488, -0.122, -64.962, -85.457, -143.987, -26.567, -10.373, -7.527, 31.35, -0.1553, -0.66605, 0.19809, -0.70209,
 17:45:29.151,e3:ca:2d:fd:e0:8c, 2015-01-01 04:06:35.225, 1.019, -0.075, 0.035, 0.122, -0.122, -0.183, -64.984, -85.463, -143.948, -26.567, -10.373, -7.527, 31.35, -0.1553, -0.66605, 0.19809, -0.70209,
 17:45:29.151,e3:ca:2d:fd:e0:8c, 2015-01-01 04:06:35.225, 1.018, -0.076, 0.036, 0.061, -0.488, -0.122, -64.962, -85.457, -143.987, -26.567, -10.373, -7.527, 31.35, -0.1553, -0.66605, 0.19809, -0.70209,
 17:45:29.151,e3:ca:2d:fd:e0:8c, 2015-01-01 04:06:35.225, 1.019, -0.075, 0.035, 0.122, -0.122, -0.183, -64.984, -85.463, -143.948, -26.567, -10.373, -7.527, 31.35, -0.1553, -0.66605, 0.19809, -0.70209,
 17:45:29.151,e3:ca:2d:fd:e0:8c, 2015-01-01 04:06:35.225, 1.018, -0.076, 0.036, 0.061, -0.488, -0.122, -64.962, -85.457, -143.987, -26.567, -10.373, -7.527, 31.35, -0.1553, -0.66605, 0.19809, -0.70209,
 17:45:29.155,ed:40:fe:65:30:6c, 2015-01-01 04:06:40.425, 0.594, -0.057, 0.808, -0.488, -0.305, 0.427, -3.565, -36.167, -127.524, -19.273, -8.513, -7.260, 28.65, -0.4115, 0.29102, 0.11075, 0.85651,
 17:45:29.155,ed:40:fe:65:30:6c, 2015-01-01 04:06:40.425, 0.591, -0.056, 0.808, -0.427, -0.183, 0.427, -3.587, -36.172, -127.513, -19.273, -8.513, -7.260, 28.65, -0.4115, 0.29102, 0.11075, 0.85651,
 17:45:29.155,ed:40:fe:65:30:6c, 2015-01-01 04:06:40.425, 0.594, -0.053, 0.807, -0.122, -0.183, 0.488, -3.598, -36.172, -127.507, -19.273, -8.513, -7.260, 28.65, -0.4115, 0.29102, 0.11075, 0.85651,
 17:45:29.155,ed:40:fe:65:30:6c, 2015-01-01 04:06:40.425, 0.591, -0.056, 0.808, -0.427, -0.183, 0.427, -3.587, -36.172, -127.513, -19.273, -8.513, -7.260, 28.65, -0.4115, 0.29102, 0.11075, 0.85651,
 17:45:29.155,ed:40:fe:65:30:6c, 2015-01-01 04:06:40.425, 0.594, -0.053, 0.807, -0.122, -0.183, 0.488, -3.598, -36.172, -127.507, -19.273, -8.513, -7.260, 28.65, -0.4115, 0.29102, 0.11075, 0.85651,
 17:45:29.155,ed:40:fe:65:30:6c, 2015-01-01 04:06:40.425, 0.591, -0.056, 0.808, -0.427, -0.183, 0.427, -3.587, -36.172, -127.513, -19.273, -8.513, -7.260, 28.65, -0.4115, 0.29102, 0.11075, 0.85651,
 17:45:29.161,f6:90:cc:01:6d:25, 2015-01-01 04:06:26.805, 0.929, -0.274, 0.199, 0.244, -0.305, 0.183, -53.487, -70.148, -122.245, -31.060, -6.607, -4.313, 33.05, 0.12772, -0.62674, 0.07327, -0.76514,
 17:45:29.161,f6:90:cc:01:6d:25, 2015-01-01 04:06:26.805, 0.928, -0.272, 0.198, 0.366, -0.305, 0, -53.503, -70.148, -122.228, -31.060, -6.607, -4.313, 33.05, 0.12772, -0.62674, 0.07327, -0.76514,
 17:45:29.161,f6:90:cc:01:6d:25, 2015-01-01 04:06:26.805, 0.929, -0.271, 0.198, 0.549, -0.305, 0, -53.514, -70.153, -122.212, -31.060, -6.607, -4.313, 33.05, 0.12772, -0.62674, 0.07327, -0.76514,
 17:45:29.161,f6:90:cc:01:6d:25, 2015-01-01 04:06:26.805, 0.928, -0.272, 0.198, 0.366, -0.305, 0, -53.503, -70.148, -122.228, -31.060, -6.607, -4.313, 33.05, 0.12772, -0.62674, 0.07327, -0.76514,
 17:45:29.161,f6:90:cc:01:6d:25, 2015-01-01 04:06:26.805, 0.929, -0.271, 0.198, 0.549, -0.305, 0, -53.514, -70.153, -122.212, -31.060, -6.607, -4.313, 33.05, 0.12772, -0.62674, 0.07327, -0.76514,
 17:45:29.161,f6:90:cc:01:6d:25, 2015-01-01 04:06:26.805, 0.928, -0.272, 0.198, 0.366, -0.305, 0, -53.503, -70.148, -122.228, -31.060, -6.607, -4.313, 33.05, 0.12772, -0.62674, 0.07327, -0.76514,
 17:45:29.181,e3:ca:2d:fd:e0:8c, 2015-01-01 04:06:35.225, 1.018, -0.075, 0.035, 0.122, -0.122, -0.183, -64.984, -85.463, -143.948, -26.567, -10.373, -7.527, 31.35, -0.1553, -0.66605, 0.19809, -0.70209,
 17:45:29.181,e3:ca:2d:fd:e0:8c, 2015-01-01 04:06:35.225, 1.019, -0.073, 0.035, 0.061, 0, -0.244, -64.962, -85.463, -143.954, -26.567, -10.373, -7.527, 31.35, -0.1553, -0.66605, 0.19809, -0.70209,
 17:45:29.181,e3:ca:2d:fd:e0:8c, 2015-01-01 04:06:35.225, 1.018, -0.074, 0.035, 0.122, 0.061, -0.305, -64.913, -85.468, -143.987, -26.567, -10.373, -7.527, 31.35, -0.1553, -0.66605, 0.19809, -0.70209,
 17:45:29.181,e3:ca:2d:fd:e0:8c, 2015-01-01 04:06:35.225, 1.019, -0.073, 0.035, 0.061, 0, -0.244, -64.962, -85.463, -143.954, -26.567, -10.373, -7.527, 31.35, -0.1553, -0.66605, 0.19809, -0.70209,
 17:45:29.181,e3:ca:2d:fd:e0:8c, 2015-01-01 04:06:35.225, 1.018, -0.074, 0.035, 0.122, 0.061, -0.305, -64.913, -85.468, -143.987, -26.567, -10.373, -7.527, 31.35, -0.1553, -0.66605, 0.19809, -0.70209,
 17:45:29.181,e3:ca:2d:fd:e0:8c, 2015-01-01 04:06:35.225, 1.019, -0.073, 0.035, 0.061, 0, -0.244, -64.962, -85.463, -143.954, -26.567, -10.373, -7.527, 31.35, -0.1553, -0.66605, 0.19809, -0.70209,
 17:45:29.189,ed:35:33:d3:6c:f8, 2015-01-01 04:06:15.965, 0.578, -0.067, 0.806, -0.488, -1.038, 0.854, -4.378, -35.634, 157.928, -15.833, -9.047, -31.000, 27.2, 0.19385, 0.29288, -0.09387, 0.93152,
 17:45:29.189,ed:35:33:d3:6c:f8, 2015-01-01 04:06:15.965, 0.58, -0.064, 0.804, -0.305, -0.427, 0.793, -4.4, -35.645, 157.961, -15.833, -9.047, -31.000, 27.2, 0.19385, 0.29288, -0.09387, 0.93152,
 17:45:29.189,ed:35:33:d3:6c:f8, 2015-01-01 04:06:15.965, 0.578, -0.063, 0.801, -0.061, -0.549, 0.366, -4.411, -35.656, 157.972, -15.833, -9.047, -31.000, 27.2, 0.19385, 0.29288, -0.09387, 0.93152,
 17:45:29.189,ed:35:33:d3:6c:f8, 2015-01-01 04:06:15.965, 0.58, -0.064, 0.804, -0.305, -0.427, 0.793, -4.4, -35.645, 157.961, -15.833, -9.047, -31.000, 27.2, 0.19385, 0.29288, -0.09387, 0.93152,
 17:45:29.189,ed:35:33:d3:6c:f8, 2015-01-01 04:06:15.965, 0.578, -0.063, 0.801, -0.061, -0.549, 0.366, -4.411, -35.656, 157.972, -15.833, -9.047, -31.000, 27.2, 0.19385, 0.29288, -0.09387, 0.93152,
 17:45:29.189,ed:35:33:d3:6c:f8, 2015-01-01 04:06:15.965, 0.58, -0.064, 0.804, -0.305, -0.427, 0.793, -4.4, -35.645, 157.961, -15.833, -9.047, -31.000, 27.2, 0.19385, 0.29288, -0.09387, 0.93152,
 17:45:29.193,f6:90:cc:01:6d:25, 2015-01-01 04:06:26.805, 0.928, -0.271, 0.198, 0.549, -0.305, 0, -53.514, -70.153, -122.212, -31.060, -6.607, -4.313, 33.05, 0.12772, -0.62674, 0.07327, -0.76514,
 17:45:29.193,f6:90:cc:01:6d:25, 2015-01-01 04:06:26.805, 0.929, -0.271, 0.2, 0.671, -0.427, 0, -53.52, -70.153, -122.201, -31.060, -6.607, -4.313, 33.05, 0.12772, -0.62674, 0.07327, -0.76514,
 17:45:29.193,f6:90:cc:01:6d:25, 2015-01-01 04:06:26.805, 0.928, -0.272, 0.2, 0.793, -0.427, 0, -53.531, -70.159, -122.179, -31.060, -6.607, -4.313, 33.05, 0.12772, -0.62674, 0.07327, -0.76514,
 17:45:29.193,f6:90:cc:01:6d:25, 2015-01-01 04:06:26.805, 0.929, -0.271, 0.2, 0.671, -0.427, 0, -53.52, -70.153, -122.201, -31.060, -6.607, -4.313, 33.05, 0.12772, -0.62674, 0.07327, -0.76514,
 17:45:29.193,f6:90:cc:01:6d:25, 2015-01-01 04:06:26.805, 0.928, -0.272, 0.2, 0.793, -0.427, 0, -53.531, -70.159, -122.179, -31.060, -6.607, -4.313, 33.05, 0.12772, -0.62674, 0.07327, -0.76514,
 17:45:29.193,f6:90:cc:01:6d:25, 2015-01-01 04:06:26.805, 0.929, -0.271, 0.2, 0.671, -0.427, 0, -53.52, -70.153, -122.201, -31.060, -6.607, -4.313, 33.05, 0.12772, -0.62674, 0.07327, -0.76514,
 17:45:29.211,e3:ca:2d:fd:e0:8c, 2015-01-01 04:06:35.225, 1.019, -0.074, 0.035, 0.122, 0.061, -0.305, -64.913, -85.468, -143.987, -26.567, -10.373, -7.527, 31.35, -0.1553, -0.66605, 0.19809, -0.70209,
 17:45:29.211,e3:ca:2d:fd:e0:8c, 2015-01-01 04:06:35.225, 1.019, -0.077, 0.036, 0.244, 0, -0.305, -64.874, -85.468, -144.009, -26.567, -10.373, -7.527, 31.35, -0.1553, -0.66605, 0.19809, -0.70209,
 17:45:29.211,e3:ca:2d:fd:e0:8c, 2015-01-01 04:06:35.225, 1.019, -0.079, 0.036, 0.366, 0, -0.244, -64.841, -85.474, -143.998, -26.567, -10.373, -7.527, 31.35, -0.1553, -0.66605, 0.19809, -0.70209,
 17:45:29.211,e3:ca:2d:fd:e0:8c, 2015-01-01 04:06:35.225, 1.019, -0.077, 0.036, 0.244, 0, -0.305, -64.874, -85.468, -144.009, -26.567, -10.373, -7.527, 31.35, -0.1553, -0.66605, 0.19809, -0.70209,
 17:45:29.211,e3:ca:2d:fd:e0:8c, 2015-01-01 04:06:35.225, 1.019, -0.079, 0.036, 0.366, 0, -0.244, -64.841, -85.474, -143.998, -26.567, -10.373, -7.527, 31.35, -0.1553, -0.66605, 0.19809, -0.70209,
 17:45:29.211,e3:ca:2d:fd:e0:8c, 2015-01-01 04:06:35.225, 1.019, -0.077, 0.036, 0.244, 0, -0.305, -64.874, -85.468, -144.009, -26.567, -10.373, -7.527, 31.35, -0.1553, -0.66605, 0.19809, -0.70209,
 17:45:29.217,ed:40:fe:65:30:6c, 2015-01-01 04:06:40.425, 0.592, -0.053, 0.807, -0.122, -0.183, 0.488, -3.598, -36.172, -127.507, -19.273, -8.513, -7.260, 28.65, -0.4115, 0.29102, 0.11075, 0.85651,
 17:45:29.217,ed:40:fe:65:30:6c, 2015-01-01 04:06:40.425, 0.593, -0.052, 0.805, 0.061, -0.122, 0.549, -3.609, -36.178, -127.507, -19.273, -8.513, -7.260, 28.65, -0.4115, 0.29102, 0.11075, 0.85651,
 17:45:29.217,ed:40:fe:65:30:6c, 2015-01-01 04:06:40.425, 0.592, -0.052, 0.805, 0.183, 0, 0.61, -3.615, -36.178, -127.502, -19.273, -8.513, -7.260, 28.65, -0.4115, 0.29102, 0.11075, 0.85651,
 17:45:29.217,ed:40:fe:65:30:6c, 2015-01-01 04:06:40.425, 0.593, -0.052, 0.805, 0.061, -0.122, 0.549, -3.609, -36.178, -127.507, -19.273, -8.513, -7.260, 28.65, -0.4115, 0.29102, 0.11075, 0.85651,
 17:45:29.217,ed:40:fe:65:30:6c, 2015-01-01 04:06:40.425, 0.592, -0.052, 0.805, 0.183, 0, 0.61, -3.615, -36.178, -127.502, -19.273, -8.513, -7.260, 28.65, -0.4115, 0.29102, 0.11075, 0.85651,
 17:45:29.217,ed:40:fe:65:30:6c, 2015-01-01 04:06:40.425, 0.593, -0.052, 0.805, 0.061, -0.122, 0.549, -3.609, -36.178, -127.507, -19.273, -8.513, -7.260, 28.65, -0.4115, 0.29102, 0.11075, 0.85651,
 17:45:29.219,ed:35:33:d3:6c:f8, 2015-01-01 04:06:15.965, 0.582, -0.063, 0.801, -0.061, -0.549, 0.366, -4.411, -35.656, 157.972, -15.913, -8.653, -30.873, 27.2, 0.19385, 0.29288, -0.09387, 0.93152,
 17:45:29.219,ed:35:33:d3:6c:f8, 2015-01-01 04:06:15.965, 0.583, -0.062, 0.804, 0.366, -0.488, 0.366, -4.411, -35.662, 157.994, -15.913, -8.653, -30.873, 27.2, 0.19385, 0.29288, -0.09387, 0.93152,
 17:45:29.219,ed:35:33:d3:6c:f8, 2015-01-01 04:06:15.965, 0.582, -0.062, 0.805, 0.183, -0.61, 0.366, -4.417, -35.673, 158, -15.913, -8.653, -30.873, 27.2, 0.19385, 0.29288, -0.09387, 0.93152,
 17:45:29.219,ed:35:33:d3:6c:f8, 2015-01-01 04:06:15.965, 0.583, -0.062, 0.804, 0.366, -0.488, 0.366, -4.411, -35.662, 157.994, -15.913, -8.653, -30.873, 27.2, 0.19385, 0.29288, -0.09387, 0.93152,
 17:45:29.219,ed:35:33:d3:6c:f8, 2015-01-01 04:06:15.965, 0.582, -0.062, 0.805, 0.183, -0.61, 0.366, -4.417, -35.673, 158, -15.913, -8.653, -30.873, 27.2, 0.19385, 0.29288, -0.09387, 0.93152,
 17:45:29.219,ed:35:33:d3:6c:f8, 2015-01-01 04:06:15.965, 0.583, -0.062, 0.804, 0.366, -0.488, 0.366, -4.411, -35.662, 157.994, -15.913, -8.653, -30.873, 27.2, 0.19385, 0.29288, -0.09387, 0.93152,
 17:45:29.246,ed:40:fe:65:30:6c, 2015-01-01 04:06:40.425, 0.593, -0.052, 0.805, 0.183, 0, 0.61, -3.615, -36.178, -127.502, -19.273, -8.513, -7.260, 28.65, -0.4115, 0.29102, 0.11075, 0.85651,
 17:45:29.246,ed:40:fe:65:30:6c, 2015-01-01 04:06:40.425, 0.594, -0.052, 0.807, 0.061, 0, 0.61, -3.62, -36.178, -127.502, -19.273, -8.513, -7.260, 28.65, -0.4115, 0.29102, 0.11075, 0.85651,
 17:45:29.246,ed:40:fe:65:30:6c, 2015-01-01 04:06:40.425, 0.593, -0.05, 0.808, 0.061, 0, 0.61, -3.631, -36.178, -127.502, -19.273, -8.513, -7.260, 28.65, -0.4115, 0.29102, 0.11075, 0.85651,
 17:45:29.246,ed:40:fe:65:30:6c, 2015-01-01 04:06:40.425, 0.594, -0.052, 0.807, 0.061, 0, 0.61, -3.62, -36.178, -127.502, -19.273, -8.513, -7.260, 28.65, -0.4115, 0.29102, 0.11075, 0.85651,
 17:45:29.246,ed:40:fe:65:30:6c, 2015-01-01 04:06:40.425, 0.593, -0.05, 0.808, 0.061, 0, 0.61, -3.631, -36.178, -127.502, -19.273, -8.513, -7.260, 28.65, -0.4115, 0.29102, 0.11075, 0.85651,
 17:45:29.246,ed:40:fe:65:30:6c, 2015-01-01 04:06:40.425, 0.594, -0.052, 0.807, 0.061, 0, 0.61, -3.62, -36.178, -127.502, -19.273, -8.513, -7.260, 28.65, -0.4115, 0.29102, 0.11075, 0.85651,
 17:45:29.250,ed:35:33:d3:6c:f8, 2015-01-01 04:06:15.965, 0.581, -0.062, 0.805, 0.183, -0.61, 0.366, -4.417, -35.673, 158, -15.913, -8.653, -30.873, 27.2, 0.19385, 0.29288, -0.09387, 0.93152,
 17:45:29.250,ed:35:33:d3:6c:f8, 2015-01-01 04:06:15.965, 0.584, -0.061, 0.802, 0.122, -0.183, 0.366, -4.417, -35.678, 157.978, -15.913, -8.653, -30.873, 27.2, 0.19385, 0.29288, -0.09387, 0.93152,
 17:45:29.250,ed:35:33:d3:6c:f8, 2015-01-01 04:06:15.965, 0.581, -0.058, 0.803, 0.122, 0.427, 0.549, -4.422, -35.673, 157.978, -15.913, -8.653, -30.873, 27.2, 0.19385, 0.29288, -0.09387, 0.93152,
 17:45:29.250,ed:35:33:d3:6c:f8, 2015-01-01 04:06:15.965, 0.584, -0.061, 0.802, 0.122, -0.183, 0.366, -4.417, -35.678, 157.978, -15.913, -8.653, -30.873, 27.2, 0.19385, 0.29288, -0.09387, 0.93152,
 17:45:29.250,ed:35:33:d3:6c:f8, 2015-01-01 04:06:15.965, 0.581, -0.058, 0.803, 0.122, 0.427, 0.549, -4.422, -35.673, 157.978, -15.913, -8.653, -30.873, 27.2, 0.19385, 0.29288, -0.09387, 0.93152,
 17:45:29.250,ed:35:33:d3:6c:f8, 2015-01-01 04:06:15.965, 0.584, -0.061, 0.802, 0.122, -0.183, 0.366, -4.417, -35.678, 157.978, -15.913, -8.653, -30.873, 27.2, 0.19385, 0.29288, -0.09387, 0.93152,
 17:45:29.252,f6:90:cc:01:6d:25, 2015-01-01 04:06:26.805, 0.93, -0.272, 0.2, 0.793, -0.427, 0, -53.531, -70.159, -122.179, -31.060, -6.607, -4.313, 33.05, 0.12772, -0.62674, 0.07327, -0.76514,
 17:45:29.252,f6:90:cc:01:6d:25, 2015-01-01 04:06:26.805, 0.931, -0.27, 0.201, 0.732, -0.305, 0.122, -53.536, -70.159, -122.146, -31.060, -6.607, -4.313, 33.05, 0.12772, -0.62674, 0.07327, -0.76514,
 17:45:29.252,f6:90:cc:01:6d:25, 2015-01-01 04:06:26.805, 0.93, -0.271, 0.199, 0.732, -0.183, 0.061, -53.536, -70.159, -122.124, -31.060, -6.607, -4.313, 33.05, 0.12772, -0.62674, 0.07327, -0.76514,
 17:45:29.252,f6:90:cc:01:6d:25, 2015-01-01 04:06:26.805, 0.931, -0.27, 0.201, 0.732, -0.305, 0.122, -53.536, -70.159, -122.146, -31.060, -6.607, -4.313, 33.05, 0.12772, -0.62674, 0.07327, -0.76514,
 17:45:29.252,f6:90:cc:01:6d:25, 2015-01-01 04:06:26.805, 0.93, -0.271, 0.199, 0.732, -0.183, 0.061, -53.536, -70.159, -122.124, -31.060, -6.607, -4.313, 33.05, 0.12772, -0.62674, 0.07327, -0.76514,
 17:45:29.252,f6:90:cc:01:6d:25, 2015-01-01 04:06:26.805, 0.931, -0.27, 0.201, 0.732, -0.305, 0.122, -53.536, -70.159, -122.146, -31.060, -6.607, -4.313, 33.05, 0.12772, -0.62674, 0.07327, -0.76514,
 17:45:29.274,ed:40:fe:65:30:6c, 2015-01-01 04:06:40.425, 0.594, -0.05, 0.808, 0.061, 0, 0.61, -3.631, -36.178, -127.502, -18.860, -8.480, -7.107, 28.65, -0.4115, 0.29102, 0.11075, 0.85651,
 17:45:29.274,ed:40:fe:65:30:6c, 2015-01-01 04:06:40.425, 0.594, -0.048, 0.807, 0.183, 0, 0.732, -3.636, -36.172, -127.496, -18.860, -8.480, -7.107, 28.65, -0.4115, 0.29102, 0.11075, 0.85651,
 17:45:29.274,ed:40:fe:65:30:6c, 2015-01-01 04:06:40.425, 0.594, -0.048, 0.807, 0.366, 0, 0.854, -3.642, -36.172, -127.485, -18.860, -8.480, -7.107, 28.65, -0.4115, 0.29102, 0.11075, 0.85651,
 17:45:29.274,ed:40:fe:65:30:6c, 2015-01-01 04:06:40.425, 0.594, -0.048, 0.807, 0.183, 0, 0.732, -3.636, -36.172, -127.496, -18.860, -8.480, -7.107, 28.65, -0.4115, 0.29102, 0.11075, 0.85651,
 17:45:29.274,ed:40:fe:65:30:6c, 2015-01-01 04:06:40.425, 0.594, -0.048, 0.807, 0.366, 0, 0.854, -3.642, -36.172, -127.485, -18.860, -8.480, -7.107, 28.65, -0.4115, 0.29102, 0.11075, 0.85651,
 17:45:29.274,ed:40:fe:65:30:6c, 2015-01-01 04:06:40.425, 0.594, -0.048, 0.807, 0.183, 0, 0.732, -3.636, -36.172, -127.496, -18.860, -8.480, -7.107, 28.65, -0.4115, 0.29102, 0.11075, 0.85651,
 17:45:29.281,f6:90:cc:01:6d:25, 2015-01-01 04:06:26.805, 0.931, -0.271, 0.199, 0.732, -0.183, 0.061, -53.536, -70.159, -122.124, -31.340, -6.613, -5.033, 33.05, 0.12772, -0.62674, 0.07327, -0.76514,
 17:45:29.281,f6:90:cc:01:6d:25, 2015-01-01 04:06:26.805, 0.931, -0.271, 0.199, 0.793, -0.122, 0.244, -53.536, -70.159, -122.102, -31.340, -6.613, -5.033, 33.05, 0.12772, -0.62674, 0.07327, -0.76514,
 17:45:29.281,f6:90:cc:01:6d:25, 2015-01-01 04:06:26.805, 0.931, -0.27, 0.2, 0.793, 0, 0.427, -53.536, -70.153, -122.08, -31.340, -6.613, -5.033, 33.05, 0.12772, -0.62674, 0.07327, -0.76514,
 17:45:29.281,f6:90:cc:01:6d:25, 2015-01-01 04:06:26.805, 0.931, -0.271, 0.199, 0.793, -0.122, 0.244, -53.536, -70.159, -122.102, -31.340, -6.613, -5.033, 33.05, 0.12772, -0.62674, 0.07327, -0.76514,
 17:45:29.281,f6:90:cc:01:6d:25, 2015-01-01 04:06:26.805, 0.931, -0.27, 0.2, 0.793, 0, 0.427, -53.536, -70.153, -122.08, -31.340, -6.613, -5.033, 33.05, 0.12772, -0.62674, 0.07327, -0.76514,
 17:45:29.281,f6:90:cc:01:6d:25, 2015-01-01 04:06:26.805, 0.931, -0.271, 0.199, 0.793, -0.122, 0.244, -53.536, -70.159, -122.102, -31.340, -6.613, -5.033, 33.05, 0.12772, -0.62674, 0.07327, -0.76514,
 17:45:29.311,f6:90:cc:01:6d:25, 2015-01-01 04:06:26.805, 0.93, -0.27, 0.2, 0.793, 0, 0.427, -53.536, -70.153, -122.08, -31.340, -6.613, -5.033, 33.05, 0.12772, -0.62674, 0.07327, -0.76514,
 17:45:29.311,f6:90:cc:01:6d:25, 2015-01-01 04:06:26.805, 0.926, -0.269, 0.198, 0.916, 0.183, 0.549, -53.531, -70.142, -122.064, -31.340, -6.613, -5.033, 33.05, 0.12772, -0.62674, 0.07327, -0.76514,
 17:45:29.311,f6:90:cc:01:6d:25, 2015-01-01 04:06:26.805, 0.93, -0.268, 0.199, 0.916, 0.183, 0.488, -53.52, -70.131, -122.042, -31.340, -6.613, -5.033, 33.05, 0.12772, -0.62674, 0.07327, -0.76514,
 17:45:29.311,f6:90:cc:01:6d:25, 2015-01-01 04:06:26.805, 0.926, -0.269, 0.198, 0.916, 0.183, 0.549, -53.531, -70.142, -122.064, -31.340, -6.613, -5.033, 33.05, 0.12772, -0.62674, 0.07327, -0.76514,
 17:45:29.311,f6:90:cc:01:6d:25, 2015-01-01 04:06:26.805, 0.93, -0.268, 0.199, 0.916, 0.183, 0.488, -53.52, -70.131, -122.042, -31.340, -6.613, -5.033, 33.05, 0.12772, -0.62674, 0.07327, -0.76514,
 17:45:29.311,f6:90:cc:01:6d:25, 2015-01-01 04:06:26.805, 0.926, -0.269, 0.198, 0.916, 0.183, 0.549, -53.531, -70.142, -122.064, -31.340, -6.613, -5.033, 33.05, 0.12772, -0.62674, 0.07327, -0.76514,
 17:45:29.331,e3:ca:2d:fd:e0:8c, 2015-01-01 04:06:35.225, 1.02, -0.079, 0.036, 0.366, 0, -0.244, -64.841, -85.474, -143.998, -26.567, -10.373, -7.527, 31.35, -0.1553, -0.66605, 0.19809, -0.70209,
 17:45:29.331,e3:ca:2d:fd:e0:8c, 2015-01-01 04:06:35.225, 1.02, -0.077, 0.036, 0.488, -0.244, -0.183, -64.869, -85.474, -143.921, -26.567, -10.373, -7.527, 31.35, -0.1553, -0.66605, 0.19809, -0.70209,
 17:45:29.331,e3:ca:2d:fd:e0:8c, 2015-01-01 04:06:35.225, 1.02, -0.076, 0.036, 0.671, -0.305, -0.061, -64.918, -85.474, -143.828, -26.567, -10.373, -7.527, 31.35, -0.1553, -0.66605, 0.19809, -0.70209,
 17:45:29.331,e3:ca:2d:fd:e0:8c, 2015-01-01 04:06:35.225, 1.02, -0.077, 0.036, 0.488, -0.244, -0.183, -64.869, -85.474, -143.921, -26.567, -10.373, -7.527, 31.35, -0.1553, -0.66605, 0.19809, -0.70209,
 17:45:29.331,e3:ca:2d:fd:e0:8c, 2015-01-01 04:06:35.225, 1.02, -0.076, 0.036, 0.671, -0.305, -0.061, -64.918, -85.474, -143.828, -26.567, -10.373, -7.527, 31.35, -0.1553, -0.66605, 0.19809, -0.70209,
 17:45:29.331,e3:ca:2d:fd:e0:8c, 2015-01-01 04:06:35.225, 1.02, -0.077, 0.036, 0.488, -0.244, -0.183, -64.869, -85.474, -143.921, -26.567, -10.373, -7.527, 31.35, -0.1553, -0.66605, 0.19809, -0.70209,
 17:45:29.333,e3:ca:2d:fd:e0:8c, 2015-01-01 04:06:35.225, 1.019, -0.076, 0.036, 0.671, -0.305, -0.061, -64.918, -85.474, -143.828, -26.567, -10.373, -7.527, 31.35, -0.1553, -0.66605, 0.19809, -0.70209,
 17:45:29.333,e3:ca:2d:fd:e0:8c, 2015-01-01 04:06:35.225, 1.017, -0.076, 0.037, 0.854, -0.305, 0, -64.968, -85.474, -143.74, -26.567, -10.373, -7.527, 31.35, -0.1553, -0.66605, 0.19809, -0.70209,
 17:45:29.333,e3:ca:2d:fd:e0:8c, 2015-01-01 04:06:35.225, 1.019, -0.074, 0.037, 1.099, 0, 0.122, -64.951, -85.468, -143.723, -26.567, -10.373, -7.527, 31.35, -0.1553, -0.66605, 0.19809, -0.70209,
 17:45:29.333,e3:ca:2d:fd:e0:8c, 2015-01-01 04:06:35.225, 1.017, -0.076, 0.037, 0.854, -0.305, 0, -64.968, -85.474, -143.74, -26.567, -10.373, -7.527, 31.35, -0.1553, -0.66605, 0.19809, -0.70209,
 17:45:29.333,e3:ca:2d:fd:e0:8c, 2015-01-01 04:06:35.225, 1.019, -0.074, 0.037, 1.099, 0, 0.122, -64.951, -85.468, -143.723, -26.567, -10.373, -7.527, 31.35, -0.1553, -0.66605, 0.19809, -0.70209,
 17:45:29.333,e3:ca:2d:fd:e0:8c, 2015-01-01 04:06:35.225, 1.017, -0.076, 0.037, 0.854, -0.305, 0, -64.968, -85.474, -143.74, -26.567, -10.373, -7.527, 31.35, -0.1553, -0.66605, 0.19809, -0.70209,
 17:45:29.333,e3:ca:2d:fd:e0:8c, 2015-01-01 04:06:35.225, 1.017, -0.074, 0.037, 1.099, 0, 0.122, -64.951, -85.468, -143.723, -26.567, -10.373, -7.527, 31.35, -0.1553, -0.66605, 0.19809, -0.70209,
 17:45:29.333,e3:ca:2d:fd:e0:8c, 2015-01-01 04:06:35.225, 1.018, -0.072, 0.036, 1.221, 0.488, 0.244, -64.836, -85.463, -143.817, -26.567, -10.373, -7.527, 31.35, -0.1553, -0.66605, 0.19809, -0.70209,
 17:45:29.333,e3:ca:2d:fd:e0:8c, 2015-01-01 04:06:35.225, 1.017, -0.069, 0.035, 1.16, 0.793, 0.122, -64.638, -85.452, -143.987, -26.567, -10.373, -7.527, 31.35, -0.1553, -0.66605, 0.19809, -0.70209,
 17:45:29.333,e3:ca:2d:fd:e0:8c, 2015-01-01 04:06:35.225, 1.018, -0.072, 0.036, 1.221, 0.488, 0.244, -64.836, -85.463, -143.817, -26.567, -10.373, -7.527, 31.35, -0.1553, -0.66605, 0.19809, -0.70209,
 17:45:29.333,e3:ca:2d:fd:e0:8c, 2015-01-01 04:06:35.225, 1.017, -0.069, 0.035, 1.16, 0.793, 0.122, -64.638, -85.452, -143.987, -26.567, -10.373, -7.527, 31.35, -0.1553, -0.66605, 0.19809, -0.70209,
 17:45:29.333,e3:ca:2d:fd:e0:8c, 2015-01-01 04:06:35.225, 1.018, -0.072, 0.036, 1.221, 0.488, 0.244, -64.836, -85.463, -143.817, -26.567, -10.373, -7.527, 31.35, -0.1553, -0.66605, 0.19809, -0.70209,
 17:45:29.335,ed:40:fe:65:30:6c, 2015-01-01 04:06:40.425, 0.593, -0.048, 0.807, 0.366, 0, 0.854, -3.642, -36.172, -127.485, -18.860, -8.480, -7.107, 28.65, -0.4115, 0.29102, 0.11075, 0.85651,
 17:45:29.335,ed:40:fe:65:30:6c, 2015-01-01 04:06:40.425, 0.591, -0.05, 0.805, 0.244, 0.061, 0.854, -3.653, -36.172, -127.458, -18.860, -8.480, -7.107, 28.65, -0.4115, 0.29102, 0.11075, 0.85651,
 17:45:29.335,ed:40:fe:65:30:6c, 2015-01-01 04:06:40.425, 0.593, -0.052, 0.807, 0.061, 0.183, 0.732, -3.658, -36.172, -127.447, -18.860, -8.480, -7.107, 28.65, -0.4115, 0.29102, 0.11075, 0.85651,
 17:45:29.335,ed:40:fe:65:30:6c, 2015-01-01 04:06:40.425, 0.591, -0.05, 0.805, 0.244, 0.061, 0.854, -3.653, -36.172, -127.458, -18.860, -8.480, -7.107, 28.65, -0.4115, 0.29102, 0.11075, 0.85651,
 17:45:29.335,ed:40:fe:65:30:6c, 2015-01-01 04:06:40.425, 0.593, -0.052, 0.807, 0.061, 0.183, 0.732, -3.658, -36.172, -127.447, -18.860, -8.480, -7.107, 28.65, -0.4115, 0.29102, 0.11075, 0.85651,
 17:45:29.335,ed:40:fe:65:30:6c, 2015-01-01 04:06:40.425, 0.591, -0.05, 0.805, 0.244, 0.061, 0.854, -3.653, -36.172, -127.458, -18.860, -8.480, -7.107, 28.65, -0.4115, 0.29102, 0.11075, 0.85651,
 17:45:29.339,ed:35:33:d3:6c:f8, 2015-01-01 04:06:15.965, 0.583, -0.058, 0.803, 0.122, 0.427, 0.549, -4.422, -35.673, 157.978, -15.913, -8.653, -30.873, 27.2, 0.19321, 0.29349, -0.09448, 0.9314,
 17:45:29.339,ed:35:33:d3:6c:f8, 2015-01-01 04:06:15.965, 0.581, -0.059, 0.804, 0.244, 0.61, 0.732, -4.427, -35.667, 157.989, -15.913, -8.653, -30.873, 27.2, 0.19321, 0.29349, -0.09448, 0.9314,
 17:45:29.339,ed:35:33:d3:6c:f8, 2015-01-01 04:06:15.965, 0.583, -0.062, 0.804, 0.366, 0.183, 0.488, -4.427, -35.662, 157.994, -15.913, -8.653, -30.873, 27.2, 0.19321, 0.29349, -0.09448, 0.9314,
 17:45:29.339,ed:35:33:d3:6c:f8, 2015-01-01 04:06:15.965, 0.581, -0.059, 0.804, 0.244, 0.61, 0.732, -4.427, -35.667, 157.989, -15.913, -8.653, -30.873, 27.2, 0.19321, 0.29349, -0.09448, 0.9314,
 17:45:29.339,ed:35:33:d3:6c:f8, 2015-01-01 04:06:15.965, 0.583, -0.062, 0.804, 0.366, 0.183, 0.488, -4.427, -35.662, 157.994, -15.913, -8.653, -30.873, 27.2, 0.19321, 0.29349, -0.09448, 0.9314,
 17:45:29.339,ed:35:33:d3:6c:f8, 2015-01-01 04:06:15.965, 0.581, -0.059, 0.804, 0.244, 0.61, 0.732, -4.427, -35.667, 157.989, -15.913, -8.653, -30.873, 27.2, 0.19321, 0.29349, -0.09448, 0.9314,
 17:45:29.339,ed:35:33:d3:6c:f8, 2015-01-01 04:06:15.965, 0.58, -0.062, 0.804, 0.366, 0.183, 0.488, -4.427, -35.662, 157.994, -15.913, -8.653, -30.873, 27.2, 0.19321, 0.29349, -0.09448, 0.9314,
 17:45:29.339,ed:35:33:d3:6c:f8, 2015-01-01 04:06:15.965, 0.575, -0.062, 0.806, 0.122, 0, 0.671, -4.433, -35.662, 158.027, -15.913, -8.653, -30.873, 27.2, 0.19321, 0.29349, -0.09448, 0.9314,
 17:45:29.339,ed:35:33:d3:6c:f8, 2015-01-01 04:06:15.965, 0.58, -0.062, 0.802, 0.122, 0.122, 0.732, -4.438, -35.656, 158.066, -15.913, -8.653, -30.873, 27.2, 0.19321, 0.29349, -0.09448, 0.9314,
 17:45:29.339,ed:35:33:d3:6c:f8, 2015-01-01 04:06:15.965, 0.575, -0.062, 0.806, 0.122, 0, 0.671, -4.433, -35.662, 158.027, -15.913, -8.653, -30.873, 27.2, 0.19321, 0.29349, -0.09448, 0.9314,
 17:45:29.339,ed:35:33:d3:6c:f8, 2015-01-01 04:06:15.965, 0.58, -0.062, 0.802, 0.122, 0.122, 0.732, -4.438, -35.656, 158.066, -15.913, -8.653, -30.873, 27.2, 0.19321, 0.29349, -0.09448, 0.9314,
 17:45:29.339,ed:35:33:d3:6c:f8, 2015-01-01 04:06:15.965, 0.575, -0.062, 0.806, 0.122, 0, 0.671, -4.433, -35.662, 158.027, -15.913, -8.653, -30.873, 27.2, 0.19321, 0.29349, -0.09448, 0.9314,
 17:45:29.365,ed:40:fe:65:30:6c, 2015-01-01 04:06:40.425, 0.588, -0.052, 0.807, 0.061, 0.183, 0.732, -3.658, -36.172, -127.447, -18.860, -8.480, -7.107, 28.65, -0.41153, 0.29166, 0.11017, 0.85635,
 17:45:29.365,ed:40:fe:65:30:6c, 2015-01-01 04:06:40.425, 0.588, -0.051, 0.806, 0, 0, 0.732, -3.669, -36.172, -127.436, -18.860, -8.480, -7.107, 28.65, -0.41153, 0.29166, 0.11017, 0.85635,
 17:45:29.365,ed:40:fe:65:30:6c, 2015-01-01 04:06:40.425, 0.588, -0.052, 0.808, 0.305, 0.061, 0.61, -3.669, -36.167, -127.425, -18.860, -8.480, -7.107, 28.65, -0.41153, 0.29166, 0.11017, 0.85635,
 17:45:29.365,ed:40:fe:65:30:6c, 2015-01-01 04:06:40.425, 0.588, -0.051, 0.806, 0, 0, 0.732, -3.669, -36.172, -127.436, -18.860, -8.480, -7.107, 28.65, -0.41153, 0.29166, 0.11017, 0.85635,
 17:45:29.365,ed:40:fe:65:30:6c, 2015-01-01 04:06:40.425, 0.588, -0.052, 0.808, 0.305, 0.061, 0.61, -3.669, -36.167, -127.425, -18.860, -8.480, -7.107, 28.65, -0.41153, 0.29166, 0.11017, 0.85635,
 17:45:29.365,ed:40:fe:65:30:6c, 2015-01-01 04:06:40.425, 0.588, -0.051, 0.806, 0, 0, 0.732, -3.669, -36.172, -127.436, -18.860, -8.480, -7.107, 28.65, -0.41153, 0.29166, 0.11017, 0.85635,
 17:45:29.369,ed:35:33:d3:6c:f8, 2015-01-01 04:06:16.320, 0.577, -0.062, 0.802, 0.122, 0.122, 0.732, -4.438, -35.656, 158.066, -15.913, -8.653, -30.873, 27.2, 0.19321, 0.29349, -0.09448, 0.9314,
 17:45:29.369,ed:35:33:d3:6c:f8, 2015-01-01 04:06:16.320, 0.579, -0.063, 0.806, 0.61, 0.366, 0.61, -4.438, -35.651, 158.088, -15.913, -8.653, -30.873, 27.2, 0.19321, 0.29349, -0.09448, 0.9314,
 17:45:29.369,ed:35:33:d3:6c:f8, 2015-01-01 04:06:16.320, 0.577, -0.067, 0.804, 0.549, 0, 0.488, -4.433, -35.651, 158.104, -15.913, -8.653, -30.873, 27.2, 0.19321, 0.29349, -0.09448, 0.9314,
 17:45:29.369,ed:35:33:d3:6c:f8, 2015-01-01 04:06:16.320, 0.579, -0.063, 0.806, 0.61, 0.366, 0.61, -4.438, -35.651, 158.088, -15.913, -8.653, -30.873, 27.2, 0.19321, 0.29349, -0.09448, 0.9314,
 17:45:29.369,ed:35:33:d3:6c:f8, 2015-01-01 04:06:16.320, 0.577, -0.067, 0.804, 0.549, 0, 0.488, -4.433, -35.651, 158.104, -15.913, -8.653, -30.873, 27.2, 0.19321, 0.29349, -0.09448, 0.9314,
 17:45:29.369,ed:35:33:d3:6c:f8, 2015-01-01 04:06:16.320, 0.579, -0.063, 0.806, 0.61, 0.366, 0.61, -4.438, -35.651, 158.088, -15.913, -8.653, -30.873, 27.2, 0.19321, 0.29349, -0.09448, 0.9314,
 17:45:29.372,f6:90:cc:01:6d:25, 2015-01-01 04:06:26.805, 0.925, -0.268, 0.199, 0.916, 0.183, 0.488, -53.52, -70.131, -122.042, -31.340, -6.613, -5.033, 33.05, 0.1275, -0.62732, 0.07397, -0.76462,
 17:45:29.372,f6:90:cc:01:6d:25, 2015-01-01 04:06:26.805, 0.925, -0.265, 0.198, 0.916, 0.122, 0.366, -53.514, -70.12, -122.02, -31.340, -6.613, -5.033, 33.05, 0.1275, -0.62732, 0.07397, -0.76462,
 17:45:29.372,f6:90:cc:01:6d:25, 2015-01-01 04:06:26.805, 0.925, -0.265, 0.199, 0.732, 0, 0.244, -53.503, -70.115, -122.02, -31.340, -6.613, -5.033, 33.05, 0.1275, -0.62732, 0.07397, -0.76462,
 17:45:29.372,f6:90:cc:01:6d:25, 2015-01-01 04:06:26.805, 0.925, -0.265, 0.198, 0.916, 0.122, 0.366, -53.514, -70.12, -122.02, -31.340, -6.613, -5.033, 33.05, 0.1275, -0.62732, 0.07397, -0.76462,
 17:45:29.372,f6:90:cc:01:6d:25, 2015-01-01 04:06:26.805, 0.925, -0.265, 0.199, 0.732, 0, 0.244, -53.503, -70.115, -122.02, -31.340, -6.613, -5.033, 33.05, 0.1275, -0.62732, 0.07397, -0.76462,
 17:45:29.372,f6:90:cc:01:6d:25, 2015-01-01 04:06:26.805, 0.925, -0.265, 0.198, 0.916, 0.122, 0.366, -53.514, -70.12, -122.02, -31.340, -6.613, -5.033, 33.05, 0.1275, -0.62732, 0.07397, -0.76462,
