Time,Device name,Chip Time(),Acceleration X(g),Acceleration Y(g),Acceleration Z(g),Angular velocity X(°/s),Angular velocity Y(°/s),Angular velocity Z(°/s),Angle X(°),Angle Y(°),Angle Z(°),Magnetic field X(ʯt),Magnetic field Y(ʯt),Magnetic field Z(ʯt),Temperature(℃),Quaternions 0(),Quaternions 1(),Quaternions 2(),Quaternions 3()
 12:19:04.134,e3:ca:2d:fd:e0:8c, 2015-01-01 00:05:33.335, 1.008, -0.166, 0.023, 0.183, 0.183, 0, -81.804, -80.535, -130.776, -26.907, -6.653, -7.513, 24.33, 0.14441, 0.65231, -0.25058, 0.70053,
 12:19:04.134,e3:ca:2d:fd:e0:8c, 2015-01-01 00:05:33.335, 1.008, -0.164, 0.023, 0.244, 0.183, 0, -81.782, -80.535, -130.82, -26.907, -6.653, -7.513, 24.33, 0.14441, 0.65231, -0.25058, 0.70053,
 12:19:04.136,ed:35:33:d3:6c:f8, 2015-01-01 00:05:32.935, 0.696, -0.198, 0.681, 0.793, -0.061, 0.366, -16.381, -44.319, 166.756, -19.287, -5.780, -27.027, 30.26, 0.15982, 0.35504, -0.17426, 0.90439,
 12:19:04.136,ed:35:33:d3:6c:f8, 2015-01-01 00:05:32.935, 0.695, -0.196, 0.683, 0.61, 0, 0.122, -16.37, -44.319, 166.767, -19.287, -5.780, -27.027, 30.26, 0.15982, 0.35504, -0.17426, 0.90439,
 12:19:04.157,ed:40:fe:65:30:6c, 2015-01-01 00:05:32.690, 0.495, 0.013, 0.871, 0.488, 0.244, 0.488, 0.406, -29.833, -133.55, -16.753, -10.440, -8.067, 24.13, 0.38199, -0.2352, -0.1048, -0.88751,
 12:19:04.157,ed:40:fe:65:30:6c, 2015-01-01 00:05:32.690, 0.497, 0.013, 0.873, 0.244, 0.305, 0.549, 0.412, -29.828, -133.55, -16.753, -10.440, -8.067, 24.13, 0.38199, -0.2352, -0.1048, -0.88751,
 12:19:04.157,e3:ca:2d:fd:e0:8c, 2015-01-01 00:05:33.715, 1.008, -0.165, 0.023, 0.122, 0.122, 0, -81.76, -80.535, -130.864, -26.907, -6.653, -7.513, 24.33, 0.14441, 0.65231, -0.25058, 0.70053,
 12:19:04.157,e3:ca:2d:fd:e0:8c, 2015-01-01 00:05:33.715, 1.011, -0.166, 0.022, 0.061, 0.061, 0, -81.749, -80.535, -130.897, -26.907, -6.653, -7.513, 24.33, 0.14441, 0.65231, -0.25058, 0.70053,
 12:19:04.159,f6:90:cc:01:6d:25, 2015-01-01 00:05:32.160, 0.899, -0.147, 0.381, 0.305, 0.305, 0, -21.297, -65.528, -146.382, -29.540, -7.673, -9.027, 27.55, 0.14273, -0.55435, -0.00476, -0.81989,
 12:19:04.159,f6:90:cc:01:6d:25, 2015-01-01 00:05:32.160, 0.901, -0.148, 0.382, 0.183, 0.244, 0, -21.286, -65.522, -146.382, -29.540, -7.673, -9.027, 27.55, 0.14273, -0.55435, -0.00476, -0.81989,
 12:19:04.179,ed:40:fe:65:30:6c, 2015-01-01 00:05:32.690, 0.497, 0.014, 0.872, 0.061, 0.183, 0.427, 0.412, -29.822, -133.544, -16.753, -10.440, -8.067, 24.13, 0.38199, -0.2352, -0.1048, -0.88751,
 12:19:04.179,ed:40:fe:65:30:6c, 2015-01-01 00:05:32.690, 0.496, 0.012, 0.873, -0.061, 0.061, 0.305, 0.412, -29.817, -133.544, -16.753, -10.440, -8.067, 24.13, 0.38199, -0.2352, -0.1048, -0.88751,
 12:19:04.181,ed:35:33:d3:6c:f8, 2015-01-01 00:05:32.935, 0.697, -0.196, 0.685, 0.427, 0, 0.305, -16.364, -44.319, 166.794, -19.287, -5.780, -27.027, 30.26, 0.15982, 0.35504, -0.17426, 0.90439,
 12:19:04.181,ed:35:33:d3:6c:f8, 2015-01-01 00:05:32.935, 0.696, -0.196, 0.684, 0.244, 0, 0.244, -16.364, -44.319, 166.805, -19.287, -5.780, -27.027, 30.26, 0.15982, 0.35504, -0.17426, 0.90439,
 12:19:04.201,e3:ca:2d:fd:e0:8c, 2015-01-01 00:05:33.715, 1.01, -0.164, 0.023, 0.061, 0.122, 0, -81.738, -80.535, -130.924, -26.907, -6.653, -7.513, 24.33, 0.14441, 0.65231, -0.25058, 0.70053,
 12:19:04.201,e3:ca:2d:fd:e0:8c, 2015-01-01 00:05:33.715, 1.009, -0.165, 0.022, 0, 0.122, 0, -81.727, -80.535, -130.963, -26.907, -6.653, -7.513, 24.33, 0.14441, 0.65231, -0.25058, 0.70053,
 12:19:04.205,f6:90:cc:01:6d:25, 2015-01-01 00:05:32.160, 0.9, -0.146, 0.383, 0.061, 0.122, 0, -21.281, -65.522, -146.382, -29.540, -7.673, -9.027, 27.55, 0.14273, -0.55435, -0.00476, -0.81989,
 12:19:04.205,f6:90:cc:01:6d:25, 2015-01-01 00:05:32.160, 0.898, -0.148, 0.383, 0, 0.061, 0, -21.281, -65.517, -146.382, -29.540, -7.673, -9.027, 27.55, 0.14273, -0.55435, -0.00476, -0.81989,
 12:19:04.246,e3:ca:2d:fd:e0:8c, 2015-01-01 00:05:33.715, 1.008, -0.166, 0.023, 0, 0.122, 0, -81.716, -80.535, -130.995, -26.907, -6.653, -7.513, 24.33, 0.14441, 0.65231, -0.25058, 0.70053,
 12:19:04.246,e3:ca:2d:fd:e0:8c, 2015-01-01 00:05:33.715, 1.008, -0.166, 0.024, 0, 0.061, 0, -81.711, -80.535, -131.028, -26.907, -6.653, -7.513, 24.33, 0.14441, 0.65231, -0.25058, 0.70053,
 12:19:04.247,ed:40:fe:65:30:6c, 2015-01-01 00:05:32.690, 0.495, 0.011, 0.873, -0.061, 0.061, 0.061, 0.417, -29.817, -133.555, -16.753, -10.440, -8.067, 24.13, 0.38199, -0.2352, -0.1048, -0.88751,
 12:19:04.247,ed:40:fe:65:30:6c, 2015-01-01 00:05:32.690, 0.495, 0.012, 0.871, 0, 0, 0, 0.417, -29.811, -133.572, -16.753, -10.440, -8.067, 24.13, 0.38199, -0.2352, -0.1048, -0.88751,
 12:19:04.248,ed:35:33:d3:6c:f8, 2015-01-01 00:05:32.935, 0.694, -0.2, 0.684, -0.061, 0, 0.183, -16.364, -44.319, 166.794, -19.287, -5.780, -27.027, 30.26, 0.15982, 0.35504, -0.17426, 0.90439,
 12:19:04.248,ed:35:33:d3:6c:f8, 2015-01-01 00:05:32.935, 0.694, -0.199, 0.684, -0.122, 0, 0, -16.364, -44.319, 166.778, -19.287, -5.780, -27.027, 30.26, 0.15982, 0.35504, -0.17426, 0.90439,
 12:19:04.249,f6:90:cc:01:6d:25, 2015-01-01 00:05:32.160, 0.899, -0.149, 0.383, 0.061, 0, 0, -21.281, -65.517, -146.376, -29.540, -7.673, -9.027, 27.55, 0.14273, -0.55435, -0.00476, -0.81989,
 12:19:04.249,f6:90:cc:01:6d:25, 2015-01-01 00:05:32.160, 0.898, -0.148, 0.384, 0.061, 0, 0, -21.275, -65.517, -146.376, -29.540, -7.673, -9.027, 27.55, 0.14273, -0.55435, -0.00476, -0.81989,
 12:19:04.270,e3:ca:2d:fd:e0:8c, 2015-01-01 00:05:33.715, 1.007, -0.166, 0.025, 0, 0.061, 0, -81.705, -80.535, -131.056, -26.907, -6.653, -7.513, 24.33, 0.14441, 0.65231, -0.25058, 0.70053,
 12:19:04.270,e3:ca:2d:fd:e0:8c, 2015-01-01 00:05:33.715, 1.007, -0.166, 0.025, 0, 0, 0, -81.7, -80.535, -131.083, -26.907, -6.653, -7.513, 24.33, 0.14441, 0.65231, -0.25058, 0.70053,
 12:19:04.270,ed:40:fe:65:30:6c, 2015-01-01 00:05:32.690, 0.494, 0.014, 0.872, 0, -0.061, 0, 0.423, -29.811, -133.588, -16.507, -10.587, -7.247, 24.13, 0.38199, -0.2352, -0.1048, -0.88751,
 12:19:04.270,ed:40:fe:65:30:6c, 2015-01-01 00:05:32.690, 0.494, 0.014, 0.871, -0.122, -0.061, 0, 0.428, -29.811, -133.599, -16.507, -10.587, -7.247, 24.13, 0.38199, -0.2352, -0.1048, -0.88751,
 12:19:04.271,ed:35:33:d3:6c:f8, 2015-01-01 00:05:32.935, 0.694, -0.197, 0.682, -0.122, 0, -0.061, -16.364, -44.319, 166.767, -19.613, -5.900, -27.333, 30.26, 0.15982, 0.35504, -0.17426, 0.90439,
 12:19:04.271,ed:35:33:d3:6c:f8, 2015-01-01 00:05:32.935, 0.694, -0.195, 0.682, -0.244, 0, -0.061, -16.364, -44.324, 166.767, -19.613, -5.900, -27.333, 30.26, 0.15982, 0.35504, -0.17426, 0.90439,
 12:19:04.295,f6:90:cc:01:6d:25, 2015-01-01 00:05:32.160, 0.897, -0.149, 0.383, 0.122, 0, -0.061, -21.275, -65.517, -146.376, -29.860, -7.720, -9.393, 27.55, 0.14273, -0.55435, -0.00476, -0.81989,
 12:19:04.295,f6:90:cc:01:6d:25, 2015-01-01 00:05:32.160, 0.898, -0.15, 0.384, 0, 0.122, 0, -21.27, -65.517, -146.376, -29.860, -7.720, -9.393, 27.55, 0.14273, -0.55435, -0.00476, -0.81989,
 12:19:04.315,ed:40:fe:65:30:6c, 2015-01-01 00:05:32.690, 0.495, 0.012, 0.871, -0.244, -0.061, 0, 0.428, -29.811, -133.599, -16.507, -10.587, -7.247, 24.13, 0.38199, -0.2352, -0.1048, -0.88751,
 12:19:04.315,ed:40:fe:65:30:6c, 2015-01-01 00:05:32.690, 0.496, 0.013, 0.871, -0.305, -0.061, 0, 0.428, -29.811, -133.599, -16.507, -10.587, -7.247, 24.13, 0.38199, -0.2352, -0.1048, -0.88751,
 12:19:04.316,ed:35:33:d3:6c:f8, 2015-01-01 00:05:32.935, 0.694, -0.195, 0.683, -0.305, 0.061, -0.061, -16.364, -44.324, 166.745, -19.613, -5.900, -27.333, 30.26, 0.15982, 0.35504, -0.17426, 0.90439,
 12:19:04.316,ed:35:33:d3:6c:f8, 2015-01-01 00:05:32.935, 0.695, -0.195, 0.682, -0.305, 0.061, 0, -16.37, -44.324, 166.723, -19.613, -5.900, -27.333, 30.26, 0.15982, 0.35504, -0.17426, 0.90439,
 12:19:04.318,f6:90:cc:01:6d:25, 2015-01-01 00:05:32.160, 0.9, -0.15, 0.384, 0, 0.122, 0, -21.264, -65.511, -146.371, -29.860, -7.720, -9.393, 27.55, 0.14346, -0.55392, -0.00525, -0.82004,
 12:19:04.318,f6:90:cc:01:6d:25, 2015-01-01 00:05:32.160, 0.9, -0.15, 0.383, 0.061, 0.061, 0, -21.264, -65.511, -146.371, -29.860, -7.720, -9.393, 27.55, 0.14346, -0.55392, -0.00525, -0.82004,
 12:19:04.337,e3:ca:2d:fd:e0:8c, 2015-01-01 00:05:33.715, 1.009, -0.167, 0.025, 0, 0, 0, -81.7, -80.535, -131.1, -26.907, -6.653, -7.513, 24.33, 0.14441, 0.65231, -0.25058, 0.70053,
 12:19:04.337,e3:ca:2d:fd:e0:8c, 2015-01-01 00:05:33.715, 1.009, -0.167, 0.024, 0, 0, 0, -81.7, -80.535, -131.122, -26.907, -6.653, -7.513, 24.33, 0.14441, 0.65231, -0.25058, 0.70053,
 12:19:04.339,ed:35:33:d3:6c:f8, 2015-01-01 00:05:32.935, 0.697, -0.194, 0.682, -0.488, 0.061, 0, -16.375, -44.319, 166.701, -19.613, -5.900, -27.333, 30.26, 0.15933, 0.35562, -0.17413, 0.90427,
 12:19:04.339,ed:35:33:d3:6c:f8, 2015-01-01 00:05:32.935, 0.696, -0.192, 0.683, -0.61, 0, 0.122, -16.381, -44.324, 166.679, -19.613, -5.900, -27.333, 30.26, 0.15933, 0.35562, -0.17413, 0.90427,
 12:19:04.359,e3:ca:2d:fd:e0:8c, 2015-01-01 00:05:33.715, 1.009, -0.167, 0.023, 0.061, 0, 0, -81.7, -80.535, -131.138, -26.653, -6.967, -7.687, 24.33, 0.14441, 0.65231, -0.25058, 0.70053,
 12:19:04.359,e3:ca:2d:fd:e0:8c, 2015-01-01 00:05:33.715, 1.01, -0.167, 0.023, 0, 0, 0, -81.7, -80.535, -131.16, -26.653, -6.967, -7.687, 24.33, 0.14441, 0.65231, -0.25058, 0.70053,
 12:19:04.362,f6:90:cc:01:6d:25, 2015-01-01 00:05:32.160, 0.9, -0.149, 0.383, 0.122, 0.061, 0, -21.264, -65.506, -146.371, -29.860, -7.720, -9.393, 27.55, 0.14346, -0.55392, -0.00525, -0.82004,
 12:19:04.362,f6:90:cc:01:6d:25, 2015-01-01 00:05:32.160, 0.9, -0.149, 0.383, 0.122, 0, 0, -21.259, -65.506, -146.365, -29.860, -7.720, -9.393, 27.55, 0.14346, -0.55392, -0.00525, -0.82004,
 12:19:04.382,ed:40:fe:65:30:6c, 2015-01-01 00:05:32.690, 0.497, 0.016, 0.872, -0.488, -0.061, 0.061, 0.423, -29.806, -133.594, -16.507, -10.587, -7.247, 24.13, 0.38156, -0.23499, -0.10464, -0.88779,
 12:19:04.382,ed:40:fe:65:30:6c, 2015-01-01 00:05:32.690, 0.497, 0.014, 0.872, -0.549, 0, 0.183, 0.417, -29.806, -133.588, -16.507, -10.587, -7.247, 24.13, 0.38156, -0.23499, -0.10464, -0.88779,
 12:19:04.383,ed:35:33:d3:6c:f8, 2015-01-01 00:05:32.935, 0.696, -0.197, 0.682, -0.732, 0.061, 0.305, -16.397, -44.319, 166.679, -19.613, -5.900, -27.333, 30.26, 0.15933, 0.35562, -0.17413, 0.90427,
 12:19:04.383,ed:35:33:d3:6c:f8, 2015-01-01 00:05:32.935, 0.696, -0.2, 0.682, -0.854, 0, 0.427, -16.419, -44.319, 166.685, -19.613, -5.900, -27.333, 30.26, 0.15933, 0.35562, -0.17413, 0.90427,
 12:19:04.404,e3:ca:2d:fd:e0:8c, 2015-01-01 00:05:33.715, 1.009, -0.167, 0.022, 0, 0, 0, -81.705, -80.535, -131.177, -26.653, -6.967, -7.687, 24.33, 0.14441, 0.65231, -0.25058, 0.70053,
 12:19:04.404,e3:ca:2d:fd:e0:8c, 2015-01-01 00:05:33.715, 1.009, -0.167, 0.022, 0, 0, 0, -81.705, -80.535, -131.193, -26.653, -6.967, -7.687, 24.33, 0.14441, 0.65231, -0.25058, 0.70053,
 12:19:04.404,ed:40:fe:65:30:6c, 2015-01-01 00:05:33.045, 0.498, 0.009, 0.871, -0.488, -0.122, 0.183, 0.412, -29.806, -133.583, -16.507, -10.587, -7.247, 24.13, 0.38156, -0.23499, -0.10464, -0.88779,
 12:19:04.404,ed:40:fe:65:30:6c, 2015-01-01 00:05:33.045, 0.496, 0.011, 0.871, -0.488, -0.244, 0.183, 0.406, -29.806, -133.588, -16.507, -10.587, -7.247, 24.13, 0.38156, -0.23499, -0.10464, -0.88779,
 12:19:04.408,f6:90:cc:01:6d:25, 2015-01-01 00:05:32.450, 0.899, -0.149, 0.381, 0.061, 0, 0, -21.259, -65.506, -146.365, -29.860, -7.720, -9.393, 27.55, 0.14346, -0.55392, -0.00525, -0.82004,
 12:19:04.408,f6:90:cc:01:6d:25, 2015-01-01 00:05:32.450, 0.899, -0.147, 0.381, 0.061, -0.061, 0, -21.259, -65.506, -146.36, -29.860, -7.720, -9.393, 27.55, 0.14346, -0.55392, -0.00525, -0.82004,
 12:19:04.426,e3:ca:2d:fd:e0:8c, 2015-01-01 00:05:33.715, 1.009, -0.166, 0.022, 0, 0, 0, -81.711, -80.535, -131.215, -26.653, -6.967, -7.687, 24.33, 0.14661, 0.6514, -0.25253, 0.70023,
 12:19:04.426,e3:ca:2d:fd:e0:8c, 2015-01-01 00:05:33.715, 1.009, -0.166, 0.023, 0.061, 0, 0, -81.711, -80.535, -131.232, -26.653, -6.967, -7.687, 24.33, 0.14661, 0.6514, -0.25253, 0.70023,
 12:19:04.426,ed:40:fe:65:30:6c, 2015-01-01 00:05:33.045, 0.497, 0.015, 0.871, -0.61, -0.122, 0.122, 0.396, -29.811, -133.594, -16.507, -10.587, -7.247, 24.13, 0.38156, -0.23499, -0.10464, -0.88779,
 12:19:04.426,ed:40:fe:65:30:6c, 2015-01-01 00:05:33.045, 0.497, 0.015, 0.871, -0.732, -0.244, 0.122, 0.39, -29.811, -133.594, -16.507, -10.587, -7.247, 24.13, 0.38156, -0.23499, -0.10464, -0.88779,
 12:19:04.428,ed:35:33:d3:6c:f8, 2015-01-01 00:05:33.290, 0.696, -0.198, 0.682, -1.038, 0, 0.305, -16.441, -44.319, 166.69, -19.613, -5.900, -27.333, 30.26, 0.15933, 0.35562, -0.17413, 0.90427,
 12:19:04.428,ed:35:33:d3:6c:f8, 2015-01-01 00:05:33.290, 0.696, -0.195, 0.681, -1.038, 0, 0.183, -16.463, -44.319, 166.674, -19.613, -5.900, -27.333, 30.26, 0.15933, 0.35562, -0.17413, 0.90427,
 12:19:04.451,f6:90:cc:01:6d:25, 2015-01-01 00:05:32.450, 0.899, -0.147, 0.382, 0.061, 0, 0, -21.259, -65.506, -146.36, -29.860, -7.720, -9.393, 27.55, 0.14346, -0.55392, -0.00525, -0.82004,
 12:19:04.451,f6:90:cc:01:6d:25, 2015-01-01 00:05:32.450, 0.899, -0.147, 0.382, 0, -0.061, 0, -21.259, -65.506, -146.354, -29.860, -7.720, -9.393, 27.55, 0.14346, -0.55392, -0.00525, -0.82004,
 12:19:04.471,e3:ca:2d:fd:e0:8c, 2015-01-01 00:05:33.715, 1.008, -0.166, 0.024, 0, 0, 0, -81.716, -80.535, -131.248, -26.653, -6.967, -7.687, 24.33, 0.14661, 0.6514, -0.25253, 0.70023,
 12:19:04.471,e3:ca:2d:fd:e0:8c, 2015-01-01 00:05:33.715, 1.009, -0.165, 0.024, 0.061, 0, 0, -81.716, -80.535, -131.265, -26.653, -6.967, -7.687, 24.33, 0.14661, 0.6514, -0.25253, 0.70023,
 12:19:04.472,ed:40:fe:65:30:6c, 2015-01-01 00:05:33.045, 0.498, 0.015, 0.869, -0.671, -0.183, 0.183, 0.379, -29.817, -133.594, -16.507, -10.587, -7.247, 24.13, 0.38156, -0.23499, -0.10464, -0.88779,
 12:19:04.472,ed:40:fe:65:30:6c, 2015-01-01 00:05:33.045, 0.497, 0.014, 0.869, -0.488, -0.061, 0.305, 0.368, -29.817, -133.599, -16.507, -10.587, -7.247, 24.13, 0.38156, -0.23499, -0.10464, -0.88779,
 12:19:04.473,ed:35:33:d3:6c:f8, 2015-01-01 00:05:33.290, 0.697, -0.194, 0.68, -1.038, -0.061, 0.183, -16.479, -44.319, 166.646, -19.613, -5.900, -27.333, 30.26, 0.15933, 0.35562, -0.17413, 0.90427,
 12:19:04.473,ed:35:33:d3:6c:f8, 2015-01-01 00:05:33.290, 0.697, -0.195, 0.679, -0.793, -0.061, 0.305, -16.496, -44.319, 166.624, -19.613, -5.900, -27.333, 30.26, 0.15933, 0.35562, -0.17413, 0.90427,
 12:19:04.497,f6:90:cc:01:6d:25, 2015-01-01 00:05:32.450, 0.899, -0.148, 0.383, 0.061, -0.061, 0, -21.259, -65.506, -146.349, -29.860, -7.720, -9.393, 27.55, 0.14346, -0.55392, -0.00525, -0.82004,
 12:19:04.497,f6:90:cc:01:6d:25, 2015-01-01 00:05:32.450, 0.9, -0.148, 0.382, 0.183, 0, 0, -21.253, -65.506, -146.349, -29.860, -7.720, -9.393, 27.55, 0.14346, -0.55392, -0.00525, -0.82004,
 12:19:04.515,e3:ca:2d:fd:e0:8c, 2015-01-01 00:05:34.050, 1.009, -0.166, 0.024, 0.122, 0, 0, -81.716, -80.535, -131.281, -26.653, -6.967, -7.687, 24.33, 0.14661, 0.6514, -0.25253, 0.70023,
 12:19:04.515,e3:ca:2d:fd:e0:8c, 2015-01-01 00:05:34.050, 1.009, -0.166, 0.023, 0.122, 0, 0, -81.716, -80.535, -131.298, -26.653, -6.967, -7.687, 24.33, 0.14661, 0.6514, -0.25253, 0.70023,
 12:19:04.517,ed:40:fe:65:30:6c, 2015-01-01 00:05:33.045, 0.498, 0.013, 0.869, -0.244, 0, 0.366, 0.363, -29.817, -133.61, -16.507, -10.587, -7.247, 24.13, 0.38156, -0.23499, -0.10464, -0.88779,
 12:19:04.517,ed:40:fe:65:30:6c, 2015-01-01 00:05:33.045, 0.497, 0.014, 0.87, -0.427, 0, 0.366, 0.363, -29.811, -133.616, -16.507, -10.587, -7.247, 24.13, 0.38156, -0.23499, -0.10464, -0.88779,
 12:19:04.519,f6:90:cc:01:6d:25, 2015-01-01 00:05:32.450, 0.9, -0.147, 0.383, 0.244, 0, 0, -21.248, -65.506, -146.343, -29.860, -7.720, -9.393, 27.55, 0.14346, -0.55392, -0.00525, -0.82004,
 12:19:04.519,f6:90:cc:01:6d:25, 2015-01-01 00:05:32.450, 0.899, -0.147, 0.382, 0.183, 0, 0, -21.248, -65.506, -146.343, -29.860, -7.720, -9.393, 27.55, 0.14346, -0.55392, -0.00525, -0.82004,
 12:19:04.540,ed:40:fe:65:30:6c, 2015-01-01 00:05:33.045, 0.498, 0.014, 0.87, -0.427, 0, 0.366, 0.357, -29.811, -133.627, -16.507, -10.587, -7.247, 24.13, 0.38156, -0.23499, -0.10464, -0.88779,
 12:19:04.540,ed:40:fe:65:30:6c, 2015-01-01 00:05:33.045, 0.498, 0.009, 0.87, -0.122, 0.061, 0.366, 0.352, -29.811, -133.632, -16.507, -10.587, -7.247, 24.13, 0.38156, -0.23499, -0.10464, -0.88779,
 12:19:04.541,ed:35:33:d3:6c:f8, 2015-01-01 00:05:33.290, 0.697, -0.197, 0.679, -0.671, -0.061, 0.366, -16.512, -44.324, 166.613, -19.613, -5.900, -27.333, 30.26, 0.15933, 0.35562, -0.17413, 0.90427,
 12:19:04.541,ed:35:33:d3:6c:f8, 2015-01-01 00:05:33.290, 0.697, -0.198, 0.678, -0.61, -0.061, 0.305, -16.523, -44.324, 166.613, -19.613, -5.900, -27.333, 30.26, 0.15933, 0.35562, -0.17413, 0.90427,
 12:19:04.560,e3:ca:2d:fd:e0:8c, 2015-01-01 00:05:34.050, 1.009, -0.165, 0.023, 0.122, 0, 0, -81.716, -80.541, -131.32, -26.653, -6.967, -7.687, 24.33, 0.14661, 0.6514, -0.25253, 0.70023,
 12:19:04.560,e3:ca:2d:fd:e0:8c, 2015-01-01 00:05:34.050, 1.008, -0.166, 0.023, 0.061, 0, 0, -81.716, -80.541, -131.336, -26.653, -6.967, -7.687, 24.33, 0.14661, 0.6514, -0.25253, 0.70023,
 12:19:04.564,ed:35:33:d3:6c:f8, 2015-01-01 00:05:33.290, 0.697, -0.195, 0.68, -0.61, 0.122, 0.183, -16.534, -44.324, 166.613, -19.613, -5.900, -27.333, 30.26, 0.15933, 0.35562, -0.17413, 0.90427,
 12:19:04.564,ed:35:33:d3:6c:f8, 2015-01-01 00:05:33.290, 0.696, -0.198, 0.679, -0.488, 0.183, 0.305, -16.545, -44.319, 166.619, -19.613, -5.900, -27.333, 30.26, 0.15933, 0.35562, -0.17413, 0.90427,
 12:19:04.565,f6:90:cc:01:6d:25, 2015-01-01 00:05:32.450, 0.899, -0.148, 0.382, 0.183, 0, 0, -21.242, -65.506, -146.338, -29.860, -7.720, -9.393, 27.55, 0.14346, -0.55392, -0.00525, -0.82004,
 12:19:04.565,f6:90:cc:01:6d:25, 2015-01-01 00:05:32.450, 0.899, -0.149, 0.382, 0.122, 0, 0, -21.237, -65.506, -146.338, -29.860, -7.720, -9.393, 27.55, 0.14346, -0.55392, -0.00525, -0.82004,
 12:19:04.585,ed:40:fe:65:30:6c, 2015-01-01 00:05:33.045, 0.497, 0.009, 0.87, 0, 0, 0.305, 0.352, -29.811, -133.638, -16.507, -10.587, -7.247, 24.13, 0.38156, -0.23499, -0.10464, -0.88779,
 12:19:04.585,ed:40:fe:65:30:6c, 2015-01-01 00:05:33.045, 0.496, 0.01, 0.87, 0.061, 0.122, 0.244, 0.357, -29.806, -133.649, -16.507, -10.587, -7.247, 24.13, 0.38156, -0.23499, -0.10464, -0.88779,
 12:19:04.586,ed:35:33:d3:6c:f8, 2015-01-01 00:05:33.290, 0.695, -0.202, 0.679, -0.305, 0.122, 0.366, -16.551, -44.319, 166.63, -19.613, -5.900, -27.333, 30.26, 0.15933, 0.35562, -0.17413, 0.90427,
 12:19:04.586,ed:35:33:d3:6c:f8, 2015-01-01 00:05:33.290, 0.695, -0.201, 0.679, -0.366, 0.183, 0.244, -16.562, -44.313, 166.63, -19.613, -5.900, -27.333, 30.26, 0.15933, 0.35562, -0.17413, 0.90427,
 12:19:04.629,e3:ca:2d:fd:e0:8c, 2015-01-01 00:05:34.050, 1.008, -0.167, 0.023, 0.061, 0, 0, -81.716, -80.541, -131.353, -26.653, -6.967, -7.687, 24.33, 0.14661, 0.6514, -0.25253, 0.70023,
 12:19:04.629,e3:ca:2d:fd:e0:8c, 2015-01-01 00:05:34.050, 1.008, -0.167, 0.023, 0.122, 0, 0, -81.716, -80.541, -131.364, -26.653, -6.967, -7.687, 24.33, 0.14661, 0.6514, -0.25253, 0.70023,
 12:19:04.632,f6:90:cc:01:6d:25, 2015-01-01 00:05:32.450, 0.899, -0.149, 0.381, 0.244, 0, 0, -21.231, -65.506, -146.338, -29.487, -7.993, -9.727, 27.55, 0.14346, -0.55392, -0.00525, -0.82004,
 12:19:04.632,f6:90:cc:01:6d:25, 2015-01-01 00:05:32.450, 0.899, -0.148, 0.382, 0.305, 0, 0, -21.226, -65.506, -146.332, -29.487, -7.993, -9.727, 27.55, 0.14346, -0.55392, -0.00525, -0.82004,
 12:19:04.652,e3:ca:2d:fd:e0:8c, 2015-01-01 00:05:34.050, 1.008, -0.167, 0.023, 0.061, 0, 0, -81.722, -80.541, -131.38, -26.653, -6.967, -7.687, 24.33, 0.14661, 0.6514, -0.25253, 0.70023,
 12:19:04.652,e3:ca:2d:fd:e0:8c, 2015-01-01 00:05:34.050, 1.009, -0.167, 0.023, 0, 0, 0, -81.722, -80.541, -131.396, -26.653, -6.967, -7.687, 24.33, 0.14661, 0.6514, -0.25253, 0.70023,
 12:19:04.652,ed:40:fe:65:30:6c, 2015-01-01 00:05:33.045, 0.496, 0.012, 0.87, 0, 0.061, 0.122, 0.357, -29.806, -133.66, -16.480, -10.267, -8.053, 24.13, 0.38156, -0.23499, -0.10464, -0.88779,
 12:19:04.652,ed:40:fe:65:30:6c, 2015-01-01 00:05:33.045, 0.497, 0.012, 0.871, 0, 0.061, 0.122, 0.363, -29.8, -133.671, -16.480, -10.267, -8.053, 24.13, 0.38156, -0.23499, -0.10464, -0.88779,
 12:19:04.655,ed:35:33:d3:6c:f8, 2015-01-01 00:05:33.290, 0.695, -0.199, 0.679, 0, 0.244, 0.061, -16.556, -44.313, 166.624, -19.613, -5.900, -27.333, 30.26, 0.15933, 0.35562, -0.17413, 0.90427,
 12:19:04.655,ed:35:33:d3:6c:f8, 2015-01-01 00:05:33.290, 0.696, -0.199, 0.68, -0.183, 0.305, 0, -16.556, -44.308, 166.619, -19.613, -5.900, -27.333, 30.26, 0.15933, 0.35562, -0.17413, 0.90427,
 12:19:04.677,f6:90:cc:01:6d:25, 2015-01-01 00:05:32.450, 0.899, -0.149, 0.382, 0.244, 0, 0, -21.22, -65.506, -146.332, -29.487, -7.993, -9.727, 27.55, 0.14346, -0.55392, -0.00525, -0.82004,
 12:19:04.677,f6:90:cc:01:6d:25, 2015-01-01 00:05:32.450, 0.9, -0.151, 0.383, 0.122, 0, 0, -21.22, -65.506, -146.327, -29.487, -7.993, -9.727, 27.55, 0.14346, -0.55392, -0.00525, -0.82004,
 12:19:04.696,ed:40:fe:65:30:6c, 2015-01-01 00:05:33.045, 0.496, 0.01, 0.872, -0.061, 0, 0.122, 0.368, -29.8, -133.682, -16.480, -10.267, -8.053, 24.13, 0.38077, -0.2352, -0.10397, -0.88812,
 12:19:04.696,ed:40:fe:65:30:6c, 2015-01-01 00:05:33.045, 0.496, 0.01, 0.874, -0.061, 0.061, 0.183, 0.368, -29.8, -133.693, -16.480, -10.267, -8.053, 24.13, 0.38077, -0.2352, -0.10397, -0.88812,
 12:19:04.699,ed:35:33:d3:6c:f8, 2015-01-01 00:05:33.290, 0.696, -0.199, 0.682, -0.244, 0.183, 0, -16.556, -44.308, 166.613, -19.560, -5.740, -27.193, 30.26, 0.15933, 0.35562, -0.17413, 0.90427,
 12:19:04.699,ed:35:33:d3:6c:f8, 2015-01-01 00:05:33.290, 0.695, -0.201, 0.683, -0.427, 0.183, 0.061, -16.562, -44.308, 166.624, -19.560, -5.740, -27.193, 30.26, 0.15933, 0.35562, -0.17413, 0.90427,
 12:19:04.719,e3:ca:2d:fd:e0:8c, 2015-01-01 00:05:34.050, 1.009, -0.167, 0.023, 0, 0, 0, -81.727, -80.541, -131.413, -26.653, -6.967, -7.687, 24.33, 0.14661, 0.6514, -0.25253, 0.70023,
 12:19:04.719,e3:ca:2d:fd:e0:8c, 2015-01-01 00:05:34.050, 1.008, -0.168, 0.023, 0, 0, 0, -81.727, -80.541, -131.429, -26.653, -6.967, -7.687, 24.33, 0.14661, 0.6514, -0.25253, 0.70023,
 12:19:04.722,f6:90:cc:01:6d:25, 2015-01-01 00:05:32.450, 0.899, -0.152, 0.384, 0.122, 0, 0, -21.22, -65.5, -146.327, -29.487, -7.993, -9.727, 27.55, 0.14401, -0.5538, -0.00577, -0.82001,
 12:19:04.722,f6:90:cc:01:6d:25, 2015-01-01 00:05:32.450, 0.898, -0.15, 0.383, 0.183, 0, 0, -21.215, -65.5, -146.321, -29.487, -7.993, -9.727, 27.55, 0.14401, -0.5538, -0.00577, -0.82001,
 12:19:04.741,e3:ca:2d:fd:e0:8c, 2015-01-01 00:05:34.050, 1.008, -0.167, 0.023, 0.061, 0, 0, -81.733, -80.541, -131.446, -26.540, -6.667, -8.160, 24.33, 0.14661, 0.6514, -0.25253, 0.70023,
 12:19:04.741,e3:ca:2d:fd:e0:8c, 2015-01-01 00:05:34.050, 1.008, -0.167, 0.024, 0, 0, 0, -81.733, -80.541, -131.462, -26.540, -6.667, -8.160, 24.33, 0.14661, 0.6514, -0.25253, 0.70023,
 12:19:04.742,ed:40:fe:65:30:6c, 2015-01-01 00:05:33.045, 0.496, 0.011, 0.872, 0, 0, 0.183, 0.368, -29.8, -133.704, -16.480, -10.267, -8.053, 24.13, 0.38077, -0.2352, -0.10397, -0.88812,
 12:19:04.742,ed:40:fe:65:30:6c, 2015-01-01 00:05:33.045, 0.496, 0.009, 0.871, -0.183, -0.061, 0.183, 0.368, -29.795, -133.715, -16.480, -10.267, -8.053, 24.13, 0.38077, -0.2352, -0.10397, -0.88812,
 12:19:04.745,ed:35:33:d3:6c:f8, 2015-01-01 00:05:33.290, 0.696, -0.2, 0.683, -0.366, 0.183, 0.122, -16.567, -44.302, 166.63, -19.560, -5.740, -27.193, 30.26, 0.15933, 0.35562, -0.17413, 0.90427,
 12:19:04.745,ed:35:33:d3:6c:f8, 2015-01-01 00:05:33.290, 0.694, -0.2, 0.682, -0.366, 0.244, 0.183, -16.573, -44.302, 166.624, -19.560, -5.740, -27.193, 30.26, 0.15933, 0.35562, -0.17413, 0.90427,
 12:19:04.745,f6:90:cc:01:6d:25, 2015-01-01 00:05:32.450, 0.898, -0.15, 0.382, 0.183, 0, 0, -21.215, -65.5, -146.321, -29.487, -7.993, -9.727, 27.55, 0.14401, -0.5538, -0.00577, -0.82001,
 12:19:04.745,f6:90:cc:01:6d:25, 2015-01-01 00:05:32.450, 0.899, -0.149, 0.382, 0.122, 0, 0, -21.215, -65.5, -146.316, -29.487, -7.993, -9.727, 27.55, 0.14401, -0.5538, -0.00577, -0.82001,
 12:19:04.764,ed:40:fe:65:30:6c, 2015-01-01 00:05:33.380, 0.498, 0.011, 0.871, -0.427, -0.061, 0.122, 0.363, -29.795, -133.726, -16.480, -10.267, -8.053, 24.13, 0.38077, -0.2352, -0.10397, -0.88812,
 12:19:04.764,ed:40:fe:65:30:6c, 2015-01-01 00:05:33.380, 0.497, 0.01, 0.87, -0.305, 0, 0.061, 0.363, -29.795, -133.737, -16.480, -10.267, -8.053, 24.13, 0.38077, -0.2352, -0.10397, -0.88812,
 12:19:04.766,ed:35:33:d3:6c:f8, 2015-01-01 00:05:33.290, 0.694, -0.201, 0.681, -0.671, 0, 0.305, -16.589, -44.302, 166.635, -19.560, -5.740, -27.193, 30.26, 0.16068, 0.35501, -0.17606, 0.9039,
 12:19:04.766,ed:35:33:d3:6c:f8, 2015-01-01 00:05:33.290, 0.696, -0.201, 0.68, -0.977, 0.122, 0.122, -16.606, -44.297, 166.646, -19.560, -5.740, -27.193, 30.26, 0.16068, 0.35501, -0.17606, 0.9039,
 12:19:04.768,f6:90:cc:01:6d:25, 2015-01-01 00:05:32.830, 0.9, -0.15, 0.383, 0.305, -0.122, 0, -21.215, -65.5, -146.316, -29.487, -7.993, -9.727, 27.55, 0.14401, -0.5538, -0.00577, -0.82001,
 12:19:04.768,f6:90:cc:01:6d:25, 2015-01-01 00:05:32.830, 0.896, -0.154, 0.381, 0.427, 0, 0, -21.209, -65.5, -146.31, -29.487, -7.993, -9.727, 27.55, 0.14401, -0.5538, -0.00577, -0.82001,
 12:19:04.786,e3:ca:2d:fd:e0:8c, 2015-01-01 00:05:34.050, 1.01, -0.167, 0.024, 0, 0, 0, -81.738, -80.535, -131.473, -26.540, -6.667, -8.160, 24.33, 0.14661, 0.6514, -0.25253, 0.70023,
 12:19:04.786,e3:ca:2d:fd:e0:8c, 2015-01-01 00:05:34.050, 1.007, -0.168, 0.023, 0, 0, 0, -81.738, -80.535, -131.49, -26.540, -6.667, -8.160, 24.33, 0.14661, 0.6514, -0.25253, 0.70023,
 12:19:04.789,ed:40:fe:65:30:6c, 2015-01-01 00:05:33.380, 0.492, 0.008, 0.868, -0.122, 0, 0.122, 0.363, -29.795, -133.748, -16.480, -10.267, -8.053, 24.13, 0.38077, -0.2352, -0.10397, -0.88812,
 12:19:04.789,ed:40:fe:65:30:6c, 2015-01-01 00:05:33.380, 0.494, 0.014, 0.867, -0.244, 0.122, 0.122, 0.357, -29.789, -133.759, -16.480, -10.267, -8.053, 24.13, 0.38077, -0.2352, -0.10397, -0.88812,
 12:19:04.809,e3:ca:2d:fd:e0:8c, 2015-01-01 00:05:34.050, 1.003, -0.167, 0.024, 0, 0, 0, -81.738, -80.535, -131.506, -26.540, -6.667, -8.160, 24.33, 0.14871, 0.65067, -0.25449, 0.69974,
 12:19:04.809,e3:ca:2d:fd:e0:8c, 2015-01-01 00:05:34.050, 1.009, -0.166, 0.025, 0, -0.061, 0, -81.744, -80.535, -131.517, -26.540, -6.667, -8.160, 24.33, 0.14871, 0.65067, -0.25449, 0.69974,
 12:19:04.812,ed:35:33:d3:6c:f8, 2015-01-01 00:05:33.290, 0.694, -0.202, 0.679, -0.732, 0.122, 0.061, -16.622, -44.297, 166.663, -19.560, -5.740, -27.193, 30.26, 0.16068, 0.35501, -0.17606, 0.9039,
 12:19:04.812,ed:35:33:d3:6c:f8, 2015-01-01 00:05:33.290, 0.69, -0.2, 0.677, -0.305, 0.061, 0.122, -16.628, -44.297, 166.674, -19.560, -5.740, -27.193, 30.26, 0.16068, 0.35501, -0.17606, 0.9039,
 12:19:04.812,f6:90:cc:01:6d:25, 2015-01-01 00:05:32.830, 0.896, -0.147, 0.382, -0.061, 0.122, 0, -21.209, -65.5, -146.31, -29.487, -7.993, -9.727, 27.55, 0.14401, -0.5538, -0.00577, -0.82001,
 12:19:04.812,f6:90:cc:01:6d:25, 2015-01-01 00:05:32.830, 0.903, -0.146, 0.384, 0.061, 0, 0, -21.209, -65.495, -146.31, -29.487, -7.993, -9.727, 27.55, 0.14401, -0.5538, -0.00577, -0.82001,
 12:19:04.832,ed:40:fe:65:30:6c, 2015-01-01 00:05:33.380, 0.5, 0.015, 0.869, -0.183, 0.183, 0, 0.357, -29.789, -133.77, -16.480, -10.267, -8.053, 24.13, 0.38077, -0.2352, -0.10397, -0.88812,
 12:19:04.832,ed:40:fe:65:30:6c, 2015-01-01 00:05:33.380, 0.499, 0.01, 0.875, -0.122, 0.122, 0, 0.363, -29.784, -133.786, -16.480, -10.267, -8.053, 24.13, 0.38077, -0.2352, -0.10397, -0.88812,
 12:19:04.835,ed:35:33:d3:6c:f8, 2015-01-01 00:05:33.715, 0.698, -0.196, 0.678, -0.61, 0.366, 0, -16.633, -44.291, 166.685, -19.560, -5.740, -27.193, 30.26, 0.16068, 0.35501, -0.17606, 0.9039,
 12:19:04.835,ed:35:33:d3:6c:f8, 2015-01-01 00:05:33.715, 0.7, -0.2, 0.681, -0.732, 0.427, -0.244, -16.639, -44.286, 166.679, -19.560, -5.740, -27.193, 30.26, 0.16068, 0.35501, -0.17606, 0.9039,
 12:19:04.854,e3:ca:2d:fd:e0:8c, 2015-01-01 00:05:34.050, 1.015, -0.167, 0.025, 0, -0.061, 0, -81.755, -80.535, -131.523, -26.540, -6.667, -8.160, 24.33, 0.14871, 0.65067, -0.25449, 0.69974,
 12:19:04.854,e3:ca:2d:fd:e0:8c, 2015-01-01 00:05:34.050, 1.01, -0.167, 0.023, 0.122, 0, 0, -81.755, -80.535, -131.534, -26.540, -6.667, -8.160, 24.33, 0.14871, 0.65067, -0.25449, 0.69974,
 12:19:04.858,f6:90:cc:01:6d:25, 2015-01-01 00:05:32.830, 0.904, -0.152, 0.385, 0.305, -0.122, 0, -21.209, -65.495, -146.305, -29.487, -7.993, -9.727, 27.55, 0.14401, -0.5538, -0.00577, -0.82001,
 12:19:04.858,f6:90:cc:01:6d:25, 2015-01-01 00:05:32.830, 0.901, -0.151, 0.379, 0.244, 0, 0, -21.204, -65.495, -146.305, -29.487, -7.993, -9.727, 27.55, 0.14401, -0.5538, -0.00577, -0.82001,
 12:19:04.876,e3:ca:2d:fd:e0:8c, 2015-01-01 00:05:34.430, 1.011, -0.166, 0.021, 0.061, 0.122, 0, -81.749, -80.535, -131.556, -26.540, -6.667, -8.160, 24.33, 0.14871, 0.65067, -0.25449, 0.69974,
 12:19:04.876,e3:ca:2d:fd:e0:8c, 2015-01-01 00:05:34.430, 1.01, -0.166, 0.02, 0, 0.244, 0, -81.727, -80.535, -131.589, -26.540, -6.667, -8.160, 24.33, 0.14871, 0.65067, -0.25449, 0.69974,
 12:19:04.878,ed:35:33:d3:6c:f8, 2015-01-01 00:05:33.715, 0.699, -0.201, 0.687, -0.671, 0.488, 0.061, -16.644, -44.28, 166.663, -19.560, -5.740, -27.193, 30.26, 0.16068, 0.35501, -0.17606, 0.9039,
 12:19:04.878,ed:35:33:d3:6c:f8, 2015-01-01 00:05:33.715, 0.698, -0.201, 0.685, -0.671, 0.122, 0.183, -16.661, -44.275, 166.641, -19.560, -5.740, -27.193, 30.26, 0.16068, 0.35501, -0.17606, 0.9039,
 12:19:04.899,ed:40:fe:65:30:6c, 2015-01-01 00:05:33.380, 0.498, 0.012, 0.876, -0.244, 0.183, 0.305, 0.357, -29.778, -133.792, -16.480, -10.267, -8.053, 24.13, 0.38077, -0.2352, -0.10397, -0.88812,
 12:19:04.899,ed:40:fe:65:30:6c, 2015-01-01 00:05:33.380, 0.499, 0.015, 0.874, -0.427, 0, 0.244, 0.352, -29.778, -133.797, -16.480, -10.267, -8.053, 24.13, 0.38077, -0.2352, -0.10397, -0.88812,
 12:19:04.900,ed:35:33:d3:6c:f8, 2015-01-01 00:05:33.715, 0.696, -0.2, 0.682, -0.916, 0, 0, -16.672, -44.28, 166.619, -19.560, -5.740, -27.193, 30.26, 0.16068, 0.35501, -0.17606, 0.9039,
 12:19:04.900,ed:35:33:d3:6c:f8, 2015-01-01 00:05:33.715, 0.693, -0.2, 0.679, -0.916, 0, -0.061, -16.688, -44.28, 166.619, -19.560, -5.740, -27.193, 30.26, 0.16068, 0.35501, -0.17606, 0.9039,
 12:19:04.901,f6:90:cc:01:6d:25, 2015-01-01 00:05:32.830, 0.902, -0.146, 0.379, 0.061, -0.061, 0, -21.204, -65.495, -146.299, -29.487, -7.993, -9.727, 27.55, 0.14401, -0.5538, -0.00577, -0.82001,
 12:19:04.901,f6:90:cc:01:6d:25, 2015-01-01 00:05:32.830, 0.899, -0.145, 0.382, 0.122, -0.183, 0, -21.209, -65.5, -146.294, -29.487, -7.993, -9.727, 27.55, 0.14401, -0.5538, -0.00577, -0.82001,
 12:19:04.921,e3:ca:2d:fd:e0:8c, 2015-01-01 00:05:34.430, 1.006, -0.165, 0.02, 0, 0.122, 0, -81.711, -80.535, -131.627, -26.540, -6.667, -8.160, 24.33, 0.14871, 0.65067, -0.25449, 0.69974,
 12:19:04.921,e3:ca:2d:fd:e0:8c, 2015-01-01 00:05:34.430, 1.005, -0.166, 0.021, 0, 0, 0, -81.711, -80.535, -131.644, -26.540, -6.667, -8.160, 24.33, 0.14871, 0.65067, -0.25449, 0.69974,
 12:19:04.922,ed:40:fe:65:30:6c, 2015-01-01 00:05:33.380, 0.496, 0.013, 0.87, -0.488, -0.183, 0.061, 0.346, -29.778, -133.808, -16.480, -10.267, -8.053, 24.13, 0.38077, -0.2352, -0.10397, -0.88812,
 12:19:04.922,ed:40:fe:65:30:6c, 2015-01-01 00:05:33.380, 0.494, 0.012, 0.869, -0.366, -0.122, 0, 0.346, -29.778, -133.819, -16.480, -10.267, -8.053, 24.13, 0.38077, -0.2352, -0.10397, -0.88812,
 12:19:04.944,ed:40:fe:65:30:6c, 2015-01-01 00:05:33.380, 0.493, 0.013, 0.867, -0.244, -0.061, 0.061, 0.346, -29.778, -133.83, -16.480, -10.267, -8.053, 24.13, 0.38077, -0.2352, -0.10397, -0.88812,
 12:19:04.944,ed:40:fe:65:30:6c, 2015-01-01 00:05:33.380, 0.493, 0.013, 0.867, -0.061, -0.122, 0.122, 0.346, -29.784, -133.841, -16.480, -10.267, -8.053, 24.13, 0.38077, -0.2352, -0.10397, -0.88812,
 12:19:04.946,ed:35:33:d3:6c:f8, 2015-01-01 00:05:33.715, 0.692, -0.199, 0.678, -0.854, 0, 0, -16.699, -44.286, 166.597, -19.560, -5.740, -27.193, 30.26, 0.16068, 0.35501, -0.17606, 0.9039,
 12:19:04.946,ed:35:33:d3:6c:f8, 2015-01-01 00:05:33.715, 0.691, -0.198, 0.678, -0.732, 0, 0.061, -16.71, -44.286, 166.569, -19.560, -5.740, -27.193, 30.26, 0.16068, 0.35501, -0.17606, 0.9039,
 12:19:04.946,f6:90:cc:01:6d:25, 2015-01-01 00:05:32.830, 0.896, -0.147, 0.382, 0.183, -0.183, 0, -21.209, -65.506, -146.288, -29.487, -7.993, -9.727, 27.55, 0.14401, -0.5538, -0.00577, -0.82001,
 12:19:04.946,f6:90:cc:01:6d:25, 2015-01-01 00:05:32.830, 0.896, -0.148, 0.381, 0.122, -0.305, 0, -21.209, -65.511, -146.283, -29.487, -7.993, -9.727, 27.55, 0.14401, -0.5538, -0.00577, -0.82001,
 12:19:04.967,e3:ca:2d:fd:e0:8c, 2015-01-01 00:05:34.430, 1.005, -0.166, 0.024, 0, -0.061, 0, -81.722, -80.535, -131.655, -26.540, -6.667, -8.160, 24.33, 0.14871, 0.65067, -0.25449, 0.69974,
 12:19:04.967,e3:ca:2d:fd:e0:8c, 2015-01-01 00:05:34.430, 1.007, -0.167, 0.026, 0.061, -0.122, 0, -81.738, -80.535, -131.66, -26.540, -6.667, -8.160, 24.33, 0.14871, 0.65067, -0.25449, 0.69974,
 12:19:04.969,f6:90:cc:01:6d:25, 2015-01-01 00:05:32.830, 0.896, -0.147, 0.382, 0.061, -0.244, 0, -21.215, -65.511, -146.277, -29.487, -7.993, -9.727, 27.55, 0.14401, -0.5538, -0.00577, -0.82001,
 12:19:04.969,f6:90:cc:01:6d:25, 2015-01-01 00:05:32.830, 0.898, -0.149, 0.382, 0.061, -0.183, 0, -21.215, -65.517, -146.272, -29.487, -7.993, -9.727, 27.55, 0.14401, -0.5538, -0.00577, -0.82001,
 12:19:04.990,ed:40:fe:65:30:6c, 2015-01-01 00:05:33.380, 0.495, 0.012, 0.869, -0.122, -0.122, 0.183, 0.352, -29.784, -133.852, -16.480, -10.267, -8.053, 24.13, 0.38077, -0.2352, -0.10397, -0.88812,
 12:19:04.990,ed:40:fe:65:30:6c, 2015-01-01 00:05:33.380, 0.495, 0.011, 0.87, -0.122, -0.061, 0.183, 0.352, -29.784, -133.857, -16.480, -10.267, -8.053, 24.13, 0.38077, -0.2352, -0.10397, -0.88812,
 12:19:04.991,ed:35:33:d3:6c:f8, 2015-01-01 00:05:33.715, 0.693, -0.199, 0.678, -0.427, -0.122, 0.122, -16.721, -44.291, 166.558, -19.560, -5.740, -27.193, 30.26, 0.16068, 0.35501, -0.17606, 0.9039,
 12:19:04.991,ed:35:33:d3:6c:f8, 2015-01-01 00:05:33.715, 0.694, -0.201, 0.678, -0.427, 0, 0.122, -16.727, -44.291, 166.547, -19.560, -5.740, -27.193, 30.26, 0.16068, 0.35501, -0.17606, 0.9039,
 12:19:05.011,e3:ca:2d:fd:e0:8c, 2015-01-01 00:05:34.430, 1.008, -0.167, 0.027, 0, -0.061, 0, -81.749, -80.535, -131.66, -26.540, -6.667, -8.160, 24.33, 0.14871, 0.65067, -0.25449, 0.69974,
 12:19:05.011,e3:ca:2d:fd:e0:8c, 2015-01-01 00:05:34.430, 1.008, -0.167, 0.026, 0, -0.061, 0, -81.76, -80.535, -131.666, -26.540, -6.667, -8.160, 24.33, 0.14871, 0.65067, -0.25449, 0.69974,
 12:19:05.014,f6:90:cc:01:6d:25, 2015-01-01 00:05:32.830, 0.9, -0.149, 0.385, 0.122, -0.061, 0, -21.215, -65.517, -146.266, -29.820, -7.667, -9.533, 27.55, 0.14401, -0.5538, -0.00577, -0.82001,
 12:19:05.014,f6:90:cc:01:6d:25, 2015-01-01 00:05:32.830, 0.899, -0.149, 0.385, 0.183, -0.061, 0, -21.209, -65.517, -146.266, -29.820, -7.667, -9.533, 27.55, 0.14401, -0.5538, -0.00577, -0.82001,
 12:19:05.037,ed:35:33:d3:6c:f8, 2015-01-01 00:05:33.715, 0.696, -0.202, 0.681, -0.427, 0.183, 0.061, -16.732, -44.286, 166.536, -19.560, -5.740, -27.193, 30.26, 0.16068, 0.35501, -0.17606, 0.9039,
 12:19:05.037,ed:35:33:d3:6c:f8, 2015-01-01 00:05:33.715, 0.694, -0.202, 0.683, -0.488, 0.305, 0, -16.732, -44.286, 166.52, -19.560, -5.740, -27.193, 30.26, 0.16068, 0.35501, -0.17606, 0.9039,
 12:19:05.056,ed:40:fe:65:30:6c, 2015-01-01 00:05:33.380, 0.496, 0.011, 0.873, -0.061, 0, 0.122, 0.352, -29.784, -133.868, -16.520, -10.193, -8.167, 24.13, 0.38077, -0.2352, -0.10397, -0.88812,
 12:19:05.056,ed:40:fe:65:30:6c, 2015-01-01 00:05:33.380, 0.495, 0.01, 0.874, -0.061, -0.061, 0.122, 0.357, -29.778, -133.874, -16.520, -10.193, -8.167, 24.13, 0.38077, -0.2352, -0.10397, -0.88812,
 12:19:05.056,e3:ca:2d:fd:e0:8c, 2015-01-01 00:05:34.430, 1.01, -0.167, 0.025, 0, -0.061, 0, -81.766, -80.535, -131.671, -26.540, -6.667, -8.160, 24.33, 0.14871, 0.65067, -0.25449, 0.69974,
 12:19:05.056,e3:ca:2d:fd:e0:8c, 2015-01-01 00:05:34.430, 1.006, -0.167, 0.025, 0, 0, 0, -81.766, -80.535, -131.682, -26.540, -6.667, -8.160, 24.33, 0.14871, 0.65067, -0.25449, 0.69974,
 12:19:05.060,f6:90:cc:01:6d:25, 2015-01-01 00:05:32.830, 0.898, -0.149, 0.385, 0.122, 0, 0, -21.209, -65.517, -146.266, -29.820, -7.667, -9.533, 27.55, 0.1445, -0.55386, -0.0062, -0.81989,
 12:19:05.060,f6:90:cc:01:6d:25, 2015-01-01 00:05:32.830, 0.897, -0.149, 0.383, 0.244, 0, 0, -21.204, -65.517, -146.261, -29.820, -7.667, -9.533, 27.55, 0.1445, -0.55386, -0.0062, -0.81989,
 12:19:05.080,e3:ca:2d:fd:e0:8c, 2015-01-01 00:05:34.430, 1.008, -0.167, 0.023, 0, -0.061, 0, -81.766, -80.535, -131.688, -26.593, -6.647, -7.093, 24.33, 0.14871, 0.65067, -0.25449, 0.69974,
 12:19:05.080,e3:ca:2d:fd:e0:8c, 2015-01-01 00:05:34.430, 1.009, -0.166, 0.023, 0, -0.061, 0, -81.777, -80.535, -131.693, -26.593, -6.647, -7.093, 24.33, 0.14871, 0.65067, -0.25449, 0.69974,
 12:19:05.080,ed:40:fe:65:30:6c, 2015-01-01 00:05:33.380, 0.496, 0.012, 0.868, -0.122, -0.061, 0.122, 0.357, -29.778, -133.885, -16.520, -10.193, -8.167, 24.13, 0.37921, -0.23526, -0.10342, -0.88885,
 12:19:05.080,ed:40:fe:65:30:6c, 2015-01-01 00:05:33.380, 0.496, 0.013, 0.869, -0.183, 0, 0, 0.357, -29.778, -133.896, -16.520, -10.193, -8.167, 24.13, 0.37921, -0.23526, -0.10342, -0.88885,
 12:19:05.082,f6:90:cc:01:6d:25, 2015-01-01 00:05:33.165, 0.899, -0.146, 0.38, 0.244, 0, 0, -21.198, -65.511, -146.261, -29.820, -7.667, -9.533, 27.55, 0.1445, -0.55386, -0.0062, -0.81989,
 12:19:05.082,f6:90:cc:01:6d:25, 2015-01-01 00:05:33.165, 0.899, -0.149, 0.382, 0.061, 0, 0, -21.198, -65.511, -146.255, -29.820, -7.667, -9.533, 27.55, 0.1445, -0.55386, -0.0062, -0.81989,
 12:19:05.103,ed:35:33:d3:6c:f8, 2015-01-01 00:05:33.715, 0.694, -0.201, 0.68, -0.427, 0, 0.183, -16.743, -44.286, 166.514, -19.813, -5.780, -26.867, 30.26, 0.16068, 0.35501, -0.17606, 0.9039,
 12:19:05.103,ed:35:33:d3:6c:f8, 2015-01-01 00:05:33.715, 0.695, -0.2, 0.678, -0.427, 0.183, 0, -16.749, -44.28, 166.498, -19.813, -5.780, -26.867, 30.26, 0.16068, 0.35501, -0.17606, 0.9039,
 12:19:05.124,e3:ca:2d:fd:e0:8c, 2015-01-01 00:05:34.430, 1.009, -0.167, 0.022, 0, -0.122, 0, -81.788, -80.535, -131.693, -26.593, -6.647, -7.093, 24.33, 0.14871, 0.65067, -0.25449, 0.69974,
 12:19:05.124,e3:ca:2d:fd:e0:8c, 2015-01-01 00:05:34.430, 1.012, -0.167, 0.021, -0.061, -0.061, 0, -81.799, -80.535, -131.699, -26.593, -6.647, -7.093, 24.33, 0.14871, 0.65067, -0.25449, 0.69974,
 12:19:05.125,ed:40:fe:65:30:6c, 2015-01-01 00:05:33.380, 0.497, 0.012, 0.871, -0.183, 0.061, 0, 0.363, -29.778, -133.907, -16.520, -10.193, -8.167, 24.13, 0.37921, -0.23526, -0.10342, -0.88885,
 12:19:05.125,ed:40:fe:65:30:6c, 2015-01-01 00:05:33.380, 0.499, 0.01, 0.872, -0.366, -0.122, 0.061, 0.357, -29.778, -133.918, -16.520, -10.193, -8.167, 24.13, 0.37921, -0.23526, -0.10342, -0.88885,
 12:19:05.127,f6:90:cc:01:6d:25, 2015-01-01 00:05:33.165, 0.901, -0.148, 0.379, -0.122, 0, 0, -21.204, -65.511, -146.255, -29.820, -7.667, -9.533, 27.55, 0.1445, -0.55386, -0.0062, -0.81989,
 12:19:05.127,f6:90:cc:01:6d:25, 2015-01-01 00:05:33.165, 0.903, -0.149, 0.38, -0.061, -0.061, 0, -21.204, -65.511, -146.255, -29.820, -7.667, -9.533, 27.55, 0.1445, -0.55386, -0.0062, -0.81989,
 12:19:05.127,ed:35:33:d3:6c:f8, 2015-01-01 00:05:33.715, 0.696, -0.2, 0.679, -0.427, 0.305, -0.183, -16.749, -44.28, 166.476, -19.813, -5.780, -26.867, 30.26, 0.16238, 0.35434, -0.17786, 0.9035,
 12:19:05.127,ed:35:33:d3:6c:f8, 2015-01-01 00:05:33.715, 0.697, -0.202, 0.682, -0.488, 0.244, 0.122, -16.754, -44.275, 166.465, -19.813, -5.780, -26.867, 30.26, 0.16238, 0.35434, -0.17786, 0.9035,
 12:19:05.147,ed:40:fe:65:30:6c, 2015-01-01 00:05:33.785, 0.499, 0.01, 0.873, -0.488, -0.305, 0, 0.352, -29.778, -133.929, -16.520, -10.193, -8.167, 24.13, 0.37921, -0.23526, -0.10342, -0.88885,
 12:19:05.147,ed:40:fe:65:30:6c, 2015-01-01 00:05:33.785, 0.498, 0.009, 0.873, -0.427, -0.305, -0.122, 0.352, -29.784, -133.94, -16.520, -10.193, -8.167, 24.13, 0.37921, -0.23526, -0.10342, -0.88885,
 12:19:05.170,ed:35:33:d3:6c:f8, 2015-01-01 00:05:33.715, 0.697, -0.205, 0.682, -0.793, 0, 0.183, -16.771, -44.275, 166.459, -19.813, -5.780, -26.867, 30.26, 0.16238, 0.35434, -0.17786, 0.9035,
 12:19:05.170,ed:35:33:d3:6c:f8, 2015-01-01 00:05:33.715, 0.697, -0.206, 0.681, -0.854, -0.183, 0, -16.787, -44.28, 166.448, -19.813, -5.780, -26.867, 30.26, 0.16238, 0.35434, -0.17786, 0.9035,
 12:19:05.171,f6:90:cc:01:6d:25, 2015-01-01 00:05:33.165, 0.901, -0.149, 0.38, 0, -0.122, 0, -21.209, -65.517, -146.25, -29.820, -7.667, -9.533, 27.55, 0.1445, -0.55386, -0.0062, -0.81989,
 12:19:05.171,f6:90:cc:01:6d:25, 2015-01-01 00:05:33.165, 0.899, -0.15, 0.38, 0.122, -0.122, 0, -21.209, -65.517, -146.245, -29.820, -7.667, -9.533, 27.55, 0.1445, -0.55386, -0.0062, -0.81989,
 12:19:05.192,ed:40:fe:65:30:6c, 2015-01-01 00:05:33.785, 0.497, 0.012, 0.871, -0.244, -0.244, -0.061, 0.352, -29.789, -133.951, -16.520, -10.193, -8.167, 24.13, 0.37921, -0.23526, -0.10342, -0.88885,
 12:19:05.192,ed:40:fe:65:30:6c, 2015-01-01 00:05:33.785, 0.498, 0.015, 0.868, -0.061, -0.183, 0.061, 0.352, -29.789, -133.962, -16.520, -10.193, -8.167, 24.13, 0.37921, -0.23526, -0.10342, -0.88885,
 12:19:05.192,e3:ca:2d:fd:e0:8c, 2015-01-01 00:05:34.430, 1.011, -0.168, 0.021, -0.122, 0, 0, -81.81, -80.535, -131.704, -26.593, -6.647, -7.093, 24.33, 0.15018, 0.65015, -0.25595, 0.69937,
 12:19:05.192,e3:ca:2d:fd:e0:8c, 2015-01-01 00:05:34.430, 1.008, -0.167, 0.021, 0, 0.061, 0, -81.81, -80.53, -131.726, -26.593, -6.647, -7.093, 24.33, 0.15018, 0.65015, -0.25595, 0.69937,
 12:19:05.193,ed:35:33:d3:6c:f8, 2015-01-01 00:05:34.075, 0.696, -0.204, 0.68, -0.61, -0.244, -0.183, -16.793, -44.286, 166.432, -19.813, -5.780, -26.867, 30.26, 0.16238, 0.35434, -0.17786, 0.9035,
 12:19:05.193,ed:35:33:d3:6c:f8, 2015-01-01 00:05:34.075, 0.696, -0.199, 0.679, -0.244, -0.183, -0.244, -16.793, -44.297, 166.415, -19.813, -5.780, -26.867, 30.26, 0.16238, 0.35434, -0.17786, 0.9035,
 12:19:05.214,e3:ca:2d:fd:e0:8c, 2015-01-01 00:05:34.765, 1.008, -0.167, 0.021, 0, 0.061, 0, -81.81, -80.53, -131.743, -26.593, -6.647, -7.093, 24.33, 0.15018, 0.65015, -0.25595, 0.69937,
 12:19:05.214,e3:ca:2d:fd:e0:8c, 2015-01-01 00:05:34.765, 1.008, -0.168, 0.023, 0, 0.061, 0, -81.81, -80.53, -131.759, -26.593, -6.647, -7.093, 24.33, 0.15018, 0.65015, -0.25595, 0.69937,
 12:19:05.218,f6:90:cc:01:6d:25, 2015-01-01 00:05:33.165, 0.898, -0.149, 0.38, 0.183, -0.122, 0, -21.209, -65.522, -146.245, -29.820, -7.667, -9.533, 27.55, 0.1445, -0.55386, -0.0062, -0.81989,
 12:19:05.218,f6:90:cc:01:6d:25, 2015-01-01 00:05:33.165, 0.899, -0.148, 0.38, 0.183, -0.122, 0, -21.209, -65.522, -146.239, -29.820, -7.667, -9.533, 27.55, 0.1445, -0.55386, -0.0062, -0.81989,
 12:19:05.237,e3:ca:2d:fd:e0:8c, 2015-01-01 00:05:34.765, 1.008, -0.167, 0.023, 0.061, 0.061, 0, -81.804, -80.53, -131.781, -26.593, -6.647, -7.093, 24.33, 0.15018, 0.65015, -0.25595, 0.69937,
 12:19:05.237,e3:ca:2d:fd:e0:8c, 2015-01-01 00:05:34.765, 1.007, -0.167, 0.024, 0.061, 0.061, 0, -81.804, -80.53, -131.797, -26.593, -6.647, -7.093, 24.33, 0.15018, 0.65015, -0.25595, 0.69937,
 12:19:05.238,ed:35:33:d3:6c:f8, 2015-01-01 00:05:34.075, 0.694, -0.199, 0.677, -0.183, -0.183, 0, -16.793, -44.302, 166.404, -19.813, -5.780, -26.867, 30.26, 0.16238, 0.35434, -0.17786, 0.9035,
 12:19:05.238,ed:35:33:d3:6c:f8, 2015-01-01 00:05:34.075, 0.694, -0.206, 0.675, 0, -0.366, 0, -16.798, -44.308, 166.404, -19.813, -5.780, -26.867, 30.26, 0.16238, 0.35434, -0.17786, 0.9035,
 12:19:05.238,ed:40:fe:65:30:6c, 2015-01-01 00:05:33.785, 0.499, 0.011, 0.867, 0, -0.244, 0.183, 0.357, -29.795, -133.967, -16.520, -10.193, -8.167, 24.13, 0.37921, -0.23526, -0.10342, -0.88885,
 12:19:05.238,ed:40:fe:65:30:6c, 2015-01-01 00:05:33.785, 0.496, 0.007, 0.868, 0.061, -0.244, 0.244, 0.357, -29.8, -133.973, -16.520, -10.193, -8.167, 24.13, 0.37921, -0.23526, -0.10342, -0.88885,
 12:19:05.260,ed:35:33:d3:6c:f8, 2015-01-01 00:05:34.075, 0.693, -0.203, 0.678, 0.061, 0, 0, -16.798, -44.319, 166.393, -19.813, -5.780, -26.867, 30.26, 0.16238, 0.35434, -0.17786, 0.9035,
 12:19:05.260,ed:35:33:d3:6c:f8, 2015-01-01 00:05:34.075, 0.695, -0.2, 0.68, -0.061, 0.122, 0, -16.793, -44.319, 166.382, -19.813, -5.780, -26.867, 30.26, 0.16238, 0.35434, -0.17786, 0.9035,
 12:19:05.262,f6:90:cc:01:6d:25, 2015-01-01 00:05:33.165, 0.899, -0.15, 0.381, 0.122, 0, 0, -21.209, -65.522, -146.234, -29.820, -7.667, -9.533, 27.55, 0.1445, -0.55386, -0.0062, -0.81989,
 12:19:05.262,f6:90:cc:01:6d:25, 2015-01-01 00:05:33.165, 0.897, -0.15, 0.381, 0.122, 0.061, 0, -21.209, -65.522, -146.234, -29.820, -7.667, -9.533, 27.55, 0.1445, -0.55386, -0.0062, -0.81989,
 12:19:05.281,e3:ca:2d:fd:e0:8c, 2015-01-01 00:05:34.765, 1.007, -0.167, 0.024, 0, 0.122, 0, -81.793, -80.53, -131.819, -26.593, -6.647, -7.093, 24.33, 0.15018, 0.65015, -0.25595, 0.69937,
 12:19:05.281,e3:ca:2d:fd:e0:8c, 2015-01-01 00:05:34.765, 1.007, -0.167, 0.024, 0, 0.061, 0, -81.788, -80.53, -131.841, -26.593, -6.647, -7.093, 24.33, 0.15018, 0.65015, -0.25595, 0.69937,
 12:19:05.282,ed:40:fe:65:30:6c, 2015-01-01 00:05:33.785, 0.494, 0.009, 0.869, 0.061, -0.061, 0.183, 0.363, -29.8, -133.978, -16.520, -10.193, -8.167, 24.13, 0.37921, -0.23526, -0.10342, -0.88885,
 12:19:05.282,ed:40:fe:65:30:6c, 2015-01-01 00:05:33.785, 0.494, 0.012, 0.871, 0, 0.061, 0.061, 0.368, -29.8, -133.989, -16.520, -10.193, -8.167, 24.13, 0.37921, -0.23526, -0.10342, -0.88885,
 12:19:05.285,f6:90:cc:01:6d:25, 2015-01-01 00:05:33.165, 0.898, -0.149, 0.382, 0.061, 0.122, 0, -21.204, -65.522, -146.234, -29.800, -8.033, -9.193, 27.55, 0.1445, -0.55386, -0.0062, -0.81989,
 12:19:05.285,f6:90:cc:01:6d:25, 2015-01-01 00:05:33.165, 0.898, -0.149, 0.383, 0, 0.061, 0, -21.209, -65.517, -146.234, -29.800, -8.033, -9.193, 27.55, 0.1445, -0.55386, -0.0062, -0.81989,
 12:19:05.306,ed:35:33:d3:6c:f8, 2015-01-01 00:05:34.075, 0.695, -0.2, 0.681, -0.183, 0.183, 0, -16.793, -44.319, 166.371, -19.813, -5.780, -26.867, 30.26, 0.16238, 0.35434, -0.17786, 0.9035,
 12:19:05.306,ed:35:33:d3:6c:f8, 2015-01-01 00:05:34.075, 0.695, -0.199, 0.68, 0.061, 0.061, 0, -16.793, -44.313, 166.36, -19.813, -5.780, -26.867, 30.26, 0.16238, 0.35434, -0.17786, 0.9035,
 12:19:05.327,e3:ca:2d:fd:e0:8c, 2015-01-01 00:05:34.765, 1.008, -0.167, 0.024, 0, 0.061, 0, -81.782, -80.53, -131.858, -26.593, -6.647, -7.093, 24.33, 0.15018, 0.65015, -0.25595, 0.69937,
 12:19:05.327,e3:ca:2d:fd:e0:8c, 2015-01-01 00:05:34.765, 1.008, -0.167, 0.024, 0, 0, 0, -81.782, -80.53, -131.874, -26.593, -6.647, -7.093, 24.33, 0.15018, 0.65015, -0.25595, 0.69937,
 12:19:05.327,ed:40:fe:65:30:6c, 2015-01-01 00:05:33.785, 0.495, 0.013, 0.872, -0.122, 0, 0.061, 0.368, -29.795, -133.995, -16.520, -10.193, -8.167, 24.13, 0.37921, -0.23526, -0.10342, -0.88885,
 12:19:05.327,ed:40:fe:65:30:6c, 2015-01-01 00:05:33.785, 0.495, 0.013, 0.872, -0.244, 0, 0.122, 0.368, -29.795, -134.006, -16.520, -10.193, -8.167, 24.13, 0.37921, -0.23526, -0.10342, -0.88885,
 12:19:05.330,f6:90:cc:01:6d:25, 2015-01-01 00:05:33.165, 0.898, -0.149, 0.383, 0.061, -0.061, 0, -21.209, -65.517, -146.234, -29.800, -8.033, -9.193, 27.55, 0.1445, -0.55386, -0.0062, -0.81989,
 12:19:05.330,f6:90:cc:01:6d:25, 2015-01-01 00:05:33.165, 0.899, -0.148, 0.382, 0, -0.061, 0, -21.209, -65.517, -146.234, -29.800, -8.033, -9.193, 27.55, 0.1445, -0.55386, -0.0062, -0.81989,
 12:19:05.371,ed:40:fe:65:30:6c, 2015-01-01 00:05:33.785, 0.495, 0.015, 0.871, -0.183, 0.061, 0.244, 0.363, -29.795, -134.006, -16.860, -10.307, -7.740, 24.13, 0.37921, -0.23526, -0.10342, -0.88885,
 12:19:05.371,ed:40:fe:65:30:6c, 2015-01-01 00:05:33.785, 0.496, 0.012, 0.87, -0.122, 0.183, 0.305, 0.363, -29.789, -134.011, -16.860, -10.307, -7.740, 24.13, 0.37921, -0.23526, -0.10342, -0.88885,
 12:19:05.373,ed:35:33:d3:6c:f8, 2015-01-01 00:05:34.075, 0.695, -0.2, 0.679, 0.122, 0.122, 0, -16.787, -44.313, 166.349, -19.813, -5.780, -26.867, 30.26, 0.16238, 0.35434, -0.17786, 0.9035,
 12:19:05.373,ed:35:33:d3:6c:f8, 2015-01-01 00:05:34.075, 0.695, -0.203, 0.68, 0, 0, 0, -16.782, -44.313, 166.333, -19.813, -5.780, -26.867, 30.26, 0.16238, 0.35434, -0.17786, 0.9035,
 12:19:05.376,f6:90:cc:01:6d:25, 2015-01-01 00:05:33.165, 0.899, -0.148, 0.381, 0, -0.122, 0, -21.215, -65.517, -146.228, -29.800, -8.033, -9.193, 27.55, 0.14471, -0.55389, -0.00635, -0.81982,
 12:19:05.376,f6:90:cc:01:6d:25, 2015-01-01 00:05:33.165, 0.9, -0.148, 0.381, -0.061, -0.061, 0, -21.215, -65.522, -146.223, -29.800, -8.033, -9.193, 27.55, 0.14471, -0.55389, -0.00635, -0.81982,
 12:19:05.393,e3:ca:2d:fd:e0:8c, 2015-01-01 00:05:34.765, 1.008, -0.167, 0.023, 0, 0, 0, -81.788, -80.524, -131.885, -26.593, -6.647, -7.093, 24.33, 0.15018, 0.65015, -0.25595, 0.69937,
 12:19:05.393,e3:ca:2d:fd:e0:8c, 2015-01-01 00:05:34.765, 1.009, -0.167, 0.023, 0, 0, 0, -81.788, -80.524, -131.891, -26.593, -6.647, -7.093, 24.33, 0.15018, 0.65015, -0.25595, 0.69937,
 12:19:05.397,ed:35:33:d3:6c:f8, 2015-01-01 00:05:34.075, 0.695, -0.204, 0.679, -0.183, -0.061, 0, -16.782, -44.319, 166.328, -19.807, -5.433, -27.207, 30.26, 0.16238, 0.35434, -0.17786, 0.9035,
 12:19:05.397,ed:35:33:d3:6c:f8, 2015-01-01 00:05:34.075, 0.696, -0.204, 0.679, -0.122, -0.061, 0, -16.782, -44.319, 166.317, -19.807, -5.433, -27.207, 30.26, 0.16238, 0.35434, -0.17786, 0.9035,
 12:19:05.416,e3:ca:2d:fd:e0:8c, 2015-01-01 00:05:34.765, 1.008, -0.167, 0.023, -0.061, 0, 0, -81.793, -80.524, -131.902, -26.793, -6.340, -7.647, 24.33, 0.15018, 0.65015, -0.25595, 0.69937,
 12:19:05.416,e3:ca:2d:fd:e0:8c, 2015-01-01 00:05:34.765, 1.008, -0.167, 0.023, -0.061, 0, 0, -81.793, -80.524, -131.913, -26.793, -6.340, -7.647, 24.33, 0.15018, 0.65015, -0.25595, 0.69937,
 12:19:05.417,ed:40:fe:65:30:6c, 2015-01-01 00:05:33.785, 0.497, 0.011, 0.871, -0.305, 0, 0.183, 0.363, -29.784, -134.017, -16.860, -10.307, -7.740, 24.13, 0.37921, -0.23526, -0.10342, -0.88885,
 12:19:05.417,ed:40:fe:65:30:6c, 2015-01-01 00:05:33.785, 0.496, 0.01, 0.871, -0.305, 0, 0.122, 0.357, -29.784, -134.022, -16.860, -10.307, -7.740, 24.13, 0.37921, -0.23526, -0.10342, -0.88885,
 12:19:05.420,f6:90:cc:01:6d:25, 2015-01-01 00:05:33.475, 0.899, -0.15, 0.381, -0.122, -0.061, 0, -21.22, -65.522, -146.223, -29.800, -8.033, -9.193, 27.55, 0.14471, -0.55389, -0.00635, -0.81982,
 12:19:05.420,f6:90:cc:01:6d:25, 2015-01-01 00:05:33.475, 0.9, -0.149, 0.381, 0, 0, 0, -21.226, -65.522, -146.217, -29.800, -8.033, -9.193, 27.55, 0.14471, -0.55389, -0.00635, -0.81982,
 12:19:05.440,ed:40:fe:65:30:6c, 2015-01-01 00:05:33.785, 0.497, 0.01, 0.87, -0.122, 0, 0.122, 0.357, -29.784, -134.028, -16.860, -10.307, -7.740, 24.13, 0.37817, -0.23541, -0.10318, -0.88928,
 12:19:05.440,ed:40:fe:65:30:6c, 2015-01-01 00:05:33.785, 0.497, 0.011, 0.869, 0.061, 0, 0.061, 0.363, -29.784, -134.033, -16.860, -10.307, -7.740, 24.13, 0.37817, -0.23541, -0.10318, -0.88928,
 12:19:05.461,e3:ca:2d:fd:e0:8c, 2015-01-01 00:05:34.765, 1.009, -0.167, 0.023, -0.061, 0, 0, -81.799, -80.524, -131.924, -26.793, -6.340, -7.647, 24.33, 0.15018, 0.65015, -0.25595, 0.69937,
 12:19:05.461,e3:ca:2d:fd:e0:8c, 2015-01-01 00:05:34.765, 1.008, -0.167, 0.023, 0, 0, 0, -81.804, -80.524, -131.935, -26.793, -6.340, -7.647, 24.33, 0.15018, 0.65015, -0.25595, 0.69937,
 12:19:05.463,ed:35:33:d3:6c:f8, 2015-01-01 00:05:34.075, 0.696, -0.202, 0.678, 0.122, -0.061, 0, -16.782, -44.324, 166.306, -19.807, -5.433, -27.207, 30.26, 0.16238, 0.35434, -0.17786, 0.9035,
 12:19:05.463,ed:35:33:d3:6c:f8, 2015-01-01 00:05:34.075, 0.695, -0.202, 0.678, 0.183, -0.122, 0, -16.776, -44.324, 166.295, -19.807, -5.433, -27.207, 30.26, 0.16238, 0.35434, -0.17786, 0.9035,
 12:19:05.465,f6:90:cc:01:6d:25, 2015-01-01 00:05:33.475, 0.899, -0.149, 0.381, 0, 0, 0, -21.226, -65.522, -146.217, -29.800, -8.033, -9.193, 27.55, 0.14471, -0.55389, -0.00635, -0.81982,
 12:19:05.465,f6:90:cc:01:6d:25, 2015-01-01 00:05:33.475, 0.9, -0.149, 0.381, 0, 0, 0, -21.226, -65.522, -146.217, -29.800, -8.033, -9.193, 27.55, 0.14471, -0.55389, -0.00635, -0.81982,
 12:19:05.484,e3:ca:2d:fd:e0:8c, 2015-01-01 00:05:34.765, 1.009, -0.167, 0.023, 0, 0, 0, -81.804, -80.524, -131.94, -26.793, -6.340, -7.647, 24.33, 0.15164, 0.64957, -0.25742, 0.69907,
 12:19:05.484,e3:ca:2d:fd:e0:8c, 2015-01-01 00:05:34.765, 1.01, -0.167, 0.022, 0, 0, 0, -81.81, -80.524, -131.951, -26.793, -6.340, -7.647, 24.33, 0.15164, 0.64957, -0.25742, 0.69907,
 12:19:05.486,ed:40:fe:65:30:6c, 2015-01-01 00:05:33.785, 0.496, 0.012, 0.869, 0, 0, 0.061, 0.368, -29.778, -134.044, -16.860, -10.307, -7.740, 24.13, 0.37817, -0.23541, -0.10318, -0.88928,
 12:19:05.486,ed:40:fe:65:30:6c, 2015-01-01 00:05:33.785, 0.498, 0.012, 0.87, 0, 0, 0.122, 0.374, -29.778, -134.05, -16.860, -10.307, -7.740, 24.13, 0.37817, -0.23541, -0.10318, -0.88928,
 12:19:05.487,f6:90:cc:01:6d:25, 2015-01-01 00:05:33.475, 0.901, -0.149, 0.381, 0, 0, 0, -21.226, -65.522, -146.217, -29.800, -8.033, -9.193, 27.55, 0.14471, -0.55389, -0.00635, -0.81982,
 12:19:05.487,f6:90:cc:01:6d:25, 2015-01-01 00:05:33.475, 0.9, -0.151, 0.381, 0, 0.061, 0, -21.231, -65.522, -146.212, -29.800, -8.033, -9.193, 27.55, 0.14471, -0.55389, -0.00635, -0.81982,
 12:19:05.507,ed:40:fe:65:30:6c, 2015-01-01 00:05:34.140, 0.498, 0.011, 0.871, -0.061, 0.061, 0.122, 0.374, -29.778, -134.055, -16.860, -10.307, -7.740, 24.13, 0.37817, -0.23541, -0.10318, -0.88928,
 12:19:05.507,ed:40:fe:65:30:6c, 2015-01-01 00:05:34.140, 0.497, 0.012, 0.871, -0.061, 0.122, 0.183, 0.374, -29.773, -134.061, -16.860, -10.307, -7.740, 24.13, 0.37817, -0.23541, -0.10318, -0.88928,
 12:19:05.508,ed:35:33:d3:6c:f8, 2015-01-01 00:05:34.075, 0.697, -0.201, 0.678, 0.183, -0.122, 0, -16.771, -44.33, 166.284, -19.807, -5.433, -27.207, 30.26, 0.16391, 0.35443, -0.17865, 0.90305,
 12:19:05.508,ed:35:33:d3:6c:f8, 2015-01-01 00:05:34.075, 0.698, -0.203, 0.679, 0.244, -0.061, 0, -16.765, -44.335, 166.278, -19.807, -5.433, -27.207, 30.26, 0.16391, 0.35443, -0.17865, 0.90305,
 12:19:05.528,e3:ca:2d:fd:e0:8c, 2015-01-01 00:05:34.765, 1.01, -0.168, 0.023, 0, 0, 0, -81.81, -80.524, -131.962, -26.793, -6.340, -7.647, 24.33, 0.15164, 0.64957, -0.25742, 0.69907,
 12:19:05.528,e3:ca:2d:fd:e0:8c, 2015-01-01 00:05:34.765, 1.008, -0.168, 0.022, 0, 0, 0, -81.815, -80.524, -131.973, -26.793, -6.340, -7.647, 24.33, 0.15164, 0.64957, -0.25742, 0.69907,
 12:19:05.532,f6:90:cc:01:6d:25, 2015-01-01 00:05:33.475, 0.899, -0.15, 0.381, 0, 0.061, 0, -21.231, -65.517, -146.212, -29.800, -8.033, -9.193, 27.55, 0.14471, -0.55389, -0.00635, -0.81982,
 12:19:05.532,f6:90:cc:01:6d:25, 2015-01-01 00:05:33.475, 0.899, -0.15, 0.381, 0, 0.122, 0, -21.231, -65.517, -146.212, -29.800, -8.033, -9.193, 27.55, 0.14471, -0.55389, -0.00635, -0.81982,
 12:19:05.552,ed:40:fe:65:30:6c, 2015-01-01 00:05:34.140, 0.496, 0.011, 0.87, 0.061, 0.122, 0.244, 0.379, -29.773, -134.061, -16.860, -10.307, -7.740, 24.13, 0.37817, -0.23541, -0.10318, -0.88928,
 12:19:05.552,ed:40:fe:65:30:6c, 2015-01-01 00:05:34.140, 0.495, 0.011, 0.871, 0, 0.061, 0.244, 0.379, -29.773, -134.066, -16.860, -10.307, -7.740, 24.13, 0.37817, -0.23541, -0.10318, -0.88928,
 12:19:05.553,ed:35:33:d3:6c:f8, 2015-01-01 00:05:34.075, 0.698, -0.202, 0.679, 0.183, 0, 0, -16.76, -44.335, 166.267, -19.807, -5.433, -27.207, 30.26, 0.16391, 0.35443, -0.17865, 0.90305,
 12:19:05.553,ed:35:33:d3:6c:f8, 2015-01-01 00:05:34.075, 0.696, -0.202, 0.679, 0.305, 0, 0, -16.754, -44.341, 166.256, -19.807, -5.433, -27.207, 30.26, 0.16391, 0.35443, -0.17865, 0.90305,
 12:19:05.574,e3:ca:2d:fd:e0:8c, 2015-01-01 00:05:35.100, 1.007, -0.168, 0.023, 0, 0.122, 0, -81.81, -80.524, -131.99, -26.793, -6.340, -7.647, 24.33, 0.15164, 0.64957, -0.25742, 0.69907,
 12:19:05.574,e3:ca:2d:fd:e0:8c, 2015-01-01 00:05:35.100, 1.008, -0.168, 0.022, 0, 0, 0, -81.81, -80.524, -132.006, -26.793, -6.340, -7.647, 24.33, 0.15164, 0.64957, -0.25742, 0.69907,
 12:19:05.576,ed:35:33:d3:6c:f8, 2015-01-01 00:05:34.430, 0.695, -0.203, 0.679, 0.183, 0, 0, -16.743, -44.341, 166.251, -19.807, -5.433, -27.207, 30.26, 0.16391, 0.35443, -0.17865, 0.90305,
 12:19:05.576,ed:35:33:d3:6c:f8, 2015-01-01 00:05:34.430, 0.695, -0.201, 0.679, 0.183, -0.061, 0, -16.738, -44.341, 166.24, -19.807, -5.433, -27.207, 30.26, 0.16391, 0.35443, -0.17865, 0.90305,
 12:19:05.578,f6:90:cc:01:6d:25, 2015-01-01 00:05:33.475, 0.899, -0.15, 0.381, 0, 0.122, 0, -21.231, -65.517, -146.212, -29.800, -8.033, -9.193, 27.55, 0.14471, -0.55389, -0.00635, -0.81982,
 12:19:05.578,f6:90:cc:01:6d:25, 2015-01-01 00:05:33.475, 0.9, -0.149, 0.382, 0, 0.061, 0, -21.237, -65.511, -146.217, -29.800, -8.033, -9.193, 27.55, 0.14471, -0.55389, -0.00635, -0.81982,
 12:19:05.596,e3:ca:2d:fd:e0:8c, 2015-01-01 00:05:35.100, 1.008, -0.167, 0.022, 0, 0, 0, -81.81, -80.519, -132.017, -26.793, -6.340, -7.647, 24.33, 0.15164, 0.64957, -0.25742, 0.69907,
 12:19:05.596,e3:ca:2d:fd:e0:8c, 2015-01-01 00:05:35.100, 1.008, -0.167, 0.023, 0, 0, 0, -81.815, -80.519, -132.023, -26.793, -6.340, -7.647, 24.33, 0.15164, 0.64957, -0.25742, 0.69907,
 12:19:05.597,ed:40:fe:65:30:6c, 2015-01-01 00:05:34.140, 0.495, 0.011, 0.871, 0, 0, 0.183, 0.385, -29.767, -134.072, -16.860, -10.307, -7.740, 24.13, 0.37817, -0.23541, -0.10318, -0.88928,
 12:19:05.597,ed:40:fe:65:30:6c, 2015-01-01 00:05:34.140, 0.496, 0.01, 0.871, 0, 0, 0.244, 0.385, -29.767, -134.072, -16.860, -10.307, -7.740, 24.13, 0.37817, -0.23541, -0.10318, -0.88928,
 12:19:05.598,ed:35:33:d3:6c:f8, 2015-01-01 00:05:34.430, 0.696, -0.203, 0.681, 0.244, -0.061, 0, -16.732, -44.346, 166.229, -19.807, -5.433, -27.207, 30.26, 0.16391, 0.35443, -0.17865, 0.90305,
 12:19:05.598,ed:35:33:d3:6c:f8, 2015-01-01 00:05:34.430, 0.695, -0.203, 0.679, 0.061, -0.061, 0, -16.727, -44.352, 166.223, -19.807, -5.433, -27.207, 30.26, 0.16391, 0.35443, -0.17865, 0.90305,
 12:19:05.623,f6:90:cc:01:6d:25, 2015-01-01 00:05:33.475, 0.899, -0.15, 0.381, 0, 0.061, 0, -21.237, -65.511, -146.217, -29.547, -7.467, -9.920, 27.55, 0.14471, -0.55389, -0.00635, -0.81982,
 12:19:05.623,f6:90:cc:01:6d:25, 2015-01-01 00:05:33.475, 0.899, -0.149, 0.383, 0, 0.061, 0, -21.237, -65.511, -146.212, -29.547, -7.467, -9.920, 27.55, 0.14471, -0.55389, -0.00635, -0.81982,
 12:19:05.642,ed:40:fe:65:30:6c, 2015-01-01 00:05:34.140, 0.495, 0.011, 0.871, 0, 0, 0.244, 0.385, -29.767, -134.077, -16.860, -10.307, -7.740, 24.13, 0.37817, -0.23541, -0.10318, -0.88928,
 12:19:05.642,ed:40:fe:65:30:6c, 2015-01-01 00:05:34.140, 0.498, 0.012, 0.871, 0, 0.061, 0.183, 0.39, -29.767, -134.077, -16.860, -10.307, -7.740, 24.13, 0.37817, -0.23541, -0.10318, -0.88928,
 12:19:05.644,ed:35:33:d3:6c:f8, 2015-01-01 00:05:34.430, 0.697, -0.202, 0.679, 0.122, -0.122, 0, -16.727, -44.352, 166.212, -19.807, -5.433, -27.207, 30.26, 0.16391, 0.35443, -0.17865, 0.90305,
 12:19:05.644,ed:35:33:d3:6c:f8, 2015-01-01 00:05:34.430, 0.697, -0.202, 0.68, 0, 0.122, 0, -16.721, -44.357, 166.201, -19.807, -5.433, -27.207, 30.26, 0.16391, 0.35443, -0.17865, 0.90305,
 12:19:05.664,e3:ca:2d:fd:e0:8c, 2015-01-01 00:05:35.100, 1.008, -0.167, 0.023, 0, 0, 0, -81.821, -80.519, -132.034, -26.793, -6.340, -7.647, 24.33, 0.15164, 0.64957, -0.25742, 0.69907,
 12:19:05.664,e3:ca:2d:fd:e0:8c, 2015-01-01 00:05:35.100, 1.009, -0.167, 0.024, 0, 0, 0, -81.826, -80.519, -132.039, -26.793, -6.340, -7.647, 24.33, 0.15164, 0.64957, -0.25742, 0.69907,
 12:19:05.666,ed:35:33:d3:6c:f8, 2015-01-01 00:05:34.430, 0.693, -0.202, 0.676, 0.183, -0.305, 0, -16.721, -44.357, 166.196, -19.807, -5.433, -27.207, 30.26, 0.16391, 0.35443, -0.17865, 0.90305,
 12:19:05.666,ed:35:33:d3:6c:f8, 2015-01-01 00:05:34.430, 0.693, -0.198, 0.677, 0.122, 0, 0, -16.716, -44.363, 166.19, -19.807, -5.433, -27.207, 30.26, 0.16391, 0.35443, -0.17865, 0.90305,
 12:19:05.667,f6:90:cc:01:6d:25, 2015-01-01 00:05:33.475, 0.901, -0.149, 0.382, 0.244, 0, 0, -21.237, -65.511, -146.212, -29.547, -7.467, -9.920, 27.55, 0.14474, -0.55386, -0.0062, -0.81985,
 12:19:05.667,f6:90:cc:01:6d:25, 2015-01-01 00:05:33.475, 0.896, -0.154, 0.382, 0.122, 0.122, 0, -21.237, -65.506, -146.212, -29.547, -7.467, -9.920, 27.55, 0.14474, -0.55386, -0.0062, -0.81985,
 12:19:05.686,e3:ca:2d:fd:e0:8c, 2015-01-01 00:05:35.100, 1.006, -0.168, 0.024, 0, 0, 0, -81.826, -80.519, -132.05, -26.793, -6.340, -7.647, 24.33, 0.15164, 0.64957, -0.25742, 0.69907,
 12:19:05.686,e3:ca:2d:fd:e0:8c, 2015-01-01 00:05:35.100, 1.003, -0.167, 0.025, 0, 0, 0, -81.832, -80.519, -132.061, -26.793, -6.340, -7.647, 24.33, 0.15164, 0.64957, -0.25742, 0.69907,
 12:19:05.691,f6:90:cc:01:6d:25, 2015-01-01 00:05:33.765, 0.895, -0.146, 0.383, -0.305, 0.244, 0, -21.237, -65.506, -146.212, -29.547, -7.467, -9.920, 27.55, 0.14474, -0.55386, -0.0062, -0.81985,
 12:19:05.691,f6:90:cc:01:6d:25, 2015-01-01 00:05:33.765, 0.901, -0.145, 0.383, -0.061, 0.122, 0, -21.237, -65.5, -146.217, -29.547, -7.467, -9.920, 27.55, 0.14474, -0.55386, -0.0062, -0.81985,
 12:19:05.710,ed:35:33:d3:6c:f8, 2015-01-01 00:05:34.430, 0.699, -0.199, 0.678, -0.061, 0.427, 0, -16.71, -44.363, 166.179, -19.807, -5.433, -27.207, 30.26, 0.16391, 0.35443, -0.17865, 0.90305,
 12:19:05.710,ed:35:33:d3:6c:f8, 2015-01-01 00:05:34.430, 0.701, -0.203, 0.683, 0.122, 0.549, 0, -16.71, -44.357, 166.168, -19.807, -5.433, -27.207, 30.26, 0.16391, 0.35443, -0.17865, 0.90305,
 12:19:05.710,ed:40:fe:65:30:6c, 2015-01-01 00:05:34.140, 0.497, 0.011, 0.872, 0.061, 0.183, 0.122, 0.39, -29.762, -134.083, -16.860, -10.307, -7.740, 24.13, 0.37817, -0.23541, -0.10318, -0.88928,
 12:19:05.710,ed:40:fe:65:30:6c, 2015-01-01 00:05:34.140, 0.492, 0.01, 0.867, 0, 0.122, 0.305, 0.396, -29.756, -134.083, -16.860, -10.307, -7.740, 24.13, 0.37817, -0.23541, -0.10318, -0.88928,
 12:19:05.731,e3:ca:2d:fd:e0:8c, 2015-01-01 00:05:35.100, 1.009, -0.166, 0.025, 0, 0, 0, -81.832, -80.519, -132.067, -26.793, -6.340, -7.647, 24.33, 0.15164, 0.64957, -0.25742, 0.69907,
 12:19:05.731,e3:ca:2d:fd:e0:8c, 2015-01-01 00:05:35.100, 1.015, -0.167, 0.023, 0, 0, 0, -81.832, -80.519, -132.078, -26.793, -6.340, -7.647, 24.33, 0.15164, 0.64957, -0.25742, 0.69907,
 12:19:05.732,ed:40:fe:65:30:6c, 2015-01-01 00:05:34.140, 0.493, 0.017, 0.869, -0.183, 0.244, 0.183, 0.39, -29.751, -134.088, -16.900, -10.340, -7.193, 24.13, 0.37817, -0.23541, -0.10318, -0.88928,
 12:19:05.732,ed:40:fe:65:30:6c, 2015-01-01 00:05:34.140, 0.498, 0.013, 0.872, 0, 0.366, 0, 0.396, -29.74, -134.094, -16.900, -10.340, -7.193, 24.13, 0.37817, -0.23541, -0.10318, -0.88928,
 12:19:05.734,f6:90:cc:01:6d:25, 2015-01-01 00:05:33.765, 0.905, -0.152, 0.385, 0.122, 0, 0, -21.237, -65.5, -146.217, -29.547, -7.467, -9.920, 27.55, 0.14474, -0.55386, -0.0062, -0.81985,
 12:19:05.734,f6:90:cc:01:6d:25, 2015-01-01 00:05:33.765, 0.901, -0.15, 0.38, 0.122, 0.061, 0, -21.237, -65.5, -146.217, -29.547, -7.467, -9.920, 27.55, 0.14474, -0.55386, -0.0062, -0.81985,
 12:19:05.755,ed:35:33:d3:6c:f8, 2015-01-01 00:05:34.430, 0.699, -0.201, 0.684, 0.122, 0.061, 0, -16.699, -44.346, 166.152, -19.807, -5.433, -27.207, 30.26, 0.16391, 0.35443, -0.17865, 0.90305,
 12:19:05.755,ed:35:33:d3:6c:f8, 2015-01-01 00:05:34.430, 0.696, -0.204, 0.682, 0.061, -0.244, 0, -16.694, -44.352, 166.146, -19.807, -5.433, -27.207, 30.26, 0.16391, 0.35443, -0.17865, 0.90305,
 12:19:05.777,ed:40:fe:65:30:6c, 2015-01-01 00:05:34.140, 0.5, 0.011, 0.875, 0.061, 0.183, 0.122, 0.401, -29.74, -134.099, -16.900, -10.340, -7.193, 24.13, 0.37817, -0.23541, -0.10318, -0.88928,
 12:19:05.777,ed:40:fe:65:30:6c, 2015-01-01 00:05:34.140, 0.497, 0.014, 0.875, 0.122, 0.244, 0.244, 0.406, -29.729, -134.105, -16.900, -10.340, -7.193, 24.13, 0.37817, -0.23541, -0.10318, -0.88928,
 12:19:05.780,f6:90:cc:01:6d:25, 2015-01-01 00:05:33.765, 0.9, -0.147, 0.378, -0.122, 0.061, 0, -21.237, -65.495, -146.217, -29.547, -7.467, -9.920, 27.55, 0.14474, -0.55386, -0.0062, -0.81985,
 12:19:05.780,f6:90:cc:01:6d:25, 2015-01-01 00:05:33.765, 0.899, -0.147, 0.381, -0.244, 0, 0, -21.242, -65.495, -146.212, -29.547, -7.467, -9.920, 27.55, 0.14474, -0.55386, -0.0062, -0.81985,
 12:19:05.800,ed:40:fe:65:30:6c, 2015-01-01 00:05:34.140, 0.495, 0.011, 0.872, 0, -0.061, 0.122, 0.412, -29.734, -134.11, -16.900, -10.340, -7.193, 24.13, 0.37762, -0.23489, -0.10321, -0.88965,
 12:19:05.800,ed:40:fe:65:30:6c, 2015-01-01 00:05:34.140, 0.494, 0.012, 0.872, -0.183, -0.183, -0.061, 0.412, -29.734, -134.116, -16.900, -10.340, -7.193, 24.13, 0.37762, -0.23489, -0.10321, -0.88965,
 12:19:05.821,e3:ca:2d:fd:e0:8c, 2015-01-01 00:05:35.100, 1.01, -0.167, 0.022, 0, 0, 0, -81.832, -80.519, -132.083, -26.700, -6.687, -7.427, 24.33, 0.15164, 0.64957, -0.25742, 0.69907,
 12:19:05.821,e3:ca:2d:fd:e0:8c, 2015-01-01 00:05:35.100, 1.01, -0.165, 0.021, 0, 0, 0, -81.832, -80.519, -132.094, -26.700, -6.687, -7.427, 24.33, 0.15164, 0.64957, -0.25742, 0.69907,
 12:19:05.823,ed:35:33:d3:6c:f8, 2015-01-01 00:05:34.430, 0.695, -0.203, 0.68, -0.244, -0.183, 0, -16.694, -44.357, 166.141, -19.267, -5.467, -27.300, 30.26, 0.16391, 0.35443, -0.17865, 0.90305,
 12:19:05.823,ed:35:33:d3:6c:f8, 2015-01-01 00:05:34.430, 0.695, -0.199, 0.678, -0.305, -0.061, 0, -16.699, -44.363, 166.13, -19.267, -5.467, -27.300, 30.26, 0.16391, 0.35443, -0.17865, 0.90305,
 12:19:05.825,f6:90:cc:01:6d:25, 2015-01-01 00:05:33.765, 0.897, -0.148, 0.382, -0.244, -0.061, 0, -21.248, -65.495, -146.212, -29.547, -7.467, -9.920, 27.55, 0.14474, -0.55386, -0.0062, -0.81985,
 12:19:05.825,f6:90:cc:01:6d:25, 2015-01-01 00:05:33.765, 0.897, -0.15, 0.381, -0.061, -0.122, 0, -21.253, -65.5, -146.212, -29.547, -7.467, -9.920, 27.55, 0.14474, -0.55386, -0.0062, -0.81985,
 12:19:05.844,e3:ca:2d:fd:e0:8c, 2015-01-01 00:05:35.100, 1.009, -0.165, 0.021, -0.122, 0.244, 0, -81.81, -80.519, -132.127, -26.700, -6.687, -7.427, 24.33, 0.15283, 0.64911, -0.25861, 0.69879,
 12:19:05.844,e3:ca:2d:fd:e0:8c, 2015-01-01 00:05:35.100, 1.007, -0.166, 0.021, -0.061, 0.122, 0, -81.804, -80.519, -132.149, -26.700, -6.687, -7.427, 24.33, 0.15283, 0.64911, -0.25861, 0.69879,
 12:19:05.846,ed:35:33:d3:6c:f8, 2015-01-01 00:05:34.430, 0.695, -0.198, 0.677, -0.305, 0.061, 0, -16.705, -44.363, 166.124, -19.267, -5.467, -27.300, 30.26, 0.16507, 0.35455, -0.17865, 0.9028,
 12:19:05.846,ed:35:33:d3:6c:f8, 2015-01-01 00:05:34.430, 0.695, -0.197, 0.677, -0.061, 0, 0, -16.705, -44.363, 166.113, -19.267, -5.467, -27.300, 30.26, 0.16507, 0.35455, -0.17865, 0.9028,
 12:19:05.848,f6:90:cc:01:6d:25, 2015-01-01 00:05:33.765, 0.898, -0.149, 0.382, 0, -0.122, 0, -21.259, -65.5, -146.206, -29.547, -7.467, -9.920, 27.55, 0.14474, -0.55386, -0.0062, -0.81985,
 12:19:05.848,f6:90:cc:01:6d:25, 2015-01-01 00:05:33.765, 0.898, -0.149, 0.384, 0, -0.061, 0, -21.259, -65.5, -146.206, -29.547, -7.467, -9.920, 27.55, 0.14474, -0.55386, -0.0062, -0.81985,
 12:19:05.866,e3:ca:2d:fd:e0:8c, 2015-01-01 00:05:35.100, 1.007, -0.167, 0.022, -0.061, 0, 0, -81.81, -80.519, -132.16, -26.700, -6.687, -7.427, 24.33, 0.15283, 0.64911, -0.25861, 0.69879,
 12:19:05.866,e3:ca:2d:fd:e0:8c, 2015-01-01 00:05:35.100, 1.007, -0.168, 0.025, 0, -0.122, 0, -81.832, -80.519, -132.155, -26.700, -6.687, -7.427, 24.33, 0.15283, 0.64911, -0.25861, 0.69879,
 12:19:05.867,ed:40:fe:65:30:6c, 2015-01-01 00:05:34.140, 0.494, 0.014, 0.87, -0.183, 0, -0.122, 0.412, -29.734, -134.127, -16.900, -10.340, -7.193, 24.13, 0.37762, -0.23489, -0.10321, -0.88965,
 12:19:05.867,ed:40:fe:65:30:6c, 2015-01-01 00:05:34.140, 0.493, 0.015, 0.87, -0.122, 0, 0.122, 0.412, -29.729, -134.132, -16.900, -10.340, -7.193, 24.13, 0.37762, -0.23489, -0.10321, -0.88965,
 12:19:05.889,ed:40:fe:65:30:6c, 2015-01-01 00:05:34.500, 0.493, 0.013, 0.872, -0.305, 0.061, 0.122, 0.417, -29.729, -134.138, -16.900, -10.340, -7.193, 24.13, 0.37762, -0.23489, -0.10321, -0.88965,
 12:19:05.889,ed:40:fe:65:30:6c, 2015-01-01 00:05:34.500, 0.493, 0.014, 0.874, -0.61, 0.122, 0.061, 0.412, -29.729, -134.143, -16.900, -10.340, -7.193, 24.13, 0.37762, -0.23489, -0.10321, -0.88965,
 12:19:05.890,ed:35:33:d3:6c:f8, 2015-01-01 00:05:34.430, 0.693, -0.199, 0.679, -0.061, 0, 0, -16.705, -44.363, 166.108, -19.267, -5.467, -27.300, 30.26, 0.16507, 0.35455, -0.17865, 0.9028,
 12:19:05.890,ed:35:33:d3:6c:f8, 2015-01-01 00:05:34.430, 0.695, -0.201, 0.681, -0.366, 0.061, 0, -16.705, -44.368, 166.102, -19.267, -5.467, -27.300, 30.26, 0.16507, 0.35455, -0.17865, 0.9028,
 12:19:05.892,f6:90:cc:01:6d:25, 2015-01-01 00:05:33.765, 0.898, -0.149, 0.385, 0, 0, 0, -21.259, -65.5, -146.201, -29.627, -7.507, -9.273, 27.55, 0.14474, -0.55386, -0.0062, -0.81985,
 12:19:05.892,f6:90:cc:01:6d:25, 2015-01-01 00:05:33.765, 0.898, -0.149, 0.386, 0, 0, 0, -21.259, -65.5, -146.201, -29.627, -7.507, -9.273, 27.55, 0.14474, -0.55386, -0.0062, -0.81985,
 12:19:05.911,e3:ca:2d:fd:e0:8c, 2015-01-01 00:05:35.100, 1.008, -0.168, 0.026, 0, -0.061, 0, -81.843, -80.519, -132.155, -26.700, -6.687, -7.427, 24.33, 0.15283, 0.64911, -0.25861, 0.69879,
 12:19:05.911,e3:ca:2d:fd:e0:8c, 2015-01-01 00:05:35.100, 1.008, -0.168, 0.027, 0, 0, 0, -81.843, -80.519, -132.16, -26.700, -6.687, -7.427, 24.33, 0.15283, 0.64911, -0.25861, 0.69879,
 12:19:05.912,ed:40:fe:65:30:6c, 2015-01-01 00:05:34.500, 0.491, 0.012, 0.874, -0.61, 0.244, 0.061, 0.406, -29.724, -134.149, -16.900, -10.340, -7.193, 24.13, 0.37762, -0.23489, -0.10321, -0.88965,
 12:19:05.912,ed:40:fe:65:30:6c, 2015-01-01 00:05:34.500, 0.493, 0.01, 0.871, -0.549, 0.122, 0, 0.396, -29.718, -134.154, -16.900, -10.340, -7.193, 24.13, 0.37762, -0.23489, -0.10321, -0.88965,
 12:19:05.913,ed:35:33:d3:6c:f8, 2015-01-01 00:05:34.790, 0.693, -0.2, 0.682, -0.488, 0.305, 0, -16.71, -44.368, 166.091, -19.267, -5.467, -27.300, 30.26, 0.16507, 0.35455, -0.17865, 0.9028,
 12:19:05.913,ed:35:33:d3:6c:f8, 2015-01-01 00:05:34.790, 0.692, -0.204, 0.683, -0.427, 0.122, 0, -16.71, -44.363, 166.08, -19.267, -5.467, -27.300, 30.26, 0.16507, 0.35455, -0.17865, 0.9028,
 12:19:05.934,e3:ca:2d:fd:e0:8c, 2015-01-01 00:05:35.455, 1.007, -0.167, 0.026, 0, 0, 0, -81.843, -80.519, -132.166, -26.700, -6.687, -7.427, 24.33, 0.15283, 0.64911, -0.25861, 0.69879,
 12:19:05.934,e3:ca:2d:fd:e0:8c, 2015-01-01 00:05:35.455, 1.007, -0.166, 0.025, 0, 0, 0, -81.837, -80.513, -132.177, -26.700, -6.687, -7.427, 24.33, 0.15283, 0.64911, -0.25861, 0.69879,
 12:19:05.937,f6:90:cc:01:6d:25, 2015-01-01 00:05:33.765, 0.896, -0.149, 0.386, 0, 0, 0, -21.259, -65.5, -146.201, -29.627, -7.507, -9.273, 27.55, 0.14474, -0.55383, -0.00607, -0.81985,
 12:19:05.937,f6:90:cc:01:6d:25, 2015-01-01 00:05:33.765, 0.897, -0.147, 0.381, 0.061, -0.061, 0, -21.259, -65.5, -146.201, -29.627, -7.507, -9.273, 27.55, 0.14474, -0.55383, -0.00607, -0.81985,
 12:19:05.957,ed:40:fe:65:30:6c, 2015-01-01 00:05:34.500, 0.494, 0.01, 0.872, -0.488, -0.061, -0.183, 0.39, -29.713, -134.16, -16.900, -10.340, -7.193, 24.13, 0.37762, -0.23489, -0.10321, -0.88965,
 12:19:05.957,ed:40:fe:65:30:6c, 2015-01-01 00:05:34.500, 0.494, 0.01, 0.872, -0.549, -0.122, -0.366, 0.39, -29.713, -134.171, -16.900, -10.340, -7.193, 24.13, 0.37762, -0.23489, -0.10321, -0.88965,
 12:19:05.957,e3:ca:2d:fd:e0:8c, 2015-01-01 00:05:35.455, 1.007, -0.166, 0.024, -0.061, -0.122, 0, -81.854, -80.513, -132.166, -26.700, -6.687, -7.427, 24.33, 0.15283, 0.64911, -0.25861, 0.69879,
 12:19:05.958,e3:ca:2d:fd:e0:8c, 2015-01-01 00:05:35.455, 1.008, -0.166, 0.023, -0.122, -0.122, 0, -81.865, -80.519, -132.16, -26.700, -6.687, -7.427, 24.33, 0.15283, 0.64911, -0.25861, 0.69879,
 12:19:05.980,ed:35:33:d3:6c:f8, 2015-01-01 00:05:34.790, 0.694, -0.204, 0.68, -0.549, 0, 0, -16.716, -44.363, 166.075, -19.267, -5.467, -27.300, 30.26, 0.16507, 0.35455, -0.17865, 0.9028,
 12:19:05.980,ed:35:33:d3:6c:f8, 2015-01-01 00:05:34.790, 0.695, -0.204, 0.678, -0.793, -0.122, -0.305, -16.727, -44.363, 166.064, -19.267, -5.467, -27.300, 30.26, 0.16507, 0.35455, -0.17865, 0.9028,
 12:19:05.982,f6:90:cc:01:6d:25, 2015-01-01 00:05:34.035, 0.899, -0.148, 0.383, -0.183, -0.061, 0, -21.264, -65.5, -146.195, -29.627, -7.507, -9.273, 27.55, 0.14474, -0.55383, -0.00607, -0.81985,
 12:19:05.982,f6:90:cc:01:6d:25, 2015-01-01 00:05:34.035, 0.899, -0.149, 0.382, -0.183, -0.061, 0, -21.264, -65.5, -146.195, -29.627, -7.507, -9.273, 27.55, 0.14474, -0.55383, -0.00607, -0.81985,
 12:19:06.002,e3:ca:2d:fd:e0:8c, 2015-01-01 00:05:35.455, 1.009, -0.166, 0.023, -0.244, -0.183, 0, -81.892, -80.519, -132.144, -26.700, -6.687, -7.427, 24.33, 0.15283, 0.64911, -0.25861, 0.69879,
 12:19:06.002,e3:ca:2d:fd:e0:8c, 2015-01-01 00:05:35.455, 1.01, -0.166, 0.022, -0.305, -0.183, 0, -81.92, -80.519, -132.133, -26.700, -6.687, -7.427, 24.33, 0.15283, 0.64911, -0.25861, 0.69879,
 12:19:06.002,ed:40:fe:65:30:6c, 2015-01-01 00:05:34.500, 0.496, 0.016, 0.871, -0.732, -0.122, -0.305, 0.385, -29.713, -134.187, -16.900, -10.340, -7.193, 24.13, 0.37762, -0.23489, -0.10321, -0.88965,
 12:19:06.002,ed:40:fe:65:30:6c, 2015-01-01 00:05:34.500, 0.498, 0.015, 0.871, -0.793, -0.183, -0.244, 0.379, -29.713, -134.198, -16.900, -10.340, -7.193, 24.13, 0.37762, -0.23489, -0.10321, -0.88965,
 12:19:06.004,ed:35:33:d3:6c:f8, 2015-01-01 00:05:34.790, 0.698, -0.198, 0.681, -0.854, 0, -0.366, -16.732, -44.368, 166.047, -19.267, -5.467, -27.300, 30.26, 0.16507, 0.35455, -0.17865, 0.9028,
 12:19:06.004,ed:35:33:d3:6c:f8, 2015-01-01 00:05:34.790, 0.699, -0.198, 0.68, -0.793, -0.061, -0.244, -16.743, -44.368, 166.031, -19.267, -5.467, -27.300, 30.26, 0.16507, 0.35455, -0.17865, 0.9028,
 12:19:06.028,f6:90:cc:01:6d:25, 2015-01-01 00:05:34.035, 0.901, -0.148, 0.38, -0.366, 0, 0, -21.27, -65.5, -146.19, -29.627, -7.507, -9.273, 27.55, 0.14474, -0.55383, -0.00607, -0.81985,
 12:19:06.028,f6:90:cc:01:6d:25, 2015-01-01 00:05:34.035, 0.902, -0.148, 0.38, -0.366, -0.061, 0, -21.281, -65.5, -146.19, -29.627, -7.507, -9.273, 27.55, 0.14474, -0.55383, -0.00607, -0.81985,
 12:19:06.046,e3:ca:2d:fd:e0:8c, 2015-01-01 00:05:35.455, 1.011, -0.167, 0.022, -0.305, -0.122, 0, -81.936, -80.519, -132.122, -26.700, -6.687, -7.427, 24.33, 0.15283, 0.64911, -0.25861, 0.69879,
 12:19:06.046,e3:ca:2d:fd:e0:8c, 2015-01-01 00:05:35.455, 1.01, -0.167, 0.021, -0.183, -0.061, 0, -81.953, -80.519, -132.122, -26.700, -6.687, -7.427, 24.33, 0.15283, 0.64911, -0.25861, 0.69879,
 12:19:06.047,ed:40:fe:65:30:6c, 2015-01-01 00:05:34.500, 0.5, 0.011, 0.871, -0.854, -0.305, -0.183, 0.374, -29.713, -134.214, -16.900, -10.340, -7.193, 24.13, 0.37762, -0.23489, -0.10321, -0.88965,
 12:19:06.047,ed:40:fe:65:30:6c, 2015-01-01 00:05:34.500, 0.499, 0.01, 0.871, -0.549, -0.244, -0.122, 0.363, -29.718, -134.22, -16.900, -10.340, -7.193, 24.13, 0.37762, -0.23489, -0.10321, -0.88965,
 12:19:06.049,f6:90:cc:01:6d:25, 2015-01-01 00:05:34.035, 0.902, -0.15, 0.38, -0.183, 0, 0, -21.286, -65.5, -146.19, -29.627, -7.507, -9.273, 27.55, 0.14474, -0.55383, -0.00607, -0.81985,
 12:19:06.049,f6:90:cc:01:6d:25, 2015-01-01 00:05:34.035, 0.901, -0.152, 0.38, -0.122, -0.061, 0, -21.292, -65.5, -146.19, -29.627, -7.507, -9.273, 27.55, 0.14474, -0.55383, -0.00607, -0.81985,
 12:19:06.049,ed:35:33:d3:6c:f8, 2015-01-01 00:05:34.790, 0.701, -0.203, 0.678, -1.099, -0.305, -0.122, -16.754, -44.374, 166.02, -19.267, -5.467, -27.300, 30.26, 0.16507, 0.35455, -0.17865, 0.9028,
 12:19:06.049,ed:35:33:d3:6c:f8, 2015-01-01 00:05:34.790, 0.699, -0.203, 0.676, -0.916, -0.366, -0.183, -16.771, -44.379, 166.014, -19.267, -5.467, -27.300, 30.26, 0.16507, 0.35455, -0.17865, 0.9028,
 12:19:06.092,ed:40:fe:65:30:6c, 2015-01-01 00:05:34.500, 0.498, 0.012, 0.871, -0.305, -0.061, 0, 0.363, -29.724, -134.231, -16.900, -10.340, -7.193, 24.13, 0.37762, -0.23489, -0.10321, -0.88965,
 12:19:06.092,ed:40:fe:65:30:6c, 2015-01-01 00:05:34.500, 0.497, 0.013, 0.868, -0.183, 0, 0.061, 0.363, -29.724, -134.236, -16.900, -10.340, -7.193, 24.13, 0.37762, -0.23489, -0.10321, -0.88965,
 12:19:06.094,ed:35:33:d3:6c:f8, 2015-01-01 00:05:34.790, 0.699, -0.201, 0.676, -0.488, -0.183, -0.061, -16.782, -44.39, 166.003, -19.267, -5.467, -27.300, 30.26, 0.16507, 0.35455, -0.17865, 0.9028,
 12:19:06.094,ed:35:33:d3:6c:f8, 2015-01-01 00:05:34.790, 0.698, -0.2, 0.674, -0.183, -0.183, 0, -16.787, -44.396, 165.998, -19.267, -5.467, -27.300, 30.26, 0.16507, 0.35455, -0.17865, 0.9028,
 12:19:06.095,f6:90:cc:01:6d:25, 2015-01-01 00:05:34.035, 0.901, -0.149, 0.38, 0, -0.061, 0, -21.292, -65.5, -146.184, -29.627, -7.507, -9.273, 27.55, 0.14474, -0.55383, -0.00607, -0.81985,
 12:19:06.095,f6:90:cc:01:6d:25, 2015-01-01 00:05:34.035, 0.9, -0.148, 0.38, 0.061, 0, 0, -21.292, -65.5, -146.184, -29.627, -7.507, -9.273, 27.55, 0.14474, -0.55383, -0.00607, -0.81985,
 12:19:06.114,e3:ca:2d:fd:e0:8c, 2015-01-01 00:05:35.455, 1.01, -0.169, 0.021, -0.061, 0, 0, -81.953, -80.519, -132.127, -26.700, -6.687, -7.427, 24.33, 0.15283, 0.64911, -0.25861, 0.69879,
 12:19:06.114,e3:ca:2d:fd:e0:8c, 2015-01-01 00:05:35.455, 1.009, -0.168, 0.021, 0, 0, 0, -81.958, -80.519, -132.133, -26.700, -6.687, -7.427, 24.33, 0.15283, 0.64911, -0.25861, 0.69879,
 12:19:06.115,ed:40:fe:65:30:6c, 2015-01-01 00:05:34.500, 0.498, 0.011, 0.869, -0.122, 0, 0, 0.363, -29.724, -134.242, -16.720, -10.293, -7.347, 24.13, 0.37762, -0.23489, -0.10321, -0.88965,
 12:19:06.115,ed:40:fe:65:30:6c, 2015-01-01 00:05:34.500, 0.498, 0.009, 0.87, 0, 0, 0, 0.363, -29.724, -134.247, -16.720, -10.293, -7.347, 24.13, 0.37762, -0.23489, -0.10321, -0.88965,
 12:19:06.116,ed:35:33:d3:6c:f8, 2015-01-01 00:05:34.790, 0.698, -0.202, 0.675, -0.122, -0.122, 0, -16.787, -44.401, 165.992, -19.820, -5.580, -27.693, 30.26, 0.16507, 0.35455, -0.17865, 0.9028,
 12:19:06.116,ed:35:33:d3:6c:f8, 2015-01-01 00:05:34.790, 0.698, -0.204, 0.676, 0, -0.122, 0, -16.787, -44.407, 165.987, -19.820, -5.580, -27.693, 30.26, 0.16507, 0.35455, -0.17865, 0.9028,
 12:19:06.136,e3:ca:2d:fd:e0:8c, 2015-01-01 00:05:35.455, 1.009, -0.167, 0.022, 0, 0, 0, -81.964, -80.519, -132.144, -26.860, -6.407, -7.500, 24.33, 0.15283, 0.64911, -0.25861, 0.69879,
 12:19:06.136,e3:ca:2d:fd:e0:8c, 2015-01-01 00:05:35.455, 1.008, -0.167, 0.022, 0.061, 0.061, 0, -81.958, -80.519, -132.155, -26.860, -6.407, -7.500, 24.33, 0.15283, 0.64911, -0.25861, 0.69879,
 12:19:06.140,f6:90:cc:01:6d:25, 2015-01-01 00:05:34.035, 0.9, -0.149, 0.379, 0, 0, 0, -21.297, -65.5, -146.184, -29.627, -7.507, -9.273, 27.55, 0.14474, -0.55383, -0.00607, -0.81985,
 12:19:06.140,f6:90:cc:01:6d:25, 2015-01-01 00:05:34.035, 0.9, -0.152, 0.38, 0.061, 0.122, 0, -21.292, -65.5, -146.184, -29.627, -7.507, -9.273, 27.55, 0.14474, -0.55383, -0.00607, -0.81985,
 12:19:06.183,ed:35:33:d3:6c:f8, 2015-01-01 00:05:34.790, 0.699, -0.202, 0.675, 0.305, -0.183, 0, -16.787, -44.412, 165.981, -19.820, -5.580, -27.693, 30.26, 0.16507, 0.35455, -0.17865, 0.9028,
 12:19:06.183,ed:35:33:d3:6c:f8, 2015-01-01 00:05:34.790, 0.698, -0.2, 0.675, 0.488, 0, 0.122, -16.776, -44.418, 165.976, -19.820, -5.580, -27.693, 30.26, 0.16507, 0.35455, -0.17865, 0.9028,
 12:19:06.183,e3:ca:2d:fd:e0:8c, 2015-01-01 00:05:35.455, 1.009, -0.167, 0.022, 0.061, 0.061, 0, -81.958, -80.519, -132.171, -26.860, -6.407, -7.500, 24.33, 0.15283, 0.64911, -0.25861, 0.69879,
 12:19:06.183,e3:ca:2d:fd:e0:8c, 2015-01-01 00:05:35.455, 1.009, -0.167, 0.022, 0.061, 0.122, 0, -81.947, -80.519, -132.193, -26.860, -6.407, -7.500, 24.33, 0.15283, 0.64911, -0.25861, 0.69879,
 12:19:06.183,ed:40:fe:65:30:6c, 2015-01-01 00:05:34.500, 0.497, 0.01, 0.87, 0.183, 0, 0.183, 0.368, -29.724, -134.253, -16.720, -10.293, -7.347, 24.13, 0.37762, -0.23489, -0.10321, -0.88965,
 12:19:06.183,ed:40:fe:65:30:6c, 2015-01-01 00:05:34.500, 0.495, 0.013, 0.869, 0.366, 0.183, 0.366, 0.379, -29.718, -134.253, -16.720, -10.293, -7.347, 24.13, 0.37762, -0.23489, -0.10321, -0.88965,
 12:19:06.184,f6:90:cc:01:6d:25, 2015-01-01 00:05:34.035, 0.9, -0.151, 0.381, 0.183, 0.244, 0, -21.292, -65.5, -146.184, -29.720, -7.540, -9.420, 27.55, 0.14474, -0.55383, -0.00607, -0.81985,
 12:19:06.184,f6:90:cc:01:6d:25, 2015-01-01 00:05:34.035, 0.899, -0.149, 0.382, 0.244, 0.305, 0, -21.281, -65.495, -146.19, -29.720, -7.540, -9.420, 27.55, 0.14474, -0.55383, -0.00607, -0.81985,
 12:19:06.204,ed:40:fe:65:30:6c, 2015-01-01 00:05:34.500, 0.495, 0.012, 0.872, 0.305, 0.183, 0.488, 0.385, -29.718, -134.247, -16.720, -10.293, -7.347, 24.13, 0.3764, -0.23508, -0.1026, -0.89017,
 12:19:06.204,ed:40:fe:65:30:6c, 2015-01-01 00:05:34.500, 0.494, 0.011, 0.873, 0.183, 0.061, 0.427, 0.39, -29.713, -134.247, -16.720, -10.293, -7.347, 24.13, 0.3764, -0.23508, -0.1026, -0.89017,
 12:19:06.204,e3:ca:2d:fd:e0:8c, 2015-01-01 00:05:35.455, 1.009, -0.167, 0.023, 0.061, 0.122, 0, -81.936, -80.513, -132.209, -26.860, -6.407, -7.500, 24.33, 0.15396, 0.64877, -0.25977, 0.69843,
 12:19:06.204,e3:ca:2d:fd:e0:8c, 2015-01-01 00:05:35.455, 1.008, -0.167, 0.023, 0, 0.122, 0, -81.925, -80.513, -132.231, -26.860, -6.407, -7.500, 24.33, 0.15396, 0.64877, -0.25977, 0.69843,
 12:19:06.206,ed:35:33:d3:6c:f8, 2015-01-01 00:05:34.790, 0.697, -0.201, 0.678, 0.488, 0, 0.366, -16.771, -44.418, 165.976, -19.820, -5.580, -27.693, 30.26, 0.16653, 0.35464, -0.17972, 0.90228,
 12:19:06.206,ed:35:33:d3:6c:f8, 2015-01-01 00:05:34.790, 0.697, -0.203, 0.681, 0.427, 0, 0.427, -16.765, -44.423, 165.976, -19.820, -5.580, -27.693, 30.26, 0.16653, 0.35464, -0.17972, 0.90228,
 12:19:06.230,f6:90:cc:01:6d:25, 2015-01-01 00:05:34.035, 0.899, -0.149, 0.382, 0.183, 0.305, 0, -21.275, -65.49, -146.195, -29.720, -7.540, -9.420, 27.55, 0.14474, -0.55377, -0.00595, -0.81992,
 12:19:06.230,f6:90:cc:01:6d:25, 2015-01-01 00:05:34.035, 0.898, -0.151, 0.382, 0.122, 0.305, 0, -21.27, -65.484, -146.201, -29.720, -7.540, -9.420, 27.55, 0.14474, -0.55377, -0.00595, -0.81992,
 12:19:06.250,ed:40:fe:65:30:6c, 2015-01-01 00:05:34.500, 0.493, 0.011, 0.874, 0.122, -0.061, 0.366, 0.39, -29.713, -134.242, -16.720, -10.293, -7.347, 24.13, 0.3764, -0.23508, -0.1026, -0.89017,
 12:19:06.250,ed:40:fe:65:30:6c, 2015-01-01 00:05:34.500, 0.493, 0.011, 0.873, 0.061, -0.061, 0.366, 0.396, -29.713, -134.236, -16.720, -10.293, -7.347, 24.13, 0.3764, -0.23508, -0.1026, -0.89017,
 12:19:06.252,ed:35:33:d3:6c:f8, 2015-01-01 00:05:34.790, 0.696, -0.203, 0.681, 0.305, -0.183, 0.244, -16.765, -44.423, 165.981, -19.820, -5.580, -27.693, 30.26, 0.16653, 0.35464, -0.17972, 0.90228,
 12:19:06.252,ed:35:33:d3:6c:f8, 2015-01-01 00:05:34.790, 0.695, -0.203, 0.68, 0.122, -0.183, 0.244, -16.76, -44.429, 165.981, -19.820, -5.580, -27.693, 30.26, 0.16653, 0.35464, -0.17972, 0.90228,
 12:19:06.253,f6:90:cc:01:6d:25, 2015-01-01 00:05:34.325, 0.897, -0.151, 0.383, 0.061, 0.244, 0, -21.27, -65.479, -146.201, -29.720, -7.540, -9.420, 27.55, 0.14474, -0.55377, -0.00595, -0.81992,
 12:19:06.253,f6:90:cc:01:6d:25, 2015-01-01 00:05:34.325, 0.897, -0.15, 0.383, 0.061, 0.122, 0, -21.264, -65.473, -146.206, -29.720, -7.540, -9.420, 27.55, 0.14474, -0.55377, -0.00595, -0.81992,
 12:19:06.272,e3:ca:2d:fd:e0:8c, 2015-01-01 00:05:35.455, 1.008, -0.168, 0.023, 0, 0.183, 0, -81.909, -80.513, -132.259, -26.860, -6.407, -7.500, 24.33, 0.15396, 0.64877, -0.25977, 0.69843,
 12:19:06.272,e3:ca:2d:fd:e0:8c, 2015-01-01 00:05:35.455, 1.007, -0.168, 0.024, 0, 0.122, 0, -81.892, -80.513, -132.286, -26.860, -6.407, -7.500, 24.33, 0.15396, 0.64877, -0.25977, 0.69843,
 12:19:06.272,ed:40:fe:65:30:6c, 2015-01-01 00:05:34.900, 0.493, 0.011, 0.871, 0.061, -0.061, 0.305, 0.396, -29.713, -134.236, -16.720, -10.293, -7.347, 24.13, 0.3764, -0.23508, -0.1026, -0.89017,
 12:19:06.272,ed:40:fe:65:30:6c, 2015-01-01 00:05:34.900, 0.493, 0.011, 0.87, 0.061, -0.061, 0.305, 0.396, -29.713, -134.236, -16.720, -10.293, -7.347, 24.13, 0.3764, -0.23508, -0.1026, -0.89017,
 12:19:06.274,ed:35:33:d3:6c:f8, 2015-01-01 00:05:35.145, 0.694, -0.202, 0.678, 0.122, -0.244, 0.244, -16.76, -44.429, 165.987, -19.820, -5.580, -27.693, 30.26, 0.16653, 0.35464, -0.17972, 0.90228,
 12:19:06.274,ed:35:33:d3:6c:f8, 2015-01-01 00:05:35.145, 0.695, -0.202, 0.678, 0.183, -0.183, 0.244, -16.765, -44.434, 165.987, -19.820, -5.580, -27.693, 30.26, 0.16653, 0.35464, -0.17972, 0.90228,
 12:19:06.293,e3:ca:2d:fd:e0:8c, 2015-01-01 00:05:35.815, 1.006, -0.167, 0.024, 0, 0.061, 0, -81.881, -80.513, -132.308, -26.860, -6.407, -7.500, 24.33, 0.15396, 0.64877, -0.25977, 0.69843,
 12:19:06.293,e3:ca:2d:fd:e0:8c, 2015-01-01 00:05:35.815, 1.007, -0.167, 0.025, 0.061, 0.061, 0, -81.876, -80.513, -132.319, -26.860, -6.407, -7.500, 24.33, 0.15396, 0.64877, -0.25977, 0.69843,
 12:19:06.297,f6:90:cc:01:6d:25, 2015-01-01 00:05:34.325, 0.897, -0.149, 0.383, 0.061, 0.122, 0, -21.264, -65.473, -146.206, -29.720, -7.540, -9.420, 27.55, 0.14474, -0.55377, -0.00595, -0.81992,
 12:19:06.297,f6:90:cc:01:6d:25, 2015-01-01 00:05:34.325, 0.898, -0.148, 0.383, 0.061, 0.061, 0, -21.264, -65.473, -146.206, -29.720, -7.540, -9.420, 27.55, 0.14474, -0.55377, -0.00595, -0.81992,
 12:19:06.318,ed:40:fe:65:30:6c, 2015-01-01 00:05:34.900, 0.493, 0.011, 0.871, 0, -0.061, 0.244, 0.401, -29.713, -134.231, -16.720, -10.293, -7.347, 24.13, 0.3764, -0.23508, -0.1026, -0.89017,
 12:19:06.318,ed:40:fe:65:30:6c, 2015-01-01 00:05:34.900, 0.495, 0.012, 0.874, -0.061, -0.122, 0.122, 0.401, -29.713, -134.231, -16.720, -10.293, -7.347, 24.13, 0.3764, -0.23508, -0.1026, -0.89017,
 12:19:06.318,ed:35:33:d3:6c:f8, 2015-01-01 00:05:35.145, 0.695, -0.202, 0.677, 0.122, -0.305, 0.244, -16.765, -44.44, 165.987, -19.820, -5.580, -27.693, 30.26, 0.16653, 0.35464, -0.17972, 0.90228,
 12:19:06.318,ed:35:33:d3:6c:f8, 2015-01-01 00:05:35.145, 0.698, -0.202, 0.679, 0, -0.183, 0.122, -16.765, -44.445, 165.992, -19.820, -5.580, -27.693, 30.26, 0.16653, 0.35464, -0.17972, 0.90228,
 12:19:06.338,e3:ca:2d:fd:e0:8c, 2015-01-01 00:05:35.815, 1.008, -0.167, 0.025, 0, 0, 0, -81.87, -80.513, -132.33, -26.860, -6.407, -7.500, 24.33, 0.15396, 0.64877, -0.25977, 0.69843,
 12:19:06.338,e3:ca:2d:fd:e0:8c, 2015-01-01 00:05:35.815, 1.008, -0.167, 0.024, 0, 0, 0, -81.87, -80.513, -132.336, -26.860, -6.407, -7.500, 24.33, 0.15396, 0.64877, -0.25977, 0.69843,
 12:19:06.343,f6:90:cc:01:6d:25, 2015-01-01 00:05:34.325, 0.899, -0.149, 0.384, 0.061, 0.061, 0, -21.264, -65.468, -146.206, -29.720, -7.540, -9.420, 27.55, 0.14474, -0.55377, -0.00595, -0.81992,
 12:19:06.343,f6:90:cc:01:6d:25, 2015-01-01 00:05:34.325, 0.899, -0.149, 0.383, 0.061, 0.122, 0, -21.264, -65.468, -146.206, -29.720, -7.540, -9.420, 27.55, 0.14474, -0.55377, -0.00595, -0.81992,
 12:19:06.361,e3:ca:2d:fd:e0:8c, 2015-01-01 00:05:35.815, 1.009, -0.166, 0.024, 0, 0, 0, -81.87, -80.513, -132.341, -26.860, -6.407, -7.500, 24.33, 0.15396, 0.64877, -0.25977, 0.69843,
 12:19:06.361,e3:ca:2d:fd:e0:8c, 2015-01-01 00:05:35.815, 1.009, -0.166, 0.023, 0, 0, 0, -81.865, -80.513, -132.347, -26.860, -6.407, -7.500, 24.33, 0.15396, 0.64877, -0.25977, 0.69843,
 12:19:06.362,ed:40:fe:65:30:6c, 2015-01-01 00:05:34.900, 0.494, 0.014, 0.874, -0.244, 0, 0.122, 0.401, -29.713, -134.236, -16.720, -10.293, -7.347, 24.13, 0.3764, -0.23508, -0.1026, -0.89017,
 12:19:06.362,ed:40:fe:65:30:6c, 2015-01-01 00:05:34.900, 0.496, 0.014, 0.872, -0.366, 0, 0.122, 0.401, -29.713, -134.236, -16.720, -10.293, -7.347, 24.13, 0.3764, -0.23508, -0.1026, -0.89017,
 12:19:06.363,ed:35:33:d3:6c:f8, 2015-01-01 00:05:35.145, 0.698, -0.2, 0.68, -0.183, 0, 0.061, -16.765, -44.445, 165.987, -19.820, -5.580, -27.693, 30.26, 0.16653, 0.35464, -0.17972, 0.90228,
 12:19:06.363,ed:35:33:d3:6c:f8, 2015-01-01 00:05:35.145, 0.698, -0.2, 0.68, -0.427, 0, 0.122, -16.771, -44.445, 165.987, -19.820, -5.580, -27.693, 30.26, 0.16653, 0.35464, -0.17972, 0.90228,
 12:19:06.387,f6:90:cc:01:6d:25, 2015-01-01 00:05:34.325, 0.899, -0.148, 0.384, 0, 0.122, 0, -21.259, -65.462, -146.206, -29.720, -7.540, -9.420, 27.55, 0.14474, -0.55377, -0.00595, -0.81992,
 12:19:06.387,f6:90:cc:01:6d:25, 2015-01-01 00:05:34.325, 0.9, -0.148, 0.383, 0, 0, 0, -21.259, -65.462, -146.206, -29.720, -7.540, -9.420, 27.55, 0.14474, -0.55377, -0.00595, -0.81992,
 12:19:06.407,e3:ca:2d:fd:e0:8c, 2015-01-01 00:05:35.815, 1.008, -0.167, 0.023, -0.061, 0, 0, -81.865, -80.513, -132.352, -26.860, -6.407, -7.500, 24.33, 0.15396, 0.64877, -0.25977, 0.69843,
 12:19:06.407,e3:ca:2d:fd:e0:8c, 2015-01-01 00:05:35.815, 1.008, -0.167, 0.023, 0, 0, 0, -81.865, -80.513, -132.358, -26.860, -6.407, -7.500, 24.33, 0.15396, 0.64877, -0.25977, 0.69843,
 12:19:06.408,ed:35:33:d3:6c:f8, 2015-01-01 00:05:35.145, 0.698, -0.2, 0.677, -0.549, -0.061, 0.061, -16.782, -44.451, 165.981, -19.820, -5.580, -27.693, 30.26, 0.16653, 0.35464, -0.17972, 0.90228,
 12:19:06.408,ed:35:33:d3:6c:f8, 2015-01-01 00:05:35.145, 0.697, -0.201, 0.675, -0.488, 0, 0.061, -16.787, -44.451, 165.976, -19.820, -5.580, -27.693, 30.26, 0.16653, 0.35464, -0.17972, 0.90228,
 12:19:06.408,ed:40:fe:65:30:6c, 2015-01-01 00:05:34.900, 0.496, 0.013, 0.871, -0.305, -0.061, 0.122, 0.396, -29.707, -134.242, -16.720, -10.293, -7.347, 24.13, 0.3764, -0.23508, -0.1026, -0.89017,
 12:19:06.408,ed:40:fe:65:30:6c, 2015-01-01 00:05:34.900, 0.495, 0.013, 0.87, -0.305, 0, 0.122, 0.396, -29.707, -134.242, -16.720, -10.293, -7.347, 24.13, 0.3764, -0.23508, -0.1026, -0.89017,
 12:19:06.431,ed:35:33:d3:6c:f8, 2015-01-01 00:05:35.145, 0.697, -0.2, 0.676, -0.183, 0.183, 0.061, -16.793, -44.451, 165.976, -19.820, -5.580, -27.693, 30.26, 0.16653, 0.35464, -0.17972, 0.90228,
 12:19:06.431,ed:35:33:d3:6c:f8, 2015-01-01 00:05:35.145, 0.698, -0.199, 0.677, -0.366, 0.122, 0.061, -16.793, -44.451, 165.97, -19.820, -5.580, -27.693, 30.26, 0.16653, 0.35464, -0.17972, 0.90228,
 12:19:06.433,f6:90:cc:01:6d:25, 2015-01-01 00:05:34.325, 0.899, -0.148, 0.382, 0, 0, 0, -21.259, -65.462, -146.206, -29.720, -7.540, -9.420, 27.55, 0.14474, -0.55377, -0.00595, -0.81992,
 12:19:06.433,f6:90:cc:01:6d:25, 2015-01-01 00:05:34.325, 0.898, -0.148, 0.382, 0.061, 0, 0, -21.259, -65.462, -146.206, -29.720, -7.540, -9.420, 27.55, 0.14474, -0.55377, -0.00595, -0.81992,
 12:19:06.452,ed:40:fe:65:30:6c, 2015-01-01 00:05:34.900, 0.494, 0.014, 0.87, -0.427, 0.122, 0.122, 0.39, -29.707, -134.247, -16.720, -10.293, -7.347, 24.13, 0.3764, -0.23508, -0.1026, -0.89017,
 12:19:06.452,ed:40:fe:65:30:6c, 2015-01-01 00:05:34.900, 0.495, 0.013, 0.869, -0.488, 0.244, 0.061, 0.385, -29.702, -134.247, -16.720, -10.293, -7.347, 24.13, 0.3764, -0.23508, -0.1026, -0.89017,
 12:19:06.456,f6:90:cc:01:6d:25, 2015-01-01 00:05:34.325, 0.898, -0.146, 0.381, 0, 0, 0, -21.259, -65.462, -146.206, -29.787, -7.667, -9.180, 27.55, 0.14474, -0.55377, -0.00595, -0.81992,
 12:19:06.456,f6:90:cc:01:6d:25, 2015-01-01 00:05:34.325, 0.9, -0.148, 0.382, -0.061, 0.061, 0, -21.259, -65.462, -146.206, -29.787, -7.667, -9.180, 27.55, 0.14474, -0.55377, -0.00595, -0.81992,
 12:19:06.475,ed:40:fe:65:30:6c, 2015-01-01 00:05:34.900, 0.495, 0.009, 0.871, -0.244, 0, 0, 0.385, -29.696, -134.253, -16.580, -10.207, -7.513, 24.13, 0.3764, -0.23508, -0.1026, -0.89017,
 12:19:06.475,ed:40:fe:65:30:6c, 2015-01-01 00:05:34.900, 0.494, 0.01, 0.875, -0.244, -0.244, 0, 0.385, -29.696, -134.258, -16.580, -10.207, -7.513, 24.13, 0.3764, -0.23508, -0.1026, -0.89017,
 12:19:06.475,e3:ca:2d:fd:e0:8c, 2015-01-01 00:05:35.815, 1.007, -0.166, 0.023, -0.061, 0, 0, -81.865, -80.513, -132.363, -26.860, -6.407, -7.500, 24.33, 0.15396, 0.64877, -0.25977, 0.69843,
 12:19:06.475,e3:ca:2d:fd:e0:8c, 2015-01-01 00:05:35.815, 1.009, -0.166, 0.023, -0.122, 0, 0, -81.87, -80.513, -132.369, -26.860, -6.407, -7.500, 24.33, 0.15396, 0.64877, -0.25977, 0.69843,
 12:19:06.476,ed:35:33:d3:6c:f8, 2015-01-01 00:05:35.145, 0.698, -0.203, 0.679, -0.305, -0.061, 0.122, -16.798, -44.451, 165.965, -19.820, -5.580, -27.693, 30.26, 0.16653, 0.35464, -0.17972, 0.90228,
 12:19:06.476,ed:35:33:d3:6c:f8, 2015-01-01 00:05:35.145, 0.696, -0.204, 0.68, -0.244, -0.305, 0.061, -16.804, -44.451, 165.965, -19.820, -5.580, -27.693, 30.26, 0.16653, 0.35464, -0.17972, 0.90228,
 12:19:06.496,e3:ca:2d:fd:e0:8c, 2015-01-01 00:05:35.815, 1.01, -0.167, 0.023, -0.061, 0, 0, -81.87, -80.513, -132.374, -26.613, -6.487, -6.947, 24.33, 0.15396, 0.64877, -0.25977, 0.69843,
 12:19:06.496,e3:ca:2d:fd:e0:8c, 2015-01-01 00:05:35.815, 1.007, -0.167, 0.023, -0.061, 0, 0, -81.876, -80.513, -132.38, -26.613, -6.487, -6.947, 24.33, 0.15396, 0.64877, -0.25977, 0.69843,
 12:19:06.500,f6:90:cc:01:6d:25, 2015-01-01 00:05:34.325, 0.9, -0.15, 0.383, -0.122, 0, 0, -21.264, -65.462, -146.206, -29.787, -7.667, -9.180, 27.55, 0.14474, -0.55377, -0.00595, -0.81992,
 12:19:06.500,f6:90:cc:01:6d:25, 2015-01-01 00:05:34.325, 0.899, -0.151, 0.382, -0.122, 0, 0, -21.264, -65.462, -146.206, -29.787, -7.667, -9.180, 27.55, 0.14474, -0.55377, -0.00595, -0.81992,
 12:19:06.520,ed:40:fe:65:30:6c, 2015-01-01 00:05:34.900, 0.493, 0.01, 0.873, -0.366, -0.122, 0.061, 0.385, -29.702, -134.264, -16.580, -10.207, -7.513, 24.13, 0.3764, -0.23508, -0.1026, -0.89017,
 12:19:06.520,ed:40:fe:65:30:6c, 2015-01-01 00:05:34.900, 0.497, 0.012, 0.871, -0.427, -0.122, 0, 0.379, -29.702, -134.264, -16.580, -10.207, -7.513, 24.13, 0.3764, -0.23508, -0.1026, -0.89017,
 12:19:06.541,e3:ca:2d:fd:e0:8c, 2015-01-01 00:05:35.815, 1.008, -0.167, 0.023, -0.061, 0, 0, -81.876, -80.513, -132.385, -26.613, -6.487, -6.947, 24.33, 0.15396, 0.64877, -0.25977, 0.69843,
 12:19:06.541,e3:ca:2d:fd:e0:8c, 2015-01-01 00:05:35.815, 1.009, -0.167, 0.024, 0, 0, 0, -81.881, -80.513, -132.391, -26.613, -6.487, -6.947, 24.33, 0.15396, 0.64877, -0.25977, 0.69843,
 12:19:06.543,ed:35:33:d3:6c:f8, 2015-01-01 00:05:35.145, 0.696, -0.203, 0.679, -0.183, -0.305, 0.061, -16.809, -44.462, 165.959, -20.513, -5.667, -26.887, 30.26, 0.16653, 0.35464, -0.17972, 0.90228,
 12:19:06.543,ed:35:33:d3:6c:f8, 2015-01-01 00:05:35.145, 0.699, -0.202, 0.679, -0.427, -0.366, 0.061, -16.815, -44.467, 165.959, -20.513, -5.667, -26.887, 30.26, 0.16653, 0.35464, -0.17972, 0.90228,
 12:19:06.545,f6:90:cc:01:6d:25, 2015-01-01 00:05:34.325, 0.898, -0.149, 0.383, 0, 0, 0, -21.264, -65.462, -146.206, -29.787, -7.667, -9.180, 27.55, 0.14481, -0.55356, -0.00592, -0.82004,
 12:19:06.545,f6:90:cc:01:6d:25, 2015-01-01 00:05:34.325, 0.9, -0.147, 0.384, 0.061, -0.122, 0, -21.264, -65.462, -146.201, -29.787, -7.667, -9.180, 27.55, 0.14481, -0.55356, -0.00592, -0.82004,
 12:19:06.564,e3:ca:2d:fd:e0:8c, 2015-01-01 00:05:35.815, 1.006, -0.168, 0.024, 0, 0, 0, -81.881, -80.513, -132.396, -26.613, -6.487, -6.947, 24.33, 0.15475, 0.64841, -0.26053, 0.6983,
 12:19:06.564,e3:ca:2d:fd:e0:8c, 2015-01-01 00:05:35.815, 1.003, -0.167, 0.025, -0.061, 0, 0, -81.881, -80.513, -132.402, -26.613, -6.487, -6.947, 24.33, 0.15475, 0.64841, -0.26053, 0.6983,
 12:19:06.566,ed:35:33:d3:6c:f8, 2015-01-01 00:05:35.145, 0.698, -0.202, 0.678, -0.305, -0.244, 0, -16.82, -44.473, 165.959, -20.513, -5.667, -26.887, 30.26, 0.16681, 0.35501, -0.18011, 0.90201,
 12:19:06.566,ed:35:33:d3:6c:f8, 2015-01-01 00:05:35.145, 0.694, -0.199, 0.672, -0.061, -0.671, 0.183, -16.826, -44.484, 165.959, -20.513, -5.667, -26.887, 30.26, 0.16681, 0.35501, -0.18011, 0.90201,
 12:19:06.587,ed:40:fe:65:30:6c, 2015-01-01 00:05:34.900, 0.496, 0.011, 0.872, -0.183, -0.122, 0, 0.379, -29.702, -134.269, -16.580, -10.207, -7.513, 24.13, 0.37637, -0.23489, -0.10257, -0.89026,
 12:19:06.587,ed:40:fe:65:30:6c, 2015-01-01 00:05:34.900, 0.49, 0.012, 0.867, -0.305, -0.122, 0.305, 0.374, -29.702, -134.269, -16.580, -10.207, -7.513, 24.13, 0.37637, -0.23489, -0.10257, -0.89026,
 12:19:06.590,f6:90:cc:01:6d:25, 2015-01-01 00:05:34.640, 0.897, -0.154, 0.382, 0.183, -0.061, 0, -21.264, -65.462, -146.201, -29.787, -7.667, -9.180, 27.55, 0.14481, -0.55356, -0.00592, -0.82004,
 12:19:06.590,f6:90:cc:01:6d:25, 2015-01-01 00:05:34.640, 0.894, -0.148, 0.381, -0.122, 0.244, 0, -21.264, -65.457, -146.201, -29.787, -7.667, -9.180, 27.55, 0.14481, -0.55356, -0.00592, -0.82004,
 12:19:06.610,e3:ca:2d:fd:e0:8c, 2015-01-01 00:05:35.815, 1.01, -0.167, 0.025, 0, 0, 0, -81.881, -80.513, -132.407, -26.613, -6.487, -6.947, 24.33, 0.15475, 0.64841, -0.26053, 0.6983,
 12:19:06.610,e3:ca:2d:fd:e0:8c, 2015-01-01 00:05:35.815, 1.014, -0.167, 0.024, 0, -0.061, 0, -81.881, -80.508, -132.407, -26.613, -6.487, -6.947, 24.33, 0.15475, 0.64841, -0.26053, 0.6983,
 12:19:06.610,ed:40:fe:65:30:6c, 2015-01-01 00:05:35.235, 0.494, 0.017, 0.869, -0.366, 0, 0.244, 0.374, -29.702, -134.269, -16.580, -10.207, -7.513, 24.13, 0.37637, -0.23489, -0.10257, -0.89026,
 12:19:06.610,ed:40:fe:65:30:6c, 2015-01-01 00:05:35.235, 0.498, 0.017, 0.871, -0.671, 0.122, 0.122, 0.363, -29.702, -134.269, -16.580, -10.207, -7.513, 24.13, 0.37637, -0.23489, -0.10257, -0.89026,
 12:19:06.611,ed:35:33:d3:6c:f8, 2015-01-01 00:05:35.145, 0.697, -0.198, 0.675, 0, -0.427, 0.244, -16.831, -44.495, 165.965, -20.513, -5.667, -26.887, 30.26, 0.16681, 0.35501, -0.18011, 0.90201,
 12:19:06.611,ed:35:33:d3:6c:f8, 2015-01-01 00:05:35.145, 0.704, -0.195, 0.676, -0.671, 0, -0.061, -16.837, -44.5, 165.965, -20.513, -5.667, -26.887, 30.26, 0.16681, 0.35501, -0.18011, 0.90201,
 12:19:06.612,f6:90:cc:01:6d:25, 2015-01-01 00:05:34.640, 0.9, -0.145, 0.384, -0.061, 0.122, 0, -21.264, -65.457, -146.206, -29.787, -7.667, -9.180, 27.55, 0.14481, -0.55356, -0.00592, -0.82004,
 12:19:06.612,f6:90:cc:01:6d:25, 2015-01-01 00:05:34.640, 0.904, -0.15, 0.386, 0.122, 0, 0, -21.264, -65.457, -146.201, -29.787, -7.667, -9.180, 27.55, 0.14481, -0.55356, -0.00592, -0.82004,
 12:19:06.634,ed:35:33:d3:6c:f8, 2015-01-01 00:05:35.505, 0.704, -0.2, 0.68, -0.488, 0.122, 0.122, -16.842, -44.5, 165.959, -20.513, -5.667, -26.887, 30.26, 0.16681, 0.35501, -0.18011, 0.90201,
 12:19:06.634,ed:35:33:d3:6c:f8, 2015-01-01 00:05:35.505, 0.701, -0.204, 0.679, 0.183, -0.244, 0.732, -16.853, -44.5, 165.965, -20.513, -5.667, -26.887, 30.26, 0.16681, 0.35501, -0.18011, 0.90201,
 12:19:06.653,e3:ca:2d:fd:e0:8c, 2015-01-01 00:05:36.170, 1.011, -0.168, 0.023, 0.061, -0.061, 0, -81.887, -80.508, -132.407, -26.613, -6.487, -6.947, 24.33, 0.15475, 0.64841, -0.26053, 0.6983,
 12:19:06.653,e3:ca:2d:fd:e0:8c, 2015-01-01 00:05:36.170, 1.011, -0.166, 0.021, 0.061, 0.122, 0, -81.887, -80.508, -132.407, -26.613, -6.487, -6.947, 24.33, 0.15475, 0.64841, -0.26053, 0.6983,
 12:19:06.655,ed:40:fe:65:30:6c, 2015-01-01 00:05:35.235, 0.5, 0.011, 0.876, -0.366, 0.122, 0.427, 0.357, -29.696, -134.269, -16.580, -10.207, -7.513, 24.13, 0.37637, -0.23489, -0.10257, -0.89026,
 12:19:06.655,ed:40:fe:65:30:6c, 2015-01-01 00:05:35.235, 0.499, 0.01, 0.873, 0.061, 0.061, 0.793, 0.352, -29.696, -134.258, -16.580, -10.207, -7.513, 24.13, 0.37637, -0.23489, -0.10257, -0.89026,
 12:19:06.657,f6:90:cc:01:6d:25, 2015-01-01 00:05:34.640, 0.903, -0.153, 0.383, 0.122, -0.061, 0, -21.259, -65.457, -146.201, -29.787, -7.667, -9.180, 27.55, 0.14481, -0.55356, -0.00592, -0.82004,
 12:19:06.657,f6:90:cc:01:6d:25, 2015-01-01 00:05:34.640, 0.902, -0.149, 0.378, -0.061, 0, 0, -21.264, -65.457, -146.201, -29.787, -7.667, -9.180, 27.55, 0.14481, -0.55356, -0.00592, -0.82004,
 12:19:06.677,ed:40:fe:65:30:6c, 2015-01-01 00:05:35.235, 0.496, 0.006, 0.87, 0.183, -0.244, 0.549, 0.352, -29.696, -134.247, -16.580, -10.207, -7.513, 24.13, 0.37637, -0.23489, -0.10257, -0.89026,
 12:19:06.677,ed:40:fe:65:30:6c, 2015-01-01 00:05:35.235, 0.494, 0.007, 0.87, 0.122, -0.305, 0.122, 0.357, -29.702, -134.242, -16.580, -10.207, -7.513, 24.13, 0.37637, -0.23489, -0.10257, -0.89026,
 12:19:06.678,ed:35:33:d3:6c:f8, 2015-01-01 00:05:35.505, 0.697, -0.21, 0.675, 0, -0.61, 0.671, -16.859, -44.511, 165.981, -20.513, -5.667, -26.887, 30.26, 0.16681, 0.35501, -0.18011, 0.90201,
 12:19:06.678,ed:35:33:d3:6c:f8, 2015-01-01 00:05:35.505, 0.696, -0.209, 0.673, -0.244, -0.671, 0.244, -16.875, -44.522, 165.998, -20.513, -5.667, -26.887, 30.26, 0.16681, 0.35501, -0.18011, 0.90201,
 12:19:06.698,e3:ca:2d:fd:e0:8c, 2015-01-01 00:05:36.170, 1.008, -0.166, 0.021, 0, 0.183, 0, -81.87, -80.508, -132.429, -26.613, -6.487, -6.947, 24.33, 0.15475, 0.64841, -0.26053, 0.6983,
 12:19:06.698,e3:ca:2d:fd:e0:8c, 2015-01-01 00:05:36.170, 1.006, -0.165, 0.02, 0, 0.122, 0, -81.854, -80.508, -132.457, -26.613, -6.487, -6.947, 24.33, 0.15475, 0.64841, -0.26053, 0.6983,
 12:19:06.702,f6:90:cc:01:6d:25, 2015-01-01 00:05:34.640, 0.899, -0.147, 0.38, -0.061, 0, 0, -21.264, -65.457, -146.201, -29.787, -7.667, -9.180, 27.55, 0.14481, -0.55356, -0.00592, -0.82004,
 12:19:06.702,f6:90:cc:01:6d:25, 2015-01-01 00:05:34.640, 0.896, -0.147, 0.381, 0, 0, 0, -21.27, -65.457, -146.201, -29.787, -7.667, -9.180, 27.55, 0.14481, -0.55356, -0.00592, -0.82004,
 12:19:06.724,ed:35:33:d3:6c:f8, 2015-01-01 00:05:35.505, 0.697, -0.203, 0.674, -0.122, -0.305, 0, -16.88, -44.533, 165.998, -20.513, -5.667, -26.887, 30.26, 0.16681, 0.35501, -0.18011, 0.90201,
 12:19:06.724,ed:35:33:d3:6c:f8, 2015-01-01 00:05:35.505, 0.698, -0.197, 0.675, 0, -0.183, 0, -16.88, -44.539, 165.998, -20.513, -5.667, -26.887, 30.26, 0.16681, 0.35501, -0.18011, 0.90201,
 12:19:06.724,ed:40:fe:65:30:6c, 2015-01-01 00:05:35.235, 0.494, 0.012, 0.87, 0.122, -0.061, -0.061, 0.363, -29.702, -134.247, -16.580, -10.207, -7.513, 24.13, 0.37637, -0.23489, -0.10257, -0.89026,
 12:19:06.724,ed:40:fe:65:30:6c, 2015-01-01 00:05:35.235, 0.494, 0.015, 0.87, 0, -0.061, 0.061, 0.368, -29.707, -134.253, -16.580, -10.207, -7.513, 24.13, 0.37637, -0.23489, -0.10257, -0.89026,
 12:19:06.743,e3:ca:2d:fd:e0:8c, 2015-01-01 00:05:36.170, 1.007, -0.166, 0.021, 0, 0, 0, -81.848, -80.508, -132.468, -26.613, -6.487, -6.947, 24.33, 0.15475, 0.64841, -0.26053, 0.6983,
 12:19:06.743,e3:ca:2d:fd:e0:8c, 2015-01-01 00:05:36.170, 1.007, -0.167, 0.024, 0, -0.061, 0, -81.859, -80.508, -132.473, -26.613, -6.487, -6.947, 24.33, 0.15475, 0.64841, -0.26053, 0.6983,
 12:19:06.747,f6:90:cc:01:6d:25, 2015-01-01 00:05:34.640, 0.897, -0.149, 0.381, 0, 0, 0, -21.27, -65.457, -146.201, -29.787, -7.667, -9.180, 27.55, 0.14481, -0.55356, -0.00592, -0.82004,
 12:19:06.747,f6:90:cc:01:6d:25, 2015-01-01 00:05:34.640, 0.898, -0.15, 0.383, 0, -0.061, 0, -21.27, -65.457, -146.195, -29.787, -7.667, -9.180, 27.55, 0.14481, -0.55356, -0.00592, -0.82004,
 12:19:06.765,e3:ca:2d:fd:e0:8c, 2015-01-01 00:05:36.170, 1.008, -0.168, 0.027, 0, -0.122, 0, -81.87, -80.508, -132.468, -26.613, -6.487, -6.947, 24.33, 0.15475, 0.64841, -0.26053, 0.6983,
 12:19:06.765,e3:ca:2d:fd:e0:8c, 2015-01-01 00:05:36.170, 1.009, -0.168, 0.028, 0, -0.061, 0, -81.887, -80.513, -132.462, -26.613, -6.487, -6.947, 24.33, 0.15475, 0.64841, -0.26053, 0.6983,
 12:19:06.768,ed:35:33:d3:6c:f8, 2015-01-01 00:05:35.505, 0.697, -0.2, 0.676, 0.122, -0.244, 0.183, -16.88, -44.544, 165.998, -20.513, -5.667, -26.887, 30.26, 0.16681, 0.35501, -0.18011, 0.90201,
 12:19:06.768,ed:35:33:d3:6c:f8, 2015-01-01 00:05:35.505, 0.697, -0.206, 0.676, 0.244, -0.183, 0.305, -16.88, -44.55, 165.998, -20.513, -5.667, -26.887, 30.26, 0.16681, 0.35501, -0.18011, 0.90201,
 12:19:06.790,ed:40:fe:65:30:6c, 2015-01-01 00:05:35.235, 0.495, 0.013, 0.87, 0, 0, 0.244, 0.374, -29.707, -134.253, -16.580, -10.207, -7.513, 24.13, 0.37637, -0.23489, -0.10257, -0.89026,
 12:19:06.790,ed:40:fe:65:30:6c, 2015-01-01 00:05:35.235, 0.495, 0.008, 0.871, 0.061, 0, 0.366, 0.374, -29.702, -134.247, -16.580, -10.207, -7.513, 24.13, 0.37637, -0.23489, -0.10257, -0.89026,
 12:19:06.793,f6:90:cc:01:6d:25, 2015-01-01 00:05:34.640, 0.898, -0.151, 0.384, 0, -0.061, 0, -21.27, -65.457, -146.195, -29.647, -7.953, -9.060, 27.55, 0.14481, -0.55356, -0.00592, -0.82004,
 12:19:06.793,f6:90:cc:01:6d:25, 2015-01-01 00:05:34.640, 0.898, -0.152, 0.385, 0, 0, 0, -21.275, -65.457, -146.195, -29.647, -7.953, -9.060, 27.55, 0.14481, -0.55356, -0.00592, -0.82004,
 12:19:06.812,ed:40:fe:65:30:6c, 2015-01-01 00:05:35.235, 0.495, 0.008, 0.873, 0, 0, 0.244, 0.374, -29.702, -134.247, -16.413, -10.367, -8.040, 24.13, 0.37637, -0.23489, -0.10257, -0.89026,
 12:19:06.812,ed:40:fe:65:30:6c, 2015-01-01 00:05:35.235, 0.494, 0.01, 0.873, 0, 0, 0.122, 0.379, -29.702, -134.247, -16.413, -10.367, -8.040, 24.13, 0.37637, -0.23489, -0.10257, -0.89026,
 12:19:06.815,f6:90:cc:01:6d:25, 2015-01-01 00:05:34.640, 0.898, -0.15, 0.383, 0.122, 0.183, 0, -21.27, -65.457, -146.195, -29.647, -7.953, -9.060, 27.55, 0.14487, -0.55353, -0.00589, -0.82004,
 12:19:06.815,f6:90:cc:01:6d:25, 2015-01-01 00:05:34.640, 0.896, -0.15, 0.384, 0.122, 0.122, 0, -21.27, -65.451, -146.195, -29.647, -7.953, -9.060, 27.55, 0.14487, -0.55353, -0.00589, -0.82004,
 12:19:06.834,e3:ca:2d:fd:e0:8c, 2015-01-01 00:05:36.170, 1.008, -0.169, 0.027, 0, 0, 0, -81.892, -80.513, -132.457, -26.613, -6.487, -6.947, 24.33, 0.15475, 0.64841, -0.26053, 0.6983,
 12:19:06.834,e3:ca:2d:fd:e0:8c, 2015-01-01 00:05:36.170, 1.007, -0.168, 0.025, 0, 0.061, 0, -81.887, -80.508, -132.468, -26.613, -6.487, -6.947, 24.33, 0.15475, 0.64841, -0.26053, 0.6983,
 12:19:06.835,ed:35:33:d3:6c:f8, 2015-01-01 00:05:35.505, 0.697, -0.207, 0.676, 0.122, -0.061, 0.183, -16.88, -44.55, 166.003, -20.513, -5.667, -26.887, 30.26, 0.16681, 0.35501, -0.18011, 0.90201,
 12:19:06.835,ed:35:33:d3:6c:f8, 2015-01-01 00:05:35.505, 0.698, -0.205, 0.677, 0.061, 0.061, 0, -16.88, -44.55, 165.998, -20.513, -5.667, -26.887, 30.26, 0.16681, 0.35501, -0.18011, 0.90201,
 12:19:06.856,e3:ca:2d:fd:e0:8c, 2015-01-01 00:05:36.170, 1.006, -0.167, 0.024, 0, 0.061, 0, -81.876, -80.508, -132.479, -27.073, -6.580, -6.813, 24.33, 0.15475, 0.64841, -0.26053, 0.6983,
 12:19:06.856,e3:ca:2d:fd:e0:8c, 2015-01-01 00:05:36.170, 1.008, -0.166, 0.021, 0, 0, 0, -81.865, -80.508, -132.484, -27.073, -6.580, -6.813, 24.33, 0.15475, 0.64841, -0.26053, 0.6983,
 12:19:06.857,ed:40:fe:65:30:6c, 2015-01-01 00:05:35.235, 0.493, 0.01, 0.873, 0, 0, 0.061, 0.379, -29.702, -134.247, -16.413, -10.367, -8.040, 24.13, 0.37637, -0.23489, -0.10257, -0.89026,
 12:19:06.857,ed:40:fe:65:30:6c, 2015-01-01 00:05:35.235, 0.495, 0.011, 0.87, -0.244, 0, 0, 0.379, -29.696, -134.253, -16.413, -10.367, -8.040, 24.13, 0.37637, -0.23489, -0.10257, -0.89026,
 12:19:06.858,ed:35:33:d3:6c:f8, 2015-01-01 00:05:35.505, 0.695, -0.204, 0.677, 0.061, 0, 0.061, -16.875, -44.55, 165.998, -19.807, -5.413, -26.680, 30.26, 0.16681, 0.35501, -0.18011, 0.90201,
 12:19:06.858,ed:35:33:d3:6c:f8, 2015-01-01 00:05:35.505, 0.697, -0.202, 0.675, -0.122, 0, 0, -16.875, -44.555, 165.992, -19.807, -5.413, -26.680, 30.26, 0.16681, 0.35501, -0.18011, 0.90201,
 12:19:06.859,f6:90:cc:01:6d:25, 2015-01-01 00:05:34.640, 0.898, -0.148, 0.379, 0.183, 0.183, 0, -21.264, -65.446, -146.201, -29.647, -7.953, -9.060, 27.55, 0.14487, -0.55353, -0.00589, -0.82004,
 12:19:06.859,f6:90:cc:01:6d:25, 2015-01-01 00:05:34.640, 0.9, -0.15, 0.384, 0.061, 0.061, 0, -21.259, -65.446, -146.201, -29.647, -7.953, -9.060, 27.55, 0.14487, -0.55353, -0.00589, -0.82004,
 12:19:06.880,ed:40:fe:65:30:6c, 2015-01-01 00:05:35.235, 0.496, 0.011, 0.871, -0.305, -0.061, -0.061, 0.379, -29.696, -134.258, -16.413, -10.367, -8.040, 24.13, 0.37646, -0.23486, -0.10257, -0.89023,
 12:19:06.880,ed:40:fe:65:30:6c, 2015-01-01 00:05:35.235, 0.496, 0.012, 0.872, -0.183, 0, 0, 0.379, -29.696, -134.258, -16.413, -10.367, -8.040, 24.13, 0.37646, -0.23486, -0.10257, -0.89023,
 12:19:06.901,e3:ca:2d:fd:e0:8c, 2015-01-01 00:05:36.170, 1.009, -0.166, 0.022, -0.122, -0.061, 0, -81.87, -80.508, -132.484, -27.073, -6.580, -6.813, 24.33, 0.15475, 0.64841, -0.26053, 0.6983,
 12:19:06.901,e3:ca:2d:fd:e0:8c, 2015-01-01 00:05:36.170, 1.01, -0.167, 0.022, -0.122, -0.122, 0, -81.887, -80.508, -132.479, -27.073, -6.580, -6.813, 24.33, 0.15475, 0.64841, -0.26053, 0.6983,
 12:19:06.903,ed:35:33:d3:6c:f8, 2015-01-01 00:05:35.505, 0.699, -0.204, 0.675, -0.183, 0, -0.183, -16.875, -44.555, 165.987, -19.807, -5.413, -26.680, 30.26, 0.16681, 0.35501, -0.18011, 0.90201,
 12:19:06.903,ed:35:33:d3:6c:f8, 2015-01-01 00:05:35.505, 0.7, -0.201, 0.676, 0.061, 0.122, -0.122, -16.875, -44.555, 165.976, -19.807, -5.413, -26.680, 30.26, 0.16681, 0.35501, -0.18011, 0.90201,
 12:19:06.905,f6:90:cc:01:6d:25, 2015-01-01 00:05:34.930, 0.901, -0.15, 0.381, -0.061, 0.061, 0, -21.259, -65.446, -146.201, -29.647, -7.953, -9.060, 27.55, 0.14487, -0.55353, -0.00589, -0.82004,
 12:19:06.905,f6:90:cc:01:6d:25, 2015-01-01 00:05:34.930, 0.902, -0.15, 0.381, -0.061, 0.061, 0, -21.264, -65.44, -146.201, -29.647, -7.953, -9.060, 27.55, 0.14487, -0.55353, -0.00589, -0.82004,
 12:19:06.923,e3:ca:2d:fd:e0:8c, 2015-01-01 00:05:36.170, 1.011, -0.167, 0.023, -0.122, 0, 0, -81.898, -80.508, -132.473, -27.073, -6.580, -6.813, 24.33, 0.1553, 0.64819, -0.26105, 0.69818,
 12:19:06.923,e3:ca:2d:fd:e0:8c, 2015-01-01 00:05:36.170, 1.009, -0.167, 0.022, -0.061, 0.061, 0, -81.898, -80.508, -132.484, -27.073, -6.580, -6.813, 24.33, 0.1553, 0.64819, -0.26105, 0.69818,
 12:19:06.925,ed:40:fe:65:30:6c, 2015-01-01 00:05:35.235, 0.498, 0.011, 0.873, -0.244, 0, 0.061, 0.379, -29.696, -134.264, -16.413, -10.367, -8.040, 24.13, 0.37646, -0.23486, -0.10257, -0.89023,
 12:19:06.925,ed:40:fe:65:30:6c, 2015-01-01 00:05:35.235, 0.497, 0.01, 0.872, -0.305, -0.061, 0, 0.379, -29.696, -134.269, -16.413, -10.367, -8.040, 24.13, 0.37646, -0.23486, -0.10257, -0.89023,
 12:19:06.926,ed:35:33:d3:6c:f8, 2015-01-01 00:05:35.505, 0.702, -0.204, 0.677, -0.061, 0.183, 0, -16.87, -44.555, 165.97, -19.807, -5.413, -26.680, 30.26, 0.16693, 0.35559, -0.18051, 0.90164,
 12:19:06.926,ed:35:33:d3:6c:f8, 2015-01-01 00:05:35.505, 0.701, -0.205, 0.677, -0.305, 0, 0, -16.87, -44.555, 165.965, -19.807, -5.413, -26.680, 30.26, 0.16693, 0.35559, -0.18051, 0.90164,
 12:19:06.950,f6:90:cc:01:6d:25, 2015-01-01 00:05:34.930, 0.901, -0.149, 0.382, 0, 0.122, 0, -21.264, -65.44, -146.201, -29.647, -7.953, -9.060, 27.55, 0.14487, -0.55353, -0.00589, -0.82004,
 12:19:06.950,f6:90:cc:01:6d:25, 2015-01-01 00:05:34.930, 0.898, -0.15, 0.382, 0, 0.061, 0, -21.264, -65.44, -146.206, -29.647, -7.953, -9.060, 27.55, 0.14487, -0.55353, -0.00589, -0.82004,
 12:19:06.969,ed:40:fe:65:30:6c, 2015-01-01 00:05:35.570, 0.496, 0.01, 0.872, -0.183, -0.122, 0, 0.379, -29.696, -134.269, -16.413, -10.367, -8.040, 24.13, 0.37646, -0.23486, -0.10257, -0.89023,
 12:19:06.969,ed:40:fe:65:30:6c, 2015-01-01 00:05:35.570, 0.494, 0.014, 0.87, 0, -0.122, 0, 0.379, -29.696, -134.275, -16.413, -10.367, -8.040, 24.13, 0.37646, -0.23486, -0.10257, -0.89023,
 12:19:06.991,e3:ca:2d:fd:e0:8c, 2015-01-01 00:05:36.170, 1.008, -0.168, 0.022, -0.061, 0.183, 0, -81.881, -80.508, -132.501, -27.073, -6.580, -6.813, 24.33, 0.1553, 0.64819, -0.26105, 0.69818,
 12:19:06.991,e3:ca:2d:fd:e0:8c, 2015-01-01 00:05:36.170, 1.007, -0.167, 0.024, 0, 0.122, 0, -81.87, -80.508, -132.523, -27.073, -6.580, -6.813, 24.33, 0.1553, 0.64819, -0.26105, 0.69818,
 12:19:06.993,ed:35:33:d3:6c:f8, 2015-01-01 00:05:35.505, 0.7, -0.205, 0.675, -0.122, -0.305, -0.061, -16.875, -44.561, 165.959, -19.807, -5.413, -26.680, 30.26, 0.16693, 0.35559, -0.18051, 0.90164,
 12:19:06.993,ed:35:33:d3:6c:f8, 2015-01-01 00:05:35.505, 0.699, -0.2, 0.674, 0.183, -0.183, -0.061, -16.875, -44.566, 165.959, -19.807, -5.413, -26.680, 30.26, 0.16693, 0.35559, -0.18051, 0.90164,
 12:19:06.995,f6:90:cc:01:6d:25, 2015-01-01 00:05:34.930, 0.898, -0.15, 0.382, 0.061, 0.122, 0, -21.264, -65.435, -146.206, -29.647, -7.953, -9.060, 27.55, 0.14487, -0.55353, -0.00589, -0.82004,
 12:19:06.995,f6:90:cc:01:6d:25, 2015-01-01 00:05:34.930, 0.897, -0.147, 0.382, 0.061, 0.061, 0, -21.264, -65.435, -146.206, -29.647, -7.953, -9.060, 27.55, 0.14487, -0.55353, -0.00589, -0.82004,
 12:19:07.014,ed:40:fe:65:30:6c, 2015-01-01 00:05:35.570, 0.494, 0.014, 0.869, 0.122, -0.061, 0.122, 0.385, -29.696, -134.275, -16.413, -10.367, -8.040, 24.13, 0.37646, -0.23486, -0.10257, -0.89023,
 12:19:07.014,ed:40:fe:65:30:6c, 2015-01-01 00:05:35.570, 0.494, 0.013, 0.871, 0.183, 0, 0.183, 0.39, -29.696, -134.275, -16.413, -10.367, -8.040, 24.13, 0.37646, -0.23486, -0.10257, -0.89023,
 12:19:07.014,e3:ca:2d:fd:e0:8c, 2015-01-01 00:05:36.550, 1.008, -0.167, 0.023, 0.061, 0.061, 0, -81.859, -80.508, -132.539, -27.073, -6.580, -6.813, 24.33, 0.1553, 0.64819, -0.26105, 0.69818,
 12:19:07.014,e3:ca:2d:fd:e0:8c, 2015-01-01 00:05:36.550, 1.007, -0.166, 0.024, 0.061, 0, 0, -81.854, -80.508, -132.545, -27.073, -6.580, -6.813, 24.33, 0.1553, 0.64819, -0.26105, 0.69818,
 12:19:07.015,ed:35:33:d3:6c:f8, 2015-01-01 00:05:35.885, 0.699, -0.199, 0.674, 0.366, -0.183, 0, -16.864, -44.572, 165.954, -19.807, -5.413, -26.680, 30.26, 0.16693, 0.35559, -0.18051, 0.90164,
 12:19:07.015,ed:35:33:d3:6c:f8, 2015-01-01 00:05:35.885, 0.698, -0.2, 0.675, 0.305, 0.061, 0, -16.859, -44.577, 165.948, -19.807, -5.413, -26.680, 30.26, 0.16693, 0.35559, -0.18051, 0.90164,
 12:19:07.017,f6:90:cc:01:6d:25, 2015-01-01 00:05:34.930, 0.898, -0.148, 0.383, 0.061, 0, 0, -21.264, -65.435, -146.206, -29.647, -7.953, -9.060, 27.55, 0.14487, -0.55353, -0.00589, -0.82004,
 12:19:07.017,f6:90:cc:01:6d:25, 2015-01-01 00:05:34.930, 0.898, -0.148, 0.384, 0.122, 0.061, 0, -21.264, -65.435, -146.206, -29.647, -7.953, -9.060, 27.55, 0.14487, -0.55353, -0.00589, -0.82004,
 12:19:07.037,ed:40:fe:65:30:6c, 2015-01-01 00:05:35.570, 0.494, 0.014, 0.872, 0.183, 0.061, 0.183, 0.396, -29.696, -134.275, -16.413, -10.367, -8.040, 24.13, 0.37646, -0.23486, -0.10257, -0.89023,
 12:19:07.037,ed:40:fe:65:30:6c, 2015-01-01 00:05:35.570, 0.495, 0.015, 0.872, 0.122, 0.122, 0.183, 0.401, -29.696, -134.275, -16.413, -10.367, -8.040, 24.13, 0.37646, -0.23486, -0.10257, -0.89023,
 12:19:07.038,ed:35:33:d3:6c:f8, 2015-01-01 00:05:35.885, 0.699, -0.2, 0.676, 0.305, 0.183, 0.061, -16.848, -44.577, 165.948, -19.807, -5.413, -26.680, 30.26, 0.16693, 0.35559, -0.18051, 0.90164,
 12:19:07.038,ed:35:33:d3:6c:f8, 2015-01-01 00:05:35.885, 0.7, -0.199, 0.676, 0.427, 0.183, 0.061, -16.837, -44.572, 165.943, -19.807, -5.413, -26.680, 30.26, 0.16693, 0.35559, -0.18051, 0.90164,
 12:19:07.058,e3:ca:2d:fd:e0:8c, 2015-01-01 00:05:36.550, 1.008, -0.166, 0.024, 0.061, 0, 0, -81.854, -80.508, -132.55, -27.073, -6.580, -6.813, 24.33, 0.1553, 0.64819, -0.26105, 0.69818,
 12:19:07.058,e3:ca:2d:fd:e0:8c, 2015-01-01 00:05:36.550, 1.009, -0.166, 0.025, 0, 0, 0, -81.854, -80.508, -132.556, -27.073, -6.580, -6.813, 24.33, 0.1553, 0.64819, -0.26105, 0.69818,
 12:19:07.063,f6:90:cc:01:6d:25, 2015-01-01 00:05:34.930, 0.899, -0.146, 0.384, 0.061, 0.061, 0, -21.259, -65.435, -146.206, -29.647, -7.953, -9.060, 27.55, 0.14487, -0.55353, -0.00589, -0.82004,
 12:19:07.063,f6:90:cc:01:6d:25, 2015-01-01 00:05:34.930, 0.899, -0.148, 0.384, 0, 0, 0, -21.259, -65.435, -146.206, -29.647, -7.953, -9.060, 27.55, 0.14487, -0.55353, -0.00589, -0.82004,
 12:19:07.084,ed:35:33:d3:6c:f8, 2015-01-01 00:05:35.885, 0.699, -0.2, 0.677, 0.183, 0.244, 0, -16.831, -44.572, 165.938, -19.807, -5.413, -26.680, 30.26, 0.16693, 0.35559, -0.18051, 0.90164,
 12:19:07.084,ed:35:33:d3:6c:f8, 2015-01-01 00:05:35.885, 0.699, -0.201, 0.677, 0.183, 0.183, 0, -16.82, -44.572, 165.932, -19.807, -5.413, -26.680, 30.26, 0.16693, 0.35559, -0.18051, 0.90164,
 12:19:07.084,ed:40:fe:65:30:6c, 2015-01-01 00:05:35.570, 0.494, 0.014, 0.872, 0, 0.061, 0.122, 0.406, -29.691, -134.275, -16.413, -10.367, -8.040, 24.13, 0.37646, -0.23486, -0.10257, -0.89023,
 12:19:07.084,ed:40:fe:65:30:6c, 2015-01-01 00:05:35.570, 0.493, 0.013, 0.873, 0, 0.122, 0.122, 0.412, -29.691, -134.275, -16.413, -10.367, -8.040, 24.13, 0.37646, -0.23486, -0.10257, -0.89023,
 12:19:07.104,e3:ca:2d:fd:e0:8c, 2015-01-01 00:05:36.550, 1.009, -0.165, 0.025, 0, 0, 0, -81.854, -80.508, -132.556, -27.073, -6.580, -6.813, 24.33, 0.1553, 0.64819, -0.26105, 0.69818,
 12:19:07.104,e3:ca:2d:fd:e0:8c, 2015-01-01 00:05:36.550, 1.008, -0.166, 0.024, -0.061, 0, 0, -81.854, -80.508, -132.561, -27.073, -6.580, -6.813, 24.33, 0.1553, 0.64819, -0.26105, 0.69818,
 12:19:07.107,f6:90:cc:01:6d:25, 2015-01-01 00:05:34.930, 0.897, -0.149, 0.384, 0, 0, 0, -21.259, -65.435, -146.206, -29.853, -7.647, -8.520, 27.55, 0.14487, -0.55353, -0.00589, -0.82004,
 12:19:07.107,f6:90:cc:01:6d:25, 2015-01-01 00:05:34.930, 0.898, -0.148, 0.383, 0, 0, 0, -21.259, -65.435, -146.206, -29.853, -7.647, -8.520, 27.55, 0.14487, -0.55353, -0.00589, -0.82004,
 12:19:07.125,e3:ca:2d:fd:e0:8c, 2015-01-01 00:05:36.550, 1.008, -0.165, 0.024, -0.061, 0, 0, -81.854, -80.508, -132.567, -27.073, -6.580, -6.813, 24.33, 0.1553, 0.64819, -0.26105, 0.69818,
 12:19:07.125,e3:ca:2d:fd:e0:8c, 2015-01-01 00:05:36.550, 1.008, -0.165, 0.023, 0, 0, 0, -81.854, -80.508, -132.567, -27.073, -6.580, -6.813, 24.33, 0.1553, 0.64819, -0.26105, 0.69818,
 12:19:07.127,ed:40:fe:65:30:6c, 2015-01-01 00:05:35.570, 0.493, 0.013, 0.873, 0, 0.061, 0.061, 0.417, -29.685, -134.275, -16.413, -10.367, -8.040, 24.13, 0.37646, -0.23486, -0.10257, -0.89023,
 12:19:07.127,ed:40:fe:65:30:6c, 2015-01-01 00:05:35.570, 0.493, 0.014, 0.874, -0.061, 0, 0.061, 0.417, -29.685, -134.28, -16.413, -10.367, -8.040, 24.13, 0.37646, -0.23486, -0.10257, -0.89023,
 12:19:07.128,ed:35:33:d3:6c:f8, 2015-01-01 00:05:35.885, 0.698, -0.202, 0.679, 0.244, 0.061, 0, -16.815, -44.572, 165.927, -19.807, -5.413, -26.680, 30.26, 0.16693, 0.35559, -0.18051, 0.90164,
 12:19:07.128,ed:35:33:d3:6c:f8, 2015-01-01 00:05:35.885, 0.699, -0.201, 0.679, 0.122, 0, 0, -16.804, -44.572, 165.921, -19.807, -5.413, -26.680, 30.26, 0.16693, 0.35559, -0.18051, 0.90164,
 12:19:07.153,f6:90:cc:01:6d:25, 2015-01-01 00:05:34.930, 0.898, -0.147, 0.384, -0.122, 0, 0, -21.259, -65.435, -146.206, -29.853, -7.647, -8.520, 27.55, 0.14493, -0.55338, -0.00589, -0.82016,
 12:19:07.153,f6:90:cc:01:6d:25, 2015-01-01 00:05:34.930, 0.898, -0.148, 0.383, -0.183, 0, 0, -21.259, -65.429, -146.206, -29.853, -7.647, -8.520, 27.55, 0.14493, -0.55338, -0.00589, -0.82016,
 12:19:07.195,ed:40:fe:65:30:6c, 2015-01-01 00:05:35.570, 0.494, 0.014, 0.874, -0.366, -0.061, 0, 0.417, -29.68, -134.28, -16.493, -10.427, -8.000, 24.13, 0.37646, -0.23486, -0.10257, -0.89023,
 12:19:07.195,ed:40:fe:65:30:6c, 2015-01-01 00:05:35.570, 0.495, 0.013, 0.874, -0.732, -0.122, 0, 0.412, -29.68, -134.286, -16.493, -10.427, -8.000, 24.13, 0.37646, -0.23486, -0.10257, -0.89023,
 12:19:07.195,e3:ca:2d:fd:e0:8c, 2015-01-01 00:05:36.550, 1.009, -0.166, 0.023, -0.061, 0, 0, -81.848, -80.508, -132.572, -27.073, -6.580, -6.813, 24.33, 0.1553, 0.64819, -0.26105, 0.69818,
 12:19:07.195,e3:ca:2d:fd:e0:8c, 2015-01-01 00:05:36.550, 1.009, -0.167, 0.023, -0.061, 0, 0, -81.848, -80.508, -132.578, -27.073, -6.580, -6.813, 24.33, 0.1553, 0.64819, -0.26105, 0.69818,
 12:19:07.196,ed:35:33:d3:6c:f8, 2015-01-01 00:05:35.885, 0.698, -0.199, 0.679, -0.305, 0, 0, -16.804, -44.572, 165.921, -19.807, -5.413, -26.680, 30.26, 0.16693, 0.35559, -0.18051, 0.90164,
 12:19:07.196,ed:35:33:d3:6c:f8, 2015-01-01 00:05:35.885, 0.7, -0.2, 0.679, -0.671, 0.061, 0.061, -16.809, -44.572, 165.916, -19.807, -5.413, -26.680, 30.26, 0.16693, 0.35559, -0.18051, 0.90164,
 12:19:07.197,f6:90:cc:01:6d:25, 2015-01-01 00:05:35.240, 0.899, -0.15, 0.384, -0.244, -0.122, 0, -21.264, -65.435, -146.201, -29.853, -7.647, -8.520, 27.55, 0.14493, -0.55338, -0.00589, -0.82016,
 12:19:07.197,f6:90:cc:01:6d:25, 2015-01-01 00:05:35.240, 0.899, -0.15, 0.384, -0.122, -0.122, 0, -21.264, -65.435, -146.201, -29.853, -7.647, -8.520, 27.55, 0.14493, -0.55338, -0.00589, -0.82016,
 12:19:07.216,e3:ca:2d:fd:e0:8c, 2015-01-01 00:05:36.550, 1.008, -0.168, 0.024, 0, 0, 0, -81.848, -80.508, -132.578, -26.733, -6.340, -7.047, 24.33, 0.1553, 0.64819, -0.26105, 0.69818,
 12:19:07.216,e3:ca:2d:fd:e0:8c, 2015-01-01 00:05:36.550, 1.007, -0.168, 0.024, 0, 0, 0, -81.848, -80.508, -132.583, -26.733, -6.340, -7.047, 24.33, 0.1553, 0.64819, -0.26105, 0.69818,
 12:19:07.217,ed:40:fe:65:30:6c, 2015-01-01 00:05:35.570, 0.496, 0.013, 0.872, -0.671, -0.122, 0.061, 0.401, -29.685, -134.286, -16.493, -10.427, -8.000, 24.13, 0.37625, -0.23471, -0.10263, -0.89035,
 12:19:07.217,ed:40:fe:65:30:6c, 2015-01-01 00:05:35.570, 0.494, 0.009, 0.87, -0.427, -0.244, 0.061, 0.401, -29.685, -134.291, -16.493, -10.427, -8.000, 24.13, 0.37625, -0.23471, -0.10263, -0.89035,
 12:19:07.219,ed:35:33:d3:6c:f8, 2015-01-01 00:05:35.885, 0.7, -0.201, 0.677, -0.671, -0.122, 0.183, -16.826, -44.572, 165.916, -19.587, -5.567, -27.293, 30.26, 0.16693, 0.35559, -0.18051, 0.90164,
 12:19:07.219,ed:35:33:d3:6c:f8, 2015-01-01 00:05:35.885, 0.697, -0.205, 0.675, -0.366, -0.305, 0.305, -16.837, -44.577, 165.921, -19.587, -5.567, -27.293, 30.26, 0.16693, 0.35559, -0.18051, 0.90164,
 12:19:07.220,f6:90:cc:01:6d:25, 2015-01-01 00:05:35.240, 0.897, -0.15, 0.383, 0.061, -0.061, 0, -21.27, -65.435, -146.201, -29.853, -7.647, -8.520, 27.55, 0.14493, -0.55338, -0.00589, -0.82016,
 12:19:07.220,f6:90:cc:01:6d:25, 2015-01-01 00:05:35.240, 0.897, -0.15, 0.383, 0.061, -0.061, 0, -21.27, -65.435, -146.195, -29.853, -7.647, -8.520, 27.55, 0.14493, -0.55338, -0.00589, -0.82016,
 12:19:07.262,ed:40:fe:65:30:6c, 2015-01-01 00:05:35.570, 0.494, 0.008, 0.87, -0.244, -0.244, 0, 0.396, -29.691, -134.291, -16.493, -10.427, -8.000, 24.13, 0.37625, -0.23471, -0.10263, -0.89035,
 12:19:07.262,ed:40:fe:65:30:6c, 2015-01-01 00:05:35.570, 0.494, 0.011, 0.87, -0.366, -0.244, -0.061, 0.396, -29.691, -134.297, -16.493, -10.427, -8.000, 24.13, 0.37625, -0.23471, -0.10263, -0.89035,
