Time,Device name,Chip Time(),Acceleration X(g),Acceleration Y(g),Acceleration Z(g),Angular velocity X(°/s),Angular velocity Y(°/s),Angular velocity Z(°/s),Angle X(°),Angle Y(°),Angle Z(°),Magnetic field X(ʯt),Magnetic field Y(ʯt),Magnetic field Z(ʯt),Temperature(℃),Quaternions 0(),Quaternions 1(),Quaternions 2(),Quaternions 3()
 11:53:28.065,f6:90:cc:01:6d:25, 2015-01-01 00:06:20.310, 0.899, -0.021, 0.404, -0.977, -0.549, 0.427, -3.307, -65.682, -153.572, -29.927, -11.407, -7.393, 28.15, 0.17535, -0.53131, -0.0994, -0.82278,
 11:53:28.065,f6:90:cc:01:6d:25, 2015-01-01 00:06:20.310, 0.898, -0.024, 0.406, -0.793, -0.122, 0, -3.323, -65.687, -153.583, -29.927, -11.407, -7.393, 28.15, 0.17535, -0.53131, -0.0994, -0.82278,
 11:53:28.067,ed:35:33:d3:6c:f8, 2015-01-01 00:06:20.185, 0.397, 0.037, 0.903, -0.793, 1.77, -0.549, 3.56, -23.104, 154.902, -9.887, -11.913, -33.467, 28.91, 0.2066, 0.20206, -0.01376, 0.95718,
 11:53:28.067,ed:35:33:d3:6c:f8, 2015-01-01 00:06:20.185, 0.392, 0.033, 0.91, -0.427, 2.075, -1.282, 3.549, -23.071, 154.885, -9.887, -11.913, -33.467, 28.91, 0.2066, 0.20206, -0.01376, 0.95718,
 11:53:28.085,ed:40:fe:65:30:6c, 2015-01-01 00:06:25.085, 0.644, 0.086, 0.755, 0.061, 1.343, 0.732, 6.476, -40.364, -133.726, -19.673, -11.980, -3.953, 24.51, 0.38541, -0.29642, -0.1843, -0.85413,
 11:53:28.085,ed:40:fe:65:30:6c, 2015-01-01 00:06:25.085, 0.643, 0.076, 0.759, 0.305, 1.404, -0.061, 6.476, -40.336, -133.72, -19.673, -11.980, -3.953, 24.51, 0.38541, -0.29642, -0.1843, -0.85413,
 11:53:28.087,e3:ca:2d:fd:e0:8c, 2015-01-01 00:06:19.960, 0.961, -0.095, 0.329, -0.305, 0, 0.122, -15.029, -70.247, -173.205, -29.340, -9.967, -11.993, 23.81, 0.02643, 0.57361, -0.07208, 0.81546,
 11:53:28.087,e3:ca:2d:fd:e0:8c, 2015-01-01 00:06:19.960, 0.96, -0.097, 0.33, -0.305, -0.183, 0, -15.051, -70.252, -173.216, -29.340, -9.967, -11.993, 23.81, 0.02643, 0.57361, -0.07208, 0.81546,
 11:53:28.108,ed:40:fe:65:30:6c, 2015-01-01 00:06:25.465, 0.641, 0.075, 0.763, 0.183, 1.343, -1.221, 6.493, -40.303, -133.731, -19.673, -11.980, -3.953, 24.51, 0.38541, -0.29642, -0.1843, -0.85413,
 11:53:28.108,ed:40:fe:65:30:6c, 2015-01-01 00:06:25.465, 0.639, 0.08, 0.765, 0.488, 1.038, -1.709, 6.526, -40.276, -133.775, -19.673, -11.980, -3.953, 24.51, 0.38541, -0.29642, -0.1843, -0.85413,
 11:53:28.109,e3:ca:2d:fd:e0:8c, 2015-01-01 00:06:19.960, 0.96, -0.101, 0.33, -0.244, -0.427, -0.183, -15.068, -70.258, -173.238, -28.900, -10.373, -12.553, 23.81, 0.02643, 0.57361, -0.07208, 0.81546,
 11:53:28.109,e3:ca:2d:fd:e0:8c, 2015-01-01 00:06:19.960, 0.964, -0.104, 0.329, 0, -0.488, -0.488, -15.079, -70.263, -173.249, -28.900, -10.373, -12.553, 23.81, 0.02643, 0.57361, -0.07208, 0.81546,
 11:53:28.110,f6:90:cc:01:6d:25, 2015-01-01 00:06:20.310, 0.898, -0.028, 0.41, -0.793, 0, -0.427, -3.323, -65.687, -153.605, -29.927, -11.407, -7.393, 28.15, 0.17535, -0.53131, -0.0994, -0.82278,
 11:53:28.110,f6:90:cc:01:6d:25, 2015-01-01 00:06:20.310, 0.899, -0.033, 0.409, -0.671, 0.305, -0.977, -3.296, -65.682, -153.649, -29.927, -11.407, -7.393, 28.15, 0.17535, -0.53131, -0.0994, -0.82278,
 11:53:28.111,ed:35:33:d3:6c:f8, 2015-01-01 00:06:20.520, 0.388, 0.04, 0.915, 1.038, 2.014, -1.343, 3.56, -23.033, 154.858, -9.887, -11.913, -33.467, 28.91, 0.2066, 0.20206, -0.01376, 0.95718,
 11:53:28.111,ed:35:33:d3:6c:f8, 2015-01-01 00:06:20.520, 0.391, 0.039, 0.914, 1.404, 1.831, -1.831, 3.587, -22.994, 154.847, -9.887, -11.913, -33.467, 28.91, 0.2066, 0.20206, -0.01376, 0.95718,
 11:53:28.131,ed:40:fe:65:30:6c, 2015-01-01 00:06:25.465, 0.646, 0.082, 0.768, 0, 1.099, -2.38, 6.564, -40.248, -133.841, -19.673, -11.980, -3.953, 24.51, 0.38541, -0.29642, -0.1843, -0.85413,
 11:53:28.131,ed:40:fe:65:30:6c, 2015-01-01 00:06:25.465, 0.646, 0.083, 0.763, 0.427, 0.854, -2.625, 6.603, -40.215, -133.923, -19.673, -11.980, -3.953, 24.51, 0.38541, -0.29642, -0.1843, -0.85413,
 11:53:28.154,e3:ca:2d:fd:e0:8c, 2015-01-01 00:06:19.960, 0.97, -0.106, 0.326, 0.305, 0, -0.793, -15.068, -70.274, -173.276, -28.900, -10.373, -12.553, 23.81, 0.02643, 0.57361, -0.07208, 0.81546,
 11:53:28.154,e3:ca:2d:fd:e0:8c, 2015-01-01 00:06:19.960, 0.971, -0.108, 0.328, 0.61, 0.244, -0.854, -15.04, -70.28, -173.315, -28.900, -10.373, -12.553, 23.81, 0.02643, 0.57361, -0.07208, 0.81546,
 11:53:28.156,ed:35:33:d3:6c:f8, 2015-01-01 00:06:20.520, 0.393, 0.045, 0.919, 1.404, 2.075, -2.808, 3.625, -22.956, 154.836, -9.887, -11.913, -33.467, 28.91, 0.2066, 0.20206, -0.01376, 0.95718,
 11:53:28.156,ed:35:33:d3:6c:f8, 2015-01-01 00:06:20.520, 0.387, 0.066, 0.92, 1.892, 1.77, -1.526, 3.669, -22.917, 154.814, -9.887, -11.913, -33.467, 28.91, 0.2066, 0.20206, -0.01376, 0.95718,
 11:53:28.175,ed:40:fe:65:30:6c, 2015-01-01 00:06:25.465, 0.644, 0.096, 0.769, 1.16, 0.488, -1.77, 6.652, -40.193, -134.011, -19.673, -11.980, -3.953, 24.51, 0.38541, -0.29642, -0.1843, -0.85413,
 11:53:28.175,ed:40:fe:65:30:6c, 2015-01-01 00:06:25.465, 0.644, 0.1, 0.769, 1.16, 0.671, -0.732, 6.702, -40.177, -134.072, -19.673, -11.980, -3.953, 24.51, 0.38541, -0.29642, -0.1843, -0.85413,
 11:53:28.179,f6:90:cc:01:6d:25, 2015-01-01 00:06:20.310, 0.904, -0.036, 0.404, -0.305, 0.549, -1.526, -3.241, -65.671, -153.71, -29.940, -11.753, -7.633, 28.15, 0.17535, -0.53131, -0.0994, -0.82278,
 11:53:28.179,f6:90:cc:01:6d:25, 2015-01-01 00:06:20.310, 0.907, -0.034, 0.406, 0, 0.427, -1.953, -3.17, -65.665, -153.776, -29.940, -11.753, -7.633, 28.15, 0.17535, -0.53131, -0.0994, -0.82278,
 11:53:28.179,ed:35:33:d3:6c:f8, 2015-01-01 00:06:20.520, 0.389, 0.068, 0.922, 1.77, 1.648, -0.061, 3.713, -22.885, 154.814, -9.887, -11.913, -33.467, 28.91, 0.2066, 0.20206, -0.01376, 0.95718,
 11:53:28.179,ed:35:33:d3:6c:f8, 2015-01-01 00:06:20.520, 0.387, 0.065, 0.92, 1.16, 1.221, 0.061, 3.741, -22.857, 154.836, -9.887, -11.913, -33.467, 28.91, 0.2066, 0.20206, -0.01376, 0.95718,
 11:53:28.201,f6:90:cc:01:6d:25, 2015-01-01 00:06:20.310, 0.907, -0.033, 0.405, 0.305, 0.122, -2.075, -3.082, -65.66, -153.864, -29.940, -11.753, -7.633, 28.15, 0.17566, -0.53302, -0.10046, -0.82147,
 11:53:28.201,f6:90:cc:01:6d:25, 2015-01-01 00:06:20.310, 0.905, -0.032, 0.407, 0.549, 0.183, -1.953, -2.999, -65.66, -153.951, -29.940, -11.753, -7.633, 28.15, 0.17566, -0.53302, -0.10046, -0.82147,
 11:53:28.221,ed:40:fe:65:30:6c, 2015-01-01 00:06:25.465, 0.642, 0.1, 0.768, 0.854, 0.732, -0.244, 6.729, -40.161, -134.11, -19.673, -11.980, -3.953, 24.51, 0.38541, -0.29642, -0.1843, -0.85413,
 11:53:28.221,ed:40:fe:65:30:6c, 2015-01-01 00:06:25.465, 0.639, 0.105, 0.766, 0.854, 0.549, 0.061, 6.751, -40.144, -134.127, -19.673, -11.980, -3.953, 24.51, 0.38541, -0.29642, -0.1843, -0.85413,
 11:53:28.221,e3:ca:2d:fd:e0:8c, 2015-01-01 00:06:19.960, 0.968, -0.109, 0.327, 0.793, 0.488, -0.916, -14.996, -70.28, -173.348, -28.900, -10.373, -12.553, 23.81, 0.02792, 0.57587, -0.07361, 0.81369,
 11:53:28.221,e3:ca:2d:fd:e0:8c, 2015-01-01 00:06:19.960, 0.963, -0.109, 0.327, 0.732, 0.366, -1.038, -14.952, -70.274, -173.381, -28.900, -10.373, -12.553, 23.81, 0.02792, 0.57587, -0.07361, 0.81369,
 11:53:28.225,ed:35:33:d3:6c:f8, 2015-01-01 00:06:20.520, 0.385, 0.069, 0.92, 0.671, 0.916, 0.305, 3.757, -22.835, 154.852, -9.887, -11.913, -33.467, 28.91, 0.2066, 0.20206, -0.01376, 0.95718,
 11:53:28.225,ed:35:33:d3:6c:f8, 2015-01-01 00:06:20.520, 0.384, 0.073, 0.92, 0.488, 0.61, 0.366, 3.763, -22.824, 154.869, -9.887, -11.913, -33.467, 28.91, 0.2066, 0.20206, -0.01376, 0.95718,
 11:53:28.245,ed:40:fe:65:30:6c, 2015-01-01 00:06:25.465, 0.638, 0.108, 0.765, 0.732, 0.305, 0.366, 6.762, -40.133, -134.138, -19.673, -11.980, -3.953, 24.51, 0.38541, -0.29642, -0.1843, -0.85413,
 11:53:28.245,ed:40:fe:65:30:6c, 2015-01-01 00:06:25.465, 0.636, 0.108, 0.765, 0.549, 0.122, 0.671, 6.773, -40.122, -134.143, -19.673, -11.980, -3.953, 24.51, 0.38541, -0.29642, -0.1843, -0.85413,
 11:53:28.247,f6:90:cc:01:6d:25, 2015-01-01 00:06:20.310, 0.902, -0.029, 0.406, 0.732, 0.366, -1.648, -2.922, -65.654, -154.039, -29.940, -11.753, -7.633, 28.15, 0.17566, -0.53302, -0.10046, -0.82147,
 11:53:28.247,f6:90:cc:01:6d:25, 2015-01-01 00:06:20.310, 0.9, -0.023, 0.406, 0.61, 0.427, -1.221, -2.862, -65.649, -154.105, -29.940, -11.753, -7.633, 28.15, 0.17566, -0.53302, -0.10046, -0.82147,
 11:53:28.247,e3:ca:2d:fd:e0:8c, 2015-01-01 00:06:20.315, 0.962, -0.104, 0.327, 0.671, 0.061, -1.099, -14.908, -70.274, -173.441, -28.900, -10.373, -12.553, 23.81, 0.02792, 0.57587, -0.07361, 0.81369,
 11:53:28.247,e3:ca:2d:fd:e0:8c, 2015-01-01 00:06:20.315, 0.963, -0.1, 0.327, 0.427, 0, -1.038, -14.87, -70.28, -173.507, -28.900, -10.373, -12.553, 23.81, 0.02792, 0.57587, -0.07361, 0.81369,
 11:53:28.268,f6:90:cc:01:6d:25, 2015-01-01 00:06:20.670, 0.899, -0.019, 0.406, 0.366, 0.488, -0.854, -2.823, -65.643, -154.138, -29.940, -11.753, -7.633, 28.15, 0.17566, -0.53302, -0.10046, -0.82147,
 11:53:28.268,f6:90:cc:01:6d:25, 2015-01-01 00:06:20.670, 0.898, -0.017, 0.406, 0.488, 0.183, -0.549, -2.796, -65.638, -154.144, -29.940, -11.753, -7.633, 28.15, 0.17566, -0.53302, -0.10046, -0.82147,
 11:53:28.269,ed:35:33:d3:6c:f8, 2015-01-01 00:06:20.520, 0.383, 0.074, 0.919, 0.183, 0.549, 0.61, 3.768, -22.813, 154.896, -9.887, -11.913, -33.467, 28.91, 0.2066, 0.20206, -0.01376, 0.95718,
 11:53:28.269,ed:35:33:d3:6c:f8, 2015-01-01 00:06:20.520, 0.381, 0.067, 0.915, 0, 0.427, 0.916, 3.768, -22.808, 154.918, -9.887, -11.913, -33.467, 28.91, 0.2066, 0.20206, -0.01376, 0.95718,
 11:53:28.288,ed:40:fe:65:30:6c, 2015-01-01 00:06:25.465, 0.634, 0.104, 0.762, 0.183, 0, 0.793, 6.779, -40.122, -134.154, -19.673, -11.980, -3.953, 24.51, 0.38541, -0.29642, -0.1843, -0.85413,
 11:53:28.288,ed:40:fe:65:30:6c, 2015-01-01 00:06:25.465, 0.637, 0.101, 0.762, 0, 0.183, 0.549, 6.773, -40.117, -134.16, -19.673, -11.980, -3.953, 24.51, 0.38541, -0.29642, -0.1843, -0.85413,
 11:53:28.312,e3:ca:2d:fd:e0:8c, 2015-01-01 00:06:20.315, 0.962, -0.096, 0.327, 0.488, 0.183, -0.977, -14.837, -70.285, -173.568, -28.900, -10.373, -12.553, 23.81, 0.02792, 0.57587, -0.07361, 0.81369,
 11:53:28.312,e3:ca:2d:fd:e0:8c, 2015-01-01 00:06:20.315, 0.961, -0.095, 0.33, 0.488, 0.427, -0.977, -14.799, -70.285, -173.622, -28.900, -10.373, -12.553, 23.81, 0.02792, 0.57587, -0.07361, 0.81369,
 11:53:28.312,f6:90:cc:01:6d:25, 2015-01-01 00:06:20.670, 0.898, -0.018, 0.408, 0.427, 0.305, -0.549, -2.774, -65.632, -154.144, -29.940, -11.753, -7.633, 28.15, 0.17566, -0.53302, -0.10046, -0.82147,
 11:53:28.312,f6:90:cc:01:6d:25, 2015-01-01 00:06:20.670, 0.898, -0.015, 0.409, 0.366, 0.366, -0.61, -2.741, -65.627, -154.155, -29.940, -11.753, -7.633, 28.15, 0.17566, -0.53302, -0.10046, -0.82147,
 11:53:28.314,ed:35:33:d3:6c:f8, 2015-01-01 00:06:20.520, 0.383, 0.062, 0.909, -0.61, 0.549, 0.488, 3.763, -22.797, 154.924, -9.553, -11.727, -32.973, 28.91, 0.2066, 0.20206, -0.01376, 0.95718,
 11:53:28.314,ed:35:33:d3:6c:f8, 2015-01-01 00:06:20.520, 0.384, 0.066, 0.911, -0.427, 1.343, 0.305, 3.746, -22.786, 154.929, -9.553, -11.727, -32.973, 28.91, 0.2066, 0.20206, -0.01376, 0.95718,
 11:53:28.334,e3:ca:2d:fd:e0:8c, 2015-01-01 00:06:20.315, 0.961, -0.093, 0.331, 0.549, 0.793, -1.038, -14.755, -70.285, -173.677, -28.900, -10.373, -12.553, 23.81, 0.02792, 0.57587, -0.07361, 0.81369,
 11:53:28.334,e3:ca:2d:fd:e0:8c, 2015-01-01 00:06:20.315, 0.96, -0.09, 0.333, 0.427, 1.16, -1.038, -14.705, -70.274, -173.754, -28.900, -10.373, -12.553, 23.81, 0.02792, 0.57587, -0.07361, 0.81369,
 11:53:28.338,ed:35:33:d3:6c:f8, 2015-01-01 00:06:20.520, 0.379, 0.071, 0.917, -0.549, 1.343, 0.61, 3.741, -22.758, 154.94, -9.553, -11.727, -32.973, 28.91, 0.20618, 0.1994, -0.01154, 0.95786,
 11:53:28.338,ed:35:33:d3:6c:f8, 2015-01-01 00:06:20.520, 0.382, 0.07, 0.916, -0.671, 1.16, 1.16, 3.724, -22.736, 154.973, -9.553, -11.727, -32.973, 28.91, 0.20618, 0.1994, -0.01154, 0.95786,
 11:53:28.356,ed:40:fe:65:30:6c, 2015-01-01 00:06:25.465, 0.639, 0.104, 0.76, 0.366, 0.366, 0.366, 6.779, -40.106, -134.16, -19.967, -12.320, -4.780, 24.51, 0.38541, -0.29642, -0.1843, -0.85413,
 11:53:28.356,ed:40:fe:65:30:6c, 2015-01-01 00:06:25.465, 0.634, 0.104, 0.766, 0.061, 0.488, 0.549, 6.784, -40.095, -134.165, -19.967, -12.320, -4.780, 24.51, 0.38541, -0.29642, -0.1843, -0.85413,
 11:53:28.356,e3:ca:2d:fd:e0:8c, 2015-01-01 00:06:20.315, 0.96, -0.09, 0.332, 0.183, 1.404, -1.099, -14.645, -70.258, -173.848, -28.900, -10.373, -12.553, 23.81, 0.02792, 0.57587, -0.07361, 0.81369,
 11:53:28.356,e3:ca:2d:fd:e0:8c, 2015-01-01 00:06:20.315, 0.962, -0.09, 0.332, 0.061, 1.16, -1.038, -14.584, -70.236, -173.919, -28.900, -10.373, -12.553, 23.81, 0.02792, 0.57587, -0.07361, 0.81369,
 11:53:28.358,f6:90:cc:01:6d:25, 2015-01-01 00:06:20.670, 0.896, -0.013, 0.405, 0.305, 0.61, -0.671, -2.708, -65.616, -154.177, -29.940, -11.753, -7.633, 28.15, 0.17566, -0.53302, -0.10046, -0.82147,
 11:53:28.358,f6:90:cc:01:6d:25, 2015-01-01 00:06:20.670, 0.897, -0.013, 0.411, -0.122, 0, -0.732, -2.681, -65.616, -154.204, -29.940, -11.753, -7.633, 28.15, 0.17566, -0.53302, -0.10046, -0.82147,
 11:53:28.383,ed:35:33:d3:6c:f8, 2015-01-01 00:06:20.520, 0.381, 0.069, 0.923, -0.366, 1.038, 1.526, 3.708, -22.714, 155.017, -9.553, -11.727, -32.973, 28.91, 0.20618, 0.1994, -0.01154, 0.95786,
 11:53:28.384,ed:35:33:d3:6c:f8, 2015-01-01 00:06:20.520, 0.377, 0.068, 0.929, -0.366, 0.854, 1.343, 3.691, -22.692, 155.067, -9.553, -11.727, -32.973, 28.91, 0.20618, 0.1994, -0.01154, 0.95786,
 11:53:28.401,ed:40:fe:65:30:6c, 2015-01-01 00:06:25.465, 0.638, 0.107, 0.765, 0.122, 0.427, 0.916, 6.784, -40.084, -134.165, -19.967, -12.320, -4.780, 24.51, 0.38382, -0.29346, -0.18442, -0.85583,
 11:53:28.401,ed:40:fe:65:30:6c, 2015-01-01 00:06:25.465, 0.637, 0.107, 0.77, 0.305, 0.549, 0.977, 6.779, -40.067, -134.165, -19.967, -12.320, -4.780, 24.51, 0.38382, -0.29346, -0.18442, -0.85583,
 11:53:28.403,f6:90:cc:01:6d:25, 2015-01-01 00:06:20.670, 0.899, -0.013, 0.408, -0.122, 0.122, -0.732, -2.648, -65.616, -154.237, -29.940, -11.753, -7.633, 28.15, 0.17566, -0.53302, -0.10046, -0.82147,
 11:53:28.403,f6:90:cc:01:6d:25, 2015-01-01 00:06:20.670, 0.902, -0.011, 0.409, -0.793, -1.038, -0.61, -2.637, -65.638, -154.248, -29.940, -11.753, -7.633, 28.15, 0.17566, -0.53302, -0.10046, -0.82147,
 11:53:28.424,e3:ca:2d:fd:e0:8c, 2015-01-01 00:06:20.315, 0.964, -0.089, 0.331, -0.183, 1.038, -0.854, -14.535, -70.219, -173.996, -28.900, -10.373, -12.553, 23.81, 0.02792, 0.57587, -0.07361, 0.81369,
 11:53:28.424,e3:ca:2d:fd:e0:8c, 2015-01-01 00:06:20.315, 0.966, -0.091, 0.333, 0, 0.977, -0.671, -14.496, -70.208, -174.056, -28.900, -10.373, -12.553, 23.81, 0.02792, 0.57587, -0.07361, 0.81369,
 11:53:28.426,f6:90:cc:01:6d:25, 2015-01-01 00:06:20.670, 0.898, -0.01, 0.413, -0.549, -1.099, -0.366, -2.626, -65.66, -154.248, -29.940, -11.753, -7.633, 28.15, 0.17566, -0.53302, -0.10046, -0.82147,
 11:53:28.426,f6:90:cc:01:6d:25, 2015-01-01 00:06:20.670, 0.901, -0.009, 0.406, 0.183, -2.319, 0, -2.62, -65.704, -154.215, -29.940, -11.753, -7.633, 28.15, 0.17566, -0.53302, -0.10046, -0.82147,
 11:53:28.445,ed:40:fe:65:30:6c, 2015-01-01 00:06:25.465, 0.635, 0.11, 0.769, 0.732, 0.061, 0.854, 6.784, -40.056, -134.154, -19.967, -12.320, -4.780, 24.51, 0.38382, -0.29346, -0.18442, -0.85583,
 11:53:28.445,ed:40:fe:65:30:6c, 2015-01-01 00:06:25.465, 0.635, 0.112, 0.773, 1.16, -0.061, 0.916, 6.801, -40.056, -134.138, -19.967, -12.320, -4.780, 24.51, 0.38382, -0.29346, -0.18442, -0.85583,
 11:53:28.446,e3:ca:2d:fd:e0:8c, 2015-01-01 00:06:20.315, 0.961, -0.09, 0.335, 0.122, 1.099, -0.366, -14.464, -70.192, -174.095, -29.147, -10.460, -12.047, 23.81, 0.02792, 0.57587, -0.07361, 0.81369,
 11:53:28.446,e3:ca:2d:fd:e0:8c, 2015-01-01 00:06:20.315, 0.956, -0.09, 0.332, 0.305, 1.465, -0.183, -14.442, -70.175, -174.133, -29.147, -10.460, -12.047, 23.81, 0.02792, 0.57587, -0.07361, 0.81369,
 11:53:28.448,ed:35:33:d3:6c:f8, 2015-01-01 00:06:20.810, 0.375, 0.073, 0.926, 0.183, 0.854, 1.526, 3.68, -22.681, 155.089, -9.553, -11.727, -32.973, 28.91, 0.20618, 0.1994, -0.01154, 0.95786,
 11:53:28.448,ed:35:33:d3:6c:f8, 2015-01-01 00:06:20.810, 0.373, 0.073, 0.923, 0.488, 0.61, 2.136, 3.68, -22.665, 155.094, -9.553, -11.727, -32.973, 28.91, 0.20618, 0.1994, -0.01154, 0.95786,
 11:53:28.468,ed:40:fe:65:30:6c, 2015-01-01 00:06:25.825, 0.63, 0.113, 0.772, 1.282, 0, 1.099, 6.823, -40.051, -134.121, -19.967, -12.320, -4.780, 24.51, 0.38382, -0.29346, -0.18442, -0.85583,
 11:53:28.468,ed:40:fe:65:30:6c, 2015-01-01 00:06:25.825, 0.628, 0.114, 0.771, 0.854, -0.122, 1.282, 6.839, -40.045, -134.105, -19.967, -12.320, -4.780, 24.51, 0.38382, -0.29346, -0.18442, -0.85583,
 11:53:28.470,f6:90:cc:01:6d:25, 2015-01-01 00:06:20.670, 0.897, -0.012, 0.412, -0.244, -3.723, 0.244, -2.637, -65.775, -154.171, -29.940, -11.753, -7.633, 28.15, 0.17566, -0.53302, -0.10046, -0.82147,
 11:53:28.470,f6:90:cc:01:6d:25, 2015-01-01 00:06:20.670, 0.896, -0.013, 0.412, -0.183, -3.052, 0.427, -2.659, -65.83, -154.133, -29.940, -11.753, -7.633, 28.15, 0.17566, -0.53302, -0.10046, -0.82147,
 11:53:28.471,ed:35:33:d3:6c:f8, 2015-01-01 00:06:20.810, 0.368, 0.075, 0.925, 0.366, -0.244, 2.014, 3.68, -22.654, 155.127, -9.553, -11.727, -32.973, 28.91, 0.20618, 0.1994, -0.01154, 0.95786,
 11:53:28.471,ed:35:33:d3:6c:f8, 2015-01-01 00:06:20.810, 0.374, 0.076, 0.922, 0.916, -1.099, 2.441, 3.68, -22.665, 155.171, -9.553, -11.727, -32.973, 28.91, 0.20618, 0.1994, -0.01154, 0.95786,
 11:53:28.491,ed:40:fe:65:30:6c, 2015-01-01 00:06:25.825, 0.63, 0.113, 0.768, 1.587, -0.427, 1.953, 6.85, -40.045, -134.083, -19.967, -12.320, -4.780, 24.51, 0.38382, -0.29346, -0.18442, -0.85583,
 11:53:28.491,ed:40:fe:65:30:6c, 2015-01-01 00:06:25.825, 0.625, 0.117, 0.769, 1.465, -0.61, 2.441, 6.861, -40.051, -134.05, -19.967, -12.320, -4.780, 24.51, 0.38382, -0.29346, -0.18442, -0.85583,
 11:53:28.493,e3:ca:2d:fd:e0:8c, 2015-01-01 00:06:20.315, 0.955, -0.093, 0.336, 0.61, 1.038, 0, -14.42, -70.148, -174.177, -29.147, -10.460, -12.047, 23.81, 0.02792, 0.57587, -0.07361, 0.81369,
 11:53:28.493,e3:ca:2d:fd:e0:8c, 2015-01-01 00:06:20.315, 0.956, -0.094, 0.334, 0.732, 0.916, 0.244, -14.409, -70.131, -174.194, -29.147, -10.460, -12.047, 23.81, 0.02792, 0.57587, -0.07361, 0.81369,
 11:53:28.514,e3:ca:2d:fd:e0:8c, 2015-01-01 00:06:20.315, 0.958, -0.094, 0.336, 0.793, 0.793, 0.61, -14.414, -70.115, -174.188, -29.147, -10.460, -12.047, 23.81, 0.03088, 0.5744, -0.0737, 0.81461,
 11:53:28.514,e3:ca:2d:fd:e0:8c, 2015-01-01 00:06:20.315, 0.957, -0.09, 0.337, 0.183, 0.244, 0.732, -14.442, -70.098, -174.155, -29.147, -10.460, -12.047, 23.81, 0.03088, 0.5744, -0.0737, 0.81461,
 11:53:28.538,ed:40:fe:65:30:6c, 2015-01-01 00:06:25.825, 0.627, 0.119, 0.771, 0.183, -0.488, 2.502, 6.855, -40.056, -134.006, -19.967, -12.320, -4.780, 24.51, 0.38382, -0.29346, -0.18442, -0.85583,
 11:53:28.538,ed:40:fe:65:30:6c, 2015-01-01 00:06:25.825, 0.632, 0.114, 0.768, -0.61, -0.366, 2.441, 6.828, -40.062, -133.951, -19.967, -12.320, -4.780, 24.51, 0.38382, -0.29346, -0.18442, -0.85583,
 11:53:28.538,f6:90:cc:01:6d:25, 2015-01-01 00:06:20.670, 0.896, -0.013, 0.41, 0, -2.991, 0.732, -2.686, -65.885, -154.078, -30.047, -11.640, -7.567, 28.15, 0.17566, -0.53302, -0.10046, -0.82147,
 11:53:28.538,f6:90:cc:01:6d:25, 2015-01-01 00:06:20.670, 0.898, -0.013, 0.412, 0, -2.991, 1.221, -2.736, -65.94, -153.995, -30.047, -11.640, -7.567, 28.15, 0.17566, -0.53302, -0.10046, -0.82147,
 11:53:28.539,ed:35:33:d3:6c:f8, 2015-01-01 00:06:20.810, 0.369, 0.078, 0.917, 0.671, -1.282, 2.869, 3.686, -22.681, 155.253, -9.553, -11.727, -32.973, 28.91, 0.20618, 0.1994, -0.01154, 0.95786,
 11:53:28.539,ed:35:33:d3:6c:f8, 2015-01-01 00:06:20.810, 0.371, 0.076, 0.916, -0.793, 0.122, 2.441, 3.68, -22.698, 155.358, -9.553, -11.727, -32.973, 28.91, 0.20618, 0.1994, -0.01154, 0.95786,
 11:53:28.541,ed:35:33:d3:6c:f8, 2015-01-01 00:06:20.810, 0.38, 0.072, 0.916, -1.648, 1.709, 1.831, 3.647, -22.687, 155.435, -9.553, -11.727, -32.973, 28.91, 0.20618, 0.1994, -0.01154, 0.95786,
 11:53:28.541,ed:35:33:d3:6c:f8, 2015-01-01 00:06:20.810, 0.379, 0.059, 0.918, -1.038, 2.258, 1.404, 3.615, -22.643, 155.495, -9.553, -11.727, -32.973, 28.91, 0.20618, 0.1994, -0.01154, 0.95786,
 11:53:28.560,e3:ca:2d:fd:e0:8c, 2015-01-01 00:06:20.315, 0.957, -0.088, 0.336, -0.427, -0.366, 0.671, -14.491, -70.093, -174.106, -29.147, -10.460, -12.047, 23.81, 0.03088, 0.5744, -0.0737, 0.81461,
 11:53:28.560,e3:ca:2d:fd:e0:8c, 2015-01-01 00:06:20.315, 0.956, -0.087, 0.338, -1.038, -0.854, 0.549, -14.557, -70.104, -174.067, -29.147, -10.460, -12.047, 23.81, 0.03088, 0.5744, -0.0737, 0.81461,
 11:53:28.560,f6:90:cc:01:6d:25, 2015-01-01 00:06:20.670, 0.899, -0.013, 0.413, -0.183, -2.93, 1.526, -2.807, -65.989, -153.885, -30.047, -11.640, -7.567, 28.15, 0.17639, -0.53494, -0.10294, -0.81976,
 11:53:28.560,f6:90:cc:01:6d:25, 2015-01-01 00:06:20.670, 0.897, -0.012, 0.411, -1.038, -2.563, 1.709, -2.895, -66.033, -153.776, -30.047, -11.640, -7.567, 28.15, 0.17639, -0.53494, -0.10294, -0.81976,
 11:53:28.581,ed:40:fe:65:30:6c, 2015-01-01 00:06:25.825, 0.631, 0.102, 0.768, -0.916, -0.061, 2.075, 6.795, -40.062, -133.901, -19.967, -12.320, -4.780, 24.51, 0.38382, -0.29346, -0.18442, -0.85583,
 11:53:28.581,ed:40:fe:65:30:6c, 2015-01-01 00:06:25.825, 0.641, 0.096, 0.763, -1.648, 0.061, 1.404, 6.757, -40.051, -133.868, -19.967, -12.320, -4.780, 24.51, 0.38382, -0.29346, -0.18442, -0.85583,
 11:53:28.584,ed:35:33:d3:6c:f8, 2015-01-01 00:06:20.810, 0.382, 0.055, 0.912, -1.343, 2.258, 1.221, 3.587, -22.593, 155.572, -9.553, -11.727, -32.973, 28.91, 0.20618, 0.1994, -0.01154, 0.95786,
 11:53:28.584,ed:35:33:d3:6c:f8, 2015-01-01 00:06:20.810, 0.389, 0.055, 0.91, -1.892, 2.686, 1.343, 3.554, -22.544, 155.632, -9.553, -11.727, -32.973, 28.91, 0.20618, 0.1994, -0.01154, 0.95786,
 11:53:28.604,e3:ca:2d:fd:e0:8c, 2015-01-01 00:06:20.650, 0.957, -0.091, 0.339, -1.526, -0.732, 0.366, -14.623, -70.115, -174.04, -29.147, -10.460, -12.047, 23.81, 0.03088, 0.5744, -0.0737, 0.81461,
 11:53:28.604,e3:ca:2d:fd:e0:8c, 2015-01-01 00:06:20.650, 0.957, -0.095, 0.34, -1.343, -0.427, 0.244, -14.683, -70.12, -174.007, -29.147, -10.460, -12.047, 23.81, 0.03088, 0.5744, -0.0737, 0.81461,
 11:53:28.606,f6:90:cc:01:6d:25, 2015-01-01 00:06:20.670, 0.898, -0.013, 0.409, -1.831, -2.441, 1.709, -3.005, -66.072, -153.66, -30.047, -11.640, -7.567, 28.15, 0.17639, -0.53494, -0.10294, -0.81976,
 11:53:28.606,f6:90:cc:01:6d:25, 2015-01-01 00:06:20.670, 0.901, -0.018, 0.406, -2.258, -2.197, 1.404, -3.104, -66.105, -153.556, -30.047, -11.640, -7.567, 28.15, 0.17639, -0.53494, -0.10294, -0.81976,
 11:53:28.629,ed:35:33:d3:6c:f8, 2015-01-01 00:06:20.810, 0.383, 0.054, 0.91, -2.075, 2.625, 1.587, 3.51, -22.489, 155.709, -9.627, -12.093, -33.113, 28.91, 0.20618, 0.1994, -0.01154, 0.95786,
 11:53:28.629,ed:35:33:d3:6c:f8, 2015-01-01 00:06:20.810, 0.381, 0.046, 0.919, -2.075, 1.343, 1.648, 3.461, -22.445, 155.786, -9.627, -12.093, -33.113, 28.91, 0.20618, 0.1994, -0.01154, 0.95786,
 11:53:28.629,f6:90:cc:01:6d:25, 2015-01-01 00:06:21.025, 0.905, -0.022, 0.397, -1.953, -1.831, 1.099, -3.186, -66.132, -153.468, -30.047, -11.640, -7.567, 28.15, 0.17639, -0.53494, -0.10294, -0.81976,
 11:53:28.629,f6:90:cc:01:6d:25, 2015-01-01 00:06:21.025, 0.905, -0.03, 0.404, -0.183, -0.61, 0.732, -3.23, -66.143, -153.397, -30.047, -11.640, -7.567, 28.15, 0.17639, -0.53494, -0.10294, -0.81976,
 11:53:28.648,e3:ca:2d:fd:e0:8c, 2015-01-01 00:06:20.650, 0.961, -0.1, 0.335, -0.793, -0.244, 0.305, -14.733, -70.126, -173.985, -29.147, -10.460, -12.047, 23.81, 0.03088, 0.5744, -0.0737, 0.81461,
 11:53:28.648,e3:ca:2d:fd:e0:8c, 2015-01-01 00:06:20.650, 0.963, -0.103, 0.333, 0.183, -0.427, 0.366, -14.771, -70.131, -173.958, -29.147, -10.460, -12.047, 23.81, 0.03088, 0.5744, -0.0737, 0.81461,
 11:53:28.648,ed:40:fe:65:30:6c, 2015-01-01 00:06:25.825, 0.646, 0.094, 0.76, -1.709, 0.488, 1.16, 6.718, -40.04, -133.841, -19.967, -12.320, -4.780, 24.51, 0.38382, -0.29346, -0.18442, -0.85583,
 11:53:28.648,ed:40:fe:65:30:6c, 2015-01-01 00:06:25.825, 0.641, 0.091, 0.759, -1.282, 0.183, 1.099, 6.68, -40.029, -133.819, -19.967, -12.320, -4.780, 24.51, 0.38382, -0.29346, -0.18442, -0.85583,
 11:53:28.672,ed:40:fe:65:30:6c, 2015-01-01 00:06:25.825, 0.639, 0.087, 0.769, -1.099, 0.122, 0.854, 6.652, -40.018, -133.802, -19.660, -11.820, -4.747, 24.51, 0.38382, -0.29346, -0.18442, -0.85583,
 11:53:28.672,ed:40:fe:65:30:6c, 2015-01-01 00:06:25.825, 0.639, 0.084, 0.77, -0.427, -0.122, 0.488, 6.636, -40.012, -133.797, -19.660, -11.820, -4.747, 24.51, 0.38382, -0.29346, -0.18442, -0.85583,
 11:53:28.673,f6:90:cc:01:6d:25, 2015-01-01 00:06:21.025, 0.905, -0.031, 0.403, 0.366, -0.244, 0.61, -3.257, -66.149, -153.314, -30.047, -11.640, -7.567, 28.15, 0.17639, -0.53494, -0.10294, -0.81976,
 11:53:28.673,f6:90:cc:01:6d:25, 2015-01-01 00:06:21.025, 0.905, -0.031, 0.398, 0.549, -0.183, 0.427, -3.274, -66.149, -153.259, -30.047, -11.640, -7.567, 28.15, 0.17639, -0.53494, -0.10294, -0.81976,
 11:53:28.674,ed:35:33:d3:6c:f8, 2015-01-01 00:06:20.810, 0.38, 0.041, 0.923, -2.075, 1.282, 1.404, 3.411, -22.423, 155.83, -9.627, -12.093, -33.113, 28.91, 0.19962, 0.19623, -0.01202, 0.9599,
 11:53:28.674,ed:35:33:d3:6c:f8, 2015-01-01 00:06:20.810, 0.381, 0.04, 0.927, -1.343, 0.793, 0.977, 3.362, -22.401, 155.885, -9.627, -12.093, -33.113, 28.91, 0.19962, 0.19623, -0.01202, 0.9599,
 11:53:28.695,e3:ca:2d:fd:e0:8c, 2015-01-01 00:06:20.650, 0.961, -0.103, 0.334, 0.488, -0.793, 0.427, -14.804, -70.137, -173.897, -29.147, -10.460, -12.047, 23.81, 0.03088, 0.5744, -0.0737, 0.81461,
 11:53:28.695,e3:ca:2d:fd:e0:8c, 2015-01-01 00:06:20.650, 0.962, -0.104, 0.335, 0.488, -0.549, 0.366, -14.843, -70.148, -173.831, -29.147, -10.460, -12.047, 23.81, 0.03088, 0.5744, -0.0737, 0.81461,
 11:53:28.716,ed:40:fe:65:30:6c, 2015-01-01 00:06:25.825, 0.639, 0.084, 0.769, 0.061, -0.122, 0.244, 6.63, -40.012, -133.813, -19.660, -11.820, -4.747, 24.51, 0.38382, -0.29346, -0.18442, -0.85583,
 11:53:28.716,ed:40:fe:65:30:6c, 2015-01-01 00:06:25.825, 0.638, 0.087, 0.77, 0.183, -0.366, -0.061, 6.636, -40.012, -133.835, -19.660, -11.820, -4.747, 24.51, 0.38382, -0.29346, -0.18442, -0.85583,
 11:53:28.718,f6:90:cc:01:6d:25, 2015-01-01 00:06:21.025, 0.905, -0.032, 0.396, 0.366, 0.061, 0.305, -3.285, -66.149, -153.226, -30.047, -11.640, -7.567, 28.15, 0.17639, -0.53494, -0.10294, -0.81976,
 11:53:28.718,f6:90:cc:01:6d:25, 2015-01-01 00:06:21.025, 0.906, -0.03, 0.396, 0.671, 0, 0.244, -3.29, -66.143, -153.193, -30.047, -11.640, -7.567, 28.15, 0.17639, -0.53494, -0.10294, -0.81976,
 11:53:28.719,ed:35:33:d3:6c:f8, 2015-01-01 00:06:21.120, 0.378, 0.043, 0.924, -0.244, -0.427, 0.122, 3.334, -22.396, 155.94, -9.627, -12.093, -33.113, 28.91, 0.19962, 0.19623, -0.01202, 0.9599,
 11:53:28.719,ed:35:33:d3:6c:f8, 2015-01-01 00:06:21.120, 0.383, 0.052, 0.918, 0.61, -0.122, 0.366, 3.334, -22.401, 155.984, -9.627, -12.093, -33.113, 28.91, 0.19962, 0.19623, -0.01202, 0.9599,
 11:53:28.739,e3:ca:2d:fd:e0:8c, 2015-01-01 00:06:20.650, 0.963, -0.104, 0.333, 0.366, -0.366, 0.244, -14.875, -70.153, -173.776, -29.147, -10.460, -12.047, 23.81, 0.03088, 0.5744, -0.0737, 0.81461,
 11:53:28.739,e3:ca:2d:fd:e0:8c, 2015-01-01 00:06:20.650, 0.962, -0.102, 0.327, 0.549, -0.305, 0.061, -14.897, -70.153, -173.738, -29.147, -10.460, -12.047, 23.81, 0.03088, 0.5744, -0.0737, 0.81461,
 11:53:28.739,ed:40:fe:65:30:6c, 2015-01-01 00:06:25.825, 0.642, 0.093, 0.767, 0.244, -0.427, 0, 6.647, -40.012, -133.863, -19.660, -11.820, -4.747, 24.51, 0.3858, -0.29288, -0.18396, -0.85522,
 11:53:28.739,ed:40:fe:65:30:6c, 2015-01-01 00:06:25.825, 0.645, 0.094, 0.765, 0.366, -0.488, 0.305, 6.658, -40.018, -133.885, -19.660, -11.820, -4.747, 24.51, 0.3858, -0.29288, -0.18396, -0.85522,
 11:53:28.743,ed:35:33:d3:6c:f8, 2015-01-01 00:06:21.120, 0.39, 0.053, 0.916, 0.671, 0.427, 0.671, 3.34, -22.401, 156.028, -9.627, -12.093, -33.113, 28.91, 0.19962, 0.19623, -0.01202, 0.9599,
 11:53:28.743,ed:35:33:d3:6c:f8, 2015-01-01 00:06:21.120, 0.384, 0.047, 0.918, 0.244, -0.122, 0.244, 3.345, -22.396, 156.066, -9.627, -12.093, -33.113, 28.91, 0.19962, 0.19623, -0.01202, 0.9599,
 11:53:28.763,f6:90:cc:01:6d:25, 2015-01-01 00:06:21.025, 0.909, -0.03, 0.398, 0.977, 0, 0, -3.29, -66.138, -153.16, -30.047, -11.640, -7.567, 28.15, 0.17639, -0.53494, -0.10294, -0.81976,
 11:53:28.763,f6:90:cc:01:6d:25, 2015-01-01 00:06:21.025, 0.906, -0.027, 0.396, 0.916, 0.122, -0.061, -3.274, -66.138, -153.144, -30.047, -11.640, -7.567, 28.15, 0.17639, -0.53494, -0.10294, -0.81976,
 11:53:28.783,ed:40:fe:65:30:6c, 2015-01-01 00:06:25.825, 0.642, 0.091, 0.765, 0, -0.488, 0.122, 6.658, -40.023, -133.901, -19.660, -11.820, -4.747, 24.51, 0.3858, -0.29288, -0.18396, -0.85522,
 11:53:28.783,ed:40:fe:65:30:6c, 2015-01-01 00:06:25.825, 0.639, 0.09, 0.765, -0.305, -0.732, -0.427, 6.663, -40.029, -133.934, -19.660, -11.820, -4.747, 24.51, 0.3858, -0.29288, -0.18396, -0.85522,
 11:53:28.785,e3:ca:2d:fd:e0:8c, 2015-01-01 00:06:20.650, 0.965, -0.102, 0.326, 0.793, -0.732, 0, -14.914, -70.164, -173.705, -29.147, -10.460, -12.047, 23.81, 0.03088, 0.5744, -0.0737, 0.81461,
 11:53:28.785,e3:ca:2d:fd:e0:8c, 2015-01-01 00:06:20.650, 0.964, -0.099, 0.328, 0.854, -0.977, -0.061, -14.93, -70.181, -173.672, -29.147, -10.460, -12.047, 23.81, 0.03088, 0.5744, -0.0737, 0.81461,
 11:53:28.785,f6:90:cc:01:6d:25, 2015-01-01 00:06:21.025, 0.905, -0.026, 0.394, 0.854, 0.732, -0.305, -3.257, -66.132, -153.133, -30.047, -11.640, -7.567, 28.15, 0.17639, -0.53494, -0.10294, -0.81976,
 11:53:28.785,f6:90:cc:01:6d:25, 2015-01-01 00:06:21.025, 0.901, -0.027, 0.395, 0.488, 0.916, -0.488, -3.23, -66.116, -153.127, -30.047, -11.640, -7.567, 28.15, 0.17639, -0.53494, -0.10294, -0.81976,
 11:53:28.787,ed:35:33:d3:6c:f8, 2015-01-01 00:06:21.120, 0.379, 0.045, 0.914, 0.061, 0.183, -0.305, 3.345, -22.401, 156.077, -9.627, -12.093, -33.113, 28.91, 0.19962, 0.19623, -0.01202, 0.9599,
 11:53:28.787,ed:35:33:d3:6c:f8, 2015-01-01 00:06:21.120, 0.381, 0.054, 0.916, -0.183, 0.732, -0.427, 3.345, -22.39, 156.083, -9.627, -12.093, -33.113, 28.91, 0.19962, 0.19623, -0.01202, 0.9599,
 11:53:28.807,e3:ca:2d:fd:e0:8c, 2015-01-01 00:06:20.650, 0.963, -0.1, 0.329, 0.61, -0.732, -0.183, -14.941, -70.197, -173.633, -29.053, -10.200, -11.713, 23.81, 0.03088, 0.5744, -0.0737, 0.81461,
 11:53:28.807,e3:ca:2d:fd:e0:8c, 2015-01-01 00:06:20.650, 0.958, -0.101, 0.331, 0.61, -0.244, -0.427, -14.941, -70.208, -173.628, -29.053, -10.200, -11.713, 23.81, 0.03088, 0.5744, -0.0737, 0.81461,
 11:53:28.828,ed:40:fe:65:30:6c, 2015-01-01 00:06:26.180, 0.639, 0.093, 0.763, -0.793, -0.61, -0.488, 6.663, -40.034, -133.962, -19.660, -11.820, -4.747, 24.51, 0.3858, -0.29288, -0.18396, -0.85522,
 11:53:28.828,ed:40:fe:65:30:6c, 2015-01-01 00:06:26.180, 0.644, 0.102, 0.761, -1.221, -0.122, -0.122, 6.652, -40.04, -133.973, -19.660, -11.820, -4.747, 24.51, 0.3858, -0.29288, -0.18396, -0.85522,
 11:53:28.831,f6:90:cc:01:6d:25, 2015-01-01 00:06:21.025, 0.905, -0.027, 0.398, 0.244, 1.343, -0.671, -3.203, -66.099, -153.149, -30.047, -11.640, -7.567, 28.15, 0.17639, -0.53494, -0.10294, -0.81976,
 11:53:28.831,f6:90:cc:01:6d:25, 2015-01-01 00:06:21.025, 0.911, -0.023, 0.395, 0.305, 0.61, -0.488, -3.175, -66.077, -153.177, -30.047, -11.640, -7.567, 28.15, 0.17639, -0.53494, -0.10294, -0.81976,
 11:53:28.833,ed:35:33:d3:6c:f8, 2015-01-01 00:06:21.120, 0.385, 0.063, 0.917, -1.038, 0.244, -0.549, 3.334, -22.385, 156.105, -9.627, -12.093, -33.113, 28.91, 0.19962, 0.19623, -0.01202, 0.9599,
 11:53:28.833,ed:35:33:d3:6c:f8, 2015-01-01 00:06:21.120, 0.396, 0.064, 0.909, -1.16, 0.061, -0.427, 3.318, -22.385, 156.121, -9.627, -12.093, -33.113, 28.91, 0.19962, 0.19623, -0.01202, 0.9599,
 11:53:28.850,ed:40:fe:65:30:6c, 2015-01-01 00:06:26.180, 0.651, 0.102, 0.753, -1.099, 0.244, 0.305, 6.636, -40.034, -133.967, -19.660, -11.820, -4.747, 24.51, 0.3858, -0.29288, -0.18396, -0.85522,
 11:53:28.850,ed:40:fe:65:30:6c, 2015-01-01 00:06:26.180, 0.65, 0.091, 0.759, -0.732, 0.244, 0, 6.619, -40.029, -133.967, -19.660, -11.820, -4.747, 24.51, 0.3858, -0.29288, -0.18396, -0.85522,
 11:53:28.851,e3:ca:2d:fd:e0:8c, 2015-01-01 00:06:20.650, 0.963, -0.101, 0.33, 0.366, 0, -0.61, -14.93, -70.214, -173.639, -29.053, -10.200, -11.713, 23.81, 0.03088, 0.5744, -0.0737, 0.81461,
 11:53:28.851,e3:ca:2d:fd:e0:8c, 2015-01-01 00:06:20.650, 0.969, -0.099, 0.329, 0.305, -0.122, -0.671, -14.914, -70.219, -173.661, -29.053, -10.200, -11.713, 23.81, 0.03088, 0.5744, -0.0737, 0.81461,
 11:53:28.875,e3:ca:2d:fd:e0:8c, 2015-01-01 00:06:20.650, 0.973, -0.096, 0.329, 0.183, -0.427, -0.671, -14.897, -70.23, -173.683, -29.053, -10.200, -11.713, 23.81, 0.02969, 0.57526, -0.07449, 0.81396,
 11:53:28.875,e3:ca:2d:fd:e0:8c, 2015-01-01 00:06:20.650, 0.966, -0.1, 0.332, 0.122, -0.305, -0.793, -14.886, -70.241, -173.71, -29.053, -10.200, -11.713, 23.81, 0.02969, 0.57526, -0.07449, 0.81396,
 11:53:28.877,ed:35:33:d3:6c:f8, 2015-01-01 00:06:21.120, 0.391, 0.047, 0.909, -1.221, 1.709, -0.305, 3.296, -22.368, 156.143, -9.627, -12.093, -33.113, 28.91, 0.19962, 0.19623, -0.01202, 0.9599,
 11:53:28.877,ed:35:33:d3:6c:f8, 2015-01-01 00:06:21.120, 0.378, 0.046, 0.921, -1.465, 1.526, -0.793, 3.274, -22.341, 156.143, -9.627, -12.093, -33.113, 28.91, 0.19962, 0.19623, -0.01202, 0.9599,
 11:53:28.895,ed:40:fe:65:30:6c, 2015-01-01 00:06:26.180, 0.64, 0.088, 0.765, -1.221, 0.488, -0.549, 6.614, -40.018, -133.984, -19.660, -11.820, -4.747, 24.51, 0.3858, -0.29288, -0.18396, -0.85522,
 11:53:28.895,ed:40:fe:65:30:6c, 2015-01-01 00:06:26.180, 0.636, 0.096, 0.775, -1.16, 0.671, -0.488, 6.597, -40.001, -133.995, -19.660, -11.820, -4.747, 24.51, 0.3858, -0.29288, -0.18396, -0.85522,
 11:53:28.899,f6:90:cc:01:6d:25, 2015-01-01 00:06:21.025, 0.912, -0.022, 0.396, 0.183, 0.671, -0.488, -3.153, -66.066, -153.199, -30.073, -11.547, -7.240, 28.15, 0.17639, -0.53494, -0.10294, -0.81976,
 11:53:28.899,f6:90:cc:01:6d:25, 2015-01-01 00:06:21.025, 0.908, -0.024, 0.401, 0, 0.671, -0.671, -3.131, -66.055, -153.232, -30.073, -11.547, -7.240, 28.15, 0.17639, -0.53494, -0.10294, -0.81976,
 11:53:28.919,e3:ca:2d:fd:e0:8c, 2015-01-01 00:06:20.650, 0.957, -0.1, 0.334, 0.061, 0.122, -0.854, -14.865, -70.247, -173.738, -29.053, -10.200, -11.713, 23.81, 0.02969, 0.57526, -0.07449, 0.81396,
 11:53:28.919,e3:ca:2d:fd:e0:8c, 2015-01-01 00:06:20.650, 0.955, -0.1, 0.331, 0.061, 0.549, -0.916, -14.832, -70.247, -173.771, -29.053, -10.200, -11.713, 23.81, 0.02969, 0.57526, -0.07449, 0.81396,
 11:53:28.921,ed:35:33:d3:6c:f8, 2015-01-01 00:06:21.120, 0.375, 0.056, 0.93, -1.648, 0.549, -0.549, 3.252, -22.324, 156.121, -9.353, -11.773, -32.893, 28.91, 0.19962, 0.19623, -0.01202, 0.9599,
 11:53:28.921,ed:35:33:d3:6c:f8, 2015-01-01 00:06:21.120, 0.37, 0.059, 0.927, -1.16, -0.366, 0.122, 3.224, -22.324, 156.116, -9.353, -11.773, -32.893, 28.91, 0.19962, 0.19623, -0.01202, 0.9599,
 11:53:28.921,f6:90:cc:01:6d:25, 2015-01-01 00:06:21.025, 0.9, -0.025, 0.401, 0, 1.465, -0.854, -3.104, -66.044, -153.265, -30.073, -11.547, -7.240, 28.15, 0.17938, -0.53528, -0.10379, -0.81879,
 11:53:28.921,f6:90:cc:01:6d:25, 2015-01-01 00:06:21.025, 0.896, -0.023, 0.4, 0, 1.404, -0.916, -3.071, -66.017, -153.292, -30.073, -11.547, -7.240, 28.15, 0.17938, -0.53528, -0.10379, -0.81879,
 11:53:28.940,ed:40:fe:65:30:6c, 2015-01-01 00:06:26.180, 0.63, 0.099, 0.77, -1.038, 0.671, -0.061, 6.586, -39.985, -134, -19.660, -11.820, -4.747, 24.51, 0.3858, -0.29288, -0.18396, -0.85522,
 11:53:28.940,ed:40:fe:65:30:6c, 2015-01-01 00:06:26.180, 0.634, 0.096, 0.767, -0.61, 0.366, 0.061, 6.575, -39.974, -134.011, -19.660, -11.820, -4.747, 24.51, 0.3858, -0.29288, -0.18396, -0.85522,
 11:53:28.945,ed:35:33:d3:6c:f8, 2015-01-01 00:06:21.120, 0.376, 0.052, 0.919, -0.122, -0.549, 0.366, 3.214, -22.341, 156.127, -9.353, -11.773, -32.893, 28.91, 0.19745, 0.19516, -0.01312, 0.96054,
 11:53:28.945,ed:35:33:d3:6c:f8, 2015-01-01 00:06:21.120, 0.384, 0.05, 0.911, -0.488, 0.854, 0.061, 3.203, -22.335, 156.16, -9.353, -11.773, -32.893, 28.91, 0.19745, 0.19516, -0.01312, 0.96054,
 11:53:28.967,f6:90:cc:01:6d:25, 2015-01-01 00:06:21.025, 0.9, -0.022, 0.401, -0.122, 0.61, -0.732, -3.032, -65.995, -153.325, -30.073, -11.547, -7.240, 28.15, 0.17938, -0.53528, -0.10379, -0.81879,
 11:53:28.967,f6:90:cc:01:6d:25, 2015-01-01 00:06:21.025, 0.904, -0.02, 0.401, 0, 0.305, -0.671, -3.01, -65.989, -153.353, -30.073, -11.547, -7.240, 28.15, 0.17938, -0.53528, -0.10379, -0.81879,
 11:53:28.967,e3:ca:2d:fd:e0:8c, 2015-01-01 00:06:21.010, 0.959, -0.098, 0.327, 0.183, 0.427, -0.916, -14.799, -70.241, -173.809, -29.053, -10.200, -11.713, 23.81, 0.02969, 0.57526, -0.07449, 0.81396,
 11:53:28.968,e3:ca:2d:fd:e0:8c, 2015-01-01 00:06:21.010, 0.964, -0.095, 0.328, 0.427, -0.061, -0.854, -14.766, -70.241, -173.87, -29.053, -10.200, -11.713, 23.81, 0.02969, 0.57526, -0.07449, 0.81396,
 11:53:28.986,ed:40:fe:65:30:6c, 2015-01-01 00:06:26.180, 0.642, 0.095, 0.762, -0.427, 0.183, -0.061, 6.575, -39.963, -134.028, -19.660, -11.820, -4.747, 24.51, 0.3858, -0.29288, -0.18396, -0.85522,
 11:53:28.986,ed:40:fe:65:30:6c, 2015-01-01 00:06:26.180, 0.638, 0.098, 0.76, -0.122, 0.427, -0.244, 6.575, -39.952, -134.044, -19.660, -11.820, -4.747, 24.51, 0.3858, -0.29288, -0.18396, -0.85522,
 11:53:28.988,f6:90:cc:01:6d:25, 2015-01-01 00:06:21.385, 0.903, -0.019, 0.4, 0.366, 0.183, -0.61, -2.983, -65.984, -153.386, -30.073, -11.547, -7.240, 28.15, 0.17938, -0.53528, -0.10379, -0.81879,
 11:53:28.988,f6:90:cc:01:6d:25, 2015-01-01 00:06:21.385, 0.901, -0.019, 0.405, 0.244, 0.305, -0.61, -2.95, -65.984, -153.408, -30.073, -11.547, -7.240, 28.15, 0.17938, -0.53528, -0.10379, -0.81879,
 11:53:28.990,ed:35:33:d3:6c:f8, 2015-01-01 00:06:21.120, 0.379, 0.055, 0.909, -1.099, 2.808, 0.122, 3.186, -22.302, 156.193, -9.353, -11.773, -32.893, 28.91, 0.19745, 0.19516, -0.01312, 0.96054,
 11:53:28.990,ed:35:33:d3:6c:f8, 2015-01-01 00:06:21.120, 0.37, 0.058, 0.926, -0.61, 2.502, -0.061, 3.17, -22.253, 156.209, -9.353, -11.773, -32.893, 28.91, 0.19745, 0.19516, -0.01312, 0.96054,
 11:53:29.008,ed:40:fe:65:30:6c, 2015-01-01 00:06:26.180, 0.632, 0.102, 0.769, -0.183, 0.732, -0.244, 6.586, -39.935, -134.072, -19.367, -12.253, -3.900, 24.51, 0.3858, -0.29288, -0.18396, -0.85522,
 11:53:29.008,ed:40:fe:65:30:6c, 2015-01-01 00:06:26.180, 0.633, 0.103, 0.767, -0.244, 0.671, -0.122, 6.592, -39.919, -134.083, -19.367, -12.253, -3.900, 24.51, 0.3858, -0.29288, -0.18396, -0.85522,
 11:53:29.010,e3:ca:2d:fd:e0:8c, 2015-01-01 00:06:21.010, 0.962, -0.095, 0.332, 0.427, -0.244, -0.732, -14.738, -70.252, -173.93, -29.053, -10.200, -11.713, 23.81, 0.02969, 0.57526, -0.07449, 0.81396,
 11:53:29.010,e3:ca:2d:fd:e0:8c, 2015-01-01 00:06:21.010, 0.961, -0.095, 0.336, 0.427, 0.061, -0.732, -14.711, -70.258, -173.979, -29.053, -10.200, -11.713, 23.81, 0.02969, 0.57526, -0.07449, 0.81396,
 11:53:29.032,f6:90:cc:01:6d:25, 2015-01-01 00:06:21.385, 0.902, -0.017, 0.407, 0.244, 0.61, -0.427, -2.922, -65.973, -153.413, -30.073, -11.547, -7.240, 28.15, 0.17938, -0.53528, -0.10379, -0.81879,
 11:53:29.032,f6:90:cc:01:6d:25, 2015-01-01 00:06:21.385, 0.901, -0.018, 0.407, 0.549, 0.977, -0.427, -2.895, -65.956, -153.408, -30.073, -11.547, -7.240, 28.15, 0.17938, -0.53528, -0.10379, -0.81879,
 11:53:29.034,ed:35:33:d3:6c:f8, 2015-01-01 00:06:21.410, 0.373, 0.057, 0.918, 0, 2.075, -0.183, 3.17, -22.209, 156.215, -9.353, -11.773, -32.893, 28.91, 0.19745, 0.19516, -0.01312, 0.96054,
 11:53:29.034,ed:35:33:d3:6c:f8, 2015-01-01 00:06:21.410, 0.372, 0.056, 0.919, -0.793, 2.075, -0.793, 3.164, -22.17, 156.198, -9.353, -11.773, -32.893, 28.91, 0.19745, 0.19516, -0.01312, 0.96054,
 11:53:29.053,ed:40:fe:65:30:6c, 2015-01-01 00:06:26.180, 0.636, 0.103, 0.769, -0.793, 0.977, -0.366, 6.586, -39.897, -134.105, -19.367, -12.253, -3.900, 24.51, 0.3858, -0.29288, -0.18396, -0.85522,
 11:53:29.053,ed:40:fe:65:30:6c, 2015-01-01 00:06:26.180, 0.635, 0.101, 0.761, -1.038, 1.038, -0.366, 6.581, -39.869, -134.132, -19.367, -12.253, -3.900, 24.51, 0.3858, -0.29288, -0.18396, -0.85522,
 11:53:29.055,e3:ca:2d:fd:e0:8c, 2015-01-01 00:06:21.010, 0.96, -0.094, 0.337, 0.427, 0.488, -0.671, -14.683, -70.252, -174.018, -29.053, -10.200, -11.713, 23.81, 0.02969, 0.57526, -0.07449, 0.81396,
 11:53:29.055,e3:ca:2d:fd:e0:8c, 2015-01-01 00:06:21.010, 0.96, -0.093, 0.334, 0.549, 0.549, -0.61, -14.65, -70.247, -174.067, -29.053, -10.200, -11.713, 23.81, 0.02969, 0.57526, -0.07449, 0.81396,
 11:53:29.076,e3:ca:2d:fd:e0:8c, 2015-01-01 00:06:21.010, 0.961, -0.092, 0.33, 0.671, 0.488, -0.549, -14.617, -70.241, -174.117, -29.053, -10.200, -11.713, 23.81, 0.02969, 0.57526, -0.07449, 0.81396,
 11:53:29.076,e3:ca:2d:fd:e0:8c, 2015-01-01 00:06:21.010, 0.96, -0.092, 0.331, 0.61, 0.427, -0.549, -14.584, -70.236, -174.172, -29.053, -10.200, -11.713, 23.81, 0.02969, 0.57526, -0.07449, 0.81396,
 11:53:29.078,f6:90:cc:01:6d:25, 2015-01-01 00:06:21.385, 0.901, -0.018, 0.403, 0.488, 1.038, -0.488, -2.862, -65.94, -153.424, -30.073, -11.547, -7.240, 28.15, 0.17938, -0.53528, -0.10379, -0.81879,
 11:53:29.078,f6:90:cc:01:6d:25, 2015-01-01 00:06:21.385, 0.9, -0.016, 0.401, 0.366, 1.038, -0.549, -2.829, -65.918, -153.452, -30.073, -11.547, -7.240, 28.15, 0.17938, -0.53528, -0.10379, -0.81879,
 11:53:29.078,ed:35:33:d3:6c:f8, 2015-01-01 00:06:21.410, 0.373, 0.059, 0.911, -2.014, 2.075, -0.916, 3.148, -22.126, 156.187, -9.353, -11.773, -32.893, 28.91, 0.19745, 0.19516, -0.01312, 0.96054,
 11:53:29.078,ed:35:33:d3:6c:f8, 2015-01-01 00:06:21.410, 0.368, 0.06, 0.921, -2.197, 2.38, 0, 3.115, -22.083, 156.198, -9.353, -11.773, -32.893, 28.91, 0.19745, 0.19516, -0.01312, 0.96054,
 11:53:29.102,ed:35:33:d3:6c:f8, 2015-01-01 00:06:21.410, 0.372, 0.054, 0.938, -2.319, 1.953, 0.305, 3.071, -22.044, 156.22, -9.353, -11.773, -32.893, 28.91, 0.19745, 0.19516, -0.01312, 0.96054,
 11:53:29.102,ed:35:33:d3:6c:f8, 2015-01-01 00:06:21.410, 0.369, 0.051, 0.939, -1.038, 0.305, -0.061, 3.043, -22.022, 156.237, -9.353, -11.773, -32.893, 28.91, 0.19745, 0.19516, -0.01312, 0.96054,
 11:53:29.121,ed:40:fe:65:30:6c, 2015-01-01 00:06:26.180, 0.63, 0.101, 0.767, -0.61, 1.16, 0, 6.575, -39.842, -134.154, -19.367, -12.253, -3.900, 24.51, 0.38379, -0.29251, -0.18243, -0.8566,
 11:53:29.121,ed:40:fe:65:30:6c, 2015-01-01 00:06:26.180, 0.633, 0.102, 0.775, -0.61, 1.099, 0.122, 6.57, -39.814, -134.16, -19.367, -12.253, -3.900, 24.51, 0.38379, -0.29251, -0.18243, -0.8566,
 11:53:29.123,e3:ca:2d:fd:e0:8c, 2015-01-01 00:06:21.010, 0.961, -0.092, 0.331, 0.427, 0.183, -0.488, -14.557, -70.23, -174.216, -29.053, -10.200, -11.713, 23.81, 0.02969, 0.57526, -0.07449, 0.81396,
 11:53:29.123,e3:ca:2d:fd:e0:8c, 2015-01-01 00:06:21.010, 0.961, -0.092, 0.33, 0.183, -0.366, -0.427, -14.546, -70.236, -174.26, -29.053, -10.200, -11.713, 23.81, 0.02969, 0.57526, -0.07449, 0.81396,
 11:53:29.123,f6:90:cc:01:6d:25, 2015-01-01 00:06:21.385, 0.9, -0.015, 0.406, 0.183, 1.099, -0.488, -2.796, -65.896, -153.474, -30.073, -11.547, -7.240, 28.15, 0.17938, -0.53528, -0.10379, -0.81879,
 11:53:29.123,f6:90:cc:01:6d:25, 2015-01-01 00:06:21.385, 0.9, -0.016, 0.406, 0.122, 0.61, -0.488, -2.769, -65.88, -153.523, -30.073, -11.547, -7.240, 28.15, 0.17938, -0.53528, -0.10379, -0.81879,
 11:53:29.144,ed:40:fe:65:30:6c, 2015-01-01 00:06:26.515, 0.631, 0.1, 0.778, -0.732, 0.366, 0, 6.564, -39.798, -134.165, -19.367, -12.253, -3.900, 24.51, 0.38379, -0.29251, -0.18243, -0.8566,
 11:53:29.144,ed:40:fe:65:30:6c, 2015-01-01 00:06:26.515, 0.633, 0.098, 0.774, -0.793, -0.122, -0.427, 6.564, -39.792, -134.187, -19.367, -12.253, -3.900, 24.51, 0.38379, -0.29251, -0.18243, -0.8566,
 11:53:29.147,ed:35:33:d3:6c:f8, 2015-01-01 00:06:21.410, 0.37, 0.048, 0.928, 0.732, -1.221, -0.183, 3.043, -22.028, 156.248, -9.353, -11.773, -32.893, 28.91, 0.19745, 0.19516, -0.01312, 0.96054,
 11:53:29.147,ed:35:33:d3:6c:f8, 2015-01-01 00:06:21.410, 0.374, 0.051, 0.917, 1.16, -1.77, -0.916, 3.071, -22.055, 156.237, -9.353, -11.773, -32.893, 28.91, 0.19745, 0.19516, -0.01312, 0.96054,
 11:53:29.188,ed:40:fe:65:30:6c, 2015-01-01 00:06:26.515, 0.636, 0.099, 0.767, -0.488, 0, -0.732, 6.575, -39.787, -134.214, -19.367, -12.253, -3.900, 24.51, 0.38379, -0.29251, -0.18243, -0.8566,
 11:53:29.188,ed:40:fe:65:30:6c, 2015-01-01 00:06:26.515, 0.631, 0.1, 0.764, 0, 0, -0.488, 6.592, -39.776, -134.236, -19.367, -12.253, -3.900, 24.51, 0.38379, -0.29251, -0.18243, -0.8566,
 11:53:29.190,f6:90:cc:01:6d:25, 2015-01-01 00:06:21.385, 0.903, -0.017, 0.405, 0, -0.122, -0.488, -2.741, -65.874, -153.572, -30.073, -11.547, -7.240, 28.15, 0.17938, -0.53528, -0.10379, -0.81879,
 11:53:29.190,f6:90:cc:01:6d:25, 2015-01-01 00:06:21.385, 0.901, -0.018, 0.399, -0.183, -0.061, -0.427, -2.725, -65.88, -153.638, -30.073, -11.547, -7.240, 28.15, 0.17938, -0.53528, -0.10379, -0.81879,
 11:53:29.190,e3:ca:2d:fd:e0:8c, 2015-01-01 00:06:21.010, 0.961, -0.094, 0.331, 0, -0.61, -0.427, -14.54, -70.247, -174.293, -28.760, -10.300, -12.693, 23.81, 0.02969, 0.57526, -0.07449, 0.81396,
 11:53:29.190,e3:ca:2d:fd:e0:8c, 2015-01-01 00:06:21.010, 0.962, -0.096, 0.331, 0, -0.671, -0.366, -14.546, -70.263, -174.309, -28.760, -10.300, -12.693, 23.81, 0.02969, 0.57526, -0.07449, 0.81396,
 11:53:29.191,ed:35:33:d3:6c:f8, 2015-01-01 00:06:21.410, 0.372, 0.058, 0.917, 1.648, -1.404, -0.61, 3.109, -22.088, 156.231, -9.353, -11.773, -32.893, 28.91, 0.19745, 0.19516, -0.01312, 0.96054,
 11:53:29.191,ed:35:33:d3:6c:f8, 2015-01-01 00:06:21.410, 0.373, 0.06, 0.926, 2.258, -1.526, 0.061, 3.153, -22.115, 156.242, -9.353, -11.773, -32.893, 28.91, 0.19745, 0.19516, -0.01312, 0.96054,
 11:53:29.211,e3:ca:2d:fd:e0:8c, 2015-01-01 00:06:21.010, 0.958, -0.095, 0.333, 0.061, -0.244, -0.244, -14.551, -70.269, -174.32, -28.760, -10.300, -12.693, 23.81, 0.03259, 0.57526, -0.07513, 0.81378,
 11:53:29.211,e3:ca:2d:fd:e0:8c, 2015-01-01 00:06:21.010, 0.957, -0.097, 0.334, 0.244, -0.122, -0.244, -14.551, -70.274, -174.304, -28.760, -10.300, -12.693, 23.81, 0.03259, 0.57526, -0.07513, 0.81378,
 11:53:29.211,ed:40:fe:65:30:6c, 2015-01-01 00:06:26.515, 0.63, 0.102, 0.772, 0, 0, 0, 6.603, -39.771, -134.247, -19.367, -12.253, -3.900, 24.51, 0.38379, -0.29251, -0.18243, -0.8566,
 11:53:29.211,ed:40:fe:65:30:6c, 2015-01-01 00:06:26.515, 0.63, 0.097, 0.772, 0.122, 0.061, 0.244, 6.614, -39.765, -134.253, -19.367, -12.253, -3.900, 24.51, 0.38379, -0.29251, -0.18243, -0.8566,
 11:53:29.214,f6:90:cc:01:6d:25, 2015-01-01 00:06:21.385, 0.899, -0.019, 0.402, -0.244, 0, -0.244, -2.708, -65.88, -153.688, -30.193, -11.573, -8.387, 28.15, 0.17938, -0.53528, -0.10379, -0.81879,
 11:53:29.214,f6:90:cc:01:6d:25, 2015-01-01 00:06:21.385, 0.897, -0.021, 0.408, -0.183, 0.122, -0.244, -2.703, -65.88, -153.71, -30.193, -11.573, -8.387, 28.15, 0.17938, -0.53528, -0.10379, -0.81879,
 11:53:29.237,ed:35:33:d3:6c:f8, 2015-01-01 00:06:21.410, 0.368, 0.053, 0.924, 2.991, -2.502, 0.488, 3.208, -22.154, 156.281, -9.240, -11.440, -32.853, 28.91, 0.19745, 0.19516, -0.01312, 0.96054,
 11:53:29.237,ed:35:33:d3:6c:f8, 2015-01-01 00:06:21.410, 0.375, 0.052, 0.919, 3.296, -3.296, 0.305, 3.268, -22.209, 156.319, -9.240, -11.440, -32.853, 28.91, 0.19745, 0.19516, -0.01312, 0.96054,
 11:53:29.255,ed:40:fe:65:30:6c, 2015-01-01 00:06:26.515, 0.632, 0.097, 0.77, 0.305, -0.244, 0.122, 6.625, -39.76, -134.264, -19.367, -12.253, -3.900, 24.51, 0.38379, -0.29251, -0.18243, -0.8566,
 11:53:29.255,ed:40:fe:65:30:6c, 2015-01-01 00:06:26.515, 0.639, 0.098, 0.762, 0.549, 0.305, 0.183, 6.641, -39.754, -134.269, -19.367, -12.253, -3.900, 24.51, 0.38379, -0.29251, -0.18243, -0.8566,
 11:53:29.258,e3:ca:2d:fd:e0:8c, 2015-01-01 00:06:21.010, 0.957, -0.098, 0.335, 0.244, -0.366, -0.183, -14.557, -70.28, -174.26, -28.760, -10.300, -12.693, 23.81, 0.03259, 0.57526, -0.07513, 0.81378,
 11:53:29.258,e3:ca:2d:fd:e0:8c, 2015-01-01 00:06:21.010, 0.958, -0.098, 0.335, 0.305, -0.488, -0.183, -14.568, -70.285, -174.216, -28.760, -10.300, -12.693, 23.81, 0.03259, 0.57526, -0.07513, 0.81378,
 11:53:29.258,f6:90:cc:01:6d:25, 2015-01-01 00:06:21.385, 0.897, -0.021, 0.41, 0, 0.183, -0.183, -2.692, -65.874, -153.71, -30.193, -11.573, -8.387, 28.15, 0.17938, -0.53528, -0.10379, -0.81879,
 11:53:29.258,f6:90:cc:01:6d:25, 2015-01-01 00:06:21.385, 0.899, -0.021, 0.412, 0.427, 0.061, -0.122, -2.686, -65.869, -153.71, -30.193, -11.573, -8.387, 28.15, 0.17938, -0.53528, -0.10379, -0.81879,
 11:53:29.280,f6:90:cc:01:6d:25, 2015-01-01 00:06:21.385, 0.902, -0.02, 0.407, 0.793, -0.061, -0.061, -2.67, -65.869, -153.704, -30.193, -11.573, -8.387, 28.15, 0.17844, -0.53372, -0.10452, -0.81992,
 11:53:29.280,f6:90:cc:01:6d:25, 2015-01-01 00:06:21.385, 0.904, -0.021, 0.397, 1.16, 0.366, 0, -2.648, -65.863, -153.71, -30.193, -11.573, -8.387, 28.15, 0.17844, -0.53372, -0.10452, -0.81992,
 11:53:29.280,e3:ca:2d:fd:e0:8c, 2015-01-01 00:06:21.345, 0.961, -0.097, 0.334, 0.61, -0.305, -0.244, -14.568, -70.296, -174.199, -28.760, -10.300, -12.693, 23.81, 0.03259, 0.57526, -0.07513, 0.81378,
 11:53:29.280,e3:ca:2d:fd:e0:8c, 2015-01-01 00:06:21.345, 0.965, -0.096, 0.334, 0.732, -0.122, -0.244, -14.557, -70.296, -174.177, -28.760, -10.300, -12.693, 23.81, 0.03259, 0.57526, -0.07513, 0.81378,
 11:53:29.282,ed:35:33:d3:6c:f8, 2015-01-01 00:06:21.410, 0.379, 0.058, 0.902, 2.869, -2.075, 0.183, 3.329, -22.258, 156.341, -9.240, -11.440, -32.853, 28.91, 0.1955, 0.19467, -0.0116, 0.96106,
 11:53:29.282,ed:35:33:d3:6c:f8, 2015-01-01 00:06:21.410, 0.382, 0.06, 0.895, -0.183, 4.395, 0.854, 3.356, -22.231, 156.368, -9.240, -11.440, -32.853, 28.91, 0.1955, 0.19467, -0.0116, 0.96106,
 11:53:29.302,ed:40:fe:65:30:6c, 2015-01-01 00:06:26.515, 0.64, 0.098, 0.76, 0.671, 0.916, 0.366, 6.652, -39.732, -134.275, -19.367, -12.253, -3.900, 24.51, 0.38379, -0.29251, -0.18243, -0.8566,
 11:53:29.302,ed:40:fe:65:30:6c, 2015-01-01 00:06:26.515, 0.636, 0.098, 0.769, 0.488, 1.221, 0.488, 6.663, -39.705, -134.264, -19.367, -12.253, -3.900, 24.51, 0.38379, -0.29251, -0.18243, -0.8566,
 11:53:29.304,ed:35:33:d3:6c:f8, 2015-01-01 00:06:21.725, 0.374, 0.056, 0.921, -1.526, 5.615, 1.343, 3.329, -22.132, 156.407, -9.240, -11.440, -32.853, 28.91, 0.1955, 0.19467, -0.0116, 0.96106,
 11:53:29.304,ed:35:33:d3:6c:f8, 2015-01-01 00:06:21.725, 0.376, 0.056, 0.925, -2.075, 5.92, 0.977, 3.279, -22.022, 156.445, -9.240, -11.440, -32.853, 28.91, 0.1955, 0.19467, -0.0116, 0.96106,
 11:53:29.324,e3:ca:2d:fd:e0:8c, 2015-01-01 00:06:21.345, 0.967, -0.095, 0.33, 0.671, 0.244, -0.244, -14.546, -70.291, -174.166, -28.760, -10.300, -12.693, 23.81, 0.03259, 0.57526, -0.07513, 0.81378,
 11:53:29.324,e3:ca:2d:fd:e0:8c, 2015-01-01 00:06:21.345, 0.969, -0.094, 0.329, 0.488, 0, -0.244, -14.54, -70.291, -174.15, -28.760, -10.300, -12.693, 23.81, 0.03259, 0.57526, -0.07513, 0.81378,
 11:53:29.347,ed:40:fe:65:30:6c, 2015-01-01 00:06:26.515, 0.637, 0.1, 0.771, 0.122, 0.916, 0.427, 6.663, -39.683, -134.258, -19.367, -12.253, -3.900, 24.51, 0.38379, -0.29251, -0.18243, -0.8566,
 11:53:29.347,ed:40:fe:65:30:6c, 2015-01-01 00:06:26.515, 0.635, 0.101, 0.771, 0, 0.671, 0.488, 6.663, -39.666, -134.258, -19.367, -12.253, -3.900, 24.51, 0.38379, -0.29251, -0.18243, -0.8566,
 11:53:29.347,f6:90:cc:01:6d:25, 2015-01-01 00:06:21.385, 0.908, -0.019, 0.402, 0.854, 0.366, 0, -2.631, -65.852, -153.715, -30.193, -11.573, -8.387, 28.15, 0.17844, -0.53372, -0.10452, -0.81992,
 11:53:29.347,f6:90:cc:01:6d:25, 2015-01-01 00:06:21.385, 0.907, -0.019, 0.403, 0.488, 0.305, -0.061, -2.615, -65.847, -153.715, -30.193, -11.573, -8.387, 28.15, 0.17844, -0.53372, -0.10452, -0.81992,
 11:53:29.349,ed:35:33:d3:6c:f8, 2015-01-01 00:06:21.725, 0.371, 0.058, 0.93, -1.343, 4.639, 1.16, 3.241, -21.923, 156.467, -9.240, -11.440, -32.853, 28.91, 0.1955, 0.19467, -0.0116, 0.96106,
 11:53:29.349,ed:35:33:d3:6c:f8, 2015-01-01 00:06:21.725, 0.364, 0.056, 0.936, -0.183, 2.197, 1.221, 3.214, -21.857, 156.495, -9.240, -11.440, -32.853, 28.91, 0.1955, 0.19467, -0.0116, 0.96106,
 11:53:29.370,e3:ca:2d:fd:e0:8c, 2015-01-01 00:06:21.345, 0.965, -0.095, 0.326, 0.183, -0.244, -0.366, -14.54, -70.296, -174.128, -28.760, -10.300, -12.693, 23.81, 0.03259, 0.57526, -0.07513, 0.81378,
 11:53:29.370,e3:ca:2d:fd:e0:8c, 2015-01-01 00:06:21.345, 0.96, -0.095, 0.325, 0.061, -0.244, -0.427, -14.54, -70.302, -174.111, -28.760, -10.300, -12.693, 23.81, 0.03259, 0.57526, -0.07513, 0.81378,
 11:53:29.370,f6:90:cc:01:6d:25, 2015-01-01 00:06:21.740, 0.905, -0.018, 0.401, 0.061, 0.488, -0.122, -2.609, -65.841, -153.721, -30.193, -11.573, -8.387, 28.15, 0.17844, -0.53372, -0.10452, -0.81992,
 11:53:29.370,f6:90:cc:01:6d:25, 2015-01-01 00:06:21.740, 0.9, -0.018, 0.405, -0.061, 0.488, -0.183, -2.604, -65.83, -153.715, -30.193, -11.573, -8.387, 28.15, 0.17844, -0.53372, -0.10452, -0.81992,
 11:53:29.392,f6:90:cc:01:6d:25, 2015-01-01 00:06:21.740, 0.898, -0.02, 0.404, 0.061, 0.427, -0.244, -2.593, -65.819, -153.71, -30.193, -11.573, -8.387, 28.15, 0.17844, -0.53372, -0.10452, -0.81992,
 11:53:29.392,f6:90:cc:01:6d:25, 2015-01-01 00:06:21.740, 0.897, -0.02, 0.403, 0.122, 0.366, -0.244, -2.582, -65.814, -153.699, -30.193, -11.573, -8.387, 28.15, 0.17844, -0.53372, -0.10452, -0.81992,
 11:53:29.394,ed:35:33:d3:6c:f8, 2015-01-01 00:06:21.725, 0.358, 0.055, 0.936, 0.671, 0.366, 1.038, 3.214, -21.835, 156.517, -9.240, -11.440, -32.853, 28.91, 0.1955, 0.19467, -0.0116, 0.96106,
 11:53:29.394,ed:35:33:d3:6c:f8, 2015-01-01 00:06:21.725, 0.368, 0.05, 0.928, 0.977, -1.16, 1.099, 3.224, -21.846, 156.555, -9.240, -11.440, -32.853, 28.91, 0.1955, 0.19467, -0.0116, 0.96106,
 11:53:29.413,ed:40:fe:65:30:6c, 2015-01-01 00:06:26.515, 0.629, 0.103, 0.776, 0, 0.488, 0.549, 6.663, -39.65, -134.236, -19.727, -12.227, -4.207, 24.51, 0.38379, -0.29251, -0.18243, -0.8566,
 11:53:29.413,ed:40:fe:65:30:6c, 2015-01-01 00:06:26.515, 0.626, 0.099, 0.775, -0.061, 0, 0.549, 6.663, -39.644, -134.231, -19.727, -12.227, -4.207, 24.51, 0.38379, -0.29251, -0.18243, -0.8566,
 11:53:29.415,e3:ca:2d:fd:e0:8c, 2015-01-01 00:06:21.345, 0.958, -0.095, 0.327, 0.122, -0.488, -0.488, -14.535, -70.318, -174.1, -28.760, -10.300, -12.693, 23.81, 0.03259, 0.57526, -0.07513, 0.81378,
 11:53:29.415,e3:ca:2d:fd:e0:8c, 2015-01-01 00:06:21.345, 0.96, -0.095, 0.328, 0.061, -0.305, -0.427, -14.535, -70.323, -174.095, -28.760, -10.300, -12.693, 23.81, 0.03259, 0.57526, -0.07513, 0.81378,
 11:53:29.437,ed:40:fe:65:30:6c, 2015-01-01 00:06:26.515, 0.63, 0.098, 0.773, 0.061, -0.549, 0.732, 6.663, -39.65, -134.231, -19.727, -12.227, -4.207, 24.51, 0.3833, -0.29068, -0.18201, -0.85751,
 11:53:29.437,ed:40:fe:65:30:6c, 2015-01-01 00:06:26.515, 0.633, 0.098, 0.769, 0.244, -0.549, 0.61, 6.663, -39.655, -134.236, -19.727, -12.227, -4.207, 24.51, 0.3833, -0.29068, -0.18201, -0.85751,
 11:53:29.439,f6:90:cc:01:6d:25, 2015-01-01 00:06:21.740, 0.9, -0.018, 0.403, 0.305, 0.366, -0.244, -2.565, -65.808, -153.682, -30.193, -11.573, -8.387, 28.15, 0.17844, -0.53372, -0.10452, -0.81992,
 11:53:29.439,f6:90:cc:01:6d:25, 2015-01-01 00:06:21.740, 0.899, -0.017, 0.408, 0.488, 0.244, -0.244, -2.543, -65.803, -153.688, -30.193, -11.573, -8.387, 28.15, 0.17844, -0.53372, -0.10452, -0.81992,
 11:53:29.441,ed:35:33:d3:6c:f8, 2015-01-01 00:06:21.725, 0.373, 0.052, 0.915, 0.061, -0.854, 0.671, 3.23, -21.863, 156.61, -9.240, -11.440, -32.853, 28.91, 0.1955, 0.19467, -0.0116, 0.96106,
 11:53:29.441,ed:35:33:d3:6c:f8, 2015-01-01 00:06:21.725, 0.371, 0.057, 0.919, -0.122, -0.549, 0.793, 3.224, -21.879, 156.682, -9.240, -11.440, -32.853, 28.91, 0.1955, 0.19467, -0.0116, 0.96106,
 11:53:29.482,e3:ca:2d:fd:e0:8c, 2015-01-01 00:06:21.345, 0.961, -0.096, 0.328, 0.244, -0.183, -0.366, -14.529, -70.334, -174.078, -28.760, -10.300, -12.693, 23.81, 0.03259, 0.57526, -0.07513, 0.81378,
 11:53:29.482,e3:ca:2d:fd:e0:8c, 2015-01-01 00:06:21.345, 0.959, -0.095, 0.333, 0.427, -0.427, -0.305, -14.529, -70.34, -174.051, -28.760, -10.300, -12.693, 23.81, 0.03259, 0.57526, -0.07513, 0.81378,
 11:53:29.482,ed:40:fe:65:30:6c, 2015-01-01 00:06:26.515, 0.633, 0.101, 0.767, 0.061, -0.244, 0.61, 6.663, -39.661, -134.236, -19.727, -12.227, -4.207, 24.51, 0.3833, -0.29068, -0.18201, -0.85751,
 11:53:29.482,ed:40:fe:65:30:6c, 2015-01-01 00:06:26.515, 0.627, 0.101, 0.773, -0.061, -0.244, 0.549, 6.663, -39.661, -134.242, -19.727, -12.227, -4.207, 24.51, 0.3833, -0.29068, -0.18201, -0.85751,
 11:53:29.484,f6:90:cc:01:6d:25, 2015-01-01 00:06:21.740, 0.898, -0.017, 0.411, 0.366, 0.183, -0.183, -2.532, -65.797, -153.693, -30.193, -11.573, -8.387, 28.15, 0.17844, -0.53372, -0.10452, -0.81992,
 11:53:29.484,f6:90:cc:01:6d:25, 2015-01-01 00:06:21.740, 0.897, -0.014, 0.41, 0.122, 0.183, -0.122, -2.521, -65.792, -153.682, -30.193, -11.573, -8.387, 28.15, 0.17844, -0.53372, -0.10452, -0.81992,
 11:53:29.485,ed:35:33:d3:6c:f8, 2015-01-01 00:06:21.725, 0.366, 0.056, 0.927, -0.671, -0.427, 0.61, 3.214, -21.89, 156.758, -9.240, -11.440, -32.853, 28.91, 0.1955, 0.19467, -0.0116, 0.96106,
 11:53:29.485,ed:35:33:d3:6c:f8, 2015-01-01 00:06:21.725, 0.366, 0.052, 0.926, -0.366, -0.793, 0.549, 3.203, -21.901, 156.813, -9.240, -11.440, -32.853, 28.91, 0.1955, 0.19467, -0.0116, 0.96106,
 11:53:29.504,e3:ca:2d:fd:e0:8c, 2015-01-01 00:06:21.345, 0.959, -0.094, 0.335, 0.366, -0.549, -0.305, -14.535, -70.356, -174.012, -28.787, -10.013, -10.900, 23.81, 0.03259, 0.57526, -0.07513, 0.81378,
 11:53:29.504,e3:ca:2d:fd:e0:8c, 2015-01-01 00:06:21.345, 0.959, -0.092, 0.337, 0.244, -0.305, -0.366, -14.535, -70.362, -173.958, -28.787, -10.013, -10.900, 23.81, 0.03259, 0.57526, -0.07513, 0.81378,
 11:53:29.504,ed:40:fe:65:30:6c, 2015-01-01 00:06:26.875, 0.625, 0.099, 0.772, -0.305, -0.366, 0.366, 6.663, -39.661, -134.253, -19.727, -12.227, -4.207, 24.51, 0.3833, -0.29068, -0.18201, -0.85751,
 11:53:29.504,ed:40:fe:65:30:6c, 2015-01-01 00:06:26.875, 0.631, 0.1, 0.771, -0.427, -0.244, 0.061, 6.658, -39.655, -134.269, -19.727, -12.227, -4.207, 24.51, 0.3833, -0.29068, -0.18201, -0.85751,
 11:53:29.507,ed:35:33:d3:6c:f8, 2015-01-01 00:06:21.725, 0.37, 0.053, 0.919, -0.366, -0.793, 0.305, 3.192, -21.912, 156.863, -9.353, -11.660, -32.573, 28.91, 0.1955, 0.19467, -0.0116, 0.96106,
 11:53:29.507,ed:35:33:d3:6c:f8, 2015-01-01 00:06:21.725, 0.375, 0.053, 0.921, 0, -0.061, -0.061, 3.192, -21.918, 156.912, -9.353, -11.660, -32.573, 28.91, 0.1955, 0.19467, -0.0116, 0.96106,
 11:53:29.548,ed:40:fe:65:30:6c, 2015-01-01 00:06:26.875, 0.635, 0.099, 0.768, -0.183, 0, 0, 6.663, -39.65, -134.291, -19.727, -12.227, -4.207, 24.51, 0.3833, -0.29068, -0.18201, -0.85751,
 11:53:29.548,ed:40:fe:65:30:6c, 2015-01-01 00:06:26.875, 0.636, 0.1, 0.773, 0.244, -0.061, 0.061, 6.68, -39.644, -134.319, -19.727, -12.227, -4.207, 24.51, 0.3833, -0.29068, -0.18201, -0.85751,
 11:53:29.549,e3:ca:2d:fd:e0:8c, 2015-01-01 00:06:21.345, 0.959, -0.092, 0.336, 0.122, 0, -0.305, -14.529, -70.362, -173.914, -28.787, -10.013, -10.900, 23.81, 0.03259, 0.57526, -0.07513, 0.81378,
 11:53:29.549,e3:ca:2d:fd:e0:8c, 2015-01-01 00:06:21.345, 0.962, -0.093, 0.332, 0.244, 0.122, -0.305, -14.524, -70.362, -173.892, -28.787, -10.013, -10.900, 23.81, 0.03259, 0.57526, -0.07513, 0.81378,
 11:53:29.551,ed:35:33:d3:6c:f8, 2015-01-01 00:06:21.725, 0.372, 0.058, 0.924, 0.488, 0.244, 0.183, 3.197, -21.918, 156.956, -9.353, -11.660, -32.573, 28.91, 0.1955, 0.19467, -0.0116, 0.96106,
 11:53:29.551,ed:35:33:d3:6c:f8, 2015-01-01 00:06:21.725, 0.375, 0.061, 0.925, 0.366, 0.671, 0.916, 3.203, -21.907, 157, -9.353, -11.660, -32.573, 28.91, 0.1955, 0.19467, -0.0116, 0.96106,
 11:53:29.551,f6:90:cc:01:6d:25, 2015-01-01 00:06:21.740, 0.898, -0.015, 0.409, 0.244, 0.366, -0.122, -2.51, -65.786, -153.666, -30.193, -11.573, -8.387, 28.15, 0.17844, -0.53372, -0.10452, -0.81992,
 11:53:29.551,f6:90:cc:01:6d:25, 2015-01-01 00:06:21.740, 0.9, -0.016, 0.408, 0.122, 0.366, -0.183, -2.499, -65.775, -153.655, -30.193, -11.573, -8.387, 28.15, 0.17844, -0.53372, -0.10452, -0.81992,
 11:53:29.573,f6:90:cc:01:6d:25, 2015-01-01 00:06:21.740, 0.903, -0.017, 0.408, 0.183, 0, -0.183, -2.483, -65.775, -153.66, -29.940, -11.420, -7.267, 28.15, 0.17844, -0.53372, -0.10452, -0.81992,
 11:53:29.573,f6:90:cc:01:6d:25, 2015-01-01 00:06:21.740, 0.904, -0.016, 0.409, 0.244, -0.244, -0.061, -2.472, -65.775, -153.644, -29.940, -11.420, -7.267, 28.15, 0.17844, -0.53372, -0.10452, -0.81992,
 11:53:29.593,ed:40:fe:65:30:6c, 2015-01-01 00:06:26.875, 0.637, 0.105, 0.772, 0.122, 0.061, 0.305, 6.685, -39.639, -134.341, -19.727, -12.227, -4.207, 24.51, 0.3833, -0.29068, -0.18201, -0.85751,
 11:53:29.593,ed:40:fe:65:30:6c, 2015-01-01 00:06:26.875, 0.633, 0.103, 0.77, -0.061, -0.122, 0.305, 6.685, -39.633, -134.346, -19.727, -12.227, -4.207, 24.51, 0.3833, -0.29068, -0.18201, -0.85751,
 11:53:29.594,e3:ca:2d:fd:e0:8c, 2015-01-01 00:06:21.345, 0.965, -0.094, 0.33, 0.366, -0.122, -0.305, -14.518, -70.362, -173.881, -28.787, -10.013, -10.900, 23.81, 0.02945, 0.57623, -0.07263, 0.81345,
 11:53:29.594,e3:ca:2d:fd:e0:8c, 2015-01-01 00:06:21.345, 0.965, -0.094, 0.33, 0.366, -0.549, -0.183, -14.518, -70.373, -173.848, -28.787, -10.013, -10.900, 23.81, 0.02945, 0.57623, -0.07263, 0.81345,
 11:53:29.598,ed:35:33:d3:6c:f8, 2015-01-01 00:06:21.725, 0.369, 0.055, 0.916, 0.366, 1.648, 0.366, 3.208, -21.885, 157.05, -9.353, -11.660, -32.573, 28.91, 0.19055, 0.19165, -0.01099, 0.96268,
 11:53:29.598,ed:35:33:d3:6c:f8, 2015-01-01 00:06:21.725, 0.369, 0.053, 0.919, -0.427, 2.563, -0.305, 3.208, -21.841, 157.077, -9.353, -11.660, -32.573, 28.91, 0.19055, 0.19165, -0.01099, 0.96268,
 11:53:29.615,ed:40:fe:65:30:6c, 2015-01-01 00:06:26.875, 0.631, 0.1, 0.769, -0.366, 0.122, -0.122, 6.691, -39.628, -134.352, -19.727, -12.227, -4.207, 24.51, 0.3833, -0.29068, -0.18201, -0.85751,
 11:53:29.615,ed:40:fe:65:30:6c, 2015-01-01 00:06:26.875, 0.63, 0.102, 0.768, -0.549, 0, -0.305, 6.696, -39.622, -134.357, -19.727, -12.227, -4.207, 24.51, 0.3833, -0.29068, -0.18201, -0.85751,
 11:53:29.618,f6:90:cc:01:6d:25, 2015-01-01 00:06:21.740, 0.903, -0.015, 0.406, 0.366, -0.488, 0, -2.466, -65.781, -153.633, -29.940, -11.420, -7.267, 28.15, 0.17844, -0.53372, -0.10452, -0.81992,
 11:53:29.618,f6:90:cc:01:6d:25, 2015-01-01 00:06:21.740, 0.902, -0.016, 0.404, 0.122, -0.488, 0.061, -2.466, -65.792, -153.616, -29.940, -11.420, -7.267, 28.15, 0.17844, -0.53372, -0.10452, -0.81992,
 11:53:29.639,e3:ca:2d:fd:e0:8c, 2015-01-01 00:06:21.345, 0.964, -0.094, 0.33, 0.183, -0.671, -0.061, -14.535, -70.384, -173.804, -28.787, -10.013, -10.900, 23.81, 0.02945, 0.57623, -0.07263, 0.81345,
 11:53:29.639,e3:ca:2d:fd:e0:8c, 2015-01-01 00:06:21.345, 0.963, -0.093, 0.33, 0.183, -0.366, 0, -14.551, -70.389, -173.765, -28.787, -10.013, -10.900, 23.81, 0.02945, 0.57623, -0.07263, 0.81345,
 11:53:29.640,f6:90:cc:01:6d:25, 2015-01-01 00:06:21.740, 0.899, -0.015, 0.401, -0.061, 0, 0.122, -2.466, -65.792, -153.589, -29.940, -11.420, -7.267, 28.15, 0.18024, -0.53278, -0.10635, -0.81992,
 11:53:29.640,f6:90:cc:01:6d:25, 2015-01-01 00:06:21.740, 0.901, -0.016, 0.402, -0.244, 0, 0.122, -2.477, -65.792, -153.561, -29.940, -11.420, -7.267, 28.15, 0.18024, -0.53278, -0.10635, -0.81992,
 11:53:29.643,ed:35:33:d3:6c:f8, 2015-01-01 00:06:22.035, 0.366, 0.057, 0.926, -0.366, 1.526, -0.305, 3.208, -21.802, 157.099, -9.353, -11.660, -32.573, 28.91, 0.19055, 0.19165, -0.01099, 0.96268,
 11:53:29.643,ed:35:33:d3:6c:f8, 2015-01-01 00:06:22.035, 0.37, 0.056, 0.932, 0.183, 0.244, -0.183, 3.208, -21.786, 157.121, -9.353, -11.660, -32.573, 28.91, 0.19055, 0.19165, -0.01099, 0.96268,
 11:53:29.662,ed:40:fe:65:30:6c, 2015-01-01 00:06:26.875, 0.632, 0.101, 0.773, -0.366, -0.122, -0.183, 6.702, -39.617, -134.335, -19.727, -12.227, -4.207, 24.51, 0.3833, -0.29068, -0.18201, -0.85751,
 11:53:29.662,ed:40:fe:65:30:6c, 2015-01-01 00:06:26.875, 0.637, 0.1, 0.769, -0.366, -0.488, 0, 6.702, -39.622, -134.324, -19.727, -12.227, -4.207, 24.51, 0.3833, -0.29068, -0.18201, -0.85751,
 11:53:29.662,e3:ca:2d:fd:e0:8c, 2015-01-01 00:06:21.700, 0.962, -0.094, 0.328, 0.183, 0, 0, -14.562, -70.389, -173.738, -28.787, -10.013, -10.900, 23.81, 0.02945, 0.57623, -0.07263, 0.81345,
 11:53:29.662,e3:ca:2d:fd:e0:8c, 2015-01-01 00:06:21.700, 0.963, -0.094, 0.324, 0.183, 0.061, -0.061, -14.573, -70.389, -173.716, -28.787, -10.013, -10.900, 23.81, 0.02945, 0.57623, -0.07263, 0.81345,
 11:53:29.684,e3:ca:2d:fd:e0:8c, 2015-01-01 00:06:21.700, 0.968, -0.094, 0.323, 0.122, -0.183, -0.061, -14.584, -70.395, -173.694, -28.787, -10.013, -10.900, 23.81, 0.02945, 0.57623, -0.07263, 0.81345,
 11:53:29.684,e3:ca:2d:fd:e0:8c, 2015-01-01 00:06:21.700, 0.966, -0.095, 0.326, 0.122, -0.366, -0.122, -14.601, -70.4, -173.666, -28.787, -10.013, -10.900, 23.81, 0.02945, 0.57623, -0.07263, 0.81345,
 11:53:29.686,f6:90:cc:01:6d:25, 2015-01-01 00:06:21.740, 0.904, -0.018, 0.402, -0.244, -0.244, 0.061, -2.483, -65.792, -153.528, -29.940, -11.420, -7.267, 28.15, 0.18024, -0.53278, -0.10635, -0.81992,
 11:53:29.686,f6:90:cc:01:6d:25, 2015-01-01 00:06:21.740, 0.906, -0.018, 0.401, -0.183, -0.549, 0, -2.483, -65.803, -153.495, -29.940, -11.420, -7.267, 28.15, 0.18024, -0.53278, -0.10635, -0.81992,
 11:53:29.686,ed:35:33:d3:6c:f8, 2015-01-01 00:06:22.035, 0.377, 0.058, 0.922, 0.488, -0.122, 0.305, 3.219, -21.78, 157.126, -9.353, -11.660, -32.573, 28.91, 0.19055, 0.19165, -0.01099, 0.96268,
 11:53:29.686,ed:35:33:d3:6c:f8, 2015-01-01 00:06:22.035, 0.374, 0.053, 0.915, 0.122, 0.061, 0.488, 3.224, -21.786, 157.154, -9.353, -11.660, -32.573, 28.91, 0.19055, 0.19165, -0.01099, 0.96268,
 11:53:29.706,ed:40:fe:65:30:6c, 2015-01-01 00:06:26.875, 0.638, 0.098, 0.766, -0.427, -0.366, 0.061, 6.702, -39.622, -134.33, -19.727, -12.227, -4.207, 24.51, 0.3833, -0.29068, -0.18201, -0.85751,
 11:53:29.706,ed:40:fe:65:30:6c, 2015-01-01 00:06:26.875, 0.63, 0.099, 0.769, -0.549, -0.183, -0.244, 6.707, -39.622, -134.346, -19.727, -12.227, -4.207, 24.51, 0.3833, -0.29068, -0.18201, -0.85751,
 11:53:29.729,e3:ca:2d:fd:e0:8c, 2015-01-01 00:06:21.700, 0.961, -0.096, 0.329, 0, -0.061, -0.122, -14.612, -70.406, -173.65, -28.787, -10.013, -10.900, 23.81, 0.02945, 0.57623, -0.07263, 0.81345,
 11:53:29.729,e3:ca:2d:fd:e0:8c, 2015-01-01 00:06:21.700, 0.96, -0.099, 0.33, 0.183, 0.122, -0.244, -14.617, -70.406, -173.633, -28.787, -10.013, -10.900, 23.81, 0.02945, 0.57623, -0.07263, 0.81345,
 11:53:29.731,f6:90:cc:01:6d:25, 2015-01-01 00:06:22.100, 0.9, -0.019, 0.402, -0.122, -0.122, 0, -2.488, -65.808, -153.457, -29.940, -11.420, -7.267, 28.15, 0.18024, -0.53278, -0.10635, -0.81992,
 11:53:29.731,f6:90:cc:01:6d:25, 2015-01-01 00:06:22.100, 0.9, -0.021, 0.405, 0, 0.183, 0, -2.488, -65.808, -153.43, -29.940, -11.420, -7.267, 28.15, 0.18024, -0.53278, -0.10635, -0.81992,
 11:53:29.733,ed:35:33:d3:6c:f8, 2015-01-01 00:06:22.035, 0.363, 0.052, 0.926, -0.122, 0.488, 0.061, 3.224, -21.78, 157.165, -9.353, -11.660, -32.573, 28.91, 0.19055, 0.19165, -0.01099, 0.96268,
 11:53:29.733,ed:35:33:d3:6c:f8, 2015-01-01 00:06:22.035, 0.364, 0.054, 0.935, 0.732, -1.282, 0, 3.23, -21.791, 157.187, -9.353, -11.660, -32.573, 28.91, 0.19055, 0.19165, -0.01099, 0.96268,
 11:53:29.753,f6:90:cc:01:6d:25, 2015-01-01 00:06:22.100, 0.9, -0.021, 0.406, 0.122, 0.183, 0, -2.488, -65.803, -153.402, -29.940, -11.420, -7.267, 28.15, 0.18024, -0.53278, -0.10635, -0.81992,
 11:53:29.753,f6:90:cc:01:6d:25, 2015-01-01 00:06:22.100, 0.902, -0.02, 0.405, 0.183, 0, 0, -2.483, -65.803, -153.386, -29.940, -11.420, -7.267, 28.15, 0.18024, -0.53278, -0.10635, -0.81992,
 11:53:29.754,ed:35:33:d3:6c:f8, 2015-01-01 00:06:22.035, 0.375, 0.058, 0.921, 1.526, -3.174, 0.488, 3.257, -21.835, 157.22, -9.353, -11.660, -32.573, 28.91, 0.19055, 0.19165, -0.01099, 0.96268,
 11:53:29.754,ed:35:33:d3:6c:f8, 2015-01-01 00:06:22.035, 0.375, 0.058, 0.913, 0.977, -1.892, 0.732, 3.279, -21.885, 157.253, -9.353, -11.660, -32.573, 28.91, 0.19055, 0.19165, -0.01099, 0.96268,
 11:53:29.773,ed:40:fe:65:30:6c, 2015-01-01 00:06:26.875, 0.627, 0.098, 0.775, -0.305, -0.244, -0.183, 6.713, -39.622, -134.363, -19.700, -12.460, -4.007, 24.51, 0.3833, -0.29068, -0.18201, -0.85751,
 11:53:29.773,ed:40:fe:65:30:6c, 2015-01-01 00:06:26.875, 0.636, 0.098, 0.77, -0.183, -0.488, 0.183, 6.713, -39.628, -134.363, -19.700, -12.460, -4.007, 24.51, 0.3833, -0.29068, -0.18201, -0.85751,
 11:53:29.774,e3:ca:2d:fd:e0:8c, 2015-01-01 00:06:21.700, 0.959, -0.098, 0.331, 0.427, 0, -0.244, -14.612, -70.406, -173.628, -28.787, -10.013, -10.900, 23.81, 0.02945, 0.57623, -0.07263, 0.81345,
 11:53:29.774,e3:ca:2d:fd:e0:8c, 2015-01-01 00:06:21.700, 0.961, -0.096, 0.331, 0.305, -0.122, -0.244, -14.617, -70.411, -173.611, -28.787, -10.013, -10.900, 23.81, 0.02945, 0.57623, -0.07263, 0.81345,
 11:53:29.796,ed:40:fe:65:30:6c, 2015-01-01 00:06:26.875, 0.637, 0.101, 0.766, -0.061, -0.366, 0.488, 6.713, -39.628, -134.357, -19.700, -12.460, -4.007, 24.51, 0.38254, -0.29053, -0.18201, -0.85791,
 11:53:29.796,ed:40:fe:65:30:6c, 2015-01-01 00:06:26.875, 0.635, 0.1, 0.77, -0.244, -0.061, 0.366, 6.713, -39.628, -134.352, -19.700, -12.460, -4.007, 24.51, 0.38254, -0.29053, -0.18201, -0.85791,
 11:53:29.798,f6:90:cc:01:6d:25, 2015-01-01 00:06:22.100, 0.901, -0.016, 0.406, 0, 0, 0, -2.488, -65.803, -153.38, -29.940, -11.420, -7.267, 28.15, 0.18024, -0.53278, -0.10635, -0.81992,
 11:53:29.798,f6:90:cc:01:6d:25, 2015-01-01 00:06:22.100, 0.904, -0.016, 0.409, 0.061, -0.061, 0, -2.488, -65.803, -153.391, -29.940, -11.420, -7.267, 28.15, 0.18024, -0.53278, -0.10635, -0.81992,
 11:53:29.799,ed:35:33:d3:6c:f8, 2015-01-01 00:06:22.035, 0.375, 0.055, 0.921, 0, 0, 0.427, 3.285, -21.901, 157.264, -9.353, -11.660, -32.573, 28.91, 0.19055, 0.19165, -0.01099, 0.96268,
 11:53:29.799,ed:35:33:d3:6c:f8, 2015-01-01 00:06:22.035, 0.369, 0.057, 0.927, 0.305, 0.061, 0.366, 3.29, -21.901, 157.28, -9.353, -11.660, -32.573, 28.91, 0.19055, 0.19165, -0.01099, 0.96268,
 11:53:29.841,ed:40:fe:65:30:6c, 2015-01-01 00:06:26.875, 0.633, 0.101, 0.772, -0.122, -0.305, 0.305, 6.713, -39.628, -134.352, -19.700, -12.460, -4.007, 24.51, 0.38254, -0.29053, -0.18201, -0.85791,
 11:53:29.841,ed:40:fe:65:30:6c, 2015-01-01 00:06:26.875, 0.63, 0.101, 0.772, -0.061, -0.122, 0.427, 6.713, -39.628, -134.346, -19.700, -12.460, -4.007, 24.51, 0.38254, -0.29053, -0.18201, -0.85791,
 11:53:29.842,e3:ca:2d:fd:e0:8c, 2015-01-01 00:06:21.700, 0.965, -0.094, 0.333, 0.305, -0.244, -0.122, -14.623, -70.417, -173.595, -28.787, -10.013, -10.900, 23.81, 0.02945, 0.57623, -0.07263, 0.81345,
 11:53:29.842,e3:ca:2d:fd:e0:8c, 2015-01-01 00:06:21.700, 0.963, -0.094, 0.333, 0.244, -0.305, -0.122, -14.634, -70.422, -173.573, -28.787, -10.013, -10.900, 23.81, 0.02945, 0.57623, -0.07263, 0.81345,
 11:53:29.843,f6:90:cc:01:6d:25, 2015-01-01 00:06:22.100, 0.902, -0.017, 0.409, 0.061, -0.122, 0, -2.483, -65.808, -153.386, -29.940, -11.420, -7.267, 28.15, 0.18024, -0.53278, -0.10635, -0.81992,
 11:53:29.843,f6:90:cc:01:6d:25, 2015-01-01 00:06:22.100, 0.9, -0.017, 0.408, 0.122, 0, 0, -2.483, -65.803, -153.391, -29.940, -11.420, -7.267, 28.15, 0.18024, -0.53278, -0.10635, -0.81992,
 11:53:29.844,ed:35:33:d3:6c:f8, 2015-01-01 00:06:22.035, 0.37, 0.057, 0.926, 0.61, -0.061, 0.366, 3.296, -21.901, 157.319, -9.387, -11.833, -32.487, 28.91, 0.19055, 0.19165, -0.01099, 0.96268,
 11:53:29.844,ed:35:33:d3:6c:f8, 2015-01-01 00:06:22.035, 0.369, 0.054, 0.927, 1.16, -1.221, 0.244, 3.312, -21.912, 157.346, -9.387, -11.833, -32.487, 28.91, 0.19055, 0.19165, -0.01099, 0.96268,
 11:53:29.863,e3:ca:2d:fd:e0:8c, 2015-01-01 00:06:21.700, 0.963, -0.095, 0.33, 0.244, -0.183, -0.122, -14.645, -70.422, -173.551, -28.853, -10.180, -11.220, 23.81, 0.02945, 0.57623, -0.07263, 0.81345,
 11:53:29.863,e3:ca:2d:fd:e0:8c, 2015-01-01 00:06:21.700, 0.961, -0.094, 0.331, 0.305, -0.061, -0.122, -14.65, -70.428, -173.535, -28.853, -10.180, -11.220, 23.81, 0.02945, 0.57623, -0.07263, 0.81345,
 11:53:29.863,ed:40:fe:65:30:6c, 2015-01-01 00:06:27.230, 0.629, 0.098, 0.775, 0, -0.305, 0.366, 6.713, -39.628, -134.341, -19.700, -12.460, -4.007, 24.51, 0.38254, -0.29053, -0.18201, -0.85791,
 11:53:29.863,ed:40:fe:65:30:6c, 2015-01-01 00:06:27.230, 0.629, 0.098, 0.77, 0.122, -0.305, 0.305, 6.718, -39.628, -134.341, -19.700, -12.460, -4.007, 24.51, 0.38254, -0.29053, -0.18201, -0.85791,
 11:53:29.868,ed:35:33:d3:6c:f8, 2015-01-01 00:06:22.035, 0.366, 0.056, 0.916, 1.099, -0.671, 0.488, 3.334, -21.934, 157.374, -9.387, -11.833, -32.487, 28.91, 0.18692, 0.19211, -0.00919, 0.96332,
 11:53:29.868,ed:35:33:d3:6c:f8, 2015-01-01 00:06:22.035, 0.368, 0.055, 0.919, 0.427, 0.732, 0.671, 3.345, -21.934, 157.412, -9.387, -11.833, -32.487, 28.91, 0.18692, 0.19211, -0.00919, 0.96332,
 11:53:29.889,f6:90:cc:01:6d:25, 2015-01-01 00:06:22.100, 0.897, -0.018, 0.406, 0.122, 0.061, 0, -2.483, -65.803, -153.408, -29.940, -11.420, -7.267, 28.15, 0.18024, -0.53278, -0.10635, -0.81992,
 11:53:29.889,f6:90:cc:01:6d:25, 2015-01-01 00:06:22.100, 0.896, -0.019, 0.405, 0.183, 0.122, 0, -2.477, -65.797, -153.435, -29.940, -11.420, -7.267, 28.15, 0.18024, -0.53278, -0.10635, -0.81992,
 11:53:29.909,e3:ca:2d:fd:e0:8c, 2015-01-01 00:06:21.700, 0.957, -0.094, 0.329, 0.366, 0.122, -0.122, -14.65, -70.422, -173.524, -28.853, -10.180, -11.220, 23.81, 0.02945, 0.57623, -0.07263, 0.81345,
 11:53:29.909,e3:ca:2d:fd:e0:8c, 2015-01-01 00:06:21.700, 0.958, -0.094, 0.327, 0.305, 0.183, -0.122, -14.65, -70.422, -173.507, -28.853, -10.180, -11.220, 23.81, 0.02945, 0.57623, -0.07263, 0.81345,
 11:53:29.911,ed:35:33:d3:6c:f8, 2015-01-01 00:06:22.035, 0.374, 0.053, 0.926, 0.427, -0.427, 0.427, 3.351, -21.929, 157.44, -9.387, -11.833, -32.487, 28.91, 0.18692, 0.19211, -0.00919, 0.96332,
 11:53:29.911,ed:35:33:d3:6c:f8, 2015-01-01 00:06:22.035, 0.366, 0.057, 0.92, 0.488, -0.977, 0.122, 3.362, -21.94, 157.451, -9.387, -11.833, -32.487, 28.91, 0.18692, 0.19211, -0.00919, 0.96332,
 11:53:29.931,ed:40:fe:65:30:6c, 2015-01-01 00:06:27.230, 0.629, 0.098, 0.769, 0.122, -0.061, 0.366, 6.724, -39.622, -134.346, -19.700, -12.460, -4.007, 24.51, 0.38254, -0.29053, -0.18201, -0.85791,
 11:53:29.931,ed:40:fe:65:30:6c, 2015-01-01 00:06:27.230, 0.634, 0.098, 0.77, 0.183, -0.244, 0.366, 6.729, -39.622, -134.363, -19.700, -12.460, -4.007, 24.51, 0.38254, -0.29053, -0.18201, -0.85791,
 11:53:29.932,e3:ca:2d:fd:e0:8c, 2015-01-01 00:06:21.700, 0.961, -0.095, 0.326, 0.366, 0, -0.183, -14.65, -70.422, -173.496, -28.853, -10.180, -11.220, 23.81, 0.0275, 0.57684, -0.07162, 0.81317,
 11:53:29.932,e3:ca:2d:fd:e0:8c, 2015-01-01 00:06:21.700, 0.963, -0.095, 0.326, 0.366, -0.366, -0.183, -14.656, -70.428, -173.48, -28.853, -10.180, -11.220, 23.81, 0.0275, 0.57684, -0.07162, 0.81317,
 11:53:29.953,ed:40:fe:65:30:6c, 2015-01-01 00:06:27.230, 0.63, 0.1, 0.769, 0.122, -0.61, 0.183, 6.74, -39.628, -134.379, -19.700, -12.460, -4.007, 24.51, 0.38254, -0.29053, -0.18201, -0.85791,
 11:53:29.953,ed:40:fe:65:30:6c, 2015-01-01 00:06:27.230, 0.633, 0.104, 0.772, 0, -0.854, 0.305, 6.74, -39.644, -134.39, -19.700, -12.460, -4.007, 24.51, 0.38254, -0.29053, -0.18201, -0.85791,
 11:53:29.956,f6:90:cc:01:6d:25, 2015-01-01 00:06:22.100, 0.899, -0.018, 0.404, 0.427, 0, 0, -2.472, -65.797, -153.457, -29.860, -11.600, -8.247, 28.15, 0.18024, -0.53278, -0.10635, -0.81992,
 11:53:29.956,f6:90:cc:01:6d:25, 2015-01-01 00:06:22.100, 0.9, -0.018, 0.404, 0.427, -0.427, 0, -2.461, -65.808, -153.463, -29.860, -11.600, -8.247, 28.15, 0.18024, -0.53278, -0.10635, -0.81992,
 11:53:29.957,ed:35:33:d3:6c:f8, 2015-01-01 00:06:22.330, 0.374, 0.062, 0.928, 0, -0.671, -0.061, 3.367, -21.956, 157.451, -9.387, -11.833, -32.487, 28.91, 0.18692, 0.19211, -0.00919, 0.96332,
 11:53:29.957,ed:35:33:d3:6c:f8, 2015-01-01 00:06:22.330, 0.376, 0.062, 0.919, 0.549, -1.038, 0.183, 3.373, -21.973, 157.467, -9.387, -11.833, -32.487, 28.91, 0.18692, 0.19211, -0.00919, 0.96332,
 11:53:29.977,e3:ca:2d:fd:e0:8c, 2015-01-01 00:06:21.700, 0.968, -0.095, 0.327, 0.244, -0.549, -0.183, -14.667, -70.439, -173.458, -28.853, -10.180, -11.220, 23.81, 0.0275, 0.57684, -0.07162, 0.81317,
 11:53:29.977,e3:ca:2d:fd:e0:8c, 2015-01-01 00:06:21.700, 0.966, -0.094, 0.331, 0.305, -0.488, -0.122, -14.678, -70.45, -173.436, -28.853, -10.180, -11.220, 23.81, 0.0275, 0.57684, -0.07162, 0.81317,
 11:53:29.978,f6:90:cc:01:6d:25, 2015-01-01 00:06:22.100, 0.905, -0.017, 0.405, 0.061, -0.366, 0, -2.466, -65.814, -153.463, -29.860, -11.600, -8.247, 28.15, 0.18121, -0.53278, -0.10706, -0.81958,
 11:53:29.978,f6:90:cc:01:6d:25, 2015-01-01 00:06:22.100, 0.905, -0.014, 0.407, 0.122, -0.244, 0, -2.461, -65.814, -153.484, -29.860, -11.600, -8.247, 28.15, 0.18121, -0.53278, -0.10706, -0.81958,
 11:53:29.998,ed:40:fe:65:30:6c, 2015-01-01 00:06:27.230, 0.637, 0.104, 0.769, 0.183, -0.916, 0.61, 6.746, -39.655, -134.39, -19.700, -12.460, -4.007, 24.51, 0.38254, -0.29053, -0.18201, -0.85791,
 11:53:29.998,ed:40:fe:65:30:6c, 2015-01-01 00:06:27.230, 0.637, 0.103, 0.766, 0.244, -0.732, 0.427, 6.757, -39.666, -134.385, -19.700, -12.460, -4.007, 24.51, 0.38254, -0.29053, -0.18201, -0.85791,
 11:53:30.002,ed:35:33:d3:6c:f8, 2015-01-01 00:06:22.330, 0.378, 0.058, 0.913, -0.061, 0, 0.244, 3.378, -21.978, 157.484, -9.387, -11.833, -32.487, 28.91, 0.18692, 0.19211, -0.00919, 0.96332,
 11:53:30.002,ed:35:33:d3:6c:f8, 2015-01-01 00:06:22.330, 0.376, 0.053, 0.917, 0, 0.793, -0.122, 3.384, -21.973, 157.505, -9.387, -11.833, -32.487, 28.91, 0.18692, 0.19211, -0.00919, 0.96332,
 11:53:30.022,f6:90:cc:01:6d:25, 2015-01-01 00:06:22.100, 0.904, -0.016, 0.405, 0.488, -0.183, 0, -2.45, -65.819, -153.528, -29.860, -11.600, -8.247, 28.15, 0.18121, -0.53278, -0.10706, -0.81958,
 11:53:30.022,f6:90:cc:01:6d:25, 2015-01-01 00:06:22.100, 0.901, -0.017, 0.402, 0.305, 0, 0, -2.444, -65.819, -153.55, -29.860, -11.600, -8.247, 28.15, 0.18121, -0.53278, -0.10706, -0.81958,
 11:53:30.022,e3:ca:2d:fd:e0:8c, 2015-01-01 00:06:22.060, 0.964, -0.094, 0.33, 0.427, -0.244, -0.061, -14.689, -70.455, -173.414, -28.853, -10.180, -11.220, 23.81, 0.0275, 0.57684, -0.07162, 0.81317,
 11:53:30.022,e3:ca:2d:fd:e0:8c, 2015-01-01 00:06:22.060, 0.961, -0.095, 0.33, 0.427, 0.122, -0.061, -14.689, -70.45, -173.397, -28.853, -10.180, -11.220, 23.81, 0.0275, 0.57684, -0.07162, 0.81317,
 11:53:30.044,e3:ca:2d:fd:e0:8c, 2015-01-01 00:06:22.060, 0.962, -0.095, 0.329, 0.305, 0.244, -0.122, -14.694, -70.45, -173.386, -28.853, -10.180, -11.220, 23.81, 0.0275, 0.57684, -0.07162, 0.81317,
 11:53:30.044,e3:ca:2d:fd:e0:8c, 2015-01-01 00:06:22.060, 0.963, -0.095, 0.327, 0.244, 0.183, -0.183, -14.689, -70.444, -173.381, -28.853, -10.180, -11.220, 23.81, 0.0275, 0.57684, -0.07162, 0.81317,
 11:53:30.044,ed:40:fe:65:30:6c, 2015-01-01 00:06:27.230, 0.637, 0.099, 0.766, 0.122, -0.122, 0.122, 6.762, -39.661, -134.39, -19.700, -12.460, -4.007, 24.51, 0.38254, -0.29053, -0.18201, -0.85791,
 11:53:30.044,ed:40:fe:65:30:6c, 2015-01-01 00:06:27.230, 0.634, 0.097, 0.77, 0, -0.305, -0.183, 6.779, -39.661, -134.418, -19.700, -12.460, -4.007, 24.51, 0.38254, -0.29053, -0.18201, -0.85791,
 11:53:30.046,f6:90:cc:01:6d:25, 2015-01-01 00:06:22.435, 0.901, -0.019, 0.401, 0, 0.122, 0, -2.444, -65.814, -153.567, -29.860, -11.600, -8.247, 28.15, 0.18121, -0.53278, -0.10706, -0.81958,
 11:53:30.046,f6:90:cc:01:6d:25, 2015-01-01 00:06:22.435, 0.902, -0.018, 0.406, -0.061, 0.244, 0, -2.444, -65.808, -153.578, -29.860, -11.600, -8.247, 28.15, 0.18121, -0.53278, -0.10706, -0.81958,
 11:53:30.048,ed:35:33:d3:6c:f8, 2015-01-01 00:06:22.330, 0.373, 0.054, 0.923, -0.183, 0.793, -0.549, 3.384, -21.956, 157.511, -9.387, -11.833, -32.487, 28.91, 0.18692, 0.19211, -0.00919, 0.96332,
 11:53:30.048,ed:35:33:d3:6c:f8, 2015-01-01 00:06:22.330, 0.373, 0.059, 0.923, -0.122, 0.732, -0.488, 3.384, -21.94, 157.516, -9.387, -11.833, -32.487, 28.91, 0.18692, 0.19211, -0.00919, 0.96332,
 11:53:30.066,ed:40:fe:65:30:6c, 2015-01-01 00:06:27.230, 0.635, 0.101, 0.771, -0.183, -0.427, -0.183, 6.784, -39.666, -134.44, -19.320, -12.467, -4.140, 24.51, 0.38254, -0.29053, -0.18201, -0.85791,
 11:53:30.066,ed:40:fe:65:30:6c, 2015-01-01 00:06:27.230, 0.635, 0.102, 0.769, 0.183, -0.61, 0, 6.795, -39.672, -134.456, -19.320, -12.467, -4.140, 24.51, 0.38254, -0.29053, -0.18201, -0.85791,
 11:53:30.070,ed:35:33:d3:6c:f8, 2015-01-01 00:06:22.330, 0.374, 0.058, 0.923, 0.427, 0.549, -0.244, 3.395, -21.929, 157.516, -9.387, -11.833, -32.487, 28.91, 0.18692, 0.19211, -0.00919, 0.96332,
 11:53:30.070,ed:35:33:d3:6c:f8, 2015-01-01 00:06:22.330, 0.373, 0.058, 0.921, 0.549, 0.122, -0.366, 3.406, -21.923, 157.511, -9.387, -11.833, -32.487, 28.91, 0.18692, 0.19211, -0.00919, 0.96332,
 11:53:30.089,e3:ca:2d:fd:e0:8c, 2015-01-01 00:06:22.060, 0.965, -0.095, 0.326, 0.244, 0, 0, -14.705, -70.444, -173.359, -28.853, -10.180, -11.220, 23.81, 0.0275, 0.57684, -0.07162, 0.81317,
 11:53:30.089,e3:ca:2d:fd:e0:8c, 2015-01-01 00:06:22.060, 0.965, -0.095, 0.326, 0.427, 0, 0, -14.711, -70.444, -173.342, -28.853, -10.180, -11.220, 23.81, 0.0275, 0.57684, -0.07162, 0.81317,
 11:53:30.090,f6:90:cc:01:6d:25, 2015-01-01 00:06:22.435, 0.903, -0.017, 0.404, 0, 0.305, 0, -2.444, -65.803, -153.578, -29.860, -11.600, -8.247, 28.15, 0.18121, -0.53278, -0.10706, -0.81958,
 11:53:30.090,f6:90:cc:01:6d:25, 2015-01-01 00:06:22.435, 0.903, -0.018, 0.403, 0.122, 0.244, 0, -2.444, -65.803, -153.561, -29.860, -11.600, -8.247, 28.15, 0.18121, -0.53278, -0.10706, -0.81958,
 11:53:30.115,ed:35:33:d3:6c:f8, 2015-01-01 00:06:22.330, 0.372, 0.062, 0.917, 0.183, 0.488, -0.244, 3.417, -21.918, 157.511, -9.387, -11.833, -32.487, 28.91, 0.18692, 0.19211, -0.00919, 0.96332,
 11:53:30.115,ed:35:33:d3:6c:f8, 2015-01-01 00:06:22.330, 0.37, 0.061, 0.917, -0.427, 1.709, 0.061, 3.417, -21.896, 157.522, -9.387, -11.833, -32.487, 28.91, 0.18692, 0.19211, -0.00919, 0.96332,
 11:53:30.134,e3:ca:2d:fd:e0:8c, 2015-01-01 00:06:22.060, 0.962, -0.095, 0.327, 0.427, 0.061, 0, -14.722, -70.444, -173.32, -28.853, -10.180, -11.220, 23.81, 0.0275, 0.57684, -0.07162, 0.81317,
 11:53:30.134,e3:ca:2d:fd:e0:8c, 2015-01-01 00:06:22.060, 0.958, -0.095, 0.329, 0.305, 0.122, 0, -14.727, -70.444, -173.304, -28.853, -10.180, -11.220, 23.81, 0.0275, 0.57684, -0.07162, 0.81317,
 11:53:30.134,ed:40:fe:65:30:6c, 2015-01-01 00:06:27.230, 0.635, 0.102, 0.768, 0.061, -0.427, 0, 6.812, -39.683, -134.473, -19.320, -12.467, -4.140, 24.51, 0.38254, -0.29053, -0.18201, -0.85791,
 11:53:30.134,ed:40:fe:65:30:6c, 2015-01-01 00:06:27.230, 0.631, 0.103, 0.767, 0, -0.122, 0.183, 6.817, -39.683, -134.489, -19.320, -12.467, -4.140, 24.51, 0.38254, -0.29053, -0.18201, -0.85791,
 11:53:30.135,f6:90:cc:01:6d:25, 2015-01-01 00:06:22.435, 0.899, -0.018, 0.405, 0.122, 0.122, 0, -2.439, -65.797, -153.55, -29.860, -11.600, -8.247, 28.15, 0.18121, -0.53278, -0.10706, -0.81958,
 11:53:30.135,f6:90:cc:01:6d:25, 2015-01-01 00:06:22.435, 0.898, -0.018, 0.403, 0, 0.183, 0, -2.439, -65.797, -153.545, -29.860, -11.600, -8.247, 28.15, 0.18121, -0.53278, -0.10706, -0.81958,
 11:53:30.157,ed:40:fe:65:30:6c, 2015-01-01 00:06:27.230, 0.632, 0.101, 0.765, -0.244, 0.061, 0.122, 6.823, -39.683, -134.489, -19.320, -12.467, -4.140, 24.51, 0.38177, -0.2908, -0.18265, -0.85803,
 11:53:30.157,ed:40:fe:65:30:6c, 2015-01-01 00:06:27.230, 0.634, 0.097, 0.762, -0.244, 0.122, -0.061, 6.828, -39.672, -134.495, -19.320, -12.467, -4.140, 24.51, 0.38177, -0.2908, -0.18265, -0.85803,
 11:53:30.159,ed:35:33:d3:6c:f8, 2015-01-01 00:06:22.330, 0.372, 0.056, 0.919, -0.366, 1.404, 0, 3.411, -21.868, 157.516, -9.347, -12.173, -33.453, 28.91, 0.18692, 0.19211, -0.00919, 0.96332,
 11:53:30.159,ed:35:33:d3:6c:f8, 2015-01-01 00:06:22.330, 0.374, 0.052, 0.917, 0.244, 0.671, -0.061, 3.417, -21.852, 157.516, -9.347, -12.173, -33.453, 28.91, 0.18692, 0.19211, -0.00919, 0.96332,
 11:53:30.159,f6:90:cc:01:6d:25, 2015-01-01 00:06:22.435, 0.899, -0.018, 0.4, -0.183, 0, 0, -2.439, -65.797, -153.545, -29.860, -11.600, -8.247, 28.15, 0.18121, -0.53278, -0.10706, -0.81958,
 11:53:30.159,f6:90:cc:01:6d:25, 2015-01-01 00:06:22.435, 0.901, -0.018, 0.402, -0.183, -0.244, 0, -2.444, -65.797, -153.539, -29.860, -11.600, -8.247, 28.15, 0.18121, -0.53278, -0.10706, -0.81958,
 11:53:30.179,e3:ca:2d:fd:e0:8c, 2015-01-01 00:06:22.060, 0.957, -0.095, 0.327, 0, 0, 0, -14.749, -70.444, -173.282, -28.853, -10.180, -11.220, 23.81, 0.0275, 0.57684, -0.07162, 0.81317,
 11:53:30.179,e3:ca:2d:fd:e0:8c, 2015-01-01 00:06:22.060, 0.961, -0.095, 0.325, -0.122, -0.549, 0, -14.777, -70.455, -173.254, -28.853, -10.180, -11.220, 23.81, 0.0275, 0.57684, -0.07162, 0.81317,
 11:53:30.201,ed:40:fe:65:30:6c, 2015-01-01 00:06:27.230, 0.635, 0.094, 0.763, 0.061, -0.183, -0.305, 6.833, -39.672, -134.5, -19.320, -12.467, -4.140, 24.51, 0.38177, -0.2908, -0.18265, -0.85803,
 11:53:30.201,ed:40:fe:65:30:6c, 2015-01-01 00:06:27.230, 0.637, 0.097, 0.766, 0.244, -0.305, -0.61, 6.85, -39.666, -134.528, -19.320, -12.467, -4.140, 24.51, 0.38177, -0.2908, -0.18265, -0.85803,
 11:53:30.205,ed:35:33:d3:6c:f8, 2015-01-01 00:06:22.330, 0.373, 0.049, 0.917, 0.793, 1.099, 0, 3.428, -21.835, 157.544, -9.347, -12.173, -33.453, 28.91, 0.18558, 0.19147, -0.00806, 0.96371,
 11:53:30.205,ed:35:33:d3:6c:f8, 2015-01-01 00:06:22.330, 0.373, 0.055, 0.919, 0.549, 1.587, -0.244, 3.444, -21.808, 157.566, -9.347, -12.173, -33.453, 28.91, 0.18558, 0.19147, -0.00806, 0.96371,
 11:53:30.224,ed:40:fe:65:30:6c, 2015-01-01 00:06:27.590, 0.636, 0.105, 0.768, 0.244, -0.305, -0.671, 6.872, -39.672, -134.561, -19.320, -12.467, -4.140, 24.51, 0.38177, -0.2908, -0.18265, -0.85803,
 11:53:30.224,ed:40:fe:65:30:6c, 2015-01-01 00:06:27.590, 0.633, 0.103, 0.768, 0, 0.061, -0.427, 6.888, -39.672, -134.594, -19.320, -12.467, -4.140, 24.51, 0.38177, -0.2908, -0.18265, -0.85803,
 11:53:30.225,f6:90:cc:01:6d:25, 2015-01-01 00:06:22.435, 0.902, -0.019, 0.404, -0.061, -0.244, 0, -2.45, -65.803, -153.517, -29.860, -11.600, -8.247, 28.15, 0.18121, -0.53278, -0.10706, -0.81958,
 11:53:30.225,f6:90:cc:01:6d:25, 2015-01-01 00:06:22.435, 0.903, -0.019, 0.404, 0.122, -0.061, 0, -2.45, -65.808, -153.495, -29.860, -11.600, -8.247, 28.15, 0.18121, -0.53278, -0.10706, -0.81958,
 11:53:30.246,e3:ca:2d:fd:e0:8c, 2015-01-01 00:06:22.060, 0.964, -0.095, 0.326, -0.061, -0.977, 0, -14.804, -70.472, -173.221, -29.320, -10.527, -11.813, 23.81, 0.0275, 0.57684, -0.07162, 0.81317,
 11:53:30.246,e3:ca:2d:fd:e0:8c, 2015-01-01 00:06:22.060, 0.964, -0.096, 0.329, -0.122, -1.038, 0, -14.843, -70.494, -173.188, -29.320, -10.527, -11.813, 23.81, 0.0275, 0.57684, -0.07162, 0.81317,
 11:53:30.247,f6:90:cc:01:6d:25, 2015-01-01 00:06:22.435, 0.901, -0.021, 0.405, 0.366, 0, 0, -2.45, -65.808, -153.484, -29.967, -11.207, -7.260, 28.15, 0.18121, -0.53278, -0.10706, -0.81958,
 11:53:30.247,f6:90:cc:01:6d:25, 2015-01-01 00:06:22.435, 0.9, -0.022, 0.407, 0.427, 0.183, 0, -2.444, -65.808, -153.479, -29.967, -11.207, -7.260, 28.15, 0.18121, -0.53278, -0.10706, -0.81958,
 11:53:30.248,ed:35:33:d3:6c:f8, 2015-01-01 00:06:22.640, 0.37, 0.064, 0.922, 0.549, 1.77, -0.366, 3.455, -21.775, 157.571, -9.347, -12.173, -33.453, 28.91, 0.18558, 0.19147, -0.00806, 0.96371,
 11:53:30.248,ed:35:33:d3:6c:f8, 2015-01-01 00:06:22.640, 0.368, 0.062, 0.921, 0.427, 0.854, -0.183, 3.466, -21.758, 157.593, -9.347, -12.173, -33.453, 28.91, 0.18558, 0.19147, -0.00806, 0.96371,
 11:53:30.268,ed:40:fe:65:30:6c, 2015-01-01 00:06:27.590, 0.633, 0.102, 0.768, -0.183, 0.122, -0.244, 6.905, -39.661, -134.604, -19.320, -12.467, -4.140, 24.51, 0.38177, -0.2908, -0.18265, -0.85803,
 11:53:30.268,ed:40:fe:65:30:6c, 2015-01-01 00:06:27.590, 0.636, 0.102, 0.771, -0.305, 0.427, -0.366, 6.91, -39.655, -134.621, -19.320, -12.467, -4.140, 24.51, 0.38177, -0.2908, -0.18265, -0.85803,
 11:53:30.269,e3:ca:2d:fd:e0:8c, 2015-01-01 00:06:22.060, 0.963, -0.097, 0.33, -0.061, -0.732, 0, -14.87, -70.51, -173.156, -29.320, -10.527, -11.813, 23.81, 0.02621, 0.57764, -0.07132, 0.81268,
 11:53:30.269,e3:ca:2d:fd:e0:8c, 2015-01-01 00:06:22.060, 0.961, -0.098, 0.33, 0.122, -0.427, 0, -14.892, -70.516, -173.134, -29.320, -10.527, -11.813, 23.81, 0.02621, 0.57764, -0.07132, 0.81268,
 11:53:30.272,ed:35:33:d3:6c:f8, 2015-01-01 00:06:22.640, 0.369, 0.056, 0.92, 0, 1.038, -0.061, 3.472, -21.742, 157.61, -9.347, -12.173, -33.453, 28.91, 0.18558, 0.19147, -0.00806, 0.96371,
 11:53:30.272,ed:35:33:d3:6c:f8, 2015-01-01 00:06:22.640, 0.371, 0.058, 0.927, -0.549, 1.099, -0.549, 3.466, -21.72, 157.621, -9.347, -12.173, -33.453, 28.91, 0.18558, 0.19147, -0.00806, 0.96371,
 11:53:30.312,ed:40:fe:65:30:6c, 2015-01-01 00:06:27.590, 0.637, 0.104, 0.77, -0.122, 0.061, -0.305, 6.916, -39.644, -134.632, -19.320, -12.467, -4.140, 24.51, 0.38177, -0.2908, -0.18265, -0.85803,
 11:53:30.312,ed:40:fe:65:30:6c, 2015-01-01 00:06:27.590, 0.632, 0.106, 0.774, -0.183, -0.061, -0.244, 6.927, -39.639, -134.648, -19.320, -12.467, -4.140, 24.51, 0.38177, -0.2908, -0.18265, -0.85803,
 11:53:30.313,e3:ca:2d:fd:e0:8c, 2015-01-01 00:06:22.060, 0.961, -0.098, 0.33, 0.122, -0.244, 0, -14.908, -70.521, -173.112, -29.320, -10.527, -11.813, 23.81, 0.02621, 0.57764, -0.07132, 0.81268,
 11:53:30.313,e3:ca:2d:fd:e0:8c, 2015-01-01 00:06:22.060, 0.963, -0.096, 0.327, 0, -0.427, -0.305, -14.914, -70.527, -173.101, -29.320, -10.527, -11.813, 23.81, 0.02621, 0.57764, -0.07132, 0.81268,
 11:53:30.314,f6:90:cc:01:6d:25, 2015-01-01 00:06:22.435, 0.902, -0.02, 0.407, 0.061, 0.366, 0, -2.439, -65.803, -153.468, -29.967, -11.207, -7.260, 28.15, 0.18121, -0.53278, -0.10706, -0.81958,
 11:53:30.314,f6:90:cc:01:6d:25, 2015-01-01 00:06:22.435, 0.903, -0.016, 0.405, 0, 0.305, 0, -2.444, -65.797, -153.452, -29.967, -11.207, -7.260, 28.15, 0.18121, -0.53278, -0.10706, -0.81958,
 11:53:30.316,ed:35:33:d3:6c:f8, 2015-01-01 00:06:22.640, 0.369, 0.062, 0.929, -0.122, 0.916, -0.549, 3.472, -21.703, 157.643, -9.347, -12.173, -33.453, 28.91, 0.18558, 0.19147, -0.00806, 0.96371,
 11:53:30.316,ed:35:33:d3:6c:f8, 2015-01-01 00:06:22.640, 0.366, 0.061, 0.929, -0.122, 0.977, -0.549, 3.472, -21.687, 157.659, -9.347, -12.173, -33.453, 28.91, 0.18558, 0.19147, -0.00806, 0.96371,
 11:53:30.336,e3:ca:2d:fd:e0:8c, 2015-01-01 00:06:22.395, 0.966, -0.094, 0.328, 0, -0.671, -0.244, -14.93, -70.543, -173.09, -29.320, -10.527, -11.813, 23.81, 0.02621, 0.57764, -0.07132, 0.81268,
 11:53:30.336,e3:ca:2d:fd:e0:8c, 2015-01-01 00:06:22.395, 0.966, -0.095, 0.327, 0, -0.793, -0.244, -14.947, -70.554, -173.073, -29.320, -10.527, -11.813, 23.81, 0.02621, 0.57764, -0.07132, 0.81268,
 11:53:30.338,f6:90:cc:01:6d:25, 2015-01-01 00:06:22.435, 0.904, -0.017, 0.408, -0.061, 0, 0, -2.444, -65.792, -153.435, -29.967, -11.207, -7.260, 28.15, 0.1814, -0.53262, -0.10721, -0.81964,
 11:53:30.338,f6:90:cc:01:6d:25, 2015-01-01 00:06:22.435, 0.902, -0.017, 0.408, 0, 0, 0, -2.45, -65.792, -153.413, -29.967, -11.207, -7.260, 28.15, 0.1814, -0.53262, -0.10721, -0.81964,
 11:53:30.357,ed:40:fe:65:30:6c, 2015-01-01 00:06:27.590, 0.63, 0.104, 0.772, -0.549, 0, -0.305, 6.932, -39.633, -134.67, -19.320, -12.467, -4.140, 24.51, 0.38177, -0.2908, -0.18265, -0.85803,
 11:53:30.357,ed:40:fe:65:30:6c, 2015-01-01 00:06:27.590, 0.629, 0.102, 0.77, -0.549, 0, -0.244, 6.932, -39.628, -134.692, -19.320, -12.467, -4.140, 24.51, 0.38177, -0.2908, -0.18265, -0.85803,
 11:53:30.363,ed:35:33:d3:6c:f8, 2015-01-01 00:06:22.640, 0.365, 0.059, 0.926, -0.183, 0.549, -0.671, 3.477, -21.671, 157.659, -9.347, -12.173, -33.453, 28.91, 0.18558, 0.19147, -0.00806, 0.96371,
 11:53:30.363,ed:35:33:d3:6c:f8, 2015-01-01 00:06:22.640, 0.364, 0.059, 0.922, -0.122, 0.732, -0.427, 3.477, -21.66, 157.654, -9.347, -12.173, -33.453, 28.91, 0.18558, 0.19147, -0.00806, 0.96371,
 11:53:30.381,e3:ca:2d:fd:e0:8c, 2015-01-01 00:06:22.395, 0.962, -0.096, 0.326, 0, -0.793, -0.244, -14.958, -70.571, -173.057, -29.320, -10.527, -11.813, 23.81, 0.02621, 0.57764, -0.07132, 0.81268,
 11:53:30.381,e3:ca:2d:fd:e0:8c, 2015-01-01 00:06:22.395, 0.961, -0.095, 0.324, 0, -0.793, -0.244, -14.974, -70.587, -173.04, -29.320, -10.527, -11.813, 23.81, 0.02621, 0.57764, -0.07132, 0.81268,
 11:53:30.383,f6:90:cc:01:6d:25, 2015-01-01 00:06:22.435, 0.898, -0.018, 0.405, 0.061, 0.122, 0, -2.45, -65.792, -153.397, -29.967, -11.207, -7.260, 28.15, 0.1814, -0.53262, -0.10721, -0.81964,
 11:53:30.383,f6:90:cc:01:6d:25, 2015-01-01 00:06:22.435, 0.898, -0.017, 0.404, -0.122, 0.061, 0, -2.45, -65.786, -153.375, -29.967, -11.207, -7.260, 28.15, 0.1814, -0.53262, -0.10721, -0.81964,
 11:53:30.403,ed:40:fe:65:30:6c, 2015-01-01 00:06:27.590, 0.63, 0.102, 0.768, -0.549, 0.061, -0.366, 6.938, -39.622, -134.714, -19.320, -12.467, -4.140, 24.51, 0.38177, -0.2908, -0.18265, -0.85803,
 11:53:30.403,ed:40:fe:65:30:6c, 2015-01-01 00:06:27.590, 0.631, 0.101, 0.768, -0.427, 0, -0.488, 6.943, -39.617, -134.736, -19.320, -12.467, -4.140, 24.51, 0.38177, -0.2908, -0.18265, -0.85803,
 11:53:30.406,f6:90:cc:01:6d:25, 2015-01-01 00:06:22.790, 0.899, -0.017, 0.403, -0.366, -0.122, 0, -2.455, -65.786, -153.358, -29.967, -11.207, -7.260, 28.15, 0.1814, -0.53262, -0.10721, -0.81964,
 11:53:30.406,f6:90:cc:01:6d:25, 2015-01-01 00:06:22.790, 0.9, -0.018, 0.405, -0.427, 0, 0, -2.466, -65.786, -153.336, -29.967, -11.207, -7.260, 28.15, 0.1814, -0.53262, -0.10721, -0.81964,
 11:53:30.408,ed:35:33:d3:6c:f8, 2015-01-01 00:06:22.640, 0.365, 0.057, 0.919, -0.244, 0.977, -0.488, 3.483, -21.643, 157.637, -9.347, -12.173, -33.453, 28.91, 0.18558, 0.19147, -0.00806, 0.96371,
 11:53:30.408,ed:35:33:d3:6c:f8, 2015-01-01 00:06:22.640, 0.365, 0.056, 0.922, -0.549, 1.831, -0.61, 3.477, -21.61, 157.621, -9.347, -12.173, -33.453, 28.91, 0.18558, 0.19147, -0.00806, 0.96371,
 11:53:30.426,e3:ca:2d:fd:e0:8c, 2015-01-01 00:06:22.395, 0.961, -0.095, 0.323, -0.122, -0.916, -0.244, -14.991, -70.604, -173.024, -29.320, -10.527, -11.813, 23.81, 0.02621, 0.57764, -0.07132, 0.81268,
 11:53:30.426,e3:ca:2d:fd:e0:8c, 2015-01-01 00:06:22.395, 0.963, -0.095, 0.325, -0.183, -0.732, -0.305, -15.007, -70.62, -173.013, -29.320, -10.527, -11.813, 23.81, 0.02621, 0.57764, -0.07132, 0.81268,
 11:53:30.426,ed:40:fe:65:30:6c, 2015-01-01 00:06:27.590, 0.632, 0.102, 0.768, -0.305, -0.061, -0.427, 6.949, -39.611, -134.764, -19.367, -12.793, -4.353, 24.51, 0.38177, -0.2908, -0.18265, -0.85803,
 11:53:30.426,ed:40:fe:65:30:6c, 2015-01-01 00:06:27.590, 0.632, 0.106, 0.77, -0.183, -0.244, -0.122, 6.954, -39.606, -134.786, -19.367, -12.793, -4.353, 24.51, 0.38177, -0.2908, -0.18265, -0.85803,
 11:53:30.449,e3:ca:2d:fd:e0:8c, 2015-01-01 00:06:22.395, 0.962, -0.096, 0.326, -0.183, -0.549, -0.366, -15.013, -70.631, -173.007, -29.320, -10.527, -11.813, 23.81, 0.02621, 0.57764, -0.07132, 0.81268,
 11:53:30.449,e3:ca:2d:fd:e0:8c, 2015-01-01 00:06:22.395, 0.964, -0.096, 0.325, -0.061, -0.61, -0.305, -15.018, -70.642, -173.007, -29.320, -10.527, -11.813, 23.81, 0.02621, 0.57764, -0.07132, 0.81268,
 11:53:30.451,ed:35:33:d3:6c:f8, 2015-01-01 00:06:22.640, 0.364, 0.061, 0.923, -0.61, 1.648, -0.427, 3.472, -21.577, 157.615, -8.713, -11.840, -32.187, 28.91, 0.18558, 0.19147, -0.00806, 0.96371,
 11:53:30.451,ed:35:33:d3:6c:f8, 2015-01-01 00:06:22.640, 0.363, 0.065, 0.926, -0.549, 1.648, -0.183, 3.461, -21.544, 157.632, -8.713, -11.840, -32.187, 28.91, 0.18558, 0.19147, -0.00806, 0.96371,
 11:53:30.451,f6:90:cc:01:6d:25, 2015-01-01 00:06:22.790, 0.899, -0.019, 0.405, -0.244, 0.122, 0, -2.472, -65.786, -153.32, -29.967, -11.207, -7.260, 28.15, 0.1814, -0.53262, -0.10721, -0.81964,
 11:53:30.451,f6:90:cc:01:6d:25, 2015-01-01 00:06:22.790, 0.9, -0.019, 0.405, -0.122, 0.122, 0, -2.477, -65.786, -153.303, -29.967, -11.207, -7.260, 28.15, 0.1814, -0.53262, -0.10721, -0.81964,
 11:53:30.470,ed:40:fe:65:30:6c, 2015-01-01 00:06:27.590, 0.631, 0.108, 0.772, -0.427, -0.061, 0.061, 6.96, -39.606, -134.802, -19.367, -12.793, -4.353, 24.51, 0.38177, -0.2908, -0.18265, -0.85803,
 11:53:30.470,ed:40:fe:65:30:6c, 2015-01-01 00:06:27.590, 0.634, 0.104, 0.769, -0.366, -0.305, 0, 6.96, -39.6, -134.813, -19.367, -12.793, -4.353, 24.51, 0.38177, -0.2908, -0.18265, -0.85803,
 11:53:30.475,ed:35:33:d3:6c:f8, 2015-01-01 00:06:22.640, 0.364, 0.062, 0.927, -0.305, 0.916, -0.061, 3.455, -21.522, 157.643, -8.713, -11.840, -32.187, 28.91, 0.18478, 0.18881, -0.00705, 0.96439,
 11:53:30.475,ed:35:33:d3:6c:f8, 2015-01-01 00:06:22.640, 0.367, 0.058, 0.924, -0.061, 0.305, -0.305, 3.461, -21.511, 157.665, -8.713, -11.840, -32.187, 28.91, 0.18478, 0.18881, -0.00705, 0.96439,
 11:53:30.496,f6:90:cc:01:6d:25, 2015-01-01 00:06:22.790, 0.901, -0.016, 0.407, -0.183, 0, 0, -2.483, -65.781, -153.281, -29.967, -11.207, -7.260, 28.15, 0.1814, -0.53262, -0.10721, -0.81964,
 11:53:30.496,f6:90:cc:01:6d:25, 2015-01-01 00:06:22.790, 0.903, -0.015, 0.407, 0.244, -0.305, 0, -2.483, -65.781, -153.265, -29.967, -11.207, -7.260, 28.15, 0.1814, -0.53262, -0.10721, -0.81964,
 11:53:30.517,e3:ca:2d:fd:e0:8c, 2015-01-01 00:06:22.395, 0.965, -0.096, 0.325, 0, -0.854, -0.183, -15.029, -70.659, -172.996, -29.320, -10.527, -11.813, 23.81, 0.02621, 0.57764, -0.07132, 0.81268,
 11:53:30.517,e3:ca:2d:fd:e0:8c, 2015-01-01 00:06:22.395, 0.965, -0.095, 0.325, 0, -0.916, -0.122, -15.051, -70.675, -172.974, -29.320, -10.527, -11.813, 23.81, 0.02621, 0.57764, -0.07132, 0.81268,
 11:53:30.518,f6:90:cc:01:6d:25, 2015-01-01 00:06:22.790, 0.902, -0.017, 0.405, 0.305, -0.122, 0, -2.477, -65.786, -153.248, -29.967, -11.207, -7.260, 28.15, 0.1814, -0.53262, -0.10721, -0.81964,
 11:53:30.518,f6:90:cc:01:6d:25, 2015-01-01 00:06:22.790, 0.902, -0.019, 0.406, 0, -0.061, 0, -2.472, -65.786, -153.232, -29.967, -11.207, -7.260, 28.15, 0.1814, -0.53262, -0.10721, -0.81964,
 11:53:30.520,ed:35:33:d3:6c:f8, 2015-01-01 00:06:22.640, 0.367, 0.06, 0.924, -0.305, 0.305, -0.366, 3.461, -21.506, 157.692, -8.713, -11.840, -32.187, 28.91, 0.18478, 0.18881, -0.00705, 0.96439,
 11:53:30.520,ed:35:33:d3:6c:f8, 2015-01-01 00:06:22.640, 0.365, 0.061, 0.926, -0.366, 0.793, -0.427, 3.461, -21.495, 157.72, -8.713, -11.840, -32.187, 28.91, 0.18478, 0.18881, -0.00705, 0.96439,
 11:53:30.538,ed:40:fe:65:30:6c, 2015-01-01 00:06:27.590, 0.637, 0.104, 0.77, -0.244, -0.183, -0.122, 6.965, -39.6, -134.83, -19.367, -12.793, -4.353, 24.51, 0.37976, -0.29022, -0.18265, -0.8591,
 11:53:30.538,ed:40:fe:65:30:6c, 2015-01-01 00:06:27.590, 0.634, 0.105, 0.771, -0.244, -0.122, -0.183, 6.971, -39.6, -134.846, -19.367, -12.793, -4.353, 24.51, 0.37976, -0.29022, -0.18265, -0.8591,
 11:53:30.540,e3:ca:2d:fd:e0:8c, 2015-01-01 00:06:22.395, 0.965, -0.096, 0.326, 0.122, -0.732, -0.061, -15.073, -70.692, -172.952, -28.860, -10.147, -12.153, 23.81, 0.02621, 0.57764, -0.07132, 0.81268,
 11:53:30.540,e3:ca:2d:fd:e0:8c, 2015-01-01 00:06:22.395, 0.965, -0.096, 0.325, 0, -0.488, -0.122, -15.095, -70.703, -172.93, -28.860, -10.147, -12.153, 23.81, 0.02621, 0.57764, -0.07132, 0.81268,
 11:53:30.560,ed:40:fe:65:30:6c, 2015-01-01 00:06:27.925, 0.635, 0.104, 0.772, -0.183, -0.061, -0.183, 6.976, -39.595, -134.868, -19.367, -12.793, -4.353, 24.51, 0.37976, -0.29022, -0.18265, -0.8591,
 11:53:30.560,ed:40:fe:65:30:6c, 2015-01-01 00:06:27.925, 0.635, 0.104, 0.771, -0.183, 0.061, -0.183, 6.987, -39.595, -134.885, -19.367, -12.793, -4.353, 24.51, 0.37976, -0.29022, -0.18265, -0.8591,
 11:53:30.583,ed:40:fe:65:30:6c, 2015-01-01 00:06:27.925, 0.634, 0.105, 0.77, -0.122, 0.061, -0.183, 6.998, -39.584, -134.901, -19.367, -12.793, -4.353, 24.51, 0.37976, -0.29022, -0.18265, -0.8591,
 11:53:30.583,ed:40:fe:65:30:6c, 2015-01-01 00:06:27.925, 0.631, 0.107, 0.769, -0.244, 0.061, -0.061, 7.004, -39.578, -134.918, -19.367, -12.793, -4.353, 24.51, 0.37976, -0.29022, -0.18265, -0.8591,
 11:53:30.584,e3:ca:2d:fd:e0:8c, 2015-01-01 00:06:22.395, 0.965, -0.095, 0.324, 0, -0.549, -0.244, -15.106, -70.714, -172.914, -28.860, -10.147, -12.153, 23.81, 0.02621, 0.57764, -0.07132, 0.81268,
 11:53:30.584,e3:ca:2d:fd:e0:8c, 2015-01-01 00:06:22.395, 0.965, -0.095, 0.324, 0, -0.488, -0.122, -15.117, -70.719, -172.903, -28.860, -10.147, -12.153, 23.81, 0.02621, 0.57764, -0.07132, 0.81268,
 11:53:30.586,f6:90:cc:01:6d:25, 2015-01-01 00:06:22.790, 0.903, -0.018, 0.407, -0.305, 0.061, 0, -2.477, -65.786, -153.21, -29.967, -11.207, -7.260, 28.15, 0.1814, -0.53262, -0.10721, -0.81964,
 11:53:30.586,f6:90:cc:01:6d:25, 2015-01-01 00:06:22.790, 0.902, -0.016, 0.406, -0.305, 0.122, 0, -2.483, -65.786, -153.193, -29.967, -11.207, -7.260, 28.15, 0.1814, -0.53262, -0.10721, -0.81964,
 11:53:30.587,ed:35:33:d3:6c:f8, 2015-01-01 00:06:22.930, 0.367, 0.06, 0.927, -0.122, 1.16, -0.305, 3.461, -21.473, 157.753, -8.713, -11.840, -32.187, 28.91, 0.18478, 0.18881, -0.00705, 0.96439,
 11:53:30.587,ed:35:33:d3:6c:f8, 2015-01-01 00:06:22.930, 0.366, 0.06, 0.928, 0, 1.404, -0.244, 3.466, -21.445, 157.786, -8.713, -11.840, -32.187, 28.91, 0.18478, 0.18881, -0.00705, 0.96439,
 11:53:30.608,f6:90:cc:01:6d:25, 2015-01-01 00:06:22.790, 0.902, -0.017, 0.406, -0.244, 0, 0, -2.488, -65.781, -153.177, -29.827, -11.687, -7.127, 28.15, 0.1814, -0.53262, -0.10721, -0.81964,
 11:53:30.608,f6:90:cc:01:6d:25, 2015-01-01 00:06:22.790, 0.901, -0.017, 0.404, 0, 0, 0, -2.488, -65.781, -153.16, -29.827, -11.687, -7.127, 28.15, 0.1814, -0.53262, -0.10721, -0.81964,
 11:53:30.608,ed:35:33:d3:6c:f8, 2015-01-01 00:06:22.930, 0.364, 0.062, 0.928, 0.061, 1.099, -0.244, 3.472, -21.423, 157.808, -8.713, -11.840, -32.187, 28.91, 0.18478, 0.18881, -0.00705, 0.96439,
 11:53:30.608,ed:35:33:d3:6c:f8, 2015-01-01 00:06:22.930, 0.36, 0.064, 0.926, 0.061, 0.793, -0.244, 3.477, -21.407, 157.83, -8.713, -11.840, -32.187, 28.91, 0.18478, 0.18881, -0.00705, 0.96439,
 11:53:30.629,e3:ca:2d:fd:e0:8c, 2015-01-01 00:06:22.395, 0.965, -0.096, 0.322, 0.061, -0.244, -0.122, -15.134, -70.73, -172.886, -28.860, -10.147, -12.153, 23.81, 0.02597, 0.57922, -0.07159, 0.81155,
 11:53:30.629,e3:ca:2d:fd:e0:8c, 2015-01-01 00:06:22.395, 0.965, -0.096, 0.322, 0.244, -0.122, -0.122, -15.145, -70.735, -172.875, -28.860, -10.147, -12.153, 23.81, 0.02597, 0.57922, -0.07159, 0.81155,
 11:53:30.629,ed:40:fe:65:30:6c, 2015-01-01 00:06:27.925, 0.631, 0.107, 0.77, -0.427, 0.183, 0.061, 7.009, -39.573, -134.929, -19.367, -12.793, -4.353, 24.51, 0.37976, -0.29022, -0.18265, -0.8591,
 11:53:30.629,ed:40:fe:65:30:6c, 2015-01-01 00:06:27.925, 0.631, 0.104, 0.768, -0.183, 0.122, 0.244, 7.009, -39.567, -134.94, -19.367, -12.793, -4.353, 24.51, 0.37976, -0.29022, -0.18265, -0.8591,
 11:53:30.654,ed:35:33:d3:6c:f8, 2015-01-01 00:06:22.930, 0.362, 0.062, 0.923, 0.061, 0.732, -0.183, 3.483, -21.396, 157.868, -8.713, -11.840, -32.187, 28.91, 0.18478, 0.18881, -0.00705, 0.96439,
 11:53:30.654,ed:35:33:d3:6c:f8, 2015-01-01 00:06:22.930, 0.361, 0.059, 0.922, -0.183, 0.793, 0, 3.483, -21.379, 157.901, -8.713, -11.840, -32.187, 28.91, 0.18478, 0.18881, -0.00705, 0.96439,
 11:53:30.654,f6:90:cc:01:6d:25, 2015-01-01 00:06:22.790, 0.901, -0.017, 0.403, 0.122, 0, 0, -2.488, -65.781, -153.144, -29.827, -11.687, -7.127, 28.15, 0.1814, -0.53262, -0.10721, -0.81964,
 11:53:30.654,f6:90:cc:01:6d:25, 2015-01-01 00:06:22.790, 0.901, -0.019, 0.404, 0, 0.183, 0, -2.488, -65.781, -153.127, -29.827, -11.687, -7.127, 28.15, 0.1814, -0.53262, -0.10721, -0.81964,
 11:53:30.673,ed:40:fe:65:30:6c, 2015-01-01 00:06:27.925, 0.631, 0.102, 0.77, -0.244, 0.061, 0.183, 7.009, -39.562, -134.945, -19.367, -12.793, -4.353, 24.51, 0.37976, -0.29022, -0.18265, -0.8591,
 11:53:30.673,ed:40:fe:65:30:6c, 2015-01-01 00:06:27.925, 0.632, 0.101, 0.772, -0.305, -0.122, 0.061, 7.009, -39.556, -134.951, -19.367, -12.793, -4.353, 24.51, 0.37976, -0.29022, -0.18265, -0.8591,
 11:53:30.675,e3:ca:2d:fd:e0:8c, 2015-01-01 00:06:22.395, 0.964, -0.096, 0.322, 0.366, 0.061, -0.061, -15.15, -70.735, -172.864, -28.860, -10.147, -12.153, 23.81, 0.02597, 0.57922, -0.07159, 0.81155,
 11:53:30.675,e3:ca:2d:fd:e0:8c, 2015-01-01 00:06:22.395, 0.965, -0.096, 0.321, 0.305, 0.183, -0.061, -15.156, -70.735, -172.853, -28.860, -10.147, -12.153, 23.81, 0.02597, 0.57922, -0.07159, 0.81155,
 11:53:30.677,ed:35:33:d3:6c:f8, 2015-01-01 00:06:22.930, 0.362, 0.056, 0.926, -0.549, 0.549, 0, 3.477, -21.368, 157.912, -8.713, -11.840, -32.187, 28.91, 0.18478, 0.18881, -0.00705, 0.96439,
 11:53:30.677,ed:35:33:d3:6c:f8, 2015-01-01 00:06:22.930, 0.363, 0.056, 0.93, -0.366, 0.061, 0.183, 3.472, -21.363, 157.923, -8.713, -11.840, -32.187, 28.91, 0.18478, 0.18881, -0.00705, 0.96439,
 11:53:30.697,e3:ca:2d:fd:e0:8c, 2015-01-01 00:06:22.730, 0.966, -0.097, 0.321, 0.183, 0.122, -0.122, -15.156, -70.73, -172.848, -28.860, -10.147, -12.153, 23.81, 0.02597, 0.57922, -0.07159, 0.81155,
 11:53:30.697,e3:ca:2d:fd:e0:8c, 2015-01-01 00:06:22.730, 0.968, -0.097, 0.32, 0.061, 0, -0.183, -15.161, -70.73, -172.842, -28.860, -10.147, -12.153, 23.81, 0.02597, 0.57922, -0.07159, 0.81155,
 11:53:30.721,ed:35:33:d3:6c:f8, 2015-01-01 00:06:22.930, 0.363, 0.059, 0.93, 0.122, -0.305, 0.427, 3.472, -21.368, 157.939, -8.713, -11.840, -32.187, 28.91, 0.18478, 0.18881, -0.00705, 0.96439,
 11:53:30.721,ed:35:33:d3:6c:f8, 2015-01-01 00:06:22.930, 0.364, 0.058, 0.928, 0.427, -0.427, 0.305, 3.477, -21.379, 157.961, -8.713, -11.840, -32.187, 28.91, 0.18478, 0.18881, -0.00705, 0.96439,
 11:53:30.721,f6:90:cc:01:6d:25, 2015-01-01 00:06:22.790, 0.902, -0.02, 0.404, 0, 0.305, 0, -2.488, -65.775, -153.111, -29.827, -11.687, -7.127, 28.15, 0.18353, -0.53226, -0.10837, -0.81924,
 11:53:30.721,f6:90:cc:01:6d:25, 2015-01-01 00:06:22.790, 0.902, -0.019, 0.404, -0.061, 0.305, 0, -2.488, -65.77, -153.1, -29.827, -11.687, -7.127, 28.15, 0.18353, -0.53226, -0.10837, -0.81924,
 11:53:30.740,ed:40:fe:65:30:6c, 2015-01-01 00:06:27.925, 0.634, 0.103, 0.772, 0, -0.488, 0.122, 7.015, -39.556, -134.962, -19.367, -12.793, -4.353, 24.51, 0.37976, -0.29022, -0.18265, -0.8591,
 11:53:30.740,ed:40:fe:65:30:6c, 2015-01-01 00:06:27.925, 0.634, 0.104, 0.773, 0.061, -0.549, 0.122, 7.02, -39.562, -134.973, -19.367, -12.793, -4.353, 24.51, 0.37976, -0.29022, -0.18265, -0.8591,
 11:53:30.742,f6:90:cc:01:6d:25, 2015-01-01 00:06:23.125, 0.904, -0.02, 0.406, -0.122, 0.183, 0, -2.488, -65.764, -153.083, -29.827, -11.687, -7.127, 28.15, 0.18353, -0.53226, -0.10837, -0.81924,
 11:53:30.742,f6:90:cc:01:6d:25, 2015-01-01 00:06:23.125, 0.903, -0.02, 0.406, 0, 0, 0, -2.494, -65.764, -153.067, -29.827, -11.687, -7.127, 28.15, 0.18353, -0.53226, -0.10837, -0.81924,
 11:53:30.742,e3:ca:2d:fd:e0:8c, 2015-01-01 00:06:22.730, 0.967, -0.098, 0.321, 0.122, -0.122, -0.244, -15.167, -70.73, -172.842, -28.860, -10.147, -12.153, 23.81, 0.02597, 0.57922, -0.07159, 0.81155,
 11:53:30.742,e3:ca:2d:fd:e0:8c, 2015-01-01 00:06:22.730, 0.964, -0.098, 0.323, 0.183, -0.061, -0.244, -15.172, -70.735, -172.837, -28.860, -10.147, -12.153, 23.81, 0.02597, 0.57922, -0.07159, 0.81155,
 11:53:30.763,ed:40:fe:65:30:6c, 2015-01-01 00:06:27.925, 0.635, 0.104, 0.77, 0, -0.549, 0.061, 7.031, -39.567, -134.984, -19.360, -12.427, -4.640, 24.51, 0.37976, -0.29022, -0.18265, -0.8591,
 11:53:30.763,ed:40:fe:65:30:6c, 2015-01-01 00:06:27.925, 0.63, 0.104, 0.768, -0.061, -0.305, 0.122, 7.037, -39.567, -134.995, -19.360, -12.427, -4.640, 24.51, 0.37976, -0.29022, -0.18265, -0.8591,
 11:53:30.767,ed:35:33:d3:6c:f8, 2015-01-01 00:06:22.930, 0.363, 0.059, 0.921, 0.305, -0.183, 0.244, 3.483, -21.385, 157.972, -9.127, -12.440, -33.293, 28.91, 0.18478, 0.18881, -0.00705, 0.96439,
 11:53:30.767,ed:35:33:d3:6c:f8, 2015-01-01 00:06:22.930, 0.361, 0.061, 0.921, 0.244, 0.366, 0.793, 3.488, -21.379, 157.983, -9.127, -12.440, -33.293, 28.91, 0.18478, 0.18881, -0.00705, 0.96439,
 11:53:30.788,f6:90:cc:01:6d:25, 2015-01-01 00:06:23.125, 0.899, -0.02, 0.406, 0.183, -0.122, 0, -2.494, -65.764, -153.051, -29.827, -11.687, -7.127, 28.15, 0.18353, -0.53226, -0.10837, -0.81924,
 11:53:30.788,f6:90:cc:01:6d:25, 2015-01-01 00:06:23.125, 0.896, -0.021, 0.406, 0.122, 0, 0, -2.494, -65.764, -153.04, -29.827, -11.687, -7.127, 28.15, 0.18353, -0.53226, -0.10837, -0.81924,
 11:53:30.788,e3:ca:2d:fd:e0:8c, 2015-01-01 00:06:22.730, 0.958, -0.098, 0.325, 0.244, 0, -0.183, -15.172, -70.735, -172.837, -28.860, -10.147, -12.153, 23.81, 0.02597, 0.57922, -0.07159, 0.81155,
 11:53:30.788,e3:ca:2d:fd:e0:8c, 2015-01-01 00:06:22.730, 0.959, -0.097, 0.326, 0.366, 0.061, -0.244, -15.178, -70.741, -172.837, -28.860, -10.147, -12.153, 23.81, 0.02597, 0.57922, -0.07159, 0.81155,
 11:53:30.808,ed:40:fe:65:30:6c, 2015-01-01 00:06:27.925, 0.629, 0.105, 0.77, 0.183, -0.183, 0.366, 7.042, -39.567, -135, -19.360, -12.427, -4.640, 24.51, 0.37976, -0.29022, -0.18265, -0.8591,
 11:53:30.808,ed:40:fe:65:30:6c, 2015-01-01 00:06:27.925, 0.63, 0.106, 0.769, 0.305, -0.122, 0.427, 7.048, -39.567, -135, -19.360, -12.427, -4.640, 24.51, 0.37976, -0.29022, -0.18265, -0.8591,
 11:53:30.811,f6:90:cc:01:6d:25, 2015-01-01 00:06:23.125, 0.897, -0.018, 0.406, 0.183, 0.122, 0, -2.494, -65.764, -153.023, -29.827, -11.687, -7.127, 28.15, 0.18353, -0.53226, -0.10837, -0.81924,
 11:53:30.811,f6:90:cc:01:6d:25, 2015-01-01 00:06:23.125, 0.901, -0.016, 0.408, 0.061, 0, 0, -2.494, -65.764, -153.007, -29.827, -11.687, -7.127, 28.15, 0.18353, -0.53226, -0.10837, -0.81924,
 11:53:30.811,ed:35:33:d3:6c:f8, 2015-01-01 00:06:22.930, 0.361, 0.061, 0.927, 0.305, 0.183, 0.793, 3.488, -21.374, 158.016, -9.127, -12.440, -33.293, 28.91, 0.1817, 0.18768, -0.00595, 0.96521,
 11:53:30.811,ed:35:33:d3:6c:f8, 2015-01-01 00:06:22.930, 0.36, 0.059, 0.928, 0.366, -0.122, 0.549, 3.494, -21.379, 158.055, -9.127, -12.440, -33.293, 28.91, 0.1817, 0.18768, -0.00595, 0.96521,
 11:53:30.831,ed:40:fe:65:30:6c, 2015-01-01 00:06:27.925, 0.631, 0.104, 0.77, 0, -0.488, 0.427, 7.053, -39.573, -135, -19.360, -12.427, -4.640, 24.51, 0.3786, -0.28998, -0.18274, -0.85971,
 11:53:30.831,ed:40:fe:65:30:6c, 2015-01-01 00:06:27.925, 0.639, 0.107, 0.771, -0.549, -0.61, 0.305, 7.053, -39.578, -135.005, -19.360, -12.427, -4.640, 24.51, 0.3786, -0.28998, -0.18274, -0.85971,
 11:53:30.832,e3:ca:2d:fd:e0:8c, 2015-01-01 00:06:22.730, 0.963, -0.095, 0.326, 0.366, -0.122, -0.244, -15.172, -70.741, -172.837, -28.860, -10.147, -12.153, 23.81, 0.02597, 0.57922, -0.07159, 0.81155,
 11:53:30.832,e3:ca:2d:fd:e0:8c, 2015-01-01 00:06:22.730, 0.968, -0.095, 0.325, 0.305, -0.183, -0.183, -15.172, -70.741, -172.837, -28.860, -10.147, -12.153, 23.81, 0.02597, 0.57922, -0.07159, 0.81155,
 11:53:30.835,ed:35:33:d3:6c:f8, 2015-01-01 00:06:23.245, 0.363, 0.059, 0.925, -0.061, -0.305, 0.366, 3.494, -21.385, 158.093, -9.127, -12.440, -33.293, 28.91, 0.1817, 0.18768, -0.00595, 0.96521,
 11:53:30.835,ed:35:33:d3:6c:f8, 2015-01-01 00:06:23.245, 0.372, 0.061, 0.918, -0.671, 0.427, 0.366, 3.483, -21.379, 158.126, -9.127, -12.440, -33.293, 28.91, 0.1817, 0.18768, -0.00595, 0.96521,
 11:53:30.854,e3:ca:2d:fd:e0:8c, 2015-01-01 00:06:22.730, 0.97, -0.096, 0.325, 0.183, 0, -0.183, -15.178, -70.746, -172.831, -28.860, -10.147, -12.153, 23.81, 0.02597, 0.57922, -0.07159, 0.81155,
 11:53:30.854,e3:ca:2d:fd:e0:8c, 2015-01-01 00:06:22.730, 0.967, -0.096, 0.324, 0.122, 0.305, -0.183, -15.178, -70.746, -172.831, -28.860, -10.147, -12.153, 23.81, 0.02597, 0.57922, -0.07159, 0.81155,
 11:53:30.856,f6:90:cc:01:6d:25, 2015-01-01 00:06:23.125, 0.905, -0.017, 0.409, -0.061, -0.183, 0, -2.494, -65.764, -152.996, -29.827, -11.687, -7.127, 28.15, 0.18353, -0.53226, -0.10837, -0.81924,
 11:53:30.856,f6:90:cc:01:6d:25, 2015-01-01 00:06:23.125, 0.906, -0.017, 0.405, 0, 0, 0, -2.494, -65.764, -152.979, -29.827, -11.687, -7.127, 28.15, 0.18353, -0.53226, -0.10837, -0.81924,
 11:53:30.876,ed:40:fe:65:30:6c, 2015-01-01 00:06:27.925, 0.64, 0.104, 0.767, -0.671, -0.122, 0, 7.048, -39.578, -135.011, -19.360, -12.427, -4.640, 24.51, 0.3786, -0.28998, -0.18274, -0.85971,
 11:53:30.876,ed:40:fe:65:30:6c, 2015-01-01 00:06:27.925, 0.634, 0.096, 0.764, -0.732, 0.061, -0.244, 7.042, -39.573, -135.027, -19.360, -12.427, -4.640, 24.51, 0.3786, -0.28998, -0.18274, -0.85971,
 11:53:30.878,ed:35:33:d3:6c:f8, 2015-01-01 00:06:23.245, 0.369, 0.055, 0.919, -0.793, 0.549, -0.061, 3.466, -21.368, 158.143, -9.127, -12.440, -33.293, 28.91, 0.1817, 0.18768, -0.00595, 0.96521,
 11:53:30.878,ed:35:33:d3:6c:f8, 2015-01-01 00:06:23.245, 0.361, 0.055, 0.924, -0.671, 0.366, 0.061, 3.455, -21.363, 158.159, -9.127, -12.440, -33.293, 28.91, 0.1817, 0.18768, -0.00595, 0.96521,
 11:53:30.900,e3:ca:2d:fd:e0:8c, 2015-01-01 00:06:22.730, 0.96, -0.098, 0.322, 0.305, 0.671, -0.305, -15.172, -70.735, -172.837, -28.860, -10.147, -12.153, 23.81, 0.02597, 0.57922, -0.07159, 0.81155,
 11:53:30.900,e3:ca:2d:fd:e0:8c, 2015-01-01 00:06:22.730, 0.958, -0.098, 0.323, 0.366, 0.732, -0.305, -15.156, -70.724, -172.848, -28.860, -10.147, -12.153, 23.81, 0.02597, 0.57922, -0.07159, 0.81155,
 11:53:30.924,ed:35:33:d3:6c:f8, 2015-01-01 00:06:23.245, 0.36, 0.062, 0.929, -0.366, 0.061, 0, 3.45, -21.363, 158.165, -9.127, -12.440, -33.293, 28.91, 0.1817, 0.18768, -0.00595, 0.96521,
 11:53:30.924,ed:35:33:d3:6c:f8, 2015-01-01 00:06:23.245, 0.362, 0.066, 0.93, 0, -0.244, 0, 3.45, -21.363, 158.165, -9.127, -12.440, -33.293, 28.91, 0.1817, 0.18768, -0.00595, 0.96521,
 11:53:30.924,f6:90:cc:01:6d:25, 2015-01-01 00:06:23.125, 0.902, -0.018, 0.404, 0, 0.183, 0, -2.494, -65.759, -152.963, -29.827, -11.687, -7.127, 28.15, 0.18353, -0.53226, -0.10837, -0.81924,
 11:53:30.924,f6:90:cc:01:6d:25, 2015-01-01 00:06:23.125, 0.897, -0.021, 0.405, 0.183, 0.61, 0, -2.494, -65.748, -152.952, -29.827, -11.687, -7.127, 28.15, 0.18353, -0.53226, -0.10837, -0.81924,
 11:53:30.945,f6:90:cc:01:6d:25, 2015-01-01 00:06:23.125, 0.897, -0.02, 0.403, -0.122, 0.977, 0, -2.494, -65.731, -152.941, -29.487, -11.533, -7.420, 28.15, 0.18353, -0.53226, -0.10837, -0.81924,
 11:53:30.945,f6:90:cc:01:6d:25, 2015-01-01 00:06:23.125, 0.899, -0.016, 0.404, -0.122, 0.793, 0, -2.494, -65.715, -152.93, -29.487, -11.533, -7.420, 28.15, 0.18353, -0.53226, -0.10837, -0.81924,
 11:53:30.965,ed:40:fe:65:30:6c, 2015-01-01 00:06:28.260, 0.628, 0.104, 0.771, -0.854, 0.061, -0.122, 7.037, -39.567, -135.044, -19.360, -12.427, -4.640, 24.51, 0.3786, -0.28998, -0.18274, -0.85971,
 11:53:30.965,ed:40:fe:65:30:6c, 2015-01-01 00:06:28.260, 0.63, 0.111, 0.771, -0.977, 0.244, 0, 7.026, -39.562, -135.055, -19.360, -12.427, -4.640, 24.51, 0.3786, -0.28998, -0.18274, -0.85971,
 11:53:30.966,e3:ca:2d:fd:e0:8c, 2015-01-01 00:06:22.730, 0.962, -0.097, 0.323, 0.305, 0.305, -0.305, -15.145, -70.714, -172.864, -28.913, -10.547, -11.787, 23.81, 0.02597, 0.57922, -0.07159, 0.81155,
 11:53:30.966,e3:ca:2d:fd:e0:8c, 2015-01-01 00:06:22.730, 0.965, -0.095, 0.323, 0.122, -0.061, -0.183, -15.139, -70.714, -172.875, -28.913, -10.547, -11.787, 23.81, 0.02597, 0.57922, -0.07159, 0.81155,
 11:53:30.990,e3:ca:2d:fd:e0:8c, 2015-01-01 00:06:22.730, 0.967, -0.097, 0.322, 0, -0.427, -0.122, -15.145, -70.714, -172.87, -28.913, -10.547, -11.787, 23.81, 0.02585, 0.57919, -0.07159, 0.81155,
 11:53:30.990,e3:ca:2d:fd:e0:8c, 2015-01-01 00:06:22.730, 0.966, -0.097, 0.322, 0, -0.549, -0.122, -15.161, -70.724, -172.853, -28.913, -10.547, -11.787, 23.81, 0.02585, 0.57919, -0.07159, 0.81155,
 11:53:30.992,ed:35:33:d3:6c:f8, 2015-01-01 00:06:23.245, 0.361, 0.062, 0.929, 0.61, -0.793, 0.244, 3.461, -21.379, 158.165, -9.127, -12.440, -33.293, 28.91, 0.1817, 0.18768, -0.00595, 0.96521,
 11:53:30.992,ed:35:33:d3:6c:f8, 2015-01-01 00:06:23.245, 0.363, 0.054, 0.922, 0.305, -0.671, 0.061, 3.472, -21.39, 158.159, -9.127, -12.440, -33.293, 28.91, 0.1817, 0.18768, -0.00595, 0.96521,
 11:53:31.011,ed:40:fe:65:30:6c, 2015-01-01 00:06:28.260, 0.63, 0.109, 0.768, -0.488, -0.061, 0.305, 7.02, -39.556, -135.06, -19.360, -12.427, -4.640, 24.51, 0.3786, -0.28998, -0.18274, -0.85971,
 11:53:31.011,ed:40:fe:65:30:6c, 2015-01-01 00:06:28.260, 0.631, 0.104, 0.771, -0.305, -0.488, 0.305, 7.015, -39.556, -135.06, -19.360, -12.427, -4.640, 24.51, 0.3786, -0.28998, -0.18274, -0.85971,
 11:53:31.013,f6:90:cc:01:6d:25, 2015-01-01 00:06:23.125, 0.902, -0.017, 0.408, -0.183, 0.122, 0, -2.499, -65.709, -152.913, -29.487, -11.533, -7.420, 28.15, 0.18353, -0.53226, -0.10837, -0.81924,
 11:53:31.013,f6:90:cc:01:6d:25, 2015-01-01 00:06:23.125, 0.902, -0.018, 0.408, -0.122, -0.061, 0, -2.505, -65.709, -152.902, -29.487, -11.533, -7.420, 28.15, 0.18353, -0.53226, -0.10837, -0.81924,
 11:53:31.015,ed:35:33:d3:6c:f8, 2015-01-01 00:06:23.245, 0.364, 0.053, 0.926, 0, -0.549, -0.366, 3.477, -21.401, 158.159, -9.127, -12.440, -33.293, 28.91, 0.1817, 0.18768, -0.00595, 0.96521,
 11:53:31.015,ed:35:33:d3:6c:f8, 2015-01-01 00:06:23.245, 0.364, 0.06, 0.922, -0.061, -0.427, -0.183, 3.477, -21.412, 158.17, -9.127, -12.440, -33.293, 28.91, 0.1817, 0.18768, -0.00595, 0.96521,
 11:53:31.033,ed:40:fe:65:30:6c, 2015-01-01 00:06:28.260, 0.633, 0.099, 0.771, -0.549, -0.427, 0, 7.015, -39.562, -135.071, -19.360, -12.427, -4.640, 24.51, 0.3786, -0.28998, -0.18274, -0.85971,
 11:53:31.033,ed:40:fe:65:30:6c, 2015-01-01 00:06:28.260, 0.633, 0.1, 0.77, -0.183, -0.549, -0.061, 7.02, -39.567, -135.082, -19.360, -12.427, -4.640, 24.51, 0.3786, -0.28998, -0.18274, -0.85971,
 11:53:31.035,e3:ca:2d:fd:e0:8c, 2015-01-01 00:06:22.730, 0.963, -0.098, 0.321, 0, -0.366, -0.122, -15.183, -70.735, -172.842, -28.913, -10.547, -11.787, 23.81, 0.02585, 0.57919, -0.07159, 0.81155,
 11:53:31.035,e3:ca:2d:fd:e0:8c, 2015-01-01 00:06:22.730, 0.961, -0.096, 0.321, 0, -0.244, -0.183, -15.2, -70.741, -172.831, -28.913, -10.547, -11.787, 23.81, 0.02585, 0.57919, -0.07159, 0.81155,
 11:53:31.036,f6:90:cc:01:6d:25, 2015-01-01 00:06:23.125, 0.901, -0.021, 0.405, 0, 0, 0, -2.505, -65.709, -152.886, -29.487, -11.533, -7.420, 28.15, 0.18524, -0.53159, -0.10922, -0.81918,
 11:53:31.036,f6:90:cc:01:6d:25, 2015-01-01 00:06:23.125, 0.899, -0.02, 0.405, 0, 0.183, 0, -2.505, -65.709, -152.875, -29.487, -11.533, -7.420, 28.15, 0.18524, -0.53159, -0.10922, -0.81918,
 11:53:31.037,ed:35:33:d3:6c:f8, 2015-01-01 00:06:23.245, 0.363, 0.063, 0.923, -0.183, 0.244, 0.366, 3.477, -21.412, 158.214, -9.427, -11.960, -32.800, 28.91, 0.1817, 0.18768, -0.00595, 0.96521,
 11:53:31.037,ed:35:33:d3:6c:f8, 2015-01-01 00:06:23.245, 0.362, 0.061, 0.924, -0.305, 0.793, 0.427, 3.472, -21.396, 158.247, -9.427, -11.960, -32.800, 28.91, 0.1817, 0.18768, -0.00595, 0.96521,
 11:53:31.057,e3:ca:2d:fd:e0:8c, 2015-01-01 00:06:23.110, 0.96, -0.095, 0.321, 0.122, -0.488, -0.183, -15.211, -70.746, -172.826, -28.913, -10.547, -11.787, 23.81, 0.02585, 0.57919, -0.07159, 0.81155,
 11:53:31.057,e3:ca:2d:fd:e0:8c, 2015-01-01 00:06:23.110, 0.962, -0.095, 0.323, 0.244, -0.854, -0.183, -15.222, -70.763, -172.815, -28.913, -10.547, -11.787, 23.81, 0.02585, 0.57919, -0.07159, 0.81155,
 11:53:31.078,ed:40:fe:65:30:6c, 2015-01-01 00:06:28.260, 0.632, 0.104, 0.769, 0, -0.427, 0.183, 7.026, -39.573, -135.093, -19.360, -12.427, -4.640, 24.51, 0.3786, -0.28998, -0.18274, -0.85971,
 11:53:31.078,ed:40:fe:65:30:6c, 2015-01-01 00:06:28.260, 0.63, 0.106, 0.769, 0.061, -0.122, 0.488, 7.026, -39.573, -135.093, -19.360, -12.427, -4.640, 24.51, 0.3786, -0.28998, -0.18274, -0.85971,
 11:53:31.081,f6:90:cc:01:6d:25, 2015-01-01 00:06:23.125, 0.898, -0.019, 0.406, 0, 0.122, 0, -2.505, -65.704, -152.864, -29.487, -11.533, -7.420, 28.15, 0.18524, -0.53159, -0.10922, -0.81918,
 11:53:31.081,f6:90:cc:01:6d:25, 2015-01-01 00:06:23.125, 0.897, -0.018, 0.408, 0.183, 0, 0, -2.505, -65.704, -152.847, -29.487, -11.533, -7.420, 28.15, 0.18524, -0.53159, -0.10922, -0.81918,
 11:53:31.083,ed:35:33:d3:6c:f8, 2015-01-01 00:06:23.245, 0.363, 0.059, 0.923, -0.427, 0.732, 0.244, 3.461, -21.385, 158.247, -9.427, -11.960, -32.800, 28.91, 0.1817, 0.18768, -0.00595, 0.96521,
 11:53:31.083,ed:35:33:d3:6c:f8, 2015-01-01 00:06:23.245, 0.367, 0.059, 0.92, -0.732, 0.854, 0.183, 3.45, -21.368, 158.247, -9.427, -11.960, -32.800, 28.91, 0.1817, 0.18768, -0.00595, 0.96521,
 11:53:31.102,f6:90:cc:01:6d:25, 2015-01-01 00:06:23.485, 0.899, -0.018, 0.408, 0.244, -0.122, 0, -2.505, -65.704, -152.836, -29.487, -11.533, -7.420, 28.15, 0.18524, -0.53159, -0.10922, -0.81918,
 11:53:31.102,f6:90:cc:01:6d:25, 2015-01-01 00:06:23.485, 0.901, -0.018, 0.409, -0.122, -0.183, 0, -2.505, -65.709, -152.825, -29.487, -11.533, -7.420, 28.15, 0.18524, -0.53159, -0.10922, -0.81918,
 11:53:31.123,ed:40:fe:65:30:6c, 2015-01-01 00:06:28.260, 0.631, 0.104, 0.769, 0.061, 0, 0.427, 7.031, -39.573, -135.093, -19.360, -12.427, -4.640, 24.51, 0.3786, -0.28998, -0.18274, -0.85971,
 11:53:31.123,ed:40:fe:65:30:6c, 2015-01-01 00:06:28.260, 0.634, 0.104, 0.768, -0.061, 0, 0.366, 7.031, -39.567, -135.093, -19.360, -12.427, -4.640, 24.51, 0.3786, -0.28998, -0.18274, -0.85971,
 11:53:31.123,e3:ca:2d:fd:e0:8c, 2015-01-01 00:06:23.110, 0.963, -0.095, 0.325, 0.183, -0.977, -0.183, -15.238, -70.779, -172.804, -28.913, -10.547, -11.787, 23.81, 0.02585, 0.57919, -0.07159, 0.81155,
 11:53:31.123,e3:ca:2d:fd:e0:8c, 2015-01-01 00:06:23.110, 0.967, -0.095, 0.323, 0, -1.099, -0.244, -15.255, -70.801, -172.787, -28.913, -10.547, -11.787, 23.81, 0.02585, 0.57919, -0.07159, 0.81155,
