Time,Device name,Chip Time(),Acceleration X(g),Acceleration Y(g),Acceleration Z(g),Angular velocity X(°/s),Angular velocity Y(°/s),Angular velocity Z(°/s),Angle X(°),Angle Y(°),Angle Z(°),Magnetic field X(ʯt),Magnetic field Y(ʯt),Magnetic field Z(ʯt),Temperature(℃),Quaternions 0(),Quaternions 1(),Quaternions 2(),Quaternions 3()
 15:37:44.719,e3:ca:2d:fd:e0:8c, 2015-01-01 03:49:02.540, 1.021, 0.008, -0.057, 1.709, -1.77, 0.427, 147.574, -86.583, 5.092, -28.027, -11.727, -3.373, 27.2, 0.17349, 0.70712, -0.16022, 0.66638,
 15:37:44.720,e3:ca:2d:fd:e0:8c, 2015-01-01 03:49:02.540, 1.017, 0.023, -0.058, 2.258, -1.77, 0.061, 147.942, -86.556, 4.785, -28.027, -11.727, -3.373, 27.2, 0.17349, 0.70712, -0.16022, 0.66638,
 15:37:44.721,ed:40:fe:65:30:6c, 2015-01-01 03:49:07.820, 0.866, 0.008, 0.493, 0.244, 2.136, -0.244, 0.483, -61.172, -113.851, -25.960, -6.900, 3.013, 25.82, 0.47293, -0.42407, -0.28101, -0.71933,
 15:37:44.721,ed:40:fe:65:30:6c, 2015-01-01 03:49:07.820, 0.869, 0.009, 0.492, 0.061, 1.709, -0.061, 0.489, -61.133, -113.862, -25.960, -6.900, 3.013, 25.82, 0.47293, -0.42407, -0.28101, -0.71933,
 15:37:44.740,ed:40:fe:65:30:6c, 2015-01-01 03:49:07.820, 0.871, 0.007, 0.491, 0.122, 1.099, 0.305, 0.489, -61.1, -113.857, -26.233, -7.013, 3.980, 25.82, 0.47293, -0.42407, -0.28101, -0.71933,
 15:37:44.740,ed:40:fe:65:30:6c, 2015-01-01 03:49:07.820, 0.873, 0.007, 0.485, 0.61, 0.488, 0.671, 0.483, -61.078, -113.84, -26.233, -7.013, 3.980, 25.82, 0.47293, -0.42407, -0.28101, -0.71933,
 15:37:44.744,f6:90:cc:01:6d:25, 2015-01-01 03:49:02.850, 0.968, 0.07, -0.1, 0.488, 2.075, -0.427, 145.234, -82.518, 32.997, -30.280, -13.293, 2.407, 30.33, 0.03516, 0.74469, 0.01642, 0.6662,
 15:37:44.744,f6:90:cc:01:6d:25, 2015-01-01 03:49:02.850, 0.969, 0.062, -0.103, 1.16, 1.221, -0.122, 145.118, -82.54, 33.146, -30.280, -13.293, 2.407, 30.33, 0.03516, 0.74469, 0.01642, 0.6662,
 15:37:44.744,ed:35:33:d3:6c:f8, 2015-01-01 03:49:02.890, 0.766, 0.114, 0.615, -0.549, 2.258, -0.732, 9.448, -51.597, 139.625, -20.167, -11.247, -23.033, 28.7, -0.27261, -0.43332, 0.07846, -0.85535,
 15:37:44.744,ed:35:33:d3:6c:f8, 2015-01-01 03:49:02.890, 0.771, 0.119, 0.61, -1.587, 1.526, -0.305, 9.437, -51.564, 139.592, -20.167, -11.247, -23.033, 28.7, -0.27261, -0.43332, 0.07846, -0.85535,
 15:37:44.766,f6:90:cc:01:6d:25, 2015-01-01 03:49:02.850, 0.97, 0.07, -0.105, 1.16, 0.305, 0.061, 145.113, -82.546, 33.184, -30.280, -13.293, 2.407, 30.33, 0.03613, 0.74356, 0.01523, 0.66745,
 15:37:44.766,f6:90:cc:01:6d:25, 2015-01-01 03:49:02.850, 0.971, 0.083, -0.106, 0.488, -0.122, 0, 145.124, -82.546, 33.223, -30.280, -13.293, 2.407, 30.33, 0.03613, 0.74356, 0.01523, 0.66745,
 15:37:44.766,ed:35:33:d3:6c:f8, 2015-01-01 03:49:02.890, 0.773, 0.111, 0.609, -0.488, 0.732, 0.366, 9.421, -51.548, 139.559, -20.167, -11.247, -23.033, 28.7, -0.27261, -0.43332, 0.07846, -0.85535,
 15:37:44.766,ed:35:33:d3:6c:f8, 2015-01-01 03:49:02.890, 0.775, 0.107, 0.607, 0.183, 0.305, 0.854, 9.41, -51.542, 139.537, -20.167, -11.247, -23.033, 28.7, -0.27261, -0.43332, 0.07846, -0.85535,
 15:37:44.786,e3:ca:2d:fd:e0:8c, 2015-01-01 03:49:02.540, 1.02, 0.048, -0.057, 1.099, -1.099, -0.122, 148.107, -86.539, 4.686, -28.027, -11.727, -3.373, 27.2, 0.17349, 0.70712, -0.16022, 0.66638,
 15:37:44.786,e3:ca:2d:fd:e0:8c, 2015-01-01 03:49:02.540, 1.021, 0.055, -0.058, -0.366, -0.549, 0, 148.151, -86.528, 4.653, -28.027, -11.727, -3.373, 27.2, 0.17349, 0.70712, -0.16022, 0.66638,
 15:37:44.786,ed:40:fe:65:30:6c, 2015-01-01 03:49:07.820, 0.876, 0.012, 0.482, 0.854, 0, 0.366, 0.478, -61.068, -113.813, -26.233, -7.013, 3.980, 25.82, 0.47293, -0.42407, -0.28101, -0.71933,
 15:37:44.786,ed:40:fe:65:30:6c, 2015-01-01 03:49:07.820, 0.882, 0.014, 0.481, 0.305, -0.366, -0.427, 0.494, -61.073, -113.829, -26.233, -7.013, 3.980, 25.82, 0.47293, -0.42407, -0.28101, -0.71933,
 15:37:44.809,f6:90:cc:01:6d:25, 2015-01-01 03:49:02.850, 0.973, 0.088, -0.11, 0, -0.183, -0.061, 145.113, -82.546, 33.267, -30.280, -13.293, 2.407, 30.33, 0.03613, 0.74356, 0.01523, 0.66745,
 15:37:44.809,f6:90:cc:01:6d:25, 2015-01-01 03:49:02.850, 0.98, 0.08, -0.111, -0.244, -0.183, 0.061, 145.113, -82.54, 33.283, -30.280, -13.293, 2.407, 30.33, 0.03613, 0.74356, 0.01523, 0.66745,
 15:37:44.809,e3:ca:2d:fd:e0:8c, 2015-01-01 03:49:02.540, 1.021, 0.037, -0.061, -0.671, -0.427, 0.305, 148.25, -86.523, 4.532, -28.027, -11.727, -3.373, 27.2, 0.17282, 0.70724, -0.15942, 0.66666,
 15:37:44.809,e3:ca:2d:fd:e0:8c, 2015-01-01 03:49:02.540, 1.019, 0.022, -0.057, 0.183, -0.305, 0.488, 148.414, -86.523, 4.373, -28.027, -11.727, -3.373, 27.2, 0.17282, 0.70724, -0.15942, 0.66666,
 15:37:44.811,ed:35:33:d3:6c:f8, 2015-01-01 03:49:02.890, 0.78, 0.107, 0.605, 0.916, -0.183, 0.061, 9.437, -51.548, 139.499, -20.167, -11.247, -23.033, 28.7, -0.27261, -0.43332, 0.07846, -0.85535,
 15:37:44.811,ed:35:33:d3:6c:f8, 2015-01-01 03:49:02.890, 0.787, 0.109, 0.603, 0, -0.061, -0.732, 9.465, -51.548, 139.444, -20.167, -11.247, -23.033, 28.7, -0.27261, -0.43332, 0.07846, -0.85535,
 15:37:44.833,f6:90:cc:01:6d:25, 2015-01-01 03:49:03.185, 0.98, 0.071, -0.104, -0.427, -0.305, 0.427, 145.168, -82.54, 33.256, -30.280, -13.293, 2.407, 30.33, 0.03613, 0.74356, 0.01523, 0.66745,
 15:37:44.833,f6:90:cc:01:6d:25, 2015-01-01 03:49:03.185, 0.979, 0.074, -0.106, -0.366, -0.061, 0.244, 145.217, -82.535, 33.217, -30.280, -13.293, 2.407, 30.33, 0.03613, 0.74356, 0.01523, 0.66745,
 15:37:44.854,e3:ca:2d:fd:e0:8c, 2015-01-01 03:49:02.540, 1.019, 0.025, -0.052, 0.732, -0.244, 0.366, 148.568, -86.523, 4.246, -28.027, -11.727, -3.373, 27.2, 0.17282, 0.70724, -0.15942, 0.66666,
 15:37:44.854,e3:ca:2d:fd:e0:8c, 2015-01-01 03:49:02.540, 1.02, 0.036, -0.052, 0.366, -0.244, 0.183, 148.661, -86.517, 4.169, -28.027, -11.727, -3.373, 27.2, 0.17282, 0.70724, -0.15942, 0.66666,
 15:37:44.856,ed:35:33:d3:6c:f8, 2015-01-01 03:49:02.890, 0.785, 0.109, 0.602, -0.183, -0.305, -0.793, 9.492, -51.548, 139.395, -19.833, -11.500, -22.433, 28.7, -0.27261, -0.43332, 0.07846, -0.85535,
 15:37:44.856,ed:35:33:d3:6c:f8, 2015-01-01 03:49:02.890, 0.784, 0.11, 0.605, -0.061, -0.244, -0.549, 9.514, -51.553, 139.345, -19.833, -11.500, -22.433, 28.7, -0.27261, -0.43332, 0.07846, -0.85535,
 15:37:44.875,ed:40:fe:65:30:6c, 2015-01-01 03:49:07.820, 0.886, 0.007, 0.481, -0.244, -0.427, -0.793, 0.522, -61.078, -113.884, -26.233, -7.013, 3.980, 25.82, 0.47205, -0.42365, -0.28043, -0.72037,
 15:37:44.875,ed:40:fe:65:30:6c, 2015-01-01 03:49:07.820, 0.883, 0.004, 0.483, -0.427, -0.061, -0.671, 0.544, -61.084, -113.939, -26.233, -7.013, 3.980, 25.82, 0.47205, -0.42365, -0.28043, -0.72037,
 15:37:44.878,f6:90:cc:01:6d:25, 2015-01-01 03:49:03.185, 0.98, 0.075, -0.105, -0.488, -0.061, 0.305, 145.239, -82.54, 33.212, -30.280, -13.293, 2.407, 30.33, 0.03613, 0.74356, 0.01523, 0.66745,
 15:37:44.878,f6:90:cc:01:6d:25, 2015-01-01 03:49:03.185, 0.979, 0.071, -0.105, -0.305, -0.244, 0.305, 145.267, -82.54, 33.195, -30.280, -13.293, 2.407, 30.33, 0.03613, 0.74356, 0.01523, 0.66745,
 15:37:44.897,ed:40:fe:65:30:6c, 2015-01-01 03:49:08.155, 0.882, 0.004, 0.484, -0.244, 0, -0.427, 0.56, -61.084, -113.983, -26.233, -7.013, 3.980, 25.82, 0.47205, -0.42365, -0.28043, -0.72037,
 15:37:44.897,ed:40:fe:65:30:6c, 2015-01-01 03:49:08.155, 0.881, 0.005, 0.487, 0, -0.122, -0.244, 0.571, -61.084, -114.016, -26.233, -7.013, 3.980, 25.82, 0.47205, -0.42365, -0.28043, -0.72037,
 15:37:44.898,e3:ca:2d:fd:e0:8c, 2015-01-01 03:49:02.900, 1.02, 0.04, -0.053, 0, -0.122, 0.183, 148.716, -86.517, 4.12, -28.027, -11.727, -3.373, 27.2, 0.17282, 0.70724, -0.15942, 0.66666,
 15:37:44.898,e3:ca:2d:fd:e0:8c, 2015-01-01 03:49:02.900, 1.018, 0.033, -0.054, 0, -0.305, 0.244, 148.81, -86.512, 4.043, -28.027, -11.727, -3.373, 27.2, 0.17282, 0.70724, -0.15942, 0.66666,
 15:37:44.901,ed:35:33:d3:6c:f8, 2015-01-01 03:49:02.890, 0.781, 0.108, 0.607, 0.061, -0.244, -0.244, 9.531, -51.564, 139.285, -19.833, -11.500, -22.433, 28.7, -0.27823, -0.43237, 0.0806, -0.85382,
 15:37:44.901,ed:35:33:d3:6c:f8, 2015-01-01 03:49:02.890, 0.781, 0.108, 0.609, 0.183, -0.366, -0.244, 9.547, -51.57, 139.219, -19.833, -11.500, -22.433, 28.7, -0.27823, -0.43237, 0.0806, -0.85382,
 15:37:44.921,ed:40:fe:65:30:6c, 2015-01-01 03:49:08.155, 0.88, 0.005, 0.487, 0.061, -0.183, -0.305, 0.588, -61.089, -114.044, -26.233, -7.013, 3.980, 25.82, 0.47205, -0.42365, -0.28043, -0.72037,
 15:37:44.921,ed:40:fe:65:30:6c, 2015-01-01 03:49:08.155, 0.882, 0.002, 0.486, 0.244, -0.305, -0.183, 0.599, -61.095, -114.066, -26.233, -7.013, 3.980, 25.82, 0.47205, -0.42365, -0.28043, -0.72037,
 15:37:44.922,e3:ca:2d:fd:e0:8c, 2015-01-01 03:49:02.900, 1.015, 0.027, -0.054, 0.122, -0.244, 0.183, 148.892, -86.512, 3.983, -28.027, -11.727, -3.373, 27.2, 0.17282, 0.70724, -0.15942, 0.66666,
 15:37:44.922,e3:ca:2d:fd:e0:8c, 2015-01-01 03:49:02.900, 1.015, 0.027, -0.046, 0, 0.244, 0, 148.848, -86.512, 4.026, -28.027, -11.727, -3.373, 27.2, 0.17282, 0.70724, -0.15942, 0.66666,
 15:37:44.922,f6:90:cc:01:6d:25, 2015-01-01 03:49:03.185, 0.979, 0.069, -0.113, 0.183, -0.244, 0.427, 145.322, -82.54, 33.157, -30.280, -13.293, 2.407, 30.33, 0.03613, 0.74356, 0.01523, 0.66745,
 15:37:44.922,f6:90:cc:01:6d:25, 2015-01-01 03:49:03.185, 0.984, 0.066, -0.096, 0.061, -0.244, 0.671, 145.404, -82.54, 33.107, -30.280, -13.293, 2.407, 30.33, 0.03613, 0.74356, 0.01523, 0.66745,
 15:37:44.923,ed:35:33:d3:6c:f8, 2015-01-01 03:49:03.205, 0.782, 0.107, 0.608, 0.183, -0.549, -0.183, 9.569, -51.581, 139.147, -19.833, -11.500, -22.433, 28.7, -0.27823, -0.43237, 0.0806, -0.85382,
 15:37:44.923,ed:35:33:d3:6c:f8, 2015-01-01 03:49:03.205, 0.787, 0.107, 0.606, 0.183, -0.61, 0, 9.58, -51.597, 139.065, -19.833, -11.500, -22.433, 28.7, -0.27823, -0.43237, 0.0806, -0.85382,
 15:37:44.943,ed:40:fe:65:30:6c, 2015-01-01 03:49:08.155, 0.886, 0.001, 0.486, 0.305, -0.427, 0.061, 0.61, -61.1, -114.082, -26.233, -7.013, 3.980, 25.82, 0.47205, -0.42365, -0.28043, -0.72037,
 15:37:44.943,ed:40:fe:65:30:6c, 2015-01-01 03:49:08.155, 0.887, 0.001, 0.487, 0.366, -0.244, 0.305, 0.61, -61.111, -114.082, -26.233, -7.013, 3.980, 25.82, 0.47205, -0.42365, -0.28043, -0.72037,
 15:37:44.967,e3:ca:2d:fd:e0:8c, 2015-01-01 03:49:02.900, 1.011, 0.043, -0.039, 0.061, 0.549, 0, 148.727, -86.523, 4.158, -28.027, -11.727, -3.373, 27.2, 0.17282, 0.70724, -0.15942, 0.66666,
 15:37:44.967,e3:ca:2d:fd:e0:8c, 2015-01-01 03:49:02.900, 1.017, 0.044, -0.036, -0.183, 0.488, 0.122, 148.618, -86.534, 4.241, -28.027, -11.727, -3.373, 27.2, 0.17282, 0.70724, -0.15942, 0.66666,
 15:37:44.968,f6:90:cc:01:6d:25, 2015-01-01 03:49:03.185, 0.984, 0.076, -0.096, 0.732, 0.122, 0.427, 145.497, -82.54, 33.036, -30.280, -13.293, 2.407, 30.33, 0.03613, 0.74356, 0.01523, 0.66745,
 15:37:44.968,f6:90:cc:01:6d:25, 2015-01-01 03:49:03.185, 0.982, 0.079, -0.091, 0.122, 0.488, 0.122, 145.525, -82.551, 33.036, -30.280, -13.293, 2.407, 30.33, 0.03613, 0.74356, 0.01523, 0.66745,
 15:37:44.970,ed:35:33:d3:6c:f8, 2015-01-01 03:49:03.205, 0.788, 0.107, 0.605, 0.244, -0.305, 0.305, 9.586, -51.608, 138.988, -19.833, -11.500, -22.433, 28.7, -0.27823, -0.43237, 0.0806, -0.85382,
 15:37:44.971,ed:35:33:d3:6c:f8, 2015-01-01 03:49:03.205, 0.785, 0.106, 0.603, 0.366, 0, 0.427, 9.586, -51.608, 138.95, -19.833, -11.500, -22.433, 28.7, -0.27823, -0.43237, 0.0806, -0.85382,
 15:37:44.988,ed:40:fe:65:30:6c, 2015-01-01 03:49:08.155, 0.883, 0.005, 0.486, 0.549, 0.305, 0.305, 0.604, -61.111, -114.077, -26.233, -7.013, 3.980, 25.82, 0.47205, -0.42365, -0.28043, -0.72037,
 15:37:44.988,ed:40:fe:65:30:6c, 2015-01-01 03:49:08.155, 0.879, 0.007, 0.489, 0.305, 0.793, 0, 0.604, -61.1, -114.082, -26.233, -7.013, 3.980, 25.82, 0.47205, -0.42365, -0.28043, -0.72037,
 15:37:45.011,e3:ca:2d:fd:e0:8c, 2015-01-01 03:49:02.900, 1.018, 0.038, -0.038, -0.549, 0, 0.122, 148.563, -86.539, 4.263, -28.027, -11.727, -3.373, 27.2, 0.17282, 0.70724, -0.15942, 0.66666,
 15:37:45.011,e3:ca:2d:fd:e0:8c, 2015-01-01 03:49:02.900, 1.02, 0.032, -0.045, -0.549, -1.404, 0.183, 148.766, -86.517, 4.01, -28.027, -11.727, -3.373, 27.2, 0.17282, 0.70724, -0.15942, 0.66666,
 15:37:45.013,f6:90:cc:01:6d:25, 2015-01-01 03:49:03.185, 0.98, 0.077, -0.092, 0.305, 0.854, -0.061, 145.47, -82.562, 33.135, -30.280, -13.293, 2.407, 30.33, 0.03613, 0.74356, 0.01523, 0.66745,
 15:37:45.013,f6:90:cc:01:6d:25, 2015-01-01 03:49:03.185, 0.974, 0.075, -0.097, -0.244, 0.732, -0.061, 145.371, -82.579, 33.278, -30.280, -13.293, 2.407, 30.33, 0.03613, 0.74356, 0.01523, 0.66745,
 15:37:45.014,ed:35:33:d3:6c:f8, 2015-01-01 03:49:03.205, 0.781, 0.107, 0.604, 0.244, 0.549, 0.122, 9.591, -51.603, 138.933, -19.833, -11.500, -22.433, 28.7, -0.27823, -0.43237, 0.0806, -0.85382,
 15:37:45.014,ed:35:33:d3:6c:f8, 2015-01-01 03:49:03.205, 0.774, 0.108, 0.607, 0.061, 0.854, -0.122, 9.602, -51.586, 138.928, -19.833, -11.500, -22.433, 28.7, -0.27823, -0.43237, 0.0806, -0.85382,
 15:37:45.032,ed:40:fe:65:30:6c, 2015-01-01 03:49:08.155, 0.873, 0.007, 0.49, 0, 1.282, -0.183, 0.61, -61.078, -114.099, -26.233, -7.013, 3.980, 25.82, 0.47205, -0.42365, -0.28043, -0.72037,
 15:37:45.032,ed:40:fe:65:30:6c, 2015-01-01 03:49:08.155, 0.869, 0.009, 0.493, -0.305, 1.16, -0.366, 0.621, -61.057, -114.126, -26.233, -7.013, 3.980, 25.82, 0.47205, -0.42365, -0.28043, -0.72037,
 15:37:45.035,f6:90:cc:01:6d:25, 2015-01-01 03:49:03.185, 0.972, 0.075, -0.103, -0.061, 0.427, -0.061, 145.272, -82.59, 33.376, -30.360, -13.240, 2.953, 30.33, 0.03613, 0.74356, 0.01523, 0.66745,
 15:37:45.035,f6:90:cc:01:6d:25, 2015-01-01 03:49:03.185, 0.973, 0.074, -0.106, -0.061, -0.061, 0, 145.217, -82.601, 33.448, -30.360, -13.240, 2.953, 30.33, 0.03613, 0.74356, 0.01523, 0.66745,
 15:37:45.059,ed:35:33:d3:6c:f8, 2015-01-01 03:49:03.205, 0.768, 0.109, 0.614, -0.549, 0.916, -0.61, 9.608, -51.57, 138.906, -19.833, -11.500, -22.433, 28.7, -0.27823, -0.43237, 0.0806, -0.85382,
 15:37:45.059,ed:35:33:d3:6c:f8, 2015-01-01 03:49:03.205, 0.772, 0.111, 0.615, -0.61, 0.488, -0.854, 9.619, -51.559, 138.873, -19.833, -11.500, -22.433, 28.7, -0.27823, -0.43237, 0.0806, -0.85382,
 15:37:45.078,ed:40:fe:65:30:6c, 2015-01-01 03:49:08.155, 0.872, 0.008, 0.49, -0.427, 0.61, -0.488, 0.626, -61.035, -114.159, -26.233, -7.013, 3.980, 25.82, 0.47205, -0.42365, -0.28043, -0.72037,
 15:37:45.078,ed:40:fe:65:30:6c, 2015-01-01 03:49:08.155, 0.877, 0.003, 0.484, -0.305, 0.122, -0.366, 0.637, -61.029, -114.197, -26.233, -7.013, 3.980, 25.82, 0.47205, -0.42365, -0.28043, -0.72037,
 15:37:45.079,e3:ca:2d:fd:e0:8c, 2015-01-01 03:49:02.900, 1.02, 0.034, -0.055, -0.366, -2.197, 0.061, 149.073, -86.484, 3.669, -28.027, -11.727, -3.373, 27.2, 0.17282, 0.70724, -0.15942, 0.66666,
 15:37:45.079,e3:ca:2d:fd:e0:8c, 2015-01-01 03:49:02.900, 1.021, 0.039, -0.061, -0.305, -2.258, 0, 149.376, -86.446, 3.34, -28.027, -11.727, -3.373, 27.2, 0.17282, 0.70724, -0.15942, 0.66666,
 15:37:45.102,f6:90:cc:01:6d:25, 2015-01-01 03:49:03.185, 0.971, 0.074, -0.11, 0.244, -0.305, -0.122, 145.201, -82.595, 33.464, -30.360, -13.240, 2.953, 30.33, 0.03613, 0.74356, 0.01523, 0.66745,
 15:37:45.102,f6:90:cc:01:6d:25, 2015-01-01 03:49:03.185, 0.975, 0.074, -0.11, 0.61, -0.549, -0.305, 145.206, -82.59, 33.475, -30.360, -13.240, 2.953, 30.33, 0.03613, 0.74356, 0.01523, 0.66745,
 15:37:45.102,e3:ca:2d:fd:e0:8c, 2015-01-01 03:49:02.900, 1.02, 0.039, -0.064, -0.549, -2.014, 0.061, 149.656, -86.413, 3.049, -28.620, -11.933, -3.767, 27.2, 0.17282, 0.70724, -0.15942, 0.66666,
 15:37:45.102,e3:ca:2d:fd:e0:8c, 2015-01-01 03:49:02.900, 1.019, 0.033, -0.064, -0.793, -1.587, 0.183, 149.897, -86.385, 2.807, -28.620, -11.933, -3.767, 27.2, 0.17282, 0.70724, -0.15942, 0.66666,
 15:37:45.103,ed:35:33:d3:6c:f8, 2015-01-01 03:49:03.205, 0.777, 0.108, 0.609, -0.183, 0.061, -0.671, 9.641, -51.553, 138.84, -19.833, -11.500, -22.433, 28.7, -0.27823, -0.43237, 0.0806, -0.85382,
 15:37:45.103,ed:35:33:d3:6c:f8, 2015-01-01 03:49:03.205, 0.787, 0.108, 0.603, 0.061, 0.061, -0.549, 9.657, -51.553, 138.768, -19.833, -11.500, -22.433, 28.7, -0.27823, -0.43237, 0.0806, -0.85382,
 15:37:45.125,f6:90:cc:01:6d:25, 2015-01-01 03:49:03.185, 0.982, 0.071, -0.111, 0, -0.854, -0.183, 145.223, -82.573, 33.47, -30.360, -13.240, 2.953, 30.33, 0.03372, 0.74335, 0.01749, 0.66776,
 15:37:45.125,f6:90:cc:01:6d:25, 2015-01-01 03:49:03.185, 0.985, 0.066, -0.106, -0.244, -0.916, 0, 145.278, -82.557, 33.431, -30.360, -13.240, 2.953, 30.33, 0.03372, 0.74335, 0.01749, 0.66776,
 15:37:45.126,ed:35:33:d3:6c:f8, 2015-01-01 03:49:03.205, 0.789, 0.112, 0.602, 0.061, -0.061, -0.488, 9.679, -51.553, 138.697, -19.633, -11.720, -23.900, 28.7, -0.27823, -0.43237, 0.0806, -0.85382,
 15:37:45.126,ed:35:33:d3:6c:f8, 2015-01-01 03:49:03.205, 0.788, 0.112, 0.604, 0, -0.305, -0.183, 9.69, -51.559, 138.62, -19.633, -11.720, -23.900, 28.7, -0.27823, -0.43237, 0.0806, -0.85382,
 15:37:45.145,ed:40:fe:65:30:6c, 2015-01-01 03:49:08.155, 0.886, 0.006, 0.482, -0.183, -0.183, -0.305, 0.648, -61.024, -114.23, -26.180, -7.547, 3.380, 25.82, 0.47205, -0.42365, -0.28043, -0.72037,
 15:37:45.145,ed:40:fe:65:30:6c, 2015-01-01 03:49:08.155, 0.888, 0.009, 0.483, -0.061, -0.427, -0.305, 0.654, -61.029, -114.263, -26.180, -7.547, 3.380, 25.82, 0.47205, -0.42365, -0.28043, -0.72037,
 15:37:45.147,e3:ca:2d:fd:e0:8c, 2015-01-01 03:49:02.900, 1.019, 0.028, -0.062, -0.854, -0.977, 0.244, 150.073, -86.369, 2.631, -28.620, -11.933, -3.767, 27.2, 0.17282, 0.70724, -0.15942, 0.66666,
 15:37:45.147,e3:ca:2d:fd:e0:8c, 2015-01-01 03:49:02.900, 1.018, 0.027, -0.056, -0.793, -0.244, 0.183, 150.134, -86.369, 2.571, -28.620, -11.933, -3.767, 27.2, 0.17282, 0.70724, -0.15942, 0.66666,
 15:37:45.168,e3:ca:2d:fd:e0:8c, 2015-01-01 03:49:02.900, 1.017, 0.027, -0.052, -0.122, -0.366, 0.061, 150.2, -86.364, 2.499, -28.620, -11.933, -3.767, 27.2, 0.17297, 0.70828, -0.16049, 0.66525,
 15:37:45.168,e3:ca:2d:fd:e0:8c, 2015-01-01 03:49:02.900, 1.017, 0.028, -0.051, 0.183, -0.305, 0, 150.266, -86.358, 2.428, -28.620, -11.933, -3.767, 27.2, 0.17297, 0.70828, -0.16049, 0.66525,
 15:37:45.168,ed:40:fe:65:30:6c, 2015-01-01 03:49:08.155, 0.887, 0.003, 0.484, 0, -0.427, -0.183, 0.665, -61.04, -114.302, -26.180, -7.547, 3.380, 25.82, 0.46967, -0.42392, -0.27966, -0.72208,
 15:37:45.168,ed:40:fe:65:30:6c, 2015-01-01 03:49:08.155, 0.884, 0.002, 0.485, 0.366, -0.183, 0.244, 0.67, -61.046, -114.318, -26.180, -7.547, 3.380, 25.82, 0.46967, -0.42392, -0.27966, -0.72208,
 15:37:45.169,f6:90:cc:01:6d:25, 2015-01-01 03:49:03.185, 0.984, 0.066, -0.106, 0.061, -0.549, 0, 145.344, -82.546, 33.382, -30.360, -13.240, 2.953, 30.33, 0.03372, 0.74335, 0.01749, 0.66776,
 15:37:45.169,f6:90:cc:01:6d:25, 2015-01-01 03:49:03.185, 0.98, 0.069, -0.103, 0.244, -0.305, 0.122, 145.399, -82.535, 33.349, -30.360, -13.240, 2.953, 30.33, 0.03372, 0.74335, 0.01749, 0.66776,
 15:37:45.173,ed:35:33:d3:6c:f8, 2015-01-01 03:49:03.205, 0.787, 0.11, 0.605, 0.305, -0.122, 0.244, 9.695, -51.564, 138.565, -19.633, -11.720, -23.900, 28.7, -0.27823, -0.43237, 0.0806, -0.85382,
 15:37:45.173,ed:35:33:d3:6c:f8, 2015-01-01 03:49:03.205, 0.778, 0.106, 0.603, 0.854, 0, 0.488, 9.706, -51.57, 138.516, -19.633, -11.720, -23.900, 28.7, -0.27823, -0.43237, 0.0806, -0.85382,
 15:37:45.192,f6:90:cc:01:6d:25, 2015-01-01 03:49:03.540, 0.978, 0.073, -0.102, 0.61, -0.061, 0.244, 145.453, -82.535, 33.327, -30.360, -13.240, 2.953, 30.33, 0.03372, 0.74335, 0.01749, 0.66776,
 15:37:45.192,f6:90:cc:01:6d:25, 2015-01-01 03:49:03.540, 0.978, 0.073, -0.098, 0.549, -0.061, 0.366, 145.508, -82.54, 33.294, -30.360, -13.240, 2.953, 30.33, 0.03372, 0.74335, 0.01749, 0.66776,
 15:37:45.213,ed:40:fe:65:30:6c, 2015-01-01 03:49:08.155, 0.879, 0.005, 0.487, 0.305, 0.122, 0.305, 0.665, -61.051, -114.329, -26.180, -7.547, 3.380, 25.82, 0.46967, -0.42392, -0.27966, -0.72208,
 15:37:45.213,ed:40:fe:65:30:6c, 2015-01-01 03:49:08.155, 0.88, 0.008, 0.486, 0, 0.366, -0.061, 0.665, -61.046, -114.346, -26.180, -7.547, 3.380, 25.82, 0.46967, -0.42392, -0.27966, -0.72208,
 15:37:45.214,e3:ca:2d:fd:e0:8c, 2015-01-01 03:49:02.900, 1.017, 0.032, -0.051, 0.488, -0.488, 0.061, 150.331, -86.353, 2.357, -28.620, -11.933, -3.767, 27.2, 0.17297, 0.70828, -0.16049, 0.66525,
 15:37:45.214,e3:ca:2d:fd:e0:8c, 2015-01-01 03:49:02.900, 1.017, 0.035, -0.052, 0.671, -0.916, 0.061, 150.447, -86.347, 2.23, -28.620, -11.933, -3.767, 27.2, 0.17297, 0.70828, -0.16049, 0.66525,
 15:37:45.217,ed:35:33:d3:6c:f8, 2015-01-01 03:49:03.205, 0.782, 0.106, 0.607, 0.122, 0.122, -0.183, 9.723, -51.57, 138.461, -19.633, -11.720, -23.900, 28.7, -0.28314, -0.43231, 0.08215, -0.85211,
 15:37:45.217,ed:35:33:d3:6c:f8, 2015-01-01 03:49:03.205, 0.78, 0.108, 0.605, 0.122, 0.671, -0.549, 9.739, -51.559, 138.428, -19.633, -11.720, -23.900, 28.7, -0.28314, -0.43231, 0.08215, -0.85211,
 15:37:45.236,ed:40:fe:65:30:6c, 2015-01-01 03:49:08.155, 0.877, 0.004, 0.486, -0.061, 0.305, -0.366, 0.67, -61.04, -114.368, -26.180, -7.547, 3.380, 25.82, 0.46967, -0.42392, -0.27966, -0.72208,
 15:37:45.236,ed:40:fe:65:30:6c, 2015-01-01 03:49:08.155, 0.874, 0, 0.487, 0.183, 0.61, -0.183, 0.681, -61.029, -114.395, -26.180, -7.547, 3.380, 25.82, 0.46967, -0.42392, -0.27966, -0.72208,
 15:37:45.237,f6:90:cc:01:6d:25, 2015-01-01 03:49:03.540, 0.975, 0.071, -0.099, 0.977, 0.061, 0.244, 145.558, -82.546, 33.261, -30.360, -13.240, 2.953, 30.33, 0.03372, 0.74335, 0.01749, 0.66776,
 15:37:45.237,f6:90:cc:01:6d:25, 2015-01-01 03:49:03.540, 0.972, 0.067, -0.102, 1.526, -0.061, 0, 145.591, -82.546, 33.256, -30.360, -13.240, 2.953, 30.33, 0.03372, 0.74335, 0.01749, 0.66776,
 15:37:45.259,e3:ca:2d:fd:e0:8c, 2015-01-01 03:49:03.255, 1.018, 0.035, -0.055, 0.732, -1.282, 0.122, 150.617, -86.331, 2.065, -28.620, -11.933, -3.767, 27.2, 0.17297, 0.70828, -0.16049, 0.66525,
 15:37:45.259,e3:ca:2d:fd:e0:8c, 2015-01-01 03:49:03.255, 1.017, 0.032, -0.058, 0.61, -1.404, 0.244, 150.853, -86.314, 1.835, -28.620, -11.933, -3.767, 27.2, 0.17297, 0.70828, -0.16049, 0.66525,
 15:37:45.260,ed:35:33:d3:6c:f8, 2015-01-01 03:49:03.515, 0.776, 0.106, 0.605, 0.244, 0.366, -0.427, 9.756, -51.553, 138.406, -19.633, -11.720, -23.900, 28.7, -0.28314, -0.43231, 0.08215, -0.85211,
 15:37:45.260,ed:35:33:d3:6c:f8, 2015-01-01 03:49:03.515, 0.772, 0.104, 0.606, 0.488, 0.61, -0.061, 9.772, -51.542, 138.411, -19.633, -11.720, -23.900, 28.7, -0.28314, -0.43231, 0.08215, -0.85211,
 15:37:45.282,f6:90:cc:01:6d:25, 2015-01-01 03:49:03.540, 0.972, 0.069, -0.108, 1.77, -0.061, -0.244, 145.613, -82.546, 33.267, -30.360, -13.240, 2.953, 30.33, 0.03372, 0.74335, 0.01749, 0.66776,
 15:37:45.282,f6:90:cc:01:6d:25, 2015-01-01 03:49:03.540, 0.979, 0.073, -0.108, 1.831, -0.244, -0.366, 145.624, -82.54, 33.267, -30.360, -13.240, 2.953, 30.33, 0.03372, 0.74335, 0.01749, 0.66776,
 15:37:45.282,e3:ca:2d:fd:e0:8c, 2015-01-01 03:49:03.255, 1.018, 0.031, -0.057, 0.671, -1.16, 0.183, 151.106, -86.292, 1.588, -28.620, -11.933, -3.767, 27.2, 0.17297, 0.70828, -0.16049, 0.66525,
 15:37:45.282,e3:ca:2d:fd:e0:8c, 2015-01-01 03:49:03.255, 1.019, 0.032, -0.057, 0.732, -0.977, 0.122, 151.315, -86.276, 1.39, -28.620, -11.933, -3.767, 27.2, 0.17297, 0.70828, -0.16049, 0.66525,
 15:37:45.284,ed:40:fe:65:30:6c, 2015-01-01 03:49:08.155, 0.871, -0.002, 0.488, 0.488, 0.671, 0.183, 0.687, -61.018, -114.406, -26.180, -7.547, 3.380, 25.82, 0.46967, -0.42392, -0.27966, -0.72208,
 15:37:45.284,ed:40:fe:65:30:6c, 2015-01-01 03:49:08.155, 0.872, 0, 0.489, 0.793, 0.61, 0.244, 0.687, -61.007, -114.412, -26.180, -7.547, 3.380, 25.82, 0.46967, -0.42392, -0.27966, -0.72208,
 15:37:45.306,ed:35:33:d3:6c:f8, 2015-01-01 03:49:03.515, 0.772, 0.103, 0.607, 0.854, 0.488, 0.122, 9.783, -51.537, 138.417, -19.633, -11.720, -23.900, 28.7, -0.28314, -0.43231, 0.08215, -0.85211,
 15:37:45.306,ed:35:33:d3:6c:f8, 2015-01-01 03:49:03.515, 0.775, 0.105, 0.612, 1.099, 0.244, 0.183, 9.805, -51.531, 138.406, -19.633, -11.720, -23.900, 28.7, -0.28314, -0.43231, 0.08215, -0.85211,
 15:37:45.326,e3:ca:2d:fd:e0:8c, 2015-01-01 03:49:03.255, 1.021, 0.032, -0.058, 0.671, -0.977, 0.183, 151.49, -86.259, 1.23, -28.620, -11.933, -3.767, 27.2, 0.17297, 0.70828, -0.16049, 0.66525,
 15:37:45.326,e3:ca:2d:fd:e0:8c, 2015-01-01 03:49:03.255, 1.019, 0.032, -0.058, 0.671, -1.221, 0, 151.672, -86.248, 1.066, -28.620, -11.933, -3.767, 27.2, 0.17297, 0.70828, -0.16049, 0.66525,
 15:37:45.327,f6:90:cc:01:6d:25, 2015-01-01 03:49:03.540, 0.983, 0.073, -0.104, 1.221, -0.305, -0.366, 145.635, -82.535, 33.256, -30.360, -13.240, 2.953, 30.33, 0.03372, 0.74335, 0.01749, 0.66776,
 15:37:45.327,f6:90:cc:01:6d:25, 2015-01-01 03:49:03.540, 0.984, 0.073, -0.1, 0.854, -0.305, -0.305, 145.64, -82.529, 33.25, -30.360, -13.240, 2.953, 30.33, 0.03372, 0.74335, 0.01749, 0.66776,
 15:37:45.329,ed:35:33:d3:6c:f8, 2015-01-01 03:49:03.515, 0.785, 0.107, 0.61, 1.221, -0.061, 0.183, 9.827, -51.537, 138.373, -19.633, -11.720, -23.900, 28.7, -0.28314, -0.43231, 0.08215, -0.85211,
 15:37:45.329,ed:35:33:d3:6c:f8, 2015-01-01 03:49:03.515, 0.786, 0.115, 0.609, 0.854, 0.427, 0, 9.844, -51.526, 138.312, -19.633, -11.720, -23.900, 28.7, -0.28314, -0.43231, 0.08215, -0.85211,
 15:37:45.348,ed:40:fe:65:30:6c, 2015-01-01 03:49:08.155, 0.877, 0.004, 0.488, 0.977, 0.061, 0.183, 0.692, -60.996, -114.401, -26.180, -7.547, 3.380, 25.82, 0.46967, -0.42392, -0.27966, -0.72208,
 15:37:45.348,ed:40:fe:65:30:6c, 2015-01-01 03:49:08.155, 0.885, 0.007, 0.489, 0.977, -0.366, 0, 0.703, -61.002, -114.406, -26.180, -7.547, 3.380, 25.82, 0.46967, -0.42392, -0.27966, -0.72208,
 15:37:45.371,e3:ca:2d:fd:e0:8c, 2015-01-01 03:49:03.255, 1.017, 0.031, -0.062, 0.793, -1.587, 0, 151.853, -86.226, 0.884, -28.620, -11.933, -3.767, 27.2, 0.17297, 0.70828, -0.16049, 0.66525,
 15:37:45.371,e3:ca:2d:fd:e0:8c, 2015-01-01 03:49:03.255, 1.016, 0.032, -0.062, 0.671, -1.343, 0, 152.073, -86.199, 0.676, -28.620, -11.933, -3.767, 27.2, 0.17297, 0.70828, -0.16049, 0.66525,
 15:37:45.371,ed:40:fe:65:30:6c, 2015-01-01 03:49:08.155, 0.885, 0.011, 0.489, 0.793, -0.244, -0.061, 0.72, -61.007, -114.417, -26.180, -7.547, 3.380, 25.88, 0.46967, -0.42392, -0.27966, -0.72208,
 15:37:45.371,ed:40:fe:65:30:6c, 2015-01-01 03:49:08.155, 0.879, 0.011, 0.487, 0.549, 0.183, -0.061, 0.736, -61.007, -114.423, -26.180, -7.547, 3.380, 25.88, 0.46967, -0.42392, -0.27966, -0.72208,
 15:37:45.375,ed:35:33:d3:6c:f8, 2015-01-01 03:49:03.515, 0.782, 0.116, 0.606, 0.61, 0.061, -0.244, 9.866, -51.526, 138.252, -19.633, -11.720, -23.900, 28.7, -0.28314, -0.43231, 0.08215, -0.85211,
 15:37:45.375,ed:35:33:d3:6c:f8, 2015-01-01 03:49:03.515, 0.778, 0.112, 0.605, 0.732, -0.122, -0.122, 9.888, -51.531, 138.203, -19.633, -11.720, -23.900, 28.7, -0.28314, -0.43231, 0.08215, -0.85211,
 15:37:45.395,f6:90:cc:01:6d:25, 2015-01-01 03:49:03.540, 0.979, 0.073, -0.103, 0.977, -0.488, -0.244, 145.651, -82.518, 33.239, -30.360, -13.240, 2.953, 30.33, 0.03372, 0.74335, 0.01749, 0.66776,
 15:37:45.395,f6:90:cc:01:6d:25, 2015-01-01 03:49:03.540, 0.974, 0.072, -0.112, 1.038, -0.427, -0.122, 145.684, -82.513, 33.228, -30.360, -13.240, 2.953, 30.33, 0.03372, 0.74335, 0.01749, 0.66776,
 15:37:45.415,ed:40:fe:65:30:6c, 2015-01-01 03:49:08.155, 0.876, 0.006, 0.485, 0.427, 0.427, 0, 0.747, -61.002, -114.434, -26.180, -7.547, 3.380, 25.88, 0.46967, -0.42392, -0.27966, -0.72208,
 15:37:45.415,ed:40:fe:65:30:6c, 2015-01-01 03:49:08.155, 0.879, 0.006, 0.482, 0.183, 0.122, -0.122, 0.753, -60.996, -114.456, -26.180, -7.547, 3.380, 25.88, 0.46967, -0.42392, -0.27966, -0.72208,
 15:37:45.418,f6:90:cc:01:6d:25, 2015-01-01 03:49:03.540, 0.974, 0.073, -0.114, 0.916, -0.366, -0.061, 145.723, -82.502, 33.195, -30.173, -13.127, 3.287, 30.33, 0.03372, 0.74335, 0.01749, 0.66776,
 15:37:45.418,f6:90:cc:01:6d:25, 2015-01-01 03:49:03.540, 0.98, 0.074, -0.106, 0.366, -0.183, 0, 145.756, -82.496, 33.184, -30.173, -13.127, 3.287, 30.33, 0.03372, 0.74335, 0.01749, 0.66776,
 15:37:45.420,ed:35:33:d3:6c:f8, 2015-01-01 03:49:03.515, 0.779, 0.109, 0.604, 0.488, -0.427, 0, 9.904, -51.542, 138.159, -19.633, -11.720, -23.900, 28.7, -0.28314, -0.43231, 0.08215, -0.85211,
 15:37:45.420,ed:35:33:d3:6c:f8, 2015-01-01 03:49:03.515, 0.783, 0.111, 0.604, 0.122, -0.427, -0.244, 9.921, -51.548, 138.126, -19.633, -11.720, -23.900, 28.7, -0.28314, -0.43231, 0.08215, -0.85211,
 15:37:45.438,ed:40:fe:65:30:6c, 2015-01-01 03:49:08.715, 0.883, 0.008, 0.485, -0.061, -0.244, -0.366, 0.764, -60.996, -114.494, -26.180, -7.547, 3.380, 25.88, 0.46967, -0.42392, -0.27966, -0.72208,
 15:37:45.438,ed:40:fe:65:30:6c, 2015-01-01 03:49:08.715, 0.884, 0.009, 0.486, -0.244, -0.122, -0.488, 0.78, -61.002, -114.532, -26.180, -7.547, 3.380, 25.88, 0.46967, -0.42392, -0.27966, -0.72208,
 15:37:45.440,e3:ca:2d:fd:e0:8c, 2015-01-01 03:49:03.255, 1.016, 0.033, -0.059, 0.305, -0.854, 0, 152.243, -86.177, 0.533, -28.620, -11.933, -3.767, 27.2, 0.17297, 0.70828, -0.16049, 0.66525,
 15:37:45.440,e3:ca:2d:fd:e0:8c, 2015-01-01 03:49:03.255, 1.019, 0.034, -0.057, 0.183, -0.549, 0, 152.342, -86.166, 0.461, -28.620, -11.933, -3.767, 27.2, 0.17297, 0.70828, -0.16049, 0.66525,
 15:37:45.463,f6:90:cc:01:6d:25, 2015-01-01 03:49:03.540, 0.982, 0.074, -0.102, -0.061, -0.183, 0, 145.778, -82.496, 33.157, -30.173, -13.127, 3.287, 30.33, 0.03372, 0.74335, 0.01749, 0.66776,
 15:37:45.463,f6:90:cc:01:6d:25, 2015-01-01 03:49:03.540, 0.98, 0.074, -0.102, -0.305, -0.244, 0, 145.783, -82.491, 33.107, -30.173, -13.127, 3.287, 30.33, 0.03372, 0.74335, 0.01749, 0.66776,
 15:37:45.463,e3:ca:2d:fd:e0:8c, 2015-01-01 03:49:03.255, 1.019, 0.034, -0.058, 0.061, -0.61, 0, 152.402, -86.155, 0.423, -27.967, -12.180, -3.727, 27.2, 0.17297, 0.70828, -0.16049, 0.66525,
 15:37:45.463,e3:ca:2d:fd:e0:8c, 2015-01-01 03:49:03.255, 1.017, 0.033, -0.06, 0.183, -0.977, 0, 152.479, -86.144, 0.374, -27.967, -12.180, -3.727, 27.2, 0.17297, 0.70828, -0.16049, 0.66525,
 15:37:45.465,ed:35:33:d3:6c:f8, 2015-01-01 03:49:03.515, 0.785, 0.112, 0.603, 0, 0, -0.488, 9.937, -51.548, 138.076, -19.873, -11.493, -23.100, 28.7, -0.28314, -0.43231, 0.08215, -0.85211,
 15:37:45.465,ed:35:33:d3:6c:f8, 2015-01-01 03:49:03.515, 0.781, 0.112, 0.603, 0, 0.305, -0.549, 9.954, -51.542, 138.043, -19.873, -11.493, -23.100, 28.7, -0.28314, -0.43231, 0.08215, -0.85211,
 15:37:45.483,ed:40:fe:65:30:6c, 2015-01-01 03:49:08.715, 0.88, 0.007, 0.487, -0.183, 0.305, -0.488, 0.791, -60.996, -114.576, -26.180, -7.547, 3.380, 25.88, 0.46967, -0.42392, -0.27966, -0.72208,
 15:37:45.483,ed:40:fe:65:30:6c, 2015-01-01 03:49:08.715, 0.875, 0.006, 0.488, 0, 0.61, -0.366, 0.807, -60.991, -114.62, -26.180, -7.547, 3.380, 25.88, 0.46967, -0.42392, -0.27966, -0.72208,
 15:37:45.485,f6:90:cc:01:6d:25, 2015-01-01 03:49:03.540, 0.975, 0.072, -0.104, 0, -0.122, -0.122, 145.783, -82.491, 33.047, -30.173, -13.127, 3.287, 30.33, 0.03271, 0.74405, 0.01855, 0.66699,
 15:37:45.485,f6:90:cc:01:6d:25, 2015-01-01 03:49:03.540, 0.974, 0.073, -0.111, 0.305, -0.122, -0.183, 145.772, -82.485, 32.997, -30.173, -13.127, 3.287, 30.33, 0.03271, 0.74405, 0.01855, 0.66699,
 15:37:45.505,e3:ca:2d:fd:e0:8c, 2015-01-01 03:49:03.255, 1.017, 0.034, -0.062, 0.061, -1.099, 0, 152.6, -86.127, 0.253, -27.967, -12.180, -3.727, 27.2, 0.17297, 0.70828, -0.16049, 0.66525,
 15:37:45.505,e3:ca:2d:fd:e0:8c, 2015-01-01 03:49:03.255, 1.017, 0.033, -0.06, 0.061, -0.916, 0, 152.721, -86.111, 0.121, -27.967, -12.180, -3.727, 27.2, 0.17297, 0.70828, -0.16049, 0.66525,
 15:37:45.505,ed:40:fe:65:30:6c, 2015-01-01 03:49:08.715, 0.874, 0.006, 0.487, 0.244, 0.549, -0.305, 0.824, -60.98, -114.653, -26.180, -7.547, 3.380, 25.88, 0.46967, -0.42392, -0.27966, -0.72208,
 15:37:45.505,ed:40:fe:65:30:6c, 2015-01-01 03:49:08.715, 0.878, 0.007, 0.487, 0.305, 0.183, -0.305, 0.835, -60.974, -114.681, -26.180, -7.547, 3.380, 25.88, 0.46967, -0.42392, -0.27966, -0.72208,
 15:37:45.509,ed:35:33:d3:6c:f8, 2015-01-01 03:49:03.515, 0.777, 0.112, 0.605, 0.061, 0.427, -0.488, 9.97, -51.537, 138.016, -19.873, -11.493, -23.100, 28.7, -0.28607, -0.43237, 0.08206, -0.8511,
 15:37:45.509,ed:35:33:d3:6c:f8, 2015-01-01 03:49:03.515, 0.774, 0.111, 0.607, 0.122, 0.122, -0.305, 9.987, -51.537, 137.999, -19.873, -11.493, -23.100, 28.7, -0.28607, -0.43237, 0.08206, -0.8511,
 15:37:45.529,e3:ca:2d:fd:e0:8c, 2015-01-01 03:49:03.255, 1.018, 0.033, -0.06, 0, -0.732, 0, 152.814, -86.094, 0.016, -27.967, -12.180, -3.727, 27.2, 0.1716, 0.71024, -0.16025, 0.66357,
 15:37:45.529,e3:ca:2d:fd:e0:8c, 2015-01-01 03:49:03.255, 1.018, 0.033, -0.061, 0, -0.671, 0, 152.886, -86.083, -0.06, -27.967, -12.180, -3.727, 27.2, 0.1716, 0.71024, -0.16025, 0.66357,
 15:37:45.530,f6:90:cc:01:6d:25, 2015-01-01 03:49:03.540, 0.977, 0.072, -0.108, 0.244, -0.122, -0.183, 145.761, -82.48, 32.97, -30.173, -13.127, 3.287, 30.33, 0.03271, 0.74405, 0.01855, 0.66699,
 15:37:45.530,f6:90:cc:01:6d:25, 2015-01-01 03:49:03.540, 0.979, 0.073, -0.104, 0.122, 0, -0.244, 145.739, -82.48, 32.975, -30.173, -13.127, 3.287, 30.33, 0.03271, 0.74405, 0.01855, 0.66699,
 15:37:45.531,ed:35:33:d3:6c:f8, 2015-01-01 03:49:03.805, 0.778, 0.111, 0.608, 0.366, 0.061, -0.244, 10.003, -51.537, 138.016, -19.873, -11.493, -23.100, 28.7, -0.28607, -0.43237, 0.08206, -0.8511,
 15:37:45.531,ed:35:33:d3:6c:f8, 2015-01-01 03:49:03.805, 0.781, 0.111, 0.606, 0.305, 0.061, -0.244, 10.02, -51.537, 138.027, -19.873, -11.493, -23.100, 28.7, -0.28607, -0.43237, 0.08206, -0.8511,
 15:37:45.550,ed:40:fe:65:30:6c, 2015-01-01 03:49:08.715, 0.881, 0.008, 0.488, 0.122, 0, -0.366, 0.851, -60.974, -114.708, -26.180, -7.547, 3.380, 25.88, 0.46967, -0.42392, -0.27966, -0.72208,
 15:37:45.550,ed:40:fe:65:30:6c, 2015-01-01 03:49:08.715, 0.879, 0.009, 0.489, 0, 0.244, -0.488, 0.868, -60.969, -114.736, -26.180, -7.547, 3.380, 25.88, 0.46967, -0.42392, -0.27966, -0.72208,
 15:37:45.575,e3:ca:2d:fd:e0:8c, 2015-01-01 03:49:03.255, 1.018, 0.034, -0.061, 0.183, -0.793, 0, 152.957, -86.072, -0.121, -27.967, -12.180, -3.727, 27.2, 0.1716, 0.71024, -0.16025, 0.66357,
 15:37:45.575,e3:ca:2d:fd:e0:8c, 2015-01-01 03:49:03.255, 1.018, 0.033, -0.063, 0.122, -0.793, 0, 153.04, -86.061, -0.187, -27.967, -12.180, -3.727, 27.2, 0.1716, 0.71024, -0.16025, 0.66357,
 15:37:45.576,ed:35:33:d3:6c:f8, 2015-01-01 03:49:03.805, 0.78, 0.113, 0.606, 0, 0.305, -0.427, 10.031, -51.531, 138.021, -19.873, -11.493, -23.100, 28.7, -0.28607, -0.43237, 0.08206, -0.8511,
 15:37:45.576,ed:35:33:d3:6c:f8, 2015-01-01 03:49:03.805, 0.778, 0.115, 0.609, -0.305, 0.122, -0.61, 10.047, -51.526, 138.01, -19.873, -11.493, -23.100, 28.7, -0.28607, -0.43237, 0.08206, -0.8511,
 15:37:45.597,f6:90:cc:01:6d:25, 2015-01-01 03:49:03.900, 0.979, 0.074, -0.103, 0, 0, -0.244, 145.706, -82.474, 33.019, -30.173, -13.127, 3.287, 30.33, 0.03271, 0.74405, 0.01855, 0.66699,
 15:37:45.597,f6:90:cc:01:6d:25, 2015-01-01 03:49:03.900, 0.978, 0.074, -0.106, 0, 0.122, -0.305, 145.657, -82.474, 33.074, -30.173, -13.127, 3.287, 30.33, 0.03271, 0.74405, 0.01855, 0.66699,
 15:37:45.618,ed:40:fe:65:30:6c, 2015-01-01 03:49:08.715, 0.878, 0.01, 0.488, 0, 0.366, -0.488, 0.89, -60.963, -114.763, -26.180, -7.547, 3.380, 25.88, 0.46967, -0.42392, -0.27966, -0.72208,
 15:37:45.618,ed:40:fe:65:30:6c, 2015-01-01 03:49:08.715, 0.879, 0.008, 0.487, 0, 0.305, -0.305, 0.901, -60.952, -114.796, -26.180, -7.547, 3.380, 25.88, 0.46967, -0.42392, -0.27966, -0.72208,
 15:37:45.618,e3:ca:2d:fd:e0:8c, 2015-01-01 03:49:03.615, 1.018, 0.032, -0.062, 0.122, -0.671, 0, 153.116, -86.045, -0.247, -27.967, -12.180, -3.727, 27.2, 0.1716, 0.71024, -0.16025, 0.66357,
 15:37:45.618,e3:ca:2d:fd:e0:8c, 2015-01-01 03:49:03.615, 1.017, 0.032, -0.064, 0.183, -0.427, 0, 153.177, -86.034, -0.269, -27.967, -12.180, -3.727, 27.2, 0.1716, 0.71024, -0.16025, 0.66357,
 15:37:45.619,f6:90:cc:01:6d:25, 2015-01-01 03:49:03.900, 0.978, 0.072, -0.11, 0.183, 0.183, -0.244, 145.613, -82.474, 33.118, -30.173, -13.127, 3.287, 30.33, 0.03271, 0.74405, 0.01855, 0.66699,
 15:37:45.619,f6:90:cc:01:6d:25, 2015-01-01 03:49:03.900, 0.979, 0.072, -0.108, 0.122, 0.183, -0.183, 145.574, -82.474, 33.157, -30.173, -13.127, 3.287, 30.33, 0.03271, 0.74405, 0.01855, 0.66699,
 15:37:45.620,ed:35:33:d3:6c:f8, 2015-01-01 03:49:03.805, 0.78, 0.115, 0.608, -0.366, 0, -0.61, 10.058, -51.526, 137.999, -19.873, -11.493, -23.100, 28.7, -0.28607, -0.43237, 0.08206, -0.8511,
 15:37:45.620,ed:35:33:d3:6c:f8, 2015-01-01 03:49:03.805, 0.779, 0.115, 0.608, -0.305, 0.244, -0.427, 10.069, -51.52, 137.961, -19.873, -11.493, -23.100, 28.7, -0.28607, -0.43237, 0.08206, -0.8511,
 15:37:45.640,ed:40:fe:65:30:6c, 2015-01-01 03:49:08.715, 0.879, 0.009, 0.488, 0, 0.244, -0.122, 0.906, -60.952, -114.818, -26.520, -7.573, 2.960, 25.88, 0.46967, -0.42392, -0.27966, -0.72208,
 15:37:45.640,ed:40:fe:65:30:6c, 2015-01-01 03:49:08.715, 0.881, 0.012, 0.487, -0.244, 0.366, -0.122, 0.912, -60.941, -114.829, -26.520, -7.573, 2.960, 25.88, 0.46967, -0.42392, -0.27966, -0.72208,
 15:37:45.642,f6:90:cc:01:6d:25, 2015-01-01 03:49:03.900, 0.979, 0.072, -0.108, 0.122, 0.244, -0.122, 145.541, -82.48, 33.184, -30.173, -13.127, 3.287, 30.33, 0.03271, 0.74405, 0.01855, 0.66699,
 15:37:45.642,f6:90:cc:01:6d:25, 2015-01-01 03:49:03.900, 0.979, 0.076, -0.105, 0, 0.244, -0.061, 145.508, -82.48, 33.239, -30.173, -13.127, 3.287, 30.33, 0.03271, 0.74405, 0.01855, 0.66699,
 15:37:45.664,e3:ca:2d:fd:e0:8c, 2015-01-01 03:49:03.615, 1.018, 0.032, -0.062, 0.122, -0.366, 0, 153.221, -86.028, -0.297, -27.967, -12.180, -3.727, 27.2, 0.1716, 0.71024, -0.16025, 0.66357,
 15:37:45.664,e3:ca:2d:fd:e0:8c, 2015-01-01 03:49:03.615, 1.017, 0.033, -0.062, 0.122, -0.366, 0, 153.254, -86.023, -0.346, -27.967, -12.180, -3.727, 27.2, 0.1716, 0.71024, -0.16025, 0.66357,
 15:37:45.666,ed:35:33:d3:6c:f8, 2015-01-01 03:49:03.805, 0.783, 0.114, 0.605, -0.244, 0.427, -0.427, 10.08, -51.509, 137.928, -19.873, -11.493, -23.100, 28.7, -0.28607, -0.43237, 0.08206, -0.8511,
 15:37:45.666,ed:35:33:d3:6c:f8, 2015-01-01 03:49:03.805, 0.781, 0.114, 0.604, -0.366, 0.61, -0.732, 10.091, -51.498, 137.873, -19.873, -11.493, -23.100, 28.7, -0.28607, -0.43237, 0.08206, -0.8511,
 15:37:45.685,ed:40:fe:65:30:6c, 2015-01-01 03:49:08.715, 0.88, 0.011, 0.486, -0.305, 0.366, -0.366, 0.917, -60.936, -114.851, -26.520, -7.573, 2.960, 25.88, 0.46967, -0.42392, -0.27966, -0.72208,
 15:37:45.685,ed:40:fe:65:30:6c, 2015-01-01 03:49:08.715, 0.879, 0.005, 0.485, -0.183, 0.549, -0.488, 0.934, -60.925, -114.873, -26.520, -7.573, 2.960, 25.88, 0.46967, -0.42392, -0.27966, -0.72208,
 15:37:45.686,e3:ca:2d:fd:e0:8c, 2015-01-01 03:49:03.615, 1.017, 0.033, -0.062, 0, -0.244, 0, 153.281, -86.017, -0.401, -27.967, -12.180, -3.727, 27.2, 0.1716, 0.71024, -0.16025, 0.66357,
 15:37:45.686,e3:ca:2d:fd:e0:8c, 2015-01-01 03:49:03.615, 1.017, 0.033, -0.063, 0, -0.183, 0, 153.298, -86.012, -0.439, -27.967, -12.180, -3.727, 27.2, 0.1716, 0.71024, -0.16025, 0.66357,
 15:37:45.688,f6:90:cc:01:6d:25, 2015-01-01 03:49:03.900, 0.978, 0.075, -0.106, -0.366, 0.244, 0, 145.481, -82.485, 33.272, -30.173, -13.127, 3.287, 30.33, 0.03271, 0.74405, 0.01855, 0.66699,
 15:37:45.688,f6:90:cc:01:6d:25, 2015-01-01 03:49:03.900, 0.975, 0.074, -0.11, -0.305, 0.244, -0.122, 145.443, -82.485, 33.322, -30.173, -13.127, 3.287, 30.33, 0.03271, 0.74405, 0.01855, 0.66699,
 15:37:45.689,ed:35:33:d3:6c:f8, 2015-01-01 03:49:03.805, 0.781, 0.111, 0.601, -0.244, 0.671, -0.793, 10.113, -51.487, 137.802, -19.873, -11.493, -23.100, 28.7, -0.28607, -0.43237, 0.08206, -0.8511,
 15:37:45.689,ed:35:33:d3:6c:f8, 2015-01-01 03:49:03.805, 0.781, 0.108, 0.602, -0.061, 1.16, -0.977, 10.135, -51.46, 137.741, -19.873, -11.493, -23.100, 28.7, -0.28607, -0.43237, 0.08206, -0.8511,
 15:37:45.708,ed:40:fe:65:30:6c, 2015-01-01 03:49:08.715, 0.88, 0.005, 0.483, -0.122, 0.732, -0.549, 0.95, -60.914, -114.895, -26.520, -7.573, 2.960, 25.88, 0.46732, -0.42349, -0.27875, -0.72421,
 15:37:45.708,ed:40:fe:65:30:6c, 2015-01-01 03:49:08.715, 0.882, 0.009, 0.485, 0, 0.61, -0.732, 0.972, -60.903, -114.917, -26.520, -7.573, 2.960, 25.88, 0.46732, -0.42349, -0.27875, -0.72421,
 15:37:45.731,e3:ca:2d:fd:e0:8c, 2015-01-01 03:49:03.615, 1.019, 0.032, -0.063, -0.061, -0.122, 0, 153.303, -86.012, -0.467, -27.967, -12.180, -3.727, 27.2, 0.1716, 0.71024, -0.16025, 0.66357,
 15:37:45.731,e3:ca:2d:fd:e0:8c, 2015-01-01 03:49:03.615, 1.019, 0.032, -0.064, 0, 0.122, 0, 153.298, -86.012, -0.5, -27.967, -12.180, -3.727, 27.2, 0.1716, 0.71024, -0.16025, 0.66357,
 15:37:45.733,f6:90:cc:01:6d:25, 2015-01-01 03:49:03.900, 0.977, 0.075, -0.106, -0.61, 0.244, -0.244, 145.382, -82.485, 33.415, -30.173, -13.127, 3.287, 30.33, 0.03271, 0.74405, 0.01855, 0.66699,
 15:37:45.733,f6:90:cc:01:6d:25, 2015-01-01 03:49:03.900, 0.982, 0.075, -0.109, -0.732, 0.549, -0.122, 145.311, -82.491, 33.525, -30.173, -13.127, 3.287, 30.33, 0.03271, 0.74405, 0.01855, 0.66699,
 15:37:45.734,ed:35:33:d3:6c:f8, 2015-01-01 03:49:03.805, 0.784, 0.112, 0.603, 0, 1.343, -1.404, 10.168, -51.432, 137.664, -19.873, -11.493, -23.100, 28.7, -0.28607, -0.43237, 0.08206, -0.8511,
 15:37:45.734,ed:35:33:d3:6c:f8, 2015-01-01 03:49:03.805, 0.778, 0.116, 0.609, -0.122, 0.732, -1.099, 10.195, -51.422, 137.554, -19.873, -11.493, -23.100, 28.7, -0.28607, -0.43237, 0.08206, -0.8511,
 15:37:45.753,ed:40:fe:65:30:6c, 2015-01-01 03:49:08.715, 0.878, 0.011, 0.49, 0.122, 0.427, -0.854, 1.005, -60.897, -114.955, -26.520, -7.573, 2.960, 25.88, 0.46732, -0.42349, -0.27875, -0.72421,
 15:37:45.753,ed:40:fe:65:30:6c, 2015-01-01 03:49:08.715, 0.874, 0.009, 0.493, 0, 0.488, -0.854, 1.033, -60.886, -114.994, -26.520, -7.573, 2.960, 25.88, 0.46732, -0.42349, -0.27875, -0.72421,
 15:37:45.755,f6:90:cc:01:6d:25, 2015-01-01 03:49:03.900, 0.981, 0.074, -0.106, -0.732, 0.61, 0, 145.239, -82.502, 33.58, -30.233, -13.180, 3.567, 30.33, 0.03271, 0.74405, 0.01855, 0.66699,
 15:37:45.755,f6:90:cc:01:6d:25, 2015-01-01 03:49:03.900, 0.978, 0.071, -0.106, -0.671, 0.732, -0.122, 145.157, -82.507, 33.646, -30.233, -13.180, 3.567, 30.33, 0.03271, 0.74405, 0.01855, 0.66699,
 15:37:45.780,ed:35:33:d3:6c:f8, 2015-01-01 03:49:03.805, 0.773, 0.116, 0.614, -0.366, 0.122, -1.038, 10.217, -51.416, 137.433, -19.253, -10.940, -23.033, 28.7, -0.28607, -0.43237, 0.08206, -0.8511,
 15:37:45.780,ed:35:33:d3:6c:f8, 2015-01-01 03:49:03.805, 0.775, 0.116, 0.615, -0.305, 0.122, -0.854, 10.234, -51.416, 137.346, -19.253, -10.940, -23.033, 28.7, -0.28607, -0.43237, 0.08206, -0.8511,
 15:37:45.799,ed:40:fe:65:30:6c, 2015-01-01 03:49:09.050, 0.876, 0.008, 0.493, 0, 0.427, -0.671, 1.06, -60.881, -115.032, -26.520, -7.573, 2.960, 25.88, 0.46732, -0.42349, -0.27875, -0.72421,
 15:37:45.799,ed:40:fe:65:30:6c, 2015-01-01 03:49:09.050, 0.876, 0.009, 0.492, 0, 0.183, -0.427, 1.077, -60.875, -115.071, -26.520, -7.573, 2.960, 25.88, 0.46732, -0.42349, -0.27875, -0.72421,
 15:37:45.799,e3:ca:2d:fd:e0:8c, 2015-01-01 03:49:03.615, 1.017, 0.033, -0.063, 0, 0.122, 0, 153.27, -86.012, -0.5, -27.967, -12.180, -3.727, 27.2, 0.1716, 0.71024, -0.16025, 0.66357,
 15:37:45.799,e3:ca:2d:fd:e0:8c, 2015-01-01 03:49:03.615, 1.018, 0.033, -0.063, -0.122, 0.122, 0, 153.243, -86.017, -0.483, -27.967, -12.180, -3.727, 27.2, 0.1716, 0.71024, -0.16025, 0.66357,
 15:37:45.801,f6:90:cc:01:6d:25, 2015-01-01 03:49:03.900, 0.976, 0.07, -0.107, -0.793, 0.427, -0.183, 145.08, -82.513, 33.695, -30.233, -13.180, 3.567, 30.33, 0.03271, 0.74405, 0.01855, 0.66699,
 15:37:45.801,f6:90:cc:01:6d:25, 2015-01-01 03:49:03.900, 0.975, 0.073, -0.102, -0.671, 0.061, -0.183, 145.036, -82.513, 33.728, -30.233, -13.180, 3.567, 30.33, 0.03271, 0.74405, 0.01855, 0.66699,
 15:37:45.822,e3:ca:2d:fd:e0:8c, 2015-01-01 03:49:03.615, 1.018, 0.032, -0.063, -0.366, 0.244, 0, 153.204, -86.017, -0.45, -28.287, -11.680, -3.720, 27.2, 0.1716, 0.71024, -0.16025, 0.66357,
 15:37:45.822,e3:ca:2d:fd:e0:8c, 2015-01-01 03:49:03.615, 1.017, 0.031, -0.062, -0.244, 0.183, 0, 153.166, -86.023, -0.417, -28.287, -11.680, -3.720, 27.2, 0.1716, 0.71024, -0.16025, 0.66357,
 15:37:45.823,ed:35:33:d3:6c:f8, 2015-01-01 03:49:03.805, 0.775, 0.116, 0.612, -0.366, 0.122, -0.671, 10.245, -51.411, 137.274, -19.253, -10.940, -23.033, 28.7, -0.29068, -0.43164, 0.08237, -0.84988,
 15:37:45.823,ed:35:33:d3:6c:f8, 2015-01-01 03:49:03.805, 0.776, 0.115, 0.608, 0, 0.122, -0.916, 10.272, -51.405, 137.214, -19.253, -10.940, -23.033, 28.7, -0.29068, -0.43164, 0.08237, -0.84988,
 15:37:45.843,ed:40:fe:65:30:6c, 2015-01-01 03:49:09.050, 0.874, 0.01, 0.491, 0.061, 0, -0.305, 1.088, -60.87, -115.087, -26.520, -7.573, 2.960, 25.88, 0.46732, -0.42349, -0.27875, -0.72421,
 15:37:45.843,ed:40:fe:65:30:6c, 2015-01-01 03:49:09.050, 0.872, 0.011, 0.489, 0.122, 0.183, -0.305, 1.099, -60.87, -115.098, -26.520, -7.573, 2.960, 25.88, 0.46732, -0.42349, -0.27875, -0.72421,
 15:37:45.867,f6:90:cc:01:6d:25, 2015-01-01 03:49:03.900, 0.974, 0.073, -0.101, -0.427, -0.122, -0.244, 145.009, -82.507, 33.723, -30.233, -13.180, 3.567, 30.33, 0.03351, 0.74362, 0.01849, 0.66742,
 15:37:45.867,f6:90:cc:01:6d:25, 2015-01-01 03:49:03.900, 0.975, 0.073, -0.102, -0.244, -0.244, -0.122, 145.003, -82.507, 33.695, -30.233, -13.180, 3.567, 30.33, 0.03351, 0.74362, 0.01849, 0.66742,
 15:37:45.867,e3:ca:2d:fd:e0:8c, 2015-01-01 03:49:03.615, 1.016, 0.03, -0.06, -0.061, 0, 0, 153.144, -86.023, -0.412, -28.287, -11.680, -3.720, 27.2, 0.1716, 0.71024, -0.16025, 0.66357,
 15:37:45.867,e3:ca:2d:fd:e0:8c, 2015-01-01 03:49:03.615, 1.018, 0.032, -0.059, 0, -0.061, 0, 153.144, -86.023, -0.439, -28.287, -11.680, -3.720, 27.2, 0.1716, 0.71024, -0.16025, 0.66357,
 15:37:45.869,ed:35:33:d3:6c:f8, 2015-01-01 03:49:04.120, 0.772, 0.115, 0.605, 0.366, 0.305, -0.793, 10.305, -51.4, 137.186, -19.253, -10.940, -23.033, 28.7, -0.29068, -0.43164, 0.08237, -0.84988,
 15:37:45.869,ed:35:33:d3:6c:f8, 2015-01-01 03:49:04.120, 0.773, 0.116, 0.606, 0.427, 0.427, -0.671, 10.333, -51.389, 137.17, -19.253, -10.940, -23.033, 28.7, -0.29068, -0.43164, 0.08237, -0.84988,
 15:37:45.887,ed:40:fe:65:30:6c, 2015-01-01 03:49:09.050, 0.874, 0.011, 0.489, 0.122, 0.244, -0.366, 1.115, -60.864, -115.104, -26.520, -7.573, 2.960, 25.88, 0.46732, -0.42349, -0.27875, -0.72421,
 15:37:45.887,ed:40:fe:65:30:6c, 2015-01-01 03:49:09.050, 0.876, 0.01, 0.49, 0, 0.122, -0.305, 1.126, -60.859, -115.104, -26.520, -7.573, 2.960, 25.88, 0.46732, -0.42349, -0.27875, -0.72421,
 15:37:45.888,e3:ca:2d:fd:e0:8c, 2015-01-01 03:49:03.615, 1.017, 0.034, -0.06, 0.061, -0.122, 0, 153.149, -86.023, -0.472, -28.287, -11.680, -3.720, 27.2, 0.17236, 0.71054, -0.16119, 0.66281,
 15:37:45.888,e3:ca:2d:fd:e0:8c, 2015-01-01 03:49:03.615, 1.019, 0.035, -0.061, 0.061, -0.122, 0, 153.155, -86.023, -0.516, -28.287, -11.680, -3.720, 27.2, 0.17236, 0.71054, -0.16119, 0.66281,
 15:37:45.890,ed:35:33:d3:6c:f8, 2015-01-01 03:49:04.120, 0.776, 0.117, 0.608, 0.244, 0.732, -0.732, 10.355, -51.372, 137.126, -19.253, -10.940, -23.033, 28.7, -0.29068, -0.43164, 0.08237, -0.84988,
 15:37:45.890,ed:35:33:d3:6c:f8, 2015-01-01 03:49:04.120, 0.778, 0.117, 0.612, -0.183, 0.793, -0.61, 10.366, -51.356, 137.065, -19.253, -10.940, -23.033, 28.7, -0.29068, -0.43164, 0.08237, -0.84988,
 15:37:45.890,f6:90:cc:01:6d:25, 2015-01-01 03:49:04.235, 0.978, 0.073, -0.101, -0.183, 0, 0, 144.998, -82.502, 33.668, -30.233, -13.180, 3.567, 30.33, 0.03351, 0.74362, 0.01849, 0.66742,
 15:37:45.890,f6:90:cc:01:6d:25, 2015-01-01 03:49:04.235, 0.979, 0.073, -0.103, -0.061, 0.183, -0.061, 144.976, -82.507, 33.657, -30.233, -13.180, 3.567, 30.33, 0.03351, 0.74362, 0.01849, 0.66742,
 15:37:45.911,ed:40:fe:65:30:6c, 2015-01-01 03:49:09.050, 0.879, 0.011, 0.493, -0.122, 0.244, -0.244, 1.137, -60.853, -115.109, -26.520, -7.573, 2.960, 25.88, 0.46732, -0.42349, -0.27875, -0.72421,
 15:37:45.911,ed:40:fe:65:30:6c, 2015-01-01 03:49:09.050, 0.88, 0.01, 0.493, -0.061, 0.122, -0.244, 1.143, -60.848, -115.126, -26.520, -7.573, 2.960, 25.88, 0.46732, -0.42349, -0.27875, -0.72421,
 15:37:45.935,f6:90:cc:01:6d:25, 2015-01-01 03:49:04.235, 0.982, 0.075, -0.104, -0.061, 0.305, -0.122, 144.937, -82.513, 33.668, -30.233, -13.180, 3.567, 30.33, 0.03351, 0.74362, 0.01849, 0.66742,
 15:37:45.935,f6:90:cc:01:6d:25, 2015-01-01 03:49:04.235, 0.98, 0.076, -0.103, -0.122, 0.244, -0.183, 144.888, -82.513, 33.701, -30.233, -13.180, 3.567, 30.33, 0.03351, 0.74362, 0.01849, 0.66742,
 15:37:45.935,e3:ca:2d:fd:e0:8c, 2015-01-01 03:49:03.615, 1.018, 0.035, -0.062, 0, -0.183, 0, 153.16, -86.017, -0.566, -28.287, -11.680, -3.720, 27.2, 0.17236, 0.71054, -0.16119, 0.66281,
 15:37:45.935,e3:ca:2d:fd:e0:8c, 2015-01-01 03:49:03.615, 1.018, 0.034, -0.064, 0, -0.366, 0, 153.177, -86.017, -0.621, -28.287, -11.680, -3.720, 27.2, 0.17236, 0.71054, -0.16119, 0.66281,
 15:37:45.936,ed:35:33:d3:6c:f8, 2015-01-01 03:49:04.120, 0.778, 0.118, 0.613, -0.305, 0.305, -0.488, 10.377, -51.345, 137.021, -19.253, -10.940, -23.033, 28.7, -0.29068, -0.43164, 0.08237, -0.84988,
 15:37:45.936,ed:35:33:d3:6c:f8, 2015-01-01 03:49:04.120, 0.78, 0.116, 0.61, -1.221, 0.305, 0, 10.355, -51.339, 137, -19.253, -10.940, -23.033, 28.7, -0.29068, -0.43164, 0.08237, -0.84988,
 15:37:45.957,f6:90:cc:01:6d:25, 2015-01-01 03:49:04.235, 0.977, 0.075, -0.104, -0.061, 0.244, -0.183, 144.838, -82.518, 33.745, -30.233, -13.180, 3.567, 30.33, 0.03351, 0.74362, 0.01849, 0.66742,
 15:37:45.957,f6:90:cc:01:6d:25, 2015-01-01 03:49:04.235, 0.976, 0.076, -0.107, 0.366, 0, -0.305, 144.8, -82.513, 33.777, -30.233, -13.180, 3.567, 30.33, 0.03351, 0.74362, 0.01849, 0.66742,
 15:37:45.957,ed:40:fe:65:30:6c, 2015-01-01 03:49:09.050, 0.881, 0.01, 0.492, 0, 0.122, -0.305, 1.154, -60.848, -115.142, -26.520, -7.573, 2.960, 25.88, 0.46732, -0.42349, -0.27875, -0.72421,
 15:37:45.957,ed:40:fe:65:30:6c, 2015-01-01 03:49:09.050, 0.877, 0.011, 0.491, 0.122, 0.183, -0.244, 1.165, -60.842, -115.164, -26.520, -7.573, 2.960, 25.88, 0.46732, -0.42349, -0.27875, -0.72421,
 15:37:45.979,e3:ca:2d:fd:e0:8c, 2015-01-01 03:49:03.970, 1.018, 0.034, -0.064, 0, -0.183, 0, 153.193, -86.012, -0.654, -28.287, -11.680, -3.720, 27.2, 0.17236, 0.71054, -0.16119, 0.66281,
 15:37:45.979,e3:ca:2d:fd:e0:8c, 2015-01-01 03:49:03.970, 1.017, 0.034, -0.064, 0, -0.122, 0, 153.199, -86.006, -0.67, -28.287, -11.680, -3.720, 27.2, 0.17236, 0.71054, -0.16119, 0.66281,
 15:37:45.980,ed:35:33:d3:6c:f8, 2015-01-01 03:49:04.120, 0.776, 0.117, 0.61, 0, 0.244, -0.427, 10.371, -51.334, 136.978, -19.253, -10.940, -23.033, 28.7, -0.29068, -0.43164, 0.08237, -0.84988,
 15:37:45.980,ed:35:33:d3:6c:f8, 2015-01-01 03:49:04.120, 0.778, 0.121, 0.607, -1.099, 0.305, -0.061, 10.355, -51.328, 136.978, -19.253, -10.940, -23.033, 28.7, -0.29068, -0.43164, 0.08237, -0.84988,
 15:37:46.003,f6:90:cc:01:6d:25, 2015-01-01 03:49:04.235, 0.977, 0.076, -0.106, 0.305, -0.061, -0.366, 144.761, -82.507, 33.827, -30.233, -13.180, 3.567, 30.33, 0.03351, 0.74362, 0.01849, 0.66742,
 15:37:46.003,f6:90:cc:01:6d:25, 2015-01-01 03:49:04.235, 0.978, 0.075, -0.105, 0.305, 0.061, -0.183, 144.739, -82.507, 33.882, -30.233, -13.180, 3.567, 30.33, 0.03351, 0.74362, 0.01849, 0.66742,
 15:37:46.025,ed:40:fe:65:30:6c, 2015-01-01 03:49:09.050, 0.877, 0.012, 0.489, 0.244, 0.183, -0.244, 1.181, -60.837, -115.175, -26.260, -7.527, 3.187, 25.88, 0.46732, -0.42349, -0.27875, -0.72421,
 15:37:46.025,ed:40:fe:65:30:6c, 2015-01-01 03:49:09.050, 0.876, 0.015, 0.488, 0.305, 0, 0, 1.187, -60.837, -115.192, -26.260, -7.527, 3.187, 25.88, 0.46732, -0.42349, -0.27875, -0.72421,
 15:37:46.025,e3:ca:2d:fd:e0:8c, 2015-01-01 03:49:03.970, 1.019, 0.033, -0.063, 0, -0.061, 0, 153.193, -86.006, -0.676, -28.287, -11.680, -3.720, 27.2, 0.17236, 0.71054, -0.16119, 0.66281,
 15:37:46.026,e3:ca:2d:fd:e0:8c, 2015-01-01 03:49:03.970, 1.017, 0.032, -0.063, 0.061, -0.061, 0, 153.188, -86.006, -0.67, -28.287, -11.680, -3.720, 27.2, 0.17236, 0.71054, -0.16119, 0.66281,
 15:37:46.027,ed:35:33:d3:6c:f8, 2015-01-01 03:49:04.120, 0.776, 0.121, 0.606, 0, 0.671, -0.183, 10.366, -51.317, 136.961, -19.253, -10.940, -23.033, 28.7, -0.29068, -0.43164, 0.08237, -0.84988,
 15:37:46.027,ed:35:33:d3:6c:f8, 2015-01-01 03:49:04.120, 0.773, 0.12, 0.608, -0.488, 0.488, 0, 10.36, -51.306, 136.939, -19.253, -10.940, -23.033, 28.7, -0.29068, -0.43164, 0.08237, -0.84988,
 15:37:46.044,ed:40:fe:65:30:6c, 2015-01-01 03:49:09.050, 0.875, 0.017, 0.488, 0.061, 0, 0, 1.192, -60.837, -115.208, -26.260, -7.527, 3.187, 25.88, 0.46643, -0.42264, -0.27884, -0.72522,
 15:37:46.044,ed:40:fe:65:30:6c, 2015-01-01 03:49:09.050, 0.877, 0.017, 0.491, -0.244, 0.183, -0.305, 1.203, -60.831, -115.236, -26.260, -7.527, 3.187, 25.88, 0.46643, -0.42264, -0.27884, -0.72522,
 15:37:46.046,e3:ca:2d:fd:e0:8c, 2015-01-01 03:49:03.970, 1.018, 0.033, -0.063, 0.183, -0.183, 0, 153.193, -86.001, -0.67, -28.287, -11.680, -3.720, 27.2, 0.17236, 0.71054, -0.16119, 0.66281,
 15:37:46.046,e3:ca:2d:fd:e0:8c, 2015-01-01 03:49:03.970, 1.018, 0.033, -0.063, 0.122, -0.305, 0, 153.215, -85.995, -0.703, -28.287, -11.680, -3.720, 27.2, 0.17236, 0.71054, -0.16119, 0.66281,
 15:37:46.071,ed:35:33:d3:6c:f8, 2015-01-01 03:49:04.120, 0.775, 0.118, 0.609, -0.427, 0.488, -0.488, 10.366, -51.301, 136.89, -19.513, -11.567, -23.120, 28.7, -0.29068, -0.43164, 0.08237, -0.84988,
 15:37:46.071,ed:35:33:d3:6c:f8, 2015-01-01 03:49:04.120, 0.778, 0.121, 0.608, -0.61, 0.854, -0.854, 10.382, -51.279, 136.84, -19.513, -11.567, -23.120, 28.7, -0.29068, -0.43164, 0.08237, -0.84988,
 15:37:46.090,ed:40:fe:65:30:6c, 2015-01-01 03:49:09.050, 0.878, 0.014, 0.489, -0.488, 0.244, -0.488, 1.214, -60.826, -115.263, -26.260, -7.527, 3.187, 25.88, 0.46643, -0.42264, -0.27884, -0.72522,
 15:37:46.090,ed:40:fe:65:30:6c, 2015-01-01 03:49:09.050, 0.876, 0.011, 0.49, -0.427, 0.244, -0.366, 1.219, -60.82, -115.291, -26.260, -7.527, 3.187, 25.88, 0.46643, -0.42264, -0.27884, -0.72522,
 15:37:46.091,e3:ca:2d:fd:e0:8c, 2015-01-01 03:49:03.970, 1.017, 0.033, -0.063, 0.061, -0.366, 0, 153.248, -85.99, -0.764, -28.287, -11.680, -3.720, 27.2, 0.17236, 0.71054, -0.16119, 0.66281,
 15:37:46.091,e3:ca:2d:fd:e0:8c, 2015-01-01 03:49:03.970, 1.016, 0.032, -0.063, 0, -0.244, 0, 153.276, -85.984, -0.807, -28.287, -11.680, -3.720, 27.2, 0.17236, 0.71054, -0.16119, 0.66281,
 15:37:46.093,f6:90:cc:01:6d:25, 2015-01-01 03:49:04.235, 0.978, 0.078, -0.101, 0.122, 0, 0, 144.734, -82.507, 33.915, -30.233, -13.180, 3.567, 30.33, 0.03351, 0.74362, 0.01849, 0.66742,
 15:37:46.093,f6:90:cc:01:6d:25, 2015-01-01 03:49:04.235, 0.977, 0.078, -0.104, -0.183, -0.122, 0.122, 144.745, -82.507, 33.915, -30.233, -13.180, 3.567, 30.33, 0.03351, 0.74362, 0.01849, 0.66742,
 15:37:46.094,ed:35:33:d3:6c:f8, 2015-01-01 03:49:04.120, 0.776, 0.118, 0.609, -0.732, 0.488, -0.671, 10.388, -51.268, 136.791, -19.513, -11.567, -23.120, 28.7, -0.29419, -0.4306, 0.08273, -0.84915,
 15:37:46.094,ed:35:33:d3:6c:f8, 2015-01-01 03:49:04.120, 0.774, 0.116, 0.609, -0.732, 0.366, -0.427, 10.388, -51.262, 136.752, -19.513, -11.567, -23.120, 28.7, -0.29419, -0.4306, 0.08273, -0.84915,
 15:37:46.112,ed:40:fe:65:30:6c, 2015-01-01 03:49:09.385, 0.875, 0.01, 0.49, -0.305, 0.305, -0.244, 1.225, -60.815, -115.307, -26.260, -7.527, 3.187, 25.88, 0.46643, -0.42264, -0.27884, -0.72522,
 15:37:46.112,ed:40:fe:65:30:6c, 2015-01-01 03:49:09.385, 0.877, 0.01, 0.49, -0.183, 0.244, -0.244, 1.236, -60.809, -115.329, -26.260, -7.527, 3.187, 25.88, 0.46643, -0.42264, -0.27884, -0.72522,
 15:37:46.115,f6:90:cc:01:6d:25, 2015-01-01 03:49:04.235, 0.978, 0.075, -0.104, -0.671, -0.061, 0.122, 144.745, -82.507, 33.893, -30.333, -13.293, 2.967, 30.33, 0.03351, 0.74362, 0.01849, 0.66742,
 15:37:46.115,f6:90:cc:01:6d:25, 2015-01-01 03:49:04.235, 0.977, 0.074, -0.105, -0.732, -0.183, 0.061, 144.745, -82.502, 33.854, -30.333, -13.293, 2.967, 30.33, 0.03351, 0.74362, 0.01849, 0.66742,
 15:37:46.139,ed:35:33:d3:6c:f8, 2015-01-01 03:49:04.120, 0.776, 0.116, 0.611, -0.244, 0.244, -0.305, 10.399, -51.257, 136.741, -19.513, -11.567, -23.120, 28.7, -0.29419, -0.4306, 0.08273, -0.84915,
 15:37:46.139,ed:35:33:d3:6c:f8, 2015-01-01 03:49:04.120, 0.78, 0.117, 0.61, -0.854, 0.183, -0.122, 10.388, -51.257, 136.752, -19.513, -11.567, -23.120, 28.7, -0.29419, -0.4306, 0.08273, -0.84915,
 15:37:46.158,ed:40:fe:65:30:6c, 2015-01-01 03:49:09.385, 0.881, 0.011, 0.49, -0.061, 0, -0.244, 1.241, -60.809, -115.345, -26.260, -7.527, 3.187, 25.88, 0.46643, -0.42264, -0.27884, -0.72522,
 15:37:46.158,ed:40:fe:65:30:6c, 2015-01-01 03:49:09.385, 0.881, 0.011, 0.492, 0, -0.061, -0.183, 1.252, -60.809, -115.362, -26.260, -7.527, 3.187, 25.88, 0.46643, -0.42264, -0.27884, -0.72522,
 15:37:46.159,e3:ca:2d:fd:e0:8c, 2015-01-01 03:49:03.970, 1.017, 0.033, -0.062, 0, 0, 0, 153.276, -85.984, -0.829, -28.287, -11.680, -3.720, 27.2, 0.17236, 0.71054, -0.16119, 0.66281,
 15:37:46.159,e3:ca:2d:fd:e0:8c, 2015-01-01 03:49:03.970, 1.017, 0.032, -0.06, 0, 0.061, 0, 153.259, -85.984, -0.84, -28.287, -11.680, -3.720, 27.2, 0.17236, 0.71054, -0.16119, 0.66281,
 15:37:46.160,f6:90:cc:01:6d:25, 2015-01-01 03:49:04.235, 0.977, 0.074, -0.108, -0.244, -0.183, 0, 144.75, -82.502, 33.821, -30.333, -13.293, 2.967, 30.33, 0.03351, 0.74362, 0.01849, 0.66742,
 15:37:46.160,f6:90:cc:01:6d:25, 2015-01-01 03:49:04.235, 0.979, 0.076, -0.107, 0.061, -0.061, 0, 144.75, -82.496, 33.799, -30.333, -13.293, 2.967, 30.33, 0.03351, 0.74362, 0.01849, 0.66742,
 15:37:46.181,e3:ca:2d:fd:e0:8c, 2015-01-01 03:49:03.970, 1.019, 0.031, -0.061, 0, 0, 0, 153.243, -85.984, -0.862, -28.000, -11.493, -4.693, 27.2, 0.17236, 0.71054, -0.16119, 0.66281,
 15:37:46.181,e3:ca:2d:fd:e0:8c, 2015-01-01 03:49:03.970, 1.019, 0.032, -0.063, 0, -0.061, 0, 153.232, -85.984, -0.868, -28.000, -11.493, -4.693, 27.2, 0.17236, 0.71054, -0.16119, 0.66281,
 15:37:46.182,f6:90:cc:01:6d:25, 2015-01-01 03:49:04.235, 0.982, 0.073, -0.1, -0.061, 0.061, 0, 144.739, -82.496, 33.794, -30.333, -13.293, 2.967, 30.33, 0.03522, 0.74359, 0.01718, 0.66742,
 15:37:46.182,f6:90:cc:01:6d:25, 2015-01-01 03:49:04.235, 0.981, 0.072, -0.104, -0.122, 0.183, 0, 144.717, -82.502, 33.81, -30.333, -13.293, 2.967, 30.33, 0.03522, 0.74359, 0.01718, 0.66742,
 15:37:46.184,ed:35:33:d3:6c:f8, 2015-01-01 03:49:04.410, 0.777, 0.116, 0.611, -0.122, 0.122, -0.122, 10.399, -51.251, 136.763, -19.513, -11.567, -23.120, 28.7, -0.29419, -0.4306, 0.08273, -0.84915,
 15:37:46.184,ed:35:33:d3:6c:f8, 2015-01-01 03:49:04.410, 0.774, 0.121, 0.607, -0.427, 0.488, -0.122, 10.399, -51.246, 136.752, -19.513, -11.567, -23.120, 28.7, -0.29419, -0.4306, 0.08273, -0.84915,
 15:37:46.204,ed:40:fe:65:30:6c, 2015-01-01 03:49:09.385, 0.878, 0.009, 0.492, 0, 0.061, -0.122, 1.258, -60.809, -115.378, -26.260, -7.527, 3.187, 25.88, 0.46643, -0.42264, -0.27884, -0.72522,
 15:37:46.204,ed:40:fe:65:30:6c, 2015-01-01 03:49:09.385, 0.875, 0.012, 0.492, 0, 0.366, 0, 1.258, -60.804, -115.389, -26.260, -7.527, 3.187, 25.88, 0.46643, -0.42264, -0.27884, -0.72522,
 15:37:46.229,ed:35:33:d3:6c:f8, 2015-01-01 03:49:04.410, 0.772, 0.117, 0.612, -0.488, 0.305, -0.122, 10.399, -51.24, 136.708, -19.513, -11.567, -23.120, 28.7, -0.29419, -0.4306, 0.08273, -0.84915,
 15:37:46.229,ed:35:33:d3:6c:f8, 2015-01-01 03:49:04.410, 0.776, 0.116, 0.61, -0.183, -0.183, -0.061, 10.399, -51.24, 136.67, -19.513, -11.567, -23.120, 28.7, -0.29419, -0.4306, 0.08273, -0.84915,
 15:37:46.229,f6:90:cc:01:6d:25, 2015-01-01 03:49:04.235, 0.978, 0.072, -0.101, -0.183, 0.061, 0, 144.706, -82.502, 33.827, -30.333, -13.293, 2.967, 30.33, 0.03522, 0.74359, 0.01718, 0.66742,
 15:37:46.229,f6:90:cc:01:6d:25, 2015-01-01 03:49:04.235, 0.974, 0.076, -0.11, 0.061, 0.061, 0, 144.701, -82.502, 33.849, -30.333, -13.293, 2.967, 30.33, 0.03522, 0.74359, 0.01718, 0.66742,
 15:37:46.247,ed:40:fe:65:30:6c, 2015-01-01 03:49:09.385, 0.873, 0.013, 0.488, 0, 0.488, 0, 1.258, -60.793, -115.395, -26.260, -7.527, 3.187, 25.88, 0.46643, -0.42264, -0.27884, -0.72522,
 15:37:46.247,ed:40:fe:65:30:6c, 2015-01-01 03:49:09.385, 0.877, 0.012, 0.488, -0.122, 0.061, -0.061, 1.258, -60.793, -115.406, -26.260, -7.527, 3.187, 25.88, 0.46643, -0.42264, -0.27884, -0.72522,
 15:37:46.249,e3:ca:2d:fd:e0:8c, 2015-01-01 03:49:03.970, 1.017, 0.033, -0.065, 0, -0.183, 0, 153.237, -85.984, -0.873, -28.000, -11.493, -4.693, 27.2, 0.17236, 0.71054, -0.16119, 0.66281,
 15:37:46.249,e3:ca:2d:fd:e0:8c, 2015-01-01 03:49:03.970, 1.017, 0.033, -0.064, 0, 0, 0, 153.243, -85.984, -0.873, -28.000, -11.493, -4.693, 27.2, 0.17236, 0.71054, -0.16119, 0.66281,
 15:37:46.250,f6:90:cc:01:6d:25, 2015-01-01 03:49:04.590, 0.975, 0.076, -0.111, 0, 0, 0, 144.701, -82.502, 33.871, -30.333, -13.293, 2.967, 30.33, 0.03522, 0.74359, 0.01718, 0.66742,
 15:37:46.250,f6:90:cc:01:6d:25, 2015-01-01 03:49:04.590, 0.979, 0.075, -0.103, -0.183, 0.122, 0.061, 144.69, -82.507, 33.871, -30.333, -13.293, 2.967, 30.33, 0.03522, 0.74359, 0.01718, 0.66742,
 15:37:46.273,e3:ca:2d:fd:e0:8c, 2015-01-01 03:49:03.970, 1.017, 0.032, -0.062, 0, 0.122, 0, 153.226, -85.984, -0.84, -28.000, -11.493, -4.693, 27.2, 0.17429, 0.71033, -0.16318, 0.66205,
 15:37:46.273,e3:ca:2d:fd:e0:8c, 2015-01-01 03:49:03.970, 1.018, 0.032, -0.062, 0, 0.122, 0, 153.204, -85.984, -0.791, -28.000, -11.493, -4.693, 27.2, 0.17429, 0.71033, -0.16318, 0.66205,
 15:37:46.274,ed:35:33:d3:6c:f8, 2015-01-01 03:49:04.410, 0.777, 0.114, 0.613, -0.427, -0.122, -0.122, 10.404, -51.24, 136.642, -19.513, -11.567, -23.120, 28.7, -0.29419, -0.4306, 0.08273, -0.84915,
 15:37:46.274,ed:35:33:d3:6c:f8, 2015-01-01 03:49:04.410, 0.776, 0.115, 0.611, -0.488, -0.061, -0.366, 10.404, -51.246, 136.615, -19.513, -11.567, -23.120, 28.7, -0.29419, -0.4306, 0.08273, -0.84915,
 15:37:46.295,f6:90:cc:01:6d:25, 2015-01-01 03:49:04.590, 0.982, 0.074, -0.101, -0.305, 0.061, 0.061, 144.684, -82.507, 33.832, -30.333, -13.293, 2.967, 30.33, 0.03522, 0.74359, 0.01718, 0.66742,
 15:37:46.295,f6:90:cc:01:6d:25, 2015-01-01 03:49:04.590, 0.974, 0.073, -0.099, -0.488, -0.122, 0, 144.679, -82.507, 33.794, -30.333, -13.293, 2.967, 30.33, 0.03522, 0.74359, 0.01718, 0.66742,
 15:37:46.296,ed:35:33:d3:6c:f8, 2015-01-01 03:49:04.410, 0.776, 0.117, 0.607, -0.183, 0.549, -0.366, 10.41, -51.24, 136.599, -19.513, -11.567, -23.120, 28.7, -0.29419, -0.4306, 0.08273, -0.84915,
 15:37:46.296,ed:35:33:d3:6c:f8, 2015-01-01 03:49:04.410, 0.779, 0.116, 0.607, -1.282, 0.671, -0.366, 10.41, -51.229, 136.577, -19.513, -11.567, -23.120, 28.7, -0.29419, -0.4306, 0.08273, -0.84915,
 15:37:46.315,ed:40:fe:65:30:6c, 2015-01-01 03:49:09.385, 0.878, 0.011, 0.492, -0.305, -0.244, -0.183, 1.258, -60.793, -115.422, -26.260, -7.527, 3.187, 25.88, 0.46643, -0.42264, -0.27884, -0.72522,
 15:37:46.315,ed:40:fe:65:30:6c, 2015-01-01 03:49:09.385, 0.877, 0.01, 0.494, -0.305, -0.122, -0.305, 1.269, -60.798, -115.444, -26.260, -7.527, 3.187, 25.88, 0.46643, -0.42264, -0.27884, -0.72522,
 15:37:46.317,e3:ca:2d:fd:e0:8c, 2015-01-01 03:49:03.970, 1.018, 0.031, -0.062, 0, 0.061, 0, 153.182, -85.99, -0.758, -28.000, -11.493, -4.693, 27.2, 0.17429, 0.71033, -0.16318, 0.66205,
 15:37:46.317,e3:ca:2d:fd:e0:8c, 2015-01-01 03:49:03.970, 1.016, 0.032, -0.063, 0, -0.244, 0, 153.188, -85.984, -0.753, -28.000, -11.493, -4.693, 27.2, 0.17429, 0.71033, -0.16318, 0.66205,
 15:37:46.337,ed:40:fe:65:30:6c, 2015-01-01 03:49:09.385, 0.877, 0.011, 0.49, -0.244, 0.244, -0.244, 1.269, -60.793, -115.466, -25.987, -7.507, 2.540, 25.88, 0.46643, -0.42264, -0.27884, -0.72522,
 15:37:46.337,ed:40:fe:65:30:6c, 2015-01-01 03:49:09.385, 0.878, 0.012, 0.487, -0.122, 0.427, -0.183, 1.274, -60.782, -115.483, -25.987, -7.507, 2.540, 25.88, 0.46643, -0.42264, -0.27884, -0.72522,
 15:37:46.343,f6:90:cc:01:6d:25, 2015-01-01 03:49:04.590, 0.976, 0.073, -0.104, -0.122, -0.122, -0.061, 144.69, -82.502, 33.783, -30.333, -13.293, 2.967, 30.33, 0.03522, 0.74359, 0.01718, 0.66742,
 15:37:46.343,f6:90:cc:01:6d:25, 2015-01-01 03:49:04.590, 0.981, 0.074, -0.107, 0, 0, 0, 144.684, -82.502, 33.794, -30.333, -13.293, 2.967, 30.33, 0.03522, 0.74359, 0.01718, 0.66742,
 15:37:46.344,e3:ca:2d:fd:e0:8c, 2015-01-01 03:49:04.350, 1.017, 0.033, -0.063, 0.061, -0.305, 0, 153.221, -85.984, -0.786, -28.000, -11.493, -4.693, 27.2, 0.17429, 0.71033, -0.16318, 0.66205,
 15:37:46.344,e3:ca:2d:fd:e0:8c, 2015-01-01 03:49:04.350, 1.018, 0.033, -0.062, -0.061, -0.122, 0, 153.243, -85.979, -0.807, -28.000, -11.493, -4.693, 27.2, 0.17429, 0.71033, -0.16318, 0.66205,
 15:37:46.345,ed:35:33:d3:6c:f8, 2015-01-01 03:49:04.410, 0.777, 0.119, 0.608, -0.366, 1.16, -0.427, 10.399, -51.213, 136.555, -19.513, -11.567, -23.120, 28.7, -0.29419, -0.4306, 0.08273, -0.84915,
 15:37:46.345,ed:35:33:d3:6c:f8, 2015-01-01 03:49:04.410, 0.777, 0.118, 0.612, -0.122, 0.61, -0.122, 10.404, -51.196, 136.538, -19.513, -11.567, -23.120, 28.7, -0.29419, -0.4306, 0.08273, -0.84915,
 15:37:46.362,f6:90:cc:01:6d:25, 2015-01-01 03:49:04.590, 0.981, 0.074, -0.104, 0, 0.183, -0.122, 144.673, -82.502, 33.816, -30.333, -13.293, 2.967, 30.33, 0.03522, 0.74359, 0.01718, 0.66742,
 15:37:46.362,f6:90:cc:01:6d:25, 2015-01-01 03:49:04.590, 0.981, 0.074, -0.103, 0, 0.244, -0.183, 144.641, -82.502, 33.865, -30.333, -13.293, 2.967, 30.33, 0.03522, 0.74359, 0.01718, 0.66742,
 15:37:46.384,e3:ca:2d:fd:e0:8c, 2015-01-01 03:49:04.350, 1.017, 0.034, -0.061, 0, 0, 0, 153.237, -85.979, -0.818, -28.000, -11.493, -4.693, 27.2, 0.17429, 0.71033, -0.16318, 0.66205,
 15:37:46.384,e3:ca:2d:fd:e0:8c, 2015-01-01 03:49:04.350, 1.019, 0.033, -0.062, 0, -0.122, 0, 153.232, -85.979, -0.829, -28.000, -11.493, -4.693, 27.2, 0.17429, 0.71033, -0.16318, 0.66205,
 15:37:46.384,ed:40:fe:65:30:6c, 2015-01-01 03:49:09.385, 0.878, 0.013, 0.49, -0.061, 0.366, -0.122, 1.28, -60.776, -115.494, -25.987, -7.507, 2.540, 25.88, 0.46643, -0.42264, -0.27884, -0.72522,
 15:37:46.384,ed:40:fe:65:30:6c, 2015-01-01 03:49:09.385, 0.879, 0.011, 0.491, 0, 0.366, 0, 1.28, -60.771, -115.499, -25.987, -7.507, 2.540, 25.88, 0.46643, -0.42264, -0.27884, -0.72522,
 15:37:46.386,ed:35:33:d3:6c:f8, 2015-01-01 03:49:04.410, 0.776, 0.116, 0.614, 0, 0.61, 0.183, 10.404, -51.185, 136.516, -19.700, -11.973, -23.227, 28.7, -0.29419, -0.4306, 0.08273, -0.84915,
 15:37:46.386,ed:35:33:d3:6c:f8, 2015-01-01 03:49:04.410, 0.774, 0.114, 0.615, -0.122, 0.549, 0.122, 10.404, -51.174, 136.478, -19.700, -11.973, -23.227, 28.7, -0.29419, -0.4306, 0.08273, -0.84915,
 15:37:46.406,ed:40:fe:65:30:6c, 2015-01-01 03:49:09.385, 0.878, 0.01, 0.494, 0.183, 0.366, 0.122, 1.28, -60.76, -115.505, -25.987, -7.507, 2.540, 25.88, 0.46503, -0.42258, -0.27798, -0.7265,
 15:37:46.406,ed:40:fe:65:30:6c, 2015-01-01 03:49:09.385, 0.876, 0.012, 0.495, 0.061, 0.549, 0.122, 1.274, -60.749, -115.505, -25.987, -7.507, 2.540, 25.88, 0.46503, -0.42258, -0.27798, -0.7265,
 15:37:46.428,e3:ca:2d:fd:e0:8c, 2015-01-01 03:49:04.350, 1.018, 0.033, -0.064, 0, -0.122, 0, 153.232, -85.979, -0.84, -28.000, -11.493, -4.693, 27.2, 0.17429, 0.71033, -0.16318, 0.66205,
 15:37:46.428,e3:ca:2d:fd:e0:8c, 2015-01-01 03:49:04.350, 1.018, 0.034, -0.066, 0, -0.122, 0, 153.237, -85.974, -0.857, -28.000, -11.493, -4.693, 27.2, 0.17429, 0.71033, -0.16318, 0.66205,
 15:37:46.430,f6:90:cc:01:6d:25, 2015-01-01 03:49:04.590, 0.978, 0.076, -0.104, -0.061, 0.244, -0.183, 144.591, -82.507, 33.92, -30.333, -13.293, 2.967, 30.33, 0.03522, 0.74359, 0.01718, 0.66742,
 15:37:46.430,f6:90:cc:01:6d:25, 2015-01-01 03:49:04.590, 0.974, 0.078, -0.108, 0, 0.183, -0.183, 144.547, -82.507, 33.975, -30.333, -13.293, 2.967, 30.33, 0.03522, 0.74359, 0.01718, 0.66742,
 15:37:46.431,ed:35:33:d3:6c:f8, 2015-01-01 03:49:04.410, 0.771, 0.115, 0.615, -0.244, 0.305, -0.061, 10.399, -51.169, 136.456, -19.700, -11.973, -23.227, 28.7, -0.29675, -0.42972, 0.08356, -0.84863,
 15:37:46.431,ed:35:33:d3:6c:f8, 2015-01-01 03:49:04.410, 0.771, 0.116, 0.613, -0.183, 0, -0.183, 10.404, -51.163, 136.428, -19.700, -11.973, -23.227, 28.7, -0.29675, -0.42972, 0.08356, -0.84863,
 15:37:46.451,ed:40:fe:65:30:6c, 2015-01-01 03:49:09.385, 0.874, 0.012, 0.493, 0, 0.488, 0, 1.274, -60.743, -115.516, -25.987, -7.507, 2.540, 25.88, 0.46503, -0.42258, -0.27798, -0.7265,
 15:37:46.451,ed:40:fe:65:30:6c, 2015-01-01 03:49:09.385, 0.872, 0.011, 0.492, 0.061, 0.366, -0.183, 1.285, -60.732, -115.532, -25.987, -7.507, 2.540, 25.88, 0.46503, -0.42258, -0.27798, -0.7265,
 15:37:46.451,e3:ca:2d:fd:e0:8c, 2015-01-01 03:49:04.350, 1.018, 0.032, -0.065, 0, 0, 0, 153.232, -85.974, -0.857, -28.000, -11.493, -4.693, 27.2, 0.17429, 0.71033, -0.16318, 0.66205,
 15:37:46.451,e3:ca:2d:fd:e0:8c, 2015-01-01 03:49:04.350, 1.018, 0.032, -0.065, -0.061, 0, 0, 153.221, -85.974, -0.857, -28.000, -11.493, -4.693, 27.2, 0.17429, 0.71033, -0.16318, 0.66205,
 15:37:46.453,f6:90:cc:01:6d:25, 2015-01-01 03:49:04.590, 0.975, 0.075, -0.107, -0.244, 0.061, -0.183, 144.509, -82.507, 34.025, -29.907, -13.160, 2.680, 30.33, 0.03522, 0.74359, 0.01718, 0.66742,
 15:37:46.453,f6:90:cc:01:6d:25, 2015-01-01 03:49:04.590, 0.977, 0.073, -0.105, 0, 0.183, -0.244, 144.47, -82.507, 34.069, -29.907, -13.160, 2.680, 30.33, 0.03522, 0.74359, 0.01718, 0.66742,
 15:37:46.453,ed:35:33:d3:6c:f8, 2015-01-01 03:49:04.725, 0.773, 0.117, 0.611, 0.244, -0.122, -0.183, 10.41, -51.163, 136.401, -19.700, -11.973, -23.227, 28.7, -0.29675, -0.42972, 0.08356, -0.84863,
 15:37:46.453,ed:35:33:d3:6c:f8, 2015-01-01 03:49:04.725, 0.775, 0.12, 0.608, -0.366, -0.122, 0.061, 10.421, -51.169, 136.373, -19.700, -11.973, -23.227, 28.7, -0.29675, -0.42972, 0.08356, -0.84863,
 15:37:46.472,ed:40:fe:65:30:6c, 2015-01-01 03:49:09.745, 0.874, 0.011, 0.491, 0.122, 0, 0, 1.291, -60.732, -115.538, -25.987, -7.507, 2.540, 25.88, 0.46503, -0.42258, -0.27798, -0.7265,
 15:37:46.472,ed:40:fe:65:30:6c, 2015-01-01 03:49:09.745, 0.876, 0.011, 0.492, 0.122, -0.122, 0.061, 1.291, -60.732, -115.543, -25.987, -7.507, 2.540, 25.88, 0.46503, -0.42258, -0.27798, -0.7265,
 15:37:46.497,f6:90:cc:01:6d:25, 2015-01-01 03:49:04.590, 0.978, 0.074, -0.103, 0.061, 0, -0.244, 144.426, -82.507, 34.124, -29.907, -13.160, 2.680, 30.33, 0.03522, 0.74359, 0.01718, 0.66742,
 15:37:46.497,f6:90:cc:01:6d:25, 2015-01-01 03:49:04.590, 0.978, 0.076, -0.102, 0.183, -0.183, 0, 144.41, -82.502, 34.151, -29.907, -13.160, 2.680, 30.33, 0.03522, 0.74359, 0.01718, 0.66742,
 15:37:46.497,e3:ca:2d:fd:e0:8c, 2015-01-01 03:49:04.350, 1.018, 0.032, -0.063, -0.122, 0.061, 0, 153.21, -85.974, -0.851, -28.000, -11.493, -4.693, 27.2, 0.17429, 0.71033, -0.16318, 0.66205,
 15:37:46.497,e3:ca:2d:fd:e0:8c, 2015-01-01 03:49:04.350, 1.018, 0.032, -0.063, 0, 0, 0, 153.204, -85.974, -0.851, -28.000, -11.493, -4.693, 27.2, 0.17429, 0.71033, -0.16318, 0.66205,
 15:37:46.499,ed:35:33:d3:6c:f8, 2015-01-01 03:49:04.725, 0.773, 0.117, 0.612, -0.305, 0, 0.122, 10.415, -51.169, 136.357, -19.700, -11.973, -23.227, 28.7, -0.29675, -0.42972, 0.08356, -0.84863,
 15:37:46.499,ed:35:33:d3:6c:f8, 2015-01-01 03:49:04.725, 0.772, 0.118, 0.615, -0.122, 0.244, 0.061, 10.415, -51.169, 136.351, -19.700, -11.973, -23.227, 28.7, -0.29675, -0.42972, 0.08356, -0.84863,
 15:37:46.517,ed:40:fe:65:30:6c, 2015-01-01 03:49:09.745, 0.875, 0.014, 0.493, 0.122, -0.061, 0.061, 1.291, -60.732, -115.549, -25.987, -7.507, 2.540, 25.88, 0.46503, -0.42258, -0.27798, -0.7265,
 15:37:46.517,ed:40:fe:65:30:6c, 2015-01-01 03:49:09.745, 0.875, 0.015, 0.495, 0.061, 0.061, 0, 1.291, -60.732, -115.554, -25.987, -7.507, 2.540, 25.88, 0.46503, -0.42258, -0.27798, -0.7265,
 15:37:46.543,f6:90:cc:01:6d:25, 2015-01-01 03:49:04.590, 0.978, 0.077, -0.102, 0, -0.366, 0, 144.432, -82.502, 34.146, -29.907, -13.160, 2.680, 30.33, 0.03522, 0.74341, 0.01761, 0.6676,
 15:37:46.543,f6:90:cc:01:6d:25, 2015-01-01 03:49:04.590, 0.977, 0.075, -0.104, 0.244, -0.427, 0, 144.465, -82.491, 34.124, -29.907, -13.160, 2.680, 30.33, 0.03522, 0.74341, 0.01761, 0.6676,
 15:37:46.543,e3:ca:2d:fd:e0:8c, 2015-01-01 03:49:04.350, 1.017, 0.032, -0.063, 0.061, -0.122, 0, 153.215, -85.974, -0.862, -28.000, -11.493, -4.693, 27.2, 0.17429, 0.71033, -0.16318, 0.66205,
 15:37:46.543,e3:ca:2d:fd:e0:8c, 2015-01-01 03:49:04.350, 1.017, 0.032, -0.062, 0.122, -0.183, 0, 153.237, -85.968, -0.884, -28.000, -11.493, -4.693, 27.2, 0.17429, 0.71033, -0.16318, 0.66205,
 15:37:46.545,ed:35:33:d3:6c:f8, 2015-01-01 03:49:04.725, 0.771, 0.117, 0.615, 0, 0.061, 0.183, 10.415, -51.163, 136.335, -19.700, -11.973, -23.227, 28.7, -0.29675, -0.42972, 0.08356, -0.84863,
 15:37:46.545,ed:35:33:d3:6c:f8, 2015-01-01 03:49:04.725, 0.772, 0.117, 0.615, -0.061, 0.122, 0.183, 10.415, -51.163, 136.302, -19.700, -11.973, -23.227, 28.7, -0.29675, -0.42972, 0.08356, -0.84863,
 15:37:46.564,ed:40:fe:65:30:6c, 2015-01-01 03:49:09.745, 0.875, 0.011, 0.493, 0.122, 0, 0, 1.296, -60.732, -115.565, -25.987, -7.507, 2.540, 25.88, 0.46503, -0.42258, -0.27798, -0.7265,
 15:37:46.564,ed:40:fe:65:30:6c, 2015-01-01 03:49:09.745, 0.875, 0.012, 0.493, 0.183, -0.061, 0.061, 1.302, -60.732, -115.571, -25.987, -7.507, 2.540, 25.88, 0.46503, -0.42258, -0.27798, -0.7265,
 15:37:46.589,f6:90:cc:01:6d:25, 2015-01-01 03:49:04.590, 0.978, 0.075, -0.103, 0.366, -0.244, 0, 144.498, -82.485, 34.096, -29.907, -13.160, 2.680, 30.33, 0.03522, 0.74341, 0.01761, 0.6676,
 15:37:46.589,f6:90:cc:01:6d:25, 2015-01-01 03:49:04.590, 0.979, 0.075, -0.101, 0.427, -0.366, 0, 144.525, -82.485, 34.085, -29.907, -13.160, 2.680, 30.33, 0.03522, 0.74341, 0.01761, 0.6676,
 15:37:46.589,ed:35:33:d3:6c:f8, 2015-01-01 03:49:04.725, 0.775, 0.12, 0.615, 0, -0.183, 0, 10.415, -51.163, 136.274, -19.700, -11.973, -23.227, 28.7, -0.29675, -0.42972, 0.08356, -0.84863,
 15:37:46.589,ed:35:33:d3:6c:f8, 2015-01-01 03:49:04.725, 0.779, 0.125, 0.614, 0.488, -0.244, 0.183, 10.421, -51.169, 136.258, -19.700, -11.973, -23.227, 28.7, -0.29675, -0.42972, 0.08356, -0.84863,
 15:37:46.607,ed:40:fe:65:30:6c, 2015-01-01 03:49:09.745, 0.877, 0.015, 0.494, 0.244, -0.366, 0.122, 1.302, -60.738, -115.571, -25.987, -7.507, 2.540, 25.88, 0.46503, -0.42258, -0.27798, -0.7265,
 15:37:46.607,ed:40:fe:65:30:6c, 2015-01-01 03:49:09.745, 0.878, 0.017, 0.495, 0.671, -0.549, 0.549, 1.302, -60.743, -115.554, -25.987, -7.507, 2.540, 25.88, 0.46503, -0.42258, -0.27798, -0.7265,
 15:37:46.609,e3:ca:2d:fd:e0:8c, 2015-01-01 03:49:04.350, 1.017, 0.032, -0.062, 0.183, -0.183, 0, 153.259, -85.968, -0.906, -27.880, -11.627, -4.240, 27.2, 0.17429, 0.71033, -0.16318, 0.66205,
 15:37:46.609,e3:ca:2d:fd:e0:8c, 2015-01-01 03:49:04.350, 1.018, 0.032, -0.061, 0.244, -0.122, 0, 153.276, -85.963, -0.923, -27.880, -11.627, -4.240, 27.2, 0.17429, 0.71033, -0.16318, 0.66205,
 15:37:46.610,f6:90:cc:01:6d:25, 2015-01-01 03:49:04.930, 0.98, 0.073, -0.101, 0.549, -0.366, 0, 144.558, -82.48, 34.063, -29.907, -13.160, 2.680, 30.33, 0.03522, 0.74341, 0.01761, 0.6676,
 15:37:46.610,f6:90:cc:01:6d:25, 2015-01-01 03:49:04.930, 0.979, 0.074, -0.105, 0.916, -0.427, 0, 144.597, -82.474, 34.041, -29.907, -13.160, 2.680, 30.33, 0.03522, 0.74341, 0.01761, 0.6676,
 15:37:46.632,e3:ca:2d:fd:e0:8c, 2015-01-01 03:49:04.350, 1.018, 0.033, -0.062, 0.366, -0.244, 0, 153.303, -85.963, -0.95, -27.880, -11.627, -4.240, 27.2, 0.17438, 0.71045, -0.16327, 0.6619,
 15:37:46.632,e3:ca:2d:fd:e0:8c, 2015-01-01 03:49:04.350, 1.018, 0.033, -0.062, 0.427, -0.244, 0, 153.336, -85.957, -0.983, -27.880, -11.627, -4.240, 27.2, 0.17438, 0.71045, -0.16327, 0.6619,
 15:37:46.634,ed:35:33:d3:6c:f8, 2015-01-01 03:49:04.725, 0.781, 0.121, 0.611, 0.61, 0, 0.732, 10.432, -51.169, 136.252, -19.700, -11.973, -23.227, 28.7, -0.29675, -0.42972, 0.08356, -0.84863,
 15:37:46.634,ed:35:33:d3:6c:f8, 2015-01-01 03:49:04.725, 0.777, 0.122, 0.606, -0.183, -0.427, 1.526, 10.426, -51.174, 136.252, -19.700, -11.973, -23.227, 28.7, -0.29675, -0.42972, 0.08356, -0.84863,
 15:37:46.654,f6:90:cc:01:6d:25, 2015-01-01 03:49:04.930, 0.978, 0.075, -0.105, 1.16, -0.244, 0, 144.641, -82.469, 34.019, -29.907, -13.160, 2.680, 30.33, 0.03522, 0.74341, 0.01761, 0.6676,
 15:37:46.654,f6:90:cc:01:6d:25, 2015-01-01 03:49:04.930, 0.976, 0.076, -0.108, 1.282, -0.122, 0, 144.679, -82.463, 34.041, -29.907, -13.160, 2.680, 30.33, 0.03522, 0.74341, 0.01761, 0.6676,
 15:37:46.657,ed:35:33:d3:6c:f8, 2015-01-01 03:49:04.725, 0.77, 0.114, 0.61, -1.343, -0.305, 2.563, 10.382, -51.191, 136.269, -19.513, -11.687, -23.460, 28.7, -0.29675, -0.42972, 0.08356, -0.84863,
 15:37:46.657,ed:35:33:d3:6c:f8, 2015-01-01 03:49:04.725, 0.772, 0.109, 0.606, 0.305, -0.61, 1.221, 10.316, -51.207, 136.291, -19.513, -11.687, -23.460, 28.7, -0.29675, -0.42972, 0.08356, -0.84863,
 15:37:46.675,ed:40:fe:65:30:6c, 2015-01-01 03:49:09.745, 0.88, 0.011, 0.493, 0.854, -0.488, 1.099, 1.28, -60.754, -115.521, -25.987, -7.507, 2.540, 25.88, 0.46503, -0.42258, -0.27798, -0.7265,
 15:37:46.675,ed:40:fe:65:30:6c, 2015-01-01 03:49:09.745, 0.875, 0.009, 0.489, 1.221, -0.488, 1.404, 1.258, -60.765, -115.461, -25.987, -7.507, 2.540, 25.88, 0.46503, -0.42258, -0.27798, -0.7265,
 15:37:46.676,e3:ca:2d:fd:e0:8c, 2015-01-01 03:49:04.350, 1.016, 0.032, -0.062, 0.61, -0.305, 0, 153.375, -85.952, -1.016, -27.880, -11.627, -4.240, 27.2, 0.17438, 0.71045, -0.16327, 0.6619,
 15:37:46.676,e3:ca:2d:fd:e0:8c, 2015-01-01 03:49:04.350, 1.017, 0.031, -0.062, 0.732, -0.244, 0, 153.413, -85.952, -1.049, -27.880, -11.627, -4.240, 27.2, 0.17438, 0.71045, -0.16327, 0.6619,
 15:37:46.698,ed:40:fe:65:30:6c, 2015-01-01 03:49:09.745, 0.874, 0.014, 0.487, 1.587, -0.183, 1.404, 1.236, -60.771, -115.395, -26.080, -7.307, 3.440, 25.88, 0.46503, -0.42258, -0.27798, -0.7265,
 15:37:46.698,ed:40:fe:65:30:6c, 2015-01-01 03:49:09.745, 0.879, 0.015, 0.488, 1.099, -0.244, 0.916, 1.225, -60.776, -115.34, -26.080, -7.307, 3.440, 25.88, 0.46503, -0.42258, -0.27798, -0.7265,
 15:37:46.700,f6:90:cc:01:6d:25, 2015-01-01 03:49:04.930, 0.977, 0.078, -0.109, 1.16, 0.061, 0, 144.706, -82.463, 34.069, -29.907, -13.160, 2.680, 30.33, 0.03522, 0.74341, 0.01761, 0.6676,
 15:37:46.700,f6:90:cc:01:6d:25, 2015-01-01 03:49:04.930, 0.98, 0.079, -0.104, 0.549, 0.183, 0, 144.706, -82.469, 34.102, -29.907, -13.160, 2.680, 30.33, 0.03522, 0.74341, 0.01761, 0.6676,
 15:37:46.700,ed:35:33:d3:6c:f8, 2015-01-01 03:49:04.725, 0.777, 0.114, 0.608, 0.854, -0.061, 0.488, 10.311, -51.218, 136.285, -19.513, -11.687, -23.460, 28.7, -0.29675, -0.42972, 0.08356, -0.84863,
 15:37:46.700,ed:35:33:d3:6c:f8, 2015-01-01 03:49:04.725, 0.778, 0.116, 0.609, 0.427, 0.488, -0.244, 10.322, -51.218, 136.252, -19.513, -11.687, -23.460, 28.7, -0.29675, -0.42972, 0.08356, -0.84863,
 15:37:46.721,e3:ca:2d:fd:e0:8c, 2015-01-01 03:49:04.710, 1.018, 0.032, -0.063, 0.854, 0, 0, 153.43, -85.952, -1.06, -27.880, -11.627, -4.240, 27.2, 0.17438, 0.71045, -0.16327, 0.6619,
 15:37:46.721,e3:ca:2d:fd:e0:8c, 2015-01-01 03:49:04.710, 1.018, 0.035, -0.063, 0.793, 0, 0, 153.441, -85.952, -1.06, -27.880, -11.627, -4.240, 27.2, 0.17438, 0.71045, -0.16327, 0.6619,
 15:37:46.723,f6:90:cc:01:6d:25, 2015-01-01 03:49:04.930, 0.979, 0.079, -0.105, 0.183, 0.183, 0.305, 144.706, -82.469, 34.118, -29.907, -13.160, 2.680, 30.33, 0.03522, 0.74341, 0.01761, 0.6676,
 15:37:46.723,f6:90:cc:01:6d:25, 2015-01-01 03:49:04.930, 0.976, 0.077, -0.108, 0, 0.122, 0.244, 144.723, -82.474, 34.118, -29.907, -13.160, 2.680, 30.33, 0.03522, 0.74341, 0.01761, 0.6676,
 15:37:46.746,e3:ca:2d:fd:e0:8c, 2015-01-01 03:49:04.710, 1.019, 0.036, -0.065, 0.732, 0, 0, 153.441, -85.952, -1.06, -27.880, -11.627, -4.240, 27.2, 0.17438, 0.71045, -0.16327, 0.6619,
 15:37:46.746,e3:ca:2d:fd:e0:8c, 2015-01-01 03:49:04.710, 1.018, 0.035, -0.066, 0.61, 0, 0, 153.441, -85.952, -1.06, -27.880, -11.627, -4.240, 27.2, 0.17438, 0.71045, -0.16327, 0.6619,
 15:37:46.748,ed:35:33:d3:6c:f8, 2015-01-01 03:49:04.725, 0.774, 0.121, 0.607, -0.854, 0.244, -0.366, 10.338, -51.213, 136.198, -19.513, -11.687, -23.460, 28.7, -0.29834, -0.42972, 0.08505, -0.84793,
 15:37:46.748,ed:35:33:d3:6c:f8, 2015-01-01 03:49:04.725, 0.774, 0.116, 0.613, -1.831, 0.305, -0.183, 10.327, -51.207, 136.137, -19.513, -11.687, -23.460, 28.7, -0.29834, -0.42972, 0.08505, -0.84793,
 15:37:46.765,ed:40:fe:65:30:6c, 2015-01-01 03:49:09.745, 0.878, 0.016, 0.491, 0.488, -0.183, 0.488, 1.219, -60.776, -115.318, -26.080, -7.307, 3.440, 25.88, 0.46503, -0.42258, -0.27798, -0.7265,
 15:37:46.765,ed:40:fe:65:30:6c, 2015-01-01 03:49:09.745, 0.877, 0.014, 0.49, 0.061, 0.183, 0.244, 1.214, -60.782, -115.307, -26.080, -7.307, 3.440, 25.88, 0.46503, -0.42258, -0.27798, -0.7265,
 15:37:46.767,f6:90:cc:01:6d:25, 2015-01-01 03:49:04.930, 0.979, 0.075, -0.106, -0.061, 0.183, 0.122, 144.723, -82.48, 34.135, -29.907, -13.160, 2.680, 30.33, 0.03522, 0.74341, 0.01761, 0.6676,
 15:37:46.767,f6:90:cc:01:6d:25, 2015-01-01 03:49:04.930, 0.979, 0.075, -0.104, -0.488, 0.183, 0.061, 144.701, -82.48, 34.184, -29.907, -13.160, 2.680, 30.33, 0.03522, 0.74341, 0.01761, 0.6676,
 15:37:46.788,ed:40:fe:65:30:6c, 2015-01-01 03:49:09.745, 0.875, 0.012, 0.491, -0.305, 0.305, 0.244, 1.208, -60.776, -115.296, -26.080, -7.307, 3.440, 25.88, 0.46603, -0.42242, -0.27838, -0.7258,
 15:37:46.788,ed:40:fe:65:30:6c, 2015-01-01 03:49:09.745, 0.876, 0.011, 0.492, -0.488, 0.183, 0.244, 1.198, -60.771, -115.285, -26.080, -7.307, 3.440, 25.88, 0.46603, -0.42242, -0.27838, -0.7258,
 15:37:46.789,e3:ca:2d:fd:e0:8c, 2015-01-01 03:49:04.710, 1.017, 0.033, -0.064, 0.549, 0, 0, 153.435, -85.952, -1.055, -27.880, -11.627, -4.240, 27.2, 0.17438, 0.71045, -0.16327, 0.6619,
 15:37:46.789,e3:ca:2d:fd:e0:8c, 2015-01-01 03:49:04.710, 1.017, 0.034, -0.063, 0.183, 0, 0, 153.424, -85.952, -1.055, -27.880, -11.627, -4.240, 27.2, 0.17438, 0.71045, -0.16327, 0.6619,
 15:37:46.790,ed:35:33:d3:6c:f8, 2015-01-01 03:49:05.035, 0.774, 0.116, 0.614, -2.38, 0.366, -0.244, 10.3, -51.202, 136.099, -19.513, -11.687, -23.460, 28.7, -0.29834, -0.42972, 0.08505, -0.84793,
 15:37:46.790,ed:35:33:d3:6c:f8, 2015-01-01 03:49:05.035, 0.771, 0.115, 0.613, -2.136, 0.122, -0.549, 10.267, -51.196, 136.071, -19.513, -11.687, -23.460, 28.7, -0.29834, -0.42972, 0.08505, -0.84793,
 15:37:46.812,e3:ca:2d:fd:e0:8c, 2015-01-01 03:49:04.710, 1.018, 0.033, -0.062, 0, 0, 0, 153.413, -85.952, -1.055, -27.880, -11.627, -4.240, 27.2, 0.17438, 0.71045, -0.16327, 0.6619,
 15:37:46.812,e3:ca:2d:fd:e0:8c, 2015-01-01 03:49:04.710, 1.017, 0.032, -0.063, 0, -0.061, 0, 153.402, -85.952, -1.06, -27.880, -11.627, -4.240, 27.2, 0.17438, 0.71045, -0.16327, 0.6619,
 15:37:46.812,f6:90:cc:01:6d:25, 2015-01-01 03:49:04.930, 0.978, 0.074, -0.104, -0.549, 0.183, 0.183, 144.684, -82.485, 34.233, -29.907, -13.160, 2.680, 30.33, 0.03522, 0.74341, 0.01761, 0.6676,
 15:37:46.812,f6:90:cc:01:6d:25, 2015-01-01 03:49:04.930, 0.977, 0.073, -0.102, -0.183, 0.183, 0.122, 144.673, -82.491, 34.261, -29.907, -13.160, 2.680, 30.33, 0.03522, 0.74341, 0.01761, 0.6676,
 15:37:46.833,ed:40:fe:65:30:6c, 2015-01-01 03:49:09.745, 0.874, 0.011, 0.494, -0.488, 0, 0.366, 1.181, -60.765, -115.269, -26.080, -7.307, 3.440, 25.88, 0.46603, -0.42242, -0.27838, -0.7258,
 15:37:46.833,ed:40:fe:65:30:6c, 2015-01-01 03:49:09.745, 0.873, 0.01, 0.495, -0.549, 0.183, 0.366, 1.165, -60.765, -115.258, -26.080, -7.307, 3.440, 25.88, 0.46603, -0.42242, -0.27838, -0.7258,
 15:37:46.836,ed:35:33:d3:6c:f8, 2015-01-01 03:49:05.035, 0.771, 0.114, 0.615, -2.197, 0.183, -0.732, 10.245, -51.191, 136.033, -19.513, -11.687, -23.460, 28.7, -0.29834, -0.42972, 0.08505, -0.84793,
 15:37:46.836,ed:35:33:d3:6c:f8, 2015-01-01 03:49:05.035, 0.773, 0.115, 0.616, -2.441, 0.183, -0.793, 10.223, -51.185, 136.016, -19.513, -11.687, -23.460, 28.7, -0.29834, -0.42972, 0.08505, -0.84793,
 15:37:46.855,ed:40:fe:65:30:6c, 2015-01-01 03:49:10.125, 0.875, 0.009, 0.496, -0.549, 0.061, 0.488, 1.143, -60.76, -115.236, -26.080, -7.307, 3.440, 25.88, 0.46603, -0.42242, -0.27838, -0.7258,
 15:37:46.855,ed:40:fe:65:30:6c, 2015-01-01 03:49:10.125, 0.878, 0.01, 0.494, -0.61, -0.061, 0.671, 1.115, -60.76, -115.208, -26.080, -7.307, 3.440, 25.88, 0.46603, -0.42242, -0.27838, -0.7258,
 15:37:46.856,e3:ca:2d:fd:e0:8c, 2015-01-01 03:49:04.710, 1.017, 0.031, -0.063, 0, -0.183, 0, 153.413, -85.946, -1.082, -27.880, -11.627, -4.240, 27.2, 0.17438, 0.71045, -0.16327, 0.6619,
 15:37:46.856,e3:ca:2d:fd:e0:8c, 2015-01-01 03:49:04.710, 1.017, 0.031, -0.063, -0.061, -0.183, 0, 153.424, -85.946, -1.104, -27.880, -11.627, -4.240, 27.2, 0.17438, 0.71045, -0.16327, 0.6619,
 15:37:46.860,ed:35:33:d3:6c:f8, 2015-01-01 03:49:05.035, 0.779, 0.115, 0.614, -2.319, 0.061, -0.732, 10.195, -51.18, 136, -19.513, -11.687, -23.460, 28.7, -0.29834, -0.42972, 0.08505, -0.84793,
 15:37:46.860,ed:35:33:d3:6c:f8, 2015-01-01 03:49:05.035, 0.777, 0.112, 0.613, -1.404, 0, -0.122, 10.173, -51.174, 136.011, -19.513, -11.687, -23.460, 28.7, -0.29834, -0.42972, 0.08505, -0.84793,
 15:37:46.878,ed:40:fe:65:30:6c, 2015-01-01 03:49:10.125, 0.877, 0.01, 0.491, -0.427, -0.122, 0.671, 1.082, -60.76, -115.181, -26.080, -7.307, 3.440, 25.88, 0.46603, -0.42242, -0.27838, -0.7258,
 15:37:46.878,ed:40:fe:65:30:6c, 2015-01-01 03:49:10.125, 0.877, 0.005, 0.492, -0.244, -0.122, 0.61, 1.055, -60.76, -115.159, -26.080, -7.307, 3.440, 25.88, 0.46603, -0.42242, -0.27838, -0.7258,
 15:37:46.881,f6:90:cc:01:6d:25, 2015-01-01 03:49:04.930, 0.977, 0.074, -0.104, 0, 0.122, 0.061, 144.668, -82.491, 34.283, -30.040, -13.253, 3.547, 30.33, 0.03522, 0.74341, 0.01761, 0.6676,
 15:37:46.881,f6:90:cc:01:6d:25, 2015-01-01 03:49:04.930, 0.978, 0.074, -0.104, -0.244, -0.122, 0.183, 144.673, -82.496, 34.288, -30.040, -13.253, 3.547, 30.33, 0.03522, 0.74341, 0.01761, 0.6676,
 15:37:46.901,e3:ca:2d:fd:e0:8c, 2015-01-01 03:49:04.710, 1.017, 0.033, -0.062, -0.061, -0.244, 0, 153.446, -85.941, -1.132, -27.880, -11.627, -4.240, 27.2, 0.17438, 0.71045, -0.16327, 0.6619,
 15:37:46.901,e3:ca:2d:fd:e0:8c, 2015-01-01 03:49:04.710, 1.017, 0.033, -0.062, -0.061, -0.305, 0, 153.474, -85.935, -1.17, -27.880, -11.627, -4.240, 27.2, 0.17438, 0.71045, -0.16327, 0.6619,
 15:37:46.902,f6:90:cc:01:6d:25, 2015-01-01 03:49:04.930, 0.979, 0.073, -0.102, -0.244, -0.122, 0.305, 144.706, -82.496, 34.283, -30.040, -13.253, 3.547, 30.33, 0.03256, 0.74353, 0.0202, 0.66754,
 15:37:46.902,f6:90:cc:01:6d:25, 2015-01-01 03:49:04.930, 0.978, 0.073, -0.104, 0.061, 0, 0.183, 144.734, -82.496, 34.277, -30.040, -13.253, 3.547, 30.33, 0.03256, 0.74353, 0.0202, 0.66754,
 15:37:46.904,ed:35:33:d3:6c:f8, 2015-01-01 03:49:05.035, 0.777, 0.109, 0.609, -0.854, -0.61, 0.244, 10.157, -51.174, 136.022, -19.513, -11.687, -23.460, 28.7, -0.29834, -0.42972, 0.08505, -0.84793,
 15:37:46.904,ed:35:33:d3:6c:f8, 2015-01-01 03:49:05.035, 0.78, 0.104, 0.606, 0.366, 0, 0.549, 10.146, -51.185, 136.038, -19.513, -11.687, -23.460, 28.7, -0.29834, -0.42972, 0.08505, -0.84793,
 15:37:46.922,ed:40:fe:65:30:6c, 2015-01-01 03:49:10.125, 0.879, 0.001, 0.486, 0.183, 0, 0.671, 1.033, -60.76, -115.126, -26.080, -7.307, 3.440, 25.88, 0.46603, -0.42242, -0.27838, -0.7258,
 15:37:46.922,ed:40:fe:65:30:6c, 2015-01-01 03:49:10.125, 0.883, 0.006, 0.486, 0.549, 0, 0.427, 1.016, -60.76, -115.098, -26.080, -7.307, 3.440, 25.88, 0.46603, -0.42242, -0.27838, -0.7258,
 15:37:46.948,f6:90:cc:01:6d:25, 2015-01-01 03:49:04.930, 0.976, 0.074, -0.107, 0.366, 0.244, 0, 144.739, -82.502, 34.31, -30.040, -13.253, 3.547, 30.33, 0.03256, 0.74353, 0.0202, 0.66754,
 15:37:46.948,f6:90:cc:01:6d:25, 2015-01-01 03:49:04.930, 0.98, 0.074, -0.105, -0.122, 0.366, -0.122, 144.706, -82.507, 34.382, -30.040, -13.253, 3.547, 30.33, 0.03256, 0.74353, 0.0202, 0.66754,
 15:37:46.950,ed:35:33:d3:6c:f8, 2015-01-01 03:49:05.035, 0.783, 0.107, 0.605, 0.732, 0.366, 0.427, 10.146, -51.191, 136.066, -19.513, -11.687, -23.460, 28.7, -0.29834, -0.42972, 0.08505, -0.84793,
 15:37:46.950,ed:35:33:d3:6c:f8, 2015-01-01 03:49:05.035, 0.776, 0.111, 0.609, 0.671, 0.183, 0.183, 10.151, -51.185, 136.066, -19.513, -11.687, -23.460, 28.7, -0.29834, -0.42972, 0.08505, -0.84793,
 15:37:46.967,ed:40:fe:65:30:6c, 2015-01-01 03:49:10.125, 0.879, 0.01, 0.49, 0.549, 0, 0, 1.011, -60.76, -115.071, -26.080, -7.307, 3.440, 25.88, 0.46603, -0.42242, -0.27838, -0.7258,
 15:37:46.967,ed:40:fe:65:30:6c, 2015-01-01 03:49:10.125, 0.874, 0.008, 0.493, 0.427, 0.244, -0.122, 1.022, -60.76, -115.065, -26.080, -7.307, 3.440, 25.88, 0.46603, -0.42242, -0.27838, -0.7258,
 15:37:46.969,e3:ca:2d:fd:e0:8c, 2015-01-01 03:49:04.710, 1.017, 0.033, -0.063, -0.061, -0.305, 0, 153.501, -85.93, -1.208, -28.160, -12.060, -3.473, 27.2, 0.17438, 0.71045, -0.16327, 0.6619,
 15:37:46.969,e3:ca:2d:fd:e0:8c, 2015-01-01 03:49:04.710, 1.018, 0.033, -0.063, -0.061, -0.244, 0, 153.517, -85.93, -1.241, -28.160, -12.060, -3.473, 27.2, 0.17438, 0.71045, -0.16327, 0.6619,
 15:37:46.970,f6:90:cc:01:6d:25, 2015-01-01 03:49:05.305, 0.981, 0.075, -0.105, -0.244, 0.427, -0.122, 144.651, -82.513, 34.475, -30.040, -13.253, 3.547, 30.33, 0.03256, 0.74353, 0.0202, 0.66754,
 15:37:46.970,f6:90:cc:01:6d:25, 2015-01-01 03:49:05.305, 0.978, 0.075, -0.108, 0, 0.366, -0.183, 144.597, -82.518, 34.557, -30.040, -13.253, 3.547, 30.33, 0.03256, 0.74353, 0.0202, 0.66754,
 15:37:46.992,e3:ca:2d:fd:e0:8c, 2015-01-01 03:49:04.710, 1.019, 0.033, -0.065, 0, -0.122, 0, 153.528, -85.924, -1.258, -28.160, -12.060, -3.473, 27.2, 0.1748, 0.71054, -0.16385, 0.66153,
 15:37:46.992,e3:ca:2d:fd:e0:8c, 2015-01-01 03:49:04.710, 1.018, 0.033, -0.067, 0, -0.061, 0, 153.528, -85.924, -1.269, -28.160, -12.060, -3.473, 27.2, 0.1748, 0.71054, -0.16385, 0.66153,
 15:37:46.994,ed:35:33:d3:6c:f8, 2015-01-01 03:49:05.035, 0.77, 0.112, 0.616, 0.427, -0.183, 0, 10.162, -51.185, 136.033, -19.720, -11.567, -23.780, 28.7, -0.29834, -0.42972, 0.08505, -0.84793,
 15:37:46.994,ed:35:33:d3:6c:f8, 2015-01-01 03:49:05.035, 0.771, 0.114, 0.618, 0, -0.366, 0, 10.173, -51.196, 135.983, -19.720, -11.567, -23.780, 28.7, -0.29834, -0.42972, 0.08505, -0.84793,
 15:37:47.015,f6:90:cc:01:6d:25, 2015-01-01 03:49:05.305, 0.977, 0.077, -0.107, 0, 0.305, -0.244, 144.542, -82.518, 34.607, -30.040, -13.253, 3.547, 30.33, 0.03256, 0.74353, 0.0202, 0.66754,
 15:37:47.015,f6:90:cc:01:6d:25, 2015-01-01 03:49:05.305, 0.977, 0.075, -0.104, -0.427, 0.183, -0.122, 144.492, -82.518, 34.629, -30.040, -13.253, 3.547, 30.33, 0.03256, 0.74353, 0.0202, 0.66754,
 15:37:47.036,ed:40:fe:65:30:6c, 2015-01-01 03:49:10.125, 0.873, 0.01, 0.494, 0.122, 0.244, -0.122, 1.033, -60.754, -115.065, -26.080, -7.307, 3.440, 25.88, 0.46603, -0.42242, -0.27838, -0.7258,
 15:37:47.036,ed:40:fe:65:30:6c, 2015-01-01 03:49:10.125, 0.875, 0.011, 0.495, -0.061, 0, -0.244, 1.044, -60.754, -115.071, -26.080, -7.307, 3.440, 25.88, 0.46603, -0.42242, -0.27838, -0.7258,
 15:37:47.036,e3:ca:2d:fd:e0:8c, 2015-01-01 03:49:04.710, 1.018, 0.033, -0.066, 0, -0.061, 0, 153.528, -85.924, -1.274, -28.160, -12.060, -3.473, 27.2, 0.1748, 0.71054, -0.16385, 0.66153,
 15:37:47.036,e3:ca:2d:fd:e0:8c, 2015-01-01 03:49:04.710, 1.017, 0.032, -0.066, -0.061, 0, 0, 153.528, -85.924, -1.28, -28.160, -12.060, -3.473, 27.2, 0.1748, 0.71054, -0.16385, 0.66153,
 15:37:47.039,ed:35:33:d3:6c:f8, 2015-01-01 03:49:05.035, 0.773, 0.116, 0.617, -0.244, -0.427, -0.244, 10.173, -51.202, 135.923, -19.720, -11.567, -23.780, 28.7, -0.30148, -0.42896, 0.08734, -0.84698,
 15:37:47.039,ed:35:33:d3:6c:f8, 2015-01-01 03:49:05.035, 0.772, 0.114, 0.613, -0.183, -0.549, -0.122, 10.179, -51.213, 135.879, -19.720, -11.567, -23.780, 28.7, -0.30148, -0.42896, 0.08734, -0.84698,
 15:37:47.059,e3:ca:2d:fd:e0:8c, 2015-01-01 03:49:05.065, 1.016, 0.032, -0.064, -0.183, 0.122, 0, 153.506, -85.924, -1.269, -28.160, -12.060, -3.473, 27.2, 0.1748, 0.71054, -0.16385, 0.66153,
 15:37:47.059,e3:ca:2d:fd:e0:8c, 2015-01-01 03:49:05.065, 1.017, 0.031, -0.063, 0, 0, 0, 153.506, -85.924, -1.269, -28.160, -12.060, -3.473, 27.2, 0.1748, 0.71054, -0.16385, 0.66153,
 15:37:47.059,ed:40:fe:65:30:6c, 2015-01-01 03:49:10.125, 0.874, 0.01, 0.493, -0.061, -0.122, -0.183, 1.049, -60.754, -115.093, -26.407, -7.353, 3.153, 25.88, 0.46603, -0.42242, -0.27838, -0.7258,
 15:37:47.060,ed:40:fe:65:30:6c, 2015-01-01 03:49:10.125, 0.874, 0.01, 0.492, 0, -0.183, -0.061, 1.055, -60.754, -115.104, -26.407, -7.353, 3.153, 25.88, 0.46603, -0.42242, -0.27838, -0.7258,
 15:37:47.060,f6:90:cc:01:6d:25, 2015-01-01 03:49:05.305, 0.976, 0.073, -0.104, -0.366, 0.122, -0.122, 144.459, -82.518, 34.612, -30.040, -13.253, 3.547, 30.33, 0.03256, 0.74353, 0.0202, 0.66754,
 15:37:47.060,f6:90:cc:01:6d:25, 2015-01-01 03:49:05.305, 0.976, 0.073, -0.101, -0.122, 0.183, -0.122, 144.426, -82.518, 34.607, -30.040, -13.253, 3.547, 30.33, 0.03256, 0.74353, 0.0202, 0.66754,
 15:37:47.062,ed:35:33:d3:6c:f8, 2015-01-01 03:49:05.325, 0.773, 0.114, 0.611, 0.122, -0.488, 0, 10.184, -51.218, 135.873, -19.720, -11.567, -23.780, 28.7, -0.30148, -0.42896, 0.08734, -0.84698,
 15:37:47.062,ed:35:33:d3:6c:f8, 2015-01-01 03:49:05.325, 0.775, 0.113, 0.61, 0.122, -0.244, 0.061, 10.195, -51.229, 135.857, -19.720, -11.567, -23.780, 28.7, -0.30148, -0.42896, 0.08734, -0.84698,
 15:37:47.102,ed:40:fe:65:30:6c, 2015-01-01 03:49:10.125, 0.876, 0.009, 0.491, 0, -0.183, 0, 1.055, -60.754, -115.093, -26.407, -7.353, 3.153, 25.88, 0.46603, -0.42242, -0.27838, -0.7258,
 15:37:47.102,ed:40:fe:65:30:6c, 2015-01-01 03:49:10.125, 0.876, 0.008, 0.491, 0.061, -0.183, 0.061, 1.055, -60.76, -115.087, -26.407, -7.353, 3.153, 25.88, 0.46603, -0.42242, -0.27838, -0.7258,
 15:37:47.104,e3:ca:2d:fd:e0:8c, 2015-01-01 03:49:05.065, 1.017, 0.031, -0.063, 0, 0, 0, 153.501, -85.924, -1.269, -28.160, -12.060, -3.473, 27.2, 0.1748, 0.71054, -0.16385, 0.66153,
 15:37:47.104,e3:ca:2d:fd:e0:8c, 2015-01-01 03:49:05.065, 1.018, 0.032, -0.063, 0, -0.061, 0, 153.506, -85.924, -1.274, -28.160, -12.060, -3.473, 27.2, 0.1748, 0.71054, -0.16385, 0.66153,
 15:37:47.105,f6:90:cc:01:6d:25, 2015-01-01 03:49:05.305, 0.977, 0.075, -0.102, 0, 0.061, -0.183, 144.399, -82.518, 34.629, -30.040, -13.253, 3.547, 30.33, 0.03256, 0.74353, 0.0202, 0.66754,
 15:37:47.105,f6:90:cc:01:6d:25, 2015-01-01 03:49:05.305, 0.978, 0.074, -0.101, 0.122, 0, -0.061, 144.382, -82.518, 34.64, -30.040, -13.253, 3.547, 30.33, 0.03256, 0.74353, 0.0202, 0.66754,
 15:37:47.106,ed:35:33:d3:6c:f8, 2015-01-01 03:49:05.325, 0.774, 0.113, 0.611, 0.122, -0.183, 0.183, 10.195, -51.235, 135.84, -19.720, -11.567, -23.780, 28.7, -0.30148, -0.42896, 0.08734, -0.84698,
 15:37:47.106,ed:35:33:d3:6c:f8, 2015-01-01 03:49:05.325, 0.777, 0.113, 0.612, -0.061, 0, 0, 10.201, -51.235, 135.813, -19.720, -11.567, -23.780, 28.7, -0.30148, -0.42896, 0.08734, -0.84698,
 15:37:47.126,ed:40:fe:65:30:6c, 2015-01-01 03:49:10.125, 0.877, 0.009, 0.493, 0, -0.122, 0, 1.055, -60.76, -115.082, -26.407, -7.353, 3.153, 25.88, 0.46686, -0.42242, -0.27811, -0.72534,
 15:37:47.126,ed:40:fe:65:30:6c, 2015-01-01 03:49:10.125, 0.876, 0.009, 0.494, 0, -0.183, 0, 1.055, -60.765, -115.076, -26.407, -7.353, 3.153, 25.88, 0.46686, -0.42242, -0.27811, -0.72534,
 15:37:47.128,f6:90:cc:01:6d:25, 2015-01-01 03:49:05.305, 0.979, 0.073, -0.103, -0.122, -0.122, 0, 144.388, -82.518, 34.656, -30.040, -13.253, 3.547, 30.33, 0.03256, 0.74353, 0.0202, 0.66754,
 15:37:47.128,f6:90:cc:01:6d:25, 2015-01-01 03:49:05.305, 0.979, 0.074, -0.101, 0, -0.183, -0.061, 144.393, -82.513, 34.7, -30.040, -13.253, 3.547, 30.33, 0.03256, 0.74353, 0.0202, 0.66754,
 15:37:47.149,e3:ca:2d:fd:e0:8c, 2015-01-01 03:49:05.065, 1.018, 0.031, -0.063, 0, -0.061, 0, 153.517, -85.924, -1.28, -28.160, -12.060, -3.473, 27.2, 0.1748, 0.71054, -0.16385, 0.66153,
 15:37:47.149,e3:ca:2d:fd:e0:8c, 2015-01-01 03:49:05.065, 1.017, 0.031, -0.063, 0.061, -0.183, 0, 153.539, -85.919, -1.302, -28.160, -12.060, -3.473, 27.2, 0.1748, 0.71054, -0.16385, 0.66153,
 15:37:47.151,ed:35:33:d3:6c:f8, 2015-01-01 03:49:05.325, 0.774, 0.112, 0.613, 0, -0.122, 0.122, 10.201, -51.235, 135.786, -19.720, -11.567, -23.780, 28.7, -0.30148, -0.42896, 0.08734, -0.84698,
 15:37:47.151,ed:35:33:d3:6c:f8, 2015-01-01 03:49:05.325, 0.776, 0.109, 0.611, 0, -0.122, 0, 10.206, -51.24, 135.753, -19.720, -11.567, -23.780, 28.7, -0.30148, -0.42896, 0.08734, -0.84698,
 15:37:47.169,ed:40:fe:65:30:6c, 2015-01-01 03:49:10.125, 0.876, 0.007, 0.492, 0, -0.061, 0, 1.055, -60.765, -115.071, -26.407, -7.353, 3.153, 25.88, 0.46686, -0.42242, -0.27811, -0.72534,
 15:37:47.169,ed:40:fe:65:30:6c, 2015-01-01 03:49:10.125, 0.878, 0.011, 0.492, -0.183, 0, -0.244, 1.06, -60.765, -115.071, -26.407, -7.353, 3.153, 25.88, 0.46686, -0.42242, -0.27811, -0.72534,
 15:37:47.173,f6:90:cc:01:6d:25, 2015-01-01 03:49:05.305, 0.978, 0.075, -0.102, -0.061, -0.183, -0.061, 144.399, -82.513, 34.722, -30.040, -13.253, 3.547, 30.33, 0.03256, 0.74353, 0.0202, 0.66754,
 15:37:47.173,f6:90:cc:01:6d:25, 2015-01-01 03:49:05.305, 0.978, 0.077, -0.101, -0.061, -0.305, 0, 144.421, -82.507, 34.706, -30.040, -13.253, 3.547, 30.33, 0.03256, 0.74353, 0.0202, 0.66754,
 15:37:47.193,e3:ca:2d:fd:e0:8c, 2015-01-01 03:49:05.065, 1.017, 0.032, -0.063, 0, -0.244, 0, 153.567, -85.919, -1.335, -28.160, -12.060, -3.473, 27.2, 0.1748, 0.71054, -0.16385, 0.66153,
 15:37:47.193,e3:ca:2d:fd:e0:8c, 2015-01-01 03:49:05.065, 1.017, 0.034, -0.063, 0.061, -0.305, 0, 153.6, -85.913, -1.373, -28.160, -12.060, -3.473, 27.2, 0.1748, 0.71054, -0.16385, 0.66153,
 15:37:47.197,ed:35:33:d3:6c:f8, 2015-01-01 03:49:05.325, 0.777, 0.113, 0.611, -0.183, 0.244, -0.305, 10.206, -51.24, 135.742, -19.720, -11.567, -23.780, 28.7, -0.30148, -0.42896, 0.08734, -0.84698,
 15:37:47.197,ed:35:33:d3:6c:f8, 2015-01-01 03:49:05.325, 0.774, 0.115, 0.61, -0.305, 0.244, -0.427, 10.212, -51.235, 135.731, -19.720, -11.567, -23.780, 28.7, -0.30148, -0.42896, 0.08734, -0.84698,
 15:37:47.238,ed:40:fe:65:30:6c, 2015-01-01 03:49:10.460, 0.876, 0.01, 0.491, -0.244, 0.061, -0.366, 1.066, -60.765, -115.082, -26.407, -7.353, 3.153, 25.88, 0.46686, -0.42242, -0.27811, -0.72534,
 15:37:47.238,ed:40:fe:65:30:6c, 2015-01-01 03:49:10.460, 0.875, 0.007, 0.492, -0.061, 0.122, -0.122, 1.071, -60.76, -115.093, -26.407, -7.353, 3.153, 25.88, 0.46686, -0.42242, -0.27811, -0.72534,
 15:37:47.240,e3:ca:2d:fd:e0:8c, 2015-01-01 03:49:05.065, 1.017, 0.033, -0.064, 0, -0.366, 0, 153.638, -85.908, -1.417, -28.160, -12.060, -3.473, 27.2, 0.1748, 0.71054, -0.16385, 0.66153,
 15:37:47.240,e3:ca:2d:fd:e0:8c, 2015-01-01 03:49:05.065, 1.018, 0.033, -0.065, 0, -0.366, 0, 153.677, -85.902, -1.467, -28.160, -12.060, -3.473, 27.2, 0.1748, 0.71054, -0.16385, 0.66153,
 15:37:47.240,f6:90:cc:01:6d:25, 2015-01-01 03:49:05.305, 0.977, 0.075, -0.104, -0.061, -0.183, 0, 144.432, -82.507, 34.695, -30.427, -13.227, 3.200, 30.33, 0.03256, 0.74353, 0.0202, 0.66754,
 15:37:47.240,f6:90:cc:01:6d:25, 2015-01-01 03:49:05.305, 0.977, 0.073, -0.107, 0, -0.061, -0.183, 144.415, -82.502, 34.711, -30.427, -13.227, 3.200, 30.33, 0.03256, 0.74353, 0.0202, 0.66754,
 15:37:47.241,ed:35:33:d3:6c:f8, 2015-01-01 03:49:05.325, 0.775, 0.115, 0.613, -0.061, 0, -0.122, 10.217, -51.229, 135.714, -19.720, -11.567, -23.780, 28.7, -0.30148, -0.42896, 0.08734, -0.84698,
 15:37:47.241,ed:35:33:d3:6c:f8, 2015-01-01 03:49:05.325, 0.776, 0.113, 0.612, 0, 0, 0.244, 10.223, -51.229, 135.714, -19.720, -11.567, -23.780, 28.7, -0.30148, -0.42896, 0.08734, -0.84698,
 15:37:47.260,ed:40:fe:65:30:6c, 2015-01-01 03:49:10.460, 0.877, 0.007, 0.492, 0.061, -0.122, 0.183, 1.071, -60.76, -115.087, -26.407, -7.353, 3.153, 25.88, 0.46686, -0.42242, -0.27811, -0.72534,
 15:37:47.260,ed:40:fe:65:30:6c, 2015-01-01 03:49:10.460, 0.878, 0.009, 0.493, 0.183, -0.183, 0.244, 1.066, -60.76, -115.076, -26.407, -7.353, 3.153, 25.88, 0.46686, -0.42242, -0.27811, -0.72534,
 15:37:47.261,e3:ca:2d:fd:e0:8c, 2015-01-01 03:49:05.065, 1.018, 0.032, -0.066, -0.061, -0.366, 0, 153.715, -85.897, -1.511, -28.560, -11.873, -4.373, 27.2, 0.1748, 0.71054, -0.16385, 0.66153,
 15:37:47.261,e3:ca:2d:fd:e0:8c, 2015-01-01 03:49:05.065, 1.018, 0.032, -0.066, -0.061, -0.244, 0, 153.737, -85.891, -1.538, -28.560, -11.873, -4.373, 27.2, 0.1748, 0.71054, -0.16385, 0.66153,
 15:37:47.262,f6:90:cc:01:6d:25, 2015-01-01 03:49:05.305, 0.979, 0.075, -0.104, 0.061, -0.122, -0.244, 144.399, -82.502, 34.744, -30.427, -13.227, 3.200, 30.33, 0.03189, 0.74332, 0.02136, 0.66776,
 15:37:47.262,f6:90:cc:01:6d:25, 2015-01-01 03:49:05.305, 0.979, 0.077, -0.107, -0.183, -0.366, -0.244, 144.388, -82.491, 34.739, -30.427, -13.227, 3.200, 30.33, 0.03189, 0.74332, 0.02136, 0.66776,
 15:37:47.264,ed:35:33:d3:6c:f8, 2015-01-01 03:49:05.325, 0.777, 0.113, 0.613, 0, -0.122, 0.244, 10.217, -51.229, 135.714, -19.647, -11.447, -22.787, 28.7, -0.30148, -0.42896, 0.08734, -0.84698,
 15:37:47.264,ed:35:33:d3:6c:f8, 2015-01-01 03:49:05.325, 0.779, 0.115, 0.609, 0.061, 0.122, 0.061, 10.217, -51.229, 135.714, -19.647, -11.447, -22.787, 28.7, -0.30148, -0.42896, 0.08734, -0.84698,
 15:37:47.283,ed:40:fe:65:30:6c, 2015-01-01 03:49:10.460, 0.88, 0.011, 0.49, 0.244, -0.061, 0.122, 1.066, -60.76, -115.065, -26.407, -7.353, 3.153, 25.88, 0.46686, -0.42242, -0.27811, -0.72534,
 15:37:47.283,ed:40:fe:65:30:6c, 2015-01-01 03:49:10.460, 0.879, 0.01, 0.489, 0.427, 0, 0.061, 1.066, -60.76, -115.06, -26.407, -7.353, 3.153, 25.88, 0.46686, -0.42242, -0.27811, -0.72534,
 15:37:47.307,e3:ca:2d:fd:e0:8c, 2015-01-01 03:49:05.065, 1.017, 0.032, -0.065, 0, -0.305, 0, 153.77, -85.886, -1.577, -28.560, -11.873, -4.373, 27.2, 0.1748, 0.71054, -0.16385, 0.66153,
 15:37:47.307,e3:ca:2d:fd:e0:8c, 2015-01-01 03:49:05.065, 1.018, 0.033, -0.064, 0, -0.244, 0, 153.792, -85.88, -1.609, -28.560, -11.873, -4.373, 27.2, 0.1748, 0.71054, -0.16385, 0.66153,
 15:37:47.308,f6:90:cc:01:6d:25, 2015-01-01 03:49:05.305, 0.979, 0.076, -0.104, -0.244, -0.488, -0.244, 144.393, -82.48, 34.711, -30.427, -13.227, 3.200, 30.33, 0.03189, 0.74332, 0.02136, 0.66776,
 15:37:47.309,f6:90:cc:01:6d:25, 2015-01-01 03:49:05.305, 0.978, 0.076, -0.105, 0.061, -0.305, -0.183, 144.399, -82.474, 34.689, -30.427, -13.227, 3.200, 30.33, 0.03189, 0.74332, 0.02136, 0.66776,
 15:37:47.310,ed:35:33:d3:6c:f8, 2015-01-01 03:49:05.325, 0.779, 0.114, 0.607, 0.427, 0.122, 0.061, 10.223, -51.229, 135.709, -19.647, -11.447, -22.787, 28.7, -0.30148, -0.42896, 0.08734, -0.84698,
 15:37:47.310,ed:35:33:d3:6c:f8, 2015-01-01 03:49:05.325, 0.776, 0.115, 0.607, 0.305, 0.488, 0, 10.234, -51.229, 135.687, -19.647, -11.447, -22.787, 28.7, -0.30148, -0.42896, 0.08734, -0.84698,
 15:37:47.327,ed:40:fe:65:30:6c, 2015-01-01 03:49:10.460, 0.879, 0.011, 0.488, 0.488, 0.183, 0, 1.077, -60.76, -115.049, -26.407, -7.353, 3.153, 25.88, 0.46686, -0.42242, -0.27811, -0.72534,
 15:37:47.327,ed:40:fe:65:30:6c, 2015-01-01 03:49:10.460, 0.879, 0.012, 0.49, 0.305, 0.366, 0, 1.082, -60.754, -115.049, -26.407, -7.353, 3.153, 25.88, 0.46686, -0.42242, -0.27811, -0.72534,
 15:37:47.330,f6:90:cc:01:6d:25, 2015-01-01 03:49:05.665, 0.979, 0.076, -0.105, -0.366, -0.366, -0.183, 144.399, -82.463, 34.684, -30.427, -13.227, 3.200, 30.33, 0.03189, 0.74332, 0.02136, 0.66776,
 15:37:47.330,f6:90:cc:01:6d:25, 2015-01-01 03:49:05.665, 0.98, 0.077, -0.104, -0.366, -0.244, -0.122, 144.393, -82.458, 34.667, -30.427, -13.227, 3.200, 30.33, 0.03189, 0.74332, 0.02136, 0.66776,
 15:37:47.354,ed:35:33:d3:6c:f8, 2015-01-01 03:49:05.325, 0.775, 0.114, 0.608, 0.122, 0.549, -0.244, 10.239, -51.218, 135.648, -19.647, -11.447, -22.787, 28.7, -0.30289, -0.42911, 0.08786, -0.84634,
 15:37:47.354,ed:35:33:d3:6c:f8, 2015-01-01 03:49:05.325, 0.773, 0.114, 0.611, -0.061, 0.916, -0.549, 10.25, -51.207, 135.61, -19.647, -11.447, -22.787, 28.7, -0.30289, -0.42911, 0.08786, -0.84634,
 15:37:47.374,e3:ca:2d:fd:e0:8c, 2015-01-01 03:49:05.065, 1.017, 0.032, -0.065, 0, -0.305, 0, 153.825, -85.875, -1.642, -28.560, -11.873, -4.373, 27.2, 0.17523, 0.71069, -0.1644, 0.6611,
 15:37:47.374,e3:ca:2d:fd:e0:8c, 2015-01-01 03:49:05.065, 1.018, 0.033, -0.064, -0.061, -0.366, 0, 153.864, -85.869, -1.692, -28.560, -11.873, -4.373, 27.2, 0.17523, 0.71069, -0.1644, 0.6611,
 15:37:47.375,f6:90:cc:01:6d:25, 2015-01-01 03:49:05.665, 0.977, 0.077, -0.105, -0.671, -0.366, 0, 144.404, -82.452, 34.618, -30.427, -13.227, 3.200, 30.33, 0.03189, 0.74332, 0.02136, 0.66776,
 15:37:47.375,f6:90:cc:01:6d:25, 2015-01-01 03:49:05.665, 0.975, 0.076, -0.108, -0.488, -0.244, -0.061, 144.41, -82.447, 34.59, -30.427, -13.227, 3.200, 30.33, 0.03189, 0.74332, 0.02136, 0.66776,
 15:37:47.395,ed:40:fe:65:30:6c, 2015-01-01 03:49:10.460, 0.875, 0.012, 0.491, 0, 0.732, -0.122, 1.088, -60.743, -115.054, -26.407, -7.353, 3.153, 25.88, 0.46686, -0.42242, -0.27811, -0.72534,
 15:37:47.395,ed:40:fe:65:30:6c, 2015-01-01 03:49:10.460, 0.874, 0.01, 0.493, -0.183, 0.854, -0.305, 1.099, -60.727, -115.076, -26.407, -7.353, 3.153, 25.88, 0.46686, -0.42242, -0.27811, -0.72534,
 15:37:47.396,e3:ca:2d:fd:e0:8c, 2015-01-01 03:49:05.400, 1.017, 0.033, -0.066, -0.122, -0.427, 0, 153.907, -85.864, -1.741, -28.560, -11.873, -4.373, 27.2, 0.17523, 0.71069, -0.1644, 0.6611,
 15:37:47.396,e3:ca:2d:fd:e0:8c, 2015-01-01 03:49:05.400, 1.018, 0.034, -0.066, -0.305, -0.366, 0, 153.935, -85.858, -1.785, -28.560, -11.873, -4.373, 27.2, 0.17523, 0.71069, -0.1644, 0.6611,
 15:37:47.399,ed:35:33:d3:6c:f8, 2015-01-01 03:49:05.640, 0.775, 0.114, 0.614, -0.244, 0.732, -0.793, 10.261, -51.191, 135.577, -19.647, -11.447, -22.787, 28.7, -0.30289, -0.42911, 0.08786, -0.84634,
 15:37:47.399,ed:35:33:d3:6c:f8, 2015-01-01 03:49:05.640, 0.773, 0.113, 0.617, -0.244, 0.61, -0.488, 10.278, -51.174, 135.549, -19.647, -11.447, -22.787, 28.7, -0.30289, -0.42911, 0.08786, -0.84634,
 15:37:47.419,e3:ca:2d:fd:e0:8c, 2015-01-01 03:49:05.400, 1.018, 0.034, -0.065, -0.366, -0.305, 0, 153.951, -85.853, -1.824, -28.560, -11.873, -4.373, 27.2, 0.17523, 0.71069, -0.1644, 0.6611,
 15:37:47.419,e3:ca:2d:fd:e0:8c, 2015-01-01 03:49:05.400, 1.017, 0.035, -0.065, -0.366, -0.244, 0, 153.962, -85.847, -1.851, -28.560, -11.873, -4.373, 27.2, 0.17523, 0.71069, -0.1644, 0.6611,
 15:37:47.419,ed:40:fe:65:30:6c, 2015-01-01 03:49:10.460, 0.875, 0.007, 0.494, -0.183, 0.488, -0.183, 1.104, -60.716, -115.093, -26.120, -7.293, 3.253, 25.88, 0.46686, -0.42242, -0.27811, -0.72534,
 15:37:47.419,ed:40:fe:65:30:6c, 2015-01-01 03:49:10.460, 0.875, 0.007, 0.495, -0.183, 0, -0.061, 1.104, -60.71, -115.098, -26.120, -7.293, 3.253, 25.88, 0.46686, -0.42242, -0.27811, -0.72534,
 15:37:47.421,f6:90:cc:01:6d:25, 2015-01-01 03:49:05.665, 0.977, 0.076, -0.104, -0.427, -0.244, 0, 144.415, -82.447, 34.579, -30.427, -13.227, 3.200, 30.33, 0.03189, 0.74332, 0.02136, 0.66776,
 15:37:47.421,f6:90:cc:01:6d:25, 2015-01-01 03:49:05.665, 0.978, 0.077, -0.103, -0.122, -0.061, 0, 144.415, -82.441, 34.585, -30.427, -13.227, 3.200, 30.33, 0.03189, 0.74332, 0.02136, 0.66776,
 15:37:47.421,ed:35:33:d3:6c:f8, 2015-01-01 03:49:05.640, 0.775, 0.113, 0.615, -0.244, 0.305, -0.366, 10.283, -51.163, 135.538, -19.647, -11.447, -22.787, 28.7, -0.30289, -0.42911, 0.08786, -0.84634,
 15:37:47.421,ed:35:33:d3:6c:f8, 2015-01-01 03:49:05.640, 0.774, 0.112, 0.613, -0.183, 0.366, -0.427, 10.289, -51.158, 135.555, -19.647, -11.447, -22.787, 28.7, -0.30289, -0.42911, 0.08786, -0.84634,
 15:37:47.464,e3:ca:2d:fd:e0:8c, 2015-01-01 03:49:05.400, 1.017, 0.033, -0.066, -0.366, -0.244, 0, 153.973, -85.842, -1.884, -28.560, -11.873, -4.373, 27.2, 0.17523, 0.71069, -0.1644, 0.6611,
 15:37:47.464,e3:ca:2d:fd:e0:8c, 2015-01-01 03:49:05.400, 1.017, 0.03, -0.065, -0.183, -0.305, 0, 153.995, -85.836, -1.923, -28.560, -11.873, -4.373, 27.2, 0.17523, 0.71069, -0.1644, 0.6611,
 15:37:47.464,ed:40:fe:65:30:6c, 2015-01-01 03:49:10.460, 0.875, 0.009, 0.494, -0.244, 0, -0.183, 1.104, -60.71, -115.115, -26.120, -7.293, 3.253, 25.88, 0.46686, -0.42242, -0.27811, -0.72534,
 15:37:47.464,ed:40:fe:65:30:6c, 2015-01-01 03:49:10.460, 0.879, 0.01, 0.492, -0.305, 0.061, -0.366, 1.11, -60.71, -115.137, -26.120, -7.293, 3.253, 25.88, 0.46686, -0.42242, -0.27811, -0.72534,
 15:37:47.465,f6:90:cc:01:6d:25, 2015-01-01 03:49:05.665, 0.977, 0.077, -0.105, 0, -0.061, -0.366, 144.371, -82.436, 34.612, -30.427, -13.227, 3.200, 30.33, 0.03189, 0.74332, 0.02136, 0.66776,
 15:37:47.465,f6:90:cc:01:6d:25, 2015-01-01 03:49:05.665, 0.978, 0.076, -0.105, -0.122, -0.122, -0.305, 144.338, -82.43, 34.607, -30.427, -13.227, 3.200, 30.33, 0.03189, 0.74332, 0.02136, 0.66776,
 15:37:47.466,ed:35:33:d3:6c:f8, 2015-01-01 03:49:05.640, 0.778, 0.115, 0.612, -0.305, 0.122, -0.366, 10.3, -51.152, 135.566, -19.647, -11.447, -22.787, 28.7, -0.30289, -0.42911, 0.08786, -0.84634,
 15:37:47.466,ed:35:33:d3:6c:f8, 2015-01-01 03:49:05.640, 0.78, 0.117, 0.613, -0.732, 0, -0.061, 10.3, -51.147, 135.566, -19.647, -11.447, -22.787, 28.7, -0.30289, -0.42911, 0.08786, -0.84634,
 15:37:47.485,ed:40:fe:65:30:6c, 2015-01-01 03:49:10.460, 0.881, 0.008, 0.49, -0.183, -0.061, -0.244, 1.115, -60.71, -115.159, -26.120, -7.293, 3.253, 25.88, 0.4668, -0.42203, -0.27802, -0.72568,
 15:37:47.485,ed:40:fe:65:30:6c, 2015-01-01 03:49:10.460, 0.875, 0.01, 0.492, 0.122, -0.183, 0.122, 1.115, -60.71, -115.175, -26.120, -7.293, 3.253, 25.88, 0.4668, -0.42203, -0.27802, -0.72568,
 15:37:47.488,f6:90:cc:01:6d:25, 2015-01-01 03:49:05.665, 0.979, 0.074, -0.106, 0, 0, -0.244, 144.305, -82.43, 34.612, -30.427, -13.227, 3.200, 30.33, 0.03189, 0.74332, 0.02136, 0.66776,
 15:37:47.488,f6:90:cc:01:6d:25, 2015-01-01 03:49:05.665, 0.981, 0.075, -0.107, 0.488, 0, -0.183, 144.294, -82.425, 34.618, -30.427, -13.227, 3.200, 30.33, 0.03189, 0.74332, 0.02136, 0.66776,
 15:37:47.509,e3:ca:2d:fd:e0:8c, 2015-01-01 03:49:05.400, 1.018, 0.032, -0.065, -0.183, -0.244, 0, 154.017, -85.836, -1.95, -28.560, -11.873, -4.373, 27.2, 0.17523, 0.71069, -0.1644, 0.6611,
 15:37:47.509,e3:ca:2d:fd:e0:8c, 2015-01-01 03:49:05.400, 1.019, 0.032, -0.066, -0.122, -0.122, 0, 154.023, -85.831, -1.967, -28.560, -11.873, -4.373, 27.2, 0.17523, 0.71069, -0.1644, 0.6611,
 15:37:47.511,ed:35:33:d3:6c:f8, 2015-01-01 03:49:05.640, 0.771, 0.117, 0.613, -0.366, -0.488, 0.244, 10.289, -51.152, 135.544, -19.647, -11.447, -22.787, 28.7, -0.30289, -0.42911, 0.08786, -0.84634,
 15:37:47.511,ed:35:33:d3:6c:f8, 2015-01-01 03:49:05.640, 0.772, 0.115, 0.613, -0.549, -0.488, 0.122, 10.283, -51.163, 135.5, -19.647, -11.447, -22.787, 28.7, -0.30289, -0.42911, 0.08786, -0.84634,
 15:37:47.533,f6:90:cc:01:6d:25, 2015-01-01 03:49:05.665, 0.978, 0.076, -0.105, 0.732, 0.183, -0.183, 144.272, -82.425, 34.651, -30.427, -13.227, 3.200, 30.33, 0.03189, 0.74332, 0.02136, 0.66776,
 15:37:47.533,f6:90:cc:01:6d:25, 2015-01-01 03:49:05.665, 0.978, 0.078, -0.106, 0.671, 0.061, -0.122, 144.267, -82.425, 34.662, -30.427, -13.227, 3.200, 30.33, 0.03189, 0.74332, 0.02136, 0.66776,
 15:37:47.553,ed:40:fe:65:30:6c, 2015-01-01 03:49:10.460, 0.874, 0.011, 0.494, 0.183, -0.061, 0.244, 1.115, -60.71, -115.192, -26.120, -7.293, 3.253, 25.88, 0.4668, -0.42203, -0.27802, -0.72568,
 15:37:47.553,ed:40:fe:65:30:6c, 2015-01-01 03:49:10.460, 0.881, 0.014, 0.491, 0, -0.061, 0.122, 1.11, -60.716, -115.203, -26.120, -7.293, 3.253, 25.88, 0.4668, -0.42203, -0.27802, -0.72568,
 15:37:47.554,e3:ca:2d:fd:e0:8c, 2015-01-01 03:49:05.400, 1.018, 0.031, -0.067, 0, -0.122, 0, 154.034, -85.831, -1.978, -28.560, -11.873, -4.373, 27.2, 0.17523, 0.71069, -0.1644, 0.6611,
 15:37:47.554,e3:ca:2d:fd:e0:8c, 2015-01-01 03:49:05.400, 1.017, 0.031, -0.066, 0.244, -0.183, 0, 154.056, -85.825, -2, -28.560, -11.873, -4.373, 27.2, 0.17523, 0.71069, -0.1644, 0.6611,
 15:37:47.555,ed:35:33:d3:6c:f8, 2015-01-01 03:49:05.640, 0.781, 0.117, 0.609, -0.244, 0.061, 0, 10.278, -51.169, 135.445, -19.647, -11.447, -22.787, 28.7, -0.30289, -0.42911, 0.08786, -0.84634,
 15:37:47.555,ed:35:33:d3:6c:f8, 2015-01-01 03:49:05.640, 0.779, 0.114, 0.607, 0.183, 0.427, -0.488, 10.289, -51.163, 135.401, -19.647, -11.447, -22.787, 28.7, -0.30289, -0.42911, 0.08786, -0.84634,
 15:37:47.575,ed:40:fe:65:30:6c, 2015-01-01 03:49:10.815, 0.882, 0.013, 0.489, 0.061, -0.183, 0.061, 1.11, -60.716, -115.219, -26.120, -7.293, 3.253, 25.88, 0.4668, -0.42203, -0.27802, -0.72568,
 15:37:47.575,ed:40:fe:65:30:6c, 2015-01-01 03:49:10.815, 0.877, 0.01, 0.492, -0.183, 0.061, -0.122, 1.11, -60.716, -115.23, -26.120, -7.293, 3.253, 25.88, 0.4668, -0.42203, -0.27802, -0.72568,
 15:37:47.600,e3:ca:2d:fd:e0:8c, 2015-01-01 03:49:05.400, 1.018, 0.033, -0.067, 0.305, -0.122, 0, 154.078, -85.825, -2.016, -28.560, -11.873, -4.373, 27.2, 0.17523, 0.71069, -0.1644, 0.6611,
 15:37:47.600,e3:ca:2d:fd:e0:8c, 2015-01-01 03:49:05.400, 1.017, 0.034, -0.067, 0.061, 0, 0, 154.072, -85.825, -2.016, -28.560, -11.873, -4.373, 27.2, 0.17523, 0.71069, -0.1644, 0.6611,
 15:37:47.600,f6:90:cc:01:6d:25, 2015-01-01 03:49:05.665, 0.979, 0.078, -0.106, 0.183, 0.183, 0.061, 144.261, -82.43, 34.64, -30.300, -13.360, 3.193, 30.33, 0.03189, 0.74332, 0.02136, 0.66776,
 15:37:47.600,f6:90:cc:01:6d:25, 2015-01-01 03:49:05.665, 0.978, 0.075, -0.106, 0.427, 0.061, 0.061, 144.267, -82.43, 34.618, -30.300, -13.360, 3.193, 30.33, 0.03189, 0.74332, 0.02136, 0.66776,
 15:37:47.601,ed:35:33:d3:6c:f8, 2015-01-01 03:49:05.640, 0.775, 0.116, 0.613, -0.671, -0.061, -0.488, 10.3, -51.158, 135.341, -19.320, -11.360, -23.553, 28.7, -0.30289, -0.42911, 0.08786, -0.84634,
 15:37:47.601,ed:35:33:d3:6c:f8, 2015-01-01 03:49:05.640, 0.774, 0.116, 0.613, -0.732, 0.061, -0.122, 10.294, -51.158, 135.308, -19.320, -11.360, -23.553, 28.7, -0.30289, -0.42911, 0.08786, -0.84634,
 15:37:47.622,e3:ca:2d:fd:e0:8c, 2015-01-01 03:49:05.400, 1.017, 0.033, -0.067, 0.061, -0.122, 0, 154.089, -85.825, -2.032, -28.000, -11.707, -3.793, 27.2, 0.17523, 0.71069, -0.1644, 0.6611,
 15:37:47.622,e3:ca:2d:fd:e0:8c, 2015-01-01 03:49:05.400, 1.017, 0.032, -0.066, 0.183, -0.183, 0, 154.111, -85.82, -2.054, -28.000, -11.707, -3.793, 27.2, 0.17523, 0.71069, -0.1644, 0.6611,
 15:37:47.623,f6:90:cc:01:6d:25, 2015-01-01 03:49:05.665, 0.978, 0.075, -0.106, 0.671, 0.122, -0.122, 144.256, -82.43, 34.634, -30.300, -13.360, 3.193, 30.33, 0.03366, 0.74362, 0.02008, 0.66736,
 15:37:47.623,f6:90:cc:01:6d:25, 2015-01-01 03:49:05.665, 0.978, 0.076, -0.106, 0.671, 0.183, -0.244, 144.229, -82.43, 34.689, -30.300, -13.360, 3.193, 30.33, 0.03366, 0.74362, 0.02008, 0.66736,
 15:37:47.625,ed:35:33:d3:6c:f8, 2015-01-01 03:49:05.640, 0.771, 0.115, 0.614, -0.244, -0.183, -0.244, 10.294, -51.163, 135.28, -19.320, -11.360, -23.553, 28.7, -0.30594, -0.4285, 0.08875, -0.84546,
 15:37:47.625,ed:35:33:d3:6c:f8, 2015-01-01 03:49:05.640, 0.767, 0.114, 0.613, 0, -0.366, 0.366, 10.294, -51.169, 135.242, -19.320, -11.360, -23.553, 28.7, -0.30594, -0.4285, 0.08875, -0.84546,
 15:37:47.642,ed:40:fe:65:30:6c, 2015-01-01 03:49:10.815, 0.875, 0.007, 0.493, -0.244, 0, 0.122, 1.11, -60.716, -115.236, -26.120, -7.293, 3.253, 25.88, 0.4668, -0.42203, -0.27802, -0.72568,
 15:37:47.642,ed:40:fe:65:30:6c, 2015-01-01 03:49:10.815, 0.873, 0.009, 0.492, -0.061, 0, 0.488, 1.093, -60.716, -115.236, -26.120, -7.293, 3.253, 25.88, 0.4668, -0.42203, -0.27802, -0.72568,
 15:37:47.665,ed:40:fe:65:30:6c, 2015-01-01 03:49:10.815, 0.871, 0.011, 0.494, 0.061, 0, 0.427, 1.082, -60.716, -115.225, -26.120, -7.293, 3.253, 25.88, 0.4668, -0.42203, -0.27802, -0.72568,
 15:37:47.665,ed:40:fe:65:30:6c, 2015-01-01 03:49:10.815, 0.87, 0.014, 0.493, 0.061, -0.061, 0.183, 1.071, -60.716, -115.214, -26.120, -7.293, 3.253, 25.88, 0.4668, -0.42203, -0.27802, -0.72568,
 15:37:47.667,f6:90:cc:01:6d:25, 2015-01-01 03:49:05.665, 0.974, 0.078, -0.104, 0.488, 0.122, -0.122, 144.212, -82.43, 34.739, -30.300, -13.360, 3.193, 30.33, 0.03366, 0.74362, 0.02008, 0.66736,
 15:37:47.667,f6:90:cc:01:6d:25, 2015-01-01 03:49:05.665, 0.973, 0.08, -0.103, 0.793, 0.122, -0.061, 144.201, -82.43, 34.772, -30.300, -13.360, 3.193, 30.33, 0.03366, 0.74362, 0.02008, 0.66736,
 15:37:47.668,ed:35:33:d3:6c:f8, 2015-01-01 03:49:05.640, 0.77, 0.117, 0.613, -0.122, -0.183, 0.061, 10.294, -51.174, 135.209, -19.320, -11.360, -23.553, 28.7, -0.30594, -0.4285, 0.08875, -0.84546,
 15:37:47.668,ed:35:33:d3:6c:f8, 2015-01-01 03:49:05.640, 0.773, 0.118, 0.614, 0, 0, -0.061, 10.3, -51.174, 135.17, -19.320, -11.360, -23.553, 28.7, -0.30594, -0.4285, 0.08875, -0.84546,
 15:37:47.687,ed:40:fe:65:30:6c, 2015-01-01 03:49:10.815, 0.872, 0.014, 0.495, -0.061, -0.122, 0.122, 1.071, -60.716, -115.208, -26.120, -7.293, 3.253, 25.88, 0.4668, -0.42203, -0.27802, -0.72568,
 15:37:47.687,ed:40:fe:65:30:6c, 2015-01-01 03:49:10.815, 0.875, 0.01, 0.492, 0, -0.244, 0.122, 1.066, -60.721, -115.203, -26.120, -7.293, 3.253, 25.88, 0.4668, -0.42203, -0.27802, -0.72568,
 15:37:47.688,e3:ca:2d:fd:e0:8c, 2015-01-01 03:49:05.400, 1.017, 0.033, -0.065, 0.061, -0.061, 0, 154.111, -85.82, -2.06, -28.000, -11.707, -3.793, 27.2, 0.17523, 0.71069, -0.1644, 0.6611,
 15:37:47.688,e3:ca:2d:fd:e0:8c, 2015-01-01 03:49:05.400, 1.017, 0.034, -0.065, 0.122, -0.183, 0, 154.133, -85.814, -2.082, -28.000, -11.707, -3.793, 27.2, 0.17523, 0.71069, -0.1644, 0.6611,
 15:37:47.690,f6:90:cc:01:6d:25, 2015-01-01 03:49:06.020, 0.976, 0.079, -0.103, 0.793, 0, -0.061, 144.207, -82.43, 34.783, -30.300, -13.360, 3.193, 30.33, 0.03366, 0.74362, 0.02008, 0.66736,
 15:37:47.690,f6:90:cc:01:6d:25, 2015-01-01 03:49:06.020, 0.978, 0.077, -0.102, 0.793, -0.183, 0.061, 144.234, -82.43, 34.755, -30.300, -13.360, 3.193, 30.33, 0.03366, 0.74362, 0.02008, 0.66736,
 15:37:47.711,e3:ca:2d:fd:e0:8c, 2015-01-01 03:49:05.400, 1.016, 0.033, -0.065, 0.183, -0.366, 0, 154.16, -85.814, -2.115, -28.000, -11.707, -3.793, 27.2, 0.17593, 0.71091, -0.16531, 0.66046,
 15:37:47.711,e3:ca:2d:fd:e0:8c, 2015-01-01 03:49:05.400, 1.017, 0.032, -0.065, 0.183, -0.549, 0, 154.204, -85.803, -2.164, -28.000, -11.707, -3.793, 27.2, 0.17593, 0.71091, -0.16531, 0.66046,
 15:37:47.714,ed:35:33:d3:6c:f8, 2015-01-01 03:49:05.930, 0.775, 0.114, 0.612, 0.122, -0.061, 0.061, 10.305, -51.174, 135.154, -19.320, -11.360, -23.553, 28.7, -0.30594, -0.4285, 0.08875, -0.84546,
 15:37:47.714,ed:35:33:d3:6c:f8, 2015-01-01 03:49:05.930, 0.775, 0.11, 0.612, 0.122, -0.244, 0.122, 10.311, -51.18, 135.159, -19.320, -11.360, -23.553, 28.7, -0.30594, -0.4285, 0.08875, -0.84546,
 15:37:47.732,ed:40:fe:65:30:6c, 2015-01-01 03:49:10.815, 0.875, 0.008, 0.494, -0.061, -0.183, 0, 1.066, -60.721, -115.203, -26.120, -7.293, 3.253, 25.88, 0.4668, -0.42203, -0.27802, -0.72568,
 15:37:47.732,ed:40:fe:65:30:6c, 2015-01-01 03:49:10.815, 0.876, 0.005, 0.493, -0.183, -0.122, -0.183, 1.071, -60.721, -115.208, -26.120, -7.293, 3.253, 25.88, 0.4668, -0.42203, -0.27802, -0.72568,
 15:37:47.735,f6:90:cc:01:6d:25, 2015-01-01 03:49:06.020, 0.977, 0.074, -0.102, 0.671, -0.183, 0.061, 144.261, -82.425, 34.722, -30.300, -13.360, 3.193, 30.33, 0.03366, 0.74362, 0.02008, 0.66736,
 15:37:47.735,f6:90:cc:01:6d:25, 2015-01-01 03:49:06.020, 0.979, 0.074, -0.103, 0.671, -0.183, -0.061, 144.278, -82.425, 34.711, -30.300, -13.360, 3.193, 30.33, 0.03366, 0.74362, 0.02008, 0.66736,
 15:37:47.757,e3:ca:2d:fd:e0:8c, 2015-01-01 03:49:05.400, 1.017, 0.032, -0.065, 0.122, -0.671, 0, 154.265, -85.792, -2.236, -28.000, -11.707, -3.793, 27.2, 0.17593, 0.71091, -0.16531, 0.66046,
 15:37:47.757,e3:ca:2d:fd:e0:8c, 2015-01-01 03:49:05.400, 1.017, 0.033, -0.066, 0.183, -0.671, 0, 154.341, -85.781, -2.313, -28.000, -11.707, -3.793, 27.2, 0.17593, 0.71091, -0.16531, 0.66046,
 15:37:47.759,ed:35:33:d3:6c:f8, 2015-01-01 03:49:05.930, 0.774, 0.107, 0.613, 0, -0.122, -0.061, 10.316, -51.18, 135.148, -19.320, -11.360, -23.553, 28.7, -0.30594, -0.4285, 0.08875, -0.84546,
 15:37:47.759,ed:35:33:d3:6c:f8, 2015-01-01 03:49:05.930, 0.775, 0.111, 0.614, 0.244, -0.427, 0, 10.322, -51.185, 135.154, -19.320, -11.360, -23.553, 28.7, -0.30594, -0.4285, 0.08875, -0.84546,
 15:37:47.778,e3:ca:2d:fd:e0:8c, 2015-01-01 03:49:05.780, 1.018, 0.033, -0.067, 0.122, -0.732, 0, 154.413, -85.77, -2.395, -28.000, -11.707, -3.793, 27.2, 0.17593, 0.71091, -0.16531, 0.66046,
 15:37:47.778,e3:ca:2d:fd:e0:8c, 2015-01-01 03:49:05.780, 1.018, 0.031, -0.068, 0.183, -0.793, 0, 154.495, -85.759, -2.483, -28.000, -11.707, -3.793, 27.2, 0.17593, 0.71091, -0.16531, 0.66046,
 15:37:47.779,ed:40:fe:65:30:6c, 2015-01-01 03:49:10.815, 0.876, 0.005, 0.494, -0.183, -0.183, -0.305, 1.077, -60.727, -115.219, -26.120, -7.293, 3.253, 25.88, 0.4668, -0.42203, -0.27802, -0.72568,
 15:37:47.779,ed:40:fe:65:30:6c, 2015-01-01 03:49:10.815, 0.88, 0.009, 0.492, -0.122, -0.122, -0.427, 1.088, -60.727, -115.241, -26.120, -7.293, 3.253, 25.88, 0.4668, -0.42203, -0.27802, -0.72568,
 15:37:47.780,f6:90:cc:01:6d:25, 2015-01-01 03:49:06.020, 0.979, 0.076, -0.105, 0.549, -0.122, -0.183, 144.267, -82.419, 34.717, -30.300, -13.360, 3.193, 30.33, 0.03366, 0.74362, 0.02008, 0.66736,
 15:37:47.780,f6:90:cc:01:6d:25, 2015-01-01 03:49:06.020, 0.979, 0.077, -0.104, 0.549, -0.061, -0.183, 144.256, -82.419, 34.728, -30.300, -13.360, 3.193, 30.33, 0.03366, 0.74362, 0.02008, 0.66736,
 15:37:47.800,ed:40:fe:65:30:6c, 2015-01-01 03:49:10.815, 0.881, 0.011, 0.491, -0.061, -0.122, -0.488, 1.099, -60.727, -115.258, -26.000, -7.660, 3.740, 25.88, 0.4668, -0.42203, -0.27802, -0.72568,
 15:37:47.800,ed:40:fe:65:30:6c, 2015-01-01 03:49:10.815, 0.88, 0.01, 0.492, 0.061, 0, -0.366, 1.115, -60.727, -115.28, -26.000, -7.660, 3.740, 25.88, 0.4668, -0.42203, -0.27802, -0.72568,
 15:37:47.804,ed:35:33:d3:6c:f8, 2015-01-01 03:49:05.930, 0.779, 0.114, 0.611, 0, 0.183, -0.122, 10.327, -51.185, 135.148, -19.320, -11.360, -23.553, 28.7, -0.30594, -0.4285, 0.08875, -0.84546,
