Time,Device name,Chip Time(),Acceleration X(g),Acceleration Y(g),Acceleration Z(g),Angular velocity X(°/s),Angular velocity Y(°/s),Angular velocity Z(°/s),Angle X(°),Angle Y(°),Angle Z(°),Magnetic field X(ʯt),Magnetic field Y(ʯt),Magnetic field Z(ʯt),Temperature(℃),Quaternions 0(),Quaternions 1(),Quaternions 2(),Quaternions 3()
 11:25:53.824,ed:35:33:d3:6c:f8, 2015-01-01 00:38:44.025, 0.616, -0.038, 0.791, 0, -1.221, 0.061, -3.323, -37.826, 157.423, -15.933, -4.960, -26.333, 29.49, -0.18732, -0.30786, 0.08737, -0.92865,
 11:25:53.824,ed:35:33:d3:6c:f8, 2015-01-01 00:38:44.025, 0.619, -0.037, 0.788, 0, -0.977, -0.244, -3.318, -37.848, 157.33, -15.933, -4.960, -26.333, 29.49, -0.18732, -0.30786, 0.08737, -0.92865,
 11:25:53.827,ed:40:fe:65:30:6c, 2015-01-01 00:38:40.620, 0.793, -0.047, 0.626, -0.366, -0.549, -0.305, -4.62, -51.389, -104.222, -24.400, -3.960, 1.033, 24.96, -0.54251, 0.3602, 0.24023, 0.71979,
 11:25:53.827,ed:40:fe:65:30:6c, 2015-01-01 00:38:40.620, 0.793, -0.051, 0.622, 0.061, -0.427, -0.305, -4.62, -51.4, -104.222, -24.400, -3.960, 1.033, 24.96, -0.54251, 0.3602, 0.24023, 0.71979,
 11:25:53.848,f6:90:cc:01:6d:25, 2015-01-01 00:38:43.370, 0.944, -0.155, 0.259, 0.122, 0, 0, -31.487, -72.12, -115.714, -28.440, -3.800, -2.480, 29.14, 0.28006, -0.59641, -0.11981, -0.74258,
 11:25:53.848,f6:90:cc:01:6d:25, 2015-01-01 00:38:43.370, 0.944, -0.153, 0.262, 0.183, -0.305, 0, -31.487, -72.125, -115.73, -28.440, -3.800, -2.480, 29.14, 0.28006, -0.59641, -0.11981, -0.74258,
 11:25:53.850,e3:ca:2d:fd:e0:8c, 2015-01-01 00:38:40.840, 0.928, -0.128, 0.413, 0.549, -0.244, 0, -17.567, -64.819, 171.14, -22.907, -3.687, -14.000, 23.67, -0.1431, -0.51791, 0.1673, -0.82654,
 11:25:53.850,e3:ca:2d:fd:e0:8c, 2015-01-01 00:38:40.840, 0.927, -0.131, 0.411, 0.305, -0.427, 0.122, -17.573, -64.825, 171.145, -22.907, -3.687, -14.000, 23.67, -0.1431, -0.51791, 0.1673, -0.82654,
 11:25:53.868,ed:35:33:d3:6c:f8, 2015-01-01 00:38:44.025, 0.619, -0.039, 0.782, 0, -0.671, -0.488, -3.307, -37.864, 157.264, -15.933, -4.960, -26.333, 29.49, -0.18732, -0.30786, 0.08737, -0.92865,
 11:25:53.868,ed:35:33:d3:6c:f8, 2015-01-01 00:38:44.025, 0.613, -0.037, 0.777, 0.305, 0.793, -0.122, -3.296, -37.853, 157.203, -15.933, -4.960, -26.333, 29.49, -0.18732, -0.30786, 0.08737, -0.92865,
 11:25:53.891,ed:35:33:d3:6c:f8, 2015-01-01 00:38:44.025, 0.614, -0.035, 0.78, 0.793, 1.404, 0.244, -3.279, -37.826, 157.154, -15.933, -4.960, -26.333, 29.49, -0.18732, -0.30786, 0.08737, -0.92865,
 11:25:53.891,ed:35:33:d3:6c:f8, 2015-01-01 00:38:44.025, 0.614, -0.034, 0.781, 0.977, 1.16, 0.61, -3.263, -37.809, 157.132, -15.933, -4.960, -26.333, 29.49, -0.18732, -0.30786, 0.08737, -0.92865,
 11:25:53.895,e3:ca:2d:fd:e0:8c, 2015-01-01 00:38:40.840, 0.927, -0.13, 0.408, 0.549, -0.732, 0.305, -17.584, -64.841, 171.189, -22.907, -3.687, -14.000, 23.67, -0.146, -0.51816, 0.16943, -0.82547,
 11:25:53.895,e3:ca:2d:fd:e0:8c, 2015-01-01 00:38:40.840, 0.927, -0.129, 0.409, 0.977, -0.61, 0.549, -17.595, -64.847, 171.238, -22.907, -3.687, -14.000, 23.67, -0.146, -0.51816, 0.16943, -0.82547,
 11:25:53.915,f6:90:cc:01:6d:25, 2015-01-01 00:38:43.370, 0.943, -0.155, 0.257, 0.183, -0.549, 0, -31.492, -72.136, -115.746, -28.440, -3.800, -2.480, 29.14, 0.27835, -0.59653, -0.11551, -0.7438,
 11:25:53.915,f6:90:cc:01:6d:25, 2015-01-01 00:38:43.370, 0.941, -0.155, 0.256, 0.854, -0.671, 0, -31.498, -72.147, -115.757, -28.440, -3.800, -2.480, 29.14, 0.27835, -0.59653, -0.11551, -0.7438,
 11:25:53.917,ed:40:fe:65:30:6c, 2015-01-01 00:38:40.620, 0.79, -0.049, 0.619, 0.488, -0.366, -0.305, -4.614, -51.416, -104.222, -24.400, -3.960, 1.033, 24.96, -0.54251, 0.3602, 0.24023, 0.71979,
 11:25:53.917,ed:40:fe:65:30:6c, 2015-01-01 00:38:40.620, 0.79, -0.047, 0.616, 0.977, -0.244, -0.061, -4.598, -51.427, -104.227, -24.400, -3.960, 1.033, 24.96, -0.54251, 0.3602, 0.24023, 0.71979,
 11:25:53.937,ed:35:33:d3:6c:f8, 2015-01-01 00:38:44.025, 0.613, -0.038, 0.78, 0.671, 0, 0.671, -3.252, -37.809, 157.115, -15.933, -4.960, -26.333, 29.49, -0.18732, -0.30786, 0.08737, -0.92865,
 11:25:53.937,ed:35:33:d3:6c:f8, 2015-01-01 00:38:44.025, 0.617, -0.034, 0.779, 1.221, 0.061, 0.61, -3.235, -37.815, 157.083, -15.933, -4.960, -26.333, 29.49, -0.18732, -0.30786, 0.08737, -0.92865,
 11:25:53.938,ed:40:fe:65:30:6c, 2015-01-01 00:38:40.620, 0.791, -0.046, 0.616, 0.854, -0.977, 0.061, -4.581, -51.438, -104.222, -24.547, -3.820, 0.593, 24.96, -0.54251, 0.3602, 0.24023, 0.71979,
 11:25:53.938,ed:40:fe:65:30:6c, 2015-01-01 00:38:40.620, 0.793, -0.047, 0.616, 0.427, -1.038, 0.183, -4.57, -51.46, -104.2, -24.547, -3.820, 0.593, 24.96, -0.54251, 0.3602, 0.24023, 0.71979,
 11:25:53.940,e3:ca:2d:fd:e0:8c, 2015-01-01 00:38:40.840, 0.927, -0.129, 0.41, 0.916, -0.183, 0.61, -17.6, -64.852, 171.271, -22.907, -3.687, -14.000, 23.67, -0.146, -0.51816, 0.16943, -0.82547,
 11:25:53.940,e3:ca:2d:fd:e0:8c, 2015-01-01 00:38:40.840, 0.929, -0.13, 0.412, 0.671, 0.183, 0.61, -17.611, -64.847, 171.277, -22.907, -3.687, -14.000, 23.67, -0.146, -0.51816, 0.16943, -0.82547,
 11:25:53.960,f6:90:cc:01:6d:25, 2015-01-01 00:38:43.370, 0.941, -0.154, 0.252, 1.587, -0.305, 0.061, -31.481, -72.153, -115.763, -28.440, -3.800, -2.480, 29.14, 0.27835, -0.59653, -0.11551, -0.7438,
 11:25:53.960,f6:90:cc:01:6d:25, 2015-01-01 00:38:43.370, 0.943, -0.154, 0.25, 1.465, 0.183, 0.122, -31.454, -72.153, -115.763, -28.440, -3.800, -2.480, 29.14, 0.27835, -0.59653, -0.11551, -0.7438,
 11:25:53.960,ed:40:fe:65:30:6c, 2015-01-01 00:38:40.620, 0.792, -0.05, 0.618, 0.488, -0.977, 0.244, -4.57, -51.487, -104.161, -24.547, -3.820, 0.593, 24.96, -0.54251, 0.3602, 0.24023, 0.71979,
 11:25:53.960,ed:40:fe:65:30:6c, 2015-01-01 00:38:40.620, 0.791, -0.047, 0.623, 0.732, -0.793, 0.488, -4.565, -51.509, -104.117, -24.547, -3.820, 0.593, 24.96, -0.54251, 0.3602, 0.24023, 0.71979,
 11:25:53.982,f6:90:cc:01:6d:25, 2015-01-01 00:38:43.705, 0.942, -0.156, 0.257, 0.916, 0.366, 0.244, -31.432, -72.147, -115.763, -28.440, -3.800, -2.480, 29.14, 0.27835, -0.59653, -0.11551, -0.7438,
 11:25:53.982,f6:90:cc:01:6d:25, 2015-01-01 00:38:43.705, 0.945, -0.157, 0.257, 0.488, 0.488, 0.305, -31.415, -72.136, -115.757, -28.440, -3.800, -2.480, 29.14, 0.27835, -0.59653, -0.11551, -0.7438,
 11:25:53.984,e3:ca:2d:fd:e0:8c, 2015-01-01 00:38:41.175, 0.926, -0.132, 0.411, 0.488, 0.122, 0.488, -17.622, -64.841, 171.26, -22.907, -3.687, -14.000, 23.67, -0.146, -0.51816, 0.16943, -0.82547,
 11:25:53.984,e3:ca:2d:fd:e0:8c, 2015-01-01 00:38:41.175, 0.924, -0.129, 0.414, 0.793, 0, 0.916, -17.639, -64.841, 171.293, -22.907, -3.687, -14.000, 23.67, -0.146, -0.51816, 0.16943, -0.82547,
 11:25:54.004,f6:90:cc:01:6d:25, 2015-01-01 00:38:43.705, 0.943, -0.155, 0.26, 1.16, 0.427, 0.488, -31.404, -72.125, -115.763, -28.440, -3.800, -2.480, 29.14, 0.27835, -0.59653, -0.11551, -0.7438,
 11:25:54.004,f6:90:cc:01:6d:25, 2015-01-01 00:38:43.705, 0.94, -0.154, 0.264, 1.709, 0.122, 0.61, -31.393, -72.12, -115.768, -28.440, -3.800, -2.480, 29.14, 0.27835, -0.59653, -0.11551, -0.7438,
 11:25:54.004,ed:35:33:d3:6c:f8, 2015-01-01 00:38:44.025, 0.611, -0.036, 0.791, 0.244, 0.977, 1.16, -3.241, -37.798, 157.088, -15.880, -5.153, -25.660, 29.49, -0.18732, -0.30786, 0.08737, -0.92865,
 11:25:54.004,ed:35:33:d3:6c:f8, 2015-01-01 00:38:44.025, 0.609, -0.041, 0.792, 0, 0.916, 1.099, -3.252, -37.782, 157.099, -15.880, -5.153, -25.660, 29.49, -0.18732, -0.30786, 0.08737, -0.92865,
 11:25:54.005,ed:40:fe:65:30:6c, 2015-01-01 00:38:40.620, 0.79, -0.048, 0.628, 0.488, -0.977, 0.549, -4.565, -51.526, -104.084, -24.547, -3.820, 0.593, 24.96, -0.54251, 0.3602, 0.24023, 0.71979,
 11:25:54.005,ed:40:fe:65:30:6c, 2015-01-01 00:38:40.620, 0.789, -0.05, 0.624, 0, -0.977, 0.244, -4.57, -51.548, -104.052, -24.547, -3.820, 0.593, 24.96, -0.54251, 0.3602, 0.24023, 0.71979,
 11:25:54.006,e3:ca:2d:fd:e0:8c, 2015-01-01 00:38:41.175, 0.921, -0.13, 0.413, 0.549, 0, 0.977, -17.661, -64.836, 171.348, -22.907, -3.687, -14.000, 23.67, -0.146, -0.51816, 0.16943, -0.82547,
 11:25:54.006,e3:ca:2d:fd:e0:8c, 2015-01-01 00:38:41.175, 0.922, -0.135, 0.412, 0.488, 0.061, 0.854, -17.688, -64.83, 171.381, -22.907, -3.687, -14.000, 23.67, -0.146, -0.51816, 0.16943, -0.82547,
 11:25:54.026,ed:35:33:d3:6c:f8, 2015-01-01 00:38:44.025, 0.606, -0.043, 0.786, -0.732, 0.732, 0.549, -3.268, -37.766, 157.099, -15.880, -5.153, -25.660, 29.49, -0.19675, -0.31174, 0.09064, -0.92508,
 11:25:54.026,ed:35:33:d3:6c:f8, 2015-01-01 00:38:44.025, 0.605, -0.044, 0.787, -0.793, 0.366, 0.244, -3.285, -37.76, 157.083, -15.880, -5.153, -25.660, 29.49, -0.19675, -0.31174, 0.09064, -0.92508,
 11:25:54.027,f6:90:cc:01:6d:25, 2015-01-01 00:38:43.705, 0.938, -0.154, 0.263, 1.343, -0.183, 0.671, -31.399, -72.114, -115.763, -28.440, -3.800, -2.480, 29.14, 0.27835, -0.59653, -0.11551, -0.7438,
 11:25:54.027,f6:90:cc:01:6d:25, 2015-01-01 00:38:43.705, 0.937, -0.16, 0.259, 1.282, -0.488, 0.793, -31.426, -72.12, -115.724, -28.440, -3.800, -2.480, 29.14, 0.27835, -0.59653, -0.11551, -0.7438,
 11:25:54.028,ed:40:fe:65:30:6c, 2015-01-01 00:38:40.620, 0.786, -0.052, 0.623, 0.122, -0.793, -0.061, -4.576, -51.57, -104.03, -24.547, -3.820, 0.593, 24.96, -0.53989, 0.36459, 0.23895, 0.71997,
 11:25:54.028,ed:40:fe:65:30:6c, 2015-01-01 00:38:40.620, 0.792, -0.055, 0.62, 0.61, -1.221, 0, -4.576, -51.592, -104.019, -24.547, -3.820, 0.593, 24.96, -0.53989, 0.36459, 0.23895, 0.71997,
 11:25:54.053,e3:ca:2d:fd:e0:8c, 2015-01-01 00:38:41.175, 0.925, -0.137, 0.411, 0.61, 0.061, 0.671, -17.71, -64.825, 171.398, -22.907, -3.687, -14.000, 23.67, -0.146, -0.51816, 0.16943, -0.82547,
 11:25:54.054,e3:ca:2d:fd:e0:8c, 2015-01-01 00:38:41.175, 0.922, -0.136, 0.415, 1.038, -0.061, 0.793, -17.726, -64.825, 171.398, -22.907, -3.687, -14.000, 23.67, -0.146, -0.51816, 0.16943, -0.82547,
 11:25:54.071,ed:35:33:d3:6c:f8, 2015-01-01 00:38:44.025, 0.611, -0.039, 0.785, -0.854, 1.038, 0.977, -3.307, -37.744, 157.115, -15.880, -5.153, -25.660, 29.49, -0.19675, -0.31174, 0.09064, -0.92508,
 11:25:54.071,ed:35:33:d3:6c:f8, 2015-01-01 00:38:44.025, 0.614, -0.036, 0.784, -0.427, 1.16, 1.526, -3.334, -37.716, 157.176, -15.880, -5.153, -25.660, 29.49, -0.19675, -0.31174, 0.09064, -0.92508,
 11:25:54.072,f6:90:cc:01:6d:25, 2015-01-01 00:38:43.705, 0.94, -0.164, 0.258, 1.282, -0.793, 0.732, -31.465, -72.125, -115.697, -28.440, -3.800, -2.480, 29.14, 0.27835, -0.59653, -0.11551, -0.7438,
 11:25:54.072,f6:90:cc:01:6d:25, 2015-01-01 00:38:43.705, 0.938, -0.162, 0.26, 1.831, -0.793, 0.671, -31.487, -72.131, -115.664, -28.440, -3.800, -2.480, 29.14, 0.27835, -0.59653, -0.11551, -0.7438,
 11:25:54.074,ed:40:fe:65:30:6c, 2015-01-01 00:38:40.620, 0.792, -0.052, 0.619, 1.648, -0.977, 0.916, -4.565, -51.614, -103.997, -24.547, -3.820, 0.593, 24.96, -0.53989, 0.36459, 0.23895, 0.71997,
 11:25:54.074,ed:40:fe:65:30:6c, 2015-01-01 00:38:40.620, 0.785, -0.052, 0.606, 2.747, -1.099, 1.526, -4.554, -51.636, -103.942, -24.547, -3.820, 0.593, 24.96, -0.53989, 0.36459, 0.23895, 0.71997,
 11:25:54.095,f6:90:cc:01:6d:25, 2015-01-01 00:38:43.705, 0.937, -0.156, 0.254, 2.808, -0.183, 0.854, -31.481, -72.125, -115.642, -28.440, -3.800, -2.480, 29.14, 0.27835, -0.59653, -0.11551, -0.7438,
 11:25:54.095,f6:90:cc:01:6d:25, 2015-01-01 00:38:43.705, 0.94, -0.154, 0.261, 2.808, 0, 1.038, -31.481, -72.114, -115.637, -28.440, -3.800, -2.480, 29.14, 0.27835, -0.59653, -0.11551, -0.7438,
 11:25:54.096,ed:40:fe:65:30:6c, 2015-01-01 00:38:41.020, 0.792, -0.049, 0.615, 3.174, -1.16, 1.404, -4.537, -51.658, -103.865, -24.547, -3.820, 0.593, 24.96, -0.53989, 0.36459, 0.23895, 0.71997,
 11:25:54.096,ed:40:fe:65:30:6c, 2015-01-01 00:38:41.020, 0.795, -0.047, 0.609, 3.113, -1.16, 1.16, -4.51, -51.68, -103.804, -24.547, -3.820, 0.593, 24.96, -0.53989, 0.36459, 0.23895, 0.71997,
 11:25:54.099,e3:ca:2d:fd:e0:8c, 2015-01-01 00:38:41.175, 0.922, -0.132, 0.412, 1.343, 0.183, 1.038, -17.737, -64.819, 171.414, -22.907, -3.687, -14.000, 23.67, -0.146, -0.51816, 0.16943, -0.82547,
 11:25:54.099,e3:ca:2d:fd:e0:8c, 2015-01-01 00:38:41.175, 0.925, -0.129, 0.414, 1.526, 0.183, 1.221, -17.754, -64.808, 171.453, -22.907, -3.687, -14.000, 23.67, -0.146, -0.51816, 0.16943, -0.82547,
 11:25:54.116,ed:35:33:d3:6c:f8, 2015-01-01 00:38:44.385, 0.607, -0.042, 0.777, 0.061, 0.244, 1.77, -3.356, -37.711, 157.231, -15.880, -5.153, -25.660, 29.49, -0.19675, -0.31174, 0.09064, -0.92508,
 11:25:54.116,ed:35:33:d3:6c:f8, 2015-01-01 00:38:44.385, 0.613, -0.043, 0.78, -0.183, -0.305, 2.319, -3.389, -37.716, 157.291, -15.880, -5.153, -25.660, 29.49, -0.19675, -0.31174, 0.09064, -0.92508,
 11:25:54.138,ed:35:33:d3:6c:f8, 2015-01-01 00:38:44.385, 0.617, -0.039, 0.777, 0.488, 0, 2.686, -3.417, -37.716, 157.379, -15.880, -5.153, -25.660, 29.49, -0.19675, -0.31174, 0.09064, -0.92508,
 11:25:54.138,ed:35:33:d3:6c:f8, 2015-01-01 00:38:44.385, 0.615, -0.046, 0.785, 0.366, -0.671, 2.686, -3.444, -37.733, 157.429, -15.880, -5.153, -25.660, 29.49, -0.19675, -0.31174, 0.09064, -0.92508,
 11:25:54.140,ed:40:fe:65:30:6c, 2015-01-01 00:38:41.020, 0.795, -0.048, 0.614, 2.808, -1.16, 1.16, -4.488, -51.702, -103.749, -24.547, -3.820, 0.593, 24.96, -0.53989, 0.36459, 0.23895, 0.71997,
 11:25:54.140,ed:40:fe:65:30:6c, 2015-01-01 00:38:41.020, 0.797, -0.051, 0.617, 2.197, -1.221, 0.916, -4.466, -51.729, -103.689, -24.547, -3.820, 0.593, 24.96, -0.53989, 0.36459, 0.23895, 0.71997,
 11:25:54.142,e3:ca:2d:fd:e0:8c, 2015-01-01 00:38:41.175, 0.93, -0.131, 0.415, 1.16, 0.549, 1.16, -17.77, -64.797, 171.508, -22.907, -3.687, -14.000, 23.67, -0.146, -0.51816, 0.16943, -0.82547,
 11:25:54.142,e3:ca:2d:fd:e0:8c, 2015-01-01 00:38:41.175, 0.93, -0.13, 0.413, 0.732, 0.916, 0.977, -17.787, -64.781, 171.546, -22.907, -3.687, -14.000, 23.67, -0.146, -0.51816, 0.16943, -0.82547,
 11:25:54.162,f6:90:cc:01:6d:25, 2015-01-01 00:38:43.705, 0.943, -0.155, 0.255, 2.38, 0.549, 1.16, -31.476, -72.092, -115.631, -28.440, -3.800, -2.480, 29.14, 0.27835, -0.59653, -0.11551, -0.7438,
 11:25:54.162,f6:90:cc:01:6d:25, 2015-01-01 00:38:43.705, 0.946, -0.156, 0.259, 1.465, 0.854, 1.16, -31.476, -72.065, -115.62, -28.440, -3.800, -2.480, 29.14, 0.27835, -0.59653, -0.11551, -0.7438,
 11:25:54.183,ed:35:33:d3:6c:f8, 2015-01-01 00:38:44.385, 0.615, -0.05, 0.786, 0.183, -1.221, 2.197, -3.472, -37.755, 157.484, -15.880, -5.153, -25.660, 29.49, -0.19675, -0.31174, 0.09064, -0.92508,
 11:25:54.183,ed:35:33:d3:6c:f8, 2015-01-01 00:38:44.385, 0.605, -0.049, 0.783, -0.183, -0.305, 1.465, -3.494, -37.766, 157.495, -15.880, -5.153, -25.660, 29.49, -0.19675, -0.31174, 0.09064, -0.92508,
 11:25:54.185,f6:90:cc:01:6d:25, 2015-01-01 00:38:43.705, 0.942, -0.157, 0.257, 0.977, 0.916, 1.099, -31.481, -72.043, -115.609, -28.667, -3.833, -2.133, 29.14, 0.27835, -0.59653, -0.11551, -0.7438,
 11:25:54.185,f6:90:cc:01:6d:25, 2015-01-01 00:38:43.705, 0.938, -0.157, 0.26, 0.671, 0.793, 0.916, -31.487, -72.021, -115.598, -28.667, -3.833, -2.133, 29.14, 0.27835, -0.59653, -0.11551, -0.7438,
 11:25:54.186,ed:40:fe:65:30:6c, 2015-01-01 00:38:41.020, 0.79, -0.051, 0.618, 1.648, -1.282, 0.61, -4.449, -51.757, -103.645, -24.547, -3.820, 0.593, 24.96, -0.53989, 0.36459, 0.23895, 0.71997,
 11:25:54.186,ed:40:fe:65:30:6c, 2015-01-01 00:38:41.020, 0.788, -0.048, 0.625, 0.977, -0.916, 0.488, -4.444, -51.779, -103.607, -24.547, -3.820, 0.593, 24.96, -0.53989, 0.36459, 0.23895, 0.71997,
 11:25:54.188,e3:ca:2d:fd:e0:8c, 2015-01-01 00:38:41.175, 0.926, -0.131, 0.411, 0.488, 0.977, 0.854, -17.798, -64.759, 171.568, -22.633, -3.393, -13.520, 23.67, -0.146, -0.51816, 0.16943, -0.82547,
 11:25:54.188,e3:ca:2d:fd:e0:8c, 2015-01-01 00:38:41.175, 0.922, -0.131, 0.411, 0.305, 0.793, 0.854, -17.809, -64.737, 171.606, -22.633, -3.393, -13.520, 23.67, -0.146, -0.51816, 0.16943, -0.82547,
 11:25:54.211,e3:ca:2d:fd:e0:8c, 2015-01-01 00:38:41.175, 0.919, -0.132, 0.414, 0.122, 0.732, 0.854, -17.831, -64.72, 171.639, -22.633, -3.393, -13.520, 23.67, -0.14343, -0.51779, 0.16907, -0.8262,
 11:25:54.211,e3:ca:2d:fd:e0:8c, 2015-01-01 00:38:41.175, 0.92, -0.134, 0.416, 0, 0.977, 0.671, -17.847, -64.704, 171.683, -22.633, -3.393, -13.520, 23.67, -0.14343, -0.51779, 0.16907, -0.8262,
 11:25:54.229,ed:35:33:d3:6c:f8, 2015-01-01 00:38:44.385, 0.607, -0.047, 0.792, -0.305, 0.488, 0.671, -3.51, -37.755, 157.489, -15.880, -5.153, -25.660, 29.49, -0.19675, -0.31174, 0.09064, -0.92508,
 11:25:54.229,ed:35:33:d3:6c:f8, 2015-01-01 00:38:44.385, 0.606, -0.046, 0.789, 0, -0.305, 0.671, -3.516, -37.76, 157.516, -15.880, -5.153, -25.660, 29.49, -0.19675, -0.31174, 0.09064, -0.92508,
 11:25:54.234,ed:40:fe:65:30:6c, 2015-01-01 00:38:41.020, 0.787, -0.052, 0.618, 0.854, -1.099, 0.427, -4.438, -51.801, -103.574, -24.547, -3.820, 0.593, 24.96, -0.53989, 0.36459, 0.23895, 0.71997,
 11:25:54.234,ed:40:fe:65:30:6c, 2015-01-01 00:38:41.020, 0.789, -0.055, 0.616, 1.038, -1.343, 0.549, -4.438, -51.828, -103.541, -24.547, -3.820, 0.593, 24.96, -0.53989, 0.36459, 0.23895, 0.71997,
 11:25:54.234,f6:90:cc:01:6d:25, 2015-01-01 00:38:43.705, 0.935, -0.156, 0.259, 0.671, 0.61, 0.916, -31.498, -72.004, -115.593, -28.667, -3.833, -2.133, 29.14, 0.27835, -0.59653, -0.11551, -0.7438,
 11:25:54.234,f6:90:cc:01:6d:25, 2015-01-01 00:38:43.705, 0.936, -0.161, 0.261, 0.122, 0.732, 0.732, -31.509, -71.982, -115.62, -28.667, -3.833, -2.133, 29.14, 0.27835, -0.59653, -0.11551, -0.7438,
 11:25:54.255,e3:ca:2d:fd:e0:8c, 2015-01-01 00:38:41.175, 0.917, -0.138, 0.416, 0, 0.916, 0.549, -17.858, -64.682, 171.711, -22.633, -3.393, -13.520, 23.67, -0.14343, -0.51779, 0.16907, -0.8262,
 11:25:54.255,e3:ca:2d:fd:e0:8c, 2015-01-01 00:38:41.175, 0.915, -0.138, 0.417, 0, 0.732, 0.244, -17.864, -64.666, 171.749, -22.633, -3.393, -13.520, 23.67, -0.14343, -0.51779, 0.16907, -0.8262,
 11:25:54.273,ed:35:33:d3:6c:f8, 2015-01-01 00:38:44.385, 0.609, -0.053, 0.781, 0.488, -1.465, 0.793, -3.516, -37.793, 157.555, -15.880, -5.153, -25.660, 29.49, -0.19675, -0.31174, 0.09064, -0.92508,
 11:25:54.273,ed:35:33:d3:6c:f8, 2015-01-01 00:38:44.385, 0.608, -0.058, 0.778, 0.366, -2.014, 0.732, -3.521, -37.831, 157.593, -15.880, -5.153, -25.660, 29.49, -0.19675, -0.31174, 0.09064, -0.92508,
 11:25:54.275,ed:40:fe:65:30:6c, 2015-01-01 00:38:41.020, 0.787, -0.06, 0.613, 1.221, -1.099, 0.488, -4.438, -51.85, -103.508, -24.547, -3.820, 0.593, 24.96, -0.53989, 0.36459, 0.23895, 0.71997,
 11:25:54.275,ed:40:fe:65:30:6c, 2015-01-01 00:38:41.020, 0.789, -0.06, 0.613, 1.099, -0.916, 0.244, -4.433, -51.872, -103.48, -24.547, -3.820, 0.593, 24.96, -0.53989, 0.36459, 0.23895, 0.71997,
 11:25:54.297,ed:35:33:d3:6c:f8, 2015-01-01 00:38:44.385, 0.608, -0.059, 0.772, 0.549, -0.793, 0.549, -3.521, -37.848, 157.621, -16.533, -5.027, -25.800, 29.49, -0.19675, -0.31174, 0.09064, -0.92508,
 11:25:54.297,ed:35:33:d3:6c:f8, 2015-01-01 00:38:44.385, 0.604, -0.051, 0.779, 0.793, 0.549, 0.061, -3.51, -37.837, 157.582, -16.533, -5.027, -25.800, 29.49, -0.19675, -0.31174, 0.09064, -0.92508,
 11:25:54.299,ed:40:fe:65:30:6c, 2015-01-01 00:38:41.020, 0.787, -0.055, 0.615, 1.16, 0.061, 0, -4.417, -51.877, -103.458, -24.373, -3.793, 1.247, 24.96, -0.53989, 0.36459, 0.23895, 0.71997,
 11:25:54.299,ed:40:fe:65:30:6c, 2015-01-01 00:38:41.020, 0.786, -0.044, 0.623, 0.427, 0, 0, -4.411, -51.877, -103.425, -24.373, -3.793, 1.247, 24.96, -0.53989, 0.36459, 0.23895, 0.71997,
 11:25:54.299,e3:ca:2d:fd:e0:8c, 2015-01-01 00:38:41.490, 0.916, -0.137, 0.417, 0.122, 0.488, 0, -17.864, -64.649, 171.766, -22.633, -3.393, -13.520, 23.67, -0.14343, -0.51779, 0.16907, -0.8262,
 11:25:54.299,e3:ca:2d:fd:e0:8c, 2015-01-01 00:38:41.490, 0.917, -0.135, 0.42, 0, 0.244, 0.061, -17.858, -64.644, 171.793, -22.633, -3.393, -13.520, 23.67, -0.14343, -0.51779, 0.16907, -0.8262,
 11:25:54.320,f6:90:cc:01:6d:25, 2015-01-01 00:38:43.705, 0.935, -0.165, 0.262, -0.305, 0.854, 0.671, -31.52, -71.966, -115.626, -28.667, -3.833, -2.133, 29.14, 0.27972, -0.59567, -0.11536, -0.74396,
 11:25:54.320,f6:90:cc:01:6d:25, 2015-01-01 00:38:43.705, 0.931, -0.167, 0.265, -0.122, 0.977, 0.488, -31.52, -71.944, -115.609, -28.667, -3.833, -2.133, 29.14, 0.27972, -0.59567, -0.11536, -0.74396,
 11:25:54.341,ed:35:33:d3:6c:f8, 2015-01-01 00:38:44.385, 0.603, -0.045, 0.787, 0.183, 2.258, -0.793, -3.494, -37.793, 157.489, -16.533, -5.027, -25.800, 29.49, -0.19675, -0.31174, 0.09064, -0.92508,
 11:25:54.341,ed:35:33:d3:6c:f8, 2015-01-01 00:38:44.385, 0.611, -0.05, 0.786, -0.244, 0.183, -0.366, -3.483, -37.766, 157.418, -16.533, -5.027, -25.800, 29.49, -0.19675, -0.31174, 0.09064, -0.92508,
 11:25:54.342,f6:90:cc:01:6d:25, 2015-01-01 00:38:44.085, 0.932, -0.166, 0.267, -0.244, 1.16, 0.244, -31.503, -71.917, -115.626, -28.667, -3.833, -2.133, 29.14, 0.27972, -0.59567, -0.11536, -0.74396,
 11:25:54.342,f6:90:cc:01:6d:25, 2015-01-01 00:38:44.085, 0.933, -0.161, 0.269, -0.488, 0.732, 0.183, -31.498, -71.906, -115.637, -28.667, -3.833, -2.133, 29.14, 0.27972, -0.59567, -0.11536, -0.74396,
 11:25:54.343,ed:40:fe:65:30:6c, 2015-01-01 00:38:41.020, 0.789, -0.049, 0.62, 0.122, 0.061, -0.061, -4.411, -51.877, -103.409, -24.373, -3.793, 1.247, 24.96, -0.53989, 0.36459, 0.23895, 0.71997,
 11:25:54.343,ed:40:fe:65:30:6c, 2015-01-01 00:38:41.020, 0.793, -0.055, 0.62, 0.122, 0.061, 0, -4.411, -51.877, -103.398, -24.373, -3.793, 1.247, 24.96, -0.53989, 0.36459, 0.23895, 0.71997,
 11:25:54.344,e3:ca:2d:fd:e0:8c, 2015-01-01 00:38:41.490, 0.919, -0.134, 0.421, -0.061, 0.183, 0.061, -17.858, -64.638, 171.843, -22.633, -3.393, -13.520, 23.67, -0.14343, -0.51779, 0.16907, -0.8262,
 11:25:54.344,e3:ca:2d:fd:e0:8c, 2015-01-01 00:38:41.490, 0.922, -0.136, 0.419, 0, 0.183, 0, -17.864, -64.633, 171.898, -22.633, -3.393, -13.520, 23.67, -0.14343, -0.51779, 0.16907, -0.8262,
 11:25:54.387,f6:90:cc:01:6d:25, 2015-01-01 00:38:44.085, 0.936, -0.158, 0.272, -0.305, 0.488, 0.305, -31.503, -71.889, -115.631, -28.667, -3.833, -2.133, 29.14, 0.27972, -0.59567, -0.11536, -0.74396,
 11:25:54.387,f6:90:cc:01:6d:25, 2015-01-01 00:38:44.085, 0.937, -0.162, 0.266, -0.061, 0.671, 0.305, -31.498, -71.873, -115.653, -28.667, -3.833, -2.133, 29.14, 0.27972, -0.59567, -0.11536, -0.74396,
 11:25:54.390,e3:ca:2d:fd:e0:8c, 2015-01-01 00:38:41.490, 0.923, -0.136, 0.419, 0, 0.427, -0.183, -17.858, -64.627, 171.969, -22.633, -3.393, -13.520, 23.67, -0.14343, -0.51779, 0.16907, -0.8262,
 11:25:54.390,e3:ca:2d:fd:e0:8c, 2015-01-01 00:38:41.490, 0.925, -0.134, 0.415, -0.183, 0.366, -0.305, -17.847, -64.616, 172.018, -22.633, -3.393, -13.520, 23.67, -0.14343, -0.51779, 0.16907, -0.8262,
 11:25:54.410,f6:90:cc:01:6d:25, 2015-01-01 00:38:44.085, 0.939, -0.165, 0.267, 0.061, 0.671, 0.183, -31.481, -71.856, -115.664, -28.667, -3.833, -2.133, 29.14, 0.27972, -0.59567, -0.11536, -0.74396,
 11:25:54.410,f6:90:cc:01:6d:25, 2015-01-01 00:38:44.085, 0.941, -0.159, 0.267, 0, 0.122, 0, -31.47, -71.845, -115.692, -28.667, -3.833, -2.133, 29.14, 0.27972, -0.59567, -0.11536, -0.74396,
 11:25:54.410,ed:35:33:d3:6c:f8, 2015-01-01 00:38:44.385, 0.611, -0.053, 0.782, 0, -0.488, 0.244, -3.483, -37.766, 157.39, -16.533, -5.027, -25.800, 29.49, -0.19455, -0.31168, 0.09149, -0.92548,
 11:25:54.410,ed:35:33:d3:6c:f8, 2015-01-01 00:38:44.385, 0.609, -0.052, 0.786, 0.305, -0.366, 0.366, -3.488, -37.776, 157.374, -16.533, -5.027, -25.800, 29.49, -0.19455, -0.31168, 0.09149, -0.92548,
 11:25:54.411,e3:ca:2d:fd:e0:8c, 2015-01-01 00:38:41.490, 0.925, -0.131, 0.415, -0.061, -0.122, -0.183, -17.836, -64.616, 172.062, -22.633, -3.393, -13.520, 23.67, -0.14343, -0.51779, 0.16907, -0.8262,
 11:25:54.411,e3:ca:2d:fd:e0:8c, 2015-01-01 00:38:41.490, 0.924, -0.134, 0.416, -0.061, -0.183, -0.244, -17.831, -64.616, 172.068, -22.633, -3.393, -13.520, 23.67, -0.14343, -0.51779, 0.16907, -0.8262,
 11:25:54.411,ed:40:fe:65:30:6c, 2015-01-01 00:38:41.020, 0.792, -0.055, 0.614, -0.183, 0.061, -0.183, -4.417, -51.877, -103.381, -24.373, -3.793, 1.247, 24.96, -0.54364, 0.36447, 0.24371, 0.71561,
 11:25:54.411,ed:40:fe:65:30:6c, 2015-01-01 00:38:41.020, 0.793, -0.054, 0.618, 0.061, 0.488, -0.488, -4.411, -51.872, -103.376, -24.373, -3.793, 1.247, 24.96, -0.54364, 0.36447, 0.24371, 0.71561,
 11:25:54.431,ed:35:33:d3:6c:f8, 2015-01-01 00:38:44.720, 0.605, -0.041, 0.799, 0.061, 0.549, -0.305, -3.488, -37.776, 157.363, -16.533, -5.027, -25.800, 29.49, -0.19455, -0.31168, 0.09149, -0.92548,
 11:25:54.431,ed:35:33:d3:6c:f8, 2015-01-01 00:38:44.720, 0.605, -0.04, 0.799, -0.366, 0.183, -1.16, -3.483, -37.766, 157.313, -16.533, -5.027, -25.800, 29.49, -0.19455, -0.31168, 0.09149, -0.92548,
 11:25:54.432,f6:90:cc:01:6d:25, 2015-01-01 00:38:44.085, 0.939, -0.16, 0.264, -0.061, -0.061, -0.061, -31.465, -71.845, -115.73, -28.667, -3.833, -2.133, 29.14, 0.27972, -0.59567, -0.11536, -0.74396,
 11:25:54.432,f6:90:cc:01:6d:25, 2015-01-01 00:38:44.085, 0.938, -0.162, 0.262, -1.099, -0.427, -0.122, -31.47, -71.845, -115.757, -28.667, -3.833, -2.133, 29.14, 0.27972, -0.59567, -0.11536, -0.74396,
 11:25:54.433,ed:40:fe:65:30:6c, 2015-01-01 00:38:41.355, 0.791, -0.045, 0.626, -0.427, 0.732, -0.671, -4.406, -51.861, -103.387, -24.373, -3.793, 1.247, 24.96, -0.54364, 0.36447, 0.24371, 0.71561,
 11:25:54.433,ed:40:fe:65:30:6c, 2015-01-01 00:38:41.355, 0.789, -0.041, 0.627, -1.404, 0.305, -0.122, -4.417, -51.85, -103.398, -24.373, -3.793, 1.247, 24.96, -0.54364, 0.36447, 0.24371, 0.71561,
 11:25:54.457,e3:ca:2d:fd:e0:8c, 2015-01-01 00:38:41.490, 0.923, -0.134, 0.413, -0.549, -0.122, -0.488, -17.825, -64.622, 172.04, -22.633, -3.393, -13.520, 23.67, -0.14343, -0.51779, 0.16907, -0.8262,
 11:25:54.457,e3:ca:2d:fd:e0:8c, 2015-01-01 00:38:41.490, 0.921, -0.135, 0.414, -0.793, -0.305, -0.61, -17.82, -64.627, 171.996, -22.633, -3.393, -13.520, 23.67, -0.14343, -0.51779, 0.16907, -0.8262,
 11:25:54.477,ed:35:33:d3:6c:f8, 2015-01-01 00:38:44.720, 0.608, -0.048, 0.792, -0.61, -1.465, -1.16, -3.472, -37.771, 157.28, -16.533, -5.027, -25.800, 29.49, -0.19455, -0.31168, 0.09149, -0.92548,
 11:25:54.477,ed:35:33:d3:6c:f8, 2015-01-01 00:38:44.720, 0.609, -0.05, 0.784, -0.916, -2.014, -0.916, -3.472, -37.798, 157.286, -16.533, -5.027, -25.800, 29.49, -0.19455, -0.31168, 0.09149, -0.92548,
 11:25:54.477,f6:90:cc:01:6d:25, 2015-01-01 00:38:44.085, 0.937, -0.161, 0.262, -1.587, -0.427, -0.122, -31.503, -71.851, -115.768, -28.667, -3.833, -2.133, 29.14, 0.27972, -0.59567, -0.11536, -0.74396,
 11:25:54.477,f6:90:cc:01:6d:25, 2015-01-01 00:38:44.085, 0.935, -0.16, 0.264, -1.282, -0.488, 0, -31.536, -71.856, -115.774, -28.667, -3.833, -2.133, 29.14, 0.27972, -0.59567, -0.11536, -0.74396,
 11:25:54.479,ed:40:fe:65:30:6c, 2015-01-01 00:38:41.355, 0.79, -0.05, 0.62, -1.587, -0.122, 0, -4.449, -51.844, -103.398, -24.373, -3.793, 1.247, 24.96, -0.54364, 0.36447, 0.24371, 0.71561,
 11:25:54.479,ed:40:fe:65:30:6c, 2015-01-01 00:38:41.355, 0.789, -0.054, 0.618, -1.648, -0.671, -0.183, -4.477, -51.855, -103.387, -24.373, -3.793, 1.247, 24.96, -0.54364, 0.36447, 0.24371, 0.71561,
 11:25:54.499,ed:35:33:d3:6c:f8, 2015-01-01 00:38:44.720, 0.61, -0.047, 0.78, -0.427, -1.221, -0.427, -3.472, -37.837, 157.33, -16.533, -5.027, -25.800, 29.49, -0.19455, -0.31168, 0.09149, -0.92548,
 11:25:54.499,ed:35:33:d3:6c:f8, 2015-01-01 00:38:44.720, 0.611, -0.041, 0.777, 0.244, -0.427, 0.427, -3.477, -37.853, 157.352, -16.533, -5.027, -25.800, 29.49, -0.19455, -0.31168, 0.09149, -0.92548,
 11:25:54.501,ed:40:fe:65:30:6c, 2015-01-01 00:38:41.355, 0.79, -0.053, 0.615, -1.282, -0.366, -0.549, -4.504, -51.861, -103.392, -24.373, -3.793, 1.247, 24.96, -0.54364, 0.36447, 0.24371, 0.71561,
 11:25:54.501,ed:40:fe:65:30:6c, 2015-01-01 00:38:41.355, 0.791, -0.05, 0.615, -0.916, -0.122, -0.61, -4.51, -51.866, -103.403, -24.373, -3.793, 1.247, 24.96, -0.54364, 0.36447, 0.24371, 0.71561,
 11:25:54.503,e3:ca:2d:fd:e0:8c, 2015-01-01 00:38:41.490, 0.92, -0.135, 0.415, -0.549, -0.366, -0.427, -17.814, -64.638, 171.964, -22.753, -3.693, -13.900, 23.67, -0.14343, -0.51779, 0.16907, -0.8262,
 11:25:54.503,e3:ca:2d:fd:e0:8c, 2015-01-01 00:38:41.490, 0.919, -0.134, 0.415, -0.183, -0.61, -0.244, -17.82, -64.649, 171.964, -22.753, -3.693, -13.900, 23.67, -0.14343, -0.51779, 0.16907, -0.8262,
 11:25:54.522,f6:90:cc:01:6d:25, 2015-01-01 00:38:44.085, 0.936, -0.16, 0.266, -0.977, -0.793, 0, -31.58, -71.867, -115.757, -28.667, -3.833, -2.133, 29.14, 0.27972, -0.59567, -0.11536, -0.74396,
 11:25:54.522,f6:90:cc:01:6d:25, 2015-01-01 00:38:44.085, 0.936, -0.16, 0.267, -0.671, -0.977, 0, -31.619, -71.878, -115.73, -28.667, -3.833, -2.133, 29.14, 0.27972, -0.59567, -0.11536, -0.74396,
 11:25:54.543,ed:35:33:d3:6c:f8, 2015-01-01 00:38:44.720, 0.612, -0.037, 0.777, 1.587, -0.366, 0.793, -3.472, -37.859, 157.368, -16.533, -5.027, -25.800, 29.49, -0.19455, -0.31168, 0.09149, -0.92548,
 11:25:54.543,ed:35:33:d3:6c:f8, 2015-01-01 00:38:44.720, 0.608, -0.046, 0.785, 2.197, -1.099, 0.122, -3.444, -37.87, 157.363, -16.533, -5.027, -25.800, 29.49, -0.19455, -0.31168, 0.09149, -0.92548,
 11:25:54.545,f6:90:cc:01:6d:25, 2015-01-01 00:38:44.085, 0.937, -0.16, 0.267, -0.854, -1.099, 0, -31.663, -71.895, -115.692, -28.620, -3.440, -2.533, 29.14, 0.27972, -0.59567, -0.11536, -0.74396,
 11:25:54.545,f6:90:cc:01:6d:25, 2015-01-01 00:38:44.085, 0.936, -0.159, 0.264, -0.977, -1.282, 0.061, -31.712, -71.911, -115.659, -28.620, -3.440, -2.533, 29.14, 0.27972, -0.59567, -0.11536, -0.74396,
 11:25:54.546,ed:40:fe:65:30:6c, 2015-01-01 00:38:41.355, 0.79, -0.045, 0.612, -0.488, 0.305, -0.305, -4.515, -51.866, -103.409, -24.373, -3.793, 1.247, 24.96, -0.54364, 0.36447, 0.24371, 0.71561,
 11:25:54.546,ed:40:fe:65:30:6c, 2015-01-01 00:38:41.355, 0.789, -0.046, 0.615, -0.061, 0.793, -0.061, -4.515, -51.855, -103.409, -24.373, -3.793, 1.247, 24.96, -0.54364, 0.36447, 0.24371, 0.71561,
 11:25:54.547,e3:ca:2d:fd:e0:8c, 2015-01-01 00:38:41.490, 0.92, -0.133, 0.416, 0, -0.793, -0.122, -17.82, -64.666, 171.98, -22.753, -3.693, -13.900, 23.67, -0.14343, -0.51779, 0.16907, -0.8262,
 11:25:54.547,e3:ca:2d:fd:e0:8c, 2015-01-01 00:38:41.490, 0.921, -0.132, 0.417, 0, -0.977, -0.122, -17.831, -64.682, 171.991, -22.753, -3.693, -13.900, 23.67, -0.14343, -0.51779, 0.16907, -0.8262,
 11:25:54.571,e3:ca:2d:fd:e0:8c, 2015-01-01 00:38:41.490, 0.921, -0.133, 0.417, -0.122, -1.16, -0.122, -17.836, -64.698, 172.007, -22.753, -3.693, -13.900, 23.67, -0.14093, -0.51804, 0.16748, -0.82681,
 11:25:54.571,e3:ca:2d:fd:e0:8c, 2015-01-01 00:38:41.490, 0.923, -0.133, 0.417, -0.244, -1.099, -0.122, -17.853, -64.72, 172.013, -22.753, -3.693, -13.900, 23.67, -0.14093, -0.51804, 0.16748, -0.82681,
 11:25:54.589,f6:90:cc:01:6d:25, 2015-01-01 00:38:44.085, 0.938, -0.16, 0.263, -0.854, -1.099, 0.061, -31.767, -71.927, -115.609, -28.620, -3.440, -2.533, 29.14, 0.27972, -0.59567, -0.11536, -0.74396,
 11:25:54.589,f6:90:cc:01:6d:25, 2015-01-01 00:38:44.085, 0.94, -0.162, 0.264, -0.916, -1.16, 0.061, -31.811, -71.944, -115.565, -28.620, -3.440, -2.533, 29.14, 0.27972, -0.59567, -0.11536, -0.74396,
 11:25:54.589,ed:35:33:d3:6c:f8, 2015-01-01 00:38:44.720, 0.609, -0.048, 0.789, 0.061, -0.305, -0.305, -3.411, -37.886, 157.352, -16.533, -5.027, -25.800, 29.49, -0.19455, -0.31168, 0.09149, -0.92548,
 11:25:54.589,ed:35:33:d3:6c:f8, 2015-01-01 00:38:44.720, 0.612, -0.05, 0.791, -0.366, -0.305, -1.221, -3.406, -37.892, 157.319, -16.533, -5.027, -25.800, 29.49, -0.19455, -0.31168, 0.09149, -0.92548,
 11:25:54.591,ed:40:fe:65:30:6c, 2015-01-01 00:38:41.355, 0.79, -0.05, 0.621, -0.549, 0.549, -0.122, -4.521, -51.844, -103.398, -24.373, -3.793, 1.247, 24.96, -0.54364, 0.36447, 0.24371, 0.71561,
 11:25:54.591,ed:40:fe:65:30:6c, 2015-01-01 00:38:41.355, 0.791, -0.052, 0.623, -1.221, 0.549, -0.244, -4.532, -51.833, -103.381, -24.373, -3.793, 1.247, 24.96, -0.54364, 0.36447, 0.24371, 0.71561,
 11:25:54.616,e3:ca:2d:fd:e0:8c, 2015-01-01 00:38:41.490, 0.924, -0.133, 0.417, -0.244, -0.977, -0.244, -17.864, -64.742, 172.013, -22.753, -3.693, -13.900, 23.67, -0.14093, -0.51804, 0.16748, -0.82681,
 11:25:54.616,e3:ca:2d:fd:e0:8c, 2015-01-01 00:38:41.490, 0.924, -0.132, 0.417, -0.427, -0.916, -0.305, -17.869, -64.759, 171.991, -22.753, -3.693, -13.900, 23.67, -0.14093, -0.51804, 0.16748, -0.82681,
 11:25:54.636,ed:40:fe:65:30:6c, 2015-01-01 00:38:41.355, 0.795, -0.056, 0.618, -1.404, 0.427, -0.488, -4.548, -51.823, -103.381, -24.373, -3.793, 1.247, 24.96, -0.54364, 0.36447, 0.24371, 0.71561,
 11:25:54.636,ed:40:fe:65:30:6c, 2015-01-01 00:38:41.355, 0.795, -0.056, 0.612, -1.16, 0.366, -0.671, -4.565, -51.817, -103.381, -24.373, -3.793, 1.247, 24.96, -0.54364, 0.36447, 0.24371, 0.71561,
 11:25:54.656,ed:35:33:d3:6c:f8, 2015-01-01 00:38:44.720, 0.618, -0.05, 0.784, -1.16, -0.977, -1.587, -3.395, -37.897, 157.264, -16.533, -5.027, -25.800, 29.49, -0.19455, -0.31168, 0.09149, -0.92548,
 11:25:54.656,ed:35:33:d3:6c:f8, 2015-01-01 00:38:44.720, 0.616, -0.047, 0.774, -0.977, -0.793, -1.16, -3.395, -37.919, 157.214, -16.533, -5.027, -25.800, 29.49, -0.19455, -0.31168, 0.09149, -0.92548,
 11:25:54.657,f6:90:cc:01:6d:25, 2015-01-01 00:38:44.085, 0.939, -0.161, 0.264, -1.099, -1.282, 0, -31.866, -71.96, -115.51, -28.620, -3.440, -2.533, 29.14, 0.27869, -0.5961, -0.11346, -0.74429,
 11:25:54.657,f6:90:cc:01:6d:25, 2015-01-01 00:38:44.085, 0.939, -0.161, 0.262, -1.16, -1.16, -0.061, -31.921, -71.977, -115.45, -28.620, -3.440, -2.533, 29.14, 0.27869, -0.5961, -0.11346, -0.74429,
 11:25:54.659,e3:ca:2d:fd:e0:8c, 2015-01-01 00:38:41.850, 0.924, -0.133, 0.413, -0.488, -1.038, -0.305, -17.88, -64.775, 171.974, -22.753, -3.693, -13.900, 23.67, -0.14093, -0.51804, 0.16748, -0.82681,
 11:25:54.659,e3:ca:2d:fd:e0:8c, 2015-01-01 00:38:41.850, 0.926, -0.135, 0.412, -0.122, -1.038, -0.244, -17.886, -64.797, 171.969, -22.753, -3.693, -13.900, 23.67, -0.14093, -0.51804, 0.16748, -0.82681,
 11:25:54.659,ed:40:fe:65:30:6c, 2015-01-01 00:38:41.355, 0.794, -0.054, 0.614, -1.099, 0.977, -0.916, -4.565, -51.806, -103.392, -24.513, -3.413, 1.193, 24.96, -0.54364, 0.36447, 0.24371, 0.71561,
 11:25:54.659,ed:40:fe:65:30:6c, 2015-01-01 00:38:41.355, 0.794, -0.054, 0.612, -0.916, 0.977, -0.916, -4.565, -51.79, -103.414, -24.513, -3.413, 1.193, 24.96, -0.54364, 0.36447, 0.24371, 0.71561,
 11:25:54.678,ed:35:33:d3:6c:f8, 2015-01-01 00:38:44.720, 0.616, -0.048, 0.778, -0.61, -0.183, -1.343, -3.395, -37.93, 157.165, -16.120, -5.240, -25.907, 29.49, -0.19455, -0.31168, 0.09149, -0.92548,
 11:25:54.678,ed:35:33:d3:6c:f8, 2015-01-01 00:38:44.720, 0.617, -0.042, 0.777, 0.977, 0.183, -1.892, -3.378, -37.936, 157.11, -16.120, -5.240, -25.907, 29.49, -0.19455, -0.31168, 0.09149, -0.92548,
 11:25:54.679,f6:90:cc:01:6d:25, 2015-01-01 00:38:44.440, 0.94, -0.162, 0.259, -0.854, -1.038, -0.244, -31.965, -71.993, -115.4, -28.620, -3.440, -2.533, 29.14, 0.27869, -0.5961, -0.11346, -0.74429,
 11:25:54.679,f6:90:cc:01:6d:25, 2015-01-01 00:38:44.440, 0.941, -0.166, 0.254, -0.427, -0.977, -0.366, -31.992, -72.01, -115.362, -28.620, -3.440, -2.533, 29.14, 0.27869, -0.5961, -0.11346, -0.74429,
 11:25:54.702,f6:90:cc:01:6d:25, 2015-01-01 00:38:44.440, 0.943, -0.167, 0.25, 0, -0.61, -0.366, -32.009, -72.026, -115.329, -28.620, -3.440, -2.533, 29.14, 0.27869, -0.5961, -0.11346, -0.74429,
 11:25:54.702,f6:90:cc:01:6d:25, 2015-01-01 00:38:44.440, 0.945, -0.163, 0.251, 0.183, -0.488, -0.366, -32.009, -72.043, -115.312, -28.620, -3.440, -2.533, 29.14, 0.27869, -0.5961, -0.11346, -0.74429,
 11:25:54.703,ed:40:fe:65:30:6c, 2015-01-01 00:38:41.355, 0.795, -0.053, 0.614, -0.366, 0.916, -0.488, -4.565, -51.779, -103.42, -24.513, -3.413, 1.193, 24.96, -0.54364, 0.36447, 0.24371, 0.71561,
 11:25:54.703,ed:40:fe:65:30:6c, 2015-01-01 00:38:41.355, 0.797, -0.051, 0.615, -0.488, 0.488, -0.183, -4.565, -51.768, -103.42, -24.513, -3.413, 1.193, 24.96, -0.54364, 0.36447, 0.24371, 0.71561,
 11:25:54.705,e3:ca:2d:fd:e0:8c, 2015-01-01 00:38:41.850, 0.93, -0.139, 0.409, 0, -0.977, -0.305, -17.886, -64.819, 171.958, -22.753, -3.693, -13.900, 23.67, -0.14093, -0.51804, 0.16748, -0.82681,
 11:25:54.705,e3:ca:2d:fd:e0:8c, 2015-01-01 00:38:41.850, 0.931, -0.138, 0.407, 0.061, -0.854, -0.366, -17.886, -64.836, 171.964, -22.753, -3.693, -13.900, 23.67, -0.14093, -0.51804, 0.16748, -0.82681,
 11:25:54.723,ed:35:33:d3:6c:f8, 2015-01-01 00:38:44.720, 0.616, -0.044, 0.783, 0.305, 0.61, -1.16, -3.334, -37.936, 157.05, -16.120, -5.240, -25.907, 29.49, -0.19455, -0.31168, 0.09149, -0.92548,
 11:25:54.723,ed:35:33:d3:6c:f8, 2015-01-01 00:38:44.720, 0.617, -0.043, 0.784, 0.122, 0.366, -1.343, -3.312, -37.925, 156.984, -16.120, -5.240, -25.907, 29.49, -0.19455, -0.31168, 0.09149, -0.92548,
 11:25:54.747,f6:90:cc:01:6d:25, 2015-01-01 00:38:44.440, 0.945, -0.161, 0.253, 0.305, -0.671, -0.183, -32.003, -72.054, -115.285, -28.620, -3.440, -2.533, 29.14, 0.27869, -0.5961, -0.11346, -0.74429,
 11:25:54.747,f6:90:cc:01:6d:25, 2015-01-01 00:38:44.440, 0.945, -0.159, 0.252, 0.244, -0.549, -0.122, -32.014, -72.065, -115.258, -28.620, -3.440, -2.533, 29.14, 0.27869, -0.5961, -0.11346, -0.74429,
 11:25:54.747,ed:35:33:d3:6c:f8, 2015-01-01 00:38:44.720, 0.622, -0.043, 0.783, 0, -0.061, -1.526, -3.29, -37.925, 156.896, -16.120, -5.240, -25.907, 29.49, -0.19809, -0.31281, 0.09161, -0.92435,
 11:25:54.747,ed:35:33:d3:6c:f8, 2015-01-01 00:38:44.720, 0.621, -0.039, 0.779, 0.183, -0.244, -1.16, -3.268, -37.93, 156.813, -16.120, -5.240, -25.907, 29.49, -0.19809, -0.31281, 0.09161, -0.92435,
 11:25:54.749,e3:ca:2d:fd:e0:8c, 2015-01-01 00:38:41.850, 0.931, -0.136, 0.408, 0.244, -0.549, -0.305, -17.886, -64.852, 171.969, -22.753, -3.693, -13.900, 23.67, -0.14093, -0.51804, 0.16748, -0.82681,
 11:25:54.749,e3:ca:2d:fd:e0:8c, 2015-01-01 00:38:41.850, 0.931, -0.134, 0.408, 0.366, -0.427, -0.183, -17.88, -64.863, 171.969, -22.753, -3.693, -13.900, 23.67, -0.14093, -0.51804, 0.16748, -0.82681,
 11:25:54.772,e3:ca:2d:fd:e0:8c, 2015-01-01 00:38:41.850, 0.929, -0.132, 0.41, 0.244, -0.244, -0.061, -17.875, -64.874, 171.964, -22.753, -3.693, -13.900, 23.67, -0.14093, -0.51804, 0.16748, -0.82681,
 11:25:54.772,e3:ca:2d:fd:e0:8c, 2015-01-01 00:38:41.850, 0.927, -0.133, 0.409, 0.183, -0.061, -0.061, -17.875, -64.874, 171.98, -22.753, -3.693, -13.900, 23.67, -0.14093, -0.51804, 0.16748, -0.82681,
 11:25:54.772,ed:40:fe:65:30:6c, 2015-01-01 00:38:41.355, 0.798, -0.051, 0.616, -0.671, 0.183, -0.183, -4.576, -51.768, -103.414, -24.513, -3.413, 1.193, 24.96, -0.5433, 0.36462, 0.24216, 0.71634,
 11:25:54.772,ed:40:fe:65:30:6c, 2015-01-01 00:38:41.355, 0.799, -0.049, 0.612, -0.671, -0.122, -0.244, -4.587, -51.773, -103.409, -24.513, -3.413, 1.193, 24.96, -0.5433, 0.36462, 0.24216, 0.71634,
 11:25:54.791,ed:35:33:d3:6c:f8, 2015-01-01 00:38:44.720, 0.619, -0.035, 0.781, 0.427, -0.183, -0.427, -3.246, -37.941, 156.731, -16.120, -5.240, -25.907, 29.49, -0.19809, -0.31281, 0.09161, -0.92435,
 11:25:54.791,ed:35:33:d3:6c:f8, 2015-01-01 00:38:44.720, 0.617, -0.034, 0.782, 0.244, 0.122, 0.244, -3.235, -37.947, 156.682, -16.120, -5.240, -25.907, 29.49, -0.19809, -0.31281, 0.09161, -0.92435,
 11:25:54.791,f6:90:cc:01:6d:25, 2015-01-01 00:38:44.440, 0.943, -0.161, 0.253, 0.122, -0.305, -0.122, -32.02, -72.076, -115.241, -28.620, -3.440, -2.533, 29.14, 0.27869, -0.5961, -0.11346, -0.74429,
 11:25:54.791,f6:90:cc:01:6d:25, 2015-01-01 00:38:44.440, 0.941, -0.161, 0.253, 0.427, 0, -0.122, -32.02, -72.081, -115.214, -28.620, -3.440, -2.533, 29.14, 0.27869, -0.5961, -0.11346, -0.74429,
 11:25:54.792,ed:40:fe:65:30:6c, 2015-01-01 00:38:41.715, 0.798, -0.049, 0.612, -0.244, -0.122, -0.122, -4.592, -51.784, -103.398, -24.513, -3.413, 1.193, 24.96, -0.5433, 0.36462, 0.24216, 0.71634,
 11:25:54.792,ed:40:fe:65:30:6c, 2015-01-01 00:38:41.715, 0.795, -0.047, 0.614, 0, -0.183, 0.244, -4.603, -51.79, -103.387, -24.513, -3.413, 1.193, 24.96, -0.5433, 0.36462, 0.24216, 0.71634,
 11:25:54.817,e3:ca:2d:fd:e0:8c, 2015-01-01 00:38:41.850, 0.926, -0.133, 0.411, 0.244, 0.061, -0.061, -17.869, -64.88, 171.98, -22.753, -3.693, -13.900, 23.67, -0.14093, -0.51804, 0.16748, -0.82681,
 11:25:54.817,e3:ca:2d:fd:e0:8c, 2015-01-01 00:38:41.850, 0.926, -0.131, 0.411, 0.366, 0.183, -0.061, -17.864, -64.88, 171.969, -22.753, -3.693, -13.900, 23.67, -0.14093, -0.51804, 0.16748, -0.82681,
 11:25:54.836,ed:35:33:d3:6c:f8, 2015-01-01 00:38:45.100, 0.615, -0.036, 0.778, 0.244, -0.244, 0.671, -3.23, -37.947, 156.632, -16.120, -5.240, -25.907, 29.49, -0.19809, -0.31281, 0.09161, -0.92435,
 11:25:54.836,ed:35:33:d3:6c:f8, 2015-01-01 00:38:45.100, 0.613, -0.037, 0.779, 0.061, -0.244, 0.366, -3.235, -37.958, 156.605, -16.120, -5.240, -25.907, 29.49, -0.19809, -0.31281, 0.09161, -0.92435,
 11:25:54.838,ed:40:fe:65:30:6c, 2015-01-01 00:38:41.715, 0.793, -0.047, 0.612, 0.305, -0.061, 0.671, -4.614, -51.795, -103.359, -24.513, -3.413, 1.193, 24.96, -0.5433, 0.36462, 0.24216, 0.71634,
 11:25:54.838,ed:40:fe:65:30:6c, 2015-01-01 00:38:41.715, 0.793, -0.047, 0.615, 0.671, 0, 0.854, -4.62, -51.801, -103.326, -24.513, -3.413, 1.193, 24.96, -0.5433, 0.36462, 0.24216, 0.71634,
 11:25:54.858,ed:35:33:d3:6c:f8, 2015-01-01 00:38:45.100, 0.618, -0.044, 0.782, -0.061, 0.122, -0.061, -3.235, -37.963, 156.577, -16.120, -5.240, -25.907, 29.49, -0.19809, -0.31281, 0.09161, -0.92435,
 11:25:54.858,ed:35:33:d3:6c:f8, 2015-01-01 00:38:45.100, 0.608, -0.046, 0.779, 0.305, 0.183, 0, -3.23, -37.963, 156.533, -16.120, -5.240, -25.907, 29.49, -0.19809, -0.31281, 0.09161, -0.92435,
 11:25:54.859,f6:90:cc:01:6d:25, 2015-01-01 00:38:44.440, 0.94, -0.16, 0.256, 0.427, 0.122, -0.061, -32.009, -72.081, -115.181, -28.620, -3.440, -2.533, 29.14, 0.27869, -0.5961, -0.11346, -0.74429,
 11:25:54.860,f6:90:cc:01:6d:25, 2015-01-01 00:38:44.440, 0.941, -0.156, 0.256, 0.549, 0.122, 0, -31.992, -72.081, -115.153, -28.620, -3.440, -2.533, 29.14, 0.27869, -0.5961, -0.11346, -0.74429,
 11:25:54.863,e3:ca:2d:fd:e0:8c, 2015-01-01 00:38:41.850, 0.926, -0.131, 0.413, 0.366, 0.366, 0, -17.853, -64.874, 171.942, -22.907, -3.313, -13.867, 23.67, -0.14093, -0.51804, 0.16748, -0.82681,
 11:25:54.863,e3:ca:2d:fd:e0:8c, 2015-01-01 00:38:41.850, 0.925, -0.129, 0.414, 0.305, 0.549, 0.183, -17.842, -64.869, 171.914, -22.907, -3.313, -13.867, 23.67, -0.14093, -0.51804, 0.16748, -0.82681,
 11:25:54.863,ed:40:fe:65:30:6c, 2015-01-01 00:38:41.715, 0.795, -0.046, 0.62, 0.671, 0.061, 0.61, -4.625, -51.806, -103.304, -24.513, -3.413, 1.193, 24.96, -0.5433, 0.36462, 0.24216, 0.71634,
 11:25:54.863,ed:40:fe:65:30:6c, 2015-01-01 00:38:41.715, 0.788, -0.055, 0.613, 0.427, 0.305, 0, -4.62, -51.801, -103.293, -24.513, -3.413, 1.193, 24.96, -0.5433, 0.36462, 0.24216, 0.71634,
 11:25:54.882,f6:90:cc:01:6d:25, 2015-01-01 00:38:44.440, 0.941, -0.154, 0.259, 0.916, 0, 0.244, -31.981, -72.081, -115.12, -28.587, -3.260, -1.847, 29.14, 0.27869, -0.5961, -0.11346, -0.74429,
 11:25:54.882,f6:90:cc:01:6d:25, 2015-01-01 00:38:44.440, 0.938, -0.158, 0.26, 0.916, 0, 0.244, -31.976, -72.081, -115.076, -28.587, -3.260, -1.847, 29.14, 0.27869, -0.5961, -0.11346, -0.74429,
 11:25:54.903,ed:35:33:d3:6c:f8, 2015-01-01 00:38:45.100, 0.609, -0.042, 0.784, 0.793, 0.183, 0, -3.219, -37.963, 156.506, -16.120, -5.240, -25.907, 29.49, -0.19809, -0.31281, 0.09161, -0.92435,
 11:25:54.903,ed:35:33:d3:6c:f8, 2015-01-01 00:38:45.100, 0.606, -0.039, 0.785, 0.732, -0.427, 0.244, -3.203, -37.963, 156.5, -16.120, -5.240, -25.907, 29.49, -0.19809, -0.31281, 0.09161, -0.92435,
 11:25:54.908,e3:ca:2d:fd:e0:8c, 2015-01-01 00:38:41.850, 0.921, -0.13, 0.414, 0.183, 0.61, 0.305, -17.842, -64.858, 171.881, -22.907, -3.313, -13.867, 23.67, -0.14188, -0.5192, 0.168, -0.82581,
 11:25:54.908,e3:ca:2d:fd:e0:8c, 2015-01-01 00:38:41.850, 0.921, -0.13, 0.412, 0, 0.427, 0.244, -17.842, -64.847, 171.865, -22.907, -3.313, -13.867, 23.67, -0.14188, -0.5192, 0.168, -0.82581,
 11:25:54.928,f6:90:cc:01:6d:25, 2015-01-01 00:38:44.440, 0.936, -0.157, 0.261, 0.61, 0.061, 0.183, -31.97, -72.076, -115.032, -28.587, -3.260, -1.847, 29.14, 0.27869, -0.5961, -0.11346, -0.74429,
 11:25:54.928,f6:90:cc:01:6d:25, 2015-01-01 00:38:44.440, 0.936, -0.16, 0.261, 0.183, 0, 0.122, -31.965, -72.076, -115.021, -28.587, -3.260, -1.847, 29.14, 0.27869, -0.5961, -0.11346, -0.74429,
 11:25:54.928,ed:40:fe:65:30:6c, 2015-01-01 00:38:41.715, 0.786, -0.051, 0.617, 0.732, 0.549, -0.183, -4.603, -51.795, -103.293, -24.513, -3.413, 1.193, 24.96, -0.5433, 0.36462, 0.24216, 0.71634,
 11:25:54.928,ed:40:fe:65:30:6c, 2015-01-01 00:38:41.715, 0.786, -0.051, 0.619, 0.61, 0.549, -0.366, -4.581, -51.79, -103.293, -24.513, -3.413, 1.193, 24.96, -0.5433, 0.36462, 0.24216, 0.71634,
 11:25:54.950,f6:90:cc:01:6d:25, 2015-01-01 00:38:44.440, 0.936, -0.162, 0.259, 0.122, 0, 0.061, -31.959, -72.076, -115.005, -28.587, -3.260, -1.847, 29.14, 0.28091, -0.59662, -0.11603, -0.74265,
 11:25:54.950,f6:90:cc:01:6d:25, 2015-01-01 00:38:44.440, 0.938, -0.161, 0.261, 0.122, -0.061, 0.183, -31.959, -72.076, -114.966, -28.587, -3.260, -1.847, 29.14, 0.28091, -0.59662, -0.11603, -0.74265,
 11:25:54.952,ed:40:fe:65:30:6c, 2015-01-01 00:38:41.715, 0.786, -0.048, 0.62, 0.793, 0.671, 0, -4.559, -51.779, -103.277, -24.513, -3.413, 1.193, 24.96, -0.5433, 0.36462, 0.24216, 0.71634,
 11:25:54.952,ed:40:fe:65:30:6c, 2015-01-01 00:38:41.715, 0.787, -0.045, 0.621, 1.099, 0.671, 0.305, -4.548, -51.768, -103.25, -24.513, -3.413, 1.193, 24.96, -0.5433, 0.36462, 0.24216, 0.71634,
 11:25:54.952,e3:ca:2d:fd:e0:8c, 2015-01-01 00:38:42.160, 0.92, -0.133, 0.413, 0, 0.305, 0.244, -17.847, -64.841, 171.854, -22.907, -3.313, -13.867, 23.67, -0.14188, -0.5192, 0.168, -0.82581,
 11:25:54.952,e3:ca:2d:fd:e0:8c, 2015-01-01 00:38:42.160, 0.921, -0.134, 0.411, 0, 0.183, 0.183, -17.853, -64.836, 171.881, -22.907, -3.313, -13.867, 23.67, -0.14188, -0.5192, 0.168, -0.82581,
 11:25:54.972,ed:35:33:d3:6c:f8, 2015-01-01 00:38:45.100, 0.608, -0.036, 0.784, 0.916, -0.916, 0.488, -3.192, -37.974, 156.495, -16.120, -5.240, -25.907, 29.49, -0.19809, -0.31281, 0.09161, -0.92435,
 11:25:54.972,ed:35:33:d3:6c:f8, 2015-01-01 00:38:45.100, 0.611, -0.036, 0.786, 0.916, -0.549, 0.488, -3.175, -37.991, 156.462, -16.120, -5.240, -25.907, 29.49, -0.19809, -0.31281, 0.09161, -0.92435,
 11:25:54.975,e3:ca:2d:fd:e0:8c, 2015-01-01 00:38:42.160, 0.922, -0.135, 0.413, 0.122, 0, 0.244, -17.858, -64.83, 171.903, -22.907, -3.313, -13.867, 23.67, -0.14188, -0.5192, 0.168, -0.82581,
 11:25:54.975,e3:ca:2d:fd:e0:8c, 2015-01-01 00:38:42.160, 0.921, -0.136, 0.415, 0.305, 0, 0.366, -17.864, -64.83, 171.931, -22.907, -3.313, -13.867, 23.67, -0.14188, -0.5192, 0.168, -0.82581,
 11:25:54.996,ed:40:fe:65:30:6c, 2015-01-01 00:38:41.715, 0.789, -0.048, 0.62, 0.977, 0.488, 0.61, -4.537, -51.757, -103.217, -24.513, -3.413, 1.193, 24.96, -0.5433, 0.36462, 0.24216, 0.71634,
 11:25:54.996,ed:40:fe:65:30:6c, 2015-01-01 00:38:41.715, 0.786, -0.051, 0.618, 0.854, 0.488, 0.732, -4.537, -51.751, -103.173, -24.513, -3.413, 1.193, 24.96, -0.5433, 0.36462, 0.24216, 0.71634,
 11:25:54.996,f6:90:cc:01:6d:25, 2015-01-01 00:38:44.440, 0.938, -0.161, 0.26, 0.61, -0.061, 0.244, -31.965, -72.076, -114.922, -28.587, -3.260, -1.847, 29.14, 0.28091, -0.59662, -0.11603, -0.74265,
 11:25:54.996,f6:90:cc:01:6d:25, 2015-01-01 00:38:44.440, 0.936, -0.163, 0.263, 0.671, -0.183, 0.305, -31.965, -72.07, -114.879, -28.587, -3.260, -1.847, 29.14, 0.28091, -0.59662, -0.11603, -0.74265,
 11:25:55.016,ed:35:33:d3:6c:f8, 2015-01-01 00:38:45.100, 0.612, -0.039, 0.785, 0.671, -0.549, 0.671, -3.164, -38.002, 156.456, -16.120, -5.240, -25.907, 29.49, -0.19809, -0.31281, 0.09161, -0.92435,
 11:25:55.016,ed:35:33:d3:6c:f8, 2015-01-01 00:38:45.100, 0.606, -0.044, 0.78, 0.488, -0.916, 0.854, -3.159, -38.013, 156.473, -16.120, -5.240, -25.907, 29.49, -0.19809, -0.31281, 0.09161, -0.92435,
 11:25:55.020,e3:ca:2d:fd:e0:8c, 2015-01-01 00:38:42.160, 0.919, -0.134, 0.415, 0.244, -0.122, 0.366, -17.875, -64.83, 171.98, -22.907, -3.313, -13.867, 23.67, -0.14188, -0.5192, 0.168, -0.82581,
 11:25:55.020,e3:ca:2d:fd:e0:8c, 2015-01-01 00:38:42.160, 0.922, -0.132, 0.414, -0.061, -0.061, 0.183, -17.886, -64.83, 172.029, -22.907, -3.313, -13.867, 23.67, -0.14188, -0.5192, 0.168, -0.82581,
 11:25:55.039,ed:35:33:d3:6c:f8, 2015-01-01 00:38:45.100, 0.613, -0.047, 0.781, 0.244, -0.671, 0.61, -3.164, -38.029, 156.484, -16.493, -5.153, -25.960, 29.49, -0.19809, -0.31281, 0.09161, -0.92435,
 11:25:55.039,ed:35:33:d3:6c:f8, 2015-01-01 00:38:45.100, 0.612, -0.044, 0.781, 0.305, -0.427, 0.305, -3.164, -38.04, 156.511, -16.493, -5.153, -25.960, 29.49, -0.19809, -0.31281, 0.09161, -0.92435,
 11:25:55.039,f6:90:cc:01:6d:25, 2015-01-01 00:38:44.775, 0.936, -0.161, 0.262, 0.183, -0.305, 0.305, -31.976, -72.07, -114.835, -28.587, -3.260, -1.847, 29.14, 0.28091, -0.59662, -0.11603, -0.74265,
 11:25:55.039,f6:90:cc:01:6d:25, 2015-01-01 00:38:44.775, 0.939, -0.16, 0.26, -0.366, -0.488, 0.305, -32.003, -72.07, -114.741, -28.587, -3.260, -1.847, 29.14, 0.28091, -0.59662, -0.11603, -0.74265,
 11:25:55.041,ed:40:fe:65:30:6c, 2015-01-01 00:38:41.715, 0.786, -0.053, 0.622, 0.549, 0.671, 0.549, -4.537, -51.735, -103.14, -24.560, -3.247, 0.827, 24.96, -0.5433, 0.36462, 0.24216, 0.71634,
 11:25:55.041,ed:40:fe:65:30:6c, 2015-01-01 00:38:41.715, 0.788, -0.052, 0.618, 0.183, 0.61, 0.122, -4.543, -51.724, -103.129, -24.560, -3.247, 0.827, 24.96, -0.5433, 0.36462, 0.24216, 0.71634,
 11:25:55.062,f6:90:cc:01:6d:25, 2015-01-01 00:38:44.775, 0.942, -0.164, 0.259, -0.183, -0.488, 0.244, -32.036, -72.076, -114.642, -28.587, -3.260, -1.847, 29.14, 0.28091, -0.59662, -0.11603, -0.74265,
 11:25:55.062,f6:90:cc:01:6d:25, 2015-01-01 00:38:44.775, 0.94, -0.164, 0.256, 0.183, -0.305, 0.122, -32.058, -72.081, -114.56, -28.587, -3.260, -1.847, 29.14, 0.28091, -0.59662, -0.11603, -0.74265,
 11:25:55.062,ed:35:33:d3:6c:f8, 2015-01-01 00:38:45.100, 0.613, -0.039, 0.789, 0.305, -0.305, 0.488, -3.164, -38.046, 156.522, -16.493, -5.153, -25.960, 29.49, -0.19809, -0.31281, 0.09161, -0.92435,
 11:25:55.062,ed:35:33:d3:6c:f8, 2015-01-01 00:38:45.100, 0.614, -0.04, 0.79, 0, -0.671, 0.488, -3.164, -38.051, 156.544, -16.493, -5.153, -25.960, 29.49, -0.19809, -0.31281, 0.09161, -0.92435,
 11:25:55.063,ed:40:fe:65:30:6c, 2015-01-01 00:38:41.715, 0.791, -0.051, 0.622, 0.427, 0.854, 0, -4.532, -51.707, -103.118, -24.560, -3.247, 0.827, 24.96, -0.5433, 0.36462, 0.24216, 0.71634,
 11:25:55.063,ed:40:fe:65:30:6c, 2015-01-01 00:38:41.715, 0.789, -0.05, 0.625, 0.305, 0.366, 0.427, -4.537, -51.702, -103.085, -24.560, -3.247, 0.827, 24.96, -0.5433, 0.36462, 0.24216, 0.71634,
 11:25:55.066,e3:ca:2d:fd:e0:8c, 2015-01-01 00:38:42.160, 0.926, -0.133, 0.412, -0.244, -0.183, 0.061, -17.897, -64.83, 172.068, -22.907, -3.313, -13.867, 23.67, -0.14188, -0.5192, 0.168, -0.82581,
 11:25:55.066,e3:ca:2d:fd:e0:8c, 2015-01-01 00:38:42.160, 0.926, -0.135, 0.414, 0, -0.366, 0.061, -17.908, -64.836, 172.117, -22.907, -3.313, -13.867, 23.67, -0.14188, -0.5192, 0.168, -0.82581,
 11:25:55.106,ed:35:33:d3:6c:f8, 2015-01-01 00:38:45.100, 0.614, -0.047, 0.785, -0.122, -1.526, 0.732, -3.175, -38.068, 156.566, -16.493, -5.153, -25.960, 29.49, -0.19809, -0.31281, 0.09161, -0.92435,
 11:25:55.106,ed:35:33:d3:6c:f8, 2015-01-01 00:38:45.100, 0.62, -0.046, 0.782, -0.183, -1.404, 0.488, -3.186, -38.095, 156.627, -16.493, -5.153, -25.960, 29.49, -0.19809, -0.31281, 0.09161, -0.92435,
 11:25:55.107,f6:90:cc:01:6d:25, 2015-01-01 00:38:44.775, 0.94, -0.162, 0.258, 0, -0.305, 0, -32.069, -72.081, -114.494, -28.587, -3.260, -1.847, 29.14, 0.28091, -0.59662, -0.11603, -0.74265,
 11:25:55.107,f6:90:cc:01:6d:25, 2015-01-01 00:38:44.775, 0.941, -0.162, 0.259, 0.061, -0.488, 0, -32.08, -72.087, -114.478, -28.587, -3.260, -1.847, 29.14, 0.28091, -0.59662, -0.11603, -0.74265,
 11:25:55.108,ed:40:fe:65:30:6c, 2015-01-01 00:38:41.715, 0.79, -0.054, 0.622, 0.305, 0.183, 0.671, -4.548, -51.696, -103.052, -24.560, -3.247, 0.827, 24.96, -0.5433, 0.36462, 0.24216, 0.71634,
 11:25:55.108,ed:40:fe:65:30:6c, 2015-01-01 00:38:41.715, 0.792, -0.054, 0.622, 0.244, 0, 0.488, -4.559, -51.691, -103.024, -24.560, -3.247, 0.827, 24.96, -0.5433, 0.36462, 0.24216, 0.71634,
 11:25:55.110,e3:ca:2d:fd:e0:8c, 2015-01-01 00:38:42.160, 0.926, -0.135, 0.412, 0.183, -0.244, 0, -17.908, -64.841, 172.139, -22.907, -3.313, -13.867, 23.67, -0.14188, -0.5192, 0.168, -0.82581,
 11:25:55.110,e3:ca:2d:fd:e0:8c, 2015-01-01 00:38:42.160, 0.926, -0.134, 0.411, 0.061, -0.305, 0, -17.913, -64.847, 172.172, -22.907, -3.313, -13.867, 23.67, -0.14188, -0.5192, 0.168, -0.82581,
 11:25:55.153,f6:90:cc:01:6d:25, 2015-01-01 00:38:44.775, 0.941, -0.162, 0.256, 0.061, -0.732, 0, -32.097, -72.098, -114.445, -28.587, -3.260, -1.847, 29.14, 0.28091, -0.59662, -0.11603, -0.74265,
 11:25:55.153,f6:90:cc:01:6d:25, 2015-01-01 00:38:44.775, 0.94, -0.163, 0.251, 0.488, -0.671, 0, -32.113, -72.109, -114.417, -28.587, -3.260, -1.847, 29.14, 0.28091, -0.59662, -0.11603, -0.74265,
 11:25:55.154,e3:ca:2d:fd:e0:8c, 2015-01-01 00:38:42.160, 0.926, -0.134, 0.411, -0.061, -0.488, 0, -17.919, -64.852, 172.194, -22.913, -3.740, -13.633, 23.67, -0.14188, -0.5192, 0.168, -0.82581,
 11:25:55.154,e3:ca:2d:fd:e0:8c, 2015-01-01 00:38:42.160, 0.926, -0.136, 0.41, 0, -0.549, 0.061, -17.93, -64.863, 172.222, -22.913, -3.740, -13.633, 23.67, -0.14188, -0.5192, 0.168, -0.82581,
 11:25:55.174,ed:35:33:d3:6c:f8, 2015-01-01 00:38:45.100, 0.62, -0.042, 0.774, 0.122, -0.61, 0.244, -3.197, -38.117, 156.703, -16.493, -5.153, -25.960, 29.49, -0.2005, -0.314, 0.09183, -0.9234,
 11:25:55.174,ed:35:33:d3:6c:f8, 2015-01-01 00:38:45.100, 0.619, -0.037, 0.771, 0.671, 0, 0.61, -3.197, -38.123, 156.736, -16.493, -5.153, -25.960, 29.49, -0.2005, -0.314, 0.09183, -0.9234,
 11:25:55.176,ed:40:fe:65:30:6c, 2015-01-01 00:38:41.715, 0.794, -0.053, 0.617, 0.244, -0.244, 0.305, -4.565, -51.696, -102.997, -24.560, -3.247, 0.827, 24.96, -0.54596, 0.36325, 0.24304, 0.71469,
 11:25:55.176,ed:40:fe:65:30:6c, 2015-01-01 00:38:41.715, 0.793, -0.052, 0.611, 1.038, -0.061, 0.61, -4.565, -51.696, -102.958, -24.560, -3.247, 0.827, 24.96, -0.54596, 0.36325, 0.24304, 0.71469,
 11:25:55.178,e3:ca:2d:fd:e0:8c, 2015-01-01 00:38:42.160, 0.925, -0.136, 0.41, 0.244, -0.427, 0.122, -17.935, -64.869, 172.233, -22.913, -3.740, -13.633, 23.67, -0.13983, -0.51968, 0.16714, -0.82605,
 11:25:55.178,e3:ca:2d:fd:e0:8c, 2015-01-01 00:38:42.160, 0.926, -0.133, 0.41, 0.488, -0.183, 0.183, -17.941, -64.874, 172.255, -22.913, -3.740, -13.633, 23.67, -0.13983, -0.51968, 0.16714, -0.82605,
 11:25:55.196,ed:35:33:d3:6c:f8, 2015-01-01 00:38:45.480, 0.617, -0.041, 0.774, 1.099, 0.061, 1.221, -3.192, -38.123, 156.758, -16.493, -5.153, -25.960, 29.49, -0.2005, -0.314, 0.09183, -0.9234,
 11:25:55.196,ed:35:33:d3:6c:f8, 2015-01-01 00:38:45.480, 0.616, -0.049, 0.779, 0.916, -0.122, 0.854, -3.186, -38.123, 156.78, -16.493, -5.153, -25.960, 29.49, -0.2005, -0.314, 0.09183, -0.9234,
 11:25:55.198,ed:40:fe:65:30:6c, 2015-01-01 00:38:42.115, 0.791, -0.049, 0.611, 1.465, -0.244, 0.916, -4.559, -51.702, -102.909, -24.560, -3.247, 0.827, 24.96, -0.54596, 0.36325, 0.24304, 0.71469,
 11:25:55.198,ed:40:fe:65:30:6c, 2015-01-01 00:38:42.115, 0.791, -0.051, 0.615, 1.16, 0, 0.671, -4.559, -51.707, -102.865, -24.560, -3.247, 0.827, 24.96, -0.54596, 0.36325, 0.24304, 0.71469,
 11:25:55.219,f6:90:cc:01:6d:25, 2015-01-01 00:38:44.775, 0.94, -0.161, 0.25, 1.038, -0.183, 0, -32.108, -72.114, -114.401, -28.587, -3.260, -1.847, 29.14, 0.28091, -0.59662, -0.11603, -0.74265,
 11:25:55.219,f6:90:cc:01:6d:25, 2015-01-01 00:38:44.775, 0.941, -0.159, 0.254, 0.854, 0, 0.122, -32.097, -72.114, -114.379, -28.587, -3.260, -1.847, 29.14, 0.28091, -0.59662, -0.11603, -0.74265,
 11:25:55.222,e3:ca:2d:fd:e0:8c, 2015-01-01 00:38:42.160, 0.927, -0.131, 0.411, 0.305, 0, 0.061, -17.941, -64.88, 172.233, -22.913, -3.740, -13.633, 23.67, -0.13983, -0.51968, 0.16714, -0.82605,
 11:25:55.222,e3:ca:2d:fd:e0:8c, 2015-01-01 00:38:42.160, 0.928, -0.133, 0.411, 0.061, 0.061, 0, -17.941, -64.88, 172.178, -22.913, -3.740, -13.633, 23.67, -0.13983, -0.51968, 0.16714, -0.82605,
 11:25:55.241,ed:35:33:d3:6c:f8, 2015-01-01 00:38:45.480, 0.62, -0.046, 0.783, 0.488, -0.244, 0, -3.181, -38.128, 156.758, -16.493, -5.153, -25.960, 29.49, -0.2005, -0.314, 0.09183, -0.9234,
 11:25:55.241,ed:35:33:d3:6c:f8, 2015-01-01 00:38:45.480, 0.618, -0.036, 0.783, 0, -0.488, -0.366, -3.17, -38.134, 156.687, -16.493, -5.153, -25.960, 29.49, -0.2005, -0.314, 0.09183, -0.9234,
 11:25:55.242,f6:90:cc:01:6d:25, 2015-01-01 00:38:44.775, 0.943, -0.16, 0.256, 0.244, 0, 0.122, -32.097, -72.114, -114.357, -28.500, -3.520, -1.647, 29.14, 0.28091, -0.59662, -0.11603, -0.74265,
 11:25:55.242,f6:90:cc:01:6d:25, 2015-01-01 00:38:44.775, 0.942, -0.162, 0.256, 0.122, 0, 0.061, -32.097, -72.114, -114.346, -28.500, -3.520, -1.647, 29.14, 0.28091, -0.59662, -0.11603, -0.74265,
 11:25:55.243,ed:40:fe:65:30:6c, 2015-01-01 00:38:42.115, 0.794, -0.053, 0.619, 0.671, 0.122, 0.061, -4.548, -51.707, -102.832, -24.560, -3.247, 0.827, 24.96, -0.54596, 0.36325, 0.24304, 0.71469,
 11:25:55.243,ed:40:fe:65:30:6c, 2015-01-01 00:38:42.115, 0.793, -0.05, 0.621, 0.305, 0.122, 0, -4.543, -51.707, -102.81, -24.560, -3.247, 0.827, 24.96, -0.54596, 0.36325, 0.24304, 0.71469,
 11:25:55.263,ed:35:33:d3:6c:f8, 2015-01-01 00:38:45.480, 0.622, -0.038, 0.778, 0.061, -0.61, 0, -3.164, -38.145, 156.621, -16.493, -5.153, -25.960, 29.49, -0.2005, -0.314, 0.09183, -0.9234,
 11:25:55.263,ed:35:33:d3:6c:f8, 2015-01-01 00:38:45.480, 0.616, -0.041, 0.774, 0.427, 0, 0.244, -3.164, -38.156, 156.583, -16.493, -5.153, -25.960, 29.49, -0.2005, -0.314, 0.09183, -0.9234,
 11:25:55.266,ed:40:fe:65:30:6c, 2015-01-01 00:38:42.115, 0.793, -0.047, 0.617, 0.244, 0.061, 0.244, -4.548, -51.707, -102.788, -24.560, -3.247, 0.827, 24.96, -0.54596, 0.36325, 0.24304, 0.71469,
 11:25:55.266,ed:40:fe:65:30:6c, 2015-01-01 00:38:42.115, 0.791, -0.05, 0.614, 0, 0.122, 0.366, -4.554, -51.707, -102.755, -24.560, -3.247, 0.827, 24.96, -0.54596, 0.36325, 0.24304, 0.71469,
 11:25:55.266,e3:ca:2d:fd:e0:8c, 2015-01-01 00:38:42.450, 0.925, -0.134, 0.413, 0, 0, 0.061, -17.946, -64.88, 172.145, -22.913, -3.740, -13.633, 23.67, -0.13983, -0.51968, 0.16714, -0.82605,
 11:25:55.266,e3:ca:2d:fd:e0:8c, 2015-01-01 00:38:42.450, 0.923, -0.133, 0.413, 0.061, 0.122, 0.061, -17.946, -64.874, 172.15, -22.913, -3.740, -13.633, 23.67, -0.13983, -0.51968, 0.16714, -0.82605,
 11:25:55.288,f6:90:cc:01:6d:25, 2015-01-01 00:38:44.775, 0.94, -0.161, 0.257, 0.305, 0.061, 0, -32.091, -72.114, -114.346, -28.500, -3.520, -1.647, 29.14, 0.28091, -0.59662, -0.11603, -0.74265,
 11:25:55.288,f6:90:cc:01:6d:25, 2015-01-01 00:38:44.775, 0.938, -0.161, 0.257, 0.366, 0.305, 0, -32.08, -72.109, -114.357, -28.500, -3.520, -1.647, 29.14, 0.28091, -0.59662, -0.11603, -0.74265,
 11:25:55.309,ed:35:33:d3:6c:f8, 2015-01-01 00:38:45.480, 0.613, -0.046, 0.776, 0.732, 0.305, 0, -3.153, -38.161, 156.55, -16.493, -5.153, -25.960, 29.49, -0.2005, -0.314, 0.09183, -0.9234,
 11:25:55.309,ed:35:33:d3:6c:f8, 2015-01-01 00:38:45.480, 0.613, -0.046, 0.777, 0.549, 0, -0.183, -3.142, -38.156, 156.517, -16.493, -5.153, -25.960, 29.49, -0.2005, -0.314, 0.09183, -0.9234,
 11:25:55.310,f6:90:cc:01:6d:25, 2015-01-01 00:38:44.775, 0.937, -0.159, 0.257, 0.183, 0.305, 0.061, -32.069, -72.103, -114.351, -28.500, -3.520, -1.647, 29.14, 0.28448, -0.59637, -0.1189, -0.74106,
 11:25:55.310,f6:90:cc:01:6d:25, 2015-01-01 00:38:44.775, 0.937, -0.162, 0.257, 0, 0.305, 0.061, -32.058, -72.098, -114.357, -28.500, -3.520, -1.647, 29.14, 0.28448, -0.59637, -0.1189, -0.74106,
 11:25:55.311,ed:40:fe:65:30:6c, 2015-01-01 00:38:42.115, 0.788, -0.052, 0.616, 0, 0.61, 0.183, -4.559, -51.702, -102.733, -24.560, -3.247, 0.827, 24.96, -0.54596, 0.36325, 0.24304, 0.71469,
 11:25:55.311,ed:40:fe:65:30:6c, 2015-01-01 00:38:42.115, 0.787, -0.057, 0.616, 0.061, 0.671, -0.122, -4.559, -51.691, -102.717, -24.560, -3.247, 0.827, 24.96, -0.54596, 0.36325, 0.24304, 0.71469,
 11:25:55.312,e3:ca:2d:fd:e0:8c, 2015-01-01 00:38:42.450, 0.922, -0.132, 0.413, 0.061, 0.305, 0.122, -17.946, -64.874, 172.156, -22.913, -3.740, -13.633, 23.67, -0.13983, -0.51968, 0.16714, -0.82605,
 11:25:55.312,e3:ca:2d:fd:e0:8c, 2015-01-01 00:38:42.450, 0.921, -0.133, 0.412, 0.061, 0.427, 0.061, -17.941, -64.863, 172.189, -22.913, -3.740, -13.633, 23.67, -0.13983, -0.51968, 0.16714, -0.82605,
 11:25:55.356,ed:40:fe:65:30:6c, 2015-01-01 00:38:42.115, 0.787, -0.054, 0.619, 0.305, 0.671, -0.183, -4.554, -51.685, -102.706, -24.560, -3.247, 0.827, 24.96, -0.54596, 0.36325, 0.24304, 0.71469,
 11:25:55.356,ed:40:fe:65:30:6c, 2015-01-01 00:38:42.115, 0.788, -0.049, 0.625, 0.061, 0.549, -0.244, -4.548, -51.674, -102.689, -24.560, -3.247, 0.827, 24.96, -0.54596, 0.36325, 0.24304, 0.71469,
 11:25:55.356,f6:90:cc:01:6d:25, 2015-01-01 00:38:44.775, 0.939, -0.162, 0.26, -0.183, 0.366, -0.061, -32.047, -72.092, -114.39, -28.500, -3.520, -1.647, 29.14, 0.28448, -0.59637, -0.1189, -0.74106,
 11:25:55.356,f6:90:cc:01:6d:25, 2015-01-01 00:38:44.775, 0.939, -0.161, 0.259, 0, 0.427, -0.061, -32.031, -72.087, -114.428, -28.500, -3.520, -1.647, 29.14, 0.28448, -0.59637, -0.1189, -0.74106,
 11:25:55.358,e3:ca:2d:fd:e0:8c, 2015-01-01 00:38:42.450, 0.923, -0.133, 0.412, 0, 0.427, 0, -17.935, -64.858, 172.222, -22.913, -3.740, -13.633, 23.67, -0.13983, -0.51968, 0.16714, -0.82605,
 11:25:55.358,e3:ca:2d:fd:e0:8c, 2015-01-01 00:38:42.450, 0.924, -0.134, 0.412, -0.061, 0.183, 0, -17.935, -64.852, 172.244, -22.913, -3.740, -13.633, 23.67, -0.13983, -0.51968, 0.16714, -0.82605,
 11:25:55.376,ed:35:33:d3:6c:f8, 2015-01-01 00:38:45.480, 0.611, -0.043, 0.781, 0.122, -0.061, -0.366, -3.126, -38.161, 156.484, -16.493, -5.153, -25.960, 29.49, -0.2005, -0.314, 0.09183, -0.9234,
 11:25:55.376,ed:35:33:d3:6c:f8, 2015-01-01 00:38:45.480, 0.613, -0.039, 0.784, -0.122, 0.244, -0.61, -3.12, -38.161, 156.467, -16.493, -5.153, -25.960, 29.49, -0.2005, -0.314, 0.09183, -0.9234,
 11:25:55.379,e3:ca:2d:fd:e0:8c, 2015-01-01 00:38:42.450, 0.924, -0.136, 0.411, 0, 0.122, 0, -17.935, -64.852, 172.277, -22.913, -3.740, -13.633, 23.67, -0.13983, -0.51968, 0.16714, -0.82605,
 11:25:55.379,e3:ca:2d:fd:e0:8c, 2015-01-01 00:38:42.450, 0.922, -0.136, 0.412, 0, 0, 0, -17.935, -64.852, 172.293, -22.913, -3.740, -13.633, 23.67, -0.13983, -0.51968, 0.16714, -0.82605,
 11:25:55.399,f6:90:cc:01:6d:25, 2015-01-01 00:38:45.135, 0.938, -0.163, 0.26, 0, 0.244, -0.061, -32.02, -72.081, -114.439, -28.500, -3.520, -1.647, 29.14, 0.28448, -0.59637, -0.1189, -0.74106,
 11:25:55.399,f6:90:cc:01:6d:25, 2015-01-01 00:38:45.135, 0.938, -0.162, 0.259, -0.061, 0.122, 0, -32.014, -72.081, -114.456, -28.500, -3.520, -1.647, 29.14, 0.28448, -0.59637, -0.1189, -0.74106,
 11:25:55.399,ed:35:33:d3:6c:f8, 2015-01-01 00:38:45.480, 0.612, -0.041, 0.784, -0.061, 0.122, -0.549, -3.115, -38.161, 156.456, -16.173, -5.373, -25.573, 29.49, -0.2005, -0.314, 0.09183, -0.9234,
 11:25:55.399,ed:35:33:d3:6c:f8, 2015-01-01 00:38:45.480, 0.612, -0.042, 0.783, 0, -0.244, -0.183, -3.109, -38.161, 156.456, -16.173, -5.373, -25.573, 29.49, -0.2005, -0.314, 0.09183, -0.9234,
 11:25:55.423,ed:40:fe:65:30:6c, 2015-01-01 00:38:42.115, 0.787, -0.051, 0.623, -0.061, 0.549, -0.183, -4.543, -51.663, -102.678, -24.560, -3.247, 0.827, 24.96, -0.54596, 0.36325, 0.24304, 0.71469,
 11:25:55.423,ed:40:fe:65:30:6c, 2015-01-01 00:38:42.115, 0.787, -0.052, 0.622, -0.061, 0.488, -0.183, -4.543, -51.658, -102.667, -24.560, -3.247, 0.827, 24.96, -0.54596, 0.36325, 0.24304, 0.71469,
 11:25:55.426,e3:ca:2d:fd:e0:8c, 2015-01-01 00:38:42.450, 0.923, -0.135, 0.412, -0.122, -0.122, 0, -17.941, -64.852, 172.326, -22.913, -3.740, -13.633, 23.67, -0.13983, -0.51968, 0.16714, -0.82605,
 11:25:55.426,e3:ca:2d:fd:e0:8c, 2015-01-01 00:38:42.450, 0.923, -0.136, 0.412, -0.183, -0.061, -0.061, -17.946, -64.852, 172.343, -22.913, -3.740, -13.633, 23.67, -0.13983, -0.51968, 0.16714, -0.82605,
 11:25:55.444,ed:35:33:d3:6c:f8, 2015-01-01 00:38:45.480, 0.615, -0.044, 0.783, -0.183, -0.549, -0.488, -3.104, -38.167, 156.473, -16.173, -5.373, -25.573, 29.49, -0.2005, -0.314, 0.09183, -0.9234,
 11:25:55.444,ed:35:33:d3:6c:f8, 2015-01-01 00:38:45.480, 0.614, -0.04, 0.781, -0.427, -0.427, -0.977, -3.098, -38.177, 156.484, -16.173, -5.373, -25.573, 29.49, -0.2005, -0.314, 0.09183, -0.9234,
 11:25:55.445,f6:90:cc:01:6d:25, 2015-01-01 00:38:45.135, 0.939, -0.162, 0.259, -0.244, 0, 0, -32.02, -72.076, -114.472, -28.500, -3.520, -1.647, 29.14, 0.28448, -0.59637, -0.1189, -0.74106,
 11:25:55.445,f6:90:cc:01:6d:25, 2015-01-01 00:38:45.135, 0.938, -0.163, 0.257, -0.305, -0.061, 0, -32.025, -72.076, -114.516, -28.500, -3.520, -1.647, 29.14, 0.28448, -0.59637, -0.1189, -0.74106,
 11:25:55.448,ed:40:fe:65:30:6c, 2015-01-01 00:38:42.115, 0.788, -0.052, 0.623, 0, 0.366, -0.305, -4.537, -51.652, -102.662, -24.673, -3.380, 1.387, 24.96, -0.54596, 0.36325, 0.24304, 0.71469,
 11:25:55.448,ed:40:fe:65:30:6c, 2015-01-01 00:38:42.115, 0.788, -0.051, 0.621, -0.183, 0.183, -0.366, -4.532, -51.647, -102.651, -24.673, -3.380, 1.387, 24.96, -0.54596, 0.36325, 0.24304, 0.71469,
 11:25:55.467,ed:35:33:d3:6c:f8, 2015-01-01 00:38:45.480, 0.614, -0.036, 0.782, -0.488, 0, -0.671, -3.093, -38.183, 156.473, -16.173, -5.373, -25.573, 29.49, -0.20114, -0.31485, 0.09164, -0.92297,
 11:25:55.467,ed:35:33:d3:6c:f8, 2015-01-01 00:38:45.480, 0.615, -0.039, 0.781, -0.305, 0.183, -0.061, -3.093, -38.183, 156.462, -16.173, -5.373, -25.573, 29.49, -0.20114, -0.31485, 0.09164, -0.92297,
 11:25:55.467,f6:90:cc:01:6d:25, 2015-01-01 00:38:45.135, 0.938, -0.162, 0.259, -0.305, 0, 0, -32.031, -72.076, -114.543, -28.500, -3.520, -1.647, 29.14, 0.28448, -0.59637, -0.1189, -0.74106,
 11:25:55.467,f6:90:cc:01:6d:25, 2015-01-01 00:38:45.135, 0.938, -0.162, 0.26, -0.366, 0, 0, -32.042, -72.076, -114.56, -28.500, -3.520, -1.647, 29.14, 0.28448, -0.59637, -0.1189, -0.74106,
 11:25:55.470,e3:ca:2d:fd:e0:8c, 2015-01-01 00:38:42.450, 0.923, -0.136, 0.413, -0.183, 0, -0.122, -17.946, -64.858, 172.354, -22.873, -3.867, -13.520, 23.67, -0.13983, -0.51968, 0.16714, -0.82605,
 11:25:55.470,e3:ca:2d:fd:e0:8c, 2015-01-01 00:38:42.450, 0.923, -0.135, 0.413, -0.061, 0, -0.183, -17.941, -64.858, 172.348, -22.873, -3.867, -13.520, 23.67, -0.13983, -0.51968, 0.16714, -0.82605,
 11:25:55.491,ed:40:fe:65:30:6c, 2015-01-01 00:38:42.115, 0.787, -0.049, 0.622, -0.305, 0.122, -0.244, -4.537, -51.647, -102.651, -24.673, -3.380, 1.387, 24.96, -0.54596, 0.36325, 0.24304, 0.71469,
 11:25:55.491,ed:40:fe:65:30:6c, 2015-01-01 00:38:42.115, 0.788, -0.049, 0.621, -0.244, 0, 0.061, -4.543, -51.647, -102.64, -24.673, -3.380, 1.387, 24.96, -0.54596, 0.36325, 0.24304, 0.71469,
 11:25:55.512,f6:90:cc:01:6d:25, 2015-01-01 00:38:45.135, 0.939, -0.162, 0.259, -0.305, 0, -0.061, -32.042, -72.076, -114.571, -28.500, -3.520, -1.647, 29.14, 0.28448, -0.59637, -0.1189, -0.74106,
 11:25:55.512,f6:90:cc:01:6d:25, 2015-01-01 00:38:45.135, 0.939, -0.162, 0.259, -0.366, 0, -0.122, -32.047, -72.076, -114.576, -28.500, -3.520, -1.647, 29.14, 0.28448, -0.59637, -0.1189, -0.74106,
 11:25:55.513,ed:40:fe:65:30:6c, 2015-01-01 00:38:42.115, 0.789, -0.052, 0.62, -0.122, 0, 0.122, -4.554, -51.647, -102.623, -24.673, -3.380, 1.387, 24.96, -0.54861, 0.36209, 0.24414, 0.71286,
 11:25:55.513,ed:40:fe:65:30:6c, 2015-01-01 00:38:42.115, 0.788, -0.055, 0.621, -0.122, 0, 0, -4.554, -51.647, -102.607, -24.673, -3.380, 1.387, 24.96, -0.54861, 0.36209, 0.24414, 0.71286,
 11:25:55.513,ed:35:33:d3:6c:f8, 2015-01-01 00:38:45.480, 0.614, -0.043, 0.78, -0.305, -0.061, 0.183, -3.098, -38.177, 156.456, -16.173, -5.373, -25.573, 29.49, -0.20114, -0.31485, 0.09164, -0.92297,
 11:25:55.513,ed:35:33:d3:6c:f8, 2015-01-01 00:38:45.480, 0.614, -0.046, 0.783, -0.427, 0, 0.122, -3.109, -38.177, 156.462, -16.173, -5.373, -25.573, 29.49, -0.20114, -0.31485, 0.09164, -0.92297,
 11:25:55.515,e3:ca:2d:fd:e0:8c, 2015-01-01 00:38:42.450, 0.924, -0.135, 0.413, -0.061, -0.122, -0.122, -17.941, -64.858, 172.31, -22.873, -3.867, -13.520, 23.67, -0.13934, -0.51965, 0.16684, -0.8262,
 11:25:55.515,e3:ca:2d:fd:e0:8c, 2015-01-01 00:38:42.450, 0.925, -0.135, 0.413, 0, -0.122, -0.183, -17.941, -64.863, 172.255, -22.873, -3.867, -13.520, 23.67, -0.13934, -0.51965, 0.16684, -0.8262,
 11:25:55.538,e3:ca:2d:fd:e0:8c, 2015-01-01 00:38:42.765, 0.925, -0.133, 0.411, -0.061, -0.183, 0, -17.941, -64.863, 172.211, -22.873, -3.867, -13.520, 23.67, -0.13934, -0.51965, 0.16684, -0.8262,
 11:25:55.538,e3:ca:2d:fd:e0:8c, 2015-01-01 00:38:42.765, 0.925, -0.132, 0.41, -0.122, -0.122, 0, -17.946, -64.869, 172.183, -22.873, -3.867, -13.520, 23.67, -0.13934, -0.51965, 0.16684, -0.8262,
 11:25:55.559,ed:40:fe:65:30:6c, 2015-01-01 00:38:42.115, 0.789, -0.051, 0.621, -0.427, -0.122, -0.122, -4.565, -51.652, -102.607, -24.673, -3.380, 1.387, 24.96, -0.54861, 0.36209, 0.24414, 0.71286,
 11:25:55.559,ed:40:fe:65:30:6c, 2015-01-01 00:38:42.115, 0.79, -0.048, 0.62, -0.366, -0.366, -0.366, -4.565, -51.658, -102.596, -24.673, -3.380, 1.387, 24.96, -0.54861, 0.36209, 0.24414, 0.71286,
 11:25:55.559,ed:35:33:d3:6c:f8, 2015-01-01 00:38:45.815, 0.618, -0.042, 0.781, -0.671, -0.122, -0.427, -3.115, -38.177, 156.462, -16.173, -5.373, -25.573, 29.49, -0.20114, -0.31485, 0.09164, -0.92297,
 11:25:55.559,ed:35:33:d3:6c:f8, 2015-01-01 00:38:45.815, 0.617, -0.038, 0.782, -0.305, 0, -0.732, -3.12, -38.183, 156.423, -16.173, -5.373, -25.573, 29.49, -0.20114, -0.31485, 0.09164, -0.92297,
 11:25:55.581,f6:90:cc:01:6d:25, 2015-01-01 00:38:45.135, 0.941, -0.16, 0.255, -0.305, 0, -0.122, -32.047, -72.076, -114.615, -28.500, -3.520, -1.647, 29.14, 0.28448, -0.59637, -0.1189, -0.74106,
 11:25:55.581,f6:90:cc:01:6d:25, 2015-01-01 00:38:45.135, 0.94, -0.157, 0.258, -0.427, -0.061, 0, -32.053, -72.076, -114.664, -28.500, -3.520, -1.647, 29.14, 0.28448, -0.59637, -0.1189, -0.74106,
 11:25:55.584,e3:ca:2d:fd:e0:8c, 2015-01-01 00:38:42.765, 0.925, -0.131, 0.411, -0.183, -0.122, 0, -17.952, -64.869, 172.172, -22.873, -3.867, -13.520, 23.67, -0.13934, -0.51965, 0.16684, -0.8262,
 11:25:55.584,e3:ca:2d:fd:e0:8c, 2015-01-01 00:38:42.765, 0.925, -0.134, 0.412, -0.122, -0.183, 0, -17.957, -64.874, 172.167, -22.873, -3.867, -13.520, 23.67, -0.13934, -0.51965, 0.16684, -0.8262,
 11:25:55.601,ed:35:33:d3:6c:f8, 2015-01-01 00:38:45.815, 0.615, -0.038, 0.78, -0.122, 0, -0.488, -3.115, -38.183, 156.396, -16.173, -5.373, -25.573, 29.49, -0.20114, -0.31485, 0.09164, -0.92297,
 11:25:55.601,ed:35:33:d3:6c:f8, 2015-01-01 00:38:45.815, 0.616, -0.04, 0.78, -0.305, -0.122, -0.488, -3.109, -38.183, 156.385, -16.173, -5.373, -25.573, 29.49, -0.20114, -0.31485, 0.09164, -0.92297,
 11:25:55.603,f6:90:cc:01:6d:25, 2015-01-01 00:38:45.135, 0.939, -0.158, 0.257, -0.366, -0.122, 0, -32.064, -72.076, -114.719, -28.287, -3.753, -2.900, 29.14, 0.28448, -0.59637, -0.1189, -0.74106,
 11:25:55.603,f6:90:cc:01:6d:25, 2015-01-01 00:38:45.135, 0.939, -0.162, 0.258, -0.244, 0, 0, -32.064, -72.076, -114.763, -28.287, -3.753, -2.900, 29.14, 0.28448, -0.59637, -0.1189, -0.74106,
 11:25:55.603,ed:40:fe:65:30:6c, 2015-01-01 00:38:42.495, 0.789, -0.048, 0.62, -0.305, -0.305, -0.427, -4.565, -51.669, -102.607, -24.673, -3.380, 1.387, 24.96, -0.54861, 0.36209, 0.24414, 0.71286,
 11:25:55.603,ed:40:fe:65:30:6c, 2015-01-01 00:38:42.495, 0.79, -0.05, 0.619, -0.488, -0.305, -0.305, -4.565, -51.674, -102.612, -24.673, -3.380, 1.387, 24.96, -0.54861, 0.36209, 0.24414, 0.71286,
 11:25:55.623,ed:35:33:d3:6c:f8, 2015-01-01 00:38:45.815, 0.621, -0.039, 0.776, -0.366, -0.549, -0.793, -3.104, -38.188, 156.385, -16.173, -5.373, -25.573, 29.49, -0.20114, -0.31485, 0.09164, -0.92297,
 11:25:55.623,ed:35:33:d3:6c:f8, 2015-01-01 00:38:45.815, 0.62, -0.038, 0.777, -0.488, -0.366, -0.671, -3.098, -38.199, 156.324, -16.173, -5.373, -25.573, 29.49, -0.20114, -0.31485, 0.09164, -0.92297,
 11:25:55.626,ed:40:fe:65:30:6c, 2015-01-01 00:38:42.495, 0.791, -0.051, 0.619, -0.671, -0.366, -0.183, -4.576, -51.68, -102.607, -24.673, -3.380, 1.387, 24.96, -0.54861, 0.36209, 0.24414, 0.71286,
 11:25:55.626,ed:40:fe:65:30:6c, 2015-01-01 00:38:42.495, 0.792, -0.05, 0.614, -0.488, -0.488, -0.122, -4.587, -51.691, -102.601, -24.673, -3.380, 1.387, 24.96, -0.54861, 0.36209, 0.24414, 0.71286,
 11:25:55.627,e3:ca:2d:fd:e0:8c, 2015-01-01 00:38:42.765, 0.923, -0.134, 0.413, -0.061, -0.183, 0, -17.963, -64.88, 172.156, -22.873, -3.867, -13.520, 23.67, -0.13934, -0.51965, 0.16684, -0.8262,
 11:25:55.627,e3:ca:2d:fd:e0:8c, 2015-01-01 00:38:42.765, 0.926, -0.134, 0.412, -0.183, -0.061, 0, -17.968, -64.88, 172.145, -22.873, -3.867, -13.520, 23.67, -0.13934, -0.51965, 0.16684, -0.8262,
 11:25:55.648,f6:90:cc:01:6d:25, 2015-01-01 00:38:45.135, 0.939, -0.162, 0.258, -0.549, 0.061, 0, -32.075, -72.076, -114.791, -28.287, -3.753, -2.900, 29.14, 0.28448, -0.59637, -0.1189, -0.74106,
 11:25:55.648,f6:90:cc:01:6d:25, 2015-01-01 00:38:45.135, 0.942, -0.16, 0.254, -0.488, 0.122, 0, -32.075, -72.076, -114.791, -28.287, -3.753, -2.900, 29.14, 0.28448, -0.59637, -0.1189, -0.74106,
 11:25:55.669,ed:35:33:d3:6c:f8, 2015-01-01 00:38:45.815, 0.619, -0.039, 0.785, -0.244, -0.122, -0.671, -3.093, -38.205, 156.248, -16.173, -5.373, -25.573, 29.49, -0.20114, -0.31485, 0.09164, -0.92297,
 11:25:55.669,ed:35:33:d3:6c:f8, 2015-01-01 00:38:45.815, 0.616, -0.04, 0.788, -0.061, -1.221, -0.671, -3.087, -38.216, 156.198, -16.173, -5.373, -25.573, 29.49, -0.20114, -0.31485, 0.09164, -0.92297,
 11:25:55.671,f6:90:cc:01:6d:25, 2015-01-01 00:38:45.135, 0.944, -0.159, 0.253, 0.427, 0.549, 0, -32.053, -72.065, -114.796, -28.287, -3.753, -2.900, 29.14, 0.2818, -0.59665, -0.11642, -0.74225,
 11:25:55.671,f6:90:cc:01:6d:25, 2015-01-01 00:38:45.135, 0.941, -0.16, 0.257, 0.366, 0.549, 0.366, -32.042, -72.054, -114.774, -28.287, -3.753, -2.900, 29.14, 0.2818, -0.59665, -0.11642, -0.74225,
 11:25:55.671,ed:40:fe:65:30:6c, 2015-01-01 00:38:42.495, 0.792, -0.048, 0.619, -0.305, -0.366, -0.183, -4.587, -51.702, -102.601, -24.673, -3.380, 1.387, 24.96, -0.54861, 0.36209, 0.24414, 0.71286,
 11:25:55.671,ed:40:fe:65:30:6c, 2015-01-01 00:38:42.495, 0.791, -0.049, 0.621, -0.061, -0.61, -0.305, -4.581, -51.718, -102.601, -24.673, -3.380, 1.387, 24.96, -0.54861, 0.36209, 0.24414, 0.71286,
 11:25:55.673,e3:ca:2d:fd:e0:8c, 2015-01-01 00:38:42.765, 0.93, -0.136, 0.41, -0.061, 0, 0, -17.974, -64.88, 172.134, -22.873, -3.867, -13.520, 23.67, -0.13934, -0.51965, 0.16684, -0.8262,
 11:25:55.673,e3:ca:2d:fd:e0:8c, 2015-01-01 00:38:42.765, 0.928, -0.133, 0.413, 0.183, 0.183, 0, -17.968, -64.88, 172.123, -22.873, -3.867, -13.520, 23.67, -0.13934, -0.51965, 0.16684, -0.8262,
 11:25:55.714,f6:90:cc:01:6d:25, 2015-01-01 00:38:45.135, 0.939, -0.162, 0.258, 0, 0.732, 0.244, -32.031, -72.043, -114.769, -28.287, -3.753, -2.900, 29.14, 0.2818, -0.59665, -0.11642, -0.74225,
 11:25:55.714,f6:90:cc:01:6d:25, 2015-01-01 00:38:45.135, 0.939, -0.161, 0.258, -0.427, 0.549, 0.122, -32.031, -72.032, -114.763, -28.287, -3.753, -2.900, 29.14, 0.2818, -0.59665, -0.11642, -0.74225,
 11:25:55.715,ed:40:fe:65:30:6c, 2015-01-01 00:38:42.495, 0.791, -0.052, 0.623, -0.244, -0.793, -0.244, -4.587, -51.735, -102.601, -24.673, -3.380, 1.387, 24.96, -0.54861, 0.36209, 0.24414, 0.71286,
 11:25:55.715,ed:40:fe:65:30:6c, 2015-01-01 00:38:42.495, 0.793, -0.052, 0.618, -0.488, -0.732, -0.305, -4.587, -51.751, -102.59, -24.673, -3.380, 1.387, 24.96, -0.54861, 0.36209, 0.24414, 0.71286,
 11:25:55.718,e3:ca:2d:fd:e0:8c, 2015-01-01 00:38:42.765, 0.925, -0.133, 0.411, 0.183, 0.427, 0, -17.963, -64.869, 172.106, -22.873, -3.867, -13.520, 23.67, -0.13934, -0.51965, 0.16684, -0.8262,
 11:25:55.718,e3:ca:2d:fd:e0:8c, 2015-01-01 00:38:42.765, 0.924, -0.133, 0.408, 0, 0.305, 0, -17.957, -64.863, 172.09, -22.873, -3.867, -13.520, 23.67, -0.13934, -0.51965, 0.16684, -0.8262,
 11:25:55.736,ed:35:33:d3:6c:f8, 2015-01-01 00:38:45.815, 0.619, -0.042, 0.782, 0.122, -2.441, -0.793, -3.076, -38.249, 156.143, -16.173, -5.373, -25.573, 29.49, -0.20114, -0.31485, 0.09164, -0.92297,
 11:25:55.736,ed:35:33:d3:6c:f8, 2015-01-01 00:38:45.815, 0.62, -0.041, 0.774, -0.122, -2.502, -0.977, -3.06, -38.298, 156.094, -16.173, -5.373, -25.573, 29.49, -0.20114, -0.31485, 0.09164, -0.92297,
 11:25:55.740,e3:ca:2d:fd:e0:8c, 2015-01-01 00:38:42.765, 0.923, -0.133, 0.411, -0.183, 0.244, 0, -17.957, -64.863, 172.073, -22.967, -3.560, -13.600, 23.67, -0.13934, -0.51965, 0.16684, -0.8262,
 11:25:55.740,e3:ca:2d:fd:e0:8c, 2015-01-01 00:38:42.765, 0.922, -0.134, 0.411, -0.122, 0.122, 0, -17.957, -64.858, 172.062, -22.967, -3.560, -13.600, 23.67, -0.13934, -0.51965, 0.16684, -0.8262,
 11:25:55.758,ed:35:33:d3:6c:f8, 2015-01-01 00:38:45.815, 0.618, -0.041, 0.771, 0, -1.526, -0.977, -3.049, -38.337, 156.055, -16.120, -5.187, -25.587, 29.49, -0.20114, -0.31485, 0.09164, -0.92297,
 11:25:55.758,ed:35:33:d3:6c:f8, 2015-01-01 00:38:45.815, 0.618, -0.037, 0.773, 0, -0.427, -0.549, -3.038, -38.359, 156.011, -16.120, -5.187, -25.587, 29.49, -0.20114, -0.31485, 0.09164, -0.92297,
 11:25:55.760,f6:90:cc:01:6d:25, 2015-01-01 00:38:45.490, 0.938, -0.162, 0.258, -0.61, 0.183, 0.061, -32.036, -72.026, -114.752, -28.287, -3.753, -2.900, 29.14, 0.2818, -0.59665, -0.11642, -0.74225,
 11:25:55.760,f6:90:cc:01:6d:25, 2015-01-01 00:38:45.490, 0.937, -0.162, 0.258, -0.244, 0.183, 0, -32.036, -72.026, -114.741, -28.287, -3.753, -2.900, 29.14, 0.2818, -0.59665, -0.11642, -0.74225,
 11:25:55.761,ed:40:fe:65:30:6c, 2015-01-01 00:38:42.495, 0.791, -0.052, 0.615, -0.549, -0.61, -0.305, -4.592, -51.762, -102.59, -24.673, -3.380, 1.387, 24.96, -0.54861, 0.36209, 0.24414, 0.71286,
 11:25:55.761,ed:40:fe:65:30:6c, 2015-01-01 00:38:42.495, 0.789, -0.052, 0.614, -0.244, -0.366, -0.366, -4.592, -51.773, -102.585, -24.673, -3.380, 1.387, 24.96, -0.54861, 0.36209, 0.24414, 0.71286,
 11:25:55.786,e3:ca:2d:fd:e0:8c, 2015-01-01 00:38:42.765, 0.922, -0.133, 0.413, 0, 0.061, 0, -17.957, -64.858, 172.051, -22.967, -3.560, -13.600, 23.67, -0.13934, -0.51965, 0.16684, -0.8262,
 11:25:55.786,e3:ca:2d:fd:e0:8c, 2015-01-01 00:38:42.765, 0.923, -0.135, 0.414, 0.061, 0.122, 0, -17.957, -64.858, 172.035, -22.967, -3.560, -13.600, 23.67, -0.13934, -0.51965, 0.16684, -0.8262,
 11:25:55.804,f6:90:cc:01:6d:25, 2015-01-01 00:38:45.490, 0.938, -0.162, 0.26, 0, 0.366, 0, -32.025, -72.021, -114.736, -28.287, -3.753, -2.900, 29.14, 0.2818, -0.59665, -0.11642, -0.74225,
 11:25:55.804,f6:90:cc:01:6d:25, 2015-01-01 00:38:45.490, 0.938, -0.162, 0.262, -0.244, 0.427, 0, -32.014, -72.01, -114.736, -28.287, -3.753, -2.900, 29.14, 0.2818, -0.59665, -0.11642, -0.74225,
 11:25:55.804,ed:35:33:d3:6c:f8, 2015-01-01 00:38:45.815, 0.617, -0.038, 0.775, -0.244, 0, -0.244, -3.032, -38.364, 155.956, -16.120, -5.187, -25.587, 29.49, -0.20114, -0.31485, 0.09164, -0.92297,
 11:25:55.804,ed:35:33:d3:6c:f8, 2015-01-01 00:38:45.815, 0.618, -0.042, 0.777, -0.732, -0.244, -0.366, -3.032, -38.37, 155.912, -16.120, -5.187, -25.587, 29.49, -0.20114, -0.31485, 0.09164, -0.92297,
 11:25:55.826,ed:35:33:d3:6c:f8, 2015-01-01 00:38:45.815, 0.618, -0.04, 0.778, -0.854, -0.549, -0.61, -3.043, -38.375, 155.869, -16.120, -5.187, -25.587, 29.49, -0.20557, -0.31604, 0.09305, -0.92148,
 11:25:55.826,ed:35:33:d3:6c:f8, 2015-01-01 00:38:45.815, 0.62, -0.036, 0.779, -0.183, -0.671, -0.671, -3.043, -38.392, 155.836, -16.120, -5.187, -25.587, 29.49, -0.20557, -0.31604, 0.09305, -0.92148,
 11:25:55.827,f6:90:cc:01:6d:25, 2015-01-01 00:38:45.490, 0.939, -0.163, 0.261, -0.366, 0.305, 0.061, -32.014, -72.004, -114.725, -28.287, -3.753, -2.900, 29.14, 0.2818, -0.59665, -0.11642, -0.74225,
 11:25:55.827,f6:90:cc:01:6d:25, 2015-01-01 00:38:45.490, 0.939, -0.164, 0.261, -0.244, 0.183, 0.122, -32.02, -71.999, -114.708, -28.287, -3.753, -2.900, 29.14, 0.2818, -0.59665, -0.11642, -0.74225,
 11:25:55.828,ed:40:fe:65:30:6c, 2015-01-01 00:38:42.495, 0.79, -0.05, 0.616, -0.061, -0.244, -0.122, -4.592, -51.779, -102.568, -24.700, -3.140, 0.887, 24.96, -0.54861, 0.36209, 0.24414, 0.71286,
 11:25:55.828,ed:40:fe:65:30:6c, 2015-01-01 00:38:42.495, 0.79, -0.05, 0.617, -0.122, -0.061, -0.061, -4.592, -51.779, -102.552, -24.700, -3.140, 0.887, 24.96, -0.54861, 0.36209, 0.24414, 0.71286,
 11:25:55.829,e3:ca:2d:fd:e0:8c, 2015-01-01 00:38:42.765, 0.924, -0.135, 0.414, -0.061, 0.183, 0, -17.957, -64.858, 172.024, -22.967, -3.560, -13.600, 23.67, -0.14133, -0.51926, 0.16815, -0.82584,
 11:25:55.829,e3:ca:2d:fd:e0:8c, 2015-01-01 00:38:42.765, 0.925, -0.136, 0.414, -0.061, 0.122, 0, -17.957, -64.852, 172.013, -22.967, -3.560, -13.600, 23.67, -0.14133, -0.51926, 0.16815, -0.82584,
 11:25:55.851,ed:40:fe:65:30:6c, 2015-01-01 00:38:42.495, 0.792, -0.052, 0.618, -0.366, -0.061, -0.061, -4.603, -51.784, -102.546, -24.700, -3.140, 0.887, 24.96, -0.54865, 0.36301, 0.24475, 0.71219,
 11:25:55.851,ed:40:fe:65:30:6c, 2015-01-01 00:38:42.495, 0.791, -0.053, 0.62, -0.183, 0, -0.061, -4.609, -51.784, -102.535, -24.700, -3.140, 0.887, 24.96, -0.54865, 0.36301, 0.24475, 0.71219,
 11:25:55.872,f6:90:cc:01:6d:25, 2015-01-01 00:38:45.490, 0.938, -0.164, 0.261, -0.183, 0.061, 0.061, -32.025, -71.999, -114.692, -28.287, -3.753, -2.900, 29.14, 0.2818, -0.59665, -0.11642, -0.74225,
 11:25:55.872,f6:90:cc:01:6d:25, 2015-01-01 00:38:45.490, 0.938, -0.16, 0.26, -0.183, 0.061, 0, -32.031, -71.999, -114.675, -28.287, -3.753, -2.900, 29.14, 0.2818, -0.59665, -0.11642, -0.74225,
 11:25:55.872,ed:35:33:d3:6c:f8, 2015-01-01 00:38:45.815, 0.62, -0.041, 0.778, -0.183, -0.305, 0.122, -3.038, -38.403, 155.83, -16.120, -5.187, -25.587, 29.49, -0.20557, -0.31604, 0.09305, -0.92148,
 11:25:55.872,ed:35:33:d3:6c:f8, 2015-01-01 00:38:45.815, 0.616, -0.04, 0.775, -0.305, 0, 0.183, -3.043, -38.403, 155.869, -16.120, -5.187, -25.587, 29.49, -0.20557, -0.31604, 0.09305, -0.92148,
 11:25:55.874,e3:ca:2d:fd:e0:8c, 2015-01-01 00:38:43.075, 0.924, -0.135, 0.413, 0, 0.122, 0, -17.957, -64.852, 172.002, -22.967, -3.560, -13.600, 23.67, -0.14133, -0.51926, 0.16815, -0.82584,
 11:25:55.874,e3:ca:2d:fd:e0:8c, 2015-01-01 00:38:43.075, 0.922, -0.134, 0.413, 0, 0.122, 0, -17.957, -64.847, 171.985, -22.967, -3.560, -13.600, 23.67, -0.14133, -0.51926, 0.16815, -0.82584,
 11:25:55.916,ed:35:33:d3:6c:f8, 2015-01-01 00:38:46.170, 0.621, -0.041, 0.776, -0.183, -0.122, -0.061, -3.049, -38.408, 155.951, -16.120, -5.187, -25.587, 29.49, -0.20557, -0.31604, 0.09305, -0.92148,
 11:25:55.916,ed:35:33:d3:6c:f8, 2015-01-01 00:38:46.170, 0.62, -0.04, 0.775, -0.183, 0, -0.122, -3.049, -38.408, 156.044, -16.120, -5.187, -25.587, 29.49, -0.20557, -0.31604, 0.09305, -0.92148,
 11:25:55.918,ed:40:fe:65:30:6c, 2015-01-01 00:38:42.495, 0.79, -0.052, 0.62, 0.061, 0.122, 0, -4.609, -51.784, -102.519, -24.700, -3.140, 0.887, 24.96, -0.54865, 0.36301, 0.24475, 0.71219,
 11:25:55.918,ed:40:fe:65:30:6c, 2015-01-01 00:38:42.495, 0.791, -0.053, 0.618, 0.122, 0, 0.122, -4.609, -51.784, -102.508, -24.700, -3.140, 0.887, 24.96, -0.54865, 0.36301, 0.24475, 0.71219,
 11:25:55.918,f6:90:cc:01:6d:25, 2015-01-01 00:38:45.490, 0.939, -0.16, 0.257, 0.061, 0, 0, -32.031, -71.999, -114.659, -28.287, -3.753, -2.900, 29.14, 0.2818, -0.59665, -0.11642, -0.74225,
 11:25:55.918,f6:90:cc:01:6d:25, 2015-01-01 00:38:45.490, 0.941, -0.161, 0.258, 0, 0, 0, -32.025, -71.993, -114.642, -28.287, -3.753, -2.900, 29.14, 0.2818, -0.59665, -0.11642, -0.74225,
 11:25:55.920,e3:ca:2d:fd:e0:8c, 2015-01-01 00:38:43.075, 0.924, -0.133, 0.411, -0.061, 0, 0, -17.957, -64.847, 171.98, -22.967, -3.560, -13.600, 23.67, -0.14133, -0.51926, 0.16815, -0.82584,
 11:25:55.920,e3:ca:2d:fd:e0:8c, 2015-01-01 00:38:43.075, 0.924, -0.133, 0.412, 0, -0.061, 0, -17.963, -64.847, 171.969, -22.967, -3.560, -13.600, 23.67, -0.14133, -0.51926, 0.16815, -0.82584,
 11:25:55.940,ed:40:fe:65:30:6c, 2015-01-01 00:38:42.830, 0.79, -0.051, 0.618, 0.061, 0.244, 0.122, -4.614, -51.779, -102.48, -24.700, -3.140, 0.887, 24.96, -0.54865, 0.36301, 0.24475, 0.71219,
 11:25:55.940,ed:40:fe:65:30:6c, 2015-01-01 00:38:42.830, 0.792, -0.051, 0.617, 0.122, 0.244, 0, -4.614, -51.779, -102.458, -24.700, -3.140, 0.887, 24.96, -0.54865, 0.36301, 0.24475, 0.71219,
 11:25:55.942,e3:ca:2d:fd:e0:8c, 2015-01-01 00:38:43.075, 0.926, -0.133, 0.411, 0, 0, 0, -17.963, -64.847, 171.958, -22.967, -3.560, -13.600, 23.67, -0.14133, -0.51926, 0.16815, -0.82584,
 11:25:55.942,e3:ca:2d:fd:e0:8c, 2015-01-01 00:38:43.075, 0.926, -0.133, 0.412, -0.061, 0, 0, -17.963, -64.847, 171.953, -22.967, -3.560, -13.600, 23.67, -0.14133, -0.51926, 0.16815, -0.82584,
 11:25:55.962,ed:35:33:d3:6c:f8, 2015-01-01 00:38:46.170, 0.621, -0.042, 0.778, -0.244, 0.244, -0.305, -3.049, -38.408, 156.072, -16.120, -5.187, -25.587, 29.49, -0.20557, -0.31604, 0.09305, -0.92148,
 11:25:55.962,ed:35:33:d3:6c:f8, 2015-01-01 00:38:46.170, 0.62, -0.04, 0.779, -0.366, 0.549, -0.366, -3.049, -38.403, 156.077, -16.120, -5.187, -25.587, 29.49, -0.20557, -0.31604, 0.09305, -0.92148,
 11:25:55.963,ed:40:fe:65:30:6c, 2015-01-01 00:38:42.830, 0.792, -0.052, 0.619, -0.122, 0.244, -0.183, -4.609, -51.773, -102.448, -24.700, -3.140, 0.887, 24.96, -0.54865, 0.36301, 0.24475, 0.71219,
 11:25:55.963,ed:40:fe:65:30:6c, 2015-01-01 00:38:42.830, 0.791, -0.052, 0.621, -0.183, 0.183, -0.122, -4.609, -51.768, -102.442, -24.700, -3.140, 0.887, 24.96, -0.54865, 0.36301, 0.24475, 0.71219,
 11:25:55.985,f6:90:cc:01:6d:25, 2015-01-01 00:38:45.490, 0.941, -0.162, 0.259, -0.061, 0, 0, -32.025, -71.993, -114.631, -28.587, -3.447, -2.127, 29.14, 0.2818, -0.59665, -0.11642, -0.74225,
 11:25:55.985,f6:90:cc:01:6d:25, 2015-01-01 00:38:45.490, 0.939, -0.163, 0.26, -0.244, -0.122, -0.061, -32.025, -71.993, -114.615, -28.587, -3.447, -2.127, 29.14, 0.2818, -0.59665, -0.11642, -0.74225,
 11:25:55.989,e3:ca:2d:fd:e0:8c, 2015-01-01 00:38:43.075, 0.924, -0.135, 0.412, -0.061, 0, 0, -17.963, -64.852, 171.942, -22.967, -3.560, -13.600, 23.67, -0.14133, -0.51926, 0.16815, -0.82584,
 11:25:55.989,e3:ca:2d:fd:e0:8c, 2015-01-01 00:38:43.075, 0.924, -0.135, 0.411, -0.061, 0, 0, -17.968, -64.852, 171.931, -22.967, -3.560, -13.600, 23.67, -0.14133, -0.51926, 0.16815, -0.82584,
 11:25:56.005,ed:35:33:d3:6c:f8, 2015-01-01 00:38:46.170, 0.619, -0.038, 0.778, -0.061, 0.488, 0, -3.049, -38.392, 156.116, -16.120, -5.187, -25.587, 29.49, -0.20557, -0.31604, 0.09305, -0.92148,
 11:25:56.005,ed:35:33:d3:6c:f8, 2015-01-01 00:38:46.170, 0.619, -0.035, 0.776, 0.244, 0.061, 0.549, -3.049, -38.386, 156.182, -16.120, -5.187, -25.587, 29.49, -0.20557, -0.31604, 0.09305, -0.92148,
 11:25:56.006,f6:90:cc:01:6d:25, 2015-01-01 00:38:45.490, 0.939, -0.164, 0.258, -0.427, -0.305, -0.061, -32.036, -71.999, -114.598, -28.587, -3.447, -2.127, 29.14, 0.28357, -0.59601, -0.11734, -0.74194,
 11:25:56.006,f6:90:cc:01:6d:25, 2015-01-01 00:38:45.490, 0.939, -0.162, 0.258, -0.244, -0.183, 0, -32.047, -72.004, -114.576, -28.587, -3.447, -2.127, 29.14, 0.28357, -0.59601, -0.11734, -0.74194,
 11:25:56.007,ed:40:fe:65:30:6c, 2015-01-01 00:38:42.830, 0.791, -0.051, 0.618, 0.244, 0.244, 0, -4.609, -51.768, -102.442, -24.700, -3.140, 0.887, 24.96, -0.54865, 0.36301, 0.24475, 0.71219,
 11:25:56.007,ed:40:fe:65:30:6c, 2015-01-01 00:38:42.830, 0.792, -0.048, 0.617, 0.549, 0.183, 0.244, -4.609, -51.762, -102.442, -24.700, -3.140, 0.887, 24.96, -0.54865, 0.36301, 0.24475, 0.71219,
 11:25:56.032,ed:40:fe:65:30:6c, 2015-01-01 00:38:42.830, 0.791, -0.05, 0.617, 0.427, 0.305, 0.427, -4.603, -51.762, -102.431, -24.700, -3.140, 0.887, 24.96, -0.54865, 0.36301, 0.24475, 0.71219,
 11:25:56.032,ed:40:fe:65:30:6c, 2015-01-01 00:38:42.830, 0.79, -0.054, 0.613, 0.549, 0.732, 0.366, -4.609, -51.757, -102.409, -24.700, -3.140, 0.887, 24.96, -0.54865, 0.36301, 0.24475, 0.71219,
 11:25:56.034,e3:ca:2d:fd:e0:8c, 2015-01-01 00:38:43.075, 0.923, -0.135, 0.411, 0, -0.122, 0, -17.968, -64.852, 171.925, -22.967, -3.560, -13.600, 23.67, -0.14133, -0.51926, 0.16815, -0.82584,
 11:25:56.034,e3:ca:2d:fd:e0:8c, 2015-01-01 00:38:43.075, 0.924, -0.134, 0.412, 0.122, -0.122, 0, -17.968, -64.858, 171.914, -22.967, -3.560, -13.600, 23.67, -0.14133, -0.51926, 0.16815, -0.82584,
 11:25:56.050,ed:35:33:d3:6c:f8, 2015-01-01 00:38:46.170, 0.621, -0.037, 0.777, 0.122, 0, 0.61, -3.054, -38.386, 156.231, -16.120, -5.187, -25.587, 29.49, -0.20557, -0.31604, 0.09305, -0.92148,
 11:25:56.050,ed:35:33:d3:6c:f8, 2015-01-01 00:38:46.170, 0.624, -0.042, 0.773, 0.244, 0.305, 0.549, -3.054, -38.386, 156.253, -16.120, -5.187, -25.587, 29.49, -0.20557, -0.31604, 0.09305, -0.92148,
 11:25:56.053,f6:90:cc:01:6d:25, 2015-01-01 00:38:45.490, 0.939, -0.162, 0.259, -0.061, -0.122, 0, -32.058, -72.004, -114.554, -28.587, -3.447, -2.127, 29.14, 0.28357, -0.59601, -0.11734, -0.74194,
 11:25:56.053,f6:90:cc:01:6d:25, 2015-01-01 00:38:45.490, 0.937, -0.162, 0.259, 0, -0.061, 0, -32.064, -72.004, -114.538, -28.587, -3.447, -2.127, 29.14, 0.28357, -0.59601, -0.11734, -0.74194,
 11:25:56.075,f6:90:cc:01:6d:25, 2015-01-01 00:38:45.830, 0.936, -0.159, 0.26, -0.427, -0.183, 0, -32.064, -72.01, -114.521, -28.587, -3.447, -2.127, 29.14, 0.28357, -0.59601, -0.11734, -0.74194,
 11:25:56.075,f6:90:cc:01:6d:25, 2015-01-01 00:38:45.830, 0.938, -0.16, 0.261, -0.61, -0.122, 0.061, -32.08, -72.01, -114.5, -28.587, -3.447, -2.127, 29.14, 0.28357, -0.59601, -0.11734, -0.74194,
 11:25:56.076,ed:40:fe:65:30:6c, 2015-01-01 00:38:42.830, 0.786, -0.049, 0.613, 1.587, 1.465, 0.061, -4.598, -51.74, -102.393, -24.700, -3.140, 0.887, 24.96, -0.54865, 0.36301, 0.24475, 0.71219,
 11:25:56.076,ed:40:fe:65:30:6c, 2015-01-01 00:38:42.830, 0.789, -0.046, 0.621, 1.099, 1.16, 0, -4.57, -51.713, -102.376, -24.700, -3.140, 0.887, 24.96, -0.54865, 0.36301, 0.24475, 0.71219,
 11:25:56.077,e3:ca:2d:fd:e0:8c, 2015-01-01 00:38:43.075, 0.922, -0.135, 0.413, 0.122, -0.061, 0, -17.968, -64.858, 171.909, -22.900, -3.227, -13.940, 23.67, -0.14133, -0.51926, 0.16815, -0.82584,
 11:25:56.077,e3:ca:2d:fd:e0:8c, 2015-01-01 00:38:43.075, 0.921, -0.132, 0.414, 0, 0, 0, -17.968, -64.858, 171.898, -22.900, -3.227, -13.940, 23.67, -0.14133, -0.51926, 0.16815, -0.82584,
 11:25:56.096,ed:35:33:d3:6c:f8, 2015-01-01 00:38:46.170, 0.616, -0.043, 0.771, 0.366, -0.305, 0.916, -3.06, -38.386, 156.264, -16.120, -5.187, -25.587, 29.49, -0.20557, -0.31604, 0.09305, -0.92148,
 11:25:56.096,ed:35:33:d3:6c:f8, 2015-01-01 00:38:46.170, 0.616, -0.038, 0.776, 0.305, 0.122, 0.671, -3.065, -38.392, 156.231, -16.120, -5.187, -25.587, 29.49, -0.20557, -0.31604, 0.09305, -0.92148,
 11:25:56.120,ed:35:33:d3:6c:f8, 2015-01-01 00:38:46.170, 0.619, -0.037, 0.778, -0.122, 0.488, 0, -3.065, -38.386, 156.198, -16.207, -5.273, -25.893, 29.49, -0.20557, -0.31604, 0.09305, -0.92148,
 11:25:56.120,ed:35:33:d3:6c:f8, 2015-01-01 00:38:46.170, 0.62, -0.03, 0.776, -0.244, 0.793, 0.244, -3.071, -38.375, 156.171, -16.207, -5.273, -25.893, 29.49, -0.20557, -0.31604, 0.09305, -0.92148,
 11:25:56.120,ed:40:fe:65:30:6c, 2015-01-01 00:38:42.830, 0.79, -0.048, 0.62, 0.732, 1.16, 0.183, -4.548, -51.691, -102.371, -24.700, -3.140, 0.887, 24.96, -0.54865, 0.36301, 0.24475, 0.71219,
 11:25:56.120,ed:40:fe:65:30:6c, 2015-01-01 00:38:42.830, 0.789, -0.048, 0.621, 0.854, 1.282, 0.732, -4.543, -51.669, -102.36, -24.700, -3.140, 0.887, 24.96, -0.54865, 0.36301, 0.24475, 0.71219,
 11:25:56.121,f6:90:cc:01:6d:25, 2015-01-01 00:38:45.830, 0.94, -0.163, 0.262, -0.488, -0.122, 0.122, -32.097, -72.01, -114.478, -28.587, -3.447, -2.127, 29.14, 0.28357, -0.59601, -0.11734, -0.74194,
 11:25:56.121,f6:90:cc:01:6d:25, 2015-01-01 00:38:45.830, 0.94, -0.164, 0.262, -0.244, -0.183, 0, -32.113, -72.01, -114.45, -28.587, -3.447, -2.127, 29.14, 0.28357, -0.59601, -0.11734, -0.74194,
 11:25:56.122,e3:ca:2d:fd:e0:8c, 2015-01-01 00:38:43.075, 0.921, -0.131, 0.414, -0.305, 0, 0, -17.979, -64.858, 171.892, -22.900, -3.227, -13.940, 23.67, -0.14249, -0.51901, 0.16898, -0.82562,
 11:25:56.122,e3:ca:2d:fd:e0:8c, 2015-01-01 00:38:43.075, 0.924, -0.134, 0.414, -0.183, -0.061, 0, -17.979, -64.858, 171.881, -22.900, -3.227, -13.940, 23.67, -0.14249, -0.51901, 0.16898, -0.82562,
 11:25:56.145,e3:ca:2d:fd:e0:8c, 2015-01-01 00:38:43.365, 0.925, -0.136, 0.414, -0.061, -0.244, 0, -17.985, -64.863, 171.876, -22.900, -3.227, -13.940, 23.67, -0.14249, -0.51901, 0.16898, -0.82562,
 11:25:56.145,e3:ca:2d:fd:e0:8c, 2015-01-01 00:38:43.365, 0.924, -0.134, 0.414, 0, -0.305, 0, -17.99, -64.869, 171.876, -22.900, -3.227, -13.940, 23.67, -0.14249, -0.51901, 0.16898, -0.82562,
 11:25:56.163,ed:35:33:d3:6c:f8, 2015-01-01 00:38:46.170, 0.616, -0.04, 0.776, 0.122, 0.854, 1.221, -3.076, -38.359, 156.187, -16.207, -5.273, -25.893, 29.49, -0.20557, -0.31604, 0.09305, -0.92148,
 11:25:56.163,ed:35:33:d3:6c:f8, 2015-01-01 00:38:46.170, 0.618, -0.043, 0.775, 0.427, 0.671, 1.648, -3.093, -38.348, 156.242, -16.207, -5.273, -25.893, 29.49, -0.20557, -0.31604, 0.09305, -0.92148,
 11:25:56.165,f6:90:cc:01:6d:25, 2015-01-01 00:38:45.830, 0.938, -0.161, 0.259, -0.122, 0, 0.122, -32.119, -72.01, -114.434, -28.587, -3.447, -2.127, 29.14, 0.28357, -0.59601, -0.11734, -0.74194,
 11:25:56.165,f6:90:cc:01:6d:25, 2015-01-01 00:38:45.830, 0.938, -0.159, 0.256, -0.122, 0, 0.244, -32.124, -72.01, -114.412, -28.587, -3.447, -2.127, 29.14, 0.28357, -0.59601, -0.11734, -0.74194,
 11:25:56.186,ed:35:33:d3:6c:f8, 2015-01-01 00:38:46.170, 0.621, -0.041, 0.78, 0.793, 0.793, 1.221, -3.098, -38.331, 156.275, -16.207, -5.273, -25.893, 29.49, -0.20297, -0.31601, 0.0925, -0.92209,
 11:25:56.186,ed:35:33:d3:6c:f8, 2015-01-01 00:38:46.170, 0.621, -0.04, 0.777, 1.099, 0.793, 1.099, -3.093, -38.315, 156.286, -16.207, -5.273, -25.893, 29.49, -0.20297, -0.31601, 0.0925, -0.92209,
 11:25:56.189,ed:40:fe:65:30:6c, 2015-01-01 00:38:42.830, 0.787, -0.052, 0.617, 1.404, 1.648, 0.671, -4.537, -51.647, -102.349, -24.807, -3.620, 1.080, 24.96, -0.54865, 0.36301, 0.24475, 0.71219,
 11:25:56.189,ed:40:fe:65:30:6c, 2015-01-01 00:38:42.830, 0.788, -0.05, 0.619, 1.648, 1.404, 0.366, -4.521, -51.614, -102.338, -24.807, -3.620, 1.080, 24.96, -0.54865, 0.36301, 0.24475, 0.71219,
 11:25:56.189,e3:ca:2d:fd:e0:8c, 2015-01-01 00:38:43.365, 0.924, -0.133, 0.411, -0.183, -0.122, 0, -17.996, -64.869, 171.87, -22.900, -3.227, -13.940, 23.67, -0.14249, -0.51901, 0.16898, -0.82562,
 11:25:56.189,e3:ca:2d:fd:e0:8c, 2015-01-01 00:38:43.365, 0.927, -0.135, 0.408, -0.183, -0.122, 0, -18.001, -64.874, 171.859, -22.900, -3.227, -13.940, 23.67, -0.14249, -0.51901, 0.16898, -0.82562,
 11:25:56.209,f6:90:cc:01:6d:25, 2015-01-01 00:38:45.830, 0.941, -0.161, 0.255, 0.122, 0.122, 0.366, -32.135, -72.004, -114.384, -28.587, -3.447, -2.127, 29.14, 0.28357, -0.59601, -0.11734, -0.74194,
 11:25:56.209,f6:90:cc:01:6d:25, 2015-01-01 00:38:45.830, 0.942, -0.163, 0.255, 0.244, 0.122, 0.427, -32.146, -71.999, -114.351, -28.587, -3.447, -2.127, 29.14, 0.28357, -0.59601, -0.11734, -0.74194,
 11:25:56.210,ed:40:fe:65:30:6c, 2015-01-01 00:38:42.830, 0.792, -0.048, 0.622, 1.648, 1.404, 0.183, -4.493, -51.586, -102.327, -24.807, -3.620, 1.080, 24.96, -0.5509, 0.36075, 0.24515, 0.71146,
 11:25:56.210,ed:40:fe:65:30:6c, 2015-01-01 00:38:42.830, 0.791, -0.051, 0.616, 1.953, 1.343, 0.183, -4.466, -51.564, -102.316, -24.807, -3.620, 1.080, 24.96, -0.5509, 0.36075, 0.24515, 0.71146,
 11:25:56.231,ed:35:33:d3:6c:f8, 2015-01-01 00:38:46.170, 0.62, -0.042, 0.774, 1.221, 0.61, 1.465, -3.087, -38.304, 156.302, -16.207, -5.273, -25.893, 29.49, -0.20297, -0.31601, 0.0925, -0.92209,
 11:25:56.231,ed:35:33:d3:6c:f8, 2015-01-01 00:38:46.170, 0.62, -0.042, 0.774, 1.282, 1.221, 1.343, -3.082, -38.287, 156.292, -16.207, -5.273, -25.893, 29.49, -0.20297, -0.31601, 0.0925, -0.92209,
 11:25:56.232,f6:90:cc:01:6d:25, 2015-01-01 00:38:45.830, 0.94, -0.162, 0.255, 0, 0.366, 0.427, -32.157, -71.993, -114.324, -28.587, -3.447, -2.127, 29.14, 0.28357, -0.59601, -0.11734, -0.74194,
 11:25:56.232,f6:90:cc:01:6d:25, 2015-01-01 00:38:45.830, 0.942, -0.161, 0.255, -0.427, 0.427, 0.366, -32.168, -71.982, -114.302, -28.587, -3.447, -2.127, 29.14, 0.28357, -0.59601, -0.11734, -0.74194,
 11:25:56.235,e3:ca:2d:fd:e0:8c, 2015-01-01 00:38:43.365, 0.929, -0.136, 0.409, 0.122, -0.061, 0.366, -18.012, -64.869, 171.87, -22.900, -3.227, -13.940, 23.67, -0.14249, -0.51901, 0.16898, -0.82562,
 11:25:56.235,e3:ca:2d:fd:e0:8c, 2015-01-01 00:38:43.365, 0.926, -0.134, 0.409, 0.122, 0, 0.305, -18.023, -64.869, 171.876, -22.900, -3.227, -13.940, 23.67, -0.14249, -0.51901, 0.16898, -0.82562,
 11:25:56.256,ed:40:fe:65:30:6c, 2015-01-01 00:38:42.830, 0.79, -0.049, 0.619, 1.831, 1.221, 0.061, -4.427, -51.542, -102.31, -24.807, -3.620, 1.080, 24.96, -0.5509, 0.36075, 0.24515, 0.71146,
 11:25:56.256,ed:40:fe:65:30:6c, 2015-01-01 00:38:42.830, 0.793, -0.047, 0.619, 1.221, 1.343, -0.061, -4.395, -51.52, -102.316, -24.807, -3.620, 1.080, 24.96, -0.5509, 0.36075, 0.24515, 0.71146,
 11:25:56.275,ed:35:33:d3:6c:f8, 2015-01-01 00:38:46.530, 0.622, -0.046, 0.783, 0.549, 1.465, 0.183, -3.076, -38.26, 156.264, -16.207, -5.273, -25.893, 29.49, -0.20297, -0.31601, 0.0925, -0.92209,
 11:25:56.275,ed:35:33:d3:6c:f8, 2015-01-01 00:38:46.530, 0.613, -0.048, 0.788, 0.549, 1.038, -0.061, -3.065, -38.238, 156.253, -16.207, -5.273, -25.893, 29.49, -0.20297, -0.31601, 0.0925, -0.92209,
 11:25:56.277,f6:90:cc:01:6d:25, 2015-01-01 00:38:45.830, 0.945, -0.164, 0.255, -0.366, 0.488, 0.305, -32.179, -71.971, -114.285, -28.587, -3.447, -2.127, 29.14, 0.28357, -0.59601, -0.11734, -0.74194,
 11:25:56.277,f6:90:cc:01:6d:25, 2015-01-01 00:38:45.830, 0.942, -0.17, 0.255, -0.183, 0.61, 0.122, -32.179, -71.96, -114.28, -28.587, -3.447, -2.127, 29.14, 0.28357, -0.59601, -0.11734, -0.74194,
 11:25:56.279,e3:ca:2d:fd:e0:8c, 2015-01-01 00:38:43.365, 0.928, -0.132, 0.408, -0.122, 0, 0.244, -18.04, -64.869, 171.881, -22.900, -3.227, -13.940, 23.67, -0.14249, -0.51901, 0.16898, -0.82562,
 11:25:56.279,e3:ca:2d:fd:e0:8c, 2015-01-01 00:38:43.365, 0.931, -0.135, 0.408, -0.244, -0.061, 0.244, -18.056, -64.869, 171.881, -22.900, -3.227, -13.940, 23.67, -0.14249, -0.51901, 0.16898, -0.82562,
 11:25:56.280,ed:40:fe:65:30:6c, 2015-01-01 00:38:43.190, 0.792, -0.053, 0.625, 0.671, 1.404, -0.183, -4.373, -51.498, -102.321, -24.807, -3.620, 1.080, 24.96, -0.5509, 0.36075, 0.24515, 0.71146,
 11:25:56.280,ed:40:fe:65:30:6c, 2015-01-01 00:38:43.190, 0.786, -0.058, 0.628, 0.488, 0.916, -0.183, -4.356, -51.476, -102.327, -24.807, -3.620, 1.080, 24.96, -0.5509, 0.36075, 0.24515, 0.71146,
 11:25:56.304,e3:ca:2d:fd:e0:8c, 2015-01-01 00:38:43.365, 0.928, -0.14, 0.412, -0.122, 0, 0.061, -18.062, -64.874, 171.876, -22.900, -3.227, -13.940, 23.67, -0.14249, -0.51901, 0.16898, -0.82562,
 11:25:56.304,e3:ca:2d:fd:e0:8c, 2015-01-01 00:38:43.365, 0.927, -0.14, 0.41, 0, 0.244, -0.122, -18.056, -64.869, 171.859, -22.900, -3.227, -13.940, 23.67, -0.14249, -0.51901, 0.16898, -0.82562,
 11:25:56.320,ed:35:33:d3:6c:f8, 2015-01-01 00:38:46.530, 0.616, -0.045, 0.792, -0.122, 0.427, -0.122, -3.06, -38.227, 156.226, -16.207, -5.273, -25.893, 29.49, -0.20297, -0.31601, 0.0925, -0.92209,
 11:25:56.320,ed:35:33:d3:6c:f8, 2015-01-01 00:38:46.530, 0.622, -0.04, 0.786, -0.977, 0.366, -0.366, -3.065, -38.221, 156.209, -16.207, -5.273, -25.893, 29.49, -0.20297, -0.31601, 0.0925, -0.92209,
 11:25:56.322,ed:40:fe:65:30:6c, 2015-01-01 00:38:43.190, 0.791, -0.051, 0.63, -0.549, 0.122, 0, -4.351, -51.465, -102.327, -24.807, -3.620, 1.080, 24.96, -0.5509, 0.36075, 0.24515, 0.71146,
 11:25:56.322,ed:40:fe:65:30:6c, 2015-01-01 00:38:43.190, 0.791, -0.051, 0.625, -0.977, -0.244, 0.305, -4.367, -51.465, -102.31, -24.807, -3.620, 1.080, 24.96, -0.5509, 0.36075, 0.24515, 0.71146,
 11:25:56.345,f6:90:cc:01:6d:25, 2015-01-01 00:38:45.830, 0.941, -0.17, 0.257, -0.671, 0.793, -0.122, -32.168, -71.949, -114.291, -28.513, -3.527, -2.287, 29.14, 0.28357, -0.59601, -0.11734, -0.74194,
 11:25:56.345,f6:90:cc:01:6d:25, 2015-01-01 00:38:45.830, 0.94, -0.167, 0.258, -0.732, 0.854, -0.244, -32.151, -71.938, -114.318, -28.513, -3.527, -2.287, 29.14, 0.28357, -0.59601, -0.11734, -0.74194,
 11:25:56.347,e3:ca:2d:fd:e0:8c, 2015-01-01 00:38:43.365, 0.926, -0.139, 0.409, 0, 0.244, -0.183, -18.051, -64.869, 171.843, -23.140, -3.373, -14.020, 23.67, -0.14249, -0.51901, 0.16898, -0.82562,
 11:25:56.347,e3:ca:2d:fd:e0:8c, 2015-01-01 00:38:43.365, 0.921, -0.139, 0.409, 0.183, 0.183, -0.183, -18.04, -64.869, 171.821, -23.140, -3.373, -14.020, 23.67, -0.14249, -0.51901, 0.16898, -0.82562,
 11:25:56.366,ed:35:33:d3:6c:f8, 2015-01-01 00:38:46.530, 0.616, -0.044, 0.775, -0.61, 0.488, -0.061, -3.082, -38.216, 156.171, -16.207, -5.273, -25.893, 29.49, -0.20297, -0.31601, 0.0925, -0.92209,
 11:25:56.366,ed:35:33:d3:6c:f8, 2015-01-01 00:38:46.530, 0.613, -0.042, 0.774, 0.061, 0.671, 0.488, -3.087, -38.205, 156.187, -16.207, -5.273, -25.893, 29.49, -0.20297, -0.31601, 0.0925, -0.92209,
 11:25:56.367,f6:90:cc:01:6d:25, 2015-01-01 00:38:45.830, 0.937, -0.168, 0.255, -0.305, 0.671, -0.305, -32.13, -71.933, -114.346, -28.513, -3.527, -2.287, 29.14, 0.28497, -0.59564, -0.11768, -0.74164,
 11:25:56.367,f6:90:cc:01:6d:25, 2015-01-01 00:38:45.830, 0.934, -0.165, 0.259, 0.244, 0.549, -0.366, -32.102, -71.927, -114.373, -28.513, -3.527, -2.287, 29.14, 0.28497, -0.59564, -0.11768, -0.74164,
 11:25:56.367,ed:40:fe:65:30:6c, 2015-01-01 00:38:43.190, 0.785, -0.056, 0.617, -0.244, 0.122, 0.488, -4.4, -51.471, -102.288, -24.807, -3.620, 1.080, 24.96, -0.5509, 0.36075, 0.24515, 0.71146,
 11:25:56.367,ed:40:fe:65:30:6c, 2015-01-01 00:38:43.190, 0.781, -0.051, 0.619, 0.305, 0.183, 0.549, -4.417, -51.471, -102.261, -24.807, -3.620, 1.080, 24.96, -0.5509, 0.36075, 0.24515, 0.71146,
 11:25:56.389,ed:35:33:d3:6c:f8, 2015-01-01 00:38:46.530, 0.609, -0.041, 0.775, 0.671, 0.732, 0.61, -3.087, -38.194, 156.204, -16.207, -5.273, -25.893, 29.49, -0.20297, -0.31601, 0.0925, -0.92209,
 11:25:56.389,ed:35:33:d3:6c:f8, 2015-01-01 00:38:46.530, 0.61, -0.041, 0.779, 0.488, 0.854, 0.427, -3.087, -38.177, 156.237, -16.207, -5.273, -25.893, 29.49, -0.20297, -0.31601, 0.0925, -0.92209,
 11:25:56.391,ed:40:fe:65:30:6c, 2015-01-01 00:38:43.190, 0.779, -0.047, 0.619, 0.671, 0.122, 0.427, -4.427, -51.465, -102.239, -24.807, -3.620, 1.080, 24.96, -0.5509, 0.36075, 0.24515, 0.71146,
 11:25:56.391,ed:40:fe:65:30:6c, 2015-01-01 00:38:43.190, 0.782, -0.046, 0.625, 0.305, 0.061, 0.061, -4.427, -51.465, -102.222, -24.807, -3.620, 1.080, 24.96, -0.5509, 0.36075, 0.24515, 0.71146,
 11:25:56.392,e3:ca:2d:fd:e0:8c, 2015-01-01 00:38:43.365, 0.919, -0.137, 0.412, 0.366, 0.244, -0.244, -18.029, -64.863, 171.799, -23.140, -3.373, -14.020, 23.67, -0.14334, -0.51889, 0.16974, -0.82541,
 11:25:56.392,e3:ca:2d:fd:e0:8c, 2015-01-01 00:38:43.365, 0.919, -0.133, 0.414, 0.366, 0.366, -0.183, -18.012, -64.858, 171.782, -23.140, -3.373, -14.020, 23.67, -0.14334, -0.51889, 0.16974, -0.82541,
 11:25:56.412,f6:90:cc:01:6d:25, 2015-01-01 00:38:45.830, 0.933, -0.161, 0.26, 0.183, 0.732, -0.183, -32.069, -71.917, -114.401, -28.513, -3.527, -2.287, 29.14, 0.28497, -0.59564, -0.11768, -0.74164,
 11:25:56.412,f6:90:cc:01:6d:25, 2015-01-01 00:38:45.830, 0.935, -0.158, 0.264, -0.061, 0.854, 0, -32.042, -71.906, -114.423, -28.513, -3.527, -2.287, 29.14, 0.28497, -0.59564, -0.11768, -0.74164,
 11:25:56.435,f6:90:cc:01:6d:25, 2015-01-01 00:38:46.185, 0.938, -0.159, 0.266, -0.244, 0.732, 0, -32.025, -71.895, -114.439, -28.513, -3.527, -2.287, 29.14, 0.28497, -0.59564, -0.11768, -0.74164,
 11:25:56.435,f6:90:cc:01:6d:25, 2015-01-01 00:38:46.185, 0.939, -0.16, 0.265, -0.305, 0.61, -0.122, -32.003, -71.884, -114.45, -28.513, -3.527, -2.287, 29.14, 0.28497, -0.59564, -0.11768, -0.74164,
 11:25:56.437,ed:40:fe:65:30:6c, 2015-01-01 00:38:43.190, 0.785, -0.047, 0.627, 0, 0.183, -0.122, -4.427, -51.465, -102.228, -24.807, -3.620, 1.080, 24.96, -0.5509, 0.36075, 0.24515, 0.71146,
 11:25:56.438,ed:40:fe:65:30:6c, 2015-01-01 00:38:43.190, 0.785, -0.048, 0.626, 0.061, 0.366, -0.244, -4.422, -51.46, -102.239, -24.807, -3.620, 1.080, 24.96, -0.5509, 0.36075, 0.24515, 0.71146,
 11:25:56.439,e3:ca:2d:fd:e0:8c, 2015-01-01 00:38:43.635, 0.92, -0.13, 0.414, 0.183, 0.488, -0.183, -17.996, -64.852, 171.76, -23.140, -3.373, -14.020, 23.67, -0.14334, -0.51889, 0.16974, -0.82541,
 11:25:56.439,e3:ca:2d:fd:e0:8c, 2015-01-01 00:38:43.635, 0.923, -0.129, 0.413, 0, 0.366, -0.183, -17.985, -64.847, 171.738, -23.140, -3.373, -14.020, 23.67, -0.14334, -0.51889, 0.16974, -0.82541,
 11:25:56.457,ed:35:33:d3:6c:f8, 2015-01-01 00:38:46.530, 0.612, -0.04, 0.784, 0, 1.038, -0.061, -3.082, -38.161, 156.264, -16.207, -5.273, -25.893, 29.49, -0.20297, -0.31601, 0.0925, -0.92209,
 11:25:56.457,ed:35:33:d3:6c:f8, 2015-01-01 00:38:46.530, 0.611, -0.04, 0.784, -0.061, 0.977, -0.183, -3.082, -38.139, 156.264, -16.207, -5.273, -25.893, 29.49, -0.20297, -0.31601, 0.0925, -0.92209,
 11:25:56.479,ed:35:33:d3:6c:f8, 2015-01-01 00:38:46.530, 0.61, -0.038, 0.791, 0, 0.793, -0.244, -3.076, -38.123, 156.248, -16.607, -5.100, -26.133, 29.49, -0.20297, -0.31601, 0.0925, -0.92209,
 11:25:56.479,ed:35:33:d3:6c:f8, 2015-01-01 00:38:46.530, 0.612, -0.037, 0.79, 0, 0, -0.305, -3.071, -38.117, 156.231, -16.607, -5.100, -26.133, 29.49, -0.20297, -0.31601, 0.0925, -0.92209,
 11:25:56.480,f6:90:cc:01:6d:25, 2015-01-01 00:38:46.185, 0.939, -0.162, 0.263, -0.244, 0.549, -0.122, -31.981, -71.873, -114.467, -28.513, -3.527, -2.287, 29.14, 0.28497, -0.59564, -0.11768, -0.74164,
 11:25:56.480,f6:90:cc:01:6d:25, 2015-01-01 00:38:46.185, 0.938, -0.162, 0.262, -0.305, 0.427, -0.122, -31.965, -71.867, -114.478, -28.513, -3.527, -2.287, 29.14, 0.28497, -0.59564, -0.11768, -0.74164,
 11:25:56.482,ed:40:fe:65:30:6c, 2015-01-01 00:38:43.190, 0.784, -0.045, 0.631, 0.061, 0.122, -0.122, -4.417, -51.454, -102.25, -24.807, -3.620, 1.080, 24.96, -0.5509, 0.36075, 0.24515, 0.71146,
 11:25:56.482,ed:40:fe:65:30:6c, 2015-01-01 00:38:43.190, 0.786, -0.045, 0.628, -0.061, -0.244, 0, -4.417, -51.454, -102.25, -24.807, -3.620, 1.080, 24.96, -0.5509, 0.36075, 0.24515, 0.71146,
 11:25:56.483,e3:ca:2d:fd:e0:8c, 2015-01-01 00:38:43.635, 0.925, -0.131, 0.414, -0.061, 0.183, -0.183, -17.979, -64.847, 171.722, -23.140, -3.373, -14.020, 23.67, -0.14334, -0.51889, 0.16974, -0.82541,
 11:25:56.483,e3:ca:2d:fd:e0:8c, 2015-01-01 00:38:43.635, 0.926, -0.132, 0.413, -0.183, 0.061, -0.244, -17.968, -64.847, 171.7, -23.140, -3.373, -14.020, 23.67, -0.14334, -0.51889, 0.16974, -0.82541,
 11:25:56.506,e3:ca:2d:fd:e0:8c, 2015-01-01 00:38:43.635, 0.924, -0.133, 0.413, -0.183, 0.061, -0.183, -17.968, -64.847, 171.683, -23.140, -3.373, -14.020, 23.67, -0.14334, -0.51889, 0.16974, -0.82541,
 11:25:56.506,e3:ca:2d:fd:e0:8c, 2015-01-01 00:38:43.635, 0.923, -0.133, 0.412, -0.122, 0.061, 0.061, -17.968, -64.841, 171.672, -23.140, -3.373, -14.020, 23.67, -0.14334, -0.51889, 0.16974, -0.82541,
 11:25:56.523,ed:35:33:d3:6c:f8, 2015-01-01 00:38:46.530, 0.612, -0.039, 0.784, -0.305, -0.305, -0.305, -3.071, -38.117, 156.22, -16.607, -5.100, -26.133, 29.49, -0.20297, -0.31601, 0.0925, -0.92209,
 11:25:56.523,ed:35:33:d3:6c:f8, 2015-01-01 00:38:46.530, 0.614, -0.038, 0.781, -0.183, -0.305, -0.488, -3.065, -38.123, 156.226, -16.607, -5.100, -26.133, 29.49, -0.20297, -0.31601, 0.0925, -0.92209,
 11:25:56.524,f6:90:cc:01:6d:25, 2015-01-01 00:38:46.185, 0.938, -0.16, 0.264, -0.305, 0.244, 0, -31.954, -71.862, -114.483, -28.513, -3.527, -2.287, 29.14, 0.28497, -0.59564, -0.11768, -0.74164,
 11:25:56.524,f6:90:cc:01:6d:25, 2015-01-01 00:38:46.185, 0.937, -0.159, 0.262, -0.122, 0.122, 0.244, -31.954, -71.856, -114.472, -28.513, -3.527, -2.287, 29.14, 0.28497, -0.59564, -0.11768, -0.74164,
 11:25:56.549,ed:40:fe:65:30:6c, 2015-01-01 00:38:43.190, 0.786, -0.045, 0.625, -0.183, -0.366, -0.122, -4.417, -51.46, -102.25, -24.840, -3.540, 0.820, 24.96, -0.5509, 0.36075, 0.24515, 0.71146,
 11:25:56.549,ed:40:fe:65:30:6c, 2015-01-01 00:38:43.190, 0.786, -0.047, 0.624, 0, -0.244, -0.305, -4.417, -51.465, -102.25, -24.840, -3.540, 0.820, 24.96, -0.5509, 0.36075, 0.24515, 0.71146,
 11:25:56.550,e3:ca:2d:fd:e0:8c, 2015-01-01 00:38:43.635, 0.924, -0.135, 0.41, 0, 0.061, 0.183, -17.968, -64.841, 171.672, -23.140, -3.373, -14.020, 23.67, -0.14334, -0.51889, 0.16974, -0.82541,
 11:25:56.550,e3:ca:2d:fd:e0:8c, 2015-01-01 00:38:43.635, 0.927, -0.137, 0.411, 0, 0, 0.122, -17.979, -64.841, 171.672, -23.140, -3.373, -14.020, 23.67, -0.14334, -0.51889, 0.16974, -0.82541,
 11:25:56.569,f6:90:cc:01:6d:25, 2015-01-01 00:38:46.185, 0.938, -0.164, 0.26, -0.061, 0, 0.305, -31.965, -71.851, -114.45, -28.513, -3.527, -2.287, 29.14, 0.28497, -0.59564, -0.11768, -0.74164,
 11:25:56.569,f6:90:cc:01:6d:25, 2015-01-01 00:38:46.185, 0.941, -0.167, 0.259, -0.122, 0, 0.183, -31.976, -71.851, -114.423, -28.513, -3.527, -2.287, 29.14, 0.28497, -0.59564, -0.11768, -0.74164,
 11:25:56.571,ed:40:fe:65:30:6c, 2015-01-01 00:38:43.190, 0.787, -0.048, 0.622, 0.244, -0.305, -0.061, -4.406, -51.471, -102.266, -24.840, -3.540, 0.820, 24.96, -0.55179, 0.35956, 0.24527, 0.7113,
 11:25:56.571,ed:40:fe:65:30:6c, 2015-01-01 00:38:43.190, 0.791, -0.05, 0.622, 0.366, -0.427, 0.244, -4.4, -51.476, -102.272, -24.840, -3.540, 0.820, 24.96, -0.55179, 0.35956, 0.24527, 0.7113,
 11:25:56.591,ed:35:33:d3:6c:f8, 2015-01-01 00:38:46.530, 0.614, -0.036, 0.779, 0, 0.366, -0.366, -3.06, -38.123, 156.242, -16.607, -5.100, -26.133, 29.49, -0.20312, -0.31424, 0.09198, -0.92273,
 11:25:56.591,ed:35:33:d3:6c:f8, 2015-01-01 00:38:46.530, 0.617, -0.037, 0.782, 0.122, 0.305, 0, -3.049, -38.112, 156.27, -16.607, -5.100, -26.133, 29.49, -0.20312, -0.31424, 0.09198, -0.92273,
 11:25:56.594,e3:ca:2d:fd:e0:8c, 2015-01-01 00:38:43.635, 0.929, -0.137, 0.411, 0.183, 0.061, 0.061, -17.979, -64.841, 171.667, -23.140, -3.373, -14.020, 23.67, -0.14334, -0.51889, 0.16974, -0.82541,
 11:25:56.594,e3:ca:2d:fd:e0:8c, 2015-01-01 00:38:43.635, 0.927, -0.135, 0.411, 0.366, 0.122, 0.122, -17.979, -64.836, 171.667, -23.140, -3.373, -14.020, 23.67, -0.14334, -0.51889, 0.16974, -0.82541,
 11:25:56.613,ed:35:33:d3:6c:f8, 2015-01-01 00:38:46.885, 0.617, -0.042, 0.782, 0.122, 0.122, 0.122, -3.049, -38.106, 156.286, -16.607, -5.100, -26.133, 29.49, -0.20312, -0.31424, 0.09198, -0.92273,
 11:25:56.613,ed:35:33:d3:6c:f8, 2015-01-01 00:38:46.885, 0.617, -0.045, 0.781, 0.061, -0.183, 0.183, -3.043, -38.106, 156.292, -16.607, -5.100, -26.133, 29.49, -0.20312, -0.31424, 0.09198, -0.92273,
 11:25:56.615,f6:90:cc:01:6d:25, 2015-01-01 00:38:46.185, 0.942, -0.166, 0.26, 0.122, 0.183, 0.183, -31.981, -71.845, -114.406, -28.513, -3.527, -2.287, 29.14, 0.28497, -0.59564, -0.11768, -0.74164,
 11:25:56.615,f6:90:cc:01:6d:25, 2015-01-01 00:38:46.185, 0.941, -0.164, 0.26, 0.488, 0.122, 0.122, -31.981, -71.84, -114.395, -28.513, -3.527, -2.287, 29.14, 0.28497, -0.59564, -0.11768, -0.74164,
 11:25:56.616,ed:40:fe:65:30:6c, 2015-01-01 00:38:43.190, 0.79, -0.052, 0.623, 0.427, -0.549, 0.488, -4.406, -51.487, -102.261, -24.840, -3.540, 0.820, 24.96, -0.55179, 0.35956, 0.24527, 0.7113,
 11:25:56.616,ed:40:fe:65:30:6c, 2015-01-01 00:38:43.190, 0.79, -0.052, 0.622, 0.549, -0.549, 0.305, -4.406, -51.493, -102.244, -24.840, -3.540, 0.820, 24.96, -0.55179, 0.35956, 0.24527, 0.7113,
 11:25:56.637,ed:35:33:d3:6c:f8, 2015-01-01 00:38:46.885, 0.618, -0.043, 0.781, 0.061, -0.183, 0.305, -3.049, -38.112, 156.286, -16.607, -5.100, -26.133, 29.49, -0.20312, -0.31424, 0.09198, -0.92273,
 11:25:56.637,ed:35:33:d3:6c:f8, 2015-01-01 00:38:46.885, 0.618, -0.04, 0.78, -0.061, 0.061, 0.061, -3.049, -38.112, 156.259, -16.607, -5.100, -26.133, 29.49, -0.20312, -0.31424, 0.09198, -0.92273,
 11:25:56.638,f6:90:cc:01:6d:25, 2015-01-01 00:38:46.185, 0.94, -0.162, 0.261, 0.488, 0.061, 0.183, -31.976, -71.84, -114.379, -28.413, -3.280, -1.847, 29.14, 0.28497, -0.59564, -0.11768, -0.74164,
 11:25:56.638,f6:90:cc:01:6d:25, 2015-01-01 00:38:46.185, 0.939, -0.164, 0.261, 0.244, 0, 0.061, -31.976, -71.834, -114.362, -28.413, -3.280, -1.847, 29.14, 0.28497, -0.59564, -0.11768, -0.74164,
 11:25:56.639,ed:40:fe:65:30:6c, 2015-01-01 00:38:43.545, 0.791, -0.05, 0.621, 0.61, -0.488, 0.061, -4.4, -51.504, -102.244, -24.840, -3.540, 0.820, 24.96, -0.55179, 0.35956, 0.24527, 0.7113,
 11:25:56.639,ed:40:fe:65:30:6c, 2015-01-01 00:38:43.545, 0.79, -0.047, 0.622, 0.244, -0.427, 0.122, -4.4, -51.515, -102.239, -24.840, -3.540, 0.820, 24.96, -0.55179, 0.35956, 0.24527, 0.7113,
 11:25:56.639,e3:ca:2d:fd:e0:8c, 2015-01-01 00:38:43.635, 0.925, -0.134, 0.411, 0.427, 0.061, 0.122, -17.979, -64.836, 171.661, -22.927, -3.327, -13.673, 23.67, -0.14334, -0.51889, 0.16974, -0.82541,
 11:25:56.639,e3:ca:2d:fd:e0:8c, 2015-01-01 00:38:43.635, 0.925, -0.134, 0.412, 0.366, 0.061, 0.183, -17.979, -64.836, 171.661, -22.927, -3.327, -13.673, 23.67, -0.14334, -0.51889, 0.16974, -0.82541,
 11:25:56.681,f6:90:cc:01:6d:25, 2015-01-01 00:38:46.185, 0.938, -0.164, 0.26, 0.183, 0, 0.061, -31.976, -71.834, -114.351, -28.413, -3.280, -1.847, 29.14, 0.28497, -0.59564, -0.11768, -0.74164,
 11:25:56.681,f6:90:cc:01:6d:25, 2015-01-01 00:38:46.185, 0.938, -0.163, 0.26, 0.183, 0.122, 0.061, -31.976, -71.834, -114.34, -28.413, -3.280, -1.847, 29.14, 0.28497, -0.59564, -0.11768, -0.74164,
 11:25:56.681,ed:35:33:d3:6c:f8, 2015-01-01 00:38:46.885, 0.616, -0.036, 0.778, -0.122, 0.488, 0, -3.049, -38.106, 156.215, -16.607, -5.100, -26.133, 29.49, -0.20312, -0.31424, 0.09198, -0.92273,
 11:25:56.681,ed:35:33:d3:6c:f8, 2015-01-01 00:38:46.885, 0.615, -0.04, 0.778, 0, 0.183, 0.305, -3.054, -38.101, 156.16, -16.607, -5.100, -26.133, 29.49, -0.20312, -0.31424, 0.09198, -0.92273,
 11:25:56.683,ed:40:fe:65:30:6c, 2015-01-01 00:38:43.545, 0.787, -0.047, 0.619, 0.366, -0.305, 0.427, -4.4, -51.526, -102.228, -24.840, -3.540, 0.820, 24.96, -0.55179, 0.35956, 0.24527, 0.7113,
 11:25:56.683,ed:40:fe:65:30:6c, 2015-01-01 00:38:43.545, 0.788, -0.05, 0.618, 0.61, -0.244, 0.427, -4.406, -51.531, -102.211, -24.840, -3.540, 0.820, 24.96, -0.55179, 0.35956, 0.24527, 0.7113,
 11:25:56.685,e3:ca:2d:fd:e0:8c, 2015-01-01 00:38:43.635, 0.924, -0.135, 0.413, 0.305, 0, 0.122, -17.979, -64.836, 171.661, -22.927, -3.327, -13.673, 23.67, -0.14413, -0.51849, 0.17004, -0.82544,
 11:25:56.685,e3:ca:2d:fd:e0:8c, 2015-01-01 00:38:43.635, 0.923, -0.134, 0.412, 0.244, 0.122, 0.061, -17.979, -64.836, 171.661, -22.927, -3.327, -13.673, 23.67, -0.14413, -0.51849, 0.17004, -0.82544,
 11:25:56.708,e3:ca:2d:fd:e0:8c, 2015-01-01 00:38:43.925, 0.924, -0.135, 0.412, 0.244, 0.244, 0.061, -17.974, -64.83, 171.656, -22.927, -3.327, -13.673, 23.67, -0.14413, -0.51849, 0.17004, -0.82544,
 11:25:56.708,e3:ca:2d:fd:e0:8c, 2015-01-01 00:38:43.925, 0.924, -0.135, 0.414, 0.305, 0.366, 0.122, -17.974, -64.825, 171.65, -22.927, -3.327, -13.673, 23.67, -0.14413, -0.51849, 0.17004, -0.82544,
 11:25:56.727,ed:35:33:d3:6c:f8, 2015-01-01 00:38:46.885, 0.616, -0.044, 0.78, 0, -0.305, 0.488, -3.06, -38.106, 156.143, -16.607, -5.100, -26.133, 29.49, -0.20312, -0.31424, 0.09198, -0.92273,
 11:25:56.727,ed:35:33:d3:6c:f8, 2015-01-01 00:38:46.885, 0.617, -0.043, 0.78, 0.061, -0.549, 0.244, -3.06, -38.117, 156.132, -16.607, -5.100, -26.133, 29.49, -0.20312, -0.31424, 0.09198, -0.92273,
 11:25:56.729,ed:40:fe:65:30:6c, 2015-01-01 00:38:43.545, 0.79, -0.052, 0.62, 0.732, -0.305, 0.305, -4.4, -51.537, -102.195, -24.840, -3.540, 0.820, 24.96, -0.55179, 0.35956, 0.24527, 0.7113,
 11:25:56.729,ed:40:fe:65:30:6c, 2015-01-01 00:38:43.545, 0.79, -0.051, 0.621, 0.793, -0.366, 0.183, -4.395, -51.542, -102.184, -24.840, -3.540, 0.820, 24.96, -0.55179, 0.35956, 0.24527, 0.7113,
 11:25:56.749,f6:90:cc:01:6d:25, 2015-01-01 00:38:46.185, 0.938, -0.163, 0.26, 0.305, 0.366, 0.122, -31.965, -71.829, -114.335, -28.413, -3.280, -1.847, 29.14, 0.28622, -0.59479, -0.11826, -0.74176,
 11:25:56.749,f6:90:cc:01:6d:25, 2015-01-01 00:38:46.185, 0.939, -0.164, 0.264, 0.366, 0.366, 0.061, -31.954, -71.823, -114.335, -28.413, -3.280, -1.847, 29.14, 0.28622, -0.59479, -0.11826, -0.74176,
 11:25:56.753,e3:ca:2d:fd:e0:8c, 2015-01-01 00:38:43.925, 0.923, -0.133, 0.414, 0.305, 0.366, 0, -17.968, -64.819, 171.639, -22.927, -3.327, -13.673, 23.67, -0.14413, -0.51849, 0.17004, -0.82544,
 11:25:56.753,e3:ca:2d:fd:e0:8c, 2015-01-01 00:38:43.925, 0.921, -0.132, 0.415, 0.244, 0.244, 0, -17.957, -64.814, 171.628, -22.927, -3.327, -13.673, 23.67, -0.14413, -0.51849, 0.17004, -0.82544,
 11:25:56.772,ed:35:33:d3:6c:f8, 2015-01-01 00:38:46.885, 0.614, -0.041, 0.78, 0.183, -0.183, 0.122, -3.065, -38.123, 156.105, -16.607, -5.100, -26.133, 29.49, -0.20312, -0.31424, 0.09198, -0.92273,
 11:25:56.772,ed:35:33:d3:6c:f8, 2015-01-01 00:38:46.885, 0.614, -0.041, 0.78, 0.427, 0.061, 0.183, -3.06, -38.128, 156.077, -16.607, -5.100, -26.133, 29.49, -0.20312, -0.31424, 0.09198, -0.92273,
 11:25:56.772,f6:90:cc:01:6d:25, 2015-01-01 00:38:46.520, 0.938, -0.162, 0.265, 0.488, 0.427, 0.061, -31.932, -71.812, -114.335, -28.413, -3.280, -1.847, 29.14, 0.28622, -0.59479, -0.11826, -0.74176,
 11:25:56.772,f6:90:cc:01:6d:25, 2015-01-01 00:38:46.520, 0.937, -0.162, 0.265, 0.488, 0.305, 0, -31.915, -71.807, -114.335, -28.413, -3.280, -1.847, 29.14, 0.28622, -0.59479, -0.11826, -0.74176,
 11:25:56.774,ed:40:fe:65:30:6c, 2015-01-01 00:38:43.545, 0.787, -0.049, 0.622, 0.916, -0.122, 0.122, -4.384, -51.548, -102.167, -24.840, -3.540, 0.820, 24.96, -0.55179, 0.35956, 0.24527, 0.7113,
 11:25:56.774,ed:40:fe:65:30:6c, 2015-01-01 00:38:43.545, 0.787, -0.048, 0.622, 0.977, 0, 0.122, -4.373, -51.553, -102.145, -24.840, -3.540, 0.820, 24.96, -0.55179, 0.35956, 0.24527, 0.7113,
 11:25:56.795,f6:90:cc:01:6d:25, 2015-01-01 00:38:46.520, 0.936, -0.163, 0.264, 0.183, 0.183, 0, -31.899, -71.801, -114.335, -28.413, -3.280, -1.847, 29.14, 0.28622, -0.59479, -0.11826, -0.74176,
 11:25:56.795,f6:90:cc:01:6d:25, 2015-01-01 00:38:46.520, 0.937, -0.163, 0.262, 0.244, 0.244, -0.061, -31.882, -71.801, -114.335, -28.413, -3.280, -1.847, 29.14, 0.28622, -0.59479, -0.11826, -0.74176,
 11:25:56.796,ed:40:fe:65:30:6c, 2015-01-01 00:38:43.545, 0.784, -0.049, 0.621, 1.038, 0.183, 0, -4.356, -51.553, -102.129, -24.840, -3.540, 0.820, 24.96, -0.55179, 0.35956, 0.24527, 0.7113,
 11:25:56.796,ed:40:fe:65:30:6c, 2015-01-01 00:38:43.545, 0.786, -0.047, 0.624, 0.732, 0.122, 0, -4.34, -51.548, -102.129, -24.840, -3.540, 0.820, 24.96, -0.55179, 0.35956, 0.24527, 0.7113,
 11:25:56.797,e3:ca:2d:fd:e0:8c, 2015-01-01 00:38:43.925, 0.922, -0.134, 0.414, 0.122, 0.244, 0, -17.952, -64.808, 171.623, -22.927, -3.327, -13.673, 23.67, -0.14413, -0.51849, 0.17004, -0.82544,
 11:25:56.797,e3:ca:2d:fd:e0:8c, 2015-01-01 00:38:43.925, 0.923, -0.135, 0.414, 0.061, 0.366, 0, -17.946, -64.803, 171.612, -22.927, -3.327, -13.673, 23.67, -0.14413, -0.51849, 0.17004, -0.82544,
 11:25:56.817,ed:35:33:d3:6c:f8, 2015-01-01 00:38:46.885, 0.611, -0.042, 0.78, 0.61, 0, 0.244, -3.049, -38.128, 156.077, -16.607, -5.100, -26.133, 29.49, -0.20312, -0.31424, 0.09198, -0.92273,
 11:25:56.818,ed:35:33:d3:6c:f8, 2015-01-01 00:38:46.885, 0.611, -0.042, 0.784, 0.549, 0, 0, -3.043, -38.128, 156.099, -16.607, -5.100, -26.133, 29.49, -0.20312, -0.31424, 0.09198, -0.92273,
 11:25:56.839,f6:90:cc:01:6d:25, 2015-01-01 00:38:46.520, 0.938, -0.164, 0.264, 0.183, 0.244, 0, -31.871, -71.796, -114.335, -28.413, -3.280, -1.847, 29.14, 0.28622, -0.59479, -0.11826, -0.74176,
 11:25:56.839,f6:90:cc:01:6d:25, 2015-01-01 00:38:46.520, 0.938, -0.162, 0.266, 0.122, 0.061, 0, -31.86, -71.79, -114.329, -28.413, -3.280, -1.847, 29.14, 0.28622, -0.59479, -0.11826, -0.74176,
 11:25:56.839,ed:35:33:d3:6c:f8, 2015-01-01 00:38:46.885, 0.613, -0.041, 0.785, 0.122, 0.061, -0.488, -3.032, -38.128, 156.088, -15.973, -5.400, -25.327, 29.49, -0.20312, -0.31424, 0.09198, -0.92273,
 11:25:56.839,ed:35:33:d3:6c:f8, 2015-01-01 00:38:46.885, 0.614, -0.04, 0.787, -0.061, 0, -0.732, -3.021, -38.128, 156.066, -15.973, -5.400, -25.327, 29.49, -0.20312, -0.31424, 0.09198, -0.92273,
 11:25:56.841,ed:40:fe:65:30:6c, 2015-01-01 00:38:43.545, 0.787, -0.047, 0.626, 0.305, 0.183, -0.122, -4.329, -51.548, -102.134, -24.840, -3.540, 0.820, 24.96, -0.55179, 0.35956, 0.24527, 0.7113,
 11:25:56.841,ed:40:fe:65:30:6c, 2015-01-01 00:38:43.545, 0.788, -0.048, 0.626, 0.183, 0.122, -0.122, -4.323, -51.548, -102.145, -24.840, -3.540, 0.820, 24.96, -0.55179, 0.35956, 0.24527, 0.7113,
 11:25:56.843,e3:ca:2d:fd:e0:8c, 2015-01-01 00:38:43.925, 0.923, -0.135, 0.415, 0.061, 0.366, 0, -17.941, -64.797, 171.601, -22.927, -3.327, -13.673, 23.67, -0.14413, -0.51849, 0.17004, -0.82544,
 11:25:56.843,e3:ca:2d:fd:e0:8c, 2015-01-01 00:38:43.925, 0.924, -0.133, 0.414, 0, 0.183, 0, -17.935, -64.792, 171.59, -22.927, -3.327, -13.673, 23.67, -0.14413, -0.51849, 0.17004, -0.82544,
 11:25:56.884,ed:35:33:d3:6c:f8, 2015-01-01 00:38:46.885, 0.615, -0.041, 0.784, 0, -0.183, -0.549, -3.01, -38.128, 156.05, -15.973, -5.400, -25.327, 29.49, -0.20312, -0.31424, 0.09198, -0.92273,
 11:25:56.884,ed:35:33:d3:6c:f8, 2015-01-01 00:38:46.885, 0.612, -0.041, 0.776, 0.244, -0.244, 0, -3.005, -38.134, 156.05, -15.973, -5.400, -25.327, 29.49, -0.20312, -0.31424, 0.09198, -0.92273,
