Time,Device name,Chip Time(),Acceleration X(g),Acceleration Y(g),Acceleration Z(g),Angular velocity X(°/s),Angular velocity Y(°/s),Angular velocity Z(°/s),Angle X(°),Angle Y(°),Angle Z(°),Magnetic field X(ʯt),Magnetic field Y(ʯt),Magnetic field Z(ʯt),Temperature(℃),Quaternions 0(),Quaternions 1(),Quaternions 2(),Quaternions 3()
 14:31:58.066,ed:40:fe:65:30:6c, 2015-01-01 00:54:52.985, 0.677, -0.173, 0.716, 0.061, 0.061, 0, -13.568, -42.484, -114.28, -22.880, -6.520, -3.127, 25.63, -0.46622, 0.362, 0.10278, 0.80057,
 14:31:58.066,ed:40:fe:65:30:6c, 2015-01-01 00:54:52.985, 0.679, -0.174, 0.715, 0.183, 0, 0, -13.568, -42.49, -114.28, -22.880, -6.520, -3.127, 25.63, -0.46622, 0.362, 0.10278, 0.80057,
 14:31:58.066,ed:40:fe:65:30:6c, 2015-01-01 00:54:52.985, 0.679, -0.175, 0.717, 0.183, 0, 0, -13.568, -42.49, -114.28, -22.880, -6.520, -3.127, 25.63, -0.46622, 0.362, 0.10278, 0.80057,
 14:31:58.066,ed:40:fe:65:30:6c, 2015-01-01 00:54:52.985, 0.68, -0.174, 0.718, 0.183, 0.061, 0, -13.563, -42.49, -114.28, -22.880, -6.520, -3.127, 25.63, -0.46622, 0.362, 0.10278, 0.80057,
 14:31:58.068,e3:ca:2d:fd:e0:8c, 2015-01-01 00:54:42.095, 1.006, -0.147, -0.089, 0, 0, 0, -121.207, -80.239, -83.584, -26.880, -9.880, -4.073, 29.58, 0.0943, 0.70749, -0.20816, 0.66867,
 14:31:58.068,e3:ca:2d:fd:e0:8c, 2015-01-01 00:54:42.095, 1.007, -0.148, -0.087, 0, 0, 0, -121.207, -80.239, -83.589, -26.880, -9.880, -4.073, 29.58, 0.0943, 0.70749, -0.20816, 0.66867,
 14:31:58.074,f6:90:cc:01:6d:25, 2015-01-01 00:54:39.905, 0.928, -0.315, 0.072, 0.061, -0.183, 0, -76.756, -70.741, -100.585, -31.573, -6.153, -1.760, 31.54, -0.13199, 0.67245, -0.0994, 0.72141,
 14:31:58.074,f6:90:cc:01:6d:25, 2015-01-01 00:54:39.905, 0.931, -0.318, 0.07, 0.122, -0.061, 0, -76.761, -70.741, -100.58, -31.573, -6.153, -1.760, 31.54, -0.13199, 0.67245, -0.0994, 0.72141,
 14:31:58.076,f6:90:cc:01:6d:25, 2015-01-01 00:54:39.905, 0.933, -0.319, 0.074, 0, 0.061, 0, -76.767, -70.741, -100.574, -31.573, -6.153, -1.760, 31.54, -0.13199, 0.67245, -0.0994, 0.72141,
 14:31:58.076,f6:90:cc:01:6d:25, 2015-01-01 00:54:39.905, 0.934, -0.317, 0.075, 0, 0.122, 0, -76.761, -70.741, -100.58, -31.573, -6.153, -1.760, 31.54, -0.13199, 0.67245, -0.0994, 0.72141,
 14:31:58.099,e3:ca:2d:fd:e0:8c, 2015-01-01 00:54:42.095, 1.007, -0.148, -0.087, -0.061, 0, 0, -121.201, -80.239, -83.589, -26.880, -9.880, -4.073, 29.58, 0.0943, 0.70749, -0.20816, 0.66867,
 14:31:58.099,e3:ca:2d:fd:e0:8c, 2015-01-01 00:54:42.095, 1.008, -0.149, -0.086, 0, 0, 0, -121.201, -80.239, -83.595, -26.880, -9.880, -4.073, 29.58, 0.0943, 0.70749, -0.20816, 0.66867,
 14:31:58.101,ed:35:33:d3:6c:f8, 2015-01-01 00:54:41.125, 0.459, -0.375, 0.792, 0.183, 0.061, 0.061, -25.538, -27.559, -171.14, -15.853, -2.200, -29.487, 30.48, -0.02005, 0.24823, -0.19629, 0.94833,
 14:31:58.101,ed:35:33:d3:6c:f8, 2015-01-01 00:54:41.125, 0.459, -0.378, 0.793, 0.183, 0.183, 0.244, -25.532, -27.554, -171.134, -15.853, -2.200, -29.487, 30.48, -0.02005, 0.24823, -0.19629, 0.94833,
 14:31:58.103,ed:35:33:d3:6c:f8, 2015-01-01 00:54:41.125, 0.46, -0.379, 0.795, 0.061, 0.366, 0.122, -25.532, -27.548, -171.129, -15.853, -2.200, -29.487, 30.48, -0.02005, 0.24823, -0.19629, 0.94833,
 14:31:58.103,ed:35:33:d3:6c:f8, 2015-01-01 00:54:41.125, 0.46, -0.379, 0.798, 0.061, 0.061, 0.122, -25.527, -27.543, -171.123, -15.853, -2.200, -29.487, 30.48, -0.02005, 0.24823, -0.19629, 0.94833,
 14:31:58.105,f6:90:cc:01:6d:25, 2015-01-01 00:54:39.905, 0.935, -0.318, 0.074, 0.122, 0.122, 0, -76.756, -70.741, -100.585, -31.573, -6.153, -1.760, 31.54, -0.13199, 0.67245, -0.0994, 0.72141,
 14:31:58.105,f6:90:cc:01:6d:25, 2015-01-01 00:54:39.905, 0.935, -0.319, 0.075, 0.061, 0.122, 0, -76.75, -70.741, -100.591, -31.573, -6.153, -1.760, 31.54, -0.13199, 0.67245, -0.0994, 0.72141,
 14:31:58.125,ed:40:fe:65:30:6c, 2015-01-01 00:54:52.985, 0.681, -0.176, 0.72, 0.061, 0.122, 0, -13.563, -42.49, -114.28, -22.867, -6.653, -2.260, 25.63, -0.46622, 0.362, 0.10278, 0.80057,
 14:31:58.125,ed:40:fe:65:30:6c, 2015-01-01 00:54:52.985, 0.681, -0.175, 0.722, 0.122, 0.061, 0, -13.563, -42.49, -114.28, -22.867, -6.653, -2.260, 25.63, -0.46622, 0.362, 0.10278, 0.80057,
 14:31:58.129,e3:ca:2d:fd:e0:8c, 2015-01-01 00:54:42.515, 1.008, -0.148, -0.087, 0.061, 0, 0, -121.19, -80.239, -83.6, -26.880, -9.880, -4.073, 29.58, 0.0943, 0.70749, -0.20816, 0.66867,
 14:31:58.129,e3:ca:2d:fd:e0:8c, 2015-01-01 00:54:42.515, 1.007, -0.149, -0.087, 0, 0, 0, -121.185, -80.239, -83.6, -26.880, -9.880, -4.073, 29.58, 0.0943, 0.70749, -0.20816, 0.66867,
 14:31:58.131,ed:35:33:d3:6c:f8, 2015-01-01 00:54:41.125, 0.46, -0.379, 0.798, 0, -0.061, 0.122, -25.527, -27.543, -171.118, -15.967, -2.280, -29.527, 30.48, -0.02005, 0.24823, -0.19629, 0.94833,
 14:31:58.131,ed:35:33:d3:6c:f8, 2015-01-01 00:54:41.125, 0.459, -0.38, 0.794, 0.244, 0.244, 0.183, -25.527, -27.537, -171.112, -15.967, -2.280, -29.527, 30.48, -0.02005, 0.24823, -0.19629, 0.94833,
 14:31:58.156,ed:40:fe:65:30:6c, 2015-01-01 00:54:52.985, 0.68, -0.177, 0.719, 0.183, 0, 0, -13.563, -42.49, -114.28, -22.867, -6.653, -2.260, 25.63, -0.46619, 0.36194, 0.10278, 0.8006,
 14:31:58.156,ed:40:fe:65:30:6c, 2015-01-01 00:54:52.985, 0.678, -0.176, 0.718, 0.305, 0, 0, -13.557, -42.49, -114.28, -22.867, -6.653, -2.260, 25.63, -0.46619, 0.36194, 0.10278, 0.8006,
 14:31:58.166,f6:90:cc:01:6d:25, 2015-01-01 00:54:39.905, 0.932, -0.319, 0.075, 0.305, 0.183, 0, -76.74, -70.735, -100.596, -31.573, -6.153, -1.760, 31.54, -0.13199, 0.67245, -0.0994, 0.72141,
 14:31:58.166,f6:90:cc:01:6d:25, 2015-01-01 00:54:39.905, 0.931, -0.317, 0.074, 0.488, 0.244, 0, -76.723, -70.735, -100.613, -31.573, -6.153, -1.760, 31.54, -0.13199, 0.67245, -0.0994, 0.72141,
 14:31:58.187,ed:40:fe:65:30:6c, 2015-01-01 00:54:52.985, 0.677, -0.173, 0.718, 0.244, 0.061, 0, -13.552, -42.49, -114.28, -22.867, -6.653, -2.260, 25.63, -0.46619, 0.36194, 0.10278, 0.8006,
 14:31:58.187,ed:40:fe:65:30:6c, 2015-01-01 00:54:52.985, 0.677, -0.172, 0.718, 0.366, 0.244, 0, -13.546, -42.49, -114.28, -22.867, -6.653, -2.260, 25.63, -0.46619, 0.36194, 0.10278, 0.8006,
 14:31:58.189,e3:ca:2d:fd:e0:8c, 2015-01-01 00:54:42.515, 1.006, -0.149, -0.086, 0.061, -0.061, 0, -121.185, -80.239, -83.6, -26.880, -9.880, -4.073, 29.58, 0.0943, 0.70749, -0.20816, 0.66867,
 14:31:58.189,e3:ca:2d:fd:e0:8c, 2015-01-01 00:54:42.515, 1.007, -0.147, -0.087, 0.122, -0.061, 0, -121.179, -80.239, -83.595, -26.880, -9.880, -4.073, 29.58, 0.0943, 0.70749, -0.20816, 0.66867,
 14:31:58.193,ed:35:33:d3:6c:f8, 2015-01-01 00:54:41.125, 0.458, -0.379, 0.793, 0.122, 0.305, 0.061, -25.521, -27.532, -171.107, -15.967, -2.280, -29.527, 30.48, -0.02005, 0.24823, -0.19629, 0.94833,
 14:31:58.193,ed:35:33:d3:6c:f8, 2015-01-01 00:54:41.125, 0.457, -0.375, 0.792, 0.427, 0.061, 0, -25.516, -27.532, -171.101, -15.967, -2.280, -29.527, 30.48, -0.02005, 0.24823, -0.19629, 0.94833,
 14:31:58.196,f6:90:cc:01:6d:25, 2015-01-01 00:54:39.905, 0.929, -0.318, 0.074, 0.366, 0.366, 0, -76.701, -70.735, -100.629, -31.573, -6.153, -1.760, 31.54, -0.13199, 0.67245, -0.0994, 0.72141,
 14:31:58.196,f6:90:cc:01:6d:25, 2015-01-01 00:54:39.905, 0.931, -0.316, 0.072, -0.061, 0.305, 0, -76.679, -70.73, -100.646, -31.573, -6.153, -1.760, 31.54, -0.13199, 0.67245, -0.0994, 0.72141,
 14:31:58.226,f6:90:cc:01:6d:25, 2015-01-01 00:54:39.905, 0.936, -0.318, 0.074, -0.122, 0.122, 0, -76.674, -70.73, -100.657, -31.573, -6.153, -1.760, 31.54, -0.13199, 0.67245, -0.0994, 0.72141,
 14:31:58.226,f6:90:cc:01:6d:25, 2015-01-01 00:54:39.905, 0.935, -0.318, 0.074, 0.061, 0, 0, -76.674, -70.73, -100.657, -31.573, -6.153, -1.760, 31.54, -0.13199, 0.67245, -0.0994, 0.72141,
 14:31:58.245,ed:40:fe:65:30:6c, 2015-01-01 00:54:53.340, 0.682, -0.174, 0.72, 0.122, 0.061, 0, -13.546, -42.484, -114.28, -22.867, -6.653, -2.260, 25.63, -0.46619, 0.36194, 0.10278, 0.8006,
 14:31:58.245,ed:40:fe:65:30:6c, 2015-01-01 00:54:53.340, 0.681, -0.178, 0.721, 0, 0, 0, -13.546, -42.484, -114.28, -22.867, -6.653, -2.260, 25.63, -0.46619, 0.36194, 0.10278, 0.8006,
 14:31:58.252,ed:35:33:d3:6c:f8, 2015-01-01 00:54:41.125, 0.458, -0.375, 0.797, 0.305, 0, 0.244, -25.51, -27.532, -171.096, -15.967, -2.280, -29.527, 30.48, -0.02103, 0.24802, -0.19589, 0.94846,
 14:31:58.252,ed:35:33:d3:6c:f8, 2015-01-01 00:54:41.125, 0.462, -0.38, 0.797, -0.183, 0, 0.122, -25.51, -27.526, -171.085, -15.967, -2.280, -29.527, 30.48, -0.02103, 0.24802, -0.19589, 0.94846,
 14:31:58.252,ed:35:33:d3:6c:f8, 2015-01-01 00:54:41.125, 0.458, -0.382, 0.798, 0.061, -0.122, 0.061, -25.51, -27.526, -171.079, -15.967, -2.280, -29.527, 30.48, -0.02103, 0.24802, -0.19589, 0.94846,
 14:31:58.252,ed:35:33:d3:6c:f8, 2015-01-01 00:54:41.125, 0.46, -0.379, 0.799, 0.366, -0.122, 0, -25.505, -27.532, -171.074, -15.967, -2.280, -29.527, 30.48, -0.02103, 0.24802, -0.19589, 0.94846,
 14:31:58.275,ed:40:fe:65:30:6c, 2015-01-01 00:54:53.340, 0.679, -0.176, 0.722, 0.244, 0, 0, -13.546, -42.484, -114.28, -22.867, -6.653, -2.260, 25.63, -0.46619, 0.36194, 0.10278, 0.8006,
 14:31:58.275,ed:40:fe:65:30:6c, 2015-01-01 00:54:53.340, 0.681, -0.174, 0.72, 0.366, -0.122, 0, -13.541, -42.49, -114.28, -22.867, -6.653, -2.260, 25.63, -0.46619, 0.36194, 0.10278, 0.8006,
 14:31:58.280,e3:ca:2d:fd:e0:8c, 2015-01-01 00:54:42.515, 1.006, -0.148, -0.088, 0.061, 0, 0, -121.174, -80.239, -83.6, -26.880, -9.880, -4.073, 29.58, 0.0943, 0.70749, -0.20816, 0.66867,
 14:31:58.280,e3:ca:2d:fd:e0:8c, 2015-01-01 00:54:42.515, 1.009, -0.147, -0.088, -0.061, 0, 0, -121.168, -80.239, -83.6, -26.880, -9.880, -4.073, 29.58, 0.0943, 0.70749, -0.20816, 0.66867,
 14:31:58.286,f6:90:cc:01:6d:25, 2015-01-01 00:54:39.905, 0.933, -0.318, 0.073, 0.122, 0, 0, -76.674, -70.73, -100.657, -31.573, -6.153, -1.760, 31.54, -0.13199, 0.67245, -0.0994, 0.72141,
 14:31:58.286,f6:90:cc:01:6d:25, 2015-01-01 00:54:39.905, 0.933, -0.317, 0.073, 0.244, 0, 0, -76.674, -70.73, -100.657, -31.573, -6.153, -1.760, 31.54, -0.13199, 0.67245, -0.0994, 0.72141,
 14:31:58.306,ed:40:fe:65:30:6c, 2015-01-01 00:54:53.340, 0.679, -0.173, 0.716, 0.305, 0, 0, -13.535, -42.49, -114.28, -22.867, -6.653, -2.260, 25.63, -0.46619, 0.36194, 0.10278, 0.8006,
 14:31:58.306,ed:40:fe:65:30:6c, 2015-01-01 00:54:53.340, 0.678, -0.173, 0.716, 0.183, 0.061, 0, -13.53, -42.49, -114.28, -22.867, -6.653, -2.260, 25.63, -0.46619, 0.36194, 0.10278, 0.8006,
 14:31:58.310,e3:ca:2d:fd:e0:8c, 2015-01-01 00:54:42.515, 1.009, -0.149, -0.089, 0, 0, 0, -121.163, -80.239, -83.606, -26.880, -9.880, -4.073, 29.58, 0.0943, 0.70749, -0.20816, 0.66867,
 14:31:58.310,e3:ca:2d:fd:e0:8c, 2015-01-01 00:54:42.515, 1.009, -0.148, -0.09, 0.061, 0, 0, -121.157, -80.244, -83.606, -26.880, -9.880, -4.073, 29.58, 0.0943, 0.70749, -0.20816, 0.66867,
 14:31:58.312,ed:35:33:d3:6c:f8, 2015-01-01 00:54:41.125, 0.461, -0.376, 0.793, 0.366, -0.244, -0.061, -25.499, -27.532, -171.068, -15.967, -2.280, -29.527, 30.48, -0.02103, 0.24802, -0.19589, 0.94846,
 14:31:58.312,ed:35:33:d3:6c:f8, 2015-01-01 00:54:41.125, 0.459, -0.375, 0.792, 0.183, 0.122, -0.061, -25.488, -27.537, -171.063, -15.967, -2.280, -29.527, 30.48, -0.02103, 0.24802, -0.19589, 0.94846,
 14:31:58.316,f6:90:cc:01:6d:25, 2015-01-01 00:54:39.905, 0.931, -0.317, 0.072, 0.305, 0.061, 0, -76.668, -70.73, -100.657, -31.573, -6.287, 0.213, 31.54, -0.13199, 0.67245, -0.0994, 0.72141,
 14:31:58.316,f6:90:cc:01:6d:25, 2015-01-01 00:54:39.905, 0.931, -0.317, 0.073, 0.244, 0.122, 0, -76.663, -70.73, -100.662, -31.573, -6.287, 0.213, 31.54, -0.13199, 0.67245, -0.0994, 0.72141,
 14:31:58.342,ed:35:33:d3:6c:f8, 2015-01-01 00:54:41.570, 0.459, -0.376, 0.793, 0.061, 0.061, 0, -25.488, -27.537, -171.063, -15.967, -2.280, -29.527, 30.48, -0.02103, 0.24802, -0.19589, 0.94846,
 14:31:58.342,ed:35:33:d3:6c:f8, 2015-01-01 00:54:41.570, 0.458, -0.377, 0.795, 0.122, 0.061, 0.061, -25.483, -27.532, -171.057, -15.967, -2.280, -29.527, 30.48, -0.02103, 0.24802, -0.19589, 0.94846,
 14:31:58.346,f6:90:cc:01:6d:25, 2015-01-01 00:54:39.905, 0.932, -0.317, 0.074, 0.061, 0.122, 0, -76.657, -70.73, -100.668, -31.573, -6.287, 0.213, 31.54, -0.13199, 0.67245, -0.0994, 0.72141,
 14:31:58.346,f6:90:cc:01:6d:25, 2015-01-01 00:54:39.905, 0.932, -0.318, 0.075, 0.061, 0.122, 0, -76.652, -70.73, -100.673, -31.573, -6.287, 0.213, 31.54, -0.13199, 0.67245, -0.0994, 0.72141,
 14:31:58.366,ed:40:fe:65:30:6c, 2015-01-01 00:54:53.340, 0.679, -0.175, 0.718, 0.183, 0.061, 0, -13.53, -42.49, -114.28, -22.867, -6.653, -2.260, 25.63, -0.46619, 0.36194, 0.10278, 0.8006,
 14:31:58.366,ed:40:fe:65:30:6c, 2015-01-01 00:54:53.340, 0.679, -0.174, 0.72, 0.244, 0.183, 0, -13.524, -42.49, -114.28, -22.867, -6.653, -2.260, 25.63, -0.46619, 0.36194, 0.10278, 0.8006,
 14:31:58.369,e3:ca:2d:fd:e0:8c, 2015-01-01 00:54:42.515, 1.007, -0.148, -0.09, 0.061, -0.061, 0, -121.157, -80.239, -83.606, -26.880, -9.880, -4.073, 29.58, 0.0943, 0.70749, -0.20816, 0.66867,
 14:31:58.369,e3:ca:2d:fd:e0:8c, 2015-01-01 00:54:42.515, 1.006, -0.148, -0.089, 0.061, 0, 0, -121.152, -80.239, -83.606, -26.880, -9.880, -4.073, 29.58, 0.0943, 0.70749, -0.20816, 0.66867,
 14:31:58.372,ed:35:33:d3:6c:f8, 2015-01-01 00:54:41.570, 0.459, -0.377, 0.798, 0.305, 0.061, 0.183, -25.483, -27.532, -171.052, -15.967, -2.280, -29.527, 30.48, -0.02103, 0.24802, -0.19589, 0.94846,
 14:31:58.372,ed:35:33:d3:6c:f8, 2015-01-01 00:54:41.570, 0.459, -0.376, 0.798, 0.427, 0.305, 0.305, -25.472, -27.526, -171.046, -15.967, -2.280, -29.527, 30.48, -0.02103, 0.24802, -0.19589, 0.94846,
 14:31:58.396,ed:40:fe:65:30:6c, 2015-01-01 00:54:53.340, 0.68, -0.174, 0.721, 0.305, 0.122, 0, -13.519, -42.49, -114.28, -22.867, -6.653, -2.260, 25.63, -0.46619, 0.36194, 0.10278, 0.8006,
 14:31:58.396,ed:40:fe:65:30:6c, 2015-01-01 00:54:53.340, 0.68, -0.173, 0.72, 0.244, 0.122, 0, -13.519, -42.484, -114.28, -22.867, -6.653, -2.260, 25.63, -0.46619, 0.36194, 0.10278, 0.8006,
 14:31:58.398,e3:ca:2d:fd:e0:8c, 2015-01-01 00:54:42.515, 1.006, -0.148, -0.088, 0, 0, 0, -121.152, -80.244, -83.611, -26.880, -9.880, -4.073, 29.58, 0.0943, 0.70749, -0.20816, 0.66867,
 14:31:58.398,e3:ca:2d:fd:e0:8c, 2015-01-01 00:54:42.515, 1.007, -0.148, -0.087, 0, 0, 0, -121.146, -80.244, -83.611, -26.880, -9.880, -4.073, 29.58, 0.0943, 0.70749, -0.20816, 0.66867,
 14:31:58.406,f6:90:cc:01:6d:25, 2015-01-01 00:54:39.905, 0.933, -0.317, 0.074, 0.061, 0.122, 0, -76.646, -70.73, -100.679, -31.573, -6.287, 0.213, 31.54, -0.13199, 0.67227, -0.09949, 0.72153,
 14:31:58.406,f6:90:cc:01:6d:25, 2015-01-01 00:54:39.905, 0.934, -0.317, 0.075, 0, 0.122, 0, -76.641, -70.724, -100.684, -31.573, -6.287, 0.213, 31.54, -0.13199, 0.67227, -0.09949, 0.72153,
 14:31:58.456,ed:40:fe:65:30:6c, 2015-01-01 00:54:53.340, 0.678, -0.174, 0.72, 0.183, 0.122, 0, -13.513, -42.484, -114.28, -23.120, -6.927, -2.500, 25.63, -0.46619, 0.36194, 0.10278, 0.8006,
 14:31:58.456,ed:40:fe:65:30:6c, 2015-01-01 00:54:53.340, 0.68, -0.175, 0.721, 0.061, 0.183, 0, -13.513, -42.484, -114.28, -23.120, -6.927, -2.500, 25.63, -0.46619, 0.36194, 0.10278, 0.8006,
 14:31:58.462,ed:35:33:d3:6c:f8, 2015-01-01 00:54:41.570, 0.459, -0.377, 0.796, 0.122, -0.061, 0.183, -25.466, -27.521, -171.035, -15.967, -2.280, -29.527, 30.48, -0.02103, 0.24802, -0.19589, 0.94846,
 14:31:58.462,ed:35:33:d3:6c:f8, 2015-01-01 00:54:41.570, 0.457, -0.376, 0.796, 0.122, 0.366, 0.183, -25.466, -27.521, -171.03, -15.967, -2.280, -29.527, 30.48, -0.02103, 0.24802, -0.19589, 0.94846,
 14:31:58.462,ed:35:33:d3:6c:f8, 2015-01-01 00:54:41.570, 0.459, -0.379, 0.795, 0.183, 0.671, 0.244, -25.461, -27.51, -171.03, -15.967, -2.280, -29.527, 30.48, -0.02103, 0.24802, -0.19589, 0.94846,
 14:31:58.462,ed:35:33:d3:6c:f8, 2015-01-01 00:54:41.570, 0.458, -0.379, 0.799, -0.061, 0.305, -0.061, -25.455, -27.499, -171.024, -15.967, -2.280, -29.527, 30.48, -0.02103, 0.24802, -0.19589, 0.94846,
 14:31:58.466,f6:90:cc:01:6d:25, 2015-01-01 00:54:40.320, 0.932, -0.316, 0.075, 0.122, 0.122, 0, -76.635, -70.724, -100.69, -31.573, -6.287, 0.213, 31.54, -0.13199, 0.67227, -0.09949, 0.72153,
 14:31:58.466,f6:90:cc:01:6d:25, 2015-01-01 00:54:40.320, 0.934, -0.318, 0.076, 0, 0.122, 0, -76.63, -70.724, -100.695, -31.573, -6.287, 0.213, 31.54, -0.13199, 0.67227, -0.09949, 0.72153,
 14:31:58.466,f6:90:cc:01:6d:25, 2015-01-01 00:54:40.320, 0.933, -0.318, 0.076, -0.061, 0.061, 0, -76.624, -70.724, -100.701, -31.573, -6.287, 0.213, 31.54, -0.13199, 0.67227, -0.09949, 0.72153,
 14:31:58.466,f6:90:cc:01:6d:25, 2015-01-01 00:54:40.320, 0.931, -0.319, 0.075, -0.183, 0, 0, -76.63, -70.724, -100.701, -31.573, -6.287, 0.213, 31.54, -0.13199, 0.67227, -0.09949, 0.72153,
 14:31:58.486,ed:40:fe:65:30:6c, 2015-01-01 00:54:53.340, 0.681, -0.177, 0.721, 0, 0.183, 0, -13.513, -42.479, -114.28, -23.120, -6.927, -2.500, 25.63, -0.46619, 0.36194, 0.10278, 0.8006,
 14:31:58.486,ed:40:fe:65:30:6c, 2015-01-01 00:54:53.340, 0.678, -0.173, 0.72, 0, 0.122, 0, -13.513, -42.479, -114.285, -23.120, -6.927, -2.500, 25.63, -0.46619, 0.36194, 0.10278, 0.8006,
 14:31:58.488,e3:ca:2d:fd:e0:8c, 2015-01-01 00:54:42.515, 1.007, -0.148, -0.087, 0, 0, 0, -121.141, -80.244, -83.617, -26.780, -9.993, -4.373, 29.58, 0.0943, 0.70749, -0.20816, 0.66867,
 14:31:58.488,e3:ca:2d:fd:e0:8c, 2015-01-01 00:54:42.515, 1.008, -0.148, -0.087, 0, 0, 0, -121.141, -80.244, -83.617, -26.780, -9.993, -4.373, 29.58, 0.0943, 0.70749, -0.20816, 0.66867,
 14:31:58.490,e3:ca:2d:fd:e0:8c, 2015-01-01 00:54:42.515, 1.008, -0.148, -0.087, 0, 0, 0, -121.135, -80.244, -83.622, -26.780, -9.993, -4.373, 29.58, 0.0943, 0.70749, -0.20816, 0.66867,
 14:31:58.490,e3:ca:2d:fd:e0:8c, 2015-01-01 00:54:42.515, 1.007, -0.148, -0.087, 0, 0, 0, -121.13, -80.244, -83.622, -26.780, -9.993, -4.373, 29.58, 0.0943, 0.70749, -0.20816, 0.66867,
 14:31:58.492,ed:35:33:d3:6c:f8, 2015-01-01 00:54:41.570, 0.457, -0.375, 0.798, -0.061, -0.122, 0, -25.455, -27.499, -171.024, -15.967, -2.280, -29.527, 30.48, -0.02103, 0.24802, -0.19589, 0.94846,
 14:31:58.492,ed:35:33:d3:6c:f8, 2015-01-01 00:54:41.570, 0.456, -0.376, 0.796, -0.183, 0, 0.122, -25.461, -27.499, -171.019, -15.967, -2.280, -29.527, 30.48, -0.02103, 0.24802, -0.19589, 0.94846,
 14:31:58.515,ed:40:fe:65:30:6c, 2015-01-01 00:54:53.340, 0.677, -0.173, 0.719, 0, 0, 0, -13.513, -42.479, -114.285, -23.120, -6.927, -2.500, 25.63, -0.46634, 0.36169, 0.103, 0.80063,
 14:31:58.515,ed:40:fe:65:30:6c, 2015-01-01 00:54:53.340, 0.677, -0.173, 0.721, -0.122, 0, 0, -13.519, -42.479, -114.285, -23.120, -6.927, -2.500, 25.63, -0.46634, 0.36169, 0.103, 0.80063,
 14:31:58.519,e3:ca:2d:fd:e0:8c, 2015-01-01 00:54:42.515, 1.007, -0.149, -0.088, 0, 0, 0, -121.124, -80.244, -83.628, -26.780, -9.993, -4.373, 29.58, 0.0943, 0.70749, -0.20816, 0.66867,
 14:31:58.519,e3:ca:2d:fd:e0:8c, 2015-01-01 00:54:42.515, 1.008, -0.148, -0.087, 0, -0.122, 0, -121.13, -80.244, -83.617, -26.780, -9.993, -4.373, 29.58, 0.0943, 0.70749, -0.20816, 0.66867,
 14:31:58.526,f6:90:cc:01:6d:25, 2015-01-01 00:54:40.320, 0.931, -0.317, 0.074, -0.122, 0, 0, -76.635, -70.724, -100.701, -31.573, -6.287, 0.213, 31.54, -0.13199, 0.67227, -0.09949, 0.72153,
 14:31:58.526,f6:90:cc:01:6d:25, 2015-01-01 00:54:40.320, 0.932, -0.316, 0.074, -0.122, 0, 0, -76.635, -70.724, -100.701, -31.573, -6.287, 0.213, 31.54, -0.13199, 0.67227, -0.09949, 0.72153,
 14:31:58.546,ed:40:fe:65:30:6c, 2015-01-01 00:54:53.340, 0.679, -0.173, 0.721, -0.122, -0.183, 0, -13.524, -42.479, -114.28, -23.120, -6.927, -2.500, 25.63, -0.46634, 0.36169, 0.103, 0.80063,
 14:31:58.546,ed:40:fe:65:30:6c, 2015-01-01 00:54:53.340, 0.679, -0.174, 0.72, 0, -0.244, 0, -13.524, -42.484, -114.28, -23.120, -6.927, -2.500, 25.63, -0.46634, 0.36169, 0.103, 0.80063,
 14:31:58.549,e3:ca:2d:fd:e0:8c, 2015-01-01 00:54:42.515, 1.007, -0.148, -0.088, 0, -0.122, 0, -121.135, -80.244, -83.606, -26.780, -9.993, -4.373, 29.58, 0.0943, 0.70749, -0.20816, 0.66867,
 14:31:58.549,e3:ca:2d:fd:e0:8c, 2015-01-01 00:54:42.515, 1.006, -0.148, -0.088, 0, -0.122, 0, -121.141, -80.239, -83.595, -26.780, -9.993, -4.373, 29.58, 0.0943, 0.70749, -0.20816, 0.66867,
 14:31:58.552,ed:35:33:d3:6c:f8, 2015-01-01 00:54:41.570, 0.458, -0.375, 0.799, -0.366, -0.122, 0.061, -25.466, -27.499, -171.013, -15.967, -2.280, -29.527, 30.48, -0.02103, 0.24802, -0.19589, 0.94846,
 14:31:58.552,ed:35:33:d3:6c:f8, 2015-01-01 00:54:41.570, 0.458, -0.377, 0.798, -0.244, -0.244, 0.061, -25.472, -27.499, -171.008, -15.967, -2.280, -29.527, 30.48, -0.02103, 0.24802, -0.19589, 0.94846,
 14:31:58.556,f6:90:cc:01:6d:25, 2015-01-01 00:54:40.320, 0.934, -0.316, 0.075, 0, -0.122, 0, -76.646, -70.724, -100.69, -31.573, -6.287, 0.213, 31.54, -0.13199, 0.67227, -0.09949, 0.72153,
 14:31:58.556,f6:90:cc:01:6d:25, 2015-01-01 00:54:40.320, 0.931, -0.317, 0.076, 0.061, -0.183, 0, -76.652, -70.724, -100.679, -31.573, -6.287, 0.213, 31.54, -0.13199, 0.67227, -0.09949, 0.72153,
 14:31:58.580,e3:ca:2d:fd:e0:8c, 2015-01-01 00:54:42.515, 1.007, -0.149, -0.089, 0, -0.122, 0, -121.146, -80.239, -83.584, -26.780, -9.993, -4.373, 29.58, 0.09399, 0.70749, -0.20786, 0.66879,
 14:31:58.580,e3:ca:2d:fd:e0:8c, 2015-01-01 00:54:42.515, 1.008, -0.148, -0.089, 0.122, -0.183, 0, -121.157, -80.239, -83.573, -26.780, -9.993, -4.373, 29.58, 0.09399, 0.70749, -0.20786, 0.66879,
 14:31:58.582,ed:35:33:d3:6c:f8, 2015-01-01 00:54:41.570, 0.458, -0.377, 0.795, -0.122, -0.244, 0.122, -25.472, -27.504, -170.997, -15.440, -2.420, -29.607, 30.48, -0.02103, 0.24802, -0.19589, 0.94846,
 14:31:58.582,ed:35:33:d3:6c:f8, 2015-01-01 00:54:41.570, 0.46, -0.379, 0.795, -0.061, -0.061, 0.244, -25.477, -27.504, -170.991, -15.440, -2.420, -29.607, 30.48, -0.02103, 0.24802, -0.19589, 0.94846,
 14:31:58.586,f6:90:cc:01:6d:25, 2015-01-01 00:54:40.320, 0.932, -0.319, 0.074, 0, -0.122, 0, -76.663, -70.724, -100.673, -31.573, -6.287, 0.213, 31.54, -0.13199, 0.67227, -0.09949, 0.72153,
 14:31:58.586,f6:90:cc:01:6d:25, 2015-01-01 00:54:40.320, 0.934, -0.317, 0.073, 0, -0.061, 0, -76.668, -70.724, -100.668, -31.573, -6.287, 0.213, 31.54, -0.13199, 0.67227, -0.09949, 0.72153,
 14:31:58.605,ed:40:fe:65:30:6c, 2015-01-01 00:54:53.700, 0.681, -0.176, 0.719, 0.061, -0.183, 0, -13.524, -42.49, -114.28, -23.120, -6.927, -2.500, 25.63, -0.46634, 0.36169, 0.103, 0.80063,
 14:31:58.605,ed:40:fe:65:30:6c, 2015-01-01 00:54:53.700, 0.683, -0.177, 0.717, 0, -0.366, 0.305, -13.535, -42.495, -114.269, -23.120, -6.927, -2.500, 25.63, -0.46634, 0.36169, 0.103, 0.80063,
 14:31:58.609,e3:ca:2d:fd:e0:8c, 2015-01-01 00:54:42.515, 1.008, -0.148, -0.088, 0.061, -0.183, 0, -121.168, -80.239, -83.557, -26.780, -9.993, -4.373, 29.58, 0.09399, 0.70749, -0.20786, 0.66879,
 14:31:58.609,e3:ca:2d:fd:e0:8c, 2015-01-01 00:54:42.515, 1.007, -0.149, -0.088, 0, -0.183, 0, -121.179, -80.233, -83.54, -26.780, -9.993, -4.373, 29.58, 0.09399, 0.70749, -0.20786, 0.66879,
 14:31:58.645,f6:90:cc:01:6d:25, 2015-01-01 00:54:40.320, 0.935, -0.317, 0.072, 0.671, 0.122, 0, -76.657, -70.724, -100.668, -31.573, -6.287, 0.213, 31.54, -0.13199, 0.67227, -0.09949, 0.72153,
 14:31:58.645,f6:90:cc:01:6d:25, 2015-01-01 00:54:40.320, 0.932, -0.319, 0.073, 0.916, 0.244, 0, -76.63, -70.724, -100.679, -31.573, -6.287, 0.213, 31.54, -0.13199, 0.67227, -0.09949, 0.72153,
 14:31:58.667,ed:40:fe:65:30:6c, 2015-01-01 00:54:53.700, 0.684, -0.176, 0.716, 0.183, -0.366, 0.244, -13.541, -42.501, -114.263, -23.120, -6.927, -2.500, 25.63, -0.46634, 0.36169, 0.103, 0.80063,
 14:31:58.667,ed:40:fe:65:30:6c, 2015-01-01 00:54:53.700, 0.679, -0.175, 0.716, 0.366, -0.305, 0.427, -13.541, -42.506, -114.247, -23.120, -6.927, -2.500, 25.63, -0.46634, 0.36169, 0.103, 0.80063,
 14:31:58.670,e3:ca:2d:fd:e0:8c, 2015-01-01 00:54:42.515, 1.007, -0.148, -0.088, 0, -0.122, 0, -121.19, -80.233, -83.529, -26.780, -9.993, -4.373, 29.58, 0.09399, 0.70749, -0.20786, 0.66879,
 14:31:58.670,e3:ca:2d:fd:e0:8c, 2015-01-01 00:54:42.515, 1.008, -0.148, -0.088, 0, -0.061, 0, -121.19, -80.233, -83.524, -26.780, -9.993, -4.373, 29.58, 0.09399, 0.70749, -0.20786, 0.66879,
 14:31:58.671,ed:35:33:d3:6c:f8, 2015-01-01 00:54:41.570, 0.464, -0.38, 0.794, -0.366, -0.061, 0.183, -25.483, -27.504, -170.98, -15.440, -2.420, -29.607, 30.48, -0.02103, 0.24802, -0.19589, 0.94846,
 14:31:58.671,ed:35:33:d3:6c:f8, 2015-01-01 00:54:41.570, 0.46, -0.377, 0.793, -0.244, 0.061, 0.122, -25.488, -27.504, -170.975, -15.440, -2.420, -29.607, 30.48, -0.02103, 0.24802, -0.19589, 0.94846,
 14:31:58.673,ed:35:33:d3:6c:f8, 2015-01-01 00:54:41.570, 0.457, -0.379, 0.792, 0, 0.244, 0.366, -25.488, -27.499, -170.969, -15.440, -2.420, -29.607, 30.48, -0.02103, 0.24802, -0.19589, 0.94846,
 14:31:58.673,ed:35:33:d3:6c:f8, 2015-01-01 00:54:41.570, 0.457, -0.377, 0.793, 0.244, 0, 0.427, -25.488, -27.493, -170.958, -15.440, -2.420, -29.607, 30.48, -0.02222, 0.24799, -0.19534, 0.94855,
 14:31:58.674,f6:90:cc:01:6d:25, 2015-01-01 00:54:40.320, 0.927, -0.319, 0.073, 0.61, 0.305, 0, -76.602, -70.724, -100.695, -31.740, -5.933, -1.153, 31.54, -0.13199, 0.67227, -0.09949, 0.72153,
 14:31:58.674,f6:90:cc:01:6d:25, 2015-01-01 00:54:40.320, 0.934, -0.314, 0.076, -0.061, 0.427, 0, -76.58, -70.719, -100.717, -31.740, -5.933, -1.153, 31.54, -0.13199, 0.67227, -0.09949, 0.72153,
 14:31:58.696,ed:40:fe:65:30:6c, 2015-01-01 00:54:53.700, 0.674, -0.175, 0.718, 0.366, -0.061, 0.427, -13.546, -42.506, -114.236, -23.120, -6.927, -2.500, 25.63, -0.46634, 0.36169, 0.103, 0.80063,
 14:31:58.696,ed:40:fe:65:30:6c, 2015-01-01 00:54:53.700, 0.683, -0.176, 0.717, 0.183, 0, 0.244, -13.546, -42.506, -114.23, -23.120, -6.927, -2.500, 25.63, -0.46634, 0.36169, 0.103, 0.80063,
 14:31:58.700,e3:ca:2d:fd:e0:8c, 2015-01-01 00:54:43.020, 1.008, -0.149, -0.088, 0.122, -0.122, 0, -121.19, -80.233, -83.513, -26.780, -9.993, -4.373, 29.58, 0.09399, 0.70749, -0.20786, 0.66879,
 14:31:58.700,e3:ca:2d:fd:e0:8c, 2015-01-01 00:54:43.020, 1.006, -0.15, -0.088, 0.122, -0.061, 0, -121.19, -80.233, -83.513, -26.780, -9.993, -4.373, 29.58, 0.09399, 0.70749, -0.20786, 0.66879,
 14:31:58.700,e3:ca:2d:fd:e0:8c, 2015-01-01 00:54:43.020, 1.006, -0.148, -0.087, 0, 0, 0, -121.185, -80.233, -83.513, -26.780, -9.993, -4.373, 29.58, 0.09399, 0.70749, -0.20786, 0.66879,
 14:31:58.700,e3:ca:2d:fd:e0:8c, 2015-01-01 00:54:43.020, 1.008, -0.145, -0.088, 0.061, 0, 0, -121.179, -80.233, -83.513, -26.780, -9.993, -4.373, 29.58, 0.09399, 0.70749, -0.20786, 0.66879,
 14:31:58.702,ed:35:33:d3:6c:f8, 2015-01-01 00:54:41.570, 0.467, -0.379, 0.792, 0.366, -0.427, 0.244, -25.488, -27.493, -170.947, -15.440, -2.420, -29.607, 30.48, -0.02222, 0.24799, -0.19534, 0.94855,
 14:31:58.702,ed:35:33:d3:6c:f8, 2015-01-01 00:54:41.570, 0.457, -0.372, 0.79, 0.854, -0.854, 0.488, -25.483, -27.504, -170.925, -15.440, -2.420, -29.607, 30.48, -0.02222, 0.24799, -0.19534, 0.94855,
 14:31:58.706,f6:90:cc:01:6d:25, 2015-01-01 00:54:40.320, 0.937, -0.314, 0.075, -0.183, 0.183, 0, -76.575, -70.719, -100.734, -31.740, -5.933, -1.153, 31.54, -0.13199, 0.67227, -0.09949, 0.72153,
 14:31:58.706,f6:90:cc:01:6d:25, 2015-01-01 00:54:40.320, 0.931, -0.317, 0.08, 0, 0.183, 0, -76.569, -70.719, -100.745, -31.740, -5.933, -1.153, 31.54, -0.13199, 0.67227, -0.09949, 0.72153,
 14:31:58.726,ed:40:fe:65:30:6c, 2015-01-01 00:54:53.700, 0.682, -0.173, 0.714, 0.427, 0.305, 0.183, -13.546, -42.506, -114.225, -23.120, -6.927, -2.500, 25.63, -0.46634, 0.36169, 0.103, 0.80063,
 14:31:58.726,ed:40:fe:65:30:6c, 2015-01-01 00:54:53.700, 0.677, -0.171, 0.717, 0.671, 0.732, 0.183, -13.535, -42.495, -114.225, -23.120, -6.927, -2.500, 25.63, -0.46634, 0.36169, 0.103, 0.80063,
 14:31:58.729,e3:ca:2d:fd:e0:8c, 2015-01-01 00:54:43.020, 1.007, -0.147, -0.086, 0.061, -0.061, 0, -121.179, -80.233, -83.513, -26.780, -9.993, -4.373, 29.58, 0.09399, 0.70749, -0.20786, 0.66879,
 14:31:58.729,e3:ca:2d:fd:e0:8c, 2015-01-01 00:54:43.020, 1.006, -0.149, -0.088, 0, -0.061, 0, -121.179, -80.233, -83.507, -26.780, -9.993, -4.373, 29.58, 0.09399, 0.70749, -0.20786, 0.66879,
 14:31:58.756,ed:40:fe:65:30:6c, 2015-01-01 00:54:53.700, 0.679, -0.174, 0.721, 0.854, 0.916, 0.244, -13.519, -42.479, -114.225, -23.120, -6.927, -2.500, 25.63, -0.46634, 0.36169, 0.103, 0.80063,
 14:31:58.756,ed:40:fe:65:30:6c, 2015-01-01 00:54:53.700, 0.681, -0.176, 0.721, 0.61, 0.549, 0.061, -13.508, -42.468, -114.225, -23.120, -6.927, -2.500, 25.63, -0.46634, 0.36169, 0.103, 0.80063,
 14:31:58.762,ed:35:33:d3:6c:f8, 2015-01-01 00:54:41.570, 0.457, -0.375, 0.795, 1.587, -0.122, 0.916, -25.466, -27.51, -170.914, -15.440, -2.420, -29.607, 30.48, -0.02222, 0.24799, -0.19534, 0.94855,
 14:31:58.762,ed:35:33:d3:6c:f8, 2015-01-01 00:54:41.570, 0.458, -0.379, 0.799, 1.526, 0, 0.732, -25.439, -27.504, -170.925, -15.440, -2.420, -29.607, 30.48, -0.02222, 0.24799, -0.19534, 0.94855,
 14:31:58.766,f6:90:cc:01:6d:25, 2015-01-01 00:54:40.320, 0.932, -0.317, 0.072, 0.183, 0.061, 0, -76.558, -70.719, -100.75, -31.740, -5.933, -1.153, 31.54, -0.13208, 0.67209, -0.09943, 0.72168,
 14:31:58.766,f6:90:cc:01:6d:25, 2015-01-01 00:54:40.320, 0.936, -0.316, 0.072, 0.061, 0.244, 0.305, -76.553, -70.714, -100.756, -31.740, -5.933, -1.153, 31.54, -0.13208, 0.67209, -0.09943, 0.72168,
 14:31:58.789,e3:ca:2d:fd:e0:8c, 2015-01-01 00:54:43.020, 1.008, -0.148, -0.089, 0.061, 0.061, 0, -121.163, -80.233, -83.518, -26.780, -9.993, -4.373, 29.58, 0.09399, 0.70749, -0.20786, 0.66879,
 14:31:58.789,e3:ca:2d:fd:e0:8c, 2015-01-01 00:54:43.020, 1.009, -0.146, -0.088, 0, 0.122, 0, -121.146, -80.239, -83.529, -26.780, -9.993, -4.373, 29.58, 0.09399, 0.70749, -0.20786, 0.66879,
 14:31:58.791,ed:35:33:d3:6c:f8, 2015-01-01 00:54:42.015, 0.461, -0.379, 0.801, 0.61, 0.244, 0.183, -25.422, -27.499, -170.942, -15.440, -2.420, -29.607, 30.48, -0.02222, 0.24799, -0.19534, 0.94855,
 14:31:58.791,ed:35:33:d3:6c:f8, 2015-01-01 00:54:42.015, 0.458, -0.377, 0.799, 0.244, 0.366, -0.244, -25.411, -27.493, -170.947, -15.440, -2.420, -29.607, 30.48, -0.02222, 0.24799, -0.19534, 0.94855,
 14:31:58.795,f6:90:cc:01:6d:25, 2015-01-01 00:54:40.680, 0.935, -0.315, 0.076, -0.183, 0.305, 0.244, -76.547, -70.708, -100.767, -31.740, -5.933, -1.153, 31.54, -0.13208, 0.67209, -0.09943, 0.72168,
 14:31:58.795,f6:90:cc:01:6d:25, 2015-01-01 00:54:40.680, 0.93, -0.315, 0.074, -0.244, 0.305, 0.183, -76.536, -70.703, -100.783, -31.740, -5.933, -1.153, 31.54, -0.13208, 0.67209, -0.09943, 0.72168,
 14:31:58.815,ed:40:fe:65:30:6c, 2015-01-01 00:54:53.700, 0.681, -0.172, 0.723, 0.183, 0.366, -0.183, -13.502, -42.457, -114.23, -22.847, -7.027, -2.227, 25.63, -0.46634, 0.36169, 0.103, 0.80063,
 14:31:58.815,ed:40:fe:65:30:6c, 2015-01-01 00:54:53.700, 0.676, -0.172, 0.721, 0, 0.244, -0.305, -13.497, -42.457, -114.241, -22.847, -7.027, -2.227, 25.63, -0.46634, 0.36169, 0.103, 0.80063,
 14:31:58.819,e3:ca:2d:fd:e0:8c, 2015-01-01 00:54:43.020, 1.009, -0.146, -0.09, 0, 0, 0, -121.146, -80.239, -83.535, -26.780, -9.993, -4.373, 29.58, 0.09399, 0.70749, -0.20786, 0.66879,
 14:31:58.819,e3:ca:2d:fd:e0:8c, 2015-01-01 00:54:43.020, 1.007, -0.149, -0.09, 0, 0, 0, -121.146, -80.239, -83.535, -26.780, -9.993, -4.373, 29.58, 0.09399, 0.70749, -0.20786, 0.66879,
 14:31:58.820,ed:35:33:d3:6c:f8, 2015-01-01 00:54:42.015, 0.456, -0.373, 0.8, 0, 0.61, -0.427, -25.406, -27.488, -170.958, -15.440, -2.420, -29.607, 30.48, -0.02222, 0.24799, -0.19534, 0.94855,
 14:31:58.820,ed:35:33:d3:6c:f8, 2015-01-01 00:54:42.015, 0.458, -0.373, 0.797, -0.183, 0.183, -0.305, -25.4, -27.482, -170.964, -15.440, -2.420, -29.607, 30.48, -0.02222, 0.24799, -0.19534, 0.94855,
 14:31:58.844,ed:40:fe:65:30:6c, 2015-01-01 00:54:53.700, 0.677, -0.172, 0.721, -0.061, 0.122, -0.305, -13.491, -42.457, -114.247, -22.847, -7.027, -2.227, 25.63, -0.46671, 0.36142, 0.10321, 0.80051,
 14:31:58.844,ed:40:fe:65:30:6c, 2015-01-01 00:54:53.700, 0.677, -0.175, 0.719, -0.061, 0.061, -0.061, -13.491, -42.457, -114.252, -22.847, -7.027, -2.227, 25.63, -0.46671, 0.36142, 0.10321, 0.80051,
 14:31:58.849,e3:ca:2d:fd:e0:8c, 2015-01-01 00:54:43.020, 1.007, -0.151, -0.09, 0.061, 0, 0, -121.141, -80.239, -83.535, -26.780, -9.993, -4.373, 29.58, 0.09399, 0.70749, -0.20786, 0.66879,
 14:31:58.849,e3:ca:2d:fd:e0:8c, 2015-01-01 00:54:43.020, 1.007, -0.152, -0.09, 0.122, 0, 0, -121.135, -80.239, -83.54, -26.780, -9.993, -4.373, 29.58, 0.09399, 0.70749, -0.20786, 0.66879,
 14:31:58.855,f6:90:cc:01:6d:25, 2015-01-01 00:54:40.680, 0.929, -0.318, 0.073, -0.061, 0.122, 0.122, -76.536, -70.703, -100.789, -31.740, -5.933, -1.153, 31.54, -0.13208, 0.67209, -0.09943, 0.72168,
 14:31:58.855,f6:90:cc:01:6d:25, 2015-01-01 00:54:40.680, 0.93, -0.323, 0.072, 0.061, 0.122, 0.183, -76.536, -70.697, -100.789, -31.740, -5.933, -1.153, 31.54, -0.13208, 0.67209, -0.09943, 0.72168,
 14:31:58.882,ed:35:33:d3:6c:f8, 2015-01-01 00:54:42.015, 0.453, -0.375, 0.797, 0, 0, 0.183, -25.4, -27.482, -170.964, -15.440, -2.420, -29.607, 30.48, -0.02222, 0.24799, -0.19534, 0.94855,
 14:31:58.882,ed:35:33:d3:6c:f8, 2015-01-01 00:54:42.015, 0.457, -0.383, 0.797, 0, -0.183, 0.366, -25.4, -27.482, -170.958, -15.440, -2.420, -29.607, 30.48, -0.02222, 0.24799, -0.19534, 0.94855,
 14:31:58.886,f6:90:cc:01:6d:25, 2015-01-01 00:54:40.680, 0.929, -0.325, 0.073, 0.122, 0.122, 0.183, -76.536, -70.692, -100.794, -31.740, -5.933, -1.153, 31.54, -0.13208, 0.67209, -0.09943, 0.72168,
 14:31:58.886,f6:90:cc:01:6d:25, 2015-01-01 00:54:40.680, 0.931, -0.323, 0.076, 0.122, 0, 0.183, -76.536, -70.692, -100.789, -31.740, -5.933, -1.153, 31.54, -0.13208, 0.67209, -0.09943, 0.72168,
 14:31:58.906,ed:40:fe:65:30:6c, 2015-01-01 00:54:53.700, 0.675, -0.178, 0.721, 0.061, 0, 0.183, -13.491, -42.457, -114.247, -22.847, -7.027, -2.227, 25.63, -0.46671, 0.36142, 0.10321, 0.80051,
 14:31:58.906,ed:40:fe:65:30:6c, 2015-01-01 00:54:53.700, 0.679, -0.18, 0.72, 0.183, -0.122, 0.305, -13.497, -42.457, -114.241, -22.847, -7.027, -2.227, 25.63, -0.46671, 0.36142, 0.10321, 0.80051,
 14:31:58.911,ed:35:33:d3:6c:f8, 2015-01-01 00:54:42.015, 0.458, -0.38, 0.795, 0.122, 0, 0.427, -25.4, -27.482, -170.942, -15.440, -2.420, -29.607, 30.48, -0.02222, 0.24799, -0.19534, 0.94855,
 14:31:58.911,ed:35:33:d3:6c:f8, 2015-01-01 00:54:42.015, 0.457, -0.382, 0.796, 0.122, -0.305, 0.488, -25.406, -27.477, -170.914, -15.440, -2.420, -29.607, 30.48, -0.02222, 0.24799, -0.19534, 0.94855,
 14:31:58.935,ed:40:fe:65:30:6c, 2015-01-01 00:54:54.025, 0.679, -0.178, 0.719, 0.244, 0, 0.305, -13.502, -42.457, -114.23, -22.847, -7.027, -2.227, 25.63, -0.46671, 0.36142, 0.10321, 0.80051,
 14:31:58.935,ed:40:fe:65:30:6c, 2015-01-01 00:54:54.025, 0.678, -0.18, 0.721, 0.183, 0, 0.305, -13.502, -42.457, -114.225, -22.847, -7.027, -2.227, 25.63, -0.46671, 0.36142, 0.10321, 0.80051,
 14:31:58.939,e3:ca:2d:fd:e0:8c, 2015-01-01 00:54:43.020, 1.006, -0.153, -0.087, 0.061, 0, 0, -121.135, -80.239, -83.54, -26.780, -9.993, -4.373, 29.58, 0.09399, 0.70749, -0.20786, 0.66879,
 14:31:58.939,e3:ca:2d:fd:e0:8c, 2015-01-01 00:54:43.020, 1.008, -0.152, -0.087, 0.061, 0.061, 0, -121.119, -80.239, -83.551, -26.780, -9.993, -4.373, 29.58, 0.09399, 0.70749, -0.20786, 0.66879,
 14:31:58.941,ed:35:33:d3:6c:f8, 2015-01-01 00:54:42.015, 0.456, -0.383, 0.797, 0.122, -0.488, 0.488, -25.406, -27.482, -170.892, -15.440, -2.420, -29.607, 30.48, -0.02222, 0.24799, -0.19534, 0.94855,
 14:31:58.941,ed:35:33:d3:6c:f8, 2015-01-01 00:54:42.015, 0.459, -0.382, 0.794, 0, -0.305, 0.244, -25.411, -27.482, -170.876, -15.440, -2.420, -29.607, 30.48, -0.02222, 0.24799, -0.19534, 0.94855,
 14:31:58.944,f6:90:cc:01:6d:25, 2015-01-01 00:54:40.680, 0.933, -0.323, 0.075, 0.122, 0, 0.122, -76.542, -70.686, -100.789, -31.740, -5.933, -1.153, 31.54, -0.13208, 0.67209, -0.09943, 0.72168,
 14:31:58.944,f6:90:cc:01:6d:25, 2015-01-01 00:54:40.680, 0.933, -0.322, 0.076, 0.183, 0.061, 0.122, -76.542, -70.681, -100.789, -31.740, -5.933, -1.153, 31.54, -0.13208, 0.67209, -0.09943, 0.72168,
 14:31:58.966,ed:40:fe:65:30:6c, 2015-01-01 00:54:54.025, 0.678, -0.181, 0.721, 0.183, -0.061, 0.305, -13.513, -42.451, -114.214, -22.847, -7.027, -2.227, 25.63, -0.46671, 0.36142, 0.10321, 0.80051,
 14:31:58.966,ed:40:fe:65:30:6c, 2015-01-01 00:54:54.025, 0.679, -0.178, 0.719, 0.305, 0, 0.183, -13.513, -42.451, -114.208, -22.847, -7.027, -2.227, 25.63, -0.46671, 0.36142, 0.10321, 0.80051,
 14:31:58.969,e3:ca:2d:fd:e0:8c, 2015-01-01 00:54:43.020, 1.007, -0.151, -0.087, 0, 0, 0, -121.113, -80.239, -83.551, -26.640, -10.207, -3.913, 29.58, 0.09399, 0.70749, -0.20786, 0.66879,
 14:31:58.969,e3:ca:2d:fd:e0:8c, 2015-01-01 00:54:43.020, 1.006, -0.149, -0.086, 0.061, 0, 0, -121.102, -80.233, -83.551, -26.640, -10.207, -3.913, 29.58, 0.09399, 0.70749, -0.20786, 0.66879,
 14:31:58.977,f6:90:cc:01:6d:25, 2015-01-01 00:54:40.680, 0.931, -0.322, 0.079, 0.427, 0.122, 0, -76.531, -70.675, -100.794, -31.740, -5.933, -1.153, 31.54, -0.13208, 0.67209, -0.09943, 0.72168,
 14:31:58.977,f6:90:cc:01:6d:25, 2015-01-01 00:54:40.680, 0.933, -0.319, 0.076, 0.61, 0.122, -0.183, -76.509, -70.681, -100.805, -31.740, -5.933, -1.153, 31.54, -0.13208, 0.67209, -0.09943, 0.72168,
 14:31:58.995,ed:40:fe:65:30:6c, 2015-01-01 00:54:54.025, 0.677, -0.176, 0.719, 0.366, 0.183, 0.122, -13.513, -42.451, -114.208, -22.847, -7.027, -2.227, 25.63, -0.46671, 0.36142, 0.10321, 0.80051,
 14:31:58.995,ed:40:fe:65:30:6c, 2015-01-01 00:54:54.025, 0.676, -0.175, 0.718, 0.427, 0.244, 0.244, -13.508, -42.446, -114.203, -22.847, -7.027, -2.227, 25.63, -0.46671, 0.36142, 0.10321, 0.80051,
 14:31:59.000,e3:ca:2d:fd:e0:8c, 2015-01-01 00:54:43.020, 1.006, -0.149, -0.084, 0, -0.122, 0, -121.097, -80.233, -83.551, -26.640, -10.207, -3.913, 29.58, 0.09399, 0.70749, -0.20786, 0.66879,
 14:31:59.000,e3:ca:2d:fd:e0:8c, 2015-01-01 00:54:43.020, 1.007, -0.147, -0.086, -0.183, 0, -0.305, -121.102, -80.233, -83.54, -26.640, -10.207, -3.913, 29.58, 0.09399, 0.70749, -0.20786, 0.66879,
 14:31:59.001,ed:35:33:d3:6c:f8, 2015-01-01 00:54:42.015, 0.458, -0.377, 0.795, 0.244, 0.061, 0.061, -25.411, -27.482, -170.859, -15.440, -2.420, -29.607, 30.48, -0.02222, 0.24799, -0.19534, 0.94855,
 14:31:59.001,ed:35:33:d3:6c:f8, 2015-01-01 00:54:42.015, 0.455, -0.375, 0.795, 0.61, 0.183, 0.427, -25.406, -27.477, -170.848, -15.440, -2.420, -29.607, 30.48, -0.02222, 0.24799, -0.19534, 0.94855,
 14:31:59.005,f6:90:cc:01:6d:25, 2015-01-01 00:54:40.680, 0.93, -0.322, 0.078, 0.366, 0.183, -0.244, -76.492, -70.681, -100.816, -31.573, -6.347, -2.127, 31.54, -0.13208, 0.67209, -0.09943, 0.72168,
 14:31:59.005,f6:90:cc:01:6d:25, 2015-01-01 00:54:40.680, 0.929, -0.315, 0.075, -0.061, 0.183, -0.122, -76.481, -70.681, -100.827, -31.573, -6.347, -2.127, 31.54, -0.13208, 0.67209, -0.09943, 0.72168,
 14:31:59.029,e3:ca:2d:fd:e0:8c, 2015-01-01 00:54:43.020, 1.008, -0.147, -0.087, -0.305, 0, -0.244, -121.113, -80.239, -83.524, -26.640, -10.207, -3.913, 29.58, 0.09338, 0.70767, -0.20724, 0.66891,
 14:31:59.029,e3:ca:2d:fd:e0:8c, 2015-01-01 00:54:43.020, 1.008, -0.147, -0.088, -0.244, -0.061, -0.244, -121.124, -80.244, -83.507, -26.640, -10.207, -3.913, 29.58, 0.09338, 0.70767, -0.20724, 0.66891,
 14:31:59.031,ed:35:33:d3:6c:f8, 2015-01-01 00:54:42.015, 0.458, -0.38, 0.796, 0, 0.061, 0.244, -25.406, -27.471, -170.843, -16.013, -2.080, -29.280, 30.48, -0.02222, 0.24799, -0.19534, 0.94855,
 14:31:59.031,ed:35:33:d3:6c:f8, 2015-01-01 00:54:42.015, 0.458, -0.38, 0.799, -0.549, 0, -0.183, -25.411, -27.471, -170.848, -16.013, -2.080, -29.280, 30.48, -0.02222, 0.24799, -0.19534, 0.94855,
 14:31:59.036,f6:90:cc:01:6d:25, 2015-01-01 00:54:40.680, 0.934, -0.317, 0.077, -0.183, 0.183, -0.122, -76.476, -70.681, -100.838, -31.573, -6.347, -2.127, 31.54, -0.13208, 0.67209, -0.09943, 0.72168,
 14:31:59.036,f6:90:cc:01:6d:25, 2015-01-01 00:54:40.680, 0.934, -0.316, 0.076, -0.061, 0.122, -0.366, -76.465, -70.686, -100.854, -31.573, -6.347, -2.127, 31.54, -0.13208, 0.67209, -0.09943, 0.72168,
 14:31:59.059,e3:ca:2d:fd:e0:8c, 2015-01-01 00:54:43.020, 1.008, -0.147, -0.089, -0.183, 0, -0.183, -121.135, -80.25, -83.491, -26.640, -10.207, -3.913, 29.58, 0.09338, 0.70767, -0.20724, 0.66891,
 14:31:59.059,e3:ca:2d:fd:e0:8c, 2015-01-01 00:54:43.020, 1.009, -0.147, -0.089, -0.122, -0.061, -0.061, -121.146, -80.25, -83.485, -26.640, -10.207, -3.913, 29.58, 0.09338, 0.70767, -0.20724, 0.66891,
 14:31:59.061,ed:35:33:d3:6c:f8, 2015-01-01 00:54:42.015, 0.458, -0.375, 0.801, -0.183, -0.122, -0.183, -25.417, -27.471, -170.848, -16.013, -2.080, -29.280, 30.48, -0.02222, 0.24799, -0.19534, 0.94855,
 14:31:59.061,ed:35:33:d3:6c:f8, 2015-01-01 00:54:42.015, 0.46, -0.375, 0.797, 0, 0, -0.549, -25.417, -27.477, -170.859, -16.013, -2.080, -29.280, 30.48, -0.02222, 0.24799, -0.19534, 0.94855,
 14:31:59.085,ed:40:fe:65:30:6c, 2015-01-01 00:54:54.025, 0.681, -0.178, 0.721, 0, 0.183, 0, -13.513, -42.44, -114.203, -22.847, -7.027, -2.227, 25.63, -0.46671, 0.36142, 0.10321, 0.80051,
 14:31:59.085,ed:40:fe:65:30:6c, 2015-01-01 00:54:54.025, 0.678, -0.175, 0.721, -0.061, 0.122, -0.122, -13.513, -42.44, -114.208, -22.847, -7.027, -2.227, 25.63, -0.46671, 0.36142, 0.10321, 0.80051,
 14:31:59.095,f6:90:cc:01:6d:25, 2015-01-01 00:54:40.680, 0.933, -0.315, 0.075, -0.183, 0, -0.366, -76.465, -70.692, -100.854, -31.573, -6.347, -2.127, 31.54, -0.13217, 0.67181, -0.09964, 0.72192,
 14:31:59.095,f6:90:cc:01:6d:25, 2015-01-01 00:54:40.680, 0.933, -0.314, 0.075, 0, 0, -0.366, -76.465, -70.697, -100.86, -31.573, -6.347, -2.127, 31.54, -0.13217, 0.67181, -0.09964, 0.72192,
 14:31:59.115,ed:40:fe:65:30:6c, 2015-01-01 00:54:54.025, 0.679, -0.172, 0.721, 0, -0.061, -0.244, -13.513, -42.44, -114.214, -22.847, -7.027, -2.227, 25.63, -0.46671, 0.36142, 0.10321, 0.80051,
 14:31:59.115,ed:40:fe:65:30:6c, 2015-01-01 00:54:54.025, 0.679, -0.171, 0.72, 0.061, -0.061, -0.488, -13.508, -42.446, -114.225, -22.847, -7.027, -2.227, 25.63, -0.46671, 0.36142, 0.10321, 0.80051,
 14:31:59.117,ed:40:fe:65:30:6c, 2015-01-01 00:54:54.025, 0.681, -0.172, 0.717, -0.061, -0.061, -0.488, -13.502, -42.451, -114.236, -22.847, -7.027, -2.227, 25.63, -0.46671, 0.36142, 0.10321, 0.80051,
 14:31:59.117,ed:40:fe:65:30:6c, 2015-01-01 00:54:54.025, 0.68, -0.173, 0.717, -0.061, 0, -0.488, -13.497, -42.451, -114.252, -22.847, -7.027, -2.227, 25.63, -0.46671, 0.36142, 0.10321, 0.80051,
 14:31:59.119,e3:ca:2d:fd:e0:8c, 2015-01-01 00:54:43.465, 1.008, -0.147, -0.09, 0, -0.061, -0.061, -121.152, -80.25, -83.474, -26.640, -10.207, -3.913, 29.58, 0.09338, 0.70767, -0.20724, 0.66891,
 14:31:59.119,e3:ca:2d:fd:e0:8c, 2015-01-01 00:54:43.465, 1.007, -0.147, -0.088, -0.122, -0.122, 0, -121.157, -80.25, -83.469, -26.640, -10.207, -3.913, 29.58, 0.09338, 0.70767, -0.20724, 0.66891,
 14:31:59.122,ed:35:33:d3:6c:f8, 2015-01-01 00:54:42.015, 0.46, -0.374, 0.796, -0.061, 0, -0.549, -25.411, -27.482, -170.887, -16.013, -2.080, -29.280, 30.48, -0.02332, 0.24796, -0.19455, 0.9487,
 14:31:59.122,ed:35:33:d3:6c:f8, 2015-01-01 00:54:42.015, 0.46, -0.375, 0.794, -0.183, 0.061, -0.61, -25.406, -27.482, -170.909, -16.013, -2.080, -29.280, 30.48, -0.02332, 0.24796, -0.19455, 0.9487,
 14:31:59.126,f6:90:cc:01:6d:25, 2015-01-01 00:54:41.005, 0.933, -0.315, 0.074, 0.061, 0, -0.305, -76.459, -70.708, -100.865, -31.573, -6.347, -2.127, 31.54, -0.13217, 0.67181, -0.09964, 0.72192,
 14:31:59.126,f6:90:cc:01:6d:25, 2015-01-01 00:54:41.005, 0.934, -0.317, 0.075, 0, 0, -0.244, -76.459, -70.708, -100.865, -31.573, -6.347, -2.127, 31.54, -0.13217, 0.67181, -0.09964, 0.72192,
 14:31:59.148,e3:ca:2d:fd:e0:8c, 2015-01-01 00:54:43.465, 1.008, -0.147, -0.089, -0.122, 0, 0, -121.163, -80.25, -83.458, -26.640, -10.207, -3.913, 29.58, 0.09338, 0.70767, -0.20724, 0.66891,
 14:31:59.148,e3:ca:2d:fd:e0:8c, 2015-01-01 00:54:43.465, 1.009, -0.148, -0.089, 0, 0, 0, -121.163, -80.25, -83.463, -26.640, -10.207, -3.913, 29.58, 0.09338, 0.70767, -0.20724, 0.66891,
 14:31:59.176,ed:40:fe:65:30:6c, 2015-01-01 00:54:54.025, 0.681, -0.173, 0.72, 0.061, 0, -0.427, -13.486, -42.457, -114.263, -23.240, -6.527, -2.620, 25.63, -0.46671, 0.36142, 0.10321, 0.80051,
 14:31:59.176,ed:40:fe:65:30:6c, 2015-01-01 00:54:54.025, 0.682, -0.174, 0.72, 0.122, -0.122, -0.366, -13.48, -42.462, -114.269, -23.240, -6.527, -2.620, 25.63, -0.46671, 0.36142, 0.10321, 0.80051,
 14:31:59.180,e3:ca:2d:fd:e0:8c, 2015-01-01 00:54:43.465, 1.008, -0.149, -0.088, 0, 0.061, 0, -121.157, -80.255, -83.463, -26.640, -10.207, -3.913, 29.58, 0.09338, 0.70767, -0.20724, 0.66891,
 14:31:59.180,e3:ca:2d:fd:e0:8c, 2015-01-01 00:54:43.465, 1.007, -0.15, -0.088, 0, 0, 0, -121.152, -80.255, -83.469, -26.640, -10.207, -3.913, 29.58, 0.09338, 0.70767, -0.20724, 0.66891,
 14:31:59.182,ed:35:33:d3:6c:f8, 2015-01-01 00:54:42.405, 0.459, -0.375, 0.796, 0, 0.061, -0.427, -25.4, -27.488, -170.92, -16.013, -2.080, -29.280, 30.48, -0.02332, 0.24796, -0.19455, 0.9487,
 14:31:59.182,ed:35:33:d3:6c:f8, 2015-01-01 00:54:42.405, 0.462, -0.375, 0.798, 0, 0.061, -0.366, -25.395, -27.488, -170.914, -16.013, -2.080, -29.280, 30.48, -0.02332, 0.24796, -0.19455, 0.9487,
 14:31:59.182,ed:35:33:d3:6c:f8, 2015-01-01 00:54:42.405, 0.464, -0.375, 0.797, 0, 0, -0.305, -25.389, -27.493, -170.898, -16.013, -2.080, -29.280, 30.48, -0.02332, 0.24796, -0.19455, 0.9487,
 14:31:59.182,ed:35:33:d3:6c:f8, 2015-01-01 00:54:42.405, 0.461, -0.375, 0.793, 0, -0.061, -0.183, -25.389, -27.499, -170.87, -16.013, -2.080, -29.280, 30.48, -0.02332, 0.24796, -0.19455, 0.9487,
 14:31:59.186,f6:90:cc:01:6d:25, 2015-01-01 00:54:41.005, 0.934, -0.317, 0.074, -0.122, 0, -0.183, -76.459, -70.714, -100.871, -31.573, -6.347, -2.127, 31.54, -0.13217, 0.67181, -0.09964, 0.72192,
 14:31:59.186,f6:90:cc:01:6d:25, 2015-01-01 00:54:41.005, 0.935, -0.319, 0.075, -0.061, 0, -0.183, -76.459, -70.719, -100.871, -31.573, -6.347, -2.127, 31.54, -0.13217, 0.67181, -0.09964, 0.72192,
 14:31:59.205,ed:40:fe:65:30:6c, 2015-01-01 00:54:54.025, 0.684, -0.173, 0.718, 0.122, -0.122, -0.183, -13.475, -42.462, -114.274, -23.240, -6.527, -2.620, 25.63, -0.46655, 0.36145, 0.10327, 0.80057,
 14:31:59.205,ed:40:fe:65:30:6c, 2015-01-01 00:54:54.025, 0.68, -0.174, 0.716, 0.244, 0, -0.122, -13.469, -42.468, -114.28, -23.240, -6.527, -2.620, 25.63, -0.46655, 0.36145, 0.10327, 0.80057,
 14:31:59.215,f6:90:cc:01:6d:25, 2015-01-01 00:54:41.005, 0.933, -0.318, 0.075, 0.061, 0.061, -0.122, -76.459, -70.724, -100.876, -31.573, -6.347, -2.127, 31.54, -0.13217, 0.67181, -0.09964, 0.72192,
 14:31:59.215,f6:90:cc:01:6d:25, 2015-01-01 00:54:41.005, 0.929, -0.317, 0.075, 0.305, 0.183, -0.061, -76.454, -70.724, -100.882, -31.573, -6.347, -2.127, 31.54, -0.13217, 0.67181, -0.09964, 0.72192,
 14:31:59.235,ed:40:fe:65:30:6c, 2015-01-01 00:54:54.025, 0.677, -0.172, 0.717, 0.427, 0.122, 0, -13.464, -42.468, -114.28, -23.240, -6.527, -2.620, 25.63, -0.46655, 0.36145, 0.10327, 0.80057,
 14:31:59.235,ed:40:fe:65:30:6c, 2015-01-01 00:54:54.025, 0.677, -0.174, 0.718, 0.488, 0.061, 0, -13.458, -42.468, -114.28, -23.240, -6.527, -2.620, 25.63, -0.46655, 0.36145, 0.10327, 0.80057,
 14:31:59.239,e3:ca:2d:fd:e0:8c, 2015-01-01 00:54:43.465, 1.006, -0.149, -0.087, 0.183, 0, 0, -121.146, -80.255, -83.474, -26.640, -10.207, -3.913, 29.58, 0.09338, 0.70767, -0.20724, 0.66891,
 14:31:59.239,e3:ca:2d:fd:e0:8c, 2015-01-01 00:54:43.465, 1.007, -0.148, -0.087, 0.183, 0, 0, -121.141, -80.255, -83.474, -26.640, -10.207, -3.913, 29.58, 0.09338, 0.70767, -0.20724, 0.66891,
 14:31:59.241,ed:35:33:d3:6c:f8, 2015-01-01 00:54:42.405, 0.458, -0.374, 0.794, 0.183, 0.122, 0, -25.384, -27.499, -170.837, -16.013, -2.080, -29.280, 30.48, -0.02332, 0.24796, -0.19455, 0.9487,
 14:31:59.241,ed:35:33:d3:6c:f8, 2015-01-01 00:54:42.405, 0.458, -0.374, 0.796, 0.305, 0, 0.122, -25.378, -27.499, -170.799, -16.013, -2.080, -29.280, 30.48, -0.02332, 0.24796, -0.19455, 0.9487,
 14:31:59.269,e3:ca:2d:fd:e0:8c, 2015-01-01 00:54:43.465, 1.008, -0.148, -0.087, 0.183, 0.061, 0, -121.13, -80.255, -83.474, -26.640, -10.207, -3.913, 29.58, 0.09338, 0.70767, -0.20724, 0.66891,
 14:31:59.269,e3:ca:2d:fd:e0:8c, 2015-01-01 00:54:43.465, 1.008, -0.148, -0.087, 0.122, 0.061, 0, -121.113, -80.255, -83.485, -26.640, -10.207, -3.913, 29.58, 0.09338, 0.70767, -0.20724, 0.66891,
 14:31:59.271,ed:35:33:d3:6c:f8, 2015-01-01 00:54:42.405, 0.457, -0.375, 0.795, 0.305, -0.061, 0.061, -25.373, -27.499, -170.766, -16.013, -2.080, -29.280, 30.48, -0.02332, 0.24796, -0.19455, 0.9487,
 14:31:59.271,ed:35:33:d3:6c:f8, 2015-01-01 00:54:42.405, 0.457, -0.374, 0.796, 0.183, -0.244, 0.122, -25.367, -27.504, -170.75, -16.013, -2.080, -29.280, 30.48, -0.02332, 0.24796, -0.19455, 0.9487,
 14:31:59.275,f6:90:cc:01:6d:25, 2015-01-01 00:54:41.005, 0.929, -0.316, 0.075, 0.488, 0.122, -0.061, -76.443, -70.724, -100.893, -31.573, -6.347, -2.127, 31.54, -0.13217, 0.67181, -0.09964, 0.72192,
 14:31:59.275,f6:90:cc:01:6d:25, 2015-01-01 00:54:41.005, 0.931, -0.317, 0.075, 0.366, 0.305, 0, -76.426, -70.724, -100.898, -31.573, -6.347, -2.127, 31.54, -0.13217, 0.67181, -0.09964, 0.72192,
 14:31:59.275,f6:90:cc:01:6d:25, 2015-01-01 00:54:41.005, 0.933, -0.315, 0.078, 0.244, 0.305, 0, -76.404, -70.724, -100.915, -31.573, -6.347, -2.127, 31.54, -0.13217, 0.67181, -0.09964, 0.72192,
 14:31:59.275,f6:90:cc:01:6d:25, 2015-01-01 00:54:41.005, 0.932, -0.316, 0.078, 0.244, 0.244, 0, -76.388, -70.719, -100.931, -31.573, -6.347, -2.127, 31.54, -0.13217, 0.67181, -0.09964, 0.72192,
 14:31:59.300,e3:ca:2d:fd:e0:8c, 2015-01-01 00:54:43.465, 1.006, -0.147, -0.087, 0.061, 0, 0, -121.102, -80.255, -83.491, -26.753, -9.607, -3.313, 29.58, 0.09338, 0.70767, -0.20724, 0.66891,
 14:31:59.300,e3:ca:2d:fd:e0:8c, 2015-01-01 00:54:43.465, 1.008, -0.148, -0.087, 0, -0.061, 0, -121.097, -80.255, -83.491, -26.753, -9.607, -3.313, 29.58, 0.09338, 0.70767, -0.20724, 0.66891,
 14:31:59.302,ed:35:33:d3:6c:f8, 2015-01-01 00:54:42.405, 0.457, -0.377, 0.797, 0.305, 0, 0.061, -25.362, -27.504, -170.733, -16.013, -2.080, -29.280, 30.48, -0.02332, 0.24796, -0.19455, 0.9487,
 14:31:59.302,ed:35:33:d3:6c:f8, 2015-01-01 00:54:42.405, 0.459, -0.377, 0.797, 0.244, 0, 0, -25.356, -27.504, -170.711, -16.013, -2.080, -29.280, 30.48, -0.02332, 0.24796, -0.19455, 0.9487,
 14:31:59.326,ed:40:fe:65:30:6c, 2015-01-01 00:54:54.385, 0.677, -0.173, 0.72, 0.488, 0, 0.061, -13.447, -42.468, -114.274, -23.240, -6.527, -2.620, 25.63, -0.46655, 0.36145, 0.10327, 0.80057,
 14:31:59.326,ed:40:fe:65:30:6c, 2015-01-01 00:54:54.385, 0.679, -0.173, 0.72, 0.427, 0, 0.061, -13.442, -42.468, -114.274, -23.240, -6.527, -2.620, 25.63, -0.46655, 0.36145, 0.10327, 0.80057,
 14:31:59.326,ed:40:fe:65:30:6c, 2015-01-01 00:54:54.385, 0.679, -0.175, 0.721, 0.305, 0.061, 0, -13.436, -42.468, -114.274, -23.240, -6.527, -2.620, 25.63, -0.46655, 0.36145, 0.10327, 0.80057,
 14:31:59.326,ed:40:fe:65:30:6c, 2015-01-01 00:54:54.385, 0.682, -0.176, 0.721, 0.427, 0.061, 0, -13.431, -42.468, -114.274, -23.240, -6.527, -2.620, 25.63, -0.46655, 0.36145, 0.10327, 0.80057,
 14:31:59.336,f6:90:cc:01:6d:25, 2015-01-01 00:54:41.005, 0.933, -0.319, 0.077, 0.244, 0.122, -0.061, -76.371, -70.719, -100.948, -31.573, -6.347, -2.127, 31.54, -0.13217, 0.67181, -0.09964, 0.72192,
 14:31:59.336,f6:90:cc:01:6d:25, 2015-01-01 00:54:41.005, 0.934, -0.32, 0.075, 0.183, 0, -0.122, -76.36, -70.719, -100.953, -31.573, -6.347, -2.127, 31.54, -0.13217, 0.67181, -0.09964, 0.72192,
 14:31:59.359,e3:ca:2d:fd:e0:8c, 2015-01-01 00:54:43.465, 1.008, -0.149, -0.088, 0, 0, -0.061, -121.097, -80.255, -83.485, -26.753, -9.607, -3.313, 29.58, 0.09338, 0.70767, -0.20724, 0.66891,
 14:31:59.359,e3:ca:2d:fd:e0:8c, 2015-01-01 00:54:43.465, 1.008, -0.15, -0.088, 0, 0, -0.061, -121.097, -80.255, -83.485, -26.753, -9.607, -3.313, 29.58, 0.09338, 0.70767, -0.20724, 0.66891,
 14:31:59.363,ed:35:33:d3:6c:f8, 2015-01-01 00:54:42.405, 0.461, -0.376, 0.799, 0.427, 0, 0.183, -25.345, -27.504, -170.678, -16.013, -2.080, -29.280, 30.48, -0.02332, 0.24796, -0.19455, 0.9487,
 14:31:59.363,ed:35:33:d3:6c:f8, 2015-01-01 00:54:42.405, 0.46, -0.376, 0.795, 0.427, -0.244, 0.366, -25.34, -27.504, -170.645, -16.013, -2.080, -29.280, 30.48, -0.02332, 0.24796, -0.19455, 0.9487,
 14:31:59.370,f6:90:cc:01:6d:25, 2015-01-01 00:54:41.005, 0.934, -0.317, 0.076, 0.488, 0.061, -0.122, -76.355, -70.724, -100.953, -31.867, -6.060, -1.813, 31.54, -0.13217, 0.67181, -0.09964, 0.72192,
 14:31:59.370,f6:90:cc:01:6d:25, 2015-01-01 00:54:41.005, 0.934, -0.316, 0.077, 0.671, 0.183, -0.061, -76.339, -70.724, -100.959, -31.867, -6.060, -1.813, 31.54, -0.13217, 0.67181, -0.09964, 0.72192,
 14:31:59.386,ed:40:fe:65:30:6c, 2015-01-01 00:54:54.385, 0.68, -0.174, 0.72, 0.61, -0.061, 0.244, -13.425, -42.468, -114.269, -23.240, -6.527, -2.620, 25.63, -0.46655, 0.36145, 0.10327, 0.80057,
 14:31:59.386,ed:40:fe:65:30:6c, 2015-01-01 00:54:54.385, 0.681, -0.173, 0.719, 0.732, -0.061, 0.244, -13.42, -42.468, -114.263, -23.240, -6.527, -2.620, 25.63, -0.46655, 0.36145, 0.10327, 0.80057,
 14:31:59.392,ed:35:33:d3:6c:f8, 2015-01-01 00:54:42.405, 0.463, -0.377, 0.793, 0.671, -0.183, 0.366, -25.334, -27.504, -170.618, -16.140, -2.653, -28.653, 30.48, -0.02332, 0.24796, -0.19455, 0.9487,
 14:31:59.392,ed:35:33:d3:6c:f8, 2015-01-01 00:54:42.405, 0.463, -0.374, 0.793, 0.854, -0.183, 0.488, -25.323, -27.504, -170.607, -16.140, -2.653, -28.653, 30.48, -0.02332, 0.24796, -0.19455, 0.9487,
 14:31:59.416,ed:40:fe:65:30:6c, 2015-01-01 00:54:54.385, 0.683, -0.174, 0.718, 0.793, 0.122, 0.061, -13.403, -42.468, -114.258, -23.240, -6.527, -2.620, 25.63, -0.46655, 0.36145, 0.10327, 0.80057,
 14:31:59.416,ed:40:fe:65:30:6c, 2015-01-01 00:54:54.385, 0.681, -0.175, 0.714, 0.916, 0.244, 0.366, -13.392, -42.462, -114.252, -23.240, -6.527, -2.620, 25.63, -0.46655, 0.36145, 0.10327, 0.80057,
 14:31:59.419,e3:ca:2d:fd:e0:8c, 2015-01-01 00:54:43.465, 1.008, -0.148, -0.087, 0.122, 0, 0, -121.091, -80.261, -83.485, -26.753, -9.607, -3.313, 29.58, 0.09317, 0.7077, -0.20682, 0.66901,
 14:31:59.419,e3:ca:2d:fd:e0:8c, 2015-01-01 00:54:43.465, 1.006, -0.15, -0.088, 0.122, -0.061, 0, -121.08, -80.261, -83.485, -26.753, -9.607, -3.313, 29.58, 0.09317, 0.7077, -0.20682, 0.66901,
 14:31:59.421,ed:35:33:d3:6c:f8, 2015-01-01 00:54:42.405, 0.458, -0.375, 0.793, 0.854, -0.122, 0.732, -25.312, -27.499, -170.601, -16.140, -2.653, -28.653, 30.48, -0.02332, 0.24796, -0.19455, 0.9487,
 14:31:59.421,ed:35:33:d3:6c:f8, 2015-01-01 00:54:42.405, 0.464, -0.374, 0.793, 0.916, -0.305, 0.732, -25.302, -27.499, -170.596, -16.140, -2.653, -28.653, 30.48, -0.02332, 0.24796, -0.19455, 0.9487,
 14:31:59.425,f6:90:cc:01:6d:25, 2015-01-01 00:54:41.005, 0.931, -0.321, 0.075, 0.854, 0.183, -0.061, -76.317, -70.724, -100.97, -31.867, -6.060, -1.813, 31.54, -0.13217, 0.67181, -0.09964, 0.72192,
 14:31:59.425,f6:90:cc:01:6d:25, 2015-01-01 00:54:41.005, 0.93, -0.317, 0.073, 0.488, 0.488, -0.061, -76.289, -70.724, -100.986, -31.867, -6.060, -1.813, 31.54, -0.13217, 0.67181, -0.09964, 0.72192,
 14:31:59.445,ed:40:fe:65:30:6c, 2015-01-01 00:54:54.385, 0.679, -0.171, 0.715, 0.977, 0.366, 0.488, -13.387, -42.457, -114.241, -23.240, -6.527, -2.620, 25.63, -0.46655, 0.36145, 0.10327, 0.80057,
 14:31:59.445,ed:40:fe:65:30:6c, 2015-01-01 00:54:54.385, 0.684, -0.172, 0.716, 1.038, 0.305, 0.427, -13.376, -42.451, -114.23, -23.240, -6.527, -2.620, 25.63, -0.46655, 0.36145, 0.10327, 0.80057,
 14:31:59.475,ed:40:fe:65:30:6c, 2015-01-01 00:54:54.385, 0.68, -0.17, 0.718, 0.793, 0.732, 0.244, -13.359, -42.44, -114.23, -22.840, -6.313, -3.113, 25.63, -0.46655, 0.36145, 0.10327, 0.80057,
 14:31:59.475,ed:40:fe:65:30:6c, 2015-01-01 00:54:54.385, 0.677, -0.175, 0.725, 0.549, 1.038, 0.183, -13.354, -42.418, -114.23, -22.840, -6.313, -3.113, 25.63, -0.46655, 0.36145, 0.10327, 0.80057,
 14:31:59.479,e3:ca:2d:fd:e0:8c, 2015-01-01 00:54:43.465, 1.006, -0.149, -0.088, 0, 0, 0, -121.08, -80.255, -83.48, -26.753, -9.607, -3.313, 29.58, 0.09317, 0.7077, -0.20682, 0.66901,
 14:31:59.479,e3:ca:2d:fd:e0:8c, 2015-01-01 00:54:43.465, 1.009, -0.146, -0.089, 0.061, 0.061, 0, -121.069, -80.261, -83.485, -26.753, -9.607, -3.313, 29.58, 0.09317, 0.7077, -0.20682, 0.66901,
 14:31:59.483,ed:35:33:d3:6c:f8, 2015-01-01 00:54:42.405, 0.46, -0.374, 0.792, 0.916, 0, 0.61, -25.291, -27.499, -170.585, -16.140, -2.653, -28.653, 30.48, -0.02332, 0.24796, -0.19455, 0.9487,
 14:31:59.483,ed:35:33:d3:6c:f8, 2015-01-01 00:54:42.405, 0.457, -0.376, 0.799, 0.854, -0.183, 0.732, -25.28, -27.499, -170.557, -16.140, -2.653, -28.653, 30.48, -0.02332, 0.24796, -0.19455, 0.9487,
 14:31:59.486,f6:90:cc:01:6d:25, 2015-01-01 00:54:41.005, 0.935, -0.314, 0.074, 0.305, 0.549, 0, -76.256, -70.719, -101.014, -31.867, -6.060, -1.813, 31.54, -0.13217, 0.67157, -0.09906, 0.72223,
 14:31:59.486,f6:90:cc:01:6d:25, 2015-01-01 00:54:41.005, 0.938, -0.313, 0.076, 0.549, 0.61, -0.061, -76.223, -70.719, -101.047, -31.867, -6.060, -1.813, 31.54, -0.13217, 0.67157, -0.09906, 0.72223,
 14:31:59.486,f6:90:cc:01:6d:25, 2015-01-01 00:54:41.005, 0.933, -0.319, 0.078, 0.488, 0.61, 0, -76.185, -70.719, -101.085, -31.867, -6.060, -1.813, 31.54, -0.13217, 0.67157, -0.09906, 0.72223,
 14:31:59.486,f6:90:cc:01:6d:25, 2015-01-01 00:54:41.005, 0.933, -0.32, 0.075, 0.061, 0.488, 0, -76.146, -70.714, -101.118, -31.867, -6.060, -1.813, 31.54, -0.13217, 0.67157, -0.09906, 0.72223,
 14:31:59.510,e3:ca:2d:fd:e0:8c, 2015-01-01 00:54:43.465, 1.011, -0.146, -0.089, 0.183, 0.122, 0, -121.058, -80.261, -83.491, -26.753, -9.607, -3.313, 29.58, 0.09317, 0.7077, -0.20682, 0.66901,
 14:31:59.510,e3:ca:2d:fd:e0:8c, 2015-01-01 00:54:43.465, 1.009, -0.149, -0.089, 0.061, 0, 0, -121.042, -80.261, -83.502, -26.753, -9.607, -3.313, 29.58, 0.09317, 0.7077, -0.20682, 0.66901,
 14:31:59.512,ed:35:33:d3:6c:f8, 2015-01-01 00:54:42.405, 0.452, -0.382, 0.802, 0.854, -0.244, 0.732, -25.269, -27.499, -170.535, -16.140, -2.653, -28.653, 30.48, -0.026, 0.2486, -0.19281, 0.94882,
 14:31:59.512,ed:35:33:d3:6c:f8, 2015-01-01 00:54:42.405, 0.459, -0.383, 0.806, 0.366, -0.427, 0.366, -25.269, -27.499, -170.524, -16.140, -2.653, -28.653, 30.48, -0.026, 0.2486, -0.19281, 0.94882,
 14:31:59.515,f6:90:cc:01:6d:25, 2015-01-01 00:54:41.005, 0.935, -0.318, 0.078, -0.244, 0.366, -0.061, -76.13, -70.714, -101.146, -31.867, -6.060, -1.813, 31.54, -0.13217, 0.67157, -0.09906, 0.72223,
 14:31:59.515,f6:90:cc:01:6d:25, 2015-01-01 00:54:41.005, 0.932, -0.318, 0.079, -0.183, 0.122, -0.366, -76.119, -70.714, -101.162, -31.867, -6.060, -1.813, 31.54, -0.13217, 0.67157, -0.09906, 0.72223,
 14:31:59.536,ed:40:fe:65:30:6c, 2015-01-01 00:54:54.385, 0.676, -0.179, 0.727, 0.427, 0.793, 0.122, -13.343, -42.407, -114.236, -22.840, -6.313, -3.113, 25.63, -0.46655, 0.36145, 0.10327, 0.80057,
 14:31:59.536,ed:40:fe:65:30:6c, 2015-01-01 00:54:54.385, 0.68, -0.178, 0.726, 0.488, 0.244, 0, -13.337, -42.402, -114.236, -22.840, -6.313, -3.113, 25.63, -0.46655, 0.36145, 0.10327, 0.80057,
 14:31:59.538,e3:ca:2d:fd:e0:8c, 2015-01-01 00:54:43.855, 1.008, -0.15, -0.09, 0, 0.183, 0, -121.031, -80.261, -83.507, -26.753, -9.607, -3.313, 29.58, 0.09317, 0.7077, -0.20682, 0.66901,
 14:31:59.538,e3:ca:2d:fd:e0:8c, 2015-01-01 00:54:43.855, 1.008, -0.147, -0.088, -0.061, 0.305, 0, -121.009, -80.261, -83.535, -26.753, -9.607, -3.313, 29.58, 0.09317, 0.7077, -0.20682, 0.66901,
 14:31:59.540,e3:ca:2d:fd:e0:8c, 2015-01-01 00:54:43.855, 1.007, -0.147, -0.087, 0, 0.183, 0, -120.981, -80.266, -83.562, -26.753, -9.607, -3.313, 29.58, 0.09317, 0.7077, -0.20682, 0.66901,
 14:31:59.540,e3:ca:2d:fd:e0:8c, 2015-01-01 00:54:43.855, 1.007, -0.149, -0.087, 0, 0.061, 0, -120.965, -80.266, -83.578, -26.753, -9.607, -3.313, 29.58, 0.09317, 0.7077, -0.20682, 0.66901,
 14:31:59.542,ed:35:33:d3:6c:f8, 2015-01-01 00:54:42.405, 0.458, -0.376, 0.8, 0.793, 0, 0.122, -25.258, -27.499, -170.53, -16.140, -2.653, -28.653, 30.48, -0.026, 0.2486, -0.19281, 0.94882,
 14:31:59.542,ed:35:33:d3:6c:f8, 2015-01-01 00:54:42.405, 0.455, -0.371, 0.795, 1.282, 0, 0.366, -25.236, -27.499, -170.541, -16.140, -2.653, -28.653, 30.48, -0.026, 0.2486, -0.19281, 0.94882,
 14:31:59.566,ed:40:fe:65:30:6c, 2015-01-01 00:54:54.385, 0.676, -0.174, 0.722, 1.038, 0.061, 0, -13.321, -42.402, -114.236, -22.840, -6.313, -3.113, 25.63, -0.46741, 0.36047, 0.10403, 0.80042,
 14:31:59.566,ed:40:fe:65:30:6c, 2015-01-01 00:54:54.385, 0.674, -0.17, 0.719, 1.343, 0.122, 0.122, -13.299, -42.402, -114.247, -22.840, -6.313, -3.113, 25.63, -0.46741, 0.36047, 0.10403, 0.80042,
 14:31:59.576,f6:90:cc:01:6d:25, 2015-01-01 00:54:41.420, 0.927, -0.318, 0.078, 0.305, 0.061, -0.488, -76.108, -70.719, -101.173, -31.867, -6.060, -1.813, 31.54, -0.13217, 0.67157, -0.09906, 0.72223,
 14:31:59.576,f6:90:cc:01:6d:25, 2015-01-01 00:54:41.420, 0.93, -0.316, 0.077, 0.671, 0.061, -0.427, -76.091, -70.73, -101.184, -31.867, -6.060, -1.813, 31.54, -0.13217, 0.67157, -0.09906, 0.72223,
 14:31:59.598,ed:40:fe:65:30:6c, 2015-01-01 00:54:54.385, 0.677, -0.168, 0.718, 1.282, 0.244, 0.122, -13.277, -42.396, -114.258, -22.840, -6.313, -3.113, 25.63, -0.46741, 0.36047, 0.10403, 0.80042,
 14:31:59.598,ed:40:fe:65:30:6c, 2015-01-01 00:54:54.385, 0.675, -0.173, 0.72, 1.038, 0.244, 0.122, -13.26, -42.391, -114.263, -22.840, -6.313, -3.113, 25.63, -0.46741, 0.36047, 0.10403, 0.80042,
 14:31:59.600,e3:ca:2d:fd:e0:8c, 2015-01-01 00:54:43.855, 1.006, -0.151, -0.087, 0.061, 0.061, 0, -120.954, -80.266, -83.584, -26.753, -9.607, -3.313, 29.58, 0.09317, 0.7077, -0.20682, 0.66901,
 14:31:59.600,e3:ca:2d:fd:e0:8c, 2015-01-01 00:54:43.855, 1.006, -0.149, -0.086, 0.122, 0.122, 0, -120.943, -80.272, -83.595, -26.753, -9.607, -3.313, 29.58, 0.09317, 0.7077, -0.20682, 0.66901,
 14:31:59.601,ed:35:33:d3:6c:f8, 2015-01-01 00:54:42.820, 0.458, -0.369, 0.795, 1.404, 0, 0.488, -25.214, -27.493, -170.557, -16.140, -2.653, -28.653, 30.48, -0.026, 0.2486, -0.19281, 0.94882,
 14:31:59.601,ed:35:33:d3:6c:f8, 2015-01-01 00:54:42.820, 0.454, -0.374, 0.795, 1.343, 0.183, 0.488, -25.192, -27.488, -170.574, -16.140, -2.653, -28.653, 30.48, -0.026, 0.2486, -0.19281, 0.94882,
 14:31:59.605,f6:90:cc:01:6d:25, 2015-01-01 00:54:41.420, 0.93, -0.316, 0.078, 0.61, 0.183, -0.305, -76.075, -70.735, -101.195, -31.867, -6.060, -1.813, 31.54, -0.13217, 0.67157, -0.09906, 0.72223,
 14:31:59.605,f6:90:cc:01:6d:25, 2015-01-01 00:54:41.420, 0.931, -0.317, 0.08, 0.305, 0.244, -0.305, -76.053, -70.741, -101.212, -31.867, -6.060, -1.813, 31.54, -0.13217, 0.67157, -0.09906, 0.72223,
 14:31:59.629,e3:ca:2d:fd:e0:8c, 2015-01-01 00:54:43.855, 1.007, -0.148, -0.085, 0, 0.122, 0, -120.921, -80.272, -83.611, -26.753, -9.607, -3.313, 29.58, 0.09317, 0.7077, -0.20682, 0.66901,
 14:31:59.629,e3:ca:2d:fd:e0:8c, 2015-01-01 00:54:43.855, 1.008, -0.15, -0.085, -0.061, 0.122, 0, -120.905, -80.272, -83.622, -26.753, -9.607, -3.313, 29.58, 0.09317, 0.7077, -0.20682, 0.66901,
 14:31:59.631,ed:35:33:d3:6c:f8, 2015-01-01 00:54:42.820, 0.456, -0.375, 0.799, 0.793, 0.122, 0.244, -25.175, -27.482, -170.596, -16.140, -2.653, -28.653, 30.48, -0.026, 0.2486, -0.19281, 0.94882,
 14:31:59.631,ed:35:33:d3:6c:f8, 2015-01-01 00:54:42.820, 0.459, -0.373, 0.8, 0.427, 0.305, 0, -25.164, -27.477, -170.618, -16.140, -2.653, -28.653, 30.48, -0.026, 0.2486, -0.19281, 0.94882,
 14:31:59.635,f6:90:cc:01:6d:25, 2015-01-01 00:54:41.420, 0.934, -0.317, 0.08, 0.061, 0.305, -0.305, -76.031, -70.741, -101.234, -31.867, -6.060, -1.813, 31.54, -0.13217, 0.67157, -0.09906, 0.72223,
 14:31:59.635,f6:90:cc:01:6d:25, 2015-01-01 00:54:41.420, 0.936, -0.32, 0.079, 0, 0.305, -0.244, -76.009, -70.746, -101.255, -31.867, -6.060, -1.813, 31.54, -0.13217, 0.67157, -0.09906, 0.72223,
 14:31:59.656,ed:40:fe:65:30:6c, 2015-01-01 00:54:54.740, 0.68, -0.173, 0.723, 0.61, 0.183, 0, -13.25, -42.385, -114.269, -22.840, -6.313, -3.113, 25.63, -0.46741, 0.36047, 0.10403, 0.80042,
 14:31:59.656,ed:40:fe:65:30:6c, 2015-01-01 00:54:54.740, 0.68, -0.172, 0.723, 0.488, 0.122, 0.122, -13.244, -42.385, -114.285, -22.840, -6.313, -3.113, 25.63, -0.46741, 0.36047, 0.10403, 0.80042,
 14:31:59.660,e3:ca:2d:fd:e0:8c, 2015-01-01 00:54:43.855, 1.008, -0.15, -0.085, -0.122, 0.061, 0, -120.888, -80.272, -83.633, -26.753, -9.607, -3.313, 29.58, 0.09317, 0.7077, -0.20682, 0.66901,
 14:31:59.660,e3:ca:2d:fd:e0:8c, 2015-01-01 00:54:43.855, 1.007, -0.149, -0.085, 0, 0, 0, -120.877, -80.272, -83.639, -26.753, -9.607, -3.313, 29.58, 0.09317, 0.7077, -0.20682, 0.66901,
 14:31:59.662,ed:35:33:d3:6c:f8, 2015-01-01 00:54:42.820, 0.46, -0.373, 0.8, 0.305, 0.366, 0.122, -25.153, -27.466, -170.634, -16.140, -2.653, -28.653, 30.48, -0.026, 0.2486, -0.19281, 0.94882,
 14:31:59.662,ed:35:33:d3:6c:f8, 2015-01-01 00:54:42.820, 0.46, -0.375, 0.798, 0.671, 0.183, 0.488, -25.148, -27.46, -170.645, -16.140, -2.653, -28.653, 30.48, -0.026, 0.2486, -0.19281, 0.94882,
 14:31:59.686,ed:40:fe:65:30:6c, 2015-01-01 00:54:54.740, 0.679, -0.175, 0.72, 0.916, 0.061, 0.366, -13.239, -42.38, -114.285, -22.840, -6.313, -3.113, 25.63, -0.46741, 0.36047, 0.10403, 0.80042,
 14:31:59.686,ed:40:fe:65:30:6c, 2015-01-01 00:54:54.740, 0.679, -0.169, 0.72, 1.038, 0.183, 0.305, -13.228, -42.38, -114.274, -22.840, -6.313, -3.113, 25.63, -0.46741, 0.36047, 0.10403, 0.80042,
 14:31:59.695,f6:90:cc:01:6d:25, 2015-01-01 00:54:41.420, 0.934, -0.318, 0.081, 0.305, 0.305, -0.244, -75.987, -70.746, -101.277, -31.867, -6.060, -1.813, 31.54, -0.13217, 0.67157, -0.09906, 0.72223,
 14:31:59.695,f6:90:cc:01:6d:25, 2015-01-01 00:54:41.420, 0.932, -0.317, 0.078, 0.977, 0.305, -0.366, -75.954, -70.752, -101.299, -31.867, -6.060, -1.813, 31.54, -0.13217, 0.67157, -0.09906, 0.72223,
 14:31:59.715,ed:40:fe:65:30:6c, 2015-01-01 00:54:54.740, 0.677, -0.168, 0.721, 0.977, 0.305, 0.366, -13.217, -42.374, -114.263, -22.840, -6.313, -3.113, 25.63, -0.46741, 0.36047, 0.10403, 0.80042,
 14:31:59.715,ed:40:fe:65:30:6c, 2015-01-01 00:54:54.740, 0.676, -0.168, 0.721, 0.854, 0.122, 0.549, -13.206, -42.369, -114.258, -22.840, -6.313, -3.113, 25.63, -0.46741, 0.36047, 0.10403, 0.80042,
 14:31:59.721,e3:ca:2d:fd:e0:8c, 2015-01-01 00:54:43.855, 1.007, -0.148, -0.086, 0.061, 0, 0, -120.872, -80.272, -83.639, -26.753, -9.607, -3.313, 29.58, 0.09317, 0.7077, -0.20682, 0.66901,
 14:31:59.721,e3:ca:2d:fd:e0:8c, 2015-01-01 00:54:43.855, 1.007, -0.147, -0.085, 0.183, 0, 0, -120.855, -80.272, -83.639, -26.753, -9.607, -3.313, 29.58, 0.09317, 0.7077, -0.20682, 0.66901,
 14:31:59.723,ed:35:33:d3:6c:f8, 2015-01-01 00:54:42.820, 0.459, -0.373, 0.797, 0.671, 0.183, 0.549, -25.137, -27.449, -170.645, -16.140, -2.653, -28.653, 30.48, -0.026, 0.2486, -0.19281, 0.94882,
 14:31:59.723,ed:35:33:d3:6c:f8, 2015-01-01 00:54:42.820, 0.458, -0.369, 0.798, 0.916, -0.061, 0.488, -25.126, -27.449, -170.645, -16.140, -2.653, -28.653, 30.48, -0.026, 0.2486, -0.19281, 0.94882,
 14:31:59.727,f6:90:cc:01:6d:25, 2015-01-01 00:54:41.420, 0.932, -0.316, 0.078, 1.099, 0.427, -0.366, -75.91, -70.757, -101.327, -31.867, -6.060, -1.813, 31.54, -0.13217, 0.67157, -0.09906, 0.72223,
 14:31:59.727,f6:90:cc:01:6d:25, 2015-01-01 00:54:41.420, 0.93, -0.313, 0.077, 0.427, 0.488, -0.183, -75.872, -70.757, -101.354, -31.867, -6.060, -1.813, 31.54, -0.13217, 0.67157, -0.09906, 0.72223,
 14:31:59.749,e3:ca:2d:fd:e0:8c, 2015-01-01 00:54:43.855, 1.008, -0.147, -0.086, 0, 0.122, 0, -120.839, -80.277, -83.65, -26.840, -10.213, -4.040, 29.58, 0.09317, 0.7077, -0.20682, 0.66901,
 14:31:59.749,e3:ca:2d:fd:e0:8c, 2015-01-01 00:54:43.855, 1.009, -0.146, -0.087, -0.061, 0.122, 0, -120.822, -80.277, -83.661, -26.840, -10.213, -4.040, 29.58, 0.09317, 0.7077, -0.20682, 0.66901,
 14:31:59.753,ed:35:33:d3:6c:f8, 2015-01-01 00:54:42.820, 0.456, -0.369, 0.799, 1.038, 0.061, 0.732, -25.109, -27.444, -170.64, -16.140, -2.653, -28.653, 30.48, -0.026, 0.2486, -0.19281, 0.94882,
 14:31:59.753,ed:35:33:d3:6c:f8, 2015-01-01 00:54:42.820, 0.457, -0.37, 0.799, 0.366, 0.305, 0.61, -25.104, -27.433, -170.629, -16.140, -2.653, -28.653, 30.48, -0.026, 0.2486, -0.19281, 0.94882,
 14:31:59.775,ed:40:fe:65:30:6c, 2015-01-01 00:54:54.740, 0.678, -0.168, 0.722, 0.427, 0.122, 0.488, -13.2, -42.363, -114.236, -22.840, -6.313, -3.113, 25.63, -0.46741, 0.36047, 0.10403, 0.80042,
 14:31:59.775,ed:40:fe:65:30:6c, 2015-01-01 00:54:54.740, 0.676, -0.169, 0.725, 0.061, 0.061, 0.305, -13.2, -42.363, -114.23, -22.840, -6.313, -3.113, 25.63, -0.46741, 0.36047, 0.10403, 0.80042,
 14:31:59.779,e3:ca:2d:fd:e0:8c, 2015-01-01 00:54:43.855, 1.008, -0.146, -0.088, 0, 0, 0, -120.811, -80.277, -83.666, -26.840, -10.213, -4.040, 29.58, 0.09317, 0.7077, -0.20682, 0.66901,
 14:31:59.779,e3:ca:2d:fd:e0:8c, 2015-01-01 00:54:43.855, 1.008, -0.146, -0.088, 0, 0, 0, -120.806, -80.277, -83.672, -26.840, -10.213, -4.040, 29.58, 0.09317, 0.7077, -0.20682, 0.66901,
 14:31:59.781,ed:35:33:d3:6c:f8, 2015-01-01 00:54:42.820, 0.456, -0.374, 0.802, 0, 0.427, 0.244, -25.098, -27.422, -170.634, -15.860, -2.400, -29.493, 30.48, -0.026, 0.2486, -0.19281, 0.94882,
 14:31:59.781,ed:35:33:d3:6c:f8, 2015-01-01 00:54:42.820, 0.456, -0.371, 0.805, -0.122, 0.244, -0.061, -25.098, -27.416, -170.64, -15.860, -2.400, -29.493, 30.48, -0.026, 0.2486, -0.19281, 0.94882,
 14:31:59.785,f6:90:cc:01:6d:25, 2015-01-01 00:54:41.420, 0.934, -0.313, 0.08, 0.061, 0.366, -0.122, -75.844, -70.757, -101.382, -31.320, -5.693, -1.913, 31.54, -0.13217, 0.67157, -0.09906, 0.72223,
 14:31:59.785,f6:90:cc:01:6d:25, 2015-01-01 00:54:41.420, 0.935, -0.311, 0.08, 0.183, 0.366, -0.244, -75.822, -70.763, -101.404, -31.320, -5.693, -1.913, 31.54, -0.13217, 0.67157, -0.09906, 0.72223,
 14:31:59.807,ed:40:fe:65:30:6c, 2015-01-01 00:54:54.740, 0.676, -0.167, 0.726, 0, 0, 0, -13.206, -42.363, -114.219, -22.840, -6.313, -3.113, 25.63, -0.46741, 0.36047, 0.10403, 0.80042,
 14:31:59.807,ed:40:fe:65:30:6c, 2015-01-01 00:54:54.740, 0.675, -0.167, 0.724, -0.061, -0.061, -0.122, -13.206, -42.363, -114.214, -22.840, -6.313, -3.113, 25.63, -0.46741, 0.36047, 0.10403, 0.80042,
 14:31:59.815,f6:90:cc:01:6d:25, 2015-01-01 00:54:41.420, 0.933, -0.311, 0.08, 0.122, 0.183, -0.244, -75.8, -70.763, -101.426, -31.320, -5.693, -1.913, 31.54, -0.13217, 0.67157, -0.09906, 0.72223,
 14:31:59.815,f6:90:cc:01:6d:25, 2015-01-01 00:54:41.420, 0.932, -0.312, 0.08, 0.122, 0.061, -0.183, -75.789, -70.768, -101.437, -31.320, -5.693, -1.913, 31.54, -0.13217, 0.67157, -0.09906, 0.72223,
 14:31:59.837,ed:40:fe:65:30:6c, 2015-01-01 00:54:54.740, 0.676, -0.166, 0.721, -0.183, -0.122, -0.061, -13.206, -42.363, -114.219, -22.913, -6.920, -2.600, 25.63, -0.46741, 0.36047, 0.10403, 0.80042,
 14:31:59.837,ed:40:fe:65:30:6c, 2015-01-01 00:54:54.740, 0.678, -0.167, 0.721, -0.305, -0.244, 0.061, -13.211, -42.369, -114.214, -22.913, -6.920, -2.600, 25.63, -0.46741, 0.36047, 0.10403, 0.80042,
 14:31:59.841,e3:ca:2d:fd:e0:8c, 2015-01-01 00:54:43.855, 1.007, -0.147, -0.086, 0.061, 0, 0, -120.8, -80.277, -83.672, -26.840, -10.213, -4.040, 29.58, 0.09256, 0.70758, -0.20615, 0.66943,
 14:31:59.841,e3:ca:2d:fd:e0:8c, 2015-01-01 00:54:43.855, 1.006, -0.148, -0.086, 0, -0.061, 0, -120.8, -80.283, -83.666, -26.840, -10.213, -4.040, 29.58, 0.09256, 0.70758, -0.20615, 0.66943,
 14:31:59.843,ed:35:33:d3:6c:f8, 2015-01-01 00:54:42.820, 0.457, -0.369, 0.801, -0.122, 0.305, -0.305, -25.098, -27.416, -170.662, -15.860, -2.400, -29.493, 30.48, -0.026, 0.2486, -0.19281, 0.94882,
 14:31:59.843,ed:35:33:d3:6c:f8, 2015-01-01 00:54:42.820, 0.456, -0.366, 0.8, -0.244, 0.183, -0.122, -25.098, -27.411, -170.673, -15.860, -2.400, -29.493, 30.48, -0.026, 0.2486, -0.19281, 0.94882,
 14:31:59.845,f6:90:cc:01:6d:25, 2015-01-01 00:54:41.420, 0.931, -0.313, 0.081, 0.183, 0.061, -0.061, -75.778, -70.774, -101.437, -31.320, -5.693, -1.913, 31.54, -0.13202, 0.67072, -0.0983, 0.72314,
 14:31:59.845,f6:90:cc:01:6d:25, 2015-01-01 00:54:41.420, 0.932, -0.314, 0.081, 0.061, 0.061, 0.061, -75.773, -70.774, -101.442, -31.320, -5.693, -1.913, 31.54, -0.13202, 0.67072, -0.0983, 0.72314,
 14:31:59.871,ed:35:33:d3:6c:f8, 2015-01-01 00:54:42.820, 0.456, -0.367, 0.799, -0.427, 0.61, 0, -25.098, -27.4, -170.673, -15.860, -2.400, -29.493, 30.48, -0.02579, 0.24768, -0.19156, 0.94931,
 14:31:59.871,ed:35:33:d3:6c:f8, 2015-01-01 00:54:42.820, 0.46, -0.368, 0.801, -0.549, 0.549, 0.061, -25.104, -27.389, -170.662, -15.860, -2.400, -29.493, 30.48, -0.02579, 0.24768, -0.19156, 0.94931,
 14:31:59.877,f6:90:cc:01:6d:25, 2015-01-01 00:54:41.420, 0.934, -0.313, 0.081, 0, 0, 0.183, -75.773, -70.768, -101.442, -31.320, -5.693, -1.913, 31.54, -0.13202, 0.67072, -0.0983, 0.72314,
 14:31:59.877,f6:90:cc:01:6d:25, 2015-01-01 00:54:41.420, 0.934, -0.316, 0.081, 0.122, -0.061, 0.122, -75.773, -70.768, -101.437, -31.320, -5.693, -1.913, 31.54, -0.13202, 0.67072, -0.0983, 0.72314,
 14:31:59.895,ed:40:fe:65:30:6c, 2015-01-01 00:54:54.740, 0.68, -0.168, 0.722, -0.183, -0.183, 0.244, -13.217, -42.369, -114.203, -22.913, -6.920, -2.600, 25.63, -0.46741, 0.36047, 0.10403, 0.80042,
 14:31:59.895,ed:40:fe:65:30:6c, 2015-01-01 00:54:54.740, 0.677, -0.169, 0.719, 0.122, -0.122, 0.427, -13.222, -42.374, -114.186, -22.913, -6.920, -2.600, 25.63, -0.46741, 0.36047, 0.10403, 0.80042,
 14:31:59.900,e3:ca:2d:fd:e0:8c, 2015-01-01 00:54:44.240, 1.007, -0.148, -0.084, 0, -0.122, 0, -120.806, -80.283, -83.661, -26.840, -10.213, -4.040, 29.58, 0.09256, 0.70758, -0.20615, 0.66943,
 14:31:59.900,e3:ca:2d:fd:e0:8c, 2015-01-01 00:54:44.240, 1.008, -0.148, -0.084, 0, -0.122, 0, -120.811, -80.277, -83.65, -26.840, -10.213, -4.040, 29.58, 0.09256, 0.70758, -0.20615, 0.66943,
 14:31:59.902,ed:35:33:d3:6c:f8, 2015-01-01 00:54:42.820, 0.457, -0.37, 0.797, -0.061, 0.427, 0.366, -25.104, -27.383, -170.645, -15.860, -2.400, -29.493, 30.48, -0.02579, 0.24768, -0.19156, 0.94931,
 14:31:59.902,ed:35:33:d3:6c:f8, 2015-01-01 00:54:42.820, 0.457, -0.372, 0.797, 0.366, 0.366, 0.488, -25.098, -27.372, -170.634, -15.860, -2.400, -29.493, 30.48, -0.02579, 0.24768, -0.19156, 0.94931,
 14:31:59.926,ed:40:fe:65:30:6c, 2015-01-01 00:54:54.740, 0.677, -0.17, 0.72, 0.305, 0.061, 0.366, -13.228, -42.374, -114.175, -22.913, -6.920, -2.600, 25.63, -0.46814, 0.35971, 0.10486, 0.8002,
 14:31:59.926,ed:40:fe:65:30:6c, 2015-01-01 00:54:54.740, 0.678, -0.172, 0.721, 0.183, 0.122, 0.244, -13.228, -42.369, -114.164, -22.913, -6.920, -2.600, 25.63, -0.46814, 0.35971, 0.10486, 0.8002,
 14:31:59.929,e3:ca:2d:fd:e0:8c, 2015-01-01 00:54:44.240, 1.008, -0.149, -0.085, 0.061, -0.183, 0, -120.817, -80.277, -83.633, -26.840, -10.213, -4.040, 29.58, 0.09256, 0.70758, -0.20615, 0.66943,
 14:31:59.929,e3:ca:2d:fd:e0:8c, 2015-01-01 00:54:44.240, 1.008, -0.148, -0.086, 0.122, -0.183, 0, -120.828, -80.277, -83.617, -26.840, -10.213, -4.040, 29.58, 0.09256, 0.70758, -0.20615, 0.66943,
 14:31:59.935,f6:90:cc:01:6d:25, 2015-01-01 00:54:41.780, 0.931, -0.315, 0.079, 0.305, 0, 0.244, -75.773, -70.768, -101.431, -31.320, -5.693, -1.913, 31.54, -0.13202, 0.67072, -0.0983, 0.72314,
 14:31:59.935,f6:90:cc:01:6d:25, 2015-01-01 00:54:41.780, 0.933, -0.315, 0.078, 0.305, 0.061, 0.305, -75.767, -70.763, -101.431, -31.320, -5.693, -1.913, 31.54, -0.13202, 0.67072, -0.0983, 0.72314,
 14:31:59.956,ed:40:fe:65:30:6c, 2015-01-01 00:54:54.740, 0.678, -0.172, 0.722, -0.122, 0.061, 0.244, -13.228, -42.369, -114.164, -22.913, -6.920, -2.600, 25.63, -0.46814, 0.35971, 0.10486, 0.8002,
 14:31:59.956,ed:40:fe:65:30:6c, 2015-01-01 00:54:54.740, 0.677, -0.173, 0.722, -0.244, 0.061, 0.061, -13.233, -42.369, -114.164, -22.913, -6.920, -2.600, 25.63, -0.46814, 0.35971, 0.10486, 0.8002,
 14:31:59.960,e3:ca:2d:fd:e0:8c, 2015-01-01 00:54:44.240, 1.008, -0.149, -0.087, 0.122, -0.122, 0, -120.828, -80.277, -83.6, -26.840, -10.213, -4.040, 29.58, 0.09256, 0.70758, -0.20615, 0.66943,
 14:31:59.960,e3:ca:2d:fd:e0:8c, 2015-01-01 00:54:44.240, 1.008, -0.148, -0.088, 0.122, -0.122, 0, -120.833, -80.277, -83.589, -26.840, -10.213, -4.040, 29.58, 0.09256, 0.70758, -0.20615, 0.66943,
 14:31:59.963,ed:35:33:d3:6c:f8, 2015-01-01 00:54:43.180, 0.457, -0.374, 0.798, 0.305, 0.183, 0.366, -25.093, -27.361, -170.629, -15.860, -2.400, -29.493, 30.48, -0.02579, 0.24768, -0.19156, 0.94931,
 14:31:59.963,ed:35:33:d3:6c:f8, 2015-01-01 00:54:43.180, 0.457, -0.375, 0.801, -0.122, 0.061, 0.122, -25.087, -27.361, -170.64, -15.860, -2.400, -29.493, 30.48, -0.02579, 0.24768, -0.19156, 0.94931,
 14:31:59.966,f6:90:cc:01:6d:25, 2015-01-01 00:54:41.780, 0.934, -0.314, 0.079, 0.183, 0.183, 0.305, -75.762, -70.757, -101.437, -31.320, -5.693, -1.913, 31.54, -0.13202, 0.67072, -0.0983, 0.72314,
 14:31:59.966,f6:90:cc:01:6d:25, 2015-01-01 00:54:41.780, 0.932, -0.316, 0.08, 0.122, 0.183, 0.244, -75.751, -70.752, -101.442, -31.320, -5.693, -1.913, 31.54, -0.13202, 0.67072, -0.0983, 0.72314,
 14:31:59.990,e3:ca:2d:fd:e0:8c, 2015-01-01 00:54:44.240, 1.007, -0.147, -0.086, 0.122, -0.122, 0, -120.833, -80.277, -83.578, -26.840, -10.213, -4.040, 29.58, 0.09256, 0.70758, -0.20615, 0.66943,
 14:31:59.990,e3:ca:2d:fd:e0:8c, 2015-01-01 00:54:44.240, 1.007, -0.148, -0.086, 0, -0.183, 0, -120.839, -80.277, -83.568, -26.840, -10.213, -4.040, 29.58, 0.09256, 0.70758, -0.20615, 0.66943,
 14:31:59.991,ed:35:33:d3:6c:f8, 2015-01-01 00:54:43.180, 0.455, -0.374, 0.8, -0.183, 0, 0, -25.093, -27.361, -170.651, -15.860, -2.400, -29.493, 30.48, -0.02579, 0.24768, -0.19156, 0.94931,
 14:31:59.991,ed:35:33:d3:6c:f8, 2015-01-01 00:54:43.180, 0.454, -0.374, 0.799, 0, 0.122, 0, -25.093, -27.361, -170.651, -15.860, -2.400, -29.493, 30.48, -0.02579, 0.24768, -0.19156, 0.94931,
 14:31:59.995,f6:90:cc:01:6d:25, 2015-01-01 00:54:41.780, 0.93, -0.317, 0.08, -0.061, 0.122, 0.244, -75.751, -70.746, -101.442, -31.320, -5.693, -1.913, 31.54, -0.13202, 0.67072, -0.0983, 0.72314,
 14:31:59.995,f6:90:cc:01:6d:25, 2015-01-01 00:54:41.780, 0.929, -0.318, 0.079, -0.061, 0.122, 0.122, -75.745, -70.741, -101.448, -31.320, -5.693, -1.913, 31.54, -0.13202, 0.67072, -0.0983, 0.72314,
 14:32:00.017,ed:40:fe:65:30:6c, 2015-01-01 00:54:55.100, 0.675, -0.173, 0.722, -0.061, 0.183, 0.061, -13.239, -42.363, -114.159, -22.913, -6.920, -2.600, 25.63, -0.46814, 0.35971, 0.10486, 0.8002,
 14:32:00.017,ed:40:fe:65:30:6c, 2015-01-01 00:54:55.100, 0.677, -0.171, 0.721, -0.061, 0.183, 0.183, -13.244, -42.363, -114.153, -22.913, -6.920, -2.600, 25.63, -0.46814, 0.35971, 0.10486, 0.8002,
 14:32:00.020,e3:ca:2d:fd:e0:8c, 2015-01-01 00:54:44.240, 1.007, -0.15, -0.087, -0.061, -0.122, 0, -120.85, -80.272, -83.551, -26.840, -10.213, -4.040, 29.58, 0.09256, 0.70758, -0.20615, 0.66943,
 14:32:00.020,e3:ca:2d:fd:e0:8c, 2015-01-01 00:54:44.240, 1.007, -0.149, -0.087, 0.061, 0, 0, -120.85, -80.272, -83.546, -26.840, -10.213, -4.040, 29.58, 0.09256, 0.70758, -0.20615, 0.66943,
 14:32:00.045,ed:40:fe:65:30:6c, 2015-01-01 00:54:55.100, 0.679, -0.172, 0.72, -0.183, 0.122, 0.305, -13.25, -42.358, -114.153, -22.913, -6.920, -2.600, 25.63, -0.46814, 0.35971, 0.10486, 0.8002,
 14:32:00.045,ed:40:fe:65:30:6c, 2015-01-01 00:54:55.100, 0.679, -0.171, 0.72, -0.183, 0.183, 0.305, -13.26, -42.352, -114.153, -22.913, -6.920, -2.600, 25.63, -0.46814, 0.35971, 0.10486, 0.8002,
 14:32:00.053,ed:35:33:d3:6c:f8, 2015-01-01 00:54:43.180, 0.455, -0.371, 0.798, 0, 0.244, 0.183, -25.087, -27.356, -170.651, -15.860, -2.400, -29.493, 30.48, -0.02579, 0.24768, -0.19156, 0.94931,
 14:32:00.053,ed:35:33:d3:6c:f8, 2015-01-01 00:54:43.180, 0.458, -0.372, 0.799, -0.244, 0.122, 0.244, -25.093, -27.35, -170.656, -15.860, -2.400, -29.493, 30.48, -0.02579, 0.24768, -0.19156, 0.94931,
 14:32:00.055,f6:90:cc:01:6d:25, 2015-01-01 00:54:41.780, 0.933, -0.318, 0.078, -0.061, 0.061, 0.183, -75.745, -70.735, -101.448, -31.320, -5.693, -1.913, 31.54, -0.13202, 0.67072, -0.0983, 0.72314,
 14:32:00.055,f6:90:cc:01:6d:25, 2015-01-01 00:54:41.780, 0.935, -0.315, 0.08, 0.122, 0, 0.244, -75.751, -70.735, -101.448, -31.320, -5.693, -1.913, 31.54, -0.13202, 0.67072, -0.0983, 0.72314,
 14:32:00.080,e3:ca:2d:fd:e0:8c, 2015-01-01 00:54:44.240, 1.008, -0.149, -0.086, 0.061, -0.061, 0, -120.844, -80.272, -83.546, -26.840, -10.213, -4.040, 29.58, 0.09256, 0.70758, -0.20615, 0.66943,
 14:32:00.080,e3:ca:2d:fd:e0:8c, 2015-01-01 00:54:44.240, 1.008, -0.149, -0.086, 0.122, -0.122, 0, -120.844, -80.272, -83.535, -26.840, -10.213, -4.040, 29.58, 0.09256, 0.70758, -0.20615, 0.66943,
 14:32:00.082,ed:35:33:d3:6c:f8, 2015-01-01 00:54:43.180, 0.457, -0.372, 0.798, -0.305, 0.183, 0.305, -25.098, -27.345, -170.656, -15.860, -2.400, -29.493, 30.48, -0.02579, 0.24768, -0.19156, 0.94931,
 14:32:00.082,ed:35:33:d3:6c:f8, 2015-01-01 00:54:43.180, 0.456, -0.375, 0.799, -0.061, 0.183, 0.244, -25.104, -27.339, -170.678, -15.860, -2.400, -29.493, 30.48, -0.02579, 0.24768, -0.19156, 0.94931,
 14:32:00.085,f6:90:cc:01:6d:25, 2015-01-01 00:54:41.780, 0.933, -0.315, 0.081, 0.366, 0.122, 0.244, -75.745, -70.73, -101.448, -31.320, -5.693, -1.913, 31.54, -0.13202, 0.67072, -0.0983, 0.72314,
 14:32:00.085,f6:90:cc:01:6d:25, 2015-01-01 00:54:41.780, 0.931, -0.321, 0.081, 0.305, 0.061, 0.183, -75.74, -70.724, -101.448, -31.320, -5.693, -1.913, 31.54, -0.13202, 0.67072, -0.0983, 0.72314,
 14:32:00.106,ed:40:fe:65:30:6c, 2015-01-01 00:54:55.100, 0.679, -0.175, 0.722, -0.122, 0.244, 0.122, -13.266, -42.352, -114.148, -22.913, -6.920, -2.600, 25.63, -0.46814, 0.35971, 0.10486, 0.8002,
 14:32:00.106,ed:40:fe:65:30:6c, 2015-01-01 00:54:55.100, 0.675, -0.178, 0.721, -0.061, 0.305, 0.183, -13.271, -42.347, -114.137, -22.913, -6.920, -2.600, 25.63, -0.46814, 0.35971, 0.10486, 0.8002,
 14:32:00.112,ed:35:33:d3:6c:f8, 2015-01-01 00:54:43.180, 0.455, -0.379, 0.8, -0.061, 0.122, 0.183, -25.104, -27.334, -170.689, -15.860, -2.400, -29.493, 30.48, -0.02579, 0.24768, -0.19156, 0.94931,
 14:32:00.112,ed:35:33:d3:6c:f8, 2015-01-01 00:54:43.180, 0.453, -0.373, 0.802, 0.061, -0.061, 0.244, -25.104, -27.334, -170.695, -15.860, -2.400, -29.493, 30.48, -0.02579, 0.24768, -0.19156, 0.94931,
 14:32:00.135,ed:40:fe:65:30:6c, 2015-01-01 00:54:55.100, 0.675, -0.172, 0.723, 0, 0.122, 0.122, -13.277, -42.341, -114.12, -22.913, -6.920, -2.600, 25.63, -0.46814, 0.35971, 0.10486, 0.8002,
 14:32:00.135,ed:40:fe:65:30:6c, 2015-01-01 00:54:55.100, 0.681, -0.17, 0.72, 0, 0.061, -0.061, -13.282, -42.341, -114.115, -22.913, -6.920, -2.600, 25.63, -0.46814, 0.35971, 0.10486, 0.8002,
 14:32:00.139,e3:ca:2d:fd:e0:8c, 2015-01-01 00:54:44.240, 1.006, -0.151, -0.085, 0, -0.122, 0, -120.85, -80.272, -83.524, -26.693, -9.913, -4.447, 29.58, 0.09256, 0.70758, -0.20615, 0.66943,
 14:32:00.139,e3:ca:2d:fd:e0:8c, 2015-01-01 00:54:44.240, 1.006, -0.149, -0.085, -0.061, -0.061, 0, -120.85, -80.272, -83.518, -26.693, -9.913, -4.447, 29.58, 0.09256, 0.70758, -0.20615, 0.66943,
 14:32:00.145,f6:90:cc:01:6d:25, 2015-01-01 00:54:41.780, 0.929, -0.318, 0.078, -0.305, 0.244, 0.183, -75.734, -70.719, -101.459, -31.807, -6.007, -1.587, 31.54, -0.13202, 0.67072, -0.0983, 0.72314,
 14:32:00.145,f6:90:cc:01:6d:25, 2015-01-01 00:54:41.780, 0.933, -0.312, 0.08, -0.549, 0.183, 0.122, -75.734, -70.714, -101.47, -31.807, -6.007, -1.587, 31.54, -0.13202, 0.67072, -0.0983, 0.72314,
 14:32:00.165,ed:40:fe:65:30:6c, 2015-01-01 00:54:55.100, 0.677, -0.171, 0.721, -0.122, 0.366, -0.122, -13.282, -42.336, -114.109, -22.913, -6.920, -2.600, 25.63, -0.46814, 0.35971, 0.10486, 0.8002,
 14:32:00.165,ed:40:fe:65:30:6c, 2015-01-01 00:54:55.100, 0.677, -0.175, 0.724, 0, 0.488, 0, -13.282, -42.33, -114.115, -22.913, -6.920, -2.600, 25.63, -0.46814, 0.35971, 0.10486, 0.8002,
 14:32:00.170,e3:ca:2d:fd:e0:8c, 2015-01-01 00:54:44.240, 1.008, -0.146, -0.086, 0, 0, 0, -120.844, -80.272, -83.513, -26.693, -9.913, -4.447, 29.58, 0.09256, 0.70758, -0.20615, 0.66943,
 14:32:00.170,e3:ca:2d:fd:e0:8c, 2015-01-01 00:54:44.240, 1.009, -0.146, -0.086, 0.061, 0, 0, -120.839, -80.272, -83.513, -26.693, -9.913, -4.447, 29.58, 0.09256, 0.70758, -0.20615, 0.66943,
 14:32:00.172,ed:35:33:d3:6c:f8, 2015-01-01 00:54:43.180, 0.461, -0.373, 0.797, -0.305, -0.183, -0.061, -25.109, -27.334, -170.706, -15.993, -2.047, -30.327, 30.48, -0.02579, 0.24768, -0.19156, 0.94931,
 14:32:00.172,ed:35:33:d3:6c:f8, 2015-01-01 00:54:43.180, 0.456, -0.371, 0.796, -0.183, -0.061, 0, -25.115, -27.339, -170.728, -15.993, -2.047, -30.327, 30.48, -0.02579, 0.24768, -0.19156, 0.94931,
 14:32:00.176,f6:90:cc:01:6d:25, 2015-01-01 00:54:41.780, 0.936, -0.314, 0.079, -0.061, 0.183, 0.061, -75.734, -70.714, -101.475, -31.807, -6.007, -1.587, 31.54, -0.13202, 0.67072, -0.0983, 0.72314,
 14:32:00.176,f6:90:cc:01:6d:25, 2015-01-01 00:54:41.780, 0.932, -0.32, 0.082, -0.061, 0.122, 0.122, -75.729, -70.708, -101.481, -31.807, -6.007, -1.587, 31.54, -0.13202, 0.67072, -0.0983, 0.72314,
 14:32:00.199,e3:ca:2d:fd:e0:8c, 2015-01-01 00:54:44.240, 1.007, -0.15, -0.087, -0.061, -0.061, 0, -120.833, -80.272, -83.513, -26.693, -9.913, -4.447, 29.58, 0.09183, 0.70786, -0.20538, 0.66949,
 14:32:00.199,e3:ca:2d:fd:e0:8c, 2015-01-01 00:54:44.240, 1.009, -0.151, -0.089, -0.122, 0, 0, -120.828, -80.272, -83.513, -26.693, -9.913, -4.447, 29.58, 0.09183, 0.70786, -0.20538, 0.66949,
 14:32:00.201,ed:35:33:d3:6c:f8, 2015-01-01 00:54:43.180, 0.454, -0.375, 0.803, 0.183, -0.061, 0.244, -25.115, -27.339, -170.744, -15.993, -2.047, -30.327, 30.48, -0.02524, 0.24695, -0.19196, 0.94943,
 14:32:00.201,ed:35:33:d3:6c:f8, 2015-01-01 00:54:43.180, 0.454, -0.378, 0.805, 0, -0.061, 0.183, -25.115, -27.339, -170.76, -15.993, -2.047, -30.327, 30.48, -0.02524, 0.24695, -0.19196, 0.94943,
 14:32:00.205,f6:90:cc:01:6d:25, 2015-01-01 00:54:41.780, -13.381, -0.32, 0.077, -0.366, 0.122, 0.183, -75.729, -70.708, -101.486, -31.807, -6.007, -1.587, 31.54, -0.13239, 0.67047, -0.0986, 0.72327,
 14:32:00.205,f6:90:cc:01:6d:25, 2015-01-01 00:54:41.780, 0.935, 0.045, 0, 0, 0, 1328.125, 166.47, 164.57, -132.204, -31.807, -6.007, -1.587, 31.54, -0.13239, 0.67047, -0.0986, 0.72327,
 14:32:00.225,ed:40:fe:65:30:6c, 2015-01-01 00:54:55.100, 0.677, -0.176, 0.725, 0, 0.122, 0, -13.282, -42.325, -114.115, -22.947, -6.680, -3.193, 25.63, -0.46814, 0.35971, 0.10486, 0.8002,
 14:32:00.225,ed:40:fe:65:30:6c, 2015-01-01 00:54:55.100, 0.678, -0.175, 0.725, -0.122, 0, -0.061, -13.288, -42.325, -114.104, -22.947, -6.680, -3.193, 25.63, -0.46814, 0.35971, 0.10486, 0.8002,
 14:32:00.230,e3:ca:2d:fd:e0:8c, 2015-01-01 00:54:44.240, 1.008, -0.148, -0.088, -0.183, 0, 0, -120.828, -80.272, -83.513, -26.693, -9.913, -4.447, 29.58, 0.09183, 0.70786, -0.20538, 0.66949,
 14:32:00.230,e3:ca:2d:fd:e0:8c, 2015-01-01 00:54:44.240, 1.007, -0.146, -0.088, -0.061, -0.061, 0, -120.828, -80.272, -83.507, -26.693, -9.913, -4.447, 29.58, 0.09183, 0.70786, -0.20538, 0.66949,
 14:32:00.232,ed:35:33:d3:6c:f8, 2015-01-01 00:54:43.180, 0.456, -0.378, 0.802, -0.305, -0.305, 0, -25.12, -27.339, -170.766, -15.993, -2.047, -30.327, 30.48, -0.02524, 0.24695, -0.19196, 0.94943,
 14:32:00.232,ed:35:33:d3:6c:f8, 2015-01-01 00:54:43.180, 0.454, -0.376, 0.799, -0.183, -0.183, -0.305, -25.12, -27.345, -170.771, -15.993, -2.047, -30.327, 30.48, -0.02524, 0.24695, -0.19196, 0.94943,
 14:32:00.255,ed:40:fe:65:30:6c, 2015-01-01 00:54:55.100, 0.674, -0.174, 0.722, -0.061, 0, -0.305, -13.288, -42.325, -114.088, -22.947, -6.680, -3.193, 25.63, -0.46878, 0.35959, 0.10449, 0.79993,
 14:32:00.255,ed:40:fe:65:30:6c, 2015-01-01 00:54:55.100, 0.678, -0.173, 0.72, -0.061, 0, -0.427, -13.288, -42.325, -114.088, -22.947, -6.680, -3.193, 25.63, -0.46878, 0.35959, 0.10449, 0.79993,
 14:32:00.265,f6:90:cc:01:6d:25, 2015-01-01 00:54:41.780, 0.931, -0.315, 0.081, -0.61, -0.061, 0.061, -75.762, -70.697, -101.481, -31.807, -6.007, -1.587, 31.54, -0.13239, 0.67047, -0.0986, 0.72327,
 14:32:00.265,f6:90:cc:01:6d:25, 2015-01-01 00:54:41.780, 0.93, -0.315, 0.079, -0.183, -0.122, -0.122, -75.778, -70.703, -101.475, -31.807, -6.007, -1.587, 31.54, -0.13239, 0.67047, -0.0986, 0.72327,
 14:32:00.286,ed:40:fe:65:30:6c, 2015-01-01 00:54:55.100, 0.679, -0.172, 0.719, 0, 0, -0.366, -13.282, -42.33, -114.093, -22.947, -6.680, -3.193, 25.63, -0.46878, 0.35959, 0.10449, 0.79993,
 14:32:00.286,ed:40:fe:65:30:6c, 2015-01-01 00:54:55.100, 0.676, -0.174, 0.72, 0, 0, 0, -13.282, -42.33, -114.088, -22.947, -6.680, -3.193, 25.63, -0.46878, 0.35959, 0.10449, 0.79993,
 14:32:00.291,e3:ca:2d:fd:e0:8c, 2015-01-01 00:54:44.630, 1.007, -0.148, -0.089, 0, -0.183, 0, -120.839, -80.272, -83.496, -26.693, -9.913, -4.447, 29.58, 0.09183, 0.70786, -0.20538, 0.66949,
 14:32:00.291,e3:ca:2d:fd:e0:8c, 2015-01-01 00:54:44.630, 1.007, -0.15, -0.087, 0, -0.061, 0, -120.844, -80.272, -83.485, -26.693, -9.913, -4.447, 29.58, 0.09183, 0.70786, -0.20538, 0.66949,
 14:32:00.293,ed:35:33:d3:6c:f8, 2015-01-01 00:54:43.505, 0.458, -0.373, 0.797, -0.244, -0.244, -0.488, -25.12, -27.35, -170.777, -15.993, -2.047, -30.327, 30.48, -0.02524, 0.24695, -0.19196, 0.94943,
 14:32:00.293,ed:35:33:d3:6c:f8, 2015-01-01 00:54:43.505, 0.458, -0.371, 0.796, -0.122, 0, -0.427, -25.12, -27.356, -170.788, -15.993, -2.047, -30.327, 30.48, -0.02524, 0.24695, -0.19196, 0.94943,
 14:32:00.296,f6:90:cc:01:6d:25, 2015-01-01 00:54:42.135, 0.931, -0.317, 0.078, -0.061, -0.061, -0.122, -75.784, -70.703, -101.475, -31.807, -6.007, -1.587, 31.54, -0.13239, 0.67047, -0.0986, 0.72327,
 14:32:00.296,f6:90:cc:01:6d:25, 2015-01-01 00:54:42.135, 0.932, -0.319, 0.078, -0.061, -0.061, 0, -75.789, -70.703, -101.47, -31.807, -6.007, -1.587, 31.54, -0.13239, 0.67047, -0.0986, 0.72327,
 14:32:00.320,e3:ca:2d:fd:e0:8c, 2015-01-01 00:54:44.630, 1.007, -0.149, -0.087, -0.061, -0.061, 0, -120.844, -80.272, -83.48, -26.693, -9.913, -4.447, 29.58, 0.09183, 0.70786, -0.20538, 0.66949,
 14:32:00.320,e3:ca:2d:fd:e0:8c, 2015-01-01 00:54:44.630, 1.007, -0.149, -0.086, -0.061, 0, 0, -120.844, -80.272, -83.48, -26.693, -9.913, -4.447, 29.58, 0.09183, 0.70786, -0.20538, 0.66949,
 14:32:00.322,ed:35:33:d3:6c:f8, 2015-01-01 00:54:43.505, 0.455, -0.373, 0.797, 0, 0.183, -0.122, -25.12, -27.356, -170.788, -15.993, -2.047, -30.327, 30.48, -0.02524, 0.24695, -0.19196, 0.94943,
 14:32:00.322,ed:35:33:d3:6c:f8, 2015-01-01 00:54:43.505, 0.456, -0.375, 0.799, -0.061, 0.427, 0, -25.12, -27.35, -170.788, -15.993, -2.047, -30.327, 30.48, -0.02524, 0.24695, -0.19196, 0.94943,
 14:32:00.325,f6:90:cc:01:6d:25, 2015-01-01 00:54:42.135, 0.932, -0.318, 0.079, 0, 0, -0.061, -75.789, -70.703, -101.47, -31.807, -6.007, -1.587, 31.54, -0.13239, 0.67047, -0.0986, 0.72327,
 14:32:00.325,f6:90:cc:01:6d:25, 2015-01-01 00:54:42.135, 0.935, -0.316, 0.08, 0, 0, -0.122, -75.789, -70.708, -101.47, -31.807, -6.007, -1.587, 31.54, -0.13239, 0.67047, -0.0986, 0.72327,
 14:32:00.347,ed:40:fe:65:30:6c, 2015-01-01 00:54:55.425, 0.677, -0.173, 0.721, 0, 0.122, 0, -13.288, -42.33, -114.077, -22.947, -6.680, -3.193, 25.63, -0.46878, 0.35959, 0.10449, 0.79993,
 14:32:00.347,ed:40:fe:65:30:6c, 2015-01-01 00:54:55.425, 0.68, -0.173, 0.722, -0.061, 0.061, -0.122, -13.288, -42.33, -114.066, -22.947, -6.680, -3.193, 25.63, -0.46878, 0.35959, 0.10449, 0.79993,
 14:32:00.349,e3:ca:2d:fd:e0:8c, 2015-01-01 00:54:44.630, 1.008, -0.148, -0.086, 0, 0, 0, -120.839, -80.266, -83.48, -26.693, -9.913, -4.447, 29.58, 0.09183, 0.70786, -0.20538, 0.66949,
 14:32:00.349,e3:ca:2d:fd:e0:8c, 2015-01-01 00:54:44.630, 1.007, -0.148, -0.086, 0, -0.061, 0, -120.833, -80.266, -83.474, -26.693, -9.913, -4.447, 29.58, 0.09183, 0.70786, -0.20538, 0.66949,
 14:32:00.353,ed:35:33:d3:6c:f8, 2015-01-01 00:54:43.505, 0.459, -0.375, 0.8, -0.061, 0.244, -0.183, -25.115, -27.345, -170.782, -15.993, -2.047, -30.327, 30.48, -0.02524, 0.24695, -0.19196, 0.94943,
 14:32:00.353,ed:35:33:d3:6c:f8, 2015-01-01 00:54:43.505, 0.457, -0.376, 0.8, 0, 0.061, -0.183, -25.115, -27.345, -170.771, -15.993, -2.047, -30.327, 30.48, -0.02524, 0.24695, -0.19196, 0.94943,
 14:32:00.375,ed:40:fe:65:30:6c, 2015-01-01 00:54:55.425, 0.679, -0.176, 0.72, 0, 0.122, -0.183, -13.288, -42.33, -114.071, -22.947, -6.680, -3.193, 25.63, -0.46878, 0.35959, 0.10449, 0.79993,
 14:32:00.375,ed:40:fe:65:30:6c, 2015-01-01 00:54:55.425, 0.678, -0.174, 0.722, 0, 0.061, -0.183, -13.288, -42.33, -114.077, -22.947, -6.680, -3.193, 25.63, -0.46878, 0.35959, 0.10449, 0.79993,
 14:32:00.385,f6:90:cc:01:6d:25, 2015-01-01 00:54:42.135, 0.934, -0.317, 0.08, 0, 0.061, -0.061, -75.789, -70.708, -101.475, -31.807, -6.007, -1.587, 31.54, -0.13239, 0.67047, -0.0986, 0.72327,
 14:32:00.385,f6:90:cc:01:6d:25, 2015-01-01 00:54:42.135, 0.932, -0.318, 0.081, 0.244, 0.122, -0.183, -75.778, -70.708, -101.486, -31.807, -6.007, -1.587, 31.54, -0.13239, 0.67047, -0.0986, 0.72327,
 14:32:00.405,ed:40:fe:65:30:6c, 2015-01-01 00:54:55.425, 0.675, -0.17, 0.722, 0.061, 0.061, -0.183, -13.288, -42.33, -114.088, -22.947, -6.680, -3.193, 25.63, -0.46878, 0.35959, 0.10449, 0.79993,
 14:32:00.405,ed:40:fe:65:30:6c, 2015-01-01 00:54:55.425, 0.676, -0.169, 0.721, 0.244, 0.244, -0.061, -13.282, -42.325, -114.104, -22.947, -6.680, -3.193, 25.63, -0.46878, 0.35959, 0.10449, 0.79993,
 14:32:00.411,ed:35:33:d3:6c:f8, 2015-01-01 00:54:43.505, 0.457, -0.375, 0.799, 0, 0.305, -0.183, -25.115, -27.339, -170.777, -15.993, -2.047, -30.327, 30.48, -0.02524, 0.24695, -0.19196, 0.94943,
 14:32:00.411,ed:35:33:d3:6c:f8, 2015-01-01 00:54:43.505, 0.456, -0.373, 0.8, -0.183, 0.244, -0.244, -25.109, -27.339, -170.799, -15.993, -2.047, -30.327, 30.48, -0.02524, 0.24695, -0.19196, 0.94943,
 14:32:00.415,f6:90:cc:01:6d:25, 2015-01-01 00:54:42.135, 0.933, -0.316, 0.078, 0.427, 0.244, -0.305, -75.751, -70.714, -101.503, -31.807, -6.007, -1.587, 31.54, -0.13239, 0.67047, -0.0986, 0.72327,
 14:32:00.415,f6:90:cc:01:6d:25, 2015-01-01 00:54:42.135, 0.931, -0.318, 0.081, 0.366, 0.366, -0.366, -75.723, -70.719, -101.53, -31.807, -6.007, -1.587, 31.54, -0.13239, 0.67047, -0.0986, 0.72327,
 14:32:00.439,e3:ca:2d:fd:e0:8c, 2015-01-01 00:54:44.630, 1.007, -0.148, -0.085, 0, 0, 0, -120.833, -80.266, -83.474, -26.693, -9.913, -4.447, 29.58, 0.09183, 0.70786, -0.20538, 0.66949,
 14:32:00.439,e3:ca:2d:fd:e0:8c, 2015-01-01 00:54:44.630, 1.008, -0.148, -0.086, 0.061, 0, 0, -120.822, -80.272, -83.474, -26.693, -9.913, -4.447, 29.58, 0.09183, 0.70786, -0.20538, 0.66949,
 14:32:00.443,ed:35:33:d3:6c:f8, 2015-01-01 00:54:43.505, 0.455, -0.368, 0.798, 0.366, 0.122, -0.122, -25.104, -27.339, -170.826, -15.993, -2.047, -30.327, 30.48, -0.02524, 0.24695, -0.19196, 0.94943,
 14:32:00.443,ed:35:33:d3:6c:f8, 2015-01-01 00:54:43.505, 0.457, -0.372, 0.799, 0.366, 0.244, 0.183, -25.098, -27.334, -170.848, -15.993, -2.047, -30.327, 30.48, -0.02524, 0.24695, -0.19196, 0.94943,
 14:32:00.445,f6:90:cc:01:6d:25, 2015-01-01 00:54:42.135, 0.931, -0.314, 0.078, 0, 0.183, -0.122, -75.712, -70.719, -101.541, -31.807, -6.007, -1.587, 31.54, -0.13239, 0.67047, -0.0986, 0.72327,
 14:32:00.445,f6:90:cc:01:6d:25, 2015-01-01 00:54:42.135, 0.935, -0.316, 0.08, 0, 0.122, -0.061, -75.707, -70.719, -101.552, -31.807, -6.007, -1.587, 31.54, -0.13239, 0.67047, -0.0986, 0.72327,
 14:32:00.465,ed:40:fe:65:30:6c, 2015-01-01 00:54:55.425, 0.68, -0.172, 0.721, 0.366, 0.122, 0, -13.277, -42.325, -114.115, -22.947, -6.680, -3.193, 25.63, -0.46878, 0.35959, 0.10449, 0.79993,
 14:32:00.465,ed:40:fe:65:30:6c, 2015-01-01 00:54:55.425, 0.68, -0.174, 0.721, 0.122, 0.122, 0, -13.277, -42.325, -114.12, -22.947, -6.680, -3.193, 25.63, -0.46878, 0.35959, 0.10449, 0.79993,
 14:32:00.469,e3:ca:2d:fd:e0:8c, 2015-01-01 00:54:44.630, 1.007, -0.148, -0.086, 0.061, -0.061, 0, -120.817, -80.266, -83.474, -26.693, -9.913, -4.447, 29.58, 0.09183, 0.70786, -0.20538, 0.66949,
 14:32:00.469,e3:ca:2d:fd:e0:8c, 2015-01-01 00:54:44.630, 1.009, -0.147, -0.087, -0.061, 0, 0, -120.811, -80.272, -83.474, -26.693, -9.913, -4.447, 29.58, 0.09183, 0.70786, -0.20538, 0.66949,
 14:32:00.496,ed:40:fe:65:30:6c, 2015-01-01 00:54:55.425, 0.676, -0.174, 0.722, 0.061, 0.122, -0.183, -13.271, -42.325, -114.12, -22.947, -6.680, -3.193, 25.63, -0.46878, 0.35959, 0.10449, 0.79993,
 14:32:00.496,ed:40:fe:65:30:6c, 2015-01-01 00:54:55.425, 0.677, -0.171, 0.723, 0.183, 0.061, -0.305, -13.266, -42.325, -114.126, -22.947, -6.680, -3.193, 25.63, -0.46878, 0.35959, 0.10449, 0.79993,
 14:32:00.500,e3:ca:2d:fd:e0:8c, 2015-01-01 00:54:44.630, 1.009, -0.148, -0.088, 0, 0, 0, -120.806, -80.272, -83.474, -26.347, -9.800, -3.533, 29.58, 0.09183, 0.70786, -0.20538, 0.66949,
 14:32:00.500,e3:ca:2d:fd:e0:8c, 2015-01-01 00:54:44.630, 1.008, -0.147, -0.088, 0, 0, 0, -120.806, -80.272, -83.474, -26.347, -9.800, -3.533, 29.58, 0.09183, 0.70786, -0.20538, 0.66949,
 14:32:00.502,ed:35:33:d3:6c:f8, 2015-01-01 00:54:43.505, 0.458, -0.375, 0.799, 0, 0.366, 0, -25.093, -27.328, -170.876, -15.347, -2.260, -29.487, 30.48, -0.02524, 0.24695, -0.19196, 0.94943,
 14:32:00.502,ed:35:33:d3:6c:f8, 2015-01-01 00:54:43.505, 0.455, -0.377, 0.801, 0, 0.183, -0.122, -25.093, -27.323, -170.898, -15.347, -2.260, -29.487, 30.48, -0.02524, 0.24695, -0.19196, 0.94943,
 14:32:00.506,f6:90:cc:01:6d:25, 2015-01-01 00:54:42.135, 0.934, -0.315, 0.079, 0.244, 0.122, -0.244, -75.696, -70.724, -101.558, -31.807, -6.007, -1.587, 31.54, -0.13239, 0.67047, -0.0986, 0.72327,
 14:32:00.506,f6:90:cc:01:6d:25, 2015-01-01 00:54:42.135, 0.932, -0.315, 0.078, 0.061, 0.122, -0.244, -75.685, -70.724, -101.569, -31.807, -6.007, -1.587, 31.54, -0.13239, 0.67047, -0.0986, 0.72327,
 14:32:00.525,ed:40:fe:65:30:6c, 2015-01-01 00:54:55.425, 0.678, -0.17, 0.721, 0.183, 0, -0.305, -13.26, -42.325, -114.137, -23.047, -6.573, -3.107, 25.63, -0.46878, 0.35959, 0.10449, 0.79993,
 14:32:00.525,ed:40:fe:65:30:6c, 2015-01-01 00:54:55.425, 0.678, -0.168, 0.72, 0.244, 0, -0.122, -13.255, -42.325, -114.137, -23.047, -6.573, -3.107, 25.63, -0.46878, 0.35959, 0.10449, 0.79993,
 14:32:00.529,e3:ca:2d:fd:e0:8c, 2015-01-01 00:54:44.630, 1.008, -0.147, -0.088, 0, 0, 0, -120.8, -80.272, -83.474, -26.347, -9.800, -3.533, 29.58, 0.09183, 0.70786, -0.20538, 0.66949,
 14:32:00.529,e3:ca:2d:fd:e0:8c, 2015-01-01 00:54:44.630, 1.007, -0.148, -0.088, 0, 0, 0, -120.795, -80.272, -83.474, -26.347, -9.800, -3.533, 29.58, 0.09183, 0.70786, -0.20538, 0.66949,
 14:32:00.531,ed:35:33:d3:6c:f8, 2015-01-01 00:54:43.505, 0.455, -0.373, 0.801, 0.183, 0, -0.244, -25.087, -27.328, -170.892, -15.347, -2.260, -29.487, 30.48, -0.02524, 0.24695, -0.19196, 0.94943,
 14:32:00.531,ed:35:33:d3:6c:f8, 2015-01-01 00:54:43.505, 0.458, -0.37, 0.8, 0.244, 0, -0.244, -25.076, -27.328, -170.854, -15.347, -2.260, -29.487, 30.48, -0.02524, 0.24695, -0.19196, 0.94943,
 14:32:00.535,f6:90:cc:01:6d:25, 2015-01-01 00:54:42.135, 0.932, -0.315, 0.079, 0, 0.122, -0.183, -75.679, -70.73, -101.58, -31.707, -6.033, -2.220, 31.54, -0.13239, 0.67047, -0.0986, 0.72327,
 14:32:00.535,f6:90:cc:01:6d:25, 2015-01-01 00:54:42.135, 0.933, -0.316, 0.08, 0.122, 0.061, -0.122, -75.674, -70.73, -101.585, -31.707, -6.033, -2.220, 31.54, -0.13239, 0.67047, -0.0986, 0.72327,
 14:32:00.559,e3:ca:2d:fd:e0:8c, 2015-01-01 00:54:44.630, 1.008, -0.148, -0.087, 0, 0, 0, -120.795, -80.272, -83.474, -26.347, -9.800, -3.533, 29.58, 0.09134, 0.70795, -0.2049, 0.66959,
 14:32:00.559,e3:ca:2d:fd:e0:8c, 2015-01-01 00:54:44.630, 1.008, -0.148, -0.087, 0, -0.061, 0, -120.795, -80.272, -83.474, -26.347, -9.800, -3.533, 29.58, 0.09134, 0.70795, -0.2049, 0.66959,
 14:32:00.563,ed:35:33:d3:6c:f8, 2015-01-01 00:54:43.505, 0.457, -0.368, 0.799, 0.183, 0.183, -0.061, -25.071, -27.328, -170.799, -15.347, -2.260, -29.487, 30.48, -0.02435, 0.24664, -0.19196, 0.94952,
 14:32:00.563,ed:35:33:d3:6c:f8, 2015-01-01 00:54:43.505, 0.455, -0.369, 0.799, 0.183, 0.549, 0.061, -25.065, -27.318, -170.771, -15.347, -2.260, -29.487, 30.48, -0.02435, 0.24664, -0.19196, 0.94952,
 14:32:00.567,f6:90:cc:01:6d:25, 2015-01-01 00:54:42.135, 0.933, -0.315, 0.081, 0.122, 0, -0.061, -75.674, -70.735, -101.585, -31.707, -6.033, -2.220, 31.54, -0.13239, 0.67047, -0.0986, 0.72327,
 14:32:00.567,f6:90:cc:01:6d:25, 2015-01-01 00:54:42.135, 0.933, -0.316, 0.08, 0.061, 0, 0, -75.674, -70.735, -101.585, -31.707, -6.033, -2.220, 31.54, -0.13239, 0.67047, -0.0986, 0.72327,
 14:32:00.587,ed:40:fe:65:30:6c, 2015-01-01 00:54:55.425, 0.677, -0.169, 0.721, 0.244, 0, 0, -13.25, -42.33, -114.137, -23.047, -6.573, -3.107, 25.63, -0.46878, 0.35959, 0.10449, 0.79993,
 14:32:00.587,ed:40:fe:65:30:6c, 2015-01-01 00:54:55.425, 0.678, -0.17, 0.722, 0.183, 0.061, 0, -13.25, -42.33, -114.131, -23.047, -6.573, -3.107, 25.63, -0.46878, 0.35959, 0.10449, 0.79993,
 14:32:00.591,e3:ca:2d:fd:e0:8c, 2015-01-01 00:54:44.630, 1.007, -0.148, -0.086, 0, 0, 0, -120.795, -80.272, -83.469, -26.347, -9.800, -3.533, 29.58, 0.09134, 0.70795, -0.2049, 0.66959,
 14:32:00.591,e3:ca:2d:fd:e0:8c, 2015-01-01 00:54:44.630, 1.007, -0.148, -0.085, 0, 0, 0, -120.789, -80.272, -83.474, -26.347, -9.800, -3.533, 29.58, 0.09134, 0.70795, -0.2049, 0.66959,
 14:32:00.593,ed:35:33:d3:6c:f8, 2015-01-01 00:54:43.505, 0.456, -0.371, 0.801, 0.122, 0.305, 0.122, -25.06, -27.312, -170.76, -15.347, -2.260, -29.487, 30.48, -0.02435, 0.24664, -0.19196, 0.94952,
 14:32:00.593,ed:35:33:d3:6c:f8, 2015-01-01 00:54:43.505, 0.457, -0.372, 0.8, 0.122, 0.061, 0.122, -25.06, -27.312, -170.76, -15.347, -2.260, -29.487, 30.48, -0.02435, 0.24664, -0.19196, 0.94952,
 14:32:00.617,ed:40:fe:65:30:6c, 2015-01-01 00:54:55.425, 0.678, -0.171, 0.722, 0.183, 0.061, 0, -13.244, -42.33, -114.131, -23.047, -6.573, -3.107, 25.63, -0.4686, 0.3595, 0.10464, 0.80008,
 14:32:00.617,ed:40:fe:65:30:6c, 2015-01-01 00:54:55.425, 0.679, -0.172, 0.721, 0.244, 0.061, 0, -13.239, -42.33, -114.131, -23.047, -6.573, -3.107, 25.63, -0.4686, 0.3595, 0.10464, 0.80008,
 14:32:00.627,f6:90:cc:01:6d:25, 2015-01-01 00:54:42.135, 0.933, -0.315, 0.08, 0.061, 0, 0, -75.674, -70.735, -101.585, -31.707, -6.033, -2.220, 31.54, -0.13193, 0.67038, -0.09863, 0.72342,
 14:32:00.627,f6:90:cc:01:6d:25, 2015-01-01 00:54:42.135, 0.933, -0.315, 0.08, 0, 0.061, 0, -75.674, -70.735, -101.591, -31.707, -6.033, -2.220, 31.54, -0.13193, 0.67038, -0.09863, 0.72342,
 14:32:00.647,ed:40:fe:65:30:6c, 2015-01-01 00:54:55.425, 0.677, -0.173, 0.72, 0.183, 0.061, 0, -13.239, -42.33, -114.131, -23.047, -6.573, -3.107, 25.63, -0.4686, 0.3595, 0.10464, 0.80008,
 14:32:00.647,ed:40:fe:65:30:6c, 2015-01-01 00:54:55.425, 0.675, -0.171, 0.722, 0.183, 0.122, 0.061, -13.239, -42.325, -114.131, -23.047, -6.573, -3.107, 25.63, -0.4686, 0.3595, 0.10464, 0.80008,
 14:32:00.649,e3:ca:2d:fd:e0:8c, 2015-01-01 00:54:44.985, 1.007, -0.148, -0.085, 0, 0, 0, -120.784, -80.272, -83.474, -26.347, -9.800, -3.533, 29.58, 0.09134, 0.70795, -0.2049, 0.66959,
 14:32:00.649,e3:ca:2d:fd:e0:8c, 2015-01-01 00:54:44.985, 1.008, -0.147, -0.086, 0, 0, 0, -120.778, -80.272, -83.474, -26.347, -9.800, -3.533, 29.58, 0.09134, 0.70795, -0.2049, 0.66959,
 14:32:00.653,ed:35:33:d3:6c:f8, 2015-01-01 00:54:43.865, 0.458, -0.373, 0.8, 0.122, -0.061, 0.122, -25.054, -27.312, -170.75, -15.347, -2.260, -29.487, 30.48, -0.02435, 0.24664, -0.19196, 0.94952,
 14:32:00.653,ed:35:33:d3:6c:f8, 2015-01-01 00:54:43.865, 0.455, -0.373, 0.798, 0, 0, 0.061, -25.054, -27.312, -170.739, -15.347, -2.260, -29.487, 30.48, -0.02435, 0.24664, -0.19196, 0.94952,
 14:32:00.655,f6:90:cc:01:6d:25, 2015-01-01 00:54:42.525, 0.931, -0.316, 0.081, 0, 0.061, 0.061, -75.674, -70.73, -101.591, -31.707, -6.033, -2.220, 31.54, -0.13193, 0.67038, -0.09863, 0.72342,
 14:32:00.655,f6:90:cc:01:6d:25, 2015-01-01 00:54:42.525, 0.931, -0.316, 0.081, 0.122, 0.122, 0, -75.663, -70.73, -101.596, -31.707, -6.033, -2.220, 31.54, -0.13193, 0.67038, -0.09863, 0.72342,
 14:32:00.686,f6:90:cc:01:6d:25, 2015-01-01 00:54:42.525, 0.931, -0.315, 0.08, 0.061, 0.122, 0, -75.657, -70.73, -101.607, -31.707, -6.033, -2.220, 31.54, -0.13193, 0.67038, -0.09863, 0.72342,
 14:32:00.686,f6:90:cc:01:6d:25, 2015-01-01 00:54:42.525, 0.932, -0.314, 0.081, -0.061, 0.061, 0.061, -75.652, -70.73, -101.613, -31.707, -6.033, -2.220, 31.54, -0.13193, 0.67038, -0.09863, 0.72342,
 14:32:00.706,ed:40:fe:65:30:6c, 2015-01-01 00:54:55.785, 0.674, -0.172, 0.723, 0.122, 0.122, 0.061, -13.233, -42.325, -114.131, -23.047, -6.573, -3.107, 25.63, -0.4686, 0.3595, 0.10464, 0.80008,
 14:32:00.706,ed:40:fe:65:30:6c, 2015-01-01 00:54:55.785, 0.675, -0.17, 0.723, 0.061, 0, 0.061, -13.239, -42.325, -114.131, -23.047, -6.573, -3.107, 25.63, -0.4686, 0.3595, 0.10464, 0.80008,
 14:32:00.710,e3:ca:2d:fd:e0:8c, 2015-01-01 00:54:44.985, 1.008, -0.148, -0.086, 0, 0, 0, -120.773, -80.272, -83.474, -26.347, -9.800, -3.533, 29.58, 0.09134, 0.70795, -0.2049, 0.66959,
 14:32:00.710,e3:ca:2d:fd:e0:8c, 2015-01-01 00:54:44.985, 1.007, -0.149, -0.087, 0, 0, 0, -120.767, -80.277, -83.474, -26.347, -9.800, -3.533, 29.58, 0.09134, 0.70795, -0.2049, 0.66959,
 14:32:00.710,e3:ca:2d:fd:e0:8c, 2015-01-01 00:54:44.985, 1.007, -0.149, -0.086, 0, -0.061, 0, -120.762, -80.277, -83.469, -26.347, -9.800, -3.533, 29.58, 0.09134, 0.70795, -0.2049, 0.66959,
 14:32:00.710,e3:ca:2d:fd:e0:8c, 2015-01-01 00:54:44.985, 1.008, -0.148, -0.087, 0, -0.061, 0, -120.762, -80.272, -83.463, -26.347, -9.800, -3.533, 29.58, 0.09134, 0.70795, -0.2049, 0.66959,
 14:32:00.712,ed:35:33:d3:6c:f8, 2015-01-01 00:54:43.865, 0.453, -0.372, 0.8, 0, 0.061, 0.122, -25.054, -27.307, -170.728, -15.347, -2.260, -29.487, 30.48, -0.02435, 0.24664, -0.19196, 0.94952,
 14:32:00.712,ed:35:33:d3:6c:f8, 2015-01-01 00:54:43.865, 0.453, -0.372, 0.802, 0, 0, 0.122, -25.054, -27.307, -170.717, -15.347, -2.260, -29.487, 30.48, -0.02435, 0.24664, -0.19196, 0.94952,
 14:32:00.712,ed:35:33:d3:6c:f8, 2015-01-01 00:54:43.865, 0.453, -0.372, 0.801, 0.061, -0.061, 0.122, -25.054, -27.307, -170.706, -15.347, -2.260, -29.487, 30.48, -0.02435, 0.24664, -0.19196, 0.94952,
 14:32:00.712,ed:35:33:d3:6c:f8, 2015-01-01 00:54:43.865, 0.457, -0.371, 0.802, 0, -0.122, 0, -25.049, -27.312, -170.7, -15.347, -2.260, -29.487, 30.48, -0.02435, 0.24664, -0.19196, 0.94952,
 14:32:00.737,ed:40:fe:65:30:6c, 2015-01-01 00:54:55.785, 0.677, -0.169, 0.723, 0, 0, 0, -13.239, -42.325, -114.131, -23.047, -6.573, -3.107, 25.63, -0.4686, 0.3595, 0.10464, 0.80008,
 14:32:00.737,ed:40:fe:65:30:6c, 2015-01-01 00:54:55.785, 0.679, -0.17, 0.721, 0, 0, 0, -13.239, -42.325, -114.131, -23.047, -6.573, -3.107, 25.63, -0.4686, 0.3595, 0.10464, 0.80008,
 14:32:00.747,f6:90:cc:01:6d:25, 2015-01-01 00:54:42.525, 0.934, -0.314, 0.081, 0, 0.061, 0.061, -75.652, -70.73, -101.613, -31.707, -6.033, -2.220, 31.54, -0.13193, 0.67038, -0.09863, 0.72342,
 14:32:00.747,f6:90:cc:01:6d:25, 2015-01-01 00:54:42.525, 0.933, -0.316, 0.081, 0, 0, 0.061, -75.652, -70.724, -101.613, -31.707, -6.033, -2.220, 31.54, -0.13193, 0.67038, -0.09863, 0.72342,
 14:32:00.765,ed:40:fe:65:30:6c, 2015-01-01 00:54:55.785, 0.677, -0.171, 0.721, 0, 0, 0, -13.239, -42.325, -114.131, -23.047, -6.573, -3.107, 25.63, -0.4686, 0.3595, 0.10464, 0.80008,
 14:32:00.765,ed:40:fe:65:30:6c, 2015-01-01 00:54:55.785, 0.679, -0.174, 0.722, 0, 0, 0.061, -13.239, -42.325, -114.131, -23.047, -6.573, -3.107, 25.63, -0.4686, 0.3595, 0.10464, 0.80008,
 14:32:00.769,e3:ca:2d:fd:e0:8c, 2015-01-01 00:54:44.985, 1.008, -0.148, -0.086, 0, -0.122, 0, -120.767, -80.272, -83.452, -26.347, -9.800, -3.533, 29.58, 0.09134, 0.70795, -0.2049, 0.66959,
 14:32:00.769,e3:ca:2d:fd:e0:8c, 2015-01-01 00:54:44.985, 1.008, -0.149, -0.087, 0, -0.122, 0, -120.778, -80.272, -83.441, -26.347, -9.800, -3.533, 29.58, 0.09134, 0.70795, -0.2049, 0.66959,
 14:32:00.771,ed:35:33:d3:6c:f8, 2015-01-01 00:54:43.865, 0.458, -0.372, 0.8, -0.183, -0.244, -0.122, -25.054, -27.312, -170.689, -15.347, -2.260, -29.487, 30.48, -0.02435, 0.24664, -0.19196, 0.94952,
 14:32:00.771,ed:35:33:d3:6c:f8, 2015-01-01 00:54:43.865, 0.455, -0.371, 0.799, -0.244, -0.122, 0, -25.06, -27.318, -170.684, -15.347, -2.260, -29.487, 30.48, -0.02435, 0.24664, -0.19196, 0.94952,
 14:32:00.775,f6:90:cc:01:6d:25, 2015-01-01 00:54:42.525, 0.933, -0.317, 0.08, -0.061, 0, 0.122, -75.652, -70.724, -101.613, -31.707, -6.033, -2.220, 31.54, -0.13193, 0.67038, -0.09863, 0.72342,
 14:32:00.775,f6:90:cc:01:6d:25, 2015-01-01 00:54:42.525, 0.934, -0.316, 0.081, 0, 0, 0.122, -75.657, -70.724, -101.613, -31.707, -6.033, -2.220, 31.54, -0.13193, 0.67038, -0.09863, 0.72342,
 14:32:00.800,e3:ca:2d:fd:e0:8c, 2015-01-01 00:54:44.985, 1.007, -0.149, -0.086, -0.061, -0.061, 0, -120.778, -80.272, -83.436, -26.347, -9.800, -3.533, 29.58, 0.09134, 0.70795, -0.2049, 0.66959,
 14:32:00.800,e3:ca:2d:fd:e0:8c, 2015-01-01 00:54:44.985, 1.008, -0.148, -0.086, 0, -0.061, 0, -120.778, -80.272, -83.43, -26.347, -9.800, -3.533, 29.58, 0.09134, 0.70795, -0.2049, 0.66959,
 14:32:00.802,ed:35:33:d3:6c:f8, 2015-01-01 00:54:43.865, 0.456, -0.375, 0.799, -0.061, 0, 0.122, -25.06, -27.318, -170.673, -15.347, -2.260, -29.487, 30.48, -0.02435, 0.24664, -0.19196, 0.94952,
 14:32:00.802,ed:35:33:d3:6c:f8, 2015-01-01 00:54:43.865, 0.458, -0.376, 0.8, -0.061, 0.183, 0, -25.06, -27.312, -170.667, -15.347, -2.260, -29.487, 30.48, -0.02435, 0.24664, -0.19196, 0.94952,
 14:32:00.806,f6:90:cc:01:6d:25, 2015-01-01 00:54:42.525, 0.933, -0.315, 0.081, 0.061, 0.122, 0, -75.657, -70.719, -101.613, -31.707, -6.033, -2.220, 31.54, -0.13193, 0.67038, -0.09863, 0.72342,
 14:32:00.806,f6:90:cc:01:6d:25, 2015-01-01 00:54:42.525, 0.931, -0.32, 0.079, 0.183, 0, 0, -75.652, -70.719, -101.618, -31.707, -6.033, -2.220, 31.54, -0.13193, 0.67038, -0.09863, 0.72342,
 14:32:00.826,ed:40:fe:65:30:6c, 2015-01-01 00:54:55.785, 0.679, -0.174, 0.723, 0, 0.061, 0, -13.244, -42.325, -114.131, -23.047, -6.573, -3.107, 25.63, -0.4686, 0.3595, 0.10464, 0.80008,
 14:32:00.826,ed:40:fe:65:30:6c, 2015-01-01 00:54:55.785, 0.68, -0.173, 0.721, 0.122, 0.061, -0.061, -13.244, -42.325, -114.131, -23.047, -6.573, -3.107, 25.63, -0.4686, 0.3595, 0.10464, 0.80008,
 14:32:00.830,e3:ca:2d:fd:e0:8c, 2015-01-01 00:54:44.985, 1.008, -0.148, -0.086, 0, -0.122, 0, -120.784, -80.272, -83.419, -26.653, -9.767, -4.073, 29.58, 0.09134, 0.70795, -0.2049, 0.66959,
 14:32:00.830,e3:ca:2d:fd:e0:8c, 2015-01-01 00:54:44.985, 1.006, -0.15, -0.086, -0.061, -0.061, 0, -120.784, -80.272, -83.414, -26.653, -9.767, -4.073, 29.58, 0.09134, 0.70795, -0.2049, 0.66959,
 14:32:00.856,ed:40:fe:65:30:6c, 2015-01-01 00:54:55.785, 0.675, -0.172, 0.72, 0.061, 0.244, 0.122, -13.244, -42.325, -114.131, -23.047, -6.573, -3.107, 25.63, -0.4686, 0.3595, 0.10464, 0.80008,
 14:32:00.856,ed:40:fe:65:30:6c, 2015-01-01 00:54:55.785, 0.677, -0.169, 0.721, 0.061, 0, 0.183, -13.244, -42.319, -114.126, -23.047, -6.573, -3.107, 25.63, -0.4686, 0.3595, 0.10464, 0.80008,
 14:32:00.862,ed:35:33:d3:6c:f8, 2015-01-01 00:54:43.865, 0.458, -0.375, 0.799, 0, -0.122, 0, -25.06, -27.312, -170.656, -15.673, -2.347, -29.007, 30.48, -0.02435, 0.24664, -0.19196, 0.94952,
 14:32:00.862,ed:35:33:d3:6c:f8, 2015-01-01 00:54:43.865, 0.452, -0.372, 0.798, 0, 0.061, 0, -25.054, -27.312, -170.651, -15.673, -2.347, -29.007, 30.48, -0.02435, 0.24664, -0.19196, 0.94952,
 14:32:00.916,ed:40:fe:65:30:6c, 2015-01-01 00:54:55.785, 0.679, -0.167, 0.72, 0, 0.122, 0, -13.25, -42.319, -114.126, -23.127, -6.753, -2.153, 25.63, -0.4686, 0.3595, 0.10464, 0.80008,
 14:32:00.916,ed:40:fe:65:30:6c, 2015-01-01 00:54:55.785, 0.678, -0.168, 0.723, -0.122, 0.305, 0, -13.25, -42.319, -114.126, -23.127, -6.753, -2.153, 25.63, -0.4686, 0.3595, 0.10464, 0.80008,
 14:32:00.920,e3:ca:2d:fd:e0:8c, 2015-01-01 00:54:44.985, 1.006, -0.149, -0.086, -0.122, -0.061, 0, -120.784, -80.272, -83.408, -26.653, -9.767, -4.073, 29.58, 0.09134, 0.70795, -0.2049, 0.66959,
 14:32:00.920,e3:ca:2d:fd:e0:8c, 2015-01-01 00:54:44.985, 1.009, -0.146, -0.088, 0, 0, 0, -120.784, -80.272, -83.408, -26.653, -9.767, -4.073, 29.58, 0.09134, 0.70795, -0.2049, 0.66959,
 14:32:00.922,ed:35:33:d3:6c:f8, 2015-01-01 00:54:43.865, 0.457, -0.371, 0.8, 0.061, 0.061, 0, -25.054, -27.312, -170.645, -15.673, -2.347, -29.007, 30.48, -0.02435, 0.24664, -0.19196, 0.94952,
 14:32:00.922,ed:35:33:d3:6c:f8, 2015-01-01 00:54:43.865, 0.459, -0.37, 0.797, -0.122, 0.244, 0, -25.054, -27.307, -170.64, -15.673, -2.347, -29.007, 30.48, -0.02435, 0.24664, -0.19196, 0.94952,
 14:32:00.922,ed:35:33:d3:6c:f8, 2015-01-01 00:54:43.865, 0.457, -0.368, 0.8, -0.183, 0.122, 0, -25.054, -27.307, -170.634, -15.673, -2.347, -29.007, 30.48, -0.02435, 0.24664, -0.19196, 0.94952,
 14:32:00.922,ed:35:33:d3:6c:f8, 2015-01-01 00:54:43.865, 0.454, -0.371, 0.805, 0.061, 0, 0.549, -25.06, -27.307, -170.618, -15.673, -2.347, -29.007, 30.48, -0.02435, 0.24664, -0.19196, 0.94952,
 14:32:00.926,f6:90:cc:01:6d:25, 2015-01-01 00:54:42.525, 0.93, -0.317, 0.079, -0.244, 0.244, 0, -75.646, -70.719, -101.618, -31.707, -6.033, -2.220, 31.54, -0.13193, 0.67038, -0.09863, 0.72342,
 14:32:00.926,f6:90:cc:01:6d:25, 2015-01-01 00:54:42.525, 0.933, -0.311, 0.078, -0.549, 0.305, 0.061, -75.641, -70.719, -101.635, -31.707, -6.033, -2.220, 31.54, -0.13193, 0.67038, -0.09863, 0.72342,
 14:32:00.926,f6:90:cc:01:6d:25, 2015-01-01 00:54:42.525, 0.936, -0.313, 0.081, -0.305, 0.305, 0.122, -75.635, -70.714, -101.651, -31.707, -6.033, -2.220, 31.54, -0.13193, 0.67038, -0.09863, 0.72342,
 14:32:00.926,f6:90:cc:01:6d:25, 2015-01-01 00:54:42.525, 0.931, -0.319, 0.081, -0.244, 0.244, 0.244, -75.63, -70.714, -101.662, -31.707, -6.033, -2.220, 31.54, -0.13193, 0.67038, -0.09863, 0.72342,
 14:32:00.928,f6:90:cc:01:6d:25, 2015-01-01 00:54:42.525, 0.932, -0.321, 0.076, -0.427, 0.122, 0.549, -75.63, -70.703, -101.673, -31.707, -6.033, -2.220, 31.54, -0.13193, 0.67038, -0.09863, 0.72342,
 14:32:00.928,f6:90:cc:01:6d:25, 2015-01-01 00:54:42.525, 0.936, -0.317, 0.079, -0.488, 0, 0.488, -75.646, -70.692, -101.667, -31.933, -5.867, -1.200, 31.54, -0.13193, 0.67038, -0.09863, 0.72342,
 14:32:00.947,ed:40:fe:65:30:6c, 2015-01-01 00:54:55.785, 0.676, -0.171, 0.724, 0, 0.427, 0.305, -13.255, -42.308, -114.126, -23.127, -6.753, -2.153, 25.63, -0.4686, 0.3595, 0.10464, 0.80008,
 14:32:00.947,ed:40:fe:65:30:6c, 2015-01-01 00:54:55.785, 0.678, -0.174, 0.726, -0.122, 0, 0.549, -13.266, -42.308, -114.115, -23.127, -6.753, -2.153, 25.63, -0.4686, 0.3595, 0.10464, 0.80008,
 14:32:00.949,e3:ca:2d:fd:e0:8c, 2015-01-01 00:54:44.985, 1.009, -0.148, -0.086, 0, -0.122, 0, -120.789, -80.272, -83.392, -26.653, -9.767, -4.073, 29.58, 0.09085, 0.7081, -0.20441, 0.66968,
 14:32:00.949,e3:ca:2d:fd:e0:8c, 2015-01-01 00:54:44.985, 1.007, -0.151, -0.088, -0.061, -0.061, 0, -120.789, -80.272, -83.386, -26.653, -9.767, -4.073, 29.58, 0.09085, 0.7081, -0.20441, 0.66968,
 14:32:00.977,ed:40:fe:65:30:6c, 2015-01-01 00:54:55.785, 0.678, -0.175, 0.724, -0.122, -0.122, 0.366, -13.277, -42.308, -114.104, -23.127, -6.753, -2.153, 25.63, -0.46878, 0.35944, 0.10446, 0.80002,
 14:32:00.977,ed:40:fe:65:30:6c, 2015-01-01 00:54:55.785, 0.675, -0.173, 0.721, 0, 0, 0, -13.277, -42.308, -114.099, -23.127, -6.753, -2.153, 25.63, -0.46878, 0.35944, 0.10446, 0.80002,
 14:32:00.981,e3:ca:2d:fd:e0:8c, 2015-01-01 00:54:44.985, 1.009, -0.15, -0.089, -0.061, 0.122, 0, -120.773, -80.272, -83.403, -26.653, -9.767, -4.073, 29.58, 0.09085, 0.7081, -0.20441, 0.66968,
 14:32:00.981,e3:ca:2d:fd:e0:8c, 2015-01-01 00:54:44.985, 1.008, -0.146, -0.087, 0, 0.061, 0, -120.762, -80.272, -83.408, -26.653, -9.767, -4.073, 29.58, 0.09085, 0.7081, -0.20441, 0.66968,
 14:32:00.987,f6:90:cc:01:6d:25, 2015-01-01 00:54:42.525, 0.932, -0.313, 0.083, -0.427, -0.061, 0.305, -75.663, -70.686, -101.662, -31.933, -5.867, -1.200, 31.54, -0.13193, 0.67038, -0.09863, 0.72342,
 14:32:00.987,f6:90:cc:01:6d:25, 2015-01-01 00:54:42.525, 0.928, -0.314, 0.08, -0.305, -0.183, 0.122, -75.685, -70.681, -101.651, -31.933, -5.867, -1.200, 31.54, -0.13193, 0.67038, -0.09863, 0.72342,
 14:32:01.008,ed:40:fe:65:30:6c, 2015-01-01 00:54:55.785, 0.676, -0.171, 0.72, 0, 0, 0, -13.282, -42.308, -114.099, -23.127, -6.753, -2.153, 25.63, -0.46878, 0.35944, 0.10446, 0.80002,
 14:32:01.008,ed:40:fe:65:30:6c, 2015-01-01 00:54:55.785, 0.676, -0.169, 0.718, 0.061, 0, 0.244, -13.282, -42.308, -114.093, -23.127, -6.753, -2.153, 25.63, -0.46878, 0.35944, 0.10446, 0.80002,
 14:32:01.010,e3:ca:2d:fd:e0:8c, 2015-01-01 00:54:44.985, 1.007, -0.146, -0.087, 0, -0.122, 0, -120.773, -80.272, -83.397, -26.653, -9.767, -4.073, 29.58, 0.09085, 0.7081, -0.20441, 0.66968,
 14:32:01.010,e3:ca:2d:fd:e0:8c, 2015-01-01 00:54:44.985, 1.006, -0.147, -0.088, 0, -0.061, 0, -120.778, -80.272, -83.392, -26.653, -9.767, -4.073, 29.58, 0.09085, 0.7081, -0.20441, 0.66968,
 14:32:01.012,ed:35:33:d3:6c:f8, 2015-01-01 00:54:43.865, 0.454, -0.375, 0.804, -0.305, -0.061, 0.61, -25.071, -27.301, -170.596, -15.673, -2.347, -29.007, 30.48, -0.02628, 0.24689, -0.19128, 0.94955,
 14:32:01.012,ed:35:33:d3:6c:f8, 2015-01-01 00:54:43.865, 0.457, -0.379, 0.802, -0.305, 0, 0.305, -25.076, -27.296, -170.585, -15.673, -2.347, -29.007, 30.48, -0.02628, 0.24689, -0.19128, 0.94955,
 14:32:01.012,ed:35:33:d3:6c:f8, 2015-01-01 00:54:43.865, 0.454, -0.374, 0.798, -0.183, 0.122, 0, -25.076, -27.296, -170.579, -15.673, -2.347, -29.007, 30.48, -0.02628, 0.24689, -0.19128, 0.94955,
 14:32:01.012,ed:35:33:d3:6c:f8, 2015-01-01 00:54:43.865, 0.456, -0.37, 0.799, 0, 0, 0.122, -25.076, -27.296, -170.568, -15.673, -2.347, -29.007, 30.48, -0.02628, 0.24689, -0.19128, 0.94955,
 14:32:01.015,f6:90:cc:01:6d:25, 2015-01-01 00:54:42.525, 0.93, -0.317, 0.078, -0.061, -0.122, 0.061, -75.701, -70.681, -101.64, -31.933, -5.867, -1.200, 31.54, -0.13193, 0.67038, -0.09863, 0.72342,
 14:32:01.015,f6:90:cc:01:6d:25, 2015-01-01 00:54:42.525, 0.932, -0.317, 0.079, 0, 0, 0.122, -75.707, -70.681, -101.635, -31.933, -5.867, -1.200, 31.54, -0.13193, 0.67038, -0.09863, 0.72342,
 14:32:01.039,e3:ca:2d:fd:e0:8c, 2015-01-01 00:54:45.375, 1.007, -0.149, -0.086, -0.061, -0.061, 0, -120.784, -80.272, -83.386, -26.653, -9.767, -4.073, 29.58, 0.09085, 0.7081, -0.20441, 0.66968,
 14:32:01.039,e3:ca:2d:fd:e0:8c, 2015-01-01 00:54:45.375, 1.007, -0.148, -0.085, 0.061, 0, 0, -120.778, -80.272, -83.386, -26.653, -9.767, -4.073, 29.58, 0.09085, 0.7081, -0.20441, 0.66968,
 14:32:01.041,ed:35:33:d3:6c:f8, 2015-01-01 00:54:44.250, 0.454, -0.369, 0.797, 0.061, -0.183, 0.366, -25.082, -27.296, -170.552, -15.673, -2.347, -29.007, 30.48, -0.02628, 0.24689, -0.19128, 0.94955,
 14:32:01.041,ed:35:33:d3:6c:f8, 2015-01-01 00:54:44.250, 0.458, -0.372, 0.8, -0.122, -0.061, 0.305, -25.087, -27.296, -170.541, -15.673, -2.347, -29.007, 30.48, -0.02628, 0.24689, -0.19128, 0.94955,
 14:32:01.045,f6:90:cc:01:6d:25, 2015-01-01 00:54:42.525, 0.934, -0.315, 0.082, 0, 0, 0.183, -75.712, -70.675, -101.629, -31.933, -5.867, -1.200, 31.54, -0.13174, 0.67026, -0.09946, 0.72348,
 14:32:01.045,f6:90:cc:01:6d:25, 2015-01-01 00:54:42.525, 0.933, -0.316, 0.081, 0, 0.122, 0.305, -75.712, -70.67, -101.629, -31.933, -5.867, -1.200, 31.54, -0.13174, 0.67026, -0.09946, 0.72348,
 14:32:01.066,ed:40:fe:65:30:6c, 2015-01-01 00:54:56.140, 0.678, -0.171, 0.721, 0.061, 0, 0.366, -13.288, -42.308, -114.088, -23.127, -6.753, -2.153, 25.63, -0.46878, 0.35944, 0.10446, 0.80002,
 14:32:01.066,ed:40:fe:65:30:6c, 2015-01-01 00:54:56.140, 0.679, -0.172, 0.721, 0, 0.061, 0.244, -13.293, -42.308, -114.077, -23.127, -6.753, -2.153, 25.63, -0.46878, 0.35944, 0.10446, 0.80002,
 14:32:01.069,e3:ca:2d:fd:e0:8c, 2015-01-01 00:54:45.375, 1.007, -0.149, -0.085, 0, 0, 0, -120.773, -80.272, -83.386, -26.653, -9.767, -4.073, 29.58, 0.09085, 0.7081, -0.20441, 0.66968,
 14:32:01.069,e3:ca:2d:fd:e0:8c, 2015-01-01 00:54:45.375, 1.007, -0.15, -0.085, 0.061, -0.061, 0, -120.767, -80.272, -83.381, -26.653, -9.767, -4.073, 29.58, 0.09085, 0.7081, -0.20441, 0.66968,
 14:32:01.071,ed:35:33:d3:6c:f8, 2015-01-01 00:54:44.250, 0.456, -0.374, 0.798, -0.244, 0, 0.183, -25.087, -27.29, -170.53, -15.673, -2.347, -29.007, 30.48, -0.02628, 0.24689, -0.19128, 0.94955,
 14:32:01.071,ed:35:33:d3:6c:f8, 2015-01-01 00:54:44.250, 0.453, -0.375, 0.8, 0, 0, 0.183, -25.093, -27.29, -170.519, -15.673, -2.347, -29.007, 30.48, -0.02628, 0.24689, -0.19128, 0.94955,
 14:32:01.096,ed:40:fe:65:30:6c, 2015-01-01 00:54:56.140, 0.676, -0.175, 0.724, -0.061, 0.183, 0.183, -13.299, -42.303, -114.077, -23.127, -6.753, -2.153, 25.63, -0.46878, 0.35944, 0.10446, 0.80002,
 14:32:01.096,ed:40:fe:65:30:6c, 2015-01-01 00:54:56.140, 0.677, -0.175, 0.723, 0, 0.061, 0.244, -13.304, -42.303, -114.071, -23.127, -6.753, -2.153, 25.63, -0.46878, 0.35944, 0.10446, 0.80002,
 14:32:01.107,f6:90:cc:01:6d:25, 2015-01-01 00:54:42.525, 0.931, -0.319, 0.081, -0.183, 0.122, 0.305, -75.712, -70.664, -101.635, -31.933, -5.867, -1.200, 31.54, -0.13174, 0.67026, -0.09946, 0.72348,
 14:32:01.107,f6:90:cc:01:6d:25, 2015-01-01 00:54:42.525, 0.932, -0.318, 0.082, 0.061, 0.122, 0.183, -75.712, -70.659, -101.635, -31.933, -5.867, -1.200, 31.54, -0.13174, 0.67026, -0.09946, 0.72348,
 14:32:01.127,ed:40:fe:65:30:6c, 2015-01-01 00:54:56.140, 0.68, -0.174, 0.72, 0.122, 0, 0.244, -13.31, -42.303, -114.066, -23.127, -6.753, -2.153, 25.63, -0.46878, 0.35944, 0.10446, 0.80002,
 14:32:01.127,ed:40:fe:65:30:6c, 2015-01-01 00:54:56.140, 0.678, -0.171, 0.72, 0.122, 0.122, 0.183, -13.315, -42.303, -114.06, -23.127, -6.753, -2.153, 25.63, -0.46878, 0.35944, 0.10446, 0.80002,
 14:32:01.129,e3:ca:2d:fd:e0:8c, 2015-01-01 00:54:45.375, 1.007, -0.149, -0.085, 0.122, 0, 0, -120.762, -80.272, -83.381, -26.653, -9.767, -4.073, 29.58, 0.09085, 0.7081, -0.20441, 0.66968,
