Time,Device name,Chip Time(),Acceleration X(g),Acceleration Y(g),Acceleration Z(g),Angular velocity X(°/s),Angular velocity Y(°/s),Angular velocity Z(°/s),Angle X(°),Angle Y(°),Angle Z(°),Magnetic field X(ʯt),Magnetic field Y(ʯt),Magnetic field Z(ʯt),Temperature(℃),Quaternions 0(),Quaternions 1(),Quaternions 2(),Quaternions 3()
 16:37:27.115,f6:90:cc:01:6d:25, 2015-01-01 01:49:39.200, 0.898, -0.011, -0.411, 0.671, 0.366, 0, -178.193, -65.511, 18.342, -25.493, -7.900, 15.513, 33.42, 0.0993, -0.8287, -0.14243, -0.53198,
 16:37:27.115,f6:90:cc:01:6d:25, 2015-01-01 01:49:39.200, 0.898, -0.009, -0.411, 0.671, 0.244, 0, -178.182, -65.517, 18.336, -25.493, -7.900, 15.513, 33.42, 0.0993, -0.8287, -0.14243, -0.53198,
 16:37:27.134,e3:ca:2d:fd:e0:8c, 2015-01-01 01:49:50.690, 0.946, -0.298, -0.247, 0, 0, 0, -129.441, -67.819, -87.671, -24.840, 0.127, -0.073, 31.51, 0.09357, 0.70651, -0.34781, 0.6091,
 16:37:27.134,e3:ca:2d:fd:e0:8c, 2015-01-01 01:49:50.690, 0.947, -0.298, -0.248, -0.061, -0.061, 0, -129.446, -67.819, -87.665, -24.840, 0.127, -0.073, 31.51, 0.09357, 0.70651, -0.34781, 0.6091,
 16:37:27.135,ed:35:33:d3:6c:f8, 2015-01-01 01:49:41.415, 0.948, 0.091, 0.291, -0.244, 0.244, 0.366, 16.809, -72.252, 143.273, -25.760, -12.247, -11.987, 31.46, -0.17111, -0.59052, 0.07233, -0.78528,
 16:37:27.135,ed:35:33:d3:6c:f8, 2015-01-01 01:49:41.415, 0.946, 0.089, 0.292, -0.244, 0.244, 0.549, 16.771, -72.252, 143.322, -25.760, -12.247, -11.987, 31.46, -0.17111, -0.59052, 0.07233, -0.78528,
 16:37:27.157,e3:ca:2d:fd:e0:8c, 2015-01-01 01:49:50.690, 0.947, -0.297, -0.248, 0, 0, 0, -129.452, -67.819, -87.665, -24.840, 0.127, -0.073, 31.51, 0.09378, 0.70627, -0.3479, 0.60928,
 16:37:27.157,e3:ca:2d:fd:e0:8c, 2015-01-01 01:49:50.690, 0.947, -0.295, -0.249, 0, 0.061, 0, -129.452, -67.819, -87.66, -24.840, 0.127, -0.073, 31.51, 0.09378, 0.70627, -0.3479, 0.60928,
 16:37:27.159,ed:35:33:d3:6c:f8, 2015-01-01 01:49:41.415, 0.945, 0.09, 0.291, -0.061, 0.122, 0.671, 16.732, -72.252, 143.372, -25.760, -12.247, -11.987, 31.46, -0.16956, -0.59067, 0.07166, -0.78555,
 16:37:27.159,ed:35:33:d3:6c:f8, 2015-01-01 01:49:41.415, 0.947, 0.089, 0.291, 0, 0.122, 0.61, 16.699, -72.252, 143.416, -25.760, -12.247, -11.987, 31.46, -0.16956, -0.59067, 0.07166, -0.78555,
 16:37:27.159,f6:90:cc:01:6d:25, 2015-01-01 01:49:39.200, 0.899, -0.01, -0.408, 0.488, 0.244, 0, -178.171, -65.522, 18.336, -25.493, -7.900, 15.513, 33.42, 0.0993, -0.8287, -0.14243, -0.53198,
 16:37:27.159,f6:90:cc:01:6d:25, 2015-01-01 01:49:39.200, 0.898, -0.012, -0.408, 0.305, 0.122, 0, -178.16, -65.528, 18.331, -25.493, -7.900, 15.513, 33.42, 0.0993, -0.8287, -0.14243, -0.53198,
 16:37:27.177,ed:40:fe:65:30:6c, 2015-01-01 01:49:29.690, 0.946, 0.1, 0.317, 0.427, 0.488, 0.61, 17.084, -70.785, -131.006, -28.767, -10.247, 7.633, 29.68, 0.41171, -0.4718, -0.34772, -0.69778,
 16:37:27.177,ed:40:fe:65:30:6c, 2015-01-01 01:49:29.690, 0.949, 0.1, 0.318, -0.122, 0.427, 0.366, 17.056, -70.779, -130.974, -28.767, -10.247, 7.633, 29.68, 0.41171, -0.4718, -0.34772, -0.69778,
 16:37:27.202,ed:40:fe:65:30:6c, 2015-01-01 01:49:29.690, 0.948, 0.096, 0.317, -0.183, 0.244, 0.305, 17.034, -70.774, -130.946, -28.573, -9.973, 7.247, 29.68, 0.41171, -0.4718, -0.34772, -0.69778,
 16:37:27.202,ed:40:fe:65:30:6c, 2015-01-01 01:49:29.690, 0.947, 0.095, 0.317, 0.061, 0, 0.305, 17.018, -70.774, -130.93, -28.573, -9.973, 7.247, 29.68, 0.41171, -0.4718, -0.34772, -0.69778,
 16:37:27.204,ed:35:33:d3:6c:f8, 2015-01-01 01:49:41.415, 0.95, 0.088, 0.292, -0.488, 0, 0.366, 16.672, -72.257, 143.448, -25.760, -12.247, -11.987, 31.46, -0.16956, -0.59067, 0.07166, -0.78555,
 16:37:27.204,ed:35:33:d3:6c:f8, 2015-01-01 01:49:41.415, 0.948, 0.086, 0.291, -0.305, 0, 0.305, 16.655, -72.257, 143.47, -25.760, -12.247, -11.987, 31.46, -0.16956, -0.59067, 0.07166, -0.78555,
 16:37:27.224,e3:ca:2d:fd:e0:8c, 2015-01-01 01:49:50.690, 0.947, -0.297, -0.249, -0.061, 0.122, 0, -129.452, -67.819, -87.665, -24.840, 0.127, -0.073, 31.51, 0.09378, 0.70627, -0.3479, 0.60928,
 16:37:27.224,e3:ca:2d:fd:e0:8c, 2015-01-01 01:49:50.690, 0.946, -0.297, -0.247, -0.122, 0.061, 0, -129.457, -67.819, -87.665, -24.840, 0.127, -0.073, 31.51, 0.09378, 0.70627, -0.3479, 0.60928,
 16:37:27.224,ed:35:33:d3:6c:f8, 2015-01-01 01:49:41.750, 0.948, 0.086, 0.291, 0, -0.061, 0.366, 16.639, -72.257, 143.498, -25.760, -12.247, -11.987, 31.46, -0.16956, -0.59067, 0.07166, -0.78555,
 16:37:27.224,ed:35:33:d3:6c:f8, 2015-01-01 01:49:41.750, 0.95, 0.083, 0.288, 0.183, -0.061, 0.244, 16.628, -72.263, 143.52, -25.760, -12.247, -11.987, 31.46, -0.16956, -0.59067, 0.07166, -0.78555,
 16:37:27.229,f6:90:cc:01:6d:25, 2015-01-01 01:49:39.490, 0.898, -0.013, -0.408, 0.244, 0, 0, -178.16, -65.528, 18.331, -25.493, -7.900, 15.513, 33.42, 0.0993, -0.8287, -0.14243, -0.53198,
 16:37:27.229,f6:90:cc:01:6d:25, 2015-01-01 01:49:39.490, 0.898, -0.012, -0.409, 0.244, -0.061, 0, -178.154, -65.528, 18.325, -25.493, -7.900, 15.513, 33.42, 0.0993, -0.8287, -0.14243, -0.53198,
 16:37:27.246,ed:40:fe:65:30:6c, 2015-01-01 01:49:29.690, 0.949, 0.094, 0.315, 0.122, -0.061, 0.183, 17.012, -70.774, -130.919, -28.573, -9.973, 7.247, 29.68, 0.41171, -0.4718, -0.34772, -0.69778,
 16:37:27.246,ed:40:fe:65:30:6c, 2015-01-01 01:49:29.690, 0.948, 0.095, 0.312, 0.549, -0.122, 0, 17.023, -70.774, -130.919, -28.573, -9.973, 7.247, 29.68, 0.41171, -0.4718, -0.34772, -0.69778,
 16:37:27.246,e3:ca:2d:fd:e0:8c, 2015-01-01 01:49:51.070, 0.946, -0.297, -0.247, -0.061, 0, 0, -129.463, -67.819, -87.665, -24.840, 0.127, -0.073, 31.51, 0.09378, 0.70627, -0.3479, 0.60928,
 16:37:27.246,e3:ca:2d:fd:e0:8c, 2015-01-01 01:49:51.070, 0.946, -0.297, -0.245, 0, 0, 0, -129.468, -67.819, -87.66, -24.840, 0.127, -0.073, 31.51, 0.09378, 0.70627, -0.3479, 0.60928,
 16:37:27.249,f6:90:cc:01:6d:25, 2015-01-01 01:49:39.490, 0.898, -0.011, -0.411, 0.427, 0.061, 0, -178.154, -65.528, 18.325, -25.493, -7.900, 15.513, 33.42, 0.0993, -0.8287, -0.14243, -0.53198,
 16:37:27.249,f6:90:cc:01:6d:25, 2015-01-01 01:49:39.490, 0.899, -0.012, -0.41, 0.549, 0.305, 0, -178.149, -65.528, 18.325, -25.493, -7.900, 15.513, 33.42, 0.0993, -0.8287, -0.14243, -0.53198,
 16:37:27.269,ed:40:fe:65:30:6c, 2015-01-01 01:49:29.690, 0.948, 0.096, 0.314, 0.549, 0, -0.122, 17.04, -70.779, -130.924, -28.573, -9.973, 7.247, 29.68, 0.41281, -0.47086, -0.34763, -0.69778,
 16:37:27.269,ed:40:fe:65:30:6c, 2015-01-01 01:49:29.690, 0.948, 0.096, 0.316, 0.549, 0.244, -0.244, 17.056, -70.774, -130.93, -28.573, -9.973, 7.247, 29.68, 0.41281, -0.47086, -0.34763, -0.69778,
 16:37:27.269,e3:ca:2d:fd:e0:8c, 2015-01-01 01:49:51.070, 0.947, -0.297, -0.247, 0, -0.061, 0, -129.474, -67.813, -87.66, -24.840, 0.127, -0.073, 31.51, 0.09378, 0.70627, -0.3479, 0.60928,
 16:37:27.269,e3:ca:2d:fd:e0:8c, 2015-01-01 01:49:51.070, 0.946, -0.298, -0.249, 0.061, 0, 0, -129.474, -67.813, -87.654, -24.840, 0.127, -0.073, 31.51, 0.09378, 0.70627, -0.3479, 0.60928,
 16:37:27.270,ed:35:33:d3:6c:f8, 2015-01-01 01:49:41.750, 0.948, 0.085, 0.285, 0.671, 0.122, 0.122, 16.633, -72.263, 143.536, -25.760, -12.247, -11.987, 31.46, -0.16956, -0.59067, 0.07166, -0.78555,
 16:37:27.270,ed:35:33:d3:6c:f8, 2015-01-01 01:49:41.750, 0.949, 0.086, 0.286, 0.61, 0.244, -0.122, 16.65, -72.257, 143.536, -25.760, -12.247, -11.987, 31.46, -0.16956, -0.59067, 0.07166, -0.78555,
 16:37:27.294,f6:90:cc:01:6d:25, 2015-01-01 01:49:39.490, 0.899, -0.014, -0.408, 0.549, 0.305, 0, -178.138, -65.533, 18.32, -25.493, -7.900, 15.513, 33.42, 0.0993, -0.8287, -0.14243, -0.53198,
 16:37:27.294,f6:90:cc:01:6d:25, 2015-01-01 01:49:39.490, 0.899, -0.013, -0.407, 0.549, 0.244, 0, -178.127, -65.539, 18.32, -25.493, -7.900, 15.513, 33.42, 0.0993, -0.8287, -0.14243, -0.53198,
 16:37:27.315,e3:ca:2d:fd:e0:8c, 2015-01-01 01:49:51.070, 0.946, -0.297, -0.247, 0.061, 0, 0, -129.479, -67.813, -87.654, -24.840, 0.127, -0.073, 31.51, 0.09378, 0.70627, -0.3479, 0.60928,
 16:37:27.315,e3:ca:2d:fd:e0:8c, 2015-01-01 01:49:51.070, 0.946, -0.298, -0.248, 0.061, -0.122, 0, -129.485, -67.813, -87.649, -24.840, 0.127, -0.073, 31.51, 0.09378, 0.70627, -0.3479, 0.60928,
 16:37:27.315,ed:35:33:d3:6c:f8, 2015-01-01 01:49:41.750, 0.948, 0.086, 0.29, 0.305, 0.549, -0.183, 16.661, -72.246, 143.542, -25.760, -12.247, -11.987, 31.46, -0.16956, -0.59067, 0.07166, -0.78555,
 16:37:27.315,ed:35:33:d3:6c:f8, 2015-01-01 01:49:41.750, 0.95, 0.09, 0.29, -0.366, 0.854, -0.427, 16.661, -72.23, 143.536, -25.760, -12.247, -11.987, 31.46, -0.16956, -0.59067, 0.07166, -0.78555,
 16:37:27.315,ed:40:fe:65:30:6c, 2015-01-01 01:49:29.690, 0.949, 0.102, 0.317, -0.061, 0.305, -0.366, 17.073, -70.763, -130.946, -28.573, -9.973, 7.247, 29.68, 0.41281, -0.47086, -0.34763, -0.69778,
 16:37:27.315,ed:40:fe:65:30:6c, 2015-01-01 01:49:29.690, 0.953, 0.094, 0.317, -0.427, 0.244, -0.427, 17.084, -70.757, -130.963, -28.573, -9.973, 7.247, 29.68, 0.41281, -0.47086, -0.34763, -0.69778,
 16:37:27.337,e3:ca:2d:fd:e0:8c, 2015-01-01 01:49:51.070, 0.946, -0.3, -0.25, 0.122, 0, 0, -129.485, -67.813, -87.643, -24.840, 0.127, -0.073, 31.51, 0.09378, 0.70627, -0.3479, 0.60928,
 16:37:27.337,e3:ca:2d:fd:e0:8c, 2015-01-01 01:49:51.070, 0.947, -0.302, -0.25, 0.061, 0.244, 0, -129.479, -67.813, -87.649, -24.840, 0.127, -0.073, 31.51, 0.09378, 0.70627, -0.3479, 0.60928,
 16:37:27.337,ed:35:33:d3:6c:f8, 2015-01-01 01:49:41.750, 0.952, 0.086, 0.291, -0.732, 0.854, -0.366, 16.655, -72.213, 143.536, -25.760, -12.247, -11.987, 31.46, -0.16956, -0.59067, 0.07166, -0.78555,
 16:37:27.337,ed:35:33:d3:6c:f8, 2015-01-01 01:49:41.750, 0.947, 0.086, 0.29, -0.549, 0.671, -0.244, 16.65, -72.197, 143.542, -25.760, -12.247, -11.987, 31.46, -0.16956, -0.59067, 0.07166, -0.78555,
 16:37:27.339,f6:90:cc:01:6d:25, 2015-01-01 01:49:39.490, 0.899, -0.014, -0.411, 0.488, 0.366, 0, -178.121, -65.544, 18.314, -25.493, -7.900, 15.513, 33.42, 0.0993, -0.8287, -0.14243, -0.53198,
 16:37:27.339,f6:90:cc:01:6d:25, 2015-01-01 01:49:39.490, 0.899, -0.018, -0.415, 0.183, 0.366, 0, -178.11, -65.55, 18.314, -25.493, -7.900, 15.513, 33.42, 0.0993, -0.8287, -0.14243, -0.53198,
 16:37:27.360,ed:40:fe:65:30:6c, 2015-01-01 01:49:30.050, 0.948, 0.094, 0.314, -0.305, 0, -0.244, 17.089, -70.757, -130.979, -28.573, -9.973, 7.247, 29.68, 0.41281, -0.47086, -0.34763, -0.69778,
 16:37:27.360,ed:40:fe:65:30:6c, 2015-01-01 01:49:30.050, 0.951, 0.1, 0.318, -0.061, -0.061, 0, 17.095, -70.757, -130.984, -28.573, -9.973, 7.247, 29.68, 0.41281, -0.47086, -0.34763, -0.69778,
 16:37:27.362,f6:90:cc:01:6d:25, 2015-01-01 01:49:39.490, 0.9, -0.016, -0.413, 0.061, 0.183, 0, -178.11, -65.555, 18.309, -25.493, -7.900, 15.513, 33.42, 0.0993, -0.8287, -0.14243, -0.53198,
 16:37:27.362,f6:90:cc:01:6d:25, 2015-01-01 01:49:39.490, 0.899, -0.012, -0.409, 0.488, 0.122, 0, -178.105, -65.555, 18.309, -25.493, -7.900, 15.513, 33.42, 0.0993, -0.8287, -0.14243, -0.53198,
 16:37:27.382,e3:ca:2d:fd:e0:8c, 2015-01-01 01:49:51.070, 0.947, -0.298, -0.248, 0.061, 0.244, 0, -129.474, -67.813, -87.66, -24.840, 0.127, -0.073, 31.51, 0.09378, 0.70627, -0.3479, 0.60928,
 16:37:27.382,e3:ca:2d:fd:e0:8c, 2015-01-01 01:49:51.070, 0.947, -0.296, -0.247, 0.122, 0.183, 0, -129.468, -67.813, -87.665, -24.840, 0.127, -0.073, 31.51, 0.09378, 0.70627, -0.3479, 0.60928,
 16:37:27.383,ed:35:33:d3:6c:f8, 2015-01-01 01:49:41.750, 0.951, 0.091, 0.293, 0, 0.427, 0, 16.644, -72.191, 143.553, -25.760, -12.247, -11.987, 31.46, -0.16956, -0.59067, 0.07166, -0.78555,
 16:37:27.383,ed:35:33:d3:6c:f8, 2015-01-01 01:49:41.750, 0.945, 0.091, 0.289, 0.671, 0.244, 0.305, 16.639, -72.191, 143.58, -25.760, -12.247, -11.987, 31.46, -0.16956, -0.59067, 0.07166, -0.78555,
 16:37:27.402,ed:40:fe:65:30:6c, 2015-01-01 01:49:30.050, 0.946, 0.099, 0.314, 0.427, -0.061, 0.244, 17.089, -70.757, -130.974, -28.573, -9.973, 7.247, 29.68, 0.41281, -0.47086, -0.34763, -0.69778,
 16:37:27.402,ed:40:fe:65:30:6c, 2015-01-01 01:49:30.050, 0.945, 0.098, 0.317, 0.732, -0.183, 0.549, 17.078, -70.763, -130.952, -28.573, -9.973, 7.247, 29.68, 0.41281, -0.47086, -0.34763, -0.69778,
 16:37:27.427,ed:35:33:d3:6c:f8, 2015-01-01 01:49:41.750, 0.945, 0.09, 0.292, 0.732, 0.305, 0.854, 16.6, -72.191, 143.646, -25.760, -12.247, -11.987, 31.46, -0.16956, -0.59067, 0.07166, -0.78555,
 16:37:27.427,ed:35:33:d3:6c:f8, 2015-01-01 01:49:41.750, 0.944, 0.085, 0.296, 0.122, 0.244, 0.854, 16.551, -72.191, 143.712, -25.760, -12.247, -11.987, 31.46, -0.16956, -0.59067, 0.07166, -0.78555,
 16:37:27.448,ed:40:fe:65:30:6c, 2015-01-01 01:49:30.050, 0.943, 0.097, 0.321, 0.244, -0.183, 0.732, 17.051, -70.774, -130.913, -28.573, -9.973, 7.247, 29.68, 0.41281, -0.47086, -0.34763, -0.69778,
 16:37:27.448,ed:40:fe:65:30:6c, 2015-01-01 01:49:30.050, 0.944, 0.096, 0.321, 0, -0.122, 0.427, 17.029, -70.774, -130.886, -28.573, -9.973, 7.247, 29.68, 0.41281, -0.47086, -0.34763, -0.69778,
 16:37:27.449,e3:ca:2d:fd:e0:8c, 2015-01-01 01:49:51.070, 0.946, -0.298, -0.249, 0.183, 0.427, 0, -129.452, -67.819, -87.676, -24.840, 0.127, -0.073, 31.51, 0.09378, 0.70627, -0.3479, 0.60928,
 16:37:27.449,e3:ca:2d:fd:e0:8c, 2015-01-01 01:49:51.070, 0.948, -0.297, -0.246, 0.061, 0.488, 0, -129.435, -67.824, -87.698, -24.840, 0.127, -0.073, 31.51, 0.09378, 0.70627, -0.3479, 0.60928,
 16:37:27.454,f6:90:cc:01:6d:25, 2015-01-01 01:49:39.490, 0.899, -0.013, -0.41, 0.671, 0.305, 0, -178.088, -65.561, 18.309, -25.507, -7.980, 15.620, 33.42, 0.0993, -0.8287, -0.14243, -0.53198,
 16:37:27.454,f6:90:cc:01:6d:25, 2015-01-01 01:49:39.490, 0.899, -0.015, -0.405, 0.427, 0, 0, -178.077, -65.561, 18.303, -25.507, -7.980, 15.620, 33.42, 0.0993, -0.8287, -0.14243, -0.53198,
 16:37:27.470,ed:40:fe:65:30:6c, 2015-01-01 01:49:30.050, 0.947, 0.098, 0.318, -0.183, -0.122, 0, 17.023, -70.779, -130.88, -28.573, -9.973, 7.247, 29.68, 0.41281, -0.47086, -0.34763, -0.69778,
 16:37:27.470,ed:40:fe:65:30:6c, 2015-01-01 01:49:30.050, 0.945, 0.094, 0.314, -0.061, 0, -0.305, 17.034, -70.774, -130.897, -28.573, -9.973, 7.247, 29.68, 0.41281, -0.47086, -0.34763, -0.69778,
 16:37:27.472,e3:ca:2d:fd:e0:8c, 2015-01-01 01:49:51.070, 0.947, -0.296, -0.247, 0.061, 0.549, 0, -129.419, -67.83, -87.715, -24.860, -0.167, 0.640, 31.51, 0.09378, 0.70627, -0.3479, 0.60928,
 16:37:27.472,e3:ca:2d:fd:e0:8c, 2015-01-01 01:49:51.070, 0.946, -0.295, -0.246, -0.061, 0.427, 0, -129.408, -67.835, -87.731, -24.860, -0.167, 0.640, 31.51, 0.09378, 0.70627, -0.3479, 0.60928,
 16:37:27.475,f6:90:cc:01:6d:25, 2015-01-01 01:49:39.490, 0.899, -0.012, -0.409, 0.061, -0.183, 0, -178.077, -65.561, 18.303, -25.507, -7.980, 15.620, 33.42, 0.10001, -0.82843, -0.14267, -0.5322,
 16:37:27.475,f6:90:cc:01:6d:25, 2015-01-01 01:49:39.490, 0.898, -0.01, -0.408, -0.122, -0.427, 0, -178.077, -65.555, 18.303, -25.507, -7.980, 15.620, 33.42, 0.10001, -0.82843, -0.14267, -0.5322,
 16:37:27.496,f6:90:cc:01:6d:25, 2015-01-01 01:49:39.490, 0.898, -0.01, -0.407, -0.061, -0.305, 0, -178.083, -65.544, 18.298, -25.507, -7.980, 15.620, 33.42, 0.10001, -0.82843, -0.14267, -0.5322,
 16:37:27.496,f6:90:cc:01:6d:25, 2015-01-01 01:49:39.490, 0.898, -0.013, -0.407, 0.061, -0.061, 0, -178.083, -65.539, 18.298, -25.507, -7.980, 15.620, 33.42, 0.10001, -0.82843, -0.14267, -0.5322,
 16:37:27.515,ed:40:fe:65:30:6c, 2015-01-01 01:49:30.050, 0.946, 0.096, 0.314, 0, 0.122, -0.427, 17.051, -70.768, -130.919, -28.573, -9.973, 7.247, 29.68, 0.41281, -0.47086, -0.34763, -0.69778,
 16:37:27.515,ed:40:fe:65:30:6c, 2015-01-01 01:49:30.050, 0.949, 0.096, 0.316, 0, 0.488, -0.427, 17.067, -70.757, -130.935, -28.573, -9.973, 7.247, 29.68, 0.41281, -0.47086, -0.34763, -0.69778,
 16:37:27.516,e3:ca:2d:fd:e0:8c, 2015-01-01 01:49:51.070, 0.945, -0.296, -0.246, -0.122, 0.244, 0, -129.402, -67.835, -87.742, -24.860, -0.167, 0.640, 31.51, 0.09378, 0.70627, -0.3479, 0.60928,
 16:37:27.516,e3:ca:2d:fd:e0:8c, 2015-01-01 01:49:51.070, 0.946, -0.298, -0.244, -0.061, 0, 0, -129.402, -67.835, -87.742, -24.860, -0.167, 0.640, 31.51, 0.09378, 0.70627, -0.3479, 0.60928,
 16:37:27.518,f6:90:cc:01:6d:25, 2015-01-01 01:49:39.845, 0.899, -0.015, -0.407, 0.244, 0, 0, -178.083, -65.539, 18.298, -25.507, -7.980, 15.620, 33.42, 0.10001, -0.82843, -0.14267, -0.5322,
 16:37:27.518,f6:90:cc:01:6d:25, 2015-01-01 01:49:39.845, 0.9, -0.014, -0.408, 0.366, 0, 0, -178.077, -65.539, 18.292, -25.507, -7.980, 15.620, 33.42, 0.10001, -0.82843, -0.14267, -0.5322,
 16:37:27.518,ed:35:33:d3:6c:f8, 2015-01-01 01:49:41.750, 0.944, 0.083, 0.295, -0.183, 0.183, 0.427, 16.523, -72.191, 143.745, -25.513, -12.647, -11.940, 31.46, -0.16956, -0.59067, 0.07166, -0.78555,
 16:37:27.518,ed:35:33:d3:6c:f8, 2015-01-01 01:49:41.750, 0.947, 0.085, 0.292, -0.122, 0.305, 0, 16.518, -72.18, 143.756, -25.513, -12.647, -11.940, 31.46, -0.16956, -0.59067, 0.07166, -0.78555,
 16:37:27.539,e3:ca:2d:fd:e0:8c, 2015-01-01 01:49:51.070, 0.947, -0.298, -0.245, 0, -0.061, 0, -129.408, -67.835, -87.742, -24.860, -0.167, 0.640, 31.51, 0.09406, 0.70605, -0.34805, 0.60941,
 16:37:27.539,e3:ca:2d:fd:e0:8c, 2015-01-01 01:49:51.070, 0.947, -0.297, -0.246, 0.061, -0.183, 0, -129.419, -67.835, -87.731, -24.860, -0.167, 0.640, 31.51, 0.09406, 0.70605, -0.34805, 0.60941,
 16:37:27.541,ed:35:33:d3:6c:f8, 2015-01-01 01:49:41.750, 0.945, 0.083, 0.287, -0.061, 0.427, -0.305, 16.523, -72.175, 143.751, -25.513, -12.647, -11.940, 31.46, -0.1683, -0.59006, 0.07089, -0.78638,
 16:37:27.541,ed:35:33:d3:6c:f8, 2015-01-01 01:49:41.750, 0.946, 0.086, 0.288, 0, 0.671, -0.427, 16.54, -72.158, 143.74, -25.513, -12.647, -11.940, 31.46, -0.1683, -0.59006, 0.07089, -0.78638,
 16:37:27.563,ed:35:33:d3:6c:f8, 2015-01-01 01:49:41.750, 0.95, 0.086, 0.292, -0.061, 0.916, -0.427, 16.545, -72.136, 143.734, -25.513, -12.647, -11.940, 31.46, -0.1683, -0.59006, 0.07089, -0.78638,
 16:37:27.563,ed:35:33:d3:6c:f8, 2015-01-01 01:49:41.750, 0.948, 0.087, 0.295, 0.061, 0.916, -0.366, 16.551, -72.12, 143.734, -25.513, -12.647, -11.940, 31.46, -0.1683, -0.59006, 0.07089, -0.78638,
 16:37:27.565,f6:90:cc:01:6d:25, 2015-01-01 01:49:39.845, 0.899, -0.012, -0.409, 0.427, 0, 0, -178.066, -65.544, 18.292, -25.507, -7.980, 15.620, 33.42, 0.10001, -0.82843, -0.14267, -0.5322,
 16:37:27.565,f6:90:cc:01:6d:25, 2015-01-01 01:49:39.845, 0.899, -0.013, -0.413, 0.488, -0.061, 0, -178.061, -65.539, 18.292, -25.507, -7.980, 15.620, 33.42, 0.10001, -0.82843, -0.14267, -0.5322,
 16:37:27.583,ed:40:fe:65:30:6c, 2015-01-01 01:49:30.050, 0.948, 0.097, 0.318, 0.122, 0.305, -0.366, 17.084, -70.752, -130.952, -28.640, -9.673, 7.207, 29.68, 0.41281, -0.47086, -0.34763, -0.69778,
 16:37:27.583,ed:40:fe:65:30:6c, 2015-01-01 01:49:30.050, 0.95, 0.099, 0.319, 0.183, 0, -0.305, 17.106, -70.746, -130.968, -28.640, -9.673, 7.207, 29.68, 0.41281, -0.47086, -0.34763, -0.69778,
 16:37:27.584,e3:ca:2d:fd:e0:8c, 2015-01-01 01:49:51.070, 0.947, -0.297, -0.248, 0.122, 0, 0, -129.419, -67.83, -87.731, -24.860, -0.167, 0.640, 31.51, 0.09406, 0.70605, -0.34805, 0.60941,
 16:37:27.584,e3:ca:2d:fd:e0:8c, 2015-01-01 01:49:51.070, 0.946, -0.298, -0.248, 0.122, 0.183, 0, -129.413, -67.835, -87.731, -24.860, -0.167, 0.640, 31.51, 0.09406, 0.70605, -0.34805, 0.60941,
 16:37:27.605,ed:40:fe:65:30:6c, 2015-01-01 01:49:30.050, 0.949, 0.097, 0.316, 0.427, -0.244, -0.183, 17.128, -70.752, -130.984, -28.640, -9.673, 7.207, 29.68, 0.41287, -0.47052, -0.3479, -0.69785,
 16:37:27.605,ed:40:fe:65:30:6c, 2015-01-01 01:49:30.050, 0.95, 0.098, 0.312, 0.732, -0.183, -0.061, 17.144, -70.752, -130.99, -28.640, -9.673, 7.207, 29.68, 0.41287, -0.47052, -0.3479, -0.69785,
 16:37:27.609,ed:35:33:d3:6c:f8, 2015-01-01 01:49:41.750, 0.949, 0.089, 0.297, 0.122, 0.61, -0.244, 16.556, -72.109, 143.734, -25.513, -12.647, -11.940, 31.46, -0.1683, -0.59006, 0.07089, -0.78638,
 16:37:27.609,ed:35:33:d3:6c:f8, 2015-01-01 01:49:41.750, 0.949, 0.089, 0.291, 0.305, 0.305, -0.122, 16.567, -72.103, 143.74, -25.513, -12.647, -11.940, 31.46, -0.1683, -0.59006, 0.07089, -0.78638,
 16:37:27.631,ed:35:33:d3:6c:f8, 2015-01-01 01:49:42.130, 0.949, 0.089, 0.289, 0.549, 0.427, 0, 16.573, -72.092, 143.751, -25.513, -12.647, -11.940, 31.46, -0.1683, -0.59006, 0.07089, -0.78638,
 16:37:27.631,ed:35:33:d3:6c:f8, 2015-01-01 01:49:42.130, 0.945, 0.089, 0.29, 0.61, 0.427, -0.305, 16.595, -72.087, 143.745, -25.513, -12.647, -11.940, 31.46, -0.1683, -0.59006, 0.07089, -0.78638,
 16:37:27.632,f6:90:cc:01:6d:25, 2015-01-01 01:49:39.845, 0.898, -0.014, -0.413, 0.488, 0, 0, -178.05, -65.539, 18.292, -25.507, -7.980, 15.620, 33.42, 0.10001, -0.82843, -0.14267, -0.5322,
 16:37:27.632,f6:90:cc:01:6d:25, 2015-01-01 01:49:39.845, 0.899, -0.013, -0.411, 0.854, 0.244, 0, -178.039, -65.544, 18.287, -25.507, -7.980, 15.620, 33.42, 0.10001, -0.82843, -0.14267, -0.5322,
 16:37:27.652,ed:40:fe:65:30:6c, 2015-01-01 01:49:30.050, 0.946, 0.101, 0.313, 0.671, 0, -0.122, 17.166, -70.752, -130.995, -28.640, -9.673, 7.207, 29.68, 0.41287, -0.47052, -0.3479, -0.69785,
 16:37:27.652,ed:40:fe:65:30:6c, 2015-01-01 01:49:30.050, 0.946, 0.101, 0.316, 0.61, 0, -0.244, 17.194, -70.752, -131.012, -28.640, -9.673, 7.207, 29.68, 0.41287, -0.47052, -0.3479, -0.69785,
 16:37:27.654,f6:90:cc:01:6d:25, 2015-01-01 01:49:39.845, 0.899, -0.012, -0.409, 0.854, 0.305, 0, -178.022, -65.544, 18.287, -25.507, -7.980, 15.620, 33.42, 0.10001, -0.82843, -0.14267, -0.5322,
 16:37:27.654,f6:90:cc:01:6d:25, 2015-01-01 01:49:39.845, 0.899, -0.012, -0.409, 0.488, 0.183, 0, -178.011, -65.55, 18.281, -25.507, -7.980, 15.620, 33.42, 0.10001, -0.82843, -0.14267, -0.5322,
 16:37:27.673,e3:ca:2d:fd:e0:8c, 2015-01-01 01:49:51.450, 0.947, -0.297, -0.248, 0.122, 0.122, 0, -129.408, -67.835, -87.737, -24.860, -0.167, 0.640, 31.51, 0.09406, 0.70605, -0.34805, 0.60941,
 16:37:27.673,e3:ca:2d:fd:e0:8c, 2015-01-01 01:49:51.450, 0.946, -0.296, -0.248, 0.061, 0.061, 0, -129.413, -67.835, -87.737, -24.860, -0.167, 0.640, 31.51, 0.09406, 0.70605, -0.34805, 0.60941,
 16:37:27.675,ed:35:33:d3:6c:f8, 2015-01-01 01:49:42.130, 0.946, 0.09, 0.293, 0.732, 0.427, -0.305, 16.628, -72.076, 143.74, -25.513, -12.647, -11.940, 31.46, -0.1683, -0.59006, 0.07089, -0.78638,
 16:37:27.675,ed:35:33:d3:6c:f8, 2015-01-01 01:49:42.130, 0.947, 0.089, 0.294, 0.122, 0.244, -0.366, 16.65, -72.07, 143.723, -25.513, -12.647, -11.940, 31.46, -0.1683, -0.59006, 0.07089, -0.78638,
 16:37:27.694,ed:40:fe:65:30:6c, 2015-01-01 01:49:30.385, 0.947, 0.099, 0.318, 0.244, 0.061, -0.305, 17.216, -70.746, -131.028, -28.640, -9.673, 7.207, 29.68, 0.41287, -0.47052, -0.3479, -0.69785,
 16:37:27.694,ed:40:fe:65:30:6c, 2015-01-01 01:49:30.385, 0.948, 0.098, 0.318, -0.305, 0.122, -0.366, 17.227, -70.741, -131.045, -28.640, -9.673, 7.207, 29.68, 0.41287, -0.47052, -0.3479, -0.69785,
 16:37:27.697,e3:ca:2d:fd:e0:8c, 2015-01-01 01:49:51.450, 0.947, -0.296, -0.25, 0, 0, 0, -129.413, -67.835, -87.737, -24.860, -0.167, 0.640, 31.51, 0.09406, 0.70605, -0.34805, 0.60941,
 16:37:27.697,e3:ca:2d:fd:e0:8c, 2015-01-01 01:49:51.450, 0.947, -0.297, -0.25, 0, 0, 0, -129.419, -67.835, -87.737, -24.860, -0.167, 0.640, 31.51, 0.09406, 0.70605, -0.34805, 0.60941,
 16:37:27.698,ed:35:33:d3:6c:f8, 2015-01-01 01:49:42.130, 0.948, 0.088, 0.293, -0.427, 0.183, -0.366, 16.661, -72.065, 143.712, -25.513, -12.647, -11.940, 31.46, -0.1683, -0.59006, 0.07089, -0.78638,
 16:37:27.698,ed:35:33:d3:6c:f8, 2015-01-01 01:49:42.130, 0.948, 0.086, 0.293, -0.366, 0.122, -0.244, 16.666, -72.059, 143.701, -25.513, -12.647, -11.940, 31.46, -0.1683, -0.59006, 0.07089, -0.78638,
 16:37:27.699,f6:90:cc:01:6d:25, 2015-01-01 01:49:39.845, 0.899, -0.015, -0.41, 0.305, 0.061, 0, -178.006, -65.55, 18.281, -25.507, -7.980, 15.620, 33.42, 0.10001, -0.82843, -0.14267, -0.5322,
 16:37:27.699,f6:90:cc:01:6d:25, 2015-01-01 01:49:39.845, 0.899, -0.016, -0.41, 0.183, 0, 0, -178.006, -65.55, 18.281, -25.507, -7.980, 15.620, 33.42, 0.10001, -0.82843, -0.14267, -0.5322,
 16:37:27.718,ed:40:fe:65:30:6c, 2015-01-01 01:49:30.385, 0.948, 0.095, 0.317, -0.305, 0.061, -0.183, 17.232, -70.741, -131.056, -28.640, -9.673, 7.207, 29.68, 0.41287, -0.47052, -0.3479, -0.69785,
 16:37:27.718,ed:40:fe:65:30:6c, 2015-01-01 01:49:30.385, 0.948, 0.096, 0.316, -0.122, 0, -0.183, 17.238, -70.741, -131.067, -28.640, -9.673, 7.207, 29.68, 0.41287, -0.47052, -0.3479, -0.69785,
 16:37:27.720,e3:ca:2d:fd:e0:8c, 2015-01-01 01:49:51.450, 0.947, -0.299, -0.249, 0, 0.122, 0, -129.419, -67.835, -87.737, -24.860, -0.167, 0.640, 31.51, 0.09406, 0.70605, -0.34805, 0.60941,
 16:37:27.720,e3:ca:2d:fd:e0:8c, 2015-01-01 01:49:51.450, 0.946, -0.299, -0.247, 0.122, 0, 0, -129.424, -67.83, -87.737, -24.860, -0.167, 0.640, 31.51, 0.09406, 0.70605, -0.34805, 0.60941,
 16:37:27.722,f6:90:cc:01:6d:25, 2015-01-01 01:49:39.845, 0.9, -0.016, -0.41, 0.305, 0, 0, -178, -65.55, 18.281, -25.647, -8.140, 15.033, 33.42, 0.10001, -0.82843, -0.14267, -0.5322,
 16:37:27.722,f6:90:cc:01:6d:25, 2015-01-01 01:49:39.845, 0.899, -0.014, -0.409, 0.427, 0.122, 0, -177.99, -65.55, 18.276, -25.647, -8.140, 15.033, 33.42, 0.10001, -0.82843, -0.14267, -0.5322,
 16:37:27.743,e3:ca:2d:fd:e0:8c, 2015-01-01 01:49:51.450, 0.946, -0.298, -0.245, 0.183, 0.122, 0, -129.419, -67.83, -87.742, -24.860, -0.167, 0.640, 31.51, 0.09406, 0.70605, -0.34805, 0.60941,
 16:37:27.743,e3:ca:2d:fd:e0:8c, 2015-01-01 01:49:51.450, 0.946, -0.299, -0.245, 0.122, 0.122, 0, -129.413, -67.835, -87.742, -24.860, -0.167, 0.640, 31.51, 0.09406, 0.70605, -0.34805, 0.60941,
 16:37:27.743,ed:35:33:d3:6c:f8, 2015-01-01 01:49:42.130, 0.948, 0.086, 0.292, -0.122, 0.061, -0.244, 16.677, -72.059, 143.69, -25.513, -12.647, -11.940, 31.46, -0.1683, -0.59006, 0.07089, -0.78638,
 16:37:27.743,ed:35:33:d3:6c:f8, 2015-01-01 01:49:42.130, 0.947, 0.087, 0.291, 0.183, 0.122, -0.183, 16.688, -72.059, 143.69, -25.513, -12.647, -11.940, 31.46, -0.1683, -0.59006, 0.07089, -0.78638,
 16:37:27.763,ed:40:fe:65:30:6c, 2015-01-01 01:49:30.385, 0.947, 0.097, 0.315, 0.244, 0, -0.183, 17.254, -70.735, -131.072, -28.640, -9.673, 7.207, 29.68, 0.41287, -0.47052, -0.3479, -0.69785,
 16:37:27.763,ed:40:fe:65:30:6c, 2015-01-01 01:49:30.385, 0.947, 0.097, 0.314, 0.427, 0, -0.183, 17.271, -70.735, -131.083, -28.640, -9.673, 7.207, 29.68, 0.41287, -0.47052, -0.3479, -0.69785,
 16:37:27.767,f6:90:cc:01:6d:25, 2015-01-01 01:49:39.845, 0.899, -0.015, -0.408, 0.427, 0.244, 0, -177.984, -65.555, 18.276, -25.647, -8.140, 15.033, 33.42, 0.10001, -0.82843, -0.14267, -0.5322,
 16:37:27.767,f6:90:cc:01:6d:25, 2015-01-01 01:49:39.845, 0.899, -0.015, -0.407, 0.61, 0.427, 0, -177.973, -65.561, 18.276, -25.647, -8.140, 15.033, 33.42, 0.10001, -0.82843, -0.14267, -0.5322,
 16:37:27.787,ed:35:33:d3:6c:f8, 2015-01-01 01:49:42.130, 0.947, 0.087, 0.291, 0.488, 0.244, -0.183, 16.705, -72.054, 143.685, -25.513, -12.647, -11.940, 31.46, -0.1683, -0.59006, 0.07089, -0.78638,
 16:37:27.787,ed:35:33:d3:6c:f8, 2015-01-01 01:49:42.130, 0.946, 0.089, 0.293, 0.549, 0.427, -0.122, 16.716, -72.043, 143.69, -25.513, -12.647, -11.940, 31.46, -0.1683, -0.59006, 0.07089, -0.78638,
 16:37:27.788,e3:ca:2d:fd:e0:8c, 2015-01-01 01:49:51.450, 0.946, -0.298, -0.243, 0.183, 0.061, 0, -129.408, -67.835, -87.748, -24.860, -0.167, 0.640, 31.51, 0.09406, 0.70605, -0.34805, 0.60941,
 16:37:27.788,e3:ca:2d:fd:e0:8c, 2015-01-01 01:49:51.450, 0.946, -0.297, -0.244, 0.183, 0, 0, -129.408, -67.83, -87.742, -24.860, -0.167, 0.640, 31.51, 0.09406, 0.70605, -0.34805, 0.60941,
 16:37:27.807,ed:40:fe:65:30:6c, 2015-01-01 01:49:30.385, 0.946, 0.099, 0.316, 0.61, 0.122, -0.183, 17.287, -70.735, -131.094, -28.640, -9.673, 7.207, 29.68, 0.41287, -0.47052, -0.3479, -0.69785,
 16:37:27.807,ed:40:fe:65:30:6c, 2015-01-01 01:49:30.385, 0.947, 0.1, 0.317, 0.549, 0.122, -0.183, 17.303, -70.73, -131.1, -28.640, -9.673, 7.207, 29.68, 0.41287, -0.47052, -0.3479, -0.69785,
 16:37:27.812,f6:90:cc:01:6d:25, 2015-01-01 01:49:39.845, 0.899, -0.014, -0.407, 0.61, 0.427, 0, -177.957, -65.572, 18.27, -25.647, -8.140, 15.033, 33.42, 0.10059, -0.8284, -0.14291, -0.53207,
 16:37:27.812,f6:90:cc:01:6d:25, 2015-01-01 01:49:39.845, 0.899, -0.013, -0.407, 0.671, 0.427, 0, -177.946, -65.577, 18.27, -25.647, -8.140, 15.033, 33.42, 0.10059, -0.8284, -0.14291, -0.53207,
 16:37:27.833,ed:35:33:d3:6c:f8, 2015-01-01 01:49:42.130, 0.946, 0.089, 0.293, 0.488, 0.61, -0.122, 16.721, -72.032, 143.696, -25.513, -12.647, -11.940, 31.46, -0.1683, -0.59006, 0.07089, -0.78638,
 16:37:27.833,ed:35:33:d3:6c:f8, 2015-01-01 01:49:42.130, 0.946, 0.092, 0.295, 0.427, 0.793, -0.061, 16.721, -72.021, 143.712, -25.513, -12.647, -11.940, 31.46, -0.1683, -0.59006, 0.07089, -0.78638,
 16:37:27.854,e3:ca:2d:fd:e0:8c, 2015-01-01 01:49:51.450, 0.947, -0.297, -0.247, 0.183, -0.122, 0, -129.408, -67.83, -87.737, -24.680, 0.000, 0.427, 31.51, 0.09406, 0.70605, -0.34805, 0.60941,
 16:37:27.854,e3:ca:2d:fd:e0:8c, 2015-01-01 01:49:51.450, 0.946, -0.297, -0.248, 0.183, -0.122, 0, -129.413, -67.83, -87.731, -24.680, 0.000, 0.427, 31.51, 0.09406, 0.70605, -0.34805, 0.60941,
 16:37:27.857,f6:90:cc:01:6d:25, 2015-01-01 01:49:40.160, 0.899, -0.014, -0.408, 0.61, 0.305, 0, -177.935, -65.583, 18.265, -25.647, -8.140, 15.033, 33.42, 0.10059, -0.8284, -0.14291, -0.53207,
 16:37:27.857,f6:90:cc:01:6d:25, 2015-01-01 01:49:40.160, 0.9, -0.014, -0.409, 0.61, 0.244, 0, -177.918, -65.588, 18.265, -25.647, -8.140, 15.033, 33.42, 0.10059, -0.8284, -0.14291, -0.53207,
 16:37:27.875,ed:40:fe:65:30:6c, 2015-01-01 01:49:30.385, 0.947, 0.102, 0.318, 0.549, 0.183, -0.122, 17.32, -70.724, -131.105, -28.640, -9.673, 7.207, 29.68, 0.41287, -0.47052, -0.3479, -0.69785,
 16:37:27.875,ed:40:fe:65:30:6c, 2015-01-01 01:49:30.385, 0.946, 0.101, 0.317, 0.305, 0.305, -0.061, 17.325, -70.719, -131.105, -28.640, -9.673, 7.207, 29.68, 0.41287, -0.47052, -0.3479, -0.69785,
 16:37:27.877,e3:ca:2d:fd:e0:8c, 2015-01-01 01:49:51.450, 0.947, -0.298, -0.248, 0.244, -0.061, 0, -129.413, -67.824, -87.726, -24.680, 0.000, 0.427, 31.51, 0.09393, 0.70612, -0.34805, 0.60938,
 16:37:27.877,e3:ca:2d:fd:e0:8c, 2015-01-01 01:49:51.450, 0.947, -0.297, -0.248, 0.183, 0, 0, -129.413, -67.824, -87.726, -24.680, 0.000, 0.427, 31.51, 0.09393, 0.70612, -0.34805, 0.60938,
 16:37:27.878,f6:90:cc:01:6d:25, 2015-01-01 01:49:40.160, 0.899, -0.013, -0.408, 0.549, 0.183, 0, -177.913, -65.594, 18.265, -25.647, -8.140, 15.033, 33.42, 0.10059, -0.8284, -0.14291, -0.53207,
 16:37:27.878,f6:90:cc:01:6d:25, 2015-01-01 01:49:40.160, 0.9, -0.014, -0.408, 0.549, 0.183, 0, -177.902, -65.599, 18.259, -25.647, -8.140, 15.033, 33.42, 0.10059, -0.8284, -0.14291, -0.53207,
 16:37:27.899,ed:40:fe:65:30:6c, 2015-01-01 01:49:30.385, 0.947, 0.101, 0.318, 0.183, 0.183, 0, 17.325, -70.714, -131.1, -29.080, -10.027, 7.113, 29.68, 0.41287, -0.47052, -0.3479, -0.69785,
 16:37:27.899,ed:40:fe:65:30:6c, 2015-01-01 01:49:30.385, 0.948, 0.101, 0.317, 0.183, 0.244, 0, 17.331, -70.708, -131.094, -29.080, -10.027, 7.113, 29.68, 0.41287, -0.47052, -0.3479, -0.69785,
 16:37:27.900,ed:35:33:d3:6c:f8, 2015-01-01 01:49:42.130, 0.946, 0.091, 0.296, 0.244, 0.732, 0, 16.716, -72.004, 143.729, -25.293, -12.340, -12.313, 31.46, -0.1683, -0.59006, 0.07089, -0.78638,
 16:37:27.900,ed:35:33:d3:6c:f8, 2015-01-01 01:49:42.130, 0.946, 0.091, 0.295, 0.122, 0.61, 0, 16.71, -71.993, 143.745, -25.293, -12.340, -12.313, 31.46, -0.1683, -0.59006, 0.07089, -0.78638,
 16:37:27.922,e3:ca:2d:fd:e0:8c, 2015-01-01 01:49:51.450, 0.946, -0.297, -0.247, 0.183, 0, 0, -129.413, -67.824, -87.726, -24.680, 0.000, 0.427, 31.51, 0.09393, 0.70612, -0.34805, 0.60938,
 16:37:27.922,e3:ca:2d:fd:e0:8c, 2015-01-01 01:49:51.450, 0.946, -0.297, -0.248, 0.183, -0.061, 0, -129.413, -67.824, -87.72, -24.680, 0.000, 0.427, 31.51, 0.09393, 0.70612, -0.34805, 0.60938,
 16:37:27.923,ed:35:33:d3:6c:f8, 2015-01-01 01:49:42.130, 0.946, 0.091, 0.294, 0.122, 0.61, 0.122, 16.699, -71.982, 143.767, -25.293, -12.340, -12.313, 31.46, -0.16772, -0.58911, 0.06906, -0.78735,
 16:37:27.923,ed:35:33:d3:6c:f8, 2015-01-01 01:49:42.130, 0.946, 0.091, 0.294, 0.122, 0.549, 0.244, 16.683, -71.977, 143.8, -25.293, -12.340, -12.313, 31.46, -0.16772, -0.58911, 0.06906, -0.78735,
 16:37:27.925,f6:90:cc:01:6d:25, 2015-01-01 01:49:40.160, 0.9, -0.015, -0.408, 0.549, 0.122, 0, -177.891, -65.599, 18.259, -25.647, -8.140, 15.033, 33.42, 0.10059, -0.8284, -0.14291, -0.53207,
 16:37:27.925,f6:90:cc:01:6d:25, 2015-01-01 01:49:40.160, 0.899, -0.014, -0.408, 0.488, 0.122, 0, -177.88, -65.599, 18.259, -25.647, -8.140, 15.033, 33.42, 0.10059, -0.8284, -0.14291, -0.53207,
 16:37:27.944,ed:40:fe:65:30:6c, 2015-01-01 01:49:30.385, 0.947, 0.102, 0.316, 0.244, 0.183, 0.183, 17.32, -70.708, -131.083, -29.080, -10.027, 7.113, 29.68, 0.41287, -0.47052, -0.3479, -0.69785,
 16:37:27.944,ed:40:fe:65:30:6c, 2015-01-01 01:49:30.385, 0.947, 0.1, 0.316, 0.183, 0.305, 0.305, 17.309, -70.703, -131.056, -29.080, -10.027, 7.113, 29.68, 0.41287, -0.47052, -0.3479, -0.69785,
 16:37:27.946,e3:ca:2d:fd:e0:8c, 2015-01-01 01:49:51.785, 0.947, -0.297, -0.248, 0.244, 0, 0, -129.413, -67.824, -87.72, -24.680, 0.000, 0.427, 31.51, 0.09393, 0.70612, -0.34805, 0.60938,
 16:37:27.946,e3:ca:2d:fd:e0:8c, 2015-01-01 01:49:51.785, 0.947, -0.296, -0.247, 0.244, 0, 0, -129.413, -67.824, -87.72, -24.680, 0.000, 0.427, 31.51, 0.09393, 0.70612, -0.34805, 0.60938,
 16:37:27.965,ed:40:fe:65:30:6c, 2015-01-01 01:49:30.385, 0.946, 0.1, 0.318, 0.244, 0.305, 0.305, 17.292, -70.697, -131.034, -29.080, -10.027, 7.113, 29.68, 0.41327, -0.46973, -0.3486, -0.69778,
 16:37:27.965,ed:40:fe:65:30:6c, 2015-01-01 01:49:30.385, 0.946, 0.101, 0.318, 0.183, 0.122, 0.183, 17.287, -70.697, -131.023, -29.080, -10.027, 7.113, 29.68, 0.41327, -0.46973, -0.3486, -0.69778,
 16:37:27.967,ed:35:33:d3:6c:f8, 2015-01-01 01:49:42.130, 0.945, 0.089, 0.296, 0.061, 0.549, 0.366, 16.661, -71.966, 143.833, -25.293, -12.340, -12.313, 31.46, -0.16772, -0.58911, 0.06906, -0.78735,
 16:37:27.967,ed:35:33:d3:6c:f8, 2015-01-01 01:49:42.130, 0.945, 0.089, 0.296, 0.061, 0.61, 0.183, 16.639, -71.96, 143.866, -25.293, -12.340, -12.313, 31.46, -0.16772, -0.58911, 0.06906, -0.78735,
 16:37:27.970,f6:90:cc:01:6d:25, 2015-01-01 01:49:40.160, 0.9, -0.012, -0.407, 0.488, 0.183, 0, -177.874, -65.605, 18.254, -25.647, -8.140, 15.033, 33.42, 0.10059, -0.8284, -0.14291, -0.53207,
 16:37:27.970,f6:90:cc:01:6d:25, 2015-01-01 01:49:40.160, 0.899, -0.013, -0.408, 0.488, 0.122, 0, -177.863, -65.605, 18.254, -25.647, -8.140, 15.033, 33.42, 0.10059, -0.8284, -0.14291, -0.53207,
 16:37:27.988,e3:ca:2d:fd:e0:8c, 2015-01-01 01:49:51.785, 0.946, -0.296, -0.248, 0.305, -0.061, 0, -129.413, -67.819, -87.715, -24.680, 0.000, 0.427, 31.51, 0.09393, 0.70612, -0.34805, 0.60938,
 16:37:27.988,e3:ca:2d:fd:e0:8c, 2015-01-01 01:49:51.785, 0.947, -0.297, -0.248, 0.244, 0, 0, -129.413, -67.819, -87.715, -24.680, 0.000, 0.427, 31.51, 0.09393, 0.70612, -0.34805, 0.60938,
 16:37:27.991,ed:35:33:d3:6c:f8, 2015-01-01 01:49:42.510, 0.946, 0.09, 0.296, 0.244, 0.549, 0.183, 16.622, -71.949, 143.893, -25.293, -12.340, -12.313, 31.46, -0.16772, -0.58911, 0.06906, -0.78735,
 16:37:27.991,ed:35:33:d3:6c:f8, 2015-01-01 01:49:42.510, 0.945, 0.093, 0.297, 0.061, 0.549, 0.122, 16.611, -71.938, 143.915, -25.293, -12.340, -12.313, 31.46, -0.16772, -0.58911, 0.06906, -0.78735,
 16:37:28.010,ed:40:fe:65:30:6c, 2015-01-01 01:49:30.385, 0.946, 0.1, 0.317, 0.305, 0.183, 0.122, 17.287, -70.692, -131.012, -29.080, -10.027, 7.113, 29.68, 0.41327, -0.46973, -0.3486, -0.69778,
 16:37:28.010,ed:40:fe:65:30:6c, 2015-01-01 01:49:30.385, 0.946, 0.103, 0.317, 0.244, 0.183, 0.183, 17.281, -70.692, -130.995, -29.080, -10.027, 7.113, 29.68, 0.41327, -0.46973, -0.3486, -0.69778,
 16:37:28.016,f6:90:cc:01:6d:25, 2015-01-01 01:49:40.160, 0.899, -0.013, -0.408, 0.244, 0.061, 0, -177.863, -65.61, 18.254, -25.647, -8.140, 15.033, 33.42, 0.10059, -0.8284, -0.14291, -0.53207,
 16:37:28.016,f6:90:cc:01:6d:25, 2015-01-01 01:49:40.160, 0.899, -0.012, -0.406, 0.427, 0.122, 0, -177.858, -65.61, 18.254, -25.647, -8.140, 15.033, 33.42, 0.10059, -0.8284, -0.14291, -0.53207,
 16:37:28.034,e3:ca:2d:fd:e0:8c, 2015-01-01 01:49:51.785, 0.946, -0.296, -0.248, 0.244, 0, 0, -129.413, -67.819, -87.709, -24.680, 0.000, 0.427, 31.51, 0.09393, 0.70612, -0.34805, 0.60938,
 16:37:28.034,e3:ca:2d:fd:e0:8c, 2015-01-01 01:49:51.785, 0.946, -0.297, -0.246, 0.183, 0, 0, -129.413, -67.819, -87.709, -24.680, 0.000, 0.427, 31.51, 0.09393, 0.70612, -0.34805, 0.60938,
 16:37:28.035,ed:35:33:d3:6c:f8, 2015-01-01 01:49:42.510, 0.946, 0.089, 0.297, 0.061, 0.488, 0.122, 16.6, -71.927, 143.937, -25.293, -12.340, -12.313, 31.46, -0.16772, -0.58911, 0.06906, -0.78735,
 16:37:28.035,ed:35:33:d3:6c:f8, 2015-01-01 01:49:42.510, 0.944, 0.09, 0.295, 0, 0.488, 0.244, 16.589, -71.922, 143.959, -25.293, -12.340, -12.313, 31.46, -0.16772, -0.58911, 0.06906, -0.78735,
 16:37:28.056,ed:40:fe:65:30:6c, 2015-01-01 01:49:30.740, 0.946, 0.101, 0.318, 0.183, 0.183, 0.122, 17.281, -70.686, -130.99, -29.080, -10.027, 7.113, 29.68, 0.41327, -0.46973, -0.3486, -0.69778,
 16:37:28.056,ed:40:fe:65:30:6c, 2015-01-01 01:49:30.740, 0.946, 0.1, 0.317, 0.183, 0.305, 0.244, 17.271, -70.681, -130.968, -29.080, -10.027, 7.113, 29.68, 0.41327, -0.46973, -0.3486, -0.69778,
 16:37:28.059,f6:90:cc:01:6d:25, 2015-01-01 01:49:40.160, 0.899, -0.014, -0.408, 0.366, 0, 0, -177.852, -65.61, 18.248, -25.873, -7.920, 14.993, 33.42, 0.10059, -0.8284, -0.14291, -0.53207,
 16:37:28.059,f6:90:cc:01:6d:25, 2015-01-01 01:49:40.160, 0.9, -0.014, -0.41, 0.366, 0.061, 0, -177.847, -65.61, 18.248, -25.873, -7.920, 14.993, 33.42, 0.10059, -0.8284, -0.14291, -0.53207,
 16:37:28.078,ed:40:fe:65:30:6c, 2015-01-01 01:49:30.740, 0.946, 0.102, 0.318, -0.061, 0.122, 0.183, 17.26, -70.681, -130.957, -29.080, -10.027, 7.113, 29.68, 0.41327, -0.46973, -0.3486, -0.69778,
 16:37:28.078,ed:40:fe:65:30:6c, 2015-01-01 01:49:30.740, 0.946, 0.103, 0.32, -0.061, 0.244, 0.244, 17.249, -70.675, -130.935, -29.080, -10.027, 7.113, 29.68, 0.41327, -0.46973, -0.3486, -0.69778,
 16:37:28.079,e3:ca:2d:fd:e0:8c, 2015-01-01 01:49:51.785, 0.947, -0.297, -0.247, 0.183, 0.061, 0, -129.413, -67.819, -87.709, -24.680, 0.000, 0.427, 31.51, 0.09393, 0.70612, -0.34805, 0.60938,
 16:37:28.079,e3:ca:2d:fd:e0:8c, 2015-01-01 01:49:51.785, 0.947, -0.297, -0.248, 0.122, 0.183, 0, -129.408, -67.824, -87.72, -24.680, 0.000, 0.427, 31.51, 0.09393, 0.70612, -0.34805, 0.60938,
 16:37:28.080,ed:35:33:d3:6c:f8, 2015-01-01 01:49:42.510, 0.945, 0.092, 0.298, -0.183, 0.427, 0, 16.573, -71.911, 143.981, -25.293, -12.340, -12.313, 31.46, -0.16772, -0.58911, 0.06906, -0.78735,
 16:37:28.080,ed:35:33:d3:6c:f8, 2015-01-01 01:49:42.510, 0.945, 0.092, 0.302, 0.122, 0.305, 0, 16.573, -71.906, 143.992, -25.293, -12.340, -12.313, 31.46, -0.16772, -0.58911, 0.06906, -0.78735,
 16:37:28.081,f6:90:cc:01:6d:25, 2015-01-01 01:49:40.160, 0.9, -0.012, -0.407, 0.305, -0.061, 0, -177.847, -65.61, 18.248, -25.873, -7.920, 14.993, 33.42, 0.10147, -0.82806, -0.14331, -0.53232,
 16:37:28.081,f6:90:cc:01:6d:25, 2015-01-01 01:49:40.160, 0.9, -0.014, -0.406, 0.244, -0.244, 0, -177.841, -65.605, 18.248, -25.873, -7.920, 14.993, 33.42, 0.10147, -0.82806, -0.14331, -0.53232,
 16:37:28.123,ed:40:fe:65:30:6c, 2015-01-01 01:49:30.740, 0.945, 0.1, 0.32, 0.244, 0, 0.427, 17.232, -70.675, -130.913, -29.080, -10.027, 7.113, 29.68, 0.41327, -0.46973, -0.3486, -0.69778,
 16:37:28.123,ed:40:fe:65:30:6c, 2015-01-01 01:49:30.740, 0.944, 0.099, 0.321, 0.366, -0.244, 0.671, 17.21, -70.681, -130.88, -29.080, -10.027, 7.113, 29.68, 0.41327, -0.46973, -0.3486, -0.69778,
 16:37:28.124,e3:ca:2d:fd:e0:8c, 2015-01-01 01:49:51.785, 0.947, -0.296, -0.246, 0.122, 0.183, 0, -129.402, -67.824, -87.726, -24.680, 0.000, 0.427, 31.51, 0.09393, 0.70612, -0.34805, 0.60938,
 16:37:28.124,e3:ca:2d:fd:e0:8c, 2015-01-01 01:49:51.785, 0.946, -0.297, -0.249, 0.183, 0.244, 0, -129.391, -67.824, -87.731, -24.680, 0.000, 0.427, 31.51, 0.09393, 0.70612, -0.34805, 0.60938,
 16:37:28.126,ed:35:33:d3:6c:f8, 2015-01-01 01:49:42.510, 0.944, 0.091, 0.301, 0.671, -0.183, 0.61, 16.567, -71.9, 144.009, -25.293, -12.340, -12.313, 31.46, -0.16772, -0.58911, 0.06906, -0.78735,
 16:37:28.126,ed:35:33:d3:6c:f8, 2015-01-01 01:49:42.510, 0.942, 0.089, 0.301, 0.366, -0.427, 0.854, 16.551, -71.906, 144.053, -25.293, -12.340, -12.313, 31.46, -0.16772, -0.58911, 0.06906, -0.78735,
 16:37:28.128,f6:90:cc:01:6d:25, 2015-01-01 01:49:40.160, 0.899, -0.014, -0.407, 0.122, -0.366, 0, -177.847, -65.599, 18.248, -25.873, -7.920, 14.993, 33.42, 0.10147, -0.82806, -0.14331, -0.53232,
 16:37:28.128,f6:90:cc:01:6d:25, 2015-01-01 01:49:40.160, 0.899, -0.015, -0.408, 0.061, -0.549, 0, -177.847, -65.588, 18.248, -25.873, -7.920, 14.993, 33.42, 0.10147, -0.82806, -0.14331, -0.53232,
 16:37:28.146,e3:ca:2d:fd:e0:8c, 2015-01-01 01:49:51.785, 0.946, -0.297, -0.247, 0.122, 0.488, 0, -129.375, -67.83, -87.753, -24.427, 0.047, 0.320, 31.51, 0.09393, 0.70612, -0.34805, 0.60938,
 16:37:28.146,e3:ca:2d:fd:e0:8c, 2015-01-01 01:49:51.785, 0.946, -0.298, -0.246, 0.122, 0.488, 0, -129.359, -67.835, -87.77, -24.427, 0.047, 0.320, 31.51, 0.09393, 0.70612, -0.34805, 0.60938,
 16:37:28.168,ed:40:fe:65:30:6c, 2015-01-01 01:49:30.740, 0.945, 0.101, 0.323, -0.244, -0.427, 0.671, 17.183, -70.692, -130.847, -29.080, -10.027, 7.113, 29.68, 0.41327, -0.46973, -0.3486, -0.69778,
 16:37:28.168,ed:40:fe:65:30:6c, 2015-01-01 01:49:30.740, 0.947, 0.1, 0.32, -1.16, -0.488, 0.977, 17.128, -70.703, -130.814, -29.080, -10.027, 7.113, 29.68, 0.41327, -0.46973, -0.3486, -0.69778,
 16:37:28.170,ed:35:33:d3:6c:f8, 2015-01-01 01:49:42.510, 0.942, 0.091, 0.302, -0.671, -0.427, 0.671, 16.518, -71.917, 144.097, -25.293, -12.340, -12.313, 31.46, -0.16772, -0.58911, 0.06906, -0.78735,
 16:37:28.170,ed:35:33:d3:6c:f8, 2015-01-01 01:49:42.510, 0.945, 0.093, 0.302, -1.465, -0.488, 0.671, 16.474, -71.927, 144.141, -25.293, -12.340, -12.313, 31.46, -0.16772, -0.58911, 0.06906, -0.78735,
 16:37:28.171,f6:90:cc:01:6d:25, 2015-01-01 01:49:40.450, 0.899, -0.016, -0.407, 0, -0.61, 0, -177.852, -65.577, 18.248, -25.873, -7.920, 14.993, 33.42, 0.10147, -0.82806, -0.14331, -0.53232,
 16:37:28.171,f6:90:cc:01:6d:25, 2015-01-01 01:49:40.450, 0.899, -0.014, -0.407, 0, -0.793, 0, -177.852, -65.561, 18.248, -25.873, -7.920, 14.993, 33.42, 0.10147, -0.82806, -0.14331, -0.53232,
 16:37:28.193,ed:35:33:d3:6c:f8, 2015-01-01 01:49:42.510, 0.946, 0.088, 0.299, -1.404, -0.793, 0.732, 16.419, -71.938, 144.163, -24.900, -12.133, -11.620, 31.46, -0.16772, -0.58911, 0.06906, -0.78735,
 16:37:28.193,ed:35:33:d3:6c:f8, 2015-01-01 01:49:42.510, 0.946, 0.083, 0.29, -0.793, -0.854, 0.671, 16.37, -71.955, 144.196, -24.900, -12.133, -11.620, 31.46, -0.16772, -0.58911, 0.06906, -0.78735,
 16:37:28.213,ed:40:fe:65:30:6c, 2015-01-01 01:49:30.740, 0.947, 0.095, 0.314, -0.732, -0.61, 0.977, 17.067, -70.714, -130.781, -29.080, -10.027, 7.113, 29.68, 0.41327, -0.46973, -0.3486, -0.69778,
 16:37:28.213,ed:40:fe:65:30:6c, 2015-01-01 01:49:30.740, 0.949, 0.094, 0.312, -0.427, -0.366, 0.488, 17.018, -70.724, -130.754, -29.080, -10.027, 7.113, 29.68, 0.41327, -0.46973, -0.3486, -0.69778,
 16:37:28.214,e3:ca:2d:fd:e0:8c, 2015-01-01 01:49:51.785, 0.947, -0.297, -0.248, 0.122, 0.488, 0, -129.348, -67.841, -87.792, -24.427, 0.047, 0.320, 31.51, 0.09393, 0.70612, -0.34805, 0.60938,
 16:37:28.214,e3:ca:2d:fd:e0:8c, 2015-01-01 01:49:51.785, 0.946, -0.297, -0.247, 0, 0.549, 0, -129.331, -67.852, -87.814, -24.427, 0.047, 0.320, 31.51, 0.09393, 0.70612, -0.34805, 0.60938,
 16:37:28.216,f6:90:cc:01:6d:25, 2015-01-01 01:49:40.450, 0.897, -0.013, -0.407, 0, -0.793, 0, -177.858, -65.544, 18.248, -25.873, -7.920, 14.993, 33.42, 0.10147, -0.82806, -0.14331, -0.53232,
 16:37:28.216,f6:90:cc:01:6d:25, 2015-01-01 01:49:40.450, 0.898, -0.014, -0.41, 0.366, -0.488, 0, -177.852, -65.533, 18.248, -25.873, -7.920, 14.993, 33.42, 0.10147, -0.82806, -0.14331, -0.53232,
 16:37:28.236,ed:40:fe:65:30:6c, 2015-01-01 01:49:30.740, 0.95, 0.092, 0.311, 0, 0, 0.122, 17.001, -70.735, -130.759, -28.613, -9.920, 6.253, 29.68, 0.41327, -0.46973, -0.3486, -0.69778,
 16:37:28.236,ed:40:fe:65:30:6c, 2015-01-01 01:49:30.740, 0.951, 0.095, 0.312, 0.427, 0.183, 0.061, 16.996, -70.73, -130.759, -28.613, -9.920, 6.253, 29.68, 0.41327, -0.46973, -0.3486, -0.69778,
 16:37:28.236,e3:ca:2d:fd:e0:8c, 2015-01-01 01:49:51.785, 0.946, -0.296, -0.245, 0, 0.488, 0, -129.315, -67.857, -87.83, -24.427, 0.047, 0.320, 31.51, 0.09399, 0.70593, -0.34799, 0.60959,
 16:37:28.236,e3:ca:2d:fd:e0:8c, 2015-01-01 01:49:51.785, 0.947, -0.298, -0.245, 0.122, 0.183, 0, -129.304, -67.857, -87.841, -24.427, 0.047, 0.320, 31.51, 0.09399, 0.70593, -0.34799, 0.60959,
 16:37:28.238,ed:35:33:d3:6c:f8, 2015-01-01 01:49:42.510, 0.949, 0.082, 0.286, -0.366, -0.61, 0.122, 16.342, -71.971, 144.201, -24.900, -12.133, -11.620, 31.46, -0.16772, -0.58911, 0.06906, -0.78735,
 16:37:28.238,ed:35:33:d3:6c:f8, 2015-01-01 01:49:42.510, 0.951, 0.083, 0.286, 0.366, -0.244, -0.061, 16.348, -71.977, 144.152, -24.900, -12.133, -11.620, 31.46, -0.16772, -0.58911, 0.06906, -0.78735,
 16:37:28.262,f6:90:cc:01:6d:25, 2015-01-01 01:49:40.450, 0.898, -0.014, -0.409, 0.549, -0.183, 0, -177.841, -65.533, 18.243, -25.873, -7.920, 14.993, 33.42, 0.10147, -0.82806, -0.14331, -0.53232,
 16:37:28.262,f6:90:cc:01:6d:25, 2015-01-01 01:49:40.450, 0.899, -0.016, -0.41, 0.732, -0.061, 0, -177.83, -65.533, 18.243, -25.873, -7.920, 14.993, 33.42, 0.10147, -0.82806, -0.14331, -0.53232,
 16:37:28.280,ed:40:fe:65:30:6c, 2015-01-01 01:49:30.740, 0.95, 0.1, 0.317, 0.244, 0.183, 0.244, 16.996, -70.73, -130.759, -28.613, -9.920, 6.253, 29.68, 0.41327, -0.46973, -0.3486, -0.69778,
 16:37:28.280,ed:40:fe:65:30:6c, 2015-01-01 01:49:30.740, 0.953, 0.104, 0.317, -0.305, 0.183, 0.61, 16.979, -70.73, -130.754, -28.613, -9.920, 6.253, 29.68, 0.41327, -0.46973, -0.3486, -0.69778,
 16:37:28.284,f6:90:cc:01:6d:25, 2015-01-01 01:49:40.450, 0.899, -0.017, -0.411, 0.854, 0.061, 0, -177.814, -65.533, 18.243, -25.873, -7.920, 14.993, 33.42, 0.10147, -0.82806, -0.14331, -0.53232,
 16:37:28.284,f6:90:cc:01:6d:25, 2015-01-01 01:49:40.450, 0.9, -0.015, -0.412, 0.916, 0.122, 0, -177.797, -65.533, 18.243, -25.873, -7.920, 14.993, 33.42, 0.10147, -0.82806, -0.14331, -0.53232,
 16:37:28.304,e3:ca:2d:fd:e0:8c, 2015-01-01 01:49:51.785, 0.949, -0.299, -0.247, 0.305, 0.183, 0, -129.298, -67.863, -87.852, -24.427, 0.047, 0.320, 31.51, 0.09399, 0.70593, -0.34799, 0.60959,
 16:37:28.304,e3:ca:2d:fd:e0:8c, 2015-01-01 01:49:51.785, 0.948, -0.299, -0.249, 0.244, 0.244, 0, -129.293, -67.863, -87.858, -24.427, 0.047, 0.320, 31.51, 0.09399, 0.70593, -0.34799, 0.60959,
 16:37:28.305,ed:35:33:d3:6c:f8, 2015-01-01 01:49:42.510, 0.951, 0.088, 0.292, 0.671, 0.061, 0, 16.359, -71.982, 144.075, -24.900, -12.133, -11.620, 31.46, -0.16696, -0.58884, 0.06955, -0.78769,
 16:37:28.305,ed:35:33:d3:6c:f8, 2015-01-01 01:49:42.510, 0.949, 0.093, 0.296, 0, 0.183, 0.183, 16.37, -71.982, 144.02, -24.900, -12.133, -11.620, 31.46, -0.16696, -0.58884, 0.06955, -0.78769,
 16:37:28.327,e3:ca:2d:fd:e0:8c, 2015-01-01 01:49:52.140, 0.948, -0.297, -0.248, 0.305, 0.244, 0, -129.282, -67.863, -87.869, -24.427, 0.047, 0.320, 31.51, 0.09399, 0.70593, -0.34799, 0.60959,
 16:37:28.327,e3:ca:2d:fd:e0:8c, 2015-01-01 01:49:52.140, 0.947, -0.298, -0.248, 0.244, 0.183, 0, -129.271, -67.868, -87.874, -24.427, 0.047, 0.320, 31.51, 0.09399, 0.70593, -0.34799, 0.60959,
 16:37:28.328,ed:35:33:d3:6c:f8, 2015-01-01 01:49:42.845, 0.953, 0.096, 0.295, -0.977, 0.61, 0.549, 16.348, -71.977, 143.998, -24.900, -12.133, -11.620, 31.46, -0.16696, -0.58884, 0.06955, -0.78769,
 16:37:28.328,ed:35:33:d3:6c:f8, 2015-01-01 01:49:42.845, 0.95, 0.091, 0.294, -1.221, 0.793, 0.916, 16.282, -71.971, 144.014, -24.900, -12.133, -11.620, 31.46, -0.16696, -0.58884, 0.06955, -0.78769,
 16:37:28.329,f6:90:cc:01:6d:25, 2015-01-01 01:49:40.450, 0.9, -0.014, -0.412, 0.854, 0.183, 0, -177.781, -65.539, 18.243, -25.873, -7.920, 14.993, 33.42, 0.10147, -0.82806, -0.14331, -0.53232,
 16:37:28.329,f6:90:cc:01:6d:25, 2015-01-01 01:49:40.450, 0.898, -0.015, -0.412, 0.854, 0.244, 0, -177.764, -65.539, 18.237, -25.873, -7.920, 14.993, 33.42, 0.10147, -0.82806, -0.14331, -0.53232,
 16:37:28.348,ed:40:fe:65:30:6c, 2015-01-01 01:49:30.740, 0.953, 0.103, 0.315, -0.793, 0.183, 0.916, 16.935, -70.73, -130.737, -28.613, -9.920, 6.253, 29.68, 0.41373, -0.47018, -0.34799, -0.69754,
 16:37:28.348,ed:40:fe:65:30:6c, 2015-01-01 01:49:30.740, 0.948, 0.095, 0.312, -0.488, -0.183, 0.916, 16.875, -70.735, -130.71, -28.613, -9.920, 6.253, 29.68, 0.41373, -0.47018, -0.34799, -0.69754,
 16:37:28.350,ed:35:33:d3:6c:f8, 2015-01-01 01:49:42.845, 0.946, 0.083, 0.292, -0.366, 0.488, 0.916, 16.205, -71.966, 144.047, -24.900, -12.133, -11.620, 31.46, -0.16696, -0.58884, 0.06955, -0.78769,
 16:37:28.350,ed:35:33:d3:6c:f8, 2015-01-01 01:49:42.845, 0.947, 0.078, 0.288, 0.427, 0.427, 0.793, 16.15, -71.96, 144.08, -24.900, -12.133, -11.620, 31.46, -0.16696, -0.58884, 0.06955, -0.78769,
 16:37:28.350,e3:ca:2d:fd:e0:8c, 2015-01-01 01:49:52.140, 0.945, -0.298, -0.246, 0.183, 0.366, 0, -129.26, -67.868, -87.885, -24.427, 0.047, 0.320, 31.51, 0.09399, 0.70593, -0.34799, 0.60959,
 16:37:28.350,e3:ca:2d:fd:e0:8c, 2015-01-01 01:49:52.140, 0.946, -0.297, -0.244, 0.122, 0.488, 0, -129.249, -67.874, -87.896, -24.427, 0.047, 0.320, 31.51, 0.09399, 0.70593, -0.34799, 0.60959,
 16:37:28.370,ed:40:fe:65:30:6c, 2015-01-01 01:49:31.075, 0.948, 0.089, 0.312, 0.183, -0.366, 0.793, 16.831, -70.741, -130.688, -28.613, -9.920, 6.253, 29.68, 0.41373, -0.47018, -0.34799, -0.69754,
 16:37:28.370,ed:40:fe:65:30:6c, 2015-01-01 01:49:31.075, 0.947, 0.093, 0.311, 0.244, 0, 0.305, 16.809, -70.752, -130.671, -28.613, -9.920, 6.253, 29.68, 0.41373, -0.47018, -0.34799, -0.69754,
 16:37:28.374,f6:90:cc:01:6d:25, 2015-01-01 01:49:40.450, 0.898, -0.016, -0.412, 0.61, 0.122, 0, -177.753, -65.544, 18.237, -26.000, -7.533, 15.620, 33.42, 0.10147, -0.82806, -0.14331, -0.53232,
 16:37:28.374,f6:90:cc:01:6d:25, 2015-01-01 01:49:40.450, 0.898, -0.016, -0.409, 0.61, 0.244, 0, -177.742, -65.544, 18.237, -26.000, -7.533, 15.620, 33.42, 0.10147, -0.82806, -0.14331, -0.53232,
 16:37:28.395,ed:35:33:d3:6c:f8, 2015-01-01 01:49:42.845, 0.946, 0.082, 0.289, 0.427, 0.854, 0.244, 16.117, -71.955, 144.08, -24.900, -12.133, -11.620, 31.46, -0.16696, -0.58884, 0.06955, -0.78769,
 16:37:28.395,ed:35:33:d3:6c:f8, 2015-01-01 01:49:42.845, 0.944, 0.083, 0.294, 0.549, 1.16, -0.122, 16.106, -71.944, 144.069, -24.900, -12.133, -11.620, 31.46, -0.16696, -0.58884, 0.06955, -0.78769,
 16:37:28.395,e3:ca:2d:fd:e0:8c, 2015-01-01 01:49:52.140, 0.947, -0.298, -0.243, 0.122, 0.366, 0, -129.232, -67.874, -87.918, -24.427, 0.047, 0.320, 31.51, 0.09399, 0.70593, -0.34799, 0.60959,
 16:37:28.395,e3:ca:2d:fd:e0:8c, 2015-01-01 01:49:52.140, 0.948, -0.297, -0.244, 0.122, 0.061, 0, -129.221, -67.879, -87.929, -24.427, 0.047, 0.320, 31.51, 0.09399, 0.70593, -0.34799, 0.60959,
 16:37:28.415,ed:40:fe:65:30:6c, 2015-01-01 01:49:31.075, 0.945, 0.094, 0.315, 0.244, 0.244, 0, 16.804, -70.757, -130.671, -28.613, -9.920, 6.253, 29.68, 0.41373, -0.47018, -0.34799, -0.69754,
 16:37:28.415,ed:40:fe:65:30:6c, 2015-01-01 01:49:31.075, 0.945, 0.095, 0.319, 0.305, 0.366, -0.183, 16.809, -70.752, -130.693, -28.613, -9.920, 6.253, 29.68, 0.41373, -0.47018, -0.34799, -0.69754,
 16:37:28.419,f6:90:cc:01:6d:25, 2015-01-01 01:49:40.450, 0.899, -0.016, -0.408, 0.732, 0.488, 0, -177.731, -65.555, 18.232, -26.000, -7.533, 15.620, 33.42, 0.10217, -0.82825, -0.14377, -0.5318,
 16:37:28.419,f6:90:cc:01:6d:25, 2015-01-01 01:49:40.450, 0.9, -0.015, -0.406, 0.488, 0.427, 0, -177.72, -65.566, 18.232, -26.000, -7.533, 15.620, 33.42, 0.10217, -0.82825, -0.14377, -0.5318,
 16:37:28.438,ed:40:fe:65:30:6c, 2015-01-01 01:49:31.075, 0.947, 0.097, 0.322, 0.244, 0.244, -0.244, 16.82, -70.746, -130.704, -28.613, -9.920, 6.253, 29.68, 0.41373, -0.47018, -0.34799, -0.69754,
 16:37:28.438,ed:40:fe:65:30:6c, 2015-01-01 01:49:31.075, 0.948, 0.096, 0.32, 0.244, 0.183, 0, 16.831, -70.741, -130.721, -28.613, -9.920, 6.253, 29.68, 0.41373, -0.47018, -0.34799, -0.69754,
 16:37:28.440,ed:35:33:d3:6c:f8, 2015-01-01 01:49:42.845, 0.945, 0.084, 0.3, 0.488, 1.282, -0.183, 16.106, -71.922, 144.036, -24.900, -12.133, -11.620, 31.46, -0.16696, -0.58884, 0.06955, -0.78769,
 16:37:28.440,ed:35:33:d3:6c:f8, 2015-01-01 01:49:42.845, 0.946, 0.087, 0.302, 0, 1.16, -0.183, 16.1, -71.9, 143.976, -24.900, -12.133, -11.620, 31.46, -0.16696, -0.58884, 0.06955, -0.78769,
 16:37:28.440,e3:ca:2d:fd:e0:8c, 2015-01-01 01:49:52.140, 0.947, -0.297, -0.246, 0.061, -0.183, 0, -129.227, -67.879, -87.924, -24.427, 0.047, 0.320, 31.51, 0.09399, 0.70593, -0.34799, 0.60959,
 16:37:28.440,e3:ca:2d:fd:e0:8c, 2015-01-01 01:49:52.140, 0.947, -0.299, -0.246, 0.122, -0.183, 0, -129.232, -67.874, -87.918, -24.427, 0.047, 0.320, 31.51, 0.09399, 0.70593, -0.34799, 0.60959,
 16:37:28.465,f6:90:cc:01:6d:25, 2015-01-01 01:49:40.760, 0.9, -0.017, -0.407, 0.183, 0.244, 0, -177.709, -65.572, 18.232, -26.000, -7.533, 15.620, 33.42, 0.10217, -0.82825, -0.14377, -0.5318,
 16:37:28.465,f6:90:cc:01:6d:25, 2015-01-01 01:49:40.760, 0.9, -0.018, -0.409, 0, 0.061, 0, -177.709, -65.577, 18.226, -26.000, -7.533, 15.620, 33.42, 0.10217, -0.82825, -0.14377, -0.5318,
 16:37:28.484,ed:40:fe:65:30:6c, 2015-01-01 01:49:31.075, 0.948, 0.097, 0.318, 0.427, -0.061, 0.122, 16.831, -70.735, -130.715, -28.613, -9.920, 6.253, 29.68, 0.41373, -0.47018, -0.34799, -0.69754,
 16:37:28.484,ed:40:fe:65:30:6c, 2015-01-01 01:49:31.075, 0.947, 0.097, 0.317, 0.183, -0.061, 0.183, 16.837, -70.741, -130.71, -28.613, -9.920, 6.253, 29.68, 0.41373, -0.47018, -0.34799, -0.69754,
 16:37:28.486,f6:90:cc:01:6d:25, 2015-01-01 01:49:40.760, 0.9, -0.017, -0.409, -0.183, -0.061, 0, -177.709, -65.577, 18.226, -26.000, -7.533, 15.620, 33.42, 0.10217, -0.82825, -0.14377, -0.5318,
 16:37:28.486,f6:90:cc:01:6d:25, 2015-01-01 01:49:40.760, 0.899, -0.014, -0.406, -0.366, -0.183, 0, -177.715, -65.572, 18.226, -26.000, -7.533, 15.620, 33.42, 0.10217, -0.82825, -0.14377, -0.5318,
 16:37:28.486,ed:35:33:d3:6c:f8, 2015-01-01 01:49:42.845, 0.945, 0.087, 0.302, 0, 0.854, 0.183, 16.089, -71.878, 143.948, -24.900, -12.133, -11.620, 31.46, -0.16696, -0.58884, 0.06955, -0.78769,
 16:37:28.486,ed:35:33:d3:6c:f8, 2015-01-01 01:49:42.845, 0.946, 0.088, 0.3, 0.061, 0.488, 0.305, 16.068, -71.867, 143.932, -24.900, -12.133, -11.620, 31.46, -0.16696, -0.58884, 0.06955, -0.78769,
 16:37:28.506,e3:ca:2d:fd:e0:8c, 2015-01-01 01:49:52.140, 0.947, -0.3, -0.248, 0.183, -0.183, 0, -129.243, -67.874, -87.907, -24.427, 0.047, 0.320, 31.51, 0.09399, 0.70593, -0.34799, 0.60959,
 16:37:28.506,e3:ca:2d:fd:e0:8c, 2015-01-01 01:49:52.140, 0.947, -0.299, -0.247, 0.183, 0, 0, -129.243, -67.868, -87.902, -24.427, 0.047, 0.320, 31.51, 0.09399, 0.70593, -0.34799, 0.60959,
 16:37:28.528,ed:40:fe:65:30:6c, 2015-01-01 01:49:31.075, 0.946, 0.097, 0.318, 0.122, -0.183, 0, 16.831, -70.741, -130.704, -28.613, -9.920, 6.253, 29.68, 0.41373, -0.47018, -0.34799, -0.69754,
 16:37:28.528,ed:40:fe:65:30:6c, 2015-01-01 01:49:31.075, 0.947, 0.098, 0.317, -0.122, -0.183, -0.061, 16.837, -70.741, -130.715, -28.613, -9.920, 6.253, 29.68, 0.41373, -0.47018, -0.34799, -0.69754,
 16:37:28.530,e3:ca:2d:fd:e0:8c, 2015-01-01 01:49:52.140, 0.947, -0.297, -0.245, 0.061, 0, 0, -129.243, -67.868, -87.902, -24.500, 0.213, 0.227, 31.51, 0.09399, 0.70593, -0.34799, 0.60959,
 16:37:28.530,e3:ca:2d:fd:e0:8c, 2015-01-01 01:49:52.140, 0.946, -0.297, -0.245, 0, 0.061, 0, -129.249, -67.868, -87.902, -24.500, 0.213, 0.227, 31.51, 0.09399, 0.70593, -0.34799, 0.60959,
 16:37:28.531,f6:90:cc:01:6d:25, 2015-01-01 01:49:40.760, 0.898, -0.014, -0.404, -0.488, -0.183, 0, -177.726, -65.566, 18.226, -26.000, -7.533, 15.620, 33.42, 0.10217, -0.82825, -0.14377, -0.5318,
 16:37:28.531,f6:90:cc:01:6d:25, 2015-01-01 01:49:40.760, 0.899, -0.016, -0.406, -0.549, -0.122, 0, -177.737, -65.566, 18.226, -26.000, -7.533, 15.620, 33.42, 0.10217, -0.82825, -0.14377, -0.5318,
 16:37:28.553,ed:35:33:d3:6c:f8, 2015-01-01 01:49:42.845, 0.945, 0.086, 0.298, 0.122, 0.305, 0.183, 16.046, -71.862, 143.921, -24.900, -12.133, -11.620, 31.46, -0.16696, -0.58884, 0.06955, -0.78769,
 16:37:28.553,ed:35:33:d3:6c:f8, 2015-01-01 01:49:42.845, 0.945, 0.085, 0.299, 0, 0.366, 0.061, 16.035, -71.856, 143.91, -24.900, -12.133, -11.620, 31.46, -0.16696, -0.58884, 0.06955, -0.78769,
 16:37:28.573,e3:ca:2d:fd:e0:8c, 2015-01-01 01:49:52.140, 0.946, -0.298, -0.244, -0.122, 0, 0, -129.249, -67.868, -87.902, -24.500, 0.213, 0.227, 31.51, 0.09399, 0.70593, -0.34799, 0.60959,
 16:37:28.573,e3:ca:2d:fd:e0:8c, 2015-01-01 01:49:52.140, 0.946, -0.298, -0.244, -0.183, 0, 0, -129.254, -67.868, -87.902, -24.500, 0.213, 0.227, 31.51, 0.09399, 0.70593, -0.34799, 0.60959,
 16:37:28.573,ed:40:fe:65:30:6c, 2015-01-01 01:49:31.075, 0.945, 0.094, 0.317, -0.183, -0.122, -0.061, 16.842, -70.746, -130.721, -28.613, -9.920, 6.253, 29.68, 0.41373, -0.47018, -0.34799, -0.69754,
 16:37:28.574,ed:40:fe:65:30:6c, 2015-01-01 01:49:31.075, 0.944, 0.093, 0.319, 0, -0.183, -0.122, 16.848, -70.746, -130.737, -28.613, -9.920, 6.253, 29.68, 0.41373, -0.47018, -0.34799, -0.69754,
 16:37:28.576,ed:35:33:d3:6c:f8, 2015-01-01 01:49:42.845, 0.946, 0.086, 0.298, -0.183, 0.366, 0, 16.024, -71.851, 143.882, -25.273, -12.567, -12.407, 31.46, -0.16696, -0.58884, 0.06955, -0.78769,
 16:37:28.576,ed:35:33:d3:6c:f8, 2015-01-01 01:49:42.845, 0.943, 0.083, 0.298, 0, 0.244, 0, 16.018, -71.84, 143.844, -25.273, -12.567, -12.407, 31.46, -0.16696, -0.58884, 0.06955, -0.78769,
 16:37:28.577,f6:90:cc:01:6d:25, 2015-01-01 01:49:40.760, 0.899, -0.017, -0.408, -0.366, -0.061, 0, -177.748, -65.566, 18.226, -26.000, -7.533, 15.620, 33.42, 0.10217, -0.82825, -0.14377, -0.5318,
 16:37:28.577,f6:90:cc:01:6d:25, 2015-01-01 01:49:40.760, 0.899, -0.016, -0.406, -0.305, -0.122, 0, -177.753, -65.566, 18.226, -26.000, -7.533, 15.620, 33.42, 0.10217, -0.82825, -0.14377, -0.5318,
 16:37:28.596,e3:ca:2d:fd:e0:8c, 2015-01-01 01:49:52.140, 0.946, -0.299, -0.244, -0.122, 0, 0, -129.26, -67.868, -87.902, -24.500, 0.213, 0.227, 31.51, 0.09415, 0.70566, -0.34808, 0.60983,
 16:37:28.596,e3:ca:2d:fd:e0:8c, 2015-01-01 01:49:52.140, 0.946, -0.299, -0.246, -0.061, -0.061, 0, -129.265, -67.863, -87.896, -24.500, 0.213, 0.227, 31.51, 0.09415, 0.70566, -0.34808, 0.60983,
 16:37:28.620,ed:35:33:d3:6c:f8, 2015-01-01 01:49:42.845, 0.943, 0.083, 0.3, 0.305, 0.183, -0.122, 16.018, -71.84, 143.811, -25.273, -12.567, -12.407, 31.46, -0.16696, -0.58884, 0.06955, -0.78769,
 16:37:28.620,ed:35:33:d3:6c:f8, 2015-01-01 01:49:42.845, 0.944, 0.086, 0.303, 0.122, 0.122, -0.061, 16.024, -71.834, 143.789, -25.273, -12.567, -12.407, 31.46, -0.16696, -0.58884, 0.06955, -0.78769,
 16:37:28.621,f6:90:cc:01:6d:25, 2015-01-01 01:49:40.760, 0.9, -0.017, -0.405, -0.305, -0.183, 0, -177.759, -65.561, 18.221, -26.000, -7.533, 15.620, 33.42, 0.10217, -0.82825, -0.14377, -0.5318,
 16:37:28.621,f6:90:cc:01:6d:25, 2015-01-01 01:49:40.760, 0.899, -0.017, -0.406, -0.305, -0.244, 0, -177.764, -65.561, 18.221, -26.000, -7.533, 15.620, 33.42, 0.10217, -0.82825, -0.14377, -0.5318,
 16:37:28.640,ed:40:fe:65:30:6c, 2015-01-01 01:49:31.075, 0.945, 0.095, 0.32, 0, -0.183, -0.122, 16.859, -70.746, -130.759, -28.700, -9.947, 6.660, 29.68, 0.41373, -0.47018, -0.34799, -0.69754,
 16:37:28.640,ed:40:fe:65:30:6c, 2015-01-01 01:49:31.075, 0.946, 0.097, 0.321, -0.061, -0.244, 0, 16.864, -70.752, -130.787, -28.700, -9.947, 6.660, 29.68, 0.41373, -0.47018, -0.34799, -0.69754,
 16:37:28.642,e3:ca:2d:fd:e0:8c, 2015-01-01 01:49:52.140, 0.947, -0.3, -0.245, -0.061, -0.122, 0, -129.271, -67.863, -87.896, -24.500, 0.213, 0.227, 31.51, 0.09415, 0.70566, -0.34808, 0.60983,
 16:37:28.642,e3:ca:2d:fd:e0:8c, 2015-01-01 01:49:52.140, 0.947, -0.298, -0.246, -0.061, -0.244, 0, -129.276, -67.863, -87.885, -24.500, 0.213, 0.227, 31.51, 0.09415, 0.70566, -0.34808, 0.60983,
 16:37:28.644,f6:90:cc:01:6d:25, 2015-01-01 01:49:40.760, 0.899, -0.015, -0.408, -0.427, -0.244, 0, -177.77, -65.555, 18.221, -25.727, -7.560, 15.420, 33.42, 0.10217, -0.82825, -0.14377, -0.5318,
 16:37:28.644,f6:90:cc:01:6d:25, 2015-01-01 01:49:40.760, 0.899, -0.013, -0.41, -0.549, -0.305, 0, -177.781, -65.55, 18.221, -25.727, -7.560, 15.420, 33.42, 0.10217, -0.82825, -0.14377, -0.5318,
 16:37:28.644,ed:35:33:d3:6c:f8, 2015-01-01 01:49:42.845, 0.944, 0.087, 0.302, -0.061, 0, -0.061, 16.029, -71.829, 143.762, -25.273, -12.567, -12.407, 31.46, -0.17163, -0.58716, 0.0733, -0.7876,
 16:37:28.644,ed:35:33:d3:6c:f8, 2015-01-01 01:49:42.845, 0.947, 0.089, 0.3, -0.244, -0.061, 0, 16.029, -71.829, 143.729, -25.273, -12.567, -12.407, 31.46, -0.17163, -0.58716, 0.0733, -0.7876,
 16:37:28.663,ed:40:fe:65:30:6c, 2015-01-01 01:49:31.075, 0.949, 0.098, 0.319, -0.305, -0.305, 0.061, 16.864, -70.752, -130.803, -28.700, -9.947, 6.660, 29.68, 0.41284, -0.47098, -0.34705, -0.698,
 16:37:28.663,ed:40:fe:65:30:6c, 2015-01-01 01:49:31.075, 0.948, 0.097, 0.315, -0.061, -0.366, 0.183, 16.859, -70.757, -130.82, -28.700, -9.947, 6.660, 29.68, 0.41284, -0.47098, -0.34705, -0.698,
 16:37:28.688,ed:35:33:d3:6c:f8, 2015-01-01 01:49:42.845, 0.946, 0.087, 0.298, 0, -0.244, 0.244, 16.024, -71.829, 143.712, -25.273, -12.567, -12.407, 31.46, -0.17163, -0.58716, 0.0733, -0.7876,
 16:37:28.689,ed:35:33:d3:6c:f8, 2015-01-01 01:49:42.845, 0.946, 0.088, 0.297, -0.061, -0.366, 0.122, 16.013, -71.834, 143.679, -25.273, -12.567, -12.407, 31.46, -0.17163, -0.58716, 0.0733, -0.7876,
 16:37:28.691,f6:90:cc:01:6d:25, 2015-01-01 01:49:40.760, 0.898, -0.014, -0.41, -0.488, -0.244, 0, -177.792, -65.544, 18.221, -25.727, -7.560, 15.420, 33.42, 0.10217, -0.82825, -0.14377, -0.5318,
 16:37:28.691,f6:90:cc:01:6d:25, 2015-01-01 01:49:40.760, 0.899, -0.015, -0.41, -0.488, -0.183, 0, -177.803, -65.539, 18.221, -25.727, -7.560, 15.420, 33.42, 0.10217, -0.82825, -0.14377, -0.5318,
 16:37:28.708,ed:40:fe:65:30:6c, 2015-01-01 01:49:31.075, 0.948, 0.099, 0.316, 0.061, -0.427, 0.122, 16.853, -70.763, -130.836, -28.700, -9.947, 6.660, 29.68, 0.41284, -0.47098, -0.34705, -0.698,
 16:37:28.708,ed:40:fe:65:30:6c, 2015-01-01 01:49:31.075, 0.948, 0.096, 0.315, -0.183, -0.427, 0, 16.859, -70.774, -130.847, -28.700, -9.947, 6.660, 29.68, 0.41284, -0.47098, -0.34705, -0.698,
 16:37:28.709,e3:ca:2d:fd:e0:8c, 2015-01-01 01:49:52.500, 0.947, -0.296, -0.246, 0, -0.122, 0, -129.287, -67.857, -87.88, -24.500, 0.213, 0.227, 31.51, 0.09415, 0.70566, -0.34808, 0.60983,
 16:37:28.709,e3:ca:2d:fd:e0:8c, 2015-01-01 01:49:52.500, 0.946, -0.296, -0.246, -0.061, -0.183, 0, -129.298, -67.857, -87.874, -24.500, 0.213, 0.227, 31.51, 0.09415, 0.70566, -0.34808, 0.60983,
 16:37:28.710,ed:35:33:d3:6c:f8, 2015-01-01 01:49:43.225, 0.945, 0.084, 0.296, -0.061, -0.305, 0, 16.018, -71.845, 143.641, -25.273, -12.567, -12.407, 31.46, -0.17163, -0.58716, 0.0733, -0.7876,
 16:37:28.710,ed:35:33:d3:6c:f8, 2015-01-01 01:49:43.225, 0.945, 0.088, 0.299, 0, -0.366, 0, 16.024, -71.851, 143.58, -25.273, -12.567, -12.407, 31.46, -0.17163, -0.58716, 0.0733, -0.7876,
 16:37:28.730,ed:40:fe:65:30:6c, 2015-01-01 01:49:31.435, 0.947, 0.098, 0.316, -0.122, -0.488, 0, 16.864, -70.779, -130.858, -28.700, -9.947, 6.660, 29.68, 0.41284, -0.47098, -0.34705, -0.698,
 16:37:28.730,ed:40:fe:65:30:6c, 2015-01-01 01:49:31.435, 0.947, 0.098, 0.317, -0.366, -0.488, -0.122, 16.87, -70.79, -130.869, -28.700, -9.947, 6.660, 29.68, 0.41284, -0.47098, -0.34705, -0.698,
 16:37:28.732,e3:ca:2d:fd:e0:8c, 2015-01-01 01:49:52.500, 0.947, -0.297, -0.247, 0, -0.122, 0, -129.304, -67.852, -87.863, -24.500, 0.213, 0.227, 31.51, 0.09415, 0.70566, -0.34808, 0.60983,
 16:37:28.732,e3:ca:2d:fd:e0:8c, 2015-01-01 01:49:52.500, 0.947, -0.297, -0.248, 0, -0.061, 0, -129.315, -67.852, -87.858, -24.500, 0.213, 0.227, 31.51, 0.09415, 0.70566, -0.34808, 0.60983,
 16:37:28.754,e3:ca:2d:fd:e0:8c, 2015-01-01 01:49:52.500, 0.946, -0.296, -0.246, -0.061, 0, 0, -129.315, -67.852, -87.858, -24.500, 0.213, 0.227, 31.51, 0.09415, 0.70566, -0.34808, 0.60983,
 16:37:28.754,e3:ca:2d:fd:e0:8c, 2015-01-01 01:49:52.500, 0.946, -0.297, -0.246, -0.122, -0.244, 0, -129.326, -67.846, -87.852, -24.500, 0.213, 0.227, 31.51, 0.09415, 0.70566, -0.34808, 0.60983,
 16:37:28.754,ed:35:33:d3:6c:f8, 2015-01-01 01:49:43.225, 0.945, 0.087, 0.298, -0.305, -0.427, -0.122, 16.029, -71.856, 143.558, -25.273, -12.567, -12.407, 31.46, -0.17163, -0.58716, 0.0733, -0.7876,
 16:37:28.754,ed:35:33:d3:6c:f8, 2015-01-01 01:49:43.225, 0.945, 0.088, 0.298, -0.549, -0.366, -0.244, 16.04, -71.862, 143.564, -25.273, -12.567, -12.407, 31.46, -0.17163, -0.58716, 0.0733, -0.7876,
 16:37:28.756,f6:90:cc:01:6d:25, 2015-01-01 01:49:40.760, 0.898, -0.014, -0.41, -0.732, -0.366, 0, -177.814, -65.539, 18.221, -25.727, -7.560, 15.420, 33.42, 0.10162, -0.82837, -0.14337, -0.5318,
 16:37:28.756,f6:90:cc:01:6d:25, 2015-01-01 01:49:40.760, 0.899, -0.013, -0.408, -0.732, -0.427, 0, -177.83, -65.528, 18.221, -25.727, -7.560, 15.420, 33.42, 0.10162, -0.82837, -0.14337, -0.5318,
 16:37:28.775,ed:40:fe:65:30:6c, 2015-01-01 01:49:31.435, 0.948, 0.1, 0.317, -0.61, -0.427, -0.183, 16.88, -70.796, -130.897, -28.700, -9.947, 6.660, 29.68, 0.41284, -0.47098, -0.34705, -0.698,
 16:37:28.775,ed:40:fe:65:30:6c, 2015-01-01 01:49:31.435, 0.95, 0.093, 0.315, -0.671, -0.427, -0.183, 16.886, -70.801, -130.93, -28.700, -9.947, 6.660, 29.68, 0.41284, -0.47098, -0.34705, -0.698,
 16:37:28.779,f6:90:cc:01:6d:25, 2015-01-01 01:49:41.075, 0.898, -0.014, -0.408, -0.732, -0.366, 0, -177.847, -65.522, 18.221, -25.727, -7.560, 15.420, 33.42, 0.10162, -0.82837, -0.14337, -0.5318,
 16:37:28.779,f6:90:cc:01:6d:25, 2015-01-01 01:49:41.075, 0.898, -0.016, -0.411, -0.549, -0.244, 0, -177.863, -65.517, 18.221, -25.727, -7.560, 15.420, 33.42, 0.10162, -0.82837, -0.14337, -0.5318,
 16:37:28.798,e3:ca:2d:fd:e0:8c, 2015-01-01 01:49:52.500, 0.946, -0.298, -0.247, -0.061, -0.366, 0, -129.342, -67.846, -87.841, -24.500, 0.213, 0.227, 31.51, 0.09415, 0.70566, -0.34808, 0.60983,
 16:37:28.798,e3:ca:2d:fd:e0:8c, 2015-01-01 01:49:52.500, 0.946, -0.3, -0.246, 0, -0.244, 0, -129.359, -67.841, -87.825, -24.500, 0.213, 0.227, 31.51, 0.09415, 0.70566, -0.34808, 0.60983,
 16:37:28.800,ed:35:33:d3:6c:f8, 2015-01-01 01:49:43.225, 0.949, 0.084, 0.292, -0.488, -0.305, -0.305, 16.057, -71.867, 143.553, -25.273, -12.567, -12.407, 31.46, -0.17163, -0.58716, 0.0733, -0.7876,
 16:37:28.800,ed:35:33:d3:6c:f8, 2015-01-01 01:49:43.225, 0.948, 0.084, 0.291, -0.366, 0, -0.366, 16.068, -71.867, 143.536, -25.273, -12.567, -12.407, 31.46, -0.17163, -0.58716, 0.0733, -0.7876,
 16:37:28.821,ed:40:fe:65:30:6c, 2015-01-01 01:49:31.435, 0.949, 0.093, 0.31, -0.305, -0.061, -0.183, 16.891, -70.807, -130.957, -28.700, -9.947, 6.660, 29.68, 0.41284, -0.47098, -0.34705, -0.698,
 16:37:28.821,ed:40:fe:65:30:6c, 2015-01-01 01:49:31.435, 0.952, 0.095, 0.314, -0.366, 0.061, -0.305, 16.897, -70.801, -130.979, -28.700, -9.947, 6.660, 29.68, 0.41284, -0.47098, -0.34705, -0.698,
 16:37:28.825,f6:90:cc:01:6d:25, 2015-01-01 01:49:41.075, 0.899, -0.017, -0.412, -0.305, 0, 0, -177.874, -65.511, 18.221, -25.727, -7.560, 15.420, 33.42, 0.10162, -0.82837, -0.14337, -0.5318,
 16:37:28.825,f6:90:cc:01:6d:25, 2015-01-01 01:49:41.075, 0.901, -0.015, -0.41, -0.122, -0.061, 0, -177.88, -65.511, 18.221, -25.727, -7.560, 15.420, 33.42, 0.10162, -0.82837, -0.14337, -0.5318,
 16:37:28.842,ed:40:fe:65:30:6c, 2015-01-01 01:49:31.435, 0.95, 0.097, 0.316, -0.183, -0.061, -0.366, 16.913, -70.801, -131.012, -28.700, -9.947, 6.660, 29.68, 0.41284, -0.47098, -0.34705, -0.698,
 16:37:28.842,ed:40:fe:65:30:6c, 2015-01-01 01:49:31.435, 0.952, 0.097, 0.319, -0.122, -0.427, -0.061, 16.924, -70.801, -131.039, -28.700, -9.947, 6.660, 29.68, 0.41284, -0.47098, -0.34705, -0.698,
 16:37:28.846,f6:90:cc:01:6d:25, 2015-01-01 01:49:41.075, 0.899, -0.015, -0.409, -0.183, -0.122, 0, -177.88, -65.511, 18.221, -25.727, -7.560, 15.420, 33.42, 0.10162, -0.82837, -0.14337, -0.5318,
 16:37:28.846,f6:90:cc:01:6d:25, 2015-01-01 01:49:41.075, 0.899, -0.017, -0.413, -0.366, -0.183, 0, -177.885, -65.506, 18.215, -25.727, -7.560, 15.420, 33.42, 0.10162, -0.82837, -0.14337, -0.5318,
 16:37:28.866,e3:ca:2d:fd:e0:8c, 2015-01-01 01:49:52.500, 0.948, -0.298, -0.248, 0, -0.122, 0, -129.37, -67.835, -87.814, -24.500, 0.213, 0.227, 31.51, 0.09415, 0.70566, -0.34808, 0.60983,
 16:37:28.866,e3:ca:2d:fd:e0:8c, 2015-01-01 01:49:52.500, 0.948, -0.299, -0.247, 0, -0.122, 0, -129.375, -67.835, -87.808, -24.500, 0.213, 0.227, 31.51, 0.09415, 0.70566, -0.34808, 0.60983,
 16:37:28.868,ed:35:33:d3:6c:f8, 2015-01-01 01:49:43.225, 0.949, 0.086, 0.298, -0.061, 0.244, -0.488, 16.089, -71.867, 143.492, -25.273, -12.567, -12.407, 31.46, -0.17163, -0.58716, 0.0733, -0.7876,
 16:37:28.868,ed:35:33:d3:6c:f8, 2015-01-01 01:49:43.225, 0.949, 0.088, 0.3, 0.305, -0.122, -0.549, 16.117, -71.862, 143.454, -25.273, -12.567, -12.407, 31.46, -0.17163, -0.58716, 0.0733, -0.7876,
 16:37:28.889,e3:ca:2d:fd:e0:8c, 2015-01-01 01:49:52.500, 0.947, -0.301, -0.251, 0.061, 0, 0, -129.38, -67.83, -87.808, -24.900, -0.027, -0.227, 31.51, 0.09415, 0.70566, -0.34808, 0.60983,
 16:37:28.889,e3:ca:2d:fd:e0:8c, 2015-01-01 01:49:52.500, 0.946, -0.3, -0.249, 0.183, 0.244, 0, -129.375, -67.83, -87.808, -24.900, -0.027, -0.227, 31.51, 0.09415, 0.70566, -0.34808, 0.60983,
 16:37:28.891,ed:35:33:d3:6c:f8, 2015-01-01 01:49:43.225, 0.947, 0.092, 0.301, 0.061, -0.183, 0.305, 16.144, -71.862, 143.41, -25.273, -12.567, -12.407, 31.46, -0.17163, -0.58716, 0.0733, -0.7876,
 16:37:28.891,ed:35:33:d3:6c:f8, 2015-01-01 01:49:43.225, 0.941, 0.091, 0.302, 0, -0.244, 0.977, 16.122, -71.867, 143.399, -25.273, -12.567, -12.407, 31.46, -0.17163, -0.58716, 0.0733, -0.7876,
 16:37:28.891,f6:90:cc:01:6d:25, 2015-01-01 01:49:41.075, 0.899, -0.017, -0.412, -0.366, -0.366, 0, -177.896, -65.5, 18.215, -25.727, -7.560, 15.420, 33.42, 0.10162, -0.82837, -0.14337, -0.5318,
 16:37:28.891,f6:90:cc:01:6d:25, 2015-01-01 01:49:41.075, 0.896, -0.013, -0.408, -0.488, -0.427, 0, -177.902, -65.49, 18.215, -25.727, -7.560, 15.420, 33.42, 0.10162, -0.82837, -0.14337, -0.5318,
 16:37:28.911,ed:40:fe:65:30:6c, 2015-01-01 01:49:31.435, 0.944, 0.098, 0.318, 0, -0.61, 0.671, 16.919, -70.818, -131.034, -28.700, -9.947, 6.660, 29.68, 0.41284, -0.47098, -0.34705, -0.698,
 16:37:28.911,ed:40:fe:65:30:6c, 2015-01-01 01:49:31.435, 0.942, 0.099, 0.319, -0.061, -0.977, 1.099, 16.88, -70.834, -130.995, -28.700, -9.947, 6.660, 29.68, 0.41284, -0.47098, -0.34705, -0.698,
 16:37:28.933,ed:40:fe:65:30:6c, 2015-01-01 01:49:31.435, 0.944, 0.098, 0.315, -0.427, -0.854, 0.916, 16.842, -70.856, -130.952, -28.653, -9.673, 6.773, 29.68, 0.41284, -0.47098, -0.34705, -0.698,
 16:37:28.933,ed:40:fe:65:30:6c, 2015-01-01 01:49:31.435, 0.947, 0.094, 0.313, -0.305, -0.61, 0.671, 16.804, -70.873, -130.919, -28.653, -9.673, 6.773, 29.68, 0.41284, -0.47098, -0.34705, -0.698,
 16:37:28.934,e3:ca:2d:fd:e0:8c, 2015-01-01 01:49:52.500, 0.944, -0.296, -0.246, 0.061, 0.183, 0, -129.37, -67.835, -87.819, -24.900, -0.027, -0.227, 31.51, 0.09415, 0.70566, -0.34808, 0.60983,
 16:37:28.934,e3:ca:2d:fd:e0:8c, 2015-01-01 01:49:52.500, 0.944, -0.295, -0.245, -0.122, 0.122, 0, -129.364, -67.835, -87.825, -24.900, -0.027, -0.227, 31.51, 0.09415, 0.70566, -0.34808, 0.60983,
 16:37:28.935,ed:35:33:d3:6c:f8, 2015-01-01 01:49:43.225, 0.94, 0.089, 0.3, -0.305, -0.183, 1.16, 16.068, -71.878, 143.443, -25.273, -12.567, -12.407, 31.46, -0.17163, -0.58716, 0.0733, -0.7876,
 16:37:28.935,ed:35:33:d3:6c:f8, 2015-01-01 01:49:43.225, 0.942, 0.085, 0.297, -0.305, -0.366, 0.977, 16.007, -71.884, 143.514, -25.273, -12.567, -12.407, 31.46, -0.17163, -0.58716, 0.0733, -0.7876,
 16:37:28.936,f6:90:cc:01:6d:25, 2015-01-01 01:49:41.075, 0.897, -0.01, -0.406, -0.549, -0.427, 0, -177.913, -65.484, 18.215, -25.727, -7.560, 15.420, 33.42, 0.10162, -0.82837, -0.14337, -0.5318,
 16:37:28.936,f6:90:cc:01:6d:25, 2015-01-01 01:49:41.075, 0.898, -0.014, -0.406, -0.549, -0.305, 0, -177.924, -65.479, 18.215, -25.727, -7.560, 15.420, 33.42, 0.10162, -0.82837, -0.14337, -0.5318,
 16:37:28.956,e3:ca:2d:fd:e0:8c, 2015-01-01 01:49:52.500, 0.945, -0.298, -0.244, -0.305, -0.061, 0, -129.375, -67.835, -87.825, -24.900, -0.027, -0.227, 31.51, 0.09424, 0.70584, -0.34839, 0.60944,
 16:37:28.956,e3:ca:2d:fd:e0:8c, 2015-01-01 01:49:52.500, 0.947, -0.3, -0.246, -0.183, -0.183, 0, -129.386, -67.83, -87.819, -24.900, -0.027, -0.227, 31.51, 0.09424, 0.70584, -0.34839, 0.60944,
 16:37:28.957,ed:35:33:d3:6c:f8, 2015-01-01 01:49:43.225, 0.943, 0.083, 0.293, 0, -0.427, 0.854, 15.958, -71.895, 143.564, -25.500, -12.620, -12.200, 31.46, -0.17163, -0.58716, 0.0733, -0.7876,
 16:37:28.957,ed:35:33:d3:6c:f8, 2015-01-01 01:49:43.225, 0.944, 0.084, 0.294, 0.061, -0.305, 0.854, 15.919, -71.906, 143.597, -25.500, -12.620, -12.200, 31.46, -0.17163, -0.58716, 0.0733, -0.7876,
 16:37:28.978,ed:40:fe:65:30:6c, 2015-01-01 01:49:31.435, 0.946, 0.092, 0.313, -0.122, -0.244, 0.61, 16.776, -70.884, -130.891, -28.653, -9.673, 6.773, 29.68, 0.41284, -0.47098, -0.34705, -0.698,
 16:37:28.978,ed:40:fe:65:30:6c, 2015-01-01 01:49:31.435, 0.946, 0.095, 0.316, -0.061, 0.061, 0.671, 16.743, -70.889, -130.853, -28.653, -9.673, 6.773, 29.68, 0.41284, -0.47098, -0.34705, -0.698,
 16:37:28.981,f6:90:cc:01:6d:25, 2015-01-01 01:49:41.075, 0.899, -0.017, -0.407, -0.427, -0.244, 0, -177.935, -65.473, 18.215, -25.927, -7.780, 15.453, 33.42, 0.10162, -0.82837, -0.14337, -0.5318,
 16:37:28.981,f6:90:cc:01:6d:25, 2015-01-01 01:49:41.075, 0.899, -0.014, -0.408, -0.244, -0.183, 0, -177.946, -65.468, 18.215, -25.927, -7.780, 15.453, 33.42, 0.10162, -0.82837, -0.14337, -0.5318,
 16:37:29.001,ed:40:fe:65:30:6c, 2015-01-01 01:49:31.435, 0.946, 0.097, 0.319, -0.366, 0.122, 0.488, 16.705, -70.889, -130.831, -28.653, -9.673, 6.773, 29.68, 0.41193, -0.47244, -0.34644, -0.69785,
 16:37:29.001,ed:40:fe:65:30:6c, 2015-01-01 01:49:31.435, 0.951, 0.095, 0.318, -0.366, -0.061, 0.183, 16.683, -70.889, -130.809, -28.653, -9.673, 6.773, 29.68, 0.41193, -0.47244, -0.34644, -0.69785,
 16:37:29.002,e3:ca:2d:fd:e0:8c, 2015-01-01 01:49:52.500, 0.947, -0.298, -0.246, -0.061, -0.305, 0, -129.397, -67.83, -87.808, -24.900, -0.027, -0.227, 31.51, 0.09424, 0.70584, -0.34839, 0.60944,
 16:37:29.002,e3:ca:2d:fd:e0:8c, 2015-01-01 01:49:52.500, 0.948, -0.295, -0.249, -0.061, -0.305, 0, -129.413, -67.824, -87.797, -24.900, -0.027, -0.227, 31.51, 0.09424, 0.70584, -0.34839, 0.60944,
 16:37:29.027,f6:90:cc:01:6d:25, 2015-01-01 01:49:41.075, 0.899, -0.01, -0.408, -0.305, -0.366, 0, -177.951, -65.462, 18.215, -25.927, -7.780, 15.453, 33.42, 0.10043, -0.82889, -0.14267, -0.5314,
 16:37:29.027,f6:90:cc:01:6d:25, 2015-01-01 01:49:41.075, 0.898, -0.01, -0.411, -0.549, -0.549, 0, -177.962, -65.457, 18.215, -25.927, -7.780, 15.453, 33.42, 0.10043, -0.82889, -0.14267, -0.5314,
 16:37:29.045,ed:40:fe:65:30:6c, 2015-01-01 01:49:31.435, 0.953, 0.094, 0.313, 0.122, -0.488, 0.244, 16.672, -70.889, -130.798, -28.653, -9.673, 6.773, 29.68, 0.41193, -0.47244, -0.34644, -0.69785,
 16:37:29.045,ed:40:fe:65:30:6c, 2015-01-01 01:49:31.435, 0.954, 0.1, 0.311, 0.122, -0.305, 0.549, 16.666, -70.9, -130.787, -28.653, -9.673, 6.773, 29.68, 0.41193, -0.47244, -0.34644, -0.69785,
 16:37:29.046,e3:ca:2d:fd:e0:8c, 2015-01-01 01:49:52.855, 0.946, -0.296, -0.247, -0.122, -0.122, 0, -129.424, -67.819, -87.786, -24.900, -0.027, -0.227, 31.51, 0.09424, 0.70584, -0.34839, 0.60944,
 16:37:29.046,e3:ca:2d:fd:e0:8c, 2015-01-01 01:49:52.855, 0.945, -0.298, -0.246, -0.122, 0, 0, -129.435, -67.819, -87.781, -24.900, -0.027, -0.227, 31.51, 0.09424, 0.70584, -0.34839, 0.60944,
 16:37:29.048,ed:35:33:d3:6c:f8, 2015-01-01 01:49:43.225, 0.944, 0.084, 0.299, -0.122, -0.122, 0.732, 15.881, -71.917, 143.619, -25.500, -12.620, -12.200, 31.46, -0.17163, -0.58716, 0.0733, -0.7876,
 16:37:29.048,ed:35:33:d3:6c:f8, 2015-01-01 01:49:43.225, 0.947, 0.083, 0.302, -0.366, 0, 0.366, 15.842, -71.922, 143.635, -25.500, -12.620, -12.200, 31.46, -0.17163, -0.58716, 0.0733, -0.7876,
 16:37:29.049,f6:90:cc:01:6d:25, 2015-01-01 01:49:41.365, 0.898, -0.014, -0.413, -0.793, -0.427, 0, -177.979, -65.446, 18.215, -25.927, -7.780, 15.453, 33.42, 0.10043, -0.82889, -0.14267, -0.5314,
 16:37:29.049,f6:90:cc:01:6d:25, 2015-01-01 01:49:41.365, 0.898, -0.016, -0.413, -0.366, -0.122, 0, -177.99, -65.44, 18.215, -25.927, -7.780, 15.453, 33.42, 0.10043, -0.82889, -0.14267, -0.5314,
 16:37:29.069,e3:ca:2d:fd:e0:8c, 2015-01-01 01:49:52.855, 0.946, -0.3, -0.248, -0.061, 0, 0, -129.435, -67.819, -87.781, -24.900, -0.027, -0.227, 31.51, 0.09424, 0.70584, -0.34839, 0.60944,
 16:37:29.069,e3:ca:2d:fd:e0:8c, 2015-01-01 01:49:52.855, 0.947, -0.298, -0.247, 0.061, 0, 0, -129.441, -67.819, -87.781, -24.900, -0.027, -0.227, 31.51, 0.09424, 0.70584, -0.34839, 0.60944,
 16:37:29.070,ed:35:33:d3:6c:f8, 2015-01-01 01:49:43.225, 0.949, 0.084, 0.3, 0, -0.122, 0.244, 15.82, -71.922, 143.613, -25.500, -12.620, -12.200, 31.46, -0.17322, -0.58737, 0.07547, -0.78687,
 16:37:29.070,ed:35:33:d3:6c:f8, 2015-01-01 01:49:43.225, 0.952, 0.089, 0.292, 0.305, -0.061, 0.549, 15.809, -71.922, 143.591, -25.500, -12.620, -12.200, 31.46, -0.17322, -0.58737, 0.07547, -0.78687,
 16:37:29.090,ed:40:fe:65:30:6c, 2015-01-01 01:49:31.770, 0.946, 0.099, 0.31, 0, -0.122, 0.977, 16.633, -70.906, -130.759, -28.653, -9.673, 6.773, 29.68, 0.41193, -0.47244, -0.34644, -0.69785,
 16:37:29.090,ed:40:fe:65:30:6c, 2015-01-01 01:49:31.770, 0.942, 0.099, 0.315, 0.061, -0.061, 1.038, 16.584, -70.917, -130.721, -28.653, -9.673, 6.773, 29.68, 0.41193, -0.47244, -0.34644, -0.69785,
 16:37:29.092,ed:35:33:d3:6c:f8, 2015-01-01 01:49:43.225, 0.95, 0.093, 0.292, -0.061, 0.061, 0.854, 15.782, -71.927, 143.586, -25.500, -12.620, -12.200, 31.46, -0.17322, -0.58737, 0.07547, -0.78687,
 16:37:29.092,ed:35:33:d3:6c:f8, 2015-01-01 01:49:43.225, 0.941, 0.09, 0.295, 0.122, 0.061, 0.977, 15.738, -71.933, 143.624, -25.500, -12.620, -12.200, 31.46, -0.17322, -0.58737, 0.07547, -0.78687,
 16:37:29.115,e3:ca:2d:fd:e0:8c, 2015-01-01 01:49:52.855, 0.946, -0.295, -0.248, 0.061, 0.122, 0, -129.441, -67.819, -87.781, -24.900, -0.027, -0.227, 31.51, 0.09424, 0.70584, -0.34839, 0.60944,
 16:37:29.115,e3:ca:2d:fd:e0:8c, 2015-01-01 01:49:52.855, 0.946, -0.296, -0.25, 0, 0.183, 0, -129.435, -67.819, -87.786, -24.900, -0.027, -0.227, 31.51, 0.09424, 0.70584, -0.34839, 0.60944,
 16:37:29.117,f6:90:cc:01:6d:25, 2015-01-01 01:49:41.365, 0.898, -0.013, -0.413, 0.061, 0, 0, -177.995, -65.44, 18.215, -25.927, -7.780, 15.453, 33.42, 0.10043, -0.82889, -0.14267, -0.5314,
 16:37:29.117,f6:90:cc:01:6d:25, 2015-01-01 01:49:41.365, 0.898, -0.009, -0.412, 0, 0, 0, -177.995, -65.44, 18.215, -25.927, -7.780, 15.453, 33.42, 0.10043, -0.82889, -0.14267, -0.5314,
 16:37:29.136,ed:40:fe:65:30:6c, 2015-01-01 01:49:31.770, 0.948, 0.098, 0.319, -0.61, 0, 0.671, 16.54, -70.922, -130.704, -28.653, -9.673, 6.773, 29.68, 0.41193, -0.47244, -0.34644, -0.69785,
 16:37:29.136,ed:40:fe:65:30:6c, 2015-01-01 01:49:31.770, 0.949, 0.092, 0.316, -0.916, -0.061, 0.488, 16.501, -70.922, -130.699, -28.653, -9.673, 6.773, 29.68, 0.41193, -0.47244, -0.34644, -0.69785,
 16:37:29.138,ed:35:33:d3:6c:f8, 2015-01-01 01:49:43.225, 0.942, 0.085, 0.3, -0.122, 0, 0.916, 15.688, -71.933, 143.668, -25.500, -12.620, -12.200, 31.46, -0.17322, -0.58737, 0.07547, -0.78687,
 16:37:29.138,ed:35:33:d3:6c:f8, 2015-01-01 01:49:43.225, 0.949, 0.083, 0.302, -1.221, -0.183, 0.427, 15.645, -71.938, 143.696, -25.500, -12.620, -12.200, 31.46, -0.17322, -0.58737, 0.07547, -0.78687,
 16:37:29.139,f6:90:cc:01:6d:25, 2015-01-01 01:49:41.365, 0.899, -0.009, -0.411, -0.183, -0.061, 0, -178, -65.44, 18.215, -25.927, -7.780, 15.453, 33.42, 0.10043, -0.82889, -0.14267, -0.5314,
 16:37:29.139,f6:90:cc:01:6d:25, 2015-01-01 01:49:41.365, 0.898, -0.015, -0.411, -0.305, -0.183, 0, -178.006, -65.435, 18.215, -25.927, -7.780, 15.453, 33.42, 0.10043, -0.82889, -0.14267, -0.5314,
 16:37:29.159,e3:ca:2d:fd:e0:8c, 2015-01-01 01:49:52.855, 0.945, -0.299, -0.249, -0.061, 0.122, 0.305, -129.43, -67.819, -87.797, -24.900, -0.027, -0.227, 31.51, 0.09424, 0.70584, -0.34839, 0.60944,
 16:37:29.159,e3:ca:2d:fd:e0:8c, 2015-01-01 01:49:52.855, 0.945, -0.301, -0.248, -0.122, 0.061, 0.183, -129.424, -67.813, -87.808, -24.900, -0.027, -0.227, 31.51, 0.09424, 0.70584, -0.34839, 0.60944,
 16:37:29.161,ed:35:33:d3:6c:f8, 2015-01-01 01:49:43.650, 0.946, 0.081, 0.297, -0.916, -0.244, 0.549, 15.606, -71.944, 143.723, -25.500, -12.620, -12.200, 31.46, -0.17322, -0.58737, 0.07547, -0.78687,
 16:37:29.161,ed:35:33:d3:6c:f8, 2015-01-01 01:49:43.650, 0.945, 0.078, 0.293, -0.061, -0.244, 0.793, 15.568, -71.949, 143.745, -25.500, -12.620, -12.200, 31.46, -0.17322, -0.58737, 0.07547, -0.78687,
 16:37:29.180,ed:40:fe:65:30:6c, 2015-01-01 01:49:31.770, 0.947, 0.088, 0.314, -0.305, -0.366, 0.732, 16.463, -70.928, -130.693, -28.653, -9.673, 6.773, 29.68, 0.41193, -0.47244, -0.34644, -0.69785,
 16:37:29.180,ed:40:fe:65:30:6c, 2015-01-01 01:49:31.770, 0.948, 0.087, 0.312, 0.122, -0.061, 0.671, 16.43, -70.933, -130.677, -28.653, -9.673, 6.773, 29.68, 0.41193, -0.47244, -0.34644, -0.69785,
 16:37:29.186,f6:90:cc:01:6d:25, 2015-01-01 01:49:41.365, 0.897, -0.018, -0.411, -0.244, -0.183, 0, -178.017, -65.429, 18.215, -25.927, -7.780, 15.453, 33.42, 0.10043, -0.82889, -0.14267, -0.5314,
 16:37:29.186,f6:90:cc:01:6d:25, 2015-01-01 01:49:41.365, 0.898, -0.016, -0.412, 0.061, 0, 0, -178.017, -65.429, 18.215, -25.927, -7.780, 15.453, 33.42, 0.10043, -0.82889, -0.14267, -0.5314,
 16:37:29.202,ed:40:fe:65:30:6c, 2015-01-01 01:49:31.770, 0.949, 0.089, 0.31, 0.488, 0.305, 0.549, 16.403, -70.939, -130.655, -28.653, -9.673, 6.773, 29.68, 0.41193, -0.47244, -0.34644, -0.69785,
 16:37:29.202,ed:40:fe:65:30:6c, 2015-01-01 01:49:31.770, 0.95, 0.091, 0.312, 0.549, 0.671, 0.427, 16.375, -70.928, -130.638, -28.653, -9.673, 6.773, 29.68, 0.41193, -0.47244, -0.34644, -0.69785,
 16:37:29.205,ed:35:33:d3:6c:f8, 2015-01-01 01:49:43.650, 0.946, 0.076, 0.291, 0.427, -0.244, 0.549, 15.529, -71.96, 143.773, -25.500, -12.620, -12.200, 31.46, -0.17322, -0.58737, 0.07547, -0.78687,
 16:37:29.205,ed:35:33:d3:6c:f8, 2015-01-01 01:49:43.650, 0.947, 0.081, 0.291, 0.671, 0, 0.488, 15.513, -71.966, 143.789, -25.500, -12.620, -12.200, 31.46, -0.17322, -0.58737, 0.07547, -0.78687,
 16:37:29.227,e3:ca:2d:fd:e0:8c, 2015-01-01 01:49:52.855, 0.946, -0.299, -0.247, 0, 0, 0.122, -129.424, -67.808, -87.814, -24.900, -0.027, -0.227, 31.51, 0.09424, 0.70584, -0.34839, 0.60944,
 16:37:29.227,e3:ca:2d:fd:e0:8c, 2015-01-01 01:49:52.855, 0.946, -0.299, -0.245, 0, 0, 0.122, -129.424, -67.808, -87.819, -24.900, -0.027, -0.227, 31.51, 0.09424, 0.70584, -0.34839, 0.60944,
 16:37:29.228,ed:35:33:d3:6c:f8, 2015-01-01 01:49:43.650, 0.947, 0.083, 0.296, 0.61, 0.244, 0.488, 15.496, -71.971, 143.833, -25.500, -12.620, -12.200, 31.46, -0.17322, -0.58737, 0.07547, -0.78687,
 16:37:29.228,ed:35:33:d3:6c:f8, 2015-01-01 01:49:43.650, 0.946, 0.083, 0.3, 0.122, 0.366, 0.488, 15.474, -71.966, 143.899, -25.500, -12.620, -12.200, 31.46, -0.17322, -0.58737, 0.07547, -0.78687,
 16:37:29.229,f6:90:cc:01:6d:25, 2015-01-01 01:49:41.365, 0.898, -0.015, -0.412, 0.305, 0.183, 0, -178.011, -65.435, 18.21, -25.927, -7.780, 15.453, 33.42, 0.10043, -0.82889, -0.14267, -0.5314,
 16:37:29.229,f6:90:cc:01:6d:25, 2015-01-01 01:49:41.365, 0.899, -0.014, -0.412, 0.366, 0.366, 0, -178.006, -65.44, 18.21, -25.927, -7.780, 15.453, 33.42, 0.10043, -0.82889, -0.14267, -0.5314,
 16:37:29.249,e3:ca:2d:fd:e0:8c, 2015-01-01 01:49:52.855, 0.948, -0.298, -0.248, 0.122, -0.061, 0.061, -129.424, -67.802, -87.819, -25.007, -0.180, 0.280, 31.51, 0.09424, 0.70584, -0.34839, 0.60944,
 16:37:29.249,e3:ca:2d:fd:e0:8c, 2015-01-01 01:49:52.855, 0.947, -0.298, -0.248, 0.122, 0, 0.061, -129.424, -67.802, -87.819, -25.007, -0.180, 0.280, 31.51, 0.09424, 0.70584, -0.34839, 0.60944,
 16:37:29.252,f6:90:cc:01:6d:25, 2015-01-01 01:49:41.365, 0.899, -0.014, -0.411, 0.305, 0.366, 0, -178, -65.446, 18.21, -25.913, -8.100, 14.987, 33.42, 0.10043, -0.82889, -0.14267, -0.5314,
 16:37:29.252,f6:90:cc:01:6d:25, 2015-01-01 01:49:41.365, 0.899, -0.014, -0.41, 0.061, 0.244, 0, -177.995, -65.451, 18.21, -25.913, -8.100, 14.987, 33.42, 0.10043, -0.82889, -0.14267, -0.5314,
 16:37:29.271,ed:40:fe:65:30:6c, 2015-01-01 01:49:31.770, 0.947, 0.094, 0.316, 0.427, 0.61, 0.366, 16.353, -70.922, -130.622, -28.653, -9.673, 6.773, 29.68, 0.41193, -0.47244, -0.34644, -0.69785,
 16:37:29.271,ed:40:fe:65:30:6c, 2015-01-01 01:49:31.770, 0.948, 0.093, 0.319, 0, 0.488, 0.366, 16.331, -70.911, -130.605, -28.653, -9.673, 6.773, 29.68, 0.41193, -0.47244, -0.34644, -0.69785,
 16:37:29.294,e3:ca:2d:fd:e0:8c, 2015-01-01 01:49:52.855, 0.946, -0.299, -0.248, 0, 0.061, 0.061, -129.424, -67.802, -87.825, -25.007, -0.180, 0.280, 31.51, 0.09424, 0.70584, -0.34839, 0.60944,
 16:37:29.294,e3:ca:2d:fd:e0:8c, 2015-01-01 01:49:52.855, 0.945, -0.3, -0.248, 0, 0.305, 0.061, -129.413, -67.802, -87.83, -25.007, -0.180, 0.280, 31.51, 0.09424, 0.70584, -0.34839, 0.60944,
 16:37:29.294,ed:40:fe:65:30:6c, 2015-01-01 01:49:31.770, 0.948, 0.09, 0.317, -0.061, 0.183, 0.427, 16.304, -70.906, -130.594, -28.800, -10.260, 6.987, 29.68, 0.41193, -0.47244, -0.34644, -0.69785,
 16:37:29.294,ed:40:fe:65:30:6c, 2015-01-01 01:49:31.770, 0.947, 0.088, 0.315, 0.366, 0, 0.488, 16.282, -70.906, -130.583, -28.800, -10.260, 6.987, 29.68, 0.41193, -0.47244, -0.34644, -0.69785,
 16:37:29.296,ed:35:33:d3:6c:f8, 2015-01-01 01:49:43.650, 0.947, 0.081, 0.302, -0.366, 0.366, 0.549, 15.441, -71.966, 143.948, -25.500, -12.620, -12.200, 31.46, -0.17322, -0.58737, 0.07547, -0.78687,
 16:37:29.296,ed:35:33:d3:6c:f8, 2015-01-01 01:49:43.650, 0.946, 0.079, 0.297, 0, 0.061, 0.793, 15.397, -71.96, 143.992, -25.500, -12.620, -12.200, 31.46, -0.17322, -0.58737, 0.07547, -0.78687,
 16:37:29.297,f6:90:cc:01:6d:25, 2015-01-01 01:49:41.365, 0.898, -0.015, -0.411, 0.061, 0.122, 0, -177.995, -65.451, 18.21, -25.913, -8.100, 14.987, 33.42, 0.10043, -0.82889, -0.14267, -0.5314,
 16:37:29.297,f6:90:cc:01:6d:25, 2015-01-01 01:49:41.365, 0.898, -0.016, -0.412, 0.183, 0.061, 0, -177.99, -65.451, 18.21, -25.913, -8.100, 14.987, 33.42, 0.10043, -0.82889, -0.14267, -0.5314,
 16:37:29.317,e3:ca:2d:fd:e0:8c, 2015-01-01 01:49:52.855, 0.946, -0.3, -0.247, -0.061, 0.549, 0, -129.402, -67.802, -87.852, -25.007, -0.180, 0.280, 31.51, 0.09436, 0.70581, -0.34888, 0.60919,
 16:37:29.317,e3:ca:2d:fd:e0:8c, 2015-01-01 01:49:52.855, 0.946, -0.298, -0.246, -0.061, 0.61, 0, -129.386, -67.808, -87.874, -25.007, -0.180, 0.280, 31.51, 0.09436, 0.70581, -0.34888, 0.60919,
 16:37:29.318,ed:35:33:d3:6c:f8, 2015-01-01 01:49:43.650, 0.944, 0.079, 0.296, 0.488, 0, 0.793, 15.353, -71.966, 144.053, -25.500, -12.620, -12.200, 31.46, -0.17322, -0.58737, 0.07547, -0.78687,
 16:37:29.318,ed:35:33:d3:6c:f8, 2015-01-01 01:49:43.650, 0.944, 0.079, 0.296, 0.244, 0, 0.488, 15.32, -71.966, 144.124, -25.500, -12.620, -12.200, 31.46, -0.17322, -0.58737, 0.07547, -0.78687,
 16:37:29.338,ed:40:fe:65:30:6c, 2015-01-01 01:49:31.770, 0.946, 0.091, 0.315, 0.427, 0.061, 0.427, 16.26, -70.911, -130.573, -28.800, -10.260, 6.987, 29.68, 0.41193, -0.47244, -0.34644, -0.69785,
 16:37:29.338,ed:40:fe:65:30:6c, 2015-01-01 01:49:31.770, 0.945, 0.09, 0.316, 0.122, 0.305, 0.061, 16.249, -70.906, -130.573, -28.800, -10.260, 6.987, 29.68, 0.41193, -0.47244, -0.34644, -0.69785,
 16:37:29.341,f6:90:cc:01:6d:25, 2015-01-01 01:49:41.365, 0.898, -0.015, -0.409, 0.366, 0.122, 0, -177.984, -65.457, 18.204, -25.913, -8.100, 14.987, 33.42, 0.10004, -0.82898, -0.14243, -0.5314,
 16:37:29.341,f6:90:cc:01:6d:25, 2015-01-01 01:49:41.365, 0.898, -0.013, -0.407, 0.427, 0.305, 0, -177.973, -65.462, 18.204, -25.913, -8.100, 14.987, 33.42, 0.10004, -0.82898, -0.14243, -0.5314,
 16:37:29.362,ed:35:33:d3:6c:f8, 2015-01-01 01:49:43.650, 0.945, 0.078, 0.297, -0.122, 0.061, 0.061, 15.304, -71.971, 144.157, -25.500, -12.620, -12.200, 31.46, -0.17322, -0.58737, 0.07547, -0.78687,
 16:37:29.362,ed:35:33:d3:6c:f8, 2015-01-01 01:49:43.650, 0.945, 0.079, 0.298, -0.488, 0.305, 0, 15.287, -71.966, 144.168, -25.500, -12.620, -12.200, 31.46, -0.17322, -0.58737, 0.07547, -0.78687,
 16:37:29.385,e3:ca:2d:fd:e0:8c, 2015-01-01 01:49:52.855, 0.945, -0.297, -0.244, 0, 0.427, 0, -129.37, -67.813, -87.896, -25.007, -0.180, 0.280, 31.51, 0.09436, 0.70581, -0.34888, 0.60919,
 16:37:29.385,e3:ca:2d:fd:e0:8c, 2015-01-01 01:49:52.855, 0.945, -0.297, -0.245, 0, 0.183, 0, -129.359, -67.819, -87.907, -25.007, -0.180, 0.280, 31.51, 0.09436, 0.70581, -0.34888, 0.60919,
 16:37:29.387,f6:90:cc:01:6d:25, 2015-01-01 01:49:41.680, 0.898, -0.014, -0.407, 0.244, 0.488, 0, -177.968, -65.468, 18.204, -25.913, -8.100, 14.987, 33.42, 0.10004, -0.82898, -0.14243, -0.5314,
 16:37:29.387,f6:90:cc:01:6d:25, 2015-01-01 01:49:41.680, 0.898, -0.017, -0.408, 0.183, 0.488, 0, -177.968, -65.479, 18.204, -25.913, -8.100, 14.987, 33.42, 0.10004, -0.82898, -0.14243, -0.5314,
 16:37:29.405,ed:40:fe:65:30:6c, 2015-01-01 01:49:31.770, 0.946, 0.091, 0.316, -0.183, 0.427, -0.183, 16.243, -70.9, -130.589, -28.800, -10.260, 6.987, 29.68, 0.41156, -0.47348, -0.34464, -0.69821,
 16:37:29.405,ed:40:fe:65:30:6c, 2015-01-01 01:49:31.770, 0.947, 0.089, 0.316, -0.122, 0.427, -0.244, 16.249, -70.889, -130.611, -28.800, -10.260, 6.987, 29.68, 0.41156, -0.47348, -0.34464, -0.69821,
 16:37:29.407,e3:ca:2d:fd:e0:8c, 2015-01-01 01:49:53.215, 0.946, -0.3, -0.246, 0, 0.061, 0, -129.359, -67.819, -87.913, -25.007, -0.180, 0.280, 31.51, 0.09436, 0.70581, -0.34888, 0.60919,
 16:37:29.407,e3:ca:2d:fd:e0:8c, 2015-01-01 01:49:53.215, 0.947, -0.301, -0.247, 0, 0.061, -0.061, -129.359, -67.819, -87.913, -25.007, -0.180, 0.280, 31.51, 0.09436, 0.70581, -0.34888, 0.60919,
 16:37:29.428,ed:40:fe:65:30:6c, 2015-01-01 01:49:32.125, 0.948, 0.089, 0.317, 0.244, 0.305, -0.122, 16.249, -70.884, -130.633, -28.800, -10.260, 6.987, 29.68, 0.41156, -0.47348, -0.34464, -0.69821,
 16:37:29.428,ed:40:fe:65:30:6c, 2015-01-01 01:49:32.125, 0.949, 0.091, 0.317, 0.61, 0.366, 0.061, 16.249, -70.873, -130.644, -28.800, -10.260, 6.987, 29.68, 0.41156, -0.47348, -0.34464, -0.69821,
 16:37:29.432,f6:90:cc:01:6d:25, 2015-01-01 01:49:41.680, 0.899, -0.017, -0.41, 0.305, 0.427, 0, -177.957, -65.49, 18.199, -25.913, -8.100, 14.987, 33.42, 0.10004, -0.82898, -0.14243, -0.5314,
 16:37:29.432,f6:90:cc:01:6d:25, 2015-01-01 01:49:41.680, 0.899, -0.016, -0.412, 0.488, 0.305, 0, -177.946, -65.495, 18.199, -25.913, -8.100, 14.987, 33.42, 0.10004, -0.82898, -0.14243, -0.5314,
 16:37:29.451,e3:ca:2d:fd:e0:8c, 2015-01-01 01:49:53.215, 0.947, -0.299, -0.25, 0.122, 0.244, -0.061, -129.353, -67.819, -87.918, -25.007, -0.180, 0.280, 31.51, 0.09436, 0.70581, -0.34888, 0.60919,
 16:37:29.451,e3:ca:2d:fd:e0:8c, 2015-01-01 01:49:53.215, 0.947, -0.298, -0.247, 0.183, 0.244, -0.061, -129.348, -67.824, -87.924, -25.007, -0.180, 0.280, 31.51, 0.09436, 0.70581, -0.34888, 0.60919,
 16:37:29.452,ed:35:33:d3:6c:f8, 2015-01-01 01:49:43.650, 0.945, 0.078, 0.298, 0, 0.305, 0.061, 15.276, -71.96, 144.168, -25.253, -12.020, -12.013, 31.46, -0.17322, -0.58737, 0.07547, -0.78687,
 16:37:29.452,ed:35:33:d3:6c:f8, 2015-01-01 01:49:43.650, 0.946, 0.082, 0.299, 0.305, 0.244, 0.244, 15.26, -71.955, 144.163, -25.253, -12.020, -12.013, 31.46, -0.17322, -0.58737, 0.07547, -0.78687,
 16:37:29.455,f6:90:cc:01:6d:25, 2015-01-01 01:49:41.680, 0.899, -0.013, -0.411, 0.61, 0.244, 0, -177.935, -65.5, 18.199, -25.913, -8.100, 14.987, 33.42, 0.10004, -0.82898, -0.14243, -0.5314,
 16:37:29.455,f6:90:cc:01:6d:25, 2015-01-01 01:49:41.680, 0.898, -0.012, -0.41, 0.916, 0.366, 0, -177.918, -65.506, 18.199, -25.913, -8.100, 14.987, 33.42, 0.10004, -0.82898, -0.14243, -0.5314,
 16:37:29.472,ed:40:fe:65:30:6c, 2015-01-01 01:49:32.125, 0.949, 0.095, 0.317, 0.732, 0.366, 0.366, 16.243, -70.867, -130.638, -28.800, -10.260, 6.987, 29.68, 0.41156, -0.47348, -0.34464, -0.69821,
 16:37:29.472,ed:40:fe:65:30:6c, 2015-01-01 01:49:32.125, 0.949, 0.098, 0.317, 0.183, 0.305, 0.427, 16.221, -70.862, -130.627, -28.800, -10.260, 6.987, 29.68, 0.41156, -0.47348, -0.34464, -0.69821,
 16:37:29.474,e3:ca:2d:fd:e0:8c, 2015-01-01 01:49:53.215, 0.947, -0.297, -0.248, 0.244, 0.244, 0, -129.337, -67.824, -87.929, -25.007, -0.180, 0.280, 31.51, 0.09436, 0.70581, -0.34888, 0.60919,
 16:37:29.474,e3:ca:2d:fd:e0:8c, 2015-01-01 01:49:53.215, 0.947, -0.297, -0.248, 0.244, 0.549, 0, -129.32, -67.83, -87.946, -25.007, -0.180, 0.280, 31.51, 0.09436, 0.70581, -0.34888, 0.60919,
 16:37:29.476,ed:35:33:d3:6c:f8, 2015-01-01 01:49:43.650, 0.948, 0.083, 0.299, 0.549, 0.244, 0.671, 15.238, -71.955, 144.179, -25.253, -12.020, -12.013, 31.46, -0.17255, -0.58704, 0.077, -0.78714,
 16:37:29.476,ed:35:33:d3:6c:f8, 2015-01-01 01:49:43.650, 0.947, 0.086, 0.299, 0.061, 0.366, 0.793, 15.194, -71.949, 144.196, -25.253, -12.020, -12.013, 31.46, -0.17255, -0.58704, 0.077, -0.78714,
 16:37:29.496,ed:40:fe:65:30:6c, 2015-01-01 01:49:32.125, 0.95, 0.092, 0.315, -0.183, 0.183, 0.244, 16.199, -70.862, -130.622, -28.800, -10.260, 6.987, 29.68, 0.41156, -0.47348, -0.34464, -0.69821,
 16:37:29.496,ed:40:fe:65:30:6c, 2015-01-01 01:49:32.125, 0.947, 0.093, 0.312, -0.366, 0.244, 0.061, 16.188, -70.856, -130.627, -28.800, -10.260, 6.987, 29.68, 0.41156, -0.47348, -0.34464, -0.69821,
 16:37:29.497,ed:35:33:d3:6c:f8, 2015-01-01 01:49:43.650, 0.947, 0.082, 0.297, -0.305, 0.366, 0.671, 15.145, -71.949, 144.261, -25.253, -12.020, -12.013, 31.46, -0.17255, -0.58704, 0.077, -0.78714,
 16:37:29.497,ed:35:33:d3:6c:f8, 2015-01-01 01:49:43.650, 0.946, 0.082, 0.293, -0.488, 0.366, 0.488, 15.101, -71.944, 144.3, -25.253, -12.020, -12.013, 31.46, -0.17255, -0.58704, 0.077, -0.78714,
 16:37:29.500,f6:90:cc:01:6d:25, 2015-01-01 01:49:41.680, 0.898, -0.013, -0.414, 0.732, 0.366, 0, -177.902, -65.511, 18.199, -25.913, -8.100, 14.987, 33.42, 0.10004, -0.82898, -0.14243, -0.5314,
 16:37:29.500,f6:90:cc:01:6d:25, 2015-01-01 01:49:41.680, 0.899, -0.012, -0.41, 0.244, 0.305, 0, -177.896, -65.517, 18.193, -25.913, -8.100, 14.987, 33.42, 0.10004, -0.82898, -0.14243, -0.5314,
 16:37:29.519,e3:ca:2d:fd:e0:8c, 2015-01-01 01:49:53.215, 0.947, -0.296, -0.246, 0, 0.671, 0, -129.298, -67.835, -87.973, -25.007, -0.180, 0.280, 31.51, 0.09436, 0.70581, -0.34888, 0.60919,
 16:37:29.519,e3:ca:2d:fd:e0:8c, 2015-01-01 01:49:53.215, 0.947, -0.295, -0.246, -0.183, 0.671, 0.061, -129.282, -67.841, -88, -25.007, -0.180, 0.280, 31.51, 0.09436, 0.70581, -0.34888, 0.60919,
 16:37:29.541,ed:40:fe:65:30:6c, 2015-01-01 01:49:32.125, 0.949, 0.096, 0.315, -0.183, 0.366, 0, 16.177, -70.851, -130.633, -28.800, -10.260, 6.987, 29.68, 0.41156, -0.47348, -0.34464, -0.69821,
 16:37:29.541,ed:40:fe:65:30:6c, 2015-01-01 01:49:32.125, 0.945, 0.096, 0.317, -0.061, 0.305, -0.183, 16.183, -70.845, -130.655, -28.800, -10.260, 6.987, 29.68, 0.41156, -0.47348, -0.34464, -0.69821,
 16:37:29.542,ed:35:33:d3:6c:f8, 2015-01-01 01:49:43.650, 0.947, 0.082, 0.294, -0.244, 0.427, 0.244, 15.068, -71.938, 144.311, -25.253, -12.020, -12.013, 31.46, -0.17255, -0.58704, 0.077, -0.78714,
 16:37:29.542,ed:35:33:d3:6c:f8, 2015-01-01 01:49:43.650, 0.944, 0.083, 0.298, 0.183, 0.549, 0.122, 15.057, -71.927, 144.289, -25.253, -12.020, -12.013, 31.46, -0.17255, -0.58704, 0.077, -0.78714,
 16:37:29.543,f6:90:cc:01:6d:25, 2015-01-01 01:49:41.680, 0.9, -0.009, -0.408, 0.305, 0.305, 0, -177.891, -65.522, 18.193, -25.913, -8.100, 14.987, 33.42, 0.10004, -0.82898, -0.14243, -0.5314,
 16:37:29.543,f6:90:cc:01:6d:25, 2015-01-01 01:49:41.680, 0.899, -0.012, -0.406, 0.488, 0.305, 0, -177.885, -65.528, 18.193, -25.913, -8.100, 14.987, 33.42, 0.10004, -0.82898, -0.14243, -0.5314,
 16:37:29.565,ed:35:33:d3:6c:f8, 2015-01-01 01:49:44.055, 0.944, 0.083, 0.302, 0.183, 0.488, 0.183, 15.046, -71.922, 144.256, -25.253, -12.020, -12.013, 31.46, -0.17255, -0.58704, 0.077, -0.78714,
 16:37:29.567,ed:35:33:d3:6c:f8, 2015-01-01 01:49:44.055, 0.946, 0.079, 0.3, 0.305, 0.244, 0.549, 15.029, -71.917, 144.218, -25.253, -12.020, -12.013, 31.46, -0.17255, -0.58704, 0.077, -0.78714,
 16:37:29.567,e3:ca:2d:fd:e0:8c, 2015-01-01 01:49:53.215, 0.946, -0.297, -0.245, -0.061, 0.427, 0.061, -129.265, -67.846, -88.022, -25.007, -0.180, 0.280, 31.51, 0.09436, 0.70581, -0.34888, 0.60919,
 16:37:29.568,e3:ca:2d:fd:e0:8c, 2015-01-01 01:49:53.215, 0.946, -0.299, -0.246, 0.061, 0.549, 0.122, -129.249, -67.852, -88.044, -25.007, -0.180, 0.280, 31.51, 0.09436, 0.70581, -0.34888, 0.60919,
 16:37:29.590,f6:90:cc:01:6d:25, 2015-01-01 01:49:41.680, 0.899, -0.016, -0.409, 0.488, 0.122, 0, -177.88, -65.528, 18.193, -26.120, -7.947, 15.420, 33.42, 0.10004, -0.82898, -0.14243, -0.5314,
 16:37:29.590,f6:90:cc:01:6d:25, 2015-01-01 01:49:41.680, 0.899, -0.017, -0.411, 0.61, 0, 0, -177.869, -65.528, 18.193, -26.120, -7.947, 15.420, 33.42, 0.10004, -0.82898, -0.14243, -0.5314,
 16:37:29.609,e3:ca:2d:fd:e0:8c, 2015-01-01 01:49:53.215, 0.947, -0.299, -0.245, 0.183, 0.671, 0.061, -129.221, -67.857, -88.072, -25.007, -0.180, 0.280, 31.51, 0.09436, 0.70581, -0.34888, 0.60919,
 16:37:29.609,e3:ca:2d:fd:e0:8c, 2015-01-01 01:49:53.215, 0.947, -0.298, -0.245, 0.305, 0.488, 0.061, -129.199, -67.863, -88.099, -25.007, -0.180, 0.280, 31.51, 0.09436, 0.70581, -0.34888, 0.60919,
 16:37:29.610,ed:35:33:d3:6c:f8, 2015-01-01 01:49:44.055, 0.947, 0.08, 0.299, 0.305, 0.122, 0.366, 15.007, -71.917, 144.179, -25.253, -12.020, -12.013, 31.46, -0.17255, -0.58704, 0.077, -0.78714,
 16:37:29.610,ed:35:33:d3:6c:f8, 2015-01-01 01:49:44.055, 0.945, 0.078, 0.299, 0.183, 0.183, 0.244, 14.996, -71.911, 144.146, -25.253, -12.020, -12.013, 31.46, -0.17255, -0.58704, 0.077, -0.78714,
 16:37:29.610,ed:40:fe:65:30:6c, 2015-01-01 01:49:32.125, 0.948, 0.091, 0.32, 0.122, 0.244, 0, 16.188, -70.84, -130.666, -28.800, -10.260, 6.987, 29.68, 0.41156, -0.47348, -0.34464, -0.69821,
 16:37:29.610,ed:40:fe:65:30:6c, 2015-01-01 01:49:32.125, 0.948, 0.09, 0.318, 0.488, 0.183, 0.183, 16.188, -70.834, -130.671, -28.800, -10.260, 6.987, 29.68, 0.41156, -0.47348, -0.34464, -0.69821,
 16:37:29.612,f6:90:cc:01:6d:25, 2015-01-01 01:49:41.680, 0.899, -0.014, -0.408, 0.61, 0, 0, -177.858, -65.528, 18.193, -26.120, -7.947, 15.420, 33.42, 0.10107, -0.82852, -0.14291, -0.5318,
 16:37:29.612,f6:90:cc:01:6d:25, 2015-01-01 01:49:41.680, 0.899, -0.014, -0.407, 0.732, 0.183, 0, -177.847, -65.533, 18.193, -26.120, -7.947, 15.420, 33.42, 0.10107, -0.82852, -0.14291, -0.5318,
 16:37:29.630,ed:40:fe:65:30:6c, 2015-01-01 01:49:32.125, 0.947, 0.092, 0.318, 0.366, 0.244, 0.183, 16.183, -70.829, -130.671, -28.800, -9.867, 7.447, 29.68, 0.41156, -0.47348, -0.34464, -0.69821,
 16:37:29.630,ed:40:fe:65:30:6c, 2015-01-01 01:49:32.125, 0.946, 0.092, 0.317, 0.305, 0.061, 0.061, 16.183, -70.829, -130.677, -28.800, -9.867, 7.447, 29.68, 0.41156, -0.47348, -0.34464, -0.69821,
 16:37:29.632,ed:35:33:d3:6c:f8, 2015-01-01 01:49:44.055, 0.944, 0.083, 0.299, 0, 0.366, 0.122, 14.985, -71.906, 144.13, -25.253, -12.020, -12.013, 31.46, -0.17255, -0.58704, 0.077, -0.78714,
 16:37:29.632,ed:35:33:d3:6c:f8, 2015-01-01 01:49:44.055, 0.944, 0.084, 0.298, -0.183, 0.427, 0.305, 14.963, -71.9, 144.113, -25.253, -12.020, -12.013, 31.46, -0.17255, -0.58704, 0.077, -0.78714,
 16:37:29.657,f6:90:cc:01:6d:25, 2015-01-01 01:49:41.680, 0.899, -0.015, -0.407, 0.732, 0.244, 0, -177.83, -65.539, 18.188, -26.120, -7.947, 15.420, 33.42, 0.10107, -0.82852, -0.14291, -0.5318,
 16:37:29.657,f6:90:cc:01:6d:25, 2015-01-01 01:49:41.680, 0.898, -0.015, -0.408, 0.61, 0.183, 0, -177.819, -65.539, 18.188, -26.120, -7.947, 15.420, 33.42, 0.10107, -0.82852, -0.14291, -0.5318,
 16:37:29.676,ed:40:fe:65:30:6c, 2015-01-01 01:49:32.125, 0.947, 0.095, 0.318, 0, 0.061, 0.061, 16.183, -70.829, -130.688, -28.800, -9.867, 7.447, 29.68, 0.41156, -0.47348, -0.34464, -0.69821,
 16:37:29.676,ed:40:fe:65:30:6c, 2015-01-01 01:49:32.125, 0.947, 0.095, 0.315, 0, 0.244, 0.305, 16.166, -70.823, -130.682, -28.800, -9.867, 7.447, 29.68, 0.41156, -0.47348, -0.34464, -0.69821,
 16:37:29.677,e3:ca:2d:fd:e0:8c, 2015-01-01 01:49:53.215, 0.946, -0.298, -0.245, 0.244, 0.183, 0.061, -129.183, -67.863, -88.11, -24.580, -0.453, -0.053, 31.51, 0.09436, 0.70581, -0.34888, 0.60919,
 16:37:29.677,e3:ca:2d:fd:e0:8c, 2015-01-01 01:49:53.215, 0.946, -0.298, -0.244, 0.122, 0, 0.061, -129.183, -67.863, -88.11, -24.580, -0.453, -0.053, 31.51, 0.09436, 0.70581, -0.34888, 0.60919,
 16:37:29.678,ed:35:33:d3:6c:f8, 2015-01-01 01:49:44.055, 0.945, 0.083, 0.298, -0.244, 0.366, 0.61, 14.93, -71.895, 144.141, -25.253, -12.020, -12.013, 31.46, -0.17255, -0.58704, 0.077, -0.78714,
 16:37:29.678,ed:35:33:d3:6c:f8, 2015-01-01 01:49:44.055, 0.944, 0.08, 0.298, -0.427, 0.183, 0.671, 14.886, -71.895, 144.174, -25.253, -12.020, -12.013, 31.46, -0.17255, -0.58704, 0.077, -0.78714,
 16:37:29.698,ed:40:fe:65:30:6c, 2015-01-01 01:49:32.125, 0.947, 0.094, 0.316, -0.183, 0.366, 0.427, 16.139, -70.818, -130.666, -28.800, -9.867, 7.447, 29.68, 0.41068, -0.47357, -0.34341, -0.69931,
 16:37:29.698,ed:40:fe:65:30:6c, 2015-01-01 01:49:32.125, 0.946, 0.09, 0.317, -0.305, 0.488, 0.427, 16.106, -70.812, -130.649, -28.800, -9.867, 7.447, 29.68, 0.41068, -0.47357, -0.34341, -0.69931,
 16:37:29.699,e3:ca:2d:fd:e0:8c, 2015-01-01 01:49:53.215, 0.946, -0.299, -0.246, 0.061, 0.061, 0, -129.183, -67.863, -88.116, -24.580, -0.453, -0.053, 31.51, 0.09479, 0.70508, -0.34903, 0.60986,
 16:37:29.699,e3:ca:2d:fd:e0:8c, 2015-01-01 01:49:53.215, 0.946, -0.3, -0.245, 0, 0.061, 0, -129.183, -67.863, -88.116, -24.580, -0.453, -0.053, 31.51, 0.09479, 0.70508, -0.34903, 0.60986,
 16:37:29.701,f6:90:cc:01:6d:25, 2015-01-01 01:49:41.970, 0.898, -0.016, -0.409, 0.549, 0.244, 0, -177.808, -65.544, 18.188, -26.120, -7.947, 15.420, 33.42, 0.10107, -0.82852, -0.14291, -0.5318,
 16:37:29.701,f6:90:cc:01:6d:25, 2015-01-01 01:49:41.970, 0.9, -0.016, -0.409, 0.61, 0.183, 0, -177.797, -65.55, 18.188, -26.120, -7.947, 15.420, 33.42, 0.10107, -0.82852, -0.14291, -0.5318,
 16:37:29.744,e3:ca:2d:fd:e0:8c, 2015-01-01 01:49:53.215, 0.947, -0.299, -0.247, 0, 0.183, 0, -129.177, -67.863, -88.121, -24.580, -0.453, -0.053, 31.51, 0.09479, 0.70508, -0.34903, 0.60986,
 16:37:29.744,e3:ca:2d:fd:e0:8c, 2015-01-01 01:49:53.215, 0.947, -0.299, -0.246, 0, 0.305, 0, -129.172, -67.863, -88.132, -24.580, -0.453, -0.053, 31.51, 0.09479, 0.70508, -0.34903, 0.60986,
 16:37:29.744,ed:40:fe:65:30:6c, 2015-01-01 01:49:32.125, 0.948, 0.09, 0.32, -0.427, 0.366, 0.183, 16.084, -70.807, -130.638, -28.800, -9.867, 7.447, 29.68, 0.41068, -0.47357, -0.34341, -0.69931,
 16:37:29.744,ed:40:fe:65:30:6c, 2015-01-01 01:49:32.125, 0.951, 0.089, 0.317, -0.427, 0.305, 0.122, 16.062, -70.801, -130.638, -28.800, -9.867, 7.447, 29.68, 0.41068, -0.47357, -0.34341, -0.69931,
 16:37:29.746,ed:35:33:d3:6c:f8, 2015-01-01 01:49:44.055, 0.945, 0.075, 0.301, -0.366, 0.122, 0.244, 14.854, -71.895, 144.179, -25.253, -12.020, -12.013, 31.46, -0.17255, -0.58704, 0.077, -0.78714,
 16:37:29.746,ed:35:33:d3:6c:f8, 2015-01-01 01:49:44.055, 0.949, 0.078, 0.301, -0.61, 0.122, 0, 14.837, -71.889, 144.174, -25.253, -12.020, -12.013, 31.46, -0.17255, -0.58704, 0.077, -0.78714,
 16:37:29.746,f6:90:cc:01:6d:25, 2015-01-01 01:49:41.970, 0.899, -0.016, -0.409, 0.61, 0.122, 0, -177.786, -65.55, 18.188, -26.120, -7.947, 15.420, 33.42, 0.10107, -0.82852, -0.14291, -0.5318,
 16:37:29.746,f6:90:cc:01:6d:25, 2015-01-01 01:49:41.970, 0.899, -0.016, -0.407, 0.488, 0, 0, -177.781, -65.55, 18.188, -26.120, -7.947, 15.420, 33.42, 0.10107, -0.82852, -0.14291, -0.5318,
 16:37:29.765,ed:40:fe:65:30:6c, 2015-01-01 01:49:32.460, 0.952, 0.09, 0.314, -0.061, 0.305, 0.244, 16.046, -70.796, -130.638, -28.800, -9.867, 7.447, 29.68, 0.41068, -0.47357, -0.34341, -0.69931,
 16:37:29.765,ed:40:fe:65:30:6c, 2015-01-01 01:49:32.460, 0.949, 0.09, 0.314, 0, 0.244, 0.244, 16.029, -70.79, -130.633, -28.800, -9.867, 7.447, 29.68, 0.41068, -0.47357, -0.34341, -0.69931,
 16:37:29.767,e3:ca:2d:fd:e0:8c, 2015-01-01 01:49:53.595, 0.946, -0.298, -0.244, 0.061, 0.305, 0, -129.161, -67.868, -88.143, -24.580, -0.453, -0.053, 31.51, 0.09479, 0.70508, -0.34903, 0.60986,
 16:37:29.767,e3:ca:2d:fd:e0:8c, 2015-01-01 01:49:53.595, 0.947, -0.299, -0.246, 0.061, 0.183, 0, -129.155, -67.868, -88.154, -24.580, -0.453, -0.053, 31.51, 0.09479, 0.70508, -0.34903, 0.60986,
 16:37:29.768,ed:35:33:d3:6c:f8, 2015-01-01 01:49:44.055, 0.95, 0.079, 0.296, -0.427, 0.366, 0.305, 14.815, -71.884, 144.174, -25.387, -12.447, -12.460, 31.46, -0.17255, -0.58704, 0.077, -0.78714,
 16:37:29.768,ed:35:33:d3:6c:f8, 2015-01-01 01:49:44.055, 0.949, 0.078, 0.296, -0.305, 0.488, 0.488, 14.782, -71.878, 144.212, -25.387, -12.447, -12.460, 31.46, -0.17255, -0.58704, 0.077, -0.78714,
 16:37:29.791,f6:90:cc:01:6d:25, 2015-01-01 01:49:41.970, 0.9, -0.016, -0.409, 0.549, 0.183, 0, -177.77, -65.555, 18.188, -26.120, -7.947, 15.420, 33.42, 0.10107, -0.82852, -0.14291, -0.5318,
 16:37:29.791,f6:90:cc:01:6d:25, 2015-01-01 01:49:41.970, 0.899, -0.017, -0.409, 0.854, 0.366, 0, -177.753, -65.561, 18.182, -26.120, -7.947, 15.420, 33.42, 0.10107, -0.82852, -0.14291, -0.5318,
 16:37:29.810,ed:40:fe:65:30:6c, 2015-01-01 01:49:32.460, 0.95, 0.091, 0.314, 0.488, 0.244, 0.488, 16.007, -70.79, -130.616, -28.800, -9.867, 7.447, 29.68, 0.41068, -0.47357, -0.34341, -0.69931,
 16:37:29.810,ed:40:fe:65:30:6c, 2015-01-01 01:49:32.460, 0.95, 0.091, 0.315, 0.916, 0.305, 0.732, 15.985, -70.79, -130.583, -28.800, -9.867, 7.447, 29.68, 0.41068, -0.47357, -0.34341, -0.69931,
 16:37:29.811,e3:ca:2d:fd:e0:8c, 2015-01-01 01:49:53.595, 0.947, -0.299, -0.243, 0.061, 0.183, 0, -129.15, -67.868, -88.16, -24.580, -0.453, -0.053, 31.51, 0.09479, 0.70508, -0.34903, 0.60986,
 16:37:29.811,e3:ca:2d:fd:e0:8c, 2015-01-01 01:49:53.595, 0.947, -0.299, -0.245, 0.061, 0.061, 0, -129.15, -67.868, -88.165, -24.580, -0.453, -0.053, 31.51, 0.09479, 0.70508, -0.34903, 0.60986,
 16:37:29.813,ed:35:33:d3:6c:f8, 2015-01-01 01:49:44.055, 0.947, 0.082, 0.296, 0.183, 0.366, 0.488, 14.744, -71.873, 144.25, -25.387, -12.447, -12.460, 31.46, -0.17255, -0.58704, 0.077, -0.78714,
 16:37:29.813,ed:35:33:d3:6c:f8, 2015-01-01 01:49:44.055, 0.949, 0.08, 0.296, 0.732, 0.366, 0.977, 14.711, -71.873, 144.3, -25.387, -12.447, -12.460, 31.46, -0.17255, -0.58704, 0.077, -0.78714,
 16:37:29.814,f6:90:cc:01:6d:25, 2015-01-01 01:49:41.970, 0.899, -0.016, -0.41, 0.671, 0.366, 0, -177.737, -65.566, 18.182, -26.120, -7.947, 15.420, 33.42, 0.10107, -0.82852, -0.14291, -0.5318,
 16:37:29.814,f6:90:cc:01:6d:25, 2015-01-01 01:49:41.970, 0.899, -0.016, -0.41, 0.793, 0.488, 0, -177.72, -65.577, 18.182, -26.120, -7.947, 15.420, 33.42, 0.10107, -0.82852, -0.14291, -0.5318,
 16:37:29.834,e3:ca:2d:fd:e0:8c, 2015-01-01 01:49:53.595, 0.947, -0.298, -0.248, 0, 0.244, 0, -129.144, -67.868, -88.171, -24.580, -0.453, -0.053, 31.51, 0.09479, 0.70508, -0.34903, 0.60986,
 16:37:29.834,e3:ca:2d:fd:e0:8c, 2015-01-01 01:49:53.595, 0.946, -0.299, -0.248, 0.061, 0.366, 0, -129.133, -67.874, -88.187, -24.580, -0.453, -0.053, 31.51, 0.09479, 0.70508, -0.34903, 0.60986,
 16:37:29.855,ed:40:fe:65:30:6c, 2015-01-01 01:49:32.460, 0.947, 0.092, 0.318, 0.854, 0.061, 0.793, 15.958, -70.79, -130.545, -28.800, -9.867, 7.447, 29.68, 0.41068, -0.47357, -0.34341, -0.69931,
 16:37:29.855,ed:40:fe:65:30:6c, 2015-01-01 01:49:32.460, 0.944, 0.089, 0.319, 0.488, 0, 0.549, 15.936, -70.796, -130.523, -28.800, -9.867, 7.447, 29.68, 0.41068, -0.47357, -0.34341, -0.69931,
 16:37:29.858,ed:35:33:d3:6c:f8, 2015-01-01 01:49:44.055, 0.946, 0.08, 0.299, 0.549, 0.427, 1.038, 14.661, -71.873, 144.344, -25.387, -12.447, -12.460, 31.46, -0.17453, -0.58578, 0.07971, -0.78735,
 16:37:29.858,ed:35:33:d3:6c:f8, 2015-01-01 01:49:44.055, 0.943, 0.077, 0.3, 0.122, 0.488, 0.916, 14.606, -71.867, 144.399, -25.387, -12.447, -12.460, 31.46, -0.17453, -0.58578, 0.07971, -0.78735,
 16:37:29.859,f6:90:cc:01:6d:25, 2015-01-01 01:49:41.970, 0.899, -0.016, -0.41, 0.793, 0.488, 0, -177.704, -65.588, 18.182, -26.120, -7.947, 15.420, 33.42, 0.10107, -0.82852, -0.14291, -0.5318,
 16:37:29.859,f6:90:cc:01:6d:25, 2015-01-01 01:49:41.970, 0.899, -0.017, -0.409, 0.793, 0.366, 0, -177.687, -65.594, 18.177, -26.120, -7.947, 15.420, 33.42, 0.10107, -0.82852, -0.14291, -0.5318,
 16:37:29.881,e3:ca:2d:fd:e0:8c, 2015-01-01 01:49:53.595, 0.947, -0.297, -0.246, 0.061, 0.427, 0, -129.117, -67.879, -88.204, -24.580, -0.453, -0.053, 31.51, 0.09479, 0.70508, -0.34903, 0.60986,
 16:37:29.881,e3:ca:2d:fd:e0:8c, 2015-01-01 01:49:53.595, 0.946, -0.296, -0.244, 0.061, 0.427, 0, -129.106, -67.879, -88.22, -24.580, -0.453, -0.053, 31.51, 0.09479, 0.70508, -0.34903, 0.60986,
 16:37:29.901,ed:40:fe:65:30:6c, 2015-01-01 01:49:32.460, 0.944, 0.09, 0.319, 0.305, 0, 0.183, 15.93, -70.796, -130.523, -28.800, -9.867, 7.447, 29.68, 0.41068, -0.47357, -0.34341, -0.69931,
 16:37:29.901,ed:40:fe:65:30:6c, 2015-01-01 01:49:32.460, 0.948, 0.089, 0.317, 0.427, 0.061, -0.061, 15.941, -70.796, -130.534, -28.800, -9.867, 7.447, 29.68, 0.41068, -0.47357, -0.34341, -0.69931,
 16:37:29.903,ed:35:33:d3:6c:f8, 2015-01-01 01:49:44.055, 0.941, 0.074, 0.301, 0.061, 0.488, 0.427, 14.568, -71.862, 144.443, -25.387, -12.447, -12.460, 31.46, -0.17453, -0.58578, 0.07971, -0.78735,
 16:37:29.903,ed:35:33:d3:6c:f8, 2015-01-01 01:49:44.055, 0.945, 0.076, 0.3, 0.183, 0.488, 0, 14.551, -71.856, 144.432, -25.387, -12.447, -12.460, 31.46, -0.17453, -0.58578, 0.07971, -0.78735,
 16:37:29.904,f6:90:cc:01:6d:25, 2015-01-01 01:49:41.970, 0.898, -0.014, -0.407, 0.549, 0.122, 0, -177.676, -65.594, 18.177, -25.980, -7.533, 15.127, 33.42, 0.10107, -0.82852, -0.14291, -0.5318,
 16:37:29.904,f6:90:cc:01:6d:25, 2015-01-01 01:49:41.970, 0.899, -0.014, -0.406, 0.488, 0.122, 0, -177.671, -65.594, 18.177, -25.980, -7.533, 15.127, 33.42, 0.10107, -0.82852, -0.14291, -0.5318,
 16:37:29.926,ed:35:33:d3:6c:f8, 2015-01-01 01:49:44.435, 0.946, 0.076, 0.297, 0.61, 0.305, -0.122, 14.557, -71.851, 144.421, -25.387, -12.447, -12.460, 31.46, -0.17453, -0.58578, 0.07971, -0.78735,
 16:37:29.926,ed:35:33:d3:6c:f8, 2015-01-01 01:49:44.435, 0.946, 0.077, 0.299, 0.61, 0.366, -0.183, 14.573, -71.84, 144.41, -25.387, -12.447, -12.460, 31.46, -0.17453, -0.58578, 0.07971, -0.78735,
 16:37:29.946,e3:ca:2d:fd:e0:8c, 2015-01-01 01:49:53.595, 0.946, -0.297, -0.242, 0, 0.305, 0, -129.095, -67.885, -88.231, -24.580, -0.453, -0.053, 31.51, 0.09479, 0.70508, -0.34903, 0.60986,
 16:37:29.946,e3:ca:2d:fd:e0:8c, 2015-01-01 01:49:53.595, 0.947, -0.299, -0.243, 0, 0.122, 0, -129.095, -67.885, -88.237, -24.580, -0.453, -0.053, 31.51, 0.09479, 0.70508, -0.34903, 0.60986,
 16:37:29.949,f6:90:cc:01:6d:25, 2015-01-01 01:49:41.970, 0.9, -0.018, -0.405, 0.366, 0.244, 0, -177.665, -65.599, 18.177, -25.980, -7.533, 15.127, 33.42, 0.10245, -0.82806, -0.14365, -0.53207,
 16:37:29.949,f6:90:cc:01:6d:25, 2015-01-01 01:49:41.970, 0.9, -0.019, -0.406, 0.427, 0.183, 0, -177.654, -65.605, 18.177, -25.980, -7.533, 15.127, 33.42, 0.10245, -0.82806, -0.14365, -0.53207,
 16:37:29.968,ed:40:fe:65:30:6c, 2015-01-01 01:49:32.460, 0.948, 0.09, 0.316, 0.61, 0.244, -0.183, 15.958, -70.79, -130.551, -28.800, -9.867, 7.447, 29.68, 0.41068, -0.47357, -0.34341, -0.69931,
 16:37:29.968,ed:40:fe:65:30:6c, 2015-01-01 01:49:32.460, 0.947, 0.091, 0.319, 0.488, 0.366, -0.244, 15.974, -70.785, -130.567, -28.800, -9.867, 7.447, 29.68, 0.41068, -0.47357, -0.34341, -0.69931,
 16:37:29.970,ed:35:33:d3:6c:f8, 2015-01-01 01:49:44.435, 0.946, 0.079, 0.302, 0.244, 0.549, -0.183, 14.584, -71.834, 144.404, -25.387, -12.447, -12.460, 31.46, -0.17453, -0.58578, 0.07971, -0.78735,
 16:37:29.970,ed:35:33:d3:6c:f8, 2015-01-01 01:49:44.435, 0.945, 0.081, 0.304, 0, 0.793, 0, 14.584, -71.823, 144.415, -25.387, -12.447, -12.460, 31.46, -0.17453, -0.58578, 0.07971, -0.78735,
 16:37:29.991,ed:40:fe:65:30:6c, 2015-01-01 01:49:32.460, 0.948, 0.092, 0.319, 0.305, 0.427, -0.183, 15.985, -70.774, -130.583, -28.947, -10.100, 6.860, 29.68, 0.41068, -0.47357, -0.34341, -0.69931,
 16:37:29.991,ed:40:fe:65:30:6c, 2015-01-01 01:49:32.460, 0.946, 0.093, 0.322, 0.183, 0.366, 0.061, 15.98, -70.768, -130.589, -28.947, -10.100, 6.860, 29.68, 0.41068, -0.47357, -0.34341, -0.69931,
 16:37:29.992,e3:ca:2d:fd:e0:8c, 2015-01-01 01:49:53.595, 0.946, -0.299, -0.243, 0, 0, 0, -129.095, -67.885, -88.242, -24.580, -0.453, -0.053, 31.51, 0.09479, 0.70508, -0.34903, 0.60986,
 16:37:29.992,e3:ca:2d:fd:e0:8c, 2015-01-01 01:49:53.595, 0.947, -0.299, -0.243, 0, -0.061, 0, -129.1, -67.885, -88.237, -24.580, -0.453, -0.053, 31.51, 0.09479, 0.70508, -0.34903, 0.60986,
 16:37:29.994,f6:90:cc:01:6d:25, 2015-01-01 01:49:42.280, 0.9, -0.018, -0.406, 0.305, 0.122, 0, -177.649, -65.61, 18.177, -25.980, -7.533, 15.127, 33.42, 0.10245, -0.82806, -0.14365, -0.53207,
 16:37:29.994,f6:90:cc:01:6d:25, 2015-01-01 01:49:42.280, 0.9, -0.017, -0.407, 0.305, 0, 0, -177.643, -65.61, 18.177, -25.980, -7.533, 15.127, 33.42, 0.10245, -0.82806, -0.14365, -0.53207,
 16:37:30.015,ed:35:33:d3:6c:f8, 2015-01-01 01:49:44.435, 0.944, 0.082, 0.306, -0.122, 0.732, 0.366, 14.562, -71.807, 144.448, -25.387, -12.447, -12.460, 31.46, -0.17453, -0.58578, 0.07971, -0.78735,
 16:37:30.015,ed:35:33:d3:6c:f8, 2015-01-01 01:49:44.435, 0.945, 0.079, 0.304, 0, 0.549, 0.488, 14.524, -71.796, 144.509, -25.387, -12.447, -12.460, 31.46, -0.17453, -0.58578, 0.07971, -0.78735,
 16:37:30.017,f6:90:cc:01:6d:25, 2015-01-01 01:49:42.280, 0.899, -0.017, -0.408, 0.183, -0.122, 0, -177.638, -65.61, 18.177, -25.980, -7.533, 15.127, 33.42, 0.10245, -0.82806, -0.14365, -0.53207,
 16:37:30.017,f6:90:cc:01:6d:25, 2015-01-01 01:49:42.280, 0.899, -0.016, -0.408, 0.244, -0.061, 0, -177.632, -65.61, 18.177, -25.980, -7.533, 15.127, 33.42, 0.10245, -0.82806, -0.14365, -0.53207,
 16:37:30.037,e3:ca:2d:fd:e0:8c, 2015-01-01 01:49:53.595, 0.948, -0.299, -0.244, 0.061, 0, 0, -129.1, -67.885, -88.237, -24.693, -0.020, -0.160, 31.51, 0.09479, 0.70508, -0.34903, 0.60986,
 16:37:30.037,e3:ca:2d:fd:e0:8c, 2015-01-01 01:49:53.595, 0.947, -0.299, -0.246, 0, 0.244, 0, -129.095, -67.885, -88.242, -24.693, -0.020, -0.160, 31.51, 0.09479, 0.70508, -0.34903, 0.60986,
 16:37:30.058,ed:40:fe:65:30:6c, 2015-01-01 01:49:32.460, 0.947, 0.093, 0.322, 0.244, 0.122, 0.366, 15.969, -70.763, -130.583, -28.947, -10.100, 6.860, 29.68, 0.41068, -0.47357, -0.34341, -0.69931,
 16:37:30.058,ed:40:fe:65:30:6c, 2015-01-01 01:49:32.460, 0.948, 0.091, 0.32, 0.305, 0, 0.427, 15.952, -70.763, -130.567, -28.947, -10.100, 6.860, 29.68, 0.41068, -0.47357, -0.34341, -0.69931,
 16:37:30.060,ed:35:33:d3:6c:f8, 2015-01-01 01:49:44.435, 0.945, 0.075, 0.3, 0.061, 0.366, 0.427, 14.496, -71.79, 144.542, -25.387, -12.447, -12.460, 31.46, -0.17453, -0.58578, 0.07971, -0.78735,
 16:37:30.060,ed:35:33:d3:6c:f8, 2015-01-01 01:49:44.435, 0.943, 0.073, 0.299, 0.061, 0.244, 0.305, 14.469, -71.785, 144.575, -25.387, -12.447, -12.460, 31.46, -0.17453, -0.58578, 0.07971, -0.78735,
 16:37:30.062,f6:90:cc:01:6d:25, 2015-01-01 01:49:42.280, 0.899, -0.018, -0.407, 0.244, 0.061, 0, -177.627, -65.61, 18.171, -25.980, -7.533, 15.127, 33.42, 0.10245, -0.82806, -0.14365, -0.53207,
 16:37:30.062,f6:90:cc:01:6d:25, 2015-01-01 01:49:42.280, 0.899, -0.018, -0.408, 0.244, 0.061, 0, -177.621, -65.61, 18.171, -25.980, -7.533, 15.127, 33.42, 0.10245, -0.82806, -0.14365, -0.53207,
 16:37:30.080,ed:40:fe:65:30:6c, 2015-01-01 01:49:32.460, 0.946, 0.089, 0.316, 0.244, 0, 0.183, 15.947, -70.763, -130.567, -28.947, -10.100, 6.860, 29.68, 0.41055, -0.4736, -0.3425, -0.69983,
 16:37:30.080,ed:40:fe:65:30:6c, 2015-01-01 01:49:32.460, 0.946, 0.086, 0.317, 0.183, 0, -0.061, 15.947, -70.763, -130.578, -28.947, -10.100, 6.860, 29.68, 0.41055, -0.4736, -0.3425, -0.69983,
 16:37:30.104,e3:ca:2d:fd:e0:8c, 2015-01-01 01:49:53.595, 0.946, -0.298, -0.244, 0, 0.427, 0, -129.084, -67.89, -88.259, -24.693, -0.020, -0.160, 31.51, 0.09479, 0.70508, -0.34903, 0.60986,
 16:37:30.104,e3:ca:2d:fd:e0:8c, 2015-01-01 01:49:53.595, 0.946, -0.298, -0.243, -0.061, 0.427, 0, -129.073, -67.896, -88.275, -24.693, -0.020, -0.160, 31.51, 0.09479, 0.70508, -0.34903, 0.60986,
 16:37:30.106,f6:90:cc:01:6d:25, 2015-01-01 01:49:42.280, 0.899, -0.017, -0.408, 0.183, 0.061, 0, -177.616, -65.61, 18.171, -25.980, -7.533, 15.127, 33.42, 0.10245, -0.82806, -0.14365, -0.53207,
 16:37:30.106,f6:90:cc:01:6d:25, 2015-01-01 01:49:42.280, 0.9, -0.018, -0.406, 0.122, 0.061, 0, -177.616, -65.61, 18.171, -25.980, -7.533, 15.127, 33.42, 0.10245, -0.82806, -0.14365, -0.53207,
 16:37:30.106,ed:35:33:d3:6c:f8, 2015-01-01 01:49:44.435, 0.944, 0.072, 0.298, 0.122, 0.366, -0.305, 14.464, -71.779, 144.575, -25.387, -12.447, -12.460, 31.46, -0.17453, -0.58578, 0.07971, -0.78735,
 16:37:30.106,ed:35:33:d3:6c:f8, 2015-01-01 01:49:44.435, 0.942, 0.071, 0.3, 0, 0.549, -0.977, 14.496, -71.768, 144.536, -25.387, -12.447, -12.460, 31.46, -0.17453, -0.58578, 0.07971, -0.78735,
 16:37:30.126,ed:40:fe:65:30:6c, 2015-01-01 01:49:32.460, 0.946, 0.088, 0.317, 0.061, 0.122, -0.488, 15.969, -70.757, -130.605, -28.947, -10.100, 6.860, 29.68, 0.41055, -0.4736, -0.3425, -0.69983,
 16:37:30.126,ed:40:fe:65:30:6c, 2015-01-01 01:49:32.460, 0.945, 0.087, 0.319, 0, 0.244, -0.916, 16.013, -70.752, -130.666, -28.947, -10.100, 6.860, 29.68, 0.41055, -0.4736, -0.3425, -0.69983,
 16:37:30.127,e3:ca:2d:fd:e0:8c, 2015-01-01 01:49:53.595, 0.946, -0.299, -0.245, 0, 0.305, 0, -129.062, -67.896, -88.292, -24.693, -0.020, -0.160, 31.51, 0.09518, 0.70465, -0.34927, 0.61017,
 16:37:30.127,e3:ca:2d:fd:e0:8c, 2015-01-01 01:49:53.595, 0.947, -0.299, -0.245, 0, 0.244, 0, -129.056, -67.901, -88.297, -24.693, -0.020, -0.160, 31.51, 0.09518, 0.70465, -0.34927, 0.61017,
 16:37:30.128,ed:35:33:d3:6c:f8, 2015-01-01 01:49:44.435, 0.943, 0.077, 0.303, 0, 0.671, -1.16, 14.546, -71.752, 144.476, -25.027, -12.280, -12.320, 31.46, -0.17453, -0.58578, 0.07971, -0.78735,
 16:37:30.128,ed:35:33:d3:6c:f8, 2015-01-01 01:49:44.435, 0.945, 0.081, 0.308, -0.244, 0.549, -1.16, 14.595, -71.735, 144.404, -25.027, -12.280, -12.320, 31.46, -0.17453, -0.58578, 0.07971, -0.78735,
 16:37:30.148,ed:40:fe:65:30:6c, 2015-01-01 01:49:32.840, 0.946, 0.092, 0.322, -0.061, 0.305, -1.038, 16.057, -70.735, -130.732, -28.947, -10.100, 6.860, 29.68, 0.41055, -0.4736, -0.3425, -0.69983,
 16:37:30.148,ed:40:fe:65:30:6c, 2015-01-01 01:49:32.840, 0.948, 0.093, 0.322, -0.122, 0.305, -0.854, 16.095, -70.724, -130.787, -28.947, -10.100, 6.860, 29.68, 0.41055, -0.4736, -0.3425, -0.69983,
 16:37:30.150,e3:ca:2d:fd:e0:8c, 2015-01-01 01:49:53.595, 0.948, -0.299, -0.245, 0, 0.061, 0, -129.051, -67.901, -88.303, -24.693, -0.020, -0.160, 31.51, 0.09518, 0.70465, -0.34927, 0.61017,
 16:37:30.150,e3:ca:2d:fd:e0:8c, 2015-01-01 01:49:53.595, 0.947, -0.299, -0.246, 0.061, 0.061, 0, -129.051, -67.901, -88.308, -24.693, -0.020, -0.160, 31.51, 0.09518, 0.70465, -0.34927, 0.61017,
 16:37:30.152,f6:90:cc:01:6d:25, 2015-01-01 01:49:42.280, 0.899, -0.018, -0.406, -0.061, -0.122, 0, -177.61, -65.61, 18.171, -25.980, -7.533, 15.127, 33.42, 0.10245, -0.82806, -0.14365, -0.53207,
 16:37:30.152,f6:90:cc:01:6d:25, 2015-01-01 01:49:42.280, 0.9, -0.016, -0.407, -0.061, -0.305, 0, -177.616, -65.61, 18.171, -25.980, -7.533, 15.127, 33.42, 0.10245, -0.82806, -0.14365, -0.53207,
 16:37:30.170,ed:40:fe:65:30:6c, 2015-01-01 01:49:32.840, 0.948, 0.098, 0.321, -0.244, 0.122, -0.488, 16.117, -70.719, -130.825, -28.947, -10.100, 6.860, 29.68, 0.41055, -0.4736, -0.3425, -0.69983,
 16:37:30.170,ed:40:fe:65:30:6c, 2015-01-01 01:49:32.840, 0.951, 0.094, 0.321, -0.061, 0, -0.122, 16.117, -70.719, -130.842, -28.947, -10.100, 6.860, 29.68, 0.41055, -0.4736, -0.3425, -0.69983,
 16:37:30.173,ed:35:33:d3:6c:f8, 2015-01-01 01:49:44.435, 0.945, 0.085, 0.306, -0.366, 0.061, -0.732, 14.634, -71.724, 144.327, -25.027, -12.280, -12.320, 31.46, -0.17453, -0.58578, 0.07971, -0.78735,
 16:37:30.173,ed:35:33:d3:6c:f8, 2015-01-01 01:49:44.435, 0.948, 0.085, 0.306, -0.305, -0.122, -0.305, 14.656, -71.719, 144.294, -25.027, -12.280, -12.320, 31.46, -0.17453, -0.58578, 0.07971, -0.78735,
 16:37:30.195,ed:35:33:d3:6c:f8, 2015-01-01 01:49:44.435, 0.948, 0.08, 0.299, -0.366, -0.244, 0.122, 14.661, -71.724, 144.294, -25.027, -12.280, -12.320, 31.46, -0.17523, -0.58472, 0.07968, -0.78799,
 16:37:30.195,ed:35:33:d3:6c:f8, 2015-01-01 01:49:44.435, 0.945, 0.082, 0.298, -0.732, -0.183, 0.305, 14.639, -71.73, 144.294, -25.027, -12.280, -12.320, 31.46, -0.17523, -0.58472, 0.07968, -0.78799,
 16:37:30.195,e3:ca:2d:fd:e0:8c, 2015-01-01 01:49:53.595, 0.947, -0.299, -0.245, 0, 0.122, 0, -129.051, -67.901, -88.308, -24.693, -0.020, -0.160, 31.51, 0.09518, 0.70465, -0.34927, 0.61017,
 16:37:30.195,e3:ca:2d:fd:e0:8c, 2015-01-01 01:49:53.595, 0.947, -0.299, -0.243, 0, 0.244, 0, -129.045, -67.901, -88.319, -24.693, -0.020, -0.160, 31.51, 0.09518, 0.70465, -0.34927, 0.61017,
