Time,Device name,Chip Time(),Acceleration X(g),Acceleration Y(g),Acceleration Z(g),Angular velocity X(°/s),Angular velocity Y(°/s),Angular velocity Z(°/s),Angle X(°),Angle Y(°),Angle Z(°),Magnetic field X(ʯt),Magnetic field Y(ʯt),Magnetic field Z(ʯt),Temperature(℃),Quaternions 0(),Quaternions 1(),Quaternions 2(),Quaternions 3()
 17:13:03.705,e3:ca:2d:fd:e0:8c, 2015-01-01 03:34:23.105, 0.99, -0.204, 0.034, -0.305, -1.77, -0.122, -72.526, -77.975, -129.65, -27.853, -7.747, -7.353, 29.7, -0.07092, -0.65524, 0.20102, -0.72464,
 17:13:03.705,e3:ca:2d:fd:e0:8c, 2015-01-01 03:34:23.105, 0.996, -0.193, 0.031, -0.061, -2.441, -0.488, -72.735, -77.997, -129.435, -27.853, -7.747, -7.353, 29.7, -0.07092, -0.65524, 0.20102, -0.72464,
 17:13:03.705,e3:ca:2d:fd:e0:8c, 2015-01-01 03:34:23.105, 0.99, -0.186, 0.027, -0.305, -2.93, -0.488, -72.999, -78.025, -129.15, -27.853, -7.747, -7.353, 29.7, -0.07092, -0.65524, 0.20102, -0.72464,
 17:13:03.705,e3:ca:2d:fd:e0:8c, 2015-01-01 03:34:23.105, 0.996, -0.193, 0.031, -0.061, -2.441, -0.488, -72.735, -77.997, -129.435, -27.853, -7.747, -7.353, 29.7, -0.07092, -0.65524, 0.20102, -0.72464,
 17:13:03.708,ed:40:fe:65:30:6c, 2015-01-01 03:34:28.580, 0.59, 0.106, 0.8, 0.366, -1.648, 0.854, 8.558, -35.777, -135.143, -19.647, -12.233, -5.200, 26.59, -0.38416, 0.25696, 0.18311, 0.86761,
 17:13:03.708,ed:40:fe:65:30:6c, 2015-01-01 03:34:28.580, 0.604, 0.119, 0.807, 0.916, -2.014, 0.732, 8.553, -35.815, -135.115, -19.647, -12.233, -5.200, 26.59, -0.38416, 0.25696, 0.18311, 0.86761,
 17:13:03.708,ed:40:fe:65:30:6c, 2015-01-01 03:34:28.580, 0.59, 0.125, 0.806, 0.305, -2.38, -0.061, 8.558, -35.854, -135.099, -19.647, -12.233, -5.200, 26.59, -0.38416, 0.25696, 0.18311, 0.86761,
 17:13:03.708,ed:40:fe:65:30:6c, 2015-01-01 03:34:28.580, 0.604, 0.119, 0.807, 0.916, -2.014, 0.732, 8.553, -35.815, -135.115, -19.647, -12.233, -5.200, 26.59, -0.38416, 0.25696, 0.18311, 0.86761,
 17:13:03.712,ed:35:33:d3:6c:f8, 2015-01-01 03:34:04.125, 0.514, 0.2, 0.841, 1.099, 2.93, 1.648, 14.046, -31.558, 136.956, -11.920, -14.453, -29.007, 29.1, 0.31555, 0.30334, 0.00519, 0.89905,
 17:13:03.712,ed:35:33:d3:6c:f8, 2015-01-01 03:34:04.125, 0.527, 0.202, 0.843, -0.244, -0.244, 1.526, 14.03, -31.536, 136.967, -11.920, -14.453, -29.007, 29.1, 0.31555, 0.30334, 0.00519, 0.89905,
 17:13:03.712,ed:35:33:d3:6c:f8, 2015-01-01 03:34:04.125, 0.514, 0.207, 0.838, 0.061, -2.869, -0.549, 14.024, -31.569, 136.961, -11.920, -14.453, -29.007, 29.1, 0.31555, 0.30334, 0.00519, 0.89905,
 17:13:03.712,ed:35:33:d3:6c:f8, 2015-01-01 03:34:04.125, 0.527, 0.202, 0.843, -0.244, -0.244, 1.526, 14.03, -31.536, 136.967, -11.920, -14.453, -29.007, 29.1, 0.31555, 0.30334, 0.00519, 0.89905,
 17:13:03.714,f6:90:cc:01:6d:25, 2015-01-01 03:34:14.985, 0.931, 0.069, 0.274, 0.671, -1.343, -0.305, 14.788, -71.559, -179.841, -28.033, -13.493, -5.873, 31.97, 0.07693, -0.58035, -0.10654, -0.80362,
 17:13:03.714,f6:90:cc:01:6d:25, 2015-01-01 03:34:14.985, 0.942, 0.09, 0.272, 0.916, -2.075, -0.793, 14.87, -71.598, -179.907, -28.033, -13.493, -5.873, 31.97, 0.07693, -0.58035, -0.10654, -0.80362,
 17:13:03.714,f6:90:cc:01:6d:25, 2015-01-01 03:34:14.985, 0.931, 0.097, 0.274, 1.221, -2.747, -0.916, 14.985, -71.647, 179.989, -28.033, -13.493, -5.873, 31.97, 0.07693, -0.58035, -0.10654, -0.80362,
 17:13:03.714,f6:90:cc:01:6d:25, 2015-01-01 03:34:14.985, 0.942, 0.09, 0.272, 0.916, -2.075, -0.793, 14.87, -71.598, -179.907, -28.033, -13.493, -5.873, 31.97, 0.07693, -0.58035, -0.10654, -0.80362,
 17:13:03.736,e3:ca:2d:fd:e0:8c, 2015-01-01 03:34:23.105, 1.01, -0.186, 0.027, -0.305, -2.93, -0.488, -72.999, -78.025, -129.15, -27.853, -7.747, -7.353, 29.7, -0.07019, -0.65488, 0.20029, -0.72525,
 17:13:03.736,e3:ca:2d:fd:e0:8c, 2015-01-01 03:34:23.105, 1.018, -0.191, 0.036, -0.61, -2.991, -0.488, -73.306, -78.058, -128.826, -27.853, -7.747, -7.353, 29.7, -0.07019, -0.65488, 0.20029, -0.72525,
 17:13:03.736,e3:ca:2d:fd:e0:8c, 2015-01-01 03:34:23.105, 1.01, -0.206, 0.042, -1.77, -2.686, -0.061, -73.619, -78.085, -128.518, -27.853, -7.747, -7.353, 29.7, -0.07019, -0.65488, 0.20029, -0.72525,
 17:13:03.736,e3:ca:2d:fd:e0:8c, 2015-01-01 03:34:23.105, 1.018, -0.191, 0.036, -0.61, -2.991, -0.488, -73.306, -78.058, -128.826, -27.853, -7.747, -7.353, 29.7, -0.07019, -0.65488, 0.20029, -0.72525,
 17:13:03.740,ed:40:fe:65:30:6c, 2015-01-01 03:34:28.580, 0.613, 0.125, 0.806, 0.305, -2.38, -0.061, 8.558, -35.854, -135.099, -19.647, -12.233, -5.200, 26.59, -0.38416, 0.25696, 0.18311, 0.86761,
 17:13:03.740,ed:40:fe:65:30:6c, 2015-01-01 03:34:28.580, 0.621, 0.129, 0.801, 0.427, -2.563, -0.916, 8.575, -35.898, -135.104, -19.647, -12.233, -5.200, 26.59, -0.38416, 0.25696, 0.18311, 0.86761,
 17:13:03.740,ed:40:fe:65:30:6c, 2015-01-01 03:34:28.580, 0.613, 0.125, 0.804, 0.61, -2.258, -1.038, 8.597, -35.947, -135.143, -19.647, -12.233, -5.200, 26.59, -0.38416, 0.25696, 0.18311, 0.86761,
 17:13:03.740,ed:40:fe:65:30:6c, 2015-01-01 03:34:28.580, 0.621, 0.129, 0.801, 0.427, -2.563, -0.916, 8.575, -35.898, -135.104, -19.647, -12.233, -5.200, 26.59, -0.38416, 0.25696, 0.18311, 0.86761,
 17:13:03.746,f6:90:cc:01:6d:25, 2015-01-01 03:34:14.985, 0.954, 0.097, 0.274, 1.221, -2.747, -0.916, 14.985, -71.647, 179.989, -28.033, -13.493, -5.873, 31.97, 0.07693, -0.58035, -0.10654, -0.80362,
 17:13:03.746,f6:90:cc:01:6d:25, 2015-01-01 03:34:14.985, 0.964, 0.095, 0.278, 0.732, -2.991, -0.61, 15.095, -71.708, 179.879, -28.033, -13.493, -5.873, 31.97, 0.07693, -0.58035, -0.10654, -0.80362,
 17:13:03.746,f6:90:cc:01:6d:25, 2015-01-01 03:34:14.985, 0.954, 0.083, 0.289, -0.427, -2.93, 0, 15.161, -71.774, 179.786, -28.033, -13.493, -5.873, 31.97, 0.07693, -0.58035, -0.10654, -0.80362,
 17:13:03.746,f6:90:cc:01:6d:25, 2015-01-01 03:34:14.985, 0.964, 0.095, 0.278, 0.732, -2.991, -0.61, 15.095, -71.708, 179.879, -28.033, -13.493, -5.873, 31.97, 0.07693, -0.58035, -0.10654, -0.80362,
 17:13:03.765,e3:ca:2d:fd:e0:8c, 2015-01-01 03:34:23.105, 1.029, -0.206, 0.042, -1.77, -2.686, -0.061, -73.619, -78.085, -128.518, -27.853, -7.747, -7.353, 29.7, -0.07019, -0.65488, 0.20029, -0.72525,
 17:13:03.765,e3:ca:2d:fd:e0:8c, 2015-01-01 03:34:23.105, 1.034, -0.207, 0.053, -2.686, -2.014, 0.488, -73.927, -78.096, -128.26, -27.853, -7.747, -7.353, 29.7, -0.07019, -0.65488, 0.20029, -0.72525,
 17:13:03.765,e3:ca:2d:fd:e0:8c, 2015-01-01 03:34:23.105, 1.029, -0.193, 0.064, -3.845, -0.61, 0.916, -74.163, -78.096, -128.09, -27.853, -7.747, -7.353, 29.7, -0.07019, -0.65488, 0.20029, -0.72525,
 17:13:03.765,e3:ca:2d:fd:e0:8c, 2015-01-01 03:34:23.105, 1.034, -0.207, 0.053, -2.686, -2.014, 0.488, -73.927, -78.096, -128.26, -27.853, -7.747, -7.353, 29.7, -0.07019, -0.65488, 0.20029, -0.72525,
 17:13:03.773,ed:35:33:d3:6c:f8, 2015-01-01 03:34:04.125, 0.541, 0.207, 0.838, 0.061, -2.869, -0.549, 14.024, -31.569, 136.961, -11.920, -14.453, -29.007, 29.1, 0.31555, 0.30334, 0.00519, 0.89905,
 17:13:03.773,ed:35:33:d3:6c:f8, 2015-01-01 03:34:04.125, 0.546, 0.222, 0.832, 0.671, -5.127, -0.977, 14.046, -31.641, 136.945, -11.920, -14.453, -29.007, 29.1, 0.31555, 0.30334, 0.00519, 0.89905,
 17:13:03.773,ed:35:33:d3:6c:f8, 2015-01-01 03:34:04.125, 0.541, 0.224, 0.831, -0.732, -6.104, -1.099, 14.079, -31.74, 136.906, -11.920, -14.453, -29.007, 29.1, 0.31555, 0.30334, 0.00519, 0.89905,
 17:13:03.773,ed:35:33:d3:6c:f8, 2015-01-01 03:34:04.125, 0.546, 0.222, 0.832, 0.671, -5.127, -0.977, 14.046, -31.641, 136.945, -11.920, -14.453, -29.007, 29.1, 0.31555, 0.30334, 0.00519, 0.89905,
 17:13:03.799,ed:40:fe:65:30:6c, 2015-01-01 03:34:28.580, 0.62, 0.125, 0.804, 0.61, -2.258, -1.038, 8.597, -35.947, -135.143, -19.647, -12.233, -5.200, 26.59, -0.38416, 0.25696, 0.18311, 0.86761,
 17:13:03.799,ed:40:fe:65:30:6c, 2015-01-01 03:34:28.580, 0.612, 0.122, 0.801, -0.61, -1.465, -1.282, 8.624, -35.986, -135.187, -19.647, -12.233, -5.200, 26.59, -0.38416, 0.25696, 0.18311, 0.86761,
 17:13:03.799,ed:40:fe:65:30:6c, 2015-01-01 03:34:28.580, 0.62, 0.125, 0.795, -0.916, -0.732, -1.953, 8.63, -36.013, -135.242, -19.647, -12.233, -5.200, 26.59, -0.38416, 0.25696, 0.18311, 0.86761,
 17:13:03.799,ed:40:fe:65:30:6c, 2015-01-01 03:34:28.580, 0.612, 0.122, 0.801, -0.61, -1.465, -1.282, 8.624, -35.986, -135.187, -19.647, -12.233, -5.200, 26.59, -0.38416, 0.25696, 0.18311, 0.86761,
 17:13:03.804,ed:35:33:d3:6c:f8, 2015-01-01 03:34:04.125, 0.548, 0.224, 0.831, -0.732, -6.104, -1.099, 14.079, -31.74, 136.906, -11.847, -14.513, -29.207, 29.1, 0.31555, 0.30334, 0.00519, 0.89905,
 17:13:03.804,ed:35:33:d3:6c:f8, 2015-01-01 03:34:04.125, 0.543, 0.202, 0.822, -1.587, -6.897, -0.916, 14.09, -31.86, 136.835, -11.847, -14.513, -29.207, 29.1, 0.31555, 0.30334, 0.00519, 0.89905,
 17:13:03.804,ed:35:33:d3:6c:f8, 2015-01-01 03:34:04.125, 0.548, 0.203, 0.807, -0.488, -6.531, -1.343, 14.101, -31.987, 136.769, -11.847, -14.513, -29.207, 29.1, 0.31555, 0.30334, 0.00519, 0.89905,
 17:13:03.804,ed:35:33:d3:6c:f8, 2015-01-01 03:34:04.125, 0.543, 0.202, 0.822, -1.587, -6.897, -0.916, 14.09, -31.86, 136.835, -11.847, -14.513, -29.207, 29.1, 0.31555, 0.30334, 0.00519, 0.89905,
 17:13:03.806,f6:90:cc:01:6d:25, 2015-01-01 03:34:14.985, 0.966, 0.083, 0.289, -0.427, -2.93, 0, 15.161, -71.774, 179.786, -28.033, -13.493, -5.873, 31.97, 0.07693, -0.58035, -0.10654, -0.80362,
 17:13:03.806,f6:90:cc:01:6d:25, 2015-01-01 03:34:14.985, 0.963, 0.094, 0.294, -1.16, -2.319, 0.061, 15.189, -71.829, 179.687, -28.033, -13.493, -5.873, 31.97, 0.07693, -0.58035, -0.10654, -0.80362,
 17:13:03.806,f6:90:cc:01:6d:25, 2015-01-01 03:34:14.985, 0.966, 0.105, 0.3, -3.113, -1.526, 0.183, 15.172, -71.873, 179.599, -28.033, -13.493, -5.873, 31.97, 0.07693, -0.58035, -0.10654, -0.80362,
 17:13:03.806,f6:90:cc:01:6d:25, 2015-01-01 03:34:14.985, 0.963, 0.094, 0.294, -1.16, -2.319, 0.061, 15.189, -71.829, 179.687, -28.033, -13.493, -5.873, 31.97, 0.07693, -0.58035, -0.10654, -0.80362,
 17:13:03.826,e3:ca:2d:fd:e0:8c, 2015-01-01 03:34:23.465, 1.032, -0.193, 0.064, -3.845, -0.61, 0.916, -74.163, -78.096, -128.09, -27.853, -7.747, -7.353, 29.7, -0.07019, -0.65488, 0.20029, -0.72525,
 17:13:03.826,e3:ca:2d:fd:e0:8c, 2015-01-01 03:34:23.465, 1.016, -0.199, 0.073, -5.31, 1.038, 2.014, -74.29, -78.069, -128.051, -27.853, -7.747, -7.353, 29.7, -0.07019, -0.65488, 0.20029, -0.72525,
 17:13:03.826,e3:ca:2d:fd:e0:8c, 2015-01-01 03:34:23.465, 1.032, -0.212, 0.083, -4.578, 2.625, 2.625, -74.29, -78.025, -128.161, -27.853, -7.747, -7.353, 29.7, -0.07019, -0.65488, 0.20029, -0.72525,
 17:13:03.826,e3:ca:2d:fd:e0:8c, 2015-01-01 03:34:23.465, 1.016, -0.199, 0.073, -5.31, 1.038, 2.014, -74.29, -78.069, -128.051, -27.853, -7.747, -7.353, 29.7, -0.07019, -0.65488, 0.20029, -0.72525,
 17:13:03.830,ed:40:fe:65:30:6c, 2015-01-01 03:34:28.580, 0.602, 0.125, 0.795, -0.916, -0.732, -1.953, 8.63, -36.013, -135.242, -19.647, -12.233, -5.200, 26.59, -0.38416, 0.25696, 0.18311, 0.86761,
 17:13:03.830,ed:40:fe:65:30:6c, 2015-01-01 03:34:28.580, 0.588, 0.12, 0.786, 0, -0.122, -2.441, 8.652, -36.024, -135.308, -19.647, -12.233, -5.200, 26.59, -0.38416, 0.25696, 0.18311, 0.86761,
 17:13:03.830,ed:40:fe:65:30:6c, 2015-01-01 03:34:28.580, 0.602, 0.106, 0.784, -0.183, 0.427, -2.502, 8.685, -36.024, -135.379, -19.647, -12.233, -5.200, 26.59, -0.38416, 0.25696, 0.18311, 0.86761,
 17:13:03.830,ed:40:fe:65:30:6c, 2015-01-01 03:34:28.580, 0.588, 0.12, 0.786, 0, -0.122, -2.441, 8.652, -36.024, -135.308, -19.647, -12.233, -5.200, 26.59, -0.38416, 0.25696, 0.18311, 0.86761,
 17:13:03.832,ed:35:33:d3:6c:f8, 2015-01-01 03:34:04.125, 0.533, 0.203, 0.807, -0.488, -6.531, -1.343, 14.101, -31.987, 136.769, -11.847, -14.513, -29.207, 29.1, 0.31555, 0.30334, 0.00519, 0.89905,
 17:13:03.832,ed:35:33:d3:6c:f8, 2015-01-01 03:34:04.125, 0.525, 0.21, 0.793, 1.16, -5.249, -2.075, 14.15, -32.091, 136.714, -11.847, -14.513, -29.207, 29.1, 0.31555, 0.30334, 0.00519, 0.89905,
 17:13:03.832,ed:35:33:d3:6c:f8, 2015-01-01 03:34:04.125, 0.533, 0.198, 0.789, 2.075, -3.662, -1.343, 14.216, -32.173, 136.653, -11.847, -14.513, -29.207, 29.1, 0.31555, 0.30334, 0.00519, 0.89905,
 17:13:03.832,ed:35:33:d3:6c:f8, 2015-01-01 03:34:04.125, 0.525, 0.21, 0.793, 1.16, -5.249, -2.075, 14.15, -32.091, 136.714, -11.847, -14.513, -29.207, 29.1, 0.31555, 0.30334, 0.00519, 0.89905,
 17:13:03.836,f6:90:cc:01:6d:25, 2015-01-01 03:34:14.985, 0.954, 0.105, 0.3, -3.113, -1.526, 0.183, 15.172, -71.873, 179.599, -28.033, -13.493, -5.873, 31.97, 0.07693, -0.58035, -0.10654, -0.80362,
 17:13:03.836,f6:90:cc:01:6d:25, 2015-01-01 03:34:14.985, 0.94, 0.087, 0.304, -4.089, -0.244, 0.732, 15.095, -71.889, 179.594, -28.033, -13.493, -5.873, 31.97, 0.07693, -0.58035, -0.10654, -0.80362,
 17:13:03.836,f6:90:cc:01:6d:25, 2015-01-01 03:34:14.985, 0.954, 0.065, 0.312, -4.333, 1.16, 0.916, 14.958, -71.878, 179.654, -28.033, -13.493, -5.873, 31.97, 0.07693, -0.58035, -0.10654, -0.80362,
 17:13:03.836,f6:90:cc:01:6d:25, 2015-01-01 03:34:14.985, 0.94, 0.087, 0.304, -4.089, -0.244, 0.732, 15.095, -71.889, 179.594, -28.033, -13.493, -5.873, 31.97, 0.07693, -0.58035, -0.10654, -0.80362,
 17:13:03.855,e3:ca:2d:fd:e0:8c, 2015-01-01 03:34:23.465, 0.998, -0.212, 0.083, -4.578, 2.625, 2.625, -74.29, -78.025, -128.161, -27.853, -7.747, -7.353, 29.7, -0.07019, -0.65488, 0.20029, -0.72525,
 17:13:03.855,e3:ca:2d:fd:e0:8c, 2015-01-01 03:34:23.465, 0.986, -0.216, 0.09, -2.686, 3.784, 2.136, -74.125, -77.964, -128.397, -27.853, -7.747, -7.353, 29.7, -0.07019, -0.65488, 0.20029, -0.72525,
 17:13:03.855,e3:ca:2d:fd:e0:8c, 2015-01-01 03:34:23.465, 0.998, -0.216, 0.092, -0.854, 4.15, 0.916, -73.823, -77.91, -128.743, -27.853, -7.747, -7.353, 29.7, -0.07019, -0.65488, 0.20029, -0.72525,
 17:13:03.855,e3:ca:2d:fd:e0:8c, 2015-01-01 03:34:23.465, 0.986, -0.216, 0.09, -2.686, 3.784, 2.136, -74.125, -77.964, -128.397, -27.853, -7.747, -7.353, 29.7, -0.07019, -0.65488, 0.20029, -0.72525,
 17:13:03.859,ed:40:fe:65:30:6c, 2015-01-01 03:34:28.580, 0.576, 0.106, 0.784, -0.183, 0.427, -2.502, 8.685, -36.024, -135.379, -19.493, -12.513, -6.193, 26.59, -0.38416, 0.25696, 0.18311, 0.86761,
 17:13:03.859,ed:40:fe:65:30:6c, 2015-01-01 03:34:28.580, 0.569, 0.104, 0.789, -1.343, 1.221, -2.075, 8.701, -36.013, -135.456, -19.493, -12.513, -6.193, 26.59, -0.38416, 0.25696, 0.18311, 0.86761,
 17:13:03.859,ed:40:fe:65:30:6c, 2015-01-01 03:34:28.580, 0.576, 0.108, 0.793, -1.77, 1.831, -1.343, 8.696, -35.986, -135.522, -19.493, -12.513, -6.193, 26.59, -0.38416, 0.25696, 0.18311, 0.86761,
 17:13:03.859,ed:40:fe:65:30:6c, 2015-01-01 03:34:28.580, 0.569, 0.104, 0.789, -1.343, 1.221, -2.075, 8.701, -36.013, -135.456, -19.493, -12.513, -6.193, 26.59, -0.38416, 0.25696, 0.18311, 0.86761,
 17:13:03.865,f6:90:cc:01:6d:25, 2015-01-01 03:34:14.985, 0.927, 0.065, 0.312, -4.333, 1.16, 0.916, 14.958, -71.878, 179.654, -27.720, -13.420, -5.540, 31.97, 0.07693, -0.58035, -0.10654, -0.80362,
 17:13:03.865,f6:90:cc:01:6d:25, 2015-01-01 03:34:14.985, 0.921, 0.054, 0.318, -3.418, 2.441, 0.549, 14.821, -71.845, 179.736, -27.720, -13.420, -5.540, 31.97, 0.07693, -0.58035, -0.10654, -0.80362,
 17:13:03.865,f6:90:cc:01:6d:25, 2015-01-01 03:34:14.985, 0.927, 0.057, 0.324, -2.38, 3.418, 0, 14.705, -71.779, 179.819, -27.720, -13.420, -5.540, 31.97, 0.07693, -0.58035, -0.10654, -0.80362,
 17:13:03.865,f6:90:cc:01:6d:25, 2015-01-01 03:34:14.985, 0.921, 0.054, 0.318, -3.418, 2.441, 0.549, 14.821, -71.845, 179.736, -27.720, -13.420, -5.540, 31.97, 0.07693, -0.58035, -0.10654, -0.80362,
 17:13:03.886,e3:ca:2d:fd:e0:8c, 2015-01-01 03:34:23.465, 0.987, -0.216, 0.092, -0.854, 4.15, 0.916, -73.823, -77.91, -128.743, -27.853, -7.747, -7.353, 29.7, -0.07019, -0.65488, 0.20029, -0.72525,
 17:13:03.886,e3:ca:2d:fd:e0:8c, 2015-01-01 03:34:23.465, 0.995, -0.207, 0.095, 0, 4.089, -0.061, -73.444, -77.882, -129.133, -27.853, -7.747, -7.353, 29.7, -0.07019, -0.65488, 0.20029, -0.72525,
 17:13:03.886,e3:ca:2d:fd:e0:8c, 2015-01-01 03:34:23.465, 0.987, -0.201, 0.095, 0.183, 3.723, -0.549, -73.048, -77.86, -129.523, -27.853, -7.747, -7.353, 29.7, -0.07019, -0.65488, 0.20029, -0.72525,
 17:13:03.886,e3:ca:2d:fd:e0:8c, 2015-01-01 03:34:23.465, 0.995, -0.207, 0.095, 0, 4.089, -0.061, -73.444, -77.882, -129.133, -27.853, -7.747, -7.353, 29.7, -0.07019, -0.65488, 0.20029, -0.72525,
 17:13:03.892,ed:35:33:d3:6c:f8, 2015-01-01 03:34:04.125, 0.516, 0.198, 0.789, 2.075, -3.662, -1.343, 14.216, -32.173, 136.653, -11.847, -14.513, -29.207, 29.1, 0.3201, 0.29886, 0.00885, 0.89893,
 17:13:03.892,ed:35:33:d3:6c:f8, 2015-01-01 03:34:04.125, 0.515, 0.199, 0.792, 2.441, -1.465, -0.244, 14.277, -32.217, 136.615, -11.847, -14.513, -29.207, 29.1, 0.3201, 0.29886, 0.00885, 0.89893,
 17:13:03.892,ed:35:33:d3:6c:f8, 2015-01-01 03:34:04.125, 0.516, 0.204, 0.795, 2.502, 1.343, 0.061, 14.326, -32.223, 136.626, -11.847, -14.513, -29.207, 29.1, 0.3201, 0.29886, 0.00885, 0.89893,
 17:13:03.892,ed:35:33:d3:6c:f8, 2015-01-01 03:34:04.125, 0.515, 0.199, 0.792, 2.441, -1.465, -0.244, 14.277, -32.217, 136.615, -11.847, -14.513, -29.207, 29.1, 0.3201, 0.29886, 0.00885, 0.89893,
 17:13:03.918,ed:40:fe:65:30:6c, 2015-01-01 03:34:28.580, 0.569, 0.108, 0.793, -1.77, 1.831, -1.343, 8.696, -35.986, -135.522, -19.493, -12.513, -6.193, 26.59, -0.38416, 0.25696, 0.18311, 0.86761,
 17:13:03.918,ed:40:fe:65:30:6c, 2015-01-01 03:34:28.580, 0.568, 0.113, 0.799, -1.282, 2.869, -0.854, 8.668, -35.947, -135.544, -19.493, -12.513, -6.193, 26.59, -0.38416, 0.25696, 0.18311, 0.86761,
 17:13:03.918,ed:40:fe:65:30:6c, 2015-01-01 03:34:28.580, 0.569, 0.117, 0.809, -0.427, 3.967, -0.732, 8.646, -35.887, -135.549, -19.493, -12.513, -6.193, 26.59, -0.38416, 0.25696, 0.18311, 0.86761,
 17:13:03.918,ed:40:fe:65:30:6c, 2015-01-01 03:34:28.580, 0.568, 0.113, 0.799, -1.282, 2.869, -0.854, 8.668, -35.947, -135.544, -19.493, -12.513, -6.193, 26.59, -0.38416, 0.25696, 0.18311, 0.86761,
 17:13:03.923,ed:35:33:d3:6c:f8, 2015-01-01 03:34:04.485, 0.516, 0.204, 0.795, 2.502, 1.343, 0.061, 14.326, -32.223, 136.626, -11.847, -14.513, -29.207, 29.1, 0.3201, 0.29886, 0.00885, 0.89893,
 17:13:03.923,ed:35:33:d3:6c:f8, 2015-01-01 03:34:04.485, 0.512, 0.205, 0.809, 2.014, 4.15, -0.122, 14.365, -32.168, 136.637, -11.847, -14.513, -29.207, 29.1, 0.3201, 0.29886, 0.00885, 0.89893,
 17:13:03.923,ed:35:33:d3:6c:f8, 2015-01-01 03:34:04.485, 0.516, 0.206, 0.826, 1.648, 5.859, -0.916, 14.392, -32.069, 136.648, -11.847, -14.513, -29.207, 29.1, 0.3201, 0.29886, 0.00885, 0.89893,
 17:13:03.923,ed:35:33:d3:6c:f8, 2015-01-01 03:34:04.485, 0.512, 0.205, 0.809, 2.014, 4.15, -0.122, 14.365, -32.168, 136.637, -11.847, -14.513, -29.207, 29.1, 0.3201, 0.29886, 0.00885, 0.89893,
 17:13:03.925,f6:90:cc:01:6d:25, 2015-01-01 03:34:14.985, 0.922, 0.057, 0.324, -2.38, 3.418, 0, 14.705, -71.779, 179.819, -27.720, -13.420, -5.540, 31.97, 0.07693, -0.58035, -0.10654, -0.80362,
 17:13:03.925,f6:90:cc:01:6d:25, 2015-01-01 03:34:14.985, 0.925, 0.066, 0.329, -1.404, 4.028, -0.61, 14.628, -71.702, 179.868, -27.720, -13.420, -5.540, 31.97, 0.07693, -0.58035, -0.10654, -0.80362,
 17:13:03.925,f6:90:cc:01:6d:25, 2015-01-01 03:34:14.985, 0.922, 0.074, 0.332, -0.793, 4.15, -1.099, 14.59, -71.609, 179.912, -27.720, -13.420, -5.540, 31.97, 0.07693, -0.58035, -0.10654, -0.80362,
 17:13:03.925,f6:90:cc:01:6d:25, 2015-01-01 03:34:14.985, 0.925, 0.066, 0.329, -1.404, 4.028, -0.61, 14.628, -71.702, 179.868, -27.720, -13.420, -5.540, 31.97, 0.07693, -0.58035, -0.10654, -0.80362,
 17:13:03.945,e3:ca:2d:fd:e0:8c, 2015-01-01 03:34:23.465, 0.996, -0.201, 0.095, 0.183, 3.723, -0.549, -73.048, -77.86, -129.523, -27.853, -7.747, -7.353, 29.7, -0.07019, -0.65488, 0.20029, -0.72525,
 17:13:03.945,e3:ca:2d:fd:e0:8c, 2015-01-01 03:34:23.465, 0.988, -0.202, 0.088, 0, 3.174, -0.854, -72.675, -77.849, -129.88, -27.853, -7.747, -7.353, 29.7, -0.07019, -0.65488, 0.20029, -0.72525,
 17:13:03.945,e3:ca:2d:fd:e0:8c, 2015-01-01 03:34:23.465, 0.996, -0.212, 0.073, 0.122, 2.197, -1.038, -72.361, -77.849, -130.155, -27.853, -7.747, -7.353, 29.7, -0.07019, -0.65488, 0.20029, -0.72525,
 17:13:03.945,e3:ca:2d:fd:e0:8c, 2015-01-01 03:34:23.465, 0.988, -0.202, 0.088, 0, 3.174, -0.854, -72.675, -77.849, -129.88, -27.853, -7.747, -7.353, 29.7, -0.07019, -0.65488, 0.20029, -0.72525,
 17:13:03.949,ed:40:fe:65:30:6c, 2015-01-01 03:34:28.580, 0.561, 0.117, 0.809, -0.427, 3.967, -0.732, 8.646, -35.887, -135.549, -19.493, -12.513, -6.193, 26.59, -0.38043, 0.25775, 0.18314, 0.86902,
 17:13:03.949,ed:40:fe:65:30:6c, 2015-01-01 03:34:28.580, 0.557, 0.121, 0.822, 0.488, 3.906, -0.732, 8.641, -35.804, -135.555, -19.493, -12.513, -6.193, 26.59, -0.38043, 0.25775, 0.18314, 0.86902,
 17:13:03.949,ed:40:fe:65:30:6c, 2015-01-01 03:34:28.580, 0.561, 0.12, 0.825, 0.916, 2.808, -0.366, 8.646, -35.728, -135.566, -19.493, -12.513, -6.193, 26.59, -0.38043, 0.25775, 0.18314, 0.86902,
 17:13:03.949,ed:40:fe:65:30:6c, 2015-01-01 03:34:28.580, 0.557, 0.121, 0.822, 0.488, 3.906, -0.732, 8.641, -35.804, -135.555, -19.493, -12.513, -6.193, 26.59, -0.38043, 0.25775, 0.18314, 0.86902,
 17:13:03.952,ed:35:33:d3:6c:f8, 2015-01-01 03:34:04.485, 0.509, 0.206, 0.826, 1.648, 5.859, -0.916, 14.392, -32.069, 136.648, -11.847, -14.513, -29.207, 29.1, 0.3201, 0.29886, 0.00885, 0.89893,
 17:13:03.952,ed:35:33:d3:6c:f8, 2015-01-01 03:34:04.485, 0.501, 0.214, 0.838, 1.892, 7.385, -1.16, 14.414, -31.937, 136.67, -11.847, -14.513, -29.207, 29.1, 0.3201, 0.29886, 0.00885, 0.89893,
 17:13:03.952,ed:35:33:d3:6c:f8, 2015-01-01 03:34:04.485, 0.509, 0.211, 0.841, 2.014, 8.057, -1.587, 14.442, -31.778, 136.692, -11.847, -14.513, -29.207, 29.1, 0.3201, 0.29886, 0.00885, 0.89893,
 17:13:03.952,ed:35:33:d3:6c:f8, 2015-01-01 03:34:04.485, 0.501, 0.214, 0.838, 1.892, 7.385, -1.16, 14.414, -31.937, 136.67, -11.847, -14.513, -29.207, 29.1, 0.3201, 0.29886, 0.00885, 0.89893,
 17:13:03.954,f6:90:cc:01:6d:25, 2015-01-01 03:34:14.985, 0.925, 0.074, 0.332, -0.793, 4.15, -1.099, 14.59, -71.609, 179.912, -27.720, -13.420, -5.540, 31.97, 0.07367, -0.58115, -0.1026, -0.80386,
 17:13:03.954,f6:90:cc:01:6d:25, 2015-01-01 03:34:14.985, 0.92, 0.074, 0.326, -0.61, 3.601, -1.282, 14.573, -71.526, 179.951, -27.720, -13.420, -5.540, 31.97, 0.07367, -0.58115, -0.1026, -0.80386,
 17:13:03.954,f6:90:cc:01:6d:25, 2015-01-01 03:34:14.985, 0.925, 0.061, 0.313, 0.061, 2.38, -1.038, 14.573, -71.461, 179.995, -27.720, -13.420, -5.540, 31.97, 0.07367, -0.58115, -0.1026, -0.80386,
 17:13:03.954,f6:90:cc:01:6d:25, 2015-01-01 03:34:14.985, 0.92, 0.074, 0.326, -0.61, 3.601, -1.282, 14.573, -71.526, 179.951, -27.720, -13.420, -5.540, 31.97, 0.07367, -0.58115, -0.1026, -0.80386,
 17:13:03.975,e3:ca:2d:fd:e0:8c, 2015-01-01 03:34:23.465, 0.977, -0.212, 0.073, 0.122, 2.197, -1.038, -72.361, -77.849, -130.155, -27.853, -7.747, -7.353, 29.7, -0.07019, -0.65488, 0.20029, -0.72525,
 17:13:03.975,e3:ca:2d:fd:e0:8c, 2015-01-01 03:34:23.465, 0.972, -0.224, 0.063, 1.892, 0.916, -1.404, -72.136, -77.86, -130.32, -27.853, -7.747, -7.353, 29.7, -0.07019, -0.65488, 0.20029, -0.72525,
 17:13:03.975,e3:ca:2d:fd:e0:8c, 2015-01-01 03:34:23.465, 0.977, -0.224, 0.052, 3.662, -0.61, -1.648, -71.999, -77.882, -130.342, -27.853, -7.747, -7.353, 29.7, -0.07019, -0.65488, 0.20029, -0.72525,
 17:13:03.975,e3:ca:2d:fd:e0:8c, 2015-01-01 03:34:23.465, 0.972, -0.224, 0.063, 1.892, 0.916, -1.404, -72.136, -77.86, -130.32, -27.853, -7.747, -7.353, 29.7, -0.07019, -0.65488, 0.20029, -0.72525,
 17:13:03.979,ed:40:fe:65:30:6c, 2015-01-01 03:34:28.580, 0.556, 0.12, 0.825, 0.916, 2.808, -0.366, 8.646, -35.728, -135.566, -19.493, -12.513, -6.193, 26.59, -0.38043, 0.25775, 0.18314, 0.86902,
 17:13:03.979,ed:40:fe:65:30:6c, 2015-01-01 03:34:28.580, 0.564, 0.119, 0.819, 0.671, 1.648, 0.122, 8.657, -35.673, -135.555, -19.493, -12.513, -6.193, 26.59, -0.38043, 0.25775, 0.18314, 0.86902,
 17:13:03.979,ed:40:fe:65:30:6c, 2015-01-01 03:34:28.580, 0.556, 0.118, 0.805, 0.549, 0.549, 1.099, 8.657, -35.64, -135.527, -19.493, -12.513, -6.193, 26.59, -0.38043, 0.25775, 0.18314, 0.86902,
 17:13:03.979,ed:40:fe:65:30:6c, 2015-01-01 03:34:28.580, 0.564, 0.119, 0.819, 0.671, 1.648, 0.122, 8.657, -35.673, -135.555, -19.493, -12.513, -6.193, 26.59, -0.38043, 0.25775, 0.18314, 0.86902,
 17:13:03.986,f6:90:cc:01:6d:25, 2015-01-01 03:34:14.985, 0.917, 0.061, 0.313, 0.061, 2.38, -1.038, 14.573, -71.461, 179.995, -27.720, -13.420, -5.540, 31.97, 0.07367, -0.58115, -0.1026, -0.80386,
 17:13:03.986,f6:90:cc:01:6d:25, 2015-01-01 03:34:14.985, 0.915, 0.05, 0.305, 1.892, 1.221, -0.488, 14.59, -71.428, -179.962, -27.720, -13.420, -5.540, 31.97, 0.07367, -0.58115, -0.1026, -0.80386,
 17:13:03.986,f6:90:cc:01:6d:25, 2015-01-01 03:34:14.985, 0.917, 0.053, 0.295, 3.784, 0.061, -0.122, 14.639, -71.422, -179.918, -27.720, -13.420, -5.540, 31.97, 0.07367, -0.58115, -0.1026, -0.80386,
 17:13:03.986,f6:90:cc:01:6d:25, 2015-01-01 03:34:14.985, 0.915, 0.05, 0.305, 1.892, 1.221, -0.488, 14.59, -71.428, -179.962, -27.720, -13.420, -5.540, 31.97, 0.07367, -0.58115, -0.1026, -0.80386,
 17:13:04.005,e3:ca:2d:fd:e0:8c, 2015-01-01 03:34:23.465, 0.973, -0.224, 0.052, 3.662, -0.61, -1.648, -71.999, -77.882, -130.342, -28.313, -7.487, -6.187, 29.7, -0.07019, -0.65488, 0.20029, -0.72525,
 17:13:04.005,e3:ca:2d:fd:e0:8c, 2015-01-01 03:34:23.465, 0.979, -0.217, 0.043, 4.272, -2.197, -1.587, -71.993, -77.91, -130.21, -28.313, -7.487, -6.187, 29.7, -0.07019, -0.65488, 0.20029, -0.72525,
 17:13:04.005,e3:ca:2d:fd:e0:8c, 2015-01-01 03:34:23.465, 0.973, -0.205, 0.039, 3.723, -3.601, -1.343, -72.142, -77.948, -129.935, -28.313, -7.487, -6.187, 29.7, -0.07019, -0.65488, 0.20029, -0.72525,
 17:13:04.005,e3:ca:2d:fd:e0:8c, 2015-01-01 03:34:23.465, 0.979, -0.217, 0.043, 4.272, -2.197, -1.587, -71.993, -77.91, -130.21, -28.313, -7.487, -6.187, 29.7, -0.07019, -0.65488, 0.20029, -0.72525,
 17:13:04.013,ed:35:33:d3:6c:f8, 2015-01-01 03:34:04.485, 0.497, 0.211, 0.841, 2.014, 8.057, -1.587, 14.442, -31.778, 136.692, -11.847, -14.513, -29.207, 29.1, 0.3201, 0.29886, 0.00885, 0.89893,
 17:13:04.013,ed:35:33:d3:6c:f8, 2015-01-01 03:34:04.485, 0.498, 0.214, 0.833, 3.174, 7.751, -1.465, 14.485, -31.613, 136.719, -11.847, -14.513, -29.207, 29.1, 0.3201, 0.29886, 0.00885, 0.89893,
 17:13:04.013,ed:35:33:d3:6c:f8, 2015-01-01 03:34:04.485, 0.497, 0.227, 0.83, 3.418, 6.897, -0.122, 14.535, -31.465, 136.763, -11.847, -14.513, -29.207, 29.1, 0.3201, 0.29886, 0.00885, 0.89893,
 17:13:04.013,ed:35:33:d3:6c:f8, 2015-01-01 03:34:04.485, 0.498, 0.214, 0.833, 3.174, 7.751, -1.465, 14.485, -31.613, 136.719, -11.847, -14.513, -29.207, 29.1, 0.3201, 0.29886, 0.00885, 0.89893,
 17:13:04.039,ed:40:fe:65:30:6c, 2015-01-01 03:34:28.940, 0.573, 0.118, 0.805, 0.549, 0.549, 1.099, 8.657, -35.64, -135.527, -19.493, -12.513, -6.193, 26.59, -0.38043, 0.25775, 0.18314, 0.86902,
 17:13:04.039,ed:40:fe:65:30:6c, 2015-01-01 03:34:28.940, 0.582, 0.115, 0.802, 1.526, 0, 2.014, 8.646, -35.629, -135.472, -19.493, -12.513, -6.193, 26.59, -0.38043, 0.25775, 0.18314, 0.86902,
 17:13:04.039,ed:40:fe:65:30:6c, 2015-01-01 03:34:28.940, 0.573, 0.114, 0.805, 1.343, -0.244, 2.38, 8.641, -35.629, -135.406, -19.493, -12.513, -6.193, 26.59, -0.38043, 0.25775, 0.18314, 0.86902,
 17:13:04.039,ed:40:fe:65:30:6c, 2015-01-01 03:34:28.940, 0.582, 0.115, 0.802, 1.526, 0, 2.014, 8.646, -35.629, -135.472, -19.493, -12.513, -6.193, 26.59, -0.38043, 0.25775, 0.18314, 0.86902,
 17:13:04.043,ed:35:33:d3:6c:f8, 2015-01-01 03:34:04.485, 0.504, 0.227, 0.83, 3.418, 6.897, -0.122, 14.535, -31.465, 136.763, -11.847, -14.513, -29.207, 29.1, 0.3201, 0.29886, 0.00885, 0.89893,
 17:13:04.043,ed:35:33:d3:6c:f8, 2015-01-01 03:34:04.485, 0.51, 0.215, 0.835, 1.892, 4.944, 0.671, 14.568, -31.344, 136.818, -11.847, -14.513, -29.207, 29.1, 0.3201, 0.29886, 0.00885, 0.89893,
 17:13:04.043,ed:35:33:d3:6c:f8, 2015-01-01 03:34:04.485, 0.504, 0.213, 0.841, 0.305, 2.258, 1.709, 14.562, -31.278, 136.895, -11.847, -14.513, -29.207, 29.1, 0.3201, 0.29886, 0.00885, 0.89893,
 17:13:04.043,ed:35:33:d3:6c:f8, 2015-01-01 03:34:04.485, 0.51, 0.215, 0.835, 1.892, 4.944, 0.671, 14.568, -31.344, 136.818, -11.847, -14.513, -29.207, 29.1, 0.3201, 0.29886, 0.00885, 0.89893,
 17:13:04.045,f6:90:cc:01:6d:25, 2015-01-01 03:34:15.345, 0.918, 0.053, 0.295, 3.784, 0.061, -0.122, 14.639, -71.422, -179.918, -27.720, -13.420, -5.540, 31.97, 0.07367, -0.58115, -0.1026, -0.80386,
 17:13:04.045,f6:90:cc:01:6d:25, 2015-01-01 03:34:15.345, 0.923, 0.064, 0.288, 4.517, -1.099, 0, 14.716, -71.439, -179.907, -27.720, -13.420, -5.540, 31.97, 0.07367, -0.58115, -0.1026, -0.80386,
 17:13:04.045,f6:90:cc:01:6d:25, 2015-01-01 03:34:15.345, 0.918, 0.079, 0.28, 4.089, -2.197, 0, 14.799, -71.483, -179.934, -27.720, -13.420, -5.540, 31.97, 0.07367, -0.58115, -0.1026, -0.80386,
 17:13:04.045,f6:90:cc:01:6d:25, 2015-01-01 03:34:15.345, 0.923, 0.064, 0.288, 4.517, -1.099, 0, 14.716, -71.439, -179.907, -27.720, -13.420, -5.540, 31.97, 0.07367, -0.58115, -0.1026, -0.80386,
 17:13:04.065,e3:ca:2d:fd:e0:8c, 2015-01-01 03:34:23.465, 0.989, -0.205, 0.039, 3.723, -3.601, -1.343, -72.142, -77.948, -129.935, -28.313, -7.487, -6.187, 29.7, -0.07019, -0.65488, 0.20029, -0.72525,
 17:13:04.065,e3:ca:2d:fd:e0:8c, 2015-01-01 03:34:23.465, 1.002, -0.191, 0.032, 2.625, -4.456, -1.099, -72.427, -77.992, -129.567, -28.313, -7.487, -6.187, 29.7, -0.07019, -0.65488, 0.20029, -0.72525,
 17:13:04.065,e3:ca:2d:fd:e0:8c, 2015-01-01 03:34:23.465, 0.989, -0.188, 0.026, 1.404, -4.822, -0.732, -72.806, -78.036, -129.128, -28.313, -7.487, -6.187, 29.7, -0.07019, -0.65488, 0.20029, -0.72525,
 17:13:04.065,e3:ca:2d:fd:e0:8c, 2015-01-01 03:34:23.465, 1.002, -0.191, 0.032, 2.625, -4.456, -1.099, -72.427, -77.992, -129.567, -28.313, -7.487, -6.187, 29.7, -0.07019, -0.65488, 0.20029, -0.72525,
 17:13:04.069,ed:40:fe:65:30:6c, 2015-01-01 03:34:28.940, 0.594, 0.114, 0.805, 1.343, -0.244, 2.38, 8.641, -35.629, -135.406, -19.493, -12.513, -6.193, 26.59, -0.38043, 0.25775, 0.18314, 0.86902,
 17:13:04.069,ed:40:fe:65:30:6c, 2015-01-01 03:34:28.940, 0.606, 0.122, 0.808, 1.282, -0.916, 2.258, 8.63, -35.634, -135.341, -19.493, -12.513, -6.193, 26.59, -0.38043, 0.25775, 0.18314, 0.86902,
 17:13:04.069,ed:40:fe:65:30:6c, 2015-01-01 03:34:28.940, 0.594, 0.127, 0.808, 1.77, -1.648, 1.709, 8.63, -35.662, -135.297, -19.493, -12.513, -6.193, 26.59, -0.38043, 0.25775, 0.18314, 0.86902,
 17:13:04.069,ed:40:fe:65:30:6c, 2015-01-01 03:34:28.940, 0.606, 0.122, 0.808, 1.282, -0.916, 2.258, 8.63, -35.634, -135.341, -19.493, -12.513, -6.193, 26.59, -0.38043, 0.25775, 0.18314, 0.86902,
 17:13:04.073,ed:35:33:d3:6c:f8, 2015-01-01 03:34:04.485, 0.521, 0.213, 0.841, 0.305, 2.258, 1.709, 14.562, -31.278, 136.895, -11.847, -14.513, -29.207, 29.1, 0.3201, 0.29886, 0.00885, 0.89893,
 17:13:04.073,ed:35:33:d3:6c:f8, 2015-01-01 03:34:04.485, 0.529, 0.217, 0.844, -1.099, -0.61, 2.014, 14.529, -31.262, 136.983, -11.847, -14.513, -29.207, 29.1, 0.3201, 0.29886, 0.00885, 0.89893,
 17:13:04.073,ed:35:33:d3:6c:f8, 2015-01-01 03:34:04.485, 0.521, 0.221, 0.845, -1.892, -3.662, 1.526, 14.48, -31.306, 137.076, -11.847, -14.513, -29.207, 29.1, 0.3201, 0.29886, 0.00885, 0.89893,
 17:13:04.073,ed:35:33:d3:6c:f8, 2015-01-01 03:34:04.485, 0.529, 0.217, 0.844, -1.099, -0.61, 2.014, 14.529, -31.262, 136.983, -11.847, -14.513, -29.207, 29.1, 0.3201, 0.29886, 0.00885, 0.89893,
 17:13:04.076,f6:90:cc:01:6d:25, 2015-01-01 03:34:15.345, 0.933, 0.079, 0.28, 4.089, -2.197, 0, 14.799, -71.483, -179.934, -27.720, -13.420, -5.540, 31.97, 0.07367, -0.58115, -0.1026, -0.80386,
 17:13:04.076,f6:90:cc:01:6d:25, 2015-01-01 03:34:15.345, 0.946, 0.093, 0.272, 3.235, -3.174, -0.183, 14.908, -71.543, 179.989, -27.720, -13.420, -5.540, 31.97, 0.07367, -0.58115, -0.1026, -0.80386,
 17:13:04.076,f6:90:cc:01:6d:25, 2015-01-01 03:34:15.345, 0.933, 0.098, 0.272, 2.502, -3.845, -0.122, 15.018, -71.62, 179.918, -27.720, -13.420, -5.540, 31.97, 0.07367, -0.58115, -0.1026, -0.80386,
 17:13:04.076,f6:90:cc:01:6d:25, 2015-01-01 03:34:15.345, 0.946, 0.093, 0.272, 3.235, -3.174, -0.183, 14.908, -71.543, 179.989, -27.720, -13.420, -5.540, 31.97, 0.07367, -0.58115, -0.1026, -0.80386,
 17:13:04.095,e3:ca:2d:fd:e0:8c, 2015-01-01 03:34:23.465, 1.015, -0.188, 0.026, 1.404, -4.822, -0.732, -72.806, -78.036, -129.128, -28.313, -7.487, -6.187, 29.7, -0.06946, -0.65457, 0.19934, -0.72586,
 17:13:04.095,e3:ca:2d:fd:e0:8c, 2015-01-01 03:34:23.465, 1.023, -0.196, 0.034, 0.916, -4.639, -0.366, -73.235, -78.069, -128.661, -28.313, -7.487, -6.187, 29.7, -0.06946, -0.65457, 0.19934, -0.72586,
 17:13:04.095,e3:ca:2d:fd:e0:8c, 2015-01-01 03:34:23.465, 1.015, -0.209, 0.031, 0.122, -4.333, 0.122, -73.674, -78.102, -128.216, -28.313, -7.487, -6.187, 29.7, -0.06946, -0.65457, 0.19934, -0.72586,
 17:13:04.095,e3:ca:2d:fd:e0:8c, 2015-01-01 03:34:23.465, 1.023, -0.196, 0.034, 0.916, -4.639, -0.366, -73.235, -78.069, -128.661, -28.313, -7.487, -6.187, 29.7, -0.06946, -0.65457, 0.19934, -0.72586,
 17:13:04.099,ed:40:fe:65:30:6c, 2015-01-01 03:34:28.940, 0.616, 0.127, 0.808, 1.77, -1.648, 1.709, 8.63, -35.662, -135.297, -19.493, -12.513, -6.193, 26.59, -0.38043, 0.25775, 0.18314, 0.86902,
 17:13:04.099,ed:40:fe:65:30:6c, 2015-01-01 03:34:28.940, 0.622, 0.126, 0.81, 1.709, -2.014, 0.977, 8.641, -35.695, -135.269, -19.493, -12.513, -6.193, 26.59, -0.38043, 0.25775, 0.18314, 0.86902,
 17:13:04.099,ed:40:fe:65:30:6c, 2015-01-01 03:34:28.940, 0.616, 0.12, 0.805, 0.977, -2.075, 0.854, 8.663, -35.739, -135.253, -19.493, -12.513, -6.193, 26.59, -0.38043, 0.25775, 0.18314, 0.86902,
 17:13:04.099,ed:40:fe:65:30:6c, 2015-01-01 03:34:28.940, 0.622, 0.126, 0.81, 1.709, -2.014, 0.977, 8.641, -35.695, -135.269, -19.493, -12.513, -6.193, 26.59, -0.38043, 0.25775, 0.18314, 0.86902,
 17:13:04.105,f6:90:cc:01:6d:25, 2015-01-01 03:34:15.345, 0.96, 0.098, 0.272, 2.502, -3.845, -0.122, 15.018, -71.62, 179.918, -27.720, -13.420, -5.540, 31.97, 0.07367, -0.58115, -0.1026, -0.80386,
 17:13:04.105,f6:90:cc:01:6d:25, 2015-01-01 03:34:15.345, 0.967, 0.09, 0.276, 1.831, -3.967, 0.244, 15.101, -71.708, 179.868, -27.720, -13.420, -5.540, 31.97, 0.07367, -0.58115, -0.1026, -0.80386,
 17:13:04.105,f6:90:cc:01:6d:25, 2015-01-01 03:34:15.345, 0.96, 0.081, 0.276, 1.16, -4.15, 0.732, 15.15, -71.796, 179.835, -27.720, -13.420, -5.540, 31.97, 0.07367, -0.58115, -0.1026, -0.80386,
 17:13:04.105,f6:90:cc:01:6d:25, 2015-01-01 03:34:15.345, 0.967, 0.09, 0.276, 1.831, -3.967, 0.244, 15.101, -71.708, 179.868, -27.720, -13.420, -5.540, 31.97, 0.07367, -0.58115, -0.1026, -0.80386,
 17:13:04.126,e3:ca:2d:fd:e0:8c, 2015-01-01 03:34:23.465, 1.027, -0.209, 0.031, 0.122, -4.333, 0.122, -73.674, -78.102, -128.216, -28.313, -7.487, -6.187, 29.7, -0.06946, -0.65457, 0.19934, -0.72586,
 17:13:04.126,e3:ca:2d:fd:e0:8c, 2015-01-01 03:34:23.465, 1.035, -0.212, 0.047, -1.343, -3.479, 0.61, -74.097, -78.118, -127.815, -28.313, -7.487, -6.187, 29.7, -0.06946, -0.65457, 0.19934, -0.72586,
 17:13:04.126,e3:ca:2d:fd:e0:8c, 2015-01-01 03:34:23.465, 1.027, -0.202, 0.062, -1.343, -2.136, 0.793, -74.438, -78.118, -127.502, -28.313, -7.487, -6.187, 29.7, -0.06946, -0.65457, 0.19934, -0.72586,
 17:13:04.126,e3:ca:2d:fd:e0:8c, 2015-01-01 03:34:23.465, 1.035, -0.212, 0.047, -1.343, -3.479, 0.61, -74.097, -78.118, -127.815, -28.313, -7.487, -6.187, 29.7, -0.06946, -0.65457, 0.19934, -0.72586,
 17:13:04.134,ed:35:33:d3:6c:f8, 2015-01-01 03:34:04.485, 0.536, 0.221, 0.845, -1.892, -3.662, 1.526, 14.48, -31.306, 137.076, -11.847, -14.513, -29.207, 29.1, 0.3201, 0.29886, 0.00885, 0.89893,
 17:13:04.134,ed:35:33:d3:6c:f8, 2015-01-01 03:34:04.485, 0.546, 0.222, 0.843, -2.563, -6.47, 0.916, 14.436, -31.404, 137.12, -11.847, -14.513, -29.207, 29.1, 0.3201, 0.29886, 0.00885, 0.89893,
 17:13:04.134,ed:35:33:d3:6c:f8, 2015-01-01 03:34:04.485, 0.536, 0.217, 0.831, -2.991, -8.667, 1.404, 14.392, -31.553, 137.115, -11.847, -14.513, -29.207, 29.1, 0.3201, 0.29886, 0.00885, 0.89893,
 17:13:04.134,ed:35:33:d3:6c:f8, 2015-01-01 03:34:04.485, 0.546, 0.222, 0.843, -2.563, -6.47, 0.916, 14.436, -31.404, 137.12, -11.847, -14.513, -29.207, 29.1, 0.3201, 0.29886, 0.00885, 0.89893,
 17:13:04.159,ed:40:fe:65:30:6c, 2015-01-01 03:34:28.940, 0.619, 0.12, 0.805, 0.977, -2.075, 0.854, 8.663, -35.739, -135.253, -19.493, -12.513, -6.193, 26.59, -0.38043, 0.25775, 0.18314, 0.86902,
 17:13:04.159,ed:40:fe:65:30:6c, 2015-01-01 03:34:28.940, 0.618, 0.117, 0.802, 0.061, -1.648, 0.916, 8.668, -35.782, -135.242, -19.493, -12.513, -6.193, 26.59, -0.38043, 0.25775, 0.18314, 0.86902,
 17:13:04.159,ed:40:fe:65:30:6c, 2015-01-01 03:34:28.940, 0.619, 0.124, 0.793, -0.183, -0.305, 0.488, 8.652, -35.81, -135.225, -19.493, -12.513, -6.193, 26.59, -0.38043, 0.25775, 0.18314, 0.86902,
 17:13:04.159,ed:40:fe:65:30:6c, 2015-01-01 03:34:28.940, 0.618, 0.117, 0.802, 0.061, -1.648, 0.916, 8.668, -35.782, -135.242, -19.493, -12.513, -6.193, 26.59, -0.38043, 0.25775, 0.18314, 0.86902,
 17:13:04.163,ed:35:33:d3:6c:f8, 2015-01-01 03:34:04.485, 0.547, 0.217, 0.831, -2.991, -8.667, 1.404, 14.392, -31.553, 137.115, -12.027, -14.827, -28.620, 29.1, 0.3201, 0.29886, 0.00885, 0.89893,
 17:13:04.163,ed:35:33:d3:6c:f8, 2015-01-01 03:34:04.485, 0.544, 0.212, 0.818, -4.028, -9.705, 1.892, 14.332, -31.734, 137.087, -12.027, -14.827, -28.620, 29.1, 0.3201, 0.29886, 0.00885, 0.89893,
 17:13:04.163,ed:35:33:d3:6c:f8, 2015-01-01 03:34:04.485, 0.547, 0.206, 0.805, -4.211, -9.827, 1.16, 14.266, -31.926, 137.038, -12.027, -14.827, -28.620, 29.1, 0.3201, 0.29886, 0.00885, 0.89893,
 17:13:04.163,ed:35:33:d3:6c:f8, 2015-01-01 03:34:04.485, 0.544, 0.212, 0.818, -4.028, -9.705, 1.892, 14.332, -31.734, 137.087, -12.027, -14.827, -28.620, 29.1, 0.3201, 0.29886, 0.00885, 0.89893,
 17:13:04.165,f6:90:cc:01:6d:25, 2015-01-01 03:34:15.345, 0.968, 0.081, 0.276, 1.16, -4.15, 0.732, 15.15, -71.796, 179.835, -27.720, -13.420, -5.540, 31.97, 0.07367, -0.58115, -0.1026, -0.80386,
 17:13:04.165,f6:90:cc:01:6d:25, 2015-01-01 03:34:15.345, 0.969, 0.083, 0.29, 0.732, -3.479, 0.854, 15.178, -71.878, 179.813, -27.720, -13.420, -5.540, 31.97, 0.07367, -0.58115, -0.1026, -0.80386,
 17:13:04.165,f6:90:cc:01:6d:25, 2015-01-01 03:34:15.345, 0.968, 0.097, 0.295, 0.061, -2.38, 0.732, 15.183, -71.933, 179.802, -27.720, -13.420, -5.540, 31.97, 0.07367, -0.58115, -0.1026, -0.80386,
 17:13:04.165,f6:90:cc:01:6d:25, 2015-01-01 03:34:15.345, 0.969, 0.083, 0.29, 0.732, -3.479, 0.854, 15.178, -71.878, 179.813, -27.720, -13.420, -5.540, 31.97, 0.07367, -0.58115, -0.1026, -0.80386,
 17:13:04.184,e3:ca:2d:fd:e0:8c, 2015-01-01 03:34:23.820, 1.036, -0.202, 0.062, -1.343, -2.136, 0.793, -74.438, -78.118, -127.502, -28.313, -7.487, -6.187, 29.7, -0.06946, -0.65457, 0.19934, -0.72586,
 17:13:04.184,e3:ca:2d:fd:e0:8c, 2015-01-01 03:34:23.820, 1.02, -0.195, 0.072, -1.892, -0.366, 1.465, -74.636, -78.107, -127.332, -28.313, -7.487, -6.187, 29.7, -0.06946, -0.65457, 0.19934, -0.72586,
 17:13:04.184,e3:ca:2d:fd:e0:8c, 2015-01-01 03:34:23.820, 1.036, -0.203, 0.08, -0.854, 1.282, 1.892, -74.669, -78.074, -127.332, -28.313, -7.487, -6.187, 29.7, -0.06946, -0.65457, 0.19934, -0.72586,
 17:13:04.184,e3:ca:2d:fd:e0:8c, 2015-01-01 03:34:23.820, 1.02, -0.195, 0.072, -1.892, -0.366, 1.465, -74.636, -78.107, -127.332, -28.313, -7.487, -6.187, 29.7, -0.06946, -0.65457, 0.19934, -0.72586,
 17:13:04.188,ed:40:fe:65:30:6c, 2015-01-01 03:34:28.940, 0.604, 0.124, 0.793, -0.183, -0.305, 0.488, 8.652, -35.81, -135.225, -19.493, -12.513, -6.193, 26.59, -0.38043, 0.25775, 0.18314, 0.86902,
 17:13:04.188,ed:40:fe:65:30:6c, 2015-01-01 03:34:28.940, 0.588, 0.122, 0.785, 0.977, 0.793, 0.122, 8.657, -35.815, -135.209, -19.493, -12.513, -6.193, 26.59, -0.38043, 0.25775, 0.18314, 0.86902,
 17:13:04.188,ed:40:fe:65:30:6c, 2015-01-01 03:34:28.940, 0.604, 0.109, 0.787, 1.282, 1.282, 0, 8.674, -35.804, -135.203, -19.493, -12.513, -6.193, 26.59, -0.38043, 0.25775, 0.18314, 0.86902,
 17:13:04.188,ed:40:fe:65:30:6c, 2015-01-01 03:34:28.940, 0.588, 0.122, 0.785, 0.977, 0.793, 0.122, 8.657, -35.815, -135.209, -19.493, -12.513, -6.193, 26.59, -0.38043, 0.25775, 0.18314, 0.86902,
 17:13:04.195,f6:90:cc:01:6d:25, 2015-01-01 03:34:15.345, 0.958, 0.097, 0.295, 0.061, -2.38, 0.732, 15.183, -71.933, 179.802, -27.720, -13.420, -5.540, 31.97, 0.07367, -0.58115, -0.1026, -0.80386,
 17:13:04.195,f6:90:cc:01:6d:25, 2015-01-01 03:34:15.345, 0.943, 0.095, 0.301, -0.427, -0.854, 0.854, 15.15, -71.96, 179.824, -27.720, -13.420, -5.540, 31.97, 0.07367, -0.58115, -0.1026, -0.80386,
 17:13:04.195,f6:90:cc:01:6d:25, 2015-01-01 03:34:15.345, 0.958, 0.078, 0.308, 0.122, 0.671, 0.977, 15.095, -71.955, 179.901, -27.720, -13.420, -5.540, 31.97, 0.07367, -0.58115, -0.1026, -0.80386,
 17:13:04.195,f6:90:cc:01:6d:25, 2015-01-01 03:34:15.345, 0.943, 0.095, 0.301, -0.427, -0.854, 0.854, 15.15, -71.96, 179.824, -27.720, -13.420, -5.540, 31.97, 0.07367, -0.58115, -0.1026, -0.80386,
 17:13:04.215,e3:ca:2d:fd:e0:8c, 2015-01-01 03:34:23.820, 1.003, -0.203, 0.08, -0.854, 1.282, 1.892, -74.669, -78.074, -127.332, -28.313, -7.487, -6.187, 29.7, -0.06946, -0.65457, 0.19934, -0.72586,
 17:13:04.215,e3:ca:2d:fd:e0:8c, 2015-01-01 03:34:23.820, 0.993, -0.206, 0.086, 0.732, 2.441, 1.648, -74.537, -78.03, -127.458, -28.313, -7.487, -6.187, 29.7, -0.06946, -0.65457, 0.19934, -0.72586,
 17:13:04.215,e3:ca:2d:fd:e0:8c, 2015-01-01 03:34:23.820, 1.003, -0.198, 0.09, 1.648, 3.052, 0.793, -74.273, -77.992, -127.7, -28.313, -7.487, -6.187, 29.7, -0.06946, -0.65457, 0.19934, -0.72586,
 17:13:04.215,e3:ca:2d:fd:e0:8c, 2015-01-01 03:34:23.820, 0.993, -0.206, 0.086, 0.732, 2.441, 1.648, -74.537, -78.03, -127.458, -28.313, -7.487, -6.187, 29.7, -0.06946, -0.65457, 0.19934, -0.72586,
 17:13:04.224,ed:35:33:d3:6c:f8, 2015-01-01 03:34:04.485, 0.538, 0.206, 0.805, -4.211, -9.827, 1.16, 14.266, -31.926, 137.038, -12.027, -14.827, -28.620, 29.1, 0.3201, 0.29886, 0.00885, 0.89893,
 17:13:04.224,ed:35:33:d3:6c:f8, 2015-01-01 03:34:04.485, 0.527, 0.208, 0.792, -2.502, -9.033, 0.366, 14.222, -32.113, 136.972, -12.027, -14.827, -28.620, 29.1, 0.3201, 0.29886, 0.00885, 0.89893,
 17:13:04.224,ed:35:33:d3:6c:f8, 2015-01-01 03:34:04.485, 0.538, 0.197, 0.785, -1.099, -7.08, 0.061, 14.211, -32.272, 136.928, -12.027, -14.827, -28.620, 29.1, 0.3201, 0.29886, 0.00885, 0.89893,
 17:13:04.224,ed:35:33:d3:6c:f8, 2015-01-01 03:34:04.485, 0.527, 0.208, 0.792, -2.502, -9.033, 0.366, 14.222, -32.113, 136.972, -12.027, -14.827, -28.620, 29.1, 0.3201, 0.29886, 0.00885, 0.89893,
 17:13:04.225,f6:90:cc:01:6d:25, 2015-01-01 03:34:15.345, 0.931, 0.078, 0.308, 0.122, 0.671, 0.977, 15.095, -71.955, 179.901, -28.153, -13.340, -5.500, 31.97, 0.07367, -0.58115, -0.1026, -0.80386,
 17:13:04.225,f6:90:cc:01:6d:25, 2015-01-01 03:34:15.345, 0.921, 0.07, 0.315, 0.793, 1.892, 0.671, 15.046, -71.922, -179.989, -28.153, -13.340, -5.500, 31.97, 0.07367, -0.58115, -0.1026, -0.80386,
 17:13:04.225,f6:90:cc:01:6d:25, 2015-01-01 03:34:15.345, 0.931, 0.076, 0.322, 0.854, 2.869, -0.061, 15.024, -71.867, -179.885, -28.153, -13.340, -5.500, 31.97, 0.07367, -0.58115, -0.1026, -0.80386,
 17:13:04.225,f6:90:cc:01:6d:25, 2015-01-01 03:34:15.345, 0.921, 0.07, 0.315, 0.793, 1.892, 0.671, 15.046, -71.922, -179.989, -28.153, -13.340, -5.500, 31.97, 0.07367, -0.58115, -0.1026, -0.80386,
 17:13:04.245,e3:ca:2d:fd:e0:8c, 2015-01-01 03:34:23.820, 0.992, -0.198, 0.09, 1.648, 3.052, 0.793, -74.273, -77.992, -127.7, -28.313, -7.487, -6.187, 29.7, -0.06946, -0.65457, 0.19934, -0.72586,
 17:13:04.245,e3:ca:2d:fd:e0:8c, 2015-01-01 03:34:23.820, 0.999, -0.185, 0.093, 1.404, 3.235, -0.061, -73.938, -77.97, -128.013, -28.313, -7.487, -6.187, 29.7, -0.06946, -0.65457, 0.19934, -0.72586,
 17:13:04.245,e3:ca:2d:fd:e0:8c, 2015-01-01 03:34:23.820, 0.992, -0.178, 0.094, 0.549, 3.357, -0.366, -73.564, -77.959, -128.353, -28.313, -7.487, -6.187, 29.7, -0.06946, -0.65457, 0.19934, -0.72586,
 17:13:04.245,e3:ca:2d:fd:e0:8c, 2015-01-01 03:34:23.820, 0.999, -0.185, 0.093, 1.404, 3.235, -0.061, -73.938, -77.97, -128.013, -28.313, -7.487, -6.187, 29.7, -0.06946, -0.65457, 0.19934, -0.72586,
 17:13:04.251,ed:40:fe:65:30:6c, 2015-01-01 03:34:28.940, 0.575, 0.109, 0.787, 1.282, 1.282, 0, 8.674, -35.804, -135.203, -19.000, -11.807, -5.893, 26.59, -0.38043, 0.25775, 0.18314, 0.86902,
 17:13:04.251,ed:40:fe:65:30:6c, 2015-01-01 03:34:28.940, 0.567, 0.105, 0.792, 0.183, 1.648, 0, 8.685, -35.788, -135.203, -19.000, -11.807, -5.893, 26.59, -0.38043, 0.25775, 0.18314, 0.86902,
 17:13:04.251,ed:40:fe:65:30:6c, 2015-01-01 03:34:28.940, 0.575, 0.113, 0.792, -0.305, 1.953, 0.122, 8.674, -35.76, -135.198, -19.000, -11.807, -5.893, 26.59, -0.38043, 0.25775, 0.18314, 0.86902,
 17:13:04.251,ed:40:fe:65:30:6c, 2015-01-01 03:34:28.940, 0.567, 0.105, 0.792, 0.183, 1.648, 0, 8.685, -35.788, -135.203, -19.000, -11.807, -5.893, 26.59, -0.38043, 0.25775, 0.18314, 0.86902,
 17:13:04.252,ed:35:33:d3:6c:f8, 2015-01-01 03:34:04.485, 0.523, 0.197, 0.785, -1.099, -7.08, 0.061, 14.211, -32.272, 136.928, -12.027, -14.827, -28.620, 29.1, 0.31781, 0.29898, 0.01001, 0.89966,
 17:13:04.252,ed:35:33:d3:6c:f8, 2015-01-01 03:34:04.485, 0.523, 0.199, 0.785, 0.305, -3.967, 0.732, 14.222, -32.377, 136.89, -12.027, -14.827, -28.620, 29.1, 0.31781, 0.29898, 0.01001, 0.89966,
 17:13:04.252,ed:35:33:d3:6c:f8, 2015-01-01 03:34:04.485, 0.523, 0.206, 0.791, 0.732, -0.793, 0.916, 14.227, -32.426, 136.873, -12.027, -14.827, -28.620, 29.1, 0.31781, 0.29898, 0.01001, 0.89966,
 17:13:04.252,ed:35:33:d3:6c:f8, 2015-01-01 03:34:04.485, 0.523, 0.199, 0.785, 0.305, -3.967, 0.732, 14.222, -32.377, 136.89, -12.027, -14.827, -28.620, 29.1, 0.31781, 0.29898, 0.01001, 0.89966,
 17:13:04.279,ed:40:fe:65:30:6c, 2015-01-01 03:34:28.940, 0.565, 0.113, 0.792, -0.305, 1.953, 0.122, 8.674, -35.76, -135.198, -19.000, -11.807, -5.893, 26.59, -0.38306, 0.25555, 0.18314, 0.8685,
 17:13:04.279,ed:40:fe:65:30:6c, 2015-01-01 03:34:28.940, 0.565, 0.121, 0.8, 0.183, 2.686, 0, 8.663, -35.717, -135.198, -19.000, -11.807, -5.893, 26.59, -0.38306, 0.25555, 0.18314, 0.8685,
 17:13:04.279,ed:40:fe:65:30:6c, 2015-01-01 03:34:28.940, 0.565, 0.127, 0.807, 0.854, 3.113, -0.671, 8.668, -35.662, -135.198, -19.000, -11.807, -5.893, 26.59, -0.38306, 0.25555, 0.18314, 0.8685,
 17:13:04.279,ed:40:fe:65:30:6c, 2015-01-01 03:34:28.940, 0.565, 0.121, 0.8, 0.183, 2.686, 0, 8.663, -35.717, -135.198, -19.000, -11.807, -5.893, 26.59, -0.38306, 0.25555, 0.18314, 0.8685,
 17:13:04.284,ed:35:33:d3:6c:f8, 2015-01-01 03:34:04.485, 0.521, 0.206, 0.791, 0.732, -0.793, 0.916, 14.227, -32.426, 136.873, -12.027, -14.827, -28.620, 29.1, 0.31781, 0.29898, 0.01001, 0.89966,
 17:13:04.284,ed:35:33:d3:6c:f8, 2015-01-01 03:34:04.485, 0.521, 0.204, 0.803, 1.038, 2.502, 0.671, 14.238, -32.415, 136.89, -12.027, -14.827, -28.620, 29.1, 0.31781, 0.29898, 0.01001, 0.89966,
 17:13:04.284,ed:35:33:d3:6c:f8, 2015-01-01 03:34:04.485, 0.521, 0.205, 0.814, 1.892, 4.944, -0.122, 14.255, -32.344, 136.895, -12.027, -14.827, -28.620, 29.1, 0.31781, 0.29898, 0.01001, 0.89966,
 17:13:04.284,ed:35:33:d3:6c:f8, 2015-01-01 03:34:04.485, 0.521, 0.204, 0.803, 1.038, 2.502, 0.671, 14.238, -32.415, 136.89, -12.027, -14.827, -28.620, 29.1, 0.31781, 0.29898, 0.01001, 0.89966,
 17:13:04.284,f6:90:cc:01:6d:25, 2015-01-01 03:34:15.345, 0.92, 0.076, 0.322, 0.854, 2.869, -0.061, 15.024, -71.867, -179.885, -28.153, -13.340, -5.500, 31.97, 0.07367, -0.58115, -0.1026, -0.80386,
 17:13:04.284,f6:90:cc:01:6d:25, 2015-01-01 03:34:15.345, 0.924, 0.09, 0.326, 0.549, 3.418, -0.916, 15.035, -71.79, -179.841, -28.153, -13.340, -5.500, 31.97, 0.07367, -0.58115, -0.1026, -0.80386,
 17:13:04.284,f6:90:cc:01:6d:25, 2015-01-01 03:34:15.345, 0.92, 0.101, 0.33, -0.122, 3.601, -1.526, 15.062, -71.702, -179.846, -28.153, -13.340, -5.500, 31.97, 0.07367, -0.58115, -0.1026, -0.80386,
 17:13:04.284,f6:90:cc:01:6d:25, 2015-01-01 03:34:15.345, 0.924, 0.09, 0.326, 0.549, 3.418, -0.916, 15.035, -71.79, -179.841, -28.153, -13.340, -5.500, 31.97, 0.07367, -0.58115, -0.1026, -0.80386,
 17:13:04.307,e3:ca:2d:fd:e0:8c, 2015-01-01 03:34:23.820, 1.002, -0.178, 0.094, 0.549, 3.357, -0.366, -73.564, -77.959, -128.353, -28.313, -7.487, -6.187, 29.7, -0.06946, -0.65457, 0.19934, -0.72586,
 17:13:04.307,e3:ca:2d:fd:e0:8c, 2015-01-01 03:34:23.820, 0.997, -0.179, 0.088, -0.427, 3.113, -0.244, -73.218, -77.948, -128.683, -28.313, -7.487, -6.187, 29.7, -0.06946, -0.65457, 0.19934, -0.72586,
 17:13:04.307,e3:ca:2d:fd:e0:8c, 2015-01-01 03:34:23.820, 1.002, -0.19, 0.074, -1.404, 2.38, -0.061, -72.955, -77.943, -128.952, -28.313, -7.487, -6.187, 29.7, -0.06946, -0.65457, 0.19934, -0.72586,
 17:13:04.307,e3:ca:2d:fd:e0:8c, 2015-01-01 03:34:23.820, 0.997, -0.179, 0.088, -0.427, 3.113, -0.244, -73.218, -77.948, -128.683, -28.313, -7.487, -6.187, 29.7, -0.06946, -0.65457, 0.19934, -0.72586,
 17:13:04.309,ed:40:fe:65:30:6c, 2015-01-01 03:34:28.940, 0.562, 0.127, 0.807, 0.854, 3.113, -0.671, 8.668, -35.662, -135.198, -19.000, -11.807, -5.893, 26.59, -0.38306, 0.25555, 0.18314, 0.8685,
 17:13:04.309,ed:40:fe:65:30:6c, 2015-01-01 03:34:28.940, 0.558, 0.132, 0.816, 1.16, 2.93, -1.587, 8.69, -35.601, -135.214, -19.000, -11.807, -5.893, 26.59, -0.38306, 0.25555, 0.18314, 0.8685,
 17:13:04.309,ed:40:fe:65:30:6c, 2015-01-01 03:34:28.940, 0.562, 0.137, 0.818, 0.916, 2.136, -2.136, 8.734, -35.546, -135.247, -19.000, -11.807, -5.893, 26.59, -0.38306, 0.25555, 0.18314, 0.8685,
 17:13:04.309,ed:40:fe:65:30:6c, 2015-01-01 03:34:28.940, 0.558, 0.132, 0.816, 1.16, 2.93, -1.587, 8.69, -35.601, -135.214, -19.000, -11.807, -5.893, 26.59, -0.38306, 0.25555, 0.18314, 0.8685,
 17:13:04.313,ed:35:33:d3:6c:f8, 2015-01-01 03:34:04.870, 0.516, 0.205, 0.814, 1.892, 4.944, -0.122, 14.255, -32.344, 136.895, -12.027, -14.827, -28.620, 29.1, 0.31781, 0.29898, 0.01001, 0.89966,
 17:13:04.313,ed:35:33:d3:6c:f8, 2015-01-01 03:34:04.870, 0.509, 0.213, 0.827, 2.197, 6.348, -2.258, 14.293, -32.228, 136.879, -12.027, -14.827, -28.620, 29.1, 0.31781, 0.29898, 0.01001, 0.89966,
 17:13:04.313,ed:35:33:d3:6c:f8, 2015-01-01 03:34:04.870, 0.516, 0.226, 0.832, 1.465, 6.958, -2.502, 14.337, -32.086, 136.862, -12.027, -14.827, -28.620, 29.1, 0.31781, 0.29898, 0.01001, 0.89966,
 17:13:04.313,ed:35:33:d3:6c:f8, 2015-01-01 03:34:04.870, 0.509, 0.213, 0.827, 2.197, 6.348, -2.258, 14.293, -32.228, 136.879, -12.027, -14.827, -28.620, 29.1, 0.31781, 0.29898, 0.01001, 0.89966,
 17:13:04.315,f6:90:cc:01:6d:25, 2015-01-01 03:34:15.345, 0.926, 0.101, 0.33, -0.122, 3.601, -1.526, 15.062, -71.702, -179.846, -28.153, -13.340, -5.500, 31.97, 0.07767, -0.58139, -0.1066, -0.8028,
 17:13:04.315,f6:90:cc:01:6d:25, 2015-01-01 03:34:15.345, 0.917, 0.103, 0.328, -0.977, 3.235, -1.77, 15.106, -71.62, -179.868, -28.153, -13.340, -5.500, 31.97, 0.07767, -0.58139, -0.1066, -0.8028,
 17:13:04.315,f6:90:cc:01:6d:25, 2015-01-01 03:34:15.345, 0.926, 0.07, 0.297, -1.282, 1.038, -0.61, 15.123, -71.565, -179.874, -28.153, -13.340, -5.500, 31.97, 0.07767, -0.58139, -0.1066, -0.8028,
 17:13:04.315,f6:90:cc:01:6d:25, 2015-01-01 03:34:15.345, 0.917, 0.103, 0.328, -0.977, 3.235, -1.77, 15.106, -71.62, -179.868, -28.153, -13.340, -5.500, 31.97, 0.07767, -0.58139, -0.1066, -0.8028,
 17:13:04.335,e3:ca:2d:fd:e0:8c, 2015-01-01 03:34:23.820, 0.981, -0.19, 0.074, -1.404, 2.38, -0.061, -72.955, -77.943, -128.952, -28.313, -7.487, -6.187, 29.7, -0.06946, -0.65457, 0.19934, -0.72586,
 17:13:04.335,e3:ca:2d:fd:e0:8c, 2015-01-01 03:34:23.820, 0.971, -0.211, 0.057, -0.793, 1.404, 0, -72.773, -77.937, -129.144, -28.313, -7.487, -6.187, 29.7, -0.06946, -0.65457, 0.19934, -0.72586,
 17:13:04.335,e3:ca:2d:fd:e0:8c, 2015-01-01 03:34:23.820, 0.981, -0.223, 0.047, 1.16, 0.122, -0.061, -72.686, -77.937, -129.227, -28.313, -7.487, -6.187, 29.7, -0.06946, -0.65457, 0.19934, -0.72586,
 17:13:04.335,e3:ca:2d:fd:e0:8c, 2015-01-01 03:34:23.820, 0.971, -0.211, 0.057, -0.793, 1.404, 0, -72.773, -77.937, -129.144, -28.313, -7.487, -6.187, 29.7, -0.06946, -0.65457, 0.19934, -0.72586,
 17:13:04.345,f6:90:cc:01:6d:25, 2015-01-01 03:34:15.345, 0.914, 0.07, 0.297, -1.282, 1.038, -0.61, 15.123, -71.565, -179.874, -28.153, -13.340, -5.500, 31.97, 0.07767, -0.58139, -0.1066, -0.8028,
 17:13:04.345,f6:90:cc:01:6d:25, 2015-01-01 03:34:15.345, 0.913, 0.055, 0.288, 0.305, 0, 0.122, 15.123, -71.543, -179.852, -28.153, -13.340, -5.500, 31.97, 0.07767, -0.58139, -0.1066, -0.8028,
 17:13:04.345,f6:90:cc:01:6d:25, 2015-01-01 03:34:15.345, 0.914, 0.055, 0.28, 1.709, -1.038, 0.488, 15.123, -71.543, -179.835, -28.153, -13.340, -5.500, 31.97, 0.07767, -0.58139, -0.1066, -0.8028,
 17:13:04.345,f6:90:cc:01:6d:25, 2015-01-01 03:34:15.345, 0.913, 0.055, 0.288, 0.305, 0, 0.122, 15.123, -71.543, -179.852, -28.153, -13.340, -5.500, 31.97, 0.07767, -0.58139, -0.1066, -0.8028,
 17:13:04.365,e3:ca:2d:fd:e0:8c, 2015-01-01 03:34:23.820, 0.965, -0.223, 0.047, 1.16, 0.122, -0.061, -72.686, -77.937, -129.227, -27.820, -7.800, -7.373, 29.7, -0.06946, -0.65457, 0.19934, -0.72586,
 17:13:04.365,e3:ca:2d:fd:e0:8c, 2015-01-01 03:34:23.820, 0.97, -0.221, 0.036, 2.441, -1.526, -0.183, -72.729, -77.943, -129.161, -27.820, -7.800, -7.373, 29.7, -0.06946, -0.65457, 0.19934, -0.72586,
 17:13:04.365,e3:ca:2d:fd:e0:8c, 2015-01-01 03:34:23.820, 0.965, -0.208, 0.033, 2.075, -3.052, -0.244, -72.927, -77.964, -128.93, -27.820, -7.800, -7.373, 29.7, -0.06946, -0.65457, 0.19934, -0.72586,
 17:13:04.365,e3:ca:2d:fd:e0:8c, 2015-01-01 03:34:23.820, 0.97, -0.221, 0.036, 2.441, -1.526, -0.183, -72.729, -77.943, -129.161, -27.820, -7.800, -7.373, 29.7, -0.06946, -0.65457, 0.19934, -0.72586,
 17:13:04.369,ed:40:fe:65:30:6c, 2015-01-01 03:34:29.265, 0.556, 0.137, 0.818, 0.916, 2.136, -2.136, 8.734, -35.546, -135.247, -19.000, -11.807, -5.893, 26.59, -0.38306, 0.25555, 0.18314, 0.8685,
 17:13:04.369,ed:40:fe:65:30:6c, 2015-01-01 03:34:29.265, 0.558, 0.132, 0.814, 0.916, 0.61, -1.77, 8.778, -35.508, -135.275, -19.000, -11.807, -5.893, 26.59, -0.38306, 0.25555, 0.18314, 0.8685,
 17:13:04.369,ed:40:fe:65:30:6c, 2015-01-01 03:34:29.265, 0.556, 0.119, 0.808, 0.488, -0.732, -0.916, 8.811, -35.497, -135.302, -19.000, -11.807, -5.893, 26.59, -0.38306, 0.25555, 0.18314, 0.8685,
 17:13:04.369,ed:40:fe:65:30:6c, 2015-01-01 03:34:29.265, 0.558, 0.132, 0.814, 0.916, 0.61, -1.77, 8.778, -35.508, -135.275, -19.000, -11.807, -5.893, 26.59, -0.38306, 0.25555, 0.18314, 0.8685,
 17:13:04.373,ed:35:33:d3:6c:f8, 2015-01-01 03:34:04.870, 0.505, 0.226, 0.832, 1.465, 6.958, -2.502, 14.337, -32.086, 136.862, -12.027, -14.827, -28.620, 29.1, 0.31781, 0.29898, 0.01001, 0.89966,
 17:13:04.373,ed:35:33:d3:6c:f8, 2015-01-01 03:34:04.870, 0.502, 0.224, 0.829, 0.61, 7.019, -2.319, 14.37, -31.937, 136.868, -12.027, -14.827, -28.620, 29.1, 0.31781, 0.29898, 0.01001, 0.89966,
 17:13:04.373,ed:35:33:d3:6c:f8, 2015-01-01 03:34:04.870, 0.505, 0.213, 0.826, 1.038, 5.859, -2.014, 14.392, -31.8, 136.879, -12.027, -14.827, -28.620, 29.1, 0.31781, 0.29898, 0.01001, 0.89966,
 17:13:04.373,ed:35:33:d3:6c:f8, 2015-01-01 03:34:04.870, 0.502, 0.224, 0.829, 0.61, 7.019, -2.319, 14.37, -31.937, 136.868, -12.027, -14.827, -28.620, 29.1, 0.31781, 0.29898, 0.01001, 0.89966,
 17:13:04.403,ed:35:33:d3:6c:f8, 2015-01-01 03:34:04.870, 0.507, 0.213, 0.826, 1.038, 5.859, -2.014, 14.392, -31.8, 136.879, -12.027, -14.827, -28.620, 29.1, 0.31781, 0.29898, 0.01001, 0.89966,
 17:13:04.403,ed:35:33:d3:6c:f8, 2015-01-01 03:34:04.870, 0.515, 0.212, 0.828, 1.77, 3.845, 0.183, 14.42, -31.696, 136.884, -12.027, -14.827, -28.620, 29.1, 0.31781, 0.29898, 0.01001, 0.89966,
 17:13:04.403,ed:35:33:d3:6c:f8, 2015-01-01 03:34:04.870, 0.507, 0.211, 0.836, 1.587, 1.892, 2.014, 14.436, -31.641, 136.917, -12.027, -14.827, -28.620, 29.1, 0.31781, 0.29898, 0.01001, 0.89966,
 17:13:04.403,ed:35:33:d3:6c:f8, 2015-01-01 03:34:04.870, 0.515, 0.212, 0.828, 1.77, 3.845, 0.183, 14.42, -31.696, 136.884, -12.027, -14.827, -28.620, 29.1, 0.31781, 0.29898, 0.01001, 0.89966,
 17:13:04.405,f6:90:cc:01:6d:25, 2015-01-01 03:34:15.700, 0.919, 0.055, 0.28, 1.709, -1.038, 0.488, 15.123, -71.543, -179.835, -28.153, -13.340, -5.500, 31.97, 0.07767, -0.58139, -0.1066, -0.8028,
 17:13:04.405,f6:90:cc:01:6d:25, 2015-01-01 03:34:15.700, 0.931, 0.068, 0.277, 2.136, -2.197, 0.305, 15.139, -71.565, -179.808, -28.153, -13.340, -5.500, 31.97, 0.07767, -0.58139, -0.1066, -0.8028,
 17:13:04.405,f6:90:cc:01:6d:25, 2015-01-01 03:34:15.700, 0.919, 0.083, 0.272, 2.014, -3.174, -0.061, 15.194, -71.614, -179.808, -28.153, -13.340, -5.500, 31.97, 0.07767, -0.58139, -0.1066, -0.8028,
 17:13:04.405,f6:90:cc:01:6d:25, 2015-01-01 03:34:15.700, 0.931, 0.068, 0.277, 2.136, -2.197, 0.305, 15.139, -71.565, -179.808, -28.153, -13.340, -5.500, 31.97, 0.07767, -0.58139, -0.1066, -0.8028,
 17:13:04.426,e3:ca:2d:fd:e0:8c, 2015-01-01 03:34:23.820, 0.984, -0.208, 0.033, 2.075, -3.052, -0.244, -72.927, -77.964, -128.93, -27.820, -7.800, -7.373, 29.7, -0.06946, -0.65457, 0.19934, -0.72586,
 17:13:04.426,e3:ca:2d:fd:e0:8c, 2015-01-01 03:34:23.820, 1, -0.195, 0.03, 1.16, -4.333, -0.305, -73.273, -77.992, -128.568, -27.820, -7.800, -7.373, 29.7, -0.06946, -0.65457, 0.19934, -0.72586,
 17:13:04.426,e3:ca:2d:fd:e0:8c, 2015-01-01 03:34:23.820, 0.984, -0.185, 0.02, 0.305, -5.127, -0.244, -73.735, -78.025, -128.123, -27.820, -7.800, -7.373, 29.7, -0.06946, -0.65457, 0.19934, -0.72586,
 17:13:04.426,e3:ca:2d:fd:e0:8c, 2015-01-01 03:34:23.820, 1, -0.195, 0.03, 1.16, -4.333, -0.305, -73.273, -77.992, -128.568, -27.820, -7.800, -7.373, 29.7, -0.06946, -0.65457, 0.19934, -0.72586,
 17:13:04.430,ed:40:fe:65:30:6c, 2015-01-01 03:34:29.265, 0.565, 0.119, 0.808, 0.488, -0.732, -0.916, 8.811, -35.497, -135.302, -19.000, -11.807, -5.893, 26.59, -0.38306, 0.25555, 0.18314, 0.8685,
 17:13:04.430,ed:40:fe:65:30:6c, 2015-01-01 03:34:29.265, 0.579, 0.112, 0.804, 0.122, -1.587, 0.122, 8.822, -35.513, -135.308, -19.000, -11.807, -5.893, 26.59, -0.38306, 0.25555, 0.18314, 0.8685,
 17:13:04.430,ed:40:fe:65:30:6c, 2015-01-01 03:34:29.265, 0.565, 0.113, 0.804, 0.793, -2.197, 1.099, 8.822, -35.541, -135.28, -19.000, -11.807, -5.893, 26.59, -0.38306, 0.25555, 0.18314, 0.8685,
 17:13:04.430,ed:40:fe:65:30:6c, 2015-01-01 03:34:29.265, 0.579, 0.112, 0.804, 0.122, -1.587, 0.122, 8.822, -35.513, -135.308, -19.000, -11.807, -5.893, 26.59, -0.38306, 0.25555, 0.18314, 0.8685,
 17:13:04.430,ed:40:fe:65:30:6c, 2015-01-01 03:34:29.265, 0.594, 0.113, 0.804, 0.793, -2.197, 1.099, 8.822, -35.541, -135.28, -19.000, -11.807, -5.893, 26.59, -0.38306, 0.25555, 0.18314, 0.8685,
 17:13:04.430,ed:40:fe:65:30:6c, 2015-01-01 03:34:29.265, 0.61, 0.119, 0.806, 1.709, -2.258, 1.465, 8.833, -35.585, -135.247, -19.000, -11.807, -5.893, 26.59, -0.38306, 0.25555, 0.18314, 0.8685,
 17:13:04.430,ed:40:fe:65:30:6c, 2015-01-01 03:34:29.265, 0.594, 0.125, 0.811, 2.197, -2.441, 1.099, 8.855, -35.629, -135.22, -19.000, -11.807, -5.893, 26.59, -0.38306, 0.25555, 0.18314, 0.8685,
 17:13:04.430,ed:40:fe:65:30:6c, 2015-01-01 03:34:29.265, 0.61, 0.119, 0.806, 1.709, -2.258, 1.465, 8.833, -35.585, -135.247, -19.000, -11.807, -5.893, 26.59, -0.38306, 0.25555, 0.18314, 0.8685,
 17:13:04.432,ed:35:33:d3:6c:f8, 2015-01-01 03:34:04.870, 0.529, 0.211, 0.836, 1.587, 1.892, 2.014, 14.436, -31.641, 136.917, -12.027, -14.827, -28.620, 29.1, 0.31781, 0.29898, 0.01001, 0.89966,
 17:13:04.432,ed:35:33:d3:6c:f8, 2015-01-01 03:34:04.870, 0.543, 0.212, 0.842, 0.427, -0.61, 2.38, 14.425, -31.635, 136.978, -12.027, -14.827, -28.620, 29.1, 0.31781, 0.29898, 0.01001, 0.89966,
 17:13:04.432,ed:35:33:d3:6c:f8, 2015-01-01 03:34:04.870, 0.529, 0.215, 0.841, -1.709, -3.601, 1.831, 14.387, -31.696, 137.016, -12.027, -14.827, -28.620, 29.1, 0.31781, 0.29898, 0.01001, 0.89966,
 17:13:04.432,ed:35:33:d3:6c:f8, 2015-01-01 03:34:04.870, 0.543, 0.212, 0.842, 0.427, -0.61, 2.38, 14.425, -31.635, 136.978, -12.027, -14.827, -28.620, 29.1, 0.31781, 0.29898, 0.01001, 0.89966,
 17:13:04.435,f6:90:cc:01:6d:25, 2015-01-01 03:34:15.700, 0.946, 0.083, 0.272, 2.014, -3.174, -0.061, 15.194, -71.614, -179.808, -28.153, -13.340, -5.500, 31.97, 0.07767, -0.58139, -0.1066, -0.8028,
 17:13:04.435,f6:90:cc:01:6d:25, 2015-01-01 03:34:15.700, 0.963, 0.098, 0.266, 1.831, -4.15, -0.488, 15.287, -71.68, -179.863, -28.153, -13.340, -5.500, 31.97, 0.07767, -0.58139, -0.1066, -0.8028,
 17:13:04.435,f6:90:cc:01:6d:25, 2015-01-01 03:34:15.700, 0.946, 0.092, 0.27, 1.587, -4.639, -0.549, 15.425, -71.768, -179.978, -28.153, -13.340, -5.500, 31.97, 0.07767, -0.58139, -0.1066, -0.8028,
 17:13:04.435,f6:90:cc:01:6d:25, 2015-01-01 03:34:15.700, 0.963, 0.098, 0.266, 1.831, -4.15, -0.488, 15.287, -71.68, -179.863, -28.153, -13.340, -5.500, 31.97, 0.07767, -0.58139, -0.1066, -0.8028,
 17:13:04.456,e3:ca:2d:fd:e0:8c, 2015-01-01 03:34:23.820, 1.019, -0.185, 0.02, 0.305, -5.127, -0.244, -73.735, -78.025, -128.123, -27.820, -7.800, -7.373, 29.7, -0.06778, -0.65585, 0.19873, -0.72501,
 17:13:04.456,e3:ca:2d:fd:e0:8c, 2015-01-01 03:34:23.820, 1.024, -0.193, 0.025, -0.732, -5.249, -0.122, -74.251, -78.058, -127.634, -27.820, -7.800, -7.373, 29.7, -0.06778, -0.65585, 0.19873, -0.72501,
 17:13:04.456,e3:ca:2d:fd:e0:8c, 2015-01-01 03:34:23.820, 1.019, -0.214, 0.028, -0.854, -4.822, 0.122, -74.767, -78.091, -127.161, -27.820, -7.800, -7.373, 29.7, -0.06778, -0.65585, 0.19873, -0.72501,
 17:13:04.456,e3:ca:2d:fd:e0:8c, 2015-01-01 03:34:23.820, 1.024, -0.193, 0.025, -0.732, -5.249, -0.122, -74.251, -78.058, -127.634, -27.820, -7.800, -7.373, 29.7, -0.06778, -0.65585, 0.19873, -0.72501,
 17:13:04.465,f6:90:cc:01:6d:25, 2015-01-01 03:34:15.700, 0.969, 0.092, 0.27, 1.587, -4.639, -0.549, 15.425, -71.768, -179.978, -28.153, -13.340, -5.500, 31.97, 0.07767, -0.58139, -0.1066, -0.8028,
 17:13:04.465,f6:90:cc:01:6d:25, 2015-01-01 03:34:15.700, 0.97, 0.08, 0.273, 1.099, -4.7, 0, 15.557, -71.862, 179.857, -28.153, -13.340, -5.500, 31.97, 0.07767, -0.58139, -0.1066, -0.8028,
 17:13:04.465,f6:90:cc:01:6d:25, 2015-01-01 03:34:15.700, 0.969, 0.078, 0.281, 1.221, -4.211, 0.427, 15.656, -71.96, 179.725, -28.153, -13.340, -5.500, 31.97, 0.07767, -0.58139, -0.1066, -0.8028,
 17:13:04.465,f6:90:cc:01:6d:25, 2015-01-01 03:34:15.700, 0.97, 0.08, 0.273, 1.099, -4.7, 0, 15.557, -71.862, 179.857, -28.153, -13.340, -5.500, 31.97, 0.07767, -0.58139, -0.1066, -0.8028,
 17:13:04.489,ed:40:fe:65:30:6c, 2015-01-01 03:34:29.265, 0.619, 0.125, 0.811, 2.197, -2.441, 1.099, 8.855, -35.629, -135.22, -19.000, -11.807, -5.893, 26.59, -0.38306, 0.25555, 0.18314, 0.8685,
 17:13:04.489,ed:40:fe:65:30:6c, 2015-01-01 03:34:29.265, 0.621, 0.128, 0.806, 1.648, -2.625, 0.549, 8.882, -35.678, -135.198, -19.000, -11.807, -5.893, 26.59, -0.38306, 0.25555, 0.18314, 0.8685,
 17:13:04.489,ed:40:fe:65:30:6c, 2015-01-01 03:34:29.265, 0.619, 0.125, 0.81, 1.038, -2.38, 0.061, 8.91, -35.733, -135.187, -19.000, -11.807, -5.893, 26.59, -0.38306, 0.25555, 0.18314, 0.8685,
 17:13:04.489,ed:40:fe:65:30:6c, 2015-01-01 03:34:29.265, 0.621, 0.128, 0.806, 1.648, -2.625, 0.549, 8.882, -35.678, -135.198, -19.000, -11.807, -5.893, 26.59, -0.38306, 0.25555, 0.18314, 0.8685,
 17:13:04.494,ed:35:33:d3:6c:f8, 2015-01-01 03:34:04.870, 0.545, 0.215, 0.841, -1.709, -3.601, 1.831, 14.387, -31.696, 137.016, -12.027, -14.827, -28.620, 29.1, 0.31781, 0.29898, 0.01001, 0.89966,
 17:13:04.494,ed:35:33:d3:6c:f8, 2015-01-01 03:34:04.870, 0.547, 0.213, 0.839, -2.319, -6.165, 1.099, 14.348, -31.8, 137.032, -12.027, -14.827, -28.620, 29.1, 0.31781, 0.29898, 0.01001, 0.89966,
 17:13:04.494,ed:35:33:d3:6c:f8, 2015-01-01 03:34:04.870, 0.545, 0.217, 0.829, -2.563, -8.179, 0.366, 14.315, -31.948, 137.021, -12.027, -14.827, -28.620, 29.1, 0.31781, 0.29898, 0.01001, 0.89966,
 17:13:04.494,ed:35:33:d3:6c:f8, 2015-01-01 03:34:04.870, 0.547, 0.213, 0.839, -2.319, -6.165, 1.099, 14.348, -31.8, 137.032, -12.027, -14.827, -28.620, 29.1, 0.31781, 0.29898, 0.01001, 0.89966,
 17:13:04.519,ed:40:fe:65:30:6c, 2015-01-01 03:34:29.265, 0.623, 0.125, 0.81, 1.038, -2.38, 0.061, 8.91, -35.733, -135.187, -19.000, -11.807, -5.893, 26.59, -0.38306, 0.25555, 0.18314, 0.8685,
 17:13:04.519,ed:40:fe:65:30:6c, 2015-01-01 03:34:29.265, 0.625, 0.121, 0.8, 0, -1.953, -0.183, 8.921, -35.777, -135.192, -19.000, -11.807, -5.893, 26.59, -0.38306, 0.25555, 0.18314, 0.8685,
 17:13:04.519,ed:40:fe:65:30:6c, 2015-01-01 03:34:29.265, 0.623, 0.13, 0.797, 0, -0.732, -0.61, 8.926, -35.81, -135.214, -19.000, -11.807, -5.893, 26.59, -0.38306, 0.25555, 0.18314, 0.8685,
 17:13:04.519,ed:40:fe:65:30:6c, 2015-01-01 03:34:29.265, 0.625, 0.121, 0.8, 0, -1.953, -0.183, 8.921, -35.777, -135.192, -19.000, -11.807, -5.893, 26.59, -0.38306, 0.25555, 0.18314, 0.8685,
 17:13:04.523,ed:35:33:d3:6c:f8, 2015-01-01 03:34:04.870, 0.559, 0.217, 0.829, -2.563, -8.179, 0.366, 14.315, -31.948, 137.021, -11.953, -15.033, -28.880, 29.1, 0.31781, 0.29898, 0.01001, 0.89966,
 17:13:04.523,ed:35:33:d3:6c:f8, 2015-01-01 03:34:04.870, 0.559, 0.212, 0.822, -2.747, -9.766, 0.427, 14.288, -32.13, 136.989, -11.953, -15.033, -28.880, 29.1, 0.31781, 0.29898, 0.01001, 0.89966,
 17:13:04.523,ed:35:33:d3:6c:f8, 2015-01-01 03:34:04.870, 0.559, 0.213, 0.807, -3.357, -10.437, 0, 14.255, -32.327, 136.917, -11.953, -15.033, -28.880, 29.1, 0.31781, 0.29898, 0.01001, 0.89966,
 17:13:04.523,ed:35:33:d3:6c:f8, 2015-01-01 03:34:04.870, 0.559, 0.212, 0.822, -2.747, -9.766, 0.427, 14.288, -32.13, 136.989, -11.953, -15.033, -28.880, 29.1, 0.31781, 0.29898, 0.01001, 0.89966,
 17:13:04.524,f6:90:cc:01:6d:25, 2015-01-01 03:34:15.700, 0.974, 0.078, 0.281, 1.221, -4.211, 0.427, 15.656, -71.96, 179.725, -28.153, -13.340, -5.500, 31.97, 0.07767, -0.58139, -0.1066, -0.8028,
 17:13:04.524,f6:90:cc:01:6d:25, 2015-01-01 03:34:15.700, 0.973, 0.095, 0.287, 0.549, -3.235, 0.549, 15.716, -72.048, 179.643, -28.153, -13.340, -5.500, 31.97, 0.07767, -0.58139, -0.1066, -0.8028,
 17:13:04.524,f6:90:cc:01:6d:25, 2015-01-01 03:34:15.700, 0.974, 0.089, 0.291, -0.671, -1.892, 1.16, 15.738, -72.114, 179.599, -28.153, -13.340, -5.500, 31.97, 0.07767, -0.58139, -0.1066, -0.8028,
 17:13:04.524,f6:90:cc:01:6d:25, 2015-01-01 03:34:15.700, 0.973, 0.095, 0.287, 0.549, -3.235, 0.549, 15.716, -72.048, 179.643, -28.153, -13.340, -5.500, 31.97, 0.07767, -0.58139, -0.1066, -0.8028,
 17:13:04.545,e3:ca:2d:fd:e0:8c, 2015-01-01 03:34:23.820, 1.024, -0.214, 0.028, -0.854, -4.822, 0.122, -74.767, -78.091, -127.161, -27.820, -7.800, -7.373, 29.7, -0.06778, -0.65585, 0.19873, -0.72501,
 17:13:04.545,e3:ca:2d:fd:e0:8c, 2015-01-01 03:34:23.820, 1.032, -0.222, 0.04, -1.221, -4.211, 0.427, -75.245, -78.107, -126.744, -27.820, -7.800, -7.373, 29.7, -0.06778, -0.65585, 0.19873, -0.72501,
 17:13:04.545,e3:ca:2d:fd:e0:8c, 2015-01-01 03:34:23.820, 1.024, -0.208, 0.053, -1.282, -3.113, 0.61, -75.635, -78.113, -126.409, -27.820, -7.800, -7.373, 29.7, -0.06778, -0.65585, 0.19873, -0.72501,
 17:13:04.545,e3:ca:2d:fd:e0:8c, 2015-01-01 03:34:23.820, 1.032, -0.222, 0.04, -1.221, -4.211, 0.427, -75.245, -78.107, -126.744, -27.820, -7.800, -7.373, 29.7, -0.06778, -0.65585, 0.19873, -0.72501,
 17:13:04.547,e3:ca:2d:fd:e0:8c, 2015-01-01 03:34:23.820, 1.04, -0.208, 0.053, -1.282, -3.113, 0.61, -75.635, -78.113, -126.409, -27.820, -7.800, -7.373, 29.7, -0.06778, -0.65585, 0.19873, -0.72501,
 17:13:04.547,e3:ca:2d:fd:e0:8c, 2015-01-01 03:34:23.820, 1.029, -0.211, 0.061, -2.197, -1.221, 1.404, -75.883, -78.102, -126.238, -27.820, -7.800, -7.373, 29.7, -0.06778, -0.65585, 0.19873, -0.72501,
 17:13:04.547,e3:ca:2d:fd:e0:8c, 2015-01-01 03:34:23.820, 1.04, -0.213, 0.07, -2.563, 0.854, 2.625, -75.97, -78.052, -126.249, -27.820, -7.800, -7.373, 29.7, -0.06778, -0.65585, 0.19873, -0.72501,
 17:13:04.547,e3:ca:2d:fd:e0:8c, 2015-01-01 03:34:23.820, 1.029, -0.211, 0.061, -2.197, -1.221, 1.404, -75.883, -78.102, -126.238, -27.820, -7.800, -7.373, 29.7, -0.06778, -0.65585, 0.19873, -0.72501,
 17:13:04.549,ed:40:fe:65:30:6c, 2015-01-01 03:34:29.265, 0.614, 0.13, 0.797, 0, -0.732, -0.61, 8.926, -35.81, -135.214, -19.393, -12.620, -5.447, 26.59, -0.38306, 0.25555, 0.18314, 0.8685,
 17:13:04.549,ed:40:fe:65:30:6c, 2015-01-01 03:34:29.265, 0.599, 0.126, 0.79, 1.831, 0.305, -0.244, 8.948, -35.821, -135.231, -19.393, -12.620, -5.447, 26.59, -0.38306, 0.25555, 0.18314, 0.8685,
 17:13:04.549,ed:40:fe:65:30:6c, 2015-01-01 03:34:29.265, 0.614, 0.111, 0.784, 0.916, 1.282, -0.122, 8.976, -35.815, -135.231, -19.393, -12.620, -5.447, 26.59, -0.38306, 0.25555, 0.18314, 0.8685,
 17:13:04.549,ed:40:fe:65:30:6c, 2015-01-01 03:34:29.265, 0.599, 0.126, 0.79, 1.831, 0.305, -0.244, 8.948, -35.821, -135.231, -19.393, -12.620, -5.447, 26.59, -0.38306, 0.25555, 0.18314, 0.8685,
 17:13:04.556,f6:90:cc:01:6d:25, 2015-01-01 03:34:15.700, 0.957, 0.089, 0.291, -0.671, -1.892, 1.16, 15.738, -72.114, 179.599, -28.153, -13.340, -5.500, 31.97, 0.07767, -0.58139, -0.1066, -0.8028,
 17:13:04.556,f6:90:cc:01:6d:25, 2015-01-01 03:34:15.700, 0.938, 0.08, 0.297, -1.16, -0.244, 1.465, 15.683, -72.158, 179.615, -28.153, -13.340, -5.500, 31.97, 0.07767, -0.58139, -0.1066, -0.8028,
 17:13:04.556,f6:90:cc:01:6d:25, 2015-01-01 03:34:15.700, 0.957, 0.075, 0.307, -1.221, 1.282, 1.221, 15.579, -72.169, 179.654, -28.153, -13.340, -5.500, 31.97, 0.07767, -0.58139, -0.1066, -0.8028,
 17:13:04.556,f6:90:cc:01:6d:25, 2015-01-01 03:34:15.700, 0.938, 0.08, 0.297, -1.16, -0.244, 1.465, 15.683, -72.158, 179.615, -28.153, -13.340, -5.500, 31.97, 0.07767, -0.58139, -0.1066, -0.8028,
 17:13:04.576,e3:ca:2d:fd:e0:8c, 2015-01-01 03:34:24.180, 1.01, -0.213, 0.07, -2.563, 0.854, 2.625, -75.97, -78.052, -126.249, -27.820, -7.800, -7.373, 29.7, -0.06778, -0.65585, 0.19873, -0.72501,
 17:13:04.576,e3:ca:2d:fd:e0:8c, 2015-01-01 03:34:24.180, 0.995, -0.208, 0.08, -2.136, 2.563, 2.686, -75.877, -77.992, -126.436, -27.820, -7.800, -7.373, 29.7, -0.06778, -0.65585, 0.19873, -0.72501,
 17:13:04.576,e3:ca:2d:fd:e0:8c, 2015-01-01 03:34:24.180, 1.01, -0.206, 0.087, -1.221, 3.662, 1.892, -75.635, -77.937, -126.755, -27.820, -7.800, -7.373, 29.7, -0.06778, -0.65585, 0.19873, -0.72501,
 17:13:04.576,e3:ca:2d:fd:e0:8c, 2015-01-01 03:34:24.180, 0.995, -0.208, 0.08, -2.136, 2.563, 2.686, -75.877, -77.992, -126.436, -27.820, -7.800, -7.373, 29.7, -0.06778, -0.65585, 0.19873, -0.72501,
 17:13:04.582,ed:35:33:d3:6c:f8, 2015-01-01 03:34:04.870, 0.552, 0.213, 0.807, -3.357, -10.437, 0, 14.255, -32.327, 136.917, -11.953, -15.033, -28.880, 29.1, 0.31781, 0.29898, 0.01001, 0.89966,
 17:13:04.582,ed:35:33:d3:6c:f8, 2015-01-01 03:34:04.870, 0.541, 0.207, 0.791, -2.319, -9.155, 0.305, 14.233, -32.514, 136.84, -11.953, -15.033, -28.880, 29.1, 0.31781, 0.29898, 0.01001, 0.89966,
 17:13:04.582,ed:35:33:d3:6c:f8, 2015-01-01 03:34:04.870, 0.552, 0.194, 0.779, -0.916, -7.385, 0.61, 14.233, -32.668, 136.774, -11.953, -15.033, -28.880, 29.1, 0.31781, 0.29898, 0.01001, 0.89966,
 17:13:04.582,ed:35:33:d3:6c:f8, 2015-01-01 03:34:04.870, 0.541, 0.207, 0.791, -2.319, -9.155, 0.305, 14.233, -32.514, 136.84, -11.953, -15.033, -28.880, 29.1, 0.31781, 0.29898, 0.01001, 0.89966,
 17:13:04.585,f6:90:cc:01:6d:25, 2015-01-01 03:34:15.700, 0.926, 0.075, 0.307, -1.221, 1.282, 1.221, 15.579, -72.169, 179.654, -28.507, -13.900, -6.347, 31.97, 0.07767, -0.58139, -0.1066, -0.8028,
 17:13:04.585,f6:90:cc:01:6d:25, 2015-01-01 03:34:15.700, 0.918, 0.07, 0.315, -1.221, 2.625, 0.732, 15.469, -72.147, 179.714, -28.507, -13.900, -6.347, 31.97, 0.07767, -0.58139, -0.1066, -0.8028,
 17:13:04.585,f6:90:cc:01:6d:25, 2015-01-01 03:34:15.700, 0.926, 0.072, 0.321, -1.099, 3.479, 0.122, 15.359, -72.092, 179.786, -28.507, -13.900, -6.347, 31.97, 0.07767, -0.58139, -0.1066, -0.8028,
 17:13:04.585,f6:90:cc:01:6d:25, 2015-01-01 03:34:15.700, 0.918, 0.07, 0.315, -1.221, 2.625, 0.732, 15.469, -72.147, 179.714, -28.507, -13.900, -6.347, 31.97, 0.07767, -0.58139, -0.1066, -0.8028,
 17:13:04.610,ed:40:fe:65:30:6c, 2015-01-01 03:34:29.265, 0.584, 0.111, 0.784, 0.916, 1.282, -0.122, 8.976, -35.815, -135.231, -19.393, -12.620, -5.447, 26.59, -0.38306, 0.25555, 0.18314, 0.8685,
 17:13:04.610,ed:40:fe:65:30:6c, 2015-01-01 03:34:29.265, 0.569, 0.11, 0.78, -0.305, 2.197, -0.366, 8.976, -35.793, -135.231, -19.393, -12.620, -5.447, 26.59, -0.38306, 0.25555, 0.18314, 0.8685,
 17:13:04.610,ed:40:fe:65:30:6c, 2015-01-01 03:34:29.265, 0.584, 0.111, 0.787, -0.366, 2.502, -0.366, 8.965, -35.76, -135.231, -19.393, -12.620, -5.447, 26.59, -0.38306, 0.25555, 0.18314, 0.8685,
 17:13:04.610,ed:40:fe:65:30:6c, 2015-01-01 03:34:29.265, 0.569, 0.11, 0.78, -0.305, 2.197, -0.366, 8.976, -35.793, -135.231, -19.393, -12.620, -5.447, 26.59, -0.38306, 0.25555, 0.18314, 0.8685,
 17:13:04.614,ed:35:33:d3:6c:f8, 2015-01-01 03:34:04.870, 0.533, 0.194, 0.779, -0.916, -7.385, 0.61, 14.233, -32.668, 136.774, -11.953, -15.033, -28.880, 29.1, 0.31808, 0.30206, 0.00845, 0.89856,
 17:13:04.614,ed:35:33:d3:6c:f8, 2015-01-01 03:34:04.870, 0.527, 0.193, 0.777, 0.549, -5.066, 0.793, 14.244, -32.783, 136.741, -11.953, -15.033, -28.880, 29.1, 0.31808, 0.30206, 0.00845, 0.89856,
 17:13:04.614,ed:35:33:d3:6c:f8, 2015-01-01 03:34:04.870, 0.533, 0.198, 0.78, 2.258, -1.892, 0.549, 14.282, -32.844, 136.741, -11.953, -15.033, -28.880, 29.1, 0.31808, 0.30206, 0.00845, 0.89856,
 17:13:04.614,ed:35:33:d3:6c:f8, 2015-01-01 03:34:04.870, 0.527, 0.193, 0.777, 0.549, -5.066, 0.793, 14.244, -32.783, 136.741, -11.953, -15.033, -28.880, 29.1, 0.31808, 0.30206, 0.00845, 0.89856,
 17:13:04.640,ed:40:fe:65:30:6c, 2015-01-01 03:34:29.265, 0.558, 0.111, 0.787, -0.366, 2.502, -0.366, 8.965, -35.76, -135.231, -19.393, -12.620, -5.447, 26.59, -0.38348, 0.25497, 0.18558, 0.86798,
 17:13:04.640,ed:40:fe:65:30:6c, 2015-01-01 03:34:29.265, 0.556, 0.111, 0.795, -0.366, 2.686, -0.305, 8.954, -35.717, -135.236, -19.393, -12.620, -5.447, 26.59, -0.38348, 0.25497, 0.18558, 0.86798,
 17:13:04.640,ed:40:fe:65:30:6c, 2015-01-01 03:34:29.265, 0.558, 0.116, 0.805, -0.549, 2.93, -0.427, 8.937, -35.667, -135.242, -19.393, -12.620, -5.447, 26.59, -0.38348, 0.25497, 0.18558, 0.86798,
 17:13:04.640,ed:40:fe:65:30:6c, 2015-01-01 03:34:29.265, 0.556, 0.111, 0.795, -0.366, 2.686, -0.305, 8.954, -35.717, -135.236, -19.393, -12.620, -5.447, 26.59, -0.38348, 0.25497, 0.18558, 0.86798,
 17:13:04.644,ed:35:33:d3:6c:f8, 2015-01-01 03:34:04.870, 0.523, 0.198, 0.78, 2.258, -1.892, 0.549, 14.282, -32.844, 136.741, -11.953, -15.033, -28.880, 29.1, 0.31808, 0.30206, 0.00845, 0.89856,
 17:13:04.644,ed:35:33:d3:6c:f8, 2015-01-01 03:34:04.870, 0.522, 0.194, 0.789, 2.869, 1.526, 0.916, 14.326, -32.838, 136.774, -11.953, -15.033, -28.880, 29.1, 0.31808, 0.30206, 0.00845, 0.89856,
 17:13:04.644,ed:35:33:d3:6c:f8, 2015-01-01 03:34:04.870, 0.523, 0.201, 0.803, 2.93, 4.761, 0.977, 14.359, -32.767, 136.818, -11.953, -15.033, -28.880, 29.1, 0.31808, 0.30206, 0.00845, 0.89856,
 17:13:04.644,ed:35:33:d3:6c:f8, 2015-01-01 03:34:04.870, 0.522, 0.194, 0.789, 2.869, 1.526, 0.916, 14.326, -32.838, 136.774, -11.953, -15.033, -28.880, 29.1, 0.31808, 0.30206, 0.00845, 0.89856,
 17:13:04.646,f6:90:cc:01:6d:25, 2015-01-01 03:34:15.700, 0.915, 0.072, 0.321, -1.099, 3.479, 0.122, 15.359, -72.092, 179.786, -28.507, -13.900, -6.347, 31.97, 0.07767, -0.58139, -0.1066, -0.8028,
 17:13:04.646,f6:90:cc:01:6d:25, 2015-01-01 03:34:15.700, 0.92, 0.08, 0.324, -0.916, 3.784, -0.732, 15.282, -72.021, 179.846, -28.507, -13.900, -6.347, 31.97, 0.07767, -0.58139, -0.1066, -0.8028,
 17:13:04.646,f6:90:cc:01:6d:25, 2015-01-01 03:34:15.700, 0.915, 0.08, 0.323, -1.221, 3.662, -1.343, 15.244, -71.938, 179.879, -28.507, -13.900, -6.347, 31.97, 0.07767, -0.58139, -0.1066, -0.8028,
 17:13:04.646,f6:90:cc:01:6d:25, 2015-01-01 03:34:15.700, 0.92, 0.08, 0.324, -0.916, 3.784, -0.732, 15.282, -72.021, 179.846, -28.507, -13.900, -6.347, 31.97, 0.07767, -0.58139, -0.1066, -0.8028,
 17:13:04.665,e3:ca:2d:fd:e0:8c, 2015-01-01 03:34:24.180, 0.988, -0.206, 0.087, -1.221, 3.662, 1.892, -75.635, -77.937, -126.755, -27.820, -7.800, -7.373, 29.7, -0.06778, -0.65585, 0.19873, -0.72501,
 17:13:04.665,e3:ca:2d:fd:e0:8c, 2015-01-01 03:34:24.180, 0.987, -0.201, 0.092, -0.061, 4.15, 0.916, -75.273, -77.893, -127.145, -27.820, -7.800, -7.373, 29.7, -0.06778, -0.65585, 0.19873, -0.72501,
 17:13:04.665,e3:ca:2d:fd:e0:8c, 2015-01-01 03:34:24.180, 0.988, -0.193, 0.092, 0.61, 4.15, 0.183, -74.855, -77.866, -127.568, -27.820, -7.800, -7.373, 29.7, -0.06778, -0.65585, 0.19873, -0.72501,
 17:13:04.665,e3:ca:2d:fd:e0:8c, 2015-01-01 03:34:24.180, 0.987, -0.201, 0.092, -0.061, 4.15, 0.916, -75.273, -77.893, -127.145, -27.820, -7.800, -7.373, 29.7, -0.06778, -0.65585, 0.19873, -0.72501,
 17:13:04.665,e3:ca:2d:fd:e0:8c, 2015-01-01 03:34:24.180, 0.988, -0.193, 0.092, 0.61, 4.15, 0.183, -74.855, -77.866, -127.568, -27.820, -7.800, -7.373, 29.7, -0.06778, -0.65585, 0.19873, -0.72501,
 17:13:04.665,e3:ca:2d:fd:e0:8c, 2015-01-01 03:34:24.180, 0.988, -0.195, 0.087, 0.732, 3.784, -0.427, -74.432, -77.849, -127.98, -27.820, -7.800, -7.373, 29.7, -0.06778, -0.65585, 0.19873, -0.72501,
 17:13:04.665,e3:ca:2d:fd:e0:8c, 2015-01-01 03:34:24.180, 0.988, -0.204, 0.076, 0.488, 3.052, -0.854, -74.059, -77.849, -128.342, -27.820, -7.800, -7.373, 29.7, -0.06778, -0.65585, 0.19873, -0.72501,
 17:13:04.665,e3:ca:2d:fd:e0:8c, 2015-01-01 03:34:24.180, 0.988, -0.195, 0.087, 0.732, 3.784, -0.427, -74.432, -77.849, -127.98, -27.820, -7.800, -7.373, 29.7, -0.06778, -0.65585, 0.19873, -0.72501,
 17:13:04.670,ed:40:fe:65:30:6c, 2015-01-01 03:34:29.265, 0.558, 0.116, 0.805, -0.549, 2.93, -0.427, 8.937, -35.667, -135.242, -19.393, -12.620, -5.447, 26.59, -0.38348, 0.25497, 0.18558, 0.86798,
 17:13:04.670,ed:40:fe:65:30:6c, 2015-01-01 03:34:29.265, 0.555, 0.124, 0.814, -0.183, 2.93, -0.488, 8.921, -35.607, -135.242, -19.393, -12.620, -5.447, 26.59, -0.38348, 0.25497, 0.18558, 0.86798,
 17:13:04.670,ed:40:fe:65:30:6c, 2015-01-01 03:34:29.265, 0.558, 0.127, 0.819, 0.122, 2.38, -0.427, 8.915, -35.552, -135.236, -19.393, -12.620, -5.447, 26.59, -0.38348, 0.25497, 0.18558, 0.86798,
 17:13:04.670,ed:40:fe:65:30:6c, 2015-01-01 03:34:29.265, 0.555, 0.124, 0.814, -0.183, 2.93, -0.488, 8.921, -35.607, -135.242, -19.393, -12.620, -5.447, 26.59, -0.38348, 0.25497, 0.18558, 0.86798,
 17:13:04.672,ed:35:33:d3:6c:f8, 2015-01-01 03:34:05.230, 0.524, 0.201, 0.803, 2.93, 4.761, 0.977, 14.359, -32.767, 136.818, -11.953, -15.033, -28.880, 29.1, 0.31808, 0.30206, 0.00845, 0.89856,
 17:13:04.672,ed:35:33:d3:6c:f8, 2015-01-01 03:34:05.230, 0.517, 0.21, 0.821, 2.38, 6.897, 0.061, 14.381, -32.646, 136.879, -11.953, -15.033, -28.880, 29.1, 0.31808, 0.30206, 0.00845, 0.89856,
 17:13:04.672,ed:35:33:d3:6c:f8, 2015-01-01 03:34:05.230, 0.524, 0.211, 0.828, 1.892, 7.874, -0.549, 14.403, -32.498, 136.928, -11.953, -15.033, -28.880, 29.1, 0.31808, 0.30206, 0.00845, 0.89856,
 17:13:04.672,ed:35:33:d3:6c:f8, 2015-01-01 03:34:05.230, 0.517, 0.21, 0.821, 2.38, 6.897, 0.061, 14.381, -32.646, 136.879, -11.953, -15.033, -28.880, 29.1, 0.31808, 0.30206, 0.00845, 0.89856,
 17:13:04.675,f6:90:cc:01:6d:25, 2015-01-01 03:34:15.700, 0.923, 0.08, 0.323, -1.221, 3.662, -1.343, 15.244, -71.938, 179.879, -28.507, -13.900, -6.347, 31.97, 0.07712, -0.5831, -0.10684, -0.80157,
 17:13:04.675,f6:90:cc:01:6d:25, 2015-01-01 03:34:15.700, 0.922, 0.076, 0.315, -1.099, 3.174, -1.465, 15.233, -71.856, 179.907, -28.507, -13.900, -6.347, 31.97, 0.07712, -0.5831, -0.10684, -0.80157,
 17:13:04.675,f6:90:cc:01:6d:25, 2015-01-01 03:34:15.700, 0.923, 0.067, 0.308, 0, 2.258, -1.099, 15.238, -71.785, 179.918, -28.507, -13.900, -6.347, 31.97, 0.07712, -0.5831, -0.10684, -0.80157,
 17:13:04.675,f6:90:cc:01:6d:25, 2015-01-01 03:34:15.700, 0.922, 0.076, 0.315, -1.099, 3.174, -1.465, 15.233, -71.856, 179.907, -28.507, -13.900, -6.347, 31.97, 0.07712, -0.5831, -0.10684, -0.80157,
 17:13:04.695,e3:ca:2d:fd:e0:8c, 2015-01-01 03:34:24.180, 0.984, -0.204, 0.076, 0.488, 3.052, -0.854, -74.059, -77.849, -128.342, -27.820, -7.800, -7.373, 29.7, -0.06778, -0.65585, 0.19873, -0.72501,
 17:13:04.695,e3:ca:2d:fd:e0:8c, 2015-01-01 03:34:24.180, 0.98, -0.216, 0.066, 1.343, 1.953, -1.16, -73.762, -77.855, -128.606, -27.820, -7.800, -7.373, 29.7, -0.06778, -0.65585, 0.19873, -0.72501,
 17:13:04.695,e3:ca:2d:fd:e0:8c, 2015-01-01 03:34:24.180, 0.984, -0.221, 0.051, 3.357, 0.427, -1.404, -73.564, -77.871, -128.716, -27.820, -7.800, -7.373, 29.7, -0.06778, -0.65585, 0.19873, -0.72501,
 17:13:04.695,e3:ca:2d:fd:e0:8c, 2015-01-01 03:34:24.180, 0.98, -0.216, 0.066, 1.343, 1.953, -1.16, -73.762, -77.855, -128.606, -27.820, -7.800, -7.373, 29.7, -0.06778, -0.65585, 0.19873, -0.72501,
 17:13:04.705,f6:90:cc:01:6d:25, 2015-01-01 03:34:15.700, 0.922, 0.067, 0.308, 0, 2.258, -1.099, 15.238, -71.785, 179.918, -28.507, -13.900, -6.347, 31.97, 0.07712, -0.5831, -0.10684, -0.80157,
 17:13:04.705,f6:90:cc:01:6d:25, 2015-01-01 03:34:15.700, 0.918, 0.062, 0.298, 1.953, 1.16, -0.488, 15.26, -71.741, 179.923, -28.507, -13.900, -6.347, 31.97, 0.07712, -0.5831, -0.10684, -0.80157,
 17:13:04.705,f6:90:cc:01:6d:25, 2015-01-01 03:34:15.700, 0.922, 0.066, 0.288, 3.235, 0, 0, 15.293, -71.719, 179.94, -28.507, -13.900, -6.347, 31.97, 0.07712, -0.5831, -0.10684, -0.80157,
 17:13:04.705,f6:90:cc:01:6d:25, 2015-01-01 03:34:15.700, 0.918, 0.062, 0.298, 1.953, 1.16, -0.488, 15.26, -71.741, 179.923, -28.507, -13.900, -6.347, 31.97, 0.07712, -0.5831, -0.10684, -0.80157,
 17:13:04.729,ed:40:fe:65:30:6c, 2015-01-01 03:34:29.625, 0.556, 0.127, 0.819, 0.122, 2.38, -0.427, 8.915, -35.552, -135.236, -19.393, -12.620, -5.447, 26.59, -0.38348, 0.25497, 0.18558, 0.86798,
 17:13:04.729,ed:40:fe:65:30:6c, 2015-01-01 03:34:29.625, 0.561, 0.127, 0.82, 0, 1.404, -0.183, 8.91, -35.513, -135.236, -19.393, -12.620, -5.447, 26.59, -0.38348, 0.25497, 0.18558, 0.86798,
 17:13:04.729,ed:40:fe:65:30:6c, 2015-01-01 03:34:29.625, 0.556, 0.127, 0.811, 0.61, 0.122, 0.427, 8.91, -35.491, -135.231, -19.393, -12.620, -5.447, 26.59, -0.38348, 0.25497, 0.18558, 0.86798,
 17:13:04.729,ed:40:fe:65:30:6c, 2015-01-01 03:34:29.625, 0.561, 0.127, 0.82, 0, 1.404, -0.183, 8.91, -35.513, -135.236, -19.393, -12.620, -5.447, 26.59, -0.38348, 0.25497, 0.18558, 0.86798,
 17:13:04.733,ed:35:33:d3:6c:f8, 2015-01-01 03:34:05.230, 0.512, 0.211, 0.828, 1.892, 7.874, -0.549, 14.403, -32.498, 136.928, -11.953, -15.033, -28.880, 29.1, 0.31808, 0.30206, 0.00845, 0.89856,
 17:13:04.733,ed:35:33:d3:6c:f8, 2015-01-01 03:34:05.230, 0.515, 0.217, 0.826, 1.282, 8.423, -1.16, 14.414, -32.327, 136.961, -11.953, -15.033, -28.880, 29.1, 0.31808, 0.30206, 0.00845, 0.89856,
 17:13:04.733,ed:35:33:d3:6c:f8, 2015-01-01 03:34:05.230, 0.512, 0.217, 0.828, 1.892, 7.69, -0.61, 14.436, -32.168, 137.005, -11.953, -15.033, -28.880, 29.1, 0.31808, 0.30206, 0.00845, 0.89856,
 17:13:04.733,ed:35:33:d3:6c:f8, 2015-01-01 03:34:05.230, 0.515, 0.217, 0.826, 1.282, 8.423, -1.16, 14.414, -32.327, 136.961, -11.953, -15.033, -28.880, 29.1, 0.31808, 0.30206, 0.00845, 0.89856,
 17:13:04.759,ed:40:fe:65:30:6c, 2015-01-01 03:34:29.625, 0.562, 0.127, 0.811, 0.61, 0.122, 0.427, 8.91, -35.491, -135.231, -19.393, -12.620, -5.447, 26.59, -0.38348, 0.25497, 0.18558, 0.86798,
 17:13:04.759,ed:40:fe:65:30:6c, 2015-01-01 03:34:29.625, 0.572, 0.125, 0.806, 0.916, -0.61, 1.099, 8.91, -35.491, -135.203, -19.393, -12.620, -5.447, 26.59, -0.38348, 0.25497, 0.18558, 0.86798,
 17:13:04.759,ed:40:fe:65:30:6c, 2015-01-01 03:34:29.625, 0.562, 0.124, 0.806, 0.793, -1.404, 1.587, 8.91, -35.508, -135.165, -19.393, -12.620, -5.447, 26.59, -0.38348, 0.25497, 0.18558, 0.86798,
 17:13:04.759,ed:40:fe:65:30:6c, 2015-01-01 03:34:29.625, 0.572, 0.125, 0.806, 0.916, -0.61, 1.099, 8.91, -35.491, -135.203, -19.393, -12.620, -5.447, 26.59, -0.38348, 0.25497, 0.18558, 0.86798,
 17:13:04.763,ed:35:33:d3:6c:f8, 2015-01-01 03:34:05.230, 0.507, 0.217, 0.828, 1.892, 7.69, -0.61, 14.436, -32.168, 137.005, -11.953, -15.033, -28.880, 29.1, 0.31808, 0.30206, 0.00845, 0.89856,
 17:13:04.763,ed:35:33:d3:6c:f8, 2015-01-01 03:34:05.230, 0.517, 0.213, 0.825, 2.441, 6.287, -0.366, 14.464, -32.036, 137.016, -11.953, -15.033, -28.880, 29.1, 0.31808, 0.30206, 0.00845, 0.89856,
 17:13:04.763,ed:35:33:d3:6c:f8, 2015-01-01 03:34:05.230, 0.507, 0.22, 0.827, 2.502, 4.761, 1.282, 14.485, -31.937, 137.032, -11.953, -15.033, -28.880, 29.1, 0.31808, 0.30206, 0.00845, 0.89856,
 17:13:04.763,ed:35:33:d3:6c:f8, 2015-01-01 03:34:05.230, 0.517, 0.213, 0.825, 2.441, 6.287, -0.366, 14.464, -32.036, 137.016, -11.953, -15.033, -28.880, 29.1, 0.31808, 0.30206, 0.00845, 0.89856,
 17:13:04.765,f6:90:cc:01:6d:25, 2015-01-01 03:34:16.060, 0.917, 0.066, 0.288, 3.235, 0, 0, 15.293, -71.719, 179.94, -28.507, -13.900, -6.347, 31.97, 0.07712, -0.5831, -0.10684, -0.80157,
 17:13:04.765,f6:90:cc:01:6d:25, 2015-01-01 03:34:16.060, 0.927, 0.076, 0.281, 3.235, -1.221, 0.244, 15.342, -71.73, 179.962, -28.507, -13.900, -6.347, 31.97, 0.07712, -0.5831, -0.10684, -0.80157,
 17:13:04.765,f6:90:cc:01:6d:25, 2015-01-01 03:34:16.060, 0.917, 0.085, 0.274, 2.38, -2.38, 0.122, 15.397, -71.763, 179.962, -28.507, -13.900, -6.347, 31.97, 0.07712, -0.5831, -0.10684, -0.80157,
 17:13:04.765,f6:90:cc:01:6d:25, 2015-01-01 03:34:16.060, 0.927, 0.076, 0.281, 3.235, -1.221, 0.244, 15.342, -71.73, 179.962, -28.507, -13.900, -6.347, 31.97, 0.07712, -0.5831, -0.10684, -0.80157,
 17:13:04.785,e3:ca:2d:fd:e0:8c, 2015-01-01 03:34:24.180, 0.976, -0.221, 0.051, 3.357, 0.427, -1.404, -73.564, -77.871, -128.716, -27.820, -7.800, -7.373, 29.7, -0.06778, -0.65585, 0.19873, -0.72501,
 17:13:04.785,e3:ca:2d:fd:e0:8c, 2015-01-01 03:34:24.180, 0.972, -0.219, 0.045, 3.967, -1.099, -1.16, -73.504, -77.899, -128.661, -27.820, -7.800, -7.373, 29.7, -0.06778, -0.65585, 0.19873, -0.72501,
 17:13:04.785,e3:ca:2d:fd:e0:8c, 2015-01-01 03:34:24.180, 0.976, -0.207, 0.034, 3.601, -2.625, -0.854, -73.603, -77.921, -128.474, -27.820, -7.800, -7.373, 29.7, -0.06778, -0.65585, 0.19873, -0.72501,
 17:13:04.785,e3:ca:2d:fd:e0:8c, 2015-01-01 03:34:24.180, 0.972, -0.219, 0.045, 3.967, -1.099, -1.16, -73.504, -77.899, -128.661, -27.807, -7.800, -7.373, 29.7, -0.06778, -0.65585, 0.19873, -0.72501,
 17:13:04.785,e3:ca:2d:fd:e0:8c, 2015-01-01 03:34:24.180, 0.982, -0.207, 0.034, 3.601, -2.625, -0.854, -73.603, -77.921, -128.474, -27.807, -7.867, -6.900, 29.7, -0.06778, -0.65585, 0.19873, -0.72501,
 17:13:04.785,e3:ca:2d:fd:e0:8c, 2015-01-01 03:34:24.180, 0.997, -0.197, 0.031, 2.075, -3.967, -0.671, -73.872, -77.953, -128.134, -27.807, -7.867, -6.900, 29.7, -0.06778, -0.65585, 0.19873, -0.72501,
 17:13:04.785,e3:ca:2d:fd:e0:8c, 2015-01-01 03:34:24.180, 0.982, -0.187, 0.025, 1.16, -4.578, -0.488, -74.251, -77.986, -127.722, -27.807, -7.867, -6.900, 29.7, -0.06778, -0.65585, 0.19873, -0.72501,
 17:13:04.785,e3:ca:2d:fd:e0:8c, 2015-01-01 03:34:24.180, 0.997, -0.197, 0.031, 2.075, -3.967, -0.671, -73.872, -77.953, -128.134, -27.807, -7.867, -6.900, 29.7, -0.06778, -0.65585, 0.19873, -0.72501,
 17:13:04.789,ed:40:fe:65:30:6c, 2015-01-01 03:34:29.625, 0.591, 0.124, 0.806, 0.793, -1.404, 1.587, 8.91, -35.508, -135.165, -19.393, -12.620, -5.447, 26.59, -0.38348, 0.25497, 0.18558, 0.86798,
 17:13:04.789,ed:40:fe:65:30:6c, 2015-01-01 03:34:29.625, 0.604, 0.125, 0.801, 1.465, -1.709, 1.831, 8.91, -35.535, -135.126, -19.393, -12.620, -5.447, 26.59, -0.38348, 0.25497, 0.18558, 0.86798,
 17:13:04.789,ed:40:fe:65:30:6c, 2015-01-01 03:34:29.625, 0.591, 0.127, 0.807, 1.465, -1.77, 1.465, 8.921, -35.568, -135.082, -19.393, -12.620, -5.447, 26.59, -0.38348, 0.25497, 0.18558, 0.86798,
 17:13:04.789,ed:40:fe:65:30:6c, 2015-01-01 03:34:29.625, 0.604, 0.125, 0.801, 1.465, -1.709, 1.831, 8.91, -35.535, -135.126, -19.393, -12.620, -5.447, 26.59, -0.38348, 0.25497, 0.18558, 0.86798,
 17:13:04.794,f6:90:cc:01:6d:25, 2015-01-01 03:34:16.060, 0.94, 0.085, 0.274, 2.38, -2.38, 0.122, 15.397, -71.763, 179.962, -28.507, -13.900, -6.347, 31.97, 0.07712, -0.5831, -0.10684, -0.80157,
 17:13:04.794,f6:90:cc:01:6d:25, 2015-01-01 03:34:16.060, 0.954, 0.098, 0.266, 1.587, -3.174, -0.061, 15.469, -71.818, 179.923, -28.507, -13.900, -6.347, 31.97, 0.07712, -0.5831, -0.10684, -0.80157,
 17:13:04.794,f6:90:cc:01:6d:25, 2015-01-01 03:34:16.060, 0.94, 0.106, 0.261, 0.488, -3.784, -0.183, 15.557, -71.889, 179.835, -28.507, -13.900, -6.347, 31.97, 0.07712, -0.5831, -0.10684, -0.80157,
 17:13:04.794,f6:90:cc:01:6d:25, 2015-01-01 03:34:16.060, 0.954, 0.098, 0.266, 1.587, -3.174, -0.061, 15.469, -71.818, 179.923, -28.507, -13.900, -6.347, 31.97, 0.07712, -0.5831, -0.10684, -0.80157,
 17:13:04.822,ed:35:33:d3:6c:f8, 2015-01-01 03:34:05.230, 0.533, 0.22, 0.827, 2.502, 4.761, 1.282, 14.485, -31.937, 137.032, -11.953, -15.033, -28.880, 29.1, 0.31808, 0.30206, 0.00845, 0.89856,
 17:13:04.822,ed:35:33:d3:6c:f8, 2015-01-01 03:34:05.230, 0.537, 0.217, 0.838, 0.732, 2.197, 1.526, 14.485, -31.888, 137.049, -11.953, -15.033, -28.880, 29.1, 0.31808, 0.30206, 0.00845, 0.89856,
 17:13:04.822,ed:35:33:d3:6c:f8, 2015-01-01 03:34:05.230, 0.533, 0.212, 0.843, -1.343, -1.343, 1.404, 14.453, -31.899, 137.054, -11.953, -15.033, -28.880, 29.1, 0.31808, 0.30206, 0.00845, 0.89856,
 17:13:04.822,ed:35:33:d3:6c:f8, 2015-01-01 03:34:05.230, 0.537, 0.217, 0.838, 0.732, 2.197, 1.526, 14.485, -31.888, 137.049, -11.953, -15.033, -28.880, 29.1, 0.31808, 0.30206, 0.00845, 0.89856,
 17:13:04.828,f6:90:cc:01:6d:25, 2015-01-01 03:34:16.060, 0.967, 0.106, 0.261, 0.488, -3.784, -0.183, 15.557, -71.889, 179.835, -28.507, -13.900, -6.347, 31.97, 0.07712, -0.5831, -0.10684, -0.80157,
 17:13:04.828,f6:90:cc:01:6d:25, 2015-01-01 03:34:16.060, 0.974, 0.095, 0.266, -0.305, -3.967, 0.061, 15.634, -71.966, 179.731, -28.507, -13.900, -6.347, 31.97, 0.07712, -0.5831, -0.10684, -0.80157,
 17:13:04.828,f6:90:cc:01:6d:25, 2015-01-01 03:34:16.060, 0.967, 0.071, 0.274, -0.305, -3.723, 0.671, 15.688, -72.048, 179.643, -28.507, -13.900, -6.347, 31.97, 0.07712, -0.5831, -0.10684, -0.80157,
 17:13:04.828,f6:90:cc:01:6d:25, 2015-01-01 03:34:16.060, 0.974, 0.095, 0.266, -0.305, -3.967, 0.061, 15.634, -71.966, 179.731, -28.507, -13.900, -6.347, 31.97, 0.07712, -0.5831, -0.10684, -0.80157,
 17:13:04.846,e3:ca:2d:fd:e0:8c, 2015-01-01 03:34:24.180, 1.01, -0.187, 0.025, 1.16, -4.578, -0.488, -74.251, -77.986, -127.722, -27.807, -7.867, -6.900, 29.7, -0.06778, -0.65585, 0.19873, -0.72501,
 17:13:04.846,e3:ca:2d:fd:e0:8c, 2015-01-01 03:34:24.180, 1.022, -0.184, 0.02, -0.244, -4.517, -0.244, -74.685, -78.019, -127.293, -27.807, -7.867, -6.900, 29.7, -0.06778, -0.65585, 0.19873, -0.72501,
 17:13:04.846,e3:ca:2d:fd:e0:8c, 2015-01-01 03:34:24.180, 1.01, -0.197, 0.022, -1.404, -4.028, 0, -75.119, -78.047, -126.887, -27.807, -7.867, -6.900, 29.7, -0.06778, -0.65585, 0.19873, -0.72501,
 17:13:04.846,e3:ca:2d:fd:e0:8c, 2015-01-01 03:34:24.180, 1.022, -0.184, 0.02, -0.244, -4.517, -0.244, -74.685, -78.019, -127.293, -27.807, -7.867, -6.900, 29.7, -0.06778, -0.65585, 0.19873, -0.72501,
 17:13:04.850,ed:40:fe:65:30:6c, 2015-01-01 03:34:29.625, 0.614, 0.127, 0.807, 1.465, -1.77, 1.465, 8.921, -35.568, -135.082, -19.393, -12.620, -5.447, 26.59, -0.38348, 0.25497, 0.18558, 0.86798,
 17:13:04.850,ed:40:fe:65:30:6c, 2015-01-01 03:34:29.625, 0.62, 0.132, 0.812, 0.366, -2.136, 0.488, 8.926, -35.612, -135.06, -19.393, -12.620, -5.447, 26.59, -0.38348, 0.25497, 0.18558, 0.86798,
 17:13:04.850,ed:40:fe:65:30:6c, 2015-01-01 03:34:29.625, 0.614, 0.129, 0.809, 0.305, -2.441, -0.183, 8.937, -35.662, -135.06, -19.393, -12.620, -5.447, 26.59, -0.38348, 0.25497, 0.18558, 0.86798,
 17:13:04.850,ed:40:fe:65:30:6c, 2015-01-01 03:34:29.625, 0.62, 0.132, 0.812, 0.366, -2.136, 0.488, 8.926, -35.612, -135.06, -19.393, -12.620, -5.447, 26.59, -0.38348, 0.25497, 0.18558, 0.86798,
 17:13:04.854,ed:35:33:d3:6c:f8, 2015-01-01 03:34:05.230, 0.545, 0.212, 0.843, -1.343, -1.343, 1.404, 14.453, -31.899, 137.054, -11.953, -15.033, -28.880, 29.1, 0.31808, 0.30206, 0.00845, 0.89856,
 17:13:04.854,ed:35:33:d3:6c:f8, 2015-01-01 03:34:05.230, 0.552, 0.216, 0.841, -2.075, -4.944, 0.183, 14.42, -31.976, 137.032, -11.953, -15.033, -28.880, 29.1, 0.31808, 0.30206, 0.00845, 0.89856,
 17:13:04.854,ed:35:33:d3:6c:f8, 2015-01-01 03:34:05.230, 0.545, 0.221, 0.835, -2.075, -7.751, 0, 14.403, -32.108, 136.978, -11.953, -15.033, -28.880, 29.1, 0.31808, 0.30206, 0.00845, 0.89856,
 17:13:04.854,ed:35:33:d3:6c:f8, 2015-01-01 03:34:05.230, 0.552, 0.216, 0.841, -2.075, -4.944, 0.183, 14.42, -31.976, 137.032, -11.953, -15.033, -28.880, 29.1, 0.31808, 0.30206, 0.00845, 0.89856,
 17:13:04.876,e3:ca:2d:fd:e0:8c, 2015-01-01 03:34:24.180, 1.025, -0.197, 0.022, -1.404, -4.028, 0, -75.119, -78.047, -126.887, -27.807, -7.867, -6.900, 29.7, -0.06778, -0.65585, 0.19873, -0.72501,
 17:13:04.876,e3:ca:2d:fd:e0:8c, 2015-01-01 03:34:24.180, 1.025, -0.224, 0.031, -1.648, -3.418, 0.122, -75.526, -78.063, -126.508, -27.807, -7.867, -6.900, 29.7, -0.06778, -0.65585, 0.19873, -0.72501,
 17:13:04.876,e3:ca:2d:fd:e0:8c, 2015-01-01 03:34:24.180, 1.025, -0.225, 0.038, -1.221, -2.747, 0.305, -75.872, -78.08, -126.178, -27.807, -7.867, -6.900, 29.7, -0.06778, -0.65585, 0.19873, -0.72501,
 17:13:04.876,e3:ca:2d:fd:e0:8c, 2015-01-01 03:34:24.180, 1.025, -0.224, 0.031, -1.648, -3.418, 0.122, -75.526, -78.063, -126.508, -27.807, -7.867, -6.900, 29.7, -0.06778, -0.65585, 0.19873, -0.72501,
 17:13:04.880,ed:40:fe:65:30:6c, 2015-01-01 03:34:29.625, 0.62, 0.129, 0.809, 0.305, -2.441, -0.183, 8.937, -35.662, -135.06, -19.393, -12.620, -5.447, 26.59, -0.38348, 0.25497, 0.18558, 0.86798,
 17:13:04.880,ed:40:fe:65:30:6c, 2015-01-01 03:34:29.625, 0.614, 0.118, 0.81, -0.366, -2.38, -0.061, 8.937, -35.711, -135.066, -19.393, -12.620, -5.447, 26.59, -0.38348, 0.25497, 0.18558, 0.86798,
 17:13:04.880,ed:40:fe:65:30:6c, 2015-01-01 03:34:29.625, 0.62, 0.116, 0.801, -1.038, -2.075, 0.244, 8.921, -35.76, -135.066, -19.393, -12.620, -5.447, 26.59, -0.38348, 0.25497, 0.18558, 0.86798,
 17:13:04.880,ed:40:fe:65:30:6c, 2015-01-01 03:34:29.625, 0.614, 0.118, 0.81, -0.366, -2.38, -0.061, 8.937, -35.711, -135.066, -19.393, -12.620, -5.447, 26.59, -0.38348, 0.25497, 0.18558, 0.86798,
 17:13:04.882,ed:35:33:d3:6c:f8, 2015-01-01 03:34:05.230, 0.556, 0.221, 0.835, -2.075, -7.751, 0, 14.403, -32.108, 136.978, -12.080, -14.253, -28.880, 29.1, 0.31808, 0.30206, 0.00845, 0.89856,
 17:13:04.882,ed:35:33:d3:6c:f8, 2015-01-01 03:34:05.230, 0.555, 0.214, 0.825, -2.563, -9.583, 1.038, 14.376, -32.289, 136.928, -12.080, -14.253, -28.880, 29.1, 0.31808, 0.30206, 0.00845, 0.89856,
 17:13:04.882,ed:35:33:d3:6c:f8, 2015-01-01 03:34:05.230, 0.556, 0.203, 0.81, -2.869, -10.071, 1.892, 14.332, -32.487, 136.917, -12.080, -14.253, -28.880, 29.1, 0.31808, 0.30206, 0.00845, 0.89856,
 17:13:04.882,ed:35:33:d3:6c:f8, 2015-01-01 03:34:05.230, 0.555, 0.214, 0.825, -2.563, -9.583, 1.038, 14.376, -32.289, 136.928, -12.080, -14.253, -28.880, 29.1, 0.31808, 0.30206, 0.00845, 0.89856,
 17:13:04.886,f6:90:cc:01:6d:25, 2015-01-01 03:34:16.060, 0.969, 0.071, 0.274, -0.305, -3.723, 0.671, 15.688, -72.048, 179.643, -28.507, -13.900, -6.347, 31.97, 0.07712, -0.5831, -0.10684, -0.80157,
 17:13:04.886,f6:90:cc:01:6d:25, 2015-01-01 03:34:16.060, 0.964, 0.072, 0.279, 0.366, -3.113, 0.916, 15.71, -72.131, 179.599, -28.507, -13.900, -6.347, 31.97, 0.07712, -0.5831, -0.10684, -0.80157,
 17:13:04.886,f6:90:cc:01:6d:25, 2015-01-01 03:34:16.060, 0.969, 0.087, 0.287, 0, -2.502, 0.793, 15.716, -72.197, 179.583, -28.507, -13.900, -6.347, 31.97, 0.07712, -0.5831, -0.10684, -0.80157,
 17:13:04.886,f6:90:cc:01:6d:25, 2015-01-01 03:34:16.060, 0.964, 0.072, 0.279, 0.366, -3.113, 0.916, 15.71, -72.131, 179.599, -28.507, -13.900, -6.347, 31.97, 0.07712, -0.5831, -0.10684, -0.80157,
 17:13:04.906,e3:ca:2d:fd:e0:8c, 2015-01-01 03:34:24.180, 1.025, -0.225, 0.038, -1.221, -2.747, 0.305, -75.872, -78.08, -126.178, -27.807, -7.867, -6.900, 29.7, -0.06778, -0.65585, 0.19873, -0.72501,
 17:13:04.906,e3:ca:2d:fd:e0:8c, 2015-01-01 03:34:24.180, 1.027, -0.208, 0.051, -1.709, -1.892, 0.427, -76.146, -78.08, -125.931, -27.807, -7.867, -6.900, 29.7, -0.06778, -0.65585, 0.19873, -0.72501,
 17:13:04.906,e3:ca:2d:fd:e0:8c, 2015-01-01 03:34:24.180, 1.025, -0.203, 0.061, -2.136, -0.488, 1.038, -76.311, -78.069, -125.804, -27.807, -7.867, -6.900, 29.7, -0.06778, -0.65585, 0.19873, -0.72501,
 17:13:04.906,e3:ca:2d:fd:e0:8c, 2015-01-01 03:34:24.180, 1.027, -0.208, 0.051, -1.709, -1.892, 0.427, -76.146, -78.08, -125.931, -27.807, -7.867, -6.900, 29.7, -0.06778, -0.65585, 0.19873, -0.72501,
 17:13:04.909,ed:40:fe:65:30:6c, 2015-01-01 03:34:29.625, 0.611, 0.116, 0.801, -1.038, -2.075, 0.244, 8.921, -35.76, -135.066, -19.227, -12.180, -5.413, 26.59, -0.38348, 0.25497, 0.18558, 0.86798,
 17:13:04.909,ed:40:fe:65:30:6c, 2015-01-01 03:34:29.625, 0.601, 0.125, 0.794, -0.366, -0.977, 0.366, 8.904, -35.793, -135.066, -19.227, -12.180, -5.413, 26.59, -0.38348, 0.25497, 0.18558, 0.86798,
 17:13:04.909,ed:40:fe:65:30:6c, 2015-01-01 03:34:29.625, 0.611, 0.121, 0.782, 0.854, 0.122, 0.488, 8.91, -35.804, -135.06, -19.227, -12.180, -5.413, 26.59, -0.38348, 0.25497, 0.18558, 0.86798,
 17:13:04.909,ed:40:fe:65:30:6c, 2015-01-01 03:34:29.625, 0.601, 0.125, 0.794, -0.366, -0.977, 0.366, 8.904, -35.793, -135.066, -19.227, -12.180, -5.413, 26.59, -0.38348, 0.25497, 0.18558, 0.86798,
 17:13:04.937,e3:ca:2d:fd:e0:8c, 2015-01-01 03:34:24.180, 1.012, -0.203, 0.061, -2.136, -0.488, 1.038, -76.311, -78.069, -125.804, -27.807, -7.867, -6.900, 29.7, -0.06778, -0.65585, 0.19873, -0.72501,
 17:13:04.937,e3:ca:2d:fd:e0:8c, 2015-01-01 03:34:24.180, 0.998, -0.202, 0.073, -1.831, 1.038, 1.526, -76.3, -78.036, -125.843, -27.807, -7.867, -6.900, 29.7, -0.06778, -0.65585, 0.19873, -0.72501,
 17:13:04.937,e3:ca:2d:fd:e0:8c, 2015-01-01 03:34:24.180, 1.012, -0.202, 0.083, -0.732, 2.197, 1.16, -76.13, -78.003, -126.024, -27.807, -7.867, -6.900, 29.7, -0.06778, -0.65585, 0.19873, -0.72501,
 17:13:04.937,e3:ca:2d:fd:e0:8c, 2015-01-01 03:34:24.180, 0.998, -0.202, 0.073, -1.831, 1.038, 1.526, -76.3, -78.036, -125.843, -27.807, -7.867, -6.900, 29.7, -0.06778, -0.65585, 0.19873, -0.72501,
 17:13:04.943,ed:35:33:d3:6c:f8, 2015-01-01 03:34:05.230, 0.551, 0.203, 0.81, -2.869, -10.071, 1.892, 14.332, -32.487, 136.917, -12.080, -14.253, -28.880, 29.1, 0.31808, 0.30206, 0.00845, 0.89856,
 17:13:04.943,ed:35:33:d3:6c:f8, 2015-01-01 03:34:05.230, 0.548, 0.205, 0.792, -1.648, -9.277, 1.221, 14.304, -32.673, 136.901, -12.080, -14.253, -28.880, 29.1, 0.31808, 0.30206, 0.00845, 0.89856,
 17:13:04.943,ed:35:33:d3:6c:f8, 2015-01-01 03:34:05.230, 0.551, 0.203, 0.777, -0.305, -7.812, 0.977, 14.31, -32.838, 136.868, -12.080, -14.253, -28.880, 29.1, 0.31808, 0.30206, 0.00845, 0.89856,
 17:13:04.943,ed:35:33:d3:6c:f8, 2015-01-01 03:34:05.230, 0.548, 0.205, 0.792, -1.648, -9.277, 1.221, 14.304, -32.673, 136.901, -12.080, -14.253, -28.880, 29.1, 0.31808, 0.30206, 0.00845, 0.89856,
 17:13:04.944,f6:90:cc:01:6d:25, 2015-01-01 03:34:16.060, 0.958, 0.087, 0.287, 0, -2.502, 0.793, 15.716, -72.197, 179.583, -28.507, -13.900, -6.347, 31.97, 0.07712, -0.5831, -0.10684, -0.80157,
 17:13:04.944,f6:90:cc:01:6d:25, 2015-01-01 03:34:16.060, 0.941, 0.089, 0.29, -0.305, -1.404, 0.854, 15.705, -72.246, 179.544, -28.507, -13.900, -6.347, 31.97, 0.07712, -0.5831, -0.10684, -0.80157,
 17:13:04.944,f6:90:cc:01:6d:25, 2015-01-01 03:34:16.060, 0.958, 0.083, 0.3, -0.427, 0, 0.793, 15.667, -72.274, 179.517, -28.507, -13.900, -6.347, 31.97, 0.07712, -0.5831, -0.10684, -0.80157,
 17:13:04.944,f6:90:cc:01:6d:25, 2015-01-01 03:34:16.060, 0.941, 0.089, 0.29, -0.305, -1.404, 0.854, 15.705, -72.246, 179.544, -28.507, -13.900, -6.347, 31.97, 0.07712, -0.5831, -0.10684, -0.80157,
 17:13:04.968,ed:40:fe:65:30:6c, 2015-01-01 03:34:29.625, 0.583, 0.121, 0.782, 0.854, 0.122, 0.488, 8.91, -35.804, -135.06, -19.227, -12.180, -5.413, 26.59, -0.38348, 0.25497, 0.18558, 0.86798,
 17:13:04.968,ed:40:fe:65:30:6c, 2015-01-01 03:34:29.625, 0.574, 0.112, 0.779, 0.732, 0.916, 0.366, 8.915, -35.799, -135.06, -19.227, -12.180, -5.413, 26.59, -0.38348, 0.25497, 0.18558, 0.86798,
 17:13:04.968,ed:40:fe:65:30:6c, 2015-01-01 03:34:29.625, 0.583, 0.112, 0.786, 0.122, 1.404, 0.122, 8.91, -35.788, -135.06, -19.227, -12.180, -5.413, 26.59, -0.38348, 0.25497, 0.18558, 0.86798,
 17:13:04.968,ed:40:fe:65:30:6c, 2015-01-01 03:34:29.625, 0.574, 0.112, 0.779, 0.732, 0.916, 0.366, 8.915, -35.799, -135.06, -19.227, -12.180, -5.413, 26.59, -0.38348, 0.25497, 0.18558, 0.86798,
 17:13:04.972,ed:35:33:d3:6c:f8, 2015-01-01 03:34:05.230, 0.533, 0.203, 0.777, -0.305, -7.812, 0.977, 14.31, -32.838, 136.868, -12.080, -14.253, -28.880, 29.1, 0.31714, 0.30316, 0.00882, 0.89853,
 17:13:04.972,ed:35:33:d3:6c:f8, 2015-01-01 03:34:05.230, 0.53, 0.197, 0.774, 0.671, -5.737, 1.587, 14.321, -32.97, 136.862, -12.080, -14.253, -28.880, 29.1, 0.31714, 0.30316, 0.00882, 0.89853,
 17:13:04.972,ed:35:33:d3:6c:f8, 2015-01-01 03:34:05.230, 0.533, 0.196, 0.775, 2.686, -2.686, 1.831, 14.354, -33.047, 136.901, -12.080, -14.253, -28.880, 29.1, 0.31714, 0.30316, 0.00882, 0.89853,
 17:13:04.972,ed:35:33:d3:6c:f8, 2015-01-01 03:34:05.230, 0.53, 0.197, 0.774, 0.671, -5.737, 1.587, 14.321, -32.97, 136.862, -12.080, -14.253, -28.880, 29.1, 0.31714, 0.30316, 0.00882, 0.89853,
 17:13:04.974,f6:90:cc:01:6d:25, 2015-01-01 03:34:16.060, 0.929, 0.083, 0.3, -0.427, 0, 0.793, 15.667, -72.274, 179.517, -28.113, -13.933, -6.227, 31.97, 0.07712, -0.5831, -0.10684, -0.80157,
 17:13:04.974,f6:90:cc:01:6d:25, 2015-01-01 03:34:16.060, 0.923, 0.077, 0.309, -0.549, 1.221, 0.488, 15.612, -72.268, 179.5, -28.113, -13.933, -6.227, 31.97, 0.07712, -0.5831, -0.10684, -0.80157,
 17:13:04.974,f6:90:cc:01:6d:25, 2015-01-01 03:34:16.060, 0.929, 0.075, 0.312, -0.671, 2.197, 0, 15.562, -72.235, 179.5, -28.113, -13.933, -6.227, 31.97, 0.07712, -0.5831, -0.10684, -0.80157,
 17:13:04.974,f6:90:cc:01:6d:25, 2015-01-01 03:34:16.060, 0.923, 0.077, 0.309, -0.549, 1.221, 0.488, 15.612, -72.268, 179.5, -28.113, -13.933, -6.227, 31.97, 0.07712, -0.5831, -0.10684, -0.80157,
 17:13:04.995,e3:ca:2d:fd:e0:8c, 2015-01-01 03:34:24.180, 0.99, -0.202, 0.083, -0.732, 2.197, 1.16, -76.13, -78.003, -126.024, -27.807, -7.867, -6.900, 29.7, -0.06778, -0.65585, 0.19873, -0.72501,
 17:13:04.995,e3:ca:2d:fd:e0:8c, 2015-01-01 03:34:24.180, 0.993, -0.203, 0.086, 0.183, 2.808, 0.427, -75.855, -77.986, -126.293, -27.807, -7.867, -6.900, 29.7, -0.06778, -0.65585, 0.19873, -0.72501,
 17:13:04.995,e3:ca:2d:fd:e0:8c, 2015-01-01 03:34:24.180, 0.99, -0.196, 0.086, 0.854, 3.296, -0.122, -75.504, -77.97, -126.623, -27.807, -7.867, -6.900, 29.7, -0.06778, -0.65585, 0.19873, -0.72501,
 17:13:04.995,e3:ca:2d:fd:e0:8c, 2015-01-01 03:34:24.180, 0.993, -0.203, 0.086, 0.183, 2.808, 0.427, -75.855, -77.986, -126.293, -27.807, -7.867, -6.900, 29.7, -0.06778, -0.65585, 0.19873, -0.72501,
 17:13:04.998,ed:40:fe:65:30:6c, 2015-01-01 03:34:29.625, 0.571, 0.112, 0.786, 0.122, 1.404, 0.122, 8.91, -35.788, -135.06, -19.227, -12.180, -5.413, 26.59, -0.38461, 0.25494, 0.18546, 0.86752,
 17:13:04.998,ed:40:fe:65:30:6c, 2015-01-01 03:34:29.625, 0.572, 0.113, 0.79, -0.488, 1.404, 0, 8.893, -35.766, -135.077, -19.227, -12.180, -5.413, 26.59, -0.38461, 0.25494, 0.18546, 0.86752,
 17:13:04.998,ed:40:fe:65:30:6c, 2015-01-01 03:34:29.625, 0.571, 0.121, 0.797, -0.244, 2.014, -0.061, 8.882, -35.733, -135.099, -19.227, -12.180, -5.413, 26.59, -0.38461, 0.25494, 0.18546, 0.86752,
 17:13:04.998,ed:40:fe:65:30:6c, 2015-01-01 03:34:29.625, 0.572, 0.113, 0.79, -0.488, 1.404, 0, 8.893, -35.766, -135.077, -19.227, -12.180, -5.413, 26.59, -0.38461, 0.25494, 0.18546, 0.86752,
 17:13:05.003,ed:35:33:d3:6c:f8, 2015-01-01 03:34:05.230, 0.54, 0.196, 0.775, 2.686, -2.686, 1.831, 14.354, -33.047, 136.901, -12.080, -14.253, -28.880, 29.1, 0.31714, 0.30316, 0.00882, 0.89853,
 17:13:05.003,ed:35:33:d3:6c:f8, 2015-01-01 03:34:05.230, 0.536, 0.199, 0.782, 3.479, 0.61, 1.16, 14.403, -33.058, 136.95, -12.080, -14.253, -28.880, 29.1, 0.31714, 0.30316, 0.00882, 0.89853,
 17:13:05.003,ed:35:33:d3:6c:f8, 2015-01-01 03:34:05.230, 0.54, 0.211, 0.795, 3.113, 3.235, 0.122, 14.453, -33.014, 137.005, -12.080, -14.253, -28.880, 29.1, 0.31714, 0.30316, 0.00882, 0.89853,
 17:13:05.003,ed:35:33:d3:6c:f8, 2015-01-01 03:34:05.230, 0.536, 0.199, 0.782, 3.479, 0.61, 1.16, 14.403, -33.058, 136.95, -12.080, -14.253, -28.880, 29.1, 0.31714, 0.30316, 0.00882, 0.89853,
 17:13:05.032,ed:40:fe:65:30:6c, 2015-01-01 03:34:29.625, 0.571, 0.121, 0.797, -0.244, 2.014, -0.061, 8.882, -35.733, -135.099, -19.227, -12.180, -5.413, 26.59, -0.38461, 0.25494, 0.18546, 0.86752,
 17:13:05.032,ed:40:fe:65:30:6c, 2015-01-01 03:34:29.625, 0.567, 0.127, 0.805, 0.122, 2.625, -0.244, 8.871, -35.689, -135.121, -19.227, -12.180, -5.413, 26.59, -0.38461, 0.25494, 0.18546, 0.86752,
 17:13:05.032,ed:40:fe:65:30:6c, 2015-01-01 03:34:29.625, 0.571, 0.132, 0.815, 0.488, 2.747, -0.305, 8.877, -35.634, -135.137, -19.227, -12.180, -5.413, 26.59, -0.38461, 0.25494, 0.18546, 0.86752,
 17:13:05.032,ed:40:fe:65:30:6c, 2015-01-01 03:34:29.625, 0.567, 0.127, 0.805, 0.122, 2.625, -0.244, 8.871, -35.689, -135.121, -19.227, -12.180, -5.413, 26.59, -0.38461, 0.25494, 0.18546, 0.86752,
 17:13:05.036,f6:90:cc:01:6d:25, 2015-01-01 03:34:16.060, 0.925, 0.075, 0.312, -0.671, 2.197, 0, 15.562, -72.235, 179.5, -28.113, -13.933, -6.227, 31.97, 0.07712, -0.5831, -0.10684, -0.80157,
 17:13:05.036,f6:90:cc:01:6d:25, 2015-01-01 03:34:16.060, 0.93, 0.081, 0.315, -0.671, 3.052, -0.488, 15.518, -72.18, 179.5, -28.113, -13.933, -6.227, 31.97, 0.07712, -0.5831, -0.10684, -0.80157,
 17:13:05.036,f6:90:cc:01:6d:25, 2015-01-01 03:34:16.060, 0.925, 0.088, 0.317, -0.61, 3.601, -1.038, 15.491, -72.109, 179.495, -28.113, -13.933, -6.227, 31.97, 0.07712, -0.5831, -0.10684, -0.80157,
 17:13:05.036,f6:90:cc:01:6d:25, 2015-01-01 03:34:16.060, 0.93, 0.081, 0.315, -0.671, 3.052, -0.488, 15.518, -72.18, 179.5, -28.113, -13.933, -6.227, 31.97, 0.07712, -0.5831, -0.10684, -0.80157,
 17:13:05.036,f6:90:cc:01:6d:25, 2015-01-01 03:34:16.060, 0.933, 0.088, 0.317, -0.61, 3.601, -1.038, 15.491, -72.109, 179.495, -28.113, -13.933, -6.227, 31.97, 0.07712, -0.5831, -0.10684, -0.80157,
 17:13:05.036,f6:90:cc:01:6d:25, 2015-01-01 03:34:16.060, 0.931, 0.088, 0.319, -0.732, 3.662, -1.343, 15.485, -72.026, 179.473, -28.113, -13.933, -6.227, 31.97, 0.07712, -0.5831, -0.10684, -0.80157,
 17:13:05.036,f6:90:cc:01:6d:25, 2015-01-01 03:34:16.060, 0.933, 0.084, 0.311, -0.732, 3.357, -1.16, 15.485, -71.944, 179.429, -28.113, -13.933, -6.227, 31.97, 0.07712, -0.5831, -0.10684, -0.80157,
 17:13:05.036,f6:90:cc:01:6d:25, 2015-01-01 03:34:16.060, 0.931, 0.088, 0.319, -0.732, 3.662, -1.343, 15.485, -72.026, 179.473, -28.113, -13.933, -6.227, 31.97, 0.07712, -0.5831, -0.10684, -0.80157,
 17:13:05.056,e3:ca:2d:fd:e0:8c, 2015-01-01 03:34:24.180, 1, -0.196, 0.086, 0.854, 3.296, -0.122, -75.504, -77.97, -126.623, -27.807, -7.867, -6.900, 29.7, -0.06778, -0.65585, 0.19873, -0.72501,
 17:13:05.056,e3:ca:2d:fd:e0:8c, 2015-01-01 03:34:24.180, 1.003, -0.19, 0.084, 1.16, 3.357, -0.488, -75.114, -77.964, -126.969, -27.807, -7.867, -6.900, 29.7, -0.06778, -0.65585, 0.19873, -0.72501,
 17:13:05.056,e3:ca:2d:fd:e0:8c, 2015-01-01 03:34:24.180, 1, -0.195, 0.082, 1.038, 3.296, -0.732, -74.729, -77.959, -127.321, -27.807, -7.867, -6.900, 29.7, -0.06778, -0.65585, 0.19873, -0.72501,
 17:13:05.056,e3:ca:2d:fd:e0:8c, 2015-01-01 03:34:24.180, 1.003, -0.19, 0.084, 1.16, 3.357, -0.488, -75.114, -77.964, -126.969, -27.807, -7.867, -6.900, 29.7, -0.06778, -0.65585, 0.19873, -0.72501,
 17:13:05.056,e3:ca:2d:fd:e0:8c, 2015-01-01 03:34:24.180, 0.997, -0.195, 0.082, 1.038, 3.296, -0.732, -74.729, -77.959, -127.321, -27.807, -7.867, -6.900, 29.7, -0.06778, -0.65585, 0.19873, -0.72501,
 17:13:05.056,e3:ca:2d:fd:e0:8c, 2015-01-01 03:34:24.180, 0.99, -0.203, 0.073, 0.977, 3.052, -0.671, -74.366, -77.959, -127.639, -27.807, -7.867, -6.900, 29.7, -0.06778, -0.65585, 0.19873, -0.72501,
 17:13:05.056,e3:ca:2d:fd:e0:8c, 2015-01-01 03:34:24.180, 0.997, -0.211, 0.061, 1.404, 2.319, -0.61, -74.07, -77.959, -127.886, -27.807, -7.867, -6.900, 29.7, -0.06778, -0.65585, 0.19873, -0.72501,
 17:13:05.056,e3:ca:2d:fd:e0:8c, 2015-01-01 03:34:24.180, 0.99, -0.203, 0.073, 0.977, 3.052, -0.671, -74.366, -77.959, -127.639, -27.807, -7.867, -6.900, 29.7, -0.06778, -0.65585, 0.19873, -0.72501,
 17:13:05.064,ed:35:33:d3:6c:f8, 2015-01-01 03:34:05.585, 0.529, 0.211, 0.795, 3.113, 3.235, 0.122, 14.453, -33.014, 137.005, -12.080, -14.253, -28.880, 29.1, 0.31714, 0.30316, 0.00882, 0.89853,
 17:13:05.064,ed:35:33:d3:6c:f8, 2015-01-01 03:34:05.585, 0.529, 0.217, 0.81, 2.136, 5.493, 0.366, 14.485, -32.921, 137.049, -12.080, -14.253, -28.880, 29.1, 0.31714, 0.30316, 0.00882, 0.89853,
 17:13:05.064,ed:35:33:d3:6c:f8, 2015-01-01 03:34:05.585, 0.529, 0.22, 0.818, 2.93, 7.263, 0, 14.518, -32.794, 137.093, -12.080, -14.253, -28.880, 29.1, 0.31714, 0.30316, 0.00882, 0.89853,
 17:13:05.064,ed:35:33:d3:6c:f8, 2015-01-01 03:34:05.585, 0.529, 0.217, 0.81, 2.136, 5.493, 0.366, 14.485, -32.921, 137.049, -12.080, -14.253, -28.880, 29.1, 0.31714, 0.30316, 0.00882, 0.89853,
 17:13:05.090,ed:40:fe:65:30:6c, 2015-01-01 03:34:29.980, 0.564, 0.132, 0.815, 0.488, 2.747, -0.305, 8.877, -35.634, -135.137, -19.227, -12.180, -5.413, 26.59, -0.38461, 0.25494, 0.18546, 0.86752,
 17:13:05.090,ed:40:fe:65:30:6c, 2015-01-01 03:34:29.980, 0.564, 0.134, 0.816, 0.854, 2.136, -0.244, 8.888, -35.59, -135.154, -19.227, -12.180, -5.413, 26.59, -0.38461, 0.25494, 0.18546, 0.86752,
 17:13:05.090,ed:40:fe:65:30:6c, 2015-01-01 03:34:29.980, 0.564, 0.131, 0.815, 0.977, 1.343, 0, 8.904, -35.557, -135.159, -19.227, -12.180, -5.413, 26.59, -0.38461, 0.25494, 0.18546, 0.86752,
 17:13:05.090,ed:40:fe:65:30:6c, 2015-01-01 03:34:29.980, 0.564, 0.134, 0.816, 0.854, 2.136, -0.244, 8.888, -35.59, -135.154, -19.227, -12.180, -5.413, 26.59, -0.38461, 0.25494, 0.18546, 0.86752,
 17:13:05.092,ed:35:33:d3:6c:f8, 2015-01-01 03:34:05.585, 0.524, 0.22, 0.818, 2.93, 7.263, 0, 14.518, -32.794, 137.093, -12.080, -14.253, -28.880, 29.1, 0.31714, 0.30316, 0.00882, 0.89853,
 17:13:05.092,ed:35:33:d3:6c:f8, 2015-01-01 03:34:05.585, 0.516, 0.223, 0.825, 2.563, 8.057, -0.183, 14.546, -32.64, 137.137, -12.080, -14.253, -28.880, 29.1, 0.31714, 0.30316, 0.00882, 0.89853,
 17:13:05.092,ed:35:33:d3:6c:f8, 2015-01-01 03:34:05.585, 0.524, 0.221, 0.829, 2.686, 7.568, -0.122, 14.579, -32.492, 137.181, -12.080, -14.253, -28.880, 29.1, 0.31714, 0.30316, 0.00882, 0.89853,
 17:13:05.092,ed:35:33:d3:6c:f8, 2015-01-01 03:34:05.585, 0.516, 0.223, 0.825, 2.563, 8.057, -0.183, 14.546, -32.64, 137.137, -12.080, -14.253, -28.880, 29.1, 0.31714, 0.30316, 0.00882, 0.89853,
 17:13:05.096,f6:90:cc:01:6d:25, 2015-01-01 03:34:16.060, 0.928, 0.084, 0.311, -0.732, 3.357, -1.16, 15.485, -71.944, 179.429, -28.113, -13.933, -6.227, 31.97, 0.07584, -0.5838, -0.10641, -0.80127,
 17:13:05.096,f6:90:cc:01:6d:25, 2015-01-01 03:34:16.060, 0.927, 0.074, 0.303, -0.183, 2.747, -0.671, 15.48, -71.873, 179.423, -28.113, -13.933, -6.227, 31.97, 0.07584, -0.5838, -0.10641, -0.80127,
 17:13:05.096,f6:90:cc:01:6d:25, 2015-01-01 03:34:16.060, 0.928, 0.065, 0.295, 0.671, 1.892, 0, 15.458, -71.829, 179.456, -28.113, -13.933, -6.227, 31.97, 0.07584, -0.5838, -0.10641, -0.80127,
 17:13:05.096,f6:90:cc:01:6d:25, 2015-01-01 03:34:16.060, 0.927, 0.074, 0.303, -0.183, 2.747, -0.671, 15.48, -71.873, 179.423, -28.113, -13.933, -6.227, 31.97, 0.07584, -0.5838, -0.10641, -0.80127,
 17:13:05.116,e3:ca:2d:fd:e0:8c, 2015-01-01 03:34:24.180, 0.984, -0.211, 0.061, 1.404, 2.319, -0.61, -74.07, -77.959, -127.886, -27.807, -7.867, -6.900, 29.7, -0.06778, -0.65585, 0.19873, -0.72501,
 17:13:05.116,e3:ca:2d:fd:e0:8c, 2015-01-01 03:34:24.180, 0.979, -0.22, 0.052, 2.014, 1.282, -0.427, -73.878, -77.959, -128.035, -27.807, -7.867, -6.900, 29.7, -0.06778, -0.65585, 0.19873, -0.72501,
 17:13:05.116,e3:ca:2d:fd:e0:8c, 2015-01-01 03:34:24.180, 0.984, -0.22, 0.04, 2.563, 0.122, -0.305, -73.795, -77.959, -128.073, -27.807, -7.867, -6.900, 29.7, -0.06778, -0.65585, 0.19873, -0.72501,
 17:13:05.116,e3:ca:2d:fd:e0:8c, 2015-01-01 03:34:24.180, 0.979, -0.22, 0.052, 2.014, 1.282, -0.427, -73.878, -77.959, -128.035, -27.807, -7.867, -6.900, 29.7, -0.06778, -0.65585, 0.19873, -0.72501,
 17:13:05.120,ed:40:fe:65:30:6c, 2015-01-01 03:34:29.980, 0.565, 0.131, 0.815, 0.977, 1.343, 0, 8.904, -35.557, -135.159, -19.227, -12.180, -5.413, 26.59, -0.38461, 0.25494, 0.18546, 0.86752,
 17:13:05.120,ed:40:fe:65:30:6c, 2015-01-01 03:34:29.980, 0.568, 0.125, 0.81, 1.16, 0.671, 0.732, 8.915, -35.535, -135.165, -19.227, -12.180, -5.413, 26.59, -0.38461, 0.25494, 0.18546, 0.86752,
 17:13:05.120,ed:40:fe:65:30:6c, 2015-01-01 03:34:29.980, 0.565, 0.12, 0.808, 1.221, -0.183, 1.526, 8.921, -35.535, -135.159, -19.227, -12.180, -5.413, 26.59, -0.38461, 0.25494, 0.18546, 0.86752,
 17:13:05.120,ed:40:fe:65:30:6c, 2015-01-01 03:34:29.980, 0.568, 0.125, 0.81, 1.16, 0.671, 0.732, 8.915, -35.535, -135.165, -19.227, -12.180, -5.413, 26.59, -0.38461, 0.25494, 0.18546, 0.86752,
 17:13:05.124,ed:35:33:d3:6c:f8, 2015-01-01 03:34:05.585, 0.518, 0.221, 0.829, 2.686, 7.568, -0.122, 14.579, -32.492, 137.181, -12.080, -14.253, -28.880, 29.1, 0.31714, 0.30316, 0.00882, 0.89853,
 17:13:05.124,ed:35:33:d3:6c:f8, 2015-01-01 03:34:05.585, 0.521, 0.218, 0.822, 3.052, 6.47, 1.587, 14.606, -32.366, 137.252, -12.080, -14.253, -28.880, 29.1, 0.31714, 0.30316, 0.00882, 0.89853,
 17:13:05.124,ed:35:33:d3:6c:f8, 2015-01-01 03:34:05.585, 0.518, 0.216, 0.823, 2.747, 5.554, 2.258, 14.617, -32.261, 137.318, -12.080, -14.253, -28.880, 29.1, 0.31714, 0.30316, 0.00882, 0.89853,
 17:13:05.124,ed:35:33:d3:6c:f8, 2015-01-01 03:34:05.585, 0.521, 0.218, 0.822, 3.052, 6.47, 1.587, 14.606, -32.366, 137.252, -12.080, -14.253, -28.880, 29.1, 0.31714, 0.30316, 0.00882, 0.89853,
 17:13:05.126,f6:90:cc:01:6d:25, 2015-01-01 03:34:16.445, 0.923, 0.065, 0.295, 0.671, 1.892, 0, 15.458, -71.829, 179.456, -28.113, -13.933, -6.227, 31.97, 0.07584, -0.5838, -0.10641, -0.80127,
 17:13:05.126,f6:90:cc:01:6d:25, 2015-01-01 03:34:16.445, 0.921, 0.063, 0.284, 1.465, 0.854, 0.427, 15.436, -71.801, 179.506, -28.113, -13.933, -6.227, 31.97, 0.07584, -0.5838, -0.10641, -0.80127,
 17:13:05.126,f6:90:cc:01:6d:25, 2015-01-01 03:34:16.445, 0.923, 0.069, 0.278, 1.648, -0.305, 0.61, 15.419, -71.807, 179.55, -28.113, -13.933, -6.227, 31.97, 0.07584, -0.5838, -0.10641, -0.80127,
 17:13:05.126,f6:90:cc:01:6d:25, 2015-01-01 03:34:16.445, 0.921, 0.063, 0.284, 1.465, 0.854, 0.427, 15.436, -71.801, 179.506, -28.113, -13.933, -6.227, 31.97, 0.07584, -0.5838, -0.10641, -0.80127,
 17:13:05.145,e3:ca:2d:fd:e0:8c, 2015-01-01 03:34:24.180, 0.976, -0.22, 0.04, 2.563, 0.122, -0.305, -73.795, -77.959, -128.073, -27.820, -7.980, -7.187, 29.7, -0.06778, -0.65585, 0.19873, -0.72501,
 17:13:05.145,e3:ca:2d:fd:e0:8c, 2015-01-01 03:34:24.180, 0.982, -0.211, 0.031, 2.319, -1.221, -0.305, -73.861, -77.97, -127.974, -27.820, -7.980, -7.187, 29.7, -0.06778, -0.65585, 0.19873, -0.72501,
 17:13:05.145,e3:ca:2d:fd:e0:8c, 2015-01-01 03:34:24.180, 0.976, -0.199, 0.028, 1.465, -2.38, -0.366, -74.059, -77.986, -127.771, -27.820, -7.980, -7.187, 29.7, -0.06778, -0.65585, 0.19873, -0.72501,
 17:13:05.145,e3:ca:2d:fd:e0:8c, 2015-01-01 03:34:24.180, 0.982, -0.211, 0.031, 2.319, -1.221, -0.305, -73.861, -77.97, -127.974, -27.820, -7.980, -7.187, 29.7, -0.06778, -0.65585, 0.19873, -0.72501,
 17:13:05.149,ed:40:fe:65:30:6c, 2015-01-01 03:34:29.980, 0.577, 0.12, 0.808, 1.221, -0.183, 1.526, 8.921, -35.535, -135.159, -19.227, -12.180, -5.413, 26.59, -0.38461, 0.25494, 0.18546, 0.86752,
 17:13:05.149,ed:40:fe:65:30:6c, 2015-01-01 03:34:29.980, 0.587, 0.116, 0.804, 1.587, -0.61, 2.258, 8.921, -35.546, -135.132, -19.227, -12.180, -5.413, 26.59, -0.38461, 0.25494, 0.18546, 0.86752,
 17:13:05.149,ed:40:fe:65:30:6c, 2015-01-01 03:34:29.980, 0.577, 0.118, 0.806, 2.686, -0.549, 2.502, 8.932, -35.557, -135.082, -19.227, -12.180, -5.413, 26.59, -0.38461, 0.25494, 0.18546, 0.86752,
 17:13:05.149,ed:40:fe:65:30:6c, 2015-01-01 03:34:29.980, 0.587, 0.116, 0.804, 1.587, -0.61, 2.258, 8.921, -35.546, -135.132, -19.227, -12.180, -5.413, 26.59, -0.38461, 0.25494, 0.18546, 0.86752,
 17:13:05.155,f6:90:cc:01:6d:25, 2015-01-01 03:34:16.445, 0.927, 0.069, 0.278, 1.648, -0.305, 0.61, 15.419, -71.807, 179.55, -28.113, -13.933, -6.227, 31.97, 0.07584, -0.5838, -0.10641, -0.80127,
 17:13:05.155,f6:90:cc:01:6d:25, 2015-01-01 03:34:16.445, 0.937, 0.079, 0.272, 1.587, -1.343, 0.305, 15.436, -71.829, 179.572, -28.113, -13.933, -6.227, 31.97, 0.07584, -0.5838, -0.10641, -0.80127,
 17:13:05.155,f6:90:cc:01:6d:25, 2015-01-01 03:34:16.445, 0.927, 0.09, 0.268, 1.221, -2.38, 0, 15.485, -71.873, 179.533, -28.113, -13.933, -6.227, 31.97, 0.07584, -0.5838, -0.10641, -0.80127,
 17:13:05.155,f6:90:cc:01:6d:25, 2015-01-01 03:34:16.445, 0.937, 0.079, 0.272, 1.587, -1.343, 0.305, 15.436, -71.829, 179.572, -28.113, -13.933, -6.227, 31.97, 0.07584, -0.5838, -0.10641, -0.80127,
 17:13:05.177,e3:ca:2d:fd:e0:8c, 2015-01-01 03:34:24.180, 0.995, -0.199, 0.028, 1.465, -2.38, -0.366, -74.059, -77.986, -127.771, -27.820, -7.980, -7.187, 29.7, -0.06778, -0.65585, 0.19873, -0.72501,
 17:13:05.177,e3:ca:2d:fd:e0:8c, 2015-01-01 03:34:24.180, 1.001, -0.189, 0.023, 0.549, -3.174, -0.488, -74.355, -78.014, -127.48, -27.820, -7.980, -7.187, 29.7, -0.06778, -0.65585, 0.19873, -0.72501,
 17:13:05.177,e3:ca:2d:fd:e0:8c, 2015-01-01 03:34:24.180, 0.995, -0.19, 0.023, -0.305, -3.601, -0.366, -74.718, -78.041, -127.139, -27.820, -7.980, -7.187, 29.7, -0.06778, -0.65585, 0.19873, -0.72501,
 17:13:05.177,e3:ca:2d:fd:e0:8c, 2015-01-01 03:34:24.180, 1.001, -0.189, 0.023, 0.549, -3.174, -0.488, -74.355, -78.014, -127.48, -27.820, -7.980, -7.187, 29.7, -0.06778, -0.65585, 0.19873, -0.72501,
 17:13:05.183,ed:35:33:d3:6c:f8, 2015-01-01 03:34:05.585, 0.522, 0.216, 0.823, 2.747, 5.554, 2.258, 14.617, -32.261, 137.318, -12.080, -14.253, -28.880, 29.1, 0.31714, 0.30316, 0.00882, 0.89853,
 17:13:05.183,ed:35:33:d3:6c:f8, 2015-01-01 03:34:05.585, 0.53, 0.211, 0.831, 1.953, 4.089, 3.296, 14.612, -32.184, 137.39, -12.080, -14.253, -28.880, 29.1, 0.31714, 0.30316, 0.00882, 0.89853,
 17:13:05.183,ed:35:33:d3:6c:f8, 2015-01-01 03:34:05.585, 0.522, 0.208, 0.836, 0.977, 1.77, 3.235, 14.59, -32.151, 137.466, -12.080, -14.253, -28.880, 29.1, 0.31714, 0.30316, 0.00882, 0.89853,
 17:13:05.183,ed:35:33:d3:6c:f8, 2015-01-01 03:34:05.585, 0.53, 0.211, 0.831, 1.953, 4.089, 3.296, 14.612, -32.184, 137.39, -12.080, -14.253, -28.880, 29.1, 0.31714, 0.30316, 0.00882, 0.89853,
 17:13:05.210,ed:40:fe:65:30:6c, 2015-01-01 03:34:29.980, 0.594, 0.118, 0.806, 2.686, -0.549, 2.502, 8.932, -35.557, -135.082, -19.227, -12.180, -5.413, 26.59, -0.38461, 0.25494, 0.18546, 0.86752,
 17:13:05.210,ed:40:fe:65:30:6c, 2015-01-01 03:34:29.980, 0.595, 0.119, 0.809, 2.197, -1.343, 2.197, 8.948, -35.585, -135.044, -19.227, -12.180, -5.413, 26.59, -0.38461, 0.25494, 0.18546, 0.86752,
 17:13:05.210,ed:40:fe:65:30:6c, 2015-01-01 03:34:29.980, 0.594, 0.129, 0.812, 1.282, -2.136, 1.16, 8.954, -35.629, -135.033, -19.227, -12.180, -5.413, 26.59, -0.38461, 0.25494, 0.18546, 0.86752,
 17:13:05.210,ed:40:fe:65:30:6c, 2015-01-01 03:34:29.980, 0.595, 0.119, 0.809, 2.197, -1.343, 2.197, 8.948, -35.585, -135.044, -19.227, -12.180, -5.413, 26.59, -0.38461, 0.25494, 0.18546, 0.86752,
 17:13:05.214,ed:35:33:d3:6c:f8, 2015-01-01 03:34:05.585, 0.537, 0.208, 0.836, 0.977, 1.77, 3.235, 14.59, -32.151, 137.466, -12.080, -14.253, -28.880, 29.1, 0.31714, 0.30316, 0.00882, 0.89853,
 17:13:05.214,ed:35:33:d3:6c:f8, 2015-01-01 03:34:05.585, 0.534, 0.202, 0.835, -0.916, -0.732, 2.747, 14.546, -32.168, 137.549, -12.080, -14.253, -28.880, 29.1, 0.31714, 0.30316, 0.00882, 0.89853,
 17:13:05.214,ed:35:33:d3:6c:f8, 2015-01-01 03:34:05.585, 0.537, 0.213, 0.831, -0.977, -3.113, 1.343, 14.513, -32.217, 137.593, -12.080, -14.253, -28.880, 29.1, 0.31714, 0.30316, 0.00882, 0.89853,
 17:13:05.214,ed:35:33:d3:6c:f8, 2015-01-01 03:34:05.585, 0.534, 0.202, 0.835, -0.916, -0.732, 2.747, 14.546, -32.168, 137.549, -12.080, -14.253, -28.880, 29.1, 0.31714, 0.30316, 0.00882, 0.89853,
 17:13:05.216,f6:90:cc:01:6d:25, 2015-01-01 03:34:16.445, 0.942, 0.09, 0.268, 1.221, -2.38, 0, 15.485, -71.873, 179.533, -28.113, -13.933, -6.227, 31.97, 0.07584, -0.5838, -0.10641, -0.80127,
 17:13:05.216,f6:90:cc:01:6d:25, 2015-01-01 03:34:16.445, 0.949, 0.097, 0.266, 0.977, -3.174, -0.366, 15.568, -71.933, 179.462, -28.113, -13.933, -6.227, 31.97, 0.07584, -0.5838, -0.10641, -0.80127,
 17:13:05.216,f6:90:cc:01:6d:25, 2015-01-01 03:34:16.445, 0.942, 0.098, 0.269, 0.244, -3.784, -0.183, 15.661, -72.01, 179.39, -28.113, -13.933, -6.227, 31.97, 0.07584, -0.5838, -0.10641, -0.80127,
 17:13:05.216,f6:90:cc:01:6d:25, 2015-01-01 03:34:16.445, 0.949, 0.097, 0.266, 0.977, -3.174, -0.366, 15.568, -71.933, 179.462, -28.113, -13.933, -6.227, 31.97, 0.07584, -0.5838, -0.10641, -0.80127,
