Time,Device name,Chip Time(),Acceleration X(g),Acceleration Y(g),Acceleration Z(g),Angular velocity X(°/s),Angular velocity Y(°/s),Angular velocity Z(°/s),Angle X(°),Angle Y(°),Angle Z(°),Magnetic field X(ʯt),Magnetic field Y(ʯt),Magnetic field Z(ʯt),Temperature(℃),Quaternions 0(),Quaternions 1(),Quaternions 2(),Quaternions 3()
 11:23:30.804,f6:90:cc:01:6d:25, 2015-01-01 00:48:02.760, 0.875, 0.288, 0.356, 0.061, 0.122, 0, 38.469, -62.386, 176.171, -25.967, -15.253, -5.780, 31.56, 0.14319, -0.49802, -0.26443, -0.81329,
 11:23:30.805,f6:90:cc:01:6d:25, 2015-01-01 00:48:02.760, 0.877, 0.285, 0.359, 0.183, 0.244, 0.061, 38.469, -62.386, 176.182, -25.967, -15.253, -5.780, 31.56, 0.14319, -0.49802, -0.26443, -0.81329,
 11:23:30.806,ed:40:fe:65:30:6c, 2015-01-01 00:47:53.970, 0.653, 0.44, 0.613, -0.427, 0.244, 0, 35.123, -40.908, -153.105, -18.720, -17.800, 0.060, 27.03, 0.31006, -0.25836, -0.35254, -0.84421,
 11:23:30.806,ed:40:fe:65:30:6c, 2015-01-01 00:47:53.970, 0.656, 0.437, 0.616, -0.122, 0.427, 0, 35.118, -40.902, -153.1, -18.720, -17.800, 0.060, 27.03, 0.31006, -0.25836, -0.35254, -0.84421,
 11:23:30.806,ed:35:33:d3:6c:f8, 2015-01-01 00:48:46.585, 0.647, 0.443, 0.612, -0.671, 0.183, 0, 35.359, -40.397, 140.949, -17.093, -18.953, -18.380, 31.32, 0.19885, 0.40509, 0.15942, 0.87796,
 11:23:30.806,ed:35:33:d3:6c:f8, 2015-01-01 00:48:46.585, 0.647, 0.443, 0.615, -0.366, 0.366, -0.061, 35.354, -40.391, 140.938, -17.093, -18.953, -18.380, 31.32, 0.19885, 0.40509, 0.15942, 0.87796,
 11:23:30.807,e3:ca:2d:fd:e0:8c, 2015-01-01 00:47:32.730, 0.823, 0.091, 0.589, 0.305, -0.061, 0, 8.806, -54.141, 172.101, -22.400, -9.960, -17.427, 27.53, -0.02652, -0.45724, -0.03668, -0.88812,
 11:23:30.807,e3:ca:2d:fd:e0:8c, 2015-01-01 00:47:32.730, 0.825, 0.094, 0.589, 0.061, 0, 0, 8.806, -54.141, 172.106, -22.400, -9.960, -17.427, 27.53, -0.02652, -0.45724, -0.03668, -0.88812,
 11:23:30.829,ed:35:33:d3:6c:f8, 2015-01-01 00:48:46.585, 0.644, 0.44, 0.622, 0.061, 0.427, 0.183, 35.349, -40.386, 140.933, -17.093, -18.953, -18.380, 31.32, 0.19885, 0.40509, 0.15942, 0.87796,
 11:23:30.829,ed:35:33:d3:6c:f8, 2015-01-01 00:48:46.585, 0.644, 0.437, 0.622, 0, 0.305, 0.366, 35.343, -40.38, 140.933, -17.093, -18.953, -18.380, 31.32, 0.19885, 0.40509, 0.15942, 0.87796,
 11:23:30.849,ed:40:fe:65:30:6c, 2015-01-01 00:47:53.970, 0.652, 0.437, 0.62, -0.061, 0.549, 0, 35.112, -40.891, -153.089, -18.720, -17.800, 0.060, 27.03, 0.31006, -0.25836, -0.35254, -0.84421,
 11:23:30.849,ed:40:fe:65:30:6c, 2015-01-01 00:47:53.970, 0.652, 0.432, 0.621, 0.122, 0.427, 0.305, 35.107, -40.886, -153.073, -18.720, -17.800, 0.060, 27.03, 0.31006, -0.25836, -0.35254, -0.84421,
 11:23:30.850,f6:90:cc:01:6d:25, 2015-01-01 00:48:02.760, 0.876, 0.283, 0.358, 0.427, 0, 0, 38.474, -62.386, 176.182, -25.967, -15.253, -5.780, 31.56, 0.14319, -0.49802, -0.26443, -0.81329,
 11:23:30.850,f6:90:cc:01:6d:25, 2015-01-01 00:48:02.760, 0.875, 0.284, 0.356, 0.244, 0, -0.061, 38.485, -62.386, 176.182, -25.967, -15.253, -5.780, 31.56, 0.14319, -0.49802, -0.26443, -0.81329,
 11:23:30.851,e3:ca:2d:fd:e0:8c, 2015-01-01 00:47:32.730, 0.825, 0.092, 0.59, 0, -0.122, 0, 8.806, -54.141, 172.117, -22.400, -9.960, -17.427, 27.53, -0.02652, -0.45724, -0.03668, -0.88812,
 11:23:30.851,e3:ca:2d:fd:e0:8c, 2015-01-01 00:47:32.730, 0.824, 0.092, 0.588, 0.122, -0.061, 0, 8.811, -54.141, 172.123, -22.400, -9.960, -17.427, 27.53, -0.02652, -0.45724, -0.03668, -0.88812,
 11:23:30.871,ed:40:fe:65:30:6c, 2015-01-01 00:47:53.970, 0.652, 0.432, 0.62, 0, 0.183, 0.366, 35.101, -40.891, -153.062, -18.720, -17.800, 0.060, 27.03, 0.31006, -0.25836, -0.35254, -0.84421,
 11:23:30.871,ed:40:fe:65:30:6c, 2015-01-01 00:47:53.970, 0.651, 0.435, 0.62, 0, 0, 0.244, 35.096, -40.891, -153.056, -18.720, -17.800, 0.060, 27.03, 0.31006, -0.25836, -0.35254, -0.84421,
 11:23:30.873,ed:35:33:d3:6c:f8, 2015-01-01 00:48:46.585, 0.643, 0.439, 0.621, 0, 0.061, 0.244, 35.338, -40.38, 140.927, -17.093, -18.953, -18.380, 31.32, 0.19885, 0.40509, 0.15942, 0.87796,
 11:23:30.873,ed:35:33:d3:6c:f8, 2015-01-01 00:48:46.585, 0.646, 0.439, 0.622, -0.061, -0.061, 0.122, 35.338, -40.386, 140.922, -17.093, -18.953, -18.380, 31.32, 0.19885, 0.40509, 0.15942, 0.87796,
 11:23:30.896,e3:ca:2d:fd:e0:8c, 2015-01-01 00:47:32.730, 0.823, 0.092, 0.588, 0.061, 0, 0, 8.811, -54.146, 172.128, -22.400, -9.960, -17.427, 27.53, -0.02652, -0.45724, -0.03668, -0.88812,
 11:23:30.896,e3:ca:2d:fd:e0:8c, 2015-01-01 00:47:32.730, 0.822, 0.092, 0.587, 0.061, -0.183, 0, 8.817, -54.146, 172.134, -22.400, -9.960, -17.427, 27.53, -0.02652, -0.45724, -0.03668, -0.88812,
 11:23:30.915,f6:90:cc:01:6d:25, 2015-01-01 00:48:02.760, 0.874, 0.287, 0.357, 0.061, 0, -0.122, 38.491, -62.386, 176.182, -25.967, -15.253, -5.780, 31.56, 0.14371, -0.49808, -0.26544, -0.81284,
 11:23:30.915,f6:90:cc:01:6d:25, 2015-01-01 00:48:02.760, 0.874, 0.286, 0.357, 0, -0.122, -0.061, 38.496, -62.386, 176.177, -25.967, -15.253, -5.780, 31.56, 0.14371, -0.49808, -0.26544, -0.81284,
 11:23:30.919,e3:ca:2d:fd:e0:8c, 2015-01-01 00:47:32.730, 0.823, 0.09, 0.588, 0.122, -0.244, 0, 8.817, -54.146, 172.139, -22.400, -9.960, -17.427, 27.53, -0.02652, -0.45724, -0.03668, -0.88812,
 11:23:30.919,e3:ca:2d:fd:e0:8c, 2015-01-01 00:47:32.730, 0.824, 0.09, 0.588, 0.122, -0.366, 0, 8.822, -54.152, 172.145, -22.400, -9.960, -17.427, 27.53, -0.02652, -0.45724, -0.03668, -0.88812,
 11:23:30.938,f6:90:cc:01:6d:25, 2015-01-01 00:48:03.115, 0.874, 0.284, 0.357, 0.244, -0.183, -0.061, 38.507, -62.386, 176.171, -25.967, -15.253, -5.780, 31.56, 0.14371, -0.49808, -0.26544, -0.81284,
 11:23:30.938,f6:90:cc:01:6d:25, 2015-01-01 00:48:03.115, 0.875, 0.284, 0.358, 0.427, -0.183, -0.061, 38.524, -62.391, 176.166, -25.967, -15.253, -5.780, 31.56, 0.14371, -0.49808, -0.26544, -0.81284,
 11:23:30.939,ed:40:fe:65:30:6c, 2015-01-01 00:47:53.970, 0.653, 0.434, 0.621, 0, -0.061, 0.122, 35.096, -40.891, -153.051, -18.720, -17.800, 0.060, 27.03, 0.31006, -0.25836, -0.35254, -0.84421,
 11:23:30.939,ed:40:fe:65:30:6c, 2015-01-01 00:47:53.970, 0.653, 0.434, 0.618, 0, -0.061, 0.183, 35.09, -40.897, -153.045, -18.720, -17.800, 0.060, 27.03, 0.31006, -0.25836, -0.35254, -0.84421,
 11:23:30.940,ed:35:33:d3:6c:f8, 2015-01-01 00:48:46.585, 0.646, 0.44, 0.619, -0.122, -0.061, 0.122, 35.332, -40.386, 140.911, -17.287, -19.180, -18.073, 31.32, 0.19885, 0.40509, 0.15942, 0.87796,
 11:23:30.940,ed:35:33:d3:6c:f8, 2015-01-01 00:48:46.585, 0.645, 0.438, 0.617, -0.061, 0, 0.183, 35.332, -40.391, 140.9, -17.287, -19.180, -18.073, 31.32, 0.19885, 0.40509, 0.15942, 0.87796,
 11:23:30.962,ed:40:fe:65:30:6c, 2015-01-01 00:47:53.970, 0.651, 0.432, 0.617, 0.061, 0.061, 0.244, 35.09, -40.897, -153.04, -18.587, -18.347, 0.367, 27.03, 0.31006, -0.25836, -0.35254, -0.84421,
 11:23:30.962,ed:40:fe:65:30:6c, 2015-01-01 00:47:53.970, 0.65, 0.433, 0.617, 0, 0.305, 0.305, 35.079, -40.891, -153.023, -18.587, -18.347, 0.367, 27.03, 0.31006, -0.25836, -0.35254, -0.84421,
 11:23:30.962,ed:35:33:d3:6c:f8, 2015-01-01 00:48:46.585, 0.643, 0.438, 0.617, -0.183, 0.183, 0.183, 35.327, -40.391, 140.894, -17.287, -19.180, -18.073, 31.32, 0.20053, 0.40527, 0.15826, 0.87772,
 11:23:30.962,ed:35:33:d3:6c:f8, 2015-01-01 00:48:46.585, 0.645, 0.438, 0.616, -0.183, 0.183, 0.244, 35.321, -40.391, 140.889, -17.287, -19.180, -18.073, 31.32, 0.20053, 0.40527, 0.15826, 0.87772,
 11:23:30.965,e3:ca:2d:fd:e0:8c, 2015-01-01 00:47:32.730, 0.824, 0.092, 0.588, 0.244, -0.244, 0, 8.828, -54.163, 172.15, -22.400, -9.960, -17.427, 27.53, -0.02652, -0.45724, -0.03668, -0.88812,
 11:23:30.965,e3:ca:2d:fd:e0:8c, 2015-01-01 00:47:32.730, 0.823, 0.094, 0.589, 0.183, -0.122, 0, 8.833, -54.163, 172.15, -22.400, -9.960, -17.427, 27.53, -0.02652, -0.45724, -0.03668, -0.88812,
 11:23:30.983,f6:90:cc:01:6d:25, 2015-01-01 00:48:03.115, 0.873, 0.284, 0.356, 0.305, -0.244, -0.061, 38.535, -62.391, 176.16, -25.967, -15.253, -5.780, 31.56, 0.14371, -0.49808, -0.26544, -0.81284,
 11:23:30.983,f6:90:cc:01:6d:25, 2015-01-01 00:48:03.115, 0.873, 0.286, 0.356, 0.183, -0.122, -0.061, 38.546, -62.397, 176.155, -25.967, -15.253, -5.780, 31.56, 0.14371, -0.49808, -0.26544, -0.81284,
 11:23:31.006,f6:90:cc:01:6d:25, 2015-01-01 00:48:03.115, 0.874, 0.288, 0.357, 0.183, 0, -0.122, 38.551, -62.391, 176.155, -25.967, -15.253, -5.780, 31.56, 0.14371, -0.49808, -0.26544, -0.81284,
 11:23:31.006,f6:90:cc:01:6d:25, 2015-01-01 00:48:03.115, 0.875, 0.287, 0.356, 0.183, 0.061, -0.061, 38.557, -62.391, 176.155, -25.967, -15.253, -5.780, 31.56, 0.14371, -0.49808, -0.26544, -0.81284,
 11:23:31.007,ed:40:fe:65:30:6c, 2015-01-01 00:47:53.970, 0.651, 0.433, 0.616, 0.061, 0.183, 0.305, 35.074, -40.891, -153.012, -18.587, -18.347, 0.367, 27.03, 0.31006, -0.25836, -0.35254, -0.84421,
 11:23:31.007,ed:40:fe:65:30:6c, 2015-01-01 00:47:53.970, 0.653, 0.434, 0.619, 0.183, 0.122, 0.244, 35.074, -40.891, -153.007, -18.587, -18.347, 0.367, 27.03, 0.31006, -0.25836, -0.35254, -0.84421,
 11:23:31.008,ed:35:33:d3:6c:f8, 2015-01-01 00:48:46.585, 0.645, 0.439, 0.618, 0, 0.122, 0.183, 35.31, -40.391, 140.883, -17.287, -19.180, -18.073, 31.32, 0.20053, 0.40527, 0.15826, 0.87772,
 11:23:31.008,ed:35:33:d3:6c:f8, 2015-01-01 00:48:46.585, 0.645, 0.44, 0.622, 0, 0, 0.183, 35.31, -40.391, 140.878, -17.287, -19.180, -18.073, 31.32, 0.20053, 0.40527, 0.15826, 0.87772,
 11:23:31.009,e3:ca:2d:fd:e0:8c, 2015-01-01 00:47:32.730, 0.823, 0.095, 0.588, 0.122, -0.061, 0, 8.839, -54.168, 172.156, -22.867, -9.593, -17.160, 27.53, -0.02652, -0.45724, -0.03668, -0.88812,
 11:23:31.009,e3:ca:2d:fd:e0:8c, 2015-01-01 00:47:32.730, 0.824, 0.093, 0.589, 0.061, -0.061, 0, 8.839, -54.168, 172.161, -22.867, -9.593, -17.160, 27.53, -0.02652, -0.45724, -0.03668, -0.88812,
 11:23:31.030,ed:40:fe:65:30:6c, 2015-01-01 00:47:53.970, 0.652, 0.435, 0.621, 0.122, 0, 0.183, 35.074, -40.897, -153.001, -18.587, -18.347, 0.367, 27.03, 0.31085, -0.258, -0.35226, -0.84415,
 11:23:31.030,ed:40:fe:65:30:6c, 2015-01-01 00:47:53.970, 0.655, 0.434, 0.617, 0, -0.061, 0.183, 35.074, -40.897, -152.996, -18.587, -18.347, 0.367, 27.03, 0.31085, -0.258, -0.35226, -0.84415,
 11:23:31.051,f6:90:cc:01:6d:25, 2015-01-01 00:48:03.115, 0.875, 0.287, 0.357, 0.244, 0.122, -0.061, 38.562, -62.386, 176.155, -25.967, -15.253, -5.780, 31.56, 0.14371, -0.49808, -0.26544, -0.81284,
 11:23:31.051,f6:90:cc:01:6d:25, 2015-01-01 00:48:03.115, 0.876, 0.287, 0.356, 0.305, 0.244, 0, 38.568, -62.386, 176.166, -25.967, -15.253, -5.780, 31.56, 0.14371, -0.49808, -0.26544, -0.81284,
 11:23:31.053,ed:35:33:d3:6c:f8, 2015-01-01 00:48:46.945, 0.647, 0.438, 0.619, -0.244, 0, 0.244, 35.305, -40.391, 140.867, -17.287, -19.180, -18.073, 31.32, 0.20053, 0.40527, 0.15826, 0.87772,
 11:23:31.053,ed:35:33:d3:6c:f8, 2015-01-01 00:48:46.945, 0.647, 0.439, 0.618, -0.244, 0, -0.061, 35.299, -40.391, 140.861, -17.287, -19.180, -18.073, 31.32, 0.20053, 0.40527, 0.15826, 0.87772,
 11:23:31.055,e3:ca:2d:fd:e0:8c, 2015-01-01 00:47:32.730, 0.825, 0.092, 0.588, 0, -0.061, 0, 8.844, -54.168, 172.167, -22.867, -9.593, -17.160, 27.53, -0.02554, -0.45755, -0.03751, -0.88797,
 11:23:31.055,e3:ca:2d:fd:e0:8c, 2015-01-01 00:47:32.730, 0.826, 0.091, 0.588, 0.061, -0.061, 0, 8.844, -54.168, 172.172, -22.867, -9.593, -17.160, 27.53, -0.02554, -0.45755, -0.03751, -0.88797,
 11:23:31.074,ed:40:fe:65:30:6c, 2015-01-01 00:47:53.970, 0.653, 0.436, 0.618, 0, 0.122, -0.061, 35.074, -40.891, -152.996, -18.587, -18.347, 0.367, 27.03, 0.31085, -0.258, -0.35226, -0.84415,
 11:23:31.074,ed:40:fe:65:30:6c, 2015-01-01 00:47:53.970, 0.652, 0.436, 0.616, 0.122, 0.244, 0, 35.074, -40.886, -152.99, -18.587, -18.347, 0.367, 27.03, 0.31085, -0.258, -0.35226, -0.84415,
 11:23:31.076,ed:35:33:d3:6c:f8, 2015-01-01 00:48:46.945, 0.645, 0.442, 0.616, 0, 0.122, -0.061, 35.299, -40.391, 140.85, -17.287, -19.180, -18.073, 31.32, 0.20053, 0.40527, 0.15826, 0.87772,
 11:23:31.076,ed:35:33:d3:6c:f8, 2015-01-01 00:48:46.945, 0.645, 0.439, 0.619, 0.061, 0.183, 0.061, 35.299, -40.391, 140.839, -17.287, -19.180, -18.073, 31.32, 0.20053, 0.40527, 0.15826, 0.87772,
 11:23:31.096,f6:90:cc:01:6d:25, 2015-01-01 00:48:03.115, 0.875, 0.287, 0.356, 0.183, 0.183, 0.061, 38.562, -62.38, 176.171, -25.967, -15.253, -5.780, 31.56, 0.14371, -0.49808, -0.26544, -0.81284,
 11:23:31.096,f6:90:cc:01:6d:25, 2015-01-01 00:48:03.115, 0.875, 0.285, 0.355, 0, 0, 0, 38.568, -62.38, 176.177, -25.967, -15.253, -5.780, 31.56, 0.14371, -0.49808, -0.26544, -0.81284,
 11:23:31.101,e3:ca:2d:fd:e0:8c, 2015-01-01 00:47:33.045, 0.825, 0.092, 0.586, 0.122, -0.061, 0, 8.849, -54.168, 172.178, -22.867, -9.593, -17.160, 27.53, -0.02554, -0.45755, -0.03751, -0.88797,
 11:23:31.102,e3:ca:2d:fd:e0:8c, 2015-01-01 00:47:33.045, 0.825, 0.093, 0.586, 0.061, 0, 0, 8.849, -54.168, 172.183, -22.867, -9.593, -17.160, 27.53, -0.02554, -0.45755, -0.03751, -0.88797,
 11:23:31.120,ed:40:fe:65:30:6c, 2015-01-01 00:47:54.330, 0.652, 0.434, 0.619, 0.183, 0.183, 0.183, 35.074, -40.886, -152.979, -18.587, -18.347, 0.367, 27.03, 0.31085, -0.258, -0.35226, -0.84415,
 11:23:31.120,ed:40:fe:65:30:6c, 2015-01-01 00:47:54.330, 0.653, 0.433, 0.619, 0.122, 0, 0.244, 35.074, -40.886, -152.974, -18.587, -18.347, 0.367, 27.03, 0.31085, -0.258, -0.35226, -0.84415,
 11:23:31.121,ed:35:33:d3:6c:f8, 2015-01-01 00:48:46.945, 0.646, 0.438, 0.62, 0.122, 0.061, 0.122, 35.299, -40.386, 140.828, -17.287, -19.180, -18.073, 31.32, 0.20053, 0.40527, 0.15826, 0.87772,
 11:23:31.121,ed:35:33:d3:6c:f8, 2015-01-01 00:48:46.945, 0.647, 0.436, 0.619, 0.061, 0, 0.122, 35.299, -40.386, 140.823, -17.287, -19.180, -18.073, 31.32, 0.20053, 0.40527, 0.15826, 0.87772,
 11:23:31.123,e3:ca:2d:fd:e0:8c, 2015-01-01 00:47:33.045, 0.825, 0.092, 0.587, 0, 0.061, 0, 8.855, -54.168, 172.189, -22.867, -9.593, -17.160, 27.53, -0.02554, -0.45755, -0.03751, -0.88797,
 11:23:31.123,e3:ca:2d:fd:e0:8c, 2015-01-01 00:47:33.045, 0.825, 0.09, 0.587, 0, 0, 0, 8.855, -54.168, 172.2, -22.867, -9.593, -17.160, 27.53, -0.02554, -0.45755, -0.03751, -0.88797,
 11:23:31.141,f6:90:cc:01:6d:25, 2015-01-01 00:48:03.115, 0.875, 0.286, 0.354, -0.061, -0.061, 0.061, 38.568, -62.386, 176.177, -25.967, -15.253, -5.780, 31.56, 0.14371, -0.49808, -0.26544, -0.81284,
 11:23:31.141,f6:90:cc:01:6d:25, 2015-01-01 00:48:03.115, 0.875, 0.286, 0.356, 0.061, 0, 0, 38.573, -62.386, 176.177, -25.967, -15.253, -5.780, 31.56, 0.14371, -0.49808, -0.26544, -0.81284,
 11:23:31.164,f6:90:cc:01:6d:25, 2015-01-01 00:48:03.115, 0.875, 0.283, 0.355, 0, 0, 0, 38.573, -62.386, 176.177, -25.900, -15.173, -5.320, 31.56, 0.14371, -0.49808, -0.26544, -0.81284,
 11:23:31.164,f6:90:cc:01:6d:25, 2015-01-01 00:48:03.115, 0.875, 0.286, 0.357, 0.244, 0.122, 0.061, 38.573, -62.386, 176.182, -25.900, -15.173, -5.320, 31.56, 0.14371, -0.49808, -0.26544, -0.81284,
 11:23:31.164,ed:40:fe:65:30:6c, 2015-01-01 00:47:54.330, 0.654, 0.432, 0.618, 0.183, 0, 0.122, 35.074, -40.891, -152.974, -18.587, -18.347, 0.367, 27.03, 0.31085, -0.258, -0.35226, -0.84415,
 11:23:31.164,ed:40:fe:65:30:6c, 2015-01-01 00:47:54.330, 0.653, 0.432, 0.618, 0.122, 0, 0.183, 35.074, -40.891, -152.968, -18.587, -18.347, 0.367, 27.03, 0.31085, -0.258, -0.35226, -0.84415,
 11:23:31.166,ed:35:33:d3:6c:f8, 2015-01-01 00:48:46.945, 0.646, 0.438, 0.619, 0.061, 0, 0.122, 35.299, -40.391, 140.817, -17.287, -19.180, -18.073, 31.32, 0.20053, 0.40527, 0.15826, 0.87772,
 11:23:31.166,ed:35:33:d3:6c:f8, 2015-01-01 00:48:46.945, 0.647, 0.438, 0.619, 0, 0, 0.183, 35.299, -40.391, 140.806, -17.287, -19.180, -18.073, 31.32, 0.20053, 0.40527, 0.15826, 0.87772,
 11:23:31.167,e3:ca:2d:fd:e0:8c, 2015-01-01 00:47:33.045, 0.824, 0.089, 0.588, 0, 0, 0, 8.855, -54.168, 172.205, -22.867, -9.593, -17.160, 27.53, -0.02554, -0.45755, -0.03751, -0.88797,
 11:23:31.167,e3:ca:2d:fd:e0:8c, 2015-01-01 00:47:33.045, 0.824, 0.091, 0.589, 0.061, 0, 0, 8.855, -54.168, 172.205, -22.867, -9.593, -17.160, 27.53, -0.02554, -0.45755, -0.03751, -0.88797,
 11:23:31.208,ed:40:fe:65:30:6c, 2015-01-01 00:47:54.330, 0.654, 0.434, 0.618, 0.122, 0, 0.244, 35.074, -40.891, -152.957, -18.587, -18.347, 0.367, 27.03, 0.31085, -0.258, -0.35226, -0.84415,
 11:23:31.208,ed:40:fe:65:30:6c, 2015-01-01 00:47:54.330, 0.653, 0.435, 0.618, 0.244, 0, 0.366, 35.068, -40.897, -152.952, -18.587, -18.347, 0.367, 27.03, 0.31085, -0.258, -0.35226, -0.84415,
 11:23:31.210,f6:90:cc:01:6d:25, 2015-01-01 00:48:03.115, 0.875, 0.286, 0.358, 0.244, 0.122, 0.061, 38.578, -62.386, 176.188, -25.900, -15.173, -5.320, 31.56, 0.14371, -0.49808, -0.26544, -0.81284,
 11:23:31.210,f6:90:cc:01:6d:25, 2015-01-01 00:48:03.115, 0.875, 0.286, 0.357, 0, 0.061, 0.061, 38.578, -62.386, 176.199, -25.900, -15.173, -5.320, 31.56, 0.14371, -0.49808, -0.26544, -0.81284,
 11:23:31.211,e3:ca:2d:fd:e0:8c, 2015-01-01 00:47:33.045, 0.823, 0.092, 0.589, 0.061, -0.061, 0, 8.855, -54.168, 172.211, -22.867, -9.593, -17.160, 27.53, -0.02554, -0.45755, -0.03751, -0.88797,
 11:23:31.211,e3:ca:2d:fd:e0:8c, 2015-01-01 00:47:33.045, 0.824, 0.093, 0.588, 0, -0.061, 0, 8.855, -54.168, 172.216, -22.867, -9.593, -17.160, 27.53, -0.02554, -0.45755, -0.03751, -0.88797,
 11:23:31.233,ed:40:fe:65:30:6c, 2015-01-01 00:47:54.330, 0.653, 0.433, 0.618, 0.061, 0.122, 0.305, 35.068, -40.897, -152.941, -18.587, -18.347, 0.367, 27.03, 0.31085, -0.258, -0.35226, -0.84415,
 11:23:31.233,ed:40:fe:65:30:6c, 2015-01-01 00:47:54.330, 0.651, 0.433, 0.617, 0.122, 0.183, 0.366, 35.063, -40.897, -152.93, -18.587, -18.347, 0.367, 27.03, 0.31085, -0.258, -0.35226, -0.84415,
 11:23:31.255,ed:35:33:d3:6c:f8, 2015-01-01 00:48:46.945, 0.646, 0.441, 0.618, 0.122, 0, 0.366, 35.299, -40.397, 140.801, -17.287, -19.180, -18.073, 31.32, 0.20053, 0.40527, 0.15826, 0.87772,
 11:23:31.256,ed:35:33:d3:6c:f8, 2015-01-01 00:48:46.945, 0.647, 0.438, 0.617, 0, 0.122, 0.244, 35.294, -40.397, 140.795, -17.287, -19.180, -18.073, 31.32, 0.20053, 0.40527, 0.15826, 0.87772,
 11:23:31.257,e3:ca:2d:fd:e0:8c, 2015-01-01 00:47:33.045, 0.825, 0.092, 0.588, 0, 0, 0, 8.855, -54.174, 172.222, -22.867, -9.593, -17.160, 27.53, -0.02554, -0.45755, -0.03751, -0.88797,
 11:23:31.257,e3:ca:2d:fd:e0:8c, 2015-01-01 00:47:33.045, 0.824, 0.092, 0.588, 0, 0.122, 0, 8.855, -54.168, 172.227, -22.867, -9.593, -17.160, 27.53, -0.02554, -0.45755, -0.03751, -0.88797,
 11:23:31.277,ed:40:fe:65:30:6c, 2015-01-01 00:47:54.330, 0.652, 0.434, 0.618, 0.061, 0.183, 0.244, 35.057, -40.897, -152.919, -18.587, -18.347, 0.367, 27.03, 0.31085, -0.258, -0.35226, -0.84415,
 11:23:31.277,ed:40:fe:65:30:6c, 2015-01-01 00:47:54.330, 0.653, 0.432, 0.619, 0.061, 0.122, 0.183, 35.052, -40.897, -152.913, -18.587, -18.347, 0.367, 27.03, 0.31085, -0.258, -0.35226, -0.84415,
 11:23:31.277,f6:90:cc:01:6d:25, 2015-01-01 00:48:03.115, 0.874, 0.287, 0.356, 0, 0, 0.061, 38.578, -62.386, 176.199, -25.900, -15.173, -5.320, 31.56, 0.1442, -0.49792, -0.2662, -0.81259,
 11:23:31.277,f6:90:cc:01:6d:25, 2015-01-01 00:48:03.115, 0.875, 0.286, 0.356, -0.122, 0.122, 0.122, 38.573, -62.386, 176.204, -25.900, -15.173, -5.320, 31.56, 0.1442, -0.49792, -0.2662, -0.81259,
 11:23:31.279,ed:35:33:d3:6c:f8, 2015-01-01 00:48:46.945, 0.644, 0.438, 0.617, 0.061, 0.305, 0.305, 35.288, -40.397, 140.795, -16.820, -19.040, -18.193, 31.32, 0.20053, 0.40527, 0.15826, 0.87772,
 11:23:31.279,ed:35:33:d3:6c:f8, 2015-01-01 00:48:46.945, 0.644, 0.438, 0.619, 0, 0.305, 0.244, 35.283, -40.397, 140.795, -16.820, -19.040, -18.193, 31.32, 0.20053, 0.40527, 0.15826, 0.87772,
 11:23:31.281,e3:ca:2d:fd:e0:8c, 2015-01-01 00:47:33.045, 0.825, 0.092, 0.587, 0, 0.183, 0, 8.855, -54.168, 172.233, -22.573, -10.080, -17.473, 27.53, -0.02554, -0.45755, -0.03751, -0.88797,
 11:23:31.281,e3:ca:2d:fd:e0:8c, 2015-01-01 00:47:33.045, 0.825, 0.093, 0.587, 0, 0.061, 0, 8.855, -54.163, 172.238, -22.573, -10.080, -17.473, 27.53, -0.02554, -0.45755, -0.03751, -0.88797,
 11:23:31.298,f6:90:cc:01:6d:25, 2015-01-01 00:48:03.475, 0.875, 0.286, 0.355, -0.183, 0.122, 0, 38.573, -62.38, 176.21, -25.900, -15.173, -5.320, 31.56, 0.1442, -0.49792, -0.2662, -0.81259,
 11:23:31.298,f6:90:cc:01:6d:25, 2015-01-01 00:48:03.475, 0.874, 0.285, 0.356, 0, 0.183, 0, 38.568, -62.38, 176.215, -25.900, -15.173, -5.320, 31.56, 0.1442, -0.49792, -0.2662, -0.81259,
 11:23:31.300,ed:35:33:d3:6c:f8, 2015-01-01 00:48:46.945, 0.645, 0.439, 0.619, 0, 0.183, 0.122, 35.283, -40.397, 140.795, -16.820, -19.040, -18.193, 31.32, 0.20053, 0.40527, 0.15826, 0.87772,
 11:23:31.300,ed:35:33:d3:6c:f8, 2015-01-01 00:48:46.945, 0.646, 0.438, 0.621, -0.061, 0.122, 0.122, 35.277, -40.397, 140.79, -16.820, -19.040, -18.193, 31.32, 0.20053, 0.40527, 0.15826, 0.87772,
 11:23:31.324,e3:ca:2d:fd:e0:8c, 2015-01-01 00:47:33.045, 0.825, 0.092, 0.587, 0, 0, 0, 8.86, -54.163, 172.244, -22.573, -10.080, -17.473, 27.53, -0.02554, -0.45755, -0.03751, -0.88797,
 11:23:31.324,e3:ca:2d:fd:e0:8c, 2015-01-01 00:47:33.045, 0.825, 0.092, 0.587, 0.061, -0.061, 0, 8.86, -54.163, 172.249, -22.573, -10.080, -17.473, 27.53, -0.02554, -0.45755, -0.03751, -0.88797,
 11:23:31.345,ed:40:fe:65:30:6c, 2015-01-01 00:47:54.330, 0.654, 0.433, 0.62, 0.061, 0.061, 0.244, 35.052, -40.897, -152.902, -18.733, -18.073, -0.433, 27.03, 0.31085, -0.258, -0.35226, -0.84415,
 11:23:31.345,ed:40:fe:65:30:6c, 2015-01-01 00:47:54.330, 0.652, 0.433, 0.619, 0.122, 0, 0.244, 35.046, -40.897, -152.897, -18.733, -18.073, -0.433, 27.03, 0.31085, -0.258, -0.35226, -0.84415,
 11:23:31.345,f6:90:cc:01:6d:25, 2015-01-01 00:48:03.475, 0.875, 0.285, 0.356, 0, 0.183, 0, 38.562, -62.38, 176.221, -25.900, -15.173, -5.320, 31.56, 0.1442, -0.49792, -0.2662, -0.81259,
 11:23:31.345,f6:90:cc:01:6d:25, 2015-01-01 00:48:03.475, 0.875, 0.285, 0.357, 0.183, 0, 0, 38.562, -62.375, 176.226, -25.900, -15.173, -5.320, 31.56, 0.1442, -0.49792, -0.2662, -0.81259,
 11:23:31.347,ed:35:33:d3:6c:f8, 2015-01-01 00:48:46.945, 0.646, 0.438, 0.621, -0.122, 0.061, 0.122, 35.272, -40.397, 140.784, -16.820, -19.040, -18.193, 31.32, 0.20053, 0.40527, 0.15826, 0.87772,
 11:23:31.347,ed:35:33:d3:6c:f8, 2015-01-01 00:48:46.945, 0.645, 0.438, 0.621, 0, 0.061, 0.183, 35.272, -40.397, 140.779, -16.820, -19.040, -18.193, 31.32, 0.20053, 0.40527, 0.15826, 0.87772,
 11:23:31.365,f6:90:cc:01:6d:25, 2015-01-01 00:48:03.475, 0.875, 0.286, 0.355, 0.061, 0, 0, 38.568, -62.375, 176.226, -25.900, -15.173, -5.320, 31.56, 0.1442, -0.49792, -0.2662, -0.81259,
 11:23:31.365,f6:90:cc:01:6d:25, 2015-01-01 00:48:03.475, 0.875, 0.287, 0.356, 0.061, 0, 0, 38.573, -62.38, 176.226, -25.900, -15.173, -5.320, 31.56, 0.1442, -0.49792, -0.2662, -0.81259,
 11:23:31.367,ed:40:fe:65:30:6c, 2015-01-01 00:47:54.330, 0.653, 0.433, 0.617, 0.183, 0, 0.305, 35.046, -40.902, -152.891, -18.733, -18.073, -0.433, 27.03, 0.31165, -0.25778, -0.35233, -0.8439,
 11:23:31.367,ed:40:fe:65:30:6c, 2015-01-01 00:47:54.330, 0.651, 0.433, 0.617, 0.183, 0, 0.244, 35.046, -40.902, -152.88, -18.733, -18.073, -0.433, 27.03, 0.31165, -0.25778, -0.35233, -0.8439,
 11:23:31.367,ed:35:33:d3:6c:f8, 2015-01-01 00:48:46.945, 0.646, 0.438, 0.618, 0, 0.061, 0.244, 35.266, -40.397, 140.773, -16.820, -19.040, -18.193, 31.32, 0.2016, 0.40536, 0.15741, 0.87759,
 11:23:31.367,ed:35:33:d3:6c:f8, 2015-01-01 00:48:46.945, 0.644, 0.438, 0.618, 0, 0.061, 0.183, 35.261, -40.397, 140.768, -16.820, -19.040, -18.193, 31.32, 0.2016, 0.40536, 0.15741, 0.87759,
 11:23:31.369,e3:ca:2d:fd:e0:8c, 2015-01-01 00:47:33.045, 0.824, 0.091, 0.587, 0.061, -0.061, 0, 8.86, -54.168, 172.255, -22.573, -10.080, -17.473, 27.53, -0.02487, -0.45752, -0.03793, -0.888,
 11:23:31.369,e3:ca:2d:fd:e0:8c, 2015-01-01 00:47:33.045, 0.824, 0.092, 0.588, 0.061, 0, 0, 8.866, -54.168, 172.26, -22.573, -10.080, -17.473, 27.53, -0.02487, -0.45752, -0.03793, -0.888,
 11:23:31.410,f6:90:cc:01:6d:25, 2015-01-01 00:48:03.475, 0.875, 0.286, 0.356, 0.061, 0.122, 0, 38.573, -62.38, 176.232, -25.900, -15.173, -5.320, 31.56, 0.1442, -0.49792, -0.2662, -0.81259,
 11:23:31.410,f6:90:cc:01:6d:25, 2015-01-01 00:48:03.475, 0.875, 0.285, 0.356, 0, 0.244, 0, 38.573, -62.375, 176.237, -25.900, -15.173, -5.320, 31.56, 0.1442, -0.49792, -0.2662, -0.81259,
 11:23:31.412,ed:40:fe:65:30:6c, 2015-01-01 00:47:54.330, 0.653, 0.433, 0.618, 0, 0, 0.122, 35.046, -40.902, -152.875, -18.733, -18.073, -0.433, 27.03, 0.31165, -0.25778, -0.35233, -0.8439,
 11:23:31.412,ed:40:fe:65:30:6c, 2015-01-01 00:47:54.330, 0.653, 0.432, 0.618, 0, 0.061, 0, 35.041, -40.902, -152.875, -18.733, -18.073, -0.433, 27.03, 0.31165, -0.25778, -0.35233, -0.8439,
 11:23:31.413,ed:35:33:d3:6c:f8, 2015-01-01 00:48:46.945, 0.646, 0.437, 0.618, -0.183, 0, 0.061, 35.261, -40.397, 140.762, -16.820, -19.040, -18.193, 31.32, 0.2016, 0.40536, 0.15741, 0.87759,
 11:23:31.413,ed:35:33:d3:6c:f8, 2015-01-01 00:48:46.945, 0.647, 0.436, 0.619, -0.305, 0, 0, 35.255, -40.402, 140.757, -16.820, -19.040, -18.193, 31.32, 0.2016, 0.40536, 0.15741, 0.87759,
 11:23:31.415,e3:ca:2d:fd:e0:8c, 2015-01-01 00:47:33.355, 0.824, 0.093, 0.588, 0.061, 0, 0, 8.866, -54.168, 172.266, -22.573, -10.080, -17.473, 27.53, -0.02487, -0.45752, -0.03793, -0.888,
 11:23:31.415,e3:ca:2d:fd:e0:8c, 2015-01-01 00:47:33.355, 0.824, 0.091, 0.588, 0, 0.061, 0, 8.866, -54.168, 172.271, -22.573, -10.080, -17.473, 27.53, -0.02487, -0.45752, -0.03793, -0.888,
 11:23:31.436,ed:35:33:d3:6c:f8, 2015-01-01 00:48:47.345, 0.645, 0.436, 0.62, -0.305, 0, -0.061, 35.25, -40.402, 140.746, -16.820, -19.040, -18.193, 31.32, 0.2016, 0.40536, 0.15741, 0.87759,
 11:23:31.436,ed:35:33:d3:6c:f8, 2015-01-01 00:48:47.345, 0.644, 0.437, 0.621, -0.366, 0, -0.122, 35.244, -40.402, 140.735, -16.820, -19.040, -18.193, 31.32, 0.2016, 0.40536, 0.15741, 0.87759,
 11:23:31.455,f6:90:cc:01:6d:25, 2015-01-01 00:48:03.475, 0.874, 0.284, 0.356, 0, 0.366, 0, 38.568, -62.369, 176.243, -25.900, -15.173, -5.320, 31.56, 0.1442, -0.49792, -0.2662, -0.81259,
 11:23:31.456,f6:90:cc:01:6d:25, 2015-01-01 00:48:03.475, 0.875, 0.285, 0.357, 0, 0.366, 0, 38.562, -62.369, 176.254, -25.900, -15.173, -5.320, 31.56, 0.1442, -0.49792, -0.2662, -0.81259,
 11:23:31.457,ed:40:fe:65:30:6c, 2015-01-01 00:47:54.665, 0.652, 0.431, 0.619, -0.122, 0, -0.061, 35.041, -40.902, -152.869, -18.733, -18.073, -0.433, 27.03, 0.31165, -0.25778, -0.35233, -0.8439,
 11:23:31.457,ed:40:fe:65:30:6c, 2015-01-01 00:47:54.665, 0.652, 0.432, 0.62, -0.183, 0, -0.061, 35.041, -40.902, -152.869, -18.733, -18.073, -0.433, 27.03, 0.31165, -0.25778, -0.35233, -0.8439,
 11:23:31.460,e3:ca:2d:fd:e0:8c, 2015-01-01 00:47:33.355, 0.824, 0.091, 0.587, 0, 0.061, 0, 8.866, -54.168, 172.271, -22.573, -10.080, -17.473, 27.53, -0.02487, -0.45752, -0.03793, -0.888,
 11:23:31.460,e3:ca:2d:fd:e0:8c, 2015-01-01 00:47:33.355, 0.824, 0.091, 0.588, 0, 0.061, 0, 8.866, -54.168, 172.277, -22.573, -10.080, -17.473, 27.53, -0.02487, -0.45752, -0.03793, -0.888,
 11:23:31.479,ed:40:fe:65:30:6c, 2015-01-01 00:47:54.665, 0.652, 0.432, 0.62, -0.061, 0, 0, 35.035, -40.902, -152.869, -18.733, -18.073, -0.433, 27.03, 0.31165, -0.25778, -0.35233, -0.8439,
 11:23:31.479,ed:40:fe:65:30:6c, 2015-01-01 00:47:54.665, 0.652, 0.431, 0.621, 0, -0.061, 0, 35.035, -40.902, -152.869, -18.733, -18.073, -0.433, 27.03, 0.31165, -0.25778, -0.35233, -0.8439,
 11:23:31.481,e3:ca:2d:fd:e0:8c, 2015-01-01 00:47:33.355, 0.824, 0.091, 0.587, -0.061, 0, 0, 8.866, -54.168, 172.282, -22.573, -10.080, -17.473, 27.53, -0.02487, -0.45752, -0.03793, -0.888,
 11:23:31.481,e3:ca:2d:fd:e0:8c, 2015-01-01 00:47:33.355, 0.823, 0.091, 0.587, 0, 0, 0, 8.866, -54.168, 172.288, -22.573, -10.080, -17.473, 27.53, -0.02487, -0.45752, -0.03793, -0.888,
 11:23:31.481,ed:35:33:d3:6c:f8, 2015-01-01 00:48:47.345, 0.645, 0.437, 0.621, -0.305, 0, -0.061, 35.239, -40.397, 140.724, -16.820, -19.040, -18.193, 31.32, 0.2016, 0.40536, 0.15741, 0.87759,
 11:23:31.481,ed:35:33:d3:6c:f8, 2015-01-01 00:48:47.345, 0.645, 0.436, 0.622, -0.183, 0, 0, 35.233, -40.397, 140.713, -16.820, -19.040, -18.193, 31.32, 0.2016, 0.40536, 0.15741, 0.87759,
 11:23:31.501,f6:90:cc:01:6d:25, 2015-01-01 00:48:03.475, 0.875, 0.284, 0.358, 0, 0.122, 0, 38.557, -62.364, 176.265, -25.900, -15.173, -5.320, 31.56, 0.1442, -0.49792, -0.2662, -0.81259,
 11:23:31.501,f6:90:cc:01:6d:25, 2015-01-01 00:48:03.475, 0.875, 0.284, 0.358, 0, 0, 0, 38.551, -62.364, 176.27, -25.900, -15.173, -5.320, 31.56, 0.1442, -0.49792, -0.2662, -0.81259,
 11:23:31.525,ed:40:fe:65:30:6c, 2015-01-01 00:47:54.665, 0.654, 0.432, 0.619, 0, 0, 0.061, 35.03, -40.902, -152.869, -18.733, -18.073, -0.433, 27.03, 0.31165, -0.25778, -0.35233, -0.8439,
 11:23:31.525,ed:40:fe:65:30:6c, 2015-01-01 00:47:54.665, 0.654, 0.434, 0.62, 0, -0.061, 0, 35.03, -40.902, -152.869, -18.733, -18.073, -0.433, 27.03, 0.31165, -0.25778, -0.35233, -0.8439,
 11:23:31.525,ed:35:33:d3:6c:f8, 2015-01-01 00:48:47.345, 0.646, 0.436, 0.62, -0.244, 0, 0.061, 35.228, -40.397, 140.707, -16.820, -19.040, -18.193, 31.32, 0.2016, 0.40536, 0.15741, 0.87759,
 11:23:31.525,ed:35:33:d3:6c:f8, 2015-01-01 00:48:47.345, 0.647, 0.438, 0.62, -0.244, 0, 0, 35.222, -40.397, 140.696, -16.820, -19.040, -18.193, 31.32, 0.2016, 0.40536, 0.15741, 0.87759,
 11:23:31.527,e3:ca:2d:fd:e0:8c, 2015-01-01 00:47:33.355, 0.824, 0.091, 0.588, -0.061, 0, 0, 8.866, -54.168, 172.293, -22.573, -10.080, -17.473, 27.53, -0.02487, -0.45752, -0.03793, -0.888,
 11:23:31.527,e3:ca:2d:fd:e0:8c, 2015-01-01 00:47:33.355, 0.824, 0.091, 0.589, -0.061, -0.061, 0, 8.866, -54.168, 172.299, -22.573, -10.080, -17.473, 27.53, -0.02487, -0.45752, -0.03793, -0.888,
 11:23:31.569,ed:40:fe:65:30:6c, 2015-01-01 00:47:54.665, 0.649, 0.432, 0.62, 0.061, 0, 0.061, 35.03, -40.902, -152.869, -18.733, -18.073, -0.433, 27.03, 0.31165, -0.25778, -0.35233, -0.8439,
 11:23:31.569,ed:40:fe:65:30:6c, 2015-01-01 00:47:54.665, 0.655, 0.432, 0.615, -0.122, 0, 0.122, 35.03, -40.902, -152.864, -18.733, -18.073, -0.433, 27.03, 0.31165, -0.25778, -0.35233, -0.8439,
 11:23:31.569,f6:90:cc:01:6d:25, 2015-01-01 00:48:03.475, 0.876, 0.286, 0.358, 0, 0, 0, 38.551, -62.364, 176.27, -26.220, -15.827, -5.487, 31.56, 0.1442, -0.49792, -0.2662, -0.81259,
 11:23:31.569,f6:90:cc:01:6d:25, 2015-01-01 00:48:03.475, 0.875, 0.283, 0.358, 0.061, 0, 0, 38.557, -62.364, 176.27, -26.220, -15.827, -5.487, 31.56, 0.1442, -0.49792, -0.2662, -0.81259,
 11:23:31.571,ed:35:33:d3:6c:f8, 2015-01-01 00:48:47.345, 0.643, 0.438, 0.621, -0.061, 0.122, 0.061, 35.217, -40.397, 140.691, -16.820, -19.040, -18.193, 31.32, 0.2016, 0.40536, 0.15741, 0.87759,
 11:23:31.571,ed:35:33:d3:6c:f8, 2015-01-01 00:48:47.345, 0.647, 0.435, 0.617, -0.244, 0, 0.122, 35.211, -40.397, 140.685, -16.820, -19.040, -18.193, 31.32, 0.2016, 0.40536, 0.15741, 0.87759,
 11:23:31.571,e3:ca:2d:fd:e0:8c, 2015-01-01 00:47:33.355, 0.825, 0.089, 0.588, 0, -0.122, 0, 8.866, -54.168, 172.299, -22.573, -10.080, -17.473, 27.53, -0.02487, -0.45752, -0.03793, -0.888,
 11:23:31.571,e3:ca:2d:fd:e0:8c, 2015-01-01 00:47:33.355, 0.825, 0.091, 0.587, 0.122, 0.061, 0, 8.866, -54.168, 172.304, -22.573, -10.080, -17.473, 27.53, -0.02487, -0.45752, -0.03793, -0.888,
 11:23:31.591,f6:90:cc:01:6d:25, 2015-01-01 00:48:03.475, 0.875, 0.283, 0.354, 0.061, 0, 0, 38.557, -62.364, 176.27, -26.220, -15.827, -5.487, 31.56, 0.14459, -0.49762, -0.26642, -0.81262,
 11:23:31.591,f6:90:cc:01:6d:25, 2015-01-01 00:48:03.475, 0.875, 0.288, 0.354, -0.183, 0.122, 0, 38.551, -62.364, 176.276, -26.220, -15.827, -5.487, 31.56, 0.14459, -0.49762, -0.26642, -0.81262,
 11:23:31.596,ed:35:33:d3:6c:f8, 2015-01-01 00:48:47.345, 0.649, 0.439, 0.616, -0.183, 0, 0, 35.206, -40.397, 140.68, -16.820, -19.040, -18.193, 31.32, 0.2016, 0.40536, 0.15741, 0.87759,
 11:23:31.596,ed:35:33:d3:6c:f8, 2015-01-01 00:48:47.345, 0.646, 0.44, 0.621, 0.183, 0.305, 0, 35.2, -40.397, 140.669, -16.820, -19.040, -18.193, 31.32, 0.2016, 0.40536, 0.15741, 0.87759,
 11:23:31.615,ed:40:fe:65:30:6c, 2015-01-01 00:47:54.665, 0.656, 0.436, 0.617, 0, 0, 0, 35.024, -40.902, -152.864, -18.733, -18.073, -0.433, 27.03, 0.31165, -0.25778, -0.35233, -0.8439,
 11:23:31.615,ed:40:fe:65:30:6c, 2015-01-01 00:47:54.665, 0.652, 0.435, 0.621, 0.061, 0.122, 0, 35.024, -40.897, -152.858, -18.733, -18.073, -0.433, 27.03, 0.31165, -0.25778, -0.35233, -0.8439,
 11:23:31.616,e3:ca:2d:fd:e0:8c, 2015-01-01 00:47:33.355, 0.824, 0.093, 0.588, 0, 0.244, 0, 8.866, -54.168, 172.31, -22.447, -9.533, -16.513, 27.53, -0.02487, -0.45752, -0.03793, -0.888,
 11:23:31.616,e3:ca:2d:fd:e0:8c, 2015-01-01 00:47:33.355, 0.826, 0.093, 0.588, 0, 0, 0, 8.866, -54.163, 172.315, -22.447, -9.533, -16.513, 27.53, -0.02487, -0.45752, -0.03793, -0.888,
 11:23:31.637,ed:40:fe:65:30:6c, 2015-01-01 00:47:54.665, 0.653, 0.434, 0.621, 0.122, 0.122, 0.305, 35.024, -40.897, -152.858, -18.873, -18.300, -0.180, 27.03, 0.31165, -0.25778, -0.35233, -0.8439,
 11:23:31.637,ed:40:fe:65:30:6c, 2015-01-01 00:47:54.665, 0.65, 0.433, 0.621, 0.122, 0, 0.427, 35.019, -40.897, -152.847, -18.873, -18.300, -0.180, 27.03, 0.31165, -0.25778, -0.35233, -0.8439,
 11:23:31.641,ed:35:33:d3:6c:f8, 2015-01-01 00:48:47.345, 0.646, 0.441, 0.622, 0.244, 0.305, 0.244, 35.206, -40.397, 140.669, -16.820, -19.040, -18.193, 31.32, 0.2016, 0.40536, 0.15741, 0.87759,
 11:23:31.641,ed:35:33:d3:6c:f8, 2015-01-01 00:48:47.345, 0.644, 0.436, 0.623, 0.122, 0.061, 0.427, 35.2, -40.391, 140.669, -16.820, -19.040, -18.193, 31.32, 0.2016, 0.40536, 0.15741, 0.87759,
 11:23:31.657,f6:90:cc:01:6d:25, 2015-01-01 00:48:03.475, 0.876, 0.288, 0.359, 0, 0.183, 0, 38.551, -62.364, 176.281, -26.220, -15.827, -5.487, 31.56, 0.14459, -0.49762, -0.26642, -0.81262,
 11:23:31.657,f6:90:cc:01:6d:25, 2015-01-01 00:48:03.475, 0.876, 0.285, 0.358, 0.122, 0.122, 0, 38.546, -62.358, 176.287, -26.220, -15.827, -5.487, 31.56, 0.14459, -0.49762, -0.26642, -0.81262,
 11:23:31.662,e3:ca:2d:fd:e0:8c, 2015-01-01 00:47:33.355, 0.827, 0.091, 0.588, 0, -0.122, 0, 8.866, -54.163, 172.315, -22.447, -9.533, -16.513, 27.53, -0.02432, -0.45749, -0.03827, -0.888,
 11:23:31.662,e3:ca:2d:fd:e0:8c, 2015-01-01 00:47:33.355, 0.826, 0.093, 0.586, 0.061, 0, 0, 8.866, -54.168, 172.321, -22.447, -9.533, -16.513, 27.53, -0.02432, -0.45749, -0.03827, -0.888,
 11:23:31.680,f6:90:cc:01:6d:25, 2015-01-01 00:48:03.830, 0.875, 0.285, 0.356, 0.122, -0.061, 0, 38.551, -62.358, 176.287, -26.220, -15.827, -5.487, 31.56, 0.14459, -0.49762, -0.26642, -0.81262,
 11:23:31.680,f6:90:cc:01:6d:25, 2015-01-01 00:48:03.830, 0.875, 0.287, 0.356, 0, -0.183, 0, 38.557, -62.364, 176.287, -26.220, -15.827, -5.487, 31.56, 0.14459, -0.49762, -0.26642, -0.81262,
 11:23:31.681,ed:40:fe:65:30:6c, 2015-01-01 00:47:54.665, 0.651, 0.433, 0.621, 0.183, -0.244, 0.305, 35.013, -40.902, -152.836, -18.873, -18.300, -0.180, 27.03, 0.31165, -0.25778, -0.35233, -0.8439,
 11:23:31.681,ed:40:fe:65:30:6c, 2015-01-01 00:47:54.665, 0.653, 0.432, 0.618, 0.244, -0.183, 0.183, 35.019, -40.908, -152.836, -18.873, -18.300, -0.180, 27.03, 0.31165, -0.25778, -0.35233, -0.8439,
 11:23:31.684,e3:ca:2d:fd:e0:8c, 2015-01-01 00:47:33.645, 0.824, 0.093, 0.587, 0, 0, 0, 8.866, -54.168, 172.326, -22.447, -9.533, -16.513, 27.53, -0.02432, -0.45749, -0.03827, -0.888,
 11:23:31.684,e3:ca:2d:fd:e0:8c, 2015-01-01 00:47:33.645, 0.823, 0.093, 0.587, -0.061, 0, 0, 8.866, -54.168, 172.332, -22.447, -9.533, -16.513, 27.53, -0.02432, -0.45749, -0.03827, -0.888,
 11:23:31.703,f6:90:cc:01:6d:25, 2015-01-01 00:48:03.830, 0.874, 0.289, 0.357, -0.061, -0.244, 0, 38.562, -62.364, 176.281, -26.220, -15.827, -5.487, 31.56, 0.14459, -0.49762, -0.26642, -0.81262,
 11:23:31.703,f6:90:cc:01:6d:25, 2015-01-01 00:48:03.830, 0.872, 0.288, 0.356, 0, -0.122, 0, 38.568, -62.369, 176.276, -26.220, -15.827, -5.487, 31.56, 0.14459, -0.49762, -0.26642, -0.81262,
 11:23:31.706,ed:35:33:d3:6c:f8, 2015-01-01 00:48:47.345, 0.644, 0.436, 0.622, 0.183, -0.061, 0.305, 35.2, -40.397, 140.674, -17.060, -18.613, -17.867, 31.32, 0.2016, 0.40536, 0.15741, 0.87759,
 11:23:31.706,ed:35:33:d3:6c:f8, 2015-01-01 00:48:47.345, 0.646, 0.437, 0.619, 0.305, -0.183, 0.183, 35.2, -40.402, 140.669, -17.060, -18.613, -17.867, 31.32, 0.2016, 0.40536, 0.15741, 0.87759,
 11:23:31.729,e3:ca:2d:fd:e0:8c, 2015-01-01 00:47:33.645, 0.822, 0.091, 0.587, -0.122, -0.061, 0, 8.866, -54.168, 172.332, -22.447, -9.533, -16.513, 27.53, -0.02432, -0.45749, -0.03827, -0.888,
 11:23:31.729,e3:ca:2d:fd:e0:8c, 2015-01-01 00:47:33.645, 0.824, 0.09, 0.588, 0, -0.122, 0, 8.866, -54.168, 172.337, -22.447, -9.533, -16.513, 27.53, -0.02432, -0.45749, -0.03827, -0.888,
 11:23:31.730,ed:35:33:d3:6c:f8, 2015-01-01 00:48:47.345, 0.645, 0.437, 0.618, 0.183, -0.244, 0.183, 35.206, -40.408, 140.663, -17.060, -18.613, -17.867, 31.32, 0.20267, 0.40549, 0.15646, 0.87744,
 11:23:31.730,ed:35:33:d3:6c:f8, 2015-01-01 00:48:47.345, 0.645, 0.438, 0.617, 0.122, -0.061, 0.183, 35.206, -40.413, 140.652, -17.060, -18.613, -17.867, 31.32, 0.20267, 0.40549, 0.15646, 0.87744,
 11:23:31.748,f6:90:cc:01:6d:25, 2015-01-01 00:48:03.830, 0.874, 0.285, 0.356, 0.061, -0.061, 0, 38.573, -62.369, 176.276, -26.220, -15.827, -5.487, 31.56, 0.14459, -0.49762, -0.26642, -0.81262,
 11:23:31.748,f6:90:cc:01:6d:25, 2015-01-01 00:48:03.830, 0.873, 0.285, 0.357, 0.122, 0, 0, 38.578, -62.369, 176.276, -26.220, -15.827, -5.487, 31.56, 0.14459, -0.49762, -0.26642, -0.81262,
 11:23:31.749,ed:40:fe:65:30:6c, 2015-01-01 00:47:54.665, 0.652, 0.433, 0.618, 0.244, -0.244, 0.183, 35.019, -40.913, -152.831, -18.873, -18.300, -0.180, 27.03, 0.31198, -0.25775, -0.35223, -0.84384,
 11:23:31.749,ed:40:fe:65:30:6c, 2015-01-01 00:47:54.665, 0.651, 0.433, 0.617, 0.244, -0.122, 0.183, 35.024, -40.919, -152.831, -18.873, -18.300, -0.180, 27.03, 0.31198, -0.25775, -0.35223, -0.84384,
 11:23:31.772,ed:40:fe:65:30:6c, 2015-01-01 00:47:55.000, 0.651, 0.433, 0.617, 0.061, -0.061, 0.183, 35.024, -40.919, -152.825, -18.873, -18.300, -0.180, 27.03, 0.31198, -0.25775, -0.35223, -0.84384,
 11:23:31.772,ed:40:fe:65:30:6c, 2015-01-01 00:47:55.000, 0.652, 0.431, 0.618, 0.061, 0, 0.122, 35.024, -40.924, -152.825, -18.873, -18.300, -0.180, 27.03, 0.31198, -0.25775, -0.35223, -0.84384,
 11:23:31.772,f6:90:cc:01:6d:25, 2015-01-01 00:48:03.830, 0.873, 0.286, 0.356, -0.122, 0.061, 0, 38.578, -62.369, 176.276, -26.220, -15.827, -5.487, 31.56, 0.14459, -0.49762, -0.26642, -0.81262,
 11:23:31.772,f6:90:cc:01:6d:25, 2015-01-01 00:48:03.830, 0.874, 0.289, 0.358, -0.183, 0.122, 0, 38.573, -62.369, 176.281, -26.220, -15.827, -5.487, 31.56, 0.14459, -0.49762, -0.26642, -0.81262,
 11:23:31.774,e3:ca:2d:fd:e0:8c, 2015-01-01 00:47:33.645, 0.824, 0.091, 0.587, 0.061, -0.061, 0, 8.866, -54.174, 172.337, -22.447, -9.533, -16.513, 27.53, -0.02432, -0.45749, -0.03827, -0.888,
 11:23:31.774,e3:ca:2d:fd:e0:8c, 2015-01-01 00:47:33.645, 0.824, 0.095, 0.588, 0, 0.122, 0, 8.871, -54.174, 172.343, -22.447, -9.533, -16.513, 27.53, -0.02432, -0.45749, -0.03827, -0.888,
 11:23:31.774,ed:35:33:d3:6c:f8, 2015-01-01 00:48:47.345, 0.644, 0.437, 0.618, 0, 0, 0.183, 35.206, -40.413, 140.652, -17.060, -18.613, -17.867, 31.32, 0.20267, 0.40549, 0.15646, 0.87744,
 11:23:31.774,ed:35:33:d3:6c:f8, 2015-01-01 00:48:47.345, 0.645, 0.436, 0.619, -0.061, 0, 0.061, 35.206, -40.419, 140.647, -17.060, -18.613, -17.867, 31.32, 0.20267, 0.40549, 0.15646, 0.87744,
 11:23:31.796,ed:35:33:d3:6c:f8, 2015-01-01 00:48:47.705, 0.646, 0.436, 0.619, 0, 0, 0, 35.206, -40.419, 140.641, -17.060, -18.613, -17.867, 31.32, 0.20267, 0.40549, 0.15646, 0.87744,
 11:23:31.798,ed:35:33:d3:6c:f8, 2015-01-01 00:48:47.705, 0.647, 0.437, 0.621, 0, 0, 0, 35.206, -40.419, 140.63, -17.060, -18.613, -17.867, 31.32, 0.20267, 0.40549, 0.15646, 0.87744,
 11:23:31.815,f6:90:cc:01:6d:25, 2015-01-01 00:48:03.830, 0.875, 0.287, 0.357, -0.244, 0.183, 0, 38.568, -62.369, 176.287, -26.220, -15.827, -5.487, 31.56, 0.14459, -0.49762, -0.26642, -0.81262,
 11:23:31.815,f6:90:cc:01:6d:25, 2015-01-01 00:48:03.830, 0.876, 0.284, 0.357, 0, 0.061, 0, 38.568, -62.364, 176.292, -26.220, -15.827, -5.487, 31.56, 0.14459, -0.49762, -0.26642, -0.81262,
 11:23:31.816,ed:40:fe:65:30:6c, 2015-01-01 00:47:55.000, 0.653, 0.432, 0.619, 0.061, 0, 0, 35.024, -40.924, -152.82, -18.873, -18.300, -0.180, 27.03, 0.31198, -0.25775, -0.35223, -0.84384,
 11:23:31.817,ed:40:fe:65:30:6c, 2015-01-01 00:47:55.000, 0.653, 0.433, 0.62, 0.061, 0, 0, 35.024, -40.919, -152.82, -18.873, -18.300, -0.180, 27.03, 0.31198, -0.25775, -0.35223, -0.84384,
 11:23:31.820,e3:ca:2d:fd:e0:8c, 2015-01-01 00:47:33.645, 0.823, 0.094, 0.588, -0.122, 0, 0, 8.866, -54.168, 172.348, -22.447, -9.533, -16.513, 27.53, -0.02432, -0.45749, -0.03827, -0.888,
 11:23:31.820,e3:ca:2d:fd:e0:8c, 2015-01-01 00:47:33.645, 0.825, 0.091, 0.588, -0.122, 0, 0, 8.866, -54.168, 172.354, -22.447, -9.533, -16.513, 27.53, -0.02432, -0.45749, -0.03827, -0.888,
 11:23:31.839,ed:40:fe:65:30:6c, 2015-01-01 00:47:55.000, 0.653, 0.432, 0.622, 0, -0.061, 0, 35.024, -40.919, -152.82, -18.873, -18.300, -0.180, 27.03, 0.31198, -0.25775, -0.35223, -0.84384,
 11:23:31.839,ed:40:fe:65:30:6c, 2015-01-01 00:47:55.000, 0.654, 0.431, 0.619, 0, -0.183, 0.122, 35.024, -40.919, -152.82, -18.873, -18.300, -0.180, 27.03, 0.31198, -0.25775, -0.35223, -0.84384,
 11:23:31.842,ed:35:33:d3:6c:f8, 2015-01-01 00:48:47.705, 0.646, 0.438, 0.624, 0, 0, 0, 35.206, -40.419, 140.625, -17.060, -18.613, -17.867, 31.32, 0.20267, 0.40549, 0.15646, 0.87744,
 11:23:31.842,ed:35:33:d3:6c:f8, 2015-01-01 00:48:47.705, 0.646, 0.436, 0.62, -0.183, -0.061, 0.122, 35.206, -40.419, 140.62, -17.060, -18.613, -17.867, 31.32, 0.20267, 0.40549, 0.15646, 0.87744,
 11:23:31.862,f6:90:cc:01:6d:25, 2015-01-01 00:48:03.830, 0.875, 0.284, 0.357, 0, 0, 0, 38.568, -62.364, 176.292, -26.220, -15.827, -5.487, 31.56, 0.14459, -0.49762, -0.26642, -0.81262,
 11:23:31.862,f6:90:cc:01:6d:25, 2015-01-01 00:48:03.830, 0.875, 0.286, 0.356, 0.183, 0, 0, 38.573, -62.364, 176.292, -26.220, -15.827, -5.487, 31.56, 0.14459, -0.49762, -0.26642, -0.81262,
 11:23:31.864,e3:ca:2d:fd:e0:8c, 2015-01-01 00:47:33.645, 0.826, 0.089, 0.588, 0, 0, 0, 8.866, -54.168, 172.354, -22.447, -9.533, -16.513, 27.53, -0.02432, -0.45749, -0.03827, -0.888,
 11:23:31.864,e3:ca:2d:fd:e0:8c, 2015-01-01 00:47:33.645, 0.825, 0.09, 0.588, 0.122, -0.061, 0, 8.866, -54.174, 172.359, -22.447, -9.533, -16.513, 27.53, -0.02432, -0.45749, -0.03827, -0.888,
 11:23:31.884,ed:40:fe:65:30:6c, 2015-01-01 00:47:55.000, 0.653, 0.432, 0.616, -0.061, 0, -0.061, 35.024, -40.924, -152.82, -18.873, -18.300, -0.180, 27.03, 0.31198, -0.25775, -0.35223, -0.84384,
 11:23:31.884,ed:40:fe:65:30:6c, 2015-01-01 00:47:55.000, 0.651, 0.435, 0.617, 0, 0.061, 0, 35.024, -40.919, -152.82, -18.873, -18.300, -0.180, 27.03, 0.31198, -0.25775, -0.35223, -0.84384,
 11:23:31.885,ed:35:33:d3:6c:f8, 2015-01-01 00:48:47.705, 0.647, 0.435, 0.616, -0.244, 0, -0.061, 35.2, -40.419, 140.614, -17.060, -18.613, -17.867, 31.32, 0.20267, 0.40549, 0.15646, 0.87744,
 11:23:31.885,ed:35:33:d3:6c:f8, 2015-01-01 00:48:47.705, 0.644, 0.44, 0.618, 0, 0.061, -0.061, 35.195, -40.419, 140.603, -17.060, -18.613, -17.867, 31.32, 0.20267, 0.40549, 0.15646, 0.87744,
 11:23:31.888,e3:ca:2d:fd:e0:8c, 2015-01-01 00:47:33.645, 0.825, 0.092, 0.587, 0.061, -0.122, 0, 8.871, -54.174, 172.359, -22.447, -9.913, -16.280, 27.53, -0.02432, -0.45749, -0.03827, -0.888,
 11:23:31.888,e3:ca:2d:fd:e0:8c, 2015-01-01 00:47:33.645, 0.824, 0.091, 0.586, 0.061, -0.061, 0, 8.871, -54.174, 172.365, -22.447, -9.913, -16.280, 27.53, -0.02432, -0.45749, -0.03827, -0.888,
 11:23:31.929,f6:90:cc:01:6d:25, 2015-01-01 00:48:03.830, 0.873, 0.286, 0.357, 0.122, 0.183, 0, 38.573, -62.364, 176.298, -26.060, -15.647, -5.693, 31.56, 0.14459, -0.49762, -0.26642, -0.81262,
 11:23:31.929,f6:90:cc:01:6d:25, 2015-01-01 00:48:03.830, 0.873, 0.285, 0.355, -0.244, 0.061, 0, 38.568, -62.364, 176.298, -26.060, -15.647, -5.693, 31.56, 0.14459, -0.49762, -0.26642, -0.81262,
 11:23:31.930,ed:40:fe:65:30:6c, 2015-01-01 00:47:55.000, 0.653, 0.43, 0.617, 0.122, 0, 0.122, 35.024, -40.919, -152.814, -18.873, -18.300, -0.180, 27.03, 0.31198, -0.25775, -0.35223, -0.84384,
 11:23:31.930,ed:40:fe:65:30:6c, 2015-01-01 00:47:55.000, 0.654, 0.433, 0.619, 0.061, -0.122, 0.061, 35.024, -40.924, -152.814, -18.873, -18.300, -0.180, 27.03, 0.31198, -0.25775, -0.35223, -0.84384,
 11:23:31.931,e3:ca:2d:fd:e0:8c, 2015-01-01 00:47:33.645, 0.826, 0.092, 0.586, 0, 0, 0, 8.871, -54.174, 172.37, -22.447, -9.913, -16.280, 27.53, -0.02432, -0.45749, -0.03827, -0.888,
 11:23:31.931,e3:ca:2d:fd:e0:8c, 2015-01-01 00:47:33.645, 0.827, 0.092, 0.587, -0.061, 0.183, 0, 8.871, -54.174, 172.37, -22.447, -9.913, -16.280, 27.53, -0.02432, -0.45749, -0.03827, -0.888,
 11:23:31.931,ed:35:33:d3:6c:f8, 2015-01-01 00:48:47.705, 0.646, 0.435, 0.62, 0.122, 0.061, 0.061, 35.195, -40.419, 140.598, -17.060, -18.613, -17.867, 31.32, 0.20267, 0.40549, 0.15646, 0.87744,
 11:23:31.931,ed:35:33:d3:6c:f8, 2015-01-01 00:48:47.705, 0.647, 0.437, 0.621, 0.061, -0.122, 0.061, 35.195, -40.419, 140.592, -17.060, -18.613, -17.867, 31.32, 0.20267, 0.40549, 0.15646, 0.87744,
 11:23:31.950,f6:90:cc:01:6d:25, 2015-01-01 00:48:03.830, 0.875, 0.287, 0.354, -0.244, 0.183, 0, 38.562, -62.358, 176.303, -26.060, -15.647, -5.693, 31.56, 0.14484, -0.49753, -0.2666, -0.81259,
 11:23:31.950,f6:90:cc:01:6d:25, 2015-01-01 00:48:03.830, 0.876, 0.286, 0.357, -0.244, 0.183, 0, 38.557, -62.358, 176.309, -26.060, -15.647, -5.693, 31.56, 0.14484, -0.49753, -0.2666, -0.81259,
 11:23:31.974,ed:40:fe:65:30:6c, 2015-01-01 00:47:55.000, 0.655, 0.432, 0.621, 0.061, -0.244, 0, 35.024, -40.924, -152.814, -18.873, -18.300, -0.180, 27.03, 0.31198, -0.25775, -0.35223, -0.84384,
 11:23:31.974,ed:40:fe:65:30:6c, 2015-01-01 00:47:55.000, 0.654, 0.432, 0.62, -0.122, -0.305, 0.061, 35.024, -40.93, -152.82, -18.873, -18.300, -0.180, 27.03, 0.31198, -0.25775, -0.35223, -0.84384,
 11:23:31.978,e3:ca:2d:fd:e0:8c, 2015-01-01 00:47:33.645, 0.826, 0.091, 0.588, -0.061, 0.061, 0, 8.871, -54.174, 172.375, -22.447, -9.913, -16.280, 27.53, -0.02386, -0.45755, -0.03851, -0.88797,
 11:23:31.978,e3:ca:2d:fd:e0:8c, 2015-01-01 00:47:33.645, 0.825, 0.092, 0.588, 0, 0, 0, 8.871, -54.174, 172.381, -22.447, -9.913, -16.280, 27.53, -0.02386, -0.45755, -0.03851, -0.88797,
 11:23:31.997,ed:40:fe:65:30:6c, 2015-01-01 00:47:55.000, 0.652, 0.433, 0.619, -0.183, -0.244, 0, 35.024, -40.93, -152.82, -18.667, -18.060, -0.433, 27.03, 0.31198, -0.25775, -0.35223, -0.84384,
 11:23:31.997,ed:40:fe:65:30:6c, 2015-01-01 00:47:55.000, 0.652, 0.43, 0.618, 0, -0.305, 0, 35.024, -40.935, -152.825, -18.667, -18.060, -0.433, 27.03, 0.31198, -0.25775, -0.35223, -0.84384,
 11:23:31.997,ed:35:33:d3:6c:f8, 2015-01-01 00:48:47.705, 0.647, 0.437, 0.623, 0.061, -0.183, 0, 35.2, -40.419, 140.587, -17.060, -18.613, -17.867, 31.32, 0.20267, 0.40549, 0.15646, 0.87744,
 11:23:31.997,ed:35:33:d3:6c:f8, 2015-01-01 00:48:47.705, 0.647, 0.437, 0.621, -0.122, -0.244, 0, 35.2, -40.424, 140.576, -17.060, -18.613, -17.867, 31.32, 0.20267, 0.40549, 0.15646, 0.87744,
 11:23:31.999,f6:90:cc:01:6d:25, 2015-01-01 00:48:03.830, 0.876, 0.285, 0.357, -0.183, 0.061, 0, 38.551, -62.358, 176.314, -26.060, -15.647, -5.693, 31.56, 0.14484, -0.49753, -0.2666, -0.81259,
 11:23:31.999,f6:90:cc:01:6d:25, 2015-01-01 00:48:03.830, 0.875, 0.285, 0.359, -0.305, 0.061, 0, 38.546, -62.358, 176.314, -26.060, -15.647, -5.693, 31.56, 0.14484, -0.49753, -0.2666, -0.81259,
 11:23:32.019,f6:90:cc:01:6d:25, 2015-01-01 00:48:04.190, 0.873, 0.287, 0.356, -0.427, 0, 0, 38.54, -62.358, 176.32, -26.060, -15.647, -5.693, 31.56, 0.14484, -0.49753, -0.2666, -0.81259,
 11:23:32.019,f6:90:cc:01:6d:25, 2015-01-01 00:48:04.190, 0.874, 0.287, 0.356, -0.488, 0.061, 0, 38.529, -62.358, 176.32, -26.060, -15.647, -5.693, 31.56, 0.14484, -0.49753, -0.2666, -0.81259,
 11:23:32.020,ed:35:33:d3:6c:f8, 2015-01-01 00:48:47.705, 0.645, 0.437, 0.62, -0.183, -0.183, 0, 35.2, -40.424, 140.565, -16.813, -18.887, -18.693, 31.32, 0.20267, 0.40549, 0.15646, 0.87744,
 11:23:32.020,ed:35:33:d3:6c:f8, 2015-01-01 00:48:47.705, 0.645, 0.435, 0.619, -0.122, -0.183, 0, 35.195, -40.43, 140.554, -16.813, -18.887, -18.693, 31.32, 0.20267, 0.40549, 0.15646, 0.87744,
 11:23:32.021,e3:ca:2d:fd:e0:8c, 2015-01-01 00:47:33.960, 0.825, 0.093, 0.587, 0, 0, 0, 8.871, -54.174, 172.381, -22.447, -9.913, -16.280, 27.53, -0.02386, -0.45755, -0.03851, -0.88797,
 11:23:32.021,e3:ca:2d:fd:e0:8c, 2015-01-01 00:47:33.960, 0.824, 0.093, 0.587, -0.061, 0, 0, 8.871, -54.174, 172.386, -22.447, -9.913, -16.280, 27.53, -0.02386, -0.45755, -0.03851, -0.88797,
 11:23:32.044,ed:40:fe:65:30:6c, 2015-01-01 00:47:55.000, 0.654, 0.431, 0.617, 0, -0.427, -0.122, 35.024, -40.941, -152.831, -18.667, -18.060, -0.433, 27.03, 0.31198, -0.25775, -0.35223, -0.84384,
 11:23:32.044,ed:40:fe:65:30:6c, 2015-01-01 00:47:55.000, 0.653, 0.433, 0.618, 0.183, -0.366, -0.122, 35.03, -40.946, -152.836, -18.667, -18.060, -0.433, 27.03, 0.31198, -0.25775, -0.35223, -0.84384,
 11:23:32.044,e3:ca:2d:fd:e0:8c, 2015-01-01 00:47:33.960, 0.823, 0.093, 0.587, -0.122, 0.061, 0, 8.871, -54.174, 172.386, -22.447, -9.913, -16.280, 27.53, -0.02386, -0.45755, -0.03851, -0.88797,
 11:23:32.044,e3:ca:2d:fd:e0:8c, 2015-01-01 00:47:33.960, 0.824, 0.091, 0.588, -0.122, 0.122, 0, 8.866, -54.174, 172.392, -22.447, -9.913, -16.280, 27.53, -0.02386, -0.45755, -0.03851, -0.88797,
 11:23:32.063,f6:90:cc:01:6d:25, 2015-01-01 00:48:04.190, 0.874, 0.286, 0.356, -0.427, 0.183, 0, 38.524, -62.353, 176.325, -26.060, -15.647, -5.693, 31.56, 0.14484, -0.49753, -0.2666, -0.81259,
 11:23:32.063,f6:90:cc:01:6d:25, 2015-01-01 00:48:04.190, 0.875, 0.287, 0.358, -0.244, 0.183, 0, 38.513, -62.353, 176.331, -26.060, -15.647, -5.693, 31.56, 0.14484, -0.49753, -0.2666, -0.81259,
 11:23:32.067,ed:35:33:d3:6c:f8, 2015-01-01 00:48:47.705, 0.646, 0.436, 0.619, 0.061, -0.244, -0.122, 35.2, -40.435, 140.543, -16.813, -18.887, -18.693, 31.32, 0.20267, 0.40549, 0.15646, 0.87744,
 11:23:32.067,ed:35:33:d3:6c:f8, 2015-01-01 00:48:47.705, 0.647, 0.437, 0.618, 0.183, -0.244, -0.122, 35.2, -40.435, 140.532, -16.813, -18.887, -18.693, 31.32, 0.20267, 0.40549, 0.15646, 0.87744,
 11:23:32.088,ed:35:33:d3:6c:f8, 2015-01-01 00:48:47.705, 0.647, 0.438, 0.617, 0.122, -0.183, -0.122, 35.211, -40.435, 140.521, -16.813, -18.887, -18.693, 31.32, 0.20364, 0.40591, 0.15588, 0.87714,
 11:23:32.088,ed:35:33:d3:6c:f8, 2015-01-01 00:48:47.705, 0.646, 0.438, 0.619, 0.061, -0.061, -0.122, 35.217, -40.441, 140.51, -16.813, -18.887, -18.693, 31.32, 0.20364, 0.40591, 0.15588, 0.87714,
 11:23:32.090,e3:ca:2d:fd:e0:8c, 2015-01-01 00:47:33.960, 0.825, 0.09, 0.589, -0.061, 0.061, 0, 8.866, -54.168, 172.397, -22.447, -9.913, -16.280, 27.53, -0.02386, -0.45755, -0.03851, -0.88797,
 11:23:32.090,e3:ca:2d:fd:e0:8c, 2015-01-01 00:47:33.960, 0.826, 0.091, 0.587, 0, 0.061, 0, 8.866, -54.168, 172.397, -22.447, -9.913, -16.280, 27.53, -0.02386, -0.45755, -0.03851, -0.88797,
 11:23:32.108,f6:90:cc:01:6d:25, 2015-01-01 00:48:04.190, 0.875, 0.285, 0.359, -0.244, 0.305, 0, 38.507, -62.347, 176.336, -26.060, -15.647, -5.693, 31.56, 0.14484, -0.49753, -0.2666, -0.81259,
 11:23:32.108,f6:90:cc:01:6d:25, 2015-01-01 00:48:04.190, 0.875, 0.285, 0.357, -0.427, 0.183, 0, 38.496, -62.347, 176.342, -26.060, -15.647, -5.693, 31.56, 0.14484, -0.49753, -0.2666, -0.81259,
 11:23:32.110,ed:40:fe:65:30:6c, 2015-01-01 00:47:55.000, 0.655, 0.435, 0.617, 0.122, -0.244, -0.122, 35.041, -40.946, -152.847, -18.667, -18.060, -0.433, 27.03, 0.31207, -0.258, -0.35236, -0.84366,
 11:23:32.110,ed:40:fe:65:30:6c, 2015-01-01 00:47:55.000, 0.653, 0.433, 0.618, 0.061, -0.061, -0.122, 35.041, -40.946, -152.847, -18.667, -18.060, -0.433, 27.03, 0.31207, -0.258, -0.35236, -0.84366,
 11:23:32.131,f6:90:cc:01:6d:25, 2015-01-01 00:48:04.190, 0.875, 0.287, 0.357, -0.366, 0.183, 0, 38.485, -62.342, 176.353, -26.060, -15.647, -5.693, 31.56, 0.14484, -0.49753, -0.2666, -0.81259,
 11:23:32.131,f6:90:cc:01:6d:25, 2015-01-01 00:48:04.190, 0.874, 0.286, 0.357, -0.244, 0.305, 0, 38.474, -62.336, 176.358, -26.060, -15.647, -5.693, 31.56, 0.14484, -0.49753, -0.2666, -0.81259,
 11:23:32.133,ed:35:33:d3:6c:f8, 2015-01-01 00:48:47.705, 0.646, 0.438, 0.62, 0, 0, -0.061, 35.217, -40.441, 140.499, -16.813, -18.887, -18.693, 31.32, 0.20364, 0.40591, 0.15588, 0.87714,
 11:23:32.133,ed:35:33:d3:6c:f8, 2015-01-01 00:48:47.705, 0.646, 0.436, 0.62, 0.122, -0.061, -0.061, 35.217, -40.441, 140.493, -16.813, -18.887, -18.693, 31.32, 0.20364, 0.40591, 0.15588, 0.87714,
 11:23:32.133,ed:40:fe:65:30:6c, 2015-01-01 00:47:55.355, 0.653, 0.433, 0.619, 0, -0.061, -0.061, 35.046, -40.946, -152.853, -18.667, -18.060, -0.433, 27.03, 0.31207, -0.258, -0.35236, -0.84366,
 11:23:32.133,ed:40:fe:65:30:6c, 2015-01-01 00:47:55.355, 0.654, 0.432, 0.62, 0.183, -0.122, -0.061, 35.046, -40.946, -152.853, -18.667, -18.060, -0.433, 27.03, 0.31207, -0.258, -0.35236, -0.84366,
 11:23:32.134,e3:ca:2d:fd:e0:8c, 2015-01-01 00:47:33.960, 0.824, 0.092, 0.589, 0, 0.122, 0, 8.866, -54.168, 172.403, -22.447, -9.913, -16.280, 27.53, -0.02386, -0.45755, -0.03851, -0.88797,
 11:23:32.134,e3:ca:2d:fd:e0:8c, 2015-01-01 00:47:33.960, 0.823, 0.092, 0.589, -0.122, 0.122, 0, 8.86, -54.168, 172.408, -22.447, -9.913, -16.280, 27.53, -0.02386, -0.45755, -0.03851, -0.88797,
 11:23:32.156,ed:35:33:d3:6c:f8, 2015-01-01 00:48:48.060, 0.646, 0.438, 0.62, 0.366, -0.183, -0.061, 35.222, -40.441, 140.482, -16.813, -18.887, -18.693, 31.32, 0.20364, 0.40591, 0.15588, 0.87714,
 11:23:32.156,ed:35:33:d3:6c:f8, 2015-01-01 00:48:48.060, 0.647, 0.438, 0.618, 0.549, -0.122, -0.122, 35.233, -40.441, 140.471, -16.813, -18.887, -18.693, 31.32, 0.20364, 0.40591, 0.15588, 0.87714,
 11:23:32.176,f6:90:cc:01:6d:25, 2015-01-01 00:48:04.190, 0.874, 0.285, 0.359, -0.183, 0.305, 0, 38.463, -62.336, 176.369, -26.060, -15.647, -5.693, 31.56, 0.14484, -0.49753, -0.2666, -0.81259,
 11:23:32.176,f6:90:cc:01:6d:25, 2015-01-01 00:48:04.190, 0.874, 0.285, 0.359, -0.183, 0.305, 0, 38.458, -62.331, 176.375, -26.060, -15.647, -5.693, 31.56, 0.14484, -0.49753, -0.2666, -0.81259,
 11:23:32.176,ed:40:fe:65:30:6c, 2015-01-01 00:47:55.355, 0.653, 0.434, 0.62, 0.366, -0.183, -0.122, 35.057, -40.946, -152.858, -18.667, -18.060, -0.433, 27.03, 0.31207, -0.258, -0.35236, -0.84366,
 11:23:32.176,ed:40:fe:65:30:6c, 2015-01-01 00:47:55.355, 0.654, 0.434, 0.618, 0.488, -0.183, -0.183, 35.068, -40.946, -152.864, -18.667, -18.060, -0.433, 27.03, 0.31207, -0.258, -0.35236, -0.84366,
 11:23:32.179,e3:ca:2d:fd:e0:8c, 2015-01-01 00:47:33.960, 0.824, 0.092, 0.588, -0.183, 0.122, 0, 8.86, -54.163, 172.408, -22.447, -9.913, -16.280, 27.53, -0.02386, -0.45755, -0.03851, -0.88797,
 11:23:32.179,e3:ca:2d:fd:e0:8c, 2015-01-01 00:47:33.960, 0.824, 0.091, 0.588, -0.122, 0.122, 0, 8.855, -54.163, 172.414, -22.447, -9.913, -16.280, 27.53, -0.02386, -0.45755, -0.03851, -0.88797,
 11:23:32.199,ed:40:fe:65:30:6c, 2015-01-01 00:47:55.355, 0.651, 0.435, 0.617, 0.366, -0.183, 0, 35.079, -40.946, -152.869, -18.667, -18.060, -0.433, 27.03, 0.31207, -0.258, -0.35236, -0.84366,
 11:23:32.199,ed:40:fe:65:30:6c, 2015-01-01 00:47:55.355, 0.653, 0.434, 0.616, 0.183, -0.183, 0, 35.085, -40.952, -152.869, -18.667, -18.060, -0.433, 27.03, 0.31207, -0.258, -0.35236, -0.84366,
 11:23:32.200,ed:35:33:d3:6c:f8, 2015-01-01 00:48:48.060, 0.645, 0.44, 0.618, 0.488, -0.061, 0, 35.25, -40.441, 140.466, -16.813, -18.887, -18.693, 31.32, 0.20364, 0.40591, 0.15588, 0.87714,
 11:23:32.200,ed:35:33:d3:6c:f8, 2015-01-01 00:48:48.060, 0.645, 0.438, 0.617, 0.244, 0, 0, 35.255, -40.441, 140.46, -16.813, -18.887, -18.693, 31.32, 0.20364, 0.40591, 0.15588, 0.87714,
 11:23:32.220,f6:90:cc:01:6d:25, 2015-01-01 00:48:04.190, 0.874, 0.285, 0.358, -0.244, 0.244, 0, 38.447, -62.325, 176.385, -26.060, -15.647, -5.693, 31.56, 0.14484, -0.49753, -0.2666, -0.81259,
 11:23:32.220,f6:90:cc:01:6d:25, 2015-01-01 00:48:04.190, 0.873, 0.286, 0.358, -0.305, 0.305, 0, 38.436, -62.32, 176.391, -26.060, -15.647, -5.693, 31.56, 0.14484, -0.49753, -0.2666, -0.81259,
 11:23:32.225,e3:ca:2d:fd:e0:8c, 2015-01-01 00:47:33.960, 0.824, 0.092, 0.588, -0.122, 0.122, 0, 8.855, -54.157, 172.419, -22.673, -9.967, -17.067, 27.53, -0.02386, -0.45755, -0.03851, -0.88797,
 11:23:32.225,e3:ca:2d:fd:e0:8c, 2015-01-01 00:47:33.960, 0.825, 0.092, 0.588, -0.244, 0.122, 0, 8.849, -54.157, 172.419, -22.673, -9.967, -17.067, 27.53, -0.02386, -0.45755, -0.03851, -0.88797,
 11:23:32.244,ed:40:fe:65:30:6c, 2015-01-01 00:47:55.355, 0.653, 0.433, 0.617, 0.244, -0.244, 0, 35.09, -40.952, -152.869, -18.667, -18.060, -0.433, 27.03, 0.31207, -0.258, -0.35236, -0.84366,
 11:23:32.244,ed:40:fe:65:30:6c, 2015-01-01 00:47:55.355, 0.655, 0.434, 0.618, 0.305, -0.244, 0, 35.096, -40.957, -152.875, -18.667, -18.060, -0.433, 27.03, 0.31207, -0.258, -0.35236, -0.84366,
 11:23:32.246,ed:35:33:d3:6c:f8, 2015-01-01 00:48:48.060, 0.646, 0.437, 0.618, 0.488, -0.061, 0, 35.266, -40.441, 140.449, -16.813, -18.887, -18.693, 31.32, 0.20364, 0.40591, 0.15588, 0.87714,
 11:23:32.246,ed:35:33:d3:6c:f8, 2015-01-01 00:48:48.060, 0.647, 0.437, 0.618, 0.488, -0.183, 0, 35.277, -40.446, 140.444, -16.813, -18.887, -18.693, 31.32, 0.20364, 0.40591, 0.15588, 0.87714,
 11:23:32.248,e3:ca:2d:fd:e0:8c, 2015-01-01 00:47:33.960, 0.824, 0.093, 0.587, -0.305, 0.244, 0, 8.844, -54.152, 172.425, -22.673, -9.967, -17.067, 27.53, -0.02386, -0.45755, -0.03851, -0.88797,
 11:23:32.248,e3:ca:2d:fd:e0:8c, 2015-01-01 00:47:33.960, 0.824, 0.093, 0.588, -0.427, 0.305, 0, 8.833, -54.146, 172.43, -22.673, -9.967, -17.067, 27.53, -0.02386, -0.45755, -0.03851, -0.88797,
 11:23:32.266,f6:90:cc:01:6d:25, 2015-01-01 00:48:04.190, 0.874, 0.286, 0.356, -0.549, 0.244, 0, 38.425, -62.32, 176.402, -26.500, -15.967, -5.100, 31.56, 0.14484, -0.49753, -0.2666, -0.81259,
 11:23:32.266,f6:90:cc:01:6d:25, 2015-01-01 00:48:04.190, 0.875, 0.286, 0.359, -0.549, 0.305, 0, 38.408, -62.314, 176.407, -26.500, -15.967, -5.100, 31.56, 0.14484, -0.49753, -0.2666, -0.81259,
 11:23:32.291,ed:40:fe:65:30:6c, 2015-01-01 00:47:55.355, 0.655, 0.435, 0.617, 0.183, -0.244, -0.305, 35.107, -40.957, -152.88, -18.667, -18.060, -0.433, 27.03, 0.31207, -0.258, -0.35236, -0.84366,
 11:23:32.291,ed:40:fe:65:30:6c, 2015-01-01 00:47:55.355, 0.654, 0.433, 0.618, 0, -0.122, -0.366, 35.112, -40.957, -152.891, -18.667, -18.060, -0.433, 27.03, 0.31207, -0.258, -0.35236, -0.84366,
 11:23:32.291,e3:ca:2d:fd:e0:8c, 2015-01-01 00:47:33.960, 0.825, 0.091, 0.588, -0.427, 0.244, 0, 8.828, -54.141, 172.436, -22.673, -9.967, -17.067, 27.53, -0.02359, -0.45731, -0.03848, -0.88812,
 11:23:32.291,e3:ca:2d:fd:e0:8c, 2015-01-01 00:47:33.960, 0.826, 0.091, 0.588, -0.427, 0.244, 0, 8.817, -54.135, 172.436, -22.673, -9.967, -17.067, 27.53, -0.02359, -0.45731, -0.03848, -0.88812,
 11:23:32.292,ed:35:33:d3:6c:f8, 2015-01-01 00:48:48.060, 0.648, 0.438, 0.619, 0.488, -0.183, -0.366, 35.288, -40.446, 140.433, -16.813, -18.887, -18.693, 31.32, 0.20364, 0.40591, 0.15588, 0.87714,
 11:23:32.292,ed:35:33:d3:6c:f8, 2015-01-01 00:48:48.060, 0.647, 0.438, 0.619, 0.183, -0.061, -0.427, 35.305, -40.446, 140.416, -16.813, -18.887, -18.693, 31.32, 0.20364, 0.40591, 0.15588, 0.87714,
 11:23:32.313,f6:90:cc:01:6d:25, 2015-01-01 00:48:04.190, 0.875, 0.285, 0.36, -0.793, 0.244, 0, 38.392, -62.309, 176.418, -26.500, -15.967, -5.100, 31.56, 0.14484, -0.49753, -0.2666, -0.81259,
 11:23:32.313,f6:90:cc:01:6d:25, 2015-01-01 00:48:04.190, 0.875, 0.285, 0.358, -0.793, 0.183, 0, 38.37, -62.309, 176.424, -26.500, -15.967, -5.100, 31.56, 0.14484, -0.49753, -0.2666, -0.81259,
 11:23:32.333,f6:90:cc:01:6d:25, 2015-01-01 00:48:04.190, 0.875, 0.283, 0.357, -0.793, 0.122, 0, 38.353, -62.303, 176.424, -26.500, -15.967, -5.100, 31.56, 0.14471, -0.49713, -0.26584, -0.81311,
 11:23:32.333,f6:90:cc:01:6d:25, 2015-01-01 00:48:04.190, 0.875, 0.284, 0.357, -0.732, 0.183, 0, 38.337, -62.303, 176.429, -26.500, -15.967, -5.100, 31.56, 0.14471, -0.49713, -0.26584, -0.81311,
 11:23:32.335,ed:40:fe:65:30:6c, 2015-01-01 00:47:55.355, 0.654, 0.431, 0.617, -0.122, -0.244, -0.427, 35.118, -40.952, -152.902, -18.667, -18.060, -0.433, 27.03, 0.31207, -0.258, -0.35236, -0.84366,
 11:23:32.335,ed:40:fe:65:30:6c, 2015-01-01 00:47:55.355, 0.654, 0.431, 0.614, -0.427, -0.244, -0.427, 35.123, -40.952, -152.913, -18.667, -18.060, -0.433, 27.03, 0.31207, -0.258, -0.35236, -0.84366,
 11:23:32.338,e3:ca:2d:fd:e0:8c, 2015-01-01 00:47:34.270, 0.825, 0.092, 0.588, -0.488, 0.244, 0, 8.811, -54.13, 172.441, -22.673, -9.967, -17.067, 27.53, -0.02359, -0.45731, -0.03848, -0.88812,
 11:23:32.338,e3:ca:2d:fd:e0:8c, 2015-01-01 00:47:34.270, 0.826, 0.091, 0.589, -0.427, 0.244, 0, 8.8, -54.13, 172.447, -22.673, -9.967, -17.067, 27.53, -0.02359, -0.45731, -0.03848, -0.88812,
 11:23:32.359,ed:35:33:d3:6c:f8, 2015-01-01 00:48:48.060, 0.647, 0.436, 0.619, 0.061, -0.122, -0.427, 35.31, -40.441, 140.4, -16.813, -18.887, -18.693, 31.32, 0.20364, 0.40591, 0.15588, 0.87714,
 11:23:32.359,ed:35:33:d3:6c:f8, 2015-01-01 00:48:48.060, 0.646, 0.437, 0.615, -0.244, -0.122, -0.427, 35.316, -40.441, 140.383, -16.813, -18.887, -18.693, 31.32, 0.20364, 0.40591, 0.15588, 0.87714,
 11:23:32.379,f6:90:cc:01:6d:25, 2015-01-01 00:48:04.190, 0.875, 0.285, 0.358, -0.732, 0.366, 0, 38.315, -62.298, 176.44, -26.500, -15.967, -5.100, 31.56, 0.14471, -0.49713, -0.26584, -0.81311,
 11:23:32.379,f6:90:cc:01:6d:25, 2015-01-01 00:48:04.190, 0.873, 0.281, 0.36, -0.61, 0.183, 0, 38.304, -62.298, 176.446, -26.500, -15.967, -5.100, 31.56, 0.14471, -0.49713, -0.26584, -0.81311,
 11:23:32.380,ed:35:33:d3:6c:f8, 2015-01-01 00:48:48.060, 0.646, 0.438, 0.617, -0.244, -0.122, -0.488, 35.316, -40.435, 140.367, -17.220, -19.173, -17.933, 31.32, 0.20364, 0.40591, 0.15588, 0.87714,
 11:23:32.380,ed:35:33:d3:6c:f8, 2015-01-01 00:48:48.060, 0.642, 0.437, 0.619, 0.061, 0, -0.366, 35.321, -40.435, 140.35, -17.220, -19.173, -17.933, 31.32, 0.20364, 0.40591, 0.15588, 0.87714,
 11:23:32.381,e3:ca:2d:fd:e0:8c, 2015-01-01 00:47:34.270, 0.825, 0.091, 0.587, -0.427, 0.305, 0, 8.789, -54.124, 172.452, -22.673, -9.967, -17.067, 27.53, -0.02359, -0.45731, -0.03848, -0.88812,
 11:23:32.381,e3:ca:2d:fd:e0:8c, 2015-01-01 00:47:34.270, 0.824, 0.091, 0.589, -0.305, 0.427, 0, 8.784, -54.113, 172.452, -22.673, -9.967, -17.067, 27.53, -0.02359, -0.45731, -0.03848, -0.88812,
 11:23:32.402,ed:40:fe:65:30:6c, 2015-01-01 00:47:55.355, 0.654, 0.433, 0.615, -0.305, -0.244, -0.427, 35.123, -40.952, -152.924, -18.747, -18.180, -0.213, 27.03, 0.31207, -0.258, -0.35236, -0.84366,
 11:23:32.402,ed:40:fe:65:30:6c, 2015-01-01 00:47:55.355, 0.649, 0.432, 0.619, 0, -0.183, -0.366, 35.129, -40.952, -152.935, -18.747, -18.180, -0.213, 27.03, 0.31207, -0.258, -0.35236, -0.84366,
 11:23:32.423,f6:90:cc:01:6d:25, 2015-01-01 00:48:04.570, 0.873, 0.284, 0.356, -0.61, 0.305, 0, 38.287, -62.292, 176.457, -26.500, -15.967, -5.100, 31.56, 0.14471, -0.49713, -0.26584, -0.81311,
 11:23:32.423,f6:90:cc:01:6d:25, 2015-01-01 00:48:04.570, 0.873, 0.286, 0.36, -0.549, 0.366, 0, 38.265, -62.287, 176.468, -26.500, -15.967, -5.100, 31.56, 0.14471, -0.49713, -0.26584, -0.81311,
 11:23:32.425,ed:40:fe:65:30:6c, 2015-01-01 00:47:55.355, 0.653, 0.428, 0.615, 0, -0.183, -0.122, 35.129, -40.952, -152.946, -18.747, -18.180, -0.213, 27.03, 0.31152, -0.25812, -0.35287, -0.84363,
 11:23:32.425,ed:40:fe:65:30:6c, 2015-01-01 00:47:55.355, 0.653, 0.436, 0.617, 0.244, -0.122, -0.305, 35.134, -40.952, -152.952, -18.747, -18.180, -0.213, 27.03, 0.31152, -0.25812, -0.35287, -0.84363,
 11:23:32.425,ed:35:33:d3:6c:f8, 2015-01-01 00:48:48.060, 0.646, 0.433, 0.616, -0.183, -0.183, -0.122, 35.327, -40.435, 140.339, -17.220, -19.173, -17.933, 31.32, 0.20364, 0.40591, 0.15588, 0.87714,
 11:23:32.425,ed:35:33:d3:6c:f8, 2015-01-01 00:48:48.060, 0.646, 0.44, 0.617, 0.061, -0.122, -0.305, 35.327, -40.435, 140.328, -17.220, -19.173, -17.933, 31.32, 0.20364, 0.40591, 0.15588, 0.87714,
 11:23:32.427,e3:ca:2d:fd:e0:8c, 2015-01-01 00:47:34.270, 0.823, 0.09, 0.587, -0.122, 0.427, 0, 8.778, -54.108, 172.458, -22.673, -9.967, -17.067, 27.53, -0.02359, -0.45731, -0.03848, -0.88812,
 11:23:32.427,e3:ca:2d:fd:e0:8c, 2015-01-01 00:47:34.270, 0.822, 0.093, 0.588, -0.183, 0.488, 0, 8.773, -54.102, 172.463, -22.673, -9.967, -17.067, 27.53, -0.02359, -0.45731, -0.03848, -0.88812,
 11:23:32.447,ed:35:33:d3:6c:f8, 2015-01-01 00:48:48.060, 0.645, 0.443, 0.621, 0.244, 0, -0.244, 35.332, -40.43, 140.317, -17.220, -19.173, -17.933, 31.32, 0.20477, 0.40637, 0.1561, 0.87662,
 11:23:32.448,ed:35:33:d3:6c:f8, 2015-01-01 00:48:48.060, 0.643, 0.444, 0.623, 0.427, -0.061, 0.183, 35.343, -40.43, 140.312, -17.220, -19.173, -17.933, 31.32, 0.20477, 0.40637, 0.1561, 0.87662,
 11:23:32.449,e3:ca:2d:fd:e0:8c, 2015-01-01 00:47:34.270, 0.823, 0.093, 0.59, -0.244, 0.427, 0, 8.773, -54.091, 172.469, -22.673, -9.967, -17.067, 27.53, -0.02359, -0.45731, -0.03848, -0.88812,
 11:23:32.449,e3:ca:2d:fd:e0:8c, 2015-01-01 00:47:34.270, 0.825, 0.092, 0.591, -0.183, 0.183, 0, 8.767, -54.086, 172.474, -22.673, -9.967, -17.067, 27.53, -0.02359, -0.45731, -0.03848, -0.88812,
 11:23:32.468,f6:90:cc:01:6d:25, 2015-01-01 00:48:04.570, 0.875, 0.284, 0.362, -0.244, 0.244, 0, 38.26, -62.281, 176.473, -26.500, -15.967, -5.100, 31.56, 0.14471, -0.49713, -0.26584, -0.81311,
 11:23:32.468,f6:90:cc:01:6d:25, 2015-01-01 00:48:04.570, 0.875, 0.284, 0.364, 0, 0.122, 0, 38.254, -62.281, 176.479, -26.500, -15.967, -5.100, 31.56, 0.14471, -0.49713, -0.26584, -0.81311,
 11:23:32.469,ed:40:fe:65:30:6c, 2015-01-01 00:47:55.355, 0.652, 0.438, 0.62, 0.366, 0, -0.183, 35.145, -40.946, -152.957, -18.747, -18.180, -0.213, 27.03, 0.31152, -0.25812, -0.35287, -0.84363,
 11:23:32.469,ed:40:fe:65:30:6c, 2015-01-01 00:47:55.355, 0.65, 0.436, 0.621, 0.366, -0.122, 0.122, 35.151, -40.946, -152.957, -18.747, -18.180, -0.213, 27.03, 0.31152, -0.25812, -0.35287, -0.84363,
 11:23:32.493,ed:40:fe:65:30:6c, 2015-01-01 00:47:55.715, 0.653, 0.43, 0.622, 1.038, -0.305, 0.366, 35.162, -40.952, -152.957, -18.747, -18.180, -0.213, 27.03, 0.31152, -0.25812, -0.35287, -0.84363,
 11:23:32.493,ed:40:fe:65:30:6c, 2015-01-01 00:47:55.715, 0.65, 0.433, 0.62, 1.282, -0.549, 0.488, 35.184, -40.963, -152.957, -18.747, -18.180, -0.213, 27.03, 0.31152, -0.25812, -0.35287, -0.84363,
 11:23:32.495,e3:ca:2d:fd:e0:8c, 2015-01-01 00:47:34.270, 0.822, 0.094, 0.59, -0.122, 0.122, 0, 8.767, -54.086, 172.474, -22.673, -9.967, -17.067, 27.53, -0.02359, -0.45731, -0.03848, -0.88812,
 11:23:32.495,e3:ca:2d:fd:e0:8c, 2015-01-01 00:47:34.270, 0.819, 0.093, 0.591, -0.122, 0.122, 0, 8.762, -54.08, 172.48, -22.673, -9.967, -17.067, 27.53, -0.02359, -0.45731, -0.03848, -0.88812,
 11:23:32.513,f6:90:cc:01:6d:25, 2015-01-01 00:48:04.570, 0.873, 0.284, 0.359, 0, 0, 0, 38.26, -62.281, 176.479, -26.500, -15.967, -5.100, 31.56, 0.14471, -0.49713, -0.26584, -0.81311,
 11:23:32.513,f6:90:cc:01:6d:25, 2015-01-01 00:48:04.570, 0.872, 0.286, 0.363, 0, 0, -0.366, 38.271, -62.276, 176.468, -26.500, -15.967, -5.100, 31.56, 0.14471, -0.49713, -0.26584, -0.81311,
 11:23:32.515,ed:35:33:d3:6c:f8, 2015-01-01 00:48:48.060, 0.645, 0.435, 0.624, 1.038, -0.244, 0.427, 35.354, -40.435, 140.306, -17.220, -19.173, -17.933, 31.32, 0.20477, 0.40637, 0.1561, 0.87662,
 11:23:32.515,ed:35:33:d3:6c:f8, 2015-01-01 00:48:48.060, 0.643, 0.438, 0.622, 1.343, -0.488, 0.61, 35.37, -40.446, 140.367, -17.220, -19.173, -17.933, 31.32, 0.20477, 0.40637, 0.1561, 0.87662,
 11:23:32.536,ed:40:fe:65:30:6c, 2015-01-01 00:47:55.715, 0.655, 0.435, 0.619, 1.587, -0.732, 0.427, 35.211, -40.974, -152.979, -18.747, -18.180, -0.213, 27.03, 0.31152, -0.25812, -0.35287, -0.84363,
 11:23:32.536,ed:40:fe:65:30:6c, 2015-01-01 00:47:55.715, 0.654, 0.438, 0.616, 1.282, -0.61, 0.366, 35.239, -40.99, -153.001, -18.747, -18.180, -0.213, 27.03, 0.31152, -0.25812, -0.35287, -0.84363,
 11:23:32.536,f6:90:cc:01:6d:25, 2015-01-01 00:48:04.570, 0.872, 0.285, 0.363, 0.061, -0.061, -0.366, 38.282, -62.276, 176.451, -26.500, -15.967, -5.100, 31.56, 0.14471, -0.49713, -0.26584, -0.81311,
 11:23:32.536,f6:90:cc:01:6d:25, 2015-01-01 00:48:04.570, 0.873, 0.284, 0.362, 0.122, -0.061, -0.305, 38.293, -62.271, 176.44, -26.500, -15.967, -5.100, 31.56, 0.14471, -0.49713, -0.26584, -0.81311,
 11:23:32.537,ed:35:33:d3:6c:f8, 2015-01-01 00:48:48.420, 0.647, 0.44, 0.621, 1.587, -0.671, 0.61, 35.398, -40.463, 140.477, -17.220, -19.173, -17.933, 31.32, 0.20477, 0.40637, 0.1561, 0.87662,
 11:23:32.537,ed:35:33:d3:6c:f8, 2015-01-01 00:48:48.420, 0.647, 0.442, 0.616, 1.221, -0.671, 0.488, 35.425, -40.479, 140.548, -17.220, -19.173, -17.933, 31.32, 0.20477, 0.40637, 0.1561, 0.87662,
 11:23:32.540,e3:ca:2d:fd:e0:8c, 2015-01-01 00:47:34.270, 0.818, 0.092, 0.591, -0.122, 0, 0, 8.762, -54.08, 172.48, -22.407, -9.827, -16.540, 27.53, -0.02359, -0.45731, -0.03848, -0.88812,
 11:23:32.540,e3:ca:2d:fd:e0:8c, 2015-01-01 00:47:34.270, 0.82, 0.091, 0.591, -0.122, -0.183, 0, 8.762, -54.086, 172.485, -22.407, -9.827, -16.540, 27.53, -0.02359, -0.45731, -0.03848, -0.88812,
 11:23:32.562,ed:35:33:d3:6c:f8, 2015-01-01 00:48:48.420, 0.647, 0.441, 0.613, 0.977, -0.366, 0.366, 35.442, -40.49, 140.576, -17.220, -19.173, -17.933, 31.32, 0.20477, 0.40637, 0.1561, 0.87662,
 11:23:32.562,ed:35:33:d3:6c:f8, 2015-01-01 00:48:48.420, 0.646, 0.439, 0.612, 0.793, -0.061, 0.305, 35.458, -40.496, 140.603, -17.220, -19.173, -17.933, 31.32, 0.20477, 0.40637, 0.1561, 0.87662,
 11:23:32.582,ed:40:fe:65:30:6c, 2015-01-01 00:47:55.715, 0.653, 0.437, 0.615, 0.977, -0.488, 0.305, 35.255, -41.001, -153.029, -18.747, -18.180, -0.213, 27.03, 0.31152, -0.25812, -0.35287, -0.84363,
 11:23:32.582,ed:40:fe:65:30:6c, 2015-01-01 00:47:55.715, 0.653, 0.435, 0.612, 0.732, -0.122, 0.305, 35.272, -41.006, -153.045, -18.747, -18.180, -0.213, 27.03, 0.31152, -0.25812, -0.35287, -0.84363,
 11:23:32.584,e3:ca:2d:fd:e0:8c, 2015-01-01 00:47:34.270, 0.822, 0.09, 0.59, -0.061, -0.183, 0, 8.762, -54.086, 172.485, -22.407, -9.827, -16.540, 27.53, -0.0235, -0.45682, -0.03821, -0.88837,
 11:23:32.584,e3:ca:2d:fd:e0:8c, 2015-01-01 00:47:34.270, 0.823, 0.09, 0.589, -0.122, -0.061, 0, 8.762, -54.086, 172.485, -22.407, -9.827, -16.540, 27.53, -0.0235, -0.45682, -0.03821, -0.88837,
 11:23:32.603,f6:90:cc:01:6d:25, 2015-01-01 00:48:04.570, 0.873, 0.284, 0.361, 0.183, -0.122, -0.122, 38.304, -62.271, 176.435, -26.500, -15.967, -5.100, 31.56, 0.14471, -0.49713, -0.26584, -0.81311,
 11:23:32.603,f6:90:cc:01:6d:25, 2015-01-01 00:48:04.570, 0.873, 0.282, 0.359, 0, -0.183, -0.122, 38.309, -62.271, 176.429, -26.500, -15.967, -5.100, 31.56, 0.14471, -0.49713, -0.26584, -0.81311,
 11:23:32.603,ed:40:fe:65:30:6c, 2015-01-01 00:47:55.715, 0.653, 0.431, 0.614, 0.977, 0, 0.427, 35.283, -41.006, -153.056, -18.747, -18.180, -0.213, 27.03, 0.31152, -0.25812, -0.35287, -0.84363,
 11:23:32.603,ed:40:fe:65:30:6c, 2015-01-01 00:47:55.715, 0.658, 0.432, 0.614, 1.526, -0.061, 0.366, 35.299, -41.012, -153.062, -18.747, -18.180, -0.213, 27.03, 0.31152, -0.25812, -0.35287, -0.84363,
 11:23:32.605,ed:35:33:d3:6c:f8, 2015-01-01 00:48:48.420, 0.647, 0.436, 0.614, 0.977, 0.122, 0.488, 35.469, -40.501, 140.636, -17.220, -19.173, -17.933, 31.32, 0.20477, 0.40637, 0.1561, 0.87662,
 11:23:32.605,ed:35:33:d3:6c:f8, 2015-01-01 00:48:48.420, 0.651, 0.437, 0.617, 1.465, 0, 0.488, 35.486, -40.507, 140.663, -17.220, -19.173, -17.933, 31.32, 0.20477, 0.40637, 0.1561, 0.87662,
 11:23:32.625,f6:90:cc:01:6d:25, 2015-01-01 00:48:04.570, 0.873, 0.284, 0.359, -0.183, -0.183, -0.122, 38.315, -62.271, 176.418, -26.133, -15.620, -6.113, 31.56, 0.14471, -0.49713, -0.26584, -0.81311,
 11:23:32.625,f6:90:cc:01:6d:25, 2015-01-01 00:48:04.570, 0.875, 0.285, 0.359, -0.061, -0.122, -0.183, 38.32, -62.271, 176.407, -26.133, -15.620, -6.113, 31.56, 0.14471, -0.49713, -0.26584, -0.81311,
 11:23:32.631,e3:ca:2d:fd:e0:8c, 2015-01-01 00:47:34.560, 0.823, 0.091, 0.589, -0.122, 0, 0, 8.762, -54.086, 172.491, -22.407, -9.827, -16.540, 27.53, -0.0235, -0.45682, -0.03821, -0.88837,
 11:23:32.631,e3:ca:2d:fd:e0:8c, 2015-01-01 00:47:34.560, 0.823, 0.092, 0.589, -0.061, 0.061, 0, 8.762, -54.086, 172.491, -22.407, -9.827, -16.540, 27.53, -0.0235, -0.45682, -0.03821, -0.88837,
 11:23:32.651,ed:35:33:d3:6c:f8, 2015-01-01 00:48:48.420, 0.651, 0.442, 0.617, 1.16, 0, 0.305, 35.508, -40.507, 140.713, -17.220, -19.173, -17.933, 31.32, 0.20477, 0.40637, 0.1561, 0.87662,
 11:23:32.651,ed:35:33:d3:6c:f8, 2015-01-01 00:48:48.420, 0.65, 0.443, 0.616, 0.488, 0, 0.122, 35.519, -40.512, 140.768, -17.220, -19.173, -17.933, 31.32, 0.20477, 0.40637, 0.1561, 0.87662,
 11:23:32.651,e3:ca:2d:fd:e0:8c, 2015-01-01 00:47:34.560, 0.825, 0.09, 0.59, -0.061, 0.061, 0, 8.756, -54.08, 172.496, -22.407, -9.827, -16.540, 27.53, -0.0235, -0.45682, -0.03821, -0.88837,
 11:23:32.651,e3:ca:2d:fd:e0:8c, 2015-01-01 00:47:34.560, 0.828, 0.09, 0.59, -0.122, 0, 0, 8.756, -54.08, 172.496, -22.407, -9.827, -16.540, 27.53, -0.0235, -0.45682, -0.03821, -0.88837,
 11:23:32.671,f6:90:cc:01:6d:25, 2015-01-01 00:48:04.570, 0.877, 0.286, 0.359, -0.061, -0.061, -0.122, 38.326, -62.271, 176.402, -26.133, -15.620, -6.113, 31.56, 0.14471, -0.49713, -0.26584, -0.81311,
 11:23:32.671,f6:90:cc:01:6d:25, 2015-01-01 00:48:04.570, 0.875, 0.285, 0.356, -0.122, 0, 0, 38.326, -62.271, 176.407, -26.133, -15.620, -6.113, 31.56, 0.14471, -0.49713, -0.26584, -0.81311,
 11:23:32.672,ed:40:fe:65:30:6c, 2015-01-01 00:47:55.715, 0.658, 0.438, 0.615, 1.282, -0.122, 0.305, 35.321, -41.017, -153.067, -18.747, -18.180, -0.213, 27.03, 0.31152, -0.25812, -0.35287, -0.84363,
 11:23:32.672,ed:40:fe:65:30:6c, 2015-01-01 00:47:55.715, 0.658, 0.439, 0.615, 0.549, -0.183, 0.122, 35.338, -41.017, -153.083, -18.747, -18.180, -0.213, 27.03, 0.31152, -0.25812, -0.35287, -0.84363,
 11:23:32.694,ed:40:fe:65:30:6c, 2015-01-01 00:47:55.715, 0.656, 0.437, 0.612, 0.122, -0.061, 0.122, 35.338, -41.023, -153.1, -18.707, -18.207, 0.060, 27.03, 0.31152, -0.25812, -0.35287, -0.84363,
 11:23:32.694,ed:40:fe:65:30:6c, 2015-01-01 00:47:55.715, 0.656, 0.434, 0.613, 0.366, 0, 0, 35.343, -41.023, -153.116, -18.707, -18.207, 0.060, 27.03, 0.31152, -0.25812, -0.35287, -0.84363,
 11:23:32.696,e3:ca:2d:fd:e0:8c, 2015-01-01 00:47:34.560, 0.827, 0.09, 0.589, -0.122, 0, 0, 8.756, -54.08, 172.496, -22.407, -9.827, -16.540, 27.53, -0.0235, -0.45682, -0.03821, -0.88837,
 11:23:32.696,e3:ca:2d:fd:e0:8c, 2015-01-01 00:47:34.560, 0.825, 0.091, 0.587, -0.122, 0.122, 0, 8.751, -54.08, 172.502, -22.407, -9.827, -16.540, 27.53, -0.0235, -0.45682, -0.03821, -0.88837,
 11:23:32.696,ed:35:33:d3:6c:f8, 2015-01-01 00:48:48.420, 0.648, 0.441, 0.613, 0.061, 0.061, 0.061, 35.524, -40.512, 140.746, -17.220, -19.173, -17.933, 31.32, 0.20477, 0.40637, 0.1561, 0.87662,
 11:23:32.696,ed:35:33:d3:6c:f8, 2015-01-01 00:48:48.420, 0.648, 0.438, 0.611, 0.183, 0.183, 0, 35.524, -40.512, 140.663, -17.220, -19.173, -17.933, 31.32, 0.20477, 0.40637, 0.1561, 0.87662,
 11:23:32.739,f6:90:cc:01:6d:25, 2015-01-01 00:48:04.570, 0.874, 0.284, 0.356, -0.122, 0, 0, 38.326, -62.271, 176.407, -26.133, -15.620, -6.113, 31.56, 0.14429, -0.49698, -0.2655, -0.81339,
 11:23:32.739,f6:90:cc:01:6d:25, 2015-01-01 00:48:04.570, 0.872, 0.284, 0.356, -0.122, -0.061, -0.122, 38.326, -62.271, 176.407, -26.133, -15.620, -6.113, 31.56, 0.14429, -0.49698, -0.2655, -0.81339,
 11:23:32.739,ed:40:fe:65:30:6c, 2015-01-01 00:47:55.715, 0.652, 0.435, 0.61, 0.854, 0.305, 0.122, 35.354, -41.023, -153.138, -18.707, -18.207, 0.060, 27.03, 0.31152, -0.25812, -0.35287, -0.84363,
 11:23:32.739,ed:40:fe:65:30:6c, 2015-01-01 00:47:55.715, 0.653, 0.435, 0.612, 1.343, 0, 0.427, 35.376, -41.023, -153.155, -18.707, -18.207, 0.060, 27.03, 0.31152, -0.25812, -0.35287, -0.84363,
 11:23:32.741,ed:35:33:d3:6c:f8, 2015-01-01 00:48:48.420, 0.644, 0.441, 0.611, 0.793, 0.244, 0.183, 35.53, -40.512, 140.57, -17.220, -19.173, -17.933, 31.32, 0.20477, 0.40637, 0.1561, 0.87662,
 11:23:32.741,ed:35:33:d3:6c:f8, 2015-01-01 00:48:48.420, 0.646, 0.44, 0.615, 1.099, 0, 0.488, 35.546, -40.512, 140.488, -17.220, -19.173, -17.933, 31.32, 0.20477, 0.40637, 0.1561, 0.87662,
 11:23:32.742,e3:ca:2d:fd:e0:8c, 2015-01-01 00:47:34.560, 0.823, 0.091, 0.588, 0, 0.183, 0, 8.751, -54.075, 172.502, -22.407, -9.827, -16.540, 27.53, -0.0235, -0.45682, -0.03821, -0.88837,
 11:23:32.742,e3:ca:2d:fd:e0:8c, 2015-01-01 00:47:34.560, 0.822, 0.093, 0.587, 0, 0.305, 0, 8.751, -54.075, 172.507, -22.407, -9.827, -16.540, 27.53, -0.0235, -0.45682, -0.03821, -0.88837,
 11:23:32.761,f6:90:cc:01:6d:25, 2015-01-01 00:48:04.925, 0.873, 0.286, 0.355, 0, 0, -0.122, 38.326, -62.276, 176.402, -26.133, -15.620, -6.113, 31.56, 0.14429, -0.49698, -0.2655, -0.81339,
 11:23:32.761,f6:90:cc:01:6d:25, 2015-01-01 00:48:04.925, 0.874, 0.287, 0.359, 0.183, 0.061, -0.183, 38.337, -62.271, 176.396, -26.133, -15.620, -6.113, 31.56, 0.14429, -0.49698, -0.2655, -0.81339,
 11:23:32.763,ed:35:33:d3:6c:f8, 2015-01-01 00:48:48.420, 0.649, 0.44, 0.617, 0.793, -0.183, 0.427, 35.557, -40.523, 140.46, -16.973, -18.507, -19.107, 31.32, 0.20477, 0.40637, 0.1561, 0.87662,
 11:23:32.763,ed:35:33:d3:6c:f8, 2015-01-01 00:48:48.420, 0.647, 0.442, 0.616, 0.61, -0.305, 0.183, 35.568, -40.529, 140.477, -16.973, -18.507, -19.107, 31.32, 0.20477, 0.40637, 0.1561, 0.87662,
 11:23:32.766,ed:40:fe:65:30:6c, 2015-01-01 00:47:55.715, 0.656, 0.436, 0.614, 1.221, -0.183, 0.427, 35.392, -41.028, -153.16, -18.707, -18.207, 0.060, 27.03, 0.31064, -0.25867, -0.35425, -0.8432,
 11:23:32.766,ed:40:fe:65:30:6c, 2015-01-01 00:47:55.715, 0.656, 0.438, 0.615, 0.854, -0.305, 0.183, 35.409, -41.039, -153.171, -18.707, -18.207, 0.060, 27.03, 0.31064, -0.25867, -0.35425, -0.8432,
 11:23:32.783,f6:90:cc:01:6d:25, 2015-01-01 00:48:04.925, 0.874, 0.286, 0.36, 0, 0.122, -0.122, 38.342, -62.271, 176.391, -26.133, -15.620, -6.113, 31.56, 0.14429, -0.49698, -0.2655, -0.81339,
 11:23:32.783,f6:90:cc:01:6d:25, 2015-01-01 00:48:04.925, 0.874, 0.286, 0.361, -0.061, 0, -0.061, 38.348, -62.271, 176.391, -26.133, -15.620, -6.113, 31.56, 0.14429, -0.49698, -0.2655, -0.81339,
 11:23:32.789,e3:ca:2d:fd:e0:8c, 2015-01-01 00:47:34.560, 0.823, 0.093, 0.589, 0, 0.183, 0, 8.751, -54.069, 172.513, -22.407, -9.827, -16.540, 27.53, -0.0235, -0.45682, -0.03821, -0.88837,
 11:23:32.789,e3:ca:2d:fd:e0:8c, 2015-01-01 00:47:34.560, 0.823, 0.091, 0.59, -0.183, 0.061, 0, 8.751, -54.069, 172.513, -22.407, -9.827, -16.540, 27.53, -0.0235, -0.45682, -0.03821, -0.88837,
 11:23:32.807,ed:40:fe:65:30:6c, 2015-01-01 00:47:55.715, 0.656, 0.438, 0.614, 0.549, -0.305, 0.061, 35.425, -41.045, -153.182, -18.707, -18.207, 0.060, 27.03, 0.31064, -0.25867, -0.35425, -0.8432,
 11:23:32.807,ed:40:fe:65:30:6c, 2015-01-01 00:47:55.715, 0.654, 0.438, 0.612, 0.183, -0.122, 0, 35.431, -41.045, -153.199, -18.707, -18.207, 0.060, 27.03, 0.31064, -0.25867, -0.35425, -0.8432,
 11:23:32.808,ed:35:33:d3:6c:f8, 2015-01-01 00:48:48.420, 0.648, 0.441, 0.614, 0.305, -0.183, 0.122, 35.579, -40.534, 140.526, -16.973, -18.507, -19.107, 31.32, 0.20477, 0.40637, 0.1561, 0.87662,
 11:23:32.808,ed:35:33:d3:6c:f8, 2015-01-01 00:48:48.420, 0.646, 0.441, 0.613, 0.122, -0.061, 0, 35.585, -40.54, 140.537, -16.973, -18.507, -19.107, 31.32, 0.20477, 0.40637, 0.1561, 0.87662,
 11:23:32.809,e3:ca:2d:fd:e0:8c, 2015-01-01 00:47:34.560, 0.823, 0.092, 0.591, -0.183, 0, 0, 8.745, -54.069, 172.518, -22.813, -9.967, -17.340, 27.53, -0.0235, -0.45682, -0.03821, -0.88837,
 11:23:32.809,e3:ca:2d:fd:e0:8c, 2015-01-01 00:47:34.560, 0.821, 0.092, 0.59, -0.122, 0.061, 0, 8.745, -54.069, 172.518, -22.813, -9.967, -17.340, 27.53, -0.0235, -0.45682, -0.03821, -0.88837,
 11:23:32.828,f6:90:cc:01:6d:25, 2015-01-01 00:48:04.925, 0.873, 0.286, 0.359, -0.183, 0, 0, 38.348, -62.271, 176.391, -26.133, -15.620, -6.113, 31.56, 0.14429, -0.49698, -0.2655, -0.81339,
 11:23:32.828,f6:90:cc:01:6d:25, 2015-01-01 00:48:04.925, 0.872, 0.286, 0.358, -0.061, 0.061, -0.061, 38.348, -62.271, 176.391, -26.133, -15.620, -6.113, 31.56, 0.14429, -0.49698, -0.2655, -0.81339,
 11:23:32.853,ed:40:fe:65:30:6c, 2015-01-01 00:47:56.050, 0.654, 0.438, 0.612, 0.183, -0.061, 0, 35.436, -41.045, -153.215, -18.707, -18.207, 0.060, 27.03, 0.31064, -0.25867, -0.35425, -0.8432,
 11:23:32.853,ed:40:fe:65:30:6c, 2015-01-01 00:47:56.050, 0.656, 0.437, 0.613, 0.061, -0.122, 0, 35.442, -41.05, -153.237, -18.707, -18.207, 0.060, 27.03, 0.31064, -0.25867, -0.35425, -0.8432,
 11:23:32.854,e3:ca:2d:fd:e0:8c, 2015-01-01 00:47:34.560, 0.821, 0.092, 0.59, -0.061, 0.122, 0, 8.745, -54.064, 172.518, -22.813, -9.967, -17.340, 27.53, -0.0235, -0.45682, -0.03821, -0.88837,
 11:23:32.854,e3:ca:2d:fd:e0:8c, 2015-01-01 00:47:34.560, 0.822, 0.092, 0.59, 0, 0.122, 0, 8.745, -54.064, 172.524, -22.813, -9.967, -17.340, 27.53, -0.0235, -0.45682, -0.03821, -0.88837,
 11:23:32.876,f6:90:cc:01:6d:25, 2015-01-01 00:48:04.925, 0.873, 0.285, 0.358, 0.061, 0.122, -0.122, 38.348, -62.265, 176.391, -26.133, -15.620, -6.113, 31.56, 0.14429, -0.49698, -0.2655, -0.81339,
 11:23:32.876,f6:90:cc:01:6d:25, 2015-01-01 00:48:04.925, 0.874, 0.284, 0.361, 0.244, 0, -0.122, 38.353, -62.265, 176.391, -26.133, -15.620, -6.113, 31.56, 0.14429, -0.49698, -0.2655, -0.81339,
 11:23:32.878,ed:35:33:d3:6c:f8, 2015-01-01 00:48:48.420, 0.647, 0.441, 0.614, 0, -0.061, 0, 35.59, -40.54, 140.488, -16.973, -18.507, -19.107, 31.32, 0.20184, 0.40726, 0.15845, 0.87646,
 11:23:32.878,ed:35:33:d3:6c:f8, 2015-01-01 00:48:48.420, 0.648, 0.44, 0.615, 0, -0.244, 0, 35.59, -40.545, 140.466, -16.973, -18.507, -19.107, 31.32, 0.20184, 0.40726, 0.15845, 0.87646,
 11:23:32.896,f6:90:cc:01:6d:25, 2015-01-01 00:48:04.925, 0.875, 0.285, 0.359, 0.183, -0.061, -0.061, 38.364, -62.265, 176.385, -26.133, -15.620, -6.113, 31.56, 0.14429, -0.49698, -0.2655, -0.81339,
 11:23:32.896,f6:90:cc:01:6d:25, 2015-01-01 00:48:04.925, 0.874, 0.284, 0.359, 0.122, -0.061, 0, 38.37, -62.265, 176.385, -26.133, -15.620, -6.113, 31.56, 0.14429, -0.49698, -0.2655, -0.81339,
 11:23:32.897,ed:40:fe:65:30:6c, 2015-01-01 00:47:56.050, 0.656, 0.436, 0.614, 0, -0.244, -0.061, 35.442, -41.05, -153.248, -18.707, -18.207, 0.060, 27.03, 0.31064, -0.25867, -0.35425, -0.8432,
 11:23:32.897,ed:40:fe:65:30:6c, 2015-01-01 00:47:56.050, 0.656, 0.437, 0.613, -0.244, -0.122, -0.061, 35.442, -41.05, -153.265, -18.707, -18.207, 0.060, 27.03, 0.31064, -0.25867, -0.35425, -0.8432,
 11:23:32.899,ed:35:33:d3:6c:f8, 2015-01-01 00:48:48.800, 0.649, 0.441, 0.615, -0.061, -0.244, 0, 35.59, -40.545, 140.46, -16.973, -18.507, -19.107, 31.32, 0.20184, 0.40726, 0.15845, 0.87646,
 11:23:32.899,ed:35:33:d3:6c:f8, 2015-01-01 00:48:48.800, 0.648, 0.442, 0.613, -0.244, -0.061, 0, 35.59, -40.551, 140.444, -16.973, -18.507, -19.107, 31.32, 0.20184, 0.40726, 0.15845, 0.87646,
 11:23:32.900,e3:ca:2d:fd:e0:8c, 2015-01-01 00:47:34.560, 0.823, 0.091, 0.589, 0, 0, 0, 8.745, -54.064, 172.524, -22.813, -9.967, -17.340, 27.53, -0.02328, -0.45663, -0.03824, -0.88849,
 11:23:32.900,e3:ca:2d:fd:e0:8c, 2015-01-01 00:47:34.560, 0.823, 0.09, 0.59, 0, 0, 0, 8.751, -54.064, 172.529, -22.813, -9.967, -17.340, 27.53, -0.02328, -0.45663, -0.03824, -0.88849,
 11:23:32.942,ed:40:fe:65:30:6c, 2015-01-01 00:47:56.050, 0.655, 0.437, 0.613, -0.244, 0, 0, 35.436, -41.05, -153.292, -18.707, -18.207, 0.060, 27.03, 0.31064, -0.25867, -0.35425, -0.8432,
 11:23:32.942,ed:40:fe:65:30:6c, 2015-01-01 00:47:56.050, 0.655, 0.437, 0.614, -0.305, 0, 0, 35.431, -41.05, -153.314, -18.707, -18.207, 0.060, 27.03, 0.31064, -0.25867, -0.35425, -0.8432,
 11:23:32.944,e3:ca:2d:fd:e0:8c, 2015-01-01 00:47:34.875, 0.824, 0.089, 0.589, 0, 0, 0, 8.751, -54.064, 172.529, -22.813, -9.967, -17.340, 27.53, -0.02328, -0.45663, -0.03824, -0.88849,
 11:23:32.944,e3:ca:2d:fd:e0:8c, 2015-01-01 00:47:34.875, 0.824, 0.091, 0.589, 0.122, 0, 0, 8.751, -54.064, 172.529, -22.813, -9.967, -17.340, 27.53, -0.02328, -0.45663, -0.03824, -0.88849,
 11:23:32.944,ed:35:33:d3:6c:f8, 2015-01-01 00:48:48.800, 0.648, 0.442, 0.614, -0.244, 0, 0, 35.59, -40.551, 140.4, -16.973, -18.507, -19.107, 31.32, 0.20184, 0.40726, 0.15845, 0.87646,
 11:23:32.944,ed:35:33:d3:6c:f8, 2015-01-01 00:48:48.800, 0.648, 0.441, 0.615, -0.366, 0, 0.061, 35.585, -40.551, 140.378, -16.973, -18.507, -19.107, 31.32, 0.20184, 0.40726, 0.15845, 0.87646,
 11:23:32.962,f6:90:cc:01:6d:25, 2015-01-01 00:48:04.925, 0.874, 0.284, 0.358, 0, -0.183, 0, 38.375, -62.265, 176.385, -26.133, -15.620, -6.113, 31.56, 0.14429, -0.49698, -0.2655, -0.81339,
 11:23:32.962,f6:90:cc:01:6d:25, 2015-01-01 00:48:04.925, 0.874, 0.285, 0.357, 0.061, -0.122, 0, 38.381, -62.271, 176.38, -26.133, -15.620, -6.113, 31.56, 0.14429, -0.49698, -0.2655, -0.81339,
 11:23:32.964,ed:40:fe:65:30:6c, 2015-01-01 00:47:56.050, 0.655, 0.435, 0.613, -0.305, -0.061, 0.061, 35.425, -41.05, -153.325, -18.707, -18.207, 0.060, 27.03, 0.31064, -0.25867, -0.35425, -0.8432,
 11:23:32.964,ed:40:fe:65:30:6c, 2015-01-01 00:47:56.050, 0.656, 0.434, 0.614, -0.122, -0.061, 0.122, 35.42, -41.056, -153.342, -18.707, -18.207, 0.060, 27.03, 0.31064, -0.25867, -0.35425, -0.8432,
 11:23:32.966,ed:35:33:d3:6c:f8, 2015-01-01 00:48:48.800, 0.648, 0.439, 0.615, -0.305, -0.061, 0.061, 35.579, -40.551, 140.378, -16.973, -18.507, -19.107, 31.32, 0.20184, 0.40726, 0.15845, 0.87646,
 11:23:32.966,ed:35:33:d3:6c:f8, 2015-01-01 00:48:48.800, 0.649, 0.438, 0.614, -0.244, -0.061, 0.122, 35.574, -40.556, 140.389, -16.973, -18.507, -19.107, 31.32, 0.20184, 0.40726, 0.15845, 0.87646,
 11:23:32.986,f6:90:cc:01:6d:25, 2015-01-01 00:48:04.925, 0.874, 0.284, 0.359, 0, -0.061, 0, 38.386, -62.271, 176.375, -25.347, -15.153, -5.940, 31.56, 0.14429, -0.49698, -0.2655, -0.81339,
 11:23:32.986,f6:90:cc:01:6d:25, 2015-01-01 00:48:04.925, 0.874, 0.284, 0.359, 0.061, -0.061, -0.122, 38.392, -62.271, 176.375, -25.347, -15.153, -5.940, 31.56, 0.14429, -0.49698, -0.2655, -0.81339,
 11:23:32.989,e3:ca:2d:fd:e0:8c, 2015-01-01 00:47:34.875, 0.823, 0.092, 0.588, 0.061, 0, 0, 8.756, -54.064, 172.535, -22.813, -9.967, -17.340, 27.53, -0.02328, -0.45663, -0.03824, -0.88849,
 11:23:32.989,e3:ca:2d:fd:e0:8c, 2015-01-01 00:47:34.875, 0.822, 0.09, 0.589, 0.061, 0, 0, 8.756, -54.064, 172.535, -22.813, -9.967, -17.340, 27.53, -0.02328, -0.45663, -0.03824, -0.88849,
 11:23:33.010,ed:35:33:d3:6c:f8, 2015-01-01 00:48:48.800, 0.648, 0.438, 0.614, -0.122, 0, 0.183, 35.568, -40.556, 140.422, -16.973, -18.507, -19.107, 31.32, 0.20184, 0.40726, 0.15845, 0.87646,
 11:23:33.010,ed:35:33:d3:6c:f8, 2015-01-01 00:48:48.800, 0.649, 0.44, 0.614, -0.183, 0, 0.183, 35.563, -40.562, 140.482, -16.973, -18.507, -19.107, 31.32, 0.20184, 0.40726, 0.15845, 0.87646,
 11:23:33.012,e3:ca:2d:fd:e0:8c, 2015-01-01 00:47:34.875, 0.823, 0.091, 0.589, 0.122, -0.061, 0, 8.762, -54.064, 172.535, -22.813, -9.967, -17.340, 27.53, -0.02328, -0.45663, -0.03824, -0.88849,
 11:23:33.012,e3:ca:2d:fd:e0:8c, 2015-01-01 00:47:34.875, 0.823, 0.091, 0.59, 0.244, 0, 0, 8.762, -54.064, 172.54, -22.813, -9.967, -17.340, 27.53, -0.02328, -0.45663, -0.03824, -0.88849,
 11:23:33.031,f6:90:cc:01:6d:25, 2015-01-01 00:48:04.925, 0.874, 0.285, 0.358, 0.183, -0.244, -0.122, 38.397, -62.276, 176.369, -25.347, -15.153, -5.940, 31.56, 0.14429, -0.49698, -0.2655, -0.81339,
 11:23:33.031,f6:90:cc:01:6d:25, 2015-01-01 00:48:04.925, 0.875, 0.287, 0.359, 0.366, -0.122, -0.061, 38.414, -62.276, 176.358, -25.347, -15.153, -5.940, 31.56, 0.14429, -0.49698, -0.2655, -0.81339,
 11:23:33.034,ed:40:fe:65:30:6c, 2015-01-01 00:47:56.050, 0.656, 0.434, 0.613, 0.061, 0, 0.183, 35.42, -41.056, -153.353, -18.707, -18.207, 0.060, 27.03, 0.31064, -0.25867, -0.35425, -0.8432,
 11:23:33.034,ed:40:fe:65:30:6c, 2015-01-01 00:47:56.050, 0.656, 0.436, 0.614, 0.061, 0, 0.122, 35.42, -41.056, -153.353, -18.707, -18.207, 0.060, 27.03, 0.31064, -0.25867, -0.35425, -0.8432,
 11:23:33.055,ed:40:fe:65:30:6c, 2015-01-01 00:47:56.050, 0.656, 0.438, 0.613, -0.122, 0.122, 0.122, 35.414, -41.056, -153.347, -19.173, -18.273, 0.120, 27.03, 0.31064, -0.25867, -0.35425, -0.8432,
 11:23:33.055,ed:40:fe:65:30:6c, 2015-01-01 00:47:56.050, 0.655, 0.438, 0.611, -0.305, 0.122, 0, 35.409, -41.056, -153.353, -19.173, -18.273, 0.120, 27.03, 0.31064, -0.25867, -0.35425, -0.8432,
 11:23:33.056,ed:35:33:d3:6c:f8, 2015-01-01 00:48:48.800, 0.649, 0.441, 0.613, -0.366, 0, 0, 35.557, -40.562, 140.554, -16.973, -18.507, -19.107, 31.32, 0.20184, 0.40726, 0.15845, 0.87646,
 11:23:33.056,ed:35:33:d3:6c:f8, 2015-01-01 00:48:48.800, 0.647, 0.44, 0.613, -0.488, 0, -0.122, 35.546, -40.562, 140.63, -16.973, -18.507, -19.107, 31.32, 0.20184, 0.40726, 0.15845, 0.87646,
 11:23:33.057,e3:ca:2d:fd:e0:8c, 2015-01-01 00:47:34.875, 0.823, 0.092, 0.59, 0.305, -0.061, 0, 8.773, -54.064, 172.54, -22.813, -9.967, -17.340, 27.53, -0.02328, -0.45663, -0.03824, -0.88849,
 11:23:33.057,e3:ca:2d:fd:e0:8c, 2015-01-01 00:47:34.875, 0.823, 0.093, 0.589, 0.305, -0.061, 0, 8.778, -54.064, 172.54, -22.813, -9.967, -17.340, 27.53, -0.02328, -0.45663, -0.03824, -0.88849,
 11:23:33.099,ed:40:fe:65:30:6c, 2015-01-01 00:47:56.050, 0.654, 0.436, 0.612, -0.427, 0.122, -0.183, 35.398, -41.05, -153.358, -19.173, -18.273, 0.120, 27.03, 0.31064, -0.25867, -0.35425, -0.8432,
 11:23:33.099,ed:40:fe:65:30:6c, 2015-01-01 00:47:56.050, 0.653, 0.438, 0.614, -0.427, 0.122, -0.122, 35.392, -41.05, -153.375, -19.173, -18.273, 0.120, 27.03, 0.31064, -0.25867, -0.35425, -0.8432,
 11:23:33.101,e3:ca:2d:fd:e0:8c, 2015-01-01 00:47:34.875, 0.823, 0.093, 0.589, 0.122, 0, 0, 8.784, -54.064, 172.54, -22.813, -9.967, -17.340, 27.53, -0.02328, -0.45663, -0.03824, -0.88849,
 11:23:33.101,e3:ca:2d:fd:e0:8c, 2015-01-01 00:47:34.875, 0.822, 0.092, 0.588, 0.061, 0, 0, 8.784, -54.064, 172.546, -22.813, -9.967, -17.340, 27.53, -0.02328, -0.45663, -0.03824, -0.88849,
 11:23:33.101,ed:35:33:d3:6c:f8, 2015-01-01 00:48:48.800, 0.647, 0.441, 0.614, -0.61, 0.061, -0.183, 35.541, -40.562, 140.669, -16.973, -18.507, -19.107, 31.32, 0.20184, 0.40726, 0.15845, 0.87646,
 11:23:33.101,ed:35:33:d3:6c:f8, 2015-01-01 00:48:48.800, 0.646, 0.442, 0.615, -0.61, 0.061, -0.122, 35.53, -40.562, 140.696, -16.973, -18.507, -19.107, 31.32, 0.20184, 0.40726, 0.15845, 0.87646,
 11:23:33.121,f6:90:cc:01:6d:25, 2015-01-01 00:48:04.925, 0.874, 0.288, 0.358, 0.122, 0, 0, 38.419, -62.276, 176.358, -25.347, -15.153, -5.940, 31.56, 0.14435, -0.49701, -0.2659, -0.81323,
 11:23:33.121,f6:90:cc:01:6d:25, 2015-01-01 00:48:04.925, 0.874, 0.288, 0.357, 0.122, 0.061, 0, 38.425, -62.276, 176.358, -25.347, -15.153, -5.940, 31.56, 0.14435, -0.49701, -0.2659, -0.81323,
 11:23:33.123,ed:35:33:d3:6c:f8, 2015-01-01 00:48:48.800, 0.647, 0.44, 0.616, -0.671, 0.061, -0.061, 35.519, -40.556, 140.718, -16.920, -19.073, -17.840, 31.32, 0.20184, 0.40726, 0.15845, 0.87646,
 11:23:33.123,ed:35:33:d3:6c:f8, 2015-01-01 00:48:48.800, 0.646, 0.44, 0.616, -0.61, 0.122, 0, 35.508, -40.556, 140.729, -16.920, -19.073, -17.840, 31.32, 0.20184, 0.40726, 0.15845, 0.87646,
 11:23:33.143,f6:90:cc:01:6d:25, 2015-01-01 00:48:05.285, 0.873, 0.286, 0.357, 0.122, 0.061, 0, 38.425, -62.276, 176.358, -25.347, -15.153, -5.940, 31.56, 0.14435, -0.49701, -0.2659, -0.81323,
 11:23:33.143,f6:90:cc:01:6d:25, 2015-01-01 00:48:05.285, 0.873, 0.286, 0.359, 0.244, 0, 0, 38.43, -62.276, 176.364, -25.347, -15.153, -5.940, 31.56, 0.14435, -0.49701, -0.2659, -0.81323,
 11:23:33.148,e3:ca:2d:fd:e0:8c, 2015-01-01 00:47:34.875, 0.822, 0.092, 0.589, 0.183, 0, 0, 8.789, -54.064, 172.546, -22.513, -9.893, -16.833, 27.53, -0.02328, -0.45663, -0.03824, -0.88849,
 11:23:33.148,e3:ca:2d:fd:e0:8c, 2015-01-01 00:47:34.875, 0.822, 0.092, 0.589, 0.244, 0, 0, 8.795, -54.064, 172.546, -22.513, -9.893, -16.833, 27.53, -0.02328, -0.45663, -0.03824, -0.88849,
 11:23:33.165,f6:90:cc:01:6d:25, 2015-01-01 00:48:05.285, 0.873, 0.287, 0.36, 0.244, 0, 0, 38.436, -62.276, 176.364, -25.347, -15.153, -5.940, 31.56, 0.14435, -0.49701, -0.2659, -0.81323,
 11:23:33.165,f6:90:cc:01:6d:25, 2015-01-01 00:48:05.285, 0.873, 0.287, 0.359, 0.122, -0.061, 0, 38.441, -62.276, 176.364, -25.347, -15.153, -5.940, 31.56, 0.14435, -0.49701, -0.2659, -0.81323,
 11:23:33.166,ed:40:fe:65:30:6c, 2015-01-01 00:47:56.050, 0.654, 0.436, 0.614, -0.366, 0.122, 0, 35.387, -41.045, -153.386, -19.173, -18.273, 0.120, 27.03, 0.30914, -0.25949, -0.35394, -0.84363,
 11:23:33.166,ed:40:fe:65:30:6c, 2015-01-01 00:47:56.050, 0.653, 0.437, 0.615, -0.427, 0.183, 0, 35.376, -41.045, -153.402, -19.173, -18.273, 0.120, 27.03, 0.30914, -0.25949, -0.35394, -0.84363,
 11:23:33.170,ed:35:33:d3:6c:f8, 2015-01-01 00:48:48.800, 0.647, 0.439, 0.615, -0.671, 0.183, -0.061, 35.497, -40.556, 140.773, -16.920, -19.073, -17.840, 31.32, 0.20184, 0.40726, 0.15845, 0.87646,
 11:23:33.170,ed:35:33:d3:6c:f8, 2015-01-01 00:48:48.800, 0.647, 0.44, 0.617, -0.549, 0.122, -0.183, 35.486, -40.551, 140.823, -16.920, -19.073, -17.840, 31.32, 0.20184, 0.40726, 0.15845, 0.87646,
 11:23:33.188,f6:90:cc:01:6d:25, 2015-01-01 00:48:05.285, 0.875, 0.287, 0.359, 0.061, 0, 0, 38.447, -62.276, 176.358, -25.347, -15.153, -5.940, 31.56, 0.14435, -0.49701, -0.2659, -0.81323,
 11:23:33.188,f6:90:cc:01:6d:25, 2015-01-01 00:48:05.285, 0.874, 0.284, 0.36, 0.183, 0, 0, 38.452, -62.276, 176.364, -25.347, -15.153, -5.940, 31.56, 0.14435, -0.49701, -0.2659, -0.81323,
 11:23:33.190,ed:40:fe:65:30:6c, 2015-01-01 00:47:56.405, 0.654, 0.436, 0.614, -0.427, 0.183, 0, 35.365, -41.039, -153.419, -19.173, -18.273, 0.120, 27.03, 0.30914, -0.25949, -0.35394, -0.84363,
 11:23:33.190,ed:40:fe:65:30:6c, 2015-01-01 00:47:56.405, 0.655, 0.436, 0.614, -0.366, 0.183, -0.122, 35.359, -41.034, -153.435, -19.173, -18.273, 0.120, 27.03, 0.30914, -0.25949, -0.35394, -0.84363,
 11:23:33.192,e3:ca:2d:fd:e0:8c, 2015-01-01 00:47:34.875, 0.822, 0.092, 0.589, 0.183, -0.061, 0, 8.8, -54.069, 172.551, -22.513, -9.893, -16.833, 27.53, -0.02286, -0.45663, -0.03876, -0.88846,
 11:23:33.192,e3:ca:2d:fd:e0:8c, 2015-01-01 00:47:34.875, 0.823, 0.092, 0.59, 0.061, -0.122, 0, 8.806, -54.069, 172.551, -22.513, -9.893, -16.833, 27.53, -0.02286, -0.45663, -0.03876, -0.88846,
 11:23:33.213,ed:40:fe:65:30:6c, 2015-01-01 00:47:56.405, 0.653, 0.437, 0.618, -0.061, 0.122, -0.061, 35.359, -41.028, -153.446, -19.173, -18.273, 0.120, 27.03, 0.30914, -0.25949, -0.35394, -0.84363,
 11:23:33.213,ed:40:fe:65:30:6c, 2015-01-01 00:47:56.405, 0.655, 0.431, 0.612, -0.183, 0.244, 0.061, 35.349, -41.028, -153.446, -19.173, -18.273, 0.120, 27.03, 0.30914, -0.25949, -0.35394, -0.84363,
 11:23:33.215,e3:ca:2d:fd:e0:8c, 2015-01-01 00:47:35.165, 0.822, 0.092, 0.591, 0.061, -0.061, 0, 8.806, -54.069, 172.551, -22.513, -9.893, -16.833, 27.53, -0.02286, -0.45663, -0.03876, -0.88846,
 11:23:33.215,e3:ca:2d:fd:e0:8c, 2015-01-01 00:47:35.165, 0.824, 0.089, 0.589, 0.244, -0.183, 0, 8.811, -54.075, 172.551, -22.513, -9.893, -16.833, 27.53, -0.02286, -0.45663, -0.03876, -0.88846,
 11:23:33.233,f6:90:cc:01:6d:25, 2015-01-01 00:48:05.285, 0.874, 0.283, 0.357, 0.244, 0.061, 0, 38.458, -62.276, 176.364, -25.347, -15.153, -5.940, 31.56, 0.14435, -0.49701, -0.2659, -0.81323,
 11:23:33.233,f6:90:cc:01:6d:25, 2015-01-01 00:48:05.285, 0.874, 0.287, 0.358, 0, 0.061, 0, 38.458, -62.276, 176.364, -25.347, -15.153, -5.940, 31.56, 0.14435, -0.49701, -0.2659, -0.81323,
 11:23:33.235,ed:35:33:d3:6c:f8, 2015-01-01 00:48:48.800, 0.646, 0.44, 0.618, -0.305, 0.183, -0.061, 35.48, -40.545, 140.85, -16.920, -19.073, -17.840, 31.32, 0.2001, 0.40683, 0.15863, 0.87701,
 11:23:33.235,ed:35:33:d3:6c:f8, 2015-01-01 00:48:48.800, 0.649, 0.436, 0.614, -0.549, 0.122, 0.122, 35.469, -40.545, 140.883, -16.920, -19.073, -17.840, 31.32, 0.2001, 0.40683, 0.15863, 0.87701,
 11:23:33.258,ed:35:33:d3:6c:f8, 2015-01-01 00:48:49.155, 0.646, 0.44, 0.617, -0.427, 0.244, 0, 35.458, -40.54, 140.9, -16.920, -19.073, -17.840, 31.32, 0.2001, 0.40683, 0.15863, 0.87701,
 11:23:33.258,ed:35:33:d3:6c:f8, 2015-01-01 00:48:49.155, 0.649, 0.437, 0.619, 0.122, 0.427, -0.183, 35.453, -40.534, 140.911, -16.920, -19.073, -17.840, 31.32, 0.2001, 0.40683, 0.15863, 0.87701,
 11:23:33.258,ed:40:fe:65:30:6c, 2015-01-01 00:47:56.405, 0.654, 0.437, 0.615, -0.244, 0.183, 0, 35.343, -41.023, -153.463, -19.173, -18.273, 0.120, 27.03, 0.30914, -0.25949, -0.35394, -0.84363,
 11:23:33.258,ed:40:fe:65:30:6c, 2015-01-01 00:47:56.405, 0.655, 0.435, 0.618, 0.061, 0.305, -0.061, 35.343, -41.017, -153.479, -19.173, -18.273, 0.120, 27.03, 0.30914, -0.25949, -0.35394, -0.84363,
 11:23:33.259,e3:ca:2d:fd:e0:8c, 2015-01-01 00:47:35.165, 0.822, 0.092, 0.59, 0.244, 0, 0, 8.817, -54.075, 172.551, -22.513, -9.893, -16.833, 27.53, -0.02286, -0.45663, -0.03876, -0.88846,
 11:23:33.259,e3:ca:2d:fd:e0:8c, 2015-01-01 00:47:35.165, 0.823, 0.094, 0.59, 0.061, 0.061, 0, 8.822, -54.069, 172.557, -22.513, -9.893, -16.833, 27.53, -0.02286, -0.45663, -0.03876, -0.88846,
 11:23:33.278,f6:90:cc:01:6d:25, 2015-01-01 00:48:05.285, 0.875, 0.289, 0.361, 0, 0, 0, 38.458, -62.276, 176.364, -25.347, -15.153, -5.940, 31.56, 0.14435, -0.49701, -0.2659, -0.81323,
 11:23:33.278,f6:90:cc:01:6d:25, 2015-01-01 00:48:05.285, 0.875, 0.286, 0.362, 0.305, 0, 0, 38.463, -62.276, 176.364, -25.347, -15.153, -5.940, 31.56, 0.14435, -0.49701, -0.2659, -0.81323,
 11:23:33.302,ed:40:fe:65:30:6c, 2015-01-01 00:47:56.405, 0.655, 0.436, 0.619, 0.366, 0.305, 0, 35.343, -41.012, -153.484, -19.173, -18.273, 0.120, 27.03, 0.30914, -0.25949, -0.35394, -0.84363,
 11:23:33.302,ed:40:fe:65:30:6c, 2015-01-01 00:47:56.405, 0.653, 0.434, 0.617, 0.366, 0.183, 0, 35.349, -41.006, -153.495, -19.173, -18.273, 0.120, 27.03, 0.30914, -0.25949, -0.35394, -0.84363,
 11:23:33.302,f6:90:cc:01:6d:25, 2015-01-01 00:48:05.285, 0.873, 0.283, 0.357, 0.427, -0.183, 0, 38.474, -62.276, 176.364, -25.347, -15.153, -5.940, 31.56, 0.14435, -0.49701, -0.2659, -0.81323,
 11:23:33.302,f6:90:cc:01:6d:25, 2015-01-01 00:48:05.285, 0.873, 0.286, 0.358, 0.488, -0.305, 0, 38.491, -62.281, 176.358, -25.347, -15.153, -5.940, 31.56, 0.14435, -0.49701, -0.2659, -0.81323,
 11:23:33.304,ed:35:33:d3:6c:f8, 2015-01-01 00:48:49.155, 0.647, 0.441, 0.62, 0.488, 0.427, 0, 35.458, -40.529, 140.927, -16.920, -19.073, -17.840, 31.32, 0.2001, 0.40683, 0.15863, 0.87701,
 11:23:33.304,ed:35:33:d3:6c:f8, 2015-01-01 00:48:49.155, 0.646, 0.438, 0.619, 0.244, 0.305, 0, 35.458, -40.523, 140.938, -16.920, -19.073, -17.840, 31.32, 0.2001, 0.40683, 0.15863, 0.87701,
 11:23:33.304,e3:ca:2d:fd:e0:8c, 2015-01-01 00:47:35.165, 0.824, 0.092, 0.591, 0.122, -0.183, 0, 8.822, -54.075, 172.557, -22.513, -9.893, -16.833, 27.53, -0.02286, -0.45663, -0.03876, -0.88846,
 11:23:33.304,e3:ca:2d:fd:e0:8c, 2015-01-01 00:47:35.165, 0.823, 0.091, 0.589, 0.244, -0.305, 0, 8.833, -54.08, 172.557, -22.513, -9.893, -16.833, 27.53, -0.02286, -0.45663, -0.03876, -0.88846,
 11:23:33.325,ed:35:33:d3:6c:f8, 2015-01-01 00:48:49.155, 0.646, 0.438, 0.618, 0.183, 0.244, 0, 35.464, -40.518, 140.955, -16.920, -19.073, -17.840, 31.32, 0.2001, 0.40683, 0.15863, 0.87701,
 11:23:33.325,ed:35:33:d3:6c:f8, 2015-01-01 00:48:49.155, 0.646, 0.44, 0.616, 0.366, 0.305, 0, 35.464, -40.512, 140.977, -16.920, -19.073, -17.840, 31.32, 0.2001, 0.40683, 0.15863, 0.87701,
 11:23:33.346,f6:90:cc:01:6d:25, 2015-01-01 00:48:05.285, 0.873, 0.287, 0.36, 0.305, -0.305, 0, 38.502, -62.287, 176.353, -25.347, -15.153, -5.940, 31.56, 0.14435, -0.49701, -0.2659, -0.81323,
 11:23:33.346,f6:90:cc:01:6d:25, 2015-01-01 00:48:05.285, 0.872, 0.288, 0.358, 0.244, -0.183, 0, 38.513, -62.287, 176.342, -25.347, -15.153, -5.940, 31.56, 0.14435, -0.49701, -0.2659, -0.81323,
 11:23:33.350,e3:ca:2d:fd:e0:8c, 2015-01-01 00:47:35.165, 0.822, 0.091, 0.589, 0.244, -0.244, 0, 8.839, -54.086, 172.557, -22.513, -9.893, -16.833, 27.53, -0.02286, -0.45663, -0.03876, -0.88846,
 11:23:33.350,e3:ca:2d:fd:e0:8c, 2015-01-01 00:47:35.165, 0.822, 0.093, 0.59, 0.244, -0.305, 0, 8.844, -54.091, 172.557, -22.513, -9.893, -16.833, 27.53, -0.02286, -0.45663, -0.03876, -0.88846,
 11:23:33.370,ed:40:fe:65:30:6c, 2015-01-01 00:47:56.405, 0.653, 0.434, 0.617, 0.183, 0.061, 0, 35.354, -41.006, -153.506, -19.173, -18.273, 0.120, 27.03, 0.30914, -0.25949, -0.35394, -0.84363,
 11:23:33.370,ed:40:fe:65:30:6c, 2015-01-01 00:47:56.405, 0.653, 0.437, 0.616, 0.488, 0.122, 0, 35.359, -41.001, -153.517, -19.173, -18.273, 0.120, 27.03, 0.30914, -0.25949, -0.35394, -0.84363,
 11:23:33.370,ed:35:33:d3:6c:f8, 2015-01-01 00:48:49.155, 0.647, 0.442, 0.612, -0.061, 0.427, 0, 35.464, -40.507, 141.037, -16.920, -19.073, -17.840, 31.32, 0.2001, 0.40683, 0.15863, 0.87701,
 11:23:33.370,ed:35:33:d3:6c:f8, 2015-01-01 00:48:49.155, 0.645, 0.444, 0.612, -0.122, 0.854, 0.305, 35.453, -40.496, 141.07, -16.920, -19.073, -17.840, 31.32, 0.2001, 0.40683, 0.15863, 0.87701,
 11:23:33.394,e3:ca:2d:fd:e0:8c, 2015-01-01 00:47:35.165, 0.822, 0.093, 0.589, 0.183, -0.427, 0, 8.849, -54.097, 172.557, -22.513, -9.893, -16.833, 27.53, -0.02286, -0.45663, -0.03876, -0.88846,
 11:23:33.394,e3:ca:2d:fd:e0:8c, 2015-01-01 00:47:35.165, 0.822, 0.093, 0.589, 0.061, -0.366, 0, 8.855, -54.102, 172.557, -22.513, -9.893, -16.833, 27.53, -0.02286, -0.45663, -0.03876, -0.88846,
 11:23:33.394,ed:40:fe:65:30:6c, 2015-01-01 00:47:56.405, 0.653, 0.437, 0.613, 0.244, 0.244, 0, 35.359, -40.995, -153.523, -18.660, -18.387, -0.493, 27.03, 0.30914, -0.25949, -0.35394, -0.84363,
 11:23:33.394,ed:40:fe:65:30:6c, 2015-01-01 00:47:56.405, 0.653, 0.438, 0.613, 0.122, 0.549, 0, 35.354, -40.99, -153.539, -18.660, -18.387, -0.493, 27.03, 0.30914, -0.25949, -0.35394, -0.84363,
 11:23:33.413,f6:90:cc:01:6d:25, 2015-01-01 00:48:05.285, 0.872, 0.286, 0.357, 0.061, -0.122, 0, 38.524, -62.292, 176.342, -25.920, -15.180, -6.007, 31.56, 0.14435, -0.49701, -0.2659, -0.81323,
 11:23:33.413,f6:90:cc:01:6d:25, 2015-01-01 00:48:05.285, 0.871, 0.285, 0.357, 0.305, -0.122, 0, 38.529, -62.292, 176.336, -25.920, -15.180, -6.007, 31.56, 0.14435, -0.49701, -0.2659, -0.81323,
 11:23:33.417,e3:ca:2d:fd:e0:8c, 2015-01-01 00:47:35.165, 0.823, 0.091, 0.589, 0.305, -0.305, 0, 8.86, -54.108, 172.557, -22.420, -9.980, -17.393, 27.53, -0.02286, -0.45663, -0.03876, -0.88846,
 11:23:33.417,e3:ca:2d:fd:e0:8c, 2015-01-01 00:47:35.165, 0.823, 0.092, 0.588, 0.488, -0.366, 0, 8.866, -54.113, 172.557, -22.420, -9.980, -17.393, 27.53, -0.02286, -0.45663, -0.03876, -0.88846,
 11:23:33.436,f6:90:cc:01:6d:25, 2015-01-01 00:48:05.285, 0.872, 0.284, 0.357, 0.549, -0.122, -0.305, 38.546, -62.292, 176.331, -25.920, -15.180, -6.007, 31.56, 0.14478, -0.49701, -0.26672, -0.81287,
 11:23:33.436,f6:90:cc:01:6d:25, 2015-01-01 00:48:05.285, 0.873, 0.288, 0.359, 0.854, -0.244, -0.305, 38.578, -62.292, 176.314, -25.920, -15.180, -6.007, 31.56, 0.14478, -0.49701, -0.26672, -0.81287,
 11:23:33.437,ed:40:fe:65:30:6c, 2015-01-01 00:47:56.405, 0.65, 0.434, 0.614, 0.732, 0.916, 0.61, 35.354, -40.979, -153.523, -18.660, -18.387, -0.493, 27.03, 0.30914, -0.25949, -0.35394, -0.84363,
 11:23:33.437,ed:40:fe:65:30:6c, 2015-01-01 00:47:56.405, 0.65, 0.433, 0.617, 1.282, 0.977, 0.916, 35.354, -40.974, -153.501, -18.660, -18.387, -0.493, 27.03, 0.30914, -0.25949, -0.35394, -0.84363,
 11:23:33.439,ed:35:33:d3:6c:f8, 2015-01-01 00:48:49.155, 0.644, 0.438, 0.615, 0.122, 1.099, 0.671, 35.436, -40.49, 141.075, -16.920, -19.073, -17.840, 31.32, 0.2001, 0.40683, 0.15863, 0.87701,
 11:23:33.439,ed:35:33:d3:6c:f8, 2015-01-01 00:48:49.155, 0.642, 0.438, 0.62, 0.549, 1.038, 0.916, 35.425, -40.479, 141.108, -16.920, -19.073, -17.840, 31.32, 0.2001, 0.40683, 0.15863, 0.87701,
 11:23:33.460,ed:40:fe:65:30:6c, 2015-01-01 00:47:56.405, 0.65, 0.435, 0.618, 1.709, 0.732, 1.038, 35.365, -40.974, -153.474, -18.660, -18.387, -0.493, 27.03, 0.30814, -0.25931, -0.35339, -0.84427,
 11:23:33.460,ed:40:fe:65:30:6c, 2015-01-01 00:47:56.405, 0.653, 0.439, 0.62, 1.831, 0.305, 0.977, 35.381, -40.979, -153.441, -18.660, -18.387, -0.493, 27.03, 0.30814, -0.25931, -0.35339, -0.84427,
 11:23:33.461,ed:35:33:d3:6c:f8, 2015-01-01 00:48:49.155, 0.644, 0.438, 0.622, 0.854, 0.732, 0.977, 35.42, -40.479, 141.185, -17.087, -19.087, -17.927, 31.32, 0.2001, 0.40683, 0.15863, 0.87701,
 11:23:33.461,ed:35:33:d3:6c:f8, 2015-01-01 00:48:49.155, 0.647, 0.443, 0.623, 1.038, 0.366, 0.854, 35.42, -40.479, 141.29, -17.087, -19.087, -17.927, 31.32, 0.2001, 0.40683, 0.15863, 0.87701,
 11:23:33.462,e3:ca:2d:fd:e0:8c, 2015-01-01 00:47:35.165, 0.824, 0.093, 0.588, 0.427, -0.366, 0.305, 8.877, -54.124, 172.557, -22.420, -9.980, -17.393, 27.53, -0.02286, -0.45663, -0.03876, -0.88846,
 11:23:33.462,e3:ca:2d:fd:e0:8c, 2015-01-01 00:47:35.165, 0.825, 0.093, 0.588, 0.427, -0.488, 0.366, 8.877, -54.13, 172.568, -22.420, -9.980, -17.393, 27.53, -0.02286, -0.45663, -0.03876, -0.88846,
 11:23:33.481,f6:90:cc:01:6d:25, 2015-01-01 00:48:05.285, 0.875, 0.29, 0.36, 0.732, -0.366, -0.183, 38.606, -62.292, 176.298, -25.920, -15.180, -6.007, 31.56, 0.14478, -0.49701, -0.26672, -0.81287,
 11:23:33.481,f6:90:cc:01:6d:25, 2015-01-01 00:48:05.285, 0.876, 0.29, 0.359, 0.671, -0.427, -0.061, 38.633, -62.298, 176.287, -25.920, -15.180, -6.007, 31.56, 0.14478, -0.49701, -0.26672, -0.81287,
 11:23:33.504,f6:90:cc:01:6d:25, 2015-01-01 00:48:05.665, 0.875, 0.289, 0.356, 0.549, -0.549, 0, 38.661, -62.303, 176.27, -25.920, -15.180, -6.007, 31.56, 0.14478, -0.49701, -0.26672, -0.81287,
 11:23:33.504,f6:90:cc:01:6d:25, 2015-01-01 00:48:05.665, 0.876, 0.29, 0.355, 0.488, -0.427, 0.061, 38.677, -62.314, 176.259, -25.920, -15.180, -6.007, 31.56, 0.14478, -0.49701, -0.26672, -0.81287,
 11:23:33.504,ed:40:fe:65:30:6c, 2015-01-01 00:47:56.405, 0.655, 0.439, 0.62, 1.648, 0, 0.854, 35.403, -40.984, -153.424, -18.660, -18.387, -0.493, 27.03, 0.30814, -0.25931, -0.35339, -0.84427,
 11:23:33.504,ed:40:fe:65:30:6c, 2015-01-01 00:47:56.405, 0.656, 0.439, 0.616, 1.282, -0.061, 0.793, 35.414, -40.995, -153.413, -18.660, -18.387, -0.493, 27.03, 0.30814, -0.25931, -0.35339, -0.84427,
 11:23:33.506,ed:35:33:d3:6c:f8, 2015-01-01 00:48:49.155, 0.647, 0.443, 0.623, 1.099, 0, 0.793, 35.425, -40.485, 141.4, -17.087, -19.087, -17.927, 31.32, 0.2001, 0.40683, 0.15863, 0.87701,
 11:23:33.506,ed:35:33:d3:6c:f8, 2015-01-01 00:48:49.155, 0.65, 0.441, 0.619, 0.732, -0.061, 0.671, 35.436, -40.49, 141.498, -17.087, -19.087, -17.927, 31.32, 0.2001, 0.40683, 0.15863, 0.87701,
 11:23:33.508,e3:ca:2d:fd:e0:8c, 2015-01-01 00:47:35.165, 0.828, 0.092, 0.588, 0.305, -0.61, 0.427, 8.877, -54.141, 172.579, -22.420, -9.980, -17.393, 27.53, -0.0224, -0.45709, -0.03937, -0.88821,
 11:23:33.508,e3:ca:2d:fd:e0:8c, 2015-01-01 00:47:35.165, 0.828, 0.091, 0.587, 0.305, -0.61, 0.305, 8.877, -54.152, 172.59, -22.420, -9.980, -17.393, 27.53, -0.0224, -0.45709, -0.03937, -0.88821,
 11:23:33.527,ed:40:fe:65:30:6c, 2015-01-01 00:47:56.740, 0.656, 0.438, 0.615, 1.099, 0, 0.732, 35.425, -41.001, -153.402, -18.660, -18.387, -0.493, 27.03, 0.30814, -0.25931, -0.35339, -0.84427,
 11:23:33.527,ed:40:fe:65:30:6c, 2015-01-01 00:47:56.740, 0.654, 0.436, 0.609, 1.404, 0.122, 0.793, 35.442, -41.006, -153.391, -18.660, -18.387, -0.493, 27.03, 0.30814, -0.25931, -0.35339, -0.84427,
 11:23:33.528,ed:35:33:d3:6c:f8, 2015-01-01 00:48:49.155, 0.649, 0.441, 0.615, 0.793, 0, 0.549, 35.442, -40.496, 141.597, -17.087, -19.087, -17.927, 31.32, 0.19495, 0.4053, 0.16098, 0.87845,
 11:23:33.528,ed:35:33:d3:6c:f8, 2015-01-01 00:48:49.155, 0.647, 0.44, 0.611, 1.038, 0, 0.854, 35.453, -40.501, 141.696, -17.087, -19.087, -17.927, 31.32, 0.19495, 0.4053, 0.16098, 0.87845,
 11:23:33.548,f6:90:cc:01:6d:25, 2015-01-01 00:48:05.665, 0.873, 0.287, 0.354, 0.671, -0.366, 0.122, 38.699, -62.32, 176.254, -25.920, -15.180, -6.007, 31.56, 0.14478, -0.49701, -0.26672, -0.81287,
 11:23:33.548,f6:90:cc:01:6d:25, 2015-01-01 00:48:05.665, 0.873, 0.285, 0.351, 0.793, -0.183, 0, 38.721, -62.325, 176.248, -25.920, -15.180, -6.007, 31.56, 0.14478, -0.49701, -0.26672, -0.81287,
 11:23:33.552,e3:ca:2d:fd:e0:8c, 2015-01-01 00:47:35.480, 0.826, 0.091, 0.586, 0.366, -0.488, 0.244, 8.877, -54.163, 172.595, -22.420, -9.980, -17.393, 27.53, -0.0224, -0.45709, -0.03937, -0.88821,
 11:23:33.552,e3:ca:2d:fd:e0:8c, 2015-01-01 00:47:35.480, 0.825, 0.092, 0.585, 0.427, -0.427, 0.244, 8.882, -54.174, 172.606, -22.420, -9.980, -17.393, 27.53, -0.0224, -0.45709, -0.03937, -0.88821,
 11:23:33.573,ed:40:fe:65:30:6c, 2015-01-01 00:47:56.740, 0.655, 0.434, 0.608, 1.404, 0, 1.16, 35.453, -41.017, -153.38, -18.660, -18.387, -0.493, 27.03, 0.30814, -0.25931, -0.35339, -0.84427,
 11:23:33.573,ed:40:fe:65:30:6c, 2015-01-01 00:47:56.740, 0.655, 0.438, 0.608, 0.793, -0.183, 1.343, 35.453, -41.034, -153.375, -18.660, -18.387, -0.493, 27.03, 0.30814, -0.25931, -0.35339, -0.84427,
 11:23:33.573,ed:35:33:d3:6c:f8, 2015-01-01 00:48:49.155, 0.648, 0.439, 0.612, 0.61, -0.061, 1.221, 35.453, -40.518, 141.729, -17.087, -19.087, -17.927, 31.32, 0.19495, 0.4053, 0.16098, 0.87845,
 11:23:33.573,ed:35:33:d3:6c:f8, 2015-01-01 00:48:49.155, 0.649, 0.438, 0.614, 0.305, -0.244, 1.221, 35.447, -40.534, 141.784, -17.087, -19.087, -17.927, 31.32, 0.19495, 0.4053, 0.16098, 0.87845,
 11:23:33.575,e3:ca:2d:fd:e0:8c, 2015-01-01 00:47:35.480, 0.826, 0.094, 0.585, 0.366, -0.244, 0.244, 8.888, -54.185, 172.612, -22.420, -9.980, -17.393, 27.53, -0.0224, -0.45709, -0.03937, -0.88821,
 11:23:33.575,e3:ca:2d:fd:e0:8c, 2015-01-01 00:47:35.480, 0.827, 0.094, 0.585, 0.061, -0.061, 0.183, 8.888, -54.19, 172.617, -22.420, -9.980, -17.393, 27.53, -0.0224, -0.45709, -0.03937, -0.88821,
 11:23:33.593,f6:90:cc:01:6d:25, 2015-01-01 00:48:05.665, 0.874, 0.29, 0.353, 0.61, -0.061, 0, 38.738, -62.325, 176.248, -25.920, -15.180, -6.007, 31.56, 0.14478, -0.49701, -0.26672, -0.81287,
 11:23:33.593,f6:90:cc:01:6d:25, 2015-01-01 00:48:05.665, 0.876, 0.292, 0.352, 0.183, 0, 0, 38.749, -62.325, 176.248, -25.920, -15.180, -6.007, 31.56, 0.14478, -0.49701, -0.26672, -0.81287,
 11:23:33.617,ed:40:fe:65:30:6c, 2015-01-01 00:47:56.740, 0.658, 0.436, 0.612, 0.366, -0.305, 0.793, 35.453, -41.05, -153.386, -18.660, -18.387, -0.493, 27.03, 0.30814, -0.25931, -0.35339, -0.84427,
 11:23:33.617,ed:40:fe:65:30:6c, 2015-01-01 00:47:56.740, 0.657, 0.438, 0.612, 0, -0.183, 0.183, 35.453, -41.056, -153.402, -18.660, -18.387, -0.493, 27.03, 0.30814, -0.25931, -0.35339, -0.84427,
 11:23:33.619,e3:ca:2d:fd:e0:8c, 2015-01-01 00:47:35.480, 0.828, 0.094, 0.586, -0.183, 0, 0.061, 8.882, -54.19, 172.628, -22.420, -9.980, -17.393, 27.53, -0.0224, -0.45709, -0.03937, -0.88821,
 11:23:33.619,e3:ca:2d:fd:e0:8c, 2015-01-01 00:47:35.480, 0.826, 0.092, 0.587, -0.366, 0, 0, 8.877, -54.19, 172.628, -22.420, -9.980, -17.393, 27.53, -0.0224, -0.45709, -0.03937, -0.88821,
 11:23:33.619,ed:35:33:d3:6c:f8, 2015-01-01 00:48:49.490, 0.651, 0.435, 0.615, 0, -0.305, 0.549, 35.442, -40.545, 141.866, -17.087, -19.087, -17.927, 31.32, 0.19495, 0.4053, 0.16098, 0.87845,
 11:23:33.619,ed:35:33:d3:6c:f8, 2015-01-01 00:48:49.490, 0.65, 0.438, 0.615, -0.244, -0.305, 0, 35.442, -40.556, 141.927, -17.087, -19.087, -17.927, 31.32, 0.19495, 0.4053, 0.16098, 0.87845,
 11:23:33.638,f6:90:cc:01:6d:25, 2015-01-01 00:48:05.665, 0.876, 0.292, 0.354, -0.305, 0, 0.122, 38.749, -62.325, 176.248, -25.920, -15.180, -6.007, 31.56, 0.14478, -0.49701, -0.26672, -0.81287,
 11:23:33.638,f6:90:cc:01:6d:25, 2015-01-01 00:48:05.665, 0.876, 0.29, 0.355, -0.488, 0.061, 0.061, 38.743, -62.325, 176.254, -25.920, -15.180, -6.007, 31.56, 0.14478, -0.49701, -0.26672, -0.81287,
 11:23:33.661,f6:90:cc:01:6d:25, 2015-01-01 00:48:05.665, 0.875, 0.285, 0.355, -0.305, 0.122, 0, 38.738, -62.325, 176.259, -25.920, -15.180, -6.007, 31.56, 0.14478, -0.49701, -0.26672, -0.81287,
 11:23:33.661,f6:90:cc:01:6d:25, 2015-01-01 00:48:05.665, 0.875, 0.283, 0.356, 0, 0.244, -0.122, 38.738, -62.325, 176.259, -25.920, -15.180, -6.007, 31.56, 0.14478, -0.49701, -0.26672, -0.81287,
 11:23:33.662,ed:40:fe:65:30:6c, 2015-01-01 00:47:56.740, 0.659, 0.434, 0.613, -0.061, -0.122, -0.122, 35.453, -41.056, -153.419, -18.660, -18.387, -0.493, 27.03, 0.30814, -0.25931, -0.35339, -0.84427,
 11:23:33.662,ed:40:fe:65:30:6c, 2015-01-01 00:47:56.740, 0.656, 0.433, 0.613, -0.488, 0, -0.305, 35.447, -41.05, -153.435, -18.660, -18.387, -0.493, 27.03, 0.30814, -0.25931, -0.35339, -0.84427,
 11:23:33.662,ed:35:33:d3:6c:f8, 2015-01-01 00:48:49.490, 0.652, 0.434, 0.616, -0.61, -0.183, -0.305, 35.436, -40.556, 141.982, -17.087, -19.087, -17.927, 31.32, 0.19495, 0.4053, 0.16098, 0.87845,
 11:23:33.662,ed:35:33:d3:6c:f8, 2015-01-01 00:48:49.490, 0.648, 0.438, 0.615, -0.916, 0, -0.244, 35.425, -40.556, 142.009, -17.087, -19.087, -17.927, 31.32, 0.19495, 0.4053, 0.16098, 0.87845,
 11:23:33.664,e3:ca:2d:fd:e0:8c, 2015-01-01 00:47:35.480, 0.825, 0.089, 0.588, -0.305, 0, -0.122, 8.877, -54.19, 172.628, -22.420, -9.980, -17.393, 27.53, -0.0224, -0.45709, -0.03937, -0.88821,
 11:23:33.664,e3:ca:2d:fd:e0:8c, 2015-01-01 00:47:35.480, 0.825, 0.088, 0.588, -0.122, -0.061, -0.183, 8.871, -54.196, 172.628, -22.420, -9.980, -17.393, 27.53, -0.0224, -0.45709, -0.03937, -0.88821,
 11:23:33.705,f6:90:cc:01:6d:25, 2015-01-01 00:48:05.665, 0.874, 0.284, 0.355, 0.122, 0.122, -0.183, 38.743, -62.32, 176.259, -25.920, -15.180, -6.007, 31.56, 0.14478, -0.49701, -0.26672, -0.81287,
 11:23:33.705,f6:90:cc:01:6d:25, 2015-01-01 00:48:05.665, 0.873, 0.286, 0.357, 0.244, 0.122, -0.244, 38.754, -62.32, 176.254, -25.920, -15.180, -6.007, 31.56, 0.14478, -0.49701, -0.26672, -0.81287,
 11:23:33.707,ed:40:fe:65:30:6c, 2015-01-01 00:47:56.740, 0.654, 0.433, 0.614, -0.305, 0, 0, 35.442, -41.05, -153.441, -18.660, -18.387, -0.493, 27.03, 0.30814, -0.25931, -0.35339, -0.84427,
 11:23:33.707,ed:40:fe:65:30:6c, 2015-01-01 00:47:56.740, 0.654, 0.431, 0.615, 0.122, 0, 0.183, 35.442, -41.056, -153.441, -18.660, -18.387, -0.493, 27.03, 0.30814, -0.25931, -0.35339, -0.84427,
 11:23:33.708,ed:35:33:d3:6c:f8, 2015-01-01 00:48:49.490, 0.646, 0.436, 0.617, -0.549, 0.122, 0.061, 35.414, -40.556, 141.993, -17.087, -19.087, -17.927, 31.32, 0.19495, 0.4053, 0.16098, 0.87845,
 11:23:33.708,ed:35:33:d3:6c:f8, 2015-01-01 00:48:49.490, 0.647, 0.436, 0.618, -0.366, 0, 0.183, 35.403, -40.556, 141.993, -17.087, -19.087, -17.927, 31.32, 0.19495, 0.4053, 0.16098, 0.87845,
 11:23:33.712,e3:ca:2d:fd:e0:8c, 2015-01-01 00:47:35.480, 0.823, 0.089, 0.588, 0, 0, -0.183, 8.877, -54.196, 172.623, -22.420, -9.980, -17.393, 27.53, -0.0224, -0.45709, -0.03937, -0.88821,
 11:23:33.712,e3:ca:2d:fd:e0:8c, 2015-01-01 00:47:35.480, 0.823, 0.091, 0.588, 0.122, 0.061, -0.122, 8.882, -54.196, 172.617, -22.420, -9.980, -17.393, 27.53, -0.0224, -0.45709, -0.03937, -0.88821,
 11:23:33.729,ed:40:fe:65:30:6c, 2015-01-01 00:47:56.740, 0.653, 0.436, 0.614, 0.244, -0.061, 0.366, 35.436, -41.061, -153.452, -18.673, -18.307, 0.000, 27.03, 0.30814, -0.25931, -0.35339, -0.84427,
 11:23:33.729,ed:40:fe:65:30:6c, 2015-01-01 00:47:56.740, 0.655, 0.437, 0.616, 0.061, -0.122, 0.305, 35.436, -41.067, -153.468, -18.673, -18.307, 0.000, 27.03, 0.30814, -0.25931, -0.35339, -0.84427,
 11:23:33.730,ed:35:33:d3:6c:f8, 2015-01-01 00:48:49.490, 0.646, 0.438, 0.618, -0.427, -0.061, 0.244, 35.387, -40.562, 142.031, -17.087, -19.087, -17.927, 31.32, 0.19495, 0.4053, 0.16098, 0.87845,
 11:23:33.730,ed:35:33:d3:6c:f8, 2015-01-01 00:48:49.490, 0.648, 0.439, 0.618, -0.61, -0.061, 0.183, 35.376, -40.567, 142.064, -17.087, -19.087, -17.927, 31.32, 0.19495, 0.4053, 0.16098, 0.87845,
 11:23:33.755,e3:ca:2d:fd:e0:8c, 2015-01-01 00:47:35.480, 0.822, 0.092, 0.587, 0.122, 0, -0.061, 8.888, -54.196, 172.612, -22.993, -9.373, -16.260, 27.53, -0.0224, -0.45709, -0.03937, -0.88821,
 11:23:33.755,e3:ca:2d:fd:e0:8c, 2015-01-01 00:47:35.480, 0.822, 0.091, 0.588, 0, 0, -0.061, 8.888, -54.196, 172.612, -22.993, -9.373, -16.260, 27.53, -0.0224, -0.45709, -0.03937, -0.88821,
 11:23:33.775,ed:35:33:d3:6c:f8, 2015-01-01 00:48:49.490, 0.648, 0.439, 0.617, -0.854, 0.061, 0.061, 35.359, -40.567, 142.136, -17.087, -19.087, -17.927, 31.32, 0.19495, 0.4053, 0.16098, 0.87845,
 11:23:33.775,ed:35:33:d3:6c:f8, 2015-01-01 00:48:49.490, 0.647, 0.438, 0.618, -0.793, 0.244, 0.061, 35.338, -40.562, 142.191, -17.087, -19.087, -17.927, 31.32, 0.19495, 0.4053, 0.16098, 0.87845,
 11:23:33.775,ed:40:fe:65:30:6c, 2015-01-01 00:47:56.740, 0.655, 0.438, 0.615, -0.244, 0, 0.183, 35.425, -41.067, -153.479, -18.673, -18.307, 0.000, 27.03, 0.30814, -0.25931, -0.35339, -0.84427,
 11:23:33.775,ed:40:fe:65:30:6c, 2015-01-01 00:47:56.740, 0.655, 0.438, 0.615, -0.305, 0.122, 0.122, 35.42, -41.067, -153.501, -18.673, -18.307, 0.000, 27.03, 0.30814, -0.25931, -0.35339, -0.84427,
 11:23:33.776,f6:90:cc:01:6d:25, 2015-01-01 00:48:05.665, 0.874, 0.288, 0.357, 0.244, 0.183, -0.122, 38.76, -62.314, 176.254, -26.020, -15.453, -5.880, 31.56, 0.14478, -0.49701, -0.26672, -0.81287,
 11:23:33.776,f6:90:cc:01:6d:25, 2015-01-01 00:48:05.665, 0.874, 0.289, 0.358, 0.061, 0.122, -0.061, 38.765, -62.314, 176.254, -26.020, -15.453, -5.880, 31.56, 0.14478, -0.49701, -0.26672, -0.81287,
 11:23:33.777,e3:ca:2d:fd:e0:8c, 2015-01-01 00:47:35.480, 0.824, 0.092, 0.589, 0, -0.061, -0.061, 8.888, -54.196, 172.612, -22.993, -9.373, -16.260, 27.53, -0.02191, -0.45761, -0.03961, -0.88794,
 11:23:33.777,e3:ca:2d:fd:e0:8c, 2015-01-01 00:47:35.480, 0.825, 0.093, 0.588, 0.122, -0.183, -0.122, 8.893, -54.196, 172.612, -22.993, -9.373, -16.260, 27.53, -0.02191, -0.45761, -0.03961, -0.88794,
 11:23:33.796,f6:90:cc:01:6d:25, 2015-01-01 00:48:05.665, 0.874, 0.288, 0.358, 0.061, 0.122, 0, 38.765, -62.309, 176.259, -26.020, -15.453, -5.880, 31.56, 0.14526, -0.49704, -0.26791, -0.81238,
 11:23:33.796,f6:90:cc:01:6d:25, 2015-01-01 00:48:05.665, 0.873, 0.288, 0.357, 0.061, 0.061, 0, 38.765, -62.309, 176.259, -26.020, -15.453, -5.880, 31.56, 0.14526, -0.49704, -0.26791, -0.81238,
 11:23:33.822,e3:ca:2d:fd:e0:8c, 2015-01-01 00:47:35.480, 0.826, 0.095, 0.587, 0.183, -0.122, -0.061, 8.899, -54.196, 172.606, -22.993, -9.373, -16.260, 27.53, -0.02191, -0.45761, -0.03961, -0.88794,
 11:23:33.822,e3:ca:2d:fd:e0:8c, 2015-01-01 00:47:35.480, 0.825, 0.097, 0.587, 0.122, -0.061, -0.061, 8.904, -54.201, 172.606, -22.993, -9.373, -16.260, 27.53, -0.02191, -0.45761, -0.03961, -0.88794,
 11:23:33.840,f6:90:cc:01:6d:25, 2015-01-01 00:48:05.665, 0.874, 0.289, 0.357, 0.122, 0, 0, 38.765, -62.309, 176.265, -26.020, -15.453, -5.880, 31.56, 0.14526, -0.49704, -0.26791, -0.81238,
 11:23:33.840,f6:90:cc:01:6d:25, 2015-01-01 00:48:05.665, 0.874, 0.292, 0.355, 0, -0.061, -0.122, 38.776, -62.309, 176.259, -26.020, -15.453, -5.880, 31.56, 0.14526, -0.49704, -0.26791, -0.81238,
 11:23:33.843,ed:35:33:d3:6c:f8, 2015-01-01 00:48:49.490, 0.646, 0.437, 0.619, -0.61, 0.366, 0, 35.321, -40.556, 142.24, -17.413, -19.153, -17.913, 31.32, 0.19495, 0.4053, 0.16098, 0.87845,
 11:23:33.843,ed:35:33:d3:6c:f8, 2015-01-01 00:48:49.490, 0.646, 0.435, 0.618, -0.488, 0.244, -0.061, 35.31, -40.551, 142.234, -17.413, -19.153, -17.913, 31.32, 0.19495, 0.4053, 0.16098, 0.87845,
 11:23:33.865,f6:90:cc:01:6d:25, 2015-01-01 00:48:06.020, 0.873, 0.292, 0.356, 0, 0, -0.183, 38.782, -62.309, 176.248, -26.020, -15.453, -5.880, 31.56, 0.14526, -0.49704, -0.26791, -0.81238,
 11:23:33.865,f6:90:cc:01:6d:25, 2015-01-01 00:48:06.020, 0.874, 0.289, 0.354, 0, 0.183, -0.244, 38.787, -62.298, 176.248, -26.020, -15.453, -5.880, 31.56, 0.14526, -0.49704, -0.26791, -0.81238,
 11:23:33.866,ed:40:fe:65:30:6c, 2015-01-01 00:47:56.740, 0.653, 0.435, 0.615, -0.122, 0.183, 0, 35.409, -41.061, -153.523, -18.673, -18.307, 0.000, 27.03, 0.30838, -0.25989, -0.35391, -0.84378,
 11:23:33.866,ed:40:fe:65:30:6c, 2015-01-01 00:47:56.740, 0.654, 0.434, 0.615, 0, 0.061, -0.122, 35.409, -41.061, -153.534, -18.673, -18.307, 0.000, 27.03, 0.30838, -0.25989, -0.35391, -0.84378,
 11:23:33.867,e3:ca:2d:fd:e0:8c, 2015-01-01 00:47:35.770, 0.825, 0.096, 0.587, 0, 0, 0, 8.91, -54.201, 172.606, -22.993, -9.373, -16.260, 27.53, -0.02191, -0.45761, -0.03961, -0.88794,
 11:23:33.867,e3:ca:2d:fd:e0:8c, 2015-01-01 00:47:35.770, 0.825, 0.093, 0.586, -0.122, 0, 0, 8.91, -54.201, 172.606, -22.993, -9.373, -16.260, 27.53, -0.02191, -0.45761, -0.03961, -0.88794,
 11:23:33.867,ed:35:33:d3:6c:f8, 2015-01-01 00:48:49.490, 0.647, 0.434, 0.618, -0.122, 0.183, -0.427, 35.31, -40.545, 142.224, -17.413, -19.153, -17.913, 31.32, 0.18988, 0.40448, 0.16229, 0.8797,
 11:23:33.867,ed:35:33:d3:6c:f8, 2015-01-01 00:48:49.490, 0.648, 0.436, 0.615, -0.305, 0.122, -0.61, 35.31, -40.54, 142.229, -17.413, -19.153, -17.913, 31.32, 0.18988, 0.40448, 0.16229, 0.8797,
 11:23:33.887,ed:40:fe:65:30:6c, 2015-01-01 00:47:57.075, 0.655, 0.434, 0.613, 0, 0.122, -0.488, 35.409, -41.056, -153.55, -18.673, -18.307, 0.000, 27.03, 0.30838, -0.25989, -0.35391, -0.84378,
 11:23:33.887,ed:40:fe:65:30:6c, 2015-01-01 00:47:57.075, 0.656, 0.438, 0.612, -0.122, 0.122, -0.61, 35.414, -41.045, -153.572, -18.673, -18.307, 0.000, 27.03, 0.30838, -0.25989, -0.35391, -0.84378,
 11:23:33.908,f6:90:cc:01:6d:25, 2015-01-01 00:48:06.020, 0.874, 0.288, 0.354, -0.061, 0.244, -0.244, 38.793, -62.292, 176.248, -26.020, -15.453, -5.880, 31.56, 0.14526, -0.49704, -0.26791, -0.81238,
 11:23:33.908,f6:90:cc:01:6d:25, 2015-01-01 00:48:06.020, 0.874, 0.288, 0.354, 0, 0.244, -0.183, 38.798, -62.287, 176.248, -26.020, -15.453, -5.880, 31.56, 0.14526, -0.49704, -0.26791, -0.81238,
