Time,Device name,Chip Time(),Acceleration X(g),Acceleration Y(g),Acceleration Z(g),Angular velocity X(°/s),Angular velocity Y(°/s),Angular velocity Z(°/s),Angle X(°),Angle Y(°),Angle Z(°),Magnetic field X(ʯt),Magnetic field Y(ʯt),Magnetic field Z(ʯt),Temperature(℃),Quaternions 0(),Quaternions 1(),Quaternions 2(),Quaternions 3()
 13:48:16.444,e3:ca:2d:fd:e0:8c, 2015-01-01 01:34:08.420, 0.875, -0.023, 0.522, -0.061, 0, 0, -2.598, -59.233, -176.605, -24.747, -9.393, -14.940, 28.21, -0.01416, 0.49432, -0.00531, 0.86908,
 13:48:16.444,e3:ca:2d:fd:e0:8c, 2015-01-01 01:34:08.420, 0.875, -0.023, 0.521, 0, 0, 0, -2.598, -59.233, -176.6, -24.747, -9.393, -14.940, 28.21, -0.01416, 0.49432, -0.00531, 0.86908,
 13:48:16.445,ed:40:fe:65:30:6c, 2015-01-01 01:34:07.555, 0.703, 0.115, 0.702, 0.244, 0.061, 0, 9.36, -44.621, -132.896, -21.920, -12.187, -2.653, 26.32, 0.39758, -0.3165, -0.22076, -0.83243,
 13:48:16.445,ed:40:fe:65:30:6c, 2015-01-01 01:34:07.555, 0.705, 0.115, 0.703, 0.244, 0, 0, 9.366, -44.621, -132.902, -21.920, -12.187, -2.653, 26.32, 0.39758, -0.3165, -0.22076, -0.83243,
 13:48:16.445,ed:35:33:d3:6c:f8, 2015-01-01 01:34:07.715, 0.599, -0.063, 0.793, 0.488, 0.244, 0, -4.746, -36.942, 158.835, -15.987, -8.220, -29.060, 26.67, 0.18649, 0.30511, -0.09677, 0.9288,
 13:48:16.445,ed:35:33:d3:6c:f8, 2015-01-01 01:34:07.715, 0.597, -0.065, 0.793, 0.427, -0.061, 0.305, -4.735, -36.942, 158.857, -15.987, -8.220, -29.060, 26.67, 0.18649, 0.30511, -0.09677, 0.9288,
 13:48:16.448,f6:90:cc:01:6d:25, 2015-01-01 01:34:07.045, 0.907, 0.132, 0.368, 0, 0, 0, 19.786, -66.643, -170.931, -27.827, -13.487, -6.053, 30.7, -0.15875, 0.5282, 0.18555, 0.81317,
 13:48:16.448,f6:90:cc:01:6d:25, 2015-01-01 01:34:07.045, 0.906, 0.134, 0.367, 0.061, -0.061, 0, 19.792, -66.649, -170.92, -27.827, -13.487, -6.053, 30.7, -0.15875, 0.5282, 0.18555, 0.81317,
 13:48:16.466,e3:ca:2d:fd:e0:8c, 2015-01-01 01:34:08.420, 0.875, -0.023, 0.521, 0.061, -0.061, 0, -2.598, -59.233, -176.594, -24.713, -9.427, -13.840, 28.21, -0.01416, 0.49432, -0.00531, 0.86908,
 13:48:16.466,e3:ca:2d:fd:e0:8c, 2015-01-01 01:34:08.420, 0.875, -0.022, 0.522, 0.061, 0, 0, -2.598, -59.227, -176.594, -24.713, -9.427, -13.840, 28.21, -0.01416, 0.49432, -0.00531, 0.86908,
 13:48:16.468,ed:35:33:d3:6c:f8, 2015-01-01 01:34:07.715, 0.597, -0.066, 0.792, 0.488, -0.305, 0.244, -4.735, -36.942, 158.879, -15.760, -8.567, -28.393, 26.67, 0.18649, 0.30511, -0.09677, 0.9288,
 13:48:16.468,ed:35:33:d3:6c:f8, 2015-01-01 01:34:07.715, 0.599, -0.067, 0.791, 0.61, -0.244, 0.061, -4.724, -36.947, 158.906, -15.760, -8.567, -28.393, 26.67, 0.18649, 0.30511, -0.09677, 0.9288,
 13:48:16.493,ed:40:fe:65:30:6c, 2015-01-01 01:34:07.555, 0.704, 0.114, 0.703, 0.305, 0, 0, 9.371, -44.621, -132.913, -21.920, -12.187, -2.653, 26.32, 0.39758, -0.3165, -0.22076, -0.83243,
 13:48:16.493,ed:40:fe:65:30:6c, 2015-01-01 01:34:07.555, 0.704, 0.114, 0.702, 0.122, 0.061, 0, 9.377, -44.621, -132.918, -21.920, -12.187, -2.653, 26.32, 0.39758, -0.3165, -0.22076, -0.83243,
 13:48:16.494,f6:90:cc:01:6d:25, 2015-01-01 01:34:07.045, 0.907, 0.133, 0.366, 0.244, 0, 0, 19.797, -66.649, -170.909, -27.827, -13.487, -6.053, 30.7, -0.15875, 0.5282, 0.18555, 0.81317,
 13:48:16.494,f6:90:cc:01:6d:25, 2015-01-01 01:34:07.045, 0.907, 0.133, 0.368, 0.122, 0, 0, 19.803, -66.649, -170.892, -27.827, -13.487, -6.053, 30.7, -0.15875, 0.5282, 0.18555, 0.81317,
 13:48:16.510,e3:ca:2d:fd:e0:8c, 2015-01-01 01:34:08.420, 0.875, -0.022, 0.522, 0, 0, 0, -2.593, -59.227, -176.589, -24.713, -9.427, -13.840, 28.21, -0.01416, 0.49432, -0.00531, 0.86908,
 13:48:16.510,e3:ca:2d:fd:e0:8c, 2015-01-01 01:34:08.420, 0.875, -0.022, 0.522, 0, 0.061, 0, -2.593, -59.227, -176.589, -24.713, -9.427, -13.840, 28.21, -0.01416, 0.49432, -0.00531, 0.86908,
 13:48:16.513,ed:35:33:d3:6c:f8, 2015-01-01 01:34:07.715, 0.598, -0.067, 0.792, 0.61, -0.061, 0.061, -4.713, -36.953, 158.939, -15.760, -8.567, -28.393, 26.67, 0.18649, 0.30511, -0.09677, 0.9288,
 13:48:16.513,ed:35:33:d3:6c:f8, 2015-01-01 01:34:07.715, 0.598, -0.066, 0.791, 0.61, -0.183, 0.122, -4.708, -36.953, 158.972, -15.760, -8.567, -28.393, 26.67, 0.18649, 0.30511, -0.09677, 0.9288,
 13:48:16.515,f6:90:cc:01:6d:25, 2015-01-01 01:34:07.045, 0.906, 0.134, 0.367, 0.061, 0, 0, 19.803, -66.649, -170.881, -27.827, -13.487, -6.053, 30.7, -0.15875, 0.5282, 0.18555, 0.81317,
 13:48:16.515,f6:90:cc:01:6d:25, 2015-01-01 01:34:07.045, 0.907, 0.134, 0.365, -0.061, 0, 0, 19.803, -66.649, -170.87, -27.827, -13.487, -6.053, 30.7, -0.15875, 0.5282, 0.18555, 0.81317,
 13:48:16.535,ed:40:fe:65:30:6c, 2015-01-01 01:34:07.555, 0.703, 0.116, 0.702, 0.366, 0.061, 0, 9.377, -44.621, -132.929, -21.920, -12.187, -2.653, 26.32, 0.39758, -0.3165, -0.22076, -0.83243,
 13:48:16.535,ed:40:fe:65:30:6c, 2015-01-01 01:34:07.555, 0.704, 0.117, 0.704, 0.305, 0.122, 0, 9.382, -44.621, -132.94, -21.920, -12.187, -2.653, 26.32, 0.39758, -0.3165, -0.22076, -0.83243,
 13:48:16.536,ed:35:33:d3:6c:f8, 2015-01-01 01:34:07.715, 0.599, -0.064, 0.792, 0.854, -0.366, 0.061, -4.691, -36.958, 159.016, -15.760, -8.567, -28.393, 26.67, 0.18558, 0.30426, -0.09601, 0.92935,
 13:48:16.536,ed:35:33:d3:6c:f8, 2015-01-01 01:34:07.715, 0.599, -0.065, 0.793, 0.793, -0.122, -0.122, -4.68, -36.964, 159.055, -15.760, -8.567, -28.393, 26.67, 0.18558, 0.30426, -0.09601, 0.92935,
 13:48:16.561,f6:90:cc:01:6d:25, 2015-01-01 01:34:07.045, 0.907, 0.134, 0.368, -0.061, 0, 0, 19.808, -66.649, -170.859, -27.827, -13.487, -6.053, 30.7, -0.15875, 0.5282, 0.18555, 0.81317,
 13:48:16.561,f6:90:cc:01:6d:25, 2015-01-01 01:34:07.045, 0.906, 0.134, 0.369, 0, 0, 0, 19.808, -66.649, -170.848, -27.827, -13.487, -6.053, 30.7, -0.15875, 0.5282, 0.18555, 0.81317,
 13:48:16.579,e3:ca:2d:fd:e0:8c, 2015-01-01 01:34:08.420, 0.875, -0.023, 0.522, -0.122, 0, 0, -2.593, -59.227, -176.583, -24.713, -9.427, -13.840, 28.21, -0.01465, 0.49438, -0.00497, 0.86905,
 13:48:16.579,e3:ca:2d:fd:e0:8c, 2015-01-01 01:34:08.420, 0.875, -0.024, 0.522, -0.122, 0, 0, -2.598, -59.222, -176.578, -24.713, -9.427, -13.840, 28.21, -0.01465, 0.49438, -0.00497, 0.86905,
 13:48:16.582,ed:35:33:d3:6c:f8, 2015-01-01 01:34:07.715, 0.598, -0.066, 0.792, 0.671, 0.061, -0.122, -4.664, -36.964, 159.071, -15.760, -8.567, -28.393, 26.67, 0.18558, 0.30426, -0.09601, 0.92935,
 13:48:16.582,ed:35:33:d3:6c:f8, 2015-01-01 01:34:07.715, 0.598, -0.065, 0.792, 0.671, 0.183, -0.244, -4.647, -36.964, 159.082, -15.760, -8.567, -28.393, 26.67, 0.18558, 0.30426, -0.09601, 0.92935,
 13:48:16.601,e3:ca:2d:fd:e0:8c, 2015-01-01 01:34:08.755, 0.874, -0.023, 0.522, 0, -0.122, 0, -2.598, -59.227, -176.578, -24.713, -9.427, -13.840, 28.21, -0.01465, 0.49438, -0.00497, 0.86905,
 13:48:16.601,e3:ca:2d:fd:e0:8c, 2015-01-01 01:34:08.755, 0.875, -0.023, 0.522, 0, -0.122, 0, -2.598, -59.227, -176.572, -24.713, -9.427, -13.840, 28.21, -0.01465, 0.49438, -0.00497, 0.86905,
 13:48:16.602,ed:40:fe:65:30:6c, 2015-01-01 01:34:07.555, 0.703, 0.115, 0.705, 0.122, 0.122, 0, 9.388, -44.615, -132.946, -21.613, -11.933, -2.293, 26.32, 0.39758, -0.3165, -0.22076, -0.83243,
 13:48:16.602,ed:40:fe:65:30:6c, 2015-01-01 01:34:07.555, 0.703, 0.115, 0.704, 0, 0.122, 0, 9.388, -44.615, -132.951, -21.613, -11.933, -2.293, 26.32, 0.39758, -0.3165, -0.22076, -0.83243,
 13:48:16.604,f6:90:cc:01:6d:25, 2015-01-01 01:34:07.045, 0.906, 0.133, 0.368, -0.061, -0.061, 0, 19.808, -66.649, -170.843, -28.027, -13.360, -6.220, 30.7, -0.15875, 0.5282, 0.18555, 0.81317,
 13:48:16.604,f6:90:cc:01:6d:25, 2015-01-01 01:34:07.045, 0.907, 0.133, 0.367, -0.183, -0.061, 0, 19.808, -66.649, -170.832, -28.027, -13.360, -6.220, 30.7, -0.15875, 0.5282, 0.18555, 0.81317,
 13:48:16.625,ed:40:fe:65:30:6c, 2015-01-01 01:34:07.555, 0.704, 0.115, 0.703, 0, 0.061, 0, 9.382, -44.615, -132.962, -21.613, -11.933, -2.293, 26.32, 0.39636, -0.31665, -0.22034, -0.83304,
 13:48:16.625,ed:40:fe:65:30:6c, 2015-01-01 01:34:07.555, 0.703, 0.114, 0.703, 0, 0.061, 0, 9.382, -44.61, -132.968, -21.613, -11.933, -2.293, 26.32, 0.39636, -0.31665, -0.22034, -0.83304,
 13:48:16.625,ed:35:33:d3:6c:f8, 2015-01-01 01:34:08.050, 0.597, -0.065, 0.792, 0.61, 0.305, -0.244, -4.631, -36.958, 159.093, -15.760, -8.567, -28.393, 26.67, 0.18558, 0.30426, -0.09601, 0.92935,
 13:48:16.625,ed:35:33:d3:6c:f8, 2015-01-01 01:34:08.050, 0.597, -0.066, 0.792, 0.427, 0, -0.183, -4.62, -36.958, 159.115, -15.760, -8.567, -28.393, 26.67, 0.18558, 0.30426, -0.09601, 0.92935,
 13:48:16.646,e3:ca:2d:fd:e0:8c, 2015-01-01 01:34:08.755, 0.875, -0.022, 0.522, 0, -0.061, 0, -2.593, -59.227, -176.572, -24.713, -9.427, -13.840, 28.21, -0.01465, 0.49438, -0.00497, 0.86905,
 13:48:16.646,e3:ca:2d:fd:e0:8c, 2015-01-01 01:34:08.755, 0.875, -0.023, 0.523, -0.122, -0.061, 0, -2.598, -59.227, -176.567, -24.713, -9.427, -13.840, 28.21, -0.01465, 0.49438, -0.00497, 0.86905,
 13:48:16.649,f6:90:cc:01:6d:25, 2015-01-01 01:34:07.045, 0.906, 0.132, 0.367, -0.244, -0.061, 0, 19.808, -66.654, -170.821, -28.027, -13.360, -6.220, 30.7, -0.16, 0.52798, 0.18655, 0.81287,
 13:48:16.649,f6:90:cc:01:6d:25, 2015-01-01 01:34:07.045, 0.906, 0.131, 0.366, -0.122, -0.061, 0, 19.808, -66.654, -170.815, -28.027, -13.360, -6.220, 30.7, -0.16, 0.52798, 0.18655, 0.81287,
 13:48:16.669,ed:40:fe:65:30:6c, 2015-01-01 01:34:07.555, 0.702, 0.114, 0.704, 0, 0.061, 0, 9.382, -44.61, -132.979, -21.613, -11.933, -2.293, 26.32, 0.39636, -0.31665, -0.22034, -0.83304,
 13:48:16.669,ed:40:fe:65:30:6c, 2015-01-01 01:34:07.555, 0.703, 0.114, 0.704, 0.061, 0.061, 0, 9.382, -44.61, -132.984, -21.613, -11.933, -2.293, 26.32, 0.39636, -0.31665, -0.22034, -0.83304,
 13:48:16.669,e3:ca:2d:fd:e0:8c, 2015-01-01 01:34:08.755, 0.875, -0.023, 0.522, -0.122, -0.061, 0, -2.598, -59.227, -176.567, -24.713, -9.427, -13.840, 28.21, -0.01465, 0.49438, -0.00497, 0.86905,
 13:48:16.670,e3:ca:2d:fd:e0:8c, 2015-01-01 01:34:08.755, 0.874, -0.023, 0.523, 0, -0.061, 0, -2.598, -59.227, -176.561, -24.713, -9.427, -13.840, 28.21, -0.01465, 0.49438, -0.00497, 0.86905,
 13:48:16.672,ed:35:33:d3:6c:f8, 2015-01-01 01:34:08.050, 0.597, -0.065, 0.792, 0.427, -0.122, -0.122, -4.609, -36.958, 159.137, -15.760, -8.567, -28.393, 26.67, 0.18558, 0.30426, -0.09601, 0.92935,
 13:48:16.672,ed:35:33:d3:6c:f8, 2015-01-01 01:34:08.050, 0.598, -0.064, 0.792, 0.61, -0.183, -0.061, -4.598, -36.964, 159.164, -15.760, -8.567, -28.393, 26.67, 0.18558, 0.30426, -0.09601, 0.92935,
 13:48:16.694,f6:90:cc:01:6d:25, 2015-01-01 01:34:07.360, 0.907, 0.131, 0.367, 0.061, -0.061, 0, 19.808, -66.654, -170.804, -28.027, -13.360, -6.220, 30.7, -0.16, 0.52798, 0.18655, 0.81287,
 13:48:16.694,f6:90:cc:01:6d:25, 2015-01-01 01:34:07.360, 0.907, 0.132, 0.367, 0.122, -0.061, 0, 19.814, -66.66, -170.793, -28.027, -13.360, -6.220, 30.7, -0.16, 0.52798, 0.18655, 0.81287,
 13:48:16.714,e3:ca:2d:fd:e0:8c, 2015-01-01 01:34:08.755, 0.874, -0.024, 0.522, 0.061, 0, 0, -2.598, -59.227, -176.561, -24.713, -9.427, -13.840, 28.21, -0.01465, 0.49438, -0.00497, 0.86905,
 13:48:16.714,e3:ca:2d:fd:e0:8c, 2015-01-01 01:34:08.755, 0.875, -0.023, 0.521, 0.122, -0.061, 0, -2.593, -59.227, -176.556, -24.713, -9.427, -13.840, 28.21, -0.01465, 0.49438, -0.00497, 0.86905,
 13:48:16.714,ed:40:fe:65:30:6c, 2015-01-01 01:34:07.915, 0.704, 0.115, 0.703, 0.122, 0, 0, 9.382, -44.61, -132.995, -21.613, -11.933, -2.293, 26.32, 0.39636, -0.31665, -0.22034, -0.83304,
 13:48:16.714,ed:40:fe:65:30:6c, 2015-01-01 01:34:07.915, 0.704, 0.116, 0.703, 0.061, 0, 0, 9.382, -44.61, -133, -21.613, -11.933, -2.293, 26.32, 0.39636, -0.31665, -0.22034, -0.83304,
 13:48:16.715,ed:35:33:d3:6c:f8, 2015-01-01 01:34:08.050, 0.599, -0.063, 0.792, 0.61, -0.122, 0, -4.587, -36.964, 159.181, -15.760, -8.567, -28.393, 26.67, 0.18558, 0.30426, -0.09601, 0.92935,
 13:48:16.715,ed:35:33:d3:6c:f8, 2015-01-01 01:34:08.050, 0.598, -0.063, 0.792, 0.366, 0, 0.061, -4.581, -36.964, 159.214, -15.760, -8.567, -28.393, 26.67, 0.18558, 0.30426, -0.09601, 0.92935,
 13:48:16.717,f6:90:cc:01:6d:25, 2015-01-01 01:34:07.360, 0.906, 0.134, 0.367, 0.122, -0.061, 0, 19.819, -66.66, -170.788, -28.027, -13.360, -6.220, 30.7, -0.16, 0.52798, 0.18655, 0.81287,
 13:48:16.717,f6:90:cc:01:6d:25, 2015-01-01 01:34:07.360, 0.906, 0.134, 0.366, 0.061, -0.061, 0, 19.825, -66.66, -170.777, -28.027, -13.360, -6.220, 30.7, -0.16, 0.52798, 0.18655, 0.81287,
 13:48:16.737,ed:40:fe:65:30:6c, 2015-01-01 01:34:07.915, 0.703, 0.116, 0.703, 0, 0, 0, 9.382, -44.61, -133.011, -21.613, -11.933, -2.293, 26.32, 0.39636, -0.31665, -0.22034, -0.83304,
 13:48:16.737,ed:40:fe:65:30:6c, 2015-01-01 01:34:07.915, 0.703, 0.115, 0.703, 0, 0, 0, 9.382, -44.61, -133.017, -21.613, -11.933, -2.293, 26.32, 0.39636, -0.31665, -0.22034, -0.83304,
 13:48:16.738,ed:35:33:d3:6c:f8, 2015-01-01 01:34:08.050, 0.598, -0.064, 0.792, 0.183, -0.183, 0.122, -4.581, -36.969, 159.225, -15.760, -8.567, -28.393, 26.67, 0.18558, 0.30426, -0.09601, 0.92935,
 13:48:16.738,ed:35:33:d3:6c:f8, 2015-01-01 01:34:08.050, 0.599, -0.063, 0.792, 0.305, -0.366, 0.061, -4.576, -36.974, 159.225, -15.760, -8.567, -28.393, 26.67, 0.18558, 0.30426, -0.09601, 0.92935,
 13:48:16.763,f6:90:cc:01:6d:25, 2015-01-01 01:34:07.360, 0.907, 0.134, 0.367, -0.061, -0.061, 0, 19.825, -66.66, -170.766, -28.027, -13.360, -6.220, 30.7, -0.16, 0.52798, 0.18655, 0.81287,
 13:48:16.763,f6:90:cc:01:6d:25, 2015-01-01 01:34:07.360, 0.906, 0.134, 0.367, -0.061, -0.061, 0, 19.825, -66.665, -170.76, -28.027, -13.360, -6.220, 30.7, -0.16, 0.52798, 0.18655, 0.81287,
 13:48:16.782,ed:40:fe:65:30:6c, 2015-01-01 01:34:07.915, 0.704, 0.117, 0.703, 0.061, -0.061, 0, 9.382, -44.61, -133.022, -21.613, -11.933, -2.293, 26.32, 0.39636, -0.31665, -0.22034, -0.83304,
 13:48:16.782,ed:40:fe:65:30:6c, 2015-01-01 01:34:07.915, 0.704, 0.118, 0.703, 0.122, 0, 0, 9.382, -44.61, -133.033, -21.613, -11.933, -2.293, 26.32, 0.39636, -0.31665, -0.22034, -0.83304,
 13:48:16.782,e3:ca:2d:fd:e0:8c, 2015-01-01 01:34:08.755, 0.875, -0.023, 0.523, 0.061, -0.061, 0, -2.593, -59.227, -176.55, -24.713, -9.427, -13.840, 28.21, -0.01465, 0.49438, -0.00497, 0.86905,
 13:48:16.782,e3:ca:2d:fd:e0:8c, 2015-01-01 01:34:08.755, 0.875, -0.022, 0.522, 0, -0.122, 0, -2.593, -59.227, -176.55, -24.713, -9.427, -13.840, 28.21, -0.01465, 0.49438, -0.00497, 0.86905,
 13:48:16.804,e3:ca:2d:fd:e0:8c, 2015-01-01 01:34:08.755, 0.875, -0.022, 0.522, -0.122, -0.061, 0, -2.593, -59.227, -176.545, -24.727, -9.293, -14.633, 28.21, -0.01465, 0.49438, -0.00497, 0.86905,
 13:48:16.804,e3:ca:2d:fd:e0:8c, 2015-01-01 01:34:08.755, 0.875, -0.022, 0.522, -0.122, 0, 0, -2.593, -59.227, -176.545, -24.727, -9.293, -14.633, 28.21, -0.01465, 0.49438, -0.00497, 0.86905,
 13:48:16.806,ed:40:fe:65:30:6c, 2015-01-01 01:34:07.915, 0.704, 0.117, 0.703, 0.061, 0, 0, 9.382, -44.61, -133.039, -21.613, -11.933, -2.293, 26.32, 0.39636, -0.31665, -0.22034, -0.83304,
 13:48:16.806,ed:40:fe:65:30:6c, 2015-01-01 01:34:07.915, 0.704, 0.116, 0.703, 0, 0.061, 0, 9.388, -44.61, -133.044, -21.613, -11.933, -2.293, 26.32, 0.39636, -0.31665, -0.22034, -0.83304,
 13:48:16.806,ed:35:33:d3:6c:f8, 2015-01-01 01:34:08.050, 0.6, -0.061, 0.792, 0.366, -0.427, 0.061, -4.57, -36.98, 159.219, -15.760, -8.567, -28.393, 26.67, 0.18558, 0.30426, -0.09601, 0.92935,
 13:48:16.806,ed:35:33:d3:6c:f8, 2015-01-01 01:34:08.050, 0.599, -0.062, 0.791, 0.244, -0.122, 0.061, -4.57, -36.985, 159.208, -15.760, -8.567, -28.393, 26.67, 0.18558, 0.30426, -0.09601, 0.92935,
 13:48:16.807,f6:90:cc:01:6d:25, 2015-01-01 01:34:07.360, 0.906, 0.135, 0.367, 0, 0, 0, 19.825, -66.665, -170.75, -28.027, -13.360, -6.220, 30.7, -0.16, 0.52798, 0.18655, 0.81287,
 13:48:16.807,f6:90:cc:01:6d:25, 2015-01-01 01:34:07.360, 0.908, 0.135, 0.368, 0, -0.061, 0, 19.83, -66.665, -170.744, -28.027, -13.360, -6.220, 30.7, -0.16, 0.52798, 0.18655, 0.81287,
 13:48:16.828,ed:35:33:d3:6c:f8, 2015-01-01 01:34:08.050, 0.599, -0.063, 0.792, 0.061, 0, 0, -4.565, -36.985, 159.197, -15.847, -8.233, -28.780, 26.67, 0.18558, 0.30426, -0.09601, 0.92935,
 13:48:16.828,ed:35:33:d3:6c:f8, 2015-01-01 01:34:08.050, 0.599, -0.065, 0.792, 0.183, 0.061, -0.122, -4.565, -36.985, 159.181, -15.847, -8.233, -28.780, 26.67, 0.18558, 0.30426, -0.09601, 0.92935,
 13:48:16.852,f6:90:cc:01:6d:25, 2015-01-01 01:34:07.360, 0.907, 0.135, 0.367, 0, -0.061, 0, 19.836, -66.665, -170.733, -28.027, -13.360, -6.220, 30.7, -0.16, 0.52798, 0.18655, 0.81287,
 13:48:16.852,f6:90:cc:01:6d:25, 2015-01-01 01:34:07.360, 0.907, 0.132, 0.367, 0, -0.183, 0, 19.841, -66.671, -170.728, -28.027, -13.360, -6.220, 30.7, -0.16, 0.52798, 0.18655, 0.81287,
 13:48:16.871,e3:ca:2d:fd:e0:8c, 2015-01-01 01:34:08.755, 0.875, -0.022, 0.522, 0, 0, 0, -2.593, -59.222, -176.539, -24.727, -9.293, -14.633, 28.21, -0.01465, 0.49438, -0.00497, 0.86905,
 13:48:16.871,e3:ca:2d:fd:e0:8c, 2015-01-01 01:34:08.755, 0.875, -0.022, 0.522, 0.122, -0.061, 0, -2.587, -59.222, -176.539, -24.727, -9.293, -14.633, 28.21, -0.01465, 0.49438, -0.00497, 0.86905,
 13:48:16.872,ed:35:33:d3:6c:f8, 2015-01-01 01:34:08.050, 0.599, -0.063, 0.792, 0.244, 0, -0.183, -4.554, -36.985, 159.164, -15.847, -8.233, -28.780, 26.67, 0.18558, 0.30426, -0.09601, 0.92935,
 13:48:16.872,ed:35:33:d3:6c:f8, 2015-01-01 01:34:08.050, 0.599, -0.062, 0.792, 0.183, -0.122, 0, -4.554, -36.985, 159.159, -15.847, -8.233, -28.780, 26.67, 0.18558, 0.30426, -0.09601, 0.92935,
 13:48:16.874,ed:40:fe:65:30:6c, 2015-01-01 01:34:07.915, 0.703, 0.114, 0.704, -0.061, 0.122, 0, 9.382, -44.61, -133.055, -21.613, -11.933, -2.293, 26.32, 0.39636, -0.31665, -0.22034, -0.83304,
 13:48:16.874,ed:40:fe:65:30:6c, 2015-01-01 01:34:07.915, 0.703, 0.116, 0.703, 0, 0.122, 0, 9.382, -44.604, -133.061, -21.613, -11.933, -2.293, 26.32, 0.39636, -0.31665, -0.22034, -0.83304,
 13:48:16.893,e3:ca:2d:fd:e0:8c, 2015-01-01 01:34:08.755, 0.875, -0.024, 0.522, 0, -0.061, 0, -2.587, -59.227, -176.534, -24.727, -9.293, -14.633, 28.21, -0.01505, 0.49435, -0.00473, 0.86905,
 13:48:16.893,e3:ca:2d:fd:e0:8c, 2015-01-01 01:34:08.755, 0.874, -0.023, 0.522, -0.122, -0.061, 0, -2.593, -59.227, -176.534, -24.727, -9.293, -14.633, 28.21, -0.01505, 0.49435, -0.00473, 0.86905,
 13:48:16.894,ed:40:fe:65:30:6c, 2015-01-01 01:34:07.915, 0.703, 0.116, 0.703, -0.061, 0, 0, 9.382, -44.604, -133.066, -21.607, -11.867, -1.867, 26.32, 0.39636, -0.31665, -0.22034, -0.83304,
 13:48:16.894,ed:40:fe:65:30:6c, 2015-01-01 01:34:07.915, 0.704, 0.115, 0.704, -0.061, 0, 0, 9.382, -44.604, -133.077, -21.607, -11.867, -1.867, 26.32, 0.39636, -0.31665, -0.22034, -0.83304,
 13:48:16.895,ed:35:33:d3:6c:f8, 2015-01-01 01:34:08.050, 0.598, -0.062, 0.792, 0, -0.061, 0, -4.554, -36.991, 159.142, -15.847, -8.233, -28.780, 26.67, 0.18375, 0.3049, -0.09439, 0.92966,
 13:48:16.895,ed:35:33:d3:6c:f8, 2015-01-01 01:34:08.050, 0.599, -0.065, 0.792, 0.061, 0, -0.061, -4.548, -36.991, 159.148, -15.847, -8.233, -28.780, 26.67, 0.18375, 0.3049, -0.09439, 0.92966,
 13:48:16.897,f6:90:cc:01:6d:25, 2015-01-01 01:34:07.360, 0.906, 0.132, 0.367, -0.122, -0.061, 0, 19.841, -66.671, -170.722, -27.873, -13.347, -6.033, 30.7, -0.16, 0.52798, 0.18655, 0.81287,
 13:48:16.897,f6:90:cc:01:6d:25, 2015-01-01 01:34:07.360, 0.906, 0.134, 0.367, -0.122, 0, 0, 19.841, -66.671, -170.711, -27.873, -13.347, -6.033, 30.7, -0.16, 0.52798, 0.18655, 0.81287,
 13:48:16.921,f6:90:cc:01:6d:25, 2015-01-01 01:34:07.360, 0.908, 0.134, 0.366, 0, 0, 0, 19.841, -66.671, -170.7, -27.873, -13.347, -6.033, 30.7, -0.16107, 0.52786, 0.18735, 0.81253,
 13:48:16.921,f6:90:cc:01:6d:25, 2015-01-01 01:34:07.360, 0.907, 0.133, 0.367, 0, 0, 0, 19.841, -66.671, -170.695, -27.873, -13.347, -6.033, 30.7, -0.16107, 0.52786, 0.18735, 0.81253,
 13:48:16.938,e3:ca:2d:fd:e0:8c, 2015-01-01 01:34:08.755, 0.875, -0.022, 0.523, -0.183, 0, 0, -2.593, -59.222, -176.528, -24.727, -9.293, -14.633, 28.21, -0.01505, 0.49435, -0.00473, 0.86905,
 13:48:16.938,e3:ca:2d:fd:e0:8c, 2015-01-01 01:34:08.755, 0.875, -0.023, 0.522, 0, -0.061, 0, -2.593, -59.222, -176.528, -24.727, -9.293, -14.633, 28.21, -0.01505, 0.49435, -0.00473, 0.86905,
 13:48:16.939,ed:40:fe:65:30:6c, 2015-01-01 01:34:07.915, 0.704, 0.114, 0.704, 0, 0, 0, 9.382, -44.604, -133.083, -21.607, -11.867, -1.867, 26.32, 0.39636, -0.31665, -0.22034, -0.83304,
 13:48:16.939,ed:40:fe:65:30:6c, 2015-01-01 01:34:07.915, 0.702, 0.114, 0.704, 0, 0, 0, 9.377, -44.604, -133.088, -21.607, -11.867, -1.867, 26.32, 0.39636, -0.31665, -0.22034, -0.83304,
 13:48:16.941,ed:35:33:d3:6c:f8, 2015-01-01 01:34:08.050, 0.598, -0.066, 0.792, 0.305, -0.244, -0.183, -4.543, -36.996, 159.153, -15.847, -8.233, -28.780, 26.67, 0.18375, 0.3049, -0.09439, 0.92966,
 13:48:16.941,ed:35:33:d3:6c:f8, 2015-01-01 01:34:08.050, 0.598, -0.063, 0.793, 0.366, -0.427, -0.305, -4.537, -37.002, 159.159, -15.847, -8.233, -28.780, 26.67, 0.18375, 0.3049, -0.09439, 0.92966,
 13:48:16.961,e3:ca:2d:fd:e0:8c, 2015-01-01 01:34:09.115, 0.875, -0.024, 0.522, 0.061, -0.122, 0, -2.593, -59.227, -176.528, -24.727, -9.293, -14.633, 28.21, -0.01505, 0.49435, -0.00473, 0.86905,
 13:48:16.961,e3:ca:2d:fd:e0:8c, 2015-01-01 01:34:09.115, 0.875, -0.025, 0.521, 0.061, -0.122, 0, -2.587, -59.227, -176.523, -24.727, -9.293, -14.633, 28.21, -0.01505, 0.49435, -0.00473, 0.86905,
 13:48:16.963,ed:40:fe:65:30:6c, 2015-01-01 01:34:07.915, 0.704, 0.116, 0.704, -0.244, 0, 0, 9.377, -44.604, -133.094, -21.607, -11.867, -1.867, 26.32, 0.39545, -0.31686, -0.21994, -0.8335,
 13:48:16.963,ed:40:fe:65:30:6c, 2015-01-01 01:34:07.915, 0.706, 0.116, 0.703, -0.183, -0.183, 0, 9.371, -44.61, -133.105, -21.607, -11.867, -1.867, 26.32, 0.39545, -0.31686, -0.21994, -0.8335,
 13:48:16.967,f6:90:cc:01:6d:25, 2015-01-01 01:34:07.360, 0.907, 0.132, 0.365, 0, -0.061, 0, 19.847, -66.676, -170.684, -27.873, -13.347, -6.033, 30.7, -0.16107, 0.52786, 0.18735, 0.81253,
 13:48:16.967,f6:90:cc:01:6d:25, 2015-01-01 01:34:07.360, 0.908, 0.132, 0.367, -0.122, 0, 0, 19.847, -66.676, -170.678, -27.873, -13.347, -6.033, 30.7, -0.16107, 0.52786, 0.18735, 0.81253,
 13:48:16.986,ed:35:33:d3:6c:f8, 2015-01-01 01:34:08.410, 0.601, -0.062, 0.793, 0.183, -0.488, -0.305, -4.526, -37.013, 159.148, -15.847, -8.233, -28.780, 26.67, 0.18375, 0.3049, -0.09439, 0.92966,
 13:48:16.986,ed:35:33:d3:6c:f8, 2015-01-01 01:34:08.410, 0.601, -0.062, 0.791, 0, -0.671, -0.183, -4.526, -37.024, 159.148, -15.847, -8.233, -28.780, 26.67, 0.18375, 0.3049, -0.09439, 0.92966,
 13:48:17.006,ed:40:fe:65:30:6c, 2015-01-01 01:34:07.915, 0.705, 0.114, 0.704, 0, -0.183, 0, 9.371, -44.61, -133.11, -21.607, -11.867, -1.867, 26.32, 0.39545, -0.31686, -0.21994, -0.8335,
 13:48:17.006,ed:40:fe:65:30:6c, 2015-01-01 01:34:07.915, 0.703, 0.113, 0.702, 0, -0.061, 0, 9.371, -44.615, -133.116, -21.607, -11.867, -1.867, 26.32, 0.39545, -0.31686, -0.21994, -0.8335,
 13:48:17.006,e3:ca:2d:fd:e0:8c, 2015-01-01 01:34:09.115, 0.875, -0.024, 0.521, 0, -0.183, 0, -2.587, -59.227, -176.523, -24.727, -9.293, -14.633, 28.21, -0.01505, 0.49435, -0.00473, 0.86905,
 13:48:17.006,e3:ca:2d:fd:e0:8c, 2015-01-01 01:34:09.115, 0.875, -0.021, 0.522, -0.061, -0.061, 0, -2.593, -59.227, -176.517, -24.727, -9.293, -14.633, 28.21, -0.01505, 0.49435, -0.00473, 0.86905,
 13:48:17.009,f6:90:cc:01:6d:25, 2015-01-01 01:34:07.650, 0.909, 0.133, 0.368, -0.061, -0.061, 0, 19.847, -66.676, -170.673, -27.873, -13.347, -6.033, 30.7, -0.16107, 0.52786, 0.18735, 0.81253,
 13:48:17.009,f6:90:cc:01:6d:25, 2015-01-01 01:34:07.650, 0.907, 0.133, 0.367, 0, 0, 0, 19.847, -66.676, -170.662, -27.873, -13.347, -6.033, 30.7, -0.16107, 0.52786, 0.18735, 0.81253,
 13:48:17.028,e3:ca:2d:fd:e0:8c, 2015-01-01 01:34:09.115, 0.872, -0.022, 0.522, 0, -0.061, 0, -2.593, -59.227, -176.517, -24.727, -9.293, -14.633, 28.21, -0.01505, 0.49435, -0.00473, 0.86905,
 13:48:17.028,e3:ca:2d:fd:e0:8c, 2015-01-01 01:34:09.115, 0.873, -0.024, 0.524, 0, 0, 0, -2.593, -59.227, -176.512, -24.727, -9.293, -14.633, 28.21, -0.01505, 0.49435, -0.00473, 0.86905,
 13:48:17.030,ed:35:33:d3:6c:f8, 2015-01-01 01:34:08.410, 0.599, -0.064, 0.789, 0.061, -0.61, 0, -4.526, -37.035, 159.159, -15.847, -8.233, -28.780, 26.67, 0.18375, 0.3049, -0.09439, 0.92966,
 13:48:17.030,ed:35:33:d3:6c:f8, 2015-01-01 01:34:08.410, 0.599, -0.063, 0.786, 0, -0.183, 0.244, -4.526, -37.04, 159.181, -15.847, -8.233, -28.780, 26.67, 0.18375, 0.3049, -0.09439, 0.92966,
 13:48:17.052,ed:40:fe:65:30:6c, 2015-01-01 01:34:08.250, 0.702, 0.116, 0.7, -0.061, 0, 0, 9.366, -44.615, -133.121, -21.607, -11.867, -1.867, 26.32, 0.39545, -0.31686, -0.21994, -0.8335,
 13:48:17.052,ed:40:fe:65:30:6c, 2015-01-01 01:34:08.250, 0.704, 0.119, 0.702, 0, 0, 0, 9.366, -44.615, -133.132, -21.607, -11.867, -1.867, 26.32, 0.39545, -0.31686, -0.21994, -0.8335,
 13:48:17.055,f6:90:cc:01:6d:25, 2015-01-01 01:34:07.650, 0.905, 0.132, 0.368, 0, -0.061, 0, 19.852, -66.676, -170.656, -27.873, -13.347, -6.033, 30.7, -0.16107, 0.52786, 0.18735, 0.81253,
 13:48:17.055,f6:90:cc:01:6d:25, 2015-01-01 01:34:07.650, 0.905, 0.134, 0.366, 0.061, 0.061, 0, 19.852, -66.676, -170.645, -27.873, -13.347, -6.033, 30.7, -0.16107, 0.52786, 0.18735, 0.81253,
 13:48:17.073,e3:ca:2d:fd:e0:8c, 2015-01-01 01:34:09.115, 0.875, -0.024, 0.524, -0.061, 0.061, 0, -2.587, -59.227, -176.512, -24.727, -9.293, -14.633, 28.21, -0.01505, 0.49435, -0.00473, 0.86905,
 13:48:17.073,e3:ca:2d:fd:e0:8c, 2015-01-01 01:34:09.115, 0.876, -0.022, 0.522, -0.122, 0, 0, -2.593, -59.227, -176.506, -24.727, -9.293, -14.633, 28.21, -0.01505, 0.49435, -0.00473, 0.86905,
 13:48:17.076,ed:35:33:d3:6c:f8, 2015-01-01 01:34:08.410, 0.601, -0.061, 0.787, 0, 0.061, 0.244, -4.532, -37.04, 159.186, -15.847, -8.233, -28.780, 26.67, 0.18375, 0.3049, -0.09439, 0.92966,
 13:48:17.076,ed:35:33:d3:6c:f8, 2015-01-01 01:34:08.410, 0.604, -0.06, 0.792, 0, 0.366, 0, -4.532, -37.035, 159.186, -15.847, -8.233, -28.780, 26.67, 0.18375, 0.3049, -0.09439, 0.92966,
 13:48:17.097,ed:40:fe:65:30:6c, 2015-01-01 01:34:08.250, 0.708, 0.117, 0.703, 0.061, 0.061, 0, 9.366, -44.615, -133.138, -21.607, -11.867, -1.867, 26.32, 0.39545, -0.31686, -0.21994, -0.8335,
 13:48:17.097,ed:40:fe:65:30:6c, 2015-01-01 01:34:08.250, 0.706, 0.117, 0.704, 0.244, 0.183, 0, 9.371, -44.61, -133.143, -21.607, -11.867, -1.867, 26.32, 0.39545, -0.31686, -0.21994, -0.8335,
 13:48:17.098,ed:35:33:d3:6c:f8, 2015-01-01 01:34:08.410, 0.603, -0.061, 0.793, 0.305, 0.183, 0.122, -4.526, -37.035, 159.159, -15.847, -8.233, -28.780, 26.67, 0.18375, 0.3049, -0.09439, 0.92966,
 13:48:17.098,ed:35:33:d3:6c:f8, 2015-01-01 01:34:08.410, 0.6, -0.061, 0.794, 0.244, 0.305, 0.305, -4.526, -37.029, 159.12, -15.847, -8.233, -28.780, 26.67, 0.18375, 0.3049, -0.09439, 0.92966,
 13:48:17.099,f6:90:cc:01:6d:25, 2015-01-01 01:34:07.650, 0.907, 0.135, 0.365, -0.061, 0.061, 0, 19.852, -66.676, -170.634, -27.873, -13.347, -6.033, 30.7, -0.16107, 0.52786, 0.18735, 0.81253,
 13:48:17.099,f6:90:cc:01:6d:25, 2015-01-01 01:34:07.650, 0.909, 0.136, 0.367, 0, 0.122, 0, 19.852, -66.676, -170.629, -27.873, -13.347, -6.033, 30.7, -0.16107, 0.52786, 0.18735, 0.81253,
 13:48:17.123,f6:90:cc:01:6d:25, 2015-01-01 01:34:07.650, 0.907, 0.133, 0.366, 0.183, 0, 0, 19.858, -66.671, -170.618, -27.873, -13.347, -6.033, 30.7, -0.16107, 0.52786, 0.18735, 0.81253,
 13:48:17.123,f6:90:cc:01:6d:25, 2015-01-01 01:34:07.650, 0.906, 0.134, 0.367, 0.183, 0, 0, 19.863, -66.676, -170.612, -27.873, -13.347, -6.033, 30.7, -0.16107, 0.52786, 0.18735, 0.81253,
 13:48:17.142,e3:ca:2d:fd:e0:8c, 2015-01-01 01:34:09.115, 0.876, -0.021, 0.521, -0.061, -0.122, 0, -2.593, -59.222, -176.506, -24.727, -9.293, -14.633, 28.21, -0.01505, 0.49435, -0.00473, 0.86905,
 13:48:17.142,e3:ca:2d:fd:e0:8c, 2015-01-01 01:34:09.115, 0.876, -0.022, 0.521, 0.061, -0.244, 0, -2.593, -59.227, -176.501, -24.727, -9.293, -14.633, 28.21, -0.01505, 0.49435, -0.00473, 0.86905,
 13:48:17.142,ed:40:fe:65:30:6c, 2015-01-01 01:34:08.250, 0.702, 0.117, 0.706, 0.061, 0.244, 0, 9.371, -44.61, -133.149, -21.607, -11.867, -1.867, 26.32, 0.39545, -0.31686, -0.21994, -0.8335,
 13:48:17.142,ed:40:fe:65:30:6c, 2015-01-01 01:34:08.250, 0.702, 0.116, 0.704, 0, 0.244, 0, 9.371, -44.604, -133.154, -21.607, -11.867, -1.867, 26.32, 0.39545, -0.31686, -0.21994, -0.8335,
 13:48:17.144,ed:35:33:d3:6c:f8, 2015-01-01 01:34:08.410, 0.597, -0.062, 0.793, -0.061, 0.305, 0.305, -4.532, -37.024, 159.099, -15.847, -8.233, -28.780, 26.67, 0.18375, 0.3049, -0.09439, 0.92966,
 13:48:17.144,ed:35:33:d3:6c:f8, 2015-01-01 01:34:08.410, 0.598, -0.063, 0.791, -0.244, 0.122, 0.183, -4.537, -37.018, 159.077, -15.847, -8.233, -28.780, 26.67, 0.18375, 0.3049, -0.09439, 0.92966,
 13:48:17.164,ed:40:fe:65:30:6c, 2015-01-01 01:34:08.250, 0.702, 0.115, 0.703, -0.122, 0.122, 0, 9.371, -44.599, -133.16, -21.607, -11.867, -1.867, 26.32, 0.39545, -0.31686, -0.21994, -0.8335,
 13:48:17.164,ed:40:fe:65:30:6c, 2015-01-01 01:34:08.250, 0.702, 0.115, 0.701, -0.061, 0, 0, 9.366, -44.599, -133.165, -21.607, -11.867, -1.867, 26.32, 0.39545, -0.31686, -0.21994, -0.8335,
 13:48:17.164,e3:ca:2d:fd:e0:8c, 2015-01-01 01:34:09.115, 0.874, -0.022, 0.521, 0.122, -0.183, 0, -2.593, -59.227, -176.501, -24.840, -9.307, -14.707, 28.21, -0.01505, 0.49435, -0.00473, 0.86905,
 13:48:17.164,e3:ca:2d:fd:e0:8c, 2015-01-01 01:34:09.115, 0.874, -0.023, 0.521, 0, -0.183, 0, -2.587, -59.233, -176.501, -24.840, -9.307, -14.707, 28.21, -0.01505, 0.49435, -0.00473, 0.86905,
 13:48:17.167,f6:90:cc:01:6d:25, 2015-01-01 01:34:07.650, 0.905, 0.134, 0.365, 0, -0.061, 0, 19.869, -66.676, -170.601, -27.873, -13.347, -6.033, 30.7, -0.16107, 0.52786, 0.18735, 0.81253,
 13:48:17.167,f6:90:cc:01:6d:25, 2015-01-01 01:34:07.650, 0.905, 0.135, 0.367, -0.183, -0.061, 0, 19.869, -66.676, -170.596, -27.873, -13.347, -6.033, 30.7, -0.16107, 0.52786, 0.18735, 0.81253,
 13:48:17.208,e3:ca:2d:fd:e0:8c, 2015-01-01 01:34:09.115, 0.875, -0.022, 0.521, -0.122, -0.183, 0, -2.587, -59.233, -176.495, -24.840, -9.307, -14.707, 28.21, -0.01505, 0.49435, -0.00473, 0.86905,
 13:48:17.208,e3:ca:2d:fd:e0:8c, 2015-01-01 01:34:09.115, 0.876, -0.021, 0.522, 0, -0.122, 0, -2.587, -59.238, -176.495, -24.840, -9.307, -14.707, 28.21, -0.01505, 0.49435, -0.00473, 0.86905,
 13:48:17.209,ed:40:fe:65:30:6c, 2015-01-01 01:34:08.250, 0.702, 0.117, 0.702, -0.061, 0, 0, 9.366, -44.599, -133.171, -21.607, -11.867, -1.867, 26.32, 0.39545, -0.31686, -0.21994, -0.8335,
 13:48:17.209,ed:40:fe:65:30:6c, 2015-01-01 01:34:08.250, 0.702, 0.114, 0.704, -0.061, 0, 0, 9.366, -44.599, -133.176, -21.607, -11.867, -1.867, 26.32, 0.39545, -0.31686, -0.21994, -0.8335,
 13:48:17.210,ed:35:33:d3:6c:f8, 2015-01-01 01:34:08.410, 0.598, -0.062, 0.791, -0.244, 0.183, 0.122, -4.543, -37.018, 159.06, -15.860, -8.220, -28.780, 26.67, 0.18375, 0.3049, -0.09439, 0.92966,
 13:48:17.210,ed:35:33:d3:6c:f8, 2015-01-01 01:34:08.410, 0.598, -0.062, 0.79, -0.366, 0.183, 0.366, -4.554, -37.013, 159.044, -15.860, -8.220, -28.780, 26.67, 0.18375, 0.3049, -0.09439, 0.92966,
 13:48:17.213,f6:90:cc:01:6d:25, 2015-01-01 01:34:07.650, 0.906, 0.134, 0.366, 0, -0.122, 0, 19.874, -66.676, -170.59, -27.873, -13.347, -6.033, 30.7, -0.16107, 0.52786, 0.18735, 0.81253,
 13:48:17.213,f6:90:cc:01:6d:25, 2015-01-01 01:34:07.650, 0.906, 0.133, 0.367, 0.122, -0.183, 0, 19.88, -66.682, -170.585, -27.873, -13.347, -6.033, 30.7, -0.16107, 0.52786, 0.18735, 0.81253,
 13:48:17.233,e3:ca:2d:fd:e0:8c, 2015-01-01 01:34:09.115, 0.874, -0.021, 0.522, 0.122, 0, 0, -2.587, -59.238, -176.49, -24.840, -9.307, -14.707, 28.21, -0.01538, 0.49448, -0.00452, 0.86899,
 13:48:17.233,e3:ca:2d:fd:e0:8c, 2015-01-01 01:34:09.115, 0.874, -0.023, 0.523, 0, 0, 0, -2.582, -59.238, -176.49, -24.840, -9.307, -14.707, 28.21, -0.01538, 0.49448, -0.00452, 0.86899,
 13:48:17.234,ed:35:33:d3:6c:f8, 2015-01-01 01:34:08.410, 0.597, -0.063, 0.79, -0.488, 0.183, 0.366, -4.565, -37.013, 159.027, -15.860, -8.220, -28.780, 26.67, 0.18481, 0.30496, -0.09482, 0.92938,
 13:48:17.234,ed:35:33:d3:6c:f8, 2015-01-01 01:34:08.410, 0.596, -0.067, 0.79, -0.427, 0.366, 0.305, -4.581, -37.002, 159.011, -15.860, -8.220, -28.780, 26.67, 0.18481, 0.30496, -0.09482, 0.92938,
 13:48:17.257,f6:90:cc:01:6d:25, 2015-01-01 01:34:07.650, 0.907, 0.132, 0.367, 0, -0.183, 0, 19.885, -66.687, -170.579, -28.000, -13.233, -5.553, 30.7, -0.16107, 0.52786, 0.18735, 0.81253,
 13:48:17.257,f6:90:cc:01:6d:25, 2015-01-01 01:34:07.650, 0.907, 0.133, 0.366, -0.061, -0.183, 0, 19.891, -66.687, -170.574, -28.000, -13.233, -5.553, 30.7, -0.16107, 0.52786, 0.18735, 0.81253,
 13:48:17.276,e3:ca:2d:fd:e0:8c, 2015-01-01 01:34:09.115, 0.875, -0.024, 0.522, -0.183, 0, 0, -2.582, -59.238, -176.484, -24.840, -9.307, -14.707, 28.21, -0.01538, 0.49448, -0.00452, 0.86899,
 13:48:17.276,e3:ca:2d:fd:e0:8c, 2015-01-01 01:34:09.115, 0.875, -0.023, 0.522, -0.244, -0.122, 0, -2.587, -59.233, -176.484, -24.840, -9.307, -14.707, 28.21, -0.01538, 0.49448, -0.00452, 0.86899,
 13:48:17.278,ed:40:fe:65:30:6c, 2015-01-01 01:34:08.250, 0.703, 0.112, 0.703, -0.061, 0, 0, 9.366, -44.599, -133.182, -21.593, -11.807, -2.300, 26.32, 0.39545, -0.31686, -0.21994, -0.8335,
 13:48:17.278,ed:40:fe:65:30:6c, 2015-01-01 01:34:08.250, 0.703, 0.113, 0.703, 0, 0, 0, 9.36, -44.599, -133.187, -21.593, -11.807, -2.300, 26.32, 0.39545, -0.31686, -0.21994, -0.8335,
 13:48:17.280,ed:35:33:d3:6c:f8, 2015-01-01 01:34:08.410, 0.598, -0.067, 0.791, 0.122, 0.305, 0, -4.581, -36.996, 158.994, -15.860, -8.220, -28.780, 26.67, 0.18481, 0.30496, -0.09482, 0.92938,
 13:48:17.280,ed:35:33:d3:6c:f8, 2015-01-01 01:34:08.410, 0.6, -0.064, 0.793, 0.427, 0.183, -0.183, -4.57, -36.996, 158.967, -15.860, -8.220, -28.780, 26.67, 0.18481, 0.30496, -0.09482, 0.92938,
 13:48:17.301,ed:40:fe:65:30:6c, 2015-01-01 01:34:08.250, 0.704, 0.116, 0.705, 0.061, -0.061, 0, 9.36, -44.599, -133.193, -21.593, -11.807, -2.300, 26.32, 0.39465, -0.31708, -0.21951, -0.83389,
 13:48:17.301,ed:40:fe:65:30:6c, 2015-01-01 01:34:08.250, 0.704, 0.116, 0.705, -0.122, -0.061, 0, 9.36, -44.604, -133.198, -21.593, -11.807, -2.300, 26.32, 0.39465, -0.31708, -0.21951, -0.83389,
 13:48:17.301,ed:35:33:d3:6c:f8, 2015-01-01 01:34:08.745, 0.599, -0.063, 0.795, 0.305, 0, -0.244, -4.565, -36.991, 158.939, -15.860, -8.220, -28.780, 26.67, 0.18481, 0.30496, -0.09482, 0.92938,
 13:48:17.301,ed:35:33:d3:6c:f8, 2015-01-01 01:34:08.745, 0.598, -0.063, 0.792, 0, -0.244, -0.244, -4.559, -36.996, 158.912, -15.860, -8.220, -28.780, 26.67, 0.18481, 0.30496, -0.09482, 0.92938,
 13:48:17.305,f6:90:cc:01:6d:25, 2015-01-01 01:34:07.650, 0.908, 0.133, 0.366, -0.122, -0.061, 0, 19.891, -66.693, -170.574, -28.000, -13.233, -5.553, 30.7, -0.16223, 0.52774, 0.18829, 0.81216,
 13:48:17.305,f6:90:cc:01:6d:25, 2015-01-01 01:34:07.650, 0.908, 0.133, 0.367, -0.061, -0.061, 0, 19.891, -66.693, -170.568, -28.000, -13.233, -5.553, 30.7, -0.16223, 0.52774, 0.18829, 0.81216,
 13:48:17.324,f6:90:cc:01:6d:25, 2015-01-01 01:34:08.005, 0.907, 0.132, 0.367, 0.061, -0.244, 0, 19.896, -66.693, -170.563, -28.000, -13.233, -5.553, 30.7, -0.16223, 0.52774, 0.18829, 0.81216,
 13:48:17.324,f6:90:cc:01:6d:25, 2015-01-01 01:34:08.005, 0.907, 0.133, 0.366, 0.122, -0.183, 0, 19.902, -66.698, -170.557, -28.000, -13.233, -5.553, 30.7, -0.16223, 0.52774, 0.18829, 0.81216,
 13:48:17.343,e3:ca:2d:fd:e0:8c, 2015-01-01 01:34:09.450, 0.875, -0.023, 0.522, -0.061, -0.244, 0, -2.587, -59.238, -176.484, -24.840, -9.307, -14.707, 28.21, -0.01538, 0.49448, -0.00452, 0.86899,
 13:48:17.343,e3:ca:2d:fd:e0:8c, 2015-01-01 01:34:09.450, 0.875, -0.024, 0.522, 0.122, -0.244, 0, -2.587, -59.238, -176.479, -24.840, -9.307, -14.707, 28.21, -0.01538, 0.49448, -0.00452, 0.86899,
 13:48:17.344,ed:40:fe:65:30:6c, 2015-01-01 01:34:08.250, 0.704, 0.115, 0.705, -0.244, 0, 0, 9.355, -44.604, -133.204, -21.593, -11.807, -2.300, 26.32, 0.39465, -0.31708, -0.21951, -0.83389,
 13:48:17.344,ed:40:fe:65:30:6c, 2015-01-01 01:34:08.250, 0.705, 0.115, 0.702, -0.122, -0.122, 0, 9.349, -44.604, -133.209, -21.593, -11.807, -2.300, 26.32, 0.39465, -0.31708, -0.21951, -0.83389,
 13:48:17.346,ed:35:33:d3:6c:f8, 2015-01-01 01:34:08.745, 0.6, -0.063, 0.79, 0, -0.061, -0.183, -4.554, -37.002, 158.884, -15.860, -8.220, -28.780, 26.67, 0.18481, 0.30496, -0.09482, 0.92938,
 13:48:17.346,ed:35:33:d3:6c:f8, 2015-01-01 01:34:08.745, 0.6, -0.063, 0.79, -0.061, 0.122, -0.305, -4.554, -37.002, 158.857, -15.860, -8.220, -28.780, 26.67, 0.18481, 0.30496, -0.09482, 0.92938,
 13:48:17.366,e3:ca:2d:fd:e0:8c, 2015-01-01 01:34:09.450, 0.874, -0.024, 0.522, 0.061, -0.061, 0, -2.587, -59.244, -176.479, -24.840, -9.307, -14.707, 28.21, -0.01538, 0.49448, -0.00452, 0.86899,
 13:48:17.366,e3:ca:2d:fd:e0:8c, 2015-01-01 01:34:09.450, 0.875, -0.023, 0.522, 0, -0.122, 0, -2.582, -59.244, -176.473, -24.840, -9.307, -14.707, 28.21, -0.01538, 0.49448, -0.00452, 0.86899,
 13:48:17.367,ed:40:fe:65:30:6c, 2015-01-01 01:34:08.585, 0.704, 0.114, 0.702, -0.061, -0.122, 0, 9.349, -44.604, -133.215, -21.593, -11.807, -2.300, 26.32, 0.39465, -0.31708, -0.21951, -0.83389,
 13:48:17.367,ed:40:fe:65:30:6c, 2015-01-01 01:34:08.585, 0.703, 0.115, 0.702, 0, -0.061, 0, 9.349, -44.61, -133.22, -21.593, -11.807, -2.300, 26.32, 0.39465, -0.31708, -0.21951, -0.83389,
 13:48:17.369,f6:90:cc:01:6d:25, 2015-01-01 01:34:08.005, 0.907, 0.134, 0.366, 0.122, -0.183, 0, 19.907, -66.703, -170.552, -28.000, -13.233, -5.553, 30.7, -0.16223, 0.52774, 0.18829, 0.81216,
 13:48:17.369,f6:90:cc:01:6d:25, 2015-01-01 01:34:08.005, 0.906, 0.132, 0.366, 0, -0.183, 0, 19.913, -66.709, -170.552, -28.000, -13.233, -5.553, 30.7, -0.16223, 0.52774, 0.18829, 0.81216,
 13:48:17.392,ed:35:33:d3:6c:f8, 2015-01-01 01:34:08.745, 0.599, -0.063, 0.79, 0, 0.122, -0.061, -4.554, -36.996, 158.835, -15.860, -8.220, -28.780, 26.67, 0.18481, 0.30496, -0.09482, 0.92938,
 13:48:17.392,ed:35:33:d3:6c:f8, 2015-01-01 01:34:08.745, 0.599, -0.062, 0.791, -0.244, 0.366, 0.122, -4.554, -36.991, 158.818, -15.860, -8.220, -28.780, 26.67, 0.18481, 0.30496, -0.09482, 0.92938,
 13:48:17.411,e3:ca:2d:fd:e0:8c, 2015-01-01 01:34:09.450, 0.875, -0.022, 0.522, 0, -0.183, 0, -2.582, -59.244, -176.473, -24.840, -9.307, -14.707, 28.21, -0.01538, 0.49448, -0.00452, 0.86899,
 13:48:17.411,e3:ca:2d:fd:e0:8c, 2015-01-01 01:34:09.450, 0.875, -0.023, 0.523, 0, -0.122, 0, -2.582, -59.249, -176.473, -24.840, -9.307, -14.707, 28.21, -0.01538, 0.49448, -0.00452, 0.86899,
 13:48:17.412,ed:40:fe:65:30:6c, 2015-01-01 01:34:08.585, 0.704, 0.116, 0.703, -0.244, 0.061, 0, 9.344, -44.61, -133.226, -21.593, -11.807, -2.300, 26.32, 0.39465, -0.31708, -0.21951, -0.83389,
 13:48:17.412,ed:40:fe:65:30:6c, 2015-01-01 01:34:08.585, 0.705, 0.115, 0.704, -0.183, 0.061, 0, 9.338, -44.61, -133.231, -21.593, -11.807, -2.300, 26.32, 0.39465, -0.31708, -0.21951, -0.83389,
 13:48:17.415,f6:90:cc:01:6d:25, 2015-01-01 01:34:08.005, 0.907, 0.132, 0.365, -0.122, 0, 0, 19.918, -66.709, -170.546, -28.000, -13.233, -5.553, 30.7, -0.16223, 0.52774, 0.18829, 0.81216,
 13:48:17.415,f6:90:cc:01:6d:25, 2015-01-01 01:34:08.005, 0.908, 0.133, 0.365, 0, -0.122, 0, 19.918, -66.709, -170.541, -28.000, -13.233, -5.553, 30.7, -0.16223, 0.52774, 0.18829, 0.81216,
 13:48:17.434,e3:ca:2d:fd:e0:8c, 2015-01-01 01:34:09.450, 0.876, -0.023, 0.522, -0.061, 0, 0, -2.582, -59.249, -176.468, -24.840, -9.307, -14.707, 28.21, -0.01538, 0.49448, -0.00452, 0.86899,
 13:48:17.434,e3:ca:2d:fd:e0:8c, 2015-01-01 01:34:09.450, 0.876, -0.022, 0.521, -0.061, 0.061, 0, -2.587, -59.244, -176.468, -24.840, -9.307, -14.707, 28.21, -0.01538, 0.49448, -0.00452, 0.86899,
 13:48:17.436,ed:35:33:d3:6c:f8, 2015-01-01 01:34:08.745, 0.6, -0.063, 0.792, -0.061, 0.244, 0, -4.559, -36.985, 158.796, -15.860, -8.220, -28.780, 26.67, 0.18481, 0.30496, -0.09482, 0.92938,
 13:48:17.436,ed:35:33:d3:6c:f8, 2015-01-01 01:34:08.745, 0.601, -0.063, 0.792, 0.183, 0.183, -0.061, -4.554, -36.985, 158.774, -15.860, -8.220, -28.780, 26.67, 0.18481, 0.30496, -0.09482, 0.92938,
 13:48:17.457,ed:40:fe:65:30:6c, 2015-01-01 01:34:08.585, 0.706, 0.115, 0.704, -0.061, 0, 0, 9.338, -44.61, -133.237, -21.593, -11.807, -2.300, 26.32, 0.39465, -0.31708, -0.21951, -0.83389,
 13:48:17.457,ed:40:fe:65:30:6c, 2015-01-01 01:34:08.585, 0.705, 0.114, 0.702, -0.061, 0.061, 0, 9.338, -44.61, -133.242, -21.593, -11.807, -2.300, 26.32, 0.39465, -0.31708, -0.21951, -0.83389,
 13:48:17.460,f6:90:cc:01:6d:25, 2015-01-01 01:34:08.005, 0.908, 0.134, 0.365, 0.122, -0.122, 0, 19.918, -66.714, -170.535, -28.000, -13.233, -5.553, 30.7, -0.16223, 0.52774, 0.18829, 0.81216,
 13:48:17.460,f6:90:cc:01:6d:25, 2015-01-01 01:34:08.005, 0.908, 0.134, 0.364, 0.061, -0.122, 0, 19.924, -66.714, -170.53, -28.000, -13.233, -5.553, 30.7, -0.16223, 0.52774, 0.18829, 0.81216,
 13:48:17.483,f6:90:cc:01:6d:25, 2015-01-01 01:34:08.005, 0.908, 0.135, 0.363, 0, -0.061, 0, 19.929, -66.72, -170.53, -28.000, -13.233, -5.553, 30.7, -0.16223, 0.52774, 0.18829, 0.81216,
 13:48:17.483,f6:90:cc:01:6d:25, 2015-01-01 01:34:08.005, 0.908, 0.135, 0.365, 0.061, 0.061, 0, 19.935, -66.72, -170.519, -28.000, -13.233, -5.553, 30.7, -0.16223, 0.52774, 0.18829, 0.81216,
 13:48:17.501,e3:ca:2d:fd:e0:8c, 2015-01-01 01:34:09.450, 0.875, -0.022, 0.521, -0.061, 0, 0, -2.587, -59.244, -176.468, -24.840, -9.307, -14.707, 28.21, -0.01538, 0.49448, -0.00452, 0.86899,
 13:48:17.501,e3:ca:2d:fd:e0:8c, 2015-01-01 01:34:09.450, 0.876, -0.023, 0.521, 0, -0.122, 0, -2.587, -59.244, -176.462, -24.840, -9.307, -14.707, 28.21, -0.01538, 0.49448, -0.00452, 0.86899,
 13:48:17.502,ed:40:fe:65:30:6c, 2015-01-01 01:34:08.585, 0.705, 0.114, 0.702, -0.122, 0.122, 0, 9.333, -44.604, -133.248, -21.593, -11.807, -2.300, 26.32, 0.39465, -0.31708, -0.21951, -0.83389,
 13:48:17.502,ed:40:fe:65:30:6c, 2015-01-01 01:34:08.585, 0.705, 0.115, 0.703, 0, 0.061, 0, 9.333, -44.604, -133.248, -21.593, -11.807, -2.300, 26.32, 0.39465, -0.31708, -0.21951, -0.83389,
 13:48:17.503,ed:35:33:d3:6c:f8, 2015-01-01 01:34:08.745, 0.6, -0.063, 0.791, 0.061, 0.427, 0.061, -4.554, -36.974, 158.758, -15.860, -8.220, -28.780, 26.67, 0.18481, 0.30496, -0.09482, 0.92938,
 13:48:17.503,ed:35:33:d3:6c:f8, 2015-01-01 01:34:08.745, 0.599, -0.064, 0.791, 0.122, 0.183, 0, -4.554, -36.974, 158.736, -15.860, -8.220, -28.780, 26.67, 0.18481, 0.30496, -0.09482, 0.92938,
 13:48:17.524,e3:ca:2d:fd:e0:8c, 2015-01-01 01:34:09.450, 0.875, -0.022, 0.522, 0.061, -0.061, 0, -2.587, -59.244, -176.462, -24.507, -9.047, -14.453, 28.21, -0.01538, 0.49448, -0.00452, 0.86899,
 13:48:17.524,e3:ca:2d:fd:e0:8c, 2015-01-01 01:34:09.450, 0.876, -0.022, 0.522, 0.061, 0, 0, -2.582, -59.244, -176.462, -24.507, -9.047, -14.453, 28.21, -0.01538, 0.49448, -0.00452, 0.86899,
 13:48:17.526,ed:35:33:d3:6c:f8, 2015-01-01 01:34:08.745, 0.6, -0.063, 0.791, 0.366, 0, -0.122, -4.543, -36.974, 158.714, -16.153, -8.660, -28.313, 26.67, 0.18481, 0.30496, -0.09482, 0.92938,
 13:48:17.526,ed:35:33:d3:6c:f8, 2015-01-01 01:34:08.745, 0.6, -0.063, 0.792, 0.61, 0, -0.244, -4.532, -36.974, 158.692, -16.153, -8.660, -28.313, 26.67, 0.18481, 0.30496, -0.09482, 0.92938,
 13:48:17.527,f6:90:cc:01:6d:25, 2015-01-01 01:34:08.005, 0.908, 0.134, 0.365, 0, 0, 0, 19.935, -66.72, -170.513, -28.000, -13.233, -5.553, 30.7, -0.16223, 0.52774, 0.18829, 0.81216,
 13:48:17.527,f6:90:cc:01:6d:25, 2015-01-01 01:34:08.005, 0.907, 0.133, 0.364, 0, -0.061, 0, 19.94, -66.72, -170.508, -28.000, -13.233, -5.553, 30.7, -0.16223, 0.52774, 0.18829, 0.81216,
 13:48:17.549,ed:40:fe:65:30:6c, 2015-01-01 01:34:08.585, 0.704, 0.114, 0.704, 0, 0.061, 0, 9.333, -44.604, -133.253, -21.593, -11.807, -2.300, 26.32, 0.39465, -0.31708, -0.21951, -0.83389,
 13:48:17.549,ed:40:fe:65:30:6c, 2015-01-01 01:34:08.585, 0.703, 0.115, 0.704, 0.061, 0.061, 0, 9.333, -44.604, -133.259, -21.593, -11.807, -2.300, 26.32, 0.39465, -0.31708, -0.21951, -0.83389,
 13:48:17.568,e3:ca:2d:fd:e0:8c, 2015-01-01 01:34:09.450, 0.876, -0.022, 0.521, -0.122, 0, 0, -2.582, -59.244, -176.457, -24.507, -9.047, -14.453, 28.21, -0.01538, 0.49448, -0.00452, 0.86899,
 13:48:17.568,e3:ca:2d:fd:e0:8c, 2015-01-01 01:34:09.450, 0.875, -0.023, 0.521, -0.183, 0, 0, -2.582, -59.244, -176.457, -24.507, -9.047, -14.453, 28.21, -0.01538, 0.49448, -0.00452, 0.86899,
 13:48:17.570,ed:40:fe:65:30:6c, 2015-01-01 01:34:08.585, 0.704, 0.116, 0.703, 0.183, 0.122, 0, 9.333, -44.604, -133.264, -21.553, -12.113, -2.620, 26.32, 0.39465, -0.31708, -0.21951, -0.83389,
 13:48:17.570,ed:40:fe:65:30:6c, 2015-01-01 01:34:08.585, 0.704, 0.115, 0.703, 0.061, 0.061, 0, 9.333, -44.604, -133.27, -21.553, -12.113, -2.620, 26.32, 0.39465, -0.31708, -0.21951, -0.83389,
 13:48:17.571,f6:90:cc:01:6d:25, 2015-01-01 01:34:08.005, 0.908, 0.133, 0.365, 0, -0.183, 0, 19.94, -66.725, -170.508, -28.027, -13.447, -6.040, 30.7, -0.16223, 0.52774, 0.18829, 0.81216,
 13:48:17.571,f6:90:cc:01:6d:25, 2015-01-01 01:34:08.005, 0.908, 0.134, 0.364, 0, -0.305, 0, 19.951, -66.731, -170.502, -28.027, -13.447, -6.040, 30.7, -0.16223, 0.52774, 0.18829, 0.81216,
 13:48:17.571,ed:35:33:d3:6c:f8, 2015-01-01 01:34:08.745, 0.599, -0.062, 0.792, 0.671, 0, -0.305, -4.515, -36.974, 158.665, -16.153, -8.660, -28.313, 26.67, 0.18481, 0.30496, -0.09482, 0.92938,
 13:48:17.571,ed:35:33:d3:6c:f8, 2015-01-01 01:34:08.745, 0.599, -0.06, 0.792, 0.793, 0, -0.122, -4.499, -36.98, 158.643, -16.153, -8.660, -28.313, 26.67, 0.18481, 0.30496, -0.09482, 0.92938,
 13:48:17.593,ed:35:33:d3:6c:f8, 2015-01-01 01:34:08.745, 0.6, -0.06, 0.792, 0.61, 0.061, 0, -4.482, -36.98, 158.626, -16.153, -8.660, -28.313, 26.67, 0.1879, 0.3045, -0.09525, 0.92886,
 13:48:17.593,ed:35:33:d3:6c:f8, 2015-01-01 01:34:08.745, 0.599, -0.062, 0.791, 0.427, 0.122, 0.122, -4.477, -36.974, 158.61, -16.153, -8.660, -28.313, 26.67, 0.1879, 0.3045, -0.09525, 0.92886,
 13:48:17.614,ed:40:fe:65:30:6c, 2015-01-01 01:34:08.585, 0.703, 0.115, 0.702, 0.183, 0.122, 0, 9.338, -44.599, -133.27, -21.553, -12.113, -2.620, 26.32, 0.39465, -0.31708, -0.21951, -0.83389,
 13:48:17.614,ed:40:fe:65:30:6c, 2015-01-01 01:34:08.585, 0.703, 0.114, 0.702, 0.183, 0.183, 0, 9.338, -44.599, -133.275, -21.553, -12.113, -2.620, 26.32, 0.39465, -0.31708, -0.21951, -0.83389,
 13:48:17.618,f6:90:cc:01:6d:25, 2015-01-01 01:34:08.005, 0.907, 0.135, 0.367, 0.244, -0.183, 0, 19.957, -66.736, -170.502, -28.027, -13.447, -6.040, 30.7, -0.16302, 0.52783, 0.18903, 0.81177,
 13:48:17.618,f6:90:cc:01:6d:25, 2015-01-01 01:34:08.005, 0.906, 0.135, 0.367, 0.366, 0, 0, 19.968, -66.736, -170.497, -28.027, -13.447, -6.040, 30.7, -0.16302, 0.52783, 0.18903, 0.81177,
 13:48:17.637,e3:ca:2d:fd:e0:8c, 2015-01-01 01:34:09.450, 0.874, -0.022, 0.521, 0, 0, 0, -2.587, -59.244, -176.457, -24.507, -9.047, -14.453, 28.21, -0.01569, 0.49451, -0.00433, 0.86896,
 13:48:17.637,e3:ca:2d:fd:e0:8c, 2015-01-01 01:34:09.450, 0.873, -0.022, 0.523, 0.244, 0, 0, -2.582, -59.244, -176.451, -24.507, -9.047, -14.453, 28.21, -0.01569, 0.49451, -0.00433, 0.86896,
 13:48:17.638,ed:35:33:d3:6c:f8, 2015-01-01 01:34:08.745, 0.598, -0.062, 0.79, 0.427, 0.244, 0.122, -4.471, -36.974, 158.593, -16.153, -8.660, -28.313, 26.67, 0.1879, 0.3045, -0.09525, 0.92886,
 13:48:17.638,ed:35:33:d3:6c:f8, 2015-01-01 01:34:08.745, 0.597, -0.062, 0.79, 0.427, 0.488, 0, -4.46, -36.964, 158.577, -16.153, -8.660, -28.313, 26.67, 0.1879, 0.3045, -0.09525, 0.92886,
 13:48:17.658,e3:ca:2d:fd:e0:8c, 2015-01-01 01:34:09.805, 0.874, -0.022, 0.523, 0.244, 0, 0, -2.576, -59.244, -176.451, -24.507, -9.047, -14.453, 28.21, -0.01569, 0.49451, -0.00433, 0.86896,
 13:48:17.658,e3:ca:2d:fd:e0:8c, 2015-01-01 01:34:09.805, 0.874, -0.022, 0.523, -0.061, 0, 0, -2.576, -59.238, -176.451, -24.507, -9.047, -14.453, 28.21, -0.01569, 0.49451, -0.00433, 0.86896,
 13:48:17.660,ed:35:33:d3:6c:f8, 2015-01-01 01:34:09.100, 0.598, -0.061, 0.792, 0.366, 0.854, -0.061, -4.455, -36.953, 158.555, -16.153, -8.660, -28.313, 26.67, 0.1879, 0.3045, -0.09525, 0.92886,
 13:48:17.660,ed:35:33:d3:6c:f8, 2015-01-01 01:34:09.100, 0.597, -0.061, 0.793, 0.549, 0.732, -0.122, -4.438, -36.936, 158.533, -16.153, -8.660, -28.313, 26.67, 0.1879, 0.3045, -0.09525, 0.92886,
 13:48:17.661,f6:90:cc:01:6d:25, 2015-01-01 01:34:08.320, 0.907, 0.134, 0.366, 0.122, 0, 0, 19.973, -66.742, -170.491, -28.027, -13.447, -6.040, 30.7, -0.16302, 0.52783, 0.18903, 0.81177,
 13:48:17.661,f6:90:cc:01:6d:25, 2015-01-01 01:34:08.320, 0.907, 0.133, 0.366, -0.122, -0.061, 0, 19.979, -66.742, -170.486, -28.027, -13.447, -6.040, 30.7, -0.16302, 0.52783, 0.18903, 0.81177,
 13:48:17.681,e3:ca:2d:fd:e0:8c, 2015-01-01 01:34:09.805, 0.875, -0.023, 0.523, -0.244, 0, 0, -2.576, -59.238, -176.451, -24.507, -9.047, -14.453, 28.21, -0.01569, 0.49451, -0.00433, 0.86896,
 13:48:17.681,e3:ca:2d:fd:e0:8c, 2015-01-01 01:34:09.805, 0.875, -0.023, 0.522, -0.122, 0, 0, -2.576, -59.238, -176.446, -24.507, -9.047, -14.453, 28.21, -0.01569, 0.49451, -0.00433, 0.86896,
 13:48:17.682,ed:40:fe:65:30:6c, 2015-01-01 01:34:08.585, 0.702, 0.115, 0.703, 0.061, 0.305, 0, 9.338, -44.594, -133.281, -21.553, -12.113, -2.620, 26.32, 0.39398, -0.31732, -0.21912, -0.83423,
 13:48:17.682,ed:40:fe:65:30:6c, 2015-01-01 01:34:08.585, 0.702, 0.115, 0.704, 0, 0.366, 0, 9.338, -44.588, -133.281, -21.553, -12.113, -2.620, 26.32, 0.39398, -0.31732, -0.21912, -0.83423,
 13:48:17.685,f6:90:cc:01:6d:25, 2015-01-01 01:34:08.320, 0.907, 0.132, 0.366, -0.122, -0.061, 0, 19.979, -66.742, -170.48, -28.027, -13.447, -6.040, 30.7, -0.16302, 0.52783, 0.18903, 0.81177,
 13:48:17.685,f6:90:cc:01:6d:25, 2015-01-01 01:34:08.320, 0.908, 0.133, 0.366, 0, -0.061, 0, 19.979, -66.742, -170.48, -28.027, -13.447, -6.040, 30.7, -0.16302, 0.52783, 0.18903, 0.81177,
 13:48:17.706,ed:35:33:d3:6c:f8, 2015-01-01 01:34:09.100, 0.599, -0.06, 0.793, 0.549, 0.549, -0.061, -4.427, -36.925, 158.516, -16.153, -8.660, -28.313, 26.67, 0.1879, 0.3045, -0.09525, 0.92886,
 13:48:17.706,ed:35:33:d3:6c:f8, 2015-01-01 01:34:09.100, 0.597, -0.062, 0.793, 0.488, 0.427, 0.183, -4.422, -36.92, 158.5, -16.153, -8.660, -28.313, 26.67, 0.1879, 0.3045, -0.09525, 0.92886,
 13:48:17.706,ed:40:fe:65:30:6c, 2015-01-01 01:34:08.920, 0.703, 0.115, 0.705, 0.122, 0.366, 0, 9.338, -44.583, -133.286, -21.553, -12.113, -2.620, 26.32, 0.39398, -0.31732, -0.21912, -0.83423,
 13:48:17.706,ed:40:fe:65:30:6c, 2015-01-01 01:34:08.920, 0.703, 0.114, 0.705, 0.183, 0.427, 0, 9.338, -44.572, -133.286, -21.553, -12.113, -2.620, 26.32, 0.39398, -0.31732, -0.21912, -0.83423,
 13:48:17.726,e3:ca:2d:fd:e0:8c, 2015-01-01 01:34:09.805, 0.874, -0.023, 0.522, 0.122, 0, 0, -2.576, -59.238, -176.446, -24.507, -9.047, -14.453, 28.21, -0.01569, 0.49451, -0.00433, 0.86896,
 13:48:17.726,e3:ca:2d:fd:e0:8c, 2015-01-01 01:34:09.805, 0.875, -0.022, 0.522, 0.183, -0.061, 0, -2.576, -59.238, -176.446, -24.507, -9.047, -14.453, 28.21, -0.01569, 0.49451, -0.00433, 0.86896,
 13:48:17.727,ed:40:fe:65:30:6c, 2015-01-01 01:34:08.920, 0.703, 0.114, 0.705, 0.122, 0.549, 0, 9.338, -44.561, -133.286, -21.553, -12.113, -2.620, 26.32, 0.39398, -0.31732, -0.21912, -0.83423,
 13:48:17.727,ed:40:fe:65:30:6c, 2015-01-01 01:34:08.920, 0.703, 0.114, 0.705, 0, 0.488, 0, 9.338, -44.555, -133.292, -21.553, -12.113, -2.620, 26.32, 0.39398, -0.31732, -0.21912, -0.83423,
 13:48:17.729,f6:90:cc:01:6d:25, 2015-01-01 01:34:08.320, 0.907, 0.133, 0.366, 0.305, 0, 0, 19.984, -66.742, -170.475, -28.027, -13.447, -6.040, 30.7, -0.16302, 0.52783, 0.18903, 0.81177,
 13:48:17.729,f6:90:cc:01:6d:25, 2015-01-01 01:34:08.320, 0.908, 0.133, 0.365, 0.366, 0, 0, 19.99, -66.742, -170.469, -28.027, -13.447, -6.040, 30.7, -0.16302, 0.52783, 0.18903, 0.81177,
 13:48:17.751,ed:35:33:d3:6c:f8, 2015-01-01 01:34:09.100, 0.597, -0.062, 0.794, 0.366, 0.732, 0.183, -4.417, -36.909, 158.489, -16.153, -8.660, -28.313, 26.67, 0.1879, 0.3045, -0.09525, 0.92886,
 13:48:17.751,ed:35:33:d3:6c:f8, 2015-01-01 01:34:09.100, 0.597, -0.062, 0.793, 0.427, 0.732, 0.122, -4.406, -36.892, 158.472, -16.153, -8.660, -28.313, 26.67, 0.1879, 0.3045, -0.09525, 0.92886,
 13:48:17.771,e3:ca:2d:fd:e0:8c, 2015-01-01 01:34:09.805, 0.875, -0.023, 0.522, 0.061, 0, 0, -2.571, -59.233, -176.44, -24.507, -9.047, -14.453, 28.21, -0.01569, 0.49451, -0.00433, 0.86896,
 13:48:17.771,e3:ca:2d:fd:e0:8c, 2015-01-01 01:34:09.805, 0.875, -0.023, 0.522, -0.061, -0.061, 0, -2.571, -59.233, -176.44, -24.507, -9.047, -14.453, 28.21, -0.01569, 0.49451, -0.00433, 0.86896,
 13:48:17.774,ed:40:fe:65:30:6c, 2015-01-01 01:34:08.920, 0.702, 0.115, 0.704, 0.061, 0.427, 0, 9.338, -44.544, -133.292, -21.553, -12.113, -2.620, 26.32, 0.39398, -0.31732, -0.21912, -0.83423,
 13:48:17.774,ed:40:fe:65:30:6c, 2015-01-01 01:34:08.920, 0.701, 0.114, 0.704, 0, 0.488, 0, 9.333, -44.533, -133.297, -21.553, -12.113, -2.620, 26.32, 0.39398, -0.31732, -0.21912, -0.83423,
 13:48:17.775,f6:90:cc:01:6d:25, 2015-01-01 01:34:08.320, 0.907, 0.133, 0.366, 0, 0, 0, 19.995, -66.742, -170.464, -28.027, -13.447, -6.040, 30.7, -0.16302, 0.52783, 0.18903, 0.81177,
 13:48:17.775,f6:90:cc:01:6d:25, 2015-01-01 01:34:08.320, 0.907, 0.134, 0.364, -0.183, -0.061, 0, 19.995, -66.747, -170.458, -28.027, -13.447, -6.040, 30.7, -0.16302, 0.52783, 0.18903, 0.81177,
 13:48:17.794,e3:ca:2d:fd:e0:8c, 2015-01-01 01:34:09.805, 0.875, -0.023, 0.521, -0.061, 0, 0, -2.571, -59.233, -176.44, -24.507, -9.047, -14.453, 28.21, -0.01569, 0.49451, -0.00433, 0.86896,
 13:48:17.794,e3:ca:2d:fd:e0:8c, 2015-01-01 01:34:09.805, 0.875, -0.022, 0.522, -0.061, 0, 0, -2.571, -59.233, -176.44, -24.507, -9.047, -14.453, 28.21, -0.01569, 0.49451, -0.00433, 0.86896,
 13:48:17.796,ed:35:33:d3:6c:f8, 2015-01-01 01:34:09.100, 0.596, -0.062, 0.792, 0.427, 0.366, 0, -4.4, -36.881, 158.456, -16.153, -8.660, -28.313, 26.67, 0.1879, 0.3045, -0.09525, 0.92886,
 13:48:17.796,ed:35:33:d3:6c:f8, 2015-01-01 01:34:09.100, 0.596, -0.061, 0.792, 0.366, 0.549, 0, -4.389, -36.876, 158.439, -16.153, -8.660, -28.313, 26.67, 0.1879, 0.3045, -0.09525, 0.92886,
 13:48:17.817,ed:40:fe:65:30:6c, 2015-01-01 01:34:08.920, 0.702, 0.115, 0.705, -0.122, 0.366, 0, 9.333, -44.528, -133.297, -21.553, -12.113, -2.620, 26.32, 0.39398, -0.31732, -0.21912, -0.83423,
 13:48:17.817,ed:40:fe:65:30:6c, 2015-01-01 01:34:08.920, 0.702, 0.114, 0.704, -0.122, 0.427, 0, 9.327, -44.522, -133.297, -21.553, -12.113, -2.620, 26.32, 0.39398, -0.31732, -0.21912, -0.83423,
 13:48:17.821,f6:90:cc:01:6d:25, 2015-01-01 01:34:08.320, 0.907, 0.133, 0.364, -0.366, -0.061, 0, 19.99, -66.747, -170.453, -28.027, -13.447, -6.040, 30.7, -0.16302, 0.52783, 0.18903, 0.81177,
 13:48:17.821,f6:90:cc:01:6d:25, 2015-01-01 01:34:08.320, 0.908, 0.133, 0.365, -0.305, -0.122, 0, 19.99, -66.747, -170.447, -28.027, -13.447, -6.040, 30.7, -0.16302, 0.52783, 0.18903, 0.81177,
 13:48:17.861,e3:ca:2d:fd:e0:8c, 2015-01-01 01:34:09.805, 0.875, -0.021, 0.522, 0, 0.061, 0, -2.571, -59.233, -176.435, -24.507, -9.047, -14.453, 28.21, -0.01569, 0.49451, -0.00433, 0.86896,
 13:48:17.861,e3:ca:2d:fd:e0:8c, 2015-01-01 01:34:09.805, 0.875, -0.022, 0.522, 0.061, 0, 0, -2.571, -59.227, -176.435, -24.507, -9.047, -14.453, 28.21, -0.01569, 0.49451, -0.00433, 0.86896,
 13:48:17.864,f6:90:cc:01:6d:25, 2015-01-01 01:34:08.320, 0.908, 0.134, 0.364, -0.061, -0.122, 0, 19.99, -66.753, -170.447, -27.947, -13.467, -5.520, 30.7, -0.16302, 0.52783, 0.18903, 0.81177,
 13:48:17.864,f6:90:cc:01:6d:25, 2015-01-01 01:34:08.320, 0.908, 0.132, 0.364, 0, 0, 0, 19.99, -66.753, -170.442, -27.947, -13.467, -5.520, 30.7, -0.16302, 0.52783, 0.18903, 0.81177,
 13:48:17.865,ed:35:33:d3:6c:f8, 2015-01-01 01:34:09.100, 0.597, -0.06, 0.792, 0.305, 0.61, 0, -4.384, -36.865, 158.423, -16.153, -8.660, -28.313, 26.67, 0.1879, 0.3045, -0.09525, 0.92886,
 13:48:17.865,ed:35:33:d3:6c:f8, 2015-01-01 01:34:09.100, 0.597, -0.06, 0.793, 0.366, 0.183, 0, -4.378, -36.859, 158.406, -16.153, -8.660, -28.313, 26.67, 0.1879, 0.3045, -0.09525, 0.92886,
 13:48:17.883,e3:ca:2d:fd:e0:8c, 2015-01-01 01:34:09.805, 0.875, -0.022, 0.521, 0, -0.061, 0, -2.571, -59.227, -176.435, -24.633, -9.040, -14.673, 28.21, -0.01569, 0.49451, -0.00433, 0.86896,
 13:48:17.883,e3:ca:2d:fd:e0:8c, 2015-01-01 01:34:09.805, 0.876, -0.023, 0.521, 0, -0.061, 0, -2.565, -59.227, -176.429, -24.633, -9.040, -14.673, 28.21, -0.01569, 0.49451, -0.00433, 0.86896,
 13:48:17.885,ed:40:fe:65:30:6c, 2015-01-01 01:34:08.920, 0.703, 0.114, 0.705, 0, 0.427, 0, 9.322, -44.511, -133.303, -21.553, -12.113, -2.620, 26.32, 0.39398, -0.31732, -0.21912, -0.83423,
 13:48:17.885,ed:40:fe:65:30:6c, 2015-01-01 01:34:08.920, 0.703, 0.113, 0.705, 0, 0.366, 0, 9.322, -44.506, -133.303, -21.553, -12.113, -2.620, 26.32, 0.39398, -0.31732, -0.21912, -0.83423,
 13:48:17.887,f6:90:cc:01:6d:25, 2015-01-01 01:34:08.320, 0.908, 0.133, 0.365, 0, -0.122, 0, 19.99, -66.758, -170.442, -27.947, -13.467, -5.520, 30.7, -0.16367, 0.52783, 0.18958, 0.81149,
 13:48:17.887,f6:90:cc:01:6d:25, 2015-01-01 01:34:08.320, 0.908, 0.135, 0.363, 0, -0.061, 0, 19.995, -66.758, -170.436, -27.947, -13.467, -5.520, 30.7, -0.16367, 0.52783, 0.18958, 0.81149,
 13:48:17.887,ed:35:33:d3:6c:f8, 2015-01-01 01:34:09.100, 0.598, -0.061, 0.793, 0.305, 0.305, 0, -4.373, -36.854, 158.39, -15.880, -8.260, -29.047, 26.67, 0.1879, 0.3045, -0.09525, 0.92886,
 13:48:17.887,ed:35:33:d3:6c:f8, 2015-01-01 01:34:09.100, 0.597, -0.061, 0.793, 0, 0.61, 0.305, -4.373, -36.843, 158.379, -15.880, -8.260, -29.047, 26.67, 0.1879, 0.3045, -0.09525, 0.92886,
 13:48:17.907,ed:40:fe:65:30:6c, 2015-01-01 01:34:08.920, 0.703, 0.113, 0.705, -0.183, 0.427, 0, 9.316, -44.495, -133.308, -21.633, -12.380, -2.060, 26.32, 0.39398, -0.31732, -0.21912, -0.83423,
 13:48:17.907,ed:40:fe:65:30:6c, 2015-01-01 01:34:08.920, 0.703, 0.114, 0.704, -0.122, 0.427, 0, 9.311, -44.489, -133.308, -21.633, -12.380, -2.060, 26.32, 0.39398, -0.31732, -0.21912, -0.83423,
 13:48:17.931,ed:35:33:d3:6c:f8, 2015-01-01 01:34:09.100, 0.597, -0.063, 0.793, -0.183, 0.488, 0.366, -4.384, -36.832, 158.373, -15.880, -8.260, -29.047, 26.67, 0.1879, 0.3045, -0.09525, 0.92886,
 13:48:17.931,ed:35:33:d3:6c:f8, 2015-01-01 01:34:09.100, 0.596, -0.061, 0.794, -0.061, 0.61, 0.122, -4.384, -36.821, 158.362, -15.880, -8.260, -29.047, 26.67, 0.1879, 0.3045, -0.09525, 0.92886,
 13:48:17.931,e3:ca:2d:fd:e0:8c, 2015-01-01 01:34:09.805, 0.876, -0.023, 0.522, 0, 0, 0, -2.565, -59.227, -176.429, -24.633, -9.040, -14.673, 28.21, -0.01569, 0.49451, -0.00433, 0.86896,
 13:48:17.931,e3:ca:2d:fd:e0:8c, 2015-01-01 01:34:09.805, 0.874, -0.022, 0.523, 0, 0, 0, -2.565, -59.227, -176.429, -24.633, -9.040, -14.673, 28.21, -0.01569, 0.49451, -0.00433, 0.86896,
 13:48:17.933,f6:90:cc:01:6d:25, 2015-01-01 01:34:08.320, 0.908, 0.135, 0.362, 0.122, -0.061, 0, 20.001, -66.758, -170.431, -27.947, -13.467, -5.520, 30.7, -0.16367, 0.52783, 0.18958, 0.81149,
 13:48:17.933,f6:90:cc:01:6d:25, 2015-01-01 01:34:08.320, 0.907, 0.134, 0.366, 0.061, 0, 0, 20.001, -66.764, -170.425, -27.947, -13.467, -5.520, 30.7, -0.16367, 0.52783, 0.18958, 0.81149,
 13:48:17.952,ed:40:fe:65:30:6c, 2015-01-01 01:34:08.920, 0.702, 0.116, 0.706, -0.183, 0.244, 0, 9.305, -44.484, -133.308, -21.633, -12.380, -2.060, 26.32, 0.39398, -0.31732, -0.21912, -0.83423,
 13:48:17.952,ed:40:fe:65:30:6c, 2015-01-01 01:34:08.920, 0.701, 0.114, 0.706, -0.305, 0.244, 0, 9.294, -44.484, -133.314, -21.633, -12.380, -2.060, 26.32, 0.39398, -0.31732, -0.21912, -0.83423,
 13:48:17.954,ed:35:33:d3:6c:f8, 2015-01-01 01:34:09.100, 0.596, -0.061, 0.794, -0.061, 0.366, 0, -4.389, -36.815, 158.346, -15.880, -8.260, -29.047, 26.67, 0.18988, 0.30313, -0.09491, 0.92896,
 13:48:17.954,ed:35:33:d3:6c:f8, 2015-01-01 01:34:09.100, 0.594, -0.062, 0.792, -0.305, 0.488, 0, -4.395, -36.804, 158.329, -15.880, -8.260, -29.047, 26.67, 0.18988, 0.30313, -0.09491, 0.92896,
 13:48:17.974,ed:40:fe:65:30:6c, 2015-01-01 01:34:08.920, 0.699, 0.113, 0.705, -0.671, 0.427, 0, 9.283, -44.473, -133.314, -21.633, -12.380, -2.060, 26.32, 0.39368, -0.31665, -0.21832, -0.83487,
 13:48:17.974,ed:40:fe:65:30:6c, 2015-01-01 01:34:08.920, 0.698, 0.116, 0.706, -0.549, 0.488, 0, 9.267, -44.462, -133.314, -21.633, -12.380, -2.060, 26.32, 0.39368, -0.31665, -0.21832, -0.83487,
 13:48:17.977,f6:90:cc:01:6d:25, 2015-01-01 01:34:08.320, 0.906, 0.133, 0.367, -0.061, -0.122, 0, 20.006, -66.764, -170.425, -27.947, -13.467, -5.520, 30.7, -0.16367, 0.52783, 0.18958, 0.81149,
 13:48:17.977,f6:90:cc:01:6d:25, 2015-01-01 01:34:08.320, 0.905, 0.133, 0.364, -0.244, -0.183, 0, 20.006, -66.769, -170.42, -27.947, -13.467, -5.520, 30.7, -0.16367, 0.52783, 0.18958, 0.81149,
 13:48:17.996,e3:ca:2d:fd:e0:8c, 2015-01-01 01:34:09.805, 0.874, -0.023, 0.521, 0, 0, 0, -2.565, -59.227, -176.429, -24.633, -9.040, -14.673, 28.21, -0.01596, 0.49438, -0.00409, 0.86902,
 13:48:17.996,e3:ca:2d:fd:e0:8c, 2015-01-01 01:34:09.805, 0.872, -0.022, 0.522, 0.061, 0.061, 0, -2.565, -59.227, -176.424, -24.633, -9.040, -14.673, 28.21, -0.01596, 0.49438, -0.00409, 0.86902,
 13:48:17.999,ed:35:33:d3:6c:f8, 2015-01-01 01:34:09.100, 0.595, -0.06, 0.792, -0.427, 0.854, 0, -4.4, -36.793, 158.313, -15.880, -8.260, -29.047, 26.67, 0.18988, 0.30313, -0.09491, 0.92896,
 13:48:17.999,ed:35:33:d3:6c:f8, 2015-01-01 01:34:09.100, 0.599, -0.058, 0.796, -0.305, 1.465, -0.305, -4.4, -36.766, 158.329, -15.880, -8.260, -29.047, 26.67, 0.18988, 0.30313, -0.09491, 0.92896,
 13:48:18.018,e3:ca:2d:fd:e0:8c, 2015-01-01 01:34:10.165, 0.874, -0.022, 0.522, -0.061, 0.122, 0, -2.565, -59.222, -176.424, -24.633, -9.040, -14.673, 28.21, -0.01596, 0.49438, -0.00409, 0.86902,
 13:48:18.018,e3:ca:2d:fd:e0:8c, 2015-01-01 01:34:10.165, 0.875, -0.022, 0.523, -0.244, 0, 0, -2.565, -59.222, -176.424, -24.633, -9.040, -14.673, 28.21, -0.01596, 0.49438, -0.00409, 0.86902,
 13:48:18.020,ed:40:fe:65:30:6c, 2015-01-01 01:34:08.920, 0.702, 0.117, 0.707, -0.549, 0.549, 0, 9.256, -44.451, -133.319, -21.633, -12.380, -2.060, 26.32, 0.39368, -0.31665, -0.21832, -0.83487,
 13:48:18.020,ed:40:fe:65:30:6c, 2015-01-01 01:34:08.920, 0.703, 0.114, 0.708, -0.488, 0.61, 0, 9.245, -44.44, -133.319, -21.633, -12.380, -2.060, 26.32, 0.39368, -0.31665, -0.21832, -0.83487,
 13:48:18.022,f6:90:cc:01:6d:25, 2015-01-01 01:34:08.320, 0.908, 0.135, 0.364, -0.244, -0.305, 0, 20.006, -66.775, -170.425, -27.947, -13.467, -5.520, 30.78, -0.16367, 0.52783, 0.18958, 0.81149,
 13:48:18.022,f6:90:cc:01:6d:25, 2015-01-01 01:34:08.320, 0.911, 0.135, 0.368, -0.061, -0.305, 0, 20.012, -66.78, -170.425, -27.947, -13.467, -5.520, 30.78, -0.16367, 0.52783, 0.18958, 0.81149,
 13:48:18.042,e3:ca:2d:fd:e0:8c, 2015-01-01 01:34:10.165, 0.875, -0.022, 0.523, 0, -0.061, 0, -2.565, -59.222, -176.424, -24.633, -9.040, -14.673, 28.21, -0.01596, 0.49438, -0.00409, 0.86902,
 13:48:18.042,e3:ca:2d:fd:e0:8c, 2015-01-01 01:34:10.165, 0.876, -0.022, 0.523, 0, -0.244, 0, -2.565, -59.222, -176.418, -24.633, -9.040, -14.673, 28.21, -0.01596, 0.49438, -0.00409, 0.86902,
 13:48:18.043,ed:35:33:d3:6c:f8, 2015-01-01 01:34:09.460, 0.599, -0.06, 0.798, -0.061, 1.221, -0.427, -4.395, -36.744, 158.346, -15.880, -8.260, -29.047, 26.67, 0.18988, 0.30313, -0.09491, 0.92896,
 13:48:18.043,ed:35:33:d3:6c:f8, 2015-01-01 01:34:09.460, 0.596, -0.061, 0.8, -0.305, 1.099, -0.366, -4.395, -36.722, 158.362, -15.880, -8.260, -29.047, 26.67, 0.18988, 0.30313, -0.09491, 0.92896,
 13:48:18.065,ed:40:fe:65:30:6c, 2015-01-01 01:34:09.255, 0.699, 0.113, 0.711, -0.549, 0.793, 0, 9.229, -44.423, -133.319, -21.633, -12.380, -2.060, 26.32, 0.39368, -0.31665, -0.21832, -0.83487,
 13:48:18.065,ed:40:fe:65:30:6c, 2015-01-01 01:34:09.255, 0.697, 0.114, 0.713, -0.854, 0.732, 0, 9.212, -44.412, -133.319, -21.633, -12.380, -2.060, 26.32, 0.39368, -0.31665, -0.21832, -0.83487,
 13:48:18.065,ed:35:33:d3:6c:f8, 2015-01-01 01:34:09.460, 0.595, -0.06, 0.803, -0.977, 1.648, 0, -4.411, -36.689, 158.373, -15.880, -8.260, -29.047, 26.67, 0.18988, 0.30313, -0.09491, 0.92896,
 13:48:18.066,ed:35:33:d3:6c:f8, 2015-01-01 01:34:09.460, 0.598, -0.058, 0.8, -1.648, 2.502, 0.366, -4.444, -36.639, 158.395, -15.880, -8.260, -29.047, 26.67, 0.18988, 0.30313, -0.09491, 0.92896,
 13:48:18.068,f6:90:cc:01:6d:25, 2015-01-01 01:34:08.720, 0.908, 0.134, 0.365, 0.122, -0.366, 0, 20.023, -66.786, -170.425, -27.947, -13.467, -5.520, 30.78, -0.16367, 0.52783, 0.18958, 0.81149,
 13:48:18.068,f6:90:cc:01:6d:25, 2015-01-01 01:34:08.720, 0.907, 0.132, 0.364, 0.366, -0.244, 0, 20.034, -66.791, -170.425, -27.947, -13.467, -5.520, 30.78, -0.16367, 0.52783, 0.18958, 0.81149,
 13:48:18.086,e3:ca:2d:fd:e0:8c, 2015-01-01 01:34:10.165, 0.875, -0.024, 0.522, 0.061, -0.183, 0, -2.565, -59.222, -176.418, -24.633, -9.040, -14.673, 28.21, -0.01596, 0.49438, -0.00409, 0.86902,
 13:48:18.086,e3:ca:2d:fd:e0:8c, 2015-01-01 01:34:10.165, 0.874, -0.024, 0.522, 0, -0.183, 0, -2.565, -59.227, -176.418, -24.633, -9.040, -14.673, 28.21, -0.01596, 0.49438, -0.00409, 0.86902,
 13:48:18.089,f6:90:cc:01:6d:25, 2015-01-01 01:34:08.720, 0.907, 0.132, 0.367, 0.305, -0.549, 0, 20.05, -66.802, -170.431, -27.947, -13.467, -5.520, 30.78, -0.16367, 0.52783, 0.18958, 0.81149,
 13:48:18.089,f6:90:cc:01:6d:25, 2015-01-01 01:34:08.720, 0.907, 0.134, 0.365, 0, -0.732, 0, 20.061, -66.813, -170.436, -27.947, -13.467, -5.520, 30.78, -0.16367, 0.52783, 0.18958, 0.81149,
 13:48:18.110,ed:40:fe:65:30:6c, 2015-01-01 01:34:09.255, 0.699, 0.115, 0.709, -0.916, 0.793, 0, 9.19, -44.396, -133.319, -21.633, -12.380, -2.060, 26.32, 0.39368, -0.31665, -0.21832, -0.83487,
 13:48:18.110,ed:40:fe:65:30:6c, 2015-01-01 01:34:09.255, 0.7, 0.116, 0.705, -1.221, 0.977, 0.366, 9.157, -44.374, -133.297, -21.633, -12.380, -2.060, 26.32, 0.39368, -0.31665, -0.21832, -0.83487,
 13:48:18.111,ed:35:33:d3:6c:f8, 2015-01-01 01:34:09.460, 0.594, -0.057, 0.796, -2.869, 3.967, 1.343, -4.515, -36.562, 158.439, -15.880, -8.260, -29.047, 26.67, 0.18988, 0.30313, -0.09491, 0.92896,
 13:48:18.111,ed:35:33:d3:6c:f8, 2015-01-01 01:34:09.460, 0.587, -0.061, 0.793, -3.845, 4.15, 2.38, -4.62, -36.48, 158.505, -15.880, -8.260, -29.047, 26.67, 0.18988, 0.30313, -0.09491, 0.92896,
 13:48:18.131,ed:40:fe:65:30:6c, 2015-01-01 01:34:09.255, 0.702, 0.113, 0.703, -1.282, 1.099, 0.427, 9.119, -44.352, -133.27, -21.633, -12.380, -2.060, 26.32, 0.39368, -0.31665, -0.21832, -0.83487,
 13:48:18.131,ed:40:fe:65:30:6c, 2015-01-01 01:34:09.255, 0.705, 0.107, 0.702, -1.16, 1.038, 0.244, 9.086, -44.335, -133.248, -21.633, -12.380, -2.060, 26.32, 0.39368, -0.31665, -0.21832, -0.83487,
 13:48:18.131,e3:ca:2d:fd:e0:8c, 2015-01-01 01:34:10.165, 0.873, -0.022, 0.522, -0.061, -0.366, 0, -2.565, -59.233, -176.418, -24.633, -9.040, -14.673, 28.21, -0.01596, 0.49438, -0.00409, 0.86902,
 13:48:18.131,e3:ca:2d:fd:e0:8c, 2015-01-01 01:34:10.165, 0.875, -0.021, 0.523, -0.061, -0.488, 0, -2.565, -59.238, -176.413, -24.633, -9.040, -14.673, 28.21, -0.01596, 0.49438, -0.00409, 0.86902,
 13:48:18.134,f6:90:cc:01:6d:25, 2015-01-01 01:34:08.720, 0.906, 0.135, 0.361, -0.183, -0.671, 0, 20.072, -66.824, -170.447, -27.947, -13.467, -5.520, 30.78, -0.16367, 0.52783, 0.18958, 0.81149,
 13:48:18.134,f6:90:cc:01:6d:25, 2015-01-01 01:34:08.720, 0.909, 0.136, 0.361, -0.122, -0.671, 0, 20.078, -66.835, -170.453, -27.947, -13.467, -5.520, 30.78, -0.16367, 0.52783, 0.18958, 0.81149,
 13:48:18.156,ed:35:33:d3:6c:f8, 2015-01-01 01:34:09.460, 0.593, -0.069, 0.797, -4.395, 0.732, 3.906, -4.757, -36.458, 158.621, -15.880, -8.260, -29.047, 26.67, 0.18988, 0.30313, -0.09491, 0.92896,
 13:48:18.156,ed:35:33:d3:6c:f8, 2015-01-01 01:34:09.460, 0.597, -0.076, 0.789, -4.211, -1.404, 4.7, -4.911, -36.48, 158.758, -15.880, -8.260, -29.047, 26.67, 0.18988, 0.30313, -0.09491, 0.92896,
 13:48:18.177,ed:40:fe:65:30:6c, 2015-01-01 01:34:09.255, 0.71, 0.104, 0.698, -0.366, 0.671, 0.061, 9.075, -44.324, -133.231, -21.633, -12.380, -2.060, 26.32, 0.39368, -0.31665, -0.21832, -0.83487,
 13:48:18.177,ed:40:fe:65:30:6c, 2015-01-01 01:34:09.255, 0.708, 0.105, 0.698, 0.183, 0.244, 0.122, 9.075, -44.324, -133.226, -21.633, -12.380, -2.060, 26.32, 0.39368, -0.31665, -0.21832, -0.83487,
 13:48:18.179,f6:90:cc:01:6d:25, 2015-01-01 01:34:08.720, 0.914, 0.135, 0.359, -0.061, -0.488, 0, 20.089, -66.846, -170.458, -27.947, -13.467, -5.520, 30.78, -0.16367, 0.52783, 0.18958, 0.81149,
 13:48:18.179,f6:90:cc:01:6d:25, 2015-01-01 01:34:08.720, 0.913, 0.131, 0.356, -0.122, 0, 0, 20.089, -66.852, -170.453, -27.947, -13.467, -5.520, 30.78, -0.16367, 0.52783, 0.18958, 0.81149,
 13:48:18.199,e3:ca:2d:fd:e0:8c, 2015-01-01 01:34:10.165, 0.876, -0.022, 0.525, -0.122, -0.183, 0, -2.565, -59.244, -176.413, -24.633, -9.040, -14.673, 28.21, -0.01596, 0.49438, -0.00409, 0.86902,
 13:48:18.199,e3:ca:2d:fd:e0:8c, 2015-01-01 01:34:10.165, 0.876, -0.023, 0.523, -0.061, 0, 0, -2.565, -59.244, -176.413, -24.633, -9.040, -14.673, 28.21, -0.01596, 0.49438, -0.00409, 0.86902,
 13:48:18.221,e3:ca:2d:fd:e0:8c, 2015-01-01 01:34:10.165, 0.877, -0.025, 0.521, -0.183, 0.122, 0, -2.571, -59.238, -176.407, -24.627, -9.740, -14.393, 28.21, -0.01596, 0.49438, -0.00409, 0.86902,
 13:48:18.221,e3:ca:2d:fd:e0:8c, 2015-01-01 01:34:10.165, 0.878, -0.025, 0.519, -0.305, 0.122, -0.427, -2.565, -59.238, -176.418, -24.627, -9.740, -14.393, 28.21, -0.01596, 0.49438, -0.00409, 0.86902,
 13:48:18.223,ed:35:33:d3:6c:f8, 2015-01-01 01:34:09.460, 0.594, -0.078, 0.781, -2.686, 0.061, 3.601, -5.015, -36.48, 158.857, -15.880, -8.260, -29.047, 26.67, 0.18988, 0.30313, -0.09491, 0.92896,
 13:48:18.223,ed:35:33:d3:6c:f8, 2015-01-01 01:34:09.460, 0.592, -0.079, 0.783, -1.16, 2.869, 2.319, -5.065, -36.42, 158.912, -15.880, -8.260, -29.047, 26.67, 0.18988, 0.30313, -0.09491, 0.92896,
 13:48:18.224,f6:90:cc:01:6d:25, 2015-01-01 01:34:08.720, 0.911, 0.13, 0.355, -0.366, 0.366, 0, 20.083, -66.846, -170.447, -27.947, -13.467, -5.520, 30.78, -0.16367, 0.52783, 0.18958, 0.81149,
 13:48:18.224,f6:90:cc:01:6d:25, 2015-01-01 01:34:08.720, 0.912, 0.131, 0.359, -0.122, 0.916, -0.366, 20.083, -66.835, -170.442, -27.947, -13.467, -5.520, 30.78, -0.16367, 0.52783, 0.18958, 0.81149,
 13:48:18.244,ed:40:fe:65:30:6c, 2015-01-01 01:34:09.255, 0.703, 0.104, 0.698, 0.549, -0.732, 0.122, 9.086, -44.341, -133.231, -21.633, -12.380, -2.060, 26.32, 0.39368, -0.31665, -0.21832, -0.83487,
 13:48:18.244,ed:40:fe:65:30:6c, 2015-01-01 01:34:09.255, 0.703, 0.102, 0.704, 0.61, -0.427, -0.183, 9.097, -44.352, -133.226, -21.633, -12.380, -2.060, 26.32, 0.39368, -0.31665, -0.21832, -0.83487,
 13:48:18.245,ed:35:33:d3:6c:f8, 2015-01-01 01:34:09.460, 0.589, -0.083, 0.791, -0.732, 4.272, 2.014, -5.103, -36.337, 158.967, -16.140, -8.053, -29.033, 26.67, 0.18988, 0.30313, -0.09491, 0.92896,
 13:48:18.245,ed:35:33:d3:6c:f8, 2015-01-01 01:34:09.460, 0.586, -0.075, 0.796, 0, 3.235, 1.77, -5.131, -36.277, 159.011, -16.140, -8.053, -29.033, 26.67, 0.18988, 0.30313, -0.09491, 0.92896,
 13:48:18.247,f6:90:cc:01:6d:25, 2015-01-01 01:34:08.720, 0.911, 0.135, 0.359, 0.244, 1.038, -0.488, 20.094, -66.813, -170.442, -28.287, -13.747, -5.447, 30.78, -0.16367, 0.52783, 0.18958, 0.81149,
 13:48:18.247,f6:90:cc:01:6d:25, 2015-01-01 01:34:08.720, 0.908, 0.135, 0.358, 0.427, 0.916, -0.366, 20.105, -66.797, -170.442, -28.287, -13.747, -5.447, 30.78, -0.16367, 0.52783, 0.18958, 0.81149,
 13:48:18.266,e3:ca:2d:fd:e0:8c, 2015-01-01 01:34:10.165, 0.88, -0.023, 0.519, -0.305, 0.122, -0.488, -2.554, -59.233, -176.435, -24.627, -9.740, -14.393, 28.21, -0.01596, 0.49438, -0.00409, 0.86902,
 13:48:18.266,e3:ca:2d:fd:e0:8c, 2015-01-01 01:34:10.165, 0.879, -0.022, 0.518, 0, 0.305, -0.366, -2.543, -59.227, -176.451, -24.627, -9.740, -14.393, 28.21, -0.01596, 0.49438, -0.00409, 0.86902,
 13:48:18.267,ed:40:fe:65:30:6c, 2015-01-01 01:34:09.255, 0.702, 0.111, 0.705, 0.671, 0, -0.244, 9.113, -44.357, -133.226, -21.747, -11.760, -2.880, 26.32, 0.39368, -0.31665, -0.21832, -0.83487,
 13:48:18.267,ed:40:fe:65:30:6c, 2015-01-01 01:34:09.255, 0.698, 0.119, 0.706, 1.099, 0.183, -0.244, 9.135, -44.357, -133.231, -21.747, -11.760, -2.880, 26.32, 0.39368, -0.31665, -0.21832, -0.83487,
 13:48:18.288,e3:ca:2d:fd:e0:8c, 2015-01-01 01:34:10.165, 0.877, -0.022, 0.517, 0.183, 0.366, -0.183, -2.532, -59.222, -176.462, -24.627, -9.740, -14.393, 28.21, -0.01587, 0.49435, -0.004, 0.86905,
 13:48:18.288,e3:ca:2d:fd:e0:8c, 2015-01-01 01:34:10.165, 0.877, -0.022, 0.518, 0.122, 0.427, -0.183, -2.527, -59.216, -176.468, -24.627, -9.740, -14.393, 28.21, -0.01587, 0.49435, -0.004, 0.86905,
 13:48:18.291,ed:35:33:d3:6c:f8, 2015-01-01 01:34:09.460, 0.583, -0.07, 0.799, 1.16, 1.892, 1.221, -5.12, -36.238, 159.049, -16.140, -8.053, -29.033, 26.67, 0.18988, 0.30313, -0.09491, 0.92896,
 13:48:18.291,ed:35:33:d3:6c:f8, 2015-01-01 01:34:09.460, 0.587, -0.064, 0.805, 1.343, 1.953, 0.305, -5.098, -36.205, 159.071, -16.140, -8.053, -29.033, 26.67, 0.18988, 0.30313, -0.09491, 0.92896,
 13:48:18.293,f6:90:cc:01:6d:25, 2015-01-01 01:34:08.720, 0.909, 0.135, 0.363, 0.366, 0.61, -0.183, 20.116, -66.791, -170.436, -28.287, -13.747, -5.447, 30.78, -0.16367, 0.52783, 0.18958, 0.81149,
 13:48:18.293,f6:90:cc:01:6d:25, 2015-01-01 01:34:08.720, 0.91, 0.136, 0.367, 0.183, 0.305, 0, 20.116, -66.786, -170.425, -28.287, -13.747, -5.447, 30.78, -0.16367, 0.52783, 0.18958, 0.81149,
 13:48:18.314,ed:40:fe:65:30:6c, 2015-01-01 01:34:09.255, 0.701, 0.121, 0.711, 0.732, 0, -0.244, 9.152, -44.357, -133.237, -21.747, -11.760, -2.880, 26.32, 0.39368, -0.31665, -0.21832, -0.83487,
 13:48:18.314,ed:40:fe:65:30:6c, 2015-01-01 01:34:09.255, 0.703, 0.118, 0.712, 0.732, -0.549, 0.122, 9.168, -44.368, -133.22, -21.747, -11.760, -2.880, 26.32, 0.39368, -0.31665, -0.21832, -0.83487,
 13:48:18.314,ed:35:33:d3:6c:f8, 2015-01-01 01:34:09.460, 0.587, -0.063, 0.809, 1.221, 1.709, 0.366, -5.076, -36.172, 159.104, -16.140, -8.053, -29.033, 26.67, 0.18582, 0.29749, -0.09778, 0.9313,
 13:48:18.314,ed:35:33:d3:6c:f8, 2015-01-01 01:34:09.460, 0.583, -0.066, 0.805, 1.099, 0.488, 0.854, -5.059, -36.161, 159.131, -16.140, -8.053, -29.033, 26.67, 0.18582, 0.29749, -0.09778, 0.9313,
 13:48:18.334,e3:ca:2d:fd:e0:8c, 2015-01-01 01:34:10.165, 0.875, -0.021, 0.518, 0, 0.305, -0.183, -2.516, -59.211, -176.473, -24.627, -9.740, -14.393, 28.21, -0.01587, 0.49435, -0.004, 0.86905,
 13:48:18.334,e3:ca:2d:fd:e0:8c, 2015-01-01 01:34:10.165, 0.874, -0.022, 0.521, 0, 0.183, -0.061, -2.516, -59.211, -176.479, -24.627, -9.740, -14.393, 28.21, -0.01587, 0.49435, -0.004, 0.86905,
 13:48:18.337,f6:90:cc:01:6d:25, 2015-01-01 01:34:08.720, 0.907, 0.137, 0.361, 0.366, 0, 0.061, 20.127, -66.791, -170.42, -28.287, -13.747, -5.447, 30.78, -0.16434, 0.52786, 0.19049, 0.81113,
 13:48:18.337,f6:90:cc:01:6d:25, 2015-01-01 01:34:08.720, 0.906, 0.137, 0.362, 0.671, -0.183, 0.122, 20.143, -66.797, -170.414, -28.287, -13.747, -5.447, 30.78, -0.16434, 0.52786, 0.19049, 0.81113,
 13:48:18.358,ed:40:fe:65:30:6c, 2015-01-01 01:34:09.255, 0.696, 0.117, 0.709, 0.916, -1.038, 0.549, 9.179, -44.396, -133.193, -21.747, -11.760, -2.880, 26.32, 0.39413, -0.3161, -0.21738, -0.83508,
 13:48:18.358,ed:40:fe:65:30:6c, 2015-01-01 01:34:09.255, 0.697, 0.116, 0.709, 1.16, -0.793, 0.427, 9.196, -44.412, -133.176, -21.747, -11.760, -2.880, 26.32, 0.39413, -0.3161, -0.21738, -0.83508,
 13:48:18.359,ed:35:33:d3:6c:f8, 2015-01-01 01:34:09.460, 0.582, -0.071, 0.803, 1.465, -0.916, 0.427, -5.037, -36.183, 159.164, -16.140, -8.053, -29.033, 26.67, 0.18582, 0.29749, -0.09778, 0.9313,
 13:48:18.359,ed:35:33:d3:6c:f8, 2015-01-01 01:34:09.460, 0.58, -0.071, 0.8, 1.831, -1.099, -0.244, -4.999, -36.205, 159.181, -16.140, -8.053, -29.033, 26.67, 0.18582, 0.29749, -0.09778, 0.9313,
 13:48:18.378,e3:ca:2d:fd:e0:8c, 2015-01-01 01:34:10.500, 0.872, -0.021, 0.526, 0.061, 0.122, 0.061, -2.516, -59.205, -176.473, -24.627, -9.740, -14.393, 28.21, -0.01587, 0.49435, -0.004, 0.86905,
 13:48:18.378,e3:ca:2d:fd:e0:8c, 2015-01-01 01:34:10.500, 0.875, -0.02, 0.528, 0.183, 0.122, 0.122, -2.51, -59.205, -176.468, -24.627, -9.740, -14.393, 28.21, -0.01587, 0.49435, -0.004, 0.86905,
 13:48:18.382,f6:90:cc:01:6d:25, 2015-01-01 01:34:09.035, 0.905, 0.137, 0.367, 0.61, 0, 0.122, 20.154, -66.797, -170.403, -28.287, -13.747, -5.447, 30.78, -0.16434, 0.52786, 0.19049, 0.81113,
 13:48:18.382,f6:90:cc:01:6d:25, 2015-01-01 01:34:09.035, 0.905, 0.139, 0.369, 0.244, 0.061, 0.061, 20.16, -66.797, -170.398, -28.287, -13.747, -5.447, 30.78, -0.16434, 0.52786, 0.19049, 0.81113,
 13:48:18.401,e3:ca:2d:fd:e0:8c, 2015-01-01 01:34:10.500, 0.869, -0.02, 0.527, 0.366, 0.122, 0.244, -2.51, -59.2, -176.462, -24.627, -9.740, -14.393, 28.21, -0.01587, 0.49435, -0.004, 0.86905,
 13:48:18.401,e3:ca:2d:fd:e0:8c, 2015-01-01 01:34:10.500, 0.866, -0.018, 0.527, 0, 0.793, 0.122, -2.51, -59.189, -176.457, -24.627, -9.740, -14.393, 28.21, -0.01587, 0.49435, -0.004, 0.86905,
 13:48:18.402,ed:40:fe:65:30:6c, 2015-01-01 01:34:09.255, 0.696, 0.114, 0.708, 0.977, -0.732, 0.122, 9.212, -44.423, -133.171, -21.747, -11.760, -2.880, 26.32, 0.39413, -0.3161, -0.21738, -0.83508,
 13:48:18.402,ed:40:fe:65:30:6c, 2015-01-01 01:34:09.255, 0.697, 0.116, 0.707, 0.61, -0.732, 0, 9.229, -44.44, -133.165, -21.747, -11.760, -2.880, 26.32, 0.39413, -0.3161, -0.21738, -0.83508,
 13:48:18.404,ed:35:33:d3:6c:f8, 2015-01-01 01:34:09.815, 0.579, -0.069, 0.8, 2.075, -0.549, -0.854, -4.944, -36.216, 159.159, -16.140, -8.053, -29.033, 26.67, 0.18582, 0.29749, -0.09778, 0.9313,
 13:48:18.404,ed:35:33:d3:6c:f8, 2015-01-01 01:34:09.815, 0.582, -0.067, 0.8, 2.93, -1.221, -1.831, -4.861, -36.244, 159.115, -16.140, -8.053, -29.033, 26.67, 0.18582, 0.29749, -0.09778, 0.9313,
 13:48:18.425,ed:40:fe:65:30:6c, 2015-01-01 01:34:09.610, 0.697, 0.116, 0.707, 1.099, -0.916, -0.183, 9.256, -44.456, -133.171, -21.747, -11.760, -2.880, 26.32, 0.39413, -0.3161, -0.21738, -0.83508,
 13:48:18.425,ed:40:fe:65:30:6c, 2015-01-01 01:34:09.610, 0.693, 0.114, 0.707, 1.587, -1.343, -0.305, 9.3, -44.478, -133.182, -21.747, -11.760, -2.880, 26.32, 0.39413, -0.3161, -0.21738, -0.83508,
 13:48:18.426,ed:35:33:d3:6c:f8, 2015-01-01 01:34:09.815, 0.583, -0.066, 0.8, 3.357, -1.343, -1.953, -4.768, -36.271, 159.071, -16.140, -8.053, -29.033, 26.67, 0.18582, 0.29749, -0.09778, 0.9313,
 13:48:18.426,ed:35:33:d3:6c:f8, 2015-01-01 01:34:09.815, 0.58, -0.064, 0.8, 3.479, -1.709, -1.526, -4.68, -36.304, 159.033, -16.140, -8.053, -29.033, 26.67, 0.18582, 0.29749, -0.09778, 0.9313,
 13:48:18.427,f6:90:cc:01:6d:25, 2015-01-01 01:34:09.035, 0.903, 0.139, 0.364, 0.183, 0.183, 0.183, 20.154, -66.797, -170.381, -28.287, -13.747, -5.447, 30.78, -0.16434, 0.52786, 0.19049, 0.81113,
 13:48:18.427,f6:90:cc:01:6d:25, 2015-01-01 01:34:09.035, 0.902, 0.138, 0.366, 0.061, 0.244, 0.244, 20.149, -66.791, -170.359, -28.287, -13.747, -5.447, 30.78, -0.16434, 0.52786, 0.19049, 0.81113,
 13:48:18.446,e3:ca:2d:fd:e0:8c, 2015-01-01 01:34:10.500, 0.869, -0.018, 0.522, -0.183, 0.061, 0, -2.51, -59.178, -176.451, -24.627, -9.740, -14.393, 28.21, -0.01587, 0.49435, -0.004, 0.86905,
 13:48:18.446,e3:ca:2d:fd:e0:8c, 2015-01-01 01:34:10.500, 0.871, -0.02, 0.524, -0.061, 0, 0.061, -2.51, -59.178, -176.451, -24.627, -9.740, -14.393, 28.21, -0.01587, 0.49435, -0.004, 0.86905,
 13:48:18.449,f6:90:cc:01:6d:25, 2015-01-01 01:34:09.035, 0.901, 0.135, 0.369, 0, 0.183, 0.122, 20.143, -66.791, -170.349, -28.287, -13.747, -5.447, 30.78, -0.16434, 0.52786, 0.19049, 0.81113,
 13:48:18.449,f6:90:cc:01:6d:25, 2015-01-01 01:34:09.035, 0.902, 0.133, 0.371, -0.183, 0.122, 0, 20.143, -66.786, -170.343, -28.287, -13.747, -5.447, 30.78, -0.16434, 0.52786, 0.19049, 0.81113,
 13:48:18.471,ed:40:fe:65:30:6c, 2015-01-01 01:34:09.610, 0.693, 0.114, 0.71, 1.953, -0.916, -0.183, 9.344, -44.495, -133.187, -21.747, -11.760, -2.880, 26.32, 0.39413, -0.3161, -0.21738, -0.83508,
 13:48:18.471,ed:40:fe:65:30:6c, 2015-01-01 01:34:09.610, 0.697, 0.118, 0.71, 1.831, -0.977, -0.122, 9.388, -44.511, -133.187, -21.747, -11.760, -2.880, 26.32, 0.39413, -0.3161, -0.21738, -0.83508,
 13:48:18.471,ed:35:33:d3:6c:f8, 2015-01-01 01:34:09.815, 0.582, -0.063, 0.804, 3.174, -2.075, -0.732, -4.614, -36.343, 159.016, -16.140, -8.053, -29.033, 26.67, 0.18582, 0.29749, -0.09778, 0.9313,
 13:48:18.471,ed:35:33:d3:6c:f8, 2015-01-01 01:34:09.815, 0.585, -0.062, 0.806, 2.869, -2.563, -0.183, -4.559, -36.387, 159.033, -16.140, -8.053, -29.033, 26.67, 0.18582, 0.29749, -0.09778, 0.9313,
 13:48:18.490,e3:ca:2d:fd:e0:8c, 2015-01-01 01:34:10.500, 0.871, -0.021, 0.526, 0, 0, 0.244, -2.516, -59.172, -176.44, -24.627, -9.740, -14.393, 28.21, -0.01587, 0.49435, -0.004, 0.86905,
 13:48:18.490,e3:ca:2d:fd:e0:8c, 2015-01-01 01:34:10.500, 0.87, -0.021, 0.526, 0, 0, 0.366, -2.521, -59.172, -176.429, -24.627, -9.740, -14.393, 28.21, -0.01587, 0.49435, -0.004, 0.86905,
 13:48:18.494,f6:90:cc:01:6d:25, 2015-01-01 01:34:09.035, 0.903, 0.135, 0.369, 0.061, -0.061, 0, 20.149, -66.786, -170.338, -28.287, -13.747, -5.447, 30.78, -0.16434, 0.52786, 0.19049, 0.81113,
 13:48:18.494,f6:90:cc:01:6d:25, 2015-01-01 01:34:09.035, 0.905, 0.136, 0.37, 0.366, -0.305, 0.061, 20.16, -66.791, -170.338, -28.287, -13.747, -5.447, 30.78, -0.16434, 0.52786, 0.19049, 0.81113,
 13:48:18.514,ed:40:fe:65:30:6c, 2015-01-01 01:34:09.610, 0.699, 0.12, 0.707, 1.831, -0.916, -0.122, 9.426, -44.522, -133.193, -21.747, -11.760, -2.880, 26.32, 0.39413, -0.3161, -0.21738, -0.83508,
 13:48:18.514,ed:40:fe:65:30:6c, 2015-01-01 01:34:09.610, 0.701, 0.119, 0.706, 1.709, -0.732, -0.244, 9.47, -44.533, -133.193, -21.747, -11.760, -2.880, 26.32, 0.39413, -0.3161, -0.21738, -0.83508,
 13:48:18.515,ed:35:33:d3:6c:f8, 2015-01-01 01:34:09.815, 0.588, -0.06, 0.801, 2.747, -3.235, -0.244, -4.504, -36.447, 159.06, -16.140, -8.053, -29.033, 26.67, 0.18582, 0.29749, -0.09778, 0.9313,
 13:48:18.515,ed:35:33:d3:6c:f8, 2015-01-01 01:34:09.815, 0.592, -0.061, 0.798, 2.747, -3.296, -0.671, -4.444, -36.508, 159.082, -16.140, -8.053, -29.033, 26.67, 0.18582, 0.29749, -0.09778, 0.9313,
 13:48:18.537,ed:40:fe:65:30:6c, 2015-01-01 01:34:09.610, 0.701, 0.119, 0.706, 1.099, -0.549, -0.366, 9.503, -44.544, -133.193, -21.747, -11.760, -2.880, 26.32, 0.39413, -0.3161, -0.21738, -0.83508,
 13:48:18.537,ed:40:fe:65:30:6c, 2015-01-01 01:34:09.610, 0.703, 0.121, 0.707, 0.427, -0.366, -0.305, 9.531, -44.55, -133.187, -21.747, -11.760, -2.880, 26.32, 0.39413, -0.3161, -0.21738, -0.83508,
 13:48:18.558,e3:ca:2d:fd:e0:8c, 2015-01-01 01:34:10.500, 0.87, -0.021, 0.526, 0, -0.122, 0.427, -2.532, -59.172, -176.407, -24.627, -9.740, -14.393, 28.21, -0.01587, 0.49435, -0.004, 0.86905,
 13:48:18.558,e3:ca:2d:fd:e0:8c, 2015-01-01 01:34:10.500, 0.872, -0.021, 0.525, 0.061, -0.244, 0.549, -2.549, -59.172, -176.391, -24.627, -9.740, -14.393, 28.21, -0.01587, 0.49435, -0.004, 0.86905,
 13:48:18.562,f6:90:cc:01:6d:25, 2015-01-01 01:34:09.035, 0.906, 0.137, 0.369, 0.183, -0.427, 0.061, 20.165, -66.797, -170.338, -28.287, -13.747, -5.447, 30.78, -0.16434, 0.52786, 0.19049, 0.81113,
 13:48:18.562,f6:90:cc:01:6d:25, 2015-01-01 01:34:09.035, 0.907, 0.136, 0.367, -0.122, -0.305, 0, 20.171, -66.797, -170.343, -28.287, -13.747, -5.447, 30.78, -0.16434, 0.52786, 0.19049, 0.81113,
 13:48:18.580,e3:ca:2d:fd:e0:8c, 2015-01-01 01:34:10.500, 0.874, -0.022, 0.525, 0, -0.366, 0.427, -2.56, -59.172, -176.369, -24.913, -9.433, -14.367, 28.21, -0.01587, 0.49435, -0.004, 0.86905,
 13:48:18.580,e3:ca:2d:fd:e0:8c, 2015-01-01 01:34:10.500, 0.875, -0.024, 0.525, -0.244, -0.366, 0.244, -2.571, -59.178, -176.358, -24.913, -9.433, -14.367, 28.21, -0.01587, 0.49435, -0.004, 0.86905,
 13:48:18.583,ed:35:33:d3:6c:f8, 2015-01-01 01:34:09.815, 0.593, -0.059, 0.799, 1.892, -1.953, -0.671, -4.4, -36.541, 159.088, -16.140, -8.053, -29.033, 26.67, 0.18582, 0.29749, -0.09778, 0.9313,
 13:48:18.583,ed:35:33:d3:6c:f8, 2015-01-01 01:34:09.815, 0.593, -0.057, 0.8, 1.221, -1.343, -0.488, -4.373, -36.562, 159.093, -16.140, -8.053, -29.033, 26.67, 0.18582, 0.29749, -0.09778, 0.9313,
 13:48:18.584,f6:90:cc:01:6d:25, 2015-01-01 01:34:09.035, 0.907, 0.134, 0.363, -0.366, -0.366, 0.061, 20.171, -66.802, -170.343, -27.760, -13.420, -5.973, 30.78, -0.16434, 0.52786, 0.19049, 0.81113,
 13:48:18.584,f6:90:cc:01:6d:25, 2015-01-01 01:34:09.035, 0.91, 0.133, 0.366, -0.61, -0.549, 0.122, 20.16, -66.813, -170.343, -27.760, -13.420, -5.973, 30.78, -0.16434, 0.52786, 0.19049, 0.81113,
 13:48:18.605,ed:40:fe:65:30:6c, 2015-01-01 01:34:09.610, 0.706, 0.119, 0.703, 0, -0.244, -0.183, 9.542, -44.55, -133.187, -21.747, -11.760, -2.880, 26.32, 0.39413, -0.3161, -0.21738, -0.83508,
 13:48:18.605,ed:40:fe:65:30:6c, 2015-01-01 01:34:09.610, 0.706, 0.115, 0.702, -0.244, -0.183, -0.122, 9.547, -44.55, -133.187, -21.747, -11.760, -2.880, 26.32, 0.39413, -0.3161, -0.21738, -0.83508,
 13:48:18.606,ed:35:33:d3:6c:f8, 2015-01-01 01:34:09.815, 0.595, -0.059, 0.798, 0.671, -1.648, -0.427, -4.356, -36.595, 159.06, -15.327, -8.427, -29.653, 26.67, 0.18582, 0.29749, -0.09778, 0.9313,
 13:48:18.606,ed:35:33:d3:6c:f8, 2015-01-01 01:34:09.815, 0.597, -0.062, 0.794, 0.366, -2.197, -0.488, -4.345, -36.634, 159.027, -15.327, -8.427, -29.653, 26.67, 0.18582, 0.29749, -0.09778, 0.9313,
 13:48:18.626,e3:ca:2d:fd:e0:8c, 2015-01-01 01:34:10.500, 0.875, -0.024, 0.524, -0.366, -0.305, 0.061, -2.576, -59.178, -176.353, -24.913, -9.433, -14.367, 28.21, -0.01587, 0.49435, -0.004, 0.86905,
 13:48:18.626,e3:ca:2d:fd:e0:8c, 2015-01-01 01:34:10.500, 0.875, -0.024, 0.521, -0.061, -0.366, 0.061, -2.582, -59.183, -176.347, -24.913, -9.433, -14.367, 28.21, -0.01587, 0.49435, -0.004, 0.86905,
 13:48:18.627,ed:40:fe:65:30:6c, 2015-01-01 01:34:09.610, 0.704, 0.112, 0.702, -0.305, 0, -0.305, 9.542, -44.55, -133.187, -21.373, -11.953, -2.527, 26.32, 0.39413, -0.3161, -0.21738, -0.83508,
 13:48:18.627,ed:40:fe:65:30:6c, 2015-01-01 01:34:09.610, 0.702, 0.111, 0.701, -0.427, 0, -0.61, 9.542, -44.55, -133.193, -21.373, -11.953, -2.527, 26.32, 0.39413, -0.3161, -0.21738, -0.83508,
 13:48:18.631,f6:90:cc:01:6d:25, 2015-01-01 01:34:09.035, 0.908, 0.134, 0.362, -0.916, -0.488, 0.061, 20.149, -66.819, -170.343, -27.760, -13.420, -5.973, 30.78, -0.16434, 0.52786, 0.19049, 0.81113,
 13:48:18.631,f6:90:cc:01:6d:25, 2015-01-01 01:34:09.035, 0.907, 0.133, 0.359, -0.793, -0.488, 0, 20.138, -66.83, -170.349, -27.760, -13.420, -5.973, 30.78, -0.16434, 0.52786, 0.19049, 0.81113,
 13:48:18.649,e3:ca:2d:fd:e0:8c, 2015-01-01 01:34:10.500, 0.876, -0.024, 0.52, 0.061, -0.427, 0.061, -2.582, -59.189, -176.342, -24.913, -9.433, -14.367, 28.21, -0.01654, 0.49408, -0.00385, 0.8692,
 13:48:18.649,e3:ca:2d:fd:e0:8c, 2015-01-01 01:34:10.500, 0.877, -0.024, 0.521, 0, -0.488, 0, -2.582, -59.2, -176.342, -24.913, -9.433, -14.367, 28.21, -0.01654, 0.49408, -0.00385, 0.8692,
 13:48:18.653,f6:90:cc:01:6d:25, 2015-01-01 01:34:09.035, 0.909, 0.132, 0.358, -0.732, -0.366, -0.061, 20.132, -66.835, -170.354, -27.760, -13.420, -5.973, 30.78, -0.16504, 0.52802, 0.19101, 0.81079,
 13:48:18.653,f6:90:cc:01:6d:25, 2015-01-01 01:34:09.035, 0.912, 0.13, 0.359, -0.732, -0.366, -0.122, 20.127, -66.846, -170.359, -27.760, -13.420, -5.973, 30.78, -0.16504, 0.52802, 0.19101, 0.81079,
 13:48:18.673,ed:40:fe:65:30:6c, 2015-01-01 01:34:09.610, 0.705, 0.114, 0.7, -0.427, 0.061, -0.854, 9.542, -44.544, -133.204, -21.373, -11.953, -2.527, 26.32, 0.39413, -0.3161, -0.21738, -0.83508,
 13:48:18.673,ed:40:fe:65:30:6c, 2015-01-01 01:34:09.610, 0.708, 0.115, 0.7, -0.305, 0.122, -0.732, 9.547, -44.539, -133.226, -21.373, -11.953, -2.527, 26.32, 0.39413, -0.3161, -0.21738, -0.83508,
 13:48:18.674,ed:35:33:d3:6c:f8, 2015-01-01 01:34:09.815, 0.595, -0.067, 0.792, 0.244, -1.282, -0.488, -4.334, -36.656, 159.016, -15.327, -8.427, -29.653, 26.67, 0.18582, 0.29749, -0.09778, 0.9313,
 13:48:18.674,ed:35:33:d3:6c:f8, 2015-01-01 01:34:09.815, 0.594, -0.068, 0.792, 0, -0.793, -0.61, -4.329, -36.672, 159.011, -15.327, -8.427, -29.653, 26.67, 0.18582, 0.29749, -0.09778, 0.9313,
 13:48:18.696,ed:35:33:d3:6c:f8, 2015-01-01 01:34:09.815, 0.597, -0.064, 0.792, 0.366, -1.343, -0.977, -4.312, -36.7, 158.978, -15.327, -8.427, -29.653, 26.67, 0.18448, 0.30261, -0.0925, 0.93045,
 13:48:18.696,ed:35:33:d3:6c:f8, 2015-01-01 01:34:09.815, 0.6, -0.061, 0.79, 0.671, -1.892, -1.343, -4.285, -36.738, 158.939, -15.327, -8.427, -29.653, 26.67, 0.18448, 0.30261, -0.0925, 0.93045,
 13:48:18.696,e3:ca:2d:fd:e0:8c, 2015-01-01 01:34:10.500, 0.878, -0.024, 0.521, -0.244, -0.366, -0.061, -2.587, -59.205, -176.342, -24.913, -9.433, -14.367, 28.21, -0.01654, 0.49408, -0.00385, 0.8692,
 13:48:18.696,e3:ca:2d:fd:e0:8c, 2015-01-01 01:34:10.500, 0.877, -0.026, 0.52, -0.305, -0.183, -0.122, -2.587, -59.211, -176.342, -24.913, -9.433, -14.367, 28.21, -0.01654, 0.49408, -0.00385, 0.8692,
 13:48:18.697,ed:40:fe:65:30:6c, 2015-01-01 01:34:09.610, 0.709, 0.114, 0.702, -0.244, 0.183, -0.427, 9.553, -44.539, -133.242, -21.373, -11.953, -2.527, 26.32, 0.39496, -0.31607, -0.22061, -0.83386,
 13:48:18.697,ed:40:fe:65:30:6c, 2015-01-01 01:34:09.610, 0.708, 0.116, 0.701, -0.488, 0.305, -0.183, 9.547, -44.533, -133.237, -21.373, -11.953, -2.527, 26.32, 0.39496, -0.31607, -0.22061, -0.83386,
 13:48:18.698,f6:90:cc:01:6d:25, 2015-01-01 01:34:09.035, 0.913, 0.128, 0.358, -0.732, -0.366, -0.061, 20.121, -66.852, -170.365, -27.760, -13.420, -5.973, 30.78, -0.16504, 0.52802, 0.19101, 0.81079,
 13:48:18.698,f6:90:cc:01:6d:25, 2015-01-01 01:34:09.035, 0.914, 0.129, 0.359, -0.671, -0.305, -0.061, 20.116, -66.857, -170.376, -27.760, -13.420, -5.973, 30.78, -0.16504, 0.52802, 0.19101, 0.81079,
 13:48:18.739,e3:ca:2d:fd:e0:8c, 2015-01-01 01:34:10.855, 0.878, -0.026, 0.519, -0.183, -0.061, -0.244, -2.587, -59.211, -176.353, -24.913, -9.433, -14.367, 28.21, -0.01654, 0.49408, -0.00385, 0.8692,
 13:48:18.739,e3:ca:2d:fd:e0:8c, 2015-01-01 01:34:10.855, 0.878, -0.024, 0.52, 0, -0.061, -0.244, -2.582, -59.211, -176.358, -24.913, -9.433, -14.367, 28.21, -0.01654, 0.49408, -0.00385, 0.8692,
 13:48:18.740,ed:40:fe:65:30:6c, 2015-01-01 01:34:09.610, 0.711, 0.114, 0.7, -0.427, 0.305, 0, 9.542, -44.528, -133.226, -21.373, -11.953, -2.527, 26.32, 0.39496, -0.31607, -0.22061, -0.83386,
 13:48:18.740,ed:40:fe:65:30:6c, 2015-01-01 01:34:09.610, 0.708, 0.115, 0.698, 0.122, 0.305, 0.122, 9.531, -44.528, -133.215, -21.373, -11.953, -2.527, 26.32, 0.39496, -0.31607, -0.22061, -0.83386,
 13:48:18.741,ed:35:33:d3:6c:f8, 2015-01-01 01:34:09.815, 0.602, -0.061, 0.79, 0.671, -0.977, -1.16, -4.257, -36.755, 158.895, -15.327, -8.427, -29.653, 26.67, 0.18448, 0.30261, -0.0925, 0.93045,
 13:48:18.741,ed:35:33:d3:6c:f8, 2015-01-01 01:34:09.815, 0.602, -0.059, 0.792, 0.366, -0.488, -0.549, -4.246, -36.766, 158.873, -15.327, -8.427, -29.653, 26.67, 0.18448, 0.30261, -0.0925, 0.93045,
 13:48:18.742,f6:90:cc:01:6d:25, 2015-01-01 01:34:09.370, 0.914, 0.132, 0.359, -0.183, -0.183, -0.122, 20.116, -66.868, -170.381, -27.760, -13.420, -5.973, 30.78, -0.16504, 0.52802, 0.19101, 0.81079,
 13:48:18.742,f6:90:cc:01:6d:25, 2015-01-01 01:34:09.370, 0.913, 0.133, 0.356, 0.183, 0, -0.244, 20.121, -66.868, -170.387, -27.760, -13.420, -5.973, 30.78, -0.16504, 0.52802, 0.19101, 0.81079,
 13:48:18.762,e3:ca:2d:fd:e0:8c, 2015-01-01 01:34:10.855, 0.878, -0.022, 0.522, 0.122, -0.061, -0.122, -2.571, -59.211, -176.364, -24.913, -9.433, -14.367, 28.21, -0.01654, 0.49408, -0.00385, 0.8692,
 13:48:18.762,e3:ca:2d:fd:e0:8c, 2015-01-01 01:34:10.855, 0.877, -0.023, 0.522, 0.183, 0, 0, -2.571, -59.211, -176.364, -24.913, -9.433, -14.367, 28.21, -0.01654, 0.49408, -0.00385, 0.8692,
 13:48:18.764,ed:35:33:d3:6c:f8, 2015-01-01 01:34:10.195, 0.604, -0.061, 0.79, -0.061, -0.305, -0.183, -4.246, -36.777, 158.862, -15.327, -8.427, -29.653, 26.67, 0.18448, 0.30261, -0.0925, 0.93045,
 13:48:18.764,ed:35:33:d3:6c:f8, 2015-01-01 01:34:10.195, 0.603, -0.06, 0.79, 0.061, -0.427, 0.122, -4.252, -36.788, 158.857, -15.327, -8.427, -29.653, 26.67, 0.18448, 0.30261, -0.0925, 0.93045,
 13:48:18.785,ed:40:fe:65:30:6c, 2015-01-01 01:34:09.970, 0.705, 0.115, 0.699, 0.427, 0.427, 0.305, 9.525, -44.522, -133.209, -21.373, -11.953, -2.527, 26.32, 0.39496, -0.31607, -0.22061, -0.83386,
 13:48:18.785,ed:40:fe:65:30:6c, 2015-01-01 01:34:09.970, 0.705, 0.115, 0.7, 0.122, 0.183, 0.244, 9.525, -44.522, -133.198, -21.373, -11.953, -2.527, 26.32, 0.39496, -0.31607, -0.22061, -0.83386,
 13:48:18.787,f6:90:cc:01:6d:25, 2015-01-01 01:34:09.370, 0.909, 0.133, 0.356, 0.549, 0.305, 0, 20.132, -66.868, -170.392, -27.760, -13.420, -5.973, 30.78, -0.16504, 0.52802, 0.19101, 0.81079,
 13:48:18.787,f6:90:cc:01:6d:25, 2015-01-01 01:34:09.370, 0.908, 0.135, 0.359, 0.854, 0.427, 0, 20.143, -66.868, -170.381, -27.760, -13.420, -5.973, 30.78, -0.16504, 0.52802, 0.19101, 0.81079,
 13:48:18.806,e3:ca:2d:fd:e0:8c, 2015-01-01 01:34:10.855, 0.875, -0.023, 0.521, 0.122, 0, 0.061, -2.571, -59.211, -176.364, -24.913, -9.433, -14.367, 28.21, -0.01654, 0.49408, -0.00385, 0.8692,
 13:48:18.806,e3:ca:2d:fd:e0:8c, 2015-01-01 01:34:10.855, 0.873, -0.022, 0.522, 0.061, 0.122, 0, -2.571, -59.211, -176.364, -24.913, -9.433, -14.367, 28.21, -0.01654, 0.49408, -0.00385, 0.8692,
 13:48:18.809,ed:35:33:d3:6c:f8, 2015-01-01 01:34:10.195, 0.6, -0.06, 0.791, -0.122, -0.916, 0.549, -4.263, -36.804, 158.851, -15.327, -8.427, -29.653, 26.67, 0.18448, 0.30261, -0.0925, 0.93045,
 13:48:18.809,ed:35:33:d3:6c:f8, 2015-01-01 01:34:10.195, 0.599, -0.062, 0.79, -0.549, -0.305, 0.732, -4.29, -36.815, 158.873, -15.327, -8.427, -29.653, 26.67, 0.18448, 0.30261, -0.0925, 0.93045,
 13:48:18.829,ed:40:fe:65:30:6c, 2015-01-01 01:34:09.970, 0.704, 0.12, 0.698, 0, 0.061, 0, 9.52, -44.522, -133.193, -21.373, -11.953, -2.527, 26.32, 0.39496, -0.31607, -0.22061, -0.83386,
 13:48:18.829,ed:40:fe:65:30:6c, 2015-01-01 01:34:09.970, 0.704, 0.122, 0.7, 0.183, 0.244, -0.183, 9.52, -44.522, -133.193, -21.373, -11.953, -2.527, 26.32, 0.39496, -0.31607, -0.22061, -0.83386,
 13:48:18.831,ed:35:33:d3:6c:f8, 2015-01-01 01:34:10.195, 0.599, -0.06, 0.788, -0.488, 0, 0.427, -4.307, -36.815, 158.906, -15.327, -8.427, -29.653, 26.67, 0.18448, 0.30261, -0.0925, 0.93045,
 13:48:18.831,ed:35:33:d3:6c:f8, 2015-01-01 01:34:10.195, 0.603, -0.056, 0.788, -0.061, 0.061, -0.061, -4.307, -36.821, 158.928, -15.327, -8.427, -29.653, 26.67, 0.18448, 0.30261, -0.0925, 0.93045,
 13:48:18.833,f6:90:cc:01:6d:25, 2015-01-01 01:34:09.370, 0.908, 0.138, 0.36, 0.854, 0.732, 0, 20.154, -66.863, -170.37, -27.760, -13.420, -5.973, 30.78, -0.16504, 0.52802, 0.19101, 0.81079,
 13:48:18.833,f6:90:cc:01:6d:25, 2015-01-01 01:34:09.370, 0.907, 0.14, 0.361, 0.61, 0.671, 0, 20.16, -66.852, -170.354, -27.760, -13.420, -5.973, 30.78, -0.16504, 0.52802, 0.19101, 0.81079,
 13:48:18.851,e3:ca:2d:fd:e0:8c, 2015-01-01 01:34:10.855, 0.873, -0.021, 0.522, 0.183, 0.305, -0.061, -2.565, -59.205, -176.364, -24.913, -9.433, -14.367, 28.21, -0.01654, 0.49408, -0.00385, 0.8692,
 13:48:18.851,e3:ca:2d:fd:e0:8c, 2015-01-01 01:34:10.855, 0.875, -0.02, 0.522, 0.183, 0.305, -0.061, -2.554, -59.2, -176.364, -24.913, -9.433, -14.367, 28.21, -0.01654, 0.49408, -0.00385, 0.8692,
 13:48:18.855,f6:90:cc:01:6d:25, 2015-01-01 01:34:09.370, 0.909, 0.141, 0.362, 0.244, 0.793, 0, 20.165, -66.841, -170.338, -27.760, -13.420, -5.973, 30.78, -0.16504, 0.52802, 0.19101, 0.81079,
 13:48:18.855,f6:90:cc:01:6d:25, 2015-01-01 01:34:09.370, 0.909, 0.139, 0.365, 0.183, 0.854, 0, 20.16, -66.83, -170.321, -27.760, -13.420, -5.973, 30.78, -0.16504, 0.52802, 0.19101, 0.81079,
 13:48:18.874,ed:40:fe:65:30:6c, 2015-01-01 01:34:09.970, 0.705, 0.123, 0.701, 0.427, 0.488, -0.366, 9.525, -44.522, -133.193, -21.373, -11.953, -2.527, 26.32, 0.39496, -0.31607, -0.22061, -0.83386,
 13:48:18.874,ed:40:fe:65:30:6c, 2015-01-01 01:34:09.970, 0.703, 0.12, 0.706, 0.488, 0.671, -0.305, 9.542, -44.511, -133.198, -21.373, -11.953, -2.527, 26.32, 0.39496, -0.31607, -0.22061, -0.83386,
 13:48:18.876,ed:35:33:d3:6c:f8, 2015-01-01 01:34:10.195, 0.6, -0.054, 0.791, 0.244, 0.366, -0.305, -4.296, -36.815, 158.945, -15.327, -8.427, -29.653, 26.67, 0.18448, 0.30261, -0.0925, 0.93045,
 13:48:18.876,ed:35:33:d3:6c:f8, 2015-01-01 01:34:10.195, 0.598, -0.056, 0.796, 0.305, 0.61, -0.366, -4.285, -36.804, 158.972, -15.327, -8.427, -29.653, 26.67, 0.18448, 0.30261, -0.0925, 0.93045,
 13:48:18.897,ed:40:fe:65:30:6c, 2015-01-01 01:34:09.970, 0.699, 0.12, 0.708, 0.244, 0.671, -0.061, 9.553, -44.5, -133.182, -21.373, -11.953, -2.527, 26.32, 0.39496, -0.31607, -0.22061, -0.83386,
 13:48:18.897,ed:40:fe:65:30:6c, 2015-01-01 01:34:09.970, 0.696, 0.119, 0.707, 0.305, 0.732, -0.122, 9.558, -44.489, -133.165, -21.373, -11.953, -2.527, 26.32, 0.39496, -0.31607, -0.22061, -0.83386,
 13:48:18.899,f6:90:cc:01:6d:25, 2015-01-01 01:34:09.370, 0.907, 0.135, 0.366, 0.183, 0.671, 0, 20.16, -66.819, -170.305, -27.760, -13.420, -5.973, 30.78, -0.16504, 0.52802, 0.19101, 0.81079,
 13:48:18.899,f6:90:cc:01:6d:25, 2015-01-01 01:34:09.370, 0.905, 0.135, 0.367, -0.061, 0.61, 0, 20.154, -66.808, -170.294, -27.760, -13.420, -5.973, 30.78, -0.16504, 0.52802, 0.19101, 0.81079,
 13:48:18.918,e3:ca:2d:fd:e0:8c, 2015-01-01 01:34:10.855, 0.875, -0.018, 0.522, 0.122, 0.122, 0, -2.549, -59.194, -176.364, -24.913, -9.433, -14.367, 28.21, -0.01654, 0.49408, -0.00385, 0.8692,
 13:48:18.918,e3:ca:2d:fd:e0:8c, 2015-01-01 01:34:10.855, 0.874, -0.017, 0.523, 0, 0, 0.061, -2.549, -59.194, -176.364, -24.913, -9.433, -14.367, 28.21, -0.01654, 0.49408, -0.00385, 0.8692,
 13:48:18.921,ed:35:33:d3:6c:f8, 2015-01-01 01:34:10.195, 0.594, -0.057, 0.797, 0.122, 0.977, -0.061, -4.279, -36.788, 159, -15.327, -8.427, -29.653, 26.67, 0.18448, 0.30261, -0.0925, 0.93045,
 13:48:18.921,ed:35:33:d3:6c:f8, 2015-01-01 01:34:10.195, 0.589, -0.06, 0.797, 0.061, 0.916, -0.061, -4.274, -36.777, 159.044, -15.327, -8.427, -29.653, 26.67, 0.18448, 0.30261, -0.0925, 0.93045,
 13:48:18.941,e3:ca:2d:fd:e0:8c, 2015-01-01 01:34:10.855, 0.874, -0.02, 0.524, -0.122, -0.122, 0.061, -2.549, -59.194, -176.358, -24.847, -9.407, -14.860, 28.21, -0.01654, 0.49408, -0.00385, 0.8692,
 13:48:18.941,e3:ca:2d:fd:e0:8c, 2015-01-01 01:34:10.855, 0.872, -0.023, 0.524, -0.122, 0, 0.061, -2.549, -59.194, -176.358, -24.847, -9.407, -14.860, 28.21, -0.01654, 0.49408, -0.00385, 0.8692,
 13:48:18.943,ed:40:fe:65:30:6c, 2015-01-01 01:34:09.970, 0.695, 0.117, 0.708, 0.183, 0.793, -0.366, 9.564, -44.478, -133.154, -21.373, -11.953, -2.527, 26.32, 0.39496, -0.31607, -0.22061, -0.83386,
 13:48:18.943,ed:40:fe:65:30:6c, 2015-01-01 01:34:09.970, 0.695, 0.119, 0.708, 0, 0.732, -0.549, 9.575, -44.462, -133.154, -21.373, -11.953, -2.527, 26.32, 0.39496, -0.31607, -0.22061, -0.83386,
 13:48:18.944,f6:90:cc:01:6d:25, 2015-01-01 01:34:09.370, 0.904, 0.135, 0.367, -0.061, 0.488, 0, 20.149, -66.797, -170.277, -27.840, -13.687, -5.873, 30.78, -0.16504, 0.52802, 0.19101, 0.81079,
 13:48:18.944,f6:90:cc:01:6d:25, 2015-01-01 01:34:09.370, 0.903, 0.135, 0.367, -0.183, 0.366, 0, 20.143, -66.786, -170.266, -27.840, -13.687, -5.873, 30.78, -0.16504, 0.52802, 0.19101, 0.81079,
 13:48:18.965,ed:35:33:d3:6c:f8, 2015-01-01 01:34:10.195, 0.59, -0.061, 0.797, 0.488, 0.916, -0.549, -4.257, -36.76, 159.06, -15.327, -8.427, -29.653, 26.67, 0.18448, 0.30261, -0.0925, 0.93045,
 13:48:18.965,ed:35:33:d3:6c:f8, 2015-01-01 01:34:10.195, 0.591, -0.058, 0.798, 0.793, 0.977, -0.854, -4.224, -36.738, 159.077, -15.327, -8.427, -29.653, 26.67, 0.18448, 0.30261, -0.0925, 0.93045,
 13:48:18.986,e3:ca:2d:fd:e0:8c, 2015-01-01 01:34:10.855, 0.87, -0.024, 0.523, -0.061, 0, 0.061, -2.554, -59.194, -176.353, -24.847, -9.407, -14.860, 28.21, -0.01654, 0.49408, -0.00385, 0.8692,
 13:48:18.986,e3:ca:2d:fd:e0:8c, 2015-01-01 01:34:10.855, 0.872, -0.024, 0.524, 0, -0.122, 0, -2.549, -59.194, -176.353, -24.847, -9.407, -14.860, 28.21, -0.01654, 0.49408, -0.00385, 0.8692,
 13:48:18.989,f6:90:cc:01:6d:25, 2015-01-01 01:34:09.370, 0.904, 0.137, 0.367, -0.244, 0.183, 0, 20.138, -66.78, -170.261, -27.840, -13.687, -5.873, 30.78, -0.16565, 0.52753, 0.19147, 0.81088,
 13:48:18.989,f6:90:cc:01:6d:25, 2015-01-01 01:34:09.370, 0.905, 0.136, 0.367, -0.183, 0, 0, 20.138, -66.78, -170.255, -27.840, -13.687, -5.873, 30.78, -0.16565, 0.52753, 0.19147, 0.81088,
 13:48:19.009,e3:ca:2d:fd:e0:8c, 2015-01-01 01:34:10.855, 0.873, -0.023, 0.524, 0, -0.183, 0.061, -2.549, -59.194, -176.347, -24.847, -9.407, -14.860, 28.21, -0.01663, 0.49414, -0.00363, 0.86914,
 13:48:19.009,e3:ca:2d:fd:e0:8c, 2015-01-01 01:34:10.855, 0.874, -0.023, 0.526, 0, -0.305, -0.061, -2.549, -59.2, -176.347, -24.847, -9.407, -14.860, 28.21, -0.01663, 0.49414, -0.00363, 0.86914,
 13:48:19.009,ed:40:fe:65:30:6c, 2015-01-01 01:34:09.970, 0.695, 0.125, 0.708, -0.183, 0.549, -0.488, 9.58, -44.445, -133.16, -21.700, -11.880, -2.360, 26.32, 0.39496, -0.31607, -0.22061, -0.83386,
 13:48:19.009,ed:40:fe:65:30:6c, 2015-01-01 01:34:09.970, 0.697, 0.119, 0.708, -0.305, 0.366, -0.61, 9.586, -44.434, -133.176, -21.700, -11.880, -2.360, 26.32, 0.39496, -0.31607, -0.22061, -0.83386,
 13:48:19.033,ed:40:fe:65:30:6c, 2015-01-01 01:34:09.970, 0.698, 0.111, 0.709, -0.366, 0.244, -0.61, 9.591, -44.423, -133.182, -21.700, -11.880, -2.360, 26.32, 0.39548, -0.31494, -0.22067, -0.83401,
 13:48:19.033,ed:40:fe:65:30:6c, 2015-01-01 01:34:09.970, 0.699, 0.113, 0.709, -0.366, 0.244, -0.488, 9.591, -44.412, -133.187, -21.700, -11.880, -2.360, 26.32, 0.39548, -0.31494, -0.22067, -0.83401,
 13:48:19.034,ed:35:33:d3:6c:f8, 2015-01-01 01:34:10.195, 0.589, -0.051, 0.799, 0.671, 1.282, -0.977, -4.197, -36.716, 159.093, -16.387, -8.300, -27.993, 26.67, 0.18448, 0.30261, -0.0925, 0.93045,
 13:48:19.034,ed:35:33:d3:6c:f8, 2015-01-01 01:34:10.195, 0.587, -0.056, 0.8, 0, 1.282, -1.038, -4.18, -36.694, 159.109, -16.387, -8.300, -27.993, 26.67, 0.18448, 0.30261, -0.0925, 0.93045,
 13:48:19.035,f6:90:cc:01:6d:25, 2015-01-01 01:34:09.685, 0.907, 0.131, 0.368, -0.244, 0, 0, 20.138, -66.78, -170.255, -27.840, -13.687, -5.873, 30.78, -0.16565, 0.52753, 0.19147, 0.81088,
 13:48:19.035,f6:90:cc:01:6d:25, 2015-01-01 01:34:09.685, 0.907, 0.128, 0.365, -0.366, -0.122, 0, 20.132, -66.78, -170.25, -27.840, -13.687, -5.873, 30.78, -0.16565, 0.52753, 0.19147, 0.81088,
 13:48:19.054,e3:ca:2d:fd:e0:8c, 2015-01-01 01:34:10.855, 0.874, -0.024, 0.525, -0.122, -0.244, -0.061, -2.549, -59.205, -176.353, -24.847, -9.407, -14.860, 28.21, -0.01663, 0.49414, -0.00363, 0.86914,
 13:48:19.054,e3:ca:2d:fd:e0:8c, 2015-01-01 01:34:10.855, 0.874, -0.026, 0.524, -0.244, -0.305, -0.122, -2.549, -59.205, -176.353, -24.847, -9.407, -14.860, 28.21, -0.01663, 0.49414, -0.00363, 0.86914,
 13:48:19.056,ed:35:33:d3:6c:f8, 2015-01-01 01:34:10.195, 0.588, -0.062, 0.799, -0.427, 0.793, -0.671, -4.175, -36.678, 159.12, -16.387, -8.300, -27.993, 26.67, 0.18311, 0.30292, -0.09097, 0.93076,
 13:48:19.056,ed:35:33:d3:6c:f8, 2015-01-01 01:34:10.195, 0.592, -0.061, 0.798, 0, 0.122, -0.488, -4.169, -36.672, 159.126, -16.387, -8.300, -27.993, 26.67, 0.18311, 0.30292, -0.09097, 0.93076,
 13:48:19.058,f6:90:cc:01:6d:25, 2015-01-01 01:34:09.685, 0.907, 0.129, 0.362, -0.305, 0, 0, 20.127, -66.78, -170.25, -27.840, -13.687, -5.873, 30.78, -0.16565, 0.52753, 0.19147, 0.81088,
 13:48:19.058,f6:90:cc:01:6d:25, 2015-01-01 01:34:09.685, 0.908, 0.134, 0.363, 0, -0.183, 0, 20.127, -66.78, -170.25, -27.840, -13.687, -5.873, 30.78, -0.16565, 0.52753, 0.19147, 0.81088,
 13:48:19.102,e3:ca:2d:fd:e0:8c, 2015-01-01 01:34:11.215, 0.875, -0.024, 0.522, -0.183, -0.305, 0, -2.554, -59.211, -176.353, -24.847, -9.407, -14.860, 28.21, -0.01663, 0.49414, -0.00363, 0.86914,
 13:48:19.102,e3:ca:2d:fd:e0:8c, 2015-01-01 01:34:11.215, 0.875, -0.023, 0.522, 0, -0.305, 0, -2.554, -59.216, -176.353, -24.847, -9.407, -14.860, 28.21, -0.01663, 0.49414, -0.00363, 0.86914,
 13:48:19.102,ed:40:fe:65:30:6c, 2015-01-01 01:34:09.970, 0.7, 0.118, 0.708, -0.305, 0.061, -0.305, 9.591, -44.407, -133.187, -21.700, -11.880, -2.360, 26.32, 0.39548, -0.31494, -0.22067, -0.83401,
 13:48:19.102,ed:40:fe:65:30:6c, 2015-01-01 01:34:09.970, 0.701, 0.12, 0.709, -0.305, -0.122, -0.061, 9.586, -44.401, -133.193, -21.700, -11.880, -2.360, 26.32, 0.39548, -0.31494, -0.22067, -0.83401,
 13:48:19.103,ed:35:33:d3:6c:f8, 2015-01-01 01:34:10.195, 0.592, -0.057, 0.799, 0.183, 0, -0.305, -4.164, -36.672, 159.137, -16.387, -8.300, -27.993, 26.67, 0.18311, 0.30292, -0.09097, 0.93076,
 13:48:19.103,ed:35:33:d3:6c:f8, 2015-01-01 01:34:10.195, 0.592, -0.056, 0.8, 0, -0.183, -0.244, -4.158, -36.672, 159.12, -16.387, -8.300, -27.993, 26.67, 0.18311, 0.30292, -0.09097, 0.93076,
 13:48:19.103,f6:90:cc:01:6d:25, 2015-01-01 01:34:09.685, 0.909, 0.136, 0.365, 0.183, -0.366, 0, 20.132, -66.786, -170.25, -27.840, -13.687, -5.873, 30.78, -0.16565, 0.52753, 0.19147, 0.81088,
 13:48:19.103,f6:90:cc:01:6d:25, 2015-01-01 01:34:09.685, 0.91, 0.136, 0.362, 0.183, -0.305, 0, 20.138, -66.797, -170.255, -27.840, -13.687, -5.873, 30.78, -0.16565, 0.52753, 0.19147, 0.81088,
 13:48:19.122,ed:40:fe:65:30:6c, 2015-01-01 01:34:10.305, 0.702, 0.117, 0.705, -0.061, -0.366, -0.061, 9.586, -44.407, -133.187, -21.700, -11.880, -2.360, 26.32, 0.39548, -0.31494, -0.22067, -0.83401,
 13:48:19.122,ed:40:fe:65:30:6c, 2015-01-01 01:34:10.305, 0.704, 0.122, 0.705, 0.122, -0.549, 0, 9.586, -44.412, -133.182, -21.700, -11.880, -2.360, 26.32, 0.39548, -0.31494, -0.22067, -0.83401,
 13:48:19.145,ed:40:fe:65:30:6c, 2015-01-01 01:34:10.305, 0.705, 0.125, 0.705, 0.122, -0.671, 0.183, 9.586, -44.423, -133.182, -21.700, -11.880, -2.360, 26.32, 0.39548, -0.31494, -0.22067, -0.83401,
 13:48:19.145,ed:40:fe:65:30:6c, 2015-01-01 01:34:10.305, 0.705, 0.124, 0.703, 0, -0.549, 0.671, 9.586, -44.44, -133.165, -21.700, -11.880, -2.360, 26.32, 0.39548, -0.31494, -0.22067, -0.83401,
 13:48:19.145,ed:35:33:d3:6c:f8, 2015-01-01 01:34:10.555, 0.596, -0.058, 0.796, 0, -0.854, -0.122, -4.158, -36.689, 159.115, -16.387, -8.300, -27.993, 26.67, 0.18311, 0.30292, -0.09097, 0.93076,
 13:48:19.146,ed:35:33:d3:6c:f8, 2015-01-01 01:34:10.555, 0.598, -0.054, 0.794, 0.366, -0.793, -0.183, -4.147, -36.7, 159.099, -16.387, -8.300, -27.993, 26.67, 0.18311, 0.30292, -0.09097, 0.93076,
 13:48:19.146,e3:ca:2d:fd:e0:8c, 2015-01-01 01:34:11.215, 0.876, -0.023, 0.522, 0.122, -0.305, 0, -2.554, -59.216, -176.353, -24.847, -9.407, -14.860, 28.21, -0.01663, 0.49414, -0.00363, 0.86914,
 13:48:19.146,e3:ca:2d:fd:e0:8c, 2015-01-01 01:34:11.215, 0.877, -0.022, 0.521, 0.122, -0.305, 0, -2.554, -59.222, -176.347, -24.847, -9.407, -14.860, 28.21, -0.01663, 0.49414, -0.00363, 0.86914,
 13:48:19.148,f6:90:cc:01:6d:25, 2015-01-01 01:34:09.685, 0.91, 0.137, 0.362, 0.305, -0.244, 0, 20.149, -66.802, -170.255, -27.840, -13.687, -5.873, 30.78, -0.16565, 0.52753, 0.19147, 0.81088,
 13:48:19.148,f6:90:cc:01:6d:25, 2015-01-01 01:34:09.685, 0.909, 0.137, 0.363, 0.305, -0.061, 0, 20.16, -66.802, -170.255, -27.840, -13.687, -5.873, 30.78, -0.16565, 0.52753, 0.19147, 0.81088,
 13:48:19.166,e3:ca:2d:fd:e0:8c, 2015-01-01 01:34:11.215, 0.877, -0.021, 0.521, 0, -0.305, 0, -2.554, -59.227, -176.347, -24.847, -9.407, -14.860, 28.21, -0.01663, 0.49414, -0.00363, 0.86914,
 13:48:19.166,e3:ca:2d:fd:e0:8c, 2015-01-01 01:34:11.215, 0.876, -0.02, 0.521, 0, -0.183, 0, -2.554, -59.233, -176.347, -24.847, -9.407, -14.860, 28.21, -0.01663, 0.49414, -0.00363, 0.86914,
 13:48:19.168,ed:35:33:d3:6c:f8, 2015-01-01 01:34:10.555, 0.602, -0.047, 0.795, 0.183, -0.793, 0, -4.142, -36.716, 159.088, -16.387, -8.300, -27.993, 26.67, 0.18311, 0.30292, -0.09097, 0.93076,
 13:48:19.168,ed:35:33:d3:6c:f8, 2015-01-01 01:34:10.555, 0.599, -0.049, 0.793, -0.549, -0.916, 0.61, -4.164, -36.733, 159.093, -16.387, -8.300, -27.993, 26.67, 0.18311, 0.30292, -0.09097, 0.93076,
 13:48:19.189,ed:40:fe:65:30:6c, 2015-01-01 01:34:10.305, 0.705, 0.12, 0.7, 0, -0.427, 0.854, 9.569, -44.451, -133.138, -21.700, -11.880, -2.360, 26.32, 0.39548, -0.31494, -0.22067, -0.83401,
 13:48:19.189,ed:40:fe:65:30:6c, 2015-01-01 01:34:10.305, 0.703, 0.114, 0.701, 0.305, -0.488, 0.488, 9.564, -44.462, -133.11, -21.700, -11.880, -2.360, 26.32, 0.39548, -0.31494, -0.22067, -0.83401,
 13:48:19.190,ed:35:33:d3:6c:f8, 2015-01-01 01:34:10.555, 0.599, -0.057, 0.791, -0.916, -1.099, 0.916, -4.191, -36.755, 159.104, -16.387, -8.300, -27.993, 26.67, 0.18311, 0.30292, -0.09097, 0.93076,
 13:48:19.190,ed:35:33:d3:6c:f8, 2015-01-01 01:34:10.555, 0.597, -0.063, 0.79, -0.732, -0.854, 0.793, -4.219, -36.771, 159.126, -16.387, -8.300, -27.993, 26.67, 0.18311, 0.30292, -0.09097, 0.93076,
 13:48:19.192,f6:90:cc:01:6d:25, 2015-01-01 01:34:09.685, 0.908, 0.138, 0.361, 0.183, 0, 0, 20.171, -66.802, -170.255, -27.840, -13.687, -5.873, 30.78, -0.16565, 0.52753, 0.19147, 0.81088,
 13:48:19.192,f6:90:cc:01:6d:25, 2015-01-01 01:34:09.685, 0.907, 0.139, 0.359, 0.244, 0.183, 0, 20.176, -66.802, -170.25, -27.840, -13.687, -5.873, 30.78, -0.16565, 0.52753, 0.19147, 0.81088,
 13:48:19.210,e3:ca:2d:fd:e0:8c, 2015-01-01 01:34:11.215, 0.876, -0.021, 0.521, 0, -0.061, 0, -2.549, -59.233, -176.347, -24.847, -9.407, -14.860, 28.21, -0.01663, 0.49414, -0.00363, 0.86914,
 13:48:19.210,e3:ca:2d:fd:e0:8c, 2015-01-01 01:34:11.215, 0.875, -0.021, 0.521, 0, 0, 0, -2.549, -59.233, -176.347, -24.847, -9.407, -14.860, 28.21, -0.01663, 0.49414, -0.00363, 0.86914,
 13:48:19.214,f6:90:cc:01:6d:25, 2015-01-01 01:34:09.685, 0.905, 0.139, 0.361, 0.305, 0.061, 0, 20.187, -66.802, -170.25, -27.713, -13.633, -5.273, 30.78, -0.16565, 0.52753, 0.19147, 0.81088,
 13:48:19.214,f6:90:cc:01:6d:25, 2015-01-01 01:34:09.685, 0.905, 0.141, 0.363, 0, 0.061, 0, 20.193, -66.802, -170.244, -27.713, -13.633, -5.273, 30.78, -0.16565, 0.52753, 0.19147, 0.81088,
 13:48:19.235,ed:40:fe:65:30:6c, 2015-01-01 01:34:10.305, 0.7, 0.118, 0.703, 0, -0.427, 0.122, 9.564, -44.473, -133.094, -21.700, -11.880, -2.360, 26.32, 0.39548, -0.31494, -0.22067, -0.83401,
 13:48:19.235,ed:40:fe:65:30:6c, 2015-01-01 01:34:10.305, 0.701, 0.121, 0.702, -0.244, -0.427, -0.183, 9.564, -44.478, -133.088, -21.700, -11.880, -2.360, 26.32, 0.39548, -0.31494, -0.22067, -0.83401,
 13:48:19.236,ed:35:33:d3:6c:f8, 2015-01-01 01:34:10.555, 0.596, -0.061, 0.792, -0.427, -0.488, 0.427, -4.23, -36.782, 159.142, -16.387, -8.300, -27.993, 26.67, 0.18311, 0.30292, -0.09097, 0.93076,
 13:48:19.236,ed:35:33:d3:6c:f8, 2015-01-01 01:34:10.555, 0.597, -0.058, 0.793, -0.305, -0.122, -0.061, -4.235, -36.782, 159.142, -16.387, -8.300, -27.993, 26.67, 0.18311, 0.30292, -0.09097, 0.93076,
 13:48:19.260,f6:90:cc:01:6d:25, 2015-01-01 01:34:09.685, 0.906, 0.141, 0.363, -0.427, 0.183, 0, 20.193, -66.802, -170.239, -27.713, -13.633, -5.273, 30.78, -0.16565, 0.52753, 0.19147, 0.81088,
 13:48:19.260,f6:90:cc:01:6d:25, 2015-01-01 01:34:09.685, 0.908, 0.138, 0.363, -0.671, 0.122, 0, 20.187, -66.797, -170.233, -27.713, -13.633, -5.273, 30.78, -0.16565, 0.52753, 0.19147, 0.81088,
 13:48:19.278,e3:ca:2d:fd:e0:8c, 2015-01-01 01:34:11.215, 0.875, -0.021, 0.521, -0.061, 0, 0, -2.549, -59.227, -176.347, -24.847, -9.407, -14.860, 28.21, -0.01663, 0.49414, -0.00363, 0.86914,
 13:48:19.278,e3:ca:2d:fd:e0:8c, 2015-01-01 01:34:11.215, 0.875, -0.021, 0.522, -0.122, -0.122, 0, -2.549, -59.233, -176.347, -24.847, -9.407, -14.860, 28.21, -0.01663, 0.49414, -0.00363, 0.86914,
 13:48:19.279,ed:40:fe:65:30:6c, 2015-01-01 01:34:10.305, 0.701, 0.121, 0.703, -0.427, -0.488, -0.549, 9.569, -44.489, -133.088, -21.700, -11.880, -2.360, 26.32, 0.39548, -0.31494, -0.22067, -0.83401,
 13:48:19.279,ed:40:fe:65:30:6c, 2015-01-01 01:34:10.305, 0.704, 0.121, 0.705, -0.732, -0.427, -0.854, 9.569, -44.495, -133.099, -21.700, -11.880, -2.360, 26.32, 0.39548, -0.31494, -0.22067, -0.83401,
 13:48:19.280,ed:35:33:d3:6c:f8, 2015-01-01 01:34:10.555, 0.597, -0.058, 0.793, -0.183, 0, -0.61, -4.23, -36.788, 159.12, -16.387, -8.300, -27.993, 26.67, 0.18311, 0.30292, -0.09097, 0.93076,
 13:48:19.280,ed:35:33:d3:6c:f8, 2015-01-01 01:34:10.555, 0.596, -0.058, 0.795, -0.183, 0.366, -1.16, -4.213, -36.782, 159.077, -16.387, -8.300, -27.993, 26.67, 0.18311, 0.30292, -0.09097, 0.93076,
 13:48:19.302,e3:ca:2d:fd:e0:8c, 2015-01-01 01:34:11.215, 0.875, -0.02, 0.522, -0.183, -0.061, 0, -2.549, -59.233, -176.342, -24.533, -9.487, -14.100, 28.21, -0.01663, 0.49414, -0.00363, 0.86914,
 13:48:19.302,e3:ca:2d:fd:e0:8c, 2015-01-01 01:34:11.215, 0.873, -0.021, 0.523, -0.305, -0.061, 0, -2.554, -59.233, -176.342, -24.533, -9.487, -14.100, 28.21, -0.01663, 0.49414, -0.00363, 0.86914,
 13:48:19.305,f6:90:cc:01:6d:25, 2015-01-01 01:34:09.685, 0.91, 0.136, 0.365, -0.793, 0.122, 0, 20.182, -66.797, -170.233, -27.713, -13.633, -5.273, 30.78, -0.16608, 0.52753, 0.19193, 0.81067,
 13:48:19.305,f6:90:cc:01:6d:25, 2015-01-01 01:34:09.685, 0.911, 0.133, 0.365, -0.793, 0.122, 0, 20.171, -66.797, -170.228, -27.713, -13.633, -5.273, 30.78, -0.16608, 0.52753, 0.19193, 0.81067,
 13:48:19.324,ed:40:fe:65:30:6c, 2015-01-01 01:34:10.305, 0.706, 0.118, 0.705, -0.793, -0.549, -0.916, 9.575, -44.506, -133.116, -21.700, -11.880, -2.360, 26.32, 0.39548, -0.31494, -0.22067, -0.83401,
 13:48:19.324,ed:40:fe:65:30:6c, 2015-01-01 01:34:10.305, 0.705, 0.114, 0.705, -0.427, -0.61, -0.793, 9.58, -44.511, -133.138, -21.700, -11.880, -2.360, 26.32, 0.39548, -0.31494, -0.22067, -0.83401,
 13:48:19.326,ed:35:33:d3:6c:f8, 2015-01-01 01:34:10.555, 0.597, -0.059, 0.796, -0.183, 0.122, -1.465, -4.197, -36.782, 159.033, -16.387, -8.300, -27.993, 26.67, 0.18311, 0.30292, -0.09097, 0.93076,
 13:48:19.326,ed:35:33:d3:6c:f8, 2015-01-01 01:34:10.555, 0.598, -0.059, 0.793, -0.305, -0.183, -1.16, -4.186, -36.788, 159.011, -16.387, -8.300, -27.993, 26.67, 0.18311, 0.30292, -0.09097, 0.93076,
 13:48:19.346,e3:ca:2d:fd:e0:8c, 2015-01-01 01:34:11.215, 0.874, -0.021, 0.523, -0.366, 0, 0, -2.56, -59.233, -176.342, -24.533, -9.487, -14.100, 28.21, -0.01663, 0.49414, -0.00363, 0.86914,
 13:48:19.346,e3:ca:2d:fd:e0:8c, 2015-01-01 01:34:11.215, 0.875, -0.023, 0.523, -0.305, -0.061, 0, -2.56, -59.233, -176.342, -24.533, -9.487, -14.100, 28.21, -0.01663, 0.49414, -0.00363, 0.86914,
 13:48:19.348,ed:40:fe:65:30:6c, 2015-01-01 01:34:10.305, 0.705, 0.116, 0.704, -0.244, -0.366, -0.488, 9.591, -44.522, -133.154, -21.653, -12.220, -1.720, 26.32, 0.39548, -0.31494, -0.22067, -0.83401,
 13:48:19.348,ed:40:fe:65:30:6c, 2015-01-01 01:34:10.305, 0.704, 0.116, 0.701, -0.061, -0.305, -0.183, 9.591, -44.528, -133.16, -21.653, -12.220, -1.720, 26.32, 0.39548, -0.31494, -0.22067, -0.83401,
 13:48:19.350,f6:90:cc:01:6d:25, 2015-01-01 01:34:09.995, 0.91, 0.131, 0.365, -0.366, 0.305, 0, 20.16, -66.791, -170.222, -27.713, -13.633, -5.273, 30.78, -0.16608, 0.52753, 0.19193, 0.81067,
 13:48:19.350,f6:90:cc:01:6d:25, 2015-01-01 01:34:09.995, 0.908, 0.129, 0.364, 0, 0.366, 0, 20.154, -66.786, -170.211, -27.713, -13.633, -5.273, 30.78, -0.16608, 0.52753, 0.19193, 0.81067,
 13:48:19.368,e3:ca:2d:fd:e0:8c, 2015-01-01 01:34:11.215, 0.875, -0.025, 0.522, -0.061, 0, 0, -2.56, -59.227, -176.342, -24.533, -9.487, -14.100, 28.21, -0.01666, 0.49442, -0.00366, 0.86899,
 13:48:19.368,e3:ca:2d:fd:e0:8c, 2015-01-01 01:34:11.215, 0.874, -0.026, 0.523, 0.122, -0.061, 0, -2.56, -59.227, -176.342, -24.533, -9.487, -14.100, 28.21, -0.01666, 0.49442, -0.00366, 0.86899,
 13:48:19.392,ed:40:fe:65:30:6c, 2015-01-01 01:34:10.305, 0.703, 0.115, 0.701, 0.244, -0.183, 0, 9.597, -44.533, -133.165, -21.653, -12.220, -1.720, 26.32, 0.39548, -0.31494, -0.22067, -0.83401,
 13:48:19.392,ed:40:fe:65:30:6c, 2015-01-01 01:34:10.305, 0.702, 0.113, 0.701, 0.549, -0.122, 0, 9.602, -44.533, -133.165, -21.653, -12.220, -1.720, 26.32, 0.39548, -0.31494, -0.22067, -0.83401,
 13:48:19.394,ed:35:33:d3:6c:f8, 2015-01-01 01:34:10.555, 0.597, -0.058, 0.79, -0.549, -0.122, -0.183, -4.191, -36.793, 159.011, -15.653, -8.473, -28.033, 26.67, 0.18311, 0.30292, -0.09097, 0.93076,
 13:48:19.394,ed:35:33:d3:6c:f8, 2015-01-01 01:34:10.555, 0.596, -0.061, 0.791, -0.244, 0, -0.122, -4.197, -36.799, 159.038, -15.653, -8.473, -28.033, 26.67, 0.18311, 0.30292, -0.09097, 0.93076,
 13:48:19.395,f6:90:cc:01:6d:25, 2015-01-01 01:34:09.995, 0.907, 0.13, 0.365, 0.122, 0.61, 0, 20.149, -66.775, -170.2, -27.713, -13.633, -5.273, 30.78, -0.16608, 0.52753, 0.19193, 0.81067,
 13:48:19.395,f6:90:cc:01:6d:25, 2015-01-01 01:34:09.995, 0.907, 0.132, 0.363, 0.488, 0.61, 0, 20.149, -66.764, -170.189, -27.713, -13.633, -5.273, 30.78, -0.16608, 0.52753, 0.19193, 0.81067,
 13:48:19.413,e3:ca:2d:fd:e0:8c, 2015-01-01 01:34:11.215, 0.874, -0.025, 0.522, 0.244, 0, 0, -2.554, -59.227, -176.342, -24.533, -9.487, -14.100, 28.21, -0.01666, 0.49442, -0.00366, 0.86899,
 13:48:19.413,e3:ca:2d:fd:e0:8c, 2015-01-01 01:34:11.215, 0.875, -0.024, 0.522, 0.183, 0, 0, -2.549, -59.227, -176.342, -24.533, -9.487, -14.100, 28.21, -0.01666, 0.49442, -0.00366, 0.86899,
 13:48:19.415,ed:35:33:d3:6c:f8, 2015-01-01 01:34:10.555, 0.597, -0.062, 0.791, 0.244, 0, -0.183, -4.197, -36.799, 159.06, -15.653, -8.473, -28.033, 26.67, 0.18359, 0.30386, -0.09146, 0.93033,
 13:48:19.415,ed:35:33:d3:6c:f8, 2015-01-01 01:34:10.555, 0.598, -0.059, 0.791, 0.793, -0.183, -0.122, -4.186, -36.804, 159.088, -15.653, -8.473, -28.033, 26.67, 0.18359, 0.30386, -0.09146, 0.93033,
 13:48:19.417,f6:90:cc:01:6d:25, 2015-01-01 01:34:09.995, 0.906, 0.132, 0.362, 0.549, 0.854, 0, 20.149, -66.753, -170.173, -27.713, -13.633, -5.273, 30.78, -0.16608, 0.52753, 0.19193, 0.81067,
 13:48:19.417,f6:90:cc:01:6d:25, 2015-01-01 01:34:09.995, 0.907, 0.134, 0.363, 0.488, 0.671, 0, 20.143, -66.742, -170.156, -27.713, -13.633, -5.273, 30.78, -0.16608, 0.52753, 0.19193, 0.81067,
 13:48:19.458,e3:ca:2d:fd:e0:8c, 2015-01-01 01:34:11.570, 0.876, -0.023, 0.521, 0.061, 0.122, 0, -2.549, -59.222, -176.342, -24.533, -9.487, -14.100, 28.21, -0.01666, 0.49442, -0.00366, 0.86899,
 13:48:19.458,e3:ca:2d:fd:e0:8c, 2015-01-01 01:34:11.570, 0.876, -0.023, 0.52, 0, 0.244, 0, -2.549, -59.216, -176.342, -24.533, -9.487, -14.100, 28.21, -0.01666, 0.49442, -0.00366, 0.86899,
 13:48:19.462,ed:35:33:d3:6c:f8, 2015-01-01 01:34:10.555, 0.599, -0.057, 0.791, 0.488, 0.061, 0.122, -4.175, -36.804, 159.115, -15.653, -8.473, -28.033, 26.67, 0.18359, 0.30386, -0.09146, 0.93033,
 13:48:19.462,ed:35:33:d3:6c:f8, 2015-01-01 01:34:10.555, 0.599, -0.057, 0.793, 0.061, 0.671, 0.244, -4.169, -36.804, 159.159, -15.653, -8.473, -28.033, 26.67, 0.18359, 0.30386, -0.09146, 0.93033,
 13:48:19.464,f6:90:cc:01:6d:25, 2015-01-01 01:34:09.995, 0.907, 0.136, 0.363, 0.244, 0.549, 0, 20.143, -66.731, -170.145, -27.713, -13.633, -5.273, 30.78, -0.16608, 0.52753, 0.19193, 0.81067,
 13:48:19.464,f6:90:cc:01:6d:25, 2015-01-01 01:34:09.995, 0.91, 0.135, 0.365, 0.122, 0.427, 0, 20.138, -66.725, -170.134, -27.713, -13.633, -5.273, 30.78, -0.16608, 0.52753, 0.19193, 0.81067,
 13:48:19.464,ed:40:fe:65:30:6c, 2015-01-01 01:34:10.305, 0.703, 0.116, 0.701, 0.732, -0.122, 0.061, 9.613, -44.539, -133.165, -21.653, -12.220, -1.720, 26.32, 0.39557, -0.3157, -0.22113, -0.83359,
 13:48:19.464,ed:40:fe:65:30:6c, 2015-01-01 01:34:10.305, 0.703, 0.118, 0.702, 0.732, 0, 0.061, 9.624, -44.544, -133.16, -21.653, -12.220, -1.720, 26.32, 0.39557, -0.3157, -0.22113, -0.83359,
 13:48:19.482,ed:40:fe:65:30:6c, 2015-01-01 01:34:10.685, 0.705, 0.12, 0.703, 0.488, 0.061, 0, 9.635, -44.544, -133.149, -21.653, -12.220, -1.720, 26.32, 0.39557, -0.3157, -0.22113, -0.83359,
 13:48:19.482,ed:40:fe:65:30:6c, 2015-01-01 01:34:10.685, 0.704, 0.118, 0.703, 0.366, 0.122, 0, 9.641, -44.544, -133.138, -21.653, -12.220, -1.720, 26.32, 0.39557, -0.3157, -0.22113, -0.83359,
 13:48:19.483,ed:35:33:d3:6c:f8, 2015-01-01 01:34:10.910, 0.598, -0.059, 0.794, 0, 0.671, 0.244, -4.175, -36.793, 159.186, -15.653, -8.473, -28.033, 26.67, 0.18359, 0.30386, -0.09146, 0.93033,
 13:48:19.483,ed:35:33:d3:6c:f8, 2015-01-01 01:34:10.910, 0.597, -0.057, 0.795, -0.061, 0.366, 0.488, -4.175, -36.782, 159.208, -15.653, -8.473, -28.033, 26.67, 0.18359, 0.30386, -0.09146, 0.93033,
 13:48:19.504,e3:ca:2d:fd:e0:8c, 2015-01-01 01:34:11.570, 0.875, -0.023, 0.521, 0, 0.122, 0, -2.549, -59.216, -176.336, -24.533, -9.487, -14.100, 28.21, -0.01666, 0.49442, -0.00366, 0.86899,
 13:48:19.504,e3:ca:2d:fd:e0:8c, 2015-01-01 01:34:11.570, 0.875, -0.022, 0.521, 0.061, 0, 0, -2.549, -59.216, -176.336, -24.533, -9.487, -14.100, 28.21, -0.01666, 0.49442, -0.00366, 0.86899,
 13:48:19.505,ed:40:fe:65:30:6c, 2015-01-01 01:34:10.685, 0.703, 0.119, 0.705, 0.183, 0.244, 0, 9.646, -44.539, -133.132, -21.653, -12.220, -1.720, 26.32, 0.39557, -0.3157, -0.22113, -0.83359,
 13:48:19.505,ed:40:fe:65:30:6c, 2015-01-01 01:34:10.685, 0.703, 0.12, 0.704, 0.122, 0.366, 0.061, 9.646, -44.533, -133.116, -21.653, -12.220, -1.720, 26.32, 0.39557, -0.3157, -0.22113, -0.83359,
 13:48:19.507,f6:90:cc:01:6d:25, 2015-01-01 01:34:09.995, 0.908, 0.135, 0.366, 0.183, 0.366, 0, 20.138, -66.72, -170.129, -27.713, -13.633, -5.273, 30.78, -0.16608, 0.52753, 0.19193, 0.81067,
 13:48:19.507,f6:90:cc:01:6d:25, 2015-01-01 01:34:09.995, 0.907, 0.135, 0.365, 0, 0.183, 0, 20.138, -66.714, -170.123, -27.713, -13.633, -5.273, 30.78, -0.16608, 0.52753, 0.19193, 0.81067,
 13:48:19.526,e3:ca:2d:fd:e0:8c, 2015-01-01 01:34:11.570, 0.875, -0.022, 0.523, 0.061, 0, 0, -2.549, -59.211, -176.336, -24.533, -9.487, -14.100, 28.21, -0.01666, 0.49442, -0.00366, 0.86899,
 13:48:19.526,e3:ca:2d:fd:e0:8c, 2015-01-01 01:34:11.570, 0.874, -0.021, 0.523, 0, 0, 0, -2.549, -59.211, -176.336, -24.533, -9.487, -14.100, 28.21, -0.01666, 0.49442, -0.00366, 0.86899,
