Time,Device name,Chip Time(),Acceleration X(g),Acceleration Y(g),Acceleration Z(g),Angular velocity X(°/s),Angular velocity Y(°/s),Angular velocity Z(°/s),Angle X(°),Angle Y(°),Angle Z(°),Magnetic field X(ʯt),Magnetic field Y(ʯt),Magnetic field Z(ʯt),Temperature(℃),Quaternions 0(),Quaternions 1(),Quaternions 2(),Quaternions 3()
 14:27:34.359,ed:40:fe:65:30:6c, 2015-01-01 02:13:08.890, 0.526, 0.423, 0.735, -0.244, 0.427, 0.549, 30.333, -31.871, -157.917, -13.920, -17.487, -4.460, 28.48, 0.24677, -0.21231, -0.29898, -0.89697,
 14:27:34.360,ed:40:fe:65:30:6c, 2015-01-01 02:13:08.890, 0.525, 0.424, 0.736, -0.305, 0.366, 0.549, 30.317, -31.871, -157.89, -13.920, -17.487, -4.460, 28.48, 0.24677, -0.21231, -0.29898, -0.89697,
 14:27:34.360,e3:ca:2d:fd:e0:8c, 2015-01-01 02:13:09.830, 0.905, -0.062, 0.467, 0, 0.244, 0, -7.504, -62.474, 169.211, -22.573, -8.473, -14.707, 30.48, 0.11505, 0.51016, -0.10504, 0.84579,
 14:27:34.360,e3:ca:2d:fd:e0:8c, 2015-01-01 02:13:09.830, 0.905, -0.062, 0.468, -0.061, 0.183, -0.061, -7.504, -62.468, 169.222, -22.573, -8.473, -14.707, 30.48, 0.11505, 0.51016, -0.10504, 0.84579,
 14:27:34.360,ed:35:33:d3:6c:f8, 2015-01-01 02:13:09.090, 0.387, 0.475, 0.79, -0.793, 1.282, 0.183, 31.064, -23.071, 118.812, -9.747, -18.453, -27.000, 30.91, 0.43549, 0.30219, 0.12775, 0.83823,
 14:27:34.360,ed:35:33:d3:6c:f8, 2015-01-01 02:13:09.090, 0.39, 0.474, 0.786, -0.671, 0.732, 0.366, 31.047, -23.055, 118.85, -9.747, -18.453, -27.000, 30.91, 0.43549, 0.30219, 0.12775, 0.83823,
 14:27:34.362,f6:90:cc:01:6d:25, 2015-01-01 02:13:08.280, 0.876, 0.23, 0.395, 0.122, 0.183, 0.366, 30.41, -62.364, 167.613, -25.140, -15.180, -9.060, 32.69, 0.04608, -0.52087, -0.16937, -0.83533,
 14:27:34.362,f6:90:cc:01:6d:25, 2015-01-01 02:13:08.280, 0.874, 0.233, 0.394, 0.122, 0.183, 0.427, 30.399, -62.364, 167.607, -25.140, -15.180, -9.060, 32.69, 0.04608, -0.52087, -0.16937, -0.83533,
 14:27:34.403,ed:40:fe:65:30:6c, 2015-01-01 02:13:08.890, 0.527, 0.424, 0.732, -0.183, 0.244, 0.671, 30.3, -31.871, -157.863, -13.920, -17.487, -4.460, 28.48, 0.24677, -0.21231, -0.29898, -0.89697,
 14:27:34.403,ed:40:fe:65:30:6c, 2015-01-01 02:13:08.890, 0.526, 0.424, 0.731, -0.244, 0.305, 0.488, 30.284, -31.871, -157.841, -13.920, -17.487, -4.460, 28.48, 0.24677, -0.21231, -0.29898, -0.89697,
 14:27:34.403,e3:ca:2d:fd:e0:8c, 2015-01-01 02:13:09.830, 0.905, -0.062, 0.467, 0, 0.122, -0.061, -7.498, -62.463, 169.228, -22.573, -8.473, -14.707, 30.48, 0.11505, 0.51016, -0.10504, 0.84579,
 14:27:34.403,e3:ca:2d:fd:e0:8c, 2015-01-01 02:13:09.830, 0.905, -0.062, 0.467, 0.061, 0.122, 0, -7.498, -62.463, 169.239, -22.573, -8.473, -14.707, 30.48, 0.11505, 0.51016, -0.10504, 0.84579,
 14:27:34.405,ed:35:33:d3:6c:f8, 2015-01-01 02:13:09.090, 0.389, 0.472, 0.784, -0.854, 0.916, 0, 31.025, -23.044, 118.872, -9.747, -18.453, -27.000, 30.91, 0.43549, 0.30219, 0.12775, 0.83823,
 14:27:34.405,ed:35:33:d3:6c:f8, 2015-01-01 02:13:09.090, 0.389, 0.472, 0.785, -0.793, 0.977, 0, 31.009, -23.027, 118.861, -9.747, -18.453, -27.000, 30.91, 0.43549, 0.30219, 0.12775, 0.83823,
 14:27:34.406,f6:90:cc:01:6d:25, 2015-01-01 02:13:08.280, 0.874, 0.232, 0.394, 0.061, 0.305, 0.366, 30.383, -62.364, 167.607, -25.140, -15.180, -9.060, 32.69, 0.04608, -0.52087, -0.16937, -0.83533,
 14:27:34.406,f6:90:cc:01:6d:25, 2015-01-01 02:13:08.280, 0.875, 0.23, 0.394, 0.122, 0.305, 0.305, 30.366, -62.358, 167.602, -25.140, -15.180, -9.060, 32.69, 0.04608, -0.52087, -0.16937, -0.83533,
 14:27:34.427,ed:40:fe:65:30:6c, 2015-01-01 02:13:08.890, 0.527, 0.422, 0.733, -0.305, 0.488, 0.305, 30.273, -31.871, -157.813, -13.793, -17.287, -4.520, 28.48, 0.24677, -0.21231, -0.29898, -0.89697,
 14:27:34.427,ed:40:fe:65:30:6c, 2015-01-01 02:13:08.890, 0.527, 0.422, 0.734, -0.183, 0.488, 0.366, 30.256, -31.866, -157.791, -13.793, -17.287, -4.520, 28.48, 0.24677, -0.21231, -0.29898, -0.89697,
 14:27:34.452,f6:90:cc:01:6d:25, 2015-01-01 02:13:08.280, 0.875, 0.23, 0.394, 0.122, 0.244, 0.244, 30.355, -62.358, 167.602, -25.140, -15.180, -9.060, 32.68, 0.04608, -0.52087, -0.16937, -0.83533,
 14:27:34.452,f6:90:cc:01:6d:25, 2015-01-01 02:13:08.280, 0.875, 0.231, 0.395, 0.183, 0.244, 0.244, 30.344, -62.358, 167.596, -25.140, -15.180, -9.060, 32.68, 0.04608, -0.52087, -0.16937, -0.83533,
 14:27:34.470,e3:ca:2d:fd:e0:8c, 2015-01-01 02:13:09.830, 0.905, -0.062, 0.468, 0.122, 0.183, 0, -7.498, -62.457, 169.25, -22.347, -8.567, -15.387, 30.48, 0.11505, 0.51016, -0.10504, 0.84579,
 14:27:34.470,e3:ca:2d:fd:e0:8c, 2015-01-01 02:13:09.830, 0.905, -0.063, 0.467, 0.061, 0.305, 0, -7.493, -62.457, 169.255, -22.347, -8.567, -15.387, 30.48, 0.11505, 0.51016, -0.10504, 0.84579,
 14:27:34.471,ed:40:fe:65:30:6c, 2015-01-01 02:13:08.890, 0.526, 0.42, 0.735, -0.183, 0.427, 0.488, 30.245, -31.86, -157.769, -13.793, -17.287, -4.520, 28.48, 0.24677, -0.21231, -0.29898, -0.89697,
 14:27:34.471,ed:40:fe:65:30:6c, 2015-01-01 02:13:08.890, 0.524, 0.422, 0.736, -0.061, 0.305, 0.427, 30.234, -31.86, -157.742, -13.793, -17.287, -4.520, 28.48, 0.24677, -0.21231, -0.29898, -0.89697,
 14:27:34.473,ed:35:33:d3:6c:f8, 2015-01-01 02:13:09.090, 0.39, 0.472, 0.788, -0.671, 0.977, 0.122, 30.987, -23.011, 118.828, -9.747, -18.453, -27.000, 30.91, 0.4342, 0.2988, 0.12769, 0.84009,
 14:27:34.473,ed:35:33:d3:6c:f8, 2015-01-01 02:13:09.090, 0.387, 0.471, 0.789, -0.488, 0.61, 0.305, 30.97, -23, 118.861, -9.747, -18.453, -27.000, 30.91, 0.4342, 0.2988, 0.12769, 0.84009,
 14:27:34.492,e3:ca:2d:fd:e0:8c, 2015-01-01 02:13:09.830, 0.904, -0.062, 0.468, 0.122, 0.305, 0, -7.493, -62.452, 169.266, -22.347, -8.567, -15.387, 30.48, 0.11349, 0.50977, -0.104, 0.84634,
 14:27:34.492,e3:ca:2d:fd:e0:8c, 2015-01-01 02:13:09.830, 0.904, -0.062, 0.469, 0.061, 0.366, 0, -7.493, -62.446, 169.272, -22.347, -8.567, -15.387, 30.48, 0.11349, 0.50977, -0.104, 0.84634,
 14:27:34.494,ed:40:fe:65:30:6c, 2015-01-01 02:13:08.890, 0.524, 0.423, 0.736, -0.061, 0.183, 0.305, 30.223, -31.86, -157.725, -13.793, -17.287, -4.520, 28.48, 0.24939, -0.21158, -0.29718, -0.897,
 14:27:34.494,ed:40:fe:65:30:6c, 2015-01-01 02:13:08.890, 0.525, 0.421, 0.735, 0, 0, 0.244, 30.212, -31.86, -157.709, -13.793, -17.287, -4.520, 28.48, 0.24939, -0.21158, -0.29718, -0.897,
 14:27:34.494,ed:35:33:d3:6c:f8, 2015-01-01 02:13:09.445, 0.385, 0.471, 0.79, -0.427, 0.549, 0.305, 30.959, -22.994, 118.845, -9.747, -18.453, -27.000, 30.91, 0.4342, 0.2988, 0.12769, 0.84009,
 14:27:34.494,ed:35:33:d3:6c:f8, 2015-01-01 02:13:09.445, 0.385, 0.472, 0.79, -0.549, 0.427, 0.061, 30.948, -22.983, 118.878, -9.747, -18.453, -27.000, 30.91, 0.4342, 0.2988, 0.12769, 0.84009,
 14:27:34.517,ed:35:33:d3:6c:f8, 2015-01-01 02:13:09.445, 0.387, 0.471, 0.79, -0.427, 0.488, 0, 30.938, -22.978, 118.9, -9.747, -18.453, -27.000, 30.91, 0.4342, 0.2988, 0.12769, 0.84009,
 14:27:34.517,ed:35:33:d3:6c:f8, 2015-01-01 02:13:09.445, 0.387, 0.47, 0.789, -0.183, 0.549, -0.061, 30.927, -22.967, 118.878, -9.747, -18.453, -27.000, 30.91, 0.4342, 0.2988, 0.12769, 0.84009,
 14:27:34.519,f6:90:cc:01:6d:25, 2015-01-01 02:13:08.680, 0.874, 0.232, 0.395, 0.122, 0.305, 0.244, 30.339, -62.353, 167.591, -25.140, -15.180, -9.060, 32.68, 0.04608, -0.52087, -0.16937, -0.83533,
 14:27:34.519,f6:90:cc:01:6d:25, 2015-01-01 02:13:08.680, 0.875, 0.231, 0.396, 0.061, 0.183, 0.244, 30.328, -62.353, 167.585, -25.140, -15.180, -9.060, 32.68, 0.04608, -0.52087, -0.16937, -0.83533,
 14:27:34.519,f6:90:cc:01:6d:25, 2015-01-01 02:13:08.680, 0.874, 0.23, 0.396, 0, 0.183, 0.244, 30.317, -62.353, 167.58, -25.140, -15.180, -9.060, 32.68, 0.04608, -0.52087, -0.16937, -0.83533,
 14:27:34.519,f6:90:cc:01:6d:25, 2015-01-01 02:13:08.680, 0.874, 0.229, 0.396, 0, 0.183, 0.244, 30.306, -62.353, 167.569, -25.140, -15.180, -9.060, 32.68, 0.04608, -0.52087, -0.16937, -0.83533,
 14:27:34.538,e3:ca:2d:fd:e0:8c, 2015-01-01 02:13:09.830, 0.904, -0.062, 0.468, 0.061, 0.305, 0, -7.487, -62.435, 169.283, -22.347, -8.567, -15.387, 30.48, 0.11349, 0.50977, -0.104, 0.84634,
 14:27:34.538,e3:ca:2d:fd:e0:8c, 2015-01-01 02:13:09.830, 0.903, -0.062, 0.468, 0, 0.244, 0, -7.487, -62.43, 169.288, -22.347, -8.567, -15.387, 30.48, 0.11349, 0.50977, -0.104, 0.84634,
 14:27:34.539,ed:40:fe:65:30:6c, 2015-01-01 02:13:08.890, 0.526, 0.421, 0.735, 0, 0, 0.122, 30.207, -31.86, -157.692, -13.793, -17.287, -4.520, 28.48, 0.24939, -0.21158, -0.29718, -0.897,
 14:27:34.539,ed:40:fe:65:30:6c, 2015-01-01 02:13:08.890, 0.525, 0.421, 0.735, 0.061, 0.122, 0.061, 30.207, -31.86, -157.681, -13.793, -17.287, -4.520, 28.48, 0.24939, -0.21158, -0.29718, -0.897,
 14:27:34.563,ed:35:33:d3:6c:f8, 2015-01-01 02:13:09.445, 0.386, 0.471, 0.789, -0.183, 0.61, -0.061, 30.921, -22.956, 118.922, -9.747, -18.453, -27.000, 30.91, 0.4342, 0.2988, 0.12769, 0.84009,
 14:27:34.563,ed:35:33:d3:6c:f8, 2015-01-01 02:13:09.445, 0.385, 0.47, 0.79, -0.183, 0.671, 0, 30.916, -22.945, 118.965, -9.747, -18.453, -27.000, 30.91, 0.4342, 0.2988, 0.12769, 0.84009,
 14:27:34.583,e3:ca:2d:fd:e0:8c, 2015-01-01 02:13:10.235, 0.902, -0.062, 0.469, 0, 0.244, 0, -7.487, -62.424, 169.299, -22.347, -8.567, -15.387, 30.48, 0.11349, 0.50977, -0.104, 0.84634,
 14:27:34.583,e3:ca:2d:fd:e0:8c, 2015-01-01 02:13:10.235, 0.904, -0.062, 0.469, 0, 0.183, 0, -7.487, -62.424, 169.305, -22.347, -8.567, -15.387, 30.48, 0.11349, 0.50977, -0.104, 0.84634,
 14:27:34.584,ed:40:fe:65:30:6c, 2015-01-01 02:13:09.295, 0.524, 0.421, 0.736, 0.061, 0.183, 0.122, 30.201, -31.86, -157.665, -13.793, -17.287, -4.520, 28.48, 0.24939, -0.21158, -0.29718, -0.897,
 14:27:34.584,ed:40:fe:65:30:6c, 2015-01-01 02:13:09.295, 0.524, 0.422, 0.737, -0.061, 0.183, 0.122, 30.196, -31.855, -157.654, -13.793, -17.287, -4.520, 28.48, 0.24939, -0.21158, -0.29718, -0.897,
 14:27:34.586,f6:90:cc:01:6d:25, 2015-01-01 02:13:08.680, 0.873, 0.23, 0.396, 0, 0.183, 0.122, 30.295, -62.353, 167.563, -25.140, -15.180, -9.060, 32.68, 0.04608, -0.52087, -0.16937, -0.83533,
 14:27:34.586,f6:90:cc:01:6d:25, 2015-01-01 02:13:08.680, 0.874, 0.23, 0.396, 0, 0.122, 0.061, 30.289, -62.347, 167.552, -25.140, -15.180, -9.060, 32.68, 0.04608, -0.52087, -0.16937, -0.83533,
 14:27:34.606,e3:ca:2d:fd:e0:8c, 2015-01-01 02:13:10.235, 0.904, -0.062, 0.468, 0.061, 0.244, 0, -7.487, -62.419, 169.316, -22.347, -8.567, -15.387, 30.48, 0.11349, 0.50977, -0.104, 0.84634,
 14:27:34.606,e3:ca:2d:fd:e0:8c, 2015-01-01 02:13:10.235, 0.904, -0.062, 0.468, 0.122, 0.366, 0, -7.487, -62.413, 169.321, -22.347, -8.567, -15.387, 30.48, 0.11349, 0.50977, -0.104, 0.84634,
 14:27:34.608,ed:35:33:d3:6c:f8, 2015-01-01 02:13:09.445, 0.384, 0.472, 0.792, -0.427, 0.366, -0.061, 30.905, -22.934, 118.987, -9.747, -18.453, -27.000, 30.91, 0.4342, 0.2988, 0.12769, 0.84009,
 14:27:34.608,ed:35:33:d3:6c:f8, 2015-01-01 02:13:09.445, 0.384, 0.47, 0.792, -0.183, -0.305, 0.061, 30.899, -22.928, 119.059, -9.747, -18.453, -27.000, 30.91, 0.4342, 0.2988, 0.12769, 0.84009,
 14:27:34.609,f6:90:cc:01:6d:25, 2015-01-01 02:13:08.680, 0.874, 0.231, 0.395, 0.122, 0, 0, 30.284, -62.347, 167.536, -25.140, -15.180, -9.060, 32.68, 0.04608, -0.52087, -0.16937, -0.83533,
 14:27:34.609,f6:90:cc:01:6d:25, 2015-01-01 02:13:08.680, 0.874, 0.231, 0.395, 0.183, 0, 0.061, 30.289, -62.347, 167.52, -25.140, -15.180, -9.060, 32.68, 0.04608, -0.52087, -0.16937, -0.83533,
 14:27:34.629,ed:40:fe:65:30:6c, 2015-01-01 02:13:09.295, 0.524, 0.42, 0.736, 0, -0.061, 0.122, 30.185, -31.855, -157.637, -13.793, -17.287, -4.520, 28.48, 0.24939, -0.21158, -0.29718, -0.897,
 14:27:34.629,ed:40:fe:65:30:6c, 2015-01-01 02:13:09.295, 0.526, 0.418, 0.737, 0.305, -0.366, 0, 30.185, -31.86, -157.632, -13.793, -17.287, -4.520, 28.48, 0.24939, -0.21158, -0.29718, -0.897,
 14:27:34.629,e3:ca:2d:fd:e0:8c, 2015-01-01 02:13:10.235, 0.904, -0.062, 0.469, 0.122, 0.488, 0, -7.482, -62.402, 169.327, -22.347, -8.567, -15.387, 30.48, 0.11349, 0.50977, -0.104, 0.84634,
 14:27:34.629,e3:ca:2d:fd:e0:8c, 2015-01-01 02:13:10.235, 0.903, -0.062, 0.469, 0, 0.366, 0, -7.476, -62.397, 169.338, -22.347, -8.567, -15.387, 30.48, 0.11349, 0.50977, -0.104, 0.84634,
 14:27:34.652,ed:40:fe:65:30:6c, 2015-01-01 02:13:09.295, 0.528, 0.417, 0.738, 0.488, -0.366, -0.061, 30.19, -31.86, -157.626, -13.793, -17.287, -4.520, 28.48, 0.24939, -0.21158, -0.29718, -0.897,
 14:27:34.652,ed:40:fe:65:30:6c, 2015-01-01 02:13:09.295, 0.527, 0.417, 0.737, 0.549, -0.305, 0, 30.201, -31.866, -157.621, -13.793, -17.287, -4.520, 28.48, 0.24939, -0.21158, -0.29718, -0.897,
 14:27:34.652,ed:35:33:d3:6c:f8, 2015-01-01 02:13:09.445, 0.386, 0.467, 0.792, 0, -0.549, 0.061, 30.899, -22.939, 119.108, -9.747, -18.453, -27.000, 30.91, 0.4342, 0.2988, 0.12769, 0.84009,
 14:27:34.652,ed:35:33:d3:6c:f8, 2015-01-01 02:13:09.445, 0.388, 0.467, 0.791, 0.122, -0.061, -0.183, 30.899, -22.939, 119.163, -9.747, -18.453, -27.000, 30.91, 0.4342, 0.2988, 0.12769, 0.84009,
 14:27:34.653,f6:90:cc:01:6d:25, 2015-01-01 02:13:08.680, 0.874, 0.228, 0.397, 0.122, -0.061, 0, 30.289, -62.347, 167.503, -25.140, -15.180, -9.060, 32.68, 0.04608, -0.52087, -0.16937, -0.83533,
 14:27:34.653,f6:90:cc:01:6d:25, 2015-01-01 02:13:08.680, 0.875, 0.225, 0.397, 0.183, -0.122, -0.244, 30.295, -62.353, 167.481, -25.140, -15.180, -9.060, 32.68, 0.04608, -0.52087, -0.16937, -0.83533,
 14:27:34.673,e3:ca:2d:fd:e0:8c, 2015-01-01 02:13:10.235, 0.903, -0.062, 0.469, 0, 0.244, 0, -7.476, -62.391, 169.343, -22.347, -8.567, -15.387, 30.48, 0.11349, 0.50977, -0.104, 0.84634,
 14:27:34.673,e3:ca:2d:fd:e0:8c, 2015-01-01 02:13:10.235, 0.903, -0.063, 0.469, 0, 0.305, 0, -7.476, -62.386, 169.349, -22.347, -8.567, -15.387, 30.48, 0.11349, 0.50977, -0.104, 0.84634,
 14:27:34.698,ed:35:33:d3:6c:f8, 2015-01-01 02:13:09.445, 0.388, 0.468, 0.791, 0.305, 0.244, 0, 30.899, -22.934, 119.191, -9.747, -18.453, -27.000, 30.91, 0.4342, 0.2988, 0.12769, 0.84009,
 14:27:34.698,ed:35:33:d3:6c:f8, 2015-01-01 02:13:09.445, 0.387, 0.467, 0.789, 0.488, 0.183, 0, 30.905, -22.928, 119.224, -9.747, -18.453, -27.000, 30.91, 0.4342, 0.2988, 0.12769, 0.84009,
 14:27:34.698,ed:40:fe:65:30:6c, 2015-01-01 02:13:09.295, 0.527, 0.418, 0.736, 0.732, -0.305, 0.061, 30.207, -31.871, -157.615, -13.793, -17.287, -4.520, 28.48, 0.24939, -0.21158, -0.29718, -0.897,
 14:27:34.699,ed:40:fe:65:30:6c, 2015-01-01 02:13:09.295, 0.525, 0.419, 0.735, 0.549, -0.244, 0, 30.218, -31.877, -157.61, -13.793, -17.287, -4.520, 28.48, 0.24939, -0.21158, -0.29718, -0.897,
 14:27:34.699,f6:90:cc:01:6d:25, 2015-01-01 02:13:08.680, 0.875, 0.226, 0.397, 0.366, -0.305, -0.366, 30.311, -62.353, 167.448, -24.913, -15.107, -8.393, 32.68, 0.04608, -0.52087, -0.16937, -0.83533,
 14:27:34.699,f6:90:cc:01:6d:25, 2015-01-01 02:13:08.680, 0.875, 0.228, 0.397, 0.549, -0.366, -0.488, 30.333, -62.353, 167.41, -24.913, -15.107, -8.393, 32.68, 0.04608, -0.52087, -0.16937, -0.83533,
 14:27:34.720,ed:35:33:d3:6c:f8, 2015-01-01 02:13:09.445, 0.385, 0.47, 0.791, 0.305, 0.366, -0.122, 30.91, -22.923, 119.257, -9.920, -18.773, -27.080, 30.91, 0.4342, 0.2988, 0.12769, 0.84009,
 14:27:34.720,ed:35:33:d3:6c:f8, 2015-01-01 02:13:09.445, 0.385, 0.473, 0.79, 0.366, -0.305, 0.061, 30.916, -22.923, 119.29, -9.920, -18.773, -27.080, 30.91, 0.4342, 0.2988, 0.12769, 0.84009,
 14:27:34.722,f6:90:cc:01:6d:25, 2015-01-01 02:13:08.680, 0.874, 0.229, 0.395, 0.488, -0.244, -0.549, 30.361, -62.353, 167.366, -24.913, -15.107, -8.393, 32.68, 0.04385, -0.52121, -0.16772, -0.83557,
 14:27:34.722,f6:90:cc:01:6d:25, 2015-01-01 02:13:08.680, 0.874, 0.231, 0.396, 0.427, -0.183, -0.427, 30.388, -62.353, 167.322, -24.913, -15.107, -8.393, 32.68, 0.04385, -0.52121, -0.16772, -0.83557,
 14:27:34.741,e3:ca:2d:fd:e0:8c, 2015-01-01 02:13:10.235, 0.902, -0.063, 0.471, 0, 0.183, 0, -7.476, -62.38, 169.36, -22.347, -8.567, -15.387, 30.48, 0.11349, 0.50977, -0.104, 0.84634,
 14:27:34.741,e3:ca:2d:fd:e0:8c, 2015-01-01 02:13:10.235, 0.903, -0.063, 0.47, -0.061, 0.061, -0.305, -7.476, -62.375, 169.365, -22.347, -8.567, -15.387, 30.48, 0.11349, 0.50977, -0.104, 0.84634,
 14:27:34.763,e3:ca:2d:fd:e0:8c, 2015-01-01 02:13:10.235, 0.903, -0.062, 0.47, -0.183, 0.061, -0.305, -7.465, -62.375, 169.36, -22.173, -8.460, -15.480, 30.48, 0.11349, 0.50977, -0.104, 0.84634,
 14:27:34.763,e3:ca:2d:fd:e0:8c, 2015-01-01 02:13:10.235, 0.904, -0.062, 0.47, -0.244, 0.061, -0.427, -7.46, -62.375, 169.354, -22.173, -8.460, -15.480, 30.48, 0.11349, 0.50977, -0.104, 0.84634,
 14:27:34.764,ed:40:fe:65:30:6c, 2015-01-01 02:13:09.295, 0.525, 0.422, 0.734, 0.549, -0.183, 0.061, 30.223, -31.882, -157.604, -13.793, -17.287, -4.520, 28.48, 0.24939, -0.21158, -0.29718, -0.897,
 14:27:34.764,ed:40:fe:65:30:6c, 2015-01-01 02:13:09.295, 0.527, 0.424, 0.733, 0.61, -0.183, 0.061, 30.229, -31.882, -157.593, -13.793, -17.287, -4.520, 28.48, 0.24939, -0.21158, -0.29718, -0.897,
 14:27:34.766,f6:90:cc:01:6d:25, 2015-01-01 02:13:08.680, 0.875, 0.232, 0.395, 0.366, -0.061, -0.305, 30.41, -62.353, 167.289, -24.913, -15.107, -8.393, 32.68, 0.04385, -0.52121, -0.16772, -0.83557,
 14:27:34.766,f6:90:cc:01:6d:25, 2015-01-01 02:13:08.680, 0.876, 0.232, 0.395, 0.244, -0.061, -0.244, 30.421, -62.347, 167.261, -24.913, -15.107, -8.393, 32.68, 0.04385, -0.52121, -0.16772, -0.83557,
 14:27:34.786,ed:40:fe:65:30:6c, 2015-01-01 02:13:09.295, 0.529, 0.423, 0.732, 0.61, -0.122, 0, 30.234, -31.888, -157.588, -13.707, -17.693, -4.113, 28.48, 0.24939, -0.21158, -0.29718, -0.897,
 14:27:34.786,ed:40:fe:65:30:6c, 2015-01-01 02:13:09.295, 0.528, 0.424, 0.732, 0.305, -0.061, 0, 30.24, -31.888, -157.577, -13.707, -17.693, -4.113, 28.48, 0.24939, -0.21158, -0.29718, -0.897,
 14:27:34.789,ed:35:33:d3:6c:f8, 2015-01-01 02:13:09.445, 0.388, 0.473, 0.786, 0.488, -0.61, 0.183, 30.921, -22.928, 119.312, -9.920, -18.773, -27.080, 30.91, 0.4342, 0.2988, 0.12769, 0.84009,
 14:27:34.789,ed:35:33:d3:6c:f8, 2015-01-01 02:13:09.445, 0.389, 0.473, 0.786, 0.305, -0.244, 0, 30.932, -22.934, 119.344, -9.920, -18.773, -27.080, 30.91, 0.4342, 0.2988, 0.12769, 0.84009,
 14:27:34.808,e3:ca:2d:fd:e0:8c, 2015-01-01 02:13:10.235, 0.904, -0.063, 0.47, -0.183, 0, -0.366, -7.449, -62.375, 169.343, -22.173, -8.460, -15.480, 30.48, 0.11349, 0.50977, -0.104, 0.84634,
 14:27:34.808,e3:ca:2d:fd:e0:8c, 2015-01-01 02:13:10.235, 0.904, -0.062, 0.469, -0.183, 0, -0.305, -7.443, -62.375, 169.338, -22.173, -8.460, -15.480, 30.48, 0.11349, 0.50977, -0.104, 0.84634,
 14:27:34.810,ed:35:33:d3:6c:f8, 2015-01-01 02:13:09.445, 0.388, 0.476, 0.786, 0, -0.122, 0.061, 30.932, -22.939, 119.399, -9.920, -18.773, -27.080, 30.91, 0.43124, 0.29736, 0.12875, 0.84198,
 14:27:34.810,ed:35:33:d3:6c:f8, 2015-01-01 02:13:09.445, 0.387, 0.475, 0.787, -0.244, -0.244, 0.183, 30.932, -22.939, 119.482, -9.920, -18.773, -27.080, 30.91, 0.43124, 0.29736, 0.12875, 0.84198,
 14:27:34.812,f6:90:cc:01:6d:25, 2015-01-01 02:13:08.970, 0.876, 0.233, 0.395, 0.122, 0, -0.244, 30.432, -62.347, 167.234, -24.913, -15.107, -8.393, 32.68, 0.04385, -0.52121, -0.16772, -0.83557,
 14:27:34.812,f6:90:cc:01:6d:25, 2015-01-01 02:13:08.970, 0.874, 0.233, 0.394, 0, 0, -0.122, 30.438, -62.347, 167.212, -24.913, -15.107, -8.393, 32.68, 0.04385, -0.52121, -0.16772, -0.83557,
 14:27:34.834,ed:40:fe:65:30:6c, 2015-01-01 02:13:09.295, 0.526, 0.425, 0.732, 0, 0.061, 0.122, 30.234, -31.888, -157.566, -13.707, -17.693, -4.113, 28.48, 0.24939, -0.21158, -0.29718, -0.897,
 14:27:34.834,ed:40:fe:65:30:6c, 2015-01-01 02:13:09.295, 0.526, 0.424, 0.733, 0, 0.122, 0.061, 30.229, -31.888, -157.555, -13.707, -17.693, -4.113, 28.48, 0.24939, -0.21158, -0.29718, -0.897,
 14:27:34.834,e3:ca:2d:fd:e0:8c, 2015-01-01 02:13:10.235, 0.904, -0.061, 0.468, -0.122, 0, -0.305, -7.438, -62.375, 169.332, -22.173, -8.460, -15.480, 30.48, 0.11276, 0.50934, -0.1033, 0.8468,
 14:27:34.834,e3:ca:2d:fd:e0:8c, 2015-01-01 02:13:10.235, 0.904, -0.06, 0.47, -0.244, 0, -0.366, -7.427, -62.375, 169.327, -22.173, -8.460, -15.480, 30.48, 0.11276, 0.50934, -0.1033, 0.8468,
 14:27:34.854,ed:40:fe:65:30:6c, 2015-01-01 02:13:09.295, 0.525, 0.423, 0.734, 0, 0.061, 0, 30.229, -31.882, -157.549, -13.707, -17.693, -4.113, 28.48, 0.25089, -0.2113, -0.29752, -0.89655,
 14:27:34.854,ed:40:fe:65:30:6c, 2015-01-01 02:13:09.295, 0.528, 0.423, 0.734, 0, -0.122, 0.061, 30.223, -31.888, -157.538, -13.707, -17.693, -4.113, 28.48, 0.25089, -0.2113, -0.29752, -0.89655,
 14:27:34.857,f6:90:cc:01:6d:25, 2015-01-01 02:13:08.970, 0.873, 0.232, 0.394, 0, 0.061, -0.061, 30.438, -62.342, 167.195, -24.913, -15.107, -8.393, 32.68, 0.04385, -0.52121, -0.16772, -0.83557,
 14:27:34.857,f6:90:cc:01:6d:25, 2015-01-01 02:13:08.970, 0.874, 0.234, 0.393, 0, 0.061, -0.122, 30.438, -62.342, 167.173, -24.913, -15.107, -8.393, 32.68, 0.04385, -0.52121, -0.16772, -0.83557,
 14:27:34.875,e3:ca:2d:fd:e0:8c, 2015-01-01 02:13:10.235, 0.905, -0.06, 0.468, -0.244, 0.061, -0.305, -7.421, -62.375, 169.316, -22.173, -8.460, -15.480, 30.48, 0.11276, 0.50934, -0.1033, 0.8468,
 14:27:34.875,e3:ca:2d:fd:e0:8c, 2015-01-01 02:13:10.235, 0.905, -0.061, 0.468, -0.061, 0.061, -0.183, -7.416, -62.375, 169.316, -22.173, -8.460, -15.480, 30.48, 0.11276, 0.50934, -0.1033, 0.8468,
 14:27:34.877,ed:35:33:d3:6c:f8, 2015-01-01 02:13:09.445, 0.386, 0.472, 0.786, -0.244, 0, -0.122, 30.927, -22.939, 119.542, -9.920, -18.773, -27.080, 30.91, 0.43124, 0.29736, 0.12875, 0.84198,
 14:27:34.877,ed:35:33:d3:6c:f8, 2015-01-01 02:13:09.445, 0.386, 0.473, 0.789, -0.305, 0.305, -0.305, 30.921, -22.934, 119.608, -9.920, -18.773, -27.080, 30.91, 0.43124, 0.29736, 0.12875, 0.84198,
 14:27:34.899,ed:40:fe:65:30:6c, 2015-01-01 02:13:09.295, 0.528, 0.424, 0.734, 0.122, -0.366, -0.183, 30.223, -31.888, -157.538, -13.707, -17.693, -4.113, 28.48, 0.25089, -0.2113, -0.29752, -0.89655,
 14:27:34.899,ed:40:fe:65:30:6c, 2015-01-01 02:13:09.295, 0.527, 0.421, 0.733, 0.122, -0.305, -0.244, 30.229, -31.893, -157.538, -13.707, -17.693, -4.113, 28.48, 0.25089, -0.2113, -0.29752, -0.89655,
 14:27:34.901,f6:90:cc:01:6d:25, 2015-01-01 02:13:08.970, 0.875, 0.236, 0.394, 0, 0, -0.122, 30.443, -62.342, 167.157, -24.913, -15.107, -8.393, 32.68, 0.04385, -0.52121, -0.16772, -0.83557,
 14:27:34.901,f6:90:cc:01:6d:25, 2015-01-01 02:13:08.970, 0.875, 0.233, 0.396, -0.061, -0.122, -0.122, 30.449, -62.342, 167.135, -24.913, -15.107, -8.393, 32.68, 0.04385, -0.52121, -0.16772, -0.83557,
 14:27:34.901,ed:35:33:d3:6c:f8, 2015-01-01 02:13:09.825, 0.387, 0.472, 0.789, -0.183, -0.122, 0, 30.916, -22.934, 119.641, -9.920, -18.773, -27.080, 30.91, 0.43124, 0.29736, 0.12875, 0.84198,
 14:27:34.901,ed:35:33:d3:6c:f8, 2015-01-01 02:13:09.825, 0.389, 0.472, 0.79, 0, -0.427, -0.366, 30.921, -22.934, 119.652, -9.920, -18.773, -27.080, 30.91, 0.43124, 0.29736, 0.12875, 0.84198,
 14:27:34.920,e3:ca:2d:fd:e0:8c, 2015-01-01 02:13:10.570, 0.903, -0.061, 0.469, 0, 0.122, -0.122, -7.41, -62.375, 169.316, -22.173, -8.460, -15.480, 30.48, 0.11276, 0.50934, -0.1033, 0.8468,
 14:27:34.920,e3:ca:2d:fd:e0:8c, 2015-01-01 02:13:10.570, 0.902, -0.061, 0.468, 0, 0, 0, -7.41, -62.369, 169.316, -22.173, -8.460, -15.480, 30.48, 0.11276, 0.50934, -0.1033, 0.8468,
 14:27:34.922,ed:35:33:d3:6c:f8, 2015-01-01 02:13:09.825, 0.389, 0.471, 0.786, -0.061, -0.549, -0.366, 30.927, -22.939, 119.702, -9.920, -18.773, -27.080, 30.91, 0.43124, 0.29736, 0.12875, 0.84198,
 14:27:34.922,ed:35:33:d3:6c:f8, 2015-01-01 02:13:09.825, 0.39, 0.471, 0.782, 0, -0.183, -0.244, 30.927, -22.939, 119.745, -9.920, -18.773, -27.080, 30.91, 0.43124, 0.29736, 0.12875, 0.84198,
 14:27:34.925,f6:90:cc:01:6d:25, 2015-01-01 02:13:08.970, 0.874, 0.232, 0.392, 0, -0.061, -0.305, 30.454, -62.342, 167.108, -24.913, -15.107, -8.393, 32.68, 0.04385, -0.52121, -0.16772, -0.83557,
 14:27:34.925,f6:90:cc:01:6d:25, 2015-01-01 02:13:08.970, 0.874, 0.234, 0.396, 0, 0.061, -0.305, 30.465, -62.336, 167.08, -24.913, -15.107, -8.393, 32.68, 0.04385, -0.52121, -0.16772, -0.83557,
 14:27:34.944,ed:40:fe:65:30:6c, 2015-01-01 02:13:09.650, 0.529, 0.422, 0.73, 0.366, -0.122, -0.244, 30.234, -31.893, -157.538, -13.707, -17.693, -4.113, 28.48, 0.25089, -0.2113, -0.29752, -0.89655,
 14:27:34.944,ed:40:fe:65:30:6c, 2015-01-01 02:13:09.650, 0.529, 0.424, 0.731, 0.305, 0.183, -0.305, 30.24, -31.888, -157.533, -13.707, -17.693, -4.113, 28.48, 0.25089, -0.2113, -0.29752, -0.89655,
 14:27:34.966,e3:ca:2d:fd:e0:8c, 2015-01-01 02:13:10.570, 0.902, -0.061, 0.47, 0.061, 0.061, 0, -7.41, -62.369, 169.327, -22.173, -8.460, -15.480, 30.48, 0.11276, 0.50934, -0.1033, 0.8468,
 14:27:34.966,e3:ca:2d:fd:e0:8c, 2015-01-01 02:13:10.570, 0.903, -0.061, 0.47, 0, 0.122, 0, -7.41, -62.369, 169.332, -22.173, -8.460, -15.480, 30.48, 0.11276, 0.50934, -0.1033, 0.8468,
 14:27:34.969,f6:90:cc:01:6d:25, 2015-01-01 02:13:08.970, 0.875, 0.231, 0.395, 0.061, 0, -0.244, 30.476, -62.336, 167.058, -24.913, -15.107, -8.393, 32.68, 0.04385, -0.52121, -0.16772, -0.83557,
 14:27:34.969,f6:90:cc:01:6d:25, 2015-01-01 02:13:08.970, 0.876, 0.231, 0.395, 0.244, 0, -0.244, 30.487, -62.331, 167.031, -24.913, -15.107, -8.393, 32.68, 0.04385, -0.52121, -0.16772, -0.83557,
 14:27:34.969,ed:35:33:d3:6c:f8, 2015-01-01 02:13:09.825, 0.389, 0.476, 0.784, 0.183, 0.061, -0.183, 30.932, -22.934, 119.767, -9.920, -18.773, -27.080, 30.91, 0.43124, 0.29736, 0.12875, 0.84198,
 14:27:34.969,ed:35:33:d3:6c:f8, 2015-01-01 02:13:09.825, 0.388, 0.479, 0.79, 0.061, 0.427, 0.122, 30.932, -22.928, 119.767, -9.920, -18.773, -27.080, 30.91, 0.43124, 0.29736, 0.12875, 0.84198,
 14:27:34.989,ed:40:fe:65:30:6c, 2015-01-01 02:13:09.650, 0.528, 0.427, 0.734, 0.366, 0.244, 0, 30.245, -31.882, -157.527, -13.707, -17.693, -4.113, 28.48, 0.25089, -0.2113, -0.29752, -0.89655,
 14:27:34.989,ed:40:fe:65:30:6c, 2015-01-01 02:13:09.650, 0.526, 0.429, 0.734, 0, 0.122, 0.183, 30.24, -31.882, -157.511, -13.707, -17.693, -4.113, 28.48, 0.25089, -0.2113, -0.29752, -0.89655,
 14:27:35.010,e3:ca:2d:fd:e0:8c, 2015-01-01 02:13:10.570, 0.904, -0.062, 0.47, 0, 0.244, 0, -7.405, -62.364, 169.338, -22.173, -8.460, -15.480, 30.48, 0.11276, 0.50934, -0.1033, 0.8468,
 14:27:35.010,e3:ca:2d:fd:e0:8c, 2015-01-01 02:13:10.570, 0.904, -0.062, 0.469, 0.183, 0.122, 0.061, -7.405, -62.358, 169.349, -22.173, -8.460, -15.480, 30.48, 0.11276, 0.50934, -0.1033, 0.8468,
 14:27:35.013,ed:35:33:d3:6c:f8, 2015-01-01 02:13:09.825, 0.385, 0.479, 0.79, -0.366, 0, 0.244, 30.927, -22.934, 119.718, -9.920, -18.773, -27.080, 30.91, 0.43124, 0.29736, 0.12875, 0.84198,
 14:27:35.013,ed:35:33:d3:6c:f8, 2015-01-01 02:13:09.825, 0.384, 0.476, 0.789, -0.305, -0.488, 0.183, 30.921, -22.939, 119.641, -9.920, -18.773, -27.080, 30.91, 0.43124, 0.29736, 0.12875, 0.84198,
 14:27:35.014,f6:90:cc:01:6d:25, 2015-01-01 02:13:08.970, 0.874, 0.234, 0.395, 0.183, 0.122, 0, 30.498, -62.331, 167.014, -24.747, -14.920, -8.480, 32.68, 0.04385, -0.52121, -0.16772, -0.83557,
 14:27:35.014,f6:90:cc:01:6d:25, 2015-01-01 02:13:08.970, 0.871, 0.235, 0.395, 0.122, 0.122, 0.122, 30.498, -62.331, 167.003, -24.747, -14.920, -8.480, 32.68, 0.04385, -0.52121, -0.16772, -0.83557,
 14:27:35.034,ed:40:fe:65:30:6c, 2015-01-01 02:13:09.650, 0.523, 0.427, 0.734, 0, 0.122, 0.183, 30.24, -31.882, -157.5, -13.707, -17.693, -4.113, 28.48, 0.25089, -0.2113, -0.29752, -0.89655,
 14:27:35.034,ed:40:fe:65:30:6c, 2015-01-01 02:13:09.650, 0.524, 0.425, 0.735, 0.061, 0.122, 0.183, 30.234, -31.882, -157.489, -13.707, -17.693, -4.113, 28.48, 0.25089, -0.2113, -0.29752, -0.89655,
 14:27:35.034,e3:ca:2d:fd:e0:8c, 2015-01-01 02:13:10.570, 0.904, -0.062, 0.468, 0.122, 0.183, 0.061, -7.405, -62.358, 169.354, -22.173, -8.460, -15.480, 30.48, 0.11276, 0.50934, -0.1033, 0.8468,
 14:27:35.034,e3:ca:2d:fd:e0:8c, 2015-01-01 02:13:10.570, 0.903, -0.061, 0.469, 0.061, 0.305, 0.061, -7.405, -62.353, 169.365, -22.173, -8.460, -15.480, 30.48, 0.11276, 0.50934, -0.1033, 0.8468,
 14:27:35.036,ed:35:33:d3:6c:f8, 2015-01-01 02:13:09.825, 0.385, 0.475, 0.79, -0.122, -0.305, 0.122, 30.921, -22.945, 119.586, -9.920, -18.773, -27.080, 30.91, 0.43124, 0.29736, 0.12875, 0.84198,
 14:27:35.036,ed:35:33:d3:6c:f8, 2015-01-01 02:13:09.825, 0.387, 0.473, 0.789, -0.061, -0.671, 0.305, 30.921, -22.956, 119.586, -9.920, -18.773, -27.080, 30.91, 0.43124, 0.29736, 0.12875, 0.84198,
 14:27:35.056,ed:40:fe:65:30:6c, 2015-01-01 02:13:09.650, 0.525, 0.423, 0.733, 0.122, 0, 0.244, 30.234, -31.888, -157.478, -13.707, -17.693, -4.113, 28.48, 0.25089, -0.2113, -0.29752, -0.89655,
 14:27:35.056,ed:40:fe:65:30:6c, 2015-01-01 02:13:09.650, 0.526, 0.418, 0.733, 0, -0.122, 0.122, 30.229, -31.888, -157.467, -13.707, -17.693, -4.113, 28.48, 0.25089, -0.2113, -0.29752, -0.89655,
 14:27:35.058,f6:90:cc:01:6d:25, 2015-01-01 02:13:08.970, 0.873, 0.233, 0.395, 0.061, 0.061, 0.122, 30.493, -62.331, 166.998, -24.747, -14.920, -8.480, 32.68, 0.04175, -0.52151, -0.16705, -0.8356,
 14:27:35.058,f6:90:cc:01:6d:25, 2015-01-01 02:13:08.970, 0.874, 0.232, 0.396, 0, 0, 0.183, 30.487, -62.331, 166.987, -24.747, -14.920, -8.480, 32.68, 0.04175, -0.52151, -0.16705, -0.8356,
 14:27:35.078,e3:ca:2d:fd:e0:8c, 2015-01-01 02:13:10.570, 0.902, -0.062, 0.469, 0, 0.366, 0, -7.405, -62.347, 169.371, -22.173, -8.460, -15.480, 30.48, 0.11276, 0.50934, -0.1033, 0.8468,
 14:27:35.078,e3:ca:2d:fd:e0:8c, 2015-01-01 02:13:10.570, 0.902, -0.062, 0.471, 0, 0.305, 0, -7.405, -62.336, 169.376, -22.173, -8.460, -15.480, 30.48, 0.11276, 0.50934, -0.1033, 0.8468,
 14:27:35.081,f6:90:cc:01:6d:25, 2015-01-01 02:13:09.285, 0.874, 0.233, 0.396, 0, -0.061, 0.061, 30.487, -62.331, 166.981, -24.747, -14.920, -8.480, 32.68, 0.04175, -0.52151, -0.16705, -0.8356,
 14:27:35.081,f6:90:cc:01:6d:25, 2015-01-01 02:13:09.285, 0.874, 0.232, 0.396, 0, -0.061, 0, 30.487, -62.331, 166.965, -24.747, -14.920, -8.480, 32.68, 0.04175, -0.52151, -0.16705, -0.8356,
 14:27:35.103,ed:35:33:d3:6c:f8, 2015-01-01 02:13:09.825, 0.387, 0.466, 0.786, -0.183, -0.305, 0, 30.921, -22.961, 119.619, -9.920, -18.773, -27.080, 30.91, 0.43124, 0.29736, 0.12875, 0.84198,
 14:27:35.103,ed:35:33:d3:6c:f8, 2015-01-01 02:13:09.825, 0.386, 0.469, 0.788, -0.122, -0.061, -0.183, 30.921, -22.961, 119.691, -9.920, -18.773, -27.080, 30.91, 0.43124, 0.29736, 0.12875, 0.84198,
 14:27:35.124,ed:40:fe:65:30:6c, 2015-01-01 02:13:09.650, 0.526, 0.418, 0.733, 0.122, 0, -0.061, 30.229, -31.888, -157.462, -13.707, -17.693, -4.113, 28.48, 0.25089, -0.2113, -0.29752, -0.89655,
 14:27:35.124,ed:40:fe:65:30:6c, 2015-01-01 02:13:09.650, 0.526, 0.421, 0.734, 0.183, 0, -0.061, 30.229, -31.888, -157.456, -13.707, -17.693, -4.113, 28.48, 0.25089, -0.2113, -0.29752, -0.89655,
 14:27:35.125,ed:35:33:d3:6c:f8, 2015-01-01 02:13:09.825, 0.387, 0.473, 0.789, 0, -0.244, -0.061, 30.921, -22.961, 119.756, -10.113, -18.500, -26.427, 30.91, 0.43124, 0.29736, 0.12875, 0.84198,
 14:27:35.125,ed:35:33:d3:6c:f8, 2015-01-01 02:13:09.825, 0.388, 0.474, 0.788, 0.183, -0.61, 0.061, 30.927, -22.967, 119.789, -10.113, -18.500, -26.427, 30.91, 0.43124, 0.29736, 0.12875, 0.84198,
 14:27:35.126,f6:90:cc:01:6d:25, 2015-01-01 02:13:09.285, 0.875, 0.233, 0.396, -0.061, -0.061, 0, 30.487, -62.331, 166.948, -24.747, -14.920, -8.480, 32.68, 0.04175, -0.52151, -0.16705, -0.8356,
 14:27:35.126,f6:90:cc:01:6d:25, 2015-01-01 02:13:09.285, 0.875, 0.231, 0.396, -0.122, 0, -0.061, 30.487, -62.331, 166.932, -24.747, -14.920, -8.480, 32.68, 0.04175, -0.52151, -0.16705, -0.8356,
 14:27:35.145,e3:ca:2d:fd:e0:8c, 2015-01-01 02:13:10.570, 0.902, -0.062, 0.471, 0.183, 0.122, 0.061, -7.405, -62.336, 169.382, -22.060, -8.253, -14.893, 30.48, 0.11276, 0.50934, -0.1033, 0.8468,
 14:27:35.145,e3:ca:2d:fd:e0:8c, 2015-01-01 02:13:10.570, 0.902, -0.061, 0.471, 0.183, 0.061, 0.061, -7.405, -62.331, 169.393, -22.060, -8.253, -14.893, 30.48, 0.11276, 0.50934, -0.1033, 0.8468,
 14:27:35.147,ed:40:fe:65:30:6c, 2015-01-01 02:13:09.650, 0.527, 0.424, 0.735, 0.305, 0, -0.061, 30.234, -31.888, -157.451, -13.893, -17.567, -4.693, 28.48, 0.25089, -0.2113, -0.29752, -0.89655,
 14:27:35.147,ed:40:fe:65:30:6c, 2015-01-01 02:13:09.650, 0.528, 0.423, 0.734, 0.366, 0, 0, 30.234, -31.882, -157.44, -13.893, -17.567, -4.693, 28.48, 0.25089, -0.2113, -0.29752, -0.89655,
 14:27:35.168,e3:ca:2d:fd:e0:8c, 2015-01-01 02:13:10.570, 0.902, -0.061, 0.472, 0.061, 0, 0, -7.405, -62.331, 169.398, -22.060, -8.253, -14.893, 30.48, 0.11212, 0.50912, -0.10269, 0.84711,
 14:27:35.168,e3:ca:2d:fd:e0:8c, 2015-01-01 02:13:10.570, 0.903, -0.062, 0.471, 0, -0.061, 0, -7.405, -62.331, 169.409, -22.060, -8.253, -14.893, 30.48, 0.11212, 0.50912, -0.10269, 0.84711,
 14:27:35.170,ed:35:33:d3:6c:f8, 2015-01-01 02:13:09.825, 0.389, 0.473, 0.788, 0.305, -0.61, 0.122, 30.938, -22.978, 119.8, -10.113, -18.500, -26.427, 30.91, 0.43124, 0.29736, 0.12875, 0.84198,
 14:27:35.170,ed:35:33:d3:6c:f8, 2015-01-01 02:13:09.825, 0.387, 0.472, 0.789, 0, -0.183, -0.061, 30.938, -22.983, 119.751, -10.113, -18.500, -26.427, 30.91, 0.43124, 0.29736, 0.12875, 0.84198,
 14:27:35.170,f6:90:cc:01:6d:25, 2015-01-01 02:13:09.285, 0.875, 0.23, 0.395, 0, 0, 0, 30.487, -62.331, 166.921, -24.747, -14.920, -8.480, 32.68, 0.04175, -0.52151, -0.16705, -0.8356,
 14:27:35.170,f6:90:cc:01:6d:25, 2015-01-01 02:13:09.285, 0.874, 0.23, 0.395, 0.061, 0.061, -0.061, 30.487, -62.331, 166.904, -24.747, -14.920, -8.480, 32.68, 0.04175, -0.52151, -0.16705, -0.8356,
 14:27:35.191,ed:40:fe:65:30:6c, 2015-01-01 02:13:09.650, 0.526, 0.423, 0.736, 0.183, 0.122, 0, 30.234, -31.882, -157.434, -13.893, -17.567, -4.693, 28.48, 0.25089, -0.2113, -0.29752, -0.89655,
 14:27:35.191,ed:40:fe:65:30:6c, 2015-01-01 02:13:09.650, 0.525, 0.421, 0.735, 0.122, 0.122, 0, 30.234, -31.882, -157.423, -13.893, -17.567, -4.693, 28.48, 0.25089, -0.2113, -0.29752, -0.89655,
 14:27:35.213,e3:ca:2d:fd:e0:8c, 2015-01-01 02:13:10.570, 0.904, -0.063, 0.47, 0.061, -0.061, 0, -7.405, -62.331, 169.415, -22.060, -8.253, -14.893, 30.48, 0.11212, 0.50912, -0.10269, 0.84711,
 14:27:35.213,e3:ca:2d:fd:e0:8c, 2015-01-01 02:13:10.570, 0.903, -0.063, 0.47, 0.122, -0.122, 0, -7.405, -62.331, 169.42, -22.060, -8.253, -14.893, 30.48, 0.11212, 0.50912, -0.10269, 0.84711,
 14:27:35.216,f6:90:cc:01:6d:25, 2015-01-01 02:13:09.285, 0.875, 0.231, 0.395, 0.061, 0.061, -0.061, 30.487, -62.325, 166.893, -24.747, -14.920, -8.480, 32.68, 0.04175, -0.52151, -0.16705, -0.8356,
 14:27:35.216,f6:90:cc:01:6d:25, 2015-01-01 02:13:09.285, 0.874, 0.232, 0.395, 0, 0.061, 0, 30.487, -62.325, 166.882, -24.747, -14.920, -8.480, 32.68, 0.04175, -0.52151, -0.16705, -0.8356,
 14:27:35.235,e3:ca:2d:fd:e0:8c, 2015-01-01 02:13:10.905, 0.904, -0.063, 0.47, 0.122, -0.244, 0, -7.405, -62.336, 169.431, -22.060, -8.253, -14.893, 30.48, 0.11212, 0.50912, -0.10269, 0.84711,
 14:27:35.235,e3:ca:2d:fd:e0:8c, 2015-01-01 02:13:10.905, 0.904, -0.062, 0.47, 0.061, -0.122, 0, -7.405, -62.336, 169.437, -22.060, -8.253, -14.893, 30.48, 0.11212, 0.50912, -0.10269, 0.84711,
 14:27:35.236,ed:40:fe:65:30:6c, 2015-01-01 02:13:09.650, 0.526, 0.422, 0.732, 0.122, 0.061, 0, 30.234, -31.877, -157.418, -13.893, -17.567, -4.693, 28.48, 0.25189, -0.21094, -0.29779, -0.89624,
 14:27:35.236,ed:40:fe:65:30:6c, 2015-01-01 02:13:09.650, 0.526, 0.423, 0.732, 0.061, 0.244, -0.122, 30.229, -31.877, -157.412, -13.893, -17.567, -4.693, 28.48, 0.25189, -0.21094, -0.29779, -0.89624,
 14:27:35.237,ed:35:33:d3:6c:f8, 2015-01-01 02:13:09.825, 0.388, 0.471, 0.789, -0.122, -0.366, 0, 30.938, -22.989, 119.713, -10.113, -18.500, -26.427, 30.91, 0.42798, 0.29724, 0.1297, 0.84354,
 14:27:35.237,ed:35:33:d3:6c:f8, 2015-01-01 02:13:09.825, 0.388, 0.47, 0.786, -0.122, -0.549, -0.061, 30.938, -22.994, 119.702, -10.113, -18.500, -26.427, 30.91, 0.42798, 0.29724, 0.1297, 0.84354,
 14:27:35.260,ed:35:33:d3:6c:f8, 2015-01-01 02:13:10.205, 0.389, 0.472, 0.785, 0, 0, -0.427, 30.943, -22.989, 119.745, -10.113, -18.500, -26.427, 30.91, 0.42798, 0.29724, 0.1297, 0.84354,
 14:27:35.260,ed:35:33:d3:6c:f8, 2015-01-01 02:13:10.205, 0.39, 0.473, 0.788, 0, 0, -0.244, 30.943, -22.989, 119.767, -10.113, -18.500, -26.427, 30.91, 0.42798, 0.29724, 0.1297, 0.84354,
 14:27:35.261,f6:90:cc:01:6d:25, 2015-01-01 02:13:09.285, 0.874, 0.231, 0.393, 0, 0.061, 0, 30.487, -62.325, 166.866, -24.747, -14.920, -8.480, 32.68, 0.04175, -0.52151, -0.16705, -0.8356,
 14:27:35.261,f6:90:cc:01:6d:25, 2015-01-01 02:13:09.285, 0.874, 0.231, 0.395, 0, 0.061, 0, 30.482, -62.325, 166.855, -24.747, -14.920, -8.480, 32.68, 0.04175, -0.52151, -0.16705, -0.8356,
 14:27:35.282,e3:ca:2d:fd:e0:8c, 2015-01-01 02:13:10.905, 0.904, -0.061, 0.47, 0, -0.122, -0.061, -7.405, -62.342, 169.442, -22.060, -8.253, -14.893, 30.48, 0.11212, 0.50912, -0.10269, 0.84711,
 14:27:35.282,e3:ca:2d:fd:e0:8c, 2015-01-01 02:13:10.905, 0.904, -0.061, 0.47, 0.061, -0.244, 0, -7.405, -62.342, 169.448, -22.060, -8.253, -14.893, 30.48, 0.11212, 0.50912, -0.10269, 0.84711,
 14:27:35.282,ed:35:33:d3:6c:f8, 2015-01-01 02:13:10.205, 0.387, 0.472, 0.79, -0.061, 0, -0.305, 30.943, -22.983, 119.762, -10.113, -18.500, -26.427, 30.91, 0.42798, 0.29724, 0.1297, 0.84354,
 14:27:35.282,ed:35:33:d3:6c:f8, 2015-01-01 02:13:10.205, 0.387, 0.47, 0.791, -0.122, -0.305, -0.183, 30.943, -22.983, 119.762, -10.113, -18.500, -26.427, 30.91, 0.42798, 0.29724, 0.1297, 0.84354,
 14:27:35.283,f6:90:cc:01:6d:25, 2015-01-01 02:13:09.285, 0.875, 0.232, 0.395, 0, 0, -0.061, 30.487, -62.325, 166.844, -24.520, -14.887, -8.353, 32.68, 0.04175, -0.52151, -0.16705, -0.8356,
 14:27:35.283,f6:90:cc:01:6d:25, 2015-01-01 02:13:09.285, 0.874, 0.233, 0.395, 0, 0, -0.183, 30.487, -62.325, 166.827, -24.520, -14.887, -8.353, 32.68, 0.04175, -0.52151, -0.16705, -0.8356,
 14:27:35.305,ed:40:fe:65:30:6c, 2015-01-01 02:13:09.650, 0.528, 0.423, 0.733, 0.305, 0.305, -0.061, 30.229, -31.871, -157.401, -13.893, -17.567, -4.693, 28.48, 0.25189, -0.21094, -0.29779, -0.89624,
 14:27:35.305,ed:40:fe:65:30:6c, 2015-01-01 02:13:09.650, 0.527, 0.422, 0.736, 0.183, 0.244, 0, 30.229, -31.866, -157.396, -13.893, -17.567, -4.693, 28.48, 0.25189, -0.21094, -0.29779, -0.89624,
 14:27:35.325,e3:ca:2d:fd:e0:8c, 2015-01-01 02:13:10.905, 0.903, -0.062, 0.47, 0.122, -0.305, 0, -7.405, -62.347, 169.453, -22.060, -8.253, -14.893, 30.48, 0.11212, 0.50912, -0.10269, 0.84711,
 14:27:35.325,e3:ca:2d:fd:e0:8c, 2015-01-01 02:13:10.905, 0.903, -0.061, 0.47, 0.122, -0.366, 0, -7.405, -62.353, 169.464, -22.060, -8.253, -14.893, 30.48, 0.11212, 0.50912, -0.10269, 0.84711,
 14:27:35.326,ed:40:fe:65:30:6c, 2015-01-01 02:13:10.010, 0.525, 0.421, 0.737, 0.122, 0.061, -0.061, 30.229, -31.86, -157.385, -13.893, -17.567, -4.693, 28.48, 0.25189, -0.21094, -0.29779, -0.89624,
 14:27:35.326,ed:40:fe:65:30:6c, 2015-01-01 02:13:10.010, 0.525, 0.421, 0.735, 0.122, -0.061, -0.244, 30.229, -31.86, -157.385, -13.893, -17.567, -4.693, 28.48, 0.25189, -0.21094, -0.29779, -0.89624,
 14:27:35.328,ed:35:33:d3:6c:f8, 2015-01-01 02:13:10.205, 0.387, 0.47, 0.789, -0.061, -0.366, -0.549, 30.948, -22.983, 119.784, -10.113, -18.500, -26.427, 30.91, 0.42798, 0.29724, 0.1297, 0.84354,
 14:27:35.328,ed:35:33:d3:6c:f8, 2015-01-01 02:13:10.205, 0.388, 0.473, 0.789, 0, -0.488, -0.61, 30.948, -22.983, 119.811, -10.113, -18.500, -26.427, 30.91, 0.42798, 0.29724, 0.1297, 0.84354,
 14:27:35.329,f6:90:cc:01:6d:25, 2015-01-01 02:13:09.285, 0.874, 0.234, 0.395, -0.061, 0, -0.183, 30.493, -62.32, 166.805, -24.520, -14.887, -8.353, 32.68, 0.04175, -0.52151, -0.16705, -0.8356,
 14:27:35.329,f6:90:cc:01:6d:25, 2015-01-01 02:13:09.285, 0.874, 0.233, 0.396, -0.122, 0, -0.305, 30.498, -62.32, 166.783, -24.520, -14.887, -8.353, 32.68, 0.04175, -0.52151, -0.16705, -0.8356,
 14:27:35.349,ed:40:fe:65:30:6c, 2015-01-01 02:13:10.010, 0.525, 0.423, 0.734, 0.244, -0.122, -0.366, 30.234, -31.86, -157.39, -13.893, -17.567, -4.693, 28.48, 0.25189, -0.21094, -0.29779, -0.89624,
 14:27:35.349,ed:40:fe:65:30:6c, 2015-01-01 02:13:10.010, 0.526, 0.424, 0.734, 0.183, -0.183, -0.427, 30.24, -31.86, -157.396, -13.893, -17.567, -4.693, 28.48, 0.25189, -0.21094, -0.29779, -0.89624,
 14:27:35.371,e3:ca:2d:fd:e0:8c, 2015-01-01 02:13:10.905, 0.904, -0.061, 0.469, 0.122, -0.488, 0, -7.405, -62.364, 169.47, -22.060, -8.253, -14.893, 30.48, 0.11212, 0.50912, -0.10269, 0.84711,
 14:27:35.371,e3:ca:2d:fd:e0:8c, 2015-01-01 02:13:10.905, 0.904, -0.062, 0.47, 0.122, -0.488, 0, -7.405, -62.375, 169.481, -22.060, -8.253, -14.893, 30.48, 0.11212, 0.50912, -0.10269, 0.84711,
 14:27:35.373,ed:35:33:d3:6c:f8, 2015-01-01 02:13:10.205, 0.388, 0.473, 0.788, 0, -0.549, -0.61, 30.959, -22.983, 119.817, -10.113, -18.500, -26.427, 30.91, 0.42798, 0.29724, 0.1297, 0.84354,
 14:27:35.373,ed:35:33:d3:6c:f8, 2015-01-01 02:13:10.205, 0.387, 0.474, 0.786, 0, -0.488, -0.61, 30.965, -22.989, 119.795, -10.113, -18.500, -26.427, 30.91, 0.42798, 0.29724, 0.1297, 0.84354,
 14:27:35.374,f6:90:cc:01:6d:25, 2015-01-01 02:13:09.285, 0.874, 0.232, 0.395, -0.122, 0, -0.305, 30.509, -62.314, 166.761, -24.520, -14.887, -8.353, 32.68, 0.04028, -0.52176, -0.16617, -0.83572,
 14:27:35.374,f6:90:cc:01:6d:25, 2015-01-01 02:13:09.285, 0.873, 0.234, 0.396, -0.061, 0, -0.244, 30.515, -62.314, 166.74, -24.520, -14.887, -8.353, 32.68, 0.04028, -0.52176, -0.16617, -0.83572,
 14:27:35.393,e3:ca:2d:fd:e0:8c, 2015-01-01 02:13:10.905, 0.903, -0.062, 0.47, 0.183, -0.549, 0, -7.405, -62.38, 169.492, -22.060, -8.253, -14.893, 30.48, 0.11212, 0.50912, -0.10269, 0.84711,
 14:27:35.393,e3:ca:2d:fd:e0:8c, 2015-01-01 02:13:10.905, 0.904, -0.062, 0.469, 0.244, -0.671, 0, -7.405, -62.391, 169.497, -22.060, -8.253, -14.893, 30.48, 0.11212, 0.50912, -0.10269, 0.84711,
 14:27:35.395,ed:40:fe:65:30:6c, 2015-01-01 02:13:10.010, 0.526, 0.425, 0.733, 0.183, -0.122, -0.488, 30.245, -31.855, -157.401, -13.893, -17.567, -4.693, 28.48, 0.25189, -0.21094, -0.29779, -0.89624,
 14:27:35.395,ed:40:fe:65:30:6c, 2015-01-01 02:13:10.010, 0.525, 0.425, 0.733, 0.183, 0, -0.488, 30.251, -31.849, -157.401, -13.893, -17.567, -4.693, 28.48, 0.25189, -0.21094, -0.29779, -0.89624,
 14:27:35.419,f6:90:cc:01:6d:25, 2015-01-01 02:13:09.595, 0.874, 0.234, 0.395, -0.122, 0, -0.244, 30.52, -62.309, 166.718, -24.520, -14.887, -8.353, 32.68, 0.04028, -0.52176, -0.16617, -0.83572,
 14:27:35.421,f6:90:cc:01:6d:25, 2015-01-01 02:13:09.595, 0.875, 0.234, 0.395, -0.244, 0.061, -0.122, 30.52, -62.309, 166.701, -24.520, -14.887, -8.353, 32.68, 0.04028, -0.52176, -0.16617, -0.83572,
 14:27:35.438,e3:ca:2d:fd:e0:8c, 2015-01-01 02:13:10.905, 0.905, -0.062, 0.469, 0.244, -0.671, 0, -7.405, -62.408, 169.508, -22.060, -8.253, -14.893, 30.48, 0.11212, 0.50912, -0.10269, 0.84711,
 14:27:35.438,e3:ca:2d:fd:e0:8c, 2015-01-01 02:13:10.905, 0.904, -0.062, 0.468, 0.244, -0.732, 0, -7.405, -62.419, 169.519, -22.060, -8.253, -14.893, 30.48, 0.11212, 0.50912, -0.10269, 0.84711,
 14:27:35.439,ed:40:fe:65:30:6c, 2015-01-01 02:13:10.010, 0.527, 0.425, 0.733, 0.122, -0.061, -0.488, 30.256, -31.844, -157.407, -13.893, -17.567, -4.693, 28.48, 0.25189, -0.21094, -0.29779, -0.89624,
 14:27:35.439,ed:40:fe:65:30:6c, 2015-01-01 02:13:10.010, 0.527, 0.425, 0.733, 0, 0, -0.488, 30.262, -31.838, -157.412, -13.893, -17.567, -4.693, 28.48, 0.25189, -0.21094, -0.29779, -0.89624,
 14:27:35.461,ed:40:fe:65:30:6c, 2015-01-01 02:13:10.010, 0.527, 0.425, 0.734, -0.061, 0, -0.427, 30.262, -31.838, -157.412, -13.893, -17.567, -4.693, 28.48, 0.25189, -0.21094, -0.29779, -0.89624,
 14:27:35.461,ed:40:fe:65:30:6c, 2015-01-01 02:13:10.010, 0.524, 0.424, 0.734, 0, 0.061, -0.244, 30.262, -31.833, -157.412, -13.893, -17.567, -4.693, 28.48, 0.25189, -0.21094, -0.29779, -0.89624,
 14:27:35.464,ed:35:33:d3:6c:f8, 2015-01-01 02:13:10.205, 0.387, 0.475, 0.786, -0.122, -0.427, -0.732, 30.97, -22.983, 119.773, -10.113, -18.500, -26.427, 30.91, 0.42798, 0.29724, 0.1297, 0.84354,
 14:27:35.464,ed:35:33:d3:6c:f8, 2015-01-01 02:13:10.205, 0.389, 0.475, 0.786, -0.183, -0.488, -0.854, 30.97, -22.983, 119.745, -10.113, -18.500, -26.427, 30.91, 0.42798, 0.29724, 0.1297, 0.84354,
 14:27:35.464,f6:90:cc:01:6d:25, 2015-01-01 02:13:09.595, 0.874, 0.232, 0.395, -0.366, 0.061, -0.061, 30.515, -62.309, 166.69, -24.520, -14.887, -8.353, 32.68, 0.04028, -0.52176, -0.16617, -0.83572,
 14:27:35.464,f6:90:cc:01:6d:25, 2015-01-01 02:13:09.595, 0.875, 0.232, 0.396, -0.427, 0.061, -0.061, 30.509, -62.303, 166.679, -24.520, -14.887, -8.353, 32.68, 0.04028, -0.52176, -0.16617, -0.83572,
 14:27:35.485,ed:35:33:d3:6c:f8, 2015-01-01 02:13:10.205, 0.389, 0.475, 0.787, -0.366, -0.549, -0.793, 30.976, -22.983, 119.724, -10.107, -18.740, -27.587, 30.91, 0.42798, 0.29724, 0.1297, 0.84354,
 14:27:35.485,ed:35:33:d3:6c:f8, 2015-01-01 02:13:10.205, 0.389, 0.476, 0.787, -0.366, -0.488, -0.671, 30.976, -22.983, 119.696, -10.107, -18.740, -27.587, 30.91, 0.42798, 0.29724, 0.1297, 0.84354,
 14:27:35.487,f6:90:cc:01:6d:25, 2015-01-01 02:13:09.595, 0.874, 0.231, 0.396, -0.366, 0.061, -0.061, 30.504, -62.303, 166.663, -24.520, -14.887, -8.353, 32.68, 0.04028, -0.52176, -0.16617, -0.83572,
 14:27:35.487,f6:90:cc:01:6d:25, 2015-01-01 02:13:09.595, 0.874, 0.232, 0.395, -0.244, 0, -0.061, 30.498, -62.303, 166.652, -24.520, -14.887, -8.353, 32.68, 0.04028, -0.52176, -0.16617, -0.83572,
 14:27:35.505,e3:ca:2d:fd:e0:8c, 2015-01-01 02:13:10.905, 0.905, -0.062, 0.468, 0.244, -0.732, 0, -7.405, -62.43, 169.53, -22.220, -8.207, -15.227, 30.48, 0.11212, 0.50912, -0.10269, 0.84711,
 14:27:35.505,e3:ca:2d:fd:e0:8c, 2015-01-01 02:13:10.905, 0.905, -0.062, 0.467, 0.183, -0.671, 0, -7.405, -62.446, 169.536, -22.220, -8.207, -15.227, 30.48, 0.11212, 0.50912, -0.10269, 0.84711,
 14:27:35.507,ed:35:33:d3:6c:f8, 2015-01-01 02:13:10.205, 0.387, 0.475, 0.788, -0.183, -0.488, -0.427, 30.976, -22.989, 119.68, -10.107, -18.740, -27.587, 30.91, 0.42798, 0.29724, 0.1297, 0.84354,
 14:27:35.507,ed:35:33:d3:6c:f8, 2015-01-01 02:13:10.205, 0.388, 0.473, 0.787, 0, -0.427, -0.305, 30.981, -22.989, 119.663, -10.107, -18.740, -27.587, 30.91, 0.42798, 0.29724, 0.1297, 0.84354,
 14:27:35.529,e3:ca:2d:fd:e0:8c, 2015-01-01 02:13:10.905, 0.905, -0.061, 0.468, 0.244, -0.732, 0, -7.405, -62.457, 169.547, -22.220, -8.207, -15.227, 30.48, 0.11108, 0.51016, -0.10214, 0.84668,
 14:27:35.529,e3:ca:2d:fd:e0:8c, 2015-01-01 02:13:10.905, 0.905, -0.062, 0.468, 0.305, -0.732, 0, -7.405, -62.474, 169.557, -22.220, -8.207, -15.227, 30.48, 0.11108, 0.51016, -0.10214, 0.84668,
 14:27:35.532,f6:90:cc:01:6d:25, 2015-01-01 02:13:09.595, 0.875, 0.232, 0.396, -0.122, 0, -0.061, 30.498, -62.303, 166.641, -24.520, -14.887, -8.353, 32.68, 0.04028, -0.52176, -0.16617, -0.83572,
 14:27:35.532,f6:90:cc:01:6d:25, 2015-01-01 02:13:09.595, 0.874, 0.232, 0.396, -0.061, 0, 0, 30.498, -62.303, 166.63, -24.520, -14.887, -8.353, 32.68, 0.04028, -0.52176, -0.16617, -0.83572,
 14:27:35.551,ed:40:fe:65:30:6c, 2015-01-01 02:13:10.010, 0.525, 0.424, 0.733, 0.183, 0.061, -0.122, 30.262, -31.827, -157.412, -13.893, -17.567, -4.693, 28.48, 0.25189, -0.21094, -0.29779, -0.89624,
 14:27:35.553,ed:40:fe:65:30:6c, 2015-01-01 02:13:10.010, 0.526, 0.425, 0.735, 0.244, 0, -0.244, 30.267, -31.827, -157.407, -13.893, -17.567, -4.693, 28.48, 0.25189, -0.21094, -0.29779, -0.89624,
 14:27:35.554,ed:35:33:d3:6c:f8, 2015-01-01 02:13:10.205, 0.389, 0.474, 0.787, 0, -0.183, -0.549, 30.987, -22.989, 119.647, -10.107, -18.740, -27.587, 30.91, 0.42798, 0.29724, 0.1297, 0.84354,
 14:27:35.554,ed:35:33:d3:6c:f8, 2015-01-01 02:13:10.205, 0.388, 0.475, 0.786, 0, -0.061, -0.549, 30.992, -22.983, 119.63, -10.107, -18.740, -27.587, 30.91, 0.42798, 0.29724, 0.1297, 0.84354,
 14:27:35.573,e3:ca:2d:fd:e0:8c, 2015-01-01 02:13:10.905, 0.905, -0.062, 0.467, 0.244, -0.732, 0, -7.405, -62.485, 169.563, -22.220, -8.207, -15.227, 30.48, 0.11108, 0.51016, -0.10214, 0.84668,
 14:27:35.573,e3:ca:2d:fd:e0:8c, 2015-01-01 02:13:10.905, 0.905, -0.062, 0.467, 0.244, -0.732, 0, -7.405, -62.501, 169.574, -22.220, -8.207, -15.227, 30.48, 0.11108, 0.51016, -0.10214, 0.84668,
 14:27:35.574,ed:40:fe:65:30:6c, 2015-01-01 02:13:10.010, 0.526, 0.424, 0.734, 0.305, 0.061, -0.183, 30.273, -31.822, -157.407, -13.807, -17.387, -4.827, 28.48, 0.25189, -0.21094, -0.29779, -0.89624,
 14:27:35.574,ed:40:fe:65:30:6c, 2015-01-01 02:13:10.010, 0.525, 0.425, 0.734, 0.305, 0.061, -0.061, 30.273, -31.822, -157.401, -13.807, -17.387, -4.827, 28.48, 0.25189, -0.21094, -0.29779, -0.89624,
 14:27:35.575,ed:35:33:d3:6c:f8, 2015-01-01 02:13:10.205, 0.388, 0.475, 0.786, 0.061, -0.244, -0.305, 30.998, -22.983, 119.619, -10.107, -18.740, -27.587, 30.91, 0.42868, 0.29761, 0.12979, 0.84302,
 14:27:35.575,ed:35:33:d3:6c:f8, 2015-01-01 02:13:10.205, 0.389, 0.475, 0.787, 0.122, -0.305, -0.183, 31.003, -22.983, 119.608, -10.107, -18.740, -27.587, 30.91, 0.42868, 0.29761, 0.12979, 0.84302,
 14:27:35.578,f6:90:cc:01:6d:25, 2015-01-01 02:13:09.595, 0.873, 0.233, 0.395, -0.061, 0, 0, 30.498, -62.303, 166.619, -24.520, -14.887, -8.353, 32.68, 0.04028, -0.52176, -0.16617, -0.83572,
 14:27:35.578,f6:90:cc:01:6d:25, 2015-01-01 02:13:09.595, 0.874, 0.232, 0.395, -0.122, 0.061, 0, 30.493, -62.303, 166.608, -24.520, -14.887, -8.353, 32.68, 0.04028, -0.52176, -0.16617, -0.83572,
 14:27:35.595,e3:ca:2d:fd:e0:8c, 2015-01-01 02:13:11.260, 0.905, -0.062, 0.467, 0.305, -0.732, 0, -7.405, -62.512, 169.585, -22.220, -8.207, -15.227, 30.48, 0.11108, 0.51016, -0.10214, 0.84668,
 14:27:35.595,e3:ca:2d:fd:e0:8c, 2015-01-01 02:13:11.260, 0.905, -0.062, 0.466, 0.305, -0.732, 0, -7.405, -62.529, 169.59, -22.220, -8.207, -15.227, 30.48, 0.11108, 0.51016, -0.10214, 0.84668,
 14:27:35.621,ed:40:fe:65:30:6c, 2015-01-01 02:13:10.010, 0.525, 0.425, 0.734, 0.427, 0.122, 0, 30.278, -31.822, -157.396, -13.807, -17.387, -4.827, 28.48, 0.25189, -0.21094, -0.29779, -0.89624,
 14:27:35.621,ed:40:fe:65:30:6c, 2015-01-01 02:13:10.010, 0.525, 0.426, 0.734, 0.305, 0.061, 0, 30.284, -31.816, -157.39, -13.807, -17.387, -4.827, 28.48, 0.25189, -0.21094, -0.29779, -0.89624,
 14:27:35.621,ed:35:33:d3:6c:f8, 2015-01-01 02:13:10.205, 0.389, 0.475, 0.787, 0, -0.183, -0.244, 31.009, -22.983, 119.592, -10.107, -18.740, -27.587, 30.91, 0.42868, 0.29761, 0.12979, 0.84302,
 14:27:35.621,ed:35:33:d3:6c:f8, 2015-01-01 02:13:10.205, 0.388, 0.476, 0.787, -0.122, -0.122, -0.366, 31.009, -22.983, 119.581, -10.107, -18.740, -27.587, 30.91, 0.42868, 0.29761, 0.12979, 0.84302,
 14:27:35.622,f6:90:cc:01:6d:25, 2015-01-01 02:13:09.595, 0.875, 0.233, 0.395, -0.244, 0, 0, 30.487, -62.303, 166.597, -24.667, -15.520, -8.693, 32.68, 0.04028, -0.52176, -0.16617, -0.83572,
 14:27:35.622,f6:90:cc:01:6d:25, 2015-01-01 02:13:09.595, 0.875, 0.233, 0.396, -0.244, 0, 0, 30.487, -62.303, 166.586, -24.667, -15.520, -8.693, 32.68, 0.04028, -0.52176, -0.16617, -0.83572,
 14:27:35.640,e3:ca:2d:fd:e0:8c, 2015-01-01 02:13:11.260, 0.905, -0.062, 0.466, 0.366, -0.793, 0, -7.405, -62.54, 169.601, -22.220, -8.207, -15.227, 30.48, 0.11108, 0.51016, -0.10214, 0.84668,
 14:27:35.640,e3:ca:2d:fd:e0:8c, 2015-01-01 02:13:11.260, 0.905, -0.062, 0.466, 0.305, -0.916, 0, -7.405, -62.556, 169.612, -22.220, -8.207, -15.227, 30.48, 0.11108, 0.51016, -0.10214, 0.84668,
 14:27:35.641,ed:40:fe:65:30:6c, 2015-01-01 02:13:10.010, 0.526, 0.426, 0.734, 0.183, 0, 0, 30.284, -31.816, -157.385, -13.807, -17.387, -4.827, 28.48, 0.25223, -0.21021, -0.29822, -0.89618,
 14:27:35.641,ed:40:fe:65:30:6c, 2015-01-01 02:13:10.010, 0.525, 0.427, 0.734, 0.061, 0.061, 0, 30.284, -31.816, -157.379, -13.807, -17.387, -4.827, 28.48, 0.25223, -0.21021, -0.29822, -0.89618,
 14:27:35.643,ed:35:33:d3:6c:f8, 2015-01-01 02:13:10.585, 0.387, 0.476, 0.786, -0.122, -0.061, -0.427, 31.014, -22.978, 119.57, -10.107, -18.740, -27.587, 30.91, 0.42868, 0.29761, 0.12979, 0.84302,
 14:27:35.643,ed:35:33:d3:6c:f8, 2015-01-01 02:13:10.585, 0.387, 0.475, 0.788, -0.305, -0.122, -0.366, 31.014, -22.978, 119.559, -10.107, -18.740, -27.587, 30.91, 0.42868, 0.29761, 0.12979, 0.84302,
 14:27:35.668,f6:90:cc:01:6d:25, 2015-01-01 02:13:09.595, 0.873, 0.233, 0.396, -0.366, 0, 0.183, 30.471, -62.303, 166.586, -24.667, -15.520, -8.693, 32.68, 0.03857, -0.52197, -0.16504, -0.83591,
 14:27:35.668,f6:90:cc:01:6d:25, 2015-01-01 02:13:09.595, 0.873, 0.233, 0.395, -0.427, 0, 0.183, 30.46, -62.303, 166.58, -24.667, -15.520, -8.693, 32.68, 0.03857, -0.52197, -0.16504, -0.83591,
 14:27:35.686,e3:ca:2d:fd:e0:8c, 2015-01-01 02:13:11.260, 0.906, -0.062, 0.465, 0.366, -0.916, 0, -7.405, -62.573, 169.623, -22.220, -8.207, -15.227, 30.48, 0.11108, 0.51016, -0.10214, 0.84668,
 14:27:35.686,e3:ca:2d:fd:e0:8c, 2015-01-01 02:13:11.260, 0.906, -0.062, 0.465, 0.427, -0.793, 0, -7.399, -62.589, 169.634, -22.220, -8.207, -15.227, 30.48, 0.11108, 0.51016, -0.10214, 0.84668,
 14:27:35.686,ed:40:fe:65:30:6c, 2015-01-01 02:13:10.010, 0.524, 0.426, 0.735, 0, 0.122, 0, 30.278, -31.816, -157.374, -13.807, -17.387, -4.827, 28.48, 0.25223, -0.21021, -0.29822, -0.89618,
 14:27:35.686,ed:40:fe:65:30:6c, 2015-01-01 02:13:10.010, 0.524, 0.424, 0.735, -0.061, 0.122, 0, 30.278, -31.811, -157.363, -13.807, -17.387, -4.827, 28.48, 0.25223, -0.21021, -0.29822, -0.89618,
 14:27:35.687,ed:35:33:d3:6c:f8, 2015-01-01 02:13:10.585, 0.388, 0.474, 0.788, -0.366, -0.366, -0.305, 31.009, -22.978, 119.542, -10.107, -18.740, -27.587, 30.91, 0.42868, 0.29761, 0.12979, 0.84302,
 14:27:35.687,ed:35:33:d3:6c:f8, 2015-01-01 02:13:10.585, 0.39, 0.474, 0.787, -0.183, -0.488, -0.183, 31.009, -22.983, 119.531, -10.107, -18.740, -27.587, 30.91, 0.42868, 0.29761, 0.12979, 0.84302,
 14:27:35.689,f6:90:cc:01:6d:25, 2015-01-01 02:13:09.885, 0.873, 0.233, 0.396, -0.427, 0, 0.183, 30.443, -62.303, 166.58, -24.667, -15.520, -8.693, 32.68, 0.03857, -0.52197, -0.16504, -0.83591,
 14:27:35.689,f6:90:cc:01:6d:25, 2015-01-01 02:13:09.885, 0.874, 0.23, 0.396, -0.366, -0.061, 0.122, 30.432, -62.309, 166.575, -24.667, -15.520, -8.693, 32.68, 0.03857, -0.52197, -0.16504, -0.83591,
 14:27:35.709,ed:40:fe:65:30:6c, 2015-01-01 02:13:10.430, 0.526, 0.423, 0.735, 0, 0.061, 0.061, 30.273, -31.811, -157.357, -13.807, -17.387, -4.827, 28.48, 0.25223, -0.21021, -0.29822, -0.89618,
 14:27:35.709,ed:40:fe:65:30:6c, 2015-01-01 02:13:10.430, 0.526, 0.424, 0.733, 0, 0.183, 0.183, 30.267, -31.811, -157.346, -13.807, -17.387, -4.827, 28.48, 0.25223, -0.21021, -0.29822, -0.89618,
 14:27:35.731,e3:ca:2d:fd:e0:8c, 2015-01-01 02:13:11.260, 0.905, -0.062, 0.465, 0.305, -0.732, 0, -7.399, -62.606, 169.64, -22.220, -8.207, -15.227, 30.48, 0.11108, 0.51016, -0.10214, 0.84668,
 14:27:35.731,e3:ca:2d:fd:e0:8c, 2015-01-01 02:13:11.260, 0.905, -0.062, 0.465, 0.305, -0.854, 0, -7.399, -62.622, 169.651, -22.220, -8.207, -15.227, 30.48, 0.11108, 0.51016, -0.10214, 0.84668,
 14:27:35.733,ed:35:33:d3:6c:f8, 2015-01-01 02:13:10.585, 0.388, 0.473, 0.786, -0.122, -0.488, -0.061, 31.009, -22.989, 119.52, -10.107, -18.740, -27.587, 30.91, 0.42868, 0.29761, 0.12979, 0.84302,
 14:27:35.734,ed:35:33:d3:6c:f8, 2015-01-01 02:13:10.585, 0.387, 0.473, 0.786, 0, -0.244, -0.305, 31.014, -22.989, 119.504, -10.107, -18.740, -27.587, 30.91, 0.42868, 0.29761, 0.12979, 0.84302,
 14:27:35.735,f6:90:cc:01:6d:25, 2015-01-01 02:13:09.885, 0.874, 0.232, 0.396, -0.305, 0, 0.122, 30.427, -62.309, 166.569, -24.667, -15.520, -8.693, 32.68, 0.03857, -0.52197, -0.16504, -0.83591,
 14:27:35.735,f6:90:cc:01:6d:25, 2015-01-01 02:13:09.885, 0.874, 0.232, 0.397, -0.244, -0.061, 0.061, 30.421, -62.309, 166.558, -24.667, -15.520, -8.693, 32.68, 0.03857, -0.52197, -0.16504, -0.83591,
 14:27:35.754,ed:40:fe:65:30:6c, 2015-01-01 02:13:10.430, 0.523, 0.424, 0.734, 0.122, 0.183, 0.122, 30.262, -31.805, -157.335, -13.807, -17.387, -4.827, 28.48, 0.25223, -0.21021, -0.29822, -0.89618,
 14:27:35.754,ed:40:fe:65:30:6c, 2015-01-01 02:13:10.430, 0.524, 0.422, 0.735, 0.305, 0.244, 0.122, 30.262, -31.805, -157.324, -13.807, -17.387, -4.827, 28.48, 0.25223, -0.21021, -0.29822, -0.89618,
 14:27:35.775,e3:ca:2d:fd:e0:8c, 2015-01-01 02:13:11.260, 0.905, -0.062, 0.466, 0.427, -0.977, 0, -7.399, -62.639, 169.662, -22.220, -8.207, -15.227, 30.48, 0.11108, 0.51016, -0.10214, 0.84668,
 14:27:35.775,e3:ca:2d:fd:e0:8c, 2015-01-01 02:13:11.260, 0.906, -0.063, 0.464, 0.366, -0.977, 0.305, -7.405, -62.655, 169.678, -22.220, -8.207, -15.227, 30.48, 0.11108, 0.51016, -0.10214, 0.84668,
 14:27:35.778,ed:35:33:d3:6c:f8, 2015-01-01 02:13:10.585, 0.389, 0.474, 0.785, 0.122, 0, -0.061, 31.02, -22.989, 119.498, -10.107, -18.740, -27.587, 30.91, 0.42868, 0.29761, 0.12979, 0.84302,
 14:27:35.778,ed:35:33:d3:6c:f8, 2015-01-01 02:13:10.585, 0.39, 0.473, 0.781, 0, 0.305, -0.122, 31.02, -22.983, 119.498, -10.107, -18.740, -27.587, 30.91, 0.42868, 0.29761, 0.12979, 0.84302,
 14:27:35.779,f6:90:cc:01:6d:25, 2015-01-01 02:13:09.885, 0.874, 0.229, 0.396, 0, 0, 0, 30.421, -62.309, 166.547, -24.667, -15.520, -8.693, 32.68, 0.03857, -0.52197, -0.16504, -0.83591,
 14:27:35.779,f6:90:cc:01:6d:25, 2015-01-01 02:13:09.885, 0.875, 0.231, 0.396, 0, 0.061, 0.061, 30.416, -62.309, 166.542, -24.667, -15.520, -8.693, 32.68, 0.03857, -0.52197, -0.16504, -0.83591,
 14:27:35.798,e3:ca:2d:fd:e0:8c, 2015-01-01 02:13:11.260, 0.906, -0.063, 0.465, 0.427, -0.854, 0.183, -7.41, -62.672, 169.7, -22.367, -8.487, -14.653, 30.48, 0.11108, 0.51016, -0.10214, 0.84668,
 14:27:35.798,e3:ca:2d:fd:e0:8c, 2015-01-01 02:13:11.260, 0.907, -0.063, 0.463, 0.366, -0.793, 0.183, -7.421, -62.688, 169.717, -22.367, -8.487, -14.653, 30.48, 0.11108, 0.51016, -0.10214, 0.84668,
 14:27:35.799,ed:40:fe:65:30:6c, 2015-01-01 02:13:10.430, 0.526, 0.424, 0.73, 0.366, 0.366, 0.244, 30.262, -31.8, -157.313, -13.807, -17.387, -4.827, 28.48, 0.25223, -0.21021, -0.29822, -0.89618,
 14:27:35.799,ed:40:fe:65:30:6c, 2015-01-01 02:13:10.430, 0.528, 0.426, 0.734, 0.183, 0.793, 0.183, 30.256, -31.789, -157.297, -13.807, -17.387, -4.827, 28.48, 0.25223, -0.21021, -0.29822, -0.89618,
 14:27:35.801,ed:35:33:d3:6c:f8, 2015-01-01 02:13:10.585, 0.391, 0.476, 0.787, 0, 0.793, -0.366, 31.02, -22.967, 119.493, -10.107, -18.740, -27.587, 30.91, 0.42868, 0.29761, 0.12979, 0.84302,
 14:27:35.801,ed:35:33:d3:6c:f8, 2015-01-01 02:13:10.585, 0.387, 0.477, 0.793, 0.061, 0.244, 0, 31.02, -22.961, 119.493, -10.107, -18.740, -27.587, 30.91, 0.42868, 0.29761, 0.12979, 0.84302,
 14:27:35.822,ed:40:fe:65:30:6c, 2015-01-01 02:13:10.430, 0.526, 0.425, 0.737, 0.427, 0.732, 0.366, 30.256, -31.778, -157.275, -13.807, -17.387, -4.827, 28.48, 0.25223, -0.21021, -0.29822, -0.89618,
 14:27:35.822,ed:40:fe:65:30:6c, 2015-01-01 02:13:10.430, 0.521, 0.423, 0.737, 0.244, 0.427, 0.549, 30.251, -31.778, -157.253, -13.807, -17.387, -4.827, 28.48, 0.25223, -0.21021, -0.29822, -0.89618,
 14:27:35.824,f6:90:cc:01:6d:25, 2015-01-01 02:13:09.885, 0.876, 0.231, 0.397, 0.061, 0, 0.183, 30.41, -62.309, 166.542, -24.667, -15.520, -8.693, 32.68, 0.03857, -0.52197, -0.16504, -0.83591,
 14:27:35.824,f6:90:cc:01:6d:25, 2015-01-01 02:13:09.885, 0.875, 0.23, 0.394, 0.122, 0, 0.183, 30.405, -62.314, 166.536, -24.667, -15.520, -8.693, 32.68, 0.03857, -0.52197, -0.16504, -0.83591,
 14:27:35.843,e3:ca:2d:fd:e0:8c, 2015-01-01 02:13:11.260, 0.909, -0.063, 0.463, 0.244, -0.793, 0.183, -7.427, -62.699, 169.733, -22.367, -8.487, -14.653, 30.48, 0.11108, 0.51016, -0.10214, 0.84668,
 14:27:35.843,e3:ca:2d:fd:e0:8c, 2015-01-01 02:13:11.260, 0.908, -0.063, 0.463, 0.305, -0.671, 0.183, -7.432, -62.715, 169.75, -22.367, -8.487, -14.653, 30.48, 0.11108, 0.51016, -0.10214, 0.84668,
 14:27:35.845,ed:35:33:d3:6c:f8, 2015-01-01 02:13:10.585, 0.383, 0.474, 0.791, -0.183, -0.732, 0.305, 31.02, -22.972, 119.487, -10.107, -18.740, -27.587, 30.91, 0.42868, 0.29761, 0.12979, 0.84302,
 14:27:35.845,ed:35:33:d3:6c:f8, 2015-01-01 02:13:10.585, 0.386, 0.474, 0.787, 0, -1.282, 0.427, 31.02, -22.994, 119.46, -10.107, -18.740, -27.587, 30.91, 0.42868, 0.29761, 0.12979, 0.84302,
 14:27:35.846,f6:90:cc:01:6d:25, 2015-01-01 02:13:09.885, 0.873, 0.231, 0.394, 0.061, 0, 0.183, 30.399, -62.314, 166.536, -24.667, -15.520, -8.693, 32.68, 0.03857, -0.52197, -0.16504, -0.83591,
 14:27:35.846,f6:90:cc:01:6d:25, 2015-01-01 02:13:09.885, 0.873, 0.233, 0.396, -0.183, -0.122, 0.244, 30.388, -62.32, 166.536, -24.667, -15.520, -8.693, 32.68, 0.03857, -0.52197, -0.16504, -0.83591,
 14:27:35.889,ed:40:fe:65:30:6c, 2015-01-01 02:13:10.430, 0.521, 0.425, 0.735, 0.244, 0.122, 0.549, 30.245, -31.778, -157.236, -13.807, -17.387, -4.827, 28.48, 0.25223, -0.21021, -0.29822, -0.89618,
 14:27:35.889,ed:40:fe:65:30:6c, 2015-01-01 02:13:10.430, 0.524, 0.427, 0.736, 0.366, 0, 0.305, 30.245, -31.783, -157.225, -13.807, -17.387, -4.827, 28.48, 0.25223, -0.21021, -0.29822, -0.89618,
 14:27:35.891,f6:90:cc:01:6d:25, 2015-01-01 02:13:09.885, 0.873, 0.23, 0.396, -0.183, -0.122, 0.183, 30.383, -62.325, 166.536, -24.667, -15.520, -8.693, 32.68, 0.03857, -0.52197, -0.16504, -0.83591,
 14:27:35.891,f6:90:cc:01:6d:25, 2015-01-01 02:13:09.885, 0.874, 0.229, 0.396, -0.183, -0.183, 0.122, 30.372, -62.325, 166.531, -24.667, -15.520, -8.693, 32.68, 0.03857, -0.52197, -0.16504, -0.83591,
 14:27:35.910,e3:ca:2d:fd:e0:8c, 2015-01-01 02:13:11.260, 0.908, -0.062, 0.461, 0.366, -0.671, 0.244, -7.443, -62.726, 169.766, -22.367, -8.487, -14.653, 30.48, 0.10974, 0.51218, -0.10153, 0.8457,
 14:27:35.910,e3:ca:2d:fd:e0:8c, 2015-01-01 02:13:11.260, 0.907, -0.061, 0.462, 0.366, -0.671, 0.244, -7.449, -62.737, 169.788, -22.367, -8.487, -14.653, 30.48, 0.10974, 0.51218, -0.10153, 0.8457,
 14:27:35.911,ed:40:fe:65:30:6c, 2015-01-01 02:13:10.430, 0.524, 0.423, 0.735, 0.305, 0, 0.244, 30.245, -31.783, -157.214, -13.880, -17.353, -4.907, 28.48, 0.25223, -0.21021, -0.29822, -0.89618,
 14:27:35.911,ed:40:fe:65:30:6c, 2015-01-01 02:13:10.430, 0.525, 0.42, 0.735, 0.366, 0, 0.122, 30.251, -31.783, -157.209, -13.880, -17.353, -4.907, 28.48, 0.25223, -0.21021, -0.29822, -0.89618,
 14:27:35.912,ed:35:33:d3:6c:f8, 2015-01-01 02:13:10.585, 0.388, 0.476, 0.787, 0.244, -1.221, 0.122, 31.031, -23.016, 119.421, -9.973, -18.580, -27.147, 30.91, 0.42868, 0.29761, 0.12979, 0.84302,
 14:27:35.912,ed:35:33:d3:6c:f8, 2015-01-01 02:13:10.585, 0.388, 0.472, 0.786, 0.244, -1.038, 0.061, 31.036, -23.033, 119.383, -9.973, -18.580, -27.147, 30.91, 0.42868, 0.29761, 0.12979, 0.84302,
 14:27:35.933,e3:ca:2d:fd:e0:8c, 2015-01-01 02:13:11.595, 0.906, -0.062, 0.463, 0.244, -0.488, 0.122, -7.454, -62.748, 169.799, -22.367, -8.487, -14.653, 30.48, 0.10974, 0.51218, -0.10153, 0.8457,
 14:27:35.933,e3:ca:2d:fd:e0:8c, 2015-01-01 02:13:11.595, 0.905, -0.062, 0.463, 0.244, -0.488, 0.183, -7.465, -62.754, 169.816, -22.367, -8.487, -14.653, 30.48, 0.10974, 0.51218, -0.10153, 0.8457,
 14:27:35.935,ed:35:33:d3:6c:f8, 2015-01-01 02:13:10.585, 0.391, 0.468, 0.786, 0.305, -0.793, 0.061, 31.047, -23.044, 119.416, -9.973, -18.580, -27.147, 30.91, 0.43008, 0.29846, 0.12933, 0.84207,
 14:27:35.935,ed:35:33:d3:6c:f8, 2015-01-01 02:13:10.585, 0.39, 0.47, 0.785, 0.244, -0.366, -0.183, 31.053, -23.049, 119.421, -9.973, -18.580, -27.147, 30.91, 0.43008, 0.29846, 0.12933, 0.84207,
 14:27:35.937,f6:90:cc:01:6d:25, 2015-01-01 02:13:09.885, 0.874, 0.229, 0.397, -0.122, -0.183, 0, 30.372, -62.331, 166.52, -24.953, -14.673, -8.740, 32.68, 0.03857, -0.52197, -0.16504, -0.83591,
 14:27:35.937,f6:90:cc:01:6d:25, 2015-01-01 02:13:09.885, 0.874, 0.229, 0.396, 0, -0.183, 0, 30.372, -62.336, 166.509, -24.953, -14.673, -8.740, 32.68, 0.03857, -0.52197, -0.16504, -0.83591,
 14:27:35.959,ed:40:fe:65:30:6c, 2015-01-01 02:13:10.430, 0.524, 0.421, 0.734, 0.366, 0.183, 0.122, 30.251, -31.783, -157.198, -13.880, -17.353, -4.907, 28.48, 0.25223, -0.21021, -0.29822, -0.89618,
 14:27:35.959,ed:40:fe:65:30:6c, 2015-01-01 02:13:10.430, 0.524, 0.421, 0.735, 0.427, 0.183, 0.244, 30.251, -31.783, -157.192, -13.880, -17.353, -4.907, 28.48, 0.25223, -0.21021, -0.29822, -0.89618,
 14:27:35.977,e3:ca:2d:fd:e0:8c, 2015-01-01 02:13:11.595, 0.906, -0.063, 0.464, 0.305, -0.61, 0.183, -7.471, -62.765, 169.832, -22.367, -8.487, -14.653, 30.48, 0.10974, 0.51218, -0.10153, 0.8457,
 14:27:35.977,e3:ca:2d:fd:e0:8c, 2015-01-01 02:13:11.595, 0.907, -0.063, 0.464, 0.366, -0.732, 0.183, -7.476, -62.776, 169.849, -22.367, -8.487, -14.653, 30.48, 0.10974, 0.51218, -0.10153, 0.8457,
 14:27:35.980,ed:35:33:d3:6c:f8, 2015-01-01 02:13:10.585, 0.389, 0.472, 0.786, 0.183, -0.366, 0, 31.058, -23.055, 119.383, -9.973, -18.580, -27.147, 30.91, 0.43008, 0.29846, 0.12933, 0.84207,
 14:27:35.980,ed:35:33:d3:6c:f8, 2015-01-01 02:13:10.585, 0.39, 0.473, 0.787, 0.305, -0.366, 0, 31.069, -23.06, 119.377, -9.973, -18.580, -27.147, 30.91, 0.43008, 0.29846, 0.12933, 0.84207,
 14:27:35.981,f6:90:cc:01:6d:25, 2015-01-01 02:13:09.885, 0.875, 0.23, 0.396, 0, -0.122, -0.061, 30.372, -62.336, 166.498, -24.953, -14.673, -8.740, 32.68, 0.0376, -0.52234, -0.16388, -0.83594,
 14:27:35.981,f6:90:cc:01:6d:25, 2015-01-01 02:13:09.885, 0.875, 0.229, 0.397, 0, -0.122, -0.061, 30.377, -62.336, 166.481, -24.953, -14.673, -8.740, 32.68, 0.0376, -0.52234, -0.16388, -0.83594,
 14:27:36.000,e3:ca:2d:fd:e0:8c, 2015-01-01 02:13:11.595, 0.907, -0.062, 0.463, 0.366, -0.793, 0.183, -7.482, -62.792, 169.865, -22.367, -8.487, -14.653, 30.48, 0.10974, 0.51218, -0.10153, 0.8457,
 14:27:36.000,e3:ca:2d:fd:e0:8c, 2015-01-01 02:13:11.595, 0.907, -0.062, 0.461, 0.244, -0.854, 0.122, -7.487, -62.809, 169.876, -22.367, -8.487, -14.653, 30.48, 0.10974, 0.51218, -0.10153, 0.8457,
 14:27:36.001,ed:40:fe:65:30:6c, 2015-01-01 02:13:10.430, 0.525, 0.423, 0.735, 0.549, 0.183, 0.122, 30.251, -31.778, -157.181, -13.880, -17.353, -4.907, 28.48, 0.2536, -0.20947, -0.29828, -0.89597,
 14:27:36.001,ed:40:fe:65:30:6c, 2015-01-01 02:13:10.430, 0.523, 0.422, 0.736, 0.427, 0.244, 0.183, 30.256, -31.778, -157.17, -13.880, -17.353, -4.907, 28.48, 0.2536, -0.20947, -0.29828, -0.89597,
 14:27:36.003,ed:35:33:d3:6c:f8, 2015-01-01 02:13:10.940, 0.389, 0.474, 0.787, 0.366, -0.305, 0, 31.075, -23.066, 119.366, -9.973, -18.580, -27.147, 30.91, 0.43008, 0.29846, 0.12933, 0.84207,
 14:27:36.003,ed:35:33:d3:6c:f8, 2015-01-01 02:13:10.940, 0.387, 0.473, 0.789, 0.183, -0.305, 0.061, 31.08, -23.066, 119.328, -9.973, -18.580, -27.147, 30.91, 0.43008, 0.29846, 0.12933, 0.84207,
 14:27:36.026,f6:90:cc:01:6d:25, 2015-01-01 02:13:10.200, 0.873, 0.229, 0.396, 0.061, -0.061, -0.061, 30.377, -62.336, 166.47, -24.953, -14.673, -8.740, 32.68, 0.0376, -0.52234, -0.16388, -0.83594,
 14:27:36.026,f6:90:cc:01:6d:25, 2015-01-01 02:13:10.200, 0.874, 0.229, 0.396, 0, -0.122, -0.061, 30.377, -62.336, 166.459, -24.953, -14.673, -8.740, 32.68, 0.0376, -0.52234, -0.16388, -0.83594,
 14:27:36.046,ed:40:fe:65:30:6c, 2015-01-01 02:13:10.430, 0.522, 0.422, 0.736, 0.305, 0.061, 0.183, 30.256, -31.778, -157.159, -13.880, -17.353, -4.907, 28.48, 0.2536, -0.20947, -0.29828, -0.89597,
 14:27:36.046,ed:40:fe:65:30:6c, 2015-01-01 02:13:10.430, 0.523, 0.423, 0.735, 0.366, 0.061, 0.061, 30.256, -31.778, -157.154, -13.880, -17.353, -4.907, 28.48, 0.2536, -0.20947, -0.29828, -0.89597,
 14:27:36.047,ed:35:33:d3:6c:f8, 2015-01-01 02:13:10.940, 0.388, 0.473, 0.785, 0.122, -0.488, 0, 31.086, -23.077, 119.328, -9.973, -18.580, -27.147, 30.91, 0.43008, 0.29846, 0.12933, 0.84207,
 14:27:36.047,ed:35:33:d3:6c:f8, 2015-01-01 02:13:10.940, 0.39, 0.473, 0.785, 0.061, -0.244, -0.305, 31.086, -23.077, 119.383, -9.973, -18.580, -27.147, 30.91, 0.43008, 0.29846, 0.12933, 0.84207,
 14:27:36.047,e3:ca:2d:fd:e0:8c, 2015-01-01 02:13:11.595, 0.908, -0.063, 0.462, 0.122, -0.854, 0, -7.493, -62.825, 169.887, -22.367, -8.487, -14.653, 30.48, 0.10974, 0.51218, -0.10153, 0.8457,
 14:27:36.047,e3:ca:2d:fd:e0:8c, 2015-01-01 02:13:11.595, 0.908, -0.064, 0.461, 0.122, -0.854, 0, -7.498, -62.842, 169.898, -22.367, -8.487, -14.653, 30.48, 0.10974, 0.51218, -0.10153, 0.8457,
 14:27:36.048,f6:90:cc:01:6d:25, 2015-01-01 02:13:10.200, 0.873, 0.23, 0.395, 0.122, -0.061, 0, 30.383, -62.342, 166.448, -24.953, -14.673, -8.740, 32.68, 0.0376, -0.52234, -0.16388, -0.83594,
 14:27:36.048,f6:90:cc:01:6d:25, 2015-01-01 02:13:10.200, 0.876, 0.229, 0.395, 0.122, -0.183, 0, 30.383, -62.342, 166.437, -24.953, -14.673, -8.740, 32.68, 0.0376, -0.52234, -0.16388, -0.83594,
 14:27:36.070,ed:40:fe:65:30:6c, 2015-01-01 02:13:10.770, 0.526, 0.422, 0.735, 0.366, 0, 0.122, 30.256, -31.772, -157.143, -13.880, -17.353, -4.907, 28.48, 0.2536, -0.20947, -0.29828, -0.89597,
 14:27:36.070,ed:40:fe:65:30:6c, 2015-01-01 02:13:10.770, 0.526, 0.422, 0.734, 0.488, 0, 0.244, 30.262, -31.778, -157.137, -13.880, -17.353, -4.907, 28.48, 0.2536, -0.20947, -0.29828, -0.89597,
 14:27:36.092,ed:35:33:d3:6c:f8, 2015-01-01 02:13:10.940, 0.393, 0.473, 0.785, 0.305, -0.061, -0.183, 31.091, -23.077, 119.449, -9.973, -18.580, -27.147, 30.91, 0.43008, 0.29846, 0.12933, 0.84207,
 14:27:36.092,ed:35:33:d3:6c:f8, 2015-01-01 02:13:10.940, 0.392, 0.474, 0.787, 0.305, -0.488, 0.183, 31.097, -23.082, 119.449, -9.973, -18.580, -27.147, 30.91, 0.43008, 0.29846, 0.12933, 0.84207,
 14:27:36.095,f6:90:cc:01:6d:25, 2015-01-01 02:13:10.200, 0.875, 0.229, 0.395, 0.183, -0.244, 0, 30.388, -62.347, 166.426, -24.953, -14.673, -8.740, 32.68, 0.0376, -0.52234, -0.16388, -0.83594,
 14:27:36.095,f6:90:cc:01:6d:25, 2015-01-01 02:13:10.200, 0.876, 0.23, 0.394, 0.183, -0.183, 0, 30.394, -62.347, 166.41, -24.953, -14.673, -8.740, 32.68, 0.0376, -0.52234, -0.16388, -0.83594,
 14:27:36.113,e3:ca:2d:fd:e0:8c, 2015-01-01 02:13:11.595, 0.909, -0.063, 0.46, 0.183, -0.793, 0.061, -7.504, -62.853, 169.909, -22.367, -8.487, -14.653, 30.48, 0.10974, 0.51218, -0.10153, 0.8457,
 14:27:36.113,e3:ca:2d:fd:e0:8c, 2015-01-01 02:13:11.595, 0.909, -0.062, 0.46, 0.122, -0.671, 0, -7.509, -62.869, 169.915, -22.367, -8.487, -14.653, 30.48, 0.10974, 0.51218, -0.10153, 0.8457,
 14:27:36.113,ed:40:fe:65:30:6c, 2015-01-01 02:13:10.770, 0.525, 0.423, 0.735, 0.366, -0.061, 0.305, 30.262, -31.778, -157.132, -13.880, -17.353, -4.907, 28.48, 0.2536, -0.20947, -0.29828, -0.89597,
 14:27:36.113,ed:40:fe:65:30:6c, 2015-01-01 02:13:10.770, 0.527, 0.422, 0.735, 0.366, -0.183, 0.244, 30.262, -31.783, -157.121, -13.880, -17.353, -4.907, 28.48, 0.2536, -0.20947, -0.29828, -0.89597,
 14:27:36.136,e3:ca:2d:fd:e0:8c, 2015-01-01 02:13:11.595, 0.909, -0.063, 0.459, 0.061, -0.61, 0, -7.515, -62.88, 169.926, -22.820, -8.727, -15.367, 30.48, 0.10974, 0.51218, -0.10153, 0.8457,
 14:27:36.136,e3:ca:2d:fd:e0:8c, 2015-01-01 02:13:11.595, 0.909, -0.062, 0.46, 0, -0.61, -0.122, -7.515, -62.891, 169.926, -22.820, -8.727, -15.367, 30.48, 0.10974, 0.51218, -0.10153, 0.8457,
 14:27:36.138,f6:90:cc:01:6d:25, 2015-01-01 02:13:10.200, 0.875, 0.232, 0.393, 0.122, -0.244, 0, 30.394, -62.353, 166.399, -24.953, -14.673, -8.740, 32.68, 0.0376, -0.52234, -0.16388, -0.83594,
 14:27:36.138,f6:90:cc:01:6d:25, 2015-01-01 02:13:10.200, 0.875, 0.233, 0.393, 0, -0.183, -0.122, 30.405, -62.358, 166.388, -24.953, -14.673, -8.740, 32.68, 0.0376, -0.52234, -0.16388, -0.83594,
 14:27:36.138,ed:35:33:d3:6c:f8, 2015-01-01 02:13:10.940, 0.391, 0.472, 0.787, 0, -0.793, 0.183, 31.102, -23.093, 119.443, -9.973, -18.580, -27.147, 30.91, 0.43008, 0.29846, 0.12933, 0.84207,
 14:27:36.138,ed:35:33:d3:6c:f8, 2015-01-01 02:13:10.940, 0.392, 0.474, 0.785, 0.305, -1.221, 0.122, 31.108, -23.115, 119.388, -9.973, -18.580, -27.147, 30.91, 0.43008, 0.29846, 0.12933, 0.84207,
 14:27:36.160,ed:40:fe:65:30:6c, 2015-01-01 02:13:10.770, 0.525, 0.423, 0.733, 0.488, -0.183, 0.122, 30.267, -31.789, -157.115, -13.880, -17.353, -4.907, 28.48, 0.2536, -0.20947, -0.29828, -0.89597,
 14:27:36.160,ed:40:fe:65:30:6c, 2015-01-01 02:13:10.770, 0.524, 0.423, 0.732, 0.488, -0.305, 0.061, 30.273, -31.789, -157.11, -13.880, -17.353, -4.907, 28.48, 0.2536, -0.20947, -0.29828, -0.89597,
 14:27:36.180,e3:ca:2d:fd:e0:8c, 2015-01-01 02:13:11.595, 0.909, -0.062, 0.458, 0, -0.549, -0.122, -7.515, -62.902, 169.931, -22.820, -8.727, -15.367, 30.48, 0.10974, 0.51218, -0.10153, 0.8457,
 14:27:36.180,e3:ca:2d:fd:e0:8c, 2015-01-01 02:13:11.595, 0.909, -0.062, 0.459, 0.061, -0.549, -0.061, -7.52, -62.913, 169.931, -22.820, -8.727, -15.367, 30.48, 0.10974, 0.51218, -0.10153, 0.8457,
 14:27:36.182,ed:40:fe:65:30:6c, 2015-01-01 02:13:10.770, 0.526, 0.423, 0.733, 0.427, -0.305, -0.061, 30.278, -31.794, -157.11, -13.880, -17.353, -4.907, 28.48, 0.2536, -0.20947, -0.29828, -0.89597,
 14:27:36.182,ed:40:fe:65:30:6c, 2015-01-01 02:13:10.770, 0.527, 0.424, 0.732, 0.488, -0.183, -0.183, 30.284, -31.8, -157.11, -13.880, -17.353, -4.907, 28.48, 0.2536, -0.20947, -0.29828, -0.89597,
 14:27:36.183,ed:35:33:d3:6c:f8, 2015-01-01 02:13:10.940, 0.391, 0.474, 0.783, 0.427, -1.282, 0.122, 31.124, -23.137, 119.35, -9.973, -18.580, -27.147, 30.91, 0.43008, 0.29846, 0.12933, 0.84207,
 14:27:36.183,ed:35:33:d3:6c:f8, 2015-01-01 02:13:10.940, 0.39, 0.473, 0.782, 0.366, -0.916, 0, 31.135, -23.154, 119.279, -9.973, -18.580, -27.147, 30.91, 0.43008, 0.29846, 0.12933, 0.84207,
 14:27:36.185,f6:90:cc:01:6d:25, 2015-01-01 02:13:10.200, 0.874, 0.234, 0.393, 0, -0.183, -0.183, 30.41, -62.358, 166.371, -24.953, -14.673, -8.740, 32.68, 0.0376, -0.52234, -0.16388, -0.83594,
 14:27:36.185,f6:90:cc:01:6d:25, 2015-01-01 02:13:10.200, 0.875, 0.232, 0.394, 0, -0.061, -0.244, 30.416, -62.358, 166.349, -24.953, -14.673, -8.740, 32.68, 0.0376, -0.52234, -0.16388, -0.83594,
 14:27:36.203,e3:ca:2d:fd:e0:8c, 2015-01-01 02:13:11.595, 0.909, -0.061, 0.459, 0.122, -0.427, 0, -7.52, -62.924, 169.937, -22.820, -8.727, -15.367, 30.48, 0.10873, 0.51382, -0.10138, 0.84485,
 14:27:36.203,e3:ca:2d:fd:e0:8c, 2015-01-01 02:13:11.595, 0.909, -0.062, 0.46, 0.061, -0.366, 0, -7.526, -62.93, 169.942, -22.820, -8.727, -15.367, 30.48, 0.10873, 0.51382, -0.10138, 0.84485,
 14:27:36.204,ed:35:33:d3:6c:f8, 2015-01-01 02:13:10.940, 0.394, 0.475, 0.783, 0.183, -0.244, -0.305, 31.141, -23.154, 119.13, -9.313, -17.927, -26.880, 30.91, 0.43008, 0.29846, 0.12933, 0.84207,
 14:27:36.204,ed:35:33:d3:6c:f8, 2015-01-01 02:13:10.940, 0.393, 0.475, 0.782, 0.244, -0.183, -0.244, 31.146, -23.154, 118.927, -9.313, -17.927, -26.880, 30.91, 0.43008, 0.29846, 0.12933, 0.84207,
 14:27:36.227,ed:40:fe:65:30:6c, 2015-01-01 02:13:10.770, 0.524, 0.423, 0.731, 0.488, -0.061, -0.061, 30.295, -31.8, -157.115, -13.880, -17.353, -4.907, 28.48, 0.2536, -0.20947, -0.29828, -0.89597,
 14:27:36.227,ed:40:fe:65:30:6c, 2015-01-01 02:13:10.770, 0.525, 0.424, 0.732, 0.427, -0.061, -0.122, 30.3, -31.8, -157.11, -13.880, -17.353, -4.907, 28.48, 0.2536, -0.20947, -0.29828, -0.89597,
 14:27:36.229,f6:90:cc:01:6d:25, 2015-01-01 02:13:10.200, 0.875, 0.231, 0.394, 0, -0.061, -0.305, 30.427, -62.358, 166.333, -24.780, -15.000, -8.300, 32.68, 0.0376, -0.52234, -0.16388, -0.83594,
 14:27:36.229,f6:90:cc:01:6d:25, 2015-01-01 02:13:10.200, 0.874, 0.23, 0.394, 0, 0, -0.305, 30.438, -62.358, 166.311, -24.780, -15.000, -8.300, 32.68, 0.0376, -0.52234, -0.16388, -0.83594,
 14:27:36.248,e3:ca:2d:fd:e0:8c, 2015-01-01 02:13:11.595, 0.908, -0.063, 0.459, 0, -0.244, 0, -7.526, -62.935, 169.948, -22.820, -8.727, -15.367, 30.48, 0.10873, 0.51382, -0.10138, 0.84485,
 14:27:36.248,e3:ca:2d:fd:e0:8c, 2015-01-01 02:13:11.595, 0.908, -0.063, 0.459, 0.061, -0.183, 0, -7.531, -62.941, 169.953, -22.820, -8.727, -15.367, 30.48, 0.10873, 0.51382, -0.10138, 0.84485,
 14:27:36.250,ed:35:33:d3:6c:f8, 2015-01-01 02:13:10.940, 0.391, 0.474, 0.781, 0.244, -0.427, -0.122, 31.157, -23.159, 118.718, -9.313, -17.927, -26.880, 30.91, 0.43008, 0.29846, 0.12933, 0.84207,
 14:27:36.250,ed:35:33:d3:6c:f8, 2015-01-01 02:13:10.940, 0.392, 0.475, 0.783, 0.122, -0.366, -0.305, 31.163, -23.165, 118.542, -9.313, -17.927, -26.880, 30.91, 0.43008, 0.29846, 0.12933, 0.84207,
 14:27:36.252,f6:90:cc:01:6d:25, 2015-01-01 02:13:10.200, 0.874, 0.232, 0.395, 0.061, 0.061, -0.244, 30.449, -62.353, 166.295, -24.780, -15.000, -8.300, 32.68, 0.0376, -0.52234, -0.16388, -0.83594,
 14:27:36.252,f6:90:cc:01:6d:25, 2015-01-01 02:13:10.200, 0.874, 0.231, 0.395, 0, 0, -0.183, 30.454, -62.353, 166.284, -24.780, -15.000, -8.300, 32.68, 0.0376, -0.52234, -0.16388, -0.83594,
 14:27:36.294,e3:ca:2d:fd:e0:8c, 2015-01-01 02:13:11.595, 0.908, -0.063, 0.46, 0.122, -0.122, 0, -7.531, -62.941, 169.958, -22.820, -8.727, -15.367, 30.48, 0.10873, 0.51382, -0.10138, 0.84485,
 14:27:36.294,e3:ca:2d:fd:e0:8c, 2015-01-01 02:13:11.595, 0.909, -0.062, 0.459, 0.061, -0.061, 0, -7.531, -62.941, 169.964, -22.820, -8.727, -15.367, 30.48, 0.10873, 0.51382, -0.10138, 0.84485,
 14:27:36.294,ed:40:fe:65:30:6c, 2015-01-01 02:13:10.770, 0.526, 0.425, 0.733, 0.366, 0, -0.244, 30.306, -31.8, -157.11, -13.880, -17.353, -4.907, 28.48, 0.2536, -0.20947, -0.29828, -0.89597,
 14:27:36.294,ed:40:fe:65:30:6c, 2015-01-01 02:13:10.770, 0.524, 0.424, 0.732, 0.366, 0, -0.122, 30.311, -31.8, -157.115, -13.880, -17.353, -4.907, 28.48, 0.2536, -0.20947, -0.29828, -0.89597,
 14:27:36.296,f6:90:cc:01:6d:25, 2015-01-01 02:13:10.200, 0.874, 0.23, 0.395, 0.061, 0, -0.244, 30.46, -62.353, 166.267, -24.780, -15.000, -8.300, 32.68, 0.03638, -0.52274, -0.16345, -0.83582,
 14:27:36.296,f6:90:cc:01:6d:25, 2015-01-01 02:13:10.200, 0.875, 0.23, 0.395, 0.183, 0.061, -0.183, 30.471, -62.347, 166.256, -24.780, -15.000, -8.300, 32.68, 0.03638, -0.52274, -0.16345, -0.83582,
 14:27:36.317,ed:40:fe:65:30:6c, 2015-01-01 02:13:10.770, 0.525, 0.423, 0.733, 0.244, 0, -0.122, 30.317, -31.8, -157.11, -13.767, -17.200, -4.920, 28.48, 0.2536, -0.20947, -0.29828, -0.89597,
 14:27:36.317,ed:40:fe:65:30:6c, 2015-01-01 02:13:10.770, 0.526, 0.425, 0.733, 0.305, 0.061, -0.122, 30.322, -31.8, -157.11, -13.767, -17.200, -4.920, 28.48, 0.2536, -0.20947, -0.29828, -0.89597,
 14:27:36.317,ed:35:33:d3:6c:f8, 2015-01-01 02:13:10.940, 0.392, 0.477, 0.783, 0.122, -0.366, -0.305, 31.168, -23.17, 118.488, -9.313, -17.927, -26.880, 30.91, 0.43008, 0.29846, 0.12933, 0.84207,
 14:27:36.317,ed:35:33:d3:6c:f8, 2015-01-01 02:13:10.940, 0.391, 0.474, 0.782, 0, -0.305, -0.244, 31.174, -23.17, 118.438, -9.313, -17.927, -26.880, 30.91, 0.43008, 0.29846, 0.12933, 0.84207,
 14:27:36.338,e3:ca:2d:fd:e0:8c, 2015-01-01 02:13:11.975, 0.908, -0.062, 0.458, 0, 0.061, 0, -7.537, -62.941, 169.964, -22.820, -8.727, -15.367, 30.48, 0.10873, 0.51382, -0.10138, 0.84485,
 14:27:36.338,e3:ca:2d:fd:e0:8c, 2015-01-01 02:13:11.975, 0.909, -0.063, 0.46, 0, 0.183, 0, -7.537, -62.935, 169.969, -22.820, -8.727, -15.367, 30.48, 0.10873, 0.51382, -0.10138, 0.84485,
 14:27:36.340,ed:35:33:d3:6c:f8, 2015-01-01 02:13:10.940, 0.392, 0.475, 0.784, -0.061, 0, -0.305, 31.174, -23.165, 118.389, -9.313, -17.927, -26.880, 30.91, 0.43631, 0.30084, 0.1272, 0.83835,
 14:27:36.340,ed:35:33:d3:6c:f8, 2015-01-01 02:13:10.940, 0.392, 0.475, 0.784, 0, -0.122, -0.305, 31.179, -23.165, 118.367, -9.313, -17.927, -26.880, 30.91, 0.43631, 0.30084, 0.1272, 0.83835,
 14:27:36.341,f6:90:cc:01:6d:25, 2015-01-01 02:13:10.515, 0.875, 0.23, 0.395, 0.183, 0.061, -0.061, 30.476, -62.347, 166.245, -24.780, -15.000, -8.300, 32.68, 0.03638, -0.52274, -0.16345, -0.83582,
 14:27:36.341,f6:90:cc:01:6d:25, 2015-01-01 02:13:10.515, 0.874, 0.232, 0.395, 0.244, 0.122, -0.122, 30.476, -62.347, 166.234, -24.780, -15.000, -8.300, 32.68, 0.03638, -0.52274, -0.16345, -0.83582,
 14:27:36.360,e3:ca:2d:fd:e0:8c, 2015-01-01 02:13:11.975, 0.909, -0.063, 0.46, -0.061, 0.183, 0, -7.542, -62.935, 169.969, -22.820, -8.727, -15.367, 30.48, 0.10873, 0.51382, -0.10138, 0.84485,
 14:27:36.360,e3:ca:2d:fd:e0:8c, 2015-01-01 02:13:11.975, 0.909, -0.063, 0.459, 0, 0.183, 0, -7.542, -62.93, 169.969, -22.820, -8.727, -15.367, 30.48, 0.10873, 0.51382, -0.10138, 0.84485,
 14:27:36.362,ed:40:fe:65:30:6c, 2015-01-01 02:13:10.770, 0.525, 0.424, 0.735, 0.305, 0, -0.122, 30.322, -31.794, -157.11, -13.767, -17.200, -4.920, 28.48, 0.2536, -0.20947, -0.29828, -0.89597,
 14:27:36.362,ed:40:fe:65:30:6c, 2015-01-01 02:13:10.770, 0.525, 0.425, 0.734, 0.366, 0, -0.122, 30.328, -31.794, -157.11, -13.767, -17.200, -4.920, 28.48, 0.2536, -0.20947, -0.29828, -0.89597,
 14:27:36.385,ed:40:fe:65:30:6c, 2015-01-01 02:13:10.770, 0.524, 0.425, 0.734, 0.305, 0, 0, 30.333, -31.794, -157.104, -13.767, -17.200, -4.920, 28.48, 0.25439, -0.2092, -0.29904, -0.89554,
 14:27:36.385,ed:40:fe:65:30:6c, 2015-01-01 02:13:10.770, 0.523, 0.425, 0.735, 0.244, 0, 0, 30.333, -31.794, -157.104, -13.767, -17.200, -4.920, 28.48, 0.25439, -0.2092, -0.29904, -0.89554,
 14:27:36.385,ed:35:33:d3:6c:f8, 2015-01-01 02:13:10.940, 0.391, 0.476, 0.785, 0.061, -0.183, -0.183, 31.179, -23.165, 118.339, -9.313, -17.927, -26.880, 30.91, 0.43631, 0.30084, 0.1272, 0.83835,
 14:27:36.385,ed:35:33:d3:6c:f8, 2015-01-01 02:13:10.940, 0.391, 0.476, 0.785, 0.122, -0.244, -0.061, 31.185, -23.17, 118.312, -9.313, -17.927, -26.880, 30.91, 0.43631, 0.30084, 0.1272, 0.83835,
 14:27:36.387,f6:90:cc:01:6d:25, 2015-01-01 02:13:10.515, 0.873, 0.232, 0.395, 0.244, 0.061, -0.122, 30.487, -62.342, 166.229, -24.780, -15.000, -8.300, 32.68, 0.03638, -0.52274, -0.16345, -0.83582,
 14:27:36.387,f6:90:cc:01:6d:25, 2015-01-01 02:13:10.515, 0.875, 0.231, 0.396, 0.183, 0.061, -0.183, 30.493, -62.342, 166.218, -24.780, -15.000, -8.300, 32.68, 0.03638, -0.52274, -0.16345, -0.83582,
 14:27:36.406,e3:ca:2d:fd:e0:8c, 2015-01-01 02:13:11.975, 0.909, -0.062, 0.459, 0, 0.244, 0, -7.542, -62.924, 169.975, -22.820, -8.727, -15.367, 30.48, 0.10873, 0.51382, -0.10138, 0.84485,
 14:27:36.406,e3:ca:2d:fd:e0:8c, 2015-01-01 02:13:11.975, 0.91, -0.062, 0.458, -0.061, 0.366, 0, -7.548, -62.919, 169.975, -22.820, -8.727, -15.367, 30.48, 0.10873, 0.51382, -0.10138, 0.84485,
 14:27:36.407,ed:35:33:d3:6c:f8, 2015-01-01 02:13:11.345, 0.392, 0.476, 0.784, 0, -0.122, -0.061, 31.185, -23.17, 118.279, -9.313, -17.927, -26.880, 30.91, 0.43631, 0.30084, 0.1272, 0.83835,
 14:27:36.407,ed:35:33:d3:6c:f8, 2015-01-01 02:13:11.345, 0.391, 0.476, 0.786, 0, -0.305, 0.061, 31.19, -23.176, 118.306, -9.313, -17.927, -26.880, 30.91, 0.43631, 0.30084, 0.1272, 0.83835,
 14:27:36.429,ed:40:fe:65:30:6c, 2015-01-01 02:13:10.770, 0.524, 0.424, 0.733, 0.366, -0.122, 0.061, 30.339, -31.794, -157.099, -13.767, -17.200, -4.920, 28.48, 0.25439, -0.2092, -0.29904, -0.89554,
 14:27:36.429,ed:40:fe:65:30:6c, 2015-01-01 02:13:10.770, 0.526, 0.424, 0.733, 0.549, -0.061, 0, 30.344, -31.794, -157.099, -13.767, -17.200, -4.920, 28.48, 0.25439, -0.2092, -0.29904, -0.89554,
 14:27:36.431,f6:90:cc:01:6d:25, 2015-01-01 02:13:10.515, 0.874, 0.23, 0.395, 0.305, 0, -0.183, 30.498, -62.336, 166.201, -24.780, -15.000, -8.300, 32.68, 0.03638, -0.52274, -0.16345, -0.83582,
 14:27:36.431,f6:90:cc:01:6d:25, 2015-01-01 02:13:10.515, 0.874, 0.231, 0.394, 0.305, 0, -0.122, 30.509, -62.336, 166.19, -24.780, -15.000, -8.300, 32.68, 0.03638, -0.52274, -0.16345, -0.83582,
 14:27:36.451,e3:ca:2d:fd:e0:8c, 2015-01-01 02:13:11.975, 0.908, -0.062, 0.458, -0.183, 0.427, 0, -7.548, -62.913, 169.975, -22.820, -8.727, -15.367, 30.48, 0.10873, 0.51382, -0.10138, 0.84485,
 14:27:36.451,e3:ca:2d:fd:e0:8c, 2015-01-01 02:13:11.975, 0.907, -0.062, 0.461, -0.122, 0.366, 0, -7.553, -62.902, 169.975, -22.820, -8.727, -15.367, 30.48, 0.10873, 0.51382, -0.10138, 0.84485,
 14:27:36.452,ed:35:33:d3:6c:f8, 2015-01-01 02:13:11.345, 0.392, 0.473, 0.783, 0.183, -0.549, 0.061, 31.196, -23.187, 118.284, -9.313, -17.927, -26.880, 30.91, 0.43631, 0.30084, 0.1272, 0.83835,
 14:27:36.452,ed:35:33:d3:6c:f8, 2015-01-01 02:13:11.345, 0.393, 0.473, 0.783, 0.61, -0.488, 0, 31.207, -23.192, 118.246, -9.313, -17.927, -26.880, 30.91, 0.43631, 0.30084, 0.1272, 0.83835,
 14:27:36.454,f6:90:cc:01:6d:25, 2015-01-01 02:13:10.515, 0.873, 0.233, 0.394, 0.305, 0, -0.244, 30.52, -62.336, 166.179, -24.780, -15.000, -8.300, 32.68, 0.03638, -0.52274, -0.16345, -0.83582,
 14:27:36.454,f6:90:cc:01:6d:25, 2015-01-01 02:13:10.515, 0.876, 0.229, 0.396, 0.488, -0.061, -0.366, 30.536, -62.331, 166.163, -24.780, -15.000, -8.300, 32.68, 0.03638, -0.52274, -0.16345, -0.83582,
 14:27:36.474,ed:40:fe:65:30:6c, 2015-01-01 02:13:11.170, 0.526, 0.423, 0.733, 0.793, -0.183, -0.061, 30.35, -31.794, -157.094, -13.767, -17.200, -4.920, 28.48, 0.25439, -0.2092, -0.29904, -0.89554,
 14:27:36.474,ed:40:fe:65:30:6c, 2015-01-01 02:13:11.170, 0.526, 0.424, 0.73, 0.61, -0.061, 0.061, 30.366, -31.8, -157.094, -13.767, -17.200, -4.920, 28.48, 0.25439, -0.2092, -0.29904, -0.89554,
 14:27:36.498,ed:35:33:d3:6c:f8, 2015-01-01 02:13:11.345, 0.394, 0.477, 0.783, 0.61, -0.61, 0.305, 31.223, -23.203, 118.213, -9.313, -17.927, -26.880, 30.91, 0.43631, 0.30084, 0.1272, 0.83835,
 14:27:36.498,ed:35:33:d3:6c:f8, 2015-01-01 02:13:11.345, 0.394, 0.474, 0.776, 0.183, 0, 0.305, 31.223, -23.209, 118.262, -9.313, -17.927, -26.880, 30.91, 0.43631, 0.30084, 0.1272, 0.83835,
 14:27:36.500,f6:90:cc:01:6d:25, 2015-01-01 02:13:10.515, 0.873, 0.23, 0.395, 0.61, 0, -0.366, 30.558, -62.331, 166.141, -24.780, -15.000, -8.300, 32.68, 0.03638, -0.52274, -0.16345, -0.83582,
 14:27:36.500,f6:90:cc:01:6d:25, 2015-01-01 02:13:10.515, 0.874, 0.235, 0.395, 0.366, 0.183, -0.244, 30.575, -62.325, 166.124, -24.780, -15.000, -8.300, 32.68, 0.03638, -0.52274, -0.16345, -0.83582,
 14:27:36.518,ed:40:fe:65:30:6c, 2015-01-01 02:13:11.170, 0.527, 0.427, 0.729, 0.244, 0.305, -0.122, 30.372, -31.8, -157.094, -13.767, -17.200, -4.920, 28.48, 0.25439, -0.2092, -0.29904, -0.89554,
 14:27:36.518,ed:40:fe:65:30:6c, 2015-01-01 02:13:11.170, 0.527, 0.426, 0.734, 0.427, 0.488, -0.061, 30.372, -31.794, -157.088, -13.767, -17.200, -4.920, 28.48, 0.25439, -0.2092, -0.29904, -0.89554,
 14:27:36.518,e3:ca:2d:fd:e0:8c, 2015-01-01 02:13:11.975, 0.908, -0.063, 0.461, -0.122, 0.366, 0, -7.553, -62.897, 169.975, -22.820, -8.727, -15.367, 30.48, 0.10873, 0.51382, -0.10138, 0.84485,
 14:27:36.518,e3:ca:2d:fd:e0:8c, 2015-01-01 02:13:11.975, 0.907, -0.062, 0.459, -0.122, 0.427, 0, -7.559, -62.891, 169.98, -22.820, -8.727, -15.367, 30.48, 0.10873, 0.51382, -0.10138, 0.84485,
 14:27:36.540,e3:ca:2d:fd:e0:8c, 2015-01-01 02:13:11.975, 0.908, -0.063, 0.461, -0.061, 0.427, 0, -7.559, -62.88, 169.98, -22.553, -8.507, -15.253, 30.48, 0.10873, 0.51382, -0.10138, 0.84485,
 14:27:36.540,e3:ca:2d:fd:e0:8c, 2015-01-01 02:13:11.975, 0.909, -0.062, 0.461, -0.061, 0.549, 0, -7.559, -62.869, 169.98, -22.553, -8.507, -15.253, 30.48, 0.10873, 0.51382, -0.10138, 0.84485,
 14:27:36.543,ed:35:33:d3:6c:f8, 2015-01-01 02:13:11.345, 0.395, 0.478, 0.78, 0, 0.366, -0.183, 31.223, -23.198, 118.328, -9.313, -17.927, -26.880, 30.91, 0.43631, 0.30084, 0.1272, 0.83835,
 14:27:36.543,ed:35:33:d3:6c:f8, 2015-01-01 02:13:11.345, 0.392, 0.478, 0.788, 0.122, -0.061, 0.122, 31.223, -23.203, 118.427, -9.313, -17.927, -26.880, 30.91, 0.43631, 0.30084, 0.1272, 0.83835,
 14:27:36.544,f6:90:cc:01:6d:25, 2015-01-01 02:13:10.515, 0.875, 0.233, 0.396, 0.305, 0, -0.244, 30.586, -62.32, 166.113, -24.973, -14.587, -8.660, 32.68, 0.03638, -0.52274, -0.16345, -0.83582,
 14:27:36.544,f6:90:cc:01:6d:25, 2015-01-01 02:13:10.515, 0.875, 0.23, 0.394, 0.427, -0.061, -0.427, 30.602, -62.32, 166.091, -24.973, -14.587, -8.660, 32.68, 0.03638, -0.52274, -0.16345, -0.83582,
 14:27:36.564,ed:40:fe:65:30:6c, 2015-01-01 02:13:11.170, 0.524, 0.425, 0.736, 0.366, 0.244, 0.122, 30.377, -31.783, -157.077, -13.767, -17.200, -4.920, 28.48, 0.25439, -0.2092, -0.29904, -0.89554,
 14:27:36.564,ed:40:fe:65:30:6c, 2015-01-01 02:13:11.170, 0.522, 0.428, 0.735, 0.366, -0.061, 0.305, 30.377, -31.783, -157.072, -13.767, -17.200, -4.920, 28.48, 0.25439, -0.2092, -0.29904, -0.89554,
 14:27:36.586,e3:ca:2d:fd:e0:8c, 2015-01-01 02:13:11.975, 0.909, -0.062, 0.46, -0.183, 0.549, -0.305, -7.553, -62.864, 169.964, -22.553, -8.507, -15.253, 30.48, 0.10873, 0.51382, -0.10138, 0.84485,
 14:27:36.586,e3:ca:2d:fd:e0:8c, 2015-01-01 02:13:11.975, 0.91, -0.062, 0.46, -0.183, 0.427, -0.244, -7.548, -62.853, 169.953, -22.553, -8.507, -15.253, 30.48, 0.10873, 0.51382, -0.10138, 0.84485,
 14:27:36.587,ed:35:33:d3:6c:f8, 2015-01-01 02:13:11.345, 0.39, 0.479, 0.791, 0.183, -1.831, 0.977, 31.229, -23.242, 118.482, -9.313, -17.927, -26.880, 30.91, 0.43631, 0.30084, 0.1272, 0.83835,
 14:27:36.587,ed:35:33:d3:6c:f8, 2015-01-01 02:13:11.345, 0.391, 0.479, 0.783, 0.244, -2.502, 1.099, 31.24, -23.297, 118.526, -9.313, -17.927, -26.880, 30.91, 0.43631, 0.30084, 0.1272, 0.83835,
 14:27:36.588,f6:90:cc:01:6d:25, 2015-01-01 02:13:10.515, 0.873, 0.234, 0.393, 0.549, 0, -0.305, 30.624, -62.314, 166.075, -24.973, -14.587, -8.660, 32.68, 0.03558, -0.52274, -0.16382, -0.83578,
 14:27:36.588,f6:90:cc:01:6d:25, 2015-01-01 02:13:10.515, 0.874, 0.237, 0.392, 0.427, 0.061, -0.122, 30.641, -62.314, 166.058, -24.973, -14.587, -8.660, 32.68, 0.03558, -0.52274, -0.16382, -0.83578,
 14:27:36.608,e3:ca:2d:fd:e0:8c, 2015-01-01 02:13:11.975, 0.91, -0.062, 0.459, -0.061, 0.549, -0.244, -7.537, -62.847, 169.942, -22.553, -8.507, -15.253, 30.48, 0.1087, 0.51334, -0.10147, 0.84515,
 14:27:36.608,e3:ca:2d:fd:e0:8c, 2015-01-01 02:13:11.975, 0.909, -0.062, 0.458, -0.122, 0.793, -0.244, -7.526, -62.831, 169.931, -22.553, -8.507, -15.253, 30.48, 0.1087, 0.51334, -0.10147, 0.84515,
 14:27:36.609,ed:40:fe:65:30:6c, 2015-01-01 02:13:11.170, 0.522, 0.431, 0.731, 0.244, -0.122, 0.244, 30.377, -31.789, -157.061, -13.767, -17.200, -4.920, 28.48, 0.25439, -0.2092, -0.29904, -0.89554,
 14:27:36.609,ed:40:fe:65:30:6c, 2015-01-01 02:13:11.170, 0.525, 0.431, 0.732, 0.305, -0.244, 0.183, 30.377, -31.794, -157.061, -13.767, -17.200, -4.920, 28.48, 0.25439, -0.2092, -0.29904, -0.89554,
 14:27:36.612,f6:90:cc:01:6d:25, 2015-01-01 02:13:10.805, 0.874, 0.237, 0.394, 0.427, 0, 0, 30.646, -62.314, 166.053, -24.973, -14.587, -8.660, 32.68, 0.03558, -0.52274, -0.16382, -0.83578,
 14:27:36.614,f6:90:cc:01:6d:25, 2015-01-01 02:13:10.805, 0.873, 0.234, 0.394, 0.549, -0.183, -0.061, 30.663, -62.314, 166.042, -24.973, -14.587, -8.660, 32.68, 0.03558, -0.52274, -0.16382, -0.83578,
 14:27:36.614,ed:35:33:d3:6c:f8, 2015-01-01 02:13:11.345, 0.393, 0.48, 0.78, 0.061, -1.587, 0.793, 31.245, -23.329, 118.51, -9.993, -18.993, -27.013, 30.91, 0.43631, 0.30084, 0.1272, 0.83835,
 14:27:36.614,ed:35:33:d3:6c:f8, 2015-01-01 02:13:11.345, 0.396, 0.476, 0.781, 0.183, -0.793, 0.244, 31.251, -23.34, 118.499, -9.993, -18.993, -27.013, 30.91, 0.43631, 0.30084, 0.1272, 0.83835,
 14:27:36.654,e3:ca:2d:fd:e0:8c, 2015-01-01 02:13:11.975, 0.908, -0.061, 0.459, -0.061, 1.038, -0.183, -7.52, -62.814, 169.92, -22.553, -8.507, -15.253, 30.48, 0.1087, 0.51334, -0.10147, 0.84515,
 14:27:36.654,e3:ca:2d:fd:e0:8c, 2015-01-01 02:13:11.975, 0.908, -0.061, 0.46, 0.183, 1.404, 0, -7.509, -62.787, 169.893, -22.553, -8.507, -15.253, 30.48, 0.1087, 0.51334, -0.10147, 0.84515,
 14:27:36.657,ed:40:fe:65:30:6c, 2015-01-01 02:13:11.170, 0.527, 0.424, 0.732, 0.549, -0.183, 0, 30.388, -31.8, -157.055, -13.767, -17.200, -4.920, 28.48, 0.25439, -0.2092, -0.29904, -0.89554,
 14:27:36.657,ed:40:fe:65:30:6c, 2015-01-01 02:13:11.170, 0.527, 0.425, 0.733, 0.488, -0.061, 0, 30.394, -31.8, -157.055, -13.767, -17.200, -4.920, 28.48, 0.25439, -0.2092, -0.29904, -0.89554,
 14:27:36.657,ed:35:33:d3:6c:f8, 2015-01-01 02:13:11.345, 0.397, 0.474, 0.781, 0.366, -0.122, 0, 31.256, -23.346, 118.515, -9.993, -18.993, -27.013, 30.91, 0.43631, 0.30084, 0.1272, 0.83835,
 14:27:36.657,ed:35:33:d3:6c:f8, 2015-01-01 02:13:11.345, 0.395, 0.478, 0.78, 0.122, 0.183, 0, 31.262, -23.34, 118.488, -9.993, -18.993, -27.013, 30.91, 0.43631, 0.30084, 0.1272, 0.83835,
 14:27:36.657,f6:90:cc:01:6d:25, 2015-01-01 02:13:10.805, 0.874, 0.232, 0.395, 0.732, -0.305, -0.061, 30.685, -62.32, 166.031, -24.973, -14.587, -8.660, 32.68, 0.03558, -0.52274, -0.16382, -0.83578,
 14:27:36.658,f6:90:cc:01:6d:25, 2015-01-01 02:13:10.805, 0.874, 0.234, 0.396, 0.793, -0.366, -0.122, 30.712, -62.325, 166.009, -24.973, -14.587, -8.660, 32.68, 0.03558, -0.52274, -0.16382, -0.83578,
 14:27:36.677,ed:40:fe:65:30:6c, 2015-01-01 02:13:11.170, 0.525, 0.428, 0.732, 0.366, 0.183, 0.183, 30.399, -31.8, -157.05, -13.980, -17.413, -4.267, 28.48, 0.25439, -0.2092, -0.29904, -0.89554,
 14:27:36.677,ed:40:fe:65:30:6c, 2015-01-01 02:13:11.170, 0.523, 0.429, 0.732, 0.427, 0.183, 0.366, 30.399, -31.8, -157.039, -13.980, -17.413, -4.267, 28.48, 0.25439, -0.2092, -0.29904, -0.89554,
 14:27:36.698,e3:ca:2d:fd:e0:8c, 2015-01-01 02:13:12.335, 0.907, -0.061, 0.463, 0.122, 1.465, 0, -7.498, -62.759, 169.865, -22.553, -8.507, -15.253, 30.48, 0.1087, 0.51334, -0.10147, 0.84515,
 14:27:36.698,e3:ca:2d:fd:e0:8c, 2015-01-01 02:13:12.335, 0.906, -0.061, 0.463, 0, 1.343, -0.061, -7.493, -62.737, 169.838, -22.553, -8.507, -15.253, 30.48, 0.1087, 0.51334, -0.10147, 0.84515,
 14:27:36.701,f6:90:cc:01:6d:25, 2015-01-01 02:13:10.805, 0.873, 0.235, 0.395, 0.916, -0.366, -0.122, 30.74, -62.331, 165.992, -24.973, -14.587, -8.660, 32.68, 0.03558, -0.52274, -0.16382, -0.83578,
 14:27:36.701,f6:90:cc:01:6d:25, 2015-01-01 02:13:10.805, 0.87, 0.234, 0.393, 1.038, -0.244, -0.061, 30.767, -62.331, 165.981, -24.973, -14.587, -8.660, 32.68, 0.03558, -0.52274, -0.16382, -0.83578,
 14:27:36.722,ed:35:33:d3:6c:f8, 2015-01-01 02:13:11.345, 0.393, 0.479, 0.781, 0.122, 0.244, 0.061, 31.262, -23.335, 118.466, -9.993, -18.993, -27.013, 30.91, 0.4353, 0.30231, 0.12717, 0.83835,
 14:27:36.722,ed:35:33:d3:6c:f8, 2015-01-01 02:13:11.345, 0.391, 0.478, 0.781, 0.061, 0.183, 0.122, 31.267, -23.335, 118.422, -9.993, -18.993, -27.013, 30.91, 0.4353, 0.30231, 0.12717, 0.83835,
 14:27:36.722,ed:40:fe:65:30:6c, 2015-01-01 02:13:11.170, 0.521, 0.428, 0.73, 0.366, 0.183, 0.305, 30.405, -31.8, -157.028, -13.980, -17.413, -4.267, 28.48, 0.25439, -0.2092, -0.29904, -0.89554,
 14:27:36.722,ed:40:fe:65:30:6c, 2015-01-01 02:13:11.170, 0.518, 0.43, 0.73, 0.366, 0.793, 0.244, 30.405, -31.794, -157.011, -13.980, -17.413, -4.267, 28.48, 0.25439, -0.2092, -0.29904, -0.89554,
 14:27:36.745,ed:35:33:d3:6c:f8, 2015-01-01 02:13:11.680, 0.389, 0.479, 0.776, 0, 0, 0, 31.267, -23.329, 118.427, -9.993, -18.993, -27.013, 30.91, 0.4353, 0.30231, 0.12717, 0.83835,
 14:27:36.745,ed:35:33:d3:6c:f8, 2015-01-01 02:13:11.680, 0.383, 0.479, 0.782, 0.122, -0.305, 0.061, 31.273, -23.335, 118.433, -9.993, -18.993, -27.013, 30.91, 0.4353, 0.30231, 0.12717, 0.83835,
 14:27:36.746,f6:90:cc:01:6d:25, 2015-01-01 02:13:10.805, 0.868, 0.236, 0.394, 1.465, 0, 0.061, 30.789, -62.336, 166.025, -24.973, -14.587, -8.660, 32.68, 0.03558, -0.52274, -0.16382, -0.83578,
 14:27:36.746,f6:90:cc:01:6d:25, 2015-01-01 02:13:10.805, 0.871, 0.235, 0.397, 1.709, 0, 0.061, 30.822, -62.331, 166.075, -24.973, -14.587, -8.660, 32.68, 0.03558, -0.52274, -0.16382, -0.83578,
 14:27:36.765,e3:ca:2d:fd:e0:8c, 2015-01-01 02:13:12.335, 0.905, -0.06, 0.464, 0, 1.343, -0.061, -7.482, -62.71, 169.794, -22.553, -8.507, -15.253, 30.48, 0.1087, 0.51334, -0.10147, 0.84515,
 14:27:36.765,e3:ca:2d:fd:e0:8c, 2015-01-01 02:13:12.335, 0.904, -0.061, 0.464, 0, 1.404, 0, -7.476, -62.682, 169.744, -22.553, -8.507, -15.253, 30.48, 0.1087, 0.51334, -0.10147, 0.84515,
 14:27:36.788,e3:ca:2d:fd:e0:8c, 2015-01-01 02:13:12.335, 0.904, -0.061, 0.466, 0.183, 1.221, 0.122, -7.476, -62.661, 169.717, -22.553, -8.507, -15.253, 30.48, 0.1087, 0.51334, -0.10147, 0.84515,
 14:27:36.788,e3:ca:2d:fd:e0:8c, 2015-01-01 02:13:12.335, 0.905, -0.063, 0.467, 0.488, 0.977, 0.366, -7.476, -62.639, 169.7, -22.553, -8.507, -15.253, 30.48, 0.1087, 0.51334, -0.10147, 0.84515,
 14:27:36.789,ed:40:fe:65:30:6c, 2015-01-01 02:13:11.170, 0.517, 0.422, 0.735, 0.977, 0.549, 0.305, 30.405, -31.783, -156.995, -13.980, -17.413, -4.267, 28.48, 0.25528, -0.20877, -0.29977, -0.89514,
 14:27:36.789,ed:40:fe:65:30:6c, 2015-01-01 02:13:11.170, 0.524, 0.416, 0.737, 2.319, 0.061, 0.061, 30.432, -31.778, -157, -13.980, -17.413, -4.267, 28.48, 0.25528, -0.20877, -0.29977, -0.89514,
 14:27:36.790,ed:35:33:d3:6c:f8, 2015-01-01 02:13:11.680, 0.389, 0.466, 0.786, 1.343, 0, 0.366, 31.3, -23.335, 118.477, -9.993, -18.993, -27.013, 30.91, 0.4353, 0.30231, 0.12717, 0.83835,
 14:27:36.790,ed:35:33:d3:6c:f8, 2015-01-01 02:13:11.680, 0.394, 0.464, 0.788, 2.258, 0.793, 0, 31.339, -23.318, 118.542, -9.993, -18.993, -27.013, 30.91, 0.4353, 0.30231, 0.12717, 0.83835,
 14:27:36.792,f6:90:cc:01:6d:25, 2015-01-01 02:13:10.805, 0.875, 0.234, 0.398, 1.77, -0.183, -0.061, 30.861, -62.336, 166.102, -24.973, -14.587, -8.660, 32.68, 0.03558, -0.52274, -0.16382, -0.83578,
 14:27:36.792,f6:90:cc:01:6d:25, 2015-01-01 02:13:10.805, 0.876, 0.234, 0.397, 1.587, -0.366, -0.366, 30.905, -62.336, 166.102, -24.973, -14.587, -8.660, 32.68, 0.03558, -0.52274, -0.16382, -0.83578,
 14:27:36.810,e3:ca:2d:fd:e0:8c, 2015-01-01 02:13:12.335, 0.906, -0.066, 0.466, 0.793, 0.793, 0.427, -7.471, -62.622, 169.678, -22.553, -8.507, -15.253, 30.48, 0.1087, 0.51334, -0.10147, 0.84515,
 14:27:36.810,e3:ca:2d:fd:e0:8c, 2015-01-01 02:13:12.335, 0.906, -0.063, 0.466, 0.732, 0.61, 0.366, -7.471, -62.611, 169.662, -22.553, -8.507, -15.253, 30.48, 0.1087, 0.51334, -0.10147, 0.84515,
 14:27:36.812,ed:40:fe:65:30:6c, 2015-01-01 02:13:11.525, 0.526, 0.418, 0.739, 2.563, -0.061, -0.244, 30.482, -31.772, -157.017, -13.980, -17.413, -4.267, 28.48, 0.25528, -0.20877, -0.29977, -0.89514,
 14:27:36.812,ed:40:fe:65:30:6c, 2015-01-01 02:13:11.525, 0.528, 0.424, 0.738, 2.258, 0, -0.305, 30.526, -31.772, -157.033, -13.980, -17.413, -4.267, 28.48, 0.25528, -0.20877, -0.29977, -0.89514,
 14:27:36.813,ed:35:33:d3:6c:f8, 2015-01-01 02:13:11.680, 0.397, 0.471, 0.788, 2.258, 1.099, -0.183, 31.377, -23.297, 118.603, -9.993, -18.993, -27.013, 30.91, 0.4353, 0.30231, 0.12717, 0.83835,
 14:27:36.813,ed:35:33:d3:6c:f8, 2015-01-01 02:13:11.680, 0.396, 0.48, 0.788, 1.77, 0.916, -0.061, 31.404, -23.28, 118.63, -9.993, -18.993, -27.013, 30.91, 0.4353, 0.30231, 0.12717, 0.83835,
 14:27:36.814,f6:90:cc:01:6d:25, 2015-01-01 02:13:10.805, 0.881, 0.232, 0.396, 1.282, -0.549, -0.61, 30.954, -62.336, 166.097, -24.913, -15.253, -8.700, 32.68, 0.03558, -0.52274, -0.16382, -0.83578,
 14:27:36.814,f6:90:cc:01:6d:25, 2015-01-01 02:13:10.805, 0.875, 0.236, 0.391, 0.427, -0.122, -1.038, 30.998, -62.331, 166.069, -24.913, -15.253, -8.700, 32.68, 0.03558, -0.52274, -0.16382, -0.83578,
 14:27:36.833,ed:40:fe:65:30:6c, 2015-01-01 02:13:11.525, 0.528, 0.429, 0.734, 1.465, 0.061, -0.061, 30.558, -31.767, -157.039, -13.980, -17.413, -4.267, 28.48, 0.25528, -0.20877, -0.29977, -0.89514,
 14:27:36.833,ed:40:fe:65:30:6c, 2015-01-01 02:13:11.525, 0.528, 0.43, 0.734, 0.549, 0.061, 0.244, 30.569, -31.767, -157.039, -13.980, -17.413, -4.267, 28.48, 0.25528, -0.20877, -0.29977, -0.89514,
 14:27:36.858,ed:35:33:d3:6c:f8, 2015-01-01 02:13:11.680, 0.397, 0.483, 0.787, 0.977, -0.366, 0.366, 31.421, -23.291, 118.636, -9.993, -18.993, -27.013, 30.91, 0.4353, 0.30231, 0.12717, 0.83835,
 14:27:36.858,ed:35:33:d3:6c:f8, 2015-01-01 02:13:11.680, 0.399, 0.485, 0.784, 0, -1.404, 0.854, 31.421, -23.318, 118.597, -9.993, -18.993, -27.013, 30.91, 0.4353, 0.30231, 0.12717, 0.83835,
 14:27:36.859,f6:90:cc:01:6d:25, 2015-01-01 02:13:10.805, 0.874, 0.232, 0.387, 0.61, -0.122, -1.465, 31.053, -62.32, 166.042, -24.913, -15.253, -8.700, 32.68, 0.03558, -0.52274, -0.16382, -0.83578,
 14:27:36.859,f6:90:cc:01:6d:25, 2015-01-01 02:13:10.805, 0.875, 0.232, 0.388, 1.099, -0.305, -1.526, 31.124, -62.309, 166.003, -24.913, -15.253, -8.700, 32.68, 0.03558, -0.52274, -0.16382, -0.83578,
 14:27:36.879,ed:40:fe:65:30:6c, 2015-01-01 02:13:11.525, 0.532, 0.432, 0.73, -0.122, 0, 0.732, 30.564, -31.772, -157.028, -13.980, -17.413, -4.267, 28.48, 0.25528, -0.20877, -0.29977, -0.89514,
 14:27:36.879,ed:40:fe:65:30:6c, 2015-01-01 02:13:11.525, 0.533, 0.428, 0.729, -0.671, -0.061, 0.916, 30.542, -31.778, -156.995, -13.980, -17.413, -4.267, 28.48, 0.25528, -0.20877, -0.29977, -0.89514,
 14:27:36.879,e3:ca:2d:fd:e0:8c, 2015-01-01 02:13:12.335, 0.906, -0.061, 0.465, 0.427, 0.549, 0.183, -7.471, -62.6, 169.656, -22.553, -8.507, -15.253, 30.48, 0.1087, 0.51334, -0.10147, 0.84515,
 14:27:36.879,e3:ca:2d:fd:e0:8c, 2015-01-01 02:13:12.335, 0.909, -0.059, 0.465, 0.244, 0.427, 0, -7.465, -62.595, 169.645, -22.553, -8.507, -15.253, 30.48, 0.1087, 0.51334, -0.10147, 0.84515,
 14:27:36.900,e3:ca:2d:fd:e0:8c, 2015-01-01 02:13:12.335, 0.908, -0.062, 0.463, -0.793, 0.732, -0.549, -7.46, -62.584, 169.612, -22.267, -8.333, -15.160, 30.48, 0.1087, 0.51334, -0.10147, 0.84515,
 14:27:36.900,e3:ca:2d:fd:e0:8c, 2015-01-01 02:13:12.335, 0.905, -0.066, 0.462, -0.61, 1.038, -0.793, -7.449, -62.573, 169.568, -22.267, -8.333, -15.160, 30.48, 0.1087, 0.51334, -0.10147, 0.84515,
 14:27:36.903,ed:35:33:d3:6c:f8, 2015-01-01 02:13:11.680, 0.405, 0.482, 0.78, -0.793, -1.892, 1.221, 31.404, -23.362, 118.548, -9.993, -18.993, -27.013, 30.91, 0.4353, 0.30231, 0.12717, 0.83835,
 14:27:36.904,ed:35:33:d3:6c:f8, 2015-01-01 02:13:11.680, 0.403, 0.475, 0.775, -1.465, -1.648, 1.221, 31.371, -23.406, 118.466, -9.993, -18.993, -27.013, 30.91, 0.4353, 0.30231, 0.12717, 0.83835,
 14:27:36.906,f6:90:cc:01:6d:25, 2015-01-01 02:13:10.805, 0.875, 0.237, 0.39, 0.854, -0.488, -1.221, 31.19, -62.303, 165.965, -24.913, -15.253, -8.700, 32.68, 0.03732, -0.52264, -0.16696, -0.83514,
 14:27:36.906,f6:90:cc:01:6d:25, 2015-01-01 02:13:10.805, 0.876, 0.233, 0.39, 0.61, -0.549, -1.099, 31.245, -62.303, 165.916, -24.913, -15.253, -8.700, 32.68, 0.03732, -0.52264, -0.16696, -0.83514,
 14:27:36.924,ed:40:fe:65:30:6c, 2015-01-01 02:13:11.525, 0.532, 0.424, 0.725, -1.038, 0.061, 0.854, 30.509, -31.789, -156.967, -13.980, -17.413, -4.267, 28.48, 0.25528, -0.20877, -0.29977, -0.89514,
 14:27:36.924,ed:40:fe:65:30:6c, 2015-01-01 02:13:11.525, 0.534, 0.423, 0.726, -1.648, 0.488, 0.977, 30.471, -31.794, -156.945, -13.980, -17.413, -4.267, 28.48, 0.25528, -0.20877, -0.29977, -0.89514,
 14:27:36.947,ed:40:fe:65:30:6c, 2015-01-01 02:13:11.525, 0.526, 0.426, 0.732, -0.671, 0.977, 0.977, 30.427, -31.794, -156.94, -13.980, -17.413, -4.267, 28.48, 0.25528, -0.20877, -0.29977, -0.89514,
 14:27:36.947,ed:40:fe:65:30:6c, 2015-01-01 02:13:11.525, 0.532, 0.428, 0.731, -0.183, 1.16, 1.038, 30.399, -31.789, -156.934, -13.980, -17.413, -4.267, 28.48, 0.25528, -0.20877, -0.29977, -0.89514,
 14:27:36.948,f6:90:cc:01:6d:25, 2015-01-01 02:13:11.115, 0.879, 0.231, 0.387, 0.61, -0.305, -0.977, 31.295, -62.298, 165.883, -24.913, -15.253, -8.700, 32.68, 0.03732, -0.52264, -0.16696, -0.83514,
 14:27:36.948,f6:90:cc:01:6d:25, 2015-01-01 02:13:11.115, 0.878, 0.235, 0.387, 0.366, 0, -0.793, 31.328, -62.292, 165.872, -24.913, -15.253, -8.700, 32.68, 0.03732, -0.52264, -0.16696, -0.83514,
 14:27:36.948,ed:35:33:d3:6c:f8, 2015-01-01 02:13:11.680, 0.406, 0.475, 0.773, -2.197, -1.587, 1.282, 31.328, -23.445, 118.361, -9.993, -18.993, -27.013, 30.91, 0.4353, 0.30231, 0.12717, 0.83835,
 14:27:36.948,ed:35:33:d3:6c:f8, 2015-01-01 02:13:11.680, 0.401, 0.475, 0.776, -2.869, -1.221, 1.465, 31.267, -23.483, 118.246, -9.993, -18.993, -27.013, 30.91, 0.4353, 0.30231, 0.12717, 0.83835,
 14:27:36.968,e3:ca:2d:fd:e0:8c, 2015-01-01 02:13:12.335, 0.903, -0.069, 0.464, -0.488, 1.343, -0.977, -7.427, -62.551, 169.519, -22.267, -8.333, -15.160, 30.48, 0.1087, 0.51334, -0.10147, 0.84515,
 14:27:36.968,e3:ca:2d:fd:e0:8c, 2015-01-01 02:13:12.335, 0.904, -0.066, 0.468, -0.549, 1.343, -1.099, -7.394, -62.529, 169.453, -22.267, -8.333, -15.160, 30.48, 0.1087, 0.51334, -0.10147, 0.84515,
 14:27:36.972,ed:35:33:d3:6c:f8, 2015-01-01 02:13:11.680, 0.4, 0.477, 0.778, -2.625, 0.061, 1.282, 31.207, -23.494, 118.152, -9.973, -18.447, -27.547, 30.91, 0.4353, 0.30231, 0.12717, 0.83835,
 14:27:36.972,ed:35:33:d3:6c:f8, 2015-01-01 02:13:11.680, 0.408, 0.475, 0.777, -2.625, 1.038, 0.916, 31.146, -23.489, 118.081, -9.973, -18.447, -27.547, 30.91, 0.4353, 0.30231, 0.12717, 0.83835,
 14:27:36.992,ed:40:fe:65:30:6c, 2015-01-01 02:13:11.525, 0.535, 0.429, 0.724, -1.343, 1.038, 0.61, 30.366, -31.783, -156.929, -13.980, -17.413, -4.267, 28.48, 0.25528, -0.20877, -0.29977, -0.89514,
 14:27:36.992,ed:40:fe:65:30:6c, 2015-01-01 02:13:11.525, 0.533, 0.425, 0.728, -2.075, 0.916, 0.183, 30.322, -31.772, -156.934, -13.980, -17.413, -4.267, 28.48, 0.25528, -0.20877, -0.29977, -0.89514,
 14:27:36.992,e3:ca:2d:fd:e0:8c, 2015-01-01 02:13:12.335, 0.905, -0.063, 0.469, -0.854, 1.221, -1.099, -7.366, -62.507, 169.382, -22.267, -8.333, -15.160, 30.48, 0.11179, 0.51059, -0.10248, 0.84628,
 14:27:36.992,e3:ca:2d:fd:e0:8c, 2015-01-01 02:13:12.335, 0.906, -0.061, 0.468, -0.977, 1.16, -1.221, -7.339, -62.49, 169.338, -22.267, -8.333, -15.160, 30.48, 0.11179, 0.51059, -0.10248, 0.84628,
 14:27:36.994,f6:90:cc:01:6d:25, 2015-01-01 02:13:11.115, 0.877, 0.242, 0.387, 0.183, 0.366, -0.61, 31.344, -62.287, 165.883, -24.913, -15.253, -8.700, 32.68, 0.03732, -0.52264, -0.16696, -0.83514,
 14:27:36.994,f6:90:cc:01:6d:25, 2015-01-01 02:13:11.115, 0.879, 0.243, 0.389, -0.305, 0.549, -0.427, 31.344, -62.276, 165.872, -24.913, -15.253, -8.700, 32.68, 0.03732, -0.52264, -0.16696, -0.83514,
 14:27:37.015,ed:35:33:d3:6c:f8, 2015-01-01 02:13:11.680, 0.407, 0.472, 0.777, -2.991, 1.465, 0.366, 31.08, -23.472, 118.004, -9.973, -18.447, -27.547, 30.91, 0.4353, 0.30231, 0.12717, 0.83835,
 14:27:37.015,ed:35:33:d3:6c:f8, 2015-01-01 02:13:11.680, 0.401, 0.473, 0.781, -3.357, 1.282, 0.244, 31.009, -23.456, 117.977, -9.973, -18.447, -27.547, 30.91, 0.4353, 0.30231, 0.12717, 0.83835,
 14:27:37.016,f6:90:cc:01:6d:25, 2015-01-01 02:13:11.115, 0.878, 0.24, 0.392, -0.793, 0.549, -0.244, 31.322, -62.265, 165.855, -24.913, -15.253, -8.700, 32.68, 0.03732, -0.52264, -0.16696, -0.83514,
 14:27:37.016,f6:90:cc:01:6d:25, 2015-01-01 02:13:11.115, 0.875, 0.233, 0.394, -0.671, 0.61, -0.366, 31.311, -62.254, 165.817, -24.913, -15.253, -8.700, 32.68, 0.03732, -0.52264, -0.16696, -0.83514,
 14:27:37.035,e3:ca:2d:fd:e0:8c, 2015-01-01 02:13:12.335, 0.905, -0.062, 0.468, -1.099, 1.038, -1.404, -7.311, -62.468, 169.31, -22.267, -8.333, -15.160, 30.48, 0.11179, 0.51059, -0.10248, 0.84628,
 14:27:37.035,e3:ca:2d:fd:e0:8c, 2015-01-01 02:13:12.335, 0.903, -0.064, 0.468, -1.465, 0.854, -1.77, -7.278, -62.452, 169.305, -22.267, -8.333, -15.160, 30.48, 0.11179, 0.51059, -0.10248, 0.84628,
 14:27:37.058,e3:ca:2d:fd:e0:8c, 2015-01-01 02:13:12.715, 0.903, -0.062, 0.468, -1.465, 0.732, -1.831, -7.24, -62.441, 169.283, -22.267, -8.333, -15.160, 30.48, 0.11179, 0.51059, -0.10248, 0.84628,
 14:27:37.058,e3:ca:2d:fd:e0:8c, 2015-01-01 02:13:12.715, 0.903, -0.059, 0.468, -1.282, 0.854, -1.587, -7.202, -62.435, 169.228, -22.267, -8.333, -15.160, 30.48, 0.11179, 0.51059, -0.10248, 0.84628,
 14:27:37.059,ed:40:fe:65:30:6c, 2015-01-01 02:13:11.525, 0.526, 0.422, 0.732, -2.563, 1.221, 0.366, 30.267, -31.761, -156.934, -13.653, -17.500, -4.327, 28.48, 0.25528, -0.20877, -0.29977, -0.89514,
 14:27:37.059,ed:40:fe:65:30:6c, 2015-01-01 02:13:11.525, 0.521, 0.421, 0.734, -2.991, 1.587, 0.732, 30.196, -31.745, -156.923, -13.653, -17.500, -4.327, 28.48, 0.25528, -0.20877, -0.29977, -0.89514,
 14:27:37.061,f6:90:cc:01:6d:25, 2015-01-01 02:13:11.115, 0.871, 0.234, 0.392, -0.122, 0.793, -0.427, 31.3, -62.243, 165.811, -24.913, -15.253, -8.700, 32.68, 0.03732, -0.52264, -0.16696, -0.83514,
 14:27:37.061,f6:90:cc:01:6d:25, 2015-01-01 02:13:11.115, 0.867, 0.24, 0.393, 0.244, 0.916, -0.305, 31.3, -62.227, 165.817, -24.913, -15.253, -8.700, 32.68, 0.03732, -0.52264, -0.16696, -0.83514,
 14:27:37.081,ed:40:fe:65:30:6c, 2015-01-01 02:13:11.525, 0.518, 0.425, 0.733, -3.296, 1.587, 0.732, 30.119, -31.729, -156.912, -13.653, -17.500, -4.327, 28.48, 0.25546, -0.20865, -0.29782, -0.89578,
 14:27:37.081,ed:40:fe:65:30:6c, 2015-01-01 02:13:11.525, 0.517, 0.425, 0.732, -3.235, 1.404, 0.793, 30.037, -31.718, -156.896, -13.653, -17.500, -4.327, 28.48, 0.25546, -0.20865, -0.29782, -0.89578,
 14:27:37.083,ed:35:33:d3:6c:f8, 2015-01-01 02:13:11.680, 0.395, 0.471, 0.783, -3.723, 0.732, 0.61, 30.932, -23.456, 117.949, -9.973, -18.447, -27.547, 30.91, 0.43933, 0.30292, 0.12366, 0.83658,
 14:27:37.083,ed:35:33:d3:6c:f8, 2015-01-01 02:13:11.680, 0.392, 0.47, 0.782, -4.089, 0.549, 0.671, 30.85, -23.456, 117.911, -9.973, -18.447, -27.547, 30.91, 0.43933, 0.30292, 0.12366, 0.83658,
 14:27:37.103,e3:ca:2d:fd:e0:8c, 2015-01-01 02:13:12.715, 0.904, -0.057, 0.47, -0.916, 0.854, -1.343, -7.169, -62.419, 169.184, -22.267, -8.333, -15.160, 30.48, 0.11179, 0.51059, -0.10248, 0.84628,
 14:27:37.103,e3:ca:2d:fd:e0:8c, 2015-01-01 02:13:12.715, 0.904, -0.056, 0.469, -0.854, 0.854, -1.282, -7.136, -62.408, 169.113, -22.267, -8.333, -15.160, 30.48, 0.11179, 0.51059, -0.10248, 0.84628,
 14:27:37.104,ed:35:33:d3:6c:f8, 2015-01-01 02:13:12.035, 0.39, 0.472, 0.781, -4.028, 0.854, 0.305, 30.767, -23.445, 117.867, -9.973, -18.447, -27.547, 30.91, 0.43933, 0.30292, 0.12366, 0.83658,
 14:27:37.104,ed:35:33:d3:6c:f8, 2015-01-01 02:13:12.035, 0.391, 0.472, 0.783, -3.845, 1.099, 0.183, 30.69, -23.428, 117.795, -9.973, -18.447, -27.547, 30.91, 0.43933, 0.30292, 0.12366, 0.83658,
 14:27:37.106,f6:90:cc:01:6d:25, 2015-01-01 02:13:11.115, 0.867, 0.244, 0.393, 0.183, 0.977, -0.183, 31.289, -62.205, 165.795, -24.913, -15.253, -8.700, 32.68, 0.03732, -0.52264, -0.16696, -0.83514,
 14:27:37.106,f6:90:cc:01:6d:25, 2015-01-01 02:13:11.115, 0.87, 0.245, 0.394, 0, 0.916, -0.122, 31.273, -62.194, 165.773, -24.913, -15.253, -8.700, 32.68, 0.03732, -0.52264, -0.16696, -0.83514,
 14:27:37.126,e3:ca:2d:fd:e0:8c, 2015-01-01 02:13:12.715, 0.905, -0.056, 0.469, -0.916, 0.793, -1.221, -7.108, -62.397, 169.03, -22.267, -8.333, -15.160, 30.48, 0.11179, 0.51059, -0.10248, 0.84628,
 14:27:37.126,e3:ca:2d:fd:e0:8c, 2015-01-01 02:13:12.715, 0.905, -0.057, 0.468, -0.793, 0.671, -0.977, -7.081, -62.38, 168.942, -22.267, -8.333, -15.160, 30.48, 0.11179, 0.51059, -0.10248, 0.84628,
 14:27:37.126,ed:40:fe:65:30:6c, 2015-01-01 02:13:11.525, 0.52, 0.424, 0.736, -2.93, 1.099, 0.732, 29.96, -31.701, -156.885, -13.653, -17.500, -4.327, 28.48, 0.25546, -0.20865, -0.29782, -0.89578,
 14:27:37.126,ed:40:fe:65:30:6c, 2015-01-01 02:13:11.525, 0.519, 0.42, 0.741, -2.563, 0.793, 0.671, 29.894, -31.696, -156.874, -13.653, -17.500, -4.327, 28.48, 0.25546, -0.20865, -0.29782, -0.89578,
 14:27:37.149,ed:40:fe:65:30:6c, 2015-01-01 02:13:11.860, 0.517, 0.418, 0.741, -2.136, 0.488, 0.61, 29.839, -31.69, -156.863, -13.653, -17.500, -4.327, 28.48, 0.25546, -0.20865, -0.29782, -0.89578,
 14:27:37.151,ed:40:fe:65:30:6c, 2015-01-01 02:13:11.860, 0.517, 0.424, 0.743, -1.526, 0.488, 0.244, 29.795, -31.685, -156.868, -13.653, -17.500, -4.327, 28.48, 0.25546, -0.20865, -0.29782, -0.89578,
 14:27:37.153,f6:90:cc:01:6d:25, 2015-01-01 02:13:11.115, 0.873, 0.243, 0.397, 0, 0.671, -0.061, 31.267, -62.177, 165.745, -24.333, -14.927, -9.267, 32.68, 0.03732, -0.52264, -0.16696, -0.83514,
 14:27:37.153,f6:90:cc:01:6d:25, 2015-01-01 02:13:11.115, 0.87, 0.245, 0.396, 0.183, 0.61, -0.183, 31.267, -62.166, 165.723, -24.333, -14.927, -9.267, 32.68, 0.03732, -0.52264, -0.16696, -0.83514,
 14:27:37.153,ed:35:33:d3:6c:f8, 2015-01-01 02:13:12.035, 0.392, 0.467, 0.788, -3.235, 1.282, 0.061, 30.624, -23.412, 117.74, -9.973, -18.447, -27.547, 30.91, 0.43933, 0.30292, 0.12366, 0.83658,
 14:27:37.153,ed:35:33:d3:6c:f8, 2015-01-01 02:13:12.035, 0.387, 0.466, 0.79, -2.808, 1.465, 0.122, 30.564, -23.384, 117.74, -9.973, -18.447, -27.547, 30.91, 0.43933, 0.30292, 0.12366, 0.83658,
 14:27:37.171,e3:ca:2d:fd:e0:8c, 2015-01-01 02:13:12.715, 0.903, -0.057, 0.469, -0.427, 0.671, -0.671, -7.059, -62.375, 168.876, -22.267, -8.333, -15.160, 30.48, 0.11179, 0.51059, -0.10248, 0.84628,
 14:27:37.171,e3:ca:2d:fd:e0:8c, 2015-01-01 02:13:12.715, 0.902, -0.056, 0.471, -0.061, 0.732, -0.366, -7.042, -62.364, 168.81, -22.267, -8.333, -15.160, 30.48, 0.11179, 0.51059, -0.10248, 0.84628,
 14:27:37.172,ed:35:33:d3:6c:f8, 2015-01-01 02:13:12.035, 0.388, 0.466, 0.79, -1.77, 1.404, 0.244, 30.526, -23.362, 117.735, -9.973, -18.447, -27.547, 30.91, 0.43933, 0.30292, 0.12366, 0.83658,
 14:27:37.172,ed:35:33:d3:6c:f8, 2015-01-01 02:13:12.035, 0.385, 0.472, 0.793, -1.099, 1.709, -0.122, 30.504, -23.335, 117.729, -9.973, -18.447, -27.547, 30.91, 0.43933, 0.30292, 0.12366, 0.83658,
 14:27:37.194,ed:40:fe:65:30:6c, 2015-01-01 02:13:11.860, 0.515, 0.426, 0.746, -1.282, 0.549, 0.183, 29.762, -31.679, -156.874, -13.653, -17.500, -4.327, 28.48, 0.25546, -0.20865, -0.29782, -0.89578,
 14:27:37.194,ed:40:fe:65:30:6c, 2015-01-01 02:13:11.860, 0.515, 0.427, 0.745, -1.16, 0.427, 0.366, 29.734, -31.668, -156.885, -13.653, -17.500, -4.327, 28.48, 0.25546, -0.20865, -0.29782, -0.89578,
 14:27:37.197,f6:90:cc:01:6d:25, 2015-01-01 02:13:11.115, 0.869, 0.247, 0.399, 0.122, 0.549, -0.183, 31.267, -62.155, 165.729, -24.333, -14.927, -9.267, 32.68, 0.03561, -0.52188, -0.16727, -0.83563,
 14:27:37.197,f6:90:cc:01:6d:25, 2015-01-01 02:13:11.115, 0.869, 0.247, 0.399, 0.305, 0.244, -0.122, 31.273, -62.144, 165.712, -24.333, -14.927, -9.267, 32.68, 0.03561, -0.52188, -0.16727, -0.83563,
 14:27:37.219,ed:35:33:d3:6c:f8, 2015-01-01 02:13:12.035, 0.384, 0.476, 0.795, -0.732, 1.526, -0.122, 30.487, -23.302, 117.691, -9.973, -18.447, -27.547, 30.91, 0.43933, 0.30292, 0.12366, 0.83658,
 14:27:37.219,ed:35:33:d3:6c:f8, 2015-01-01 02:13:12.035, 0.383, 0.477, 0.794, -0.61, 1.038, 0.061, 30.476, -23.28, 117.686, -9.973, -18.447, -27.547, 30.91, 0.43933, 0.30292, 0.12366, 0.83658,
 14:27:37.219,f6:90:cc:01:6d:25, 2015-01-01 02:13:11.405, 0.867, 0.249, 0.397, 0.366, 0, -0.122, 31.289, -62.144, 165.718, -24.333, -14.927, -9.267, 32.68, 0.03561, -0.52188, -0.16727, -0.83563,
 14:27:37.219,f6:90:cc:01:6d:25, 2015-01-01 02:13:11.405, 0.867, 0.25, 0.396, 0.305, 0, 0, 31.3, -62.139, 165.723, -24.333, -14.927, -9.267, 32.68, 0.03561, -0.52188, -0.16727, -0.83563,
 14:27:37.237,e3:ca:2d:fd:e0:8c, 2015-01-01 02:13:12.715, 0.903, -0.055, 0.471, 0.061, 0.671, 0, -7.026, -62.347, 168.783, -22.267, -8.333, -15.160, 30.48, 0.11179, 0.51059, -0.10248, 0.84628,
 14:27:37.237,e3:ca:2d:fd:e0:8c, 2015-01-01 02:13:12.715, 0.903, -0.055, 0.471, 0.122, 0.61, 0.183, -7.026, -62.336, 168.783, -22.267, -8.333, -15.160, 30.48, 0.11179, 0.51059, -0.10248, 0.84628,
 14:27:37.239,ed:40:fe:65:30:6c, 2015-01-01 02:13:11.860, 0.514, 0.429, 0.743, -0.793, 0.122, 0.488, 29.713, -31.668, -156.885, -13.653, -17.500, -4.327, 28.48, 0.25546, -0.20865, -0.29782, -0.89578,
 14:27:37.239,ed:40:fe:65:30:6c, 2015-01-01 02:13:11.860, 0.516, 0.428, 0.743, -0.671, -0.366, 0.366, 29.696, -31.668, -156.89, -13.653, -17.500, -4.327, 28.48, 0.25546, -0.20865, -0.29782, -0.89578,
 14:27:37.260,e3:ca:2d:fd:e0:8c, 2015-01-01 02:13:12.715, 0.904, -0.056, 0.471, 0.305, 0.61, 0.366, -7.026, -62.325, 168.805, -22.727, -8.507, -15.007, 30.48, 0.11179, 0.51059, -0.10248, 0.84628,
 14:27:37.260,e3:ca:2d:fd:e0:8c, 2015-01-01 02:13:12.715, 0.903, -0.057, 0.47, 0.488, 0.549, 0.488, -7.031, -62.314, 168.854, -22.727, -8.507, -15.007, 30.48, 0.11179, 0.51059, -0.10248, 0.84628,
 14:27:37.264,f6:90:cc:01:6d:25, 2015-01-01 02:13:11.405, 0.869, 0.25, 0.396, 0, -0.183, 0.366, 31.3, -62.144, 165.751, -24.333, -14.927, -9.267, 32.68, 0.03561, -0.52188, -0.16727, -0.83563,
 14:27:37.264,f6:90:cc:01:6d:25, 2015-01-01 02:13:11.405, 0.872, 0.248, 0.396, -0.366, -0.366, 0.61, 31.289, -62.15, 165.806, -24.333, -14.927, -9.267, 32.68, 0.03561, -0.52188, -0.16727, -0.83563,
 14:27:37.264,ed:35:33:d3:6c:f8, 2015-01-01 02:13:12.035, 0.383, 0.475, 0.794, -0.366, 0.183, 0.061, 30.476, -23.275, 117.653, -9.973, -18.447, -27.547, 30.91, 0.43933, 0.30292, 0.12366, 0.83658,
 14:27:37.264,ed:35:33:d3:6c:f8, 2015-01-01 02:13:12.035, 0.388, 0.472, 0.792, -0.427, -0.183, -0.122, 30.471, -23.275, 117.609, -9.973, -18.447, -27.547, 30.91, 0.43933, 0.30292, 0.12366, 0.83658,
 14:27:37.285,ed:40:fe:65:30:6c, 2015-01-01 02:13:11.860, 0.52, 0.424, 0.741, -0.793, -0.61, 0.122, 29.685, -31.674, -156.912, -13.653, -17.500, -4.327, 28.48, 0.25546, -0.20865, -0.29782, -0.89578,
 14:27:37.285,ed:40:fe:65:30:6c, 2015-01-01 02:13:11.860, 0.523, 0.419, 0.739, -0.916, -0.671, 0, 29.674, -31.685, -156.929, -13.653, -17.500, -4.327, 28.48, 0.25546, -0.20865, -0.29782, -0.89578,
 14:27:37.305,e3:ca:2d:fd:e0:8c, 2015-01-01 02:13:12.715, 0.902, -0.058, 0.471, 0.488, 0.488, 0.549, -7.037, -62.298, 168.898, -22.727, -8.507, -15.007, 30.48, 0.11179, 0.51059, -0.10248, 0.84628,
 14:27:37.305,e3:ca:2d:fd:e0:8c, 2015-01-01 02:13:12.715, 0.901, -0.06, 0.472, 0.549, 0.549, 0.61, -7.042, -62.292, 168.931, -22.727, -8.507, -15.007, 30.48, 0.11179, 0.51059, -0.10248, 0.84628,
 14:27:37.307,ed:35:33:d3:6c:f8, 2015-01-01 02:13:12.035, 0.393, 0.469, 0.79, -0.732, -0.427, -0.244, 30.465, -23.275, 117.554, -9.973, -18.447, -27.547, 30.91, 0.43933, 0.30292, 0.12366, 0.83658,
 14:27:37.307,ed:35:33:d3:6c:f8, 2015-01-01 02:13:12.035, 0.393, 0.464, 0.788, -0.793, -0.427, -0.122, 30.46, -23.275, 117.493, -9.973, -18.447, -27.547, 30.91, 0.43933, 0.30292, 0.12366, 0.83658,
 14:27:37.308,f6:90:cc:01:6d:25, 2015-01-01 02:13:11.405, 0.871, 0.243, 0.395, -0.61, -0.427, 0.732, 31.267, -62.161, 165.866, -24.333, -14.927, -9.267, 32.68, 0.03561, -0.52188, -0.16727, -0.83563,
 14:27:37.308,f6:90:cc:01:6d:25, 2015-01-01 02:13:11.405, 0.871, 0.238, 0.395, -0.61, -0.427, 0.671, 31.245, -62.172, 165.943, -24.333, -14.927, -9.267, 32.68, 0.03561, -0.52188, -0.16727, -0.83563,
 14:27:37.327,e3:ca:2d:fd:e0:8c, 2015-01-01 02:13:12.715, 0.901, -0.061, 0.473, 0.427, 0.488, 0.549, -7.053, -62.276, 168.942, -22.727, -8.507, -15.007, 30.48, 0.11395, 0.50873, -0.10208, 0.84717,
 14:27:37.327,e3:ca:2d:fd:e0:8c, 2015-01-01 02:13:12.715, 0.901, -0.062, 0.473, 0.549, 0.366, 0.549, -7.059, -62.271, 168.948, -22.727, -8.507, -15.007, 30.48, 0.11395, 0.50873, -0.10208, 0.84717,
 14:27:37.331,ed:35:33:d3:6c:f8, 2015-01-01 02:13:12.035, 0.393, 0.461, 0.788, -0.732, -0.61, 0, 30.449, -23.28, 117.444, -9.760, -18.387, -27.467, 30.91, 0.43933, 0.30292, 0.12366, 0.83658,
 14:27:37.331,ed:35:33:d3:6c:f8, 2015-01-01 02:13:12.035, 0.396, 0.46, 0.788, -0.732, -0.488, -0.061, 30.438, -23.286, 117.372, -9.760, -18.387, -27.467, 30.91, 0.43933, 0.30292, 0.12366, 0.83658,
 14:27:37.351,ed:40:fe:65:30:6c, 2015-01-01 02:13:11.860, 0.523, 0.414, 0.738, -0.854, -0.366, 0, 29.663, -31.685, -156.945, -13.653, -17.500, -4.327, 28.48, 0.25546, -0.20865, -0.29782, -0.89578,
 14:27:37.351,ed:40:fe:65:30:6c, 2015-01-01 02:13:11.860, 0.524, 0.412, 0.739, -0.793, -0.305, 0.061, 29.647, -31.69, -156.956, -13.653, -17.500, -4.327, 28.48, 0.25546, -0.20865, -0.29782, -0.89578,
 14:27:37.354,f6:90:cc:01:6d:25, 2015-01-01 02:13:11.405, 0.872, 0.237, 0.395, -0.549, -0.366, 0.671, 31.223, -62.183, 165.998, -24.333, -14.927, -9.267, 32.68, 0.03561, -0.52188, -0.16727, -0.83563,
 14:27:37.354,f6:90:cc:01:6d:25, 2015-01-01 02:13:11.405, 0.875, 0.235, 0.395, -0.427, -0.366, 0.671, 31.207, -62.194, 166.069, -24.333, -14.927, -9.267, 32.68, 0.03561, -0.52188, -0.16727, -0.83563,
 14:27:37.374,ed:40:fe:65:30:6c, 2015-01-01 02:13:11.860, 0.526, 0.413, 0.738, -0.793, -0.183, 0, 29.63, -31.69, -156.956, -13.860, -16.727, -4.993, 28.48, 0.25546, -0.20865, -0.29782, -0.89578,
 14:27:37.377,ed:40:fe:65:30:6c, 2015-01-01 02:13:11.860, 0.528, 0.413, 0.74, -0.61, -0.183, 0.061, 29.619, -31.69, -156.956, -13.860, -16.727, -4.993, 28.48, 0.25546, -0.20865, -0.29782, -0.89578,
 14:27:37.377,f6:90:cc:01:6d:25, 2015-01-01 02:13:11.405, 0.876, 0.231, 0.394, 0, -0.122, 0.671, 31.185, -62.199, 166.135, -24.333, -14.927, -9.267, 32.68, 0.03561, -0.52188, -0.16727, -0.83563,
 14:27:37.377,f6:90:cc:01:6d:25, 2015-01-01 02:13:11.405, 0.874, 0.231, 0.394, 0.244, -0.061, 0.549, 31.168, -62.21, 166.196, -24.333, -14.927, -9.267, 32.68, 0.03561, -0.52188, -0.16727, -0.83563,
 14:27:37.378,e3:ca:2d:fd:e0:8c, 2015-01-01 02:13:12.715, 0.902, -0.062, 0.473, 0.549, 0.183, 0.488, -7.07, -62.26, 168.975, -22.727, -8.507, -15.007, 30.48, 0.11395, 0.50873, -0.10208, 0.84717,
 14:27:37.378,e3:ca:2d:fd:e0:8c, 2015-01-01 02:13:12.715, 0.903, -0.061, 0.472, 0.427, 0.061, 0.366, -7.075, -62.254, 168.997, -22.727, -8.507, -15.007, 30.48, 0.11395, 0.50873, -0.10208, 0.84717,
 14:27:37.379,ed:35:33:d3:6c:f8, 2015-01-01 02:13:12.035, 0.398, 0.461, 0.788, -0.549, -0.244, -0.183, 30.432, -23.286, 117.323, -9.760, -18.387, -27.467, 30.91, 0.43933, 0.30292, 0.12366, 0.83658,
 14:27:37.379,ed:35:33:d3:6c:f8, 2015-01-01 02:13:12.035, 0.398, 0.461, 0.789, -0.366, 0.366, -0.122, 30.427, -23.275, 117.279, -9.760, -18.387, -27.467, 30.91, 0.43933, 0.30292, 0.12366, 0.83658,
 14:27:37.419,ed:40:fe:65:30:6c, 2015-01-01 02:13:11.860, 0.529, 0.411, 0.74, -0.366, 0, 0.183, 29.603, -31.69, -156.951, -13.860, -16.727, -4.993, 28.48, 0.25546, -0.20865, -0.29782, -0.89578,
 14:27:37.419,ed:40:fe:65:30:6c, 2015-01-01 02:13:11.860, 0.526, 0.41, 0.742, -0.244, 0.061, 0.427, 29.592, -31.696, -156.951, -13.860, -16.727, -4.993, 28.48, 0.25546, -0.20865, -0.29782, -0.89578,
 14:27:37.422,f6:90:cc:01:6d:25, 2015-01-01 02:13:11.405, 0.875, 0.232, 0.394, 0.427, -0.061, 0.427, 31.157, -62.216, 166.229, -24.333, -14.927, -9.267, 32.68, 0.03561, -0.52188, -0.16727, -0.83563,
 14:27:37.422,f6:90:cc:01:6d:25, 2015-01-01 02:13:11.405, 0.874, 0.234, 0.392, 0.549, -0.061, 0.366, 31.152, -62.221, 166.218, -24.333, -14.927, -9.267, 32.68, 0.03561, -0.52188, -0.16727, -0.83563,
 14:27:37.441,e3:ca:2d:fd:e0:8c, 2015-01-01 02:13:13.050, 0.902, -0.062, 0.472, 0.183, 0, 0.183, -7.081, -62.254, 169.036, -22.727, -8.507, -15.007, 30.48, 0.11395, 0.50873, -0.10208, 0.84717,
