Time,Device name,Chip Time(),Acceleration X(g),Acceleration Y(g),Acceleration Z(g),Angular velocity X(°/s),Angular velocity Y(°/s),Angular velocity Z(°/s),Angle X(°),Angle Y(°),Angle Z(°),Magnetic field X(ʯt),Magnetic field Y(ʯt),Magnetic field Z(ʯt),Temperature(℃),Quaternions 0(),Quaternions 1(),Quaternions 2(),Quaternions 3()
 15:59:29.350,ed:35:33:d3:6c:f8, 2015-01-01 03:44:25.510, 0.704, -0.124, 0.688, -0.366, 0.61, 0.122, -9.932, -45.483, 149.293, -17.640, -7.380, -29.220, 30.99, 0.27667, 0.35098, -0.17923, 0.87637,
 15:59:29.350,ed:35:33:d3:6c:f8, 2015-01-01 03:44:25.510, 0.707, -0.123, 0.689, -0.305, 0.488, -0.244, -9.937, -45.467, 149.288, -17.640, -7.380, -29.220, 30.99, 0.27667, 0.35098, -0.17923, 0.87637,
 15:59:29.352,f6:90:cc:01:6d:25, 2015-01-01 03:44:24.765, 0.949, -0.207, 0.177, -0.183, 0.061, 0, -49.548, -73.982, -130.073, -30.633, -6.767, -4.740, 31.19, 0.07742, -0.63654, 0.07285, -0.76382,
 15:59:29.352,f6:90:cc:01:6d:25, 2015-01-01 03:44:24.765, 0.95, -0.206, 0.179, -0.366, 0, 0, -49.543, -73.982, -130.073, -30.633, -6.767, -4.740, 31.19, 0.07742, -0.63654, 0.07285, -0.76382,
 15:59:29.371,e3:ca:2d:fd:e0:8c, 2015-01-01 03:44:26.165, 0.942, -0.251, 0.306, 0, -0.488, 0.061, -39.271, -67.115, -159.148, -27.247, -6.913, -12.887, 28.43, -0.04044, -0.56268, 0.181, -0.80551,
 15:59:29.371,e3:ca:2d:fd:e0:8c, 2015-01-01 03:44:26.165, 0.943, -0.251, 0.306, 0, -0.427, 0.061, -39.287, -67.121, -159.175, -27.247, -6.913, -12.887, 28.43, -0.04044, -0.56268, 0.181, -0.80551,
 15:59:29.393,e3:ca:2d:fd:e0:8c, 2015-01-01 03:44:26.520, 0.943, -0.251, 0.308, -0.061, -0.61, 0, -39.298, -67.126, -159.203, -27.247, -6.913, -12.887, 28.43, -0.04044, -0.56268, 0.181, -0.80551,
 15:59:29.393,e3:ca:2d:fd:e0:8c, 2015-01-01 03:44:26.520, 0.943, -0.251, 0.307, -0.244, -0.61, 0, -39.315, -67.137, -159.197, -27.247, -6.913, -12.887, 28.43, -0.04044, -0.56268, 0.181, -0.80551,
 15:59:29.394,ed:40:fe:65:30:6c, 2015-01-01 03:44:25.405, 0.733, -0.157, 0.668, -0.244, 0.427, -0.366, -13.107, -46.846, -116.093, -22.593, -6.100, -3.827, 26.19, 0.44461, -0.39139, -0.12094, -0.79651,
 15:59:29.394,ed:40:fe:65:30:6c, 2015-01-01 03:44:25.405, 0.733, -0.158, 0.667, -0.122, 0.366, -0.488, -13.101, -46.84, -116.12, -22.593, -6.100, -3.827, 26.19, 0.44461, -0.39139, -0.12094, -0.79651,
 15:59:29.396,ed:35:33:d3:6c:f8, 2015-01-01 03:44:25.510, 0.706, -0.123, 0.688, -0.183, 0.366, -0.427, -9.932, -45.456, 149.277, -17.640, -7.380, -29.220, 30.99, 0.27667, 0.35098, -0.17923, 0.87637,
 15:59:29.396,ed:35:33:d3:6c:f8, 2015-01-01 03:44:25.510, 0.706, -0.124, 0.688, -0.183, 0.549, -0.305, -9.932, -45.445, 149.266, -17.640, -7.380, -29.220, 30.99, 0.27667, 0.35098, -0.17923, 0.87637,
 15:59:29.396,f6:90:cc:01:6d:25, 2015-01-01 03:44:25.035, 0.95, -0.207, 0.178, -0.305, 0, 0, -49.543, -73.982, -130.051, -30.633, -6.767, -4.740, 31.19, 0.07742, -0.63654, 0.07285, -0.76382,
 15:59:29.396,f6:90:cc:01:6d:25, 2015-01-01 03:44:25.035, 0.949, -0.208, 0.179, -0.183, 0, 0, -49.543, -73.982, -130.018, -30.633, -6.767, -4.740, 31.19, 0.07742, -0.63654, 0.07285, -0.76382,
 15:59:29.415,e3:ca:2d:fd:e0:8c, 2015-01-01 03:44:26.520, 0.942, -0.25, 0.305, -0.183, -0.61, 0, -39.337, -67.148, -159.175, -27.247, -6.913, -12.887, 28.43, -0.04044, -0.56268, 0.181, -0.80551,
 15:59:29.415,e3:ca:2d:fd:e0:8c, 2015-01-01 03:44:26.520, 0.942, -0.25, 0.306, -0.244, -0.61, 0, -39.353, -67.154, -159.17, -27.247, -6.913, -12.887, 28.43, -0.04044, -0.56268, 0.181, -0.80551,
 15:59:29.440,ed:40:fe:65:30:6c, 2015-01-01 03:44:25.405, 0.733, -0.158, 0.667, -0.061, 0.366, -0.427, -13.096, -46.835, -116.147, -22.593, -6.100, -3.827, 26.19, 0.44461, -0.39139, -0.12094, -0.79651,
 15:59:29.440,ed:40:fe:65:30:6c, 2015-01-01 03:44:25.405, 0.731, -0.158, 0.667, 0.183, 0.244, -0.427, -13.085, -46.835, -116.164, -22.593, -6.100, -3.827, 26.19, 0.44461, -0.39139, -0.12094, -0.79651,
 15:59:29.442,f6:90:cc:01:6d:25, 2015-01-01 03:44:25.035, 0.949, -0.206, 0.178, 0.061, 0.122, 0, -49.532, -73.976, -129.99, -30.633, -6.767, -4.740, 31.19, 0.07742, -0.63654, 0.07285, -0.76382,
 15:59:29.442,f6:90:cc:01:6d:25, 2015-01-01 03:44:25.035, 0.948, -0.207, 0.178, 0.183, 0.183, 0, -49.51, -73.976, -129.952, -30.633, -6.767, -4.740, 31.19, 0.07742, -0.63654, 0.07285, -0.76382,
 15:59:29.461,e3:ca:2d:fd:e0:8c, 2015-01-01 03:44:26.520, 0.942, -0.251, 0.306, -0.061, -0.427, 0, -39.375, -67.165, -159.164, -27.247, -6.913, -12.887, 28.43, -0.04044, -0.56268, 0.181, -0.80551,
 15:59:29.461,e3:ca:2d:fd:e0:8c, 2015-01-01 03:44:26.520, 0.942, -0.249, 0.308, 0, -0.427, -0.061, -39.386, -67.17, -159.159, -27.247, -6.913, -12.887, 28.43, -0.04044, -0.56268, 0.181, -0.80551,
 15:59:29.462,ed:40:fe:65:30:6c, 2015-01-01 03:44:25.405, 0.731, -0.157, 0.668, 0.488, 0.244, -0.366, -13.068, -46.829, -116.18, -22.627, -6.113, -3.620, 26.19, 0.44461, -0.39139, -0.12094, -0.79651,
 15:59:29.462,ed:40:fe:65:30:6c, 2015-01-01 03:44:25.405, 0.731, -0.157, 0.669, 0.549, 0.244, -0.305, -13.052, -46.829, -116.202, -22.627, -6.113, -3.620, 26.19, 0.44461, -0.39139, -0.12094, -0.79651,
 15:59:29.463,ed:35:33:d3:6c:f8, 2015-01-01 03:44:25.510, 0.707, -0.123, 0.688, -0.305, 0.916, -0.244, -9.932, -45.428, 149.266, -17.640, -7.380, -29.220, 30.99, 0.2757, 0.34991, -0.17896, 0.87717,
 15:59:29.463,ed:35:33:d3:6c:f8, 2015-01-01 03:44:25.510, 0.704, -0.123, 0.688, -0.122, 1.038, -0.122, -9.932, -45.406, 149.271, -17.640, -7.380, -29.220, 30.99, 0.2757, 0.34991, -0.17896, 0.87717,
 15:59:29.464,f6:90:cc:01:6d:25, 2015-01-01 03:44:25.035, 0.949, -0.208, 0.179, 0.244, 0.183, 0, -49.493, -73.971, -129.913, -30.633, -6.767, -4.740, 31.19, 0.07742, -0.63654, 0.07285, -0.76382,
 15:59:29.464,f6:90:cc:01:6d:25, 2015-01-01 03:44:25.035, 0.948, -0.207, 0.182, 0.305, 0.305, 0, -49.466, -73.965, -129.88, -30.633, -6.767, -4.740, 31.19, 0.07742, -0.63654, 0.07285, -0.76382,
 15:59:29.486,ed:35:33:d3:6c:f8, 2015-01-01 03:44:25.845, 0.703, -0.123, 0.689, 0.122, 0.977, -0.122, -9.926, -45.385, 149.271, -17.640, -7.380, -29.220, 30.99, 0.2757, 0.34991, -0.17896, 0.87717,
 15:59:29.486,ed:35:33:d3:6c:f8, 2015-01-01 03:44:25.845, 0.702, -0.123, 0.689, 0.366, 0.793, -0.122, -9.921, -45.368, 149.271, -17.640, -7.380, -29.220, 30.99, 0.2757, 0.34991, -0.17896, 0.87717,
 15:59:29.506,e3:ca:2d:fd:e0:8c, 2015-01-01 03:44:26.520, 0.942, -0.249, 0.308, 0, -0.549, -0.061, -39.397, -67.181, -159.164, -27.247, -6.913, -12.887, 28.43, -0.04044, -0.56268, 0.181, -0.80551,
 15:59:29.506,e3:ca:2d:fd:e0:8c, 2015-01-01 03:44:26.520, 0.942, -0.249, 0.308, -0.122, -0.549, -0.061, -39.408, -67.187, -159.17, -27.247, -6.913, -12.887, 28.43, -0.04044, -0.56268, 0.181, -0.80551,
 15:59:29.507,ed:40:fe:65:30:6c, 2015-01-01 03:44:25.405, 0.731, -0.156, 0.669, 0.549, 0.366, -0.305, -13.041, -46.824, -116.23, -22.627, -6.113, -3.620, 26.19, 0.44461, -0.39139, -0.12094, -0.79651,
 15:59:29.507,ed:40:fe:65:30:6c, 2015-01-01 03:44:25.405, 0.73, -0.155, 0.67, 0.488, 0.427, -0.366, -13.024, -46.818, -116.246, -22.627, -6.113, -3.620, 26.19, 0.44461, -0.39139, -0.12094, -0.79651,
 15:59:29.508,ed:35:33:d3:6c:f8, 2015-01-01 03:44:25.845, 0.701, -0.123, 0.69, 0.549, 0.854, -0.244, -9.904, -45.352, 149.277, -17.640, -7.380, -29.220, 30.99, 0.2757, 0.34991, -0.17896, 0.87717,
 15:59:29.508,ed:35:33:d3:6c:f8, 2015-01-01 03:44:25.845, 0.702, -0.12, 0.69, 0.488, 1.038, -0.427, -9.888, -45.33, 149.271, -17.640, -7.380, -29.220, 30.99, 0.2757, 0.34991, -0.17896, 0.87717,
 15:59:29.509,f6:90:cc:01:6d:25, 2015-01-01 03:44:25.035, 0.949, -0.205, 0.181, 0.244, 0.305, 0, -49.444, -73.96, -129.858, -30.633, -6.767, -4.740, 31.19, 0.07742, -0.63654, 0.07285, -0.76382,
 15:59:29.509,f6:90:cc:01:6d:25, 2015-01-01 03:44:25.035, 0.949, -0.206, 0.182, 0.183, 0.366, 0, -49.411, -73.954, -129.847, -30.633, -6.767, -4.740, 31.19, 0.07742, -0.63654, 0.07285, -0.76382,
 15:59:29.553,ed:35:33:d3:6c:f8, 2015-01-01 03:44:25.845, 0.701, -0.122, 0.693, 0.61, 1.282, -0.305, -9.866, -45.302, 149.266, -17.640, -7.380, -29.220, 30.99, 0.2757, 0.34991, -0.17896, 0.87717,
 15:59:29.553,ed:35:33:d3:6c:f8, 2015-01-01 03:44:25.845, 0.7, -0.123, 0.691, 0.793, 1.221, -0.183, -9.844, -45.28, 149.266, -17.640, -7.380, -29.220, 30.99, 0.2757, 0.34991, -0.17896, 0.87717,
 15:59:29.555,f6:90:cc:01:6d:25, 2015-01-01 03:44:25.035, 0.948, -0.205, 0.182, 0.366, 0.366, 0, -49.384, -73.949, -129.858, -30.633, -6.767, -4.740, 31.19, 0.07742, -0.63654, 0.07285, -0.76382,
 15:59:29.555,f6:90:cc:01:6d:25, 2015-01-01 03:44:25.035, 0.948, -0.206, 0.181, 0.671, 0.366, 0, -49.345, -73.943, -129.864, -30.633, -6.767, -4.740, 31.19, 0.07742, -0.63654, 0.07285, -0.76382,
 15:59:29.574,e3:ca:2d:fd:e0:8c, 2015-01-01 03:44:26.520, 0.942, -0.25, 0.309, 0, -0.61, 0, -39.419, -67.198, -159.17, -27.247, -6.913, -12.887, 28.43, -0.04044, -0.56268, 0.181, -0.80551,
 15:59:29.574,e3:ca:2d:fd:e0:8c, 2015-01-01 03:44:26.520, 0.942, -0.251, 0.306, 0.122, -0.61, 0, -39.435, -67.209, -159.153, -27.247, -6.913, -12.887, 28.43, -0.04044, -0.56268, 0.181, -0.80551,
 15:59:29.574,ed:40:fe:65:30:6c, 2015-01-01 03:44:25.405, 0.73, -0.156, 0.67, 0.671, 0.366, -0.305, -13.002, -46.807, -116.252, -22.627, -6.113, -3.620, 26.19, 0.44318, -0.39017, -0.12003, -0.798,
 15:59:29.574,ed:40:fe:65:30:6c, 2015-01-01 03:44:25.405, 0.729, -0.157, 0.67, 0.793, 0.244, -0.366, -12.98, -46.807, -116.263, -22.627, -6.113, -3.620, 26.19, 0.44318, -0.39017, -0.12003, -0.798,
 15:59:29.595,e3:ca:2d:fd:e0:8c, 2015-01-01 03:44:26.520, 0.94, -0.251, 0.308, 0.122, -0.488, -0.061, -39.441, -67.214, -159.12, -27.320, -6.387, -12.487, 28.43, -0.04044, -0.56268, 0.181, -0.80551,
 15:59:29.595,e3:ca:2d:fd:e0:8c, 2015-01-01 03:44:26.520, 0.943, -0.25, 0.308, 0, -0.549, -0.122, -39.452, -67.225, -159.088, -27.320, -6.387, -12.487, 28.43, -0.04044, -0.56268, 0.181, -0.80551,
 15:59:29.597,ed:40:fe:65:30:6c, 2015-01-01 03:44:25.760, 0.73, -0.156, 0.669, 0.549, 0.427, -0.305, -12.964, -46.802, -116.263, -22.627, -6.113, -3.620, 26.19, 0.44318, -0.39017, -0.12003, -0.798,
 15:59:29.597,ed:40:fe:65:30:6c, 2015-01-01 03:44:25.760, 0.73, -0.153, 0.67, 0.488, 0.549, -0.305, -12.947, -46.791, -116.257, -22.627, -6.113, -3.620, 26.19, 0.44318, -0.39017, -0.12003, -0.798,
 15:59:29.597,ed:35:33:d3:6c:f8, 2015-01-01 03:44:25.845, 0.701, -0.122, 0.688, 0.732, 0.977, -0.183, -9.827, -45.258, 149.26, -17.640, -7.380, -29.220, 30.99, 0.2757, 0.34991, -0.17896, 0.87717,
 15:59:29.597,ed:35:33:d3:6c:f8, 2015-01-01 03:44:25.845, 0.703, -0.119, 0.692, 0.244, 1.16, -0.305, -9.811, -45.231, 149.255, -17.640, -7.380, -29.220, 30.99, 0.2757, 0.34991, -0.17896, 0.87717,
 15:59:29.600,f6:90:cc:01:6d:25, 2015-01-01 03:44:25.035, 0.947, -0.208, 0.181, 0.488, 0.61, -0.366, -49.285, -73.943, -129.886, -30.460, -6.573, -5.000, 31.19, 0.07742, -0.63654, 0.07285, -0.76382,
 15:59:29.600,f6:90:cc:01:6d:25, 2015-01-01 03:44:25.035, 0.949, -0.207, 0.183, 0.305, 0.732, -0.244, -49.224, -73.932, -129.908, -30.460, -6.573, -5.000, 31.19, 0.07742, -0.63654, 0.07285, -0.76382,
 15:59:29.619,ed:40:fe:65:30:6c, 2015-01-01 03:44:25.760, 0.73, -0.154, 0.675, 0.549, 0.671, -0.244, -12.931, -46.78, -116.274, -22.627, -6.113, -3.620, 26.19, 0.44318, -0.39017, -0.12003, -0.798,
 15:59:29.619,ed:40:fe:65:30:6c, 2015-01-01 03:44:25.760, 0.729, -0.156, 0.675, 0.732, 0.427, -0.122, -12.914, -46.769, -116.279, -22.627, -6.113, -3.620, 26.19, 0.44318, -0.39017, -0.12003, -0.798,
 15:59:29.621,ed:35:33:d3:6c:f8, 2015-01-01 03:44:25.845, 0.7, -0.118, 0.698, 0.305, 1.099, -0.244, -9.8, -45.209, 149.249, -17.640, -7.380, -29.220, 30.99, 0.2757, 0.34991, -0.17896, 0.87717,
 15:59:29.621,ed:35:33:d3:6c:f8, 2015-01-01 03:44:25.845, 0.698, -0.121, 0.701, 0.488, 1.16, 0.183, -9.789, -45.181, 149.271, -17.640, -7.380, -29.220, 30.99, 0.2757, 0.34991, -0.17896, 0.87717,
 15:59:29.641,e3:ca:2d:fd:e0:8c, 2015-01-01 03:44:26.520, 0.945, -0.25, 0.307, -0.122, -0.732, -0.183, -39.463, -67.236, -159.055, -27.320, -6.387, -12.487, 28.43, -0.04044, -0.56268, 0.181, -0.80551,
 15:59:29.641,e3:ca:2d:fd:e0:8c, 2015-01-01 03:44:26.520, 0.943, -0.251, 0.305, -0.183, -0.488, -0.183, -39.474, -67.247, -159.022, -27.320, -6.387, -12.487, 28.43, -0.04044, -0.56268, 0.181, -0.80551,
 15:59:29.645,f6:90:cc:01:6d:25, 2015-01-01 03:44:25.035, 0.951, -0.206, 0.181, 0.244, 0.61, -0.244, -49.169, -73.927, -129.924, -30.460, -6.573, -5.000, 31.19, 0.08078, -0.63608, 0.06976, -0.76413,
 15:59:29.645,f6:90:cc:01:6d:25, 2015-01-01 03:44:25.035, 0.949, -0.206, 0.181, 0.183, 0.549, -0.244, -49.12, -73.922, -129.935, -30.460, -6.573, -5.000, 31.19, 0.08078, -0.63608, 0.06976, -0.76413,
 15:59:29.663,e3:ca:2d:fd:e0:8c, 2015-01-01 03:44:26.520, 0.944, -0.25, 0.305, 0, -0.427, -0.183, -39.479, -67.253, -159, -27.320, -6.387, -12.487, 28.43, -0.04117, -0.56369, 0.18158, -0.80466,
 15:59:29.663,e3:ca:2d:fd:e0:8c, 2015-01-01 03:44:26.520, 0.943, -0.249, 0.303, 0.183, -0.61, -0.183, -39.485, -67.264, -158.972, -27.320, -6.387, -12.487, 28.43, -0.04117, -0.56369, 0.18158, -0.80466,
 15:59:29.664,ed:40:fe:65:30:6c, 2015-01-01 03:44:25.760, 0.73, -0.156, 0.674, 0.671, 0.183, -0.122, -12.898, -46.763, -116.274, -22.627, -6.113, -3.620, 26.19, 0.44318, -0.39017, -0.12003, -0.798,
 15:59:29.664,ed:40:fe:65:30:6c, 2015-01-01 03:44:25.760, 0.73, -0.154, 0.673, 0.61, 0, -0.122, -12.881, -46.763, -116.268, -22.627, -6.113, -3.620, 26.19, 0.44318, -0.39017, -0.12003, -0.798,
 15:59:29.666,f6:90:cc:01:6d:25, 2015-01-01 03:44:25.325, 0.949, -0.205, 0.183, 0.183, 0.366, -0.305, -49.076, -73.922, -129.946, -30.460, -6.573, -5.000, 31.19, 0.08078, -0.63608, 0.06976, -0.76413,
 15:59:29.666,f6:90:cc:01:6d:25, 2015-01-01 03:44:25.325, 0.947, -0.203, 0.181, 0.366, 0.305, -0.305, -49.032, -73.922, -129.946, -30.460, -6.573, -5.000, 31.19, 0.08078, -0.63608, 0.06976, -0.76413,
 15:59:29.666,ed:35:33:d3:6c:f8, 2015-01-01 03:44:25.845, 0.698, -0.123, 0.699, 0.549, 0.549, 0.244, -9.783, -45.17, 149.299, -17.640, -7.380, -29.220, 30.99, 0.2757, 0.34991, -0.17896, 0.87717,
 15:59:29.666,ed:35:33:d3:6c:f8, 2015-01-01 03:44:25.845, 0.698, -0.12, 0.697, 0.427, 0.122, 0, -9.778, -45.159, 149.31, -17.640, -7.380, -29.220, 30.99, 0.2757, 0.34991, -0.17896, 0.87717,
 15:59:29.710,e3:ca:2d:fd:e0:8c, 2015-01-01 03:44:26.520, 0.941, -0.25, 0.304, 0.122, -0.61, -0.183, -39.49, -67.275, -158.939, -27.320, -6.387, -12.487, 28.43, -0.04117, -0.56369, 0.18158, -0.80466,
 15:59:29.710,e3:ca:2d:fd:e0:8c, 2015-01-01 03:44:26.520, 0.941, -0.251, 0.305, 0, -0.549, -0.183, -39.496, -67.286, -158.912, -27.320, -6.387, -12.487, 28.43, -0.04117, -0.56369, 0.18158, -0.80466,
 15:59:29.712,f6:90:cc:01:6d:25, 2015-01-01 03:44:25.325, 0.946, -0.205, 0.18, 0.244, 0.183, -0.305, -48.999, -73.922, -129.941, -30.460, -6.573, -5.000, 31.19, 0.08078, -0.63608, 0.06976, -0.76413,
 15:59:29.712,f6:90:cc:01:6d:25, 2015-01-01 03:44:25.325, 0.947, -0.206, 0.184, 0.122, 0.122, -0.244, -48.972, -73.927, -129.93, -30.460, -6.573, -5.000, 31.19, 0.08078, -0.63608, 0.06976, -0.76413,
 15:59:29.733,ed:35:33:d3:6c:f8, 2015-01-01 03:44:25.845, 0.698, -0.118, 0.696, 0.305, 0.366, 0, -9.772, -45.148, 149.315, -17.720, -7.367, -29.580, 30.99, 0.2757, 0.34991, -0.17896, 0.87717,
 15:59:29.733,ed:35:33:d3:6c:f8, 2015-01-01 03:44:25.845, 0.697, -0.118, 0.696, 0.305, 0.549, 0, -9.761, -45.132, 149.31, -17.720, -7.367, -29.580, 30.99, 0.2757, 0.34991, -0.17896, 0.87717,
 15:59:29.733,ed:40:fe:65:30:6c, 2015-01-01 03:44:25.760, 0.728, -0.152, 0.671, 0.671, 0, -0.122, -12.87, -46.758, -116.257, -22.627, -6.113, -3.620, 26.19, 0.44318, -0.39017, -0.12003, -0.798,
 15:59:29.733,ed:40:fe:65:30:6c, 2015-01-01 03:44:25.760, 0.729, -0.152, 0.673, 0.732, -0.122, 0, -12.854, -46.758, -116.235, -22.627, -6.113, -3.620, 26.19, 0.44318, -0.39017, -0.12003, -0.798,
 15:59:29.754,e3:ca:2d:fd:e0:8c, 2015-01-01 03:44:26.855, 0.943, -0.25, 0.306, 0.061, -0.671, -0.061, -39.507, -67.297, -158.879, -27.320, -6.387, -12.487, 28.43, -0.04117, -0.56369, 0.18158, -0.80466,
 15:59:29.754,e3:ca:2d:fd:e0:8c, 2015-01-01 03:44:26.855, 0.945, -0.249, 0.307, 0.122, -0.732, 0, -39.523, -67.308, -158.84, -27.320, -6.387, -12.487, 28.43, -0.04117, -0.56369, 0.18158, -0.80466,
 15:59:29.756,ed:35:33:d3:6c:f8, 2015-01-01 03:44:25.845, 0.7, -0.118, 0.695, 0.183, 0.488, 0, -9.761, -45.121, 149.31, -17.720, -7.367, -29.580, 30.99, 0.27493, 0.34787, -0.17691, 0.87863,
 15:59:29.756,ed:35:33:d3:6c:f8, 2015-01-01 03:44:25.845, 0.702, -0.116, 0.691, 0.427, 0.183, 0.122, -9.75, -45.11, 149.332, -17.720, -7.367, -29.580, 30.99, 0.27493, 0.34787, -0.17691, 0.87863,
 15:59:29.757,f6:90:cc:01:6d:25, 2015-01-01 03:44:25.325, 0.949, -0.205, 0.184, 0.244, 0.061, -0.183, -48.95, -73.927, -129.913, -30.460, -6.573, -5.000, 31.19, 0.08078, -0.63608, 0.06976, -0.76413,
 15:59:29.757,f6:90:cc:01:6d:25, 2015-01-01 03:44:25.325, 0.95, -0.204, 0.184, 0.183, 0.305, -0.183, -48.917, -73.922, -129.913, -30.460, -6.573, -5.000, 31.19, 0.08078, -0.63608, 0.06976, -0.76413,
 15:59:29.777,ed:40:fe:65:30:6c, 2015-01-01 03:44:25.760, 0.73, -0.152, 0.672, 0.732, -0.244, 0.183, -12.849, -46.763, -116.208, -22.627, -6.113, -3.620, 26.19, 0.44318, -0.39017, -0.12003, -0.798,
 15:59:29.777,ed:40:fe:65:30:6c, 2015-01-01 03:44:25.760, 0.733, -0.152, 0.669, 0.793, -0.183, 0.366, -12.838, -46.763, -116.18, -22.627, -6.113, -3.620, 26.19, 0.44318, -0.39017, -0.12003, -0.798,
 15:59:29.777,e3:ca:2d:fd:e0:8c, 2015-01-01 03:44:26.855, 0.944, -0.248, 0.307, 0.244, -0.732, -0.061, -39.534, -67.319, -158.802, -27.320, -6.387, -12.487, 28.43, -0.04117, -0.56369, 0.18158, -0.80466,
 15:59:29.777,e3:ca:2d:fd:e0:8c, 2015-01-01 03:44:26.855, 0.943, -0.249, 0.307, 0.305, -0.854, 0, -39.551, -67.33, -158.758, -27.320, -6.387, -12.487, 28.43, -0.04117, -0.56369, 0.18158, -0.80466,
 15:59:29.800,ed:40:fe:65:30:6c, 2015-01-01 03:44:25.760, 0.734, -0.151, 0.67, 0.916, 0, 0.366, -12.832, -46.763, -116.158, -22.360, -6.013, -3.467, 26.19, 0.44318, -0.39017, -0.12003, -0.798,
 15:59:29.800,ed:40:fe:65:30:6c, 2015-01-01 03:44:25.760, 0.733, -0.153, 0.667, 1.16, 0.061, 0.427, -12.816, -46.758, -116.136, -22.360, -6.013, -3.467, 26.19, 0.44318, -0.39017, -0.12003, -0.798,
 15:59:29.801,ed:35:33:d3:6c:f8, 2015-01-01 03:44:25.845, 0.704, -0.117, 0.692, 0.549, -0.061, 0.366, -9.75, -45.11, 149.359, -17.720, -7.367, -29.580, 30.99, 0.27493, 0.34787, -0.17691, 0.87863,
 15:59:29.801,ed:35:33:d3:6c:f8, 2015-01-01 03:44:25.845, 0.701, -0.119, 0.694, 0.732, -0.244, 0.61, -9.745, -45.11, 149.392, -17.720, -7.367, -29.580, 30.99, 0.27493, 0.34787, -0.17691, 0.87863,
 15:59:29.802,f6:90:cc:01:6d:25, 2015-01-01 03:44:25.325, 0.95, -0.203, 0.184, 0.183, 0.488, -0.183, -48.873, -73.922, -129.919, -30.460, -6.573, -5.000, 31.19, 0.08078, -0.63608, 0.06976, -0.76413,
 15:59:29.802,f6:90:cc:01:6d:25, 2015-01-01 03:44:25.325, 0.95, -0.205, 0.185, 0.305, 0.671, -0.183, -48.812, -73.911, -129.935, -30.460, -6.573, -5.000, 31.19, 0.08078, -0.63608, 0.06976, -0.76413,
 15:59:29.820,e3:ca:2d:fd:e0:8c, 2015-01-01 03:44:26.855, 0.943, -0.248, 0.306, 0.61, -1.404, 0, -39.573, -67.346, -158.725, -27.320, -6.387, -12.487, 28.43, -0.04117, -0.56369, 0.18158, -0.80466,
 15:59:29.820,e3:ca:2d:fd:e0:8c, 2015-01-01 03:44:26.855, 0.947, -0.25, 0.303, 0.793, -2.319, 0, -39.606, -67.374, -158.692, -27.320, -6.387, -12.487, 28.43, -0.04117, -0.56369, 0.18158, -0.80466,
 15:59:29.823,ed:35:33:d3:6c:f8, 2015-01-01 03:44:26.185, 0.7, -0.12, 0.693, 0.671, -0.244, 1.404, -9.761, -45.104, 149.447, -17.720, -7.367, -29.580, 30.99, 0.27493, 0.34787, -0.17691, 0.87863,
 15:59:29.823,ed:35:33:d3:6c:f8, 2015-01-01 03:44:26.185, 0.702, -0.121, 0.695, 0.61, -0.244, 1.892, -9.789, -45.099, 149.518, -17.720, -7.367, -29.580, 30.99, 0.27493, 0.34787, -0.17691, 0.87863,
 15:59:29.845,ed:40:fe:65:30:6c, 2015-01-01 03:44:25.760, 0.73, -0.156, 0.669, 1.282, -0.122, 0.427, -12.805, -46.758, -116.115, -22.360, -6.013, -3.467, 26.19, 0.44318, -0.39017, -0.12003, -0.798,
 15:59:29.845,ed:40:fe:65:30:6c, 2015-01-01 03:44:25.760, 0.735, -0.153, 0.667, 1.221, -0.488, 0.549, -12.794, -46.763, -116.098, -22.360, -6.013, -3.467, 26.19, 0.44318, -0.39017, -0.12003, -0.798,
 15:59:29.847,f6:90:cc:01:6d:25, 2015-01-01 03:44:25.325, 0.949, -0.205, 0.191, 0.732, 1.343, -0.366, -48.702, -73.9, -130.007, -30.460, -6.573, -5.000, 31.19, 0.08078, -0.63608, 0.06976, -0.76413,
 15:59:29.847,f6:90:cc:01:6d:25, 2015-01-01 03:44:25.325, 0.952, -0.205, 0.185, 1.404, 1.648, -0.549, -48.56, -73.883, -130.095, -30.460, -6.573, -5.000, 31.19, 0.08078, -0.63608, 0.06976, -0.76413,
 15:59:29.865,e3:ca:2d:fd:e0:8c, 2015-01-01 03:44:26.855, 0.95, -0.25, 0.303, 0.916, -2.625, 0, -39.661, -67.412, -158.632, -27.320, -6.387, -12.487, 28.43, -0.04117, -0.56369, 0.18158, -0.80466,
 15:59:29.865,e3:ca:2d:fd:e0:8c, 2015-01-01 03:44:26.855, 0.948, -0.251, 0.298, 0.977, -2.441, -0.366, -39.71, -67.451, -158.571, -27.320, -6.387, -12.487, 28.43, -0.04117, -0.56369, 0.18158, -0.80466,
 15:59:29.867,ed:40:fe:65:30:6c, 2015-01-01 03:44:25.760, 0.735, -0.15, 0.673, 0.854, -0.732, 0.549, -12.788, -46.774, -116.093, -22.360, -6.013, -3.467, 26.19, 0.44516, -0.38876, -0.12195, -0.79733,
 15:59:29.867,ed:40:fe:65:30:6c, 2015-01-01 03:44:25.760, 0.734, -0.153, 0.675, 0.488, -0.427, 0.549, -12.794, -46.78, -116.076, -22.360, -6.013, -3.467, 26.19, 0.44516, -0.38876, -0.12195, -0.79733,
 15:59:29.868,ed:35:33:d3:6c:f8, 2015-01-01 03:44:26.185, 0.7, -0.119, 0.698, -0.305, -0.793, 1.77, -9.833, -45.104, 149.595, -17.720, -7.367, -29.580, 30.99, 0.27493, 0.34787, -0.17691, 0.87863,
 15:59:29.868,ed:35:33:d3:6c:f8, 2015-01-01 03:44:26.185, 0.702, -0.12, 0.695, -0.671, -1.526, 2.075, -9.888, -45.126, 149.683, -17.720, -7.367, -29.580, 30.99, 0.27493, 0.34787, -0.17691, 0.87863,
 15:59:29.870,f6:90:cc:01:6d:25, 2015-01-01 03:44:25.325, 0.952, -0.205, 0.182, 1.465, 1.77, -0.488, -48.406, -73.867, -130.193, -30.387, -6.553, -4.687, 31.19, 0.08078, -0.63608, 0.06976, -0.76413,
 15:59:29.870,f6:90:cc:01:6d:25, 2015-01-01 03:44:25.325, 0.949, -0.206, 0.18, 1.282, 1.709, -0.549, -48.268, -73.85, -130.309, -30.387, -6.553, -4.687, 31.19, 0.08078, -0.63608, 0.06976, -0.76413,
 15:59:29.913,ed:35:33:d3:6c:f8, 2015-01-01 03:44:26.185, 0.707, -0.119, 0.698, -0.732, -1.16, 2.502, -9.954, -45.137, 149.766, -17.720, -7.367, -29.580, 30.99, 0.27493, 0.34787, -0.17691, 0.87863,
 15:59:29.913,ed:35:33:d3:6c:f8, 2015-01-01 03:44:26.185, 0.705, -0.123, 0.695, 0.183, -2.747, 3.723, -10.031, -45.17, 149.892, -17.720, -7.367, -29.580, 30.99, 0.27493, 0.34787, -0.17691, 0.87863,
 15:59:29.913,ed:40:fe:65:30:6c, 2015-01-01 03:44:25.760, 0.736, -0.157, 0.671, 1.038, -0.305, 0.916, -12.794, -46.785, -116.049, -22.360, -6.013, -3.467, 26.19, 0.44516, -0.38876, -0.12195, -0.79733,
 15:59:29.913,ed:40:fe:65:30:6c, 2015-01-01 03:44:25.760, 0.733, -0.161, 0.665, 2.319, -0.549, 1.587, -12.783, -46.785, -115.994, -22.360, -6.013, -3.467, 26.19, 0.44516, -0.38876, -0.12195, -0.79733,
 15:59:29.915,f6:90:cc:01:6d:25, 2015-01-01 03:44:25.325, 0.949, -0.206, 0.181, 1.221, 1.282, -0.61, -48.148, -73.845, -130.402, -30.387, -6.553, -4.687, 31.19, 0.08078, -0.63608, 0.06976, -0.76413,
 15:59:29.915,f6:90:cc:01:6d:25, 2015-01-01 03:44:25.325, 0.947, -0.208, 0.182, 1.526, 1.099, -0.793, -48.027, -73.839, -130.496, -30.387, -6.553, -4.687, 31.19, 0.08078, -0.63608, 0.06976, -0.76413,
 15:59:29.933,e3:ca:2d:fd:e0:8c, 2015-01-01 03:44:26.855, 0.945, -0.252, 0.295, 1.099, -1.648, -0.305, -39.738, -67.489, -158.522, -27.320, -6.387, -12.487, 28.43, -0.04117, -0.56369, 0.18158, -0.80466,
 15:59:29.933,e3:ca:2d:fd:e0:8c, 2015-01-01 03:44:26.855, 0.944, -0.252, 0.297, 1.709, -1.282, -0.061, -39.743, -67.511, -158.472, -27.320, -6.387, -12.487, 28.43, -0.04117, -0.56369, 0.18158, -0.80466,
 15:59:29.957,ed:40:fe:65:30:6c, 2015-01-01 03:44:26.095, 0.728, -0.155, 0.664, 3.296, -0.671, 1.709, -12.761, -46.796, -115.928, -22.360, -6.013, -3.467, 26.19, 0.44516, -0.38876, -0.12195, -0.79733,
 15:59:29.957,ed:40:fe:65:30:6c, 2015-01-01 03:44:26.095, 0.729, -0.145, 0.667, 3.418, -0.916, 0.854, -12.717, -46.807, -115.884, -22.360, -6.013, -3.467, 26.19, 0.44516, -0.38876, -0.12195, -0.79733,
 15:59:29.957,e3:ca:2d:fd:e0:8c, 2015-01-01 03:44:26.855, 0.944, -0.246, 0.299, 2.197, -0.854, -0.061, -39.738, -67.527, -158.445, -27.253, -6.980, -13.060, 28.43, -0.04117, -0.56369, 0.18158, -0.80466,
 15:59:29.957,e3:ca:2d:fd:e0:8c, 2015-01-01 03:44:26.855, 0.945, -0.236, 0.3, 1.648, -0.427, -0.244, -39.71, -67.538, -158.434, -27.253, -6.980, -13.060, 28.43, -0.04117, -0.56369, 0.18158, -0.80466,
 15:59:29.958,ed:35:33:d3:6c:f8, 2015-01-01 03:44:26.185, 0.7, -0.134, 0.688, 1.709, -5.92, 3.723, -10.091, -45.275, 150.035, -17.720, -7.367, -29.580, 30.99, 0.27493, 0.34787, -0.17691, 0.87863,
 15:59:29.958,ed:35:33:d3:6c:f8, 2015-01-01 03:44:26.185, 0.706, -0.131, 0.688, 2.625, -5.676, 1.709, -10.091, -45.374, 150.128, -17.720, -7.367, -29.580, 30.99, 0.27493, 0.34787, -0.17691, 0.87863,
 15:59:29.960,f6:90:cc:01:6d:25, 2015-01-01 03:44:25.325, 0.947, -0.198, 0.183, 1.953, 1.343, -0.793, -47.889, -73.834, -130.6, -30.387, -6.553, -4.687, 31.19, 0.08368, -0.63458, 0.06586, -0.76541,
 15:59:29.960,f6:90:cc:01:6d:25, 2015-01-01 03:44:25.325, 0.949, -0.188, 0.185, 1.465, 1.099, -0.366, -47.785, -73.828, -130.688, -30.387, -6.553, -4.687, 31.19, 0.08368, -0.63458, 0.06586, -0.76541,
 15:59:29.980,ed:40:fe:65:30:6c, 2015-01-01 03:44:26.095, 0.732, -0.139, 0.672, 3.418, -1.404, -0.244, -12.651, -46.835, -115.873, -22.360, -6.013, -3.467, 26.19, 0.44516, -0.38876, -0.12195, -0.79733,
 15:59:29.980,ed:40:fe:65:30:6c, 2015-01-01 03:44:26.095, 0.734, -0.146, 0.672, 3.235, -1.587, -1.221, -12.568, -46.873, -115.878, -22.360, -6.013, -3.467, 26.19, 0.44516, -0.38876, -0.12195, -0.79733,
 15:59:30.001,e3:ca:2d:fd:e0:8c, 2015-01-01 03:44:26.855, 0.948, -0.231, 0.302, 0.732, -0.793, -0.122, -39.694, -67.555, -158.434, -27.253, -6.980, -13.060, 28.43, -0.04117, -0.56369, 0.18158, -0.80466,
 15:59:30.001,e3:ca:2d:fd:e0:8c, 2015-01-01 03:44:26.855, 0.948, -0.234, 0.3, 0.427, -1.404, 0.061, -39.71, -67.571, -158.401, -27.253, -6.980, -13.060, 28.43, -0.04117, -0.56369, 0.18158, -0.80466,
 15:59:30.005,f6:90:cc:01:6d:25, 2015-01-01 03:44:25.640, 0.95, -0.183, 0.194, 1.038, 0.977, 0.061, -47.708, -73.817, -130.748, -30.387, -6.553, -4.687, 31.19, 0.08368, -0.63458, 0.06586, -0.76541,
 15:59:30.005,f6:90:cc:01:6d:25, 2015-01-01 03:44:25.640, 0.95, -0.189, 0.193, 1.343, 0.671, 0.244, -47.648, -73.806, -130.798, -30.387, -6.553, -4.687, 31.19, 0.08368, -0.63458, 0.06586, -0.76541,
 15:59:30.023,e3:ca:2d:fd:e0:8c, 2015-01-01 03:44:26.855, 0.948, -0.241, 0.299, 0.671, -1.831, 0.183, -39.743, -67.599, -158.34, -27.253, -6.980, -13.060, 28.43, -0.03897, -0.56677, 0.1792, -0.80316,
 15:59:30.023,e3:ca:2d:fd:e0:8c, 2015-01-01 03:44:26.855, 0.947, -0.246, 0.302, 1.221, -1.953, 0.061, -39.776, -67.626, -158.275, -27.253, -6.980, -13.060, 28.43, -0.03897, -0.56677, 0.1792, -0.80316,
 15:59:30.024,ed:40:fe:65:30:6c, 2015-01-01 03:44:26.095, 0.735, -0.147, 0.673, 3.174, -1.648, -1.343, -12.486, -46.912, -115.878, -22.360, -6.013, -3.467, 26.19, 0.44516, -0.38876, -0.12195, -0.79733,
 15:59:30.024,ed:40:fe:65:30:6c, 2015-01-01 03:44:26.095, 0.735, -0.15, 0.673, 3.113, -1.404, -1.038, -12.409, -46.939, -115.884, -22.360, -6.013, -3.467, 26.19, 0.44516, -0.38876, -0.12195, -0.79733,
 15:59:30.025,ed:35:33:d3:6c:f8, 2015-01-01 03:44:26.185, 0.705, -0.127, 0.69, 2.686, -4.028, -0.366, -10.047, -45.45, 150.167, -17.720, -7.367, -29.580, 30.99, 0.27493, 0.34787, -0.17691, 0.87863,
 15:59:30.025,ed:35:33:d3:6c:f8, 2015-01-01 03:44:26.185, 0.707, -0.124, 0.691, 2.625, -3.601, -1.587, -9.981, -45.516, 150.156, -17.720, -7.367, -29.580, 30.99, 0.27493, 0.34787, -0.17691, 0.87863,
 15:59:30.026,f6:90:cc:01:6d:25, 2015-01-01 03:44:25.640, 0.95, -0.198, 0.191, 1.892, 0.488, -0.061, -47.565, -73.806, -130.831, -30.387, -6.553, -4.687, 31.19, 0.08368, -0.63458, 0.06586, -0.76541,
 15:59:30.026,f6:90:cc:01:6d:25, 2015-01-01 03:44:25.640, 0.948, -0.206, 0.191, 2.625, 0.366, -0.977, -47.45, -73.806, -130.858, -30.387, -6.553, -4.687, 31.19, 0.08368, -0.63458, 0.06586, -0.76541,
 15:59:30.049,ed:35:33:d3:6c:f8, 2015-01-01 03:44:26.185, 0.707, -0.117, 0.689, 2.441, -4.333, -1.892, -9.91, -45.604, 150.156, -18.193, -7.927, -29.293, 30.99, 0.27493, 0.34787, -0.17691, 0.87863,
 15:59:30.049,ed:35:33:d3:6c:f8, 2015-01-01 03:44:26.185, 0.708, -0.116, 0.684, 2.38, -4.333, -0.61, -9.866, -45.687, 150.2, -18.193, -7.927, -29.293, 30.99, 0.27493, 0.34787, -0.17691, 0.87863,
 15:59:30.070,ed:40:fe:65:30:6c, 2015-01-01 03:44:26.095, 0.734, -0.151, 0.673, 3.296, -0.916, -0.61, -12.338, -46.961, -115.895, -22.360, -6.013, -3.467, 26.19, 0.44516, -0.38876, -0.12195, -0.79733,
 15:59:30.070,ed:40:fe:65:30:6c, 2015-01-01 03:44:26.095, 0.732, -0.149, 0.668, 3.601, -0.671, -0.122, -12.272, -46.972, -115.895, -22.360, -6.013, -3.467, 26.19, 0.44516, -0.38876, -0.12195, -0.79733,
 15:59:30.070,e3:ca:2d:fd:e0:8c, 2015-01-01 03:44:26.855, 0.945, -0.249, 0.3, 1.343, -1.831, 0, -39.798, -67.659, -158.209, -27.253, -6.980, -13.060, 28.43, -0.03897, -0.56677, 0.1792, -0.80316,
 15:59:30.070,e3:ca:2d:fd:e0:8c, 2015-01-01 03:44:26.855, 0.943, -0.253, 0.298, 1.465, -1.648, -0.122, -39.814, -67.687, -158.165, -27.253, -6.980, -13.060, 28.43, -0.03897, -0.56677, 0.1792, -0.80316,
 15:59:30.071,f6:90:cc:01:6d:25, 2015-01-01 03:44:25.640, 0.945, -0.209, 0.189, 2.747, 0.61, -1.099, -47.318, -73.817, -130.902, -30.387, -6.553, -4.687, 31.19, 0.08368, -0.63458, 0.06586, -0.76541,
 15:59:30.071,f6:90:cc:01:6d:25, 2015-01-01 03:44:25.640, 0.947, -0.208, 0.186, 3.052, 0.671, -0.977, -47.175, -73.823, -130.952, -30.387, -6.553, -4.687, 31.19, 0.08368, -0.63458, 0.06586, -0.76541,
 15:59:30.095,ed:35:33:d3:6c:f8, 2015-01-01 03:44:26.185, 0.708, -0.115, 0.682, 1.892, -2.93, 0.854, -9.86, -45.731, 150.266, -18.193, -7.927, -29.293, 30.99, 0.27493, 0.34787, -0.17691, 0.87863,
 15:59:30.095,ed:35:33:d3:6c:f8, 2015-01-01 03:44:26.185, 0.707, -0.116, 0.682, 1.465, -1.709, 1.892, -9.877, -45.753, 150.342, -18.193, -7.927, -29.293, 30.99, 0.27493, 0.34787, -0.17691, 0.87863,
 15:59:30.114,e3:ca:2d:fd:e0:8c, 2015-01-01 03:44:27.215, 0.947, -0.257, 0.292, 1.648, -1.709, -0.061, -39.825, -67.714, -158.115, -27.253, -6.980, -13.060, 28.43, -0.03897, -0.56677, 0.1792, -0.80316,
 15:59:30.114,e3:ca:2d:fd:e0:8c, 2015-01-01 03:44:27.215, 0.947, -0.257, 0.294, 1.831, -1.465, 0, -39.842, -67.736, -158.066, -27.253, -6.980, -13.060, 28.43, -0.03897, -0.56677, 0.1792, -0.80316,
 15:59:30.115,ed:35:33:d3:6c:f8, 2015-01-01 03:44:26.185, 0.71, -0.113, 0.688, 1.282, -1.709, 1.648, -9.888, -45.78, 150.419, -18.193, -7.927, -29.293, 30.99, 0.26682, 0.35431, -0.17569, 0.87878,
 15:59:30.115,ed:35:33:d3:6c:f8, 2015-01-01 03:44:26.185, 0.709, -0.109, 0.685, 2.136, -2.258, 2.075, -9.893, -45.807, 150.529, -18.193, -7.927, -29.293, 30.99, 0.26682, 0.35431, -0.17569, 0.87878,
 15:59:30.117,f6:90:cc:01:6d:25, 2015-01-01 03:44:25.640, 0.948, -0.206, 0.18, 2.869, 0.488, -0.549, -47.043, -73.828, -131.001, -30.387, -6.553, -4.687, 31.19, 0.08368, -0.63458, 0.06586, -0.76541,
 15:59:30.117,f6:90:cc:01:6d:25, 2015-01-01 03:44:25.640, 0.948, -0.203, 0.184, 2.319, 0.427, 0, -46.945, -73.828, -131.028, -30.387, -6.553, -4.687, 31.19, 0.08368, -0.63458, 0.06586, -0.76541,
 15:59:30.138,ed:40:fe:65:30:6c, 2015-01-01 03:44:26.095, 0.734, -0.143, 0.668, 3.906, -0.671, 0.427, -12.206, -46.983, -115.889, -22.360, -6.013, -3.467, 26.19, 0.44516, -0.38876, -0.12195, -0.79733,
 15:59:30.138,ed:40:fe:65:30:6c, 2015-01-01 03:44:26.095, 0.735, -0.139, 0.667, 3.845, -0.854, 0.977, -12.156, -46.994, -115.862, -22.360, -6.013, -3.467, 26.19, 0.44516, -0.38876, -0.12195, -0.79733,
 15:59:30.158,e3:ca:2d:fd:e0:8c, 2015-01-01 03:44:27.215, 0.947, -0.254, 0.297, 1.526, -1.099, 0, -39.847, -67.753, -158.038, -27.253, -6.980, -13.060, 28.43, -0.03897, -0.56677, 0.1792, -0.80316,
 15:59:30.158,e3:ca:2d:fd:e0:8c, 2015-01-01 03:44:27.215, 0.946, -0.25, 0.296, 1.221, -0.977, 0.061, -39.858, -67.769, -158, -27.253, -6.980, -13.060, 28.43, -0.03897, -0.56677, 0.1792, -0.80316,
 15:59:30.159,ed:40:fe:65:30:6c, 2015-01-01 03:44:26.095, 0.736, -0.138, 0.667, 3.54, -0.916, 1.282, -12.118, -47.005, -115.834, -22.420, -6.533, -3.460, 26.19, 0.44516, -0.38876, -0.12195, -0.79733,
 15:59:30.159,ed:40:fe:65:30:6c, 2015-01-01 03:44:26.095, 0.735, -0.14, 0.667, 3.357, -0.793, 1.404, -12.085, -47.016, -115.79, -22.420, -6.533, -3.460, 26.19, 0.44516, -0.38876, -0.12195, -0.79733,
 15:59:30.160,ed:35:33:d3:6c:f8, 2015-01-01 03:44:26.185, 0.712, -0.113, 0.682, 2.502, -3.113, 2.197, -9.893, -45.857, 150.639, -18.193, -7.927, -29.293, 30.99, 0.26682, 0.35431, -0.17569, 0.87878,
 15:59:30.160,ed:35:33:d3:6c:f8, 2015-01-01 03:44:26.185, 0.711, -0.118, 0.678, 2.625, -3.052, 1.77, -9.888, -45.906, 150.721, -18.193, -7.927, -29.293, 30.99, 0.26682, 0.35431, -0.17569, 0.87878,
 15:59:30.162,f6:90:cc:01:6d:25, 2015-01-01 03:44:25.640, 0.947, -0.2, 0.186, 2.014, 0.488, 0.549, -46.89, -73.817, -131.045, -30.387, -6.553, -4.687, 31.19, 0.08368, -0.63458, 0.06586, -0.76541,
 15:59:30.162,f6:90:cc:01:6d:25, 2015-01-01 03:44:25.640, 0.944, -0.199, 0.188, 1.831, 0.488, 0.732, -46.862, -73.806, -131.045, -30.387, -6.553, -4.687, 31.19, 0.08368, -0.63458, 0.06586, -0.76541,
 15:59:30.181,e3:ca:2d:fd:e0:8c, 2015-01-01 03:44:27.215, 0.945, -0.247, 0.294, 1.099, -0.671, 0.183, -39.864, -67.775, -157.961, -27.253, -6.980, -13.060, 28.43, -0.03897, -0.56677, 0.1792, -0.80316,
 15:59:30.181,e3:ca:2d:fd:e0:8c, 2015-01-01 03:44:27.215, 0.944, -0.244, 0.296, 0.977, -0.183, 0.305, -39.864, -67.775, -157.939, -27.253, -6.980, -13.060, 28.43, -0.03897, -0.56677, 0.1792, -0.80316,
 15:59:30.206,f6:90:cc:01:6d:25, 2015-01-01 03:44:25.640, 0.944, -0.197, 0.189, 1.465, 0.793, 0.671, -46.835, -73.784, -131.039, -30.307, -6.787, -5.453, 31.19, 0.08368, -0.63458, 0.06586, -0.76541,
 15:59:30.206,f6:90:cc:01:6d:25, 2015-01-01 03:44:25.640, 0.947, -0.196, 0.193, 0.977, 0.854, 0.732, -46.807, -73.768, -131.039, -30.307, -6.787, -5.453, 31.19, 0.08368, -0.63458, 0.06586, -0.76541,
 15:59:30.206,ed:35:33:d3:6c:f8, 2015-01-01 03:44:26.540, 0.708, -0.124, 0.676, 2.502, -2.502, 1.221, -9.871, -45.95, 150.782, -18.193, -7.927, -29.293, 30.99, 0.26682, 0.35431, -0.17569, 0.87878,
 15:59:30.206,ed:35:33:d3:6c:f8, 2015-01-01 03:44:26.540, 0.709, -0.122, 0.677, 2.075, -1.831, 0.671, -9.849, -45.978, 150.837, -18.193, -7.927, -29.293, 30.99, 0.26682, 0.35431, -0.17569, 0.87878,
 15:59:30.206,ed:40:fe:65:30:6c, 2015-01-01 03:44:26.095, 0.732, -0.146, 0.665, 3.174, -0.61, 1.404, -12.057, -47.021, -115.752, -22.420, -6.533, -3.460, 26.19, 0.44516, -0.38876, -0.12195, -0.79733,
 15:59:30.206,ed:40:fe:65:30:6c, 2015-01-01 03:44:26.095, 0.732, -0.146, 0.667, 2.686, -0.549, 1.343, -12.036, -47.027, -115.724, -22.420, -6.533, -3.460, 26.19, 0.44516, -0.38876, -0.12195, -0.79733,
 15:59:30.225,e3:ca:2d:fd:e0:8c, 2015-01-01 03:44:27.215, 0.945, -0.242, 0.298, 0.549, 0.122, 0.366, -39.864, -67.769, -157.934, -27.253, -6.980, -13.060, 28.43, -0.03897, -0.56677, 0.1792, -0.80316,
 15:59:30.225,e3:ca:2d:fd:e0:8c, 2015-01-01 03:44:27.215, 0.946, -0.243, 0.299, 0.122, -0.061, 0.305, -39.869, -67.769, -157.923, -27.253, -6.980, -13.060, 28.43, -0.03897, -0.56677, 0.1792, -0.80316,
 15:59:30.227,ed:40:fe:65:30:6c, 2015-01-01 03:44:26.095, 0.73, -0.138, 0.67, 2.258, -0.366, 1.282, -12.019, -47.027, -115.708, -22.420, -6.533, -3.460, 26.19, 0.44965, -0.38708, -0.12967, -0.79437,
 15:59:30.227,ed:40:fe:65:30:6c, 2015-01-01 03:44:26.095, 0.729, -0.14, 0.675, 1.892, -0.061, 1.343, -12.008, -47.021, -115.697, -22.420, -6.533, -3.460, 26.19, 0.44965, -0.38708, -0.12967, -0.79437,
 15:59:30.228,ed:35:33:d3:6c:f8, 2015-01-01 03:44:26.540, 0.709, -0.115, 0.682, 1.465, -1.404, 0.488, -9.833, -46, 150.886, -18.193, -7.927, -29.293, 30.99, 0.26682, 0.35431, -0.17569, 0.87878,
 15:59:30.228,ed:35:33:d3:6c:f8, 2015-01-01 03:44:26.540, 0.708, -0.116, 0.686, 1.77, -1.465, 0.732, -9.816, -46.022, 150.941, -18.193, -7.927, -29.293, 30.99, 0.26682, 0.35431, -0.17569, 0.87878,
 15:59:30.230,f6:90:cc:01:6d:25, 2015-01-01 03:44:25.640, 0.947, -0.198, 0.197, 0.916, 0.61, 0.549, -46.78, -73.746, -131.023, -30.307, -6.787, -5.453, 31.19, 0.08759, -0.63278, 0.06067, -0.76688,
 15:59:30.230,f6:90:cc:01:6d:25, 2015-01-01 03:44:25.640, 0.946, -0.201, 0.195, 0.854, 0.427, 0.305, -46.752, -73.729, -131.001, -30.307, -6.787, -5.453, 31.19, 0.08759, -0.63278, 0.06067, -0.76688,
 15:59:30.273,ed:35:33:d3:6c:f8, 2015-01-01 03:44:26.540, 0.706, -0.121, 0.691, 1.465, -1.221, 1.648, -9.827, -46.038, 151.024, -18.193, -7.927, -29.293, 30.99, 0.26682, 0.35431, -0.17569, 0.87878,
 15:59:30.273,ed:35:33:d3:6c:f8, 2015-01-01 03:44:26.540, 0.705, -0.131, 0.692, 0.977, -1.16, 1.587, -9.844, -46.049, 151.106, -18.193, -7.927, -29.293, 30.99, 0.26682, 0.35431, -0.17569, 0.87878,
 15:59:30.273,ed:40:fe:65:30:6c, 2015-01-01 03:44:26.095, 0.727, -0.144, 0.677, 1.587, -0.061, 1.282, -12.008, -47.016, -115.681, -22.420, -6.533, -3.460, 26.19, 0.44965, -0.38708, -0.12967, -0.79437,
 15:59:30.273,ed:40:fe:65:30:6c, 2015-01-01 03:44:26.095, 0.727, -0.146, 0.681, 1.099, -0.183, 1.038, -12.008, -47.016, -115.664, -22.420, -6.533, -3.460, 26.19, 0.44965, -0.38708, -0.12967, -0.79437,
 15:59:30.275,f6:90:cc:01:6d:25, 2015-01-01 03:44:25.640, 0.946, -0.198, 0.198, 0.61, 0.366, 0.183, -46.719, -73.724, -130.984, -30.307, -6.787, -5.453, 31.19, 0.08759, -0.63278, 0.06067, -0.76688,
 15:59:30.275,f6:90:cc:01:6d:25, 2015-01-01 03:44:25.640, 0.946, -0.192, 0.201, 0.183, 0.244, 0.061, -46.692, -73.713, -130.995, -30.307, -6.787, -5.453, 31.19, 0.08759, -0.63278, 0.06067, -0.76688,
 15:59:30.293,e3:ca:2d:fd:e0:8c, 2015-01-01 03:44:27.215, 0.945, -0.246, 0.3, -0.122, -0.244, 0.061, -39.88, -67.769, -157.912, -27.253, -6.980, -13.060, 28.43, -0.03897, -0.56677, 0.1792, -0.80316,
 15:59:30.293,e3:ca:2d:fd:e0:8c, 2015-01-01 03:44:27.215, 0.946, -0.243, 0.302, -0.244, -0.305, -0.183, -39.886, -67.775, -157.906, -27.253, -6.980, -13.060, 28.43, -0.03897, -0.56677, 0.1792, -0.80316,
 15:59:30.315,e3:ca:2d:fd:e0:8c, 2015-01-01 03:44:27.215, 0.945, -0.237, 0.303, -0.366, -0.488, -0.183, -39.891, -67.786, -157.912, -27.260, -6.560, -12.793, 28.43, -0.03897, -0.56677, 0.1792, -0.80316,
 15:59:30.315,e3:ca:2d:fd:e0:8c, 2015-01-01 03:44:27.215, 0.944, -0.237, 0.301, -0.671, -0.732, -0.122, -39.913, -67.797, -157.89, -27.260, -6.560, -12.793, 28.43, -0.03897, -0.56677, 0.1792, -0.80316,
 15:59:30.317,ed:40:fe:65:30:6c, 2015-01-01 03:44:26.455, 0.729, -0.144, 0.68, 0.61, -0.427, 0.427, -12.008, -47.016, -115.664, -22.420, -6.533, -3.460, 26.19, 0.44965, -0.38708, -0.12967, -0.79437,
 15:59:30.317,ed:40:fe:65:30:6c, 2015-01-01 03:44:26.455, 0.727, -0.139, 0.677, 0.183, -0.61, 0, -12.003, -47.021, -115.659, -22.420, -6.533, -3.460, 26.19, 0.44965, -0.38708, -0.12967, -0.79437,
 15:59:30.318,ed:35:33:d3:6c:f8, 2015-01-01 03:44:26.540, 0.707, -0.128, 0.691, 0.488, -0.488, 0.305, -9.844, -46.049, 151.139, -18.193, -7.927, -29.293, 30.99, 0.26682, 0.35431, -0.17569, 0.87878,
 15:59:30.318,ed:35:33:d3:6c:f8, 2015-01-01 03:44:26.540, 0.706, -0.12, 0.688, 0.122, -0.122, -0.61, -9.833, -46.049, 151.128, -18.193, -7.927, -29.293, 30.99, 0.26682, 0.35431, -0.17569, 0.87878,
 15:59:30.321,f6:90:cc:01:6d:25, 2015-01-01 03:44:25.930, 0.944, -0.19, 0.2, -0.122, 0.122, 0, -46.67, -73.713, -131.001, -30.307, -6.787, -5.453, 31.19, 0.08759, -0.63278, 0.06067, -0.76688,
 15:59:30.321,f6:90:cc:01:6d:25, 2015-01-01 03:44:25.930, 0.944, -0.192, 0.199, -0.183, -0.183, 0, -46.653, -73.707, -130.995, -30.307, -6.787, -5.453, 31.19, 0.08759, -0.63278, 0.06067, -0.76688,
 15:59:30.362,e3:ca:2d:fd:e0:8c, 2015-01-01 03:44:27.215, 0.944, -0.241, 0.299, -0.916, -1.099, 0, -39.946, -67.813, -157.841, -27.260, -6.560, -12.793, 28.43, -0.03897, -0.56677, 0.1792, -0.80316,
 15:59:30.362,e3:ca:2d:fd:e0:8c, 2015-01-01 03:44:27.215, 0.944, -0.246, 0.298, -0.916, -1.221, 0.183, -39.996, -67.83, -157.775, -27.260, -6.560, -12.793, 28.43, -0.03897, -0.56677, 0.1792, -0.80316,
 15:59:30.362,ed:40:fe:65:30:6c, 2015-01-01 03:44:26.455, 0.729, -0.134, 0.676, -0.244, -0.671, -0.244, -12.003, -47.032, -115.659, -22.420, -6.533, -3.460, 26.19, 0.44965, -0.38708, -0.12967, -0.79437,
 15:59:30.362,ed:40:fe:65:30:6c, 2015-01-01 03:44:26.455, 0.73, -0.135, 0.675, -0.732, -0.732, -0.427, -12.014, -47.043, -115.664, -22.420, -6.533, -3.460, 26.19, 0.44965, -0.38708, -0.12967, -0.79437,
 15:59:30.364,f6:90:cc:01:6d:25, 2015-01-01 03:44:25.930, 0.945, -0.198, 0.197, -0.122, -0.549, 0.244, -46.653, -73.713, -130.974, -30.307, -6.787, -5.453, 31.19, 0.08759, -0.63278, 0.06067, -0.76688,
 15:59:30.364,f6:90:cc:01:6d:25, 2015-01-01 03:44:25.930, 0.946, -0.203, 0.196, -0.305, -0.732, 0.427, -46.681, -73.713, -130.935, -30.307, -6.787, -5.453, 31.19, 0.08759, -0.63278, 0.06067, -0.76688,
 15:59:30.364,ed:35:33:d3:6c:f8, 2015-01-01 03:44:26.540, 0.707, -0.114, 0.686, -0.488, 0.061, -1.343, -9.816, -46.044, 151.095, -18.193, -7.927, -29.293, 30.99, 0.26682, 0.35431, -0.17569, 0.87878,
 15:59:30.364,ed:35:33:d3:6c:f8, 2015-01-01 03:44:26.540, 0.707, -0.11, 0.686, -0.854, 0.183, -1.587, -9.8, -46.038, 151.057, -18.193, -7.927, -29.293, 30.99, 0.26682, 0.35431, -0.17569, 0.87878,
 15:59:30.384,e3:ca:2d:fd:e0:8c, 2015-01-01 03:44:27.215, 0.945, -0.25, 0.299, -0.977, -1.282, 0.183, -40.051, -67.846, -157.698, -27.260, -6.560, -12.793, 28.43, -0.0369, -0.56921, 0.17743, -0.80191,
 15:59:30.384,e3:ca:2d:fd:e0:8c, 2015-01-01 03:44:27.215, 0.947, -0.251, 0.298, -0.671, -1.221, 0.244, -40.106, -67.857, -157.637, -27.260, -6.560, -12.793, 28.43, -0.0369, -0.56921, 0.17743, -0.80191,
 15:59:30.386,ed:40:fe:65:30:6c, 2015-01-01 03:44:26.455, 0.732, -0.139, 0.674, -0.977, -0.671, -0.122, -12.025, -47.054, -115.648, -22.420, -6.533, -3.460, 26.19, 0.44965, -0.38708, -0.12967, -0.79437,
 15:59:30.386,ed:40:fe:65:30:6c, 2015-01-01 03:44:26.455, 0.735, -0.14, 0.672, -0.977, -0.61, 0.305, -12.052, -47.06, -115.626, -22.420, -6.533, -3.460, 26.19, 0.44965, -0.38708, -0.12967, -0.79437,
 15:59:30.386,ed:35:33:d3:6c:f8, 2015-01-01 03:44:26.540, 0.71, -0.11, 0.686, -1.404, 0.427, -1.343, -9.8, -46.027, 151.029, -18.000, -7.780, -29.040, 30.99, 0.26682, 0.35431, -0.17569, 0.87878,
 15:59:30.386,ed:35:33:d3:6c:f8, 2015-01-01 03:44:26.540, 0.713, -0.111, 0.683, -1.587, 0.488, -0.854, -9.811, -46.011, 151.013, -18.000, -7.780, -29.040, 30.99, 0.26682, 0.35431, -0.17569, 0.87878,
 15:59:30.409,f6:90:cc:01:6d:25, 2015-01-01 03:44:25.930, 0.947, -0.204, 0.195, -0.305, -0.793, 0.549, -46.73, -73.718, -130.886, -30.307, -6.787, -5.453, 31.19, 0.08759, -0.63278, 0.06067, -0.76688,
 15:59:30.409,f6:90:cc:01:6d:25, 2015-01-01 03:44:25.930, 0.948, -0.202, 0.193, -0.244, -0.793, 0.671, -46.785, -73.718, -130.836, -30.307, -6.787, -5.453, 31.19, 0.08759, -0.63278, 0.06067, -0.76688,
 15:59:30.430,ed:40:fe:65:30:6c, 2015-01-01 03:44:26.455, 0.737, -0.142, 0.668, -0.793, -0.427, 0.61, -12.079, -47.06, -115.609, -22.420, -6.533, -3.460, 26.19, 0.44965, -0.38708, -0.12967, -0.79437,
 15:59:30.430,ed:40:fe:65:30:6c, 2015-01-01 03:44:26.455, 0.739, -0.143, 0.666, -0.427, -0.366, 0.732, -12.101, -47.06, -115.582, -22.420, -6.533, -3.460, 26.19, 0.44965, -0.38708, -0.12967, -0.79437,
 15:59:30.433,f6:90:cc:01:6d:25, 2015-01-01 03:44:25.930, 0.95, -0.198, 0.191, -0.122, -0.61, 0.854, -46.846, -73.713, -130.781, -30.307, -6.787, -5.453, 31.19, 0.08759, -0.63278, 0.06067, -0.76688,
 15:59:30.433,f6:90:cc:01:6d:25, 2015-01-01 03:44:25.930, 0.95, -0.197, 0.189, -0.122, -0.61, 0.916, -46.901, -73.707, -130.721, -30.307, -6.787, -5.453, 31.19, 0.08759, -0.63278, 0.06067, -0.76688,
 15:59:30.451,e3:ca:2d:fd:e0:8c, 2015-01-01 03:44:27.215, 0.949, -0.248, 0.296, -0.549, -1.099, 0.366, -40.155, -67.868, -157.577, -27.260, -6.560, -12.793, 28.43, -0.0369, -0.56921, 0.17743, -0.80191,
 15:59:30.451,e3:ca:2d:fd:e0:8c, 2015-01-01 03:44:27.215, 0.95, -0.247, 0.293, -0.549, -0.977, 0.427, -40.21, -67.879, -157.522, -27.260, -6.560, -12.793, 28.43, -0.0369, -0.56921, 0.17743, -0.80191,
 15:59:30.453,ed:35:33:d3:6c:f8, 2015-01-01 03:44:26.540, 0.715, -0.114, 0.681, -1.221, 0.122, -0.183, -9.827, -46.005, 151.002, -18.000, -7.780, -29.040, 30.99, 0.26682, 0.35431, -0.17569, 0.87878,
 15:59:30.453,ed:35:33:d3:6c:f8, 2015-01-01 03:44:26.540, 0.715, -0.117, 0.68, -0.61, -0.061, 0.122, -9.838, -46, 150.996, -18.000, -7.780, -29.040, 30.99, 0.26682, 0.35431, -0.17569, 0.87878,
 15:59:30.473,e3:ca:2d:fd:e0:8c, 2015-01-01 03:44:27.570, 0.949, -0.244, 0.292, -0.549, -0.732, 0.549, -40.254, -67.885, -157.478, -27.260, -6.560, -12.793, 28.43, -0.0369, -0.56921, 0.17743, -0.80191,
 15:59:30.473,e3:ca:2d:fd:e0:8c, 2015-01-01 03:44:27.570, 0.949, -0.244, 0.292, -0.549, -0.671, 0.61, -40.303, -67.885, -157.451, -27.260, -6.560, -12.793, 28.43, -0.0369, -0.56921, 0.17743, -0.80191,
 15:59:30.475,ed:40:fe:65:30:6c, 2015-01-01 03:44:26.455, 0.741, -0.143, 0.664, -0.305, -0.305, 0.671, -12.118, -47.065, -115.565, -22.420, -6.533, -3.460, 26.19, 0.44965, -0.38708, -0.12967, -0.79437,
 15:59:30.475,ed:40:fe:65:30:6c, 2015-01-01 03:44:26.455, 0.739, -0.144, 0.663, -0.061, -0.183, 0.671, -12.134, -47.065, -115.543, -22.420, -6.533, -3.460, 26.19, 0.44965, -0.38708, -0.12967, -0.79437,
 15:59:30.475,ed:35:33:d3:6c:f8, 2015-01-01 03:44:26.540, 0.717, -0.118, 0.676, 0.061, -0.366, 0.183, -9.844, -46.005, 151.002, -18.000, -7.780, -29.040, 30.99, 0.26202, 0.35715, -0.17386, 0.87946,
 15:59:30.475,ed:35:33:d3:6c:f8, 2015-01-01 03:44:26.540, 0.716, -0.119, 0.674, 0.183, -0.061, -0.183, -9.833, -46.005, 151.007, -18.000, -7.780, -29.040, 30.99, 0.26202, 0.35715, -0.17386, 0.87946,
 15:59:30.478,f6:90:cc:01:6d:25, 2015-01-01 03:44:25.930, 0.949, -0.197, 0.19, -0.061, -0.549, 0.977, -46.961, -73.702, -130.655, -30.307, -6.787, -5.453, 31.19, 0.08759, -0.63278, 0.06067, -0.76688,
 15:59:30.478,f6:90:cc:01:6d:25, 2015-01-01 03:44:25.930, 0.949, -0.198, 0.188, 0, -0.488, 0.977, -47.021, -73.696, -130.589, -30.307, -6.787, -5.453, 31.19, 0.08759, -0.63278, 0.06067, -0.76688,
 15:59:30.518,e3:ca:2d:fd:e0:8c, 2015-01-01 03:44:27.570, 0.95, -0.244, 0.29, -0.427, -0.671, 0.61, -40.347, -67.89, -157.423, -27.260, -6.560, -12.793, 28.43, -0.0369, -0.56921, 0.17743, -0.80191,
 15:59:30.518,e3:ca:2d:fd:e0:8c, 2015-01-01 03:44:27.570, 0.952, -0.245, 0.29, -0.427, -0.488, 0.488, -40.386, -67.89, -157.396, -27.260, -6.560, -12.793, 28.43, -0.0369, -0.56921, 0.17743, -0.80191,
 15:59:30.519,ed:40:fe:65:30:6c, 2015-01-01 03:44:26.455, 0.741, -0.144, 0.663, 0, -0.122, 0.488, -12.14, -47.065, -115.532, -22.420, -6.533, -3.460, 26.19, 0.44965, -0.38708, -0.12967, -0.79437,
 15:59:30.519,ed:40:fe:65:30:6c, 2015-01-01 03:44:26.455, 0.739, -0.145, 0.665, 0, -0.061, 0.549, -12.151, -47.065, -115.532, -22.420, -6.533, -3.460, 26.19, 0.44965, -0.38708, -0.12967, -0.79437,
 15:59:30.523,f6:90:cc:01:6d:25, 2015-01-01 03:44:25.930, 0.951, -0.198, 0.186, 0, -0.305, 0.916, -47.071, -73.685, -130.54, -30.300, -6.620, -5.413, 31.19, 0.08759, -0.63278, 0.06067, -0.76688,
 15:59:30.523,f6:90:cc:01:6d:25, 2015-01-01 03:44:25.930, 0.951, -0.199, 0.187, -0.061, -0.061, 0.916, -47.109, -73.68, -130.474, -30.300, -6.620, -5.413, 31.19, 0.08759, -0.63278, 0.06067, -0.76688,
 15:59:30.542,e3:ca:2d:fd:e0:8c, 2015-01-01 03:44:27.570, 0.952, -0.245, 0.29, -0.427, -0.305, 0.488, -40.419, -67.89, -157.368, -27.260, -6.560, -12.793, 28.43, -0.0369, -0.56921, 0.17743, -0.80191,
 15:59:30.542,e3:ca:2d:fd:e0:8c, 2015-01-01 03:44:27.570, 0.951, -0.246, 0.29, -0.305, -0.305, 0.488, -40.446, -67.89, -157.352, -27.260, -6.560, -12.793, 28.43, -0.0369, -0.56921, 0.17743, -0.80191,
 15:59:30.543,ed:35:33:d3:6c:f8, 2015-01-01 03:44:26.540, 0.718, -0.118, 0.674, 0.244, 0.122, -0.793, -9.811, -46.005, 150.98, -18.000, -7.780, -29.040, 30.99, 0.26202, 0.35715, -0.17386, 0.87946,
 15:59:30.543,ed:35:33:d3:6c:f8, 2015-01-01 03:44:26.540, 0.719, -0.113, 0.675, 0.427, 0.61, -0.854, -9.783, -45.994, 150.936, -18.000, -7.780, -29.040, 30.99, 0.26202, 0.35715, -0.17386, 0.87946,
 15:59:30.566,ed:35:33:d3:6c:f8, 2015-01-01 03:44:26.920, 0.717, -0.118, 0.68, 0.122, 0.366, -0.305, -9.772, -45.989, 150.908, -18.000, -7.780, -29.040, 30.99, 0.26202, 0.35715, -0.17386, 0.87946,
 15:59:30.566,ed:35:33:d3:6c:f8, 2015-01-01 03:44:26.920, 0.715, -0.12, 0.681, -0.183, 0.183, -0.244, -9.772, -45.989, 150.892, -18.000, -7.780, -29.040, 30.99, 0.26202, 0.35715, -0.17386, 0.87946,
 15:59:30.567,f6:90:cc:01:6d:25, 2015-01-01 03:44:25.930, 0.95, -0.2, 0.188, -0.061, 0, 0.854, -47.142, -73.669, -130.413, -30.300, -6.620, -5.413, 31.19, 0.08984, -0.63303, 0.06018, -0.76648,
 15:59:30.567,f6:90:cc:01:6d:25, 2015-01-01 03:44:25.930, 0.948, -0.201, 0.189, 0, 0, 0.732, -47.17, -73.658, -130.336, -30.300, -6.620, -5.413, 31.19, 0.08984, -0.63303, 0.06018, -0.76648,
 15:59:30.585,e3:ca:2d:fd:e0:8c, 2015-01-01 03:44:27.570, 0.949, -0.246, 0.29, -0.061, -0.305, 0.488, -40.474, -67.896, -157.33, -27.260, -6.560, -12.793, 28.43, -0.0369, -0.56921, 0.17743, -0.80191,
 15:59:30.585,e3:ca:2d:fd:e0:8c, 2015-01-01 03:44:27.570, 0.947, -0.248, 0.292, 0, -0.305, 0.427, -40.496, -67.896, -157.319, -27.260, -6.560, -12.793, 28.43, -0.0369, -0.56921, 0.17743, -0.80191,
 15:59:30.587,ed:40:fe:65:30:6c, 2015-01-01 03:44:26.455, 0.738, -0.146, 0.667, 0, -0.122, 0.427, -12.162, -47.065, -115.538, -22.960, -6.600, -3.460, 26.19, 0.44965, -0.38708, -0.12967, -0.79437,
 15:59:30.587,ed:40:fe:65:30:6c, 2015-01-01 03:44:26.455, 0.737, -0.146, 0.669, -0.183, -0.122, 0.305, -12.173, -47.071, -115.554, -22.960, -6.600, -3.460, 26.19, 0.44965, -0.38708, -0.12967, -0.79437,
 15:59:30.588,ed:35:33:d3:6c:f8, 2015-01-01 03:44:26.920, 0.713, -0.12, 0.684, -0.305, 0.183, -0.244, -9.772, -45.983, 150.875, -18.000, -7.780, -29.040, 30.99, 0.26202, 0.35715, -0.17386, 0.87946,
 15:59:30.588,ed:35:33:d3:6c:f8, 2015-01-01 03:44:26.920, 0.712, -0.118, 0.682, -0.366, 0.366, -0.061, -9.778, -45.978, 150.886, -18.000, -7.780, -29.040, 30.99, 0.26202, 0.35715, -0.17386, 0.87946,
 15:59:30.609,ed:40:fe:65:30:6c, 2015-01-01 03:44:26.455, 0.736, -0.146, 0.668, -0.366, -0.183, 0.244, -12.184, -47.071, -115.576, -22.960, -6.600, -3.460, 26.19, 0.44998, -0.38785, -0.12927, -0.79388,
 15:59:30.609,ed:40:fe:65:30:6c, 2015-01-01 03:44:26.455, 0.734, -0.146, 0.667, -0.427, -0.183, 0.122, -12.195, -47.076, -115.598, -22.960, -6.600, -3.460, 26.19, 0.44998, -0.38785, -0.12927, -0.79388,
 15:59:30.611,f6:90:cc:01:6d:25, 2015-01-01 03:44:26.240, 0.947, -0.202, 0.189, 0, -0.061, 0.61, -47.192, -73.652, -130.259, -30.300, -6.620, -5.413, 31.19, 0.08984, -0.63303, 0.06018, -0.76648,
 15:59:30.611,f6:90:cc:01:6d:25, 2015-01-01 03:44:26.240, 0.946, -0.203, 0.191, 0, -0.122, 0.671, -47.219, -73.647, -130.188, -30.300, -6.620, -5.413, 31.19, 0.08984, -0.63303, 0.06018, -0.76648,
 15:59:30.633,ed:35:33:d3:6c:f8, 2015-01-01 03:44:26.920, 0.709, -0.12, 0.681, -0.366, 0.366, 0.183, -9.789, -45.972, 150.919, -18.000, -7.780, -29.040, 30.99, 0.26202, 0.35715, -0.17386, 0.87946,
 15:59:30.633,ed:35:33:d3:6c:f8, 2015-01-01 03:44:26.920, 0.708, -0.12, 0.681, -0.244, 0.305, -0.061, -9.789, -45.967, 150.947, -18.000, -7.780, -29.040, 30.99, 0.26202, 0.35715, -0.17386, 0.87946,
 15:59:30.635,f6:90:cc:01:6d:25, 2015-01-01 03:44:26.240, 0.944, -0.205, 0.192, -0.122, -0.061, 0.671, -47.247, -73.636, -130.133, -30.300, -6.620, -5.413, 31.19, 0.08984, -0.63303, 0.06018, -0.76648,
 15:59:30.635,f6:90:cc:01:6d:25, 2015-01-01 03:44:26.240, 0.945, -0.205, 0.192, -0.244, 0, 0.671, -47.274, -73.63, -130.1, -30.300, -6.620, -5.413, 31.19, 0.08984, -0.63303, 0.06018, -0.76648,
 15:59:30.653,e3:ca:2d:fd:e0:8c, 2015-01-01 03:44:27.570, 0.946, -0.249, 0.292, 0, -0.183, 0.366, -40.512, -67.896, -157.297, -27.260, -6.560, -12.793, 28.43, -0.0369, -0.56921, 0.17743, -0.80191,
 15:59:30.653,e3:ca:2d:fd:e0:8c, 2015-01-01 03:44:27.570, 0.946, -0.249, 0.293, -0.305, -0.122, 0.366, -40.529, -67.896, -157.291, -27.260, -6.560, -12.793, 28.43, -0.0369, -0.56921, 0.17743, -0.80191,
 15:59:30.677,e3:ca:2d:fd:e0:8c, 2015-01-01 03:44:27.570, 0.946, -0.25, 0.292, -0.427, -0.183, 0.366, -40.556, -67.896, -157.291, -27.500, -6.467, -12.873, 28.43, -0.0369, -0.56921, 0.17743, -0.80191,
 15:59:30.677,e3:ca:2d:fd:e0:8c, 2015-01-01 03:44:27.570, 0.946, -0.25, 0.292, -0.244, -0.061, 0.366, -40.573, -67.89, -157.286, -27.500, -6.467, -12.873, 28.43, -0.0369, -0.56921, 0.17743, -0.80191,
 15:59:30.677,ed:40:fe:65:30:6c, 2015-01-01 03:44:26.455, 0.732, -0.147, 0.667, -0.366, -0.122, 0.122, -12.206, -47.082, -115.62, -22.960, -6.600, -3.460, 26.19, 0.44998, -0.38785, -0.12927, -0.79388,
 15:59:30.677,ed:40:fe:65:30:6c, 2015-01-01 03:44:26.455, 0.732, -0.146, 0.667, -0.183, -0.183, 0.183, -12.217, -47.087, -115.631, -22.960, -6.600, -3.460, 26.19, 0.44998, -0.38785, -0.12927, -0.79388,
 15:59:30.679,ed:35:33:d3:6c:f8, 2015-01-01 03:44:26.920, 0.708, -0.119, 0.682, -0.122, 0.427, -0.244, -9.789, -45.956, 150.974, -18.000, -7.780, -29.040, 30.99, 0.26202, 0.35715, -0.17386, 0.87946,
 15:59:30.679,ed:35:33:d3:6c:f8, 2015-01-01 03:44:26.920, 0.711, -0.12, 0.682, 0.122, 0.244, -0.183, -9.783, -45.95, 150.991, -18.000, -7.780, -29.040, 30.99, 0.26202, 0.35715, -0.17386, 0.87946,
 15:59:30.679,f6:90:cc:01:6d:25, 2015-01-01 03:44:26.240, 0.946, -0.205, 0.191, -0.061, 0, 0.61, -47.296, -73.619, -130.073, -30.300, -6.620, -5.413, 31.19, 0.08984, -0.63303, 0.06018, -0.76648,
 15:59:30.679,f6:90:cc:01:6d:25, 2015-01-01 03:44:26.240, 0.947, -0.204, 0.192, 0.061, -0.061, 0.549, -47.318, -73.614, -130.078, -30.300, -6.620, -5.413, 31.19, 0.08984, -0.63303, 0.06018, -0.76648,
 15:59:30.700,ed:40:fe:65:30:6c, 2015-01-01 03:44:26.835, 0.734, -0.147, 0.667, -0.061, -0.183, 0.244, -12.228, -47.087, -115.631, -22.960, -6.600, -3.460, 26.19, 0.44998, -0.38785, -0.12927, -0.79388,
 15:59:30.700,ed:40:fe:65:30:6c, 2015-01-01 03:44:26.835, 0.736, -0.147, 0.667, -0.061, -0.122, 0.244, -12.233, -47.093, -115.631, -22.960, -6.600, -3.460, 26.19, 0.44998, -0.38785, -0.12927, -0.79388,
 15:59:30.721,e3:ca:2d:fd:e0:8c, 2015-01-01 03:44:27.570, 0.947, -0.248, 0.293, -0.061, -0.061, 0.366, -40.589, -67.89, -157.291, -27.500, -6.467, -12.873, 28.43, -0.0369, -0.56921, 0.17743, -0.80191,
 15:59:30.721,e3:ca:2d:fd:e0:8c, 2015-01-01 03:44:27.570, 0.947, -0.249, 0.294, -0.122, -0.122, 0.244, -40.6, -67.885, -157.286, -27.500, -6.467, -12.873, 28.43, -0.0369, -0.56921, 0.17743, -0.80191,
 15:59:30.722,ed:40:fe:65:30:6c, 2015-01-01 03:44:26.835, 0.736, -0.147, 0.667, -0.061, 0, 0.122, -12.244, -47.093, -115.637, -22.960, -6.600, -3.460, 26.19, 0.44998, -0.38785, -0.12927, -0.79388,
 15:59:30.722,ed:40:fe:65:30:6c, 2015-01-01 03:44:26.835, 0.736, -0.146, 0.668, 0, 0, 0.061, -12.244, -47.093, -115.648, -22.960, -6.600, -3.460, 26.19, 0.44998, -0.38785, -0.12927, -0.79388,
 15:59:30.724,f6:90:cc:01:6d:25, 2015-01-01 03:44:26.240, 0.947, -0.204, 0.193, 0, 0, 0.488, -47.335, -73.603, -130.056, -30.300, -6.620, -5.413, 31.19, 0.08984, -0.63303, 0.06018, -0.76648,
 15:59:30.724,f6:90:cc:01:6d:25, 2015-01-01 03:44:26.240, 0.947, -0.204, 0.191, 0, -0.122, 0.488, -47.351, -73.597, -129.979, -30.300, -6.620, -5.413, 31.19, 0.08984, -0.63303, 0.06018, -0.76648,
 15:59:30.743,e3:ca:2d:fd:e0:8c, 2015-01-01 03:44:27.570, 0.947, -0.249, 0.292, -0.305, -0.183, 0.305, -40.616, -67.885, -157.291, -27.500, -6.467, -12.873, 28.43, -0.03674, -0.5701, 0.17908, -0.8009,
 15:59:30.743,e3:ca:2d:fd:e0:8c, 2015-01-01 03:44:27.570, 0.948, -0.249, 0.293, -0.366, -0.244, 0.244, -40.638, -67.885, -157.297, -27.500, -6.467, -12.873, 28.43, -0.03674, -0.5701, 0.17908, -0.8009,
 15:59:30.746,ed:35:33:d3:6c:f8, 2015-01-01 03:44:26.920, 0.713, -0.121, 0.681, 0.244, 0.061, 0, -9.778, -45.95, 150.996, -18.000, -7.780, -29.040, 30.99, 0.26202, 0.35715, -0.17386, 0.87946,
 15:59:30.746,ed:35:33:d3:6c:f8, 2015-01-01 03:44:26.920, 0.712, -0.12, 0.68, 0.305, 0.122, 0, -9.772, -45.945, 151.013, -18.000, -7.780, -29.040, 30.99, 0.26202, 0.35715, -0.17386, 0.87946,
 15:59:30.767,ed:40:fe:65:30:6c, 2015-01-01 03:44:26.835, 0.735, -0.146, 0.667, -0.244, 0.122, 0, -12.25, -47.093, -115.653, -22.960, -6.600, -3.460, 26.19, 0.44998, -0.38785, -0.12927, -0.79388,
 15:59:30.767,ed:40:fe:65:30:6c, 2015-01-01 03:44:26.835, 0.735, -0.146, 0.67, -0.549, 0, 0, -12.255, -47.087, -115.664, -22.960, -6.600, -3.460, 26.19, 0.44998, -0.38785, -0.12927, -0.79388,
 15:59:30.768,ed:35:33:d3:6c:f8, 2015-01-01 03:44:26.920, 0.711, -0.12, 0.682, 0.183, 0.427, -0.061, -9.772, -45.934, 151.024, -18.340, -7.820, -28.573, 30.99, 0.26202, 0.35715, -0.17386, 0.87946,
 15:59:30.768,ed:35:33:d3:6c:f8, 2015-01-01 03:44:26.920, 0.71, -0.119, 0.684, 0, 0.549, -0.183, -9.767, -45.923, 151.029, -18.340, -7.820, -28.573, 30.99, 0.26202, 0.35715, -0.17386, 0.87946,
 15:59:30.769,f6:90:cc:01:6d:25, 2015-01-01 03:44:26.240, 0.947, -0.204, 0.192, -0.061, -0.122, 0.488, -47.373, -73.592, -129.891, -30.300, -6.620, -5.413, 31.19, 0.08984, -0.63303, 0.06018, -0.76648,
 15:59:30.769,f6:90:cc:01:6d:25, 2015-01-01 03:44:26.240, 0.947, -0.204, 0.19, -0.305, -0.061, 0.427, -47.395, -73.586, -129.82, -30.300, -6.620, -5.413, 31.19, 0.08984, -0.63303, 0.06018, -0.76648,
 15:59:30.789,e3:ca:2d:fd:e0:8c, 2015-01-01 03:44:27.570, 0.948, -0.25, 0.292, -0.549, -0.244, 0.183, -40.66, -67.89, -157.291, -27.500, -6.467, -12.873, 28.43, -0.03674, -0.5701, 0.17908, -0.8009,
 15:59:30.789,e3:ca:2d:fd:e0:8c, 2015-01-01 03:44:27.570, 0.947, -0.249, 0.292, -0.671, -0.183, 0.183, -40.682, -67.89, -157.291, -27.500, -6.467, -12.873, 28.43, -0.03674, -0.5701, 0.17908, -0.8009,
 15:59:30.789,ed:40:fe:65:30:6c, 2015-01-01 03:44:26.835, 0.734, -0.146, 0.669, -0.671, 0, -0.122, -12.272, -47.087, -115.664, -22.960, -6.600, -3.460, 26.19, 0.44998, -0.38785, -0.12927, -0.79388,
 15:59:30.789,ed:40:fe:65:30:6c, 2015-01-01 03:44:26.835, 0.734, -0.146, 0.669, -0.854, -0.122, -0.366, -12.283, -47.093, -115.681, -22.960, -6.600, -3.460, 26.19, 0.44998, -0.38785, -0.12927, -0.79388,
 15:59:30.813,ed:35:33:d3:6c:f8, 2015-01-01 03:44:26.920, 0.711, -0.119, 0.685, -0.427, 0.549, -0.244, -9.772, -45.912, 151.029, -18.340, -7.820, -28.573, 30.99, 0.26202, 0.35715, -0.17386, 0.87946,
 15:59:30.813,ed:35:33:d3:6c:f8, 2015-01-01 03:44:26.920, 0.709, -0.122, 0.686, -0.61, 0.427, -0.488, -9.772, -45.901, 151.035, -18.340, -7.820, -28.573, 30.99, 0.26202, 0.35715, -0.17386, 0.87946,
 15:59:30.815,f6:90:cc:01:6d:25, 2015-01-01 03:44:26.240, 0.946, -0.204, 0.19, -0.427, -0.183, 0.427, -47.422, -73.581, -129.765, -30.153, -6.400, -4.387, 31.19, 0.08984, -0.63303, 0.06018, -0.76648,
 15:59:30.815,f6:90:cc:01:6d:25, 2015-01-01 03:44:26.240, 0.946, -0.204, 0.191, -0.549, -0.183, 0.427, -47.45, -73.575, -129.738, -30.153, -6.400, -4.387, 31.19, 0.08984, -0.63303, 0.06018, -0.76648,
 15:59:30.833,e3:ca:2d:fd:e0:8c, 2015-01-01 03:44:27.930, 0.947, -0.249, 0.292, -0.854, -0.183, 0.061, -40.704, -67.89, -157.28, -27.500, -6.467, -12.873, 28.43, -0.03674, -0.5701, 0.17908, -0.8009,
 15:59:30.833,e3:ca:2d:fd:e0:8c, 2015-01-01 03:44:27.930, 0.947, -0.249, 0.292, -0.977, -0.183, 0.061, -40.726, -67.896, -157.275, -27.500, -6.467, -12.873, 28.43, -0.03674, -0.5701, 0.17908, -0.8009,
 15:59:30.835,ed:40:fe:65:30:6c, 2015-01-01 03:44:26.835, 0.734, -0.145, 0.669, -1.221, -0.244, -0.366, -12.294, -47.093, -115.703, -22.960, -6.600, -3.460, 26.19, 0.44998, -0.38785, -0.12927, -0.79388,
 15:59:30.835,ed:40:fe:65:30:6c, 2015-01-01 03:44:26.835, 0.737, -0.146, 0.67, -1.465, -0.427, -0.183, -12.316, -47.098, -115.724, -22.960, -6.600, -3.460, 26.19, 0.44998, -0.38785, -0.12927, -0.79388,
 15:59:30.836,ed:35:33:d3:6c:f8, 2015-01-01 03:44:26.920, 0.708, -0.12, 0.687, -0.793, 0.549, -0.671, -9.778, -45.89, 151.035, -18.340, -7.820, -28.573, 30.99, 0.26157, 0.35654, -0.17313, 0.88,
 15:59:30.836,ed:35:33:d3:6c:f8, 2015-01-01 03:44:26.920, 0.709, -0.117, 0.687, -1.282, 0.61, -0.977, -9.783, -45.879, 151.007, -18.340, -7.820, -28.573, 30.99, 0.26157, 0.35654, -0.17313, 0.88,
 15:59:30.837,f6:90:cc:01:6d:25, 2015-01-01 03:44:26.240, 0.946, -0.205, 0.192, -0.732, -0.305, 0.427, -47.488, -73.575, -129.699, -30.153, -6.400, -4.387, 31.19, 0.09329, -0.63324, 0.05893, -0.76599,
 15:59:30.837,f6:90:cc:01:6d:25, 2015-01-01 03:44:26.240, 0.947, -0.205, 0.193, -0.793, -0.427, 0.366, -47.532, -73.57, -129.633, -30.153, -6.400, -4.387, 31.19, 0.09329, -0.63324, 0.05893, -0.76599,
 15:59:30.878,e3:ca:2d:fd:e0:8c, 2015-01-01 03:44:27.930, 0.948, -0.25, 0.291, -0.854, -0.366, 0.122, -40.759, -67.901, -157.247, -27.500, -6.467, -12.873, 28.43, -0.03674, -0.5701, 0.17908, -0.8009,
 15:59:30.878,e3:ca:2d:fd:e0:8c, 2015-01-01 03:44:27.930, 0.948, -0.25, 0.292, -0.671, -0.488, 0.183, -40.792, -67.906, -157.198, -27.500, -6.467, -12.873, 28.43, -0.03674, -0.5701, 0.17908, -0.8009,
 15:59:30.879,ed:40:fe:65:30:6c, 2015-01-01 03:44:26.835, 0.738, -0.147, 0.669, -1.099, -0.305, 0, -12.338, -47.109, -115.741, -22.960, -6.600, -3.460, 26.19, 0.44998, -0.38785, -0.12927, -0.79388,
 15:59:30.879,ed:40:fe:65:30:6c, 2015-01-01 03:44:26.835, 0.737, -0.151, 0.665, -0.793, -0.183, 0.183, -12.36, -47.109, -115.752, -22.960, -6.600, -3.460, 26.19, 0.44998, -0.38785, -0.12927, -0.79388,
 15:59:30.880,ed:35:33:d3:6c:f8, 2015-01-01 03:44:26.920, 0.712, -0.113, 0.686, -1.587, 0.854, -0.732, -9.794, -45.862, 150.974, -18.340, -7.820, -28.573, 30.99, 0.26157, 0.35654, -0.17313, 0.88,
 15:59:30.880,ed:35:33:d3:6c:f8, 2015-01-01 03:44:26.920, 0.713, -0.115, 0.684, -1.343, 0.854, -0.061, -9.816, -45.846, 150.974, -18.340, -7.820, -28.573, 30.99, 0.26157, 0.35654, -0.17313, 0.88,
 15:59:30.883,f6:90:cc:01:6d:25, 2015-01-01 03:44:26.240, 0.948, -0.206, 0.192, -0.61, -0.549, 0.366, -47.582, -73.575, -129.573, -30.153, -6.400, -4.387, 31.19, 0.09329, -0.63324, 0.05893, -0.76599,
 15:59:30.883,f6:90:cc:01:6d:25, 2015-01-01 03:44:26.240, 0.946, -0.208, 0.191, -0.244, -0.671, 0.366, -47.626, -73.575, -129.501, -30.153, -6.400, -4.387, 31.19, 0.09329, -0.63324, 0.05893, -0.76599,
 15:59:30.925,e3:ca:2d:fd:e0:8c, 2015-01-01 03:44:27.930, 0.948, -0.252, 0.291, -0.366, -0.732, 0.244, -40.825, -67.912, -157.132, -27.500, -6.467, -12.873, 28.43, -0.03674, -0.5701, 0.17908, -0.8009,
 15:59:30.925,e3:ca:2d:fd:e0:8c, 2015-01-01 03:44:27.930, 0.947, -0.252, 0.29, -0.122, -0.488, 0.122, -40.847, -67.917, -157.094, -27.500, -6.467, -12.873, 28.43, -0.03674, -0.5701, 0.17908, -0.8009,
 15:59:30.926,ed:35:33:d3:6c:f8, 2015-01-01 03:44:27.255, 0.713, -0.122, 0.681, -0.977, 0.549, 0.671, -9.849, -45.829, 150.996, -18.340, -7.820, -28.573, 30.99, 0.26157, 0.35654, -0.17313, 0.88,
 15:59:30.926,ed:35:33:d3:6c:f8, 2015-01-01 03:44:27.255, 0.712, -0.12, 0.678, -1.099, 0.305, 0.305, -9.877, -45.824, 151.013, -18.340, -7.820, -28.573, 30.99, 0.26157, 0.35654, -0.17313, 0.88,
 15:59:30.927,f6:90:cc:01:6d:25, 2015-01-01 03:44:26.530, 0.946, -0.207, 0.187, 0, -0.366, 0.244, -47.653, -73.575, -129.446, -30.153, -6.400, -4.387, 31.19, 0.09329, -0.63324, 0.05893, -0.76599,
 15:59:30.927,f6:90:cc:01:6d:25, 2015-01-01 03:44:26.530, 0.947, -0.207, 0.186, -0.427, -0.183, 0.305, -47.681, -73.575, -129.402, -30.153, -6.400, -4.387, 31.19, 0.09329, -0.63324, 0.05893, -0.76599,
 15:59:30.945,e3:ca:2d:fd:e0:8c, 2015-01-01 03:44:27.930, 0.95, -0.251, 0.29, -0.305, -0.183, 0.061, -40.858, -67.923, -157.066, -27.500, -6.467, -12.873, 28.43, -0.03674, -0.5701, 0.17908, -0.8009,
 15:59:30.945,e3:ca:2d:fd:e0:8c, 2015-01-01 03:44:27.930, 0.952, -0.25, 0.289, -0.305, 0, 0.061, -40.869, -67.923, -157.066, -27.500, -6.467, -12.873, 28.43, -0.03674, -0.5701, 0.17908, -0.8009,
 15:59:30.946,ed:40:fe:65:30:6c, 2015-01-01 03:44:26.835, 0.738, -0.148, 0.663, -0.793, -0.061, 0.122, -12.382, -47.115, -115.752, -22.607, -6.413, -3.687, 26.19, 0.44998, -0.38785, -0.12927, -0.79388,
 15:59:30.946,ed:40:fe:65:30:6c, 2015-01-01 03:44:26.835, 0.74, -0.146, 0.664, -0.671, 0, 0.183, -12.404, -47.115, -115.752, -22.607, -6.413, -3.687, 26.19, 0.44998, -0.38785, -0.12927, -0.79388,
 15:59:30.971,ed:40:fe:65:30:6c, 2015-01-01 03:44:26.835, 0.745, -0.147, 0.662, -0.671, 0.122, 0.244, -12.42, -47.115, -115.741, -22.607, -6.413, -3.687, 26.19, 0.448, -0.38922, -0.12729, -0.79468,
 15:59:30.971,ed:40:fe:65:30:6c, 2015-01-01 03:44:26.835, 0.741, -0.148, 0.661, -0.488, 0.244, 0.549, -12.437, -47.109, -115.73, -22.607, -6.413, -3.687, 26.19, 0.448, -0.38922, -0.12729, -0.79468,
 15:59:30.971,ed:35:33:d3:6c:f8, 2015-01-01 03:44:27.255, 0.714, -0.118, 0.68, -0.977, 0.305, 0, -9.893, -45.813, 151.018, -18.340, -7.820, -28.573, 30.99, 0.26157, 0.35654, -0.17313, 0.88,
 15:59:30.971,ed:35:33:d3:6c:f8, 2015-01-01 03:44:27.255, 0.717, -0.114, 0.677, -0.671, 0.427, 0, -9.904, -45.807, 151.013, -18.340, -7.820, -28.573, 30.99, 0.26157, 0.35654, -0.17313, 0.88,
 15:59:30.972,f6:90:cc:01:6d:25, 2015-01-01 03:44:26.530, 0.951, -0.206, 0.187, -0.671, 0, 0.366, -47.708, -73.57, -129.386, -30.153, -6.400, -4.387, 31.19, 0.09329, -0.63324, 0.05893, -0.76599,
 15:59:30.972,f6:90:cc:01:6d:25, 2015-01-01 03:44:26.530, 0.95, -0.206, 0.187, -0.61, 0.244, 0.244, -47.719, -73.564, -129.386, -30.153, -6.400, -4.387, 31.19, 0.09329, -0.63324, 0.05893, -0.76599,
 15:59:30.991,e3:ca:2d:fd:e0:8c, 2015-01-01 03:44:27.930, 0.951, -0.25, 0.288, -0.183, 0, 0, -40.869, -67.923, -157.061, -27.500, -6.467, -12.873, 28.43, -0.03674, -0.5701, 0.17908, -0.8009,
 15:59:30.991,e3:ca:2d:fd:e0:8c, 2015-01-01 03:44:27.930, 0.95, -0.25, 0.289, -0.122, 0.061, 0.122, -40.875, -67.917, -157.044, -27.500, -6.467, -12.873, 28.43, -0.03674, -0.5701, 0.17908, -0.8009,
 15:59:30.992,ed:35:33:d3:6c:f8, 2015-01-01 03:44:27.255, 0.711, -0.116, 0.679, -0.244, 0.061, 0.61, -9.921, -45.807, 151.029, -18.340, -7.820, -28.573, 30.99, 0.26157, 0.35654, -0.17313, 0.88,
 15:59:30.992,ed:35:33:d3:6c:f8, 2015-01-01 03:44:27.255, 0.709, -0.119, 0.683, 0.183, 0.244, 0.732, -9.937, -45.802, 151.046, -18.340, -7.820, -28.573, 30.99, 0.26157, 0.35654, -0.17313, 0.88,
 15:59:30.994,f6:90:cc:01:6d:25, 2015-01-01 03:44:26.530, 0.949, -0.205, 0.188, -0.305, 0.244, 0.244, -47.719, -73.553, -129.391, -30.153, -6.400, -4.387, 31.19, 0.09329, -0.63324, 0.05893, -0.76599,
 15:59:30.994,f6:90:cc:01:6d:25, 2015-01-01 03:44:26.530, 0.946, -0.203, 0.188, -0.244, 0.244, 0.305, -47.725, -73.548, -129.391, -30.153, -6.400, -4.387, 31.19, 0.09329, -0.63324, 0.05893, -0.76599,
 15:59:31.015,ed:40:fe:65:30:6c, 2015-01-01 03:44:26.835, 0.738, -0.148, 0.664, -0.183, 0.366, 0.671, -12.458, -47.104, -115.714, -22.607, -6.413, -3.687, 26.19, 0.448, -0.38922, -0.12729, -0.79468,
 15:59:31.015,ed:40:fe:65:30:6c, 2015-01-01 03:44:26.835, 0.735, -0.146, 0.665, 0.061, 0.488, 0.671, -12.475, -47.098, -115.692, -22.607, -6.413, -3.687, 26.19, 0.448, -0.38922, -0.12729, -0.79468,
 15:59:31.037,ed:40:fe:65:30:6c, 2015-01-01 03:44:27.190, 0.733, -0.147, 0.664, 0.183, 0.305, 0.549, -12.486, -47.087, -115.67, -22.607, -6.413, -3.687, 26.19, 0.448, -0.38922, -0.12729, -0.79468,
 15:59:31.037,ed:40:fe:65:30:6c, 2015-01-01 03:44:27.190, 0.734, -0.146, 0.667, 0.061, 0.122, 0.366, -12.491, -47.082, -115.664, -22.607, -6.413, -3.687, 26.19, 0.448, -0.38922, -0.12729, -0.79468,
 15:59:31.039,f6:90:cc:01:6d:25, 2015-01-01 03:44:26.530, 0.945, -0.202, 0.188, -0.122, 0.183, 0.305, -47.725, -73.542, -129.397, -30.153, -6.400, -4.387, 31.19, 0.09329, -0.63324, 0.05893, -0.76599,
 15:59:31.039,f6:90:cc:01:6d:25, 2015-01-01 03:44:26.530, 0.947, -0.201, 0.188, -0.061, 0.122, 0.305, -47.73, -73.537, -129.402, -30.153, -6.400, -4.387, 31.19, 0.09329, -0.63324, 0.05893, -0.76599,
 15:59:31.039,ed:35:33:d3:6c:f8, 2015-01-01 03:44:27.255, 0.708, -0.121, 0.685, 0.244, 0, 0.732, -9.943, -45.797, 151.057, -18.340, -7.820, -28.573, 30.99, 0.26157, 0.35654, -0.17313, 0.88,
 15:59:31.039,ed:35:33:d3:6c:f8, 2015-01-01 03:44:27.255, 0.708, -0.122, 0.687, -0.061, 0.061, 0.183, -9.954, -45.791, 151.084, -18.340, -7.820, -28.573, 30.99, 0.26157, 0.35654, -0.17313, 0.88,
 15:59:31.058,e3:ca:2d:fd:e0:8c, 2015-01-01 03:44:27.930, 0.947, -0.248, 0.288, -0.061, 0, 0.183, -40.88, -67.917, -157.033, -27.367, -6.787, -12.280, 28.43, -0.03674, -0.5701, 0.17908, -0.8009,
 15:59:31.058,e3:ca:2d:fd:e0:8c, 2015-01-01 03:44:27.930, 0.947, -0.246, 0.288, 0, 0.061, 0.183, -40.886, -67.917, -157.044, -27.367, -6.787, -12.280, 28.43, -0.03674, -0.5701, 0.17908, -0.8009,
 15:59:31.081,e3:ca:2d:fd:e0:8c, 2015-01-01 03:44:27.930, 0.949, -0.245, 0.288, -0.061, 0.061, 0.244, -40.891, -67.917, -157.066, -27.367, -6.787, -12.280, 28.43, -0.03674, -0.57053, 0.1799, -0.80042,
 15:59:31.081,e3:ca:2d:fd:e0:8c, 2015-01-01 03:44:27.930, 0.949, -0.245, 0.29, -0.183, 0.183, 0.244, -40.891, -67.912, -157.094, -27.367, -6.787, -12.280, 28.43, -0.03674, -0.57053, 0.1799, -0.80042,
 15:59:31.083,ed:35:33:d3:6c:f8, 2015-01-01 03:44:27.255, 0.71, -0.12, 0.686, -0.61, 0.061, -0.366, -9.959, -45.791, 151.1, -18.340, -7.820, -28.573, 30.99, 0.26157, 0.35654, -0.17313, 0.88,
 15:59:31.083,ed:35:33:d3:6c:f8, 2015-01-01 03:44:27.255, 0.71, -0.119, 0.686, -0.671, 0.244, -0.366, -9.959, -45.791, 151.111, -18.340, -7.820, -28.573, 30.99, 0.26157, 0.35654, -0.17313, 0.88,
 15:59:31.083,ed:40:fe:65:30:6c, 2015-01-01 03:44:27.190, 0.736, -0.145, 0.667, -0.366, -0.061, 0.122, -12.497, -47.082, -115.653, -22.607, -6.413, -3.687, 26.19, 0.448, -0.38922, -0.12729, -0.79468,
 15:59:31.083,ed:40:fe:65:30:6c, 2015-01-01 03:44:27.190, 0.736, -0.147, 0.668, -0.549, -0.244, 0, -12.508, -47.087, -115.659, -22.607, -6.413, -3.687, 26.19, 0.448, -0.38922, -0.12729, -0.79468,
 15:59:31.084,f6:90:cc:01:6d:25, 2015-01-01 03:44:26.530, 0.947, -0.2, 0.188, -0.122, 0, 0.305, -47.736, -73.531, -129.43, -30.153, -6.400, -4.387, 31.19, 0.09329, -0.63324, 0.05893, -0.76599,
 15:59:31.084,f6:90:cc:01:6d:25, 2015-01-01 03:44:26.530, 0.947, -0.202, 0.191, -0.488, 0, 0.366, -47.752, -73.531, -129.446, -30.153, -6.400, -4.387, 31.19, 0.09329, -0.63324, 0.05893, -0.76599,
 15:59:31.126,e3:ca:2d:fd:e0:8c, 2015-01-01 03:44:27.930, 0.948, -0.248, 0.292, -0.488, 0.061, 0.244, -40.908, -67.912, -157.121, -27.367, -6.787, -12.280, 28.43, -0.03674, -0.57053, 0.1799, -0.80042,
 15:59:31.126,e3:ca:2d:fd:e0:8c, 2015-01-01 03:44:27.930, 0.947, -0.25, 0.292, -0.549, 0.122, 0.183, -40.919, -67.906, -157.159, -27.367, -6.787, -12.280, 28.43, -0.03674, -0.57053, 0.1799, -0.80042,
 15:59:31.127,ed:40:fe:65:30:6c, 2015-01-01 03:44:27.190, 0.737, -0.148, 0.667, -0.427, -0.244, 0, -12.519, -47.093, -115.664, -22.607, -6.413, -3.687, 26.19, 0.448, -0.38922, -0.12729, -0.79468,
 15:59:31.127,ed:40:fe:65:30:6c, 2015-01-01 03:44:27.190, 0.735, -0.15, 0.667, -0.122, -0.122, 0.061, -12.524, -47.098, -115.67, -22.607, -6.413, -3.687, 26.19, 0.448, -0.38922, -0.12729, -0.79468,
 15:59:31.131,f6:90:cc:01:6d:25, 2015-01-01 03:44:26.530, 0.947, -0.206, 0.191, -0.61, -0.122, 0.305, -47.774, -73.526, -129.468, -30.273, -7.060, -5.713, 31.19, 0.09329, -0.63324, 0.05893, -0.76599,
 15:59:31.131,f6:90:cc:01:6d:25, 2015-01-01 03:44:26.530, 0.946, -0.208, 0.192, -0.488, -0.183, 0.366, -47.802, -73.526, -129.452, -30.273, -7.060, -5.713, 31.19, 0.09329, -0.63324, 0.05893, -0.76599,
 15:59:31.148,e3:ca:2d:fd:e0:8c, 2015-01-01 03:44:28.265, 0.946, -0.251, 0.293, -0.488, 0, 0.244, -40.93, -67.906, -157.154, -27.367, -6.787, -12.280, 28.43, -0.03674, -0.57053, 0.1799, -0.80042,
 15:59:31.148,e3:ca:2d:fd:e0:8c, 2015-01-01 03:44:28.265, 0.947, -0.252, 0.292, -0.305, -0.061, 0.244, -40.946, -67.906, -157.132, -27.367, -6.787, -12.280, 28.43, -0.03674, -0.57053, 0.1799, -0.80042,
 15:59:31.149,ed:40:fe:65:30:6c, 2015-01-01 03:44:27.190, 0.734, -0.151, 0.667, 0, -0.061, 0, -12.53, -47.098, -115.675, -22.607, -6.413, -3.687, 26.19, 0.448, -0.38922, -0.12729, -0.79468,
 15:59:31.149,ed:40:fe:65:30:6c, 2015-01-01 03:44:27.190, 0.737, -0.152, 0.666, 0, -0.122, 0, -12.53, -47.104, -115.675, -22.607, -6.413, -3.687, 26.19, 0.448, -0.38922, -0.12729, -0.79468,
 15:59:31.150,ed:35:33:d3:6c:f8, 2015-01-01 03:44:27.255, 0.711, -0.118, 0.684, -0.366, 0, -0.305, -9.965, -45.786, 151.106, -18.480, -7.647, -28.593, 30.99, 0.26157, 0.35654, -0.17313, 0.88,
 15:59:31.150,ed:35:33:d3:6c:f8, 2015-01-01 03:44:27.255, 0.708, -0.122, 0.683, 0, -0.183, -0.122, -9.965, -45.786, 151.1, -18.480, -7.647, -28.593, 30.99, 0.26157, 0.35654, -0.17313, 0.88,
 15:59:31.173,ed:35:33:d3:6c:f8, 2015-01-01 03:44:27.255, 0.708, -0.124, 0.684, 0, -0.061, -0.122, -9.959, -45.791, 151.095, -18.480, -7.647, -28.593, 30.99, 0.26172, 0.35532, -0.17416, 0.88022,
 15:59:31.173,ed:35:33:d3:6c:f8, 2015-01-01 03:44:27.255, 0.71, -0.124, 0.682, 0.183, 0, -0.183, -9.959, -45.786, 151.1, -18.480, -7.647, -28.593, 30.99, 0.26172, 0.35532, -0.17416, 0.88022,
 15:59:31.174,f6:90:cc:01:6d:25, 2015-01-01 03:44:26.530, 0.945, -0.208, 0.192, -0.183, -0.061, 0.366, -47.818, -73.521, -129.435, -30.273, -7.060, -5.713, 31.19, 0.09338, -0.63336, 0.05994, -0.76578,
 15:59:31.174,f6:90:cc:01:6d:25, 2015-01-01 03:44:26.530, 0.946, -0.208, 0.191, -0.122, 0, 0.366, -47.829, -73.515, -129.43, -30.273, -7.060, -5.713, 31.19, 0.09338, -0.63336, 0.05994, -0.76578,
 15:59:31.194,e3:ca:2d:fd:e0:8c, 2015-01-01 03:44:28.265, 0.947, -0.251, 0.292, -0.244, 0, 0.244, -40.957, -67.901, -157.126, -27.367, -6.787, -12.280, 28.43, -0.03674, -0.57053, 0.1799, -0.80042,
 15:59:31.194,e3:ca:2d:fd:e0:8c, 2015-01-01 03:44:28.265, 0.947, -0.251, 0.292, -0.244, 0, 0.183, -40.963, -67.901, -157.126, -27.367, -6.787, -12.280, 28.43, -0.03674, -0.57053, 0.1799, -0.80042,
 15:59:31.197,f6:90:cc:01:6d:25, 2015-01-01 03:44:26.845, 0.946, -0.208, 0.19, -0.183, 0, 0.427, -47.845, -73.51, -129.413, -30.273, -7.060, -5.713, 31.19, 0.09338, -0.63336, 0.05994, -0.76578,
 15:59:31.197,f6:90:cc:01:6d:25, 2015-01-01 03:44:26.845, 0.946, -0.208, 0.189, -0.305, 0, 0.427, -47.862, -73.504, -129.413, -30.273, -7.060, -5.713, 31.19, 0.09338, -0.63336, 0.05994, -0.76578,
 15:59:31.217,ed:40:fe:65:30:6c, 2015-01-01 03:44:27.190, 0.736, -0.151, 0.664, 0.061, -0.122, -0.122, -12.53, -47.104, -115.675, -22.607, -6.413, -3.687, 26.19, 0.448, -0.38922, -0.12729, -0.79468,
 15:59:31.217,ed:40:fe:65:30:6c, 2015-01-01 03:44:27.190, 0.737, -0.149, 0.665, 0, 0, -0.122, -12.53, -47.109, -115.67, -22.607, -6.413, -3.687, 26.19, 0.448, -0.38922, -0.12729, -0.79468,
 15:59:31.218,ed:35:33:d3:6c:f8, 2015-01-01 03:44:27.255, 0.71, -0.122, 0.679, 0.061, 0, -0.244, -9.954, -45.786, 151.117, -18.480, -7.647, -28.593, 30.99, 0.26172, 0.35532, -0.17416, 0.88022,
 15:59:31.218,ed:35:33:d3:6c:f8, 2015-01-01 03:44:27.255, 0.711, -0.117, 0.681, 0, 0.122, -0.427, -9.948, -45.786, 151.128, -18.480, -7.647, -28.593, 30.99, 0.26172, 0.35532, -0.17416, 0.88022,
 15:59:31.239,e3:ca:2d:fd:e0:8c, 2015-01-01 03:44:28.265, 0.947, -0.252, 0.291, -0.244, 0, 0.183, -40.974, -67.901, -157.126, -27.367, -6.787, -12.280, 28.43, -0.03674, -0.57053, 0.1799, -0.80042,
 15:59:31.239,e3:ca:2d:fd:e0:8c, 2015-01-01 03:44:28.265, 0.947, -0.252, 0.291, -0.305, -0.061, 0.183, -40.984, -67.896, -157.115, -27.367, -6.787, -12.280, 28.43, -0.03674, -0.57053, 0.1799, -0.80042,
 15:59:31.240,ed:40:fe:65:30:6c, 2015-01-01 03:44:27.190, 0.737, -0.146, 0.665, -0.122, 0.183, 0.061, -12.53, -47.109, -115.675, -22.867, -6.280, -3.327, 26.19, 0.448, -0.38922, -0.12729, -0.79468,
 15:59:31.240,ed:40:fe:65:30:6c, 2015-01-01 03:44:27.190, 0.736, -0.15, 0.666, -0.183, 0.305, 0.244, -12.535, -47.104, -115.67, -22.867, -6.280, -3.327, 26.19, 0.448, -0.38922, -0.12729, -0.79468,
 15:59:31.241,ed:35:33:d3:6c:f8, 2015-01-01 03:44:27.590, 0.711, -0.115, 0.682, 0, 0.366, -0.183, -9.943, -45.78, 151.144, -18.480, -7.647, -28.593, 30.99, 0.26172, 0.35532, -0.17416, 0.88022,
 15:59:31.241,ed:35:33:d3:6c:f8, 2015-01-01 03:44:27.590, 0.711, -0.121, 0.684, 0, 0.183, 0.244, -9.937, -45.775, 151.161, -18.480, -7.647, -28.593, 30.99, 0.26172, 0.35532, -0.17416, 0.88022,
 15:59:31.243,f6:90:cc:01:6d:25, 2015-01-01 03:44:26.845, 0.947, -0.209, 0.19, -0.305, 0.061, 0.366, -47.878, -73.499, -129.424, -30.273, -7.060, -5.713, 31.19, 0.09338, -0.63336, 0.05994, -0.76578,
 15:59:31.243,f6:90:cc:01:6d:25, 2015-01-01 03:44:26.845, 0.947, -0.209, 0.19, -0.183, 0.122, 0.366, -47.884, -73.488, -129.441, -30.273, -7.060, -5.713, 31.19, 0.09338, -0.63336, 0.05994, -0.76578,
 15:59:31.284,e3:ca:2d:fd:e0:8c, 2015-01-01 03:44:28.265, 0.949, -0.253, 0.289, -0.366, -0.183, 0, -40.995, -67.901, -157.104, -27.367, -6.787, -12.280, 28.43, -0.03674, -0.57053, 0.1799, -0.80042,
 15:59:31.284,e3:ca:2d:fd:e0:8c, 2015-01-01 03:44:28.265, 0.949, -0.254, 0.288, -0.183, -0.183, 0.305, -41.012, -67.901, -157.088, -27.367, -6.787, -12.280, 28.43, -0.03674, -0.57053, 0.1799, -0.80042,
 15:59:31.285,ed:40:fe:65:30:6c, 2015-01-01 03:44:27.190, 0.736, -0.153, 0.667, -0.122, 0.244, 0.305, -12.541, -47.098, -115.67, -22.867, -6.280, -3.327, 26.19, 0.448, -0.38922, -0.12729, -0.79468,
 15:59:31.285,ed:40:fe:65:30:6c, 2015-01-01 03:44:27.190, 0.735, -0.154, 0.667, -0.061, 0.183, 0.427, -12.552, -47.093, -115.675, -22.867, -6.280, -3.327, 26.19, 0.448, -0.38922, -0.12729, -0.79468,
 15:59:31.286,ed:35:33:d3:6c:f8, 2015-01-01 03:44:27.590, 0.71, -0.122, 0.686, -0.061, 0.183, 0.549, -9.943, -45.769, 151.188, -18.480, -7.647, -28.593, 30.99, 0.26172, 0.35532, -0.17416, 0.88022,
 15:59:31.286,ed:35:33:d3:6c:f8, 2015-01-01 03:44:27.590, 0.709, -0.125, 0.686, -0.183, 0.122, 0.671, -9.959, -45.764, 151.199, -18.480, -7.647, -28.593, 30.99, 0.26172, 0.35532, -0.17416, 0.88022,
 15:59:31.287,f6:90:cc:01:6d:25, 2015-01-01 03:44:26.845, 0.947, -0.21, 0.188, 0, 0.122, 0.366, -47.889, -73.482, -129.452, -30.273, -7.060, -5.713, 31.19, 0.09338, -0.63336, 0.05994, -0.76578,
 15:59:31.287,f6:90:cc:01:6d:25, 2015-01-01 03:44:26.845, 0.947, -0.21, 0.187, 0.122, 0, 0.244, -47.895, -73.477, -129.463, -30.273, -7.060, -5.713, 31.19, 0.09338, -0.63336, 0.05994, -0.76578,
 15:59:31.307,e3:ca:2d:fd:e0:8c, 2015-01-01 03:44:28.265, 0.949, -0.253, 0.288, 0, -0.061, 0.183, -41.023, -67.901, -157.077, -27.367, -6.787, -12.280, 28.43, -0.03674, -0.57053, 0.1799, -0.80042,
 15:59:31.307,e3:ca:2d:fd:e0:8c, 2015-01-01 03:44:28.265, 0.948, -0.25, 0.289, 0.122, 0, 0.061, -41.023, -67.901, -157.083, -27.367, -6.787, -12.280, 28.43, -0.03674, -0.57053, 0.1799, -0.80042,
 15:59:31.331,ed:35:33:d3:6c:f8, 2015-01-01 03:44:27.590, 0.71, -0.126, 0.685, -0.305, 0, 0.488, -9.976, -45.758, 151.21, -18.480, -7.647, -28.593, 30.99, 0.26172, 0.35532, -0.17416, 0.88022,
 15:59:31.331,ed:35:33:d3:6c:f8, 2015-01-01 03:44:27.590, 0.71, -0.125, 0.682, -0.122, 0, 0, -9.987, -45.758, 151.21, -18.480, -7.647, -28.593, 30.99, 0.26172, 0.35532, -0.17416, 0.88022,
 15:59:31.333,f6:90:cc:01:6d:25, 2015-01-01 03:44:26.845, 0.947, -0.208, 0.188, 0.061, -0.061, 0.122, -47.9, -73.477, -129.479, -30.273, -7.060, -5.713, 31.19, 0.09338, -0.63336, 0.05994, -0.76578,
 15:59:31.333,f6:90:cc:01:6d:25, 2015-01-01 03:44:26.845, 0.946, -0.205, 0.188, 0, -0.061, 0.061, -47.906, -73.477, -129.496, -30.273, -7.060, -5.713, 31.19, 0.09338, -0.63336, 0.05994, -0.76578,
 15:59:31.351,ed:40:fe:65:30:6c, 2015-01-01 03:44:27.190, 0.736, -0.153, 0.667, -0.061, 0.061, 0.305, -12.563, -47.087, -115.681, -22.867, -6.280, -3.327, 26.19, 0.44803, -0.38953, -0.1265, -0.79462,
 15:59:31.351,ed:40:fe:65:30:6c, 2015-01-01 03:44:27.190, 0.737, -0.151, 0.664, 0, -0.061, 0.061, -12.574, -47.087, -115.697, -22.867, -6.280, -3.327, 26.19, 0.44803, -0.38953, -0.1265, -0.79462,
 15:59:31.351,e3:ca:2d:fd:e0:8c, 2015-01-01 03:44:28.265, 0.948, -0.249, 0.289, 0, -0.061, 0, -41.023, -67.901, -157.088, -27.367, -6.787, -12.280, 28.43, -0.03674, -0.57053, 0.1799, -0.80042,
 15:59:31.351,e3:ca:2d:fd:e0:8c, 2015-01-01 03:44:28.265, 0.948, -0.249, 0.289, -0.305, -0.061, 0, -41.034, -67.901, -157.077, -27.367, -6.787, -12.280, 28.43, -0.03674, -0.57053, 0.1799, -0.80042,
 15:59:31.352,ed:35:33:d3:6c:f8, 2015-01-01 03:44:27.590, 0.71, -0.121, 0.682, -0.183, 0, -0.488, -9.992, -45.753, 151.199, -18.480, -7.647, -28.593, 30.99, 0.26172, 0.35532, -0.17416, 0.88022,
 15:59:31.352,ed:35:33:d3:6c:f8, 2015-01-01 03:44:27.590, 0.712, -0.118, 0.683, -0.183, 0.183, -0.549, -9.987, -45.753, 151.183, -18.480, -7.647, -28.593, 30.99, 0.26172, 0.35532, -0.17416, 0.88022,
 15:59:31.374,ed:40:fe:65:30:6c, 2015-01-01 03:44:27.525, 0.737, -0.149, 0.664, 0, -0.061, -0.122, -12.574, -47.093, -115.714, -22.867, -6.280, -3.327, 26.19, 0.44803, -0.38953, -0.1265, -0.79462,
 15:59:31.374,ed:40:fe:65:30:6c, 2015-01-01 03:44:27.525, 0.738, -0.148, 0.666, -0.061, -0.061, -0.244, -12.574, -47.093, -115.73, -22.867, -6.280, -3.327, 26.19, 0.44803, -0.38953, -0.1265, -0.79462,
 15:59:31.378,f6:90:cc:01:6d:25, 2015-01-01 03:44:26.845, 0.946, -0.204, 0.188, -0.122, 0, 0.061, -47.906, -73.477, -129.512, -30.273, -7.060, -5.713, 31.19, 0.09338, -0.63336, 0.05994, -0.76578,
 15:59:31.378,f6:90:cc:01:6d:25, 2015-01-01 03:44:26.845, 0.947, -0.206, 0.19, -0.244, -0.061, 0.122, -47.917, -73.477, -129.529, -30.273, -7.060, -5.713, 31.19, 0.09338, -0.63336, 0.05994, -0.76578,
 15:59:31.397,ed:40:fe:65:30:6c, 2015-01-01 03:44:27.525, 0.737, -0.149, 0.666, 0, 0, -0.183, -12.568, -47.098, -115.73, -22.867, -6.280, -3.327, 26.19, 0.44803, -0.38953, -0.1265, -0.79462,
 15:59:31.397,ed:40:fe:65:30:6c, 2015-01-01 03:44:27.525, 0.737, -0.149, 0.667, 0.061, 0, 0, -12.568, -47.098, -115.724, -22.867, -6.280, -3.327, 26.19, 0.44803, -0.38953, -0.1265, -0.79462,
 15:59:31.401,f6:90:cc:01:6d:25, 2015-01-01 03:44:26.845, 0.947, -0.208, 0.19, -0.061, -0.122, 0.061, -47.922, -73.477, -129.54, -30.400, -6.727, -5.020, 31.19, 0.09338, -0.63336, 0.05994, -0.76578,
 15:59:31.401,f6:90:cc:01:6d:25, 2015-01-01 03:44:26.845, 0.947, -0.208, 0.188, 0.305, -0.183, 0, -47.922, -73.477, -129.551, -30.400, -6.727, -5.020, 31.19, 0.09338, -0.63336, 0.05994, -0.76578,
 15:59:31.421,ed:35:33:d3:6c:f8, 2015-01-01 03:44:27.590, 0.71, -0.118, 0.684, 0.122, 0.183, -0.244, -9.981, -45.753, 151.161, -18.480, -7.647, -28.593, 30.99, 0.26172, 0.35532, -0.17416, 0.88022,
 15:59:31.421,ed:35:33:d3:6c:f8, 2015-01-01 03:44:27.590, 0.711, -0.119, 0.686, 0.305, 0.061, -0.061, -9.976, -45.747, 151.144, -18.480, -7.647, -28.593, 30.99, 0.26172, 0.35532, -0.17416, 0.88022,
 15:59:31.441,e3:ca:2d:fd:e0:8c, 2015-01-01 03:44:28.265, 0.948, -0.25, 0.289, -0.488, 0, 0.061, -41.039, -67.901, -157.05, -27.487, -6.920, -12.340, 28.43, -0.03674, -0.57053, 0.1799, -0.80042,
 15:59:31.441,e3:ca:2d:fd:e0:8c, 2015-01-01 03:44:28.265, 0.949, -0.252, 0.288, -0.183, -0.183, 0.061, -41.05, -67.906, -157.033, -27.487, -6.920, -12.340, 28.43, -0.03674, -0.57053, 0.1799, -0.80042,
 15:59:31.442,ed:40:fe:65:30:6c, 2015-01-01 03:44:27.525, 0.738, -0.147, 0.667, 0.061, 0, 0, -12.568, -47.098, -115.714, -22.867, -6.280, -3.327, 26.19, 0.44803, -0.38953, -0.1265, -0.79462,
 15:59:31.442,ed:40:fe:65:30:6c, 2015-01-01 03:44:27.525, 0.738, -0.146, 0.667, 0, 0, 0.061, -12.574, -47.098, -115.703, -22.867, -6.280, -3.327, 26.19, 0.44803, -0.38953, -0.1265, -0.79462,
 15:59:31.443,ed:35:33:d3:6c:f8, 2015-01-01 03:44:27.590, 0.711, -0.118, 0.685, 0.122, 0.122, -0.061, -9.965, -45.747, 151.139, -17.607, -7.647, -28.673, 30.99, 0.26172, 0.35532, -0.17416, 0.88022,
 15:59:31.443,ed:35:33:d3:6c:f8, 2015-01-01 03:44:27.590, 0.71, -0.118, 0.685, -0.122, 0.366, -0.061, -9.965, -45.742, 151.139, -17.607, -7.647, -28.673, 30.99, 0.26172, 0.35532, -0.17416, 0.88022,
 15:59:31.444,f6:90:cc:01:6d:25, 2015-01-01 03:44:26.845, 0.948, -0.208, 0.189, 0.549, -0.366, 0, -47.928, -73.482, -129.551, -30.400, -6.727, -5.020, 31.19, 0.09338, -0.63336, 0.05994, -0.76578,
 15:59:31.445,f6:90:cc:01:6d:25, 2015-01-01 03:44:26.845, 0.948, -0.208, 0.188, 0.61, -0.244, 0.061, -47.922, -73.488, -129.556, -30.400, -6.727, -5.020, 31.19, 0.09338, -0.63336, 0.05994, -0.76578,
 15:59:31.464,e3:ca:2d:fd:e0:8c, 2015-01-01 03:44:28.265, 0.949, -0.252, 0.29, 0, -0.122, 0.061, -41.061, -67.906, -157.017, -27.487, -6.920, -12.340, 28.43, -0.03723, -0.5705, 0.18088, -0.8002,
 15:59:31.464,e3:ca:2d:fd:e0:8c, 2015-01-01 03:44:28.265, 0.949, -0.251, 0.289, 0.122, -0.122, 0.061, -41.067, -67.912, -156.995, -27.487, -6.920, -12.340, 28.43, -0.03723, -0.5705, 0.18088, -0.8002,
 15:59:31.487,ed:40:fe:65:30:6c, 2015-01-01 03:44:27.525, 0.738, -0.145, 0.666, -0.183, -0.061, 0, -12.574, -47.098, -115.703, -22.867, -6.280, -3.327, 26.19, 0.44803, -0.38953, -0.1265, -0.79462,
 15:59:31.487,ed:40:fe:65:30:6c, 2015-01-01 03:44:27.525, 0.737, -0.145, 0.666, -0.366, -0.183, -0.122, -12.579, -47.104, -115.708, -22.867, -6.280, -3.327, 26.19, 0.44803, -0.38953, -0.1265, -0.79462,
 15:59:31.488,ed:35:33:d3:6c:f8, 2015-01-01 03:44:27.590, 0.71, -0.118, 0.684, -0.488, 0.61, -0.366, -9.965, -45.731, 151.15, -17.607, -7.647, -28.673, 30.99, 0.26172, 0.35532, -0.17416, 0.88022,
 15:59:31.488,ed:35:33:d3:6c:f8, 2015-01-01 03:44:27.590, 0.71, -0.117, 0.684, -0.671, 0.793, -0.488, -9.965, -45.72, 151.155, -17.607, -7.647, -28.673, 30.99, 0.26172, 0.35532, -0.17416, 0.88022,
 15:59:31.491,f6:90:cc:01:6d:25, 2015-01-01 03:44:26.845, 0.947, -0.205, 0.187, 0.488, -0.244, 0.183, -47.933, -73.488, -129.556, -30.400, -6.727, -5.020, 31.19, 0.09219, -0.63321, 0.06149, -0.76593,
 15:59:31.491,f6:90:cc:01:6d:25, 2015-01-01 03:44:26.845, 0.946, -0.204, 0.187, 0.366, -0.244, 0.427, -47.955, -73.482, -129.545, -30.400, -6.727, -5.020, 31.19, 0.09219, -0.63321, 0.06149, -0.76593,
 15:59:31.508,e3:ca:2d:fd:e0:8c, 2015-01-01 03:44:28.265, 0.948, -0.25, 0.288, 0.061, 0, 0.122, -41.072, -67.912, -156.978, -27.487, -6.920, -12.340, 28.43, -0.03723, -0.5705, 0.18088, -0.8002,
 15:59:31.508,e3:ca:2d:fd:e0:8c, 2015-01-01 03:44:28.265, 0.948, -0.25, 0.288, 0, 0, 0.244, -41.072, -67.912, -156.962, -27.487, -6.920, -12.340, 28.43, -0.03723, -0.5705, 0.18088, -0.8002,
 15:59:31.531,e3:ca:2d:fd:e0:8c, 2015-01-01 03:44:28.645, 0.948, -0.25, 0.289, -0.183, 0, 0.305, -41.083, -67.906, -156.94, -27.487, -6.920, -12.340, 28.43, -0.03723, -0.5705, 0.18088, -0.8002,
 15:59:31.531,e3:ca:2d:fd:e0:8c, 2015-01-01 03:44:28.645, 0.948, -0.252, 0.29, -0.122, 0, 0.305, -41.094, -67.906, -156.918, -27.487, -6.920, -12.340, 28.43, -0.03723, -0.5705, 0.18088, -0.8002,
 15:59:31.535,f6:90:cc:01:6d:25, 2015-01-01 03:44:27.160, 0.946, -0.205, 0.188, 0.305, -0.427, 0.549, -47.988, -73.482, -129.518, -30.400, -6.727, -5.020, 31.19, 0.09219, -0.63321, 0.06149, -0.76593,
 15:59:31.535,f6:90:cc:01:6d:25, 2015-01-01 03:44:27.160, 0.947, -0.207, 0.188, 0.244, -0.427, 0.61, -48.027, -73.482, -129.485, -30.400, -6.727, -5.020, 31.19, 0.09219, -0.63321, 0.06149, -0.76593,
 15:59:31.554,e3:ca:2d:fd:e0:8c, 2015-01-01 03:44:28.645, 0.947, -0.251, 0.29, 0, 0, 0.305, -41.105, -67.906, -156.896, -27.487, -6.920, -12.340, 28.43, -0.03723, -0.5705, 0.18088, -0.8002,
 15:59:31.554,e3:ca:2d:fd:e0:8c, 2015-01-01 03:44:28.645, 0.947, -0.25, 0.291, 0, 0.122, 0.183, -41.116, -67.901, -156.874, -27.487, -6.920, -12.340, 28.43, -0.03723, -0.5705, 0.18088, -0.8002,
 15:59:31.554,ed:40:fe:65:30:6c, 2015-01-01 03:44:27.525, 0.737, -0.146, 0.665, -0.549, -0.183, -0.061, -12.585, -47.109, -115.719, -22.867, -6.280, -3.327, 26.19, 0.44803, -0.38953, -0.1265, -0.79462,
 15:59:31.554,ed:40:fe:65:30:6c, 2015-01-01 03:44:27.525, 0.738, -0.15, 0.664, -0.61, -0.244, 0, -12.596, -47.115, -115.719, -22.867, -6.280, -3.327, 26.19, 0.44803, -0.38953, -0.1265, -0.79462,
 15:59:31.555,ed:35:33:d3:6c:f8, 2015-01-01 03:44:27.590, 0.71, -0.117, 0.683, -0.793, 0.732, -0.427, -9.965, -45.709, 151.161, -17.607, -7.647, -28.673, 30.99, 0.26126, 0.35489, -0.17389, 0.88062,
 15:59:31.555,ed:35:33:d3:6c:f8, 2015-01-01 03:44:27.590, 0.71, -0.118, 0.683, -0.61, 0.793, 0, -9.97, -45.692, 151.166, -17.607, -7.647, -28.673, 30.99, 0.26126, 0.35489, -0.17389, 0.88062,
 15:59:31.578,ed:35:33:d3:6c:f8, 2015-01-01 03:44:27.925, 0.708, -0.121, 0.682, -0.305, 0.549, 0.122, -9.976, -45.676, 151.177, -17.607, -7.647, -28.673, 30.99, 0.26126, 0.35489, -0.17389, 0.88062,
 15:59:31.578,ed:35:33:d3:6c:f8, 2015-01-01 03:44:27.925, 0.708, -0.127, 0.682, -0.061, 0.305, 0.244, -9.981, -45.665, 151.194, -17.607, -7.647, -28.673, 30.99, 0.26126, 0.35489, -0.17389, 0.88062,
 15:59:31.578,ed:40:fe:65:30:6c, 2015-01-01 03:44:27.525, 0.737, -0.152, 0.664, -0.427, -0.183, 0.122, -12.607, -47.12, -115.724, -22.520, -6.587, -3.120, 26.19, 0.44803, -0.38953, -0.1265, -0.79462,
 15:59:31.578,ed:40:fe:65:30:6c, 2015-01-01 03:44:27.525, 0.735, -0.154, 0.663, -0.183, -0.122, 0.122, -12.618, -47.126, -115.735, -22.520, -6.587, -3.120, 26.19, 0.44803, -0.38953, -0.1265, -0.79462,
 15:59:31.579,f6:90:cc:01:6d:25, 2015-01-01 03:44:27.160, 0.946, -0.209, 0.189, 0.061, -0.122, 0.427, -48.054, -73.477, -129.468, -30.400, -6.727, -5.020, 31.19, 0.09219, -0.63321, 0.06149, -0.76593,
 15:59:31.579,f6:90:cc:01:6d:25, 2015-01-01 03:44:27.160, 0.946, -0.208, 0.19, 0, -0.061, 0.305, -48.071, -73.471, -129.463, -30.400, -6.727, -5.020, 31.19, 0.09219, -0.63321, 0.06149, -0.76593,
 15:59:31.599,e3:ca:2d:fd:e0:8c, 2015-01-01 03:44:28.645, 0.948, -0.251, 0.292, 0, 0.122, 0.122, -41.116, -67.896, -156.857, -27.487, -6.920, -12.340, 28.43, -0.03723, -0.5705, 0.18088, -0.8002,
 15:59:31.599,e3:ca:2d:fd:e0:8c, 2015-01-01 03:44:28.645, 0.947, -0.25, 0.291, 0, 0, 0.061, -41.111, -67.896, -156.846, -27.487, -6.920, -12.340, 28.43, -0.03723, -0.5705, 0.18088, -0.8002,
 15:59:31.601,ed:35:33:d3:6c:f8, 2015-01-01 03:44:27.925, 0.708, -0.127, 0.682, -0.183, 0.549, 0, -9.987, -45.659, 151.199, -17.607, -7.647, -28.673, 30.99, 0.26126, 0.35489, -0.17389, 0.88062,
 15:59:31.601,ed:35:33:d3:6c:f8, 2015-01-01 03:44:27.925, 0.707, -0.123, 0.685, 0, 0.854, -0.122, -9.987, -45.648, 151.21, -17.607, -7.647, -28.673, 30.99, 0.26126, 0.35489, -0.17389, 0.88062,
 15:59:31.601,f6:90:cc:01:6d:25, 2015-01-01 03:44:27.160, 0.946, -0.208, 0.191, 0.061, 0, 0.122, -48.082, -73.466, -129.468, -30.400, -6.727, -5.020, 31.19, 0.09219, -0.63321, 0.06149, -0.76593,
 15:59:31.601,f6:90:cc:01:6d:25, 2015-01-01 03:44:27.160, 0.946, -0.207, 0.19, 0.122, 0, 0.061, -48.082, -73.466, -129.485, -30.400, -6.727, -5.020, 31.19, 0.09219, -0.63321, 0.06149, -0.76593,
 15:59:31.643,e3:ca:2d:fd:e0:8c, 2015-01-01 03:44:28.645, 0.947, -0.25, 0.292, 0, 0, 0.122, -41.111, -67.896, -156.835, -27.487, -6.920, -12.340, 28.43, -0.03723, -0.5705, 0.18088, -0.8002,
 15:59:31.643,e3:ca:2d:fd:e0:8c, 2015-01-01 03:44:28.645, 0.947, -0.252, 0.291, 0.061, 0.061, 0.183, -41.116, -67.896, -156.819, -27.487, -6.920, -12.340, 28.43, -0.03723, -0.5705, 0.18088, -0.8002,
 15:59:31.645,ed:40:fe:65:30:6c, 2015-01-01 03:44:27.525, 0.736, -0.156, 0.664, 0.061, -0.061, 0, -12.623, -47.126, -115.735, -22.520, -6.587, -3.120, 26.19, 0.44803, -0.38953, -0.1265, -0.79462,
 15:59:31.645,ed:40:fe:65:30:6c, 2015-01-01 03:44:27.525, 0.736, -0.153, 0.665, 0.305, 0.061, -0.122, -12.618, -47.131, -115.752, -22.520, -6.587, -3.120, 26.19, 0.44803, -0.38953, -0.1265, -0.79462,
 15:59:31.646,ed:35:33:d3:6c:f8, 2015-01-01 03:44:27.925, 0.707, -0.119, 0.686, 0.122, 0.671, -0.305, -9.981, -45.632, 151.205, -17.607, -7.647, -28.673, 30.99, 0.26126, 0.35489, -0.17389, 0.88062,
 15:59:31.646,ed:35:33:d3:6c:f8, 2015-01-01 03:44:27.925, 0.708, -0.118, 0.687, 0.244, 0.427, -0.183, -9.97, -45.621, 151.199, -17.607, -7.647, -28.673, 30.99, 0.26126, 0.35489, -0.17389, 0.88062,
 15:59:31.648,f6:90:cc:01:6d:25, 2015-01-01 03:44:27.160, 0.946, -0.208, 0.191, 0.305, 0.122, 0.061, -48.071, -73.466, -129.501, -30.400, -6.727, -5.020, 31.19, 0.09219, -0.63321, 0.06149, -0.76593,
 15:59:31.648,f6:90:cc:01:6d:25, 2015-01-01 03:44:27.160, 0.946, -0.209, 0.19, 0.366, 0, 0.061, -48.054, -73.466, -129.523, -30.400, -6.727, -5.020, 31.19, 0.09219, -0.63321, 0.06149, -0.76593,
 15:59:31.666,ed:40:fe:65:30:6c, 2015-01-01 03:44:27.525, 0.735, -0.149, 0.665, 0.427, 0, -0.183, -12.612, -47.131, -115.763, -22.520, -6.587, -3.120, 26.19, 0.44714, -0.39011, -0.12598, -0.79492,
 15:59:31.666,ed:40:fe:65:30:6c, 2015-01-01 03:44:27.525, 0.735, -0.149, 0.666, 0.488, 0.061, -0.122, -12.601, -47.131, -115.763, -22.520, -6.587, -3.120, 26.19, 0.44714, -0.39011, -0.12598, -0.79492,
 15:59:31.690,ed:35:33:d3:6c:f8, 2015-01-01 03:44:27.925, 0.708, -0.116, 0.689, 0.183, 0.488, -0.122, -9.965, -45.61, 151.216, -17.607, -7.647, -28.673, 30.99, 0.26126, 0.35489, -0.17389, 0.88062,
 15:59:31.690,ed:35:33:d3:6c:f8, 2015-01-01 03:44:27.925, 0.707, -0.119, 0.689, -0.183, 0.61, 0, -9.959, -45.599, 151.243, -17.607, -7.647, -28.673, 30.99, 0.26126, 0.35489, -0.17389, 0.88062,
 15:59:31.692,f6:90:cc:01:6d:25, 2015-01-01 03:44:27.160, 0.947, -0.209, 0.191, 0.366, 0, 0.122, -48.043, -73.46, -129.534, -30.400, -6.727, -5.020, 31.19, 0.09219, -0.63321, 0.06149, -0.76593,
 15:59:31.692,f6:90:cc:01:6d:25, 2015-01-01 03:44:27.160, 0.947, -0.207, 0.19, 0.244, 0, 0.183, -48.038, -73.46, -129.545, -30.400, -6.727, -5.020, 31.19, 0.09219, -0.63321, 0.06149, -0.76593,
 15:59:31.711,e3:ca:2d:fd:e0:8c, 2015-01-01 03:44:28.645, 0.948, -0.253, 0.291, 0.244, 0.061, 0.244, -41.111, -67.89, -156.802, -27.487, -6.920, -12.340, 28.43, -0.03723, -0.5705, 0.18088, -0.8002,
 15:59:31.711,e3:ca:2d:fd:e0:8c, 2015-01-01 03:44:28.645, 0.948, -0.253, 0.291, 0.244, -0.061, 0.244, -41.116, -67.89, -156.786, -27.487, -6.920, -12.340, 28.43, -0.03723, -0.5705, 0.18088, -0.8002,
 15:59:31.713,ed:40:fe:65:30:6c, 2015-01-01 03:44:27.525, 0.736, -0.148, 0.667, 0.427, 0.061, 0, -12.59, -47.131, -115.768, -22.520, -6.587, -3.120, 26.19, 0.44714, -0.39011, -0.12598, -0.79492,
 15:59:31.713,ed:40:fe:65:30:6c, 2015-01-01 03:44:27.525, 0.736, -0.146, 0.668, 0.366, 0, 0.183, -12.585, -47.131, -115.779, -22.520, -6.587, -3.120, 26.19, 0.44714, -0.39011, -0.12598, -0.79492,
 15:59:31.733,e3:ca:2d:fd:e0:8c, 2015-01-01 03:44:28.645, 0.947, -0.25, 0.29, 0.061, -0.183, 0.244, -41.116, -67.885, -156.764, -27.373, -6.407, -12.093, 28.43, -0.03723, -0.5705, 0.18088, -0.8002,
 15:59:31.733,e3:ca:2d:fd:e0:8c, 2015-01-01 03:44:28.645, 0.946, -0.25, 0.29, -0.122, -0.366, 0.183, -41.133, -67.89, -156.736, -27.373, -6.407, -12.093, 28.43, -0.03723, -0.5705, 0.18088, -0.8002,
 15:59:31.734,ed:40:fe:65:30:6c, 2015-01-01 03:44:27.885, 0.736, -0.147, 0.668, 0, 0, 0.122, -12.585, -47.131, -115.779, -22.520, -6.587, -3.120, 26.19, 0.44714, -0.39011, -0.12598, -0.79492,
 15:59:31.734,ed:40:fe:65:30:6c, 2015-01-01 03:44:27.885, 0.736, -0.15, 0.666, -0.183, 0.061, -0.122, -12.59, -47.131, -115.779, -22.520, -6.587, -3.120, 26.19, 0.44714, -0.39011, -0.12598, -0.79492,
 15:59:31.737,f6:90:cc:01:6d:25, 2015-01-01 03:44:27.160, 0.946, -0.206, 0.19, 0, -0.122, 0.244, -48.038, -73.455, -129.556, -30.567, -6.773, -5.387, 31.19, 0.09219, -0.63321, 0.06149, -0.76593,
 15:59:31.737,f6:90:cc:01:6d:25, 2015-01-01 03:44:27.160, 0.945, -0.207, 0.188, 0, -0.244, 0.244, -48.054, -73.455, -129.551, -30.567, -6.773, -5.387, 31.19, 0.09219, -0.63321, 0.06149, -0.76593,
 15:59:31.757,ed:40:fe:65:30:6c, 2015-01-01 03:44:27.885, 0.735, -0.153, 0.665, -0.061, 0.122, -0.427, -12.585, -47.131, -115.779, -22.520, -6.587, -3.120, 26.19, 0.44714, -0.39011, -0.12598, -0.79492,
 15:59:31.757,ed:40:fe:65:30:6c, 2015-01-01 03:44:27.885, 0.734, -0.154, 0.662, -0.122, 0, -0.671, -12.579, -47.131, -115.79, -22.520, -6.587, -3.120, 26.19, 0.44714, -0.39011, -0.12598, -0.79492,
 15:59:31.759,ed:35:33:d3:6c:f8, 2015-01-01 03:44:27.925, 0.708, -0.123, 0.687, -0.427, 0.427, 0, -9.959, -45.588, 151.249, -17.607, -7.647, -28.673, 30.99, 0.26126, 0.35489, -0.17389, 0.88062,
 15:59:31.759,ed:35:33:d3:6c:f8, 2015-01-01 03:44:27.925, 0.707, -0.126, 0.684, -0.183, 0.244, -0.061, -9.965, -45.577, 151.254, -17.607, -7.647, -28.673, 30.99, 0.26126, 0.35489, -0.17389, 0.88062,
 15:59:31.760,f6:90:cc:01:6d:25, 2015-01-01 03:44:27.160, 0.945, -0.209, 0.189, 0, -0.305, 0.122, -48.071, -73.455, -129.545, -30.567, -6.773, -5.387, 31.19, 0.09158, -0.63318, 0.06256, -0.76596,
 15:59:31.760,f6:90:cc:01:6d:25, 2015-01-01 03:44:27.160, 0.945, -0.209, 0.188, -0.061, -0.061, 0, -48.076, -73.455, -129.545, -30.567, -6.773, -5.387, 31.19, 0.09158, -0.63318, 0.06256, -0.76596,
 15:59:31.778,e3:ca:2d:fd:e0:8c, 2015-01-01 03:44:28.645, 0.947, -0.251, 0.29, -0.366, -0.549, 0.122, -41.149, -67.89, -156.703, -27.373, -6.407, -12.093, 28.43, -0.03723, -0.5705, 0.18088, -0.8002,
 15:59:31.778,e3:ca:2d:fd:e0:8c, 2015-01-01 03:44:28.645, 0.946, -0.252, 0.289, -0.305, -0.549, 0, -41.177, -67.901, -156.671, -27.373, -6.407, -12.093, 28.43, -0.03723, -0.5705, 0.18088, -0.8002,
 15:59:31.781,ed:35:33:d3:6c:f8, 2015-01-01 03:44:27.925, 0.706, -0.126, 0.684, -0.061, 0.427, -0.183, -9.965, -45.571, 151.265, -17.993, -7.840, -28.773, 30.99, 0.26126, 0.35489, -0.17389, 0.88062,
 15:59:31.781,ed:35:33:d3:6c:f8, 2015-01-01 03:44:27.925, 0.707, -0.126, 0.685, 0, 0.305, -0.488, -9.965, -45.566, 151.265, -17.993, -7.840, -28.773, 30.99, 0.26126, 0.35489, -0.17389, 0.88062,
 15:59:31.801,e3:ca:2d:fd:e0:8c, 2015-01-01 03:44:28.645, 0.947, -0.253, 0.29, -0.427, -0.305, -0.061, -41.193, -67.906, -156.643, -27.373, -6.407, -12.093, 28.43, -0.03531, -0.57101, 0.17996, -0.80011,
 15:59:31.801,e3:ca:2d:fd:e0:8c, 2015-01-01 03:44:28.645, 0.949, -0.252, 0.291, -0.549, -0.061, -0.122, -41.204, -67.912, -156.632, -27.373, -6.407, -12.093, 28.43, -0.03531, -0.57101, 0.17996, -0.80011,
 15:59:31.802,ed:40:fe:65:30:6c, 2015-01-01 03:44:27.885, 0.737, -0.15, 0.665, -0.305, 0.061, -0.732, -12.568, -47.137, -115.807, -22.520, -6.587, -3.120, 26.19, 0.44714, -0.39011, -0.12598, -0.79492,
 15:59:31.802,ed:40:fe:65:30:6c, 2015-01-01 03:44:27.885, 0.738, -0.148, 0.668, -0.305, 0.122, -0.671, -12.563, -47.137, -115.823, -22.520, -6.587, -3.120, 26.19, 0.44714, -0.39011, -0.12598, -0.79492,
 15:59:31.805,f6:90:cc:01:6d:25, 2015-01-01 03:44:27.160, 0.947, -0.209, 0.188, -0.427, 0.061, 0, -48.076, -73.455, -129.562, -30.567, -6.773, -5.387, 31.19, 0.09158, -0.63318, 0.06256, -0.76596,
 15:59:31.805,f6:90:cc:01:6d:25, 2015-01-01 03:44:27.160, 0.949, -0.209, 0.19, -0.488, 0.061, 0, -48.082, -73.455, -129.584, -30.567, -6.773, -5.387, 31.19, 0.09158, -0.63318, 0.06256, -0.76596,
 15:59:31.827,ed:35:33:d3:6c:f8, 2015-01-01 03:44:27.925, 0.708, -0.12, 0.686, -0.549, 0.183, -1.16, -9.954, -45.56, 151.249, -17.993, -7.840, -28.773, 30.99, 0.26126, 0.35489, -0.17389, 0.88062,
 15:59:31.827,ed:35:33:d3:6c:f8, 2015-01-01 03:44:27.925, 0.711, -0.12, 0.689, -0.305, 0.061, -1.221, -9.943, -45.56, 151.21, -17.993, -7.840, -28.773, 30.99, 0.26126, 0.35489, -0.17389, 0.88062,
 15:59:31.846,e3:ca:2d:fd:e0:8c, 2015-01-01 03:44:28.645, 0.951, -0.254, 0.29, -0.549, -0.061, -0.061, -41.21, -67.917, -156.621, -27.373, -6.407, -12.093, 28.43, -0.03531, -0.57101, 0.17996, -0.80011,
 15:59:31.846,e3:ca:2d:fd:e0:8c, 2015-01-01 03:44:28.645, 0.948, -0.256, 0.287, -0.305, -0.061, -0.122, -41.221, -67.917, -156.616, -27.373, -6.407, -12.093, 28.43, -0.03531, -0.57101, 0.17996, -0.80011,
 15:59:31.847,ed:40:fe:65:30:6c, 2015-01-01 03:44:27.885, 0.741, -0.153, 0.667, 0, 0.061, -0.549, -12.552, -47.137, -115.862, -22.520, -6.587, -3.120, 26.19, 0.44714, -0.39011, -0.12598, -0.79492,
 15:59:31.847,ed:40:fe:65:30:6c, 2015-01-01 03:44:27.885, 0.736, -0.154, 0.667, 0.183, 0.183, -0.305, -12.546, -47.137, -115.895, -22.520, -6.587, -3.120, 26.19, 0.44714, -0.39011, -0.12598, -0.79492,
 15:59:31.848,ed:35:33:d3:6c:f8, 2015-01-01 03:44:27.925, 0.711, -0.119, 0.686, 0.061, 0.427, -0.61, -9.926, -45.56, 151.166, -17.993, -7.840, -28.773, 30.99, 0.26105, 0.35373, -0.17328, 0.88123,
 15:59:31.848,ed:35:33:d3:6c:f8, 2015-01-01 03:44:27.925, 0.706, -0.125, 0.688, 0.122, 0.183, 0.061, -9.915, -45.549, 151.15, -17.993, -7.840, -28.773, 30.99, 0.26105, 0.35373, -0.17328, 0.88123,
 15:59:31.849,f6:90:cc:01:6d:25, 2015-01-01 03:44:27.450, 0.947, -0.212, 0.189, -0.305, 0.122, -0.122, -48.082, -73.455, -129.606, -30.567, -6.773, -5.387, 31.19, 0.09158, -0.63318, 0.06256, -0.76596,
 15:59:31.849,f6:90:cc:01:6d:25, 2015-01-01 03:44:27.450, 0.947, -0.211, 0.188, 0, 0, -0.183, -48.071, -73.455, -129.633, -30.567, -6.773, -5.387, 31.19, 0.09158, -0.63318, 0.06256, -0.76596,
 15:59:31.895,ed:35:33:d3:6c:f8, 2015-01-01 03:44:27.925, 0.708, -0.124, 0.69, -0.122, 0.366, -0.183, -9.915, -45.544, 151.161, -17.993, -7.840, -28.773, 30.99, 0.26105, 0.35373, -0.17328, 0.88123,
 15:59:31.895,ed:35:33:d3:6c:f8, 2015-01-01 03:44:27.925, 0.706, -0.116, 0.689, -0.122, 0.183, -0.305, -9.915, -45.538, 151.155, -17.993, -7.840, -28.773, 30.99, 0.26105, 0.35373, -0.17328, 0.88123,
 15:59:31.895,f6:90:cc:01:6d:25, 2015-01-01 03:44:27.450, 0.947, -0.209, 0.187, 0.061, -0.061, -0.122, -48.06, -73.455, -129.655, -30.567, -6.773, -5.387, 31.19, 0.09158, -0.63318, 0.06256, -0.76596,
 15:59:31.895,f6:90:cc:01:6d:25, 2015-01-01 03:44:27.450, 0.946, -0.207, 0.185, 0, 0, -0.122, -48.054, -73.455, -129.677, -30.567, -6.773, -5.387, 31.19, 0.09158, -0.63318, 0.06256, -0.76596,
 15:59:31.914,e3:ca:2d:fd:e0:8c, 2015-01-01 03:44:28.980, 0.949, -0.255, 0.287, -0.061, -0.122, -0.122, -41.221, -67.917, -156.61, -27.373, -6.407, -12.093, 28.43, -0.03531, -0.57101, 0.17996, -0.80011,
 15:59:31.914,e3:ca:2d:fd:e0:8c, 2015-01-01 03:44:28.980, 0.949, -0.252, 0.287, 0, -0.244, -0.122, -41.221, -67.923, -156.599, -27.373, -6.407, -12.093, 28.43, -0.03531, -0.57101, 0.17996, -0.80011,
 15:59:31.916,ed:40:fe:65:30:6c, 2015-01-01 03:44:27.885, 0.737, -0.152, 0.668, 0.244, 0.122, -0.366, -12.535, -47.137, -115.917, -22.520, -6.587, -3.120, 26.19, 0.44714, -0.39011, -0.12598, -0.79492,
 15:59:31.916,ed:40:fe:65:30:6c, 2015-01-01 03:44:27.885, 0.738, -0.147, 0.667, 0.061, 0, -0.488, -12.524, -47.137, -115.944, -22.520, -6.587, -3.120, 26.19, 0.44714, -0.39011, -0.12598, -0.79492,
 15:59:31.936,e3:ca:2d:fd:e0:8c, 2015-01-01 03:44:28.980, 0.948, -0.251, 0.283, 0, -0.061, -0.061, -41.226, -67.928, -156.588, -27.373, -6.407, -12.093, 28.43, -0.03531, -0.57101, 0.17996, -0.80011,
 15:59:31.936,e3:ca:2d:fd:e0:8c, 2015-01-01 03:44:28.980, 0.95, -0.25, 0.284, 0.122, 0, 0, -41.226, -67.928, -156.577, -27.373, -6.407, -12.093, 28.43, -0.03531, -0.57101, 0.17996, -0.80011,
 15:59:31.937,ed:40:fe:65:30:6c, 2015-01-01 03:44:27.885, 0.738, -0.145, 0.665, 0, -0.183, -0.366, -12.519, -47.142, -115.972, -22.633, -6.527, -3.227, 26.19, 0.44714, -0.39011, -0.12598, -0.79492,
 15:59:31.937,ed:40:fe:65:30:6c, 2015-01-01 03:44:27.885, 0.739, -0.144, 0.664, -0.061, -0.427, -0.366, -12.519, -47.153, -115.994, -22.633, -6.527, -3.227, 26.19, 0.44714, -0.39011, -0.12598, -0.79492,
 15:59:31.938,ed:35:33:d3:6c:f8, 2015-01-01 03:44:28.260, 0.708, -0.116, 0.687, -0.244, 0, -0.183, -9.915, -45.538, 151.155, -17.993, -7.840, -28.773, 30.99, 0.26105, 0.35373, -0.17328, 0.88123,
 15:59:31.938,ed:35:33:d3:6c:f8, 2015-01-01 03:44:28.260, 0.709, -0.116, 0.686, -0.488, 0.183, -0.549, -9.915, -45.533, 151.15, -17.993, -7.840, -28.773, 30.99, 0.26105, 0.35373, -0.17328, 0.88123,
 15:59:31.939,f6:90:cc:01:6d:25, 2015-01-01 03:44:27.450, 0.947, -0.205, 0.183, 0.061, -0.122, 0, -48.054, -73.46, -129.694, -30.567, -6.773, -5.387, 31.19, 0.09158, -0.63318, 0.06256, -0.76596,
 15:59:31.939,f6:90:cc:01:6d:25, 2015-01-01 03:44:27.450, 0.949, -0.205, 0.187, 0.122, -0.305, 0.061, -48.065, -73.46, -129.694, -30.567, -6.773, -5.387, 31.19, 0.09158, -0.63318, 0.06256, -0.76596,
 15:59:31.959,e3:ca:2d:fd:e0:8c, 2015-01-01 03:44:28.980, 0.951, -0.25, 0.289, 0.061, 0.061, 0.122, -41.226, -67.934, -156.572, -27.373, -6.407, -12.093, 28.43, -0.03531, -0.57101, 0.17996, -0.80011,
 15:59:31.959,e3:ca:2d:fd:e0:8c, 2015-01-01 03:44:28.980, 0.95, -0.251, 0.289, 0, 0, 0.122, -41.226, -67.928, -156.561, -27.373, -6.407, -12.093, 28.43, -0.03531, -0.57101, 0.17996, -0.80011,
 15:59:31.961,ed:35:33:d3:6c:f8, 2015-01-01 03:44:28.260, 0.71, -0.118, 0.684, -0.732, 0.305, -0.488, -9.915, -45.533, 151.133, -17.993, -7.840, -28.773, 30.99, 0.26105, 0.35373, -0.17328, 0.88123,
 15:59:31.961,ed:35:33:d3:6c:f8, 2015-01-01 03:44:28.260, 0.71, -0.12, 0.685, -0.977, 0.61, -0.366, -9.921, -45.522, 151.117, -17.993, -7.840, -28.773, 30.99, 0.26105, 0.35373, -0.17328, 0.88123,
 15:59:31.964,f6:90:cc:01:6d:25, 2015-01-01 03:44:27.450, 0.949, -0.207, 0.189, -0.122, -0.183, 0, -48.076, -73.466, -129.694, -30.567, -6.773, -5.387, 31.19, 0.09158, -0.63318, 0.06256, -0.76596,
 15:59:31.964,f6:90:cc:01:6d:25, 2015-01-01 03:44:27.450, 0.948, -0.21, 0.188, -0.244, -0.183, -0.122, -48.087, -73.471, -129.705, -30.567, -6.773, -5.387, 31.19, 0.09158, -0.63318, 0.06256, -0.76596,
 15:59:31.982,ed:40:fe:65:30:6c, 2015-01-01 03:44:27.885, 0.741, -0.146, 0.664, -0.183, -0.61, -0.366, -12.513, -47.164, -116.01, -22.633, -6.527, -3.227, 26.19, 0.44714, -0.39011, -0.12598, -0.79492,
 15:59:31.982,ed:40:fe:65:30:6c, 2015-01-01 03:44:27.885, 0.74, -0.149, 0.665, -0.427, -0.549, -0.244, -12.519, -47.181, -116.027, -22.633, -6.527, -3.227, 26.19, 0.44714, -0.39011, -0.12598, -0.79492,
 15:59:32.004,e3:ca:2d:fd:e0:8c, 2015-01-01 03:44:28.980, 0.948, -0.253, 0.29, 0, 0, 0, -41.232, -67.934, -156.544, -27.373, -6.407, -12.093, 28.43, -0.03531, -0.57101, 0.17996, -0.80011,
 15:59:32.004,e3:ca:2d:fd:e0:8c, 2015-01-01 03:44:28.980, 0.946, -0.254, 0.29, 0, 0, -0.061, -41.226, -67.934, -156.539, -27.373, -6.407, -12.093, 28.43, -0.03531, -0.57101, 0.17996, -0.80011,
 15:59:32.005,ed:40:fe:65:30:6c, 2015-01-01 03:44:27.885, 0.739, -0.151, 0.664, -0.305, -0.244, -0.122, -12.524, -47.186, -116.043, -22.633, -6.527, -3.227, 26.19, 0.4454, -0.39038, -0.12589, -0.79578,
 15:59:32.005,ed:40:fe:65:30:6c, 2015-01-01 03:44:27.885, 0.736, -0.153, 0.664, 0, 0, 0, -12.53, -47.186, -116.054, -22.633, -6.527, -3.227, 26.19, 0.4454, -0.39038, -0.12589, -0.79578,
 15:59:32.006,ed:35:33:d3:6c:f8, 2015-01-01 03:44:28.260, 0.707, -0.122, 0.685, -0.793, 0.427, 0, -9.932, -45.511, 151.111, -17.993, -7.840, -28.773, 30.99, 0.26105, 0.35373, -0.17328, 0.88123,
 15:59:32.006,ed:35:33:d3:6c:f8, 2015-01-01 03:44:28.260, 0.706, -0.123, 0.687, -0.244, 0, 0.061, -9.943, -45.505, 151.106, -17.993, -7.840, -28.773, 30.99, 0.26105, 0.35373, -0.17328, 0.88123,
 15:59:32.007,f6:90:cc:01:6d:25, 2015-01-01 03:44:27.450, 0.946, -0.211, 0.189, -0.244, -0.183, -0.244, -48.093, -73.477, -129.721, -30.567, -6.773, -5.387, 31.19, 0.09158, -0.63318, 0.06256, -0.76596,
 15:59:32.007,f6:90:cc:01:6d:25, 2015-01-01 03:44:27.450, 0.945, -0.21, 0.19, 0, -0.122, -0.366, -48.087, -73.482, -129.738, -30.567, -6.773, -5.387, 31.19, 0.09158, -0.63318, 0.06256, -0.76596,
 15:59:32.050,e3:ca:2d:fd:e0:8c, 2015-01-01 03:44:28.980, 0.946, -0.253, 0.292, 0.122, 0, -0.122, -41.226, -67.934, -156.533, -27.373, -6.407, -12.093, 28.43, -0.03531, -0.57101, 0.17996, -0.80011,
 15:59:32.050,e3:ca:2d:fd:e0:8c, 2015-01-01 03:44:28.980, 0.947, -0.25, 0.292, 0.244, 0, -0.122, -41.215, -67.939, -156.533, -27.373, -6.407, -12.093, 28.43, -0.03531, -0.57101, 0.17996, -0.80011,
 15:59:32.050,ed:40:fe:65:30:6c, 2015-01-01 03:44:27.885, 0.734, -0.151, 0.666, 0.305, 0, 0, -12.524, -47.192, -116.071, -22.633, -6.527, -3.227, 26.19, 0.4454, -0.39038, -0.12589, -0.79578,
 15:59:32.050,ed:40:fe:65:30:6c, 2015-01-01 03:44:27.885, 0.736, -0.149, 0.664, 0.366, 0.061, 0, -12.519, -47.192, -116.082, -22.633, -6.527, -3.227, 26.19, 0.4454, -0.39038, -0.12589, -0.79578,
 15:59:32.051,ed:35:33:d3:6c:f8, 2015-01-01 03:44:28.260, 0.703, -0.123, 0.688, -0.061, -0.183, 0.122, -9.948, -45.505, 151.106, -17.993, -7.840, -28.773, 30.99, 0.26105, 0.35373, -0.17328, 0.88123,
 15:59:32.051,ed:35:33:d3:6c:f8, 2015-01-01 03:44:28.260, 0.707, -0.121, 0.684, 0.122, -0.183, -0.122, -9.948, -45.511, 151.106, -17.993, -7.840, -28.773, 30.99, 0.26105, 0.35373, -0.17328, 0.88123,
 15:59:32.052,f6:90:cc:01:6d:25, 2015-01-01 03:44:27.450, 0.945, -0.208, 0.19, 0, -0.061, -0.366, -48.071, -73.488, -129.765, -30.673, -6.627, -4.893, 31.19, 0.09158, -0.63318, 0.06256, -0.76596,
 15:59:32.052,f6:90:cc:01:6d:25, 2015-01-01 03:44:27.450, 0.945, -0.204, 0.191, 0, 0, -0.366, -48.054, -73.493, -129.798, -30.673, -6.627, -4.893, 31.19, 0.09158, -0.63318, 0.06256, -0.76596,
 15:59:32.071,e3:ca:2d:fd:e0:8c, 2015-01-01 03:44:28.980, 0.947, -0.247, 0.291, 0.244, 0.122, 0, -41.204, -67.939, -156.528, -27.440, -6.560, -12.047, 28.43, -0.03531, -0.57101, 0.17996, -0.80011,
 15:59:32.071,e3:ca:2d:fd:e0:8c, 2015-01-01 03:44:28.980, 0.947, -0.248, 0.291, 0, 0.122, 0, -41.193, -67.934, -156.522, -27.440, -6.560, -12.047, 28.43, -0.03531, -0.57101, 0.17996, -0.80011,
 15:59:32.097,f6:90:cc:01:6d:25, 2015-01-01 03:44:27.450, 0.945, -0.202, 0.19, 0, 0.183, -0.122, -48.032, -73.493, -129.831, -30.673, -6.627, -4.893, 31.19, 0.08972, -0.63321, 0.06366, -0.76605,
 15:59:32.097,f6:90:cc:01:6d:25, 2015-01-01 03:44:27.450, 0.946, -0.206, 0.191, -0.122, 0.061, 0, -48.021, -73.493, -129.853, -30.673, -6.627, -4.893, 31.19, 0.08972, -0.63321, 0.06366, -0.76605,
 15:59:32.115,e3:ca:2d:fd:e0:8c, 2015-01-01 03:44:28.980, 0.947, -0.252, 0.291, -0.183, 0.061, 0, -41.188, -67.934, -156.517, -27.440, -6.560, -12.047, 28.43, -0.03531, -0.57101, 0.17996, -0.80011,
 15:59:32.115,e3:ca:2d:fd:e0:8c, 2015-01-01 03:44:28.980, 0.948, -0.254, 0.289, -0.122, 0.061, 0, -41.188, -67.934, -156.511, -27.440, -6.560, -12.047, 28.43, -0.03531, -0.57101, 0.17996, -0.80011,
 15:59:32.116,ed:40:fe:65:30:6c, 2015-01-01 03:44:28.220, 0.737, -0.145, 0.662, 0.244, 0, -0.122, -12.513, -47.192, -116.098, -22.633, -6.527, -3.227, 26.19, 0.4454, -0.39038, -0.12589, -0.79578,
 15:59:32.116,ed:40:fe:65:30:6c, 2015-01-01 03:44:28.220, 0.737, -0.143, 0.664, 0.183, 0.122, -0.427, -12.502, -47.192, -116.12, -22.633, -6.527, -3.227, 26.19, 0.4454, -0.39038, -0.12589, -0.79578,
 15:59:32.119,ed:35:33:d3:6c:f8, 2015-01-01 03:44:28.260, 0.707, -0.118, 0.681, 0, 0, -0.366, -9.948, -45.511, 151.095, -17.993, -7.840, -28.773, 30.99, 0.26105, 0.35373, -0.17328, 0.88123,
 15:59:32.119,ed:35:33:d3:6c:f8, 2015-01-01 03:44:28.260, 0.708, -0.12, 0.684, 0.305, -0.183, -0.671, -9.937, -45.516, 151.073, -17.993, -7.840, -28.773, 30.99, 0.26105, 0.35373, -0.17328, 0.88123,
 15:59:32.139,ed:40:fe:65:30:6c, 2015-01-01 03:44:28.220, 0.738, -0.148, 0.665, 0.305, 0.305, -0.549, -12.486, -47.192, -116.147, -22.633, -6.527, -3.227, 26.19, 0.4454, -0.39038, -0.12589, -0.79578,
 15:59:32.139,ed:40:fe:65:30:6c, 2015-01-01 03:44:28.220, 0.736, -0.15, 0.666, 0.427, 0.488, -0.488, -12.469, -47.186, -116.175, -22.633, -6.527, -3.227, 26.19, 0.4454, -0.39038, -0.12589, -0.79578,
 15:59:32.140,ed:35:33:d3:6c:f8, 2015-01-01 03:44:28.260, 0.707, -0.119, 0.684, 0.916, 0.061, -0.366, -9.915, -45.516, 151.051, -17.880, -7.700, -29.053, 30.99, 0.26105, 0.35373, -0.17328, 0.88123,
 15:59:32.140,ed:35:33:d3:6c:f8, 2015-01-01 03:44:28.260, 0.706, -0.123, 0.688, 0.916, -0.122, -0.183, -9.893, -45.516, 151.04, -17.880, -7.700, -29.053, 30.99, 0.26105, 0.35373, -0.17328, 0.88123,
 15:59:32.141,f6:90:cc:01:6d:25, 2015-01-01 03:44:27.760, 0.946, -0.21, 0.189, -0.183, 0.183, 0, -48.01, -73.493, -129.875, -30.673, -6.627, -4.893, 31.19, 0.08972, -0.63321, 0.06366, -0.76605,
 15:59:32.141,f6:90:cc:01:6d:25, 2015-01-01 03:44:27.760, 0.947, -0.209, 0.188, -0.183, 0.122, 0, -47.999, -73.488, -129.897, -30.673, -6.627, -4.893, 31.19, 0.08972, -0.63321, 0.06366, -0.76605,
 15:59:32.161,ed:40:fe:65:30:6c, 2015-01-01 03:44:28.220, 0.736, -0.148, 0.668, 0.427, 0.427, -0.488, -12.448, -47.181, -116.208, -22.633, -6.527, -3.227, 26.19, 0.4454, -0.39038, -0.12589, -0.79578,
 15:59:32.161,ed:40:fe:65:30:6c, 2015-01-01 03:44:28.220, 0.738, -0.144, 0.668, 0.061, 0.305, -0.549, -12.437, -47.175, -116.235, -22.633, -6.527, -3.227, 26.19, 0.4454, -0.39038, -0.12589, -0.79578,
 15:59:32.165,f6:90:cc:01:6d:25, 2015-01-01 03:44:27.760, 0.948, -0.206, 0.189, -0.183, 0, 0, -47.994, -73.488, -129.913, -30.673, -6.627, -4.893, 31.19, 0.08972, -0.63321, 0.06366, -0.76605,
 15:59:32.165,f6:90:cc:01:6d:25, 2015-01-01 03:44:27.760, 0.948, -0.204, 0.189, -0.244, 0, -0.061, -47.994, -73.488, -129.924, -30.673, -6.627, -4.893, 31.19, 0.08972, -0.63321, 0.06366, -0.76605,
 15:59:32.184,e3:ca:2d:fd:e0:8c, 2015-01-01 03:44:28.980, 0.949, -0.251, 0.29, -0.061, 0, 0, -41.182, -67.934, -156.506, -27.440, -6.560, -12.047, 28.43, -0.03445, -0.57141, 0.17917, -0.80005,
 15:59:32.184,e3:ca:2d:fd:e0:8c, 2015-01-01 03:44:28.980, 0.95, -0.249, 0.289, -0.061, 0, 0, -41.182, -67.934, -156.5, -27.440, -6.560, -12.047, 28.43, -0.03445, -0.57141, 0.17917, -0.80005,
 15:59:32.187,ed:35:33:d3:6c:f8, 2015-01-01 03:44:28.260, 0.707, -0.12, 0.691, 0.488, 0.061, -0.488, -9.871, -45.522, 151.029, -17.880, -7.700, -29.053, 30.99, 0.26105, 0.35373, -0.17328, 0.88123,
 15:59:32.187,ed:35:33:d3:6c:f8, 2015-01-01 03:44:28.260, 0.707, -0.115, 0.691, 0, 0.183, -0.793, -9.855, -45.516, 151.035, -17.880, -7.700, -29.053, 30.99, 0.26105, 0.35373, -0.17328, 0.88123,
 15:59:32.206,e3:ca:2d:fd:e0:8c, 2015-01-01 03:44:29.315, 0.95, -0.249, 0.288, 0, -0.122, 0, -41.182, -67.934, -156.489, -27.440, -6.560, -12.047, 28.43, -0.03445, -0.57141, 0.17917, -0.80005,
 15:59:32.206,e3:ca:2d:fd:e0:8c, 2015-01-01 03:44:29.315, 0.95, -0.252, 0.288, 0, -0.061, 0, -41.182, -67.939, -156.478, -27.440, -6.560, -12.047, 28.43, -0.03445, -0.57141, 0.17917, -0.80005,
 15:59:32.209,ed:40:fe:65:30:6c, 2015-01-01 03:44:28.220, 0.74, -0.142, 0.667, -0.244, 0.244, -0.488, -12.426, -47.175, -116.263, -22.633, -6.527, -3.227, 26.19, 0.4454, -0.39038, -0.12589, -0.79578,
 15:59:32.209,ed:40:fe:65:30:6c, 2015-01-01 03:44:28.220, 0.74, -0.143, 0.666, -0.366, 0.122, -0.244, -12.426, -47.175, -116.285, -22.633, -6.527, -3.227, 26.19, 0.4454, -0.39038, -0.12589, -0.79578,
 15:59:32.209,ed:35:33:d3:6c:f8, 2015-01-01 03:44:28.260, 0.709, -0.111, 0.689, -0.427, 0.183, -0.793, -9.838, -45.516, 151.007, -17.880, -7.700, -29.053, 30.99, 0.26199, 0.35336, -0.17307, 0.88116,
 15:59:32.209,ed:35:33:d3:6c:f8, 2015-01-01 03:44:28.260, 0.708, -0.11, 0.687, -0.61, 0.061, -0.366, -9.833, -45.516, 150.985, -17.880, -7.700, -29.053, 30.99, 0.26199, 0.35336, -0.17307, 0.88116,
 15:59:32.210,f6:90:cc:01:6d:25, 2015-01-01 03:44:27.760, 0.948, -0.205, 0.188, -0.244, -0.061, -0.061, -47.994, -73.488, -129.941, -30.673, -6.627, -4.893, 31.19, 0.08972, -0.63321, 0.06366, -0.76605,
 15:59:32.210,f6:90:cc:01:6d:25, 2015-01-01 03:44:27.760, 0.947, -0.209, 0.188, -0.122, -0.061, -0.061, -47.988, -73.493, -129.952, -30.673, -6.627, -4.893, 31.19, 0.08972, -0.63321, 0.06366, -0.76605,
 15:59:32.252,e3:ca:2d:fd:e0:8c, 2015-01-01 03:44:29.315, 0.948, -0.254, 0.287, 0.122, 0, 0, -41.177, -67.939, -156.473, -27.440, -6.560, -12.047, 28.43, -0.03445, -0.57141, 0.17917, -0.80005,
 15:59:32.252,e3:ca:2d:fd:e0:8c, 2015-01-01 03:44:29.315, 0.948, -0.254, 0.288, 0.244, 0.061, 0.305, -41.177, -67.939, -156.462, -27.440, -6.560, -12.047, 28.43, -0.03445, -0.57141, 0.17917, -0.80005,
 15:59:32.252,ed:40:fe:65:30:6c, 2015-01-01 03:44:28.220, 0.738, -0.145, 0.665, -0.244, 0.244, 0.183, -12.431, -47.17, -116.296, -22.633, -6.527, -3.227, 26.19, 0.4454, -0.39038, -0.12589, -0.79578,
 15:59:32.252,ed:40:fe:65:30:6c, 2015-01-01 03:44:28.220, 0.737, -0.147, 0.664, -0.122, 0.305, 0.427, -12.442, -47.164, -116.296, -22.633, -6.527, -3.227, 26.19, 0.4454, -0.39038, -0.12589, -0.79578,
 15:59:32.253,ed:35:33:d3:6c:f8, 2015-01-01 03:44:28.260, 0.709, -0.114, 0.686, -0.427, 0.061, 0.061, -9.838, -45.511, 150.98, -17.880, -7.700, -29.053, 30.99, 0.26199, 0.35336, -0.17307, 0.88116,
 15:59:32.253,ed:35:33:d3:6c:f8, 2015-01-01 03:44:28.260, 0.708, -0.12, 0.684, -0.488, 0, 0.427, -9.844, -45.511, 150.991, -17.880, -7.700, -29.053, 30.99, 0.26199, 0.35336, -0.17307, 0.88116,
 15:59:32.254,f6:90:cc:01:6d:25, 2015-01-01 03:44:27.760, 0.946, -0.209, 0.186, 0, -0.061, 0, -47.988, -73.493, -129.968, -30.673, -6.627, -4.893, 31.19, 0.08972, -0.63321, 0.06366, -0.76605,
 15:59:32.254,f6:90:cc:01:6d:25, 2015-01-01 03:44:27.760, 0.946, -0.209, 0.186, 0.122, -0.061, 0, -47.988, -73.493, -129.974, -30.673, -6.627, -4.893, 31.19, 0.08972, -0.63321, 0.06366, -0.76605,
 15:59:32.273,e3:ca:2d:fd:e0:8c, 2015-01-01 03:44:29.315, 0.948, -0.253, 0.288, 0.366, 0.122, 0.305, -41.177, -67.934, -156.445, -27.440, -6.560, -12.047, 28.43, -0.03445, -0.57141, 0.17917, -0.80005,
 15:59:32.273,e3:ca:2d:fd:e0:8c, 2015-01-01 03:44:29.315, 0.948, -0.252, 0.289, 0.244, 0.183, 0.244, -41.177, -67.928, -156.429, -27.440, -6.560, -12.047, 28.43, -0.03445, -0.57141, 0.17917, -0.80005,
 15:59:32.300,ed:35:33:d3:6c:f8, 2015-01-01 03:44:28.620, 0.71, -0.124, 0.685, -0.427, 0.061, 0.488, -9.86, -45.505, 151.007, -17.880, -7.700, -29.053, 30.99, 0.26199, 0.35336, -0.17307, 0.88116,
 15:59:32.300,ed:35:33:d3:6c:f8, 2015-01-01 03:44:28.620, 0.709, -0.124, 0.682, -0.122, -0.122, 0.366, -9.877, -45.505, 151.013, -17.880, -7.700, -29.053, 30.99, 0.26199, 0.35336, -0.17307, 0.88116,
 15:59:32.300,f6:90:cc:01:6d:25, 2015-01-01 03:44:27.760, 0.947, -0.208, 0.186, 0.061, 0, 0.061, -47.988, -73.493, -129.985, -30.673, -6.627, -4.893, 31.19, 0.08972, -0.63321, 0.06366, -0.76605,
 15:59:32.300,f6:90:cc:01:6d:25, 2015-01-01 03:44:27.760, 0.947, -0.208, 0.188, 0, 0.122, 0.061, -47.983, -73.493, -130.001, -30.673, -6.627, -4.893, 31.19, 0.08972, -0.63321, 0.06366, -0.76605,
 15:59:32.319,e3:ca:2d:fd:e0:8c, 2015-01-01 03:44:29.315, 0.948, -0.251, 0.289, 0.305, 0.183, 0.244, -41.177, -67.923, -156.418, -27.440, -6.560, -12.047, 28.43, -0.03445, -0.57141, 0.17917, -0.80005,
 15:59:32.319,e3:ca:2d:fd:e0:8c, 2015-01-01 03:44:29.315, 0.948, -0.25, 0.288, 0.305, 0.183, 0.122, -41.171, -67.917, -156.412, -27.440, -6.560, -12.047, 28.43, -0.03445, -0.57141, 0.17917, -0.80005,
 15:59:32.320,ed:35:33:d3:6c:f8, 2015-01-01 03:44:28.620, 0.708, -0.124, 0.682, 0.305, -0.244, 0.183, -9.882, -45.505, 151.018, -17.880, -7.700, -29.053, 30.99, 0.26199, 0.35336, -0.17307, 0.88116,
 15:59:32.320,ed:35:33:d3:6c:f8, 2015-01-01 03:44:28.620, 0.707, -0.122, 0.683, 0.671, -0.122, 0.061, -9.882, -45.511, 151.018, -17.880, -7.700, -29.053, 30.99, 0.26199, 0.35336, -0.17307, 0.88116,
 15:59:32.320,ed:40:fe:65:30:6c, 2015-01-01 03:44:28.220, 0.738, -0.15, 0.663, -0.061, 0.366, 0.488, -12.448, -47.159, -116.296, -22.713, -6.380, -2.413, 26.19, 0.4454, -0.39038, -0.12589, -0.79578,
 15:59:32.320,ed:40:fe:65:30:6c, 2015-01-01 03:44:28.220, 0.738, -0.151, 0.662, 0.122, 0.305, 0.427, -12.453, -47.148, -116.296, -22.713, -6.380, -2.413, 26.19, 0.4454, -0.39038, -0.12589, -0.79578,
 15:59:32.343,ed:40:fe:65:30:6c, 2015-01-01 03:44:28.220, 0.738, -0.15, 0.662, 0.305, 0.427, 0.305, -12.458, -47.142, -116.301, -22.713, -6.380, -2.413, 26.19, 0.44391, -0.39014, -0.12527, -0.79681,
 15:59:32.343,ed:40:fe:65:30:6c, 2015-01-01 03:44:28.220, 0.738, -0.149, 0.662, 0.488, 0.549, 0.061, -12.448, -47.137, -116.307, -22.713, -6.380, -2.413, 26.19, 0.44391, -0.39014, -0.12527, -0.79681,
 15:59:32.345,f6:90:cc:01:6d:25, 2015-01-01 03:44:27.760, 0.946, -0.206, 0.187, 0.061, 0.122, 0.061, -47.977, -73.493, -130.018, -30.507, -6.433, -5.380, 31.19, 0.08972, -0.63321, 0.06366, -0.76605,
 15:59:32.345,f6:90:cc:01:6d:25, 2015-01-01 03:44:27.760, 0.947, -0.207, 0.188, 0.122, 0.183, 0, -47.966, -73.488, -130.034, -30.507, -6.433, -5.380, 31.19, 0.08972, -0.63321, 0.06366, -0.76605,
 15:59:32.366,ed:35:33:d3:6c:f8, 2015-01-01 03:44:28.620, 0.708, -0.12, 0.687, 0.732, -0.183, 0, -9.871, -45.516, 151.007, -17.880, -7.700, -29.053, 30.99, 0.26199, 0.35336, -0.17307, 0.88116,
 15:59:32.366,ed:35:33:d3:6c:f8, 2015-01-01 03:44:28.620, 0.707, -0.119, 0.688, 0.793, -0.122, 0, -9.855, -45.516, 151.002, -17.880, -7.700, -29.053, 30.99, 0.26199, 0.35336, -0.17307, 0.88116,
 15:59:32.368,f6:90:cc:01:6d:25, 2015-01-01 03:44:27.760, 0.946, -0.206, 0.188, 0.061, 0.244, 0, -47.955, -73.488, -130.062, -30.507, -6.433, -5.380, 31.19, 0.08862, -0.63293, 0.06448, -0.76633,
 15:59:32.368,f6:90:cc:01:6d:25, 2015-01-01 03:44:27.760, 0.946, -0.206, 0.189, -0.061, 0.305, -0.061, -47.939, -73.482, -130.089, -30.507, -6.433, -5.380, 31.19, 0.08862, -0.63293, 0.06448, -0.76633,
 15:59:32.387,ed:40:fe:65:30:6c, 2015-01-01 03:44:28.220, 0.736, -0.149, 0.664, 0.549, 0.549, 0, -12.437, -47.126, -116.323, -22.713, -6.380, -2.413, 26.19, 0.44391, -0.39014, -0.12527, -0.79681,
 15:59:32.387,ed:40:fe:65:30:6c, 2015-01-01 03:44:28.220, 0.736, -0.146, 0.666, 0.61, 0.549, 0, -12.426, -47.12, -116.334, -22.713, -6.380, -2.413, 26.19, 0.44391, -0.39014, -0.12527, -0.79681,
 15:59:32.408,e3:ca:2d:fd:e0:8c, 2015-01-01 03:44:29.315, 0.948, -0.25, 0.289, 0.122, 0.183, 0.061, -41.16, -67.917, -156.407, -27.440, -6.560, -12.047, 28.43, -0.03445, -0.57141, 0.17917, -0.80005,
