Time,Device name,Chip Time(),Acceleration X(g),Acceleration Y(g),Acceleration Z(g),Angular velocity X(°/s),Angular velocity Y(°/s),Angular velocity Z(°/s),Angle X(°),Angle Y(°),Angle Z(°),Magnetic field X(ʯt),Magnetic field Y(ʯt),Magnetic field Z(ʯt),Temperature(℃),Quaternions 0(),Quaternions 1(),Quaternions 2(),Quaternions 3()
 10:47:44.853,f6:90:cc:01:6d:25, 2015-01-01 00:18:12.945, 0.984, -0.028, -0.052, 0, 0.488, 0, -151.002, -86.451, -27.219, -31.147, -11.933, 2.187, 26.95, 0.0213, -0.72668, -0.00079, -0.68655,
 10:47:44.853,f6:90:cc:01:6d:25, 2015-01-01 00:18:12.945, 0.985, -0.027, -0.05, 0, 0.366, 0, -150.947, -86.457, -27.279, -31.147, -11.933, 2.187, 26.95, 0.0213, -0.72668, -0.00079, -0.68655,
 10:47:44.857,ed:40:fe:65:30:6c, 2015-01-01 00:18:11.945, 0.862, -0.002, 0.515, -0.549, 0.183, 0.671, -0.665, -59.392, -119.531, -26.000, -8.160, 0.887, 23.65, 0.43454, -0.43057, -0.245, -0.75211,
 10:47:44.857,ed:40:fe:65:30:6c, 2015-01-01 00:18:11.945, 0.865, -0.002, 0.513, -0.427, 0, 0.427, -0.692, -59.387, -119.487, -26.000, -8.160, 0.887, 23.65, 0.43454, -0.43057, -0.245, -0.75211,
 10:47:44.877,e3:ca:2d:fd:e0:8c, 2015-01-01 00:18:12.875, 1, -0.182, 0.088, 0.244, -0.061, 0, -63.891, -78.541, -135.972, -29.913, -8.420, -8.107, 24.47, -0.06442, -0.65149, 0.17862, -0.73444,
 10:47:44.877,e3:ca:2d:fd:e0:8c, 2015-01-01 00:18:12.875, 1.002, -0.181, 0.091, 0, -0.061, 0, -63.896, -78.541, -135.967, -29.913, -8.420, -8.107, 24.47, -0.06442, -0.65149, 0.17862, -0.73444,
 10:47:44.881,f6:90:cc:01:6d:25, 2015-01-01 00:18:12.945, 0.984, -0.028, -0.055, 0, 0.122, 0, -150.93, -86.462, -27.301, -31.680, -12.167, 2.280, 26.95, 0.0213, -0.72668, -0.00079, -0.68655,
 10:47:44.881,f6:90:cc:01:6d:25, 2015-01-01 00:18:12.945, 0.984, -0.028, -0.053, -0.488, 0, 0, -150.941, -86.462, -27.301, -31.680, -12.167, 2.280, 26.95, 0.0213, -0.72668, -0.00079, -0.68655,
 10:47:44.885,ed:40:fe:65:30:6c, 2015-01-01 00:18:11.945, 0.864, -0.003, 0.514, 0, 0.061, 0.305, -0.709, -59.381, -119.449, -26.000, -8.160, 0.887, 23.65, 0.43454, -0.43057, -0.245, -0.75211,
 10:47:44.885,ed:40:fe:65:30:6c, 2015-01-01 00:18:11.945, 0.861, -0.007, 0.514, 0.061, 0, 0.305, -0.714, -59.381, -119.416, -26.000, -8.160, 0.887, 23.65, 0.43454, -0.43057, -0.245, -0.75211,
 10:47:44.913,ed:35:33:d3:6c:f8, 2015-01-01 00:18:12.215, 0.798, -0.133, 0.572, -0.61, 0.244, 0.488, -13.502, -53.635, -158.247, -22.400, -7.073, -14.113, 29.36, -0.11063, 0.4592, -0.02084, 0.8811,
 10:47:44.913,ed:35:33:d3:6c:f8, 2015-01-01 00:18:12.215, 0.801, -0.135, 0.57, -0.366, 0.305, 0.488, -13.519, -53.63, -158.209, -22.400, -7.073, -14.113, 29.36, -0.11063, 0.4592, -0.02084, 0.8811,
 10:47:44.916,ed:40:fe:65:30:6c, 2015-01-01 00:18:12.300, 0.859, -0.005, 0.519, -0.366, 0.061, 0.122, -0.72, -59.376, -119.383, -26.000, -8.160, 0.887, 23.65, 0.43454, -0.43057, -0.245, -0.75211,
 10:47:44.916,ed:40:fe:65:30:6c, 2015-01-01 00:18:12.300, 0.862, -0.002, 0.514, -0.427, -0.061, -0.122, -0.725, -59.376, -119.355, -26.000, -8.160, 0.887, 23.65, 0.43454, -0.43057, -0.245, -0.75211,
 10:47:44.939,e3:ca:2d:fd:e0:8c, 2015-01-01 00:18:12.875, 1.002, -0.181, 0.087, 0.244, -0.183, 0, -63.902, -78.541, -135.95, -29.913, -8.420, -8.107, 24.47, -0.06442, -0.65149, 0.17862, -0.73444,
 10:47:44.939,e3:ca:2d:fd:e0:8c, 2015-01-01 00:18:12.875, 1.001, -0.182, 0.088, -0.061, 0, 0, -63.907, -78.541, -135.939, -29.913, -8.420, -8.107, 24.47, -0.06442, -0.65149, 0.17862, -0.73444,
 10:47:44.940,f6:90:cc:01:6d:25, 2015-01-01 00:18:12.945, 0.984, -0.027, -0.051, -0.732, -0.061, 0, -150.958, -86.457, -27.301, -31.680, -12.167, 2.280, 26.95, 0.0213, -0.72668, -0.00079, -0.68655,
 10:47:44.940,f6:90:cc:01:6d:25, 2015-01-01 00:18:12.945, 0.985, -0.03, -0.052, -0.61, 0.061, 0, -150.98, -86.457, -27.296, -31.680, -12.167, 2.280, 26.95, 0.0213, -0.72668, -0.00079, -0.68655,
 10:47:44.946,ed:40:fe:65:30:6c, 2015-01-01 00:18:12.300, 0.865, -0.005, 0.515, -0.305, -0.427, -0.183, -0.725, -59.376, -119.344, -26.000, -8.160, 0.887, 23.65, 0.43454, -0.43057, -0.245, -0.75211,
 10:47:44.946,ed:40:fe:65:30:6c, 2015-01-01 00:18:12.300, 0.865, -0.005, 0.516, -0.061, -0.488, 0.183, -0.72, -59.381, -119.323, -26.000, -8.160, 0.887, 23.65, 0.43454, -0.43057, -0.245, -0.75211,
 10:47:44.967,e3:ca:2d:fd:e0:8c, 2015-01-01 00:18:12.875, 1.001, -0.181, 0.088, 0.122, 0, 0, -63.902, -78.541, -135.939, -29.913, -8.420, -8.107, 24.47, -0.06418, -0.65152, 0.17834, -0.7345,
 10:47:44.967,e3:ca:2d:fd:e0:8c, 2015-01-01 00:18:12.875, 1, -0.181, 0.088, -0.183, 0, 0, -63.902, -78.541, -135.939, -29.913, -8.420, -8.107, 24.47, -0.06418, -0.65152, 0.17834, -0.7345,
 10:47:44.971,f6:90:cc:01:6d:25, 2015-01-01 00:18:12.945, 0.986, -0.032, -0.054, -0.183, 0.122, 0, -150.98, -86.462, -27.312, -31.680, -12.167, 2.280, 26.95, 0.02094, -0.72589, -0.00034, -0.68741,
 10:47:44.971,f6:90:cc:01:6d:25, 2015-01-01 00:18:12.945, 0.986, -0.031, -0.051, 0, 0, 0, -150.969, -86.462, -27.328, -31.680, -12.167, 2.280, 26.95, 0.02094, -0.72589, -0.00034, -0.68741,
 10:47:44.972,ed:35:33:d3:6c:f8, 2015-01-01 00:18:12.215, 0.801, -0.134, 0.571, 0, 0.122, 0.366, -13.53, -53.624, -158.17, -22.400, -7.073, -14.113, 29.36, -0.11063, 0.4592, -0.02084, 0.8811,
 10:47:44.972,ed:35:33:d3:6c:f8, 2015-01-01 00:18:12.215, 0.798, -0.137, 0.571, 0.366, 0.122, 0.488, -13.535, -53.619, -158.137, -22.400, -7.073, -14.113, 29.36, -0.11063, 0.4592, -0.02084, 0.8811,
 10:47:44.998,e3:ca:2d:fd:e0:8c, 2015-01-01 00:18:12.875, 1.003, -0.181, 0.088, -0.366, -0.244, 0, -63.918, -78.547, -135.928, -29.913, -8.420, -8.107, 24.47, -0.06418, -0.65152, 0.17834, -0.7345,
 10:47:44.998,e3:ca:2d:fd:e0:8c, 2015-01-01 00:18:12.875, 1.003, -0.183, 0.087, -0.305, -0.305, 0, -63.951, -78.547, -135.901, -29.913, -8.420, -8.107, 24.47, -0.06418, -0.65152, 0.17834, -0.7345,
 10:47:45.001,f6:90:cc:01:6d:25, 2015-01-01 00:18:12.945, 0.983, -0.029, -0.054, 0.183, 0, 0, -150.958, -86.462, -27.328, -31.680, -12.167, 2.280, 26.95, 0.02094, -0.72589, -0.00034, -0.68741,
 10:47:45.001,f6:90:cc:01:6d:25, 2015-01-01 00:18:12.945, 0.984, -0.029, -0.053, 0.061, 0.061, 0, -150.947, -86.462, -27.334, -31.680, -12.167, 2.280, 26.95, 0.02094, -0.72589, -0.00034, -0.68741,
 10:47:45.002,ed:35:33:d3:6c:f8, 2015-01-01 00:18:12.215, 0.795, -0.14, 0.575, 0.061, 0.122, 0.366, -13.535, -53.619, -158.099, -22.400, -7.073, -14.113, 29.36, -0.11063, 0.4592, -0.02084, 0.8811,
 10:47:45.002,ed:35:33:d3:6c:f8, 2015-01-01 00:18:12.215, 0.797, -0.135, 0.574, -0.305, 0.244, -0.061, -13.541, -53.613, -158.071, -22.400, -7.073, -14.113, 29.36, -0.11063, 0.4592, -0.02084, 0.8811,
 10:47:45.004,ed:40:fe:65:30:6c, 2015-01-01 00:18:12.300, 0.866, -0.002, 0.513, 0, -0.305, 0.488, -0.725, -59.387, -119.295, -26.000, -8.160, 0.887, 23.65, 0.43454, -0.43057, -0.245, -0.75211,
 10:47:45.004,ed:40:fe:65:30:6c, 2015-01-01 00:18:12.300, 0.863, -0.005, 0.513, 0.183, -0.122, 0.366, -0.736, -59.387, -119.257, -26.000, -8.160, 0.887, 23.65, 0.43454, -0.43057, -0.245, -0.75211,
 10:47:45.028,e3:ca:2d:fd:e0:8c, 2015-01-01 00:18:12.875, 1.003, -0.184, 0.09, -0.061, -0.305, 0, -63.979, -78.552, -135.868, -29.913, -8.420, -8.107, 24.47, -0.06418, -0.65152, 0.17834, -0.7345,
 10:47:45.028,e3:ca:2d:fd:e0:8c, 2015-01-01 00:18:12.875, 1, -0.182, 0.088, 0.366, -0.366, 0, -64.006, -78.552, -135.84, -29.913, -8.420, -8.107, 24.47, -0.06418, -0.65152, 0.17834, -0.7345,
 10:47:45.033,ed:35:33:d3:6c:f8, 2015-01-01 00:18:12.215, 0.802, -0.135, 0.573, -0.427, -0.122, -0.366, -13.541, -53.613, -158.055, -22.400, -7.073, -14.113, 29.36, -0.11624, 0.45969, -0.01816, 0.88019,
 10:47:45.033,ed:35:33:d3:6c:f8, 2015-01-01 00:18:12.215, 0.802, -0.135, 0.573, -0.061, -0.427, 0, -13.541, -53.619, -158.033, -22.400, -7.073, -14.113, 29.36, -0.11624, 0.45969, -0.01816, 0.88019,
 10:47:45.035,ed:40:fe:65:30:6c, 2015-01-01 00:18:12.300, 0.862, -0.006, 0.514, 0.122, -0.061, 0.122, -0.742, -59.387, -119.224, -26.000, -8.160, 0.887, 23.65, 0.43454, -0.43057, -0.245, -0.75211,
 10:47:45.035,ed:40:fe:65:30:6c, 2015-01-01 00:18:12.300, 0.863, -0.006, 0.514, -0.061, -0.183, 0.183, -0.742, -59.387, -119.196, -26.000, -8.160, 0.887, 23.65, 0.43454, -0.43057, -0.245, -0.75211,
 10:47:45.061,f6:90:cc:01:6d:25, 2015-01-01 00:18:13.300, 0.985, -0.03, -0.049, -0.183, 0.122, 0, -150.936, -86.462, -27.345, -31.680, -12.167, 2.280, 26.95, 0.02094, -0.72589, -0.00034, -0.68741,
 10:47:45.061,f6:90:cc:01:6d:25, 2015-01-01 00:18:13.300, 0.986, -0.029, -0.05, -0.061, 0.244, 0, -150.908, -86.468, -27.372, -31.680, -12.167, 2.280, 26.95, 0.02094, -0.72589, -0.00034, -0.68741,
 10:47:45.063,ed:35:33:d3:6c:f8, 2015-01-01 00:18:12.215, 0.802, -0.134, 0.571, 0, -0.305, 0.488, -13.546, -53.624, -158, -22.400, -7.073, -14.113, 29.36, -0.11624, 0.45969, -0.01816, 0.88019,
 10:47:45.063,ed:35:33:d3:6c:f8, 2015-01-01 00:18:12.215, 0.8, -0.138, 0.569, 0.183, -0.122, 0.488, -13.557, -53.63, -157.961, -22.400, -7.073, -14.113, 29.36, -0.11624, 0.45969, -0.01816, 0.88019,
 10:47:45.063,ed:35:33:d3:6c:f8, 2015-01-01 00:18:12.215, 0.798, -0.139, 0.571, 0.305, 0, 0.244, -13.557, -53.63, -157.928, -22.400, -7.073, -14.113, 29.36, -0.11624, 0.45969, -0.01816, 0.88019,
 10:47:45.063,ed:35:33:d3:6c:f8, 2015-01-01 00:18:12.215, 0.798, -0.137, 0.571, 0.061, -0.061, 0.122, -13.557, -53.63, -157.896, -22.400, -7.073, -14.113, 29.36, -0.11624, 0.45969, -0.01816, 0.88019,
 10:47:45.064,ed:40:fe:65:30:6c, 2015-01-01 00:18:12.300, 0.864, -0.007, 0.513, -0.244, -0.183, 0, -0.747, -59.392, -119.174, -26.000, -8.160, 0.887, 23.65, 0.43454, -0.43057, -0.245, -0.75211,
 10:47:45.064,ed:40:fe:65:30:6c, 2015-01-01 00:18:12.300, 0.868, -0.008, 0.512, 0, -0.244, -0.305, -0.747, -59.392, -119.158, -26.000, -8.160, 0.887, 23.65, 0.43454, -0.43057, -0.245, -0.75211,
 10:47:45.087,e3:ca:2d:fd:e0:8c, 2015-01-01 00:18:13.350, 1, -0.18, 0.088, 0.244, -0.366, 0, -64.034, -78.558, -135.802, -29.913, -8.420, -8.107, 24.47, -0.06418, -0.65152, 0.17834, -0.7345,
 10:47:45.087,e3:ca:2d:fd:e0:8c, 2015-01-01 00:18:13.350, 1.001, -0.183, 0.09, -0.183, -0.427, 0, -64.072, -78.563, -135.764, -29.913, -8.420, -8.107, 24.47, -0.06418, -0.65152, 0.17834, -0.7345,
 10:47:45.087,e3:ca:2d:fd:e0:8c, 2015-01-01 00:18:13.350, 1.003, -0.182, 0.092, -0.549, -0.61, 0, -64.127, -78.563, -135.714, -29.913, -8.420, -8.107, 24.47, -0.06418, -0.65152, 0.17834, -0.7345,
 10:47:45.087,e3:ca:2d:fd:e0:8c, 2015-01-01 00:18:13.350, 1.003, -0.182, 0.087, 0, -0.61, 0, -64.182, -78.569, -135.654, -29.913, -8.420, -8.107, 24.47, -0.06418, -0.65152, 0.17834, -0.7345,
 10:47:45.089,f6:90:cc:01:6d:25, 2015-01-01 00:18:13.300, 0.987, -0.031, -0.055, 0.122, 0.671, 0, -150.848, -86.473, -27.427, -31.680, -12.167, 2.280, 26.95, 0.02094, -0.72589, -0.00034, -0.68741,
 10:47:45.089,f6:90:cc:01:6d:25, 2015-01-01 00:18:13.300, 0.988, -0.034, -0.052, 0.183, 0.793, 0, -150.727, -86.484, -27.543, -31.680, -12.167, 2.280, 26.95, 0.02094, -0.72589, -0.00034, -0.68741,
 10:47:45.095,ed:40:fe:65:30:6c, 2015-01-01 00:18:12.300, 0.867, -0.007, 0.515, 0.061, -0.122, -0.183, -0.736, -59.392, -119.147, -26.000, -8.160, 0.887, 23.65, 0.43454, -0.43057, -0.245, -0.75211,
 10:47:45.095,ed:40:fe:65:30:6c, 2015-01-01 00:18:12.300, 0.866, -0.005, 0.515, -0.122, 0.061, 0, -0.731, -59.392, -119.136, -26.000, -8.160, 0.887, 23.65, 0.43454, -0.43057, -0.245, -0.75211,
 10:47:45.117,e3:ca:2d:fd:e0:8c, 2015-01-01 00:18:13.350, 1.004, -0.185, 0.089, 0, -0.366, 0, -64.215, -78.574, -135.615, -29.913, -8.420, -8.107, 24.47, -0.06418, -0.65152, 0.17834, -0.7345,
 10:47:45.117,e3:ca:2d:fd:e0:8c, 2015-01-01 00:18:13.350, 1.004, -0.185, 0.087, 0, -0.488, 0, -64.254, -78.58, -135.571, -29.913, -8.420, -8.107, 24.47, -0.06418, -0.65152, 0.17834, -0.7345,
 10:47:45.119,f6:90:cc:01:6d:25, 2015-01-01 00:18:13.300, 0.986, -0.032, -0.052, 0.183, 0.916, 0, -150.579, -86.501, -27.675, -31.680, -12.167, 2.280, 26.95, 0.02094, -0.72589, -0.00034, -0.68741,
 10:47:45.119,f6:90:cc:01:6d:25, 2015-01-01 00:18:13.300, 0.984, -0.03, -0.054, 0.427, 0.916, 0, -150.414, -86.517, -27.828, -31.680, -12.167, 2.280, 26.95, 0.02094, -0.72589, -0.00034, -0.68741,
 10:47:45.124,ed:35:33:d3:6c:f8, 2015-01-01 00:18:12.215, 0.798, -0.14, 0.571, -0.183, -0.061, 0, -13.557, -53.63, -157.874, -22.400, -7.073, -14.113, 29.36, -0.11624, 0.45969, -0.01816, 0.88019,
 10:47:45.124,ed:35:33:d3:6c:f8, 2015-01-01 00:18:12.215, 0.803, -0.141, 0.57, 0, -0.122, -0.244, -13.557, -53.635, -157.857, -22.400, -7.073, -14.113, 29.36, -0.11624, 0.45969, -0.01816, 0.88019,
 10:47:45.148,e3:ca:2d:fd:e0:8c, 2015-01-01 00:18:13.350, 1.004, -0.185, 0.086, 0.183, -0.427, 0, -64.286, -78.58, -135.533, -29.913, -8.420, -8.107, 24.47, -0.06418, -0.65152, 0.17834, -0.7345,
 10:47:45.148,e3:ca:2d:fd:e0:8c, 2015-01-01 00:18:13.350, 1.001, -0.185, 0.085, 0.183, -0.366, 0, -64.319, -78.585, -135.494, -29.913, -8.420, -8.107, 24.47, -0.06418, -0.65152, 0.17834, -0.7345,
 10:47:45.152,ed:35:33:d3:6c:f8, 2015-01-01 00:18:12.750, 0.803, -0.14, 0.571, 0.244, -0.122, -0.183, -13.552, -53.635, -157.841, -22.400, -7.073, -14.113, 29.36, -0.11624, 0.45969, -0.01816, 0.88019,
 10:47:45.152,ed:35:33:d3:6c:f8, 2015-01-01 00:18:12.750, 0.804, -0.138, 0.571, 0.061, 0.183, -0.122, -13.546, -53.635, -157.824, -22.400, -7.073, -14.113, 29.36, -0.11624, 0.45969, -0.01816, 0.88019,
 10:47:45.154,ed:40:fe:65:30:6c, 2015-01-01 00:18:12.300, 0.862, -0.001, 0.517, -0.122, 0.122, 0, -0.731, -59.392, -119.114, -26.213, -8.107, 0.300, 23.65, 0.43454, -0.43057, -0.245, -0.75211,
 10:47:45.154,ed:40:fe:65:30:6c, 2015-01-01 00:18:12.300, 0.864, -0.001, 0.514, 0, 0, 0, -0.731, -59.387, -119.097, -26.213, -8.107, 0.300, 23.65, 0.43454, -0.43057, -0.245, -0.75211,
 10:47:45.179,f6:90:cc:01:6d:25, 2015-01-01 00:18:13.300, 0.985, -0.032, -0.054, 0.305, 0.61, 0, -150.266, -86.528, -27.966, -31.680, -12.167, 2.280, 26.95, 0.02094, -0.72589, -0.00034, -0.68741,
 10:47:45.179,f6:90:cc:01:6d:25, 2015-01-01 00:18:13.300, 0.985, -0.034, -0.051, 0.427, 0.549, 0, -150.15, -86.539, -28.065, -31.680, -12.167, 2.280, 26.95, 0.02094, -0.72589, -0.00034, -0.68741,
 10:47:45.183,ed:35:33:d3:6c:f8, 2015-01-01 00:18:12.750, 0.801, -0.134, 0.575, -0.061, 0.427, -0.061, -13.541, -53.635, -157.808, -22.400, -7.073, -14.113, 29.36, -0.11624, 0.45969, -0.01816, 0.88019,
 10:47:45.183,ed:35:33:d3:6c:f8, 2015-01-01 00:18:12.750, 0.8, -0.132, 0.573, 0.061, 0.183, 0, -13.535, -53.63, -157.791, -22.400, -7.073, -14.113, 29.36, -0.11624, 0.45969, -0.01816, 0.88019,
 10:47:45.183,ed:35:33:d3:6c:f8, 2015-01-01 00:18:12.750, 0.802, -0.135, 0.571, 0.122, -0.122, 0.183, -13.535, -53.63, -157.769, -22.400, -7.073, -14.113, 29.36, -0.11624, 0.45969, -0.01816, 0.88019,
 10:47:45.183,ed:35:33:d3:6c:f8, 2015-01-01 00:18:12.750, 0.802, -0.139, 0.57, 0.061, -0.183, 0.427, -13.541, -53.63, -157.736, -22.400, -7.073, -14.113, 29.36, -0.11624, 0.45969, -0.01816, 0.88019,
 10:47:45.185,ed:40:fe:65:30:6c, 2015-01-01 00:18:12.300, 0.866, -0.006, 0.513, 0.061, -0.183, 0.244, -0.731, -59.387, -119.075, -26.213, -8.107, 0.300, 23.65, 0.43454, -0.43057, -0.245, -0.75211,
 10:47:45.185,ed:40:fe:65:30:6c, 2015-01-01 00:18:12.300, 0.866, -0.008, 0.512, 0, -0.244, 0.366, -0.736, -59.387, -119.048, -26.213, -8.107, 0.300, 23.65, 0.43454, -0.43057, -0.245, -0.75211,
 10:47:45.207,e3:ca:2d:fd:e0:8c, 2015-01-01 00:18:13.350, 1.002, -0.186, 0.085, 0.427, -0.488, 0, -64.352, -78.585, -135.45, -29.913, -8.420, -8.107, 24.47, -0.06418, -0.65152, 0.17834, -0.7345,
 10:47:45.207,e3:ca:2d:fd:e0:8c, 2015-01-01 00:18:13.350, 1.003, -0.185, 0.084, 0.61, -0.793, 0, -64.407, -78.591, -135.385, -29.913, -8.420, -8.107, 24.47, -0.06418, -0.65152, 0.17834, -0.7345,
 10:47:45.211,f6:90:cc:01:6d:25, 2015-01-01 00:18:13.300, 0.984, -0.033, -0.053, 0.549, 0.61, 0, -150.04, -86.545, -28.158, -31.680, -12.167, 2.280, 26.95, 0.02094, -0.72589, -0.00034, -0.68741,
 10:47:45.211,f6:90:cc:01:6d:25, 2015-01-01 00:18:13.300, 0.984, -0.029, -0.056, 0.427, 0.61, 0, -149.914, -86.556, -28.262, -31.680, -12.167, 2.280, 26.95, 0.02094, -0.72589, -0.00034, -0.68741,
 10:47:45.215,ed:40:fe:65:30:6c, 2015-01-01 00:18:12.300, 0.864, -0.009, 0.512, -0.061, -0.061, 0.183, -0.747, -59.392, -119.02, -26.213, -8.107, 0.300, 23.65, 0.43784, -0.42975, -0.24643, -0.75018,
 10:47:45.215,ed:40:fe:65:30:6c, 2015-01-01 00:18:12.300, 0.864, -0.006, 0.51, -0.122, 0, -0.183, -0.747, -59.392, -118.998, -26.213, -8.107, 0.300, 23.65, 0.43784, -0.42975, -0.24643, -0.75018,
 10:47:45.239,e3:ca:2d:fd:e0:8c, 2015-01-01 00:18:13.350, 1.003, -0.183, 0.083, 0.549, -0.61, 0, -64.462, -78.596, -135.324, -29.913, -8.420, -8.107, 24.47, -0.06418, -0.65152, 0.17834, -0.7345,
 10:47:45.239,e3:ca:2d:fd:e0:8c, 2015-01-01 00:18:13.350, 1.002, -0.182, 0.085, 0.183, -0.366, 0, -64.495, -78.602, -135.286, -29.913, -8.420, -8.107, 24.47, -0.06418, -0.65152, 0.17834, -0.7345,
 10:47:45.239,f6:90:cc:01:6d:25, 2015-01-01 00:18:13.300, 0.985, -0.027, -0.055, 0.061, 0.549, 0, -149.804, -86.567, -28.367, -31.187, -11.953, 3.533, 26.95, 0.02094, -0.72589, -0.00034, -0.68741,
 10:47:45.239,f6:90:cc:01:6d:25, 2015-01-01 00:18:13.300, 0.985, -0.029, -0.05, -0.183, 0.61, 0, -149.711, -86.572, -28.46, -31.187, -11.953, 3.533, 26.95, 0.02094, -0.72589, -0.00034, -0.68741,
 10:47:45.243,ed:35:33:d3:6c:f8, 2015-01-01 00:18:12.750, 0.8, -0.142, 0.569, 0, -0.122, 0.366, -13.552, -53.635, -157.703, -22.400, -7.073, -14.113, 29.36, -0.11624, 0.45969, -0.01816, 0.88019,
 10:47:45.243,ed:35:33:d3:6c:f8, 2015-01-01 00:18:12.750, 0.8, -0.142, 0.567, 0, 0.061, 0, -13.557, -53.635, -157.676, -22.400, -7.073, -14.113, 29.36, -0.11624, 0.45969, -0.01816, 0.88019,
 10:47:45.267,e3:ca:2d:fd:e0:8c, 2015-01-01 00:18:13.350, 1.002, -0.182, 0.085, -0.061, -0.427, 0, -64.539, -78.602, -135.242, -29.653, -8.107, -8.253, 24.47, -0.06418, -0.65152, 0.17834, -0.7345,
 10:47:45.267,e3:ca:2d:fd:e0:8c, 2015-01-01 00:18:13.350, 1.003, -0.183, 0.085, -0.061, -0.488, 0, -64.583, -78.607, -135.198, -29.653, -8.107, -8.253, 24.47, -0.06418, -0.65152, 0.17834, -0.7345,
 10:47:45.271,ed:35:33:d3:6c:f8, 2015-01-01 00:18:12.750, 0.801, -0.138, 0.568, -0.061, 0.305, -0.427, -13.552, -53.635, -157.665, -22.400, -7.073, -14.113, 29.36, -0.11624, 0.45969, -0.01816, 0.88019,
 10:47:45.271,ed:35:33:d3:6c:f8, 2015-01-01 00:18:12.750, 0.801, -0.136, 0.57, -0.061, 0.366, -0.61, -13.541, -53.63, -157.67, -22.400, -7.073, -14.113, 29.36, -0.11624, 0.45969, -0.01816, 0.88019,
 10:47:45.300,f6:90:cc:01:6d:25, 2015-01-01 00:18:13.300, 0.985, -0.031, -0.051, -0.122, 0.854, 0, -149.601, -86.583, -28.586, -31.187, -11.953, 3.533, 26.95, 0.02094, -0.72589, -0.00034, -0.68741,
 10:47:45.300,f6:90:cc:01:6d:25, 2015-01-01 00:18:13.300, 0.987, -0.032, -0.05, -0.061, 0.732, 0, -149.469, -86.594, -28.724, -31.187, -11.953, 3.533, 26.95, 0.02094, -0.72589, -0.00034, -0.68741,
 10:47:45.302,ed:35:33:d3:6c:f8, 2015-01-01 00:18:12.750, 0.802, -0.134, 0.574, -0.244, 0.366, -0.549, -13.524, -53.63, -157.67, -22.400, -7.073, -14.113, 29.36, -0.11624, 0.45969, -0.01816, 0.88019,
 10:47:45.302,ed:35:33:d3:6c:f8, 2015-01-01 00:18:12.750, 0.804, -0.132, 0.577, -0.549, 0.427, -0.366, -13.519, -53.624, -157.67, -22.400, -7.073, -14.113, 29.36, -0.11624, 0.45969, -0.01816, 0.88019,
 10:47:45.306,ed:40:fe:65:30:6c, 2015-01-01 00:18:12.300, 0.865, -0.004, 0.511, -0.305, 0.183, -0.61, -0.742, -59.392, -118.993, -26.213, -8.107, 0.300, 23.65, 0.43784, -0.42975, -0.24643, -0.75018,
 10:47:45.306,ed:40:fe:65:30:6c, 2015-01-01 00:18:12.300, 0.864, -0.004, 0.514, -0.305, 0.183, -0.671, -0.725, -59.387, -118.998, -26.213, -8.107, 0.300, 23.65, 0.43784, -0.42975, -0.24643, -0.75018,
 10:47:45.328,e3:ca:2d:fd:e0:8c, 2015-01-01 00:18:13.350, 1.004, -0.184, 0.086, 0, -0.488, 0, -64.633, -78.613, -135.154, -29.653, -8.107, -8.253, 24.47, -0.06418, -0.65152, 0.17834, -0.7345,
 10:47:45.328,e3:ca:2d:fd:e0:8c, 2015-01-01 00:18:13.350, 1.004, -0.186, 0.087, 0.183, -0.366, 0, -64.666, -78.613, -135.115, -29.653, -8.107, -8.253, 24.47, -0.06418, -0.65152, 0.17834, -0.7345,
 10:47:45.329,f6:90:cc:01:6d:25, 2015-01-01 00:18:13.300, 0.988, -0.033, -0.052, 0.244, 0.793, 0, -149.337, -86.605, -28.856, -31.187, -11.953, 3.533, 26.95, 0.02148, -0.72495, -0.00073, -0.68839,
 10:47:45.329,f6:90:cc:01:6d:25, 2015-01-01 00:18:13.300, 0.989, -0.032, -0.048, 0.427, 0.793, 0, -149.189, -86.616, -28.993, -31.187, -11.953, 3.533, 26.95, 0.02148, -0.72495, -0.00073, -0.68839,
 10:47:45.335,ed:40:fe:65:30:6c, 2015-01-01 00:18:12.690, 0.866, -0.002, 0.517, -0.549, 0.183, -0.488, -0.709, -59.381, -119.004, -26.213, -8.107, 0.300, 23.65, 0.43784, -0.42975, -0.24643, -0.75018,
 10:47:45.335,ed:40:fe:65:30:6c, 2015-01-01 00:18:12.690, 0.866, 0, 0.519, -0.732, 0.122, -0.122, -0.709, -59.376, -119.004, -26.213, -8.107, 0.300, 23.65, 0.43784, -0.42975, -0.24643, -0.75018,
 10:47:45.359,f6:90:cc:01:6d:25, 2015-01-01 00:18:13.300, 0.987, -0.029, -0.05, 0.793, 1.038, 0, -149.013, -86.633, -29.152, -31.187, -11.953, 3.533, 26.95, 0.02148, -0.72495, -0.00073, -0.68839,
 10:47:45.359,f6:90:cc:01:6d:25, 2015-01-01 00:18:13.300, 0.981, -0.03, -0.05, 0.916, 0.977, 0, -148.815, -86.649, -29.333, -31.187, -11.953, 3.533, 26.95, 0.02148, -0.72495, -0.00073, -0.68839,
 10:47:45.363,ed:35:33:d3:6c:f8, 2015-01-01 00:18:12.750, 0.804, -0.128, 0.576, -0.732, 0.366, 0, -13.524, -53.619, -157.659, -22.400, -7.073, -14.113, 29.36, -0.11624, 0.45969, -0.01816, 0.88019,
 10:47:45.363,ed:35:33:d3:6c:f8, 2015-01-01 00:18:12.750, 0.802, -0.132, 0.572, -0.549, 0.305, 0.427, -13.535, -53.613, -157.637, -22.400, -7.073, -14.113, 29.36, -0.11624, 0.45969, -0.01816, 0.88019,
 10:47:45.365,ed:40:fe:65:30:6c, 2015-01-01 00:18:12.690, 0.867, 0.001, 0.518, -0.793, 0.122, 0.305, -0.72, -59.376, -118.982, -26.213, -8.107, 0.300, 23.65, 0.43784, -0.42975, -0.24643, -0.75018,
 10:47:45.365,ed:40:fe:65:30:6c, 2015-01-01 00:18:12.690, 0.865, -0.002, 0.514, -0.366, 0.061, 0.61, -0.742, -59.37, -118.949, -26.213, -8.107, 0.300, 23.65, 0.43784, -0.42975, -0.24643, -0.75018,
 10:47:45.393,ed:35:33:d3:6c:f8, 2015-01-01 00:18:12.750, 0.793, -0.138, 0.573, 0, 0.061, 0.61, -13.552, -53.608, -157.604, -22.260, -6.947, -13.233, 29.36, -0.11624, 0.45969, -0.01816, 0.88019,
 10:47:45.393,ed:35:33:d3:6c:f8, 2015-01-01 00:18:12.750, 0.796, -0.148, 0.567, 0.244, 0.122, 0.61, -13.563, -53.608, -157.566, -22.260, -6.947, -13.233, 29.36, -0.11624, 0.45969, -0.01816, 0.88019,
 10:47:45.395,ed:40:fe:65:30:6c, 2015-01-01 00:18:12.690, 0.858, -0.009, 0.515, 0, 0, 0.61, -0.764, -59.365, -118.911, -26.213, -8.107, 0.300, 23.65, 0.43784, -0.42975, -0.24643, -0.75018,
 10:47:45.395,ed:40:fe:65:30:6c, 2015-01-01 00:18:12.690, 0.862, -0.015, 0.51, 0.061, 0.244, 0.305, -0.775, -59.365, -118.878, -26.213, -8.107, 0.300, 23.65, 0.43784, -0.42975, -0.24643, -0.75018,
 10:47:45.420,f6:90:cc:01:6d:25, 2015-01-01 00:18:13.300, 0.982, -0.03, -0.051, 0.854, 0.977, 0, -148.629, -86.666, -29.509, -31.187, -11.953, 3.533, 26.95, 0.02148, -0.72495, -0.00073, -0.68839,
 10:47:45.420,f6:90:cc:01:6d:25, 2015-01-01 00:18:13.300, 0.984, -0.03, -0.043, 0, 0.916, 0, -148.453, -86.677, -29.68, -31.187, -11.953, 3.533, 26.95, 0.02148, -0.72495, -0.00073, -0.68839,
 10:47:45.426,ed:40:fe:65:30:6c, 2015-01-01 00:18:12.690, 0.864, -0.006, 0.513, -0.305, 0.183, -0.183, -0.78, -59.359, -118.861, -26.213, -8.107, 0.300, 23.65, 0.43784, -0.42975, -0.24643, -0.75018,
 10:47:45.426,ed:40:fe:65:30:6c, 2015-01-01 00:18:12.690, 0.864, -0.002, 0.517, -0.183, 0.488, -0.488, -0.769, -59.348, -118.856, -26.213, -8.107, 0.300, 23.65, 0.43784, -0.42975, -0.24643, -0.75018,
 10:47:45.448,e3:ca:2d:fd:e0:8c, 2015-01-01 00:18:13.350, 1.006, -0.184, 0.087, 0.305, -0.305, 0, -64.693, -78.618, -135.088, -29.653, -8.107, -8.253, 24.47, -0.06363, -0.65265, 0.17816, -0.73358,
 10:47:45.448,e3:ca:2d:fd:e0:8c, 2015-01-01 00:18:13.350, 1.003, -0.183, 0.085, 0.488, -0.549, 0, -64.726, -78.618, -135.038, -29.653, -8.107, -8.253, 24.47, -0.06363, -0.65265, 0.17816, -0.73358,
 10:47:45.450,f6:90:cc:01:6d:25, 2015-01-01 00:18:13.690, 0.985, -0.029, -0.048, -0.366, 0.854, 0, -148.293, -86.693, -29.839, -31.187, -11.953, 3.533, 26.95, 0.02148, -0.72495, -0.00073, -0.68839,
 10:47:45.450,f6:90:cc:01:6d:25, 2015-01-01 00:18:13.690, 0.985, -0.031, -0.049, -0.549, 0.671, 0, -148.167, -86.704, -29.982, -31.187, -11.953, 3.533, 26.95, 0.02148, -0.72495, -0.00073, -0.68839,
 10:47:45.454,ed:35:33:d3:6c:f8, 2015-01-01 00:18:12.750, 0.8, -0.143, 0.569, 0, 0.366, 0.061, -13.568, -53.602, -157.538, -22.260, -6.947, -13.233, 29.36, -0.11624, 0.45969, -0.01816, 0.88019,
 10:47:45.454,ed:35:33:d3:6c:f8, 2015-01-01 00:18:12.750, 0.801, -0.135, 0.572, 0, 0.61, -0.366, -13.557, -53.591, -157.533, -22.260, -6.947, -13.233, 29.36, -0.11624, 0.45969, -0.01816, 0.88019,
 10:47:45.477,e3:ca:2d:fd:e0:8c, 2015-01-01 00:18:13.350, 0.998, -0.184, 0.087, 0.793, -0.488, 0, -64.759, -78.624, -134.995, -29.653, -8.107, -8.253, 24.47, -0.06363, -0.65265, 0.17816, -0.73358,
 10:47:45.477,e3:ca:2d:fd:e0:8c, 2015-01-01 00:18:13.350, 0.998, -0.182, 0.086, 0.793, -0.122, 0, -64.764, -78.624, -134.973, -29.653, -8.107, -8.253, 24.47, -0.06363, -0.65265, 0.17816, -0.73358,
 10:47:45.479,f6:90:cc:01:6d:25, 2015-01-01 00:18:13.690, 0.984, -0.033, -0.045, -0.732, 0.732, 0, -148.052, -86.715, -30.108, -31.187, -11.953, 3.533, 26.95, 0.02148, -0.72495, -0.00073, -0.68839,
 10:47:45.479,f6:90:cc:01:6d:25, 2015-01-01 00:18:13.690, 0.985, -0.029, -0.046, -0.793, 0.61, 0, -147.936, -86.726, -30.234, -31.187, -11.953, 3.533, 26.95, 0.02148, -0.72495, -0.00073, -0.68839,
 10:47:45.483,ed:35:33:d3:6c:f8, 2015-01-01 00:18:12.750, 0.799, -0.137, 0.576, 0.305, 0.488, -0.366, -13.541, -53.586, -157.533, -22.260, -6.947, -13.233, 29.36, -0.12042, 0.45959, -0.01614, 0.87973,
 10:47:45.483,ed:35:33:d3:6c:f8, 2015-01-01 00:18:12.750, 0.796, -0.137, 0.577, 0.366, 0.366, -0.427, -13.524, -53.58, -157.533, -22.260, -6.947, -13.233, 29.36, -0.12042, 0.45959, -0.01614, 0.87973,
 10:47:45.486,ed:40:fe:65:30:6c, 2015-01-01 00:18:12.690, 0.861, -0.006, 0.518, 0.061, 0.305, -0.488, -0.753, -59.337, -118.861, -26.213, -8.107, 0.300, 23.65, 0.43784, -0.42975, -0.24643, -0.75018,
 10:47:45.486,ed:40:fe:65:30:6c, 2015-01-01 00:18:12.690, 0.859, -0.004, 0.52, 0, 0.244, -0.366, -0.736, -59.332, -118.861, -26.213, -8.107, 0.300, 23.65, 0.43784, -0.42975, -0.24643, -0.75018,
 10:47:45.513,ed:35:33:d3:6c:f8, 2015-01-01 00:18:12.750, 0.799, -0.132, 0.577, 0, 0.244, -0.244, -13.508, -53.575, -157.527, -22.260, -6.947, -13.233, 29.36, -0.12042, 0.45959, -0.01614, 0.87973,
 10:47:45.513,ed:35:33:d3:6c:f8, 2015-01-01 00:18:12.750, 0.799, -0.134, 0.575, 0.122, 0, -0.244, -13.497, -53.575, -157.522, -22.260, -6.947, -13.233, 29.36, -0.12042, 0.45959, -0.01614, 0.87973,
 10:47:45.537,e3:ca:2d:fd:e0:8c, 2015-01-01 00:18:13.740, 1.001, -0.181, 0.088, 0.244, -0.305, 0, -64.781, -78.624, -134.945, -29.653, -8.107, -8.253, 24.47, -0.06363, -0.65265, 0.17816, -0.73358,
 10:47:45.537,e3:ca:2d:fd:e0:8c, 2015-01-01 00:18:13.740, 1.002, -0.181, 0.083, 0.122, -0.549, 0, -64.819, -78.629, -134.901, -29.653, -8.107, -8.253, 24.47, -0.06363, -0.65265, 0.17816, -0.73358,
 10:47:45.539,e3:ca:2d:fd:e0:8c, 2015-01-01 00:18:13.740, 1.002, -0.183, 0.084, -0.122, -0.183, 0, -64.841, -78.629, -134.874, -29.653, -8.107, -8.253, 24.47, -0.06363, -0.65265, 0.17816, -0.73358,
 10:47:45.539,e3:ca:2d:fd:e0:8c, 2015-01-01 00:18:13.740, 1.002, -0.183, 0.084, 0, -0.244, 0, -64.863, -78.635, -134.852, -29.653, -8.107, -8.253, 24.47, -0.06363, -0.65265, 0.17816, -0.73358,
 10:47:45.539,f6:90:cc:01:6d:25, 2015-01-01 00:18:13.690, 0.986, -0.028, -0.048, -0.916, 0.183, 0, -147.876, -86.732, -30.311, -31.187, -11.953, 3.533, 26.95, 0.02148, -0.72495, -0.00073, -0.68839,
 10:47:45.539,f6:90:cc:01:6d:25, 2015-01-01 00:18:13.690, 0.986, -0.033, -0.048, -0.488, 0.183, 0, -147.854, -86.737, -30.344, -31.187, -11.953, 3.533, 26.95, 0.02148, -0.72495, -0.00073, -0.68839,
 10:47:45.543,ed:35:33:d3:6c:f8, 2015-01-01 00:18:13.195, 0.803, -0.133, 0.577, -0.061, 0, -0.061, -13.491, -53.575, -157.511, -22.260, -6.947, -13.233, 29.36, -0.12042, 0.45959, -0.01614, 0.87973,
 10:47:45.543,ed:35:33:d3:6c:f8, 2015-01-01 00:18:13.195, 0.8, -0.133, 0.574, -0.122, -0.122, 0.366, -13.497, -53.575, -157.489, -22.260, -6.947, -13.233, 29.36, -0.12042, 0.45959, -0.01614, 0.87973,
 10:47:45.545,ed:40:fe:65:30:6c, 2015-01-01 00:18:12.690, 0.862, -0.001, 0.519, -0.122, 0.122, -0.244, -0.725, -59.326, -118.861, -26.213, -8.107, 0.300, 23.65, 0.43784, -0.42975, -0.24643, -0.75018,
 10:47:45.545,ed:40:fe:65:30:6c, 2015-01-01 00:18:12.690, 0.864, -0.003, 0.517, 0, -0.122, -0.244, -0.714, -59.326, -118.856, -26.213, -8.107, 0.300, 23.65, 0.43784, -0.42975, -0.24643, -0.75018,
 10:47:45.547,ed:40:fe:65:30:6c, 2015-01-01 00:18:12.690, 0.865, -0.002, 0.519, -0.244, -0.122, 0, -0.714, -59.321, -118.845, -26.213, -8.107, 0.300, 23.65, 0.43784, -0.42975, -0.24643, -0.75018,
 10:47:45.547,ed:40:fe:65:30:6c, 2015-01-01 00:18:12.690, 0.864, -0.003, 0.514, -0.122, -0.305, 0.488, -0.72, -59.326, -118.817, -26.213, -8.107, 0.300, 23.65, 0.43784, -0.42975, -0.24643, -0.75018,
 10:47:45.568,e3:ca:2d:fd:e0:8c, 2015-01-01 00:18:13.740, 1.002, -0.182, 0.084, -0.244, -0.427, 0, -64.902, -78.635, -134.819, -29.653, -8.107, -8.253, 24.47, -0.06363, -0.65265, 0.17816, -0.73358,
 10:47:45.568,e3:ca:2d:fd:e0:8c, 2015-01-01 00:18:13.740, 1.003, -0.181, 0.083, -0.61, -0.61, 0, -64.968, -78.64, -134.764, -29.653, -8.107, -8.253, 24.47, -0.06363, -0.65265, 0.17816, -0.73358,
 10:47:45.598,e3:ca:2d:fd:e0:8c, 2015-01-01 00:18:13.740, 1.003, -0.184, 0.083, -0.427, -0.549, 0, -65.028, -78.646, -134.709, -29.653, -8.107, -8.253, 24.47, -0.06363, -0.65265, 0.17816, -0.73358,
 10:47:45.598,e3:ca:2d:fd:e0:8c, 2015-01-01 00:18:13.740, 1.002, -0.188, 0.084, 0.061, -0.427, 0, -65.072, -78.651, -134.665, -29.653, -8.107, -8.253, 24.47, -0.06363, -0.65265, 0.17816, -0.73358,
 10:47:45.598,e3:ca:2d:fd:e0:8c, 2015-01-01 00:18:13.740, 1.002, -0.188, 0.084, 0.366, -0.427, 0, -65.105, -78.651, -134.626, -29.653, -8.107, -8.253, 24.47, -0.06363, -0.65265, 0.17816, -0.73358,
 10:47:45.598,e3:ca:2d:fd:e0:8c, 2015-01-01 00:18:13.740, 1.001, -0.184, 0.082, 0.793, -0.366, 0, -65.132, -78.657, -134.588, -29.653, -8.107, -8.253, 24.47, -0.06363, -0.65265, 0.17816, -0.73358,
 10:47:45.600,f6:90:cc:01:6d:25, 2015-01-01 00:18:13.690, 0.985, -0.036, -0.048, 0.122, 0.305, 0, -147.81, -86.737, -30.394, -31.187, -11.953, 3.533, 26.95, 0.02148, -0.72495, -0.00073, -0.68839,
 10:47:45.600,f6:90:cc:01:6d:25, 2015-01-01 00:18:13.690, 0.984, -0.035, -0.048, 0.366, 0.366, 0, -147.728, -86.743, -30.454, -31.187, -11.953, 3.533, 26.95, 0.02148, -0.72495, -0.00073, -0.68839,
 10:47:45.602,ed:35:33:d3:6c:f8, 2015-01-01 00:18:13.195, 0.799, -0.137, 0.572, -0.061, -0.183, 0.732, -13.513, -53.575, -157.451, -22.260, -6.947, -13.233, 29.36, -0.12042, 0.45959, -0.01614, 0.87973,
 10:47:45.602,ed:35:33:d3:6c:f8, 2015-01-01 00:18:13.195, 0.798, -0.14, 0.57, 0.183, -0.061, 0.854, -13.53, -53.575, -157.407, -22.260, -6.947, -13.233, 29.36, -0.12042, 0.45959, -0.01614, 0.87973,
 10:47:45.606,ed:40:fe:65:30:6c, 2015-01-01 00:18:12.690, 0.863, -0.005, 0.515, -0.061, -0.183, 0.793, -0.742, -59.326, -118.779, -26.180, -8.120, 1.073, 23.65, 0.43784, -0.42975, -0.24643, -0.75018,
 10:47:45.606,ed:40:fe:65:30:6c, 2015-01-01 00:18:12.690, 0.862, -0.008, 0.513, 0.244, -0.061, 0.793, -0.764, -59.326, -118.735, -26.180, -8.120, 1.073, 23.65, 0.43784, -0.42975, -0.24643, -0.75018,
 10:47:45.629,f6:90:cc:01:6d:25, 2015-01-01 00:18:13.690, 0.984, -0.03, -0.048, 0.549, 0.366, 0, -147.629, -86.748, -30.526, -31.187, -11.953, 3.533, 26.95, 0.02148, -0.72495, -0.00073, -0.68839,
 10:47:45.629,f6:90:cc:01:6d:25, 2015-01-01 00:18:13.690, 0.984, -0.027, -0.046, 0.488, 0.122, 0, -147.557, -86.748, -30.569, -31.187, -11.953, 3.533, 26.95, 0.02148, -0.72495, -0.00073, -0.68839,
 10:47:45.632,ed:35:33:d3:6c:f8, 2015-01-01 00:18:13.195, 0.796, -0.142, 0.569, 0.549, 0, 0.793, -13.541, -53.569, -157.368, -22.260, -6.947, -13.233, 29.36, -0.12042, 0.45959, -0.01614, 0.87973,
 10:47:45.632,ed:35:33:d3:6c:f8, 2015-01-01 00:18:13.195, 0.799, -0.141, 0.571, -0.061, 0.427, 0.183, -13.546, -53.564, -157.341, -22.260, -6.947, -13.233, 29.36, -0.12042, 0.45959, -0.01614, 0.87973,
 10:47:45.634,ed:40:fe:65:30:6c, 2015-01-01 00:18:12.690, 0.862, -0.007, 0.514, 0.305, 0, 0.549, -0.775, -59.326, -118.696, -26.180, -8.120, 1.073, 23.65, 0.44012, -0.42871, -0.24722, -0.74918,
 10:47:45.634,ed:40:fe:65:30:6c, 2015-01-01 00:18:12.690, 0.864, -0.006, 0.515, -0.366, 0.244, 0, -0.786, -59.321, -118.669, -26.180, -8.120, 1.073, 23.65, 0.44012, -0.42871, -0.24722, -0.74918,
 10:47:45.658,e3:ca:2d:fd:e0:8c, 2015-01-01 00:18:13.740, 1.001, -0.182, 0.083, 0.488, -0.366, 0, -65.16, -78.657, -134.555, -29.653, -8.107, -8.253, 24.47, -0.06363, -0.65265, 0.17816, -0.73358,
 10:47:45.658,e3:ca:2d:fd:e0:8c, 2015-01-01 00:18:13.740, 1.003, -0.182, 0.084, 0.244, -0.488, 0, -65.198, -78.657, -134.511, -29.653, -8.107, -8.253, 24.47, -0.06363, -0.65265, 0.17816, -0.73358,
 10:47:45.662,f6:90:cc:01:6d:25, 2015-01-01 00:18:13.690, 0.985, -0.028, -0.044, 0.183, 0.244, 0, -147.508, -86.754, -30.613, -31.187, -11.953, 3.533, 26.95, 0.02148, -0.72495, -0.00073, -0.68839,
 10:47:45.662,f6:90:cc:01:6d:25, 2015-01-01 00:18:13.690, 0.987, -0.028, -0.048, 0.122, 0.305, 0, -147.448, -86.759, -30.668, -31.187, -11.953, 3.533, 26.95, 0.02148, -0.72495, -0.00073, -0.68839,
 10:47:45.666,ed:40:fe:65:30:6c, 2015-01-01 00:18:12.690, 0.865, -0.006, 0.513, -0.183, 0.061, -0.366, -0.78, -59.315, -118.663, -26.180, -8.120, 1.073, 23.65, 0.44012, -0.42871, -0.24722, -0.74918,
 10:47:45.666,ed:40:fe:65:30:6c, 2015-01-01 00:18:12.690, 0.864, -0.004, 0.519, 0, -0.061, -0.305, -0.769, -59.315, -118.663, -26.180, -8.120, 1.073, 23.65, 0.44012, -0.42871, -0.24722, -0.74918,
 10:47:45.688,e3:ca:2d:fd:e0:8c, 2015-01-01 00:18:13.740, 1.003, -0.181, 0.084, 0.366, -0.366, 0, -65.226, -78.662, -134.478, -29.653, -8.107, -8.253, 24.47, -0.06363, -0.65265, 0.17816, -0.73358,
 10:47:45.688,e3:ca:2d:fd:e0:8c, 2015-01-01 00:18:13.740, 1.003, -0.183, 0.084, -0.061, -0.122, 0, -65.242, -78.662, -134.467, -29.653, -8.107, -8.253, 24.47, -0.06363, -0.65265, 0.17816, -0.73358,
 10:47:45.692,ed:35:33:d3:6c:f8, 2015-01-01 00:18:13.195, 0.801, -0.139, 0.571, -0.061, 0.305, -0.305, -13.541, -53.558, -157.335, -22.260, -6.947, -13.233, 29.36, -0.12042, 0.45959, -0.01614, 0.87973,
 10:47:45.692,ed:35:33:d3:6c:f8, 2015-01-01 00:18:13.195, 0.801, -0.136, 0.574, 0.305, 0.061, -0.183, -13.53, -53.558, -157.33, -22.260, -6.947, -13.233, 29.36, -0.12042, 0.45959, -0.01614, 0.87973,
 10:47:45.720,f6:90:cc:01:6d:25, 2015-01-01 00:18:13.690, 0.986, -0.031, -0.045, -0.488, 0.244, 0, -147.404, -86.759, -30.718, -31.647, -11.993, 2.713, 26.95, 0.02148, -0.72495, -0.00073, -0.68839,
 10:47:45.720,f6:90:cc:01:6d:25, 2015-01-01 00:18:13.690, 0.986, -0.032, -0.044, -0.427, 0.366, 0, -147.343, -86.765, -30.784, -31.647, -11.993, 2.713, 26.95, 0.02148, -0.72495, -0.00073, -0.68839,
 10:47:45.722,ed:35:33:d3:6c:f8, 2015-01-01 00:18:13.195, 0.802, -0.132, 0.578, -0.305, 0.244, 0, -13.53, -53.553, -157.319, -22.260, -6.947, -13.233, 29.36, -0.12042, 0.45959, -0.01614, 0.87973,
 10:47:45.722,ed:35:33:d3:6c:f8, 2015-01-01 00:18:13.195, 0.8, -0.131, 0.577, -0.61, 0.366, 0.061, -13.535, -53.547, -157.302, -22.260, -6.947, -13.233, 29.36, -0.12042, 0.45959, -0.01614, 0.87973,
 10:47:45.724,ed:40:fe:65:30:6c, 2015-01-01 00:18:13.105, 0.864, 0, 0.521, -0.61, 0.122, 0, -0.769, -59.31, -118.658, -26.180, -8.120, 1.073, 23.65, 0.44012, -0.42871, -0.24722, -0.74918,
 10:47:45.724,ed:40:fe:65:30:6c, 2015-01-01 00:18:13.105, 0.863, 0, 0.518, -0.732, 0.061, 0.305, -0.786, -59.304, -118.636, -26.180, -8.120, 1.073, 23.65, 0.44012, -0.42871, -0.24722, -0.74918,
 10:47:45.748,e3:ca:2d:fd:e0:8c, 2015-01-01 00:18:13.740, 1.004, -0.183, 0.083, 0.061, -0.183, 0, -65.259, -78.662, -134.445, -29.920, -7.973, -7.187, 24.47, -0.06363, -0.65265, 0.17816, -0.73358,
 10:47:45.748,e3:ca:2d:fd:e0:8c, 2015-01-01 00:18:13.740, 1.003, -0.182, 0.084, 0.122, -0.244, 0, -65.275, -78.668, -134.423, -29.920, -7.973, -7.187, 24.47, -0.06363, -0.65265, 0.17816, -0.73358,
 10:47:45.750,f6:90:cc:01:6d:25, 2015-01-01 00:18:13.690, 0.986, -0.03, -0.047, 0.122, 0.305, 0, -147.272, -86.77, -30.844, -31.647, -11.993, 2.713, 26.95, 0.02148, -0.72495, -0.00073, -0.68839,
 10:47:45.750,f6:90:cc:01:6d:25, 2015-01-01 00:18:13.690, 0.985, -0.03, -0.045, 0.427, 0.427, 0, -147.178, -86.776, -30.921, -31.647, -11.993, 2.713, 26.95, 0.02148, -0.72495, -0.00073, -0.68839,
 10:47:45.752,ed:35:33:d3:6c:f8, 2015-01-01 00:18:13.195, 0.8, -0.133, 0.574, -0.671, 0.061, 0.305, -13.552, -53.547, -157.28, -22.260, -6.947, -13.233, 29.36, -0.12042, 0.45959, -0.01614, 0.87973,
 10:47:45.752,ed:35:33:d3:6c:f8, 2015-01-01 00:18:13.195, 0.797, -0.138, 0.571, -0.183, -0.061, 0.732, -13.568, -53.542, -157.247, -22.260, -6.947, -13.233, 29.36, -0.12042, 0.45959, -0.01614, 0.87973,
 10:47:45.754,ed:40:fe:65:30:6c, 2015-01-01 00:18:13.105, 0.863, -0.003, 0.516, -0.549, -0.061, 0.549, -0.807, -59.304, -118.608, -26.180, -8.120, 1.073, 23.65, 0.44012, -0.42871, -0.24722, -0.74918,
 10:47:45.754,ed:40:fe:65:30:6c, 2015-01-01 00:18:13.105, 0.862, -0.007, 0.514, -0.061, -0.183, 0.732, -0.829, -59.304, -118.57, -26.180, -8.120, 1.073, 23.65, 0.44012, -0.42871, -0.24722, -0.74918,
 10:47:45.779,e3:ca:2d:fd:e0:8c, 2015-01-01 00:18:13.740, 1.002, -0.183, 0.083, 0.244, -0.366, 0, -65.308, -78.668, -134.39, -29.920, -7.973, -7.187, 24.47, -0.06363, -0.65265, 0.17816, -0.73358,
 10:47:45.779,e3:ca:2d:fd:e0:8c, 2015-01-01 00:18:13.740, 1, -0.184, 0.083, 0.244, -0.427, 0, -65.341, -78.673, -134.346, -29.920, -7.973, -7.187, 24.47, -0.06363, -0.65265, 0.17816, -0.73358,
 10:47:45.780,f6:90:cc:01:6d:25, 2015-01-01 00:18:13.690, 0.983, -0.032, -0.047, 0.549, 0.488, 0, -147.068, -86.786, -31.014, -31.647, -11.993, 2.713, 26.95, 0.02213, -0.72357, -0.00116, -0.68982,
 10:47:45.780,f6:90:cc:01:6d:25, 2015-01-01 00:18:13.690, 0.982, -0.03, -0.048, 0.671, 0.427, 0, -146.97, -86.792, -31.102, -31.647, -11.993, 2.713, 26.95, 0.02213, -0.72357, -0.00116, -0.68982,
 10:47:45.782,ed:35:33:d3:6c:f8, 2015-01-01 00:18:13.195, 0.797, -0.143, 0.569, 0.305, -0.244, 0.732, -13.585, -53.547, -157.209, -22.533, -6.820, -13.533, 29.36, -0.12042, 0.45959, -0.01614, 0.87973,
 10:47:45.782,ed:35:33:d3:6c:f8, 2015-01-01 00:18:13.195, 0.798, -0.144, 0.569, 0.427, -0.122, 0.244, -13.585, -53.547, -157.181, -22.533, -6.820, -13.533, 29.36, -0.12042, 0.45959, -0.01614, 0.87973,
 10:47:45.784,ed:40:fe:65:30:6c, 2015-01-01 00:18:13.105, 0.862, -0.01, 0.512, 0.305, -0.244, 0.488, -0.846, -59.304, -118.531, -26.180, -8.120, 1.073, 23.65, 0.44012, -0.42871, -0.24722, -0.74918,
 10:47:45.784,ed:40:fe:65:30:6c, 2015-01-01 00:18:13.105, 0.863, -0.009, 0.513, 0.244, -0.122, 0, -0.846, -59.31, -118.51, -26.180, -8.120, 1.073, 23.65, 0.44012, -0.42871, -0.24722, -0.74918,
 10:47:45.808,e3:ca:2d:fd:e0:8c, 2015-01-01 00:18:13.740, 1, -0.183, 0.082, 0.61, -0.183, 0, -65.347, -78.673, -134.33, -29.920, -7.973, -7.187, 24.47, -0.06284, -0.65372, 0.17783, -0.73279,
 10:47:45.808,e3:ca:2d:fd:e0:8c, 2015-01-01 00:18:13.740, 1.002, -0.183, 0.084, 0.305, -0.122, 0, -65.358, -78.673, -134.319, -29.920, -7.973, -7.187, 24.47, -0.06284, -0.65372, 0.17783, -0.73279,
 10:47:45.812,f6:90:cc:01:6d:25, 2015-01-01 00:18:13.690, 0.985, -0.029, -0.043, 0.183, 0.366, 0, -146.882, -86.797, -31.174, -31.647, -11.993, 2.713, 26.95, 0.02213, -0.72357, -0.00116, -0.68982,
 10:47:45.812,f6:90:cc:01:6d:25, 2015-01-01 00:18:13.690, 0.985, -0.03, -0.043, -0.122, 0.366, 0, -146.81, -86.803, -31.251, -31.647, -11.993, 2.713, 26.95, 0.02213, -0.72357, -0.00116, -0.68982,
 10:47:45.838,e3:ca:2d:fd:e0:8c, 2015-01-01 00:18:13.740, 1.003, -0.182, 0.083, 0, -0.366, 0, -65.391, -78.673, -134.286, -29.920, -7.973, -7.187, 24.47, -0.06284, -0.65372, 0.17783, -0.73279,
 10:47:45.838,e3:ca:2d:fd:e0:8c, 2015-01-01 00:18:13.740, 1.004, -0.182, 0.082, -0.244, -0.366, 0, -65.429, -78.679, -134.247, -29.920, -7.973, -7.187, 24.47, -0.06284, -0.65372, 0.17783, -0.73279,
 10:47:45.844,ed:35:33:d3:6c:f8, 2015-01-01 00:18:13.195, 0.799, -0.141, 0.57, 0.244, 0.061, -0.122, -13.579, -53.547, -157.165, -22.533, -6.820, -13.533, 29.36, -0.12042, 0.45959, -0.01614, 0.87973,
 10:47:45.844,ed:35:33:d3:6c:f8, 2015-01-01 00:18:13.195, 0.798, -0.136, 0.576, -0.305, 0.366, -0.427, -13.574, -53.547, -157.17, -22.533, -6.820, -13.533, 29.36, -0.12042, 0.45959, -0.01614, 0.87973,
 10:47:45.846,ed:40:fe:65:30:6c, 2015-01-01 00:18:13.105, 0.863, -0.007, 0.514, 0, 0.061, -0.244, -0.835, -59.304, -118.504, -26.180, -8.120, 1.073, 23.65, 0.44012, -0.42871, -0.24722, -0.74918,
 10:47:45.846,ed:40:fe:65:30:6c, 2015-01-01 00:18:13.105, 0.862, -0.002, 0.52, -0.671, 0.183, -0.427, -0.829, -59.304, -118.504, -26.180, -8.120, 1.073, 23.65, 0.44012, -0.42871, -0.24722, -0.74918,
 10:47:45.871,f6:90:cc:01:6d:25, 2015-01-01 00:18:14.105, 0.987, -0.029, -0.046, -0.488, 0.488, 0, -146.722, -86.814, -31.339, -31.647, -11.993, 2.713, 26.95, 0.02213, -0.72357, -0.00116, -0.68982,
 10:47:45.871,f6:90:cc:01:6d:25, 2015-01-01 00:18:14.105, 0.988, -0.028, -0.045, -0.732, 0.549, 0, -146.629, -86.819, -31.443, -31.647, -11.993, 2.713, 26.95, 0.02213, -0.72357, -0.00116, -0.68982,
 10:47:45.873,ed:35:33:d3:6c:f8, 2015-01-01 00:18:13.195, 0.802, -0.132, 0.577, -0.732, 0.427, -0.61, -13.568, -53.542, -157.176, -22.533, -6.820, -13.533, 29.36, -0.12323, 0.45932, -0.01489, 0.87949,
 10:47:45.873,ed:35:33:d3:6c:f8, 2015-01-01 00:18:13.195, 0.801, -0.133, 0.575, -0.488, 0, -0.427, -13.563, -53.542, -157.181, -22.533, -6.820, -13.533, 29.36, -0.12323, 0.45932, -0.01489, 0.87949,
 10:47:45.875,ed:40:fe:65:30:6c, 2015-01-01 00:18:13.105, 0.865, 0, 0.519, -0.916, 0.122, -0.488, -0.829, -59.299, -118.51, -26.180, -8.120, 1.073, 23.65, 0.44012, -0.42871, -0.24722, -0.74918,
 10:47:45.875,ed:40:fe:65:30:6c, 2015-01-01 00:18:13.105, 0.864, -0.003, 0.517, -0.488, -0.305, -0.305, -0.824, -59.299, -118.515, -26.180, -8.120, 1.073, 23.65, 0.44012, -0.42871, -0.24722, -0.74918,
 10:47:45.898,e3:ca:2d:fd:e0:8c, 2015-01-01 00:18:14.185, 1.004, -0.183, 0.083, -0.122, -0.305, 0, -65.462, -78.679, -134.22, -29.920, -7.973, -7.187, 24.47, -0.06284, -0.65372, 0.17783, -0.73279,
 10:47:45.898,e3:ca:2d:fd:e0:8c, 2015-01-01 00:18:14.185, 1.002, -0.184, 0.082, 0, -0.305, 0, -65.49, -78.684, -134.193, -29.920, -7.973, -7.187, 24.47, -0.06284, -0.65372, 0.17783, -0.73279,
 10:47:45.900,f6:90:cc:01:6d:25, 2015-01-01 00:18:14.105, 0.986, -0.03, -0.046, -0.488, 0.61, 0, -146.53, -86.83, -31.564, -31.647, -11.993, 2.713, 26.95, 0.02213, -0.72357, -0.00116, -0.68982,
 10:47:45.900,f6:90:cc:01:6d:25, 2015-01-01 00:18:14.105, 0.985, -0.035, -0.045, -0.305, 0.488, 0, -146.431, -86.841, -31.668, -31.647, -11.993, 2.713, 26.95, 0.02213, -0.72357, -0.00116, -0.68982,
 10:47:45.903,ed:35:33:d3:6c:f8, 2015-01-01 00:18:13.195, 0.802, -0.133, 0.573, 0, -0.183, 0, -13.563, -53.542, -157.17, -22.533, -6.820, -13.533, 29.36, -0.12323, 0.45932, -0.01489, 0.87949,
 10:47:45.903,ed:35:33:d3:6c:f8, 2015-01-01 00:18:13.195, 0.801, -0.135, 0.571, 0.488, -0.122, 0.549, -13.563, -53.547, -157.143, -22.533, -6.820, -13.533, 29.36, -0.12323, 0.45932, -0.01489, 0.87949,
 10:47:45.905,ed:40:fe:65:30:6c, 2015-01-01 00:18:13.105, 0.866, -0.004, 0.517, 0.061, -0.183, 0.061, -0.818, -59.299, -118.504, -26.273, -8.393, 1.527, 23.65, 0.44012, -0.42871, -0.24722, -0.74918,
 10:47:45.905,ed:40:fe:65:30:6c, 2015-01-01 00:18:13.105, 0.865, -0.005, 0.515, 0.366, -0.061, 0.61, -0.824, -59.299, -118.482, -26.273, -8.393, 1.527, 23.65, 0.44012, -0.42871, -0.24722, -0.74918,
 10:47:45.957,e3:ca:2d:fd:e0:8c, 2015-01-01 00:18:14.185, 1.001, -0.186, 0.08, -0.061, -0.244, 0, -65.517, -78.684, -134.165, -29.920, -7.973, -7.187, 24.47, -0.06284, -0.65372, 0.17783, -0.73279,
 10:47:45.957,e3:ca:2d:fd:e0:8c, 2015-01-01 00:18:14.185, 1.003, -0.187, 0.083, 0.122, -0.305, 0, -65.544, -78.69, -134.138, -29.920, -7.973, -7.187, 24.47, -0.06284, -0.65372, 0.17783, -0.73279,
 10:47:45.959,e3:ca:2d:fd:e0:8c, 2015-01-01 00:18:14.185, 1.003, -0.186, 0.082, 0.61, -0.427, 0, -65.577, -78.69, -134.099, -29.920, -7.973, -7.187, 24.47, -0.06284, -0.65372, 0.17783, -0.73279,
 10:47:45.959,e3:ca:2d:fd:e0:8c, 2015-01-01 00:18:14.185, 0.999, -0.186, 0.082, 0.732, -0.244, 0, -65.588, -78.69, -134.072, -29.920, -7.973, -7.187, 24.47, -0.06284, -0.65372, 0.17783, -0.73279,
 10:47:45.962,ed:35:33:d3:6c:f8, 2015-01-01 00:18:13.585, 0.801, -0.137, 0.569, 0.488, 0.183, 0.916, -13.574, -53.542, -157.099, -22.533, -6.820, -13.533, 29.36, -0.12323, 0.45932, -0.01489, 0.87949,
 10:47:45.962,ed:35:33:d3:6c:f8, 2015-01-01 00:18:13.585, 0.792, -0.142, 0.572, 0.671, 0, 0.854, -13.579, -53.536, -157.061, -22.533, -6.820, -13.533, 29.36, -0.12323, 0.45932, -0.01489, 0.87949,
 10:47:45.966,ed:40:fe:65:30:6c, 2015-01-01 00:18:13.105, 0.864, -0.005, 0.513, 0.427, 0.244, 0.916, -0.84, -59.293, -118.438, -26.273, -8.393, 1.527, 23.65, 0.44012, -0.42871, -0.24722, -0.74918,
 10:47:45.966,ed:40:fe:65:30:6c, 2015-01-01 00:18:13.105, 0.856, -0.009, 0.515, 0.549, 0, 0.793, -0.851, -59.293, -118.394, -26.273, -8.393, 1.527, 23.65, 0.44012, -0.42871, -0.24722, -0.74918,
 10:47:45.989,f6:90:cc:01:6d:25, 2015-01-01 00:18:14.105, 0.985, -0.036, -0.046, 0.122, 0.427, 0, -146.338, -86.847, -31.756, -31.647, -11.993, 2.713, 26.95, 0.02213, -0.72357, -0.00116, -0.68982,
 10:47:45.989,f6:90:cc:01:6d:25, 2015-01-01 00:18:14.105, 0.986, -0.033, -0.047, 0.427, 0.61, 0, -146.201, -86.852, -31.871, -31.647, -11.993, 2.713, 26.95, 0.02213, -0.72357, -0.00116, -0.68982,
 10:47:45.991,ed:35:33:d3:6c:f8, 2015-01-01 00:18:13.585, 0.796, -0.142, 0.57, 0, 0.488, 0.61, -13.59, -53.531, -157.028, -22.533, -6.820, -13.533, 29.36, -0.12323, 0.45932, -0.01489, 0.87949,
 10:47:45.991,ed:35:33:d3:6c:f8, 2015-01-01 00:18:13.585, 0.801, -0.142, 0.572, -0.366, 0.549, 0, -13.596, -53.52, -157.017, -22.533, -6.820, -13.533, 29.36, -0.12323, 0.45932, -0.01489, 0.87949,
 10:47:45.995,ed:40:fe:65:30:6c, 2015-01-01 00:18:13.105, 0.861, -0.009, 0.516, -0.244, 0.488, 0.488, -0.868, -59.282, -118.361, -26.273, -8.393, 1.527, 23.65, 0.44174, -0.42819, -0.24768, -0.74835,
 10:47:45.995,ed:40:fe:65:30:6c, 2015-01-01 00:18:13.105, 0.865, -0.006, 0.512, -0.61, 0.244, 0, -0.879, -59.277, -118.345, -26.273, -8.393, 1.527, 23.65, 0.44174, -0.42819, -0.24768, -0.74835,
 10:47:46.017,e3:ca:2d:fd:e0:8c, 2015-01-01 00:18:14.185, 1, -0.183, 0.082, 0.61, -0.122, 0, -65.588, -78.69, -134.061, -29.920, -7.973, -7.187, 24.47, -0.06284, -0.65372, 0.17783, -0.73279,
 10:47:46.017,e3:ca:2d:fd:e0:8c, 2015-01-01 00:18:14.185, 1.004, -0.183, 0.082, 0.366, 0, 0, -65.588, -78.69, -134.061, -29.920, -7.973, -7.187, 24.47, -0.06284, -0.65372, 0.17783, -0.73279,
 10:47:46.021,f6:90:cc:01:6d:25, 2015-01-01 00:18:14.105, 0.982, -0.031, -0.045, 0.671, 0.732, 0, -146.036, -86.863, -32.014, -31.647, -11.993, 2.713, 26.95, 0.02213, -0.72357, -0.00116, -0.68982,
 10:47:46.021,f6:90:cc:01:6d:25, 2015-01-01 00:18:14.105, 0.981, -0.031, -0.042, 0.305, 0.549, 0, -145.893, -86.874, -32.141, -31.647, -11.993, 2.713, 26.95, 0.02213, -0.72357, -0.00116, -0.68982,
 10:47:46.022,ed:35:33:d3:6c:f8, 2015-01-01 00:18:13.585, 0.801, -0.137, 0.574, 0.061, 0.244, -0.183, -13.596, -53.514, -157.011, -22.533, -6.820, -13.533, 29.36, -0.12323, 0.45932, -0.01489, 0.87949,
 10:47:46.022,ed:35:33:d3:6c:f8, 2015-01-01 00:18:13.585, 0.8, -0.139, 0.575, 0.488, 0.244, 0, -13.585, -53.509, -157, -22.533, -6.820, -13.533, 29.36, -0.12323, 0.45932, -0.01489, 0.87949,
 10:47:46.027,ed:40:fe:65:30:6c, 2015-01-01 00:18:13.105, 0.865, -0.005, 0.519, -0.061, 0.122, -0.244, -0.879, -59.271, -118.345, -26.273, -8.393, 1.527, 23.65, 0.44174, -0.42819, -0.24768, -0.74835,
 10:47:46.027,ed:40:fe:65:30:6c, 2015-01-01 00:18:13.105, 0.863, -0.008, 0.519, 0.244, 0.061, -0.061, -0.868, -59.266, -118.334, -26.273, -8.393, 1.527, 23.65, 0.44174, -0.42819, -0.24768, -0.74835,
 10:47:46.049,e3:ca:2d:fd:e0:8c, 2015-01-01 00:18:14.185, 1.004, -0.183, 0.082, 0, 0, 0, -65.588, -78.69, -134.061, -29.920, -7.973, -7.187, 24.47, -0.06284, -0.65372, 0.17783, -0.73279,
 10:47:46.049,e3:ca:2d:fd:e0:8c, 2015-01-01 00:18:14.185, 1.003, -0.185, 0.079, -0.671, 0.061, 0, -65.605, -78.69, -134.066, -29.920, -7.973, -7.187, 24.47, -0.06284, -0.65372, 0.17783, -0.73279,
 10:47:46.049,f6:90:cc:01:6d:25, 2015-01-01 00:18:14.105, 0.986, -0.03, -0.043, -0.061, 0.305, 0, -145.811, -86.88, -32.217, -31.647, -11.993, 2.713, 26.95, 0.02213, -0.72357, -0.00116, -0.68982,
 10:47:46.049,f6:90:cc:01:6d:25, 2015-01-01 00:18:14.105, 0.988, -0.029, -0.045, -0.854, 0.183, 0, -145.778, -86.88, -32.25, -31.647, -11.993, 2.713, 26.95, 0.02213, -0.72357, -0.00116, -0.68982,
 10:47:46.077,e3:ca:2d:fd:e0:8c, 2015-01-01 00:18:14.185, 1.002, -0.183, 0.081, -0.427, 0.183, 0, -65.599, -78.684, -134.083, -29.800, -8.147, -7.760, 24.47, -0.06284, -0.65372, 0.17783, -0.73279,
 10:47:46.077,e3:ca:2d:fd:e0:8c, 2015-01-01 00:18:14.185, 1.001, -0.183, 0.081, 0, 0.183, 0, -65.594, -78.684, -134.099, -29.800, -8.147, -7.760, 24.47, -0.06284, -0.65372, 0.17783, -0.73279,
 10:47:46.080,f6:90:cc:01:6d:25, 2015-01-01 00:18:14.105, 0.986, -0.032, -0.045, -1.16, -0.122, 0, -145.822, -86.874, -32.234, -31.647, -11.993, 2.713, 26.95, 0.02213, -0.72357, -0.00116, -0.68982,
 10:47:46.080,f6:90:cc:01:6d:25, 2015-01-01 00:18:14.105, 0.985, -0.032, -0.046, -0.732, -0.183, 0, -145.865, -86.874, -32.195, -31.647, -11.993, 2.713, 26.95, 0.02213, -0.72357, -0.00116, -0.68982,
 10:47:46.083,ed:35:33:d3:6c:f8, 2015-01-01 00:18:13.585, 0.798, -0.139, 0.576, 0.61, 0.244, 0.244, -13.574, -53.509, -156.984, -22.533, -6.820, -13.533, 29.36, -0.12323, 0.45932, -0.01489, 0.87949,
 10:47:46.083,ed:35:33:d3:6c:f8, 2015-01-01 00:18:13.585, 0.797, -0.135, 0.576, 0.305, 0.061, 0.366, -13.574, -53.503, -156.962, -22.533, -6.820, -13.533, 29.36, -0.12323, 0.45932, -0.01489, 0.87949,
 10:47:46.110,f6:90:cc:01:6d:25, 2015-01-01 00:18:14.105, 0.983, -0.031, -0.045, -0.183, 0, 0, -145.86, -86.874, -32.179, -31.773, -11.887, 2.353, 26.95, 0.02213, -0.72357, -0.00116, -0.68982,
 10:47:46.110,f6:90:cc:01:6d:25, 2015-01-01 00:18:14.105, 0.984, -0.031, -0.041, -0.183, -0.061, 0, -145.86, -86.869, -32.157, -31.773, -11.887, 2.353, 26.95, 0.02213, -0.72357, -0.00116, -0.68982,
 10:47:46.114,ed:40:fe:65:30:6c, 2015-01-01 00:18:13.465, 0.86, -0.008, 0.519, 0.305, 0.183, 0.122, -0.862, -59.26, -118.323, -26.273, -8.393, 1.527, 23.65, 0.44174, -0.42819, -0.24768, -0.74835,
 10:47:46.114,ed:40:fe:65:30:6c, 2015-01-01 00:18:13.465, 0.86, -0.003, 0.518, 0.122, 0, 0.305, -0.868, -59.26, -118.301, -26.273, -8.393, 1.527, 23.65, 0.44174, -0.42819, -0.24768, -0.74835,
 10:47:46.114,ed:35:33:d3:6c:f8, 2015-01-01 00:18:13.585, 0.797, -0.134, 0.576, 0.061, 0.061, 0.366, -13.579, -53.503, -156.94, -22.533, -6.820, -13.533, 29.36, -0.12323, 0.45932, -0.01489, 0.87949,
 10:47:46.114,ed:35:33:d3:6c:f8, 2015-01-01 00:18:13.585, 0.797, -0.14, 0.572, 0.061, 0, 0.488, -13.59, -53.498, -156.912, -22.533, -6.820, -13.533, 29.36, -0.12323, 0.45932, -0.01489, 0.87949,
 10:47:46.116,ed:40:fe:65:30:6c, 2015-01-01 00:18:13.465, 0.861, -0.004, 0.518, 0, 0, 0.427, -0.879, -59.255, -118.273, -26.273, -8.393, 1.527, 23.65, 0.44174, -0.42819, -0.24768, -0.74835,
 10:47:46.116,ed:40:fe:65:30:6c, 2015-01-01 00:18:13.465, 0.862, -0.009, 0.515, 0, -0.122, 0.427, -0.89, -59.255, -118.251, -26.273, -8.393, 1.527, 23.65, 0.44174, -0.42819, -0.24768, -0.74835,
 10:47:46.138,e3:ca:2d:fd:e0:8c, 2015-01-01 00:18:14.185, 1.001, -0.182, 0.083, 0, 0, 0, -65.599, -78.684, -134.099, -29.800, -8.147, -7.760, 24.47, -0.06284, -0.65372, 0.17783, -0.73279,
 10:47:46.138,e3:ca:2d:fd:e0:8c, 2015-01-01 00:18:14.185, 1.002, -0.184, 0.083, -0.122, -0.244, 0, -65.627, -78.684, -134.072, -29.800, -8.147, -7.760, 24.47, -0.06284, -0.65372, 0.17783, -0.73279,
 10:47:46.142,ed:35:33:d3:6c:f8, 2015-01-01 00:18:13.585, 0.797, -0.142, 0.571, 0.244, -0.061, 0.61, -13.601, -53.498, -156.885, -21.680, -7.013, -13.673, 29.36, -0.12323, 0.45932, -0.01489, 0.87949,
 10:47:46.142,ed:35:33:d3:6c:f8, 2015-01-01 00:18:13.585, 0.797, -0.139, 0.571, 0.366, 0.122, 0.366, -13.607, -53.492, -156.857, -21.680, -7.013, -13.673, 29.36, -0.12323, 0.45932, -0.01489, 0.87949,
 10:47:46.146,ed:40:fe:65:30:6c, 2015-01-01 00:18:13.465, 0.861, -0.01, 0.515, 0.244, -0.122, 0.427, -0.901, -59.255, -118.224, -26.273, -8.393, 1.527, 23.65, 0.44174, -0.42819, -0.24768, -0.74835,
 10:47:46.146,ed:40:fe:65:30:6c, 2015-01-01 00:18:13.465, 0.861, -0.006, 0.515, 0.183, 0.061, 0.244, -0.901, -59.255, -118.202, -26.273, -8.393, 1.527, 23.65, 0.44174, -0.42819, -0.24768, -0.74835,
 10:47:46.170,f6:90:cc:01:6d:25, 2015-01-01 00:18:14.105, 0.984, -0.032, -0.043, -0.122, 0, 0, -145.849, -86.869, -32.168, -31.773, -11.887, 2.353, 26.95, 0.02213, -0.72357, -0.00116, -0.68982,
 10:47:46.170,f6:90:cc:01:6d:25, 2015-01-01 00:18:14.105, 0.984, -0.033, -0.046, 0.061, 0.061, 0, -145.816, -86.869, -32.195, -31.773, -11.887, 2.353, 26.95, 0.02213, -0.72357, -0.00116, -0.68982,
 10:47:46.198,e3:ca:2d:fd:e0:8c, 2015-01-01 00:18:14.185, 1.001, -0.186, 0.083, -0.061, 0, 0, -65.632, -78.684, -134.072, -29.800, -8.147, -7.760, 24.47, -0.06274, -0.65405, 0.17801, -0.73245,
 10:47:46.198,e3:ca:2d:fd:e0:8c, 2015-01-01 00:18:14.185, 1.002, -0.184, 0.081, 0.061, 0.122, 0, -65.621, -78.684, -134.083, -29.800, -8.147, -7.760, 24.47, -0.06274, -0.65405, 0.17801, -0.73245,
 10:47:46.205,ed:40:fe:65:30:6c, 2015-01-01 00:18:13.465, 0.863, -0.008, 0.516, 0.183, 0.122, -0.061, -0.895, -59.249, -118.191, -26.273, -8.393, 1.527, 23.65, 0.44174, -0.42819, -0.24768, -0.74835,
 10:47:46.205,ed:40:fe:65:30:6c, 2015-01-01 00:18:13.465, 0.862, -0.012, 0.516, 0.183, 0.122, -0.122, -0.89, -59.244, -118.185, -26.273, -8.393, 1.527, 23.65, 0.44174, -0.42819, -0.24768, -0.74835,
 10:47:46.229,f6:90:cc:01:6d:25, 2015-01-01 00:18:14.105, 0.984, -0.032, -0.044, -0.183, 0, 0, -145.805, -86.869, -32.212, -31.773, -11.887, 2.353, 26.95, 0.02277, -0.72284, -0.00165, -0.69055,
 10:47:46.229,f6:90:cc:01:6d:25, 2015-01-01 00:18:14.105, 0.986, -0.029, -0.042, -0.244, 0, 0, -145.794, -86.869, -32.239, -31.773, -11.887, 2.353, 26.95, 0.02277, -0.72284, -0.00165, -0.69055,
 10:47:46.233,ed:35:33:d3:6c:f8, 2015-01-01 00:18:13.585, 0.798, -0.14, 0.573, 0.427, 0.183, 0, -13.601, -53.492, -156.846, -21.680, -7.013, -13.673, 29.36, -0.12323, 0.45932, -0.01489, 0.87949,
 10:47:46.233,ed:35:33:d3:6c:f8, 2015-01-01 00:18:13.585, 0.797, -0.144, 0.573, 0.427, 0.183, 0, -13.59, -53.487, -156.835, -21.680, -7.013, -13.673, 29.36, -0.12323, 0.45932, -0.01489, 0.87949,
 10:47:46.235,ed:40:fe:65:30:6c, 2015-01-01 00:18:13.465, 0.862, -0.008, 0.518, -0.061, 0.244, -0.427, -0.879, -59.238, -118.191, -26.273, -8.393, 1.527, 23.65, 0.44174, -0.42819, -0.24768, -0.74835,
 10:47:46.235,ed:40:fe:65:30:6c, 2015-01-01 00:18:13.465, 0.864, -0.004, 0.519, -0.244, 0.244, -0.854, -0.857, -59.233, -118.207, -26.273, -8.393, 1.527, 23.65, 0.44174, -0.42819, -0.24768, -0.74835,
 10:47:46.257,e3:ca:2d:fd:e0:8c, 2015-01-01 00:18:14.185, 1.003, -0.182, 0.082, 0.183, 0, 0, -65.627, -78.684, -134.083, -29.800, -8.147, -7.760, 24.47, -0.06274, -0.65405, 0.17801, -0.73245,
 10:47:46.257,e3:ca:2d:fd:e0:8c, 2015-01-01 00:18:14.185, 1.004, -0.183, 0.083, 0, -0.183, 0, -65.643, -78.684, -134.066, -29.800, -8.147, -7.760, 24.47, -0.06274, -0.65405, 0.17801, -0.73245,
 10:47:46.263,ed:35:33:d3:6c:f8, 2015-01-01 00:18:13.585, 0.798, -0.143, 0.573, 0.122, 0.305, -0.305, -13.579, -53.487, -156.835, -21.680, -7.013, -13.673, 29.36, -0.12576, 0.45898, -0.01385, 0.87933,
 10:47:46.263,ed:35:33:d3:6c:f8, 2015-01-01 00:18:13.585, 0.801, -0.137, 0.575, 0, 0.427, -0.854, -13.563, -53.481, -156.852, -21.680, -7.013, -13.673, 29.36, -0.12576, 0.45898, -0.01385, 0.87933,
 10:47:46.265,ed:40:fe:65:30:6c, 2015-01-01 00:18:13.465, 0.864, -0.006, 0.521, -0.122, 0.183, -0.61, -0.835, -59.227, -118.224, -26.493, -8.720, 0.547, 23.65, 0.44174, -0.42819, -0.24768, -0.74835,
 10:47:46.265,ed:40:fe:65:30:6c, 2015-01-01 00:18:13.465, 0.862, -0.005, 0.518, 0, 0, 0, -0.829, -59.222, -118.224, -26.493, -8.720, 0.547, 23.65, 0.44174, -0.42819, -0.24768, -0.74835,
 10:47:46.287,e3:ca:2d:fd:e0:8c, 2015-01-01 00:18:14.545, 1.002, -0.183, 0.084, -0.732, -0.244, 0, -65.682, -78.684, -134.044, -29.800, -8.147, -7.760, 24.47, -0.06274, -0.65405, 0.17801, -0.73245,
 10:47:46.287,e3:ca:2d:fd:e0:8c, 2015-01-01 00:18:14.545, 1.002, -0.182, 0.083, -0.61, -0.488, 0, -65.742, -78.69, -133.995, -29.800, -8.147, -7.760, 24.47, -0.06274, -0.65405, 0.17801, -0.73245,
 10:47:46.289,e3:ca:2d:fd:e0:8c, 2015-01-01 00:18:14.545, 1.004, -0.186, 0.079, -0.488, -0.366, 0, -65.786, -78.69, -133.962, -29.800, -8.147, -7.760, 24.47, -0.06274, -0.65405, 0.17801, -0.73245,
 10:47:46.289,e3:ca:2d:fd:e0:8c, 2015-01-01 00:18:14.545, 1.004, -0.187, 0.082, -0.122, 0.671, 0, -65.753, -78.69, -133.995, -29.800, -8.147, -7.760, 24.47, -0.06274, -0.65405, 0.17801, -0.73245,
 10:47:46.291,f6:90:cc:01:6d:25, 2015-01-01 00:18:14.105, 0.987, -0.029, -0.042, -0.244, 0.061, 0, -145.772, -86.869, -32.278, -31.773, -11.887, 2.353, 26.95, 0.02277, -0.72284, -0.00165, -0.69055,
 10:47:46.291,f6:90:cc:01:6d:25, 2015-01-01 00:18:14.105, 0.986, -0.029, -0.042, -0.244, 0.183, 0, -145.723, -86.874, -32.311, -31.773, -11.887, 2.353, 26.95, 0.02277, -0.72284, -0.00165, -0.69055,
 10:47:46.293,ed:35:33:d3:6c:f8, 2015-01-01 00:18:13.585, 0.801, -0.135, 0.579, 0, 0.427, -0.671, -13.541, -53.476, -156.868, -21.680, -7.013, -13.673, 29.36, -0.12576, 0.45898, -0.01385, 0.87933,
 10:47:46.293,ed:35:33:d3:6c:f8, 2015-01-01 00:18:13.585, 0.799, -0.135, 0.578, 0.122, 0.061, 0, -13.535, -53.476, -156.863, -21.680, -7.013, -13.673, 29.36, -0.12576, 0.45898, -0.01385, 0.87933,
 10:47:46.317,e3:ca:2d:fd:e0:8c, 2015-01-01 00:18:14.545, 1.002, -0.185, 0.082, 0.244, 0.244, 0, -65.709, -78.684, -134.05, -29.800, -8.147, -7.760, 24.47, -0.06274, -0.65405, 0.17801, -0.73245,
 10:47:46.317,e3:ca:2d:fd:e0:8c, 2015-01-01 00:18:14.545, 1.002, -0.183, 0.08, 0.671, 0, 0, -65.693, -78.679, -134.066, -29.800, -8.147, -7.760, 24.47, -0.06274, -0.65405, 0.17801, -0.73245,
 10:47:46.320,f6:90:cc:01:6d:25, 2015-01-01 00:18:14.525, 0.986, -0.03, -0.04, -0.61, 0.244, 0, -145.673, -86.88, -32.344, -31.773, -11.887, 2.353, 26.95, 0.02277, -0.72284, -0.00165, -0.69055,
 10:47:46.320,f6:90:cc:01:6d:25, 2015-01-01 00:18:14.525, 0.985, -0.034, -0.043, -0.488, 0.427, 0, -145.574, -86.885, -32.415, -31.773, -11.887, 2.353, 26.95, 0.02277, -0.72284, -0.00165, -0.69055,
 10:47:46.320,f6:90:cc:01:6d:25, 2015-01-01 00:18:14.525, 0.985, -0.034, -0.053, 0.244, 0.427, -0.366, -145.58, -86.896, -32.382, -31.773, -11.887, 2.353, 26.95, 0.02277, -0.72284, -0.00165, -0.69055,
 10:47:46.320,f6:90:cc:01:6d:25, 2015-01-01 00:18:14.525, 0.989, -0.035, -0.048, 0, -0.244, -0.061, -145.635, -86.891, -32.305, -31.773, -11.887, 2.353, 26.95, 0.02277, -0.72284, -0.00165, -0.69055,
 10:47:46.322,ed:35:33:d3:6c:f8, 2015-01-01 00:18:13.585, 0.801, -0.133, 0.574, 0.183, -0.244, 0.244, -13.535, -53.476, -156.846, -21.680, -7.013, -13.673, 29.36, -0.12576, 0.45898, -0.01385, 0.87933,
 10:47:46.322,ed:35:33:d3:6c:f8, 2015-01-01 00:18:13.585, 0.801, -0.135, 0.572, 0.183, -0.061, 0.244, -13.541, -53.476, -156.83, -21.680, -7.013, -13.673, 29.36, -0.12576, 0.45898, -0.01385, 0.87933,
 10:47:46.325,ed:40:fe:65:30:6c, 2015-01-01 00:18:13.465, 0.865, -0.002, 0.516, 0.122, -0.305, 0.244, -0.835, -59.222, -118.207, -26.493, -8.720, 0.547, 23.65, 0.44174, -0.42819, -0.24768, -0.74835,
 10:47:46.325,ed:40:fe:65:30:6c, 2015-01-01 00:18:13.465, 0.865, -0.004, 0.517, 0.183, -0.122, 0.366, -0.84, -59.227, -118.185, -26.493, -8.720, 0.547, 23.65, 0.44174, -0.42819, -0.24768, -0.74835,
 10:47:46.350,f6:90:cc:01:6d:25, 2015-01-01 00:18:14.525, 0.986, -0.033, -0.04, -0.183, -0.061, 0, -145.629, -86.891, -32.294, -31.773, -11.887, 2.353, 26.95, 0.02277, -0.72284, -0.00165, -0.69055,
 10:47:46.350,f6:90:cc:01:6d:25, 2015-01-01 00:18:14.525, 0.984, -0.031, -0.044, 0.488, 0.183, -0.061, -145.58, -86.891, -32.322, -31.773, -11.887, 2.353, 26.95, 0.02277, -0.72284, -0.00165, -0.69055,
 10:47:46.352,ed:35:33:d3:6c:f8, 2015-01-01 00:18:13.970, 0.799, -0.14, 0.573, 0.305, 0.122, 0.427, -13.541, -53.476, -156.808, -21.680, -7.013, -13.673, 29.36, -0.12576, 0.45898, -0.01385, 0.87933,
 10:47:46.352,ed:35:33:d3:6c:f8, 2015-01-01 00:18:13.970, 0.798, -0.141, 0.572, 0.366, 0, 0.305, -13.541, -53.476, -156.786, -21.680, -7.013, -13.673, 29.36, -0.12576, 0.45898, -0.01385, 0.87933,
 10:47:46.356,ed:40:fe:65:30:6c, 2015-01-01 00:18:13.465, 0.862, -0.008, 0.517, 0.244, 0, 0.427, -0.846, -59.222, -118.158, -26.493, -8.720, 0.547, 23.65, 0.44333, -0.42725, -0.24829, -0.74777,
 10:47:46.356,ed:40:fe:65:30:6c, 2015-01-01 00:18:13.465, 0.861, -0.007, 0.515, 0.244, 0, 0.183, -0.851, -59.222, -118.141, -26.493, -8.720, 0.547, 23.65, 0.44333, -0.42725, -0.24829, -0.74777,
 10:47:46.380,f6:90:cc:01:6d:25, 2015-01-01 00:18:14.525, 0.985, -0.028, -0.048, 0.61, 0.244, -0.061, -145.525, -86.896, -32.355, -31.773, -11.887, 2.353, 26.95, 0.02277, -0.72284, -0.00165, -0.69055,
 10:47:46.380,f6:90:cc:01:6d:25, 2015-01-01 00:18:14.525, 0.986, -0.029, -0.042, -0.977, -0.183, 0.061, -145.536, -86.891, -32.338, -31.773, -11.887, 2.353, 26.95, 0.02277, -0.72284, -0.00165, -0.69055,
 10:47:46.386,ed:40:fe:65:30:6c, 2015-01-01 00:18:13.465, 0.861, -0.003, 0.515, 0, -0.061, -0.183, -0.84, -59.222, -118.136, -26.493, -8.720, 0.547, 23.65, 0.44333, -0.42725, -0.24829, -0.74777,
 10:47:46.386,ed:40:fe:65:30:6c, 2015-01-01 00:18:13.465, 0.861, -0.003, 0.518, -0.366, 0, -0.366, -0.835, -59.222, -118.136, -26.493, -8.720, 0.547, 23.65, 0.44333, -0.42725, -0.24829, -0.74777,
 10:47:46.407,e3:ca:2d:fd:e0:8c, 2015-01-01 00:18:14.545, 1.002, -0.182, 0.08, 0.366, 0.244, 0, -65.682, -78.679, -134.072, -29.800, -8.147, -7.760, 24.47, -0.06274, -0.65405, 0.17801, -0.73245,
 10:47:46.407,e3:ca:2d:fd:e0:8c, 2015-01-01 00:18:14.545, 1.001, -0.181, 0.082, -0.183, 0.488, 0, -65.66, -78.673, -134.099, -29.800, -8.147, -7.760, 24.47, -0.06274, -0.65405, 0.17801, -0.73245,
 10:47:46.407,e3:ca:2d:fd:e0:8c, 2015-01-01 00:18:14.545, 1.002, -0.182, 0.081, -0.183, 0.366, 0, -65.627, -78.673, -134.138, -29.800, -8.147, -7.760, 24.47, -0.06274, -0.65405, 0.17801, -0.73245,
 10:47:46.407,e3:ca:2d:fd:e0:8c, 2015-01-01 00:18:14.545, 1.002, -0.182, 0.08, -0.183, 0, 0, -65.61, -78.668, -134.165, -29.800, -8.147, -7.760, 24.47, -0.06274, -0.65405, 0.17801, -0.73245,
 10:47:46.409,f6:90:cc:01:6d:25, 2015-01-01 00:18:14.525, 0.984, -0.03, -0.041, -0.732, -0.061, 0, -145.569, -86.891, -32.322, -31.773, -11.887, 2.353, 26.95, 0.02277, -0.72284, -0.00165, -0.69055,
 10:47:46.409,f6:90:cc:01:6d:25, 2015-01-01 00:18:14.525, 0.985, -0.027, -0.048, -0.244, -0.305, 0, -145.607, -86.885, -32.289, -31.773, -11.887, 2.353, 26.95, 0.02277, -0.72284, -0.00165, -0.69055,
 10:47:46.413,ed:35:33:d3:6c:f8, 2015-01-01 00:18:13.970, 0.798, -0.137, 0.572, 0.122, 0.122, -0.122, -13.535, -53.476, -156.775, -21.680, -7.013, -13.673, 29.36, -0.12576, 0.45898, -0.01385, 0.87933,
 10:47:46.413,ed:35:33:d3:6c:f8, 2015-01-01 00:18:13.970, 0.796, -0.135, 0.574, -0.183, 0.122, -0.427, -13.53, -53.476, -156.78, -21.680, -7.013, -13.673, 29.36, -0.12576, 0.45898, -0.01385, 0.87933,
 10:47:46.437,e3:ca:2d:fd:e0:8c, 2015-01-01 00:18:14.545, 1.003, -0.181, 0.082, -0.183, 0.366, 0, -65.61, -78.668, -134.171, -29.800, -8.147, -7.760, 24.47, -0.06274, -0.65405, 0.17801, -0.73245,
 10:47:46.437,e3:ca:2d:fd:e0:8c, 2015-01-01 00:18:14.545, 1.002, -0.181, 0.085, -0.488, 0.305, 0, -65.594, -78.668, -134.203, -29.800, -8.147, -7.760, 24.47, -0.06274, -0.65405, 0.17801, -0.73245,
 10:47:46.443,ed:35:33:d3:6c:f8, 2015-01-01 00:18:13.970, 0.796, -0.136, 0.577, -0.488, 0.305, -0.427, -13.524, -53.47, -156.786, -21.680, -7.013, -13.673, 29.36, -0.12576, 0.45898, -0.01385, 0.87933,
 10:47:46.443,ed:35:33:d3:6c:f8, 2015-01-01 00:18:13.970, 0.797, -0.138, 0.578, -0.671, 0.244, -0.488, -13.524, -53.47, -156.791, -21.680, -7.013, -13.673, 29.36, -0.12576, 0.45898, -0.01385, 0.87933,
 10:47:46.445,ed:40:fe:65:30:6c, 2015-01-01 00:18:13.820, 0.86, -0.004, 0.521, -0.671, 0.122, -0.366, -0.829, -59.216, -118.141, -26.493, -8.720, 0.547, 23.65, 0.44333, -0.42725, -0.24829, -0.74777,
 10:47:46.445,ed:40:fe:65:30:6c, 2015-01-01 00:18:13.820, 0.861, -0.005, 0.519, -0.732, 0, -0.488, -0.829, -59.211, -118.152, -26.493, -8.720, 0.547, 23.65, 0.44333, -0.42725, -0.24829, -0.74777,
 10:47:46.473,ed:35:33:d3:6c:f8, 2015-01-01 00:18:13.970, 0.799, -0.139, 0.574, -0.305, -0.122, -0.671, -13.513, -53.47, -156.802, -21.680, -7.013, -13.673, 29.36, -0.12576, 0.45898, -0.01385, 0.87933,
 10:47:46.473,ed:35:33:d3:6c:f8, 2015-01-01 00:18:13.970, 0.799, -0.137, 0.575, -0.183, -0.122, -0.549, -13.502, -53.476, -156.813, -21.680, -7.013, -13.673, 29.36, -0.12576, 0.45898, -0.01385, 0.87933,
 10:47:46.475,ed:40:fe:65:30:6c, 2015-01-01 00:18:13.820, 0.863, -0.007, 0.516, -0.366, -0.366, -0.671, -0.813, -59.216, -118.169, -26.493, -8.720, 0.547, 23.65, 0.44333, -0.42725, -0.24829, -0.74777,
 10:47:46.475,ed:40:fe:65:30:6c, 2015-01-01 00:18:13.820, 0.863, -0.006, 0.521, -0.305, -0.305, -0.549, -0.797, -59.222, -118.18, -26.493, -8.720, 0.547, 23.65, 0.44333, -0.42725, -0.24829, -0.74777,
 10:47:46.498,e3:ca:2d:fd:e0:8c, 2015-01-01 00:18:14.545, 1.001, -0.184, 0.083, -0.549, 0.122, 0, -65.583, -78.668, -134.225, -29.800, -8.147, -7.760, 24.47, -0.06274, -0.65405, 0.17801, -0.73245,
 10:47:46.498,e3:ca:2d:fd:e0:8c, 2015-01-01 00:18:14.545, 1.003, -0.187, 0.086, -0.549, 0.183, 0, -65.583, -78.668, -134.242, -29.800, -8.147, -7.760, 24.47, -0.06274, -0.65405, 0.17801, -0.73245,
 10:47:46.502,f6:90:cc:01:6d:25, 2015-01-01 00:18:14.525, 0.987, -0.03, -0.043, -0.793, -0.488, 0.061, -145.684, -86.88, -32.195, -31.773, -11.887, 2.353, 26.95, 0.02277, -0.72284, -0.00165, -0.69055,
 10:47:46.502,f6:90:cc:01:6d:25, 2015-01-01 00:18:14.525, 0.985, -0.033, -0.04, -0.793, -0.244, -0.122, -145.789, -86.874, -32.075, -31.773, -11.887, 2.353, 26.95, 0.02277, -0.72284, -0.00165, -0.69055,
 10:47:46.504,ed:35:33:d3:6c:f8, 2015-01-01 00:18:13.970, 0.798, -0.136, 0.575, 0, 0.061, -0.244, -13.497, -53.481, -156.813, -21.680, -7.013, -13.673, 29.36, -0.12576, 0.45898, -0.01385, 0.87933,
 10:47:46.504,ed:35:33:d3:6c:f8, 2015-01-01 00:18:13.970, 0.803, -0.133, 0.574, 0, 0.183, 0, -13.491, -53.476, -156.808, -21.680, -7.013, -13.673, 29.36, -0.12576, 0.45898, -0.01385, 0.87933,
 10:47:46.505,ed:40:fe:65:30:6c, 2015-01-01 00:18:13.820, 0.862, -0.006, 0.519, -0.122, 0, -0.244, -0.791, -59.216, -118.185, -26.493, -8.720, 0.547, 23.65, 0.44333, -0.42725, -0.24829, -0.74777,
 10:47:46.505,ed:40:fe:65:30:6c, 2015-01-01 00:18:13.820, 0.867, -0.002, 0.518, -0.061, 0, 0, -0.786, -59.216, -118.18, -26.493, -8.720, 0.547, 23.65, 0.44333, -0.42725, -0.24829, -0.74777,
 10:47:46.527,e3:ca:2d:fd:e0:8c, 2015-01-01 00:18:14.545, 1.004, -0.186, 0.083, 0, 0, 0, -65.577, -78.662, -134.253, -29.627, -8.013, -7.233, 24.47, -0.06274, -0.65405, 0.17801, -0.73245,
 10:47:46.527,e3:ca:2d:fd:e0:8c, 2015-01-01 00:18:14.545, 1.004, -0.185, 0.084, 0.427, 0.183, 0, -65.572, -78.662, -134.258, -29.627, -8.013, -7.233, 24.47, -0.06274, -0.65405, 0.17801, -0.73245,
 10:47:46.529,f6:90:cc:01:6d:25, 2015-01-01 00:18:14.525, 0.986, -0.033, -0.042, -0.488, -0.183, -0.305, -145.893, -86.869, -31.954, -31.773, -11.887, 2.353, 26.95, 0.02277, -0.72284, -0.00165, -0.69055,
 10:47:46.529,f6:90:cc:01:6d:25, 2015-01-01 00:18:14.525, 0.987, -0.035, -0.043, -0.427, -0.244, -0.183, -146.008, -86.869, -31.816, -31.773, -11.887, 2.353, 26.95, 0.02277, -0.72284, -0.00165, -0.69055,
 10:47:46.558,e3:ca:2d:fd:e0:8c, 2015-01-01 00:18:14.545, 1.001, -0.184, 0.082, 0.305, 0.183, 0, -65.55, -78.662, -134.275, -29.627, -8.013, -7.233, 24.47, -0.06274, -0.65405, 0.17801, -0.73245,
 10:47:46.558,e3:ca:2d:fd:e0:8c, 2015-01-01 00:18:14.545, 1.002, -0.183, 0.083, 0.244, 0.244, 0, -65.528, -78.657, -134.291, -29.627, -8.013, -7.233, 24.47, -0.06274, -0.65405, 0.17801, -0.73245,
 10:47:46.560,f6:90:cc:01:6d:25, 2015-01-01 00:18:14.525, 0.988, -0.031, -0.044, 0.122, 0.183, -0.183, -146.074, -86.869, -31.712, -31.773, -11.887, 2.353, 26.95, 0.02277, -0.72284, -0.00165, -0.69055,
 10:47:46.560,f6:90:cc:01:6d:25, 2015-01-01 00:18:14.525, 0.984, -0.032, -0.044, 0.488, 0.122, -0.122, -146.063, -86.874, -31.685, -31.773, -11.887, 2.353, 26.95, 0.02277, -0.72284, -0.00165, -0.69055,
 10:47:46.562,ed:35:33:d3:6c:f8, 2015-01-01 00:18:13.970, 0.797, -0.133, 0.578, 0.244, 0, 0.122, -13.486, -53.476, -156.797, -21.680, -7.013, -13.673, 29.36, -0.12576, 0.45898, -0.01385, 0.87933,
 10:47:46.562,ed:35:33:d3:6c:f8, 2015-01-01 00:18:13.970, 0.796, -0.137, 0.574, 0, 0, 0.427, -13.491, -53.476, -156.775, -21.680, -7.013, -13.673, 29.36, -0.12576, 0.45898, -0.01385, 0.87933,
 10:47:46.564,ed:40:fe:65:30:6c, 2015-01-01 00:18:13.820, 0.861, -0.001, 0.519, 0.183, -0.122, 0.244, -0.786, -59.216, -118.163, -26.493, -8.720, 0.547, 23.65, 0.44333, -0.42725, -0.24829, -0.74777,
 10:47:46.564,ed:40:fe:65:30:6c, 2015-01-01 00:18:13.820, 0.861, -0.007, 0.52, 0, -0.122, 0.427, -0.797, -59.216, -118.141, -26.493, -8.720, 0.547, 23.65, 0.44333, -0.42725, -0.24829, -0.74777,
 10:47:46.590,f6:90:cc:01:6d:25, 2015-01-01 00:18:14.525, 0.985, -0.03, -0.044, 0.427, 0.122, 0, -146.03, -86.88, -31.69, -31.793, -11.933, 2.260, 26.95, 0.02277, -0.72284, -0.00165, -0.69055,
 10:47:46.590,f6:90:cc:01:6d:25, 2015-01-01 00:18:14.525, 0.984, -0.028, -0.041, -0.427, -0.061, 0.122, -145.981, -86.88, -31.729, -31.793, -11.933, 2.260, 26.95, 0.02277, -0.72284, -0.00165, -0.69055,
 10:47:46.594,ed:35:33:d3:6c:f8, 2015-01-01 00:18:13.970, 0.8, -0.137, 0.571, 0.183, 0.183, 0.305, -13.497, -53.47, -156.758, -22.187, -6.707, -12.407, 29.36, -0.12576, 0.45898, -0.01385, 0.87933,
 10:47:46.594,ed:35:33:d3:6c:f8, 2015-01-01 00:18:13.970, 0.8, -0.134, 0.573, 0.366, 0.244, -0.061, -13.486, -53.465, -156.747, -22.187, -6.707, -12.407, 29.36, -0.12576, 0.45898, -0.01385, 0.87933,
 10:47:46.596,ed:40:fe:65:30:6c, 2015-01-01 00:18:13.820, 0.863, -0.003, 0.514, 0.122, 0.122, 0.305, -0.802, -59.211, -118.125, -26.493, -8.720, 0.547, 23.65, 0.44333, -0.42725, -0.24829, -0.74777,
 10:47:46.596,ed:40:fe:65:30:6c, 2015-01-01 00:18:13.820, 0.864, -0.002, 0.519, 0.061, 0.122, -0.061, -0.791, -59.205, -118.12, -26.493, -8.720, 0.547, 23.65, 0.44333, -0.42725, -0.24829, -0.74777,
 10:47:46.618,e3:ca:2d:fd:e0:8c, 2015-01-01 00:18:14.545, 1.002, -0.181, 0.082, 0.122, 0.122, 0, -65.506, -78.657, -134.308, -29.627, -8.013, -7.233, 24.47, -0.06348, -0.65366, 0.17874, -0.73254,
 10:47:46.618,e3:ca:2d:fd:e0:8c, 2015-01-01 00:18:14.545, 1.003, -0.182, 0.079, 0.061, 0.305, 0, -65.495, -78.657, -134.324, -29.627, -8.013, -7.233, 24.47, -0.06348, -0.65366, 0.17874, -0.73254,
 10:47:46.624,ed:35:33:d3:6c:f8, 2015-01-01 00:18:13.970, 0.799, -0.138, 0.575, 0.61, 0.305, 0.122, -13.475, -53.459, -156.742, -22.187, -6.707, -12.407, 29.36, -0.12576, 0.45898, -0.01385, 0.87933,
 10:47:46.624,ed:35:33:d3:6c:f8, 2015-01-01 00:18:13.970, 0.798, -0.136, 0.58, 0, 0.183, 0.122, -13.475, -53.459, -156.731, -22.187, -6.707, -12.407, 29.36, -0.12576, 0.45898, -0.01385, 0.87933,
 10:47:46.625,ed:40:fe:65:30:6c, 2015-01-01 00:18:13.820, 0.863, -0.006, 0.517, 0.244, 0.183, 0, -0.786, -59.2, -118.109, -26.113, -8.387, 1.233, 23.65, 0.44333, -0.42725, -0.24829, -0.74777,
 10:47:46.625,ed:40:fe:65:30:6c, 2015-01-01 00:18:13.820, 0.86, -0.003, 0.522, -0.183, 0, 0.061, -0.786, -59.194, -118.103, -26.113, -8.387, 1.233, 23.65, 0.44333, -0.42725, -0.24829, -0.74777,
 10:47:46.647,e3:ca:2d:fd:e0:8c, 2015-01-01 00:18:14.960, 1.004, -0.184, 0.082, -0.305, 0.549, 0, -65.462, -78.651, -134.357, -29.627, -8.013, -7.233, 24.47, -0.06348, -0.65366, 0.17874, -0.73254,
 10:47:46.647,e3:ca:2d:fd:e0:8c, 2015-01-01 00:18:14.960, 1.002, -0.183, 0.082, -0.366, 0.122, 0, -65.435, -78.651, -134.396, -29.627, -8.013, -7.233, 24.47, -0.06348, -0.65366, 0.17874, -0.73254,
 10:47:46.678,e3:ca:2d:fd:e0:8c, 2015-01-01 00:18:14.960, 1, -0.183, 0.082, -0.427, 0, 0, -65.44, -78.646, -134.407, -29.627, -8.013, -7.233, 24.47, -0.06348, -0.65366, 0.17874, -0.73254,
 10:47:46.678,e3:ca:2d:fd:e0:8c, 2015-01-01 00:18:14.960, 1.002, -0.182, 0.08, -0.305, 0.061, 0, -65.451, -78.646, -134.407, -29.627, -8.013, -7.233, 24.47, -0.06348, -0.65366, 0.17874, -0.73254,
 10:47:46.684,ed:35:33:d3:6c:f8, 2015-01-01 00:18:13.970, 0.797, -0.134, 0.578, -0.366, 0, -0.244, -13.475, -53.459, -156.725, -22.187, -6.707, -12.407, 29.36, -0.12717, 0.45862, -0.01254, 0.87933,
 10:47:46.684,ed:35:33:d3:6c:f8, 2015-01-01 00:18:13.970, 0.795, -0.138, 0.576, -0.305, -0.244, -0.305, -13.469, -53.459, -156.725, -22.187, -6.707, -12.407, 29.36, -0.12717, 0.45862, -0.01254, 0.87933,
 10:47:46.710,f6:90:cc:01:6d:25, 2015-01-01 00:18:14.525, 0.985, -0.029, -0.046, -0.183, -0.183, 0.061, -145.959, -86.874, -31.756, -31.793, -11.933, 2.260, 26.95, 0.02277, -0.72284, -0.00165, -0.69055,
 10:47:46.710,f6:90:cc:01:6d:25, 2015-01-01 00:18:14.525, 0.987, -0.03, -0.05, -0.061, -0.305, 0.061, -145.981, -86.874, -31.756, -31.793, -11.933, 2.260, 26.95, 0.02277, -0.72284, -0.00165, -0.69055,
 10:47:46.712,ed:35:33:d3:6c:f8, 2015-01-01 00:18:14.360, 0.797, -0.139, 0.575, -0.122, -0.244, 0, -13.469, -53.465, -156.72, -22.187, -6.707, -12.407, 29.36, -0.12717, 0.45862, -0.01254, 0.87933,
 10:47:46.712,ed:35:33:d3:6c:f8, 2015-01-01 00:18:14.360, 0.8, -0.139, 0.571, 0.122, -0.488, 0.061, -13.475, -53.476, -156.703, -22.187, -6.707, -12.407, 29.36, -0.12717, 0.45862, -0.01254, 0.87933,
 10:47:46.715,ed:40:fe:65:30:6c, 2015-01-01 00:18:13.820, 0.86, -0.001, 0.518, -0.549, -0.183, -0.183, -0.786, -59.2, -118.098, -26.113, -8.387, 1.233, 23.65, 0.44333, -0.42725, -0.24829, -0.74777,
 10:47:46.715,ed:40:fe:65:30:6c, 2015-01-01 00:18:13.820, 0.859, -0.007, 0.52, -0.366, -0.427, -0.244, -0.78, -59.205, -118.103, -26.113, -8.387, 1.233, 23.65, 0.44333, -0.42725, -0.24829, -0.74777,
 10:47:46.717,ed:40:fe:65:30:6c, 2015-01-01 00:18:13.820, 0.861, -0.008, 0.518, -0.183, -0.427, -0.061, -0.78, -59.211, -118.098, -26.113, -8.387, 1.233, 23.65, 0.44418, -0.42667, -0.24887, -0.74738,
 10:47:46.717,ed:40:fe:65:30:6c, 2015-01-01 00:18:13.820, 0.864, -0.007, 0.514, 0.122, -0.549, 0, -0.775, -59.216, -118.092, -26.113, -8.387, 1.233, 23.65, 0.44418, -0.42667, -0.24887, -0.74738,
 10:47:46.741,f6:90:cc:01:6d:25, 2015-01-01 00:18:14.525, 0.986, -0.028, -0.042, -0.916, -0.427, 0.244, -146.019, -86.863, -31.729, -31.793, -11.933, 2.260, 26.95, 0.02435, -0.72287, -0.00339, -0.69046,
 10:47:46.741,f6:90:cc:01:6d:25, 2015-01-01 00:18:14.525, 0.983, -0.03, -0.042, -0.732, -0.183, 0.305, -146.036, -86.858, -31.723, -31.793, -11.933, 2.260, 26.95, 0.02435, -0.72287, -0.00339, -0.69046,
 10:47:46.745,ed:40:fe:65:30:6c, 2015-01-01 00:18:13.820, 0.861, -0.006, 0.517, 0.183, -0.366, 0, -0.769, -59.222, -118.081, -26.113, -8.387, 1.233, 23.65, 0.44418, -0.42667, -0.24887, -0.74738,
 10:47:46.745,ed:40:fe:65:30:6c, 2015-01-01 00:18:13.820, 0.86, -0.003, 0.521, 0, 0.122, 0, -0.769, -59.216, -118.076, -26.113, -8.387, 1.233, 23.65, 0.44418, -0.42667, -0.24887, -0.74738,
 10:47:46.768,e3:ca:2d:fd:e0:8c, 2015-01-01 00:18:14.960, 1.003, -0.182, 0.085, -0.122, 0.244, 0, -65.451, -78.646, -134.418, -29.627, -8.013, -7.233, 24.47, -0.06348, -0.65366, 0.17874, -0.73254,
 10:47:46.768,e3:ca:2d:fd:e0:8c, 2015-01-01 00:18:14.960, 1.002, -0.184, 0.086, -0.061, 0, 0, -65.44, -78.646, -134.434, -29.627, -8.013, -7.233, 24.47, -0.06348, -0.65366, 0.17874, -0.73254,
 10:47:46.768,e3:ca:2d:fd:e0:8c, 2015-01-01 00:18:14.960, 1.001, -0.184, 0.083, 0.122, -0.244, 0, -65.451, -78.646, -134.429, -29.627, -8.013, -7.233, 24.47, -0.06348, -0.65366, 0.17874, -0.73254,
 10:47:46.768,e3:ca:2d:fd:e0:8c, 2015-01-01 00:18:14.960, 1.003, -0.183, 0.082, 0.305, 0, 0, -65.462, -78.651, -134.412, -29.627, -8.013, -7.233, 24.47, -0.06348, -0.65366, 0.17874, -0.73254,
 10:47:46.770,f6:90:cc:01:6d:25, 2015-01-01 00:18:14.525, 0.983, -0.032, -0.049, -0.427, -0.305, 0.122, -146.008, -86.852, -31.74, -31.793, -11.933, 2.260, 26.95, 0.02435, -0.72287, -0.00339, -0.69046,
 10:47:46.770,f6:90:cc:01:6d:25, 2015-01-01 00:18:14.525, 0.986, -0.033, -0.046, -0.305, -0.366, 0, -146.052, -86.847, -31.696, -31.793, -11.933, 2.260, 26.95, 0.02435, -0.72287, -0.00339, -0.69046,
 10:47:46.770,f6:90:cc:01:6d:25, 2015-01-01 00:18:14.525, 0.987, -0.031, -0.042, -0.183, -0.183, -0.061, -146.124, -86.841, -31.624, -31.793, -11.933, 2.260, 26.95, 0.02435, -0.72287, -0.00339, -0.69046,
 10:47:46.770,f6:90:cc:01:6d:25, 2015-01-01 00:18:14.525, 0.983, -0.032, -0.041, -0.122, 0, -0.183, -146.173, -86.836, -31.586, -31.793, -11.933, 2.260, 26.95, 0.02435, -0.72287, -0.00339, -0.69046,
 10:47:46.772,ed:35:33:d3:6c:f8, 2015-01-01 00:18:14.360, 0.798, -0.138, 0.572, 0.183, -0.183, 0, -13.469, -53.481, -156.698, -22.187, -6.707, -12.407, 29.36, -0.12717, 0.45862, -0.01254, 0.87933,
 10:47:46.772,ed:35:33:d3:6c:f8, 2015-01-01 00:18:14.360, 0.796, -0.136, 0.575, 0.061, 0.305, 0, -13.469, -53.476, -156.687, -22.187, -6.707, -12.407, 29.36, -0.12717, 0.45862, -0.01254, 0.87933,
 10:47:46.797,e3:ca:2d:fd:e0:8c, 2015-01-01 00:18:14.960, 1.006, -0.185, 0.085, 0, 0.061, 0, -65.462, -78.651, -134.412, -29.627, -8.013, -7.233, 24.47, -0.06348, -0.65366, 0.17874, -0.73254,
 10:47:46.797,e3:ca:2d:fd:e0:8c, 2015-01-01 00:18:14.960, 1.006, -0.186, 0.085, 0, -0.244, 0, -65.462, -78.651, -134.407, -29.627, -8.013, -7.233, 24.47, -0.06348, -0.65366, 0.17874, -0.73254,
 10:47:46.801,f6:90:cc:01:6d:25, 2015-01-01 00:18:14.525, 0.984, -0.029, -0.047, 0.122, 0, -0.244, -146.223, -86.841, -31.536, -31.793, -11.933, 2.260, 26.95, 0.02435, -0.72287, -0.00339, -0.69046,
 10:47:46.801,f6:90:cc:01:6d:25, 2015-01-01 00:18:14.525, 0.989, -0.029, -0.045, 0, -0.366, 0, -146.283, -86.841, -31.47, -31.793, -11.933, 2.260, 26.95, 0.02435, -0.72287, -0.00339, -0.69046,
 10:47:46.803,ed:35:33:d3:6c:f8, 2015-01-01 00:18:14.360, 0.798, -0.134, 0.579, -0.061, 0.183, -0.122, -13.464, -53.47, -156.687, -22.187, -6.707, -12.407, 29.36, -0.12717, 0.45862, -0.01254, 0.87933,
 10:47:46.803,ed:35:33:d3:6c:f8, 2015-01-01 00:18:14.360, 0.803, -0.131, 0.577, -0.366, -0.061, -0.061, -13.464, -53.47, -156.682, -22.187, -6.707, -12.407, 29.36, -0.12717, 0.45862, -0.01254, 0.87933,
 10:47:46.806,ed:40:fe:65:30:6c, 2015-01-01 00:18:13.820, 0.861, -0.003, 0.52, -0.183, 0, -0.061, -0.769, -59.211, -118.07, -26.113, -8.387, 1.233, 23.65, 0.44418, -0.42667, -0.24887, -0.74738,
 10:47:46.806,ed:40:fe:65:30:6c, 2015-01-01 00:18:13.820, 0.866, -0.001, 0.519, -0.366, -0.305, -0.061, -0.769, -59.216, -118.065, -26.113, -8.387, 1.233, 23.65, 0.44418, -0.42667, -0.24887, -0.74738,
 10:47:46.830,f6:90:cc:01:6d:25, 2015-01-01 00:18:15.060, 0.99, -0.033, -0.041, -0.122, 0.122, 0.122, -146.283, -86.836, -31.448, -31.793, -11.933, 2.260, 26.95, 0.02435, -0.72287, -0.00339, -0.69046,
 10:47:46.830,f6:90:cc:01:6d:25, 2015-01-01 00:18:15.060, 0.987, -0.034, -0.043, 0.549, 0.488, 0, -146.184, -86.841, -31.509, -31.793, -11.933, 2.260, 26.95, 0.02435, -0.72287, -0.00339, -0.69046,
 10:47:46.833,ed:35:33:d3:6c:f8, 2015-01-01 00:18:14.360, 0.803, -0.135, 0.574, -0.244, -0.305, 0.061, -13.469, -53.476, -156.671, -22.187, -6.707, -12.407, 29.36, -0.12717, 0.45862, -0.01254, 0.87933,
 10:47:46.833,ed:35:33:d3:6c:f8, 2015-01-01 00:18:14.360, 0.802, -0.136, 0.574, 0.061, 0, 0.366, -13.48, -53.476, -156.654, -22.187, -6.707, -12.407, 29.36, -0.12717, 0.45862, -0.01254, 0.87933,
 10:47:46.835,ed:40:fe:65:30:6c, 2015-01-01 00:18:14.210, 0.867, -0.004, 0.517, -0.183, -0.427, 0.061, -0.769, -59.222, -118.059, -26.113, -8.387, 1.233, 23.65, 0.44418, -0.42667, -0.24887, -0.74738,
 10:47:46.835,ed:40:fe:65:30:6c, 2015-01-01 00:18:14.210, 0.866, -0.005, 0.518, 0.061, -0.122, 0.366, -0.78, -59.222, -118.037, -26.113, -8.387, 1.233, 23.65, 0.44418, -0.42667, -0.24887, -0.74738,
 10:47:46.857,e3:ca:2d:fd:e0:8c, 2015-01-01 00:18:14.960, 1.003, -0.185, 0.082, 0.549, -0.427, 0, -65.484, -78.651, -134.379, -29.627, -8.013, -7.233, 24.47, -0.06348, -0.65366, 0.17874, -0.73254,
 10:47:46.857,e3:ca:2d:fd:e0:8c, 2015-01-01 00:18:14.960, 1.003, -0.186, 0.082, 0.671, 0, 0, -65.506, -78.651, -134.352, -29.627, -8.013, -7.233, 24.47, -0.06348, -0.65366, 0.17874, -0.73254,
 10:47:46.888,e3:ca:2d:fd:e0:8c, 2015-01-01 00:18:14.960, 1.004, -0.186, 0.083, 0.549, 0, 0, -65.495, -78.651, -134.352, -29.907, -7.880, -7.053, 24.47, -0.06348, -0.65366, 0.17874, -0.73254,
 10:47:46.888,e3:ca:2d:fd:e0:8c, 2015-01-01 00:18:14.960, 1.003, -0.184, 0.082, 0.427, -0.183, 0.366, -65.495, -78.651, -134.341, -29.907, -7.880, -7.053, 24.47, -0.06348, -0.65366, 0.17874, -0.73254,
 10:47:46.892,ed:35:33:d3:6c:f8, 2015-01-01 00:18:14.360, 0.8, -0.136, 0.575, 0.427, 0.061, 0.671, -13.486, -53.476, -156.627, -22.187, -6.707, -12.407, 29.36, -0.12717, 0.45862, -0.01254, 0.87933,
 10:47:46.892,ed:35:33:d3:6c:f8, 2015-01-01 00:18:14.360, 0.801, -0.138, 0.573, 0.122, 0.122, 0.427, -13.491, -53.47, -156.605, -22.187, -6.707, -12.407, 29.36, -0.12717, 0.45862, -0.01254, 0.87933,
 10:47:46.894,ed:40:fe:65:30:6c, 2015-01-01 00:18:14.210, 0.864, -0.003, 0.518, 0.366, 0, 0.61, -0.791, -59.222, -118.004, -26.113, -8.387, 1.233, 23.65, 0.44418, -0.42667, -0.24887, -0.74738,
 10:47:46.894,ed:40:fe:65:30:6c, 2015-01-01 00:18:14.210, 0.866, -0.003, 0.515, 0.061, 0, 0.427, -0.797, -59.216, -117.982, -26.113, -8.387, 1.233, 23.65, 0.44418, -0.42667, -0.24887, -0.74738,
 10:47:46.918,e3:ca:2d:fd:e0:8c, 2015-01-01 00:18:14.960, 1, -0.183, 0.082, 0, -0.305, 0.427, -65.528, -78.646, -134.308, -29.907, -7.880, -7.053, 24.47, -0.06348, -0.65366, 0.17874, -0.73254,
 10:47:46.918,e3:ca:2d:fd:e0:8c, 2015-01-01 00:18:14.960, 1.001, -0.18, 0.078, 0, -0.183, 0.549, -65.572, -78.635, -134.264, -29.907, -7.880, -7.053, 24.47, -0.06348, -0.65366, 0.17874, -0.73254,
 10:47:46.920,f6:90:cc:01:6d:25, 2015-01-01 00:18:15.060, 0.985, -0.031, -0.051, 0.916, 0.305, -0.061, -146.08, -86.847, -31.547, -31.793, -11.933, 2.260, 26.95, 0.02435, -0.72287, -0.00339, -0.69046,
 10:47:46.920,f6:90:cc:01:6d:25, 2015-01-01 00:18:15.060, 0.988, -0.031, -0.047, 0.549, 0.061, 0.183, -146.003, -86.852, -31.586, -31.793, -11.933, 2.260, 26.95, 0.02435, -0.72287, -0.00339, -0.69046,
 10:47:46.920,f6:90:cc:01:6d:25, 2015-01-01 00:18:15.060, 0.987, -0.03, -0.043, 0.183, 0.244, 0.305, -145.887, -86.847, -31.685, -31.793, -11.933, 2.260, 26.95, 0.02435, -0.72287, -0.00339, -0.69046,
 10:47:46.920,f6:90:cc:01:6d:25, 2015-01-01 00:18:15.060, 0.984, -0.03, -0.042, 0.061, 0.244, 0.366, -145.728, -86.847, -31.827, -31.793, -11.933, 2.260, 26.95, 0.02435, -0.72287, -0.00339, -0.69046,
 10:47:46.924,ed:40:fe:65:30:6c, 2015-01-01 00:18:14.210, 0.861, -0.005, 0.519, -0.122, 0, 0.122, -0.802, -59.216, -117.971, -26.113, -8.387, 1.233, 23.65, 0.44418, -0.42667, -0.24887, -0.74738,
 10:47:46.924,ed:40:fe:65:30:6c, 2015-01-01 00:18:14.210, 0.86, -0.004, 0.519, -0.427, 0.122, 0, -0.807, -59.211, -117.966, -26.113, -8.387, 1.233, 23.65, 0.44418, -0.42667, -0.24887, -0.74738,
 10:47:46.950,f6:90:cc:01:6d:25, 2015-01-01 00:18:15.060, 0.981, -0.028, -0.046, -0.061, 0.061, 0.427, -145.574, -86.847, -31.981, -31.793, -11.933, 2.260, 26.95, 0.02435, -0.72287, -0.00339, -0.69046,
 10:47:46.950,f6:90:cc:01:6d:25, 2015-01-01 00:18:15.060, 0.983, -0.027, -0.048, 0, -0.305, 0.427, -145.481, -86.841, -32.075, -31.793, -11.933, 2.260, 26.95, 0.02435, -0.72287, -0.00339, -0.69046,
 10:47:46.952,ed:35:33:d3:6c:f8, 2015-01-01 00:18:14.360, 0.796, -0.139, 0.576, 0, 0.122, 0.061, -13.491, -53.47, -156.594, -22.140, -7.013, -13.980, 29.36, -0.12717, 0.45862, -0.01254, 0.87933,
 10:47:46.952,ed:35:33:d3:6c:f8, 2015-01-01 00:18:14.360, 0.796, -0.135, 0.575, -0.244, 0.366, 0, -13.491, -53.465, -156.588, -22.140, -7.013, -13.980, 29.36, -0.12717, 0.45862, -0.01254, 0.87933,
 10:47:46.956,ed:40:fe:65:30:6c, 2015-01-01 00:18:14.210, 0.86, -0.001, 0.518, -0.427, 0, -0.061, -0.807, -59.211, -117.96, -26.113, -8.387, 1.233, 23.65, 0.44418, -0.42667, -0.24887, -0.74738,
 10:47:46.956,ed:40:fe:65:30:6c, 2015-01-01 00:18:14.210, 0.86, -0.002, 0.519, -0.366, -0.122, -0.122, -0.807, -59.211, -117.96, -26.113, -8.387, 1.233, 23.65, 0.44418, -0.42667, -0.24887, -0.74738,
 10:47:46.979,e3:ca:2d:fd:e0:8c, 2015-01-01 00:18:14.960, 1.001, -0.181, 0.075, -0.122, 0.427, 0.488, -65.588, -78.629, -134.253, -29.907, -7.880, -7.053, 24.47, -0.06342, -0.65359, 0.17899, -0.73257,
 10:47:46.979,e3:ca:2d:fd:e0:8c, 2015-01-01 00:18:14.960, 1, -0.182, 0.084, -0.183, 0.732, 0.427, -65.566, -78.613, -134.286, -29.907, -7.880, -7.053, 24.47, -0.06342, -0.65359, 0.17899, -0.73257,
 10:47:46.983,ed:35:33:d3:6c:f8, 2015-01-01 00:18:14.360, 0.798, -0.133, 0.576, -0.244, 0.244, -0.061, -13.491, -53.459, -156.583, -22.140, -7.013, -13.980, 29.36, -0.12717, 0.45862, -0.01254, 0.87933,
 10:47:46.983,ed:35:33:d3:6c:f8, 2015-01-01 00:18:14.360, 0.796, -0.134, 0.578, -0.244, 0, -0.122, -13.491, -53.459, -156.583, -22.140, -7.013, -13.980, 29.36, -0.12717, 0.45862, -0.01254, 0.87933,
 10:47:47.007,e3:ca:2d:fd:e0:8c, 2015-01-01 00:18:15.320, 1.001, -0.18, 0.086, 0.122, 0.305, 0.366, -65.539, -78.607, -134.319, -29.907, -7.880, -7.053, 24.47, -0.06342, -0.65359, 0.17899, -0.73257,
 10:47:47.007,e3:ca:2d:fd:e0:8c, 2015-01-01 00:18:15.320, 1.003, -0.182, 0.084, 0.061, 0, 0.488, -65.544, -78.596, -134.313, -29.907, -7.880, -7.053, 24.47, -0.06342, -0.65359, 0.17899, -0.73257,
 10:47:47.011,f6:90:cc:01:6d:25, 2015-01-01 00:18:15.060, 0.984, -0.029, -0.047, 0.061, -0.916, 0.427, -145.492, -86.825, -32.08, -31.793, -11.933, 2.260, 26.95, 0.02435, -0.72287, -0.00339, -0.69046,
 10:47:47.011,f6:90:cc:01:6d:25, 2015-01-01 00:18:15.060, 0.985, -0.031, -0.041, -0.122, -0.916, 0.305, -145.585, -86.803, -31.992, -31.793, -11.933, 2.260, 26.95, 0.02435, -0.72287, -0.00339, -0.69046,
 10:47:47.012,ed:35:33:d3:6c:f8, 2015-01-01 00:18:14.360, 0.795, -0.134, 0.576, -0.122, -0.366, 0, -13.491, -53.47, -156.572, -22.140, -7.013, -13.980, 29.36, -0.12823, 0.45868, -0.01208, 0.87915,
 10:47:47.012,ed:35:33:d3:6c:f8, 2015-01-01 00:18:14.360, 0.799, -0.134, 0.574, 0, -0.305, 0.183, -13.497, -53.476, -156.555, -22.140, -7.013, -13.980, 29.36, -0.12823, 0.45868, -0.01208, 0.87915,
 10:47:47.016,ed:40:fe:65:30:6c, 2015-01-01 00:18:14.210, 0.858, -0.003, 0.518, -0.122, -0.549, 0, -0.802, -59.216, -117.955, -26.113, -8.387, 1.233, 23.65, 0.44418, -0.42667, -0.24887, -0.74738,
 10:47:47.016,ed:40:fe:65:30:6c, 2015-01-01 00:18:14.210, 0.863, -0.004, 0.519, 0, -0.427, 0.183, -0.807, -59.222, -117.938, -26.113, -8.387, 1.233, 23.65, 0.44418, -0.42667, -0.24887, -0.74738,
 10:47:47.040,f6:90:cc:01:6d:25, 2015-01-01 00:18:15.060, 0.985, -0.029, -0.042, 0.244, -0.61, 0.061, -145.695, -86.792, -31.877, -31.793, -11.933, 2.260, 26.95, 0.02435, -0.72287, -0.00339, -0.69046,
 10:47:47.040,f6:90:cc:01:6d:25, 2015-01-01 00:18:15.060, 0.987, -0.027, -0.047, 0.366, -0.61, 0.061, -145.8, -86.781, -31.756, -31.793, -11.933, 2.260, 26.95, 0.02435, -0.72287, -0.00339, -0.69046,
 10:47:47.042,ed:35:33:d3:6c:f8, 2015-01-01 00:18:14.360, 0.799, -0.137, 0.572, 0, 0.061, 0.183, -13.497, -53.47, -156.544, -22.140, -7.013, -13.980, 29.36, -0.12823, 0.45868, -0.01208, 0.87915,
 10:47:47.042,ed:35:33:d3:6c:f8, 2015-01-01 00:18:14.360, 0.8, -0.135, 0.572, 0, 0.366, 0, -13.497, -53.465, -156.539, -22.140, -7.013, -13.980, 29.36, -0.12823, 0.45868, -0.01208, 0.87915,
 10:47:47.044,ed:40:fe:65:30:6c, 2015-01-01 00:18:14.210, 0.863, -0.004, 0.516, -0.061, -0.122, 0.183, -0.807, -59.222, -117.927, -25.907, -8.200, 1.153, 23.65, 0.44418, -0.42667, -0.24887, -0.74738,
 10:47:47.044,ed:40:fe:65:30:6c, 2015-01-01 00:18:14.210, 0.863, -0.002, 0.516, -0.122, 0.061, 0, -0.807, -59.216, -117.922, -25.907, -8.200, 1.153, 23.65, 0.44418, -0.42667, -0.24887, -0.74738,
 10:47:47.067,e3:ca:2d:fd:e0:8c, 2015-01-01 00:18:15.320, 1.004, -0.184, 0.087, -0.427, 0.244, 0.549, -65.561, -78.585, -134.302, -29.907, -7.880, -7.053, 24.47, -0.06342, -0.65359, 0.17899, -0.73257,
 10:47:47.067,e3:ca:2d:fd:e0:8c, 2015-01-01 00:18:15.320, 1.004, -0.185, 0.086, -0.305, 0.366, 0.549, -65.561, -78.574, -134.308, -29.907, -7.880, -7.053, 24.47, -0.06342, -0.65359, 0.17899, -0.73257,
 10:47:47.069,f6:90:cc:01:6d:25, 2015-01-01 00:18:15.060, 0.987, -0.031, -0.046, -0.183, -0.366, 0.305, -145.854, -86.776, -31.668, -31.707, -11.967, 2.347, 26.95, 0.02435, -0.72287, -0.00339, -0.69046,
 10:47:47.069,f6:90:cc:01:6d:25, 2015-01-01 00:18:15.060, 0.987, -0.032, -0.045, -0.244, 0.122, 0.305, -145.805, -86.77, -31.685, -31.707, -11.967, 2.347, 26.95, 0.02435, -0.72287, -0.00339, -0.69046,
 10:47:47.073,ed:35:33:d3:6c:f8, 2015-01-01 00:18:14.715, 0.8, -0.134, 0.575, 0, 0.061, -0.061, -13.491, -53.465, -156.539, -22.140, -7.013, -13.980, 29.36, -0.12823, 0.45868, -0.01208, 0.87915,
 10:47:47.073,ed:35:33:d3:6c:f8, 2015-01-01 00:18:14.715, 0.8, -0.135, 0.573, 0, 0.061, 0, -13.486, -53.465, -156.528, -22.140, -7.013, -13.980, 29.36, -0.12823, 0.45868, -0.01208, 0.87915,
 10:47:47.101,f6:90:cc:01:6d:25, 2015-01-01 00:18:15.060, 0.987, -0.035, -0.042, -0.122, 0.305, 0.244, -145.69, -86.77, -31.767, -31.707, -11.967, 2.347, 26.95, 0.02435, -0.72287, -0.00339, -0.69046,
 10:47:47.101,f6:90:cc:01:6d:25, 2015-01-01 00:18:15.060, 0.987, -0.034, -0.045, 0.183, 0.366, 0.061, -145.574, -86.776, -31.833, -31.707, -11.967, 2.347, 26.95, 0.02435, -0.72287, -0.00339, -0.69046,
 10:47:47.105,ed:40:fe:65:30:6c, 2015-01-01 00:18:14.210, 0.865, -0.002, 0.516, -0.122, -0.061, -0.061, -0.802, -59.216, -117.916, -25.907, -8.200, 1.153, 23.65, 0.44418, -0.42667, -0.24887, -0.74738,
 10:47:47.105,ed:40:fe:65:30:6c, 2015-01-01 00:18:14.210, 0.863, -0.003, 0.516, -0.061, -0.122, 0, -0.797, -59.216, -117.911, -25.907, -8.200, 1.153, 23.65, 0.44418, -0.42667, -0.24887, -0.74738,
 10:47:47.128,e3:ca:2d:fd:e0:8c, 2015-01-01 00:18:15.320, 1.003, -0.185, 0.084, 0.122, 0.244, 0.549, -65.555, -78.563, -134.313, -29.907, -7.880, -7.053, 24.47, -0.06342, -0.65359, 0.17899, -0.73257,
 10:47:47.128,e3:ca:2d:fd:e0:8c, 2015-01-01 00:18:15.320, 1.004, -0.185, 0.084, 0.549, -0.061, 0.305, -65.555, -78.558, -134.302, -29.907, -7.880, -7.053, 24.47, -0.06342, -0.65359, 0.17899, -0.73257,
 10:47:47.128,e3:ca:2d:fd:e0:8c, 2015-01-01 00:18:15.320, 1.005, -0.185, 0.083, 0.366, -0.122, 0.305, -65.566, -78.552, -134.28, -29.907, -7.880, -7.053, 24.47, -0.06342, -0.65359, 0.17899, -0.73257,
 10:47:47.128,e3:ca:2d:fd:e0:8c, 2015-01-01 00:18:15.320, 1.008, -0.186, 0.081, 0.183, 0.061, 0.366, -65.572, -78.547, -134.264, -29.907, -7.880, -7.053, 24.47, -0.06342, -0.65359, 0.17899, -0.73257,
 10:47:47.133,ed:35:33:d3:6c:f8, 2015-01-01 00:18:14.715, 0.802, -0.136, 0.574, -0.122, 0.366, 0.122, -13.486, -53.459, -156.522, -22.140, -7.013, -13.980, 29.36, -0.12823, 0.45868, -0.01208, 0.87915,
 10:47:47.133,ed:35:33:d3:6c:f8, 2015-01-01 00:18:14.715, 0.801, -0.14, 0.574, 0.061, 0.549, 0.366, -13.491, -53.448, -156.506, -22.140, -7.013, -13.980, 29.36, -0.12823, 0.45868, -0.01208, 0.87915,
 10:47:47.135,ed:40:fe:65:30:6c, 2015-01-01 00:18:14.210, 0.866, -0.004, 0.518, -0.305, 0.122, 0.061, -0.802, -59.211, -117.9, -25.907, -8.200, 1.153, 23.65, 0.44537, -0.42642, -0.24957, -0.74661,
 10:47:47.135,ed:40:fe:65:30:6c, 2015-01-01 00:18:14.210, 0.865, -0.008, 0.517, -0.061, 0.305, 0.366, -0.807, -59.205, -117.883, -25.907, -8.200, 1.153, 23.65, 0.44537, -0.42642, -0.24957, -0.74661,
 10:47:47.160,f6:90:cc:01:6d:25, 2015-01-01 00:18:15.060, 0.988, -0.031, -0.05, 0.366, 0.061, 0.061, -145.519, -86.776, -31.838, -31.707, -11.967, 2.347, 26.95, 0.02689, -0.72327, -0.00513, -0.68997,
 10:47:47.160,f6:90:cc:01:6d:25, 2015-01-01 00:18:15.060, 0.992, -0.031, -0.05, 0.366, 0.122, 0.122, -145.464, -86.776, -31.849, -31.707, -11.967, 2.347, 26.95, 0.02689, -0.72327, -0.00513, -0.68997,
 10:47:47.162,ed:35:33:d3:6c:f8, 2015-01-01 00:18:14.715, 0.804, -0.138, 0.576, 0.061, 0.671, 0.366, -13.491, -53.438, -156.495, -22.140, -7.013, -13.980, 29.36, -0.12823, 0.45868, -0.01208, 0.87915,
 10:47:47.162,ed:35:33:d3:6c:f8, 2015-01-01 00:18:14.715, 0.8, -0.141, 0.575, 0.427, 0.244, 0.061, -13.486, -53.432, -156.489, -22.140, -7.013, -13.980, 29.36, -0.12823, 0.45868, -0.01208, 0.87915,
 10:47:47.166,ed:40:fe:65:30:6c, 2015-01-01 00:18:14.210, 0.868, -0.004, 0.519, -0.061, 0.427, 0.366, -0.818, -59.194, -117.861, -25.907, -8.200, 1.153, 23.65, 0.44537, -0.42642, -0.24957, -0.74661,
 10:47:47.166,ed:40:fe:65:30:6c, 2015-01-01 00:18:14.210, 0.867, -0.005, 0.516, 0.305, 0.122, 0.122, -0.813, -59.189, -117.85, -25.907, -8.200, 1.153, 23.65, 0.44537, -0.42642, -0.24957, -0.74661,
 10:47:47.191,f6:90:cc:01:6d:25, 2015-01-01 00:18:15.445, 0.988, -0.033, -0.047, 0.732, 0.305, 0.122, -145.371, -86.781, -31.893, -31.707, -11.967, 2.347, 26.95, 0.02689, -0.72327, -0.00513, -0.68997,
 10:47:47.191,f6:90:cc:01:6d:25, 2015-01-01 00:18:15.445, 0.985, -0.034, -0.049, 0.488, 0.427, 0.061, -145.267, -86.781, -31.954, -31.707, -11.967, 2.347, 26.95, 0.02689, -0.72327, -0.00513, -0.68997,
 10:47:47.192,ed:35:33:d3:6c:f8, 2015-01-01 00:18:14.715, 0.798, -0.146, 0.572, 0.244, 0.183, 0, -13.48, -53.432, -156.484, -22.140, -7.013, -13.980, 29.36, -0.12823, 0.45868, -0.01208, 0.87915,
 10:47:47.192,ed:35:33:d3:6c:f8, 2015-01-01 00:18:14.715, 0.8, -0.137, 0.571, 0, 0.793, -0.366, -13.464, -53.421, -156.495, -22.140, -7.013, -13.980, 29.36, -0.12823, 0.45868, -0.01208, 0.87915,
 10:47:47.194,ed:40:fe:65:30:6c, 2015-01-01 00:18:14.595, 0.864, -0.013, 0.518, 0.183, 0, 0, -0.807, -59.189, -117.845, -25.907, -8.200, 1.153, 23.65, 0.44537, -0.42642, -0.24957, -0.74661,
 10:47:47.194,ed:40:fe:65:30:6c, 2015-01-01 00:18:14.595, 0.861, 0.001, 0.515, -0.061, 0.366, -0.671, -0.797, -59.178, -117.856, -25.907, -8.200, 1.153, 23.65, 0.44537, -0.42642, -0.24957, -0.74661,
 10:47:47.217,e3:ca:2d:fd:e0:8c, 2015-01-01 00:18:15.320, 1.005, -0.188, 0.083, 0.244, 0.183, 0.488, -65.577, -78.541, -134.253, -29.907, -7.880, -7.053, 24.47, -0.06342, -0.65359, 0.17899, -0.73257,
 10:47:47.217,e3:ca:2d:fd:e0:8c, 2015-01-01 00:18:15.320, 1.003, -0.189, 0.083, 0.183, 0.061, 0.732, -65.588, -78.525, -134.242, -29.907, -7.880, -7.053, 24.47, -0.06342, -0.65359, 0.17899, -0.73257,
 10:47:47.219,f6:90:cc:01:6d:25, 2015-01-01 00:18:15.445, 0.983, -0.031, -0.047, -0.977, 0.122, 0.549, -145.118, -86.781, -32.08, -31.707, -11.967, 2.347, 26.95, 0.02689, -0.72327, -0.00513, -0.68997,
 10:47:47.219,f6:90:cc:01:6d:25, 2015-01-01 00:18:15.445, 0.98, -0.033, -0.049, -1.404, 0, 0.732, -144.954, -86.77, -32.272, -31.707, -11.967, 2.347, 26.95, 0.02689, -0.72327, -0.00513, -0.68997,
 10:47:47.248,e3:ca:2d:fd:e0:8c, 2015-01-01 00:18:15.320, 1.001, -0.189, 0.085, -0.244, 0.427, 0.671, -65.599, -78.514, -134.231, -29.800, -8.167, -7.240, 24.47, -0.06342, -0.65359, 0.17899, -0.73257,
 10:47:47.248,e3:ca:2d:fd:e0:8c, 2015-01-01 00:18:15.320, 0.997, -0.185, 0.082, -0.793, 0.549, 0.549, -65.594, -78.497, -134.253, -29.800, -8.167, -7.240, 24.47, -0.06342, -0.65359, 0.17899, -0.73257,
 10:47:47.252,ed:35:33:d3:6c:f8, 2015-01-01 00:18:14.715, 0.797, -0.13, 0.572, 0.305, 0.549, -0.671, -13.436, -53.416, -156.517, -22.140, -7.013, -13.980, 29.36, -0.12823, 0.45868, -0.01208, 0.87915,
 10:47:47.252,ed:35:33:d3:6c:f8, 2015-01-01 00:18:14.715, 0.795, -0.134, 0.577, 0.244, 0.549, -0.366, -13.42, -53.405, -156.528, -22.140, -7.013, -13.980, 29.36, -0.12823, 0.45868, -0.01208, 0.87915,
 10:47:47.254,ed:40:fe:65:30:6c, 2015-01-01 00:18:14.595, 0.859, -0.004, 0.517, 0, 0.366, -0.366, -0.775, -59.172, -117.878, -25.907, -8.200, 1.153, 23.65, 0.44537, -0.42642, -0.24957, -0.74661,
 10:47:47.254,ed:40:fe:65:30:6c, 2015-01-01 00:18:14.595, 0.857, -0.012, 0.519, -0.305, 0.122, 0.061, -0.764, -59.161, -117.883, -25.907, -8.200, 1.153, 23.65, 0.44537, -0.42642, -0.24957, -0.74661,
 10:47:47.279,f6:90:cc:01:6d:25, 2015-01-01 00:18:15.445, 0.983, -0.041, -0.048, -0.854, 0, 0.488, -144.816, -86.765, -32.448, -31.707, -11.967, 2.347, 26.95, 0.02689, -0.72327, -0.00513, -0.68997,
 10:47:47.279,f6:90:cc:01:6d:25, 2015-01-01 00:18:15.445, 0.982, -0.036, -0.048, 0.061, 0.183, 0.122, -144.728, -86.759, -32.542, -31.707, -11.967, 2.347, 26.95, 0.02689, -0.72327, -0.00513, -0.68997,
 10:47:47.283,ed:35:33:d3:6c:f8, 2015-01-01 00:18:14.715, 0.792, -0.141, 0.577, -0.244, 0.366, 0.061, -13.425, -53.399, -156.522, -22.167, -6.787, -13.540, 29.36, -0.12823, 0.45868, -0.01208, 0.87915,
 10:47:47.283,ed:35:33:d3:6c:f8, 2015-01-01 00:18:14.715, 0.792, -0.141, 0.576, -0.61, 0.244, 0.183, -13.442, -53.399, -156.511, -22.167, -6.787, -13.540, 29.36, -0.12823, 0.45868, -0.01208, 0.87915,
 10:47:47.285,ed:40:fe:65:30:6c, 2015-01-01 00:18:14.595, 0.855, -0.01, 0.519, -0.671, 0, 0.305, -0.775, -59.161, -117.872, -25.907, -8.200, 1.153, 23.65, 0.44537, -0.42642, -0.24957, -0.74661,
 10:47:47.285,ed:40:fe:65:30:6c, 2015-01-01 00:18:14.595, 0.856, -0.005, 0.518, -0.549, 0, 0, -0.791, -59.161, -117.856, -25.907, -8.200, 1.153, 23.65, 0.44537, -0.42642, -0.24957, -0.74661,
 10:47:47.309,f6:90:cc:01:6d:25, 2015-01-01 00:18:15.445, 0.982, -0.032, -0.045, -0.366, -0.244, 0.305, -144.684, -86.754, -32.58, -31.707, -11.967, 2.347, 26.95, 0.02689, -0.72327, -0.00513, -0.68997,
 10:47:47.309,f6:90:cc:01:6d:25, 2015-01-01 00:18:15.445, 0.981, -0.038, -0.042, -1.709, -0.427, 0.549, -144.646, -86.743, -32.629, -31.707, -11.967, 2.347, 26.95, 0.02689, -0.72327, -0.00513, -0.68997,
 10:47:47.314,ed:35:33:d3:6c:f8, 2015-01-01 00:18:14.715, 0.792, -0.136, 0.575, -0.427, 0.122, -0.061, -13.447, -53.394, -156.511, -22.167, -6.787, -13.540, 29.36, -0.12823, 0.45868, -0.01208, 0.87915,
 10:47:47.314,ed:35:33:d3:6c:f8, 2015-01-01 00:18:14.715, 0.792, -0.14, 0.575, -0.183, 0.061, 0, -13.453, -53.394, -156.506, -22.167, -6.787, -13.540, 29.36, -0.12823, 0.45868, -0.01208, 0.87915,
 10:47:47.316,ed:40:fe:65:30:6c, 2015-01-01 00:18:14.595, 0.857, -0.01, 0.518, -0.244, -0.122, 0, -0.802, -59.156, -117.85, -25.907, -8.200, 1.153, 23.65, 0.44537, -0.42642, -0.24957, -0.74661,
 10:47:47.316,ed:40:fe:65:30:6c, 2015-01-01 00:18:14.595, 0.857, -0.015, 0.519, -0.122, 0, 0.427, -0.813, -59.156, -117.845, -25.907, -8.200, 1.153, 23.65, 0.44537, -0.42642, -0.24957, -0.74661,
 10:47:47.338,e3:ca:2d:fd:e0:8c, 2015-01-01 00:18:15.320, 0.999, -0.187, 0.076, -0.671, 0.916, 0.305, -65.566, -78.486, -134.302, -29.800, -8.167, -7.240, 24.47, -0.06342, -0.65359, 0.17899, -0.73257,
 10:47:47.338,e3:ca:2d:fd:e0:8c, 2015-01-01 00:18:15.320, 1, -0.189, 0.081, 0.366, 0.732, 0.122, -65.517, -78.475, -134.368, -29.800, -8.167, -7.240, 24.47, -0.06342, -0.65359, 0.17899, -0.73257,
 10:47:47.340,f6:90:cc:01:6d:25, 2015-01-01 00:18:15.445, 0.98, -0.042, -0.044, -0.854, -0.061, 0.244, -144.58, -86.732, -32.706, -31.707, -11.967, 2.347, 26.95, 0.02689, -0.72327, -0.00513, -0.68997,
 10:47:47.340,f6:90:cc:01:6d:25, 2015-01-01 00:18:15.445, 0.981, -0.038, -0.046, 0.549, 0, -0.061, -144.542, -86.732, -32.75, -31.707, -11.967, 2.347, 26.95, 0.02689, -0.72327, -0.00513, -0.68997,
 10:47:47.367,e3:ca:2d:fd:e0:8c, 2015-01-01 00:18:15.320, 0.999, -0.189, 0.082, 0.427, 0.671, 0.244, -65.462, -78.464, -134.423, -29.800, -8.167, -7.240, 24.47, -0.06342, -0.65359, 0.17899, -0.73257,
 10:47:47.367,e3:ca:2d:fd:e0:8c, 2015-01-01 00:18:15.320, 0.997, -0.19, 0.084, -0.916, 0.366, 0.244, -65.44, -78.453, -134.462, -29.800, -8.167, -7.240, 24.47, -0.06342, -0.65359, 0.17899, -0.73257,
 10:47:47.373,ed:35:33:d3:6c:f8, 2015-01-01 00:18:14.715, 0.792, -0.144, 0.576, -0.061, 0, 0.549, -13.469, -53.388, -156.484, -22.167, -6.787, -13.540, 29.36, -0.12909, 0.45813, -0.01163, 0.87933,
 10:47:47.373,ed:35:33:d3:6c:f8, 2015-01-01 00:18:14.715, 0.794, -0.141, 0.577, 0.122, -0.305, 0.732, -13.491, -53.394, -156.451, -22.167, -6.787, -13.540, 29.36, -0.12909, 0.45813, -0.01163, 0.87933,
 10:47:47.375,ed:40:fe:65:30:6c, 2015-01-01 00:18:14.595, 0.858, -0.011, 0.518, 0.122, -0.305, 0.671, -0.829, -59.156, -117.817, -25.907, -8.200, 1.153, 23.65, 0.44537, -0.42642, -0.24957, -0.74661,
 10:47:47.375,ed:40:fe:65:30:6c, 2015-01-01 00:18:14.595, 0.864, -0.006, 0.518, 0.366, -0.488, 0.488, -0.851, -59.161, -117.79, -25.907, -8.200, 1.153, 23.65, 0.44537, -0.42642, -0.24957, -0.74661,
 10:47:47.398,e3:ca:2d:fd:e0:8c, 2015-01-01 00:18:15.320, 0.996, -0.19, 0.083, -0.732, 0.122, 0.183, -65.457, -78.448, -134.473, -29.800, -8.167, -7.240, 24.47, -0.06296, -0.65265, 0.18011, -0.73318,
 10:47:47.398,e3:ca:2d:fd:e0:8c, 2015-01-01 00:18:15.320, 0.997, -0.19, 0.083, 0.244, 0.244, 0.122, -65.462, -78.442, -134.484, -29.800, -8.167, -7.240, 24.47, -0.06296, -0.65265, 0.18011, -0.73318,
 10:47:47.401,f6:90:cc:01:6d:25, 2015-01-01 00:18:15.445, 0.986, -0.034, -0.048, 0.793, -0.122, -0.061, -144.531, -86.726, -32.75, -31.707, -11.967, 2.347, 26.95, 0.02689, -0.72327, -0.00513, -0.68997,
 10:47:47.401,f6:90:cc:01:6d:25, 2015-01-01 00:18:15.445, 0.989, -0.036, -0.04, 0, -0.305, 0, -144.553, -86.721, -32.739, -31.707, -11.967, 2.347, 26.95, 0.02689, -0.72327, -0.00513, -0.68997,
 10:47:47.402,ed:35:33:d3:6c:f8, 2015-01-01 00:18:15.045, 0.799, -0.139, 0.574, 0.305, -0.427, 0.488, -13.502, -53.399, -156.423, -22.167, -6.787, -13.540, 29.36, -0.12909, 0.45813, -0.01163, 0.87933,
 10:47:47.402,ed:35:33:d3:6c:f8, 2015-01-01 00:18:15.045, 0.798, -0.143, 0.573, 0.61, -0.122, 0.366, -13.502, -53.399, -156.407, -22.167, -6.787, -13.540, 29.36, -0.12909, 0.45813, -0.01163, 0.87933,
 10:47:47.406,ed:40:fe:65:30:6c, 2015-01-01 00:18:14.595, 0.865, -0.01, 0.519, 0.488, -0.244, 0.244, -0.857, -59.161, -117.768, -26.380, -8.467, 0.727, 23.65, 0.44537, -0.42642, -0.24957, -0.74661,
 10:47:47.406,ed:40:fe:65:30:6c, 2015-01-01 00:18:14.595, 0.864, -0.013, 0.521, 0.488, 0.183, 0.427, -0.857, -59.161, -117.751, -26.380, -8.467, 0.727, 23.65, 0.44537, -0.42642, -0.24957, -0.74661,
 10:47:47.428,e3:ca:2d:fd:e0:8c, 2015-01-01 00:18:15.320, 1.001, -0.188, 0.086, 0.854, 0.366, 0.061, -65.435, -78.437, -134.506, -29.800, -8.167, -7.240, 24.47, -0.06296, -0.65265, 0.18011, -0.73318,
 10:47:47.428,e3:ca:2d:fd:e0:8c, 2015-01-01 00:18:15.320, 1.002, -0.188, 0.09, 0.61, 0.61, -0.061, -65.385, -78.431, -134.55, -29.800, -8.167, -7.240, 24.47, -0.06296, -0.65265, 0.18011, -0.73318,
 10:47:47.432,ed:35:33:d3:6c:f8, 2015-01-01 00:18:15.045, 0.799, -0.144, 0.576, 0.549, 0.366, 0.61, -13.508, -53.388, -156.385, -22.167, -6.787, -13.540, 29.36, -0.12909, 0.45813, -0.01163, 0.87933,
 10:47:47.432,ed:35:33:d3:6c:f8, 2015-01-01 00:18:15.045, 0.798, -0.141, 0.578, 0.305, 0.793, 0.366, -13.508, -53.366, -156.374, -22.167, -6.787, -13.540, 29.36, -0.12909, 0.45813, -0.01163, 0.87933,
 10:47:47.436,ed:40:fe:65:30:6c, 2015-01-01 00:18:14.595, 0.863, -0.008, 0.52, 0.122, 0.61, 0.366, -0.868, -59.156, -117.729, -26.380, -8.467, 0.727, 23.65, 0.44537, -0.42642, -0.24957, -0.74661,
 10:47:47.436,ed:40:fe:65:30:6c, 2015-01-01 00:18:14.595, 0.863, -0.002, 0.519, 0.061, 0.183, 0, -0.873, -59.139, -117.713, -26.380, -8.467, 0.727, 23.65, 0.44537, -0.42642, -0.24957, -0.74661,
 10:47:47.458,e3:ca:2d:fd:e0:8c, 2015-01-01 00:18:15.320, 1.003, -0.191, 0.09, 0.427, 0.488, -0.183, -65.33, -78.431, -134.604, -29.800, -8.167, -7.240, 24.47, -0.06296, -0.65265, 0.18011, -0.73318,
 10:47:47.458,e3:ca:2d:fd:e0:8c, 2015-01-01 00:18:15.320, 1.002, -0.19, 0.089, 1.038, 0, -0.183, -65.286, -78.431, -134.637, -29.800, -8.167, -7.240, 24.47, -0.06296, -0.65265, 0.18011, -0.73318,
 10:47:47.460,f6:90:cc:01:6d:25, 2015-01-01 00:18:15.445, 0.988, -0.038, -0.038, 0.244, 0.061, -0.061, -144.525, -86.721, -32.772, -31.473, -11.887, 1.887, 26.95, 0.02689, -0.72327, -0.00513, -0.68997,
 10:47:47.460,f6:90:cc:01:6d:25, 2015-01-01 00:18:15.445, 0.986, -0.038, -0.044, 1.221, 0.488, -0.366, -144.459, -86.732, -32.816, -31.473, -11.887, 1.887, 26.95, 0.02689, -0.72327, -0.00513, -0.68997,
 10:47:47.489,f6:90:cc:01:6d:25, 2015-01-01 00:18:15.445, 0.987, -0.031, -0.048, 1.404, 0.732, -0.366, -144.355, -86.748, -32.91, -31.473, -11.887, 1.887, 26.95, 0.02689, -0.72327, -0.00513, -0.68997,
 10:47:47.489,f6:90:cc:01:6d:25, 2015-01-01 00:18:15.445, 0.987, -0.028, -0.048, 0.549, 0.244, -0.122, -144.289, -86.754, -32.97, -31.473, -11.887, 1.887, 26.95, 0.02689, -0.72327, -0.00513, -0.68997,
 10:47:47.493,ed:35:33:d3:6c:f8, 2015-01-01 00:18:15.045, 0.8, -0.135, 0.578, 0.244, 0.305, 0, -13.502, -53.361, -156.368, -22.167, -6.787, -13.540, 29.36, -0.12909, 0.45813, -0.01163, 0.87933,
 10:47:47.493,ed:35:33:d3:6c:f8, 2015-01-01 00:18:15.045, 0.795, -0.134, 0.579, 0.427, 0, -0.122, -13.491, -53.361, -156.368, -22.167, -6.787, -13.540, 29.36, -0.12909, 0.45813, -0.01163, 0.87933,
 10:47:47.495,ed:40:fe:65:30:6c, 2015-01-01 00:18:14.595, 0.859, 0, 0.521, 0.305, 0, -0.183, -0.873, -59.139, -117.713, -26.380, -8.467, 0.727, 23.65, 0.4465, -0.42581, -0.24948, -0.74631,
 10:47:47.495,ed:40:fe:65:30:6c, 2015-01-01 00:18:14.595, 0.859, -0.005, 0.521, 0, -0.061, -0.061, -0.862, -59.134, -117.713, -26.380, -8.467, 0.727, 23.65, 0.4465, -0.42581, -0.24948, -0.74631,
 10:47:47.518,e3:ca:2d:fd:e0:8c, 2015-01-01 00:18:15.765, 1.005, -0.187, 0.087, 1.282, -0.061, -0.122, -65.264, -78.431, -134.632, -29.800, -8.167, -7.240, 24.47, -0.06296, -0.65265, 0.18011, -0.73318,
 10:47:47.518,e3:ca:2d:fd:e0:8c, 2015-01-01 00:18:15.765, 1.005, -0.183, 0.083, 0.916, 0.122, -0.122, -65.231, -78.431, -134.654, -29.800, -8.167, -7.240, 24.47, -0.06296, -0.65265, 0.18011, -0.73318,
 10:47:47.518,e3:ca:2d:fd:e0:8c, 2015-01-01 00:18:15.765, 1.003, -0.185, 0.085, 0, 0.305, -0.183, -65.204, -78.431, -134.714, -29.800, -8.167, -7.240, 24.47, -0.06296, -0.65265, 0.18011, -0.73318,
 10:47:47.518,e3:ca:2d:fd:e0:8c, 2015-01-01 00:18:15.765, 1, -0.185, 0.083, 0.061, 0.427, -0.061, -65.165, -78.431, -134.791, -29.800, -8.167, -7.240, 24.47, -0.06296, -0.65265, 0.18011, -0.73318,
 10:47:47.520,f6:90:cc:01:6d:25, 2015-01-01 00:18:15.445, 0.984, -0.032, -0.046, -0.061, 0.244, -0.122, -144.256, -86.759, -33.03, -31.473, -11.887, 1.887, 26.95, 0.02689, -0.72327, -0.00513, -0.68997,
 10:47:47.520,f6:90:cc:01:6d:25, 2015-01-01 00:18:15.445, 0.982, -0.031, -0.048, 0.244, 0.061, -0.366, -144.338, -86.765, -32.959, -31.473, -11.887, 1.887, 26.95, 0.02689, -0.72327, -0.00513, -0.68997,
 10:47:47.522,ed:35:33:d3:6c:f8, 2015-01-01 00:18:15.045, 0.794, -0.136, 0.578, 0.122, 0, 0, -13.491, -53.361, -156.363, -22.167, -6.787, -13.540, 29.36, -0.12909, 0.45813, -0.01163, 0.87933,
 10:47:47.522,ed:35:33:d3:6c:f8, 2015-01-01 00:18:15.045, 0.792, -0.138, 0.573, -0.061, 0.061, -0.122, -13.486, -53.361, -156.363, -22.167, -6.787, -13.540, 29.36, -0.12909, 0.45813, -0.01163, 0.87933,
 10:47:47.524,ed:40:fe:65:30:6c, 2015-01-01 00:18:14.925, 0.856, -0.006, 0.518, -0.183, -0.061, -0.122, -0.857, -59.134, -117.713, -26.380, -8.467, 0.727, 23.65, 0.4465, -0.42581, -0.24948, -0.74631,
 10:47:47.524,ed:40:fe:65:30:6c, 2015-01-01 00:18:14.925, 0.856, -0.002, 0.516, -0.183, 0.061, -0.427, -0.851, -59.134, -117.713, -26.380, -8.467, 0.727, 23.65, 0.4465, -0.42581, -0.24948, -0.74631,
 10:47:47.547,e3:ca:2d:fd:e0:8c, 2015-01-01 00:18:15.765, 0.999, -0.187, 0.083, -0.183, 0.732, -0.061, -65.116, -78.426, -134.868, -29.800, -8.167, -7.240, 24.47, -0.06296, -0.65265, 0.18011, -0.73318,
 10:47:47.547,e3:ca:2d:fd:e0:8c, 2015-01-01 00:18:15.765, 0.997, -0.185, 0.09, -0.732, 0.793, -0.122, -65.061, -78.42, -134.94, -29.800, -8.167, -7.240, 24.47, -0.06296, -0.65265, 0.18011, -0.73318,
 10:47:47.554,ed:40:fe:65:30:6c, 2015-01-01 00:18:14.925, 0.863, -0.005, 0.519, -0.305, 0, -0.488, -0.84, -59.128, -117.729, -26.380, -8.467, 0.727, 23.65, 0.4465, -0.42581, -0.24948, -0.74631,
 10:47:47.554,ed:40:fe:65:30:6c, 2015-01-01 00:18:14.925, 0.865, -0.009, 0.52, -0.366, 0.061, -0.366, -0.829, -59.123, -117.74, -26.380, -8.467, 0.727, 23.65, 0.4465, -0.42581, -0.24948, -0.74631,
 10:47:47.581,f6:90:cc:01:6d:25, 2015-01-01 00:18:15.445, 0.981, -0.032, -0.045, -0.366, -0.305, -0.061, -144.421, -86.759, -32.899, -31.473, -11.887, 1.887, 26.95, 0.02789, -0.72308, -0.00537, -0.69009,
 10:47:47.581,f6:90:cc:01:6d:25, 2015-01-01 00:18:15.445, 0.982, -0.033, -0.04, -1.16, -0.122, 0.122, -144.426, -86.754, -32.926, -31.473, -11.887, 1.887, 26.95, 0.02789, -0.72308, -0.00537, -0.69009,
 10:47:47.583,ed:35:33:d3:6c:f8, 2015-01-01 00:18:15.045, 0.792, -0.134, 0.573, 0, 0.244, -0.488, -13.475, -53.361, -156.379, -22.167, -6.787, -13.540, 29.36, -0.12909, 0.45813, -0.01163, 0.87933,
 10:47:47.583,ed:35:33:d3:6c:f8, 2015-01-01 00:18:15.045, 0.799, -0.137, 0.577, -0.122, 0.183, -0.488, -13.458, -53.361, -156.39, -22.167, -6.787, -13.540, 29.36, -0.12909, 0.45813, -0.01163, 0.87933,
 10:47:47.608,e3:ca:2d:fd:e0:8c, 2015-01-01 00:18:15.765, 1, -0.185, 0.089, -0.916, 0.488, -0.427, -65.012, -78.42, -135.005, -29.800, -8.167, -7.240, 24.47, -0.06296, -0.65265, 0.18011, -0.73318,
 10:47:47.608,e3:ca:2d:fd:e0:8c, 2015-01-01 00:18:15.765, 1.007, -0.186, 0.092, -0.671, 0, -0.732, -64.99, -78.431, -135.044, -29.800, -8.167, -7.240, 24.47, -0.06296, -0.65265, 0.18011, -0.73318,
 10:47:47.610,f6:90:cc:01:6d:25, 2015-01-01 00:18:15.445, 0.988, -0.037, -0.041, -1.465, -0.122, 0, -144.459, -86.754, -32.904, -31.473, -11.887, 1.887, 26.95, 0.02789, -0.72308, -0.00537, -0.69009,
 10:47:47.610,f6:90:cc:01:6d:25, 2015-01-01 00:18:15.445, 0.992, -0.037, -0.04, -0.977, -0.122, -0.244, -144.542, -86.754, -32.833, -31.473, -11.887, 1.887, 26.95, 0.02789, -0.72308, -0.00537, -0.69009,
 10:47:47.614,ed:35:33:d3:6c:f8, 2015-01-01 00:18:15.045, 0.8, -0.141, 0.577, -0.183, 0.305, -0.305, -13.453, -53.355, -156.396, -22.167, -6.787, -13.540, 29.36, -0.12909, 0.45813, -0.01163, 0.87933,
 10:47:47.614,ed:35:33:d3:6c:f8, 2015-01-01 00:18:15.045, 0.795, -0.143, 0.577, 0, 0.549, -0.122, -13.447, -53.344, -156.401, -22.167, -6.787, -13.540, 29.36, -0.12909, 0.45813, -0.01163, 0.87933,
 10:47:47.614,ed:40:fe:65:30:6c, 2015-01-01 00:18:14.925, 0.863, -0.01, 0.521, -0.305, 0.244, -0.183, -0.824, -59.117, -117.751, -26.380, -8.467, 0.727, 23.65, 0.4465, -0.42581, -0.24948, -0.74631,
 10:47:47.614,ed:40:fe:65:30:6c, 2015-01-01 00:18:14.925, 0.856, -0.01, 0.525, -0.183, 0.671, -0.122, -0.824, -59.112, -117.751, -26.380, -8.467, 0.727, 23.65, 0.4465, -0.42581, -0.24948, -0.74631,
 10:47:47.636,e3:ca:2d:fd:e0:8c, 2015-01-01 00:18:15.765, 1.005, -0.183, 0.091, 0.244, -0.366, -1.282, -64.962, -78.453, -135.06, -29.800, -8.167, -7.240, 24.47, -0.06296, -0.65265, 0.18011, -0.73318,
 10:47:47.636,e3:ca:2d:fd:e0:8c, 2015-01-01 00:18:15.765, 1, -0.184, 0.084, 1.16, -0.183, -1.282, -64.907, -78.481, -135.077, -29.800, -8.167, -7.240, 24.47, -0.06296, -0.65265, 0.18011, -0.73318,
 10:47:47.640,f6:90:cc:01:6d:25, 2015-01-01 00:18:15.865, 0.986, -0.035, -0.04, -0.549, 0.427, -0.732, -144.635, -86.77, -32.772, -31.473, -11.887, 1.887, 26.95, 0.02789, -0.72308, -0.00537, -0.69009,
 10:47:47.640,f6:90:cc:01:6d:25, 2015-01-01 00:18:15.865, 0.979, -0.031, -0.047, 0.671, 0.61, -1.221, -144.816, -86.792, -32.596, -31.473, -11.887, 1.887, 26.95, 0.02789, -0.72308, -0.00537, -0.69009,
 10:47:47.642,ed:35:33:d3:6c:f8, 2015-01-01 00:18:15.045, 0.792, -0.141, 0.583, 0, 0.854, -0.122, -13.442, -53.328, -156.407, -22.167, -6.673, -13.740, 29.36, -0.12909, 0.45813, -0.01163, 0.87933,
 10:47:47.642,ed:35:33:d3:6c:f8, 2015-01-01 00:18:15.045, 0.794, -0.134, 0.582, -0.183, 0.549, -0.122, -13.436, -53.317, -156.412, -22.167, -6.673, -13.740, 29.36, -0.12909, 0.45813, -0.01163, 0.87933,
 10:47:47.644,ed:40:fe:65:30:6c, 2015-01-01 00:18:14.925, 0.856, -0.005, 0.523, -0.183, 0.549, -0.061, -0.824, -59.095, -117.751, -26.380, -8.467, 0.727, 23.65, 0.4465, -0.42581, -0.24948, -0.74631,
 10:47:47.644,ed:40:fe:65:30:6c, 2015-01-01 00:18:14.925, 0.86, 0, 0.516, 0.244, -0.061, -0.061, -0.818, -59.084, -117.751, -26.380, -8.467, 0.727, 23.65, 0.4465, -0.42581, -0.24948, -0.74631,
 10:47:47.668,e3:ca:2d:fd:e0:8c, 2015-01-01 00:18:15.765, 0.999, -0.182, 0.08, 1.587, 0.61, -0.916, -64.797, -78.492, -135.159, -29.800, -8.167, -7.240, 24.47, -0.06296, -0.65265, 0.18011, -0.73318,
 10:47:47.668,e3:ca:2d:fd:e0:8c, 2015-01-01 00:18:15.765, 1.001, -0.181, 0.085, 0.427, 0.793, -0.732, -64.688, -78.503, -135.253, -29.800, -8.167, -7.240, 24.47, -0.06296, -0.65265, 0.18011, -0.73318,
 10:47:47.670,f6:90:cc:01:6d:25, 2015-01-01 00:18:15.865, 0.982, -0.026, -0.052, 1.221, 0.183, -1.282, -145.113, -86.808, -32.283, -31.473, -11.887, 1.887, 26.95, 0.02789, -0.72308, -0.00537, -0.69009,
 10:47:47.670,f6:90:cc:01:6d:25, 2015-01-01 00:18:15.865, 0.985, -0.027, -0.045, 0.305, -0.183, -1.038, -145.443, -86.819, -31.97, -31.473, -11.887, 1.887, 26.95, 0.02789, -0.72308, -0.00537, -0.69009,
 10:47:47.672,ed:35:33:d3:6c:f8, 2015-01-01 00:18:15.045, 0.798, -0.132, 0.575, 0.305, -0.183, -0.122, -13.431, -53.317, -156.407, -22.167, -6.673, -13.740, 29.36, -0.12909, 0.45813, -0.01163, 0.87933,
 10:47:47.672,ed:35:33:d3:6c:f8, 2015-01-01 00:18:15.045, 0.801, -0.132, 0.574, 0.732, -0.671, -0.183, -13.414, -53.333, -156.401, -22.167, -6.673, -13.740, 29.36, -0.12909, 0.45813, -0.01163, 0.87933,
 10:47:47.674,ed:40:fe:65:30:6c, 2015-01-01 00:18:14.925, 0.864, 0, 0.517, 0.854, -0.671, -0.244, -0.807, -59.084, -117.751, -26.380, -8.467, 0.727, 23.65, 0.4465, -0.42581, -0.24948, -0.74631,
 10:47:47.674,ed:40:fe:65:30:6c, 2015-01-01 00:18:14.925, 0.864, -0.001, 0.516, 0.977, -0.366, -0.183, -0.78, -59.095, -117.757, -26.380, -8.467, 0.727, 23.65, 0.4465, -0.42581, -0.24948, -0.74631,
 10:47:47.699,f6:90:cc:01:6d:25, 2015-01-01 00:18:15.865, 0.986, -0.03, -0.047, -0.183, -0.122, -0.732, -145.69, -86.825, -31.756, -31.473, -11.887, 1.887, 26.95, 0.02789, -0.72308, -0.00537, -0.69009,
 10:47:47.699,f6:90:cc:01:6d:25, 2015-01-01 00:18:15.865, 0.984, -0.031, -0.05, -0.061, 0.122, -0.488, -145.816, -86.83, -31.652, -31.473, -11.887, 1.887, 26.95, 0.02789, -0.72308, -0.00537, -0.69009,
 10:47:47.728,e3:ca:2d:fd:e0:8c, 2015-01-01 00:18:15.765, 1.002, -0.186, 0.084, -0.549, 0.244, -0.427, -64.644, -78.508, -135.324, -29.467, -8.027, -7.760, 24.47, -0.06296, -0.65265, 0.18011, -0.73318,
 10:47:47.728,e3:ca:2d:fd:e0:8c, 2015-01-01 00:18:15.765, 1.003, -0.188, 0.083, -0.732, 0.122, -0.244, -64.638, -78.508, -135.368, -29.467, -8.027, -7.760, 24.47, -0.06296, -0.65265, 0.18011, -0.73318,
 10:47:47.735,ed:40:fe:65:30:6c, 2015-01-01 00:18:14.925, 0.867, 0, 0.513, 0.732, -0.244, -0.244, -0.753, -59.095, -117.757, -26.380, -8.467, 0.727, 23.65, 0.4465, -0.42581, -0.24948, -0.74631,
 10:47:47.735,ed:40:fe:65:30:6c, 2015-01-01 00:18:14.925, 0.87, 0.004, 0.513, 0.305, -0.061, -0.488, -0.725, -59.101, -117.768, -26.380, -8.467, 0.727, 23.65, 0.4465, -0.42581, -0.24948, -0.74631,
 10:47:47.758,e3:ca:2d:fd:e0:8c, 2015-01-01 00:18:15.765, 1.006, -0.19, 0.081, -0.61, 0.488, 0, -64.622, -78.508, -135.385, -29.467, -8.027, -7.760, 24.47, -0.06296, -0.65265, 0.18011, -0.73318,
 10:47:47.758,e3:ca:2d:fd:e0:8c, 2015-01-01 00:18:15.765, 1.008, -0.188, 0.084, -0.61, 0.916, 0.183, -64.583, -78.497, -135.412, -29.467, -8.027, -7.760, 24.47, -0.06296, -0.65265, 0.18011, -0.73318,
 10:47:47.760,f6:90:cc:01:6d:25, 2015-01-01 00:18:15.865, 0.989, -0.031, -0.055, -0.183, 0, 0, -145.833, -86.83, -31.652, -31.473, -11.887, 1.887, 26.95, 0.02789, -0.72308, -0.00537, -0.69009,
 10:47:47.760,f6:90:cc:01:6d:25, 2015-01-01 00:18:15.865, 0.993, -0.031, -0.051, -0.916, 0, 0.549, -145.706, -86.819, -31.833, -31.473, -11.887, 1.887, 26.95, 0.02789, -0.72308, -0.00537, -0.69009,
 10:47:47.762,ed:35:33:d3:6c:f8, 2015-01-01 00:18:15.045, 0.8, -0.133, 0.571, 1.038, -0.366, -0.061, -13.392, -53.339, -156.401, -22.167, -6.673, -13.740, 29.36, -0.1301, 0.45764, -0.01105, 0.87946,
 10:47:47.762,ed:35:33:d3:6c:f8, 2015-01-01 00:18:15.045, 0.805, -0.132, 0.57, 0.732, -0.122, -0.183, -13.37, -53.344, -156.401, -22.167, -6.673, -13.740, 29.36, -0.1301, 0.45764, -0.01105, 0.87946,
 10:47:47.766,ed:40:fe:65:30:6c, 2015-01-01 00:18:14.925, 0.865, 0.001, 0.513, -0.244, 0, -0.488, -0.698, -59.101, -117.784, -26.407, -8.613, -0.287, 23.65, 0.4465, -0.42581, -0.24948, -0.74631,
 10:47:47.766,ed:40:fe:65:30:6c, 2015-01-01 00:18:14.925, 0.864, 0.001, 0.517, -0.793, 0.549, -0.488, -0.681, -59.101, -117.795, -26.407, -8.613, -0.287, 23.65, 0.4465, -0.42581, -0.24948, -0.74631,
 10:47:47.788,e3:ca:2d:fd:e0:8c, 2015-01-01 00:18:15.765, 1.007, -0.185, 0.09, -0.732, 0.916, 0.305, -64.539, -78.486, -135.45, -29.467, -8.027, -7.760, 24.47, -0.06442, -0.65176, 0.17987, -0.73389,
 10:47:47.788,e3:ca:2d:fd:e0:8c, 2015-01-01 00:18:15.765, 1.002, -0.181, 0.093, -0.671, 0.854, 0.793, -64.512, -78.464, -135.478, -29.467, -8.027, -7.760, 24.47, -0.06442, -0.65176, 0.17987, -0.73389,
 10:47:47.792,ed:35:33:d3:6c:f8, 2015-01-01 00:18:15.400, 0.806, -0.13, 0.57, 0.427, 0.061, -0.488, -13.348, -53.35, -156.412, -22.167, -6.673, -13.740, 29.36, -0.1301, 0.45764, -0.01105, 0.87946,
 10:47:47.792,ed:35:33:d3:6c:f8, 2015-01-01 00:18:15.400, 0.801, -0.131, 0.57, -0.244, 0.305, -0.488, -13.337, -53.35, -156.423, -22.167, -6.673, -13.740, 29.36, -0.1301, 0.45764, -0.01105, 0.87946,
 10:47:47.796,ed:40:fe:65:30:6c, 2015-01-01 00:18:14.925, 0.859, 0.001, 0.521, -1.038, 0.732, -0.61, -0.676, -59.084, -117.812, -26.407, -8.613, -0.287, 23.65, 0.4465, -0.42581, -0.24948, -0.74631,
 10:47:47.796,ed:40:fe:65:30:6c, 2015-01-01 00:18:14.925, 0.863, -0.003, 0.523, -1.16, 0.61, -0.366, -0.67, -59.073, -117.845, -26.407, -8.613, -0.287, 23.65, 0.4465, -0.42581, -0.24948, -0.74631,
 10:47:47.819,e3:ca:2d:fd:e0:8c, 2015-01-01 00:18:15.765, 1, -0.184, 0.085, -0.671, 0.366, 1.221, -64.534, -78.442, -135.472, -29.467, -8.027, -7.760, 24.47, -0.06442, -0.65176, 0.17987, -0.73389,
 10:47:47.819,e3:ca:2d:fd:e0:8c, 2015-01-01 00:18:15.765, 1.005, -0.186, 0.084, -0.183, 0.732, 0.854, -64.528, -78.42, -135.5, -29.467, -8.027, -7.760, 24.47, -0.06442, -0.65176, 0.17987, -0.73389,
 10:47:47.823,ed:35:33:d3:6c:f8, 2015-01-01 00:18:15.400, 0.799, -0.131, 0.574, -0.549, 0.916, -0.549, -13.321, -53.333, -156.445, -22.167, -6.673, -13.740, 29.36, -0.1301, 0.45764, -0.01105, 0.87946,
 10:47:47.823,ed:35:33:d3:6c:f8, 2015-01-01 00:18:15.400, 0.795, -0.131, 0.581, -0.854, 1.16, -0.61, -13.315, -53.322, -156.544, -22.167, -6.673, -13.740, 29.36, -0.1301, 0.45764, -0.01105, 0.87946,
 10:47:47.823,f6:90:cc:01:6d:25, 2015-01-01 00:18:15.865, 0.989, -0.027, -0.042, -0.977, 0.427, 0.732, -145.443, -86.819, -32.162, -31.473, -11.887, 1.887, 26.95, 0.02789, -0.72308, -0.00537, -0.69009,
 10:47:47.823,f6:90:cc:01:6d:25, 2015-01-01 00:18:15.865, 0.985, -0.021, -0.041, -0.488, 1.221, 0.732, -145.014, -86.83, -32.602, -31.473, -11.887, 1.887, 26.95, 0.02789, -0.72308, -0.00537, -0.69009,
 10:47:47.853,ed:35:33:d3:6c:f8, 2015-01-01 00:18:15.400, 0.8, -0.133, 0.582, -0.977, 0.916, -0.305, -13.315, -53.306, -156.632, -22.167, -6.673, -13.740, 29.36, -0.1301, 0.45764, -0.01105, 0.87946,
 10:47:47.853,ed:35:33:d3:6c:f8, 2015-01-01 00:18:15.400, 0.797, -0.131, 0.581, -1.038, 0.122, -0.427, -13.321, -53.306, -156.736, -22.167, -6.673, -13.740, 29.36, -0.1301, 0.45764, -0.01105, 0.87946,
 10:47:47.877,e3:ca:2d:fd:e0:8c, 2015-01-01 00:18:16.150, 1.005, -0.183, 0.09, -0.122, 1.221, 0.305, -64.457, -78.404, -135.588, -29.467, -8.027, -7.760, 24.47, -0.06442, -0.65176, 0.17987, -0.73389,
 10:47:47.877,e3:ca:2d:fd:e0:8c, 2015-01-01 00:18:16.150, 1, -0.181, 0.088, 0, 0.916, 0.488, -64.391, -78.387, -135.681, -29.467, -8.027, -7.760, 24.47, -0.06442, -0.65176, 0.17987, -0.73389,
 10:47:47.881,f6:90:cc:01:6d:25, 2015-01-01 00:18:15.865, 0.984, -0.033, -0.047, -0.427, 1.404, 0.916, -144.498, -86.841, -33.14, -31.473, -11.887, 1.887, 26.95, 0.02789, -0.72308, -0.00537, -0.69009,
 10:47:47.881,f6:90:cc:01:6d:25, 2015-01-01 00:18:15.865, 0.99, -0.037, -0.053, -0.427, 0.854, 0.854, -144.108, -86.847, -33.536, -31.473, -11.887, 1.887, 26.95, 0.02789, -0.72308, -0.00537, -0.69009,
 10:47:47.885,ed:40:fe:65:30:6c, 2015-01-01 00:18:14.925, 0.861, 0, 0.522, -1.282, 0, -0.183, -0.681, -59.068, -117.9, -26.407, -8.613, -0.287, 23.65, 0.44656, -0.42484, -0.25006, -0.74661,
 10:47:47.885,ed:40:fe:65:30:6c, 2015-01-01 00:18:14.925, 0.861, 0, 0.522, -0.488, 0, -0.183, -0.681, -59.068, -117.966, -26.407, -8.613, -0.287, 23.65, 0.44656, -0.42484, -0.25006, -0.74661,
