Time,Device name,Chip Time(),Acceleration X(g),Acceleration Y(g),Acceleration Z(g),Angular velocity X(°/s),Angular velocity Y(°/s),Angular velocity Z(°/s),Angle X(°),Angle Y(°),Angle Z(°),Magnetic field X(ʯt),Magnetic field Y(ʯt),Magnetic field Z(ʯt),Temperature(℃),Quaternions 0(),Quaternions 1(),Quaternions 2(),Quaternions 3()
 13:23:13.183,ed:40:fe:65:30:6c, 2015-01-01 01:09:14.695, 0.987, 0.017, -0.169, 0.366, 0.061, 0, 175.518, -80.035, 40.765, -28.247, -16.507, 16.180, 28.99, 0.19662, -0.7258, -0.24411, -0.61227,
 13:23:13.183,ed:40:fe:65:30:6c, 2015-01-01 01:09:14.695, 0.987, 0.015, -0.173, -0.427, 0.183, 0, 175.507, -80.035, 40.759, -28.247, -16.507, 16.180, 28.99, 0.19662, -0.7258, -0.24411, -0.61227,
 13:23:13.184,ed:35:33:d3:6c:f8, 2015-01-01 01:09:15.035, 0.923, -0.062, 0.362, 0.183, 0, -0.305, -10.102, -68.648, 165.201, -23.927, -13.800, -16.820, 28.31, 0.15457, 0.54834, -0.14368, 0.80911,
 13:23:13.184,ed:35:33:d3:6c:f8, 2015-01-01 01:09:15.035, 0.924, -0.065, 0.357, 0.488, -0.244, -0.977, -10.042, -68.654, 165.168, -23.927, -13.800, -16.820, 28.31, 0.15457, 0.54834, -0.14368, 0.80911,
 13:23:13.185,f6:90:cc:01:6d:25, 2015-01-01 01:09:14.290, 0.697, 0.039, -0.698, -0.305, 0.061, 0.061, 176.99, -44.78, -16.842, -25.053, -13.133, 19.360, 30.86, 0.07932, 0.91299, -0.14459, 0.37305,
 13:23:13.185,f6:90:cc:01:6d:25, 2015-01-01 01:09:14.290, 0.695, 0.037, -0.697, -0.305, -0.061, 0, 176.984, -44.786, -16.848, -25.053, -13.133, 19.360, 30.86, 0.07932, 0.91299, -0.14459, 0.37305,
 13:23:13.205,e3:ca:2d:fd:e0:8c, 2015-01-01 01:09:15.735, 0.997, -0.031, -0.201, 0.122, -0.122, 0.122, -170.458, -78.585, -23.752, -26.540, -12.007, 1.700, 28.97, 0.0658, 0.7655, -0.10641, 0.63104,
 13:23:13.205,e3:ca:2d:fd:e0:8c, 2015-01-01 01:09:15.735, 0.998, -0.03, -0.203, 0.366, -0.427, 0.183, -170.447, -78.58, -23.747, -26.540, -12.007, 1.700, 28.97, 0.0658, 0.7655, -0.10641, 0.63104,
 13:23:13.228,ed:40:fe:65:30:6c, 2015-01-01 01:09:14.695, 0.988, 0.016, -0.177, -0.549, 0.305, 0, 175.49, -80.041, 40.748, -28.247, -16.507, 16.180, 28.99, 0.19662, -0.7258, -0.24411, -0.61227,
 13:23:13.228,ed:40:fe:65:30:6c, 2015-01-01 01:09:14.695, 0.987, 0.02, -0.178, -0.366, 0.427, 0, 175.474, -80.046, 40.732, -28.247, -16.507, 16.180, 28.99, 0.19662, -0.7258, -0.24411, -0.61227,
 13:23:13.231,f6:90:cc:01:6d:25, 2015-01-01 01:09:14.290, 0.694, 0.039, -0.698, -0.366, 0, -0.122, 176.979, -44.78, -16.848, -25.053, -13.133, 19.360, 30.86, 0.07932, 0.91299, -0.14459, 0.37305,
 13:23:13.231,f6:90:cc:01:6d:25, 2015-01-01 01:09:14.290, 0.694, 0.038, -0.703, -0.488, 0.427, -0.183, 176.968, -44.786, -16.853, -25.053, -13.133, 19.360, 30.86, 0.07932, 0.91299, -0.14459, 0.37305,
 13:23:13.250,ed:40:fe:65:30:6c, 2015-01-01 01:09:14.695, 0.988, 0.019, -0.179, -0.427, 0.366, 0, 175.452, -80.052, 40.715, -28.247, -16.507, 16.180, 28.99, 0.19525, -0.72614, -0.24243, -0.61295,
 13:23:13.250,ed:40:fe:65:30:6c, 2015-01-01 01:09:14.695, 0.987, 0.016, -0.179, -0.427, 0.427, 0, 175.43, -80.057, 40.699, -28.247, -16.507, 16.180, 28.99, 0.19525, -0.72614, -0.24243, -0.61295,
 13:23:13.250,e3:ca:2d:fd:e0:8c, 2015-01-01 01:09:15.735, 1, -0.029, -0.204, -0.061, -0.61, 0, -170.447, -78.569, -23.758, -26.540, -12.007, 1.700, 28.97, 0.0658, 0.7655, -0.10641, 0.63104,
 13:23:13.250,e3:ca:2d:fd:e0:8c, 2015-01-01 01:09:15.735, 1.001, -0.031, -0.205, -0.549, -0.732, -0.244, -170.491, -78.552, -23.752, -26.540, -12.007, 1.700, 28.97, 0.0658, 0.7655, -0.10641, 0.63104,
 13:23:13.251,ed:35:33:d3:6c:f8, 2015-01-01 01:09:15.035, 0.927, -0.061, 0.357, 0.244, 0, -1.587, -9.954, -68.654, 165.097, -23.927, -13.800, -16.820, 28.31, 0.15457, 0.54834, -0.14368, 0.80911,
 13:23:13.251,ed:35:33:d3:6c:f8, 2015-01-01 01:09:15.035, 0.928, -0.057, 0.355, 0, 0.305, -1.404, -9.882, -68.654, 165.015, -23.927, -13.800, -16.820, 28.31, 0.15457, 0.54834, -0.14368, 0.80911,
 13:23:13.253,f6:90:cc:01:6d:25, 2015-01-01 01:09:14.290, 0.693, 0.036, -0.706, -0.366, 0.427, -0.122, 176.957, -44.791, -16.853, -25.053, -13.133, 19.360, 30.86, 0.07932, 0.91299, -0.14459, 0.37305,
 13:23:13.253,f6:90:cc:01:6d:25, 2015-01-01 01:09:14.290, 0.693, 0.036, -0.705, -0.244, 0.122, -0.122, 176.946, -44.797, -16.859, -25.053, -13.133, 19.360, 30.86, 0.07932, 0.91299, -0.14459, 0.37305,
 13:23:13.274,ed:35:33:d3:6c:f8, 2015-01-01 01:09:15.035, 0.928, -0.055, 0.355, 0.122, 0.183, -1.038, -9.822, -68.654, 164.938, -23.920, -13.433, -16.973, 28.31, 0.15457, 0.54834, -0.14368, 0.80911,
 13:23:13.274,ed:35:33:d3:6c:f8, 2015-01-01 01:09:15.035, 0.926, -0.059, 0.353, 0.061, 0.183, -1.038, -9.767, -68.648, 164.883, -23.920, -13.433, -16.973, 28.31, 0.15457, 0.54834, -0.14368, 0.80911,
 13:23:13.295,ed:40:fe:65:30:6c, 2015-01-01 01:09:14.695, 0.988, 0.018, -0.179, -0.183, 0.488, 0, 175.408, -80.063, 40.693, -28.247, -16.507, 16.180, 28.99, 0.19525, -0.72614, -0.24243, -0.61295,
 13:23:13.295,ed:40:fe:65:30:6c, 2015-01-01 01:09:14.695, 0.988, 0.019, -0.179, 0, 0.549, 0, 175.391, -80.068, 40.682, -28.247, -16.507, 16.180, 28.99, 0.19525, -0.72614, -0.24243, -0.61295,
 13:23:13.298,f6:90:cc:01:6d:25, 2015-01-01 01:09:14.290, 0.693, 0.039, -0.703, -0.061, 0.183, -0.183, 176.94, -44.797, -16.875, -25.053, -13.133, 19.360, 30.86, 0.07932, 0.91299, -0.14459, 0.37305,
 13:23:13.298,f6:90:cc:01:6d:25, 2015-01-01 01:09:14.290, 0.694, 0.038, -0.704, 0, 0.366, -0.183, 176.935, -44.802, -16.891, -25.053, -13.133, 19.360, 30.86, 0.07932, 0.91299, -0.14459, 0.37305,
 13:23:13.317,e3:ca:2d:fd:e0:8c, 2015-01-01 01:09:15.735, 1, -0.033, -0.207, -0.427, -0.732, -0.183, -170.535, -78.536, -23.752, -26.340, -12.207, 1.213, 28.97, 0.0658, 0.7655, -0.10641, 0.63104,
 13:23:13.317,e3:ca:2d:fd:e0:8c, 2015-01-01 01:09:15.735, 0.998, -0.031, -0.208, 0.122, -0.671, 0, -170.557, -78.525, -23.758, -26.340, -12.207, 1.213, 28.97, 0.0658, 0.7655, -0.10641, 0.63104,
 13:23:13.318,ed:35:33:d3:6c:f8, 2015-01-01 01:09:15.035, 0.928, -0.057, 0.353, -0.183, 0.427, -0.916, -9.717, -68.648, 164.839, -23.920, -13.433, -16.973, 28.31, 0.15457, 0.54834, -0.14368, 0.80911,
 13:23:13.318,ed:35:33:d3:6c:f8, 2015-01-01 01:09:15.035, 0.928, -0.053, 0.354, -0.366, 0.854, -0.305, -9.701, -68.632, 164.833, -23.920, -13.433, -16.973, 28.31, 0.15457, 0.54834, -0.14368, 0.80911,
 13:23:13.339,e3:ca:2d:fd:e0:8c, 2015-01-01 01:09:15.735, 0.999, -0.032, -0.206, 0.488, -0.732, 0.244, -170.552, -78.503, -23.769, -26.340, -12.207, 1.213, 28.97, 0.06747, 0.76587, -0.10794, 0.63019,
 13:23:13.339,e3:ca:2d:fd:e0:8c, 2015-01-01 01:09:15.735, 1, -0.034, -0.206, 0.366, -0.793, 0.183, -170.541, -78.486, -23.78, -26.340, -12.207, 1.213, 28.97, 0.06747, 0.76587, -0.10794, 0.63019,
 13:23:13.340,ed:40:fe:65:30:6c, 2015-01-01 01:09:15.050, 0.988, 0.017, -0.178, 0, 0.61, 0, 175.375, -80.079, 40.693, -28.247, -16.507, 16.180, 28.99, 0.19525, -0.72614, -0.24243, -0.61295,
 13:23:13.340,ed:40:fe:65:30:6c, 2015-01-01 01:09:15.050, 0.988, 0.014, -0.177, 0.122, 0.549, 0, 175.358, -80.085, 40.71, -28.247, -16.507, 16.180, 28.99, 0.19525, -0.72614, -0.24243, -0.61295,
 13:23:13.342,f6:90:cc:01:6d:25, 2015-01-01 01:09:14.290, 0.694, 0.036, -0.706, 0.305, 0.427, -0.061, 176.935, -44.808, -16.908, -25.040, -13.173, 19.027, 30.86, 0.07932, 0.91299, -0.14459, 0.37305,
 13:23:13.342,f6:90:cc:01:6d:25, 2015-01-01 01:09:14.290, 0.694, 0.035, -0.706, 0.366, 0.427, -0.122, 176.94, -44.813, -16.908, -25.040, -13.173, 19.027, 30.86, 0.07932, 0.91299, -0.14459, 0.37305,
 13:23:13.342,ed:35:33:d3:6c:f8, 2015-01-01 01:09:15.035, 0.927, -0.057, 0.354, -0.305, 0.977, 0.061, -9.695, -68.615, 164.844, -23.920, -13.433, -16.973, 28.31, 0.15579, 0.54758, -0.14331, 0.80948,
 13:23:13.342,ed:35:33:d3:6c:f8, 2015-01-01 01:09:15.035, 0.925, -0.062, 0.354, 0.183, 0.793, 0.122, -9.69, -68.599, 164.861, -23.920, -13.433, -16.973, 28.31, 0.15579, 0.54758, -0.14331, 0.80948,
 13:23:13.384,e3:ca:2d:fd:e0:8c, 2015-01-01 01:09:15.735, 1, -0.034, -0.206, 0.061, -0.671, 0.183, -170.535, -78.47, -23.796, -26.340, -12.207, 1.213, 28.97, 0.06747, 0.76587, -0.10794, 0.63019,
 13:23:13.384,e3:ca:2d:fd:e0:8c, 2015-01-01 01:09:15.735, 1, -0.033, -0.206, 0.366, -0.732, 0.427, -170.513, -78.453, -23.807, -26.340, -12.207, 1.213, 28.97, 0.06747, 0.76587, -0.10794, 0.63019,
 13:23:13.386,ed:40:fe:65:30:6c, 2015-01-01 01:09:15.050, 0.988, 0.015, -0.175, 0.488, 0.488, 0, 175.347, -80.09, 40.715, -28.247, -16.507, 16.180, 28.99, 0.19525, -0.72614, -0.24243, -0.61295,
 13:23:13.386,ed:40:fe:65:30:6c, 2015-01-01 01:09:15.050, 0.988, 0.019, -0.174, 0.488, 0.305, 0, 175.347, -80.096, 40.715, -28.247, -16.507, 16.180, 28.99, 0.19525, -0.72614, -0.24243, -0.61295,
 13:23:13.386,ed:35:33:d3:6c:f8, 2015-01-01 01:09:15.035, 0.924, -0.061, 0.357, 0.488, 0.793, 0.122, -9.673, -68.588, 164.861, -23.920, -13.433, -16.973, 28.31, 0.15579, 0.54758, -0.14331, 0.80948,
 13:23:13.386,ed:35:33:d3:6c:f8, 2015-01-01 01:09:15.035, 0.925, -0.055, 0.362, 0.366, 0.916, 0.366, -9.673, -68.566, 164.877, -23.920, -13.433, -16.973, 28.31, 0.15579, 0.54758, -0.14331, 0.80948,
 13:23:13.387,f6:90:cc:01:6d:25, 2015-01-01 01:09:14.290, 0.694, 0.037, -0.705, 0.61, 0.366, -0.244, 176.951, -44.819, -16.913, -25.040, -13.173, 19.027, 30.86, 0.08038, 0.91257, -0.14597, 0.37332,
 13:23:13.387,f6:90:cc:01:6d:25, 2015-01-01 01:09:14.290, 0.695, 0.036, -0.704, 0.732, 0.244, -0.305, 176.957, -44.824, -16.924, -25.040, -13.173, 19.027, 30.86, 0.08038, 0.91257, -0.14597, 0.37332,
 13:23:13.406,e3:ca:2d:fd:e0:8c, 2015-01-01 01:09:16.070, 1.001, -0.033, -0.206, 0.793, -0.427, 0.488, -170.464, -78.437, -23.829, -26.340, -12.207, 1.213, 28.97, 0.06747, 0.76587, -0.10794, 0.63019,
 13:23:13.406,e3:ca:2d:fd:e0:8c, 2015-01-01 01:09:16.070, 1, -0.034, -0.205, 0.488, -0.183, 0.366, -170.425, -78.431, -23.857, -26.340, -12.207, 1.213, 28.97, 0.06747, 0.76587, -0.10794, 0.63019,
 13:23:13.408,ed:40:fe:65:30:6c, 2015-01-01 01:09:15.050, 0.989, 0.019, -0.176, 0.183, 0.061, 0, 175.342, -80.101, 40.721, -28.247, -16.507, 16.180, 28.99, 0.19525, -0.72614, -0.24243, -0.61295,
 13:23:13.408,ed:40:fe:65:30:6c, 2015-01-01 01:09:15.050, 0.986, 0.018, -0.175, 0, 0, 0, 175.331, -80.096, 40.721, -28.247, -16.507, 16.180, 28.99, 0.19525, -0.72614, -0.24243, -0.61295,
 13:23:13.433,f6:90:cc:01:6d:25, 2015-01-01 01:09:14.605, 0.695, 0.036, -0.705, 0.488, -0.061, -0.122, 176.968, -44.819, -16.935, -25.040, -13.173, 19.027, 30.86, 0.08038, 0.91257, -0.14597, 0.37332,
 13:23:13.433,f6:90:cc:01:6d:25, 2015-01-01 01:09:14.605, 0.695, 0.038, -0.704, 0.305, -0.244, 0, 176.973, -44.813, -16.952, -25.040, -13.173, 19.027, 30.86, 0.08038, 0.91257, -0.14597, 0.37332,
 13:23:13.433,ed:35:33:d3:6c:f8, 2015-01-01 01:09:15.370, 0.926, -0.055, 0.36, 0.122, 0.732, 0.854, -9.701, -68.549, 164.921, -23.920, -13.433, -16.973, 28.31, 0.15579, 0.54758, -0.14331, 0.80948,
 13:23:13.433,ed:35:33:d3:6c:f8, 2015-01-01 01:09:15.370, 0.923, -0.059, 0.359, 0, 0.122, 0.732, -9.734, -68.549, 164.96, -23.920, -13.433, -16.973, 28.31, 0.15579, 0.54758, -0.14331, 0.80948,
 13:23:13.453,e3:ca:2d:fd:e0:8c, 2015-01-01 01:09:16.070, 1.001, -0.033, -0.206, 0, -0.366, 0.122, -170.414, -78.42, -23.879, -26.340, -12.207, 1.213, 28.97, 0.06747, 0.76587, -0.10794, 0.63019,
 13:23:13.453,e3:ca:2d:fd:e0:8c, 2015-01-01 01:09:16.070, 0.999, -0.033, -0.205, -0.061, -0.122, 0.122, -170.414, -78.415, -23.906, -26.340, -12.207, 1.213, 28.97, 0.06747, 0.76587, -0.10794, 0.63019,
 13:23:13.455,f6:90:cc:01:6d:25, 2015-01-01 01:09:14.605, 0.697, 0.037, -0.702, 0.183, -0.183, 0, 176.979, -44.808, -16.968, -25.040, -13.173, 19.027, 30.86, 0.08038, 0.91257, -0.14597, 0.37332,
 13:23:13.455,f6:90:cc:01:6d:25, 2015-01-01 01:09:14.605, 0.696, 0.037, -0.701, 0.244, -0.427, 0, 176.984, -44.802, -16.99, -25.040, -13.173, 19.027, 30.86, 0.08038, 0.91257, -0.14597, 0.37332,
 13:23:13.474,ed:40:fe:65:30:6c, 2015-01-01 01:09:15.050, 0.987, 0.016, -0.172, 0.305, -0.122, 0, 175.325, -80.09, 40.721, -28.247, -16.507, 16.180, 28.99, 0.19525, -0.72614, -0.24243, -0.61295,
 13:23:13.474,ed:40:fe:65:30:6c, 2015-01-01 01:09:15.050, 0.988, 0.015, -0.175, 0.427, -0.183, 0, 175.32, -80.085, 40.721, -28.247, -16.507, 16.180, 28.99, 0.19525, -0.72614, -0.24243, -0.61295,
 13:23:13.477,ed:35:33:d3:6c:f8, 2015-01-01 01:09:15.370, 0.922, -0.06, 0.36, 0.122, -0.244, 0.488, -9.75, -68.549, 164.993, -23.920, -13.433, -16.973, 28.31, 0.15579, 0.54758, -0.14331, 0.80948,
 13:23:13.477,ed:35:33:d3:6c:f8, 2015-01-01 01:09:15.370, 0.927, -0.061, 0.358, 0.305, 0.122, 0.366, -9.756, -68.549, 165.026, -23.920, -13.433, -16.973, 28.31, 0.15579, 0.54758, -0.14331, 0.80948,
 13:23:13.497,e3:ca:2d:fd:e0:8c, 2015-01-01 01:09:16.070, 0.997, -0.034, -0.203, 0.122, -0.061, 0.244, -170.398, -78.409, -23.934, -26.340, -12.207, 1.213, 28.97, 0.06747, 0.76587, -0.10794, 0.63019,
 13:23:13.497,e3:ca:2d:fd:e0:8c, 2015-01-01 01:09:16.070, 0.997, -0.036, -0.202, 0.427, -0.244, 0.366, -170.365, -78.404, -23.989, -26.340, -12.207, 1.213, 28.97, 0.06747, 0.76587, -0.10794, 0.63019,
 13:23:13.499,ed:35:33:d3:6c:f8, 2015-01-01 01:09:15.370, 0.929, -0.064, 0.355, 0.793, 0.366, 0.366, -9.75, -68.538, 165.064, -23.920, -13.433, -16.973, 28.31, 0.15579, 0.54758, -0.14331, 0.80948,
 13:23:13.499,ed:35:33:d3:6c:f8, 2015-01-01 01:09:15.370, 0.936, -0.064, 0.354, 1.892, 1.16, 0.61, -9.734, -68.516, 165.119, -23.920, -13.433, -16.973, 28.31, 0.15579, 0.54758, -0.14331, 0.80948,
 13:23:13.500,f6:90:cc:01:6d:25, 2015-01-01 01:09:14.605, 0.696, 0.034, -0.703, 0.183, 0.061, -0.061, 176.99, -44.797, -17.007, -25.040, -13.173, 19.027, 30.86, 0.08038, 0.91257, -0.14597, 0.37332,
 13:23:13.500,f6:90:cc:01:6d:25, 2015-01-01 01:09:14.605, 0.695, 0.026, -0.706, -0.244, 0.305, -0.183, 176.984, -44.797, -17.018, -25.040, -13.173, 19.027, 30.86, 0.08038, 0.91257, -0.14597, 0.37332,
 13:23:13.520,ed:40:fe:65:30:6c, 2015-01-01 01:09:15.050, 0.989, 0.011, -0.179, 0.671, -0.122, 0, 175.32, -80.079, 40.721, -28.247, -16.507, 16.180, 28.99, 0.19525, -0.72614, -0.24243, -0.61295,
 13:23:13.520,ed:40:fe:65:30:6c, 2015-01-01 01:09:15.050, 0.99, 0.011, -0.18, 0.732, 0.061, 0, 175.331, -80.079, 40.726, -28.247, -16.507, 16.180, 28.99, 0.19525, -0.72614, -0.24243, -0.61295,
 13:23:13.541,e3:ca:2d:fd:e0:8c, 2015-01-01 01:09:16.070, 1, -0.04, -0.205, 0.305, 0.122, 0, -170.354, -78.404, -24.016, -26.340, -12.207, 1.213, 28.97, 0.06747, 0.76587, -0.10794, 0.63019,
 13:23:13.541,e3:ca:2d:fd:e0:8c, 2015-01-01 01:09:16.070, 1.004, -0.037, -0.205, 0.122, 1.038, -0.244, -170.354, -78.42, -24.038, -26.340, -12.207, 1.213, 28.97, 0.06747, 0.76587, -0.10794, 0.63019,
 13:23:13.542,ed:40:fe:65:30:6c, 2015-01-01 01:09:15.050, 0.989, 0.018, -0.186, 1.038, 0.549, 0, 175.342, -80.079, 40.726, -28.047, -16.453, 16.973, 28.99, 0.19525, -0.72614, -0.24243, -0.61295,
 13:23:13.542,ed:40:fe:65:30:6c, 2015-01-01 01:09:15.050, 0.988, 0.021, -0.185, 1.16, 0.549, 0, 175.353, -80.085, 40.732, -28.047, -16.453, 16.973, 28.99, 0.19525, -0.72614, -0.24243, -0.61295,
 13:23:13.543,ed:35:33:d3:6c:f8, 2015-01-01 01:09:15.370, 0.934, -0.062, 0.345, 3.235, 0.671, 1.038, -9.717, -68.5, 165.19, -23.920, -13.433, -16.973, 28.31, 0.15579, 0.54758, -0.14331, 0.80948,
 13:23:13.543,ed:35:33:d3:6c:f8, 2015-01-01 01:09:15.370, 0.927, -0.062, 0.35, 4.089, -0.793, 0.671, -9.673, -68.522, 165.256, -23.920, -13.433, -16.973, 28.31, 0.15579, 0.54758, -0.14331, 0.80948,
 13:23:13.546,f6:90:cc:01:6d:25, 2015-01-01 01:09:14.605, 0.692, 0.032, -0.706, -0.671, 0, 0, 176.979, -44.797, -17.029, -25.040, -13.173, 19.027, 30.86, 0.08038, 0.91257, -0.14597, 0.37332,
 13:23:13.546,f6:90:cc:01:6d:25, 2015-01-01 01:09:14.605, 0.694, 0.041, -0.714, -0.793, 0.427, 0.183, 176.968, -44.797, -17.051, -25.040, -13.173, 19.027, 30.86, 0.08038, 0.91257, -0.14597, 0.37332,
 13:23:13.588,e3:ca:2d:fd:e0:8c, 2015-01-01 01:09:16.070, 1.002, -0.031, -0.207, -0.061, 1.953, -0.122, -170.338, -78.448, -24.071, -26.340, -12.207, 1.213, 28.97, 0.06747, 0.76587, -0.10794, 0.63019,
 13:23:13.588,e3:ca:2d:fd:e0:8c, 2015-01-01 01:09:16.070, 1.001, -0.029, -0.204, -0.427, 2.625, -0.122, -170.316, -78.497, -24.131, -26.340, -12.207, 1.213, 28.97, 0.06747, 0.76587, -0.10794, 0.63019,
 13:23:13.588,ed:40:fe:65:30:6c, 2015-01-01 01:09:15.050, 0.986, 0.013, -0.179, 0.732, 0.244, 0, 175.364, -80.09, 40.721, -28.047, -16.453, 16.973, 28.99, 0.19525, -0.72614, -0.24243, -0.61295,
 13:23:13.588,ed:40:fe:65:30:6c, 2015-01-01 01:09:15.050, 0.985, 0.007, -0.168, -0.122, 0.183, 0, 175.369, -80.09, 40.715, -28.047, -16.453, 16.973, 28.99, 0.19525, -0.72614, -0.24243, -0.61295,
 13:23:13.589,ed:35:33:d3:6c:f8, 2015-01-01 01:09:15.370, 0.924, -0.063, 0.357, 3.357, -1.892, -0.549, -9.597, -68.56, 165.262, -23.920, -13.433, -16.973, 28.31, 0.15579, 0.54758, -0.14331, 0.80948,
 13:23:13.589,ed:35:33:d3:6c:f8, 2015-01-01 01:09:15.370, 0.919, -0.063, 0.362, -0.122, -1.587, -1.16, -9.558, -68.599, 165.201, -23.920, -13.433, -16.973, 28.31, 0.15579, 0.54758, -0.14331, 0.80948,
 13:23:13.591,f6:90:cc:01:6d:25, 2015-01-01 01:09:14.605, 0.697, 0.037, -0.71, -1.282, 0.793, 0.305, 176.951, -44.808, -17.067, -25.040, -13.173, 19.027, 30.86, 0.08038, 0.91257, -0.14597, 0.37332,
 13:23:13.591,f6:90:cc:01:6d:25, 2015-01-01 01:09:14.605, 0.7, 0.035, -0.702, -2.258, 0.183, 0.122, 176.924, -44.813, -17.078, -25.040, -13.173, 19.027, 30.86, 0.08038, 0.91257, -0.14597, 0.37332,
 13:23:13.609,e3:ca:2d:fd:e0:8c, 2015-01-01 01:09:16.070, 0.998, -0.033, -0.2, -0.916, 2.686, -0.61, -170.343, -78.547, -24.153, -26.500, -12.007, 1.513, 28.97, 0.06747, 0.76587, -0.10794, 0.63019,
 13:23:13.609,e3:ca:2d:fd:e0:8c, 2015-01-01 01:09:16.070, 0.992, -0.035, -0.195, -1.892, 2.197, -1.404, -170.453, -78.596, -24.099, -26.500, -12.007, 1.513, 28.97, 0.06747, 0.76587, -0.10794, 0.63019,
 13:23:13.611,ed:40:fe:65:30:6c, 2015-01-01 01:09:15.050, 0.984, 0.008, -0.165, -0.977, 0.122, -0.366, 175.347, -80.085, 40.715, -28.047, -16.453, 16.973, 28.99, 0.19464, -0.72614, -0.2417, -0.61343,
 13:23:13.611,ed:40:fe:65:30:6c, 2015-01-01 01:09:15.050, 0.983, 0.008, -0.16, -1.648, 0.061, -0.671, 175.276, -80.085, 40.759, -28.047, -16.453, 16.973, 28.99, 0.19464, -0.72614, -0.2417, -0.61343,
 13:23:13.613,f6:90:cc:01:6d:25, 2015-01-01 01:09:14.605, 0.701, 0.035, -0.692, -3.54, -0.732, -0.061, 176.869, -44.802, -17.095, -24.607, -12.967, 18.507, 30.86, 0.08038, 0.91257, -0.14597, 0.37332,
 13:23:13.613,f6:90:cc:01:6d:25, 2015-01-01 01:09:14.605, 0.698, 0.034, -0.684, -5.188, -0.977, 0, 176.776, -44.786, -17.111, -24.607, -12.967, 18.507, 30.86, 0.08038, 0.91257, -0.14597, 0.37332,
 13:23:13.654,e3:ca:2d:fd:e0:8c, 2015-01-01 01:09:16.070, 0.992, -0.037, -0.192, -2.747, 0.854, -2.258, -170.684, -78.624, -23.934, -26.500, -12.007, 1.513, 28.97, 0.06747, 0.76587, -0.10794, 0.63019,
 13:23:13.654,e3:ca:2d:fd:e0:8c, 2015-01-01 01:09:16.070, 0.997, -0.036, -0.194, -3.174, -0.244, -2.991, -171.013, -78.629, -23.67, -26.500, -12.007, 1.513, 28.97, 0.06747, 0.76587, -0.10794, 0.63019,
 13:23:13.656,ed:40:fe:65:30:6c, 2015-01-01 01:09:15.050, 0.985, 0.01, -0.156, -2.563, -0.183, -0.916, 175.166, -80.085, 40.836, -28.047, -16.453, 16.973, 28.99, 0.19464, -0.72614, -0.2417, -0.61343,
 13:23:13.656,ed:40:fe:65:30:6c, 2015-01-01 01:09:15.050, 0.986, 0.013, -0.161, -3.113, -0.244, -1.099, 175.012, -80.079, 40.93, -28.047, -16.453, 16.973, 28.99, 0.19464, -0.72614, -0.2417, -0.61343,
 13:23:13.656,ed:35:33:d3:6c:f8, 2015-01-01 01:09:15.370, 0.911, -0.071, 0.363, -3.174, -2.014, -1.343, -9.58, -68.643, 165.135, -23.473, -13.300, -16.547, 28.31, 0.15579, 0.54758, -0.14331, 0.80948,
 13:23:13.656,ed:35:33:d3:6c:f8, 2015-01-01 01:09:15.370, 0.903, -0.075, 0.368, -3.296, -1.709, -2.686, -9.531, -68.687, 164.998, -23.473, -13.300, -16.547, 28.31, 0.15579, 0.54758, -0.14331, 0.80948,
 13:23:13.657,f6:90:cc:01:6d:25, 2015-01-01 01:09:14.605, 0.699, 0.034, -0.685, -6.287, -0.671, 0.061, 176.66, -44.769, -17.122, -24.607, -12.967, 18.507, 30.86, 0.08038, 0.91257, -0.14597, 0.37332,
 13:23:13.657,f6:90:cc:01:6d:25, 2015-01-01 01:09:14.605, 0.698, 0.034, -0.69, -5.554, -0.671, 0, 176.556, -44.758, -17.122, -24.607, -12.967, 18.507, 30.86, 0.08038, 0.91257, -0.14597, 0.37332,
 13:23:13.680,ed:35:33:d3:6c:f8, 2015-01-01 01:09:15.370, 0.914, -0.067, 0.377, -3.052, -0.671, -4.028, -9.404, -68.703, 164.8, -23.473, -13.300, -16.547, 28.31, 0.15463, 0.54849, -0.14145, 0.80939,
 13:23:13.680,ed:35:33:d3:6c:f8, 2015-01-01 01:09:15.370, 0.921, -0.064, 0.37, -2.441, -0.244, -4.395, -9.245, -68.719, 164.575, -23.473, -13.300, -16.547, 28.31, 0.15463, 0.54849, -0.14145, 0.80939,
 13:23:13.701,ed:40:fe:65:30:6c, 2015-01-01 01:09:15.410, 0.987, 0.015, -0.168, -2.808, -0.061, -1.099, 174.836, -80.079, 41.034, -28.047, -16.453, 16.973, 28.99, 0.19464, -0.72614, -0.2417, -0.61343,
 13:23:13.701,ed:40:fe:65:30:6c, 2015-01-01 01:09:15.410, 0.988, 0.017, -0.174, -1.892, 0, -0.977, 174.677, -80.079, 41.144, -28.047, -16.453, 16.973, 28.99, 0.19464, -0.72614, -0.2417, -0.61343,
 13:23:13.702,f6:90:cc:01:6d:25, 2015-01-01 01:09:14.605, 0.694, 0.035, -0.694, -3.54, -0.854, 0, 176.479, -44.747, -17.117, -24.607, -12.967, 18.507, 30.86, 0.08371, 0.91223, -0.14874, 0.37231,
 13:23:13.702,f6:90:cc:01:6d:25, 2015-01-01 01:09:14.605, 0.692, 0.039, -0.698, -1.221, -0.977, -0.122, 176.451, -44.731, -17.111, -24.607, -12.967, 18.507, 30.86, 0.08371, 0.91223, -0.14874, 0.37231,
 13:23:13.723,e3:ca:2d:fd:e0:8c, 2015-01-01 01:09:16.070, 1.001, -0.034, -0.197, -2.808, -1.099, -2.93, -171.359, -78.624, -23.384, -26.500, -12.007, 1.513, 28.97, 0.07004, 0.76501, -0.10959, 0.63065,
 13:23:13.723,e3:ca:2d:fd:e0:8c, 2015-01-01 01:09:16.070, 0.999, -0.035, -0.204, -1.587, -1.953, -2.136, -171.634, -78.591, -23.154, -26.500, -12.007, 1.513, 28.97, 0.07004, 0.76501, -0.10959, 0.63065,
 13:23:13.724,ed:35:33:d3:6c:f8, 2015-01-01 01:09:15.370, 0.923, -0.059, 0.359, -0.427, -0.671, -4.272, -9.058, -68.736, 164.355, -23.473, -13.300, -16.547, 28.31, 0.15463, 0.54849, -0.14145, 0.80939,
 13:23:13.724,ed:35:33:d3:6c:f8, 2015-01-01 01:09:15.370, 0.93, -0.05, 0.357, 1.099, -0.854, -3.418, -8.877, -68.758, 164.191, -23.473, -13.300, -16.547, 28.31, 0.15463, 0.54849, -0.14145, 0.80939,
 13:23:13.744,e3:ca:2d:fd:e0:8c, 2015-01-01 01:09:16.405, 0.999, -0.032, -0.208, -0.366, -2.258, -1.282, -171.81, -78.552, -23, -26.500, -12.007, 1.513, 28.97, 0.07004, 0.76501, -0.10959, 0.63065,
 13:23:13.744,e3:ca:2d:fd:e0:8c, 2015-01-01 01:09:16.405, 1, -0.027, -0.208, 0.305, -2.014, -0.549, -171.892, -78.514, -22.939, -26.500, -12.007, 1.513, 28.97, 0.07004, 0.76501, -0.10959, 0.63065,
 13:23:13.745,ed:40:fe:65:30:6c, 2015-01-01 01:09:15.410, 0.989, 0.021, -0.181, -1.099, 0, -0.793, 174.545, -80.079, 41.232, -28.047, -16.453, 16.973, 28.99, 0.19464, -0.72614, -0.2417, -0.61343,
 13:23:13.745,ed:40:fe:65:30:6c, 2015-01-01 01:09:15.410, 0.982, 0.025, -0.183, -0.793, 0.122, -0.671, 174.446, -80.079, 41.287, -28.047, -16.453, 16.973, 28.99, 0.19464, -0.72614, -0.2417, -0.61343,
 13:23:13.746,ed:35:33:d3:6c:f8, 2015-01-01 01:09:15.370, 0.935, -0.044, 0.351, 1.465, -0.732, -2.441, -8.74, -68.774, 164.086, -23.473, -13.300, -16.547, 28.31, 0.15463, 0.54849, -0.14145, 0.80939,
 13:23:13.746,ed:35:33:d3:6c:f8, 2015-01-01 01:09:15.370, 0.914, -0.039, 0.348, 1.038, -0.732, -1.343, -8.657, -68.791, 164.042, -23.473, -13.300, -16.547, 28.31, 0.15463, 0.54849, -0.14145, 0.80939,
 13:23:13.747,f6:90:cc:01:6d:25, 2015-01-01 01:09:14.915, 0.691, 0.046, -0.702, 0.061, -0.549, -0.122, 176.451, -44.72, -17.106, -24.607, -12.967, 18.507, 30.86, 0.08371, 0.91223, -0.14874, 0.37231,
 13:23:13.747,f6:90:cc:01:6d:25, 2015-01-01 01:09:14.915, 0.674, 0.047, -0.709, 0.305, -0.183, -0.122, 176.457, -44.72, -17.095, -24.607, -12.967, 18.507, 30.86, 0.08371, 0.91223, -0.14874, 0.37231,
 13:23:13.767,e3:ca:2d:fd:e0:8c, 2015-01-01 01:09:16.405, 0.992, -0.022, -0.207, 0.244, -1.648, -0.305, -171.936, -78.475, -22.917, -26.500, -12.007, 1.513, 28.97, 0.07004, 0.76501, -0.10959, 0.63065,
 13:23:13.767,e3:ca:2d:fd:e0:8c, 2015-01-01 01:09:16.405, 1.007, -0.019, -0.207, 0.122, -1.587, -0.366, -171.985, -78.448, -22.885, -26.500, -12.007, 1.513, 28.97, 0.07004, 0.76501, -0.10959, 0.63065,
 13:23:13.791,ed:40:fe:65:30:6c, 2015-01-01 01:09:15.410, 0.99, -0.002, -0.178, 0.183, -0.183, -0.793, 174.359, -80.074, 41.347, -28.047, -16.453, 16.973, 28.99, 0.19464, -0.72614, -0.2417, -0.61343,
 13:23:13.791,ed:40:fe:65:30:6c, 2015-01-01 01:09:15.410, 0.993, 0.046, -0.184, -0.061, 1.099, -0.488, 174.287, -80.074, 41.396, -28.047, -16.453, 16.973, 28.99, 0.19464, -0.72614, -0.2417, -0.61343,
 13:23:13.791,ed:35:33:d3:6c:f8, 2015-01-01 01:09:15.370, 0.957, -0.058, 0.335, 0.916, -1.648, 0, -8.657, -68.824, 164.075, -23.473, -13.300, -16.547, 28.31, 0.15463, 0.54849, -0.14145, 0.80939,
 13:23:13.791,ed:35:33:d3:6c:f8, 2015-01-01 01:09:15.370, 0.917, -0.042, 0.355, 1.709, 0.977, -0.305, -8.597, -68.802, 164.114, -23.473, -13.300, -16.547, 28.31, 0.15463, 0.54849, -0.14145, 0.80939,
 13:23:13.793,f6:90:cc:01:6d:25, 2015-01-01 01:09:14.915, 0.717, 0.043, -0.703, 0.366, -0.793, -0.366, 176.462, -44.703, -17.095, -24.607, -12.967, 18.507, 30.86, 0.08371, 0.91223, -0.14874, 0.37231,
 13:23:13.793,f6:90:cc:01:6d:25, 2015-01-01 01:09:14.915, 0.679, 0.051, -0.705, 0.183, 1.526, -0.916, 176.457, -44.72, -17.078, -24.607, -12.967, 18.507, 30.86, 0.08371, 0.91223, -0.14874, 0.37231,
 13:23:13.812,e3:ca:2d:fd:e0:8c, 2015-01-01 01:09:16.405, 0.993, -0.022, -0.201, 0.183, -0.977, -0.183, -172.018, -78.42, -22.846, -26.500, -12.007, 1.513, 28.97, 0.07004, 0.76501, -0.10959, 0.63065,
 13:23:13.812,e3:ca:2d:fd:e0:8c, 2015-01-01 01:09:16.405, 1.003, -0.012, -0.208, -0.183, -2.686, -0.061, -172.068, -78.376, -22.819, -26.500, -12.007, 1.513, 28.97, 0.07004, 0.76501, -0.10959, 0.63065,
 13:23:13.815,ed:40:fe:65:30:6c, 2015-01-01 01:09:15.410, 0.979, 0.04, -0.177, -0.061, 0.488, -0.305, 174.221, -80.09, 41.451, -28.047, -16.453, 16.973, 28.99, 0.19464, -0.72614, -0.2417, -0.61343,
 13:23:13.815,ed:40:fe:65:30:6c, 2015-01-01 01:09:15.410, 0.997, 0.038, -0.175, -0.671, 0.854, 0, 174.172, -80.101, 41.49, -28.047, -16.453, 16.973, 28.99, 0.19464, -0.72614, -0.2417, -0.61343,
 13:23:13.816,f6:90:cc:01:6d:25, 2015-01-01 01:09:14.915, 0.695, 0.062, -0.702, -0.671, -0.061, -0.305, 176.435, -44.725, -17.073, -24.607, -12.967, 18.507, 30.86, 0.08371, 0.91223, -0.14874, 0.37231,
 13:23:13.816,f6:90:cc:01:6d:25, 2015-01-01 01:09:14.915, 0.696, 0.058, -0.706, -0.671, 1.282, 0, 176.418, -44.747, -17.089, -24.607, -12.967, 18.507, 30.86, 0.08371, 0.91223, -0.14874, 0.37231,
 13:23:13.857,e3:ca:2d:fd:e0:8c, 2015-01-01 01:09:16.405, 1.002, -0.018, -0.208, -0.61, -1.587, -0.122, -172.123, -78.338, -22.786, -26.500, -12.007, 1.513, 28.97, 0.07004, 0.76501, -0.10959, 0.63065,
 13:23:13.857,e3:ca:2d:fd:e0:8c, 2015-01-01 01:09:16.405, 1, -0.021, -0.209, 0, -1.587, 0.305, -172.145, -78.311, -22.797, -26.500, -12.007, 1.513, 28.97, 0.07004, 0.76501, -0.10959, 0.63065,
 13:23:13.859,ed:35:33:d3:6c:f8, 2015-01-01 01:09:15.370, 0.934, -0.026, 0.348, -0.671, -0.244, -1.343, -8.536, -68.813, 164.103, -23.473, -13.300, -16.547, 28.34, 0.15463, 0.54849, -0.14145, 0.80939,
 13:23:13.859,ed:35:33:d3:6c:f8, 2015-01-01 01:09:15.370, 0.938, -0.028, 0.352, -0.305, 0.549, -1.77, -8.438, -68.813, 164.031, -23.473, -13.300, -16.547, 28.34, 0.15463, 0.54849, -0.14145, 0.80939,
 13:23:13.860,f6:90:cc:01:6d:25, 2015-01-01 01:09:14.915, 0.69, 0.049, -0.708, -0.793, 0.549, 0, 176.396, -44.758, -17.089, -24.607, -12.967, 18.507, 30.86, 0.08371, 0.91223, -0.14874, 0.37231,
 13:23:13.860,f6:90:cc:01:6d:25, 2015-01-01 01:09:14.915, 0.695, 0.046, -0.708, -0.122, 0.854, -0.427, 176.38, -44.769, -17.073, -24.607, -12.967, 18.507, 30.86, 0.08371, 0.91223, -0.14874, 0.37231,
 13:23:13.880,ed:40:fe:65:30:6c, 2015-01-01 01:09:15.410, 0.985, 0.018, -0.179, 0.244, 0.488, 0.122, 174.139, -80.112, 41.512, -28.047, -16.453, 16.973, 28.99, 0.19464, -0.72614, -0.2417, -0.61343,
 13:23:13.880,ed:40:fe:65:30:6c, 2015-01-01 01:09:15.410, 0.99, 0.02, -0.178, 1.404, 0.488, 0.427, 174.161, -80.118, 41.49, -28.047, -16.453, 16.973, 28.99, 0.19464, -0.72614, -0.2417, -0.61343,
 13:23:13.882,ed:35:33:d3:6c:f8, 2015-01-01 01:09:15.840, 0.929, -0.046, 0.355, 0.732, -1.282, -0.183, -8.41, -68.84, 164.031, -23.473, -13.300, -16.547, 28.34, 0.15463, 0.54849, -0.14145, 0.80939,
 13:23:13.882,ed:35:33:d3:6c:f8, 2015-01-01 01:09:15.840, 0.931, -0.042, 0.35, 2.808, -1.709, 1.16, -8.41, -68.873, 164.092, -23.473, -13.300, -16.547, 28.34, 0.15463, 0.54849, -0.14145, 0.80939,
 13:23:13.903,ed:40:fe:65:30:6c, 2015-01-01 01:09:15.410, 0.985, 0.025, -0.177, 2.38, 0.488, 0.61, 174.227, -80.123, 41.44, -28.120, -16.507, 16.047, 28.99, 0.19464, -0.72614, -0.2417, -0.61343,
 13:23:13.903,ed:40:fe:65:30:6c, 2015-01-01 01:09:15.410, 0.984, 0.028, -0.172, 2.686, 0.427, 0.854, 174.337, -80.129, 41.364, -28.120, -16.507, 16.047, 28.99, 0.19464, -0.72614, -0.2417, -0.61343,
 13:23:13.904,ed:35:33:d3:6c:f8, 2015-01-01 01:09:15.840, 0.925, -0.039, 0.354, 2.808, -2.014, 2.38, -8.476, -68.906, 164.229, -23.473, -13.300, -16.547, 28.34, 0.15463, 0.54849, -0.14145, 0.80939,
 13:23:13.904,ed:35:33:d3:6c:f8, 2015-01-01 01:09:15.840, 0.922, -0.037, 0.351, 3.052, -2.258, 3.174, -8.575, -68.945, 164.405, -23.473, -13.300, -16.547, 28.34, 0.15463, 0.54849, -0.14145, 0.80939,
 13:23:13.905,f6:90:cc:01:6d:25, 2015-01-01 01:09:14.915, 0.692, 0.046, -0.705, 0.549, 0.671, -0.61, 176.375, -44.78, -17.078, -24.607, -12.967, 18.507, 30.86, 0.08371, 0.91223, -0.14874, 0.37231,
 13:23:13.905,f6:90:cc:01:6d:25, 2015-01-01 01:09:14.915, 0.696, 0.046, -0.699, 1.648, 0.61, -0.427, 176.385, -44.786, -17.095, -24.607, -12.967, 18.507, 30.86, 0.08371, 0.91223, -0.14874, 0.37231,
 13:23:13.924,e3:ca:2d:fd:e0:8c, 2015-01-01 01:09:16.405, 1, -0.026, -0.212, 0.183, -0.977, 0.671, -172.123, -78.283, -22.841, -26.500, -12.007, 1.513, 28.97, 0.07004, 0.76501, -0.10959, 0.63065,
 13:23:13.924,e3:ca:2d:fd:e0:8c, 2015-01-01 01:09:16.405, 0.996, -0.027, -0.211, 0.61, -0.549, 1.221, -172.035, -78.267, -22.934, -26.500, -12.007, 1.513, 28.97, 0.07004, 0.76501, -0.10959, 0.63065,
 13:23:13.948,ed:40:fe:65:30:6c, 2015-01-01 01:09:15.410, 0.985, 0.023, -0.167, 2.991, 0.61, 1.038, 174.463, -80.134, 41.265, -28.120, -16.507, 16.047, 28.99, 0.19464, -0.72614, -0.2417, -0.61343,
 13:23:13.948,ed:40:fe:65:30:6c, 2015-01-01 01:09:15.410, 0.984, 0.021, -0.162, 2.686, 0.366, 1.099, 174.611, -80.145, 41.155, -28.120, -16.507, 16.047, 28.99, 0.19464, -0.72614, -0.2417, -0.61343,
 13:23:13.948,ed:35:33:d3:6c:f8, 2015-01-01 01:09:15.840, 0.918, -0.04, 0.357, 2.747, -1.343, 3.784, -8.701, -68.961, 164.603, -23.473, -13.300, -16.547, 28.34, 0.15463, 0.54849, -0.14145, 0.80939,
 13:23:13.951,ed:35:33:d3:6c:f8, 2015-01-01 01:09:15.840, 0.918, -0.044, 0.362, 1.709, -0.61, 4.333, -8.871, -68.961, 164.811, -23.473, -13.300, -16.547, 28.34, 0.15463, 0.54849, -0.14145, 0.80939,
 13:23:13.951,e3:ca:2d:fd:e0:8c, 2015-01-01 01:09:16.405, 0.993, -0.026, -0.208, 1.282, -0.488, 1.709, -171.865, -78.25, -23.099, -26.273, -12.020, 1.687, 28.97, 0.07004, 0.76501, -0.10959, 0.63065,
 13:23:13.951,e3:ca:2d:fd:e0:8c, 2015-01-01 01:09:16.405, 0.994, -0.026, -0.207, 1.892, -0.793, 2.197, -171.65, -78.228, -23.286, -26.273, -12.020, 1.687, 28.97, 0.07004, 0.76501, -0.10959, 0.63065,
 13:23:13.952,f6:90:cc:01:6d:25, 2015-01-01 01:09:14.915, 0.695, 0.049, -0.694, 2.441, 0.732, -0.305, 176.418, -44.797, -17.095, -24.887, -13.107, 18.473, 30.86, 0.08371, 0.91223, -0.14874, 0.37231,
 13:23:13.952,f6:90:cc:01:6d:25, 2015-01-01 01:09:14.915, 0.698, 0.046, -0.693, 2.441, 0.977, -0.183, 176.462, -44.813, -17.095, -24.887, -13.107, 18.473, 30.86, 0.08371, 0.91223, -0.14874, 0.37231,
 13:23:13.994,ed:35:33:d3:6c:f8, 2015-01-01 01:09:15.840, 0.918, -0.049, 0.36, 0.366, 0.427, 4.15, -9.047, -68.939, 164.998, -23.473, -13.300, -16.547, 28.34, 0.15463, 0.54849, -0.14145, 0.80939,
 13:23:13.994,ed:35:33:d3:6c:f8, 2015-01-01 01:09:15.840, 0.922, -0.047, 0.367, -1.16, 1.221, 3.967, -9.24, -68.901, 165.174, -23.473, -13.300, -16.547, 28.34, 0.15463, 0.54849, -0.14145, 0.80939,
 13:23:13.995,f6:90:cc:01:6d:25, 2015-01-01 01:09:14.915, 0.697, 0.043, -0.692, 2.258, 0.916, -0.122, 176.495, -44.83, -17.111, -24.887, -13.107, 18.473, 30.86, 0.08459, 0.91193, -0.14899, 0.37271,
 13:23:13.995,f6:90:cc:01:6d:25, 2015-01-01 01:09:14.915, 0.697, 0.044, -0.694, 1.953, 0.793, 0, 176.534, -44.846, -17.117, -24.887, -13.107, 18.473, 30.86, 0.08459, 0.91193, -0.14899, 0.37271,
 13:23:14.015,e3:ca:2d:fd:e0:8c, 2015-01-01 01:09:16.405, 0.997, -0.027, -0.206, 1.892, -1.282, 2.258, -171.436, -78.195, -23.478, -26.273, -12.020, 1.687, 28.97, 0.07004, 0.76501, -0.10959, 0.63065,
 13:23:14.015,e3:ca:2d:fd:e0:8c, 2015-01-01 01:09:16.405, 0.997, -0.03, -0.205, 1.587, -1.831, 1.953, -171.26, -78.157, -23.626, -26.273, -12.020, 1.687, 28.97, 0.07004, 0.76501, -0.10959, 0.63065,
 13:23:14.015,ed:40:fe:65:30:6c, 2015-01-01 01:09:15.410, 0.987, 0.018, -0.162, 2.319, 0.183, 1.099, 174.754, -80.151, 41.05, -28.120, -16.507, 16.047, 28.99, 0.19235, -0.7262, -0.24033, -0.61465,
 13:23:14.015,ed:40:fe:65:30:6c, 2015-01-01 01:09:15.410, 0.987, 0.019, -0.163, 2.075, -0.061, 1.099, 174.891, -80.156, 40.935, -28.120, -16.507, 16.047, 28.99, 0.19235, -0.7262, -0.24033, -0.61465,
 13:23:14.017,f6:90:cc:01:6d:25, 2015-01-01 01:09:15.205, 0.698, 0.041, -0.7, 1.953, 0.671, 0, 176.567, -44.863, -17.117, -24.887, -13.107, 18.473, 30.86, 0.08459, 0.91193, -0.14899, 0.37271,
 13:23:14.017,f6:90:cc:01:6d:25, 2015-01-01 01:09:15.205, 0.698, 0.035, -0.703, 2.075, 0.366, 0.122, 176.611, -44.868, -17.133, -24.887, -13.107, 18.473, 30.86, 0.08459, 0.91193, -0.14899, 0.37271,
 13:23:14.036,e3:ca:2d:fd:e0:8c, 2015-01-01 01:09:16.405, 0.999, -0.03, -0.209, 1.221, -2.197, 1.77, -171.123, -78.107, -23.747, -26.273, -12.020, 1.687, 28.97, 0.07065, 0.76752, -0.11154, 0.62717,
 13:23:14.036,e3:ca:2d:fd:e0:8c, 2015-01-01 01:09:16.405, 1, -0.033, -0.213, 1.099, -1.953, 1.648, -170.991, -78.063, -23.846, -26.273, -12.020, 1.687, 28.97, 0.07065, 0.76752, -0.11154, 0.62717,
 13:23:14.038,ed:40:fe:65:30:6c, 2015-01-01 01:09:15.765, 0.989, 0.017, -0.168, 1.587, -0.427, 1.099, 175.029, -80.151, 40.814, -28.120, -16.507, 16.047, 28.99, 0.19235, -0.7262, -0.24033, -0.61465,
 13:23:14.038,ed:40:fe:65:30:6c, 2015-01-01 01:09:15.765, 0.989, 0.01, -0.175, 1.343, -0.61, 0.977, 175.161, -80.145, 40.704, -28.120, -16.507, 16.047, 28.99, 0.19235, -0.7262, -0.24033, -0.61465,
 13:23:14.060,ed:40:fe:65:30:6c, 2015-01-01 01:09:15.765, 0.988, 0.005, -0.175, 1.648, -0.488, 0.916, 175.287, -80.134, 40.6, -28.120, -16.507, 16.047, 28.99, 0.19235, -0.7262, -0.24033, -0.61465,
 13:23:14.060,ed:40:fe:65:30:6c, 2015-01-01 01:09:15.765, 0.987, 0.006, -0.173, 1.831, -0.366, 0.732, 175.408, -80.129, 40.507, -28.120, -16.507, 16.047, 28.99, 0.19235, -0.7262, -0.24033, -0.61465,
 13:23:14.061,ed:35:33:d3:6c:f8, 2015-01-01 01:09:15.840, 0.928, -0.055, 0.363, -2.38, 1.282, 4.089, -9.459, -68.857, 165.361, -23.473, -13.300, -16.547, 28.34, 0.15463, 0.54849, -0.14145, 0.80939,
 13:23:14.061,ed:35:33:d3:6c:f8, 2015-01-01 01:09:15.840, 0.928, -0.064, 0.354, -2.869, 0.488, 4.333, -9.706, -68.829, 165.564, -23.473, -13.300, -16.547, 28.34, 0.15463, 0.54849, -0.14145, 0.80939,
 13:23:14.063,f6:90:cc:01:6d:25, 2015-01-01 01:09:15.205, 0.696, 0.03, -0.702, 2.38, 0, 0.122, 176.66, -44.868, -17.144, -24.887, -13.107, 18.473, 30.86, 0.08459, 0.91193, -0.14899, 0.37271,
 13:23:14.063,f6:90:cc:01:6d:25, 2015-01-01 01:09:15.205, 0.697, 0.031, -0.699, 2.197, -0.305, 0.122, 176.704, -44.857, -17.139, -24.887, -13.107, 18.473, 30.86, 0.08459, 0.91193, -0.14899, 0.37271,
 13:23:14.082,e3:ca:2d:fd:e0:8c, 2015-01-01 01:09:16.405, 0.998, -0.039, -0.213, 1.282, -1.587, 1.587, -170.854, -78.025, -23.967, -26.273, -12.020, 1.687, 28.97, 0.07065, 0.76752, -0.11154, 0.62717,
 13:23:14.082,e3:ca:2d:fd:e0:8c, 2015-01-01 01:09:16.405, 0.993, -0.042, -0.213, 1.526, -1.16, 1.404, -170.717, -77.997, -24.093, -26.273, -12.020, 1.687, 28.97, 0.07065, 0.76752, -0.11154, 0.62717,
 13:23:14.084,ed:35:33:d3:6c:f8, 2015-01-01 01:09:15.840, 0.925, -0.075, 0.35, -2.441, -0.122, 4.517, -9.97, -68.818, 165.778, -23.920, -13.313, -16.733, 28.34, 0.15463, 0.54849, -0.14145, 0.80939,
 13:23:14.084,ed:35:33:d3:6c:f8, 2015-01-01 01:09:15.840, 0.926, -0.078, 0.351, -0.793, 0.061, 4.089, -10.179, -68.796, 165.97, -23.920, -13.313, -16.733, 28.34, 0.15463, 0.54849, -0.14145, 0.80939,
 13:23:14.105,ed:40:fe:65:30:6c, 2015-01-01 01:09:15.765, 0.989, 0.011, -0.175, 1.282, -0.183, 0.549, 175.512, -80.123, 40.424, -28.120, -16.507, 16.047, 28.99, 0.19235, -0.7262, -0.24033, -0.61465,
 13:23:14.105,ed:40:fe:65:30:6c, 2015-01-01 01:09:15.765, 0.988, 0.013, -0.179, 0.427, 0, 0.305, 175.578, -80.123, 40.369, -28.120, -16.507, 16.047, 28.99, 0.19235, -0.7262, -0.24033, -0.61465,
 13:23:14.105,e3:ca:2d:fd:e0:8c, 2015-01-01 01:09:16.760, 0.993, -0.041, -0.21, 1.465, -0.61, 1.221, -170.59, -77.981, -24.208, -26.273, -12.020, 1.687, 28.97, 0.07065, 0.76752, -0.11154, 0.62717,
 13:23:14.105,e3:ca:2d:fd:e0:8c, 2015-01-01 01:09:16.760, 0.992, -0.037, -0.208, 1.099, -0.793, 0.916, -170.497, -77.964, -24.274, -26.273, -12.020, 1.687, 28.97, 0.07065, 0.76752, -0.11154, 0.62717,
 13:23:14.108,f6:90:cc:01:6d:25, 2015-01-01 01:09:15.205, 0.696, 0.036, -0.696, 1.465, -0.183, 0.061, 176.737, -44.857, -17.144, -24.887, -13.107, 18.473, 30.86, 0.08459, 0.91193, -0.14899, 0.37271,
 13:23:14.108,f6:90:cc:01:6d:25, 2015-01-01 01:09:15.205, 0.696, 0.037, -0.696, 0.549, 0, 0.122, 176.754, -44.857, -17.139, -24.887, -13.107, 18.473, 30.86, 0.08459, 0.91193, -0.14899, 0.37271,
 13:23:14.126,e3:ca:2d:fd:e0:8c, 2015-01-01 01:09:16.760, 0.995, -0.036, -0.208, 0.488, -1.282, 0.366, -170.475, -77.937, -24.274, -26.273, -12.020, 1.687, 28.97, 0.07065, 0.76752, -0.11154, 0.62717,
 13:23:14.126,e3:ca:2d:fd:e0:8c, 2015-01-01 01:09:16.760, 0.996, -0.038, -0.21, -0.122, -1.587, 0, -170.497, -77.904, -24.241, -26.273, -12.020, 1.687, 28.97, 0.07065, 0.76752, -0.11154, 0.62717,
 13:23:14.129,ed:35:33:d3:6c:f8, 2015-01-01 01:09:15.840, 0.928, -0.074, 0.351, -0.732, 0.549, 3.357, -10.355, -68.774, 166.119, -23.920, -13.313, -16.733, 28.34, 0.15463, 0.54849, -0.14145, 0.80939,
 13:23:14.129,ed:35:33:d3:6c:f8, 2015-01-01 01:09:15.840, 0.928, -0.077, 0.346, -0.854, 0.61, 2.075, -10.464, -68.758, 166.218, -23.920, -13.313, -16.733, 28.34, 0.15463, 0.54849, -0.14145, 0.80939,
 13:23:14.152,f6:90:cc:01:6d:25, 2015-01-01 01:09:15.205, 0.697, 0.035, -0.699, 0.061, 0.488, 0.183, 176.759, -44.868, -17.144, -24.887, -13.107, 18.473, 30.86, 0.08459, 0.91193, -0.14899, 0.37271,
 13:23:14.152,f6:90:cc:01:6d:25, 2015-01-01 01:09:15.205, 0.697, 0.032, -0.696, 0, 0.732, 0.122, 176.759, -44.879, -17.144, -24.887, -13.107, 18.473, 30.86, 0.08459, 0.91193, -0.14899, 0.37271,
 13:23:14.152,ed:35:33:d3:6c:f8, 2015-01-01 01:09:15.840, 0.927, -0.076, 0.346, -0.549, 0.488, 0.732, -10.514, -68.747, 166.251, -23.920, -13.313, -16.733, 28.34, 0.14975, 0.54913, -0.14227, 0.80972,
 13:23:14.152,ed:35:33:d3:6c:f8, 2015-01-01 01:09:15.840, 0.929, -0.078, 0.346, -0.488, 0.793, 0, -10.519, -68.73, 166.24, -23.920, -13.313, -16.733, 28.34, 0.14975, 0.54913, -0.14227, 0.80972,
 13:23:14.171,e3:ca:2d:fd:e0:8c, 2015-01-01 01:09:16.760, 0.994, -0.04, -0.211, -0.244, -1.77, -0.061, -170.535, -77.871, -24.208, -26.273, -12.020, 1.687, 28.97, 0.07065, 0.76752, -0.11154, 0.62717,
 13:23:14.171,e3:ca:2d:fd:e0:8c, 2015-01-01 01:09:16.760, 0.993, -0.038, -0.214, 0.122, -2.136, -0.122, -170.568, -77.833, -24.159, -26.273, -12.020, 1.687, 28.97, 0.07065, 0.76752, -0.11154, 0.62717,
 13:23:14.173,ed:40:fe:65:30:6c, 2015-01-01 01:09:15.765, 0.988, 0.01, -0.178, -0.061, 0.244, 0.122, 175.6, -80.123, 40.342, -28.120, -16.507, 16.047, 28.99, 0.19235, -0.7262, -0.24033, -0.61465,
 13:23:14.173,ed:40:fe:65:30:6c, 2015-01-01 01:09:15.765, 0.989, 0.006, -0.179, -0.305, 0.549, 0, 175.605, -80.129, 40.325, -28.120, -16.507, 16.047, 28.99, 0.19235, -0.7262, -0.24033, -0.61465,
 13:23:14.196,ed:40:fe:65:30:6c, 2015-01-01 01:09:15.765, 0.989, 0.011, -0.18, -0.183, 0.854, -0.122, 175.594, -80.14, 40.325, -28.120, -16.507, 16.047, 28.99, 0.19235, -0.7262, -0.24033, -0.61465,
 13:23:14.196,ed:40:fe:65:30:6c, 2015-01-01 01:09:15.765, 0.989, 0.013, -0.178, -0.732, 1.038, -0.244, 175.562, -80.156, 40.336, -28.120, -16.507, 16.047, 28.99, 0.19235, -0.7262, -0.24033, -0.61465,
 13:23:14.197,f6:90:cc:01:6d:25, 2015-01-01 01:09:15.205, 0.696, 0.034, -0.695, -0.366, 0.732, 0.122, 176.759, -44.896, -17.139, -24.887, -13.107, 18.473, 30.86, 0.08459, 0.91193, -0.14899, 0.37271,
 13:23:14.197,f6:90:cc:01:6d:25, 2015-01-01 01:09:15.205, 0.696, 0.036, -0.701, -0.854, 1.221, 0.061, 176.743, -44.923, -17.133, -24.887, -13.107, 18.473, 30.86, 0.08459, 0.91193, -0.14899, 0.37271,
 13:23:14.197,ed:35:33:d3:6c:f8, 2015-01-01 01:09:15.840, 0.93, -0.075, 0.346, -0.305, 1.221, -0.549, -10.497, -68.714, 166.196, -23.920, -13.313, -16.733, 28.34, 0.14975, 0.54913, -0.14227, 0.80972,
 13:23:14.197,ed:35:33:d3:6c:f8, 2015-01-01 01:09:15.840, 0.926, -0.071, 0.352, 0.122, 1.465, -1.343, -10.421, -68.692, 166.075, -23.920, -13.313, -16.733, 28.34, 0.14975, 0.54913, -0.14227, 0.80972,
 13:23:14.218,e3:ca:2d:fd:e0:8c, 2015-01-01 01:09:16.760, 0.999, -0.036, -0.217, 0, -2.502, -0.366, -170.64, -77.783, -24.104, -26.273, -12.020, 1.687, 28.97, 0.07065, 0.76752, -0.11154, 0.62717,
 13:23:14.218,e3:ca:2d:fd:e0:8c, 2015-01-01 01:09:16.760, 1.004, -0.035, -0.219, -0.427, -2.258, -0.61, -170.728, -77.739, -24.027, -26.273, -12.020, 1.687, 28.97, 0.07065, 0.76752, -0.11154, 0.62717,
 13:23:14.221,f6:90:cc:01:6d:25, 2015-01-01 01:09:15.205, 0.696, 0.035, -0.708, -0.854, 1.404, 0, 176.732, -44.945, -17.139, -24.880, -13.367, 18.813, 30.86, 0.08459, 0.91193, -0.14899, 0.37271,
 13:23:14.221,f6:90:cc:01:6d:25, 2015-01-01 01:09:15.205, 0.697, 0.038, -0.707, -0.427, 1.099, -0.061, 176.721, -44.967, -17.144, -24.880, -13.367, 18.813, 30.86, 0.08459, 0.91193, -0.14899, 0.37271,
 13:23:14.241,ed:35:33:d3:6c:f8, 2015-01-01 01:09:16.175, 0.925, -0.067, 0.356, -0.122, 0.916, -1.892, -10.333, -68.681, 165.948, -23.920, -13.313, -16.733, 28.34, 0.14975, 0.54913, -0.14227, 0.80972,
 13:23:14.241,ed:35:33:d3:6c:f8, 2015-01-01 01:09:16.175, 0.924, -0.064, 0.357, -0.549, 0.61, -2.014, -10.245, -68.681, 165.817, -23.920, -13.313, -16.733, 28.34, 0.14975, 0.54913, -0.14227, 0.80972,
 13:23:14.241,ed:40:fe:65:30:6c, 2015-01-01 01:09:15.765, 0.989, 0.013, -0.174, -0.854, 0.854, -0.305, 175.512, -80.173, 40.375, -28.120, -16.507, 16.047, 28.99, 0.19235, -0.7262, -0.24033, -0.61465,
 13:23:14.241,ed:40:fe:65:30:6c, 2015-01-01 01:09:15.765, 0.989, 0.015, -0.173, -0.671, 0.488, -0.366, 175.457, -80.178, 40.424, -28.120, -16.507, 16.047, 28.99, 0.19235, -0.7262, -0.24033, -0.61465,
 13:23:14.262,e3:ca:2d:fd:e0:8c, 2015-01-01 01:09:16.760, 0.999, -0.033, -0.222, -0.488, -1.465, -0.488, -170.804, -77.712, -23.978, -26.273, -12.020, 1.687, 28.97, 0.07065, 0.76752, -0.11154, 0.62717,
 13:23:14.262,e3:ca:2d:fd:e0:8c, 2015-01-01 01:09:16.760, 0.994, -0.032, -0.222, -0.061, -1.526, -0.183, -170.843, -77.684, -23.961, -26.273, -12.020, 1.687, 28.97, 0.07065, 0.76752, -0.11154, 0.62717,
 13:23:14.262,ed:40:fe:65:30:6c, 2015-01-01 01:09:15.765, 0.987, 0.018, -0.173, -0.671, 0.244, -0.366, 175.402, -80.184, 40.479, -27.873, -16.033, 16.873, 28.99, 0.19235, -0.7262, -0.24033, -0.61465,
 13:23:14.262,ed:40:fe:65:30:6c, 2015-01-01 01:09:15.765, 0.987, 0.021, -0.171, -0.671, 0.122, -0.305, 175.347, -80.184, 40.523, -27.873, -16.033, 16.873, 28.99, 0.19235, -0.7262, -0.24033, -0.61465,
 13:23:14.263,ed:35:33:d3:6c:f8, 2015-01-01 01:09:16.175, 0.924, -0.056, 0.357, -1.343, 0, -1.526, -10.184, -68.681, 165.707, -23.920, -13.313, -16.733, 28.34, 0.14975, 0.54913, -0.14227, 0.80972,
 13:23:14.263,ed:35:33:d3:6c:f8, 2015-01-01 01:09:16.175, 0.922, -0.057, 0.354, -0.977, 0.183, -1.16, -10.14, -68.687, 165.608, -23.920, -13.313, -16.733, 28.34, 0.14975, 0.54913, -0.14227, 0.80972,
 13:23:14.266,f6:90:cc:01:6d:25, 2015-01-01 01:09:15.205, 0.697, 0.041, -0.704, 0.061, 0.793, -0.183, 176.721, -44.978, -17.15, -24.880, -13.367, 18.813, 30.86, 0.08459, 0.91193, -0.14899, 0.37271,
 13:23:14.266,f6:90:cc:01:6d:25, 2015-01-01 01:09:15.205, 0.697, 0.042, -0.701, 0.427, 0.671, -0.244, 176.726, -44.989, -17.155, -24.880, -13.367, 18.813, 30.86, 0.08459, 0.91193, -0.14899, 0.37271,
 13:23:14.306,e3:ca:2d:fd:e0:8c, 2015-01-01 01:09:16.760, 0.993, -0.032, -0.222, 0.366, -1.648, 0, -170.859, -77.651, -23.967, -26.273, -12.020, 1.687, 28.97, 0.07065, 0.76752, -0.11154, 0.62717,
 13:23:14.306,e3:ca:2d:fd:e0:8c, 2015-01-01 01:09:16.760, 0.993, -0.033, -0.22, 0.244, -1.404, -0.061, -170.881, -77.618, -23.961, -26.273, -12.020, 1.687, 28.97, 0.07065, 0.76752, -0.11154, 0.62717,
 13:23:14.307,ed:40:fe:65:30:6c, 2015-01-01 01:09:15.765, 0.986, 0.02, -0.17, -0.427, 0.122, -0.244, 175.303, -80.184, 40.562, -27.873, -16.033, 16.873, 28.99, 0.19235, -0.7262, -0.24033, -0.61465,
 13:23:14.307,ed:40:fe:65:30:6c, 2015-01-01 01:09:15.765, 0.988, 0.018, -0.169, -0.366, -0.061, -0.183, 175.259, -80.178, 40.583, -27.873, -16.033, 16.873, 28.99, 0.19235, -0.7262, -0.24033, -0.61465,
 13:23:14.309,ed:35:33:d3:6c:f8, 2015-01-01 01:09:16.175, 0.925, -0.059, 0.357, -0.244, 0.916, -1.038, -10.102, -68.687, 165.526, -23.920, -13.313, -16.733, 28.34, 0.14975, 0.54913, -0.14227, 0.80972,
 13:23:14.309,ed:35:33:d3:6c:f8, 2015-01-01 01:09:16.175, 0.928, -0.055, 0.356, -0.305, 1.648, -0.916, -10.042, -68.665, 165.46, -23.920, -13.313, -16.733, 28.34, 0.14975, 0.54913, -0.14227, 0.80972,
 13:23:14.311,f6:90:cc:01:6d:25, 2015-01-01 01:09:15.205, 0.695, 0.041, -0.699, 0.488, 0.671, -0.122, 176.737, -45, -17.172, -24.880, -13.367, 18.813, 30.86, 0.0831, 0.91153, -0.14853, 0.37421,
 13:23:14.311,f6:90:cc:01:6d:25, 2015-01-01 01:09:15.205, 0.697, 0.039, -0.705, 0.122, 0.793, -0.061, 176.737, -45.016, -17.194, -24.880, -13.367, 18.813, 30.86, 0.0831, 0.91153, -0.14853, 0.37421,
 13:23:14.352,e3:ca:2d:fd:e0:8c, 2015-01-01 01:09:16.760, 0.994, -0.032, -0.217, -0.183, -1.038, -0.183, -170.92, -77.596, -23.939, -26.267, -11.860, 1.887, 28.97, 0.07065, 0.76752, -0.11154, 0.62717,
 13:23:14.352,e3:ca:2d:fd:e0:8c, 2015-01-01 01:09:16.760, 0.997, -0.03, -0.216, -0.488, -0.793, -0.305, -170.975, -77.585, -23.923, -26.267, -11.860, 1.887, 28.97, 0.07065, 0.76752, -0.11154, 0.62717,
 13:23:14.354,ed:35:33:d3:6c:f8, 2015-01-01 01:09:16.175, 0.926, -0.05, 0.355, -1.16, 1.587, -0.427, -9.998, -68.637, 165.405, -23.920, -13.313, -16.733, 28.34, 0.14975, 0.54913, -0.14227, 0.80972,
 13:23:14.354,ed:35:33:d3:6c:f8, 2015-01-01 01:09:16.175, 0.923, -0.05, 0.358, -1.77, 1.343, -0.061, -9.987, -68.61, 165.366, -23.920, -13.313, -16.733, 28.34, 0.14975, 0.54913, -0.14227, 0.80972,
 13:23:14.376,ed:40:fe:65:30:6c, 2015-01-01 01:09:15.765, 0.988, 0.021, -0.171, -0.183, 0, -0.122, 175.232, -80.178, 40.6, -27.873, -16.033, 16.873, 28.99, 0.19354, -0.7261, -0.24014, -0.61444,
 13:23:14.376,ed:40:fe:65:30:6c, 2015-01-01 01:09:15.765, 0.987, 0.024, -0.172, -0.183, 0.122, 0, 175.204, -80.178, 40.611, -27.873, -16.033, 16.873, 28.99, 0.19354, -0.7261, -0.24014, -0.61444,
 13:23:14.379,f6:90:cc:01:6d:25, 2015-01-01 01:09:15.205, 0.698, 0.041, -0.698, 0, 0.61, 0, 176.737, -45.022, -17.216, -24.880, -13.367, 18.813, 30.86, 0.0831, 0.91153, -0.14853, 0.37421,
 13:23:14.379,f6:90:cc:01:6d:25, 2015-01-01 01:09:15.205, 0.699, 0.045, -0.696, -0.305, 0.671, 0, 176.732, -45.033, -17.238, -24.880, -13.367, 18.813, 30.86, 0.0831, 0.91153, -0.14853, 0.37421,
 13:23:14.400,f6:90:cc:01:6d:25, 2015-01-01 01:09:15.540, 0.7, 0.042, -0.703, 0.122, 0.671, 0.122, 176.732, -45.044, -17.249, -24.880, -13.367, 18.813, 30.86, 0.0831, 0.91153, -0.14853, 0.37421,
 13:23:14.400,f6:90:cc:01:6d:25, 2015-01-01 01:09:15.540, 0.701, 0.04, -0.699, 0.244, 0.122, 0.183, 176.732, -45.055, -17.254, -24.880, -13.367, 18.813, 30.86, 0.0831, 0.91153, -0.14853, 0.37421,
 13:23:14.420,e3:ca:2d:fd:e0:8c, 2015-01-01 01:09:16.760, 0.998, -0.028, -0.218, -0.732, -0.977, -0.305, -171.035, -77.563, -23.884, -26.267, -11.860, 1.887, 28.97, 0.07065, 0.76752, -0.11154, 0.62717,
 13:23:14.420,e3:ca:2d:fd:e0:8c, 2015-01-01 01:09:16.760, 1, -0.03, -0.22, -0.671, -1.099, -0.122, -171.085, -77.542, -23.857, -26.267, -11.860, 1.887, 28.97, 0.07065, 0.76752, -0.11154, 0.62717,
 13:23:14.442,ed:40:fe:65:30:6c, 2015-01-01 01:09:16.125, 0.987, 0.024, -0.17, 0, 0.122, 0.122, 175.193, -80.178, 40.616, -27.873, -16.033, 16.873, 28.99, 0.19354, -0.7261, -0.24014, -0.61444,
 13:23:14.442,ed:40:fe:65:30:6c, 2015-01-01 01:09:16.125, 0.988, 0.02, -0.168, 0.244, 0, 0.244, 175.193, -80.178, 40.6, -27.873, -16.033, 16.873, 28.99, 0.19354, -0.7261, -0.24014, -0.61444,
 13:23:14.442,e3:ca:2d:fd:e0:8c, 2015-01-01 01:09:16.760, 0.999, -0.032, -0.22, -0.488, -0.549, 0.061, -171.101, -77.531, -23.835, -26.267, -11.860, 1.887, 28.97, 0.0697, 0.77045, -0.11298, 0.62344,
 13:23:14.442,e3:ca:2d:fd:e0:8c, 2015-01-01 01:09:16.760, 0.997, -0.033, -0.217, -0.183, 0, 0.183, -171.096, -77.531, -23.846, -26.267, -11.860, 1.887, 28.97, 0.0697, 0.77045, -0.11298, 0.62344,
 13:23:14.444,ed:35:33:d3:6c:f8, 2015-01-01 01:09:16.175, 0.925, -0.054, 0.363, -1.526, 1.038, 0.427, -10.003, -68.588, 165.344, -23.920, -13.313, -16.733, 28.34, 0.14975, 0.54913, -0.14227, 0.80972,
 13:23:14.444,ed:35:33:d3:6c:f8, 2015-01-01 01:09:16.175, 0.926, -0.059, 0.36, -0.916, 0.732, 1.038, -10.042, -68.566, 165.339, -23.920, -13.313, -16.733, 28.34, 0.14975, 0.54913, -0.14227, 0.80972,
 13:23:14.445,f6:90:cc:01:6d:25, 2015-01-01 01:09:15.540, 0.699, 0.04, -0.697, 0, -0.061, 0.183, 176.737, -45.055, -17.254, -24.880, -13.367, 18.813, 30.86, 0.0831, 0.91153, -0.14853, 0.37421,
 13:23:14.445,f6:90:cc:01:6d:25, 2015-01-01 01:09:15.540, 0.7, 0.04, -0.696, -0.305, -0.061, 0.244, 176.743, -45.049, -17.238, -24.880, -13.367, 18.813, 30.86, 0.0831, 0.91153, -0.14853, 0.37421,
 13:23:14.465,ed:40:fe:65:30:6c, 2015-01-01 01:09:16.125, 0.989, 0.017, -0.17, 0.61, -0.183, 0.305, 175.215, -80.178, 40.583, -27.873, -16.033, 16.873, 28.99, 0.19354, -0.7261, -0.24014, -0.61444,
 13:23:14.465,ed:40:fe:65:30:6c, 2015-01-01 01:09:16.125, 0.988, 0.017, -0.173, 0.671, -0.122, 0.366, 175.248, -80.173, 40.556, -27.873, -16.033, 16.873, 28.99, 0.19354, -0.7261, -0.24014, -0.61444,
 13:23:14.466,ed:35:33:d3:6c:f8, 2015-01-01 01:09:16.175, 0.927, -0.062, 0.357, -0.488, 0.366, 1.343, -10.096, -68.555, 165.377, -23.653, -13.287, -16.547, 28.34, 0.14975, 0.54913, -0.14227, 0.80972,
 13:23:14.466,ed:35:33:d3:6c:f8, 2015-01-01 01:09:16.175, 0.925, -0.064, 0.35, -0.549, -0.183, 1.465, -10.162, -68.544, 165.421, -23.653, -13.287, -16.547, 28.34, 0.14975, 0.54913, -0.14227, 0.80972,
 13:23:14.468,f6:90:cc:01:6d:25, 2015-01-01 01:09:15.540, 0.699, 0.039, -0.694, -0.061, 0.366, 0, 176.737, -45.049, -17.216, -24.880, -13.367, 18.813, 30.86, 0.0831, 0.91153, -0.14853, 0.37421,
 13:23:14.468,f6:90:cc:01:6d:25, 2015-01-01 01:09:15.540, 0.699, 0.04, -0.696, 0.183, 0.671, 0, 176.732, -45.06, -17.21, -24.880, -13.367, 18.813, 30.86, 0.0831, 0.91153, -0.14853, 0.37421,
 13:23:14.488,ed:40:fe:65:30:6c, 2015-01-01 01:09:16.125, 0.988, 0.017, -0.177, 0.732, 0, 0.366, 175.287, -80.173, 40.529, -27.873, -16.033, 16.873, 28.99, 0.19354, -0.7261, -0.24014, -0.61444,
 13:23:14.488,ed:40:fe:65:30:6c, 2015-01-01 01:09:16.125, 0.988, 0.017, -0.174, 0.793, 0.244, 0.366, 175.325, -80.173, 40.496, -27.873, -16.033, 16.873, 28.99, 0.19354, -0.7261, -0.24014, -0.61444,
 13:23:14.489,ed:35:33:d3:6c:f8, 2015-01-01 01:09:16.175, 0.925, -0.066, 0.354, 0, -0.244, 0.916, -10.234, -68.544, 165.465, -23.653, -13.287, -16.547, 28.34, 0.14975, 0.54913, -0.14227, 0.80972,
 13:23:14.489,ed:35:33:d3:6c:f8, 2015-01-01 01:09:16.175, 0.927, -0.069, 0.355, 0.305, -0.244, 0.427, -10.267, -68.549, 165.482, -23.653, -13.287, -16.547, 28.34, 0.14975, 0.54913, -0.14227, 0.80972,
 13:23:14.510,ed:40:fe:65:30:6c, 2015-01-01 01:09:16.125, 0.989, 0.015, -0.173, 0.671, 0.427, 0.244, 175.353, -80.178, 40.468, -27.873, -16.033, 16.873, 28.99, 0.19354, -0.7261, -0.24014, -0.61444,
 13:23:14.510,ed:40:fe:65:30:6c, 2015-01-01 01:09:16.125, 0.989, 0.012, -0.175, 0.61, 0.488, 0.183, 175.369, -80.189, 40.452, -27.873, -16.033, 16.873, 28.99, 0.19354, -0.7261, -0.24014, -0.61444,
 13:23:14.510,e3:ca:2d:fd:e0:8c, 2015-01-01 01:09:16.760, 0.994, -0.034, -0.216, -0.305, 0.122, 0.122, -171.096, -77.536, -23.879, -26.267, -11.860, 1.887, 28.97, 0.0697, 0.77045, -0.11298, 0.62344,
 13:23:14.510,e3:ca:2d:fd:e0:8c, 2015-01-01 01:09:16.760, 0.991, -0.033, -0.216, -0.61, 0.122, 0.061, -171.107, -77.536, -23.912, -26.267, -11.860, 1.887, 28.97, 0.0697, 0.77045, -0.11298, 0.62344,
 13:23:14.512,f6:90:cc:01:6d:25, 2015-01-01 01:09:15.540, 0.699, 0.037, -0.698, 0.244, 1.038, 0, 176.737, -45.071, -17.188, -24.880, -13.367, 18.813, 30.86, 0.0831, 0.91153, -0.14853, 0.37421,
 13:23:14.512,f6:90:cc:01:6d:25, 2015-01-01 01:09:15.540, 0.699, 0.033, -0.701, 0.305, 1.16, 0, 176.743, -45.093, -17.188, -24.880, -13.367, 18.813, 30.86, 0.0831, 0.91153, -0.14853, 0.37421,
 13:23:14.533,e3:ca:2d:fd:e0:8c, 2015-01-01 01:09:17.165, 0.995, -0.032, -0.218, -0.671, 0.061, 0.122, -171.112, -77.536, -23.961, -26.267, -11.860, 1.887, 28.97, 0.0697, 0.77045, -0.11298, 0.62344,
 13:23:14.533,e3:ca:2d:fd:e0:8c, 2015-01-01 01:09:17.165, 0.997, -0.033, -0.219, -0.244, 0.122, 0.244, -171.096, -77.536, -24.022, -26.267, -11.860, 1.887, 28.97, 0.0697, 0.77045, -0.11298, 0.62344,
 13:23:14.534,ed:35:33:d3:6c:f8, 2015-01-01 01:09:16.175, 0.927, -0.07, 0.354, 0.916, -0.244, 0.183, -10.272, -68.555, 165.471, -23.653, -13.287, -16.547, 28.34, 0.14975, 0.54913, -0.14227, 0.80972,
 13:23:14.534,ed:35:33:d3:6c:f8, 2015-01-01 01:09:16.175, 0.926, -0.07, 0.352, 1.221, -0.244, 0.122, -10.261, -68.56, 165.46, -23.653, -13.287, -16.547, 28.34, 0.14975, 0.54913, -0.14227, 0.80972,
 13:23:14.554,e3:ca:2d:fd:e0:8c, 2015-01-01 01:09:17.165, 0.998, -0.036, -0.222, 0.061, 0.061, 0.366, -171.068, -77.536, -24.093, -26.267, -11.860, 1.887, 28.97, 0.0697, 0.77045, -0.11298, 0.62344,
 13:23:14.554,e3:ca:2d:fd:e0:8c, 2015-01-01 01:09:17.165, 0.998, -0.036, -0.225, 0, 0, 0, -171.052, -77.536, -24.104, -26.267, -11.860, 1.887, 28.97, 0.0697, 0.77045, -0.11298, 0.62344,
 13:23:14.556,ed:35:33:d3:6c:f8, 2015-01-01 01:09:16.175, 0.923, -0.064, 0.355, 1.16, 0.183, 0.305, -10.25, -68.566, 165.449, -23.653, -13.287, -16.547, 28.34, 0.15408, 0.54709, -0.14432, 0.80997,
 13:23:14.556,ed:35:33:d3:6c:f8, 2015-01-01 01:09:16.175, 0.922, -0.058, 0.361, 0.671, 0.427, 0.488, -10.245, -68.56, 165.449, -23.653, -13.287, -16.547, 28.34, 0.15408, 0.54709, -0.14432, 0.80997,
 13:23:14.559,f6:90:cc:01:6d:25, 2015-01-01 01:09:15.540, 0.699, 0.033, -0.701, 0.366, 0.916, 0, 176.748, -45.115, -17.194, -24.880, -13.367, 18.813, 30.86, 0.0831, 0.91153, -0.14853, 0.37421,
 13:23:14.559,f6:90:cc:01:6d:25, 2015-01-01 01:09:15.540, 0.699, 0.036, -0.701, 0.488, 0.916, 0, 176.754, -45.132, -17.205, -24.880, -13.367, 18.813, 30.86, 0.0831, 0.91153, -0.14853, 0.37421,
 13:23:14.576,e3:ca:2d:fd:e0:8c, 2015-01-01 01:09:17.165, 0.997, -0.033, -0.225, 0, 0.183, 0.061, -171.052, -77.536, -24.088, -26.267, -11.860, 1.887, 28.97, 0.0697, 0.77045, -0.11298, 0.62344,
 13:23:14.576,e3:ca:2d:fd:e0:8c, 2015-01-01 01:09:17.165, 0.995, -0.031, -0.222, 0.427, 0.244, 0.244, -171.041, -77.536, -24.077, -26.267, -11.860, 1.887, 28.97, 0.0697, 0.77045, -0.11298, 0.62344,
 13:23:14.577,ed:40:fe:65:30:6c, 2015-01-01 01:09:16.125, 0.99, 0.009, -0.176, 0.671, 0.549, 0.122, 175.386, -80.195, 40.435, -27.873, -16.033, 16.873, 28.99, 0.19354, -0.7261, -0.24014, -0.61444,
 13:23:14.577,ed:40:fe:65:30:6c, 2015-01-01 01:09:16.125, 0.988, 0.013, -0.174, 0.916, 0.549, 0.122, 175.408, -80.206, 40.413, -27.873, -16.033, 16.873, 28.99, 0.19354, -0.7261, -0.24014, -0.61444,
 13:23:14.581,f6:90:cc:01:6d:25, 2015-01-01 01:09:15.540, 0.7, 0.041, -0.699, 0.549, 0.488, 0, 176.77, -45.143, -17.205, -24.880, -13.073, 18.787, 30.86, 0.0831, 0.91153, -0.14853, 0.37421,
 13:23:14.581,f6:90:cc:01:6d:25, 2015-01-01 01:09:15.540, 0.701, 0.042, -0.695, 0.427, 0.183, 0, 176.781, -45.148, -17.21, -24.880, -13.073, 18.787, 30.86, 0.0831, 0.91153, -0.14853, 0.37421,
 13:23:14.600,ed:40:fe:65:30:6c, 2015-01-01 01:09:16.125, 0.987, 0.02, -0.17, 0.854, 0.427, 0.122, 175.43, -80.211, 40.386, -28.207, -16.287, 15.927, 28.99, 0.19354, -0.7261, -0.24014, -0.61444,
 13:23:14.600,ed:40:fe:65:30:6c, 2015-01-01 01:09:16.125, 0.987, 0.021, -0.168, 0.427, 0.183, 0.183, 175.446, -80.211, 40.364, -28.207, -16.287, 15.927, 28.99, 0.19354, -0.7261, -0.24014, -0.61444,
 13:23:14.601,ed:35:33:d3:6c:f8, 2015-01-01 01:09:16.175, 0.922, -0.059, 0.362, 0.061, 0.427, 0.244, -10.25, -68.549, 165.46, -23.653, -13.287, -16.547, 28.34, 0.15408, 0.54709, -0.14432, 0.80997,
 13:23:14.601,ed:35:33:d3:6c:f8, 2015-01-01 01:09:16.175, 0.922, -0.06, 0.361, -0.488, 0.488, 0.244, -10.261, -68.544, 165.46, -23.653, -13.287, -16.547, 28.34, 0.15408, 0.54709, -0.14432, 0.80997,
 13:23:14.621,e3:ca:2d:fd:e0:8c, 2015-01-01 01:09:17.165, 0.994, -0.031, -0.219, 0.732, 0, 0.244, -171.008, -77.536, -24.093, -26.267, -11.860, 1.887, 28.97, 0.0697, 0.77045, -0.11298, 0.62344,
 13:23:14.621,e3:ca:2d:fd:e0:8c, 2015-01-01 01:09:17.165, 0.994, -0.035, -0.217, 0.549, -0.061, 0.122, -170.986, -77.536, -24.109, -26.267, -11.860, 1.887, 28.97, 0.0697, 0.77045, -0.11298, 0.62344,
 13:23:14.626,f6:90:cc:01:6d:25, 2015-01-01 01:09:15.540, 0.701, 0.038, -0.694, 0.244, 0.122, 0, 176.786, -45.154, -17.221, -24.880, -13.073, 18.787, 30.86, 0.0831, 0.91153, -0.14853, 0.37421,
 13:23:14.626,f6:90:cc:01:6d:25, 2015-01-01 01:09:15.540, 0.702, 0.036, -0.693, 0.183, 0.061, 0, 176.792, -45.154, -17.216, -24.880, -13.073, 18.787, 30.86, 0.0831, 0.91153, -0.14853, 0.37421,
 13:23:14.645,ed:40:fe:65:30:6c, 2015-01-01 01:09:16.125, 0.987, 0.017, -0.168, 0.244, 0.061, 0.183, 175.457, -80.217, 40.336, -28.207, -16.287, 15.927, 28.99, 0.19354, -0.7261, -0.24014, -0.61444,
 13:23:14.645,ed:40:fe:65:30:6c, 2015-01-01 01:09:16.125, 0.987, 0.013, -0.169, 0.305, 0.061, 0.183, 175.474, -80.217, 40.314, -28.207, -16.287, 15.927, 28.99, 0.19354, -0.7261, -0.24014, -0.61444,
 13:23:14.647,ed:35:33:d3:6c:f8, 2015-01-01 01:09:16.580, 0.922, -0.065, 0.359, -0.427, 0.671, 0.488, -10.272, -68.533, 165.465, -23.653, -13.287, -16.547, 28.34, 0.15408, 0.54709, -0.14432, 0.80997,
 13:23:14.648,ed:35:33:d3:6c:f8, 2015-01-01 01:09:16.580, 0.923, -0.068, 0.358, 0.061, 0.916, 0.549, -10.294, -68.516, 165.493, -23.653, -13.287, -16.547, 28.34, 0.15408, 0.54709, -0.14432, 0.80997,
 13:23:14.666,e3:ca:2d:fd:e0:8c, 2015-01-01 01:09:17.165, 0.994, -0.035, -0.216, 0, -0.244, 0, -170.975, -77.531, -24.109, -26.267, -11.860, 1.887, 28.97, 0.0697, 0.77045, -0.11298, 0.62344,
 13:23:14.666,e3:ca:2d:fd:e0:8c, 2015-01-01 01:09:17.165, 0.996, -0.034, -0.216, 0, -0.427, 0, -170.98, -77.525, -24.093, -26.267, -11.860, 1.887, 28.97, 0.0697, 0.77045, -0.11298, 0.62344,
 13:23:14.668,ed:40:fe:65:30:6c, 2015-01-01 01:09:16.125, 0.988, 0.013, -0.169, 0.244, 0.122, 0.122, 175.479, -80.217, 40.298, -28.207, -16.287, 15.927, 28.99, 0.19345, -0.72614, -0.23944, -0.61469,
 13:23:14.668,ed:40:fe:65:30:6c, 2015-01-01 01:09:16.125, 0.989, 0.015, -0.168, 0.305, 0.244, 0.061, 175.485, -80.217, 40.292, -28.207, -16.287, 15.927, 28.99, 0.19345, -0.72614, -0.23944, -0.61469,
 13:23:14.669,ed:35:33:d3:6c:f8, 2015-01-01 01:09:16.580, 0.925, -0.065, 0.36, 0.244, 0.854, 0.366, -10.305, -68.494, 165.504, -23.653, -13.287, -16.547, 28.34, 0.15408, 0.54709, -0.14432, 0.80997,
 13:23:14.669,ed:35:33:d3:6c:f8, 2015-01-01 01:09:16.580, 0.925, -0.062, 0.36, 0.366, 0.61, 0.488, -10.311, -68.478, 165.515, -23.653, -13.287, -16.547, 28.34, 0.15408, 0.54709, -0.14432, 0.80997,
 13:23:14.671,f6:90:cc:01:6d:25, 2015-01-01 01:09:15.540, 0.702, 0.036, -0.691, 0.183, 0.244, 0, 176.797, -45.154, -17.216, -24.880, -13.073, 18.787, 30.86, 0.08301, 0.91095, -0.1488, 0.37555,
 13:23:14.671,f6:90:cc:01:6d:25, 2015-01-01 01:09:15.540, 0.701, 0.039, -0.693, 0.122, 0.549, 0, 176.797, -45.159, -17.227, -24.880, -13.073, 18.787, 30.86, 0.08301, 0.91095, -0.1488, 0.37555,
 13:23:14.712,e3:ca:2d:fd:e0:8c, 2015-01-01 01:09:17.165, 0.997, -0.032, -0.217, 0.183, -0.305, 0.122, -170.986, -77.514, -24.099, -26.267, -11.860, 1.887, 28.97, 0.0697, 0.77045, -0.11298, 0.62344,
 13:23:14.712,e3:ca:2d:fd:e0:8c, 2015-01-01 01:09:17.165, 0.997, -0.033, -0.218, 0.183, -0.061, 0.183, -170.975, -77.509, -24.109, -26.267, -11.860, 1.887, 28.97, 0.0697, 0.77045, -0.11298, 0.62344,
 13:23:14.713,ed:40:fe:65:30:6c, 2015-01-01 01:09:16.125, 0.988, 0.018, -0.171, 0.488, 0.305, 0.122, 175.496, -80.222, 40.287, -28.207, -16.287, 15.927, 28.99, 0.19345, -0.72614, -0.23944, -0.61469,
 13:23:14.713,ed:40:fe:65:30:6c, 2015-01-01 01:09:16.125, 0.988, 0.018, -0.172, 0.427, 0.183, 0.122, 175.501, -80.228, 40.287, -28.207, -16.287, 15.927, 28.99, 0.19345, -0.72614, -0.23944, -0.61469,
 13:23:14.714,ed:35:33:d3:6c:f8, 2015-01-01 01:09:16.580, 0.924, -0.062, 0.358, 0.549, 0.305, 0.61, -10.322, -68.467, 165.575, -23.653, -13.287, -16.547, 28.34, 0.15408, 0.54709, -0.14432, 0.80997,
 13:23:14.714,ed:35:33:d3:6c:f8, 2015-01-01 01:09:16.580, 0.922, -0.066, 0.36, 0, 0, 0.488, -10.338, -68.456, 165.657, -23.653, -13.287, -16.547, 28.34, 0.15408, 0.54709, -0.14432, 0.80997,
 13:23:14.716,f6:90:cc:01:6d:25, 2015-01-01 01:09:15.875, 0.701, 0.04, -0.697, 0.244, 0.732, 0, 176.803, -45.17, -17.243, -24.880, -13.073, 18.787, 30.86, 0.08301, 0.91095, -0.1488, 0.37555,
 13:23:14.716,f6:90:cc:01:6d:25, 2015-01-01 01:09:15.875, 0.702, 0.037, -0.698, 0.305, 0.61, 0, 176.808, -45.187, -17.249, -24.880, -13.073, 18.787, 30.86, 0.08301, 0.91095, -0.1488, 0.37555,
 13:23:14.735,e3:ca:2d:fd:e0:8c, 2015-01-01 01:09:17.165, 0.996, -0.034, -0.219, 0.061, 0.061, 0.122, -170.964, -77.509, -24.115, -26.607, -11.987, 2.140, 28.97, 0.0697, 0.77045, -0.11298, 0.62344,
 13:23:14.735,e3:ca:2d:fd:e0:8c, 2015-01-01 01:09:17.165, 0.995, -0.034, -0.22, -0.061, 0.183, -0.061, -170.958, -77.509, -24.104, -26.607, -11.987, 2.140, 28.97, 0.0697, 0.77045, -0.11298, 0.62344,
 13:23:14.757,ed:40:fe:65:30:6c, 2015-01-01 01:09:16.460, 0.988, 0.014, -0.168, 0.244, 0.122, 0.122, 175.512, -80.228, 40.287, -28.207, -16.287, 15.927, 28.99, 0.19345, -0.72614, -0.23944, -0.61469,
 13:23:14.757,ed:40:fe:65:30:6c, 2015-01-01 01:09:16.460, 0.987, 0.013, -0.168, 0.183, 0.061, 0.061, 175.512, -80.233, 40.298, -28.207, -16.287, 15.927, 28.99, 0.19345, -0.72614, -0.23944, -0.61469,
 13:23:14.759,ed:35:33:d3:6c:f8, 2015-01-01 01:09:16.580, 0.924, -0.065, 0.361, -0.305, 0.122, 0.244, -10.355, -68.456, 165.729, -23.653, -13.287, -16.547, 28.34, 0.15408, 0.54709, -0.14432, 0.80997,
 13:23:14.759,ed:35:33:d3:6c:f8, 2015-01-01 01:09:16.580, 0.923, -0.062, 0.358, -0.549, 0.244, 0.244, -10.371, -68.45, 165.795, -23.653, -13.287, -16.547, 28.34, 0.15408, 0.54709, -0.14432, 0.80997,
 13:23:14.760,f6:90:cc:01:6d:25, 2015-01-01 01:09:15.875, 0.702, 0.035, -0.696, 0.183, 0.183, 0, 176.814, -45.192, -17.249, -24.880, -13.073, 18.787, 30.86, 0.08301, 0.91095, -0.1488, 0.37555,
 13:23:14.760,f6:90:cc:01:6d:25, 2015-01-01 01:09:15.875, 0.7, 0.04, -0.695, -0.244, 0.061, 0, 176.814, -45.198, -17.238, -24.880, -13.073, 18.787, 30.86, 0.08301, 0.91095, -0.1488, 0.37555,
 13:23:14.779,e3:ca:2d:fd:e0:8c, 2015-01-01 01:09:17.165, 0.996, -0.034, -0.22, -0.244, 0, 0, -170.964, -77.509, -24.082, -26.607, -11.987, 2.140, 28.97, 0.0697, 0.77045, -0.11298, 0.62344,
 13:23:14.779,e3:ca:2d:fd:e0:8c, 2015-01-01 01:09:17.165, 0.995, -0.034, -0.22, -0.427, 0, -0.061, -170.975, -77.509, -24.049, -26.607, -11.987, 2.140, 28.97, 0.0697, 0.77045, -0.11298, 0.62344,
 13:23:14.781,ed:40:fe:65:30:6c, 2015-01-01 01:09:16.460, 0.988, 0.018, -0.171, 0.366, 0.061, 0.061, 175.518, -80.233, 40.303, -28.207, -16.287, 15.927, 28.99, 0.19345, -0.72614, -0.23944, -0.61469,
 13:23:14.781,ed:40:fe:65:30:6c, 2015-01-01 01:09:16.460, 0.988, 0.018, -0.171, 0.305, 0.061, 0.122, 175.523, -80.233, 40.292, -28.207, -16.287, 15.927, 28.99, 0.19345, -0.72614, -0.23944, -0.61469,
 13:23:14.782,f6:90:cc:01:6d:25, 2015-01-01 01:09:15.875, 0.7, 0.04, -0.696, -0.244, 0.061, 0, 176.808, -45.198, -17.232, -24.880, -13.073, 18.787, 30.86, 0.08301, 0.91095, -0.1488, 0.37555,
 13:23:14.782,f6:90:cc:01:6d:25, 2015-01-01 01:09:15.875, 0.701, 0.037, -0.697, 0, 0.122, 0, 176.808, -45.198, -17.232, -24.880, -13.073, 18.787, 30.86, 0.08301, 0.91095, -0.1488, 0.37555,
 13:23:14.804,ed:35:33:d3:6c:f8, 2015-01-01 01:09:16.580, 0.922, -0.066, 0.358, 0, 0, 0, -10.382, -68.445, 165.844, -23.653, -13.287, -16.547, 28.34, 0.15408, 0.54709, -0.14432, 0.80997,
 13:23:14.804,ed:35:33:d3:6c:f8, 2015-01-01 01:09:16.580, 0.927, -0.068, 0.359, 0.122, -0.183, -0.183, -10.382, -68.45, 165.866, -23.653, -13.287, -16.547, 28.34, 0.15408, 0.54709, -0.14432, 0.80997,
 13:23:14.825,ed:40:fe:65:30:6c, 2015-01-01 01:09:16.460, 0.989, 0.012, -0.172, -0.061, 0, 0, 175.518, -80.233, 40.292, -28.207, -16.287, 15.927, 28.99, 0.19345, -0.72614, -0.23944, -0.61469,
 13:23:14.825,ed:40:fe:65:30:6c, 2015-01-01 01:09:16.460, 0.988, 0.011, -0.175, 0.122, 0, 0, 175.512, -80.233, 40.292, -28.207, -16.287, 15.927, 28.99, 0.19345, -0.72614, -0.23944, -0.61469,
 13:23:14.827,f6:90:cc:01:6d:25, 2015-01-01 01:09:15.875, 0.7, 0.034, -0.696, -0.061, 0, 0, 176.808, -45.198, -17.232, -24.880, -13.073, 18.787, 30.86, 0.08301, 0.91095, -0.1488, 0.37555,
 13:23:14.827,f6:90:cc:01:6d:25, 2015-01-01 01:09:15.875, 0.699, 0.035, -0.698, -0.366, 0.183, 0, 176.803, -45.198, -17.232, -24.880, -13.073, 18.787, 30.86, 0.08301, 0.91095, -0.1488, 0.37555,
 13:23:14.848,e3:ca:2d:fd:e0:8c, 2015-01-01 01:09:17.165, 0.995, -0.035, -0.22, -0.305, 0.122, -0.061, -170.991, -77.509, -24.033, -26.607, -11.987, 2.140, 28.97, 0.07007, 0.77057, -0.11386, 0.62311,
 13:23:14.848,e3:ca:2d:fd:e0:8c, 2015-01-01 01:09:17.165, 0.995, -0.036, -0.22, -0.183, 0.061, -0.061, -171.008, -77.509, -24.022, -26.607, -11.987, 2.140, 28.97, 0.07007, 0.77057, -0.11386, 0.62311,
 13:23:14.869,e3:ca:2d:fd:e0:8c, 2015-01-01 01:09:17.520, 0.997, -0.035, -0.222, -0.366, 0, -0.061, -171.019, -77.509, -24.027, -26.607, -11.987, 2.140, 28.97, 0.07007, 0.77057, -0.11386, 0.62311,
 13:23:14.869,e3:ca:2d:fd:e0:8c, 2015-01-01 01:09:17.520, 0.997, -0.031, -0.221, -0.427, 0.061, 0, -171.03, -77.509, -24.033, -26.607, -11.987, 2.140, 28.97, 0.07007, 0.77057, -0.11386, 0.62311,
 13:23:14.870,ed:40:fe:65:30:6c, 2015-01-01 01:09:16.460, 0.988, 0.017, -0.172, 0.244, 0.183, 0, 175.507, -80.233, 40.298, -28.207, -16.287, 15.927, 28.99, 0.19345, -0.72614, -0.23944, -0.61469,
 13:23:14.870,ed:40:fe:65:30:6c, 2015-01-01 01:09:16.460, 0.989, 0.021, -0.173, 0.305, 0.305, 0.061, 175.507, -80.233, 40.298, -28.207, -16.287, 15.927, 28.99, 0.19345, -0.72614, -0.23944, -0.61469,
 13:23:14.872,ed:35:33:d3:6c:f8, 2015-01-01 01:09:16.580, 0.926, -0.069, 0.355, 0.244, 0.244, -0.244, -10.366, -68.45, 165.883, -24.087, -13.260, -15.753, 28.34, 0.15408, 0.54709, -0.14432, 0.80997,
 13:23:14.872,ed:35:33:d3:6c:f8, 2015-01-01 01:09:16.580, 0.926, -0.063, 0.356, 0.549, 0.366, -0.488, -10.344, -68.445, 165.883, -24.087, -13.260, -15.753, 28.34, 0.15408, 0.54709, -0.14432, 0.80997,
 13:23:14.873,f6:90:cc:01:6d:25, 2015-01-01 01:09:15.875, 0.7, 0.04, -0.697, -0.488, 0.122, 0, 176.797, -45.203, -17.249, -24.880, -13.073, 18.787, 30.86, 0.08301, 0.91095, -0.1488, 0.37555,
 13:23:14.873,f6:90:cc:01:6d:25, 2015-01-01 01:09:15.875, 0.701, 0.041, -0.696, -0.488, 0.183, 0, 176.786, -45.203, -17.271, -24.880, -13.073, 18.787, 30.86, 0.08301, 0.91095, -0.1488, 0.37555,
 13:23:14.892,e3:ca:2d:fd:e0:8c, 2015-01-01 01:09:17.520, 0.995, -0.031, -0.221, -0.244, 0.366, 0, -171.035, -77.509, -24.049, -26.607, -11.987, 2.140, 28.97, 0.07007, 0.77057, -0.11386, 0.62311,
 13:23:14.892,e3:ca:2d:fd:e0:8c, 2015-01-01 01:09:17.520, 0.997, -0.034, -0.218, -0.183, 0.122, -0.122, -171.046, -77.514, -24.044, -26.607, -11.987, 2.140, 28.97, 0.07007, 0.77057, -0.11386, 0.62311,
 13:23:14.894,ed:35:33:d3:6c:f8, 2015-01-01 01:09:16.580, 0.924, -0.061, 0.356, 0.732, 0.244, -0.854, -10.3, -68.445, 165.855, -24.087, -13.260, -15.753, 28.34, 0.15149, 0.54672, -0.14255, 0.811,
 13:23:14.894,ed:35:33:d3:6c:f8, 2015-01-01 01:09:16.580, 0.925, -0.062, 0.36, 0.793, 0.122, -0.854, -10.239, -68.445, 165.811, -24.087, -13.260, -15.753, 28.34, 0.15149, 0.54672, -0.14255, 0.811,
 13:23:14.916,ed:40:fe:65:30:6c, 2015-01-01 01:09:16.460, 0.989, 0.017, -0.172, 0.183, 0.244, 0.061, 175.507, -80.239, 40.292, -28.207, -16.287, 15.927, 28.99, 0.19345, -0.72614, -0.23944, -0.61469,
 13:23:14.916,ed:40:fe:65:30:6c, 2015-01-01 01:09:16.460, 0.988, 0.011, -0.173, 0.061, 0.122, 0, 175.496, -80.239, 40.298, -28.207, -16.287, 15.927, 28.99, 0.19345, -0.72614, -0.23944, -0.61469,
 13:23:14.918,f6:90:cc:01:6d:25, 2015-01-01 01:09:15.875, 0.701, 0.036, -0.698, -0.427, 0.244, 0, 176.781, -45.209, -17.287, -25.347, -13.227, 18.593, 30.86, 0.08301, 0.91095, -0.1488, 0.37555,
 13:23:14.918,f6:90:cc:01:6d:25, 2015-01-01 01:09:15.875, 0.701, 0.034, -0.699, -0.244, 0, 0, 176.776, -45.209, -17.298, -25.347, -13.227, 18.593, 30.86, 0.08301, 0.91095, -0.1488, 0.37555,
 13:23:14.937,e3:ca:2d:fd:e0:8c, 2015-01-01 01:09:17.520, 0.995, -0.035, -0.221, -0.366, 0, -0.244, -171.063, -77.514, -24.027, -26.607, -11.987, 2.140, 28.97, 0.07007, 0.77057, -0.11386, 0.62311,
 13:23:14.937,e3:ca:2d:fd:e0:8c, 2015-01-01 01:09:17.520, 0.995, -0.034, -0.222, -0.244, 0.244, -0.122, -171.09, -77.514, -23.994, -26.607, -11.987, 2.140, 28.97, 0.07007, 0.77057, -0.11386, 0.62311,
 13:23:14.939,ed:35:33:d3:6c:f8, 2015-01-01 01:09:16.580, 0.924, -0.067, 0.358, 0.305, 0.061, -0.854, -10.184, -68.445, 165.756, -24.087, -13.260, -15.753, 28.34, 0.15149, 0.54672, -0.14255, 0.811,
 13:23:14.939,ed:35:33:d3:6c:f8, 2015-01-01 01:09:16.580, 0.921, -0.065, 0.358, 0.061, 0.122, -0.61, -10.14, -68.445, 165.707, -24.087, -13.260, -15.753, 28.34, 0.15149, 0.54672, -0.14255, 0.811,
 13:23:14.961,ed:35:33:d3:6c:f8, 2015-01-01 01:09:16.915, 0.921, -0.061, 0.361, -0.488, 0.061, -0.366, -10.113, -68.445, 165.668, -24.087, -13.260, -15.753, 28.34, 0.15149, 0.54672, -0.14255, 0.811,
 13:23:14.961,ed:35:33:d3:6c:f8, 2015-01-01 01:09:16.915, 0.923, -0.059, 0.362, -0.366, 0.244, -0.488, -10.102, -68.445, 165.63, -24.087, -13.260, -15.753, 28.34, 0.15149, 0.54672, -0.14255, 0.811,
 13:23:14.962,f6:90:cc:01:6d:25, 2015-01-01 01:09:15.875, 0.701, 0.036, -0.695, 0.122, -0.183, 0, 176.776, -45.203, -17.292, -25.347, -13.227, 18.593, 30.86, 0.0834, 0.91064, -0.14941, 0.37592,
 13:23:14.962,f6:90:cc:01:6d:25, 2015-01-01 01:09:15.875, 0.701, 0.04, -0.693, 0, -0.061, 0, 176.781, -45.203, -17.276, -25.347, -13.227, 18.593, 30.86, 0.0834, 0.91064, -0.14941, 0.37592,
 13:23:14.982,e3:ca:2d:fd:e0:8c, 2015-01-01 01:09:17.520, 0.996, -0.032, -0.219, 0, 0.366, 0, -171.101, -77.52, -23.983, -26.607, -11.987, 2.140, 28.97, 0.07007, 0.77057, -0.11386, 0.62311,
 13:23:14.982,e3:ca:2d:fd:e0:8c, 2015-01-01 01:09:17.520, 0.995, -0.032, -0.217, 0.183, 0.122, 0.061, -171.101, -77.525, -23.983, -26.607, -11.987, 2.140, 28.97, 0.07007, 0.77057, -0.11386, 0.62311,
 13:23:14.983,ed:40:fe:65:30:6c, 2015-01-01 01:09:16.460, 0.988, 0.011, -0.172, 0.183, 0.122, 0, 175.49, -80.239, 40.298, -28.047, -16.680, 16.607, 28.99, 0.19345, -0.72614, -0.23944, -0.61469,
 13:23:14.984,ed:40:fe:65:30:6c, 2015-01-01 01:09:16.460, 0.987, 0.016, -0.169, 0.183, 0.122, -0.061, 175.485, -80.239, 40.303, -28.047, -16.680, 16.607, 28.99, 0.19345, -0.72614, -0.23944, -0.61469,
 13:23:14.986,f6:90:cc:01:6d:25, 2015-01-01 01:09:16.165, 0.701, 0.041, -0.694, -0.122, 0, 0, 176.781, -45.203, -17.265, -25.347, -13.227, 18.593, 30.86, 0.0834, 0.91064, -0.14941, 0.37592,
 13:23:14.986,f6:90:cc:01:6d:25, 2015-01-01 01:09:16.165, 0.701, 0.04, -0.695, 0, 0.061, 0, 176.781, -45.203, -17.249, -25.347, -13.227, 18.593, 30.86, 0.0834, 0.91064, -0.14941, 0.37592,
 13:23:15.006,ed:40:fe:65:30:6c, 2015-01-01 01:09:16.460, 0.988, 0.02, -0.167, 0.122, 0.061, 0, 175.479, -80.239, 40.32, -28.047, -16.680, 16.607, 28.99, 0.1936, -0.72598, -0.23947, -0.61481,
 13:23:15.006,ed:40:fe:65:30:6c, 2015-01-01 01:09:16.460, 0.988, 0.018, -0.169, 0.122, 0, 0, 175.468, -80.239, 40.331, -28.047, -16.680, 16.607, 28.99, 0.1936, -0.72598, -0.23947, -0.61481,
 13:23:15.007,ed:35:33:d3:6c:f8, 2015-01-01 01:09:16.915, 0.924, -0.059, 0.36, 0, 0.061, -0.427, -10.08, -68.445, 165.591, -24.087, -13.260, -15.753, 28.34, 0.15149, 0.54672, -0.14255, 0.811,
 13:23:15.007,ed:35:33:d3:6c:f8, 2015-01-01 01:09:16.915, 0.925, -0.062, 0.358, 0.244, 0, -0.244, -10.058, -68.445, 165.547, -24.087, -13.260, -15.753, 28.34, 0.15149, 0.54672, -0.14255, 0.811,
 13:23:15.031,f6:90:cc:01:6d:25, 2015-01-01 01:09:16.165, 0.701, 0.038, -0.695, 0.305, 0.061, 0, 176.781, -45.203, -17.221, -25.347, -13.227, 18.593, 30.86, 0.0834, 0.91064, -0.14941, 0.37592,
 13:23:15.031,f6:90:cc:01:6d:25, 2015-01-01 01:09:16.165, 0.701, 0.039, -0.694, 0.244, 0.244, 0, 176.786, -45.203, -17.21, -25.347, -13.227, 18.593, 30.86, 0.0834, 0.91064, -0.14941, 0.37592,
 13:23:15.049,e3:ca:2d:fd:e0:8c, 2015-01-01 01:09:17.520, 0.995, -0.032, -0.218, 0.122, 0, 0.061, -171.096, -77.525, -23.983, -26.607, -11.987, 2.140, 28.97, 0.07007, 0.77057, -0.11386, 0.62311,
 13:23:15.049,e3:ca:2d:fd:e0:8c, 2015-01-01 01:09:17.520, 0.996, -0.032, -0.218, 0.122, 0.122, 0, -171.09, -77.525, -23.989, -26.607, -11.987, 2.140, 28.97, 0.07007, 0.77057, -0.11386, 0.62311,
 13:23:15.050,ed:40:fe:65:30:6c, 2015-01-01 01:09:16.460, 0.988, 0.016, -0.171, 0.244, 0, 0, 175.463, -80.239, 40.342, -28.047, -16.680, 16.607, 28.99, 0.1936, -0.72598, -0.23947, -0.61481,
 13:23:15.050,ed:40:fe:65:30:6c, 2015-01-01 01:09:16.460, 0.988, 0.016, -0.171, 0.366, 0.061, 0, 175.457, -80.239, 40.347, -28.047, -16.680, 16.607, 28.99, 0.1936, -0.72598, -0.23947, -0.61481,
 13:23:15.051,ed:35:33:d3:6c:f8, 2015-01-01 01:09:16.915, 0.924, -0.061, 0.359, 0.122, 0, -0.122, -10.042, -68.445, 165.526, -24.087, -13.260, -15.753, 28.34, 0.15149, 0.54672, -0.14255, 0.811,
 13:23:15.051,ed:35:33:d3:6c:f8, 2015-01-01 01:09:16.915, 0.922, -0.06, 0.36, -0.061, 0.122, -0.122, -10.031, -68.445, 165.515, -24.087, -13.260, -15.753, 28.34, 0.15149, 0.54672, -0.14255, 0.811,
 13:23:15.072,e3:ca:2d:fd:e0:8c, 2015-01-01 01:09:17.520, 0.996, -0.032, -0.218, 0.183, 0.183, 0, -171.09, -77.525, -24.011, -26.307, -12.387, 1.520, 28.97, 0.07007, 0.77057, -0.11386, 0.62311,
 13:23:15.072,e3:ca:2d:fd:e0:8c, 2015-01-01 01:09:17.520, 0.996, -0.031, -0.217, 0.061, 0.061, 0, -171.09, -77.525, -24.027, -26.307, -12.387, 1.520, 28.97, 0.07007, 0.77057, -0.11386, 0.62311,
 13:23:15.074,ed:35:33:d3:6c:f8, 2015-01-01 01:09:16.915, 0.921, -0.061, 0.361, -0.244, 0, -0.244, -10.02, -68.445, 165.493, -24.087, -13.260, -15.753, 28.34, 0.15149, 0.54672, -0.14255, 0.811,
 13:23:15.074,ed:35:33:d3:6c:f8, 2015-01-01 01:09:16.915, 0.922, -0.062, 0.363, -0.488, 0.122, -0.427, -10.009, -68.445, 165.465, -24.087, -13.260, -15.753, 28.34, 0.15149, 0.54672, -0.14255, 0.811,
 13:23:15.074,ed:40:fe:65:30:6c, 2015-01-01 01:09:16.795, 0.987, 0.019, -0.17, 0.488, 0.061, 0, 175.452, -80.239, 40.347, -28.047, -16.680, 16.607, 28.99, 0.1936, -0.72598, -0.23947, -0.61481,
 13:23:15.074,ed:40:fe:65:30:6c, 2015-01-01 01:09:16.795, 0.987, 0.018, -0.168, 0.244, 0.122, 0, 175.446, -80.239, 40.347, -28.047, -16.680, 16.607, 28.99, 0.1936, -0.72598, -0.23947, -0.61481,
 13:23:15.075,f6:90:cc:01:6d:25, 2015-01-01 01:09:16.165, 0.702, 0.042, -0.695, 0.122, 0.244, 0, 176.792, -45.209, -17.216, -25.347, -13.227, 18.593, 30.86, 0.0834, 0.91064, -0.14941, 0.37592,
 13:23:15.075,f6:90:cc:01:6d:25, 2015-01-01 01:09:16.165, 0.703, 0.04, -0.693, 0, 0.244, 0, 176.792, -45.214, -17.216, -25.347, -13.227, 18.593, 30.86, 0.0834, 0.91064, -0.14941, 0.37592,
 13:23:15.094,e3:ca:2d:fd:e0:8c, 2015-01-01 01:09:17.520, 0.995, -0.032, -0.219, 0, 0, 0, -171.096, -77.531, -24.038, -26.307, -12.387, 1.520, 28.97, 0.07007, 0.77057, -0.11386, 0.62311,
 13:23:15.094,e3:ca:2d:fd:e0:8c, 2015-01-01 01:09:17.520, 0.994, -0.033, -0.218, -0.122, -0.061, 0, -171.101, -77.525, -24.027, -26.307, -12.387, 1.520, 28.97, 0.07007, 0.77057, -0.11386, 0.62311,
 13:23:15.117,ed:40:fe:65:30:6c, 2015-01-01 01:09:16.795, 0.988, 0.016, -0.167, 0, 0.061, 0, 175.435, -80.239, 40.353, -28.047, -16.680, 16.607, 28.99, 0.1936, -0.72598, -0.23947, -0.61481,
 13:23:15.117,ed:40:fe:65:30:6c, 2015-01-01 01:09:16.795, 0.987, 0.014, -0.169, 0, 0, 0, 175.419, -80.239, 40.364, -28.047, -16.680, 16.607, 28.99, 0.1936, -0.72598, -0.23947, -0.61481,
 13:23:15.121,f6:90:cc:01:6d:25, 2015-01-01 01:09:16.165, 0.703, 0.038, -0.694, -0.305, 0.122, 0, 176.786, -45.22, -17.21, -25.347, -13.227, 18.593, 30.86, 0.0834, 0.91064, -0.14941, 0.37592,
 13:23:15.121,f6:90:cc:01:6d:25, 2015-01-01 01:09:16.165, 0.702, 0.037, -0.692, -0.183, 0.183, 0, 176.786, -45.22, -17.205, -25.347, -13.227, 18.593, 30.86, 0.0834, 0.91064, -0.14941, 0.37592,
 13:23:15.139,e3:ca:2d:fd:e0:8c, 2015-01-01 01:09:17.520, 0.996, -0.035, -0.218, -0.183, -0.427, 0, -171.112, -77.525, -24.016, -26.307, -12.387, 1.520, 28.97, 0.07007, 0.77057, -0.11386, 0.62311,
 13:23:15.139,e3:ca:2d:fd:e0:8c, 2015-01-01 01:09:17.520, 0.997, -0.034, -0.219, -0.061, -0.244, 0, -171.123, -77.514, -23.994, -26.307, -12.387, 1.520, 28.97, 0.07007, 0.77057, -0.11386, 0.62311,
 13:23:15.140,ed:40:fe:65:30:6c, 2015-01-01 01:09:16.795, 0.988, 0.016, -0.167, 0.061, 0, 0, 175.413, -80.239, 40.369, -28.047, -16.680, 16.607, 28.99, 0.1936, -0.72598, -0.23947, -0.61481,
 13:23:15.140,ed:40:fe:65:30:6c, 2015-01-01 01:09:16.795, 0.987, 0.016, -0.169, 0.122, -0.122, 0, 175.402, -80.239, 40.375, -28.047, -16.680, 16.607, 28.99, 0.1936, -0.72598, -0.23947, -0.61481,
 13:23:15.141,ed:35:33:d3:6c:f8, 2015-01-01 01:09:16.915, 0.922, -0.06, 0.361, -0.732, 0.244, -0.061, -9.998, -68.439, 165.432, -24.087, -13.260, -15.753, 28.34, 0.15149, 0.54672, -0.14255, 0.811,
 13:23:15.141,ed:35:33:d3:6c:f8, 2015-01-01 01:09:16.915, 0.922, -0.062, 0.363, -0.916, 0.183, 0.244, -10.009, -68.434, 165.432, -24.087, -13.260, -15.753, 28.34, 0.15149, 0.54672, -0.14255, 0.811,
 13:23:15.143,f6:90:cc:01:6d:25, 2015-01-01 01:09:16.165, 0.702, 0.037, -0.694, 0.183, 0.183, 0, 176.786, -45.225, -17.205, -25.347, -13.227, 18.593, 30.86, 0.0834, 0.91064, -0.14941, 0.37592,
 13:23:15.143,f6:90:cc:01:6d:25, 2015-01-01 01:09:16.165, 0.702, 0.038, -0.694, 0.488, 0.183, 0, 176.792, -45.231, -17.199, -25.347, -13.227, 18.593, 30.86, 0.0834, 0.91064, -0.14941, 0.37592,
 13:23:15.164,ed:35:33:d3:6c:f8, 2015-01-01 01:09:16.915, 0.923, -0.06, 0.361, -0.61, 0.122, 0.366, -10.031, -68.434, 165.432, -23.387, -13.273, -16.647, 28.34, 0.15149, 0.54672, -0.14255, 0.811,
 13:23:15.164,ed:35:33:d3:6c:f8, 2015-01-01 01:09:16.915, 0.925, -0.06, 0.36, -0.671, 0, 0.549, -10.058, -68.428, 165.427, -23.387, -13.273, -16.647, 28.34, 0.15149, 0.54672, -0.14255, 0.811,
 13:23:15.186,ed:40:fe:65:30:6c, 2015-01-01 01:09:16.795, 0.988, 0.017, -0.168, 0.244, -0.061, 0, 175.397, -80.239, 40.386, -28.047, -16.680, 16.607, 28.99, 0.1936, -0.72598, -0.23947, -0.61481,
 13:23:15.186,ed:40:fe:65:30:6c, 2015-01-01 01:09:16.795, 0.99, 0.016, -0.171, 0.305, 0, 0, 175.391, -80.239, 40.391, -28.047, -16.680, 16.607, 28.99, 0.1936, -0.72598, -0.23947, -0.61481,
 13:23:15.188,f6:90:cc:01:6d:25, 2015-01-01 01:09:16.165, 0.701, 0.038, -0.693, 0.366, 0.061, 0, 176.803, -45.231, -17.199, -25.153, -13.353, 18.993, 30.86, 0.0834, 0.91064, -0.14941, 0.37592,
 13:23:15.188,f6:90:cc:01:6d:25, 2015-01-01 01:09:16.165, 0.701, 0.039, -0.694, 0.061, 0, 0, 176.808, -45.231, -17.199, -25.153, -13.353, 18.993, 30.86, 0.0834, 0.91064, -0.14941, 0.37592,
 13:23:15.206,e3:ca:2d:fd:e0:8c, 2015-01-01 01:09:17.520, 0.995, -0.035, -0.219, 0.061, -0.061, 0, -171.129, -77.509, -23.978, -26.307, -12.387, 1.520, 28.97, 0.07077, 0.77048, -0.11426, 0.62305,
 13:23:15.206,e3:ca:2d:fd:e0:8c, 2015-01-01 01:09:17.520, 0.993, -0.034, -0.217, 0.427, -0.122, 0.305, -171.118, -77.509, -23.967, -26.307, -12.387, 1.520, 28.97, 0.07077, 0.77048, -0.11426, 0.62305,
 13:23:15.208,ed:35:33:d3:6c:f8, 2015-01-01 01:09:16.915, 0.927, -0.067, 0.357, -0.244, 0.061, 0.366, -10.091, -68.423, 165.427, -23.387, -13.273, -16.647, 28.34, 0.15149, 0.54672, -0.14255, 0.811,
 13:23:15.208,ed:35:33:d3:6c:f8, 2015-01-01 01:09:16.915, 0.927, -0.066, 0.355, 0.183, 0.122, 0.061, -10.102, -68.423, 165.427, -23.387, -13.273, -16.647, 28.34, 0.15149, 0.54672, -0.14255, 0.811,
 13:23:15.229,e3:ca:2d:fd:e0:8c, 2015-01-01 01:09:17.880, 0.994, -0.033, -0.219, 0.183, -0.427, 0.122, -171.096, -77.503, -23.95, -26.307, -12.387, 1.520, 28.97, 0.07077, 0.77048, -0.11426, 0.62305,
 13:23:15.229,e3:ca:2d:fd:e0:8c, 2015-01-01 01:09:17.880, 0.997, -0.034, -0.221, -0.122, -0.427, 0.061, -171.096, -77.492, -23.901, -26.307, -12.387, 1.520, 28.97, 0.07077, 0.77048, -0.11426, 0.62305,
 13:23:15.231,ed:35:33:d3:6c:f8, 2015-01-01 01:09:16.915, 0.927, -0.066, 0.356, 0.244, 0.122, 0.244, -10.102, -68.417, 165.421, -23.387, -13.273, -16.647, 28.34, 0.15353, 0.5463, -0.14322, 0.81079,
 13:23:15.231,ed:35:33:d3:6c:f8, 2015-01-01 01:09:16.915, 0.927, -0.065, 0.357, 0.549, 0.122, 0.122, -10.102, -68.417, 165.432, -23.387, -13.273, -16.647, 28.34, 0.15353, 0.5463, -0.14322, 0.81079,
 13:23:15.232,f6:90:cc:01:6d:25, 2015-01-01 01:09:16.165, 0.7, 0.036, -0.696, 0.122, 0.305, 0, 176.808, -45.236, -17.199, -25.153, -13.353, 18.993, 30.86, 0.08289, 0.91071, -0.14856, 0.37625,
 13:23:15.232,f6:90:cc:01:6d:25, 2015-01-01 01:09:16.165, 0.7, 0.034, -0.699, 0.183, 0.549, 0, 176.814, -45.247, -17.221, -25.153, -13.353, 18.993, 30.86, 0.08289, 0.91071, -0.14856, 0.37625,
 13:23:15.253,ed:40:fe:65:30:6c, 2015-01-01 01:09:16.795, 0.99, 0.013, -0.175, 0.122, 0.061, 0, 175.386, -80.239, 40.402, -28.047, -16.680, 16.607, 28.99, 0.1936, -0.72598, -0.23947, -0.61481,
 13:23:15.253,ed:40:fe:65:30:6c, 2015-01-01 01:09:16.795, 0.99, 0.012, -0.176, 0.183, 0.122, 0, 175.38, -80.239, 40.413, -28.047, -16.680, 16.607, 28.99, 0.1936, -0.72598, -0.23947, -0.61481,
 13:23:15.275,ed:40:fe:65:30:6c, 2015-01-01 01:09:16.795, 0.989, 0.014, -0.175, 0.122, 0.122, 0, 175.38, -80.239, 40.419, -28.187, -16.380, 16.347, 28.99, 0.1936, -0.72598, -0.23947, -0.61481,
 13:23:15.275,ed:40:fe:65:30:6c, 2015-01-01 01:09:16.795, 0.988, 0.018, -0.174, 0.183, 0.122, 0, 175.375, -80.239, 40.43, -28.187, -16.380, 16.347, 28.99, 0.1936, -0.72598, -0.23947, -0.61481,
 13:23:15.275,e3:ca:2d:fd:e0:8c, 2015-01-01 01:09:17.880, 0.999, -0.034, -0.223, -0.183, -0.183, 0, -171.101, -77.487, -23.846, -26.307, -12.387, 1.520, 28.97, 0.07077, 0.77048, -0.11426, 0.62305,
 13:23:15.275,e3:ca:2d:fd:e0:8c, 2015-01-01 01:09:17.880, 0.997, -0.034, -0.224, 0, 0.061, 0, -171.107, -77.481, -23.818, -26.307, -12.387, 1.520, 28.97, 0.07077, 0.77048, -0.11426, 0.62305,
 13:23:15.278,f6:90:cc:01:6d:25, 2015-01-01 01:09:16.435, 0.7, 0.035, -0.701, 0.305, 0.549, 0, 176.819, -45.258, -17.249, -25.153, -13.353, 18.993, 30.86, 0.08289, 0.91071, -0.14856, 0.37625,
 13:23:15.278,f6:90:cc:01:6d:25, 2015-01-01 01:09:16.435, 0.701, 0.038, -0.699, 0.183, 0.244, 0, 176.825, -45.258, -17.271, -25.153, -13.353, 18.993, 30.86, 0.08289, 0.91071, -0.14856, 0.37625,
 13:23:15.278,ed:35:33:d3:6c:f8, 2015-01-01 01:09:16.915, 0.923, -0.061, 0.358, 0.854, 0, 0.061, -10.096, -68.417, 165.421, -23.387, -13.273, -16.647, 28.34, 0.15353, 0.5463, -0.14322, 0.81079,
 13:23:15.278,ed:35:33:d3:6c:f8, 2015-01-01 01:09:16.915, 0.922, -0.057, 0.361, 0.122, 0, 0.366, -10.085, -68.417, 165.399, -23.387, -13.273, -16.647, 28.34, 0.15353, 0.5463, -0.14322, 0.81079,
 13:23:15.296,e3:ca:2d:fd:e0:8c, 2015-01-01 01:09:17.880, 0.996, -0.033, -0.222, 0.061, 0.061, 0, -171.107, -77.481, -23.807, -26.307, -12.387, 1.520, 28.97, 0.07077, 0.77048, -0.11426, 0.62305,
 13:23:15.296,e3:ca:2d:fd:e0:8c, 2015-01-01 01:09:17.880, 0.995, -0.032, -0.22, 0, 0, 0, -171.107, -77.481, -23.802, -26.307, -12.387, 1.520, 28.97, 0.07077, 0.77048, -0.11426, 0.62305,
 13:23:15.320,ed:40:fe:65:30:6c, 2015-01-01 01:09:16.795, 0.987, 0.019, -0.171, 0.122, 0.061, 0, 175.369, -80.239, 40.441, -28.187, -16.380, 16.347, 28.99, 0.1936, -0.72598, -0.23947, -0.61481,
 13:23:15.320,ed:40:fe:65:30:6c, 2015-01-01 01:09:16.795, 0.988, 0.02, -0.168, -0.061, 0, 0, 175.358, -80.239, 40.446, -28.187, -16.380, 16.347, 28.99, 0.1936, -0.72598, -0.23947, -0.61481,
 13:23:15.322,ed:35:33:d3:6c:f8, 2015-01-01 01:09:17.250, 0.921, -0.059, 0.362, -0.61, 0.061, 0.244, -10.102, -68.417, 165.388, -23.387, -13.273, -16.647, 28.34, 0.15353, 0.5463, -0.14322, 0.81079,
 13:23:15.322,ed:35:33:d3:6c:f8, 2015-01-01 01:09:17.250, 0.921, -0.06, 0.363, -0.916, 0, 0.244, -10.124, -68.412, 165.361, -23.387, -13.273, -16.647, 28.34, 0.15353, 0.5463, -0.14322, 0.81079,
 13:23:15.322,f6:90:cc:01:6d:25, 2015-01-01 01:09:16.435, 0.702, 0.041, -0.696, 0, 0, 0, 176.825, -45.258, -17.298, -25.153, -13.353, 18.993, 30.86, 0.08289, 0.91071, -0.14856, 0.37625,
 13:23:15.322,f6:90:cc:01:6d:25, 2015-01-01 01:09:16.435, 0.703, 0.041, -0.694, -0.183, -0.122, 0, 176.825, -45.258, -17.303, -25.153, -13.353, 18.993, 30.86, 0.08289, 0.91071, -0.14856, 0.37625,
 13:23:15.342,ed:40:fe:65:30:6c, 2015-01-01 01:09:16.795, 0.987, 0.018, -0.167, -0.183, -0.061, 0, 175.342, -80.233, 40.452, -28.187, -16.380, 16.347, 28.99, 0.19351, -0.72595, -0.23962, -0.61484,
 13:23:15.342,ed:40:fe:65:30:6c, 2015-01-01 01:09:16.795, 0.988, 0.014, -0.167, 0, -0.122, 0, 175.331, -80.233, 40.463, -28.187, -16.380, 16.347, 28.99, 0.19351, -0.72595, -0.23962, -0.61484,
 13:23:15.342,e3:ca:2d:fd:e0:8c, 2015-01-01 01:09:17.880, 0.996, -0.032, -0.218, -0.183, -0.122, -0.061, -171.118, -77.481, -23.796, -26.307, -12.387, 1.520, 28.97, 0.07077, 0.77048, -0.11426, 0.62305,
 13:23:15.342,e3:ca:2d:fd:e0:8c, 2015-01-01 01:09:17.880, 0.995, -0.035, -0.217, -0.061, -0.305, 0, -171.129, -77.476, -23.785, -26.307, -12.387, 1.520, 28.97, 0.07077, 0.77048, -0.11426, 0.62305,
 13:23:15.346,f6:90:cc:01:6d:25, 2015-01-01 01:09:16.435, 0.703, 0.038, -0.693, -0.244, -0.122, 0, 176.819, -45.253, -17.309, -25.153, -13.353, 18.993, 30.86, 0.08289, 0.91071, -0.14856, 0.37625,
 13:23:15.346,f6:90:cc:01:6d:25, 2015-01-01 01:09:16.435, 0.703, 0.035, -0.692, 0, -0.183, 0, 176.819, -45.247, -17.303, -25.153, -13.353, 18.993, 30.86, 0.08289, 0.91071, -0.14856, 0.37625,
 13:23:15.367,ed:35:33:d3:6c:f8, 2015-01-01 01:09:17.250, 0.921, -0.062, 0.363, -0.854, 0, 0.671, -10.151, -68.412, 165.355, -23.387, -13.273, -16.647, 28.34, 0.15353, 0.5463, -0.14322, 0.81079,
 13:23:15.367,ed:35:33:d3:6c:f8, 2015-01-01 01:09:17.250, 0.922, -0.065, 0.363, -0.488, 0.183, 1.221, -10.201, -68.412, 165.377, -23.387, -13.273, -16.647, 28.34, 0.15353, 0.5463, -0.14322, 0.81079,
 13:23:15.389,ed:40:fe:65:30:6c, 2015-01-01 01:09:16.795, 0.988, 0.014, -0.167, 0.183, -0.061, 0, 175.325, -80.228, 40.468, -28.187, -16.380, 16.347, 28.99, 0.19351, -0.72595, -0.23962, -0.61484,
 13:23:15.389,ed:40:fe:65:30:6c, 2015-01-01 01:09:16.795, 0.988, 0.014, -0.168, 0.244, -0.122, 0, 175.325, -80.228, 40.474, -28.187, -16.380, 16.347, 28.99, 0.19351, -0.72595, -0.23962, -0.61484,
 13:23:15.392,f6:90:cc:01:6d:25, 2015-01-01 01:09:16.435, 0.703, 0.036, -0.692, 0.366, -0.244, 0, 176.825, -45.247, -17.303, -25.153, -13.353, 18.993, 30.86, 0.08289, 0.91071, -0.14856, 0.37625,
 13:23:15.392,f6:90:cc:01:6d:25, 2015-01-01 01:09:16.435, 0.702, 0.037, -0.692, 0.427, -0.061, 0, 176.836, -45.242, -17.314, -25.153, -13.353, 18.993, 30.86, 0.08289, 0.91071, -0.14856, 0.37625,
 13:23:15.409,e3:ca:2d:fd:e0:8c, 2015-01-01 01:09:17.880, 0.995, -0.035, -0.217, 0.061, -0.366, 0, -171.134, -77.47, -23.78, -26.307, -12.387, 1.520, 28.97, 0.07077, 0.77048, -0.11426, 0.62305,
 13:23:15.409,e3:ca:2d:fd:e0:8c, 2015-01-01 01:09:17.880, 0.996, -0.034, -0.216, 0.366, -0.427, 0.122, -171.134, -77.459, -23.774, -26.307, -12.387, 1.520, 28.97, 0.07077, 0.77048, -0.11426, 0.62305,
 13:23:15.411,ed:35:33:d3:6c:f8, 2015-01-01 01:09:17.250, 0.925, -0.065, 0.362, -0.122, 0.061, 1.282, -10.261, -68.401, 165.432, -23.387, -13.273, -16.647, 28.34, 0.15353, 0.5463, -0.14322, 0.81079,
 13:23:15.411,ed:35:33:d3:6c:f8, 2015-01-01 01:09:17.250, 0.926, -0.063, 0.358, -0.305, -0.122, 1.16, -10.322, -68.395, 165.487, -23.387, -13.273, -16.647, 28.34, 0.15353, 0.5463, -0.14322, 0.81079,
 13:23:15.433,ed:40:fe:65:30:6c, 2015-01-01 01:09:17.130, 0.989, 0.017, -0.171, 0.122, -0.061, 0, 175.32, -80.228, 40.479, -28.187, -16.380, 16.347, 28.99, 0.19351, -0.72595, -0.23962, -0.61484,
 13:23:15.433,ed:40:fe:65:30:6c, 2015-01-01 01:09:17.130, 0.988, 0.018, -0.173, 0.244, 0, 0, 175.314, -80.228, 40.485, -28.187, -16.380, 16.347, 28.99, 0.19351, -0.72595, -0.23962, -0.61484,
 13:23:15.433,e3:ca:2d:fd:e0:8c, 2015-01-01 01:09:17.880, 0.996, -0.033, -0.217, 0.366, -0.549, 0.183, -171.118, -77.448, -23.774, -26.293, -12.267, 1.713, 28.97, 0.07077, 0.77048, -0.11426, 0.62305,
 13:23:15.433,e3:ca:2d:fd:e0:8c, 2015-01-01 01:09:17.880, 0.995, -0.031, -0.22, 0.183, -0.488, 0.183, -171.107, -77.437, -23.785, -26.293, -12.267, 1.713, 28.97, 0.07077, 0.77048, -0.11426, 0.62305,
 13:23:15.434,ed:35:33:d3:6c:f8, 2015-01-01 01:09:17.250, 0.923, -0.063, 0.358, -0.61, -0.244, 1.099, -10.382, -68.395, 165.542, -23.387, -13.273, -16.647, 28.34, 0.15353, 0.5463, -0.14322, 0.81079,
 13:23:15.434,ed:35:33:d3:6c:f8, 2015-01-01 01:09:17.250, 0.923, -0.066, 0.36, -0.183, -0.366, 0.916, -10.437, -68.395, 165.608, -23.387, -13.273, -16.647, 28.34, 0.15353, 0.5463, -0.14322, 0.81079,
 13:23:15.435,f6:90:cc:01:6d:25, 2015-01-01 01:09:16.435, 0.701, 0.04, -0.694, 0.244, -0.061, 0, 176.841, -45.242, -17.32, -25.153, -13.353, 18.993, 30.86, 0.08289, 0.91071, -0.14856, 0.37625,
 13:23:15.435,f6:90:cc:01:6d:25, 2015-01-01 01:09:16.435, 0.701, 0.04, -0.696, 0.122, 0, 0, 176.847, -45.242, -17.331, -25.153, -13.353, 18.993, 30.86, 0.08289, 0.91071, -0.14856, 0.37625,
 13:23:15.476,e3:ca:2d:fd:e0:8c, 2015-01-01 01:09:17.880, 0.997, -0.032, -0.222, 0, -0.427, 0.122, -171.101, -77.432, -23.785, -26.293, -12.267, 1.713, 28.97, 0.07077, 0.77048, -0.11426, 0.62305,
 13:23:15.476,e3:ca:2d:fd:e0:8c, 2015-01-01 01:09:17.880, 0.996, -0.032, -0.223, 0, -0.366, 0, -171.107, -77.421, -23.785, -26.293, -12.267, 1.713, 28.97, 0.07077, 0.77048, -0.11426, 0.62305,
 13:23:15.478,ed:40:fe:65:30:6c, 2015-01-01 01:09:17.130, 0.989, 0.016, -0.171, 0.122, 0, 0, 175.303, -80.228, 40.496, -28.187, -16.380, 16.347, 28.99, 0.19351, -0.72595, -0.23962, -0.61484,
 13:23:15.478,ed:40:fe:65:30:6c, 2015-01-01 01:09:17.130, 0.989, 0.014, -0.171, 0, -0.061, 0, 175.298, -80.222, 40.501, -28.187, -16.380, 16.347, 28.99, 0.19351, -0.72595, -0.23962, -0.61484,
 13:23:15.480,f6:90:cc:01:6d:25, 2015-01-01 01:09:16.435, 0.701, 0.037, -0.697, 0.122, 0, 0, 176.847, -45.242, -17.342, -25.147, -13.013, 18.553, 30.86, 0.08289, 0.91071, -0.14856, 0.37625,
 13:23:15.480,f6:90:cc:01:6d:25, 2015-01-01 01:09:16.435, 0.699, 0.037, -0.698, -0.061, -0.183, 0, 176.847, -45.242, -17.347, -25.147, -13.013, 18.553, 30.86, 0.08289, 0.91071, -0.14856, 0.37625,
 13:23:15.499,e3:ca:2d:fd:e0:8c, 2015-01-01 01:09:17.880, 0.996, -0.033, -0.223, 0.122, -0.427, 0, -171.112, -77.415, -23.774, -26.293, -12.267, 1.713, 28.97, 0.06931, 0.77121, -0.11285, 0.62256,
 13:23:15.499,e3:ca:2d:fd:e0:8c, 2015-01-01 01:09:17.880, 0.995, -0.033, -0.224, 0.122, -0.427, 0.122, -171.118, -77.404, -23.769, -26.293, -12.267, 1.713, 28.97, 0.06931, 0.77121, -0.11285, 0.62256,
 13:23:15.501,ed:35:33:d3:6c:f8, 2015-01-01 01:09:17.250, 0.925, -0.068, 0.361, -0.244, -0.366, 0.671, -10.486, -68.401, 165.657, -23.387, -13.273, -16.647, 28.34, 0.15353, 0.5463, -0.14322, 0.81079,
 13:23:15.501,ed:35:33:d3:6c:f8, 2015-01-01 01:09:17.250, 0.926, -0.065, 0.356, -0.183, -0.488, 0.427, -10.519, -68.406, 165.679, -23.387, -13.273, -16.647, 28.34, 0.15353, 0.5463, -0.14322, 0.81079,
 13:23:15.523,ed:40:fe:65:30:6c, 2015-01-01 01:09:17.130, 0.988, 0.016, -0.173, 0.061, -0.122, 0, 175.292, -80.222, 40.507, -28.187, -16.380, 16.347, 28.99, 0.19351, -0.72595, -0.23962, -0.61484,
 13:23:15.523,ed:40:fe:65:30:6c, 2015-01-01 01:09:17.130, 0.988, 0.018, -0.173, 0.305, -0.061, 0, 175.292, -80.217, 40.512, -28.187, -16.380, 16.347, 28.99, 0.19351, -0.72595, -0.23962, -0.61484,
 13:23:15.524,ed:35:33:d3:6c:f8, 2015-01-01 01:09:17.250, 0.924, -0.066, 0.354, 0.366, -0.793, 0.427, -10.541, -68.417, 165.69, -23.873, -12.947, -16.620, 28.34, 0.15353, 0.5463, -0.14322, 0.81079,
 13:23:15.524,ed:35:33:d3:6c:f8, 2015-01-01 01:09:17.250, 0.929, -0.067, 0.356, 0.854, -0.549, 0.549, -10.558, -68.428, 165.712, -23.873, -12.947, -16.620, 28.34, 0.15353, 0.5463, -0.14322, 0.81079,
 13:23:15.525,f6:90:cc:01:6d:25, 2015-01-01 01:09:16.435, 0.7, 0.038, -0.699, -0.061, -0.366, 0, 176.847, -45.231, -17.331, -25.147, -13.013, 18.553, 30.86, 0.08301, 0.91058, -0.14948, 0.37619,
 13:23:15.525,f6:90:cc:01:6d:25, 2015-01-01 01:09:16.435, 0.7, 0.037, -0.699, 0.244, -0.183, 0, 176.852, -45.225, -17.32, -25.147, -13.013, 18.553, 30.86, 0.08301, 0.91058, -0.14948, 0.37619,
 13:23:15.546,ed:40:fe:65:30:6c, 2015-01-01 01:09:17.130, 0.989, 0.015, -0.173, 0.183, 0, 0, 175.287, -80.217, 40.518, -28.187, -16.380, 16.347, 28.99, 0.19351, -0.72595, -0.23962, -0.61484,
 13:23:15.546,ed:40:fe:65:30:6c, 2015-01-01 01:09:17.130, 0.989, 0.015, -0.177, 0.305, 0.061, 0, 175.287, -80.217, 40.529, -28.187, -16.380, 16.347, 28.99, 0.19351, -0.72595, -0.23962, -0.61484,
 13:23:15.546,e3:ca:2d:fd:e0:8c, 2015-01-01 01:09:17.880, 0.994, -0.034, -0.221, 0.183, -0.183, 0.122, -171.112, -77.399, -23.774, -26.293, -12.267, 1.713, 28.97, 0.06931, 0.77121, -0.11285, 0.62256,
 13:23:15.546,e3:ca:2d:fd:e0:8c, 2015-01-01 01:09:17.880, 0.994, -0.035, -0.221, 0.244, -0.305, 0.122, -171.107, -77.393, -23.78, -26.293, -12.267, 1.713, 28.97, 0.06931, 0.77121, -0.11285, 0.62256,
 13:23:15.548,f6:90:cc:01:6d:25, 2015-01-01 01:09:16.725, 0.7, 0.035, -0.696, 0.305, -0.366, 0, 176.858, -45.22, -17.32, -25.147, -13.013, 18.553, 30.86, 0.08301, 0.91058, -0.14948, 0.37619,
 13:23:15.548,f6:90:cc:01:6d:25, 2015-01-01 01:09:16.725, 0.7, 0.037, -0.697, 0.061, -0.244, 0, 176.863, -45.214, -17.32, -25.147, -13.013, 18.553, 30.86, 0.08301, 0.91058, -0.14948, 0.37619,
 13:23:15.569,ed:35:33:d3:6c:f8, 2015-01-01 01:09:17.250, 0.925, -0.066, 0.354, 0.916, -0.183, 0.61, -10.569, -68.434, 165.751, -23.873, -12.947, -16.620, 28.34, 0.15353, 0.5463, -0.14322, 0.81079,
 13:23:15.569,ed:35:33:d3:6c:f8, 2015-01-01 01:09:17.250, 0.921, -0.061, 0.357, 0.732, 0, 0.305, -10.58, -68.439, 165.784, -23.873, -12.947, -16.620, 28.34, 0.15353, 0.5463, -0.14322, 0.81079,
 13:23:15.589,e3:ca:2d:fd:e0:8c, 2015-01-01 01:09:18.215, 0.995, -0.034, -0.223, 0.183, -0.366, 0.183, -171.096, -77.382, -23.785, -26.293, -12.267, 1.713, 28.97, 0.06931, 0.77121, -0.11285, 0.62256,
 13:23:15.589,e3:ca:2d:fd:e0:8c, 2015-01-01 01:09:18.215, 0.998, -0.034, -0.22, 0.366, -0.122, 0.183, -171.079, -77.377, -23.796, -26.293, -12.267, 1.713, 28.97, 0.06931, 0.77121, -0.11285, 0.62256,
 13:23:15.591,ed:40:fe:65:30:6c, 2015-01-01 01:09:17.130, 0.987, 0.018, -0.172, 0.549, 0.183, 0, 175.287, -80.217, 40.534, -28.187, -16.380, 16.347, 28.99, 0.19351, -0.72595, -0.23962, -0.61484,
 13:23:15.591,ed:40:fe:65:30:6c, 2015-01-01 01:09:17.130, 0.987, 0.019, -0.167, 0.488, 0.244, 0, 175.287, -80.222, 40.545, -28.187, -16.380, 16.347, 28.99, 0.19351, -0.72595, -0.23962, -0.61484,
 13:23:15.592,f6:90:cc:01:6d:25, 2015-01-01 01:09:16.725, 0.702, 0.038, -0.696, 0.061, 0, 0, 176.863, -45.214, -17.32, -25.147, -13.013, 18.553, 30.86, 0.08301, 0.91058, -0.14948, 0.37619,
 13:23:15.592,f6:90:cc:01:6d:25, 2015-01-01 01:09:16.725, 0.703, 0.039, -0.693, 0.244, -0.427, 0, 176.869, -45.203, -17.32, -25.147, -13.013, 18.553, 30.86, 0.08301, 0.91058, -0.14948, 0.37619,
 13:23:15.634,e3:ca:2d:fd:e0:8c, 2015-01-01 01:09:18.215, 0.996, -0.033, -0.219, 0.549, 0, 0.305, -171.052, -77.377, -23.813, -26.293, -12.267, 1.713, 28.97, 0.06931, 0.77121, -0.11285, 0.62256,
 13:23:15.634,e3:ca:2d:fd:e0:8c, 2015-01-01 01:09:18.215, 0.993, -0.034, -0.217, 0.488, -0.305, 0.244, -171.024, -77.371, -23.835, -26.293, -12.267, 1.713, 28.97, 0.06931, 0.77121, -0.11285, 0.62256,
 13:23:15.637,ed:35:33:d3:6c:f8, 2015-01-01 01:09:17.250, 0.918, -0.062, 0.363, 0.488, 0, 0.427, -10.58, -68.439, 165.806, -23.873, -12.947, -16.620, 28.34, 0.15329, 0.5462, -0.1449, 0.81058,
 13:23:15.637,ed:35:33:d3:6c:f8, 2015-01-01 01:09:17.250, 0.918, -0.065, 0.367, 0.244, 0, 0.671, -10.591, -68.439, 165.844, -23.873, -12.947, -16.620, 28.34, 0.15329, 0.5462, -0.1449, 0.81058,
 13:23:15.638,f6:90:cc:01:6d:25, 2015-01-01 01:09:16.725, 0.703, 0.037, -0.693, 0.244, -0.488, 0, 176.874, -45.192, -17.325, -25.147, -13.013, 18.553, 30.86, 0.08301, 0.91058, -0.14948, 0.37619,
 13:23:15.638,f6:90:cc:01:6d:25, 2015-01-01 01:09:16.725, 0.702, 0.035, -0.693, 0, -0.793, 0, 176.874, -45.176, -17.325, -25.147, -13.013, 18.553, 30.86, 0.08301, 0.91058, -0.14948, 0.37619,
 13:23:15.657,ed:40:fe:65:30:6c, 2015-01-01 01:09:17.130, 0.987, 0.016, -0.163, 0.427, 0.061, 0, 175.281, -80.222, 40.551, -28.013, -16.013, 16.120, 28.99, 0.19351, -0.72595, -0.23962, -0.61484,
 13:23:15.657,ed:40:fe:65:30:6c, 2015-01-01 01:09:17.130, 0.986, 0.011, -0.163, 0.305, -0.061, 0, 175.281, -80.222, 40.556, -28.013, -16.013, 16.120, 28.99, 0.19351, -0.72595, -0.23962, -0.61484,
 13:23:15.657,e3:ca:2d:fd:e0:8c, 2015-01-01 01:09:18.215, 0.993, -0.034, -0.219, 0.244, -0.793, 0.122, -171.013, -77.36, -23.84, -26.293, -12.267, 1.713, 28.97, 0.06931, 0.77121, -0.11285, 0.62256,
 13:23:15.657,e3:ca:2d:fd:e0:8c, 2015-01-01 01:09:18.215, 0.993, -0.033, -0.221, -0.061, -0.793, 0.061, -171.013, -77.344, -23.835, -26.293, -12.267, 1.713, 28.97, 0.06931, 0.77121, -0.11285, 0.62256,
 13:23:15.659,ed:35:33:d3:6c:f8, 2015-01-01 01:09:17.605, 0.918, -0.069, 0.367, 0.122, -0.305, 0.854, -10.618, -68.434, 165.91, -23.873, -12.947, -16.620, 28.34, 0.15329, 0.5462, -0.1449, 0.81058,
 13:23:15.659,ed:35:33:d3:6c:f8, 2015-01-01 01:09:17.605, 0.92, -0.068, 0.364, 0, -0.305, 0.732, -10.657, -68.439, 165.992, -23.873, -12.947, -16.620, 28.34, 0.15329, 0.5462, -0.1449, 0.81058,
 13:23:15.681,ed:35:33:d3:6c:f8, 2015-01-01 01:09:17.605, 0.923, -0.065, 0.362, 0.061, -0.305, 0.61, -10.69, -68.439, 166.053, -23.873, -12.947, -16.620, 28.34, 0.15329, 0.5462, -0.1449, 0.81058,
 13:23:15.681,ed:35:33:d3:6c:f8, 2015-01-01 01:09:17.605, 0.926, -0.065, 0.359, 0.061, -0.305, 0.488, -10.712, -68.439, 166.091, -23.873, -12.947, -16.620, 28.34, 0.15329, 0.5462, -0.1449, 0.81058,
 13:23:15.681,ed:40:fe:65:30:6c, 2015-01-01 01:09:17.130, 0.987, 0.013, -0.165, 0.305, -0.122, 0, 175.281, -80.217, 40.562, -28.013, -16.013, 16.120, 28.99, 0.1936, -0.72592, -0.24002, -0.61469,
 13:23:15.681,ed:40:fe:65:30:6c, 2015-01-01 01:09:17.130, 0.988, 0.018, -0.166, 0.122, -0.183, 0, 175.276, -80.217, 40.567, -28.013, -16.013, 16.120, 28.99, 0.1936, -0.72592, -0.24002, -0.61469,
 13:23:15.683,f6:90:cc:01:6d:25, 2015-01-01 01:09:16.725, 0.701, 0.037, -0.691, 0.122, -1.038, 0, 176.88, -45.159, -17.325, -25.147, -13.013, 18.553, 30.86, 0.08301, 0.91058, -0.14948, 0.37619,
 13:23:15.683,f6:90:cc:01:6d:25, 2015-01-01 01:09:16.725, 0.701, 0.039, -0.691, 0.183, -0.854, 0, 176.885, -45.143, -17.331, -25.147, -13.013, 18.553, 30.86, 0.08301, 0.91058, -0.14948, 0.37619,
 13:23:15.702,e3:ca:2d:fd:e0:8c, 2015-01-01 01:09:18.215, 0.994, -0.034, -0.22, 0, -0.793, 0.061, -171.024, -77.327, -23.824, -26.293, -12.267, 1.713, 28.97, 0.06931, 0.77121, -0.11285, 0.62256,
 13:23:15.702,e3:ca:2d:fd:e0:8c, 2015-01-01 01:09:18.215, 0.994, -0.035, -0.22, 0.366, -0.916, 0, -171.035, -77.311, -23.813, -26.293, -12.267, 1.713, 28.97, 0.06931, 0.77121, -0.11285, 0.62256,
 13:23:15.725,ed:40:fe:65:30:6c, 2015-01-01 01:09:17.130, 0.989, 0.018, -0.168, -0.122, -0.061, 0, 175.265, -80.217, 40.573, -28.013, -16.013, 16.120, 28.99, 0.1936, -0.72592, -0.24002, -0.61469,
 13:23:15.725,ed:40:fe:65:30:6c, 2015-01-01 01:09:17.130, 0.99, 0.014, -0.175, 0, 0.061, 0, 175.254, -80.217, 40.578, -28.013, -16.013, 16.120, 28.99, 0.1936, -0.72592, -0.24002, -0.61469,
 13:23:15.727,ed:35:33:d3:6c:f8, 2015-01-01 01:09:17.605, 0.928, -0.067, 0.356, -0.061, 0, 0.488, -10.734, -68.439, 166.113, -23.873, -12.947, -16.620, 28.34, 0.15329, 0.5462, -0.1449, 0.81058,
 13:23:15.727,ed:35:33:d3:6c:f8, 2015-01-01 01:09:17.605, 0.928, -0.069, 0.354, 0, 0.122, 0.671, -10.756, -68.434, 166.119, -23.873, -12.947, -16.620, 28.34, 0.15329, 0.5462, -0.1449, 0.81058,
 13:23:15.728,f6:90:cc:01:6d:25, 2015-01-01 01:09:16.725, 0.701, 0.037, -0.694, 0.061, -0.732, 0, 176.891, -45.132, -17.331, -25.147, -13.013, 18.553, 30.86, 0.08301, 0.91058, -0.14948, 0.37619,
 13:23:15.728,f6:90:cc:01:6d:25, 2015-01-01 01:09:16.725, 0.699, 0.035, -0.695, 0, -0.61, 0, 176.891, -45.121, -17.331, -25.147, -13.013, 18.553, 30.86, 0.08301, 0.91058, -0.14948, 0.37619,
 13:23:15.748,ed:40:fe:65:30:6c, 2015-01-01 01:09:17.465, 0.99, 0.015, -0.177, 0.122, 0.183, 0, 175.248, -80.217, 40.583, -28.013, -16.013, 16.120, 28.99, 0.1936, -0.72592, -0.24002, -0.61469,
 13:23:15.748,ed:40:fe:65:30:6c, 2015-01-01 01:09:17.465, 0.989, 0.015, -0.177, 0.122, 0.183, 0, 175.243, -80.222, 40.594, -28.013, -16.013, 16.120, 28.99, 0.1936, -0.72592, -0.24002, -0.61469,
 13:23:15.750,f6:90:cc:01:6d:25, 2015-01-01 01:09:16.725, 0.698, 0.035, -0.698, 0.183, -0.427, 0, 176.896, -45.11, -17.331, -24.913, -13.393, 18.473, 30.86, 0.08301, 0.91058, -0.14948, 0.37619,
 13:23:15.750,f6:90:cc:01:6d:25, 2015-01-01 01:09:16.725, 0.698, 0.035, -0.701, 0.183, -0.183, 0, 176.902, -45.11, -17.331, -24.913, -13.393, 18.473, 30.86, 0.08301, 0.91058, -0.14948, 0.37619,
 13:23:15.769,e3:ca:2d:fd:e0:8c, 2015-01-01 01:09:18.215, 0.995, -0.036, -0.223, 0.366, -1.099, 0, -171.041, -77.294, -23.796, -26.293, -12.267, 1.713, 28.97, 0.06931, 0.77121, -0.11285, 0.62256,
 13:23:15.769,e3:ca:2d:fd:e0:8c, 2015-01-01 01:09:18.215, 0.995, -0.036, -0.226, 0.305, -0.977, 0, -171.052, -77.272, -23.774, -26.293, -12.267, 1.713, 28.97, 0.06931, 0.77121, -0.11285, 0.62256,
 13:23:15.772,ed:35:33:d3:6c:f8, 2015-01-01 01:09:17.605, 0.929, -0.07, 0.354, 0.366, 0, 0.61, -10.783, -68.434, 166.135, -23.873, -12.947, -16.620, 28.34, 0.15329, 0.5462, -0.1449, 0.81058,
 13:23:15.772,ed:35:33:d3:6c:f8, 2015-01-01 01:09:17.605, 0.928, -0.07, 0.353, 0.549, -0.183, 0.427, -10.8, -68.434, 166.163, -23.873, -12.947, -16.620, 28.34, 0.15329, 0.5462, -0.1449, 0.81058,
 13:23:15.791,e3:ca:2d:fd:e0:8c, 2015-01-01 01:09:18.215, 0.996, -0.034, -0.227, 0.244, -0.793, 0, -171.057, -77.256, -23.763, -26.220, -11.893, 2.093, 28.97, 0.06931, 0.77121, -0.11285, 0.62256,
 13:23:15.791,e3:ca:2d:fd:e0:8c, 2015-01-01 01:09:18.215, 0.996, -0.034, -0.227, 0.305, -0.549, 0.061, -171.063, -77.239, -23.752, -26.220, -11.893, 2.093, 28.97, 0.06931, 0.77121, -0.11285, 0.62256,
 13:23:15.792,ed:40:fe:65:30:6c, 2015-01-01 01:09:17.465, 0.989, 0.016, -0.177, 0.183, 0.244, 0, 175.237, -80.222, 40.6, -28.013, -16.013, 16.120, 28.99, 0.1936, -0.72592, -0.24002, -0.61469,
 13:23:15.792,ed:40:fe:65:30:6c, 2015-01-01 01:09:17.465, 0.988, 0.017, -0.174, 0.183, 0.244, 0, 175.232, -80.228, 40.611, -28.013, -16.013, 16.120, 28.99, 0.1936, -0.72592, -0.24002, -0.61469,
 13:23:15.795,f6:90:cc:01:6d:25, 2015-01-01 01:09:16.725, 0.697, 0.037, -0.703, 0.244, -0.061, 0, 176.907, -45.11, -17.331, -24.913, -13.393, 18.473, 30.86, 0.08301, 0.91058, -0.14948, 0.37619,
 13:23:15.795,f6:90:cc:01:6d:25, 2015-01-01 01:09:16.725, 0.698, 0.037, -0.703, 0.366, -0.183, 0, 176.913, -45.104, -17.331, -24.913, -13.393, 18.473, 30.86, 0.08301, 0.91058, -0.14948, 0.37619,
 13:23:15.837,e3:ca:2d:fd:e0:8c, 2015-01-01 01:09:18.215, 0.995, -0.033, -0.228, 0.427, -0.366, 0.183, -171.052, -77.234, -23.752, -26.220, -11.893, 2.093, 28.97, 0.06931, 0.77121, -0.11285, 0.62256,
 13:23:15.837,e3:ca:2d:fd:e0:8c, 2015-01-01 01:09:18.215, 0.993, -0.033, -0.227, 0.61, -0.305, 0.244, -171.03, -77.223, -23.769, -26.220, -11.893, 2.093, 28.97, 0.06931, 0.77121, -0.11285, 0.62256,
 13:23:15.839,ed:40:fe:65:30:6c, 2015-01-01 01:09:17.465, 0.989, 0.017, -0.174, 0, 0.183, 0, 175.232, -80.228, 40.616, -28.013, -16.013, 16.120, 28.99, 0.1936, -0.72592, -0.24002, -0.61469,
 13:23:15.839,ed:40:fe:65:30:6c, 2015-01-01 01:09:17.465, 0.987, 0.017, -0.171, -0.061, 0.183, 0, 175.221, -80.228, 40.627, -28.013, -16.013, 16.120, 28.99, 0.1936, -0.72592, -0.24002, -0.61469,
 13:23:15.839,ed:35:33:d3:6c:f8, 2015-01-01 01:09:17.605, 0.926, -0.068, 0.353, 0.488, -0.122, 0.366, -10.811, -68.434, 166.19, -23.873, -12.947, -16.620, 28.34, 0.15329, 0.5462, -0.1449, 0.81058,
 13:23:15.839,ed:35:33:d3:6c:f8, 2015-01-01 01:09:17.605, 0.925, -0.068, 0.356, 0.671, -0.122, 0.122, -10.811, -68.439, 166.207, -23.873, -12.947, -16.620, 28.34, 0.15329, 0.5462, -0.1449, 0.81058,
 13:23:15.841,f6:90:cc:01:6d:25, 2015-01-01 01:09:16.725, 0.698, 0.037, -0.702, 0.427, -0.183, 0, 176.924, -45.099, -17.331, -24.913, -13.393, 18.473, 30.86, 0.08237, 0.91104, -0.14932, 0.37524,
 13:23:15.841,f6:90:cc:01:6d:25, 2015-01-01 01:09:16.725, 0.7, 0.038, -0.699, 0.305, -0.122, 0, 176.929, -45.093, -17.336, -24.913, -13.393, 18.473, 30.86, 0.08237, 0.91104, -0.14932, 0.37524,
 13:23:15.860,e3:ca:2d:fd:e0:8c, 2015-01-01 01:09:18.215, 0.994, -0.033, -0.225, 0.488, -0.305, 0.183, -171.008, -77.217, -23.78, -26.220, -11.893, 2.093, 28.97, 0.0683, 0.77231, -0.11264, 0.62134,
 13:23:15.860,e3:ca:2d:fd:e0:8c, 2015-01-01 01:09:18.215, 0.994, -0.034, -0.222, 0.305, -0.244, 0, -171.008, -77.212, -23.774, -26.220, -11.893, 2.093, 28.97, 0.0683, 0.77231, -0.11264, 0.62134,
 13:23:15.861,ed:35:33:d3:6c:f8, 2015-01-01 01:09:17.605, 0.924, -0.066, 0.355, 0.61, -0.183, 0, -10.8, -68.445, 166.201, -23.533, -13.233, -16.587, 28.34, 0.15329, 0.5462, -0.1449, 0.81058,
 13:23:15.861,ed:35:33:d3:6c:f8, 2015-01-01 01:09:17.605, 0.921, -0.065, 0.36, 0.183, -0.061, -0.183, -10.789, -68.45, 166.185, -23.533, -13.233, -16.587, 28.34, 0.15329, 0.5462, -0.1449, 0.81058,
 13:23:15.883,ed:40:fe:65:30:6c, 2015-01-01 01:09:17.465, 0.987, 0.016, -0.168, -0.061, 0.122, 0, 175.21, -80.228, 40.633, -28.013, -16.013, 16.120, 28.99, 0.1936, -0.72592, -0.24002, -0.61469,
 13:23:15.883,ed:40:fe:65:30:6c, 2015-01-01 01:09:17.465, 0.988, 0.015, -0.167, 0, 0.122, 0, 175.199, -80.233, 40.638, -28.013, -16.013, 16.120, 28.99, 0.1936, -0.72592, -0.24002, -0.61469,
 13:23:15.885,f6:90:cc:01:6d:25, 2015-01-01 01:09:17.040, 0.7, 0.037, -0.696, 0.488, -0.183, -0.305, 176.935, -45.093, -17.331, -24.913, -13.393, 18.473, 30.86, 0.08237, 0.91104, -0.14932, 0.37524,
 13:23:15.885,f6:90:cc:01:6d:25, 2015-01-01 01:09:17.040, 0.7, 0.035, -0.693, 0.427, -0.244, -0.244, 176.94, -45.088, -17.325, -24.913, -13.393, 18.473, 30.86, 0.08237, 0.91104, -0.14932, 0.37524,
 13:23:15.906,ed:35:33:d3:6c:f8, 2015-01-01 01:09:17.605, 0.92, -0.068, 0.36, 0.122, -0.183, -0.244, -10.778, -68.45, 166.141, -23.533, -13.233, -16.587, 28.34, 0.15329, 0.5462, -0.1449, 0.81058,
 13:23:15.906,ed:35:33:d3:6c:f8, 2015-01-01 01:09:17.605, 0.921, -0.068, 0.361, 0.549, -0.061, -0.488, -10.75, -68.456, 166.091, -23.533, -13.233, -16.587, 28.34, 0.15329, 0.5462, -0.1449, 0.81058,
 13:23:15.927,e3:ca:2d:fd:e0:8c, 2015-01-01 01:09:18.215, 0.993, -0.035, -0.222, 0.183, -0.366, 0.061, -171.008, -77.201, -23.774, -26.220, -11.893, 2.093, 28.97, 0.0683, 0.77231, -0.11264, 0.62134,
 13:23:15.927,e3:ca:2d:fd:e0:8c, 2015-01-01 01:09:18.215, 0.994, -0.036, -0.221, 0.366, -0.61, 0.061, -171.002, -77.19, -23.769, -26.220, -11.893, 2.093, 28.97, 0.0683, 0.77231, -0.11264, 0.62134,
 13:23:15.927,ed:40:fe:65:30:6c, 2015-01-01 01:09:17.465, 0.987, 0.015, -0.166, -0.061, 0.061, 0, 175.193, -80.233, 40.644, -28.013, -16.013, 16.120, 28.99, 0.1936, -0.72592, -0.24002, -0.61469,
 13:23:15.927,ed:40:fe:65:30:6c, 2015-01-01 01:09:17.465, 0.988, 0.017, -0.167, -0.122, 0, 0, 175.182, -80.233, 40.649, -28.013, -16.013, 16.120, 28.99, 0.1936, -0.72592, -0.24002, -0.61469,
 13:23:15.929,ed:35:33:d3:6c:f8, 2015-01-01 01:09:17.605, 0.922, -0.066, 0.364, 0.488, 0, -0.488, -10.717, -68.461, 166.036, -23.533, -13.233, -16.587, 28.34, 0.1521, 0.54651, -0.14468, 0.81064,
 13:23:15.929,ed:35:33:d3:6c:f8, 2015-01-01 01:09:17.605, 0.922, -0.065, 0.362, 0.244, -0.244, -0.305, -10.69, -68.461, 165.987, -23.533, -13.233, -16.587, 28.34, 0.1521, 0.54651, -0.14468, 0.81064,
 13:23:15.931,f6:90:cc:01:6d:25, 2015-01-01 01:09:17.040, 0.7, 0.035, -0.696, 0.244, -0.244, -0.244, 176.946, -45.077, -17.32, -24.913, -13.393, 18.473, 30.86, 0.08237, 0.91104, -0.14932, 0.37524,
 13:23:15.931,f6:90:cc:01:6d:25, 2015-01-01 01:09:17.040, 0.7, 0.038, -0.695, 0.244, -0.305, -0.183, 176.946, -45.071, -17.314, -24.913, -13.393, 18.473, 30.86, 0.08237, 0.91104, -0.14932, 0.37524,
 13:23:15.949,e3:ca:2d:fd:e0:8c, 2015-01-01 01:09:18.570, 0.995, -0.034, -0.223, 0.366, -0.549, 0.183, -170.991, -77.179, -23.769, -26.220, -11.893, 2.093, 28.97, 0.0683, 0.77231, -0.11264, 0.62134,
 13:23:15.949,e3:ca:2d:fd:e0:8c, 2015-01-01 01:09:18.570, 0.995, -0.033, -0.223, 0.244, -0.549, 0.183, -170.98, -77.168, -23.774, -26.220, -11.893, 2.093, 28.97, 0.0683, 0.77231, -0.11264, 0.62134,
 13:23:15.950,ed:40:fe:65:30:6c, 2015-01-01 01:09:17.465, 0.988, 0.019, -0.167, -0.122, -0.061, 0, 175.177, -80.233, 40.655, -27.900, -16.107, 16.313, 28.99, 0.1936, -0.72592, -0.24002, -0.61469,
 13:23:15.950,ed:40:fe:65:30:6c, 2015-01-01 01:09:17.465, 0.988, 0.017, -0.169, -0.183, -0.122, 0, 175.166, -80.228, 40.66, -27.900, -16.107, 16.313, 28.99, 0.1936, -0.72592, -0.24002, -0.61469,
 13:23:15.952,f6:90:cc:01:6d:25, 2015-01-01 01:09:17.040, 0.7, 0.038, -0.696, 0.183, -0.305, -0.122, 176.946, -45.066, -17.309, -24.913, -13.393, 18.473, 30.86, 0.08237, 0.91104, -0.14932, 0.37524,
 13:23:15.952,f6:90:cc:01:6d:25, 2015-01-01 01:09:17.040, 0.7, 0.037, -0.696, 0.061, -0.488, -0.061, 176.951, -45.06, -17.303, -24.913, -13.393, 18.473, 30.86, 0.08237, 0.91104, -0.14932, 0.37524,
 13:23:15.996,ed:40:fe:65:30:6c, 2015-01-01 01:09:17.465, 0.988, 0.016, -0.17, -0.122, -0.061, 0, 175.15, -80.228, 40.666, -27.900, -16.107, 16.313, 28.99, 0.1936, -0.72592, -0.24002, -0.61469,
 13:23:15.996,ed:40:fe:65:30:6c, 2015-01-01 01:09:17.465, 0.988, 0.016, -0.171, -0.061, 0, 0, 175.144, -80.228, 40.671, -27.900, -16.107, 16.313, 28.99, 0.1936, -0.72592, -0.24002, -0.61469,
 13:23:15.996,e3:ca:2d:fd:e0:8c, 2015-01-01 01:09:18.570, 0.993, -0.035, -0.224, 0.183, -0.549, 0.122, -170.975, -77.157, -23.78, -26.220, -11.893, 2.093, 28.97, 0.0683, 0.77231, -0.11264, 0.62134,
 13:23:15.996,e3:ca:2d:fd:e0:8c, 2015-01-01 01:09:18.570, 0.991, -0.035, -0.224, 0.244, -0.488, 0, -170.98, -77.146, -23.774, -26.220, -11.893, 2.093, 28.97, 0.0683, 0.77231, -0.11264, 0.62134,
 13:23:15.996,ed:35:33:d3:6c:f8, 2015-01-01 01:09:17.605, 0.923, -0.064, 0.362, 0.488, -0.549, -0.366, -10.668, -68.472, 165.954, -23.533, -13.233, -16.587, 28.34, 0.1521, 0.54651, -0.14468, 0.81064,
 13:23:15.996,ed:35:33:d3:6c:f8, 2015-01-01 01:09:17.605, 0.924, -0.063, 0.36, 0.183, -0.671, -0.305, -10.646, -68.483, 165.91, -23.533, -13.233, -16.587, 28.34, 0.1521, 0.54651, -0.14468, 0.81064,
 13:23:15.999,f6:90:cc:01:6d:25, 2015-01-01 01:09:17.040, 0.699, 0.037, -0.696, 0, -0.488, -0.122, 176.951, -45.049, -17.303, -24.913, -13.393, 18.473, 30.86, 0.08237, 0.91104, -0.14932, 0.37524,
 13:23:15.999,f6:90:cc:01:6d:25, 2015-01-01 01:09:17.040, 0.698, 0.037, -0.696, 0, -0.244, -0.122, 176.946, -45.044, -17.303, -24.913, -13.393, 18.473, 30.86, 0.08237, 0.91104, -0.14932, 0.37524,
 13:23:16.019,ed:35:33:d3:6c:f8, 2015-01-01 01:09:17.940, 0.926, -0.065, 0.357, 0, -0.61, -0.305, -10.635, -68.494, 165.883, -23.533, -13.233, -16.587, 28.34, 0.1521, 0.54651, -0.14468, 0.81064,
 13:23:16.019,ed:35:33:d3:6c:f8, 2015-01-01 01:09:17.940, 0.925, -0.065, 0.355, 0, -0.549, -0.183, -10.624, -68.505, 165.855, -23.533, -13.233, -16.587, 28.34, 0.1521, 0.54651, -0.14468, 0.81064,
 13:23:16.039,e3:ca:2d:fd:e0:8c, 2015-01-01 01:09:18.570, 0.992, -0.035, -0.223, 0.244, -0.549, 0.061, -170.98, -77.141, -23.769, -26.220, -11.893, 2.093, 28.97, 0.0683, 0.77231, -0.11264, 0.62134,
 13:23:16.039,e3:ca:2d:fd:e0:8c, 2015-01-01 01:09:18.570, 0.994, -0.036, -0.225, 0.122, -0.671, 0.061, -170.986, -77.124, -23.758, -26.220, -11.893, 2.093, 28.97, 0.0683, 0.77231, -0.11264, 0.62134,
 13:23:16.041,ed:35:33:d3:6c:f8, 2015-01-01 01:09:17.940, 0.927, -0.065, 0.355, 0, -0.427, 0, -10.618, -68.516, 165.844, -23.533, -13.233, -16.587, 28.34, 0.1521, 0.54651, -0.14468, 0.81064,
 13:23:16.041,ed:35:33:d3:6c:f8, 2015-01-01 01:09:17.940, 0.926, -0.067, 0.354, 0, -0.244, 0, -10.618, -68.522, 165.861, -23.533, -13.233, -16.587, 28.34, 0.1521, 0.54651, -0.14468, 0.81064,
 13:23:16.043,f6:90:cc:01:6d:25, 2015-01-01 01:09:17.040, 0.698, 0.036, -0.698, 0, 0, -0.061, 176.946, -45.038, -17.298, -24.913, -13.393, 18.473, 30.86, 0.08237, 0.91104, -0.14932, 0.37524,
 13:23:16.043,f6:90:cc:01:6d:25, 2015-01-01 01:09:17.040, 0.698, 0.035, -0.699, -0.122, 0, 0, 176.946, -45.038, -17.298, -24.913, -13.393, 18.473, 30.86, 0.08237, 0.91104, -0.14932, 0.37524,
 13:23:16.062,e3:ca:2d:fd:e0:8c, 2015-01-01 01:09:18.570, 0.994, -0.036, -0.227, 0, -0.671, 0, -170.991, -77.113, -23.752, -26.220, -11.893, 2.093, 28.97, 0.0683, 0.77231, -0.11264, 0.62134,
 13:23:16.062,e3:ca:2d:fd:e0:8c, 2015-01-01 01:09:18.570, 0.994, -0.037, -0.228, 0, -0.671, 0, -171.002, -77.097, -23.736, -26.220, -11.893, 2.093, 28.97, 0.0683, 0.77231, -0.11264, 0.62134,
 13:23:16.063,ed:40:fe:65:30:6c, 2015-01-01 01:09:17.465, 0.989, 0.017, -0.171, -0.061, 0, 0, 175.133, -80.228, 40.677, -27.900, -16.107, 16.313, 28.99, 0.19333, -0.72589, -0.23993, -0.61484,
 13:23:16.063,ed:40:fe:65:30:6c, 2015-01-01 01:09:17.465, 0.989, 0.016, -0.173, -0.122, 0.122, 0, 175.122, -80.228, 40.682, -27.900, -16.107, 16.313, 28.99, 0.19333, -0.72589, -0.23993, -0.61484,
 13:23:16.086,ed:35:33:d3:6c:f8, 2015-01-01 01:09:17.940, 0.925, -0.064, 0.355, 0.244, -0.061, 0.061, -10.618, -68.522, 165.872, -23.533, -13.233, -16.587, 28.34, 0.1521, 0.54651, -0.14468, 0.81064,
 13:23:16.086,ed:35:33:d3:6c:f8, 2015-01-01 01:09:17.940, 0.923, -0.066, 0.356, 0.122, 0, 0.183, -10.618, -68.527, 165.883, -23.533, -13.233, -16.587, 28.34, 0.1521, 0.54651, -0.14468, 0.81064,
 13:23:16.086,ed:40:fe:65:30:6c, 2015-01-01 01:09:17.800, 0.989, 0.015, -0.172, 0.061, 0.122, 0, 175.111, -80.228, 40.688, -27.900, -16.107, 16.313, 28.99, 0.19333, -0.72589, -0.23993, -0.61484,
 13:23:16.086,ed:40:fe:65:30:6c, 2015-01-01 01:09:17.800, 0.988, 0.016, -0.172, 0.305, 0.244, 0, 175.106, -80.233, 40.693, -27.900, -16.107, 16.313, 28.99, 0.19333, -0.72589, -0.23993, -0.61484,
 13:23:16.088,f6:90:cc:01:6d:25, 2015-01-01 01:09:17.040, 0.697, 0.034, -0.701, 0, 0, 0, 176.94, -45.038, -17.298, -24.780, -12.967, 19.040, 30.86, 0.08237, 0.91104, -0.14932, 0.37524,
 13:23:16.088,f6:90:cc:01:6d:25, 2015-01-01 01:09:17.040, 0.697, 0.036, -0.7, 0.183, 0.061, 0, 176.946, -45.038, -17.298, -24.780, -12.967, 19.040, 30.86, 0.08237, 0.91104, -0.14932, 0.37524,
 13:23:16.108,ed:40:fe:65:30:6c, 2015-01-01 01:09:17.800, 0.988, 0.017, -0.171, 0.244, 0.122, 0, 175.106, -80.233, 40.699, -27.900, -16.107, 16.313, 28.99, 0.19333, -0.72589, -0.23993, -0.61484,
 13:23:16.108,ed:40:fe:65:30:6c, 2015-01-01 01:09:17.800, 0.989, 0.015, -0.169, 0.122, 0.061, 0, 175.1, -80.233, 40.704, -27.900, -16.107, 16.313, 28.99, 0.19333, -0.72589, -0.23993, -0.61484,
 13:23:16.111,f6:90:cc:01:6d:25, 2015-01-01 01:09:17.040, 0.699, 0.037, -0.7, 0.366, 0.061, 0, 176.951, -45.038, -17.298, -24.780, -12.967, 19.040, 30.86, 0.08185, 0.91132, -0.14893, 0.37482,
 13:23:16.111,f6:90:cc:01:6d:25, 2015-01-01 01:09:17.040, 0.698, 0.036, -0.698, 0.366, 0, -0.061, 176.957, -45.038, -17.298, -24.780, -12.967, 19.040, 30.86, 0.08185, 0.91132, -0.14893, 0.37482,
 13:23:16.130,e3:ca:2d:fd:e0:8c, 2015-01-01 01:09:18.570, 0.994, -0.036, -0.229, 0.305, -0.61, 0.122, -170.997, -77.086, -23.736, -26.220, -11.893, 2.093, 28.97, 0.0683, 0.77231, -0.11264, 0.62134,
 13:23:16.130,e3:ca:2d:fd:e0:8c, 2015-01-01 01:09:18.570, 0.993, -0.036, -0.229, 0.61, -0.366, 0.183, -170.98, -77.075, -23.741, -26.220, -11.893, 2.093, 28.97, 0.0683, 0.77231, -0.11264, 0.62134,
 13:23:16.131,ed:35:33:d3:6c:f8, 2015-01-01 01:09:17.940, 0.923, -0.067, 0.358, 0.122, -0.061, 0.122, -10.624, -68.527, 165.899, -23.533, -13.233, -16.587, 28.34, 0.1521, 0.54651, -0.14468, 0.81064,
 13:23:16.131,ed:35:33:d3:6c:f8, 2015-01-01 01:09:17.940, 0.925, -0.065, 0.359, -0.183, 0, 0.183, -10.629, -68.527, 165.916, -23.533, -13.233, -16.587, 28.34, 0.1521, 0.54651, -0.14468, 0.81064,
 13:23:16.152,e3:ca:2d:fd:e0:8c, 2015-01-01 01:09:18.570, 0.993, -0.035, -0.228, 0.488, -0.305, 0, -170.975, -77.069, -23.741, -26.280, -12.060, 2.173, 28.97, 0.0683, 0.77231, -0.11264, 0.62134,
 13:23:16.152,e3:ca:2d:fd:e0:8c, 2015-01-01 01:09:18.570, 0.993, -0.035, -0.227, 0.305, -0.305, 0, -170.969, -77.064, -23.73, -26.280, -12.060, 2.173, 28.97, 0.0683, 0.77231, -0.11264, 0.62134,
 13:23:16.153,ed:40:fe:65:30:6c, 2015-01-01 01:09:17.800, 0.988, 0.017, -0.17, 0.183, 0, 0, 175.095, -80.233, 40.71, -27.900, -16.107, 16.313, 28.99, 0.19333, -0.72589, -0.23993, -0.61484,
 13:23:16.153,ed:40:fe:65:30:6c, 2015-01-01 01:09:17.800, 0.987, 0.019, -0.17, 0.244, 0, 0, 175.095, -80.233, 40.715, -27.900, -16.107, 16.313, 28.99, 0.19333, -0.72589, -0.23993, -0.61484,
 13:23:16.155,f6:90:cc:01:6d:25, 2015-01-01 01:09:17.040, 0.698, 0.037, -0.698, 0.244, 0.061, -0.061, 176.962, -45.038, -17.298, -24.780, -12.967, 19.040, 30.86, 0.08185, 0.91132, -0.14893, 0.37482,
 13:23:16.155,f6:90:cc:01:6d:25, 2015-01-01 01:09:17.040, 0.698, 0.037, -0.698, 0.305, 0.061, -0.061, 176.968, -45.038, -17.298, -24.780, -12.967, 19.040, 30.86, 0.08185, 0.91132, -0.14893, 0.37482,
 13:23:16.197,e3:ca:2d:fd:e0:8c, 2015-01-01 01:09:18.570, 0.993, -0.035, -0.228, 0.244, -0.305, 0, -170.975, -77.053, -23.725, -26.280, -12.060, 2.173, 28.97, 0.0683, 0.77231, -0.11264, 0.62134,
 13:23:16.197,e3:ca:2d:fd:e0:8c, 2015-01-01 01:09:18.570, 0.993, -0.035, -0.228, 0.427, -0.061, 0, -170.969, -77.053, -23.725, -26.280, -12.060, 2.173, 28.97, 0.0683, 0.77231, -0.11264, 0.62134,
 13:23:16.197,ed:40:fe:65:30:6c, 2015-01-01 01:09:17.800, 0.988, 0.017, -0.168, 0.244, 0, 0, 175.089, -80.233, 40.721, -27.900, -16.107, 16.313, 28.99, 0.19333, -0.72589, -0.23993, -0.61484,
 13:23:16.197,ed:40:fe:65:30:6c, 2015-01-01 01:09:17.800, 0.988, 0.015, -0.169, 0.183, 0, 0, 175.084, -80.233, 40.726, -27.900, -16.107, 16.313, 28.99, 0.19333, -0.72589, -0.23993, -0.61484,
 13:23:16.199,ed:35:33:d3:6c:f8, 2015-01-01 01:09:17.940, 0.925, -0.064, 0.357, -0.549, 0.061, 0.183, -10.646, -68.527, 165.938, -23.533, -13.233, -16.587, 28.34, 0.1521, 0.54651, -0.14468, 0.81064,
 13:23:16.199,ed:35:33:d3:6c:f8, 2015-01-01 01:09:17.940, 0.922, -0.065, 0.356, -0.244, 0, 0.122, -10.657, -68.522, 165.932, -23.533, -13.233, -16.587, 28.34, 0.1521, 0.54651, -0.14468, 0.81064,
 13:23:16.201,f6:90:cc:01:6d:25, 2015-01-01 01:09:17.330, 0.699, 0.037, -0.698, 0.427, 0.061, 0, 176.973, -45.038, -17.292, -24.780, -12.967, 19.040, 30.86, 0.08185, 0.91132, -0.14893, 0.37482,
 13:23:16.201,f6:90:cc:01:6d:25, 2015-01-01 01:09:17.330, 0.699, 0.038, -0.696, 0.244, 0, -0.061, 176.984, -45.038, -17.292, -24.780, -12.967, 19.040, 30.86, 0.08185, 0.91132, -0.14893, 0.37482,
 13:23:16.219,e3:ca:2d:fd:e0:8c, 2015-01-01 01:09:18.570, 0.99, -0.034, -0.226, 0.488, 0, 0, -170.964, -77.053, -23.719, -26.280, -12.060, 2.173, 28.97, 0.06738, 0.77325, -0.11234, 0.6203,
 13:23:16.219,e3:ca:2d:fd:e0:8c, 2015-01-01 01:09:18.570, 0.993, -0.034, -0.224, 0.244, -0.244, 0, -170.964, -77.047, -23.714, -26.280, -12.060, 2.173, 28.97, 0.06738, 0.77325, -0.11234, 0.6203,
 13:23:16.221,ed:35:33:d3:6c:f8, 2015-01-01 01:09:17.940, 0.923, -0.067, 0.359, 0.366, 0, 0.061, -10.657, -68.522, 165.921, -23.360, -12.720, -16.153, 28.34, 0.1521, 0.54651, -0.14468, 0.81064,
 13:23:16.221,ed:35:33:d3:6c:f8, 2015-01-01 01:09:17.940, 0.924, -0.066, 0.357, 0.061, 0, -0.061, -10.651, -68.522, 165.905, -23.360, -12.720, -16.153, 28.34, 0.1521, 0.54651, -0.14468, 0.81064,
 13:23:16.246,f6:90:cc:01:6d:25, 2015-01-01 01:09:17.330, 0.699, 0.038, -0.696, 0, 0.305, -0.122, 176.984, -45.038, -17.292, -24.780, -12.967, 19.040, 30.86, 0.08185, 0.91132, -0.14893, 0.37482,
 13:23:16.246,f6:90:cc:01:6d:25, 2015-01-01 01:09:17.330, 0.7, 0.038, -0.697, 0, 0.549, -0.122, 176.979, -45.049, -17.287, -24.780, -12.967, 19.040, 30.86, 0.08185, 0.91132, -0.14893, 0.37482,
