Index,L5_Acceleration X(g),L5_Acceleration Y(g),L5_Acceleration Z(g),L5_Angular velocity X(°/s),L5_Angular velocity Y(°/s),L5_Angular velocity Z(°/s),L5_Angle X(°),L5_Angle Y(°),L5_Angle Z(°),L5_Magnetic field X(ʯt),L5_Magnetic field Y(ʯt),L5_Magnetic field Z(ʯt),L5_Temperature(℃),L5_Quaternions 0(),L5_Quaternions 1(),L5_Quaternions 2(),L5_Quaternions 3(),L5___orig_idx,T4_Acceleration X(g),T4_Acceleration Y(g),T4_Acceleration Z(g),T4_Angular velocity X(°/s),T4_Angular velocity Y(°/s),T4_Angular velocity Z(°/s),T4_Angle X(°),T4_Angle Y(°),T4_Angle Z(°),T4_Magnetic field X(ʯt),T4_Magnetic field Y(ʯt),T4_Magnetic field Z(ʯt),T4_Temperature(℃),T4_Quaternions 0(),T4_Quaternions 1(),T4_Quaternions 2(),T4_Quaternions 3(),T4___orig_idx,C7_Acceleration X(g),C7_Acceleration Y(g),C7_Acceleration Z(g),C7_Angular velocity X(°/s),C7_Angular velocity Y(°/s),C7_Angular velocity Z(°/s),C7_Angle X(°),C7_Angle Y(°),C7_Angle Z(°),C7_Magnetic field X(ʯt),C7_Magnetic field Y(ʯt),C7_Magnetic field Z(ʯt),C7_Temperature(℃),C7_Quaternions 0(),C7_Quaternions 1(),C7_Quaternions 2(),C7_Quaternions 3(),C7___orig_idx,T12_Acceleration X(g),T12_Acceleration Y(g),T12_Acceleration Z(g),T12_Angular velocity X(°/s),T12_Angular velocity Y(°/s),T12_Angular velocity Z(°/s),T12_Angle X(°),T12_Angle Y(°),T12_Angle Z(°),T12_Magnetic field X(ʯt),T12_Magnetic field Y(ʯt),T12_Magnetic field Z(ʯt),T12_Temperature(℃),T12_Quaternions 0(),T12_Quaternions 1(),T12_Quaternions 2(),T12_Quaternions 3(),T12___orig_idx
0,0.977,-0.154,0.249,-0.793,0.061,-0.061,-31.783,-73.658,-164.333,-27.387,-9.207,-10.427,27.58,-0.05707,-0.60269,0.13791,-0.78381,4,0.697,-0.073,0.713,0.183,-0.427,-0.244,-5.477,-44.912,-122.992,-21.927,-8.433,-3.433,25.42,0.42426,-0.35446,-0.14273,-0.82089,6,0.783,0.021,0.624,-1.343,-1.77,-0.183,2.807,-51.844,134.165,-18.56,-11.24,-27.107,29.68,0.34103,0.41135,-0.14313,0.83301,0,0.958,-0.137,0.166,0.0,-0.183,-0.122,-40.369,-77.86,-132.226,-30.907,-9.787,-3.567,30.03,0.09677,-0.64804,0.00684,-0.75534,2
1,0.972,-0.154,0.249,-0.488,-0.061,-0.061,-31.789,-73.658,-164.344,-27.387,-9.207,-10.427,27.58,-0.05707,-0.60269,0.13791,-0.78381,5,0.714,-0.074,0.713,0.0,-0.549,-0.427,-5.477,-44.923,-122.997,-21.927,-8.433,-3.433,25.42,0.42426,-0.35446,-0.14273,-0.82089,7,0.791,0.022,0.626,-2.136,-4.822,-0.549,2.785,-51.894,134.11,-18.56,-11.24,-27.107,29.68,0.34103,0.41135,-0.14313,0.83301,1,0.964,-0.137,0.165,0.0,-0.549,-0.244,-40.369,-77.866,-132.215,-30.907,-9.787,-3.567,30.03,0.09677,-0.64804,0.00684,-0.75534,3
2,0.988,-0.154,0.25,-0.488,-0.549,-0.122,-31.811,-73.669,-164.333,-27.087,-8.967,-10.26,27.58,-0.05707,-0.60269,0.13791,-0.78381,10,0.721,-0.068,0.702,0.061,0.0,-0.183,-5.471,-44.923,-123.008,-21.927,-8.433,-3.433,25.42,0.42429,-0.35648,-0.14328,-0.81992,12,0.785,0.041,0.595,-2.014,-2.747,1.099,2.752,-51.976,134.072,-18.56,-11.24,-27.107,29.68,0.34103,0.41135,-0.14313,0.83301,8,0.972,-0.139,0.156,0.244,-0.671,-0.244,-40.375,-77.871,-132.198,-30.907,-9.787,-3.567,30.03,0.09677,-0.64804,0.00684,-0.75534,14
3,0.981,-0.158,0.24,-0.305,-0.854,-0.183,-31.838,-73.68,-164.306,-27.087,-8.967,-10.26,27.58,-0.05707,-0.60269,0.13791,-0.78381,11,0.705,-0.07,0.698,0.244,0.061,0.0,-5.471,-44.923,-123.014,-21.927,-8.433,-3.433,25.42,0.42429,-0.35648,-0.14328,-0.81992,13,0.783,0.024,0.587,-0.732,1.77,0.427,2.697,-52.009,134.066,-18.56,-11.24,-27.107,29.68,0.34103,0.41135,-0.14313,0.83301,9,0.964,-0.139,0.152,0.427,-0.488,-0.122,-40.386,-77.882,-132.171,-30.907,-9.787,-3.567,30.03,0.09677,-0.64804,0.00684,-0.75534,15
4,0.979,-0.155,0.244,0.0,-0.732,-0.183,-31.866,-73.696,-164.284,-27.087,-8.967,-10.26,27.58,-0.05707,-0.60269,0.13791,-0.78381,22,0.713,-0.075,0.708,0.122,-0.244,0.0,-5.466,-44.923,-123.003,-21.927,-8.433,-3.433,25.42,0.42429,-0.35648,-0.14328,-0.81992,16,0.791,0.019,0.624,-0.977,-0.977,-1.282,2.681,-51.987,134.028,-18.56,-11.24,-27.107,29.68,0.34103,0.41135,-0.14313,0.83301,18,0.963,-0.139,0.157,0.0,-0.427,-0.183,-40.402,-77.888,-132.155,-30.907,-9.787,-3.567,30.03,0.09677,-0.64804,0.00684,-0.75534,20
5,0.985,-0.154,0.241,0.0,-0.671,-0.305,-31.882,-73.707,-164.273,-27.087,-8.967,-10.26,27.58,-0.05707,-0.60269,0.13791,-0.78381,23,0.718,-0.073,0.701,0.061,0.0,0.061,-5.471,-44.923,-122.992,-21.927,-8.433,-3.433,25.42,0.42429,-0.35648,-0.14328,-0.81992,17,0.791,0.032,0.597,-0.854,-0.793,0.061,2.686,-52.004,133.956,-18.56,-11.24,-27.107,29.68,0.34103,0.41135,-0.14313,0.83301,19,0.969,-0.137,0.153,0.0,-0.244,-0.305,-40.402,-77.893,-132.16,-30.907,-9.787,-3.567,30.03,0.09677,-0.64804,0.00684,-0.75534,21
6,0.982,-0.151,0.24,0.061,-0.549,-0.305,-31.893,-73.718,-164.273,-27.087,-8.967,-10.26,27.58,-0.05795,-0.60138,0.13882,-0.78461,28,0.712,-0.07,0.7,0.244,0.549,0.122,-5.477,-44.923,-122.981,-21.927,-8.433,-3.433,25.42,0.42429,-0.35648,-0.14328,-0.81992,24,0.785,0.029,0.591,-0.366,1.587,0.183,2.67,-52.009,133.94,-18.887,-11.093,-27.933,29.68,0.34103,0.41135,-0.14313,0.83301,30,0.967,-0.133,0.152,0.0,-0.061,-0.305,-40.391,-77.899,-132.16,-30.373,-9.707,-2.507,30.03,0.09677,-0.64804,0.00684,-0.75534,26
7,0.981,-0.15,0.241,0.122,-0.427,-0.305,-31.893,-73.729,-164.262,-27.087,-8.967,-10.26,27.58,-0.05795,-0.60138,0.13882,-0.78461,29,0.713,-0.065,0.703,0.305,0.793,0.122,-5.477,-44.912,-122.97,-21.927,-8.433,-3.433,25.42,0.42429,-0.35648,-0.14328,-0.81992,25,0.788,0.034,0.604,0.0,2.38,0.061,2.659,-51.976,133.923,-18.887,-11.093,-27.933,29.68,0.34103,0.41135,-0.14313,0.83301,31,0.965,-0.131,0.154,-0.061,-0.061,-0.305,-40.38,-77.899,-132.149,-30.373,-9.707,-2.507,30.03,0.09677,-0.64804,0.00684,-0.75534,27
8,0.987,-0.15,0.238,0.183,-0.305,-0.244,-31.893,-73.74,-164.251,-27.087,-8.967,-10.26,27.58,-0.05795,-0.60138,0.13882,-0.78461,36,0.718,-0.064,0.703,0.305,0.671,0.305,-5.471,-44.901,-122.959,-21.927,-8.433,-3.433,25.42,0.42429,-0.35648,-0.14328,-0.81992,32,0.788,0.036,0.606,0.061,3.113,0.061,2.659,-51.932,133.907,-18.887,-11.093,-27.933,29.68,0.34103,0.41135,-0.14313,0.83301,48,0.971,-0.131,0.151,0.0,0.061,-0.244,-40.364,-77.904,-132.16,-30.373,-9.707,-2.507,30.03,0.09677,-0.64804,0.00684,-0.75534,34
9,0.986,-0.15,0.238,0.183,-0.122,-0.061,-31.893,-73.746,-164.246,-27.087,-8.967,-10.26,27.58,-0.05795,-0.60138,0.13882,-0.78461,37,0.714,-0.065,0.702,0.244,0.549,0.305,-5.471,-44.89,-122.943,-21.927,-8.433,-3.433,25.42,0.42429,-0.35648,-0.14328,-0.81992,33,0.785,0.033,0.604,0.061,3.845,-0.061,2.659,-51.872,133.885,-18.887,-11.093,-27.933,29.68,0.34103,0.41135,-0.14313,0.83301,49,0.97,-0.13,0.151,0.244,0.0,-0.122,-40.358,-77.91,-132.171,-30.373,-9.707,-2.507,30.03,0.09677,-0.64804,0.00684,-0.75534,35
10,0.98,-0.148,0.242,0.122,0.061,0.0,-31.893,-73.746,-164.218,-27.087,-8.967,-10.26,27.58,-0.05795,-0.60138,0.13882,-0.78461,38,0.709,-0.065,0.707,0.183,0.305,0.305,-5.477,-44.885,-122.926,-21.927,-8.433,-3.433,25.42,0.42429,-0.35648,-0.14328,-0.81992,40,0.783,0.033,0.612,-0.244,2.808,-0.366,2.659,-51.806,133.857,-18.887,-11.093,-27.933,29.68,0.34265,0.41061,-0.15207,0.83112,50,0.965,-0.129,0.155,0.061,-0.061,0.0,-40.358,-77.91,-132.171,-30.373,-9.707,-2.507,30.03,0.09756,-0.64816,0.00604,-0.75513,42
11,0.98,-0.147,0.243,0.061,0.122,0.0,-31.888,-73.746,-164.207,-27.087,-8.967,-10.26,27.58,-0.05795,-0.60138,0.13882,-0.78461,39,0.71,-0.064,0.705,0.061,0.549,0.244,-5.477,-44.879,-122.915,-21.927,-8.433,-3.433,25.42,0.42429,-0.35648,-0.14328,-0.81992,41,0.782,0.035,0.61,-0.366,3.601,0.061,2.659,-51.751,133.819,-18.887,-11.093,-27.933,29.68,0.34265,0.41061,-0.15207,0.83112,51,0.965,-0.129,0.157,0.0,-0.061,0.0,-40.364,-77.915,-132.166,-30.373,-9.707,-2.507,30.03,0.09756,-0.64816,0.00604,-0.75513,43
12,0.983,-0.147,0.243,0.061,0.061,0.0,-31.882,-73.746,-164.185,-27.087,-8.967,-10.26,27.58,-0.05795,-0.60138,0.13882,-0.78461,44,0.713,-0.065,0.703,0.061,0.549,0.183,-5.482,-44.868,-122.893,-21.927,-8.433,-3.433,25.42,0.42429,-0.35648,-0.14328,-0.81992,46,0.78,0.032,0.607,-0.732,4.333,0.305,2.648,-51.685,133.786,-18.887,-11.093,-27.933,29.68,0.34265,0.41061,-0.15207,0.83112,56,0.967,-0.128,0.155,0.0,0.122,0.061,-40.364,-77.915,-132.166,-30.373,-9.707,-2.507,30.03,0.09756,-0.64816,0.00604,-0.75513,52
13,0.983,-0.148,0.241,-0.244,0.244,0.0,-31.877,-73.746,-164.191,-27.087,-8.967,-10.26,27.58,-0.05795,-0.60138,0.13882,-0.78461,45,0.71,-0.067,0.7,0.122,0.366,0.0,-5.477,-44.863,-122.871,-21.927,-8.433,-3.433,25.42,0.42429,-0.35648,-0.14328,-0.81992,47,0.781,0.027,0.611,-0.671,4.456,-0.244,2.626,-51.603,133.764,-18.887,-11.093,-27.933,29.68,0.34265,0.41061,-0.15207,0.83112,57,0.967,-0.129,0.154,0.0,0.244,0.183,-40.358,-77.91,-132.166,-30.373,-9.707,-2.507,30.03,0.09756,-0.64816,0.00604,-0.75513,53
14,0.979,-0.15,0.244,-0.305,0.366,0.122,-31.877,-73.74,-164.213,-27.087,-8.967,-10.26,27.58,-0.05795,-0.60138,0.13882,-0.78461,54,0.706,-0.069,0.705,0.122,0.183,-0.061,-5.477,-44.863,-122.855,-21.927,-8.433,-3.433,25.42,0.42429,-0.35648,-0.14328,-0.81992,58,0.775,0.026,0.619,-0.427,2.136,-0.732,2.626,-51.537,133.726,-18.887,-11.093,-27.933,29.68,0.34265,0.41061,-0.15207,0.83112,64,0.963,-0.132,0.157,0.183,0.305,0.183,-40.353,-77.904,-132.166,-30.373,-9.707,-2.507,30.03,0.09756,-0.64816,0.00604,-0.75513,60
15,0.976,-0.152,0.246,-0.122,0.427,0.122,-31.871,-73.735,-164.24,-27.087,-8.967,-10.26,27.58,-0.05795,-0.60138,0.13882,-0.78461,55,0.701,-0.07,0.707,0.183,0.305,-0.122,-5.471,-44.863,-122.849,-21.927,-8.433,-3.433,25.42,0.42429,-0.35648,-0.14328,-0.81992,59,0.777,0.024,0.617,-0.244,0.854,-1.038,2.642,-51.509,133.682,-18.887,-11.093,-27.933,29.68,0.34265,0.41061,-0.15207,0.83112,65,0.961,-0.135,0.159,0.061,0.549,0.122,-40.325,-77.899,-132.188,-30.373,-9.707,-2.507,30.03,0.09756,-0.64816,0.00604,-0.75513,61
16,0.979,-0.151,0.245,-0.061,0.366,0.0,-31.866,-73.729,-164.262,-27.087,-8.967,-10.26,27.58,-0.05795,-0.60138,0.13882,-0.78461,62,0.705,-0.067,0.712,0.427,0.244,-0.061,-5.466,-44.857,-122.849,-21.813,-8.187,-3.487,25.42,0.42429,-0.35648,-0.14328,-0.81992,66,0.78,0.031,0.629,0.0,-0.305,-1.282,2.67,-51.509,133.638,-18.887,-11.093,-27.933,29.68,0.34265,0.41061,-0.15207,0.83112,74,0.963,-0.134,0.161,0.0,0.427,0.061,-40.303,-77.893,-132.204,-30.373,-9.707,-2.507,30.03,0.09756,-0.64816,0.00604,-0.75513,68
17,0.983,-0.152,0.244,-0.061,0.122,0.061,-31.855,-73.724,-164.284,-27.087,-8.967,-10.26,27.58,-0.05795,-0.60138,0.13882,-0.78461,63,0.708,-0.067,0.714,0.61,0.183,0.122,-5.455,-44.857,-122.844,-21.813,-8.187,-3.487,25.42,0.42429,-0.35648,-0.14328,-0.81992,67,0.779,0.034,0.629,0.183,-0.671,-0.427,2.692,-51.52,133.605,-18.887,-11.093,-27.933,29.68,0.34265,0.41061,-0.15207,0.83112,75,0.967,-0.134,0.159,0.0,0.183,0.122,-40.292,-77.888,-132.209,-30.373,-9.707,-2.507,30.03,0.09756,-0.64816,0.00604,-0.75513,69
18,0.982,-0.154,0.246,0.0,0.0,0.122,-31.855,-73.718,-164.29,-27.087,-8.967,-10.26,27.58,-0.05795,-0.60138,0.13882,-0.78461,70,0.709,-0.069,0.713,0.671,0.244,0.366,-5.444,-44.852,-122.827,-21.813,-8.187,-3.487,25.42,0.42429,-0.35648,-0.14328,-0.81992,72,0.781,0.028,0.62,0.854,-0.427,-0.122,2.714,-51.531,133.605,-18.887,-11.093,-27.933,29.68,0.34265,0.41061,-0.15207,0.83112,78,0.967,-0.136,0.161,0.183,0.0,0.122,-40.298,-77.888,-132.204,-30.373,-9.707,-2.507,30.03,0.09756,-0.64816,0.00604,-0.75513,76
19,0.981,-0.153,0.245,0.061,-0.122,0.122,-31.86,-73.718,-164.279,-27.087,-8.967,-10.26,27.58,-0.05795,-0.60138,0.13882,-0.78461,71,0.71,-0.07,0.709,0.732,0.366,0.366,-5.438,-44.846,-122.805,-21.813,-8.187,-3.487,25.42,0.42429,-0.35648,-0.14328,-0.81992,73,0.779,0.025,0.613,1.343,0.366,-0.427,2.741,-51.537,133.621,-18.887,-11.093,-27.933,29.68,0.34265,0.41061,-0.15207,0.83112,79,0.966,-0.135,0.159,0.183,-0.122,0.183,-40.309,-77.888,-132.182,-30.373,-9.707,-2.507,30.03,0.09756,-0.64816,0.00604,-0.75513,77
20,0.979,-0.152,0.243,0.0,-0.183,0.122,-31.871,-73.718,-164.246,-27.087,-8.967,-10.26,27.58,-0.05795,-0.60138,0.13882,-0.78461,80,0.709,-0.071,0.705,0.854,0.366,0.244,-5.427,-44.841,-122.789,-21.813,-8.187,-3.487,25.42,0.42593,-0.35556,-0.1438,-0.81937,86,0.777,0.028,0.611,1.648,1.526,-0.671,2.785,-51.515,133.632,-18.887,-11.093,-27.933,29.68,0.34265,0.41061,-0.15207,0.83112,82,0.964,-0.135,0.156,0.244,-0.061,0.183,-40.32,-77.882,-132.166,-30.373,-9.707,-2.507,30.03,0.09756,-0.64816,0.00604,-0.75513,84
21,0.978,-0.153,0.243,-0.122,0.0,0.122,-31.888,-73.718,-164.229,-27.087,-8.967,-10.26,27.58,-0.05795,-0.60138,0.13882,-0.78461,81,0.706,-0.071,0.704,0.793,0.305,0.244,-5.416,-44.835,-122.778,-21.813,-8.187,-3.487,25.42,0.42593,-0.35556,-0.1438,-0.81937,87,0.776,0.03,0.612,1.648,1.831,-0.305,2.823,-51.487,133.638,-18.887,-11.093,-27.933,29.68,0.34265,0.41061,-0.15207,0.83112,83,0.962,-0.136,0.156,0.183,-0.061,0.122,-40.331,-77.882,-132.149,-30.373,-9.707,-2.507,30.03,0.09756,-0.64816,0.00604,-0.75513,85
22,0.979,-0.154,0.243,0.061,0.122,0.061,-31.893,-73.718,-164.202,-27.167,-9.1,-10.473,27.58,-0.05795,-0.60138,0.13882,-0.78461,88,0.705,-0.07,0.705,0.61,0.366,0.244,-5.411,-44.824,-122.756,-21.813,-8.187,-3.487,25.42,0.42593,-0.35556,-0.1438,-0.81937,92,0.774,0.029,0.615,1.465,1.77,0.0,2.856,-51.454,133.66,-18.887,-11.093,-27.933,29.68,0.34265,0.41061,-0.15207,0.83112,90,0.963,-0.137,0.157,0.122,0.0,0.061,-40.331,-77.882,-132.144,-30.56,-9.173,-3.2,30.03,0.09756,-0.64816,0.00604,-0.75513,94
23,0.98,-0.151,0.243,0.244,0.122,0.0,-31.893,-73.713,-164.163,-27.167,-9.1,-10.473,27.58,-0.05795,-0.60138,0.13882,-0.78461,89,0.706,-0.069,0.707,0.427,0.183,0.244,-5.405,-44.824,-122.728,-21.813,-8.187,-3.487,25.42,0.42593,-0.35556,-0.1438,-0.81937,93,0.774,0.029,0.621,1.038,0.916,0.244,2.878,-51.427,133.693,-18.887,-11.093,-27.933,29.68,0.34265,0.41061,-0.15207,0.83112,91,0.964,-0.133,0.157,0.122,0.0,0.0,-40.331,-77.882,-132.138,-30.56,-9.173,-3.2,30.03,0.09756,-0.64816,0.00604,-0.75513,95
24,0.982,-0.15,0.243,0.488,0.061,0.0,-31.882,-73.713,-164.152,-27.167,-9.1,-10.473,27.58,-0.05795,-0.60138,0.13882,-0.78461,96,0.709,-0.066,0.708,0.122,-0.061,0.305,-5.411,-44.819,-122.712,-21.813,-8.187,-3.487,25.42,0.42593,-0.35556,-0.1438,-0.81937,98,0.779,0.033,0.621,0.488,0.305,0.488,2.878,-51.416,133.731,-18.887,-11.093,-27.933,29.68,0.34265,0.41061,-0.15207,0.83112,100,0.966,-0.133,0.159,0.183,0.0,-0.061,-40.325,-77.882,-132.144,-30.56,-9.173,-3.2,30.03,0.09805,-0.64801,0.00574,-0.75519,102
25,0.984,-0.151,0.243,0.488,0.0,0.0,-31.877,-73.713,-164.147,-27.167,-9.1,-10.473,27.58,-0.05795,-0.60138,0.13882,-0.78461,97,0.71,-0.065,0.708,0.061,-0.305,0.305,-5.416,-44.824,-122.695,-21.813,-8.187,-3.487,25.42,0.42593,-0.35556,-0.1438,-0.81937,99,0.78,0.032,0.619,0.61,0.488,0.305,2.878,-51.411,133.764,-18.887,-11.093,-27.933,29.68,0.34265,0.41061,-0.15207,0.83112,101,0.968,-0.132,0.156,0.183,0.0,0.0,-40.32,-77.882,-132.144,-30.56,-9.173,-3.2,30.03,0.09805,-0.64801,0.00574,-0.75519,103
26,0.981,-0.152,0.243,0.183,0.0,0.0,-31.866,-73.713,-164.158,-27.167,-9.1,-10.473,27.58,-0.05704,-0.6015,0.13809,-0.7847,108,0.708,-0.069,0.708,0.244,-0.488,0.183,-5.422,-44.835,-122.684,-21.813,-8.187,-3.487,25.42,0.42593,-0.35556,-0.1438,-0.81937,104,0.781,0.031,0.623,0.916,0.061,0.122,2.889,-51.411,133.802,-18.887,-11.093,-27.933,29.68,0.34265,0.41061,-0.15207,0.83112,110,0.966,-0.134,0.156,0.061,-0.061,0.0,-40.325,-77.882,-132.138,-30.56,-9.173,-3.2,30.03,0.09805,-0.64801,0.00574,-0.75519,106
27,0.981,-0.152,0.241,0.061,0.0,0.061,-31.866,-73.707,-164.158,-27.167,-9.1,-10.473,27.58,-0.05704,-0.6015,0.13809,-0.7847,109,0.708,-0.068,0.711,0.122,-0.732,0.183,-5.422,-44.846,-122.684,-21.813,-8.187,-3.487,25.42,0.42593,-0.35556,-0.1438,-0.81937,105,0.779,0.031,0.626,0.671,-1.282,0.305,2.9,-51.422,133.852,-18.887,-11.093,-27.933,29.68,0.34265,0.41061,-0.15207,0.83112,111,0.966,-0.134,0.157,0.122,-0.183,0.0,-40.336,-77.888,-132.122,-30.56,-9.173,-3.2,30.03,0.09805,-0.64801,0.00574,-0.75519,107
28,0.979,-0.15,0.244,0.183,0.0,0.061,-31.871,-73.707,-164.147,-27.167,-9.1,-10.473,27.58,-0.05704,-0.6015,0.13809,-0.7847,118,0.708,-0.066,0.709,0.244,-0.916,0.183,-5.427,-44.863,-122.679,-21.813,-8.187,-3.487,25.42,0.42593,-0.35556,-0.1438,-0.81937,112,0.777,0.033,0.621,0.427,-2.136,0.0,2.906,-51.454,133.868,-18.587,-11.627,-26.367,29.68,0.34265,0.41061,-0.15207,0.83112,116,0.964,-0.133,0.159,0.244,-0.305,0.061,-40.353,-77.893,-132.1,-30.56,-9.173,-3.2,30.03,0.09805,-0.64801,0.00574,-0.75519,114
29,0.982,-0.151,0.245,0.244,-0.061,0.0,-31.871,-73.707,-164.136,-27.167,-9.1,-10.473,27.58,-0.05704,-0.6015,0.13809,-0.7847,119,0.714,-0.067,0.705,0.549,-0.732,0.305,-5.422,-44.879,-122.668,-21.813,-8.187,-3.487,25.42,0.42593,-0.35556,-0.1438,-0.81937,113,0.778,0.035,0.614,0.977,-1.77,-0.305,2.928,-51.493,133.874,-18.587,-11.627,-26.367,29.68,0.34265,0.41061,-0.15207,0.83112,117,0.967,-0.134,0.16,0.244,-0.366,0.0,-40.369,-77.899,-132.072,-30.56,-9.173,-3.2,30.03,0.09805,-0.64801,0.00574,-0.75519,115
30,0.981,-0.153,0.244,0.427,-0.061,0.0,-31.866,-73.713,-164.119,-27.167,-9.1,-10.473,27.58,-0.05704,-0.6015,0.13809,-0.7847,120,0.711,-0.07,0.699,1.099,-0.671,0.549,-5.416,-44.89,-122.651,-21.813,-8.187,-3.487,25.42,0.42593,-0.35556,-0.1438,-0.81937,128,0.778,0.036,0.606,1.709,-1.343,0.061,2.961,-51.526,133.885,-18.587,-11.627,-26.367,29.68,0.34265,0.41061,-0.15207,0.83112,122,0.966,-0.135,0.156,0.427,-0.122,0.0,-40.369,-77.899,-132.067,-30.56,-9.173,-3.2,30.03,0.09805,-0.64801,0.00574,-0.75519,124
31,0.982,-0.151,0.244,0.488,0.122,0.0,-31.86,-73.713,-164.097,-27.167,-9.1,-10.473,27.58,-0.05704,-0.6015,0.13809,-0.7847,121,0.711,-0.07,0.702,1.343,-0.916,0.671,-5.411,-44.907,-122.635,-21.813,-8.187,-3.487,25.42,0.42593,-0.35556,-0.1438,-0.81937,129,0.78,0.032,0.613,1.77,-2.014,0.732,2.988,-51.559,133.896,-18.587,-11.627,-26.367,29.68,0.34265,0.41061,-0.15207,0.83112,123,0.966,-0.134,0.155,0.549,0.122,-0.061,-40.347,-77.899,-132.078,-30.56,-9.173,-3.2,30.03,0.09805,-0.64801,0.00574,-0.75519,125
32,0.982,-0.15,0.243,0.366,0.244,0.0,-31.849,-73.707,-164.108,-27.167,-9.1,-10.473,27.58,-0.05704,-0.6015,0.13809,-0.7847,126,0.712,-0.067,0.704,1.465,-0.977,0.671,-5.4,-44.929,-122.596,-21.6,-8.08,-3.207,25.42,0.42593,-0.35556,-0.1438,-0.81937,132,0.781,0.032,0.614,1.892,-2.808,0.61,3.01,-51.608,133.901,-18.587,-11.627,-26.367,29.68,0.34192,0.40933,-0.14859,0.83267,130,0.966,-0.132,0.156,0.549,0.244,-0.061,-40.314,-77.899,-132.094,-30.56,-9.173,-3.2,30.03,0.09805,-0.64801,0.00574,-0.75519,134
33,0.982,-0.151,0.242,0.366,0.244,0.0,-31.833,-73.702,-164.136,-27.167,-9.1,-10.473,27.58,-0.05704,-0.6015,0.13809,-0.7847,127,0.712,-0.065,0.705,1.343,-0.916,0.549,-5.383,-44.945,-122.563,-21.6,-8.08,-3.207,25.42,0.42593,-0.35556,-0.1438,-0.81937,133,0.782,0.032,0.61,1.77,-3.418,0.061,3.043,-51.669,133.89,-18.587,-11.627,-26.367,29.68,0.34192,0.40933,-0.14859,0.83267,131,0.967,-0.132,0.155,0.366,0.122,0.0,-40.303,-77.893,-132.1,-30.56,-9.173,-3.2,30.03,0.09805,-0.64801,0.00574,-0.75519,135
34,0.981,-0.151,0.241,0.244,0.305,0.0,-31.816,-73.696,-164.147,-27.167,-9.1,-10.473,27.58,-0.05704,-0.6015,0.13809,-0.7847,136,0.713,-0.065,0.698,1.16,-0.977,0.488,-5.372,-44.967,-122.542,-21.6,-8.08,-3.207,25.42,0.42593,-0.35556,-0.1438,-0.81937,142,0.79,0.035,0.606,1.648,-3.54,-0.244,3.082,-51.74,133.868,-18.587,-11.627,-26.367,29.68,0.34192,0.40933,-0.14859,0.83267,138,0.966,-0.131,0.152,0.244,0.183,0.0,-40.292,-77.893,-132.111,-30.56,-9.173,-3.2,30.03,0.09805,-0.64801,0.00574,-0.75519,140
35,0.979,-0.152,0.24,0.305,0.732,0.0,-31.794,-73.691,-164.174,-27.167,-9.1,-10.473,27.58,-0.05704,-0.6015,0.13809,-0.7847,137,0.704,-0.072,0.698,1.709,-1.404,0.488,-5.361,-44.989,-122.531,-21.6,-8.08,-3.207,25.42,0.42593,-0.35556,-0.1438,-0.81937,143,0.78,0.03,0.61,1.587,-4.944,-0.061,3.12,-51.823,133.841,-18.587,-11.627,-26.367,29.68,0.34192,0.40933,-0.14859,0.83267,139,0.963,-0.134,0.151,0.305,0.488,0.0,-40.259,-77.888,-132.138,-30.56,-9.173,-3.2,30.03,0.09805,-0.64801,0.00574,-0.75519,141
36,0.983,-0.156,0.248,0.549,0.488,0.0,-31.767,-73.68,-164.202,-27.167,-9.1,-10.473,27.58,-0.05704,-0.6015,0.13809,-0.7847,144,0.718,-0.074,0.714,2.563,-1.709,0.916,-5.334,-45.022,-122.509,-21.6,-8.08,-3.207,25.42,0.42801,-0.35596,-0.146,-0.81772,148,0.79,0.035,0.63,1.404,-5.981,0.183,3.159,-51.932,133.83,-18.587,-11.627,-26.367,29.68,0.34192,0.40933,-0.14859,0.83267,146,0.968,-0.141,0.165,0.366,0.0,0.0,-40.254,-77.888,-132.138,-30.56,-9.173,-3.2,30.03,0.09805,-0.64801,0.00574,-0.75519,150
37,0.986,-0.159,0.249,0.854,0.0,0.0,-31.75,-73.674,-164.207,-27.167,-9.1,-10.473,27.58,-0.05704,-0.6015,0.13809,-0.7847,145,0.723,-0.073,0.702,4.15,-1.77,1.831,-5.301,-45.055,-122.481,-21.6,-8.08,-3.207,25.42,0.42801,-0.35596,-0.146,-0.81772,149,0.785,0.038,0.596,3.601,-3.601,0.549,3.203,-52.026,133.841,-18.587,-11.627,-26.367,29.68,0.34192,0.40933,-0.14859,0.83267,147,0.971,-0.143,0.165,0.793,0.061,-0.549,-40.204,-77.893,-132.177,-30.56,-9.173,-3.2,30.03,0.09805,-0.64801,0.00574,-0.75519,151
38,0.98,-0.158,0.245,1.343,0.061,0.0,-31.734,-73.674,-164.185,-27.167,-9.1,-10.473,27.58,-0.05704,-0.6015,0.13809,-0.7847,152,0.715,-0.078,0.685,6.531,-1.648,2.075,-5.246,-45.088,-122.426,-21.6,-8.08,-3.207,25.42,0.42801,-0.35596,-0.146,-0.81772,156,0.789,0.031,0.582,5.249,-2.502,1.099,3.274,-52.086,133.863,-18.587,-11.627,-26.367,29.68,0.34192,0.40933,-0.14859,0.83267,154,0.964,-0.141,0.156,1.709,0.427,-0.671,-40.106,-77.893,-132.264,-30.52,-9.453,-3.2,30.03,0.09805,-0.64801,0.00574,-0.75519,158
39,0.979,-0.152,0.244,2.075,0.549,0.0,-31.696,-73.669,-164.169,-27.167,-9.1,-10.473,27.58,-0.05704,-0.6015,0.13809,-0.7847,153,0.718,-0.071,0.687,8.057,-1.343,2.014,-5.147,-45.115,-122.36,-21.6,-8.08,-3.207,25.42,0.42801,-0.35596,-0.146,-0.81772,157,0.789,0.039,0.587,7.812,-3.601,1.587,3.373,-52.152,133.896,-18.587,-11.627,-26.367,29.68,0.34192,0.40933,-0.14859,0.83267,155,0.966,-0.132,0.154,3.235,1.587,-1.038,-39.924,-77.888,-132.402,-30.52,-9.453,-3.2,30.03,0.09805,-0.64801,0.00574,-0.75519,159
40,0.981,-0.15,0.242,2.625,1.038,-0.305,-31.613,-73.658,-164.18,-27.167,-9.24,-9.96,27.58,-0.05704,-0.6015,0.13809,-0.7847,166,0.714,-0.068,0.688,10.437,-0.671,2.136,-5.015,-45.137,-122.311,-21.6,-8.08,-3.207,25.42,0.42801,-0.35596,-0.146,-0.81772,160,0.788,0.038,0.583,10.681,-2.747,1.709,3.521,-52.218,133.934,-18.587,-11.627,-26.367,29.68,0.34192,0.40933,-0.14859,0.83267,162,0.965,-0.127,0.153,3.784,1.831,-1.221,-39.699,-77.877,-132.572,-30.52,-9.453,-3.2,30.03,0.09872,-0.64749,0.00421,-0.75555,164
41,0.982,-0.145,0.242,3.174,1.343,-0.244,-31.509,-73.641,-164.218,-27.167,-9.24,-9.96,27.58,-0.05704,-0.6015,0.13809,-0.7847,167,0.714,-0.062,0.692,11.78,-0.244,1.892,-4.845,-45.148,-122.272,-21.6,-8.08,-3.207,25.42,0.42801,-0.35596,-0.146,-0.81772,161,0.792,0.038,0.593,13.611,-1.587,1.099,3.724,-52.267,133.962,-18.587,-11.627,-26.367,29.68,0.34192,0.40933,-0.14859,0.83267,163,0.971,-0.124,0.151,3.906,2.38,-1.343,-39.43,-77.86,-132.77,-30.52,-9.453,-3.2,30.03,0.09872,-0.64749,0.00421,-0.75555,165
42,0.989,-0.144,0.242,3.479,2.014,-0.122,-31.377,-73.614,-164.29,-27.167,-9.24,-9.96,27.58,-0.05508,-0.60089,0.1355,-0.78577,172,0.722,-0.056,0.693,12.512,-0.366,1.587,-4.647,-45.154,-122.234,-21.6,-8.08,-3.207,25.42,0.42801,-0.35596,-0.146,-0.81772,168,0.792,0.046,0.605,14.221,-0.244,1.526,3.966,-52.295,133.989,-18.587,-11.627,-26.367,29.68,0.34192,0.40933,-0.14859,0.83267,170,0.976,-0.125,0.152,3.784,2.563,-1.465,-39.128,-77.844,-133.006,-30.52,-9.453,-3.2,30.03,0.09872,-0.64749,0.00421,-0.75555,174
43,0.993,-0.146,0.241,2.93,2.441,0.0,-31.234,-73.575,-164.377,-27.167,-9.24,-9.96,27.58,-0.05508,-0.60089,0.1355,-0.78577,173,0.729,-0.058,0.697,12.573,-1.282,1.526,-4.444,-45.176,-122.195,-21.6,-8.08,-3.207,25.42,0.42801,-0.35596,-0.146,-0.81772,169,0.798,0.052,0.605,13.0,-0.244,4.395,4.158,-52.306,134.077,-18.587,-11.627,-26.367,29.68,0.34192,0.40933,-0.14859,0.83267,171,0.975,-0.131,0.155,3.54,2.441,-1.709,-38.809,-77.827,-133.259,-30.52,-9.453,-3.2,30.03,0.09872,-0.64749,0.00421,-0.75555,175
44,0.988,-0.151,0.242,2.686,2.747,0.061,-31.097,-73.537,-164.476,-27.167,-9.24,-9.96,27.58,-0.05508,-0.60089,0.1355,-0.78577,180,0.724,-0.051,0.703,12.207,-1.404,1.709,-4.241,-45.209,-122.151,-21.6,-8.08,-3.207,25.42,0.42801,-0.35596,-0.146,-0.81772,176,0.796,0.055,0.604,11.047,-3.052,7.629,4.241,-52.35,134.253,-18.587,-11.627,-26.367,29.68,0.34192,0.40933,-0.14859,0.83267,182,0.967,-0.132,0.157,3.662,2.563,-1.831,-38.491,-77.816,-133.533,-30.52,-9.453,-3.2,30.03,0.09872,-0.64749,0.00421,-0.75555,178
45,0.98,-0.153,0.243,2.93,2.747,0.183,-30.959,-73.493,-164.581,-27.167,-9.24,-9.96,27.58,-0.05508,-0.60089,0.1355,-0.78577,181,0.715,-0.039,0.703,12.451,-1.099,1.831,-4.043,-45.236,-122.113,-21.6,-8.08,-3.207,25.42,0.42801,-0.35596,-0.146,-0.81772,177,0.793,0.051,0.599,9.583,-5.127,8.911,4.241,-52.449,134.495,-18.587,-11.627,-26.367,29.68,0.34192,0.40933,-0.14859,0.83267,183,0.961,-0.128,0.161,4.028,2.686,-1.709,-38.156,-77.8,-133.813,-30.52,-9.453,-3.2,30.03,0.09872,-0.64749,0.00421,-0.75555,179
46,0.975,-0.151,0.245,3.54,2.563,0.244,-30.828,-73.449,-164.669,-27.167,-9.24,-9.96,27.58,-0.05508,-0.60089,0.1355,-0.78577,184,0.715,-0.053,0.702,12.207,-0.793,1.648,-3.845,-45.258,-122.08,-21.6,-8.08,-3.207,25.42,0.42801,-0.35596,-0.146,-0.81772,186,0.791,0.036,0.598,8.789,-6.653,8.606,4.208,-52.581,134.747,-19.24,-11.347,-26.853,29.68,0.34192,0.40933,-0.14859,0.83267,188,0.962,-0.133,0.158,3.906,3.235,-1.892,-37.815,-77.783,-134.105,-30.52,-9.453,-3.2,30.03,0.09872,-0.64749,0.00421,-0.75555,190
47,0.977,-0.154,0.247,3.845,2.563,0.0,-30.685,-73.405,-164.74,-27.167,-9.24,-9.96,27.58,-0.05508,-0.60089,0.1355,-0.78577,185,0.719,-0.055,0.696,11.963,-1.099,1.343,-3.647,-45.28,-122.069,-21.6,-8.08,-3.207,25.42,0.42801,-0.35596,-0.146,-0.81772,187,0.795,0.027,0.581,8.484,-6.592,7.263,4.18,-52.729,134.973,-19.24,-11.347,-26.853,29.68,0.34192,0.40933,-0.14859,0.83267,189,0.967,-0.133,0.161,3.906,3.479,-1.892,-37.441,-77.756,-134.451,-30.52,-9.453,-3.2,30.03,0.09872,-0.64749,0.00421,-0.75555,191
48,0.981,-0.157,0.249,4.089,2.686,-0.061,-30.526,-73.367,-164.822,-27.167,-9.24,-9.96,27.58,-0.05508,-0.60089,0.1355,-0.78577,192,0.726,-0.044,0.695,10.986,-0.977,1.038,-3.455,-45.302,-122.075,-21.6,-8.08,-3.207,25.42,0.42801,-0.35596,-0.146,-0.81772,200,0.801,0.037,0.582,8.606,-5.005,5.066,4.197,-52.85,135.126,-19.24,-11.347,-26.853,29.68,0.34192,0.40933,-0.14859,0.83267,194,0.97,-0.132,0.162,3.906,3.296,-1.465,-37.073,-77.728,-134.78,-30.52,-9.453,-3.2,30.03,0.09872,-0.64749,0.00421,-0.75555,196
49,0.984,-0.156,0.25,4.333,2.93,-0.061,-30.361,-73.323,-164.888,-27.167,-9.24,-9.96,27.58,-0.05508,-0.60089,0.1355,-0.78577,193,0.724,-0.044,0.696,9.888,-0.854,0.793,-3.279,-45.324,-122.086,-21.6,-8.08,-3.207,25.42,0.42801,-0.35596,-0.146,-0.81772,201,0.801,0.04,0.578,8.362,-2.991,3.723,4.257,-52.943,135.225,-19.24,-11.347,-26.853,29.68,0.34192,0.40933,-0.14859,0.83267,195,0.968,-0.129,0.164,3.906,3.418,-1.16,-36.744,-77.695,-135.077,-30.52,-9.453,-3.2,30.03,0.09872,-0.64749,0.00421,-0.75555,197
50,0.98,-0.156,0.257,4.089,3.235,-0.122,-30.185,-73.273,-164.982,-27.167,-9.24,-9.96,27.58,-0.05508,-0.60089,0.1355,-0.78577,198,0.717,-0.041,0.699,8.667,-0.183,0.488,-3.12,-45.341,-122.102,-22.153,-9.333,-3.113,25.42,0.42801,-0.35596,-0.146,-0.81772,204,0.799,0.041,0.583,7.629,-1.526,3.052,4.323,-52.993,135.297,-19.24,-11.347,-26.853,29.68,0.32535,0.42453,-0.13889,0.8334,202,0.962,-0.13,0.173,3.479,3.662,-0.732,-36.436,-77.651,-135.352,-30.52,-9.453,-3.2,30.03,0.09872,-0.64749,0.00421,-0.75555,206
51,0.976,-0.155,0.262,3.357,3.54,-0.122,-30.015,-73.218,-165.108,-27.167,-9.24,-9.96,27.58,-0.05508,-0.60089,0.1355,-0.78577,199,0.711,-0.04,0.707,7.019,0.305,0.305,-2.983,-45.346,-122.13,-22.153,-9.333,-3.113,25.42,0.42801,-0.35596,-0.146,-0.81772,205,0.794,0.039,0.596,6.165,-1.221,2.258,4.389,-53.031,135.335,-19.24,-11.347,-26.853,29.68,0.32535,0.42453,-0.13889,0.8334,203,0.959,-0.127,0.177,2.869,3.723,-0.427,-36.156,-77.607,-135.588,-30.52,-9.453,-3.2,30.03,0.09872,-0.64749,0.00421,-0.75555,207
52,0.971,-0.152,0.264,2.563,3.601,-0.061,-29.85,-73.158,-165.256,-27.167,-9.24,-9.96,27.58,-0.05508,-0.60089,0.1355,-0.78577,208,0.706,-0.037,0.711,5.615,0.671,0.122,-2.878,-45.335,-122.162,-22.153,-9.333,-3.113,25.42,0.42801,-0.35596,-0.146,-0.81772,212,0.796,0.042,0.603,4.761,-1.099,1.404,4.444,-53.058,135.352,-19.24,-11.347,-26.853,29.68,0.32535,0.42453,-0.13889,0.8334,210,0.957,-0.125,0.181,2.136,3.54,-0.366,-35.903,-77.552,-135.802,-30.42,-9.64,-3.04,30.03,0.09872,-0.64749,0.00421,-0.75555,214
53,0.97,-0.148,0.267,1.892,3.662,-0.122,-29.696,-73.098,-165.405,-27.167,-9.24,-9.96,27.58,-0.05508,-0.60089,0.1355,-0.78577,209,0.704,-0.035,0.716,3.845,1.282,0.122,-2.807,-45.319,-122.195,-22.153,-9.333,-3.113,25.42,0.42801,-0.35596,-0.146,-0.81772,213,0.793,0.043,0.604,3.174,-0.366,1.526,4.477,-53.075,135.363,-19.24,-11.347,-26.853,29.68,0.32535,0.42453,-0.13889,0.8334,211,0.957,-0.128,0.185,1.404,3.174,-0.427,-35.678,-77.503,-136.016,-30.42,-9.64,-3.04,30.03,0.09872,-0.64749,0.00421,-0.75555,215
54,0.971,-0.15,0.268,1.648,3.418,-0.305,-29.553,-73.037,-165.564,-27.167,-9.24,-9.96,27.58,-0.05508,-0.60089,0.1355,-0.78577,222,0.702,-0.037,0.716,1.953,2.075,0.122,-2.769,-45.28,-122.228,-22.153,-9.333,-3.113,25.42,0.43753,-0.3479,-0.16635,-0.81226,216,0.792,0.042,0.609,1.038,0.366,1.953,4.471,-53.08,135.396,-19.24,-11.347,-26.853,29.68,0.32535,0.42453,-0.13889,0.8334,218,0.958,-0.13,0.188,1.16,2.808,-0.61,-35.475,-77.459,-136.203,-30.42,-9.64,-3.04,30.03,0.10025,-0.64142,-0.00174,-0.76053,220
55,0.971,-0.153,0.269,1.77,2.991,-0.366,-29.405,-72.982,-165.723,-27.167,-9.24,-9.96,27.58,-0.05508,-0.60089,0.1355,-0.78577,223,0.704,-0.035,0.722,0.854,2.502,0.488,-2.758,-45.231,-122.25,-22.153,-9.333,-3.113,25.42,0.43753,-0.3479,-0.16635,-0.81226,217,0.791,0.047,0.61,-0.977,1.77,2.502,4.4,-53.064,135.461,-19.24,-11.347,-26.853,29.68,0.32535,0.42453,-0.13889,0.8334,219,0.958,-0.13,0.188,1.282,2.441,-0.671,-35.277,-77.421,-136.362,-30.42,-9.64,-3.04,30.03,0.10025,-0.64142,-0.00174,-0.76053,221
56,0.97,-0.151,0.267,2.075,2.136,-0.427,-29.279,-72.944,-165.85,-27.027,-8.98,-11.227,27.58,-0.05508,-0.60089,0.1355,-0.78577,224,0.701,-0.032,0.721,0.488,2.808,1.038,-2.769,-45.17,-122.261,-22.153,-9.333,-3.113,25.42,0.43753,-0.3479,-0.16635,-0.81226,226,0.786,0.051,0.608,-1.648,3.662,3.174,4.29,-53.009,135.538,-19.24,-11.347,-26.853,29.68,0.32535,0.42453,-0.13889,0.8334,228,0.957,-0.125,0.188,1.343,1.831,-0.61,-35.101,-77.388,-136.489,-30.42,-9.64,-3.04,30.03,0.10025,-0.64142,-0.00174,-0.76053,230
57,0.97,-0.147,0.269,2.136,1.465,-0.366,-29.169,-72.911,-165.938,-27.027,-8.98,-11.227,27.58,-0.05508,-0.60089,0.1355,-0.78577,225,0.697,-0.026,0.721,0.305,2.93,1.526,-2.791,-45.11,-122.25,-22.153,-9.333,-3.113,25.42,0.43753,-0.3479,-0.16635,-0.81226,227,0.783,0.051,0.615,-1.77,4.761,3.357,4.164,-52.927,135.643,-19.24,-11.347,-26.853,29.68,0.32535,0.42453,-0.13889,0.8334,229,0.956,-0.119,0.188,1.282,1.282,-0.488,-34.953,-77.36,-136.588,-30.42,-9.64,-3.04,30.03,0.10025,-0.64142,-0.00174,-0.76053,231
58,0.969,-0.14,0.268,1.831,0.916,-0.244,-29.081,-72.894,-165.992,-27.027,-8.98,-11.227,27.58,-0.05508,-0.60089,0.1355,-0.78577,232,0.696,-0.027,0.719,0.305,2.808,1.77,-2.818,-45.044,-122.239,-22.153,-9.333,-3.113,25.42,0.43753,-0.3479,-0.16635,-0.81226,234,0.78,0.045,0.614,-1.831,4.578,3.296,4.032,-52.839,135.747,-19.24,-11.347,-26.853,29.68,0.32535,0.42453,-0.13889,0.8334,236,0.957,-0.11,0.186,0.977,0.854,-0.488,-34.843,-77.349,-136.659,-30.42,-9.64,-3.04,30.03,0.10025,-0.64142,-0.00174,-0.76053,238
59,0.971,-0.132,0.267,1.343,0.549,-0.183,-29.02,-72.878,-166.031,-27.027,-8.98,-11.227,27.58,-0.05508,-0.60089,0.1355,-0.78577,233,0.699,-0.028,0.715,0.244,2.625,1.465,-2.84,-44.989,-122.239,-22.153,-9.333,-3.113,25.42,0.43753,-0.3479,-0.16635,-0.81226,235,0.782,0.04,0.61,-0.977,3.845,2.808,3.922,-52.751,135.846,-19.24,-11.347,-26.853,29.68,0.32535,0.42453,-0.13889,0.8334,237,0.959,-0.104,0.184,0.671,0.488,-0.488,-34.75,-77.338,-136.719,-30.42,-9.64,-3.04,30.03,0.10025,-0.64142,-0.00174,-0.76053,239
60,0.972,-0.127,0.265,0.61,0.366,-0.183,-28.971,-72.872,-166.031,-27.027,-8.98,-11.227,27.58,-0.05301,-0.59525,0.13013,-0.79108,240,0.699,-0.023,0.713,0.122,2.136,0.854,-2.856,-44.934,-122.25,-22.153,-9.333,-3.113,25.42,0.43753,-0.3479,-0.16635,-0.81226,242,0.781,0.041,0.609,-0.366,2.686,1.77,3.845,-52.685,135.901,-19.24,-11.347,-26.853,29.68,0.32535,0.42453,-0.13889,0.8334,244,0.961,-0.103,0.185,0.122,0.183,-0.488,-34.673,-77.338,-136.769,-30.42,-9.64,-3.04,30.03,0.10025,-0.64142,-0.00174,-0.76053,246
61,0.975,-0.128,0.268,-0.061,0.061,-0.305,-28.938,-72.872,-166.042,-27.027,-8.98,-11.227,27.58,-0.05301,-0.59525,0.13013,-0.79108,241,0.703,-0.02,0.715,-0.305,1.892,0.244,-2.862,-44.89,-122.272,-22.153,-9.333,-3.113,25.42,0.43753,-0.3479,-0.16635,-0.81226,243,0.785,0.045,0.611,0.122,2.258,0.488,3.812,-52.635,135.912,-19.24,-11.347,-26.853,29.68,0.32535,0.42453,-0.13889,0.8334,245,0.964,-0.103,0.183,-0.427,0.0,-0.366,-34.618,-77.338,-136.813,-30.42,-9.64,-3.04,30.03,0.10025,-0.64142,-0.00174,-0.76053,247
62,0.979,-0.127,0.265,-0.427,0.0,-0.305,-28.911,-72.872,-166.091,-27.027,-8.98,-11.227,27.58,-0.05301,-0.59525,0.13013,-0.79108,248,0.708,-0.018,0.716,-1.16,1.587,-0.183,-2.867,-44.852,-122.305,-22.153,-9.333,-3.113,25.42,0.43753,-0.3479,-0.16635,-0.81226,250,0.787,0.048,0.61,-0.427,2.869,-0.366,3.807,-52.581,135.884,-19.24,-11.347,-26.853,29.68,0.32535,0.42453,-0.13889,0.8334,252,0.965,-0.103,0.178,-1.038,-0.305,-0.122,-34.59,-77.344,-136.857,-30.42,-9.64,-3.04,30.03,0.10025,-0.64142,-0.00174,-0.76053,254
63,0.979,-0.13,0.261,-1.221,-0.061,-0.305,-28.894,-72.878,-166.157,-27.027,-8.98,-11.227,27.58,-0.05301,-0.59525,0.13013,-0.79108,249,0.708,-0.016,0.716,-2.502,0.916,-0.732,-2.889,-44.83,-122.355,-22.153,-9.333,-3.113,25.42,0.43753,-0.3479,-0.16635,-0.81226,251,0.788,0.052,0.614,-1.709,2.441,-1.099,3.807,-52.52,135.824,-19.24,-11.347,-26.853,29.68,0.32535,0.42453,-0.13889,0.8334,253,0.966,-0.105,0.179,-1.587,-0.854,0.122,-34.612,-77.355,-136.851,-30.42,-9.64,-3.04,30.03,0.10025,-0.64142,-0.00174,-0.76053,255
64,0.978,-0.133,0.264,-1.953,-0.183,-0.183,-28.894,-72.883,-166.218,-27.027,-8.98,-11.227,27.58,-0.05301,-0.59525,0.13013,-0.79108,256,0.707,-0.018,0.717,-3.784,0.244,-1.038,-2.928,-44.819,-122.41,-22.153,-9.333,-3.113,25.42,0.43753,-0.3479,-0.16635,-0.81226,258,0.786,0.051,0.614,-2.686,1.709,-1.831,3.807,-52.471,135.747,-19.16,-11.747,-27.453,29.68,0.32535,0.42453,-0.13889,0.8334,262,0.963,-0.111,0.183,-1.831,-1.099,0.366,-34.678,-77.371,-136.802,-30.42,-9.64,-3.04,30.03,0.10025,-0.64142,-0.00174,-0.76053,260
65,0.975,-0.138,0.267,-2.075,-0.427,-0.122,-28.916,-72.894,-166.267,-27.027,-8.98,-11.227,27.58,-0.05301,-0.59525,0.13013,-0.79108,257,0.701,-0.026,0.716,-4.456,0.0,-1.221,-2.977,-44.813,-122.47,-22.153,-9.333,-3.113,25.42,0.43753,-0.3479,-0.16635,-0.81226,259,0.782,0.049,0.616,-3.54,0.61,-1.648,3.79,-52.443,135.665,-19.16,-11.747,-27.453,29.68,0.32535,0.42453,-0.13889,0.8334,263,0.958,-0.115,0.182,-1.953,-1.099,0.488,-34.766,-77.388,-136.741,-30.42,-9.64,-3.04,30.03,0.10025,-0.64142,-0.00174,-0.76053,261
66,0.971,-0.141,0.266,-2.258,-0.671,-0.061,-28.949,-72.905,-166.317,-27.027,-8.98,-11.227,27.58,-0.05301,-0.59525,0.13013,-0.79108,264,0.7,-0.027,0.718,-4.639,-0.488,-1.16,-3.038,-44.819,-122.536,-22.153,-9.333,-3.113,25.42,0.43753,-0.3479,-0.16635,-0.81226,266,0.783,0.049,0.622,-4.15,-0.977,-1.587,3.768,-52.438,135.577,-19.16,-11.747,-27.453,29.68,0.32529,0.41998,-0.13947,0.8356,268,0.958,-0.117,0.185,-2.014,-1.404,0.732,-34.876,-77.399,-136.675,-30.42,-9.64,-3.04,30.03,0.10025,-0.64142,-0.00174,-0.76053,270
67,0.973,-0.143,0.267,-2.38,-0.916,0.0,-29.004,-72.922,-166.317,-27.027,-8.98,-11.227,27.58,-0.05301,-0.59525,0.13013,-0.79108,265,0.703,-0.029,0.716,-4.578,-0.61,-0.977,-3.093,-44.83,-122.58,-22.153,-9.333,-3.113,25.42,0.43753,-0.3479,-0.16635,-0.81226,267,0.785,0.048,0.611,-3.906,-0.916,-1.404,3.735,-52.449,135.489,-19.16,-11.747,-27.453,29.68,0.32529,0.41998,-0.13947,0.8356,269,0.96,-0.121,0.184,-1.953,-1.709,0.793,-35.013,-77.421,-136.566,-30.42,-9.64,-3.04,30.03,0.10025,-0.64142,-0.00174,-0.76053,271
68,0.974,-0.146,0.266,-2.258,-1.16,0.183,-29.075,-72.938,-166.284,-27.027,-8.98,-11.227,27.58,-0.05301,-0.59525,0.13013,-0.79108,272,0.706,-0.037,0.711,-3.845,-0.732,-0.732,-3.148,-44.841,-122.624,-21.76,-9.173,-2.88,25.42,0.43753,-0.3479,-0.16635,-0.81226,280,0.787,0.042,0.605,-3.296,-0.366,-1.221,3.708,-52.454,135.412,-19.16,-11.747,-27.453,29.68,0.32529,0.41998,-0.13947,0.8356,274,0.961,-0.125,0.18,-1.648,-1.831,0.793,-35.162,-77.437,-136.461,-30.7,-9.68,-3.5,30.03,0.10025,-0.64142,-0.00174,-0.76053,276
69,0.976,-0.148,0.263,-1.953,-1.282,0.244,-29.152,-72.96,-166.234,-27.027,-8.98,-11.227,27.58,-0.05301,-0.59525,0.13013,-0.79108,273,0.709,-0.043,0.708,-3.052,-0.732,-0.488,-3.192,-44.852,-122.673,-21.76,-9.173,-2.88,25.42,0.43753,-0.3479,-0.16635,-0.81226,281,0.788,0.041,0.599,-2.808,-0.122,-0.671,3.68,-52.454,135.341,-19.16,-11.747,-27.453,29.68,0.32529,0.41998,-0.13947,0.8356,275,0.964,-0.126,0.176,-1.221,-2.014,0.671,-35.31,-77.459,-136.351,-30.7,-9.68,-3.5,30.03,0.10025,-0.64142,-0.00174,-0.76053,277
70,0.978,-0.148,0.262,-1.282,-1.099,0.305,-29.224,-72.977,-166.19,-27.027,-8.98,-11.227,27.58,-0.05301,-0.59525,0.13013,-0.79108,278,0.71,-0.041,0.704,-2.197,-0.854,-0.183,-3.23,-44.868,-122.712,-21.76,-9.173,-2.88,25.42,0.43332,-0.34732,-0.15988,-0.81604,284,0.786,0.04,0.598,-1.892,0.244,-0.488,3.653,-52.449,135.28,-19.16,-11.747,-27.453,29.68,0.32529,0.41998,-0.13947,0.8356,282,0.965,-0.126,0.176,-1.038,-2.014,0.549,-35.458,-77.481,-136.23,-30.7,-9.68,-3.5,30.03,0.10004,-0.64163,-0.00174,-0.76038,286
71,0.978,-0.147,0.264,-1.038,-1.038,0.244,-29.284,-72.988,-166.141,-27.027,-8.98,-11.227,27.58,-0.05301,-0.59525,0.13013,-0.79108,279,0.707,-0.041,0.705,-1.587,-0.977,0.061,-3.257,-44.885,-122.734,-21.76,-9.173,-2.88,25.42,0.43332,-0.34732,-0.15988,-0.81604,285,0.786,0.038,0.6,-1.099,-0.427,-0.793,3.647,-52.449,135.209,-19.16,-11.747,-27.453,29.68,0.32529,0.41998,-0.13947,0.8356,283,0.963,-0.123,0.179,-0.977,-1.892,0.61,-35.601,-77.509,-136.093,-30.7,-9.68,-3.5,30.03,0.10004,-0.64163,-0.00174,-0.76038,287
72,0.976,-0.146,0.266,-1.038,-1.099,0.305,-29.344,-73.004,-166.064,-27.027,-8.98,-11.227,27.58,-0.05301,-0.59525,0.13013,-0.79108,288,0.709,-0.041,0.71,-1.221,-0.916,0.0,-3.279,-44.901,-122.756,-21.76,-9.173,-2.88,25.42,0.43332,-0.34732,-0.15988,-0.81604,294,0.79,0.038,0.604,-0.61,-0.732,-1.099,3.664,-52.454,135.143,-19.16,-11.747,-27.453,29.68,0.32529,0.41998,-0.13947,0.8356,290,0.964,-0.124,0.178,-0.854,-1.77,0.793,-35.744,-77.525,-135.956,-30.7,-9.68,-3.5,30.03,0.10004,-0.64163,-0.00174,-0.76038,292
73,0.979,-0.148,0.263,-0.916,-1.16,0.488,-29.416,-73.015,-165.97,-27.027,-8.98,-11.227,27.58,-0.05301,-0.59525,0.13013,-0.79108,289,0.712,-0.04,0.708,-0.977,-0.793,0.0,-3.296,-44.918,-122.778,-21.76,-9.173,-2.88,25.42,0.43332,-0.34732,-0.15988,-0.81604,295,0.793,0.042,0.602,-0.427,-0.305,-0.854,3.68,-52.465,135.104,-19.16,-11.747,-27.453,29.68,0.32529,0.41998,-0.13947,0.8356,291,0.965,-0.125,0.172,-0.671,-1.709,0.854,-35.887,-77.542,-135.813,-30.7,-9.68,-3.5,30.03,0.10004,-0.64163,-0.00174,-0.76038,293
74,0.98,-0.147,0.257,-0.854,-1.221,0.61,-29.498,-73.032,-165.872,-27.073,-9.127,-9.987,27.58,-0.05301,-0.59525,0.13013,-0.79108,302,0.718,-0.041,0.706,-0.916,-0.61,0.061,-3.312,-44.929,-122.783,-21.76,-9.173,-2.88,25.42,0.43332,-0.34732,-0.15988,-0.81604,296,0.802,0.042,0.6,-0.427,-0.061,-0.366,3.691,-52.465,135.055,-19.16,-11.747,-27.453,29.68,0.32529,0.41998,-0.13947,0.8356,298,0.967,-0.126,0.166,-0.977,-1.587,0.854,-36.035,-77.558,-135.665,-30.7,-9.68,-3.5,30.03,0.10004,-0.64163,-0.00174,-0.76038,300
75,0.982,-0.15,0.254,-1.038,-1.038,0.549,-29.575,-73.043,-165.795,-27.073,-9.127,-9.987,27.58,-0.05301,-0.59525,0.13013,-0.79108,303,0.718,-0.042,0.706,-0.61,-0.854,0.244,-3.329,-44.945,-122.794,-21.76,-9.173,-2.88,25.42,0.43332,-0.34732,-0.15988,-0.81604,297,0.791,0.042,0.599,-0.427,0.122,-0.122,3.697,-52.465,135.011,-19.16,-11.747,-27.453,29.68,0.32529,0.41998,-0.13947,0.8356,299,0.97,-0.13,0.165,-1.465,-1.831,0.854,-36.2,-77.574,-135.516,-30.7,-9.68,-3.5,30.03,0.10004,-0.64163,-0.00174,-0.76038,301
76,0.982,-0.153,0.254,-1.587,-0.916,0.366,-29.658,-73.054,-165.745,-27.073,-9.127,-9.987,27.58,-0.05475,-0.59641,0.13263,-0.7897,304,0.716,-0.044,0.704,-0.366,-0.793,0.366,-3.34,-44.962,-122.8,-21.76,-9.173,-2.88,25.42,0.43332,-0.34732,-0.15988,-0.81604,306,0.795,0.035,0.6,0.061,0.122,-0.183,3.697,-52.465,134.989,-19.16,-11.747,-27.453,29.68,0.32529,0.41998,-0.13947,0.8356,308,0.968,-0.129,0.166,-1.587,-1.831,0.854,-36.387,-77.591,-135.363,-30.7,-9.68,-3.5,30.03,0.10004,-0.64163,-0.00174,-0.76038,310
77,0.98,-0.149,0.257,-1.526,-0.977,0.305,-29.734,-73.065,-165.685,-27.073,-9.127,-9.987,27.58,-0.05475,-0.59641,0.13263,-0.7897,305,0.711,-0.05,0.705,-0.183,-0.916,0.244,-3.351,-44.978,-122.811,-21.76,-9.173,-2.88,25.42,0.43332,-0.34732,-0.15988,-0.81604,307,0.791,0.029,0.607,-0.305,-1.465,-0.305,3.702,-52.476,134.967,-19.16,-11.747,-27.453,29.68,0.32529,0.41998,-0.13947,0.8356,309,0.965,-0.127,0.172,-1.16,-1.648,0.61,-36.546,-77.607,-135.242,-30.7,-9.68,-3.5,30.03,0.10004,-0.64163,-0.00174,-0.76038,311
78,0.979,-0.147,0.26,-0.793,-0.916,0.305,-29.8,-73.076,-165.63,-27.073,-9.127,-9.987,27.58,-0.05475,-0.59641,0.13263,-0.7897,312,0.715,-0.048,0.709,-0.366,-1.038,0.0,-3.362,-45.0,-122.827,-21.76,-9.173,-2.88,25.42,0.43332,-0.34732,-0.15988,-0.81604,314,0.79,0.036,0.6,-0.427,-1.831,0.0,3.702,-52.515,134.951,-19.16,-11.747,-27.453,29.68,0.32529,0.41998,-0.13947,0.8356,316,0.965,-0.126,0.169,-0.854,-1.526,0.366,-36.672,-77.629,-135.148,-30.7,-9.68,-3.5,30.03,0.10004,-0.64163,-0.00174,-0.76038,318
79,0.976,-0.147,0.256,-0.61,-0.793,0.183,-29.85,-73.092,-165.586,-27.073,-9.127,-9.987,27.58,-0.05475,-0.59641,0.13263,-0.7897,313,0.715,-0.044,0.7,-0.488,-1.038,0.061,-3.373,-45.022,-122.849,-21.76,-9.173,-2.88,25.42,0.43332,-0.34732,-0.15988,-0.81604,315,0.788,0.035,0.587,0.488,-0.977,-0.305,3.708,-52.542,134.934,-19.16,-11.747,-27.453,29.68,0.32529,0.41998,-0.13947,0.8356,317,0.96,-0.127,0.164,-0.549,-1.221,0.183,-36.766,-77.646,-135.077,-30.7,-9.68,-3.5,30.03,0.10004,-0.64163,-0.00174,-0.76038,319
80,0.972,-0.149,0.253,-0.305,-0.549,0.183,-29.888,-73.098,-165.558,-27.073,-9.127,-9.987,27.58,-0.05475,-0.59641,0.13263,-0.7897,320,0.71,-0.049,0.687,-0.244,-1.16,0.061,-3.384,-45.049,-122.871,-21.76,-9.173,-2.88,25.42,0.43332,-0.34732,-0.15988,-0.81604,322,0.791,0.032,0.587,0.671,-1.831,-0.854,3.735,-52.57,134.923,-19.56,-11.327,-26.34,29.68,0.32529,0.41998,-0.13947,0.8356,324,0.961,-0.13,0.163,-0.488,-0.793,0.0,-36.826,-77.657,-135.027,-30.7,-9.68,-3.5,30.03,0.10004,-0.64163,-0.00174,-0.76038,326
81,0.976,-0.151,0.254,-0.366,-0.305,0.061,-29.916,-73.103,-165.564,-27.073,-9.127,-9.987,27.58,-0.05475,-0.59641,0.13263,-0.7897,321,0.711,-0.047,0.704,0.0,-1.404,0.0,-3.389,-45.077,-122.899,-21.76,-9.173,-2.88,25.42,0.43332,-0.34732,-0.15988,-0.81604,323,0.794,0.036,0.601,0.977,-2.747,-0.916,3.779,-52.619,134.896,-19.56,-11.327,-26.34,29.68,0.32529,0.41998,-0.13947,0.8356,325,0.966,-0.127,0.17,-0.549,-1.221,0.061,-36.898,-77.673,-134.962,-30.7,-9.68,-3.5,30.03,0.10004,-0.64163,-0.00174,-0.76038,327
82,0.98,-0.149,0.26,-0.488,-0.427,0.0,-29.938,-73.109,-165.569,-27.073,-9.127,-9.987,27.58,-0.05475,-0.59641,0.13263,-0.7897,328,0.714,-0.046,0.703,0.366,-1.587,-0.061,-3.389,-45.11,-122.926,-21.76,-9.173,-2.88,25.42,0.43332,-0.34732,-0.15988,-0.81604,334,0.797,0.039,0.603,1.648,-3.357,-0.732,3.829,-52.679,134.868,-19.56,-11.327,-26.34,29.68,0.32529,0.41998,-0.13947,0.8356,330,0.967,-0.129,0.167,-0.366,-0.854,0.0,-36.958,-77.69,-134.901,-30.453,-9.427,-3.3,30.03,0.10004,-0.64163,-0.00174,-0.76038,332
83,0.981,-0.15,0.257,-0.183,-0.183,0.061,-29.954,-73.114,-165.564,-27.073,-9.127,-9.987,27.58,-0.05475,-0.59641,0.13263,-0.7897,329,0.718,-0.047,0.704,0.488,-1.648,0.0,-3.384,-45.148,-122.943,-21.76,-9.173,-2.88,25.42,0.43332,-0.34732,-0.15988,-0.81604,335,0.8,0.038,0.595,1.221,-3.174,-0.366,3.873,-52.745,134.852,-19.56,-11.327,-26.34,29.68,0.32529,0.41998,-0.13947,0.8356,331,0.969,-0.129,0.165,-0.305,-0.793,-0.122,-37.007,-77.701,-134.857,-30.453,-9.427,-3.3,30.03,0.10004,-0.64163,-0.00174,-0.76038,333
84,0.981,-0.149,0.256,-0.366,0.0,-0.061,-29.96,-73.114,-165.575,-27.073,-9.127,-9.987,27.58,-0.05475,-0.59641,0.13263,-0.7897,336,0.719,-0.042,0.703,0.122,-1.404,-0.061,-3.384,-45.176,-122.948,-22.053,-8.913,-2.72,25.42,0.43332,-0.34732,-0.15988,-0.81604,338,0.801,0.039,0.59,0.732,-2.136,-0.61,3.906,-52.795,134.824,-19.56,-11.327,-26.34,29.68,0.3299,0.4213,-0.14246,0.83264,342,0.971,-0.126,0.167,-0.244,-1.038,-0.061,-37.062,-77.717,-134.808,-30.453,-9.427,-3.3,30.03,0.10004,-0.64163,-0.00174,-0.76038,340
85,0.981,-0.148,0.26,-0.427,0.0,-0.122,-29.965,-73.114,-165.591,-27.073,-9.127,-9.987,27.58,-0.05475,-0.59641,0.13263,-0.7897,337,0.716,-0.042,0.708,0.0,-0.793,-0.305,-3.384,-45.192,-122.953,-22.053,-8.913,-2.72,25.42,0.43332,-0.34732,-0.15988,-0.81604,339,0.791,0.039,0.593,0.488,0.0,-0.916,3.933,-52.806,134.78,-19.56,-11.327,-26.34,29.68,0.3299,0.4213,-0.14246,0.83264,343,0.964,-0.126,0.172,-0.122,-1.038,0.0,-37.117,-77.734,-134.742,-30.453,-9.427,-3.3,30.03,0.10004,-0.64163,-0.00174,-0.76038,341
86,0.973,-0.148,0.261,-0.427,-0.183,-0.061,-29.971,-73.12,-165.602,-27.073,-9.127,-9.987,27.58,-0.05475,-0.59641,0.13263,-0.7897,344,0.712,-0.047,0.699,0.061,-0.427,-0.488,-3.373,-45.209,-122.981,-22.053,-8.913,-2.72,25.42,0.43332,-0.34732,-0.15988,-0.81604,346,0.792,0.039,0.595,0.366,-0.427,-0.916,3.961,-52.817,134.714,-19.56,-11.327,-26.34,29.68,0.3299,0.4213,-0.14246,0.83264,348,0.958,-0.127,0.165,-0.122,-0.488,-0.183,-37.145,-77.745,-134.692,-30.453,-9.427,-3.3,30.03,0.09955,-0.64435,-6e-05,-0.75815,350
87,0.971,-0.148,0.255,-0.244,0.0,-0.122,-29.976,-73.12,-165.619,-27.073,-9.127,-9.987,27.58,-0.05475,-0.59641,0.13263,-0.7897,345,0.708,-0.044,0.699,0.061,-0.488,-0.488,-3.367,-45.22,-123.008,-22.053,-8.913,-2.72,25.42,0.43332,-0.34732,-0.15988,-0.81604,347,0.786,0.042,0.595,0.244,-1.648,-0.549,3.983,-52.844,134.665,-19.56,-11.327,-26.34,29.68,0.3299,0.4213,-0.14246,0.83264,349,0.96,-0.126,0.168,-0.183,-0.366,-0.305,-37.15,-77.756,-134.687,-30.453,-9.427,-3.3,30.03,0.09955,-0.64435,-6e-05,-0.75815,351
88,0.973,-0.148,0.259,-0.305,0.0,-0.244,-29.965,-73.12,-165.63,-27.073,-9.127,-9.987,27.58,-0.05475,-0.59641,0.13263,-0.7897,354,0.71,-0.042,0.7,-0.122,-0.305,-0.427,-3.362,-45.225,-123.041,-22.053,-8.913,-2.72,25.42,0.43027,-0.35068,-0.15945,-0.81631,360,0.793,0.039,0.589,0.122,-1.343,-1.282,4.016,-52.872,134.604,-19.56,-11.327,-26.34,29.68,0.3299,0.4213,-0.14246,0.83264,352,0.962,-0.126,0.17,-0.305,-0.488,-0.305,-37.156,-77.767,-134.665,-30.453,-9.427,-3.3,30.03,0.09955,-0.64435,-6e-05,-0.75815,356
89,0.979,-0.147,0.259,-0.366,-0.183,-0.366,-29.96,-73.125,-165.619,-27.073,-9.127,-9.987,27.58,-0.05475,-0.59641,0.13263,-0.7897,355,0.716,-0.042,0.703,-0.366,-0.061,-0.488,-3.367,-45.231,-123.08,-22.053,-8.913,-2.72,25.42,0.43027,-0.35068,-0.15945,-0.81631,361,0.793,0.042,0.595,-0.244,-0.793,-1.587,4.048,-52.894,134.533,-19.56,-11.327,-26.34,29.68,0.3299,0.4213,-0.14246,0.83264,353,0.968,-0.126,0.167,-0.122,-0.488,-0.427,-37.156,-77.778,-134.632,-30.453,-9.427,-3.3,30.03,0.09955,-0.64435,-6e-05,-0.75815,357
90,0.98,-0.149,0.257,-0.549,-0.366,-0.366,-29.96,-73.13,-165.602,-27.047,-9.34,-9.927,27.58,-0.05475,-0.59641,0.13263,-0.7897,358,0.718,-0.042,0.699,-0.122,0.0,-0.427,-3.362,-45.236,-123.124,-22.053,-8.913,-2.72,25.42,0.43027,-0.35068,-0.15945,-0.81631,362,0.798,0.044,0.588,0.183,-0.122,-1.709,4.092,-52.899,134.451,-19.56,-11.327,-26.34,29.68,0.3299,0.4213,-0.14246,0.83264,364,0.968,-0.128,0.165,-0.122,-0.366,-0.488,-37.145,-77.789,-134.615,-30.453,-9.427,-3.3,30.03,0.09955,-0.64435,-6e-05,-0.75815,366
91,0.981,-0.149,0.256,-0.183,-0.244,-0.366,-29.954,-73.141,-165.591,-27.047,-9.34,-9.927,27.58,-0.05475,-0.59641,0.13263,-0.7897,359,0.717,-0.045,0.703,0.244,0.0,-0.366,-3.351,-45.236,-123.157,-22.053,-8.913,-2.72,25.42,0.43027,-0.35068,-0.15945,-0.81631,363,0.799,0.044,0.598,0.488,0.244,-1.221,4.131,-52.894,134.396,-19.56,-11.327,-26.34,29.68,0.3299,0.4213,-0.14246,0.83264,365,0.967,-0.127,0.163,-0.122,-0.244,-0.549,-37.123,-77.794,-134.61,-30.453,-9.427,-3.3,30.03,0.09955,-0.64435,-6e-05,-0.75815,367
92,0.979,-0.148,0.256,0.0,-0.061,-0.305,-29.938,-73.141,-165.597,-27.047,-9.34,-9.927,27.58,-0.05475,-0.59641,0.13263,-0.7897,368,0.716,-0.042,0.707,0.305,-0.122,-0.305,-3.34,-45.242,-123.201,-22.053,-8.913,-2.72,25.42,0.43027,-0.35068,-0.15945,-0.81631,370,0.799,0.042,0.6,0.427,-0.305,-1.16,4.169,-52.899,134.346,-19.56,-11.327,-26.34,29.68,0.3299,0.4213,-0.14246,0.83264,374,0.964,-0.124,0.164,-0.305,-0.244,-0.549,-37.106,-77.805,-134.615,-30.453,-9.427,-3.3,30.03,0.09955,-0.64435,-6e-05,-0.75815,372
93,0.977,-0.145,0.255,-0.244,0.0,-0.305,-29.927,-73.147,-165.613,-27.047,-9.34,-9.927,27.58,-0.05475,-0.59641,0.13263,-0.7897,369,0.716,-0.038,0.704,0.122,-0.183,-0.427,-3.334,-45.247,-123.25,-22.053,-8.913,-2.72,25.42,0.43027,-0.35068,-0.15945,-0.81631,371,0.799,0.044,0.599,0.122,-0.61,-1.831,4.213,-52.91,134.28,-19.56,-11.327,-26.34,29.68,0.3299,0.4213,-0.14246,0.83264,375,0.968,-0.121,0.167,-0.183,-0.549,-0.366,-37.106,-77.816,-134.594,-30.453,-9.427,-3.3,30.03,0.09955,-0.64435,-6e-05,-0.75815,373
94,0.982,-0.145,0.257,-0.366,-0.122,-0.244,-29.921,-73.152,-165.613,-27.047,-9.34,-9.927,27.58,-0.05548,-0.59705,0.13367,-0.78897,382,0.722,-0.037,0.708,-0.061,0.0,-0.671,-3.323,-45.253,-123.3,-22.053,-8.913,-2.72,25.42,0.43027,-0.35068,-0.15945,-0.81631,376,0.798,0.047,0.591,0.061,0.732,-2.686,4.279,-52.899,134.182,-19.56,-11.327,-26.34,29.68,0.3299,0.4213,-0.14246,0.83264,378,0.97,-0.122,0.166,-0.061,-0.793,-0.305,-37.123,-77.833,-134.572,-30.453,-9.427,-3.3,30.03,0.09955,-0.64435,-6e-05,-0.75815,380
95,0.98,-0.146,0.256,-0.427,-0.305,-0.244,-29.921,-73.158,-165.63,-27.047,-9.34,-9.927,27.58,-0.05548,-0.59705,0.13367,-0.78897,383,0.721,-0.04,0.701,-0.061,0.061,-0.854,-3.307,-45.253,-123.354,-22.053,-8.913,-2.72,25.42,0.43027,-0.35068,-0.15945,-0.81631,377,0.794,0.049,0.59,0.0,1.77,-2.747,4.345,-52.866,134.083,-19.56,-11.327,-26.34,29.68,0.3299,0.4213,-0.14246,0.83264,379,0.968,-0.123,0.164,0.061,-0.671,-0.244,-37.139,-77.849,-134.55,-30.453,-9.427,-3.3,30.03,0.09955,-0.64435,-6e-05,-0.75815,381
96,0.979,-0.147,0.256,-0.305,-0.061,-0.244,-29.916,-73.163,-165.641,-27.047,-9.34,-9.927,27.58,-0.05548,-0.59705,0.13367,-0.78897,384,0.714,-0.039,0.699,-0.122,0.305,-0.854,-3.29,-45.253,-123.409,-22.053,-8.913,-2.72,25.42,0.43027,-0.35068,-0.15945,-0.81631,386,0.786,0.048,0.583,0.122,3.479,-2.563,4.411,-52.811,133.978,-19.56,-11.327,-26.34,29.68,0.3299,0.4213,-0.14246,0.83264,388,0.965,-0.124,0.166,0.122,-0.549,-0.244,-37.145,-77.86,-134.533,-30.453,-9.427,-3.3,30.03,0.09955,-0.64435,-6e-05,-0.75815,390
97,0.976,-0.146,0.261,-0.305,0.0,-0.244,-29.91,-73.163,-165.641,-27.047,-9.34,-9.927,27.58,-0.05548,-0.59705,0.13367,-0.78897,385,0.71,-0.041,0.7,-0.122,0.549,-0.977,-3.274,-45.242,-123.459,-22.053,-8.913,-2.72,25.42,0.43027,-0.35068,-0.15945,-0.81631,387,0.788,0.047,0.601,0.244,3.601,-2.93,4.477,-52.74,133.868,-19.56,-11.327,-26.34,29.68,0.3299,0.4213,-0.14246,0.83264,389,0.96,-0.123,0.167,-0.061,-0.183,-0.244,-37.134,-77.866,-134.555,-30.453,-9.427,-3.3,30.03,0.09955,-0.64435,-6e-05,-0.75815,391
98,0.973,-0.145,0.257,-0.183,0.061,-0.244,-29.894,-73.163,-165.652,-27.047,-9.34,-9.927,27.58,-0.05548,-0.59705,0.13367,-0.78897,392,0.708,-0.04,0.701,-0.122,0.366,-1.038,-3.257,-45.242,-123.508,-22.053,-8.913,-2.72,25.42,0.43027,-0.35068,-0.15945,-0.81631,394,0.791,0.052,0.605,0.0,1.526,-2.197,4.537,-52.696,133.792,-19.307,-11.493,-26.833,29.68,0.3299,0.4213,-0.14246,0.83264,396,0.961,-0.123,0.164,-0.122,0.061,-0.305,-37.106,-77.871,-134.594,-30.453,-9.52,-3.38,30.03,0.09955,-0.64435,-6e-05,-0.75815,398
99,0.978,-0.146,0.254,-0.122,0.183,-0.183,-29.877,-73.163,-165.668,-27.047,-9.34,-9.927,27.58,-0.05548,-0.59705,0.13367,-0.78897,393,0.714,-0.037,0.705,-0.061,0.305,-0.916,-3.241,-45.236,-123.558,-22.053,-8.913,-2.72,25.42,0.43027,-0.35068,-0.15945,-0.81631,395,0.79,0.054,0.605,-0.183,0.854,-1.77,4.581,-52.679,133.726,-19.307,-11.493,-26.833,29.68,0.3299,0.4213,-0.14246,0.83264,397,0.967,-0.122,0.163,-0.061,-0.061,-0.244,-37.09,-77.871,-134.621,-30.453,-9.52,-3.38,30.03,0.09955,-0.64435,-6e-05,-0.75815,399
100,0.98,-0.146,0.253,-0.122,0.122,-0.122,-29.866,-73.163,-165.679,-27.047,-9.34,-9.927,27.58,-0.05548,-0.59705,0.13367,-0.78897,400,0.716,-0.037,0.703,-0.122,0.244,-0.732,-3.23,-45.236,-123.596,-22.053,-8.913,-2.72,25.42,0.43027,-0.35068,-0.15945,-0.81631,402,0.792,0.051,0.591,0.122,0.916,-1.831,4.625,-52.663,133.665,-19.307,-11.493,-26.833,29.68,0.3299,0.4213,-0.14246,0.83264,404,0.966,-0.124,0.163,0.0,-0.183,-0.244,-37.079,-77.882,-134.626,-30.453,-9.52,-3.38,30.03,0.09998,-0.64514,-0.00162,-0.75742,406
101,0.978,-0.147,0.254,-0.122,0.061,-0.122,-29.861,-73.163,-165.701,-27.047,-9.34,-9.927,27.58,-0.05548,-0.59705,0.13367,-0.78897,401,0.713,-0.04,0.702,0.0,0.122,-0.671,-3.214,-45.236,-123.618,-22.053,-8.913,-2.72,25.42,0.43027,-0.35068,-0.15945,-0.81631,403,0.792,0.052,0.604,0.244,0.427,-1.709,4.675,-52.652,133.594,-19.307,-11.493,-26.833,29.68,0.3299,0.4213,-0.14246,0.83264,405,0.965,-0.125,0.164,0.122,-0.305,-0.305,-37.068,-77.888,-134.643,-30.453,-9.52,-3.38,30.03,0.09998,-0.64514,-0.00162,-0.75742,407
102,0.977,-0.148,0.253,0.0,-0.122,-0.183,-29.855,-73.169,-165.696,-27.047,-9.34,-9.927,27.58,-0.05548,-0.59705,0.13367,-0.78897,408,0.71,-0.037,0.71,0.0,-0.183,-0.61,-3.203,-45.242,-123.629,-22.08,-9.28,-2.62,25.42,0.43027,-0.35068,-0.15945,-0.81631,412,0.789,0.056,0.612,0.0,-0.366,-1.465,4.719,-52.652,133.522,-19.307,-11.493,-26.833,29.68,0.336,0.42166,-0.14099,0.83026,414,0.965,-0.125,0.167,0.183,-0.549,-0.244,-37.079,-77.899,-134.643,-30.453,-9.52,-3.38,30.03,0.09998,-0.64514,-0.00162,-0.75742,410
103,0.976,-0.147,0.257,0.244,-0.61,-0.061,-29.866,-73.18,-165.668,-27.047,-9.34,-9.927,27.58,-0.05548,-0.59705,0.13367,-0.78897,409,0.708,-0.032,0.715,-0.183,-0.427,-0.366,-3.197,-45.253,-123.629,-22.08,-9.28,-2.62,25.42,0.43027,-0.35068,-0.15945,-0.81631,413,0.79,0.06,0.616,0.183,-1.099,-1.099,4.757,-52.668,133.473,-19.307,-11.493,-26.833,29.68,0.336,0.42166,-0.14099,0.83026,415,0.964,-0.122,0.172,0.305,-0.793,-0.122,-37.101,-77.915,-134.615,-30.453,-9.52,-3.38,30.03,0.09998,-0.64514,-0.00162,-0.75742,411
104,0.977,-0.146,0.261,0.488,-1.099,0.122,-29.899,-73.196,-165.624,-27.047,-9.34,-9.927,27.58,-0.05548,-0.59705,0.13367,-0.78897,416,0.71,-0.033,0.715,-0.061,-0.549,-0.183,-3.192,-45.264,-123.629,-22.08,-9.28,-2.62,25.42,0.42627,-0.3512,-0.15897,-0.81827,418,0.794,0.054,0.614,0.122,-1.587,-0.977,4.79,-52.696,133.434,-19.307,-11.493,-26.833,29.68,0.336,0.42166,-0.14099,0.83026,420,0.965,-0.12,0.171,0.549,-0.854,0.0,-37.128,-77.926,-134.577,-30.453,-9.52,-3.38,30.03,0.09998,-0.64514,-0.00162,-0.75742,422
105,0.979,-0.146,0.257,0.793,-1.526,0.366,-29.954,-73.218,-165.542,-27.047,-9.34,-9.927,27.58,-0.05548,-0.59705,0.13367,-0.78897,417,0.716,-0.036,0.712,-0.122,-0.61,-0.183,-3.192,-45.275,-123.635,-22.08,-9.28,-2.62,25.42,0.42627,-0.3512,-0.15897,-0.81827,419,0.793,0.057,0.609,0.061,-1.221,-0.854,4.818,-52.718,133.412,-19.307,-11.493,-26.833,29.68,0.336,0.42166,-0.14099,0.83026,421,0.967,-0.125,0.168,1.16,-0.732,0.061,-37.145,-77.937,-134.555,-30.453,-9.52,-3.38,30.03,0.09998,-0.64514,-0.00162,-0.75742,423
106,0.979,-0.148,0.254,0.854,-1.953,0.549,-30.031,-73.251,-165.438,-27.047,-9.34,-9.927,27.58,-0.05548,-0.59705,0.13367,-0.78897,428,0.714,-0.031,0.709,-0.549,-0.549,0.0,-3.197,-45.286,-123.629,-22.08,-9.28,-2.62,25.42,0.42627,-0.3512,-0.15897,-0.81827,430,0.796,0.062,0.606,-0.549,-0.671,-0.854,4.839,-52.729,133.374,-19.307,-11.493,-26.833,29.68,0.336,0.42166,-0.14099,0.83026,424,0.966,-0.122,0.165,1.282,-0.977,0.366,-37.189,-77.948,-134.5,-30.453,-9.52,-3.38,30.06,0.09998,-0.64514,-0.00162,-0.75742,426
107,0.977,-0.148,0.254,1.038,-2.441,0.732,-30.13,-73.284,-165.306,-27.047,-9.34,-9.927,27.58,-0.05548,-0.59705,0.13367,-0.78897,429,0.713,-0.027,0.712,-1.099,-0.427,0.122,-3.219,-45.291,-123.624,-22.08,-9.28,-2.62,25.42,0.42627,-0.3512,-0.15897,-0.81827,431,0.793,0.068,0.609,-1.709,0.366,-0.061,4.823,-52.723,133.358,-19.307,-11.493,-26.833,29.68,0.336,0.42166,-0.14099,0.83026,425,0.963,-0.123,0.169,1.709,-1.099,0.671,-37.255,-77.953,-134.39,-30.453,-9.52,-3.38,30.06,0.09998,-0.64514,-0.00162,-0.75742,427
108,0.978,-0.15,0.252,1.404,-3.052,1.099,-30.267,-73.323,-165.141,-26.827,-9.573,-10.86,27.58,-0.05548,-0.59705,0.13367,-0.78897,434,0.712,-0.02,0.712,-2.197,-0.366,0.427,-3.263,-45.297,-123.613,-22.08,-9.28,-2.62,25.42,0.42627,-0.3512,-0.15897,-0.81827,436,0.79,0.073,0.618,-3.357,1.343,0.366,4.763,-52.696,133.347,-19.307,-11.493,-26.833,29.68,0.336,0.42166,-0.14099,0.83026,432,0.967,-0.119,0.164,1.709,-1.343,1.343,-37.386,-77.959,-134.225,-30.453,-9.52,-3.38,30.06,0.09998,-0.64514,-0.00162,-0.75742,438
109,0.982,-0.146,0.251,0.916,-3.418,1.404,-30.443,-73.367,-164.949,-26.827,-9.573,-10.86,27.58,-0.05548,-0.59705,0.13367,-0.78897,435,0.712,-0.019,0.71,-3.418,-1.221,0.671,-3.334,-45.313,-123.591,-22.08,-9.28,-2.62,25.42,0.42627,-0.3512,-0.15897,-0.81827,437,0.782,0.067,0.624,-5.859,1.404,0.916,4.647,-52.663,133.347,-19.307,-11.493,-26.833,29.68,0.336,0.42166,-0.14099,0.83026,433,0.967,-0.116,0.162,1.221,-2.136,2.197,-37.628,-77.97,-133.962,-30.453,-9.52,-3.38,30.06,0.09998,-0.64514,-0.00162,-0.75742,439
110,0.98,-0.144,0.254,0.244,-3.113,1.709,-30.635,-73.4,-164.756,-26.827,-9.573,-10.86,27.58,-0.05548,-0.59705,0.13367,-0.78897,444,0.713,-0.023,0.71,-4.15,-2.502,0.916,-3.428,-45.363,-123.552,-22.08,-9.28,-2.62,25.42,0.42627,-0.3512,-0.15897,-0.81827,440,0.786,0.063,0.616,-9.827,0.977,0.427,4.471,-52.641,133.33,-19.307,-11.493,-26.833,29.68,0.336,0.42166,-0.14099,0.83026,442,0.967,-0.116,0.166,0.427,-2.38,2.625,-37.93,-77.975,-133.643,-30.453,-9.52,-3.38,30.06,0.09998,-0.64514,-0.00162,-0.75742,446
111,0.977,-0.14,0.257,-0.61,-3.296,2.075,-30.866,-73.438,-164.531,-26.827,-9.573,-10.86,27.58,-0.05548,-0.59705,0.13367,-0.78897,445,0.719,-0.033,0.704,-6.226,-2.197,1.099,-3.565,-45.401,-123.508,-22.08,-9.28,-2.62,25.42,0.42627,-0.3512,-0.15897,-0.81827,441,0.79,0.066,0.608,-12.329,0.61,3.113,4.186,-52.625,133.363,-19.307,-11.493,-26.833,29.68,0.336,0.42166,-0.14099,0.83026,443,0.961,-0.119,0.169,0.0,-2.38,2.869,-38.254,-77.975,-133.314,-30.453,-9.52,-3.38,30.06,0.09998,-0.64514,-0.00162,-0.75742,447
112,0.97,-0.148,0.251,-1.038,-3.479,2.075,-31.113,-73.471,-164.284,-26.827,-9.573,-10.86,27.58,-0.05356,-0.59995,0.134,-0.78683,448,0.714,-0.041,0.693,-4.883,-2.563,2.075,-3.691,-45.445,-123.453,-22.08,-9.28,-2.62,25.42,0.42627,-0.3512,-0.15897,-0.81827,450,0.785,0.058,0.607,-13.489,-1.404,5.371,3.823,-52.641,133.478,-19.307,-11.493,-26.833,29.68,0.336,0.42166,-0.14099,0.83026,454,0.959,-0.134,0.171,-0.244,-1.892,2.808,-38.546,-77.97,-133.017,-30.453,-9.52,-3.38,30.06,0.09998,-0.64514,-0.00162,-0.75742,452
113,0.969,-0.157,0.249,-0.671,-4.395,1.831,-31.377,-73.526,-164.004,-26.827,-9.573,-10.86,27.58,-0.05356,-0.59995,0.134,-0.78683,449,0.721,-0.036,0.7,-5.676,-2.563,3.052,-3.856,-45.489,-123.365,-22.08,-9.28,-2.62,25.42,0.42627,-0.3512,-0.15897,-0.81827,451,0.801,0.05,0.603,-12.634,-3.54,5.615,3.45,-52.701,133.638,-19.307,-11.493,-26.833,29.68,0.336,0.42166,-0.14099,0.83026,455,0.968,-0.124,0.157,0.793,-1.831,3.052,-38.837,-77.959,-132.698,-30.453,-9.52,-3.38,30.06,0.09998,-0.64514,-0.00162,-0.75742,453
114,0.981,-0.148,0.245,0.0,-5.31,1.343,-31.63,-73.597,-163.724,-26.827,-9.573,-10.86,27.58,-0.05356,-0.59995,0.134,-0.78683,456,0.715,-0.046,0.698,-6.042,-1.831,2.319,-4.026,-45.533,-123.283,-22.08,-9.28,-2.62,25.42,0.42627,-0.3512,-0.15897,-0.81827,462,0.809,0.048,0.602,-11.78,-3.479,7.507,3.06,-52.773,133.824,-19.533,-11.24,-27.147,29.68,0.336,0.42166,-0.14099,0.83026,458,0.969,-0.124,0.151,0.366,-2.319,3.052,-39.133,-77.948,-132.369,-30.453,-9.52,-3.38,30.06,0.09998,-0.64514,-0.00162,-0.75742,460
115,0.989,-0.146,0.242,-0.366,-4.944,0.854,-31.844,-73.669,-163.51,-26.827,-9.573,-10.86,27.58,-0.05356,-0.59995,0.134,-0.78683,457,0.721,-0.051,0.702,-5.676,-1.099,2.014,-4.175,-45.56,-123.212,-22.08,-9.28,-2.62,25.42,0.42627,-0.3512,-0.15897,-0.81827,463,0.792,0.042,0.599,-9.949,-4.822,11.78,2.609,-52.872,134.127,-19.533,-11.24,-27.147,29.68,0.336,0.42166,-0.14099,0.83026,459,0.967,-0.127,0.146,-1.282,-3.235,3.357,-39.485,-77.948,-132.001,-30.453,-9.52,-3.38,30.06,0.09998,-0.64514,-0.00162,-0.75742,461
116,0.985,-0.15,0.239,-1.526,-3.845,0.732,-32.042,-73.729,-163.334,-26.827,-9.573,-10.86,27.58,-0.05356,-0.59995,0.134,-0.78683,464,0.724,-0.064,0.696,-3.723,-1.221,1.892,-4.307,-45.577,-123.162,-22.08,-9.28,-2.62,25.42,0.42627,-0.3512,-0.15897,-0.81827,472,0.794,0.022,0.603,-8.911,-7.507,14.038,2.109,-53.015,134.528,-19.533,-11.24,-27.147,29.68,0.336,0.42166,-0.14099,0.83026,466,0.964,-0.133,0.15,-2.808,-3.662,3.601,-39.941,-77.959,-131.55,-30.453,-9.52,-3.38,30.06,0.09998,-0.64514,-0.00162,-0.75742,468
117,0.981,-0.152,0.237,-3.235,-2.991,1.099,-32.267,-73.762,-163.174,-26.827,-9.573,-10.86,27.58,-0.05356,-0.59995,0.134,-0.78683,465,0.719,-0.067,0.687,-0.854,-0.732,2.197,-4.4,-45.593,-123.118,-22.08,-9.28,-2.62,25.42,0.42627,-0.3512,-0.15897,-0.81827,473,0.789,0.01,0.583,-5.066,-9.216,14.099,1.648,-53.196,134.956,-19.533,-11.24,-27.147,29.68,0.336,0.42166,-0.14099,0.83026,467,0.962,-0.136,0.147,-2.93,-3.723,3.296,-40.452,-77.975,-131.067,-30.453,-9.52,-3.38,30.06,0.09998,-0.64514,-0.00162,-0.75742,469
118,0.98,-0.152,0.24,-4.15,-2.686,1.343,-32.514,-73.795,-163.01,-26.827,-9.573,-10.86,27.58,-0.05356,-0.59995,0.134,-0.78683,470,0.715,-0.06,0.688,0.0,-1.709,2.625,-4.455,-45.61,-123.058,-22.053,-9.053,-2.68,25.42,0.42627,-0.3512,-0.15897,-0.81827,476,0.788,0.015,0.576,-1.892,-9.155,14.648,1.241,-53.377,135.401,-19.533,-11.24,-27.147,29.68,0.33597,0.41861,-0.16006,0.82834,474,0.959,-0.135,0.149,-2.136,-3.601,2.93,-40.946,-77.992,-130.638,-30.747,-9.56,-2.413,30.06,0.09998,-0.64514,-0.00162,-0.75742,478
119,0.977,-0.153,0.241,-3.601,-2.38,1.16,-32.728,-73.817,-162.856,-26.827,-9.573,-10.86,27.58,-0.05356,-0.59995,0.134,-0.78683,471,0.714,-0.062,0.684,1.16,-2.014,2.441,-4.499,-45.643,-122.986,-22.053,-9.053,-2.68,25.42,0.42627,-0.3512,-0.15897,-0.81827,477,0.79,0.006,0.571,-1.16,-7.141,14.893,0.846,-53.531,135.851,-19.533,-11.24,-27.147,29.68,0.33597,0.41861,-0.16006,0.82834,475,0.96,-0.133,0.151,-1.221,-3.723,2.747,-41.396,-78.008,-130.243,-30.747,-9.56,-2.413,30.06,0.09998,-0.64514,-0.00162,-0.75742,479
120,0.975,-0.151,0.244,-2.747,-1.526,0.916,-32.882,-73.834,-162.74,-26.827,-9.573,-10.86,27.58,-0.05356,-0.59995,0.134,-0.78683,480,0.716,-0.067,0.681,2.747,-1.77,2.136,-4.515,-45.681,-122.921,-22.053,-9.053,-2.68,25.42,0.42627,-0.3512,-0.15897,-0.81827,486,0.789,-0.007,0.57,1.16,-5.981,14.038,0.5,-53.657,136.291,-19.533,-11.24,-27.147,29.68,0.33597,0.41861,-0.16006,0.82834,482,0.96,-0.137,0.153,-0.732,-3.235,2.686,-41.819,-78.03,-129.858,-30.747,-9.56,-2.413,30.06,0.104,-0.65024,0.00211,-0.7525,484
121,0.975,-0.152,0.246,-2.441,-0.793,0.916,-32.997,-73.834,-162.664,-26.827,-9.573,-10.86,27.58,-0.05356,-0.59995,0.134,-0.78683,481,0.722,-0.071,0.682,3.479,-1.404,1.953,-4.504,-45.714,-122.86,-22.053,-9.053,-2.68,25.42,0.42627,-0.3512,-0.15897,-0.81827,487,0.798,-0.016,0.562,2.197,-6.897,10.437,0.253,-53.789,136.626,-19.533,-11.24,-27.147,29.68,0.33597,0.41861,-0.16006,0.82834,483,0.964,-0.139,0.151,-1.038,-2.625,2.441,-42.193,-78.041,-129.501,-30.747,-9.56,-2.413,30.06,0.104,-0.65024,0.00211,-0.7525,485
122,0.978,-0.154,0.242,-2.38,-0.549,1.038,-33.107,-73.828,-162.592,-26.827,-9.573,-10.86,27.58,-0.05356,-0.59995,0.134,-0.78683,488,0.728,-0.067,0.679,3.662,-0.916,1.831,-4.477,-45.742,-122.8,-22.053,-9.053,-2.68,25.42,0.42722,-0.35822,-0.15414,-0.81567,490,0.803,-0.011,0.553,2.625,-5.981,8.85,0.066,-53.915,136.901,-19.533,-11.24,-27.147,29.68,0.33597,0.41861,-0.16006,0.82834,494,0.971,-0.14,0.146,-1.709,-2.014,2.197,-42.523,-78.047,-129.21,-30.747,-9.56,-2.413,30.06,0.104,-0.65024,0.00211,-0.7525,492
123,0.984,-0.155,0.24,-2.93,-0.305,0.977,-33.223,-73.823,-162.526,-26.827,-9.573,-10.86,27.58,-0.05356,-0.59995,0.134,-0.78683,489,0.728,-0.062,0.686,3.113,-0.854,1.587,-4.449,-45.758,-122.745,-22.053,-9.053,-2.68,25.42,0.42722,-0.35822,-0.15414,-0.81567,491,0.811,-0.012,0.558,2.563,-2.93,8.667,-0.104,-53.987,137.175,-19.533,-11.24,-27.147,29.68,0.33597,0.41861,-0.16006,0.82834,495,0.974,-0.141,0.145,-2.319,-1.709,2.014,-42.819,-78.047,-128.963,-30.747,-9.56,-2.413,30.06,0.104,-0.65024,0.00211,-0.7525,493
124,0.988,-0.156,0.237,-3.357,0.122,0.793,-33.316,-73.812,-162.499,-26.827,-9.573,-10.86,27.58,-0.05356,-0.59995,0.134,-0.78683,496,0.725,-0.058,0.698,2.319,-0.549,1.221,-4.427,-45.775,-122.695,-22.053,-9.053,-2.68,25.42,0.42722,-0.35822,-0.15414,-0.81567,498,0.811,-0.018,0.573,2.38,-0.732,6.348,-0.236,-54.014,137.401,-19.533,-11.24,-27.147,29.68,0.33597,0.41861,-0.16006,0.82834,500,0.973,-0.144,0.147,-2.563,-1.404,1.892,-43.094,-78.041,-128.738,-30.747,-9.56,-2.413,30.06,0.104,-0.65024,0.00211,-0.7525,502
125,0.989,-0.159,0.24,-3.845,0.305,0.488,-33.398,-73.801,-162.488,-26.827,-9.573,-10.86,27.58,-0.05356,-0.59995,0.134,-0.78683,497,0.72,-0.057,0.705,0.793,-0.488,0.732,-4.422,-45.791,-122.651,-22.053,-9.053,-2.68,25.42,0.42722,-0.35822,-0.15414,-0.81567,499,0.809,-0.02,0.585,1.099,-0.427,4.15,-0.335,-54.025,137.56,-19.533,-11.24,-27.147,29.68,0.33597,0.41861,-0.16006,0.82834,501,0.968,-0.142,0.147,-2.441,-1.282,1.831,-43.352,-78.036,-128.507,-30.747,-9.56,-2.413,30.06,0.104,-0.65024,0.00211,-0.7525,503
126,0.986,-0.159,0.241,-3.418,0.305,0.244,-33.459,-73.79,-162.493,-27.113,-9.26,-10.1,27.58,-0.05356,-0.59995,0.134,-0.78683,510,0.717,-0.058,0.708,-0.61,-0.671,-0.122,-4.427,-45.802,-122.635,-22.053,-9.053,-2.68,25.42,0.42722,-0.35822,-0.15414,-0.81567,506,0.807,-0.025,0.593,-0.61,-0.427,1.16,-0.39,-54.036,137.637,-19.533,-11.24,-27.147,29.68,0.33597,0.41861,-0.16006,0.82834,504,0.964,-0.141,0.148,-2.747,-1.526,1.77,-43.605,-78.036,-128.304,-30.747,-9.56,-2.413,30.06,0.104,-0.65024,0.00211,-0.7525,508
127,0.981,-0.157,0.239,-3.235,0.122,0.061,-33.514,-73.784,-162.532,-27.113,-9.26,-10.1,27.58,-0.05356,-0.59995,0.134,-0.78683,511,0.719,-0.069,0.704,-1.404,-1.038,-0.732,-4.444,-45.818,-122.646,-22.053,-9.053,-2.68,25.42,0.42722,-0.35822,-0.15414,-0.81567,507,0.804,-0.026,0.594,-1.709,-0.427,-1.648,-0.401,-54.047,137.615,-19.533,-11.24,-27.147,29.68,0.33597,0.41861,-0.16006,0.82834,505,0.963,-0.148,0.147,-3.235,-1.831,1.648,-43.874,-78.03,-128.101,-30.747,-9.56,-2.413,30.06,0.104,-0.65024,0.00211,-0.7525,509
128,0.979,-0.16,0.234,-3.601,-0.427,-0.061,-33.591,-73.795,-162.548,-27.113,-9.26,-10.1,27.58,-0.05545,-0.60315,0.14136,-0.78296,514,0.72,-0.072,0.699,-1.465,-1.465,-0.793,-4.466,-45.846,-122.668,-22.053,-9.053,-2.68,25.42,0.42722,-0.35822,-0.15414,-0.81567,512,0.806,-0.025,0.589,-1.953,-0.366,-3.174,-0.368,-54.053,137.543,-19.533,-11.24,-27.147,29.68,0.33597,0.41861,-0.16006,0.82834,516,0.964,-0.153,0.146,-3.418,-2.014,1.16,-44.154,-78.041,-127.875,-30.747,-9.56,-2.413,30.06,0.104,-0.65024,0.00211,-0.7525,518
129,0.979,-0.163,0.237,-3.662,-0.732,-0.122,-33.679,-73.806,-162.548,-27.113,-9.26,-10.1,27.58,-0.05545,-0.60315,0.14136,-0.78296,515,0.723,-0.073,0.692,-0.916,-1.648,-0.488,-4.488,-45.873,-122.673,-22.053,-9.053,-2.68,25.42,0.42722,-0.35822,-0.15414,-0.81567,513,0.805,-0.02,0.586,-1.038,-1.16,-4.456,-0.291,-54.075,137.444,-19.533,-11.24,-27.147,29.68,0.33597,0.41861,-0.16006,0.82834,517,0.964,-0.155,0.143,-2.991,-1.953,0.488,-44.412,-78.052,-127.65,-30.747,-9.56,-2.413,30.06,0.104,-0.65024,0.00211,-0.7525,519
130,0.98,-0.166,0.234,-1.587,-0.977,-0.427,-33.75,-73.823,-162.559,-27.113,-9.26,-10.1,27.58,-0.05545,-0.60315,0.14136,-0.78296,524,0.726,-0.077,0.687,0.183,-1.953,-0.061,-4.504,-45.912,-122.679,-22.053,-9.053,-2.68,25.42,0.42722,-0.35822,-0.15414,-0.81567,520,0.808,-0.015,0.575,0.671,-1.404,-5.188,-0.159,-54.102,137.307,-19.533,-11.24,-27.147,29.68,0.33597,0.41861,-0.16006,0.82834,526,0.967,-0.157,0.145,-2.075,-1.648,-0.122,-44.615,-78.074,-127.491,-30.747,-9.56,-2.413,30.06,0.104,-0.65024,0.00211,-0.7525,522
131,0.984,-0.167,0.235,0.0,-1.038,-0.671,-33.783,-73.845,-162.565,-27.113,-9.26,-10.1,27.58,-0.05545,-0.60315,0.14136,-0.78296,525,0.73,-0.077,0.682,1.587,-1.77,0.305,-4.51,-45.945,-122.673,-22.053,-9.053,-2.68,25.42,0.42722,-0.35822,-0.15414,-0.81567,521,0.81,-0.013,0.571,2.258,-1.648,-4.517,-0.011,-54.135,137.17,-19.533,-11.24,-27.147,29.68,0.33597,0.41861,-0.16006,0.82834,527,0.971,-0.156,0.145,-0.61,-1.343,-0.793,-44.742,-78.096,-127.392,-30.747,-9.56,-2.413,30.06,0.104,-0.65024,0.00211,-0.7525,523
132,0.988,-0.164,0.236,1.221,-0.977,-0.671,-33.783,-73.867,-162.587,-27.113,-9.26,-10.1,27.58,-0.05545,-0.60315,0.14136,-0.78296,528,0.734,-0.071,0.687,2.869,-1.587,0.427,-4.499,-45.983,-122.662,-22.053,-9.053,-2.68,25.42,0.42722,-0.35822,-0.15414,-0.81567,530,0.814,-0.013,0.569,3.235,-1.892,-3.845,0.137,-54.168,137.071,-20.207,-10.207,-26.347,29.68,0.33597,0.41861,-0.16006,0.82834,532,0.974,-0.15,0.142,0.427,-0.854,-1.282,-44.753,-78.124,-127.359,-30.747,-9.56,-2.413,30.06,0.104,-0.65024,0.00211,-0.7525,534
133,0.991,-0.161,0.235,1.526,-0.977,-0.671,-33.761,-73.889,-162.603,-27.113,-9.26,-10.1,27.58,-0.05545,-0.60315,0.14136,-0.78296,529,0.737,-0.063,0.687,3.54,-1.404,0.366,-4.46,-46.016,-122.651,-22.053,-9.053,-2.68,25.42,0.42722,-0.35822,-0.15414,-0.81567,531,0.816,-0.006,0.568,3.662,-1.038,-3.601,0.291,-54.196,136.989,-20.207,-10.207,-26.347,29.68,0.33597,0.41861,-0.16006,0.82834,533,0.976,-0.145,0.14,0.549,-0.549,-1.404,-44.709,-78.146,-127.386,-30.747,-9.56,-2.413,30.06,0.104,-0.65024,0.00211,-0.7525,535
134,0.988,-0.161,0.233,1.465,-0.793,-0.488,-33.739,-73.905,-162.62,-27.113,-9.26,-10.1,27.58,-0.05545,-0.60315,0.14136,-0.78296,536,0.739,-0.057,0.685,3.662,-0.977,0.244,-4.417,-46.044,-122.646,-22.053,-9.053,-2.68,25.42,0.42722,-0.35822,-0.15414,-0.81567,538,0.817,0.004,0.565,4.15,-0.488,-2.686,0.434,-54.212,136.923,-20.207,-10.207,-26.347,29.68,0.33597,0.41861,-0.16006,0.82834,540,0.973,-0.144,0.136,0.549,-0.305,-1.282,-44.648,-78.173,-127.441,-31.04,-9.113,-2.447,30.06,0.104,-0.65024,0.00211,-0.7525,542
135,0.986,-0.16,0.228,1.648,-0.61,-0.244,-33.717,-73.922,-162.625,-27.113,-9.26,-10.1,27.58,-0.05545,-0.60315,0.14136,-0.78296,537,0.74,-0.054,0.681,3.479,-0.488,0.183,-4.362,-46.06,-122.646,-22.053,-9.053,-2.68,25.42,0.42722,-0.35822,-0.15414,-0.81567,539,0.818,0.009,0.562,4.395,-0.488,-1.221,0.549,-54.229,136.901,-20.207,-10.207,-26.347,29.68,0.33597,0.41861,-0.16006,0.82834,541,0.972,-0.142,0.133,0.916,0.0,-1.099,-44.577,-78.19,-127.496,-31.04,-9.113,-2.447,30.06,0.104,-0.65024,0.00211,-0.7525,543
136,0.985,-0.157,0.227,1.709,-0.488,-0.244,-33.706,-73.932,-162.614,-27.113,-9.26,-10.1,27.58,-0.05545,-0.60315,0.14136,-0.78296,544,0.734,-0.048,0.676,2.93,-0.061,0.122,-4.312,-46.077,-122.635,-22.193,-8.667,-2.993,25.42,0.42722,-0.35822,-0.15414,-0.81567,546,0.816,0.011,0.556,4.395,0.0,-0.488,0.643,-54.24,136.912,-20.207,-10.207,-26.347,29.68,0.32483,0.42548,-0.16339,0.82864,548,0.97,-0.14,0.132,1.099,0.0,-0.854,-44.511,-78.201,-127.551,-31.04,-9.113,-2.447,30.06,0.10306,-0.65347,0.00577,-0.74982,550
137,0.986,-0.155,0.232,2.014,-0.244,-0.244,-33.679,-73.943,-162.587,-27.113,-9.26,-10.1,27.58,-0.05545,-0.60315,0.14136,-0.78296,545,0.733,-0.044,0.682,2.075,0.305,0.0,-4.268,-46.082,-122.624,-22.193,-8.667,-2.993,25.42,0.42722,-0.35822,-0.15414,-0.81567,547,0.814,0.014,0.56,3.723,1.282,-0.488,0.725,-54.229,136.895,-20.207,-10.207,-26.347,29.68,0.32483,0.42548,-0.16339,0.82864,549,0.969,-0.136,0.136,1.343,0.427,-0.671,-44.44,-78.212,-127.628,-31.04,-9.113,-2.447,30.06,0.10306,-0.65347,0.00577,-0.74982,551
138,0.985,-0.153,0.231,2.136,0.0,-0.122,-33.646,-73.949,-162.576,-27.113,-9.26,-10.1,27.58,-0.05545,-0.60315,0.14136,-0.78296,554,0.729,-0.044,0.685,0.732,0.549,-0.122,-4.241,-46.082,-122.624,-22.193,-8.667,-2.993,25.42,0.42722,-0.35822,-0.15414,-0.81567,552,0.813,0.015,0.57,2.136,0.732,-0.732,0.786,-54.223,136.857,-20.207,-10.207,-26.347,29.68,0.32483,0.42548,-0.16339,0.82864,556,0.968,-0.136,0.133,1.404,0.549,-0.488,-44.357,-78.212,-127.722,-31.04,-9.113,-2.447,30.06,0.10306,-0.65347,0.00577,-0.74982,558
139,0.983,-0.156,0.229,1.892,0.549,-0.122,-33.596,-73.949,-162.592,-27.113,-9.26,-10.1,27.58,-0.05545,-0.60315,0.14136,-0.78296,555,0.727,-0.049,0.689,-0.061,0.671,-0.366,-4.23,-46.082,-122.635,-22.193,-8.667,-2.993,25.42,0.42722,-0.35822,-0.15414,-0.81567,553,0.81,0.01,0.571,0.305,1.099,-0.916,0.818,-54.212,136.796,-20.207,-10.207,-26.347,29.68,0.32483,0.42548,-0.16339,0.82864,557,0.967,-0.14,0.138,0.977,0.488,-0.183,-44.297,-78.212,-127.782,-31.04,-9.113,-2.447,30.06,0.10306,-0.65347,0.00577,-0.74982,559
140,0.983,-0.158,0.233,1.648,0.488,0.0,-33.541,-73.943,-162.625,-27.113,-9.26,-10.1,27.58,-0.05545,-0.60315,0.14136,-0.78296,564,0.728,-0.048,0.693,-0.549,0.549,-0.244,-4.23,-46.077,-122.64,-22.193,-8.667,-2.993,25.42,0.42868,-0.35944,-0.1579,-0.81363,566,0.808,0.014,0.584,-1.343,0.366,-0.61,0.813,-54.212,136.752,-20.207,-10.207,-26.347,29.68,0.32483,0.42548,-0.16339,0.82864,560,0.968,-0.143,0.141,0.977,0.488,-0.122,-44.253,-78.212,-127.82,-31.04,-9.113,-2.447,30.06,0.10306,-0.65347,0.00577,-0.74982,562
141,0.985,-0.157,0.233,1.831,0.488,-0.061,-33.497,-73.938,-162.664,-27.113,-9.26,-10.1,27.58,-0.05545,-0.60315,0.14136,-0.78296,565,0.727,-0.048,0.69,-0.488,0.488,0.244,-4.235,-46.077,-122.651,-22.193,-8.667,-2.993,25.42,0.42868,-0.35944,-0.1579,-0.81363,567,0.813,0.02,0.581,-1.892,-0.427,0.61,0.769,-54.223,136.741,-20.207,-10.207,-26.347,29.68,0.32483,0.42548,-0.16339,0.82864,561,0.969,-0.141,0.14,0.977,0.488,-0.183,-44.203,-78.206,-127.848,-31.04,-9.113,-2.447,30.06,0.10306,-0.65347,0.00577,-0.74982,563
142,0.984,-0.156,0.236,1.709,0.671,-0.061,-33.448,-73.932,-162.702,-27.333,-9.247,-10.733,27.58,-0.05545,-0.60315,0.14136,-0.78296,568,0.724,-0.046,0.691,-0.427,0.549,0.305,-4.252,-46.071,-122.651,-22.193,-8.667,-2.993,25.42,0.42868,-0.35944,-0.1579,-0.81363,570,0.802,0.012,0.583,-1.343,-1.465,1.282,0.714,-54.25,136.747,-20.207,-10.207,-26.347,29.68,0.32483,0.42548,-0.16339,0.82864,572,0.966,-0.138,0.142,1.038,0.549,0.061,-44.165,-78.206,-127.859,-31.04,-9.113,-2.447,30.06,0.10306,-0.65347,0.00577,-0.74982,574
143,0.978,-0.152,0.238,1.16,0.977,0.0,-33.393,-73.922,-162.751,-27.333,-9.247,-10.733,27.58,-0.05545,-0.60315,0.14136,-0.78296,569,0.718,-0.049,0.688,-0.427,0.427,0.183,-4.268,-46.066,-122.651,-22.193,-8.667,-2.993,25.42,0.42868,-0.35944,-0.1579,-0.81363,571,0.802,0.007,0.571,-0.793,-1.709,0.488,0.676,-54.289,136.752,-20.207,-10.207,-26.347,29.68,0.32483,0.42548,-0.16339,0.82864,573,0.96,-0.136,0.141,0.916,0.732,0.183,-44.121,-78.195,-127.881,-31.04,-9.113,-2.447,30.06,0.10306,-0.65347,0.00577,-0.74982,575
144,0.976,-0.149,0.237,0.244,1.709,0.0,-33.333,-73.905,-162.817,-27.333,-9.247,-10.733,27.58,-0.05545,-0.60315,0.14136,-0.78296,578,0.716,-0.049,0.687,-0.488,0.793,-0.061,-4.279,-46.06,-122.651,-22.193,-8.667,-2.993,25.42,0.42868,-0.35944,-0.1579,-0.81363,576,0.803,0.004,0.573,-0.732,-1.709,-0.549,0.676,-54.327,136.73,-20.207,-10.207,-26.347,29.68,0.32483,0.42548,-0.16339,0.82864,580,0.96,-0.132,0.141,0.427,0.793,0.305,-44.088,-78.184,-127.903,-31.04,-9.113,-2.447,30.06,0.10306,-0.65347,0.00577,-0.74982,582
145,0.977,-0.147,0.24,-1.099,2.197,0.0,-33.272,-73.872,-162.894,-27.333,-9.247,-10.733,27.58,-0.05545,-0.60315,0.14136,-0.78296,579,0.713,-0.055,0.688,-0.488,1.587,-1.16,-4.279,-46.049,-122.684,-22.193,-8.667,-2.993,25.42,0.42868,-0.35944,-0.1579,-0.81363,577,0.8,-0.006,0.565,0.0,-3.54,-1.648,0.709,-54.393,136.664,-20.207,-10.207,-26.347,29.68,0.32483,0.42548,-0.16339,0.82864,581,0.959,-0.133,0.145,-0.366,0.977,0.366,-44.055,-78.173,-127.936,-31.04,-9.113,-2.447,30.06,0.10306,-0.65347,0.00577,-0.74982,583
146,0.979,-0.151,0.238,-2.625,2.502,-0.122,-33.212,-73.839,-163.01,-27.333,-9.247,-10.733,27.58,-0.05624,-0.60339,0.14066,-0.78287,588,0.714,-0.05,0.699,-1.77,1.343,-1.77,-4.268,-46.027,-122.745,-22.193,-8.667,-2.993,25.42,0.42868,-0.35944,-0.1579,-0.81363,584,0.802,-0.004,0.575,-0.305,-2.686,-3.479,0.786,-54.454,136.549,-20.207,-10.207,-26.347,29.68,0.32483,0.42548,-0.16339,0.82864,586,0.965,-0.14,0.143,-1.282,0.61,0.183,-44.044,-78.157,-127.963,-31.04,-9.113,-2.447,30.06,0.10306,-0.65347,0.00577,-0.74982,590
147,0.983,-0.155,0.241,-3.479,2.869,-0.427,-33.157,-73.801,-163.136,-27.333,-9.247,-10.733,27.58,-0.05624,-0.60339,0.14066,-0.78287,589,0.715,-0.049,0.704,-3.967,1.038,-1.831,-4.285,-46.005,-122.805,-22.193,-8.667,-2.993,25.42,0.42868,-0.35944,-0.1579,-0.81363,585,0.807,0.005,0.59,-1.831,-0.305,-5.493,0.89,-54.47,136.373,-20.207,-10.207,-26.347,29.68,0.32483,0.42548,-0.16339,0.82864,587,0.967,-0.143,0.145,-2.441,0.122,0.0,-44.066,-78.157,-127.996,-31.04,-9.113,-2.447,30.06,0.10306,-0.65347,0.00577,-0.74982,591
148,0.981,-0.157,0.243,-4.517,3.174,-0.732,-33.091,-73.757,-163.284,-27.333,-9.247,-10.733,27.58,-0.05624,-0.60339,0.14066,-0.78287,594,0.713,-0.061,0.708,-5.798,0.732,-2.258,-4.34,-45.994,-122.866,-22.193,-8.667,-2.993,25.42,0.42868,-0.35944,-0.1579,-0.81363,592,0.803,-0.001,0.591,-4.211,0.549,-5.371,0.967,-54.459,136.181,-20.207,-10.207,-26.347,29.68,0.32483,0.42548,-0.16339,0.82864,596,0.965,-0.145,0.145,-3.906,0.0,-0.183,-44.127,-78.157,-128.057,-30.647,-9.153,-3.42,30.06,0.10306,-0.65347,0.00577,-0.74982,598
149,0.978,-0.159,0.242,-5.859,3.113,-1.038,-33.025,-73.713,-163.46,-27.333,-9.247,-10.733,27.58,-0.05624,-0.60339,0.14066,-0.78287,595,0.714,-0.063,0.71,-7.629,0.061,-2.747,-4.417,-45.989,-122.937,-22.193,-8.667,-2.993,25.42,0.42868,-0.35944,-0.1579,-0.81363,593,0.803,-0.013,0.599,-6.836,0.305,-6.348,1.0,-54.448,135.989,-20.207,-10.207,-26.347,29.68,0.32483,0.42548,-0.16339,0.82864,597,0.964,-0.147,0.147,-5.188,-0.122,-0.488,-44.203,-78.168,-128.106,-30.647,-9.153,-3.42,30.06,0.10306,-0.65347,0.00577,-0.74982,599
150,0.976,-0.159,0.245,-6.836,2.625,-1.465,-32.97,-73.68,-163.658,-27.333,-9.247,-10.733,27.58,-0.05624,-0.60339,0.14066,-0.78287,600,0.709,-0.067,0.71,-8.911,-0.671,-2.625,-4.526,-45.994,-123.003,-22.193,-8.667,-2.993,25.42,0.42868,-0.35944,-0.1579,-0.81363,606,0.807,-0.004,0.604,-8.057,-1.282,-8.24,1.049,-54.459,135.742,-19.4,-10.82,-25.98,29.68,0.32483,0.42548,-0.16339,0.82864,602,0.962,-0.149,0.155,-6.165,-0.427,-0.793,-44.291,-78.179,-128.15,-30.647,-9.153,-3.42,30.06,0.10025,-0.65317,0.00803,-0.75043,604
151,0.972,-0.158,0.249,-6.775,1.587,-1.953,-32.926,-73.658,-163.861,-27.333,-9.247,-10.733,27.58,-0.05624,-0.60339,0.14066,-0.78287,601,0.707,-0.075,0.711,-8.789,-1.099,-2.563,-4.653,-46.011,-123.063,-22.193,-8.667,-2.993,25.42,0.42868,-0.35944,-0.1579,-0.81363,607,0.799,-0.004,0.601,-7.812,-4.395,-8.24,1.11,-54.52,135.489,-19.4,-10.82,-25.98,29.68,0.32483,0.42548,-0.16339,0.82864,603,0.957,-0.152,0.161,-6.47,-0.61,-1.282,-44.379,-78.201,-128.194,-30.647,-9.153,-3.42,30.06,0.10025,-0.65317,0.00803,-0.75043,605
152,0.971,-0.158,0.245,-5.92,0.549,-2.686,-32.888,-73.658,-164.059,-27.333,-9.247,-10.733,27.58,-0.05624,-0.60339,0.14066,-0.78287,610,0.707,-0.074,0.705,-8.362,-1.892,-2.136,-4.785,-46.038,-123.118,-22.4,-8.867,-2.887,25.42,0.42868,-0.35944,-0.1579,-0.81363,612,0.798,-0.001,0.598,-7.69,-6.287,-6.897,1.148,-54.624,135.269,-19.4,-10.82,-25.98,29.68,0.32483,0.42548,-0.16339,0.82864,608,0.956,-0.153,0.155,-5.92,-0.732,-2.136,-44.418,-78.234,-128.265,-30.647,-9.153,-3.42,30.06,0.10025,-0.65317,0.00803,-0.75043,614
153,0.974,-0.159,0.244,-4.883,-0.122,-3.052,-32.827,-73.68,-164.251,-27.333,-9.247,-10.733,27.58,-0.05624,-0.60339,0.14066,-0.78287,611,0.714,-0.069,0.704,-7.019,-2.686,-1.16,-4.911,-46.077,-123.146,-22.4,-8.867,-2.887,25.42,0.42868,-0.35944,-0.1579,-0.81363,613,0.806,0.009,0.592,-6.47,-6.897,-5.92,1.176,-54.745,135.104,-19.4,-10.82,-25.98,29.68,0.32483,0.42548,-0.16339,0.82864,609,0.958,-0.149,0.154,-5.249,-1.038,-2.93,-44.401,-78.278,-128.364,-30.647,-9.153,-3.42,30.06,0.10025,-0.65317,0.00803,-0.75043,615
154,0.979,-0.16,0.237,-3.479,-0.671,-2.808,-32.756,-73.718,-164.438,-27.333,-9.247,-10.733,27.58,-0.05624,-0.60339,0.14066,-0.78287,616,0.721,-0.068,0.697,-4.578,-3.357,-0.061,-5.021,-46.126,-123.135,-22.4,-8.867,-2.887,25.42,0.42868,-0.35944,-0.1579,-0.81363,618,0.809,0.017,0.589,-3.784,-7.446,-4.456,1.219,-54.882,134.967,-19.4,-10.82,-25.98,29.68,0.33466,0.42841,-0.16711,0.82245,626,0.965,-0.146,0.147,-4.15,-1.465,-3.296,-44.363,-78.333,-128.485,-30.647,-9.153,-3.42,30.06,0.10025,-0.65317,0.00803,-0.75043,620
155,0.987,-0.156,0.235,-2.625,-1.221,-2.38,-32.701,-73.757,-164.57,-27.333,-9.247,-10.733,27.58,-0.05624,-0.60339,0.14066,-0.78287,617,0.725,-0.063,0.696,-2.991,-4.456,0.732,-5.114,-46.198,-123.091,-22.4,-8.867,-2.887,25.42,0.42868,-0.35944,-0.1579,-0.81363,619,0.819,0.019,0.587,-1.587,-9.277,-3.418,1.28,-55.047,134.863,-19.4,-10.82,-25.98,29.68,0.33466,0.42841,-0.16711,0.82245,627,0.969,-0.139,0.138,-3.418,-1.709,-3.235,-44.319,-78.398,-128.595,-30.647,-9.153,-3.42,30.06,0.10025,-0.65317,0.00803,-0.75043,621
156,0.985,-0.148,0.237,-2.258,-1.099,-1.892,-32.673,-73.801,-164.658,-27.333,-9.247,-10.733,27.58,-0.05624,-0.60339,0.14066,-0.78287,622,0.728,-0.054,0.697,-2.136,-5.554,0.977,-5.191,-46.285,-123.025,-22.4,-8.867,-2.887,25.42,0.42239,-0.36432,-0.1506,-0.81613,624,0.823,0.019,0.587,0.122,-11.841,-3.357,1.379,-55.267,134.764,-19.4,-10.82,-25.98,29.68,0.33466,0.42841,-0.16711,0.82245,628,0.971,-0.129,0.137,-3.357,-1.953,-2.991,-44.308,-78.459,-128.683,-30.647,-9.153,-3.42,30.06,0.10025,-0.65317,0.00803,-0.75043,630
157,0.987,-0.141,0.234,-2.197,-0.916,-1.648,-32.651,-73.834,-164.724,-27.333,-9.247,-10.733,27.58,-0.05624,-0.60339,0.14066,-0.78287,623,0.736,-0.054,0.687,-1.343,-6.348,0.61,-5.257,-46.39,-122.953,-22.4,-8.867,-2.887,25.42,0.42239,-0.36432,-0.1506,-0.81613,625,0.825,0.019,0.578,1.343,-13.0,-4.028,1.527,-55.508,134.648,-19.4,-10.82,-25.98,29.68,0.33466,0.42841,-0.16711,0.82245,629,0.975,-0.119,0.136,-3.479,-2.258,-2.625,-44.33,-78.525,-128.732,-30.647,-9.153,-3.42,30.06,0.10025,-0.65317,0.00803,-0.75043,631
158,0.988,-0.135,0.235,-2.747,-1.099,-1.526,-32.64,-73.867,-164.767,-27.333,-9.247,-10.733,27.58,-0.05624,-0.60339,0.14066,-0.78287,632,0.745,-0.05,0.688,-0.305,-7.324,-0.183,-5.284,-46.522,-122.904,-22.4,-8.867,-2.887,25.42,0.42239,-0.36432,-0.1506,-0.81613,638,0.82,0.017,0.56,1.343,-10.803,-5.127,1.703,-55.706,134.489,-19.4,-10.82,-25.98,29.68,0.33466,0.42841,-0.16711,0.82245,634,0.976,-0.116,0.138,-3.967,-2.686,-2.258,-44.412,-78.596,-128.743,-30.647,-9.153,-3.42,30.06,0.10025,-0.65317,0.00803,-0.75043,636
159,0.988,-0.139,0.238,-2.686,-1.404,-1.404,-32.646,-73.905,-164.784,-27.333,-9.247,-10.733,27.58,-0.05624,-0.60339,0.14066,-0.78287,633,0.742,-0.044,0.677,1.099,-7.996,-0.427,-5.279,-46.664,-122.871,-22.4,-8.867,-2.887,25.42,0.42239,-0.36432,-0.1506,-0.81613,639,0.828,0.038,0.551,2.014,-7.141,-6.47,1.939,-55.827,134.28,-19.4,-10.82,-25.98,29.68,0.33466,0.42841,-0.16711,0.82245,635,0.971,-0.118,0.133,-4.028,-2.502,-1.709,-44.522,-78.657,-128.71,-30.647,-9.153,-3.42,30.06,0.10025,-0.65317,0.00803,-0.75043,637
160,0.985,-0.141,0.228,-2.319,-0.916,-0.977,-32.662,-73.943,-164.773,-27.333,-9.247,-10.733,27.58,-0.05624,-0.60339,0.14066,-0.78287,640,0.74,-0.032,0.67,2.625,-7.996,-0.61,-5.24,-46.818,-122.844,-22.4,-8.867,-2.887,25.42,0.42239,-0.36432,-0.1506,-0.81613,646,0.824,0.049,0.548,2.502,-5.737,-5.31,2.148,-55.926,134.094,-19.4,-10.82,-25.98,29.68,0.33466,0.42841,-0.16711,0.82245,644,0.964,-0.114,0.117,-3.113,-2.441,-1.038,-44.654,-78.712,-128.617,-30.647,-9.153,-3.42,30.06,0.10025,-0.65317,0.00803,-0.75043,642
161,0.979,-0.132,0.218,-2.502,0.183,-0.488,-32.673,-73.965,-164.778,-27.333,-9.247,-10.733,27.58,-0.05624,-0.60339,0.14066,-0.78287,641,0.732,-0.031,0.667,2.93,-8.362,-1.282,-5.169,-46.983,-122.833,-22.4,-8.867,-2.887,25.42,0.42239,-0.36432,-0.1506,-0.81613,647,0.832,0.052,0.544,2.991,-9.033,-5.859,2.395,-56.096,133.868,-19.4,-10.82,-25.98,29.68,0.33466,0.42841,-0.16711,0.82245,645,0.961,-0.105,0.111,-2.014,-3.479,-0.061,-44.885,-78.766,-128.403,-30.647,-9.153,-3.42,30.06,0.10025,-0.65317,0.00803,-0.75043,643
162,0.979,-0.132,0.221,-2.319,0.916,-0.122,-32.673,-73.965,-164.822,-27.12,-9.247,-9.753,27.58,-0.05624,-0.60339,0.14066,-0.78287,654,0.735,-0.042,0.678,2.258,-8.179,-2.38,-5.081,-47.142,-122.844,-22.4,-8.867,-2.887,25.42,0.42239,-0.36432,-0.1506,-0.81613,648,0.825,0.044,0.543,4.578,-11.719,-4.883,2.659,-56.316,133.665,-19.4,-10.82,-25.98,29.68,0.33466,0.42841,-0.16711,0.82245,650,0.965,-0.113,0.123,-2.258,-4.761,0.244,-45.236,-78.832,-128.073,-30.647,-9.153,-3.42,30.06,0.10025,-0.65317,0.00803,-0.75043,652
163,0.982,-0.142,0.237,-1.404,0.732,0.061,-32.662,-73.96,-164.877,-27.12,-9.247,-9.753,27.58,-0.05624,-0.60339,0.14066,-0.78287,655,0.741,-0.056,0.673,0.61,-7.996,-3.113,-4.993,-47.307,-122.888,-22.4,-8.867,-2.887,25.42,0.42239,-0.36432,-0.1506,-0.81613,649,0.833,0.03,0.544,4.089,-11.292,-4.272,2.889,-56.525,133.5,-19.4,-10.82,-25.98,29.68,0.33466,0.42841,-0.16711,0.82245,651,0.971,-0.126,0.137,-1.709,-5.249,0.183,-45.632,-78.909,-127.711,-30.647,-9.153,-3.42,30.06,0.10025,-0.65317,0.00803,-0.75043,653
164,0.982,-0.153,0.25,-1.221,1.16,0.427,-32.657,-73.943,-164.91,-27.12,-9.247,-9.753,27.58,-0.06699,-0.60165,0.14688,-0.7822,658,0.744,-0.063,0.677,-1.038,-7.812,-3.601,-4.933,-47.466,-122.959,-22.4,-8.867,-2.887,25.42,0.42239,-0.36432,-0.1506,-0.81613,660,0.835,0.02,0.539,2.014,-11.902,-4.761,3.093,-56.75,133.319,-19.4,-10.82,-25.98,29.68,0.33466,0.42841,-0.16711,0.82245,656,0.972,-0.139,0.137,-1.892,-4.822,0.0,-46.005,-78.986,-127.381,-30.873,-9.193,-2.72,30.06,0.10025,-0.65317,0.00803,-0.75043,662
165,0.982,-0.165,0.25,-2.319,1.343,0.305,-32.651,-73.922,-164.932,-27.12,-9.247,-9.753,27.58,-0.06699,-0.60165,0.14688,-0.7822,659,0.757,-0.055,0.678,-3.174,-7.385,-3.479,-4.905,-47.615,-123.047,-22.4,-8.867,-2.887,25.42,0.42239,-0.36432,-0.1506,-0.81613,661,0.84,0.03,0.542,-0.244,-11.597,-5.554,3.274,-56.964,133.105,-19.4,-10.82,-25.98,29.68,0.33466,0.42841,-0.16711,0.82245,657,0.977,-0.147,0.139,-2.625,-4.456,0.122,-46.368,-79.047,-127.051,-30.873,-9.193,-2.72,30.06,0.10025,-0.65317,0.00803,-0.75043,663
166,0.981,-0.17,0.248,-2.747,0.854,0.061,-32.662,-73.905,-164.938,-27.12,-9.247,-9.753,27.58,-0.06699,-0.60165,0.14688,-0.7822,668,0.749,-0.06,0.667,-4.089,-6.531,-2.991,-4.911,-47.752,-123.118,-22.4,-8.867,-2.887,25.42,0.42239,-0.36432,-0.1506,-0.81613,664,0.839,0.044,0.518,-2.197,-7.019,-5.066,3.395,-57.096,132.907,-19.4,-10.82,-25.98,29.68,0.33466,0.42841,-0.16711,0.82245,666,0.973,-0.154,0.136,-2.502,-4.517,0.427,-46.758,-79.107,-126.7,-30.873,-9.193,-2.72,30.06,0.09155,-0.65961,0.01126,-0.74585,670
167,0.974,-0.175,0.253,-2.319,0.0,-0.061,-32.695,-73.894,-164.938,-27.12,-9.247,-9.753,27.58,-0.06699,-0.60165,0.14688,-0.7822,669,0.742,-0.067,0.673,-3.723,-5.859,-2.014,-4.944,-47.878,-123.162,-22.4,-8.867,-2.887,25.42,0.42239,-0.36432,-0.1506,-0.81613,665,0.834,0.045,0.528,-3.845,-3.967,-2.991,3.422,-57.162,132.786,-19.4,-10.82,-25.98,29.68,0.33466,0.42841,-0.16711,0.82245,667,0.965,-0.16,0.143,-2.136,-4.517,0.488,-47.159,-79.156,-126.332,-30.873,-9.193,-2.72,30.06,0.09155,-0.65961,0.01126,-0.74585,671
168,0.972,-0.178,0.252,-0.916,-0.977,0.0,-32.745,-73.9,-164.905,-27.12,-9.247,-9.753,27.58,-0.06699,-0.60165,0.14688,-0.7822,672,0.742,-0.071,0.674,-1.892,-5.31,-0.366,-4.982,-47.983,-123.168,-22.4,-8.867,-2.887,25.42,0.42239,-0.36432,-0.1506,-0.81613,674,0.834,0.046,0.544,-2.747,-6.47,-0.549,3.4,-57.288,132.753,-20.52,-10.92,-25.167,29.68,0.33466,0.42841,-0.16711,0.82245,678,0.96,-0.163,0.142,-0.916,-4.272,0.549,-47.532,-79.2,-125.964,-30.873,-9.193,-2.72,30.06,0.09155,-0.65961,0.01126,-0.74585,676
169,0.969,-0.176,0.249,-0.061,-1.587,0.427,-32.822,-73.916,-164.822,-27.12,-9.247,-9.753,27.58,-0.06699,-0.60165,0.14688,-0.7822,673,0.738,-0.07,0.666,0.671,-4.333,1.465,-5.015,-48.076,-123.124,-22.4,-8.867,-2.887,25.42,0.42239,-0.36432,-0.1506,-0.81613,675,0.838,0.046,0.533,-0.122,-7.08,1.709,3.367,-57.426,132.775,-20.52,-10.92,-25.167,29.68,0.33466,0.42841,-0.16711,0.82245,679,0.957,-0.16,0.134,0.183,-4.028,0.671,-47.884,-79.233,-125.601,-30.873,-9.193,-2.72,30.06,0.09155,-0.65961,0.01126,-0.74585,677
170,0.969,-0.172,0.247,0.854,-2.136,0.793,-32.932,-73.932,-164.696,-27.12,-9.247,-9.753,27.58,-0.06699,-0.60165,0.14688,-0.7822,686,0.743,-0.071,0.663,3.174,-3.235,2.747,-5.032,-48.137,-123.041,-22.4,-8.867,-2.887,25.42,0.42239,-0.36432,-0.1506,-0.81613,680,0.834,0.041,0.523,2.625,-7.568,4.578,3.296,-57.574,132.907,-20.52,-10.92,-25.167,29.68,0.33746,0.45108,-0.16904,0.80865,682,0.958,-0.154,0.136,1.221,-4.15,0.793,-48.23,-79.266,-125.222,-30.873,-9.193,-2.72,30.06,0.09155,-0.65961,0.01126,-0.74585,684
171,0.977,-0.167,0.246,1.831,-2.441,1.16,-33.058,-73.949,-164.531,-27.12,-9.247,-9.753,27.58,-0.06699,-0.60165,0.14688,-0.7822,687,0.749,-0.065,0.657,5.005,-2.502,3.662,-5.032,-48.186,-122.932,-22.4,-8.867,-2.887,25.42,0.42239,-0.36432,-0.1506,-0.81613,681,0.836,0.036,0.514,5.127,-4.944,6.226,3.224,-57.673,133.11,-20.52,-10.92,-25.167,29.68,0.33746,0.45108,-0.16904,0.80865,683,0.965,-0.149,0.129,2.136,-3.967,1.099,-48.565,-79.288,-124.827,-30.873,-9.193,-2.72,30.06,0.09155,-0.65961,0.01126,-0.74585,685
172,0.982,-0.162,0.242,1.831,-2.38,1.465,-33.201,-73.965,-164.339,-27.12,-9.247,-9.753,27.58,-0.06699,-0.60165,0.14688,-0.7822,688,0.755,-0.061,0.653,5.92,-1.831,4.272,-5.021,-48.219,-122.8,-22.833,-8.727,-2.567,25.42,0.42239,-0.36432,-0.1506,-0.81613,696,0.844,0.033,0.508,6.958,-1.404,5.676,3.197,-57.706,133.303,-20.52,-10.92,-25.167,29.68,0.33746,0.45108,-0.16904,0.80865,692,0.971,-0.144,0.122,2.258,-3.479,1.404,-48.878,-79.305,-124.459,-30.873,-9.193,-2.72,30.06,0.09155,-0.65961,0.01126,-0.74585,690
173,0.987,-0.158,0.238,1.77,-2.38,1.465,-33.349,-73.976,-164.152,-27.12,-9.247,-9.753,27.58,-0.06699,-0.60165,0.14688,-0.7822,689,0.758,-0.06,0.657,4.578,-1.099,4.333,-5.021,-48.235,-122.657,-22.833,-8.727,-2.567,25.42,0.42239,-0.36432,-0.1506,-0.81613,697,0.848,0.035,0.506,6.775,0.427,6.226,3.142,-57.706,133.528,-20.52,-10.92,-25.167,29.68,0.33746,0.45108,-0.16904,0.80865,693,0.977,-0.142,0.117,1.77,-3.296,1.526,-49.202,-79.316,-124.085,-30.873,-9.193,-2.72,30.06,0.09155,-0.65961,0.01126,-0.74585,691
174,0.991,-0.154,0.237,1.404,-2.625,1.282,-33.497,-73.998,-163.971,-27.12,-9.247,-9.753,27.58,-0.06699,-0.60165,0.14688,-0.7822,694,0.759,-0.051,0.668,2.075,-0.427,4.456,-5.054,-48.241,-122.514,-22.833,-8.727,-2.567,25.42,0.42282,-0.37732,-0.16101,-0.80795,698,0.854,0.037,0.515,3.906,2.93,7.751,2.983,-57.656,133.808,-20.52,-10.92,-25.167,29.68,0.33746,0.45108,-0.16904,0.80865,700,0.979,-0.138,0.12,1.16,-3.296,1.587,-49.543,-79.327,-123.695,-30.873,-9.193,-2.72,30.06,0.09155,-0.65961,0.01126,-0.74585,702
175,0.991,-0.147,0.241,0.793,-3.174,1.282,-33.662,-74.026,-163.768,-27.12,-9.247,-9.753,27.58,-0.06699,-0.60165,0.14688,-0.7822,695,0.76,-0.042,0.673,-0.244,0.305,4.639,-5.142,-48.235,-122.371,-22.833,-8.727,-2.567,25.42,0.42282,-0.37732,-0.16101,-0.80795,699,0.854,0.045,0.53,0.977,4.211,8.606,2.741,-57.585,134.121,-20.52,-10.92,-25.167,29.68,0.33746,0.45108,-0.16904,0.80865,701,0.98,-0.129,0.118,0.549,-3.357,1.709,-49.905,-79.338,-123.316,-30.873,-9.193,-2.72,30.06,0.09155,-0.65961,0.01126,-0.74585,703
176,0.989,-0.143,0.234,0.0,-3.296,1.343,-33.849,-74.059,-163.564,-27.12,-9.247,-9.753,27.58,-0.06699,-0.60165,0.14688,-0.7822,704,0.761,-0.046,0.666,-3.052,0.977,4.211,-5.262,-48.214,-122.25,-22.833,-8.727,-2.567,25.42,0.42282,-0.37732,-0.16101,-0.80795,708,0.845,0.039,0.53,-2.38,4.578,9.399,2.411,-57.508,134.467,-20.52,-10.92,-25.167,29.68,0.33746,0.45108,-0.16904,0.80865,706,0.979,-0.126,0.114,-0.122,-3.418,1.77,-50.284,-79.349,-122.937,-30.873,-9.193,-2.72,30.06,0.09155,-0.65961,0.01126,-0.74585,710
177,0.988,-0.149,0.229,-0.488,-3.418,1.221,-34.047,-74.097,-163.361,-27.12,-9.247,-9.753,27.58,-0.06699,-0.60165,0.14688,-0.7822,705,0.762,-0.061,0.658,-5.676,1.343,3.479,-5.438,-48.186,-122.146,-22.833,-8.727,-2.567,25.42,0.42282,-0.37732,-0.16101,-0.80795,709,0.843,0.025,0.52,-7.08,1.892,10.62,1.961,-57.486,134.857,-20.52,-10.92,-25.167,29.68,0.33746,0.45108,-0.16904,0.80865,707,0.975,-0.134,0.109,-0.549,-3.296,1.587,-50.647,-79.365,-122.574,-30.873,-9.193,-2.72,30.06,0.09155,-0.65961,0.01126,-0.74585,711
178,0.987,-0.154,0.228,-0.488,-3.296,0.854,-34.233,-74.136,-163.169,-27.12,-9.247,-9.753,27.58,-0.06699,-0.60165,0.14688,-0.7822,714,0.759,-0.06,0.654,-8.423,1.587,3.052,-5.652,-48.153,-122.064,-22.833,-8.727,-2.567,25.42,0.42282,-0.37732,-0.16101,-0.80795,712,0.847,0.023,0.515,-12.085,2.197,13.184,1.329,-57.458,135.319,-20.52,-10.92,-25.167,29.68,0.33746,0.45108,-0.16904,0.80865,716,0.975,-0.138,0.105,-0.671,-2.747,1.465,-50.966,-79.376,-122.256,-31.2,-8.933,-1.987,30.06,0.09155,-0.65961,0.01126,-0.74585,718
179,0.986,-0.152,0.229,-0.732,-2.808,0.671,-34.398,-74.174,-163.01,-27.12,-9.247,-9.753,27.58,-0.06699,-0.60165,0.14688,-0.7822,715,0.756,-0.065,0.655,-10.559,2.197,2.625,-5.9,-48.109,-121.987,-22.833,-8.727,-2.567,25.42,0.42282,-0.37732,-0.16101,-0.80795,713,0.842,0.018,0.513,-14.954,0.488,14.954,0.588,-57.464,135.824,-20.52,-10.92,-25.167,29.68,0.33746,0.45108,-0.16904,0.80865,717,0.973,-0.135,0.106,-1.038,-2.502,1.465,-51.273,-79.387,-121.954,-31.2,-8.933,-1.987,30.06,0.09155,-0.65961,0.01126,-0.74585,719
180,0.983,-0.153,0.228,-1.648,-2.502,0.549,-34.547,-74.213,-162.872,-27.02,-9.227,-10.507,27.58,-0.06699,-0.60165,0.14688,-0.7822,726,0.751,-0.06,0.658,-12.817,2.563,2.197,-6.174,-48.065,-121.926,-22.833,-8.727,-2.567,25.42,0.42282,-0.37732,-0.16101,-0.80795,720,0.841,0.012,0.514,-15.869,-0.305,18.066,-0.253,-57.48,136.423,-20.52,-10.92,-25.167,29.68,0.33746,0.45108,-0.16904,0.80865,724,0.968,-0.134,0.105,-1.648,-2.136,1.831,-51.592,-79.387,-121.663,-31.2,-8.933,-1.987,30.06,0.09155,-0.65961,0.01126,-0.74585,722
181,0.981,-0.155,0.219,-2.625,-2.136,0.61,-34.706,-74.24,-162.751,-27.02,-9.227,-10.507,27.58,-0.06699,-0.60165,0.14688,-0.7822,727,0.744,-0.054,0.657,-15.137,1.648,2.258,-6.498,-48.032,-121.866,-22.833,-8.727,-2.567,25.42,0.42282,-0.37732,-0.16101,-0.80795,721,0.841,0.022,0.53,-18.372,1.953,19.775,-1.198,-57.448,137.071,-20.52,-10.92,-25.167,29.68,0.33746,0.45108,-0.16904,0.80865,725,0.965,-0.137,0.096,-2.38,-1.953,2.319,-51.943,-79.382,-121.355,-31.2,-8.933,-1.987,30.06,0.09155,-0.65961,0.01126,-0.74585,723
182,0.98,-0.156,0.214,-3.418,-1.648,0.61,-34.865,-74.268,-162.647,-27.02,-9.227,-10.507,27.58,-0.06406,-0.60535,0.14923,-0.77914,728,0.746,-0.069,0.665,-14.404,0.854,2.197,-6.817,-48.01,-121.8,-22.833,-8.727,-2.567,25.42,0.42282,-0.37732,-0.16101,-0.80795,730,0.833,-0.005,0.543,-19.958,2.625,21.851,-2.225,-57.393,137.774,-20.52,-10.92,-25.167,29.68,0.33746,0.45108,-0.16904,0.80865,736,0.966,-0.137,0.096,-3.174,-2.625,2.93,-52.41,-79.371,-120.948,-31.2,-8.933,-1.987,30.06,0.09488,-0.66544,0.01239,-0.7402,732
183,0.987,-0.161,0.221,-3.174,-1.587,0.671,-35.024,-74.284,-162.565,-27.02,-9.227,-10.507,27.58,-0.06406,-0.60535,0.14923,-0.77914,729,0.759,-0.094,0.652,-11.047,-0.671,2.319,-7.086,-48.021,-121.74,-22.833,-8.727,-2.567,25.42,0.42282,-0.37732,-0.16101,-0.80795,731,0.845,-0.034,0.544,-18.127,2.869,19.653,-3.148,-57.327,138.4,-20.52,-10.92,-25.167,29.68,0.33746,0.45108,-0.16904,0.80865,737,0.974,-0.147,0.105,-2.93,-2.93,3.357,-52.927,-79.36,-120.493,-31.2,-8.933,-1.987,30.06,0.09488,-0.66544,0.01239,-0.7402,733
184,0.993,-0.169,0.222,-1.404,-1.526,0.854,-35.167,-74.306,-162.477,-27.02,-9.227,-10.507,27.58,-0.06406,-0.60535,0.14923,-0.77914,738,0.763,-0.125,0.647,-5.493,-2.014,3.113,-7.278,-48.054,-121.635,-22.833,-8.727,-2.567,25.42,0.42282,-0.37732,-0.16101,-0.80795,734,0.852,-0.051,0.525,-13.123,2.319,18.066,-3.917,-57.266,138.961,-20.28,-9.473,-26.553,29.68,0.33746,0.45108,-0.16904,0.80865,740,0.979,-0.163,0.104,-1.648,-2.625,2.747,-53.361,-79.349,-120.103,-31.2,-8.933,-1.987,30.06,0.09488,-0.66544,0.01239,-0.7402,742
185,0.99,-0.167,0.223,0.977,-1.831,0.732,-35.288,-74.323,-162.372,-27.02,-9.227,-10.507,27.58,-0.06406,-0.60535,0.14923,-0.77914,739,0.762,-0.129,0.647,-1.648,-1.526,3.479,-7.405,-48.082,-121.509,-22.833,-8.727,-2.567,25.42,0.42282,-0.37732,-0.16101,-0.80795,735,0.844,-0.072,0.505,-5.92,-0.366,17.761,-4.554,-57.261,139.504,-20.28,-9.473,-26.553,29.68,0.33746,0.45108,-0.16904,0.80865,741,0.978,-0.163,0.101,0.854,-2.441,1.526,-53.652,-79.354,-119.806,-31.2,-8.933,-1.987,30.06,0.09488,-0.66544,0.01239,-0.7402,743
186,0.986,-0.16,0.226,3.052,-1.953,0.366,-35.354,-74.35,-162.257,-27.02,-9.227,-10.507,27.58,-0.06406,-0.60535,0.14923,-0.77914,744,0.761,-0.109,0.644,1.465,-0.61,3.479,-7.476,-48.098,-121.382,-22.833,-8.727,-2.567,25.42,0.42282,-0.37732,-0.16101,-0.80795,746,0.836,-0.068,0.501,-0.671,0.244,15.686,-5.021,-57.244,139.993,-20.28,-9.473,-26.553,29.68,0.33746,0.45108,-0.16904,0.80865,748,0.974,-0.153,0.102,2.93,-2.258,0.244,-53.811,-79.376,-119.592,-31.2,-8.933,-1.987,30.06,0.09488,-0.66544,0.01239,-0.7402,750
187,0.981,-0.16,0.229,3.479,-1.587,0.183,-35.381,-74.372,-162.169,-27.02,-9.227,-10.507,27.58,-0.06406,-0.60535,0.14923,-0.77914,745,0.758,-0.096,0.637,3.54,0.183,3.357,-7.493,-48.104,-121.267,-22.833,-8.727,-2.567,25.42,0.42282,-0.37732,-0.16101,-0.80795,747,0.836,-0.062,0.499,2.441,2.136,13.672,-5.367,-57.189,140.438,-20.28,-9.473,-26.553,29.68,0.33746,0.45108,-0.16904,0.80865,749,0.968,-0.147,0.1,3.113,-1.404,0.0,-53.882,-79.398,-119.46,-31.2,-8.933,-1.987,30.06,0.09488,-0.66544,0.01239,-0.7402,751
188,0.982,-0.16,0.226,2.258,-0.977,0.183,-35.387,-74.388,-162.103,-27.02,-9.227,-10.507,27.58,-0.06406,-0.60535,0.14923,-0.77914,754,0.752,-0.092,0.643,4.639,0.977,2.808,-7.476,-48.093,-121.157,-22.8,-7.667,-2.133,25.42,0.42282,-0.37732,-0.16101,-0.80795,752,0.838,-0.072,0.502,4.517,2.625,8.423,-5.51,-57.14,140.724,-20.28,-9.473,-26.553,29.68,0.31717,0.43582,-0.20041,0.81805,756,0.975,-0.14,0.096,1.77,0.488,0.977,-53.904,-79.387,-119.41,-31.2,-8.933,-1.987,30.06,0.09488,-0.66544,0.01239,-0.7402,758
189,0.989,-0.155,0.222,0.977,-0.488,0.366,-35.398,-74.399,-162.048,-27.02,-9.227,-10.507,27.58,-0.06406,-0.60535,0.14923,-0.77914,755,0.757,-0.09,0.648,5.127,1.16,2.197,-7.432,-48.076,-121.069,-22.8,-7.667,-2.133,25.42,0.42282,-0.37732,-0.16101,-0.80795,753,0.841,-0.069,0.519,5.066,3.113,2.075,-5.455,-57.09,140.773,-20.28,-9.473,-26.553,29.68,0.31717,0.43582,-0.20041,0.81805,757,0.977,-0.143,0.094,1.709,0.977,1.282,-53.893,-79.371,-119.416,-31.2,-8.933,-1.987,30.06,0.09488,-0.66544,0.01239,-0.7402,759
190,0.993,-0.156,0.218,0.732,0.183,0.671,-35.414,-74.394,-162.004,-27.02,-9.227,-10.507,27.58,-0.06406,-0.60535,0.14923,-0.77914,760,0.763,-0.091,0.648,6.042,1.343,1.709,-7.361,-48.06,-121.009,-22.8,-7.667,-2.133,25.42,0.42282,-0.37732,-0.16101,-0.80795,762,0.845,-0.062,0.521,6.531,3.601,-2.075,-5.251,-57.036,140.691,-20.28,-9.473,-26.553,29.68,0.31717,0.43582,-0.20041,0.81805,764,0.977,-0.149,0.09,1.831,1.709,1.343,-53.86,-79.338,-119.46,-31.2,-8.933,-1.987,30.06,0.09488,-0.66544,0.01239,-0.7402,766
191,0.992,-0.162,0.219,1.282,1.038,0.854,-35.414,-74.377,-161.982,-27.02,-9.227,-10.507,27.58,-0.06406,-0.60535,0.14923,-0.77914,761,0.764,-0.092,0.648,7.019,1.404,1.465,-7.262,-48.038,-120.965,-22.8,-7.667,-2.133,25.42,0.42282,-0.37732,-0.16101,-0.80795,763,0.85,-0.055,0.522,7.324,2.319,-3.845,-4.982,-57.014,140.543,-20.28,-9.473,-26.553,29.68,0.31717,0.43582,-0.20041,0.81805,765,0.977,-0.155,0.09,2.38,2.197,1.343,-53.773,-79.299,-119.559,-31.2,-8.933,-1.987,30.06,0.09488,-0.66544,0.01239,-0.7402,767
192,0.994,-0.167,0.213,2.075,2.136,1.038,-35.37,-74.339,-161.999,-27.02,-9.227,-10.507,27.58,-0.06406,-0.60535,0.14923,-0.77914,768,0.767,-0.097,0.651,7.996,1.404,1.221,-7.141,-48.021,-120.938,-22.8,-7.667,-2.133,25.42,0.42664,-0.38202,-0.14978,-0.80591,776,0.845,-0.057,0.519,8.423,0.549,-4.578,-4.68,-57.025,140.378,-20.28,-9.473,-26.553,29.68,0.31717,0.43582,-0.20041,0.81805,770,0.98,-0.16,0.084,3.418,2.258,1.099,-53.646,-79.255,-119.669,-31.2,-8.933,-1.987,30.06,0.09488,-0.66544,0.01239,-0.7402,772
193,0.995,-0.17,0.209,3.113,2.747,1.16,-35.294,-74.29,-162.037,-27.02,-9.227,-10.507,27.58,-0.06406,-0.60535,0.14923,-0.77914,769,0.769,-0.096,0.647,8.606,0.977,1.404,-7.015,-48.01,-120.905,-22.8,-7.667,-2.133,25.42,0.42664,-0.38202,-0.14978,-0.80591,777,0.843,-0.055,0.515,8.24,1.709,-6.104,-4.34,-57.019,140.158,-20.28,-9.473,-26.553,29.68,0.31717,0.43582,-0.20041,0.81805,771,0.975,-0.162,0.091,4.211,2.319,0.977,-53.492,-79.217,-119.778,-31.2,-8.933,-1.987,30.06,0.09488,-0.66544,0.01239,-0.7402,773
194,0.989,-0.172,0.217,3.967,3.54,1.221,-35.167,-74.229,-162.092,-27.02,-9.227,-10.507,27.58,-0.06406,-0.60535,0.14923,-0.77914,778,0.763,-0.094,0.644,9.155,0.427,1.587,-6.877,-48.01,-120.855,-22.8,-7.667,-2.133,25.42,0.42664,-0.38202,-0.14978,-0.80591,780,0.843,-0.045,0.516,8.484,3.052,-7.141,-3.961,-56.986,139.889,-20.28,-9.473,-26.553,29.68,0.31717,0.43582,-0.20041,0.81805,774,0.969,-0.157,0.097,4.944,3.113,0.854,-53.311,-79.178,-119.899,-30.627,-9.227,-1.853,30.06,0.09488,-0.66544,0.01239,-0.7402,782
195,0.981,-0.168,0.22,4.517,3.723,1.221,-35.019,-74.158,-162.153,-27.02,-9.227,-10.507,27.58,-0.06406,-0.60535,0.14923,-0.77914,779,0.75,-0.09,0.647,9.46,0.549,1.892,-6.746,-48.01,-120.8,-22.8,-7.667,-2.133,25.42,0.42664,-0.38202,-0.14978,-0.80591,781,0.84,-0.046,0.514,9.033,0.854,-8.24,-3.543,-56.992,139.587,-20.28,-9.473,-26.553,29.68,0.31717,0.43582,-0.20041,0.81805,775,0.97,-0.15,0.108,4.761,3.235,0.977,-53.064,-79.129,-120.075,-30.627,-9.227,-1.853,30.06,0.09488,-0.66544,0.01239,-0.7402,783
196,0.981,-0.162,0.231,4.15,3.723,1.099,-34.871,-74.086,-162.213,-27.367,-9.24,-10.047,27.58,-0.06406,-0.60535,0.14923,-0.77914,784,0.746,-0.08,0.661,8.789,1.343,1.465,-6.619,-47.999,-120.751,-22.8,-7.667,-2.133,25.42,0.42664,-0.38202,-0.14978,-0.80591,786,0.829,-0.042,0.519,9.46,3.296,-9.583,-3.082,-56.959,139.246,-20.28,-9.473,-26.553,29.68,0.31717,0.43582,-0.20041,0.81805,788,0.972,-0.144,0.116,3.967,3.418,1.282,-52.822,-79.08,-120.24,-30.627,-9.227,-1.853,30.06,0.09863,-0.66513,0.01331,-0.73999,790
197,0.983,-0.156,0.24,3.113,3.662,0.977,-34.733,-74.02,-162.29,-27.367,-9.24,-10.047,27.58,-0.06406,-0.60535,0.14923,-0.77914,785,0.746,-0.078,0.664,7.385,1.404,0.488,-6.487,-47.983,-120.718,-22.8,-7.667,-2.133,25.42,0.42664,-0.38202,-0.14978,-0.80591,787,0.835,-0.042,0.534,8.423,5.493,-11.658,-2.576,-56.876,138.84,-20.28,-9.473,-26.553,29.68,0.31717,0.43582,-0.20041,0.81805,789,0.968,-0.146,0.119,2.869,3.845,1.343,-52.581,-79.019,-120.416,-30.627,-9.227,-1.853,30.06,0.09863,-0.66513,0.01331,-0.73999,791
198,0.981,-0.156,0.242,1.709,3.723,0.793,-34.607,-73.954,-162.389,-27.367,-9.24,-10.047,27.58,-0.06406,-0.60535,0.14923,-0.77914,792,0.743,-0.084,0.663,6.104,1.953,-0.671,-6.361,-47.961,-120.723,-22.8,-7.667,-2.133,25.42,0.42664,-0.38202,-0.14978,-0.80591,794,0.828,-0.042,0.537,7.446,2.93,-12.756,-2.065,-56.843,138.411,-20.28,-9.473,-26.553,29.68,0.31717,0.43582,-0.20041,0.81805,796,0.967,-0.154,0.115,2.014,4.517,1.099,-52.317,-78.959,-120.646,-30.627,-9.227,-1.853,30.06,0.09863,-0.66513,0.01331,-0.73999,798
199,0.979,-0.161,0.237,0.793,3.784,0.549,-34.481,-73.889,-162.532,-27.367,-9.24,-10.047,27.58,-0.06406,-0.60535,0.14923,-0.77914,793,0.743,-0.088,0.667,5.31,2.502,-1.099,-6.24,-47.928,-120.756,-22.8,-7.667,-2.133,25.42,0.42664,-0.38202,-0.14978,-0.80591,795,0.826,-0.036,0.533,7.08,1.526,-14.771,-1.505,-56.832,137.906,-20.28,-9.473,-26.553,29.68,0.31717,0.43582,-0.20041,0.81805,797,0.967,-0.164,0.121,1.587,4.517,0.549,-52.004,-78.893,-120.932,-30.627,-9.227,-1.853,30.06,0.09863,-0.66513,0.01331,-0.73999,799
200,0.979,-0.168,0.238,1.099,4.211,0.183,-34.321,-73.817,-162.708,-27.367,-9.24,-10.047,27.58,-0.06009,-0.60345,0.14691,-0.78137,806,0.74,-0.091,0.669,5.615,2.93,-0.854,-6.119,-47.878,-120.795,-22.8,-7.667,-2.133,25.42,0.42664,-0.38202,-0.14978,-0.80591,800,0.824,-0.023,0.53,7.019,5.554,-15.686,-0.923,-56.739,137.368,-20.28,-9.473,-26.553,29.68,0.31717,0.43582,-0.20041,0.81805,802,0.968,-0.166,0.126,1.953,4.822,-0.122,-51.663,-78.832,-121.245,-30.627,-9.227,-1.853,30.06,0.09863,-0.66513,0.01331,-0.73999,804
201,0.979,-0.17,0.244,2.136,3.967,-0.061,-34.14,-73.751,-162.878,-27.367,-9.24,-10.047,27.58,-0.06009,-0.60345,0.14691,-0.78137,807,0.74,-0.086,0.675,5.859,3.235,-0.122,-6.01,-47.823,-120.817,-22.8,-7.667,-2.133,25.42,0.42664,-0.38202,-0.14978,-0.80591,801,0.824,-0.009,0.543,8.179,8.24,-13.245,-0.396,-56.591,136.917,-20.28,-9.473,-26.553,29.68,0.31717,0.43582,-0.20041,0.81805,803,0.965,-0.161,0.131,2.319,4.944,-0.61,-51.257,-78.777,-121.602,-30.627,-9.227,-1.853,30.06,0.09863,-0.66513,0.01331,-0.73999,805
202,0.977,-0.167,0.249,2.808,3.54,-0.305,-33.948,-73.696,-163.032,-27.367,-9.24,-10.047,27.58,-0.06009,-0.60345,0.14691,-0.78137,808,0.737,-0.08,0.673,6.47,3.601,0.61,-5.905,-47.758,-120.811,-22.8,-7.667,-2.133,25.42,0.42664,-0.38202,-0.14978,-0.80591,818,0.822,-0.002,0.549,10.376,7.812,-10.254,0.082,-56.448,136.566,-20.733,-10.433,-26.133,29.68,0.31717,0.43582,-0.20041,0.81805,812,0.962,-0.155,0.128,2.93,5.005,-0.916,-50.806,-78.723,-122.003,-30.627,-9.227,-1.853,30.06,0.09863,-0.66513,0.01331,-0.73999,810
203,0.974,-0.163,0.241,3.296,2.93,-0.305,-33.761,-73.647,-163.147,-27.367,-9.24,-10.047,27.58,-0.06009,-0.60345,0.14691,-0.78137,809,0.729,-0.075,0.676,6.836,3.906,1.099,-5.801,-47.686,-120.778,-22.8,-7.667,-2.133,25.42,0.42664,-0.38202,-0.14978,-0.80591,819,0.822,0.006,0.55,11.597,7.629,-8.911,0.544,-56.305,136.263,-20.733,-10.433,-26.133,29.68,0.31717,0.43582,-0.20041,0.81805,813,0.961,-0.15,0.13,3.113,4.7,-1.099,-50.334,-78.673,-122.415,-30.627,-9.227,-1.853,30.06,0.09863,-0.66513,0.01331,-0.73999,811
204,0.975,-0.16,0.241,3.54,2.014,-0.244,-33.602,-73.614,-163.229,-27.367,-9.24,-10.047,27.58,-0.06009,-0.60345,0.14691,-0.78137,814,0.729,-0.068,0.688,6.897,3.906,1.282,-5.696,-47.609,-120.74,-22.913,-8.32,-2.293,25.42,0.42664,-0.38202,-0.14978,-0.80591,820,0.819,0.006,0.571,13.0,4.944,-8.118,1.011,-56.212,135.989,-20.733,-10.433,-26.133,29.68,0.31717,0.43582,-0.20041,0.81805,816,0.964,-0.143,0.125,2.808,4.089,-0.977,-49.883,-78.629,-122.805,-30.627,-9.227,-1.853,30.06,0.09863,-0.66513,0.01331,-0.73999,822
205,0.979,-0.155,0.237,2.808,1.526,-0.122,-33.481,-73.586,-163.301,-27.367,-9.24,-10.047,27.58,-0.06009,-0.60345,0.14691,-0.78137,815,0.734,-0.062,0.683,6.226,3.662,1.099,-5.598,-47.532,-120.718,-22.913,-8.32,-2.293,25.42,0.42664,-0.38202,-0.14978,-0.80591,821,0.821,0.014,0.571,11.353,5.981,-6.47,1.395,-56.091,135.78,-20.733,-10.433,-26.133,29.68,0.31717,0.43582,-0.20041,0.81805,817,0.967,-0.139,0.122,2.014,3.296,-0.732,-49.504,-78.591,-123.129,-30.627,-9.227,-1.853,30.06,0.09863,-0.66513,0.01331,-0.73999,823
206,0.981,-0.151,0.233,1.892,1.16,0.0,-33.398,-73.564,-163.35,-27.367,-9.24,-10.047,27.58,-0.06009,-0.60345,0.14691,-0.78137,824,0.738,-0.059,0.681,5.493,3.174,0.732,-5.51,-47.466,-120.712,-22.913,-8.32,-2.293,25.42,0.42664,-0.38202,-0.14978,-0.80591,830,0.828,0.018,0.572,8.728,7.141,-5.31,1.692,-55.953,135.632,-20.733,-10.433,-26.133,29.68,0.31717,0.43582,-0.20041,0.81805,826,0.969,-0.137,0.123,1.404,2.686,-0.488,-49.224,-78.563,-123.387,-30.627,-9.227,-1.853,30.06,0.09863,-0.66513,0.01331,-0.73999,828
207,0.982,-0.15,0.239,1.282,1.282,0.061,-33.333,-73.548,-163.4,-27.367,-9.24,-10.047,27.58,-0.06009,-0.60345,0.14691,-0.78137,825,0.738,-0.052,0.68,4.822,2.991,0.305,-5.416,-47.406,-120.729,-22.913,-8.32,-2.293,25.42,0.42664,-0.38202,-0.14978,-0.80591,831,0.826,0.027,0.571,6.409,4.7,-4.639,1.928,-55.86,135.516,-20.733,-10.433,-26.133,29.68,0.31717,0.43582,-0.20041,0.81805,827,0.968,-0.14,0.125,0.916,2.563,-0.366,-48.999,-78.541,-123.635,-30.627,-9.227,-1.853,30.06,0.09863,-0.66513,0.01331,-0.73999,829
208,0.983,-0.15,0.238,1.221,1.221,0.122,-33.272,-73.526,-163.444,-27.367,-9.24,-10.047,27.58,-0.06009,-0.60345,0.14691,-0.78137,832,0.737,-0.056,0.686,3.906,2.747,-0.122,-5.334,-47.346,-120.767,-22.913,-8.32,-2.293,25.42,0.43579,-0.36993,-0.16107,-0.80447,834,0.823,0.027,0.574,6.042,3.235,-3.479,2.131,-55.794,135.445,-20.733,-10.433,-26.133,29.68,0.32697,0.43918,-0.16422,0.82043,840,0.97,-0.141,0.124,0.671,2.136,-0.488,-48.796,-78.519,-123.865,-30.627,-9.227,-1.853,30.06,0.09863,-0.66513,0.01331,-0.73999,836
209,0.984,-0.151,0.237,1.343,1.404,0.0,-33.195,-73.51,-163.493,-27.367,-9.24,-10.047,27.58,-0.06009,-0.60345,0.14691,-0.78137,833,0.74,-0.056,0.687,2.869,2.441,-0.366,-5.268,-47.302,-120.8,-22.913,-8.32,-2.293,25.42,0.43579,-0.36993,-0.16107,-0.80447,835,0.825,0.027,0.575,4.333,3.113,-2.075,2.258,-55.728,135.406,-20.733,-10.433,-26.133,29.68,0.32697,0.43918,-0.16422,0.82043,841,0.97,-0.14,0.121,0.122,1.404,-0.61,-48.636,-78.508,-124.069,-30.627,-9.227,-1.853,30.06,0.09863,-0.66513,0.01331,-0.73999,837
210,0.983,-0.151,0.235,1.343,1.587,-0.061,-33.113,-73.488,-163.548,-27.367,-9.24,-10.047,27.58,-0.06009,-0.60345,0.14691,-0.78137,844,0.738,-0.054,0.687,2.014,2.075,-0.61,-5.213,-47.258,-120.844,-22.913,-8.32,-2.293,25.42,0.43579,-0.36993,-0.16107,-0.80447,838,0.822,0.027,0.571,2.686,3.174,-1.709,2.346,-55.662,135.379,-20.733,-10.433,-26.133,29.68,0.32697,0.43918,-0.16422,0.82043,846,0.971,-0.14,0.122,-0.61,0.366,-0.61,-48.549,-78.508,-124.211,-30.927,-8.84,-2.807,30.06,0.09863,-0.66513,0.01331,-0.73999,842
211,0.983,-0.152,0.236,0.916,1.587,-0.061,-33.03,-73.466,-163.619,-27.367,-9.24,-10.047,27.58,-0.06009,-0.60345,0.14691,-0.78137,845,0.742,-0.053,0.691,1.343,1.465,-0.916,-5.164,-47.23,-120.877,-22.913,-8.32,-2.293,25.42,0.43579,-0.36993,-0.16107,-0.80447,839,0.825,0.024,0.578,0.916,3.845,-2.869,2.428,-55.585,135.291,-20.733,-10.433,-26.133,29.68,0.32697,0.43918,-0.16422,0.82043,847,0.972,-0.141,0.124,-1.404,-0.244,-0.61,-48.538,-78.525,-124.299,-30.927,-8.84,-2.807,30.06,0.09863,-0.66513,0.01331,-0.73999,843
212,0.983,-0.151,0.242,0.916,1.831,0.0,-32.948,-73.444,-163.713,-27.173,-8.927,-10.893,27.58,-0.06009,-0.60345,0.14691,-0.78137,848,0.746,-0.052,0.699,0.488,0.671,-0.977,-5.131,-47.219,-120.921,-22.913,-8.32,-2.293,25.42,0.43579,-0.36993,-0.16107,-0.80447,850,0.83,0.031,0.578,-0.122,5.31,-3.967,2.527,-55.475,135.154,-20.733,-10.433,-26.133,29.68,0.32697,0.43918,-0.16422,0.82043,852,0.973,-0.135,0.125,-2.38,-0.854,-0.916,-48.582,-78.547,-124.343,-30.927,-8.84,-2.807,30.06,0.09924,-0.65884,0.01215,-0.74554,854
213,0.982,-0.146,0.242,1.099,1.648,0.0,-32.86,-73.422,-163.795,-27.173,-8.927,-10.893,27.58,-0.06009,-0.60345,0.14691,-0.78137,849,0.745,-0.053,0.693,-0.549,0.61,-0.854,-5.12,-47.203,-120.97,-22.913,-8.32,-2.293,25.42,0.43579,-0.36993,-0.16107,-0.80447,851,0.822,0.034,0.571,0.122,8.179,-3.967,2.626,-55.311,135.022,-20.733,-10.433,-26.133,29.68,0.32697,0.43918,-0.16422,0.82043,853,0.969,-0.136,0.136,-1.343,-1.404,-0.916,-48.647,-78.58,-124.365,-30.927,-8.84,-2.807,30.06,0.09924,-0.65884,0.01215,-0.74554,855
214,0.979,-0.149,0.249,1.099,0.427,0.061,-32.811,-73.416,-163.845,-27.173,-8.927,-10.893,27.58,-0.06009,-0.60345,0.14691,-0.78137,860,0.742,-0.052,0.684,-1.282,0.366,-1.221,-5.114,-47.197,-121.02,-22.913,-8.32,-2.293,25.42,0.43579,-0.36993,-0.16107,-0.80447,856,0.821,0.029,0.572,-0.366,11.719,-5.127,2.741,-55.069,134.852,-20.733,-10.433,-26.133,29.68,0.32697,0.43918,-0.16422,0.82043,858,0.966,-0.149,0.138,-0.427,-1.77,-0.732,-48.724,-78.618,-124.343,-30.927,-8.84,-2.807,30.06,0.09924,-0.65884,0.01215,-0.74554,862
215,0.977,-0.164,0.251,1.221,0.305,0.122,-32.772,-73.411,-163.872,-27.173,-8.927,-10.893,27.58,-0.06009,-0.60345,0.14691,-0.78137,861,0.729,-0.058,0.688,-2.502,1.404,-1.709,-5.125,-47.17,-121.086,-22.913,-8.32,-2.293,25.42,0.43579,-0.36993,-0.16107,-0.80447,857,0.804,0.031,0.567,-1.404,12.451,-5.249,2.84,-54.822,134.687,-20.733,-10.433,-26.133,29.68,0.32697,0.43918,-0.16422,0.82043,859,0.957,-0.153,0.136,-0.916,-2.38,-0.122,-48.856,-78.657,-124.244,-30.927,-8.84,-2.807,30.06,0.09924,-0.65884,0.01215,-0.74554,863
216,0.968,-0.166,0.254,0.0,0.122,0.061,-32.761,-73.411,-163.905,-27.173,-8.927,-10.893,27.58,-0.05914,-0.59946,0.14352,-0.78516,864,0.718,-0.062,0.685,-3.296,2.197,-2.075,-5.136,-47.131,-121.157,-22.913,-8.32,-2.293,25.42,0.43579,-0.36993,-0.16107,-0.80447,866,0.792,0.021,0.569,-2.441,14.099,-5.127,2.911,-54.542,134.517,-20.733,-10.433,-26.133,29.68,0.32697,0.43918,-0.16422,0.82043,868,0.953,-0.144,0.134,-1.465,-3.113,0.366,-49.081,-78.69,-124.069,-30.927,-8.84,-2.807,30.06,0.09924,-0.65884,0.01215,-0.74554,870
217,0.964,-0.155,0.251,-1.526,-0.061,0.0,-32.783,-73.411,-163.922,-27.173,-8.927,-10.893,27.58,-0.05914,-0.59946,0.14352,-0.78516,865,0.716,-0.058,0.686,-3.845,2.319,-2.502,-5.153,-47.087,-121.24,-22.913,-8.32,-2.293,25.42,0.43579,-0.36993,-0.16107,-0.80447,867,0.785,0.023,0.581,-3.906,17.273,-5.92,2.966,-54.201,134.319,-20.733,-10.433,-26.133,29.68,0.32697,0.43918,-0.16422,0.82043,869,0.956,-0.14,0.135,-1.465,-3.479,0.427,-49.373,-78.723,-123.821,-30.927,-8.84,-2.807,30.06,0.09924,-0.65884,0.01215,-0.74554,871
218,0.969,-0.151,0.251,-1.953,0.0,-0.061,-32.811,-73.411,-163.938,-27.173,-8.927,-10.893,27.58,-0.05914,-0.59946,0.14352,-0.78516,878,0.717,-0.057,0.678,-4.15,2.136,-2.625,-5.169,-47.049,-121.328,-22.913,-8.32,-2.293,25.42,0.43579,-0.36993,-0.16107,-0.80447,872,0.785,0.029,0.592,-4.333,19.897,-7.385,3.049,-53.806,134.077,-20.733,-10.433,-26.133,29.68,0.32697,0.43918,-0.16422,0.82043,874,0.961,-0.148,0.133,-0.671,-3.845,0.183,-49.669,-78.766,-123.547,-30.927,-8.84,-2.807,30.06,0.09924,-0.65884,0.01215,-0.74554,876
219,0.972,-0.16,0.249,-1.221,0.0,-0.061,-32.833,-73.411,-163.932,-27.173,-8.927,-10.893,27.58,-0.05914,-0.59946,0.14352,-0.78516,879,0.721,-0.063,0.687,-4.333,2.563,-2.319,-5.202,-46.994,-121.399,-22.913,-8.32,-2.293,25.42,0.43579,-0.36993,-0.16107,-0.80447,873,0.787,0.036,0.597,-3.357,18.433,-7.751,3.159,-53.438,133.835,-20.733,-10.433,-26.133,29.68,0.32697,0.43918,-0.16422,0.82043,875,0.963,-0.154,0.136,-0.671,-4.089,0.183,-49.977,-78.81,-123.245,-30.927,-8.84,-2.807,30.06,0.09924,-0.65884,0.01215,-0.74554,877
220,0.973,-0.164,0.255,-0.916,-0.427,0.0,-32.855,-73.416,-163.905,-27.173,-8.927,-10.893,27.58,-0.05914,-0.59946,0.14352,-0.78516,880,0.716,-0.063,0.687,-4.272,2.93,-1.831,-5.24,-46.939,-121.47,-22.913,-8.32,-2.293,25.42,0.43579,-0.36993,-0.16107,-0.80447,882,0.768,0.038,0.602,-3.418,17.578,-6.042,3.219,-53.091,133.643,-20.733,-10.433,-26.133,29.68,0.32697,0.43918,-0.16422,0.82043,884,0.958,-0.151,0.128,-0.122,-3.723,0.122,-50.268,-78.854,-122.932,-30.927,-8.84,-2.807,30.06,0.09924,-0.65884,0.01215,-0.74554,886
221,0.968,-0.161,0.253,-0.916,-0.671,0.0,-32.888,-73.422,-163.878,-27.173,-8.927,-10.893,27.58,-0.05914,-0.59946,0.14352,-0.78516,881,0.712,-0.064,0.676,-3.906,3.052,-1.648,-5.273,-46.873,-121.531,-22.913,-8.32,-2.293,25.42,0.43579,-0.36993,-0.16107,-0.80447,883,0.772,0.038,0.618,-2.563,12.512,-3.845,3.246,-52.789,133.517,-20.733,-10.433,-26.133,29.68,0.32697,0.43918,-0.16422,0.82043,885,0.958,-0.15,0.124,0.366,-3.113,0.0,-50.51,-78.887,-122.662,-30.927,-8.84,-2.807,30.06,0.09924,-0.65884,0.01215,-0.74554,887
222,0.969,-0.161,0.249,-1.038,-0.488,-0.122,-32.915,-73.427,-163.861,-27.173,-8.927,-10.893,27.58,-0.05914,-0.59946,0.14352,-0.78516,888,0.719,-0.067,0.674,-2.502,1.953,-1.282,-5.29,-46.835,-121.586,-22.84,-8.653,-2.72,25.42,0.43579,-0.36993,-0.16107,-0.80447,890,0.777,0.042,0.613,-2.136,9.888,-1.831,3.268,-52.559,133.456,-19.407,-11.233,-26.193,29.68,0.32697,0.43918,-0.16422,0.82043,892,0.963,-0.152,0.12,0.854,-2.502,0.0,-50.696,-78.92,-122.454,-30.927,-8.84,-2.807,30.06,0.09924,-0.65884,0.01215,-0.74554,894
223,0.976,-0.163,0.245,-0.671,-0.305,-0.122,-32.932,-73.433,-163.839,-27.173,-8.927,-10.893,27.58,-0.05914,-0.59946,0.14352,-0.78516,889,0.729,-0.066,0.677,-1.221,0.671,-0.61,-5.301,-46.818,-121.613,-22.84,-8.653,-2.72,25.42,0.43579,-0.36993,-0.16107,-0.80447,891,0.787,0.044,0.615,-1.038,9.644,-1.465,3.257,-52.366,133.44,-19.407,-11.233,-26.193,29.68,0.32697,0.43918,-0.16422,0.82043,893,0.975,-0.148,0.118,0.854,-2.258,0.366,-50.856,-78.942,-122.267,-30.927,-8.84,-2.807,30.06,0.09924,-0.65884,0.01215,-0.74554,895
224,0.989,-0.164,0.247,-0.977,-0.122,0.183,-32.959,-73.433,-163.801,-27.173,-8.927,-10.893,27.58,-0.05914,-0.59946,0.14352,-0.78516,896,0.744,-0.057,0.68,-0.183,-0.427,-0.122,-5.301,-46.824,-121.619,-22.84,-8.653,-2.72,25.42,0.43579,-0.36993,-0.16107,-0.80447,898,0.782,0.046,0.605,0.183,9.521,-1.282,3.268,-52.174,133.429,-19.407,-11.233,-26.193,29.68,0.32697,0.43918,-0.16422,0.82043,900,0.978,-0.148,0.112,0.549,-2.014,0.977,-51.042,-78.953,-122.064,-30.913,-9.02,-2.087,30.06,0.09924,-0.65884,0.01215,-0.74554,902
225,0.989,-0.165,0.244,-1.465,0.366,0.488,-33.003,-73.416,-163.779,-27.173,-8.927,-10.893,27.58,-0.05914,-0.59946,0.14352,-0.78516,897,0.74,-0.061,0.676,0.549,-1.099,0.122,-5.295,-46.846,-121.619,-22.84,-8.653,-2.72,25.42,0.43579,-0.36993,-0.16107,-0.80447,899,0.777,0.037,0.616,0.61,7.874,-0.854,3.296,-51.998,133.429,-19.407,-11.233,-26.193,29.68,0.32697,0.43918,-0.16422,0.82043,901,0.973,-0.148,0.108,0.488,-1.709,1.343,-51.24,-78.953,-121.86,-30.913,-9.02,-2.087,30.06,0.09924,-0.65884,0.01215,-0.74554,903
226,0.984,-0.157,0.244,-1.648,1.099,0.549,-33.025,-73.394,-163.795,-27.173,-8.927,-10.893,27.58,-0.05914,-0.59946,0.14352,-0.78516,904,0.738,-0.064,0.677,0.793,-1.099,0.122,-5.279,-46.868,-121.624,-22.84,-8.653,-2.72,25.42,0.43097,-0.36728,-0.15659,-0.80917,908,0.786,0.035,0.623,-0.427,5.066,-1.709,3.318,-51.861,133.423,-19.407,-11.233,-26.193,29.68,0.34344,0.41327,-0.14981,0.8299,910,0.971,-0.138,0.103,-0.854,-1.038,1.16,-51.422,-78.948,-121.69,-30.913,-9.02,-2.087,30.06,0.09787,-0.66336,0.01349,-0.74167,906
227,0.984,-0.146,0.235,-1.709,1.892,0.244,-33.003,-73.356,-163.872,-27.173,-8.927,-10.893,27.58,-0.05914,-0.59946,0.14352,-0.78516,905,0.747,-0.06,0.679,0.549,-1.892,0.0,-5.273,-46.906,-121.635,-22.84,-8.653,-2.72,25.42,0.43097,-0.36728,-0.15659,-0.80917,909,0.794,0.042,0.619,-1.465,3.967,-2.686,3.351,-51.768,133.396,-19.407,-11.233,-26.193,29.68,0.34344,0.41327,-0.14981,0.8299,911,0.979,-0.138,0.099,-1.343,-1.465,0.977,-51.619,-78.948,-121.531,-30.913,-9.02,-2.087,30.06,0.09787,-0.66336,0.01349,-0.74167,907
228,0.992,-0.155,0.232,-1.282,2.197,0.244,-32.959,-73.317,-163.965,-27.173,-8.927,-10.893,27.58,-0.05914,-0.59946,0.14352,-0.78516,918,0.753,-0.055,0.683,-0.122,-2.747,-0.366,-5.273,-46.967,-121.652,-22.84,-8.653,-2.72,25.42,0.43097,-0.36728,-0.15659,-0.80917,912,0.785,0.044,0.622,-1.892,3.784,-2.197,3.378,-51.691,133.319,-19.407,-11.233,-26.193,29.68,0.34344,0.41327,-0.14981,0.8299,914,0.981,-0.15,0.105,-0.854,-1.648,1.099,-51.833,-78.953,-121.339,-30.913,-9.02,-2.087,30.06,0.09787,-0.66336,0.01349,-0.74167,916
229,0.989,-0.161,0.239,-0.671,2.441,0.549,-32.915,-73.279,-164.059,-27.173,-8.927,-10.893,27.58,-0.05914,-0.59946,0.14352,-0.78516,919,0.747,-0.06,0.683,-0.977,-3.113,-0.427,-5.284,-47.027,-121.668,-22.84,-8.653,-2.72,25.42,0.43097,-0.36728,-0.15659,-0.80917,913,0.778,0.038,0.62,-2.625,2.686,-2.014,3.389,-51.619,133.253,-19.407,-11.233,-26.193,29.68,0.34344,0.41327,-0.14981,0.8299,915,0.974,-0.149,0.108,-0.427,-1.831,0.854,-52.053,-78.964,-121.141,-30.913,-9.02,-2.087,30.06,0.09787,-0.66336,0.01349,-0.74167,917
230,0.983,-0.159,0.246,-0.427,2.747,0.427,-32.855,-73.229,-164.169,-26.907,-8.78,-11.08,27.58,-0.05914,-0.59946,0.14352,-0.78516,920,0.74,-0.065,0.677,-1.648,-2.808,-0.549,-5.312,-47.087,-121.679,-22.84,-8.653,-2.72,25.42,0.43097,-0.36728,-0.15659,-0.80917,922,0.774,0.039,0.616,-1.892,1.953,-1.77,3.389,-51.575,133.193,-19.407,-11.233,-26.193,29.68,0.34344,0.41327,-0.14981,0.8299,924,0.967,-0.148,0.106,-0.488,-1.587,0.854,-52.256,-78.975,-120.981,-30.913,-9.02,-2.087,30.06,0.09787,-0.66336,0.01349,-0.74167,926
231,0.977,-0.158,0.247,-0.854,3.418,0.305,-32.767,-73.174,-164.306,-26.907,-8.78,-11.08,27.58,-0.05914,-0.59946,0.14352,-0.78516,921,0.735,-0.07,0.669,-1.038,-2.991,-0.671,-5.323,-47.153,-121.696,-22.84,-8.653,-2.72,25.42,0.43097,-0.36728,-0.15659,-0.80917,923,0.774,0.041,0.621,-1.099,0.61,-0.122,3.389,-51.542,133.165,-19.407,-11.233,-26.193,29.68,0.34344,0.41327,-0.14981,0.8299,925,0.965,-0.149,0.108,-0.427,-1.404,0.671,-52.438,-78.986,-120.855,-30.913,-9.02,-2.087,30.06,0.09787,-0.66336,0.01349,-0.74167,927
