Index,L5_Acceleration X(g),L5_Acceleration Y(g),L5_Acceleration Z(g),L5_Angular velocity X(°/s),L5_Angular velocity Y(°/s),L5_Angular velocity Z(°/s),L5_Angle X(°),L5_Angle Y(°),L5_Angle Z(°),L5_Magnetic field X(ʯt),L5_Magnetic field Y(ʯt),L5_Magnetic field Z(ʯt),L5_Temperature(℃),L5_Quaternions 0(),L5_Quaternions 1(),L5_Quaternions 2(),L5_Quaternions 3(),L5___orig_idx,T4_Acceleration X(g),T4_Acceleration Y(g),T4_Acceleration Z(g),T4_Angular velocity X(°/s),T4_Angular velocity Y(°/s),T4_Angular velocity Z(°/s),T4_Angle X(°),T4_Angle Y(°),T4_Angle Z(°),T4_Magnetic field X(ʯt),T4_Magnetic field Y(ʯt),T4_Magnetic field Z(ʯt),T4_Temperature(℃),T4_Quaternions 0(),T4_Quaternions 1(),T4_Quaternions 2(),T4_Quaternions 3(),T4___orig_idx,C7_Acceleration X(g),C7_Acceleration Y(g),C7_Acceleration Z(g),C7_Angular velocity X(°/s),C7_Angular velocity Y(°/s),C7_Angular velocity Z(°/s),C7_Angle X(°),C7_Angle Y(°),C7_Angle Z(°),C7_Magnetic field X(ʯt),C7_Magnetic field Y(ʯt),C7_Magnetic field Z(ʯt),C7_Temperature(℃),C7_Quaternions 0(),C7_Quaternions 1(),C7_Quaternions 2(),C7_Quaternions 3(),C7___orig_idx,T12_Acceleration X(g),T12_Acceleration Y(g),T12_Acceleration Z(g),T12_Angular velocity X(°/s),T12_Angular velocity Y(°/s),T12_Angular velocity Z(°/s),T12_Angle X(°),T12_Angle Y(°),T12_Angle Z(°),T12_Magnetic field X(ʯt),T12_Magnetic field Y(ʯt),T12_Magnetic field Z(ʯt),T12_Temperature(℃),T12_Quaternions 0(),T12_Quaternions 1(),T12_Quaternions 2(),T12_Quaternions 3(),T12___orig_idx
0,1.017,-0.019,0.124,-0.122,-0.732,-0.122,-9.465,-82.694,171.804,-24.527,-3.873,-4.787,25.52,-0.10669,-0.65204,0.10785,-0.7428,2,0.585,0.066,0.813,0.305,0.122,0.366,4.543,-35.25,-108.419,-20.987,-5.727,-2.653,22.58,-0.56824,0.22244,0.20929,0.76401,10,0.45,0.031,0.891,0.305,-0.305,-0.122,1.346,-26.301,178.583,-13.307,-6.827,-26.9,26.7,0.00562,0.22656,0.0101,0.97388,0,0.918,0.132,0.354,0.0,-0.488,-0.122,20.314,-67.401,-138.356,-28.3,-8.933,-1.793,28.23,0.38315,-0.45767,-0.33029,-0.73111,4
1,1.016,-0.019,0.125,0.0,-0.366,0.0,-9.465,-82.711,171.711,-24.527,-3.873,-4.787,25.52,-0.10669,-0.65204,0.10785,-0.7428,3,0.584,0.068,0.815,0.916,0.0,0.793,4.548,-35.25,-108.413,-20.987,-5.727,-2.653,22.58,-0.56824,0.22244,0.20929,0.76401,11,0.448,0.024,0.893,0.732,-0.427,0.732,1.351,-26.312,178.528,-13.307,-6.827,-26.9,26.7,0.00562,0.22656,0.0101,0.97388,1,0.914,0.133,0.354,0.305,-0.061,0.0,20.325,-67.407,-138.351,-28.3,-8.933,-1.793,28.23,0.38315,-0.45767,-0.33029,-0.73111,5
2,1.015,-0.019,0.124,0.061,-0.122,0.0,-9.459,-82.716,171.617,-24.527,-3.873,-4.787,25.52,-0.10669,-0.65204,0.10785,-0.7428,6,0.587,0.068,0.812,0.61,0.0,0.671,4.554,-35.255,-108.408,-20.9,-5.553,-1.907,22.58,-0.56824,0.22244,0.20929,0.76401,12,0.45,0.026,0.892,0.732,-0.061,0.549,1.362,-26.323,178.489,-13.307,-6.827,-26.9,26.7,0.00562,0.22656,0.0101,0.97388,8,0.914,0.136,0.352,0.366,0.0,0.0,20.336,-67.407,-138.334,-28.3,-8.933,-1.793,28.23,0.38315,-0.45767,-0.33029,-0.73111,14
3,1.013,-0.019,0.122,0.0,0.0,-0.061,-9.454,-82.716,171.453,-24.527,-3.873,-4.787,25.52,-0.10669,-0.65204,0.10785,-0.7428,7,0.582,0.066,0.806,0.0,-0.061,0.366,4.559,-35.261,-108.397,-20.9,-5.553,-1.907,22.58,-0.56824,0.22244,0.20929,0.76401,13,0.452,0.029,0.886,0.427,0.0,0.671,1.373,-26.323,178.489,-13.307,-6.827,-26.9,26.7,0.00562,0.22656,0.0101,0.97388,9,0.912,0.137,0.349,0.122,0.122,0.061,20.341,-67.407,-138.312,-28.3,-8.933,-1.793,28.23,0.38315,-0.45767,-0.33029,-0.73111,15
4,1.013,-0.019,0.121,0.0,0.183,0.0,-9.437,-82.716,171.315,-24.527,-3.873,-4.787,25.52,-0.10669,-0.65204,0.10785,-0.7428,16,0.578,0.067,0.812,0.0,-0.183,0.183,4.554,-35.266,-108.386,-20.9,-5.553,-1.907,22.58,-0.56824,0.22244,0.20929,0.76401,18,0.438,0.03,0.881,-0.488,-0.183,0.732,1.368,-26.329,178.456,-13.307,-6.827,-26.9,26.7,0.00562,0.22656,0.0101,0.97388,20,0.91,0.137,0.35,0.0,0.305,0.061,20.341,-67.407,-138.301,-28.3,-8.933,-1.793,28.23,0.38315,-0.45767,-0.33029,-0.73111,22
5,1.013,-0.018,0.122,0.0,0.488,0.0,-9.426,-82.716,171.244,-24.527,-3.873,-4.787,25.52,-0.10669,-0.65204,0.10785,-0.7428,17,0.579,0.067,0.815,-0.061,0.122,0.0,4.554,-35.272,-108.391,-20.9,-5.553,-1.907,22.58,-0.56824,0.22244,0.20929,0.76401,19,0.441,0.017,0.892,0.305,-0.977,0.122,1.368,-26.345,178.44,-13.307,-6.827,-26.9,26.7,0.00562,0.22656,0.0101,0.97388,21,0.911,0.137,0.352,-0.061,0.305,0.122,20.336,-67.401,-138.285,-28.3,-8.933,-1.793,28.23,0.38315,-0.45767,-0.33029,-0.73111,23
6,1.013,-0.018,0.121,-0.061,0.549,0.0,-9.404,-82.705,171.189,-24.527,-3.873,-4.787,25.52,-0.10669,-0.65204,0.10785,-0.7428,24,0.581,0.067,0.815,-0.244,0.183,0.0,4.554,-35.272,-108.402,-20.9,-5.553,-1.907,22.58,-0.56824,0.22244,0.20929,0.76401,26,0.446,0.02,0.892,1.099,-0.061,-0.366,1.384,-26.362,178.445,-13.307,-6.827,-26.9,26.7,0.00562,0.22656,0.0101,0.97388,28,0.911,0.137,0.355,-0.244,0.061,0.122,20.33,-67.401,-138.274,-28.3,-8.933,-1.793,28.23,0.38315,-0.45767,-0.33029,-0.73111,30
7,1.013,-0.017,0.124,-0.122,0.488,0.305,-9.41,-82.7,171.189,-24.527,-3.873,-4.787,25.52,-0.10669,-0.65204,0.10785,-0.7428,25,0.581,0.067,0.814,-0.549,0.305,-0.061,4.548,-35.272,-108.402,-20.9,-5.553,-1.907,22.58,-0.56824,0.22244,0.20929,0.76401,27,0.451,0.032,0.893,0.61,0.061,-0.427,1.406,-26.362,178.451,-13.307,-6.827,-26.9,26.7,0.00562,0.22656,0.0101,0.97388,29,0.912,0.134,0.354,-0.427,0.122,0.183,20.319,-67.401,-138.268,-28.3,-8.933,-1.793,28.23,0.38315,-0.45767,-0.33029,-0.73111,31
8,1.013,-0.018,0.123,-0.244,0.366,0.366,-9.443,-82.694,171.227,-24.527,-3.873,-4.787,25.52,-0.10669,-0.65204,0.10785,-0.7428,32,0.581,0.064,0.814,-0.183,0.183,0.244,4.543,-35.266,-108.402,-20.9,-5.553,-1.907,22.58,-0.56671,0.22339,0.20779,0.76526,40,0.443,0.029,0.887,-0.366,0.427,-0.732,1.417,-26.362,178.462,-13.807,-7.633,-27.36,26.7,0.00562,0.22656,0.0101,0.97388,36,0.913,0.133,0.356,-0.305,0.061,0.122,20.314,-67.401,-138.274,-28.767,-9.06,-1.367,28.23,0.38315,-0.45767,-0.33029,-0.73111,34
9,1.013,-0.019,0.125,-0.366,0.366,0.305,-9.481,-82.689,171.233,-24.527,-3.873,-4.787,25.52,-0.10669,-0.65204,0.10785,-0.7428,33,0.581,0.063,0.815,0.0,0.122,0.244,4.537,-35.266,-108.397,-20.9,-5.553,-1.907,22.58,-0.56671,0.22339,0.20779,0.76526,41,0.442,0.02,0.892,0.122,0.488,-0.061,1.423,-26.356,178.495,-13.807,-7.633,-27.36,26.7,0.00562,0.22656,0.0101,0.97388,37,0.913,0.133,0.357,-0.122,0.183,0.122,20.308,-67.401,-138.263,-28.767,-9.06,-1.367,28.23,0.38315,-0.45767,-0.33029,-0.73111,35
10,1.013,-0.02,0.127,-0.244,0.427,0.305,-9.514,-82.683,171.26,-24.573,-3.887,-4.507,25.52,-0.10669,-0.65204,0.10785,-0.7428,38,0.578,0.064,0.814,-0.732,0.671,-0.061,4.532,-35.266,-108.397,-20.9,-5.553,-1.907,22.58,-0.56671,0.22339,0.20779,0.76526,46,0.447,0.022,0.892,0.061,0.854,-0.61,1.428,-26.345,178.544,-13.807,-7.633,-27.36,26.7,0.0094,0.22797,0.00931,0.97354,42,0.911,0.133,0.357,-0.183,0.305,0.122,20.303,-67.396,-138.241,-28.767,-9.06,-1.367,28.23,0.38315,-0.45767,-0.33029,-0.73111,48
11,1.012,-0.021,0.128,-0.183,0.427,0.305,-9.542,-82.678,171.31,-24.573,-3.887,-4.507,25.52,-0.10669,-0.65204,0.10785,-0.7428,39,0.573,0.065,0.817,-0.671,1.221,0.0,4.521,-35.25,-108.402,-20.9,-5.553,-1.907,22.58,-0.56671,0.22339,0.20779,0.76526,47,0.439,0.032,0.889,-1.465,0.183,-0.854,1.423,-26.334,178.55,-13.807,-7.633,-27.36,26.7,0.0094,0.22797,0.00931,0.97354,43,0.911,0.13,0.356,-0.244,0.427,0.122,20.286,-67.39,-138.224,-28.767,-9.06,-1.367,28.23,0.38315,-0.45767,-0.33029,-0.73111,49
12,1.012,-0.021,0.129,-0.061,0.488,0.244,-9.564,-82.667,171.271,-24.573,-3.887,-4.507,25.52,-0.11188,-0.65146,0.11252,-0.74185,44,0.574,0.061,0.822,0.183,0.793,0.549,4.51,-35.233,-108.397,-20.9,-5.553,-1.907,22.58,-0.56671,0.22339,0.20779,0.76526,50,0.436,0.027,0.895,-1.587,0.061,0.488,1.401,-26.334,178.561,-13.807,-7.633,-27.36,26.7,0.0094,0.22797,0.00931,0.97354,52,0.91,0.129,0.357,-0.122,0.488,0.244,20.27,-67.385,-138.214,-28.767,-9.06,-1.367,28.23,0.38324,-0.45798,-0.3316,-0.73029,54
13,1.011,-0.022,0.128,0.061,0.488,0.183,-9.575,-82.661,171.277,-24.573,-3.887,-4.507,25.52,-0.11188,-0.65146,0.11252,-0.74185,45,0.576,0.059,0.821,0.61,-0.061,0.671,4.504,-35.222,-108.375,-20.9,-5.553,-1.907,22.58,-0.56671,0.22339,0.20779,0.76526,51,0.44,0.011,0.897,-0.671,1.221,0.671,1.373,-26.323,178.599,-13.807,-7.633,-27.36,26.7,0.0094,0.22797,0.00931,0.97354,53,0.911,0.128,0.357,0.0,0.61,0.244,20.248,-67.374,-138.224,-28.767,-9.06,-1.367,28.23,0.38324,-0.45798,-0.3316,-0.73029,55
14,1.013,-0.022,0.127,0.122,0.671,0.061,-9.569,-82.65,171.288,-24.573,-3.887,-4.507,25.52,-0.11188,-0.65146,0.11252,-0.74185,56,0.575,0.061,0.822,0.366,-0.244,0.488,4.51,-35.222,-108.358,-20.9,-5.553,-1.907,22.58,-0.56671,0.22339,0.20779,0.76526,58,0.443,0.015,0.895,0.061,1.282,0.244,1.362,-26.301,178.638,-13.807,-7.633,-27.36,26.7,0.0094,0.22797,0.00931,0.97354,60,0.912,0.13,0.358,0.122,0.488,0.183,20.237,-67.363,-138.23,-28.767,-9.06,-1.367,28.23,0.38324,-0.45798,-0.3316,-0.73029,62
15,1.014,-0.021,0.126,0.183,0.549,-0.061,-9.547,-82.639,171.249,-24.573,-3.887,-4.507,25.52,-0.11188,-0.65146,0.11252,-0.74185,57,0.574,0.065,0.82,0.305,-0.122,0.366,4.51,-35.228,-108.342,-20.9,-5.553,-1.907,22.58,-0.56671,0.22339,0.20779,0.76526,59,0.436,0.023,0.896,-0.183,1.099,0.488,1.357,-26.279,178.643,-13.807,-7.633,-27.36,26.7,0.0094,0.22797,0.00931,0.97354,61,0.91,0.133,0.357,0.061,0.366,0.183,20.226,-67.357,-138.23,-28.767,-9.06,-1.367,28.23,0.38324,-0.45798,-0.3316,-0.73029,63
16,1.012,-0.021,0.125,0.244,0.244,0.0,-9.525,-82.634,171.194,-24.573,-3.887,-4.507,25.52,-0.11188,-0.65146,0.11252,-0.74185,64,0.575,0.064,0.822,0.488,0.061,0.427,4.51,-35.228,-108.336,-20.9,-5.553,-1.907,22.58,-0.56671,0.22339,0.20779,0.76526,66,0.436,0.021,0.897,0.366,0.916,0.122,1.357,-26.257,178.654,-13.807,-7.633,-27.36,26.7,0.0094,0.22797,0.00931,0.97354,70,0.909,0.132,0.356,0.061,0.183,0.122,20.22,-67.357,-138.219,-28.767,-9.06,-1.367,28.23,0.38324,-0.45798,-0.3316,-0.73029,68
17,1.012,-0.02,0.125,0.183,0.122,0.0,-9.514,-82.634,171.145,-24.573,-3.887,-4.507,25.52,-0.11188,-0.65146,0.11252,-0.74185,65,0.576,0.064,0.819,0.366,0.244,0.488,4.51,-35.228,-108.325,-20.9,-5.553,-1.907,22.58,-0.56671,0.22339,0.20779,0.76526,67,0.436,0.02,0.896,0.427,0.732,-0.122,1.368,-26.241,178.654,-13.807,-7.633,-27.36,26.7,0.0094,0.22797,0.00931,0.97354,71,0.91,0.132,0.357,0.244,0.061,0.122,20.22,-67.357,-138.214,-28.767,-9.06,-1.367,28.23,0.38324,-0.45798,-0.3316,-0.73029,69
18,1.013,-0.02,0.125,0.183,0.0,0.0,-9.509,-82.634,171.156,-24.573,-3.887,-4.507,25.52,-0.11188,-0.65146,0.11252,-0.74185,72,0.576,0.064,0.819,0.0,0.305,0.427,4.51,-35.222,-108.314,-20.9,-5.553,-1.907,22.58,-0.56671,0.22339,0.20779,0.76526,74,0.438,0.025,0.897,0.427,0.549,0.0,1.373,-26.23,178.66,-13.807,-7.633,-27.36,26.7,0.0094,0.22797,0.00931,0.97354,76,0.912,0.132,0.356,0.305,0.0,0.0,20.226,-67.357,-138.208,-28.767,-9.06,-1.367,28.23,0.38324,-0.45798,-0.3316,-0.73029,78
19,1.013,-0.018,0.125,0.122,-0.122,-0.061,-9.492,-82.639,171.189,-24.573,-3.887,-4.507,25.52,-0.11188,-0.65146,0.11252,-0.74185,73,0.578,0.063,0.821,-0.366,0.305,0.305,4.499,-35.211,-108.298,-20.9,-5.553,-1.907,22.58,-0.56671,0.22339,0.20779,0.76526,75,0.438,0.025,0.897,0.244,0.122,0.183,1.384,-26.219,178.654,-13.807,-7.633,-27.36,26.7,0.0094,0.22797,0.00931,0.97354,77,0.913,0.132,0.357,-0.244,0.061,0.0,20.226,-67.357,-138.208,-28.767,-9.06,-1.367,28.23,0.38324,-0.45798,-0.3316,-0.73029,79
20,1.013,-0.019,0.126,0.061,-0.305,-0.122,-9.476,-82.645,171.249,-24.573,-3.887,-4.507,25.52,-0.11188,-0.65146,0.11252,-0.74185,82,0.579,0.066,0.823,-0.427,0.183,0.305,4.488,-35.206,-108.287,-20.9,-5.553,-1.907,22.58,-0.56671,0.22339,0.20779,0.76526,84,0.436,0.02,0.9,0.183,-0.122,0.122,1.384,-26.219,178.627,-13.807,-7.633,-27.36,26.7,0.0094,0.22797,0.00931,0.97354,80,0.913,0.132,0.358,-0.366,0.061,0.183,20.22,-67.352,-138.219,-28.767,-9.06,-1.367,28.23,0.38324,-0.45798,-0.3316,-0.73029,86
21,1.013,-0.02,0.127,0.061,-0.427,-0.244,-9.448,-82.656,171.249,-24.573,-3.887,-4.507,25.52,-0.11188,-0.65146,0.11252,-0.74185,83,0.577,0.068,0.825,-0.549,0.061,0.183,4.477,-35.2,-108.281,-20.9,-5.553,-1.907,22.58,-0.56671,0.22339,0.20779,0.76526,85,0.433,0.026,0.903,1.221,-1.709,0.427,1.395,-26.235,178.61,-13.807,-7.633,-27.36,26.7,0.0094,0.22797,0.00931,0.97354,81,0.912,0.136,0.359,-0.061,-0.061,0.244,20.204,-67.352,-138.203,-28.767,-9.06,-1.367,28.23,0.38324,-0.45798,-0.3316,-0.73029,87
22,1.014,-0.021,0.127,0.061,-0.427,-0.305,-9.41,-82.667,171.205,-24.573,-3.887,-4.507,25.52,-0.11188,-0.65146,0.11252,-0.74185,88,0.575,0.064,0.824,-0.854,0.183,0.0,4.46,-35.195,-108.287,-20.6,-5.52,-1.78,22.58,-0.56671,0.22339,0.20779,0.76526,92,0.435,0.029,0.903,0.732,-2.625,0.183,1.417,-26.279,178.61,-13.807,-7.633,-27.36,26.7,0.0094,0.22797,0.00931,0.97354,90,0.909,0.136,0.357,0.183,-0.305,0.244,20.198,-67.357,-138.186,-28.767,-9.06,-1.367,28.23,0.38324,-0.45798,-0.3316,-0.73029,94
23,1.013,-0.021,0.127,0.122,-0.488,-0.305,-9.366,-82.678,171.118,-24.573,-3.887,-4.507,25.52,-0.11188,-0.65146,0.11252,-0.74185,89,0.572,0.061,0.819,-0.854,0.244,-0.305,4.444,-35.189,-108.292,-20.6,-5.52,-1.78,22.58,-0.56671,0.22339,0.20779,0.76526,93,0.443,0.019,0.896,0.793,-2.808,0.061,1.434,-26.329,178.627,-13.807,-7.633,-27.36,26.7,0.0094,0.22797,0.00931,0.97354,91,0.908,0.134,0.357,0.305,-0.488,0.244,20.198,-67.363,-138.192,-28.767,-9.06,-1.367,28.23,0.38324,-0.45798,-0.3316,-0.73029,95
24,1.012,-0.019,0.125,0.427,-0.488,-0.061,-9.349,-82.689,171.013,-24.573,-3.887,-4.507,25.52,-0.11188,-0.65146,0.11252,-0.74185,96,0.574,0.061,0.817,-0.488,-0.366,-0.366,4.433,-35.184,-108.309,-20.6,-5.52,-1.78,22.58,-0.56671,0.22339,0.20779,0.76526,98,0.443,0.018,0.892,0.427,-2.625,0.305,1.445,-26.378,178.665,-13.807,-7.633,-27.36,26.7,0.0094,0.22797,0.00931,0.97354,100,0.91,0.135,0.357,0.366,-0.549,0.0,20.22,-67.374,-138.208,-28.767,-9.06,-1.367,28.23,0.38324,-0.45798,-0.3316,-0.73029,102
25,1.012,-0.017,0.125,0.549,-0.671,0.0,-9.349,-82.705,170.975,-24.573,-3.887,-4.507,25.52,-0.11188,-0.65146,0.11252,-0.74185,97,0.578,0.061,0.818,-0.244,-0.793,-0.488,4.433,-35.189,-108.325,-20.6,-5.52,-1.78,22.58,-0.56671,0.22339,0.20779,0.76526,99,0.443,0.019,0.893,1.099,-2.197,-0.427,1.461,-26.422,178.66,-13.807,-7.633,-27.36,26.7,0.0094,0.22797,0.00931,0.97354,101,0.911,0.137,0.357,0.122,-0.549,0.0,20.237,-67.379,-138.219,-28.767,-9.06,-1.367,28.23,0.38324,-0.45798,-0.3316,-0.73029,103
26,1.012,-0.016,0.125,0.549,-0.977,0.0,-9.355,-82.722,170.953,-24.4,-3.733,-4.747,25.52,-0.11188,-0.65146,0.11252,-0.74185,104,0.578,0.063,0.817,-0.549,-0.61,-0.916,4.433,-35.206,-108.353,-20.6,-5.52,-1.78,22.58,-0.56717,0.22324,0.20676,0.76526,108,0.447,0.022,0.894,1.953,-2.319,-0.488,1.494,-26.461,178.627,-13.173,-7.327,-27.7,26.7,0.0094,0.22797,0.00931,0.97354,110,0.91,0.137,0.358,0.0,-0.732,0.0,20.253,-67.39,-138.219,-28.767,-9.06,-1.367,28.23,0.38324,-0.45798,-0.3316,-0.73029,106
27,1.013,-0.015,0.125,0.488,-1.282,0.0,-9.366,-82.749,170.909,-24.4,-3.733,-4.747,25.52,-0.11188,-0.65146,0.11252,-0.74185,105,0.574,0.062,0.813,-0.977,-0.244,-1.404,4.438,-35.206,-108.391,-20.6,-5.52,-1.78,22.58,-0.56717,0.22324,0.20676,0.76526,109,0.445,0.028,0.888,1.831,-2.747,-0.61,1.538,-26.51,178.605,-13.173,-7.327,-27.7,26.7,0.0094,0.22797,0.00931,0.97354,111,0.907,0.137,0.36,0.244,-0.916,0.0,20.275,-67.401,-138.219,-28.767,-9.06,-1.367,28.23,0.38324,-0.45798,-0.3316,-0.73029,107
28,1.014,-0.017,0.125,0.305,-1.465,0.0,-9.377,-82.776,170.953,-24.4,-3.733,-4.747,25.52,-0.11285,-0.65204,0.1131,-0.74109,112,0.572,0.067,0.815,-1.709,-0.122,-1.709,4.433,-35.206,-108.441,-20.6,-5.52,-1.78,22.58,-0.56717,0.22324,0.20676,0.76526,114,0.441,0.024,0.886,1.221,-2.014,-0.183,1.571,-26.554,178.588,-13.173,-7.327,-27.7,26.7,0.00879,0.22977,0.01053,0.97311,116,0.907,0.141,0.357,0.0,-0.916,0.0,20.297,-67.418,-138.23,-28.38,-9.033,-0.593,28.23,0.38324,-0.45798,-0.3316,-0.73029,120
29,1.011,-0.017,0.127,0.122,-1.77,0.061,-9.41,-82.809,170.975,-24.4,-3.733,-4.747,25.52,-0.11285,-0.65204,0.1131,-0.74109,113,0.574,0.071,0.817,-2.197,0.305,-1.831,4.417,-35.2,-108.484,-20.6,-5.52,-1.78,22.58,-0.56717,0.22324,0.20676,0.76526,115,0.445,0.031,0.888,0.854,-0.549,-1.099,1.599,-26.576,178.539,-13.173,-7.327,-27.7,26.7,0.00879,0.22977,0.01053,0.97311,117,0.911,0.14,0.358,-0.366,-1.16,0.0,20.319,-67.434,-138.241,-28.38,-9.033,-0.593,28.23,0.38324,-0.45798,-0.3316,-0.73029,121
30,1.011,-0.016,0.124,0.061,-2.258,0.244,-9.481,-82.853,171.024,-24.4,-3.733,-4.747,25.52,-0.11285,-0.65204,0.1131,-0.74109,118,0.577,0.07,0.817,-1.587,-0.183,-1.77,4.406,-35.195,-108.523,-20.6,-5.52,-1.78,22.58,-0.56717,0.22324,0.20676,0.76526,122,0.446,0.035,0.89,0.427,0.854,-2.136,1.626,-26.565,178.467,-13.173,-7.327,-27.7,26.7,0.00879,0.22977,0.01053,0.97311,124,0.914,0.137,0.36,-0.61,-1.343,0.0,20.336,-67.451,-138.252,-28.38,-9.033,-0.593,28.23,0.38324,-0.45828,-0.33188,-0.72998,126
31,1.014,-0.018,0.124,-0.122,-2.747,0.488,-9.597,-82.903,171.145,-24.4,-3.733,-4.747,25.52,-0.11285,-0.65204,0.1131,-0.74109,119,0.576,0.065,0.82,-0.854,-0.549,-1.648,4.411,-35.195,-108.55,-20.6,-5.52,-1.78,22.58,-0.56717,0.22324,0.20676,0.76526,123,0.442,0.037,0.894,0.366,0.305,-1.892,1.653,-26.554,178.423,-13.173,-7.327,-27.7,26.7,0.00879,0.22977,0.01053,0.97311,125,0.912,0.133,0.359,-0.916,-1.465,0.0,20.352,-67.473,-138.268,-28.38,-9.033,-0.593,28.23,0.38324,-0.45828,-0.33188,-0.72998,127
32,1.014,-0.02,0.124,-0.183,-3.113,0.671,-9.761,-82.958,171.277,-24.4,-3.733,-4.747,25.52,-0.11285,-0.65204,0.1131,-0.74109,128,0.573,0.062,0.82,-0.427,-0.793,-1.404,4.422,-35.206,-108.572,-20.6,-5.52,-1.78,22.58,-0.56717,0.22324,0.20676,0.76526,130,0.443,0.03,0.891,-0.305,0.427,-1.221,1.675,-26.543,178.385,-13.173,-7.327,-27.7,26.7,0.00879,0.22977,0.01053,0.97311,132,0.909,0.131,0.358,-0.854,-1.343,0.305,20.363,-67.495,-138.268,-28.38,-9.033,-0.593,28.23,0.38324,-0.45828,-0.33188,-0.72998,134
33,1.013,-0.021,0.124,-0.244,-3.479,0.793,-9.965,-83.024,171.491,-24.4,-3.733,-4.747,25.52,-0.11285,-0.65204,0.1131,-0.74109,129,0.572,0.064,0.82,-0.305,-0.61,-1.282,4.438,-35.217,-108.6,-20.6,-5.52,-1.78,22.58,-0.56717,0.22324,0.20676,0.76526,131,0.442,0.031,0.893,-1.16,1.221,-0.732,1.67,-26.526,178.358,-13.173,-7.327,-27.7,26.7,0.00879,0.22977,0.01053,0.97311,133,0.908,0.132,0.354,-0.61,-1.343,0.305,20.358,-67.522,-138.263,-28.38,-9.033,-0.593,28.23,0.38324,-0.45828,-0.33188,-0.72998,135
34,1.011,-0.021,0.122,-0.366,-3.723,0.854,-10.195,-83.09,171.705,-24.4,-3.733,-4.747,25.52,-0.11285,-0.65204,0.1131,-0.74109,136,0.574,0.066,0.818,-0.061,-0.793,-0.916,4.449,-35.222,-108.622,-20.6,-5.52,-1.78,22.58,-0.56717,0.22324,0.20676,0.76526,138,0.442,0.027,0.889,-0.671,0.854,-1.038,1.664,-26.505,178.336,-13.173,-7.327,-27.7,26.7,0.00879,0.22977,0.01053,0.97311,140,0.909,0.133,0.355,-0.671,-1.404,0.305,20.358,-67.544,-138.263,-28.38,-9.033,-0.593,28.23,0.38324,-0.45828,-0.33188,-0.72998,142
35,1.011,-0.02,0.118,-0.305,-3.784,0.854,-10.432,-83.161,171.964,-24.4,-3.733,-4.747,25.52,-0.11285,-0.65204,0.1131,-0.74109,137,0.577,0.065,0.817,0.061,-1.038,-0.916,4.466,-35.239,-108.638,-20.6,-5.52,-1.78,22.58,-0.56717,0.22324,0.20676,0.76526,139,0.443,0.026,0.89,0.549,1.404,-0.61,1.67,-26.477,178.336,-13.173,-7.327,-27.7,26.7,0.00879,0.22977,0.01053,0.97311,141,0.911,0.13,0.356,-0.488,-1.465,0.366,20.358,-67.571,-138.268,-28.38,-9.033,-0.593,28.23,0.38324,-0.45828,-0.33188,-0.72998,143
36,1.012,-0.019,0.119,0.0,-3.723,0.916,-10.673,-83.227,172.205,-24.4,-3.733,-4.747,25.52,-0.11285,-0.65204,0.1131,-0.74109,144,0.578,0.063,0.813,-0.122,-0.977,-0.916,4.482,-35.255,-108.655,-20.6,-5.52,-1.78,22.58,-0.56717,0.22324,0.20676,0.76526,150,0.441,0.031,0.885,0.244,2.319,-1.038,1.692,-26.439,178.358,-13.173,-7.327,-27.7,26.7,0.00879,0.22977,0.01053,0.97311,148,0.91,0.132,0.353,-0.244,-1.465,0.366,20.358,-67.593,-138.263,-28.38,-9.033,-0.593,28.23,0.38324,-0.45828,-0.33188,-0.72998,146
37,1.011,-0.021,0.117,0.244,-3.784,0.793,-10.904,-83.293,172.365,-24.4,-3.733,-4.747,25.52,-0.11285,-0.65204,0.1131,-0.74109,145,0.575,0.062,0.81,-0.122,-0.61,-0.793,4.493,-35.266,-108.671,-20.6,-5.52,-1.78,22.58,-0.56717,0.22324,0.20676,0.76526,151,0.44,0.027,0.882,0.305,3.052,-1.038,1.708,-26.384,178.33,-13.173,-7.327,-27.7,26.7,0.00879,0.22977,0.01053,0.97311,149,0.91,0.13,0.351,0.0,-1.282,0.305,20.363,-67.621,-138.263,-28.38,-9.033,-0.593,28.23,0.38324,-0.45828,-0.33188,-0.72998,147
38,1.013,-0.02,0.115,0.305,-3.723,0.671,-11.113,-83.364,172.491,-24.4,-3.733,-4.747,25.52,-0.11285,-0.65204,0.1131,-0.74109,154,0.579,0.063,0.816,0.183,-0.183,-0.549,4.504,-35.272,-108.688,-21.047,-5.3,-2.82,22.58,-0.56717,0.22324,0.20676,0.76526,156,0.439,0.03,0.889,0.061,3.845,-0.488,1.719,-26.318,178.33,-13.173,-7.327,-27.7,26.7,0.00879,0.22977,0.01053,0.97311,152,0.916,0.126,0.347,0.183,-1.099,0.244,20.374,-67.643,-138.268,-28.38,-9.033,-0.593,28.23,0.38324,-0.45828,-0.33188,-0.72998,158
39,1.013,-0.02,0.113,0.488,-3.845,0.61,-11.31,-83.43,172.59,-24.4,-3.733,-4.747,25.52,-0.11285,-0.65204,0.1131,-0.74109,155,0.585,0.062,0.815,0.122,-0.244,-0.366,4.51,-35.272,-108.688,-21.047,-5.3,-2.82,22.58,-0.56717,0.22324,0.20676,0.76526,157,0.444,0.027,0.893,0.427,4.028,-0.305,1.73,-26.241,178.308,-13.173,-7.327,-27.7,26.7,0.00879,0.22977,0.01053,0.97311,153,0.92,0.128,0.344,0.305,-1.038,0.244,20.391,-67.659,-138.279,-28.38,-9.033,-0.593,28.23,0.38324,-0.45828,-0.33188,-0.72998,159
40,1.015,-0.02,0.108,0.488,-3.784,0.61,-11.514,-83.502,172.755,-24.387,-3.753,-4.84,25.52,-0.11285,-0.65204,0.1131,-0.74109,160,0.589,0.062,0.813,0.061,-0.366,-0.366,4.521,-35.277,-108.699,-21.047,-5.3,-2.82,22.58,-0.56717,0.22324,0.20676,0.76526,164,0.447,0.024,0.892,0.488,3.662,-0.732,1.741,-26.169,178.297,-13.173,-7.327,-27.7,26.7,0.00879,0.22977,0.01053,0.97311,162,0.92,0.13,0.341,0.366,-0.916,0.244,20.402,-67.681,-138.296,-28.38,-9.033,-0.593,28.23,0.38324,-0.45828,-0.33188,-0.72998,166
41,1.018,-0.021,0.104,0.366,-3.418,0.549,-11.706,-83.568,172.881,-24.387,-3.753,-4.84,25.52,-0.11285,-0.65204,0.1131,-0.74109,161,0.59,0.063,0.814,0.244,-0.305,-0.244,4.526,-35.283,-108.721,-21.047,-5.3,-2.82,22.58,-0.56717,0.22324,0.20676,0.76526,165,0.447,0.028,0.895,0.488,3.784,-0.916,1.758,-26.098,178.253,-13.173,-7.327,-27.7,26.7,0.00879,0.22977,0.01053,0.97311,163,0.921,0.133,0.338,0.305,-0.671,0.122,20.413,-67.698,-138.323,-28.38,-9.033,-0.593,28.23,0.38324,-0.45828,-0.33188,-0.72998,167
42,1.018,-0.02,0.102,0.366,-2.747,0.427,-11.86,-83.622,172.985,-24.387,-3.753,-4.84,25.52,-0.11285,-0.65204,0.1131,-0.74109,168,0.592,0.064,0.816,0.61,-0.305,-0.061,4.537,-35.288,-108.737,-21.047,-5.3,-2.82,22.58,-0.56448,0.22418,0.20703,0.76691,170,0.446,0.033,0.9,0.244,3.052,-0.854,1.774,-26.032,178.204,-13.173,-7.327,-27.7,26.7,0.00879,0.22977,0.01053,0.97311,172,0.924,0.129,0.338,0.305,-0.427,0.061,20.429,-67.709,-138.351,-28.38,-9.033,-0.593,28.23,0.38324,-0.45828,-0.33188,-0.72998,178
43,1.019,-0.02,0.098,0.244,-1.892,0.427,-11.986,-83.661,173.073,-24.387,-3.753,-4.84,25.52,-0.11285,-0.65204,0.1131,-0.74109,169,0.593,0.064,0.817,0.854,-0.488,0.183,4.548,-35.299,-108.748,-21.047,-5.3,-2.82,22.58,-0.56448,0.22418,0.20703,0.76691,171,0.444,0.035,0.902,0.061,2.258,-0.244,1.785,-25.983,178.138,-13.173,-7.327,-27.7,26.7,0.00879,0.22977,0.01053,0.97311,173,0.923,0.13,0.338,0.122,-0.244,0.183,20.435,-67.72,-138.362,-28.38,-9.033,-0.593,28.23,0.38324,-0.45828,-0.33188,-0.72998,179
44,1.02,-0.022,0.098,0.122,-1.038,0.366,-12.079,-83.683,173.145,-24.387,-3.753,-4.84,25.52,-0.11417,-0.65726,0.11755,-0.73557,174,0.592,0.063,0.812,0.793,-0.549,0.305,4.559,-35.31,-108.754,-21.047,-5.3,-2.82,22.58,-0.56448,0.22418,0.20703,0.76691,176,0.446,0.03,0.9,0.244,1.221,0.244,1.785,-25.955,178.099,-13.547,-7.247,-28.627,26.7,0.00879,0.22977,0.01053,0.97311,180,0.921,0.129,0.338,0.244,-0.061,0.122,20.44,-67.731,-138.367,-28.68,-8.993,-0.86,28.23,0.38324,-0.45828,-0.33188,-0.72998,184
45,1.02,-0.022,0.097,0.0,-0.305,0.366,-12.145,-83.694,173.238,-24.387,-3.753,-4.84,25.52,-0.11417,-0.65726,0.11755,-0.73557,175,0.588,0.063,0.814,0.427,-0.427,0.366,4.57,-35.327,-108.748,-21.047,-5.3,-2.82,22.58,-0.56448,0.22418,0.20703,0.76691,177,0.443,0.03,0.897,-0.366,0.305,0.305,1.785,-25.944,178.11,-13.547,-7.247,-28.627,26.7,0.00879,0.22977,0.01053,0.97311,181,0.917,0.129,0.339,0.244,0.061,0.0,20.446,-67.736,-138.384,-28.68,-8.993,-0.86,28.23,0.38324,-0.45828,-0.33188,-0.72998,185
46,1.019,-0.023,0.097,-0.061,0.244,0.244,-12.184,-83.694,173.276,-24.387,-3.753,-4.84,25.52,-0.11417,-0.65726,0.11755,-0.73557,182,0.584,0.063,0.811,0.305,-0.366,0.488,4.57,-35.338,-108.732,-21.047,-5.3,-2.82,22.58,-0.56448,0.22418,0.20703,0.76691,186,0.44,0.032,0.896,-0.854,-0.061,0.366,1.769,-25.944,178.127,-13.547,-7.247,-28.627,26.7,0.01239,0.22467,0.01141,0.97424,188,0.915,0.127,0.341,0.0,0.122,0.122,20.451,-67.742,-138.395,-28.68,-8.993,-0.86,28.23,0.38324,-0.45828,-0.33188,-0.72998,190
47,1.017,-0.025,0.096,-0.122,0.671,0.305,-12.211,-83.688,173.298,-24.387,-3.753,-4.84,25.52,-0.11417,-0.65726,0.11755,-0.73557,183,0.583,0.062,0.809,0.427,-0.549,0.488,4.57,-35.354,-108.726,-21.047,-5.3,-2.82,22.58,-0.56448,0.22418,0.20703,0.76691,187,0.437,0.029,0.892,-0.61,-0.427,0.671,1.752,-25.955,178.121,-13.547,-7.247,-28.627,26.7,0.01239,0.22467,0.01141,0.97424,189,0.914,0.129,0.344,0.0,0.122,0.122,20.446,-67.742,-138.389,-28.68,-8.993,-0.86,28.23,0.38324,-0.45828,-0.33188,-0.72998,191
48,1.016,-0.025,0.099,-0.183,0.916,0.244,-12.228,-83.672,173.304,-24.387,-3.753,-4.84,25.52,-0.11417,-0.65726,0.11755,-0.73557,192,0.582,0.062,0.81,0.366,-0.366,0.366,4.57,-35.365,-108.715,-21.047,-5.3,-2.82,22.58,-0.56448,0.22418,0.20703,0.76691,194,0.439,0.026,0.891,-1.343,-0.671,0.549,1.73,-25.972,178.099,-13.547,-7.247,-28.627,26.7,0.01239,0.22467,0.01141,0.97424,202,0.913,0.128,0.345,-0.122,0.061,0.122,20.44,-67.747,-138.389,-28.68,-8.993,-0.86,28.23,0.38263,-0.46042,-0.33252,-0.72864,196
49,1.014,-0.026,0.101,-0.305,0.916,0.244,-12.25,-83.661,173.249,-24.387,-3.753,-4.84,25.52,-0.11417,-0.65726,0.11755,-0.73557,193,0.583,0.062,0.81,0.183,-0.061,0.305,4.57,-35.376,-108.715,-21.047,-5.3,-2.82,22.58,-0.56448,0.22418,0.20703,0.76691,195,0.44,0.026,0.887,-1.099,-0.366,0.793,1.703,-25.988,178.077,-13.547,-7.247,-28.627,26.7,0.01239,0.22467,0.01141,0.97424,203,0.915,0.128,0.346,0.061,0.183,0.122,20.435,-67.753,-138.395,-28.68,-8.993,-0.86,28.23,0.38263,-0.46042,-0.33252,-0.72864,197
50,1.013,-0.026,0.103,-0.244,1.038,0.244,-12.272,-83.644,173.227,-24.387,-3.753,-4.84,25.52,-0.11417,-0.65726,0.11755,-0.73557,198,0.587,0.062,0.809,0.122,-0.061,0.305,4.565,-35.381,-108.71,-21.047,-5.3,-2.82,22.58,-0.56448,0.22418,0.20703,0.76691,200,0.445,0.028,0.889,-2.014,0.0,0.366,1.664,-25.994,178.061,-13.547,-7.247,-28.627,26.7,0.01239,0.22467,0.01141,0.97424,204,0.919,0.127,0.348,0.061,0.244,0.183,20.429,-67.753,-138.389,-28.68,-8.993,-0.86,28.23,0.38263,-0.46042,-0.33252,-0.72864,208
51,1.015,-0.024,0.105,-0.183,1.282,0.244,-12.277,-83.628,173.183,-24.387,-3.753,-4.84,25.52,-0.11417,-0.65726,0.11755,-0.73557,199,0.588,0.063,0.81,0.244,-0.183,0.488,4.565,-35.387,-108.715,-21.047,-5.3,-2.82,22.58,-0.56448,0.22418,0.20703,0.76691,201,0.445,0.025,0.887,-1.465,0.061,0.427,1.631,-25.999,178.022,-13.547,-7.247,-28.627,26.7,0.01239,0.22467,0.01141,0.97424,205,0.919,0.13,0.351,0.061,0.549,0.183,20.413,-67.753,-138.367,-28.68,-8.993,-0.86,28.23,0.38263,-0.46042,-0.33252,-0.72864,209
52,1.016,-0.024,0.109,-0.061,1.587,0.183,-12.266,-83.6,173.095,-24.387,-3.753,-4.84,25.52,-0.11417,-0.65726,0.11755,-0.73557,206,0.588,0.063,0.813,0.488,-0.061,0.671,4.559,-35.392,-108.721,-21.047,-5.3,-2.82,22.58,-0.56448,0.22418,0.20703,0.76691,210,0.446,0.027,0.894,-1.099,0.549,0.427,1.604,-25.999,178.0,-13.547,-7.247,-28.627,26.7,0.01239,0.22467,0.01141,0.97424,212,0.918,0.131,0.351,0.183,0.916,0.122,20.396,-67.742,-138.345,-28.68,-8.993,-0.86,28.23,0.38263,-0.46042,-0.33252,-0.72864,214
53,1.016,-0.021,0.112,0.0,1.953,0.061,-12.211,-83.562,172.908,-24.387,-3.753,-4.84,25.52,-0.11417,-0.65726,0.11755,-0.73557,207,0.596,0.062,0.814,0.488,-0.305,0.732,4.559,-35.403,-108.732,-21.047,-5.3,-2.82,22.58,-0.56448,0.22418,0.20703,0.76691,211,0.452,0.025,0.895,-1.526,0.916,0.61,1.571,-25.988,177.973,-13.547,-7.247,-28.627,26.7,0.01239,0.22467,0.01141,0.97424,213,0.922,0.131,0.346,0.305,1.221,0.061,20.38,-67.725,-138.312,-28.68,-8.993,-0.86,28.23,0.38263,-0.46042,-0.33252,-0.72864,215
54,1.015,-0.02,0.112,0.061,2.441,-0.061,-12.112,-83.524,172.711,-24.387,-3.753,-4.84,25.52,-0.11417,-0.65726,0.11755,-0.73557,216,0.6,0.062,0.806,0.366,-0.916,0.732,4.554,-35.42,-108.726,-21.047,-5.3,-2.82,22.58,-0.56448,0.22418,0.20703,0.76691,218,0.459,0.024,0.892,-2.197,1.709,0.549,1.527,-25.966,177.951,-13.547,-7.247,-28.627,26.7,0.01239,0.22467,0.01141,0.97424,220,0.924,0.131,0.349,-0.061,1.709,0.0,20.358,-67.703,-138.279,-28.68,-8.993,-0.86,28.23,0.38263,-0.46042,-0.33252,-0.72864,222
55,1.018,-0.02,0.115,0.0,3.601,-0.183,-11.948,-83.458,172.485,-24.387,-3.753,-4.84,25.52,-0.11417,-0.65726,0.11755,-0.73557,217,0.6,0.062,0.803,0.244,-1.099,0.488,4.554,-35.447,-108.726,-21.047,-5.3,-2.82,22.58,-0.56448,0.22418,0.20703,0.76691,219,0.453,0.023,0.883,-2.258,1.526,0.671,1.478,-25.939,177.907,-13.547,-7.247,-28.627,26.7,0.01239,0.22467,0.01141,0.97424,221,0.923,0.133,0.348,-0.244,2.441,0.0,20.325,-67.67,-138.235,-28.68,-8.993,-0.86,28.23,0.38263,-0.46042,-0.33252,-0.72864,223
56,1.019,-0.021,0.118,0.0,4.395,-0.244,-11.744,-83.375,172.255,-24.547,-3.667,-4.253,25.52,-0.11417,-0.65726,0.11755,-0.73557,224,0.601,0.062,0.803,0.0,-0.854,0.183,4.548,-35.475,-108.721,-20.733,-5.54,-2.127,22.58,-0.56448,0.22418,0.20703,0.76691,234,0.451,0.021,0.883,-2.441,2.014,0.061,1.434,-25.911,177.852,-13.547,-7.247,-28.627,26.7,0.01239,0.22467,0.01141,0.97424,226,0.922,0.136,0.345,-0.366,3.113,-0.061,20.275,-67.621,-138.175,-28.68,-8.993,-0.86,28.23,0.38263,-0.46042,-0.33252,-0.72864,228
57,1.019,-0.021,0.114,0.122,5.249,-0.244,-11.514,-83.276,172.073,-24.547,-3.667,-4.253,25.52,-0.11417,-0.65726,0.11755,-0.73557,225,0.603,0.064,0.8,0.061,-0.732,-0.061,4.548,-35.497,-108.721,-20.733,-5.54,-2.127,22.58,-0.56448,0.22418,0.20703,0.76691,235,0.452,0.022,0.884,-1.953,3.113,0.0,1.39,-25.867,177.792,-13.547,-7.247,-28.627,26.7,0.01239,0.22467,0.01141,0.97424,227,0.923,0.137,0.348,-0.61,3.784,-0.183,20.22,-67.555,-138.115,-28.68,-8.993,-0.86,28.23,0.38263,-0.46042,-0.33252,-0.72864,229
58,1.022,-0.019,0.117,0.061,6.592,-0.244,-11.25,-83.156,171.843,-24.547,-3.667,-4.253,25.52,-0.1178,-0.65353,0.12009,-0.73792,232,0.601,0.065,0.797,0.0,-0.183,-0.366,4.554,-35.513,-108.732,-20.733,-5.54,-2.127,22.58,-0.56421,0.22562,0.20828,0.76633,240,0.448,0.025,0.88,-1.831,3.357,-0.183,1.357,-25.812,177.737,-13.547,-7.247,-28.627,26.7,0.01239,0.22467,0.01141,0.97424,230,0.921,0.135,0.351,-1.038,4.333,-0.244,20.149,-67.484,-138.054,-28.68,-8.993,-0.86,28.23,0.38263,-0.46042,-0.33252,-0.72864,236
59,1.024,-0.019,0.12,0.061,7.324,-0.183,-10.981,-83.018,171.584,-24.547,-3.667,-4.253,25.52,-0.1178,-0.65353,0.12009,-0.73792,233,0.595,0.072,0.804,-0.061,0.488,-0.671,4.559,-35.513,-108.754,-20.733,-5.54,-2.127,22.58,-0.56421,0.22562,0.20828,0.76633,241,0.443,0.022,0.88,-2.197,2.197,-0.671,1.324,-25.774,177.682,-13.547,-7.247,-28.627,26.7,0.01239,0.22467,0.01141,0.97424,231,0.912,0.136,0.35,-1.892,4.883,0.0,20.05,-67.401,-137.977,-28.68,-8.993,-0.86,28.23,0.38263,-0.46042,-0.33252,-0.72864,237
60,1.02,-0.02,0.118,0.0,7.507,0.0,-10.745,-82.875,171.348,-24.547,-3.667,-4.253,25.52,-0.1178,-0.65353,0.12009,-0.73792,238,0.592,0.082,0.807,-0.732,2.258,-1.099,4.559,-35.491,-108.787,-20.733,-5.54,-2.127,22.58,-0.56421,0.22562,0.20828,0.76633,242,0.441,0.03,0.889,-0.793,2.441,-1.343,1.313,-25.741,177.594,-13.547,-7.247,-28.627,26.7,0.01239,0.22467,0.01141,0.97424,244,0.91,0.138,0.35,-2.441,4.944,0.549,19.918,-67.319,-137.884,-28.68,-8.993,-0.86,28.23,0.38263,-0.46042,-0.33252,-0.72864,250
61,1.012,-0.022,0.117,-0.366,7.69,0.244,-10.558,-82.733,171.151,-24.547,-3.667,-4.253,25.52,-0.1178,-0.65353,0.12009,-0.73792,239,0.596,0.081,0.803,-1.343,2.625,-1.343,4.559,-35.447,-108.836,-20.733,-5.54,-2.127,22.58,-0.56421,0.22562,0.20828,0.76633,243,0.448,0.038,0.888,-0.183,3.784,-3.357,1.335,-25.686,177.473,-13.547,-7.247,-28.627,26.7,0.01239,0.22467,0.01141,0.97424,245,0.917,0.138,0.354,-2.747,4.578,0.854,19.77,-67.242,-137.791,-28.68,-8.993,-0.86,28.23,0.38263,-0.46042,-0.33252,-0.72864,251
62,1.015,-0.022,0.115,-0.488,7.751,0.61,-10.448,-82.584,170.964,-24.547,-3.667,-4.253,25.52,-0.1178,-0.65353,0.12009,-0.73792,246,0.596,0.075,0.803,-1.648,2.258,-1.221,4.548,-35.409,-108.885,-20.733,-5.54,-2.127,22.58,-0.56421,0.22562,0.20828,0.76633,252,0.446,0.04,0.885,0.366,4.7,-3.113,1.379,-25.609,177.358,-13.42,-7.173,-27.84,26.7,0.01239,0.22467,0.01141,0.97424,248,0.92,0.137,0.354,-2.747,4.089,0.977,19.622,-67.176,-137.703,-28.473,-9.067,-1.293,28.23,0.38263,-0.46042,-0.33252,-0.72864,254
63,1.02,-0.022,0.116,-0.488,7.568,1.038,-10.41,-82.447,170.837,-24.547,-3.667,-4.253,25.52,-0.1178,-0.65353,0.12009,-0.73792,247,0.592,0.066,0.809,-2.319,2.625,-1.404,4.526,-35.37,-108.929,-20.733,-5.54,-2.127,22.58,-0.56421,0.22562,0.20828,0.76633,253,0.443,0.032,0.892,0.0,4.15,-2.441,1.406,-25.532,177.286,-13.42,-7.173,-27.84,26.7,0.01239,0.22467,0.01141,0.97424,249,0.914,0.137,0.352,-2.747,3.967,0.916,19.479,-67.115,-137.62,-28.473,-9.067,-1.293,28.23,0.38263,-0.46042,-0.33252,-0.72864,255
64,1.02,-0.021,0.116,-0.61,7.019,1.465,-10.453,-82.315,170.799,-24.547,-3.667,-4.253,25.52,-0.1178,-0.65353,0.12009,-0.73792,256,0.584,0.064,0.805,-2.686,3.235,-1.587,4.499,-35.316,-108.968,-20.733,-5.54,-2.127,22.58,-0.56421,0.22562,0.20828,0.76633,260,0.441,0.028,0.891,-1.953,4.272,-1.526,1.401,-25.466,177.193,-13.42,-7.173,-27.84,26.7,0.01239,0.22467,0.01141,0.97424,258,0.909,0.135,0.353,-2.38,4.211,0.61,19.358,-67.05,-137.554,-28.473,-9.067,-1.293,28.23,0.38263,-0.46042,-0.33252,-0.72864,264
65,1.017,-0.018,0.122,-0.854,6.897,1.709,-10.536,-82.189,170.815,-24.547,-3.667,-4.253,25.52,-0.1178,-0.65353,0.12009,-0.73792,257,0.581,0.061,0.805,-2.197,2.869,-1.648,4.477,-35.272,-109.012,-20.733,-5.54,-2.127,22.58,-0.56421,0.22562,0.20828,0.76633,261,0.429,0.025,0.89,-2.075,4.7,-2.747,1.39,-25.384,177.061,-13.42,-7.173,-27.84,26.7,0.01239,0.22467,0.01141,0.97424,259,0.91,0.13,0.357,-2.502,4.517,0.305,19.243,-66.973,-137.494,-28.473,-9.067,-1.293,28.23,0.38263,-0.46042,-0.33252,-0.72864,265
66,1.013,-0.017,0.127,-1.038,7.019,1.831,-10.624,-82.057,170.843,-24.547,-3.667,-4.253,25.52,-0.1178,-0.65353,0.12009,-0.73792,262,0.582,0.057,0.807,-1.282,1.953,-1.587,4.471,-35.233,-109.05,-20.733,-5.54,-2.127,22.58,-0.56421,0.22562,0.20828,0.76633,266,0.426,0.015,0.886,-3.296,4.761,-3.662,1.362,-25.307,176.946,-13.42,-7.173,-27.84,26.7,0.02231,0.21994,0.0062,0.97519,272,0.911,0.126,0.363,-2.625,4.761,0.244,19.122,-66.896,-137.417,-28.473,-9.067,-1.293,28.23,0.384,-0.45627,-0.32678,-0.73309,268
67,1.011,-0.021,0.134,-1.099,7.568,1.709,-10.679,-81.914,170.865,-24.547,-3.667,-4.253,25.52,-0.1178,-0.65353,0.12009,-0.73792,263,0.582,0.057,0.811,-0.366,1.892,-1.831,4.482,-35.206,-109.094,-20.733,-5.54,-2.127,22.58,-0.56421,0.22562,0.20828,0.76633,267,0.428,0.011,0.892,-0.549,6.531,-2.869,1.368,-25.197,176.836,-13.42,-7.173,-27.84,26.7,0.02231,0.21994,0.0062,0.97519,273,0.913,0.122,0.369,-2.441,5.249,0.366,18.995,-66.808,-137.34,-28.473,-9.067,-1.293,28.23,0.384,-0.45627,-0.32678,-0.73309,269
68,1.012,-0.023,0.14,-1.038,7.812,1.526,-10.695,-81.771,170.837,-24.547,-3.667,-4.253,25.52,-0.1178,-0.65353,0.12009,-0.73792,270,0.58,0.058,0.816,0.549,1.892,-1.709,4.51,-35.173,-109.138,-20.733,-5.54,-2.127,22.58,-0.56421,0.22562,0.20828,0.76633,274,0.422,0.02,0.899,-0.488,7.568,-2.686,1.384,-25.06,176.743,-13.42,-7.173,-27.84,26.7,0.02231,0.21994,0.0062,0.97519,276,0.913,0.122,0.372,-1.953,5.615,0.305,18.869,-66.714,-137.241,-28.473,-9.067,-1.293,28.23,0.384,-0.45627,-0.32678,-0.73309,278
69,1.016,-0.028,0.143,-0.793,7.996,1.282,-10.673,-81.623,170.771,-24.547,-3.667,-4.253,25.52,-0.1178,-0.65353,0.12009,-0.73792,271,0.577,0.06,0.824,1.526,1.892,-1.465,4.554,-35.145,-109.182,-20.733,-5.54,-2.127,22.58,-0.56421,0.22562,0.20828,0.76633,275,0.41,0.017,0.908,1.343,6.958,-1.709,1.417,-24.933,176.666,-13.42,-7.173,-27.84,26.7,0.02231,0.21994,0.0062,0.97519,277,0.911,0.124,0.377,-1.526,5.92,0.183,18.754,-66.61,-137.153,-28.473,-9.067,-1.293,28.23,0.384,-0.45627,-0.32678,-0.73309,279
70,1.017,-0.027,0.149,-0.671,8.484,1.038,-10.607,-81.464,170.667,-24.547,-3.667,-4.253,25.52,-0.1178,-0.65353,0.12009,-0.73792,280,0.572,0.063,0.826,2.441,2.258,-1.404,4.614,-35.107,-109.21,-20.733,-5.54,-2.127,22.58,-0.56421,0.22562,0.20828,0.76633,284,0.41,0.014,0.915,2.747,6.958,-1.587,1.478,-24.802,176.611,-13.42,-7.173,-27.84,26.7,0.02231,0.21994,0.0062,0.97519,282,0.905,0.127,0.38,-1.343,6.287,0.366,18.627,-66.5,-137.032,-28.473,-9.067,-1.293,28.23,0.384,-0.45627,-0.32678,-0.73309,286
71,1.017,-0.028,0.153,-0.244,8.423,0.916,-10.519,-81.304,170.53,-24.547,-3.667,-4.253,25.52,-0.1178,-0.65353,0.12009,-0.73792,281,0.562,0.067,0.828,4.211,3.052,-1.404,4.702,-35.052,-109.243,-20.733,-5.54,-2.127,22.58,-0.56421,0.22562,0.20828,0.76633,285,0.4,0.024,0.914,3.113,6.47,-1.892,1.549,-24.681,176.556,-13.42,-7.173,-27.84,26.7,0.02231,0.21994,0.0062,0.97519,283,0.896,0.124,0.382,-0.916,6.226,0.488,18.506,-66.39,-136.912,-28.473,-9.067,-1.293,28.23,0.384,-0.45627,-0.32678,-0.73309,287
72,1.011,-0.028,0.156,0.122,7.996,1.038,-10.464,-81.156,170.387,-24.787,-3.413,-5.073,25.52,-0.1178,-0.65353,0.12009,-0.73792,288,0.553,0.074,0.831,4.089,3.235,-0.854,4.79,-34.986,-109.259,-20.733,-5.54,-2.127,22.58,-0.56421,0.22562,0.20828,0.76633,290,0.387,0.032,0.916,3.906,5.371,-1.892,1.637,-24.571,176.501,-13.42,-7.173,-27.84,26.7,0.02231,0.21994,0.0062,0.97519,292,0.888,0.122,0.383,-0.488,6.104,0.61,18.386,-66.286,-136.78,-28.473,-9.067,-1.293,28.23,0.384,-0.45627,-0.32678,-0.73309,294
73,1.001,-0.03,0.158,0.549,8.057,1.038,-10.399,-81.002,170.244,-24.787,-3.413,-5.073,25.52,-0.1178,-0.65353,0.12009,-0.73792,289,0.545,0.073,0.829,4.272,3.418,-0.61,4.878,-34.92,-109.27,-20.733,-5.54,-2.127,22.58,-0.56421,0.22562,0.20828,0.76633,291,0.388,0.038,0.919,3.601,4.822,-1.099,1.719,-24.478,176.451,-13.42,-7.173,-27.84,26.7,0.02231,0.21994,0.0062,0.97519,293,0.886,0.121,0.386,-0.122,5.554,0.671,18.276,-66.187,-136.659,-28.473,-9.067,-1.293,28.23,0.384,-0.45627,-0.32678,-0.73309,295
74,0.996,-0.03,0.159,0.977,7.751,1.038,-10.333,-80.859,170.151,-24.787,-3.413,-5.073,25.52,-0.1232,-0.63782,0.12372,-0.75006,296,0.544,0.073,0.835,5.127,2.808,-0.183,4.977,-34.86,-109.265,-20.733,-5.54,-2.127,22.58,-0.56421,0.22562,0.20828,0.76633,298,0.375,0.032,0.92,3.235,5.005,-0.671,1.791,-24.379,176.413,-13.42,-7.173,-27.84,26.7,0.02231,0.21994,0.0062,0.97519,300,0.886,0.121,0.39,-0.061,4.883,0.732,18.171,-66.094,-136.549,-28.473,-9.067,-1.293,28.23,0.384,-0.45627,-0.32678,-0.73309,302
75,0.997,-0.03,0.162,1.099,7.141,0.977,-10.272,-80.722,170.101,-24.787,-3.413,-5.073,25.52,-0.1232,-0.63782,0.12372,-0.75006,297,0.543,0.071,0.834,4.944,1.77,0.366,5.065,-34.816,-109.254,-20.733,-5.54,-2.127,22.58,-0.56421,0.22562,0.20828,0.76633,299,0.375,0.029,0.924,4.089,4.272,1.038,1.862,-24.285,176.435,-13.42,-7.173,-27.84,26.7,0.02231,0.21994,0.0062,0.97519,301,0.886,0.122,0.391,0.061,4.272,0.732,18.083,-66.017,-136.439,-28.473,-9.067,-1.293,28.23,0.384,-0.45627,-0.32678,-0.73309,303
76,0.996,-0.029,0.166,0.916,6.226,0.977,-10.239,-80.607,170.046,-24.787,-3.413,-5.073,25.52,-0.1232,-0.63782,0.12372,-0.75006,304,0.545,0.075,0.839,4.883,1.587,0.549,5.153,-34.777,-109.243,-20.493,-5.467,-2.447,22.58,-0.56421,0.22562,0.20828,0.76633,312,0.375,0.033,0.928,3.113,3.662,1.77,1.912,-24.203,176.517,-13.42,-7.173,-27.84,26.7,0.02231,0.21994,0.0062,0.97519,306,0.888,0.122,0.391,0.427,3.54,0.671,18.012,-65.956,-136.346,-28.473,-9.067,-1.293,28.23,0.384,-0.45627,-0.32678,-0.73309,308
77,0.996,-0.028,0.165,0.793,5.249,0.854,-10.217,-80.508,169.991,-24.787,-3.413,-5.073,25.52,-0.1232,-0.63782,0.12372,-0.75006,305,0.549,0.078,0.84,4.333,1.099,0.854,5.224,-34.739,-109.232,-20.493,-5.467,-2.447,22.58,-0.56421,0.22562,0.20828,0.76633,313,0.378,0.033,0.93,2.747,2.93,2.014,1.95,-24.137,176.611,-13.42,-7.173,-27.84,26.7,0.02231,0.21994,0.0062,0.97519,307,0.891,0.123,0.394,0.793,2.747,0.732,17.957,-65.907,-136.252,-28.473,-9.067,-1.293,28.23,0.384,-0.45627,-0.32678,-0.73309,309
78,0.999,-0.03,0.168,0.732,4.395,0.793,-10.201,-80.425,170.002,-24.787,-3.413,-5.073,25.52,-0.1232,-0.63782,0.12372,-0.75006,310,0.552,0.076,0.838,4.089,0.549,0.732,5.29,-34.717,-109.215,-20.493,-5.467,-2.447,22.58,-0.56339,0.21744,0.20853,0.76926,314,0.38,0.027,0.929,3.174,2.563,1.648,1.989,-24.071,176.682,-13.42,-7.173,-27.84,26.7,0.02231,0.21994,0.0062,0.97519,316,0.893,0.125,0.396,0.854,2.258,0.671,17.913,-65.863,-136.17,-28.473,-9.067,-1.293,28.23,0.384,-0.45627,-0.32678,-0.73309,318
79,1.002,-0.028,0.173,0.671,3.967,0.793,-10.195,-80.349,170.041,-24.787,-3.413,-5.073,25.52,-0.1232,-0.63782,0.12372,-0.75006,311,0.554,0.078,0.837,3.662,0.61,0.366,5.356,-34.695,-109.204,-20.493,-5.467,-2.447,22.58,-0.56339,0.21744,0.20853,0.76926,315,0.381,0.027,0.927,2.686,1.526,1.038,2.032,-24.027,176.743,-13.42,-7.173,-27.84,26.7,0.02231,0.21994,0.0062,0.97519,317,0.893,0.125,0.396,0.61,1.831,0.61,17.875,-65.83,-136.093,-28.473,-9.067,-1.293,28.23,0.384,-0.45627,-0.32678,-0.73309,319
80,1.002,-0.028,0.175,0.549,3.418,0.793,-10.201,-80.283,170.079,-24.787,-3.413,-5.073,25.52,-0.1232,-0.63782,0.12372,-0.75006,320,0.554,0.08,0.836,2.808,0.61,0.305,5.405,-34.667,-109.193,-20.493,-5.467,-2.447,22.58,-0.56339,0.21744,0.20853,0.76926,328,0.382,0.033,0.929,2.197,1.16,0.488,2.071,-23.989,176.786,-12.247,-7.16,-28.967,26.7,0.02231,0.21994,0.0062,0.97519,322,0.893,0.126,0.397,0.61,1.526,0.61,17.836,-65.797,-136.027,-28.487,-8.693,-1.74,28.23,0.384,-0.45627,-0.32678,-0.73309,330
81,1.003,-0.026,0.176,0.244,2.93,0.732,-10.212,-80.228,170.101,-24.787,-3.413,-5.073,25.52,-0.1232,-0.63782,0.12372,-0.75006,321,0.554,0.08,0.835,2.014,0.61,0.183,5.444,-34.645,-109.188,-20.493,-5.467,-2.447,22.58,-0.56339,0.21744,0.20853,0.76926,329,0.383,0.032,0.925,1.465,0.183,0.122,2.098,-23.961,176.786,-12.247,-7.16,-28.967,26.7,0.02231,0.21994,0.0062,0.97519,323,0.894,0.127,0.399,0.366,1.282,0.366,17.814,-65.77,-135.983,-28.487,-8.693,-1.74,28.23,0.384,-0.45627,-0.32678,-0.73309,331
82,1.001,-0.025,0.18,0.0,2.319,0.793,-10.239,-80.178,170.112,-24.787,-3.413,-5.073,25.52,-0.1232,-0.63782,0.12372,-0.75006,324,0.553,0.08,0.834,1.343,0.793,0.0,5.471,-34.612,-109.177,-20.493,-5.467,-2.447,22.58,-0.56339,0.21744,0.20853,0.76926,332,0.381,0.029,0.924,1.831,-0.854,0.0,2.131,-23.961,176.786,-12.247,-7.16,-28.967,26.7,0.02231,0.21994,0.0062,0.97519,326,0.89,0.125,0.397,0.305,1.099,0.244,17.792,-65.748,-135.928,-28.487,-8.693,-1.74,28.23,0.38916,-0.44827,-0.32159,-0.73761,334
83,0.996,-0.028,0.179,0.0,1.831,0.732,-10.267,-80.129,170.134,-24.787,-3.413,-5.073,25.52,-0.1232,-0.63782,0.12372,-0.75006,325,0.548,0.079,0.831,0.977,0.732,-0.061,5.488,-34.585,-109.177,-20.493,-5.467,-2.447,22.58,-0.56339,0.21744,0.20853,0.76926,333,0.383,0.031,0.92,1.587,-0.916,-0.244,2.159,-23.961,176.814,-12.247,-7.16,-28.967,26.7,0.02231,0.21994,0.0062,0.97519,327,0.886,0.123,0.396,0.244,0.854,0.061,17.781,-65.726,-135.884,-28.487,-8.693,-1.74,28.23,0.38916,-0.44827,-0.32159,-0.73761,335
84,0.993,-0.029,0.177,0.0,1.282,0.671,-10.3,-80.096,170.195,-24.787,-3.413,-5.073,25.52,-0.1232,-0.63782,0.12372,-0.75006,336,0.546,0.077,0.831,0.61,0.61,-0.061,5.499,-34.563,-109.188,-20.493,-5.467,-2.447,22.58,-0.56339,0.21744,0.20853,0.76926,338,0.383,0.034,0.917,1.16,-1.16,0.0,2.181,-23.967,176.896,-12.247,-7.16,-28.967,26.7,0.02338,0.20798,0.01257,0.97772,340,0.886,0.117,0.396,0.305,0.488,-0.061,17.776,-65.709,-135.846,-28.487,-8.693,-1.74,28.23,0.38916,-0.44827,-0.32159,-0.73761,342
85,0.997,-0.031,0.176,-0.061,0.793,0.488,-10.333,-80.074,170.255,-24.787,-3.413,-5.073,25.52,-0.1232,-0.63782,0.12372,-0.75006,337,0.549,0.073,0.832,0.488,0.122,0.0,5.504,-34.541,-109.193,-20.493,-5.467,-2.447,22.58,-0.56339,0.21744,0.20853,0.76926,339,0.386,0.029,0.917,1.16,-0.671,0.366,2.197,-23.967,177.006,-12.247,-7.16,-28.967,26.7,0.02338,0.20798,0.01257,0.97772,341,0.888,0.117,0.395,0.549,0.0,-0.183,17.792,-65.698,-135.824,-28.487,-8.693,-1.74,28.23,0.38916,-0.44827,-0.32159,-0.73761,343
86,0.997,-0.033,0.174,-0.366,0.061,0.183,-10.355,-80.057,170.31,-24.807,-3.493,-5.68,25.52,-0.1232,-0.63782,0.12372,-0.75006,344,0.552,0.072,0.83,0.427,-0.305,0.061,5.51,-34.536,-109.199,-20.493,-5.467,-2.447,22.58,-0.56339,0.21744,0.20853,0.76926,346,0.39,0.027,0.915,0.793,-0.732,1.16,2.203,-23.967,177.166,-12.247,-7.16,-28.967,26.7,0.02338,0.20798,0.01257,0.97772,348,0.889,0.117,0.393,0.916,-0.305,-0.366,17.82,-65.698,-135.813,-28.487,-8.693,-1.74,28.23,0.38916,-0.44827,-0.32159,-0.73761,350
87,0.998,-0.033,0.173,-0.366,-0.549,-0.122,-10.366,-80.057,170.354,-24.807,-3.493,-5.68,25.52,-0.1232,-0.63782,0.12372,-0.75006,345,0.555,0.075,0.829,0.244,-0.61,0.061,5.515,-34.53,-109.21,-20.493,-5.467,-2.447,22.58,-0.56339,0.21744,0.20853,0.76926,347,0.39,0.032,0.914,0.122,-0.732,1.16,2.192,-23.972,177.33,-12.247,-7.16,-28.967,26.7,0.02338,0.20798,0.01257,0.97772,349,0.894,0.117,0.394,1.282,-0.732,-0.427,17.864,-65.704,-135.791,-28.487,-8.693,-1.74,28.23,0.38916,-0.44827,-0.32159,-0.73761,351
88,1.003,-0.036,0.175,-0.183,-1.282,-0.244,-10.366,-80.074,170.403,-24.807,-3.493,-5.68,25.52,-0.12155,-0.63266,0.12241,-0.75491,352,0.561,0.079,0.831,0.244,-0.793,0.122,5.515,-34.536,-109.221,-20.493,-5.467,-2.447,22.58,-0.56339,0.21744,0.20853,0.76926,354,0.394,0.032,0.917,0.122,-0.427,1.221,2.181,-23.967,177.473,-12.247,-7.16,-28.967,26.7,0.02338,0.20798,0.01257,0.97772,356,0.898,0.119,0.397,1.404,-1.221,-0.427,17.913,-65.715,-135.797,-28.487,-8.693,-1.74,28.23,0.38916,-0.44827,-0.32159,-0.73761,358
89,1.006,-0.036,0.178,-0.244,-1.77,-0.244,-10.366,-80.101,170.453,-24.807,-3.493,-5.68,25.52,-0.12155,-0.63266,0.12241,-0.75491,353,0.564,0.079,0.832,0.183,-0.488,0.305,5.51,-34.53,-109.215,-20.493,-5.467,-2.447,22.58,-0.56339,0.21744,0.20853,0.76926,355,0.396,0.037,0.919,-0.122,0.0,1.16,2.164,-23.956,177.583,-12.247,-7.16,-28.967,26.7,0.02338,0.20798,0.01257,0.97772,357,0.898,0.118,0.397,1.343,-1.465,-0.305,17.963,-65.737,-135.807,-28.487,-8.693,-1.74,28.23,0.38916,-0.44827,-0.32159,-0.73761,359
90,1.004,-0.036,0.179,-0.183,-2.136,-0.366,-10.377,-80.134,170.519,-24.807,-3.493,-5.68,25.52,-0.12155,-0.63266,0.12241,-0.75491,360,0.564,0.075,0.824,0.183,-0.549,0.61,5.504,-34.536,-109.204,-20.493,-5.467,-2.447,22.58,-0.56339,0.21744,0.20853,0.76926,362,0.399,0.029,0.913,0.854,-0.427,1.404,2.159,-23.95,177.687,-12.247,-7.16,-28.967,26.7,0.02338,0.20798,0.01257,0.97772,364,0.897,0.119,0.393,1.221,-1.16,-0.244,18.001,-65.748,-135.813,-28.487,-8.693,-1.74,28.23,0.38916,-0.44827,-0.32159,-0.73761,366
91,1.005,-0.034,0.176,-0.122,-2.136,-0.549,-10.382,-80.178,170.59,-24.807,-3.493,-5.68,25.52,-0.12155,-0.63266,0.12241,-0.75491,361,0.571,0.081,0.826,-0.244,-0.549,0.488,5.488,-34.536,-109.182,-20.493,-5.467,-2.447,22.58,-0.56339,0.21744,0.20853,0.76926,363,0.403,0.037,0.915,-0.183,-0.732,1.892,2.142,-23.956,177.819,-12.247,-7.16,-28.967,26.7,0.02338,0.20798,0.01257,0.97772,365,0.901,0.125,0.389,1.038,-1.099,-0.122,18.029,-65.764,-135.818,-28.487,-8.693,-1.74,28.23,0.38916,-0.44827,-0.32159,-0.73761,367
92,1.009,-0.032,0.173,0.0,-1.892,-0.488,-10.371,-80.217,170.601,-24.807,-3.493,-5.68,25.52,-0.12155,-0.63266,0.12241,-0.75491,368,0.573,0.084,0.823,-0.427,-0.244,0.244,5.477,-34.536,-109.177,-20.493,-5.467,-2.447,22.58,-0.56339,0.21744,0.20853,0.76926,374,0.408,0.039,0.917,0.0,-0.305,0.671,2.131,-23.956,177.907,-12.247,-7.16,-28.967,26.7,0.02338,0.20798,0.01257,0.97772,370,0.907,0.126,0.387,0.488,-1.038,0.0,18.04,-65.781,-135.807,-28.487,-8.693,-1.74,28.23,0.38916,-0.44827,-0.32159,-0.73761,372
93,1.013,-0.031,0.17,0.0,-1.465,-0.427,-10.355,-80.25,170.596,-24.807,-3.493,-5.68,25.52,-0.12155,-0.63266,0.12241,-0.75491,369,0.574,0.081,0.827,-0.122,0.0,0.488,5.466,-34.53,-109.166,-20.493,-5.467,-2.447,22.58,-0.56339,0.21744,0.20853,0.76926,375,0.408,0.042,0.917,-0.183,-1.038,0.671,2.126,-23.961,177.946,-12.247,-7.16,-28.967,26.7,0.02338,0.20798,0.01257,0.97772,371,0.906,0.125,0.383,0.488,-0.916,0.061,18.051,-65.792,-135.786,-28.487,-8.693,-1.74,28.23,0.38916,-0.44827,-0.32159,-0.73761,373
94,1.011,-0.03,0.168,0.0,-1.404,-0.366,-10.344,-80.277,170.579,-24.807,-3.493,-5.68,25.52,-0.12155,-0.63266,0.12241,-0.75491,376,0.575,0.077,0.828,0.0,0.0,0.854,5.455,-34.525,-109.144,-20.593,-5.593,-2.473,22.58,-0.56339,0.21744,0.20853,0.76926,378,0.413,0.035,0.917,-0.305,-1.587,1.465,2.109,-23.989,178.006,-12.247,-7.16,-28.967,26.7,0.02338,0.20798,0.01257,0.97772,380,0.905,0.127,0.383,0.549,-1.038,0.0,18.067,-65.808,-135.775,-28.487,-8.693,-1.74,28.23,0.38916,-0.44827,-0.32159,-0.73761,382
95,1.01,-0.028,0.164,-0.061,-1.343,-0.427,-10.333,-80.299,170.574,-24.807,-3.493,-5.68,25.52,-0.12155,-0.63266,0.12241,-0.75491,377,0.576,0.077,0.821,0.0,-0.366,0.793,5.444,-34.53,-109.133,-20.593,-5.593,-2.473,22.58,-0.56339,0.21744,0.20853,0.76926,379,0.41,0.033,0.91,-0.732,-0.793,2.014,2.082,-24.0,178.072,-12.247,-7.16,-28.967,26.7,0.02338,0.20798,0.01257,0.97772,381,0.903,0.129,0.38,0.732,-1.038,-0.061,18.089,-65.825,-135.786,-28.487,-8.693,-1.74,28.23,0.38916,-0.44827,-0.32159,-0.73761,383
96,1.008,-0.027,0.162,-0.122,-1.343,-0.427,-10.311,-80.327,170.607,-24.807,-3.493,-5.68,25.52,-0.12155,-0.63266,0.12241,-0.75491,384,0.575,0.08,0.821,0.0,-0.366,0.793,5.433,-34.536,-109.116,-20.593,-5.593,-2.473,22.58,-0.56339,0.21744,0.20853,0.76926,386,0.409,0.032,0.911,-0.671,-1.526,1.282,2.054,-24.027,178.121,-12.613,-7.34,-28.447,26.7,0.02338,0.20798,0.01257,0.97772,388,0.899,0.131,0.38,0.427,-1.099,-0.183,18.116,-65.841,-135.807,-28.527,-9.1,-1.447,28.23,0.38916,-0.44827,-0.32159,-0.73761,390
97,1.007,-0.026,0.161,-0.183,-1.404,-0.427,-10.294,-80.354,170.689,-24.807,-3.493,-5.68,25.52,-0.12155,-0.63266,0.12241,-0.75491,385,0.57,0.079,0.816,-0.244,-0.244,0.61,5.422,-34.541,-109.105,-20.593,-5.593,-2.473,22.58,-0.56339,0.21744,0.20853,0.76926,387,0.408,0.035,0.906,-0.427,-1.221,0.793,2.038,-24.049,178.16,-12.613,-7.34,-28.447,26.7,0.02338,0.20798,0.01257,0.97772,389,0.898,0.129,0.381,0.305,-1.038,-0.244,18.144,-65.863,-135.857,-28.527,-9.1,-1.447,28.23,0.38916,-0.44827,-0.32159,-0.73761,391
98,1.005,-0.027,0.162,-0.244,-1.587,-0.366,-10.278,-80.381,170.755,-24.807,-3.493,-5.68,25.52,-0.12155,-0.63266,0.12241,-0.75491,392,0.568,0.077,0.818,-0.122,-0.427,0.366,5.416,-34.552,-109.1,-20.593,-5.593,-2.473,22.58,-0.56458,0.21539,0.20877,0.76886,394,0.406,0.029,0.905,0.061,-1.953,0.488,2.038,-24.082,178.204,-12.613,-7.34,-28.447,26.7,0.02338,0.20798,0.01257,0.97772,396,0.9,0.13,0.379,0.305,-1.099,-0.305,18.177,-65.88,-135.923,-28.527,-9.1,-1.447,28.23,0.38916,-0.44827,-0.32159,-0.73761,400
99,1.005,-0.025,0.16,-0.305,-1.587,-0.366,-10.272,-80.414,170.826,-24.807,-3.493,-5.68,25.52,-0.12155,-0.63266,0.12241,-0.75491,393,0.572,0.078,0.82,-0.183,-0.671,0.183,5.411,-34.563,-109.1,-20.593,-5.593,-2.473,22.58,-0.56458,0.21539,0.20877,0.76886,395,0.408,0.033,0.908,0.0,-1.221,0.244,2.032,-24.109,178.259,-12.613,-7.34,-28.447,26.7,0.02338,0.20798,0.01257,0.97772,397,0.903,0.131,0.381,0.244,-1.16,-0.366,18.215,-65.896,-135.994,-28.527,-9.1,-1.447,28.23,0.38916,-0.44827,-0.32159,-0.73761,401
100,1.008,-0.024,0.163,-0.366,-1.465,-0.366,-10.261,-80.447,170.859,-24.807,-3.493,-5.68,25.52,-0.12155,-0.63266,0.12241,-0.75491,398,0.574,0.081,0.817,-0.122,-0.854,0.0,5.411,-34.579,-109.105,-20.593,-5.593,-2.473,22.58,-0.56458,0.21539,0.20877,0.76886,402,0.413,0.038,0.906,0.0,-1.221,0.183,2.032,-24.131,178.281,-12.613,-7.34,-28.447,26.7,0.01096,0.20914,0.01422,0.97766,404,0.906,0.131,0.382,0.244,-1.038,-0.244,18.248,-65.912,-136.06,-28.527,-9.1,-1.447,28.23,0.3902,-0.44812,-0.32434,-0.73593,406
101,1.01,-0.024,0.164,-0.366,-1.282,-0.366,-10.25,-80.48,170.92,-24.807,-3.493,-5.68,25.52,-0.12155,-0.63266,0.12241,-0.75491,399,0.576,0.084,0.818,-0.183,-0.793,0.0,5.411,-34.596,-109.111,-20.593,-5.593,-2.473,22.58,-0.56458,0.21539,0.20877,0.76886,403,0.414,0.041,0.907,0.061,-1.404,0.427,2.032,-24.159,178.292,-12.613,-7.34,-28.447,26.7,0.01096,0.20914,0.01422,0.97766,405,0.904,0.132,0.385,0.183,-0.977,-0.183,18.281,-65.929,-136.11,-28.527,-9.1,-1.447,28.23,0.3902,-0.44812,-0.32434,-0.73593,407
102,1.01,-0.026,0.165,-0.183,-1.16,-0.305,-10.234,-80.508,170.953,-24.773,-3.447,-5.047,25.52,-0.12155,-0.63266,0.12241,-0.75491,408,0.574,0.083,0.816,-0.244,-0.671,0.061,5.405,-34.612,-109.111,-20.593,-5.593,-2.473,22.58,-0.56458,0.21539,0.20877,0.76886,410,0.41,0.041,0.904,-0.488,-1.099,-0.122,2.027,-24.181,178.303,-12.613,-7.34,-28.447,26.7,0.01096,0.20914,0.01422,0.97766,412,0.903,0.131,0.383,0.061,-0.549,-0.122,18.309,-65.945,-136.132,-28.527,-9.1,-1.447,28.23,0.3902,-0.44812,-0.32434,-0.73593,414
103,1.009,-0.027,0.168,-0.122,-1.099,-0.122,-10.217,-80.53,170.942,-24.773,-3.447,-5.047,25.52,-0.12155,-0.63266,0.12241,-0.75491,409,0.573,0.083,0.821,-0.183,-0.488,0.0,5.405,-34.623,-109.111,-20.593,-5.593,-2.473,22.58,-0.56458,0.21539,0.20877,0.76886,411,0.414,0.034,0.909,0.244,-1.953,0.0,2.032,-24.214,178.336,-12.613,-7.34,-28.447,26.7,0.01096,0.20914,0.01422,0.97766,413,0.904,0.131,0.385,0.0,-0.671,-0.061,18.325,-65.956,-136.148,-28.527,-9.1,-1.447,28.23,0.3902,-0.44812,-0.32434,-0.73593,415
104,1.01,-0.027,0.166,-0.061,-0.854,0.0,-10.223,-80.552,170.975,-24.773,-3.447,-5.047,25.52,-0.11716,-0.63654,0.11838,-0.75296,416,0.574,0.082,0.82,-0.488,-0.183,-0.122,5.4,-34.629,-109.111,-20.593,-5.593,-2.473,22.58,-0.56458,0.21539,0.20877,0.76886,420,0.415,0.039,0.906,0.427,-1.404,-0.366,2.049,-24.247,178.374,-12.613,-7.34,-28.447,26.7,0.01096,0.20914,0.01422,0.97766,418,0.902,0.13,0.385,-0.122,-0.427,0.0,18.342,-65.962,-136.17,-28.527,-9.1,-1.447,28.23,0.3902,-0.44812,-0.32434,-0.73593,422
105,1.009,-0.026,0.168,-0.061,-0.61,0.0,-10.228,-80.568,171.013,-24.773,-3.447,-5.047,25.52,-0.11716,-0.63654,0.11838,-0.75296,417,0.574,0.082,0.818,-0.305,-0.244,-0.122,5.4,-34.634,-109.111,-20.593,-5.593,-2.473,22.58,-0.56458,0.21539,0.20877,0.76886,421,0.413,0.042,0.904,0.244,-0.916,0.0,2.06,-24.263,178.396,-12.613,-7.34,-28.447,26.7,0.01096,0.20914,0.01422,0.97766,419,0.902,0.127,0.385,-0.244,-0.305,0.061,18.347,-65.967,-136.181,-28.527,-9.1,-1.447,28.23,0.3902,-0.44812,-0.32434,-0.73593,423
106,1.007,-0.027,0.167,0.0,-0.549,0.061,-10.228,-80.579,171.041,-24.773,-3.447,-5.047,25.52,-0.11716,-0.63654,0.11838,-0.75296,426,0.572,0.079,0.817,0.061,-0.366,0.061,5.405,-34.645,-109.105,-20.593,-5.593,-2.473,22.58,-0.56458,0.21539,0.20877,0.76886,428,0.412,0.037,0.903,0.244,-0.122,0.305,2.065,-24.274,178.429,-12.613,-7.34,-28.447,26.7,0.01096,0.20914,0.01422,0.97766,424,0.902,0.126,0.382,-0.122,-0.122,0.061,18.347,-65.973,-136.192,-28.527,-9.1,-1.447,28.23,0.3902,-0.44812,-0.32434,-0.73593,430
107,1.007,-0.027,0.165,0.0,-0.427,0.061,-10.239,-80.585,171.057,-24.773,-3.447,-5.047,25.52,-0.11716,-0.63654,0.11838,-0.75296,427,0.572,0.077,0.817,0.183,-0.366,0.183,5.405,-34.656,-109.1,-20.593,-5.593,-2.473,22.58,-0.56458,0.21539,0.20877,0.76886,429,0.41,0.032,0.905,0.427,0.244,-0.122,2.076,-24.269,178.44,-12.613,-7.34,-28.447,26.7,0.01096,0.20914,0.01422,0.97766,425,0.901,0.126,0.381,0.0,-0.122,0.0,18.347,-65.973,-136.198,-28.527,-9.1,-1.447,28.23,0.3902,-0.44812,-0.32434,-0.73593,431
108,1.007,-0.028,0.164,0.0,-0.183,0.0,-10.239,-80.596,171.09,-24.773,-3.447,-5.047,25.52,-0.11716,-0.63654,0.11838,-0.75296,432,0.57,0.076,0.817,0.183,-0.244,0.183,5.411,-34.662,-109.094,-20.593,-5.593,-2.473,22.58,-0.56458,0.21539,0.20877,0.76886,434,0.409,0.037,0.904,0.305,0.122,0.0,2.087,-24.269,178.456,-12.613,-7.34,-28.447,26.7,0.01096,0.20914,0.01422,0.97766,436,0.902,0.126,0.38,-0.122,-0.061,0.0,18.353,-65.973,-136.198,-28.527,-9.1,-1.447,28.23,0.3902,-0.44812,-0.32434,-0.73593,438
109,1.007,-0.029,0.162,0.0,-0.122,0.0,-10.228,-80.596,171.112,-24.773,-3.447,-5.047,25.52,-0.11716,-0.63654,0.11838,-0.75296,433,0.57,0.078,0.819,0.244,-0.061,0.183,5.416,-34.667,-109.094,-20.593,-5.593,-2.473,22.58,-0.56458,0.21539,0.20877,0.76886,435,0.409,0.035,0.906,0.366,0.0,0.122,2.093,-24.269,178.473,-12.613,-7.34,-28.447,26.7,0.01096,0.20914,0.01422,0.97766,437,0.903,0.125,0.38,-0.061,-0.122,0.0,18.353,-65.973,-136.181,-28.527,-9.1,-1.447,28.23,0.3902,-0.44812,-0.32434,-0.73593,439
110,1.007,-0.03,0.16,-0.061,-0.183,0.0,-10.223,-80.596,171.107,-24.773,-3.447,-5.047,25.52,-0.11716,-0.63654,0.11838,-0.75296,440,0.571,0.076,0.823,0.061,-0.061,0.183,5.416,-34.667,-109.1,-20.593,-5.593,-2.473,22.58,-0.56458,0.21539,0.20877,0.76886,446,0.41,0.034,0.91,0.244,-0.061,0.183,2.104,-24.274,178.473,-12.613,-7.34,-28.447,26.7,0.01096,0.20914,0.01422,0.97766,442,0.903,0.125,0.379,0.0,-0.305,0.0,18.353,-65.978,-136.165,-28.527,-9.1,-1.447,28.23,0.3902,-0.44812,-0.32434,-0.73593,444
111,1.008,-0.029,0.16,-0.183,-0.183,0.0,-10.223,-80.601,171.079,-24.773,-3.447,-5.047,25.52,-0.11716,-0.63654,0.11838,-0.75296,441,0.572,0.077,0.822,-0.061,-0.122,0.061,5.411,-34.673,-109.105,-20.593,-5.593,-2.473,22.58,-0.56458,0.21539,0.20877,0.76886,447,0.411,0.033,0.91,0.061,0.305,0.061,2.104,-24.269,178.478,-12.613,-7.34,-28.447,26.7,0.01096,0.20914,0.01422,0.97766,443,0.902,0.126,0.38,0.0,-0.366,0.0,18.358,-65.984,-136.159,-28.527,-9.1,-1.447,28.23,0.3902,-0.44812,-0.32434,-0.73593,445
112,1.008,-0.028,0.16,-0.122,-0.122,0.0,-10.228,-80.607,171.085,-24.773,-3.447,-5.047,25.52,-0.11716,-0.63654,0.11838,-0.75296,448,0.57,0.077,0.822,0.0,-0.122,0.122,5.411,-34.678,-109.105,-21.193,-5.873,-3.007,22.58,-0.56458,0.21539,0.20877,0.76886,450,0.408,0.034,0.909,0.488,0.0,0.0,2.115,-24.269,178.517,-12.613,-7.34,-28.447,26.7,0.01096,0.20914,0.01422,0.97766,454,0.902,0.125,0.38,0.061,-0.305,0.0,18.364,-65.989,-136.17,-28.527,-9.1,-1.447,28.23,0.3902,-0.44812,-0.32434,-0.73593,452
113,1.007,-0.029,0.16,0.0,-0.305,0.0,-10.228,-80.612,171.085,-24.773,-3.447,-5.047,25.52,-0.11716,-0.63654,0.11838,-0.75296,449,0.572,0.078,0.823,0.183,-0.122,0.305,5.411,-34.678,-109.094,-21.193,-5.873,-3.007,22.58,-0.56458,0.21539,0.20877,0.76886,451,0.409,0.037,0.912,0.61,-0.366,0.427,2.126,-24.274,178.55,-12.613,-7.34,-28.447,26.7,0.01096,0.20914,0.01422,0.97766,455,0.903,0.126,0.381,0.122,-0.366,0.0,18.375,-65.995,-136.181,-28.527,-9.1,-1.447,28.23,0.3902,-0.44812,-0.32434,-0.73593,453
114,1.007,-0.029,0.161,0.0,-0.305,-0.061,-10.228,-80.618,171.107,-24.773,-3.447,-5.047,25.52,-0.11716,-0.63654,0.11838,-0.75296,456,0.573,0.079,0.821,0.061,-0.122,0.305,5.411,-34.684,-109.089,-21.193,-5.873,-3.007,22.58,-0.56458,0.21539,0.20877,0.76886,458,0.412,0.037,0.91,0.549,-0.366,0.854,2.131,-24.28,178.566,-12.92,-7.167,-28.687,26.7,0.01096,0.20914,0.01422,0.97766,460,0.903,0.127,0.381,0.122,-0.366,0.0,18.38,-66.0,-136.192,-28.78,-9.073,-1.433,28.23,0.3902,-0.44812,-0.32434,-0.73593,464
115,1.008,-0.029,0.162,0.061,-0.183,0.0,-10.223,-80.623,171.178,-24.773,-3.447,-5.047,25.52,-0.11716,-0.63654,0.11838,-0.75296,457,0.572,0.078,0.82,0.183,-0.305,0.366,5.411,-34.689,-109.089,-21.193,-5.873,-3.007,22.58,-0.56458,0.21539,0.20877,0.76886,459,0.409,0.035,0.907,0.854,-0.793,0.854,2.137,-24.296,178.555,-12.92,-7.167,-28.687,26.7,0.01096,0.20914,0.01422,0.97766,461,0.9,0.125,0.382,0.122,-0.305,0.0,18.386,-66.011,-136.219,-28.78,-9.073,-1.433,28.23,0.3902,-0.44812,-0.32434,-0.73593,465
116,1.007,-0.028,0.163,0.122,-0.122,0.0,-10.223,-80.629,171.222,-24.333,-3.7,-5.067,25.52,-0.11716,-0.63654,0.11838,-0.75296,462,0.57,0.077,0.821,0.305,-0.244,0.488,5.411,-34.695,-109.083,-21.193,-5.873,-3.007,22.58,-0.56451,0.21643,0.20944,0.76846,474,0.408,0.039,0.908,0.183,-0.854,1.16,2.137,-24.313,178.572,-12.92,-7.167,-28.687,26.7,0.01096,0.20914,0.01422,0.97766,466,0.9,0.127,0.383,0.366,-0.244,0.0,18.397,-66.011,-136.23,-28.78,-9.073,-1.433,28.23,0.38934,-0.44901,-0.3248,-0.73566,468
117,1.007,-0.028,0.165,0.122,0.0,-0.061,-10.217,-80.629,171.266,-24.333,-3.7,-5.067,25.52,-0.11716,-0.63654,0.11838,-0.75296,463,0.569,0.077,0.821,0.488,-0.183,0.61,5.411,-34.7,-109.072,-21.193,-5.873,-3.007,22.58,-0.56451,0.21643,0.20944,0.76846,475,0.409,0.036,0.907,-0.305,-0.671,1.16,2.126,-24.329,178.577,-12.92,-7.167,-28.687,26.7,0.01096,0.20914,0.01422,0.97766,467,0.901,0.127,0.384,0.305,-0.244,0.0,18.408,-66.017,-136.269,-28.78,-9.073,-1.433,28.23,0.38934,-0.44901,-0.3248,-0.73566,469
118,1.006,-0.027,0.164,0.183,0.0,-0.122,-10.195,-80.634,171.255,-24.333,-3.7,-5.067,25.52,-0.11716,-0.63654,0.11838,-0.75296,470,0.57,0.078,0.819,0.549,-0.305,0.549,5.416,-34.711,-109.061,-21.193,-5.873,-3.007,22.58,-0.56451,0.21643,0.20944,0.76846,476,0.409,0.032,0.905,-0.061,-0.671,1.16,2.115,-24.34,178.61,-12.92,-7.167,-28.687,26.7,0.00809,0.21094,0.0155,0.97729,472,0.901,0.128,0.383,0.244,-0.183,0.0,18.413,-66.022,-136.313,-28.78,-9.073,-1.433,28.23,0.38934,-0.44901,-0.3248,-0.73566,478
119,1.007,-0.027,0.165,0.244,-0.122,-0.183,-10.173,-80.634,171.249,-24.333,-3.7,-5.067,25.52,-0.11716,-0.63654,0.11838,-0.75296,471,0.567,0.077,0.821,0.122,0.0,0.244,5.416,-34.711,-109.056,-21.193,-5.873,-3.007,22.58,-0.56451,0.21643,0.20944,0.76846,477,0.412,0.035,0.907,0.244,-0.366,0.854,2.109,-24.351,178.665,-12.92,-7.167,-28.687,26.7,0.00809,0.21094,0.0155,0.97729,473,0.9,0.128,0.383,0.305,-0.244,-0.061,18.424,-66.022,-136.351,-28.78,-9.073,-1.433,28.23,0.38934,-0.44901,-0.3248,-0.73566,479
120,1.007,-0.026,0.164,0.183,-0.183,-0.183,-10.146,-80.64,171.249,-24.333,-3.7,-5.067,25.52,-0.11517,-0.63739,0.11661,-0.75284,480,0.567,0.078,0.822,-0.061,-0.183,0.183,5.416,-34.711,-109.056,-21.193,-5.873,-3.007,22.58,-0.56451,0.21643,0.20944,0.76846,484,0.405,0.037,0.906,-0.732,-0.488,0.244,2.098,-24.357,178.698,-12.92,-7.167,-28.687,26.7,0.00809,0.21094,0.0155,0.97729,486,0.898,0.13,0.382,0.183,-0.183,-0.122,18.435,-66.028,-136.373,-28.78,-9.073,-1.433,28.23,0.38934,-0.44901,-0.3248,-0.73566,482
121,1.004,-0.025,0.165,0.061,-0.305,-0.183,-10.118,-80.645,171.238,-24.333,-3.7,-5.067,25.52,-0.11517,-0.63739,0.11661,-0.75284,481,0.57,0.083,0.82,-0.488,-0.061,-0.061,5.411,-34.717,-109.067,-21.193,-5.873,-3.007,22.58,-0.56451,0.21643,0.20944,0.76846,485,0.406,0.028,0.908,0.122,-0.793,0.793,2.093,-24.373,178.709,-12.92,-7.167,-28.687,26.7,0.00809,0.21094,0.0155,0.97729,487,0.9,0.131,0.38,0.122,-0.122,-0.061,18.446,-66.028,-136.379,-28.78,-9.073,-1.433,28.23,0.38934,-0.44901,-0.3248,-0.73566,483
122,1.003,-0.025,0.163,0.122,-0.305,-0.122,-10.096,-80.651,171.227,-24.333,-3.7,-5.067,25.52,-0.11517,-0.63739,0.11661,-0.75284,488,0.573,0.08,0.821,-0.366,-0.427,-0.244,5.405,-34.717,-109.067,-21.193,-5.873,-3.007,22.74,-0.56451,0.21643,0.20944,0.76846,492,0.415,0.038,0.907,-0.488,-0.244,-0.61,2.093,-24.373,178.715,-12.92,-7.167,-28.687,26.7,0.00809,0.21094,0.0155,0.97729,490,0.906,0.13,0.383,0.0,-0.305,-0.122,18.457,-66.028,-136.384,-28.78,-9.073,-1.433,28.23,0.38934,-0.44901,-0.3248,-0.73566,494
123,1.01,-0.025,0.161,0.061,-0.244,-0.122,-10.08,-80.656,171.222,-24.333,-3.7,-5.067,25.52,-0.11517,-0.63739,0.11661,-0.75284,489,0.573,0.075,0.825,-0.061,-0.305,-0.122,5.405,-34.722,-109.072,-21.193,-5.873,-3.007,22.74,-0.56451,0.21643,0.20944,0.76846,493,0.41,0.039,0.908,0.244,0.183,-0.854,2.104,-24.368,178.72,-12.92,-7.167,-28.687,26.7,0.00809,0.21094,0.0155,0.97729,491,0.906,0.125,0.383,-0.122,-0.427,-0.183,18.468,-66.033,-136.368,-28.78,-9.073,-1.433,28.23,0.38934,-0.44901,-0.3248,-0.73566,495
124,1.011,-0.027,0.163,0.0,-0.244,-0.122,-10.058,-80.662,171.183,-24.333,-3.7,-5.067,25.52,-0.11517,-0.63739,0.11661,-0.75284,498,0.573,0.074,0.823,0.305,-0.366,0.183,5.405,-34.728,-109.078,-21.193,-5.873,-3.007,22.74,-0.56451,0.21643,0.20944,0.76846,500,0.411,0.034,0.912,-0.244,0.0,-0.183,2.104,-24.368,178.753,-12.92,-7.167,-28.687,26.7,0.00809,0.21094,0.0155,0.97729,496,0.903,0.122,0.38,0.183,-0.244,-0.183,18.484,-66.033,-136.362,-28.78,-9.073,-1.433,28.23,0.38934,-0.44901,-0.3248,-0.73566,502
125,1.009,-0.028,0.162,0.0,-0.366,-0.183,-10.036,-80.667,171.161,-24.333,-3.7,-5.067,25.52,-0.11517,-0.63739,0.11661,-0.75284,499,0.573,0.075,0.823,0.732,-0.61,0.427,5.411,-34.739,-109.083,-21.193,-5.873,-3.007,22.74,-0.56451,0.21643,0.20944,0.76846,501,0.413,0.031,0.91,0.305,-0.122,0.366,2.109,-24.368,178.764,-12.92,-7.167,-28.687,26.7,0.00809,0.21094,0.0155,0.97729,497,0.903,0.125,0.381,0.549,-0.183,0.0,18.495,-66.039,-136.357,-28.78,-9.073,-1.433,28.23,0.38934,-0.44901,-0.3248,-0.73566,503
126,1.009,-0.028,0.161,0.0,-0.244,-0.244,-10.014,-80.673,171.123,-24.333,-3.7,-5.067,25.52,-0.11517,-0.63739,0.11661,-0.75284,504,0.571,0.068,0.82,1.099,-0.549,0.244,5.422,-34.75,-109.089,-21.193,-5.873,-3.007,22.74,-0.56451,0.21643,0.20944,0.76846,506,0.411,0.03,0.912,0.0,-0.183,0.0,2.109,-24.373,178.77,-12.92,-7.167,-28.687,26.7,0.00809,0.21094,0.0155,0.97729,508,0.902,0.127,0.378,0.488,-0.244,-0.366,18.512,-66.039,-136.362,-28.78,-9.073,-1.433,28.23,0.38934,-0.44901,-0.3248,-0.73566,510
127,1.008,-0.029,0.159,0.122,-0.244,-0.366,-9.976,-80.684,171.129,-24.333,-3.7,-5.067,25.52,-0.11517,-0.63739,0.11661,-0.75284,505,0.571,0.071,0.82,0.793,-0.366,-0.244,5.438,-34.761,-109.1,-21.193,-5.873,-3.007,22.74,-0.56451,0.21643,0.20944,0.76846,507,0.413,0.024,0.906,1.343,-0.427,0.0,2.137,-24.379,178.748,-12.92,-7.167,-28.687,26.7,0.00809,0.21094,0.0155,0.97729,509,0.902,0.126,0.378,0.305,-0.244,-0.488,18.545,-66.044,-136.379,-28.78,-9.073,-1.433,28.23,0.38934,-0.44901,-0.3248,-0.73566,511
128,1.006,-0.03,0.158,0.061,-0.366,-0.427,-9.926,-80.689,171.112,-24.333,-3.7,-5.067,25.52,-0.11517,-0.63739,0.11661,-0.75284,512,0.572,0.077,0.819,0.183,-0.305,-0.427,5.455,-34.766,-109.122,-21.193,-5.873,-3.007,22.74,-0.56451,0.21643,0.20944,0.76846,514,0.409,0.024,0.905,1.526,-1.221,0.854,2.159,-24.401,178.753,-12.92,-7.167,-28.687,26.7,0.00809,0.21094,0.0155,0.97729,516,0.902,0.125,0.378,0.305,-0.244,-0.549,18.572,-66.044,-136.406,-28.78,-9.073,-1.433,28.23,0.38934,-0.44901,-0.3248,-0.73566,518
129,1.007,-0.029,0.159,0.061,-0.305,-0.549,-9.877,-80.7,171.03,-24.333,-3.7,-5.067,25.52,-0.11517,-0.63739,0.11661,-0.75284,513,0.574,0.076,0.819,0.0,-0.305,-0.122,5.46,-34.772,-109.138,-21.193,-5.873,-3.007,22.74,-0.56451,0.21643,0.20944,0.76846,515,0.41,0.034,0.906,1.709,-1.221,0.0,2.186,-24.428,178.759,-12.92,-7.167,-28.687,26.7,0.00809,0.21094,0.0155,0.97729,517,0.902,0.123,0.378,0.488,-0.305,-0.549,18.605,-66.044,-136.439,-28.78,-9.073,-1.433,28.23,0.38934,-0.44901,-0.3248,-0.73566,519
130,1.007,-0.028,0.159,0.061,-0.244,-0.61,-9.811,-80.706,170.958,-24.333,-3.7,-5.067,25.52,-0.11517,-0.63739,0.11661,-0.75284,520,0.573,0.073,0.817,0.366,-0.488,0.305,5.46,-34.777,-109.149,-21.193,-5.873,-3.007,22.74,-0.56451,0.21643,0.20944,0.76846,522,0.411,0.038,0.906,1.16,-1.221,0.0,2.208,-24.45,178.775,-12.92,-7.167,-28.687,26.7,0.00809,0.21094,0.0155,0.97729,524,0.9,0.124,0.38,0.671,-0.305,-0.549,18.638,-66.05,-136.467,-28.507,-9.08,-1.64,28.23,0.38934,-0.44901,-0.3248,-0.73566,526
131,1.006,-0.028,0.16,0.183,-0.244,-0.61,-9.745,-80.717,170.936,-24.333,-3.7,-5.067,25.52,-0.11517,-0.63739,0.11661,-0.75284,521,0.57,0.075,0.818,0.916,-0.366,0.549,5.466,-34.788,-109.155,-21.193,-5.873,-3.007,22.74,-0.56451,0.21643,0.20944,0.76846,523,0.415,0.033,0.905,1.648,-1.282,0.122,2.241,-24.472,178.753,-12.92,-7.167,-28.687,26.7,0.00809,0.21094,0.0155,0.97729,525,0.901,0.126,0.38,0.793,-0.244,-0.671,18.682,-66.05,-136.5,-28.507,-9.08,-1.64,28.23,0.38934,-0.44901,-0.3248,-0.73566,527
132,1.007,-0.029,0.16,0.244,-0.366,-0.854,-9.662,-80.722,170.859,-24.747,-3.56,-4.96,25.52,-0.11517,-0.63739,0.11661,-0.75284,528,0.573,0.074,0.818,1.221,-0.061,0.366,5.471,-34.794,-109.155,-21.193,-5.873,-3.007,22.74,-0.56451,0.21643,0.20944,0.76846,530,0.415,0.037,0.906,1.892,-1.587,0.977,2.269,-24.505,178.759,-12.92,-7.167,-28.687,26.7,0.00809,0.21094,0.0155,0.97729,532,0.902,0.129,0.381,0.854,-0.305,-0.671,18.726,-66.05,-136.544,-28.507,-9.08,-1.64,28.23,0.38934,-0.44901,-0.3248,-0.73566,534
133,1.008,-0.028,0.161,0.305,-0.366,-0.977,-9.558,-80.739,170.777,-24.747,-3.56,-4.96,25.52,-0.11517,-0.63739,0.11661,-0.75284,529,0.576,0.077,0.82,0.732,0.061,-0.122,5.488,-34.794,-109.16,-21.193,-5.873,-3.007,22.74,-0.56451,0.21643,0.20944,0.76846,531,0.413,0.035,0.903,2.014,-1.648,1.221,2.296,-24.538,178.759,-12.92,-7.167,-28.687,26.7,0.00809,0.21094,0.0155,0.97729,533,0.904,0.131,0.38,0.732,-0.183,-0.732,18.77,-66.05,-136.599,-28.507,-9.08,-1.64,28.23,0.38934,-0.44901,-0.3248,-0.73566,535
134,1.008,-0.025,0.163,0.244,-0.305,-0.977,-9.443,-80.744,170.689,-24.747,-3.56,-4.96,25.52,-0.11475,-0.63834,0.1149,-0.75238,538,0.576,0.083,0.818,0.0,0.061,-0.366,5.499,-34.794,-109.166,-21.193,-5.873,-3.007,22.74,-0.56451,0.21643,0.20944,0.76846,542,0.416,0.031,0.907,1.587,-1.526,1.404,2.313,-24.565,178.781,-12.613,-7.527,-28.507,26.7,0.00809,0.21094,0.0155,0.97729,536,0.904,0.132,0.381,0.671,-0.183,-0.793,18.82,-66.05,-136.637,-28.507,-9.08,-1.64,28.23,0.38852,-0.44901,-0.32584,-0.73563,546
135,1.01,-0.023,0.163,0.244,-0.244,-0.916,-9.338,-80.755,170.596,-24.747,-3.56,-4.96,25.52,-0.11475,-0.63834,0.1149,-0.75238,539,0.571,0.087,0.82,0.366,-0.122,-0.061,5.504,-34.794,-109.177,-21.193,-5.873,-3.007,22.74,-0.56451,0.21643,0.20944,0.76846,543,0.418,0.042,0.905,0.916,-1.465,0.244,2.329,-24.598,178.764,-12.613,-7.527,-28.507,26.7,0.00809,0.21094,0.0155,0.97729,537,0.901,0.135,0.382,0.549,-0.061,-0.732,18.864,-66.044,-136.681,-28.507,-9.08,-1.64,28.23,0.38852,-0.44901,-0.32584,-0.73563,547
136,1.008,-0.021,0.163,0.305,-0.183,-0.916,-9.229,-80.76,170.508,-24.747,-3.56,-4.96,25.52,-0.11475,-0.63834,0.1149,-0.75238,540,0.567,0.082,0.819,0.61,-0.244,-0.061,5.515,-34.799,-109.177,-20.607,-5.46,-2.107,22.74,-0.56451,0.21643,0.20944,0.76846,548,0.415,0.048,0.907,0.427,-0.793,-0.061,2.335,-24.609,178.764,-12.613,-7.527,-28.507,26.7,0.00809,0.21094,0.0155,0.97729,544,0.898,0.137,0.38,0.305,-0.061,-0.671,18.896,-66.039,-136.719,-28.507,-9.08,-1.64,28.23,0.38852,-0.44901,-0.32584,-0.73563,550
137,1.007,-0.02,0.162,0.305,-0.122,-0.854,-9.113,-80.766,170.453,-24.747,-3.56,-4.96,25.52,-0.11475,-0.63834,0.1149,-0.75238,541,0.57,0.083,0.823,-0.366,-0.244,-0.671,5.521,-34.799,-109.177,-20.607,-5.46,-2.107,22.74,-0.56451,0.21643,0.20944,0.76846,549,0.412,0.039,0.905,0.793,-1.038,0.0,2.351,-24.631,178.77,-12.613,-7.527,-28.507,26.7,0.00809,0.21094,0.0155,0.97729,545,0.901,0.138,0.381,0.183,-0.122,-0.732,18.935,-66.033,-136.758,-28.507,-9.08,-1.64,28.23,0.38852,-0.44901,-0.32584,-0.73563,551
138,1.007,-0.02,0.161,0.122,0.0,-0.854,-9.003,-80.771,170.392,-24.747,-3.56,-4.96,25.52,-0.11475,-0.63834,0.1149,-0.75238,552,0.572,0.086,0.822,-1.404,-0.305,-1.099,5.521,-34.805,-109.193,-20.607,-5.46,-2.107,22.74,-0.56451,0.21643,0.20944,0.76846,554,0.409,0.038,0.909,-0.061,-1.221,-0.366,2.357,-24.653,178.759,-12.613,-7.527,-28.507,26.7,0.0061,0.21335,0.0177,0.97675,556,0.9,0.137,0.381,0.0,-0.244,-0.793,18.979,-66.033,-136.796,-28.507,-9.08,-1.64,28.23,0.38852,-0.44901,-0.32584,-0.73563,558
139,1.008,-0.02,0.162,-0.061,0.0,-0.732,-8.899,-80.777,170.294,-24.747,-3.56,-4.96,25.52,-0.11475,-0.63834,0.1149,-0.75238,553,0.572,0.087,0.819,-1.587,-0.122,-1.038,5.51,-34.805,-109.215,-20.607,-5.46,-2.107,22.74,-0.56451,0.21643,0.20944,0.76846,555,0.414,0.044,0.907,-0.122,-0.793,-1.038,2.362,-24.664,178.753,-12.613,-7.527,-28.507,26.7,0.0061,0.21335,0.0177,0.97675,557,0.9,0.137,0.381,-0.122,-0.305,-0.732,19.012,-66.033,-136.835,-28.507,-9.08,-1.64,28.23,0.38852,-0.44901,-0.32584,-0.73563,559
140,1.007,-0.02,0.162,-0.183,-0.244,-0.549,-8.817,-80.777,170.206,-24.747,-3.56,-4.96,25.52,-0.11475,-0.63834,0.1149,-0.75238,560,0.57,0.085,0.819,-0.977,0.0,-0.793,5.499,-34.805,-109.243,-20.607,-5.46,-2.107,22.74,-0.56357,0.21704,0.21036,0.76871,562,0.414,0.046,0.907,-0.183,-1.099,-1.282,2.373,-24.686,178.753,-12.613,-7.527,-28.507,26.7,0.0061,0.21335,0.0177,0.97675,564,0.899,0.137,0.379,-0.244,-0.366,-0.61,19.045,-66.033,-136.884,-28.507,-9.08,-1.64,28.23,0.38852,-0.44901,-0.32584,-0.73563,566
141,1.007,-0.02,0.16,-0.305,-0.488,-0.427,-8.762,-80.788,170.074,-24.747,-3.56,-4.96,25.52,-0.11475,-0.63834,0.1149,-0.75238,561,0.569,0.083,0.819,-0.549,0.0,-0.854,5.493,-34.805,-109.254,-20.607,-5.46,-2.107,22.74,-0.56357,0.21704,0.21036,0.76871,563,0.418,0.047,0.904,0.183,-0.854,-1.465,2.395,-24.697,178.737,-12.613,-7.527,-28.507,26.7,0.0061,0.21335,0.0177,0.97675,565,0.899,0.136,0.379,-0.122,-0.549,-0.549,19.078,-66.039,-136.912,-28.507,-9.08,-1.64,28.23,0.38852,-0.44901,-0.32584,-0.73563,567
142,1.006,-0.021,0.159,-0.366,-0.549,-0.366,-8.718,-80.799,170.03,-24.747,-3.56,-4.96,25.52,-0.11475,-0.63834,0.1149,-0.75238,568,0.571,0.083,0.821,-0.671,0.0,-1.038,5.499,-34.799,-109.27,-20.607,-5.46,-2.107,22.74,-0.56357,0.21704,0.21036,0.76871,570,0.414,0.042,0.904,0.488,-1.099,-1.099,2.417,-24.714,178.715,-12.613,-7.527,-28.507,26.7,0.0061,0.21335,0.0177,0.97675,572,0.901,0.136,0.379,-0.122,-0.671,-0.549,19.116,-66.044,-136.95,-28.507,-9.08,-1.64,28.23,0.38852,-0.44901,-0.32584,-0.73563,574
143,1.007,-0.021,0.159,-0.244,-0.61,-0.305,-8.679,-80.815,169.975,-24.747,-3.56,-4.96,25.52,-0.11475,-0.63834,0.1149,-0.75238,569,0.575,0.084,0.82,-1.038,-0.183,-1.038,5.504,-34.799,-109.286,-20.607,-5.46,-2.107,22.74,-0.56357,0.21704,0.21036,0.76871,571,0.415,0.046,0.907,0.366,-0.916,-0.793,2.433,-24.73,178.671,-12.613,-7.527,-28.507,26.7,0.0061,0.21335,0.0177,0.97675,573,0.904,0.133,0.379,-0.183,-0.671,-0.549,19.149,-66.05,-136.989,-28.507,-9.08,-1.64,28.23,0.38852,-0.44901,-0.32584,-0.73563,575
144,1.008,-0.021,0.159,-0.305,-0.732,-0.244,-8.652,-80.826,169.871,-24.747,-3.56,-4.96,25.52,-0.11475,-0.63834,0.1149,-0.75238,578,0.578,0.086,0.819,-0.977,-0.549,-0.671,5.499,-34.799,-109.303,-20.607,-5.46,-2.107,22.74,-0.56357,0.21704,0.21036,0.76871,580,0.418,0.046,0.907,0.0,-0.916,-0.977,2.45,-24.747,178.61,-12.613,-7.527,-28.507,26.7,0.0061,0.21335,0.0177,0.97675,576,0.905,0.131,0.378,-0.122,-0.61,-0.366,19.177,-66.055,-137.005,-28.507,-9.08,-1.64,28.23,0.38852,-0.44901,-0.32584,-0.73563,582
145,1.011,-0.022,0.16,-0.305,-0.732,-0.183,-8.635,-80.843,169.761,-24.747,-3.56,-4.96,25.52,-0.11475,-0.63834,0.1149,-0.75238,579,0.578,0.085,0.817,-0.061,-0.977,0.061,5.493,-34.816,-109.314,-20.607,-5.46,-2.107,22.74,-0.56357,0.21704,0.21036,0.76871,581,0.421,0.049,0.906,-0.183,-0.61,-1.038,2.461,-24.758,178.539,-12.613,-7.527,-28.507,26.7,0.0061,0.21335,0.0177,0.97675,577,0.904,0.132,0.378,0.122,-0.488,-0.183,19.199,-66.061,-137.021,-28.507,-9.08,-1.64,28.23,0.38852,-0.44901,-0.32584,-0.73563,583
146,1.011,-0.023,0.159,-0.244,-0.549,-0.183,-8.619,-80.854,169.64,-24.613,-3.76,-6.013,25.52,-0.11475,-0.63834,0.1149,-0.75238,584,0.575,0.076,0.815,0.549,-0.671,0.366,5.499,-34.832,-109.314,-20.607,-5.46,-2.107,22.74,-0.56357,0.21704,0.21036,0.76871,586,0.424,0.048,0.903,0.488,-0.427,-0.977,2.483,-24.763,178.478,-12.613,-7.527,-28.507,26.7,0.0061,0.21335,0.0177,0.97675,588,0.902,0.132,0.376,0.366,-0.366,-0.122,19.221,-66.066,-137.032,-28.507,-9.08,-1.64,28.23,0.38852,-0.44901,-0.32584,-0.73563,590
147,1.008,-0.023,0.158,0.0,-0.488,-0.183,-8.602,-80.865,169.552,-24.613,-3.76,-6.013,25.52,-0.11475,-0.63834,0.1149,-0.75238,585,0.575,0.074,0.814,0.732,-0.244,0.183,5.515,-34.843,-109.308,-20.607,-5.46,-2.107,22.74,-0.56357,0.21704,0.21036,0.76871,587,0.42,0.04,0.9,1.099,-0.366,-0.244,2.51,-24.769,178.407,-12.613,-7.527,-28.507,26.7,0.0061,0.21335,0.0177,0.97675,589,0.902,0.133,0.377,0.488,-0.305,-0.244,19.243,-66.072,-137.043,-28.507,-9.08,-1.64,28.23,0.38852,-0.44901,-0.32584,-0.73563,591
148,1.007,-0.024,0.158,0.122,-0.305,-0.244,-8.569,-80.876,169.492,-24.613,-3.76,-6.013,25.52,-0.11475,-0.63834,0.1149,-0.75238,592,0.576,0.079,0.816,0.549,0.0,0.061,5.526,-34.849,-109.303,-20.607,-5.46,-2.107,22.74,-0.56357,0.21704,0.21036,0.76871,594,0.418,0.036,0.899,1.648,-0.427,0.671,2.538,-24.78,178.363,-12.613,-7.527,-28.507,26.7,0.0061,0.21335,0.0177,0.97675,598,0.903,0.132,0.377,0.488,-0.244,-0.183,19.27,-66.077,-137.065,-28.12,-8.8,-1.473,28.23,0.38852,-0.44901,-0.32584,-0.73563,596
149,1.009,-0.024,0.158,0.183,-0.244,-0.244,-8.536,-80.881,169.437,-24.613,-3.76,-6.013,25.52,-0.11475,-0.63834,0.1149,-0.75238,593,0.575,0.083,0.818,0.427,0.183,0.183,5.537,-34.849,-109.297,-20.607,-5.46,-2.107,22.74,-0.56357,0.21704,0.21036,0.76871,595,0.418,0.042,0.9,1.77,-0.427,0.671,2.571,-24.791,178.352,-12.613,-7.527,-28.507,26.7,0.0061,0.21335,0.0177,0.97675,599,0.904,0.132,0.376,0.366,-0.122,-0.061,19.281,-66.077,-137.076,-28.12,-8.8,-1.473,28.23,0.38852,-0.44901,-0.32584,-0.73563,597
150,1.01,-0.023,0.158,0.244,-0.183,-0.183,-8.509,-80.887,169.393,-24.613,-3.76,-6.013,25.52,-0.11774,-0.63889,0.11581,-0.75128,600,0.573,0.08,0.817,0.549,-0.061,0.61,5.543,-34.849,-109.292,-20.607,-5.46,-2.107,22.74,-0.56357,0.21704,0.21036,0.76871,602,0.421,0.051,0.905,1.648,-0.244,0.244,2.604,-24.796,178.314,-12.673,-7.293,-28.52,26.7,0.0061,0.21335,0.0177,0.97675,604,0.902,0.132,0.377,0.427,-0.061,-0.061,19.292,-66.077,-137.065,-28.12,-8.8,-1.473,28.23,0.38852,-0.44901,-0.32584,-0.73563,606
151,1.009,-0.023,0.157,0.244,-0.122,-0.183,-8.481,-80.892,169.349,-24.613,-3.76,-6.013,25.52,-0.11774,-0.63889,0.11581,-0.75128,601,0.573,0.082,0.82,0.305,-0.244,0.61,5.543,-34.854,-109.286,-20.607,-5.46,-2.107,22.74,-0.56357,0.21704,0.21036,0.76871,603,0.417,0.044,0.9,1.404,-0.427,0.305,2.631,-24.802,178.281,-12.673,-7.293,-28.52,26.7,0.0061,0.21335,0.0177,0.97675,605,0.9,0.135,0.376,0.366,-0.061,-0.061,19.308,-66.077,-137.054,-28.12,-8.8,-1.473,28.23,0.38852,-0.44901,-0.32584,-0.73563,607
152,1.007,-0.021,0.157,0.244,-0.183,-0.183,-8.454,-80.898,169.272,-24.613,-3.76,-6.013,25.52,-0.11774,-0.63889,0.11581,-0.75128,608,0.578,0.085,0.816,0.0,-0.183,0.244,5.543,-34.86,-109.286,-20.607,-5.46,-2.107,22.74,-0.56357,0.21704,0.21036,0.76871,616,0.421,0.046,0.904,1.16,-0.916,1.282,2.648,-24.824,178.297,-12.673,-7.293,-28.52,26.7,0.0061,0.21335,0.0177,0.97675,610,0.904,0.139,0.375,0.183,-0.061,0.0,19.314,-66.077,-137.043,-28.12,-8.8,-1.473,28.23,0.38751,-0.44876,-0.32748,-0.7356,612
153,1.007,-0.021,0.155,0.244,-0.183,-0.183,-8.427,-80.903,169.195,-24.613,-3.76,-6.013,25.52,-0.11774,-0.63889,0.11581,-0.75128,609,0.578,0.083,0.819,0.183,0.0,0.0,5.548,-34.865,-109.297,-20.607,-5.46,-2.107,22.74,-0.56357,0.21704,0.21036,0.76871,617,0.426,0.047,0.902,0.793,0.061,-0.061,2.664,-24.824,178.325,-12.673,-7.293,-28.52,26.7,0.0061,0.21335,0.0177,0.97675,611,0.907,0.137,0.378,0.0,-0.183,0.0,19.319,-66.083,-137.032,-28.12,-8.8,-1.473,28.23,0.38751,-0.44876,-0.32748,-0.7356,613
154,1.012,-0.021,0.156,0.0,0.0,-0.061,-8.41,-80.903,169.124,-24.613,-3.76,-6.013,25.52,-0.11774,-0.63889,0.11581,-0.75128,614,0.574,0.081,0.821,0.549,0.183,0.244,5.554,-34.865,-109.303,-20.607,-5.46,-2.107,22.74,-0.56357,0.21704,0.21036,0.76871,626,0.418,0.05,0.904,1.221,-0.732,0.244,2.692,-24.84,178.347,-12.673,-7.293,-28.52,26.7,0.0061,0.21335,0.0177,0.97675,618,0.904,0.135,0.378,-0.122,-0.244,0.061,19.325,-66.088,-137.016,-28.12,-8.8,-1.473,28.23,0.38751,-0.44876,-0.32748,-0.7356,620
155,1.009,-0.019,0.158,0.0,0.0,0.061,-8.405,-80.903,169.069,-24.613,-3.76,-6.013,25.52,-0.11774,-0.63889,0.11581,-0.75128,615,0.571,0.081,0.821,0.549,-0.122,0.427,5.559,-34.865,-109.308,-20.607,-5.46,-2.107,22.74,-0.56357,0.21704,0.21036,0.76871,627,0.418,0.047,0.906,0.854,-0.793,0.854,2.703,-24.857,178.336,-12.673,-7.293,-28.52,26.7,0.0061,0.21335,0.0177,0.97675,619,0.901,0.134,0.376,0.0,-0.122,0.0,19.33,-66.088,-137.005,-28.12,-8.8,-1.473,28.23,0.38751,-0.44876,-0.32748,-0.7356,621
156,1.008,-0.019,0.158,0.0,0.0,0.0,-8.399,-80.909,169.014,-24.613,-3.76,-6.013,25.52,-0.11774,-0.63889,0.11581,-0.75128,622,0.57,0.079,0.821,0.427,-0.183,0.305,5.57,-34.871,-109.308,-20.493,-5.687,-2.533,22.74,-0.56357,0.21704,0.21036,0.76871,632,0.417,0.043,0.907,0.854,-0.732,0.793,2.714,-24.873,178.286,-12.673,-7.293,-28.52,26.7,0.00925,0.21552,0.01993,0.9762,624,0.9,0.136,0.378,0.122,-0.122,0.0,19.336,-66.094,-136.994,-28.12,-8.8,-1.473,28.23,0.38751,-0.44876,-0.32748,-0.7356,628
157,1.007,-0.019,0.158,-0.122,0.122,0.0,-8.388,-80.909,168.953,-24.613,-3.76,-6.013,25.52,-0.11774,-0.63889,0.11581,-0.75128,623,0.569,0.078,0.819,0.183,-0.183,0.0,5.57,-34.876,-109.325,-20.493,-5.687,-2.533,22.74,-0.56357,0.21704,0.21036,0.76871,633,0.417,0.04,0.904,1.587,-1.038,0.244,2.747,-24.89,178.215,-12.673,-7.293,-28.52,26.7,0.00925,0.21552,0.01993,0.9762,625,0.899,0.136,0.378,0.0,-0.183,-0.061,19.347,-66.094,-136.989,-28.12,-8.8,-1.473,28.23,0.38751,-0.44876,-0.32748,-0.7356,629
158,1.005,-0.02,0.157,-0.122,0.0,0.0,-8.383,-80.909,168.893,-24.613,-3.76,-6.013,25.52,-0.11774,-0.63889,0.11581,-0.75128,630,0.571,0.081,0.819,-0.122,-0.427,-0.122,5.576,-34.882,-109.341,-20.493,-5.687,-2.533,22.74,-0.56357,0.21704,0.21036,0.76871,638,0.415,0.042,0.903,1.587,-1.038,0.244,2.774,-24.911,178.176,-12.673,-7.293,-28.52,26.7,0.00925,0.21552,0.01993,0.9762,634,0.9,0.134,0.379,-0.183,-0.305,-0.122,19.358,-66.099,-136.983,-28.12,-8.8,-1.473,28.23,0.38751,-0.44876,-0.32748,-0.7356,636
159,1.005,-0.021,0.159,-0.244,-0.244,0.0,-8.377,-80.914,168.838,-24.613,-3.76,-6.013,25.52,-0.11774,-0.63889,0.11581,-0.75128,631,0.573,0.081,0.818,-0.183,-0.366,-0.183,5.576,-34.887,-109.352,-20.493,-5.687,-2.533,22.74,-0.56357,0.21704,0.21036,0.76871,639,0.417,0.05,0.902,0.732,-1.038,0.0,2.791,-24.933,178.16,-12.673,-7.293,-28.52,26.7,0.00925,0.21552,0.01993,0.9762,635,0.9,0.135,0.378,0.0,-0.366,-0.183,19.374,-66.105,-136.983,-28.12,-8.8,-1.473,28.23,0.38751,-0.44876,-0.32748,-0.7356,637
160,1.006,-0.021,0.158,-0.305,-0.427,0.0,-8.383,-80.92,168.794,-24.613,-3.76,-6.013,25.52,-0.11774,-0.63889,0.11581,-0.75128,640,0.572,0.082,0.816,0.122,-0.427,0.0,5.576,-34.893,-109.358,-20.493,-5.687,-2.533,22.74,-0.56357,0.21704,0.21036,0.76871,646,0.42,0.048,0.901,0.793,-0.732,0.061,2.807,-24.944,178.182,-12.673,-7.293,-28.52,26.7,0.00925,0.21552,0.01993,0.9762,644,0.901,0.132,0.378,0.0,-0.488,-0.122,19.391,-66.11,-136.989,-28.12,-8.8,-1.473,28.23,0.38751,-0.44876,-0.32748,-0.7356,642
161,1.007,-0.021,0.158,-0.122,-0.427,0.0,-8.383,-80.931,168.745,-24.613,-3.76,-6.013,25.52,-0.11774,-0.63889,0.11581,-0.75128,641,0.575,0.081,0.818,0.427,-0.427,0.183,5.581,-34.904,-109.352,-20.493,-5.687,-2.533,22.74,-0.56357,0.21704,0.21036,0.76871,647,0.421,0.049,0.9,0.122,-0.366,0.122,2.812,-24.95,178.22,-12.673,-7.293,-28.52,26.7,0.00925,0.21552,0.01993,0.9762,645,0.902,0.13,0.378,0.183,-0.427,-0.061,19.402,-66.116,-136.983,-28.12,-8.8,-1.473,28.23,0.38751,-0.44876,-0.32748,-0.7356,643
162,1.008,-0.023,0.16,-0.061,-0.549,0.0,-8.383,-80.942,168.701,-24.6,-3.68,-5.293,25.52,-0.11774,-0.63889,0.11581,-0.75128,650,0.576,0.081,0.818,0.244,-0.244,0.366,5.587,-34.909,-109.341,-20.493,-5.687,-2.533,22.74,-0.56277,0.2175,0.21106,0.76895,652,0.422,0.051,0.901,0.732,-0.305,0.122,2.829,-24.955,178.253,-12.673,-7.293,-28.52,26.7,0.00925,0.21552,0.01993,0.9762,648,0.904,0.131,0.377,0.366,-0.305,0.0,19.418,-66.121,-136.978,-28.12,-8.8,-1.473,28.23,0.38751,-0.44876,-0.32748,-0.7356,654
163,1.01,-0.023,0.158,0.061,-0.488,-0.122,-8.372,-80.953,168.64,-24.6,-3.68,-5.293,25.52,-0.11774,-0.63889,0.11581,-0.75128,651,0.579,0.08,0.817,0.549,-0.366,0.488,5.592,-34.915,-109.325,-20.493,-5.687,-2.533,22.74,-0.56277,0.2175,0.21106,0.76895,653,0.422,0.048,0.902,0.0,-0.427,0.549,2.823,-24.966,178.297,-12.673,-7.293,-28.52,26.7,0.00925,0.21552,0.01993,0.9762,649,0.905,0.134,0.378,0.488,-0.244,0.0,19.429,-66.127,-136.967,-28.12,-8.8,-1.473,28.23,0.38751,-0.44876,-0.32748,-0.7356,655
164,1.01,-0.022,0.159,0.183,-0.366,-0.122,-8.355,-80.958,168.58,-24.6,-3.68,-5.293,25.52,-0.12259,-0.63873,0.1196,-0.75006,656,0.578,0.081,0.816,0.732,-0.366,0.549,5.598,-34.92,-109.308,-20.493,-5.687,-2.533,22.74,-0.56277,0.2175,0.21106,0.76895,660,0.426,0.043,0.902,1.038,-0.366,0.671,2.84,-24.972,178.336,-12.673,-7.293,-28.52,26.7,0.00925,0.21552,0.01993,0.9762,658,0.905,0.134,0.376,0.488,-0.061,0.0,19.44,-66.127,-136.956,-28.12,-8.8,-1.473,28.23,0.38751,-0.44876,-0.32748,-0.7356,668
165,1.009,-0.021,0.157,0.305,-0.305,-0.122,-8.333,-80.969,168.514,-24.6,-3.68,-5.293,25.52,-0.12259,-0.63873,0.1196,-0.75006,657,0.578,0.082,0.817,0.732,-0.122,0.549,5.603,-34.926,-109.297,-20.493,-5.687,-2.533,22.74,-0.56277,0.2175,0.21106,0.76895,661,0.427,0.047,0.901,1.099,0.0,0.61,2.856,-24.972,178.385,-12.673,-7.293,-28.52,26.7,0.00925,0.21552,0.01993,0.9762,659,0.906,0.134,0.376,0.549,0.0,0.0,19.451,-66.121,-136.945,-28.12,-8.8,-1.473,28.23,0.38751,-0.44876,-0.32748,-0.7356,669
166,1.01,-0.021,0.157,0.305,-0.183,-0.122,-8.311,-80.975,168.453,-24.6,-3.68,-5.293,25.52,-0.12259,-0.63873,0.1196,-0.75006,662,0.576,0.081,0.817,0.854,-0.061,0.671,5.614,-34.931,-109.281,-20.493,-5.687,-2.533,22.74,-0.56277,0.2175,0.21106,0.76895,664,0.422,0.052,0.902,0.793,-0.244,0.305,2.873,-24.977,178.418,-12.673,-7.293,-28.52,26.7,0.00925,0.21552,0.01993,0.9762,666,0.903,0.135,0.375,0.366,0.0,0.061,19.457,-66.127,-136.928,-28.6,-8.593,-1.947,28.23,0.38751,-0.44876,-0.32748,-0.7356,670
167,1.009,-0.02,0.156,0.366,-0.183,-0.122,-8.289,-80.975,168.387,-24.6,-3.68,-5.293,25.52,-0.12259,-0.63873,0.1196,-0.75006,663,0.575,0.08,0.817,0.549,-0.244,0.549,5.62,-34.937,-109.27,-20.493,-5.687,-2.533,22.74,-0.56277,0.2175,0.21106,0.76895,665,0.424,0.046,0.901,1.465,-0.305,0.977,2.895,-24.988,178.473,-12.673,-7.293,-28.52,26.7,0.00925,0.21552,0.01993,0.9762,667,0.903,0.138,0.375,0.183,0.0,0.0,19.462,-66.127,-136.912,-28.6,-8.593,-1.947,28.23,0.38751,-0.44876,-0.32748,-0.7356,671
168,1.009,-0.02,0.153,0.305,-0.061,-0.061,-8.267,-80.98,168.327,-24.6,-3.68,-5.293,25.52,-0.12259,-0.63873,0.1196,-0.75006,672,0.577,0.083,0.818,0.0,-0.244,0.305,5.62,-34.942,-109.259,-20.493,-5.687,-2.533,22.74,-0.56277,0.2175,0.21106,0.76895,674,0.421,0.046,0.903,0.916,-0.305,0.732,2.911,-24.994,178.517,-12.673,-7.293,-28.52,26.7,0.00925,0.21552,0.01993,0.9762,676,0.902,0.139,0.375,0.0,-0.061,0.0,19.468,-66.127,-136.901,-28.6,-8.593,-1.947,28.23,0.38751,-0.44876,-0.32748,-0.7356,678
169,1.009,-0.02,0.154,0.183,0.0,0.0,-8.256,-80.98,168.278,-24.6,-3.68,-5.293,25.52,-0.12259,-0.63873,0.1196,-0.75006,673,0.575,0.081,0.815,-0.061,-0.061,0.0,5.62,-34.948,-109.248,-20.493,-5.687,-2.533,22.74,-0.56277,0.2175,0.21106,0.76895,675,0.423,0.049,0.901,0.732,-0.427,0.122,2.922,-25.005,178.5,-12.673,-7.293,-28.52,26.7,0.00925,0.21552,0.01993,0.9762,677,0.901,0.137,0.374,-0.305,-0.122,0.0,19.473,-66.127,-136.89,-28.6,-8.593,-1.947,28.23,0.38751,-0.44876,-0.32748,-0.7356,679
170,1.008,-0.019,0.154,0.122,0.0,0.0,-8.245,-80.986,168.228,-24.6,-3.68,-5.293,25.52,-0.12259,-0.63873,0.1196,-0.75006,680,0.575,0.075,0.816,-0.061,0.183,-0.244,5.62,-34.948,-109.243,-20.493,-5.687,-2.533,22.74,-0.56277,0.2175,0.21106,0.76895,682,0.424,0.046,0.899,1.282,-0.549,0.0,2.95,-25.016,178.484,-12.867,-7.653,-28.153,26.7,0.00925,0.21552,0.01993,0.9762,686,0.903,0.135,0.375,-0.305,-0.183,0.0,19.473,-66.127,-136.879,-28.6,-8.593,-1.947,28.23,0.38928,-0.44803,-0.32938,-0.73425,684
171,1.007,-0.019,0.154,-0.061,0.0,0.0,-8.234,-80.986,168.179,-24.6,-3.68,-5.293,25.52,-0.12259,-0.63873,0.1196,-0.75006,681,0.576,0.079,0.816,-0.366,0.183,-0.549,5.62,-34.942,-109.237,-20.493,-5.687,-2.533,22.74,-0.56277,0.2175,0.21106,0.76895,683,0.422,0.043,0.899,1.221,-0.549,0.061,2.977,-25.027,178.467,-12.867,-7.653,-28.153,26.7,0.00925,0.21552,0.01993,0.9762,687,0.904,0.136,0.376,-0.305,-0.122,0.0,19.473,-66.132,-136.873,-28.6,-8.593,-1.947,28.23,0.38928,-0.44803,-0.32938,-0.73425,685
172,1.007,-0.019,0.155,-0.305,0.0,0.0,-8.234,-80.986,168.129,-24.6,-3.68,-5.293,25.52,-0.12259,-0.63873,0.1196,-0.75006,688,0.577,0.083,0.817,-0.305,0.0,-0.488,5.62,-34.942,-109.226,-20.493,-5.687,-2.533,22.74,-0.56277,0.2175,0.21106,0.76895,690,0.423,0.047,0.898,1.038,-0.488,0.183,2.994,-25.038,178.451,-12.867,-7.653,-28.153,26.7,0.00754,0.21701,0.02258,0.97583,694,0.904,0.132,0.377,-0.122,-0.122,0.0,19.479,-66.132,-136.862,-28.6,-8.593,-1.947,28.23,0.38928,-0.44803,-0.32938,-0.73425,692
173,1.01,-0.019,0.157,-0.366,0.0,0.0,-8.229,-80.991,168.08,-24.6,-3.68,-5.293,25.52,-0.12259,-0.63873,0.1196,-0.75006,689,0.577,0.083,0.817,-0.122,-0.061,-0.122,5.62,-34.942,-109.221,-20.493,-5.687,-2.533,22.74,-0.56277,0.2175,0.21106,0.76895,691,0.424,0.057,0.902,0.488,0.0,-0.366,3.01,-25.038,178.418,-12.867,-7.653,-28.153,26.7,0.00754,0.21701,0.02258,0.97583,695,0.904,0.132,0.377,0.061,0.0,0.0,19.479,-66.138,-136.851,-28.6,-8.593,-1.947,28.23,0.38928,-0.44803,-0.32938,-0.73425,693
174,1.009,-0.021,0.158,-0.244,0.061,0.0,-8.223,-80.991,168.036,-24.6,-3.68,-5.293,25.52,-0.12259,-0.63873,0.1196,-0.75006,696,0.576,0.084,0.817,0.061,-0.366,0.183,5.62,-34.948,-109.21,-20.493,-5.687,-2.533,22.74,-0.56277,0.2175,0.21106,0.76895,698,0.424,0.054,0.902,-0.183,0.061,-0.488,3.01,-25.038,178.407,-12.867,-7.653,-28.153,26.7,0.00754,0.21701,0.02258,0.97583,700,0.903,0.134,0.378,0.183,0.061,0.0,19.484,-66.138,-136.84,-28.6,-8.593,-1.947,28.23,0.38928,-0.44803,-0.32938,-0.73425,704
175,1.009,-0.022,0.158,-0.122,0.061,0.0,-8.218,-80.991,167.986,-24.6,-3.68,-5.293,25.52,-0.12259,-0.63873,0.1196,-0.75006,697,0.576,0.083,0.817,0.244,-0.244,0.366,5.62,-34.958,-109.199,-20.493,-5.687,-2.533,22.74,-0.56277,0.2175,0.21106,0.76895,699,0.424,0.055,0.899,-0.061,0.122,-0.122,3.01,-25.038,178.418,-12.867,-7.653,-28.153,26.7,0.00754,0.21701,0.02258,0.97583,701,0.902,0.135,0.376,0.244,0.183,0.0,19.49,-66.132,-136.829,-28.6,-8.593,-1.947,28.23,0.38928,-0.44803,-0.32938,-0.73425,705
176,1.009,-0.022,0.158,0.0,0.183,0.0,-8.207,-80.991,167.937,-24.6,-3.68,-5.293,25.52,-0.12259,-0.63873,0.1196,-0.75006,702,0.574,0.082,0.818,0.305,0.0,0.366,5.625,-34.958,-109.188,-20.547,-5.5,-2.807,22.74,-0.56277,0.2175,0.21106,0.76895,708,0.423,0.054,0.902,0.0,0.0,0.061,3.016,-25.038,178.412,-12.867,-7.653,-28.153,26.7,0.00754,0.21701,0.02258,0.97583,706,0.901,0.135,0.376,0.122,0.183,0.0,19.49,-66.132,-136.818,-28.6,-8.593,-1.947,28.23,0.38928,-0.44803,-0.32938,-0.73425,710
177,1.008,-0.021,0.157,0.183,0.183,0.0,-8.19,-80.986,167.888,-24.6,-3.68,-5.293,25.52,-0.12259,-0.63873,0.1196,-0.75006,703,0.573,0.083,0.818,0.183,0.0,0.427,5.625,-34.964,-109.177,-20.547,-5.5,-2.807,22.74,-0.56277,0.2175,0.21106,0.76895,709,0.422,0.048,0.901,0.488,-0.244,0.244,3.027,-25.043,178.412,-12.867,-7.653,-28.153,26.7,0.00754,0.21701,0.02258,0.97583,707,0.901,0.137,0.376,0.0,0.122,0.0,19.495,-66.127,-136.802,-28.6,-8.593,-1.947,28.23,0.38928,-0.44803,-0.32938,-0.73425,711
178,1.007,-0.021,0.157,0.183,0.183,0.0,-8.179,-80.986,167.838,-24.72,-3.7,-4.88,25.52,-0.12259,-0.63873,0.1196,-0.75006,712,0.571,0.08,0.817,0.183,-0.122,0.244,5.625,-34.964,-109.177,-20.547,-5.5,-2.807,22.74,-0.56277,0.2175,0.21106,0.76895,718,0.42,0.052,0.902,0.366,-0.122,0.183,3.032,-25.049,178.385,-12.867,-7.653,-28.153,26.7,0.00754,0.21701,0.02258,0.97583,714,0.901,0.137,0.377,0.0,0.0,0.0,19.495,-66.127,-136.791,-28.6,-8.593,-1.947,28.23,0.38928,-0.44803,-0.32938,-0.73425,716
179,1.007,-0.02,0.156,0.183,0.305,0.0,-8.163,-80.98,167.789,-24.72,-3.7,-4.88,25.52,-0.12259,-0.63873,0.1196,-0.75006,713,0.573,0.081,0.818,0.0,0.061,0.0,5.625,-34.964,-109.177,-20.547,-5.5,-2.807,22.74,-0.56277,0.2175,0.21106,0.76895,719,0.42,0.05,0.899,0.366,-0.244,0.366,3.038,-25.054,178.38,-12.867,-7.653,-28.153,26.7,0.00754,0.21701,0.02258,0.97583,715,0.903,0.137,0.375,-0.183,0.0,0.0,19.501,-66.127,-136.78,-28.6,-8.593,-1.947,28.23,0.38928,-0.44803,-0.32938,-0.73425,717
180,1.008,-0.02,0.156,0.122,0.122,0.0,-8.152,-80.98,167.739,-24.72,-3.7,-4.88,25.52,-0.12686,-0.63818,0.12289,-0.7493,720,0.574,0.082,0.819,-0.183,0.122,-0.305,5.625,-34.964,-109.182,-20.547,-5.5,-2.807,22.74,-0.56396,0.21744,0.21201,0.76785,722,0.419,0.047,0.9,0.244,0.122,0.366,3.043,-25.054,178.374,-12.867,-7.653,-28.153,26.79,0.00754,0.21701,0.02258,0.97583,726,0.904,0.134,0.376,-0.427,-0.122,0.0,19.495,-66.127,-136.769,-28.6,-8.593,-1.947,28.23,0.38928,-0.44803,-0.32938,-0.73425,724
181,1.008,-0.02,0.156,0.0,0.0,0.0,-8.141,-80.98,167.695,-24.72,-3.7,-4.88,25.52,-0.12686,-0.63818,0.12289,-0.7493,721,0.576,0.078,0.819,-0.305,0.244,-0.244,5.625,-34.958,-109.193,-20.547,-5.5,-2.807,22.74,-0.56396,0.21744,0.21201,0.76785,723,0.423,0.05,0.904,0.732,0.0,0.0,3.06,-25.054,178.347,-12.867,-7.653,-28.153,26.79,0.00754,0.21701,0.02258,0.97583,727,0.901,0.133,0.377,-0.061,-0.122,0.0,19.495,-66.127,-136.763,-28.6,-8.593,-1.947,28.23,0.38928,-0.44803,-0.32938,-0.73425,725
182,1.009,-0.019,0.156,-0.061,0.0,0.0,-8.135,-80.98,167.651,-24.72,-3.7,-4.88,25.52,-0.12686,-0.63818,0.12289,-0.7493,728,0.571,0.075,0.818,0.0,0.0,-0.061,5.625,-34.958,-109.193,-20.547,-5.5,-2.807,22.74,-0.56396,0.21744,0.21201,0.76785,730,0.422,0.052,0.901,-0.061,-0.061,-0.061,3.06,-25.054,178.319,-12.867,-7.653,-28.153,26.79,0.00754,0.21701,0.02258,0.97583,732,0.901,0.134,0.376,-0.061,0.0,0.0,19.501,-66.127,-136.752,-28.6,-8.593,-1.947,28.23,0.38928,-0.44803,-0.32938,-0.73425,736
183,1.007,-0.02,0.158,-0.183,0.0,0.0,-8.13,-80.98,167.613,-24.72,-3.7,-4.88,25.52,-0.12686,-0.63818,0.12289,-0.7493,729,0.576,0.082,0.82,-0.305,-0.183,-0.183,5.62,-34.958,-109.199,-20.547,-5.5,-2.807,22.74,-0.56396,0.21744,0.21201,0.76785,731,0.417,0.042,0.903,0.366,-0.549,0.793,3.06,-25.065,178.319,-12.867,-7.653,-28.153,26.79,0.00754,0.21701,0.02258,0.97583,733,0.906,0.138,0.376,-0.061,0.0,0.0,19.501,-66.127,-136.741,-28.6,-8.593,-1.947,28.23,0.38928,-0.44803,-0.32938,-0.73425,737
184,1.007,-0.02,0.158,-0.061,-0.061,0.0,-8.124,-80.986,167.569,-24.72,-3.7,-4.88,25.52,-0.12686,-0.63818,0.12289,-0.7493,734,0.579,0.083,0.816,-0.122,-0.244,-0.305,5.62,-34.964,-109.204,-20.547,-5.5,-2.807,22.74,-0.56396,0.21744,0.21201,0.76785,738,0.428,0.05,0.903,0.488,0.061,-0.122,3.071,-25.065,178.319,-12.867,-7.653,-28.153,26.79,0.00754,0.21701,0.02258,0.97583,740,0.906,0.135,0.378,-0.122,-0.061,0.0,19.501,-66.127,-136.736,-28.78,-9.053,-1.433,28.23,0.38928,-0.44803,-0.32938,-0.73425,748
185,1.011,-0.02,0.156,-0.183,0.0,0.0,-8.119,-80.986,167.531,-24.72,-3.7,-4.88,25.52,-0.12686,-0.63818,0.12289,-0.7493,735,0.576,0.084,0.821,0.061,0.122,-0.244,5.625,-34.964,-109.21,-20.547,-5.5,-2.807,22.74,-0.56396,0.21744,0.21201,0.76785,739,0.427,0.057,0.901,0.793,0.549,-0.549,3.093,-25.049,178.297,-12.867,-7.653,-28.153,26.79,0.00754,0.21701,0.02258,0.97583,741,0.901,0.134,0.376,-0.244,-0.122,0.0,19.506,-66.127,-136.725,-28.78,-9.053,-1.433,28.23,0.38928,-0.44803,-0.32938,-0.73425,749
186,1.011,-0.02,0.157,-0.183,0.061,0.0,-8.108,-80.986,167.487,-24.72,-3.7,-4.88,25.52,-0.12686,-0.63818,0.12289,-0.7493,742,0.571,0.079,0.818,0.61,0.244,0.061,5.636,-34.958,-109.21,-20.547,-5.5,-2.807,22.74,-0.56396,0.21744,0.21201,0.76785,744,0.42,0.055,0.904,0.244,-0.427,-0.061,3.104,-25.06,178.292,-12.867,-7.653,-28.153,26.79,0.00754,0.21701,0.02258,0.97583,746,0.901,0.133,0.377,-0.061,-0.061,0.0,19.506,-66.127,-136.719,-28.78,-9.053,-1.433,28.23,0.39047,-0.44742,-0.33026,-0.73358,756
187,1.007,-0.021,0.156,-0.061,0.0,0.0,-8.102,-80.986,167.443,-24.72,-3.7,-4.88,25.52,-0.12686,-0.63818,0.12289,-0.7493,743,0.574,0.076,0.82,0.549,0.0,0.0,5.647,-34.958,-109.221,-20.547,-5.5,-2.807,22.74,-0.56396,0.21744,0.21201,0.76785,745,0.418,0.049,0.903,0.916,-0.366,0.244,3.12,-25.065,178.297,-12.867,-7.653,-28.153,26.79,0.00754,0.21701,0.02258,0.97583,747,0.902,0.133,0.376,0.0,-0.183,0.0,19.506,-66.132,-136.708,-28.78,-9.053,-1.433,28.23,0.39047,-0.44742,-0.33026,-0.73358,757
188,1.007,-0.021,0.156,-0.122,0.061,0.0,-8.097,-80.986,167.404,-24.72,-3.7,-4.88,25.52,-0.12686,-0.63818,0.12289,-0.7493,750,0.574,0.079,0.818,0.0,-0.061,-0.244,5.652,-34.958,-109.237,-20.547,-5.5,-2.807,22.74,-0.56396,0.21744,0.21201,0.76785,752,0.421,0.052,0.901,-0.122,-0.427,-0.122,3.126,-25.076,178.314,-12.867,-7.653,-28.153,26.79,0.00754,0.21701,0.02258,0.97583,754,0.903,0.132,0.375,-0.061,-0.183,0.0,19.512,-66.132,-136.703,-28.78,-9.053,-1.433,28.23,0.39047,-0.44742,-0.33026,-0.73358,758
189,1.007,-0.022,0.156,-0.122,0.0,0.0,-8.091,-80.986,167.366,-24.72,-3.7,-4.88,25.52,-0.12686,-0.63818,0.12289,-0.7493,751,0.575,0.083,0.816,-0.122,-0.244,-0.122,5.652,-34.958,-109.254,-20.547,-5.5,-2.807,22.74,-0.56396,0.21744,0.21201,0.76785,753,0.423,0.055,0.899,-0.244,-0.122,-0.305,3.126,-25.082,178.336,-12.867,-7.653,-28.153,26.79,0.00754,0.21701,0.02258,0.97583,755,0.904,0.132,0.375,0.061,-0.122,0.0,19.517,-66.138,-136.697,-28.78,-9.053,-1.433,28.23,0.39047,-0.44742,-0.33026,-0.73358,759
190,1.008,-0.023,0.156,-0.122,-0.122,0.0,-8.091,-80.991,167.327,-24.72,-3.7,-4.88,25.52,-0.12686,-0.63818,0.12289,-0.7493,760,0.577,0.083,0.817,-0.061,-0.488,0.061,5.652,-34.969,-109.265,-20.547,-5.5,-2.807,22.74,-0.56396,0.21744,0.21201,0.76785,762,0.425,0.055,0.9,-0.122,-0.183,-0.183,3.126,-25.087,178.33,-12.867,-7.653,-28.153,26.79,0.00754,0.21701,0.02258,0.97583,764,0.904,0.132,0.376,0.305,-0.061,0.0,19.523,-66.138,-136.692,-28.78,-9.053,-1.433,28.23,0.39047,-0.44742,-0.33026,-0.73358,768
191,1.009,-0.023,0.156,0.0,-0.183,0.0,-8.091,-80.997,167.289,-24.72,-3.7,-4.88,25.52,-0.12686,-0.63818,0.12289,-0.7493,761,0.577,0.084,0.817,0.0,-0.61,0.488,5.647,-34.98,-109.265,-20.547,-5.5,-2.807,22.74,-0.56396,0.21744,0.21201,0.76785,763,0.425,0.06,0.901,-0.488,-0.122,0.0,3.126,-25.087,178.336,-12.867,-7.653,-28.153,26.79,0.00754,0.21701,0.02258,0.97583,765,0.903,0.132,0.376,0.671,0.0,0.0,19.534,-66.138,-136.681,-28.78,-9.053,-1.433,28.23,0.39047,-0.44742,-0.33026,-0.73358,769
192,1.01,-0.021,0.156,0.122,-0.183,0.0,-8.091,-81.002,167.256,-24.787,-3.72,-4.847,25.52,-0.12686,-0.63818,0.12289,-0.7493,766,0.574,0.082,0.816,0.244,-0.549,0.854,5.641,-34.991,-109.254,-20.547,-5.5,-2.807,22.74,-0.56396,0.21744,0.21201,0.76785,770,0.426,0.051,0.902,-0.183,-0.305,0.488,3.12,-25.093,178.297,-12.867,-7.653,-28.153,26.79,0.00754,0.21701,0.02258,0.97583,778,0.902,0.135,0.376,0.671,0.0,0.0,19.545,-66.138,-136.675,-28.78,-9.053,-1.433,28.23,0.39047,-0.44742,-0.33026,-0.73358,772
193,1.009,-0.021,0.156,0.305,-0.122,0.0,-8.086,-81.002,167.217,-24.787,-3.72,-4.847,25.52,-0.12686,-0.63818,0.12289,-0.7493,767,0.575,0.082,0.819,0.122,-0.427,0.793,5.636,-35.002,-109.243,-20.547,-5.5,-2.807,22.74,-0.56396,0.21744,0.21201,0.76785,771,0.425,0.052,0.903,-0.244,-0.61,0.549,3.115,-25.098,178.281,-12.867,-7.653,-28.153,26.79,0.00754,0.21701,0.02258,0.97583,779,0.902,0.14,0.377,0.488,0.061,0.0,19.556,-66.138,-136.664,-28.78,-9.053,-1.433,28.23,0.39047,-0.44742,-0.33026,-0.73358,773
194,1.008,-0.021,0.156,0.427,-0.122,0.0,-8.075,-81.008,167.184,-24.787,-3.72,-4.847,25.52,-0.12686,-0.63818,0.12289,-0.7493,774,0.575,0.077,0.816,0.244,-0.305,0.549,5.63,-35.008,-109.237,-20.72,-5.96,-2.213,22.74,-0.56396,0.21744,0.21201,0.76785,776,0.424,0.044,0.897,0.488,-0.977,0.671,3.109,-25.115,178.314,-13.333,-7.267,-28.167,26.79,0.00754,0.21701,0.02258,0.97583,780,0.901,0.14,0.375,0.244,0.0,0.0,19.567,-66.138,-136.653,-28.78,-9.053,-1.433,28.23,0.39047,-0.44742,-0.33026,-0.73358,782
195,1.007,-0.021,0.155,0.366,-0.122,0.0,-8.069,-81.013,167.151,-24.787,-3.72,-4.847,25.52,-0.12686,-0.63818,0.12289,-0.7493,775,0.574,0.074,0.815,0.549,0.0,0.122,5.636,-35.013,-109.243,-20.72,-5.96,-2.213,22.74,-0.56396,0.21744,0.21201,0.76785,777,0.422,0.043,0.897,0.61,-0.671,1.099,3.115,-25.137,178.363,-13.333,-7.267,-28.167,26.79,0.00754,0.21701,0.02258,0.97583,781,0.902,0.139,0.375,-0.061,0.0,0.0,19.572,-66.138,-136.648,-28.78,-9.053,-1.433,28.23,0.39047,-0.44742,-0.33026,-0.73358,783
196,1.007,-0.018,0.156,0.183,-0.061,0.0,-8.064,-81.013,167.113,-24.787,-3.72,-4.847,25.52,-0.13019,-0.63785,0.12558,-0.74854,784,0.576,0.082,0.815,0.061,0.0,-0.366,5.641,-35.013,-109.254,-20.72,-5.96,-2.213,22.74,-0.56396,0.21744,0.21201,0.76785,786,0.421,0.056,0.899,0.305,-0.854,0.122,3.12,-25.148,178.38,-13.333,-7.267,-28.167,26.79,0.00754,0.21701,0.02258,0.97583,790,0.904,0.136,0.378,-0.061,-0.061,0.0,19.572,-66.138,-136.637,-28.78,-9.053,-1.433,28.23,0.39047,-0.44742,-0.33026,-0.73358,788
197,1.008,-0.016,0.157,0.0,0.0,0.0,-8.053,-81.013,167.08,-24.787,-3.72,-4.847,25.52,-0.13019,-0.63785,0.12558,-0.74854,785,0.576,0.087,0.818,-0.122,-0.122,-0.244,5.647,-35.013,-109.27,-20.72,-5.96,-2.213,22.74,-0.56396,0.21744,0.21201,0.76785,787,0.425,0.055,0.902,0.244,0.0,-0.183,3.126,-25.164,178.363,-13.333,-7.267,-28.167,26.79,0.00754,0.21701,0.02258,0.97583,791,0.904,0.135,0.376,-0.305,-0.061,0.0,19.578,-66.138,-136.631,-28.78,-9.053,-1.433,28.23,0.39047,-0.44742,-0.33026,-0.73358,789
198,1.009,-0.018,0.158,-0.122,-0.061,0.0,-8.047,-81.019,167.042,-24.787,-3.72,-4.847,25.52,-0.13019,-0.63785,0.12558,-0.74854,792,0.577,0.083,0.818,-0.244,-0.366,0.0,5.641,-35.019,-109.281,-20.72,-5.96,-2.213,22.74,-0.56339,0.2178,0.21219,0.76813,798,0.426,0.052,0.902,0.549,0.0,-0.061,3.137,-25.164,178.347,-13.333,-7.267,-28.167,26.79,0.00806,0.21811,0.02356,0.97556,794,0.904,0.135,0.377,-0.122,0.0,0.0,19.578,-66.138,-136.62,-28.78,-9.053,-1.433,28.23,0.39047,-0.44742,-0.33026,-0.73358,796
199,1.009,-0.019,0.158,-0.183,-0.122,0.0,-8.042,-81.019,167.009,-24.787,-3.72,-4.847,25.52,-0.13019,-0.63785,0.12558,-0.74854,793,0.577,0.08,0.818,-0.427,-0.427,0.0,5.636,-35.024,-109.286,-20.72,-5.96,-2.213,22.74,-0.56339,0.2178,0.21219,0.76813,799,0.425,0.052,0.901,0.061,-0.244,-0.427,3.148,-25.164,178.347,-13.333,-7.267,-28.167,26.79,0.00806,0.21811,0.02356,0.97556,795,0.902,0.135,0.376,-0.061,-0.061,0.0,19.578,-66.138,-136.615,-28.78,-9.053,-1.433,28.23,0.39047,-0.44742,-0.33026,-0.73358,797
200,1.01,-0.021,0.156,-0.183,0.0,0.0,-8.036,-81.024,166.976,-24.787,-3.72,-4.847,25.52,-0.13019,-0.63785,0.12558,-0.74854,800,0.574,0.08,0.818,-0.244,-0.061,-0.061,5.63,-35.03,-109.297,-20.72,-5.96,-2.213,22.74,-0.56339,0.2178,0.21219,0.76813,802,0.423,0.054,0.901,0.488,-0.732,0.122,3.153,-25.17,178.336,-13.333,-7.267,-28.167,26.79,0.00806,0.21811,0.02356,0.97556,804,0.902,0.136,0.375,0.0,-0.061,0.0,19.583,-66.138,-136.609,-28.78,-9.053,-1.433,28.23,0.39047,-0.44742,-0.33026,-0.73358,806
201,1.008,-0.021,0.156,-0.183,0.0,0.0,-8.031,-81.024,166.943,-24.787,-3.72,-4.847,25.52,-0.13019,-0.63785,0.12558,-0.74854,801,0.575,0.082,0.817,0.0,-0.122,-0.122,5.63,-35.03,-109.308,-20.72,-5.96,-2.213,22.74,-0.56339,0.2178,0.21219,0.76813,803,0.425,0.054,0.899,0.793,-0.732,0.183,3.17,-25.186,178.314,-13.333,-7.267,-28.167,26.79,0.00806,0.21811,0.02356,0.97556,805,0.903,0.135,0.375,0.0,-0.061,0.0,19.583,-66.138,-136.599,-28.78,-9.053,-1.433,28.23,0.39047,-0.44742,-0.33026,-0.73358,807
202,1.007,-0.021,0.155,-0.122,0.0,0.0,-8.026,-81.024,166.904,-24.787,-3.72,-4.847,25.52,-0.13019,-0.63785,0.12558,-0.74854,808,0.577,0.083,0.815,0.122,-0.122,0.0,5.636,-35.035,-109.314,-20.72,-5.96,-2.213,22.74,-0.56339,0.2178,0.21219,0.76813,812,0.426,0.058,0.9,0.183,-0.671,0.183,3.181,-25.197,178.292,-13.333,-7.267,-28.167,26.79,0.00806,0.21811,0.02356,0.97556,810,0.904,0.136,0.375,0.122,-0.061,0.0,19.589,-66.138,-136.593,-28.78,-9.053,-1.433,28.23,0.39047,-0.44742,-0.33026,-0.73358,814
203,1.009,-0.021,0.155,-0.061,-0.061,0.0,-8.02,-81.024,166.871,-24.787,-3.72,-4.847,25.52,-0.13019,-0.63785,0.12558,-0.74854,809,0.578,0.086,0.816,0.122,-0.244,0.122,5.641,-35.035,-109.319,-20.72,-5.96,-2.213,22.74,-0.56339,0.2178,0.21219,0.76813,813,0.425,0.059,0.899,0.0,-0.183,0.122,3.186,-25.208,178.264,-13.333,-7.267,-28.167,26.79,0.00806,0.21811,0.02356,0.97556,811,0.904,0.136,0.375,0.183,-0.122,0.0,19.6,-66.138,-136.588,-28.78,-9.053,-1.433,28.23,0.39047,-0.44742,-0.33026,-0.73358,815
204,1.009,-0.02,0.154,0.0,-0.061,0.0,-8.015,-81.03,166.844,-24.787,-3.72,-4.847,25.52,-0.13019,-0.63785,0.12558,-0.74854,816,0.577,0.086,0.817,0.122,-0.305,0.305,5.641,-35.046,-109.325,-20.72,-5.96,-2.213,22.74,-0.56339,0.2178,0.21219,0.76813,818,0.426,0.056,0.901,0.061,-0.427,-0.183,3.186,-25.214,178.22,-13.333,-7.267,-28.167,26.79,0.00806,0.21811,0.02356,0.97556,820,0.903,0.136,0.375,0.122,-0.122,0.0,19.605,-66.143,-136.582,-28.66,-9.333,-1.7,28.23,0.39047,-0.44742,-0.33026,-0.73358,828
205,1.008,-0.021,0.154,0.061,-0.122,0.0,-8.009,-81.03,166.811,-24.787,-3.72,-4.847,25.52,-0.13019,-0.63785,0.12558,-0.74854,817,0.577,0.083,0.818,-0.061,-0.183,0.366,5.636,-35.046,-109.325,-20.72,-5.96,-2.213,22.74,-0.56339,0.2178,0.21219,0.76813,819,0.427,0.053,0.902,0.0,-0.549,-0.244,3.197,-25.225,178.187,-13.333,-7.267,-28.167,26.79,0.00806,0.21811,0.02356,0.97556,821,0.904,0.136,0.375,0.061,-0.183,0.0,19.616,-66.143,-136.577,-28.66,-9.333,-1.7,28.23,0.39047,-0.44742,-0.33026,-0.73358,829
206,1.008,-0.021,0.154,0.122,-0.122,0.0,-7.998,-81.035,166.778,-24.787,-3.72,-4.847,25.52,-0.13019,-0.63785,0.12558,-0.74854,822,0.579,0.08,0.817,-0.366,-0.183,0.305,5.63,-35.052,-109.319,-20.72,-5.96,-2.213,22.74,-0.56339,0.2178,0.21219,0.76813,826,0.429,0.053,0.899,-0.305,-0.61,0.061,3.197,-25.236,178.165,-13.333,-7.267,-28.167,26.79,0.00806,0.21811,0.02356,0.97556,824,0.905,0.137,0.375,0.061,-0.122,0.0,19.622,-66.149,-136.571,-28.66,-9.333,-1.7,28.23,0.39185,-0.44675,-0.3316,-0.73267,830
207,1.009,-0.02,0.154,0.122,-0.122,0.0,-7.993,-81.041,166.75,-24.787,-3.72,-4.847,25.52,-0.13019,-0.63785,0.12558,-0.74854,823,0.578,0.079,0.815,-0.366,-0.122,0.244,5.62,-35.057,-109.325,-20.72,-5.96,-2.213,22.74,-0.56339,0.2178,0.21219,0.76813,827,0.426,0.051,0.898,0.0,-0.854,0.305,3.197,-25.247,178.165,-13.333,-7.267,-28.167,26.79,0.00806,0.21811,0.02356,0.97556,825,0.904,0.136,0.375,0.0,-0.061,0.0,19.627,-66.149,-136.566,-28.66,-9.333,-1.7,28.23,0.39185,-0.44675,-0.3316,-0.73267,831
208,1.009,-0.019,0.155,0.0,0.0,0.0,-7.987,-81.041,166.718,-24.54,-4.147,-5.12,25.52,-0.13019,-0.63785,0.12558,-0.74854,832,0.579,0.081,0.816,-0.183,-0.183,0.244,5.614,-35.063,-109.325,-20.72,-5.96,-2.213,22.74,-0.56339,0.2178,0.21219,0.76813,836,0.428,0.052,0.898,0.488,-0.732,0.366,3.197,-25.263,178.165,-13.333,-7.267,-28.167,26.79,0.00806,0.21811,0.02356,0.97556,834,0.903,0.136,0.375,0.061,0.0,0.0,19.633,-66.149,-136.56,-28.66,-9.333,-1.7,28.23,0.39185,-0.44675,-0.3316,-0.73267,840
209,1.008,-0.02,0.155,0.061,0.0,0.0,-7.976,-81.046,166.69,-24.54,-4.147,-5.12,25.52,-0.13019,-0.63785,0.12558,-0.74854,833,0.575,0.08,0.814,0.122,0.0,0.244,5.614,-35.063,-109.325,-20.72,-5.96,-2.213,22.74,-0.56339,0.2178,0.21219,0.76813,837,0.427,0.05,0.897,1.343,-0.732,0.244,3.214,-25.28,178.149,-13.333,-7.267,-28.167,26.79,0.00806,0.21811,0.02356,0.97556,835,0.901,0.137,0.375,0.0,0.0,0.0,19.638,-66.149,-136.555,-28.66,-9.333,-1.7,28.23,0.39185,-0.44675,-0.3316,-0.73267,841
210,1.007,-0.019,0.155,0.0,0.061,0.0,-7.971,-81.046,166.657,-24.54,-4.147,-5.12,25.52,-0.1329,-0.63763,0.12775,-0.74786,842,0.572,0.076,0.815,0.183,0.244,0.0,5.614,-35.063,-109.33,-20.72,-5.96,-2.213,22.74,-0.56339,0.2178,0.21219,0.76813,844,0.423,0.046,0.897,1.16,-0.916,0.366,3.235,-25.296,178.127,-13.333,-7.267,-28.167,26.79,0.00806,0.21811,0.02356,0.97556,838,0.899,0.137,0.375,-0.122,0.0,0.0,19.638,-66.149,-136.544,-28.66,-9.333,-1.7,28.23,0.39185,-0.44675,-0.3316,-0.73267,846
211,1.007,-0.019,0.156,-0.122,0.061,0.0,-7.96,-81.046,166.624,-24.54,-4.147,-5.12,25.52,-0.1329,-0.63763,0.12775,-0.74786,843,0.57,0.078,0.818,-0.122,0.183,-0.305,5.62,-35.057,-109.341,-20.72,-5.96,-2.213,22.74,-0.56339,0.2178,0.21219,0.76813,845,0.422,0.05,0.9,1.099,-0.488,-0.244,3.257,-25.312,178.138,-13.333,-7.267,-28.167,26.79,0.00806,0.21811,0.02356,0.97556,839,0.9,0.137,0.377,-0.366,-0.183,0.0,19.638,-66.154,-136.538,-28.66,-9.333,-1.7,28.23,0.39185,-0.44675,-0.3316,-0.73267,847
212,1.007,-0.019,0.156,-0.244,0.0,0.0,-7.954,-81.046,166.597,-24.54,-4.147,-5.12,25.52,-0.1329,-0.63763,0.12775,-0.74786,848,0.573,0.079,0.819,-0.427,0.0,-0.549,5.62,-35.052,-109.358,-21.24,-5.8,-2.153,22.74,-0.56339,0.2178,0.21219,0.76813,850,0.424,0.054,0.9,0.549,-0.244,-0.549,3.279,-25.323,178.099,-13.333,-7.267,-28.167,26.79,0.00806,0.21811,0.02356,0.97556,852,0.903,0.135,0.379,-0.305,-0.305,0.0,19.638,-66.154,-136.538,-28.66,-9.333,-1.7,28.23,0.39185,-0.44675,-0.3316,-0.73267,854
213,1.007,-0.02,0.158,-0.305,-0.183,0.0,-7.954,-81.052,166.564,-24.54,-4.147,-5.12,25.52,-0.1329,-0.63763,0.12775,-0.74786,849,0.577,0.08,0.819,-0.671,-0.122,-0.671,5.614,-35.057,-109.385,-21.24,-5.8,-2.153,22.74,-0.56339,0.2178,0.21219,0.76813,851,0.43,0.056,0.901,0.183,0.0,-0.549,3.296,-25.323,178.077,-13.333,-7.267,-28.167,26.79,0.00806,0.21811,0.02356,0.97556,853,0.905,0.133,0.377,-0.366,-0.305,0.0,19.638,-66.16,-136.538,-28.66,-9.333,-1.7,28.23,0.39185,-0.44675,-0.3316,-0.73267,855
214,1.01,-0.021,0.157,-0.305,-0.366,0.0,-7.954,-81.057,166.542,-24.54,-4.147,-5.12,25.52,-0.1329,-0.63763,0.12775,-0.74786,856,0.58,0.081,0.817,-0.366,-0.183,-0.366,5.609,-35.057,-109.396,-21.24,-5.8,-2.153,22.74,-0.56339,0.2178,0.21219,0.76813,858,0.43,0.062,0.897,-0.793,0.549,-0.671,3.301,-25.318,178.05,-12.853,-7.847,-27.407,26.79,0.00806,0.21811,0.02356,0.97556,860,0.906,0.13,0.377,-0.122,-0.305,0.0,19.644,-66.165,-136.533,-28.66,-9.333,-1.7,28.23,0.39185,-0.44675,-0.3316,-0.73267,862
215,1.01,-0.022,0.158,-0.305,-0.305,0.0,-7.954,-81.063,166.52,-24.54,-4.147,-5.12,25.52,-0.1329,-0.63763,0.12775,-0.74786,857,0.577,0.078,0.816,0.061,-0.366,0.061,5.609,-35.063,-109.402,-21.24,-5.8,-2.153,22.74,-0.56339,0.2178,0.21219,0.76813,859,0.425,0.051,0.898,-0.122,0.183,0.366,3.296,-25.312,178.017,-12.853,-7.847,-27.407,26.79,0.00806,0.21811,0.02356,0.97556,861,0.902,0.132,0.377,0.122,-0.122,0.0,19.649,-66.165,-136.533,-28.66,-9.333,-1.7,28.23,0.39185,-0.44675,-0.3316,-0.73267,863
216,1.007,-0.023,0.157,-0.061,-0.244,0.0,-7.96,-81.068,166.492,-24.54,-4.147,-5.12,25.52,-0.1329,-0.63763,0.12775,-0.74786,864,0.579,0.081,0.817,-0.183,-0.244,0.244,5.603,-35.068,-109.407,-21.24,-5.8,-2.153,22.74,-0.56232,0.21857,0.21194,0.76877,868,0.434,0.056,0.897,-0.244,0.305,0.0,3.29,-25.307,178.011,-12.853,-7.847,-27.407,26.79,0.01056,0.21942,0.02423,0.97522,870,0.905,0.135,0.374,0.305,0.061,0.0,19.649,-66.165,-136.522,-28.66,-9.333,-1.7,28.23,0.39185,-0.44675,-0.3316,-0.73267,866
217,1.01,-0.023,0.155,0.122,-0.122,0.0,-7.96,-81.074,166.47,-24.54,-4.147,-5.12,25.52,-0.1329,-0.63763,0.12775,-0.74786,865,0.583,0.087,0.813,-0.488,-0.244,0.122,5.592,-35.074,-109.407,-21.24,-5.8,-2.153,22.74,-0.56232,0.21857,0.21194,0.76877,869,0.434,0.067,0.896,-0.732,0.916,-0.366,3.285,-25.296,177.968,-12.853,-7.847,-27.407,26.79,0.01056,0.21942,0.02423,0.97522,871,0.909,0.138,0.375,0.244,0.061,0.0,19.655,-66.165,-136.516,-28.66,-9.333,-1.7,28.23,0.39185,-0.44675,-0.3316,-0.73267,867
218,1.013,-0.021,0.154,0.122,0.122,0.0,-7.954,-81.074,166.443,-24.54,-4.147,-5.12,25.52,-0.1329,-0.63763,0.12775,-0.74786,872,0.582,0.088,0.814,-0.183,-0.244,0.305,5.587,-35.079,-109.407,-21.24,-5.8,-2.153,22.74,-0.56232,0.21857,0.21194,0.76877,874,0.426,0.063,0.902,-0.732,0.061,0.0,3.274,-25.285,177.902,-12.853,-7.847,-27.407,26.79,0.01056,0.21942,0.02423,0.97522,876,0.905,0.137,0.374,0.122,0.061,0.0,19.66,-66.165,-136.511,-28.66,-9.333,-1.7,28.23,0.39185,-0.44675,-0.3316,-0.73267,878
219,1.009,-0.019,0.152,0.305,0.061,0.0,-7.949,-81.074,166.41,-24.54,-4.147,-5.12,25.52,-0.1329,-0.63763,0.12775,-0.74786,873,0.576,0.081,0.817,0.427,0.0,0.671,5.587,-35.085,-109.396,-21.24,-5.8,-2.153,22.74,-0.56232,0.21857,0.21194,0.76877,875,0.427,0.047,0.901,0.305,-0.122,0.793,3.268,-25.285,177.891,-12.853,-7.847,-27.407,26.79,0.01056,0.21942,0.02423,0.97522,877,0.902,0.136,0.372,0.0,0.061,0.366,19.649,-66.165,-136.489,-28.66,-9.333,-1.7,28.23,0.39185,-0.44675,-0.3316,-0.73267,879
220,1.008,-0.018,0.152,0.305,0.183,0.0,-7.938,-81.074,166.382,-24.54,-4.147,-5.12,25.52,-0.1329,-0.63763,0.12775,-0.74786,880,0.574,0.077,0.818,0.427,0.0,0.61,5.592,-35.085,-109.391,-21.24,-5.8,-2.153,22.74,-0.56232,0.21857,0.21194,0.76877,882,0.424,0.047,0.902,0.732,-0.549,0.549,3.274,-25.296,177.907,-12.853,-7.847,-27.407,26.79,0.01056,0.21942,0.02423,0.97522,884,0.901,0.138,0.372,0.183,0.061,0.244,19.644,-66.165,-136.467,-28.767,-9.133,-1.887,28.23,0.39185,-0.44675,-0.3316,-0.73267,886
221,1.008,-0.019,0.151,0.122,0.244,0.0,-7.921,-81.068,166.349,-24.54,-4.147,-5.12,25.52,-0.1329,-0.63763,0.12775,-0.74786,881,0.573,0.075,0.818,0.122,0.122,0.122,5.592,-35.085,-109.391,-21.24,-5.8,-2.153,22.74,-0.56232,0.21857,0.21194,0.76877,883,0.422,0.046,0.9,1.343,-0.732,0.183,3.29,-25.307,177.935,-12.853,-7.847,-27.407,26.79,0.01056,0.21942,0.02423,0.97522,885,0.901,0.139,0.373,-0.061,-0.122,0.061,19.644,-66.171,-136.456,-28.767,-9.133,-1.887,28.23,0.39185,-0.44675,-0.3316,-0.73267,887
222,1.007,-0.02,0.152,0.0,0.061,0.0,-7.91,-81.068,166.322,-24.827,-3.993,-6.027,25.52,-0.1329,-0.63763,0.12775,-0.74786,888,0.573,0.076,0.817,-0.244,0.122,-0.244,5.592,-35.079,-109.402,-21.24,-5.8,-2.153,22.74,-0.56232,0.21857,0.21194,0.76877,892,0.423,0.048,0.899,1.16,-0.61,-0.122,3.318,-25.323,177.918,-12.853,-7.847,-27.407,26.79,0.01056,0.21942,0.02423,0.97522,890,0.901,0.137,0.374,-0.244,-0.244,-0.061,19.649,-66.171,-136.456,-28.767,-9.133,-1.887,28.23,0.39185,-0.44675,-0.3316,-0.73267,894
223,1.006,-0.019,0.153,-0.183,-0.061,0.0,-7.905,-81.068,166.295,-24.827,-3.993,-6.027,25.52,-0.1329,-0.63763,0.12775,-0.74786,889,0.574,0.076,0.817,-0.427,0.0,-0.549,5.587,-35.079,-109.424,-21.24,-5.8,-2.153,22.74,-0.56232,0.21857,0.21194,0.76877,893,0.425,0.053,0.897,0.977,-0.366,-0.427,3.34,-25.334,177.896,-12.853,-7.847,-27.407,26.79,0.01056,0.21942,0.02423,0.97522,891,0.902,0.135,0.376,-0.305,-0.305,-0.183,19.66,-66.176,-136.467,-28.767,-9.133,-1.887,28.23,0.39185,-0.44675,-0.3316,-0.73267,895
224,1.007,-0.019,0.155,-0.244,-0.183,0.0,-7.905,-81.074,166.273,-24.827,-3.993,-6.027,25.52,-0.1329,-0.63763,0.12775,-0.74786,896,0.576,0.079,0.816,-0.61,-0.244,-0.549,5.581,-35.085,-109.44,-21.24,-5.8,-2.153,22.74,-0.56232,0.21857,0.21194,0.76877,900,0.427,0.06,0.898,0.183,-0.183,-0.488,3.362,-25.34,177.858,-12.853,-7.847,-27.407,26.79,0.01056,0.21942,0.02423,0.97522,898,0.903,0.133,0.376,-0.122,-0.305,-0.305,19.677,-66.182,-136.478,-28.767,-9.133,-1.887,28.23,0.39267,-0.4465,-0.33231,-0.73206,902
225,1.009,-0.02,0.157,-0.305,-0.305,0.0,-7.91,-81.079,166.251,-24.827,-3.993,-6.027,25.52,-0.1329,-0.63763,0.12775,-0.74786,897,0.577,0.083,0.816,-0.366,-0.427,-0.183,5.581,-35.09,-109.451,-21.24,-5.8,-2.153,22.74,-0.56232,0.21857,0.21194,0.76877,901,0.428,0.06,0.898,0.305,0.244,-0.671,3.367,-25.34,177.852,-12.853,-7.847,-27.407,26.79,0.01056,0.21942,0.02423,0.97522,899,0.905,0.132,0.378,0.122,-0.305,-0.244,19.698,-66.187,-136.489,-28.767,-9.133,-1.887,28.23,0.39267,-0.4465,-0.33231,-0.73206,903
226,1.009,-0.021,0.159,-0.244,-0.244,0.0,-7.91,-81.09,166.229,-24.827,-3.993,-6.027,25.52,-0.13516,-0.63748,0.12958,-0.74731,904,0.577,0.083,0.817,-0.061,-0.427,0.061,5.576,-35.101,-109.457,-21.24,-5.8,-2.153,22.74,-0.56232,0.21857,0.21194,0.76877,908,0.427,0.061,0.901,0.122,0.122,-0.305,3.378,-25.334,177.863,-12.853,-7.847,-27.407,26.79,0.01056,0.21942,0.02423,0.97522,906,0.904,0.134,0.377,0.305,-0.183,-0.122,19.715,-66.187,-136.489,-28.767,-9.133,-1.887,28.23,0.39267,-0.4465,-0.33231,-0.73206,910
227,1.01,-0.022,0.157,-0.122,-0.244,0.0,-7.91,-81.096,166.207,-24.827,-3.993,-6.027,25.52,-0.13516,-0.63748,0.12958,-0.74731,905,0.578,0.083,0.817,0.0,-0.366,0.427,5.576,-35.107,-109.457,-21.24,-5.8,-2.153,22.74,-0.56232,0.21857,0.21194,0.76877,909,0.428,0.062,0.901,-0.427,-0.122,-0.122,3.384,-25.334,177.896,-12.853,-7.847,-27.407,26.79,0.01056,0.21942,0.02423,0.97522,907,0.904,0.136,0.377,0.427,-0.061,0.0,19.72,-66.187,-136.489,-28.767,-9.133,-1.887,28.23,0.39267,-0.4465,-0.33231,-0.73206,911
228,1.009,-0.021,0.158,0.0,-0.122,0.0,-7.916,-81.101,166.185,-24.827,-3.993,-6.027,25.52,-0.13516,-0.63748,0.12958,-0.74731,912,0.579,0.083,0.816,0.061,-0.61,0.61,5.57,-35.118,-109.446,-20.787,-5.74,-1.813,22.74,-0.56232,0.21857,0.21194,0.76877,914,0.431,0.058,0.897,0.0,0.427,0.122,3.384,-25.334,177.935,-12.853,-7.847,-27.407,26.79,0.01056,0.21942,0.02423,0.97522,920,0.903,0.137,0.376,0.305,0.0,0.061,19.726,-66.187,-136.478,-28.767,-9.133,-1.887,28.23,0.39267,-0.4465,-0.33231,-0.73206,916
229,1.009,-0.021,0.156,0.122,0.0,0.0,-7.91,-81.101,166.163,-24.827,-3.993,-6.027,25.52,-0.13516,-0.63748,0.12958,-0.74731,913,0.579,0.082,0.813,0.122,-0.488,0.549,5.565,-35.129,-109.44,-20.787,-5.74,-1.813,22.74,-0.56232,0.21857,0.21194,0.76877,915,0.427,0.059,0.895,0.122,-0.183,0.305,3.384,-25.329,177.984,-12.853,-7.847,-27.407,26.79,0.01056,0.21942,0.02423,0.97522,921,0.903,0.138,0.377,0.305,0.061,0.183,19.726,-66.187,-136.461,-28.767,-9.133,-1.887,28.23,0.39267,-0.4465,-0.33231,-0.73206,917
230,1.009,-0.021,0.156,0.244,0.0,0.0,-7.899,-81.101,166.135,-24.827,-3.993,-6.027,25.52,-0.13516,-0.63748,0.12958,-0.74731,918,0.578,0.083,0.816,0.122,-0.183,0.427,5.565,-35.134,-109.435,-20.787,-5.74,-1.813,22.74,-0.56232,0.21857,0.21194,0.76877,922,0.424,0.057,0.9,0.549,0.061,0.427,3.389,-25.329,178.072,-14.127,-7.447,-27.647,26.79,0.01056,0.21942,0.02423,0.97522,924,0.902,0.138,0.375,0.122,0.061,0.305,19.715,-66.187,-136.439,-28.767,-9.133,-1.887,28.23,0.39267,-0.4465,-0.33231,-0.73206,926
231,1.008,-0.019,0.154,0.305,0.0,0.0,-7.894,-81.101,166.113,-24.827,-3.993,-6.027,25.52,-0.13516,-0.63748,0.12958,-0.74731,919,0.576,0.079,0.816,0.305,-0.061,0.488,5.565,-35.14,-109.429,-20.787,-5.74,-1.813,22.74,-0.56232,0.21857,0.21194,0.76877,923,0.427,0.052,0.899,0.732,0.061,0.793,3.4,-25.329,178.198,-14.127,-7.447,-27.647,26.79,0.01056,0.21942,0.02423,0.97522,925,0.902,0.137,0.374,0.0,0.061,0.305,19.704,-66.187,-136.423,-28.767,-9.133,-1.887,28.23,0.39267,-0.4465,-0.33231,-0.73206,927
232,1.009,-0.019,0.153,0.183,0.0,0.0,-7.883,-81.101,166.091,-24.827,-3.993,-6.027,25.52,-0.13516,-0.63748,0.12958,-0.74731,928,0.576,0.079,0.817,0.0,-0.061,0.366,5.559,-35.14,-109.424,-20.787,-5.74,-1.813,22.74,-0.56198,0.21936,0.21194,0.76877,930,0.426,0.054,0.9,0.549,-0.183,0.183,3.411,-25.334,178.297,-14.127,-7.447,-27.647,26.79,0.01056,0.21942,0.02423,0.97522,932,0.903,0.137,0.373,0.061,0.0,0.183,19.704,-66.187,-136.406,-28.767,-9.133,-1.887,28.23,0.39267,-0.4465,-0.33231,-0.73206,934
233,1.009,-0.019,0.152,0.122,0.0,0.0,-7.872,-81.101,166.064,-24.827,-3.993,-6.027,25.52,-0.13516,-0.63748,0.12958,-0.74731,929,0.578,0.08,0.817,-0.183,-0.061,0.183,5.554,-35.14,-109.424,-20.787,-5.74,-1.813,22.74,-0.56198,0.21936,0.21194,0.76877,931,0.428,0.055,0.899,0.854,-0.244,0.0,3.422,-25.334,178.341,-14.127,-7.447,-27.647,26.79,0.01056,0.21942,0.02423,0.97522,933,0.904,0.137,0.373,0.061,-0.061,0.122,19.704,-66.187,-136.395,-28.767,-9.133,-1.887,28.23,0.39267,-0.4465,-0.33231,-0.73206,935
234,1.009,-0.018,0.151,0.122,-0.122,0.0,-7.866,-81.107,166.042,-24.827,-3.993,-6.027,25.52,-0.13516,-0.63748,0.12958,-0.74731,936,0.578,0.079,0.815,-0.305,-0.183,0.061,5.548,-35.145,-109.429,-20.787,-5.74,-1.813,22.74,-0.56198,0.21936,0.21194,0.76877,938,0.43,0.054,0.898,1.282,0.0,0.0,3.444,-25.34,178.385,-14.127,-7.447,-27.647,26.79,0.00723,0.21964,0.02615,0.97516,940,0.904,0.136,0.372,0.0,-0.122,0.061,19.704,-66.193,-136.39,-28.767,-9.133,-1.887,28.23,0.39267,-0.4465,-0.33231,-0.73206,942
235,1.009,-0.019,0.152,0.0,-0.122,0.0,-7.855,-81.107,166.02,-24.827,-3.993,-6.027,25.52,-0.13516,-0.63748,0.12958,-0.74731,937,0.58,0.078,0.815,-0.244,-0.183,0.0,5.543,-35.145,-109.435,-20.787,-5.74,-1.813,22.74,-0.56198,0.21936,0.21194,0.76877,939,0.428,0.058,0.898,1.221,0.0,-0.061,3.466,-25.34,178.423,-14.127,-7.447,-27.647,26.79,0.00723,0.21964,0.02615,0.97516,941,0.904,0.136,0.373,0.0,-0.122,0.0,19.715,-66.193,-136.39,-28.767,-9.133,-1.887,28.23,0.39267,-0.4465,-0.33231,-0.73206,943
236,1.01,-0.019,0.152,-0.183,-0.061,0.0,-7.85,-81.112,166.003,-24.827,-3.993,-6.027,25.52,-0.13516,-0.63748,0.12958,-0.74731,944,0.581,0.078,0.815,0.0,-0.244,0.061,5.543,-35.151,-109.44,-20.787,-5.74,-1.813,22.74,-0.56198,0.21936,0.21194,0.76877,946,0.429,0.057,0.898,1.221,-0.061,0.0,3.494,-25.34,178.445,-14.127,-7.447,-27.647,26.79,0.00723,0.21964,0.02615,0.97516,948,0.904,0.137,0.374,0.061,-0.122,0.0,19.72,-66.193,-136.384,-28.767,-9.133,-1.887,28.23,0.39267,-0.4465,-0.33231,-0.73206,950
237,1.009,-0.02,0.153,-0.183,0.0,0.0,-7.85,-81.118,165.981,-24.827,-3.993,-6.027,25.52,-0.13516,-0.63748,0.12958,-0.74731,945,0.58,0.079,0.814,0.183,-0.183,0.061,5.548,-35.156,-109.44,-20.787,-5.74,-1.813,22.74,-0.56198,0.21936,0.21194,0.76877,947,0.428,0.06,0.897,1.221,-0.183,0.244,3.521,-25.345,178.456,-14.127,-7.447,-27.647,26.79,0.00723,0.21964,0.02615,0.97516,949,0.904,0.137,0.375,0.0,-0.122,0.0,19.726,-66.198,-136.379,-28.767,-9.133,-1.887,28.23,0.39267,-0.4465,-0.33231,-0.73206,951
238,1.009,-0.02,0.154,-0.122,0.0,0.0,-7.844,-81.118,165.959,-24.88,-3.74,-5.547,25.52,-0.13516,-0.63748,0.12958,-0.74731,952,0.578,0.08,0.814,0.244,-0.061,0.061,5.554,-35.162,-109.446,-20.787,-5.74,-1.813,22.74,-0.56198,0.21936,0.21194,0.76877,954,0.427,0.057,0.898,1.709,-0.305,0.0,3.543,-25.351,178.445,-14.127,-7.447,-27.647,26.79,0.00723,0.21964,0.02615,0.97516,956,0.903,0.136,0.375,0.0,-0.061,0.0,19.731,-66.198,-136.379,-28.767,-9.133,-1.887,28.23,0.39267,-0.4465,-0.33231,-0.73206,958
