Index,L5_Acceleration X(g),L5_Acceleration Y(g),L5_Acceleration Z(g),L5_Angular velocity X(°/s),L5_Angular velocity Y(°/s),L5_Angular velocity Z(°/s),L5_Angle X(°),L5_Angle Y(°),L5_Angle Z(°),L5_Magnetic field X(ʯt),L5_Magnetic field Y(ʯt),L5_Magnetic field Z(ʯt),L5_Temperature(℃),L5_Quaternions 0(),L5_Quaternions 1(),L5_Quaternions 2(),L5_Quaternions 3(),L5___orig_idx,T4_Acceleration X(g),T4_Acceleration Y(g),T4_Acceleration Z(g),T4_Angular velocity X(°/s),T4_Angular velocity Y(°/s),T4_Angular velocity Z(°/s),T4_Angle X(°),T4_Angle Y(°),T4_Angle Z(°),T4_Magnetic field X(ʯt),T4_Magnetic field Y(ʯt),T4_Magnetic field Z(ʯt),T4_Temperature(℃),T4_Quaternions 0(),T4_Quaternions 1(),T4_Quaternions 2(),T4_Quaternions 3(),T4___orig_idx,C7_Acceleration X(g),C7_Acceleration Y(g),C7_Acceleration Z(g),C7_Angular velocity X(°/s),C7_Angular velocity Y(°/s),C7_Angular velocity Z(°/s),C7_Angle X(°),C7_Angle Y(°),C7_Angle Z(°),C7_Magnetic field X(ʯt),C7_Magnetic field Y(ʯt),C7_Magnetic field Z(ʯt),C7_Temperature(℃),C7_Quaternions 0(),C7_Quaternions 1(),C7_Quaternions 2(),C7_Quaternions 3(),C7___orig_idx,T12_Acceleration X(g),T12_Acceleration Y(g),T12_Acceleration Z(g),T12_Angular velocity X(°/s),T12_Angular velocity Y(°/s),T12_Angular velocity Z(°/s),T12_Angle X(°),T12_Angle Y(°),T12_Angle Z(°),T12_Magnetic field X(ʯt),T12_Magnetic field Y(ʯt),T12_Magnetic field Z(ʯt),T12_Temperature(℃),T12_Quaternions 0(),T12_Quaternions 1(),T12_Quaternions 2(),T12_Quaternions 3(),T12___orig_idx
0,0.932,-0.132,0.397,-0.122,-0.427,0.0,-18.078,-65.951,-175.946,-26.293,-9.287,-13.72,27.38,0.05609,0.54135,-0.1123,0.8313,2,0.584,0.024,0.814,0.183,-0.183,0.0,1.862,-35.717,-115.219,-20.72,-6.573,-6.487,26.84,0.51465,-0.25031,-0.17783,-0.80048,0,0.436,-0.029,0.896,0.0,-1.099,0.183,-1.857,-25.862,176.039,-12.213,-6.673,-27.067,31.37,-0.03375,-0.22183,0.02203,-0.97421,4,0.922,-0.099,0.343,0.061,-0.305,0.0,-16.353,-68.912,-145.113,-30.707,-8.947,-5.907,31.4,0.16876,-0.569,-0.05646,-0.80276,8
1,0.933,-0.131,0.396,-0.061,-0.488,0.0,-18.089,-65.956,-175.941,-26.293,-9.287,-13.72,27.38,0.05609,0.54135,-0.1123,0.8313,3,0.586,0.025,0.817,0.061,-0.061,0.0,1.862,-35.717,-115.225,-20.72,-6.573,-6.487,26.84,0.51465,-0.25031,-0.17783,-0.80048,1,0.436,-0.03,0.895,0.0,-1.16,0.0,-1.862,-25.884,176.023,-12.213,-6.673,-27.067,31.37,-0.03375,-0.22183,0.02203,-0.97421,5,0.922,-0.098,0.343,0.122,-0.427,0.0,-16.359,-68.917,-145.118,-30.707,-8.947,-5.907,31.4,0.16876,-0.569,-0.05646,-0.80276,9
2,0.932,-0.13,0.398,-0.061,-0.488,0.0,-18.1,-65.962,-175.924,-26.293,-9.287,-13.72,27.38,0.05609,0.54135,-0.1123,0.8313,12,0.585,0.026,0.817,0.122,-0.183,0.0,1.862,-35.717,-115.241,-20.72,-6.573,-6.487,26.84,0.51465,-0.25031,-0.17783,-0.80048,10,0.436,-0.031,0.895,0.061,-1.282,0.366,-1.862,-25.906,176.012,-12.173,-7.107,-26.827,31.37,-0.03375,-0.22183,0.02203,-0.97421,6,0.92,-0.1,0.345,0.366,-0.427,0.0,-16.359,-68.923,-145.135,-30.707,-8.947,-5.907,31.4,0.16876,-0.569,-0.05646,-0.80276,14
3,0.93,-0.131,0.4,-0.061,-0.549,0.0,-18.111,-65.973,-175.919,-26.293,-9.287,-13.72,27.38,0.05609,0.54135,-0.1123,0.8313,13,0.583,0.026,0.812,0.427,-0.305,0.0,1.868,-35.722,-115.258,-20.72,-6.573,-6.487,26.84,0.51465,-0.25031,-0.17783,-0.80048,11,0.438,-0.03,0.897,-0.122,-1.099,0.061,-1.862,-25.928,176.001,-12.173,-7.107,-26.827,31.37,-0.03375,-0.22183,0.02203,-0.97421,7,0.92,-0.102,0.342,0.305,-0.183,0.0,-16.353,-68.928,-145.124,-30.707,-8.947,-5.907,31.4,0.16876,-0.569,-0.05646,-0.80276,15
4,0.931,-0.134,0.398,0.0,-0.366,0.0,-18.122,-65.978,-175.924,-26.387,-9.453,-14.827,27.38,0.05609,0.54135,-0.1123,0.8313,16,0.589,0.023,0.814,0.0,0.488,0.0,1.873,-35.722,-115.263,-20.72,-6.573,-6.487,26.84,0.51373,-0.25067,-0.17728,-0.80106,24,0.436,-0.027,0.895,0.244,-1.038,0.122,-1.862,-25.95,175.995,-12.173,-7.107,-26.827,31.37,-0.03375,-0.22183,0.02203,-0.97421,20,0.924,-0.1,0.342,0.061,0.061,0.0,-16.348,-68.923,-145.118,-30.393,-8.313,-6.773,31.4,0.16876,-0.569,-0.05646,-0.80276,18
5,0.935,-0.132,0.398,0.0,-0.305,0.0,-18.127,-65.978,-175.924,-26.387,-9.453,-14.827,27.38,0.05609,0.54135,-0.1123,0.8313,17,0.59,0.026,0.815,-0.122,0.793,0.0,1.873,-35.711,-115.274,-20.72,-6.573,-6.487,26.84,0.51373,-0.25067,-0.17728,-0.80106,25,0.438,-0.03,0.886,0.183,-1.099,0.366,-1.862,-25.972,176.006,-12.173,-7.107,-26.827,31.37,-0.03375,-0.22183,0.02203,-0.97421,21,0.924,-0.096,0.34,0.061,-0.061,0.0,-16.348,-68.923,-145.102,-30.393,-8.313,-6.773,31.4,0.16876,-0.569,-0.05646,-0.80276,19
6,0.934,-0.128,0.396,0.0,-0.183,0.0,-18.133,-65.984,-175.908,-26.387,-9.453,-14.827,27.38,0.05609,0.54135,-0.1123,0.8313,22,0.588,0.029,0.815,0.305,-0.244,0.0,1.873,-35.7,-115.274,-20.72,-6.573,-6.487,26.84,0.51373,-0.25067,-0.17728,-0.80106,30,0.444,-0.033,0.892,-0.366,-0.366,0.0,-1.868,-25.983,176.023,-12.173,-7.107,-26.827,31.37,-0.03757,-0.22397,0.02365,-0.97354,26,0.924,-0.098,0.339,0.0,0.0,0.0,-16.342,-68.923,-145.069,-30.393,-8.313,-6.773,31.4,0.16876,-0.569,-0.05646,-0.80276,28
7,0.935,-0.13,0.394,-0.061,-0.061,0.0,-18.138,-65.984,-175.886,-26.387,-9.453,-14.827,27.38,0.05609,0.54135,-0.1123,0.8313,23,0.588,0.025,0.815,0.183,-0.549,0.0,1.879,-35.706,-115.285,-20.72,-6.573,-6.487,26.84,0.51373,-0.25067,-0.17728,-0.80106,31,0.442,-0.026,0.899,0.061,-0.366,0.0,-1.868,-25.988,176.023,-12.173,-7.107,-26.827,31.37,-0.03757,-0.22397,0.02365,-0.97354,27,0.923,-0.098,0.339,-0.244,0.0,0.0,-16.348,-68.923,-145.025,-30.393,-8.313,-6.773,31.4,0.16876,-0.569,-0.05646,-0.80276,29
8,0.933,-0.133,0.395,-0.244,0.0,0.0,-18.144,-65.984,-175.875,-26.387,-9.453,-14.827,27.38,0.05603,0.54208,-0.11279,0.83075,32,0.585,0.026,0.812,0.061,-0.061,0.0,1.879,-35.711,-115.291,-20.72,-6.573,-6.487,26.84,0.51373,-0.25067,-0.17728,-0.80106,36,0.442,-0.029,0.896,0.427,-0.732,0.061,-1.862,-26.005,176.028,-12.173,-7.107,-26.827,31.37,-0.03757,-0.22397,0.02365,-0.97354,34,0.92,-0.1,0.34,0.0,0.0,0.0,-16.348,-68.923,-144.987,-30.393,-8.313,-6.773,31.4,0.16833,-0.56943,-0.0564,-0.80255,38
9,0.93,-0.132,0.395,-0.061,-0.061,0.0,-18.149,-65.978,-175.864,-26.387,-9.453,-14.827,27.38,0.05603,0.54208,-0.11279,0.83075,33,0.584,0.028,0.814,0.122,0.183,0.0,1.879,-35.711,-115.291,-20.72,-6.573,-6.487,26.84,0.51373,-0.25067,-0.17728,-0.80106,37,0.441,-0.031,0.89,0.244,-0.366,-0.183,-1.857,-26.01,176.023,-12.173,-7.107,-26.827,31.37,-0.03757,-0.22397,0.02365,-0.97354,35,0.92,-0.1,0.341,0.122,0.0,0.0,-16.342,-68.923,-144.948,-30.393,-8.313,-6.773,31.4,0.16833,-0.56943,-0.0564,-0.80255,39
10,0.93,-0.131,0.395,0.0,-0.122,0.0,-18.155,-65.984,-175.858,-26.387,-9.453,-14.827,27.38,0.05603,0.54208,-0.11279,0.83075,40,0.584,0.026,0.814,0.244,0.244,0.0,1.884,-35.711,-115.302,-20.72,-6.573,-6.487,26.84,0.51373,-0.25067,-0.17728,-0.80106,44,0.438,-0.026,0.891,0.061,-0.305,-0.122,-1.857,-26.021,176.023,-12.173,-7.107,-26.827,31.37,-0.03757,-0.22397,0.02365,-0.97354,42,0.919,-0.099,0.341,0.244,0.0,0.0,-16.337,-68.923,-144.915,-30.393,-8.313,-6.773,31.4,0.16833,-0.56943,-0.0564,-0.80255,50
11,0.929,-0.132,0.395,0.0,-0.244,0.0,-18.16,-65.984,-175.847,-26.387,-9.453,-14.827,27.38,0.05603,0.54208,-0.11279,0.83075,41,0.585,0.026,0.814,0.061,0.122,0.0,1.884,-35.706,-115.307,-20.72,-6.573,-6.487,26.84,0.51373,-0.25067,-0.17728,-0.80106,45,0.438,-0.027,0.893,0.305,-0.122,0.0,-1.851,-26.027,176.023,-12.173,-7.107,-26.827,31.37,-0.03757,-0.22397,0.02365,-0.97354,43,0.922,-0.1,0.341,0.366,0.0,0.0,-16.326,-68.923,-144.877,-30.393,-8.313,-6.773,31.4,0.16833,-0.56943,-0.0564,-0.80255,51
12,0.933,-0.133,0.395,0.0,-0.244,0.0,-18.166,-65.989,-175.831,-26.387,-9.453,-14.827,27.38,0.05603,0.54208,-0.11279,0.83075,48,0.587,0.024,0.816,0.0,0.061,0.0,1.884,-35.706,-115.318,-20.72,-6.573,-6.487,26.84,0.51373,-0.25067,-0.17728,-0.80106,54,0.438,-0.029,0.892,0.244,0.061,0.0,-1.846,-26.027,176.012,-12.173,-7.107,-26.827,31.37,-0.03757,-0.22397,0.02365,-0.97354,46,0.925,-0.1,0.342,0.244,0.0,0.0,-16.32,-68.923,-144.844,-30.393,-8.313,-6.773,31.4,0.16833,-0.56943,-0.0564,-0.80255,52
13,0.935,-0.133,0.397,-0.122,-0.183,0.0,-18.171,-65.989,-175.82,-26.387,-9.453,-14.827,27.38,0.05603,0.54208,-0.11279,0.83075,49,0.587,0.026,0.815,0.122,-0.122,0.0,1.89,-35.706,-115.329,-20.72,-6.573,-6.487,26.84,0.51373,-0.25067,-0.17728,-0.80106,55,0.441,-0.031,0.894,0.0,0.183,-0.061,-1.84,-26.027,176.028,-12.173,-7.107,-26.827,31.37,-0.03757,-0.22397,0.02365,-0.97354,47,0.924,-0.099,0.342,0.0,0.0,0.0,-16.32,-68.923,-144.805,-30.393,-8.313,-6.773,31.4,0.16833,-0.56943,-0.0564,-0.80255,53
14,0.934,-0.133,0.397,-0.122,0.0,0.0,-18.182,-65.989,-175.809,-26.387,-9.453,-14.827,27.38,0.05603,0.54208,-0.11279,0.83075,60,0.585,0.028,0.816,0.122,0.0,0.0,1.89,-35.706,-115.334,-20.72,-6.573,-6.487,26.84,0.51373,-0.25067,-0.17728,-0.80106,58,0.442,-0.03,0.896,0.122,0.305,-0.183,-1.84,-26.021,176.034,-12.173,-7.107,-26.827,31.37,-0.03757,-0.22397,0.02365,-0.97354,56,0.922,-0.099,0.342,0.0,0.0,0.0,-16.32,-68.923,-144.772,-30.393,-8.313,-6.773,31.4,0.16833,-0.56943,-0.0564,-0.80255,64
15,0.932,-0.133,0.396,-0.244,0.122,0.0,-18.188,-65.989,-175.803,-26.387,-9.453,-14.827,27.38,0.05603,0.54208,-0.11279,0.83075,61,0.583,0.026,0.816,0.061,-0.061,0.0,1.89,-35.706,-115.329,-20.72,-6.573,-6.487,26.84,0.51373,-0.25067,-0.17728,-0.80106,59,0.44,-0.027,0.895,0.244,0.244,-0.061,-1.835,-26.021,176.028,-12.173,-7.107,-26.827,31.37,-0.03757,-0.22397,0.02365,-0.97354,57,0.921,-0.1,0.343,0.0,0.0,0.0,-16.315,-68.923,-144.739,-30.393,-8.313,-6.773,31.4,0.16833,-0.56943,-0.0564,-0.80255,65
16,0.931,-0.133,0.398,-0.183,0.061,0.0,-18.193,-65.984,-175.798,-26.387,-9.453,-14.827,27.38,0.05603,0.54208,-0.11279,0.83075,66,0.584,0.026,0.814,0.061,-0.244,0.0,1.89,-35.711,-115.312,-20.72,-6.573,-6.487,26.84,0.51373,-0.25067,-0.17728,-0.80106,68,0.438,-0.027,0.896,0.183,0.244,0.0,-1.829,-26.016,176.012,-12.173,-7.107,-26.827,31.37,-0.03757,-0.22397,0.02365,-0.97354,62,0.919,-0.1,0.343,0.183,0.122,0.0,-16.315,-68.917,-144.706,-30.393,-8.313,-6.773,31.4,0.16833,-0.56943,-0.0564,-0.80255,72
17,0.93,-0.133,0.397,0.0,0.061,0.0,-18.199,-65.984,-175.792,-26.387,-9.453,-14.827,27.38,0.05603,0.54208,-0.11279,0.83075,67,0.583,0.024,0.812,-0.061,0.488,-0.305,1.895,-35.706,-115.307,-20.72,-6.573,-6.487,26.84,0.51373,-0.25067,-0.17728,-0.80106,69,0.437,-0.029,0.895,0.366,0.183,0.0,-1.824,-26.016,176.012,-12.173,-7.107,-26.827,31.37,-0.03757,-0.22397,0.02365,-0.97354,63,0.919,-0.099,0.342,0.183,0.122,0.0,-16.304,-68.917,-144.673,-30.393,-8.313,-6.773,31.4,0.16833,-0.56943,-0.0564,-0.80255,73
18,0.93,-0.13,0.396,0.0,0.061,0.0,-18.199,-65.978,-175.781,-26.387,-9.453,-14.827,27.38,0.05603,0.54208,-0.11279,0.83075,76,0.584,0.027,0.813,0.183,0.427,-0.122,1.895,-35.695,-115.302,-20.46,-6.213,-5.673,26.84,0.51373,-0.25067,-0.17728,-0.80106,74,0.438,-0.032,0.888,0.061,0.427,-0.183,-1.818,-26.01,176.028,-12.173,-7.107,-26.827,31.37,-0.03757,-0.22397,0.02365,-0.97354,70,0.92,-0.098,0.341,0.305,0.366,0.0,-16.293,-68.912,-144.646,-30.393,-8.313,-6.773,31.4,0.16833,-0.56943,-0.0564,-0.80255,80
19,0.932,-0.131,0.396,0.0,0.061,0.0,-18.199,-65.973,-175.776,-26.387,-9.453,-14.827,27.38,0.05603,0.54208,-0.11279,0.83075,77,0.584,0.029,0.816,0.305,0.122,0.061,1.901,-35.689,-115.291,-20.46,-6.213,-5.673,26.84,0.51373,-0.25067,-0.17728,-0.80106,75,0.437,-0.028,0.891,0.122,0.61,-0.366,-1.818,-25.999,176.006,-12.173,-7.107,-26.827,31.37,-0.03757,-0.22397,0.02365,-0.97354,71,0.922,-0.099,0.342,0.061,0.305,0.0,-16.287,-68.906,-144.619,-30.393,-8.313,-6.773,31.4,0.16833,-0.56943,-0.0564,-0.80255,81
20,0.933,-0.132,0.396,-0.061,0.061,0.0,-18.204,-65.973,-175.77,-26.387,-9.453,-14.827,27.38,0.05603,0.54208,-0.11279,0.83075,84,0.583,0.027,0.817,0.122,-0.061,0.0,1.906,-35.689,-115.28,-20.46,-6.213,-5.673,26.84,0.51373,-0.25067,-0.17728,-0.80106,82,0.438,-0.025,0.896,0.305,0.427,0.122,-1.813,-25.994,175.99,-12.173,-7.107,-26.827,31.37,-0.03757,-0.22397,0.02365,-0.97354,78,0.922,-0.099,0.344,0.0,0.183,0.0,-16.282,-68.901,-144.591,-30.393,-8.313,-6.773,31.4,0.16833,-0.56943,-0.0564,-0.80255,88
21,0.932,-0.133,0.396,-0.122,0.0,0.0,-18.21,-65.973,-175.765,-26.387,-9.453,-14.827,27.38,0.05603,0.54208,-0.11279,0.83075,85,0.583,0.027,0.82,-0.122,-0.183,0.0,1.906,-35.695,-115.269,-20.46,-6.213,-5.673,26.84,0.51373,-0.25067,-0.17728,-0.80106,83,0.437,-0.027,0.896,0.305,0.427,0.183,-1.807,-25.983,175.968,-12.173,-7.107,-26.827,31.37,-0.03757,-0.22397,0.02365,-0.97354,79,0.921,-0.098,0.343,0.0,0.122,0.0,-16.276,-68.895,-144.564,-30.393,-8.313,-6.773,31.4,0.16833,-0.56943,-0.0564,-0.80255,89
22,0.931,-0.131,0.396,0.0,0.0,0.0,-18.21,-65.967,-175.754,-26.387,-9.453,-14.827,27.38,0.05603,0.54208,-0.11279,0.83075,94,0.583,0.027,0.817,-0.061,-0.244,-0.061,1.906,-35.695,-115.263,-20.46,-6.213,-5.673,26.84,0.5137,-0.25034,-0.1774,-0.80118,92,0.436,-0.028,0.897,-0.061,0.305,0.0,-1.807,-25.977,175.93,-12.173,-7.107,-26.827,31.37,-0.03757,-0.22397,0.02365,-0.97354,86,0.92,-0.098,0.344,0.0,0.0,0.0,-16.276,-68.895,-144.531,-30.36,-8.987,-5.08,31.4,0.16833,-0.56943,-0.0564,-0.80255,90
23,0.93,-0.132,0.397,0.0,0.0,0.0,-18.215,-65.967,-175.748,-26.387,-9.453,-14.827,27.38,0.05603,0.54208,-0.11279,0.83075,95,0.582,0.027,0.816,0.0,-0.183,-0.122,1.906,-35.7,-115.252,-20.46,-6.213,-5.673,26.84,0.5137,-0.25034,-0.1774,-0.80118,93,0.436,-0.028,0.897,-0.183,0.366,-0.061,-1.807,-25.972,175.941,-12.173,-7.107,-26.827,31.37,-0.03757,-0.22397,0.02365,-0.97354,87,0.919,-0.099,0.343,0.0,0.0,0.0,-16.271,-68.895,-144.498,-30.36,-8.987,-5.08,31.4,0.16833,-0.56943,-0.0564,-0.80255,91
24,0.93,-0.133,0.396,0.0,-0.061,0.0,-18.215,-65.967,-175.743,-26.587,-9.52,-14.4,27.38,0.05603,0.54208,-0.11279,0.83075,98,0.582,0.027,0.816,0.061,-0.244,0.0,1.906,-35.7,-115.247,-20.46,-6.213,-5.673,26.84,0.5137,-0.25034,-0.1774,-0.80118,96,0.435,-0.027,0.894,0.0,0.183,-0.122,-1.807,-25.972,175.984,-12.22,-7.147,-25.793,31.37,-0.03757,-0.22397,0.02365,-0.97354,104,0.918,-0.1,0.342,-0.061,0.0,0.0,-16.271,-68.895,-144.47,-30.36,-8.987,-5.08,31.4,0.16833,-0.56943,-0.0564,-0.80255,100
25,0.93,-0.133,0.396,-0.122,-0.061,0.0,-18.221,-65.967,-175.732,-26.587,-9.52,-14.4,27.38,0.05603,0.54208,-0.11279,0.83075,99,0.583,0.026,0.816,0.244,-0.305,0.0,1.912,-35.706,-115.236,-20.46,-6.213,-5.673,26.84,0.5137,-0.25034,-0.1774,-0.80118,97,0.434,-0.027,0.896,0.0,0.061,0.0,-1.807,-25.966,176.05,-12.22,-7.147,-25.793,31.37,-0.03757,-0.22397,0.02365,-0.97354,105,0.92,-0.099,0.343,0.0,-0.061,0.0,-16.271,-68.895,-144.437,-30.36,-8.987,-5.08,31.4,0.16833,-0.56943,-0.0564,-0.80255,101
26,0.93,-0.132,0.396,0.0,-0.122,0.0,-18.226,-65.967,-175.726,-26.587,-9.52,-14.4,27.38,0.05603,0.54208,-0.11279,0.83075,106,0.583,0.026,0.816,0.244,-0.366,0.061,1.912,-35.711,-115.225,-20.46,-6.213,-5.673,26.84,0.5137,-0.25034,-0.1774,-0.80118,102,0.435,-0.028,0.896,0.183,-0.061,0.122,-1.807,-25.972,176.111,-12.22,-7.147,-25.793,31.37,-0.03647,-0.22403,0.02295,-0.97357,108,0.921,-0.099,0.342,0.061,-0.061,0.0,-16.271,-68.895,-144.404,-30.36,-8.987,-5.08,31.4,0.17291,-0.56885,-0.05975,-0.80179,110
27,0.931,-0.133,0.396,0.0,-0.122,0.0,-18.232,-65.967,-175.715,-26.587,-9.52,-14.4,27.38,0.05603,0.54208,-0.11279,0.83075,107,0.583,0.028,0.817,0.122,-0.366,0.122,1.917,-35.711,-115.214,-20.46,-6.213,-5.673,26.84,0.5137,-0.25034,-0.1774,-0.80118,103,0.436,-0.029,0.895,0.244,-0.122,0.122,-1.802,-25.972,176.149,-12.22,-7.147,-25.793,31.37,-0.03647,-0.22403,0.02295,-0.97357,109,0.921,-0.099,0.342,0.0,-0.122,0.0,-16.271,-68.895,-144.377,-30.36,-8.987,-5.08,31.4,0.17291,-0.56885,-0.05975,-0.80179,111
28,0.932,-0.133,0.396,0.0,-0.061,0.0,-18.237,-65.967,-175.704,-26.587,-9.52,-14.4,27.38,0.05524,0.54211,-0.11273,0.83081,114,0.584,0.029,0.816,0.061,-0.305,0.183,1.917,-35.717,-115.203,-20.46,-6.213,-5.673,26.84,0.5137,-0.25034,-0.1774,-0.80118,112,0.436,-0.028,0.896,0.183,-0.305,0.244,-1.802,-25.977,176.16,-12.22,-7.147,-25.793,31.37,-0.03647,-0.22403,0.02295,-0.97357,116,0.921,-0.098,0.342,0.0,-0.183,0.0,-16.271,-68.895,-144.344,-30.36,-8.987,-5.08,31.4,0.17291,-0.56885,-0.05975,-0.80179,118
29,0.932,-0.132,0.396,0.0,-0.183,0.0,-18.243,-65.967,-175.699,-26.587,-9.52,-14.4,27.38,0.05524,0.54211,-0.11273,0.83081,115,0.585,0.026,0.815,0.0,-0.305,0.061,1.912,-35.722,-115.186,-20.46,-6.213,-5.673,26.84,0.5137,-0.25034,-0.1774,-0.80118,113,0.437,-0.026,0.896,0.0,-0.366,0.244,-1.802,-25.983,176.188,-12.22,-7.147,-25.793,31.37,-0.03647,-0.22403,0.02295,-0.97357,117,0.921,-0.099,0.342,0.0,-0.183,0.0,-16.271,-68.901,-144.311,-30.36,-8.987,-5.08,31.4,0.17291,-0.56885,-0.05975,-0.80179,119
30,0.932,-0.132,0.396,-0.061,-0.183,0.0,-18.248,-65.967,-175.688,-26.587,-9.52,-14.4,27.38,0.05524,0.54211,-0.11273,0.83081,122,0.585,0.026,0.815,-0.061,-0.244,0.061,1.912,-35.728,-115.175,-20.46,-6.213,-5.673,26.84,0.5137,-0.25034,-0.1774,-0.80118,120,0.438,-0.028,0.895,-0.122,-0.366,0.183,-1.807,-25.988,176.232,-12.22,-7.147,-25.793,31.37,-0.03647,-0.22403,0.02295,-0.97357,124,0.922,-0.1,0.341,-0.061,-0.183,0.0,-16.271,-68.901,-144.278,-30.36,-8.987,-5.08,31.4,0.17291,-0.56885,-0.05975,-0.80179,128
31,0.932,-0.133,0.395,0.0,-0.183,0.0,-18.254,-65.973,-175.677,-26.587,-9.52,-14.4,27.38,0.05524,0.54211,-0.11273,0.83081,123,0.586,0.027,0.815,-0.122,-0.244,0.0,1.912,-35.728,-115.17,-20.46,-6.213,-5.673,26.84,0.5137,-0.25034,-0.1774,-0.80118,121,0.438,-0.03,0.894,-0.183,-0.549,0.122,-1.813,-25.999,176.265,-12.22,-7.147,-25.793,31.37,-0.03647,-0.22403,0.02295,-0.97357,125,0.922,-0.099,0.341,0.0,-0.244,0.0,-16.276,-68.906,-144.245,-30.36,-8.987,-5.08,31.4,0.17291,-0.56885,-0.05975,-0.80179,129
32,0.932,-0.132,0.395,0.0,-0.122,0.0,-18.259,-65.973,-175.671,-26.587,-9.52,-14.4,27.38,0.05524,0.54211,-0.11273,0.83081,132,0.586,0.027,0.814,-0.061,-0.488,0.0,1.912,-35.733,-115.159,-20.46,-6.213,-5.673,26.84,0.5137,-0.25034,-0.1774,-0.80118,130,0.439,-0.029,0.895,-0.305,-0.549,0.061,-1.818,-26.01,176.276,-12.22,-7.147,-25.793,31.37,-0.03647,-0.22403,0.02295,-0.97357,126,0.922,-0.1,0.342,0.0,-0.244,0.0,-16.276,-68.912,-144.218,-30.36,-8.987,-5.08,31.4,0.17291,-0.56885,-0.05975,-0.80179,134
33,0.933,-0.132,0.395,0.0,-0.122,0.0,-18.265,-65.973,-175.66,-26.587,-9.52,-14.4,27.38,0.05524,0.54211,-0.11273,0.83081,133,0.586,0.027,0.815,0.0,-0.427,0.0,1.906,-35.744,-115.148,-20.46,-6.213,-5.673,26.84,0.5137,-0.25034,-0.1774,-0.80118,131,0.438,-0.028,0.895,-0.244,-0.671,0.0,-1.824,-26.021,176.276,-12.22,-7.147,-25.793,31.37,-0.03647,-0.22403,0.02295,-0.97357,127,0.922,-0.099,0.343,-0.061,-0.244,0.0,-16.282,-68.917,-144.185,-30.36,-8.987,-5.08,31.4,0.17291,-0.56885,-0.05975,-0.80179,135
34,0.932,-0.133,0.397,-0.122,-0.183,0.0,-18.276,-65.978,-175.655,-26.587,-9.52,-14.4,27.38,0.05524,0.54211,-0.11273,0.83081,136,0.586,0.027,0.813,0.0,-0.366,0.122,1.906,-35.75,-115.142,-20.46,-6.213,-5.673,26.84,0.5137,-0.25034,-0.1774,-0.80118,140,0.44,-0.029,0.894,-0.061,-0.61,0.0,-1.824,-26.038,176.298,-12.22,-7.147,-25.793,31.37,-0.03647,-0.22403,0.02295,-0.97357,138,0.921,-0.099,0.342,-0.122,-0.183,0.0,-16.282,-68.917,-144.152,-30.36,-8.987,-5.08,31.4,0.17291,-0.56885,-0.05975,-0.80179,144
35,0.931,-0.132,0.396,-0.183,-0.244,0.0,-18.281,-65.978,-175.644,-26.587,-9.52,-14.4,27.38,0.05524,0.54211,-0.11273,0.83081,137,0.586,0.027,0.813,0.061,-0.122,0.183,1.906,-35.75,-115.126,-20.46,-6.213,-5.673,26.84,0.5137,-0.25034,-0.1774,-0.80118,141,0.439,-0.027,0.893,-0.122,-0.427,0.122,-1.829,-26.043,176.32,-12.22,-7.147,-25.793,31.37,-0.03647,-0.22403,0.02295,-0.97357,139,0.922,-0.1,0.341,-0.122,-0.122,0.0,-16.287,-68.917,-144.124,-30.36,-8.987,-5.08,31.4,0.17291,-0.56885,-0.05975,-0.80179,145
36,0.933,-0.134,0.396,-0.183,-0.305,0.0,-18.292,-65.984,-175.633,-26.587,-9.52,-14.4,27.38,0.05524,0.54211,-0.11273,0.83081,146,0.586,0.027,0.815,-0.122,-0.061,0.244,1.901,-35.755,-115.115,-20.567,-6.547,-6.273,26.84,0.5137,-0.25034,-0.1774,-0.80118,148,0.439,-0.028,0.891,0.0,-0.305,0.183,-1.829,-26.054,176.325,-12.22,-7.147,-25.793,31.37,-0.03647,-0.22403,0.02295,-0.97357,142,0.923,-0.1,0.342,-0.122,0.061,0.0,-16.287,-68.917,-144.102,-30.36,-8.987,-5.08,31.4,0.17291,-0.56885,-0.05975,-0.80179,152
37,0.934,-0.134,0.396,-0.122,-0.244,0.0,-18.303,-65.984,-175.622,-26.587,-9.52,-14.4,27.38,0.05524,0.54211,-0.11273,0.83081,147,0.587,0.028,0.82,-0.732,-0.427,0.244,1.89,-35.755,-115.098,-20.567,-6.547,-6.273,26.84,0.5137,-0.25034,-0.1774,-0.80118,149,0.438,-0.028,0.893,0.0,-0.244,0.305,-1.835,-26.06,176.325,-12.22,-7.147,-25.793,31.37,-0.03647,-0.22403,0.02295,-0.97357,143,0.923,-0.1,0.342,-0.427,0.061,0.0,-16.293,-68.917,-144.075,-30.36,-8.987,-5.08,31.4,0.17291,-0.56885,-0.05975,-0.80179,153
38,0.933,-0.133,0.396,-0.244,-0.122,0.0,-18.314,-65.989,-175.611,-26.587,-9.52,-14.4,27.38,0.05524,0.54211,-0.11273,0.83081,154,0.587,0.029,0.817,-0.977,-0.549,0.122,1.873,-35.766,-115.087,-20.567,-6.547,-6.273,26.84,0.5137,-0.25034,-0.1774,-0.80118,156,0.439,-0.029,0.898,-0.549,-0.244,0.122,-1.846,-26.065,176.32,-12.22,-7.147,-25.793,31.37,-0.03647,-0.22403,0.02295,-0.97357,150,0.923,-0.096,0.342,-0.732,0.0,0.0,-16.309,-68.917,-144.047,-30.707,-8.86,-6.827,31.4,0.17291,-0.56885,-0.05975,-0.80179,158
39,0.933,-0.129,0.395,-0.305,-0.122,0.0,-18.325,-65.989,-175.605,-26.587,-9.52,-14.4,27.38,0.05524,0.54211,-0.11273,0.83081,155,0.587,0.027,0.812,-0.854,-0.732,0.244,1.851,-35.777,-115.076,-20.567,-6.547,-6.273,26.84,0.5137,-0.25034,-0.1774,-0.80118,157,0.441,-0.027,0.898,-0.854,-0.061,-0.061,-1.857,-26.065,176.32,-12.22,-7.147,-25.793,31.37,-0.03647,-0.22403,0.02295,-0.97357,151,0.921,-0.096,0.341,-0.61,0.0,0.0,-16.315,-68.912,-144.025,-30.707,-8.86,-6.827,31.4,0.17291,-0.56885,-0.05975,-0.80179,159
40,0.933,-0.131,0.396,-0.488,-0.061,0.0,-18.336,-65.989,-175.6,-26.587,-9.52,-14.4,27.38,0.05524,0.54211,-0.11273,0.83081,164,0.586,0.026,0.814,-0.488,-0.366,0.244,1.84,-35.788,-115.06,-20.567,-6.547,-6.273,26.84,0.51486,-0.25079,-0.17786,-0.80017,160,0.44,-0.027,0.892,-0.916,-0.061,0.0,-1.873,-26.065,176.336,-12.22,-7.147,-25.793,31.37,-0.03647,-0.22403,0.02295,-0.97357,166,0.917,-0.102,0.339,-0.061,0.061,0.0,-16.32,-68.912,-143.998,-30.707,-8.86,-6.827,31.4,0.17584,-0.56879,-0.06177,-0.80103,162
41,0.929,-0.135,0.396,-0.244,-0.122,0.0,-18.342,-65.989,-175.589,-26.587,-9.52,-14.4,27.38,0.05524,0.54211,-0.11273,0.83081,165,0.582,0.023,0.808,-0.061,-0.305,0.427,1.829,-35.793,-115.043,-20.567,-6.547,-6.273,26.84,0.51486,-0.25079,-0.17786,-0.80017,161,0.441,-0.028,0.891,-0.854,-0.183,0.0,-1.89,-26.071,176.347,-12.22,-7.147,-25.793,31.37,-0.03647,-0.22403,0.02295,-0.97357,167,0.921,-0.101,0.34,-0.122,0.366,0.0,-16.315,-68.912,-143.976,-30.707,-8.86,-6.827,31.4,0.17584,-0.56879,-0.06177,-0.80103,163
42,0.929,-0.135,0.395,0.0,0.122,0.0,-18.347,-65.984,-175.583,-26.553,-9.193,-13.113,27.38,0.05524,0.54211,-0.11273,0.83081,170,0.586,0.02,0.811,-0.061,0.305,0.549,1.818,-35.788,-115.021,-20.567,-6.547,-6.273,26.84,0.51486,-0.25079,-0.17786,-0.80017,168,0.437,-0.028,0.89,-0.366,-0.183,0.183,-1.901,-26.076,176.314,-12.033,-6.96,-27.1,31.37,-0.03647,-0.22403,0.02295,-0.97357,172,0.922,-0.095,0.344,-0.366,0.244,0.0,-16.315,-68.906,-143.954,-30.707,-8.86,-6.827,31.4,0.17584,-0.56879,-0.06177,-0.80103,174
43,0.934,-0.132,0.395,-0.061,0.183,0.0,-18.347,-65.984,-175.583,-26.553,-9.193,-13.113,27.38,0.05524,0.54211,-0.11273,0.83081,171,0.586,0.025,0.816,-0.244,0.732,0.183,1.813,-35.777,-115.005,-20.567,-6.547,-6.273,26.84,0.51486,-0.25079,-0.17786,-0.80017,169,0.438,-0.035,0.884,-0.183,-0.305,0.488,-1.912,-26.082,176.254,-12.033,-6.96,-27.1,31.37,-0.03647,-0.22403,0.02295,-0.97357,173,0.924,-0.095,0.342,-0.427,0.122,0.0,-16.315,-68.901,-143.937,-30.707,-8.86,-6.827,31.4,0.17584,-0.56879,-0.06177,-0.80103,175
44,0.934,-0.128,0.396,0.0,0.122,0.0,-18.347,-65.978,-175.578,-26.553,-9.193,-13.113,27.38,0.05524,0.54211,-0.11273,0.83081,178,0.587,0.031,0.818,-0.488,0.122,-0.061,1.802,-35.771,-114.999,-20.567,-6.547,-6.273,26.84,0.51486,-0.25079,-0.17786,-0.80017,176,0.44,-0.035,0.891,-0.427,0.0,0.244,-1.923,-26.087,176.193,-12.033,-6.96,-27.1,31.37,-0.03647,-0.22403,0.02295,-0.97357,180,0.923,-0.098,0.343,-1.038,0.0,0.0,-16.326,-68.901,-143.91,-30.707,-8.86,-6.827,31.4,0.17584,-0.56879,-0.06177,-0.80103,182
45,0.934,-0.13,0.394,-0.305,0.061,0.0,-18.353,-65.973,-175.573,-26.553,-9.193,-13.113,27.38,0.05524,0.54211,-0.11273,0.83081,179,0.586,0.027,0.819,-1.16,-0.427,-0.427,1.791,-35.777,-115.021,-20.567,-6.547,-6.273,26.84,0.51486,-0.25079,-0.17786,-0.80017,177,0.439,-0.027,0.899,-0.244,0.244,0.0,-1.928,-26.082,176.166,-12.033,-6.96,-27.1,31.37,-0.03647,-0.22403,0.02295,-0.97357,181,0.921,-0.1,0.345,-1.221,0.0,0.0,-16.342,-68.901,-143.899,-30.707,-8.86,-6.827,31.4,0.17584,-0.56879,-0.06177,-0.80103,183
46,0.933,-0.133,0.398,-0.732,0.183,0.0,-18.364,-65.973,-175.573,-26.553,-9.193,-13.113,27.38,0.05481,0.54221,-0.11295,0.83075,186,0.583,0.024,0.816,-1.587,-0.366,-0.671,1.769,-35.782,-115.054,-20.567,-6.547,-6.273,26.84,0.51486,-0.25079,-0.17786,-0.80017,184,0.439,-0.03,0.901,-0.671,0.305,-0.549,-1.934,-26.076,176.144,-12.033,-6.96,-27.1,31.37,-0.03647,-0.22403,0.02295,-0.97357,188,0.918,-0.102,0.343,-1.282,0.122,0.0,-16.359,-68.895,-143.932,-30.707,-8.86,-6.827,31.4,0.17584,-0.56879,-0.06177,-0.80103,190
47,0.93,-0.134,0.397,-0.854,0.0,0.0,-18.38,-65.967,-175.567,-26.553,-9.193,-13.113,27.38,0.05481,0.54221,-0.11295,0.83075,187,0.582,0.024,0.817,-2.136,0.122,-0.854,1.741,-35.777,-115.076,-20.567,-6.547,-6.273,26.84,0.51486,-0.25079,-0.17786,-0.80017,185,0.436,-0.031,0.896,-1.099,0.427,-1.038,-1.945,-26.071,176.111,-12.033,-6.96,-27.1,31.37,-0.03647,-0.22403,0.02295,-0.97357,189,0.918,-0.101,0.342,-1.587,0.183,0.0,-16.386,-68.895,-143.976,-30.707,-8.86,-6.827,31.4,0.17584,-0.56879,-0.06177,-0.80103,191
48,0.927,-0.135,0.397,-0.793,0.061,0.0,-18.397,-65.967,-175.562,-26.553,-9.193,-13.113,27.38,0.05481,0.54221,-0.11295,0.83075,194,0.583,0.025,0.817,-3.296,0.366,-1.099,1.697,-35.771,-115.104,-20.567,-6.547,-6.273,26.84,0.51486,-0.25079,-0.17786,-0.80017,192,0.434,-0.032,0.893,-1.404,0.549,-1.16,-1.961,-26.065,176.111,-12.033,-6.96,-27.1,31.37,-0.03668,-0.22488,0.02408,-0.97336,196,0.919,-0.101,0.344,-1.648,0.122,0.0,-16.408,-68.89,-144.003,-30.707,-8.86,-6.827,31.4,0.17584,-0.56879,-0.06177,-0.80103,198
49,0.929,-0.134,0.396,-0.977,0.061,0.0,-18.419,-65.962,-175.556,-26.553,-9.193,-13.113,27.38,0.05481,0.54221,-0.11295,0.83075,195,0.582,0.024,0.815,-4.089,0.0,-1.221,1.637,-35.766,-115.137,-20.567,-6.547,-6.273,26.84,0.51486,-0.25079,-0.17786,-0.80017,193,0.435,-0.032,0.895,-2.38,0.977,-1.709,-1.989,-26.049,176.127,-12.033,-6.96,-27.1,31.37,-0.03668,-0.22488,0.02408,-0.97336,197,0.921,-0.101,0.343,-1.831,0.0,0.0,-16.441,-68.89,-144.025,-30.707,-8.86,-6.827,31.4,0.17584,-0.56879,-0.06177,-0.80103,199
50,0.929,-0.133,0.397,-1.16,-0.061,0.0,-18.441,-65.962,-175.523,-26.553,-9.193,-13.113,27.38,0.05481,0.54221,-0.11295,0.83075,202,0.584,0.02,0.816,-4.211,-0.488,-1.282,1.577,-35.771,-115.175,-20.567,-6.547,-6.273,26.84,0.51486,-0.25079,-0.17786,-0.80017,200,0.434,-0.031,0.896,-3.235,1.221,-2.075,-2.027,-26.027,176.133,-12.033,-6.96,-27.1,31.37,-0.03668,-0.22488,0.02408,-0.97336,204,0.923,-0.102,0.345,-1.709,-0.122,0.0,-16.474,-68.884,-144.047,-30.707,-8.86,-6.827,31.4,0.17584,-0.56879,-0.06177,-0.80103,206
51,0.932,-0.132,0.396,-1.221,-0.183,-0.366,-18.457,-65.967,-175.49,-26.553,-9.193,-13.113,27.38,0.05481,0.54221,-0.11295,0.83075,203,0.586,0.016,0.815,-3.601,-0.427,-1.404,1.522,-35.777,-115.219,-20.567,-6.547,-6.273,26.84,0.51486,-0.25079,-0.17786,-0.80017,201,0.435,-0.034,0.896,-3.784,1.038,-2.38,-2.076,-26.005,176.105,-12.033,-6.96,-27.1,31.37,-0.03668,-0.22488,0.02408,-0.97336,205,0.922,-0.103,0.344,-1.648,-0.122,-0.305,-16.501,-68.89,-144.069,-30.707,-8.86,-6.827,31.4,0.17584,-0.56879,-0.06177,-0.80103,207
52,0.934,-0.135,0.399,-1.282,-0.305,-0.366,-18.474,-65.973,-175.468,-26.553,-9.193,-13.113,27.38,0.05481,0.54221,-0.11295,0.83075,210,0.585,0.017,0.816,-3.235,-0.122,-1.282,1.478,-35.777,-115.263,-20.567,-6.547,-6.273,26.84,0.51486,-0.25079,-0.17786,-0.80017,218,0.437,-0.037,0.893,-3.357,0.916,-2.319,-2.12,-25.988,176.039,-12.033,-6.96,-27.1,31.37,-0.03668,-0.22488,0.02408,-0.97336,208,0.921,-0.101,0.342,-1.648,-0.183,-0.305,-16.523,-68.89,-144.108,-30.227,-8.9,-6.88,31.4,0.17584,-0.56879,-0.06177,-0.80103,214
53,0.933,-0.135,0.396,-1.221,-0.244,-0.427,-18.484,-65.973,-175.468,-26.553,-9.193,-13.113,27.38,0.05481,0.54221,-0.11295,0.83075,211,0.585,0.018,0.817,-3.174,0.061,-1.404,1.434,-35.771,-115.302,-20.567,-6.547,-6.273,26.84,0.51486,-0.25079,-0.17786,-0.80017,219,0.437,-0.038,0.895,-2.747,0.732,-1.953,-2.159,-25.977,175.974,-12.033,-6.96,-27.1,31.37,-0.03668,-0.22488,0.02408,-0.97336,209,0.921,-0.101,0.341,-1.282,-0.183,-0.366,-16.534,-68.895,-144.157,-30.227,-8.9,-6.88,31.4,0.17584,-0.56879,-0.06177,-0.80103,215
54,0.932,-0.133,0.396,-1.16,-0.244,-0.427,-18.495,-65.978,-175.474,-26.553,-9.193,-13.113,27.38,0.05481,0.54221,-0.11295,0.83075,216,0.588,0.016,0.812,-2.502,-0.366,-1.221,1.395,-35.777,-115.345,-20.687,-6.8,-6.633,26.84,0.51486,-0.25079,-0.17786,-0.80017,226,0.438,-0.037,0.896,-2.747,0.732,-2.075,-2.192,-25.961,175.902,-12.033,-6.96,-27.1,31.37,-0.03668,-0.22488,0.02408,-0.97336,212,0.922,-0.102,0.34,-1.038,0.0,-0.488,-16.54,-68.901,-144.196,-30.227,-8.9,-6.88,31.4,0.17346,-0.56912,-0.05923,-0.80148,222
55,0.932,-0.133,0.395,-0.977,-0.122,-0.366,-18.501,-65.984,-175.485,-26.553,-9.193,-13.113,27.38,0.05481,0.54221,-0.11295,0.83075,217,0.587,0.013,0.811,-1.892,-0.122,-1.221,1.373,-35.777,-115.395,-20.687,-6.8,-6.633,26.84,0.51486,-0.25079,-0.17786,-0.80017,227,0.439,-0.035,0.896,-2.197,0.61,-1.953,-2.219,-25.95,175.814,-12.033,-6.96,-27.1,31.37,-0.03668,-0.22488,0.02408,-0.97336,213,0.922,-0.103,0.339,-0.793,0.0,-0.61,-16.534,-68.901,-144.234,-30.227,-8.9,-6.88,31.4,0.17346,-0.56912,-0.05923,-0.80148,223
56,0.933,-0.135,0.395,-0.671,-0.122,-0.427,-18.501,-65.989,-175.512,-26.553,-9.193,-13.113,27.38,0.05481,0.54221,-0.11295,0.83075,224,0.588,0.015,0.812,-1.587,0.0,-1.221,1.357,-35.777,-115.444,-20.687,-6.8,-6.633,26.84,0.51486,-0.25079,-0.17786,-0.80017,228,0.439,-0.04,0.888,-1.526,0.183,-1.709,-2.236,-25.95,175.743,-12.033,-6.96,-27.1,31.37,-0.03668,-0.22488,0.02408,-0.97336,220,0.924,-0.101,0.338,-0.488,0.122,-0.732,-16.518,-68.901,-144.3,-30.227,-8.9,-6.88,31.4,0.17346,-0.56912,-0.05923,-0.80148,230
57,0.934,-0.134,0.394,-0.305,0.0,-0.427,-18.495,-65.989,-175.551,-26.553,-9.193,-13.113,27.38,0.05481,0.54221,-0.11295,0.83075,225,0.591,0.021,0.812,-0.854,0.0,-0.793,1.351,-35.777,-115.494,-20.687,-6.8,-6.633,26.84,0.51486,-0.25079,-0.17786,-0.80017,229,0.439,-0.04,0.892,-1.282,0.061,-1.648,-2.247,-25.95,175.671,-12.033,-6.96,-27.1,31.37,-0.03668,-0.22488,0.02408,-0.97336,221,0.924,-0.101,0.34,-0.366,0.183,-0.732,-16.485,-68.901,-144.404,-30.227,-8.9,-6.88,31.4,0.17346,-0.56912,-0.05923,-0.80148,231
58,0.935,-0.133,0.394,-0.305,0.061,-0.366,-18.484,-65.989,-175.583,-26.553,-9.193,-13.113,27.38,0.05481,0.54221,-0.11295,0.83075,236,0.59,0.019,0.811,-0.305,0.122,-0.61,1.351,-35.771,-115.527,-20.687,-6.8,-6.633,26.84,0.51486,-0.25079,-0.17786,-0.80017,234,0.442,-0.032,0.893,-0.793,0.0,-1.282,-2.252,-25.95,175.633,-12.033,-6.96,-27.1,31.37,-0.03668,-0.22488,0.02408,-0.97336,232,0.924,-0.099,0.34,-0.183,0.244,-0.671,-16.458,-68.906,-144.503,-30.227,-8.9,-6.88,31.4,0.17346,-0.56912,-0.05923,-0.80148,240
59,0.935,-0.135,0.395,-0.305,0.183,-0.305,-18.479,-65.984,-175.627,-26.553,-9.193,-13.113,27.38,0.05481,0.54221,-0.11295,0.83075,237,0.59,0.021,0.814,-0.427,-0.061,-0.488,1.351,-35.777,-115.571,-20.687,-6.8,-6.633,26.84,0.51486,-0.25079,-0.17786,-0.80017,235,0.442,-0.033,0.891,0.0,0.0,-0.854,-2.241,-25.955,175.589,-12.033,-6.96,-27.1,31.37,-0.03668,-0.22488,0.02408,-0.97336,233,0.923,-0.098,0.34,0.0,0.183,-0.61,-16.425,-68.901,-144.602,-30.227,-8.9,-6.88,31.4,0.17346,-0.56912,-0.05923,-0.80148,241
60,0.935,-0.133,0.393,-0.183,0.244,-0.183,-18.474,-65.984,-175.66,-26.193,-9.107,-14.52,27.38,0.05481,0.54221,-0.11295,0.83075,242,0.59,0.021,0.813,-0.122,-0.183,-0.305,1.351,-35.777,-115.598,-20.687,-6.8,-6.633,26.84,0.51047,-0.25381,-0.17325,-0.80304,246,0.441,-0.034,0.896,0.0,-0.244,-0.732,-2.236,-25.961,175.562,-12.033,-6.96,-27.1,31.37,-0.03668,-0.22488,0.02408,-0.97336,238,0.923,-0.099,0.34,0.244,0.305,-0.61,-16.386,-68.901,-144.69,-30.227,-8.9,-6.88,31.4,0.17346,-0.56912,-0.05923,-0.80148,244
61,0.933,-0.132,0.394,-0.183,0.183,-0.183,-18.474,-65.978,-175.682,-26.193,-9.107,-14.52,27.38,0.05481,0.54221,-0.11295,0.83075,243,0.589,0.021,0.812,0.244,-0.061,-0.061,1.357,-35.782,-115.62,-20.687,-6.8,-6.633,26.84,0.51047,-0.25381,-0.17325,-0.80304,247,0.442,-0.032,0.894,0.0,-0.183,-0.671,-2.23,-25.966,175.507,-12.033,-6.96,-27.1,31.37,-0.03668,-0.22488,0.02408,-0.97336,239,0.922,-0.099,0.339,0.61,0.305,-0.488,-16.348,-68.901,-144.767,-30.227,-8.9,-6.88,31.4,0.17346,-0.56912,-0.05923,-0.80148,245
62,0.933,-0.133,0.394,0.0,0.305,-0.061,-18.468,-65.973,-175.699,-26.193,-9.107,-14.52,27.38,0.05481,0.54221,-0.11295,0.83075,250,0.588,0.023,0.812,0.366,0.0,0.183,1.362,-35.782,-115.626,-20.687,-6.8,-6.633,26.84,0.51047,-0.25381,-0.17325,-0.80304,256,0.441,-0.03,0.892,0.183,-0.122,-0.305,-2.219,-25.972,175.457,-12.033,-6.96,-27.1,31.37,-0.03668,-0.22488,0.02408,-0.97336,248,0.921,-0.099,0.341,0.671,0.366,-0.305,-16.309,-68.895,-144.816,-30.227,-8.9,-6.88,31.4,0.17346,-0.56912,-0.05923,-0.80148,252
63,0.932,-0.135,0.395,0.244,0.366,0.0,-18.463,-65.967,-175.699,-26.193,-9.107,-14.52,27.38,0.05481,0.54221,-0.11295,0.83075,251,0.587,0.02,0.812,0.793,-0.183,0.549,1.368,-35.788,-115.62,-20.687,-6.8,-6.633,26.84,0.51047,-0.25381,-0.17325,-0.80304,257,0.442,-0.028,0.893,0.244,-0.122,-0.061,-2.214,-25.977,175.408,-12.033,-6.96,-27.1,31.37,-0.03668,-0.22488,0.02408,-0.97336,249,0.921,-0.098,0.341,0.549,0.366,-0.244,-16.276,-68.89,-144.838,-30.227,-8.9,-6.88,31.4,0.17346,-0.56912,-0.05923,-0.80148,253
64,0.932,-0.134,0.396,0.305,0.366,0.0,-18.452,-65.956,-175.699,-26.193,-9.107,-14.52,27.38,0.05621,0.54199,-0.11432,0.83063,258,0.586,0.018,0.813,1.038,-0.122,0.549,1.379,-35.793,-115.615,-20.687,-6.8,-6.633,26.84,0.51047,-0.25381,-0.17325,-0.80304,260,0.439,-0.029,0.893,0.549,-0.122,0.366,-2.208,-25.983,175.375,-11.687,-6.793,-26.48,31.37,-0.03668,-0.22488,0.02408,-0.97336,254,0.92,-0.098,0.344,0.488,0.366,-0.122,-16.254,-68.884,-144.866,-30.227,-8.9,-6.88,31.4,0.17346,-0.56912,-0.05923,-0.80148,264
65,0.931,-0.133,0.396,0.244,0.366,0.0,-18.446,-65.951,-175.699,-26.193,-9.107,-14.52,27.38,0.05621,0.54199,-0.11432,0.83063,259,0.585,0.02,0.814,0.854,-0.061,0.488,1.39,-35.793,-115.609,-20.687,-6.8,-6.633,26.84,0.51047,-0.25381,-0.17325,-0.80304,261,0.438,-0.036,0.891,0.916,-0.305,0.671,-2.192,-25.994,175.353,-11.687,-6.793,-26.48,31.37,-0.03668,-0.22488,0.02408,-0.97336,255,0.92,-0.098,0.344,0.366,0.305,0.0,-16.238,-68.879,-144.91,-30.227,-8.9,-6.88,31.4,0.17346,-0.56912,-0.05923,-0.80148,265
66,0.93,-0.133,0.397,0.061,0.244,0.0,-18.446,-65.945,-175.688,-26.193,-9.107,-14.52,27.38,0.05621,0.54199,-0.11432,0.83063,268,0.583,0.021,0.814,0.854,-0.122,0.427,1.401,-35.799,-115.604,-20.687,-6.8,-6.633,26.84,0.51047,-0.25381,-0.17325,-0.80304,266,0.437,-0.034,0.895,0.793,-0.122,0.61,-2.181,-25.999,175.32,-11.687,-6.793,-26.48,31.37,-0.03668,-0.22488,0.02408,-0.97336,262,0.92,-0.098,0.345,0.244,0.244,0.122,-16.227,-68.873,-144.926,-30.36,-8.6,-6.88,31.4,0.17346,-0.56912,-0.05923,-0.80148,270
67,0.93,-0.133,0.397,0.0,0.122,0.0,-18.446,-65.94,-175.677,-26.193,-9.107,-14.52,27.38,0.05621,0.54199,-0.11432,0.83063,269,0.583,0.018,0.814,0.732,0.0,0.122,1.417,-35.799,-115.587,-20.687,-6.8,-6.633,26.84,0.51047,-0.25381,-0.17325,-0.80304,267,0.436,-0.033,0.894,0.732,-0.122,0.671,-2.175,-26.005,175.287,-11.687,-6.793,-26.48,31.37,-0.03668,-0.22488,0.02408,-0.97336,263,0.919,-0.1,0.346,0.061,0.305,0.061,-16.227,-68.868,-144.948,-30.36,-8.6,-6.88,31.4,0.17346,-0.56912,-0.05923,-0.80148,271
68,0.93,-0.134,0.398,0.0,0.061,0.0,-18.446,-65.94,-175.666,-26.193,-9.107,-14.52,27.38,0.05621,0.54199,-0.11432,0.83063,272,0.584,0.017,0.817,0.244,0.0,-0.061,1.423,-35.799,-115.582,-20.687,-6.8,-6.633,26.84,0.51047,-0.25381,-0.17325,-0.80304,276,0.435,-0.036,0.892,0.854,0.061,0.488,-2.159,-26.005,175.254,-11.687,-6.793,-26.48,31.37,-0.04416,-0.22397,0.02771,-0.97314,274,0.919,-0.103,0.346,0.061,0.305,0.061,-16.221,-68.862,-144.976,-30.36,-8.6,-6.88,31.4,0.16956,-0.56882,-0.0574,-0.80267,278
69,0.93,-0.136,0.399,0.0,0.0,-0.061,-18.446,-65.94,-175.655,-26.193,-9.107,-14.52,27.38,0.05621,0.54199,-0.11432,0.83063,273,0.583,0.016,0.816,0.244,-0.183,-0.122,1.428,-35.799,-115.576,-20.687,-6.8,-6.633,26.84,0.51047,-0.25381,-0.17325,-0.80304,277,0.435,-0.038,0.896,0.366,0.305,0.183,-2.153,-25.999,175.237,-11.687,-6.793,-26.48,31.37,-0.04416,-0.22397,0.02771,-0.97314,275,0.921,-0.103,0.344,0.122,0.305,0.0,-16.216,-68.857,-145.009,-30.36,-8.6,-6.88,31.4,0.16956,-0.56882,-0.0574,-0.80267,279
70,0.931,-0.137,0.397,0.061,0.0,-0.122,-18.441,-65.94,-175.627,-26.193,-9.107,-14.52,27.38,0.05621,0.54199,-0.11432,0.83063,284,0.584,0.015,0.817,0.366,-0.366,0.0,1.434,-35.804,-115.565,-20.687,-6.8,-6.633,26.84,0.51047,-0.25381,-0.17325,-0.80304,282,0.434,-0.037,0.895,0.183,0.366,0.122,-2.153,-25.994,175.193,-11.687,-6.793,-26.48,31.37,-0.04416,-0.22397,0.02771,-0.97314,280,0.921,-0.103,0.344,0.366,0.122,-0.061,-16.205,-68.851,-145.052,-30.36,-8.6,-6.88,31.4,0.16956,-0.56882,-0.0574,-0.80267,286
71,0.932,-0.137,0.396,0.244,0.0,-0.183,-18.435,-65.934,-175.611,-26.193,-9.107,-14.52,27.38,0.05621,0.54199,-0.11432,0.83063,285,0.587,0.016,0.816,0.427,-0.305,0.0,1.439,-35.81,-115.56,-20.687,-6.8,-6.633,26.84,0.51047,-0.25381,-0.17325,-0.80304,283,0.435,-0.037,0.896,0.305,0.122,0.244,-2.153,-25.988,175.188,-11.687,-6.793,-26.48,31.37,-0.04416,-0.22397,0.02771,-0.97314,281,0.922,-0.102,0.345,0.488,0.061,-0.061,-16.194,-68.846,-145.085,-30.36,-8.6,-6.88,31.4,0.16956,-0.56882,-0.0574,-0.80267,287
72,0.932,-0.136,0.397,0.305,-0.061,-0.122,-18.43,-65.934,-175.583,-26.193,-9.107,-14.52,27.38,0.05621,0.54199,-0.11432,0.83063,288,0.586,0.017,0.815,0.854,-0.122,0.183,1.45,-35.81,-115.543,-20.687,-6.8,-6.633,26.84,0.51047,-0.25381,-0.17325,-0.80304,296,0.438,-0.037,0.895,0.305,0.122,0.305,-2.148,-25.988,175.193,-11.687,-6.793,-26.48,31.37,-0.04416,-0.22397,0.02771,-0.97314,290,0.921,-0.1,0.342,0.427,0.122,-0.061,-16.183,-68.846,-145.124,-30.36,-8.6,-6.88,31.4,0.16956,-0.56882,-0.0574,-0.80267,294
73,0.932,-0.135,0.396,0.427,-0.183,-0.122,-18.424,-65.94,-175.54,-26.193,-9.107,-14.52,27.38,0.05621,0.54199,-0.11432,0.83063,289,0.586,0.021,0.815,0.916,0.061,0.366,1.461,-35.81,-115.527,-20.687,-6.8,-6.633,26.84,0.51047,-0.25381,-0.17325,-0.80304,297,0.438,-0.036,0.894,0.61,0.122,0.488,-2.142,-25.983,175.21,-11.687,-6.793,-26.48,31.37,-0.04416,-0.22397,0.02771,-0.97314,291,0.921,-0.097,0.341,0.427,0.244,0.0,-16.172,-68.84,-145.151,-30.36,-8.6,-6.88,31.4,0.16956,-0.56882,-0.0574,-0.80267,295
74,0.932,-0.134,0.395,0.427,-0.061,-0.061,-18.419,-65.94,-175.501,-26.193,-9.107,-14.52,27.38,0.05621,0.54199,-0.11432,0.83063,298,0.587,0.023,0.815,0.854,0.0,0.427,1.472,-35.804,-115.499,-21.073,-5.967,-6.213,26.84,0.51047,-0.25381,-0.17325,-0.80304,300,0.437,-0.033,0.895,0.793,0.0,0.671,-2.137,-25.983,175.226,-11.687,-6.793,-26.48,31.37,-0.04416,-0.22397,0.02771,-0.97314,292,0.92,-0.096,0.343,0.366,0.122,0.061,-16.166,-68.835,-145.162,-30.36,-8.6,-6.88,31.4,0.16956,-0.56882,-0.0574,-0.80267,304
75,0.932,-0.132,0.394,0.366,0.0,0.0,-18.413,-65.934,-175.485,-26.193,-9.107,-14.52,27.38,0.05621,0.54199,-0.11432,0.83063,299,0.586,0.024,0.813,0.793,-0.061,0.366,1.478,-35.804,-115.461,-21.073,-5.967,-6.213,26.84,0.51047,-0.25381,-0.17325,-0.80304,301,0.438,-0.03,0.896,0.854,0.0,0.61,-2.126,-25.983,175.232,-11.687,-6.793,-26.48,31.37,-0.04416,-0.22397,0.02771,-0.97314,293,0.92,-0.097,0.344,0.122,0.0,0.122,-16.161,-68.835,-145.184,-30.36,-8.6,-6.88,31.4,0.16956,-0.56882,-0.0574,-0.80267,305
76,0.932,-0.132,0.396,0.183,-0.122,0.0,-18.419,-65.934,-175.463,-26.193,-9.107,-14.52,27.38,0.05621,0.54199,-0.11432,0.83063,306,0.586,0.022,0.814,0.366,0.0,0.244,1.483,-35.804,-115.439,-21.073,-5.967,-6.213,26.84,0.51047,-0.25381,-0.17325,-0.80304,308,0.438,-0.03,0.894,0.977,-0.061,0.61,-2.115,-25.988,175.237,-11.687,-6.793,-26.48,31.37,-0.04416,-0.22397,0.02771,-0.97314,302,0.921,-0.098,0.342,0.061,0.0,0.122,-16.166,-68.829,-145.173,-30.36,-8.6,-6.88,31.4,0.16956,-0.56882,-0.0574,-0.80267,310
77,0.931,-0.133,0.396,0.061,-0.183,0.0,-18.419,-65.94,-175.441,-26.193,-9.107,-14.52,27.38,0.05621,0.54199,-0.11432,0.83063,307,0.587,0.021,0.814,0.122,0.0,0.183,1.483,-35.804,-115.417,-21.073,-5.967,-6.213,26.84,0.51047,-0.25381,-0.17325,-0.80304,309,0.437,-0.032,0.894,0.488,-0.061,0.427,-2.109,-25.988,175.232,-11.687,-6.793,-26.48,31.37,-0.04416,-0.22397,0.02771,-0.97314,303,0.921,-0.098,0.342,0.061,0.0,0.122,-16.172,-68.829,-145.157,-30.36,-8.6,-6.88,31.4,0.16956,-0.56882,-0.0574,-0.80267,311
78,0.932,-0.132,0.396,0.061,-0.122,0.0,-18.424,-65.94,-175.43,-26.28,-9.473,-14.047,27.38,0.05621,0.54199,-0.11432,0.83063,316,0.586,0.02,0.814,0.0,-0.244,0.122,1.478,-35.81,-115.411,-21.073,-5.967,-6.213,26.84,0.51166,-0.25327,-0.17462,-0.80215,312,0.438,-0.033,0.895,0.122,-0.061,0.244,-2.109,-25.988,175.21,-11.687,-6.793,-26.48,31.37,-0.04416,-0.22397,0.02771,-0.97314,314,0.922,-0.098,0.343,-0.061,0.061,0.0,-16.172,-68.829,-145.146,-30.36,-8.6,-6.88,31.4,0.16956,-0.56882,-0.0574,-0.80267,320
79,0.933,-0.132,0.396,0.0,0.0,0.0,-18.424,-65.94,-175.402,-26.28,-9.473,-14.047,27.38,0.05621,0.54199,-0.11432,0.83063,317,0.587,0.019,0.814,-0.122,-0.183,0.061,1.478,-35.81,-115.411,-21.073,-5.967,-6.213,26.84,0.51166,-0.25327,-0.17462,-0.80215,313,0.438,-0.035,0.894,0.0,-0.061,0.183,-2.109,-25.988,175.166,-11.687,-6.793,-26.48,31.37,-0.04416,-0.22397,0.02771,-0.97314,315,0.922,-0.098,0.346,0.0,0.0,0.061,-16.172,-68.829,-145.146,-30.36,-8.6,-6.88,31.4,0.16956,-0.56882,-0.0574,-0.80267,321
80,0.933,-0.133,0.397,-0.061,0.0,-0.061,-18.43,-65.94,-175.375,-26.28,-9.473,-14.047,27.38,0.05368,0.54211,-0.11258,0.83093,324,0.586,0.02,0.815,-0.061,-0.061,-0.061,1.478,-35.81,-115.4,-21.073,-5.967,-6.213,26.84,0.51166,-0.25327,-0.17462,-0.80215,322,0.439,-0.035,0.894,-0.183,-0.061,0.122,-2.115,-25.994,175.128,-11.807,-6.947,-26.967,31.37,-0.04416,-0.22397,0.02771,-0.97314,318,0.92,-0.1,0.344,0.122,0.122,-0.061,-16.166,-68.824,-145.14,-30.327,-8.807,-6.727,31.4,0.16956,-0.56882,-0.0574,-0.80267,326
81,0.931,-0.132,0.398,0.061,-0.061,-0.061,-18.424,-65.94,-175.375,-26.28,-9.473,-14.047,27.38,0.05368,0.54211,-0.11258,0.83093,325,0.585,0.018,0.813,0.122,-0.122,-0.061,1.478,-35.815,-115.389,-21.073,-5.967,-6.213,26.84,0.51166,-0.25327,-0.17462,-0.80215,323,0.438,-0.035,0.894,-0.183,-0.061,0.0,-2.12,-25.994,175.095,-11.807,-6.947,-26.967,31.37,-0.04416,-0.22397,0.02771,-0.97314,319,0.92,-0.102,0.343,0.0,0.305,-0.183,-16.15,-68.824,-145.151,-30.327,-8.807,-6.727,31.4,0.16956,-0.56882,-0.0574,-0.80267,327
82,0.93,-0.136,0.397,0.244,0.061,-0.183,-18.413,-65.934,-175.38,-26.28,-9.473,-14.047,27.38,0.05368,0.54211,-0.11258,0.83093,334,0.588,0.017,0.813,-0.061,0.366,0.0,1.478,-35.804,-115.384,-21.073,-5.967,-6.213,26.84,0.51166,-0.25327,-0.17462,-0.80215,336,0.436,-0.035,0.894,0.122,0.0,-0.061,-2.12,-25.994,175.073,-11.807,-6.947,-26.967,31.37,-0.04416,-0.22397,0.02771,-0.97314,328,0.921,-0.099,0.347,-0.122,0.244,-0.061,-16.144,-68.818,-145.151,-30.327,-8.807,-6.727,31.4,0.16956,-0.56882,-0.0574,-0.80267,332
83,0.932,-0.135,0.397,0.0,0.244,-0.122,-18.408,-65.929,-175.386,-26.28,-9.473,-14.047,27.38,0.05368,0.54211,-0.11258,0.83093,335,0.586,0.02,0.813,-0.061,0.854,-0.122,1.472,-35.788,-115.378,-21.073,-5.967,-6.213,26.84,0.51166,-0.25327,-0.17462,-0.80215,337,0.439,-0.038,0.888,0.0,0.122,0.0,-2.12,-25.994,175.089,-11.807,-6.947,-26.967,31.37,-0.04416,-0.22397,0.02771,-0.97314,329,0.921,-0.1,0.343,0.244,0.183,-0.061,-16.133,-68.813,-145.14,-30.327,-8.807,-6.727,31.4,0.16956,-0.56882,-0.0574,-0.80267,333
84,0.931,-0.133,0.397,0.244,0.061,0.0,-18.402,-65.929,-175.38,-26.28,-9.473,-14.047,27.38,0.05368,0.54211,-0.11258,0.83093,340,0.587,0.02,0.817,0.305,0.183,0.0,1.478,-35.782,-115.373,-21.073,-5.967,-6.213,26.84,0.51166,-0.25327,-0.17462,-0.80215,338,0.438,-0.034,0.893,0.0,0.549,-0.183,-2.12,-25.983,175.095,-11.807,-6.947,-26.967,31.37,-0.04584,-0.22388,0.02762,-0.97308,330,0.921,-0.101,0.342,0.0,0.122,-0.122,-16.128,-68.807,-145.129,-30.327,-8.807,-6.727,31.4,0.16888,-0.56848,-0.05701,-0.8031,344
85,0.932,-0.136,0.395,0.305,0.122,0.0,-18.402,-65.923,-175.364,-26.28,-9.473,-14.047,27.38,0.05368,0.54211,-0.11258,0.83093,341,0.587,0.017,0.818,0.061,0.0,0.0,1.478,-35.782,-115.378,-21.073,-5.967,-6.213,26.84,0.51166,-0.25327,-0.17462,-0.80215,339,0.438,-0.031,0.899,0.427,0.183,0.061,-2.109,-25.983,175.095,-11.807,-6.947,-26.967,31.37,-0.04584,-0.22388,0.02762,-0.97308,331,0.921,-0.099,0.345,-0.183,0.0,-0.061,-16.122,-68.807,-145.118,-30.327,-8.807,-6.727,31.4,0.16888,-0.56848,-0.05701,-0.8031,345
86,0.933,-0.134,0.396,0.0,0.122,0.0,-18.402,-65.918,-175.369,-26.28,-9.473,-14.047,27.38,0.05368,0.54211,-0.11258,0.83093,348,0.586,0.02,0.816,-0.122,-0.183,-0.122,1.478,-35.788,-115.395,-21.073,-5.967,-6.213,26.84,0.51166,-0.25327,-0.17462,-0.80215,346,0.438,-0.039,0.897,0.183,0.122,0.0,-2.109,-25.983,175.117,-11.807,-6.947,-26.967,31.37,-0.04584,-0.22388,0.02762,-0.97308,342,0.92,-0.099,0.345,0.0,0.0,-0.061,-16.122,-68.807,-145.113,-30.327,-8.807,-6.727,31.4,0.16888,-0.56848,-0.05701,-0.8031,352
87,0.932,-0.134,0.396,-0.061,-0.122,0.0,-18.408,-65.923,-175.369,-26.28,-9.473,-14.047,27.38,0.05368,0.54211,-0.11258,0.83093,349,0.584,0.024,0.817,-0.122,-0.427,-0.061,1.472,-35.793,-115.395,-21.073,-5.967,-6.213,26.84,0.51166,-0.25327,-0.17462,-0.80215,347,0.437,-0.035,0.896,-0.122,0.122,-0.122,-2.109,-25.983,175.122,-11.807,-6.947,-26.967,31.37,-0.04584,-0.22388,0.02762,-0.97308,343,0.919,-0.098,0.345,0.0,-0.183,-0.061,-16.122,-68.807,-145.135,-30.327,-8.807,-6.727,31.4,0.16888,-0.56848,-0.05701,-0.8031,353
88,0.93,-0.134,0.396,-0.061,-0.183,0.0,-18.419,-65.923,-175.38,-26.28,-9.473,-14.047,27.38,0.05368,0.54211,-0.11258,0.83093,354,0.583,0.022,0.816,0.0,-0.305,0.0,1.472,-35.799,-115.389,-21.073,-5.967,-6.213,26.84,0.51166,-0.25327,-0.17462,-0.80215,356,0.435,-0.03,0.898,-0.183,0.061,-0.061,-2.115,-25.977,175.139,-11.807,-6.947,-26.967,31.37,-0.04584,-0.22388,0.02762,-0.97308,350,0.918,-0.098,0.346,0.122,-0.183,0.0,-16.122,-68.813,-145.162,-30.327,-8.807,-6.727,31.4,0.16888,-0.56848,-0.05701,-0.8031,358
89,0.93,-0.133,0.397,0.0,-0.305,0.0,-18.424,-65.929,-175.391,-26.28,-9.473,-14.047,27.38,0.05368,0.54211,-0.11258,0.83093,355,0.582,0.019,0.813,0.0,-0.183,0.0,1.472,-35.799,-115.389,-21.073,-5.967,-6.213,26.84,0.51166,-0.25327,-0.17462,-0.80215,357,0.435,-0.031,0.895,0.0,0.122,-0.122,-2.115,-25.977,175.139,-11.807,-6.947,-26.967,31.37,-0.04584,-0.22388,0.02762,-0.97308,351,0.919,-0.098,0.347,0.061,-0.183,0.0,-16.122,-68.813,-145.184,-30.327,-8.807,-6.727,31.4,0.16888,-0.56848,-0.05701,-0.8031,359
90,0.933,-0.133,0.399,0.0,-0.427,0.0,-18.43,-65.934,-175.397,-26.28,-9.473,-14.047,27.38,0.05368,0.54211,-0.11258,0.83093,364,0.584,0.019,0.815,0.0,0.0,0.0,1.472,-35.799,-115.4,-21.073,-5.967,-6.213,26.84,0.51166,-0.25327,-0.17462,-0.80215,370,0.432,-0.034,0.894,0.0,0.122,0.0,-2.115,-25.977,175.161,-11.807,-6.947,-26.967,31.37,-0.04584,-0.22388,0.02762,-0.97308,360,0.922,-0.1,0.347,0.0,-0.244,0.0,-16.122,-68.818,-145.206,-30.327,-8.807,-6.727,31.4,0.16888,-0.56848,-0.05701,-0.8031,366
91,0.934,-0.135,0.4,-0.061,-0.366,0.0,-18.441,-65.94,-175.419,-26.28,-9.473,-14.047,27.38,0.05368,0.54211,-0.11258,0.83093,365,0.586,0.021,0.816,-0.183,0.183,-0.122,1.472,-35.793,-115.411,-21.073,-5.967,-6.213,26.84,0.51166,-0.25327,-0.17462,-0.80215,371,0.435,-0.036,0.892,0.0,-0.061,0.0,-2.115,-25.977,175.182,-11.807,-6.947,-26.967,31.37,-0.04584,-0.22388,0.02762,-0.97308,361,0.923,-0.099,0.347,0.0,-0.183,0.0,-16.122,-68.818,-145.223,-30.327,-8.807,-6.727,31.4,0.16888,-0.56848,-0.05701,-0.8031,367
92,0.934,-0.133,0.399,0.0,-0.183,0.0,-18.446,-65.945,-175.441,-26.28,-9.473,-14.047,27.38,0.05368,0.54211,-0.11258,0.83093,368,0.587,0.023,0.816,-0.183,-0.061,0.0,1.467,-35.793,-115.417,-20.28,-6.367,-6.367,26.84,0.51166,-0.25327,-0.17462,-0.80215,372,0.438,-0.032,0.896,-0.122,0.061,-0.122,-2.115,-25.977,175.193,-11.807,-6.947,-26.967,31.37,-0.04584,-0.22388,0.02762,-0.97308,362,0.922,-0.098,0.346,0.0,-0.061,0.0,-16.122,-68.818,-145.239,-30.327,-8.807,-6.727,31.4,0.16888,-0.56848,-0.05701,-0.8031,376
93,0.932,-0.132,0.397,0.061,-0.122,0.0,-18.452,-65.945,-175.457,-26.28,-9.473,-14.047,27.38,0.05368,0.54211,-0.11258,0.83093,369,0.587,0.022,0.816,-0.122,0.0,0.061,1.461,-35.788,-115.411,-20.28,-6.367,-6.367,26.84,0.51166,-0.25327,-0.17462,-0.80215,373,0.438,-0.029,0.897,-0.244,-0.061,0.0,-2.12,-25.977,175.172,-11.807,-6.947,-26.967,31.37,-0.04584,-0.22388,0.02762,-0.97308,363,0.921,-0.097,0.345,0.0,-0.061,0.0,-16.122,-68.818,-145.283,-30.327,-8.807,-6.727,31.4,0.16888,-0.56848,-0.05701,-0.8031,377
94,0.931,-0.133,0.396,0.122,-0.183,0.0,-18.452,-65.945,-175.452,-26.28,-9.473,-14.047,27.38,0.05368,0.54211,-0.11258,0.83093,380,0.586,0.019,0.816,-0.122,0.061,0.244,1.456,-35.788,-115.411,-20.28,-6.367,-6.367,26.84,0.51166,-0.25327,-0.17462,-0.80215,378,0.438,-0.032,0.896,-0.183,-0.122,0.122,-2.126,-25.977,175.15,-11.807,-6.947,-26.967,31.37,-0.04584,-0.22388,0.02762,-0.97308,374,0.92,-0.098,0.341,0.183,0.0,0.0,-16.117,-68.818,-145.327,-30.327,-8.807,-6.727,31.4,0.16888,-0.56848,-0.05701,-0.8031,382
95,0.931,-0.133,0.395,0.183,-0.122,0.0,-18.452,-65.945,-175.463,-26.28,-9.473,-14.047,27.38,0.05368,0.54211,-0.11258,0.83093,381,0.586,0.02,0.814,-0.122,0.061,0.183,1.45,-35.782,-115.417,-20.28,-6.367,-6.367,26.84,0.51166,-0.25327,-0.17462,-0.80215,379,0.437,-0.034,0.896,-0.305,-0.183,0.244,-2.137,-25.983,175.111,-11.807,-6.947,-26.967,31.37,-0.04584,-0.22388,0.02762,-0.97308,375,0.919,-0.096,0.343,0.183,-0.061,0.0,-16.111,-68.818,-145.366,-30.327,-8.807,-6.727,31.4,0.16888,-0.56848,-0.05701,-0.8031,383
96,0.931,-0.132,0.395,0.183,-0.244,0.0,-18.452,-65.945,-175.463,-26.393,-9.333,-14.547,27.38,0.05368,0.54211,-0.11258,0.83093,386,0.584,0.02,0.812,-0.061,0.366,-0.122,1.45,-35.777,-115.428,-20.28,-6.367,-6.367,26.84,0.51157,-0.2532,-0.17429,-0.80231,384,0.438,-0.034,0.893,-0.366,-0.305,0.244,-2.142,-25.988,175.056,-11.807,-6.947,-26.967,31.37,-0.04584,-0.22388,0.02762,-0.97308,388,0.919,-0.095,0.342,0.122,-0.122,0.0,-16.106,-68.818,-145.399,-29.807,-9.167,-7.3,31.4,0.16888,-0.56848,-0.05701,-0.8031,396
97,0.932,-0.132,0.393,0.0,-0.305,0.0,-18.457,-65.951,-175.468,-26.393,-9.333,-14.547,27.38,0.05368,0.54211,-0.11258,0.83093,387,0.586,0.022,0.815,0.0,0.305,-0.122,1.456,-35.771,-115.417,-20.28,-6.367,-6.367,26.84,0.51157,-0.2532,-0.17429,-0.80231,385,0.437,-0.035,0.893,-0.305,-0.305,0.0,-2.153,-25.994,175.001,-11.807,-6.947,-26.967,31.37,-0.04584,-0.22388,0.02762,-0.97308,389,0.921,-0.098,0.341,0.0,-0.183,0.0,-16.106,-68.824,-145.437,-29.807,-9.167,-7.3,31.4,0.16888,-0.56848,-0.05701,-0.8031,397
98,0.932,-0.135,0.393,-0.183,-0.366,0.0,-18.463,-65.956,-175.468,-26.393,-9.333,-14.547,27.38,0.05368,0.54211,-0.11258,0.83093,394,0.587,0.02,0.814,0.061,0.244,-0.061,1.456,-35.766,-115.4,-20.28,-6.367,-6.367,26.84,0.51157,-0.2532,-0.17429,-0.80231,392,0.438,-0.031,0.894,-0.061,-0.488,0.0,-2.153,-26.005,174.968,-11.973,-6.513,-27.193,31.37,-0.04584,-0.22388,0.02762,-0.97308,390,0.922,-0.1,0.342,-0.122,-0.366,0.0,-16.111,-68.829,-145.475,-29.807,-9.167,-7.3,31.4,0.16888,-0.56848,-0.05701,-0.8031,398
99,0.933,-0.136,0.394,-0.305,-0.427,0.0,-18.474,-65.962,-175.446,-26.393,-9.333,-14.547,27.38,0.05368,0.54211,-0.11258,0.83093,395,0.586,0.02,0.815,0.0,-0.122,0.0,1.456,-35.766,-115.395,-20.28,-6.367,-6.367,26.84,0.51157,-0.2532,-0.17429,-0.80231,393,0.44,-0.033,0.895,0.061,-0.366,0.061,-2.153,-26.01,174.941,-11.973,-6.513,-27.193,31.37,-0.04584,-0.22388,0.02762,-0.97308,391,0.922,-0.1,0.343,-0.183,-0.366,0.0,-16.117,-68.835,-145.503,-29.807,-9.167,-7.3,31.4,0.16888,-0.56848,-0.05701,-0.8031,399
100,0.933,-0.136,0.395,-0.183,-0.427,0.0,-18.49,-65.967,-175.43,-26.393,-9.333,-14.547,27.38,0.05444,0.54221,-0.11322,0.83075,404,0.587,0.019,0.816,-0.183,-0.305,0.0,1.45,-35.771,-115.384,-20.28,-6.367,-6.367,26.84,0.51157,-0.2532,-0.17429,-0.80231,400,0.438,-0.034,0.896,0.061,-0.427,0.0,-2.148,-26.021,174.924,-11.973,-6.513,-27.193,31.37,-0.04584,-0.22388,0.02762,-0.97308,406,0.922,-0.099,0.343,0.0,-0.427,0.0,-16.122,-68.84,-145.519,-29.807,-9.167,-7.3,31.4,0.16663,-0.5687,-0.05557,-0.8035,402
101,0.933,-0.136,0.396,0.0,-0.366,0.0,-18.501,-65.973,-175.397,-26.393,-9.333,-14.547,27.38,0.05444,0.54221,-0.11322,0.83075,405,0.588,0.019,0.814,-0.122,0.0,0.0,1.45,-35.771,-115.378,-20.28,-6.367,-6.367,26.84,0.51157,-0.2532,-0.17429,-0.80231,401,0.44,-0.035,0.895,-0.122,-0.427,0.0,-2.153,-26.032,174.908,-11.973,-6.513,-27.193,31.37,-0.04584,-0.22388,0.02762,-0.97308,407,0.921,-0.099,0.344,0.122,-0.366,0.0,-16.122,-68.851,-145.53,-29.807,-9.167,-7.3,31.4,0.16663,-0.5687,-0.05557,-0.8035,403
102,0.932,-0.136,0.396,0.0,-0.244,0.0,-18.506,-65.978,-175.375,-26.393,-9.333,-14.547,27.38,0.05444,0.54221,-0.11322,0.83075,410,0.587,0.018,0.812,-0.061,0.122,0.0,1.445,-35.766,-115.378,-20.28,-6.367,-6.367,26.84,0.51157,-0.2532,-0.17429,-0.80231,408,0.441,-0.035,0.892,-0.183,-0.305,0.0,-2.159,-26.038,174.919,-11.973,-6.513,-27.193,31.37,-0.04742,-0.22415,0.02829,-0.97293,412,0.921,-0.1,0.343,0.122,-0.183,0.0,-16.122,-68.851,-145.53,-29.807,-9.167,-7.3,31.4,0.16663,-0.5687,-0.05557,-0.8035,414
103,0.932,-0.136,0.396,0.0,-0.061,0.0,-18.512,-65.978,-175.358,-26.393,-9.333,-14.547,27.38,0.05444,0.54221,-0.11322,0.83075,411,0.586,0.018,0.814,-0.061,0.366,0.0,1.445,-35.76,-115.373,-20.28,-6.367,-6.367,26.84,0.51157,-0.2532,-0.17429,-0.80231,409,0.439,-0.035,0.891,-0.244,-0.305,0.0,-2.164,-26.043,174.93,-11.973,-6.513,-27.193,31.37,-0.04742,-0.22415,0.02829,-0.97293,413,0.921,-0.099,0.342,0.061,-0.061,0.0,-16.122,-68.851,-145.536,-29.807,-9.167,-7.3,31.4,0.16663,-0.5687,-0.05557,-0.8035,415
104,0.931,-0.135,0.396,-0.061,0.0,0.0,-18.517,-65.978,-175.342,-26.393,-9.333,-14.547,27.38,0.05444,0.54221,-0.11322,0.83075,416,0.585,0.02,0.812,0.183,0.183,0.0,1.445,-35.755,-115.367,-20.28,-6.367,-6.367,26.84,0.51157,-0.2532,-0.17429,-0.80231,418,0.439,-0.036,0.893,-0.244,-0.244,0.0,-2.164,-26.049,174.952,-11.973,-6.513,-27.193,31.37,-0.04742,-0.22415,0.02829,-0.97293,420,0.92,-0.097,0.344,0.122,0.0,0.0,-16.117,-68.851,-145.563,-29.807,-9.167,-7.3,31.4,0.16663,-0.5687,-0.05557,-0.8035,422
105,0.931,-0.132,0.396,-0.122,0.061,0.0,-18.523,-65.978,-175.336,-26.393,-9.333,-14.547,27.38,0.05444,0.54221,-0.11322,0.83075,417,0.584,0.019,0.815,0.061,0.244,0.0,1.445,-35.75,-115.362,-20.28,-6.367,-6.367,26.84,0.51157,-0.2532,-0.17429,-0.80231,419,0.439,-0.035,0.894,0.0,-0.122,0.0,-2.17,-26.054,174.957,-11.973,-6.513,-27.193,31.37,-0.04742,-0.22415,0.02829,-0.97293,421,0.92,-0.097,0.345,0.061,0.061,0.0,-16.117,-68.851,-145.596,-29.807,-9.167,-7.3,31.4,0.16663,-0.5687,-0.05557,-0.8035,423
106,0.931,-0.134,0.396,-0.061,0.0,0.0,-18.528,-65.973,-175.336,-26.393,-9.333,-14.547,27.38,0.05444,0.54221,-0.11322,0.83075,424,0.586,0.019,0.816,-0.061,0.244,0.0,1.445,-35.744,-115.356,-20.28,-6.367,-6.367,26.84,0.51157,-0.2532,-0.17429,-0.80231,428,0.438,-0.035,0.891,0.183,-0.122,0.0,-2.164,-26.06,174.974,-11.973,-6.513,-27.193,31.37,-0.04742,-0.22415,0.02829,-0.97293,426,0.921,-0.098,0.343,0.0,0.122,0.0,-16.111,-68.846,-145.629,-29.807,-9.167,-7.3,31.4,0.16663,-0.5687,-0.05557,-0.8035,432
107,0.933,-0.134,0.396,0.0,0.0,0.0,-18.534,-65.973,-175.331,-26.393,-9.333,-14.547,27.38,0.05444,0.54221,-0.11322,0.83075,425,0.587,0.019,0.814,0.0,0.183,0.0,1.445,-35.739,-115.356,-20.28,-6.367,-6.367,26.84,0.51157,-0.2532,-0.17429,-0.80231,429,0.437,-0.036,0.893,0.061,-0.061,0.0,-2.164,-26.06,174.99,-11.973,-6.513,-27.193,31.37,-0.04742,-0.22415,0.02829,-0.97293,427,0.922,-0.097,0.343,0.0,0.122,0.0,-16.106,-68.846,-145.657,-29.807,-9.167,-7.3,31.4,0.16663,-0.5687,-0.05557,-0.8035,433
108,0.933,-0.134,0.395,0.122,-0.061,0.0,-18.534,-65.973,-175.331,-26.393,-9.333,-14.547,27.38,0.05444,0.54221,-0.11322,0.83075,434,0.586,0.02,0.815,0.061,0.122,0.0,1.445,-35.739,-115.356,-20.28,-6.367,-6.367,26.84,0.51157,-0.2532,-0.17429,-0.80231,440,0.439,-0.035,0.894,-0.122,0.061,0.0,-2.17,-26.06,174.996,-11.973,-6.513,-27.193,31.37,-0.04742,-0.22415,0.02829,-0.97293,430,0.922,-0.097,0.342,0.183,0.061,0.0,-16.1,-68.84,-145.69,-29.807,-9.167,-7.3,31.4,0.16663,-0.5687,-0.05557,-0.8035,436
109,0.933,-0.134,0.393,0.183,0.0,0.0,-18.534,-65.973,-175.325,-26.393,-9.333,-14.547,27.38,0.05444,0.54221,-0.11322,0.83075,435,0.587,0.02,0.815,0.244,0.0,0.0,1.445,-35.733,-115.356,-20.28,-6.367,-6.367,26.84,0.51157,-0.2532,-0.17429,-0.80231,441,0.44,-0.035,0.894,-0.061,0.183,0.0,-2.17,-26.054,174.985,-11.973,-6.513,-27.193,31.37,-0.04742,-0.22415,0.02829,-0.97293,431,0.922,-0.097,0.341,0.305,0.061,0.0,-16.089,-68.84,-145.717,-29.807,-9.167,-7.3,31.4,0.16663,-0.5687,-0.05557,-0.8035,437
110,0.932,-0.134,0.394,0.061,0.0,0.0,-18.534,-65.973,-175.32,-26.393,-9.333,-14.547,27.38,0.05444,0.54221,-0.11322,0.83075,438,0.585,0.021,0.815,0.366,0.061,0.0,1.45,-35.733,-115.356,-20.46,-6.373,-6.04,26.84,0.51157,-0.2532,-0.17429,-0.80231,444,0.439,-0.034,0.894,0.0,0.061,0.0,-2.17,-26.054,174.974,-11.973,-6.513,-27.193,31.37,-0.04742,-0.22415,0.02829,-0.97293,442,0.921,-0.096,0.342,0.183,0.061,0.0,-16.084,-68.84,-145.75,-29.807,-9.167,-7.3,31.4,0.16663,-0.5687,-0.05557,-0.8035,446
111,0.931,-0.133,0.395,0.061,0.0,0.0,-18.539,-65.967,-175.32,-26.393,-9.333,-14.547,27.38,0.05444,0.54221,-0.11322,0.83075,439,0.584,0.021,0.814,0.305,0.122,0.0,1.456,-35.733,-115.356,-20.46,-6.373,-6.04,26.84,0.51157,-0.2532,-0.17429,-0.80231,445,0.44,-0.034,0.895,0.183,0.0,0.0,-2.17,-26.06,174.968,-11.973,-6.513,-27.193,31.37,-0.04742,-0.22415,0.02829,-0.97293,443,0.921,-0.096,0.342,0.122,0.061,0.0,-16.078,-68.84,-145.778,-29.807,-9.167,-7.3,31.4,0.16663,-0.5687,-0.05557,-0.8035,447
112,0.932,-0.134,0.394,0.0,0.0,0.0,-18.539,-65.967,-175.314,-26.393,-9.333,-14.547,27.38,0.05444,0.54221,-0.11322,0.83075,448,0.585,0.02,0.816,0.244,0.061,0.0,1.461,-35.733,-115.356,-20.46,-6.373,-6.04,26.84,0.51157,-0.2532,-0.17429,-0.80231,452,0.439,-0.033,0.894,0.305,0.0,0.0,-2.164,-26.06,174.957,-11.973,-6.513,-27.193,31.37,-0.04742,-0.22415,0.02829,-0.97293,450,0.921,-0.096,0.342,0.122,0.0,0.0,-16.073,-68.84,-145.805,-30.293,-8.94,-6.787,31.4,0.16663,-0.5687,-0.05557,-0.8035,456
113,0.932,-0.134,0.395,0.0,0.0,0.0,-18.539,-65.967,-175.314,-26.393,-9.333,-14.547,27.38,0.05444,0.54221,-0.11322,0.83075,449,0.584,0.02,0.816,0.122,0.0,0.0,1.467,-35.728,-115.356,-20.46,-6.373,-6.04,26.84,0.51157,-0.2532,-0.17429,-0.80231,453,0.439,-0.033,0.894,0.366,0.0,0.0,-2.153,-26.06,174.946,-11.973,-6.513,-27.193,31.37,-0.04742,-0.22415,0.02829,-0.97293,451,0.921,-0.097,0.343,0.122,0.0,0.0,-16.068,-68.84,-145.833,-30.293,-8.94,-6.787,31.4,0.16663,-0.5687,-0.05557,-0.8035,457
114,0.931,-0.134,0.396,0.0,-0.122,0.0,-18.545,-65.967,-175.309,-26.393,-9.333,-14.547,27.38,0.05444,0.54221,-0.11322,0.83075,460,0.583,0.02,0.815,0.122,0.0,0.0,1.467,-35.728,-115.356,-20.46,-6.373,-6.04,26.84,0.51215,-0.25269,-0.17432,-0.80209,458,0.438,-0.034,0.895,0.305,-0.061,0.0,-2.148,-26.065,174.941,-11.973,-6.513,-27.193,31.37,-0.04742,-0.22415,0.02829,-0.97293,454,0.918,-0.097,0.344,0.061,0.0,0.0,-16.062,-68.84,-145.86,-30.293,-8.94,-6.787,31.4,0.16425,-0.56888,-0.05411,-0.80396,462
115,0.93,-0.135,0.396,0.0,0.0,0.0,-18.55,-65.967,-175.303,-26.393,-9.333,-14.547,27.38,0.05444,0.54221,-0.11322,0.83075,461,0.583,0.021,0.815,0.061,0.122,0.0,1.467,-35.728,-115.356,-20.46,-6.373,-6.04,26.84,0.51215,-0.25269,-0.17432,-0.80209,459,0.438,-0.035,0.895,0.183,-0.122,0.0,-2.148,-26.065,174.93,-11.973,-6.513,-27.193,31.37,-0.04742,-0.22415,0.02829,-0.97293,455,0.92,-0.098,0.344,0.0,0.0,0.0,-16.062,-68.84,-145.887,-30.293,-8.94,-6.787,31.4,0.16425,-0.56888,-0.05411,-0.80396,463
116,0.931,-0.135,0.395,0.0,0.0,0.0,-18.55,-65.967,-175.303,-26.36,-9.093,-14.007,27.38,0.05444,0.54221,-0.11322,0.83075,466,0.584,0.019,0.815,0.061,0.0,0.0,1.467,-35.728,-115.351,-20.46,-6.373,-6.04,26.84,0.51215,-0.25269,-0.17432,-0.80209,464,0.437,-0.034,0.892,0.061,-0.122,0.0,-2.148,-26.071,174.924,-11.973,-6.513,-27.193,31.37,-0.04742,-0.22415,0.02829,-0.97293,468,0.921,-0.098,0.343,0.0,0.0,0.0,-16.057,-68.84,-145.915,-30.293,-8.94,-6.787,31.4,0.16425,-0.56888,-0.05411,-0.80396,470
117,0.933,-0.135,0.395,0.0,0.0,0.0,-18.556,-65.967,-175.298,-26.36,-9.093,-14.007,27.38,0.05444,0.54221,-0.11322,0.83075,467,0.585,0.018,0.815,0.122,-0.122,0.0,1.472,-35.728,-115.351,-20.46,-6.373,-6.04,26.84,0.51215,-0.25269,-0.17432,-0.80209,465,0.437,-0.033,0.892,0.0,-0.061,0.0,-2.148,-26.071,174.913,-11.973,-6.513,-27.193,31.37,-0.04742,-0.22415,0.02829,-0.97293,469,0.922,-0.096,0.344,0.0,0.0,0.0,-16.057,-68.84,-145.942,-30.293,-8.94,-6.787,31.4,0.16425,-0.56888,-0.05411,-0.80396,471
118,0.932,-0.134,0.395,0.0,0.0,0.0,-18.556,-65.967,-175.298,-26.36,-9.093,-14.007,27.38,0.05374,0.54233,-0.1131,0.83072,472,0.586,0.019,0.815,0.0,-0.122,0.0,1.472,-35.728,-115.351,-20.46,-6.373,-6.04,26.84,0.51215,-0.25269,-0.17432,-0.80209,474,0.438,-0.035,0.894,0.0,-0.061,0.0,-2.148,-26.071,174.908,-11.973,-6.513,-27.193,31.37,-0.04742,-0.22415,0.02829,-0.97293,476,0.923,-0.096,0.344,0.0,0.0,0.0,-16.051,-68.84,-145.964,-30.293,-8.94,-6.787,31.4,0.16425,-0.56888,-0.05411,-0.80396,478
119,0.933,-0.133,0.396,0.0,0.0,0.0,-18.561,-65.962,-175.292,-26.36,-9.093,-14.007,27.38,0.05374,0.54233,-0.1131,0.83072,473,0.587,0.02,0.816,0.0,0.0,0.0,1.472,-35.728,-115.351,-20.46,-6.373,-6.04,26.84,0.51215,-0.25269,-0.17432,-0.80209,475,0.439,-0.036,0.894,0.061,-0.061,0.0,-2.148,-26.076,174.897,-11.973,-6.513,-27.193,31.37,-0.04742,-0.22415,0.02829,-0.97293,477,0.921,-0.098,0.343,0.244,0.0,0.0,-16.046,-68.84,-145.992,-30.293,-8.94,-6.787,31.4,0.16425,-0.56888,-0.05411,-0.80396,479
120,0.933,-0.135,0.396,0.0,0.0,0.0,-18.561,-65.962,-175.292,-26.36,-9.093,-14.007,27.38,0.05374,0.54233,-0.1131,0.83072,482,0.583,0.021,0.814,0.244,0.0,0.0,1.472,-35.728,-115.351,-20.46,-6.373,-6.04,26.84,0.51215,-0.25269,-0.17432,-0.80209,480,0.44,-0.036,0.894,-0.061,-0.061,0.0,-2.148,-26.076,174.891,-11.973,-6.513,-27.193,31.37,-0.04742,-0.22415,0.02829,-0.97293,484,0.918,-0.1,0.342,0.183,0.061,0.0,-16.04,-68.84,-146.019,-30.293,-8.94,-6.787,31.4,0.16425,-0.56888,-0.05411,-0.80396,486
121,0.929,-0.137,0.396,0.061,0.0,0.0,-18.567,-65.962,-175.287,-26.36,-9.093,-14.007,27.38,0.05374,0.54233,-0.1131,0.83072,483,0.586,0.019,0.814,0.061,0.305,0.0,1.472,-35.722,-115.351,-20.46,-6.373,-6.04,26.84,0.51215,-0.25269,-0.17432,-0.80209,481,0.441,-0.035,0.893,0.0,-0.061,0.0,-2.148,-26.076,174.88,-11.973,-6.513,-27.193,31.37,-0.04742,-0.22415,0.02829,-0.97293,485,0.923,-0.097,0.342,0.0,0.244,0.0,-16.035,-68.835,-146.047,-30.293,-8.94,-6.787,31.4,0.16425,-0.56888,-0.05411,-0.80396,487
122,0.933,-0.137,0.394,0.061,0.183,0.0,-18.567,-65.956,-175.287,-26.36,-9.093,-14.007,27.38,0.05374,0.54233,-0.1131,0.83072,490,0.587,0.02,0.817,-0.061,0.854,0.0,1.472,-35.717,-115.351,-20.46,-6.373,-6.04,26.84,0.51215,-0.25269,-0.17432,-0.80209,488,0.437,-0.032,0.893,0.183,-0.244,0.0,-2.148,-26.082,174.875,-12.287,-6.673,-27.367,31.37,-0.04742,-0.22415,0.02829,-0.97293,492,0.922,-0.093,0.344,0.0,0.0,0.0,-16.029,-68.829,-146.074,-30.293,-8.94,-6.787,31.4,0.16425,-0.56888,-0.05411,-0.80396,494
123,0.933,-0.131,0.395,0.061,0.122,0.0,-18.567,-65.956,-175.287,-26.36,-9.093,-14.007,27.38,0.05374,0.54233,-0.1131,0.83072,491,0.586,0.023,0.816,0.366,0.183,0.0,1.472,-35.7,-115.351,-20.46,-6.373,-6.04,26.84,0.51215,-0.25269,-0.17432,-0.80209,489,0.441,-0.035,0.888,0.0,-0.244,0.366,-2.153,-26.093,174.875,-12.287,-6.673,-27.367,31.37,-0.04742,-0.22415,0.02829,-0.97293,493,0.922,-0.096,0.342,0.061,0.0,0.0,-16.029,-68.829,-146.096,-30.293,-8.94,-6.787,31.4,0.16425,-0.56888,-0.05411,-0.80396,495
124,0.933,-0.132,0.393,0.244,0.122,0.0,-18.561,-65.951,-175.287,-26.36,-9.093,-14.007,27.38,0.05374,0.54233,-0.1131,0.83072,498,0.585,0.021,0.818,0.366,-0.549,0.0,1.478,-35.7,-115.351,-20.46,-6.373,-6.04,26.84,0.51215,-0.25269,-0.17432,-0.80209,496,0.443,-0.036,0.894,-0.122,0.061,0.122,-2.153,-26.087,174.869,-12.287,-6.673,-27.367,31.37,-0.04742,-0.22415,0.02829,-0.97293,500,0.922,-0.097,0.342,-0.183,-0.122,0.0,-16.024,-68.835,-146.124,-30.293,-8.94,-6.787,31.4,0.16425,-0.56888,-0.05411,-0.80396,502
125,0.933,-0.135,0.393,-0.061,0.061,0.0,-18.561,-65.951,-175.281,-26.36,-9.093,-14.007,27.38,0.05374,0.54233,-0.1131,0.83072,499,0.584,0.017,0.815,0.122,-0.488,0.0,1.483,-35.711,-115.351,-20.46,-6.373,-6.04,26.84,0.51215,-0.25269,-0.17432,-0.80209,497,0.44,-0.031,0.9,0.366,-0.061,0.366,-2.153,-26.093,174.869,-12.287,-6.673,-27.367,31.37,-0.04742,-0.22415,0.02829,-0.97293,501,0.919,-0.098,0.344,-0.061,-0.122,0.0,-16.024,-68.835,-146.146,-30.293,-8.94,-6.787,31.4,0.16425,-0.56888,-0.05411,-0.80396,503
126,0.93,-0.135,0.395,-0.122,0.0,0.0,-18.567,-65.945,-175.281,-26.36,-9.093,-14.007,27.38,0.05374,0.54233,-0.1131,0.83072,504,0.582,0.021,0.813,0.0,-0.366,0.0,1.489,-35.717,-115.351,-20.46,-6.373,-6.04,26.84,0.51215,-0.25269,-0.17432,-0.80209,510,0.438,-0.038,0.892,0.183,-0.244,0.0,-2.148,-26.098,174.869,-12.287,-6.673,-27.367,31.37,-0.04779,-0.2247,0.02835,-0.97281,506,0.918,-0.097,0.344,0.0,-0.061,0.0,-16.024,-68.84,-146.168,-30.26,-9.213,-6.66,31.4,0.16425,-0.56888,-0.05411,-0.80396,508
127,0.929,-0.133,0.395,0.0,-0.122,0.0,-18.572,-65.951,-175.276,-26.36,-9.093,-14.007,27.38,0.05374,0.54233,-0.1131,0.83072,505,0.583,0.022,0.815,0.122,-0.061,0.0,1.489,-35.722,-115.351,-20.46,-6.373,-6.04,26.84,0.51215,-0.25269,-0.17432,-0.80209,511,0.437,-0.032,0.891,0.0,-0.244,0.0,-2.142,-26.104,174.864,-12.287,-6.673,-27.367,31.37,-0.04779,-0.2247,0.02835,-0.97281,507,0.918,-0.097,0.343,0.0,-0.122,0.0,-16.024,-68.84,-146.19,-30.26,-9.213,-6.66,31.4,0.16425,-0.56888,-0.05411,-0.80396,509
128,0.929,-0.134,0.396,0.0,-0.122,0.0,-18.578,-65.951,-175.27,-26.36,-9.093,-14.007,27.38,0.05374,0.54233,-0.1131,0.83072,514,0.584,0.019,0.813,0.061,0.0,0.0,1.489,-35.722,-115.351,-20.473,-6.247,-6.253,26.84,0.51215,-0.25269,-0.17432,-0.80209,512,0.438,-0.032,0.89,0.122,-0.061,0.061,-2.142,-26.109,174.853,-12.287,-6.673,-27.367,31.37,-0.04779,-0.2247,0.02835,-0.97281,516,0.921,-0.098,0.343,0.0,0.0,0.0,-16.024,-68.84,-146.212,-30.26,-9.213,-6.66,31.4,0.16425,-0.56888,-0.05411,-0.80396,518
129,0.931,-0.135,0.395,0.0,-0.061,0.0,-18.583,-65.951,-175.27,-26.36,-9.093,-14.007,27.38,0.05374,0.54233,-0.1131,0.83072,515,0.584,0.019,0.815,0.0,-0.061,0.0,1.489,-35.722,-115.345,-20.473,-6.247,-6.253,26.84,0.51215,-0.25269,-0.17432,-0.80209,513,0.438,-0.035,0.892,0.061,0.061,0.061,-2.142,-26.109,174.847,-12.287,-6.673,-27.367,31.37,-0.04779,-0.2247,0.02835,-0.97281,517,0.923,-0.098,0.346,0.061,0.0,0.0,-16.018,-68.84,-146.234,-30.26,-9.213,-6.66,31.4,0.16425,-0.56888,-0.05411,-0.80396,519
130,0.934,-0.135,0.398,0.0,0.0,0.0,-18.583,-65.951,-175.265,-26.36,-9.093,-14.007,27.38,0.05374,0.54233,-0.1131,0.83072,520,0.588,0.02,0.817,0.0,-0.061,0.0,1.489,-35.722,-115.345,-20.473,-6.247,-6.253,26.84,0.51215,-0.25269,-0.17432,-0.80209,524,0.439,-0.036,0.893,-0.061,0.0,0.0,-2.142,-26.109,174.842,-12.287,-6.673,-27.367,31.37,-0.04779,-0.2247,0.02835,-0.97281,522,0.924,-0.097,0.345,0.0,0.0,0.0,-16.013,-68.84,-146.255,-30.26,-9.213,-6.66,31.4,0.1619,-0.569,-0.05258,-0.80447,528
131,0.935,-0.134,0.397,0.061,0.0,0.0,-18.589,-65.951,-175.265,-26.36,-9.093,-14.007,27.38,0.05374,0.54233,-0.1131,0.83072,521,0.587,0.021,0.817,0.061,-0.183,0.0,1.489,-35.722,-115.345,-20.473,-6.247,-6.253,26.84,0.51215,-0.25269,-0.17432,-0.80209,525,0.441,-0.035,0.895,0.0,0.0,0.0,-2.148,-26.109,174.836,-12.287,-6.673,-27.367,31.37,-0.04779,-0.2247,0.02835,-0.97281,523,0.923,-0.096,0.343,0.061,0.0,0.0,-16.013,-68.84,-146.277,-30.26,-9.213,-6.66,31.4,0.1619,-0.569,-0.05258,-0.80447,529
132,0.933,-0.134,0.396,0.183,0.061,0.0,-18.583,-65.945,-175.259,-26.36,-9.093,-14.007,27.38,0.05374,0.54233,-0.1131,0.83072,530,0.586,0.02,0.816,0.061,-0.183,0.0,1.489,-35.728,-115.345,-20.473,-6.247,-6.253,26.84,0.51224,-0.25256,-0.17444,-0.80206,532,0.441,-0.034,0.896,0.061,0.061,0.0,-2.148,-26.109,174.831,-12.287,-6.673,-27.367,31.37,-0.04779,-0.2247,0.02835,-0.97281,526,0.92,-0.097,0.343,0.0,0.0,0.0,-16.007,-68.84,-146.299,-30.26,-9.213,-6.66,31.4,0.1619,-0.569,-0.05258,-0.80447,536
133,0.931,-0.134,0.395,0.183,0.0,0.0,-18.583,-65.945,-175.259,-26.36,-9.093,-14.007,27.38,0.05374,0.54233,-0.1131,0.83072,531,0.584,0.02,0.815,0.0,-0.244,0.0,1.489,-35.728,-115.345,-20.473,-6.247,-6.253,26.84,0.51224,-0.25256,-0.17444,-0.80206,533,0.441,-0.034,0.895,0.0,0.0,0.0,-2.148,-26.109,174.82,-12.287,-6.673,-27.367,31.37,-0.04779,-0.2247,0.02835,-0.97281,527,0.919,-0.097,0.341,0.0,0.0,0.0,-16.007,-68.84,-146.321,-30.26,-9.213,-6.66,31.4,0.1619,-0.569,-0.05258,-0.80447,537
134,0.931,-0.134,0.393,0.122,0.061,0.0,-18.583,-65.945,-175.259,-26.427,-9.28,-14.273,27.38,0.05374,0.54233,-0.1131,0.83072,544,0.585,0.02,0.813,-0.183,-0.305,0.0,1.483,-35.733,-115.345,-20.473,-6.247,-6.253,26.84,0.51224,-0.25256,-0.17444,-0.80206,538,0.439,-0.035,0.894,0.061,0.0,0.0,-2.148,-26.115,174.814,-12.287,-6.673,-27.367,31.37,-0.04779,-0.2247,0.02835,-0.97281,534,0.92,-0.097,0.341,-0.061,0.061,0.0,-16.002,-68.84,-146.343,-30.26,-9.213,-6.66,31.4,0.1619,-0.569,-0.05258,-0.80447,540
135,0.931,-0.135,0.394,0.0,0.0,0.0,-18.583,-65.94,-175.254,-26.427,-9.28,-14.273,27.38,0.05374,0.54233,-0.1131,0.83072,545,0.585,0.021,0.812,-0.366,-0.061,0.0,1.478,-35.739,-115.345,-20.473,-6.247,-6.253,26.84,0.51224,-0.25256,-0.17444,-0.80206,539,0.44,-0.035,0.89,-0.183,0.0,-0.183,-2.148,-26.115,174.809,-12.287,-6.673,-27.367,31.37,-0.04779,-0.2247,0.02835,-0.97281,535,0.921,-0.096,0.342,0.0,0.061,0.0,-16.002,-68.835,-146.365,-30.26,-9.213,-6.66,31.4,0.1619,-0.569,-0.05258,-0.80447,541
136,0.932,-0.133,0.394,0.0,0.0,0.0,-18.589,-65.94,-175.254,-26.427,-9.28,-14.273,27.38,0.05356,0.54221,-0.11313,0.83081,546,0.587,0.023,0.813,-0.183,-0.122,0.0,1.472,-35.739,-115.345,-20.473,-6.247,-6.253,26.84,0.51224,-0.25256,-0.17444,-0.80206,548,0.441,-0.033,0.891,-0.305,0.122,-0.305,-2.153,-26.115,174.798,-12.287,-6.673,-27.367,31.37,-0.04779,-0.2247,0.02835,-0.97281,542,0.922,-0.095,0.341,0.0,0.122,0.0,-15.996,-68.835,-146.387,-30.26,-9.213,-6.66,31.4,0.1619,-0.569,-0.05258,-0.80447,550
137,0.933,-0.133,0.394,0.061,-0.061,0.0,-18.589,-65.94,-175.248,-26.427,-9.28,-14.273,27.38,0.05356,0.54221,-0.11313,0.83081,547,0.586,0.021,0.814,-0.061,-0.061,0.0,1.472,-35.739,-115.345,-20.473,-6.247,-6.253,26.84,0.51224,-0.25256,-0.17444,-0.80206,549,0.441,-0.03,0.892,-0.183,0.061,0.0,-2.153,-26.115,174.787,-12.287,-6.673,-27.367,31.37,-0.04779,-0.2247,0.02835,-0.97281,543,0.922,-0.096,0.343,0.0,0.061,0.0,-15.991,-68.835,-146.409,-30.26,-9.213,-6.66,31.4,0.1619,-0.569,-0.05258,-0.80447,551
138,0.933,-0.134,0.396,0.122,0.0,0.0,-18.589,-65.94,-175.248,-26.427,-9.28,-14.273,27.38,0.05356,0.54221,-0.11313,0.83081,552,0.587,0.018,0.816,-0.183,-0.305,0.0,1.467,-35.744,-115.345,-20.473,-6.247,-6.253,26.84,0.51224,-0.25256,-0.17444,-0.80206,554,0.439,-0.034,0.893,-0.122,0.122,0.061,-2.159,-26.115,174.776,-12.287,-6.673,-27.367,31.37,-0.04779,-0.2247,0.02835,-0.97281,556,0.922,-0.098,0.344,0.0,0.0,0.0,-15.985,-68.835,-146.431,-30.26,-9.213,-6.66,31.4,0.1619,-0.569,-0.05258,-0.80447,558
139,0.933,-0.134,0.395,0.0,0.0,0.0,-18.589,-65.94,-175.243,-26.427,-9.28,-14.273,27.38,0.05356,0.54221,-0.11313,0.83081,553,0.585,0.018,0.817,-0.244,-0.366,0.0,1.467,-35.75,-115.345,-20.473,-6.247,-6.253,26.84,0.51224,-0.25256,-0.17444,-0.80206,555,0.44,-0.038,0.895,-0.244,0.061,-0.122,-2.164,-26.115,174.771,-12.287,-6.673,-27.367,31.37,-0.04779,-0.2247,0.02835,-0.97281,557,0.921,-0.098,0.345,-0.061,0.0,0.0,-15.985,-68.835,-146.453,-30.26,-9.213,-6.66,31.4,0.1619,-0.569,-0.05258,-0.80447,559
140,0.932,-0.135,0.398,0.0,0.0,0.0,-18.594,-65.94,-175.243,-26.427,-9.28,-14.273,27.38,0.05356,0.54221,-0.11313,0.83081,560,0.585,0.022,0.815,-0.305,-0.366,0.0,1.456,-35.755,-115.345,-20.473,-6.247,-6.253,26.84,0.51224,-0.25256,-0.17444,-0.80206,562,0.439,-0.037,0.896,-0.366,0.061,-0.244,-2.164,-26.115,174.765,-11.867,-6.853,-26.5,31.37,-0.04779,-0.2247,0.02835,-0.97281,566,0.92,-0.098,0.346,0.0,0.0,0.0,-15.985,-68.835,-146.47,-30.26,-9.213,-6.66,31.4,0.1619,-0.569,-0.05258,-0.80447,564
141,0.931,-0.135,0.397,0.061,0.061,0.0,-18.594,-65.94,-175.243,-26.427,-9.28,-14.273,27.38,0.05356,0.54221,-0.11313,0.83081,561,0.584,0.02,0.814,0.0,-0.366,0.0,1.456,-35.766,-115.345,-20.473,-6.247,-6.253,26.84,0.51224,-0.25256,-0.17444,-0.80206,563,0.438,-0.032,0.894,-0.305,0.183,-0.244,-2.17,-26.115,174.749,-11.867,-6.853,-26.5,31.37,-0.04779,-0.2247,0.02835,-0.97281,567,0.919,-0.099,0.345,0.122,0.061,0.0,-15.98,-68.835,-146.492,-30.26,-9.213,-6.66,31.4,0.1619,-0.569,-0.05258,-0.80447,565
142,0.93,-0.136,0.397,0.183,0.061,0.0,-18.594,-65.934,-175.243,-26.427,-9.28,-14.273,27.38,0.05356,0.54221,-0.11313,0.83081,570,0.584,0.019,0.814,0.183,-0.244,0.0,1.456,-35.766,-115.345,-20.473,-6.247,-6.253,26.84,0.51224,-0.25256,-0.17444,-0.80206,568,0.438,-0.033,0.892,0.0,0.0,-0.061,-2.175,-26.109,174.738,-11.867,-6.853,-26.5,31.37,-0.04779,-0.2247,0.02835,-0.97281,576,0.92,-0.097,0.344,0.183,0.122,0.0,-15.974,-68.829,-146.514,-30.1,-9.167,-6.667,31.4,0.1619,-0.569,-0.05258,-0.80447,572
143,0.931,-0.135,0.396,0.244,0.061,0.0,-18.589,-65.934,-175.237,-26.427,-9.28,-14.273,27.38,0.05356,0.54221,-0.11313,0.83081,571,0.584,0.02,0.815,0.244,-0.244,0.0,1.461,-35.771,-115.345,-20.473,-6.247,-6.253,26.84,0.51224,-0.25256,-0.17444,-0.80206,569,0.438,-0.035,0.893,0.244,-0.061,0.061,-2.175,-26.115,174.732,-11.867,-6.853,-26.5,31.37,-0.04779,-0.2247,0.02835,-0.97281,577,0.92,-0.096,0.344,0.183,0.061,0.0,-15.963,-68.829,-146.53,-30.1,-9.167,-6.667,31.4,0.1619,-0.569,-0.05258,-0.80447,573
144,0.932,-0.133,0.396,0.244,0.0,0.0,-18.589,-65.934,-175.237,-26.427,-9.28,-14.273,27.38,0.05356,0.54221,-0.11313,0.83081,574,0.585,0.02,0.814,0.305,-0.183,0.0,1.467,-35.777,-115.345,-20.473,-6.247,-6.253,26.84,0.51224,-0.25256,-0.17444,-0.80206,578,0.439,-0.035,0.893,0.244,0.0,0.061,-2.17,-26.115,174.727,-11.867,-6.853,-26.5,31.37,-0.04901,-0.22479,0.02884,-0.97269,580,0.921,-0.097,0.344,0.183,0.122,0.0,-15.958,-68.824,-146.552,-30.1,-9.167,-6.667,31.4,0.15991,-0.56894,-0.05133,-0.80496,582
145,0.931,-0.134,0.396,0.183,0.0,0.0,-18.583,-65.929,-175.237,-26.427,-9.28,-14.273,27.38,0.05356,0.54221,-0.11313,0.83081,575,0.586,0.019,0.814,0.305,-0.183,0.0,1.472,-35.777,-115.345,-20.473,-6.247,-6.253,26.84,0.51224,-0.25256,-0.17444,-0.80206,579,0.438,-0.035,0.893,0.305,0.0,0.122,-2.164,-26.115,174.727,-11.867,-6.853,-26.5,31.37,-0.04901,-0.22479,0.02884,-0.97269,581,0.921,-0.097,0.344,0.0,0.0,0.0,-15.952,-68.824,-146.574,-30.1,-9.167,-6.667,31.4,0.15991,-0.56894,-0.05133,-0.80496,583
146,0.932,-0.134,0.396,0.061,-0.061,0.0,-18.583,-65.929,-175.232,-26.427,-9.28,-14.273,27.38,0.05356,0.54221,-0.11313,0.83081,586,0.587,0.019,0.815,0.305,-0.122,0.0,1.478,-35.782,-115.345,-20.367,-6.4,-6.02,26.84,0.51224,-0.25256,-0.17444,-0.80206,584,0.439,-0.036,0.893,0.305,-0.061,0.122,-2.159,-26.115,174.721,-11.867,-6.853,-26.5,31.37,-0.04901,-0.22479,0.02884,-0.97269,588,0.921,-0.097,0.344,0.0,0.0,0.0,-15.952,-68.824,-146.591,-30.1,-9.167,-6.667,31.4,0.15991,-0.56894,-0.05133,-0.80496,590
147,0.932,-0.134,0.395,0.061,-0.061,0.0,-18.589,-65.929,-175.232,-26.427,-9.28,-14.273,27.38,0.05356,0.54221,-0.11313,0.83081,587,0.587,0.02,0.814,0.305,-0.061,0.0,1.483,-35.782,-115.345,-20.367,-6.4,-6.02,26.84,0.51224,-0.25256,-0.17444,-0.80206,585,0.441,-0.035,0.892,0.305,0.0,0.061,-2.159,-26.115,174.716,-11.867,-6.853,-26.5,31.37,-0.04901,-0.22479,0.02884,-0.97269,589,0.921,-0.097,0.343,0.0,0.0,0.0,-15.952,-68.824,-146.613,-30.1,-9.167,-6.667,31.4,0.15991,-0.56894,-0.05133,-0.80496,591
148,0.933,-0.134,0.396,0.122,-0.061,0.0,-18.589,-65.929,-175.226,-26.427,-9.28,-14.273,27.38,0.05356,0.54221,-0.11313,0.83081,594,0.588,0.021,0.814,0.244,-0.061,0.0,1.483,-35.782,-115.345,-20.367,-6.4,-6.02,26.84,0.51224,-0.25256,-0.17444,-0.80206,600,0.44,-0.035,0.893,0.244,0.0,0.061,-2.153,-26.12,174.716,-11.867,-6.853,-26.5,31.37,-0.04901,-0.22479,0.02884,-0.97269,592,0.921,-0.097,0.343,0.061,0.122,0.0,-15.947,-68.818,-146.629,-30.1,-9.167,-6.667,31.4,0.15991,-0.56894,-0.05133,-0.80496,596
149,0.933,-0.134,0.395,0.183,-0.122,0.0,-18.589,-65.929,-175.221,-26.427,-9.28,-14.273,27.38,0.05356,0.54221,-0.11313,0.83081,595,0.587,0.022,0.814,0.183,-0.244,0.0,1.489,-35.782,-115.345,-20.367,-6.4,-6.02,26.84,0.51224,-0.25256,-0.17444,-0.80206,601,0.441,-0.034,0.894,0.244,0.0,0.061,-2.148,-26.12,174.71,-11.867,-6.853,-26.5,31.37,-0.04901,-0.22479,0.02884,-0.97269,593,0.922,-0.097,0.343,0.061,0.122,0.0,-15.941,-68.818,-146.651,-30.1,-9.167,-6.667,31.4,0.15991,-0.56894,-0.05133,-0.80496,597
150,0.933,-0.134,0.396,0.244,0.0,0.0,-18.589,-65.929,-175.221,-26.48,-9.213,-14.267,27.38,0.05356,0.54221,-0.11313,0.83081,598,0.587,0.021,0.815,0.061,-0.244,0.0,1.489,-35.788,-115.345,-20.367,-6.4,-6.02,26.84,0.51218,-0.25296,-0.17471,-0.80188,604,0.44,-0.033,0.894,0.244,-0.061,0.061,-2.148,-26.12,174.705,-11.867,-6.853,-26.5,31.37,-0.04901,-0.22479,0.02884,-0.97269,602,0.92,-0.097,0.344,0.0,0.122,0.0,-15.936,-68.813,-146.667,-30.1,-9.167,-6.667,31.4,0.15991,-0.56894,-0.05133,-0.80496,606
151,0.933,-0.134,0.396,0.183,0.0,0.0,-18.583,-65.929,-175.221,-26.48,-9.213,-14.267,27.38,0.05356,0.54221,-0.11313,0.83081,599,0.587,0.02,0.814,-0.061,-0.122,0.0,1.489,-35.788,-115.345,-20.367,-6.4,-6.02,26.84,0.51218,-0.25296,-0.17471,-0.80188,605,0.441,-0.035,0.893,0.061,0.0,-0.061,-2.142,-26.12,174.699,-11.867,-6.853,-26.5,31.37,-0.04901,-0.22479,0.02884,-0.97269,603,0.92,-0.098,0.344,-0.061,0.122,0.0,-15.936,-68.813,-146.689,-30.1,-9.167,-6.667,31.4,0.15991,-0.56894,-0.05133,-0.80496,607
152,0.932,-0.134,0.396,0.061,0.0,0.0,-18.583,-65.929,-175.215,-26.48,-9.213,-14.267,27.38,0.05356,0.54221,-0.11313,0.83081,608,0.585,0.021,0.813,0.0,0.0,0.0,1.489,-35.793,-115.34,-20.367,-6.4,-6.02,26.84,0.51218,-0.25296,-0.17471,-0.80188,612,0.44,-0.034,0.892,-0.061,0.0,-0.122,-2.142,-26.12,174.694,-11.867,-6.853,-26.5,31.37,-0.04901,-0.22479,0.02884,-0.97269,610,0.919,-0.097,0.344,-0.061,0.122,0.0,-15.93,-68.813,-146.706,-30.1,-9.167,-6.667,31.4,0.15991,-0.56894,-0.05133,-0.80496,614
153,0.93,-0.134,0.396,0.061,0.0,0.0,-18.583,-65.929,-175.215,-26.48,-9.213,-14.267,27.38,0.05356,0.54221,-0.11313,0.83081,609,0.586,0.021,0.814,0.061,0.0,0.0,1.489,-35.793,-115.34,-20.367,-6.4,-6.02,26.84,0.51218,-0.25296,-0.17471,-0.80188,613,0.438,-0.033,0.893,0.0,0.0,0.0,-2.142,-26.125,174.688,-11.867,-6.853,-26.5,31.37,-0.04901,-0.22479,0.02884,-0.97269,611,0.92,-0.098,0.345,0.0,0.183,0.0,-15.93,-68.807,-146.728,-30.1,-9.167,-6.667,31.4,0.15991,-0.56894,-0.05133,-0.80496,615
154,0.931,-0.134,0.396,0.183,0.0,0.0,-18.583,-65.929,-175.21,-26.48,-9.213,-14.267,27.38,0.05322,0.54214,-0.11295,0.8309,618,0.585,0.02,0.814,0.061,0.0,0.0,1.489,-35.793,-115.34,-20.367,-6.4,-6.02,26.84,0.51218,-0.25296,-0.17471,-0.80188,620,0.438,-0.034,0.893,0.0,0.0,0.0,-2.142,-26.125,174.683,-11.867,-6.853,-26.5,31.37,-0.04901,-0.22479,0.02884,-0.97269,616,0.919,-0.097,0.344,0.0,0.183,0.0,-15.925,-68.802,-146.744,-30.1,-9.167,-6.667,31.4,0.15991,-0.56894,-0.05133,-0.80496,624
155,0.931,-0.134,0.396,0.244,0.0,0.0,-18.578,-65.923,-175.21,-26.48,-9.213,-14.267,27.38,0.05322,0.54214,-0.11295,0.8309,619,0.585,0.02,0.814,0.122,0.0,0.0,1.489,-35.788,-115.34,-20.367,-6.4,-6.02,26.84,0.51218,-0.25296,-0.17471,-0.80188,621,0.438,-0.035,0.893,0.122,0.0,0.0,-2.142,-26.125,174.677,-11.867,-6.853,-26.5,31.37,-0.04901,-0.22479,0.02884,-0.97269,617,0.92,-0.096,0.345,0.122,0.183,0.0,-15.919,-68.796,-146.766,-30.1,-9.167,-6.667,31.4,0.15991,-0.56894,-0.05133,-0.80496,625
156,0.932,-0.133,0.396,0.366,0.0,0.0,-18.578,-65.923,-175.21,-26.48,-9.213,-14.267,27.38,0.05322,0.54214,-0.11295,0.8309,628,0.586,0.022,0.815,0.122,0.0,0.0,1.494,-35.788,-115.34,-20.367,-6.4,-6.02,26.84,0.51218,-0.25296,-0.17471,-0.80188,626,0.439,-0.035,0.893,0.183,0.122,-0.061,-2.142,-26.125,174.672,-11.867,-6.853,-26.5,31.37,-0.04901,-0.22479,0.02884,-0.97269,622,0.921,-0.097,0.346,0.061,0.122,0.0,-15.914,-68.796,-146.783,-30.387,-9.067,-7.167,31.4,0.15991,-0.56894,-0.05133,-0.80496,630
157,0.933,-0.134,0.398,0.183,-0.061,0.0,-18.572,-65.923,-175.204,-26.48,-9.213,-14.267,27.38,0.05322,0.54214,-0.11295,0.8309,629,0.588,0.022,0.816,0.122,-0.183,0.0,1.494,-35.788,-115.34,-20.367,-6.4,-6.02,26.84,0.51218,-0.25296,-0.17471,-0.80188,627,0.439,-0.032,0.895,0.183,0.183,-0.061,-2.137,-26.125,174.661,-11.867,-6.853,-26.5,31.37,-0.04901,-0.22479,0.02884,-0.97269,623,0.922,-0.098,0.345,0.0,0.183,0.0,-15.908,-68.791,-146.805,-30.387,-9.067,-7.167,31.4,0.15991,-0.56894,-0.05133,-0.80496,631
158,0.933,-0.135,0.397,0.122,0.0,0.0,-18.572,-65.923,-175.204,-26.48,-9.213,-14.267,27.38,0.05322,0.54214,-0.11295,0.8309,632,0.587,0.021,0.814,0.183,-0.183,0.0,1.494,-35.793,-115.34,-20.367,-6.4,-6.02,26.84,0.51218,-0.25296,-0.17471,-0.80188,634,0.441,-0.032,0.895,0.244,0.183,-0.183,-2.137,-26.12,174.655,-11.867,-6.853,-26.5,31.37,-0.04901,-0.22479,0.02884,-0.97269,642,0.921,-0.097,0.343,-0.061,0.244,0.0,-15.903,-68.785,-146.821,-30.387,-9.067,-7.167,31.4,0.15991,-0.56894,-0.05133,-0.80496,636
159,0.933,-0.133,0.395,0.183,0.061,0.0,-18.567,-65.923,-175.204,-26.48,-9.213,-14.267,27.38,0.05322,0.54214,-0.11295,0.8309,633,0.587,0.021,0.813,0.061,-0.122,0.0,1.5,-35.793,-115.34,-20.367,-6.4,-6.02,26.84,0.51218,-0.25296,-0.17471,-0.80188,635,0.44,-0.033,0.893,0.244,0.183,0.0,-2.131,-26.12,174.65,-11.867,-6.853,-26.5,31.37,-0.04901,-0.22479,0.02884,-0.97269,643,0.922,-0.096,0.344,-0.061,0.183,0.0,-15.903,-68.78,-146.843,-30.387,-9.067,-7.167,31.4,0.15991,-0.56894,-0.05133,-0.80496,637
160,0.933,-0.133,0.396,0.122,0.061,0.0,-18.567,-65.918,-175.204,-26.48,-9.213,-14.267,27.38,0.05322,0.54214,-0.11295,0.8309,640,0.589,0.021,0.815,0.0,0.061,0.0,1.5,-35.793,-115.34,-20.367,-6.4,-6.02,26.84,0.51218,-0.25296,-0.17471,-0.80188,638,0.441,-0.034,0.892,0.0,0.061,0.061,-2.126,-26.115,174.644,-11.933,-6.767,-26.373,31.37,-0.04901,-0.22479,0.02884,-0.97269,644,0.922,-0.096,0.345,0.122,0.183,0.0,-15.892,-68.78,-146.86,-30.387,-9.067,-7.167,31.4,0.15833,-0.56873,-0.05023,-0.80551,646
161,0.932,-0.133,0.396,0.122,0.061,0.0,-18.567,-65.918,-175.199,-26.48,-9.213,-14.267,27.38,0.05322,0.54214,-0.11295,0.8309,641,0.586,0.02,0.813,0.183,0.0,0.0,1.5,-35.793,-115.34,-20.367,-6.4,-6.02,26.84,0.51218,-0.25296,-0.17471,-0.80188,639,0.442,-0.033,0.894,0.0,0.122,-0.122,-2.126,-26.115,174.639,-11.933,-6.767,-26.373,31.37,-0.04901,-0.22479,0.02884,-0.97269,645,0.918,-0.1,0.344,0.183,0.305,0.0,-15.886,-68.774,-146.882,-30.387,-9.067,-7.167,31.4,0.15833,-0.56873,-0.05023,-0.80551,647
162,0.93,-0.136,0.397,0.244,0.122,0.0,-18.561,-65.912,-175.199,-26.48,-9.213,-14.267,27.38,0.05322,0.54214,-0.11295,0.8309,650,0.588,0.018,0.812,0.0,0.183,0.0,1.5,-35.793,-115.34,-20.367,-6.4,-6.02,26.84,0.51218,-0.25296,-0.17471,-0.80188,652,0.438,-0.033,0.892,0.305,0.0,0.0,-2.126,-26.115,174.633,-11.933,-6.767,-26.373,31.37,-0.04901,-0.22479,0.02884,-0.97269,648,0.921,-0.098,0.344,0.0,0.549,0.0,-15.875,-68.763,-146.904,-30.387,-9.067,-7.167,31.4,0.15833,-0.56873,-0.05023,-0.80551,654
163,0.933,-0.135,0.396,0.244,0.305,0.0,-18.556,-65.907,-175.204,-26.48,-9.213,-14.267,27.38,0.05322,0.54214,-0.11295,0.8309,651,0.587,0.021,0.814,-0.061,0.854,0.0,1.5,-35.782,-115.34,-20.367,-6.4,-6.02,26.84,0.51218,-0.25296,-0.17471,-0.80188,653,0.442,-0.037,0.887,0.0,0.305,0.0,-2.12,-26.115,174.628,-11.933,-6.767,-26.373,31.37,-0.04901,-0.22479,0.02884,-0.97269,649,0.921,-0.096,0.347,-0.061,0.366,0.0,-15.87,-68.752,-146.926,-30.387,-9.067,-7.167,31.4,0.15833,-0.56873,-0.05023,-0.80551,655
164,0.932,-0.133,0.397,0.244,0.183,0.0,-18.545,-65.901,-175.204,-26.48,-9.213,-14.267,27.38,0.05322,0.54214,-0.11295,0.8309,656,0.587,0.023,0.815,0.244,0.366,0.0,1.5,-35.771,-115.34,-20.367,-6.4,-6.02,26.84,0.51218,-0.25296,-0.17471,-0.80188,660,0.441,-0.033,0.893,0.0,0.671,0.0,-2.12,-26.109,174.622,-11.933,-6.767,-26.373,31.37,-0.04901,-0.22479,0.02884,-0.97269,658,0.921,-0.098,0.345,0.183,0.366,0.0,-15.864,-68.747,-146.948,-30.387,-9.067,-7.167,31.4,0.15833,-0.56873,-0.05023,-0.80551,664
165,0.932,-0.135,0.396,0.305,0.183,0.0,-18.539,-65.896,-175.204,-26.48,-9.213,-14.267,27.38,0.05322,0.54214,-0.11295,0.8309,657,0.587,0.018,0.817,0.183,0.0,0.0,1.505,-35.766,-115.34,-20.367,-6.4,-6.02,26.84,0.51218,-0.25296,-0.17471,-0.80188,661,0.44,-0.031,0.898,0.427,0.427,0.0,-2.12,-26.098,174.617,-11.933,-6.767,-26.373,31.37,-0.04901,-0.22479,0.02884,-0.97269,659,0.921,-0.099,0.344,-0.183,0.305,0.0,-15.859,-68.741,-146.964,-30.387,-9.067,-7.167,31.4,0.15833,-0.56873,-0.05023,-0.80551,665
166,0.933,-0.135,0.397,0.122,0.366,0.0,-18.534,-65.891,-175.21,-26.48,-9.213,-14.267,27.38,0.05322,0.54214,-0.11295,0.8309,668,0.585,0.019,0.814,0.061,-0.061,0.0,1.505,-35.766,-115.34,-20.18,-6.24,-6.033,26.84,0.51218,-0.25296,-0.17471,-0.80188,666,0.439,-0.039,0.896,0.244,0.366,0.0,-2.115,-26.093,174.611,-11.933,-6.767,-26.373,31.37,-0.04987,-0.22467,0.02863,-0.97269,662,0.919,-0.097,0.346,-0.305,0.305,0.0,-15.859,-68.736,-146.986,-30.387,-9.067,-7.167,31.4,0.15833,-0.56873,-0.05023,-0.80551,670
167,0.931,-0.134,0.396,0.0,0.183,0.0,-18.534,-65.885,-175.21,-26.48,-9.213,-14.267,27.38,0.05322,0.54214,-0.11295,0.8309,669,0.584,0.023,0.815,0.061,-0.122,0.0,1.505,-35.771,-115.34,-20.18,-6.24,-6.033,26.84,0.51218,-0.25296,-0.17471,-0.80188,667,0.438,-0.034,0.893,0.0,0.427,0.0,-2.109,-26.087,174.606,-11.933,-6.767,-26.373,31.37,-0.04987,-0.22467,0.02863,-0.97269,663,0.917,-0.097,0.344,0.0,0.244,0.0,-15.859,-68.73,-147.003,-30.387,-9.067,-7.167,31.4,0.15833,-0.56873,-0.05023,-0.80551,671
168,0.93,-0.133,0.395,0.122,0.061,0.0,-18.534,-65.885,-175.21,-26.747,-9.373,-14.373,27.38,0.05322,0.54214,-0.11295,0.8309,674,0.584,0.022,0.816,0.122,-0.183,0.0,1.511,-35.771,-115.34,-20.18,-6.24,-6.033,26.84,0.51218,-0.25296,-0.17471,-0.80188,676,0.436,-0.031,0.895,0.061,0.366,0.0,-2.109,-26.076,174.6,-11.933,-6.767,-26.373,31.37,-0.04987,-0.22467,0.02863,-0.97269,672,0.919,-0.097,0.345,-0.061,0.183,0.0,-15.853,-68.725,-147.019,-30.387,-9.067,-7.167,31.4,0.15833,-0.56873,-0.05023,-0.80551,680
169,0.931,-0.134,0.396,0.122,0.183,0.0,-18.528,-65.88,-175.21,-26.747,-9.373,-14.373,27.38,0.05322,0.54214,-0.11295,0.8309,675,0.585,0.021,0.814,0.183,-0.305,0.0,1.511,-35.777,-115.34,-20.18,-6.24,-6.033,26.84,0.51218,-0.25296,-0.17471,-0.80188,677,0.437,-0.032,0.896,0.183,0.488,0.0,-2.109,-26.071,174.6,-11.933,-6.767,-26.373,31.37,-0.04987,-0.22467,0.02863,-0.97269,673,0.919,-0.097,0.346,0.0,0.183,0.0,-15.848,-68.725,-147.036,-30.387,-9.067,-7.167,31.4,0.15833,-0.56873,-0.05023,-0.80551,681
170,0.931,-0.133,0.396,0.061,0.061,0.0,-18.528,-65.88,-175.21,-26.747,-9.373,-14.373,27.38,0.05322,0.54214,-0.11295,0.8309,682,0.584,0.021,0.814,0.183,-0.244,0.0,1.516,-35.782,-115.34,-20.18,-6.24,-6.033,26.84,0.5123,-0.25281,-0.1749,-0.80185,684,0.438,-0.033,0.893,0.305,0.427,0.0,-2.104,-26.065,174.595,-11.933,-6.767,-26.373,31.37,-0.04987,-0.22467,0.02863,-0.97269,678,0.921,-0.096,0.347,0.0,0.061,0.0,-15.848,-68.719,-147.052,-30.387,-9.067,-7.167,31.4,0.15833,-0.56873,-0.05023,-0.80551,688
171,0.932,-0.132,0.398,0.122,-0.061,0.0,-18.528,-65.88,-175.21,-26.747,-9.373,-14.373,27.38,0.05322,0.54214,-0.11295,0.8309,683,0.585,0.021,0.816,0.122,-0.183,0.0,1.516,-35.782,-115.34,-20.18,-6.24,-6.033,26.84,0.5123,-0.25281,-0.1749,-0.80185,685,0.437,-0.034,0.893,0.244,0.305,0.0,-2.098,-26.054,174.589,-11.933,-6.767,-26.373,31.37,-0.04987,-0.22467,0.02863,-0.97269,679,0.921,-0.096,0.348,0.061,0.0,0.0,-15.842,-68.719,-147.063,-30.387,-9.067,-7.167,31.4,0.15833,-0.56873,-0.05023,-0.80551,689
172,0.933,-0.133,0.4,0.183,0.0,0.0,-18.528,-65.874,-175.21,-26.747,-9.373,-14.373,27.38,0.05289,0.54181,-0.11258,0.83118,692,0.586,0.022,0.816,0.183,-0.122,0.0,1.522,-35.788,-115.34,-20.18,-6.24,-6.033,26.84,0.5123,-0.25281,-0.1749,-0.80185,690,0.438,-0.032,0.896,0.183,0.244,0.0,-2.098,-26.049,174.584,-11.933,-6.767,-26.373,31.37,-0.04987,-0.22467,0.02863,-0.97269,686,0.92,-0.096,0.347,0.061,0.061,0.0,-15.842,-68.719,-147.079,-29.82,-9.18,-6.567,31.4,0.15833,-0.56873,-0.05023,-0.80551,694
173,0.931,-0.132,0.398,0.244,0.0,0.0,-18.523,-65.874,-175.21,-26.747,-9.373,-14.373,27.38,0.05289,0.54181,-0.11258,0.83118,693,0.584,0.022,0.816,0.0,-0.183,0.0,1.522,-35.788,-115.334,-20.18,-6.24,-6.033,26.84,0.5123,-0.25281,-0.1749,-0.80185,691,0.437,-0.032,0.896,0.122,0.244,0.0,-2.093,-26.049,174.578,-11.933,-6.767,-26.373,31.37,-0.04987,-0.22467,0.02863,-0.97269,687,0.919,-0.096,0.348,0.0,0.0,0.0,-15.837,-68.719,-147.096,-29.82,-9.18,-6.567,31.4,0.15833,-0.56873,-0.05023,-0.80551,695
174,0.93,-0.132,0.398,0.122,0.0,0.0,-18.517,-65.874,-175.204,-26.747,-9.373,-14.373,27.38,0.05289,0.54181,-0.11258,0.83118,696,0.584,0.021,0.817,0.061,-0.305,0.0,1.522,-35.793,-115.334,-20.18,-6.24,-6.033,26.84,0.5123,-0.25281,-0.1749,-0.80185,698,0.436,-0.033,0.897,0.061,0.183,0.0,-2.093,-26.043,174.573,-11.933,-6.767,-26.373,31.37,-0.04987,-0.22467,0.02863,-0.97269,702,0.919,-0.096,0.346,0.0,0.0,0.0,-15.837,-68.714,-147.107,-29.82,-9.18,-6.567,31.4,0.15686,-0.5683,-0.04913,-0.80618,700
175,0.93,-0.133,0.397,0.061,0.0,0.0,-18.517,-65.874,-175.204,-26.747,-9.373,-14.373,27.38,0.05289,0.54181,-0.11258,0.83118,697,0.585,0.021,0.814,0.061,-0.305,0.0,1.522,-35.793,-115.334,-20.18,-6.24,-6.033,26.84,0.5123,-0.25281,-0.1749,-0.80185,699,0.436,-0.033,0.896,0.122,0.061,0.0,-2.093,-26.038,174.573,-11.933,-6.767,-26.373,31.37,-0.04987,-0.22467,0.02863,-0.97269,703,0.919,-0.098,0.347,0.0,0.061,0.0,-15.831,-68.714,-147.123,-29.82,-9.18,-6.567,31.4,0.15686,-0.5683,-0.04913,-0.80618,701
176,0.931,-0.134,0.398,0.061,0.0,0.0,-18.517,-65.869,-175.204,-26.747,-9.373,-14.373,27.38,0.05289,0.54181,-0.11258,0.83118,704,0.586,0.021,0.812,0.0,0.0,0.0,1.527,-35.793,-115.334,-20.18,-6.24,-6.033,26.84,0.5123,-0.25281,-0.1749,-0.80185,706,0.438,-0.033,0.891,0.061,0.122,0.0,-2.087,-26.038,174.567,-11.933,-6.767,-26.373,31.37,-0.04987,-0.22467,0.02863,-0.97269,710,0.92,-0.097,0.347,0.061,0.061,0.0,-15.826,-68.714,-147.134,-29.82,-9.18,-6.567,31.4,0.15686,-0.5683,-0.04913,-0.80618,708
177,0.931,-0.133,0.396,0.122,-0.061,0.0,-18.512,-65.869,-175.199,-26.747,-9.373,-14.373,27.38,0.05289,0.54181,-0.11258,0.83118,705,0.587,0.022,0.813,0.122,0.0,0.0,1.527,-35.793,-115.334,-20.18,-6.24,-6.033,26.84,0.5123,-0.25281,-0.1749,-0.80185,707,0.438,-0.033,0.891,0.122,0.061,0.0,-2.087,-26.038,174.562,-11.933,-6.767,-26.373,31.37,-0.04987,-0.22467,0.02863,-0.97269,711,0.921,-0.097,0.346,0.183,0.061,0.0,-15.82,-68.708,-147.151,-29.82,-9.18,-6.567,31.4,0.15686,-0.5683,-0.04913,-0.80618,709
178,0.932,-0.133,0.396,0.183,-0.061,0.0,-18.512,-65.869,-175.199,-26.747,-9.373,-14.373,27.38,0.05289,0.54181,-0.11258,0.83118,712,0.588,0.022,0.814,0.122,0.122,0.0,1.527,-35.793,-115.334,-20.18,-6.24,-6.033,26.84,0.5123,-0.25281,-0.1749,-0.80185,714,0.439,-0.03,0.894,0.122,0.122,0.0,-2.087,-26.038,174.556,-11.933,-6.767,-26.373,31.37,-0.04987,-0.22467,0.02863,-0.97269,716,0.922,-0.098,0.345,0.061,0.061,0.0,-15.815,-68.708,-147.162,-29.82,-9.18,-6.567,31.4,0.15686,-0.5683,-0.04913,-0.80618,718
179,0.933,-0.134,0.396,0.122,0.0,0.0,-18.512,-65.869,-175.199,-26.747,-9.373,-14.373,27.38,0.05289,0.54181,-0.11258,0.83118,713,0.588,0.02,0.814,0.122,0.0,0.0,1.533,-35.788,-115.334,-20.18,-6.24,-6.033,26.84,0.5123,-0.25281,-0.1749,-0.80185,715,0.44,-0.033,0.894,0.122,0.183,0.0,-2.082,-26.032,174.556,-11.933,-6.767,-26.373,31.37,-0.04987,-0.22467,0.02863,-0.97269,717,0.922,-0.097,0.345,0.0,0.061,0.0,-15.815,-68.708,-147.173,-29.82,-9.18,-6.567,31.4,0.15686,-0.5683,-0.04913,-0.80618,719
180,0.933,-0.133,0.396,0.0,0.0,0.0,-18.512,-65.869,-175.193,-26.747,-9.373,-14.373,27.38,0.05289,0.54181,-0.11258,0.83118,722,0.587,0.021,0.815,0.0,-0.244,0.0,1.533,-35.793,-115.334,-20.18,-6.24,-6.033,26.84,0.5123,-0.25281,-0.1749,-0.80185,720,0.439,-0.035,0.896,0.061,0.183,0.0,-2.082,-26.032,174.551,-12.187,-6.473,-26.92,31.37,-0.04987,-0.22467,0.02863,-0.97269,724,0.921,-0.097,0.346,-0.061,0.0,0.0,-15.815,-68.708,-147.189,-29.82,-9.18,-6.567,31.4,0.15686,-0.5683,-0.04913,-0.80618,726
181,0.933,-0.134,0.397,0.0,-0.061,0.0,-18.512,-65.869,-175.193,-26.747,-9.373,-14.373,27.38,0.05289,0.54181,-0.11258,0.83118,723,0.588,0.022,0.812,0.0,-0.061,0.0,1.533,-35.793,-115.334,-20.18,-6.24,-6.033,26.84,0.5123,-0.25281,-0.1749,-0.80185,721,0.439,-0.034,0.894,0.0,0.183,0.0,-2.082,-26.027,174.545,-12.187,-6.473,-26.92,31.37,-0.04987,-0.22467,0.02863,-0.97269,725,0.92,-0.098,0.345,0.0,0.0,0.0,-15.809,-68.703,-147.2,-29.82,-9.18,-6.567,31.4,0.15686,-0.5683,-0.04913,-0.80618,727
182,0.931,-0.134,0.397,0.0,0.0,0.0,-18.512,-65.869,-175.193,-26.747,-9.373,-14.373,27.38,0.05289,0.54181,-0.11258,0.83118,728,0.587,0.021,0.813,0.0,0.0,0.0,1.533,-35.793,-115.334,-20.18,-6.24,-6.033,26.84,0.5123,-0.25281,-0.1749,-0.80185,732,0.438,-0.033,0.892,0.061,0.244,0.0,-2.082,-26.027,174.54,-12.187,-6.473,-26.92,31.37,-0.04987,-0.22467,0.02863,-0.97269,730,0.919,-0.099,0.346,0.061,0.122,0.0,-15.809,-68.703,-147.211,-29.82,-9.18,-6.567,31.4,0.15686,-0.5683,-0.04913,-0.80618,736
183,0.931,-0.134,0.396,0.122,0.0,0.0,-18.512,-65.869,-175.188,-26.747,-9.373,-14.373,27.38,0.05289,0.54181,-0.11258,0.83118,729,0.586,0.019,0.814,0.0,0.122,0.0,1.533,-35.793,-115.334,-20.18,-6.24,-6.033,26.84,0.5123,-0.25281,-0.1749,-0.80185,733,0.438,-0.034,0.893,0.0,0.183,0.0,-2.082,-26.021,174.54,-12.187,-6.473,-26.92,31.37,-0.04987,-0.22467,0.02863,-0.97269,731,0.919,-0.099,0.345,0.122,0.183,0.0,-15.804,-68.698,-147.228,-29.82,-9.18,-6.567,31.4,0.15686,-0.5683,-0.04913,-0.80618,737
184,0.931,-0.134,0.397,0.305,0.061,0.0,-18.506,-65.863,-175.188,-26.747,-9.373,-14.373,27.38,0.05289,0.54181,-0.11258,0.83118,740,0.586,0.021,0.814,0.0,0.061,0.0,1.527,-35.793,-115.334,-20.647,-6.42,-6.673,26.84,0.5123,-0.25281,-0.1749,-0.80185,738,0.437,-0.034,0.894,0.0,0.305,0.0,-2.082,-26.016,174.534,-12.187,-6.473,-26.92,31.37,-0.05048,-0.22397,0.02841,-0.97281,734,0.92,-0.098,0.348,0.061,0.183,0.0,-15.798,-68.698,-147.244,-29.82,-9.18,-6.567,31.4,0.15686,-0.5683,-0.04913,-0.80618,742
185,0.932,-0.133,0.397,0.244,0.0,0.0,-18.501,-65.863,-175.188,-26.747,-9.373,-14.373,27.38,0.05289,0.54181,-0.11258,0.83118,741,0.586,0.021,0.815,0.061,0.0,0.0,1.533,-35.788,-115.334,-20.647,-6.42,-6.673,26.84,0.5123,-0.25281,-0.1749,-0.80185,739,0.438,-0.033,0.895,0.061,0.244,0.0,-2.082,-26.016,174.529,-12.187,-6.473,-26.92,31.37,-0.05048,-0.22397,0.02841,-0.97281,735,0.92,-0.097,0.347,0.122,0.122,0.0,-15.793,-68.692,-147.255,-29.82,-9.18,-6.567,31.4,0.15686,-0.5683,-0.04913,-0.80618,743
186,0.931,-0.133,0.397,0.244,0.0,0.0,-18.501,-65.863,-175.188,-26.18,-8.847,-14.667,27.38,0.05289,0.54181,-0.11258,0.83118,744,0.585,0.022,0.814,0.244,-0.061,0.0,1.533,-35.793,-115.334,-20.647,-6.42,-6.673,26.84,0.5123,-0.25281,-0.1749,-0.80185,746,0.438,-0.032,0.895,0.244,0.427,0.0,-2.082,-26.01,174.529,-12.187,-6.473,-26.92,31.37,-0.05048,-0.22397,0.02841,-0.97281,748,0.92,-0.096,0.347,0.061,0.183,0.0,-15.787,-68.687,-147.272,-29.82,-9.18,-6.567,31.4,0.15686,-0.5683,-0.04913,-0.80618,750
187,0.931,-0.132,0.398,0.244,0.0,0.0,-18.495,-65.863,-175.188,-26.18,-8.847,-14.667,27.38,0.05289,0.54181,-0.11258,0.83118,745,0.586,0.022,0.815,0.122,-0.122,0.0,1.538,-35.793,-115.334,-20.647,-6.42,-6.673,26.84,0.5123,-0.25281,-0.1749,-0.80185,747,0.437,-0.033,0.895,0.305,0.366,0.0,-2.076,-25.999,174.523,-12.187,-6.473,-26.92,31.37,-0.05048,-0.22397,0.02841,-0.97281,749,0.92,-0.097,0.348,0.061,0.122,0.0,-15.787,-68.687,-147.283,-29.82,-9.18,-6.567,31.4,0.15686,-0.5683,-0.04913,-0.80618,751
188,0.931,-0.132,0.398,0.122,0.0,0.0,-18.495,-65.863,-175.182,-26.18,-8.847,-14.667,27.38,0.05289,0.54181,-0.11258,0.83118,754,0.585,0.021,0.815,0.0,0.0,0.0,1.538,-35.793,-115.334,-20.647,-6.42,-6.673,26.84,0.51233,-0.25281,-0.17511,-0.80176,756,0.437,-0.034,0.895,0.122,0.366,0.0,-2.071,-25.994,174.518,-12.187,-6.473,-26.92,31.37,-0.05048,-0.22397,0.02841,-0.97281,752,0.919,-0.097,0.348,0.0,0.061,0.0,-15.782,-68.681,-147.294,-29.927,-9.22,-6.58,31.4,0.15686,-0.5683,-0.04913,-0.80618,762
189,0.931,-0.133,0.398,0.122,0.0,0.0,-18.49,-65.858,-175.182,-26.18,-8.847,-14.667,27.38,0.05289,0.54181,-0.11258,0.83118,755,0.585,0.021,0.814,0.0,0.0,0.0,1.538,-35.793,-115.334,-20.647,-6.42,-6.673,26.84,0.51233,-0.25281,-0.17511,-0.80176,757,0.436,-0.033,0.895,0.0,0.427,0.0,-2.071,-25.988,174.518,-12.187,-6.473,-26.92,31.37,-0.05048,-0.22397,0.02841,-0.97281,753,0.919,-0.098,0.348,0.061,0.061,0.0,-15.776,-68.681,-147.31,-29.927,-9.22,-6.58,31.4,0.15686,-0.5683,-0.04913,-0.80618,763
190,0.93,-0.133,0.397,0.122,0.061,0.0,-18.49,-65.858,-175.182,-26.18,-8.847,-14.667,27.38,0.05249,0.54172,-0.11221,0.8313,766,0.585,0.022,0.815,0.183,0.0,0.0,1.538,-35.793,-115.334,-20.647,-6.42,-6.673,26.84,0.51233,-0.25281,-0.17511,-0.80176,760,0.437,-0.032,0.895,0.061,0.366,0.0,-2.071,-25.983,174.512,-12.187,-6.473,-26.92,31.37,-0.05048,-0.22397,0.02841,-0.97281,758,0.92,-0.099,0.348,0.061,0.0,0.0,-15.776,-68.681,-147.321,-29.927,-9.22,-6.58,31.4,0.15576,-0.56805,-0.04843,-0.80658,768
191,0.931,-0.134,0.398,0.183,0.0,0.0,-18.484,-65.858,-175.182,-26.18,-8.847,-14.667,27.38,0.05249,0.54172,-0.11221,0.8313,767,0.586,0.021,0.815,0.305,0.0,0.0,1.544,-35.788,-115.334,-20.647,-6.42,-6.673,26.84,0.51233,-0.25281,-0.17511,-0.80176,761,0.436,-0.031,0.896,0.244,0.244,0.0,-2.065,-25.977,174.507,-12.187,-6.473,-26.92,31.37,-0.05048,-0.22397,0.02841,-0.97281,759,0.919,-0.097,0.347,0.061,0.061,0.0,-15.771,-68.676,-147.332,-29.927,-9.22,-6.58,31.4,0.15576,-0.56805,-0.04843,-0.80658,769
192,0.931,-0.134,0.398,0.183,-0.061,0.0,-18.484,-65.858,-175.182,-26.18,-8.847,-14.667,27.38,0.05249,0.54172,-0.11221,0.8313,770,0.585,0.022,0.815,0.244,0.061,0.0,1.549,-35.788,-115.334,-20.647,-6.42,-6.673,26.84,0.51233,-0.25281,-0.17511,-0.80176,772,0.436,-0.032,0.895,0.366,0.183,0.0,-2.06,-25.972,174.507,-12.187,-6.473,-26.92,31.37,-0.05048,-0.22397,0.02841,-0.97281,764,0.92,-0.097,0.346,0.061,0.061,0.0,-15.771,-68.676,-147.343,-29.927,-9.22,-6.58,31.4,0.15576,-0.56805,-0.04843,-0.80658,776
193,0.931,-0.132,0.397,0.183,0.0,0.0,-18.479,-65.852,-175.177,-26.18,-8.847,-14.667,27.38,0.05249,0.54172,-0.11221,0.8313,771,0.586,0.022,0.816,0.183,0.061,0.0,1.555,-35.788,-115.334,-20.647,-6.42,-6.673,26.84,0.51233,-0.25281,-0.17511,-0.80176,773,0.436,-0.032,0.896,0.305,0.244,0.0,-2.054,-25.966,174.501,-12.187,-6.473,-26.92,31.37,-0.05048,-0.22397,0.02841,-0.97281,765,0.92,-0.097,0.346,0.0,0.0,0.0,-15.765,-68.676,-147.354,-29.927,-9.22,-6.58,31.4,0.15576,-0.56805,-0.04843,-0.80658,777
194,0.932,-0.133,0.397,0.122,0.0,0.0,-18.479,-65.852,-175.177,-26.18,-8.847,-14.667,27.38,0.05249,0.54172,-0.11221,0.8313,780,0.587,0.022,0.814,0.183,0.0,0.0,1.555,-35.782,-115.334,-20.647,-6.42,-6.673,26.9,0.51233,-0.25281,-0.17511,-0.80176,778,0.438,-0.032,0.896,0.244,0.183,0.0,-2.049,-25.966,174.496,-12.187,-6.473,-26.92,31.37,-0.05048,-0.22397,0.02841,-0.97281,774,0.92,-0.097,0.346,0.0,0.061,0.0,-15.765,-68.67,-147.365,-29.927,-9.22,-6.58,31.4,0.15576,-0.56805,-0.04843,-0.80658,782
195,0.932,-0.134,0.397,0.122,0.0,0.0,-18.479,-65.852,-175.177,-26.18,-8.847,-14.667,27.38,0.05249,0.54172,-0.11221,0.8313,781,0.587,0.021,0.813,0.061,0.122,0.0,1.56,-35.782,-115.334,-20.647,-6.42,-6.673,26.9,0.51233,-0.25281,-0.17511,-0.80176,779,0.438,-0.033,0.893,0.183,0.122,0.0,-2.043,-25.961,174.496,-12.187,-6.473,-26.92,31.37,-0.05048,-0.22397,0.02841,-0.97281,775,0.919,-0.098,0.347,0.0,0.061,0.0,-15.765,-68.67,-147.376,-29.927,-9.22,-6.58,31.4,0.15576,-0.56805,-0.04843,-0.80658,783
196,0.931,-0.133,0.398,0.061,0.0,0.0,-18.479,-65.852,-175.177,-26.18,-8.847,-14.667,27.38,0.05249,0.54172,-0.11221,0.8313,784,0.585,0.022,0.814,0.0,0.305,0.0,1.56,-35.777,-115.334,-20.647,-6.42,-6.673,26.9,0.51233,-0.25281,-0.17511,-0.80176,788,0.437,-0.033,0.893,0.0,0.244,0.0,-2.043,-25.961,174.49,-12.187,-6.473,-26.92,31.37,-0.05048,-0.22397,0.02841,-0.97281,786,0.92,-0.097,0.347,0.0,0.0,0.0,-15.76,-68.67,-147.387,-29.927,-9.22,-6.58,31.4,0.15576,-0.56805,-0.04843,-0.80658,790
197,0.931,-0.134,0.398,0.061,0.0,0.0,-18.479,-65.852,-175.172,-26.18,-8.847,-14.667,27.38,0.05249,0.54172,-0.11221,0.8313,785,0.586,0.023,0.816,0.0,0.244,0.0,1.555,-35.771,-115.334,-20.647,-6.42,-6.673,26.9,0.51233,-0.25281,-0.17511,-0.80176,789,0.437,-0.031,0.896,-0.061,0.244,0.0,-2.043,-25.955,174.485,-12.187,-6.473,-26.92,31.37,-0.05048,-0.22397,0.02841,-0.97281,787,0.92,-0.097,0.347,0.061,0.0,0.0,-15.76,-68.67,-147.398,-29.927,-9.22,-6.58,31.4,0.15576,-0.56805,-0.04843,-0.80658,791
198,0.932,-0.134,0.397,0.061,0.0,0.0,-18.474,-65.847,-175.172,-26.18,-8.847,-14.667,27.38,0.05249,0.54172,-0.11221,0.8313,794,0.586,0.02,0.815,0.122,0.0,0.0,1.56,-35.771,-115.334,-20.647,-6.42,-6.673,26.9,0.51233,-0.25281,-0.17511,-0.80176,792,0.438,-0.032,0.897,0.0,0.244,0.0,-2.043,-25.95,174.485,-12.187,-6.473,-26.92,31.37,-0.05048,-0.22397,0.02841,-0.97281,798,0.921,-0.097,0.348,-0.061,0.061,0.0,-15.76,-68.67,-147.409,-29.927,-9.22,-6.58,31.4,0.15576,-0.56805,-0.04843,-0.80658,796
199,0.932,-0.133,0.398,0.122,0.0,0.0,-18.474,-65.847,-175.172,-26.18,-8.847,-14.667,27.38,0.05249,0.54172,-0.11221,0.8313,795,0.586,0.02,0.816,0.122,-0.061,0.0,1.56,-35.771,-115.334,-20.647,-6.42,-6.673,26.9,0.51233,-0.25281,-0.17511,-0.80176,793,0.437,-0.034,0.896,0.244,0.061,0.0,-2.043,-25.95,174.479,-12.187,-6.473,-26.92,31.37,-0.05048,-0.22397,0.02841,-0.97281,799,0.921,-0.096,0.349,-0.122,0.0,0.0,-15.76,-68.665,-147.42,-29.927,-9.22,-6.58,31.4,0.15576,-0.56805,-0.04843,-0.80658,797
200,0.931,-0.134,0.398,0.061,0.0,0.0,-18.474,-65.847,-175.172,-26.18,-8.847,-14.667,27.38,0.05249,0.54172,-0.11221,0.8313,802,0.586,0.022,0.817,0.0,-0.122,0.0,1.56,-35.771,-115.334,-20.647,-6.42,-6.673,26.9,0.51233,-0.25281,-0.17511,-0.80176,800,0.437,-0.034,0.897,0.061,0.061,0.0,-2.043,-25.95,174.479,-11.9,-7.213,-27.193,31.37,-0.05048,-0.22397,0.02841,-0.97281,804,0.919,-0.096,0.348,0.061,-0.061,0.0,-15.76,-68.665,-147.426,-29.927,-9.22,-6.58,31.4,0.15576,-0.56805,-0.04843,-0.80658,806
201,0.933,-0.132,0.398,0.0,0.0,0.0,-18.474,-65.847,-175.172,-26.18,-8.847,-14.667,27.38,0.05249,0.54172,-0.11221,0.8313,803,0.584,0.024,0.816,0.0,-0.061,0.0,1.56,-35.771,-115.334,-20.647,-6.42,-6.673,26.9,0.51233,-0.25281,-0.17511,-0.80176,801,0.436,-0.033,0.895,0.0,0.122,0.0,-2.043,-25.944,174.474,-11.9,-7.213,-27.193,31.37,-0.05048,-0.22397,0.02841,-0.97281,805,0.917,-0.1,0.346,0.061,0.0,0.0,-15.754,-68.665,-147.437,-29.927,-9.22,-6.58,31.4,0.15576,-0.56805,-0.04843,-0.80658,807
202,0.929,-0.133,0.399,0.0,-0.061,0.0,-18.474,-65.847,-175.166,-26.18,-8.847,-14.667,27.38,0.05249,0.54172,-0.11221,0.8313,810,0.583,0.021,0.814,0.0,-0.122,0.0,1.56,-35.771,-115.334,-20.647,-6.42,-6.673,26.9,0.51233,-0.25281,-0.17511,-0.80176,808,0.435,-0.03,0.897,0.061,0.122,0.0,-2.043,-25.944,174.474,-11.9,-7.213,-27.193,31.37,-0.05048,-0.22397,0.02841,-0.97281,812,0.919,-0.099,0.351,-0.244,0.0,0.0,-15.754,-68.665,-147.448,-29.927,-9.22,-6.58,31.4,0.15576,-0.56805,-0.04843,-0.80658,814
203,0.929,-0.137,0.398,-0.122,0.061,0.0,-18.479,-65.841,-175.166,-26.18,-8.847,-14.667,27.38,0.05249,0.54172,-0.11221,0.8313,811,0.584,0.021,0.812,-0.305,0.488,0.0,1.555,-35.76,-115.329,-20.647,-6.42,-6.673,26.9,0.51233,-0.25281,-0.17511,-0.80176,809,0.435,-0.033,0.89,0.0,0.061,0.0,-2.043,-25.944,174.468,-11.9,-7.213,-27.193,31.37,-0.05048,-0.22397,0.02841,-0.97281,813,0.919,-0.098,0.352,-0.305,-0.122,0.0,-15.76,-68.665,-147.453,-29.927,-9.22,-6.58,31.4,0.15576,-0.56805,-0.04843,-0.80658,815
204,0.93,-0.135,0.401,-0.427,0.0,0.0,-18.49,-65.841,-175.166,-26.247,-9.053,-14.3,27.38,0.05249,0.54172,-0.11221,0.8313,822,0.583,0.023,0.816,-0.549,0.793,0.0,1.544,-35.744,-115.329,-20.647,-6.42,-6.673,26.9,0.51233,-0.25281,-0.17511,-0.80176,820,0.435,-0.032,0.892,-0.427,0.427,0.0,-2.043,-25.939,174.463,-11.9,-7.213,-27.193,31.37,-0.05103,-0.2233,0.02823,-0.97296,816,0.921,-0.099,0.347,-0.366,0.0,0.0,-15.765,-68.665,-147.464,-29.893,-9.207,-6.673,31.4,0.15576,-0.56805,-0.04843,-0.80658,818
205,0.931,-0.133,0.4,-0.427,0.0,0.0,-18.495,-65.841,-175.166,-26.247,-9.053,-14.3,27.38,0.05249,0.54172,-0.11221,0.8313,823,0.586,0.021,0.819,-0.549,0.305,0.0,1.533,-35.739,-115.329,-20.647,-6.42,-6.673,26.9,0.51233,-0.25281,-0.17511,-0.80176,821,0.434,-0.029,0.899,-0.488,0.183,0.0,-2.054,-25.933,174.463,-11.9,-7.213,-27.193,31.37,-0.05103,-0.2233,0.02823,-0.97296,817,0.923,-0.098,0.347,-0.549,-0.122,0.0,-15.776,-68.665,-147.469,-29.893,-9.207,-6.673,31.4,0.15576,-0.56805,-0.04843,-0.80658,819
206,0.933,-0.135,0.396,-0.244,0.0,0.0,-18.501,-65.836,-175.166,-26.247,-9.053,-14.3,27.38,0.05237,0.54156,-0.11224,0.83142,824,0.588,0.017,0.818,-0.549,-0.122,0.0,1.522,-35.739,-115.329,-20.647,-6.42,-6.673,26.9,0.51233,-0.25281,-0.17511,-0.80176,830,0.437,-0.037,0.901,-0.549,0.122,0.0,-2.065,-25.933,174.457,-11.9,-7.213,-27.193,31.37,-0.05103,-0.2233,0.02823,-0.97296,826,0.92,-0.098,0.347,-0.244,-0.122,0.0,-15.787,-68.665,-147.48,-29.893,-9.207,-6.673,31.4,0.15576,-0.56805,-0.04843,-0.80658,828
207,0.934,-0.134,0.398,-0.305,0.0,0.0,-18.512,-65.836,-175.166,-26.247,-9.053,-14.3,27.38,0.05237,0.54156,-0.11224,0.83142,825,0.586,0.02,0.815,-0.427,-0.122,0.0,1.511,-35.739,-115.329,-20.647,-6.42,-6.673,26.9,0.51233,-0.25281,-0.17511,-0.80176,831,0.438,-0.037,0.896,-0.61,0.061,0.0,-2.076,-25.928,174.457,-11.9,-7.213,-27.193,31.37,-0.05103,-0.2233,0.02823,-0.97296,827,0.917,-0.097,0.345,-0.122,-0.122,0.0,-15.793,-68.665,-147.486,-29.893,-9.207,-6.673,31.4,0.15576,-0.56805,-0.04843,-0.80658,829
208,0.931,-0.134,0.396,-0.061,-0.122,0.0,-18.512,-65.836,-175.161,-26.247,-9.053,-14.3,27.38,0.05237,0.54156,-0.11224,0.83142,834,0.583,0.022,0.817,-0.183,-0.061,0.0,1.505,-35.739,-115.329,-20.42,-6.647,-6.087,26.9,0.51233,-0.25281,-0.17511,-0.80176,836,0.435,-0.032,0.896,-0.427,0.0,0.0,-2.087,-25.928,174.452,-11.9,-7.213,-27.193,31.37,-0.05103,-0.2233,0.02823,-0.97296,832,0.916,-0.096,0.345,-0.122,-0.183,0.0,-15.793,-68.665,-147.491,-29.893,-9.207,-6.673,31.4,0.15457,-0.56805,-0.04749,-0.80688,840
209,0.928,-0.133,0.396,-0.122,0.0,0.0,-18.517,-65.836,-175.161,-26.247,-9.053,-14.3,27.38,0.05237,0.54156,-0.11224,0.83142,835,0.583,0.021,0.814,0.061,0.061,0.0,1.505,-35.739,-115.329,-20.42,-6.647,-6.087,26.9,0.51233,-0.25281,-0.17511,-0.80176,837,0.434,-0.032,0.896,-0.061,-0.061,0.0,-2.093,-25.928,174.452,-11.9,-7.213,-27.193,31.37,-0.05103,-0.2233,0.02823,-0.97296,833,0.918,-0.097,0.346,0.122,-0.183,0.0,-15.798,-68.67,-147.497,-29.893,-9.207,-6.673,31.4,0.15457,-0.56805,-0.04749,-0.80688,841
210,0.928,-0.132,0.395,-0.061,0.0,0.0,-18.523,-65.836,-175.161,-26.247,-9.053,-14.3,27.38,0.05237,0.54156,-0.11224,0.83142,844,0.583,0.021,0.811,0.305,0.061,0.0,1.511,-35.733,-115.329,-20.42,-6.647,-6.087,26.9,0.51233,-0.25281,-0.17511,-0.80176,842,0.434,-0.032,0.892,0.305,-0.122,0.0,-2.093,-25.928,174.446,-11.9,-7.213,-27.193,31.37,-0.05103,-0.2233,0.02823,-0.97296,838,0.921,-0.096,0.348,0.0,-0.183,0.0,-15.798,-68.67,-147.502,-29.893,-9.207,-6.673,31.4,0.15457,-0.56805,-0.04749,-0.80688,848
211,0.931,-0.132,0.397,-0.061,-0.061,0.0,-18.523,-65.836,-175.155,-26.247,-9.053,-14.3,27.38,0.05237,0.54156,-0.11224,0.83142,845,0.585,0.021,0.815,0.244,0.061,0.0,1.516,-35.733,-115.329,-20.42,-6.647,-6.087,26.9,0.51233,-0.25281,-0.17511,-0.80176,843,0.434,-0.034,0.891,0.366,-0.488,0.366,-2.087,-25.939,174.452,-11.9,-7.213,-27.193,31.37,-0.05103,-0.2233,0.02823,-0.97296,839,0.923,-0.095,0.348,0.061,-0.244,0.0,-15.798,-68.676,-147.508,-29.893,-9.207,-6.673,31.4,0.15457,-0.56805,-0.04749,-0.80688,849
212,0.933,-0.132,0.398,-0.122,-0.183,0.0,-18.528,-65.836,-175.155,-26.247,-9.053,-14.3,27.38,0.05237,0.54156,-0.11224,0.83142,850,0.588,0.023,0.817,0.122,0.183,0.0,1.522,-35.728,-115.329,-20.42,-6.647,-6.087,26.9,0.51242,-0.25244,-0.17474,-0.80191,852,0.438,-0.033,0.896,0.122,-0.488,0.122,-2.087,-25.944,174.452,-11.9,-7.213,-27.193,31.37,-0.05103,-0.2233,0.02823,-0.97296,846,0.922,-0.097,0.347,0.0,-0.305,0.0,-15.798,-68.681,-147.513,-29.893,-9.207,-6.673,31.4,0.15457,-0.56805,-0.04749,-0.80688,854
213,0.934,-0.133,0.398,-0.122,-0.244,0.0,-18.534,-65.841,-175.15,-26.247,-9.053,-14.3,27.38,0.05237,0.54156,-0.11224,0.83142,851,0.587,0.024,0.817,0.244,-0.061,0.0,1.527,-35.728,-115.329,-20.42,-6.647,-6.087,26.9,0.51242,-0.25244,-0.17474,-0.80191,853,0.438,-0.029,0.897,0.061,-0.427,0.122,-2.087,-25.955,174.452,-11.9,-7.213,-27.193,31.37,-0.05103,-0.2233,0.02823,-0.97296,847,0.92,-0.098,0.346,0.0,-0.366,0.0,-15.798,-68.687,-147.519,-29.893,-9.207,-6.673,31.4,0.15457,-0.56805,-0.04749,-0.80688,855
214,0.932,-0.134,0.398,-0.183,-0.122,0.0,-18.539,-65.841,-175.144,-26.247,-9.053,-14.3,27.38,0.05237,0.54156,-0.11224,0.83142,858,0.586,0.022,0.818,0.122,-0.122,0.0,1.527,-35.728,-115.329,-20.42,-6.647,-6.087,26.9,0.51242,-0.25244,-0.17474,-0.80191,860,0.438,-0.031,0.897,0.122,-0.61,0.244,-2.087,-25.966,174.457,-11.9,-7.213,-27.193,31.37,-0.05103,-0.2233,0.02823,-0.97296,856,0.918,-0.097,0.348,0.0,-0.366,0.0,-15.804,-68.692,-147.519,-29.893,-9.207,-6.673,31.4,0.15457,-0.56805,-0.04749,-0.80688,864
215,0.93,-0.135,0.398,-0.061,-0.122,0.0,-18.545,-65.841,-175.144,-26.247,-9.053,-14.3,27.38,0.05237,0.54156,-0.11224,0.83142,859,0.583,0.02,0.816,0.183,-0.366,0.0,1.533,-35.739,-115.329,-20.42,-6.647,-6.087,26.9,0.51242,-0.25244,-0.17474,-0.80191,861,0.436,-0.033,0.898,0.0,-0.61,0.122,-2.087,-25.977,174.457,-11.9,-7.213,-27.193,31.37,-0.05103,-0.2233,0.02823,-0.97296,857,0.917,-0.097,0.347,0.061,-0.183,0.0,-15.804,-68.692,-147.524,-29.893,-9.207,-6.673,31.4,0.15457,-0.56805,-0.04749,-0.80688,865
216,0.928,-0.135,0.398,0.0,-0.122,0.0,-18.545,-65.841,-175.139,-26.247,-9.053,-14.3,27.38,0.05237,0.54156,-0.11224,0.83142,866,0.583,0.021,0.815,0.0,-0.183,0.0,1.533,-35.739,-115.329,-20.42,-6.647,-6.087,26.9,0.51242,-0.25244,-0.17474,-0.80191,868,0.436,-0.033,0.895,0.0,-0.732,0.305,-2.087,-25.988,174.457,-11.9,-7.213,-27.193,31.37,-0.05103,-0.2233,0.02823,-0.97296,862,0.918,-0.095,0.347,0.0,-0.244,0.0,-15.804,-68.698,-147.53,-29.893,-9.207,-6.673,31.4,0.15457,-0.56805,-0.04749,-0.80688,870
217,0.93,-0.132,0.397,0.0,-0.366,0.0,-18.55,-65.847,-175.133,-26.247,-9.053,-14.3,27.38,0.05237,0.54156,-0.11224,0.83142,867,0.583,0.021,0.813,-0.244,0.183,0.0,1.527,-35.733,-115.329,-20.42,-6.647,-6.087,26.9,0.51242,-0.25244,-0.17474,-0.80191,869,0.436,-0.035,0.891,-0.122,-0.427,0.0,-2.093,-25.999,174.463,-11.9,-7.213,-27.193,31.37,-0.05103,-0.2233,0.02823,-0.97296,863,0.92,-0.097,0.345,0.0,-0.244,0.0,-15.804,-68.703,-147.535,-29.893,-9.207,-6.673,31.4,0.15457,-0.56805,-0.04749,-0.80688,871
218,0.933,-0.134,0.395,-0.122,-0.305,0.0,-18.556,-65.852,-175.128,-26.247,-9.053,-14.3,27.38,0.05237,0.54156,-0.11224,0.83142,874,0.587,0.021,0.814,-0.244,0.0,0.0,1.522,-35.733,-115.329,-20.42,-6.647,-6.087,26.9,0.51242,-0.25244,-0.17474,-0.80191,872,0.438,-0.033,0.893,-0.244,-0.305,-0.122,-2.093,-26.005,174.457,-11.9,-7.213,-27.193,31.37,-0.05103,-0.2233,0.02823,-0.97296,876,0.922,-0.099,0.344,-0.183,-0.305,0.0,-15.809,-68.703,-147.535,-29.893,-9.207,-6.673,31.4,0.15457,-0.56805,-0.04749,-0.80688,878
219,0.934,-0.137,0.396,-0.244,-0.244,0.0,-18.561,-65.858,-175.122,-26.247,-9.053,-14.3,27.38,0.05237,0.54156,-0.11224,0.83142,875,0.587,0.019,0.814,-0.244,-0.122,0.0,1.516,-35.733,-115.329,-20.42,-6.647,-6.087,26.9,0.51242,-0.25244,-0.17474,-0.80191,873,0.44,-0.035,0.894,-0.305,-0.244,-0.122,-2.098,-26.01,174.452,-11.9,-7.213,-27.193,31.37,-0.05103,-0.2233,0.02823,-0.97296,877,0.923,-0.099,0.345,-0.061,-0.305,0.0,-15.815,-68.708,-147.541,-29.893,-9.207,-6.673,31.4,0.15457,-0.56805,-0.04749,-0.80688,879
220,0.934,-0.137,0.397,-0.183,-0.244,0.0,-18.572,-65.858,-175.117,-26.247,-9.053,-14.3,27.38,0.05237,0.54156,-0.11224,0.83142,882,0.587,0.02,0.816,-0.244,-0.305,0.0,1.511,-35.739,-115.329,-20.42,-6.647,-6.087,26.9,0.51242,-0.25244,-0.17474,-0.80191,880,0.439,-0.035,0.896,-0.305,-0.244,-0.061,-2.104,-26.016,174.446,-12.073,-6.7,-27.067,31.37,-0.05103,-0.2233,0.02823,-0.97296,884,0.921,-0.099,0.344,-0.061,-0.244,0.0,-15.82,-68.714,-147.546,-29.893,-9.207,-6.673,31.4,0.15457,-0.56805,-0.04749,-0.80688,886
221,0.932,-0.135,0.396,0.0,-0.122,0.0,-18.578,-65.863,-175.117,-26.247,-9.053,-14.3,27.38,0.05237,0.54156,-0.11224,0.83142,883,0.588,0.021,0.814,-0.122,-0.183,0.0,1.505,-35.744,-115.329,-20.42,-6.647,-6.087,26.9,0.51242,-0.25244,-0.17474,-0.80191,881,0.44,-0.034,0.895,-0.366,-0.366,0.0,-2.115,-26.021,174.446,-12.073,-6.7,-27.067,31.37,-0.05103,-0.2233,0.02823,-0.97296,885,0.92,-0.096,0.344,0.061,-0.244,0.0,-15.82,-68.719,-147.546,-29.893,-9.207,-6.673,31.4,0.15457,-0.56805,-0.04749,-0.80688,887
222,0.931,-0.134,0.397,0.061,-0.122,0.0,-18.583,-65.863,-175.111,-26.247,-9.053,-14.3,27.38,0.05237,0.54156,-0.11224,0.83142,888,0.586,0.02,0.811,0.183,0.0,0.0,1.511,-35.744,-115.329,-20.42,-6.647,-6.087,26.9,0.51242,-0.25244,-0.17474,-0.80191,892,0.441,-0.033,0.891,-0.061,-0.305,0.061,-2.12,-26.032,174.446,-12.073,-6.7,-27.067,31.37,-0.05103,-0.2233,0.02823,-0.97296,898,0.92,-0.097,0.344,0.122,-0.122,0.0,-15.82,-68.719,-147.552,-29.933,-9.453,-7.1,31.4,0.15457,-0.56805,-0.04749,-0.80688,890
223,0.931,-0.134,0.396,0.061,-0.061,0.0,-18.583,-65.863,-175.111,-26.247,-9.053,-14.3,27.38,0.05237,0.54156,-0.11224,0.83142,889,0.585,0.019,0.814,0.122,0.183,0.0,1.511,-35.739,-115.329,-20.42,-6.647,-6.087,26.9,0.51242,-0.25244,-0.17474,-0.80191,893,0.438,-0.036,0.89,0.122,-0.488,0.183,-2.12,-26.038,174.446,-12.073,-6.7,-27.067,31.37,-0.05103,-0.2233,0.02823,-0.97296,899,0.92,-0.098,0.345,0.061,0.0,0.0,-15.82,-68.725,-147.557,-29.933,-9.453,-7.1,31.4,0.15457,-0.56805,-0.04749,-0.80688,891
224,0.932,-0.135,0.397,0.0,0.0,0.0,-18.583,-65.863,-175.106,-26.727,-9.28,-14.233,27.38,0.05237,0.54156,-0.11224,0.83142,894,0.586,0.02,0.814,0.0,0.183,0.0,1.511,-35.733,-115.329,-20.42,-6.647,-6.087,26.9,0.51242,-0.25244,-0.17474,-0.80191,896,0.438,-0.035,0.893,0.0,-0.488,0.0,-2.12,-26.049,174.446,-12.073,-6.7,-27.067,31.37,-0.05133,-0.22418,0.02893,-0.97272,904,0.92,-0.097,0.345,0.061,0.0,0.0,-15.82,-68.719,-147.568,-29.933,-9.453,-7.1,31.4,0.15457,-0.56805,-0.04749,-0.80688,900
225,0.931,-0.135,0.396,0.0,0.0,0.0,-18.589,-65.863,-175.106,-26.727,-9.28,-14.233,27.38,0.05237,0.54156,-0.11224,0.83142,895,0.585,0.021,0.814,0.061,0.183,0.0,1.511,-35.733,-115.329,-20.42,-6.647,-6.087,26.9,0.51242,-0.25244,-0.17474,-0.80191,897,0.438,-0.034,0.893,0.061,-0.366,-0.061,-2.12,-26.06,174.441,-12.073,-6.7,-27.067,31.37,-0.05133,-0.22418,0.02893,-0.97272,905,0.92,-0.097,0.345,0.061,0.0,0.0,-15.815,-68.719,-147.574,-29.933,-9.453,-7.1,31.4,0.15457,-0.56805,-0.04749,-0.80688,901
226,0.931,-0.134,0.397,0.0,0.061,0.0,-18.589,-65.863,-175.106,-26.727,-9.28,-14.233,27.38,0.05237,0.54156,-0.11224,0.83142,902,0.586,0.021,0.815,0.122,0.122,0.0,1.511,-35.728,-115.329,-20.42,-6.647,-6.087,26.9,0.51242,-0.25244,-0.17474,-0.80191,906,0.439,-0.033,0.893,0.122,-0.305,-0.061,-2.12,-26.065,174.441,-12.073,-6.7,-27.067,31.37,-0.05133,-0.22418,0.02893,-0.97272,908,0.92,-0.097,0.346,0.0,0.0,0.0,-15.815,-68.719,-147.579,-29.933,-9.453,-7.1,31.4,0.15369,-0.56851,-0.047,-0.80676,910
227,0.931,-0.135,0.397,0.0,0.061,0.0,-18.589,-65.858,-175.106,-26.727,-9.28,-14.233,27.38,0.05237,0.54156,-0.11224,0.83142,903,0.586,0.022,0.814,0.183,0.061,0.0,1.516,-35.728,-115.329,-20.42,-6.647,-6.087,26.9,0.51242,-0.25244,-0.17474,-0.80191,907,0.439,-0.032,0.894,0.122,-0.183,0.061,-2.115,-26.071,174.435,-12.073,-6.7,-27.067,31.37,-0.05133,-0.22418,0.02893,-0.97272,909,0.92,-0.097,0.346,0.122,0.0,0.0,-15.809,-68.719,-147.59,-29.933,-9.453,-7.1,31.4,0.15369,-0.56851,-0.047,-0.80676,911
228,0.931,-0.135,0.397,0.0,0.0,0.0,-18.589,-65.858,-175.106,-26.727,-9.28,-14.233,27.38,0.05237,0.54178,-0.11255,0.83124,916,0.585,0.021,0.814,0.061,0.122,0.0,1.516,-35.728,-115.329,-20.64,-6.68,-5.987,26.9,0.51242,-0.25244,-0.17474,-0.80191,912,0.439,-0.033,0.892,0.122,0.0,0.183,-2.115,-26.076,174.435,-12.073,-6.7,-27.067,31.37,-0.05133,-0.22418,0.02893,-0.97272,914,0.92,-0.097,0.345,0.183,0.0,0.0,-15.809,-68.719,-147.596,-29.933,-9.453,-7.1,31.4,0.15369,-0.56851,-0.047,-0.80676,918
229,0.931,-0.134,0.396,0.061,0.0,0.0,-18.594,-65.858,-175.106,-26.727,-9.28,-14.233,27.38,0.05237,0.54178,-0.11255,0.83124,917,0.586,0.019,0.815,0.0,-0.061,0.0,1.516,-35.722,-115.329,-20.64,-6.68,-5.987,26.9,0.51242,-0.25244,-0.17474,-0.80191,913,0.438,-0.036,0.893,0.0,0.061,0.0,-2.115,-26.076,174.435,-12.073,-6.7,-27.067,31.37,-0.05133,-0.22418,0.02893,-0.97272,915,0.92,-0.097,0.345,0.061,0.061,0.0,-15.804,-68.719,-147.601,-29.933,-9.453,-7.1,31.4,0.15369,-0.56851,-0.047,-0.80676,919
230,0.931,-0.134,0.397,0.061,0.0,0.0,-18.594,-65.858,-175.106,-26.727,-9.28,-14.233,27.38,0.05237,0.54178,-0.11255,0.83124,920,0.587,0.022,0.813,0.0,-0.122,0.0,1.516,-35.728,-115.329,-20.64,-6.68,-5.987,26.9,0.51242,-0.25244,-0.17474,-0.80191,924,0.439,-0.037,0.893,0.0,0.122,0.0,-2.115,-26.076,174.435,-12.073,-6.7,-27.067,31.37,-0.05133,-0.22418,0.02893,-0.97272,922,0.921,-0.096,0.345,0.0,0.0,0.0,-15.804,-68.719,-147.607,-29.933,-9.453,-7.1,31.4,0.15369,-0.56851,-0.047,-0.80676,928
231,0.932,-0.135,0.396,0.0,0.061,0.0,-18.594,-65.858,-175.106,-26.727,-9.28,-14.233,27.38,0.05237,0.54178,-0.11255,0.83124,921,0.587,0.023,0.813,-0.183,-0.244,0.0,1.516,-35.728,-115.329,-20.64,-6.68,-5.987,26.9,0.51242,-0.25244,-0.17474,-0.80191,925,0.44,-0.035,0.894,0.0,0.305,-0.122,-2.12,-26.071,174.43,-12.073,-6.7,-27.067,31.37,-0.05133,-0.22418,0.02893,-0.97272,923,0.922,-0.098,0.345,0.0,0.061,0.0,-15.798,-68.719,-147.618,-29.933,-9.453,-7.1,31.4,0.15369,-0.56851,-0.047,-0.80676,929
232,0.932,-0.136,0.396,0.0,0.183,0.0,-18.594,-65.852,-175.106,-26.727,-9.28,-14.233,27.38,0.05237,0.54178,-0.11255,0.83124,932,0.588,0.023,0.815,-0.122,-0.305,0.0,1.511,-35.733,-115.329,-20.64,-6.68,-5.987,26.9,0.51245,-0.25241,-0.17471,-0.80191,930,0.44,-0.031,0.893,-0.061,0.305,-0.305,-2.12,-26.065,174.424,-12.073,-6.7,-27.067,31.37,-0.05133,-0.22418,0.02893,-0.97272,926,0.922,-0.098,0.343,0.305,0.061,0.0,-15.793,-68.714,-147.623,-29.933,-9.453,-7.1,31.4,0.15369,-0.56851,-0.047,-0.80676,934
233,0.933,-0.137,0.396,0.061,0.305,0.0,-18.594,-65.847,-175.106,-26.727,-9.28,-14.233,27.38,0.05237,0.54178,-0.11255,0.83124,933,0.586,0.023,0.814,0.0,0.0,0.366,1.505,-35.739,-115.323,-20.64,-6.68,-5.987,26.9,0.51245,-0.25241,-0.17471,-0.80191,931,0.441,-0.03,0.894,-0.244,0.366,-0.183,-2.12,-26.06,174.419,-12.073,-6.7,-27.067,31.37,-0.05133,-0.22418,0.02893,-0.97272,927,0.921,-0.099,0.345,0.366,0.061,0.0,-15.787,-68.714,-147.634,-29.933,-9.453,-7.1,31.4,0.15369,-0.56851,-0.047,-0.80676,935
234,0.931,-0.136,0.396,0.244,0.305,0.0,-18.589,-65.841,-175.111,-26.727,-9.28,-14.233,27.38,0.05237,0.54178,-0.11255,0.83124,936,0.586,0.022,0.813,0.122,0.122,0.488,1.5,-35.739,-115.312,-20.64,-6.68,-5.987,26.9,0.51245,-0.25241,-0.17471,-0.80191,946,0.441,-0.03,0.893,-0.122,0.427,0.122,-2.12,-26.054,174.413,-12.073,-6.7,-27.067,31.37,-0.05133,-0.22418,0.02893,-0.97272,938,0.919,-0.096,0.344,0.549,0.183,0.0,-15.776,-68.714,-147.64,-29.933,-9.453,-7.1,31.4,0.15369,-0.56851,-0.047,-0.80676,942
235,0.931,-0.133,0.396,0.427,0.366,0.0,-18.583,-65.836,-175.117,-26.727,-9.28,-14.233,27.38,0.05237,0.54178,-0.11255,0.83124,937,0.585,0.021,0.814,0.0,0.244,0.427,1.5,-35.733,-115.302,-20.64,-6.68,-5.987,26.9,0.51245,-0.25241,-0.17471,-0.80191,947,0.44,-0.031,0.892,0.0,0.427,0.427,-2.126,-26.049,174.419,-12.073,-6.7,-27.067,31.37,-0.05133,-0.22418,0.02893,-0.97272,939,0.92,-0.095,0.345,0.61,0.183,0.0,-15.76,-68.708,-147.651,-29.933,-9.453,-7.1,31.4,0.15369,-0.56851,-0.047,-0.80676,943
236,0.932,-0.134,0.396,0.427,0.305,0.0,-18.572,-65.825,-175.122,-26.727,-9.28,-14.233,27.38,0.05237,0.54178,-0.11255,0.83124,944,0.586,0.02,0.819,-0.183,0.061,0.183,1.494,-35.733,-115.296,-20.64,-6.68,-5.987,26.9,0.51245,-0.25241,-0.17471,-0.80191,948,0.438,-0.034,0.891,0.0,0.244,0.549,-2.131,-26.043,174.424,-12.073,-6.7,-27.067,31.37,-0.05133,-0.22418,0.02893,-0.97272,940,0.922,-0.095,0.345,0.427,0.122,0.0,-15.749,-68.708,-147.656,-29.933,-9.453,-7.1,31.4,0.15369,-0.56851,-0.047,-0.80676,952
237,0.932,-0.133,0.397,0.305,0.244,0.0,-18.561,-65.819,-175.128,-26.727,-9.28,-14.233,27.38,0.05237,0.54178,-0.11255,0.83124,945,0.587,0.019,0.818,-0.122,-0.366,0.061,1.489,-35.733,-115.291,-20.64,-6.68,-5.987,26.9,0.51245,-0.25241,-0.17471,-0.80191,949,0.438,-0.036,0.896,-0.244,0.244,0.366,-2.137,-26.038,174.435,-12.073,-6.7,-27.067,31.37,-0.05133,-0.22418,0.02893,-0.97272,941,0.921,-0.097,0.346,0.183,0.061,0.0,-15.743,-68.708,-147.667,-29.933,-9.453,-7.1,31.4,0.15369,-0.56851,-0.047,-0.80676,953
