Index,L5_Acceleration X(g),L5_Acceleration Y(g),L5_Acceleration Z(g),L5_Angular velocity X(°/s),L5_Angular velocity Y(°/s),L5_Angular velocity Z(°/s),L5_Angle X(°),L5_Angle Y(°),L5_Angle Z(°),L5_Magnetic field X(ʯt),L5_Magnetic field Y(ʯt),L5_Magnetic field Z(ʯt),L5_Temperature(℃),L5_Quaternions 0(),L5_Quaternions 1(),L5_Quaternions 2(),L5_Quaternions 3(),L5___orig_idx,T4_Acceleration X(g),T4_Acceleration Y(g),T4_Acceleration Z(g),T4_Angular velocity X(°/s),T4_Angular velocity Y(°/s),T4_Angular velocity Z(°/s),T4_Angle X(°),T4_Angle Y(°),T4_Angle Z(°),T4_Magnetic field X(ʯt),T4_Magnetic field Y(ʯt),T4_Magnetic field Z(ʯt),T4_Temperature(℃),T4_Quaternions 0(),T4_Quaternions 1(),T4_Quaternions 2(),T4_Quaternions 3(),T4___orig_idx,C7_Acceleration X(g),C7_Acceleration Y(g),C7_Acceleration Z(g),C7_Angular velocity X(°/s),C7_Angular velocity Y(°/s),C7_Angular velocity Z(°/s),C7_Angle X(°),C7_Angle Y(°),C7_Angle Z(°),C7_Magnetic field X(ʯt),C7_Magnetic field Y(ʯt),C7_Magnetic field Z(ʯt),C7_Temperature(℃),C7_Quaternions 0(),C7_Quaternions 1(),C7_Quaternions 2(),C7_Quaternions 3(),C7___orig_idx,T12_Acceleration X(g),T12_Acceleration Y(g),T12_Acceleration Z(g),T12_Angular velocity X(°/s),T12_Angular velocity Y(°/s),T12_Angular velocity Z(°/s),T12_Angle X(°),T12_Angle Y(°),T12_Angle Z(°),T12_Magnetic field X(ʯt),T12_Magnetic field Y(ʯt),T12_Magnetic field Z(ʯt),T12_Temperature(℃),T12_Quaternions 0(),T12_Quaternions 1(),T12_Quaternions 2(),T12_Quaternions 3(),T12___orig_idx
0,0.887,-0.046,0.501,0.427,-0.549,0.366,-5.306,-60.491,-176.627,-25.453,-9.1,-14.747,28.42,-0.00186,0.50409,-0.02527,0.86322,2,0.626,0.111,0.783,0.366,1.648,0.183,7.982,-38.348,-134.736,-18.84,-11.487,-5.093,26.54,0.38303,-0.27847,-0.18692,-0.86063,8,0.257,-0.003,0.968,1.282,1.526,0.183,-0.412,-14.76,173.76,-7.8,-9.547,-33.007,27.12,0.05423,0.12915,-0.01154,0.99002,0,0.911,0.11,0.374,0.916,-0.916,-0.183,16.051,-66.671,-169.931,-28.273,-13.033,-6.56,31.1,-0.15005,0.53143,0.16403,0.81735,4
1,0.889,-0.048,0.499,0.122,-0.793,0.366,-5.317,-60.502,-176.589,-25.453,-9.1,-14.747,28.42,-0.00186,0.50409,-0.02527,0.86322,3,0.623,0.112,0.778,0.305,1.526,0.0,7.987,-38.32,-134.725,-18.84,-11.487,-5.093,26.54,0.38303,-0.27847,-0.18692,-0.86063,9,0.256,-0.006,0.971,0.732,1.404,0.305,-0.396,-14.733,173.749,-7.8,-9.547,-33.007,27.12,0.05423,0.12915,-0.01154,0.99002,1,0.91,0.112,0.373,0.916,-0.916,0.0,16.078,-66.687,-169.975,-28.273,-13.033,-6.56,31.1,-0.15005,0.53143,0.16403,0.81735,5
2,0.889,-0.049,0.5,0.122,-0.977,0.366,-5.328,-60.518,-176.55,-25.453,-9.1,-14.747,28.42,-0.00186,0.50409,-0.02527,0.86322,12,0.619,0.11,0.779,0.732,1.282,-0.061,7.998,-38.293,-134.725,-18.84,-11.487,-5.093,26.54,0.38303,-0.27847,-0.18692,-0.86063,14,0.253,-0.005,0.968,0.671,0.549,0.244,-0.385,-14.711,173.743,-7.8,-9.547,-33.007,27.12,0.05423,0.12915,-0.01154,0.99002,6,0.908,0.109,0.374,0.549,-0.916,0.305,16.089,-66.709,-170.002,-28.273,-13.033,-6.56,31.1,-0.15005,0.53143,0.16403,0.81735,10
3,0.887,-0.049,0.5,0.305,-0.977,0.305,-5.339,-60.535,-176.512,-25.453,-9.1,-14.747,28.42,-0.00186,0.50409,-0.02527,0.86322,13,0.621,0.106,0.778,0.732,1.038,-0.061,8.015,-38.276,-134.725,-18.84,-11.487,-5.093,26.54,0.38303,-0.27847,-0.18692,-0.86063,15,0.251,-0.006,0.965,1.038,0.061,0.122,-0.368,-14.705,173.754,-7.8,-9.547,-33.007,27.12,0.05423,0.12915,-0.01154,0.99002,7,0.907,0.109,0.374,0.183,-0.854,0.427,16.089,-66.725,-170.024,-28.273,-13.033,-6.56,31.1,-0.15005,0.53143,0.16403,0.81735,11
4,0.886,-0.048,0.5,0.244,-0.977,0.244,-5.345,-60.551,-176.479,-25.453,-9.1,-14.747,28.42,-0.00186,0.50409,-0.02527,0.86322,18,0.621,0.107,0.775,0.671,0.732,0.061,8.026,-38.26,-134.714,-18.84,-11.487,-5.093,26.54,0.38303,-0.27847,-0.18692,-0.86063,26,0.253,-0.007,0.963,1.038,0.244,0.244,-0.346,-14.705,173.776,-7.8,-9.547,-33.007,27.12,0.05423,0.12915,-0.01154,0.99002,16,0.906,0.107,0.373,0.061,-0.793,0.305,16.089,-66.742,-170.052,-28.273,-13.033,-6.56,31.1,-0.15005,0.53143,0.16403,0.81735,20
5,0.888,-0.046,0.5,0.122,-0.977,0.122,-5.35,-60.568,-176.451,-25.453,-9.1,-14.747,28.42,-0.00186,0.50409,-0.02527,0.86322,19,0.619,0.108,0.772,0.61,0.488,0.122,8.031,-38.254,-134.703,-18.84,-11.487,-5.093,26.54,0.38303,-0.27847,-0.18692,-0.86063,27,0.255,-0.006,0.96,0.854,0.305,0.488,-0.33,-14.7,173.793,-7.8,-9.547,-33.007,27.12,0.05423,0.12915,-0.01154,0.99002,17,0.905,0.107,0.369,0.183,-0.671,0.122,16.095,-66.753,-170.085,-28.273,-13.033,-6.56,31.1,-0.15005,0.53143,0.16403,0.81735,21
6,0.888,-0.045,0.5,0.0,-0.732,0.122,-5.356,-60.584,-176.424,-25.453,-9.1,-14.747,28.42,-0.00186,0.50409,-0.02527,0.86322,24,0.623,0.106,0.776,0.427,0.366,0.183,8.036,-38.249,-134.698,-19.127,-11.713,-4.8,26.54,0.38303,-0.27847,-0.18692,-0.86063,32,0.253,-0.005,0.958,0.671,0.244,0.549,-0.324,-14.694,173.82,-7.8,-9.547,-33.007,27.12,0.05423,0.12915,-0.01154,0.99002,22,0.905,0.106,0.364,0.244,-0.488,0.061,16.106,-66.764,-170.118,-28.273,-13.033,-6.56,31.1,-0.15005,0.53143,0.16403,0.81735,28
7,0.889,-0.045,0.499,-0.061,-0.427,0.122,-5.361,-60.59,-176.402,-25.453,-9.1,-14.747,28.42,-0.00186,0.50409,-0.02527,0.86322,25,0.625,0.106,0.777,0.366,0.366,0.183,8.042,-38.243,-134.698,-19.127,-11.713,-4.8,26.54,0.38303,-0.27847,-0.18692,-0.86063,33,0.253,-0.008,0.961,0.427,0.305,0.61,-0.313,-14.689,173.837,-7.8,-9.547,-33.007,27.12,0.05423,0.12915,-0.01154,0.99002,23,0.91,0.107,0.368,0.122,-0.427,0.122,16.111,-66.775,-170.145,-28.273,-13.033,-6.56,31.1,-0.15005,0.53143,0.16403,0.81735,29
8,0.889,-0.045,0.5,-0.122,-0.366,0.061,-5.367,-60.595,-176.38,-25.453,-9.1,-14.747,28.42,-0.00186,0.50409,-0.02527,0.86322,30,0.625,0.108,0.777,0.122,0.427,0.122,8.042,-38.238,-134.703,-19.127,-11.713,-4.8,26.54,0.38303,-0.27847,-0.18692,-0.86063,40,0.256,-0.009,0.964,0.427,0.122,0.427,-0.313,-14.689,173.831,-7.8,-9.547,-33.007,27.12,0.05423,0.12915,-0.01154,0.99002,34,0.913,0.108,0.375,0.122,-0.427,0.122,16.111,-66.786,-170.173,-28.26,-13.48,-6.247,31.1,-0.15005,0.53143,0.16403,0.81735,36
9,0.889,-0.045,0.5,0.0,-0.366,0.061,-5.372,-60.601,-176.358,-25.453,-9.1,-14.747,28.42,-0.00186,0.50409,-0.02527,0.86322,31,0.624,0.11,0.777,0.122,0.793,0.0,8.042,-38.232,-134.703,-19.127,-11.713,-4.8,26.54,0.38303,-0.27847,-0.18692,-0.86063,41,0.26,-0.009,0.963,0.366,0.183,0.366,-0.308,-14.683,173.804,-7.8,-9.547,-33.007,27.12,0.05423,0.12915,-0.01154,0.99002,35,0.912,0.11,0.376,0.061,-0.305,0.0,16.117,-66.791,-170.206,-28.26,-13.48,-6.247,31.1,-0.15005,0.53143,0.16403,0.81735,37
10,0.889,-0.045,0.499,0.0,-0.488,0.061,-5.372,-60.606,-176.336,-25.453,-9.1,-14.747,28.42,-0.00186,0.50409,-0.02527,0.86322,38,0.621,0.111,0.778,0.122,1.038,-0.122,8.042,-38.216,-134.698,-19.127,-11.713,-4.8,26.54,0.38412,-0.27588,-0.18692,-0.86099,44,0.259,-0.007,0.961,0.183,0.793,0.183,-0.308,-14.672,173.771,-7.12,-9.573,-33.487,27.12,0.05423,0.12915,-0.01154,0.99002,42,0.909,0.112,0.372,0.305,-0.366,-0.061,16.133,-66.797,-170.239,-28.26,-13.48,-6.247,31.1,-0.14725,0.53305,0.16309,0.81699,46
11,0.888,-0.046,0.498,0.061,-0.488,0.122,-5.378,-60.617,-176.309,-25.453,-9.1,-14.747,28.42,-0.00186,0.50409,-0.02527,0.86322,39,0.618,0.114,0.781,0.0,1.221,-0.183,8.042,-38.199,-134.698,-19.127,-11.713,-4.8,26.54,0.38412,-0.27588,-0.18692,-0.86099,45,0.258,-0.006,0.962,0.244,1.526,0.0,-0.302,-14.65,173.721,-7.12,-9.573,-33.487,27.12,0.05423,0.12915,-0.01154,0.99002,43,0.908,0.111,0.372,0.427,-0.488,-0.061,16.155,-66.808,-170.277,-28.26,-13.48,-6.247,31.1,-0.14725,0.53305,0.16309,0.81699,47
12,0.886,-0.047,0.499,0.122,-0.427,0.183,-5.378,-60.623,-176.281,-25.453,-9.1,-14.747,28.42,-0.00186,0.50409,-0.02527,0.86322,52,0.616,0.114,0.781,0.122,1.282,-0.305,8.042,-38.172,-134.698,-19.127,-11.713,-4.8,26.54,0.38412,-0.27588,-0.18692,-0.86099,54,0.252,-0.004,0.965,0.549,2.075,-0.305,-0.291,-14.612,173.666,-7.12,-9.573,-33.487,27.12,0.05521,0.12677,-0.00955,0.9903,48,0.907,0.114,0.374,0.61,-0.61,0.0,16.177,-66.819,-170.316,-28.26,-13.48,-6.247,31.1,-0.14725,0.53305,0.16309,0.81699,50
13,0.886,-0.045,0.502,0.305,-0.366,0.183,-5.383,-60.628,-176.259,-25.453,-9.1,-14.747,28.42,-0.00186,0.50409,-0.02527,0.86322,53,0.616,0.114,0.781,0.0,1.526,-0.793,8.047,-38.15,-134.703,-19.127,-11.713,-4.8,26.54,0.38412,-0.27588,-0.18692,-0.86099,55,0.25,-0.002,0.968,0.671,2.258,-0.488,-0.28,-14.573,173.622,-7.12,-9.573,-33.487,27.12,0.05521,0.12677,-0.00955,0.9903,49,0.906,0.117,0.376,0.549,-0.549,0.122,16.194,-66.83,-170.343,-28.26,-13.48,-6.247,31.1,-0.14725,0.53305,0.16309,0.81699,51
14,0.888,-0.042,0.502,0.61,-0.244,0.366,-5.383,-60.628,-176.226,-25.393,-9.16,-14.747,28.42,-0.00186,0.50409,-0.02527,0.86322,58,0.617,0.112,0.777,0.488,1.892,-1.16,8.064,-38.117,-134.72,-19.127,-11.713,-4.8,26.54,0.38412,-0.27588,-0.18692,-0.86099,56,0.249,-0.002,0.97,0.61,1.831,-0.549,-0.264,-14.54,173.578,-7.12,-9.573,-33.487,27.12,0.05521,0.12677,-0.00955,0.9903,60,0.907,0.116,0.375,0.366,-0.671,0.305,16.205,-66.846,-170.365,-28.26,-13.48,-6.247,31.1,-0.14725,0.53305,0.16309,0.81699,62
15,0.888,-0.042,0.5,0.732,-0.488,0.61,-5.389,-60.639,-176.182,-25.393,-9.16,-14.747,28.42,-0.00186,0.50409,-0.02527,0.86322,59,0.614,0.112,0.778,0.549,1.953,-1.526,8.086,-38.079,-134.747,-19.127,-11.713,-4.8,26.54,0.38412,-0.27588,-0.18692,-0.86099,57,0.249,-0.002,0.964,0.549,1.831,-0.977,-0.247,-14.507,173.524,-7.12,-9.573,-33.487,27.12,0.05521,0.12677,-0.00955,0.9903,61,0.906,0.114,0.376,0.183,-1.038,0.427,16.21,-66.863,-170.381,-28.26,-13.48,-6.247,31.1,-0.14725,0.53305,0.16309,0.81699,63
16,0.886,-0.043,0.498,0.549,-0.732,0.732,-5.4,-60.65,-176.133,-25.393,-9.16,-14.747,28.42,-0.00186,0.50409,-0.02527,0.86322,68,0.612,0.111,0.777,0.427,1.831,-1.953,8.119,-38.035,-134.78,-19.127,-11.713,-4.8,26.54,0.38412,-0.27588,-0.18692,-0.86099,66,0.248,-0.004,0.959,0.854,1.953,-1.221,-0.231,-14.469,173.469,-7.12,-9.573,-33.487,27.12,0.05521,0.12677,-0.00955,0.9903,64,0.903,0.114,0.373,-0.061,-1.038,0.549,16.205,-66.885,-170.398,-28.26,-13.48,-6.247,31.1,-0.14725,0.53305,0.16309,0.81699,70
17,0.884,-0.044,0.497,0.244,-0.854,0.671,-5.416,-60.661,-176.083,-25.393,-9.16,-14.747,28.42,-0.00186,0.50409,-0.02527,0.86322,69,0.615,0.108,0.778,0.366,1.099,-2.075,8.157,-38.002,-134.819,-19.127,-11.713,-4.8,26.54,0.38412,-0.27588,-0.18692,-0.86099,67,0.243,-0.004,0.959,1.282,2.38,-1.587,-0.198,-14.425,173.425,-7.12,-9.573,-33.487,27.12,0.05521,0.12677,-0.00955,0.9903,65,0.907,0.11,0.362,0.0,-0.427,0.183,16.205,-66.896,-170.409,-28.26,-13.48,-6.247,31.1,-0.14725,0.53305,0.16309,0.81699,71
18,0.885,-0.044,0.5,0.122,-0.671,0.61,-5.433,-60.672,-176.039,-25.393,-9.16,-14.747,28.42,-0.00555,0.50552,-0.02356,0.86243,72,0.617,0.109,0.779,0.488,0.854,-1.648,8.19,-37.974,-134.857,-19.127,-11.713,-4.8,26.54,0.38412,-0.27588,-0.18692,-0.86099,76,0.245,-0.004,0.964,1.587,2.258,-2.014,-0.159,-14.387,173.392,-7.12,-9.573,-33.487,27.12,0.05521,0.12677,-0.00955,0.9903,74,0.912,0.104,0.366,-0.122,-0.366,-0.122,16.21,-66.907,-170.436,-28.26,-13.48,-6.247,31.1,-0.14725,0.53305,0.16309,0.81699,78
19,0.889,-0.043,0.502,0.305,-0.305,0.488,-5.444,-60.677,-176.001,-25.393,-9.16,-14.747,28.42,-0.00555,0.50552,-0.02356,0.86243,73,0.621,0.111,0.783,0.305,0.427,-1.038,8.218,-37.958,-134.885,-19.127,-11.713,-4.8,26.54,0.38412,-0.27588,-0.18692,-0.86099,77,0.246,-0.003,0.969,1.831,1.099,-1.892,-0.115,-14.359,173.353,-7.12,-9.573,-33.487,27.12,0.05521,0.12677,-0.00955,0.9903,75,0.914,0.101,0.367,-0.122,-0.244,-0.305,16.227,-66.912,-170.475,-28.26,-13.48,-6.247,31.1,-0.14725,0.53305,0.16309,0.81699,79
20,0.891,-0.045,0.503,0.549,-0.183,0.488,-5.444,-60.677,-175.968,-25.393,-9.16,-14.747,28.42,-0.00555,0.50552,-0.02356,0.86243,80,0.623,0.107,0.783,0.244,0.183,-0.732,8.24,-37.947,-134.901,-19.127,-11.713,-4.8,26.54,0.38412,-0.27588,-0.18692,-0.86099,84,0.247,0.001,0.967,1.404,-0.244,-1.282,-0.077,-14.359,173.309,-7.12,-9.573,-33.487,27.12,0.05521,0.12677,-0.00955,0.9903,82,0.916,0.102,0.369,0.122,-0.122,-0.305,16.249,-66.912,-170.519,-28.26,-13.48,-6.247,31.1,-0.14725,0.53305,0.16309,0.81699,88
21,0.893,-0.047,0.5,0.488,-0.305,0.427,-5.449,-60.677,-175.93,-25.393,-9.16,-14.747,28.42,-0.00555,0.50552,-0.02356,0.86243,81,0.621,0.108,0.782,0.122,0.0,-0.61,8.251,-37.947,-134.907,-19.127,-11.713,-4.8,26.54,0.38412,-0.27588,-0.18692,-0.86099,85,0.25,0.0,0.966,0.977,0.122,-0.977,-0.055,-14.359,173.282,-7.12,-9.573,-33.487,27.12,0.05521,0.12677,-0.00955,0.9903,83,0.914,0.105,0.369,0.488,-0.122,-0.244,16.265,-66.918,-170.557,-28.26,-13.48,-6.247,31.1,-0.14725,0.53305,0.16309,0.81699,89
22,0.894,-0.048,0.495,0.183,-0.305,0.366,-5.455,-60.683,-175.902,-25.393,-9.16,-14.747,28.42,-0.00555,0.50552,-0.02356,0.86243,90,0.617,0.11,0.78,0.0,-0.061,-0.549,8.256,-37.947,-134.918,-19.127,-11.713,-4.8,26.54,0.38412,-0.27588,-0.18692,-0.86099,98,0.251,-0.006,0.966,0.977,0.488,-0.916,-0.033,-14.354,173.265,-7.12,-9.573,-33.487,27.12,0.05521,0.12677,-0.00955,0.9903,86,0.909,0.106,0.368,0.549,-0.183,-0.244,16.287,-66.918,-170.596,-28.287,-13.133,-6.273,31.1,-0.14725,0.53305,0.16309,0.81699,92
23,0.892,-0.05,0.491,-0.061,-0.366,0.305,-5.466,-60.688,-175.869,-25.393,-9.16,-14.747,28.42,-0.00555,0.50552,-0.02356,0.86243,91,0.615,0.112,0.781,0.183,-0.061,-0.488,8.267,-37.947,-134.929,-19.127,-11.713,-4.8,26.54,0.38412,-0.27588,-0.18692,-0.86099,99,0.25,-0.005,0.968,0.916,0.61,-0.977,-0.011,-14.343,173.254,-7.12,-9.573,-33.487,27.12,0.05521,0.12677,-0.00955,0.9903,87,0.908,0.106,0.365,0.305,-0.427,-0.122,16.309,-66.923,-170.634,-28.287,-13.133,-6.273,31.1,-0.14725,0.53305,0.16309,0.81699,93
24,0.889,-0.052,0.491,0.0,-0.549,0.366,-5.482,-60.699,-175.836,-25.393,-9.16,-14.747,28.42,-0.00555,0.50552,-0.02356,0.86243,96,0.616,0.113,0.779,0.305,-0.183,-0.366,8.273,-37.952,-134.934,-18.767,-11.553,-4.453,26.54,0.38412,-0.27588,-0.18692,-0.86099,102,0.248,-0.001,0.967,0.61,0.488,-0.793,0.0,-14.332,173.249,-7.12,-9.573,-33.487,27.12,0.05521,0.12677,-0.00955,0.9903,94,0.908,0.105,0.366,0.244,-0.61,0.0,16.326,-66.934,-170.667,-28.287,-13.133,-6.273,31.1,-0.14725,0.53305,0.16309,0.81699,100
25,0.888,-0.053,0.495,0.183,-0.488,0.427,-5.493,-60.71,-175.803,-25.393,-9.16,-14.747,28.42,-0.00555,0.50552,-0.02356,0.86243,97,0.617,0.112,0.78,0.061,0.0,-0.122,8.284,-37.958,-134.945,-18.767,-11.553,-4.453,26.54,0.38412,-0.27588,-0.18692,-0.86099,103,0.248,0.001,0.967,0.427,0.488,-0.427,0.011,-14.326,173.271,-7.12,-9.573,-33.487,27.12,0.05521,0.12677,-0.00955,0.9903,95,0.911,0.104,0.37,0.305,-0.61,0.061,16.337,-66.951,-170.7,-28.287,-13.133,-6.273,31.1,-0.14725,0.53305,0.16309,0.81699,101
26,0.887,-0.053,0.499,0.305,-0.366,0.305,-5.499,-60.716,-175.776,-25.393,-9.16,-14.747,28.42,-0.00555,0.50552,-0.02356,0.86243,106,0.615,0.111,0.78,-0.061,0.183,0.0,8.284,-37.958,-134.967,-18.767,-11.553,-4.453,26.54,0.38412,-0.27588,-0.18692,-0.86099,112,0.248,0.001,0.966,0.244,0.061,-0.122,0.016,-14.321,173.315,-7.12,-9.573,-33.487,27.12,0.05521,0.12677,-0.00955,0.9903,104,0.909,0.106,0.372,0.366,-0.61,0.061,16.348,-66.967,-170.728,-28.287,-13.133,-6.273,31.1,-0.14511,0.53448,0.16241,0.81656,108
27,0.888,-0.051,0.5,0.305,-0.183,0.183,-5.504,-60.716,-175.754,-25.393,-9.16,-14.747,28.42,-0.00555,0.50552,-0.02356,0.86243,107,0.614,0.113,0.785,-0.366,0.427,-0.122,8.278,-37.952,-134.984,-18.767,-11.553,-4.453,26.54,0.38412,-0.27588,-0.18692,-0.86099,113,0.248,0.0,0.963,0.122,0.0,-0.061,0.016,-14.326,173.337,-7.12,-9.573,-33.487,27.12,0.05521,0.12677,-0.00955,0.9903,105,0.909,0.11,0.37,0.366,-0.488,0.183,16.353,-66.978,-170.755,-28.287,-13.133,-6.273,31.1,-0.14511,0.53448,0.16241,0.81656,109
28,0.89,-0.049,0.499,0.122,-0.122,0.122,-5.51,-60.716,-175.732,-25.393,-9.16,-14.747,28.42,-0.00555,0.50552,-0.02356,0.86243,110,0.615,0.116,0.79,-0.305,0.854,-0.488,8.273,-37.941,-135.0,-18.767,-11.553,-4.453,26.54,0.3826,-0.2735,-0.18713,-0.86237,114,0.246,-0.002,0.965,0.0,0.488,-0.061,0.016,-14.321,173.359,-8.013,-9.76,-34.24,27.12,0.05521,0.12677,-0.00955,0.9903,116,0.911,0.111,0.373,-0.366,-1.16,0.366,16.353,-66.995,-170.766,-28.287,-13.133,-6.273,31.1,-0.14511,0.53448,0.16241,0.81656,118
29,0.892,-0.048,0.495,0.0,0.0,0.183,-5.515,-60.716,-175.71,-25.393,-9.16,-14.747,28.42,-0.00555,0.50552,-0.02356,0.86243,111,0.614,0.119,0.792,0.244,1.099,-0.427,8.273,-37.925,-135.016,-18.767,-11.553,-4.453,26.54,0.3826,-0.2735,-0.18713,-0.86237,115,0.246,0.0,0.97,-0.183,0.549,-0.122,0.011,-14.31,173.381,-8.013,-9.76,-34.24,27.12,0.05521,0.12677,-0.00955,0.9903,117,0.913,0.11,0.372,-1.221,-2.258,0.549,16.342,-67.022,-170.76,-28.287,-13.133,-6.273,31.1,-0.14511,0.53448,0.16241,0.81656,119
30,0.894,-0.046,0.495,0.0,0.0,0.183,-5.526,-60.716,-175.688,-25.393,-9.16,-14.747,28.42,-0.00555,0.50552,-0.02356,0.86243,120,0.609,0.115,0.79,0.549,1.16,-0.183,8.278,-37.897,-135.022,-18.767,-11.553,-4.453,26.54,0.3826,-0.2735,-0.18713,-0.86237,126,0.247,0.004,0.979,-0.305,0.0,0.488,0.005,-14.31,173.403,-8.013,-9.76,-34.24,27.12,0.05707,0.12433,-0.00708,0.99054,122,0.909,0.114,0.373,-1.038,-2.747,0.427,16.326,-67.072,-170.771,-28.287,-13.133,-6.273,31.1,-0.14511,0.53448,0.16241,0.81656,124
31,0.891,-0.044,0.497,0.061,-0.061,0.061,-5.526,-60.716,-175.671,-25.393,-9.16,-14.747,28.42,-0.00555,0.50552,-0.02356,0.86243,121,0.605,0.117,0.784,0.549,1.16,-0.305,8.289,-37.875,-135.027,-18.767,-11.553,-4.453,26.54,0.3826,-0.2735,-0.18713,-0.86237,127,0.244,0.007,0.979,-0.122,-0.488,1.221,0.0,-14.315,173.436,-8.013,-9.76,-34.24,27.12,0.05707,0.12433,-0.00708,0.99054,123,0.905,0.115,0.37,-0.244,-2.808,0.244,16.331,-67.126,-170.804,-28.287,-13.133,-6.273,31.1,-0.14511,0.53448,0.16241,0.81656,125
32,0.881,-0.042,0.496,0.0,-0.427,0.0,-5.526,-60.727,-175.655,-25.447,-8.86,-14.107,28.42,-0.00555,0.50552,-0.02356,0.86243,136,0.607,0.119,0.779,0.549,0.61,-0.61,8.306,-37.853,-135.022,-18.767,-11.553,-4.453,26.54,0.3826,-0.2735,-0.18713,-0.86237,134,0.238,0.001,0.972,0.061,-0.916,1.526,-0.005,-14.332,173.485,-8.013,-9.76,-34.24,27.12,0.05707,0.12433,-0.00708,0.99054,128,0.902,0.116,0.369,-0.061,-2.502,0.183,16.353,-67.176,-170.821,-28.287,-13.133,-6.273,31.1,-0.14511,0.53448,0.16241,0.81656,130
33,0.882,-0.043,0.503,-0.305,-0.61,0.122,-5.537,-60.743,-175.638,-25.447,-8.86,-14.107,28.42,-0.00555,0.50552,-0.02356,0.86243,137,0.61,0.12,0.773,0.427,0.0,-0.793,8.328,-37.842,-135.038,-18.767,-11.553,-4.453,26.54,0.3826,-0.2735,-0.18713,-0.86237,135,0.239,0.001,0.963,0.977,-0.549,1.038,0.0,-14.343,173.535,-8.013,-9.76,-34.24,27.12,0.05707,0.12433,-0.00708,0.99054,129,0.904,0.114,0.362,0.0,-1.953,0.366,16.381,-67.22,-170.832,-28.287,-13.133,-6.273,31.1,-0.14511,0.53448,0.16241,0.81656,131
34,0.884,-0.047,0.504,0.0,-0.244,0.244,-5.543,-60.749,-175.616,-25.447,-8.86,-14.107,28.42,-0.00845,0.50629,-0.0224,0.86197,138,0.614,0.116,0.774,0.183,-0.305,-0.793,8.344,-37.837,-135.066,-18.767,-11.553,-4.453,26.54,0.3826,-0.2735,-0.18713,-0.86237,140,0.242,0.004,0.959,1.221,-0.549,0.244,0.022,-14.354,173.578,-8.013,-9.76,-34.24,27.12,0.05707,0.12433,-0.00708,0.99054,132,0.91,0.11,0.36,0.061,-1.16,0.549,16.392,-67.253,-170.81,-28.287,-13.133,-6.273,31.1,-0.14511,0.53448,0.16241,0.81656,142
35,0.887,-0.046,0.505,0.427,-0.183,0.488,-5.548,-60.749,-175.589,-25.447,-8.86,-14.107,28.42,-0.00845,0.50629,-0.0224,0.86197,139,0.617,0.112,0.777,0.427,-0.427,-0.61,8.366,-37.842,-135.104,-18.767,-11.553,-4.453,26.54,0.3826,-0.2735,-0.18713,-0.86237,141,0.248,0.006,0.957,0.427,-0.977,-0.122,0.033,-14.365,173.595,-8.013,-9.76,-34.24,27.12,0.05707,0.12433,-0.00708,0.99054,133,0.913,0.107,0.362,0.549,-0.977,0.366,16.397,-67.275,-170.771,-28.287,-13.133,-6.273,31.1,-0.14511,0.53448,0.16241,0.81656,143
36,0.892,-0.045,0.503,0.305,-0.366,0.61,-5.559,-60.749,-175.556,-25.447,-8.86,-14.107,28.42,-0.00845,0.50629,-0.0224,0.86197,146,0.619,0.111,0.778,0.366,-0.305,-0.366,8.383,-37.848,-135.137,-18.767,-11.553,-4.453,26.54,0.3826,-0.2735,-0.18713,-0.86237,148,0.25,0.003,0.956,-0.183,-1.16,-0.122,0.038,-14.387,173.606,-8.013,-9.76,-34.24,27.12,0.05707,0.12433,-0.00708,0.99054,144,0.915,0.106,0.363,0.916,-0.671,0.305,16.414,-67.291,-170.733,-28.287,-13.133,-6.273,31.1,-0.14511,0.53448,0.16241,0.81656,150
37,0.892,-0.046,0.498,0.0,-0.488,0.61,-5.57,-60.754,-175.512,-25.447,-8.86,-14.107,28.42,-0.00845,0.50629,-0.0224,0.86197,147,0.62,0.113,0.782,0.244,-0.061,-0.305,8.394,-37.853,-135.154,-18.767,-11.553,-4.453,26.54,0.3826,-0.2735,-0.18713,-0.86237,149,0.253,0.0,0.957,-0.793,-0.61,0.61,0.022,-14.398,173.639,-8.013,-9.76,-34.24,27.12,0.05707,0.12433,-0.00708,0.99054,145,0.916,0.106,0.36,1.038,-0.305,0.122,16.43,-67.297,-170.695,-28.287,-13.133,-6.273,31.1,-0.14511,0.53448,0.16241,0.81656,151
38,0.892,-0.048,0.492,0.0,-0.427,0.671,-5.592,-60.76,-175.474,-25.447,-8.86,-14.107,28.42,-0.00845,0.50629,-0.0224,0.86197,152,0.62,0.114,0.785,0.122,-0.061,-0.122,8.399,-37.853,-135.165,-18.767,-11.553,-4.453,26.54,0.3826,-0.2735,-0.18713,-0.86237,156,0.252,-0.002,0.963,-1.099,0.061,0.977,0.0,-14.403,173.683,-8.013,-9.76,-34.24,27.12,0.05707,0.12433,-0.00708,0.99054,154,0.916,0.105,0.36,1.099,-0.305,0.061,16.458,-67.308,-170.662,-27.827,-13.18,-5.253,31.1,-0.14511,0.53448,0.16241,0.81656,158
39,0.892,-0.05,0.491,0.305,-0.427,0.61,-5.614,-60.765,-175.435,-25.447,-8.86,-14.107,28.42,-0.00845,0.50629,-0.0224,0.86197,153,0.618,0.116,0.785,0.122,-0.305,0.0,8.405,-37.859,-135.176,-18.767,-11.553,-4.453,26.54,0.3826,-0.2735,-0.18713,-0.86237,157,0.252,-0.002,0.97,-1.465,0.061,1.221,-0.027,-14.398,173.71,-8.013,-9.76,-34.24,27.12,0.05707,0.12433,-0.00708,0.99054,155,0.915,0.106,0.359,0.854,-0.366,0.061,16.479,-67.313,-170.623,-27.827,-13.18,-5.253,31.1,-0.14511,0.53448,0.16241,0.81656,159
40,0.892,-0.051,0.493,0.488,-0.427,0.549,-5.625,-60.771,-175.397,-25.447,-8.86,-14.107,28.42,-0.00845,0.50629,-0.0224,0.86197,160,0.619,0.115,0.785,0.061,-0.366,0.061,8.405,-37.864,-135.187,-18.767,-11.553,-4.453,26.54,0.3826,-0.2735,-0.18713,-0.86237,168,0.251,-0.001,0.974,-1.831,-0.549,1.343,-0.066,-14.409,173.738,-8.013,-9.76,-34.24,27.12,0.05707,0.12433,-0.00708,0.99054,164,0.914,0.105,0.36,0.488,-0.488,0.122,16.496,-67.324,-170.623,-27.827,-13.18,-5.253,31.1,-0.14658,0.53696,0.16385,0.81439,162
41,0.893,-0.05,0.496,0.122,-0.488,0.366,-5.636,-60.776,-175.358,-25.447,-8.86,-14.107,28.42,-0.00845,0.50629,-0.0224,0.86197,161,0.617,0.115,0.781,0.183,-0.366,0.183,8.405,-37.87,-135.198,-18.767,-11.553,-4.453,26.54,0.3826,-0.2735,-0.18713,-0.86237,169,0.252,-0.002,0.974,-1.77,-1.465,1.343,-0.11,-14.431,173.765,-8.013,-9.76,-34.24,27.12,0.05707,0.12433,-0.00708,0.99054,165,0.914,0.106,0.359,0.366,-0.732,0.183,16.507,-67.335,-170.623,-27.827,-13.18,-5.253,31.1,-0.14658,0.53696,0.16385,0.81439,163
42,0.892,-0.049,0.495,-0.305,-0.305,0.183,-5.647,-60.782,-175.331,-25.447,-8.86,-14.107,28.42,-0.00845,0.50629,-0.0224,0.86197,166,0.618,0.116,0.781,0.061,-0.61,0.305,8.405,-37.886,-135.203,-18.74,-12.06,-4.56,26.54,0.3826,-0.2735,-0.18713,-0.86237,172,0.251,-0.001,0.968,-1.648,-1.892,1.709,-0.148,-14.469,173.798,-8.013,-9.76,-34.24,27.12,0.05707,0.12433,-0.00708,0.99054,174,0.913,0.108,0.357,0.366,-0.61,0.183,16.512,-67.352,-170.612,-27.827,-13.18,-5.253,31.1,-0.14658,0.53696,0.16385,0.81439,170
43,0.891,-0.05,0.494,-0.305,-0.183,0.122,-5.658,-60.787,-175.314,-25.447,-8.86,-14.107,28.42,-0.00845,0.50629,-0.0224,0.86197,167,0.615,0.11,0.778,0.122,-0.732,0.305,8.405,-37.897,-135.203,-18.74,-12.06,-4.56,26.54,0.3826,-0.2735,-0.18713,-0.86237,173,0.252,-0.001,0.965,-1.404,-1.038,2.319,-0.187,-14.496,173.842,-8.013,-9.76,-34.24,27.12,0.05707,0.12433,-0.00708,0.99054,175,0.913,0.107,0.356,0.427,-0.488,0.061,16.523,-67.368,-170.579,-27.827,-13.18,-5.253,31.1,-0.14658,0.53696,0.16385,0.81439,171
44,0.889,-0.051,0.495,0.0,-0.122,0.061,-5.663,-60.793,-175.298,-25.447,-8.86,-14.107,28.42,-0.00845,0.50629,-0.0224,0.86197,176,0.615,0.108,0.777,-0.122,-0.854,0.183,8.399,-37.914,-135.203,-18.74,-12.06,-4.56,26.54,0.3826,-0.2735,-0.18713,-0.86237,182,0.251,-0.006,0.964,-1.404,-1.648,1.648,-0.225,-14.524,173.886,-7.7,-9.533,-33.24,27.12,0.05707,0.12433,-0.00708,0.99054,178,0.91,0.104,0.359,0.244,-0.61,0.0,16.54,-67.379,-170.541,-27.827,-13.18,-5.253,31.1,-0.14658,0.53696,0.16385,0.81439,180
45,0.887,-0.052,0.497,0.061,0.0,0.0,-5.669,-60.793,-175.281,-25.447,-8.86,-14.107,28.42,-0.00845,0.50629,-0.0224,0.86197,177,0.617,0.112,0.777,-0.244,-0.793,0.061,8.394,-37.936,-135.203,-18.74,-12.06,-4.56,26.54,0.3826,-0.2735,-0.18713,-0.86237,183,0.25,-0.011,0.961,-1.16,-1.648,1.465,-0.258,-14.557,173.903,-7.7,-9.533,-33.24,27.12,0.05707,0.12433,-0.00708,0.99054,179,0.911,0.104,0.359,-0.061,-0.366,0.061,16.545,-67.396,-170.524,-27.827,-13.18,-5.253,31.1,-0.14658,0.53696,0.16385,0.81439,181
46,0.888,-0.052,0.499,-0.061,0.183,-0.122,-5.663,-60.793,-175.27,-25.447,-8.86,-14.107,28.42,-0.00845,0.50629,-0.0224,0.86197,184,0.62,0.111,0.781,-0.061,-0.793,0.122,8.388,-37.952,-135.209,-18.74,-12.06,-4.56,26.54,0.38129,-0.27341,-0.1875,-0.86288,186,0.253,-0.011,0.958,-1.038,-1.404,1.221,-0.286,-14.584,173.914,-7.7,-9.533,-33.24,27.12,0.05707,0.12433,-0.00708,0.99054,190,0.915,0.104,0.362,-0.122,-0.244,0.122,16.545,-67.401,-170.524,-27.827,-13.18,-5.253,31.1,-0.14658,0.53696,0.16385,0.81439,188
47,0.889,-0.052,0.5,-0.305,0.305,-0.305,-5.663,-60.787,-175.265,-25.447,-8.86,-14.107,28.42,-0.00845,0.50629,-0.0224,0.86197,185,0.622,0.11,0.783,0.0,-0.61,0.244,8.388,-37.969,-135.22,-18.74,-12.06,-4.56,26.54,0.38129,-0.27341,-0.1875,-0.86288,187,0.255,-0.009,0.962,-0.732,-1.404,0.61,-0.302,-14.612,173.914,-7.7,-9.533,-33.24,27.12,0.05707,0.12433,-0.00708,0.99054,191,0.917,0.105,0.363,0.061,-0.305,0.061,16.54,-67.412,-170.524,-27.827,-13.18,-5.253,31.1,-0.14658,0.53696,0.16385,0.81439,189
48,0.89,-0.05,0.499,-0.305,0.122,-0.366,-5.658,-60.782,-175.27,-25.34,-9.267,-15.133,28.42,-0.00845,0.50629,-0.0224,0.86197,192,0.619,0.11,0.781,-0.183,-0.61,0.366,8.377,-37.98,-135.22,-18.74,-12.06,-4.56,26.54,0.38129,-0.27341,-0.1875,-0.86288,200,0.256,-0.009,0.967,-0.305,-0.854,0.305,-0.313,-14.634,173.914,-7.7,-9.533,-33.24,27.12,0.05295,0.12701,-0.00949,0.99039,194,0.915,0.104,0.362,0.122,-0.244,-0.061,16.545,-67.418,-170.524,-27.827,-13.18,-5.253,31.1,-0.14658,0.53696,0.16385,0.81439,196
49,0.89,-0.05,0.499,-0.183,-0.183,-0.305,-5.652,-60.782,-175.27,-25.34,-9.267,-15.133,28.42,-0.00845,0.50629,-0.0224,0.86197,193,0.617,0.109,0.78,-0.244,-0.427,0.305,8.366,-37.991,-135.22,-18.74,-12.06,-4.56,26.54,0.38129,-0.27341,-0.1875,-0.86288,201,0.255,-0.011,0.97,-0.244,-0.793,0.305,-0.324,-14.65,173.914,-7.7,-9.533,-33.24,27.12,0.05295,0.12701,-0.00949,0.99039,195,0.913,0.104,0.361,0.0,0.0,-0.061,16.551,-67.423,-170.535,-27.827,-13.18,-5.253,31.1,-0.14658,0.53696,0.16385,0.81439,197
50,0.891,-0.049,0.498,0.0,-0.244,-0.305,-5.647,-60.782,-175.276,-25.34,-9.267,-15.133,28.42,-0.00845,0.50629,-0.0224,0.86197,198,0.615,0.111,0.779,-0.183,-0.244,0.366,8.355,-38.002,-135.22,-18.74,-12.06,-4.56,26.54,0.38129,-0.27341,-0.1875,-0.86288,206,0.255,-0.012,0.966,-0.244,-0.854,0.122,-0.33,-14.667,173.914,-7.7,-9.533,-33.24,27.12,0.05295,0.12701,-0.00949,0.99039,202,0.911,0.106,0.36,-0.122,0.183,-0.061,16.545,-67.423,-170.53,-27.827,-13.18,-5.253,31.1,-0.14658,0.53696,0.16385,0.81439,204
51,0.888,-0.048,0.496,0.0,-0.122,-0.366,-5.636,-60.787,-175.276,-25.34,-9.267,-15.133,28.42,-0.00845,0.50629,-0.0224,0.86197,199,0.613,0.115,0.778,-0.427,-0.244,0.427,8.339,-38.007,-135.209,-18.74,-12.06,-4.56,26.54,0.38129,-0.27341,-0.1875,-0.86288,207,0.254,-0.01,0.962,-0.122,-0.671,0.122,-0.335,-14.683,173.925,-7.7,-9.533,-33.24,27.12,0.05295,0.12701,-0.00949,0.99039,203,0.91,0.108,0.359,-0.183,0.244,-0.061,16.54,-67.423,-170.53,-27.827,-13.18,-5.253,31.1,-0.14658,0.53696,0.16385,0.81439,205
52,0.887,-0.047,0.496,-0.183,-0.061,-0.427,-5.625,-60.787,-175.281,-25.34,-9.267,-15.133,28.42,-0.01059,0.50662,-0.02161,0.86179,212,0.613,0.116,0.78,-0.549,-0.244,0.549,8.322,-38.018,-135.198,-18.74,-12.06,-4.56,26.54,0.38129,-0.27341,-0.1875,-0.86288,214,0.253,-0.007,0.964,-0.427,-0.671,0.244,-0.346,-14.694,173.93,-7.7,-9.533,-33.24,27.12,0.05295,0.12701,-0.00949,0.99039,208,0.909,0.111,0.359,-0.183,0.305,-0.061,16.534,-67.418,-170.508,-27.827,-13.18,-5.253,31.1,-0.14658,0.53696,0.16385,0.81439,210
53,0.889,-0.046,0.496,-0.244,0.0,-0.427,-5.614,-60.787,-175.287,-25.34,-9.267,-15.133,28.42,-0.01059,0.50662,-0.02161,0.86179,213,0.616,0.116,0.781,-0.549,-0.305,0.488,8.306,-38.024,-135.165,-18.74,-12.06,-4.56,26.54,0.38129,-0.27341,-0.1875,-0.86288,215,0.251,-0.003,0.963,-0.854,-1.038,0.366,-0.363,-14.716,173.925,-7.7,-9.533,-33.24,27.12,0.05295,0.12701,-0.00949,0.99039,209,0.91,0.113,0.36,-0.061,0.122,-0.183,16.534,-67.418,-170.497,-27.827,-13.18,-5.253,31.1,-0.14658,0.53696,0.16385,0.81439,211
54,0.89,-0.044,0.498,-0.183,0.244,-0.366,-5.609,-60.787,-175.292,-25.34,-9.267,-15.133,28.42,-0.01059,0.50662,-0.02161,0.86179,218,0.617,0.116,0.78,-0.61,-0.366,0.244,8.289,-38.029,-135.148,-18.74,-12.06,-4.56,26.54,0.38129,-0.27341,-0.1875,-0.86288,220,0.252,-0.004,0.962,-1.16,-1.16,0.366,-0.39,-14.738,173.941,-7.7,-9.533,-33.24,27.12,0.05295,0.12701,-0.00949,0.99039,216,0.912,0.112,0.361,-0.244,0.0,-0.244,16.54,-67.418,-170.502,-27.953,-13.16,-5.72,31.1,-0.14658,0.53696,0.16385,0.81439,222
55,0.891,-0.044,0.496,-0.061,0.305,-0.305,-5.598,-60.782,-175.298,-25.34,-9.267,-15.133,28.42,-0.01059,0.50662,-0.02161,0.86179,219,0.618,0.114,0.781,-0.549,-0.427,0.122,8.273,-38.04,-135.143,-18.74,-12.06,-4.56,26.54,0.38129,-0.27341,-0.1875,-0.86288,221,0.254,-0.005,0.962,-1.282,-0.977,0.244,-0.412,-14.755,173.958,-7.7,-9.533,-33.24,27.12,0.05295,0.12701,-0.00949,0.99039,217,0.913,0.112,0.362,-0.366,0.0,-0.244,16.551,-67.418,-170.508,-27.953,-13.16,-5.72,31.1,-0.14658,0.53696,0.16385,0.81439,223
56,0.889,-0.044,0.494,-0.061,0.061,-0.244,-5.581,-60.776,-175.298,-25.34,-9.267,-15.133,28.42,-0.01059,0.50662,-0.02161,0.86179,224,0.618,0.113,0.78,-0.061,-0.305,0.0,8.267,-38.046,-135.137,-18.74,-12.06,-4.56,26.54,0.38129,-0.27341,-0.1875,-0.86288,228,0.254,-0.006,0.963,-1.16,-1.16,0.0,-0.439,-14.777,173.969,-7.7,-9.533,-33.24,27.12,0.05295,0.12701,-0.00949,0.99039,226,0.913,0.111,0.362,-0.366,0.0,-0.305,16.562,-67.418,-170.53,-27.953,-13.16,-5.72,31.1,-0.14764,0.53738,0.16473,0.81375,230
57,0.888,-0.045,0.493,-0.183,-0.061,-0.244,-5.576,-60.776,-175.298,-25.34,-9.267,-15.133,28.42,-0.01059,0.50662,-0.02161,0.86179,225,0.618,0.115,0.78,-0.244,-0.427,0.061,8.267,-38.051,-135.132,-18.74,-12.06,-4.56,26.54,0.38129,-0.27341,-0.1875,-0.86288,229,0.255,-0.008,0.964,-0.916,-1.221,0.0,-0.456,-14.804,173.963,-7.7,-9.533,-33.24,27.12,0.05295,0.12701,-0.00949,0.99039,227,0.912,0.111,0.363,-0.305,0.0,-0.305,16.573,-67.412,-170.568,-27.953,-13.16,-5.72,31.1,-0.14764,0.53738,0.16473,0.81375,231
58,0.887,-0.046,0.496,-0.366,-0.122,-0.244,-5.57,-60.776,-175.298,-25.34,-9.267,-15.133,28.42,-0.01059,0.50662,-0.02161,0.86179,232,0.618,0.115,0.778,0.0,-0.427,0.0,8.262,-38.062,-135.121,-18.74,-12.06,-4.56,26.54,0.38129,-0.27341,-0.1875,-0.86288,240,0.258,-0.006,0.964,-0.549,-0.732,0.366,-0.472,-14.815,173.979,-7.7,-9.533,-33.24,27.12,0.05295,0.12701,-0.00949,0.99039,234,0.911,0.112,0.359,0.0,0.0,-0.366,16.589,-67.412,-170.601,-27.953,-13.16,-5.72,31.1,-0.14764,0.53738,0.16473,0.81375,236
59,0.888,-0.047,0.499,-0.427,0.061,-0.183,-5.565,-60.776,-175.298,-25.34,-9.267,-15.133,28.42,-0.01059,0.50662,-0.02161,0.86179,233,0.619,0.117,0.777,-0.122,-0.488,-0.061,8.267,-38.068,-135.121,-18.74,-12.06,-4.56,26.54,0.38129,-0.27341,-0.1875,-0.86288,241,0.257,-0.007,0.962,-0.732,-0.793,0.244,-0.483,-14.832,174.001,-7.7,-9.533,-33.24,27.12,0.05295,0.12701,-0.00949,0.99039,235,0.912,0.112,0.36,0.244,0.061,-0.244,16.611,-67.412,-170.623,-27.953,-13.16,-5.72,31.1,-0.14764,0.53738,0.16473,0.81375,237
60,0.888,-0.048,0.5,-0.061,0.244,-0.122,-5.565,-60.776,-175.298,-25.34,-9.267,-15.133,28.42,-0.01059,0.50662,-0.02161,0.86179,242,0.62,0.117,0.778,-0.244,-0.305,0.0,8.267,-38.079,-135.121,-19.08,-11.587,-4.587,26.54,0.38129,-0.27341,-0.1875,-0.86288,246,0.258,-0.006,0.961,-0.977,-0.549,0.122,-0.505,-14.843,174.012,-7.7,-9.533,-33.24,27.12,0.05295,0.12701,-0.00949,0.99039,238,0.914,0.111,0.363,0.427,0.0,-0.183,16.633,-67.412,-170.634,-27.953,-13.16,-5.72,31.1,-0.14764,0.53738,0.16473,0.81375,244
61,0.888,-0.048,0.499,0.244,0.183,0.0,-5.554,-60.771,-175.292,-25.34,-9.267,-15.133,28.42,-0.01059,0.50662,-0.02161,0.86179,243,0.619,0.114,0.777,-0.244,0.0,0.061,8.262,-38.079,-135.104,-19.08,-11.587,-4.587,26.54,0.38129,-0.27341,-0.1875,-0.86288,247,0.262,-0.005,0.962,-0.793,-0.854,-0.122,-0.516,-14.859,174.012,-7.7,-9.533,-33.24,27.12,0.05295,0.12701,-0.00949,0.99039,239,0.914,0.109,0.362,0.244,0.183,-0.122,16.65,-67.407,-170.651,-27.953,-13.16,-5.72,31.1,-0.14764,0.53738,0.16473,0.81375,245
62,0.889,-0.048,0.497,0.305,0.0,0.0,-5.548,-60.765,-175.281,-25.34,-9.267,-15.133,28.42,-0.01059,0.50662,-0.02161,0.86179,252,0.618,0.11,0.777,-0.183,0.0,0.183,8.256,-38.084,-135.088,-19.08,-11.587,-4.587,26.54,0.38129,-0.27341,-0.1875,-0.86288,256,0.26,-0.005,0.962,-0.854,-1.038,-0.122,-0.533,-14.881,174.023,-7.96,-9.68,-33.633,27.12,0.05295,0.12701,-0.00949,0.99039,248,0.912,0.108,0.362,0.0,0.305,0.0,16.65,-67.407,-170.623,-27.953,-13.16,-5.72,31.1,-0.14764,0.53738,0.16473,0.81375,250
63,0.889,-0.048,0.497,0.122,0.0,0.122,-5.543,-60.765,-175.27,-25.34,-9.267,-15.133,28.42,-0.01059,0.50662,-0.02161,0.86179,253,0.619,0.109,0.779,-0.244,-0.061,0.122,8.251,-38.084,-135.071,-19.08,-11.587,-4.587,26.54,0.38129,-0.27341,-0.1875,-0.86288,257,0.258,-0.009,0.962,-1.221,-0.916,0.122,-0.555,-14.897,174.034,-7.96,-9.68,-33.633,27.12,0.05295,0.12701,-0.00949,0.99039,249,0.911,0.108,0.361,0.0,0.366,0.0,16.65,-67.401,-170.618,-27.953,-13.16,-5.72,31.1,-0.14764,0.53738,0.16473,0.81375,251
64,0.889,-0.048,0.496,-0.061,0.061,0.061,-5.543,-60.76,-175.259,-24.9,-9.213,-14.46,28.42,-0.01059,0.50662,-0.02161,0.86179,258,0.62,0.108,0.778,-0.244,-0.061,-0.122,8.245,-38.084,-135.066,-19.08,-11.587,-4.587,26.54,0.38193,-0.27475,-0.18719,-0.86227,260,0.257,-0.014,0.96,-1.221,-0.793,0.549,-0.577,-14.919,174.051,-7.96,-9.68,-33.633,27.12,0.05295,0.12701,-0.00949,0.99039,254,0.913,0.108,0.36,0.122,0.183,0.0,16.65,-67.396,-170.618,-27.953,-13.16,-5.72,31.1,-0.14764,0.53738,0.16473,0.81375,262
65,0.889,-0.048,0.497,-0.183,0.122,-0.061,-5.548,-60.76,-175.248,-24.9,-9.213,-14.46,28.42,-0.01059,0.50662,-0.02161,0.86179,259,0.618,0.108,0.776,-0.244,0.0,-0.244,8.245,-38.09,-135.082,-19.08,-11.587,-4.587,26.54,0.38193,-0.27475,-0.18719,-0.86227,261,0.259,-0.016,0.961,-1.16,-0.61,0.244,-0.604,-14.93,174.073,-7.96,-9.68,-33.633,27.12,0.05295,0.12701,-0.00949,0.99039,255,0.913,0.107,0.361,0.0,0.0,-0.122,16.655,-67.396,-170.618,-27.953,-13.16,-5.72,31.1,-0.14764,0.53738,0.16473,0.81375,263
66,0.889,-0.047,0.497,-0.061,0.061,-0.122,-5.543,-60.754,-175.243,-24.9,-9.213,-14.46,28.42,-0.01059,0.50662,-0.02161,0.86179,264,0.618,0.107,0.778,-0.305,0.0,-0.671,8.245,-38.09,-135.104,-19.08,-11.587,-4.587,26.54,0.38193,-0.27475,-0.18719,-0.86227,266,0.259,-0.017,0.958,-0.732,-0.427,0.0,-0.621,-14.941,174.106,-7.96,-9.68,-33.633,27.12,0.05194,0.12946,-0.0119,0.99011,268,0.912,0.108,0.361,-0.122,0.0,-0.061,16.661,-67.396,-170.618,-27.953,-13.16,-5.72,31.1,-0.14764,0.53738,0.16473,0.81375,270
67,0.888,-0.046,0.496,0.0,0.122,-0.183,-5.537,-60.754,-175.243,-24.9,-9.213,-14.46,28.42,-0.01059,0.50662,-0.02161,0.86179,265,0.617,0.105,0.779,-0.244,0.0,-1.099,8.251,-38.084,-135.143,-19.08,-11.587,-4.587,26.54,0.38193,-0.27475,-0.18719,-0.86227,267,0.257,-0.02,0.958,0.0,-0.977,-0.549,-0.621,-14.958,174.117,-7.96,-9.68,-33.633,27.12,0.05194,0.12946,-0.0119,0.99011,269,0.911,0.11,0.359,-0.183,0.122,-0.183,16.666,-67.396,-170.612,-27.953,-13.16,-5.72,31.1,-0.14764,0.53738,0.16473,0.81375,271
68,0.889,-0.046,0.496,0.0,0.122,-0.244,-5.532,-60.749,-175.243,-24.9,-9.213,-14.46,28.42,-0.01132,0.50638,-0.02066,0.86194,272,0.618,0.111,0.781,-0.305,0.0,-1.038,8.262,-38.084,-135.17,-19.08,-11.587,-4.587,26.54,0.38193,-0.27475,-0.18719,-0.86227,276,0.259,-0.021,0.96,1.404,-0.854,-1.404,-0.599,-14.98,174.111,-7.96,-9.68,-33.633,27.12,0.05194,0.12946,-0.0119,0.99011,274,0.912,0.108,0.361,-0.366,0.183,-0.427,16.677,-67.39,-170.607,-28.207,-12.88,-5.92,31.1,-0.14764,0.53738,0.16473,0.81375,280
69,0.888,-0.047,0.497,-0.122,0.183,-0.305,-5.521,-60.749,-175.243,-24.9,-9.213,-14.46,28.42,-0.01132,0.50638,-0.02066,0.86194,273,0.618,0.119,0.781,-0.366,-0.305,-0.488,8.262,-38.09,-135.181,-19.08,-11.587,-4.587,26.54,0.38193,-0.27475,-0.18719,-0.86227,277,0.259,-0.014,0.964,1.953,-0.854,-1.526,-0.555,-14.996,174.089,-7.96,-9.68,-33.633,27.12,0.05194,0.12946,-0.0119,0.99011,275,0.913,0.107,0.362,-0.488,0.061,-0.488,16.688,-67.39,-170.623,-28.207,-12.88,-5.92,31.1,-0.14764,0.53738,0.16473,0.81375,281
70,0.889,-0.049,0.499,-0.183,0.0,-0.366,-5.51,-60.749,-175.248,-24.9,-9.213,-14.46,28.42,-0.01132,0.50638,-0.02066,0.86194,282,0.618,0.121,0.779,-0.244,-0.549,0.183,8.256,-38.101,-135.187,-19.08,-11.587,-4.587,26.54,0.38193,-0.27475,-0.18719,-0.86227,288,0.261,-0.002,0.967,0.916,-0.732,-0.793,-0.533,-15.013,174.067,-7.96,-9.68,-33.633,27.12,0.05194,0.12946,-0.0119,0.99011,278,0.913,0.108,0.362,-0.305,0.183,-0.366,16.699,-67.385,-170.64,-28.207,-12.88,-5.92,31.1,-0.1474,0.53717,0.16516,0.81384,284
71,0.888,-0.049,0.497,-0.305,0.0,-0.305,-5.504,-60.743,-175.254,-24.9,-9.213,-14.46,28.42,-0.01132,0.50638,-0.02066,0.86194,283,0.618,0.118,0.778,-0.122,-0.549,0.671,8.245,-38.112,-135.187,-19.08,-11.587,-4.587,26.54,0.38193,-0.27475,-0.18719,-0.86227,289,0.262,0.004,0.965,-0.305,-0.854,0.061,-0.533,-15.029,174.073,-7.96,-9.68,-33.633,27.12,0.05194,0.12946,-0.0119,0.99011,279,0.911,0.11,0.362,-0.061,0.305,-0.122,16.699,-67.379,-170.64,-28.207,-12.88,-5.92,31.1,-0.1474,0.53717,0.16516,0.81384,285
72,0.887,-0.047,0.498,-0.061,-0.061,-0.061,-5.499,-60.743,-175.254,-24.9,-9.213,-14.46,28.42,-0.01132,0.50638,-0.02066,0.86194,290,0.621,0.113,0.776,0.0,-0.61,0.671,8.234,-38.123,-135.176,-19.08,-11.587,-4.587,26.54,0.38193,-0.27475,-0.18719,-0.86227,292,0.258,0.0,0.96,-1.038,-1.282,0.61,-0.555,-15.051,174.117,-7.96,-9.68,-33.633,27.12,0.05194,0.12946,-0.0119,0.99011,286,0.911,0.111,0.363,0.061,0.305,0.0,16.699,-67.379,-170.64,-28.207,-12.88,-5.92,31.1,-0.1474,0.53717,0.16516,0.81384,294
73,0.887,-0.046,0.498,0.305,0.0,0.122,-5.499,-60.743,-175.243,-24.9,-9.213,-14.46,28.42,-0.01132,0.50638,-0.02066,0.86194,291,0.619,0.111,0.775,-0.244,-0.549,0.549,8.229,-38.139,-135.165,-19.08,-11.587,-4.587,26.54,0.38193,-0.27475,-0.18719,-0.86227,293,0.263,-0.007,0.956,-1.282,-1.587,0.732,-0.582,-15.084,174.161,-7.96,-9.68,-33.633,27.12,0.05194,0.12946,-0.0119,0.99011,287,0.911,0.111,0.362,0.305,0.366,0.061,16.699,-67.374,-170.629,-28.207,-12.88,-5.92,31.1,-0.1474,0.53717,0.16516,0.81384,295
74,0.886,-0.046,0.499,0.488,0.0,0.244,-5.493,-60.743,-175.226,-24.9,-9.213,-14.46,28.42,-0.01132,0.50638,-0.02066,0.86194,298,0.619,0.111,0.776,-0.366,-0.305,0.366,8.218,-38.15,-135.154,-19.08,-11.587,-4.587,26.54,0.38193,-0.27475,-0.18719,-0.86227,300,0.264,-0.011,0.956,-1.404,-0.793,0.549,-0.615,-15.101,174.188,-7.96,-9.68,-33.633,27.12,0.05194,0.12946,-0.0119,0.99011,296,0.91,0.111,0.361,0.0,0.427,0.122,16.688,-67.363,-170.574,-28.207,-12.88,-5.92,31.1,-0.1474,0.53717,0.16516,0.81384,302
75,0.888,-0.046,0.499,0.183,0.0,0.061,-5.493,-60.743,-175.21,-24.9,-9.213,-14.46,28.42,-0.01132,0.50638,-0.02066,0.86194,299,0.62,0.11,0.779,-0.183,-0.244,0.183,8.207,-38.156,-135.154,-19.08,-11.587,-4.587,26.54,0.38193,-0.27475,-0.18719,-0.86227,301,0.263,-0.012,0.957,-2.014,-0.549,0.793,-0.659,-15.112,174.216,-7.96,-9.68,-33.633,27.12,0.05194,0.12946,-0.0119,0.99011,297,0.912,0.111,0.364,-0.244,0.427,0.183,16.672,-67.357,-170.508,-28.207,-12.88,-5.92,31.1,-0.1474,0.53717,0.16516,0.81384,303
76,0.889,-0.043,0.499,-0.244,0.0,-0.061,-5.493,-60.738,-175.204,-24.9,-9.213,-14.46,28.42,-0.01132,0.50638,-0.02066,0.86194,304,0.621,0.111,0.779,0.0,-0.061,0.183,8.207,-38.156,-135.154,-19.08,-11.587,-4.587,26.54,0.38193,-0.27475,-0.18719,-0.86227,312,0.262,-0.014,0.96,-2.014,-0.122,1.038,-0.703,-15.117,174.243,-7.96,-9.68,-33.633,27.12,0.05194,0.12946,-0.0119,0.99011,306,0.912,0.11,0.366,-0.183,0.305,0.122,16.661,-67.357,-170.447,-28.207,-12.88,-5.92,31.1,-0.1474,0.53717,0.16516,0.81384,308
77,0.889,-0.043,0.498,-0.244,0.0,-0.061,-5.493,-60.738,-175.199,-24.9,-9.213,-14.46,28.42,-0.01132,0.50638,-0.02066,0.86194,305,0.62,0.114,0.778,-0.183,0.244,0.061,8.201,-38.156,-135.148,-19.08,-11.587,-4.587,26.54,0.38193,-0.27475,-0.18719,-0.86227,313,0.264,-0.014,0.961,-1.526,0.366,1.221,-0.736,-15.112,174.265,-7.96,-9.68,-33.633,27.12,0.05194,0.12946,-0.0119,0.99011,307,0.912,0.113,0.364,-0.061,0.244,0.0,16.661,-67.352,-170.409,-28.207,-12.88,-5.92,31.1,-0.1474,0.53717,0.16516,0.81384,309
78,0.888,-0.045,0.495,0.366,-0.244,0.183,-5.493,-60.738,-175.188,-24.9,-9.213,-14.46,28.42,-0.01132,0.50638,-0.02066,0.86194,310,0.619,0.115,0.781,0.0,0.549,-0.305,8.201,-38.145,-135.154,-18.893,-11.673,-5.093,26.54,0.38193,-0.27475,-0.18719,-0.86227,320,0.265,-0.013,0.959,-1.282,0.793,1.16,-0.769,-15.095,174.276,-7.96,-9.68,-33.633,27.12,0.05194,0.12946,-0.0119,0.99011,314,0.912,0.114,0.365,-0.183,0.122,0.0,16.661,-67.346,-170.398,-28.207,-12.88,-5.92,31.1,-0.1474,0.53717,0.16516,0.81384,316
79,0.887,-0.047,0.493,0.671,-0.366,0.305,-5.488,-60.743,-175.172,-24.9,-9.213,-14.46,28.42,-0.01132,0.50638,-0.02066,0.86194,311,0.618,0.111,0.78,0.061,0.61,-0.488,8.212,-38.134,-135.165,-18.893,-11.673,-5.093,26.54,0.38193,-0.27475,-0.18719,-0.86227,321,0.26,-0.015,0.961,-0.671,1.587,0.732,-0.786,-15.068,174.26,-7.96,-9.68,-33.633,27.12,0.05194,0.12946,-0.0119,0.99011,315,0.911,0.111,0.364,0.122,0.122,0.061,16.661,-67.346,-170.376,-28.207,-12.88,-5.92,31.1,-0.1474,0.53717,0.16516,0.81384,317
80,0.887,-0.047,0.498,0.305,-0.488,0.244,-5.488,-60.754,-175.15,-24.9,-9.213,-14.46,28.42,-0.01132,0.50638,-0.02066,0.86194,322,0.617,0.112,0.779,0.0,0.732,-0.488,8.218,-38.117,-135.181,-18.893,-11.673,-5.093,26.54,0.38193,-0.27475,-0.18719,-0.86227,326,0.26,-0.014,0.964,0.0,1.831,0.305,-0.786,-15.029,174.243,-7.807,-9.24,-33.707,27.12,0.05194,0.12946,-0.0119,0.99011,318,0.911,0.111,0.364,0.305,0.366,0.061,16.666,-67.341,-170.349,-28.207,-12.88,-5.92,31.1,-0.1474,0.53717,0.16516,0.81384,324
81,0.889,-0.046,0.504,-0.061,-0.305,0.061,-5.493,-60.76,-175.133,-24.9,-9.213,-14.46,28.42,-0.01132,0.50638,-0.02066,0.86194,323,0.619,0.116,0.776,0.0,0.671,-0.732,8.223,-38.106,-135.198,-18.893,-11.673,-5.093,26.54,0.38193,-0.27475,-0.18719,-0.86227,327,0.258,-0.015,0.962,0.366,1.831,0.244,-0.78,-14.996,174.205,-7.807,-9.24,-33.707,27.12,0.05194,0.12946,-0.0119,0.99011,319,0.912,0.112,0.363,-0.061,0.488,0.122,16.655,-67.33,-170.343,-28.207,-12.88,-5.92,31.1,-0.1474,0.53717,0.16516,0.81384,325
82,0.891,-0.046,0.502,0.0,-0.183,0.122,-5.493,-60.76,-175.122,-25.44,-9.58,-15.2,28.42,-0.01132,0.50638,-0.02066,0.86194,334,0.617,0.111,0.779,0.305,0.732,-0.732,8.24,-38.09,-135.209,-18.893,-11.673,-5.093,26.54,0.38089,-0.27515,-0.18677,-0.8627,330,0.261,-0.013,0.962,0.366,1.831,0.0,-0.775,-14.963,174.172,-7.807,-9.24,-33.707,27.12,0.05194,0.12946,-0.0119,0.99011,328,0.912,0.111,0.361,-0.366,0.732,0.244,16.633,-67.319,-170.327,-28.207,-12.88,-5.92,31.1,-0.1474,0.53717,0.16516,0.81384,332
83,0.891,-0.047,0.496,0.061,-0.183,0.122,-5.499,-60.76,-175.106,-25.44,-9.58,-15.2,28.42,-0.01132,0.50638,-0.02066,0.86194,335,0.616,0.104,0.781,0.305,0.732,-0.183,8.251,-38.073,-135.214,-18.893,-11.673,-5.093,26.54,0.38089,-0.27515,-0.18677,-0.8627,331,0.257,-0.011,0.964,0.549,1.465,-0.671,-0.758,-14.936,174.117,-7.807,-9.24,-33.707,27.12,0.05194,0.12946,-0.0119,0.99011,329,0.91,0.103,0.36,-0.183,0.549,0.122,16.622,-67.313,-170.31,-28.207,-12.88,-5.92,31.1,-0.1474,0.53717,0.16516,0.81384,333
84,0.889,-0.047,0.492,0.0,-0.244,0.244,-5.499,-60.765,-175.089,-25.44,-9.58,-15.2,28.42,-0.0126,0.50647,-0.01974,0.86188,336,0.616,0.11,0.779,-0.122,0.732,0.061,8.245,-38.062,-135.209,-18.893,-11.673,-5.093,26.54,0.38089,-0.27515,-0.18677,-0.8627,338,0.256,-0.015,0.965,0.488,1.038,-0.549,-0.747,-14.919,174.067,-7.807,-9.24,-33.707,27.12,0.05145,0.12958,-0.01328,0.99008,340,0.911,0.102,0.362,0.0,0.244,0.0,16.617,-67.308,-170.288,-28.1,-13.153,-6.04,31.1,-0.1474,0.53717,0.16516,0.81384,342
85,0.888,-0.049,0.493,0.0,-0.244,0.244,-5.51,-60.765,-175.073,-25.44,-9.58,-15.2,28.42,-0.0126,0.50647,-0.01974,0.86188,337,0.617,0.113,0.782,0.0,0.61,0.061,8.24,-38.051,-135.203,-18.893,-11.673,-5.093,26.54,0.38089,-0.27515,-0.18677,-0.8627,339,0.255,-0.016,0.961,-0.122,0.977,0.122,-0.747,-14.903,174.023,-7.807,-9.24,-33.707,27.12,0.05145,0.12958,-0.01328,0.99008,341,0.911,0.106,0.363,0.183,0.061,0.0,16.622,-67.308,-170.277,-28.1,-13.153,-6.04,31.1,-0.1474,0.53717,0.16516,0.81384,343
86,0.89,-0.048,0.496,0.244,-0.183,0.183,-5.515,-60.771,-175.056,-25.44,-9.58,-15.2,28.42,-0.0126,0.50647,-0.01974,0.86188,346,0.619,0.109,0.784,0.0,0.488,0.0,8.24,-38.04,-135.198,-18.893,-11.673,-5.093,26.54,0.38089,-0.27515,-0.18677,-0.8627,344,0.254,-0.013,0.96,-0.061,0.977,0.244,-0.753,-14.886,173.99,-7.807,-9.24,-33.707,27.12,0.05145,0.12958,-0.01328,0.99008,348,0.913,0.109,0.362,0.366,0.061,0.122,16.622,-67.308,-170.266,-28.1,-13.153,-6.04,31.1,-0.14969,0.53616,0.16641,0.81384,350
87,0.891,-0.047,0.497,0.061,-0.244,0.122,-5.515,-60.776,-175.045,-25.44,-9.58,-15.2,28.42,-0.0126,0.50647,-0.01974,0.86188,347,0.618,0.108,0.785,0.122,0.244,0.0,8.24,-38.035,-135.198,-18.893,-11.673,-5.093,26.54,0.38089,-0.27515,-0.18677,-0.8627,345,0.255,-0.016,0.967,-0.061,0.854,-0.061,-0.753,-14.87,173.979,-7.807,-9.24,-33.707,27.12,0.05145,0.12958,-0.01328,0.99008,349,0.914,0.11,0.363,0.366,-0.061,0.061,16.628,-67.313,-170.255,-28.1,-13.153,-6.04,31.1,-0.14969,0.53616,0.16641,0.81384,351
88,0.889,-0.047,0.497,0.0,-0.244,0.061,-5.521,-60.776,-175.029,-25.44,-9.58,-15.2,28.42,-0.0126,0.50647,-0.01974,0.86188,352,0.615,0.11,0.782,0.061,0.061,-0.122,8.24,-38.035,-135.198,-18.893,-11.673,-5.093,26.54,0.38089,-0.27515,-0.18677,-0.8627,358,0.256,-0.017,0.97,0.0,0.488,-0.061,-0.758,-14.859,173.958,-7.807,-9.24,-33.707,27.12,0.05145,0.12958,-0.01328,0.99008,354,0.912,0.109,0.362,0.427,-0.244,-0.122,16.644,-67.319,-170.255,-28.1,-13.153,-6.04,31.1,-0.14969,0.53616,0.16641,0.81384,356
89,0.889,-0.047,0.496,0.0,-0.244,0.061,-5.521,-60.782,-175.023,-25.44,-9.58,-15.2,28.42,-0.0126,0.50647,-0.01974,0.86188,353,0.614,0.112,0.78,0.0,-0.061,-0.183,8.24,-38.035,-135.198,-18.893,-11.673,-5.093,26.54,0.38089,-0.27515,-0.18677,-0.8627,359,0.255,-0.019,0.967,0.244,0.122,-0.061,-0.753,-14.859,173.941,-7.807,-9.24,-33.707,27.12,0.05145,0.12958,-0.01328,0.99008,355,0.909,0.108,0.361,0.305,-0.244,-0.183,16.666,-67.324,-170.261,-28.1,-13.153,-6.04,31.1,-0.14969,0.53616,0.16641,0.81384,357
90,0.888,-0.048,0.497,0.0,-0.122,0.183,-5.526,-60.782,-175.007,-25.44,-9.58,-15.2,28.42,-0.0126,0.50647,-0.01974,0.86188,362,0.616,0.111,0.779,0.061,-0.305,-0.061,8.24,-38.035,-135.198,-18.893,-11.673,-5.093,26.54,0.38089,-0.27515,-0.18677,-0.8627,366,0.252,-0.015,0.965,0.366,-0.183,-0.183,-0.747,-14.865,173.93,-7.807,-9.24,-33.707,27.12,0.05145,0.12958,-0.01328,0.99008,360,0.911,0.106,0.362,0.305,-0.122,-0.061,16.677,-67.324,-170.255,-28.1,-13.153,-6.04,31.1,-0.14969,0.53616,0.16641,0.81384,364
91,0.888,-0.048,0.499,-0.061,-0.061,0.061,-5.532,-60.787,-174.996,-25.44,-9.58,-15.2,28.42,-0.0126,0.50647,-0.01974,0.86188,363,0.618,0.113,0.778,-0.183,-0.366,0.0,8.24,-38.046,-135.198,-18.893,-11.673,-5.093,26.54,0.38089,-0.27515,-0.18677,-0.8627,367,0.256,-0.013,0.961,0.488,-0.305,-0.305,-0.736,-14.87,173.925,-7.807,-9.24,-33.707,27.12,0.05145,0.12958,-0.01328,0.99008,361,0.912,0.111,0.363,0.0,-0.061,0.061,16.677,-67.33,-170.25,-28.1,-13.153,-6.04,31.1,-0.14969,0.53616,0.16641,0.81384,365
92,0.889,-0.047,0.498,-0.305,0.0,-0.061,-5.532,-60.782,-174.99,-25.44,-9.58,-15.2,28.42,-0.0126,0.50647,-0.01974,0.86188,372,0.619,0.113,0.779,-0.122,-0.427,0.0,8.234,-38.051,-135.198,-18.893,-11.673,-5.093,26.54,0.38089,-0.27515,-0.18677,-0.8627,370,0.257,-0.012,0.96,0.061,-0.305,-0.244,-0.736,-14.875,173.941,-7.807,-9.24,-33.707,27.12,0.05145,0.12958,-0.01328,0.99008,368,0.912,0.112,0.361,0.305,0.0,0.0,16.677,-67.33,-170.239,-28.1,-13.153,-6.04,31.1,-0.14969,0.53616,0.16641,0.81384,374
93,0.89,-0.046,0.497,-0.305,0.0,-0.122,-5.532,-60.782,-174.985,-25.44,-9.58,-15.2,28.42,-0.0126,0.50647,-0.01974,0.86188,373,0.62,0.113,0.781,-0.061,-0.488,0.0,8.234,-38.062,-135.198,-18.893,-11.673,-5.093,26.54,0.38089,-0.27515,-0.18677,-0.8627,371,0.258,-0.012,0.961,-0.183,-0.427,-0.183,-0.742,-14.886,173.963,-7.807,-9.24,-33.707,27.12,0.05145,0.12958,-0.01328,0.99008,369,0.913,0.11,0.36,0.183,-0.122,-0.061,16.688,-67.335,-170.233,-28.1,-13.153,-6.04,31.1,-0.14969,0.53616,0.16641,0.81384,375
94,0.892,-0.046,0.496,-0.061,0.122,-0.122,-5.532,-60.782,-174.985,-25.44,-9.58,-15.2,28.42,-0.0126,0.50647,-0.01974,0.86188,376,0.62,0.114,0.78,-0.366,-0.305,0.061,8.229,-38.068,-135.198,-18.893,-11.673,-5.093,26.54,0.38089,-0.27515,-0.18677,-0.8627,384,0.26,-0.012,0.963,-0.427,-0.244,-0.061,-0.747,-14.892,173.99,-7.807,-9.24,-33.707,27.12,0.05145,0.12958,-0.01328,0.99008,378,0.914,0.109,0.36,0.0,-0.366,-0.061,16.694,-67.341,-170.233,-28.1,-13.153,-6.04,31.1,-0.14969,0.53616,0.16641,0.81384,380
95,0.891,-0.047,0.496,0.061,0.244,-0.061,-5.526,-60.776,-174.985,-25.44,-9.58,-15.2,28.42,-0.0126,0.50647,-0.01974,0.86188,377,0.619,0.112,0.779,-0.366,-0.244,0.122,8.218,-38.073,-135.192,-18.893,-11.673,-5.093,26.54,0.38089,-0.27515,-0.18677,-0.8627,385,0.26,-0.012,0.965,-0.671,-0.183,-0.061,-0.764,-14.892,174.018,-7.807,-9.24,-33.707,27.12,0.05145,0.12958,-0.01328,0.99008,379,0.913,0.107,0.364,-0.244,-0.366,0.0,16.705,-67.346,-170.233,-28.1,-13.153,-6.04,31.1,-0.14969,0.53616,0.16641,0.81384,381
96,0.889,-0.047,0.496,0.0,0.183,-0.122,-5.521,-60.771,-174.979,-25.44,-9.58,-15.2,28.42,-0.0126,0.50647,-0.01974,0.86188,382,0.619,0.108,0.779,-0.366,-0.183,0.183,8.207,-38.079,-135.187,-19.193,-11.907,-4.493,26.54,0.38089,-0.27515,-0.18677,-0.8627,388,0.258,-0.013,0.966,-0.549,-0.244,-0.183,-0.775,-14.897,174.023,-7.807,-9.24,-33.707,27.12,0.05145,0.12958,-0.01328,0.99008,386,0.913,0.108,0.363,-0.244,-0.061,0.0,16.705,-67.352,-170.228,-28.1,-13.153,-6.04,31.1,-0.14969,0.53616,0.16641,0.81384,392
97,0.889,-0.047,0.497,-0.122,-0.061,-0.122,-5.515,-60.771,-174.979,-25.44,-9.58,-15.2,28.42,-0.0126,0.50647,-0.01974,0.86188,383,0.619,0.105,0.782,0.0,-0.183,0.183,8.201,-38.084,-135.181,-19.193,-11.907,-4.493,26.54,0.38089,-0.27515,-0.18677,-0.8627,389,0.259,-0.017,0.965,-0.244,-0.366,-0.183,-0.775,-14.908,174.029,-7.807,-9.24,-33.707,27.12,0.05145,0.12958,-0.01328,0.99008,387,0.911,0.111,0.362,-0.183,0.061,0.0,16.699,-67.357,-170.222,-28.1,-13.153,-6.04,31.1,-0.14969,0.53616,0.16641,0.81384,393
98,0.889,-0.046,0.498,-0.305,-0.061,-0.244,-5.515,-60.771,-174.979,-25.44,-9.58,-15.2,28.42,-0.0126,0.50647,-0.01974,0.86188,394,0.62,0.111,0.774,0.488,-0.305,0.061,8.207,-38.09,-135.181,-19.193,-11.907,-4.493,26.54,0.38089,-0.27515,-0.18677,-0.8627,398,0.257,-0.018,0.963,0.061,-0.488,0.061,-0.775,-14.919,174.029,-7.867,-9.613,-32.72,27.12,0.05145,0.12958,-0.01328,0.99008,390,0.91,0.113,0.359,0.061,0.305,0.0,16.699,-67.352,-170.211,-28.167,-12.947,-5.867,31.1,-0.14969,0.53616,0.16641,0.81384,396
99,0.888,-0.045,0.497,-0.366,0.061,-0.122,-5.515,-60.771,-174.985,-25.44,-9.58,-15.2,28.42,-0.0126,0.50647,-0.01974,0.86188,395,0.617,0.115,0.773,0.488,-0.244,-0.122,8.218,-38.095,-135.181,-19.193,-11.907,-4.493,26.54,0.38089,-0.27515,-0.18677,-0.8627,399,0.262,-0.019,0.957,0.0,-0.061,0.61,-0.78,-14.919,174.04,-7.867,-9.613,-32.72,27.12,0.05145,0.12958,-0.01328,0.99008,391,0.91,0.112,0.358,0.427,0.427,0.0,16.699,-67.352,-170.2,-28.167,-12.947,-5.867,31.1,-0.14969,0.53616,0.16641,0.81384,397
100,0.888,-0.045,0.497,-0.061,0.244,0.0,-5.515,-60.765,-174.979,-25.527,-8.947,-14.753,28.42,-0.0126,0.50647,-0.01974,0.86188,406,0.617,0.114,0.777,0.671,-0.305,0.0,8.229,-38.101,-135.181,-19.193,-11.907,-4.493,26.54,0.38101,-0.27512,-0.18671,-0.86264,402,0.26,-0.014,0.956,0.427,-0.183,0.244,-0.775,-14.925,174.04,-7.867,-9.613,-32.72,27.12,0.05145,0.12958,-0.01328,0.99008,400,0.911,0.109,0.36,0.427,0.366,0.0,16.705,-67.341,-170.189,-28.167,-12.947,-5.867,31.1,-0.14969,0.53616,0.16641,0.81384,404
101,0.888,-0.046,0.498,0.183,0.305,0.122,-5.51,-60.76,-174.968,-25.527,-8.947,-14.753,28.42,-0.0126,0.50647,-0.01974,0.86188,407,0.618,0.114,0.778,0.549,-0.244,0.305,8.24,-38.112,-135.17,-19.193,-11.907,-4.493,26.54,0.38101,-0.27512,-0.18671,-0.86264,403,0.258,-0.01,0.961,0.916,-0.366,0.0,-0.758,-14.936,174.023,-7.867,-9.613,-32.72,27.12,0.05145,0.12958,-0.01328,0.99008,401,0.913,0.107,0.365,0.183,0.305,0.0,16.71,-67.341,-170.178,-28.167,-12.947,-5.867,31.1,-0.14969,0.53616,0.16641,0.81384,405
102,0.889,-0.046,0.5,0.305,0.366,0.183,-5.51,-60.749,-174.957,-25.527,-8.947,-14.753,28.42,-0.01358,0.50641,-0.01923,0.86191,408,0.62,0.113,0.779,0.427,-0.549,0.61,8.24,-38.123,-135.154,-19.193,-11.907,-4.493,26.54,0.38101,-0.27512,-0.18671,-0.86264,410,0.257,-0.008,0.962,0.671,-0.427,0.244,-0.747,-14.947,174.023,-7.867,-9.613,-32.72,27.12,0.05243,0.12939,-0.0134,0.99005,412,0.915,0.109,0.366,0.122,0.488,0.0,16.71,-67.335,-170.162,-28.167,-12.947,-5.867,31.1,-0.1507,0.53616,0.16739,0.81345,414
103,0.889,-0.047,0.5,0.061,0.305,0.122,-5.51,-60.743,-174.946,-25.527,-8.947,-14.753,28.42,-0.01358,0.50641,-0.01923,0.86191,409,0.621,0.111,0.781,0.0,-0.61,0.61,8.229,-38.139,-135.143,-19.193,-11.907,-4.493,26.54,0.38101,-0.27512,-0.18671,-0.86264,411,0.258,-0.01,0.962,0.122,-0.549,0.549,-0.747,-14.958,174.045,-7.867,-9.613,-32.72,27.12,0.05243,0.12939,-0.0134,0.99005,413,0.912,0.11,0.366,0.122,0.61,0.0,16.71,-67.324,-170.151,-28.167,-12.947,-5.867,31.1,-0.1507,0.53616,0.16739,0.81345,415
104,0.889,-0.047,0.499,-0.183,0.183,0.0,-5.51,-60.738,-174.941,-25.527,-8.947,-14.753,28.42,-0.01358,0.50641,-0.01923,0.86191,418,0.619,0.111,0.779,0.0,-0.671,0.549,8.223,-38.15,-135.126,-19.193,-11.907,-4.493,26.54,0.38101,-0.27512,-0.18671,-0.86264,420,0.258,-0.013,0.961,-0.549,-0.305,0.671,-0.764,-14.963,174.067,-7.867,-9.613,-32.72,27.12,0.05243,0.12939,-0.0134,0.99005,416,0.909,0.113,0.362,0.061,0.61,0.0,16.705,-67.313,-170.134,-28.167,-12.947,-5.867,31.1,-0.1507,0.53616,0.16739,0.81345,422
105,0.888,-0.048,0.496,-0.305,0.122,0.0,-5.515,-60.732,-174.935,-25.527,-8.947,-14.753,28.42,-0.01358,0.50641,-0.01923,0.86191,419,0.616,0.112,0.778,0.244,-0.732,0.366,8.223,-38.167,-135.121,-19.193,-11.907,-4.493,26.54,0.38101,-0.27512,-0.18671,-0.86264,421,0.258,-0.016,0.964,-0.916,0.0,0.671,-0.786,-14.963,174.106,-7.867,-9.613,-32.72,27.12,0.05243,0.12939,-0.0134,0.99005,417,0.908,0.111,0.362,0.061,0.488,0.0,16.699,-67.302,-170.118,-28.167,-12.947,-5.867,31.1,-0.1507,0.53616,0.16739,0.81345,423
106,0.887,-0.049,0.496,-0.122,0.122,0.0,-5.515,-60.727,-174.93,-25.527,-8.947,-14.753,28.42,-0.01358,0.50641,-0.01923,0.86191,424,0.617,0.112,0.779,0.305,-0.549,0.305,8.223,-38.177,-135.11,-19.193,-11.907,-4.493,26.54,0.38101,-0.27512,-0.18671,-0.86264,428,0.258,-0.016,0.963,-0.61,0.0,0.61,-0.802,-14.963,174.144,-7.867,-9.613,-32.72,27.12,0.05243,0.12939,-0.0134,0.99005,426,0.91,0.109,0.365,0.122,0.366,0.0,16.699,-67.297,-170.107,-28.167,-12.947,-5.867,31.1,-0.1507,0.53616,0.16739,0.81345,432
107,0.887,-0.05,0.499,0.122,0.122,0.0,-5.51,-60.727,-174.924,-25.527,-8.947,-14.753,28.42,-0.01358,0.50641,-0.01923,0.86191,425,0.619,0.111,0.78,0.244,-0.549,0.305,8.223,-38.188,-135.104,-19.193,-11.907,-4.493,26.54,0.38101,-0.27512,-0.18671,-0.86264,429,0.255,-0.014,0.96,-0.366,-0.244,0.671,-0.813,-14.969,174.194,-7.867,-9.613,-32.72,27.12,0.05243,0.12939,-0.0134,0.99005,427,0.913,0.109,0.368,0.183,0.305,0.0,16.699,-67.291,-170.096,-28.167,-12.947,-5.867,31.1,-0.1507,0.53616,0.16739,0.81345,433
108,0.887,-0.047,0.502,0.122,0.061,0.0,-5.51,-60.721,-174.919,-25.527,-8.947,-14.753,28.42,-0.01358,0.50641,-0.01923,0.86191,434,0.623,0.11,0.781,0.122,-0.427,0.183,8.223,-38.199,-135.099,-19.193,-11.907,-4.493,26.54,0.38101,-0.27512,-0.18671,-0.86264,438,0.257,-0.015,0.963,-0.183,-0.122,0.488,-0.818,-14.974,174.249,-7.867,-9.613,-32.72,27.12,0.05243,0.12939,-0.0134,0.99005,430,0.915,0.109,0.368,0.244,0.305,0.0,16.699,-67.286,-170.085,-28.167,-12.947,-5.867,31.1,-0.1507,0.53616,0.16739,0.81345,436
109,0.889,-0.046,0.501,0.122,0.0,0.0,-5.504,-60.721,-174.913,-25.527,-8.947,-14.753,28.42,-0.01358,0.50641,-0.01923,0.86191,435,0.623,0.108,0.78,0.061,-0.244,0.122,8.223,-38.205,-135.099,-19.193,-11.907,-4.493,26.54,0.38101,-0.27512,-0.18671,-0.86264,439,0.259,-0.017,0.964,0.0,-0.122,0.183,-0.818,-14.974,174.304,-7.867,-9.613,-32.72,27.12,0.05243,0.12939,-0.0134,0.99005,431,0.914,0.109,0.368,0.183,0.427,0.0,16.699,-67.28,-170.068,-28.167,-12.947,-5.867,31.1,-0.1507,0.53616,0.16739,0.81345,437
110,0.889,-0.046,0.501,0.122,-0.183,0.0,-5.504,-60.721,-174.908,-25.527,-8.947,-14.753,28.42,-0.01358,0.50641,-0.01923,0.86191,442,0.621,0.11,0.779,0.0,-0.183,0.061,8.223,-38.205,-135.093,-19.193,-11.907,-4.493,26.54,0.38101,-0.27512,-0.18671,-0.86264,444,0.261,-0.018,0.965,0.183,-0.122,0.061,-0.818,-14.98,174.342,-7.867,-9.613,-32.72,27.12,0.05243,0.12939,-0.0134,0.99005,440,0.91,0.112,0.364,0.122,0.488,0.0,16.699,-67.269,-170.057,-28.167,-12.947,-5.867,31.1,-0.1507,0.53616,0.16739,0.81345,446
111,0.888,-0.046,0.498,0.061,-0.427,0.0,-5.499,-60.727,-174.902,-25.527,-8.947,-14.753,28.42,-0.01358,0.50641,-0.01923,0.86191,443,0.618,0.111,0.779,0.0,-0.061,0.0,8.218,-38.21,-135.093,-19.193,-11.907,-4.493,26.54,0.38101,-0.27512,-0.18671,-0.86264,445,0.26,-0.018,0.965,0.305,-0.183,0.0,-0.813,-14.98,174.364,-7.867,-9.613,-32.72,27.12,0.05243,0.12939,-0.0134,0.99005,441,0.907,0.113,0.363,0.366,0.488,0.0,16.699,-67.258,-170.046,-28.167,-12.947,-5.867,31.1,-0.1507,0.53616,0.16739,0.81345,447
112,0.889,-0.044,0.495,0.183,-0.61,0.0,-5.499,-60.732,-174.897,-25.527,-8.947,-14.753,28.42,-0.01358,0.50641,-0.01923,0.86191,450,0.615,0.115,0.777,0.0,-0.183,0.0,8.218,-38.21,-135.093,-19.193,-11.907,-4.493,26.54,0.38101,-0.27512,-0.18671,-0.86264,454,0.258,-0.016,0.964,0.183,-0.183,0.0,-0.807,-14.985,174.37,-7.867,-9.613,-32.72,27.12,0.05243,0.12939,-0.0134,0.99005,448,0.907,0.113,0.361,0.427,0.366,0.0,16.705,-67.253,-170.03,-28.167,-12.947,-5.867,31.1,-0.1507,0.53616,0.16739,0.81345,452
113,0.889,-0.044,0.496,0.061,-0.366,0.0,-5.493,-60.743,-174.886,-25.527,-8.947,-14.753,28.42,-0.01358,0.50641,-0.01923,0.86191,451,0.616,0.115,0.778,0.0,-0.305,0.0,8.218,-38.216,-135.093,-19.193,-11.907,-4.493,26.54,0.38101,-0.27512,-0.18671,-0.86264,455,0.257,-0.013,0.962,0.0,-0.122,-0.061,-0.813,-14.991,174.375,-7.867,-9.613,-32.72,27.12,0.05243,0.12939,-0.0134,0.99005,449,0.908,0.115,0.362,0.488,0.122,0.0,16.71,-67.247,-170.024,-28.167,-12.947,-5.867,31.1,-0.1507,0.53616,0.16739,0.81345,453
114,0.89,-0.045,0.497,0.0,0.0,0.0,-5.493,-60.743,-174.88,-25.527,-8.947,-14.753,28.42,-0.01358,0.50641,-0.01923,0.86191,458,0.619,0.114,0.776,0.0,-0.366,-0.061,8.223,-38.227,-135.093,-18.967,-12.073,-4.447,26.54,0.38101,-0.27512,-0.18671,-0.86264,460,0.256,-0.011,0.962,-0.061,-0.183,-0.244,-0.813,-14.996,174.375,-7.867,-9.613,-32.72,27.12,0.05243,0.12939,-0.0134,0.99005,456,0.91,0.114,0.362,0.427,0.0,0.0,16.727,-67.247,-170.013,-27.647,-13.253,-5.813,31.1,-0.1507,0.53616,0.16739,0.81345,462
115,0.89,-0.046,0.494,0.122,0.122,0.0,-5.488,-60.738,-174.88,-25.527,-8.947,-14.753,28.42,-0.01358,0.50641,-0.01923,0.86191,459,0.623,0.115,0.775,0.0,-0.488,-0.122,8.223,-38.232,-135.099,-18.967,-12.073,-4.447,26.54,0.38101,-0.27512,-0.18671,-0.86264,461,0.257,-0.012,0.961,-0.183,-0.183,-0.427,-0.813,-14.996,174.364,-7.867,-9.613,-32.72,27.12,0.05243,0.12939,-0.0134,0.99005,457,0.913,0.115,0.361,0.305,0.0,0.0,16.738,-67.247,-170.008,-27.647,-13.253,-5.813,31.1,-0.1507,0.53616,0.16739,0.81345,463
116,0.89,-0.047,0.494,0.183,0.0,0.0,-5.482,-60.738,-174.875,-25.207,-9.373,-14.473,28.42,-0.01358,0.50641,-0.01923,0.86191,464,0.626,0.114,0.775,0.122,-0.671,-0.122,8.234,-38.249,-135.099,-18.967,-12.073,-4.447,26.54,0.38101,-0.27512,-0.18671,-0.86264,470,0.261,-0.011,0.961,0.0,-0.366,-0.61,-0.813,-15.007,174.348,-7.747,-9.18,-33.04,27.12,0.05243,0.12939,-0.0134,0.99005,468,0.915,0.115,0.36,0.122,-0.061,0.0,16.749,-67.253,-170.002,-27.647,-13.253,-5.813,31.1,-0.1521,0.53519,0.16855,0.81357,466
117,0.89,-0.047,0.497,-0.061,0.122,0.0,-5.482,-60.738,-174.869,-25.207,-9.373,-14.473,28.42,-0.01358,0.50641,-0.01923,0.86191,465,0.627,0.112,0.775,0.244,-0.732,-0.183,8.24,-38.26,-135.104,-18.967,-12.073,-4.447,26.54,0.38101,-0.27512,-0.18671,-0.86264,471,0.265,-0.011,0.959,0.122,-0.427,-0.61,-0.802,-15.013,174.315,-7.747,-9.18,-33.04,27.12,0.05243,0.12939,-0.0134,0.99005,469,0.917,0.112,0.362,0.0,-0.061,0.0,16.76,-67.253,-169.997,-27.647,-13.253,-5.813,31.1,-0.1521,0.53519,0.16855,0.81357,467
118,0.891,-0.048,0.5,-0.366,0.305,0.0,-5.482,-60.732,-174.864,-25.207,-9.373,-14.473,28.42,-0.01358,0.50641,-0.01923,0.86191,472,0.627,0.11,0.776,0.244,-0.793,-0.122,8.251,-38.276,-135.11,-18.967,-12.073,-4.447,26.54,0.38153,-0.27618,-0.18756,-0.86191,478,0.266,-0.013,0.961,0.0,-0.427,-0.488,-0.802,-15.024,174.26,-7.747,-9.18,-33.04,27.12,0.05063,0.13025,-0.01349,0.99005,474,0.916,0.108,0.363,-0.244,0.0,0.0,16.765,-67.253,-169.997,-27.647,-13.253,-5.813,31.1,-0.1521,0.53519,0.16855,0.81357,476
119,0.889,-0.05,0.5,-0.427,0.305,0.0,-5.488,-60.721,-174.858,-25.207,-9.373,-14.473,28.42,-0.01358,0.50641,-0.01923,0.86191,473,0.624,0.11,0.778,0.122,-0.793,-0.061,8.256,-38.293,-135.115,-18.967,-12.073,-4.447,26.54,0.38153,-0.27618,-0.18756,-0.86191,479,0.266,-0.017,0.964,-0.244,-0.549,-0.244,-0.807,-15.035,174.216,-7.747,-9.18,-33.04,27.12,0.05063,0.13025,-0.01349,0.99005,475,0.912,0.106,0.366,-0.366,0.244,0.0,16.76,-67.253,-169.986,-27.647,-13.253,-5.813,31.1,-0.1521,0.53519,0.16855,0.81357,477
120,0.887,-0.05,0.499,-0.122,0.061,0.0,-5.493,-60.721,-174.858,-25.207,-9.373,-14.473,28.42,-0.0144,0.50623,-0.01865,0.86203,484,0.62,0.109,0.776,-0.122,-0.854,0.122,8.251,-38.315,-135.115,-18.967,-12.073,-4.447,26.54,0.38153,-0.27618,-0.18756,-0.86191,486,0.263,-0.017,0.965,-0.305,-0.854,-0.061,-0.813,-15.057,174.177,-7.747,-9.18,-33.04,27.12,0.05063,0.13025,-0.01349,0.99005,480,0.908,0.108,0.366,-0.244,0.366,0.0,16.754,-67.247,-169.975,-27.647,-13.253,-5.813,31.1,-0.1521,0.53519,0.16855,0.81357,482
121,0.886,-0.049,0.497,0.0,0.0,0.0,-5.493,-60.721,-174.853,-25.207,-9.373,-14.473,28.42,-0.0144,0.50623,-0.01865,0.86203,485,0.617,0.11,0.774,-0.244,-0.61,0.122,8.245,-38.326,-135.11,-18.967,-12.073,-4.447,26.54,0.38153,-0.27618,-0.18756,-0.86191,487,0.262,-0.016,0.962,-0.427,-0.671,0.0,-0.818,-15.068,174.15,-7.747,-9.18,-33.04,27.12,0.05063,0.13025,-0.01349,0.99005,481,0.904,0.11,0.364,0.122,0.488,0.0,16.749,-67.242,-169.964,-27.647,-13.253,-5.813,31.1,-0.1521,0.53519,0.16855,0.81357,483
122,0.886,-0.046,0.496,0.122,0.0,0.0,-5.493,-60.716,-174.847,-25.207,-9.373,-14.473,28.42,-0.0144,0.50623,-0.01865,0.86203,490,0.615,0.111,0.776,0.0,-0.488,0.183,8.245,-38.337,-135.104,-18.967,-12.073,-4.447,26.54,0.38153,-0.27618,-0.18756,-0.86191,492,0.258,-0.017,0.958,-0.61,-0.427,0.122,-0.835,-15.079,174.111,-7.747,-9.18,-33.04,27.12,0.05063,0.13025,-0.01349,0.99005,488,0.907,0.109,0.365,0.244,0.305,0.0,16.749,-67.236,-169.953,-27.647,-13.253,-5.813,31.1,-0.1521,0.53519,0.16855,0.81357,494
123,0.886,-0.047,0.5,0.122,0.122,0.0,-5.488,-60.716,-174.842,-25.207,-9.373,-14.473,28.42,-0.0144,0.50623,-0.01865,0.86203,491,0.62,0.11,0.778,0.061,-0.305,0.122,8.24,-38.342,-135.104,-18.967,-12.073,-4.447,26.54,0.38153,-0.27618,-0.18756,-0.86191,493,0.252,-0.015,0.959,-0.61,-0.244,0.305,-0.851,-15.09,174.084,-7.747,-9.18,-33.04,27.12,0.05063,0.13025,-0.01349,0.99005,489,0.911,0.109,0.368,0.183,0.183,0.0,16.749,-67.231,-169.942,-27.647,-13.253,-5.813,31.1,-0.1521,0.53519,0.16855,0.81357,495
124,0.886,-0.047,0.503,0.0,0.244,0.0,-5.488,-60.71,-174.842,-25.207,-9.373,-14.473,28.42,-0.0144,0.50623,-0.01865,0.86203,496,0.622,0.112,0.778,0.122,-0.549,0.427,8.24,-38.353,-135.093,-18.967,-12.073,-4.447,26.54,0.38153,-0.27618,-0.18756,-0.86191,500,0.259,-0.014,0.964,-1.038,-0.977,0.366,-0.873,-15.106,174.067,-7.747,-9.18,-33.04,27.12,0.05063,0.13025,-0.01349,0.99005,498,0.912,0.108,0.368,0.122,0.122,0.0,16.754,-67.231,-169.937,-27.647,-13.253,-5.813,31.1,-0.1521,0.53519,0.16855,0.81357,502
125,0.888,-0.046,0.502,-0.122,0.061,0.0,-5.488,-60.705,-174.836,-25.207,-9.373,-14.473,28.42,-0.0144,0.50623,-0.01865,0.86203,497,0.622,0.112,0.778,0.122,-0.549,0.549,8.234,-38.37,-135.082,-18.967,-12.073,-4.447,26.54,0.38153,-0.27618,-0.18756,-0.86191,501,0.263,-0.016,0.962,-1.038,-0.977,0.427,-0.895,-15.128,174.073,-7.747,-9.18,-33.04,27.12,0.05063,0.13025,-0.01349,0.99005,499,0.91,0.11,0.366,0.0,0.305,0.0,16.749,-67.225,-169.931,-27.647,-13.253,-5.813,31.1,-0.1521,0.53519,0.16855,0.81357,503
126,0.89,-0.047,0.499,-0.122,-0.061,0.0,-5.488,-60.705,-174.831,-25.207,-9.373,-14.473,28.42,-0.0144,0.50623,-0.01865,0.86203,504,0.619,0.112,0.777,-0.122,-0.549,0.488,8.223,-38.381,-135.066,-18.967,-12.073,-4.447,26.54,0.38153,-0.27618,-0.18756,-0.86191,510,0.26,-0.015,0.962,-0.854,0.183,0.916,-0.917,-15.123,174.095,-7.747,-9.18,-33.04,27.12,0.05063,0.13025,-0.01349,0.99005,506,0.909,0.113,0.366,0.183,0.427,0.0,16.749,-67.22,-169.92,-27.647,-13.253,-5.813,31.1,-0.1521,0.53519,0.16855,0.81357,508
127,0.888,-0.046,0.497,0.0,0.0,0.0,-5.488,-60.699,-174.825,-25.207,-9.373,-14.473,28.42,-0.0144,0.50623,-0.01865,0.86203,505,0.62,0.112,0.778,0.061,-0.549,0.427,8.218,-38.392,-135.06,-18.967,-12.073,-4.447,26.54,0.38153,-0.27618,-0.18756,-0.86191,511,0.258,-0.017,0.964,-1.404,-0.061,0.732,-0.95,-15.123,174.117,-7.747,-9.18,-33.04,27.12,0.05063,0.13025,-0.01349,0.99005,507,0.908,0.114,0.365,0.244,0.305,0.0,16.749,-67.214,-169.909,-27.647,-13.253,-5.813,31.1,-0.1521,0.53519,0.16855,0.81357,509
128,0.887,-0.045,0.495,0.061,0.0,0.0,-5.488,-60.699,-174.82,-25.207,-9.373,-14.473,28.42,-0.0144,0.50623,-0.01865,0.86203,514,0.622,0.111,0.777,0.244,-0.61,0.305,8.218,-38.403,-135.049,-18.967,-12.073,-4.447,26.54,0.38153,-0.27618,-0.18756,-0.86191,520,0.258,-0.017,0.964,-1.038,-0.61,0.305,-0.972,-15.134,174.144,-7.747,-9.18,-33.04,27.12,0.05063,0.13025,-0.01349,0.99005,512,0.91,0.113,0.365,0.122,0.061,0.0,16.754,-67.209,-169.898,-27.647,-13.253,-5.813,31.1,-0.1521,0.53519,0.16855,0.81357,516
129,0.888,-0.045,0.496,0.061,-0.061,0.0,-5.482,-60.699,-174.82,-25.207,-9.373,-14.473,28.42,-0.0144,0.50623,-0.01865,0.86203,515,0.624,0.112,0.776,0.122,-0.61,0.244,8.218,-38.414,-135.044,-18.967,-12.073,-4.447,26.54,0.38153,-0.27618,-0.18756,-0.86191,521,0.261,-0.018,0.963,-0.793,-1.038,0.244,-0.989,-15.156,174.172,-7.747,-9.18,-33.04,27.12,0.05063,0.13025,-0.01349,0.99005,513,0.911,0.113,0.365,0.183,-0.061,0.0,16.76,-67.209,-169.893,-27.647,-13.253,-5.813,31.1,-0.1521,0.53519,0.16855,0.81357,517
130,0.889,-0.044,0.498,-0.061,-0.061,0.0,-5.482,-60.699,-174.814,-25.207,-9.373,-14.473,28.42,-0.0144,0.50623,-0.01865,0.86203,524,0.624,0.111,0.775,0.122,-0.793,0.122,8.218,-38.43,-135.044,-19.18,-11.987,-4.833,26.54,0.38153,-0.27618,-0.18756,-0.86191,526,0.262,-0.019,0.962,-0.793,-1.343,0.122,-1.005,-15.183,174.183,-7.747,-9.18,-33.04,27.12,0.05063,0.13025,-0.01349,0.99005,518,0.911,0.113,0.365,0.183,-0.122,0.0,16.765,-67.214,-169.893,-28.133,-13.193,-6.167,31.1,-0.1521,0.53519,0.16855,0.81357,522
131,0.888,-0.045,0.499,-0.183,0.0,0.0,-5.482,-60.699,-174.809,-25.207,-9.373,-14.473,28.42,-0.0144,0.50623,-0.01865,0.86203,525,0.625,0.108,0.773,0.061,-0.671,-0.183,8.223,-38.441,-135.049,-19.18,-11.987,-4.833,26.54,0.38153,-0.27618,-0.18756,-0.86191,527,0.264,-0.019,0.959,-0.244,-0.671,0.0,-1.011,-15.194,174.194,-7.747,-9.18,-33.04,27.12,0.05063,0.13025,-0.01349,0.99005,519,0.91,0.112,0.363,-0.061,-0.061,0.0,16.771,-67.214,-169.887,-28.133,-13.193,-6.167,31.1,-0.1521,0.53519,0.16855,0.81357,523
132,0.888,-0.047,0.5,-0.244,0.061,0.0,-5.488,-60.694,-174.803,-24.873,-9.333,-14.84,28.42,-0.0144,0.50623,-0.01865,0.86203,530,0.627,0.112,0.773,0.122,-0.61,0.0,8.229,-38.458,-135.055,-19.18,-11.987,-4.833,26.54,0.38153,-0.27618,-0.18756,-0.86191,534,0.264,-0.021,0.959,-0.183,-0.549,-0.305,-1.011,-15.205,174.194,-7.747,-9.18,-33.04,27.12,0.05063,0.13025,-0.01349,0.99005,528,0.911,0.11,0.362,-0.183,0.122,0.0,16.771,-67.214,-169.882,-28.133,-13.193,-6.167,31.1,-0.15302,0.53473,0.16925,0.81357,532
133,0.889,-0.048,0.499,-0.244,0.122,0.0,-5.488,-60.694,-174.803,-24.873,-9.333,-14.84,28.42,-0.0144,0.50623,-0.01865,0.86203,531,0.629,0.114,0.772,0.305,-0.793,0.244,8.229,-38.469,-135.055,-19.18,-11.987,-4.833,26.54,0.38153,-0.27618,-0.18756,-0.86191,535,0.265,-0.021,0.96,0.061,-0.61,-0.488,-1.011,-15.216,174.194,-7.747,-9.18,-33.04,27.12,0.05063,0.13025,-0.01349,0.99005,529,0.914,0.109,0.361,-0.305,0.0,0.0,16.771,-67.214,-169.876,-28.133,-13.193,-6.167,31.1,-0.15302,0.53473,0.16925,0.81357,533
134,0.89,-0.049,0.499,-0.244,0.183,0.0,-5.493,-60.688,-174.798,-24.873,-9.333,-14.84,28.42,-0.0144,0.50623,-0.01865,0.86203,536,0.629,0.112,0.771,0.732,-0.854,0.549,8.234,-38.485,-135.049,-19.18,-11.987,-4.833,26.54,0.38181,-0.2778,-0.18829,-0.86108,538,0.269,-0.017,0.961,0.244,-0.732,-0.427,-1.005,-15.233,174.194,-8.207,-9.433,-33.76,27.12,0.05063,0.13025,-0.01349,0.99005,544,0.914,0.11,0.362,-0.122,-0.183,0.0,16.771,-67.214,-169.876,-28.133,-13.193,-6.167,31.1,-0.15302,0.53473,0.16925,0.81357,540
135,0.889,-0.049,0.5,-0.305,0.244,0.0,-5.499,-60.683,-174.792,-24.873,-9.333,-14.84,28.42,-0.0144,0.50623,-0.01865,0.86203,537,0.627,0.112,0.773,0.916,-0.854,0.916,8.24,-38.507,-135.033,-19.18,-11.987,-4.833,26.54,0.38181,-0.2778,-0.18829,-0.86108,539,0.27,-0.013,0.961,0.122,-0.793,-0.183,-1.0,-15.249,174.188,-8.207,-9.433,-33.76,27.12,0.05063,0.13025,-0.01349,0.99005,545,0.913,0.109,0.363,0.366,0.0,0.0,16.776,-67.22,-169.871,-28.133,-13.193,-6.167,31.1,-0.15302,0.53473,0.16925,0.81357,541
136,0.889,-0.048,0.499,-0.122,0.244,0.0,-5.499,-60.677,-174.792,-24.873,-9.333,-14.84,28.42,-0.01492,0.50589,-0.01843,0.86221,542,0.626,0.114,0.777,0.916,-0.854,1.16,8.245,-38.529,-135.011,-19.18,-11.987,-4.833,26.54,0.38181,-0.2778,-0.18829,-0.86108,548,0.27,-0.014,0.958,-0.122,-0.854,0.244,-1.005,-15.266,174.199,-8.207,-9.433,-33.76,27.12,0.0513,0.13226,-0.01541,0.98972,550,0.911,0.11,0.364,0.671,0.305,0.0,16.787,-67.214,-169.865,-28.133,-13.193,-6.167,31.1,-0.15302,0.53473,0.16925,0.81357,546
137,0.888,-0.047,0.497,0.061,0.061,0.0,-5.499,-60.672,-174.787,-24.873,-9.333,-14.84,28.42,-0.01492,0.50589,-0.01843,0.86221,543,0.625,0.114,0.773,0.671,-0.793,1.038,8.245,-38.551,-134.989,-19.18,-11.987,-4.833,26.54,0.38181,-0.2778,-0.18829,-0.86108,549,0.267,-0.016,0.959,-0.244,-0.671,0.671,-1.011,-15.282,174.199,-8.207,-9.433,-33.76,27.12,0.0513,0.13226,-0.01541,0.98972,551,0.91,0.112,0.365,0.671,0.488,0.0,16.798,-67.209,-169.854,-28.133,-13.193,-6.167,31.1,-0.15302,0.53473,0.16925,0.81357,547
138,0.888,-0.047,0.496,0.061,0.122,0.0,-5.493,-60.672,-174.787,-24.873,-9.333,-14.84,28.42,-0.01492,0.50589,-0.01843,0.86221,552,0.624,0.112,0.774,0.488,-0.854,0.732,8.245,-38.568,-134.973,-19.18,-11.987,-4.833,26.54,0.38181,-0.2778,-0.18829,-0.86108,554,0.262,-0.016,0.963,-0.366,-0.549,1.16,-1.027,-15.293,174.221,-8.207,-9.433,-33.76,27.12,0.0513,0.13226,-0.01541,0.98972,556,0.909,0.114,0.364,0.366,0.427,0.305,16.793,-67.203,-169.827,-28.133,-13.193,-6.167,31.1,-0.15302,0.53473,0.16925,0.81357,558
139,0.888,-0.048,0.497,-0.061,0.183,0.0,-5.493,-60.667,-174.781,-24.873,-9.333,-14.84,28.42,-0.01492,0.50589,-0.01843,0.86221,553,0.624,0.11,0.775,0.427,-0.916,0.366,8.251,-38.589,-134.962,-19.18,-11.987,-4.833,26.54,0.38181,-0.2778,-0.18829,-0.86108,555,0.263,-0.02,0.961,-0.244,-0.549,0.977,-1.038,-15.309,174.243,-8.207,-9.433,-33.76,27.12,0.0513,0.13226,-0.01541,0.98972,557,0.91,0.116,0.365,0.061,0.305,0.366,16.776,-67.203,-169.805,-28.133,-13.193,-6.167,31.1,-0.15302,0.53473,0.16925,0.81357,559
140,0.888,-0.047,0.498,-0.183,0.366,0.0,-5.499,-60.656,-174.781,-24.873,-9.333,-14.84,28.42,-0.01492,0.50589,-0.01843,0.86221,560,0.624,0.11,0.774,0.549,-0.916,0.122,8.256,-38.606,-134.94,-19.18,-11.987,-4.833,26.54,0.38181,-0.2778,-0.18829,-0.86108,562,0.264,-0.022,0.96,-0.183,-0.366,0.488,-1.049,-15.32,174.26,-8.207,-9.433,-33.76,27.12,0.0513,0.13226,-0.01541,0.98972,564,0.909,0.115,0.366,-0.061,0.366,0.366,16.76,-67.198,-169.777,-28.133,-13.193,-6.167,31.1,-0.15302,0.53473,0.16925,0.81357,566
141,0.887,-0.046,0.499,-0.061,0.366,0.0,-5.493,-60.65,-174.776,-24.873,-9.333,-14.84,28.42,-0.01492,0.50589,-0.01843,0.86221,561,0.625,0.111,0.773,0.427,-0.854,0.122,8.267,-38.628,-134.923,-19.18,-11.987,-4.833,26.54,0.38181,-0.2778,-0.18829,-0.86108,563,0.264,-0.021,0.96,-0.122,-0.671,0.305,-1.055,-15.331,174.276,-8.207,-9.433,-33.76,27.12,0.0513,0.13226,-0.01541,0.98972,565,0.909,0.112,0.365,0.0,0.244,0.183,16.754,-67.192,-169.755,-28.133,-13.193,-6.167,31.1,-0.15302,0.53473,0.16925,0.81357,567
142,0.887,-0.044,0.5,0.0,0.183,0.0,-5.493,-60.645,-174.776,-24.873,-9.333,-14.84,28.42,-0.01492,0.50589,-0.01843,0.86221,568,0.626,0.112,0.773,0.244,-0.793,0.366,8.273,-38.644,-134.912,-19.18,-11.987,-4.833,26.54,0.38181,-0.2778,-0.18829,-0.86108,572,0.265,-0.019,0.962,-0.122,-0.61,0.122,-1.06,-15.342,174.304,-8.207,-9.433,-33.76,27.12,0.0513,0.13226,-0.01541,0.98972,570,0.909,0.11,0.366,0.0,0.244,0.061,16.749,-67.192,-169.744,-28.133,-13.193,-6.167,31.1,-0.15302,0.53473,0.16925,0.81357,574
143,0.886,-0.044,0.501,0.0,0.061,0.0,-5.493,-60.645,-174.771,-24.873,-9.333,-14.84,28.42,-0.01492,0.50589,-0.01843,0.86221,569,0.628,0.113,0.772,0.244,-0.854,0.549,8.273,-38.661,-134.879,-19.18,-11.987,-4.833,26.54,0.38181,-0.2778,-0.18829,-0.86108,573,0.265,-0.018,0.962,-0.366,-0.793,0.183,-1.066,-15.359,174.337,-8.207,-9.433,-33.76,27.12,0.0513,0.13226,-0.01541,0.98972,571,0.91,0.11,0.365,0.0,0.244,0.0,16.749,-67.187,-169.733,-28.133,-13.193,-6.167,31.1,-0.15302,0.53473,0.16925,0.81357,575
144,0.886,-0.045,0.501,-0.183,0.244,0.0,-5.493,-60.639,-174.771,-24.873,-9.333,-14.84,28.42,-0.01492,0.50589,-0.01843,0.86221,576,0.628,0.111,0.773,0.366,-0.671,0.549,8.267,-38.677,-134.846,-19.18,-11.987,-4.833,26.54,0.38181,-0.2778,-0.18829,-0.86108,584,0.266,-0.017,0.96,-0.671,-0.977,0.244,-1.077,-15.375,174.37,-8.207,-9.433,-33.76,27.12,0.0513,0.13226,-0.01541,0.98972,578,0.911,0.112,0.365,0.0,0.366,0.0,16.749,-67.181,-169.722,-27.94,-13.013,-5.647,31.1,-0.15302,0.53473,0.16925,0.81357,582
145,0.887,-0.046,0.5,-0.244,0.305,0.0,-5.493,-60.628,-174.765,-24.873,-9.333,-14.84,28.42,-0.01492,0.50589,-0.01843,0.86221,577,0.625,0.107,0.774,0.305,-0.854,0.427,8.267,-38.694,-134.802,-19.18,-11.987,-4.833,26.54,0.38181,-0.2778,-0.18829,-0.86108,585,0.271,-0.018,0.959,-1.038,-1.526,0.427,-1.093,-15.397,174.413,-8.207,-9.433,-33.76,27.12,0.0513,0.13226,-0.01541,0.98972,579,0.91,0.112,0.366,0.122,0.488,0.0,16.749,-67.17,-169.711,-27.94,-13.013,-5.647,31.1,-0.15302,0.53473,0.16925,0.81357,583
146,0.887,-0.047,0.5,0.0,0.244,0.0,-5.488,-60.623,-174.765,-24.873,-9.333,-14.84,28.42,-0.01492,0.50589,-0.01843,0.86221,588,0.625,0.109,0.775,0.122,-0.854,0.244,8.267,-38.71,-134.775,-19.18,-11.987,-4.833,26.54,0.38181,-0.2778,-0.18829,-0.86108,592,0.264,-0.026,0.963,-0.977,-1.465,0.732,-1.115,-15.425,174.468,-8.207,-9.433,-33.76,27.12,0.0513,0.13226,-0.01541,0.98972,580,0.91,0.111,0.367,0.122,0.366,0.0,16.749,-67.165,-169.706,-27.94,-13.013,-5.647,31.1,-0.15417,0.53412,0.16995,0.8136,586
147,0.887,-0.048,0.5,0.061,0.183,0.0,-5.488,-60.617,-174.76,-24.873,-9.333,-14.84,28.42,-0.01492,0.50589,-0.01843,0.86221,589,0.626,0.108,0.773,0.0,-0.977,0.061,8.267,-38.727,-134.758,-19.18,-11.987,-4.833,26.54,0.38181,-0.2778,-0.18829,-0.86108,593,0.265,-0.024,0.962,-0.488,-1.404,0.732,-1.137,-15.458,174.518,-8.207,-9.433,-33.76,27.12,0.0513,0.13226,-0.01541,0.98972,581,0.91,0.11,0.367,0.0,0.183,0.0,16.749,-67.165,-169.695,-27.94,-13.013,-5.647,31.1,-0.15417,0.53412,0.16995,0.8136,587
148,0.886,-0.049,0.501,0.0,0.061,0.0,-5.482,-60.617,-174.76,-24.873,-9.333,-14.84,28.42,-0.01492,0.50589,-0.01843,0.86221,596,0.627,0.108,0.772,-0.122,-1.038,-0.061,8.267,-38.749,-134.742,-19.333,-11.767,-3.96,26.54,0.38181,-0.2778,-0.18829,-0.86108,598,0.265,-0.025,0.96,-0.122,-1.587,0.244,-1.148,-15.485,174.54,-8.207,-9.433,-33.76,27.12,0.0513,0.13226,-0.01541,0.98972,590,0.909,0.11,0.367,0.0,0.122,0.0,16.749,-67.159,-169.689,-27.94,-13.013,-5.647,31.1,-0.15417,0.53412,0.16995,0.8136,594
149,0.887,-0.049,0.501,-0.122,0.0,0.0,-5.488,-60.617,-174.754,-24.873,-9.333,-14.84,28.42,-0.01492,0.50589,-0.01843,0.86221,597,0.628,0.107,0.771,-0.183,-1.038,-0.183,8.267,-38.765,-134.736,-19.333,-11.767,-3.96,26.54,0.38181,-0.2778,-0.18829,-0.86108,599,0.268,-0.025,0.958,0.0,-1.404,-0.122,-1.154,-15.513,174.567,-8.207,-9.433,-33.76,27.12,0.0513,0.13226,-0.01541,0.98972,591,0.909,0.109,0.367,-0.061,0.122,0.0,16.749,-67.159,-169.684,-27.94,-13.013,-5.647,31.1,-0.15417,0.53412,0.16995,0.8136,595
150,0.887,-0.047,0.499,-0.183,0.0,0.0,-5.488,-60.612,-174.749,-25.327,-9.433,-14.467,28.42,-0.01492,0.50589,-0.01843,0.86221,600,0.628,0.107,0.771,0.061,-1.038,-0.122,8.267,-38.787,-134.725,-19.333,-11.767,-3.96,26.54,0.38181,-0.2778,-0.18829,-0.86108,606,0.269,-0.024,0.957,0.0,-1.221,-0.305,-1.154,-15.54,174.584,-8.207,-9.433,-33.76,27.12,0.0513,0.13226,-0.01541,0.98972,602,0.91,0.109,0.367,0.0,0.122,-0.122,16.754,-67.154,-169.684,-27.94,-13.013,-5.647,31.1,-0.15417,0.53412,0.16995,0.8136,604
151,0.887,-0.046,0.499,-0.061,0.0,0.0,-5.488,-60.612,-174.749,-25.327,-9.433,-14.467,28.42,-0.01492,0.50589,-0.01843,0.86221,601,0.628,0.11,0.77,0.0,-0.977,-0.061,8.267,-38.804,-134.736,-19.333,-11.767,-3.96,26.54,0.38181,-0.2778,-0.18829,-0.86108,607,0.27,-0.024,0.958,0.305,-1.038,-0.183,-1.154,-15.562,174.6,-8.207,-9.433,-33.76,27.12,0.0513,0.13226,-0.01541,0.98972,603,0.91,0.109,0.368,0.122,0.122,-0.244,16.765,-67.154,-169.695,-27.94,-13.013,-5.647,31.1,-0.15417,0.53412,0.16995,0.8136,605
152,0.886,-0.047,0.5,0.061,0.061,0.0,-5.488,-60.612,-174.743,-25.327,-9.433,-14.467,28.42,-0.01492,0.50589,-0.01843,0.86221,610,0.63,0.112,0.768,0.0,-0.916,0.0,8.267,-38.826,-134.742,-19.333,-11.767,-3.96,26.54,0.38403,-0.27972,-0.19031,-0.85904,612,0.27,-0.021,0.958,0.305,-0.916,0.0,-1.148,-15.584,174.6,-8.293,-9.047,-33.327,27.12,0.0513,0.13226,-0.01541,0.98972,608,0.91,0.109,0.367,0.0,0.244,-0.305,16.776,-67.148,-169.7,-27.94,-13.013,-5.647,31.1,-0.15417,0.53412,0.16995,0.8136,614
153,0.886,-0.048,0.503,0.122,0.061,0.0,-5.482,-60.606,-174.743,-25.327,-9.433,-14.467,28.42,-0.01492,0.50589,-0.01843,0.86221,611,0.631,0.114,0.767,0.0,-0.671,0.183,8.267,-38.842,-134.742,-19.333,-11.767,-3.96,26.54,0.38403,-0.27972,-0.19031,-0.85904,613,0.273,-0.019,0.957,0.244,-0.854,0.122,-1.148,-15.601,174.6,-8.293,-9.047,-33.327,27.12,0.0513,0.13226,-0.01541,0.98972,609,0.91,0.109,0.368,-0.122,0.244,-0.183,16.776,-67.143,-169.7,-27.94,-13.013,-5.647,31.1,-0.15417,0.53412,0.16995,0.8136,615
154,0.885,-0.049,0.503,-0.061,0.061,0.0,-5.482,-60.601,-174.738,-25.327,-9.433,-14.467,28.42,-0.01541,0.50534,-0.01816,0.86252,616,0.631,0.113,0.769,0.0,-0.488,0.244,8.267,-38.853,-134.742,-19.333,-11.767,-3.96,26.54,0.38403,-0.27972,-0.19031,-0.85904,620,0.274,-0.018,0.953,0.061,-0.671,0.244,-1.148,-15.617,174.595,-8.293,-9.047,-33.327,27.12,0.0513,0.13226,-0.01541,0.98972,618,0.911,0.111,0.367,-0.122,0.305,-0.061,16.771,-67.132,-169.695,-27.94,-13.013,-5.647,31.1,-0.15417,0.53412,0.16995,0.8136,624
155,0.886,-0.048,0.502,-0.061,0.0,0.0,-5.488,-60.601,-174.738,-25.327,-9.433,-14.467,28.42,-0.01541,0.50534,-0.01816,0.86252,617,0.631,0.112,0.769,0.0,-0.427,0.244,8.262,-38.864,-134.742,-19.333,-11.767,-3.96,26.54,0.38403,-0.27972,-0.19031,-0.85904,621,0.273,-0.018,0.956,-0.183,-0.366,0.305,-1.148,-15.628,174.578,-8.293,-9.047,-33.327,27.12,0.0513,0.13226,-0.01541,0.98972,619,0.91,0.113,0.368,-0.061,0.488,0.0,16.765,-67.126,-169.684,-27.94,-13.013,-5.647,31.1,-0.15417,0.53412,0.16995,0.8136,625
156,0.886,-0.046,0.501,0.0,0.0,0.0,-5.482,-60.601,-174.732,-25.327,-9.433,-14.467,28.42,-0.01541,0.50534,-0.01816,0.86252,626,0.631,0.112,0.769,0.061,-0.244,0.0,8.262,-38.875,-134.747,-19.333,-11.767,-3.96,26.54,0.38403,-0.27972,-0.19031,-0.85904,630,0.272,-0.021,0.958,-0.305,-0.061,0.427,-1.159,-15.634,174.551,-8.293,-9.047,-33.327,27.12,0.04822,0.13535,-0.01639,0.98944,622,0.909,0.115,0.367,0.0,0.549,0.0,16.76,-67.115,-169.673,-27.94,-13.013,-5.647,31.1,-0.15417,0.53412,0.16995,0.8136,628
157,0.887,-0.045,0.501,0.061,0.0,0.0,-5.482,-60.595,-174.727,-25.327,-9.433,-14.467,28.42,-0.01541,0.50534,-0.01816,0.86252,627,0.632,0.112,0.769,0.183,-0.122,-0.061,8.262,-38.881,-134.753,-19.333,-11.767,-3.96,26.54,0.38403,-0.27972,-0.19031,-0.85904,631,0.274,-0.021,0.958,-0.305,-0.061,0.366,-1.165,-15.634,174.529,-8.293,-9.047,-33.327,27.12,0.04822,0.13535,-0.01639,0.98944,623,0.911,0.114,0.367,-0.061,0.732,0.0,16.749,-67.099,-169.662,-27.94,-13.013,-5.647,31.1,-0.15417,0.53412,0.16995,0.8136,629
158,0.887,-0.045,0.501,0.183,-0.061,0.0,-5.477,-60.595,-174.727,-25.327,-9.433,-14.467,28.42,-0.01541,0.50534,-0.01816,0.86252,632,0.63,0.113,0.77,0.305,0.061,-0.061,8.267,-38.881,-134.753,-19.333,-11.767,-3.96,26.54,0.38403,-0.27972,-0.19031,-0.85904,634,0.274,-0.021,0.958,-0.061,-0.183,0.122,-1.176,-15.639,174.512,-8.293,-9.047,-33.327,27.12,0.04822,0.13535,-0.01639,0.98944,636,0.911,0.114,0.368,-0.305,0.793,0.0,16.738,-67.088,-169.645,-27.94,-13.013,-5.647,31.1,-0.15417,0.53412,0.16995,0.8136,638
159,0.887,-0.046,0.501,0.0,-0.061,0.0,-5.477,-60.595,-174.721,-25.327,-9.433,-14.467,28.42,-0.01541,0.50534,-0.01816,0.86252,633,0.627,0.114,0.769,0.488,0.366,0.0,8.273,-38.881,-134.753,-19.333,-11.767,-3.96,26.54,0.38403,-0.27972,-0.19031,-0.85904,635,0.273,-0.02,0.958,0.244,-0.122,0.244,-1.176,-15.645,174.49,-8.293,-9.047,-33.327,27.12,0.04822,0.13535,-0.01639,0.98944,637,0.909,0.113,0.369,-0.305,0.61,0.0,16.727,-67.077,-169.629,-27.94,-13.013,-5.647,31.1,-0.15417,0.53412,0.16995,0.8136,639
160,0.887,-0.042,0.502,-0.122,-0.244,0.0,-5.477,-60.595,-174.721,-25.327,-9.433,-14.467,28.42,-0.01541,0.50534,-0.01816,0.86252,642,0.628,0.115,0.769,0.854,0.61,0.0,8.284,-38.875,-134.764,-19.333,-11.767,-3.96,26.54,0.38403,-0.27972,-0.19031,-0.85904,644,0.27,-0.019,0.957,0.549,0.061,0.366,-1.17,-15.65,174.468,-8.293,-9.047,-33.327,27.12,0.04822,0.13535,-0.01639,0.98944,640,0.908,0.115,0.37,-0.183,0.671,0.122,16.71,-67.061,-169.612,-28.233,-13.227,-6.14,31.1,-0.15417,0.53412,0.16995,0.8136,646
161,0.886,-0.043,0.5,0.183,-0.549,0.305,-5.477,-60.601,-174.71,-25.327,-9.433,-14.467,28.42,-0.01541,0.50534,-0.01816,0.86252,643,0.632,0.113,0.771,0.977,0.671,0.0,8.3,-38.864,-134.78,-19.333,-11.767,-3.96,26.54,0.38403,-0.27972,-0.19031,-0.85904,645,0.269,-0.017,0.955,0.732,0.549,0.488,-1.165,-15.645,174.452,-8.293,-9.047,-33.327,27.12,0.04822,0.13535,-0.01639,0.98944,641,0.908,0.114,0.372,0.0,0.977,0.061,16.699,-67.044,-169.59,-28.233,-13.227,-6.14,31.1,-0.15417,0.53412,0.16995,0.8136,647
162,0.886,-0.045,0.498,0.488,-0.854,0.549,-5.482,-60.612,-174.694,-25.327,-9.433,-14.467,28.42,-0.01541,0.50534,-0.01816,0.86252,648,0.63,0.111,0.771,0.916,1.038,-0.061,8.322,-38.848,-134.797,-19.333,-11.767,-3.96,26.54,0.38403,-0.27972,-0.19031,-0.85904,652,0.273,-0.019,0.957,0.977,0.916,0.488,-1.148,-15.639,174.446,-8.293,-9.047,-33.327,27.12,0.04822,0.13535,-0.01639,0.98944,650,0.91,0.112,0.37,0.183,1.038,0.0,16.694,-67.022,-169.574,-28.233,-13.227,-6.14,31.1,-0.15475,0.53299,0.17017,0.81418,654
163,0.887,-0.048,0.499,0.671,-0.671,0.61,-5.493,-60.623,-174.661,-25.327,-9.433,-14.467,28.42,-0.01541,0.50534,-0.01816,0.86252,649,0.629,0.112,0.773,1.038,1.099,0.0,8.339,-38.826,-134.808,-19.333,-11.767,-3.96,26.54,0.38403,-0.27972,-0.19031,-0.85904,653,0.272,-0.022,0.959,1.16,1.282,0.366,-1.132,-15.617,174.43,-8.293,-9.047,-33.327,27.12,0.04822,0.13535,-0.01639,0.98944,651,0.909,0.111,0.368,0.244,1.038,0.0,16.688,-67.006,-169.552,-28.233,-13.227,-6.14,31.1,-0.15475,0.53299,0.17017,0.81418,655
164,0.89,-0.05,0.498,0.549,-0.305,0.549,-5.499,-60.628,-174.633,-25.327,-9.433,-14.467,28.42,-0.01541,0.50534,-0.01816,0.86252,656,0.626,0.117,0.772,0.793,1.282,0.122,8.35,-38.809,-134.813,-19.333,-11.767,-3.96,26.54,0.38403,-0.27972,-0.19031,-0.85904,664,0.271,-0.02,0.961,1.221,1.343,0.427,-1.11,-15.595,174.408,-8.293,-9.047,-33.327,27.12,0.04822,0.13535,-0.01639,0.98944,658,0.909,0.11,0.367,0.427,0.916,-0.061,16.694,-66.984,-169.541,-28.233,-13.227,-6.14,31.1,-0.15475,0.53299,0.17017,0.81418,660
165,0.89,-0.05,0.5,0.183,-0.183,0.488,-5.51,-60.634,-174.606,-25.327,-9.433,-14.467,28.42,-0.01541,0.50534,-0.01816,0.86252,657,0.627,0.118,0.775,0.854,1.404,0.122,8.361,-38.782,-134.808,-19.333,-11.767,-3.96,26.54,0.38403,-0.27972,-0.19031,-0.85904,665,0.267,-0.015,0.964,1.221,1.282,0.488,-1.093,-15.573,174.391,-8.293,-9.047,-33.327,27.12,0.04822,0.13535,-0.01639,0.98944,659,0.911,0.113,0.372,0.183,0.122,0.366,16.694,-66.984,-169.525,-28.233,-13.227,-6.14,31.1,-0.15475,0.53299,0.17017,0.81418,661
166,0.887,-0.049,0.497,0.0,-0.305,0.366,-5.521,-60.634,-174.584,-25.327,-9.433,-14.467,28.42,-0.01541,0.50534,-0.01816,0.86252,668,0.627,0.114,0.775,0.732,1.343,0.122,8.377,-38.754,-134.808,-19.04,-11.9,-4.027,26.54,0.38403,-0.27972,-0.19031,-0.85904,672,0.266,-0.014,0.965,1.16,0.977,0.427,-1.071,-15.551,174.38,-8.293,-9.047,-33.327,27.12,0.04822,0.13535,-0.01639,0.98944,662,0.909,0.113,0.374,0.0,0.122,0.488,16.677,-66.984,-169.503,-28.233,-13.227,-6.14,31.1,-0.15475,0.53299,0.17017,0.81418,666
167,0.887,-0.047,0.496,0.0,-0.549,0.244,-5.532,-60.639,-174.567,-25.327,-9.433,-14.467,28.42,-0.01541,0.50534,-0.01816,0.86252,669,0.625,0.111,0.774,0.366,1.282,0.0,8.383,-38.732,-134.802,-19.04,-11.9,-4.027,26.54,0.38403,-0.27972,-0.19031,-0.85904,673,0.266,-0.017,0.962,0.977,1.038,0.427,-1.049,-15.535,174.37,-8.293,-9.047,-33.327,27.12,0.04822,0.13535,-0.01639,0.98944,663,0.906,0.113,0.372,-0.122,0.122,0.366,16.661,-66.984,-169.475,-28.233,-13.227,-6.14,31.1,-0.15475,0.53299,0.17017,0.81418,667
168,0.887,-0.047,0.498,0.0,-0.488,0.305,-5.543,-60.65,-174.551,-24.98,-9.4,-14.2,28.42,-0.01541,0.50534,-0.01816,0.86252,670,0.624,0.11,0.774,0.244,1.343,-0.183,8.388,-38.705,-134.819,-19.04,-11.9,-4.027,26.54,0.38376,-0.27859,-0.19064,-0.85944,678,0.264,-0.02,0.96,0.793,1.282,0.305,-1.033,-15.513,174.375,-8.293,-9.047,-33.327,27.12,0.04822,0.13535,-0.01639,0.98944,674,0.906,0.111,0.37,0.0,0.0,0.183,16.644,-66.984,-169.453,-28.233,-13.227,-6.14,31.1,-0.15475,0.53299,0.17017,0.81418,676
169,0.886,-0.049,0.499,0.061,-0.305,0.244,-5.554,-60.656,-174.534,-24.98,-9.4,-14.2,28.42,-0.01541,0.50534,-0.01816,0.86252,671,0.623,0.109,0.772,0.183,1.282,-0.366,8.388,-38.683,-134.824,-19.04,-11.9,-4.027,26.54,0.38376,-0.27859,-0.19064,-0.85944,679,0.265,-0.022,0.96,0.854,1.221,0.183,-1.022,-15.491,174.37,-8.293,-9.047,-33.327,27.12,0.04822,0.13535,-0.01639,0.98944,675,0.907,0.107,0.368,0.0,-0.305,0.122,16.639,-66.984,-169.442,-28.233,-13.227,-6.14,31.1,-0.15475,0.53299,0.17017,0.81418,677
170,0.886,-0.05,0.5,0.0,-0.183,0.122,-5.559,-60.661,-174.523,-24.98,-9.4,-14.2,28.42,-0.01541,0.50534,-0.01816,0.86252,682,0.623,0.109,0.773,0.122,1.343,-0.244,8.394,-38.655,-134.824,-19.04,-11.9,-4.027,26.54,0.38376,-0.27859,-0.19064,-0.85944,688,0.264,-0.022,0.957,0.916,1.282,0.183,-1.005,-15.469,174.37,-8.227,-9.18,-33.0,27.12,0.04822,0.13535,-0.01639,0.98944,680,0.908,0.104,0.37,-0.488,-0.488,0.183,16.639,-66.989,-169.437,-28.233,-13.227,-6.14,31.1,-0.15475,0.53299,0.17017,0.81418,684
171,0.886,-0.051,0.502,-0.122,-0.183,-0.061,-5.565,-60.661,-174.518,-24.98,-9.4,-14.2,28.42,-0.01541,0.50534,-0.01816,0.86252,683,0.625,0.11,0.771,0.0,1.465,0.0,8.394,-38.628,-134.819,-19.04,-11.9,-4.027,26.54,0.38376,-0.27859,-0.19064,-0.85944,689,0.264,-0.02,0.959,0.854,1.343,0.183,-0.989,-15.441,174.364,-8.227,-9.18,-33.0,27.12,0.04822,0.13535,-0.01639,0.98944,681,0.908,0.105,0.371,-0.793,-0.427,0.183,16.628,-67.0,-169.431,-28.233,-13.227,-6.14,31.1,-0.15475,0.53299,0.17017,0.81418,685
172,0.886,-0.05,0.502,-0.366,-0.183,-0.183,-5.565,-60.661,-174.518,-24.98,-9.4,-14.2,28.42,-0.01669,0.50583,-0.01773,0.86224,686,0.627,0.112,0.771,0.0,1.404,0.305,8.383,-38.6,-134.824,-19.04,-11.9,-4.027,26.54,0.38376,-0.27859,-0.19064,-0.85944,692,0.266,-0.018,0.96,0.671,1.343,0.366,-0.978,-15.419,174.375,-8.227,-9.18,-33.0,27.12,0.04822,0.13535,-0.01639,0.98944,690,0.911,0.108,0.367,-0.977,-0.549,0.122,16.606,-67.011,-169.431,-28.233,-13.227,-6.14,31.1,-0.15475,0.53299,0.17017,0.81418,696
173,0.887,-0.05,0.499,-0.61,-0.061,-0.305,-5.565,-60.667,-174.523,-24.98,-9.4,-14.2,28.42,-0.01669,0.50583,-0.01773,0.86224,687,0.63,0.113,0.773,0.183,1.404,0.305,8.377,-38.578,-134.83,-19.04,-11.9,-4.027,26.54,0.38376,-0.27859,-0.19064,-0.85944,693,0.267,-0.018,0.958,0.244,1.221,0.61,-0.972,-15.392,174.38,-8.227,-9.18,-33.0,27.12,0.04822,0.13535,-0.01639,0.98944,691,0.914,0.109,0.372,-1.526,-0.61,0.366,16.584,-67.022,-169.415,-28.233,-13.227,-6.14,31.1,-0.15475,0.53299,0.17017,0.81418,697
174,0.888,-0.051,0.498,-0.732,0.0,-0.427,-5.565,-60.667,-174.534,-24.98,-9.4,-14.2,28.42,-0.01669,0.50583,-0.01773,0.86224,698,0.628,0.114,0.774,0.0,1.282,0.122,8.372,-38.551,-134.83,-19.04,-11.9,-4.027,26.54,0.38376,-0.27859,-0.19064,-0.85944,702,0.269,-0.018,0.959,0.0,1.16,0.732,-0.972,-15.37,174.38,-8.227,-9.18,-33.0,27.12,0.04965,0.13333,-0.01495,0.98965,694,0.911,0.112,0.37,-1.587,-0.305,0.549,16.54,-67.033,-169.376,-28.153,-13.4,-5.547,31.1,-0.15475,0.53299,0.17017,0.81418,700
175,0.887,-0.05,0.499,-0.488,0.0,-0.488,-5.565,-60.661,-174.551,-24.98,-9.4,-14.2,28.42,-0.01669,0.50583,-0.01773,0.86224,699,0.626,0.116,0.773,-0.122,1.16,-0.061,8.366,-38.529,-134.846,-19.04,-11.9,-4.027,26.54,0.38376,-0.27859,-0.19064,-0.85944,703,0.268,-0.019,0.959,0.0,1.465,0.61,-0.978,-15.348,174.375,-8.227,-9.18,-33.0,27.12,0.04965,0.13333,-0.01495,0.98965,695,0.91,0.114,0.366,-1.099,-0.061,0.61,16.485,-67.039,-169.343,-28.153,-13.4,-5.547,31.1,-0.15475,0.53299,0.17017,0.81418,701
176,0.888,-0.048,0.501,-0.122,-0.122,-0.427,-5.559,-60.661,-174.567,-24.98,-9.4,-14.2,28.42,-0.01669,0.50583,-0.01773,0.86224,706,0.622,0.117,0.775,0.061,0.916,-0.244,8.366,-38.513,-134.868,-19.04,-11.9,-4.027,26.54,0.38376,-0.27859,-0.19064,-0.85944,708,0.266,-0.018,0.963,0.305,1.526,0.427,-0.983,-15.32,174.386,-8.227,-9.18,-33.0,27.12,0.04965,0.13333,-0.01495,0.98965,704,0.91,0.114,0.367,-0.793,0.061,0.732,16.441,-67.044,-169.31,-28.153,-13.4,-5.547,31.1,-0.15475,0.53299,0.17017,0.81418,710
177,0.89,-0.045,0.502,0.305,-0.244,-0.183,-5.548,-60.667,-174.578,-24.98,-9.4,-14.2,28.42,-0.01669,0.50583,-0.01773,0.86224,707,0.621,0.112,0.776,0.122,1.038,-0.61,8.372,-38.496,-134.896,-19.04,-11.9,-4.027,26.54,0.38376,-0.27859,-0.19064,-0.85944,709,0.262,-0.018,0.963,0.427,1.282,0.061,-0.978,-15.293,174.386,-8.227,-9.18,-33.0,27.12,0.04965,0.13333,-0.01495,0.98965,705,0.908,0.113,0.371,-0.854,0.183,0.671,16.392,-67.05,-169.25,-28.153,-13.4,-5.547,31.1,-0.15475,0.53299,0.17017,0.81418,711
178,0.891,-0.044,0.5,0.488,-0.427,0.061,-5.537,-60.667,-174.578,-24.98,-9.4,-14.2,28.42,-0.01669,0.50583,-0.01773,0.86224,714,0.622,0.109,0.777,0.061,0.854,-0.793,8.377,-38.474,-134.918,-19.04,-11.9,-4.027,26.54,0.38376,-0.27859,-0.19064,-0.85944,716,0.26,-0.021,0.963,0.488,0.854,-0.549,-0.972,-15.271,174.364,-8.227,-9.18,-33.0,27.12,0.04965,0.13333,-0.01495,0.98965,712,0.908,0.11,0.368,-0.793,0.061,0.549,16.353,-67.05,-169.206,-28.153,-13.4,-5.547,31.1,-0.15558,0.53308,0.16956,0.81409,718
179,0.89,-0.042,0.497,0.122,-0.366,0.061,-5.532,-60.672,-174.573,-24.98,-9.4,-14.2,28.42,-0.01669,0.50583,-0.01773,0.86224,715,0.62,0.112,0.776,0.122,0.732,-0.671,8.388,-38.463,-134.94,-19.04,-11.9,-4.027,26.54,0.38376,-0.27859,-0.19064,-0.85944,717,0.261,-0.021,0.962,0.732,0.671,-0.793,-0.961,-15.26,174.315,-8.227,-9.18,-33.0,27.12,0.04965,0.13333,-0.01495,0.98965,713,0.908,0.107,0.365,-0.671,0.0,0.305,16.32,-67.05,-169.189,-28.153,-13.4,-5.547,31.1,-0.15558,0.53308,0.16956,0.81409,719
180,0.889,-0.041,0.495,-0.305,-0.244,-0.061,-5.532,-60.677,-174.567,-24.98,-9.4,-14.2,28.42,-0.01669,0.50583,-0.01773,0.86224,720,0.621,0.114,0.776,0.061,0.671,-0.305,8.399,-38.447,-134.956,-19.04,-11.9,-4.027,26.54,0.38376,-0.27859,-0.19064,-0.85944,724,0.261,-0.016,0.963,1.038,0.61,-0.671,-0.939,-15.249,174.26,-8.227,-9.18,-33.0,27.12,0.04965,0.13333,-0.01495,0.98965,722,0.908,0.106,0.367,-0.61,-0.244,0.0,16.298,-67.05,-169.189,-28.153,-13.4,-5.547,31.1,-0.15558,0.53308,0.16956,0.81409,726
181,0.89,-0.041,0.497,-0.305,-0.244,-0.061,-5.532,-60.683,-174.567,-24.98,-9.4,-14.2,28.42,-0.01669,0.50583,-0.01773,0.86224,721,0.622,0.115,0.776,-0.061,0.61,0.122,8.394,-38.436,-134.956,-19.04,-11.9,-4.027,26.54,0.38376,-0.27859,-0.19064,-0.85944,725,0.261,-0.012,0.964,0.854,0.427,-0.305,-0.917,-15.238,174.216,-8.227,-9.18,-33.0,27.12,0.04965,0.13333,-0.01495,0.98965,723,0.91,0.11,0.369,-0.549,-0.305,-0.244,16.298,-67.055,-169.211,-28.153,-13.4,-5.547,31.1,-0.15558,0.53308,0.16956,0.81409,727
182,0.89,-0.043,0.499,0.0,-0.183,-0.061,-5.532,-60.688,-174.567,-24.98,-9.4,-14.2,28.42,-0.01669,0.50583,-0.01773,0.86224,728,0.625,0.116,0.776,-0.183,0.305,0.244,8.388,-38.425,-134.956,-19.04,-11.9,-4.027,26.54,0.38376,-0.27859,-0.19064,-0.85944,732,0.262,-0.012,0.963,0.244,0.122,0.244,-0.906,-15.233,174.183,-8.227,-9.18,-33.0,27.12,0.04965,0.13333,-0.01495,0.98965,730,0.912,0.113,0.366,-0.366,-0.366,-0.366,16.309,-67.061,-169.255,-28.153,-13.4,-5.547,31.1,-0.15558,0.53308,0.16956,0.81409,736
183,0.89,-0.046,0.498,0.0,-0.061,0.0,-5.526,-60.688,-174.567,-24.98,-9.4,-14.2,28.42,-0.01669,0.50583,-0.01773,0.86224,729,0.625,0.115,0.775,-0.122,0.244,0.0,8.383,-38.425,-134.956,-19.04,-11.9,-4.027,26.54,0.38376,-0.27859,-0.19064,-0.85944,733,0.265,-0.014,0.963,-0.061,0.0,0.305,-0.906,-15.233,174.161,-8.227,-9.18,-33.0,27.12,0.04965,0.13333,-0.01495,0.98965,731,0.912,0.112,0.367,-0.427,-0.305,-0.305,16.326,-67.066,-169.321,-28.153,-13.4,-5.547,31.1,-0.15558,0.53308,0.16956,0.81409,737
184,0.889,-0.049,0.496,-0.122,-0.061,0.061,-5.521,-60.688,-174.562,-24.98,-9.4,-14.2,28.42,-0.01669,0.50583,-0.01773,0.86224,738,0.623,0.113,0.775,-0.183,0.0,-0.183,8.383,-38.419,-134.956,-18.94,-11.8,-4.173,26.54,0.38376,-0.27859,-0.19064,-0.85944,742,0.264,-0.017,0.963,-0.122,-0.183,0.122,-0.912,-15.233,174.144,-8.227,-9.18,-33.0,27.12,0.04965,0.13333,-0.01495,0.98965,734,0.911,0.11,0.368,-0.549,-0.305,-0.183,16.337,-67.072,-169.349,-28.153,-13.4,-5.547,31.1,-0.15558,0.53308,0.16956,0.81409,740
185,0.887,-0.051,0.497,-0.305,-0.122,0.122,-5.526,-60.688,-174.556,-24.98,-9.4,-14.2,28.42,-0.01669,0.50583,-0.01773,0.86224,739,0.624,0.113,0.773,-0.183,-0.061,-0.183,8.377,-38.419,-134.951,-18.94,-11.8,-4.173,26.54,0.38376,-0.27859,-0.19064,-0.85944,743,0.264,-0.018,0.961,0.0,-0.305,0.0,-0.912,-15.238,174.144,-8.227,-9.18,-33.0,27.12,0.04965,0.13333,-0.01495,0.98965,735,0.909,0.107,0.366,-0.793,-0.122,0.0,16.337,-67.077,-169.349,-28.153,-13.4,-5.547,31.1,-0.15558,0.53308,0.16956,0.81409,741
186,0.887,-0.05,0.499,-0.305,-0.244,0.061,-5.532,-60.694,-174.551,-25.233,-9.133,-14.04,28.42,-0.01669,0.50583,-0.01773,0.86224,748,0.624,0.114,0.774,-0.061,-0.244,0.0,8.377,-38.425,-134.94,-18.94,-11.8,-4.173,26.54,0.38303,-0.27673,-0.18948,-0.86063,750,0.265,-0.015,0.959,0.0,-0.305,0.061,-0.912,-15.244,174.15,-8.227,-9.18,-33.0,27.12,0.04965,0.13333,-0.01495,0.98965,744,0.911,0.105,0.365,-1.038,-0.122,0.122,16.32,-67.077,-169.338,-28.153,-13.4,-5.547,31.1,-0.15558,0.53308,0.16956,0.81409,746
187,0.888,-0.051,0.502,-0.244,-0.122,-0.061,-5.543,-60.694,-174.545,-25.233,-9.133,-14.04,28.42,-0.01669,0.50583,-0.01773,0.86224,749,0.624,0.115,0.775,-0.061,-0.305,0.305,8.377,-38.43,-134.929,-18.94,-11.8,-4.173,26.54,0.38303,-0.27673,-0.18948,-0.86063,751,0.265,-0.013,0.96,-0.183,-0.427,0.366,-0.917,-15.249,174.161,-8.227,-9.18,-33.0,27.12,0.04965,0.13333,-0.01495,0.98965,745,0.911,0.104,0.37,-0.977,-0.061,0.183,16.298,-67.083,-169.343,-28.153,-13.4,-5.547,31.1,-0.15558,0.53308,0.16956,0.81409,747
188,0.887,-0.05,0.501,-0.061,-0.061,-0.122,-5.543,-60.694,-174.545,-25.233,-9.133,-14.04,28.42,-0.01657,0.50607,-0.01767,0.86209,754,0.623,0.111,0.775,-0.061,-0.244,0.671,8.366,-38.441,-134.907,-18.94,-11.8,-4.173,26.54,0.38303,-0.27673,-0.18948,-0.86063,758,0.264,-0.012,0.962,-0.488,-0.671,0.61,-0.923,-15.26,174.183,-8.12,-9.22,-33.2,27.12,0.04965,0.13333,-0.01495,0.98965,752,0.909,0.104,0.371,-0.549,0.061,0.183,16.271,-67.083,-169.36,-28.153,-13.4,-5.547,31.1,-0.15558,0.53308,0.16956,0.81409,756
189,0.887,-0.048,0.499,0.061,-0.122,-0.122,-5.537,-60.694,-174.551,-25.233,-9.133,-14.04,28.42,-0.01657,0.50607,-0.01767,0.86209,755,0.624,0.109,0.773,0.0,0.0,0.854,8.355,-38.447,-134.896,-18.94,-11.8,-4.173,26.54,0.38303,-0.27673,-0.18948,-0.86063,759,0.263,-0.017,0.959,-0.732,-0.549,0.854,-0.939,-15.276,174.199,-8.12,-9.22,-33.2,27.12,0.04965,0.13333,-0.01495,0.98965,753,0.909,0.104,0.369,-0.183,0.122,0.122,16.26,-67.083,-169.36,-28.153,-13.4,-5.547,31.1,-0.15558,0.53308,0.16956,0.81409,757
190,0.888,-0.048,0.498,0.244,-0.122,0.0,-5.532,-60.699,-174.551,-25.233,-9.133,-14.04,28.42,-0.01657,0.50607,-0.01767,0.86209,762,0.626,0.107,0.773,-0.122,0.061,0.732,8.339,-38.447,-134.874,-18.94,-11.8,-4.173,26.54,0.38303,-0.27673,-0.18948,-0.86063,764,0.263,-0.021,0.958,-0.61,-0.366,0.977,-0.956,-15.287,174.21,-8.12,-9.22,-33.2,27.12,0.04965,0.13333,-0.01495,0.98965,760,0.91,0.105,0.371,0.0,0.244,0.0,16.249,-67.083,-169.365,-28.447,-13.027,-6.373,31.1,-0.15558,0.53308,0.16956,0.81409,766
191,0.886,-0.049,0.499,0.305,-0.061,-0.061,-5.526,-60.699,-174.551,-25.233,-9.133,-14.04,28.42,-0.01657,0.50607,-0.01767,0.86209,763,0.623,0.108,0.773,-0.305,0.0,0.305,8.328,-38.452,-134.857,-18.94,-11.8,-4.173,26.54,0.38303,-0.27673,-0.18948,-0.86063,765,0.263,-0.024,0.955,-0.549,-0.122,0.916,-0.972,-15.293,174.221,-8.12,-9.22,-33.2,27.12,0.04965,0.13333,-0.01495,0.98965,761,0.91,0.107,0.368,0.0,0.427,0.0,16.243,-67.077,-169.387,-28.447,-13.027,-6.373,31.1,-0.15558,0.53308,0.16956,0.81409,767
192,0.887,-0.047,0.501,0.244,-0.183,-0.122,-5.521,-60.699,-174.551,-25.233,-9.133,-14.04,28.42,-0.01657,0.50607,-0.01767,0.86209,768,0.623,0.11,0.775,-0.366,0.122,-0.061,8.317,-38.452,-134.857,-18.94,-11.8,-4.173,26.54,0.38303,-0.27673,-0.18948,-0.86063,770,0.265,-0.025,0.956,-0.183,0.305,0.671,-0.989,-15.293,174.227,-8.12,-9.22,-33.2,27.12,0.05109,0.13248,-0.01514,0.98972,772,0.909,0.108,0.37,-0.244,0.488,0.0,16.232,-67.066,-169.415,-28.447,-13.027,-6.373,31.1,-0.15375,0.53369,0.16763,0.81445,774
193,0.888,-0.047,0.5,0.0,-0.122,-0.183,-5.51,-60.699,-174.551,-25.233,-9.133,-14.04,28.42,-0.01657,0.50607,-0.01767,0.86209,769,0.623,0.112,0.775,-0.305,0.366,-0.122,8.306,-38.447,-134.874,-18.94,-11.8,-4.173,26.54,0.38303,-0.27673,-0.18948,-0.86063,771,0.264,-0.022,0.963,0.305,0.305,0.366,-0.994,-15.287,174.232,-8.12,-9.22,-33.2,27.12,0.05109,0.13248,-0.01514,0.98972,773,0.909,0.109,0.369,-0.488,0.488,0.0,16.216,-67.061,-169.437,-28.447,-13.027,-6.373,31.1,-0.15375,0.53369,0.16763,0.81445,775
194,0.889,-0.046,0.499,-0.061,-0.061,-0.305,-5.504,-60.699,-174.562,-25.233,-9.133,-14.04,28.42,-0.01657,0.50607,-0.01767,0.86209,776,0.624,0.116,0.775,-0.671,0.427,-0.122,8.295,-38.441,-134.885,-18.94,-11.8,-4.173,26.54,0.38303,-0.27673,-0.18948,-0.86063,782,0.263,-0.017,0.961,0.488,0.549,0.366,-0.994,-15.282,174.238,-8.12,-9.22,-33.2,27.12,0.05109,0.13248,-0.01514,0.98972,780,0.91,0.109,0.369,-0.61,0.366,-0.061,16.205,-67.05,-169.453,-28.447,-13.027,-6.373,31.1,-0.15375,0.53369,0.16763,0.81445,778
195,0.889,-0.045,0.496,0.061,-0.183,-0.244,-5.493,-60.699,-174.567,-25.233,-9.133,-14.04,28.42,-0.01657,0.50607,-0.01767,0.86209,777,0.624,0.114,0.778,-0.732,0.671,-0.122,8.284,-38.43,-134.896,-18.94,-11.8,-4.173,26.54,0.38303,-0.27673,-0.18948,-0.86063,783,0.266,-0.014,0.96,0.244,0.488,0.244,-0.989,-15.271,174.249,-8.12,-9.22,-33.2,27.12,0.05109,0.13248,-0.01514,0.98972,781,0.91,0.11,0.368,-0.549,0.244,-0.122,16.194,-67.044,-169.47,-28.447,-13.027,-6.373,31.1,-0.15375,0.53369,0.16763,0.81445,779
196,0.889,-0.044,0.495,0.244,-0.305,-0.183,-5.482,-60.705,-174.578,-25.233,-9.133,-14.04,28.42,-0.01657,0.50607,-0.01767,0.86209,786,0.623,0.112,0.777,-0.916,0.671,-0.061,8.262,-38.419,-134.901,-18.94,-11.8,-4.173,26.54,0.38303,-0.27673,-0.18948,-0.86063,788,0.264,-0.016,0.96,-0.061,0.671,0.0,-0.989,-15.266,174.238,-8.12,-9.22,-33.2,27.12,0.05109,0.13248,-0.01514,0.98972,784,0.91,0.109,0.371,-0.427,0.305,-0.244,16.188,-67.039,-169.481,-28.447,-13.027,-6.373,31.1,-0.15375,0.53369,0.16763,0.81445,790
197,0.889,-0.044,0.495,0.305,-0.305,-0.122,-5.471,-60.71,-174.578,-25.233,-9.133,-14.04,28.42,-0.01657,0.50607,-0.01767,0.86209,787,0.621,0.111,0.776,-0.916,0.549,-0.183,8.245,-38.408,-134.907,-18.94,-11.8,-4.173,26.54,0.38303,-0.27673,-0.18948,-0.86063,789,0.262,-0.018,0.963,-0.366,0.916,-0.061,-0.989,-15.249,174.221,-8.12,-9.22,-33.2,27.12,0.05109,0.13248,-0.01514,0.98972,785,0.908,0.108,0.371,-0.549,0.305,-0.305,16.188,-67.033,-169.475,-28.447,-13.027,-6.373,31.1,-0.15375,0.53369,0.16763,0.81445,791
198,0.889,-0.045,0.497,0.061,-0.305,-0.122,-5.466,-60.716,-174.578,-25.233,-9.133,-14.04,28.42,-0.01657,0.50607,-0.01767,0.86209,794,0.622,0.112,0.774,-0.854,0.549,-0.244,8.229,-38.397,-134.907,-18.94,-11.8,-4.173,26.54,0.38303,-0.27673,-0.18948,-0.86063,796,0.262,-0.019,0.961,-0.427,0.793,-0.122,-1.0,-15.233,174.194,-8.12,-9.22,-33.2,27.12,0.05109,0.13248,-0.01514,0.98972,792,0.908,0.107,0.368,-0.916,0.366,-0.183,16.183,-67.028,-169.459,-28.447,-13.027,-6.373,31.1,-0.15375,0.53369,0.16763,0.81445,800
199,0.889,-0.046,0.497,-0.122,-0.366,-0.061,-5.46,-60.721,-174.584,-25.233,-9.133,-14.04,28.42,-0.01657,0.50607,-0.01767,0.86209,795,0.623,0.112,0.774,-0.916,0.549,-0.305,8.218,-38.386,-134.912,-18.94,-11.8,-4.173,26.54,0.38303,-0.27673,-0.18948,-0.86063,797,0.265,-0.018,0.958,-0.366,0.854,-0.183,-1.005,-15.222,174.166,-8.12,-9.22,-33.2,27.12,0.05109,0.13248,-0.01514,0.98972,793,0.909,0.107,0.365,-0.916,0.122,-0.061,16.172,-67.022,-169.448,-28.447,-13.027,-6.373,31.1,-0.15375,0.53369,0.16763,0.81445,801
200,0.89,-0.047,0.497,-0.244,-0.183,-0.183,-5.46,-60.727,-174.584,-25.233,-9.133,-14.04,28.42,-0.01657,0.50607,-0.01767,0.86209,802,0.622,0.112,0.778,-0.793,0.732,-0.183,8.201,-38.37,-134.918,-19.3,-12.067,-4.5,26.54,0.38303,-0.27673,-0.18948,-0.86063,804,0.264,-0.017,0.959,-0.305,1.16,-0.366,-1.011,-15.205,174.144,-8.12,-9.22,-33.2,27.12,0.05109,0.13248,-0.01514,0.98972,798,0.91,0.107,0.366,-0.671,-0.061,-0.122,16.161,-67.022,-169.464,-28.447,-13.027,-6.373,31.1,-0.15375,0.53369,0.16763,0.81445,806
201,0.888,-0.047,0.498,-0.061,-0.061,-0.183,-5.455,-60.727,-174.589,-25.233,-9.133,-14.04,28.42,-0.01657,0.50607,-0.01767,0.86209,803,0.621,0.111,0.777,-0.793,0.916,0.0,8.185,-38.353,-134.929,-19.3,-12.067,-4.5,26.54,0.38303,-0.27673,-0.18948,-0.86063,805,0.263,-0.015,0.967,-0.305,0.916,-0.183,-1.016,-15.183,174.133,-8.12,-9.22,-33.2,27.12,0.05109,0.13248,-0.01514,0.98972,799,0.91,0.107,0.37,-0.427,-0.183,-0.244,16.161,-67.022,-169.464,-28.447,-13.027,-6.373,31.1,-0.15375,0.53369,0.16763,0.81445,807
202,0.887,-0.047,0.499,0.244,-0.061,-0.122,-5.444,-60.727,-174.595,-25.32,-8.787,-14.587,28.42,-0.01657,0.50607,-0.01767,0.86209,808,0.621,0.111,0.774,-0.671,0.916,0.061,8.168,-38.337,-134.934,-19.3,-12.067,-4.5,26.54,0.38303,-0.27673,-0.18948,-0.86063,812,0.262,-0.018,0.96,-0.427,1.038,-0.122,-1.022,-15.167,174.133,-8.12,-9.22,-33.2,27.12,0.05109,0.13248,-0.01514,0.98972,814,0.908,0.108,0.369,-0.183,-0.061,-0.183,16.166,-67.028,-169.459,-28.447,-13.027,-6.373,31.1,-0.15375,0.53369,0.16763,0.81445,810
203,0.888,-0.047,0.498,0.305,-0.244,0.0,-5.438,-60.732,-174.595,-25.32,-8.787,-14.587,28.42,-0.01657,0.50607,-0.01767,0.86209,809,0.624,0.111,0.776,-0.488,0.732,0.0,8.157,-38.326,-134.94,-19.3,-12.067,-4.5,26.54,0.38303,-0.27673,-0.18948,-0.86063,813,0.262,-0.018,0.958,-0.366,1.099,-0.122,-1.033,-15.145,174.133,-8.12,-9.22,-33.2,27.12,0.05109,0.13248,-0.01514,0.98972,815,0.908,0.109,0.367,-0.061,0.244,-0.061,16.172,-67.022,-169.464,-28.447,-13.027,-6.373,31.1,-0.15375,0.53369,0.16763,0.81445,811
204,0.889,-0.046,0.496,0.122,-0.183,0.061,-5.433,-60.732,-174.589,-25.32,-8.787,-14.587,28.42,-0.01657,0.50607,-0.01767,0.86209,816,0.625,0.111,0.777,-0.305,0.916,0.0,8.146,-38.309,-134.945,-19.3,-12.067,-4.5,26.54,0.38257,-0.27667,-0.1875,-0.8613,822,0.265,-0.019,0.961,-0.305,1.16,-0.183,-1.038,-15.128,174.139,-7.82,-9.487,-33.253,27.12,0.05109,0.13248,-0.01514,0.98972,818,0.911,0.109,0.366,-0.122,0.244,0.0,16.172,-67.017,-169.486,-27.9,-12.973,-6.5,31.1,-0.15375,0.53369,0.16763,0.81445,820
205,0.889,-0.047,0.497,0.0,0.0,-0.061,-5.433,-60.732,-174.589,-25.32,-8.787,-14.587,28.42,-0.01657,0.50607,-0.01767,0.86209,817,0.621,0.111,0.779,-0.427,0.977,0.0,8.141,-38.293,-134.94,-19.3,-12.067,-4.5,26.54,0.38257,-0.27667,-0.1875,-0.8613,823,0.263,-0.019,0.966,-0.061,1.16,-0.244,-1.044,-15.106,174.133,-7.82,-9.487,-33.253,27.12,0.05109,0.13248,-0.01514,0.98972,819,0.912,0.107,0.368,-0.122,0.0,0.0,16.166,-67.017,-169.514,-27.9,-12.973,-6.5,31.1,-0.15375,0.53369,0.16763,0.81445,821
206,0.889,-0.047,0.498,0.0,-0.061,-0.061,-5.427,-60.732,-174.589,-25.32,-8.787,-14.587,28.42,-0.01672,0.50632,-0.01703,0.86194,826,0.62,0.108,0.777,-0.427,0.977,0.0,8.13,-38.276,-134.918,-19.3,-12.067,-4.5,26.54,0.38257,-0.27667,-0.1875,-0.8613,830,0.26,-0.019,0.965,-0.122,0.854,-0.122,-1.044,-15.09,174.128,-7.82,-9.487,-33.253,27.12,0.05109,0.13248,-0.01514,0.98972,828,0.91,0.106,0.37,-0.122,0.061,0.0,16.166,-67.017,-169.53,-27.9,-12.973,-6.5,31.1,-0.15265,0.5336,0.16666,0.81491,824
207,0.891,-0.046,0.499,0.061,-0.305,-0.061,-5.427,-60.738,-174.589,-25.32,-8.787,-14.587,28.42,-0.01672,0.50632,-0.01703,0.86194,827,0.618,0.106,0.776,-0.244,0.916,0.0,8.119,-38.26,-134.901,-19.3,-12.067,-4.5,26.54,0.38257,-0.27667,-0.1875,-0.8613,831,0.259,-0.02,0.96,-0.122,0.732,-0.183,-1.044,-15.073,174.128,-7.82,-9.487,-33.253,27.12,0.05109,0.13248,-0.01514,0.98972,829,0.906,0.107,0.37,-0.183,0.183,-0.061,16.166,-67.017,-169.536,-27.9,-12.973,-6.5,31.1,-0.15265,0.5336,0.16666,0.81491,825
208,0.889,-0.045,0.495,0.122,-0.183,-0.061,-5.422,-60.738,-174.589,-25.32,-8.787,-14.587,28.42,-0.01672,0.50632,-0.01703,0.86194,832,0.616,0.109,0.778,-0.244,0.732,0.0,8.113,-38.243,-134.901,-19.3,-12.067,-4.5,26.54,0.38257,-0.27667,-0.1875,-0.8613,834,0.257,-0.021,0.958,0.0,0.793,-0.183,-1.044,-15.062,174.133,-7.82,-9.487,-33.253,27.12,0.05191,0.13046,-0.01575,0.98993,838,0.905,0.108,0.365,-0.061,0.183,-0.183,16.172,-67.017,-169.552,-27.9,-12.973,-6.5,31.1,-0.15265,0.5336,0.16666,0.81491,836
209,0.887,-0.045,0.493,0.0,0.0,-0.122,-5.416,-60.743,-174.589,-25.32,-8.787,-14.587,28.42,-0.01672,0.50632,-0.01703,0.86194,833,0.619,0.113,0.777,-0.183,0.61,0.061,8.108,-38.232,-134.896,-19.3,-12.067,-4.5,26.54,0.38257,-0.27667,-0.1875,-0.8613,835,0.258,-0.018,0.961,0.0,0.977,-0.061,-1.044,-15.046,174.15,-7.82,-9.487,-33.253,27.12,0.05191,0.13046,-0.01575,0.98993,839,0.907,0.108,0.365,0.0,0.0,-0.183,16.183,-67.011,-169.568,-27.9,-12.973,-6.5,31.1,-0.15265,0.5336,0.16666,0.81491,837
210,0.888,-0.045,0.496,-0.183,-0.122,-0.122,-5.416,-60.743,-174.595,-25.32,-8.787,-14.587,28.42,-0.01672,0.50632,-0.01703,0.86194,840,0.62,0.111,0.777,-0.061,0.488,0.183,8.102,-38.227,-134.89,-19.3,-12.067,-4.5,26.54,0.38257,-0.27667,-0.1875,-0.8613,842,0.26,-0.014,0.962,0.0,0.793,0.0,-1.049,-15.029,174.161,-7.82,-9.487,-33.253,27.12,0.05191,0.13046,-0.01575,0.98993,844,0.91,0.107,0.369,-0.061,-0.061,-0.183,16.194,-67.017,-169.568,-27.9,-12.973,-6.5,31.1,-0.15265,0.5336,0.16666,0.81491,846
211,0.889,-0.045,0.5,0.0,-0.122,-0.122,-5.411,-60.743,-174.595,-25.32,-8.787,-14.587,28.42,-0.01672,0.50632,-0.01703,0.86194,841,0.62,0.109,0.779,0.0,0.427,0.244,8.097,-38.216,-134.879,-19.3,-12.067,-4.5,26.54,0.38257,-0.27667,-0.1875,-0.8613,843,0.258,-0.017,0.96,-0.122,0.427,0.061,-1.049,-15.018,174.144,-7.82,-9.487,-33.253,27.12,0.05191,0.13046,-0.01575,0.98993,845,0.91,0.109,0.37,0.0,0.0,-0.061,16.199,-67.017,-169.574,-27.9,-12.973,-6.5,31.1,-0.15265,0.5336,0.16666,0.81491,847
212,0.889,-0.045,0.498,0.122,0.061,0.0,-5.405,-60.743,-174.595,-25.32,-8.787,-14.587,28.42,-0.01672,0.50632,-0.01703,0.86194,848,0.619,0.109,0.779,0.122,0.244,0.244,8.091,-38.216,-134.857,-19.3,-12.067,-4.5,26.54,0.38257,-0.27667,-0.1875,-0.8613,854,0.258,-0.019,0.961,-0.183,0.488,0.183,-1.055,-15.013,174.122,-7.82,-9.487,-33.253,27.12,0.05191,0.13046,-0.01575,0.98993,850,0.909,0.109,0.369,0.122,0.061,-0.061,16.205,-67.017,-169.568,-27.9,-12.973,-6.5,31.1,-0.15265,0.5336,0.16666,0.81491,852
213,0.889,-0.047,0.496,0.061,0.0,0.061,-5.405,-60.743,-174.595,-25.32,-8.787,-14.587,28.42,-0.01672,0.50632,-0.01703,0.86194,849,0.619,0.11,0.78,0.061,0.244,0.183,8.091,-38.21,-134.846,-19.3,-12.067,-4.5,26.54,0.38257,-0.27667,-0.1875,-0.8613,855,0.258,-0.02,0.963,-0.061,0.366,0.183,-1.055,-15.007,174.111,-7.82,-9.487,-33.253,27.12,0.05191,0.13046,-0.01575,0.98993,851,0.909,0.109,0.37,0.183,0.122,-0.061,16.21,-67.011,-169.579,-27.9,-12.973,-6.5,31.1,-0.15265,0.5336,0.16666,0.81491,853
214,0.887,-0.046,0.496,-0.061,-0.122,0.061,-5.405,-60.743,-174.589,-25.32,-8.787,-14.587,28.42,-0.01672,0.50632,-0.01703,0.86194,858,0.619,0.111,0.779,0.061,0.183,0.183,8.086,-38.205,-134.846,-19.3,-12.067,-4.5,26.54,0.38257,-0.27667,-0.1875,-0.8613,866,0.258,-0.017,0.964,-0.183,0.244,0.183,-1.06,-15.002,174.1,-7.82,-9.487,-33.253,27.12,0.05191,0.13046,-0.01575,0.98993,856,0.908,0.109,0.37,0.183,0.061,0.0,16.216,-67.011,-169.601,-27.9,-12.973,-6.5,31.1,-0.15265,0.5336,0.16666,0.81491,860
215,0.888,-0.046,0.498,-0.061,-0.244,0.0,-5.405,-60.749,-174.584,-25.32,-8.787,-14.587,28.42,-0.01672,0.50632,-0.01703,0.86194,859,0.62,0.11,0.778,0.0,0.244,0.122,8.086,-38.205,-134.841,-19.3,-12.067,-4.5,26.54,0.38257,-0.27667,-0.1875,-0.8613,867,0.259,-0.018,0.965,-0.183,0.244,0.183,-1.066,-14.996,174.1,-7.82,-9.487,-33.253,27.12,0.05191,0.13046,-0.01575,0.98993,857,0.907,0.111,0.368,0.305,0.0,0.0,16.221,-67.011,-169.618,-27.9,-12.973,-6.5,31.1,-0.15265,0.5336,0.16666,0.81491,861
216,0.888,-0.045,0.5,-0.061,0.0,0.0,-5.405,-60.749,-174.584,-25.32,-8.787,-14.587,28.42,-0.01672,0.50632,-0.01703,0.86194,864,0.619,0.11,0.777,0.0,0.244,0.0,8.086,-38.199,-134.819,-19.233,-11.373,-4.113,26.54,0.38257,-0.27667,-0.1875,-0.8613,870,0.259,-0.019,0.958,-0.366,0.427,0.183,-1.071,-14.991,174.078,-7.82,-9.487,-33.253,27.12,0.05191,0.13046,-0.01575,0.98993,862,0.908,0.109,0.366,0.366,0.0,0.0,16.232,-67.011,-169.629,-27.9,-12.973,-6.5,31.1,-0.15265,0.5336,0.16666,0.81491,868
217,0.889,-0.045,0.499,0.0,0.122,0.061,-5.405,-60.743,-174.584,-25.32,-8.787,-14.587,28.42,-0.01672,0.50632,-0.01703,0.86194,865,0.62,0.108,0.777,0.0,0.305,-0.061,8.086,-38.194,-134.797,-19.233,-11.373,-4.113,26.54,0.38257,-0.27667,-0.1875,-0.8613,871,0.258,-0.021,0.961,-0.244,0.549,0.0,-1.077,-14.98,174.056,-7.82,-9.487,-33.253,27.12,0.05191,0.13046,-0.01575,0.98993,863,0.91,0.109,0.367,0.366,0.0,0.0,16.243,-67.017,-169.623,-27.9,-12.973,-6.5,31.1,-0.15265,0.5336,0.16666,0.81491,869
218,0.889,-0.046,0.497,0.0,0.183,0.0,-5.405,-60.743,-174.578,-25.32,-8.787,-14.587,28.42,-0.01672,0.50632,-0.01703,0.86194,874,0.62,0.111,0.78,0.061,0.183,0.0,8.086,-38.188,-134.791,-19.233,-11.373,-4.113,26.54,0.38257,-0.27667,-0.1875,-0.8613,880,0.259,-0.021,0.964,0.0,0.366,-0.183,-1.082,-14.974,174.045,-7.82,-9.487,-33.253,27.12,0.05191,0.13046,-0.01575,0.98993,872,0.911,0.109,0.37,0.427,0.0,0.0,16.254,-67.017,-169.618,-28.093,-13.127,-6.147,31.1,-0.15265,0.5336,0.16666,0.81491,876
219,0.89,-0.046,0.496,0.0,0.122,0.061,-5.405,-60.738,-174.578,-25.32,-8.787,-14.587,28.42,-0.01672,0.50632,-0.01703,0.86194,875,0.62,0.111,0.779,0.0,0.122,0.122,8.086,-38.188,-134.78,-19.233,-11.373,-4.113,26.54,0.38257,-0.27667,-0.1875,-0.8613,881,0.258,-0.016,0.963,0.0,0.183,0.0,-1.082,-14.969,174.051,-7.82,-9.487,-33.253,27.12,0.05191,0.13046,-0.01575,0.98993,873,0.91,0.108,0.369,0.305,0.061,0.0,16.265,-67.017,-169.651,-28.093,-13.127,-6.147,31.1,-0.15265,0.5336,0.16666,0.81491,877
220,0.891,-0.046,0.496,0.0,0.0,0.0,-5.405,-60.732,-174.573,-25.013,-9.313,-14.84,28.42,-0.01672,0.50632,-0.01703,0.86194,878,0.62,0.107,0.778,0.061,0.0,0.0,8.086,-38.188,-134.78,-19.233,-11.373,-4.113,26.54,0.38367,-0.2756,-0.18695,-0.86127,884,0.257,-0.019,0.963,-0.183,0.244,0.0,-1.082,-14.969,174.056,-7.82,-9.487,-33.253,27.12,0.05191,0.13046,-0.01575,0.98993,882,0.91,0.108,0.367,0.244,0.183,0.0,16.271,-67.011,-169.678,-28.093,-13.127,-6.147,31.1,-0.15204,0.53363,0.16666,0.815,886
221,0.89,-0.045,0.496,-0.061,0.061,0.0,-5.4,-60.732,-174.573,-25.013,-9.313,-14.84,28.42,-0.01672,0.50632,-0.01703,0.86194,879,0.619,0.107,0.778,0.183,-0.061,-0.061,8.086,-38.188,-134.786,-19.233,-11.373,-4.113,26.54,0.38367,-0.2756,-0.18695,-0.86127,885,0.257,-0.022,0.962,-0.122,0.061,-0.183,-1.088,-14.963,174.056,-7.82,-9.487,-33.253,27.12,0.05191,0.13046,-0.01575,0.98993,883,0.909,0.108,0.366,0.427,0.061,0.0,16.276,-67.011,-169.711,-28.093,-13.127,-6.147,31.1,-0.15204,0.53363,0.16666,0.815,887
222,0.889,-0.045,0.495,-0.183,0.122,0.0,-5.405,-60.732,-174.573,-25.013,-9.313,-14.84,28.42,-0.01672,0.50632,-0.01703,0.86194,888,0.62,0.109,0.779,0.122,-0.183,-0.122,8.091,-38.194,-134.791,-19.233,-11.373,-4.113,26.54,0.38367,-0.2756,-0.18695,-0.86127,894,0.258,-0.021,0.962,0.061,-0.122,-0.183,-1.088,-14.963,174.062,-7.82,-9.487,-33.253,27.12,0.05191,0.13046,-0.01575,0.98993,890,0.909,0.109,0.367,0.549,0.0,-0.061,16.293,-67.011,-169.744,-28.093,-13.127,-6.147,31.1,-0.15204,0.53363,0.16666,0.815,892
223,0.889,-0.046,0.497,-0.183,0.183,0.0,-5.405,-60.727,-174.573,-25.013,-9.313,-14.84,28.42,-0.01672,0.50632,-0.01703,0.86194,889,0.62,0.11,0.779,0.183,-0.427,-0.061,8.097,-38.199,-134.78,-19.233,-11.373,-4.113,26.54,0.38367,-0.2756,-0.18695,-0.86127,895,0.258,-0.019,0.964,0.122,-0.305,-0.366,-1.082,-14.969,174.078,-7.82,-9.487,-33.253,27.12,0.05191,0.13046,-0.01575,0.98993,891,0.91,0.109,0.368,0.488,-0.061,0.0,16.309,-67.017,-169.783,-28.093,-13.127,-6.147,31.1,-0.15204,0.53363,0.16666,0.815,893
224,0.889,-0.046,0.499,-0.122,0.183,0.0,-5.405,-60.727,-174.573,-25.013,-9.313,-14.84,28.42,-0.01697,0.50629,-0.01672,0.86197,902,0.621,0.11,0.778,0.0,-0.61,0.0,8.097,-38.21,-134.78,-19.233,-11.373,-4.113,26.54,0.38367,-0.2756,-0.18695,-0.86127,898,0.259,-0.019,0.963,0.0,-0.549,-0.305,-1.082,-14.98,174.084,-7.86,-9.553,-32.52,27.12,0.05191,0.13046,-0.01575,0.98993,896,0.911,0.109,0.369,0.366,-0.061,0.0,16.32,-67.017,-169.816,-28.093,-13.127,-6.147,31.1,-0.15204,0.53363,0.16666,0.815,900
225,0.889,-0.046,0.499,0.0,0.305,0.0,-5.4,-60.716,-174.573,-25.013,-9.313,-14.84,28.42,-0.01697,0.50629,-0.01672,0.86197,903,0.621,0.112,0.777,-0.061,-0.61,0.0,8.097,-38.227,-134.78,-19.233,-11.373,-4.113,26.54,0.38367,-0.2756,-0.18695,-0.86127,899,0.26,-0.019,0.961,-0.183,-0.671,-0.305,-1.082,-14.991,174.095,-7.86,-9.553,-32.52,27.12,0.05191,0.13046,-0.01575,0.98993,897,0.91,0.11,0.37,0.244,0.0,0.0,16.326,-67.017,-169.827,-28.093,-13.127,-6.147,31.1,-0.15204,0.53363,0.16666,0.815,901
226,0.888,-0.047,0.498,0.0,0.305,0.0,-5.4,-60.71,-174.573,-25.013,-9.313,-14.84,28.42,-0.01697,0.50629,-0.01672,0.86197,906,0.62,0.11,0.778,0.122,-0.61,0.0,8.097,-38.238,-134.775,-19.233,-11.373,-4.113,26.54,0.38367,-0.2756,-0.18695,-0.86127,908,0.259,-0.017,0.96,-0.122,-0.732,-0.305,-1.088,-15.007,174.095,-7.86,-9.553,-32.52,27.12,0.05191,0.13046,-0.01575,0.98993,904,0.909,0.108,0.369,0.183,0.061,0.0,16.331,-67.017,-169.832,-28.093,-13.127,-6.147,31.1,-0.15204,0.53363,0.16666,0.815,910
227,0.888,-0.046,0.499,-0.122,0.183,0.0,-5.4,-60.705,-174.573,-25.013,-9.313,-14.84,28.42,-0.01697,0.50629,-0.01672,0.86197,907,0.62,0.107,0.778,0.183,-0.671,0.0,8.102,-38.249,-134.775,-19.233,-11.373,-4.113,26.54,0.38367,-0.2756,-0.18695,-0.86127,909,0.26,-0.018,0.961,-0.122,-0.549,-0.244,-1.088,-15.018,174.089,-7.86,-9.553,-32.52,27.12,0.05191,0.13046,-0.01575,0.98993,905,0.909,0.107,0.371,0.122,0.122,0.0,16.331,-67.017,-169.838,-28.093,-13.127,-6.147,31.1,-0.15204,0.53363,0.16666,0.815,911
228,0.887,-0.047,0.5,-0.183,0.061,0.0,-5.4,-60.705,-174.567,-25.013,-9.313,-14.84,28.42,-0.01697,0.50629,-0.01672,0.86197,912,0.62,0.108,0.777,0.122,-0.61,0.0,8.108,-38.265,-134.775,-19.233,-11.373,-4.113,26.54,0.38367,-0.2756,-0.18695,-0.86127,914,0.26,-0.02,0.961,-0.366,-0.366,0.0,-1.093,-15.029,174.073,-7.86,-9.553,-32.52,27.12,0.05231,0.13,-0.01614,0.98996,916,0.908,0.108,0.371,0.305,0.244,0.0,16.337,-67.011,-169.843,-28.093,-13.127,-6.147,31.1,-0.15204,0.53363,0.16666,0.815,918
229,0.887,-0.046,0.5,-0.061,0.061,0.0,-5.405,-60.699,-174.567,-25.013,-9.313,-14.84,28.42,-0.01697,0.50629,-0.01672,0.86197,913,0.619,0.109,0.776,0.244,-0.549,0.0,8.108,-38.276,-134.769,-19.233,-11.373,-4.113,26.54,0.38367,-0.2756,-0.18695,-0.86127,915,0.26,-0.021,0.96,-0.305,-0.305,0.122,-1.099,-15.035,174.051,-7.86,-9.553,-32.52,27.12,0.05231,0.13,-0.01614,0.98996,917,0.907,0.109,0.369,0.427,0.366,0.0,16.342,-67.006,-169.843,-28.093,-13.127,-6.147,31.1,-0.15204,0.53363,0.16666,0.815,919
230,0.887,-0.046,0.5,0.0,0.183,0.0,-5.4,-60.699,-174.567,-25.013,-9.313,-14.84,28.42,-0.01697,0.50629,-0.01672,0.86197,920,0.62,0.11,0.775,0.305,-0.549,0.0,8.119,-38.287,-134.769,-19.233,-11.373,-4.113,26.54,0.38367,-0.2756,-0.18695,-0.86127,922,0.26,-0.021,0.961,-0.061,-0.305,0.061,-1.104,-15.046,174.029,-7.86,-9.553,-32.52,27.12,0.05231,0.13,-0.01614,0.98996,924,0.908,0.108,0.369,0.427,0.488,0.0,16.342,-66.995,-169.843,-28.093,-13.127,-6.147,31.1,-0.15204,0.53363,0.16666,0.815,926
231,0.887,-0.047,0.5,0.061,0.244,0.0,-5.4,-60.694,-174.567,-25.013,-9.313,-14.84,28.42,-0.01697,0.50629,-0.01672,0.86197,921,0.62,0.11,0.779,0.244,-0.488,0.0,8.119,-38.293,-134.769,-19.233,-11.373,-4.113,26.54,0.38367,-0.2756,-0.18695,-0.86127,923,0.259,-0.019,0.961,0.0,-0.488,0.0,-1.104,-15.051,174.018,-7.86,-9.553,-32.52,27.12,0.05231,0.13,-0.01614,0.98996,925,0.909,0.108,0.37,0.488,0.427,0.0,16.348,-66.989,-169.843,-28.093,-13.127,-6.147,31.1,-0.15204,0.53363,0.16666,0.815,927
232,0.889,-0.048,0.5,0.061,0.183,0.0,-5.394,-60.683,-174.567,-25.013,-9.313,-14.84,28.42,-0.01697,0.50629,-0.01672,0.86197,928,0.622,0.112,0.778,0.305,-0.61,0.0,8.13,-38.309,-134.764,-19.233,-11.373,-4.113,26.54,0.38367,-0.2756,-0.18695,-0.86127,934,0.26,-0.018,0.963,0.0,-0.427,0.0,-1.11,-15.062,174.018,-7.86,-9.553,-32.52,27.12,0.05231,0.13,-0.01614,0.98996,930,0.91,0.109,0.371,0.549,0.244,0.0,16.359,-66.984,-169.849,-27.96,-12.967,-6.06,31.1,-0.15204,0.53363,0.16666,0.815,932
233,0.889,-0.047,0.499,0.0,0.183,0.0,-5.394,-60.683,-174.567,-25.013,-9.313,-14.84,28.42,-0.01697,0.50629,-0.01672,0.86197,929,0.623,0.112,0.778,0.244,-0.61,0.0,8.135,-38.32,-134.764,-19.233,-11.373,-4.113,26.54,0.38367,-0.2756,-0.18695,-0.86127,935,0.261,-0.017,0.961,-0.122,-0.305,0.183,-1.11,-15.068,174.007,-7.86,-9.553,-32.52,27.12,0.05231,0.13,-0.01614,0.98996,931,0.91,0.109,0.37,0.366,0.244,0.0,16.364,-66.978,-169.849,-27.96,-12.967,-6.06,31.1,-0.15204,0.53363,0.16666,0.815,933
234,0.889,-0.046,0.497,0.0,0.061,0.0,-5.394,-60.677,-174.567,-25.013,-9.313,-14.84,28.42,-0.01697,0.50629,-0.01672,0.86197,942,0.621,0.109,0.777,0.183,-0.61,0.0,8.135,-38.331,-134.764,-18.807,-11.7,-4.833,26.54,0.38367,-0.2756,-0.18695,-0.86127,938,0.261,-0.018,0.962,-0.366,-0.122,0.061,-1.115,-15.073,173.985,-7.86,-9.553,-32.52,27.12,0.05231,0.13,-0.01614,0.98996,936,0.909,0.11,0.371,0.122,0.244,0.0,16.364,-66.978,-169.854,-27.96,-12.967,-6.06,31.1,-0.15204,0.53363,0.16666,0.815,940
235,0.888,-0.046,0.498,0.0,0.0,0.0,-5.394,-60.677,-174.562,-25.013,-9.313,-14.84,28.42,-0.01697,0.50629,-0.01672,0.86197,943,0.619,0.108,0.778,0.183,-0.61,0.0,8.141,-38.342,-134.758,-18.807,-11.7,-4.833,26.54,0.38367,-0.2756,-0.18695,-0.86127,939,0.259,-0.021,0.964,-0.427,-0.244,0.0,-1.121,-15.079,173.979,-7.86,-9.553,-32.52,27.12,0.05231,0.13,-0.01614,0.98996,937,0.908,0.111,0.37,0.183,0.244,0.0,16.364,-66.973,-169.854,-27.96,-12.967,-6.06,31.1,-0.15204,0.53363,0.16666,0.815,941
236,0.888,-0.045,0.498,0.0,0.0,0.0,-5.394,-60.672,-174.562,-25.367,-9.333,-15.027,28.42,-0.01697,0.50629,-0.01672,0.86197,946,0.621,0.109,0.778,0.244,-0.732,0.0,8.146,-38.359,-134.758,-18.807,-11.7,-4.833,26.54,0.38367,-0.2756,-0.18695,-0.86127,948,0.258,-0.022,0.963,-0.366,-0.305,0.061,-1.132,-15.084,173.969,-7.86,-9.553,-32.52,27.12,0.05231,0.13,-0.01614,0.98996,944,0.907,0.111,0.37,0.366,0.244,0.0,16.37,-66.967,-169.86,-27.96,-12.967,-6.06,31.1,-0.15118,0.53348,0.1665,0.81531,950
237,0.888,-0.045,0.5,0.061,0.061,0.0,-5.389,-60.672,-174.562,-25.367,-9.333,-15.027,28.42,-0.01697,0.50629,-0.01672,0.86197,947,0.622,0.111,0.776,0.305,-0.854,0.0,8.152,-38.37,-134.758,-18.807,-11.7,-4.833,26.54,0.38367,-0.2756,-0.18695,-0.86127,949,0.259,-0.021,0.962,-0.305,-0.366,0.122,-1.137,-15.09,173.969,-7.86,-9.553,-32.52,27.12,0.05231,0.13,-0.01614,0.98996,945,0.908,0.11,0.369,0.305,0.244,0.0,16.375,-66.962,-169.86,-27.96,-12.967,-6.06,31.1,-0.15118,0.53348,0.1665,0.81531,951
