Index,L5_Acceleration X(g),L5_Acceleration Y(g),L5_Acceleration Z(g),L5_Angular velocity X(°/s),L5_Angular velocity Y(°/s),L5_Angular velocity Z(°/s),L5_Angle X(°),L5_Angle Y(°),L5_Angle Z(°),L5_Magnetic field X(ʯt),L5_Magnetic field Y(ʯt),L5_Magnetic field Z(ʯt),L5_Temperature(℃),L5_Quaternions 0(),L5_Quaternions 1(),L5_Quaternions 2(),L5_Quaternions 3(),L5___orig_idx,T4_Acceleration X(g),T4_Acceleration Y(g),T4_Acceleration Z(g),T4_Angular velocity X(°/s),T4_Angular velocity Y(°/s),T4_Angular velocity Z(°/s),T4_Angle X(°),T4_Angle Y(°),T4_Angle Z(°),T4_Magnetic field X(ʯt),T4_Magnetic field Y(ʯt),T4_Magnetic field Z(ʯt),T4_Temperature(℃),T4_Quaternions 0(),T4_Quaternions 1(),T4_Quaternions 2(),T4_Quaternions 3(),T4___orig_idx,C7_Acceleration X(g),C7_Acceleration Y(g),C7_Acceleration Z(g),C7_Angular velocity X(°/s),C7_Angular velocity Y(°/s),C7_Angular velocity Z(°/s),C7_Angle X(°),C7_Angle Y(°),C7_Angle Z(°),C7_Magnetic field X(ʯt),C7_Magnetic field Y(ʯt),C7_Magnetic field Z(ʯt),C7_Temperature(℃),C7_Quaternions 0(),C7_Quaternions 1(),C7_Quaternions 2(),C7_Quaternions 3(),C7___orig_idx,T12_Acceleration X(g),T12_Acceleration Y(g),T12_Acceleration Z(g),T12_Angular velocity X(°/s),T12_Angular velocity Y(°/s),T12_Angular velocity Z(°/s),T12_Angle X(°),T12_Angle Y(°),T12_Angle Z(°),T12_Magnetic field X(ʯt),T12_Magnetic field Y(ʯt),T12_Magnetic field Z(ʯt),T12_Temperature(℃),T12_Quaternions 0(),T12_Quaternions 1(),T12_Quaternions 2(),T12_Quaternions 3(),T12___orig_idx
0,0.925,-0.138,0.406,-0.122,-0.183,0.0,-18.463,-65.237,-176.061,-26.3,-9.153,-14.38,27.55,0.05801,0.53619,-0.11658,0.83392,0,0.594,0.028,0.806,0.122,0.0,0.0,2.065,-36.392,-117.982,-20.647,-6.813,-5.773,27.03,0.49393,-0.25888,-0.17551,-0.81125,2,0.462,-0.04,0.881,0.0,-0.549,0.061,-2.67,-27.592,175.787,-11.98,-6.92,-25.453,31.59,-0.04141,-0.2373,0.0314,-0.97,4,0.917,-0.097,0.351,0.061,-0.183,0.0,-15.315,-68.329,-148.738,-29.82,-9.367,-7.2,31.46,0.14896,-0.56558,-0.04376,-0.80988,6
1,0.925,-0.138,0.406,-0.061,-0.183,0.0,-18.468,-65.237,-176.056,-26.3,-9.153,-14.38,27.55,0.05801,0.53619,-0.11658,0.83392,1,0.594,0.028,0.807,0.122,0.0,0.122,2.071,-36.392,-117.971,-20.647,-6.813,-5.773,27.03,0.49393,-0.25888,-0.17551,-0.81125,3,0.463,-0.041,0.878,0.122,-0.549,0.061,-2.67,-27.603,175.809,-11.98,-6.92,-25.453,31.59,-0.04141,-0.2373,0.0314,-0.97,5,0.917,-0.098,0.352,0.0,-0.183,0.0,-15.315,-68.335,-148.738,-29.82,-9.367,-7.2,31.46,0.14896,-0.56558,-0.04376,-0.80988,7
2,0.927,-0.139,0.407,-0.122,-0.122,0.0,-18.474,-65.242,-176.05,-26.0,-9.633,-15.207,27.55,0.05801,0.53619,-0.11658,0.83392,10,0.595,0.028,0.808,0.122,0.0,0.183,2.071,-36.392,-117.96,-20.647,-6.813,-5.773,27.03,0.49393,-0.25888,-0.17551,-0.81125,8,0.462,-0.041,0.878,0.061,-0.488,0.183,-2.67,-27.614,175.831,-11.98,-6.92,-25.453,31.59,-0.04141,-0.2373,0.0314,-0.97,12,0.918,-0.097,0.353,0.0,-0.061,0.0,-15.315,-68.335,-148.744,-29.82,-9.367,-7.2,31.46,0.14896,-0.56558,-0.04376,-0.80988,16
3,0.928,-0.139,0.408,-0.061,-0.061,0.0,-18.479,-65.242,-176.045,-26.0,-9.633,-15.207,27.55,0.05801,0.53619,-0.11658,0.83392,11,0.594,0.028,0.807,0.061,-0.061,0.244,2.065,-36.392,-117.949,-20.647,-6.813,-5.773,27.03,0.49393,-0.25888,-0.17551,-0.81125,9,0.462,-0.041,0.881,0.061,-0.427,0.244,-2.67,-27.625,175.858,-11.98,-6.92,-25.453,31.59,-0.04141,-0.2373,0.0314,-0.97,13,0.919,-0.096,0.352,0.061,0.0,0.0,-15.315,-68.335,-148.744,-29.82,-9.367,-7.2,31.46,0.14896,-0.56558,-0.04376,-0.80988,17
4,0.927,-0.138,0.407,0.0,-0.061,0.0,-18.484,-65.242,-176.045,-26.0,-9.633,-15.207,27.55,0.05801,0.53619,-0.11658,0.83392,20,0.595,0.028,0.808,0.122,0.0,0.183,2.065,-36.392,-117.949,-20.647,-6.813,-5.773,27.03,0.49393,-0.25888,-0.17551,-0.81125,18,0.464,-0.041,0.88,0.061,-0.183,0.244,-2.67,-27.631,175.88,-11.98,-6.92,-25.453,31.59,-0.04141,-0.2373,0.0314,-0.97,14,0.918,-0.096,0.352,0.0,0.0,0.0,-15.315,-68.335,-148.749,-29.82,-9.367,-7.2,31.46,0.14896,-0.56558,-0.04376,-0.80988,24
5,0.927,-0.137,0.406,0.0,0.0,0.0,-18.484,-65.242,-176.039,-26.0,-9.633,-15.207,27.55,0.05801,0.53619,-0.11658,0.83392,21,0.595,0.027,0.808,0.061,0.061,0.183,2.065,-36.392,-117.955,-20.647,-6.813,-5.773,27.03,0.49393,-0.25888,-0.17551,-0.81125,19,0.463,-0.042,0.88,0.061,-0.183,0.305,-2.675,-27.636,175.908,-11.98,-6.92,-25.453,31.59,-0.04141,-0.2373,0.0314,-0.97,15,0.918,-0.096,0.352,0.0,0.0,0.0,-15.315,-68.335,-148.755,-29.82,-9.367,-7.2,31.46,0.14896,-0.56558,-0.04376,-0.80988,25
6,0.926,-0.137,0.405,0.0,0.0,0.0,-18.49,-65.237,-176.034,-26.0,-9.633,-15.207,27.55,0.05783,0.53641,-0.11682,0.83377,30,0.594,0.028,0.808,0.0,0.0,0.122,2.06,-36.387,-117.955,-20.647,-6.813,-5.773,27.03,0.49393,-0.25888,-0.17551,-0.81125,26,0.464,-0.042,0.88,0.0,-0.122,0.305,-2.675,-27.636,175.935,-11.98,-6.92,-25.453,31.59,-0.04141,-0.2373,0.0314,-0.97,22,0.918,-0.096,0.352,0.0,-0.061,0.0,-15.315,-68.335,-148.755,-30.027,-9.133,-7.28,31.46,0.14896,-0.56558,-0.04376,-0.80988,28
7,0.927,-0.137,0.405,0.0,-0.061,0.0,-18.49,-65.237,-176.034,-26.0,-9.633,-15.207,27.55,0.05783,0.53641,-0.11682,0.83377,31,0.595,0.029,0.808,0.0,0.0,0.061,2.06,-36.387,-117.955,-20.647,-6.813,-5.773,27.03,0.49393,-0.25888,-0.17551,-0.81125,27,0.463,-0.042,0.881,-0.061,-0.244,0.244,-2.681,-27.642,175.957,-11.98,-6.92,-25.453,31.59,-0.04141,-0.2373,0.0314,-0.97,23,0.917,-0.094,0.351,0.0,-0.061,0.0,-15.315,-68.335,-148.76,-30.027,-9.133,-7.28,31.46,0.14896,-0.56558,-0.04376,-0.80988,29
8,0.926,-0.136,0.405,0.061,-0.061,0.0,-18.495,-65.237,-176.028,-26.0,-9.633,-15.207,27.55,0.05783,0.53641,-0.11682,0.83377,36,0.594,0.029,0.807,0.061,-0.061,0.0,2.06,-36.387,-117.949,-20.607,-7.213,-5.7,27.03,0.49393,-0.25888,-0.17551,-0.81125,40,0.464,-0.043,0.881,-0.061,-0.305,0.183,-2.686,-27.647,175.984,-11.98,-6.92,-25.453,31.59,-0.04141,-0.2373,0.0314,-0.97,32,0.918,-0.093,0.351,0.061,-0.122,0.0,-15.315,-68.34,-148.76,-30.027,-9.133,-7.28,31.46,0.14896,-0.56558,-0.04376,-0.80988,38
9,0.926,-0.136,0.404,0.0,-0.122,0.0,-18.495,-65.237,-176.028,-26.0,-9.633,-15.207,27.55,0.05783,0.53641,-0.11682,0.83377,37,0.594,0.03,0.808,0.183,0.0,0.0,2.06,-36.387,-117.944,-20.607,-7.213,-5.7,27.03,0.49393,-0.25888,-0.17551,-0.81125,41,0.464,-0.042,0.881,0.0,-0.366,0.061,-2.686,-27.658,176.001,-11.98,-6.92,-25.453,31.59,-0.04141,-0.2373,0.0314,-0.97,33,0.917,-0.094,0.351,0.0,-0.122,0.0,-15.315,-68.34,-148.76,-30.027,-9.133,-7.28,31.46,0.14896,-0.56558,-0.04376,-0.80988,39
10,0.926,-0.136,0.405,0.0,-0.122,0.0,-18.501,-65.242,-176.023,-26.0,-9.633,-15.207,27.55,0.05783,0.53641,-0.11682,0.83377,42,0.595,0.03,0.807,0.183,0.061,0.0,2.065,-36.387,-117.933,-20.607,-7.213,-5.7,27.03,0.49448,-0.25867,-0.1756,-0.81094,44,0.464,-0.04,0.88,0.0,-0.488,0.061,-2.686,-27.669,176.023,-11.98,-6.92,-25.453,31.59,-0.04141,-0.2373,0.0314,-0.97,34,0.917,-0.094,0.351,0.0,-0.122,0.0,-15.315,-68.34,-148.76,-30.027,-9.133,-7.28,31.46,0.14865,-0.56577,-0.04367,-0.80981,46
11,0.927,-0.137,0.405,0.0,-0.244,0.0,-18.506,-65.242,-176.017,-26.0,-9.633,-15.207,27.55,0.05783,0.53641,-0.11682,0.83377,43,0.597,0.03,0.808,0.061,0.0,0.0,2.065,-36.387,-117.927,-20.607,-7.213,-5.7,27.03,0.49448,-0.25867,-0.1756,-0.81094,45,0.464,-0.04,0.879,0.183,-0.427,0.122,-2.686,-27.675,176.045,-11.98,-6.92,-25.453,31.59,-0.04141,-0.2373,0.0314,-0.97,35,0.918,-0.095,0.35,0.0,-0.122,0.0,-15.315,-68.346,-148.766,-30.027,-9.133,-7.28,31.46,0.14865,-0.56577,-0.04367,-0.80981,47
12,0.928,-0.137,0.405,-0.061,-0.244,0.0,-18.512,-65.248,-176.012,-26.0,-9.633,-15.207,27.55,0.05783,0.53641,-0.11682,0.83377,50,0.597,0.028,0.807,0.061,-0.122,0.0,2.071,-36.387,-117.927,-20.607,-7.213,-5.7,27.03,0.49448,-0.25867,-0.1756,-0.81094,56,0.466,-0.04,0.879,0.122,-0.366,0.061,-2.686,-27.686,176.061,-11.98,-6.92,-25.453,31.59,-0.04141,-0.2373,0.0314,-0.97,48,0.92,-0.095,0.35,-0.061,-0.122,0.0,-15.315,-68.346,-148.766,-30.027,-9.133,-7.28,31.46,0.14865,-0.56577,-0.04367,-0.80981,54
13,0.928,-0.138,0.405,0.0,-0.183,0.0,-18.517,-65.253,-176.006,-26.0,-9.633,-15.207,27.55,0.05783,0.53641,-0.11682,0.83377,51,0.596,0.027,0.807,-0.061,-0.122,0.0,2.071,-36.387,-117.927,-20.607,-7.213,-5.7,27.03,0.49448,-0.25867,-0.1756,-0.81094,57,0.467,-0.041,0.879,0.0,-0.244,0.0,-2.686,-27.691,176.083,-11.98,-6.92,-25.453,31.59,-0.04141,-0.2373,0.0314,-0.97,49,0.919,-0.096,0.351,-0.061,-0.122,0.0,-15.315,-68.351,-148.766,-30.027,-9.133,-7.28,31.46,0.14865,-0.56577,-0.04367,-0.80981,55
14,0.928,-0.137,0.407,0.0,-0.122,0.0,-18.523,-65.253,-176.001,-26.0,-9.633,-15.207,27.55,0.05783,0.53641,-0.11682,0.83377,58,0.597,0.028,0.807,-0.061,0.0,0.0,2.071,-36.387,-117.938,-20.607,-7.213,-5.7,27.03,0.49448,-0.25867,-0.1756,-0.81094,60,0.466,-0.042,0.88,0.0,-0.305,0.0,-2.686,-27.697,176.1,-11.84,-6.973,-25.213,31.59,-0.04141,-0.2373,0.0314,-0.97,52,0.919,-0.095,0.351,-0.061,0.0,0.0,-15.315,-68.351,-148.771,-30.027,-9.133,-7.28,31.46,0.14865,-0.56577,-0.04367,-0.80981,68
15,0.928,-0.138,0.407,0.0,-0.061,0.0,-18.523,-65.253,-175.995,-26.0,-9.633,-15.207,27.55,0.05783,0.53641,-0.11682,0.83377,59,0.595,0.029,0.806,0.061,0.0,0.0,2.065,-36.387,-117.949,-20.607,-7.213,-5.7,27.03,0.49448,-0.25867,-0.1756,-0.81094,61,0.467,-0.042,0.878,-0.122,-0.244,0.0,-2.686,-27.702,176.116,-11.84,-6.973,-25.213,31.59,-0.04141,-0.2373,0.0314,-0.97,53,0.918,-0.097,0.352,0.061,0.0,0.0,-15.315,-68.351,-148.771,-30.027,-9.133,-7.28,31.46,0.14865,-0.56577,-0.04367,-0.80981,69
16,0.925,-0.14,0.408,0.183,0.061,0.0,-18.523,-65.253,-175.995,-26.0,-9.633,-15.207,27.55,0.05783,0.53641,-0.11682,0.83377,66,0.594,0.028,0.806,0.122,0.122,0.0,2.071,-36.387,-117.949,-20.607,-7.213,-5.7,27.03,0.49448,-0.25867,-0.1756,-0.81094,64,0.467,-0.041,0.878,0.0,0.0,0.0,-2.686,-27.708,176.133,-11.84,-6.973,-25.213,31.59,-0.04141,-0.2373,0.0314,-0.97,62,0.916,-0.099,0.352,0.122,0.183,0.0,-15.309,-68.346,-148.782,-30.027,-9.133,-7.28,31.46,0.14865,-0.56577,-0.04367,-0.80981,70
17,0.928,-0.14,0.405,0.183,0.244,0.0,-18.523,-65.253,-175.99,-26.0,-9.633,-15.207,27.55,0.05783,0.53641,-0.11682,0.83377,67,0.599,0.028,0.806,-0.061,0.549,0.0,2.071,-36.387,-117.955,-20.607,-7.213,-5.7,27.03,0.49448,-0.25867,-0.1756,-0.81094,65,0.463,-0.041,0.878,0.183,-0.061,0.061,-2.686,-27.713,176.149,-11.84,-6.973,-25.213,31.59,-0.04141,-0.2373,0.0314,-0.97,63,0.919,-0.097,0.35,0.061,0.488,0.0,-15.298,-68.34,-148.788,-30.027,-9.133,-7.28,31.46,0.14865,-0.56577,-0.04367,-0.80981,71
18,0.929,-0.136,0.407,0.122,0.183,0.0,-18.517,-65.248,-175.995,-26.0,-9.633,-15.207,27.55,0.05783,0.53641,-0.11682,0.83377,74,0.596,0.031,0.809,0.061,0.549,0.0,2.071,-36.376,-117.955,-20.607,-7.213,-5.7,27.03,0.49448,-0.25867,-0.1756,-0.81094,72,0.468,-0.043,0.875,0.0,0.183,0.183,-2.686,-27.708,176.171,-11.84,-6.973,-25.213,31.59,-0.03818,-0.23849,0.03076,-0.96985,76,0.919,-0.095,0.353,0.0,0.244,0.0,-15.298,-68.335,-148.799,-30.027,-9.133,-7.28,31.46,0.14865,-0.56577,-0.04367,-0.80981,78
19,0.927,-0.136,0.403,0.183,0.305,0.0,-18.517,-65.242,-175.995,-26.0,-9.633,-15.207,27.55,0.05783,0.53641,-0.11682,0.83377,75,0.596,0.03,0.812,0.366,-0.183,0.0,2.071,-36.365,-117.938,-20.607,-7.213,-5.7,27.03,0.49448,-0.25867,-0.1756,-0.81094,73,0.468,-0.042,0.878,-0.061,0.671,0.0,-2.686,-27.702,176.188,-11.84,-6.973,-25.213,31.59,-0.03818,-0.23849,0.03076,-0.96985,77,0.918,-0.095,0.35,0.0,0.183,0.0,-15.293,-68.329,-148.804,-30.027,-9.133,-7.28,31.46,0.14865,-0.56577,-0.04367,-0.80981,79
20,0.927,-0.137,0.405,0.061,0.183,0.0,-18.512,-65.237,-175.995,-26.08,-9.4,-14.72,27.55,0.05783,0.53641,-0.11682,0.83377,80,0.595,0.026,0.81,0.183,-0.488,0.0,2.076,-36.376,-117.933,-20.607,-7.213,-5.7,27.03,0.49448,-0.25867,-0.1756,-0.81094,82,0.465,-0.038,0.886,0.244,0.488,0.244,-2.686,-27.691,176.21,-11.84,-6.973,-25.213,31.59,-0.03818,-0.23849,0.03076,-0.96985,88,0.918,-0.097,0.352,-0.183,0.0,0.0,-15.298,-68.335,-148.804,-30.027,-9.133,-7.28,31.46,0.14865,-0.56577,-0.04367,-0.80981,84
21,0.927,-0.138,0.407,0.0,0.061,0.0,-18.512,-65.231,-175.995,-26.08,-9.4,-14.72,27.55,0.05783,0.53641,-0.11682,0.83377,81,0.592,0.027,0.808,0.061,-0.488,0.0,2.076,-36.381,-117.933,-20.607,-7.213,-5.7,27.03,0.49448,-0.25867,-0.1756,-0.81094,83,0.464,-0.042,0.886,0.427,0.305,0.305,-2.681,-27.686,176.232,-11.84,-6.973,-25.213,31.59,-0.03818,-0.23849,0.03076,-0.96985,89,0.917,-0.096,0.354,-0.244,0.0,0.0,-15.304,-68.335,-148.81,-30.027,-9.133,-7.28,31.46,0.14865,-0.56577,-0.04367,-0.80981,85
22,0.923,-0.136,0.406,0.183,-0.183,0.0,-18.512,-65.231,-175.995,-26.08,-9.4,-14.72,27.55,0.05783,0.53641,-0.11682,0.83377,90,0.59,0.03,0.81,0.0,-0.305,0.0,2.082,-36.392,-117.927,-20.607,-7.213,-5.7,27.03,0.49448,-0.25867,-0.1756,-0.81094,86,0.463,-0.044,0.88,0.061,0.183,0.122,-2.681,-27.686,176.248,-11.84,-6.973,-25.213,31.59,-0.03818,-0.23849,0.03076,-0.96985,92,0.914,-0.096,0.352,0.0,0.0,0.0,-15.298,-68.335,-148.81,-29.647,-9.273,-6.98,31.46,0.14865,-0.56577,-0.04367,-0.80981,94
23,0.923,-0.136,0.405,0.244,-0.183,0.0,-18.512,-65.237,-175.99,-26.08,-9.4,-14.72,27.55,0.05783,0.53641,-0.11682,0.83377,91,0.593,0.029,0.806,-0.122,-0.122,0.0,2.076,-36.392,-117.927,-20.607,-7.213,-5.7,27.03,0.49448,-0.25867,-0.1756,-0.81094,87,0.46,-0.042,0.88,0.0,0.061,0.183,-2.681,-27.686,176.27,-11.84,-6.973,-25.213,31.59,-0.03818,-0.23849,0.03076,-0.96985,93,0.917,-0.095,0.351,-0.061,0.0,0.0,-15.304,-68.335,-148.815,-29.647,-9.273,-6.98,31.46,0.14865,-0.56577,-0.04367,-0.80981,95
24,0.925,-0.137,0.406,0.122,-0.183,0.0,-18.512,-65.237,-175.984,-26.08,-9.4,-14.72,27.55,0.05759,0.53641,-0.11682,0.8338,102,0.594,0.028,0.806,0.0,-0.183,0.0,2.076,-36.398,-117.927,-20.607,-7.213,-5.7,27.03,0.49448,-0.25867,-0.1756,-0.81094,96,0.461,-0.041,0.88,-0.183,0.183,0.0,-2.686,-27.686,176.287,-11.84,-6.973,-25.213,31.59,-0.03818,-0.23849,0.03076,-0.96985,98,0.92,-0.097,0.354,-0.122,0.0,0.0,-15.304,-68.329,-148.815,-29.647,-9.273,-6.98,31.46,0.14835,-0.5657,-0.04346,-0.80991,104
25,0.928,-0.138,0.409,0.0,-0.244,0.0,-18.517,-65.242,-175.979,-26.08,-9.4,-14.72,27.55,0.05759,0.53641,-0.11682,0.8338,103,0.595,0.029,0.809,-0.061,-0.122,0.0,2.076,-36.398,-117.922,-20.607,-7.213,-5.7,27.03,0.49448,-0.25867,-0.1756,-0.81094,97,0.463,-0.041,0.877,-0.183,0.305,0.0,-2.686,-27.68,176.298,-11.84,-6.973,-25.213,31.59,-0.03818,-0.23849,0.03076,-0.96985,99,0.921,-0.096,0.355,-0.122,0.0,0.0,-15.304,-68.329,-148.821,-29.647,-9.273,-6.98,31.46,0.14835,-0.5657,-0.04346,-0.80991,105
26,0.93,-0.137,0.41,0.061,-0.244,0.0,-18.523,-65.242,-175.974,-26.08,-9.4,-14.72,27.55,0.05759,0.53641,-0.11682,0.8338,106,0.597,0.029,0.809,0.0,-0.122,0.0,2.076,-36.398,-117.916,-20.46,-6.8,-6.0,27.03,0.49448,-0.25867,-0.1756,-0.81094,110,0.463,-0.041,0.879,-0.061,0.183,0.122,-2.692,-27.675,176.314,-11.84,-6.973,-25.213,31.59,-0.03818,-0.23849,0.03076,-0.96985,100,0.918,-0.097,0.353,-0.061,0.0,0.0,-15.304,-68.329,-148.821,-29.647,-9.273,-6.98,31.46,0.14835,-0.5657,-0.04346,-0.80991,108
27,0.928,-0.138,0.41,0.183,-0.061,0.0,-18.523,-65.248,-175.968,-26.08,-9.4,-14.72,27.55,0.05759,0.53641,-0.11682,0.8338,107,0.596,0.029,0.809,0.061,0.0,0.0,2.076,-36.398,-117.916,-20.46,-6.8,-6.0,27.03,0.49448,-0.25867,-0.1756,-0.81094,111,0.465,-0.042,0.881,-0.122,0.244,0.061,-2.692,-27.675,176.331,-11.84,-6.973,-25.213,31.59,-0.03818,-0.23849,0.03076,-0.96985,101,0.917,-0.096,0.352,0.0,0.122,0.0,-15.304,-68.329,-148.826,-29.647,-9.273,-6.98,31.46,0.14835,-0.5657,-0.04346,-0.80991,109
28,0.926,-0.136,0.407,0.366,0.0,0.0,-18.517,-65.248,-175.963,-26.08,-9.4,-14.72,27.55,0.05759,0.53641,-0.11682,0.8338,112,0.594,0.027,0.809,0.183,0.0,0.0,2.076,-36.398,-117.927,-20.46,-6.8,-6.0,27.03,0.49454,-0.25867,-0.17578,-0.81088,114,0.465,-0.04,0.881,0.0,0.305,0.122,-2.697,-27.669,176.347,-11.84,-6.973,-25.213,31.59,-0.03818,-0.23849,0.03076,-0.96985,116,0.917,-0.095,0.353,0.0,0.122,0.0,-15.304,-68.324,-148.832,-29.647,-9.273,-6.98,31.46,0.14835,-0.5657,-0.04346,-0.80991,118
29,0.926,-0.135,0.407,0.305,0.061,0.0,-18.512,-65.242,-175.963,-26.08,-9.4,-14.72,27.55,0.05759,0.53641,-0.11682,0.8338,113,0.595,0.028,0.808,0.244,-0.244,0.0,2.082,-36.403,-117.933,-20.46,-6.8,-6.0,27.03,0.49454,-0.25867,-0.17578,-0.81088,115,0.463,-0.042,0.882,0.061,0.366,0.122,-2.697,-27.664,176.364,-11.84,-6.973,-25.213,31.59,-0.03818,-0.23849,0.03076,-0.96985,117,0.917,-0.096,0.353,-0.061,0.122,0.0,-15.298,-68.324,-148.832,-29.647,-9.273,-6.98,31.46,0.14835,-0.5657,-0.04346,-0.80991,119
30,0.925,-0.136,0.405,0.244,0.061,0.0,-18.506,-65.242,-175.963,-26.08,-9.4,-14.72,27.55,0.05759,0.53641,-0.11682,0.8338,120,0.594,0.028,0.806,0.061,0.061,0.0,2.082,-36.403,-117.944,-20.46,-6.8,-6.0,27.03,0.49454,-0.25867,-0.17578,-0.81088,124,0.463,-0.043,0.882,0.305,0.183,0.183,-2.692,-27.658,176.385,-11.84,-6.973,-25.213,31.59,-0.03818,-0.23849,0.03076,-0.96985,122,0.917,-0.096,0.352,0.0,0.061,0.0,-15.298,-68.318,-148.837,-29.647,-9.273,-6.98,31.49,0.14835,-0.5657,-0.04346,-0.80991,128
31,0.926,-0.136,0.407,0.183,-0.061,0.0,-18.506,-65.242,-175.963,-26.08,-9.4,-14.72,27.55,0.05759,0.53641,-0.11682,0.8338,121,0.596,0.031,0.807,0.122,-0.061,0.0,2.087,-36.403,-117.949,-20.46,-6.8,-6.0,27.03,0.49454,-0.25867,-0.17578,-0.81088,125,0.463,-0.044,0.877,0.122,0.305,0.061,-2.692,-27.653,176.402,-11.84,-6.973,-25.213,31.59,-0.03818,-0.23849,0.03076,-0.96985,123,0.918,-0.096,0.351,-0.061,0.122,0.0,-15.298,-68.318,-148.843,-29.647,-9.273,-6.98,31.49,0.14835,-0.5657,-0.04346,-0.80991,129
32,0.928,-0.137,0.405,0.183,-0.122,0.0,-18.501,-65.242,-175.957,-26.08,-9.4,-14.72,27.55,0.05759,0.53641,-0.11682,0.8338,132,0.595,0.031,0.808,0.122,0.061,0.0,2.087,-36.398,-117.944,-20.46,-6.8,-6.0,27.03,0.49454,-0.25867,-0.17578,-0.81088,130,0.463,-0.041,0.88,0.061,0.305,0.0,-2.692,-27.647,176.413,-11.84,-6.973,-25.213,31.59,-0.03818,-0.23849,0.03076,-0.96985,126,0.92,-0.095,0.352,-0.183,0.122,0.0,-15.298,-68.318,-148.848,-29.647,-9.273,-6.98,31.49,0.14835,-0.5657,-0.04346,-0.80991,134
33,0.928,-0.136,0.406,0.122,-0.061,0.0,-18.501,-65.242,-175.952,-26.08,-9.4,-14.72,27.55,0.05759,0.53641,-0.11682,0.8338,133,0.596,0.027,0.808,0.183,-0.122,0.0,2.087,-36.398,-117.944,-20.46,-6.8,-6.0,27.03,0.49454,-0.25867,-0.17578,-0.81088,131,0.465,-0.037,0.88,0.122,0.305,0.183,-2.686,-27.642,176.429,-11.84,-6.973,-25.213,31.59,-0.03818,-0.23849,0.03076,-0.96985,127,0.918,-0.096,0.353,-0.122,0.0,0.0,-15.298,-68.313,-148.848,-29.647,-9.273,-6.98,31.49,0.14835,-0.5657,-0.04346,-0.80991,135
34,0.927,-0.137,0.406,0.061,-0.122,0.0,-18.501,-65.242,-175.952,-26.08,-9.4,-14.72,27.55,0.05759,0.53641,-0.11682,0.8338,140,0.595,0.027,0.81,0.061,-0.122,0.0,2.093,-36.403,-117.944,-20.46,-6.8,-6.0,27.03,0.49454,-0.25867,-0.17578,-0.81088,136,0.464,-0.042,0.882,0.183,0.305,0.183,-2.686,-27.636,176.446,-11.84,-6.973,-25.213,31.59,-0.03818,-0.23849,0.03076,-0.96985,138,0.917,-0.096,0.352,-0.122,0.0,0.0,-15.298,-68.313,-148.854,-29.647,-9.273,-6.98,31.49,0.14835,-0.5657,-0.04346,-0.80991,144
35,0.926,-0.136,0.405,0.122,-0.122,0.0,-18.501,-65.242,-175.946,-26.08,-9.4,-14.72,27.55,0.05759,0.53641,-0.11682,0.8338,141,0.595,0.029,0.809,0.061,-0.183,0.0,2.093,-36.403,-117.944,-20.46,-6.8,-6.0,27.03,0.49454,-0.25867,-0.17578,-0.81088,137,0.463,-0.044,0.882,0.122,0.183,0.122,-2.686,-27.636,176.462,-11.84,-6.973,-25.213,31.59,-0.03818,-0.23849,0.03076,-0.96985,139,0.918,-0.097,0.353,-0.061,0.0,0.0,-15.304,-68.313,-148.854,-29.647,-9.273,-6.98,31.49,0.14835,-0.5657,-0.04346,-0.80991,145
36,0.927,-0.137,0.406,0.122,-0.122,0.0,-18.501,-65.242,-175.941,-26.08,-9.4,-14.72,27.55,0.05759,0.53641,-0.11682,0.8338,148,0.595,0.03,0.807,0.0,-0.183,0.0,2.093,-36.409,-117.944,-20.46,-6.8,-6.0,27.03,0.49454,-0.25867,-0.17578,-0.81088,146,0.463,-0.042,0.882,0.0,0.244,0.0,-2.686,-27.631,176.479,-12.147,-7.3,-25.213,31.59,-0.03818,-0.23849,0.03076,-0.96985,142,0.918,-0.096,0.354,-0.061,0.061,0.0,-15.304,-68.313,-148.859,-29.647,-9.273,-6.98,31.49,0.14835,-0.5657,-0.04346,-0.80991,150
37,0.927,-0.137,0.408,0.122,-0.122,0.0,-18.501,-65.248,-175.941,-26.08,-9.4,-14.72,27.55,0.05759,0.53641,-0.11682,0.8338,149,0.595,0.029,0.808,0.0,-0.061,0.0,2.093,-36.409,-117.938,-20.46,-6.8,-6.0,27.03,0.49454,-0.25867,-0.17578,-0.81088,147,0.463,-0.041,0.88,0.061,0.244,0.0,-2.686,-27.631,176.49,-12.147,-7.3,-25.213,31.59,-0.03818,-0.23849,0.03076,-0.96985,143,0.917,-0.098,0.353,-0.183,0.061,0.0,-15.304,-68.313,-148.859,-29.647,-9.273,-6.98,31.49,0.14835,-0.5657,-0.04346,-0.80991,151
38,0.927,-0.137,0.408,0.061,-0.061,0.0,-18.506,-65.248,-175.935,-25.627,-9.347,-14.407,27.55,0.05759,0.53641,-0.11682,0.8338,154,0.595,0.028,0.808,0.061,0.0,0.0,2.093,-36.409,-117.938,-20.46,-6.8,-6.0,27.03,0.49454,-0.25867,-0.17578,-0.81088,160,0.463,-0.041,0.879,0.0,0.122,0.0,-2.686,-27.625,176.501,-12.147,-7.3,-25.213,31.59,-0.03818,-0.23849,0.03076,-0.96985,152,0.917,-0.097,0.353,-0.183,0.122,0.0,-15.304,-68.307,-148.865,-29.647,-9.273,-6.98,31.49,0.14835,-0.5657,-0.04346,-0.80991,158
39,0.926,-0.138,0.407,0.061,-0.061,0.0,-18.506,-65.248,-175.935,-25.627,-9.347,-14.407,27.55,0.05759,0.53641,-0.11682,0.8338,155,0.594,0.029,0.809,0.061,0.061,0.0,2.093,-36.409,-117.938,-20.46,-6.8,-6.0,27.03,0.49454,-0.25867,-0.17578,-0.81088,161,0.463,-0.042,0.88,0.061,0.0,0.0,-2.681,-27.631,176.517,-12.147,-7.3,-25.213,31.59,-0.03818,-0.23849,0.03076,-0.96985,153,0.917,-0.096,0.353,-0.061,0.122,0.0,-15.309,-68.307,-148.87,-29.647,-9.273,-6.98,31.49,0.14835,-0.5657,-0.04346,-0.80991,159
40,0.926,-0.137,0.407,0.183,0.0,0.0,-18.506,-65.248,-175.93,-25.627,-9.347,-14.407,27.55,0.05759,0.53641,-0.11682,0.8338,164,0.594,0.03,0.809,0.061,0.0,0.0,2.093,-36.409,-117.938,-20.46,-6.8,-6.0,27.03,0.49454,-0.25867,-0.17578,-0.81088,162,0.463,-0.042,0.881,0.061,0.183,0.0,-2.681,-27.625,176.528,-12.147,-7.3,-25.213,31.59,-0.03503,-0.23792,0.02997,-0.97015,156,0.918,-0.097,0.354,0.0,0.122,0.0,-15.309,-68.302,-148.876,-29.647,-9.273,-6.98,31.49,0.14835,-0.5657,-0.04346,-0.80991,168
41,0.927,-0.136,0.407,0.183,0.0,0.0,-18.501,-65.242,-175.93,-25.627,-9.347,-14.407,27.55,0.05759,0.53641,-0.11682,0.8338,165,0.594,0.028,0.808,0.183,0.0,0.0,2.098,-36.403,-117.938,-20.46,-6.8,-6.0,27.03,0.49454,-0.25867,-0.17578,-0.81088,163,0.463,-0.041,0.882,0.0,0.183,0.122,-2.686,-27.625,176.545,-12.147,-7.3,-25.213,31.59,-0.03503,-0.23792,0.02997,-0.97015,157,0.917,-0.096,0.354,-0.061,0.122,0.0,-15.304,-68.302,-148.876,-29.647,-9.273,-6.98,31.49,0.14835,-0.5657,-0.04346,-0.80991,169
42,0.927,-0.136,0.407,0.122,0.0,0.0,-18.501,-65.242,-175.93,-25.627,-9.347,-14.407,27.55,0.0571,0.53653,-0.11639,0.8338,170,0.595,0.027,0.808,0.122,0.0,0.0,2.098,-36.403,-117.938,-20.46,-6.8,-6.0,27.03,0.49454,-0.25867,-0.17578,-0.81088,172,0.462,-0.041,0.881,0.061,0.244,0.122,-2.681,-27.62,176.556,-12.147,-7.3,-25.213,31.59,-0.03503,-0.23792,0.02997,-0.97015,166,0.918,-0.096,0.354,-0.061,0.122,0.0,-15.304,-68.297,-148.881,-29.807,-9.273,-7.02,31.49,0.14835,-0.5657,-0.04346,-0.80991,176
43,0.927,-0.136,0.407,0.122,0.0,0.0,-18.495,-65.242,-175.924,-25.627,-9.347,-14.407,27.55,0.0571,0.53653,-0.11639,0.8338,171,0.595,0.028,0.809,0.122,0.0,0.0,2.098,-36.403,-117.933,-20.46,-6.8,-6.0,27.03,0.49454,-0.25867,-0.17578,-0.81088,173,0.462,-0.042,0.881,0.061,0.183,0.244,-2.686,-27.62,176.578,-12.147,-7.3,-25.213,31.59,-0.03503,-0.23792,0.02997,-0.97015,167,0.918,-0.097,0.354,-0.061,0.061,0.0,-15.304,-68.297,-148.887,-29.807,-9.273,-7.02,31.49,0.14835,-0.5657,-0.04346,-0.80991,177
44,0.927,-0.136,0.407,0.183,-0.061,0.0,-18.495,-65.242,-175.924,-25.627,-9.347,-14.407,27.55,0.0571,0.53653,-0.11639,0.8338,180,0.595,0.029,0.808,0.122,-0.061,0.0,2.104,-36.403,-117.933,-20.547,-7.06,-6.067,27.03,0.49454,-0.25867,-0.17578,-0.81088,178,0.461,-0.043,0.881,0.061,0.183,0.122,-2.686,-27.614,176.589,-12.147,-7.3,-25.213,31.59,-0.03503,-0.23792,0.02997,-0.97015,174,0.917,-0.097,0.354,-0.061,0.122,0.0,-15.304,-68.291,-148.887,-29.807,-9.273,-7.02,31.49,0.14789,-0.56546,-0.04297,-0.81018,184
45,0.927,-0.136,0.406,0.183,-0.061,0.0,-18.495,-65.242,-175.919,-25.627,-9.347,-14.407,27.55,0.0571,0.53653,-0.11639,0.8338,181,0.595,0.03,0.809,0.244,-0.061,0.0,2.104,-36.403,-117.933,-20.547,-7.06,-6.067,27.03,0.49454,-0.25867,-0.17578,-0.81088,179,0.463,-0.042,0.882,0.122,0.183,0.0,-2.681,-27.614,176.6,-12.147,-7.3,-25.213,31.59,-0.03503,-0.23792,0.02997,-0.97015,175,0.917,-0.097,0.354,-0.061,0.122,0.0,-15.304,-68.291,-148.892,-29.807,-9.273,-7.02,31.49,0.14789,-0.56546,-0.04297,-0.81018,185
46,0.926,-0.137,0.407,0.183,-0.061,0.0,-18.49,-65.242,-175.919,-25.627,-9.347,-14.407,27.55,0.0571,0.53653,-0.11639,0.8338,186,0.595,0.031,0.807,0.244,-0.061,0.0,2.109,-36.403,-117.933,-20.547,-7.06,-6.067,27.03,0.49454,-0.25867,-0.17578,-0.81088,188,0.462,-0.041,0.882,0.183,0.244,0.0,-2.681,-27.609,176.616,-12.147,-7.3,-25.213,31.59,-0.03503,-0.23792,0.02997,-0.97015,182,0.917,-0.097,0.353,-0.061,0.122,0.0,-15.304,-68.286,-148.898,-29.807,-9.273,-7.02,31.49,0.14789,-0.56546,-0.04297,-0.81018,192
47,0.927,-0.137,0.406,0.122,-0.061,0.0,-18.49,-65.242,-175.913,-25.627,-9.347,-14.407,27.55,0.0571,0.53653,-0.11639,0.8338,187,0.595,0.03,0.807,0.122,-0.061,0.0,2.115,-36.403,-117.933,-20.547,-7.06,-6.067,27.03,0.49454,-0.25867,-0.17578,-0.81088,189,0.462,-0.039,0.88,0.305,0.244,0.0,-2.675,-27.603,176.627,-12.147,-7.3,-25.213,31.59,-0.03503,-0.23792,0.02997,-0.97015,183,0.918,-0.097,0.353,-0.122,0.061,0.0,-15.304,-68.286,-148.898,-29.807,-9.273,-7.02,31.49,0.14789,-0.56546,-0.04297,-0.81018,193
48,0.928,-0.136,0.407,0.061,-0.061,0.0,-18.49,-65.242,-175.913,-25.627,-9.347,-14.407,27.55,0.0571,0.53653,-0.11639,0.8338,194,0.596,0.029,0.808,0.061,-0.122,0.0,2.115,-36.403,-117.933,-20.547,-7.06,-6.067,27.03,0.49457,-0.25858,-0.17603,-0.81085,200,0.462,-0.04,0.881,0.183,0.244,0.0,-2.67,-27.598,176.638,-12.147,-7.3,-25.213,31.59,-0.03503,-0.23792,0.02997,-0.97015,190,0.918,-0.096,0.352,-0.122,0.122,0.0,-15.304,-68.28,-148.903,-29.807,-9.273,-7.02,31.49,0.14789,-0.56546,-0.04297,-0.81018,198
49,0.927,-0.135,0.405,0.122,0.0,0.0,-18.49,-65.242,-175.913,-25.627,-9.347,-14.407,27.55,0.0571,0.53653,-0.11639,0.8338,195,0.595,0.028,0.808,0.0,-0.122,0.0,2.115,-36.409,-117.933,-20.547,-7.06,-6.067,27.03,0.49457,-0.25858,-0.17603,-0.81085,201,0.462,-0.041,0.882,0.061,0.244,0.0,-2.67,-27.598,176.649,-12.147,-7.3,-25.213,31.59,-0.03503,-0.23792,0.02997,-0.97015,191,0.918,-0.096,0.353,-0.122,0.122,0.0,-15.309,-68.28,-148.909,-29.807,-9.273,-7.02,31.49,0.14789,-0.56546,-0.04297,-0.81018,199
50,0.927,-0.136,0.406,0.061,0.0,0.0,-18.484,-65.237,-175.908,-25.627,-9.347,-14.407,27.55,0.0571,0.53653,-0.11639,0.8338,202,0.596,0.028,0.807,0.0,-0.122,0.0,2.115,-36.409,-117.927,-20.547,-7.06,-6.067,27.03,0.49457,-0.25858,-0.17603,-0.81085,208,0.463,-0.042,0.881,0.0,0.244,0.0,-2.67,-27.592,176.66,-12.147,-7.3,-25.213,31.59,-0.03503,-0.23792,0.02997,-0.97015,196,0.918,-0.098,0.354,-0.122,0.061,0.0,-15.309,-68.275,-148.909,-29.807,-9.273,-7.02,31.49,0.14789,-0.56546,-0.04297,-0.81018,204
51,0.928,-0.137,0.406,0.061,0.0,0.0,-18.484,-65.237,-175.908,-25.627,-9.347,-14.407,27.55,0.0571,0.53653,-0.11639,0.8338,203,0.597,0.029,0.809,0.061,0.061,0.0,2.115,-36.409,-117.927,-20.547,-7.06,-6.067,27.03,0.49457,-0.25858,-0.17603,-0.81085,209,0.463,-0.043,0.88,0.0,0.122,0.0,-2.67,-27.592,176.671,-12.147,-7.3,-25.213,31.59,-0.03503,-0.23792,0.02997,-0.97015,197,0.917,-0.098,0.354,0.0,0.0,0.0,-15.309,-68.275,-148.914,-29.807,-9.273,-7.02,31.49,0.14789,-0.56546,-0.04297,-0.81018,205
52,0.927,-0.137,0.408,0.061,-0.061,0.0,-18.484,-65.237,-175.908,-25.627,-9.347,-14.407,27.55,0.0571,0.53653,-0.11639,0.8338,206,0.593,0.029,0.808,0.427,-0.061,0.0,2.12,-36.409,-117.927,-20.547,-7.06,-6.067,27.03,0.49457,-0.25858,-0.17603,-0.81085,212,0.463,-0.042,0.88,-0.183,0.122,0.0,-2.675,-27.587,176.682,-12.147,-7.3,-25.213,31.59,-0.03503,-0.23792,0.02997,-0.97015,210,0.916,-0.098,0.352,0.061,0.122,0.0,-15.309,-68.275,-148.914,-29.807,-9.273,-7.02,31.49,0.14789,-0.56546,-0.04297,-0.81018,216
53,0.925,-0.137,0.406,0.244,0.061,0.0,-18.484,-65.237,-175.902,-25.627,-9.347,-14.407,27.55,0.0571,0.53653,-0.11639,0.8338,207,0.596,0.027,0.807,0.61,0.0,0.0,2.131,-36.409,-117.927,-20.547,-7.06,-6.067,27.03,0.49457,-0.25858,-0.17603,-0.81085,213,0.462,-0.04,0.882,0.244,0.183,0.0,-2.67,-27.587,176.693,-12.147,-7.3,-25.213,31.59,-0.03503,-0.23792,0.02997,-0.97015,211,0.917,-0.097,0.354,0.0,0.244,0.0,-15.309,-68.269,-148.92,-29.807,-9.273,-7.02,31.49,0.14789,-0.56546,-0.04297,-0.81018,217
54,0.927,-0.136,0.408,0.122,0.183,0.0,-18.479,-65.237,-175.902,-25.627,-9.347,-14.407,27.55,0.0571,0.53653,-0.11639,0.8338,222,0.595,0.029,0.807,0.488,0.549,0.0,2.142,-36.398,-117.927,-20.547,-7.06,-6.067,27.03,0.49457,-0.25858,-0.17603,-0.81085,218,0.461,-0.042,0.881,0.549,0.061,0.0,-2.659,-27.587,176.704,-11.153,-6.913,-24.907,31.59,-0.03503,-0.23792,0.02997,-0.97015,214,0.917,-0.096,0.356,0.122,0.122,0.0,-15.304,-68.264,-148.925,-29.807,-9.273,-7.02,31.49,0.14789,-0.56546,-0.04297,-0.81018,220
55,0.927,-0.135,0.408,0.244,0.0,0.0,-18.474,-65.231,-175.902,-25.627,-9.347,-14.407,27.55,0.0571,0.53653,-0.11639,0.8338,223,0.595,0.032,0.808,0.61,0.427,0.0,2.148,-36.392,-117.927,-20.547,-7.06,-6.067,27.03,0.49457,-0.25858,-0.17603,-0.81085,219,0.463,-0.043,0.876,0.488,0.427,0.305,-2.653,-27.576,176.721,-11.153,-6.913,-24.907,31.59,-0.03503,-0.23792,0.02997,-0.97015,215,0.917,-0.097,0.352,0.122,0.183,0.0,-15.298,-68.264,-148.931,-29.807,-9.273,-7.02,31.49,0.14789,-0.56546,-0.04297,-0.81018,221
56,0.927,-0.137,0.406,0.305,0.0,0.0,-18.474,-65.231,-175.902,-25.933,-9.387,-15.04,27.55,0.0571,0.53653,-0.11639,0.8338,230,0.596,0.03,0.811,0.305,-0.061,0.0,2.159,-36.387,-117.922,-20.547,-7.06,-6.067,27.03,0.49457,-0.25858,-0.17603,-0.81085,226,0.462,-0.04,0.883,0.671,0.854,0.244,-2.642,-27.565,176.732,-11.153,-6.913,-24.907,31.59,-0.03503,-0.23792,0.02997,-0.97015,224,0.918,-0.097,0.353,-0.305,0.061,0.0,-15.304,-68.258,-148.931,-29.653,-9.48,-7.453,31.49,0.14789,-0.56546,-0.04297,-0.81018,232
57,0.929,-0.137,0.406,0.122,0.122,0.0,-18.468,-65.226,-175.902,-25.933,-9.387,-15.04,27.55,0.0571,0.53653,-0.11639,0.8338,231,0.595,0.027,0.808,0.122,-0.244,0.0,2.159,-36.392,-117.922,-20.547,-7.06,-6.067,27.03,0.49457,-0.25858,-0.17603,-0.81085,227,0.463,-0.038,0.886,0.549,0.61,0.305,-2.631,-27.554,176.748,-11.153,-6.913,-24.907,31.59,-0.03503,-0.23792,0.02997,-0.97015,225,0.917,-0.097,0.354,-0.183,0.061,0.0,-15.304,-68.258,-148.936,-29.653,-9.48,-7.453,31.49,0.14789,-0.56546,-0.04297,-0.81018,233
58,0.926,-0.136,0.405,0.0,0.0,0.0,-18.468,-65.226,-175.902,-25.933,-9.387,-15.04,27.55,0.0571,0.53653,-0.11639,0.8338,236,0.593,0.03,0.81,0.122,-0.305,0.0,2.159,-36.398,-117.922,-20.547,-7.06,-6.067,27.03,0.49457,-0.25858,-0.17603,-0.81085,234,0.462,-0.044,0.884,0.305,0.427,0.0,-2.626,-27.543,176.759,-11.153,-6.913,-24.907,31.59,-0.03296,-0.23734,0.02905,-0.9704,228,0.915,-0.098,0.354,-0.122,0.0,0.0,-15.309,-68.258,-148.936,-29.653,-9.48,-7.453,31.49,0.14761,-0.56525,-0.04263,-0.81042,238
59,0.924,-0.137,0.406,0.0,0.0,0.0,-18.468,-65.226,-175.902,-25.933,-9.387,-15.04,27.55,0.0571,0.53653,-0.11639,0.8338,237,0.593,0.03,0.81,0.122,-0.305,0.0,2.164,-36.403,-117.922,-20.547,-7.06,-6.067,27.03,0.49457,-0.25858,-0.17603,-0.81085,235,0.46,-0.042,0.882,0.122,0.305,0.0,-2.626,-27.537,176.77,-11.153,-6.913,-24.907,31.59,-0.03296,-0.23734,0.02905,-0.9704,229,0.916,-0.097,0.354,-0.183,0.0,0.0,-15.315,-68.258,-148.942,-29.653,-9.48,-7.453,31.49,0.14761,-0.56525,-0.04263,-0.81042,239
60,0.925,-0.136,0.406,0.061,-0.122,0.0,-18.468,-65.226,-175.897,-25.933,-9.387,-15.04,27.55,0.0567,0.53647,-0.11606,0.83392,242,0.594,0.029,0.807,0.061,-0.183,0.0,2.164,-36.409,-117.922,-20.547,-7.06,-6.067,27.03,0.49457,-0.25858,-0.17603,-0.81085,240,0.459,-0.039,0.884,0.061,0.183,0.061,-2.626,-27.537,176.781,-11.153,-6.913,-24.907,31.59,-0.03296,-0.23734,0.02905,-0.9704,248,0.916,-0.097,0.354,-0.061,-0.061,0.0,-15.315,-68.258,-148.942,-29.653,-9.48,-7.453,31.49,0.14761,-0.56525,-0.04263,-0.81042,244
61,0.926,-0.136,0.407,0.122,-0.183,0.0,-18.468,-65.226,-175.897,-25.933,-9.387,-15.04,27.55,0.0567,0.53647,-0.11606,0.83392,243,0.594,0.029,0.808,0.061,-0.244,0.0,2.164,-36.409,-117.922,-20.547,-7.06,-6.067,27.03,0.49457,-0.25858,-0.17603,-0.81085,241,0.459,-0.041,0.881,0.122,0.305,0.061,-2.626,-27.532,176.792,-11.153,-6.913,-24.907,31.59,-0.03296,-0.23734,0.02905,-0.9704,249,0.917,-0.097,0.355,-0.061,0.0,0.0,-15.32,-68.258,-148.942,-29.653,-9.48,-7.453,31.49,0.14761,-0.56525,-0.04263,-0.81042,245
62,0.927,-0.136,0.409,0.122,-0.244,0.0,-18.474,-65.231,-175.891,-25.933,-9.387,-15.04,27.55,0.0567,0.53647,-0.11606,0.83392,246,0.594,0.028,0.807,0.0,0.0,0.0,2.164,-36.409,-117.922,-20.547,-7.06,-6.067,27.03,0.49457,-0.25858,-0.17603,-0.81085,250,0.459,-0.041,0.881,0.122,0.244,0.183,-2.626,-27.526,176.803,-11.153,-6.913,-24.907,31.59,-0.03296,-0.23734,0.02905,-0.9704,252,0.917,-0.097,0.354,0.0,0.0,0.0,-15.32,-68.253,-148.942,-29.653,-9.48,-7.453,31.49,0.14761,-0.56525,-0.04263,-0.81042,254
63,0.927,-0.136,0.408,0.122,-0.122,0.0,-18.474,-65.231,-175.886,-25.933,-9.387,-15.04,27.55,0.0567,0.53647,-0.11606,0.83392,247,0.595,0.031,0.807,0.122,0.183,0.0,2.164,-36.409,-117.922,-20.547,-7.06,-6.067,27.03,0.49457,-0.25858,-0.17603,-0.81085,251,0.461,-0.042,0.88,0.0,0.244,0.122,-2.626,-27.521,176.819,-11.153,-6.913,-24.907,31.59,-0.03296,-0.23734,0.02905,-0.9704,253,0.918,-0.097,0.355,0.0,0.0,0.0,-15.32,-68.253,-148.947,-29.653,-9.48,-7.453,31.49,0.14761,-0.56525,-0.04263,-0.81042,255
64,0.927,-0.137,0.408,0.122,0.0,0.0,-18.474,-65.231,-175.886,-25.933,-9.387,-15.04,27.55,0.0567,0.53647,-0.11606,0.83392,258,0.595,0.032,0.81,0.061,0.061,0.0,2.164,-36.403,-117.916,-20.547,-6.833,-5.073,27.03,0.49457,-0.25858,-0.17603,-0.81085,256,0.461,-0.04,0.88,0.061,0.305,0.061,-2.626,-27.515,176.83,-11.153,-6.913,-24.907,31.59,-0.03296,-0.23734,0.02905,-0.9704,262,0.917,-0.097,0.356,-0.061,0.061,0.0,-15.32,-68.253,-148.947,-29.653,-9.48,-7.453,31.49,0.14761,-0.56525,-0.04263,-0.81042,260
65,0.927,-0.136,0.409,0.061,0.0,0.0,-18.468,-65.231,-175.88,-25.933,-9.387,-15.04,27.55,0.0567,0.53647,-0.11606,0.83392,259,0.594,0.029,0.81,0.122,-0.061,0.0,2.164,-36.403,-117.916,-20.547,-6.833,-5.073,27.03,0.49457,-0.25858,-0.17603,-0.81085,257,0.46,-0.038,0.883,0.183,0.244,0.183,-2.626,-27.515,176.841,-11.153,-6.913,-24.907,31.59,-0.03296,-0.23734,0.02905,-0.9704,263,0.917,-0.097,0.355,0.0,0.061,0.0,-15.32,-68.247,-148.953,-29.653,-9.48,-7.453,31.49,0.14761,-0.56525,-0.04263,-0.81042,261
66,0.926,-0.136,0.408,0.061,0.0,0.0,-18.468,-65.231,-175.88,-25.933,-9.387,-15.04,27.55,0.0567,0.53647,-0.11606,0.83392,264,0.595,0.03,0.807,0.122,-0.122,0.0,2.17,-36.403,-117.916,-20.547,-6.833,-5.073,27.03,0.49457,-0.25858,-0.17603,-0.81085,266,0.459,-0.04,0.885,0.061,0.244,0.183,-2.626,-27.51,176.852,-11.153,-6.913,-24.907,31.59,-0.03296,-0.23734,0.02905,-0.9704,270,0.916,-0.097,0.355,0.0,0.122,0.0,-15.32,-68.247,-148.953,-29.653,-9.48,-7.453,31.49,0.14761,-0.56525,-0.04263,-0.81042,268
67,0.925,-0.135,0.408,0.183,0.0,0.0,-18.468,-65.231,-175.88,-25.933,-9.387,-15.04,27.55,0.0567,0.53647,-0.11606,0.83392,265,0.594,0.031,0.806,0.0,0.366,0.0,2.17,-36.398,-117.916,-20.547,-6.833,-5.073,27.03,0.49457,-0.25858,-0.17603,-0.81085,267,0.461,-0.042,0.882,0.122,0.183,0.244,-2.626,-27.504,176.869,-11.153,-6.913,-24.907,31.59,-0.03296,-0.23734,0.02905,-0.9704,271,0.916,-0.096,0.354,0.183,0.122,0.0,-15.315,-68.242,-148.958,-29.653,-9.48,-7.453,31.49,0.14761,-0.56525,-0.04263,-0.81042,269
68,0.926,-0.136,0.406,0.244,0.0,0.0,-18.463,-65.226,-175.88,-25.933,-9.387,-15.04,27.55,0.0567,0.53647,-0.11606,0.83392,272,0.594,0.032,0.808,0.183,0.122,0.0,2.17,-36.392,-117.916,-20.547,-6.833,-5.073,27.03,0.49481,-0.25827,-0.17642,-0.8107,280,0.459,-0.041,0.879,0.0,0.488,0.061,-2.626,-27.493,176.88,-11.153,-6.913,-24.907,31.59,-0.03296,-0.23734,0.02905,-0.9704,274,0.917,-0.096,0.353,0.122,0.061,0.0,-15.309,-68.242,-148.958,-29.653,-9.48,-7.453,31.49,0.14761,-0.56525,-0.04263,-0.81042,278
69,0.928,-0.135,0.406,0.122,0.0,0.0,-18.457,-65.226,-175.875,-25.933,-9.387,-15.04,27.55,0.0567,0.53647,-0.11606,0.83392,273,0.595,0.03,0.809,0.183,0.061,0.0,2.175,-36.392,-117.916,-20.547,-6.833,-5.073,27.03,0.49481,-0.25827,-0.17642,-0.8107,281,0.459,-0.038,0.881,0.122,0.366,0.122,-2.626,-27.488,176.891,-11.153,-6.913,-24.907,31.59,-0.03296,-0.23734,0.02905,-0.9704,275,0.918,-0.097,0.354,0.061,0.0,0.0,-15.304,-68.236,-148.964,-29.653,-9.48,-7.453,31.49,0.14761,-0.56525,-0.04263,-0.81042,279
70,0.928,-0.136,0.406,0.183,0.0,0.0,-18.457,-65.226,-175.875,-25.933,-9.387,-15.04,27.55,0.0567,0.53647,-0.11606,0.83392,282,0.595,0.028,0.809,0.183,-0.122,0.0,2.175,-36.392,-117.916,-20.547,-6.833,-5.073,27.03,0.49481,-0.25827,-0.17642,-0.8107,284,0.46,-0.04,0.884,0.244,0.427,0.183,-2.62,-27.482,176.902,-11.153,-6.913,-24.907,31.59,-0.03296,-0.23734,0.02905,-0.9704,276,0.918,-0.098,0.354,0.0,0.0,0.0,-15.304,-68.236,-148.964,-29.913,-9.167,-7.133,31.49,0.14761,-0.56525,-0.04263,-0.81042,286
71,0.927,-0.137,0.407,0.0,0.0,0.0,-18.457,-65.226,-175.875,-25.933,-9.387,-15.04,27.55,0.0567,0.53647,-0.11606,0.83392,283,0.595,0.03,0.809,0.061,-0.183,0.0,2.181,-36.392,-117.916,-20.547,-6.833,-5.073,27.03,0.49481,-0.25827,-0.17642,-0.8107,285,0.46,-0.042,0.884,0.183,0.427,0.061,-2.615,-27.471,176.913,-11.153,-6.913,-24.907,31.59,-0.03296,-0.23734,0.02905,-0.9704,277,0.917,-0.097,0.355,0.0,-0.122,0.0,-15.309,-68.236,-148.964,-29.913,-9.167,-7.133,31.49,0.14761,-0.56525,-0.04263,-0.81042,287
72,0.928,-0.136,0.408,-0.061,-0.122,0.0,-18.457,-65.226,-175.869,-25.933,-9.387,-15.04,27.55,0.0567,0.53647,-0.11606,0.83392,290,0.594,0.029,0.81,-0.061,0.0,0.0,2.175,-36.392,-117.911,-20.547,-6.833,-5.073,27.03,0.49481,-0.25827,-0.17642,-0.8107,288,0.459,-0.042,0.884,0.122,0.183,0.061,-2.615,-27.471,176.924,-11.153,-6.913,-24.907,31.59,-0.03296,-0.23734,0.02905,-0.9704,292,0.916,-0.098,0.355,0.0,-0.122,0.0,-15.309,-68.242,-148.964,-29.913,-9.167,-7.133,31.49,0.14746,-0.56516,-0.04245,-0.81052,296
73,0.926,-0.136,0.408,-0.061,-0.183,0.0,-18.463,-65.226,-175.869,-25.933,-9.387,-15.04,27.55,0.0567,0.53647,-0.11606,0.83392,291,0.593,0.029,0.81,-0.366,-0.122,0.0,2.17,-36.398,-117.911,-20.547,-6.833,-5.073,27.03,0.49481,-0.25827,-0.17642,-0.8107,289,0.459,-0.041,0.883,0.0,0.061,0.0,-2.615,-27.471,176.929,-11.153,-6.913,-24.907,31.59,-0.03296,-0.23734,0.02905,-0.9704,293,0.916,-0.097,0.356,0.0,-0.122,0.0,-15.309,-68.242,-148.964,-29.913,-9.167,-7.133,31.49,0.14746,-0.56516,-0.04245,-0.81052,297
74,0.926,-0.136,0.41,-0.061,-0.244,0.0,-18.468,-65.231,-175.864,-25.947,-9.413,-14.733,27.55,0.0567,0.53647,-0.11606,0.83392,302,0.592,0.03,0.81,-0.427,-0.122,0.0,2.164,-36.398,-117.911,-20.547,-6.833,-5.073,27.03,0.49481,-0.25827,-0.17642,-0.8107,298,0.458,-0.042,0.886,-0.305,0.0,-0.122,-2.62,-27.471,176.935,-12.453,-7.147,-25.393,31.59,-0.03296,-0.23734,0.02905,-0.9704,294,0.915,-0.097,0.357,0.122,-0.183,0.0,-15.309,-68.242,-148.964,-29.913,-9.167,-7.133,31.49,0.14746,-0.56516,-0.04245,-0.81052,300
75,0.924,-0.136,0.41,0.061,-0.244,0.0,-18.468,-65.231,-175.858,-25.947,-9.413,-14.733,27.55,0.0567,0.53647,-0.11606,0.83392,303,0.592,0.029,0.807,-0.183,0.0,0.0,2.159,-36.398,-117.911,-20.547,-6.833,-5.073,27.03,0.49481,-0.25827,-0.17642,-0.8107,299,0.457,-0.041,0.885,-0.427,-0.122,-0.183,-2.631,-27.471,176.94,-12.453,-7.147,-25.393,31.59,-0.03296,-0.23734,0.02905,-0.9704,295,0.917,-0.098,0.356,0.183,-0.122,0.0,-15.309,-68.242,-148.964,-29.913,-9.167,-7.133,31.49,0.14746,-0.56516,-0.04245,-0.81052,301
76,0.925,-0.137,0.409,0.0,-0.183,0.0,-18.468,-65.237,-175.853,-25.947,-9.413,-14.733,27.55,0.0564,0.53659,-0.11584,0.83389,308,0.593,0.028,0.808,0.061,0.183,0.0,2.159,-36.392,-117.911,-20.547,-6.833,-5.073,27.03,0.49481,-0.25827,-0.17642,-0.8107,306,0.457,-0.041,0.881,-0.305,-0.122,-0.122,-2.631,-27.477,176.946,-12.453,-7.147,-25.393,31.59,-0.03296,-0.23734,0.02905,-0.9704,304,0.917,-0.098,0.356,0.122,-0.061,0.0,-15.309,-68.242,-148.964,-29.913,-9.167,-7.133,31.49,0.14746,-0.56516,-0.04245,-0.81052,312
77,0.926,-0.137,0.41,0.0,-0.244,0.0,-18.474,-65.237,-175.847,-25.947,-9.413,-14.733,27.55,0.0564,0.53659,-0.11584,0.83389,309,0.593,0.028,0.809,0.0,0.427,0.0,2.153,-36.381,-117.911,-20.547,-6.833,-5.073,27.03,0.49481,-0.25827,-0.17642,-0.8107,307,0.459,-0.041,0.88,-0.061,-0.244,0.0,-2.637,-27.477,176.957,-12.453,-7.147,-25.393,31.59,-0.03296,-0.23734,0.02905,-0.9704,305,0.917,-0.097,0.356,0.122,0.0,0.0,-15.304,-68.242,-148.964,-29.913,-9.167,-7.133,31.49,0.14746,-0.56516,-0.04245,-0.81052,313
78,0.927,-0.135,0.408,0.0,-0.183,0.0,-18.479,-65.242,-175.847,-25.947,-9.413,-14.733,27.55,0.0564,0.53659,-0.11584,0.83389,316,0.594,0.03,0.81,-0.061,0.305,0.0,2.153,-36.376,-117.911,-20.547,-6.833,-5.073,27.03,0.49481,-0.25827,-0.17642,-0.8107,314,0.459,-0.041,0.881,0.0,-0.183,0.061,-2.637,-27.482,176.962,-12.453,-7.147,-25.393,31.59,-0.03122,-0.23679,0.02863,-0.97058,310,0.917,-0.096,0.354,0.122,0.0,0.0,-15.304,-68.242,-148.964,-29.913,-9.167,-7.133,31.49,0.14746,-0.56516,-0.04245,-0.81052,320
79,0.928,-0.136,0.408,-0.061,-0.122,0.0,-18.479,-65.242,-175.842,-25.947,-9.413,-14.733,27.55,0.0564,0.53659,-0.11584,0.83389,317,0.595,0.03,0.81,-0.122,0.183,0.0,2.153,-36.37,-117.905,-20.547,-6.833,-5.073,27.03,0.49481,-0.25827,-0.17642,-0.8107,315,0.459,-0.04,0.884,-0.122,-0.122,0.0,-2.637,-27.482,176.973,-12.453,-7.147,-25.393,31.59,-0.03122,-0.23679,0.02863,-0.97058,311,0.917,-0.097,0.355,0.0,0.0,0.0,-15.304,-68.236,-148.969,-29.913,-9.167,-7.133,31.49,0.14746,-0.56516,-0.04245,-0.81052,321
80,0.927,-0.137,0.407,-0.122,-0.122,0.0,-18.484,-65.242,-175.842,-25.947,-9.413,-14.733,27.55,0.0564,0.53659,-0.11584,0.83389,324,0.594,0.029,0.811,-0.183,0.0,0.0,2.148,-36.365,-117.905,-20.547,-6.833,-5.073,27.03,0.49481,-0.25827,-0.17642,-0.8107,322,0.461,-0.041,0.885,-0.061,-0.183,-0.061,-2.642,-27.488,176.979,-12.453,-7.147,-25.393,31.59,-0.03122,-0.23679,0.02863,-0.97058,318,0.917,-0.097,0.354,0.061,-0.122,0.0,-15.304,-68.236,-148.969,-29.913,-9.167,-7.133,31.49,0.14746,-0.56516,-0.04245,-0.81052,328
81,0.927,-0.137,0.406,-0.061,-0.183,0.0,-18.484,-65.242,-175.836,-25.947,-9.413,-14.733,27.55,0.0564,0.53659,-0.11584,0.83389,325,0.594,0.028,0.809,-0.122,0.061,0.0,2.142,-36.365,-117.905,-20.547,-6.833,-5.073,27.03,0.49481,-0.25827,-0.17642,-0.8107,323,0.46,-0.041,0.885,-0.183,-0.183,-0.122,-2.642,-27.493,176.984,-12.453,-7.147,-25.393,31.59,-0.03122,-0.23679,0.02863,-0.97058,319,0.917,-0.096,0.353,0.122,-0.183,0.0,-15.304,-68.242,-148.969,-29.913,-9.167,-7.133,31.49,0.14746,-0.56516,-0.04245,-0.81052,329
82,0.927,-0.136,0.405,-0.061,-0.122,0.0,-18.49,-65.242,-175.831,-25.947,-9.413,-14.733,27.55,0.0564,0.53659,-0.11584,0.83389,330,0.596,0.029,0.806,-0.061,0.183,0.0,2.142,-36.359,-117.905,-20.847,-6.54,-5.82,27.03,0.49481,-0.25827,-0.17642,-0.8107,332,0.461,-0.042,0.882,-0.183,-0.244,0.0,-2.648,-27.493,176.99,-12.453,-7.147,-25.393,31.59,-0.03122,-0.23679,0.02863,-0.97058,326,0.918,-0.097,0.352,0.122,-0.183,0.0,-15.304,-68.242,-148.964,-29.913,-9.167,-7.133,31.49,0.14746,-0.56516,-0.04245,-0.81052,336
83,0.928,-0.137,0.404,-0.122,-0.122,0.0,-18.495,-65.242,-175.831,-25.947,-9.413,-14.733,27.55,0.0564,0.53659,-0.11584,0.83389,331,0.595,0.029,0.808,-0.122,0.305,0.0,2.137,-36.354,-117.905,-20.847,-6.54,-5.82,27.03,0.49481,-0.25827,-0.17642,-0.8107,333,0.462,-0.041,0.88,-0.122,-0.427,0.0,-2.648,-27.504,177.001,-12.453,-7.147,-25.393,31.59,-0.03122,-0.23679,0.02863,-0.97058,327,0.918,-0.097,0.352,0.183,-0.122,0.0,-15.298,-68.242,-148.964,-29.913,-9.167,-7.133,31.49,0.14746,-0.56516,-0.04245,-0.81052,337
84,0.928,-0.137,0.405,-0.183,-0.122,0.0,-18.501,-65.248,-175.825,-25.947,-9.413,-14.733,27.55,0.0564,0.53659,-0.11584,0.83389,338,0.595,0.029,0.809,0.0,0.244,0.0,2.137,-36.348,-117.905,-20.847,-6.54,-5.82,27.03,0.49487,-0.25803,-0.17603,-0.81082,342,0.461,-0.041,0.881,-0.183,-0.549,0.0,-2.653,-27.515,177.006,-12.453,-7.147,-25.393,31.59,-0.03122,-0.23679,0.02863,-0.97058,334,0.917,-0.096,0.354,0.244,-0.244,0.0,-15.298,-68.247,-148.964,-29.387,-9.087,-7.427,31.49,0.14746,-0.56516,-0.04245,-0.81052,340
85,0.926,-0.137,0.406,-0.061,-0.122,0.0,-18.501,-65.248,-175.825,-25.947,-9.413,-14.733,27.55,0.0564,0.53659,-0.11584,0.83389,339,0.591,0.03,0.809,0.0,0.244,0.0,2.137,-36.343,-117.905,-20.847,-6.54,-5.82,27.03,0.49487,-0.25803,-0.17603,-0.81082,343,0.462,-0.04,0.882,-0.183,-0.671,0.0,-2.659,-27.526,177.017,-12.453,-7.147,-25.393,31.59,-0.03122,-0.23679,0.02863,-0.97058,335,0.917,-0.097,0.355,0.183,-0.244,0.0,-15.298,-68.253,-148.964,-29.387,-9.087,-7.427,31.49,0.14746,-0.56516,-0.04245,-0.81052,341
86,0.926,-0.137,0.407,-0.122,-0.122,0.0,-18.506,-65.248,-175.82,-25.947,-9.413,-14.733,27.55,0.0564,0.53659,-0.11584,0.83389,344,0.593,0.03,0.811,0.0,0.183,0.0,2.137,-36.337,-117.905,-20.847,-6.54,-5.82,27.03,0.49487,-0.25803,-0.17603,-0.81082,352,0.46,-0.04,0.883,-0.061,-0.732,0.0,-2.659,-27.543,177.023,-12.453,-7.147,-25.393,31.59,-0.03122,-0.23679,0.02863,-0.97058,346,0.917,-0.096,0.355,0.183,-0.244,0.0,-15.298,-68.258,-148.958,-29.387,-9.087,-7.427,31.49,0.14746,-0.56516,-0.04245,-0.81052,348
87,0.925,-0.137,0.407,-0.122,-0.244,0.0,-18.512,-65.253,-175.814,-25.947,-9.413,-14.733,27.55,0.0564,0.53659,-0.11584,0.83389,345,0.594,0.028,0.81,0.0,0.183,0.0,2.137,-36.332,-117.9,-20.847,-6.54,-5.82,27.03,0.49487,-0.25803,-0.17603,-0.81082,353,0.46,-0.04,0.883,-0.061,-0.854,0.0,-2.659,-27.559,177.034,-12.453,-7.147,-25.393,31.59,-0.03122,-0.23679,0.02863,-0.97058,347,0.917,-0.097,0.354,0.061,-0.183,0.0,-15.298,-68.258,-148.958,-29.387,-9.087,-7.427,31.49,0.14746,-0.56516,-0.04245,-0.81052,349
88,0.927,-0.136,0.407,-0.183,-0.183,0.0,-18.523,-65.253,-175.814,-25.947,-9.413,-14.733,27.55,0.0564,0.53659,-0.11584,0.83389,350,0.594,0.027,0.81,-0.122,0.0,0.0,2.131,-36.332,-117.9,-20.847,-6.54,-5.82,27.03,0.49487,-0.25803,-0.17603,-0.81082,356,0.462,-0.042,0.883,0.0,-0.671,0.0,-2.659,-27.57,177.039,-12.453,-7.147,-25.393,31.59,-0.03122,-0.23679,0.02863,-0.97058,354,0.917,-0.097,0.354,-0.061,-0.183,0.0,-15.304,-68.264,-148.958,-29.387,-9.087,-7.427,31.49,0.14752,-0.56525,-0.0426,-0.81042,358
89,0.927,-0.137,0.407,-0.183,-0.183,0.0,-18.528,-65.259,-175.809,-25.947,-9.413,-14.733,27.55,0.0564,0.53659,-0.11584,0.83389,351,0.594,0.03,0.81,-0.366,-0.061,0.0,2.126,-36.332,-117.9,-20.847,-6.54,-5.82,27.03,0.49487,-0.25803,-0.17603,-0.81082,357,0.462,-0.043,0.883,-0.122,-0.732,0.0,-2.664,-27.587,177.045,-12.453,-7.147,-25.393,31.59,-0.03122,-0.23679,0.02863,-0.97058,355,0.918,-0.095,0.354,-0.122,-0.183,0.0,-15.304,-68.264,-148.953,-29.387,-9.087,-7.427,31.49,0.14752,-0.56525,-0.0426,-0.81042,359
90,0.928,-0.136,0.407,-0.183,-0.183,0.0,-18.534,-65.259,-175.803,-25.947,-9.413,-14.733,27.55,0.0564,0.53659,-0.11584,0.83389,362,0.595,0.032,0.809,-0.488,0.0,0.0,2.115,-36.332,-117.9,-20.847,-6.54,-5.82,27.03,0.49487,-0.25803,-0.17603,-0.81082,360,0.462,-0.042,0.883,-0.427,-0.671,0.0,-2.675,-27.598,177.056,-12.453,-7.147,-25.393,31.59,-0.03122,-0.23679,0.02863,-0.97058,364,0.917,-0.095,0.353,0.0,-0.183,0.0,-15.309,-68.264,-148.953,-29.387,-9.087,-7.427,31.49,0.14752,-0.56525,-0.0426,-0.81042,368
91,0.927,-0.136,0.407,-0.183,-0.183,0.0,-18.539,-65.259,-175.803,-25.947,-9.413,-14.733,27.55,0.0564,0.53659,-0.11584,0.83389,363,0.592,0.029,0.807,-0.244,0.0,0.0,2.109,-36.332,-117.9,-20.847,-6.54,-5.82,27.03,0.49487,-0.25803,-0.17603,-0.81082,361,0.464,-0.04,0.881,-0.671,-0.549,0.0,-2.686,-27.609,177.061,-12.453,-7.147,-25.393,31.59,-0.03122,-0.23679,0.02863,-0.97058,365,0.916,-0.098,0.354,0.183,-0.061,0.0,-15.304,-68.264,-148.953,-29.387,-9.087,-7.427,31.49,0.14752,-0.56525,-0.0426,-0.81042,369
92,0.924,-0.138,0.407,0.0,-0.183,0.0,-18.545,-65.264,-175.798,-25.367,-9.607,-14.88,27.55,0.0564,0.53659,-0.11584,0.83389,374,0.594,0.026,0.805,-0.061,0.305,0.0,2.109,-36.326,-117.9,-20.847,-6.54,-5.82,27.03,0.49487,-0.25803,-0.17603,-0.81082,370,0.462,-0.04,0.88,-0.488,-0.488,0.0,-2.697,-27.62,177.072,-11.833,-7.12,-25.18,31.59,-0.03122,-0.23679,0.02863,-0.97058,366,0.919,-0.098,0.352,0.122,0.244,0.0,-15.298,-68.258,-148.958,-29.387,-9.087,-7.427,31.49,0.14752,-0.56525,-0.0426,-0.81042,372
93,0.929,-0.139,0.405,0.061,0.0,0.0,-18.545,-65.264,-175.798,-25.367,-9.607,-14.88,27.55,0.0564,0.53659,-0.11584,0.83389,375,0.6,0.027,0.808,-0.122,1.16,0.0,2.104,-36.299,-117.9,-20.847,-6.54,-5.82,27.03,0.49487,-0.25803,-0.17603,-0.81082,371,0.462,-0.043,0.875,-0.122,-0.671,0.0,-2.697,-27.636,177.078,-11.833,-7.12,-25.18,31.59,-0.03122,-0.23679,0.02863,-0.97058,367,0.921,-0.095,0.354,0.0,0.305,0.0,-15.293,-68.253,-148.964,-29.387,-9.087,-7.427,31.49,0.14752,-0.56525,-0.0426,-0.81042,373
94,0.931,-0.136,0.406,0.122,-0.122,0.0,-18.545,-65.264,-175.792,-25.367,-9.607,-14.88,27.55,0.05634,0.5368,-0.11609,0.83371,380,0.599,0.03,0.81,0.305,0.61,0.0,2.109,-36.288,-117.9,-20.847,-6.54,-5.82,27.03,0.49487,-0.25803,-0.17603,-0.81082,378,0.469,-0.045,0.874,-0.244,0.0,0.0,-2.703,-27.636,177.083,-11.833,-7.12,-25.18,31.59,-0.03122,-0.23679,0.02863,-0.97058,376,0.921,-0.094,0.349,0.0,0.061,0.0,-15.293,-68.253,-148.969,-29.387,-9.087,-7.427,31.49,0.14752,-0.56525,-0.0426,-0.81042,384
95,0.93,-0.136,0.4,0.061,-0.061,0.0,-18.545,-65.264,-175.792,-25.367,-9.607,-14.88,27.55,0.05634,0.5368,-0.11609,0.83371,381,0.598,0.029,0.811,0.61,-0.427,0.0,2.12,-36.299,-117.905,-20.847,-6.54,-5.82,27.03,0.49487,-0.25803,-0.17603,-0.81082,379,0.47,-0.041,0.885,0.122,0.0,0.0,-2.703,-27.636,177.089,-11.833,-7.12,-25.18,31.59,-0.03122,-0.23679,0.02863,-0.97058,377,0.92,-0.095,0.35,-0.183,0.0,0.0,-15.293,-68.253,-148.969,-29.387,-9.087,-7.427,31.49,0.14752,-0.56525,-0.0426,-0.81042,385
96,0.93,-0.136,0.402,0.0,-0.122,0.0,-18.55,-65.264,-175.787,-25.367,-9.607,-14.88,27.55,0.05634,0.5368,-0.11609,0.83371,392,0.596,0.028,0.809,0.427,-0.61,0.0,2.126,-36.31,-117.911,-20.847,-6.54,-5.82,27.03,0.49487,-0.25803,-0.17603,-0.81082,386,0.467,-0.041,0.887,0.671,-0.305,0.305,-2.692,-27.642,177.105,-11.833,-7.12,-25.18,31.59,-0.03024,-0.2381,0.02896,-0.97028,382,0.917,-0.095,0.352,-0.305,-0.183,0.0,-15.304,-68.258,-148.964,-29.387,-9.087,-7.427,31.49,0.14752,-0.56525,-0.0426,-0.81042,388
97,0.926,-0.137,0.403,-0.122,-0.305,0.0,-18.556,-65.27,-175.787,-25.367,-9.607,-14.88,27.55,0.05634,0.5368,-0.11609,0.83371,393,0.592,0.03,0.805,0.366,-0.305,0.0,2.137,-36.315,-117.911,-20.847,-6.54,-5.82,27.03,0.49487,-0.25803,-0.17603,-0.81082,387,0.468,-0.043,0.882,0.732,-0.427,0.122,-2.681,-27.653,177.116,-11.833,-7.12,-25.18,31.59,-0.03024,-0.2381,0.02896,-0.97028,383,0.914,-0.097,0.35,-0.122,-0.122,0.0,-15.304,-68.264,-148.964,-29.387,-9.087,-7.427,31.49,0.14752,-0.56525,-0.0426,-0.81042,389
98,0.924,-0.137,0.402,0.0,-0.305,0.0,-18.561,-65.275,-175.776,-25.367,-9.607,-14.88,27.55,0.05634,0.5368,-0.11609,0.83371,396,0.592,0.031,0.807,0.183,0.0,0.0,2.137,-36.315,-117.905,-20.847,-6.54,-5.82,27.03,0.49487,-0.25803,-0.17603,-0.81082,394,0.463,-0.041,0.876,0.488,-0.427,0.0,-2.67,-27.664,177.122,-11.833,-7.12,-25.18,31.59,-0.03024,-0.2381,0.02896,-0.97028,390,0.917,-0.096,0.35,0.061,-0.244,0.0,-15.309,-68.269,-148.964,-29.387,-9.087,-7.427,31.49,0.14752,-0.56525,-0.0426,-0.81042,400
99,0.924,-0.137,0.404,0.0,-0.122,0.0,-18.567,-65.281,-175.776,-25.367,-9.607,-14.88,27.55,0.05634,0.5368,-0.11609,0.83371,397,0.593,0.029,0.806,0.122,0.122,0.0,2.142,-36.315,-117.894,-20.847,-6.54,-5.82,27.03,0.49487,-0.25803,-0.17603,-0.81082,395,0.463,-0.04,0.875,0.244,-0.305,0.0,-2.664,-27.669,177.127,-11.833,-7.12,-25.18,31.59,-0.03024,-0.2381,0.02896,-0.97028,391,0.919,-0.097,0.355,0.122,-0.061,0.0,-15.309,-68.269,-148.964,-29.387,-9.087,-7.427,31.49,0.14752,-0.56525,-0.0426,-0.81042,401
100,0.926,-0.138,0.406,-0.122,0.0,0.0,-18.567,-65.281,-175.776,-25.367,-9.607,-14.88,27.55,0.05634,0.5368,-0.11609,0.83371,402,0.593,0.029,0.806,0.122,0.0,0.0,2.142,-36.315,-117.883,-20.847,-6.54,-5.82,27.03,0.49487,-0.25803,-0.17603,-0.81082,404,0.463,-0.041,0.877,0.061,0.0,0.0,-2.664,-27.675,177.133,-11.833,-7.12,-25.18,31.59,-0.03024,-0.2381,0.02896,-0.97028,398,0.92,-0.097,0.355,0.061,-0.061,0.0,-15.304,-68.269,-148.964,-29.527,-9.28,-7.173,31.49,0.14752,-0.56525,-0.0426,-0.81042,406
101,0.929,-0.138,0.408,-0.061,-0.061,0.0,-18.572,-65.281,-175.776,-25.367,-9.607,-14.88,27.55,0.05634,0.5368,-0.11609,0.83371,403,0.596,0.028,0.81,0.061,0.0,0.0,2.142,-36.315,-117.867,-20.847,-6.54,-5.82,27.03,0.49487,-0.25803,-0.17603,-0.81082,405,0.463,-0.041,0.877,0.0,0.0,0.122,-2.664,-27.675,177.144,-11.833,-7.12,-25.18,31.59,-0.03024,-0.2381,0.02896,-0.97028,399,0.919,-0.097,0.356,0.061,0.0,0.0,-15.304,-68.269,-148.964,-29.527,-9.28,-7.173,31.49,0.14752,-0.56525,-0.0426,-0.81042,407
102,0.929,-0.139,0.409,0.0,0.0,0.0,-18.578,-65.281,-175.77,-25.367,-9.607,-14.88,27.55,0.05634,0.5368,-0.11609,0.83371,410,0.595,0.028,0.811,0.122,0.0,0.0,2.142,-36.315,-117.861,-20.367,-6.787,-5.2,27.03,0.49487,-0.25803,-0.17603,-0.81082,414,0.464,-0.042,0.88,0.061,0.122,0.122,-2.67,-27.675,177.149,-11.833,-7.12,-25.18,31.59,-0.03024,-0.2381,0.02896,-0.97028,408,0.916,-0.097,0.355,0.061,0.061,0.0,-15.304,-68.269,-148.964,-29.527,-9.28,-7.173,31.49,0.14743,-0.56537,-0.04254,-0.81039,412
103,0.928,-0.139,0.409,0.061,0.0,0.0,-18.578,-65.275,-175.77,-25.367,-9.607,-14.88,27.55,0.05634,0.5368,-0.11609,0.83371,411,0.592,0.029,0.811,0.183,0.0,0.0,2.148,-36.315,-117.856,-20.367,-6.787,-5.2,27.03,0.49487,-0.25803,-0.17603,-0.81082,415,0.465,-0.042,0.883,0.061,0.305,0.0,-2.664,-27.669,177.155,-11.833,-7.12,-25.18,31.59,-0.03024,-0.2381,0.02896,-0.97028,409,0.914,-0.096,0.354,0.122,0.061,0.0,-15.298,-68.269,-148.969,-29.527,-9.28,-7.173,31.49,0.14743,-0.56537,-0.04254,-0.81039,413
104,0.924,-0.138,0.407,0.122,0.183,0.0,-18.572,-65.275,-175.776,-25.367,-9.607,-14.88,27.55,0.05634,0.5368,-0.11609,0.83371,418,0.59,0.028,0.811,0.244,0.0,0.0,2.148,-36.315,-117.856,-20.367,-6.787,-5.2,27.03,0.4953,-0.25766,-0.17609,-0.81067,420,0.459,-0.042,0.882,0.183,0.122,0.183,-2.664,-27.669,177.166,-11.833,-7.12,-25.18,31.59,-0.03024,-0.2381,0.02896,-0.97028,416,0.914,-0.095,0.354,0.183,0.183,0.0,-15.298,-68.269,-148.969,-29.527,-9.28,-7.173,31.49,0.14743,-0.56537,-0.04254,-0.81039,424
105,0.923,-0.138,0.407,0.122,0.183,0.0,-18.572,-65.27,-175.776,-25.367,-9.607,-14.88,27.55,0.05634,0.5368,-0.11609,0.83371,419,0.59,0.029,0.809,0.061,0.0,0.0,2.148,-36.315,-117.856,-20.367,-6.787,-5.2,27.03,0.4953,-0.25766,-0.17609,-0.81067,421,0.461,-0.042,0.878,0.122,0.061,0.183,-2.664,-27.669,177.177,-11.833,-7.12,-25.18,31.59,-0.03024,-0.2381,0.02896,-0.97028,417,0.916,-0.093,0.353,0.122,0.122,0.0,-15.293,-68.264,-148.975,-29.527,-9.28,-7.173,31.49,0.14743,-0.56537,-0.04254,-0.81039,425
106,0.924,-0.136,0.406,0.122,0.183,0.0,-18.567,-65.264,-175.776,-25.367,-9.607,-14.88,27.55,0.05634,0.5368,-0.11609,0.83371,426,0.59,0.029,0.807,0.0,0.305,0.0,2.148,-36.31,-117.845,-20.367,-6.787,-5.2,27.03,0.4953,-0.25766,-0.17609,-0.81067,428,0.461,-0.042,0.878,0.0,0.122,0.0,-2.664,-27.669,177.188,-11.833,-7.12,-25.18,31.59,-0.03024,-0.2381,0.02896,-0.97028,422,0.917,-0.093,0.352,0.122,0.122,0.0,-15.287,-68.258,-148.975,-29.527,-9.28,-7.173,31.49,0.14743,-0.56537,-0.04254,-0.81039,430
107,0.926,-0.135,0.404,0.122,0.122,0.0,-18.561,-65.259,-175.776,-25.367,-9.607,-14.88,27.55,0.05634,0.5368,-0.11609,0.83371,427,0.593,0.032,0.809,0.122,0.305,0.0,2.148,-36.299,-117.839,-20.367,-6.787,-5.2,27.03,0.4953,-0.25766,-0.17609,-0.81067,429,0.463,-0.037,0.878,0.061,0.122,0.183,-2.664,-27.664,177.193,-11.833,-7.12,-25.18,31.59,-0.03024,-0.2381,0.02896,-0.97028,423,0.919,-0.094,0.354,0.061,0.0,0.0,-15.282,-68.258,-148.98,-29.527,-9.28,-7.173,31.49,0.14743,-0.56537,-0.04254,-0.81039,431
108,0.927,-0.136,0.403,0.061,0.061,0.0,-18.561,-65.259,-175.776,-25.367,-9.607,-14.88,27.55,0.05634,0.5368,-0.11609,0.83371,432,0.593,0.032,0.811,0.122,0.122,0.0,2.153,-36.293,-117.839,-20.367,-6.787,-5.2,27.03,0.4953,-0.25766,-0.17609,-0.81067,436,0.463,-0.039,0.882,0.122,0.122,0.244,-2.664,-27.664,177.204,-11.833,-7.12,-25.18,31.59,-0.03024,-0.2381,0.02896,-0.97028,434,0.919,-0.095,0.354,0.0,-0.122,0.0,-15.276,-68.258,-148.98,-29.527,-9.28,-7.173,31.49,0.14743,-0.56537,-0.04254,-0.81039,440
109,0.929,-0.137,0.405,0.0,0.0,0.0,-18.561,-65.259,-175.776,-25.367,-9.607,-14.88,27.55,0.05634,0.5368,-0.11609,0.83371,433,0.593,0.031,0.811,0.061,-0.122,0.0,2.153,-36.299,-117.839,-20.367,-6.787,-5.2,27.03,0.4953,-0.25766,-0.17609,-0.81067,437,0.463,-0.041,0.884,0.122,-0.061,0.122,-2.664,-27.664,177.215,-11.833,-7.12,-25.18,31.59,-0.03024,-0.2381,0.02896,-0.97028,435,0.918,-0.096,0.353,0.0,-0.244,0.0,-15.276,-68.258,-148.98,-29.527,-9.28,-7.173,31.49,0.14743,-0.56537,-0.04254,-0.81039,441
110,0.928,-0.137,0.406,-0.061,-0.122,0.0,-18.567,-65.259,-175.776,-25.78,-9.467,-14.393,27.55,0.05634,0.5368,-0.11609,0.83371,444,0.594,0.03,0.811,0.0,-0.244,0.0,2.153,-36.299,-117.828,-20.367,-6.787,-5.2,27.03,0.4953,-0.25766,-0.17609,-0.81067,442,0.463,-0.042,0.884,0.0,-0.183,0.061,-2.664,-27.664,177.22,-12.113,-6.833,-25.98,31.59,-0.03024,-0.2381,0.02896,-0.97028,438,0.917,-0.096,0.353,0.061,-0.183,0.0,-15.276,-68.264,-148.975,-29.527,-9.28,-7.173,31.49,0.14743,-0.56537,-0.04254,-0.81039,448
111,0.926,-0.138,0.406,0.0,-0.183,0.0,-18.572,-65.259,-175.77,-25.78,-9.467,-14.393,27.55,0.05634,0.5368,-0.11609,0.83371,445,0.593,0.029,0.809,0.0,-0.244,0.0,2.153,-36.304,-117.823,-20.367,-6.787,-5.2,27.03,0.4953,-0.25766,-0.17609,-0.81067,443,0.463,-0.041,0.881,0.0,-0.366,0.0,-2.664,-27.669,177.226,-12.113,-6.833,-25.98,31.59,-0.03024,-0.2381,0.02896,-0.97028,439,0.917,-0.096,0.353,0.122,-0.183,0.0,-15.276,-68.269,-148.975,-29.527,-9.28,-7.173,31.49,0.14743,-0.56537,-0.04254,-0.81039,449
112,0.926,-0.138,0.405,0.0,-0.183,0.0,-18.572,-65.264,-175.77,-25.78,-9.467,-14.393,27.55,0.0563,0.5368,-0.11618,0.83371,450,0.593,0.029,0.808,0.122,-0.183,0.0,2.153,-36.304,-117.817,-20.367,-6.787,-5.2,27.03,0.4953,-0.25766,-0.17609,-0.81067,452,0.464,-0.041,0.878,0.122,-0.488,0.0,-2.664,-27.675,177.231,-12.113,-6.833,-25.98,31.59,-0.03024,-0.2381,0.02896,-0.97028,446,0.916,-0.097,0.352,0.061,-0.122,0.0,-15.276,-68.269,-148.975,-29.527,-9.28,-7.173,31.49,0.14743,-0.56537,-0.04254,-0.81039,454
113,0.926,-0.139,0.406,0.0,-0.122,0.0,-18.578,-65.264,-175.765,-25.78,-9.467,-14.393,27.55,0.0563,0.5368,-0.11618,0.83371,451,0.592,0.03,0.808,0.122,-0.061,0.0,2.159,-36.304,-117.806,-20.367,-6.787,-5.2,27.03,0.4953,-0.25766,-0.17609,-0.81067,453,0.463,-0.041,0.879,0.061,-0.549,0.061,-2.664,-27.686,177.237,-12.113,-6.833,-25.98,31.59,-0.03024,-0.2381,0.02896,-0.97028,447,0.917,-0.096,0.353,0.0,-0.061,0.0,-15.276,-68.275,-148.969,-29.527,-9.28,-7.173,31.49,0.14743,-0.56537,-0.04254,-0.81039,455
114,0.926,-0.138,0.406,0.061,-0.061,0.0,-18.578,-65.264,-175.765,-25.78,-9.467,-14.393,27.55,0.0563,0.5368,-0.11618,0.83371,458,0.593,0.028,0.808,0.0,0.0,0.0,2.159,-36.304,-117.812,-20.367,-6.787,-5.2,27.03,0.4953,-0.25766,-0.17609,-0.81067,456,0.463,-0.041,0.879,0.061,-0.488,0.122,-2.664,-27.697,177.248,-12.113,-6.833,-25.98,31.59,-0.0289,-0.23859,0.02832,-0.97021,460,0.917,-0.096,0.354,0.0,-0.061,0.0,-15.276,-68.275,-148.969,-29.527,-9.28,-7.173,31.49,0.14743,-0.56537,-0.04254,-0.81039,462
115,0.926,-0.138,0.406,0.0,-0.061,0.0,-18.583,-65.264,-175.759,-25.78,-9.467,-14.393,27.55,0.0563,0.5368,-0.11618,0.83371,459,0.594,0.029,0.809,-0.061,0.0,0.0,2.159,-36.304,-117.806,-20.367,-6.787,-5.2,27.03,0.4953,-0.25766,-0.17609,-0.81067,457,0.463,-0.043,0.879,0.0,-0.427,0.061,-2.664,-27.708,177.253,-12.113,-6.833,-25.98,31.59,-0.0289,-0.23859,0.02832,-0.97021,461,0.919,-0.096,0.353,-0.061,-0.061,0.0,-15.276,-68.275,-148.975,-29.527,-9.28,-7.173,31.49,0.14743,-0.56537,-0.04254,-0.81039,463
116,0.927,-0.137,0.405,0.0,-0.061,0.0,-18.583,-65.264,-175.759,-25.78,-9.467,-14.393,27.55,0.0563,0.5368,-0.11618,0.83371,468,0.596,0.029,0.808,0.0,0.0,0.0,2.153,-36.304,-117.806,-20.367,-6.787,-5.2,27.03,0.4953,-0.25766,-0.17609,-0.81067,464,0.466,-0.042,0.88,-0.122,-0.183,0.0,-2.664,-27.713,177.259,-12.113,-6.833,-25.98,31.59,-0.0289,-0.23859,0.02832,-0.97021,466,0.919,-0.096,0.353,0.0,-0.061,0.0,-15.276,-68.275,-148.975,-29.84,-9.327,-7.173,31.49,0.14743,-0.56537,-0.04254,-0.81039,472
117,0.928,-0.138,0.406,-0.061,-0.061,0.0,-18.589,-65.264,-175.759,-25.78,-9.467,-14.393,27.55,0.0563,0.5368,-0.11618,0.83371,469,0.596,0.027,0.808,0.061,-0.061,0.0,2.153,-36.304,-117.795,-20.367,-6.787,-5.2,27.03,0.4953,-0.25766,-0.17609,-0.81067,465,0.467,-0.041,0.88,-0.122,0.0,0.061,-2.664,-27.719,177.264,-12.113,-6.833,-25.98,31.59,-0.0289,-0.23859,0.02832,-0.97021,467,0.918,-0.095,0.352,0.0,0.0,0.0,-15.276,-68.275,-148.975,-29.84,-9.327,-7.173,31.49,0.14743,-0.56537,-0.04254,-0.81039,473
118,0.928,-0.138,0.404,0.0,-0.061,0.0,-18.594,-65.264,-175.759,-25.78,-9.467,-14.393,27.55,0.0563,0.5368,-0.11618,0.83371,474,0.596,0.028,0.808,0.0,0.0,0.0,2.153,-36.304,-117.79,-20.367,-6.787,-5.2,27.03,0.4953,-0.25766,-0.17609,-0.81067,476,0.467,-0.042,0.878,0.0,-0.061,0.183,-2.67,-27.719,177.275,-12.113,-6.833,-25.98,31.59,-0.0289,-0.23859,0.02832,-0.97021,470,0.918,-0.095,0.352,0.0,0.0,0.0,-15.276,-68.275,-148.975,-29.84,-9.327,-7.173,31.49,0.14749,-0.56537,-0.04272,-0.81036,480
119,0.928,-0.137,0.405,0.122,0.0,0.0,-18.594,-65.264,-175.754,-25.78,-9.467,-14.393,27.55,0.0563,0.5368,-0.11618,0.83371,475,0.595,0.03,0.808,0.0,0.0,0.0,2.153,-36.304,-117.784,-20.367,-6.787,-5.2,27.03,0.4953,-0.25766,-0.17609,-0.81067,477,0.467,-0.043,0.878,0.0,0.0,0.061,-2.67,-27.719,177.281,-12.113,-6.833,-25.98,31.59,-0.0289,-0.23859,0.02832,-0.97021,471,0.918,-0.095,0.351,0.061,0.0,0.0,-15.271,-68.275,-148.975,-29.84,-9.327,-7.173,31.49,0.14749,-0.56537,-0.04272,-0.81036,481
120,0.928,-0.137,0.405,0.183,0.0,0.0,-18.589,-65.264,-175.754,-25.78,-9.467,-14.393,27.55,0.0563,0.5368,-0.11618,0.83371,482,0.595,0.031,0.807,0.0,-0.183,0.0,2.153,-36.304,-117.784,-20.48,-6.76,-6.307,27.03,0.4953,-0.25766,-0.17609,-0.81067,484,0.466,-0.042,0.879,-0.061,0.0,0.0,-2.675,-27.724,177.286,-12.113,-6.833,-25.98,31.59,-0.0289,-0.23859,0.02832,-0.97021,478,0.917,-0.094,0.352,0.061,0.0,0.0,-15.271,-68.275,-148.975,-29.84,-9.327,-7.173,31.49,0.14749,-0.56537,-0.04272,-0.81036,486
121,0.928,-0.136,0.403,0.122,0.0,0.0,-18.589,-65.264,-175.754,-25.78,-9.467,-14.393,27.55,0.0563,0.5368,-0.11618,0.83371,483,0.594,0.031,0.807,0.0,-0.122,0.0,2.153,-36.31,-117.784,-20.48,-6.76,-6.307,27.03,0.4953,-0.25766,-0.17609,-0.81067,485,0.466,-0.04,0.88,-0.061,0.183,0.0,-2.675,-27.724,177.292,-12.113,-6.833,-25.98,31.59,-0.0289,-0.23859,0.02832,-0.97021,479,0.917,-0.095,0.352,0.061,0.061,0.0,-15.266,-68.275,-148.975,-29.84,-9.327,-7.173,31.49,0.14749,-0.56537,-0.04272,-0.81036,487
122,0.927,-0.136,0.404,0.061,-0.122,0.0,-18.594,-65.264,-175.754,-25.78,-9.467,-14.393,27.55,0.0563,0.5368,-0.11618,0.83371,492,0.594,0.03,0.806,0.0,-0.061,0.0,2.153,-36.31,-117.795,-20.48,-6.76,-6.307,27.03,0.49573,-0.25751,-0.17621,-0.81039,488,0.466,-0.04,0.876,-0.061,0.244,0.0,-2.675,-27.719,177.297,-12.113,-6.833,-25.98,31.59,-0.0289,-0.23859,0.02832,-0.97021,490,0.917,-0.095,0.352,0.0,0.061,0.0,-15.266,-68.275,-148.98,-29.84,-9.327,-7.173,31.49,0.14749,-0.56537,-0.04272,-0.81036,494
123,0.926,-0.137,0.405,0.061,-0.061,0.0,-18.594,-65.27,-175.748,-25.78,-9.467,-14.393,27.55,0.0563,0.5368,-0.11618,0.83371,493,0.595,0.03,0.808,0.183,-0.183,0.0,2.153,-36.315,-117.812,-20.48,-6.76,-6.307,27.03,0.49573,-0.25751,-0.17621,-0.81039,489,0.465,-0.04,0.878,0.0,0.427,0.0,-2.675,-27.719,177.303,-12.113,-6.833,-25.98,31.59,-0.0289,-0.23859,0.02832,-0.97021,491,0.918,-0.096,0.352,0.0,0.122,0.0,-15.26,-68.275,-148.98,-29.84,-9.327,-7.173,31.49,0.14749,-0.56537,-0.04272,-0.81036,495
124,0.928,-0.137,0.405,0.061,0.0,0.0,-18.594,-65.27,-175.748,-25.78,-9.467,-14.393,27.55,0.0563,0.5368,-0.11618,0.83371,496,0.595,0.03,0.809,0.122,-0.305,0.0,2.153,-36.315,-117.828,-20.48,-6.76,-6.307,27.03,0.49573,-0.25751,-0.17621,-0.81039,500,0.466,-0.04,0.881,0.183,0.488,0.0,-2.675,-27.708,177.303,-12.113,-6.833,-25.98,31.59,-0.0289,-0.23859,0.02832,-0.97021,498,0.918,-0.096,0.354,0.0,0.122,0.0,-15.26,-68.269,-148.986,-29.84,-9.327,-7.173,31.49,0.14749,-0.56537,-0.04272,-0.81036,502
125,0.928,-0.137,0.405,0.122,0.0,0.0,-18.594,-65.264,-175.748,-25.78,-9.467,-14.393,27.55,0.0563,0.5368,-0.11618,0.83371,497,0.595,0.028,0.808,0.061,-0.366,0.0,2.159,-36.326,-117.845,-20.48,-6.76,-6.307,27.03,0.49573,-0.25751,-0.17621,-0.81039,501,0.465,-0.041,0.88,0.244,0.549,0.0,-2.67,-27.702,177.308,-12.113,-6.833,-25.98,31.59,-0.0289,-0.23859,0.02832,-0.97021,499,0.918,-0.095,0.354,-0.061,0.122,0.0,-15.255,-68.269,-148.986,-29.84,-9.327,-7.173,31.49,0.14749,-0.56537,-0.04272,-0.81036,503
126,0.928,-0.137,0.407,0.122,0.0,0.0,-18.594,-65.264,-175.748,-25.78,-9.467,-14.393,27.55,0.0563,0.5368,-0.11618,0.83371,506,0.595,0.028,0.809,0.0,-0.061,0.0,2.159,-36.332,-117.872,-20.48,-6.76,-6.307,27.03,0.49573,-0.25751,-0.17621,-0.81039,504,0.465,-0.043,0.88,0.122,0.488,0.0,-2.67,-27.691,177.314,-12.113,-6.833,-25.98,31.59,-0.0289,-0.23859,0.02832,-0.97021,508,0.917,-0.096,0.353,0.0,0.183,0.0,-15.255,-68.269,-148.991,-29.84,-9.327,-7.173,31.49,0.14749,-0.56537,-0.04272,-0.81036,510
127,0.926,-0.137,0.407,0.122,0.0,0.0,-18.589,-65.264,-175.748,-25.78,-9.467,-14.393,27.55,0.0563,0.5368,-0.11618,0.83371,507,0.591,0.03,0.808,0.0,-0.061,0.0,2.159,-36.332,-117.894,-20.48,-6.76,-6.307,27.03,0.49573,-0.25751,-0.17621,-0.81039,505,0.465,-0.043,0.879,-0.061,0.549,0.0,-2.664,-27.686,177.319,-12.113,-6.833,-25.98,31.59,-0.0289,-0.23859,0.02832,-0.97021,509,0.915,-0.098,0.354,0.0,0.244,0.0,-15.249,-68.264,-148.991,-29.84,-9.327,-7.173,31.49,0.14749,-0.56537,-0.04272,-0.81036,511
128,0.924,-0.14,0.407,0.122,0.183,0.0,-18.589,-65.264,-175.748,-25.92,-9.407,-14.333,27.55,0.0563,0.5368,-0.11618,0.83371,516,0.594,0.027,0.807,0.0,0.061,0.0,2.153,-36.332,-117.911,-20.48,-6.76,-6.307,27.03,0.49573,-0.25751,-0.17621,-0.81039,514,0.461,-0.041,0.88,0.0,0.549,0.0,-2.67,-27.675,177.319,-11.9,-7.027,-25.807,31.59,-0.0289,-0.23859,0.02832,-0.97021,512,0.917,-0.098,0.353,-0.061,0.366,0.0,-15.249,-68.258,-148.997,-29.84,-9.327,-7.173,31.49,0.14749,-0.56537,-0.04272,-0.81036,520
129,0.927,-0.139,0.406,0.061,0.244,0.0,-18.589,-65.259,-175.754,-25.92,-9.407,-14.333,27.55,0.0563,0.5368,-0.11618,0.83371,517,0.595,0.028,0.809,-0.183,0.61,0.0,2.153,-36.326,-117.916,-20.48,-6.76,-6.307,27.03,0.49573,-0.25751,-0.17621,-0.81039,515,0.463,-0.043,0.876,0.0,0.488,0.0,-2.67,-27.669,177.325,-11.9,-7.027,-25.807,31.59,-0.0289,-0.23859,0.02832,-0.97021,513,0.918,-0.097,0.357,-0.122,0.305,0.0,-15.244,-68.253,-149.002,-29.84,-9.327,-7.173,31.49,0.14749,-0.56537,-0.04272,-0.81036,521
130,0.927,-0.137,0.408,0.183,0.0,0.0,-18.583,-65.253,-175.754,-25.92,-9.407,-14.333,27.55,0.05621,0.53674,-0.11618,0.83374,522,0.593,0.03,0.811,0.122,0.488,0.0,2.148,-36.315,-117.922,-20.48,-6.76,-6.307,27.03,0.49573,-0.25751,-0.17621,-0.81039,524,0.465,-0.044,0.877,-0.183,0.671,0.0,-2.67,-27.658,177.33,-11.9,-7.027,-25.807,31.59,-0.0289,-0.23859,0.02832,-0.97021,518,0.917,-0.095,0.354,-0.061,0.183,0.0,-15.244,-68.247,-149.008,-29.507,-9.32,-7.087,31.49,0.14749,-0.56537,-0.04272,-0.81036,526
131,0.927,-0.136,0.404,0.366,0.0,0.0,-18.583,-65.253,-175.754,-25.92,-9.407,-14.333,27.55,0.05621,0.53674,-0.11618,0.83374,523,0.593,0.03,0.813,0.122,0.0,0.0,2.153,-36.31,-117.927,-20.48,-6.76,-6.307,27.03,0.49573,-0.25751,-0.17621,-0.81039,525,0.462,-0.04,0.885,0.122,0.61,0.0,-2.67,-27.647,177.33,-11.9,-7.027,-25.807,31.59,-0.0289,-0.23859,0.02832,-0.97021,519,0.917,-0.095,0.352,-0.183,0.122,0.0,-15.244,-68.242,-149.013,-29.507,-9.32,-7.087,31.49,0.14749,-0.56537,-0.04272,-0.81036,527
132,0.928,-0.136,0.405,0.244,0.061,0.0,-18.578,-65.253,-175.754,-25.92,-9.407,-14.333,27.55,0.05621,0.53674,-0.11618,0.83374,530,0.594,0.028,0.809,0.0,-0.305,0.0,2.153,-36.31,-117.927,-20.48,-6.76,-6.307,27.03,0.49573,-0.25751,-0.17621,-0.81039,528,0.463,-0.041,0.887,0.305,0.488,0.305,-2.67,-27.636,177.336,-11.9,-7.027,-25.807,31.59,-0.02814,-0.23831,0.0282,-0.97031,536,0.918,-0.095,0.354,-0.366,0.0,0.0,-15.249,-68.242,-149.013,-29.507,-9.32,-7.087,31.49,0.14749,-0.56537,-0.04272,-0.81036,532
133,0.927,-0.136,0.405,0.061,0.0,0.0,-18.572,-65.248,-175.754,-25.92,-9.407,-14.333,27.55,0.05621,0.53674,-0.11618,0.83374,531,0.591,0.029,0.809,0.061,-0.366,0.0,2.153,-36.315,-117.944,-20.48,-6.76,-6.307,27.03,0.49573,-0.25751,-0.17621,-0.81039,529,0.463,-0.044,0.883,0.061,0.488,0.061,-2.67,-27.631,177.347,-11.9,-7.027,-25.807,31.59,-0.02814,-0.23831,0.0282,-0.97031,537,0.916,-0.095,0.354,-0.183,0.0,0.0,-15.255,-68.242,-149.013,-29.507,-9.32,-7.087,31.49,0.14749,-0.56537,-0.04272,-0.81036,533
134,0.924,-0.136,0.406,0.0,-0.122,0.0,-18.572,-65.248,-175.754,-25.92,-9.407,-14.333,27.55,0.05621,0.53674,-0.11618,0.83374,534,0.591,0.031,0.81,0.0,-0.366,0.0,2.153,-36.321,-117.955,-20.48,-6.76,-6.307,27.03,0.49573,-0.25751,-0.17621,-0.81039,538,0.46,-0.041,0.88,0.061,0.305,0.061,-2.67,-27.62,177.352,-11.9,-7.027,-25.807,31.59,-0.02814,-0.23831,0.0282,-0.97031,540,0.915,-0.096,0.354,-0.183,0.0,0.0,-15.255,-68.242,-149.013,-29.507,-9.32,-7.087,31.49,0.1474,-0.56509,-0.0426,-0.81055,542
135,0.925,-0.137,0.405,0.122,-0.122,0.0,-18.578,-65.253,-175.748,-25.92,-9.407,-14.333,27.55,0.05621,0.53674,-0.11618,0.83374,535,0.594,0.029,0.807,0.061,-0.122,0.0,2.153,-36.326,-117.966,-20.48,-6.76,-6.307,27.03,0.49573,-0.25751,-0.17621,-0.81039,539,0.46,-0.04,0.881,0.0,0.244,0.061,-2.67,-27.62,177.358,-11.9,-7.027,-25.807,31.59,-0.02814,-0.23831,0.0282,-0.97031,541,0.916,-0.096,0.353,-0.122,-0.061,0.0,-15.255,-68.242,-149.013,-29.507,-9.32,-7.087,31.49,0.1474,-0.56509,-0.0426,-0.81055,543
136,0.925,-0.137,0.407,0.122,-0.122,0.0,-18.578,-65.253,-175.748,-25.92,-9.407,-14.333,27.55,0.05621,0.53674,-0.11618,0.83374,546,0.592,0.029,0.808,0.183,0.0,0.0,2.153,-36.326,-117.982,-20.52,-7.453,-5.98,27.03,0.49573,-0.25751,-0.17621,-0.81039,544,0.462,-0.04,0.879,0.0,0.305,0.122,-2.67,-27.614,177.363,-11.9,-7.027,-25.807,31.59,-0.02814,-0.23831,0.0282,-0.97031,548,0.917,-0.098,0.355,-0.061,0.0,0.0,-15.26,-68.242,-149.013,-29.507,-9.32,-7.087,31.49,0.1474,-0.56509,-0.0426,-0.81055,552
137,0.927,-0.137,0.409,0.183,-0.122,0.0,-18.578,-65.253,-175.743,-25.92,-9.407,-14.333,27.55,0.05621,0.53674,-0.11618,0.83374,547,0.593,0.028,0.81,0.061,-0.061,0.0,2.153,-36.326,-117.993,-20.52,-7.453,-5.98,27.03,0.49573,-0.25751,-0.17621,-0.81039,545,0.46,-0.041,0.88,0.122,0.122,0.305,-2.67,-27.609,177.369,-11.9,-7.027,-25.807,31.59,-0.02814,-0.23831,0.0282,-0.97031,549,0.918,-0.097,0.356,-0.183,0.0,0.0,-15.26,-68.242,-149.013,-29.507,-9.32,-7.087,31.49,0.1474,-0.56509,-0.0426,-0.81055,553
138,0.929,-0.136,0.408,0.244,-0.061,0.0,-18.572,-65.253,-175.743,-25.92,-9.407,-14.333,27.55,0.05621,0.53674,-0.11618,0.83374,556,0.594,0.028,0.811,0.061,-0.122,0.0,2.153,-36.326,-118.015,-20.52,-7.453,-5.98,27.03,0.49573,-0.25751,-0.17621,-0.81039,554,0.46,-0.043,0.882,0.0,0.122,0.244,-2.67,-27.609,177.38,-11.9,-7.027,-25.807,31.59,-0.02814,-0.23831,0.0282,-0.97031,550,0.919,-0.096,0.356,-0.061,0.0,0.0,-15.26,-68.242,-149.019,-29.507,-9.32,-7.087,31.49,0.1474,-0.56509,-0.0426,-0.81055,560
139,0.928,-0.136,0.409,0.244,-0.122,0.0,-18.572,-65.253,-175.743,-25.92,-9.407,-14.333,27.55,0.05621,0.53674,-0.11618,0.83374,557,0.594,0.029,0.809,0.183,-0.244,0.0,2.159,-36.326,-118.021,-20.52,-7.453,-5.98,27.03,0.49573,-0.25751,-0.17621,-0.81039,555,0.463,-0.042,0.883,0.0,0.183,0.122,-2.675,-27.603,177.391,-11.9,-7.027,-25.807,31.59,-0.02814,-0.23831,0.0282,-0.97031,551,0.917,-0.096,0.355,-0.061,0.0,0.0,-15.26,-68.236,-149.019,-29.507,-9.32,-7.087,31.49,0.1474,-0.56509,-0.0426,-0.81055,561
140,0.926,-0.137,0.407,0.244,-0.061,0.0,-18.567,-65.259,-175.737,-25.92,-9.407,-14.333,27.55,0.05621,0.53674,-0.11618,0.83374,562,0.593,0.029,0.809,0.244,-0.122,0.0,2.159,-36.332,-118.032,-20.52,-7.453,-5.98,27.03,0.49414,-0.25797,-0.17581,-0.81134,566,0.463,-0.042,0.882,0.183,0.183,0.122,-2.675,-27.603,177.396,-11.9,-7.027,-25.807,31.59,-0.02814,-0.23831,0.0282,-0.97031,558,0.916,-0.096,0.354,-0.061,0.061,0.0,-15.26,-68.236,-149.019,-29.507,-9.32,-7.087,31.49,0.1474,-0.56509,-0.0426,-0.81055,564
141,0.926,-0.137,0.407,0.183,0.0,0.0,-18.561,-65.253,-175.737,-25.92,-9.407,-14.333,27.55,0.05621,0.53674,-0.11618,0.83374,563,0.593,0.028,0.808,0.122,0.0,0.0,2.164,-36.332,-118.043,-20.52,-7.453,-5.98,27.03,0.49414,-0.25797,-0.17581,-0.81134,567,0.461,-0.042,0.88,0.183,0.122,0.122,-2.675,-27.598,177.402,-11.9,-7.027,-25.807,31.59,-0.02814,-0.23831,0.0282,-0.97031,559,0.916,-0.097,0.353,-0.122,0.183,0.0,-15.26,-68.231,-149.019,-29.507,-9.32,-7.087,31.49,0.1474,-0.56509,-0.0426,-0.81055,565
142,0.926,-0.137,0.406,0.122,0.061,0.0,-18.561,-65.253,-175.737,-25.92,-9.407,-14.333,27.55,0.05621,0.53674,-0.11618,0.83374,572,0.593,0.03,0.808,0.0,0.061,0.0,2.164,-36.326,-118.043,-20.52,-7.453,-5.98,27.03,0.49414,-0.25797,-0.17581,-0.81134,570,0.462,-0.042,0.879,0.061,0.183,0.0,-2.67,-27.598,177.407,-11.9,-7.027,-25.807,31.59,-0.02814,-0.23831,0.0282,-0.97031,568,0.917,-0.096,0.354,-0.122,0.183,0.0,-15.26,-68.231,-149.024,-29.507,-9.32,-7.087,31.49,0.1474,-0.56509,-0.0426,-0.81055,574
143,0.927,-0.136,0.406,0.183,0.0,0.0,-18.556,-65.253,-175.737,-25.92,-9.407,-14.333,27.55,0.05621,0.53674,-0.11618,0.83374,573,0.596,0.032,0.808,0.122,-0.061,0.0,2.164,-36.326,-118.043,-20.52,-7.453,-5.98,27.03,0.49414,-0.25797,-0.17581,-0.81134,571,0.462,-0.041,0.882,0.061,0.244,0.0,-2.67,-27.592,177.413,-11.9,-7.027,-25.807,31.59,-0.02814,-0.23831,0.0282,-0.97031,569,0.918,-0.097,0.354,0.0,0.183,0.0,-15.255,-68.225,-149.03,-29.507,-9.32,-7.087,31.49,0.1474,-0.56509,-0.0426,-0.81055,575
144,0.928,-0.136,0.405,0.183,0.0,0.0,-18.556,-65.248,-175.737,-25.893,-9.433,-14.8,27.55,0.05621,0.53674,-0.11618,0.83374,576,0.595,0.03,0.808,0.0,0.061,0.0,2.164,-36.326,-118.048,-20.52,-7.453,-5.98,27.03,0.49414,-0.25797,-0.17581,-0.81134,580,0.464,-0.037,0.881,0.122,0.244,0.061,-2.67,-27.587,177.413,-11.9,-7.027,-25.807,31.59,-0.02814,-0.23831,0.0282,-0.97031,578,0.918,-0.096,0.353,-0.183,0.183,0.0,-15.255,-68.22,-149.03,-29.507,-9.32,-7.087,31.49,0.1474,-0.56509,-0.0426,-0.81055,584
145,0.928,-0.137,0.405,0.183,0.0,0.0,-18.55,-65.248,-175.737,-25.893,-9.433,-14.8,27.55,0.05621,0.53674,-0.11618,0.83374,577,0.596,0.026,0.81,0.0,-0.122,0.0,2.164,-36.326,-118.048,-20.52,-7.453,-5.98,27.03,0.49414,-0.25797,-0.17581,-0.81134,581,0.463,-0.041,0.882,0.0,0.244,0.183,-2.67,-27.587,177.418,-11.9,-7.027,-25.807,31.59,-0.02814,-0.23831,0.0282,-0.97031,579,0.918,-0.096,0.354,-0.061,0.122,0.0,-15.255,-68.22,-149.035,-29.507,-9.32,-7.087,31.49,0.1474,-0.56509,-0.0426,-0.81055,585
146,0.928,-0.136,0.405,0.244,0.0,0.0,-18.545,-65.248,-175.737,-25.893,-9.433,-14.8,27.55,0.05621,0.53674,-0.11618,0.83374,588,0.595,0.029,0.81,-0.183,-0.244,0.0,2.159,-36.332,-118.048,-20.52,-7.453,-5.98,27.03,0.49414,-0.25797,-0.17581,-0.81134,586,0.463,-0.045,0.885,-0.061,0.183,0.122,-2.67,-27.581,177.429,-12.08,-6.927,-25.767,31.59,-0.02814,-0.23831,0.0282,-0.97031,582,0.918,-0.096,0.353,-0.061,0.061,0.0,-15.255,-68.214,-149.035,-29.673,-9.22,-7.2,31.49,0.1474,-0.56509,-0.0426,-0.81055,592
147,0.926,-0.136,0.405,0.122,0.0,0.0,-18.545,-65.248,-175.737,-25.893,-9.433,-14.8,27.55,0.05621,0.53674,-0.11618,0.83374,589,0.595,0.029,0.807,0.0,-0.366,0.0,2.159,-36.337,-118.048,-20.52,-7.453,-5.98,27.03,0.49414,-0.25797,-0.17581,-0.81134,587,0.463,-0.043,0.884,-0.305,0.244,0.0,-2.675,-27.576,177.435,-12.08,-6.927,-25.767,31.59,-0.02814,-0.23831,0.0282,-0.97031,583,0.917,-0.096,0.354,0.0,0.0,0.0,-15.255,-68.214,-149.035,-29.673,-9.22,-7.2,31.49,0.1474,-0.56509,-0.0426,-0.81055,593
148,0.927,-0.137,0.406,0.122,0.0,0.0,-18.539,-65.248,-175.732,-25.893,-9.433,-14.8,27.55,0.05591,0.53674,-0.11581,0.83383,596,0.594,0.03,0.808,0.122,-0.183,0.0,2.159,-36.337,-118.048,-20.52,-7.453,-5.98,27.03,0.49414,-0.25797,-0.17581,-0.81134,594,0.462,-0.041,0.88,0.0,0.122,0.0,-2.681,-27.576,177.435,-12.08,-6.927,-25.767,31.59,-0.02814,-0.23831,0.0282,-0.97031,590,0.917,-0.097,0.355,-0.122,0.0,0.0,-15.255,-68.214,-149.035,-29.673,-9.22,-7.2,31.49,0.14725,-0.56494,-0.04239,-0.8107,598
149,0.927,-0.136,0.407,0.183,-0.061,0.0,-18.539,-65.248,-175.732,-25.893,-9.433,-14.8,27.55,0.05591,0.53674,-0.11581,0.83383,597,0.594,0.031,0.807,0.061,0.0,0.0,2.159,-36.343,-118.048,-20.52,-7.453,-5.98,27.03,0.49414,-0.25797,-0.17581,-0.81134,595,0.462,-0.041,0.879,0.061,0.061,0.061,-2.681,-27.57,177.44,-12.08,-6.927,-25.767,31.59,-0.02814,-0.23831,0.0282,-0.97031,591,0.917,-0.097,0.353,-0.122,0.061,0.0,-15.26,-68.214,-149.041,-29.673,-9.22,-7.2,31.49,0.14725,-0.56494,-0.04239,-0.8107,599
150,0.927,-0.136,0.405,0.183,0.0,0.0,-18.539,-65.248,-175.732,-25.893,-9.433,-14.8,27.55,0.05591,0.53674,-0.11581,0.83383,600,0.593,0.028,0.808,0.183,0.0,0.0,2.164,-36.343,-118.048,-20.52,-7.453,-5.98,27.03,0.49414,-0.25797,-0.17581,-0.81134,606,0.461,-0.039,0.879,0.122,0.061,0.122,-2.681,-27.57,177.446,-12.08,-6.927,-25.767,31.59,-0.02725,-0.23767,0.02805,-0.97052,602,0.917,-0.097,0.354,0.0,0.0,0.0,-15.26,-68.214,-149.041,-29.673,-9.22,-7.2,31.49,0.14725,-0.56494,-0.04239,-0.8107,604
151,0.927,-0.137,0.408,0.061,0.061,0.0,-18.534,-65.248,-175.732,-25.893,-9.433,-14.8,27.55,0.05591,0.53674,-0.11581,0.83383,601,0.594,0.028,0.811,0.122,-0.183,0.0,2.164,-36.343,-118.048,-20.52,-7.453,-5.98,27.03,0.49414,-0.25797,-0.17581,-0.81134,607,0.459,-0.043,0.882,0.305,0.0,0.061,-2.675,-27.57,177.451,-12.08,-6.927,-25.767,31.59,-0.02725,-0.23767,0.02805,-0.97052,603,0.917,-0.098,0.355,-0.061,0.0,0.0,-15.26,-68.214,-149.041,-29.673,-9.22,-7.2,31.49,0.14725,-0.56494,-0.04239,-0.8107,605
152,0.926,-0.138,0.409,0.061,0.122,0.0,-18.534,-65.242,-175.732,-25.893,-9.433,-14.8,27.55,0.05591,0.53674,-0.11581,0.83383,610,0.594,0.029,0.809,0.061,-0.183,0.0,2.164,-36.343,-118.054,-20.547,-7.153,-6.387,27.03,0.49414,-0.25797,-0.17581,-0.81134,612,0.461,-0.042,0.884,0.122,0.061,0.0,-2.675,-27.576,177.457,-12.08,-6.927,-25.767,31.59,-0.02725,-0.23767,0.02805,-0.97052,608,0.917,-0.098,0.356,0.0,0.0,0.0,-15.26,-68.214,-149.041,-29.673,-9.22,-7.2,31.49,0.14725,-0.56494,-0.04239,-0.8107,614
153,0.927,-0.137,0.408,0.122,0.061,0.0,-18.528,-65.242,-175.732,-25.893,-9.433,-14.8,27.55,0.05591,0.53674,-0.11581,0.83383,611,0.593,0.029,0.808,0.122,-0.061,0.0,2.164,-36.348,-118.054,-20.547,-7.153,-6.387,27.03,0.49414,-0.25797,-0.17581,-0.81134,613,0.461,-0.041,0.882,0.0,0.244,0.061,-2.67,-27.57,177.457,-12.08,-6.927,-25.767,31.59,-0.02725,-0.23767,0.02805,-0.97052,609,0.916,-0.097,0.356,0.0,0.0,0.0,-15.26,-68.214,-149.041,-29.673,-9.22,-7.2,31.49,0.14725,-0.56494,-0.04239,-0.8107,615
154,0.925,-0.136,0.408,0.183,0.0,0.0,-18.528,-65.237,-175.732,-25.893,-9.433,-14.8,27.55,0.05591,0.53674,-0.11581,0.83383,618,0.592,0.029,0.809,0.061,0.061,0.0,2.164,-36.348,-118.054,-20.547,-7.153,-6.387,27.03,0.49414,-0.25797,-0.17581,-0.81134,620,0.46,-0.041,0.88,0.0,0.122,0.183,-2.675,-27.57,177.462,-12.08,-6.927,-25.767,31.59,-0.02725,-0.23767,0.02805,-0.97052,616,0.916,-0.096,0.356,0.0,0.061,0.0,-15.26,-68.209,-149.041,-29.673,-9.22,-7.2,31.49,0.14725,-0.56494,-0.04239,-0.8107,624
155,0.927,-0.136,0.407,0.244,0.0,0.0,-18.523,-65.237,-175.732,-25.893,-9.433,-14.8,27.55,0.05591,0.53674,-0.11581,0.83383,619,0.594,0.03,0.809,0.061,0.0,0.0,2.17,-36.343,-118.054,-20.547,-7.153,-6.387,27.03,0.49414,-0.25797,-0.17581,-0.81134,621,0.46,-0.042,0.881,0.0,0.244,0.183,-2.675,-27.565,177.468,-12.08,-6.927,-25.767,31.59,-0.02725,-0.23767,0.02805,-0.97052,617,0.917,-0.096,0.354,0.061,0.183,0.0,-15.255,-68.203,-149.046,-29.673,-9.22,-7.2,31.49,0.14725,-0.56494,-0.04239,-0.8107,625
156,0.926,-0.135,0.406,0.244,0.061,0.0,-18.523,-65.237,-175.732,-25.893,-9.433,-14.8,27.55,0.05591,0.53674,-0.11581,0.83383,628,0.595,0.03,0.807,0.122,0.0,0.0,2.17,-36.343,-118.054,-20.547,-7.153,-6.387,27.03,0.4939,-0.25809,-0.17587,-0.81143,626,0.461,-0.042,0.882,0.0,0.244,0.183,-2.675,-27.559,177.479,-12.08,-6.927,-25.767,31.59,-0.02725,-0.23767,0.02805,-0.97052,622,0.917,-0.096,0.354,0.061,0.183,0.0,-15.255,-68.203,-149.046,-29.673,-9.22,-7.2,31.49,0.14725,-0.56494,-0.04239,-0.8107,630
157,0.927,-0.137,0.407,0.122,0.122,0.0,-18.517,-65.231,-175.732,-25.893,-9.433,-14.8,27.55,0.05591,0.53674,-0.11581,0.83383,629,0.595,0.03,0.808,0.244,0.0,0.0,2.17,-36.343,-118.054,-20.547,-7.153,-6.387,27.03,0.4939,-0.25809,-0.17587,-0.81143,627,0.462,-0.041,0.88,0.122,0.305,0.061,-2.681,-27.554,177.484,-12.08,-6.927,-25.767,31.59,-0.02725,-0.23767,0.02805,-0.97052,623,0.918,-0.098,0.355,0.0,0.183,0.0,-15.249,-68.198,-149.052,-29.673,-9.22,-7.2,31.49,0.14725,-0.56494,-0.04239,-0.8107,631
158,0.928,-0.136,0.407,0.061,0.0,0.0,-18.512,-65.231,-175.737,-25.893,-9.433,-14.8,27.55,0.05591,0.53674,-0.11581,0.83383,636,0.594,0.029,0.81,0.122,0.061,0.0,2.175,-36.343,-118.054,-20.547,-7.153,-6.387,27.03,0.4939,-0.25809,-0.17587,-0.81143,634,0.461,-0.042,0.881,0.244,0.244,0.183,-2.675,-27.554,177.49,-12.08,-6.927,-25.767,31.59,-0.02725,-0.23767,0.02805,-0.97052,632,0.917,-0.098,0.355,-0.183,0.122,0.0,-15.255,-68.192,-149.052,-29.673,-9.22,-7.2,31.49,0.14725,-0.56494,-0.04239,-0.8107,638
159,0.927,-0.137,0.407,0.0,0.0,0.0,-18.512,-65.231,-175.737,-25.893,-9.433,-14.8,27.55,0.05591,0.53674,-0.11581,0.83383,637,0.594,0.029,0.809,0.0,0.122,0.0,2.175,-36.337,-118.054,-20.547,-7.153,-6.387,27.03,0.4939,-0.25809,-0.17587,-0.81143,635,0.462,-0.042,0.882,0.122,0.183,0.122,-2.675,-27.548,177.495,-12.08,-6.927,-25.767,31.59,-0.02725,-0.23767,0.02805,-0.97052,633,0.917,-0.097,0.354,-0.183,0.122,0.0,-15.255,-68.192,-149.057,-29.673,-9.22,-7.2,31.49,0.14725,-0.56494,-0.04239,-0.8107,639
160,0.926,-0.136,0.405,0.122,0.0,0.0,-18.512,-65.231,-175.732,-25.82,-9.547,-15.107,27.55,0.05591,0.53674,-0.11581,0.83383,644,0.593,0.029,0.81,-0.061,0.061,0.0,2.17,-36.337,-118.054,-20.547,-7.153,-6.387,27.03,0.4939,-0.25809,-0.17587,-0.81143,640,0.461,-0.042,0.883,-0.061,0.183,0.061,-2.675,-27.543,177.501,-12.08,-6.927,-25.767,31.59,-0.02725,-0.23767,0.02805,-0.97052,642,0.916,-0.096,0.354,0.0,0.122,0.0,-15.255,-68.187,-149.057,-29.927,-9.573,-7.193,31.49,0.14725,-0.56494,-0.04239,-0.8107,646
161,0.925,-0.136,0.407,0.183,0.0,0.0,-18.506,-65.226,-175.732,-25.82,-9.547,-15.107,27.55,0.05591,0.53674,-0.11581,0.83383,645,0.592,0.03,0.81,-0.061,0.0,0.0,2.17,-36.337,-118.054,-20.547,-7.153,-6.387,27.03,0.4939,-0.25809,-0.17587,-0.81143,641,0.459,-0.042,0.883,-0.061,0.122,0.0,-2.675,-27.543,177.506,-12.08,-6.927,-25.767,31.59,-0.02725,-0.23767,0.02805,-0.97052,643,0.916,-0.097,0.355,0.0,0.0,0.0,-15.255,-68.187,-149.057,-29.927,-9.573,-7.193,31.49,0.14725,-0.56494,-0.04239,-0.8107,647
162,0.925,-0.136,0.407,0.183,0.0,0.0,-18.506,-65.226,-175.732,-25.82,-9.547,-15.107,27.55,0.05591,0.53674,-0.11581,0.83383,650,0.593,0.029,0.81,-0.122,0.0,0.0,2.17,-36.332,-118.054,-20.547,-7.153,-6.387,27.03,0.4939,-0.25809,-0.17587,-0.81143,648,0.46,-0.041,0.883,-0.061,0.183,0.0,-2.681,-27.537,177.506,-12.08,-6.927,-25.767,31.59,-0.02725,-0.23767,0.02805,-0.97052,658,0.916,-0.098,0.355,-0.061,0.0,0.0,-15.255,-68.187,-149.057,-29.927,-9.573,-7.193,31.49,0.14725,-0.56494,-0.04239,-0.8107,652
163,0.927,-0.136,0.406,0.122,0.0,0.0,-18.501,-65.226,-175.732,-25.82,-9.547,-15.107,27.55,0.05591,0.53674,-0.11581,0.83383,651,0.594,0.028,0.808,-0.122,-0.061,0.0,2.164,-36.332,-118.054,-20.547,-7.153,-6.387,27.03,0.4939,-0.25809,-0.17587,-0.81143,649,0.46,-0.042,0.882,-0.122,0.305,0.0,-2.681,-27.537,177.506,-12.08,-6.927,-25.767,31.59,-0.02725,-0.23767,0.02805,-0.97052,659,0.917,-0.097,0.354,-0.244,0.0,0.0,-15.26,-68.187,-149.062,-29.927,-9.573,-7.193,31.49,0.14725,-0.56494,-0.04239,-0.8107,653
164,0.928,-0.137,0.406,0.0,0.0,0.0,-18.501,-65.226,-175.732,-25.82,-9.547,-15.107,27.55,0.05566,0.53662,-0.11554,0.83395,654,0.595,0.029,0.808,0.0,-0.061,0.0,2.164,-36.332,-118.054,-20.547,-7.153,-6.387,27.03,0.4939,-0.25809,-0.17587,-0.81143,656,0.461,-0.042,0.882,-0.061,0.244,0.0,-2.681,-27.532,177.512,-11.96,-7.033,-24.487,31.59,-0.02725,-0.23767,0.02805,-0.97052,666,0.918,-0.096,0.354,-0.122,0.061,0.0,-15.26,-68.181,-149.062,-29.927,-9.573,-7.193,31.49,0.14716,-0.56476,-0.04221,-0.81085,660
165,0.928,-0.136,0.408,0.0,0.0,0.0,-18.501,-65.226,-175.732,-25.82,-9.547,-15.107,27.55,0.05566,0.53662,-0.11554,0.83395,655,0.596,0.029,0.808,0.122,0.0,0.0,2.164,-36.332,-118.059,-20.547,-7.153,-6.387,27.03,0.4939,-0.25809,-0.17587,-0.81143,657,0.462,-0.042,0.881,0.061,0.244,0.0,-2.681,-27.526,177.512,-11.96,-7.033,-24.487,31.59,-0.02725,-0.23767,0.02805,-0.97052,667,0.918,-0.097,0.355,0.0,0.0,0.0,-15.26,-68.181,-149.062,-29.927,-9.573,-7.193,31.49,0.14716,-0.56476,-0.04221,-0.81085,661
166,0.926,-0.136,0.408,0.061,0.0,0.0,-18.501,-65.226,-175.732,-25.82,-9.547,-15.107,27.55,0.05566,0.53662,-0.11554,0.83395,664,0.592,0.029,0.809,0.366,0.0,0.0,2.164,-36.332,-118.059,-20.547,-7.153,-6.387,27.03,0.4939,-0.25809,-0.17587,-0.81143,662,0.462,-0.041,0.883,0.122,0.183,0.0,-2.681,-27.521,177.517,-11.96,-7.033,-24.487,31.59,-0.02725,-0.23767,0.02805,-0.97052,668,0.915,-0.098,0.355,0.183,0.122,0.0,-15.255,-68.181,-149.062,-29.927,-9.573,-7.193,31.49,0.14716,-0.56476,-0.04221,-0.81085,670
167,0.925,-0.136,0.408,0.244,0.061,0.0,-18.501,-65.22,-175.732,-25.82,-9.547,-15.107,27.55,0.05566,0.53662,-0.11554,0.83395,665,0.594,0.028,0.808,0.244,0.122,0.0,2.17,-36.332,-118.059,-20.547,-7.153,-6.387,27.03,0.4939,-0.25809,-0.17587,-0.81143,663,0.459,-0.041,0.883,0.427,0.061,0.0,-2.681,-27.521,177.517,-11.96,-7.033,-24.487,31.59,-0.02725,-0.23767,0.02805,-0.97052,669,0.917,-0.098,0.355,0.061,0.244,0.0,-15.255,-68.176,-149.068,-29.927,-9.573,-7.193,31.49,0.14716,-0.56476,-0.04221,-0.81085,671
168,0.928,-0.136,0.408,0.061,0.183,0.0,-18.495,-65.22,-175.732,-25.82,-9.547,-15.107,27.55,0.05566,0.53662,-0.11554,0.83395,672,0.594,0.03,0.809,0.061,0.671,0.0,2.175,-36.321,-118.059,-20.547,-7.153,-6.387,27.03,0.4939,-0.25809,-0.17587,-0.81143,674,0.462,-0.043,0.877,0.305,0.183,0.0,-2.67,-27.515,177.523,-11.96,-7.033,-24.487,31.59,-0.02725,-0.23767,0.02805,-0.97052,676,0.917,-0.096,0.358,-0.061,0.183,0.0,-15.255,-68.17,-149.073,-29.927,-9.573,-7.193,31.49,0.14716,-0.56476,-0.04221,-0.81085,678
169,0.927,-0.135,0.408,0.122,0.061,0.0,-18.49,-65.215,-175.737,-25.82,-9.547,-15.107,27.55,0.05566,0.53662,-0.11554,0.83395,673,0.594,0.032,0.811,0.244,0.305,0.0,2.175,-36.31,-118.059,-20.547,-7.153,-6.387,27.03,0.4939,-0.25809,-0.17587,-0.81143,675,0.46,-0.041,0.881,0.305,0.671,0.0,-2.664,-27.515,177.523,-11.96,-7.033,-24.487,31.59,-0.02725,-0.23767,0.02805,-0.97052,677,0.917,-0.097,0.355,0.122,0.122,0.0,-15.249,-68.165,-149.073,-29.927,-9.573,-7.193,31.49,0.14716,-0.56476,-0.04221,-0.81085,679
170,0.927,-0.137,0.405,0.122,0.122,0.0,-18.49,-65.215,-175.737,-25.82,-9.547,-15.107,27.55,0.05566,0.53662,-0.11554,0.83395,682,0.594,0.028,0.812,0.122,0.0,0.0,2.175,-36.31,-118.059,-20.807,-7.12,-5.553,27.03,0.4939,-0.25809,-0.17587,-0.81143,680,0.461,-0.038,0.888,0.427,0.366,0.0,-2.659,-27.504,177.528,-11.96,-7.033,-24.487,31.59,-0.02646,-0.23709,0.02768,-0.97067,688,0.917,-0.098,0.354,-0.122,0.0,0.0,-15.249,-68.165,-149.073,-29.927,-9.573,-7.193,31.49,0.14716,-0.56476,-0.04221,-0.81085,684
171,0.928,-0.137,0.406,0.061,0.122,0.0,-18.484,-65.209,-175.737,-25.82,-9.547,-15.107,27.55,0.05566,0.53662,-0.11554,0.83395,683,0.593,0.027,0.809,0.0,-0.305,0.0,2.175,-36.31,-118.059,-20.807,-7.12,-5.553,27.03,0.4939,-0.25809,-0.17587,-0.81143,681,0.46,-0.045,0.886,0.244,0.244,0.0,-2.653,-27.493,177.528,-11.96,-7.033,-24.487,31.59,-0.02646,-0.23709,0.02768,-0.97067,689,0.917,-0.096,0.355,-0.305,-0.061,0.0,-15.26,-68.165,-149.073,-29.927,-9.573,-7.193,31.49,0.14716,-0.56476,-0.04221,-0.81085,685
172,0.926,-0.135,0.406,0.061,-0.061,0.0,-18.484,-65.209,-175.737,-25.82,-9.547,-15.107,27.55,0.05566,0.53662,-0.11554,0.83395,686,0.591,0.031,0.811,-0.061,-0.427,0.0,2.175,-36.315,-118.059,-20.807,-7.12,-5.553,27.03,0.4939,-0.25809,-0.17587,-0.81143,690,0.459,-0.043,0.882,0.0,0.122,0.0,-2.648,-27.493,177.528,-11.96,-7.033,-24.487,31.59,-0.02646,-0.23709,0.02768,-0.97067,692,0.916,-0.096,0.354,-0.061,-0.061,0.0,-15.26,-68.165,-149.073,-29.927,-9.573,-7.193,31.49,0.14716,-0.56476,-0.04221,-0.81085,694
173,0.924,-0.136,0.405,0.0,0.0,0.0,-18.484,-65.209,-175.737,-25.82,-9.547,-15.107,27.55,0.05566,0.53662,-0.11554,0.83395,687,0.593,0.031,0.81,0.0,-0.549,0.0,2.175,-36.326,-118.059,-20.807,-7.12,-5.553,27.03,0.4939,-0.25809,-0.17587,-0.81143,691,0.458,-0.04,0.885,-0.061,0.0,0.0,-2.648,-27.493,177.534,-11.96,-7.033,-24.487,31.59,-0.02646,-0.23709,0.02768,-0.97067,693,0.916,-0.096,0.354,-0.183,-0.244,0.0,-15.266,-68.17,-149.068,-29.927,-9.573,-7.193,31.49,0.14716,-0.56476,-0.04221,-0.81085,695
174,0.926,-0.135,0.406,0.0,-0.061,0.0,-18.484,-65.209,-175.737,-25.82,-9.547,-15.107,27.55,0.05566,0.53662,-0.11554,0.83395,698,0.593,0.03,0.806,0.061,-0.427,0.0,2.175,-36.332,-118.059,-20.807,-7.12,-5.553,27.03,0.4939,-0.25797,-0.17584,-0.81149,696,0.459,-0.04,0.883,0.122,0.0,0.0,-2.653,-27.493,177.534,-11.96,-7.033,-24.487,31.59,-0.02646,-0.23709,0.02768,-0.97067,706,0.917,-0.097,0.356,-0.061,-0.183,0.0,-15.271,-68.176,-149.068,-29.927,-9.573,-7.193,31.49,0.14716,-0.56476,-0.04221,-0.81085,700
175,0.927,-0.136,0.408,0.0,-0.122,0.0,-18.484,-65.209,-175.732,-25.82,-9.547,-15.107,27.55,0.05566,0.53662,-0.11554,0.83395,699,0.593,0.031,0.808,0.183,-0.488,0.0,2.175,-36.343,-118.059,-20.807,-7.12,-5.553,27.03,0.4939,-0.25797,-0.17584,-0.81149,697,0.459,-0.04,0.88,0.183,0.0,0.0,-2.648,-27.493,177.539,-11.96,-7.033,-24.487,31.59,-0.02646,-0.23709,0.02768,-0.97067,707,0.918,-0.097,0.356,0.0,-0.122,0.0,-15.276,-68.176,-149.068,-29.927,-9.573,-7.193,31.49,0.14716,-0.56476,-0.04221,-0.81085,701
176,0.928,-0.137,0.41,0.0,-0.122,0.0,-18.49,-65.209,-175.732,-25.82,-9.547,-15.107,27.55,0.05566,0.53662,-0.11554,0.83395,702,0.595,0.03,0.808,0.0,-0.305,0.0,2.181,-36.348,-118.065,-20.807,-7.12,-5.553,27.03,0.4939,-0.25797,-0.17584,-0.81149,704,0.459,-0.042,0.881,0.305,0.0,0.0,-2.642,-27.493,177.539,-11.96,-7.033,-24.487,31.59,-0.02646,-0.23709,0.02768,-0.97067,712,0.918,-0.098,0.355,0.122,-0.061,0.0,-15.276,-68.176,-149.062,-29.36,-9.167,-7.647,31.49,0.14716,-0.56476,-0.04221,-0.81085,708
177,0.927,-0.136,0.408,0.183,0.0,0.0,-18.49,-65.209,-175.732,-25.82,-9.547,-15.107,27.55,0.05566,0.53662,-0.11554,0.83395,703,0.595,0.03,0.809,0.183,-0.244,0.0,2.181,-36.354,-118.065,-20.807,-7.12,-5.553,27.03,0.4939,-0.25797,-0.17584,-0.81149,705,0.461,-0.041,0.881,0.122,0.0,0.0,-2.642,-27.493,177.545,-11.96,-7.033,-24.487,31.59,-0.02646,-0.23709,0.02768,-0.97067,713,0.917,-0.098,0.357,0.122,-0.061,0.0,-15.271,-68.176,-149.062,-29.36,-9.167,-7.647,31.49,0.14716,-0.56476,-0.04221,-0.81085,709
178,0.927,-0.137,0.41,0.183,0.061,0.0,-18.484,-65.209,-175.732,-25.78,-9.433,-15.093,27.55,0.05566,0.53662,-0.11554,0.83395,718,0.595,0.03,0.809,0.244,-0.183,0.0,2.186,-36.354,-118.065,-20.807,-7.12,-5.553,27.03,0.4939,-0.25797,-0.17584,-0.81149,710,0.461,-0.038,0.882,0.305,0.0,0.0,-2.637,-27.493,177.545,-11.96,-7.033,-24.487,31.59,-0.02646,-0.23709,0.02768,-0.97067,716,0.916,-0.097,0.356,0.122,-0.061,0.0,-15.271,-68.176,-149.062,-29.36,-9.167,-7.647,31.49,0.14709,-0.56473,-0.04205,-0.81091,714
179,0.926,-0.136,0.409,0.122,0.0,0.0,-18.479,-65.209,-175.732,-25.78,-9.433,-15.093,27.55,0.05566,0.53662,-0.11554,0.83395,719,0.594,0.029,0.808,0.122,-0.122,0.0,2.186,-36.359,-118.065,-20.807,-7.12,-5.553,27.03,0.4939,-0.25797,-0.17584,-0.81149,711,0.46,-0.04,0.882,0.305,0.0,0.0,-2.631,-27.493,177.55,-11.96,-7.033,-24.487,31.59,-0.02646,-0.23709,0.02768,-0.97067,717,0.915,-0.097,0.355,0.122,0.0,0.0,-15.271,-68.176,-149.062,-29.36,-9.167,-7.647,31.49,0.14709,-0.56473,-0.04205,-0.81091,715
180,0.925,-0.136,0.408,0.061,0.0,0.0,-18.479,-65.204,-175.732,-25.78,-9.433,-15.093,27.55,0.05548,0.53647,-0.11536,0.83408,722,0.594,0.029,0.808,0.0,-0.061,0.0,2.186,-36.359,-118.065,-20.807,-7.12,-5.553,27.03,0.4939,-0.25797,-0.17584,-0.81149,720,0.459,-0.042,0.883,0.061,-0.061,0.0,-2.626,-27.493,177.55,-11.96,-7.033,-24.487,31.59,-0.02646,-0.23709,0.02768,-0.97067,724,0.915,-0.096,0.355,0.122,-0.061,0.0,-15.266,-68.176,-149.062,-29.36,-9.167,-7.647,31.49,0.14709,-0.56473,-0.04205,-0.81091,726
181,0.925,-0.134,0.408,0.122,-0.061,0.0,-18.479,-65.204,-175.732,-25.78,-9.433,-15.093,27.55,0.05548,0.53647,-0.11536,0.83408,723,0.593,0.03,0.807,-0.183,0.366,0.0,2.181,-36.354,-118.065,-20.807,-7.12,-5.553,27.03,0.4939,-0.25797,-0.17584,-0.81149,721,0.459,-0.043,0.878,-0.061,0.0,0.0,-2.626,-27.493,177.55,-11.96,-7.033,-24.487,31.59,-0.02646,-0.23709,0.02768,-0.97067,725,0.917,-0.097,0.355,0.183,0.0,0.0,-15.266,-68.176,-149.062,-29.36,-9.167,-7.647,31.49,0.14709,-0.56473,-0.04205,-0.81091,727
182,0.926,-0.135,0.408,0.061,-0.061,0.0,-18.474,-65.204,-175.726,-25.78,-9.433,-15.093,27.55,0.05548,0.53647,-0.11536,0.83408,728,0.595,0.032,0.809,-0.305,0.183,0.0,2.175,-36.348,-118.065,-20.807,-7.12,-5.553,27.03,0.4939,-0.25797,-0.17584,-0.81149,730,0.46,-0.041,0.88,-0.305,0.244,-0.305,-2.631,-27.493,177.55,-11.96,-7.033,-24.487,31.59,-0.02646,-0.23709,0.02768,-0.97067,734,0.918,-0.097,0.355,0.122,0.0,0.0,-15.26,-68.176,-149.062,-29.36,-9.167,-7.647,31.49,0.14709,-0.56473,-0.04205,-0.81091,732
183,0.928,-0.136,0.407,0.0,-0.061,0.0,-18.474,-65.204,-175.726,-25.78,-9.433,-15.093,27.55,0.05548,0.53647,-0.11536,0.83408,729,0.596,0.029,0.809,-0.183,0.0,0.0,2.17,-36.343,-118.065,-20.807,-7.12,-5.553,27.03,0.4939,-0.25797,-0.17584,-0.81149,731,0.46,-0.038,0.884,-0.305,0.244,-0.183,-2.637,-27.488,177.55,-11.96,-7.033,-24.487,31.59,-0.02646,-0.23709,0.02768,-0.97067,735,0.917,-0.098,0.355,0.122,0.0,0.0,-15.26,-68.176,-149.062,-29.36,-9.167,-7.647,31.49,0.14709,-0.56473,-0.04205,-0.81091,733
184,0.927,-0.137,0.407,0.0,0.0,0.0,-18.474,-65.204,-175.726,-25.78,-9.433,-15.093,27.55,0.05548,0.53647,-0.11536,0.83408,738,0.593,0.027,0.809,-0.061,-0.061,0.0,2.17,-36.343,-118.065,-20.807,-7.12,-5.553,27.03,0.4939,-0.25797,-0.17584,-0.81149,736,0.461,-0.042,0.884,-0.061,0.305,-0.183,-2.637,-27.482,177.545,-11.96,-7.033,-24.487,31.59,-0.02646,-0.23709,0.02768,-0.97067,740,0.917,-0.097,0.356,0.122,-0.061,0.0,-15.255,-68.176,-149.062,-29.36,-9.167,-7.647,31.49,0.14709,-0.56473,-0.04205,-0.81091,744
185,0.927,-0.136,0.408,0.0,-0.061,0.0,-18.474,-65.204,-175.726,-25.78,-9.433,-15.093,27.55,0.05548,0.53647,-0.11536,0.83408,739,0.594,0.028,0.81,-0.183,0.0,0.0,2.164,-36.343,-118.065,-20.807,-7.12,-5.553,27.03,0.4939,-0.25797,-0.17584,-0.81149,737,0.459,-0.043,0.883,0.0,0.183,-0.122,-2.637,-27.477,177.545,-11.96,-7.033,-24.487,31.59,-0.02646,-0.23709,0.02768,-0.97067,741,0.917,-0.098,0.356,0.244,-0.122,0.0,-15.255,-68.176,-149.062,-29.36,-9.167,-7.647,31.49,0.14709,-0.56473,-0.04205,-0.81091,745
186,0.928,-0.136,0.408,0.0,-0.122,0.0,-18.474,-65.204,-175.726,-25.78,-9.433,-15.093,27.55,0.05548,0.53647,-0.11536,0.83408,746,0.593,0.03,0.81,-0.244,0.0,0.0,2.159,-36.343,-118.065,-20.807,-7.12,-5.553,27.03,0.4939,-0.25797,-0.17584,-0.81149,748,0.46,-0.042,0.884,-0.122,0.122,-0.183,-2.637,-27.477,177.545,-11.96,-7.033,-24.487,31.59,-0.02646,-0.23709,0.02768,-0.97067,742,0.917,-0.099,0.354,0.183,-0.122,0.0,-15.255,-68.176,-149.062,-29.36,-9.167,-7.647,31.49,0.14709,-0.56473,-0.04205,-0.81091,752
187,0.927,-0.138,0.408,0.0,-0.183,0.0,-18.479,-65.204,-175.721,-25.78,-9.433,-15.093,27.55,0.05548,0.53647,-0.11536,0.83408,747,0.594,0.032,0.811,-0.427,0.0,0.0,2.153,-36.343,-118.065,-20.807,-7.12,-5.553,27.03,0.4939,-0.25797,-0.17584,-0.81149,749,0.458,-0.04,0.885,-0.183,0.061,-0.305,-2.637,-27.477,177.539,-11.96,-7.033,-24.487,31.59,-0.02646,-0.23709,0.02768,-0.97067,743,0.917,-0.098,0.354,0.183,-0.122,0.0,-15.249,-68.176,-149.062,-29.36,-9.167,-7.647,31.49,0.14709,-0.56473,-0.04205,-0.81091,753
188,0.926,-0.138,0.406,0.0,0.0,0.0,-18.479,-65.204,-175.721,-25.78,-9.433,-15.093,27.55,0.05548,0.53647,-0.11536,0.83408,756,0.594,0.03,0.807,-0.244,0.0,0.0,2.148,-36.343,-118.065,-20.387,-6.907,-5.967,27.03,0.4939,-0.25797,-0.17584,-0.81149,754,0.461,-0.037,0.884,-0.366,0.0,-0.305,-2.642,-27.477,177.534,-11.96,-7.033,-24.487,31.59,-0.02646,-0.23709,0.02768,-0.97067,750,0.916,-0.098,0.356,0.244,-0.244,0.0,-15.249,-68.176,-149.062,-29.36,-9.167,-7.647,31.49,0.14709,-0.56473,-0.04205,-0.81091,758
189,0.925,-0.137,0.408,-0.305,0.061,0.0,-18.479,-65.204,-175.721,-25.78,-9.433,-15.093,27.55,0.05548,0.53647,-0.11536,0.83408,757,0.591,0.027,0.807,0.061,0.0,0.0,2.148,-36.343,-118.065,-20.387,-6.907,-5.967,27.03,0.4939,-0.25797,-0.17584,-0.81149,755,0.459,-0.041,0.881,-0.122,-0.183,-0.061,-2.642,-27.477,177.534,-11.96,-7.033,-24.487,31.59,-0.02646,-0.23709,0.02768,-0.97067,751,0.916,-0.096,0.357,0.061,-0.244,0.0,-15.249,-68.181,-149.057,-29.36,-9.167,-7.647,31.49,0.14709,-0.56473,-0.04205,-0.81091,759
190,0.925,-0.136,0.409,-0.427,0.061,0.0,-18.49,-65.198,-175.721,-25.78,-9.433,-15.093,27.55,0.05548,0.53647,-0.11536,0.83408,760,0.59,0.028,0.81,-0.061,0.183,0.0,2.142,-36.337,-118.065,-20.387,-6.907,-5.967,27.03,0.4939,-0.25797,-0.17584,-0.81149,762,0.457,-0.044,0.881,0.0,-0.488,0.244,-2.648,-27.482,177.539,-11.9,-6.827,-25.04,31.59,-0.02646,-0.23709,0.02768,-0.97067,764,0.916,-0.096,0.358,0.061,-0.244,0.0,-15.255,-68.187,-149.052,-29.36,-9.167,-7.647,31.49,0.14709,-0.56473,-0.04205,-0.81091,766
191,0.926,-0.135,0.409,-0.366,-0.061,0.0,-18.495,-65.198,-175.721,-25.78,-9.433,-15.093,27.55,0.05548,0.53647,-0.11536,0.83408,761,0.591,0.03,0.811,-0.183,0.183,0.0,2.142,-36.332,-118.065,-20.387,-6.907,-5.967,27.03,0.4939,-0.25797,-0.17584,-0.81149,763,0.457,-0.042,0.884,-0.183,-0.549,0.061,-2.648,-27.493,177.545,-11.9,-6.827,-25.04,31.59,-0.02646,-0.23709,0.02768,-0.97067,765,0.917,-0.097,0.355,0.122,-0.244,0.0,-15.255,-68.187,-149.052,-29.36,-9.167,-7.647,31.49,0.14709,-0.56473,-0.04205,-0.81091,767
192,0.926,-0.135,0.408,-0.305,-0.122,0.0,-18.501,-65.198,-175.721,-25.78,-9.433,-15.093,27.55,0.05548,0.53647,-0.11536,0.83408,772,0.593,0.028,0.811,-0.244,0.061,0.0,2.137,-36.326,-118.065,-20.387,-6.907,-5.967,27.03,0.49374,-0.25815,-0.1756,-0.81155,770,0.458,-0.041,0.884,-0.244,-0.488,-0.061,-2.653,-27.504,177.545,-11.9,-6.827,-25.04,31.59,-0.02628,-0.23715,0.02759,-0.97067,768,0.917,-0.097,0.355,0.122,-0.244,0.0,-15.255,-68.192,-149.046,-29.6,-9.413,-7.613,31.49,0.14709,-0.56473,-0.04205,-0.81091,774
193,0.926,-0.137,0.407,-0.244,-0.061,0.0,-18.506,-65.198,-175.721,-25.78,-9.433,-15.093,27.55,0.05548,0.53647,-0.11536,0.83408,773,0.593,0.029,0.809,-0.061,0.0,0.0,2.131,-36.326,-118.07,-20.387,-6.907,-5.967,27.03,0.49374,-0.25815,-0.1756,-0.81155,771,0.461,-0.042,0.884,-0.244,-0.488,-0.122,-2.659,-27.515,177.545,-11.9,-6.827,-25.04,31.59,-0.02628,-0.23715,0.02759,-0.97067,769,0.917,-0.097,0.357,0.061,-0.244,0.0,-15.26,-68.192,-149.046,-29.6,-9.413,-7.613,31.49,0.14709,-0.56473,-0.04205,-0.81091,775
194,0.926,-0.137,0.409,-0.305,-0.122,0.0,-18.517,-65.198,-175.715,-25.72,-9.313,-14.493,27.55,0.05548,0.53647,-0.11536,0.83408,776,0.593,0.029,0.809,0.122,0.0,0.0,2.131,-36.326,-118.07,-20.387,-6.907,-5.967,27.03,0.49374,-0.25815,-0.1756,-0.81155,780,0.46,-0.041,0.883,0.0,-0.61,0.061,-2.659,-27.521,177.55,-11.9,-6.827,-25.04,31.59,-0.02628,-0.23715,0.02759,-0.97067,778,0.917,-0.095,0.354,0.122,-0.183,0.0,-15.26,-68.198,-149.041,-29.6,-9.413,-7.613,31.49,0.14725,-0.56482,-0.0423,-0.81079,784
195,0.927,-0.135,0.408,-0.122,-0.244,0.0,-18.523,-65.204,-175.715,-25.72,-9.313,-14.493,27.55,0.05548,0.53647,-0.11536,0.83408,777,0.594,0.031,0.809,0.183,0.183,0.0,2.137,-36.321,-118.07,-20.387,-6.907,-5.967,27.03,0.49374,-0.25815,-0.1756,-0.81155,781,0.461,-0.041,0.88,0.061,-0.854,0.305,-2.664,-27.537,177.556,-11.9,-6.827,-25.04,31.59,-0.02628,-0.23715,0.02759,-0.97067,779,0.918,-0.094,0.354,0.305,-0.183,0.0,-15.255,-68.198,-149.041,-29.6,-9.413,-7.613,31.49,0.14725,-0.56482,-0.0423,-0.81079,785
196,0.927,-0.135,0.408,-0.061,-0.183,0.0,-18.523,-65.204,-175.71,-25.72,-9.313,-14.493,27.55,0.05548,0.53647,-0.11536,0.83408,788,0.595,0.032,0.809,0.122,0.061,0.0,2.137,-36.315,-118.07,-20.387,-6.907,-5.967,27.03,0.49374,-0.25815,-0.1756,-0.81155,786,0.462,-0.041,0.883,0.0,-0.854,0.244,-2.664,-27.554,177.567,-11.9,-6.827,-25.04,31.59,-0.02628,-0.23715,0.02759,-0.97067,782,0.918,-0.095,0.354,0.244,-0.183,0.0,-15.255,-68.203,-149.035,-29.6,-9.413,-7.613,31.49,0.14725,-0.56482,-0.0423,-0.81079,792
197,0.927,-0.136,0.406,-0.061,-0.183,0.0,-18.528,-65.209,-175.704,-25.72,-9.313,-14.493,27.55,0.05548,0.53647,-0.11536,0.83408,789,0.595,0.03,0.809,0.122,0.122,0.0,2.142,-36.315,-118.07,-20.387,-6.907,-5.967,27.03,0.49374,-0.25815,-0.1756,-0.81155,787,0.464,-0.039,0.882,0.0,-0.977,0.244,-2.67,-27.57,177.572,-11.9,-6.827,-25.04,31.59,-0.02628,-0.23715,0.02759,-0.97067,783,0.917,-0.096,0.353,0.183,-0.244,0.0,-15.249,-68.203,-149.035,-29.6,-9.413,-7.613,31.49,0.14725,-0.56482,-0.0423,-0.81079,793
198,0.926,-0.137,0.406,-0.122,-0.244,0.0,-18.534,-65.209,-175.704,-25.72,-9.313,-14.493,27.55,0.05554,0.53647,-0.1156,0.83405,798,0.594,0.029,0.809,0.061,0.061,0.0,2.142,-36.31,-118.07,-20.387,-6.907,-5.967,27.03,0.49374,-0.25815,-0.1756,-0.81155,794,0.463,-0.04,0.881,0.0,-0.854,0.244,-2.67,-27.587,177.583,-11.9,-6.827,-25.04,31.59,-0.02628,-0.23715,0.02759,-0.97067,790,0.917,-0.096,0.355,0.061,-0.183,0.0,-15.249,-68.209,-149.03,-29.6,-9.413,-7.613,31.49,0.14725,-0.56482,-0.0423,-0.81079,796
199,0.926,-0.136,0.407,-0.244,-0.183,0.0,-18.539,-65.215,-175.699,-25.72,-9.313,-14.493,27.55,0.05554,0.53647,-0.1156,0.83405,799,0.594,0.029,0.809,0.0,0.183,0.0,2.142,-36.31,-118.07,-20.387,-6.907,-5.967,27.03,0.49374,-0.25815,-0.1756,-0.81155,795,0.463,-0.042,0.881,-0.061,-0.916,0.244,-2.675,-27.603,177.589,-11.9,-6.827,-25.04,31.59,-0.02628,-0.23715,0.02759,-0.97067,791,0.917,-0.095,0.354,0.122,-0.122,0.0,-15.249,-68.209,-149.03,-29.6,-9.413,-7.613,31.49,0.14725,-0.56482,-0.0423,-0.81079,797
200,0.926,-0.136,0.406,-0.244,-0.244,0.0,-18.545,-65.215,-175.693,-25.72,-9.313,-14.493,27.55,0.05554,0.53647,-0.1156,0.83405,804,0.593,0.028,0.807,0.061,0.061,0.0,2.142,-36.304,-118.07,-20.387,-6.907,-5.967,27.03,0.49374,-0.25815,-0.1756,-0.81155,802,0.463,-0.042,0.88,-0.122,-0.793,0.183,-2.681,-27.62,177.599,-11.9,-6.827,-25.04,31.59,-0.02628,-0.23715,0.02759,-0.97067,800,0.917,-0.096,0.354,0.183,-0.122,0.0,-15.244,-68.214,-149.03,-29.6,-9.413,-7.613,31.49,0.14725,-0.56482,-0.0423,-0.81079,808
201,0.926,-0.137,0.406,-0.244,-0.244,0.0,-18.556,-65.22,-175.693,-25.72,-9.313,-14.493,27.55,0.05554,0.53647,-0.1156,0.83405,805,0.595,0.029,0.808,0.183,0.122,0.0,2.142,-36.304,-118.07,-20.387,-6.907,-5.967,27.03,0.49374,-0.25815,-0.1756,-0.81155,803,0.463,-0.042,0.879,0.0,-0.854,0.244,-2.681,-27.636,177.605,-11.9,-6.827,-25.04,31.59,-0.02628,-0.23715,0.02759,-0.97067,801,0.918,-0.098,0.353,0.183,-0.122,0.0,-15.244,-68.214,-149.03,-29.6,-9.413,-7.613,31.49,0.14725,-0.56482,-0.0423,-0.81079,809
202,0.928,-0.139,0.405,-0.183,-0.244,0.0,-18.561,-65.22,-175.688,-25.72,-9.313,-14.493,27.55,0.05554,0.53647,-0.1156,0.83405,812,0.596,0.028,0.808,0.244,0.122,0.0,2.148,-36.299,-118.07,-20.387,-6.907,-5.967,27.03,0.49374,-0.25815,-0.1756,-0.81155,810,0.465,-0.041,0.879,0.061,-0.732,0.305,-2.686,-27.653,177.616,-11.9,-6.827,-25.04,31.59,-0.02628,-0.23715,0.02759,-0.97067,806,0.919,-0.097,0.353,0.122,-0.122,0.0,-15.238,-68.214,-149.024,-29.6,-9.413,-7.613,31.49,0.14725,-0.56482,-0.0423,-0.81079,816
203,0.928,-0.138,0.407,-0.183,-0.183,0.0,-18.567,-65.226,-175.682,-25.72,-9.313,-14.493,27.55,0.05554,0.53647,-0.1156,0.83405,813,0.596,0.028,0.808,0.244,0.061,0.0,2.153,-36.299,-118.07,-20.387,-6.907,-5.967,27.03,0.49374,-0.25815,-0.1756,-0.81155,811,0.466,-0.042,0.88,0.183,-0.671,0.366,-2.686,-27.664,177.621,-11.9,-6.827,-25.04,31.59,-0.02628,-0.23715,0.02759,-0.97067,807,0.919,-0.095,0.351,0.061,-0.061,0.0,-15.238,-68.214,-149.024,-29.6,-9.413,-7.613,31.49,0.14725,-0.56482,-0.0423,-0.81079,817
204,0.929,-0.137,0.405,-0.122,-0.122,0.0,-18.572,-65.226,-175.682,-25.72,-9.313,-14.493,27.55,0.05554,0.53647,-0.1156,0.83405,818,0.596,0.029,0.808,0.183,0.061,0.0,2.153,-36.299,-118.07,-20.387,-6.907,-5.967,27.03,0.49374,-0.25815,-0.1756,-0.81155,820,0.467,-0.042,0.879,0.122,-0.61,0.366,-2.686,-27.68,177.632,-11.9,-6.827,-25.04,31.59,-0.02628,-0.23715,0.02759,-0.97067,814,0.919,-0.095,0.353,0.183,-0.061,0.0,-15.238,-68.22,-149.024,-29.6,-9.413,-7.613,31.49,0.14725,-0.56482,-0.0423,-0.81079,822
205,0.928,-0.137,0.406,-0.183,-0.061,0.0,-18.578,-65.226,-175.682,-25.72,-9.313,-14.493,27.55,0.05554,0.53647,-0.1156,0.83405,819,0.596,0.03,0.808,0.0,0.0,0.0,2.153,-36.299,-118.07,-20.387,-6.907,-5.967,27.03,0.49374,-0.25815,-0.1756,-0.81155,821,0.466,-0.042,0.879,0.0,-0.427,0.366,-2.692,-27.691,177.643,-11.9,-6.827,-25.04,31.59,-0.02628,-0.23715,0.02759,-0.97067,815,0.918,-0.095,0.353,0.183,0.0,0.0,-15.233,-68.22,-149.024,-29.6,-9.413,-7.613,31.49,0.14725,-0.56482,-0.0423,-0.81079,823
206,0.928,-0.138,0.407,-0.122,-0.061,0.0,-18.583,-65.231,-175.682,-25.72,-9.313,-14.493,27.55,0.05554,0.53647,-0.1156,0.83405,826,0.596,0.031,0.808,-0.122,0.0,0.0,2.153,-36.299,-118.07,-20.587,-6.987,-5.907,27.03,0.49374,-0.25815,-0.1756,-0.81155,824,0.467,-0.041,0.879,-0.244,-0.366,0.183,-2.697,-27.697,177.654,-11.9,-6.827,-25.04,31.59,-0.02628,-0.23715,0.02759,-0.97067,828,0.915,-0.097,0.352,0.305,0.0,0.0,-15.227,-68.22,-149.024,-29.64,-9.467,-7.473,31.49,0.14725,-0.56482,-0.0423,-0.81079,832
207,0.924,-0.139,0.405,-0.183,0.0,0.0,-18.589,-65.226,-175.677,-25.72,-9.313,-14.493,27.55,0.05554,0.53647,-0.1156,0.83405,827,0.593,0.029,0.806,-0.061,0.0,0.0,2.148,-36.299,-118.07,-20.587,-6.987,-5.907,27.03,0.49374,-0.25815,-0.1756,-0.81155,825,0.465,-0.039,0.88,-0.305,-0.244,0.183,-2.703,-27.702,177.66,-11.9,-6.827,-25.04,31.59,-0.02628,-0.23715,0.02759,-0.97067,829,0.917,-0.097,0.351,0.244,0.061,0.0,-15.222,-68.22,-149.024,-29.64,-9.467,-7.473,31.49,0.14725,-0.56482,-0.0423,-0.81079,833
208,0.926,-0.139,0.404,-0.061,0.122,0.0,-18.589,-65.226,-175.682,-25.72,-9.313,-14.493,27.55,0.05554,0.53647,-0.1156,0.83405,838,0.598,0.027,0.806,-0.366,0.366,0.0,2.142,-36.293,-118.07,-20.587,-6.987,-5.907,27.03,0.49374,-0.25815,-0.1756,-0.81155,834,0.465,-0.042,0.875,-0.244,-0.122,0.244,-2.714,-27.708,177.665,-12.44,-6.747,-25.88,31.59,-0.02628,-0.23715,0.02759,-0.97067,830,0.921,-0.095,0.354,0.0,0.061,0.0,-15.222,-68.22,-149.024,-29.64,-9.467,-7.473,31.49,0.14749,-0.56491,-0.04269,-0.81067,836
209,0.93,-0.138,0.406,-0.305,0.244,0.0,-18.594,-65.22,-175.682,-25.72,-9.313,-14.493,27.55,0.05554,0.53647,-0.1156,0.83405,839,0.598,0.027,0.809,-0.305,0.488,0.0,2.137,-36.282,-118.07,-20.587,-6.987,-5.907,27.03,0.49374,-0.25815,-0.1756,-0.81155,835,0.47,-0.045,0.876,-0.61,0.366,0.122,-2.725,-27.708,177.671,-12.44,-6.747,-25.88,31.59,-0.02628,-0.23715,0.02759,-0.97067,831,0.919,-0.093,0.351,0.061,-0.183,0.0,-15.222,-68.22,-149.024,-29.64,-9.467,-7.473,31.49,0.14749,-0.56491,-0.04269,-0.81067,837
210,0.928,-0.135,0.405,-0.427,0.305,0.0,-18.6,-65.215,-175.688,-25.653,-9.78,-15.1,27.55,0.05554,0.53647,-0.1156,0.83405,842,0.594,0.031,0.81,0.183,-0.122,0.0,2.137,-36.288,-118.07,-20.587,-6.987,-5.907,27.03,0.49377,-0.25784,-0.17538,-0.81168,848,0.467,-0.042,0.883,-0.183,0.549,0.122,-2.73,-27.702,177.676,-12.44,-6.747,-25.88,31.59,-0.02628,-0.23715,0.02759,-0.97067,840,0.917,-0.095,0.354,0.061,-0.183,0.0,-15.222,-68.225,-149.024,-29.64,-9.467,-7.473,31.49,0.14749,-0.56491,-0.04269,-0.81067,846
211,0.927,-0.136,0.405,-0.427,0.244,0.0,-18.605,-65.209,-175.693,-25.653,-9.78,-15.1,27.55,0.05554,0.53647,-0.1156,0.83405,843,0.594,0.028,0.812,0.183,-0.427,0.0,2.142,-36.299,-118.07,-20.587,-6.987,-5.907,27.03,0.49377,-0.25784,-0.17538,-0.81168,849,0.463,-0.041,0.885,0.305,0.366,0.366,-2.736,-27.697,177.682,-12.44,-6.747,-25.88,31.59,-0.02628,-0.23715,0.02759,-0.97067,841,0.919,-0.095,0.355,-0.061,-0.183,0.0,-15.222,-68.231,-149.024,-29.64,-9.467,-7.473,31.49,0.14749,-0.56491,-0.04269,-0.81067,847
212,0.929,-0.137,0.407,-0.366,0.183,0.0,-18.611,-65.209,-175.693,-25.653,-9.78,-15.1,27.55,0.05554,0.53647,-0.1156,0.83405,852,0.594,0.026,0.807,0.061,-0.305,0.0,2.142,-36.304,-118.07,-20.587,-6.987,-5.907,27.03,0.49377,-0.25784,-0.17538,-0.81168,850,0.464,-0.045,0.882,0.366,0.305,0.183,-2.73,-27.691,177.687,-12.44,-6.747,-25.88,31.59,-0.0253,-0.23874,0.02798,-0.97031,844,0.917,-0.096,0.354,0.122,-0.061,0.0,-15.222,-68.231,-149.019,-29.64,-9.467,-7.473,31.49,0.14749,-0.56491,-0.04269,-0.81067,856
213,0.927,-0.138,0.407,-0.244,0.0,0.0,-18.616,-65.204,-175.693,-25.653,-9.78,-15.1,27.55,0.05554,0.53647,-0.1156,0.83405,853,0.592,0.029,0.808,0.122,-0.366,0.0,2.142,-36.31,-118.07,-20.587,-6.987,-5.907,27.03,0.49377,-0.25784,-0.17538,-0.81168,851,0.463,-0.044,0.879,0.122,0.305,0.061,-2.725,-27.686,177.693,-12.44,-6.747,-25.88,31.59,-0.0253,-0.23874,0.02798,-0.97031,845,0.915,-0.095,0.353,0.244,-0.122,0.0,-15.216,-68.231,-149.019,-29.64,-9.467,-7.473,31.49,0.14749,-0.56491,-0.04269,-0.81067,857
214,0.924,-0.137,0.407,0.0,0.0,0.0,-18.616,-65.204,-175.693,-25.653,-9.78,-15.1,27.55,0.05588,0.53644,-0.11621,0.83395,860,0.591,0.03,0.81,0.122,0.0,0.0,2.142,-36.31,-118.07,-20.587,-6.987,-5.907,27.03,0.49377,-0.25784,-0.17538,-0.81168,858,0.461,-0.041,0.879,0.183,0.0,0.122,-2.725,-27.686,177.698,-12.44,-6.747,-25.88,31.59,-0.0253,-0.23874,0.02798,-0.97031,854,0.914,-0.094,0.354,0.122,-0.122,0.0,-15.216,-68.236,-149.019,-29.64,-9.467,-7.473,31.49,0.14749,-0.56491,-0.04269,-0.81067,864
215,0.923,-0.136,0.407,-0.122,0.122,0.0,-18.622,-65.204,-175.693,-25.653,-9.78,-15.1,27.55,0.05588,0.53644,-0.11621,0.83395,861,0.589,0.029,0.807,0.122,0.061,0.0,2.148,-36.31,-118.07,-20.587,-6.987,-5.907,27.03,0.49377,-0.25784,-0.17538,-0.81168,859,0.461,-0.041,0.879,0.061,0.244,0.122,-2.725,-27.68,177.698,-12.44,-6.747,-25.88,31.59,-0.0253,-0.23874,0.02798,-0.97031,855,0.916,-0.094,0.354,0.122,0.0,0.0,-15.211,-68.236,-149.019,-29.64,-9.467,-7.473,31.49,0.14749,-0.56491,-0.04269,-0.81067,865
216,0.924,-0.136,0.408,-0.122,0.122,0.0,-18.622,-65.198,-175.699,-25.653,-9.78,-15.1,27.55,0.05588,0.53644,-0.11621,0.83395,872,0.59,0.029,0.808,0.183,0.061,0.0,2.148,-36.31,-118.076,-20.587,-6.987,-5.907,27.03,0.49377,-0.25784,-0.17538,-0.81168,866,0.459,-0.041,0.879,0.122,0.0,0.244,-2.725,-27.68,177.704,-12.44,-6.747,-25.88,31.59,-0.0253,-0.23874,0.02798,-0.97031,862,0.918,-0.095,0.356,0.122,0.0,0.0,-15.211,-68.236,-149.019,-29.64,-9.467,-7.473,31.49,0.14749,-0.56491,-0.04269,-0.81067,868
217,0.927,-0.138,0.409,-0.061,0.061,0.0,-18.622,-65.198,-175.699,-25.653,-9.78,-15.1,27.55,0.05588,0.53644,-0.11621,0.83395,873,0.592,0.028,0.81,0.061,0.061,0.0,2.148,-36.304,-118.076,-20.587,-6.987,-5.907,27.03,0.49377,-0.25784,-0.17538,-0.81168,867,0.46,-0.042,0.879,0.061,-0.061,0.183,-2.725,-27.686,177.715,-12.44,-6.747,-25.88,31.59,-0.0253,-0.23874,0.02798,-0.97031,863,0.917,-0.096,0.356,0.122,0.0,0.0,-15.205,-68.236,-149.019,-29.64,-9.467,-7.473,31.49,0.14749,-0.56491,-0.04269,-0.81067,869
218,0.926,-0.138,0.409,0.0,0.0,0.0,-18.622,-65.198,-175.699,-25.653,-9.78,-15.1,27.55,0.05588,0.53644,-0.11621,0.83395,874,0.593,0.029,0.811,0.122,0.0,0.0,2.148,-36.304,-118.076,-20.587,-6.987,-5.907,27.03,0.49377,-0.25784,-0.17538,-0.81168,876,0.462,-0.043,0.881,0.061,-0.061,0.0,-2.725,-27.686,177.715,-12.44,-6.747,-25.88,31.59,-0.0253,-0.23874,0.02798,-0.97031,870,0.917,-0.095,0.355,0.183,0.0,0.0,-15.2,-68.236,-149.019,-29.64,-9.467,-7.473,31.49,0.14749,-0.56491,-0.04269,-0.81067,880
219,0.926,-0.138,0.408,0.0,0.0,0.0,-18.622,-65.198,-175.699,-25.653,-9.78,-15.1,27.55,0.05588,0.53644,-0.11621,0.83395,875,0.592,0.03,0.811,0.183,0.0,0.0,2.153,-36.304,-118.076,-20.587,-6.987,-5.907,27.03,0.49377,-0.25784,-0.17538,-0.81168,877,0.463,-0.042,0.883,0.122,-0.061,0.061,-2.725,-27.686,177.72,-12.44,-6.747,-25.88,31.59,-0.0253,-0.23874,0.02798,-0.97031,871,0.915,-0.095,0.354,0.183,0.0,0.0,-15.194,-68.231,-149.019,-29.64,-9.467,-7.473,31.49,0.14749,-0.56491,-0.04269,-0.81067,881
220,0.924,-0.138,0.408,0.0,-0.061,0.0,-18.622,-65.193,-175.699,-25.653,-9.78,-15.1,27.55,0.05588,0.53644,-0.11621,0.83395,882,0.591,0.028,0.809,0.305,-0.305,0.0,2.159,-36.31,-118.076,-20.587,-6.987,-5.907,27.03,0.49377,-0.25784,-0.17538,-0.81168,888,0.461,-0.042,0.883,0.244,-0.061,0.061,-2.719,-27.686,177.72,-12.44,-6.747,-25.88,31.59,-0.0253,-0.23874,0.02798,-0.97031,878,0.916,-0.097,0.353,0.244,0.0,0.0,-15.189,-68.231,-149.019,-29.64,-9.467,-7.473,31.49,0.14749,-0.56491,-0.04269,-0.81067,886
221,0.925,-0.139,0.406,0.0,0.0,0.0,-18.622,-65.193,-175.699,-25.653,-9.78,-15.1,27.55,0.05588,0.53644,-0.11621,0.83395,883,0.592,0.027,0.809,0.122,-0.183,0.0,2.159,-36.31,-118.076,-20.587,-6.987,-5.907,27.03,0.49377,-0.25784,-0.17538,-0.81168,889,0.463,-0.042,0.879,0.244,-0.183,0.122,-2.719,-27.691,177.726,-12.44,-6.747,-25.88,31.59,-0.0253,-0.23874,0.02798,-0.97031,879,0.917,-0.095,0.354,0.244,-0.061,0.0,-15.183,-68.231,-149.019,-29.64,-9.467,-7.473,31.49,0.14749,-0.56491,-0.04269,-0.81067,887
222,0.927,-0.138,0.407,0.0,-0.061,0.0,-18.622,-65.193,-175.693,-25.653,-9.78,-15.1,27.55,0.05588,0.53644,-0.11621,0.83395,890,0.594,0.029,0.806,0.122,0.0,0.0,2.159,-36.31,-118.076,-20.507,-6.653,-5.813,27.03,0.49377,-0.25784,-0.17538,-0.81168,892,0.463,-0.044,0.878,0.061,0.0,0.0,-2.714,-27.691,177.726,-12.44,-6.747,-25.88,31.59,-0.0253,-0.23874,0.02798,-0.97031,884,0.918,-0.094,0.354,0.244,-0.061,0.0,-15.178,-68.231,-149.019,-29.52,-9.24,-7.173,31.49,0.14749,-0.56491,-0.04269,-0.81067,896
223,0.927,-0.137,0.406,0.0,-0.061,0.0,-18.627,-65.193,-175.693,-25.653,-9.78,-15.1,27.55,0.05588,0.53644,-0.11621,0.83395,891,0.596,0.031,0.808,0.305,0.0,0.0,2.164,-36.31,-118.076,-20.507,-6.653,-5.813,27.03,0.49377,-0.25784,-0.17538,-0.81168,893,0.465,-0.04,0.879,0.244,0.0,0.0,-2.714,-27.691,177.731,-12.44,-6.747,-25.88,31.59,-0.0253,-0.23874,0.02798,-0.97031,885,0.919,-0.095,0.353,0.122,0.0,0.0,-15.172,-68.231,-149.019,-29.52,-9.24,-7.173,31.49,0.14749,-0.56491,-0.04269,-0.81067,897
224,0.928,-0.137,0.406,0.0,0.0,0.0,-18.627,-65.193,-175.693,-25.653,-9.78,-15.1,27.55,0.05588,0.53644,-0.11621,0.83395,898,0.596,0.028,0.808,0.305,0.0,0.0,2.17,-36.304,-118.076,-20.507,-6.653,-5.813,27.03,0.49377,-0.25784,-0.17538,-0.81168,900,0.466,-0.04,0.879,0.305,0.0,0.244,-2.708,-27.691,177.731,-12.44,-6.747,-25.88,31.59,-0.0253,-0.23874,0.02798,-0.97031,894,0.919,-0.095,0.353,0.0,0.0,0.0,-15.167,-68.231,-149.019,-29.52,-9.24,-7.173,31.49,0.1478,-0.56494,-0.04315,-0.81058,902
225,0.928,-0.138,0.405,-0.122,0.0,0.0,-18.627,-65.193,-175.693,-25.653,-9.78,-15.1,27.55,0.05588,0.53644,-0.11621,0.83395,899,0.595,0.027,0.81,0.183,-0.122,0.0,2.17,-36.31,-118.076,-20.507,-6.653,-5.813,27.03,0.49377,-0.25784,-0.17538,-0.81168,901,0.466,-0.044,0.881,0.305,-0.122,0.122,-2.708,-27.691,177.737,-12.44,-6.747,-25.88,31.59,-0.0253,-0.23874,0.02798,-0.97031,895,0.917,-0.095,0.352,0.0,-0.061,0.0,-15.167,-68.231,-149.019,-29.52,-9.24,-7.173,31.49,0.1478,-0.56494,-0.04315,-0.81058,903
226,0.926,-0.138,0.406,-0.061,0.0,0.0,-18.633,-65.193,-175.693,-25.653,-9.78,-15.1,27.55,0.05588,0.53644,-0.11621,0.83395,904,0.594,0.03,0.809,0.061,-0.122,0.0,2.17,-36.31,-118.076,-20.507,-6.653,-5.813,27.03,0.49377,-0.25787,-0.17572,-0.81158,910,0.465,-0.044,0.881,0.122,-0.183,0.061,-2.703,-27.697,177.742,-12.26,-6.893,-25.32,31.59,-0.0253,-0.23874,0.02798,-0.97031,906,0.917,-0.095,0.353,0.0,-0.061,0.0,-15.167,-68.236,-149.019,-29.52,-9.24,-7.173,31.49,0.1478,-0.56494,-0.04315,-0.81058,908
227,0.926,-0.138,0.405,-0.061,-0.061,0.0,-18.633,-65.193,-175.693,-25.653,-9.78,-15.1,27.55,0.05588,0.53644,-0.11621,0.83395,905,0.594,0.03,0.807,0.0,-0.061,0.0,2.17,-36.31,-118.076,-20.507,-6.653,-5.813,27.03,0.49377,-0.25787,-0.17572,-0.81158,911,0.464,-0.041,0.88,0.061,-0.122,0.0,-2.703,-27.702,177.748,-12.26,-6.893,-25.32,31.59,-0.0253,-0.23874,0.02798,-0.97031,907,0.917,-0.095,0.352,0.061,-0.061,0.0,-15.167,-68.236,-149.019,-29.52,-9.24,-7.173,31.49,0.1478,-0.56494,-0.04315,-0.81058,909
228,0.926,-0.138,0.405,0.0,-0.061,0.0,-18.638,-65.193,-175.693,-25.653,-9.78,-15.1,27.55,0.05588,0.53644,-0.11621,0.83395,914,0.594,0.029,0.806,0.061,0.0,0.0,2.17,-36.31,-118.076,-20.507,-6.653,-5.813,27.03,0.49377,-0.25787,-0.17572,-0.81158,920,0.464,-0.041,0.878,0.061,-0.183,0.0,-2.703,-27.702,177.748,-12.26,-6.893,-25.32,31.59,-0.02469,-0.23886,0.02759,-0.97031,912,0.917,-0.096,0.353,0.061,0.0,0.0,-15.167,-68.236,-149.019,-29.52,-9.24,-7.173,31.49,0.1478,-0.56494,-0.04315,-0.81058,916
229,0.926,-0.139,0.406,0.0,-0.061,0.0,-18.638,-65.193,-175.693,-25.653,-9.78,-15.1,27.55,0.05588,0.53644,-0.11621,0.83395,915,0.593,0.029,0.808,0.122,0.0,0.0,2.17,-36.31,-118.076,-20.507,-6.653,-5.813,27.03,0.49377,-0.25787,-0.17572,-0.81158,921,0.464,-0.042,0.878,0.122,-0.183,0.061,-2.703,-27.708,177.748,-12.26,-6.893,-25.32,31.59,-0.02469,-0.23886,0.02759,-0.97031,913,0.918,-0.095,0.354,0.0,0.0,0.0,-15.161,-68.236,-149.019,-29.52,-9.24,-7.173,31.49,0.1478,-0.56494,-0.04315,-0.81058,917
230,0.927,-0.139,0.406,0.0,-0.061,0.0,-18.644,-65.193,-175.688,-25.853,-8.967,-14.867,27.55,0.05588,0.53644,-0.11621,0.83395,918,0.594,0.029,0.809,0.122,0.0,0.0,2.17,-36.31,-118.076,-20.507,-6.653,-5.813,27.03,0.49377,-0.25787,-0.17572,-0.81158,922,0.464,-0.042,0.879,0.122,-0.183,0.122,-2.703,-27.713,177.753,-12.26,-6.893,-25.32,31.59,-0.02469,-0.23886,0.02759,-0.97031,924,0.918,-0.094,0.354,0.061,-0.061,0.0,-15.161,-68.236,-149.019,-29.52,-9.24,-7.173,31.49,0.1478,-0.56494,-0.04315,-0.81058,926
231,0.927,-0.138,0.408,0.0,-0.122,0.0,-18.644,-65.193,-175.688,-25.853,-8.967,-14.867,27.55,0.05588,0.53644,-0.11621,0.83395,919,0.594,0.029,0.809,0.061,0.0,0.0,2.17,-36.31,-118.076,-20.507,-6.653,-5.813,27.03,0.49377,-0.25787,-0.17572,-0.81158,923,0.465,-0.042,0.88,0.061,-0.122,0.061,-2.697,-27.719,177.753,-12.26,-6.893,-25.32,31.59,-0.02469,-0.23886,0.02759,-0.97031,925,0.917,-0.095,0.354,0.0,0.0,0.0,-15.161,-68.236,-149.019,-29.52,-9.24,-7.173,31.49,0.1478,-0.56494,-0.04315,-0.81058,927
232,0.927,-0.138,0.407,0.0,-0.122,0.0,-18.649,-65.198,-175.688,-25.853,-8.967,-14.867,27.55,0.05588,0.53644,-0.11621,0.83395,928,0.594,0.03,0.808,0.0,-0.061,0.0,2.17,-36.31,-118.076,-20.507,-6.653,-5.813,27.03,0.49377,-0.25787,-0.17572,-0.81158,930,0.464,-0.042,0.88,0.0,-0.061,0.0,-2.703,-27.719,177.759,-12.26,-6.893,-25.32,31.59,-0.02469,-0.23886,0.02759,-0.97031,932,0.917,-0.095,0.354,0.0,0.0,0.0,-15.161,-68.236,-149.019,-29.52,-9.24,-7.173,31.49,0.1478,-0.56494,-0.04315,-0.81058,934
233,0.926,-0.138,0.408,-0.061,-0.061,0.0,-18.655,-65.198,-175.682,-25.853,-8.967,-14.867,27.55,0.05588,0.53644,-0.11621,0.83395,929,0.594,0.029,0.808,0.0,-0.061,0.0,2.17,-36.315,-118.076,-20.507,-6.653,-5.813,27.03,0.49377,-0.25787,-0.17572,-0.81158,931,0.464,-0.042,0.88,0.0,0.0,0.0,-2.703,-27.724,177.759,-12.26,-6.893,-25.32,31.59,-0.02469,-0.23886,0.02759,-0.97031,933,0.917,-0.096,0.354,0.0,0.0,0.0,-15.161,-68.236,-149.019,-29.52,-9.24,-7.173,31.49,0.1478,-0.56494,-0.04315,-0.81058,935
234,0.926,-0.139,0.407,0.0,0.0,0.0,-18.655,-65.193,-175.682,-25.853,-8.967,-14.867,27.55,0.05597,0.53638,-0.11642,0.83398,944,0.593,0.028,0.808,-0.061,0.0,0.0,2.17,-36.31,-118.076,-20.507,-6.653,-5.813,27.03,0.49377,-0.25787,-0.17572,-0.81158,938,0.464,-0.043,0.878,0.0,0.122,0.0,-2.703,-27.724,177.759,-12.26,-6.893,-25.32,31.59,-0.02469,-0.23886,0.02759,-0.97031,936,0.917,-0.096,0.354,0.0,0.122,0.0,-15.156,-68.236,-149.019,-29.52,-9.24,-7.173,31.49,0.1478,-0.56494,-0.04315,-0.81058,940
235,0.926,-0.138,0.407,0.0,0.0,0.0,-18.655,-65.193,-175.682,-25.853,-8.967,-14.867,27.55,0.05597,0.53638,-0.11642,0.83398,945,0.594,0.028,0.809,0.0,0.0,0.0,2.164,-36.31,-118.076,-20.507,-6.653,-5.813,27.03,0.49377,-0.25787,-0.17572,-0.81158,939,0.464,-0.043,0.879,-0.122,0.122,0.0,-2.703,-27.719,177.759,-12.26,-6.893,-25.32,31.59,-0.02469,-0.23886,0.02759,-0.97031,937,0.917,-0.095,0.354,0.122,0.061,0.0,-15.15,-68.236,-149.019,-29.52,-9.24,-7.173,31.49,0.1478,-0.56494,-0.04315,-0.81058,941
236,0.927,-0.138,0.406,0.122,-0.061,0.0,-18.655,-65.193,-175.682,-25.853,-8.967,-14.867,27.55,0.05597,0.53638,-0.11642,0.83398,948,0.594,0.03,0.809,0.061,-0.061,0.0,2.164,-36.315,-118.076,-20.507,-6.653,-5.813,27.03,0.49377,-0.25787,-0.17572,-0.81158,946,0.464,-0.042,0.879,0.0,0.122,-0.061,-2.703,-27.719,177.764,-12.26,-6.893,-25.32,31.59,-0.02469,-0.23886,0.02759,-0.97031,942,0.918,-0.095,0.354,0.061,0.061,0.0,-15.15,-68.231,-149.024,-29.48,-9.427,-6.56,31.49,0.1478,-0.56494,-0.04315,-0.81058,950
237,0.927,-0.138,0.408,0.061,-0.061,0.0,-18.655,-65.193,-175.682,-25.853,-8.967,-14.867,27.55,0.05597,0.53638,-0.11642,0.83398,949,0.595,0.03,0.809,0.183,-0.244,0.0,2.17,-36.315,-118.076,-20.507,-6.653,-5.813,27.03,0.49377,-0.25787,-0.17572,-0.81158,947,0.464,-0.041,0.88,0.122,0.183,0.0,-2.703,-27.719,177.764,-12.26,-6.893,-25.32,31.59,-0.02469,-0.23886,0.02759,-0.97031,943,0.918,-0.094,0.354,0.061,0.061,0.0,-15.145,-68.231,-149.024,-29.48,-9.427,-6.56,31.49,0.1478,-0.56494,-0.04315,-0.81058,951
