Index,L5_Acceleration X(g),L5_Acceleration Y(g),L5_Acceleration Z(g),L5_Angular velocity X(°/s),L5_Angular velocity Y(°/s),L5_Angular velocity Z(°/s),L5_Angle X(°),L5_Angle Y(°),L5_Angle Z(°),L5_Magnetic field X(ʯt),L5_Magnetic field Y(ʯt),L5_Magnetic field Z(ʯt),L5_Temperature(℃),L5_Quaternions 0(),L5_Quaternions 1(),L5_Quaternions 2(),L5_Quaternions 3(),L5___orig_idx,T4_Acceleration X(g),T4_Acceleration Y(g),T4_Acceleration Z(g),T4_Angular velocity X(°/s),T4_Angular velocity Y(°/s),T4_Angular velocity Z(°/s),T4_Angle X(°),T4_Angle Y(°),T4_Angle Z(°),T4_Magnetic field X(ʯt),T4_Magnetic field Y(ʯt),T4_Magnetic field Z(ʯt),T4_Temperature(℃),T4_Quaternions 0(),T4_Quaternions 1(),T4_Quaternions 2(),T4_Quaternions 3(),T4___orig_idx,C7_Acceleration X(g),C7_Acceleration Y(g),C7_Acceleration Z(g),C7_Angular velocity X(°/s),C7_Angular velocity Y(°/s),C7_Angular velocity Z(°/s),C7_Angle X(°),C7_Angle Y(°),C7_Angle Z(°),C7_Magnetic field X(ʯt),C7_Magnetic field Y(ʯt),C7_Magnetic field Z(ʯt),C7_Temperature(℃),C7_Quaternions 0(),C7_Quaternions 1(),C7_Quaternions 2(),C7_Quaternions 3(),C7___orig_idx,T12_Acceleration X(g),T12_Acceleration Y(g),T12_Acceleration Z(g),T12_Angular velocity X(°/s),T12_Angular velocity Y(°/s),T12_Angular velocity Z(°/s),T12_Angle X(°),T12_Angle Y(°),T12_Angle Z(°),T12_Magnetic field X(ʯt),T12_Magnetic field Y(ʯt),T12_Magnetic field Z(ʯt),T12_Temperature(℃),T12_Quaternions 0(),T12_Quaternions 1(),T12_Quaternions 2(),T12_Quaternions 3(),T12___orig_idx
0,1.017,-0.071,0.052,0.061,-0.122,0.0,-52.927,-85.012,-140.762,-29.313,-11.027,-4.967,26.86,-0.06247,-0.67999,0.10678,-0.72263,0,0.597,0.047,0.803,0.0,0.0,0.122,3.538,-36.645,-123.442,-20.207,-8.16,-5.053,25.94,-0.45792,0.26282,0.17465,0.83102,6,0.29,0.034,0.952,-0.427,-0.793,-0.366,2.06,-16.82,169.36,-8.693,-10.267,-32.547,29.43,0.0892,0.14697,0.00409,0.98505,4,0.957,0.068,0.225,0.122,-0.061,0.0,17.045,-75.976,-175.023,-29.393,-14.327,-2.647,29.43,-0.12494,0.60303,0.1431,0.77469,2
1,1.017,-0.071,0.053,0.061,0.0,0.0,-52.938,-85.012,-140.735,-29.313,-11.027,-4.967,26.86,-0.06247,-0.67999,0.10678,-0.72263,1,0.598,0.048,0.803,-0.183,0.0,0.122,3.532,-36.645,-123.426,-20.207,-8.16,-5.053,25.94,-0.45792,0.26282,0.17465,0.83102,7,0.288,0.043,0.952,-0.061,-0.854,-1.038,2.054,-16.837,169.349,-8.693,-10.267,-32.547,29.43,0.0892,0.14697,0.00409,0.98505,5,0.956,0.068,0.224,0.0,-0.061,0.0,17.051,-75.981,-175.029,-29.393,-14.327,-2.647,29.43,-0.12494,0.60303,0.1431,0.77469,3
2,1.018,-0.071,0.053,0.0,0.244,0.0,-52.921,-85.012,-140.757,-29.313,-11.027,-4.967,26.86,-0.06247,-0.67999,0.10678,-0.72263,8,0.6,0.055,0.803,0.0,0.0,0.0,3.532,-36.645,-123.415,-20.207,-8.16,-5.053,25.94,-0.45792,0.26282,0.17465,0.83102,12,0.293,0.044,0.957,-0.916,-1.343,-0.061,2.054,-16.853,169.327,-8.693,-10.267,-32.547,29.43,0.0892,0.14697,0.00409,0.98505,14,0.957,0.073,0.226,0.0,0.0,0.0,17.056,-75.981,-175.034,-29.393,-14.327,-2.647,29.43,-0.12494,0.60303,0.1431,0.77469,10
3,1.018,-0.071,0.053,0.122,0.305,0.0,-52.877,-85.007,-140.812,-29.313,-11.027,-4.967,26.86,-0.06247,-0.67999,0.10678,-0.72263,9,0.601,0.051,0.806,0.061,-0.061,0.61,3.527,-36.639,-123.393,-20.207,-8.16,-5.053,25.94,-0.45792,0.26282,0.17465,0.83102,13,0.292,0.038,0.953,-1.282,-1.404,1.038,2.038,-16.88,169.343,-8.693,-10.267,-32.547,29.43,0.0892,0.14697,0.00409,0.98505,15,0.96,0.073,0.226,0.244,0.0,0.0,17.062,-75.981,-175.04,-29.393,-14.327,-2.647,29.43,-0.12494,0.60303,0.1431,0.77469,11
4,1.019,-0.071,0.053,0.061,0.549,0.0,-52.806,-85.007,-140.889,-29.313,-11.027,-4.967,26.86,-0.06247,-0.67999,0.10678,-0.72263,22,0.599,0.051,0.804,0.061,0.0,0.732,3.521,-36.645,-123.365,-20.207,-8.16,-5.053,25.94,-0.45792,0.26282,0.17465,0.83102,18,0.29,0.035,0.952,-0.916,-1.465,1.221,2.01,-16.908,169.376,-8.693,-10.267,-32.547,29.43,0.0892,0.14697,0.00409,0.98505,24,0.961,0.07,0.225,0.183,-0.061,0.0,17.073,-75.987,-175.045,-29.393,-14.327,-2.647,29.43,-0.12494,0.60303,0.1431,0.77469,16
5,1.019,-0.07,0.053,0.0,0.549,0.0,-52.712,-84.996,-140.982,-29.313,-11.027,-4.967,26.86,-0.06247,-0.67999,0.10678,-0.72263,23,0.597,0.05,0.804,0.122,0.061,0.61,3.51,-36.645,-123.338,-20.207,-8.16,-5.053,25.94,-0.45792,0.26282,0.17465,0.83102,19,0.29,0.032,0.951,-0.427,-0.977,0.916,1.989,-16.935,169.387,-8.693,-10.267,-32.547,29.43,0.0892,0.14697,0.00409,0.98505,25,0.96,0.071,0.226,0.244,-0.122,0.0,17.084,-75.987,-175.051,-29.393,-14.327,-2.647,29.43,-0.12494,0.60303,0.1431,0.77469,17
6,1.017,-0.07,0.053,0.122,0.122,0.0,-52.657,-84.996,-141.031,-28.9,-10.767,-4.513,26.86,-0.06247,-0.67999,0.10678,-0.72263,30,0.598,0.047,0.804,0.183,0.061,0.366,3.51,-36.639,-123.311,-20.207,-8.16,-5.053,25.94,-0.45792,0.26282,0.17465,0.83102,26,0.291,0.032,0.952,-0.244,-0.427,0.916,1.983,-16.952,169.371,-8.093,-9.687,-33.253,29.43,0.0892,0.14697,0.00409,0.98505,28,0.958,0.073,0.227,0.305,0.0,0.305,17.078,-75.992,-175.04,-29.393,-14.327,-2.647,29.43,-0.12494,0.60303,0.1431,0.77469,20
7,1.017,-0.069,0.053,0.244,0.061,0.0,-52.641,-84.996,-141.037,-28.9,-10.767,-4.513,26.86,-0.06247,-0.67999,0.10678,-0.72263,31,0.599,0.046,0.803,0.122,0.0,0.183,3.505,-36.639,-123.289,-20.207,-8.16,-5.053,25.94,-0.45792,0.26282,0.17465,0.83102,27,0.291,0.031,0.952,-0.366,-0.488,1.404,1.972,-16.963,169.371,-8.093,-9.687,-33.253,29.43,0.0892,0.14697,0.00409,0.98505,29,0.957,0.074,0.226,0.244,0.061,0.244,17.067,-75.992,-175.023,-29.393,-14.327,-2.647,29.43,-0.12494,0.60303,0.1431,0.77469,21
8,1.018,-0.068,0.053,0.0,0.244,0.0,-52.619,-84.99,-141.075,-28.9,-10.767,-4.513,26.86,-0.06247,-0.67999,0.10678,-0.72263,38,0.598,0.046,0.803,0.0,-0.061,0.061,3.505,-36.639,-123.272,-20.207,-8.16,-5.053,25.94,-0.45792,0.26282,0.17465,0.83102,34,0.29,0.029,0.951,-0.122,-0.122,1.404,1.956,-16.968,169.387,-8.093,-9.687,-33.253,29.43,0.0892,0.14697,0.00409,0.98505,36,0.957,0.073,0.226,0.061,0.061,0.183,17.062,-75.998,-175.012,-29.393,-14.327,-2.647,29.43,-0.12494,0.60303,0.1431,0.77469,32
9,1.019,-0.068,0.053,-0.122,0.305,0.0,-52.57,-84.99,-141.136,-28.9,-10.767,-4.513,26.86,-0.06247,-0.67999,0.10678,-0.72263,39,0.598,0.047,0.805,0.0,0.0,0.0,3.505,-36.639,-123.261,-20.207,-8.16,-5.053,25.94,-0.45792,0.26282,0.17465,0.83102,35,0.291,0.029,0.953,-0.244,0.0,0.549,1.95,-16.974,169.409,-8.093,-9.687,-33.253,29.43,0.0892,0.14697,0.00409,0.98505,37,0.958,0.072,0.226,0.0,0.0,0.0,17.067,-75.998,-175.012,-29.393,-14.327,-2.647,29.43,-0.12494,0.60303,0.1431,0.77469,33
10,1.018,-0.069,0.054,0.0,0.061,0.0,-52.542,-84.99,-141.18,-28.9,-10.767,-4.513,26.86,-0.06223,-0.67978,0.10645,-0.7229,42,0.598,0.048,0.806,0.0,0.061,-0.183,3.505,-36.639,-123.25,-20.207,-8.16,-5.053,25.94,-0.45792,0.26282,0.17465,0.83102,46,0.292,0.031,0.953,0.0,0.183,0.061,1.945,-16.974,169.42,-8.093,-9.687,-33.253,29.43,0.08884,0.14847,0.00317,0.98486,44,0.958,0.072,0.226,-0.061,0.0,0.0,17.073,-75.998,-175.018,-29.393,-14.327,-2.647,29.43,-0.12494,0.60303,0.1431,0.77469,40
11,1.017,-0.07,0.055,0.0,0.0,0.0,-52.537,-84.99,-141.196,-28.9,-10.767,-4.513,26.86,-0.06223,-0.67978,0.10645,-0.7229,43,0.597,0.047,0.806,0.183,0.122,-0.305,3.51,-36.639,-123.245,-20.207,-8.16,-5.053,25.94,-0.45792,0.26282,0.17465,0.83102,47,0.288,0.032,0.955,0.183,-0.305,0.244,1.945,-16.968,169.431,-8.093,-9.687,-33.253,29.43,0.08884,0.14847,0.00317,0.98486,45,0.958,0.072,0.226,-0.061,0.061,0.0,17.078,-75.998,-175.018,-29.393,-14.327,-2.647,29.43,-0.12494,0.60303,0.1431,0.77469,41
12,1.017,-0.071,0.055,-0.061,0.0,0.0,-52.537,-84.99,-141.202,-28.9,-10.767,-4.513,26.86,-0.06223,-0.67978,0.10645,-0.7229,52,0.597,0.048,0.807,0.061,0.122,-0.244,3.516,-36.634,-123.245,-19.533,-8.513,-5.367,25.94,-0.45792,0.26282,0.17465,0.83102,48,0.29,0.033,0.954,0.122,-0.61,0.183,1.945,-16.979,169.448,-8.093,-9.687,-33.253,29.43,0.08884,0.14847,0.00317,0.98486,50,0.958,0.071,0.227,-0.122,0.122,-0.061,17.084,-75.998,-175.023,-29.393,-14.327,-2.647,29.43,-0.12494,0.60303,0.1431,0.77469,54
13,1.017,-0.071,0.054,-0.183,0.061,0.0,-52.537,-84.99,-141.229,-28.9,-10.767,-4.513,26.86,-0.06223,-0.67978,0.10645,-0.7229,53,0.598,0.05,0.804,0.061,-0.122,-0.061,3.516,-36.634,-123.234,-19.533,-8.513,-5.367,25.94,-0.45792,0.26282,0.17465,0.83102,49,0.292,0.034,0.952,-0.122,-0.183,-0.183,1.945,-16.985,169.486,-8.093,-9.687,-33.253,29.43,0.08884,0.14847,0.00317,0.98486,51,0.957,0.071,0.227,-0.183,0.122,-0.122,17.095,-75.992,-175.034,-29.393,-14.327,-2.647,29.43,-0.12494,0.60303,0.1431,0.77469,55
14,1.017,-0.071,0.056,-0.122,0.122,0.0,-52.52,-84.99,-141.273,-28.9,-10.767,-4.513,26.86,-0.06223,-0.67978,0.10645,-0.7229,60,0.598,0.05,0.803,0.122,-0.183,0.0,3.521,-36.634,-123.228,-19.533,-8.513,-5.367,25.94,-0.45792,0.26282,0.17465,0.83102,56,0.292,0.034,0.949,0.122,0.061,-0.122,1.945,-16.99,169.519,-8.093,-9.687,-33.253,29.43,0.08884,0.14847,0.00317,0.98486,62,0.958,0.07,0.227,-0.122,0.0,-0.183,17.111,-75.992,-175.051,-29.947,-14.14,-2.233,29.43,-0.12494,0.60303,0.1431,0.77469,58
15,1.016,-0.072,0.055,-0.122,0.0,0.0,-52.509,-84.99,-141.323,-28.9,-10.767,-4.513,26.86,-0.06223,-0.67978,0.10645,-0.7229,61,0.598,0.049,0.803,0.366,0.0,0.0,3.521,-36.634,-123.217,-19.533,-8.513,-5.367,25.94,-0.45792,0.26282,0.17465,0.83102,57,0.292,0.035,0.95,0.244,0.305,0.0,1.95,-16.985,169.557,-8.093,-9.687,-33.253,29.43,0.08884,0.14847,0.00317,0.98486,63,0.958,0.069,0.227,0.0,0.0,-0.122,17.122,-75.992,-175.067,-29.947,-14.14,-2.233,29.43,-0.12494,0.60303,0.1431,0.77469,59
16,1.016,-0.072,0.055,0.0,0.0,0.0,-52.509,-84.99,-141.339,-28.9,-10.767,-4.513,26.86,-0.06223,-0.67978,0.10645,-0.7229,64,0.597,0.05,0.803,0.305,0.122,0.183,3.527,-36.634,-123.206,-19.533,-8.513,-5.367,25.94,-0.45969,0.26245,0.17508,0.83008,70,0.29,0.039,0.95,0.0,0.366,0.244,1.956,-16.979,169.59,-8.093,-9.687,-33.253,29.43,0.08884,0.14847,0.00317,0.98486,66,0.958,0.069,0.226,0.122,0.061,0.0,17.128,-75.992,-175.073,-29.947,-14.14,-2.233,29.43,-0.12494,0.60303,0.1431,0.77469,68
17,1.017,-0.072,0.055,0.183,0.183,0.0,-52.493,-84.985,-141.367,-28.9,-10.767,-4.513,26.86,-0.06223,-0.67978,0.10645,-0.7229,65,0.598,0.051,0.803,0.305,0.122,0.366,3.532,-36.634,-123.19,-19.533,-8.513,-5.367,25.94,-0.45969,0.26245,0.17508,0.83008,71,0.29,0.033,0.953,0.183,0.366,0.549,1.956,-16.974,169.645,-8.093,-9.687,-33.253,29.43,0.08884,0.14847,0.00317,0.98486,67,0.956,0.069,0.226,0.061,0.122,0.0,17.133,-75.992,-175.073,-29.947,-14.14,-2.233,29.43,-0.12494,0.60303,0.1431,0.77469,69
18,1.019,-0.071,0.054,0.061,0.305,0.0,-52.443,-84.985,-141.4,-28.9,-10.767,-4.513,26.86,-0.06223,-0.67978,0.10645,-0.7229,72,0.598,0.047,0.806,0.366,0.0,0.366,3.532,-36.628,-123.168,-19.533,-8.513,-5.367,25.94,-0.45969,0.26245,0.17508,0.83008,78,0.292,0.029,0.955,0.0,0.122,-0.122,1.956,-16.968,169.684,-8.093,-9.687,-33.253,29.43,0.08884,0.14847,0.00317,0.98486,74,0.957,0.071,0.225,0.0,0.122,0.061,17.128,-75.992,-175.067,-29.947,-14.14,-2.233,29.43,-0.12494,0.60303,0.1431,0.77469,76
19,1.019,-0.07,0.053,0.0,0.305,0.0,-52.394,-84.979,-141.438,-28.9,-10.767,-4.513,26.86,-0.06223,-0.67978,0.10645,-0.7229,73,0.598,0.047,0.807,0.122,0.0,0.183,3.532,-36.628,-123.151,-19.533,-8.513,-5.367,25.94,-0.45969,0.26245,0.17508,0.83008,79,0.288,0.034,0.955,0.0,0.0,-0.183,1.956,-16.968,169.7,-8.093,-9.687,-33.253,29.43,0.08884,0.14847,0.00317,0.98486,75,0.959,0.072,0.226,0.0,0.122,0.122,17.117,-75.992,-175.062,-29.947,-14.14,-2.233,29.43,-0.12494,0.60303,0.1431,0.77469,77
20,1.019,-0.07,0.053,0.0,0.305,0.0,-52.339,-84.974,-141.482,-28.9,-10.767,-4.513,26.86,-0.06223,-0.67978,0.10645,-0.7229,80,0.597,0.049,0.806,0.0,0.061,0.122,3.532,-36.628,-123.135,-19.533,-8.513,-5.367,25.94,-0.45969,0.26245,0.17508,0.83008,84,0.289,0.033,0.954,-0.122,-0.305,0.0,1.956,-16.968,169.717,-8.093,-9.687,-33.253,29.43,0.08884,0.14847,0.00317,0.98486,86,0.959,0.072,0.226,0.0,0.122,0.122,17.111,-75.992,-175.051,-29.947,-14.14,-2.233,29.43,-0.12509,0.60312,0.14337,0.77457,82
21,1.019,-0.07,0.053,0.0,0.183,0.0,-52.3,-84.974,-141.526,-28.9,-10.767,-4.513,26.86,-0.06223,-0.67978,0.10645,-0.7229,81,0.598,0.049,0.805,-0.061,0.183,0.061,3.527,-36.628,-123.124,-19.533,-8.513,-5.367,25.94,-0.45969,0.26245,0.17508,0.83008,85,0.292,0.031,0.951,-0.061,-0.122,-0.366,1.956,-16.974,169.733,-8.093,-9.687,-33.253,29.43,0.08884,0.14847,0.00317,0.98486,87,0.959,0.072,0.226,0.0,0.061,0.0,17.111,-75.992,-175.051,-29.947,-14.14,-2.233,29.43,-0.12509,0.60312,0.14337,0.77457,83
22,1.018,-0.07,0.052,0.0,0.244,0.0,-52.267,-84.968,-141.57,-28.9,-10.767,-4.513,26.86,-0.06223,-0.67978,0.10645,-0.7229,90,0.599,0.048,0.803,0.0,0.427,0.0,3.527,-36.623,-123.113,-19.533,-8.513,-5.367,25.94,-0.45969,0.26245,0.17508,0.83008,88,0.292,0.032,0.953,0.122,-0.427,-0.244,1.961,-16.979,169.733,-8.813,-10.2,-33.46,29.43,0.08884,0.14847,0.00317,0.98486,94,0.958,0.071,0.225,0.0,0.122,0.0,17.117,-75.992,-175.056,-29.947,-14.14,-2.233,29.43,-0.12509,0.60312,0.14337,0.77457,92
23,1.018,-0.069,0.053,0.122,0.366,0.0,-52.213,-84.968,-141.625,-28.9,-10.767,-4.513,26.86,-0.06223,-0.67978,0.10645,-0.7229,91,0.597,0.049,0.805,0.183,0.488,0.0,3.527,-36.612,-123.102,-19.533,-8.513,-5.367,25.94,-0.45969,0.26245,0.17508,0.83008,89,0.289,0.032,0.953,0.671,-0.977,-0.366,1.972,-16.99,169.755,-8.813,-10.2,-33.46,29.43,0.08884,0.14847,0.00317,0.98486,95,0.957,0.071,0.224,0.061,0.0,-0.061,17.128,-75.992,-175.062,-29.947,-14.14,-2.233,29.43,-0.12509,0.60312,0.14337,0.77457,93
24,1.018,-0.07,0.053,0.122,0.427,0.0,-52.147,-84.963,-141.68,-28.9,-10.767,-4.513,26.86,-0.06223,-0.67978,0.10645,-0.7229,100,0.595,0.048,0.807,0.0,0.549,-0.122,3.527,-36.601,-123.091,-19.533,-8.513,-5.367,25.94,-0.45969,0.26245,0.17508,0.83008,98,0.29,0.034,0.956,0.61,-1.343,-0.854,1.989,-17.012,169.772,-8.813,-10.2,-33.46,29.43,0.08554,0.14886,0.00391,0.98511,102,0.958,0.072,0.223,0.122,0.0,-0.122,17.144,-75.992,-175.078,-29.947,-14.14,-2.233,29.43,-0.12509,0.60312,0.14337,0.77457,96
25,1.018,-0.071,0.054,0.0,0.549,0.0,-52.064,-84.957,-141.746,-28.9,-10.767,-4.513,26.86,-0.06223,-0.67978,0.10645,-0.7229,101,0.597,0.05,0.808,-0.061,0.549,-0.183,3.527,-36.59,-123.085,-19.533,-8.513,-5.367,25.94,-0.45969,0.26245,0.17508,0.83008,99,0.29,0.036,0.956,0.366,-1.709,-0.671,2.0,-17.045,169.772,-8.813,-10.2,-33.46,29.43,0.08554,0.14886,0.00391,0.98511,103,0.958,0.072,0.225,0.0,-0.061,-0.122,17.161,-75.992,-175.089,-29.947,-14.14,-2.233,29.43,-0.12509,0.60312,0.14337,0.77457,97
26,1.019,-0.07,0.054,-0.122,0.488,0.0,-51.982,-84.952,-141.833,-28.893,-11.16,-4.613,26.86,-0.06223,-0.67978,0.10645,-0.7229,108,0.597,0.05,0.808,-0.122,0.427,-0.244,3.532,-36.579,-123.08,-19.533,-8.513,-5.367,25.94,-0.45969,0.26245,0.17508,0.83008,104,0.293,0.034,0.955,0.488,-1.892,-1.221,2.016,-17.078,169.755,-8.813,-10.2,-33.46,29.43,0.08554,0.14886,0.00391,0.98511,106,0.958,0.071,0.225,0.0,0.0,-0.122,17.172,-75.998,-175.106,-29.947,-14.14,-2.233,29.43,-0.12509,0.60312,0.14337,0.77457,110
27,1.019,-0.071,0.055,-0.061,0.366,0.0,-51.916,-84.946,-141.905,-28.893,-11.16,-4.613,26.86,-0.06223,-0.67978,0.10645,-0.7229,109,0.596,0.05,0.808,-0.366,0.427,-0.305,3.527,-36.568,-123.08,-19.533,-8.513,-5.367,25.94,-0.45969,0.26245,0.17508,0.83008,105,0.293,0.035,0.954,-0.183,-2.075,-2.075,2.027,-17.111,169.733,-8.813,-10.2,-33.46,29.43,0.08554,0.14886,0.00391,0.98511,107,0.959,0.071,0.227,0.0,-0.061,-0.122,17.188,-75.998,-175.117,-29.947,-14.14,-2.233,29.43,-0.12509,0.60312,0.14337,0.77457,111
28,1.018,-0.071,0.055,-0.061,0.122,0.0,-51.894,-84.946,-141.938,-28.893,-11.16,-4.613,26.86,-0.06305,-0.6792,0.10709,-0.7233,112,0.596,0.052,0.807,-0.244,0.305,-0.122,3.527,-36.557,-123.074,-19.533,-8.513,-5.367,25.94,-0.45969,0.26245,0.17508,0.83008,116,0.295,0.041,0.952,0.0,-1.892,-1.526,2.038,-17.15,169.7,-8.813,-10.2,-33.46,29.43,0.08554,0.14886,0.00391,0.98511,114,0.959,0.073,0.227,0.0,0.0,-0.122,17.205,-75.998,-175.133,-29.947,-14.14,-2.233,29.43,-0.12509,0.60312,0.14337,0.77457,122
29,1.017,-0.07,0.056,0.0,0.061,0.0,-51.883,-84.946,-141.954,-28.893,-11.16,-4.613,26.86,-0.06305,-0.6792,0.10709,-0.7233,113,0.594,0.051,0.807,0.0,0.427,0.0,3.521,-36.552,-123.069,-19.533,-8.513,-5.367,25.94,-0.45969,0.26245,0.17508,0.83008,117,0.296,0.039,0.951,0.183,-1.953,-0.916,2.049,-17.183,169.667,-8.813,-10.2,-33.46,29.43,0.08554,0.14886,0.00391,0.98511,115,0.958,0.072,0.227,0.0,0.0,-0.122,17.221,-75.998,-175.144,-29.947,-14.14,-2.233,29.43,-0.12509,0.60312,0.14337,0.77457,123
30,1.017,-0.07,0.057,0.061,0.0,0.0,-51.883,-84.946,-141.965,-28.893,-11.16,-4.613,26.86,-0.06305,-0.6792,0.10709,-0.7233,120,0.592,0.051,0.808,0.0,0.366,0.183,3.521,-36.541,-123.058,-19.867,-8.34,-4.9,25.94,-0.45969,0.26245,0.17508,0.83008,118,0.292,0.039,0.951,-0.183,-2.075,-0.549,2.054,-17.221,169.634,-8.813,-10.2,-33.46,29.43,0.08554,0.14886,0.00391,0.98511,124,0.957,0.072,0.227,0.0,-0.122,-0.061,17.232,-76.003,-175.155,-29.947,-14.14,-2.233,29.43,-0.12509,0.60312,0.14337,0.77457,128
31,1.016,-0.07,0.058,0.0,0.0,0.0,-51.888,-84.946,-141.971,-28.893,-11.16,-4.613,26.86,-0.06305,-0.6792,0.10709,-0.7233,121,0.596,0.052,0.806,0.0,0.122,0.305,3.521,-36.535,-123.041,-19.867,-8.34,-4.9,25.94,-0.45969,0.26245,0.17508,0.83008,119,0.299,0.04,0.948,-0.366,-1.526,-0.183,2.054,-17.254,169.618,-8.813,-10.2,-33.46,29.43,0.08554,0.14886,0.00391,0.98511,125,0.956,0.071,0.228,0.0,-0.122,0.0,17.243,-76.003,-175.161,-29.947,-14.14,-2.233,29.43,-0.12509,0.60312,0.14337,0.77457,129
32,1.016,-0.07,0.057,0.061,-0.183,0.0,-51.905,-84.946,-141.954,-28.893,-11.16,-4.613,26.86,-0.06305,-0.6792,0.10709,-0.7233,126,0.596,0.051,0.802,0.122,0.0,0.427,3.516,-36.53,-123.025,-19.867,-8.34,-4.9,25.94,-0.45969,0.26245,0.17508,0.83008,130,0.296,0.038,0.947,-0.366,-0.854,0.0,2.049,-17.276,169.623,-8.813,-10.2,-33.46,29.43,0.08554,0.14886,0.00391,0.98511,134,0.956,0.071,0.228,0.0,-0.122,0.0,17.249,-76.009,-175.172,-29.947,-14.14,-2.233,29.43,-0.12509,0.60312,0.14337,0.77457,132
33,1.017,-0.07,0.058,0.183,-0.244,0.0,-51.938,-84.952,-141.921,-28.893,-11.16,-4.613,26.86,-0.06305,-0.6792,0.10709,-0.7233,127,0.598,0.05,0.803,0.183,0.061,0.549,3.516,-36.53,-123.003,-19.867,-8.34,-4.9,25.94,-0.45969,0.26245,0.17508,0.83008,131,0.302,0.038,0.95,-0.793,-1.221,0.366,2.043,-17.298,169.629,-8.813,-10.2,-33.46,29.43,0.08554,0.14886,0.00391,0.98511,135,0.957,0.072,0.229,0.061,-0.183,0.0,17.26,-76.014,-175.177,-29.947,-14.14,-2.233,29.43,-0.12509,0.60312,0.14337,0.77457,133
34,1.017,-0.071,0.057,0.244,-0.366,0.0,-51.987,-84.957,-141.866,-28.893,-11.16,-4.613,26.86,-0.06305,-0.6792,0.10709,-0.7233,136,0.601,0.049,0.802,0.366,0.244,0.671,3.51,-36.53,-122.981,-19.867,-8.34,-4.9,25.94,-0.4613,0.26138,0.17505,0.82953,138,0.306,0.039,0.947,-0.793,-1.709,1.282,2.021,-17.325,169.629,-8.813,-10.2,-33.46,29.43,0.08554,0.14886,0.00391,0.98511,140,0.959,0.071,0.227,0.244,-0.183,0.0,17.271,-76.014,-175.182,-29.947,-14.14,-2.233,29.43,-0.12509,0.60312,0.14337,0.77457,142
35,1.018,-0.07,0.055,0.244,0.0,0.0,-51.993,-84.957,-141.855,-28.893,-11.16,-4.613,26.86,-0.06305,-0.6792,0.10709,-0.7233,137,0.608,0.049,0.801,0.793,0.61,0.793,3.51,-36.519,-122.953,-19.867,-8.34,-4.9,25.94,-0.4613,0.26138,0.17505,0.82953,139,0.308,0.036,0.945,-0.122,-1.709,2.563,2.005,-17.358,169.64,-8.813,-10.2,-33.46,29.43,0.08554,0.14886,0.00391,0.98511,141,0.961,0.069,0.223,0.183,0.061,0.0,17.276,-76.014,-175.188,-29.947,-14.14,-2.233,29.43,-0.12509,0.60312,0.14337,0.77457,143
36,1.019,-0.07,0.055,0.244,0.366,0.0,-51.932,-84.952,-141.91,-28.893,-11.16,-4.613,26.86,-0.06305,-0.6792,0.10709,-0.7233,144,0.616,0.049,0.794,1.709,0.854,1.16,3.521,-36.508,-122.937,-19.867,-8.34,-4.9,25.94,-0.4613,0.26138,0.17505,0.82953,150,0.326,0.038,0.943,-0.061,-1.587,2.991,1.989,-17.397,169.673,-8.473,-10.38,-33.42,29.43,0.08554,0.14886,0.00391,0.98511,148,0.966,0.069,0.223,0.427,0.183,0.0,17.281,-76.014,-175.188,-30.013,-14.02,-2.293,29.43,-0.12509,0.60312,0.14337,0.77457,146
37,1.02,-0.071,0.054,0.305,0.549,0.0,-51.839,-84.946,-142.009,-28.893,-11.16,-4.613,26.86,-0.06305,-0.6792,0.10709,-0.7233,145,0.618,0.045,0.791,4.211,1.404,2.258,3.554,-36.486,-122.915,-19.867,-8.34,-4.9,25.94,-0.4613,0.26138,0.17505,0.82953,151,0.329,0.038,0.939,2.563,-1.709,6.226,1.989,-17.435,169.75,-8.473,-10.38,-33.42,29.43,0.08554,0.14886,0.00391,0.98511,149,0.969,0.064,0.22,0.671,0.427,0.0,17.287,-76.009,-175.188,-30.013,-14.02,-2.293,29.43,-0.12509,0.60312,0.14337,0.77457,147
38,1.021,-0.073,0.05,0.427,0.977,0.0,-51.68,-84.935,-142.169,-28.893,-11.16,-4.613,26.86,-0.06305,-0.6792,0.10709,-0.7233,152,0.614,0.035,0.792,6.409,2.197,3.357,3.62,-36.464,-122.871,-19.867,-8.34,-4.9,25.94,-0.4613,0.26138,0.17505,0.82953,154,0.32,0.022,0.939,4.211,-2.38,9.094,2.01,-17.485,169.893,-8.473,-10.38,-33.42,29.43,0.08554,0.14886,0.00391,0.98511,158,0.969,0.056,0.213,0.977,0.916,0.0,17.292,-76.003,-175.177,-30.013,-14.02,-2.293,29.43,-0.12509,0.60312,0.14337,0.77457,156
39,1.024,-0.075,0.046,0.244,1.953,-0.305,-51.356,-84.919,-142.493,-28.893,-11.16,-4.613,26.86,-0.06305,-0.6792,0.10709,-0.7233,153,0.604,0.032,0.805,4.883,2.563,3.418,3.675,-36.425,-122.811,-19.867,-8.34,-4.9,25.94,-0.4613,0.26138,0.17505,0.82953,155,0.302,0.016,0.958,0.671,-3.296,7.446,2.01,-17.556,170.024,-8.473,-10.38,-33.42,29.43,0.08554,0.14886,0.00391,0.98511,159,0.966,0.052,0.211,1.526,1.282,0.0,17.281,-75.987,-175.15,-30.013,-14.02,-2.293,29.43,-0.12509,0.60312,0.14337,0.77457,157
40,1.025,-0.077,0.042,0.183,2.869,-0.61,-50.85,-84.891,-142.993,-28.893,-11.16,-4.613,26.86,-0.06305,-0.6792,0.10709,-0.7233,164,0.597,0.052,0.817,2.319,1.587,2.991,3.691,-36.398,-122.745,-19.867,-8.34,-4.9,25.94,-0.4613,0.26138,0.17505,0.82953,162,0.293,0.038,0.962,-0.977,-1.831,5.31,1.967,-17.617,170.129,-8.473,-10.38,-33.42,29.43,0.08368,0.15317,0.00409,0.98459,166,0.963,0.06,0.21,2.136,1.526,-0.488,17.281,-75.97,-175.111,-30.013,-14.02,-2.293,29.43,-0.12561,0.60284,0.14426,0.77451,160
41,1.025,-0.076,0.05,0.732,3.601,-0.854,-50.191,-84.864,-143.657,-28.893,-11.16,-4.613,26.86,-0.06305,-0.6792,0.10709,-0.7233,165,0.587,0.074,0.816,1.465,0.244,2.93,3.68,-36.392,-122.684,-19.867,-8.34,-4.9,25.94,-0.4613,0.26138,0.17505,0.82953,163,0.289,0.051,0.961,-1.221,-0.244,2.991,1.917,-17.644,170.2,-8.473,-10.38,-33.42,29.43,0.08368,0.15317,0.00409,0.98459,167,0.961,0.076,0.218,2.686,1.587,-0.549,17.32,-75.948,-175.089,-30.013,-14.02,-2.293,29.43,-0.12561,0.60284,0.14426,0.77451,161
42,1.021,-0.074,0.051,1.404,3.479,-0.854,-49.515,-84.836,-144.344,-28.987,-11.073,-5.313,26.86,-0.06305,-0.6792,0.10709,-0.7233,172,0.584,0.074,0.817,0.793,0.122,2.808,3.658,-36.392,-122.618,-19.867,-8.34,-4.9,25.94,-0.4613,0.26138,0.17505,0.82953,168,0.302,0.044,0.955,-3.052,0.244,1.587,1.862,-17.65,170.233,-8.473,-10.38,-33.42,29.43,0.08368,0.15317,0.00409,0.98459,176,0.956,0.087,0.221,2.808,1.526,-0.427,17.369,-75.921,-175.067,-30.013,-14.02,-2.293,29.43,-0.12561,0.60284,0.14426,0.77451,170
43,1.017,-0.068,0.056,1.831,2.686,-0.732,-48.955,-84.809,-144.899,-28.987,-11.073,-5.313,26.86,-0.06305,-0.6792,0.10709,-0.7233,173,0.588,0.069,0.812,0.183,0.488,1.892,3.636,-36.392,-122.563,-19.867,-8.34,-4.9,25.94,-0.4613,0.26138,0.17505,0.82953,169,0.311,0.032,0.943,-1.831,0.488,0.671,1.813,-17.639,170.25,-8.473,-10.38,-33.42,29.43,0.08368,0.15317,0.00409,0.98459,177,0.952,0.092,0.226,1.709,1.465,0.122,17.408,-75.899,-175.051,-30.013,-14.02,-2.293,29.43,-0.12561,0.60284,0.14426,0.77451,171
44,1.015,-0.064,0.062,1.465,1.953,-0.366,-48.56,-84.792,-145.294,-28.987,-11.073,-5.313,26.86,-0.06305,-0.6792,0.10709,-0.7233,180,0.592,0.056,0.801,0.671,0.61,0.854,3.631,-36.387,-122.547,-19.867,-8.34,-4.9,25.94,-0.4613,0.26138,0.17505,0.82953,178,0.305,0.021,0.935,0.732,-0.793,0.854,1.802,-17.644,170.261,-8.473,-10.38,-33.42,29.43,0.08368,0.15317,0.00409,0.98459,182,0.952,0.094,0.232,0.732,1.282,0.793,17.391,-75.883,-175.001,-30.013,-14.02,-2.293,29.43,-0.12561,0.60284,0.14426,0.77451,174
45,1.016,-0.065,0.065,0.854,1.465,0.061,-48.318,-84.776,-145.547,-28.987,-11.073,-5.313,26.86,-0.06305,-0.6792,0.10709,-0.7233,181,0.593,0.035,0.802,0.671,1.099,0.122,3.642,-36.37,-122.552,-19.867,-8.34,-4.9,25.94,-0.4613,0.26138,0.17505,0.82953,179,0.295,0.013,0.943,1.648,-2.319,2.075,1.818,-17.677,170.272,-8.473,-10.38,-33.42,29.43,0.08368,0.15317,0.00409,0.98459,183,0.955,0.083,0.234,-0.122,0.977,1.099,17.331,-75.866,-174.913,-30.013,-14.02,-2.293,29.43,-0.12561,0.60284,0.14426,0.77451,175
46,1.015,-0.068,0.063,0.61,0.854,0.122,-48.186,-84.76,-145.673,-28.987,-11.073,-5.313,26.86,-0.064,-0.677,0.1066,-0.72534,184,0.585,0.035,0.809,0.061,1.404,-0.061,3.647,-36.343,-122.569,-19.867,-8.34,-4.9,25.94,-0.4613,0.26138,0.17505,0.82953,192,0.286,0.021,0.951,0.61,-3.235,1.099,1.829,-17.737,170.288,-8.473,-10.38,-33.42,29.43,0.08368,0.15317,0.00409,0.98459,188,0.956,0.069,0.232,-0.61,0.793,0.977,17.249,-75.861,-174.825,-30.013,-14.02,-2.293,29.43,-0.12561,0.60284,0.14426,0.77451,186
47,1.013,-0.069,0.066,0.549,0.793,0.061,-48.082,-84.754,-145.761,-28.987,-11.073,-5.313,26.86,-0.064,-0.677,0.1066,-0.72534,185,0.577,0.048,0.812,-0.122,1.465,0.061,3.642,-36.315,-122.585,-19.867,-8.34,-4.9,25.94,-0.4613,0.26138,0.17505,0.82953,193,0.291,0.036,0.947,0.183,-2.38,0.793,1.835,-17.792,170.31,-8.473,-10.38,-33.42,29.43,0.08368,0.15317,0.00409,0.98459,189,0.951,0.064,0.231,-0.549,0.916,0.549,17.166,-75.85,-174.749,-30.013,-14.02,-2.293,29.43,-0.12561,0.60284,0.14426,0.77451,187
48,1.012,-0.068,0.067,0.61,1.038,0.0,-47.928,-84.738,-145.882,-28.987,-11.073,-5.313,26.86,-0.064,-0.677,0.1066,-0.72534,190,0.581,0.056,0.812,0.305,1.465,0.366,3.642,-36.288,-122.591,-19.853,-8.647,-5.573,25.94,-0.4613,0.26138,0.17505,0.82953,196,0.3,0.039,0.95,0.671,-1.526,1.526,1.835,-17.825,170.332,-8.473,-10.38,-33.42,29.43,0.08368,0.15317,0.00409,0.98459,198,0.947,0.067,0.233,0.0,0.977,0.122,17.117,-75.833,-174.694,-30.013,-14.02,-2.293,29.43,-0.12561,0.60284,0.14426,0.77451,194
49,1.012,-0.065,0.069,0.916,1.16,0.0,-47.736,-84.727,-146.019,-28.987,-11.073,-5.313,26.86,-0.064,-0.677,0.1066,-0.72534,191,0.586,0.058,0.812,1.038,0.732,0.671,3.642,-36.26,-122.585,-19.853,-8.647,-5.573,25.94,-0.4613,0.26138,0.17505,0.82953,197,0.3,0.038,0.952,0.488,-1.526,1.526,1.84,-17.853,170.354,-8.473,-10.38,-33.42,29.43,0.08368,0.15317,0.00409,0.98459,199,0.951,0.072,0.234,0.61,0.732,0.0,17.1,-75.822,-174.661,-30.013,-14.02,-2.293,29.43,-0.12561,0.60284,0.14426,0.77451,195
50,1.014,-0.063,0.07,1.16,1.526,0.0,-47.483,-84.705,-146.223,-28.987,-11.073,-5.313,26.86,-0.064,-0.677,0.1066,-0.72534,200,0.585,0.06,0.814,1.221,0.427,0.977,3.653,-36.249,-122.574,-19.853,-8.647,-5.573,25.94,-0.4613,0.26138,0.17505,0.82953,204,0.294,0.041,0.952,0.366,-2.136,1.16,1.84,-17.886,170.392,-8.473,-10.38,-33.42,29.43,0.08368,0.15317,0.00409,0.98459,208,0.957,0.075,0.234,1.038,0.305,0.0,17.111,-75.811,-174.644,-30.013,-14.02,-2.293,29.43,-0.12561,0.60284,0.14426,0.77451,202
51,1.015,-0.062,0.072,0.916,1.831,0.0,-47.17,-84.683,-146.492,-28.987,-11.073,-5.313,26.86,-0.064,-0.677,0.1066,-0.72534,201,0.584,0.06,0.817,0.793,0.549,1.16,3.658,-36.238,-122.552,-19.853,-8.647,-5.573,25.94,-0.4613,0.26138,0.17505,0.82953,205,0.296,0.037,0.951,0.0,-2.686,0.854,1.84,-17.93,170.409,-8.473,-10.38,-33.42,29.43,0.08368,0.15317,0.00409,0.98459,209,0.957,0.076,0.237,1.038,0.122,0.122,17.128,-75.806,-174.639,-30.013,-14.02,-2.293,29.43,-0.12561,0.60284,0.14426,0.77451,203
52,1.015,-0.063,0.072,0.61,1.709,0.061,-46.873,-84.661,-146.772,-28.987,-11.073,-5.313,26.86,-0.064,-0.677,0.1066,-0.72534,210,0.584,0.057,0.814,0.549,0.854,0.977,3.658,-36.216,-122.536,-19.853,-8.647,-5.573,25.94,-0.46524,0.25793,0.17599,0.82822,212,0.302,0.031,0.95,-0.183,-3.357,0.061,1.84,-17.985,170.425,-8.86,-10.36,-32.72,29.43,0.08368,0.15317,0.00409,0.98459,214,0.955,0.078,0.239,0.732,0.122,0.244,17.139,-75.8,-174.639,-30.013,-14.02,-2.293,29.43,-0.12561,0.60284,0.14426,0.77451,206
53,1.014,-0.065,0.073,0.427,0.977,0.061,-46.664,-84.644,-146.964,-28.987,-11.073,-5.313,26.86,-0.064,-0.677,0.1066,-0.72534,211,0.581,0.053,0.813,0.549,1.038,0.61,3.664,-36.194,-122.531,-19.853,-8.647,-5.573,25.94,-0.46524,0.25793,0.17599,0.82822,213,0.298,0.027,0.95,0.244,-3.906,-0.916,1.846,-18.051,170.425,-8.86,-10.36,-32.72,29.43,0.08368,0.15317,0.00409,0.98459,215,0.953,0.079,0.239,0.305,0.122,0.488,17.133,-75.8,-174.633,-30.013,-14.02,-2.293,29.43,-0.12561,0.60284,0.14426,0.77451,207
54,1.013,-0.068,0.072,0.366,0.305,0.061,-46.566,-84.639,-147.074,-28.987,-11.073,-5.313,26.86,-0.064,-0.677,0.1066,-0.72534,218,0.579,0.05,0.816,0.305,0.854,0.183,3.664,-36.172,-122.536,-19.853,-8.647,-5.573,25.94,-0.46524,0.25793,0.17599,0.82822,216,0.298,0.03,0.953,0.0,-3.662,-1.404,1.857,-18.116,170.409,-8.86,-10.36,-32.72,29.43,0.07999,0.15836,0.00281,0.9841,220,0.95,0.078,0.238,0.0,0.061,0.61,17.106,-75.795,-174.584,-30.013,-14.02,-2.293,29.43,-0.12561,0.60284,0.14426,0.77451,222
55,1.013,-0.069,0.07,0.305,0.0,0.122,-46.533,-84.633,-147.101,-28.987,-11.073,-5.313,26.86,-0.064,-0.677,0.1066,-0.72534,219,0.579,0.051,0.815,0.0,0.305,-0.061,3.669,-36.156,-122.536,-19.853,-8.647,-5.573,25.94,-0.46524,0.25793,0.17599,0.82822,217,0.305,0.029,0.947,0.122,-3.906,-1.16,1.868,-18.182,170.403,-8.86,-10.36,-32.72,29.43,0.07999,0.15836,0.00281,0.9841,221,0.949,0.076,0.236,-0.305,0.0,0.61,17.062,-75.795,-174.507,-30.013,-14.02,-2.293,29.43,-0.12561,0.60284,0.14426,0.77451,223
56,1.015,-0.069,0.069,0.183,0.0,0.244,-46.533,-84.633,-147.101,-28.987,-11.073,-5.313,26.86,-0.064,-0.677,0.1066,-0.72534,224,0.582,0.05,0.814,-0.122,-0.122,-0.305,3.669,-36.145,-122.547,-19.853,-8.647,-5.573,25.94,-0.46524,0.25793,0.17599,0.82822,228,0.308,0.027,0.948,-0.122,-3.723,-1.526,1.879,-18.248,170.398,-8.86,-10.36,-32.72,29.43,0.07999,0.15836,0.00281,0.9841,230,0.95,0.074,0.236,-0.488,-0.244,0.549,17.023,-75.8,-174.441,-30.213,-14.207,-1.76,29.43,-0.12561,0.60284,0.14426,0.77451,226
57,1.015,-0.069,0.069,0.122,-0.427,0.305,-46.599,-84.633,-147.041,-28.987,-11.073,-5.313,26.86,-0.064,-0.677,0.1066,-0.72534,225,0.585,0.049,0.815,-0.305,-0.183,-0.488,3.675,-36.145,-122.558,-19.853,-8.647,-5.573,25.94,-0.46524,0.25793,0.17599,0.82822,229,0.312,0.03,0.948,0.0,-3.601,-2.197,1.89,-18.309,170.376,-8.86,-10.36,-32.72,29.43,0.07999,0.15836,0.00281,0.9841,231,0.953,0.071,0.235,-0.305,-0.61,0.549,16.996,-75.806,-174.386,-30.213,-14.207,-1.76,29.43,-0.12561,0.60284,0.14426,0.77451,227
58,1.017,-0.068,0.067,0.122,-0.793,0.366,-46.73,-84.633,-146.926,-28.987,-11.073,-5.313,26.86,-0.064,-0.677,0.1066,-0.72534,236,0.589,0.051,0.814,-0.793,-0.305,-0.427,3.669,-36.14,-122.569,-19.853,-8.647,-5.573,25.94,-0.46524,0.25793,0.17599,0.82822,234,0.319,0.034,0.949,-0.366,-3.174,-2.197,1.901,-18.369,170.343,-8.86,-10.36,-32.72,29.43,0.07999,0.15836,0.00281,0.9841,238,0.957,0.068,0.234,-0.305,-0.793,0.488,16.974,-75.817,-174.359,-30.213,-14.207,-1.76,29.43,-0.12561,0.60284,0.14426,0.77451,232
59,1.018,-0.067,0.066,0.244,-0.977,0.366,-46.901,-84.644,-146.772,-28.987,-11.073,-5.313,26.86,-0.064,-0.677,0.1066,-0.72534,237,0.592,0.05,0.814,-0.977,-0.366,-0.183,3.658,-36.14,-122.585,-19.853,-8.647,-5.573,25.94,-0.46524,0.25793,0.17599,0.82822,235,0.32,0.029,0.945,-0.427,-2.747,-1.648,1.906,-18.419,170.294,-8.86,-10.36,-32.72,29.43,0.07999,0.15836,0.00281,0.9841,239,0.958,0.067,0.233,-0.427,-1.038,0.488,16.957,-75.833,-174.359,-30.213,-14.207,-1.76,29.43,-0.12561,0.60284,0.14426,0.77451,233
60,1.018,-0.069,0.066,0.244,-1.282,0.305,-47.12,-84.655,-146.558,-28.94,-10.82,-4.993,26.86,-0.064,-0.677,0.1066,-0.72534,242,0.595,0.048,0.812,-0.916,-0.366,-0.244,3.642,-36.14,-122.607,-19.853,-8.647,-5.573,25.94,-0.46524,0.25793,0.17599,0.82822,240,0.323,0.025,0.945,-0.732,-2.197,-1.953,1.906,-18.457,170.244,-8.86,-10.36,-32.72,29.55,0.07999,0.15836,0.00281,0.9841,246,0.96,0.068,0.23,-0.61,-1.16,0.488,16.935,-75.855,-174.353,-30.213,-14.207,-1.76,29.43,-0.12888,0.60135,0.14606,0.77481,244
61,1.018,-0.069,0.064,0.122,-1.587,0.183,-47.368,-84.672,-146.305,-28.94,-10.82,-4.993,26.86,-0.064,-0.677,0.1066,-0.72534,243,0.596,0.046,0.811,-0.977,-0.427,-0.305,3.625,-36.145,-122.635,-19.853,-8.647,-5.573,25.94,-0.46524,0.25793,0.17599,0.82822,241,0.323,0.031,0.945,-0.977,-1.587,-2.014,1.901,-18.49,170.189,-8.86,-10.36,-32.72,29.55,0.07999,0.15836,0.00281,0.9841,247,0.961,0.068,0.229,-0.671,-1.221,0.488,16.919,-75.877,-174.375,-30.213,-14.207,-1.76,29.43,-0.12888,0.60135,0.14606,0.77481,245
62,1.017,-0.07,0.063,-0.061,-1.77,0.061,-47.637,-84.694,-146.047,-28.94,-10.82,-4.993,26.86,-0.064,-0.677,0.1066,-0.72534,250,0.596,0.048,0.809,-1.282,-0.427,-0.366,3.609,-36.145,-122.662,-19.853,-8.647,-5.573,25.94,-0.46524,0.25793,0.17599,0.82822,248,0.327,0.031,0.941,-1.343,-1.343,-1.709,1.89,-18.517,170.151,-8.86,-10.36,-32.72,29.55,0.07999,0.15836,0.00281,0.9841,256,0.961,0.067,0.228,-0.732,-1.16,0.366,16.897,-75.899,-174.391,-30.213,-14.207,-1.76,29.43,-0.12888,0.60135,0.14606,0.77481,252
63,1.017,-0.07,0.061,-0.122,-1.709,0.0,-47.895,-84.716,-145.805,-28.94,-10.82,-4.993,26.86,-0.064,-0.677,0.1066,-0.72534,251,0.596,0.049,0.805,-1.16,-0.366,-0.366,3.587,-36.151,-122.69,-19.853,-8.647,-5.573,25.94,-0.46524,0.25793,0.17599,0.82822,249,0.326,0.026,0.938,-0.854,-1.343,-1.587,1.879,-18.539,170.118,-8.86,-10.36,-32.72,29.55,0.07999,0.15836,0.00281,0.9841,257,0.959,0.069,0.225,-0.732,-0.977,0.244,16.886,-75.921,-174.424,-30.213,-14.207,-1.76,29.43,-0.12888,0.60135,0.14606,0.77481,253
64,1.017,-0.071,0.061,-0.061,-1.404,0.061,-48.115,-84.732,-145.596,-28.94,-10.82,-4.993,26.86,-0.06287,-0.6767,0.10565,-0.72583,262,0.596,0.046,0.803,-1.038,-0.366,-0.549,3.571,-36.156,-122.695,-19.853,-8.647,-5.573,25.94,-0.46524,0.25793,0.17599,0.82822,258,0.325,0.027,0.939,-0.61,-1.16,-1.831,1.873,-18.561,170.079,-8.86,-10.36,-32.72,29.55,0.07999,0.15836,0.00281,0.9841,260,0.958,0.069,0.223,-0.732,-0.793,0.183,16.875,-75.938,-174.468,-30.213,-14.207,-1.76,29.43,-0.12888,0.60135,0.14606,0.77481,254
65,1.018,-0.071,0.061,0.0,-1.099,0.0,-48.279,-84.749,-145.437,-28.94,-10.82,-4.993,26.86,-0.06287,-0.6767,0.10565,-0.72583,263,0.599,0.046,0.805,-0.977,-0.427,-0.732,3.56,-36.161,-122.712,-19.853,-8.647,-5.573,25.94,-0.46524,0.25793,0.17599,0.82822,259,0.332,0.028,0.938,-1.099,-1.282,-1.831,1.868,-18.583,170.024,-8.86,-10.36,-32.72,29.55,0.07999,0.15836,0.00281,0.9841,261,0.959,0.069,0.223,-0.61,-0.671,0.122,16.87,-75.954,-174.523,-30.213,-14.207,-1.76,29.43,-0.12888,0.60135,0.14606,0.77481,255
66,1.019,-0.071,0.06,0.0,-0.854,0.0,-48.411,-84.76,-145.311,-28.94,-10.82,-4.993,26.86,-0.06287,-0.6767,0.10565,-0.72583,266,0.601,0.046,0.802,-0.977,-0.305,-0.793,3.549,-36.167,-122.739,-20.053,-8.44,-5.507,25.94,-0.46524,0.25793,0.17599,0.82822,270,0.328,0.029,0.938,-1.221,-1.526,-2.197,1.857,-18.616,169.958,-8.86,-10.36,-32.72,29.55,0.07999,0.15836,0.00281,0.9841,268,0.962,0.067,0.222,-0.549,-0.61,0.061,16.864,-75.965,-174.556,-30.213,-14.207,-1.76,29.43,-0.12888,0.60135,0.14606,0.77481,264
67,1.02,-0.071,0.06,0.0,-0.61,-0.061,-48.499,-84.765,-145.223,-28.94,-10.82,-4.993,26.86,-0.06287,-0.6767,0.10565,-0.72583,267,0.598,0.045,0.803,-0.916,0.0,-0.854,3.543,-36.172,-122.767,-20.053,-8.44,-5.507,25.94,-0.46524,0.25793,0.17599,0.82822,271,0.327,0.029,0.942,-2.258,-2.625,-1.709,1.835,-18.655,169.893,-8.86,-10.36,-32.72,29.55,0.07999,0.15836,0.00281,0.9841,269,0.963,0.067,0.222,-0.488,-0.488,0.0,16.87,-75.981,-174.578,-30.213,-14.207,-1.76,29.43,-0.12888,0.60135,0.14606,0.77481,265
68,1.019,-0.07,0.059,-0.183,-0.488,-0.183,-48.554,-84.776,-145.195,-28.94,-10.82,-4.993,26.86,-0.06287,-0.6767,0.10565,-0.72583,272,0.595,0.045,0.808,-1.343,0.244,-0.977,3.527,-36.167,-122.8,-20.053,-8.44,-5.507,25.94,-0.4632,0.25839,0.17422,0.82959,274,0.326,0.026,0.943,-2.747,-2.747,-2.197,1.802,-18.71,169.816,-8.86,-10.36,-32.72,29.55,0.07999,0.15836,0.00281,0.9841,278,0.962,0.067,0.221,-0.549,-0.183,-0.061,16.87,-75.987,-174.6,-30.213,-14.207,-1.76,29.43,-0.12888,0.60135,0.14606,0.77481,276
69,1.019,-0.07,0.058,-0.305,-0.305,-0.244,-48.576,-84.781,-145.195,-28.94,-10.82,-4.993,26.86,-0.06287,-0.6767,0.10565,-0.72583,273,0.594,0.047,0.808,-1.465,0.244,-0.977,3.51,-36.167,-122.816,-20.053,-8.44,-5.507,25.94,-0.4632,0.25839,0.17422,0.82959,275,0.325,0.025,0.943,-2.258,-2.563,-2.38,1.763,-18.765,169.75,-8.86,-10.36,-32.72,29.55,0.07999,0.15836,0.00281,0.9841,279,0.96,0.067,0.222,-0.549,-0.061,-0.183,16.87,-75.992,-174.628,-30.213,-14.207,-1.76,29.43,-0.12888,0.60135,0.14606,0.77481,277
70,1.019,-0.069,0.058,-0.244,0.0,-0.244,-48.549,-84.787,-145.25,-28.94,-10.82,-4.993,26.86,-0.06287,-0.6767,0.10565,-0.72583,280,0.593,0.046,0.809,-1.099,0.122,-1.038,3.499,-36.161,-122.844,-20.053,-8.44,-5.507,25.94,-0.4632,0.25839,0.17422,0.82959,282,0.325,0.021,0.947,-1.77,-2.502,-2.625,1.741,-18.82,169.678,-8.86,-10.36,-32.72,29.55,0.07999,0.15836,0.00281,0.9841,286,0.959,0.069,0.223,-0.366,0.0,-0.305,16.88,-75.992,-174.672,-30.213,-14.207,-1.76,29.43,-0.12888,0.60135,0.14606,0.77481,284
71,1.019,-0.069,0.058,-0.122,0.061,-0.183,-48.527,-84.787,-145.294,-28.94,-10.82,-4.993,26.86,-0.06287,-0.6767,0.10565,-0.72583,281,0.591,0.044,0.813,-1.221,0.0,-1.221,3.494,-36.161,-122.871,-20.053,-8.44,-5.507,25.94,-0.4632,0.25839,0.17422,0.82959,283,0.326,0.023,0.947,-1.465,-2.502,-3.479,1.73,-18.869,169.623,-8.86,-10.36,-32.72,29.55,0.07999,0.15836,0.00281,0.9841,287,0.959,0.069,0.222,-0.244,0.0,-0.488,16.902,-75.998,-174.743,-30.213,-14.207,-1.76,29.43,-0.12888,0.60135,0.14606,0.77481,285
72,1.018,-0.069,0.057,-0.061,0.183,-0.183,-48.483,-84.792,-145.36,-28.94,-10.82,-4.993,26.86,-0.06287,-0.6767,0.10565,-0.72583,290,0.59,0.046,0.813,-1.587,-0.244,-1.404,3.483,-36.167,-122.91,-20.053,-8.44,-5.507,25.94,-0.4632,0.25839,0.17422,0.82959,288,0.327,0.026,0.943,-1.282,-2.319,-3.296,1.725,-18.913,169.563,-9.727,-10.04,-33.0,29.55,0.07999,0.15836,0.00281,0.9841,294,0.959,0.068,0.222,-0.305,-0.122,-0.61,16.946,-75.998,-174.82,-30.213,-14.207,-1.76,29.43,-0.12888,0.60135,0.14606,0.77481,292
73,1.019,-0.069,0.059,-0.244,0.244,-0.183,-48.433,-84.792,-145.437,-28.94,-10.82,-4.993,26.86,-0.06287,-0.6767,0.10565,-0.72583,291,0.594,0.049,0.811,-1.526,-0.549,-1.465,3.472,-36.172,-122.948,-20.053,-8.44,-5.507,25.94,-0.4632,0.25839,0.17422,0.82959,289,0.333,0.03,0.938,-0.977,-1.831,-3.479,1.725,-18.957,169.475,-9.727,-10.04,-33.0,29.55,0.07999,0.15836,0.00281,0.9841,295,0.958,0.069,0.223,-0.488,-0.244,-0.671,16.99,-76.003,-174.908,-30.213,-14.207,-1.76,29.43,-0.12888,0.60135,0.14606,0.77481,293
74,1.018,-0.068,0.059,-0.366,0.183,-0.183,-48.395,-84.792,-145.486,-28.94,-10.82,-4.993,26.86,-0.06287,-0.6767,0.10565,-0.72583,298,0.596,0.051,0.806,-1.16,-0.61,-1.282,3.461,-36.183,-122.992,-20.053,-8.44,-5.507,25.94,-0.4632,0.25839,0.17422,0.82959,296,0.334,0.032,0.934,-0.61,-1.16,-2.93,1.73,-18.984,169.376,-9.727,-10.04,-33.0,29.55,0.08893,0.16562,-0.00043,0.98212,302,0.959,0.07,0.225,-0.427,-0.366,-0.732,17.045,-76.009,-174.979,-29.96,-14.0,-2.353,29.43,-0.12888,0.60135,0.14606,0.77481,300
75,1.017,-0.07,0.061,-0.244,0.0,-0.122,-48.395,-84.792,-145.492,-28.94,-10.82,-4.993,26.86,-0.06287,-0.6767,0.10565,-0.72583,299,0.594,0.05,0.804,-0.671,-0.427,-0.977,3.461,-36.194,-123.03,-20.053,-8.44,-5.507,25.94,-0.4632,0.25839,0.17422,0.82959,297,0.328,0.033,0.934,-0.854,-0.671,-2.625,1.736,-19.001,169.299,-9.727,-10.04,-33.0,29.55,0.08893,0.16562,-0.00043,0.98212,303,0.96,0.07,0.225,-0.427,-0.366,-0.732,17.1,-76.014,-175.034,-29.96,-14.0,-2.353,29.43,-0.12888,0.60135,0.14606,0.77481,301
76,1.016,-0.07,0.062,-0.183,-0.061,-0.122,-48.4,-84.798,-145.492,-28.94,-10.82,-4.993,26.86,-0.06287,-0.6767,0.10565,-0.72583,304,0.592,0.051,0.805,-0.549,0.0,-0.793,3.461,-36.194,-123.063,-20.053,-8.44,-5.507,25.94,-0.4632,0.25839,0.17422,0.82959,306,0.328,0.034,0.936,-0.916,-0.122,-2.319,1.736,-19.012,169.222,-9.727,-10.04,-33.0,29.55,0.08893,0.16562,-0.00043,0.98212,310,0.958,0.068,0.225,-0.427,-0.183,-0.671,17.15,-76.014,-175.089,-29.96,-14.0,-2.353,29.43,-0.12888,0.60135,0.14606,0.77481,308
77,1.015,-0.07,0.063,-0.183,0.0,-0.244,-48.378,-84.803,-145.519,-28.94,-10.82,-4.993,26.86,-0.06287,-0.6767,0.10565,-0.72583,305,0.592,0.052,0.805,-0.549,0.061,-0.671,3.461,-36.194,-123.085,-20.053,-8.44,-5.507,25.94,-0.4632,0.25839,0.17422,0.82959,307,0.331,0.036,0.937,-1.404,0.305,-2.319,1.725,-19.012,169.162,-9.727,-10.04,-33.0,29.55,0.08893,0.16562,-0.00043,0.98212,311,0.957,0.069,0.226,-0.305,0.0,-0.61,17.194,-76.014,-175.122,-29.96,-14.0,-2.353,29.43,-0.12888,0.60135,0.14606,0.77481,309
78,1.015,-0.07,0.063,-0.122,0.183,-0.305,-48.312,-84.803,-145.585,-29.48,-11.14,-4.693,26.86,-0.06287,-0.6767,0.10565,-0.72583,314,0.593,0.053,0.805,-0.305,0.244,-0.488,3.461,-36.194,-123.085,-20.053,-8.44,-5.507,25.94,-0.4632,0.25839,0.17422,0.82959,316,0.327,0.035,0.938,-0.244,0.0,-1.16,1.725,-19.012,169.118,-9.727,-10.04,-33.0,29.55,0.08893,0.16562,-0.00043,0.98212,318,0.958,0.071,0.227,-0.244,0.061,-0.488,17.227,-76.014,-175.139,-29.96,-14.0,-2.353,29.43,-0.12515,0.60324,0.14371,0.77438,312
79,1.016,-0.069,0.064,-0.061,0.488,-0.305,-48.192,-84.803,-145.701,-29.48,-11.14,-4.693,26.86,-0.06287,-0.6767,0.10565,-0.72583,315,0.592,0.053,0.807,-0.122,0.244,-0.305,3.466,-36.189,-123.085,-20.053,-8.44,-5.507,25.94,-0.4632,0.25839,0.17422,0.82959,317,0.329,0.033,0.942,-0.305,0.366,-0.916,1.73,-19.006,169.091,-9.727,-10.04,-33.0,29.55,0.08893,0.16562,-0.00043,0.98212,319,0.959,0.071,0.226,-0.183,0.183,-0.366,17.249,-76.009,-175.15,-29.96,-14.0,-2.353,29.43,-0.12515,0.60324,0.14371,0.77438,313
80,1.017,-0.068,0.063,-0.061,0.793,-0.305,-48.021,-84.792,-145.86,-29.48,-11.14,-4.693,26.86,-0.06287,-0.6767,0.10565,-0.72583,320,0.592,0.052,0.811,0.122,0.244,-0.183,3.472,-36.183,-123.091,-20.053,-8.44,-5.507,25.94,-0.4632,0.25839,0.17422,0.82959,324,0.324,0.033,0.941,-0.122,0.305,-1.099,1.736,-19.006,169.069,-9.727,-10.04,-33.0,29.55,0.08893,0.16562,-0.00043,0.98212,328,0.96,0.073,0.226,-0.061,0.366,-0.305,17.265,-76.003,-175.166,-29.96,-14.0,-2.353,29.43,-0.12515,0.60324,0.14371,0.77438,322
81,1.018,-0.067,0.063,0.0,1.099,-0.305,-47.796,-84.781,-146.091,-29.48,-11.14,-4.693,26.86,-0.06287,-0.6767,0.10565,-0.72583,321,0.589,0.051,0.812,-0.061,0.305,-0.183,3.477,-36.178,-123.085,-20.053,-8.44,-5.507,25.94,-0.4632,0.25839,0.17422,0.82959,325,0.321,0.034,0.942,-0.671,0.366,-0.977,1.736,-19.001,169.03,-9.727,-10.04,-33.0,29.55,0.08893,0.16562,-0.00043,0.98212,329,0.96,0.073,0.227,0.0,0.488,-0.244,17.276,-75.998,-175.166,-29.96,-14.0,-2.353,29.43,-0.12515,0.60324,0.14371,0.77438,323
82,1.017,-0.068,0.064,0.0,0.977,-0.366,-47.587,-84.776,-146.316,-29.48,-11.14,-4.693,26.86,-0.06436,-0.67688,0.10645,-0.72543,334,0.586,0.051,0.812,-0.305,0.488,0.0,3.472,-36.167,-123.08,-19.447,-8.28,-5.333,25.94,-0.4632,0.25839,0.17422,0.82959,330,0.325,0.033,0.941,-0.427,0.366,-0.488,1.73,-18.995,169.014,-9.727,-10.04,-33.0,29.55,0.08893,0.16562,-0.00043,0.98212,332,0.958,0.071,0.229,0.061,0.488,-0.183,17.281,-75.987,-175.15,-29.96,-14.0,-2.353,29.43,-0.12515,0.60324,0.14371,0.77438,326
83,1.016,-0.067,0.063,0.0,0.61,-0.427,-47.428,-84.776,-146.514,-29.48,-11.14,-4.693,26.86,-0.06436,-0.67688,0.10645,-0.72543,335,0.589,0.054,0.812,-0.183,0.549,0.0,3.472,-36.156,-123.091,-19.447,-8.28,-5.333,25.94,-0.4632,0.25839,0.17422,0.82959,331,0.326,0.034,0.942,0.0,0.366,-0.61,1.736,-18.99,169.019,-9.727,-10.04,-33.0,29.55,0.08893,0.16562,-0.00043,0.98212,333,0.955,0.071,0.227,-0.122,0.61,-0.183,17.281,-75.976,-175.133,-29.96,-14.0,-2.353,29.43,-0.12515,0.60324,0.14371,0.77438,327
84,1.017,-0.067,0.062,0.0,0.427,-0.427,-47.296,-84.776,-146.673,-29.48,-11.14,-4.693,26.86,-0.06436,-0.67688,0.10645,-0.72543,338,0.591,0.054,0.812,0.061,0.305,0.0,3.472,-36.151,-123.096,-19.447,-8.28,-5.333,25.94,-0.4632,0.25839,0.17422,0.82959,342,0.329,0.037,0.946,-0.244,0.0,-0.854,1.741,-18.984,169.008,-9.727,-10.04,-33.0,29.55,0.08893,0.16562,-0.00043,0.98212,340,0.956,0.076,0.227,-0.183,0.549,-0.061,17.276,-75.965,-175.111,-29.96,-14.0,-2.353,29.43,-0.12515,0.60324,0.14371,0.77438,336
85,1.019,-0.066,0.062,0.0,0.61,-0.183,-47.175,-84.771,-146.821,-29.48,-11.14,-4.693,26.86,-0.06436,-0.67688,0.10645,-0.72543,339,0.589,0.051,0.813,0.061,0.122,0.0,3.477,-36.145,-123.102,-19.447,-8.28,-5.333,25.94,-0.4632,0.25839,0.17422,0.82959,343,0.32,0.031,0.943,-0.305,-1.16,-0.061,1.741,-18.995,168.992,-9.727,-10.04,-33.0,29.55,0.08893,0.16562,-0.00043,0.98212,341,0.958,0.076,0.226,-0.183,0.427,0.0,17.265,-75.959,-175.073,-29.96,-14.0,-2.353,29.43,-0.12515,0.60324,0.14371,0.77438,337
86,1.019,-0.067,0.062,0.0,0.549,-0.061,-47.076,-84.765,-146.937,-29.48,-11.14,-4.693,26.86,-0.06436,-0.67688,0.10645,-0.72543,344,0.586,0.048,0.813,-0.122,0.122,0.0,3.477,-36.14,-123.107,-19.447,-8.28,-5.333,25.94,-0.46091,0.25891,0.17307,0.83093,348,0.321,0.025,0.942,-0.671,-1.404,-0.061,1.736,-19.023,168.981,-9.727,-10.04,-33.0,29.55,0.08893,0.16562,-0.00043,0.98212,350,0.958,0.073,0.226,-0.183,0.183,0.0,17.265,-75.954,-175.062,-29.96,-14.0,-2.353,29.43,-0.12515,0.60324,0.14371,0.77438,346
87,1.017,-0.067,0.061,0.0,0.305,-0.061,-47.027,-84.76,-147.019,-29.48,-11.14,-4.693,26.86,-0.06436,-0.67688,0.10645,-0.72543,345,0.586,0.049,0.812,-0.366,0.122,-0.122,3.472,-36.14,-123.107,-19.447,-8.28,-5.333,25.94,-0.46091,0.25891,0.17307,0.83093,349,0.323,0.028,0.94,-0.305,-1.465,-1.16,1.736,-19.056,168.964,-9.727,-10.04,-33.0,29.55,0.08893,0.16562,-0.00043,0.98212,351,0.956,0.072,0.224,-0.061,0.183,0.0,17.265,-75.954,-175.073,-29.96,-14.0,-2.353,29.43,-0.12515,0.60324,0.14371,0.77438,347
88,1.018,-0.066,0.062,0.0,0.244,0.0,-46.989,-84.76,-147.085,-29.48,-11.14,-4.693,26.86,-0.06436,-0.67688,0.10645,-0.72543,352,0.589,0.051,0.809,-0.244,0.122,-0.305,3.472,-36.134,-123.102,-19.447,-8.28,-5.333,25.94,-0.46091,0.25891,0.17307,0.83093,362,0.322,0.033,0.938,0.427,-1.404,-0.549,1.747,-19.078,168.948,-9.813,-10.233,-33.28,29.55,0.08893,0.16562,-0.00043,0.98212,358,0.955,0.074,0.225,-0.061,0.0,-0.061,17.271,-75.954,-175.111,-29.96,-14.0,-2.353,29.43,-0.12515,0.60324,0.14371,0.77438,354
89,1.016,-0.067,0.062,0.0,0.061,0.061,-46.994,-84.76,-147.096,-29.48,-11.14,-4.693,26.86,-0.06436,-0.67688,0.10645,-0.72543,353,0.59,0.05,0.807,-0.061,0.305,-0.366,3.477,-36.123,-123.096,-19.447,-8.28,-5.333,25.94,-0.46091,0.25891,0.17307,0.83093,363,0.313,0.03,0.934,0.793,-2.808,-0.305,1.769,-19.127,168.942,-9.813,-10.233,-33.28,29.55,0.08893,0.16562,-0.00043,0.98212,359,0.957,0.074,0.225,-0.061,0.0,-0.061,17.281,-75.954,-175.144,-29.96,-14.0,-2.353,29.43,-0.12515,0.60324,0.14371,0.77438,355
90,1.018,-0.068,0.063,0.061,0.488,0.061,-46.983,-84.754,-147.112,-29.48,-11.14,-4.693,26.86,-0.06436,-0.67688,0.10645,-0.72543,360,0.593,0.05,0.803,-0.183,0.732,-0.305,3.477,-36.112,-123.102,-19.447,-8.28,-5.333,25.94,-0.46091,0.25891,0.17307,0.83093,364,0.325,0.027,0.928,1.099,-5.432,-1.038,1.796,-19.221,168.931,-9.813,-10.233,-33.28,29.55,0.09241,0.16763,-0.00067,0.98145,366,0.958,0.073,0.225,-0.061,-0.122,0.0,17.292,-75.959,-175.172,-29.96,-14.0,-2.353,29.43,-0.12515,0.60324,0.14371,0.77438,356
91,1.018,-0.068,0.065,0.0,0.916,0.061,-46.901,-84.749,-147.2,-29.48,-11.14,-4.693,26.86,-0.06436,-0.67688,0.10645,-0.72543,361,0.604,0.048,0.788,-0.183,1.709,-0.183,3.477,-36.079,-123.107,-19.447,-8.28,-5.333,25.94,-0.46091,0.25891,0.17307,0.83093,365,0.357,0.026,0.928,2.563,-10.498,-2.197,1.857,-19.402,168.904,-9.813,-10.233,-33.28,29.55,0.09241,0.16763,-0.00067,0.98145,367,0.961,0.071,0.224,0.0,-0.244,0.0,17.309,-75.965,-175.199,-29.96,-14.0,-2.353,29.43,-0.12515,0.60324,0.14371,0.77438,357
92,1.014,-0.068,0.062,-0.061,1.465,-0.122,-46.741,-84.732,-147.365,-29.48,-11.14,-4.693,26.86,-0.06436,-0.67688,0.10645,-0.72543,370,0.607,0.045,0.794,0.0,2.38,-0.244,3.477,-36.041,-123.118,-19.447,-8.28,-5.333,25.94,-0.46091,0.25891,0.17307,0.83093,368,0.335,0.027,0.945,-0.305,-11.658,-1.77,1.879,-19.622,168.854,-9.813,-10.233,-33.28,29.55,0.09241,0.16763,-0.00067,0.98145,374,0.966,0.069,0.222,0.0,-0.366,0.0,17.32,-75.976,-175.204,-29.96,-14.0,-2.353,29.43,-0.12515,0.60324,0.14371,0.77438,372
93,1.015,-0.067,0.059,-0.244,2.502,-0.366,-46.45,-84.71,-147.667,-29.48,-11.14,-4.693,26.86,-0.06436,-0.67688,0.10645,-0.72543,371,0.589,0.044,0.819,0.366,2.502,-0.305,3.488,-35.991,-123.118,-19.447,-8.28,-5.333,25.94,-0.46091,0.25891,0.17307,0.83093,369,0.315,0.034,0.966,0.61,-15.747,0.61,1.89,-19.913,168.832,-9.813,-10.233,-33.28,29.55,0.09241,0.16763,-0.00067,0.98145,375,0.964,0.069,0.21,0.122,-0.183,0.061,17.331,-75.981,-175.204,-29.96,-14.0,-2.353,29.43,-0.12515,0.60324,0.14371,0.77438,373
94,1.019,-0.068,0.062,-0.549,3.906,-0.427,-45.972,-84.683,-148.178,-29.48,-11.14,-4.693,26.86,-0.06436,-0.67688,0.10645,-0.72543,378,0.567,0.047,0.83,0.427,0.427,-0.305,3.499,-35.98,-123.14,-19.447,-8.28,-5.333,25.94,-0.46091,0.25891,0.17307,0.83093,380,0.32,0.037,0.974,0.061,-18.799,-0.183,1.901,-20.259,168.838,-9.813,-10.233,-33.28,29.55,0.09241,0.16763,-0.00067,0.98145,382,0.956,0.069,0.215,0.0,0.977,-0.122,17.325,-75.965,-175.21,-29.787,-14.193,-2.0,29.43,-0.12515,0.60324,0.14371,0.77438,376
95,1.021,-0.069,0.066,-0.488,3.845,-0.061,-45.357,-84.633,-148.821,-29.48,-11.14,-4.693,26.86,-0.06436,-0.67688,0.10645,-0.72543,379,0.565,0.054,0.842,-0.244,-1.953,0.0,3.499,-36.008,-123.146,-19.447,-8.28,-5.333,25.94,-0.46091,0.25891,0.17307,0.83093,381,0.348,0.042,0.957,-0.549,-19.897,-0.366,1.895,-20.632,168.854,-9.813,-10.233,-33.28,29.55,0.09241,0.16763,-0.00067,0.98145,383,0.95,0.071,0.223,-0.061,1.709,-0.427,17.32,-75.938,-175.221,-29.787,-14.193,-2.0,29.43,-0.12515,0.60324,0.14371,0.77438,377
96,1.02,-0.07,0.065,-0.305,2.319,0.061,-44.868,-84.584,-149.337,-29.22,-11.487,-5.54,26.86,-0.06436,-0.67688,0.10645,-0.72543,386,0.574,0.055,0.838,-0.854,-3.113,0.244,3.483,-36.057,-123.14,-19.447,-8.28,-5.333,25.94,-0.46091,0.25891,0.17307,0.83093,388,0.364,0.038,0.943,-1.465,-20.813,-1.892,1.89,-21.022,168.865,-9.813,-10.233,-33.28,29.55,0.09241,0.16763,-0.00067,0.98145,390,0.952,0.07,0.235,0.305,0.916,-0.549,17.353,-75.921,-175.265,-29.787,-14.193,-2.0,29.43,-0.12515,0.60324,0.14371,0.77438,384
97,1.018,-0.069,0.067,0.061,1.221,0.183,-44.61,-84.556,-149.601,-29.22,-11.487,-5.54,26.86,-0.06436,-0.67688,0.10645,-0.72543,387,0.576,0.054,0.828,-1.221,-3.113,0.427,3.455,-36.112,-123.135,-19.447,-8.28,-5.333,25.94,-0.46091,0.25891,0.17307,0.83093,389,0.373,0.039,0.922,-1.404,-18.677,-2.502,1.89,-21.379,168.843,-9.813,-10.233,-33.28,29.55,0.09241,0.16763,-0.00067,0.98145,391,0.953,0.069,0.234,0.793,-0.427,-0.305,17.402,-75.927,-175.314,-29.787,-14.193,-2.0,29.43,-0.12515,0.60324,0.14371,0.77438,385
98,1.015,-0.069,0.072,0.183,-0.183,0.366,-44.544,-84.545,-149.667,-29.22,-11.487,-5.54,26.86,-0.06436,-0.67688,0.10645,-0.72543,394,0.576,0.053,0.818,-1.343,-2.625,0.732,3.422,-36.156,-123.113,-19.447,-8.28,-5.333,25.94,-0.46091,0.25891,0.17307,0.83093,392,0.377,0.042,0.912,-1.953,-15.747,-1.526,1.873,-21.687,168.827,-9.813,-10.233,-33.28,29.55,0.09241,0.16763,-0.00067,0.98145,396,0.951,0.07,0.234,1.038,-1.465,0.0,17.457,-75.959,-175.353,-29.787,-14.193,-2.0,29.43,-0.12482,0.60269,0.14401,0.77481,398
99,1.01,-0.068,0.075,0.427,-1.526,0.488,-44.692,-84.551,-149.513,-29.22,-11.487,-5.54,26.86,-0.06436,-0.67688,0.10645,-0.72543,395,0.575,0.051,0.813,-0.977,-2.441,1.038,3.395,-36.194,-123.096,-19.447,-8.28,-5.333,25.94,-0.46091,0.25891,0.17307,0.83093,393,0.372,0.034,0.913,-2.625,-10.742,-1.038,1.84,-21.907,168.81,-9.813,-10.233,-33.28,29.55,0.09241,0.16763,-0.00067,0.98145,397,0.946,0.071,0.235,1.038,-2.258,0.183,17.512,-76.003,-175.386,-29.787,-14.193,-2.0,29.43,-0.12482,0.60269,0.14401,0.77481,399
100,1.008,-0.066,0.078,0.793,-2.136,0.671,-45.022,-84.567,-149.178,-29.22,-11.487,-5.54,26.86,-0.06689,-0.67416,0.10785,-0.72751,404,0.576,0.049,0.809,-0.916,-2.502,1.099,3.362,-36.233,-123.069,-19.447,-8.28,-5.333,25.94,-0.46091,0.25891,0.17307,0.83093,400,0.386,0.034,0.908,-2.686,-8.545,0.183,1.796,-22.072,168.805,-9.813,-10.233,-33.28,29.55,0.09241,0.16763,-0.00067,0.98145,408,0.944,0.073,0.236,0.916,-2.563,0.305,17.567,-76.053,-175.397,-29.787,-14.193,-2.0,29.43,-0.12482,0.60269,0.14401,0.77481,402
101,1.009,-0.065,0.082,0.854,-2.258,0.732,-45.423,-84.584,-148.755,-29.22,-11.487,-5.54,26.86,-0.06689,-0.67416,0.10785,-0.72751,405,0.585,0.048,0.804,-0.671,-2.502,1.099,3.34,-36.277,-123.036,-19.447,-8.28,-5.333,25.94,-0.46091,0.25891,0.17307,0.83093,401,0.388,0.032,0.9,-1.282,-3.235,1.404,1.758,-22.154,168.81,-9.813,-10.233,-33.28,29.55,0.09241,0.16763,-0.00067,0.98145,409,0.946,0.074,0.236,0.61,-2.93,0.488,17.606,-76.108,-175.397,-29.787,-14.193,-2.0,29.43,-0.12482,0.60269,0.14401,0.77481,403
102,1.01,-0.065,0.083,0.549,-2.747,0.671,-45.851,-84.606,-148.293,-29.22,-11.487,-5.54,26.86,-0.06689,-0.67416,0.10785,-0.72751,410,0.597,0.048,0.799,-0.305,-2.319,0.916,3.323,-36.31,-123.003,-19.673,-8.4,-4.867,25.94,-0.46091,0.25891,0.17307,0.83093,414,0.399,0.026,0.893,-0.732,2.441,1.404,1.736,-22.126,168.843,-10.573,-10.093,-31.68,29.55,0.09241,0.16763,-0.00067,0.98145,412,0.952,0.075,0.237,0.488,-3.113,0.549,17.644,-76.163,-175.397,-29.787,-14.193,-2.0,29.43,-0.12482,0.60269,0.14401,0.77481,406
103,1.011,-0.064,0.079,0.549,-3.174,0.549,-46.324,-84.633,-147.783,-29.22,-11.487,-5.54,26.86,-0.06689,-0.67416,0.10785,-0.72751,411,0.608,0.047,0.791,0.0,-1.77,0.671,3.318,-36.337,-122.986,-19.673,-8.4,-4.867,25.94,-0.46091,0.25891,0.17307,0.83093,415,0.4,0.027,0.894,-1.709,5.432,0.671,1.703,-22.028,168.838,-10.573,-10.093,-31.68,29.55,0.09241,0.16763,-0.00067,0.98145,413,0.962,0.076,0.236,0.244,-3.113,0.671,17.672,-76.218,-175.391,-29.787,-14.193,-2.0,29.43,-0.12482,0.60269,0.14401,0.77481,407
104,1.012,-0.065,0.076,0.549,-2.563,0.488,-46.802,-84.666,-147.266,-29.22,-11.487,-5.54,26.86,-0.06689,-0.67416,0.10785,-0.72751,416,0.611,0.042,0.791,0.183,-0.732,0.305,3.318,-36.348,-122.975,-19.673,-8.4,-4.867,25.94,-0.46121,0.2608,0.173,0.8302,420,0.394,0.023,0.907,-1.343,7.629,1.343,1.664,-21.89,168.821,-10.573,-10.093,-31.68,29.55,0.09241,0.16763,-0.00067,0.98145,426,0.967,0.076,0.232,0.122,-2.808,0.671,17.688,-76.267,-175.364,-29.787,-14.193,-2.0,29.43,-0.12482,0.60269,0.14401,0.77481,418
105,1.016,-0.065,0.072,0.366,-1.77,0.366,-47.159,-84.688,-146.871,-29.22,-11.487,-5.54,26.86,-0.06689,-0.67416,0.10785,-0.72751,417,0.612,0.042,0.799,0.671,0.0,0.122,3.329,-36.348,-122.981,-19.673,-8.4,-4.867,25.94,-0.46121,0.2608,0.173,0.8302,421,0.392,0.022,0.918,-1.221,9.888,1.77,1.626,-21.714,168.799,-10.573,-10.093,-31.68,29.55,0.09241,0.16763,-0.00067,0.98145,427,0.97,0.076,0.227,0.122,-1.953,0.61,17.688,-76.3,-175.325,-29.787,-14.193,-2.0,29.43,-0.12482,0.60269,0.14401,0.77481,419
106,1.02,-0.066,0.068,0.122,-1.099,0.183,-47.384,-84.699,-146.635,-29.22,-11.487,-5.54,26.86,-0.06689,-0.67416,0.10785,-0.72751,424,0.612,0.043,0.804,0.793,0.244,-0.061,3.345,-36.343,-122.997,-19.673,-8.4,-4.867,25.94,-0.46121,0.2608,0.173,0.8302,432,0.389,0.025,0.923,-1.221,11.047,1.465,1.588,-21.511,168.772,-10.573,-10.093,-31.68,29.55,0.09329,0.18796,-0.00458,0.97769,430,0.972,0.076,0.223,0.061,-0.916,0.305,17.693,-76.317,-175.292,-29.787,-14.193,-2.0,29.43,-0.12482,0.60269,0.14401,0.77481,422
107,1.021,-0.068,0.062,-0.122,-0.793,0.122,-47.505,-84.71,-146.508,-29.22,-11.487,-5.54,26.86,-0.06689,-0.67416,0.10785,-0.72751,425,0.61,0.047,0.805,0.854,0.183,-0.183,3.367,-36.343,-123.014,-19.673,-8.4,-4.867,25.94,-0.46121,0.2608,0.173,0.8302,433,0.386,0.028,0.926,-1.038,10.62,1.587,1.555,-21.313,168.723,-10.573,-10.093,-31.68,29.55,0.09329,0.18796,-0.00458,0.97769,431,0.972,0.075,0.22,0.0,0.0,0.061,17.693,-76.311,-175.276,-29.787,-14.193,-2.0,29.43,-0.12482,0.60269,0.14401,0.77481,423
108,1.023,-0.07,0.058,-0.366,-0.671,0.0,-47.582,-84.716,-146.426,-29.22,-11.487,-5.54,26.86,-0.06689,-0.67416,0.10785,-0.72751,436,0.61,0.048,0.803,1.099,0.0,-0.122,3.389,-36.348,-123.036,-19.673,-8.4,-4.867,25.94,-0.46121,0.2608,0.173,0.8302,438,0.379,0.023,0.922,-0.122,11.719,1.77,1.533,-21.105,168.673,-10.573,-10.093,-31.68,29.55,0.09329,0.18796,-0.00458,0.97769,434,0.97,0.073,0.217,-0.305,0.61,0.0,17.677,-76.295,-175.254,-29.787,-14.193,-2.0,29.43,-0.12482,0.60269,0.14401,0.77481,428
109,1.023,-0.071,0.053,-0.427,-0.732,-0.061,-47.659,-84.721,-146.371,-29.22,-11.487,-5.54,26.86,-0.06689,-0.67416,0.10785,-0.72751,437,0.606,0.045,0.798,1.343,-0.61,-0.061,3.417,-36.365,-123.052,-19.673,-8.4,-4.867,25.94,-0.46121,0.2608,0.173,0.8302,439,0.372,0.019,0.924,-0.366,14.343,1.282,1.511,-20.852,168.596,-10.573,-10.093,-31.68,29.55,0.09329,0.18796,-0.00458,0.97769,435,0.962,0.071,0.214,-0.488,1.038,0.0,17.65,-76.273,-175.215,-29.787,-14.193,-2.0,29.43,-0.12482,0.60269,0.14401,0.77481,429
110,1.023,-0.072,0.048,-0.427,-0.854,-0.061,-47.752,-84.732,-146.288,-29.22,-11.487,-5.54,26.86,-0.06689,-0.67416,0.10785,-0.72751,440,0.603,0.043,0.801,1.404,-0.977,-0.061,3.444,-36.392,-123.058,-19.673,-8.4,-4.867,25.94,-0.46121,0.2608,0.173,0.8302,446,0.362,0.019,0.93,-0.549,14.465,0.671,1.494,-20.588,168.508,-10.573,-10.093,-31.68,29.55,0.09329,0.18796,-0.00458,0.97769,444,0.958,0.068,0.207,-0.488,1.404,-0.061,17.617,-76.251,-175.166,-29.787,-14.193,-2.0,29.43,-0.12482,0.60269,0.14401,0.77481,442
111,1.024,-0.074,0.046,-0.305,-0.61,0.0,-47.878,-84.743,-146.19,-29.22,-11.487,-5.54,26.86,-0.06689,-0.67416,0.10785,-0.72751,441,0.601,0.043,0.801,1.526,-1.282,-0.122,3.477,-36.42,-123.074,-19.673,-8.4,-4.867,25.94,-0.46121,0.2608,0.173,0.8302,447,0.359,0.021,0.927,-0.549,14.221,0.549,1.472,-20.325,168.426,-10.573,-10.093,-31.68,29.55,0.09329,0.18796,-0.00458,0.97769,445,0.958,0.067,0.206,-0.366,1.404,-0.244,17.584,-76.229,-175.139,-29.787,-14.193,-2.0,29.43,-0.12482,0.60269,0.14401,0.77481,443
112,1.024,-0.074,0.047,-0.122,-0.122,0.0,-47.977,-84.754,-146.096,-29.22,-11.487,-5.54,26.86,-0.06689,-0.67416,0.10785,-0.72751,456,0.606,0.043,0.798,1.648,-1.709,-0.061,3.51,-36.464,-123.085,-19.673,-8.4,-4.867,25.94,-0.46121,0.2608,0.173,0.8302,454,0.364,0.024,0.93,-0.122,15.076,1.343,1.456,-20.05,168.333,-10.573,-10.093,-31.68,29.55,0.09329,0.18796,-0.00458,0.97769,450,0.96,0.067,0.208,-0.305,1.099,-0.305,17.573,-76.207,-175.117,-30.24,-13.993,-1.493,29.43,-0.12482,0.60269,0.14401,0.77481,448
113,1.022,-0.073,0.049,-0.061,-0.183,0.0,-48.032,-84.754,-146.03,-29.22,-11.487,-5.54,26.86,-0.06689,-0.67416,0.10785,-0.72751,457,0.608,0.046,0.798,1.953,-1.465,0.0,3.543,-36.497,-123.096,-19.673,-8.4,-4.867,25.94,-0.46121,0.2608,0.173,0.8302,455,0.352,0.022,0.935,0.0,13.916,1.892,1.439,-19.792,168.261,-10.573,-10.093,-31.68,29.55,0.09329,0.18796,-0.00458,0.97769,451,0.964,0.065,0.208,-0.305,0.793,-0.305,17.573,-76.19,-175.117,-30.24,-13.993,-1.493,29.43,-0.12482,0.60269,0.14401,0.77481,449
114,1.021,-0.072,0.051,-0.061,-0.122,0.0,-48.104,-84.76,-145.981,-28.847,-11.22,-5.22,26.86,-0.06689,-0.67416,0.10785,-0.72751,460,0.606,0.047,0.801,2.075,-1.282,0.183,3.582,-36.53,-123.118,-19.673,-8.4,-4.867,25.94,-0.46121,0.2608,0.173,0.8302,458,0.342,0.022,0.938,-0.549,12.329,0.732,1.417,-19.567,168.19,-10.573,-10.093,-31.68,29.55,0.09329,0.18796,-0.00458,0.97769,462,0.966,0.066,0.209,-0.244,0.732,-0.305,17.578,-76.179,-175.122,-30.24,-13.993,-1.493,29.43,-0.12482,0.60269,0.14401,0.77481,452
115,1.021,-0.07,0.054,-0.061,0.366,0.0,-48.153,-84.76,-145.981,-28.847,-11.22,-5.22,26.86,-0.06689,-0.67416,0.10785,-0.72751,461,0.605,0.05,0.802,1.953,-0.732,0.366,3.615,-36.546,-123.135,-19.673,-8.4,-4.867,25.94,-0.46121,0.2608,0.173,0.8302,459,0.344,0.025,0.937,0.244,11.963,0.671,1.412,-19.352,168.113,-10.573,-10.093,-31.68,29.55,0.09329,0.18796,-0.00458,0.97769,463,0.965,0.069,0.212,-0.244,0.854,-0.244,17.584,-76.174,-175.128,-30.24,-13.993,-1.493,29.43,-0.12482,0.60269,0.14401,0.77481,453
116,1.018,-0.07,0.058,-0.122,0.916,-0.061,-48.12,-84.76,-146.041,-28.847,-11.22,-5.22,26.86,-0.06689,-0.67416,0.10785,-0.72751,466,0.607,0.051,0.802,1.709,-0.183,0.427,3.636,-36.557,-123.151,-19.673,-8.4,-4.867,25.94,-0.46121,0.2608,0.173,0.8302,464,0.334,0.025,0.935,-0.061,12.207,1.16,1.401,-19.133,168.058,-10.573,-10.093,-31.68,29.55,0.09329,0.18796,-0.00458,0.97769,468,0.964,0.071,0.214,-0.305,0.916,-0.305,17.578,-76.163,-175.15,-30.24,-13.993,-1.493,29.43,-0.12482,0.60269,0.14401,0.77481,472
117,1.015,-0.069,0.061,-0.183,1.282,-0.183,-47.994,-84.749,-146.195,-28.847,-11.22,-5.22,26.86,-0.06689,-0.67416,0.10785,-0.72751,467,0.606,0.052,0.799,0.916,0.488,0.488,3.642,-36.552,-123.162,-19.673,-8.4,-4.867,25.94,-0.46121,0.2608,0.173,0.8302,465,0.322,0.026,0.938,-0.366,11.047,-0.061,1.39,-18.929,167.975,-10.573,-10.093,-31.68,29.55,0.09329,0.18796,-0.00458,0.97769,469,0.963,0.071,0.214,-0.305,1.099,-0.305,17.578,-76.152,-175.172,-30.24,-13.993,-1.493,29.43,-0.12482,0.60269,0.14401,0.77481,473
118,1.015,-0.068,0.063,-0.122,2.075,-0.244,-47.769,-84.732,-146.448,-28.847,-11.22,-5.22,26.86,-0.06622,-0.67633,0.10855,-0.72546,474,0.6,0.053,0.799,0.916,0.916,0.61,3.653,-36.541,-123.168,-19.673,-8.4,-4.867,25.94,-0.46121,0.2608,0.173,0.8302,470,0.308,0.022,0.937,-0.793,10.254,-0.183,1.373,-18.743,167.888,-10.573,-10.093,-31.68,29.55,0.09329,0.18796,-0.00458,0.97769,478,0.962,0.074,0.219,-0.305,1.465,-0.244,17.573,-76.135,-175.199,-30.24,-13.993,-1.493,29.43,-0.12662,0.60376,0.1456,0.77341,476
119,1.014,-0.069,0.069,-0.244,2.808,-0.244,-47.411,-84.71,-146.838,-28.847,-11.22,-5.22,26.86,-0.06622,-0.67633,0.10855,-0.72546,475,0.596,0.053,0.802,0.793,1.16,0.61,3.653,-36.524,-123.173,-19.673,-8.4,-4.867,25.94,-0.46121,0.2608,0.173,0.8302,471,0.297,0.025,0.932,1.587,9.766,1.16,1.39,-18.567,167.833,-10.573,-10.093,-31.68,29.55,0.09329,0.18796,-0.00458,0.97769,479,0.958,0.073,0.224,-0.244,1.709,-0.305,17.556,-76.113,-175.215,-30.24,-13.993,-1.493,29.43,-0.12662,0.60376,0.1456,0.77341,477
120,1.011,-0.068,0.071,-0.305,2.686,-0.366,-46.967,-84.677,-147.316,-28.847,-11.22,-5.22,26.86,-0.06622,-0.67633,0.10855,-0.72546,482,0.593,0.054,0.8,0.854,2.014,0.732,3.658,-36.491,-123.168,-19.673,-8.4,-4.867,25.94,-0.46121,0.2608,0.173,0.8302,480,0.302,0.038,0.949,1.892,8.85,2.93,1.406,-18.408,167.816,-10.573,-10.093,-31.68,29.55,0.09329,0.18796,-0.00458,0.97769,486,0.955,0.072,0.225,-0.427,2.136,-0.305,17.534,-76.086,-175.237,-30.24,-13.993,-1.493,29.43,-0.12662,0.60376,0.1456,0.77341,484
121,1.013,-0.067,0.069,-0.488,2.93,-0.427,-46.511,-84.644,-147.788,-28.847,-11.22,-5.22,26.86,-0.06622,-0.67633,0.10855,-0.72546,483,0.591,0.062,0.809,1.282,2.075,0.732,3.675,-36.453,-123.162,-19.673,-8.4,-4.867,25.94,-0.46121,0.2608,0.173,0.8302,481,0.295,0.038,0.952,1.526,7.935,2.136,1.423,-18.259,167.816,-10.573,-10.093,-31.68,29.55,0.09329,0.18796,-0.00458,0.97769,487,0.957,0.075,0.225,-0.488,2.563,-0.061,17.496,-76.047,-175.232,-30.24,-13.993,-1.493,29.43,-0.12662,0.60376,0.1456,0.77341,485
122,1.018,-0.067,0.071,-0.427,3.967,-0.366,-45.95,-84.606,-148.365,-28.847,-11.22,-5.22,26.86,-0.06622,-0.67633,0.10855,-0.72546,488,0.587,0.063,0.811,1.892,2.197,1.038,3.697,-36.414,-123.146,-19.647,-8.72,-5.28,25.94,-0.46121,0.2608,0.173,0.8302,496,0.289,0.03,0.952,1.831,6.775,1.709,1.45,-18.127,167.805,-8.887,-10.04,-33.54,29.55,0.09329,0.18796,-0.00458,0.97769,492,0.957,0.077,0.23,-0.183,2.808,0.122,17.435,-76.003,-175.177,-30.24,-13.993,-1.493,29.43,-0.12662,0.60376,0.1456,0.77341,490
123,1.018,-0.069,0.071,-0.183,3.845,-0.244,-45.335,-84.556,-148.975,-28.847,-11.22,-5.22,26.86,-0.06622,-0.67633,0.10855,-0.72546,489,0.583,0.053,0.815,1.953,2.686,1.038,3.719,-36.365,-123.129,-19.647,-8.72,-5.28,25.94,-0.46121,0.2608,0.173,0.8302,497,0.283,0.024,0.959,1.404,4.578,3.662,1.461,-18.034,167.838,-8.887,-10.04,-33.54,29.55,0.09329,0.18796,-0.00458,0.97769,493,0.955,0.072,0.231,0.0,2.747,0.183,17.364,-75.954,-175.117,-30.24,-13.993,-1.493,29.43,-0.12662,0.60376,0.1456,0.77341,491
124,1.018,-0.068,0.07,-0.122,2.93,-0.244,-44.819,-84.512,-149.491,-28.847,-11.22,-5.22,26.86,-0.06622,-0.67633,0.10855,-0.72546,494,0.579,0.049,0.819,1.526,2.441,1.038,3.73,-36.315,-123.118,-19.647,-8.72,-5.28,25.94,-0.46112,0.25925,0.17557,0.8302,500,0.282,0.02,0.961,0.305,2.625,2.563,1.456,-17.979,167.871,-8.887,-10.04,-33.54,29.55,0.09329,0.18796,-0.00458,0.97769,502,0.952,0.073,0.231,0.122,2.502,0.122,17.298,-75.91,-175.045,-30.24,-13.993,-1.493,29.43,-0.12662,0.60376,0.1456,0.77341,498
125,1.016,-0.066,0.072,-0.122,2.197,-0.122,-44.434,-84.479,-149.865,-28.847,-11.22,-5.22,26.86,-0.06622,-0.67633,0.10855,-0.72546,495,0.573,0.054,0.821,0.977,2.319,0.793,3.735,-36.271,-123.102,-19.647,-8.72,-5.28,25.94,-0.46112,0.25925,0.17557,0.8302,501,0.282,0.028,0.96,0.427,0.854,0.916,1.456,-17.952,167.888,-8.887,-10.04,-33.54,29.55,0.09329,0.18796,-0.00458,0.97769,503,0.947,0.075,0.234,0.244,2.014,0.061,17.243,-75.866,-175.001,-30.24,-13.993,-1.493,29.43,-0.12662,0.60376,0.1456,0.77341,499
126,1.015,-0.066,0.071,-0.122,1.404,0.0,-44.176,-84.457,-150.106,-28.847,-11.22,-5.22,26.86,-0.06622,-0.67633,0.10855,-0.72546,504,0.573,0.057,0.822,0.916,1.953,0.488,3.746,-36.227,-123.096,-19.647,-8.72,-5.28,25.94,-0.46112,0.25925,0.17557,0.8302,508,0.287,0.027,0.959,0.793,-0.061,0.916,1.467,-17.946,167.926,-8.887,-10.04,-33.54,29.55,0.10226,0.15656,-0.00397,0.9823,512,0.945,0.078,0.233,0.244,1.587,0.183,17.205,-75.833,-174.952,-30.24,-13.993,-1.493,29.43,-0.12662,0.60376,0.1456,0.77341,506
127,1.015,-0.066,0.071,0.0,1.038,0.183,-44.028,-84.441,-150.26,-28.847,-11.22,-5.22,26.86,-0.06622,-0.67633,0.10855,-0.72546,505,0.576,0.056,0.821,0.916,1.282,0.244,3.763,-36.194,-123.102,-19.647,-8.72,-5.28,25.94,-0.46112,0.25925,0.17557,0.8302,509,0.289,0.029,0.954,0.183,-1.282,0.854,1.472,-17.963,167.992,-8.887,-10.04,-33.54,29.55,0.10226,0.15656,-0.00397,0.9823,513,0.947,0.077,0.235,0.183,0.916,0.244,17.172,-75.811,-174.919,-30.24,-13.993,-1.493,29.43,-0.12662,0.60376,0.1456,0.77341,507
128,1.015,-0.066,0.074,0.0,0.977,0.366,-43.929,-84.424,-150.342,-28.847,-11.22,-5.22,26.86,-0.06622,-0.67633,0.10855,-0.72546,516,0.578,0.058,0.819,0.183,0.183,0.305,3.768,-36.178,-123.107,-19.647,-8.72,-5.28,25.94,-0.46112,0.25925,0.17557,0.8302,514,0.292,0.028,0.955,-0.244,-1.831,0.61,1.467,-17.985,168.063,-8.887,-10.04,-33.54,29.55,0.10226,0.15656,-0.00397,0.9823,520,0.948,0.075,0.235,0.183,0.183,0.244,17.155,-75.8,-174.891,-30.24,-13.993,-1.493,29.43,-0.12662,0.60376,0.1456,0.77341,510
129,1.015,-0.067,0.075,0.061,0.488,0.488,-43.885,-84.408,-150.37,-28.847,-11.22,-5.22,26.86,-0.06622,-0.67633,0.10855,-0.72546,517,0.581,0.055,0.816,-0.061,0.0,0.244,3.768,-36.167,-123.096,-19.647,-8.72,-5.28,25.94,-0.46112,0.25925,0.17557,0.8302,515,0.297,0.025,0.952,-0.549,-2.136,-0.244,1.461,-18.018,168.124,-8.887,-10.04,-33.54,29.55,0.10226,0.15656,-0.00397,0.9823,521,0.95,0.073,0.236,0.183,-0.427,0.305,17.15,-75.806,-174.875,-30.24,-13.993,-1.493,29.43,-0.12662,0.60376,0.1456,0.77341,511
130,1.014,-0.068,0.077,0.244,-0.183,0.61,-43.94,-84.402,-150.293,-28.847,-11.22,-5.22,26.86,-0.06622,-0.67633,0.10855,-0.72546,528,0.582,0.052,0.815,-0.305,0.122,0.061,3.763,-36.156,-123.085,-19.647,-8.72,-5.28,25.94,-0.46112,0.25925,0.17557,0.8302,522,0.298,0.026,0.948,-0.793,-2.625,-0.671,1.45,-18.056,168.173,-8.887,-10.04,-33.54,29.55,0.10226,0.15656,-0.00397,0.9823,524,0.953,0.073,0.236,0.122,-0.854,0.427,17.15,-75.817,-174.864,-30.24,-13.993,-1.493,29.43,-0.12662,0.60376,0.1456,0.77341,518
131,1.012,-0.069,0.079,0.427,-0.854,0.671,-44.088,-84.397,-150.106,-28.847,-11.22,-5.22,26.86,-0.06622,-0.67633,0.10855,-0.72546,529,0.583,0.049,0.817,-0.549,0.0,0.0,3.757,-36.145,-123.091,-19.647,-8.72,-5.28,25.94,-0.46112,0.25925,0.17557,0.8302,523,0.301,0.019,0.954,-1.038,-2.563,-1.221,1.439,-18.1,168.212,-8.887,-10.04,-33.54,29.55,0.10226,0.15656,-0.00397,0.9823,525,0.954,0.072,0.237,0.122,-1.099,0.488,17.144,-75.833,-174.831,-30.24,-13.993,-1.493,29.43,-0.12662,0.60376,0.1456,0.77341,519
132,1.012,-0.069,0.079,0.305,-1.221,0.61,-44.302,-84.402,-149.859,-29.027,-11.347,-4.84,26.86,-0.06622,-0.67633,0.10855,-0.72546,534,0.586,0.047,0.815,-0.793,-0.305,-0.122,3.746,-36.14,-123.102,-19.647,-8.72,-5.28,25.94,-0.46112,0.25925,0.17557,0.8302,530,0.305,0.02,0.952,-0.854,-2.747,-1.038,1.428,-18.144,168.256,-8.887,-10.04,-33.54,29.55,0.10226,0.15656,-0.00397,0.9823,532,0.955,0.071,0.236,0.122,-1.282,0.427,17.144,-75.861,-174.798,-30.24,-13.993,-1.493,29.43,-0.12662,0.60376,0.1456,0.77341,526
133,1.013,-0.069,0.079,0.183,-1.099,0.549,-44.528,-84.413,-149.601,-29.027,-11.347,-4.84,26.86,-0.06622,-0.67633,0.10855,-0.72546,535,0.589,0.051,0.812,-1.16,-0.549,-0.305,3.73,-36.14,-123.118,-19.647,-8.72,-5.28,25.94,-0.46112,0.25925,0.17557,0.8302,531,0.31,0.019,0.949,-0.977,-2.747,-0.916,1.417,-18.188,168.289,-8.887,-10.04,-33.54,29.55,0.10226,0.15656,-0.00397,0.9823,533,0.956,0.07,0.236,0.0,-1.282,0.366,17.15,-75.883,-174.771,-30.24,-13.993,-1.493,29.43,-0.12662,0.60376,0.1456,0.77341,527
134,1.014,-0.07,0.078,0.122,-0.977,0.488,-44.72,-84.419,-149.392,-29.027,-11.347,-4.84,26.86,-0.06622,-0.67633,0.10855,-0.72546,542,0.592,0.05,0.81,-1.038,-0.427,-0.488,3.713,-36.14,-123.135,-19.647,-8.72,-5.28,25.94,-0.46112,0.25925,0.17557,0.8302,538,0.31,0.018,0.945,-1.099,-2.197,-1.831,1.406,-18.226,168.3,-8.887,-10.04,-33.54,29.55,0.10226,0.15656,-0.00397,0.9823,540,0.958,0.072,0.235,-0.061,-1.343,0.305,17.155,-75.905,-174.76,-30.24,-13.993,-1.493,29.43,-0.12662,0.60376,0.1456,0.77341,536
135,1.015,-0.07,0.076,0.061,-1.16,0.366,-44.901,-84.424,-149.183,-29.027,-11.347,-4.84,26.86,-0.06622,-0.67633,0.10855,-0.72546,543,0.594,0.048,0.808,-0.916,-0.183,-0.671,3.702,-36.14,-123.157,-19.647,-8.72,-5.28,25.94,-0.46112,0.25925,0.17557,0.8302,539,0.317,0.019,0.944,-0.366,-2.014,-2.441,1.406,-18.259,168.294,-8.887,-10.04,-33.54,29.55,0.10226,0.15656,-0.00397,0.9823,541,0.958,0.072,0.233,-0.061,-1.16,0.305,17.161,-75.927,-174.76,-30.24,-13.993,-1.493,29.43,-0.12662,0.60376,0.1456,0.77341,537
136,1.016,-0.071,0.073,0.061,-1.221,0.305,-45.088,-84.435,-148.964,-29.027,-11.347,-4.84,26.86,-0.0654,-0.67383,0.10764,-0.728,546,0.596,0.048,0.807,-0.427,0.0,-0.488,3.691,-36.134,-123.184,-19.647,-8.72,-5.28,25.94,-0.46112,0.25925,0.17557,0.8302,544,0.318,0.023,0.943,0.0,-1.709,-1.709,1.417,-18.287,168.283,-8.887,-10.04,-33.54,29.55,0.10226,0.15656,-0.00397,0.9823,550,0.959,0.069,0.231,-0.122,-1.038,0.244,17.161,-75.943,-174.765,-30.04,-14.14,-2.353,29.43,-0.12662,0.60376,0.1456,0.77341,548
137,1.018,-0.071,0.072,0.061,-1.221,0.183,-45.269,-84.446,-148.76,-29.027,-11.347,-4.84,26.86,-0.0654,-0.67383,0.10764,-0.728,547,0.595,0.047,0.803,-0.122,0.183,-0.244,3.691,-36.129,-123.195,-19.647,-8.72,-5.28,25.94,-0.46112,0.25925,0.17557,0.8302,545,0.319,0.022,0.94,0.61,-1.526,-0.732,1.434,-18.309,168.294,-8.887,-10.04,-33.54,29.55,0.10226,0.15656,-0.00397,0.9823,551,0.959,0.068,0.228,-0.244,-0.793,0.122,17.166,-75.959,-174.776,-30.04,-14.14,-2.353,29.43,-0.12662,0.60376,0.1456,0.77341,549
138,1.018,-0.071,0.069,0.0,-1.16,0.122,-45.439,-84.457,-148.601,-29.027,-11.347,-4.84,26.86,-0.0654,-0.67383,0.10764,-0.728,556,0.595,0.047,0.808,-0.305,0.366,-0.122,3.691,-36.123,-123.206,-19.86,-8.307,-5.827,25.94,-0.46112,0.25925,0.17557,0.8302,552,0.317,0.018,0.943,0.061,-1.221,-0.977,1.439,-18.331,168.322,-9.28,-10.16,-32.72,29.55,0.10226,0.15656,-0.00397,0.9823,558,0.96,0.066,0.226,-0.427,-0.671,0.061,17.166,-75.97,-174.803,-30.04,-14.14,-2.353,29.43,-0.12701,0.60263,0.14505,0.77432,554
139,1.019,-0.071,0.065,-0.122,-1.221,0.0,-45.599,-84.468,-148.447,-29.027,-11.347,-4.84,26.86,-0.0654,-0.67383,0.10764,-0.728,557,0.597,0.048,0.809,-0.183,0.061,-0.061,3.68,-36.118,-123.223,-19.86,-8.307,-5.827,25.94,-0.46112,0.25925,0.17557,0.8302,553,0.32,0.021,0.949,0.61,-1.038,-0.977,1.456,-18.353,168.333,-9.28,-10.16,-32.72,29.55,0.10226,0.15656,-0.00397,0.9823,559,0.96,0.065,0.223,-0.366,-0.488,0.0,17.172,-75.981,-174.847,-30.04,-14.14,-2.353,29.43,-0.12701,0.60263,0.14505,0.77432,555
140,1.021,-0.071,0.062,-0.183,-0.977,0.0,-45.747,-84.485,-148.282,-29.027,-11.347,-4.84,26.86,-0.0654,-0.67383,0.10764,-0.728,566,0.6,0.05,0.808,0.0,-0.244,0.0,3.68,-36.118,-123.234,-19.86,-8.307,-5.827,25.94,-0.46112,0.25925,0.17557,0.8302,560,0.327,0.025,0.946,0.305,-0.793,-0.61,1.467,-18.369,168.327,-9.28,-10.16,-32.72,29.55,0.09833,0.1601,-0.0036,0.98215,564,0.961,0.067,0.221,-0.244,-0.427,0.0,17.172,-75.987,-174.886,-30.04,-14.14,-2.353,29.43,-0.12701,0.60263,0.14505,0.77432,562
141,1.022,-0.071,0.061,-0.061,-0.732,0.0,-45.868,-84.496,-148.151,-29.027,-11.347,-4.84,26.86,-0.0654,-0.67383,0.10764,-0.728,567,0.602,0.051,0.806,-0.061,-0.183,0.0,3.675,-36.123,-123.25,-19.86,-8.307,-5.827,25.94,-0.46112,0.25925,0.17557,0.8302,561,0.326,0.025,0.943,-0.061,-0.671,-0.488,1.467,-18.38,168.305,-9.28,-10.16,-32.72,29.55,0.09833,0.1601,-0.0036,0.98215,565,0.962,0.068,0.219,-0.061,-0.427,-0.061,17.177,-75.998,-174.924,-30.04,-14.14,-2.353,29.43,-0.12701,0.60263,0.14505,0.77432,563
142,1.022,-0.071,0.06,0.0,-0.671,0.0,-45.972,-84.507,-148.052,-29.027,-11.347,-4.84,26.86,-0.0654,-0.67383,0.10764,-0.728,570,0.6,0.051,0.804,-0.122,-0.183,0.0,3.675,-36.123,-123.261,-19.86,-8.307,-5.827,25.94,-0.46036,0.25809,0.1741,0.8313,574,0.327,0.025,0.942,-0.183,-1.343,-0.488,1.467,-18.408,168.272,-9.28,-10.16,-32.72,29.55,0.09833,0.1601,-0.0036,0.98215,572,0.963,0.069,0.218,0.061,-0.488,-0.122,17.194,-76.003,-174.952,-30.04,-14.14,-2.353,29.43,-0.12701,0.60263,0.14505,0.77432,568
143,1.021,-0.072,0.06,0.0,-0.671,0.0,-46.082,-84.512,-147.914,-29.027,-11.347,-4.84,26.86,-0.0654,-0.67383,0.10764,-0.728,571,0.6,0.053,0.805,-0.244,0.0,0.0,3.669,-36.129,-123.272,-19.86,-8.307,-5.827,25.94,-0.46036,0.25809,0.1741,0.8313,575,0.326,0.026,0.94,-0.671,-1.16,-0.183,1.456,-18.43,168.239,-9.28,-10.16,-32.72,29.55,0.09833,0.1601,-0.0036,0.98215,573,0.962,0.069,0.217,0.183,-0.427,-0.183,17.216,-76.014,-175.012,-30.04,-14.14,-2.353,29.43,-0.12701,0.60263,0.14505,0.77432,569
144,1.019,-0.071,0.06,0.0,-0.488,0.0,-46.181,-84.523,-147.788,-29.027,-11.347,-4.84,26.86,-0.0654,-0.67383,0.10764,-0.728,576,0.599,0.054,0.804,-0.244,0.0,0.061,3.664,-36.134,-123.289,-19.86,-8.307,-5.827,25.94,-0.46036,0.25809,0.1741,0.8313,580,0.323,0.027,0.941,-0.244,-1.16,0.0,1.45,-18.457,168.212,-9.28,-10.16,-32.72,29.55,0.09833,0.1601,-0.0036,0.98215,582,0.962,0.07,0.215,0.183,-0.427,-0.183,17.243,-76.025,-175.089,-30.04,-14.14,-2.353,29.43,-0.12701,0.60263,0.14505,0.77432,578
145,1.018,-0.07,0.062,-0.061,-0.183,0.0,-46.252,-84.529,-147.717,-29.027,-11.347,-4.84,26.86,-0.0654,-0.67383,0.10764,-0.728,577,0.597,0.054,0.805,-0.183,0.061,0.061,3.658,-36.134,-123.294,-19.86,-8.307,-5.827,25.94,-0.46036,0.25809,0.1741,0.8313,581,0.323,0.026,0.942,0.0,-1.404,0.0,1.45,-18.49,168.206,-9.28,-10.16,-32.72,29.55,0.09833,0.1601,-0.0036,0.98215,583,0.961,0.071,0.216,0.0,-0.427,-0.061,17.265,-76.036,-175.139,-30.04,-14.14,-2.353,29.43,-0.12701,0.60263,0.14505,0.77432,579
146,1.017,-0.071,0.062,0.0,0.305,0.0,-46.258,-84.529,-147.711,-29.027,-11.347,-4.84,26.86,-0.0654,-0.67383,0.10764,-0.728,588,0.596,0.054,0.805,-0.183,0.061,0.061,3.653,-36.14,-123.305,-19.86,-8.307,-5.827,25.94,-0.46036,0.25809,0.1741,0.8313,584,0.324,0.027,0.943,0.0,-1.16,-0.244,1.456,-18.517,168.201,-9.28,-10.16,-32.72,29.55,0.09833,0.1601,-0.0036,0.98215,592,0.961,0.073,0.217,0.0,-0.366,-0.061,17.281,-76.053,-175.161,-30.04,-14.14,-2.353,29.43,-0.12701,0.60263,0.14505,0.77432,586
147,1.018,-0.071,0.065,0.0,0.671,0.0,-46.208,-84.523,-147.783,-29.027,-11.347,-4.84,26.86,-0.0654,-0.67383,0.10764,-0.728,589,0.594,0.053,0.805,-0.183,0.183,-0.061,3.647,-36.14,-123.316,-19.86,-8.307,-5.827,25.94,-0.46036,0.25809,0.1741,0.8313,585,0.32,0.025,0.94,0.0,-1.282,-0.366,1.456,-18.545,168.19,-9.28,-10.16,-32.72,29.55,0.09833,0.1601,-0.0036,0.98215,593,0.961,0.073,0.22,0.0,-0.183,0.0,17.292,-76.058,-175.182,-30.04,-14.14,-2.353,29.43,-0.12701,0.60263,0.14505,0.77432,587
148,1.018,-0.07,0.067,-0.061,0.977,0.0,-46.104,-84.512,-147.892,-29.027,-11.347,-4.84,26.86,-0.0654,-0.67383,0.10764,-0.728,596,0.593,0.051,0.807,-0.183,0.366,-0.183,3.647,-36.14,-123.327,-19.86,-8.307,-5.827,25.94,-0.46036,0.25809,0.1741,0.8313,594,0.318,0.023,0.942,0.183,-1.038,-0.427,1.461,-18.567,168.184,-9.28,-10.16,-32.72,29.55,0.09833,0.1601,-0.0036,0.98215,600,0.961,0.073,0.221,0.0,0.0,0.0,17.298,-76.064,-175.193,-30.04,-14.14,-2.353,29.43,-0.12701,0.60263,0.14505,0.77432,590
149,1.017,-0.07,0.068,0.061,1.16,0.0,-45.961,-84.501,-148.03,-29.027,-11.347,-4.84,26.86,-0.0654,-0.67383,0.10764,-0.728,597,0.591,0.052,0.808,-0.122,0.61,-0.183,3.647,-36.134,-123.344,-19.86,-8.307,-5.827,25.94,-0.46036,0.25809,0.1741,0.8313,595,0.319,0.024,0.94,0.244,-0.671,-0.732,1.472,-18.589,168.157,-9.28,-10.16,-32.72,29.55,0.09833,0.1601,-0.0036,0.98215,601,0.961,0.072,0.223,0.061,0.122,0.0,17.303,-76.069,-175.21,-30.04,-14.14,-2.353,29.43,-0.12701,0.60263,0.14505,0.77432,591
150,1.016,-0.069,0.069,0.061,1.16,0.0,-45.802,-84.485,-148.2,-29.027,-11.347,-4.84,26.86,-0.0654,-0.67383,0.10764,-0.728,604,0.59,0.052,0.808,0.061,0.916,-0.122,3.647,-36.123,-123.365,-19.86,-8.307,-5.827,25.94,-0.46036,0.25809,0.1741,0.8313,602,0.316,0.027,0.941,0.549,-0.732,-0.549,1.489,-18.605,168.135,-9.28,-10.16,-32.72,29.55,0.09833,0.1601,-0.0036,0.98215,606,0.959,0.071,0.224,0.183,0.244,-0.061,17.314,-76.069,-175.232,-30.04,-14.14,-2.353,29.43,-0.12701,0.60263,0.14505,0.77432,598
151,1.016,-0.069,0.07,0.0,1.343,0.0,-45.626,-84.468,-148.365,-29.027,-11.347,-4.84,26.86,-0.0654,-0.67383,0.10764,-0.728,605,0.586,0.053,0.81,0.366,1.282,-0.061,3.653,-36.107,-123.387,-19.86,-8.307,-5.827,25.94,-0.46036,0.25809,0.1741,0.8313,603,0.317,0.027,0.942,0.854,-1.221,-0.183,1.505,-18.627,168.14,-9.28,-10.16,-32.72,29.55,0.09833,0.1601,-0.0036,0.98215,607,0.958,0.071,0.223,0.122,0.366,-0.061,17.32,-76.064,-175.259,-30.04,-14.14,-2.353,29.43,-0.12701,0.60263,0.14505,0.77432,599
152,1.014,-0.069,0.071,0.0,1.648,0.0,-45.417,-84.446,-148.568,-28.687,-11.5,-5.107,26.86,-0.0654,-0.67383,0.10764,-0.728,608,0.584,0.054,0.813,0.244,1.16,-0.122,3.658,-36.085,-123.404,-19.86,-8.307,-5.827,25.94,-0.46036,0.25809,0.1741,0.8313,612,0.312,0.029,0.946,0.854,-1.648,-0.366,1.522,-18.66,168.135,-9.28,-10.16,-32.72,29.55,0.09833,0.1601,-0.0036,0.98215,614,0.956,0.072,0.225,0.061,0.366,-0.061,17.325,-76.058,-175.27,-30.04,-14.14,-2.353,29.43,-0.12701,0.60263,0.14505,0.77432,610
153,1.015,-0.069,0.071,-0.061,1.709,-0.061,-45.176,-84.424,-148.804,-28.687,-11.5,-5.107,26.86,-0.0654,-0.67383,0.10764,-0.728,609,0.582,0.053,0.815,0.061,0.854,-0.183,3.664,-36.063,-123.415,-19.86,-8.307,-5.827,25.94,-0.46036,0.25809,0.1741,0.8313,613,0.313,0.029,0.949,0.305,-2.38,-0.366,1.538,-18.704,168.135,-9.28,-10.16,-32.72,29.55,0.09833,0.1601,-0.0036,0.98215,615,0.955,0.073,0.225,0.061,0.366,0.0,17.325,-76.058,-175.265,-30.04,-14.14,-2.353,29.43,-0.12701,0.60263,0.14505,0.77432,611
154,1.016,-0.069,0.072,-0.122,1.709,0.0,-44.934,-84.402,-149.046,-28.687,-11.5,-5.107,26.86,-0.0654,-0.67383,0.10764,-0.728,616,0.58,0.053,0.818,-0.427,0.427,-0.183,3.669,-36.046,-123.426,-19.86,-8.307,-5.827,25.94,-0.46036,0.25809,0.1741,0.8313,618,0.314,0.028,0.949,-0.244,-2.686,-0.732,1.538,-18.754,168.118,-9.013,-10.54,-33.14,29.55,0.09833,0.1601,-0.0036,0.98215,620,0.955,0.073,0.228,0.0,0.244,0.0,17.325,-76.053,-175.276,-29.887,-14.233,-1.96,29.43,-0.12701,0.60263,0.14505,0.77432,622
155,1.015,-0.069,0.073,-0.061,1.465,0.0,-44.72,-84.386,-149.249,-28.687,-11.5,-5.107,26.86,-0.0654,-0.67383,0.10764,-0.728,617,0.582,0.054,0.818,-0.854,0.183,-0.183,3.658,-36.041,-123.431,-19.86,-8.307,-5.827,25.94,-0.46036,0.25809,0.1741,0.8313,619,0.312,0.028,0.947,-0.854,-2.808,-0.793,1.533,-18.803,168.107,-9.013,-10.54,-33.14,29.55,0.09833,0.1601,-0.0036,0.98215,621,0.954,0.073,0.23,-0.061,0.061,0.0,17.325,-76.053,-175.27,-29.887,-14.233,-1.96,29.43,-0.12701,0.60263,0.14505,0.77432,623
156,1.016,-0.069,0.074,0.0,0.793,0.122,-44.599,-84.37,-149.359,-28.687,-11.5,-5.107,26.86,-0.06476,-0.67368,0.10715,-0.72827,632,0.587,0.054,0.817,-0.671,-0.122,-0.305,3.647,-36.035,-123.431,-19.913,-8.513,-5.067,25.94,-0.46036,0.25809,0.1741,0.8313,624,0.32,0.027,0.946,-1.221,-1.953,-0.916,1.516,-18.842,168.102,-9.013,-10.54,-33.14,29.55,0.10001,0.16412,-0.00394,0.98129,628,0.954,0.073,0.23,-0.061,0.0,0.0,17.331,-76.053,-175.276,-29.887,-14.233,-1.96,29.43,-0.12482,0.60358,0.14368,0.7742,626
157,1.017,-0.07,0.074,0.0,0.366,0.183,-44.555,-84.359,-149.398,-28.687,-11.5,-5.107,26.86,-0.06476,-0.67368,0.10715,-0.72827,633,0.586,0.048,0.812,-0.732,-0.183,-0.366,3.636,-36.035,-123.437,-19.913,-8.513,-5.067,25.94,-0.46036,0.25809,0.1741,0.8313,625,0.323,0.024,0.941,-0.732,-1.526,-1.038,1.511,-18.864,168.085,-9.013,-10.54,-33.14,29.55,0.10001,0.16412,-0.00394,0.98129,629,0.958,0.073,0.231,-0.122,-0.305,0.0,17.336,-76.058,-175.287,-29.887,-14.233,-1.96,29.43,-0.12482,0.60358,0.14368,0.7742,627
158,1.014,-0.071,0.075,0.0,-0.122,0.183,-44.577,-84.359,-149.348,-28.687,-11.5,-5.107,26.86,-0.06476,-0.67368,0.10715,-0.72827,636,0.587,0.044,0.81,-0.793,0.122,-0.305,3.631,-36.03,-123.442,-19.913,-8.513,-5.067,25.94,-0.46036,0.25809,0.1741,0.8313,630,0.322,0.021,0.938,-0.916,-1.77,-0.977,1.5,-18.896,168.074,-9.013,-10.54,-33.14,29.55,0.10001,0.16412,-0.00394,0.98129,640,0.957,0.071,0.231,0.0,-0.61,0.061,17.353,-76.069,-175.309,-29.887,-14.233,-1.96,29.43,-0.12482,0.60358,0.14368,0.7742,634
159,1.013,-0.071,0.075,0.0,-0.549,0.061,-44.648,-84.364,-149.26,-28.687,-11.5,-5.107,26.86,-0.06476,-0.67368,0.10715,-0.72827,637,0.587,0.05,0.808,-0.549,0.488,-0.305,3.62,-36.024,-123.448,-19.913,-8.513,-5.067,25.94,-0.46036,0.25809,0.1741,0.8313,631,0.324,0.023,0.939,-1.282,-2.014,-0.305,1.478,-18.935,168.085,-9.013,-10.54,-33.14,29.55,0.10001,0.16412,-0.00394,0.98129,641,0.955,0.067,0.228,-0.061,-0.549,0.0,17.364,-76.075,-175.325,-29.887,-14.233,-1.96,29.43,-0.12482,0.60358,0.14368,0.7742,635
160,1.014,-0.07,0.075,0.0,-0.488,0.0,-44.714,-84.37,-149.194,-28.687,-11.5,-5.107,26.86,-0.06476,-0.67368,0.10715,-0.72827,642,0.59,0.054,0.809,-0.122,0.366,-0.244,3.615,-36.013,-123.459,-19.913,-8.513,-5.067,25.94,-0.45886,0.25797,0.17291,0.8324,648,0.326,0.03,0.939,-0.122,-2.075,-0.427,1.478,-18.973,168.102,-9.013,-10.54,-33.14,29.55,0.10001,0.16412,-0.00394,0.98129,644,0.956,0.069,0.226,-0.305,-0.305,0.0,17.369,-76.08,-175.32,-29.887,-14.233,-1.96,29.43,-0.12482,0.60358,0.14368,0.7742,638
161,1.016,-0.07,0.076,0.0,-0.122,0.0,-44.731,-84.37,-149.156,-28.687,-11.5,-5.107,26.86,-0.06476,-0.67368,0.10715,-0.72827,643,0.594,0.05,0.811,0.366,0.244,0.244,3.62,-36.002,-123.459,-19.913,-8.513,-5.067,25.94,-0.45886,0.25797,0.17291,0.8324,649,0.333,0.031,0.942,-0.122,-2.319,0.732,1.478,-19.017,168.135,-9.013,-10.54,-33.14,29.55,0.10001,0.16412,-0.00394,0.98129,645,0.958,0.072,0.229,-0.122,-0.244,0.0,17.369,-76.086,-175.32,-29.887,-14.233,-1.96,29.43,-0.12482,0.60358,0.14368,0.7742,639
162,1.017,-0.071,0.073,0.061,-0.122,0.0,-44.736,-84.37,-149.134,-28.687,-11.5,-5.107,26.86,-0.06476,-0.67368,0.10715,-0.72827,646,0.593,0.048,0.81,0.427,0.305,0.549,3.62,-35.997,-123.459,-19.913,-8.513,-5.067,25.94,-0.45886,0.25797,0.17291,0.8324,652,0.33,0.022,0.94,-0.122,-2.319,1.77,1.461,-19.061,168.19,-9.013,-10.54,-33.14,29.55,0.10001,0.16412,-0.00394,0.98129,654,0.962,0.067,0.225,0.061,-0.244,0.0,17.375,-76.091,-175.314,-29.887,-14.233,-1.96,29.43,-0.12482,0.60358,0.14368,0.7742,650
163,1.018,-0.071,0.073,-0.061,0.122,0.0,-44.72,-84.37,-149.139,-28.687,-11.5,-5.107,26.86,-0.06476,-0.67368,0.10715,-0.72827,647,0.589,0.05,0.812,0.244,0.488,0.549,3.62,-35.986,-123.453,-19.913,-8.513,-5.067,25.94,-0.45886,0.25797,0.17291,0.8324,653,0.329,0.02,0.942,-0.183,-2.502,1.099,1.45,-19.111,168.217,-9.013,-10.54,-33.14,29.55,0.10001,0.16412,-0.00394,0.98129,655,0.963,0.067,0.224,0.122,-0.244,0.0,17.386,-76.097,-175.32,-29.887,-14.233,-1.96,29.43,-0.12482,0.60358,0.14368,0.7742,651
164,1.018,-0.071,0.071,-0.183,0.0,0.0,-44.709,-84.37,-149.139,-28.687,-11.5,-5.107,26.86,-0.06476,-0.67368,0.10715,-0.72827,658,0.587,0.052,0.815,0.183,0.549,0.305,3.615,-35.98,-123.459,-19.913,-8.513,-5.067,25.94,-0.45886,0.25797,0.17291,0.8324,660,0.326,0.024,0.942,-0.244,-2.258,0.305,1.445,-19.155,168.217,-9.013,-10.54,-33.14,29.55,0.10001,0.16412,-0.00394,0.98129,662,0.96,0.069,0.224,0.305,-0.122,0.0,17.391,-76.097,-175.32,-29.887,-14.233,-1.96,29.43,-0.12482,0.60358,0.14368,0.7742,656
165,1.017,-0.071,0.069,0.061,-0.183,0.0,-44.72,-84.37,-149.112,-28.687,-11.5,-5.107,26.86,-0.06476,-0.67368,0.10715,-0.72827,659,0.589,0.053,0.814,0.122,0.244,0.183,3.615,-35.969,-123.47,-19.913,-8.513,-5.067,25.94,-0.45886,0.25797,0.17291,0.8324,661,0.331,0.026,0.944,0.122,-1.953,0.549,1.445,-19.193,168.234,-9.013,-10.54,-33.14,29.55,0.10001,0.16412,-0.00394,0.98129,663,0.958,0.073,0.223,0.305,0.0,0.0,17.397,-76.097,-175.331,-29.887,-14.233,-1.96,29.43,-0.12482,0.60358,0.14368,0.7742,657
166,1.018,-0.07,0.067,0.122,0.0,0.0,-44.725,-84.37,-149.095,-28.687,-11.5,-5.107,26.86,-0.06476,-0.67368,0.10715,-0.72827,668,0.59,0.052,0.812,0.061,-0.061,0.061,3.615,-35.969,-123.481,-19.913,-8.513,-5.067,25.94,-0.45886,0.25797,0.17291,0.8324,664,0.332,0.025,0.941,0.0,-1.526,0.427,1.445,-19.221,168.223,-9.013,-10.54,-33.14,29.55,0.10001,0.16412,-0.00394,0.98129,670,0.957,0.074,0.221,0.122,0.061,0.0,17.397,-76.097,-175.358,-29.887,-14.233,-1.96,29.43,-0.12482,0.60358,0.14368,0.7742,666
167,1.02,-0.069,0.066,-0.061,0.183,0.0,-44.703,-84.37,-149.112,-28.687,-11.5,-5.107,26.86,-0.06476,-0.67368,0.10715,-0.72827,669,0.588,0.053,0.812,-0.061,-0.183,0.061,3.615,-35.969,-123.486,-19.913,-8.513,-5.067,25.94,-0.45886,0.25797,0.17291,0.8324,665,0.333,0.027,0.941,-0.366,-1.648,0.427,1.439,-19.254,168.212,-9.013,-10.54,-33.14,29.55,0.10001,0.16412,-0.00394,0.98129,671,0.958,0.074,0.221,0.061,-0.122,0.0,17.402,-76.102,-175.38,-29.887,-14.233,-1.96,29.43,-0.12482,0.60358,0.14368,0.7742,667
168,1.02,-0.069,0.067,0.0,0.061,0.0,-44.698,-84.37,-149.123,-28.687,-11.5,-5.107,26.86,-0.06476,-0.67368,0.10715,-0.72827,676,0.586,0.053,0.812,-0.305,-0.183,0.0,3.609,-35.969,-123.514,-19.913,-8.513,-5.067,25.94,-0.45886,0.25797,0.17291,0.8324,672,0.328,0.026,0.938,-0.183,-2.075,0.122,1.434,-19.292,168.195,-9.067,-10.293,-32.78,29.55,0.10001,0.16412,-0.00394,0.98129,678,0.958,0.073,0.22,0.0,-0.244,0.0,17.413,-76.108,-175.38,-29.887,-14.233,-1.96,29.43,-0.12482,0.60358,0.14368,0.7742,674
169,1.017,-0.07,0.068,0.122,-0.183,0.0,-44.714,-84.37,-149.106,-28.687,-11.5,-5.107,26.86,-0.06476,-0.67368,0.10715,-0.72827,677,0.589,0.052,0.812,-0.427,-0.183,0.0,3.604,-35.975,-123.536,-19.913,-8.513,-5.067,25.94,-0.45886,0.25797,0.17291,0.8324,673,0.333,0.024,0.939,-0.366,-1.709,-0.488,1.434,-19.325,168.157,-9.067,-10.293,-32.78,29.55,0.10001,0.16412,-0.00394,0.98129,679,0.957,0.072,0.221,0.0,-0.305,0.0,17.424,-76.113,-175.38,-29.887,-14.233,-1.96,29.43,-0.12482,0.60358,0.14368,0.7742,675
170,1.017,-0.07,0.069,0.183,-0.488,0.0,-44.78,-84.375,-149.052,-28.98,-11.273,-5.387,26.86,-0.06476,-0.67368,0.10715,-0.72827,680,0.59,0.049,0.81,-0.305,-0.305,0.0,3.598,-35.98,-123.558,-19.913,-8.513,-5.067,25.94,-0.45886,0.25797,0.17291,0.8324,682,0.336,0.023,0.939,-0.244,-1.77,-0.244,1.428,-19.363,168.118,-9.067,-10.293,-32.78,29.55,0.10001,0.16412,-0.00394,0.98129,686,0.957,0.072,0.222,0.0,-0.366,0.0,17.441,-76.124,-175.402,-29.887,-14.233,-1.96,29.43,-0.12482,0.60358,0.14368,0.7742,684
171,1.016,-0.069,0.07,0.061,-0.366,0.0,-44.841,-84.38,-148.986,-28.98,-11.273,-5.387,26.86,-0.06476,-0.67368,0.10715,-0.72827,681,0.591,0.049,0.811,-0.305,-0.427,0.0,3.593,-35.986,-123.58,-19.913,-8.513,-5.067,25.94,-0.45886,0.25797,0.17291,0.8324,683,0.334,0.023,0.938,-0.122,-2.075,0.061,1.428,-19.402,168.096,-9.067,-10.293,-32.78,29.55,0.10001,0.16412,-0.00394,0.98129,687,0.958,0.072,0.222,-0.061,-0.488,0.0,17.457,-76.135,-175.43,-29.887,-14.233,-1.96,29.43,-0.12482,0.60358,0.14368,0.7742,685
172,1.017,-0.069,0.07,0.0,-0.122,0.0,-44.868,-84.386,-148.969,-28.98,-11.273,-5.387,26.86,-0.06476,-0.67368,0.10715,-0.72827,688,0.591,0.05,0.81,-0.305,-0.366,-0.183,3.587,-35.991,-123.602,-19.913,-8.513,-5.067,25.94,-0.45886,0.25797,0.17291,0.8324,692,0.336,0.022,0.937,-0.183,-2.136,-0.244,1.428,-19.446,168.063,-9.067,-10.293,-32.78,29.55,0.10001,0.1687,-0.00516,0.98053,694,0.96,0.072,0.221,-0.122,-0.61,0.0,17.474,-76.146,-175.468,-30.22,-14.287,-2.3,29.43,-0.12482,0.60358,0.14368,0.7742,690
173,1.015,-0.069,0.072,-0.061,0.061,0.0,-44.868,-84.386,-148.997,-28.98,-11.273,-5.387,26.86,-0.06476,-0.67368,0.10715,-0.72827,689,0.593,0.052,0.809,-0.183,-0.183,-0.244,3.587,-35.997,-123.624,-19.913,-8.513,-5.067,25.94,-0.45886,0.25797,0.17291,0.8324,693,0.336,0.025,0.936,-0.122,-1.953,-0.427,1.428,-19.484,168.036,-9.067,-10.293,-32.78,29.55,0.10001,0.1687,-0.00516,0.98053,695,0.962,0.073,0.222,-0.061,-0.61,0.0,17.496,-76.163,-175.512,-30.22,-14.287,-2.3,29.43,-0.12482,0.60358,0.14368,0.7742,691
174,1.015,-0.07,0.073,0.0,0.122,0.0,-44.852,-84.386,-149.013,-28.98,-11.273,-5.387,26.86,-0.0639,-0.67377,0.10648,-0.72836,698,0.59,0.052,0.808,0.061,0.183,-0.122,3.593,-35.997,-123.651,-19.44,-8.653,-5.907,25.94,-0.45886,0.25797,0.17291,0.8324,706,0.342,0.027,0.936,0.244,-1.953,-0.061,1.434,-19.523,168.019,-9.067,-10.293,-32.78,29.55,0.10001,0.1687,-0.00516,0.98053,702,0.96,0.072,0.223,0.061,-0.305,0.0,17.512,-76.168,-175.545,-30.22,-14.287,-2.3,29.43,-0.12482,0.60358,0.14368,0.7742,696
175,1.015,-0.071,0.074,0.0,0.366,0.0,-44.808,-84.38,-149.062,-28.98,-11.273,-5.387,26.86,-0.0639,-0.67377,0.10648,-0.72836,699,0.587,0.052,0.81,0.305,0.244,0.061,3.593,-35.991,-123.673,-19.44,-8.653,-5.907,25.94,-0.45886,0.25797,0.17291,0.8324,707,0.334,0.03,0.935,0.549,-1.587,0.488,1.445,-19.556,168.019,-9.067,-10.293,-32.78,29.55,0.10001,0.1687,-0.00516,0.98053,703,0.96,0.071,0.223,0.0,-0.061,0.0,17.518,-76.174,-175.578,-30.22,-14.287,-2.3,29.43,-0.12482,0.60358,0.14368,0.7742,697
176,1.017,-0.071,0.073,0.0,0.549,0.0,-44.731,-84.375,-149.134,-28.98,-11.273,-5.387,26.86,-0.0639,-0.67377,0.10648,-0.72836,704,0.587,0.05,0.811,0.244,0.122,0.122,3.598,-35.991,-123.684,-19.44,-8.653,-5.907,25.94,-0.45709,0.25812,0.17206,0.8335,708,0.336,0.022,0.938,0.183,-1.099,0.61,1.445,-19.578,168.008,-9.067,-10.293,-32.78,29.55,0.10001,0.1687,-0.00516,0.98053,712,0.958,0.071,0.224,0.0,0.183,0.0,17.518,-76.168,-175.605,-30.22,-14.287,-2.3,29.43,-0.12384,0.60455,0.14325,0.77365,700
177,1.017,-0.071,0.073,-0.122,0.61,0.0,-44.643,-84.364,-149.222,-28.98,-11.273,-5.387,26.86,-0.0639,-0.67377,0.10648,-0.72836,705,0.587,0.05,0.812,0.122,0.061,0.0,3.604,-35.986,-123.701,-19.44,-8.653,-5.907,25.94,-0.45709,0.25812,0.17206,0.8335,709,0.335,0.023,0.937,-0.122,-0.793,0.122,1.445,-19.594,167.981,-9.067,-10.293,-32.78,29.55,0.10001,0.1687,-0.00516,0.98053,713,0.958,0.072,0.224,0.0,0.244,0.0,17.518,-76.168,-175.627,-30.22,-14.287,-2.3,29.43,-0.12384,0.60455,0.14325,0.77365,701
178,1.017,-0.07,0.071,0.0,0.549,0.0,-44.561,-84.359,-149.315,-28.98,-11.273,-5.387,26.86,-0.0639,-0.67377,0.10648,-0.72836,714,0.586,0.05,0.813,0.061,0.061,-0.061,3.604,-35.986,-123.712,-19.44,-8.653,-5.907,25.94,-0.45709,0.25812,0.17206,0.8335,718,0.33,0.024,0.939,0.366,-0.732,0.061,1.45,-19.611,167.937,-9.067,-10.293,-32.78,29.55,0.10001,0.1687,-0.00516,0.98053,716,0.958,0.072,0.224,-0.061,0.122,0.0,17.518,-76.163,-175.66,-30.22,-14.287,-2.3,29.43,-0.12384,0.60455,0.14325,0.77365,710
179,1.016,-0.071,0.071,0.0,0.244,0.0,-44.517,-84.353,-149.348,-28.98,-11.273,-5.387,26.86,-0.0639,-0.67377,0.10648,-0.72836,715,0.588,0.049,0.814,0.183,0.122,-0.061,3.609,-35.98,-123.728,-19.44,-8.653,-5.907,25.94,-0.45709,0.25812,0.17206,0.8335,719,0.338,0.023,0.94,0.366,-0.854,0.427,1.456,-19.627,167.91,-9.067,-10.293,-32.78,29.55,0.10001,0.1687,-0.00516,0.98053,717,0.958,0.072,0.224,-0.061,0.122,0.0,17.518,-76.163,-175.671,-30.22,-14.287,-2.3,29.43,-0.12384,0.60455,0.14325,0.77365,711
180,1.017,-0.071,0.071,0.0,0.061,0.0,-44.5,-84.353,-149.354,-28.98,-11.273,-5.387,26.86,-0.0639,-0.67377,0.10648,-0.72836,720,0.589,0.05,0.812,0.061,0.0,-0.061,3.609,-35.98,-123.739,-19.44,-8.653,-5.907,25.94,-0.45709,0.25812,0.17206,0.8335,724,0.337,0.024,0.938,0.122,-0.549,-0.061,1.461,-19.638,167.871,-9.067,-10.293,-32.78,29.55,0.10001,0.1687,-0.00516,0.98053,726,0.957,0.071,0.223,-0.122,0.183,0.0,17.512,-76.163,-175.693,-30.22,-14.287,-2.3,29.43,-0.12384,0.60455,0.14325,0.77365,722
181,1.017,-0.071,0.071,0.0,0.0,0.0,-44.5,-84.353,-149.343,-28.98,-11.273,-5.387,26.86,-0.0639,-0.67377,0.10648,-0.72836,721,0.588,0.05,0.812,0.183,-0.061,0.0,3.615,-35.98,-123.755,-19.44,-8.653,-5.907,25.94,-0.45709,0.25812,0.17206,0.8335,725,0.337,0.025,0.938,0.427,-0.671,0.0,1.467,-19.649,167.844,-9.067,-10.293,-32.78,29.55,0.10001,0.1687,-0.00516,0.98053,727,0.958,0.069,0.223,-0.061,0.122,0.0,17.512,-76.157,-175.726,-30.22,-14.287,-2.3,29.43,-0.12384,0.60455,0.14325,0.77365,723
182,1.017,-0.07,0.071,0.061,-0.122,0.0,-44.511,-84.353,-149.31,-28.98,-11.273,-5.387,26.86,-0.0639,-0.67377,0.10648,-0.72836,728,0.59,0.05,0.812,0.061,-0.122,0.0,3.615,-35.98,-123.766,-19.44,-8.653,-5.907,25.94,-0.45709,0.25812,0.17206,0.8335,732,0.338,0.024,0.938,0.488,-0.488,-0.183,1.483,-19.66,167.794,-9.067,-10.293,-32.78,29.55,0.10001,0.1687,-0.00516,0.98053,734,0.958,0.069,0.222,0.0,0.0,0.0,17.512,-76.163,-175.765,-30.22,-14.287,-2.3,29.43,-0.12384,0.60455,0.14325,0.77365,730
183,1.017,-0.071,0.071,0.122,-0.183,0.0,-44.539,-84.353,-149.249,-28.98,-11.273,-5.387,26.86,-0.0639,-0.67377,0.10648,-0.72836,729,0.592,0.05,0.81,0.061,-0.061,-0.061,3.615,-35.98,-123.783,-19.44,-8.653,-5.907,25.94,-0.45709,0.25812,0.17206,0.8335,733,0.341,0.023,0.937,0.183,-0.732,0.0,1.483,-19.677,167.761,-9.067,-10.293,-32.78,29.55,0.10001,0.1687,-0.00516,0.98053,735,0.961,0.07,0.222,0.0,0.0,0.0,17.518,-76.163,-175.814,-30.22,-14.287,-2.3,29.43,-0.12384,0.60455,0.14325,0.77365,731
184,1.017,-0.071,0.071,0.061,-0.122,0.0,-44.555,-84.359,-149.194,-28.98,-11.273,-5.387,26.86,-0.0639,-0.67377,0.10648,-0.72836,736,0.592,0.052,0.81,0.0,0.0,-0.061,3.62,-35.98,-123.788,-19.44,-8.653,-5.907,25.94,-0.45709,0.25812,0.17206,0.8335,738,0.34,0.026,0.937,-0.061,-0.793,0.0,1.483,-19.693,167.745,-9.5,-10.82,-32.887,29.55,0.10001,0.1687,-0.00516,0.98053,744,0.961,0.072,0.222,0.0,0.0,0.0,17.518,-76.163,-175.842,-30.22,-14.287,-2.3,29.43,-0.12384,0.60455,0.14325,0.77365,740
185,1.017,-0.07,0.071,0.0,0.0,0.0,-44.561,-84.359,-149.161,-28.98,-11.273,-5.387,26.86,-0.0639,-0.67377,0.10648,-0.72836,737,0.589,0.053,0.811,0.0,0.0,0.0,3.62,-35.98,-123.81,-19.44,-8.653,-5.907,25.94,-0.45709,0.25812,0.17206,0.8335,739,0.338,0.026,0.938,0.0,-0.732,-0.244,1.489,-19.709,167.745,-9.5,-10.82,-32.887,29.55,0.10001,0.1687,-0.00516,0.98053,745,0.96,0.072,0.221,0.0,0.061,0.0,17.518,-76.168,-175.864,-30.22,-14.287,-2.3,29.43,-0.12384,0.60455,0.14325,0.77365,741
186,1.017,-0.07,0.071,0.0,0.122,0.0,-44.55,-84.353,-149.156,-28.98,-11.273,-5.387,26.86,-0.0639,-0.67377,0.10648,-0.72836,748,0.587,0.053,0.812,0.061,0.0,0.0,3.62,-35.98,-123.821,-19.44,-8.653,-5.907,25.94,-0.45709,0.25812,0.17206,0.8335,746,0.336,0.027,0.938,0.122,-1.099,-0.305,1.494,-19.731,167.767,-9.5,-10.82,-32.887,29.55,0.10269,0.17172,-0.00546,0.97971,750,0.959,0.071,0.222,0.0,0.183,0.0,17.523,-76.168,-175.891,-30.22,-14.287,-2.3,29.43,-0.12384,0.60455,0.14325,0.77365,742
187,1.018,-0.07,0.072,0.0,0.305,0.0,-44.506,-84.353,-149.194,-28.98,-11.273,-5.387,26.86,-0.0639,-0.67377,0.10648,-0.72836,749,0.587,0.052,0.812,0.0,0.0,0.061,3.62,-35.98,-123.843,-19.44,-8.653,-5.907,25.94,-0.45709,0.25812,0.17206,0.8335,747,0.338,0.027,0.937,-0.183,-0.977,-0.427,1.494,-19.753,167.778,-9.5,-10.82,-32.887,29.55,0.10269,0.17172,-0.00546,0.97971,751,0.958,0.072,0.222,0.0,0.183,0.0,17.518,-76.163,-175.913,-30.22,-14.287,-2.3,29.43,-0.12384,0.60455,0.14325,0.77365,743
188,1.016,-0.071,0.072,0.0,0.305,0.0,-44.467,-84.348,-149.238,-28.933,-10.913,-5.173,26.86,-0.0639,-0.67377,0.10648,-0.72836,756,0.587,0.053,0.812,-0.061,0.0,0.0,3.62,-35.98,-123.86,-19.44,-8.653,-5.907,25.94,-0.45709,0.25812,0.17206,0.8335,752,0.337,0.026,0.936,0.0,-0.793,-0.183,1.494,-19.77,167.811,-9.5,-10.82,-32.887,29.55,0.10269,0.17172,-0.00546,0.97971,754,0.958,0.071,0.222,0.0,0.122,0.0,17.518,-76.163,-175.93,-30.22,-14.287,-2.3,29.43,-0.12384,0.60455,0.14325,0.77365,758
189,1.016,-0.07,0.072,0.0,0.244,0.0,-44.434,-84.342,-149.293,-28.933,-10.913,-5.173,26.86,-0.0639,-0.67377,0.10648,-0.72836,757,0.587,0.05,0.812,0.061,0.0,0.0,3.62,-35.98,-123.882,-19.44,-8.653,-5.907,25.94,-0.45709,0.25812,0.17206,0.8335,753,0.335,0.024,0.936,0.061,-0.793,0.183,1.494,-19.781,167.86,-9.5,-10.82,-32.887,29.55,0.10269,0.17172,-0.00546,0.97971,755,0.958,0.072,0.223,-0.061,0.061,0.0,17.518,-76.163,-175.957,-30.22,-14.287,-2.3,29.43,-0.12384,0.60455,0.14325,0.77365,759
190,1.017,-0.07,0.072,0.0,0.122,0.0,-44.418,-84.342,-149.321,-28.933,-10.913,-5.173,26.86,-0.06326,-0.67346,0.10577,-0.72879,760,0.583,0.051,0.813,-0.122,0.0,0.0,3.62,-35.975,-123.904,-19.44,-8.653,-5.907,25.94,-0.45709,0.25812,0.17206,0.8335,762,0.337,0.024,0.939,0.0,-0.793,0.244,1.494,-19.797,167.915,-9.5,-10.82,-32.887,29.55,0.10269,0.17172,-0.00546,0.97971,764,0.957,0.073,0.224,-0.122,0.061,0.0,17.518,-76.163,-175.979,-30.32,-14.433,-1.913,29.43,-0.12384,0.60455,0.14325,0.77365,766
191,1.016,-0.07,0.072,-0.061,0.061,0.0,-44.412,-84.342,-149.343,-28.933,-10.913,-5.173,26.86,-0.06326,-0.67346,0.10577,-0.72879,761,0.584,0.053,0.817,-0.366,-0.061,0.0,3.615,-35.975,-123.926,-19.44,-8.653,-5.907,25.94,-0.45709,0.25812,0.17206,0.8335,763,0.333,0.028,0.941,-0.122,-0.916,-0.122,1.494,-19.819,167.953,-9.5,-10.82,-32.887,29.55,0.10269,0.17172,-0.00546,0.97971,765,0.957,0.072,0.223,-0.122,0.0,0.0,17.523,-76.163,-176.001,-30.32,-14.433,-1.913,29.43,-0.12384,0.60455,0.14325,0.77365,767
192,1.017,-0.07,0.072,-0.061,0.0,0.0,-44.412,-84.342,-149.337,-28.933,-10.913,-5.173,26.86,-0.06326,-0.67346,0.10577,-0.72879,768,0.587,0.053,0.814,-0.61,-0.427,0.0,3.604,-35.98,-123.937,-19.347,-8.82,-6.067,25.94,-0.45709,0.25812,0.17206,0.8335,772,0.341,0.027,0.938,-0.732,-0.854,-0.366,1.483,-19.83,167.992,-9.5,-10.82,-32.887,29.55,0.10269,0.17172,-0.00546,0.97971,770,0.957,0.072,0.224,-0.183,-0.122,0.0,17.523,-76.163,-176.028,-30.32,-14.433,-1.913,29.43,-0.12384,0.60455,0.14325,0.77365,778
193,1.017,-0.07,0.073,0.0,-0.061,0.0,-44.418,-84.342,-149.321,-28.933,-10.913,-5.173,26.86,-0.06326,-0.67346,0.10577,-0.72879,769,0.592,0.05,0.81,-0.732,-0.366,0.0,3.593,-35.986,-123.942,-19.347,-8.82,-6.067,25.94,-0.45709,0.25812,0.17206,0.8335,773,0.345,0.022,0.933,-0.671,-0.732,-0.366,1.472,-19.847,168.019,-9.5,-10.82,-32.887,29.55,0.10269,0.17172,-0.00546,0.97971,771,0.959,0.073,0.224,-0.244,-0.305,0.0,17.529,-76.168,-176.056,-30.32,-14.433,-1.913,29.43,-0.12384,0.60455,0.14325,0.77365,779
194,1.017,-0.07,0.073,0.061,-0.183,0.0,-44.44,-84.342,-149.288,-28.933,-10.913,-5.173,26.86,-0.06326,-0.67346,0.10577,-0.72879,774,0.594,0.047,0.81,-0.244,-0.122,0.0,3.582,-35.986,-123.953,-19.347,-8.82,-6.067,25.94,-0.45511,0.25858,0.17133,0.83459,776,0.345,0.022,0.933,0.0,-1.038,-0.305,1.478,-19.869,168.041,-9.5,-10.82,-32.887,29.55,0.10269,0.17172,-0.00546,0.97971,780,0.962,0.072,0.223,-0.305,-0.366,0.0,17.534,-76.174,-176.089,-30.32,-14.433,-1.913,29.43,-0.12051,0.60519,0.14069,0.77414,782
195,1.017,-0.071,0.073,-0.061,-0.183,0.0,-44.462,-84.348,-149.26,-28.933,-10.913,-5.173,26.86,-0.06326,-0.67346,0.10577,-0.72879,775,0.589,0.047,0.809,-0.305,0.0,0.0,3.576,-35.986,-123.959,-19.347,-8.82,-6.067,25.94,-0.45511,0.25858,0.17133,0.83459,777,0.34,0.025,0.935,-0.183,-0.977,-0.183,1.478,-19.885,168.063,-9.5,-10.82,-32.887,29.55,0.10269,0.17172,-0.00546,0.97971,781,0.961,0.07,0.225,-0.244,-0.427,0.0,17.545,-76.185,-176.122,-30.32,-14.433,-1.913,29.43,-0.12051,0.60519,0.14069,0.77414,783
196,1.014,-0.071,0.073,-0.122,-0.305,0.0,-44.506,-84.348,-149.227,-28.933,-10.913,-5.173,26.86,-0.06326,-0.67346,0.10577,-0.72879,784,0.589,0.048,0.808,-0.122,0.244,0.0,3.576,-35.98,-123.959,-19.347,-8.82,-6.067,25.94,-0.45511,0.25858,0.17133,0.83459,786,0.344,0.023,0.933,-0.183,-1.221,0.122,1.472,-19.913,168.069,-9.5,-10.82,-32.887,29.55,0.10269,0.17172,-0.00546,0.97971,790,0.958,0.067,0.221,0.0,0.0,0.0,17.551,-76.19,-176.149,-30.32,-14.433,-1.913,29.43,-0.12051,0.60519,0.14069,0.77414,788
197,1.014,-0.071,0.072,-0.122,-0.244,0.0,-44.539,-84.353,-149.2,-28.933,-10.913,-5.173,26.86,-0.06326,-0.67346,0.10577,-0.72879,785,0.589,0.053,0.809,0.305,0.427,0.0,3.576,-35.975,-123.953,-19.347,-8.82,-6.067,25.94,-0.45511,0.25858,0.17133,0.83459,787,0.347,0.023,0.934,0.0,-1.038,0.305,1.472,-19.935,168.052,-9.5,-10.82,-32.887,29.55,0.10269,0.17172,-0.00546,0.97971,791,0.958,0.069,0.22,-0.061,0.0,0.0,17.551,-76.19,-176.177,-30.32,-14.433,-1.913,29.43,-0.12051,0.60519,0.14069,0.77414,789
198,1.017,-0.071,0.072,0.0,0.061,0.0,-44.528,-84.353,-149.211,-28.933,-10.913,-5.173,26.86,-0.06326,-0.67346,0.10577,-0.72879,794,0.59,0.057,0.811,0.305,0.244,0.0,3.582,-35.969,-123.959,-19.347,-8.82,-6.067,25.94,-0.45511,0.25858,0.17133,0.83459,792,0.343,0.036,0.937,0.061,-1.587,0.0,1.472,-19.968,168.025,-9.487,-10.667,-33.08,29.55,0.10269,0.17172,-0.00546,0.97971,796,0.96,0.073,0.223,0.122,0.244,0.0,17.551,-76.19,-176.193,-30.32,-14.433,-1.913,29.43,-0.12051,0.60519,0.14069,0.77414,800
199,1.017,-0.072,0.072,0.061,0.305,0.0,-44.478,-84.348,-149.244,-28.933,-10.913,-5.173,26.86,-0.06326,-0.67346,0.10577,-0.72879,795,0.591,0.053,0.814,0.305,0.122,0.305,3.587,-35.964,-123.964,-19.347,-8.82,-6.067,25.94,-0.45511,0.25858,0.17133,0.83459,793,0.348,0.03,0.938,-0.061,-0.977,0.122,1.472,-19.984,167.992,-9.487,-10.667,-33.08,29.55,0.10269,0.17172,-0.00546,0.97971,797,0.961,0.071,0.222,0.244,0.183,0.0,17.551,-76.19,-176.21,-30.32,-14.433,-1.913,29.43,-0.12051,0.60519,0.14069,0.77414,801
200,1.019,-0.071,0.071,0.122,0.366,0.0,-44.429,-84.342,-149.288,-28.933,-10.913,-5.173,26.86,-0.06326,-0.67346,0.10577,-0.72879,798,0.59,0.051,0.813,0.122,0.061,0.427,3.587,-35.964,-123.97,-19.347,-8.82,-6.067,25.94,-0.45511,0.25858,0.17133,0.83459,802,0.341,0.022,0.935,-0.305,-1.282,0.732,1.461,-20.012,167.981,-9.487,-10.667,-33.08,29.55,0.10269,0.17172,-0.00546,0.97971,806,0.961,0.07,0.221,0.183,0.061,0.0,17.551,-76.19,-176.232,-30.32,-14.433,-1.913,29.43,-0.12051,0.60519,0.14069,0.77414,804
201,1.019,-0.07,0.07,0.0,0.366,0.0,-44.379,-84.337,-149.332,-28.933,-10.913,-5.173,26.86,-0.06326,-0.67346,0.10577,-0.72879,799,0.588,0.052,0.812,-0.122,0.061,0.244,3.582,-35.964,-123.975,-19.347,-8.82,-6.067,25.94,-0.45511,0.25858,0.17133,0.83459,803,0.344,0.025,0.936,-0.488,-1.16,0.488,1.45,-20.039,167.964,-9.487,-10.667,-33.08,29.55,0.10269,0.17172,-0.00546,0.97971,807,0.96,0.073,0.221,0.061,0.0,0.0,17.556,-76.19,-176.254,-30.32,-14.433,-1.913,29.43,-0.12051,0.60519,0.14069,0.77414,805
202,1.017,-0.07,0.07,-0.061,0.061,0.0,-44.374,-84.337,-149.337,-28.933,-10.913,-5.173,26.86,-0.06326,-0.67346,0.10577,-0.72879,808,0.585,0.052,0.813,-0.122,0.122,0.061,3.576,-35.958,-123.975,-19.347,-8.82,-6.067,25.94,-0.45511,0.25858,0.17133,0.83459,816,0.34,0.025,0.936,-0.427,-0.977,-0.183,1.445,-20.061,167.91,-9.487,-10.667,-33.08,29.55,0.10086,0.17422,-0.00571,0.97946,814,0.957,0.074,0.221,0.0,0.122,0.0,17.562,-76.19,-176.27,-30.32,-14.433,-1.913,29.43,-0.12051,0.60519,0.14069,0.77414,810
203,1.015,-0.07,0.069,0.061,-0.183,0.0,-44.407,-84.337,-149.288,-28.933,-10.913,-5.173,26.86,-0.06326,-0.67346,0.10577,-0.72879,809,0.585,0.052,0.814,0.0,0.0,0.0,3.576,-35.958,-123.986,-19.347,-8.82,-6.067,25.94,-0.45511,0.25858,0.17133,0.83459,817,0.343,0.025,0.938,0.183,-1.16,0.549,1.45,-20.083,167.882,-9.487,-10.667,-33.08,29.55,0.10086,0.17422,-0.00571,0.97946,815,0.956,0.074,0.22,-0.061,0.122,0.0,17.562,-76.19,-176.292,-30.32,-14.433,-1.913,29.43,-0.12051,0.60519,0.14069,0.77414,811
204,1.017,-0.069,0.069,0.061,0.0,0.0,-44.407,-84.337,-149.299,-28.933,-10.913,-5.173,26.86,-0.06326,-0.67346,0.10577,-0.72879,818,0.586,0.05,0.811,0.0,-0.305,0.0,3.582,-35.964,-123.997,-19.347,-8.82,-6.067,25.94,-0.45511,0.25858,0.17133,0.83459,820,0.345,0.022,0.934,0.122,-1.099,0.366,1.45,-20.105,167.855,-9.487,-10.667,-33.08,29.55,0.10086,0.17422,-0.00571,0.97946,822,0.956,0.074,0.22,-0.122,0.061,0.0,17.562,-76.19,-176.309,-30.32,-14.433,-1.913,29.43,-0.12051,0.60519,0.14069,0.77414,812
205,1.018,-0.069,0.07,-0.061,0.183,0.0,-44.39,-84.337,-149.337,-28.933,-10.913,-5.173,26.86,-0.06326,-0.67346,0.10577,-0.72879,819,0.588,0.049,0.81,-0.244,-0.427,-0.122,3.576,-35.969,-124.014,-19.347,-8.82,-6.067,25.94,-0.45511,0.25858,0.17133,0.83459,821,0.344,0.023,0.931,-0.244,-1.465,0.0,1.445,-20.132,167.833,-9.487,-10.667,-33.08,29.55,0.10086,0.17422,-0.00571,0.97946,823,0.958,0.072,0.222,-0.122,-0.244,0.0,17.567,-76.19,-176.331,-30.32,-14.433,-1.913,29.43,-0.12051,0.60519,0.14069,0.77414,813
206,1.017,-0.069,0.072,0.0,0.122,0.0,-44.374,-84.337,-149.37,-28.86,-11.053,-5.567,26.86,-0.06326,-0.67346,0.10577,-0.72879,830,0.589,0.049,0.811,-0.366,-0.183,-0.244,3.576,-35.975,-124.03,-19.347,-8.82,-6.067,25.94,-0.45511,0.25858,0.17133,0.83459,826,0.346,0.022,0.934,-0.366,-1.16,-0.183,1.439,-20.16,167.811,-9.487,-10.667,-33.08,29.55,0.10086,0.17422,-0.00571,0.97946,828,0.959,0.071,0.223,-0.122,-0.366,0.0,17.578,-76.201,-176.358,-30.32,-14.433,-1.913,29.43,-0.12051,0.60519,0.14069,0.77414,824
207,1.014,-0.069,0.074,0.122,-0.366,0.0,-44.423,-84.342,-149.332,-28.86,-11.053,-5.567,26.86,-0.06326,-0.67346,0.10577,-0.72879,831,0.59,0.05,0.812,-0.305,-0.061,-0.183,3.571,-35.975,-124.047,-19.347,-8.82,-6.067,25.94,-0.45511,0.25858,0.17133,0.83459,827,0.341,0.025,0.936,0.122,-0.854,-0.671,1.45,-20.176,167.778,-9.487,-10.667,-33.08,29.55,0.10086,0.17422,-0.00571,0.97946,829,0.96,0.07,0.224,-0.183,-0.244,0.0,17.589,-76.207,-176.385,-30.32,-14.433,-1.913,29.43,-0.12051,0.60519,0.14069,0.77414,825
208,1.014,-0.07,0.074,0.0,-0.549,0.0,-44.5,-84.348,-149.266,-28.86,-11.053,-5.567,26.86,-0.06339,-0.67352,0.10593,-0.7287,836,0.591,0.047,0.816,0.0,-0.183,-0.061,3.571,-35.975,-124.058,-19.347,-8.82,-6.067,25.94,-0.45511,0.25858,0.17133,0.83459,834,0.348,0.022,0.938,0.854,-0.793,0.732,1.461,-20.193,167.783,-9.487,-10.667,-33.08,29.55,0.10086,0.17422,-0.00571,0.97946,838,0.962,0.069,0.224,-0.183,-0.061,0.0,17.595,-76.212,-176.413,-30.32,-14.433,-1.913,29.43,-0.12051,0.60519,0.14069,0.77414,832
209,1.016,-0.071,0.073,-0.244,-0.366,0.0,-44.55,-84.353,-149.227,-28.86,-11.053,-5.567,26.86,-0.06339,-0.67352,0.10593,-0.7287,837,0.592,0.046,0.811,0.122,-0.305,-0.122,3.576,-35.98,-124.074,-19.347,-8.82,-6.067,25.94,-0.45511,0.25858,0.17133,0.83459,835,0.354,0.019,0.933,0.061,-0.793,0.061,1.461,-20.204,167.767,-9.487,-10.667,-33.08,29.55,0.10086,0.17422,-0.00571,0.97946,839,0.962,0.071,0.223,-0.122,0.061,0.0,17.595,-76.212,-176.429,-30.32,-14.433,-1.913,29.43,-0.12051,0.60519,0.14069,0.77414,833
210,1.016,-0.071,0.074,-0.244,0.0,0.0,-44.55,-84.353,-149.238,-28.86,-11.053,-5.567,26.86,-0.06339,-0.67352,0.10593,-0.7287,840,0.591,0.051,0.809,0.0,-0.244,-0.427,3.582,-35.98,-124.091,-19.707,-8.507,-5.28,25.94,-0.45511,0.25858,0.17133,0.83459,848,0.348,0.024,0.927,0.122,-0.305,-0.061,1.467,-20.215,167.739,-9.487,-10.667,-33.08,29.55,0.10086,0.17422,-0.00571,0.97946,844,0.961,0.073,0.224,-0.061,0.183,-0.305,17.606,-76.207,-176.462,-30.32,-14.433,-1.913,29.43,-0.12051,0.60519,0.14069,0.77414,842
211,1.016,-0.071,0.073,-0.122,0.0,0.0,-44.544,-84.353,-149.249,-28.86,-11.053,-5.567,26.86,-0.06339,-0.67352,0.10593,-0.7287,841,0.587,0.054,0.808,0.183,0.122,-0.61,3.587,-35.98,-124.118,-19.707,-8.507,-5.28,25.94,-0.45511,0.25858,0.17133,0.83459,849,0.348,0.025,0.93,0.427,-0.244,-0.61,1.478,-20.22,167.717,-9.487,-10.667,-33.08,29.55,0.10086,0.17422,-0.00571,0.97946,845,0.958,0.074,0.221,0.061,0.488,-0.305,17.622,-76.201,-176.495,-30.32,-14.433,-1.913,29.43,-0.12051,0.60519,0.14069,0.77414,843
212,1.015,-0.071,0.073,0.0,0.122,0.0,-44.522,-84.353,-149.282,-28.86,-11.053,-5.567,26.86,-0.06339,-0.67352,0.10593,-0.7287,846,0.584,0.056,0.81,0.0,0.244,-0.549,3.598,-35.975,-124.14,-19.707,-8.507,-5.28,25.94,-0.4538,0.25873,0.17096,0.83536,852,0.344,0.032,0.932,0.305,-0.366,-0.61,1.489,-20.226,167.69,-9.487,-10.667,-33.08,29.55,0.10086,0.17422,-0.00571,0.97946,856,0.956,0.073,0.222,-0.061,0.549,-0.183,17.633,-76.19,-176.523,-30.047,-14.167,-1.933,29.43,-0.12051,0.60519,0.14069,0.77414,850
213,1.015,-0.071,0.072,0.061,0.244,0.0,-44.484,-84.348,-149.326,-28.86,-11.053,-5.567,26.86,-0.06339,-0.67352,0.10593,-0.7287,847,0.587,0.056,0.81,0.061,0.183,-0.244,3.604,-35.969,-124.156,-19.707,-8.507,-5.28,25.94,-0.4538,0.25873,0.17096,0.83536,853,0.347,0.032,0.931,0.122,0.183,0.122,1.494,-20.226,167.679,-9.487,-10.667,-33.08,29.55,0.10086,0.17422,-0.00571,0.97946,857,0.955,0.071,0.222,-0.183,0.549,-0.061,17.633,-76.185,-176.534,-30.047,-14.167,-1.933,29.43,-0.12051,0.60519,0.14069,0.77414,851
214,1.017,-0.071,0.072,-0.061,0.244,0.0,-44.445,-84.342,-149.376,-28.86,-11.053,-5.567,26.86,-0.06339,-0.67352,0.10593,-0.7287,860,0.586,0.053,0.81,0.0,0.061,0.0,3.609,-35.969,-124.173,-19.707,-8.507,-5.28,25.94,-0.4538,0.25873,0.17096,0.83536,858,0.345,0.026,0.933,0.0,0.305,0.244,1.489,-20.22,167.668,-9.487,-10.667,-33.08,29.55,0.10086,0.17422,-0.00571,0.97946,862,0.957,0.071,0.222,-0.244,0.427,0.0,17.622,-76.174,-176.545,-30.047,-14.167,-1.933,29.43,-0.12051,0.60519,0.14069,0.77414,854
215,1.019,-0.071,0.07,0.0,0.244,0.0,-44.412,-84.337,-149.425,-28.86,-11.053,-5.567,26.86,-0.06339,-0.67352,0.10593,-0.7287,861,0.588,0.051,0.813,-0.122,0.0,0.0,3.604,-35.969,-124.178,-19.707,-8.507,-5.28,25.94,-0.4538,0.25873,0.17096,0.83536,859,0.346,0.023,0.936,-0.122,0.244,0.0,1.489,-20.22,167.662,-9.487,-10.667,-33.08,29.55,0.10086,0.17422,-0.00571,0.97946,863,0.958,0.072,0.222,-0.183,0.244,0.061,17.611,-76.168,-176.55,-30.047,-14.167,-1.933,29.43,-0.12051,0.60519,0.14069,0.77414,855
216,1.019,-0.07,0.07,0.061,0.244,0.0,-44.379,-84.337,-149.469,-28.86,-11.053,-5.567,26.86,-0.06339,-0.67352,0.10593,-0.7287,866,0.588,0.049,0.813,-0.183,0.0,-0.122,3.604,-35.964,-124.195,-19.707,-8.507,-5.28,25.94,-0.4538,0.25873,0.17096,0.83536,864,0.344,0.024,0.936,-0.244,0.122,0.0,1.489,-20.215,167.668,-10.06,-10.28,-32.707,29.55,0.10086,0.17422,-0.00571,0.97946,870,0.959,0.073,0.222,-0.122,0.183,0.122,17.6,-76.168,-176.556,-30.047,-14.167,-1.933,29.43,-0.12051,0.60519,0.14069,0.77414,868
217,1.018,-0.069,0.069,0.0,-0.183,0.0,-44.385,-84.337,-149.474,-28.86,-11.053,-5.567,26.86,-0.06339,-0.67352,0.10593,-0.7287,867,0.59,0.051,0.814,-0.183,0.0,-0.183,3.604,-35.964,-124.206,-19.707,-8.507,-5.28,25.94,-0.4538,0.25873,0.17096,0.83536,865,0.348,0.024,0.938,-0.305,-0.366,0.0,1.483,-20.226,167.684,-10.06,-10.28,-32.707,29.55,0.10086,0.17422,-0.00571,0.97946,871,0.96,0.072,0.221,-0.122,0.0,0.0,17.595,-76.168,-176.567,-30.047,-14.167,-1.933,29.43,-0.12051,0.60519,0.14069,0.77414,869
218,1.016,-0.069,0.071,-0.061,-0.183,0.0,-44.412,-84.342,-149.458,-28.86,-11.053,-5.567,26.86,-0.06339,-0.67352,0.10593,-0.7287,874,0.591,0.051,0.813,-0.122,-0.183,-0.061,3.604,-35.964,-124.217,-19.707,-8.507,-5.28,25.94,-0.4538,0.25873,0.17096,0.83536,876,0.349,0.027,0.937,-0.549,-0.549,0.0,1.472,-20.237,167.695,-10.06,-10.28,-32.707,29.55,0.10086,0.17422,-0.00571,0.97946,878,0.961,0.071,0.222,-0.122,-0.061,0.0,17.6,-76.168,-176.589,-30.047,-14.167,-1.933,29.43,-0.11749,0.60568,0.13852,0.77463,872
219,1.016,-0.07,0.071,0.0,-0.183,0.0,-44.445,-84.342,-149.447,-28.86,-11.053,-5.567,26.86,-0.06339,-0.67352,0.10593,-0.7287,875,0.59,0.053,0.813,0.0,-0.183,0.061,3.604,-35.969,-124.228,-19.707,-8.507,-5.28,25.94,-0.4538,0.25873,0.17096,0.83536,877,0.349,0.027,0.936,0.0,-0.977,0.366,1.472,-20.259,167.712,-10.06,-10.28,-32.707,29.55,0.10086,0.17422,-0.00571,0.97946,879,0.96,0.071,0.221,-0.061,0.0,-0.061,17.606,-76.174,-176.611,-30.047,-14.167,-1.933,29.43,-0.11749,0.60568,0.13852,0.77463,873
220,1.016,-0.071,0.072,0.061,0.0,0.0,-44.467,-84.348,-149.436,-28.86,-11.053,-5.567,26.86,-0.06339,-0.67352,0.10593,-0.7287,880,0.588,0.051,0.812,0.061,-0.244,0.183,3.604,-35.969,-124.233,-19.707,-8.507,-5.28,25.94,-0.4538,0.25873,0.17096,0.83536,884,0.347,0.025,0.935,0.122,-1.648,0.305,1.472,-20.292,167.734,-10.06,-10.28,-32.707,29.55,0.10315,0.17612,-0.00623,0.97888,886,0.958,0.07,0.221,0.0,0.061,-0.061,17.611,-76.174,-176.627,-30.047,-14.167,-1.933,29.43,-0.11749,0.60568,0.13852,0.77463,882
221,1.016,-0.071,0.072,0.061,0.0,0.0,-44.467,-84.348,-149.447,-28.86,-11.053,-5.567,26.86,-0.06339,-0.67352,0.10593,-0.7287,881,0.587,0.05,0.811,-0.122,-0.305,0.122,3.598,-35.975,-124.239,-19.707,-8.507,-5.28,25.94,-0.4538,0.25873,0.17096,0.83536,885,0.346,0.024,0.932,-0.122,-2.014,0.122,1.472,-20.336,167.745,-10.06,-10.28,-32.707,29.55,0.10315,0.17612,-0.00623,0.97888,887,0.958,0.071,0.222,0.0,0.061,0.0,17.617,-76.174,-176.644,-30.047,-14.167,-1.933,29.43,-0.11749,0.60568,0.13852,0.77463,883
222,1.016,-0.071,0.073,0.061,0.0,0.0,-44.467,-84.348,-149.458,-28.86,-11.053,-5.567,26.86,-0.06339,-0.67352,0.10593,-0.7287,890,0.589,0.051,0.81,-0.183,-0.244,0.061,3.598,-35.98,-124.25,-19.707,-8.507,-5.28,25.94,-0.4538,0.25873,0.17096,0.83536,888,0.348,0.024,0.931,-0.305,-1.892,0.122,1.467,-20.374,167.75,-10.06,-10.28,-32.707,29.55,0.10315,0.17612,-0.00623,0.97888,896,0.958,0.072,0.223,0.0,0.061,0.0,17.617,-76.174,-176.66,-30.047,-14.167,-1.933,29.43,-0.11749,0.60568,0.13852,0.77463,892
223,1.016,-0.07,0.073,0.061,-0.122,0.0,-44.473,-84.348,-149.469,-28.86,-11.053,-5.567,26.86,-0.06339,-0.67352,0.10593,-0.7287,891,0.59,0.052,0.811,0.0,-0.122,0.0,3.598,-35.98,-124.261,-19.707,-8.507,-5.28,25.94,-0.4538,0.25873,0.17096,0.83536,889,0.349,0.025,0.933,-1.282,-1.465,-0.122,1.439,-20.402,167.745,-10.06,-10.28,-32.707,29.55,0.10315,0.17612,-0.00623,0.97888,897,0.959,0.074,0.223,-0.061,0.061,0.0,17.617,-76.174,-176.677,-30.047,-14.167,-1.933,29.43,-0.11749,0.60568,0.13852,0.77463,893
224,1.016,-0.07,0.073,0.0,0.0,0.0,-44.484,-84.348,-149.464,-29.247,-11.473,-5.04,26.86,-0.06339,-0.67352,0.10593,-0.7287,900,0.587,0.053,0.811,0.0,-0.122,0.0,3.598,-35.986,-124.266,-19.707,-8.507,-5.28,25.94,-0.4538,0.25873,0.17096,0.83536,898,0.35,0.026,0.934,-0.488,-1.221,0.244,1.434,-20.435,167.761,-10.06,-10.28,-32.707,29.55,0.10315,0.17612,-0.00623,0.97888,904,0.959,0.073,0.223,-0.183,0.183,0.061,17.611,-76.174,-176.688,-30.047,-14.167,-1.933,29.43,-0.11749,0.60568,0.13852,0.77463,894
225,1.017,-0.07,0.073,0.122,0.122,0.0,-44.478,-84.348,-149.48,-29.247,-11.473,-5.04,26.86,-0.06339,-0.67352,0.10593,-0.7287,901,0.587,0.053,0.813,0.0,-0.183,0.0,3.598,-35.986,-124.277,-19.707,-8.507,-5.28,25.94,-0.4538,0.25873,0.17096,0.83536,899,0.347,0.024,0.934,-0.671,-0.977,0.0,1.423,-20.457,167.778,-10.06,-10.28,-32.707,29.55,0.10315,0.17612,-0.00623,0.97888,905,0.958,0.072,0.223,-0.183,0.244,0.061,17.6,-76.174,-176.693,-30.047,-14.167,-1.933,29.43,-0.11749,0.60568,0.13852,0.77463,895
226,1.017,-0.07,0.072,0.183,0.122,0.0,-44.456,-84.342,-149.507,-29.247,-11.473,-5.04,26.86,-0.06464,-0.67331,0.10706,-0.72864,906,0.586,0.053,0.814,-0.244,-0.244,0.061,3.593,-35.991,-124.283,-19.707,-8.507,-5.28,25.94,-0.4538,0.25873,0.17096,0.83536,910,0.35,0.022,0.934,-0.977,-1.587,-0.305,1.412,-20.479,167.783,-10.06,-10.28,-32.707,29.55,0.10315,0.17612,-0.00623,0.97888,908,0.958,0.071,0.223,-0.122,0.244,0.122,17.589,-76.168,-176.693,-30.047,-14.167,-1.933,29.43,-0.11749,0.60568,0.13852,0.77463,902
227,1.017,-0.069,0.073,0.183,0.0,0.0,-44.434,-84.342,-149.529,-29.247,-11.473,-5.04,26.86,-0.06464,-0.67331,0.10706,-0.72864,907,0.586,0.05,0.812,-0.488,-0.244,0.0,3.587,-35.991,-124.294,-19.707,-8.507,-5.28,25.94,-0.4538,0.25873,0.17096,0.83536,911,0.351,0.02,0.931,-0.427,-1.892,-0.305,1.395,-20.511,167.778,-10.06,-10.28,-32.707,29.55,0.10315,0.17612,-0.00623,0.97888,909,0.957,0.072,0.224,-0.183,0.183,0.183,17.573,-76.168,-176.693,-30.047,-14.167,-1.933,29.43,-0.11749,0.60568,0.13852,0.77463,903
228,1.017,-0.07,0.072,0.122,-0.122,0.0,-44.434,-84.342,-149.54,-29.247,-11.473,-5.04,26.86,-0.06464,-0.67331,0.10706,-0.72864,918,0.588,0.049,0.812,-0.549,-0.183,-0.183,3.576,-35.997,-124.31,-19.453,-8.207,-6.107,25.94,-0.4538,0.25873,0.17096,0.83536,916,0.353,0.022,0.934,-0.488,-2.136,-0.366,1.39,-20.55,167.767,-10.06,-10.28,-32.707,29.55,0.10315,0.17612,-0.00623,0.97888,914,0.958,0.073,0.225,-0.244,0.061,0.244,17.556,-76.168,-176.688,-30.047,-14.167,-1.933,29.43,-0.11749,0.60568,0.13852,0.77463,912
229,1.017,-0.069,0.071,0.0,-0.244,0.0,-44.451,-84.348,-149.524,-29.247,-11.473,-5.04,26.86,-0.06464,-0.67331,0.10706,-0.72864,919,0.59,0.049,0.812,-0.488,-0.122,-0.244,3.571,-35.997,-124.321,-19.453,-8.207,-6.107,25.94,-0.4538,0.25873,0.17096,0.83536,917,0.357,0.022,0.93,-0.122,-1.892,0.732,1.384,-20.588,167.745,-10.06,-10.28,-32.707,29.55,0.10315,0.17612,-0.00623,0.97888,915,0.959,0.073,0.224,-0.305,0.0,0.183,17.54,-76.168,-176.688,-30.047,-14.167,-1.933,29.43,-0.11749,0.60568,0.13852,0.77463,913
230,1.017,-0.07,0.071,0.0,-0.305,0.0,-44.484,-84.348,-149.502,-29.247,-11.473,-5.04,26.86,-0.06464,-0.67331,0.10706,-0.72864,920,0.59,0.048,0.811,-0.366,-0.122,-0.244,3.571,-35.997,-124.338,-19.453,-8.207,-6.107,25.94,-0.4538,0.25873,0.17096,0.83536,926,0.353,0.023,0.933,-0.183,-1.953,-0.427,1.379,-20.627,167.723,-10.06,-10.28,-32.707,29.55,0.10315,0.17612,-0.00623,0.97888,924,0.959,0.072,0.223,-0.427,0.0,0.061,17.529,-76.168,-176.693,-30.047,-14.167,-1.933,29.43,-0.11749,0.60568,0.13852,0.77463,922
231,1.017,-0.07,0.071,-0.061,-0.305,0.0,-44.522,-84.353,-149.464,-29.247,-11.473,-5.04,26.86,-0.06464,-0.67331,0.10706,-0.72864,921,0.588,0.049,0.811,-0.305,-0.122,-0.183,3.565,-35.997,-124.349,-19.453,-8.207,-6.107,25.94,-0.4538,0.25873,0.17096,0.83536,927,0.357,0.022,0.933,0.183,-2.197,-0.427,1.384,-20.665,167.684,-10.06,-10.28,-32.707,29.55,0.10315,0.17612,-0.00623,0.97888,925,0.958,0.07,0.222,-0.427,-0.061,0.0,17.523,-76.174,-176.71,-30.047,-14.167,-1.933,29.43,-0.11749,0.60568,0.13852,0.77463,923
232,1.018,-0.07,0.071,-0.061,-0.122,0.0,-44.555,-84.359,-149.442,-29.247,-11.473,-5.04,26.86,-0.06464,-0.67331,0.10706,-0.72864,928,0.589,0.051,0.813,0.0,-0.122,-0.122,3.565,-35.997,-124.36,-19.453,-8.207,-6.107,25.94,-0.45218,0.25931,0.17032,0.83618,932,0.356,0.023,0.93,0.427,-1.892,-0.366,1.39,-20.709,167.64,-9.693,-10.453,-32.8,29.55,0.10315,0.17612,-0.00623,0.97888,934,0.96,0.071,0.222,-0.305,0.0,-0.061,17.523,-76.174,-176.726,-30.193,-13.773,-2.24,29.43,-0.11749,0.60568,0.13852,0.77463,930
233,1.016,-0.071,0.072,0.0,-0.244,0.0,-44.572,-84.359,-149.425,-29.247,-11.473,-5.04,26.86,-0.06464,-0.67331,0.10706,-0.72864,929,0.588,0.05,0.811,-0.122,-0.183,-0.122,3.565,-35.997,-124.376,-19.453,-8.207,-6.107,25.94,-0.45218,0.25931,0.17032,0.83618,933,0.361,0.019,0.925,0.427,-1.404,-0.122,1.406,-20.742,167.613,-9.693,-10.453,-32.8,29.55,0.10315,0.17612,-0.00623,0.97888,935,0.959,0.071,0.225,-0.183,0.0,-0.061,17.529,-76.174,-176.748,-30.193,-13.773,-2.24,29.43,-0.11749,0.60568,0.13852,0.77463,931
234,1.016,-0.072,0.071,0.183,-0.488,0.0,-44.61,-84.364,-149.392,-29.247,-11.473,-5.04,26.86,-0.06464,-0.67331,0.10706,-0.72864,936,0.59,0.047,0.811,-0.061,-0.183,-0.061,3.565,-36.002,-124.382,-19.453,-8.207,-6.107,25.94,-0.45218,0.25931,0.17032,0.83618,942,0.362,0.024,0.926,0.0,-0.61,-0.549,1.412,-20.764,167.574,-9.693,-10.453,-32.8,29.55,0.10419,0.18048,-0.00742,0.97797,940,0.958,0.07,0.222,0.183,0.0,-0.183,17.545,-76.174,-176.776,-30.193,-13.773,-2.24,29.43,-0.11749,0.60568,0.13852,0.77463,938
235,1.017,-0.071,0.071,0.122,-0.427,0.0,-44.676,-84.37,-149.337,-29.247,-11.473,-5.04,26.86,-0.06464,-0.67331,0.10706,-0.72864,937,0.593,0.052,0.808,-0.244,0.0,-0.305,3.565,-36.002,-124.398,-19.453,-8.207,-6.107,25.94,-0.45218,0.25931,0.17032,0.83618,943,0.361,0.031,0.927,0.122,0.0,-0.793,1.417,-20.775,167.542,-9.693,-10.453,-32.8,29.55,0.10419,0.18048,-0.00742,0.97797,941,0.959,0.069,0.223,-0.122,-0.061,-0.183,17.562,-76.174,-176.803,-30.193,-13.773,-2.24,29.43,-0.11749,0.60568,0.13852,0.77463,939
236,1.017,-0.07,0.071,0.0,-0.244,0.0,-44.725,-84.375,-149.288,-29.247,-11.473,-5.04,26.86,-0.06464,-0.67331,0.10706,-0.72864,944,0.595,0.056,0.808,-0.061,0.0,-0.366,3.571,-35.997,-124.415,-19.453,-8.207,-6.107,25.94,-0.45218,0.25931,0.17032,0.83618,950,0.361,0.03,0.931,0.0,0.183,0.061,1.423,-20.775,167.514,-9.693,-10.453,-32.8,29.55,0.10419,0.18048,-0.00742,0.97797,948,0.961,0.074,0.222,-0.366,-0.122,-0.061,17.567,-76.179,-176.83,-30.193,-13.773,-2.24,29.43,-0.11572,0.60605,0.13705,0.77487,946
237,1.017,-0.069,0.07,0.0,-0.122,0.0,-44.753,-84.38,-149.271,-29.247,-11.473,-5.04,26.86,-0.06464,-0.67331,0.10706,-0.72864,945,0.594,0.054,0.81,0.183,0.183,-0.122,3.576,-35.997,-124.426,-19.453,-8.207,-6.107,25.94,-0.45218,0.25931,0.17032,0.83618,951,0.356,0.026,0.929,-0.366,0.427,0.244,1.423,-20.775,167.476,-9.693,-10.453,-32.8,29.55,0.10419,0.18048,-0.00742,0.97797,949,0.963,0.073,0.223,-0.427,-0.061,0.0,17.567,-76.179,-176.847,-30.193,-13.773,-2.24,29.43,-0.11572,0.60605,0.13705,0.77487,947
238,1.018,-0.069,0.069,0.0,0.244,0.0,-44.758,-84.38,-149.271,-29.247,-11.473,-5.04,26.86,-0.06464,-0.67331,0.10706,-0.72864,952,0.591,0.053,0.81,-0.061,0.183,0.061,3.576,-35.991,-124.431,-19.453,-8.207,-6.107,25.94,-0.45218,0.25931,0.17032,0.83618,954,0.355,0.025,0.93,-0.305,0.0,0.0,1.417,-20.77,167.432,-9.693,-10.453,-32.8,29.55,0.10419,0.18048,-0.00742,0.97797,956,0.963,0.071,0.219,-0.427,0.122,0.0,17.556,-76.179,-176.858,-30.193,-13.773,-2.24,29.43,-0.11572,0.60605,0.13705,0.77487,958
