Index,L5_Acceleration X(g),L5_Acceleration Y(g),L5_Acceleration Z(g),L5_Angular velocity X(°/s),L5_Angular velocity Y(°/s),L5_Angular velocity Z(°/s),L5_Angle X(°),L5_Angle Y(°),L5_Angle Z(°),L5_Magnetic field X(ʯt),L5_Magnetic field Y(ʯt),L5_Magnetic field Z(ʯt),L5_Temperature(℃),L5_Quaternions 0(),L5_Quaternions 1(),L5_Quaternions 2(),L5_Quaternions 3(),L5___orig_idx,T4_Acceleration X(g),T4_Acceleration Y(g),T4_Acceleration Z(g),T4_Angular velocity X(°/s),T4_Angular velocity Y(°/s),T4_Angular velocity Z(°/s),T4_Angle X(°),T4_Angle Y(°),T4_Angle Z(°),T4_Magnetic field X(ʯt),T4_Magnetic field Y(ʯt),T4_Magnetic field Z(ʯt),T4_Temperature(℃),T4_Quaternions 0(),T4_Quaternions 1(),T4_Quaternions 2(),T4_Quaternions 3(),T4___orig_idx,C7_Acceleration X(g),C7_Acceleration Y(g),C7_Acceleration Z(g),C7_Angular velocity X(°/s),C7_Angular velocity Y(°/s),C7_Angular velocity Z(°/s),C7_Angle X(°),C7_Angle Y(°),C7_Angle Z(°),C7_Magnetic field X(ʯt),C7_Magnetic field Y(ʯt),C7_Magnetic field Z(ʯt),C7_Temperature(℃),C7_Quaternions 0(),C7_Quaternions 1(),C7_Quaternions 2(),C7_Quaternions 3(),C7___orig_idx,T12_Acceleration X(g),T12_Acceleration Y(g),T12_Acceleration Z(g),T12_Angular velocity X(°/s),T12_Angular velocity Y(°/s),T12_Angular velocity Z(°/s),T12_Angle X(°),T12_Angle Y(°),T12_Angle Z(°),T12_Magnetic field X(ʯt),T12_Magnetic field Y(ʯt),T12_Magnetic field Z(ʯt),T12_Temperature(℃),T12_Quaternions 0(),T12_Quaternions 1(),T12_Quaternions 2(),T12_Quaternions 3(),T12___orig_idx
0,0.916,0.083,0.442,0.122,-0.244,0.0,10.739,-63.71,160.977,-23.82,-11.927,-13.1,29.93,0.09192,0.53131,-0.00903,0.84207,2,0.349,0.03,0.938,-1.282,0.305,-0.183,1.846,-20.495,-141.114,-12.22,-10.193,-8.133,26.67,-0.33212,0.16272,0.07764,0.92578,0,0.432,-0.028,0.897,-0.977,0.427,-0.549,-1.791,-25.988,164.317,-11.627,-10.167,-31.827,31.13,-0.13324,-0.22433,0.04248,-0.96439,4,0.777,0.177,0.583,0.671,-0.671,-0.122,16.919,-51.702,-163.625,-23.86,-14.347,-11.273,32.53,-0.18863,0.40814,0.19119,0.87244,6
1,0.916,0.082,0.441,0.0,-0.244,0.0,10.739,-63.715,161.043,-23.82,-11.927,-13.1,29.93,0.09192,0.53131,-0.00903,0.84207,3,0.35,0.021,0.937,-0.854,0.305,-0.244,1.829,-20.49,-141.125,-12.22,-10.193,-8.133,26.67,-0.33212,0.16272,0.07764,0.92578,1,0.435,-0.027,0.897,-0.61,0.183,-0.122,-1.802,-25.983,164.317,-11.627,-10.167,-31.827,31.13,-0.13324,-0.22433,0.04248,-0.96439,5,0.78,0.174,0.582,0.427,-0.671,-0.366,16.941,-51.713,-163.625,-23.86,-14.347,-11.273,32.53,-0.18863,0.40814,0.19119,0.87244,7
2,0.915,0.084,0.439,0.061,-0.305,0.0,10.745,-63.721,161.082,-23.82,-11.927,-13.1,29.93,0.09192,0.53131,-0.00903,0.84207,14,0.352,0.022,0.939,-0.549,0.0,-0.061,1.818,-20.49,-141.125,-11.873,-10.133,-9.173,26.67,-0.33212,0.16272,0.07764,0.92578,8,0.435,-0.02,0.897,-0.732,-0.061,-0.061,-1.813,-25.977,164.35,-11.627,-10.167,-31.827,31.13,-0.13635,-0.22055,0.04587,-0.96466,16,0.779,0.178,0.581,0.244,-0.549,-0.244,16.957,-51.724,-163.619,-23.993,-14.693,-10.973,32.53,-0.18863,0.40814,0.19119,0.87244,10
3,0.916,0.086,0.438,-0.061,-0.305,0.0,10.745,-63.726,161.12,-23.82,-11.927,-13.1,29.93,0.09192,0.53131,-0.00903,0.84207,15,0.351,0.029,0.94,-0.61,0.0,0.0,1.802,-20.49,-141.125,-11.873,-10.133,-9.173,26.67,-0.33212,0.16272,0.07764,0.92578,9,0.435,-0.026,0.897,0.061,-0.61,-0.427,-1.807,-25.988,164.366,-11.627,-10.167,-31.827,31.13,-0.13635,-0.22055,0.04587,-0.96466,17,0.778,0.183,0.581,0.061,-0.549,-0.061,16.963,-51.735,-163.608,-23.993,-14.693,-10.973,32.53,-0.18863,0.40814,0.19119,0.87244,11
4,0.917,0.084,0.439,-0.183,-0.305,-0.061,10.75,-63.737,161.164,-23.82,-11.927,-13.1,29.93,0.09192,0.53131,-0.00903,0.84207,20,0.353,0.025,0.937,-0.488,0.122,-0.427,1.791,-20.484,-141.136,-11.873,-10.133,-9.173,26.67,-0.33212,0.16272,0.07764,0.92578,12,0.436,-0.027,0.896,0.0,-0.916,-0.977,-1.796,-26.005,164.35,-11.627,-10.167,-31.827,31.13,-0.13635,-0.22055,0.04587,-0.96466,22,0.78,0.182,0.581,0.061,-0.671,-0.061,16.968,-51.746,-163.597,-23.993,-14.693,-10.973,32.53,-0.18863,0.40814,0.19119,0.87244,18
5,0.916,0.083,0.439,-0.244,-0.244,0.0,10.745,-63.743,161.186,-23.82,-11.927,-13.1,29.93,0.09192,0.53131,-0.00903,0.84207,21,0.354,0.027,0.939,-0.671,0.0,-0.488,1.78,-20.484,-141.152,-11.873,-10.133,-9.173,26.67,-0.33212,0.16272,0.07764,0.92578,13,0.438,-0.024,0.896,-0.61,-0.916,-0.854,-1.796,-26.021,164.328,-11.627,-10.167,-31.827,31.13,-0.13635,-0.22055,0.04587,-0.96466,23,0.781,0.18,0.581,0.0,-0.854,-0.122,16.979,-51.762,-163.592,-23.993,-14.693,-10.973,32.53,-0.18863,0.40814,0.19119,0.87244,19
6,0.914,0.082,0.44,-0.183,-0.122,0.122,10.739,-63.748,161.191,-23.82,-11.927,-13.1,29.93,0.09192,0.53131,-0.00903,0.84207,32,0.354,0.026,0.938,-0.244,0.0,-0.244,1.769,-20.484,-141.163,-11.873,-10.133,-9.173,26.67,-0.32977,0.16257,0.07355,0.927,24,0.437,-0.026,0.894,-0.549,-0.732,-0.671,-1.796,-26.038,164.306,-11.627,-10.167,-31.827,31.13,-0.13635,-0.22055,0.04587,-0.96466,26,0.782,0.178,0.58,0.061,-0.732,-0.122,16.99,-51.779,-163.586,-23.993,-14.693,-10.973,32.53,-0.19077,0.40836,0.19308,0.87146,28
7,0.912,0.08,0.44,-0.122,0.0,0.061,10.734,-63.748,161.197,-23.82,-11.927,-13.1,29.93,0.09192,0.53131,-0.00903,0.84207,33,0.354,0.021,0.935,-0.122,0.0,-0.183,1.769,-20.484,-141.18,-11.873,-10.133,-9.173,26.67,-0.32977,0.16257,0.07355,0.927,25,0.438,-0.027,0.891,0.0,-1.282,-0.732,-1.791,-26.06,164.29,-11.627,-10.167,-31.827,31.13,-0.13635,-0.22055,0.04587,-0.96466,27,0.78,0.175,0.58,0.061,-0.671,-0.061,17.001,-51.795,-163.575,-23.993,-14.693,-10.973,32.53,-0.19077,0.40836,0.19308,0.87146,29
8,0.913,0.082,0.441,0.0,0.0,0.061,10.734,-63.754,161.197,-23.987,-11.827,-13.227,29.93,0.09192,0.53131,-0.00903,0.84207,36,0.348,0.023,0.933,-0.427,0.183,-0.244,1.763,-20.479,-141.202,-11.873,-10.133,-9.173,26.67,-0.32977,0.16257,0.07355,0.927,30,0.434,-0.023,0.89,0.0,-1.343,-0.977,-1.78,-26.087,164.268,-11.627,-10.167,-31.827,31.13,-0.13635,-0.22055,0.04587,-0.96466,38,0.776,0.174,0.58,0.244,-0.427,0.0,17.007,-51.806,-163.564,-23.993,-14.693,-10.973,32.53,-0.19077,0.40836,0.19308,0.87146,34
9,0.916,0.083,0.441,0.061,-0.122,0.061,10.728,-63.754,161.197,-23.987,-11.827,-13.227,29.93,0.09192,0.53131,-0.00903,0.84207,37,0.35,0.026,0.934,-0.488,0.061,-0.183,1.752,-20.479,-141.224,-11.873,-10.133,-9.173,26.67,-0.32977,0.16257,0.07355,0.927,31,0.436,-0.025,0.891,0.0,-1.465,-1.343,-1.763,-26.115,164.24,-11.627,-10.167,-31.827,31.13,-0.13635,-0.22055,0.04587,-0.96466,39,0.777,0.176,0.581,0.305,-0.305,0.0,17.012,-51.817,-163.553,-23.993,-14.693,-10.973,32.53,-0.19077,0.40836,0.19308,0.87146,35
10,0.915,0.084,0.441,0.0,0.0,0.061,10.728,-63.759,161.219,-23.987,-11.827,-13.227,29.93,0.09192,0.53131,-0.00903,0.84207,44,0.356,0.023,0.938,0.0,0.061,0.0,1.741,-20.479,-141.224,-11.873,-10.133,-9.173,26.67,-0.32977,0.16257,0.07355,0.927,42,0.441,-0.029,0.889,0.183,-1.038,-0.671,-1.752,-26.136,164.224,-11.627,-10.167,-31.827,31.13,-0.13635,-0.22055,0.04587,-0.96466,46,0.78,0.179,0.582,0.244,-0.244,0.0,17.023,-51.823,-163.537,-23.993,-14.693,-10.973,32.53,-0.19077,0.40836,0.19308,0.87146,40
11,0.914,0.083,0.44,-0.122,0.0,0.061,10.723,-63.759,161.246,-23.987,-11.827,-13.227,29.93,0.09192,0.53131,-0.00903,0.84207,45,0.352,0.023,0.934,0.0,0.305,-0.122,1.741,-20.479,-141.207,-11.873,-10.133,-9.173,26.67,-0.32977,0.16257,0.07355,0.927,43,0.441,-0.026,0.889,0.305,-0.488,-0.854,-1.741,-26.142,164.213,-11.627,-10.167,-31.827,31.13,-0.13635,-0.22055,0.04587,-0.96466,47,0.779,0.179,0.582,0.061,-0.244,0.0,17.023,-51.828,-163.521,-23.993,-14.693,-10.973,32.53,-0.19077,0.40836,0.19308,0.87146,41
12,0.916,0.082,0.44,-0.183,0.0,0.122,10.712,-63.759,161.252,-23.987,-11.827,-13.227,29.93,0.08902,0.53171,-0.00735,0.84213,56,0.349,0.024,0.934,-0.183,0.305,-0.122,1.736,-20.473,-141.202,-11.873,-10.133,-9.173,26.67,-0.32977,0.16257,0.07355,0.927,48,0.435,-0.025,0.89,0.061,-0.244,-0.854,-1.73,-26.147,164.207,-11.627,-10.167,-31.827,31.13,-0.13635,-0.22055,0.04587,-0.96466,50,0.778,0.178,0.58,0.0,-0.244,0.0,17.029,-51.839,-163.51,-23.993,-14.693,-10.973,32.53,-0.19077,0.40836,0.19308,0.87146,52
13,0.917,0.082,0.44,0.0,0.0,0.0,10.712,-63.765,161.263,-23.987,-11.827,-13.227,29.93,0.08902,0.53171,-0.00735,0.84213,57,0.351,0.021,0.939,0.0,0.244,-0.061,1.73,-20.468,-141.196,-11.873,-10.133,-9.173,26.67,-0.32977,0.16257,0.07355,0.927,49,0.44,-0.028,0.896,0.366,-0.671,-0.488,-1.714,-26.164,164.207,-11.627,-10.167,-31.827,31.13,-0.13635,-0.22055,0.04587,-0.96466,51,0.781,0.177,0.581,0.0,-0.183,0.0,17.029,-51.844,-163.493,-23.993,-14.693,-10.973,32.53,-0.19077,0.40836,0.19308,0.87146,53
14,0.916,0.082,0.44,0.0,0.0,0.0,10.712,-63.765,161.29,-23.987,-11.827,-13.227,29.93,0.08902,0.53171,-0.00735,0.84213,62,0.354,0.022,0.94,0.061,0.244,-0.183,1.73,-20.468,-141.196,-11.873,-10.133,-9.173,26.67,-0.32977,0.16257,0.07355,0.927,54,0.442,-0.025,0.893,-0.122,-0.549,-0.488,-1.714,-26.169,164.207,-11.627,-10.167,-31.827,31.13,-0.13635,-0.22055,0.04587,-0.96466,64,0.782,0.176,0.58,0.0,-0.183,-0.061,17.029,-51.85,-163.482,-23.993,-14.693,-10.973,32.53,-0.19077,0.40836,0.19308,0.87146,58
15,0.916,0.081,0.438,0.0,0.061,0.0,10.712,-63.765,161.334,-23.987,-11.827,-13.227,29.93,0.08902,0.53171,-0.00735,0.84213,63,0.355,0.023,0.937,-0.122,0.244,-0.122,1.73,-20.462,-141.202,-11.873,-10.133,-9.173,26.67,-0.32977,0.16257,0.07355,0.927,55,0.441,-0.025,0.892,-0.427,-0.427,-0.244,-1.719,-26.18,164.235,-11.627,-10.167,-31.827,31.13,-0.13635,-0.22055,0.04587,-0.96466,65,0.783,0.176,0.58,0.122,-0.122,-0.122,17.034,-51.855,-163.471,-23.993,-14.693,-10.973,32.53,-0.19077,0.40836,0.19308,0.87146,59
16,0.914,0.08,0.438,0.061,0.183,0.0,10.706,-63.765,161.362,-23.987,-11.827,-13.227,29.93,0.08902,0.53171,-0.00735,0.84213,68,0.354,0.022,0.936,0.0,0.122,0.0,1.725,-20.457,-141.224,-11.873,-10.133,-9.173,26.67,-0.32977,0.16257,0.07355,0.927,60,0.439,-0.027,0.891,-0.061,-0.305,-0.244,-1.719,-26.186,164.273,-12.487,-9.96,-31.013,31.13,-0.13635,-0.22055,0.04587,-0.96466,70,0.782,0.176,0.579,0.244,0.0,-0.122,17.04,-51.855,-163.46,-23.993,-14.693,-10.973,32.53,-0.19077,0.40836,0.19308,0.87146,66
17,0.913,0.08,0.44,0.122,0.183,0.0,10.706,-63.765,161.378,-23.987,-11.827,-13.227,29.93,0.08902,0.53171,-0.00735,0.84213,69,0.349,0.021,0.937,-0.183,0.183,0.0,1.719,-20.457,-141.246,-11.873,-10.133,-9.173,26.67,-0.32977,0.16257,0.07355,0.927,61,0.437,-0.025,0.893,-0.183,-0.183,-0.183,-1.719,-26.191,164.301,-12.487,-9.96,-31.013,31.13,-0.13635,-0.22055,0.04587,-0.96466,71,0.779,0.175,0.579,0.244,0.0,-0.061,17.045,-51.861,-163.444,-23.993,-14.693,-10.973,32.53,-0.19077,0.40836,0.19308,0.87146,67
18,0.914,0.081,0.44,0.244,0.183,0.0,10.706,-63.759,161.367,-23.987,-11.827,-13.227,29.93,0.08902,0.53171,-0.00735,0.84213,80,0.349,0.021,0.938,0.0,0.0,0.122,1.714,-20.457,-141.268,-11.873,-10.133,-9.173,26.67,-0.32977,0.16257,0.07355,0.927,72,0.437,-0.028,0.895,-0.549,-0.122,0.061,-1.73,-26.191,164.328,-12.487,-9.96,-31.013,31.13,-0.13635,-0.22055,0.04587,-0.96466,74,0.778,0.174,0.58,0.183,0.0,-0.122,17.051,-51.861,-163.433,-23.993,-14.693,-10.973,32.53,-0.19077,0.40836,0.19308,0.87146,76
19,0.915,0.082,0.44,0.366,0.122,0.0,10.712,-63.759,161.384,-23.987,-11.827,-13.227,29.93,0.08902,0.53171,-0.00735,0.84213,81,0.352,0.022,0.938,0.183,0.0,0.122,1.708,-20.457,-141.273,-11.873,-10.133,-9.173,26.67,-0.32977,0.16257,0.07355,0.927,73,0.44,-0.027,0.892,-0.671,0.122,0.183,-1.747,-26.191,164.333,-12.487,-9.96,-31.013,31.13,-0.13635,-0.22055,0.04587,-0.96466,75,0.779,0.177,0.578,0.244,0.183,-0.122,17.056,-51.861,-163.422,-23.993,-14.693,-10.973,32.53,-0.19077,0.40836,0.19308,0.87146,77
20,0.916,0.081,0.442,0.488,0.244,0.0,10.717,-63.759,161.373,-23.987,-11.827,-13.227,29.93,0.08902,0.53171,-0.00735,0.84213,84,0.353,0.022,0.936,0.0,0.0,0.0,1.708,-20.462,-141.284,-11.667,-10.073,-9.007,26.67,-0.32977,0.16257,0.07355,0.927,78,0.44,-0.025,0.89,-1.099,0.122,0.0,-1.769,-26.186,164.339,-12.487,-9.96,-31.013,31.13,-0.13611,-0.22238,0.04556,-0.96429,86,0.78,0.177,0.581,0.366,0.305,-0.061,17.062,-51.861,-163.405,-23.9,-14.307,-11.013,32.53,-0.19077,0.40836,0.19308,0.87146,82
21,0.913,0.079,0.442,0.488,0.183,0.0,10.723,-63.754,161.373,-23.987,-11.827,-13.227,29.93,0.08902,0.53171,-0.00735,0.84213,85,0.348,0.023,0.938,0.183,0.061,0.122,1.703,-20.462,-141.295,-11.667,-10.073,-9.007,26.67,-0.32977,0.16257,0.07355,0.927,79,0.435,-0.024,0.893,-1.099,0.305,0.305,-1.791,-26.18,164.339,-12.487,-9.96,-31.013,31.13,-0.13611,-0.22238,0.04556,-0.96429,87,0.781,0.176,0.583,0.488,0.244,0.0,17.067,-51.861,-163.389,-23.9,-14.307,-11.013,32.53,-0.19077,0.40836,0.19308,0.87146,83
22,0.911,0.083,0.444,0.427,0.549,0.305,10.712,-63.748,161.395,-23.987,-11.827,-13.227,29.93,0.08902,0.53171,-0.00735,0.84213,92,0.346,0.021,0.939,0.183,0.061,0.61,1.703,-20.462,-141.301,-11.667,-10.073,-9.007,26.67,-0.32977,0.16257,0.07355,0.927,90,0.433,-0.026,0.894,-1.282,0.488,1.038,-1.824,-26.169,164.366,-12.487,-9.96,-31.013,31.13,-0.13611,-0.22238,0.04556,-0.96429,94,0.778,0.171,0.582,0.793,0.427,0.0,17.078,-51.855,-163.367,-23.9,-14.307,-11.013,32.53,-0.19077,0.40836,0.19308,0.87146,88
23,0.917,0.085,0.443,0.427,0.549,0.488,10.695,-63.743,161.433,-23.987,-11.827,-13.227,29.93,0.08902,0.53171,-0.00735,0.84213,93,0.353,0.021,0.939,-0.488,-0.061,0.793,1.692,-20.462,-141.295,-11.667,-10.073,-9.007,26.67,-0.32977,0.16257,0.07355,0.927,91,0.444,-0.025,0.892,-3.296,1.16,1.099,-1.901,-26.142,164.388,-12.487,-9.96,-31.013,31.13,-0.13611,-0.22238,0.04556,-0.96429,95,0.777,0.175,0.581,0.977,0.793,-0.183,17.089,-51.844,-163.35,-23.9,-14.307,-11.013,32.53,-0.19077,0.40836,0.19308,0.87146,89
24,0.923,0.08,0.44,0.488,0.549,0.671,10.673,-63.732,161.483,-23.987,-11.827,-13.227,29.93,0.08902,0.53171,-0.00735,0.84213,104,0.367,0.029,0.936,0.061,0.0,1.099,1.675,-20.462,-141.273,-11.667,-10.073,-9.007,26.67,-0.32849,0.16272,0.0726,0.92749,96,0.443,-0.019,0.888,-1.892,1.648,1.343,-1.945,-26.109,164.41,-12.487,-9.96,-31.013,31.13,-0.13611,-0.22238,0.04556,-0.96429,98,0.785,0.182,0.584,1.16,0.671,0.0,17.106,-51.833,-163.35,-23.9,-14.307,-11.013,32.53,-0.19302,0.40836,0.19482,0.87057,100
25,0.916,0.075,0.439,0.977,0.793,0.916,10.651,-63.726,161.532,-23.987,-11.827,-13.227,29.93,0.08902,0.53171,-0.00735,0.84213,105,0.362,0.02,0.931,1.404,0.122,1.892,1.67,-20.462,-141.246,-11.667,-10.073,-9.007,26.67,-0.32849,0.16272,0.0726,0.92749,97,0.438,-0.032,0.89,0.305,2.38,2.808,-1.961,-26.065,164.432,-12.487,-9.96,-31.013,31.13,-0.13611,-0.22238,0.04556,-0.96429,99,0.79,0.175,0.579,1.526,0.916,0.122,17.122,-51.823,-163.345,-23.9,-14.307,-11.013,32.53,-0.19302,0.40836,0.19482,0.87057,101
26,0.91,0.081,0.434,1.099,1.038,0.793,10.629,-63.71,161.576,-23.96,-11.747,-13.32,29.93,0.08902,0.53171,-0.00735,0.84213,108,0.356,0.016,0.929,1.587,0.61,2.258,1.681,-20.462,-141.207,-11.667,-10.073,-9.007,26.67,-0.32849,0.16272,0.0726,0.92749,102,0.442,-0.041,0.893,-0.305,2.258,3.54,-1.983,-26.021,164.46,-12.487,-9.96,-31.013,31.13,-0.13611,-0.22238,0.04556,-0.96429,110,0.781,0.172,0.576,2.319,1.526,0.244,17.144,-51.801,-163.328,-23.9,-14.307,-11.013,32.53,-0.19302,0.40836,0.19482,0.87057,106
27,0.917,0.085,0.436,0.977,0.793,0.366,10.629,-63.699,161.603,-23.96,-11.747,-13.32,29.93,0.08902,0.53171,-0.00735,0.84213,109,0.356,0.013,0.933,1.587,0.61,2.014,1.692,-20.457,-141.169,-11.667,-10.073,-9.007,26.67,-0.32849,0.16272,0.0726,0.92749,103,0.432,-0.032,0.893,-2.014,2.197,3.54,-2.032,-25.977,164.509,-12.487,-9.96,-31.013,31.13,-0.13611,-0.22238,0.04556,-0.96429,111,0.776,0.178,0.573,2.136,1.709,0.0,17.172,-51.773,-163.328,-23.9,-14.307,-11.013,32.53,-0.19302,0.40836,0.19482,0.87057,107
28,0.917,0.088,0.437,0.793,0.671,0.0,10.64,-63.688,161.62,-23.96,-11.747,-13.32,29.93,0.08902,0.53171,-0.00735,0.84213,118,0.35,0.023,0.935,1.465,-0.122,1.526,1.703,-20.451,-141.141,-11.667,-10.073,-9.007,26.67,-0.32849,0.16272,0.0726,0.92749,114,0.435,-0.029,0.894,-0.793,1.404,2.502,-2.093,-25.939,164.553,-12.487,-9.96,-31.013,31.13,-0.13611,-0.22238,0.04556,-0.96429,116,0.779,0.186,0.578,1.404,1.404,0.0,17.188,-51.751,-163.323,-23.9,-14.307,-11.013,32.53,-0.19302,0.40836,0.19482,0.87057,112
29,0.912,0.09,0.439,0.244,1.16,0.0,10.635,-63.671,161.642,-23.96,-11.747,-13.32,29.93,0.08902,0.53171,-0.00735,0.84213,119,0.355,0.034,0.936,1.221,0.0,0.916,1.714,-20.457,-141.119,-11.667,-10.073,-9.007,26.67,-0.32849,0.16272,0.0726,0.92749,115,0.436,-0.042,0.891,0.0,1.343,2.747,-2.126,-25.911,164.586,-12.487,-9.96,-31.013,31.13,-0.13611,-0.22238,0.04556,-0.96429,117,0.778,0.192,0.58,0.916,1.099,0.0,17.199,-51.735,-163.317,-23.9,-14.307,-11.013,32.53,-0.19302,0.40836,0.19482,0.87057,113
30,0.913,0.084,0.44,0.366,1.038,-0.061,10.64,-63.655,161.642,-23.96,-11.747,-13.32,29.93,0.08661,0.53101,-0.00598,0.84286,126,0.357,0.018,0.934,0.977,0.549,0.061,1.73,-20.462,-141.108,-11.667,-10.073,-9.007,26.67,-0.32849,0.16272,0.0726,0.92749,120,0.451,-0.054,0.875,-2.319,2.319,1.953,-2.164,-25.884,164.614,-12.487,-9.96,-31.013,31.13,-0.13611,-0.22238,0.04556,-0.96429,122,0.779,0.192,0.58,0.977,0.854,-0.305,17.221,-51.718,-163.323,-23.9,-14.307,-11.013,32.53,-0.19302,0.40836,0.19482,0.87057,128
31,0.91,0.076,0.447,0.427,1.038,-0.366,10.657,-63.633,161.631,-23.96,-11.747,-13.32,29.93,0.08661,0.53101,-0.00598,0.84286,127,0.368,0.003,0.932,1.099,0.732,-0.305,1.747,-20.451,-141.108,-11.667,-10.073,-9.007,26.67,-0.32849,0.16272,0.0726,0.92749,121,0.432,-0.038,0.867,-2.197,7.324,4.761,-2.236,-25.812,164.641,-12.487,-9.96,-31.013,31.13,-0.13611,-0.22238,0.04556,-0.96429,123,0.781,0.177,0.58,0.488,0.977,-0.549,17.243,-51.707,-163.312,-23.9,-14.307,-11.013,32.53,-0.19302,0.40836,0.19482,0.87057,129
32,0.905,0.079,0.439,1.587,1.709,-0.671,10.701,-63.6,161.614,-23.96,-11.747,-13.32,29.93,0.08661,0.53101,-0.00598,0.84286,134,0.357,0.009,0.92,1.099,1.587,-0.122,1.763,-20.435,-141.13,-11.667,-10.073,-9.007,26.67,-0.32849,0.16272,0.0726,0.92749,124,0.42,-0.043,0.884,-0.366,9.949,6.897,-2.318,-25.659,164.702,-12.487,-9.96,-31.013,31.13,-0.13611,-0.22238,0.04556,-0.96429,132,0.779,0.168,0.587,0.854,0.854,-0.916,17.271,-51.685,-163.323,-23.9,-14.307,-11.013,32.53,-0.19302,0.40836,0.19482,0.87057,130
33,0.908,0.078,0.441,1.831,2.991,-1.038,10.756,-63.539,161.576,-23.96,-11.747,-13.32,29.93,0.08661,0.53101,-0.00598,0.84286,135,0.343,0.017,0.921,2.258,2.625,0.183,1.78,-20.407,-141.13,-11.667,-10.073,-9.007,26.67,-0.32849,0.16272,0.0726,0.92749,125,0.434,-0.022,0.899,-0.671,10.376,8.545,-2.395,-25.461,164.822,-12.487,-9.96,-31.013,31.13,-0.13611,-0.22238,0.04556,-0.96429,133,0.775,0.17,0.575,2.625,1.587,-1.282,17.331,-51.658,-163.334,-23.9,-14.307,-11.013,32.53,-0.19302,0.40836,0.19482,0.87057,131
34,0.916,0.076,0.449,1.099,2.258,-1.099,10.8,-63.495,161.548,-23.96,-11.747,-13.32,29.93,0.08661,0.53101,-0.00598,0.84286,140,0.348,0.024,0.933,2.869,2.625,0.671,1.818,-20.363,-141.119,-11.667,-10.073,-9.007,26.67,-0.32849,0.16272,0.0726,0.92749,138,0.428,-0.03,0.905,1.587,10.803,11.047,-2.477,-25.258,164.976,-11.42,-9.94,-31.613,31.13,-0.13611,-0.22238,0.04556,-0.96429,142,0.774,0.168,0.574,5.188,2.686,-1.831,17.441,-51.608,-163.361,-23.9,-14.307,-11.013,32.53,-0.19302,0.40836,0.19482,0.87057,136
35,0.916,0.078,0.443,1.221,1.709,-0.732,10.833,-63.463,161.505,-23.96,-11.747,-13.32,29.93,0.08661,0.53101,-0.00598,0.84286,141,0.353,0.026,0.939,2.93,2.014,1.587,1.862,-20.319,-141.097,-11.667,-10.073,-9.007,26.67,-0.32849,0.16272,0.0726,0.92749,139,0.419,-0.043,0.91,4.211,10.742,15.747,-2.538,-25.038,165.196,-11.42,-9.94,-31.613,31.13,-0.13611,-0.22238,0.04556,-0.96429,143,0.78,0.173,0.579,3.784,3.418,-1.709,17.529,-51.542,-163.389,-23.9,-14.307,-11.013,32.53,-0.19302,0.40836,0.19482,0.87057,137
36,0.916,0.079,0.447,1.099,1.526,-0.61,10.86,-63.435,161.483,-23.96,-11.747,-13.32,29.93,0.08661,0.53101,-0.00598,0.84286,150,0.345,0.017,0.942,3.723,1.953,2.258,1.901,-20.286,-141.053,-11.667,-10.073,-9.007,26.67,-0.32849,0.16272,0.0726,0.92749,144,0.399,-0.04,0.911,3.662,11.78,17.639,-2.598,-24.818,165.509,-11.42,-9.94,-31.613,31.13,-0.13611,-0.22238,0.04556,-0.96429,146,0.779,0.176,0.576,3.54,3.906,-1.404,17.6,-51.471,-163.422,-23.9,-14.307,-11.013,32.53,-0.19302,0.40836,0.19482,0.87057,152
37,0.923,0.084,0.443,1.099,0.916,-0.427,10.887,-63.419,161.488,-23.96,-11.747,-13.32,29.93,0.08661,0.53101,-0.00598,0.84286,151,0.343,0.025,0.948,2.869,0.916,2.014,1.945,-20.264,-140.999,-11.667,-10.073,-9.007,26.67,-0.32849,0.16272,0.0726,0.92749,145,0.421,-0.04,0.923,-0.549,6.47,18.86,-2.703,-24.604,165.894,-11.42,-9.94,-31.613,31.13,-0.13611,-0.22238,0.04556,-0.96429,147,0.775,0.179,0.589,3.357,3.479,-1.465,17.666,-51.405,-163.46,-23.9,-14.307,-11.013,32.53,-0.19302,0.40836,0.19482,0.87057,153
38,0.92,0.088,0.442,0.0,0.549,-0.366,10.887,-63.413,161.444,-23.96,-11.747,-13.32,29.93,0.08661,0.53101,-0.00598,0.84286,156,0.359,0.043,0.955,1.587,0.122,1.648,1.967,-20.259,-140.96,-11.813,-9.847,-8.353,26.67,-0.32849,0.16272,0.0726,0.92749,148,0.455,-0.047,0.881,4.089,7.812,12.939,-2.84,-24.461,166.284,-11.42,-9.94,-31.613,31.13,-0.12491,-0.20856,0.04904,-0.96872,158,0.781,0.194,0.593,2.747,3.052,-1.282,17.721,-51.345,-163.493,-23.9,-14.307,-11.013,32.53,-0.19302,0.40836,0.19482,0.87057,154
39,0.913,0.083,0.44,-0.793,0.977,-0.244,10.871,-63.397,161.384,-23.96,-11.747,-13.32,29.93,0.08661,0.53101,-0.00598,0.84286,157,0.37,0.043,0.946,2.136,0.977,1.892,1.983,-20.253,-140.922,-11.813,-9.847,-8.353,26.67,-0.32849,0.16272,0.0726,0.92749,149,0.396,-0.039,0.888,6.042,17.456,18.921,-2.873,-24.252,166.597,-11.42,-9.94,-31.613,31.13,-0.12491,-0.20856,0.04904,-0.96872,159,0.784,0.202,0.599,2.502,1.892,-0.977,17.776,-51.306,-163.493,-23.9,-14.307,-11.013,32.53,-0.19302,0.40836,0.19482,0.87057,155
40,0.91,0.085,0.444,-0.977,0.732,-0.488,10.86,-63.386,161.307,-23.96,-11.747,-13.32,29.93,0.08661,0.53101,-0.00598,0.84286,162,0.358,0.036,0.928,2.625,1.343,2.319,2.016,-20.237,-140.872,-11.813,-9.847,-8.353,26.67,-0.32849,0.16272,0.0726,0.92749,160,0.374,-0.054,0.901,7.202,14.587,21.729,-2.911,-23.917,166.987,-11.42,-9.94,-31.613,31.13,-0.12491,-0.20856,0.04904,-0.96872,164,0.775,0.195,0.585,2.502,1.77,-0.732,17.825,-51.273,-163.471,-23.767,-14.58,-11.133,32.53,-0.19302,0.40836,0.19482,0.87057,166
41,0.908,0.092,0.437,-1.099,0.671,-0.916,10.871,-63.375,161.213,-23.96,-11.747,-13.32,29.93,0.08661,0.53101,-0.00598,0.84286,163,0.338,0.027,0.926,2.136,1.038,2.441,2.038,-20.22,-140.823,-11.813,-9.847,-8.353,26.67,-0.32849,0.16272,0.0726,0.92749,161,0.391,-0.053,0.895,6.653,7.202,17.334,-2.939,-23.659,167.415,-11.42,-9.94,-31.613,31.13,-0.12491,-0.20856,0.04904,-0.96872,165,0.767,0.195,0.579,1.831,1.709,-0.61,17.864,-51.246,-163.466,-23.767,-14.58,-11.133,32.53,-0.19302,0.40836,0.19482,0.87057,167
42,0.906,0.093,0.436,-4.761,-0.61,-1.404,10.833,-63.386,161.087,-23.96,-11.747,-13.32,29.93,0.08661,0.53101,-0.00598,0.84286,176,0.347,0.031,0.926,2.502,0.977,1.77,2.065,-20.204,-140.79,-11.813,-9.847,-8.353,26.67,-0.33279,0.15952,0.07532,0.9263,168,0.369,-0.064,0.891,11.963,9.277,15.991,-2.922,-23.505,167.756,-11.42,-9.94,-31.613,31.13,-0.12491,-0.20856,0.04904,-0.96872,170,0.766,0.203,0.582,1.099,1.892,-0.61,17.886,-51.213,-163.477,-23.767,-14.58,-11.133,32.53,-0.19302,0.40836,0.19482,0.87057,172
43,0.909,0.097,0.435,-6.042,-0.549,-2.136,10.805,-63.391,160.922,-23.96,-11.747,-13.32,29.93,0.08661,0.53101,-0.00598,0.84286,177,0.339,0.025,0.92,2.563,3.723,0.0,2.109,-20.165,-140.784,-11.813,-9.847,-8.353,26.67,-0.33279,0.15952,0.07532,0.9263,169,0.369,-0.052,0.942,10.498,5.981,10.62,-2.818,-23.335,168.03,-11.42,-9.94,-31.613,31.13,-0.12491,-0.20856,0.04904,-0.96872,171,0.769,0.203,0.596,0.0,0.488,-0.732,17.902,-51.202,-163.51,-23.767,-14.58,-11.133,32.53,-0.19302,0.40836,0.19482,0.87057,173
44,0.914,0.095,0.453,-6.165,-0.183,-2.869,10.805,-63.391,160.757,-23.927,-11.967,-14.293,29.93,0.08661,0.53101,-0.00598,0.84286,180,0.329,0.025,0.931,0.549,4.578,-1.831,2.137,-20.089,-140.812,-11.813,-9.847,-8.353,26.67,-0.33279,0.15952,0.07532,0.9263,174,0.354,-0.035,0.952,5.554,0.366,7.568,-2.719,-23.242,168.223,-11.42,-9.94,-31.613,31.13,-0.12491,-0.20856,0.04904,-0.96872,182,0.769,0.198,0.578,0.061,-0.305,-1.099,17.935,-51.202,-163.564,-23.767,-14.58,-11.133,32.53,-0.19397,0.40234,0.20013,0.87198,178
45,0.908,0.088,0.462,-4.7,0.671,-2.686,10.816,-63.369,160.604,-23.927,-11.967,-14.293,29.93,0.08661,0.53101,-0.00598,0.84286,181,0.321,0.029,0.955,-0.427,4.639,-3.174,2.153,-20.001,-140.872,-11.813,-9.847,-8.353,26.67,-0.33279,0.15952,0.07532,0.9263,175,0.367,-0.029,0.957,4.272,-0.549,4.211,-2.675,-23.236,168.382,-11.42,-9.94,-31.613,31.13,-0.12491,-0.20856,0.04904,-0.96872,183,0.773,0.199,0.575,-0.854,-0.061,-1.709,17.963,-51.196,-163.63,-23.767,-14.58,-11.133,32.53,-0.19397,0.40234,0.20013,0.87198,179
46,0.902,0.082,0.457,-3.357,0.671,-1.77,10.822,-63.347,160.483,-23.927,-11.967,-14.293,29.93,0.08661,0.53101,-0.00598,0.84286,188,0.319,0.038,0.967,-0.244,4.517,-3.113,2.164,-19.907,-140.944,-11.813,-9.847,-8.353,26.67,-0.33279,0.15952,0.07532,0.9263,186,0.366,-0.034,0.954,3.174,-0.854,2.625,-2.631,-23.242,168.486,-11.42,-9.94,-31.613,31.13,-0.12491,-0.20856,0.04904,-0.96872,190,0.769,0.189,0.592,-2.075,-0.122,-1.831,17.974,-51.191,-163.674,-23.767,-14.58,-11.133,32.53,-0.19397,0.40234,0.20013,0.87198,184
47,0.897,0.083,0.45,-2.808,0.061,-1.038,10.805,-63.347,160.384,-23.927,-11.967,-14.293,29.93,0.08661,0.53101,-0.00598,0.84286,189,0.316,0.032,0.97,0.977,3.174,-1.892,2.181,-19.83,-140.999,-11.813,-9.847,-8.353,26.67,-0.33279,0.15952,0.07532,0.9263,187,0.36,-0.03,0.94,4.639,-2.258,3.784,-2.582,-23.258,168.585,-11.42,-9.94,-31.613,31.13,-0.12491,-0.20856,0.04904,-0.96872,191,0.763,0.182,0.597,-1.709,-0.183,-1.648,17.979,-51.185,-163.713,-23.767,-14.58,-11.133,32.53,-0.19397,0.40234,0.20013,0.87198,185
48,0.894,0.084,0.452,-2.563,-0.916,-0.793,10.794,-63.358,160.329,-23.927,-11.967,-14.293,29.93,0.09555,0.52872,-0.01004,0.84326,206,0.308,0.027,0.963,2.136,2.075,-1.404,2.219,-19.775,-141.037,-11.813,-9.847,-8.353,26.67,-0.33279,0.15952,0.07532,0.9263,192,0.363,-0.029,0.934,4.333,-4.15,4.272,-2.527,-23.297,168.701,-11.42,-9.94,-31.613,31.13,-0.12491,-0.20856,0.04904,-0.96872,194,0.754,0.182,0.595,-0.793,-0.122,-1.465,18.001,-51.18,-163.746,-23.767,-14.58,-11.133,32.53,-0.19397,0.40234,0.20013,0.87198,196
49,0.9,0.086,0.454,-2.38,-2.197,-0.977,10.805,-63.397,160.302,-23.927,-11.967,-14.293,29.93,0.09555,0.52872,-0.01004,0.84326,207,0.308,0.036,0.954,2.38,1.404,-1.648,2.269,-19.731,-141.075,-11.813,-9.847,-8.353,26.67,-0.33279,0.15952,0.07532,0.9263,193,0.389,-0.024,0.911,3.296,-5.859,2.197,-2.477,-23.368,168.838,-11.42,-9.94,-31.613,31.13,-0.12491,-0.20856,0.04904,-0.96872,195,0.75,0.192,0.598,-0.61,-0.916,-1.221,18.023,-51.191,-163.784,-23.767,-14.58,-11.133,32.53,-0.19397,0.40234,0.20013,0.87198,197
50,0.91,0.085,0.457,-2.93,-2.991,-0.916,10.805,-63.446,160.285,-23.927,-11.967,-14.293,29.93,0.09555,0.52872,-0.01004,0.84326,214,0.33,0.046,0.949,2.258,0.916,-2.136,2.324,-19.698,-141.125,-11.813,-9.847,-8.353,26.67,-0.33279,0.15952,0.07532,0.9263,198,0.394,-0.029,0.903,3.052,-1.404,0.244,-2.428,-23.445,168.942,-11.42,-9.94,-31.613,31.13,-0.12491,-0.20856,0.04904,-0.96872,200,0.759,0.197,0.601,-0.61,-2.197,-1.099,18.051,-51.224,-163.817,-23.767,-14.58,-11.133,32.53,-0.19397,0.40234,0.20013,0.87198,202
51,0.912,0.083,0.459,-2.869,-2.075,-0.427,10.778,-63.479,160.263,-23.927,-11.967,-14.293,29.93,0.09555,0.52872,-0.01004,0.84326,215,0.342,0.051,0.94,2.502,0.427,-1.343,2.384,-19.677,-141.169,-11.813,-9.847,-8.353,26.67,-0.33279,0.15952,0.07532,0.9263,199,0.381,-0.029,0.906,2.625,-4.028,0.061,-2.368,-23.472,169.003,-11.42,-9.94,-31.613,31.13,-0.12491,-0.20856,0.04904,-0.96872,201,0.77,0.193,0.595,-0.671,-2.747,-0.854,18.078,-51.262,-163.845,-23.767,-14.58,-11.133,32.53,-0.19397,0.40234,0.20013,0.87198,203
52,0.904,0.08,0.461,-2.319,-0.977,-0.244,10.745,-63.495,160.252,-23.927,-11.967,-14.293,29.93,0.09555,0.52872,-0.01004,0.84326,220,0.33,0.046,0.933,2.258,0.0,-0.305,2.433,-19.66,-141.191,-11.813,-9.847,-8.353,26.67,-0.33279,0.15952,0.07532,0.9263,204,0.361,-0.016,0.926,-0.732,0.122,0.122,-2.329,-23.516,169.058,-11.34,-10.067,-31.6,31.13,-0.12491,-0.20856,0.04904,-0.96872,208,0.773,0.194,0.591,-0.793,-2.258,-0.366,18.083,-51.295,-163.861,-23.767,-14.58,-11.133,32.53,-0.19397,0.40234,0.20013,0.87198,210
53,0.899,0.083,0.458,-1.831,-0.61,0.0,10.712,-63.495,160.263,-23.927,-11.967,-14.293,29.93,0.09555,0.52872,-0.01004,0.84326,221,0.302,0.051,0.945,1.038,0.183,0.305,2.466,-19.655,-141.191,-11.813,-9.847,-8.353,26.67,-0.33279,0.15952,0.07532,0.9263,205,0.377,-0.017,0.937,-2.502,0.183,-1.16,-2.346,-23.5,169.096,-11.34,-10.067,-31.6,31.13,-0.12491,-0.20856,0.04904,-0.96872,209,0.763,0.19,0.592,-1.038,-1.648,-0.061,18.078,-51.323,-163.872,-23.767,-14.58,-11.133,32.53,-0.19397,0.40234,0.20013,0.87198,211
54,0.911,0.091,0.451,-1.526,-1.282,0.061,10.69,-63.517,160.28,-23.927,-11.967,-14.293,29.93,0.09555,0.52872,-0.01004,0.84326,222,0.304,0.062,0.963,-0.549,-1.587,0.366,2.466,-19.66,-141.191,-11.813,-9.847,-8.353,26.67,-0.33279,0.15952,0.07532,0.9263,212,0.417,-0.013,0.92,-1.282,0.61,-2.441,-2.373,-23.483,169.113,-11.34,-10.067,-31.6,31.13,-0.12491,-0.20856,0.04904,-0.96872,224,0.767,0.196,0.594,-1.526,-1.221,0.305,18.051,-51.345,-163.883,-23.767,-14.58,-11.133,32.53,-0.19397,0.40234,0.20013,0.87198,216
55,0.928,0.09,0.443,-1.16,-2.197,0.366,10.668,-63.556,160.291,-23.927,-11.967,-14.293,29.93,0.09555,0.52872,-0.01004,0.84326,223,0.351,0.056,0.965,-1.648,-2.869,0.0,2.45,-19.693,-141.185,-11.813,-9.847,-8.353,26.67,-0.33279,0.15952,0.07532,0.9263,213,0.418,-0.039,0.895,6.042,1.404,-0.488,-2.335,-23.45,169.118,-11.34,-10.067,-31.6,31.13,-0.12491,-0.20856,0.04904,-0.96872,225,0.792,0.2,0.59,-2.502,-2.075,1.099,17.996,-51.372,-163.867,-23.767,-14.58,-11.133,32.53,-0.19397,0.40234,0.20013,0.87198,217
56,0.909,0.083,0.436,-0.732,-2.014,0.671,10.64,-63.594,160.307,-23.927,-11.967,-14.293,29.93,0.09555,0.52872,-0.01004,0.84326,228,0.379,0.034,0.933,0.305,-2.808,0.61,2.439,-19.737,-141.18,-11.727,-10.367,-9.12,26.67,-0.33279,0.15952,0.07532,0.9263,218,0.378,-0.067,0.902,4.272,1.099,0.671,-2.214,-23.417,169.146,-11.34,-10.067,-31.6,31.13,-0.09705,-0.20044,0.03943,-0.97403,230,0.791,0.189,0.578,-1.831,-1.892,1.221,17.941,-51.411,-163.834,-23.767,-14.58,-11.133,32.53,-0.19397,0.40234,0.20013,0.87198,226
57,0.917,0.077,0.436,0.061,-0.671,0.671,10.618,-63.611,160.329,-23.927,-11.967,-14.293,29.93,0.09555,0.52872,-0.01004,0.84326,229,0.346,0.011,0.921,1.77,-0.732,0.671,2.455,-19.764,-141.163,-11.727,-10.367,-9.12,26.67,-0.33279,0.15952,0.07532,0.9263,219,0.375,-0.029,0.932,-2.991,0.183,-0.488,-2.164,-23.395,169.178,-11.34,-10.067,-31.6,31.13,-0.09705,-0.20044,0.03943,-0.97403,231,0.772,0.182,0.574,-0.916,-1.221,0.793,17.902,-51.449,-163.806,-23.767,-14.58,-11.133,32.53,-0.19397,0.40234,0.20013,0.87198,227
58,0.927,0.076,0.44,0.671,-0.916,0.854,10.596,-63.627,160.351,-23.927,-11.967,-14.293,29.93,0.09555,0.52872,-0.01004,0.84326,242,0.318,0.037,0.941,0.366,-0.122,0.0,2.477,-19.77,-141.169,-11.727,-10.367,-9.12,26.67,-0.33279,0.15952,0.07532,0.9263,234,0.417,-0.023,0.922,0.0,1.16,-2.686,-2.203,-23.379,169.178,-11.34,-10.067,-31.6,31.13,-0.09705,-0.20044,0.03943,-0.97403,236,0.775,0.187,0.576,-0.366,-1.099,0.671,17.88,-51.471,-163.801,-23.407,-14.467,-11.0,32.53,-0.19397,0.40234,0.20013,0.87198,232
59,0.924,0.071,0.441,1.099,-0.61,1.16,10.58,-63.649,160.395,-23.927,-11.967,-14.293,29.93,0.09555,0.52872,-0.01004,0.84326,243,0.352,0.049,0.957,-0.061,-1.343,-0.122,2.477,-19.786,-141.185,-11.727,-10.367,-9.12,26.67,-0.33279,0.15952,0.07532,0.9263,235,0.427,-0.035,0.902,4.822,1.404,-1.587,-2.153,-23.351,169.14,-11.34,-10.067,-31.6,31.13,-0.09705,-0.20044,0.03943,-0.97403,237,0.792,0.187,0.58,-0.305,-1.526,1.099,17.869,-51.498,-163.801,-23.407,-14.467,-11.0,32.53,-0.19397,0.40234,0.20013,0.87198,233
60,0.913,0.073,0.442,1.282,0.0,1.16,10.558,-63.666,160.439,-23.927,-11.967,-14.293,29.93,0.09555,0.52872,-0.01004,0.84326,250,0.375,0.038,0.938,1.587,-2.075,1.038,2.488,-19.814,-141.191,-11.727,-10.367,-9.12,26.67,-0.33078,0.15482,0.07715,0.92764,238,0.404,-0.045,0.888,5.249,-0.305,2.014,-2.049,-23.329,169.124,-11.34,-10.067,-31.6,31.13,-0.09705,-0.20044,0.03943,-0.97403,244,0.793,0.174,0.58,0.122,-1.404,1.282,17.847,-51.537,-163.795,-23.407,-14.467,-11.0,32.53,-0.19397,0.40234,0.20013,0.87198,246
61,0.908,0.076,0.443,1.465,0.61,0.61,10.536,-63.666,160.472,-23.927,-11.967,-14.293,29.93,0.09555,0.52872,-0.01004,0.84326,251,0.368,0.019,0.922,2.869,-1.099,2.625,2.521,-19.847,-141.158,-11.727,-10.367,-9.12,26.67,-0.33078,0.15482,0.07715,0.92764,239,0.393,-0.047,0.884,3.296,-0.061,3.174,-1.978,-23.335,169.156,-11.34,-10.067,-31.6,31.13,-0.09705,-0.20044,0.03943,-0.97403,245,0.781,0.178,0.577,1.221,-0.366,1.099,17.836,-51.57,-163.779,-23.407,-14.467,-11.0,32.53,-0.19397,0.40234,0.20013,0.87198,247
62,0.915,0.075,0.441,1.465,0.549,0.0,10.536,-63.66,160.455,-23.927,-11.967,-14.293,29.93,0.09555,0.52872,-0.01004,0.84326,258,0.348,0.021,0.917,2.563,0.61,2.38,2.554,-19.858,-141.108,-11.727,-10.367,-9.12,26.67,-0.33078,0.15482,0.07715,0.92764,240,0.391,-0.048,0.893,4.7,0.916,2.808,-1.934,-23.335,169.206,-11.34,-10.067,-31.6,31.13,-0.09705,-0.20044,0.03943,-0.97403,252,0.773,0.185,0.582,1.892,-0.061,0.793,17.842,-51.581,-163.773,-23.407,-14.467,-11.0,32.53,-0.19397,0.40234,0.20013,0.87198,248
63,0.922,0.077,0.443,1.038,0.61,-0.305,10.552,-63.649,160.422,-23.927,-11.967,-14.293,29.93,0.09555,0.52872,-0.01004,0.84326,259,0.343,0.03,0.925,2.441,2.014,1.465,2.582,-19.841,-141.086,-11.727,-10.367,-9.12,26.67,-0.33078,0.15482,0.07715,0.92764,241,0.403,-0.047,0.894,4.333,3.052,1.587,-1.873,-23.307,169.244,-11.34,-10.067,-31.6,31.13,-0.09705,-0.20044,0.03943,-0.97403,253,0.776,0.183,0.578,1.465,0.427,0.488,17.858,-51.592,-163.757,-23.407,-14.467,-11.0,32.53,-0.19397,0.40234,0.20013,0.87198,249
64,0.921,0.081,0.438,0.854,1.099,-0.244,10.574,-63.633,160.378,-23.927,-11.967,-14.293,29.93,0.09555,0.52872,-0.01004,0.84326,264,0.347,0.03,0.929,1.953,2.014,0.61,2.609,-19.808,-141.086,-11.727,-10.367,-9.12,26.67,-0.33078,0.15482,0.07715,0.92764,256,0.399,-0.037,0.895,5.554,6.531,2.136,-1.802,-23.236,169.255,-11.34,-10.067,-31.6,31.13,-0.09705,-0.20044,0.03943,-0.97403,260,0.784,0.185,0.577,0.183,0.61,0.366,17.864,-51.586,-163.751,-23.407,-14.467,-11.0,32.53,-0.19217,0.40561,0.19882,0.87115,254
65,0.919,0.079,0.438,0.488,1.648,-0.061,10.58,-63.611,160.367,-23.927,-11.967,-14.293,29.93,0.09555,0.52872,-0.01004,0.84326,265,0.358,0.036,0.929,1.465,1.587,0.427,2.631,-19.781,-141.097,-11.727,-10.367,-9.12,26.67,-0.33078,0.15482,0.07715,0.92764,257,0.383,-0.04,0.914,5.371,8.057,2.319,-1.719,-23.104,169.261,-11.34,-10.067,-31.6,31.13,-0.09705,-0.20044,0.03943,-0.97403,261,0.79,0.181,0.571,-0.183,1.282,0.305,17.847,-51.581,-163.74,-23.407,-14.467,-11.0,32.53,-0.19217,0.40561,0.19882,0.87115,255
66,0.914,0.079,0.436,0.244,1.648,-0.488,10.574,-63.583,160.356,-23.713,-11.613,-13.82,29.93,0.09555,0.52872,-0.01004,0.84326,270,0.352,0.034,0.931,1.526,1.709,1.038,2.648,-19.759,-141.114,-11.727,-10.367,-9.12,26.67,-0.33078,0.15482,0.07715,0.92764,262,0.371,-0.037,0.934,2.441,6.348,0.61,-1.648,-22.961,169.261,-11.34,-10.067,-31.6,31.13,-0.09705,-0.20044,0.03943,-0.97403,272,0.786,0.178,0.571,-0.244,1.892,0.061,17.825,-51.559,-163.724,-23.407,-14.467,-11.0,32.53,-0.19217,0.40561,0.19882,0.87115,266
67,0.904,0.079,0.441,0.122,1.404,-0.793,10.585,-63.556,160.345,-23.713,-11.613,-13.82,29.93,0.09555,0.52872,-0.01004,0.84326,271,0.335,0.027,0.943,0.916,1.77,1.038,2.653,-19.731,-141.125,-11.727,-10.367,-9.12,26.67,-0.33078,0.15482,0.07715,0.92764,263,0.358,-0.02,0.947,0.854,5.615,-0.122,-1.62,-22.846,169.233,-11.34,-10.067,-31.6,31.13,-0.09705,-0.20044,0.03943,-0.97403,273,0.778,0.182,0.577,-0.549,2.075,-0.305,17.803,-51.531,-163.702,-23.407,-14.467,-11.0,32.53,-0.19217,0.40561,0.19882,0.87115,267
68,0.904,0.086,0.445,0.122,0.732,-0.61,10.602,-63.534,160.318,-23.713,-11.613,-13.82,29.93,0.09555,0.52872,-0.01004,0.84326,282,0.32,0.034,0.958,0.0,1.16,0.549,2.642,-19.715,-141.136,-11.727,-10.367,-9.12,26.67,-0.33078,0.15482,0.07715,0.92764,268,0.351,-0.013,0.964,-1.892,2.747,-0.916,-1.62,-22.753,169.206,-11.34,-10.067,-31.6,31.13,-0.09705,-0.20044,0.03943,-0.97403,276,0.767,0.183,0.583,-0.488,1.77,-0.549,17.781,-51.498,-163.707,-23.407,-14.467,-11.0,32.53,-0.19217,0.40561,0.19882,0.87115,274
69,0.911,0.092,0.446,0.0,-0.427,-0.244,10.618,-63.528,160.274,-23.713,-11.613,-13.82,29.93,0.09555,0.52872,-0.01004,0.84326,283,0.304,0.045,0.968,-0.488,-0.122,0.671,2.626,-19.715,-141.13,-11.727,-10.367,-9.12,26.67,-0.33078,0.15482,0.07715,0.92764,269,0.368,-0.002,0.955,-4.333,0.732,-2.014,-1.664,-22.703,169.195,-11.34,-10.067,-31.6,31.13,-0.09705,-0.20044,0.03943,-0.97403,277,0.761,0.187,0.591,-0.549,0.977,-0.427,17.77,-51.476,-163.735,-23.407,-14.467,-11.0,32.53,-0.19217,0.40561,0.19882,0.87115,275
70,0.91,0.091,0.445,-0.244,-1.038,0.122,10.624,-63.539,160.241,-23.713,-11.613,-13.82,29.93,0.09708,0.52991,-0.0123,0.84232,292,0.312,0.051,0.973,-1.343,-1.648,0.671,2.593,-19.742,-141.136,-11.727,-10.367,-9.12,26.67,-0.33078,0.15482,0.07715,0.92764,278,0.377,-0.001,0.933,-2.319,1.282,-1.648,-1.725,-22.681,169.189,-11.24,-9.94,-32.16,31.13,-0.09705,-0.20044,0.03943,-0.97403,284,0.768,0.196,0.595,-0.916,-0.061,-0.244,17.759,-51.465,-163.768,-23.407,-14.467,-11.0,32.53,-0.19217,0.40561,0.19882,0.87115,286
71,0.897,0.086,0.448,-0.549,-0.793,0.305,10.618,-63.561,160.208,-23.713,-11.613,-13.82,29.93,0.09708,0.52991,-0.0123,0.84232,293,0.339,0.055,0.964,-2.136,-3.418,0.61,2.549,-19.797,-141.136,-11.727,-10.367,-9.12,26.67,-0.33078,0.15482,0.07715,0.92764,279,0.356,-0.018,0.927,-2.563,0.122,-1.16,-1.758,-22.654,169.195,-11.24,-9.94,-32.16,31.13,-0.09705,-0.20044,0.03943,-0.97403,285,0.771,0.199,0.587,-1.221,-0.793,0.061,17.743,-51.471,-163.795,-23.407,-14.467,-11.0,32.53,-0.19217,0.40561,0.19882,0.87115,287
72,0.896,0.085,0.449,-0.488,-0.732,0.244,10.607,-63.578,160.208,-23.713,-11.613,-13.82,29.93,0.09708,0.52991,-0.0123,0.84232,296,0.335,0.046,0.939,-0.854,-3.174,0.854,2.521,-19.852,-141.141,-11.727,-10.367,-9.12,26.67,-0.33078,0.15482,0.07715,0.92764,280,0.34,-0.025,0.929,-4.395,-3.418,-1.343,-1.802,-22.665,169.211,-11.24,-9.94,-32.16,31.13,-0.09705,-0.20044,0.03943,-0.97403,294,0.761,0.195,0.585,-1.526,-0.977,0.366,17.721,-51.487,-163.839,-23.407,-14.467,-11.0,32.53,-0.19217,0.40561,0.19882,0.87115,288
73,0.905,0.089,0.45,-0.366,-1.465,0.0,10.596,-63.6,160.225,-23.713,-11.613,-13.82,29.93,0.09708,0.52991,-0.0123,0.84232,297,0.311,0.034,0.935,-0.732,-2.258,0.427,2.499,-19.896,-141.147,-11.727,-10.367,-9.12,26.67,-0.33078,0.15482,0.07715,0.92764,281,0.362,-0.025,0.936,-6.47,-5.493,-5.859,-1.873,-22.736,169.211,-11.24,-9.94,-32.16,31.13,-0.09705,-0.20044,0.03943,-0.97403,295,0.752,0.19,0.585,-1.526,-1.038,0.488,17.693,-51.509,-163.878,-23.407,-14.467,-11.0,32.53,-0.19217,0.40561,0.19882,0.87115,289
74,0.912,0.09,0.452,-0.488,-1.953,0.061,10.602,-63.627,160.225,-23.713,-11.613,-13.82,29.93,0.09708,0.52991,-0.0123,0.84232,304,0.31,0.036,0.945,-1.221,-2.38,-0.427,2.483,-19.935,-141.158,-11.727,-10.367,-9.12,26.67,-0.33078,0.15482,0.07715,0.92764,290,0.373,-0.016,0.928,-5.798,-5.249,-8.301,-1.945,-22.83,169.14,-11.24,-9.94,-32.16,31.13,-0.09628,-0.19562,0.03543,-0.97525,298,0.759,0.191,0.59,-2.197,-1.282,0.427,17.655,-51.537,-163.9,-23.407,-14.467,-11.0,32.53,-0.19217,0.40561,0.19882,0.87115,300
75,0.917,0.085,0.45,-0.427,-2.075,0.305,10.607,-63.66,160.225,-23.713,-11.613,-13.82,29.93,0.09708,0.52991,-0.0123,0.84232,305,0.332,0.049,0.951,-2.197,-3.906,-1.038,2.45,-19.995,-141.18,-11.727,-10.367,-9.12,26.67,-0.33078,0.15482,0.07715,0.92764,291,0.389,-0.027,0.923,-3.723,-6.104,-10.498,-1.967,-22.928,169.019,-11.24,-9.94,-32.16,31.13,-0.09628,-0.19562,0.03543,-0.97525,299,0.773,0.194,0.594,-2.625,-1.831,0.549,17.611,-51.564,-163.889,-23.407,-14.467,-11.0,32.53,-0.19217,0.40561,0.19882,0.87115,301
76,0.91,0.083,0.446,-0.183,-1.77,0.366,10.607,-63.699,160.236,-23.713,-11.613,-13.82,29.93,0.09708,0.52991,-0.0123,0.84232,312,0.348,0.044,0.942,-1.892,-4.639,-0.977,2.417,-20.072,-141.213,-11.727,-10.367,-9.12,26.67,-0.33078,0.15482,0.07715,0.92764,302,0.379,-0.039,0.924,-2.075,-8.85,-11.475,-1.939,-23.055,168.871,-11.24,-9.94,-32.16,31.13,-0.09628,-0.19562,0.03543,-0.97525,306,0.78,0.188,0.594,-2.563,-1.953,0.671,17.567,-51.597,-163.872,-23.407,-14.467,-11.0,32.53,-0.19217,0.40561,0.19882,0.87115,308
77,0.91,0.081,0.444,-0.061,-1.77,0.427,10.602,-63.732,160.252,-23.713,-11.613,-13.82,29.93,0.09708,0.52991,-0.0123,0.84232,313,0.337,0.026,0.94,-0.793,-3.662,-0.977,2.406,-20.138,-141.235,-11.727,-10.367,-9.12,26.67,-0.33078,0.15482,0.07715,0.92764,303,0.38,-0.021,0.928,-3.662,-9.338,-10.315,-1.89,-23.225,168.706,-11.24,-9.94,-32.16,31.13,-0.09628,-0.19562,0.03543,-0.97525,307,0.772,0.184,0.59,-1.77,-1.709,0.61,17.523,-51.63,-163.856,-23.407,-14.467,-11.0,32.53,-0.19217,0.40561,0.19882,0.87115,309
78,0.917,0.083,0.442,0.061,-2.258,0.549,10.602,-63.765,160.274,-23.713,-11.613,-13.82,29.93,0.09708,0.52991,-0.0123,0.84232,316,0.324,0.031,0.95,-1.282,-3.174,-1.526,2.395,-20.187,-141.257,-11.8,-10.38,-8.947,26.67,-0.33078,0.15482,0.07715,0.92764,310,0.393,-0.008,0.923,-5.066,-7.263,-9.705,-1.884,-23.39,168.574,-11.24,-9.94,-32.16,31.13,-0.09628,-0.19562,0.03543,-0.97525,318,0.769,0.183,0.588,-0.977,-1.648,0.488,17.501,-51.663,-163.823,-23.487,-14.187,-10.447,32.53,-0.19217,0.40561,0.19882,0.87115,320
79,0.923,0.081,0.438,0.0,-2.38,0.793,10.596,-63.809,160.312,-23.713,-11.613,-13.82,29.93,0.09708,0.52991,-0.0123,0.84232,317,0.338,0.051,0.954,-2.747,-4.395,-1.709,2.357,-20.259,-141.29,-11.8,-10.38,-8.947,26.67,-0.33078,0.15482,0.07715,0.92764,311,0.41,-0.02,0.917,-4.517,-6.409,-10.498,-1.895,-23.522,168.437,-11.24,-9.94,-32.16,31.13,-0.09628,-0.19562,0.03543,-0.97525,319,0.778,0.188,0.585,-1.099,-2.136,0.732,17.485,-51.696,-163.801,-23.487,-14.187,-10.447,32.53,-0.19217,0.40561,0.19882,0.87115,321
80,0.922,0.073,0.437,0.0,-2.014,1.404,10.58,-63.853,160.378,-23.713,-11.613,-13.82,29.93,0.09708,0.52991,-0.0123,0.84232,324,0.36,0.049,0.947,-3.174,-5.31,-1.343,2.313,-20.347,-141.301,-11.8,-10.38,-8.947,26.67,-0.33078,0.15482,0.07715,0.92764,314,0.419,-0.022,0.901,-3.54,-6.775,-9.705,-1.884,-23.637,168.294,-11.24,-9.94,-32.16,31.13,-0.09628,-0.19562,0.03543,-0.97525,328,0.788,0.185,0.581,-1.587,-2.625,1.038,17.457,-51.746,-163.79,-23.487,-14.187,-10.447,32.53,-0.19217,0.40561,0.19882,0.87115,322
81,0.921,0.065,0.434,0.305,-1.587,1.709,10.53,-63.896,160.466,-23.713,-11.613,-13.82,29.93,0.09708,0.52991,-0.0123,0.84232,325,0.372,0.037,0.935,-2.563,-5.859,-0.488,2.269,-20.446,-141.312,-11.8,-10.38,-8.947,26.67,-0.33078,0.15482,0.07715,0.92764,315,0.417,-0.028,0.9,-1.77,-7.019,-7.385,-1.862,-23.769,168.173,-11.24,-9.94,-32.16,31.13,-0.09628,-0.19562,0.03543,-0.97525,329,0.792,0.176,0.578,-1.404,-2.563,1.526,17.419,-51.795,-163.757,-23.487,-14.187,-10.447,32.53,-0.19217,0.40561,0.19882,0.87115,323
82,0.92,0.066,0.434,0.977,-1.526,1.709,10.481,-63.929,160.554,-23.713,-11.613,-13.82,29.93,0.09708,0.52991,-0.0123,0.84232,336,0.368,0.028,0.927,-1.404,-5.066,0.366,2.236,-20.544,-141.312,-11.8,-10.38,-8.947,26.67,-0.32919,0.16098,0.07715,0.92719,326,0.41,-0.028,0.9,-2.197,-6.47,-4.7,-1.84,-23.901,168.08,-11.24,-9.94,-32.16,31.13,-0.09628,-0.19562,0.03543,-0.97525,330,0.789,0.167,0.575,-0.854,-2.075,1.77,17.375,-51.85,-163.713,-23.487,-14.187,-10.447,32.53,-0.1911,0.40826,0.19577,0.87085,332
83,0.917,0.069,0.433,1.587,-1.526,1.343,10.443,-63.968,160.62,-23.713,-11.613,-13.82,29.93,0.09708,0.52991,-0.0123,0.84232,337,0.368,0.025,0.929,-0.61,-4.333,1.526,2.214,-20.632,-141.284,-11.8,-10.38,-8.947,26.67,-0.32919,0.16098,0.07715,0.92719,327,0.417,-0.034,0.895,0.427,-6.897,-2.441,-1.829,-24.027,168.025,-11.24,-9.94,-32.16,31.13,-0.09628,-0.19562,0.03543,-0.97525,331,0.788,0.166,0.574,-0.061,-1.648,1.892,17.336,-51.894,-163.674,-23.487,-14.187,-10.447,32.53,-0.1911,0.40826,0.19577,0.87085,333
84,0.918,0.071,0.434,1.77,-1.587,1.038,10.426,-64.006,160.659,-23.713,-11.613,-13.82,29.93,0.09708,0.52991,-0.0123,0.84232,342,0.376,0.024,0.922,0.854,-3.723,2.441,2.208,-20.704,-141.229,-11.8,-10.38,-8.947,26.67,-0.32919,0.16098,0.07715,0.92719,334,0.417,-0.062,0.888,5.493,-9.583,-3.052,-1.774,-24.17,168.008,-11.24,-9.94,-32.16,31.13,-0.09628,-0.19562,0.03543,-0.97525,344,0.786,0.171,0.573,0.061,-1.465,1.953,17.298,-51.938,-163.647,-23.487,-14.187,-10.447,32.53,-0.1911,0.40826,0.19577,0.87085,338
85,0.92,0.073,0.435,1.77,-1.465,0.671,10.426,-64.039,160.697,-23.713,-11.613,-13.82,29.93,0.09708,0.52991,-0.0123,0.84232,343,0.376,0.003,0.912,2.93,-2.197,2.563,2.23,-20.759,-141.18,-11.8,-10.38,-8.947,26.67,-0.32919,0.16098,0.07715,0.92719,335,0.419,-0.058,0.895,5.066,-10.437,-3.052,-1.642,-24.362,167.975,-11.24,-9.94,-32.16,31.13,-0.09628,-0.19562,0.03543,-0.97525,345,0.787,0.167,0.573,0.183,-1.465,1.77,17.26,-51.982,-163.608,-23.487,-14.187,-10.447,32.53,-0.1911,0.40826,0.19577,0.87085,339
86,0.924,0.076,0.436,1.77,-1.038,0.427,10.437,-64.072,160.73,-23.713,-11.613,-13.82,29.93,0.09708,0.52991,-0.0123,0.84232,348,0.361,-0.004,0.915,3.906,-0.732,1.709,2.285,-20.786,-141.147,-11.8,-10.38,-8.947,26.67,-0.32919,0.16098,0.07715,0.92719,340,0.413,-0.032,0.909,1.526,-6.836,-2.38,-1.544,-24.549,167.932,-11.24,-9.94,-32.16,31.13,-0.09628,-0.19562,0.03543,-0.97525,350,0.786,0.165,0.574,0.427,-1.16,1.16,17.238,-52.015,-163.581,-23.487,-14.187,-10.447,32.53,-0.1911,0.40826,0.19577,0.87085,346
87,0.924,0.079,0.438,1.831,-0.61,0.427,10.453,-64.094,160.779,-23.713,-11.613,-13.82,29.93,0.09708,0.52991,-0.0123,0.84232,349,0.354,0.019,0.936,2.686,-0.427,0.916,2.324,-20.803,-141.141,-11.8,-10.38,-8.947,26.67,-0.32919,0.16098,0.07715,0.92719,341,0.424,-0.016,0.91,-1.221,-3.54,-1.77,-1.522,-24.664,167.882,-11.24,-9.94,-32.16,31.13,-0.09628,-0.19562,0.03543,-0.97525,351,0.786,0.171,0.575,0.732,-0.732,0.61,17.227,-52.042,-163.575,-23.487,-14.187,-10.447,32.53,-0.1911,0.40826,0.19577,0.87085,347
88,0.922,0.079,0.438,1.648,-0.305,0.366,10.47,-64.105,160.829,-24.013,-11.5,-12.72,29.93,0.09708,0.52991,-0.0123,0.84232,360,0.364,0.044,0.949,1.831,-1.892,1.099,2.346,-20.836,-141.136,-11.8,-10.38,-8.947,26.67,-0.32919,0.16098,0.07715,0.92719,352,0.431,-0.019,0.897,-1.465,-3.906,-3.601,-1.533,-24.736,167.833,-11.727,-9.94,-32.147,31.13,-0.09628,-0.19562,0.03543,-0.97525,354,0.789,0.179,0.576,0.671,-0.549,0.488,17.227,-52.064,-163.57,-23.487,-14.187,-10.447,32.53,-0.1911,0.40826,0.19577,0.87085,356
89,0.92,0.076,0.437,1.526,0.061,0.305,10.481,-64.111,160.884,-24.013,-11.5,-12.72,29.93,0.09708,0.52991,-0.0123,0.84232,361,0.375,0.044,0.937,1.038,-2.563,1.221,2.351,-20.885,-141.13,-11.8,-10.38,-8.947,26.67,-0.32919,0.16098,0.07715,0.92719,353,0.427,-0.033,0.894,-1.16,-5.493,-2.808,-1.533,-24.818,167.761,-11.727,-9.94,-32.147,31.13,-0.09628,-0.19562,0.03543,-0.97525,355,0.791,0.181,0.578,0.488,-0.488,0.549,17.227,-52.081,-163.559,-23.487,-14.187,-10.447,32.53,-0.1911,0.40826,0.19577,0.87085,357
90,0.918,0.071,0.435,1.648,0.549,0.549,10.486,-64.111,160.922,-24.013,-11.5,-12.72,29.93,0.09192,0.534,-0.01111,0.84033,364,0.373,0.025,0.924,0.488,-1.709,0.793,2.351,-20.929,-141.125,-11.8,-10.38,-8.947,26.67,-0.32919,0.16098,0.07715,0.92719,358,0.424,-0.014,0.896,-3.357,-5.554,-2.197,-1.549,-24.928,167.701,-11.727,-9.94,-32.147,31.13,-0.09628,-0.19562,0.03543,-0.97525,366,0.79,0.172,0.579,0.427,-0.366,0.427,17.221,-52.097,-163.553,-23.487,-14.187,-10.447,32.53,-0.1911,0.40826,0.19577,0.87085,362
91,0.919,0.073,0.433,1.831,0.793,0.916,10.481,-64.1,160.977,-24.013,-11.5,-12.72,29.93,0.09192,0.534,-0.01111,0.84033,365,0.363,0.026,0.928,-0.366,-0.671,0.671,2.335,-20.951,-141.125,-11.8,-10.38,-8.947,26.67,-0.32919,0.16098,0.07715,0.92719,359,0.424,-0.007,0.896,-2.38,-4.089,0.0,-1.599,-25.027,167.657,-11.727,-9.94,-32.147,31.13,-0.09628,-0.19562,0.03543,-0.97525,367,0.786,0.167,0.574,0.977,0.061,0.305,17.227,-52.108,-163.542,-23.487,-14.187,-10.447,32.53,-0.1911,0.40826,0.19577,0.87085,363
92,0.915,0.077,0.431,1.953,0.854,1.221,10.459,-64.089,161.038,-24.013,-11.5,-12.72,29.93,0.09192,0.534,-0.01111,0.84033,374,0.365,0.044,0.929,-0.305,-0.732,1.709,2.313,-20.973,-141.108,-11.8,-10.38,-8.947,26.67,-0.32919,0.16098,0.07715,0.92719,370,0.428,-0.023,0.896,-0.488,-3.662,0.183,-1.637,-25.104,167.629,-11.727,-9.94,-32.147,31.13,-0.1077,-0.21356,0.03656,-0.97025,372,0.784,0.172,0.575,1.648,0.366,0.671,17.232,-52.108,-163.531,-23.487,-14.187,-10.447,32.53,-0.1911,0.40826,0.19577,0.87085,368
93,0.913,0.083,0.432,2.014,0.549,1.099,10.437,-64.083,161.093,-24.013,-11.5,-12.72,29.93,0.09192,0.534,-0.01111,0.84033,375,0.366,0.04,0.929,0.793,-0.488,2.808,2.302,-20.989,-141.064,-11.8,-10.38,-8.947,26.67,-0.32919,0.16098,0.07715,0.92719,371,0.423,-0.028,0.896,-0.793,-4.211,0.854,-1.653,-25.181,167.596,-11.727,-9.94,-32.147,31.13,-0.1077,-0.21356,0.03656,-0.97025,373,0.782,0.177,0.572,2.136,0.488,1.099,17.238,-52.114,-163.499,-23.487,-14.187,-10.447,32.53,-0.1911,0.40826,0.19577,0.87085,369
94,0.915,0.089,0.433,1.77,0.122,0.854,10.432,-64.083,161.131,-24.013,-11.5,-12.72,29.93,0.09192,0.534,-0.01111,0.84033,384,0.357,0.028,0.927,1.526,-0.183,2.991,2.302,-21.0,-140.999,-11.8,-10.38,-8.947,26.67,-0.32919,0.16098,0.07715,0.92719,376,0.415,-0.025,0.899,-0.427,-4.761,0.854,-1.675,-25.269,167.596,-11.727,-9.94,-32.147,31.13,-0.1077,-0.21356,0.03656,-0.97025,378,0.776,0.18,0.575,2.014,0.366,1.282,17.243,-52.119,-163.471,-23.487,-14.187,-10.447,32.53,-0.1911,0.40826,0.19577,0.87085,380
95,0.917,0.092,0.435,1.404,0.061,0.61,10.432,-64.089,161.147,-24.013,-11.5,-12.72,29.93,0.09192,0.534,-0.01111,0.84033,385,0.354,0.031,0.931,0.793,-0.061,2.38,2.296,-21.011,-140.949,-11.8,-10.38,-8.947,26.67,-0.32919,0.16098,0.07715,0.92719,377,0.433,-0.024,0.902,-0.854,-3.479,0.488,-1.692,-25.345,167.596,-11.727,-9.94,-32.147,31.13,-0.1077,-0.21356,0.03656,-0.97025,379,0.776,0.187,0.576,1.587,0.183,1.099,17.243,-52.125,-163.449,-23.487,-14.187,-10.447,32.53,-0.1911,0.40826,0.19577,0.87085,381
96,0.918,0.089,0.438,0.854,0.183,0.427,10.432,-64.089,161.153,-24.013,-11.5,-12.72,29.93,0.09192,0.534,-0.01111,0.84033,388,0.357,0.037,0.934,0.549,-0.305,1.648,2.291,-21.022,-140.916,-12.173,-10.14,-9.24,26.67,-0.32919,0.16098,0.07715,0.92719,382,0.425,-0.028,0.899,-1.404,-2.808,-0.977,-1.714,-25.406,167.58,-11.727,-9.94,-32.147,31.13,-0.1077,-0.21356,0.03656,-0.97025,390,0.78,0.192,0.575,1.099,-0.061,0.854,17.249,-52.13,-163.438,-23.927,-14.407,-10.567,32.53,-0.1911,0.40826,0.19577,0.87085,386
97,0.918,0.086,0.44,0.549,0.305,0.305,10.437,-64.089,161.164,-24.013,-11.5,-12.72,29.93,0.09192,0.534,-0.01111,0.84033,389,0.363,0.036,0.935,0.366,-0.488,0.916,2.291,-21.033,-140.894,-12.173,-10.14,-9.24,26.67,-0.32919,0.16098,0.07715,0.92719,383,0.432,-0.025,0.896,-2.563,-3.357,-1.831,-1.736,-25.466,167.536,-11.727,-9.94,-32.147,31.13,-0.1077,-0.21356,0.03656,-0.97025,391,0.784,0.19,0.577,0.549,-0.366,0.671,17.249,-52.147,-163.411,-23.927,-14.407,-10.567,32.53,-0.1911,0.40826,0.19577,0.87085,387
98,0.913,0.081,0.439,0.549,0.366,0.488,10.432,-64.083,161.153,-24.013,-11.5,-12.72,29.93,0.09192,0.534,-0.01111,0.84033,396,0.363,0.036,0.936,-0.244,-0.488,0.0,2.28,-21.044,-140.878,-12.173,-10.14,-9.24,26.67,-0.32919,0.16098,0.07715,0.92719,394,0.427,-0.028,0.893,-2.014,-2.747,-1.099,-1.769,-25.521,167.52,-11.727,-9.94,-32.147,31.13,-0.1077,-0.21356,0.03656,-0.97025,398,0.786,0.185,0.581,0.183,-0.61,0.549,17.249,-52.158,-163.378,-23.927,-14.407,-10.567,32.53,-0.1911,0.40826,0.19577,0.87085,392
99,0.911,0.082,0.438,0.671,0.488,0.488,10.426,-64.078,161.142,-24.013,-11.5,-12.72,29.93,0.09192,0.534,-0.01111,0.84033,397,0.363,0.034,0.933,-0.671,-0.305,-0.183,2.269,-21.05,-140.856,-12.173,-10.14,-9.24,26.67,-0.32919,0.16098,0.07715,0.92719,395,0.429,-0.031,0.893,-2.197,-2.014,-0.244,-1.802,-25.565,167.52,-11.727,-9.94,-32.147,31.13,-0.1077,-0.21356,0.03656,-0.97025,399,0.783,0.177,0.58,0.366,-0.427,0.305,17.249,-52.174,-163.35,-23.927,-14.407,-10.567,32.53,-0.1911,0.40826,0.19577,0.87085,393
100,0.913,0.084,0.439,0.427,0.61,0.183,10.421,-64.067,161.115,-24.013,-11.5,-12.72,29.93,0.09192,0.534,-0.01111,0.84033,404,0.362,0.026,0.933,-0.61,-0.183,0.061,2.252,-21.055,-140.823,-12.173,-10.14,-9.24,26.67,-0.33261,0.16556,0.07953,0.92496,400,0.422,-0.029,0.891,-2.136,-2.625,-1.77,-1.835,-25.609,167.509,-11.727,-9.94,-32.147,31.13,-0.1077,-0.21356,0.03656,-0.97025,406,0.777,0.173,0.576,0.732,0.0,0.061,17.265,-52.174,-163.356,-23.927,-14.407,-10.567,32.53,-0.19379,0.41068,0.19623,0.86902,408
101,0.918,0.081,0.437,0.488,0.366,0.061,10.426,-64.061,161.109,-24.013,-11.5,-12.72,29.93,0.09192,0.534,-0.01111,0.84033,405,0.357,0.026,0.929,-0.854,0.0,0.122,2.23,-21.061,-140.79,-12.173,-10.14,-9.24,26.67,-0.33261,0.16556,0.07953,0.92496,401,0.433,-0.029,0.891,-1.282,-2.38,-1.648,-1.851,-25.659,167.503,-11.727,-9.94,-32.147,31.13,-0.1077,-0.21356,0.03656,-0.97025,407,0.778,0.181,0.579,0.732,0.061,-0.122,17.281,-52.174,-163.372,-23.927,-14.407,-10.567,32.53,-0.19379,0.41068,0.19623,0.86902,409
102,0.917,0.081,0.437,0.366,0.061,0.0,10.437,-64.056,161.082,-24.013,-11.5,-12.72,29.93,0.09192,0.534,-0.01111,0.84033,412,0.36,0.031,0.927,-0.671,0.366,-0.244,2.214,-21.055,-140.779,-12.173,-10.14,-9.24,26.67,-0.33261,0.16556,0.07953,0.92496,402,0.434,-0.03,0.899,-1.77,-2.441,-2.197,-1.862,-25.708,167.47,-11.727,-9.94,-32.147,31.13,-0.1077,-0.21356,0.03656,-0.97025,414,0.782,0.181,0.578,0.61,0.061,-0.183,17.298,-52.174,-163.383,-23.927,-14.407,-10.567,32.53,-0.19379,0.41068,0.19623,0.86902,410
103,0.918,0.076,0.434,0.305,0.122,0.122,10.443,-64.056,161.071,-24.013,-11.5,-12.72,29.93,0.09192,0.534,-0.01111,0.84033,413,0.36,0.028,0.928,-0.671,0.61,-0.671,2.203,-21.044,-140.784,-12.173,-10.14,-9.24,26.67,-0.33261,0.16556,0.07953,0.92496,403,0.432,-0.026,0.898,-1.77,-3.052,-1.77,-1.879,-25.757,167.421,-11.727,-9.94,-32.147,31.13,-0.1077,-0.21356,0.03656,-0.97025,415,0.784,0.18,0.576,0.366,0.244,-0.305,17.309,-52.169,-163.405,-23.927,-14.407,-10.567,32.53,-0.19379,0.41068,0.19623,0.86902,411
104,0.923,0.074,0.432,0.183,0.0,0.183,10.443,-64.056,161.06,-23.887,-11.593,-13.307,29.93,0.09192,0.534,-0.01111,0.84033,420,0.36,0.03,0.936,-0.671,0.549,-1.038,2.192,-21.033,-140.817,-12.173,-10.14,-9.24,26.67,-0.33261,0.16556,0.07953,0.92496,418,0.444,-0.031,0.896,-1.282,-2.502,-1.831,-1.895,-25.812,167.355,-11.727,-9.94,-32.147,31.13,-0.1077,-0.21356,0.03656,-0.97025,422,0.785,0.177,0.573,0.183,0.305,-0.366,17.325,-52.163,-163.444,-23.927,-14.407,-10.567,32.53,-0.19379,0.41068,0.19623,0.86902,416
105,0.922,0.076,0.434,0.122,0.0,0.0,10.443,-64.056,161.038,-23.887,-11.593,-13.307,29.93,0.09192,0.534,-0.01111,0.84033,421,0.367,0.029,0.938,-0.977,0.244,-0.916,2.175,-21.028,-140.828,-12.173,-10.14,-9.24,26.67,-0.33261,0.16556,0.07953,0.92496,419,0.439,-0.035,0.895,-1.16,-1.953,-1.221,-1.901,-25.856,167.311,-11.727,-9.94,-32.147,31.13,-0.1077,-0.21356,0.03656,-0.97025,423,0.788,0.173,0.572,-0.122,0.0,-0.305,17.331,-52.163,-163.482,-23.927,-14.407,-10.567,32.53,-0.19379,0.41068,0.19623,0.86902,417
106,0.918,0.075,0.434,0.244,0.305,-0.305,10.448,-64.056,160.983,-23.887,-11.593,-13.307,29.93,0.09192,0.534,-0.01111,0.84033,432,0.37,0.025,0.934,-0.854,0.244,-0.854,2.164,-21.022,-140.823,-12.173,-10.14,-9.24,26.67,-0.33261,0.16556,0.07953,0.92496,424,0.432,-0.03,0.894,-1.892,-2.075,-1.282,-1.923,-25.895,167.267,-12.107,-9.713,-32.053,31.13,-0.1077,-0.21356,0.03656,-0.97025,426,0.791,0.176,0.574,-0.122,-0.183,-0.366,17.336,-52.169,-163.499,-23.927,-14.407,-10.567,32.53,-0.19379,0.41068,0.19623,0.86902,428
107,0.915,0.076,0.434,0.183,0.488,-0.305,10.459,-64.05,160.922,-23.887,-11.593,-13.307,29.93,0.09192,0.534,-0.01111,0.84033,433,0.365,0.026,0.933,-0.916,0.122,-1.038,2.148,-21.022,-140.817,-12.173,-10.14,-9.24,26.67,-0.33261,0.16556,0.07953,0.92496,425,0.438,-0.034,0.892,-2.441,-1.831,-2.197,-1.95,-25.933,167.206,-12.107,-9.713,-32.053,31.13,-0.1077,-0.21356,0.03656,-0.97025,427,0.787,0.177,0.573,0.0,-0.122,-0.488,17.347,-52.169,-163.526,-23.927,-14.407,-10.567,32.53,-0.19379,0.41068,0.19623,0.86902,429
108,0.916,0.077,0.434,0.183,0.305,-0.305,10.47,-64.045,160.867,-23.887,-11.593,-13.307,29.93,0.09213,0.53357,-0.01123,0.84058,436,0.363,0.03,0.933,-1.343,0.183,-1.221,2.126,-21.022,-140.828,-12.173,-10.14,-9.24,26.67,-0.33261,0.16556,0.07953,0.92496,430,0.438,-0.037,0.887,-1.404,-2.136,-0.854,-1.972,-25.972,167.157,-12.107,-9.713,-32.053,31.13,-0.1077,-0.21356,0.03656,-0.97025,438,0.783,0.176,0.572,0.183,-0.061,-0.488,17.358,-52.174,-163.564,-23.927,-14.407,-10.567,32.53,-0.19379,0.41068,0.19623,0.86902,434
109,0.917,0.075,0.436,0.183,0.244,-0.366,10.481,-64.039,160.818,-23.887,-11.593,-13.307,29.93,0.09213,0.53357,-0.01123,0.84058,437,0.363,0.024,0.93,-1.282,0.244,-1.16,2.104,-21.022,-140.828,-12.173,-10.14,-9.24,26.67,-0.33261,0.16556,0.07953,0.92496,431,0.438,-0.032,0.887,-2.014,-1.648,-0.977,-2.0,-26.01,167.13,-12.107,-9.713,-32.053,31.13,-0.1077,-0.21356,0.03656,-0.97025,439,0.783,0.176,0.571,0.061,-0.061,-0.549,17.369,-52.174,-163.608,-23.927,-14.407,-10.567,32.53,-0.19379,0.41068,0.19623,0.86902,435
110,0.918,0.077,0.437,0.427,0.366,-0.305,10.492,-64.034,160.79,-23.887,-11.593,-13.307,29.93,0.09213,0.53357,-0.01123,0.84058,454,0.361,0.023,0.929,-1.221,0.122,-1.343,2.087,-21.022,-140.839,-12.173,-10.14,-9.24,26.67,-0.33261,0.16556,0.07953,0.92496,442,0.44,-0.033,0.886,-1.587,-0.977,-1.465,-2.021,-26.038,167.113,-12.107,-9.713,-32.053,31.13,-0.11292,-0.22156,0.04193,-0.96762,446,0.785,0.174,0.573,-0.122,-0.061,-0.61,17.38,-52.18,-163.641,-23.927,-14.407,-10.567,32.53,-0.19379,0.41068,0.19623,0.86902,440
111,0.917,0.081,0.437,0.488,0.549,-0.488,10.508,-64.028,160.774,-23.887,-11.593,-13.307,29.93,0.09213,0.53357,-0.01123,0.84058,455,0.364,0.028,0.931,-1.099,0.183,-1.16,2.071,-21.017,-140.85,-12.173,-10.14,-9.24,26.67,-0.33261,0.16556,0.07953,0.92496,443,0.441,-0.036,0.887,-1.221,-0.183,-1.465,-2.038,-26.049,167.091,-12.107,-9.713,-32.053,31.13,-0.11292,-0.22156,0.04193,-0.96762,447,0.786,0.173,0.573,-0.061,0.061,-0.61,17.391,-52.18,-163.669,-23.927,-14.407,-10.567,32.53,-0.19379,0.41068,0.19623,0.86902,441
112,0.917,0.082,0.436,0.488,0.732,-0.549,10.53,-64.017,160.763,-23.887,-11.593,-13.307,29.93,0.09213,0.53357,-0.01123,0.84058,456,0.366,0.025,0.931,-0.854,0.366,-0.977,2.054,-21.017,-140.861,-12.173,-10.14,-9.24,26.67,-0.33261,0.16556,0.07953,0.92496,444,0.436,-0.029,0.892,-1.221,-0.61,-1.465,-2.049,-26.06,167.053,-12.107,-9.713,-32.053,31.13,-0.11292,-0.22156,0.04193,-0.96762,448,0.785,0.178,0.574,0.122,0.305,-0.671,17.402,-52.174,-163.685,-23.927,-14.407,-10.567,32.53,-0.19379,0.41068,0.19623,0.86902,450
113,0.916,0.082,0.436,0.427,0.732,-0.427,10.552,-64.001,160.741,-23.887,-11.593,-13.307,29.93,0.09213,0.53357,-0.01123,0.84058,457,0.361,0.025,0.929,-0.61,0.549,-0.916,2.043,-21.006,-140.883,-12.173,-10.14,-9.24,26.67,-0.33261,0.16556,0.07953,0.92496,445,0.439,-0.028,0.894,-1.587,-0.244,-1.16,-2.065,-26.071,167.014,-12.107,-9.713,-32.053,31.13,-0.11292,-0.22156,0.04193,-0.96762,449,0.784,0.179,0.573,0.244,0.671,-0.854,17.424,-52.158,-163.718,-23.927,-14.407,-10.567,32.53,-0.19379,0.41068,0.19623,0.86902,451
114,0.918,0.083,0.435,0.366,0.916,-0.427,10.569,-63.99,160.735,-23.887,-11.593,-13.307,29.93,0.09213,0.53357,-0.01123,0.84058,458,0.358,0.031,0.934,-0.732,0.488,-0.916,2.032,-21.0,-140.905,-12.127,-10.207,-8.153,26.67,-0.33261,0.16556,0.07953,0.92496,452,0.439,-0.027,0.893,-2.197,0.305,-1.526,-2.087,-26.071,166.959,-12.107,-9.713,-32.053,31.13,-0.11292,-0.22156,0.04193,-0.96762,460,0.782,0.181,0.574,0.183,0.793,-0.977,17.441,-52.141,-163.768,-23.927,-14.407,-10.567,32.53,-0.19379,0.41068,0.19623,0.86902,462
115,0.915,0.082,0.436,0.183,0.732,-0.549,10.585,-63.973,160.708,-23.887,-11.593,-13.307,29.93,0.09213,0.53357,-0.01123,0.84058,459,0.361,0.032,0.937,-0.916,0.122,-0.854,2.016,-21.0,-140.916,-12.127,-10.207,-8.153,26.67,-0.33261,0.16556,0.07953,0.92496,453,0.439,-0.024,0.89,-2.014,-0.488,-1.831,-2.115,-26.071,166.888,-12.107,-9.713,-32.053,31.13,-0.11292,-0.22156,0.04193,-0.96762,461,0.783,0.184,0.575,0.305,0.732,-0.916,17.463,-52.13,-163.817,-23.927,-14.407,-10.567,32.53,-0.19379,0.41068,0.19623,0.86902,463
116,0.914,0.083,0.435,0.061,0.793,-0.366,10.596,-63.957,160.675,-23.887,-11.593,-13.307,29.93,0.09213,0.53357,-0.01123,0.84058,468,0.361,0.032,0.934,-1.038,0.183,-1.038,2.0,-21.0,-140.933,-12.127,-10.207,-8.153,26.67,-0.33261,0.16556,0.07953,0.92496,466,0.434,-0.021,0.893,-1.587,0.183,-1.343,-2.131,-26.076,166.833,-12.107,-9.713,-32.053,31.13,-0.11292,-0.22156,0.04193,-0.96762,470,0.782,0.185,0.575,0.061,0.61,-0.854,17.479,-52.114,-163.872,-23.927,-14.407,-10.567,32.53,-0.19379,0.41068,0.19623,0.86902,464
117,0.916,0.08,0.436,0.122,0.61,-0.183,10.602,-63.946,160.659,-23.887,-11.593,-13.307,29.93,0.09213,0.53357,-0.01123,0.84058,469,0.358,0.034,0.932,-1.099,0.61,-1.099,1.983,-20.989,-140.949,-12.127,-10.207,-8.153,26.67,-0.33261,0.16556,0.07953,0.92496,467,0.438,-0.028,0.895,-1.038,0.366,-0.61,-2.142,-26.076,166.827,-12.107,-9.713,-32.053,31.13,-0.11292,-0.22156,0.04193,-0.96762,471,0.779,0.186,0.573,0.183,0.732,-0.732,17.49,-52.103,-163.949,-23.927,-14.407,-10.567,32.53,-0.19379,0.41068,0.19623,0.86902,465
118,0.917,0.082,0.437,0.122,0.488,-0.122,10.607,-63.94,160.653,-23.887,-11.593,-13.307,29.93,0.09213,0.53357,-0.01123,0.84058,480,0.356,0.033,0.934,-0.854,0.305,-0.671,1.972,-20.984,-140.955,-12.127,-10.207,-8.153,26.67,-0.33157,0.16595,0.07697,0.92548,472,0.438,-0.027,0.895,-1.282,0.061,-0.793,-2.153,-26.071,166.866,-12.107,-9.713,-32.053,31.13,-0.11292,-0.22156,0.04193,-0.96762,474,0.781,0.182,0.575,0.122,0.671,-0.549,17.501,-52.092,-164.026,-23.787,-14.393,-11.313,32.53,-0.19379,0.41068,0.19623,0.86902,476
119,0.915,0.082,0.438,0.061,0.366,-0.061,10.607,-63.935,160.615,-23.887,-11.593,-13.307,29.93,0.09213,0.53357,-0.01123,0.84058,481,0.36,0.03,0.935,-0.427,0.061,-0.366,1.967,-20.984,-140.949,-12.127,-10.207,-8.153,26.67,-0.33157,0.16595,0.07697,0.92548,473,0.436,-0.029,0.895,-0.977,-0.305,-0.793,-2.164,-26.076,166.888,-12.107,-9.713,-32.053,31.13,-0.11292,-0.22156,0.04193,-0.96762,475,0.783,0.182,0.574,-0.122,0.549,-0.305,17.507,-52.081,-164.075,-23.787,-14.393,-11.313,32.53,-0.19379,0.41068,0.19623,0.86902,477
120,0.913,0.083,0.438,0.061,0.427,0.0,10.607,-63.929,160.604,-23.887,-11.593,-13.307,29.93,0.09213,0.53357,-0.01123,0.84058,486,0.359,0.03,0.936,-0.61,0.0,-0.488,1.956,-20.984,-140.955,-12.127,-10.207,-8.153,26.67,-0.33157,0.16595,0.07697,0.92548,478,0.434,-0.028,0.893,-0.732,-0.305,-0.732,-2.17,-26.082,166.882,-12.107,-9.713,-32.053,31.13,-0.11292,-0.22156,0.04193,-0.96762,488,0.782,0.184,0.576,-0.366,0.366,-0.183,17.501,-52.081,-164.108,-23.787,-14.393,-11.313,32.53,-0.18887,0.4108,0.19534,0.87024,482
121,0.914,0.083,0.438,0.0,0.305,0.0,10.602,-63.924,160.598,-23.887,-11.593,-13.307,29.93,0.09213,0.53357,-0.01123,0.84058,487,0.357,0.03,0.935,-0.244,0.183,-0.488,1.956,-20.984,-140.938,-12.127,-10.207,-8.153,26.67,-0.33157,0.16595,0.07697,0.92548,479,0.435,-0.031,0.894,-0.549,-0.305,-0.671,-2.175,-26.087,166.866,-12.107,-9.713,-32.053,31.13,-0.11292,-0.22156,0.04193,-0.96762,489,0.779,0.183,0.576,-0.183,0.305,-0.061,17.496,-52.075,-164.125,-23.787,-14.393,-11.313,32.53,-0.18887,0.4108,0.19534,0.87024,483
122,0.915,0.082,0.44,0.0,0.305,0.0,10.602,-63.918,160.598,-23.887,-11.593,-13.307,29.93,0.09213,0.53357,-0.01123,0.84058,496,0.355,0.028,0.934,-0.122,0.183,-0.427,1.95,-20.978,-140.922,-12.127,-10.207,-8.153,26.67,-0.33157,0.16595,0.07697,0.92548,484,0.436,-0.029,0.895,-0.61,0.0,-0.854,-2.175,-26.087,166.844,-12.107,-9.713,-32.053,31.13,-0.11292,-0.22156,0.04193,-0.96762,490,0.779,0.181,0.577,0.0,0.366,-0.122,17.496,-52.07,-164.141,-23.787,-14.393,-11.313,32.53,-0.18887,0.4108,0.19534,0.87024,492
123,0.914,0.08,0.441,0.0,0.244,0.0,10.596,-63.918,160.576,-23.887,-11.593,-13.307,29.93,0.09213,0.53357,-0.01123,0.84058,497,0.357,0.028,0.936,-0.122,0.061,-0.366,1.95,-20.978,-140.905,-12.127,-10.207,-8.153,26.67,-0.33157,0.16595,0.07697,0.92548,485,0.435,-0.03,0.895,0.0,0.061,-0.549,-2.17,-26.087,166.833,-12.107,-9.713,-32.053,31.13,-0.11292,-0.22156,0.04193,-0.96762,491,0.781,0.182,0.578,-0.122,0.305,-0.183,17.496,-52.07,-164.152,-23.787,-14.393,-11.313,32.53,-0.18887,0.4108,0.19534,0.87024,493
124,0.914,0.079,0.439,0.183,0.122,0.061,10.596,-63.913,160.565,-23.887,-11.593,-13.307,29.93,0.09213,0.53357,-0.01123,0.84058,502,0.358,0.028,0.937,0.0,0.0,-0.305,1.95,-20.978,-140.878,-12.127,-10.207,-8.153,26.67,-0.33157,0.16595,0.07697,0.92548,494,0.436,-0.032,0.895,0.183,0.0,-0.244,-2.159,-26.087,166.827,-12.107,-9.713,-32.053,31.13,-0.11292,-0.22156,0.04193,-0.96762,504,0.782,0.18,0.579,-0.122,0.244,-0.061,17.496,-52.064,-164.169,-23.787,-14.393,-11.313,32.53,-0.18887,0.4108,0.19534,0.87024,498
125,0.915,0.08,0.439,0.244,0.122,0.122,10.596,-63.913,160.576,-23.887,-11.593,-13.307,29.93,0.09213,0.53357,-0.01123,0.84058,503,0.357,0.024,0.937,0.305,0.0,0.0,1.956,-20.978,-140.85,-12.127,-10.207,-8.153,26.67,-0.33157,0.16595,0.07697,0.92548,495,0.436,-0.028,0.895,0.427,-0.183,0.061,-2.148,-26.087,166.838,-12.107,-9.713,-32.053,31.13,-0.11292,-0.22156,0.04193,-0.96762,505,0.781,0.177,0.579,0.0,0.305,-0.061,17.49,-52.059,-164.18,-23.787,-14.393,-11.313,32.53,-0.18887,0.4108,0.19534,0.87024,499
126,0.914,0.08,0.439,0.183,0.0,0.122,10.591,-63.918,160.571,-24.093,-11.613,-13.653,29.93,0.09213,0.53357,-0.01123,0.84058,508,0.357,0.025,0.935,0.427,0.0,0.122,1.961,-20.978,-140.828,-12.127,-10.207,-8.153,26.67,-0.33157,0.16595,0.07697,0.92548,500,0.434,-0.031,0.893,0.305,-0.366,0.122,-2.142,-26.093,166.86,-12.98,-9.933,-31.74,31.13,-0.11292,-0.22156,0.04193,-0.96762,510,0.781,0.178,0.579,0.183,0.366,0.0,17.49,-52.059,-164.18,-23.787,-14.393,-11.313,32.53,-0.18887,0.4108,0.19534,0.87024,506
127,0.914,0.08,0.438,0.061,-0.122,0.0,10.591,-63.918,160.56,-24.093,-11.613,-13.653,29.93,0.09213,0.53357,-0.01123,0.84058,509,0.358,0.028,0.936,0.305,0.0,0.244,1.961,-20.978,-140.817,-12.127,-10.207,-8.153,26.67,-0.33157,0.16595,0.07697,0.92548,501,0.436,-0.036,0.894,0.305,0.061,0.061,-2.131,-26.093,166.899,-12.98,-9.933,-31.74,31.13,-0.11292,-0.22156,0.04193,-0.96762,511,0.78,0.181,0.578,0.244,0.305,0.0,17.49,-52.053,-164.163,-23.787,-14.393,-11.313,32.53,-0.18887,0.4108,0.19534,0.87024,507
128,0.915,0.08,0.438,0.0,-0.183,0.0,10.591,-63.924,160.543,-24.093,-11.613,-13.653,29.93,0.09213,0.53357,-0.01123,0.84058,516,0.356,0.027,0.935,0.305,-0.122,0.366,1.961,-20.984,-140.817,-12.127,-10.207,-8.153,26.67,-0.33157,0.16595,0.07697,0.92548,514,0.437,-0.032,0.894,0.061,0.122,-0.244,-2.126,-26.093,166.921,-12.98,-9.933,-31.74,31.13,-0.11292,-0.22156,0.04193,-0.96762,518,0.781,0.181,0.578,0.061,0.061,0.0,17.49,-52.053,-164.158,-23.787,-14.393,-11.313,32.53,-0.18887,0.4108,0.19534,0.87024,512
129,0.917,0.079,0.438,-0.061,-0.183,0.0,10.591,-63.929,160.538,-24.093,-11.613,-13.653,29.93,0.09213,0.53357,-0.01123,0.84058,517,0.36,0.024,0.936,0.183,-0.183,0.122,1.961,-20.984,-140.828,-12.127,-10.207,-8.153,26.67,-0.33157,0.16595,0.07697,0.92548,515,0.438,-0.031,0.892,0.366,0.0,-0.244,-2.115,-26.087,166.932,-12.98,-9.933,-31.74,31.13,-0.11292,-0.22156,0.04193,-0.96762,519,0.783,0.179,0.576,-0.122,-0.061,0.0,17.485,-52.059,-164.147,-23.787,-14.393,-11.313,32.53,-0.18887,0.4108,0.19534,0.87024,513
130,0.917,0.081,0.438,-0.061,-0.183,0.0,10.585,-63.935,160.538,-24.093,-11.613,-13.653,29.93,0.09457,0.53278,-0.0119,0.84082,526,0.362,0.025,0.934,0.427,-0.122,0.183,1.961,-20.989,-140.828,-12.127,-10.207,-8.153,26.67,-0.33157,0.16595,0.07697,0.92548,520,0.441,-0.03,0.891,1.099,0.0,0.061,-2.098,-26.087,166.943,-12.98,-9.933,-31.74,31.13,-0.11493,-0.22214,0.04355,-0.96719,528,0.786,0.18,0.577,-0.061,0.0,0.0,17.485,-52.059,-164.125,-23.787,-14.393,-11.313,32.53,-0.18887,0.4108,0.19534,0.87024,522
131,0.914,0.08,0.438,0.0,-0.122,-0.122,10.585,-63.935,160.527,-24.093,-11.613,-13.653,29.93,0.09457,0.53278,-0.0119,0.84082,527,0.361,0.027,0.933,0.916,0.183,0.366,1.967,-20.989,-140.817,-12.127,-10.207,-8.153,26.67,-0.33157,0.16595,0.07697,0.92548,521,0.438,-0.031,0.89,0.977,0.183,0.244,-2.082,-26.087,166.926,-12.98,-9.933,-31.74,31.13,-0.11493,-0.22214,0.04355,-0.96719,529,0.782,0.18,0.576,-0.061,0.061,0.0,17.479,-52.059,-164.103,-23.787,-14.393,-11.313,32.53,-0.18887,0.4108,0.19534,0.87024,523
132,0.917,0.081,0.436,0.0,-0.122,-0.183,10.591,-63.94,160.499,-24.093,-11.613,-13.653,29.93,0.09457,0.53278,-0.0119,0.84082,538,0.358,0.027,0.932,0.854,0.427,0.366,1.978,-20.984,-140.806,-12.213,-10.213,-8.9,26.67,-0.33157,0.16595,0.07697,0.92548,524,0.437,-0.03,0.891,0.732,0.366,0.305,-2.065,-26.082,166.926,-12.98,-9.933,-31.74,31.13,-0.11493,-0.22214,0.04355,-0.96719,530,0.78,0.18,0.573,-0.244,0.244,0.0,17.474,-52.064,-164.092,-23.787,-14.393,-11.313,32.53,-0.18887,0.4108,0.19534,0.87024,532
133,0.921,0.08,0.436,0.0,-0.122,-0.122,10.596,-63.94,160.488,-24.093,-11.613,-13.653,29.93,0.09457,0.53278,-0.0119,0.84082,539,0.36,0.028,0.932,0.916,0.122,0.427,1.989,-20.978,-140.784,-12.213,-10.213,-8.9,26.67,-0.33157,0.16595,0.07697,0.92548,525,0.442,-0.027,0.894,1.404,0.549,0.488,-2.043,-26.071,166.937,-12.98,-9.933,-31.74,31.13,-0.11493,-0.22214,0.04355,-0.96719,531,0.784,0.18,0.574,-0.671,0.305,0.0,17.468,-52.059,-164.092,-23.787,-14.393,-11.313,32.53,-0.18887,0.4108,0.19534,0.87024,533
134,0.92,0.081,0.436,0.0,-0.061,-0.061,10.596,-63.946,160.505,-24.093,-11.613,-13.653,29.93,0.09457,0.53278,-0.0119,0.84082,540,0.364,0.03,0.935,1.77,0.0,0.854,2.0,-20.978,-140.751,-12.213,-10.213,-8.9,26.67,-0.33157,0.16595,0.07697,0.92548,536,0.438,-0.021,0.896,2.808,1.099,0.854,-2.01,-26.054,166.948,-12.98,-9.933,-31.74,31.13,-0.11493,-0.22214,0.04355,-0.96719,542,0.788,0.181,0.574,-0.549,0.305,0.061,17.452,-52.059,-164.086,-23.787,-14.393,-11.313,32.53,-0.18887,0.4108,0.19534,0.87024,534
135,0.914,0.083,0.435,0.061,0.061,0.0,10.596,-63.946,160.51,-24.093,-11.613,-13.653,29.93,0.09457,0.53278,-0.0119,0.84082,541,0.362,0.034,0.938,2.93,0.183,1.221,2.032,-20.978,-140.718,-12.213,-10.213,-8.9,26.67,-0.33157,0.16595,0.07697,0.92548,537,0.438,-0.026,0.898,3.357,1.099,1.648,-1.956,-26.032,166.965,-12.98,-9.933,-31.74,31.13,-0.11493,-0.22214,0.04355,-0.96719,543,0.782,0.183,0.576,-0.305,0.366,0.244,17.435,-52.053,-164.075,-23.787,-14.393,-11.313,32.53,-0.18887,0.4108,0.19534,0.87024,535
136,0.914,0.085,0.436,-0.122,0.061,0.122,10.591,-63.951,160.521,-24.093,-11.613,-13.653,29.93,0.09457,0.53278,-0.0119,0.84082,550,0.36,0.032,0.938,2.747,0.061,1.343,2.076,-20.978,-140.685,-12.213,-10.213,-8.9,26.67,-0.33377,0.16541,0.078,0.92468,544,0.437,-0.029,0.892,1.526,0.977,0.916,-1.917,-26.01,166.992,-12.98,-9.933,-31.74,31.13,-0.11493,-0.22214,0.04355,-0.96719,552,0.778,0.186,0.573,-0.244,0.549,0.122,17.419,-52.053,-164.059,-23.787,-14.393,-11.313,32.53,-0.18887,0.4108,0.19534,0.87024,546
137,0.915,0.082,0.438,-0.122,-0.061,0.183,10.585,-63.951,160.532,-24.093,-11.613,-13.653,29.93,0.09457,0.53278,-0.0119,0.84082,551,0.36,0.033,0.931,2.075,-0.244,0.977,2.115,-20.978,-140.669,-12.213,-10.213,-8.9,26.67,-0.33377,0.16541,0.078,0.92468,545,0.434,-0.03,0.89,2.258,0.61,0.671,-1.89,-25.994,167.014,-12.98,-9.933,-31.74,31.13,-0.11493,-0.22214,0.04355,-0.96719,553,0.781,0.185,0.58,-0.488,0.183,0.305,17.408,-52.048,-164.059,-23.787,-14.393,-11.313,32.53,-0.18887,0.4108,0.19534,0.87024,547
138,0.92,0.078,0.439,0.0,-0.244,0.061,10.58,-63.957,160.56,-24.093,-11.613,-13.653,29.93,0.09457,0.53278,-0.0119,0.84082,556,0.363,0.024,0.931,2.075,-0.122,0.793,2.148,-20.984,-140.652,-12.213,-10.213,-8.9,26.67,-0.33377,0.16541,0.078,0.92468,548,0.44,-0.04,0.892,1.892,1.16,0.549,-1.851,-25.977,167.031,-12.98,-9.933,-31.74,31.13,-0.11493,-0.22214,0.04355,-0.96719,558,0.785,0.176,0.578,-0.366,0.244,0.305,17.391,-52.048,-164.048,-24.053,-14.613,-11.1,32.53,-0.18887,0.4108,0.19534,0.87024,554
139,0.916,0.079,0.44,0.366,-0.061,-0.061,10.585,-63.962,160.571,-24.093,-11.613,-13.653,29.93,0.09457,0.53278,-0.0119,0.84082,557,0.362,0.022,0.932,2.075,0.0,0.61,2.175,-20.989,-140.641,-12.213,-10.213,-8.9,26.67,-0.33377,0.16541,0.078,0.92468,549,0.43,-0.027,0.895,1.404,0.793,0.061,-1.824,-25.961,167.025,-12.98,-9.933,-31.74,31.13,-0.11493,-0.22214,0.04355,-0.96719,559,0.783,0.175,0.58,-0.305,0.244,0.183,17.375,-52.048,-164.026,-24.053,-14.613,-11.1,32.53,-0.18887,0.4108,0.19534,0.87024,555
140,0.914,0.082,0.438,0.305,0.183,-0.244,10.596,-63.962,160.538,-24.093,-11.613,-13.653,29.93,0.09457,0.53278,-0.0119,0.84082,560,0.357,0.028,0.934,1.77,0.366,0.488,2.208,-20.989,-140.636,-12.213,-10.213,-8.9,26.67,-0.33377,0.16541,0.078,0.92468,566,0.434,-0.032,0.898,1.587,0.061,0.488,-1.796,-25.955,167.025,-12.98,-9.933,-31.74,31.13,-0.11493,-0.22214,0.04355,-0.96719,562,0.78,0.179,0.576,-0.061,0.427,0.0,17.364,-52.048,-164.015,-24.053,-14.613,-11.1,32.53,-0.18887,0.4108,0.19534,0.87024,564
141,0.912,0.084,0.44,0.183,-0.061,-0.366,10.613,-63.962,160.488,-24.093,-11.613,-13.653,29.93,0.09457,0.53278,-0.0119,0.84082,561,0.357,0.029,0.937,1.831,0.183,0.366,2.23,-20.984,-140.63,-12.213,-10.213,-8.9,26.67,-0.33377,0.16541,0.078,0.92468,567,0.433,-0.021,0.895,0.61,0.366,-0.061,-1.78,-25.95,167.031,-12.98,-9.933,-31.74,31.13,-0.11493,-0.22214,0.04355,-0.96719,563,0.778,0.181,0.579,-0.183,0.244,-0.061,17.364,-52.042,-164.009,-24.053,-14.613,-11.1,32.53,-0.18887,0.4108,0.19534,0.87024,565
142,0.912,0.084,0.438,0.0,-0.122,-0.244,10.629,-63.962,160.477,-24.093,-11.613,-13.653,29.93,0.09457,0.53278,-0.0119,0.84082,574,0.357,0.037,0.934,0.671,0.305,-0.061,2.252,-20.984,-140.625,-12.213,-10.213,-8.9,26.67,-0.33377,0.16541,0.078,0.92468,568,0.429,-0.03,0.894,0.732,0.0,-0.183,-1.763,-25.944,167.031,-12.98,-9.933,-31.74,31.13,-0.11493,-0.22214,0.04355,-0.96719,576,0.777,0.183,0.581,-0.427,0.122,-0.061,17.358,-52.042,-164.004,-24.053,-14.613,-11.1,32.53,-0.18912,0.41061,0.19464,0.87042,570
143,0.912,0.079,0.44,-0.061,-0.366,-0.061,10.635,-63.968,160.472,-24.093,-11.613,-13.653,29.93,0.09457,0.53278,-0.0119,0.84082,575,0.355,0.028,0.932,0.549,0.0,-0.244,2.263,-20.978,-140.614,-12.213,-10.213,-8.9,26.67,-0.33377,0.16541,0.078,0.92468,569,0.435,-0.026,0.889,-0.366,0.793,-0.427,-1.758,-25.939,167.009,-12.98,-9.933,-31.74,31.13,-0.11493,-0.22214,0.04355,-0.96719,577,0.778,0.179,0.581,-0.244,0.122,-0.122,17.347,-52.042,-163.998,-24.053,-14.613,-11.1,32.53,-0.18912,0.41061,0.19464,0.87042,571
144,0.916,0.076,0.439,0.0,-0.549,0.0,10.635,-63.979,160.45,-23.973,-11.62,-13.56,29.93,0.09457,0.53278,-0.0119,0.84082,580,0.357,0.03,0.933,0.061,0.122,-0.305,2.269,-20.978,-140.62,-12.213,-10.213,-8.9,26.67,-0.33377,0.16541,0.078,0.92468,572,0.428,-0.021,0.892,0.0,0.977,0.061,-1.763,-25.922,166.992,-12.533,-9.493,-32.24,31.13,-0.11493,-0.22214,0.04355,-0.96719,582,0.779,0.171,0.582,-0.183,0.0,-0.122,17.347,-52.042,-163.993,-24.053,-14.613,-11.1,32.53,-0.18912,0.41061,0.19464,0.87042,578
145,0.919,0.075,0.438,0.122,-0.549,-0.061,10.64,-63.99,160.417,-23.973,-11.62,-13.56,29.93,0.09457,0.53278,-0.0119,0.84082,581,0.355,0.031,0.931,0.0,0.183,0.183,2.263,-20.978,-140.63,-12.213,-10.213,-8.9,26.67,-0.33377,0.16541,0.078,0.92468,573,0.436,-0.027,0.899,0.549,0.61,0.366,-1.758,-25.906,166.976,-12.533,-9.493,-32.24,31.13,-0.11493,-0.22214,0.04355,-0.96719,583,0.782,0.172,0.578,-0.122,0.183,-0.061,17.342,-52.042,-163.982,-24.053,-14.613,-11.1,32.53,-0.18912,0.41061,0.19464,0.87042,579
146,0.92,0.078,0.437,0.305,-0.488,-0.061,10.646,-64.001,160.4,-23.973,-11.62,-13.56,29.93,0.09457,0.53278,-0.0119,0.84082,586,0.361,0.028,0.938,0.732,-0.183,0.549,2.258,-20.978,-140.636,-12.213,-10.213,-8.9,26.67,-0.33377,0.16541,0.078,0.92468,584,0.44,-0.021,0.898,1.16,0.427,0.671,-1.747,-25.895,166.987,-12.533,-9.493,-32.24,31.13,-0.11493,-0.22214,0.04355,-0.96719,588,0.784,0.174,0.576,-0.122,0.244,0.0,17.336,-52.037,-163.976,-24.053,-14.613,-11.1,32.53,-0.18912,0.41061,0.19464,0.87042,590
147,0.917,0.081,0.435,0.305,-0.366,0.122,10.646,-64.006,160.389,-23.973,-11.62,-13.56,29.93,0.09457,0.53278,-0.0119,0.84082,587,0.364,0.036,0.935,1.221,0.0,0.793,2.269,-20.978,-140.641,-12.213,-10.213,-8.9,26.67,-0.33377,0.16541,0.078,0.92468,585,0.438,-0.019,0.893,0.183,-0.183,0.732,-1.736,-25.889,167.02,-12.533,-9.493,-32.24,31.13,-0.11493,-0.22214,0.04355,-0.96719,589,0.785,0.179,0.577,0.0,0.244,0.061,17.331,-52.037,-163.96,-24.053,-14.613,-11.1,32.53,-0.18912,0.41061,0.19464,0.87042,591
148,0.918,0.079,0.433,0.305,-0.427,0.244,10.646,-64.017,160.384,-23.973,-11.62,-13.56,29.93,0.09528,0.53339,-0.01227,0.84033,598,0.36,0.038,0.933,0.427,0.183,0.793,2.274,-20.978,-140.641,-12.213,-10.213,-8.9,26.67,-0.33377,0.16541,0.078,0.92468,592,0.433,-0.017,0.9,-0.488,-0.732,1.16,-1.747,-25.9,167.058,-12.533,-9.493,-32.24,31.13,-0.1134,-0.22089,0.03998,-0.9678,600,0.782,0.181,0.576,0.0,0.366,0.183,17.32,-52.031,-163.949,-24.053,-14.613,-11.1,32.53,-0.18912,0.41061,0.19464,0.87042,594
149,0.92,0.079,0.432,0.183,-0.61,0.427,10.635,-64.034,160.389,-23.973,-11.62,-13.56,29.93,0.09528,0.53339,-0.01227,0.84033,599,0.36,0.037,0.936,0.305,-0.122,1.099,2.274,-20.978,-140.63,-12.213,-10.213,-8.9,26.67,-0.33377,0.16541,0.078,0.92468,593,0.435,-0.022,0.901,1.282,-0.854,1.465,-1.752,-25.917,167.102,-12.533,-9.493,-32.24,31.13,-0.1134,-0.22089,0.03998,-0.9678,601,0.783,0.178,0.575,-0.061,0.244,0.427,17.309,-52.031,-163.927,-24.053,-14.613,-11.1,32.53,-0.18912,0.41061,0.19464,0.87042,595
150,0.917,0.085,0.433,0.122,-0.305,0.366,10.624,-64.045,160.389,-23.973,-11.62,-13.56,29.93,0.09528,0.53339,-0.01227,0.84033,604,0.363,0.036,0.938,1.221,-0.671,1.404,2.274,-20.984,-140.625,-12.127,-10.44,-9.253,26.67,-0.33377,0.16541,0.078,0.92468,596,0.438,-0.026,0.896,1.465,-0.427,1.221,-1.73,-25.928,167.151,-12.533,-9.493,-32.24,31.13,-0.1134,-0.22089,0.03998,-0.9678,606,0.783,0.183,0.575,-0.061,0.183,0.549,17.292,-52.037,-163.9,-24.053,-14.613,-11.1,32.53,-0.18912,0.41061,0.19464,0.87042,602
151,0.918,0.083,0.433,0.061,-0.305,0.305,10.613,-64.05,160.395,-23.973,-11.62,-13.56,29.93,0.09528,0.53339,-0.01227,0.84033,605,0.364,0.035,0.934,1.526,-0.61,1.16,2.285,-21.0,-140.62,-12.127,-10.44,-9.253,26.67,-0.33377,0.16541,0.078,0.92468,597,0.438,-0.03,0.893,0.732,-1.282,0.793,-1.719,-25.944,167.195,-12.533,-9.493,-32.24,31.13,-0.1134,-0.22089,0.03998,-0.9678,607,0.783,0.185,0.574,0.0,0.183,0.488,17.276,-52.037,-163.878,-24.053,-14.613,-11.1,32.53,-0.18912,0.41061,0.19464,0.87042,603
152,0.917,0.081,0.434,0.0,-0.061,0.183,10.602,-64.056,160.389,-23.973,-11.62,-13.56,29.93,0.09528,0.53339,-0.01227,0.84033,616,0.362,0.031,0.93,1.221,-0.549,0.732,2.302,-21.011,-140.62,-12.127,-10.44,-9.253,26.67,-0.33377,0.16541,0.078,0.92468,608,0.434,-0.018,0.893,-0.488,-2.197,0.854,-1.725,-25.977,167.223,-12.533,-9.493,-32.24,31.13,-0.1134,-0.22089,0.03998,-0.9678,610,0.782,0.181,0.575,-0.244,0.305,0.427,17.265,-52.037,-163.85,-24.053,-14.613,-11.1,32.53,-0.18912,0.41061,0.19464,0.87042,612
153,0.92,0.078,0.436,0.244,-0.061,0.427,10.591,-64.061,160.395,-23.973,-11.62,-13.56,29.93,0.09528,0.53339,-0.01227,0.84033,617,0.359,0.035,0.931,0.488,-0.549,0.61,2.318,-21.028,-140.647,-12.127,-10.44,-9.253,26.67,-0.33377,0.16541,0.078,0.92468,609,0.437,-0.021,0.894,0.549,-2.38,1.465,-1.73,-26.021,167.245,-12.533,-9.493,-32.24,31.13,-0.1134,-0.22089,0.03998,-0.9678,611,0.781,0.176,0.575,-0.427,0.366,0.427,17.243,-52.037,-163.828,-24.053,-14.613,-11.1,32.53,-0.18912,0.41061,0.19464,0.87042,613
154,0.919,0.085,0.438,0.366,0.0,0.366,10.585,-64.067,160.406,-23.973,-11.62,-13.56,29.93,0.09528,0.53339,-0.01227,0.84033,622,0.363,0.036,0.933,1.038,-0.549,1.038,2.318,-21.039,-140.658,-12.127,-10.44,-9.253,26.67,-0.3345,0.16501,0.08011,0.92432,614,0.44,-0.035,0.895,1.892,-1.953,1.526,-1.719,-26.06,167.272,-12.533,-9.493,-32.24,31.13,-0.1134,-0.22089,0.03998,-0.9678,624,0.784,0.178,0.577,-0.183,0.549,0.671,17.221,-52.037,-163.795,-24.053,-14.613,-11.1,32.53,-0.18912,0.41061,0.19464,0.87042,618
155,0.915,0.085,0.438,0.183,0.183,-0.061,10.591,-64.061,160.395,-23.973,-11.62,-13.56,29.93,0.09528,0.53339,-0.01227,0.84033,623,0.367,0.027,0.937,2.014,-0.244,1.099,2.335,-21.05,-140.658,-12.127,-10.44,-9.253,26.67,-0.3345,0.16501,0.08011,0.92432,615,0.441,-0.031,0.887,0.488,-0.366,0.732,-1.708,-26.082,167.305,-12.533,-9.493,-32.24,31.13,-0.1134,-0.22089,0.03998,-0.9678,625,0.783,0.185,0.581,0.0,0.366,0.488,17.205,-52.037,-163.768,-24.053,-14.613,-11.1,32.53,-0.18912,0.41061,0.19464,0.87042,619
156,0.911,0.084,0.438,0.061,0.244,-0.122,10.596,-64.061,160.378,-23.973,-11.62,-13.56,29.93,0.09528,0.53339,-0.01227,0.84033,628,0.36,0.035,0.932,1.587,0.244,0.366,2.362,-21.055,-140.641,-12.127,-10.44,-9.253,26.67,-0.3345,0.16501,0.08011,0.92432,620,0.429,-0.021,0.888,-0.732,-0.549,0.061,-1.714,-26.093,167.322,-12.533,-9.493,-32.24,31.13,-0.1134,-0.22089,0.03998,-0.9678,630,0.778,0.182,0.582,0.0,0.122,0.244,17.194,-52.037,-163.746,-24.02,-13.633,-10.92,32.53,-0.18912,0.41061,0.19464,0.87042,626
157,0.912,0.083,0.438,0.0,0.122,0.0,10.596,-64.061,160.373,-23.973,-11.62,-13.56,29.93,0.09528,0.53339,-0.01227,0.84033,629,0.353,0.038,0.926,0.0,0.366,-0.183,2.379,-21.05,-140.641,-12.127,-10.44,-9.253,26.67,-0.3345,0.16501,0.08011,0.92432,621,0.432,-0.023,0.891,-0.977,-1.099,-0.244,-1.73,-26.109,167.322,-12.533,-9.493,-32.24,31.13,-0.1134,-0.22089,0.03998,-0.9678,631,0.774,0.179,0.582,0.0,0.122,0.183,17.194,-52.037,-163.729,-24.02,-13.633,-10.92,32.53,-0.18912,0.41061,0.19464,0.87042,627
158,0.914,0.082,0.438,0.0,0.0,0.061,10.596,-64.061,160.362,-23.973,-11.62,-13.56,29.93,0.09528,0.53339,-0.01227,0.84033,640,0.355,0.035,0.932,-0.366,0.305,-0.305,2.379,-21.044,-140.652,-12.127,-10.44,-9.253,26.67,-0.3345,0.16501,0.08011,0.92432,632,0.435,-0.027,0.892,0.0,-0.61,-0.183,-1.736,-26.125,167.333,-12.533,-9.493,-32.24,31.13,-0.1134,-0.22089,0.03998,-0.9678,634,0.776,0.178,0.581,-0.122,0.122,0.244,17.188,-52.037,-163.713,-24.02,-13.633,-10.92,32.53,-0.18912,0.41061,0.19464,0.87042,636
159,0.918,0.079,0.439,0.0,0.0,0.0,10.596,-64.061,160.356,-23.973,-11.62,-13.56,29.93,0.09528,0.53339,-0.01227,0.84033,641,0.361,0.029,0.933,0.305,0.305,-0.061,2.373,-21.039,-140.669,-12.127,-10.44,-9.253,26.67,-0.3345,0.16501,0.08011,0.92432,633,0.439,-0.035,0.892,0.427,0.366,-0.305,-1.725,-26.125,167.322,-12.533,-9.493,-32.24,31.13,-0.1134,-0.22089,0.03998,-0.9678,635,0.781,0.175,0.582,0.0,0.122,0.244,17.177,-52.037,-163.696,-24.02,-13.633,-10.92,32.53,-0.18912,0.41061,0.19464,0.87042,637
160,0.92,0.077,0.439,0.0,0.0,-0.122,10.602,-64.061,160.34,-24.26,-11.833,-13.433,29.93,0.09528,0.53339,-0.01227,0.84033,644,0.363,0.024,0.934,0.671,0.122,0.061,2.373,-21.033,-140.674,-12.127,-10.44,-9.253,26.67,-0.3345,0.16501,0.08011,0.92432,638,0.441,-0.033,0.895,0.488,0.549,-0.366,-1.714,-26.115,167.3,-12.533,-9.493,-32.24,31.13,-0.1134,-0.22089,0.03998,-0.9678,650,0.786,0.17,0.581,0.0,0.122,0.0,17.172,-52.037,-163.685,-24.02,-13.633,-10.92,32.53,-0.1908,0.41034,0.19434,0.87024,642
161,0.918,0.077,0.435,0.0,0.0,-0.183,10.607,-64.061,160.323,-24.26,-11.833,-13.433,29.93,0.09528,0.53339,-0.01227,0.84033,645,0.363,0.026,0.936,0.793,0.122,0.061,2.384,-21.033,-140.68,-12.127,-10.44,-9.253,26.67,-0.3345,0.16501,0.08011,0.92432,639,0.441,-0.025,0.896,-0.122,0.488,-0.488,-1.708,-26.104,167.283,-12.533,-9.493,-32.24,31.13,-0.1134,-0.22089,0.03998,-0.9678,651,0.784,0.172,0.581,-0.061,0.122,-0.122,17.172,-52.037,-163.68,-24.02,-13.633,-10.92,32.53,-0.1908,0.41034,0.19434,0.87024,643
162,0.917,0.077,0.433,0.122,0.0,0.0,10.607,-64.061,160.312,-24.26,-11.833,-13.433,29.93,0.09528,0.53339,-0.01227,0.84033,648,0.363,0.033,0.934,0.427,0.122,0.0,2.39,-21.033,-140.691,-12.127,-10.44,-9.253,26.67,-0.3345,0.16501,0.08011,0.92432,646,0.44,-0.023,0.894,0.122,-0.061,-0.244,-1.703,-26.098,167.25,-12.533,-9.493,-32.24,31.13,-0.1134,-0.22089,0.03998,-0.9678,652,0.783,0.174,0.578,0.122,0.183,-0.122,17.172,-52.037,-163.674,-24.02,-13.633,-10.92,32.53,-0.1908,0.41034,0.19434,0.87024,654
163,0.917,0.078,0.433,0.061,-0.122,0.061,10.602,-64.067,160.307,-24.26,-11.833,-13.433,29.93,0.09528,0.53339,-0.01227,0.84033,649,0.363,0.035,0.933,0.305,0.0,0.061,2.395,-21.033,-140.702,-12.127,-10.44,-9.253,26.67,-0.3345,0.16501,0.08011,0.92432,647,0.438,-0.025,0.892,0.0,0.0,0.0,-1.703,-26.098,167.217,-12.533,-9.493,-32.24,31.13,-0.1134,-0.22089,0.03998,-0.9678,653,0.782,0.175,0.577,0.305,0.183,-0.061,17.172,-52.031,-163.669,-24.02,-13.633,-10.92,32.53,-0.1908,0.41034,0.19434,0.87024,655
164,0.919,0.076,0.433,0.0,-0.183,0.061,10.596,-64.072,160.296,-24.26,-11.833,-13.433,29.93,0.09604,0.53375,-0.01312,0.84003,664,0.364,0.032,0.932,0.183,-0.183,0.244,2.39,-21.033,-140.707,-12.127,-10.44,-9.253,26.67,-0.3345,0.16501,0.08011,0.92432,656,0.441,-0.029,0.891,-0.061,0.305,0.0,-1.703,-26.093,167.179,-12.533,-9.493,-32.24,31.13,-0.1134,-0.22089,0.03998,-0.9678,658,0.783,0.175,0.575,0.122,0.061,0.0,17.177,-52.031,-163.663,-24.02,-13.633,-10.92,32.53,-0.1908,0.41034,0.19434,0.87024,660
165,0.919,0.076,0.434,0.061,-0.122,0.061,10.591,-64.072,160.291,-24.26,-11.833,-13.433,29.93,0.09604,0.53375,-0.01312,0.84003,665,0.365,0.032,0.931,0.183,-0.305,0.244,2.39,-21.044,-140.713,-12.127,-10.44,-9.253,26.67,-0.3345,0.16501,0.08011,0.92432,657,0.44,-0.026,0.889,-0.366,0.244,-0.122,-1.708,-26.093,167.146,-12.533,-9.493,-32.24,31.13,-0.1134,-0.22089,0.03998,-0.9678,659,0.784,0.173,0.575,0.061,0.0,0.0,17.172,-52.037,-163.652,-24.02,-13.633,-10.92,32.53,-0.1908,0.41034,0.19434,0.87024,661
166,0.919,0.079,0.434,0.183,0.0,0.0,10.591,-64.078,160.285,-24.26,-11.833,-13.433,29.93,0.09604,0.53375,-0.01312,0.84003,668,0.364,0.033,0.929,-0.122,-0.183,0.183,2.384,-21.05,-140.713,-12.127,-10.44,-9.253,26.67,-0.3345,0.16501,0.08011,0.92432,662,0.438,-0.027,0.891,-1.038,0.0,-0.061,-1.725,-26.093,167.113,-12.533,-9.493,-32.24,31.13,-0.1134,-0.22089,0.03998,-0.9678,670,0.784,0.174,0.575,0.061,0.122,0.0,17.172,-52.037,-163.647,-24.02,-13.633,-10.92,32.53,-0.1908,0.41034,0.19434,0.87024,666
167,0.917,0.082,0.436,0.122,0.0,-0.061,10.591,-64.078,160.274,-24.26,-11.833,-13.433,29.93,0.09604,0.53375,-0.01312,0.84003,669,0.362,0.033,0.931,-0.366,-0.122,0.061,2.373,-21.055,-140.718,-12.127,-10.44,-9.253,26.67,-0.3345,0.16501,0.08011,0.92432,663,0.436,-0.027,0.894,-0.61,-0.366,-0.183,-1.741,-26.098,167.064,-12.533,-9.493,-32.24,31.13,-0.1134,-0.22089,0.03998,-0.9678,671,0.781,0.177,0.576,0.0,0.305,0.0,17.166,-52.037,-163.636,-24.02,-13.633,-10.92,32.53,-0.1908,0.41034,0.19434,0.87024,667
168,0.917,0.082,0.435,0.0,0.061,-0.061,10.591,-64.083,160.263,-24.26,-11.833,-13.433,29.93,0.09604,0.53375,-0.01312,0.84003,676,0.36,0.033,0.933,-0.183,-0.183,0.0,2.362,-21.061,-140.718,-12.153,-10.22,-8.733,26.67,-0.3345,0.16501,0.08011,0.92432,674,0.437,-0.027,0.896,-0.488,-0.366,-0.305,-1.747,-26.104,167.036,-12.4,-10.113,-32.86,31.13,-0.1134,-0.22089,0.03998,-0.9678,678,0.781,0.179,0.577,-0.183,0.427,0.0,17.155,-52.031,-163.625,-24.02,-13.633,-10.92,32.53,-0.1908,0.41034,0.19434,0.87024,672
169,0.916,0.081,0.437,0.0,0.061,-0.061,10.591,-64.083,160.252,-24.26,-11.833,-13.433,29.93,0.09604,0.53375,-0.01312,0.84003,677,0.361,0.032,0.936,-0.061,-0.305,-0.122,2.357,-21.066,-140.724,-12.153,-10.22,-8.733,26.67,-0.3345,0.16501,0.08011,0.92432,675,0.436,-0.025,0.895,-0.793,-0.183,-0.427,-1.758,-26.109,167.009,-12.4,-10.113,-32.86,31.13,-0.1134,-0.22089,0.03998,-0.9678,679,0.782,0.177,0.579,-0.427,0.427,-0.061,17.144,-52.031,-163.619,-24.02,-13.633,-10.92,32.53,-0.1908,0.41034,0.19434,0.87024,673
170,0.915,0.081,0.436,0.061,0.061,-0.061,10.591,-64.083,160.241,-24.26,-11.833,-13.433,29.93,0.09604,0.53375,-0.01312,0.84003,688,0.36,0.033,0.935,-0.122,-0.305,-0.061,2.351,-21.077,-140.735,-12.153,-10.22,-8.733,26.67,-0.33374,0.16544,0.08041,0.92447,680,0.435,-0.025,0.894,-0.793,-0.122,-0.244,-1.769,-26.115,166.992,-12.4,-10.113,-32.86,31.13,-0.1134,-0.22089,0.03998,-0.9678,692,0.78,0.176,0.581,-0.244,0.427,-0.183,17.139,-52.026,-163.614,-24.02,-13.633,-10.92,32.53,-0.1908,0.41034,0.19434,0.87024,682
171,0.913,0.081,0.436,0.244,0.0,0.0,10.596,-64.083,160.23,-24.26,-11.833,-13.433,29.93,0.09604,0.53375,-0.01312,0.84003,689,0.358,0.033,0.934,-0.061,-0.183,0.0,2.346,-21.083,-140.74,-12.153,-10.22,-8.733,26.67,-0.33374,0.16544,0.08041,0.92447,681,0.433,-0.022,0.893,-0.732,-0.244,-0.305,-1.78,-26.115,166.976,-12.4,-10.113,-32.86,31.13,-0.1134,-0.22089,0.03998,-0.9678,693,0.778,0.175,0.581,0.0,0.427,-0.122,17.133,-52.02,-163.603,-24.02,-13.633,-10.92,32.53,-0.1908,0.41034,0.19434,0.87024,683
172,0.916,0.083,0.437,0.305,-0.122,0.0,10.602,-64.089,160.225,-24.26,-11.833,-13.433,29.93,0.09604,0.53375,-0.01312,0.84003,690,0.356,0.034,0.932,-0.244,-0.061,0.0,2.34,-21.083,-140.74,-12.153,-10.22,-8.733,26.67,-0.33374,0.16544,0.08041,0.92447,684,0.435,-0.026,0.893,-0.427,-0.305,-0.183,-1.791,-26.12,166.965,-12.4,-10.113,-32.86,31.13,-0.11395,-0.22275,0.04068,-0.96729,694,0.775,0.178,0.58,0.061,0.427,-0.122,17.133,-52.009,-163.597,-24.02,-13.633,-10.92,32.53,-0.1908,0.41034,0.19434,0.87024,686
173,0.918,0.083,0.438,0.122,-0.244,-0.122,10.607,-64.094,160.208,-24.26,-11.833,-13.433,29.93,0.09604,0.53375,-0.01312,0.84003,691,0.359,0.033,0.934,-0.061,-0.061,-0.061,2.329,-21.088,-140.735,-12.153,-10.22,-8.733,26.67,-0.33374,0.16544,0.08041,0.92447,685,0.437,-0.025,0.895,-0.61,0.0,-0.549,-1.796,-26.12,166.954,-12.4,-10.113,-32.86,31.13,-0.11395,-0.22275,0.04068,-0.96729,695,0.78,0.18,0.582,0.061,0.305,-0.122,17.133,-52.009,-163.592,-24.02,-13.633,-10.92,32.53,-0.1908,0.41034,0.19434,0.87024,687
174,0.917,0.081,0.437,0.183,-0.244,-0.061,10.613,-64.1,160.197,-24.26,-11.833,-13.433,29.93,0.09604,0.53375,-0.01312,0.84003,700,0.361,0.035,0.935,0.0,-0.061,-0.305,2.329,-21.088,-140.74,-12.153,-10.22,-8.733,26.67,-0.33374,0.16544,0.08041,0.92447,698,0.436,-0.024,0.894,-0.061,0.061,-0.732,-1.791,-26.12,166.943,-12.4,-10.113,-32.86,31.13,-0.11395,-0.22275,0.04068,-0.96729,702,0.782,0.178,0.581,0.0,0.122,-0.122,17.133,-52.004,-163.586,-24.02,-13.633,-10.92,32.53,-0.1908,0.41034,0.19434,0.87024,696
175,0.915,0.083,0.436,0.061,0.0,-0.061,10.618,-64.1,160.186,-24.26,-11.833,-13.433,29.93,0.09604,0.53375,-0.01312,0.84003,701,0.361,0.033,0.934,0.0,0.0,-0.183,2.329,-21.088,-140.757,-12.153,-10.22,-8.733,26.67,-0.33374,0.16544,0.08041,0.92447,699,0.437,-0.03,0.894,-0.732,0.244,-0.366,-1.796,-26.115,166.926,-12.4,-10.113,-32.86,31.13,-0.11395,-0.22275,0.04068,-0.96729,703,0.779,0.177,0.581,0.122,0.183,-0.061,17.133,-52.004,-163.581,-24.02,-13.633,-10.92,32.53,-0.1908,0.41034,0.19434,0.87024,697
176,0.917,0.083,0.436,-0.061,0.0,0.0,10.618,-64.1,160.175,-24.26,-11.833,-13.433,29.93,0.09604,0.53375,-0.01312,0.84003,712,0.36,0.031,0.934,-0.183,-0.183,-0.122,2.324,-21.088,-140.773,-12.153,-10.22,-8.733,26.67,-0.33374,0.16544,0.08041,0.92447,704,0.439,-0.019,0.89,-0.671,0.183,-0.732,-1.802,-26.109,166.893,-12.4,-10.113,-32.86,31.13,-0.11395,-0.22275,0.04068,-0.96729,706,0.778,0.18,0.577,0.0,0.427,-0.305,17.139,-51.998,-163.581,-23.633,-14.7,-10.953,32.53,-0.1908,0.41034,0.19434,0.87024,708
177,0.92,0.081,0.435,0.0,-0.061,0.0,10.618,-64.1,160.17,-24.26,-11.833,-13.433,29.93,0.09604,0.53375,-0.01312,0.84003,713,0.363,0.041,0.93,-0.122,0.0,-0.305,2.318,-21.088,-140.79,-12.153,-10.22,-8.733,26.67,-0.33374,0.16544,0.08041,0.92447,705,0.439,-0.025,0.891,-0.488,-0.061,-0.671,-1.802,-26.109,166.849,-12.4,-10.113,-32.86,31.13,-0.11395,-0.22275,0.04068,-0.96729,707,0.781,0.181,0.58,-0.122,0.183,-0.183,17.139,-51.993,-163.581,-23.633,-14.7,-10.953,32.53,-0.1908,0.41034,0.19434,0.87024,709
178,0.919,0.08,0.435,0.0,-0.183,-0.061,10.618,-64.105,160.159,-24.16,-12.16,-13.573,29.93,0.09604,0.53375,-0.01312,0.84003,716,0.363,0.033,0.933,-0.061,0.122,-0.366,2.318,-21.088,-140.817,-12.153,-10.22,-8.733,26.67,-0.33374,0.16544,0.08041,0.92447,710,0.439,-0.024,0.896,-0.61,-0.366,-0.671,-1.802,-26.115,166.827,-12.4,-10.113,-32.86,31.13,-0.11395,-0.22275,0.04068,-0.96729,718,0.784,0.178,0.58,-0.183,0.244,0.0,17.133,-51.987,-163.575,-23.633,-14.7,-10.953,32.53,-0.1908,0.41034,0.19434,0.87024,714
179,0.919,0.077,0.432,0.0,-0.122,0.0,10.618,-64.111,160.148,-24.16,-12.16,-13.573,29.93,0.09604,0.53375,-0.01312,0.84003,717,0.362,0.032,0.935,-0.183,0.122,-0.427,2.313,-21.088,-140.839,-12.153,-10.22,-8.733,26.67,-0.33374,0.16544,0.08041,0.92447,711,0.441,-0.023,0.896,-0.061,-0.305,-0.061,-1.802,-26.125,166.816,-12.4,-10.113,-32.86,31.13,-0.11395,-0.22275,0.04068,-0.96729,719,0.783,0.176,0.578,-0.305,0.305,-0.061,17.128,-51.987,-163.564,-23.633,-14.7,-10.953,32.53,-0.1908,0.41034,0.19434,0.87024,715
180,0.92,0.081,0.433,0.0,-0.183,0.0,10.618,-64.116,160.142,-24.16,-12.16,-13.573,29.93,0.09604,0.53375,-0.01312,0.84003,724,0.366,0.033,0.936,0.0,0.0,0.0,2.313,-21.088,-140.839,-12.153,-10.22,-8.733,26.67,-0.33374,0.16544,0.08041,0.92447,722,0.441,-0.031,0.894,-0.427,-0.366,0.0,-1.807,-26.131,166.8,-12.4,-10.113,-32.86,31.13,-0.11395,-0.22275,0.04068,-0.96729,726,0.783,0.174,0.576,-0.366,0.122,0.0,17.117,-51.987,-163.559,-23.633,-14.7,-10.953,32.53,-0.19159,0.40979,0.19437,0.87033,720
181,0.918,0.082,0.433,-0.183,-0.122,0.0,10.613,-64.122,160.131,-24.16,-12.16,-13.573,29.93,0.09604,0.53375,-0.01312,0.84003,725,0.365,0.031,0.934,0.0,-0.244,0.0,2.307,-21.088,-140.834,-12.153,-10.22,-8.733,26.67,-0.33374,0.16544,0.08041,0.92447,723,0.439,-0.028,0.893,-0.549,-0.61,-0.061,-1.818,-26.142,166.783,-12.4,-10.113,-32.86,31.13,-0.11395,-0.22275,0.04068,-0.96729,727,0.784,0.177,0.576,-0.427,0.122,0.0,17.106,-51.987,-163.553,-23.633,-14.7,-10.953,32.53,-0.19159,0.40979,0.19437,0.87033,721
182,0.917,0.081,0.434,-0.061,-0.122,0.0,10.613,-64.127,160.126,-24.16,-12.16,-13.573,29.93,0.09717,0.53412,-0.01392,0.83963,736,0.363,0.032,0.933,0.0,-0.183,-0.183,2.307,-21.094,-140.834,-12.153,-10.22,-8.733,26.67,-0.33374,0.16544,0.08041,0.92447,730,0.438,-0.028,0.891,-0.366,-0.61,-0.366,-1.818,-26.153,166.772,-12.4,-10.113,-32.86,31.13,-0.11395,-0.22275,0.04068,-0.96729,728,0.781,0.178,0.579,-0.427,0.061,-0.061,17.1,-51.987,-163.548,-23.633,-14.7,-10.953,32.53,-0.19159,0.40979,0.19437,0.87033,734
183,0.917,0.081,0.435,-0.122,-0.061,0.0,10.613,-64.127,160.115,-24.16,-12.16,-13.573,29.93,0.09717,0.53412,-0.01392,0.83963,737,0.361,0.033,0.933,0.061,-0.183,-0.183,2.307,-21.099,-140.839,-12.153,-10.22,-8.733,26.67,-0.33374,0.16544,0.08041,0.92447,731,0.436,-0.027,0.892,-0.183,-0.488,-0.427,-1.818,-26.164,166.756,-12.4,-10.113,-32.86,31.13,-0.11395,-0.22275,0.04068,-0.96729,729,0.78,0.177,0.579,-0.244,0.183,-0.122,17.095,-51.987,-163.542,-23.633,-14.7,-10.953,32.53,-0.19159,0.40979,0.19437,0.87033,735
184,0.917,0.079,0.436,-0.183,0.0,0.0,10.607,-64.127,160.109,-24.16,-12.16,-13.573,29.93,0.09717,0.53412,-0.01392,0.83963,738,0.36,0.031,0.932,0.061,-0.183,-0.244,2.302,-21.105,-140.845,-12.153,-10.22,-8.733,26.67,-0.33374,0.16544,0.08041,0.92447,732,0.435,-0.028,0.893,-0.427,-0.549,-0.549,-1.818,-26.175,166.734,-12.4,-10.113,-32.86,31.13,-0.11395,-0.22275,0.04068,-0.96729,740,0.781,0.176,0.578,-0.183,0.183,-0.183,17.089,-51.987,-163.542,-23.633,-14.7,-10.953,32.53,-0.19159,0.40979,0.19437,0.87033,742
185,0.917,0.08,0.436,-0.183,0.183,-0.488,10.618,-64.127,160.082,-24.16,-12.16,-13.573,29.93,0.09717,0.53412,-0.01392,0.83963,739,0.36,0.03,0.934,0.0,-0.061,-0.427,2.302,-21.11,-140.856,-12.153,-10.22,-8.733,26.67,-0.33374,0.16544,0.08041,0.92447,733,0.437,-0.029,0.893,-0.366,-1.038,-0.732,-1.824,-26.191,166.701,-12.4,-10.113,-32.86,31.13,-0.11395,-0.22275,0.04068,-0.96729,741,0.781,0.176,0.58,-0.488,0.122,-0.244,17.089,-51.987,-163.542,-23.633,-14.7,-10.953,32.53,-0.19159,0.40979,0.19437,0.87033,743
186,0.915,0.078,0.434,-0.122,0.183,-0.427,10.629,-64.122,160.054,-24.16,-12.16,-13.573,29.93,0.09717,0.53412,-0.01392,0.83963,752,0.36,0.03,0.934,0.366,0.183,-0.488,2.307,-21.11,-140.867,-12.053,-10.16,-8.347,26.67,-0.33374,0.16544,0.08041,0.92447,748,0.438,-0.024,0.893,0.183,-1.343,-0.977,-1.813,-26.219,166.674,-12.4,-10.113,-32.86,31.13,-0.11395,-0.22275,0.04068,-0.96729,746,0.782,0.174,0.581,-0.61,0.183,-0.244,17.078,-51.982,-163.542,-23.633,-14.7,-10.953,32.53,-0.19159,0.40979,0.19437,0.87033,744
187,0.916,0.077,0.432,-0.061,0.0,-0.061,10.64,-64.122,160.038,-24.16,-12.16,-13.573,29.93,0.09717,0.53412,-0.01392,0.83963,753,0.362,0.034,0.933,0.549,0.61,-0.549,2.313,-21.099,-140.883,-12.053,-10.16,-8.347,26.67,-0.33374,0.16544,0.08041,0.92447,749,0.447,-0.015,0.89,-1.404,-2.014,-0.732,-1.824,-26.252,166.652,-12.4,-10.113,-32.86,31.13,-0.11395,-0.22275,0.04068,-0.96729,747,0.779,0.175,0.58,-0.61,0.305,-0.305,17.067,-51.976,-163.542,-23.633,-14.7,-10.953,32.53,-0.19159,0.40979,0.19437,0.87033,745
188,0.917,0.079,0.434,0.0,-0.122,0.305,10.635,-64.122,160.032,-24.16,-12.16,-13.573,29.93,0.09717,0.53412,-0.01392,0.83963,760,0.36,0.04,0.931,-0.122,0.671,-0.427,2.318,-21.088,-140.9,-12.053,-10.16,-8.347,26.67,-0.33374,0.16544,0.08041,0.92447,750,0.438,-0.012,0.891,-1.526,-1.953,0.427,-1.851,-26.29,166.641,-12.4,-10.113,-32.86,31.13,-0.11395,-0.22275,0.04068,-0.96729,754,0.778,0.175,0.579,-0.61,0.366,-0.183,17.056,-51.976,-163.542,-23.633,-14.7,-10.953,32.53,-0.19159,0.40979,0.19437,0.87033,756
189,0.918,0.081,0.435,0.122,-0.183,0.427,10.618,-64.127,160.038,-24.16,-12.16,-13.573,29.93,0.09717,0.53412,-0.01392,0.83963,761,0.358,0.042,0.931,-0.305,0.061,0.305,2.313,-21.083,-140.911,-12.053,-10.16,-8.347,26.67,-0.33374,0.16544,0.08041,0.92447,751,0.432,-0.02,0.893,0.427,-2.136,1.221,-1.857,-26.329,166.657,-12.4,-10.113,-32.86,31.13,-0.11395,-0.22275,0.04068,-0.96729,755,0.778,0.174,0.577,-0.488,0.427,0.122,17.04,-51.971,-163.526,-23.633,-14.7,-10.953,32.53,-0.19159,0.40979,0.19437,0.87033,757
190,0.92,0.083,0.436,0.305,-0.122,0.122,10.607,-64.138,160.043,-24.16,-12.16,-13.573,29.93,0.09717,0.53412,-0.01392,0.83963,764,0.359,0.037,0.935,0.61,-0.061,1.099,2.307,-21.083,-140.916,-12.053,-10.16,-8.347,26.67,-0.33231,0.16571,0.07996,0.92499,758,0.439,-0.037,0.896,1.77,-0.671,0.793,-1.835,-26.351,166.663,-12.4,-10.113,-32.86,31.13,-0.11395,-0.22275,0.04068,-0.96729,766,0.779,0.176,0.583,-0.244,0.427,0.427,17.018,-51.965,-163.504,-23.633,-14.7,-10.953,32.53,-0.19159,0.40979,0.19437,0.87033,762
191,0.917,0.084,0.436,0.061,0.244,-0.061,10.607,-64.138,160.043,-24.16,-12.16,-13.573,29.93,0.09717,0.53412,-0.01392,0.83963,765,0.361,0.024,0.937,1.587,0.0,1.221,2.318,-21.083,-140.911,-12.053,-10.16,-8.347,26.67,-0.33231,0.16571,0.07996,0.92499,759,0.446,-0.041,0.894,1.587,0.0,0.305,-1.802,-26.351,166.668,-12.4,-10.113,-32.86,31.13,-0.11395,-0.22275,0.04068,-0.96729,767,0.781,0.176,0.582,0.0,0.366,0.427,17.007,-51.965,-163.482,-23.633,-14.7,-10.953,32.53,-0.19159,0.40979,0.19437,0.87033,763
192,0.916,0.083,0.435,0.0,0.122,-0.183,10.607,-64.133,160.032,-24.16,-12.16,-13.573,29.93,0.09717,0.53412,-0.01392,0.83963,772,0.366,0.024,0.938,2.014,0.0,0.732,2.346,-21.088,-140.911,-12.053,-10.16,-8.347,26.67,-0.33231,0.16571,0.07996,0.92499,770,0.441,-0.024,0.887,-0.427,0.305,0.244,-1.802,-26.34,166.674,-12.287,-9.853,-31.4,31.13,-0.11395,-0.22275,0.04068,-0.96729,774,0.783,0.179,0.582,0.183,0.244,0.183,17.001,-51.96,-163.471,-23.633,-14.7,-10.953,32.53,-0.19159,0.40979,0.19437,0.87033,768
193,0.915,0.085,0.435,-0.122,0.122,-0.183,10.613,-64.133,160.021,-24.16,-12.16,-13.573,29.93,0.09717,0.53412,-0.01392,0.83963,773,0.361,0.033,0.93,0.671,0.244,0.122,2.357,-21.083,-140.916,-12.053,-10.16,-8.347,26.67,-0.33231,0.16571,0.07996,0.92499,771,0.438,-0.027,0.893,-0.977,-1.099,0.366,-1.824,-26.356,166.674,-12.287,-9.853,-31.4,31.13,-0.11395,-0.22275,0.04068,-0.96729,775,0.779,0.178,0.581,0.305,0.183,-0.061,17.007,-51.96,-163.466,-23.633,-14.7,-10.953,32.53,-0.19159,0.40979,0.19437,0.87033,769
194,0.917,0.081,0.435,-0.122,0.0,-0.122,10.618,-64.133,160.005,-24.16,-12.16,-13.573,29.93,0.09717,0.53412,-0.01392,0.83963,784,0.358,0.035,0.93,-0.549,0.061,-0.183,2.351,-21.083,-140.922,-12.053,-10.16,-8.347,26.67,-0.33231,0.16571,0.07996,0.92499,776,0.44,-0.031,0.892,0.244,-0.488,-0.183,-1.824,-26.367,166.685,-12.287,-9.853,-31.4,31.13,-0.11395,-0.22275,0.04068,-0.96729,782,0.778,0.179,0.581,-0.183,0.122,-0.061,17.001,-51.96,-163.46,-23.633,-14.7,-10.953,32.53,-0.19159,0.40979,0.19437,0.87033,778
195,0.916,0.081,0.435,0.0,0.0,-0.122,10.624,-64.133,159.994,-24.16,-12.16,-13.573,29.93,0.09717,0.53412,-0.01392,0.83963,785,0.36,0.031,0.937,0.549,-0.366,-0.061,2.351,-21.088,-140.938,-12.053,-10.16,-8.347,26.67,-0.33231,0.16571,0.07996,0.92499,777,0.44,-0.025,0.89,1.221,0.183,0.0,-1.802,-26.362,166.685,-12.287,-9.853,-31.4,31.13,-0.11395,-0.22275,0.04068,-0.96729,783,0.779,0.177,0.58,-0.305,0.0,-0.122,17.001,-51.96,-163.46,-23.633,-14.7,-10.953,32.53,-0.19159,0.40979,0.19437,0.87033,779
196,0.917,0.081,0.435,0.183,0.0,-0.122,10.629,-64.133,159.983,-23.893,-11.747,-13.207,29.93,0.09717,0.53412,-0.01392,0.83963,786,0.362,0.033,0.933,1.099,-0.305,0.122,2.368,-21.094,-140.949,-12.053,-10.16,-8.347,26.67,-0.33231,0.16571,0.07996,0.92499,780,0.445,-0.028,0.886,0.244,0.488,0.0,-1.791,-26.356,166.679,-12.287,-9.853,-31.4,31.13,-0.11639,-0.2247,0.04172,-0.96649,788,0.781,0.173,0.581,-0.183,-0.061,-0.244,17.001,-51.96,-163.466,-23.927,-14.593,-10.987,32.53,-0.19159,0.40979,0.19437,0.87033,790
197,0.917,0.083,0.435,0.061,-0.061,-0.061,10.635,-64.133,159.972,-23.893,-11.747,-13.207,29.93,0.09717,0.53412,-0.01392,0.83963,787,0.362,0.032,0.931,0.916,-0.061,0.244,2.379,-21.099,-140.949,-12.053,-10.16,-8.347,26.67,-0.33231,0.16571,0.07996,0.92499,781,0.441,-0.017,0.883,-1.343,0.305,0.0,-1.813,-26.345,166.679,-12.287,-9.853,-31.4,31.13,-0.11639,-0.2247,0.04172,-0.96649,789,0.78,0.174,0.582,0.244,0.0,-0.305,17.012,-51.96,-163.466,-23.927,-14.593,-10.987,32.53,-0.19159,0.40979,0.19437,0.87033,791
198,0.919,0.083,0.436,-0.183,0.0,0.0,10.64,-64.138,159.966,-23.893,-11.747,-13.207,29.93,0.09717,0.53412,-0.01392,0.83963,794,0.361,0.042,0.926,-0.366,0.244,0.0,2.373,-21.094,-140.938,-12.053,-10.16,-8.347,26.67,-0.33231,0.16571,0.07996,0.92499,792,0.439,-0.021,0.889,-0.549,0.0,0.061,-1.824,-26.345,166.679,-12.287,-9.853,-31.4,31.13,-0.11639,-0.2247,0.04172,-0.96649,796,0.778,0.178,0.58,0.427,0.061,-0.305,17.029,-51.96,-163.471,-23.927,-14.593,-10.987,32.53,-0.19159,0.40979,0.19437,0.87033,798
199,0.919,0.079,0.434,-0.366,0.061,-0.061,10.635,-64.138,159.961,-23.893,-11.747,-13.207,29.93,0.09717,0.53412,-0.01392,0.83963,795,0.361,0.04,0.93,-0.305,0.366,0.0,2.362,-21.088,-140.922,-12.053,-10.16,-8.347,26.67,-0.33231,0.16571,0.07996,0.92499,793,0.442,-0.032,0.895,0.732,0.244,-0.122,-1.813,-26.34,166.679,-12.287,-9.853,-31.4,31.13,-0.11639,-0.2247,0.04172,-0.96649,797,0.779,0.181,0.579,0.183,0.0,-0.122,17.034,-51.96,-163.471,-23.927,-14.593,-10.987,32.53,-0.19159,0.40979,0.19437,0.87033,799
200,0.919,0.076,0.434,-0.244,0.061,-0.061,10.629,-64.138,159.95,-23.893,-11.747,-13.207,29.93,0.09833,0.53424,-0.01462,0.83942,806,0.363,0.03,0.937,0.427,0.0,0.0,2.368,-21.088,-140.911,-12.053,-10.16,-8.347,26.67,-0.33231,0.16571,0.07996,0.92499,800,0.446,-0.03,0.892,0.366,0.549,-0.305,-1.802,-26.334,166.685,-12.287,-9.853,-31.4,31.13,-0.11639,-0.2247,0.04172,-0.96649,808,0.783,0.179,0.579,-0.122,0.0,0.0,17.029,-51.965,-163.466,-23.927,-14.593,-10.987,32.53,-0.19196,0.40961,0.194,0.87042,802
201,0.917,0.076,0.433,-0.061,0.0,0.183,10.624,-64.138,159.944,-23.893,-11.747,-13.207,29.93,0.09833,0.53424,-0.01462,0.83942,807,0.366,0.031,0.936,0.488,-0.122,0.061,2.373,-21.094,-140.894,-12.053,-10.16,-8.347,26.67,-0.33231,0.16571,0.07996,0.92499,801,0.446,-0.022,0.891,-0.366,0.305,-0.244,-1.802,-26.329,166.69,-12.287,-9.853,-31.4,31.13,-0.11639,-0.2247,0.04172,-0.96649,809,0.783,0.174,0.58,-0.305,0.0,-0.183,17.029,-51.965,-163.466,-23.927,-14.593,-10.987,32.53,-0.19196,0.40961,0.194,0.87042,803
202,0.916,0.079,0.434,0.122,0.0,0.305,10.613,-64.138,159.95,-23.893,-11.747,-13.207,29.93,0.09833,0.53424,-0.01462,0.83942,812,0.365,0.035,0.932,0.122,-0.061,0.061,2.373,-21.094,-140.894,-12.053,-10.16,-8.347,26.67,-0.33231,0.16571,0.07996,0.92499,804,0.441,-0.017,0.888,-0.977,0.061,0.183,-1.813,-26.323,166.701,-12.287,-9.853,-31.4,31.13,-0.11639,-0.2247,0.04172,-0.96649,814,0.783,0.173,0.579,-0.366,-0.061,-0.122,17.023,-51.965,-163.466,-23.927,-14.593,-10.987,32.53,-0.19196,0.40961,0.194,0.87042,810
203,0.918,0.078,0.433,0.244,0.0,0.305,10.602,-64.144,159.955,-23.893,-11.747,-13.207,29.93,0.09833,0.53424,-0.01462,0.83942,813,0.362,0.04,0.93,-0.549,0.061,0.183,2.362,-21.094,-140.894,-12.053,-10.16,-8.347,26.67,-0.33231,0.16571,0.07996,0.92499,805,0.438,-0.026,0.891,-0.488,-0.061,0.549,-1.829,-26.323,166.723,-12.287,-9.853,-31.4,31.13,-0.11639,-0.2247,0.04172,-0.96649,815,0.779,0.172,0.579,0.0,-0.061,0.061,17.018,-51.971,-163.46,-23.927,-14.593,-10.987,32.53,-0.19196,0.40961,0.194,0.87042,811
204,0.921,0.078,0.435,0.183,0.0,0.244,10.591,-64.144,159.966,-23.893,-11.747,-13.207,29.93,0.09833,0.53424,-0.01462,0.83942,820,0.36,0.035,0.932,-0.488,0.183,0.488,2.346,-21.094,-140.889,-12.053,-10.16,-8.347,26.67,-0.33231,0.16571,0.07996,0.92499,818,0.441,-0.033,0.891,0.061,0.244,0.549,-1.835,-26.323,166.745,-12.287,-9.853,-31.4,31.13,-0.11639,-0.2247,0.04172,-0.96649,822,0.781,0.172,0.577,0.305,0.0,0.183,17.018,-51.976,-163.455,-23.927,-14.593,-10.987,32.53,-0.19196,0.40961,0.194,0.87042,816
205,0.92,0.08,0.437,0.122,0.122,0.061,10.585,-64.149,159.966,-23.893,-11.747,-13.207,29.93,0.09833,0.53424,-0.01462,0.83942,821,0.363,0.028,0.934,0.183,0.0,0.671,2.34,-21.094,-140.889,-12.053,-10.16,-8.347,26.67,-0.33231,0.16571,0.07996,0.92499,819,0.443,-0.031,0.892,-0.061,0.488,0.366,-1.835,-26.312,166.772,-12.287,-9.853,-31.4,31.13,-0.11639,-0.2247,0.04172,-0.96649,823,0.784,0.173,0.579,0.183,0.0,0.061,17.018,-51.982,-163.444,-23.927,-14.593,-10.987,32.53,-0.19196,0.40961,0.194,0.87042,817
206,0.917,0.082,0.436,0.183,0.366,0.0,10.58,-64.149,159.966,-23.893,-11.747,-13.207,29.96,0.09833,0.53424,-0.01462,0.83942,828,0.365,0.03,0.934,0.0,0.0,0.671,2.329,-21.099,-140.894,-12.033,-10.48,-8.633,26.67,-0.33231,0.16571,0.07996,0.92499,824,0.441,-0.028,0.892,-0.854,0.366,0.0,-1.851,-26.307,166.789,-12.287,-9.853,-31.4,31.13,-0.11639,-0.2247,0.04172,-0.96649,830,0.783,0.178,0.583,0.122,-0.061,0.0,17.018,-51.982,-163.438,-23.927,-14.593,-10.987,32.53,-0.19196,0.40961,0.194,0.87042,826
207,0.915,0.081,0.436,0.183,0.427,0.0,10.58,-64.144,159.966,-23.893,-11.747,-13.207,29.96,0.09833,0.53424,-0.01462,0.83942,829,0.364,0.034,0.934,-0.549,0.122,0.244,2.318,-21.099,-140.894,-12.033,-10.48,-8.633,26.67,-0.33231,0.16571,0.07996,0.92499,825,0.441,-0.029,0.891,-1.16,0.122,-0.122,-1.868,-26.307,166.794,-12.287,-9.853,-31.4,31.13,-0.11639,-0.2247,0.04172,-0.96649,831,0.78,0.179,0.581,0.244,-0.061,0.0,17.023,-51.987,-163.433,-23.927,-14.593,-10.987,32.53,-0.19196,0.40961,0.194,0.87042,827
208,0.916,0.079,0.435,0.061,0.366,0.0,10.574,-64.133,159.961,-23.893,-11.747,-13.207,29.96,0.09833,0.53424,-0.01462,0.83942,836,0.362,0.033,0.933,-0.732,0.366,0.0,2.296,-21.094,-140.905,-12.033,-10.48,-8.633,26.67,-0.33231,0.16571,0.07996,0.92499,834,0.438,-0.026,0.891,-0.916,-0.122,-0.488,-1.884,-26.307,166.783,-12.287,-9.853,-31.4,31.13,-0.11639,-0.2247,0.04172,-0.96649,838,0.78,0.175,0.581,0.305,-0.061,0.0,17.023,-51.993,-163.433,-23.927,-14.593,-10.987,32.53,-0.19196,0.40961,0.194,0.87042,832
209,0.917,0.078,0.435,0.061,0.366,0.0,10.574,-64.127,159.961,-23.893,-11.747,-13.207,29.96,0.09833,0.53424,-0.01462,0.83942,837,0.36,0.032,0.931,-0.916,0.427,-0.061,2.28,-21.088,-140.911,-12.033,-10.48,-8.633,26.67,-0.33231,0.16571,0.07996,0.92499,835,0.438,-0.03,0.893,-0.916,0.244,0.061,-1.901,-26.307,166.783,-12.287,-9.853,-31.4,31.13,-0.11639,-0.2247,0.04172,-0.96649,839,0.78,0.173,0.581,0.366,-0.122,-0.061,17.029,-51.993,-163.427,-23.927,-14.593,-10.987,32.53,-0.19196,0.40961,0.194,0.87042,833
210,0.918,0.08,0.435,0.183,0.305,0.0,10.569,-64.122,159.961,-23.893,-11.747,-13.207,29.96,0.09833,0.53424,-0.01462,0.83942,842,0.358,0.028,0.934,-0.793,0.427,0.122,2.258,-21.083,-140.916,-12.033,-10.48,-8.633,26.67,-0.33221,0.16586,0.07962,0.92502,840,0.438,-0.029,0.894,-1.16,-0.122,-0.061,-1.923,-26.307,166.772,-12.66,-10.18,-32.16,31.13,-0.11639,-0.2247,0.04172,-0.96649,844,0.78,0.174,0.58,0.427,-0.183,-0.122,17.04,-51.998,-163.427,-23.927,-14.593,-10.987,32.53,-0.19196,0.40961,0.194,0.87042,846
211,0.917,0.081,0.435,0.305,0.244,0.0,10.569,-64.122,159.955,-23.893,-11.747,-13.207,29.96,0.09833,0.53424,-0.01462,0.83942,843,0.358,0.029,0.934,-0.916,0.427,0.122,2.236,-21.072,-140.916,-12.033,-10.48,-8.633,26.67,-0.33221,0.16586,0.07962,0.92502,841,0.44,-0.027,0.894,-1.16,-0.305,-0.122,-1.939,-26.307,166.767,-12.66,-10.18,-32.16,31.13,-0.11639,-0.2247,0.04172,-0.96649,845,0.781,0.175,0.58,0.488,-0.244,-0.122,17.051,-52.004,-163.427,-23.927,-14.593,-10.987,32.53,-0.19196,0.40961,0.194,0.87042,847
212,0.917,0.081,0.436,0.244,0.305,0.0,10.569,-64.116,159.955,-23.893,-11.747,-13.207,29.96,0.09833,0.53424,-0.01462,0.83942,856,0.36,0.032,0.934,-0.916,0.366,0.122,2.214,-21.066,-140.911,-12.033,-10.48,-8.633,26.67,-0.33221,0.16586,0.07962,0.92502,848,0.44,-0.027,0.893,-0.916,-0.366,-0.061,-1.961,-26.318,166.75,-12.66,-10.18,-32.16,31.13,-0.11639,-0.2247,0.04172,-0.96649,860,0.782,0.179,0.579,0.671,-0.183,-0.061,17.062,-52.009,-163.433,-23.927,-14.593,-10.987,32.53,-0.19196,0.40961,0.194,0.87042,852
213,0.917,0.08,0.436,0.122,0.366,0.0,10.569,-64.111,159.95,-23.893,-11.747,-13.207,29.96,0.09833,0.53424,-0.01462,0.83942,857,0.362,0.033,0.936,-0.793,0.305,0.061,2.192,-21.061,-140.905,-12.033,-10.48,-8.633,26.67,-0.33221,0.16586,0.07962,0.92502,849,0.44,-0.03,0.893,-0.854,-0.366,0.0,-1.972,-26.323,166.756,-12.66,-10.18,-32.16,31.13,-0.11639,-0.2247,0.04172,-0.96649,861,0.781,0.179,0.58,0.61,-0.244,-0.061,17.073,-52.015,-163.433,-23.927,-14.593,-10.987,32.53,-0.19196,0.40961,0.194,0.87042,853
214,0.916,0.08,0.436,0.061,0.366,0.0,10.569,-64.105,159.95,-23.893,-11.747,-13.207,29.96,0.09833,0.53424,-0.01462,0.83942,858,0.361,0.03,0.934,-0.732,0.305,0.061,2.175,-21.055,-140.905,-12.033,-10.48,-8.633,26.67,-0.33221,0.16586,0.07962,0.92502,850,0.439,-0.032,0.893,-0.977,-0.427,-0.061,-1.989,-26.329,166.778,-12.66,-10.18,-32.16,31.13,-0.11639,-0.2247,0.04172,-0.96649,862,0.782,0.177,0.579,0.549,-0.305,-0.122,17.089,-52.02,-163.433,-23.927,-14.593,-10.987,32.53,-0.19196,0.40961,0.194,0.87042,854
215,0.918,0.079,0.437,0.122,0.183,0.0,10.569,-64.1,159.95,-23.893,-11.747,-13.207,29.96,0.09833,0.53424,-0.01462,0.83942,859,0.359,0.028,0.934,-0.671,0.366,0.0,2.159,-21.05,-140.9,-12.033,-10.48,-8.633,26.67,-0.33221,0.16586,0.07962,0.92502,851,0.439,-0.029,0.893,-1.221,-0.854,-0.244,-2.01,-26.345,166.789,-12.66,-10.18,-32.16,31.13,-0.11639,-0.2247,0.04172,-0.96649,863,0.781,0.176,0.579,0.427,-0.366,-0.122,17.1,-52.031,-163.433,-23.927,-14.593,-10.987,32.53,-0.19196,0.40961,0.194,0.87042,855
216,0.917,0.081,0.435,0.244,0.183,0.0,10.569,-64.1,159.944,-23.893,-11.747,-13.207,29.96,0.09833,0.53424,-0.01462,0.83942,866,0.359,0.029,0.934,-0.854,0.244,-0.061,2.137,-21.044,-140.9,-12.033,-10.48,-8.633,26.67,-0.33221,0.16586,0.07962,0.92502,864,0.442,-0.031,0.893,-1.343,-0.854,-0.305,-2.032,-26.362,166.8,-12.66,-10.18,-32.16,31.13,-0.11618,-0.22418,0.04291,-0.96658,868,0.782,0.176,0.58,0.427,-0.427,-0.183,17.117,-52.037,-163.438,-23.967,-14.593,-10.64,32.53,-0.19196,0.40961,0.194,0.87042,872
217,0.915,0.079,0.437,0.366,0.183,0.061,10.569,-64.1,159.944,-23.893,-11.747,-13.207,29.96,0.09833,0.53424,-0.01462,0.83942,867,0.362,0.029,0.934,-1.038,0.366,-0.122,2.115,-21.039,-140.905,-12.033,-10.48,-8.633,26.67,-0.33221,0.16586,0.07962,0.92502,865,0.442,-0.031,0.891,-1.282,-1.16,-1.099,-2.049,-26.378,166.789,-12.66,-10.18,-32.16,31.13,-0.11618,-0.22418,0.04291,-0.96658,869,0.783,0.177,0.578,0.61,-0.305,-0.122,17.128,-52.048,-163.444,-23.967,-14.593,-10.64,32.53,-0.19196,0.40961,0.194,0.87042,873
218,0.914,0.083,0.435,0.183,0.305,0.061,10.569,-64.094,159.944,-23.893,-11.747,-13.207,29.96,0.09833,0.53424,-0.01462,0.83942,882,0.362,0.029,0.934,-0.61,0.488,-0.183,2.098,-21.033,-140.916,-12.033,-10.48,-8.633,26.67,-0.33221,0.16586,0.07962,0.92502,870,0.438,-0.033,0.89,-0.793,-0.793,0.0,-2.065,-26.395,166.767,-12.66,-10.18,-32.16,31.13,-0.11618,-0.22418,0.04291,-0.96658,878,0.779,0.174,0.579,0.916,-0.305,-0.122,17.144,-52.053,-163.449,-23.967,-14.593,-10.64,32.53,-0.19196,0.40961,0.194,0.87042,874
219,0.917,0.082,0.437,0.122,0.244,0.0,10.563,-64.089,159.944,-23.893,-11.747,-13.207,29.96,0.09833,0.53424,-0.01462,0.83942,883,0.357,0.025,0.933,-0.488,0.305,0.0,2.087,-21.022,-140.927,-12.033,-10.48,-8.633,26.67,-0.33221,0.16586,0.07962,0.92502,871,0.441,-0.034,0.887,-1.587,-0.732,-0.549,-2.087,-26.411,166.734,-12.66,-10.18,-32.16,31.13,-0.11618,-0.22418,0.04291,-0.96658,879,0.777,0.178,0.574,0.61,0.061,-0.366,17.166,-52.059,-163.449,-23.967,-14.593,-10.64,32.53,-0.19196,0.40961,0.194,0.87042,875
220,0.92,0.082,0.438,0.183,0.061,-0.122,10.569,-64.089,159.933,-23.707,-11.933,-13.8,29.96,0.09833,0.53424,-0.01462,0.83942,886,0.358,0.028,0.932,-0.916,0.183,-0.183,2.071,-21.022,-140.927,-12.033,-10.48,-8.633,26.67,-0.33221,0.16586,0.07962,0.92502,876,0.439,-0.03,0.889,-1.526,-0.427,-0.732,-2.109,-26.417,166.707,-12.66,-10.18,-32.16,31.13,-0.11618,-0.22418,0.04291,-0.96658,892,0.781,0.181,0.58,0.427,-0.061,-0.305,17.183,-52.059,-163.46,-23.967,-14.593,-10.64,32.53,-0.19263,0.4101,0.19504,0.86981,880
221,0.917,0.081,0.436,0.183,0.122,-0.122,10.574,-64.089,159.928,-23.707,-11.933,-13.8,29.96,0.09833,0.53424,-0.01462,0.83942,887,0.362,0.031,0.931,-0.854,0.427,-0.427,2.049,-21.017,-140.933,-12.033,-10.48,-8.633,26.67,-0.33221,0.16586,0.07962,0.92502,877,0.446,-0.031,0.894,-1.587,-0.427,-2.075,-2.12,-26.428,166.652,-12.66,-10.18,-32.16,31.13,-0.11618,-0.22418,0.04291,-0.96658,893,0.785,0.178,0.58,0.305,-0.061,-0.305,17.199,-52.059,-163.466,-23.967,-14.593,-10.64,32.53,-0.19263,0.4101,0.19504,0.86981,881
222,0.918,0.078,0.433,0.305,0.061,-0.061,10.585,-64.089,159.917,-23.707,-11.933,-13.8,29.96,0.09833,0.53424,-0.01462,0.83942,890,0.361,0.027,0.934,-0.854,0.549,-0.61,2.032,-21.006,-140.933,-12.033,-10.48,-8.633,26.67,-0.33221,0.16586,0.07962,0.92502,884,0.447,-0.028,0.896,-0.549,-0.61,-0.916,-2.126,-26.439,166.613,-12.66,-10.18,-32.16,31.13,-0.11618,-0.22418,0.04291,-0.96658,894,0.784,0.178,0.577,0.305,0.061,-0.366,17.21,-52.059,-163.471,-23.967,-14.593,-10.64,32.53,-0.19263,0.4101,0.19504,0.86981,896
223,0.92,0.083,0.431,0.244,0.0,-0.183,10.591,-64.089,159.911,-23.707,-11.933,-13.8,29.96,0.09833,0.53424,-0.01462,0.83942,891,0.362,0.026,0.938,-0.732,0.366,-0.488,2.021,-21.0,-140.933,-12.033,-10.48,-8.633,26.67,-0.33221,0.16586,0.07962,0.92502,885,0.452,-0.034,0.891,-0.427,-0.427,0.122,-2.131,-26.444,166.591,-12.66,-10.18,-32.16,31.13,-0.11618,-0.22418,0.04291,-0.96658,895,0.784,0.175,0.575,0.183,-0.061,-0.366,17.221,-52.059,-163.482,-23.967,-14.593,-10.64,32.53,-0.19263,0.4101,0.19504,0.86981,897
224,0.917,0.083,0.433,-0.061,0.122,-0.305,10.602,-64.089,159.895,-23.707,-11.933,-13.8,29.96,0.09903,0.53384,-0.01505,0.83957,902,0.369,0.025,0.935,-0.549,0.0,-0.244,2.01,-21.0,-140.944,-12.127,-10.44,-8.747,26.67,-0.33221,0.16586,0.07962,0.92502,888,0.442,-0.039,0.883,-0.732,-0.244,-0.244,-2.142,-26.45,166.575,-12.66,-10.18,-32.16,31.13,-0.11618,-0.22418,0.04291,-0.96658,904,0.785,0.179,0.572,0.0,-0.061,-0.366,17.232,-52.059,-163.488,-23.967,-14.593,-10.64,32.53,-0.19263,0.4101,0.19504,0.86981,898
225,0.915,0.078,0.43,0.0,0.366,-0.488,10.618,-64.083,159.873,-23.707,-11.933,-13.8,29.96,0.09903,0.53384,-0.01505,0.83957,903,0.364,0.025,0.93,-0.671,-0.061,-0.427,1.994,-21.0,-140.955,-12.127,-10.44,-8.747,26.67,-0.33221,0.16586,0.07962,0.92502,889,0.441,-0.037,0.884,-0.854,0.671,-0.671,-2.153,-26.444,166.536,-12.66,-10.18,-32.16,31.13,-0.11618,-0.22418,0.04291,-0.96658,905,0.783,0.182,0.573,0.0,0.0,-0.549,17.243,-52.064,-163.499,-23.967,-14.593,-10.64,32.53,-0.19263,0.4101,0.19504,0.86981,899
226,0.914,0.079,0.434,0.0,0.488,-0.732,10.635,-64.078,159.846,-23.707,-11.933,-13.8,29.96,0.09903,0.53384,-0.01505,0.83957,908,0.358,0.024,0.927,-1.038,-0.305,-0.793,1.978,-21.011,-140.966,-12.127,-10.44,-8.747,26.67,-0.33221,0.16586,0.07962,0.92502,900,0.436,-0.036,0.891,-2.014,1.526,-0.854,-2.175,-26.417,166.498,-12.66,-10.18,-32.16,31.13,-0.11618,-0.22418,0.04291,-0.96658,910,0.781,0.176,0.569,-0.305,0.366,-0.549,17.249,-52.059,-163.51,-23.967,-14.593,-10.64,32.53,-0.19263,0.4101,0.19504,0.86981,906
227,0.917,0.082,0.438,-0.366,0.61,-0.916,10.662,-64.067,159.813,-23.707,-11.933,-13.8,29.96,0.09903,0.53384,-0.01505,0.83957,909,0.356,0.025,0.931,-0.854,-0.61,-1.038,1.961,-21.022,-140.988,-12.127,-10.44,-8.747,26.67,-0.33221,0.16586,0.07962,0.92502,901,0.443,-0.038,0.895,-2.136,0.122,-1.526,-2.208,-26.411,166.443,-12.66,-10.18,-32.16,31.13,-0.11618,-0.22418,0.04291,-0.96658,911,0.778,0.175,0.573,-0.183,0.61,-0.549,17.254,-52.053,-163.521,-23.967,-14.593,-10.64,32.53,-0.19263,0.4101,0.19504,0.86981,907
228,0.918,0.08,0.438,-0.183,0.427,-0.793,10.684,-64.056,159.774,-23.707,-11.933,-13.8,29.96,0.09903,0.53384,-0.01505,0.83957,920,0.358,0.022,0.934,-0.916,-0.977,-1.343,1.95,-21.044,-141.021,-12.127,-10.44,-8.747,26.67,-0.33115,0.16632,0.07678,0.92557,916,0.44,-0.032,0.896,-2.014,-0.732,-1.526,-2.23,-26.422,166.393,-12.66,-10.18,-32.16,31.13,-0.11618,-0.22418,0.04291,-0.96658,912,0.781,0.177,0.581,-0.427,0.61,-0.61,17.254,-52.042,-163.531,-23.967,-14.593,-10.64,32.53,-0.19263,0.4101,0.19504,0.86981,914
229,0.918,0.082,0.437,-0.122,0.305,-0.732,10.706,-64.045,159.736,-23.707,-11.933,-13.8,29.96,0.09903,0.53384,-0.01505,0.83957,921,0.359,0.023,0.936,-1.221,-1.282,-1.404,1.934,-21.072,-141.059,-12.127,-10.44,-8.747,26.67,-0.33115,0.16632,0.07678,0.92557,917,0.438,-0.028,0.898,-3.113,-0.916,-0.488,-2.28,-26.439,166.377,-12.66,-10.18,-32.16,31.13,-0.11618,-0.22418,0.04291,-0.96658,913,0.782,0.176,0.582,-0.366,0.671,-0.671,17.26,-52.031,-163.542,-23.967,-14.593,-10.64,32.53,-0.19263,0.4101,0.19504,0.86981,915
230,0.915,0.081,0.438,-0.183,0.183,-0.488,10.723,-64.039,159.708,-23.707,-11.933,-13.8,29.96,0.09903,0.53384,-0.01505,0.83957,924,0.357,0.026,0.938,-1.465,-1.709,-1.282,1.912,-21.105,-141.075,-12.127,-10.44,-8.747,26.67,-0.33115,0.16632,0.07678,0.92557,918,0.442,-0.027,0.894,-2.93,-1.404,-0.671,-2.335,-26.461,166.366,-12.66,-10.18,-32.16,31.13,-0.11618,-0.22418,0.04291,-0.96658,926,0.781,0.18,0.579,-0.244,0.916,-0.732,17.26,-52.015,-163.553,-23.967,-14.593,-10.64,32.53,-0.19263,0.4101,0.19504,0.86981,922
231,0.914,0.081,0.438,-0.061,0.061,-0.305,10.734,-64.039,159.686,-23.707,-11.933,-13.8,29.96,0.09903,0.53384,-0.01505,0.83957,925,0.362,0.03,0.94,-1.404,-1.77,-1.221,1.89,-21.138,-141.092,-12.127,-10.44,-8.747,26.67,-0.33115,0.16632,0.07678,0.92557,919,0.445,-0.024,0.888,-2.625,-0.671,-0.854,-2.373,-26.477,166.333,-12.66,-10.18,-32.16,31.13,-0.11618,-0.22418,0.04291,-0.96658,927,0.779,0.181,0.581,0.061,0.61,-0.61,17.271,-51.998,-163.559,-23.967,-14.593,-10.64,32.53,-0.19263,0.4101,0.19504,0.86981,923
232,0.912,0.081,0.439,0.244,0.0,0.0,10.739,-64.039,159.675,-23.707,-11.933,-13.8,29.96,0.09903,0.53384,-0.01505,0.83957,930,0.363,0.034,0.934,-1.099,-1.404,-0.977,1.873,-21.165,-141.108,-12.127,-10.44,-8.747,26.67,-0.33115,0.16632,0.07678,0.92557,928,0.437,-0.025,0.883,-0.854,-0.732,-0.061,-2.395,-26.494,166.317,-12.447,-9.847,-32.373,31.13,-0.11618,-0.22418,0.04291,-0.96658,932,0.777,0.179,0.581,0.427,0.549,-0.366,17.281,-51.987,-163.57,-23.967,-14.593,-10.64,32.53,-0.19263,0.4101,0.19504,0.86981,936
233,0.918,0.083,0.436,0.427,0.122,0.183,10.739,-64.039,159.675,-23.707,-11.933,-13.8,29.96,0.09903,0.53384,-0.01505,0.83957,931,0.359,0.033,0.928,-0.244,-0.977,-0.244,1.868,-21.182,-141.103,-12.127,-10.44,-8.747,26.67,-0.33115,0.16632,0.07678,0.92557,929,0.441,-0.027,0.883,-0.061,-0.854,1.648,-2.406,-26.505,166.339,-12.447,-9.847,-32.373,31.13,-0.11618,-0.22418,0.04291,-0.96658,933,0.775,0.18,0.581,0.427,0.549,-0.061,17.287,-51.976,-163.564,-23.967,-14.593,-10.64,32.53,-0.19263,0.4101,0.19504,0.86981,937
234,0.919,0.085,0.438,0.488,0.122,0.305,10.734,-64.039,159.686,-23.707,-11.933,-13.8,29.96,0.09903,0.53384,-0.01505,0.83957,946,0.36,0.031,0.927,0.488,-0.732,0.488,1.873,-21.193,-141.092,-12.127,-10.44,-8.747,26.67,-0.33115,0.16632,0.07678,0.92557,942,0.449,-0.032,0.886,0.854,-0.671,0.916,-2.39,-26.516,166.344,-12.447,-9.847,-32.373,31.13,-0.11618,-0.22418,0.04291,-0.96658,934,0.779,0.182,0.577,0.366,0.854,0.183,17.287,-51.971,-163.553,-23.967,-14.593,-10.64,32.53,-0.19263,0.4101,0.19504,0.86981,938
