Index,L5_Acceleration X(g),L5_Acceleration Y(g),L5_Acceleration Z(g),L5_Angular velocity X(°/s),L5_Angular velocity Y(°/s),L5_Angular velocity Z(°/s),L5_Angle X(°),L5_Angle Y(°),L5_Angle Z(°),L5_Magnetic field X(ʯt),L5_Magnetic field Y(ʯt),L5_Magnetic field Z(ʯt),L5_Temperature(℃),L5_Quaternions 0(),L5_Quaternions 1(),L5_Quaternions 2(),L5_Quaternions 3(),L5___orig_idx,T4_Acceleration X(g),T4_Acceleration Y(g),T4_Acceleration Z(g),T4_Angular velocity X(°/s),T4_Angular velocity Y(°/s),T4_Angular velocity Z(°/s),T4_Angle X(°),T4_Angle Y(°),T4_Angle Z(°),T4_Magnetic field X(ʯt),T4_Magnetic field Y(ʯt),T4_Magnetic field Z(ʯt),T4_Temperature(℃),T4_Quaternions 0(),T4_Quaternions 1(),T4_Quaternions 2(),T4_Quaternions 3(),T4___orig_idx,C7_Acceleration X(g),C7_Acceleration Y(g),C7_Acceleration Z(g),C7_Angular velocity X(°/s),C7_Angular velocity Y(°/s),C7_Angular velocity Z(°/s),C7_Angle X(°),C7_Angle Y(°),C7_Angle Z(°),C7_Magnetic field X(ʯt),C7_Magnetic field Y(ʯt),C7_Magnetic field Z(ʯt),C7_Temperature(℃),C7_Quaternions 0(),C7_Quaternions 1(),C7_Quaternions 2(),C7_Quaternions 3(),C7___orig_idx,T12_Acceleration X(g),T12_Acceleration Y(g),T12_Acceleration Z(g),T12_Angular velocity X(°/s),T12_Angular velocity Y(°/s),T12_Angular velocity Z(°/s),T12_Angle X(°),T12_Angle Y(°),T12_Angle Z(°),T12_Magnetic field X(ʯt),T12_Magnetic field Y(ʯt),T12_Magnetic field Z(ʯt),T12_Temperature(℃),T12_Quaternions 0(),T12_Quaternions 1(),T12_Quaternions 2(),T12_Quaternions 3(),T12___orig_idx
0,0.907,0.028,0.461,-0.244,-0.183,0.0,3.604,-62.798,167.426,-25.54,-12.227,-14.827,29.68,0.07825,0.52057,-0.03107,0.84961,4,0.821,0.188,0.543,-0.122,-0.61,0.244,19.451,-54.75,-133.863,-24.593,-12.427,1.58,28.53,-0.41437,0.35809,0.31564,0.77481,6,0.688,-0.081,0.712,-0.427,-0.732,-0.183,-5.977,-43.583,158.055,-19.147,-8.027,-29.053,32.5,-0.19577,-0.35364,0.1178,-0.90698,2,0.924,0.009,0.342,-0.366,-0.549,-0.244,2.17,-69.741,-159.005,-29.3,-10.933,-6.593,32.64,0.16025,-0.55923,-0.11957,-0.80447,0
1,0.904,0.028,0.464,0.0,-0.183,0.0,3.604,-62.803,167.454,-25.54,-12.227,-14.827,29.68,0.07825,0.52057,-0.03107,0.84961,5,0.813,0.188,0.548,0.366,-0.366,0.061,19.451,-54.761,-133.863,-24.593,-12.427,1.58,28.53,-0.41437,0.35809,0.31564,0.77481,7,0.678,-0.081,0.716,0.183,-1.16,0.183,-5.977,-43.605,158.077,-19.147,-8.027,-29.053,32.5,-0.19577,-0.35364,0.1178,-0.90698,3,0.926,0.01,0.345,0.061,-0.61,-0.244,2.181,-69.752,-159.022,-29.3,-10.933,-6.593,32.64,0.16025,-0.55923,-0.11957,-0.80447,1
2,0.905,0.029,0.465,-0.061,-0.305,0.0,3.604,-62.809,167.481,-25.233,-11.793,-14.88,29.68,0.07825,0.52057,-0.03107,0.84961,8,0.818,0.193,0.551,0.366,-0.061,0.061,19.462,-54.767,-133.868,-24.593,-12.427,1.58,28.53,-0.41437,0.35809,0.31564,0.77481,12,0.69,-0.072,0.718,-0.244,-1.831,0.061,-5.988,-43.632,158.104,-19.147,-8.027,-29.053,32.5,-0.19577,-0.35364,0.1178,-0.90698,14,0.925,0.011,0.342,0.0,-0.732,-0.122,2.192,-69.763,-159.005,-29.3,-10.933,-6.593,32.64,0.16025,-0.55923,-0.11957,-0.80447,10
3,0.904,0.03,0.467,-0.122,-0.305,0.0,3.604,-62.814,167.509,-25.233,-11.793,-14.88,29.68,0.07825,0.52057,-0.03107,0.84961,9,0.832,0.192,0.541,0.549,-0.793,0.61,19.468,-54.767,-133.857,-24.593,-12.427,1.58,28.53,-0.41437,0.35809,0.31564,0.77481,13,0.706,-0.072,0.708,-0.244,-0.366,0.061,-5.993,-43.654,158.11,-19.147,-8.027,-29.053,32.5,-0.19577,-0.35364,0.1178,-0.90698,15,0.924,0.01,0.342,-0.549,-0.793,-0.183,2.192,-69.78,-159.0,-29.3,-10.933,-6.593,32.64,0.16025,-0.55923,-0.11957,-0.80447,11
4,0.907,0.028,0.469,-0.061,-0.366,0.0,3.604,-62.82,167.536,-25.233,-11.793,-14.88,29.68,0.07825,0.52057,-0.03107,0.84961,18,0.832,0.194,0.542,0.732,-0.488,0.732,19.468,-54.783,-133.846,-24.593,-12.427,1.58,28.53,-0.41437,0.35809,0.31564,0.77481,16,0.701,-0.079,0.709,0.061,-0.183,0.183,-5.999,-43.66,158.11,-19.147,-8.027,-29.053,32.5,-0.19577,-0.35364,0.1178,-0.90698,24,0.928,0.006,0.343,-0.305,-0.488,-0.244,2.192,-69.791,-159.016,-29.3,-10.933,-6.593,32.64,0.16025,-0.55923,-0.11957,-0.80447,20
5,0.907,0.03,0.466,0.061,-0.549,0.0,3.604,-62.825,167.558,-25.233,-11.793,-14.88,29.68,0.07825,0.52057,-0.03107,0.84961,19,0.817,0.198,0.548,-0.061,1.282,0.0,19.462,-54.789,-133.824,-24.593,-12.427,1.58,28.53,-0.41437,0.35809,0.31564,0.77481,17,0.681,-0.074,0.718,0.0,-0.732,0.061,-5.999,-43.671,158.093,-19.147,-8.027,-29.053,32.5,-0.19577,-0.35364,0.1178,-0.90698,25,0.93,0.01,0.349,-0.183,-0.305,-0.244,2.197,-69.796,-159.022,-29.3,-10.933,-6.593,32.64,0.16025,-0.55923,-0.11957,-0.80447,21
6,0.909,0.031,0.463,0.0,-0.488,0.0,3.604,-62.836,167.585,-25.233,-11.793,-14.88,29.68,0.07617,0.52075,-0.02979,0.84973,30,0.809,0.201,0.55,-0.488,1.892,-0.122,19.446,-54.756,-133.813,-24.593,-12.427,1.58,28.53,-0.41437,0.35809,0.31564,0.77481,26,0.674,-0.065,0.722,-0.366,-2.258,0.0,-6.01,-43.698,158.082,-19.533,-7.593,-27.647,32.5,-0.19577,-0.35364,0.1178,-0.90698,28,0.926,0.015,0.345,0.0,-0.427,-0.061,2.197,-69.802,-159.027,-29.3,-10.933,-6.593,32.64,0.16025,-0.55923,-0.11957,-0.80447,22
7,0.909,0.032,0.464,0.061,-0.305,0.0,3.609,-62.842,167.613,-25.233,-11.793,-14.88,29.68,0.07617,0.52075,-0.02979,0.84973,31,0.815,0.197,0.55,-0.488,1.099,0.183,19.424,-54.728,-133.792,-24.593,-12.427,1.58,28.53,-0.41437,0.35809,0.31564,0.77481,27,0.691,-0.069,0.712,-0.793,-0.977,-0.122,-6.021,-43.731,158.077,-19.533,-7.593,-27.647,32.5,-0.19577,-0.35364,0.1178,-0.90698,29,0.926,0.015,0.342,-0.732,-1.038,0.0,2.186,-69.813,-159.016,-29.3,-10.933,-6.593,32.64,0.16025,-0.55923,-0.11957,-0.80447,23
8,0.905,0.032,0.46,-0.061,-0.305,0.0,3.609,-62.847,167.635,-25.233,-11.793,-14.88,29.68,0.07617,0.52075,-0.02979,0.84973,36,0.821,0.193,0.542,-0.305,0.061,0.488,19.402,-54.717,-133.775,-24.593,-12.427,1.58,28.53,-0.41437,0.35809,0.31564,0.77481,34,0.698,-0.076,0.707,-1.221,-0.305,-0.488,-6.031,-43.748,158.071,-19.533,-7.593,-27.647,32.5,-0.19577,-0.35364,0.1178,-0.90698,38,0.926,0.015,0.341,-1.526,-1.16,-0.061,2.164,-69.835,-158.989,-29.3,-10.933,-6.593,32.64,0.16025,-0.55923,-0.11957,-0.80447,32
9,0.903,0.031,0.459,-0.183,-0.366,0.0,3.609,-62.853,167.662,-25.233,-11.793,-14.88,29.68,0.07617,0.52075,-0.02979,0.84973,37,0.824,0.188,0.542,0.0,0.488,0.305,19.391,-54.717,-133.764,-24.593,-12.427,1.58,28.53,-0.41437,0.35809,0.31564,0.77481,35,0.688,-0.081,0.701,-0.977,-0.61,-0.549,-6.042,-43.759,158.055,-19.533,-7.593,-27.647,32.5,-0.19577,-0.35364,0.1178,-0.90698,39,0.923,0.013,0.337,-1.709,-1.038,0.0,2.131,-69.857,-158.967,-29.3,-10.933,-6.593,32.64,0.16025,-0.55923,-0.11957,-0.80447,33
10,0.903,0.031,0.46,-0.183,-0.61,0.0,3.609,-62.864,167.684,-25.233,-11.793,-14.88,29.68,0.07617,0.52075,-0.02979,0.84973,40,0.823,0.188,0.538,-0.061,0.977,-0.061,19.38,-54.701,-133.753,-24.593,-12.427,1.58,28.53,-0.41437,0.35809,0.31564,0.77481,46,0.694,-0.083,0.699,-1.465,0.305,-0.977,-6.053,-43.764,158.038,-19.533,-7.593,-27.647,32.5,-0.19556,-0.35596,0.1188,-0.90601,44,0.921,0.01,0.338,-0.977,-0.977,-0.061,2.115,-69.873,-158.939,-30.04,-10.827,-5.833,32.64,0.16025,-0.55923,-0.11957,-0.80447,42
11,0.907,0.03,0.46,0.0,-1.038,0.0,3.615,-62.88,167.706,-25.233,-11.793,-14.88,29.68,0.07617,0.52075,-0.02979,0.84973,41,0.829,0.19,0.543,-1.892,1.526,-0.916,19.363,-54.679,-133.753,-24.593,-12.427,1.58,28.53,-0.41437,0.35809,0.31564,0.77481,47,0.703,-0.082,0.698,-1.587,4.089,-2.991,-6.042,-43.726,157.994,-19.533,-7.593,-27.647,32.5,-0.19556,-0.35596,0.1188,-0.90601,45,0.926,0.011,0.343,-0.549,-1.404,-0.305,2.115,-69.895,-158.923,-30.04,-10.827,-5.833,32.64,0.16025,-0.55923,-0.11957,-0.80447,43
12,0.921,0.03,0.463,0.183,-1.16,0.0,3.62,-62.902,167.728,-25.233,-11.793,-14.88,29.68,0.07617,0.52075,-0.02979,0.84973,48,0.827,0.191,0.536,-3.052,2.625,-1.892,19.336,-54.63,-133.781,-25.047,-12.2,1.587,28.53,-0.41437,0.35809,0.31564,0.77481,52,0.697,-0.078,0.698,-2.747,3.723,-3.052,-6.026,-43.66,157.906,-19.533,-7.593,-27.647,32.5,-0.19556,-0.35596,0.1188,-0.90601,54,0.933,0.009,0.345,0.366,-1.648,-0.488,2.148,-69.922,-158.917,-30.04,-10.827,-5.833,32.64,0.1604,-0.56039,-0.11981,-0.80359,50
13,0.917,0.029,0.468,0.488,-0.671,0.0,3.631,-62.919,167.75,-25.233,-11.793,-14.88,29.68,0.07617,0.52075,-0.02979,0.84973,49,0.82,0.191,0.534,-2.563,2.38,-2.197,19.308,-54.575,-133.824,-25.047,-12.2,1.587,28.53,-0.41437,0.35809,0.31564,0.77481,53,0.682,-0.077,0.708,-4.7,1.892,-4.15,-6.026,-43.621,157.808,-19.533,-7.593,-27.647,32.5,-0.19556,-0.35596,0.1188,-0.90601,55,0.944,0.013,0.334,1.404,-1.587,-0.427,2.192,-69.955,-158.945,-30.04,-10.827,-5.833,32.64,0.1604,-0.56039,-0.11981,-0.80359,51
14,0.912,0.032,0.468,0.549,0.0,0.0,3.642,-62.93,167.745,-25.233,-11.793,-14.88,29.68,0.07617,0.52075,-0.02979,0.84973,56,0.821,0.187,0.548,-2.38,1.16,-2.258,19.308,-54.536,-133.885,-25.047,-12.2,1.587,28.53,-0.41437,0.35809,0.31564,0.77481,60,0.692,-0.087,0.715,-4.761,2.747,-4.883,-6.037,-43.594,157.67,-19.533,-7.593,-27.647,32.5,-0.19556,-0.35596,0.1188,-0.90601,64,0.945,0.015,0.327,1.953,-0.916,-0.244,2.247,-69.972,-158.989,-30.04,-10.827,-5.833,32.64,0.1604,-0.56039,-0.11981,-0.80359,58
15,0.911,0.036,0.463,0.305,0.488,0.0,3.653,-62.93,167.745,-25.233,-11.793,-14.88,29.68,0.07617,0.52075,-0.02979,0.84973,57,0.82,0.187,0.558,-2.747,0.854,-2.441,19.308,-54.503,-133.962,-25.047,-12.2,1.587,28.53,-0.41437,0.35809,0.31564,0.77481,61,0.688,-0.076,0.717,-7.507,2.686,-5.554,-6.059,-43.555,157.511,-19.533,-7.593,-27.647,32.5,-0.19556,-0.35596,0.1188,-0.90601,65,0.935,0.019,0.323,2.197,0.183,0.183,2.285,-69.977,-159.022,-30.04,-10.827,-5.833,32.64,0.1604,-0.56039,-0.11981,-0.80359,59
16,0.918,0.031,0.461,0.0,0.61,0.0,3.658,-62.919,167.756,-25.233,-11.793,-14.88,29.68,0.07617,0.52075,-0.02979,0.84973,70,0.813,0.192,0.56,-1.404,0.854,-1.709,19.314,-54.481,-134.028,-25.047,-12.2,1.587,28.53,-0.41309,0.35718,0.31357,0.77676,66,0.681,-0.072,0.725,-5.798,1.221,-3.723,-6.103,-43.533,157.363,-19.533,-7.593,-27.647,32.5,-0.19556,-0.35596,0.1188,-0.90601,68,0.931,0.015,0.328,-1.16,1.038,-0.122,2.28,-69.961,-159.038,-30.04,-10.827,-5.833,32.64,0.1604,-0.56039,-0.11981,-0.80359,62
17,0.905,0.027,0.459,-0.244,0.732,0.0,3.658,-62.908,167.772,-25.233,-11.793,-14.88,29.68,0.07617,0.52075,-0.02979,0.84973,71,0.811,0.193,0.552,0.305,0.488,-0.977,19.33,-54.465,-134.072,-25.047,-12.2,1.587,28.53,-0.41309,0.35718,0.31357,0.77676,67,0.673,-0.078,0.723,-2.93,0.0,-2.197,-6.136,-43.533,157.258,-19.533,-7.593,-27.647,32.5,-0.19556,-0.35596,0.1188,-0.90601,69,0.936,0.01,0.338,-0.061,1.221,-0.183,2.285,-69.944,-159.049,-30.04,-10.827,-5.833,32.64,0.1604,-0.56039,-0.11981,-0.80359,63
18,0.9,0.025,0.457,-0.244,0.916,0.0,3.653,-62.891,167.805,-25.447,-11.74,-13.987,29.68,0.07617,0.52075,-0.02979,0.84973,74,0.801,0.193,0.554,1.038,-0.061,-0.793,19.363,-54.454,-134.099,-25.047,-12.2,1.587,28.53,-0.41309,0.35718,0.31357,0.77676,78,0.669,-0.08,0.724,-2.014,1.404,-2.197,-6.141,-43.528,157.181,-19.533,-7.593,-27.647,32.5,-0.19556,-0.35596,0.1188,-0.90601,76,0.918,0.01,0.329,2.686,1.16,0.427,2.313,-69.922,-159.033,-30.04,-10.827,-5.833,32.64,0.1604,-0.56039,-0.11981,-0.80359,72
19,0.903,0.024,0.456,0.488,0.732,0.0,3.653,-62.875,167.827,-25.447,-11.74,-13.987,29.68,0.07617,0.52075,-0.02979,0.84973,75,0.792,0.199,0.568,-0.488,0.0,-0.671,19.385,-54.454,-134.127,-25.047,-12.2,1.587,28.53,-0.41309,0.35718,0.31357,0.77676,79,0.66,-0.07,0.732,-0.488,2.319,-1.648,-6.125,-43.495,157.121,-19.533,-7.593,-27.647,32.5,-0.19556,-0.35596,0.1188,-0.90601,77,0.918,0.006,0.337,2.686,0.671,0.366,2.34,-69.911,-159.016,-30.04,-10.827,-5.833,32.64,0.1604,-0.56039,-0.11981,-0.80359,73
20,0.9,0.031,0.46,0.305,0.61,0.0,3.658,-62.864,167.827,-25.447,-11.74,-13.987,29.68,0.07617,0.52075,-0.02979,0.84973,84,0.792,0.202,0.567,-0.305,0.0,-0.122,19.385,-54.448,-134.143,-25.047,-12.2,1.587,28.53,-0.41309,0.35718,0.31357,0.77676,82,0.661,-0.063,0.746,0.0,-0.427,-0.183,-6.114,-43.478,157.094,-19.533,-7.593,-27.647,32.5,-0.19556,-0.35596,0.1188,-0.90601,86,0.917,0.011,0.331,0.732,0.671,-0.122,2.357,-69.906,-159.044,-30.04,-10.827,-5.833,32.64,0.1604,-0.56039,-0.11981,-0.80359,80
21,0.896,0.032,0.463,-0.122,0.061,0.0,3.658,-62.858,167.816,-25.447,-11.74,-13.987,29.68,0.07617,0.52075,-0.02979,0.84973,85,0.805,0.199,0.558,1.892,-1.587,1.16,19.396,-54.459,-134.132,-25.047,-12.2,1.587,28.53,-0.41309,0.35718,0.31357,0.77676,83,0.676,-0.066,0.728,2.014,-1.526,1.648,-6.103,-43.489,157.137,-19.533,-7.593,-27.647,32.5,-0.19556,-0.35596,0.1188,-0.90601,87,0.913,0.017,0.344,-2.502,0.366,0.0,2.302,-69.901,-159.066,-30.04,-10.827,-5.833,32.64,0.1604,-0.56039,-0.11981,-0.80359,81
22,0.896,0.029,0.465,-0.488,-0.488,-0.549,3.664,-62.864,167.811,-25.447,-11.74,-13.987,29.68,0.07391,0.52112,-0.02817,0.84976,90,0.814,0.198,0.559,2.686,-2.136,2.319,19.413,-54.498,-134.094,-25.047,-12.2,1.587,28.53,-0.41309,0.35718,0.31357,0.77676,92,0.685,-0.068,0.712,2.136,0.854,2.686,-6.097,-43.484,157.214,-19.007,-7.72,-27.367,32.5,-0.19556,-0.35596,0.1188,-0.90601,94,0.917,0.008,0.35,-1.465,-0.061,0.183,2.258,-69.901,-159.071,-30.04,-10.827,-5.833,32.64,0.1604,-0.56039,-0.11981,-0.80359,88
23,0.902,0.029,0.466,-0.427,-0.793,-0.793,3.675,-62.875,167.794,-25.447,-11.74,-13.987,29.68,0.07391,0.52112,-0.02817,0.84976,91,0.822,0.196,0.548,0.793,-0.854,2.441,19.396,-54.536,-134.011,-25.047,-12.2,1.587,28.53,-0.41309,0.35718,0.31357,0.77676,93,0.689,-0.073,0.709,0.732,2.502,2.258,-6.108,-43.44,157.286,-19.007,-7.72,-27.367,32.5,-0.19556,-0.35596,0.1188,-0.90601,95,0.919,0.0,0.351,-1.526,-0.671,0.0,2.225,-69.911,-159.055,-30.04,-10.827,-5.833,32.64,0.1604,-0.56039,-0.11981,-0.80359,89
24,0.904,0.03,0.467,-0.244,-0.916,-0.61,3.702,-62.886,167.767,-25.447,-11.74,-13.987,29.68,0.07391,0.52112,-0.02817,0.84976,98,0.814,0.191,0.542,0.671,-0.549,2.319,19.358,-54.558,-133.923,-25.047,-12.2,1.587,28.53,-0.41309,0.35718,0.31357,0.77676,96,0.675,-0.083,0.717,1.465,-0.061,2.38,-6.125,-43.407,157.341,-19.007,-7.72,-27.367,32.5,-0.20154,-0.35229,0.12119,-0.90579,100,0.924,0.007,0.343,-1.16,-0.732,-0.244,2.208,-69.922,-159.049,-30.04,-10.827,-5.833,32.64,0.1604,-0.56039,-0.11981,-0.80359,102
25,0.901,0.033,0.469,-0.244,-0.854,-0.427,3.719,-62.902,167.745,-25.447,-11.74,-13.987,29.68,0.07391,0.52112,-0.02817,0.84976,99,0.807,0.187,0.548,0.305,-0.061,1.709,19.314,-54.569,-133.846,-25.047,-12.2,1.587,28.53,-0.41309,0.35718,0.31357,0.77676,97,0.671,-0.09,0.71,1.831,-0.305,2.319,-6.13,-43.401,157.379,-19.007,-7.72,-27.367,32.5,-0.20154,-0.35229,0.12119,-0.90579,101,0.925,0.012,0.339,-0.854,-0.183,-0.183,2.192,-69.922,-159.044,-30.04,-10.827,-5.833,32.64,0.1604,-0.56039,-0.11981,-0.80359,103
26,0.899,0.037,0.464,-0.549,-0.916,-0.427,3.73,-62.919,167.75,-25.447,-11.74,-13.987,29.68,0.07391,0.52112,-0.02817,0.84976,106,0.805,0.188,0.545,-0.488,-0.122,0.977,19.281,-54.575,-133.792,-25.047,-12.2,1.587,28.53,-0.41309,0.35718,0.31357,0.77676,104,0.676,-0.085,0.71,1.221,0.549,0.977,-6.13,-43.396,157.39,-19.007,-7.72,-27.367,32.5,-0.20154,-0.35229,0.12119,-0.90579,110,0.924,0.013,0.347,-0.549,0.122,-0.122,2.181,-69.917,-159.027,-29.36,-10.7,-6.193,32.64,0.1604,-0.56039,-0.11981,-0.80359,108
27,0.91,0.039,0.456,-0.549,-0.977,-0.305,3.741,-62.935,167.734,-25.447,-11.74,-13.987,29.68,0.07391,0.52112,-0.02817,0.84976,107,0.813,0.188,0.55,-0.183,-0.61,0.488,19.259,-54.586,-133.77,-25.047,-12.2,1.587,28.53,-0.41309,0.35718,0.31357,0.77676,105,0.679,-0.081,0.722,0.305,-1.16,0.244,-6.13,-43.396,157.379,-19.007,-7.72,-27.367,32.5,-0.20154,-0.35229,0.12119,-0.90579,111,0.914,0.016,0.342,-1.099,0.549,-0.244,2.17,-69.906,-159.044,-29.36,-10.7,-6.193,32.64,0.1604,-0.56039,-0.11981,-0.80359,109
28,0.917,0.032,0.46,-0.671,-1.16,-0.366,3.746,-62.952,167.734,-25.447,-11.74,-13.987,29.68,0.07391,0.52112,-0.02817,0.84976,112,0.824,0.189,0.558,0.916,-1.465,0.488,19.259,-54.602,-133.753,-25.047,-12.2,1.587,28.53,-0.41309,0.35718,0.31357,0.77676,118,0.695,-0.085,0.724,0.977,-1.038,0.061,-6.125,-43.412,157.379,-19.007,-7.72,-27.367,32.5,-0.20154,-0.35229,0.12119,-0.90579,116,0.921,0.019,0.332,-1.038,0.122,-0.366,2.164,-69.901,-159.044,-29.36,-10.7,-6.193,32.64,0.1604,-0.56039,-0.11981,-0.80359,114
29,0.916,0.031,0.462,-0.427,-1.16,-0.305,3.757,-62.974,167.756,-25.447,-11.74,-13.987,29.68,0.07391,0.52112,-0.02817,0.84976,113,0.838,0.187,0.551,1.465,-1.77,0.427,19.286,-54.63,-133.748,-25.047,-12.2,1.587,28.53,-0.41309,0.35718,0.31357,0.77676,119,0.708,-0.086,0.713,1.221,-0.366,0.0,-6.108,-43.423,157.385,-19.007,-7.72,-27.367,32.5,-0.20154,-0.35229,0.12119,-0.90579,117,0.936,0.015,0.337,0.0,-0.183,-0.244,2.181,-69.901,-159.044,-29.36,-10.7,-6.193,32.64,0.1604,-0.56039,-0.11981,-0.80359,115
30,0.914,0.035,0.462,-0.183,-1.099,0.0,3.763,-62.996,167.794,-25.447,-11.74,-13.987,29.68,0.07391,0.52112,-0.02817,0.84976,120,0.833,0.192,0.542,2.014,-1.282,0.0,19.325,-54.657,-133.753,-24.66,-11.98,1.467,28.53,-0.41309,0.35718,0.31357,0.77676,124,0.699,-0.075,0.705,0.977,0.61,-0.122,-6.092,-43.423,157.396,-19.007,-7.72,-27.367,32.5,-0.20154,-0.35229,0.12119,-0.90579,126,0.939,0.017,0.343,1.038,-0.244,-0.305,2.219,-69.906,-159.044,-29.36,-10.7,-6.193,32.64,0.15979,-0.56036,-0.1196,-0.80377,122
31,0.911,0.033,0.459,-0.061,-0.977,0.427,3.763,-63.012,167.844,-25.447,-11.74,-13.987,29.68,0.07391,0.52112,-0.02817,0.84976,121,0.819,0.198,0.536,1.526,-0.366,-0.305,19.369,-54.673,-133.77,-24.66,-11.98,1.467,28.53,-0.41309,0.35718,0.31357,0.77676,125,0.685,-0.067,0.708,0.793,1.038,-0.183,-6.07,-43.407,157.379,-19.007,-7.72,-27.367,32.5,-0.20154,-0.35229,0.12119,-0.90579,127,0.936,0.013,0.34,0.916,-0.61,-0.427,2.263,-69.911,-159.049,-29.36,-10.7,-6.193,32.64,0.15979,-0.56036,-0.1196,-0.80377,123
32,0.912,0.029,0.458,0.0,-0.61,0.488,3.752,-63.034,167.893,-25.447,-11.74,-13.987,29.68,0.07391,0.52112,-0.02817,0.84976,128,0.817,0.198,0.541,0.549,0.305,-0.122,19.396,-54.673,-133.775,-24.66,-11.98,1.467,28.53,-0.41309,0.35718,0.31357,0.77676,132,0.689,-0.07,0.71,0.977,0.916,0.183,-6.053,-43.396,157.368,-19.007,-7.72,-27.367,32.5,-0.20154,-0.35229,0.12119,-0.90579,134,0.929,0.013,0.331,1.038,-0.61,-0.305,2.302,-69.928,-159.055,-29.36,-10.7,-6.193,32.64,0.15979,-0.56036,-0.1196,-0.80377,130
33,0.911,0.03,0.456,-0.122,-0.305,0.183,3.735,-63.045,167.904,-25.447,-11.74,-13.987,29.68,0.07391,0.52112,-0.02817,0.84976,129,0.82,0.193,0.532,0.732,0.244,0.061,19.407,-54.668,-133.781,-24.66,-11.98,1.467,28.53,-0.41309,0.35718,0.31357,0.77676,133,0.688,-0.072,0.709,1.587,0.183,0.671,-6.037,-43.385,157.357,-19.007,-7.72,-27.367,32.5,-0.20154,-0.35229,0.12119,-0.90579,135,0.928,0.012,0.332,0.854,-0.366,-0.183,2.329,-69.933,-159.049,-29.36,-10.7,-6.193,32.64,0.15979,-0.56036,-0.1196,-0.80377,131
34,0.91,0.032,0.457,0.0,-0.183,0.122,3.73,-63.051,167.893,-25.447,-11.74,-13.987,29.68,0.07391,0.52112,-0.02817,0.84976,142,0.82,0.197,0.536,1.465,-0.671,0.366,19.429,-54.673,-133.781,-24.66,-11.98,1.467,28.53,-0.41486,0.35748,0.31537,0.77493,136,0.685,-0.068,0.714,0.732,-1.221,0.916,-6.031,-43.401,157.357,-19.007,-7.72,-27.367,32.5,-0.20154,-0.35229,0.12119,-0.90579,140,0.928,0.017,0.33,0.244,0.061,-0.061,2.335,-69.933,-159.049,-29.36,-10.7,-6.193,32.64,0.15979,-0.56036,-0.1196,-0.80377,138
35,0.91,0.03,0.457,-0.122,-0.122,0.183,3.73,-63.056,167.866,-25.447,-11.74,-13.987,29.68,0.07391,0.52112,-0.02817,0.84976,143,0.822,0.202,0.549,0.732,-0.366,0.488,19.446,-54.69,-133.781,-24.66,-11.98,1.467,28.53,-0.41486,0.35748,0.31537,0.77493,137,0.69,-0.072,0.717,0.549,-0.244,0.549,-6.031,-43.412,157.346,-19.007,-7.72,-27.367,32.5,-0.20154,-0.35229,0.12119,-0.90579,141,0.929,0.01,0.338,0.61,0.183,0.0,2.34,-69.933,-159.055,-29.36,-10.7,-6.193,32.64,0.15979,-0.56036,-0.1196,-0.80377,139
36,0.913,0.028,0.458,-0.122,-0.244,0.244,3.724,-63.062,167.855,-25.407,-11.76,-14.96,29.68,0.07391,0.52112,-0.02817,0.84976,148,0.825,0.193,0.544,0.0,-0.061,0.244,19.451,-54.695,-133.77,-24.66,-11.98,1.467,28.53,-0.41486,0.35748,0.31537,0.77493,146,0.692,-0.081,0.711,0.0,-0.061,-0.061,-6.026,-43.418,157.319,-19.007,-7.72,-27.367,32.5,-0.20154,-0.35229,0.12119,-0.90579,150,0.931,0.013,0.336,1.099,0.183,0.183,2.351,-69.928,-159.044,-29.36,-10.7,-6.193,32.64,0.15979,-0.56036,-0.1196,-0.80377,144
37,0.911,0.03,0.46,0.061,-0.183,0.244,3.713,-63.067,167.866,-25.407,-11.76,-14.96,29.68,0.07391,0.52112,-0.02817,0.84976,149,0.82,0.188,0.542,0.793,-0.244,0.122,19.462,-54.706,-133.775,-24.66,-11.98,1.467,28.53,-0.41486,0.35748,0.31537,0.77493,147,0.683,-0.081,0.711,0.122,0.0,0.061,-6.026,-43.423,157.308,-19.007,-7.72,-27.367,32.5,-0.20154,-0.35229,0.12119,-0.90579,151,0.93,0.015,0.339,0.488,0.183,0.183,2.362,-69.928,-159.0,-29.36,-10.7,-6.193,32.64,0.15979,-0.56036,-0.1196,-0.80377,145
38,0.906,0.031,0.461,0.061,0.183,0.244,3.708,-63.067,167.888,-25.407,-11.76,-14.96,29.68,0.07391,0.52112,-0.02817,0.84976,158,0.82,0.191,0.543,0.977,0.0,0.061,19.484,-54.706,-133.786,-24.66,-11.98,1.467,28.53,-0.41486,0.35748,0.31537,0.77493,154,0.687,-0.078,0.712,0.488,0.061,0.427,-6.026,-43.429,157.308,-19.013,-7.833,-27.607,32.5,-0.20154,-0.35229,0.12119,-0.90579,156,0.928,0.01,0.336,0.122,0.0,0.0,2.362,-69.928,-158.967,-29.36,-10.7,-6.193,32.64,0.15979,-0.56036,-0.1196,-0.80377,152
39,0.907,0.032,0.463,0.0,0.183,0.122,3.702,-63.067,167.882,-25.407,-11.76,-14.96,29.68,0.07391,0.52112,-0.02817,0.84976,159,0.825,0.193,0.546,0.305,0.122,0.0,19.49,-54.706,-133.797,-24.66,-11.98,1.467,28.53,-0.41486,0.35748,0.31537,0.77493,155,0.69,-0.081,0.718,-0.244,1.038,0.0,-6.031,-43.418,157.286,-19.013,-7.833,-27.607,32.5,-0.20154,-0.35229,0.12119,-0.90579,157,0.928,0.011,0.342,0.183,0.366,-0.061,2.362,-69.928,-158.934,-29.36,-10.7,-6.193,32.64,0.15979,-0.56036,-0.1196,-0.80377,153
40,0.908,0.03,0.463,0.0,0.061,0.0,3.702,-63.062,167.871,-25.407,-11.76,-14.96,29.68,0.07306,0.52267,-0.02774,0.84888,164,0.82,0.194,0.551,-0.122,0.244,-0.305,19.495,-54.706,-133.802,-24.66,-11.98,1.467,28.53,-0.41486,0.35748,0.31537,0.77493,162,0.682,-0.079,0.723,0.366,0.854,-0.427,-6.021,-43.401,157.242,-19.013,-7.833,-27.607,32.5,-0.202,-0.35242,0.1207,-0.90573,166,0.926,0.01,0.341,0.977,0.488,0.0,2.368,-69.922,-158.89,-29.36,-10.7,-6.193,32.64,0.15979,-0.56036,-0.1196,-0.80377,160
41,0.908,0.029,0.461,0.061,0.0,-0.061,3.708,-63.062,167.877,-25.407,-11.76,-14.96,29.68,0.07306,0.52267,-0.02774,0.84888,165,0.814,0.192,0.554,-0.244,1.038,-0.305,19.49,-54.69,-133.792,-24.66,-11.98,1.467,28.53,-0.41486,0.35748,0.31537,0.77493,163,0.678,-0.078,0.72,0.61,0.916,0.0,-6.01,-43.391,157.214,-19.013,-7.833,-27.607,32.5,-0.202,-0.35242,0.1207,-0.90573,167,0.927,0.012,0.344,1.221,0.366,-0.122,2.39,-69.911,-158.851,-29.36,-10.7,-6.193,32.64,0.15979,-0.56036,-0.1196,-0.80377,161
42,0.906,0.028,0.461,0.061,0.0,0.0,3.708,-63.062,167.893,-25.407,-11.76,-14.96,29.68,0.07306,0.52267,-0.02774,0.84888,172,0.814,0.194,0.548,-0.671,1.038,-0.488,19.484,-54.668,-133.792,-24.66,-11.98,1.467,28.53,-0.41486,0.35748,0.31537,0.77493,168,0.68,-0.079,0.719,0.793,1.221,-0.305,-5.988,-43.369,157.192,-19.013,-7.833,-27.607,32.5,-0.202,-0.35242,0.1207,-0.90573,174,0.923,0.013,0.338,0.854,0.183,-0.366,2.417,-69.906,-158.857,-29.36,-10.7,-6.193,32.64,0.15979,-0.56036,-0.1196,-0.80377,170
43,0.905,0.031,0.459,0.183,-0.061,0.061,3.713,-63.062,167.904,-25.407,-11.76,-14.96,29.68,0.07306,0.52267,-0.02774,0.84888,173,0.811,0.194,0.549,-0.732,0.854,-0.977,19.484,-54.646,-133.813,-24.66,-11.98,1.467,28.53,-0.41486,0.35748,0.31537,0.77493,169,0.674,-0.075,0.718,1.221,0.854,-0.61,-5.96,-43.352,157.181,-19.013,-7.833,-27.607,32.5,-0.202,-0.35242,0.1207,-0.90573,175,0.92,0.018,0.342,0.61,0.061,-0.061,2.444,-69.901,-158.851,-29.36,-10.7,-6.193,32.64,0.15979,-0.56036,-0.1196,-0.80377,171
44,0.908,0.033,0.458,0.183,-0.122,0.183,3.713,-63.067,167.91,-25.407,-11.76,-14.96,29.68,0.07306,0.52267,-0.02774,0.84888,178,0.808,0.193,0.553,0.366,0.671,-0.549,19.495,-54.624,-133.841,-24.66,-11.98,1.467,28.53,-0.41486,0.35748,0.31537,0.77493,176,0.672,-0.07,0.726,2.075,0.549,0.488,-5.927,-43.341,157.198,-19.013,-7.833,-27.607,32.5,-0.202,-0.35242,0.1207,-0.90573,180,0.924,0.015,0.342,0.549,-0.244,-0.061,2.455,-69.901,-158.835,-29.673,-10.787,-5.72,32.64,0.15979,-0.56036,-0.1196,-0.80377,182
45,0.909,0.032,0.459,-0.122,-0.183,0.0,3.713,-63.067,167.915,-25.407,-11.76,-14.96,29.68,0.07306,0.52267,-0.02774,0.84888,179,0.812,0.197,0.553,1.221,0.244,0.244,19.512,-54.619,-133.835,-24.66,-11.98,1.467,28.53,-0.41486,0.35748,0.31537,0.77493,177,0.68,-0.068,0.728,1.892,0.244,1.038,-5.905,-43.336,157.247,-19.013,-7.833,-27.607,32.5,-0.202,-0.35242,0.1207,-0.90573,181,0.926,0.009,0.339,0.854,-0.488,-0.122,2.472,-69.906,-158.846,-29.673,-10.787,-5.72,32.64,0.15979,-0.56036,-0.1196,-0.80377,183
46,0.909,0.03,0.46,-0.122,-0.244,0.0,3.713,-63.073,167.937,-25.407,-11.76,-14.96,29.68,0.07306,0.52267,-0.02774,0.84888,186,0.816,0.2,0.552,0.549,-0.244,0.488,19.512,-54.624,-133.819,-24.66,-11.98,1.467,28.53,-0.41486,0.35748,0.31537,0.77493,184,0.683,-0.069,0.725,0.549,-0.793,0.977,-5.905,-43.341,157.28,-19.013,-7.833,-27.607,32.5,-0.202,-0.35242,0.1207,-0.90573,190,0.927,0.012,0.341,0.366,-0.671,-0.244,2.488,-69.917,-158.862,-29.673,-10.787,-5.72,32.64,0.16248,-0.55988,-0.12256,-0.80313,188
47,0.906,0.03,0.459,0.0,-0.305,0.0,3.713,-63.078,167.997,-25.407,-11.76,-14.96,29.68,0.07306,0.52267,-0.02774,0.84888,187,0.817,0.2,0.553,-0.061,0.061,0.488,19.501,-54.624,-133.786,-24.66,-11.98,1.467,28.53,-0.41486,0.35748,0.31537,0.77493,185,0.68,-0.073,0.72,0.793,-1.221,1.16,-5.916,-43.358,157.302,-19.013,-7.833,-27.607,32.5,-0.202,-0.35242,0.1207,-0.90573,191,0.924,0.016,0.34,0.0,-0.854,-0.183,2.505,-69.928,-158.884,-29.673,-10.787,-5.72,32.64,0.16248,-0.55988,-0.12256,-0.80313,189
48,0.906,0.03,0.458,0.061,-0.244,0.0,3.713,-63.083,168.025,-25.407,-11.76,-14.96,29.68,0.07306,0.52267,-0.02774,0.84888,192,0.815,0.195,0.551,0.305,0.305,0.244,19.501,-54.619,-133.759,-25.213,-11.827,2.1,28.53,-0.41486,0.35748,0.31537,0.77493,200,0.678,-0.081,0.717,1.587,-1.282,1.343,-5.911,-43.38,157.341,-19.013,-7.833,-27.607,32.5,-0.202,-0.35242,0.1207,-0.90573,196,0.924,0.017,0.338,-0.122,-1.099,-0.061,2.516,-69.944,-158.901,-29.673,-10.787,-5.72,32.64,0.16248,-0.55988,-0.12256,-0.80313,194
49,0.908,0.031,0.459,0.0,-0.427,0.061,3.719,-63.089,168.041,-25.407,-11.76,-14.96,29.68,0.07306,0.52267,-0.02774,0.84888,193,0.816,0.19,0.551,0.549,0.244,-0.061,19.506,-54.608,-133.748,-25.213,-11.827,2.1,28.53,-0.41486,0.35748,0.31537,0.77493,201,0.684,-0.082,0.715,1.282,0.0,0.427,-5.9,-43.385,157.363,-19.013,-7.833,-27.607,32.5,-0.202,-0.35242,0.1207,-0.90573,197,0.926,0.016,0.341,0.366,-1.526,0.061,2.516,-69.966,-158.906,-29.673,-10.787,-5.72,32.64,0.16248,-0.55988,-0.12256,-0.80313,195
50,0.908,0.032,0.46,-0.061,-0.549,0.061,3.713,-63.1,168.052,-25.407,-11.76,-14.96,29.68,0.07306,0.52267,-0.02774,0.84888,198,0.818,0.193,0.548,-0.122,-0.122,-0.488,19.517,-54.602,-133.759,-25.213,-11.827,2.1,28.53,-0.41534,0.3566,0.31601,0.77484,204,0.684,-0.075,0.716,0.305,0.671,-0.549,-5.883,-43.374,157.352,-19.013,-7.833,-27.607,32.5,-0.202,-0.35242,0.1207,-0.90573,206,0.927,0.015,0.339,0.854,-1.404,0.183,2.521,-69.994,-158.895,-29.673,-10.787,-5.72,32.64,0.16248,-0.55988,-0.12256,-0.80313,202
51,0.909,0.032,0.461,0.0,-0.549,0.061,3.713,-63.111,168.058,-25.407,-11.76,-14.96,29.68,0.07306,0.52267,-0.02774,0.84888,199,0.817,0.197,0.547,-0.61,-0.244,-0.671,19.528,-54.602,-133.786,-25.213,-11.827,2.1,28.53,-0.41534,0.3566,0.31601,0.77484,205,0.681,-0.071,0.72,0.183,0.061,-0.183,-5.872,-43.369,157.33,-19.013,-7.833,-27.607,32.5,-0.202,-0.35242,0.1207,-0.90573,207,0.929,0.016,0.336,0.366,-1.16,0.122,2.532,-70.021,-158.884,-29.673,-10.787,-5.72,32.64,0.16248,-0.55988,-0.12256,-0.80313,203
52,0.909,0.031,0.46,0.0,-0.488,0.061,3.719,-63.122,168.052,-25.407,-11.76,-14.96,29.68,0.07306,0.52267,-0.02774,0.84888,208,0.815,0.198,0.549,-1.038,0.0,-0.61,19.523,-54.597,-133.813,-25.213,-11.827,2.1,28.53,-0.41534,0.3566,0.31601,0.77484,212,0.683,-0.071,0.723,1.099,-0.977,0.61,-5.867,-43.38,157.33,-18.88,-7.667,-27.6,32.5,-0.202,-0.35242,0.1207,-0.90573,216,0.929,0.015,0.335,0.305,-1.221,0.061,2.532,-70.043,-158.873,-29.673,-10.787,-5.72,32.64,0.16248,-0.55988,-0.12256,-0.80313,210
53,0.906,0.031,0.46,-0.122,-0.549,0.0,3.719,-63.127,168.025,-25.407,-11.76,-14.96,29.68,0.07306,0.52267,-0.02774,0.84888,209,0.82,0.193,0.547,-1.282,0.183,-0.61,19.517,-54.586,-133.835,-25.213,-11.827,2.1,28.53,-0.41534,0.3566,0.31601,0.77484,213,0.69,-0.079,0.715,2.075,-1.16,0.732,-5.845,-43.401,157.357,-18.88,-7.667,-27.6,32.5,-0.202,-0.35242,0.1207,-0.90573,217,0.928,0.013,0.336,0.183,-0.977,0.0,2.538,-70.065,-158.879,-29.673,-10.787,-5.72,32.64,0.16248,-0.55988,-0.12256,-0.80313,211
54,0.911,0.03,0.458,-0.061,-0.671,0.0,3.719,-63.144,167.986,-25.407,-11.76,-14.96,29.68,0.07306,0.52267,-0.02774,0.84888,220,0.823,0.193,0.543,-1.038,0.122,-0.854,19.517,-54.58,-133.868,-25.213,-11.827,2.1,28.53,-0.41534,0.3566,0.31601,0.77484,218,0.69,-0.075,0.711,1.343,-0.854,-0.061,-5.823,-43.418,157.374,-18.88,-7.667,-27.6,32.5,-0.20032,-0.35303,0.11868,-0.90613,222,0.925,0.016,0.336,0.122,-0.671,0.183,2.538,-70.076,-158.868,-29.673,-10.787,-5.72,32.64,0.16248,-0.55988,-0.12256,-0.80313,214
55,0.909,0.031,0.458,0.0,-0.61,0.122,3.719,-63.155,167.948,-25.407,-11.76,-14.96,29.68,0.07306,0.52267,-0.02774,0.84888,221,0.823,0.202,0.543,-1.099,0.244,-1.282,19.523,-54.569,-133.907,-25.213,-11.827,2.1,28.53,-0.41534,0.3566,0.31601,0.77484,219,0.692,-0.066,0.711,0.977,-0.61,-0.488,-5.795,-43.434,157.379,-18.88,-7.667,-27.6,32.5,-0.20032,-0.35303,0.11868,-0.90613,223,0.929,0.017,0.336,0.0,-0.366,0.305,2.527,-70.087,-158.884,-29.673,-10.787,-5.72,32.64,0.16248,-0.55988,-0.12256,-0.80313,215
56,0.917,0.029,0.458,-0.061,-0.549,0.244,3.713,-63.166,167.937,-25.14,-11.727,-15.3,29.68,0.07306,0.52267,-0.02774,0.84888,230,0.822,0.203,0.549,-1.709,1.038,-1.587,19.528,-54.542,-133.951,-25.213,-11.827,2.1,28.53,-0.41534,0.3566,0.31601,0.77484,226,0.688,-0.068,0.718,1.526,-0.732,0.0,-5.768,-43.451,157.39,-18.88,-7.667,-27.6,32.5,-0.20032,-0.35303,0.11868,-0.90613,228,0.935,0.014,0.333,-0.183,-0.488,0.61,2.505,-70.093,-158.895,-29.673,-10.787,-5.72,32.64,0.16248,-0.55988,-0.12256,-0.80313,224
57,0.918,0.029,0.459,0.061,-0.488,0.183,3.708,-63.177,167.937,-25.14,-11.727,-15.3,29.68,0.07306,0.52267,-0.02774,0.84888,231,0.817,0.194,0.549,-2.502,1.709,-1.648,19.512,-54.503,-133.995,-25.213,-11.827,2.1,28.53,-0.41534,0.3566,0.31601,0.77484,227,0.684,-0.075,0.718,1.038,-1.282,0.122,-5.751,-43.473,157.407,-18.88,-7.667,-27.6,32.5,-0.20032,-0.35303,0.11868,-0.90613,229,0.937,0.012,0.332,-0.183,-0.488,0.671,2.466,-70.104,-158.906,-29.673,-10.787,-5.72,32.64,0.16248,-0.55988,-0.12256,-0.80313,225
58,0.911,0.033,0.458,0.122,-0.061,0.0,3.713,-63.182,167.932,-25.14,-11.727,-15.3,29.68,0.0726,0.52356,-0.02756,0.84839,236,0.811,0.19,0.549,-2.258,1.404,-1.465,19.495,-54.465,-134.028,-25.213,-11.827,2.1,28.53,-0.41534,0.3566,0.31601,0.77484,234,0.684,-0.076,0.717,1.282,-2.014,0.366,-5.735,-43.511,157.445,-18.88,-7.667,-27.6,32.5,-0.20032,-0.35303,0.11868,-0.90613,238,0.931,0.014,0.331,0.061,-0.183,0.549,2.433,-70.109,-158.917,-29.673,-10.787,-5.72,32.64,0.16248,-0.55988,-0.12256,-0.80313,232
59,0.909,0.036,0.458,0.0,0.0,0.0,3.713,-63.182,167.915,-25.14,-11.727,-15.3,29.68,0.0726,0.52356,-0.02756,0.84839,237,0.81,0.193,0.548,-1.282,0.61,-1.282,19.495,-54.443,-134.066,-25.213,-11.827,2.1,28.53,-0.41534,0.3566,0.31601,0.77484,235,0.679,-0.073,0.718,1.038,-2.441,-0.183,-5.718,-43.555,157.467,-18.88,-7.667,-27.6,32.5,-0.20032,-0.35303,0.11868,-0.90613,239,0.928,0.019,0.333,-0.305,0.0,0.488,2.401,-70.115,-158.912,-29.673,-10.787,-5.72,32.64,0.16248,-0.55988,-0.12256,-0.80313,233
60,0.907,0.036,0.456,-0.122,0.0,0.366,3.708,-63.182,167.91,-25.14,-11.727,-15.3,29.68,0.0726,0.52356,-0.02756,0.84839,244,0.809,0.194,0.552,0.183,-0.061,-0.916,19.517,-54.437,-134.088,-25.213,-11.827,2.1,28.53,-0.41534,0.3566,0.31601,0.77484,242,0.683,-0.068,0.717,0.61,-2.93,0.122,-5.713,-43.61,157.495,-18.88,-7.667,-27.6,32.5,-0.20032,-0.35303,0.11868,-0.90613,246,0.926,0.017,0.333,-1.16,0.061,0.305,2.368,-70.115,-158.923,-29.673,-10.787,-5.72,32.64,0.16248,-0.55988,-0.12256,-0.80313,240
61,0.909,0.03,0.455,-0.366,0.122,0.305,3.697,-63.182,167.904,-25.14,-11.727,-15.3,29.68,0.0726,0.52356,-0.02756,0.84839,245,0.814,0.191,0.549,0.122,0.122,-0.427,19.534,-54.432,-134.099,-25.213,-11.827,2.1,28.53,-0.41534,0.3566,0.31601,0.77484,243,0.693,-0.071,0.704,0.549,-2.747,0.732,-5.718,-43.665,157.549,-18.88,-7.667,-27.6,32.5,-0.20032,-0.35303,0.11868,-0.90613,247,0.925,0.008,0.331,-0.977,0.427,0.061,2.34,-70.109,-158.928,-29.673,-10.787,-5.72,32.64,0.16248,-0.55988,-0.12256,-0.80313,241
62,0.914,0.026,0.455,-0.488,0.061,0.122,3.68,-63.182,167.893,-25.14,-11.727,-15.3,29.68,0.0726,0.52356,-0.02756,0.84839,250,0.82,0.189,0.541,-0.122,0.122,-0.244,19.539,-54.426,-134.105,-25.213,-11.827,2.1,28.53,-0.41534,0.3566,0.31601,0.77484,248,0.695,-0.077,0.701,-0.122,-1.343,0.183,-5.729,-43.698,157.588,-18.88,-7.667,-27.6,32.5,-0.20032,-0.35303,0.11868,-0.90613,254,0.933,0.005,0.332,-0.427,0.61,-0.122,2.329,-70.104,-158.934,-29.507,-10.727,-6.013,32.64,0.16248,-0.55988,-0.12256,-0.80313,252
63,0.913,0.028,0.457,-0.305,0.305,0.122,3.675,-63.182,167.899,-25.14,-11.727,-15.3,29.68,0.0726,0.52356,-0.02756,0.84839,251,0.821,0.193,0.543,0.305,-0.183,-0.122,19.545,-54.432,-134.116,-25.213,-11.827,2.1,28.53,-0.41534,0.3566,0.31601,0.77484,249,0.693,-0.073,0.712,0.0,-1.343,0.183,-5.735,-43.726,157.593,-18.88,-7.667,-27.6,32.5,-0.20032,-0.35303,0.11868,-0.90613,255,0.935,0.011,0.327,-0.244,1.099,-0.122,2.324,-70.087,-158.928,-29.507,-10.727,-6.013,32.64,0.16248,-0.55988,-0.12256,-0.80313,253
64,0.913,0.029,0.459,0.0,0.427,0.366,3.658,-63.177,167.888,-25.14,-11.727,-15.3,29.68,0.0726,0.52356,-0.02756,0.84839,258,0.82,0.2,0.555,0.732,-0.122,-0.183,19.567,-54.432,-134.127,-25.213,-11.827,2.1,28.53,-0.41534,0.3566,0.31601,0.77484,256,0.692,-0.068,0.718,0.366,-1.038,0.854,-5.746,-43.748,157.604,-18.88,-7.667,-27.6,32.5,-0.20032,-0.35303,0.11868,-0.90613,262,0.931,0.015,0.335,-0.061,0.977,-0.122,2.324,-70.071,-158.917,-29.507,-10.727,-6.013,32.64,0.16122,-0.56119,-0.12134,-0.80264,260
65,0.908,0.027,0.459,0.061,0.427,0.427,3.647,-63.166,167.866,-25.14,-11.727,-15.3,29.68,0.0726,0.52356,-0.02756,0.84839,259,0.815,0.204,0.554,0.0,0.732,-0.305,19.572,-54.421,-134.127,-25.213,-11.827,2.1,28.53,-0.41534,0.3566,0.31601,0.77484,257,0.689,-0.064,0.716,0.183,-0.854,0.854,-5.762,-43.764,157.637,-18.88,-7.667,-27.6,32.5,-0.20032,-0.35303,0.11868,-0.90613,263,0.928,0.011,0.342,-0.061,0.793,0.0,2.324,-70.054,-158.895,-29.507,-10.727,-6.013,32.64,0.16122,-0.56119,-0.12134,-0.80264,261
66,0.906,0.023,0.46,0.0,0.427,0.122,3.636,-63.16,167.833,-25.14,-11.727,-15.3,29.68,0.0726,0.52356,-0.02756,0.84839,264,0.812,0.196,0.547,-0.183,1.038,0.061,19.561,-54.404,-134.116,-24.78,-12.1,1.38,28.53,-0.41534,0.3566,0.31601,0.77484,274,0.686,-0.07,0.704,-0.183,-0.793,1.099,-5.784,-43.781,157.659,-18.88,-7.667,-27.6,32.5,-0.20032,-0.35303,0.11868,-0.90613,268,0.925,0.004,0.335,0.183,0.854,0.183,2.313,-70.038,-158.862,-29.507,-10.727,-6.013,32.64,0.16122,-0.56119,-0.12134,-0.80264,266
67,0.909,0.025,0.458,0.061,0.366,-0.122,3.636,-63.155,167.772,-25.14,-11.727,-15.3,29.68,0.0726,0.52356,-0.02756,0.84839,265,0.814,0.191,0.544,0.122,0.305,0.793,19.545,-54.399,-134.099,-24.78,-12.1,1.38,28.53,-0.41534,0.3566,0.31601,0.77484,275,0.694,-0.075,0.711,-0.122,-0.305,1.526,-5.812,-43.786,157.687,-18.88,-7.667,-27.6,32.5,-0.20032,-0.35303,0.11868,-0.90613,269,0.926,0.004,0.334,-0.061,1.16,0.061,2.302,-70.021,-158.818,-29.507,-10.727,-6.013,32.64,0.16122,-0.56119,-0.12134,-0.80264,267
68,0.912,0.028,0.459,0.183,0.366,-0.122,3.642,-63.149,167.734,-25.14,-11.727,-15.3,29.68,0.0726,0.52356,-0.02756,0.84839,270,0.818,0.199,0.553,0.122,0.244,0.732,19.523,-54.404,-134.083,-24.78,-12.1,1.38,28.53,-0.41324,0.35596,0.31458,0.77679,280,0.691,-0.072,0.713,0.61,-0.427,2.014,-5.839,-43.792,157.742,-19.413,-7.753,-27.113,32.5,-0.20032,-0.35303,0.11868,-0.90613,276,0.928,0.011,0.338,0.0,1.16,0.061,2.291,-69.999,-158.802,-29.507,-10.727,-6.013,32.64,0.16122,-0.56119,-0.12134,-0.80264,272
69,0.909,0.031,0.46,0.183,0.244,-0.061,3.642,-63.144,167.712,-25.14,-11.727,-15.3,29.68,0.0726,0.52356,-0.02756,0.84839,271,0.815,0.201,0.556,-0.244,0.61,0.427,19.506,-54.393,-134.061,-24.78,-12.1,1.38,28.53,-0.41324,0.35596,0.31458,0.77679,281,0.685,-0.07,0.717,-0.122,0.122,0.854,-5.861,-43.792,157.775,-19.413,-7.753,-27.113,32.5,-0.20032,-0.35303,0.11868,-0.90613,277,0.927,0.016,0.341,-0.183,0.916,0.305,2.269,-69.983,-158.785,-29.507,-10.727,-6.013,32.64,0.16122,-0.56119,-0.12134,-0.80264,273
70,0.907,0.033,0.459,0.0,0.305,-0.183,3.647,-63.138,167.695,-25.14,-11.727,-15.3,29.68,0.0726,0.52356,-0.02756,0.84839,278,0.812,0.198,0.559,-0.183,0.977,0.488,19.479,-54.377,-134.033,-24.78,-12.1,1.38,28.53,-0.41324,0.35596,0.31458,0.77679,288,0.683,-0.077,0.715,0.671,0.916,1.77,-5.878,-43.775,157.813,-19.413,-7.753,-27.113,32.5,-0.19702,-0.3562,0.11832,-0.90564,284,0.925,0.012,0.339,-0.122,0.366,0.183,2.247,-69.972,-158.763,-29.507,-10.727,-6.013,32.64,0.16122,-0.56119,-0.12134,-0.80264,282
71,0.906,0.032,0.459,0.0,0.0,-0.122,3.658,-63.138,167.673,-25.14,-11.727,-15.3,29.68,0.0726,0.52356,-0.02756,0.84839,279,0.806,0.192,0.556,-0.732,1.587,0.122,19.451,-54.349,-134.006,-24.78,-12.1,1.38,28.53,-0.41324,0.35596,0.31458,0.77679,289,0.677,-0.078,0.715,0.427,1.16,0.793,-5.883,-43.753,157.835,-19.413,-7.753,-27.113,32.5,-0.19702,-0.3562,0.11832,-0.90564,285,0.924,0.014,0.346,-0.427,0.122,0.0,2.23,-69.966,-158.741,-29.507,-10.727,-6.013,32.64,0.16122,-0.56119,-0.12134,-0.80264,283
72,0.906,0.031,0.458,0.0,-0.061,-0.122,3.664,-63.138,167.635,-25.14,-11.727,-15.3,29.68,0.0726,0.52356,-0.02756,0.84839,286,0.808,0.194,0.555,-0.305,1.099,0.122,19.429,-54.327,-133.978,-24.78,-12.1,1.38,28.53,-0.41324,0.35596,0.31458,0.77679,294,0.686,-0.073,0.717,0.366,0.732,0.488,-5.883,-43.737,157.857,-19.413,-7.753,-27.113,32.5,-0.19702,-0.3562,0.11832,-0.90564,292,0.923,0.013,0.34,-0.549,0.0,0.0,2.219,-69.966,-158.714,-29.507,-10.727,-6.013,32.64,0.16122,-0.56119,-0.12134,-0.80264,290
73,0.906,0.031,0.458,-0.183,-0.122,-0.183,3.669,-63.138,167.585,-25.14,-11.727,-15.3,29.68,0.0726,0.52356,-0.02756,0.84839,287,0.817,0.198,0.553,0.366,0.305,0.244,19.429,-54.322,-133.956,-24.78,-12.1,1.38,28.53,-0.41324,0.35596,0.31458,0.77679,295,0.693,-0.073,0.714,0.61,0.854,0.244,-5.878,-43.72,157.885,-19.413,-7.753,-27.113,32.5,-0.19702,-0.3562,0.11832,-0.90564,293,0.921,0.012,0.34,-0.793,-0.061,0.0,2.203,-69.966,-158.692,-29.507,-10.727,-6.013,32.64,0.16122,-0.56119,-0.12134,-0.80264,291
74,0.906,0.031,0.46,-0.244,-0.366,-0.122,3.669,-63.144,167.542,-24.947,-11.72,-15.347,29.68,0.0726,0.52356,-0.02756,0.84839,304,0.819,0.197,0.558,-0.183,0.549,0.0,19.424,-54.311,-133.951,-24.78,-12.1,1.38,28.53,-0.41324,0.35596,0.31458,0.77679,298,0.688,-0.077,0.715,0.244,1.221,-0.122,-5.867,-43.698,157.879,-19.413,-7.753,-27.113,32.5,-0.19702,-0.3562,0.11832,-0.90564,300,0.923,0.012,0.342,-0.366,-0.122,0.061,2.186,-69.966,-158.67,-29.507,-10.727,-6.013,32.64,0.16122,-0.56119,-0.12134,-0.80264,296
75,0.909,0.032,0.46,-0.122,-0.61,0.0,3.675,-63.155,167.503,-24.947,-11.72,-15.347,29.68,0.0726,0.52356,-0.02756,0.84839,305,0.812,0.197,0.562,-1.038,1.526,-0.549,19.402,-54.272,-133.945,-24.78,-12.1,1.38,28.53,-0.41324,0.35596,0.31458,0.77679,299,0.681,-0.077,0.718,0.366,2.686,-0.488,-5.85,-43.649,157.83,-19.413,-7.753,-27.113,32.5,-0.19702,-0.3562,0.11832,-0.90564,301,0.925,0.012,0.347,0.183,-0.366,0.122,2.181,-69.966,-158.626,-29.507,-10.727,-6.013,32.64,0.16122,-0.56119,-0.12134,-0.80264,297
76,0.907,0.03,0.46,0.0,-0.854,0.0,3.675,-63.171,167.476,-24.947,-11.72,-15.347,29.68,0.07614,0.52335,-0.02991,0.84811,308,0.808,0.196,0.559,-1.953,1.831,-1.099,19.38,-54.229,-133.962,-24.78,-12.1,1.38,28.53,-0.41324,0.35596,0.31458,0.77679,306,0.68,-0.075,0.72,-0.122,2.625,-1.038,-5.828,-43.599,157.769,-19.413,-7.753,-27.113,32.5,-0.19702,-0.3562,0.11832,-0.90564,310,0.926,0.013,0.344,0.183,-0.854,0.122,2.181,-69.983,-158.582,-29.507,-10.727,-6.013,32.64,0.16122,-0.56119,-0.12134,-0.80264,302
77,0.901,0.03,0.462,0.0,-1.099,0.0,3.68,-63.188,167.454,-24.947,-11.72,-15.347,29.68,0.07614,0.52335,-0.02991,0.84811,309,0.812,0.196,0.558,-1.404,1.526,-1.221,19.369,-54.19,-133.978,-24.78,-12.1,1.38,28.53,-0.41324,0.35596,0.31458,0.77679,307,0.688,-0.076,0.708,0.549,5.188,-1.587,-5.79,-43.511,157.698,-19.413,-7.753,-27.113,32.5,-0.19702,-0.3562,0.11832,-0.90564,311,0.922,0.013,0.343,-0.061,-1.16,0.305,2.164,-69.999,-158.549,-29.507,-10.727,-6.013,32.64,0.16122,-0.56119,-0.12134,-0.80264,303
78,0.905,0.028,0.458,0.061,-1.343,-0.061,3.686,-63.215,167.443,-24.947,-11.72,-15.347,29.68,0.07614,0.52335,-0.02991,0.84811,316,0.811,0.191,0.554,-1.77,1.587,-1.648,19.363,-54.152,-134.0,-24.78,-12.1,1.38,28.53,-0.41324,0.35596,0.31458,0.77679,314,0.685,-0.073,0.708,-0.183,7.263,-1.343,-5.751,-43.385,157.626,-19.413,-7.753,-27.113,32.5,-0.19702,-0.3562,0.11832,-0.90564,318,0.921,0.006,0.345,0.0,-1.16,0.183,2.153,-70.021,-158.527,-29.507,-10.727,-6.013,32.64,0.16122,-0.56119,-0.12134,-0.80264,312
79,0.915,0.03,0.458,0.122,-1.587,-0.122,3.697,-63.243,167.432,-24.947,-11.72,-15.347,29.68,0.07614,0.52335,-0.02991,0.84811,317,0.811,0.198,0.557,-2.747,2.747,-1.892,19.33,-54.086,-134.011,-24.78,-12.1,1.38,28.53,-0.41324,0.35596,0.31458,0.77679,315,0.682,-0.067,0.718,0.61,6.592,-1.587,-5.707,-43.259,157.516,-19.413,-7.753,-27.113,32.5,-0.19702,-0.3562,0.11832,-0.90564,319,0.931,0.006,0.341,0.244,-1.587,0.0,2.153,-70.043,-158.522,-29.507,-10.727,-6.013,32.64,0.16122,-0.56119,-0.12134,-0.80264,313
80,0.919,0.032,0.458,0.122,-1.404,-0.122,3.713,-63.27,167.415,-24.947,-11.72,-15.347,29.68,0.07614,0.52335,-0.02991,0.84811,322,0.81,0.2,0.548,-3.052,3.54,-1.831,19.292,-54.003,-134.017,-24.78,-12.1,1.38,28.53,-0.41324,0.35596,0.31458,0.77679,320,0.681,-0.06,0.718,-0.671,5.798,-0.732,-5.685,-43.149,157.423,-19.413,-7.753,-27.113,32.5,-0.19702,-0.3562,0.11832,-0.90564,326,0.937,0.011,0.33,0.244,-1.221,-0.122,2.164,-70.065,-158.527,-29.367,-10.48,-6.007,32.64,0.16122,-0.56119,-0.12134,-0.80264,324
81,0.918,0.031,0.459,0.122,-0.916,0.0,3.719,-63.287,167.415,-24.947,-11.72,-15.347,29.68,0.07614,0.52335,-0.02991,0.84811,323,0.809,0.197,0.552,-1.831,2.014,-0.793,19.259,-53.965,-133.995,-24.78,-12.1,1.38,28.53,-0.41324,0.35596,0.31458,0.77679,321,0.68,-0.065,0.725,-1.099,4.333,0.244,-5.696,-43.061,157.368,-19.413,-7.753,-27.113,32.5,-0.19702,-0.3562,0.11832,-0.90564,327,0.939,0.014,0.329,-0.122,-1.221,-0.061,2.164,-70.087,-158.555,-29.367,-10.48,-6.007,32.64,0.16122,-0.56119,-0.12134,-0.80264,325
82,0.915,0.03,0.456,0.061,-0.366,0.0,3.724,-63.298,167.426,-24.947,-11.72,-15.347,29.68,0.07614,0.52335,-0.02991,0.84811,328,0.808,0.197,0.558,-0.671,1.587,0.061,19.232,-53.937,-133.962,-24.78,-12.1,1.38,28.53,-0.41324,0.35596,0.31458,0.77679,334,0.673,-0.069,0.719,-0.916,2.869,0.854,-5.718,-43.0,157.341,-18.893,-7.58,-28.113,32.5,-0.19702,-0.3562,0.11832,-0.90564,332,0.936,0.013,0.326,0.183,-0.977,0.061,2.164,-70.109,-158.566,-29.367,-10.48,-6.007,32.64,0.16284,-0.56134,-0.12198,-0.80212,330
83,0.913,0.032,0.451,0.0,0.0,0.0,3.724,-63.298,167.432,-24.947,-11.72,-15.347,29.68,0.07614,0.52335,-0.02991,0.84811,329,0.802,0.195,0.552,-0.061,1.404,0.427,19.21,-53.915,-133.923,-24.78,-12.1,1.38,28.53,-0.41324,0.35596,0.31458,0.77679,335,0.669,-0.071,0.723,0.0,1.404,1.038,-5.735,-42.968,157.324,-18.893,-7.58,-28.113,32.5,-0.19702,-0.3562,0.11832,-0.90564,333,0.927,0.013,0.326,0.427,-0.793,0.305,2.159,-70.126,-158.549,-29.367,-10.48,-6.007,32.64,0.16284,-0.56134,-0.12198,-0.80212,331
84,0.916,0.03,0.447,0.122,0.244,0.0,3.73,-63.298,167.426,-24.947,-11.72,-15.347,29.68,0.07614,0.52335,-0.02991,0.84811,336,0.806,0.196,0.555,0.366,0.793,0.61,19.199,-53.904,-133.89,-24.867,-12.007,1.373,28.53,-0.41324,0.35596,0.31458,0.77679,340,0.678,-0.07,0.725,0.61,0.671,0.916,-5.74,-42.951,157.302,-18.893,-7.58,-28.113,32.5,-0.19702,-0.3562,0.11832,-0.90564,342,0.924,0.015,0.324,0.183,-0.671,0.427,2.142,-70.142,-158.516,-29.367,-10.48,-6.007,32.64,0.16284,-0.56134,-0.12198,-0.80212,338
85,0.916,0.026,0.446,0.061,0.244,0.0,3.73,-63.292,167.393,-24.947,-11.72,-15.347,29.68,0.07614,0.52335,-0.02991,0.84811,337,0.809,0.199,0.554,0.854,-0.366,0.732,19.204,-53.915,-133.863,-24.867,-12.007,1.373,28.53,-0.41324,0.35596,0.31458,0.77679,341,0.674,-0.066,0.725,0.916,0.061,1.16,-5.74,-42.951,157.308,-18.893,-7.58,-28.113,32.5,-0.19702,-0.3562,0.11832,-0.90564,343,0.929,0.016,0.322,0.061,-0.549,0.549,2.115,-70.153,-158.483,-29.367,-10.48,-6.007,32.64,0.16284,-0.56134,-0.12198,-0.80212,339
86,0.91,0.027,0.449,0.122,0.305,-0.305,3.741,-63.292,167.338,-24.947,-11.72,-15.347,29.68,0.07614,0.52335,-0.02991,0.84811,348,0.801,0.203,0.563,1.709,-0.671,1.038,19.221,-53.932,-133.83,-24.867,-12.007,1.373,28.53,-0.41324,0.35596,0.31458,0.77679,346,0.665,-0.063,0.733,0.488,-0.122,1.404,-5.751,-42.951,157.33,-18.893,-7.58,-28.113,32.5,-0.20084,-0.3493,0.11765,-0.90759,350,0.927,0.008,0.331,1.099,-0.793,0.854,2.093,-70.175,-158.439,-29.367,-10.48,-6.007,32.64,0.16284,-0.56134,-0.12198,-0.80212,344
87,0.905,0.033,0.453,0.122,0.244,-0.427,3.757,-63.287,167.3,-24.947,-11.72,-15.347,29.68,0.07614,0.52335,-0.02991,0.84811,349,0.797,0.201,0.569,1.831,-0.732,1.587,19.226,-53.954,-133.781,-24.867,-12.007,1.373,28.53,-0.41324,0.35596,0.31458,0.77679,347,0.667,-0.065,0.734,-0.366,0.244,1.77,-5.784,-42.946,157.357,-18.893,-7.58,-28.113,32.5,-0.20084,-0.3493,0.11765,-0.90759,351,0.923,0.009,0.334,1.831,-0.977,0.977,2.076,-70.197,-158.357,-29.367,-10.48,-6.007,32.64,0.16284,-0.56134,-0.12198,-0.80212,345
88,0.902,0.036,0.459,0.0,0.0,-0.122,3.768,-63.287,167.272,-24.947,-11.72,-15.347,29.68,0.07614,0.52335,-0.02991,0.84811,352,0.802,0.203,0.562,1.526,-1.709,2.075,19.226,-53.998,-133.753,-24.867,-12.007,1.373,28.53,-0.41452,0.35297,0.31244,0.77835,358,0.675,-0.065,0.724,-0.916,1.587,1.282,-5.817,-42.913,157.346,-18.893,-7.58,-28.113,32.5,-0.20084,-0.3493,0.11765,-0.90759,356,0.92,0.018,0.34,1.099,-1.587,0.977,2.049,-70.225,-158.291,-29.367,-10.48,-6.007,32.64,0.16284,-0.56134,-0.12198,-0.80212,354
89,0.899,0.034,0.464,-0.183,-0.366,-0.122,3.774,-63.298,167.239,-24.947,-11.72,-15.347,29.68,0.07614,0.52335,-0.02991,0.84811,353,0.812,0.212,0.558,1.709,-2.502,1.709,19.243,-54.053,-133.759,-24.867,-12.007,1.373,28.53,-0.41452,0.35297,0.31244,0.77835,359,0.673,-0.068,0.726,0.0,2.258,0.549,-5.823,-42.869,157.319,-18.893,-7.58,-28.113,32.5,-0.20084,-0.3493,0.11765,-0.90759,357,0.927,0.021,0.347,0.122,-2.441,1.16,2.005,-70.269,-158.225,-29.367,-10.48,-6.007,32.64,0.16284,-0.56134,-0.12198,-0.80212,355
90,0.898,0.031,0.468,-0.244,-0.671,-0.244,3.779,-63.309,167.206,-24.947,-11.72,-15.347,29.68,0.07614,0.52335,-0.02991,0.84811,362,0.807,0.201,0.56,1.282,-2.075,0.977,19.27,-54.091,-133.77,-24.867,-12.007,1.373,28.53,-0.41452,0.35297,0.31244,0.77835,368,0.662,-0.081,0.727,0.549,1.77,0.916,-5.823,-42.83,157.302,-18.893,-7.58,-28.113,32.5,-0.20084,-0.3493,0.11765,-0.90759,366,0.926,0.019,0.345,-0.854,-2.319,1.587,1.923,-70.318,-158.148,-29.367,-10.48,-6.007,32.64,0.16284,-0.56134,-0.12198,-0.80212,360
91,0.899,0.032,0.465,-0.427,-0.977,-0.305,3.79,-63.32,167.19,-24.947,-11.72,-15.347,29.68,0.07614,0.52335,-0.02991,0.84811,363,0.8,0.182,0.57,-0.977,-0.488,0.732,19.243,-54.097,-133.753,-24.867,-12.007,1.373,28.53,-0.41452,0.35297,0.31244,0.77835,369,0.661,-0.083,0.729,-2.808,2.563,-0.488,-5.85,-42.781,157.275,-18.893,-7.58,-28.113,32.5,-0.20084,-0.3493,0.11765,-0.90759,367,0.921,0.008,0.337,-1.16,-1.465,1.465,1.824,-70.345,-158.055,-29.367,-10.48,-6.007,32.64,0.16284,-0.56134,-0.12198,-0.80212,361
92,0.909,0.037,0.464,-0.61,-1.221,-0.305,3.796,-63.342,167.168,-25.52,-11.893,-15.04,29.68,0.07614,0.52335,-0.02991,0.84811,374,0.804,0.194,0.563,-2.136,-0.61,0.671,19.188,-54.108,-133.731,-24.867,-12.007,1.373,28.53,-0.41452,0.35297,0.31244,0.77835,372,0.669,-0.072,0.741,-5.737,3.845,-3.113,-5.9,-42.715,157.187,-18.893,-7.58,-28.113,32.5,-0.20084,-0.3493,0.11765,-0.90759,370,0.926,0.006,0.341,-3.113,-1.404,0.732,1.73,-70.367,-157.978,-29.367,-10.48,-6.007,32.64,0.16284,-0.56134,-0.12198,-0.80212,364
93,0.912,0.037,0.458,-0.61,-1.282,-0.305,3.801,-63.364,167.141,-25.52,-11.893,-15.04,29.68,0.07614,0.52335,-0.02991,0.84811,375,0.808,0.207,0.566,-1.343,-2.197,0.183,19.177,-54.141,-133.742,-24.867,-12.007,1.373,28.53,-0.41452,0.35297,0.31244,0.77835,373,0.665,-0.077,0.742,-4.333,2.441,-3.418,-5.922,-42.665,157.083,-18.893,-7.58,-28.113,32.5,-0.20084,-0.3493,0.11765,-0.90759,371,0.928,0.013,0.335,-3.052,-1.343,0.549,1.648,-70.389,-157.906,-29.367,-10.48,-6.007,32.64,0.16284,-0.56134,-0.12198,-0.80212,365
94,0.911,0.035,0.455,-0.427,-0.977,-0.183,3.807,-63.38,167.113,-25.52,-11.893,-15.04,29.68,0.07803,0.52487,-0.03079,0.84698,380,0.809,0.194,0.578,-1.465,-1.465,-0.427,19.177,-54.157,-133.775,-24.867,-12.007,1.373,28.53,-0.41452,0.35297,0.31244,0.77835,376,0.664,-0.088,0.743,-4.456,1.343,-3.113,-5.949,-42.632,157.006,-18.893,-7.58,-28.113,32.5,-0.20084,-0.3493,0.11765,-0.90759,382,0.929,0.015,0.328,-2.136,-1.709,0.977,1.56,-70.422,-157.813,-29.367,-10.48,-6.007,32.64,0.16284,-0.56134,-0.12198,-0.80212,378
95,0.921,0.031,0.453,-0.244,-1.16,0.061,3.807,-63.397,167.086,-25.52,-11.893,-15.04,29.68,0.07803,0.52487,-0.03079,0.84698,381,0.808,0.182,0.567,-3.052,-1.099,-0.488,19.138,-54.168,-133.786,-24.867,-12.007,1.373,28.53,-0.41452,0.35297,0.31244,0.77835,377,0.668,-0.083,0.742,-6.775,0.183,-3.845,-6.004,-42.627,156.951,-18.893,-7.58,-28.113,32.5,-0.20084,-0.3493,0.11765,-0.90759,383,0.937,0.006,0.333,-1.465,-1.77,0.793,1.494,-70.45,-157.742,-29.367,-10.48,-6.007,32.64,0.16284,-0.56134,-0.12198,-0.80212,379
96,0.918,0.031,0.45,-0.183,-1.282,0.061,3.812,-63.419,167.086,-25.52,-11.893,-15.04,29.68,0.07803,0.52487,-0.03079,0.84698,388,0.814,0.187,0.562,-3.174,-2.93,0.0,19.1,-54.212,-133.802,-24.867,-12.007,1.373,28.53,-0.41452,0.35297,0.31244,0.77835,386,0.672,-0.084,0.739,-7.935,-0.549,-4.639,-6.075,-42.638,156.857,-18.893,-7.58,-28.113,32.5,-0.20084,-0.3493,0.11765,-0.90759,390,0.938,0.0,0.323,-2.258,-2.136,0.366,1.439,-70.494,-157.736,-29.02,-10.827,-5.707,32.64,0.16284,-0.56134,-0.12198,-0.80212,384
97,0.912,0.033,0.445,-0.366,-1.221,-0.122,3.812,-63.446,167.069,-25.52,-11.893,-15.04,29.68,0.07803,0.52487,-0.03079,0.84698,389,0.815,0.188,0.567,-2.319,-3.662,0.305,19.078,-54.272,-133.819,-24.867,-12.007,1.373,28.53,-0.41452,0.35297,0.31244,0.77835,387,0.666,-0.086,0.741,-7.202,-1.526,-4.578,-6.141,-42.665,156.775,-18.893,-7.58,-28.113,32.5,-0.20084,-0.3493,0.11765,-0.90759,391,0.926,0.005,0.325,-2.869,-2.441,0.0,1.384,-70.538,-157.758,-29.02,-10.827,-5.707,32.64,0.16284,-0.56134,-0.12198,-0.80212,385
98,0.908,0.033,0.444,-0.793,-1.587,-0.305,3.818,-63.474,167.036,-25.52,-11.893,-15.04,29.68,0.07803,0.52487,-0.03079,0.84698,392,0.806,0.187,0.563,-2.563,-2.808,0.122,19.045,-54.322,-133.841,-24.867,-12.007,1.373,28.53,-0.41452,0.35297,0.31244,0.77835,398,0.669,-0.092,0.726,-3.418,-4.272,-2.747,-6.18,-42.737,156.725,-18.573,-7.233,-27.387,32.5,-0.20084,-0.3493,0.11765,-0.90759,396,0.923,0.003,0.326,-1.77,-2.747,-0.183,1.368,-70.593,-157.78,-29.02,-10.827,-5.707,32.64,0.16284,-0.56134,-0.12198,-0.80212,394
99,0.912,0.03,0.444,-0.61,-2.014,-0.061,3.818,-63.512,167.009,-25.52,-11.893,-15.04,29.68,0.07803,0.52487,-0.03079,0.84698,393,0.822,0.18,0.551,-2.991,-2.258,-0.549,19.012,-54.349,-133.874,-24.867,-12.007,1.373,28.53,-0.41452,0.35297,0.31244,0.77835,399,0.687,-0.095,0.711,-0.549,-3.662,-2.808,-6.163,-42.808,156.693,-18.573,-7.233,-27.387,32.5,-0.20084,-0.3493,0.11765,-0.90759,397,0.927,0.006,0.329,-1.221,-3.174,-0.244,1.362,-70.653,-157.797,-29.02,-10.827,-5.707,32.64,0.16284,-0.56134,-0.12198,-0.80212,395
100,0.915,0.024,0.448,-0.061,-2.014,0.244,3.818,-63.55,167.003,-25.52,-11.893,-15.04,29.68,0.07803,0.52487,-0.03079,0.84698,400,0.823,0.19,0.542,-2.136,-1.953,-1.77,19.023,-54.377,-133.94,-24.64,-11.707,0.78,28.53,-0.41452,0.35297,0.31244,0.77835,402,0.687,-0.083,0.711,1.16,-2.747,-2.869,-6.108,-42.869,156.643,-18.573,-7.233,-27.387,32.5,-0.20724,-0.34747,0.12238,-0.90622,406,0.933,0.003,0.316,-0.305,-3.723,-0.244,1.373,-70.724,-157.813,-29.02,-10.827,-5.707,32.64,0.16382,-0.56549,-0.12085,-0.79916,404
101,0.915,0.021,0.452,0.061,-1.831,0.366,3.807,-63.589,167.003,-25.52,-11.893,-15.04,29.68,0.07803,0.52487,-0.03079,0.84698,401,0.828,0.188,0.542,-1.892,-1.038,-1.282,19.039,-54.393,-134.006,-24.64,-11.707,0.78,28.53,-0.41452,0.35297,0.31244,0.77835,403,0.689,-0.068,0.71,2.869,-3.052,-2.563,-6.021,-42.935,156.605,-18.573,-7.233,-27.387,32.5,-0.20724,-0.34747,0.12238,-0.90622,407,0.933,0.0,0.322,1.282,-3.662,0.183,1.39,-70.796,-157.797,-29.02,-10.827,-5.707,32.64,0.16382,-0.56549,-0.12085,-0.79916,405
102,0.917,0.027,0.457,0.244,-1.892,0.732,3.79,-63.627,167.02,-25.52,-11.893,-15.04,29.68,0.07803,0.52487,-0.03079,0.84698,408,0.838,0.188,0.533,-1.282,-1.099,-0.61,19.039,-54.404,-134.05,-24.64,-11.707,0.78,28.53,-0.41452,0.35297,0.31244,0.77835,414,0.704,-0.072,0.702,1.465,-0.671,-1.343,-5.966,-42.962,156.572,-18.573,-7.233,-27.387,32.5,-0.20724,-0.34747,0.12238,-0.90622,412,0.938,0.001,0.324,1.343,-3.052,0.366,1.39,-70.856,-157.769,-29.02,-10.827,-5.707,32.64,0.16382,-0.56549,-0.12085,-0.79916,410
103,0.92,0.029,0.452,0.61,-1.831,0.732,3.774,-63.666,167.014,-25.52,-11.893,-15.04,29.68,0.07803,0.52487,-0.03079,0.84698,409,0.835,0.196,0.531,-0.305,-0.488,-0.427,19.039,-54.421,-134.077,-24.64,-11.707,0.78,28.53,-0.41452,0.35297,0.31244,0.77835,415,0.708,-0.069,0.696,0.732,0.854,-0.916,-5.927,-42.957,156.555,-18.573,-7.233,-27.387,32.5,-0.20724,-0.34747,0.12238,-0.90622,413,0.942,-0.004,0.323,2.258,-2.136,0.305,1.412,-70.895,-157.725,-29.02,-10.827,-5.707,32.64,0.16382,-0.56549,-0.12085,-0.79916,411
104,0.919,0.03,0.451,0.793,-1.526,0.671,3.768,-63.699,166.992,-25.52,-11.893,-15.04,29.68,0.07803,0.52487,-0.03079,0.84698,420,0.823,0.195,0.533,0.305,0.549,-0.061,19.05,-54.426,-134.094,-24.64,-11.707,0.78,28.53,-0.41168,0.35791,0.31137,0.77805,418,0.692,-0.062,0.703,1.587,1.648,0.0,-5.894,-42.935,156.555,-18.573,-7.233,-27.387,32.5,-0.20724,-0.34747,0.12238,-0.90622,422,0.941,0.0,0.316,2.441,-1.709,0.61,1.417,-70.928,-157.676,-29.02,-10.827,-5.707,32.64,0.16382,-0.56549,-0.12085,-0.79916,416
105,0.916,0.032,0.448,1.16,-1.099,0.549,3.768,-63.721,166.965,-25.52,-11.893,-15.04,29.68,0.07803,0.52487,-0.03079,0.84698,421,0.817,0.188,0.54,0.427,1.343,0.244,19.05,-54.421,-134.088,-24.64,-11.707,0.78,28.53,-0.41168,0.35791,0.31137,0.77805,419,0.682,-0.07,0.709,2.563,1.343,1.16,-5.867,-42.918,156.577,-18.573,-7.233,-27.387,32.5,-0.20724,-0.34747,0.12238,-0.90622,423,0.938,0.004,0.316,3.113,-1.526,0.61,1.439,-70.961,-157.621,-29.02,-10.827,-5.707,32.64,0.16382,-0.56549,-0.12085,-0.79916,417
106,0.922,0.032,0.446,1.221,-0.854,0.549,3.774,-63.737,166.943,-25.52,-11.893,-15.04,29.68,0.07803,0.52487,-0.03079,0.84698,428,0.819,0.185,0.538,1.526,0.488,0.732,19.05,-54.41,-134.077,-24.64,-11.707,0.78,28.53,-0.41168,0.35791,0.31137,0.77805,426,0.678,-0.076,0.713,1.648,1.16,1.099,-5.85,-42.902,156.588,-18.573,-7.233,-27.387,32.5,-0.20724,-0.34747,0.12238,-0.90622,430,0.939,0.005,0.312,3.906,-0.854,0.427,1.483,-70.977,-157.588,-29.02,-10.827,-5.707,32.64,0.16382,-0.56549,-0.12085,-0.79916,424
107,0.922,0.035,0.444,0.732,-0.427,0.549,3.768,-63.748,166.943,-25.52,-11.893,-15.04,29.68,0.07803,0.52487,-0.03079,0.84698,429,0.825,0.189,0.543,3.357,-0.427,1.221,19.067,-54.415,-134.061,-24.64,-11.707,0.78,28.53,-0.41168,0.35791,0.31137,0.77805,427,0.688,-0.075,0.718,1.465,0.305,1.343,-5.85,-42.902,156.599,-18.573,-7.233,-27.387,32.5,-0.20724,-0.34747,0.12238,-0.90622,431,0.942,0.007,0.31,3.723,-0.244,0.366,1.527,-70.983,-157.588,-29.02,-10.827,-5.707,32.64,0.16382,-0.56549,-0.12085,-0.79916,425
108,0.917,0.037,0.446,0.427,0.0,0.488,3.763,-63.748,166.943,-25.587,-11.893,-14.973,29.68,0.07803,0.52487,-0.03079,0.84698,434,0.822,0.191,0.544,3.174,-0.061,0.977,19.105,-54.437,-134.033,-24.64,-11.707,0.78,28.53,-0.41168,0.35791,0.31137,0.77805,436,0.69,-0.075,0.714,2.197,1.465,1.526,-5.834,-42.88,156.616,-18.573,-7.233,-27.387,32.5,-0.20724,-0.34747,0.12238,-0.90622,438,0.937,0.008,0.31,3.052,0.0,0.061,1.577,-70.988,-157.61,-29.02,-10.827,-5.707,32.64,0.16382,-0.56549,-0.12085,-0.79916,432
109,0.914,0.033,0.444,-0.061,0.122,0.366,3.752,-63.748,166.926,-25.587,-11.893,-14.973,29.68,0.07803,0.52487,-0.03079,0.84698,435,0.811,0.192,0.546,1.77,1.099,0.366,19.144,-54.448,-134.017,-24.64,-11.707,0.78,28.53,-0.41168,0.35791,0.31137,0.77805,437,0.676,-0.078,0.713,2.258,1.831,1.282,-5.812,-42.852,156.605,-18.573,-7.233,-27.387,32.5,-0.20724,-0.34747,0.12238,-0.90622,439,0.936,0.008,0.318,2.869,0.061,-0.061,1.626,-70.988,-157.632,-29.02,-10.827,-5.707,32.64,0.16382,-0.56549,-0.12085,-0.79916,433
110,0.917,0.029,0.445,-0.122,0.244,0.244,3.741,-63.748,166.926,-25.587,-11.893,-14.973,29.68,0.07803,0.52487,-0.03079,0.84698,446,0.806,0.192,0.545,0.549,1.343,0.061,19.155,-54.432,-134.0,-24.64,-11.707,0.78,28.53,-0.41168,0.35791,0.31137,0.77805,440,0.665,-0.072,0.72,1.343,1.587,0.732,-5.795,-42.83,156.599,-18.573,-7.233,-27.387,32.5,-0.20724,-0.34747,0.12238,-0.90622,442,0.935,0.014,0.313,1.099,0.0,0.0,1.664,-70.994,-157.637,-29.02,-10.827,-5.707,32.64,0.16382,-0.56549,-0.12085,-0.79916,444
111,0.915,0.03,0.447,0.183,0.488,0.366,3.735,-63.743,166.921,-25.587,-11.893,-14.973,29.68,0.07803,0.52487,-0.03079,0.84698,447,0.817,0.187,0.548,0.122,0.488,0.305,19.149,-54.421,-133.995,-24.64,-11.707,0.78,28.53,-0.41168,0.35791,0.31137,0.77805,441,0.673,-0.073,0.728,0.427,0.732,0.427,-5.795,-42.819,156.599,-18.573,-7.233,-27.387,32.5,-0.20724,-0.34747,0.12238,-0.90622,443,0.934,0.007,0.31,0.305,0.305,-0.305,1.686,-70.994,-157.643,-29.02,-10.827,-5.707,32.64,0.16382,-0.56549,-0.12085,-0.79916,445
112,0.913,0.03,0.45,-0.061,0.916,0.366,3.719,-63.726,166.921,-25.587,-11.893,-14.973,29.68,0.0795,0.52744,-0.03253,0.84518,448,0.819,0.188,0.546,0.977,0.0,0.916,19.144,-54.421,-133.989,-24.64,-11.707,0.78,28.53,-0.41168,0.35791,0.31137,0.77805,450,0.687,-0.073,0.722,0.854,0.061,0.854,-5.795,-42.825,156.621,-18.573,-7.233,-27.387,32.5,-0.20724,-0.34747,0.12238,-0.90622,454,0.932,0.006,0.317,-0.61,0.61,-0.305,1.697,-70.988,-157.643,-29.02,-10.827,-5.707,32.64,0.16382,-0.56549,-0.12085,-0.79916,452
113,0.911,0.029,0.453,-0.305,1.099,0.305,3.697,-63.704,166.904,-25.587,-11.893,-14.973,29.68,0.0795,0.52744,-0.03253,0.84518,449,0.812,0.19,0.556,2.075,0.244,1.282,19.144,-54.432,-133.967,-24.64,-11.707,0.78,28.53,-0.41168,0.35791,0.31137,0.77805,451,0.67,-0.074,0.724,2.625,-0.061,2.502,-5.79,-42.825,156.682,-18.573,-7.233,-27.387,32.5,-0.20724,-0.34747,0.12238,-0.90622,455,0.936,0.007,0.324,-0.916,0.732,-0.244,1.697,-70.983,-157.643,-29.02,-10.827,-5.707,32.64,0.16382,-0.56549,-0.12085,-0.79916,453
114,0.911,0.031,0.456,-0.305,1.038,0.183,3.686,-63.688,166.882,-25.587,-11.893,-14.973,29.68,0.0795,0.52744,-0.03253,0.84518,460,0.804,0.192,0.566,2.014,0.916,1.038,19.149,-54.432,-133.94,-24.64,-11.707,0.78,28.53,-0.41168,0.35791,0.31137,0.77805,458,0.661,-0.078,0.734,4.517,0.305,3.662,-5.768,-42.814,156.764,-19.013,-7.587,-27.813,32.5,-0.20724,-0.34747,0.12238,-0.90622,462,0.938,0.011,0.331,-1.831,0.305,-0.061,1.681,-70.972,-157.648,-29.707,-10.56,-5.193,32.64,0.16382,-0.56549,-0.12085,-0.79916,456
115,0.912,0.029,0.455,-0.183,0.854,0.183,3.675,-63.671,166.877,-25.587,-11.893,-14.973,29.68,0.0795,0.52744,-0.03253,0.84518,461,0.814,0.192,0.56,0.549,0.549,0.793,19.144,-54.426,-133.907,-24.64,-11.707,0.78,28.53,-0.41168,0.35791,0.31137,0.77805,459,0.667,-0.074,0.734,2.869,0.244,2.991,-5.768,-42.808,156.857,-19.013,-7.587,-27.813,32.5,-0.20724,-0.34747,0.12238,-0.90622,463,0.933,0.001,0.323,-0.305,0.427,0.305,1.648,-70.966,-157.648,-29.707,-10.56,-5.193,32.64,0.16382,-0.56549,-0.12085,-0.79916,457
116,0.913,0.021,0.452,-0.366,0.732,0.0,3.669,-63.655,166.893,-25.587,-11.893,-14.973,29.68,0.0795,0.52744,-0.03253,0.84518,464,0.819,0.198,0.559,1.587,-0.122,1.343,19.133,-54.421,-133.879,-24.64,-11.707,0.78,28.53,-0.41168,0.35791,0.31137,0.77805,466,0.681,-0.068,0.737,0.977,0.732,1.953,-5.784,-42.786,156.918,-19.013,-7.587,-27.813,32.5,-0.20416,-0.34756,0.11893,-0.90735,470,0.926,-0.003,0.323,1.099,0.305,0.427,1.62,-70.961,-157.615,-29.707,-10.56,-5.193,32.64,0.16382,-0.56549,-0.12085,-0.79916,468
117,0.912,0.021,0.449,-0.122,0.549,-0.122,3.664,-63.644,166.904,-25.587,-11.893,-14.973,29.68,0.0795,0.52744,-0.03253,0.84518,465,0.807,0.2,0.563,2.319,0.183,1.465,19.133,-54.432,-133.857,-24.64,-11.707,0.78,28.53,-0.41168,0.35791,0.31137,0.77805,467,0.671,-0.069,0.736,2.075,0.61,2.258,-5.784,-42.77,156.967,-19.013,-7.587,-27.813,32.5,-0.20416,-0.34756,0.11893,-0.90735,471,0.927,0.007,0.33,1.404,0.305,0.671,1.609,-70.961,-157.577,-29.707,-10.56,-5.193,32.64,0.16382,-0.56549,-0.12085,-0.79916,469
118,0.911,0.027,0.448,0.183,0.183,0.0,3.669,-63.644,166.921,-25.587,-11.893,-14.973,29.68,0.0795,0.52744,-0.03253,0.84518,476,0.805,0.198,0.562,1.343,0.671,1.587,19.133,-54.432,-133.83,-24.84,-12.513,0.793,28.53,-0.41168,0.35791,0.31137,0.77805,472,0.662,-0.065,0.735,1.404,0.122,2.136,-5.79,-42.759,157.028,-19.013,-7.587,-27.813,32.5,-0.20416,-0.34756,0.11893,-0.90735,478,0.932,0.01,0.324,1.465,-0.061,0.793,1.588,-70.955,-157.538,-29.707,-10.56,-5.193,32.64,0.16623,-0.56705,-0.12402,-0.79709,474
119,0.913,0.031,0.447,0.305,-0.122,0.122,3.669,-63.644,166.926,-25.587,-11.893,-14.973,29.68,0.0795,0.52744,-0.03253,0.84518,477,0.808,0.2,0.559,1.343,0.244,1.892,19.111,-54.426,-133.797,-24.84,-12.513,0.793,28.53,-0.41168,0.35791,0.31137,0.77805,473,0.666,-0.066,0.736,0.793,0.732,2.136,-5.812,-42.742,157.099,-19.013,-7.587,-27.813,32.5,-0.20416,-0.34756,0.11893,-0.90735,479,0.929,0.006,0.323,0.793,-0.549,0.671,1.566,-70.955,-157.505,-29.707,-10.56,-5.193,32.64,0.16623,-0.56705,-0.12402,-0.79709,475
120,0.915,0.029,0.448,0.122,-0.488,0.0,3.669,-63.655,166.926,-25.587,-11.893,-14.973,29.68,0.0795,0.52744,-0.03253,0.84518,482,0.809,0.192,0.559,0.793,-0.061,1.77,19.089,-54.432,-133.759,-24.84,-12.513,0.793,28.53,-0.41168,0.35791,0.31137,0.77805,480,0.667,-0.073,0.74,0.916,0.305,2.136,-5.828,-42.726,157.192,-19.013,-7.587,-27.813,32.5,-0.20416,-0.34756,0.11893,-0.90735,486,0.93,0.007,0.323,0.793,-0.61,0.732,1.538,-70.966,-157.484,-29.707,-10.56,-5.193,32.64,0.16623,-0.56705,-0.12402,-0.79709,484
121,0.912,0.034,0.448,0.061,-0.488,0.0,3.675,-63.666,166.943,-25.587,-11.893,-14.973,29.68,0.0795,0.52744,-0.03253,0.84518,483,0.812,0.181,0.548,1.404,-0.61,1.709,19.067,-54.443,-133.715,-24.84,-12.513,0.793,28.53,-0.41168,0.35791,0.31137,0.77805,481,0.67,-0.084,0.725,1.038,-1.404,1.953,-5.845,-42.742,157.275,-19.013,-7.587,-27.813,32.5,-0.20416,-0.34756,0.11893,-0.90735,487,0.931,0.011,0.319,0.366,-0.793,0.427,1.511,-70.983,-157.478,-29.707,-10.56,-5.193,32.64,0.16623,-0.56705,-0.12402,-0.79709,485
122,0.909,0.036,0.453,0.061,-0.244,0.183,3.669,-63.671,166.932,-25.587,-11.893,-14.973,29.68,0.0795,0.52744,-0.03253,0.84518,490,0.819,0.182,0.543,2.075,-1.587,1.404,19.061,-54.465,-133.676,-24.84,-12.513,0.793,28.53,-0.41418,0.3569,0.31268,0.77664,494,0.674,-0.084,0.712,1.038,-1.404,1.831,-5.861,-42.764,157.291,-19.013,-7.587,-27.813,32.5,-0.20416,-0.34756,0.11893,-0.90735,492,0.932,0.015,0.321,-0.732,-0.671,0.183,1.489,-70.994,-157.484,-29.707,-10.56,-5.193,32.64,0.16623,-0.56705,-0.12402,-0.79709,488
123,0.907,0.036,0.454,0.0,-0.244,0.427,3.658,-63.677,166.926,-25.587,-11.893,-14.973,29.68,0.0795,0.52744,-0.03253,0.84518,491,0.827,0.185,0.546,1.587,-1.465,1.099,19.078,-54.498,-133.649,-24.84,-12.513,0.793,28.53,-0.41418,0.3569,0.31268,0.77664,495,0.685,-0.081,0.714,0.61,-0.488,1.465,-5.878,-42.77,157.231,-19.013,-7.587,-27.813,32.5,-0.20416,-0.34756,0.11893,-0.90735,493,0.932,0.009,0.322,-1.221,-0.244,-0.183,1.467,-71.005,-157.484,-29.707,-10.56,-5.193,32.64,0.16623,-0.56705,-0.12402,-0.79709,489
124,0.912,0.033,0.452,-0.244,-0.366,0.427,3.642,-63.688,166.943,-25.587,-11.893,-14.973,29.68,0.0795,0.52744,-0.03253,0.84518,502,0.823,0.186,0.543,0.793,-0.61,0.671,19.089,-54.525,-133.632,-24.84,-12.513,0.793,28.53,-0.41418,0.3569,0.31268,0.77664,498,0.684,-0.083,0.714,0.488,0.671,1.038,-5.889,-42.753,157.121,-19.013,-7.587,-27.813,32.5,-0.20416,-0.34756,0.11893,-0.90735,500,0.938,0.004,0.323,-1.343,0.122,-0.61,1.461,-71.005,-157.516,-29.707,-10.56,-5.193,32.64,0.16623,-0.56705,-0.12402,-0.79709,496
125,0.919,0.031,0.453,-0.427,-0.366,0.305,3.625,-63.693,166.948,-25.587,-11.893,-14.973,29.68,0.0795,0.52744,-0.03253,0.84518,503,0.82,0.186,0.55,0.061,0.305,0.0,19.089,-54.536,-133.632,-24.84,-12.513,0.793,28.53,-0.41418,0.3569,0.31268,0.77664,499,0.675,-0.086,0.721,0.732,0.427,0.732,-5.889,-42.742,156.984,-19.013,-7.587,-27.813,32.5,-0.20416,-0.34756,0.11893,-0.90735,501,0.941,0.006,0.319,-1.221,0.122,-0.793,1.472,-71.005,-157.56,-29.707,-10.56,-5.193,32.64,0.16623,-0.56705,-0.12402,-0.79709,497
126,0.917,0.028,0.453,-0.61,-0.183,0.244,3.609,-63.693,166.981,-25.52,-12.14,-14.027,29.68,0.0795,0.52744,-0.03253,0.84518,508,0.825,0.185,0.543,-0.305,0.305,-0.61,19.089,-54.525,-133.643,-24.84,-12.513,0.793,28.53,-0.41418,0.3569,0.31268,0.77664,506,0.683,-0.086,0.72,0.122,0.732,-0.427,-5.883,-42.731,156.813,-19.013,-7.587,-27.813,32.5,-0.20416,-0.34756,0.11893,-0.90735,510,0.941,0.008,0.316,-1.282,0.122,-0.671,1.494,-70.999,-157.61,-29.707,-10.56,-5.193,32.64,0.16623,-0.56705,-0.12402,-0.79709,504
127,0.918,0.026,0.451,-0.488,0.061,0.244,3.593,-63.693,167.02,-25.52,-12.14,-14.027,29.68,0.0795,0.52744,-0.03253,0.84518,509,0.827,0.19,0.548,0.183,-0.183,-0.854,19.1,-54.52,-133.676,-24.84,-12.513,0.793,28.53,-0.41418,0.3569,0.31268,0.77664,507,0.69,-0.08,0.723,-0.183,0.793,-1.099,-5.872,-42.72,156.687,-19.013,-7.587,-27.813,32.5,-0.20416,-0.34756,0.11893,-0.90735,511,0.938,0.007,0.315,-0.854,0.427,-0.488,1.505,-70.994,-157.67,-29.707,-10.56,-5.193,32.64,0.16623,-0.56705,-0.12402,-0.79709,505
128,0.917,0.024,0.447,-0.122,0.305,0.305,3.582,-63.688,167.036,-25.52,-12.14,-14.027,29.68,0.0795,0.52744,-0.03253,0.84518,516,0.817,0.193,0.546,0.183,0.854,-0.732,19.122,-54.514,-133.709,-24.84,-12.513,0.793,28.53,-0.41418,0.3569,0.31268,0.77664,512,0.68,-0.071,0.72,-0.061,0.916,-0.854,-5.861,-42.709,156.616,-18.88,-7.867,-28.827,32.5,-0.20416,-0.34756,0.11893,-0.90735,518,0.934,0.003,0.319,-1.16,0.549,-0.305,1.505,-70.988,-157.72,-29.707,-10.56,-5.193,32.64,0.16623,-0.56705,-0.12402,-0.79709,514
129,0.917,0.024,0.447,-0.122,0.305,0.122,3.571,-63.682,167.042,-25.52,-12.14,-14.027,29.68,0.0795,0.52744,-0.03253,0.84518,517,0.816,0.188,0.545,0.427,1.282,0.0,19.133,-54.498,-133.726,-24.84,-12.513,0.793,28.53,-0.41418,0.3569,0.31268,0.77664,513,0.672,-0.069,0.722,0.549,0.793,0.244,-5.856,-42.698,156.605,-18.88,-7.867,-28.827,32.5,-0.20416,-0.34756,0.11893,-0.90735,519,0.936,0.0,0.315,-0.732,0.61,-0.305,1.505,-70.977,-157.747,-29.707,-10.56,-5.193,32.64,0.16623,-0.56705,-0.12402,-0.79709,515
130,0.917,0.024,0.444,-0.122,0.305,0.0,3.571,-63.677,167.036,-25.52,-12.14,-14.027,29.68,0.0795,0.52689,-0.0332,0.84549,522,0.819,0.188,0.547,0.305,0.793,0.366,19.122,-54.476,-133.715,-24.84,-12.513,0.793,28.53,-0.41418,0.3569,0.31268,0.77664,520,0.677,-0.078,0.723,0.122,0.916,0.427,-5.861,-42.682,156.621,-18.88,-7.867,-28.827,32.5,-0.20663,-0.34619,0.12027,-0.90714,526,0.936,-0.001,0.315,-0.61,0.549,-0.244,1.5,-70.966,-157.791,-29.707,-10.56,-5.193,32.64,0.16623,-0.56705,-0.12402,-0.79709,524
131,0.917,0.024,0.445,-0.183,0.427,-0.183,3.571,-63.671,167.02,-25.52,-12.14,-14.027,29.68,0.0795,0.52689,-0.0332,0.84549,523,0.816,0.194,0.552,-0.061,0.916,0.0,19.111,-54.465,-133.698,-24.84,-12.513,0.793,28.53,-0.41418,0.3569,0.31268,0.77664,521,0.676,-0.077,0.727,0.0,1.343,0.183,-5.867,-42.66,156.643,-18.88,-7.867,-28.827,32.5,-0.20663,-0.34619,0.12027,-0.90714,527,0.935,0.003,0.316,-0.488,0.427,-0.183,1.489,-70.961,-157.83,-29.707,-10.56,-5.193,32.64,0.16623,-0.56705,-0.12402,-0.79709,525
132,0.916,0.029,0.449,0.244,0.488,-0.122,3.576,-63.666,167.009,-25.52,-12.14,-14.027,29.68,0.0795,0.52689,-0.0332,0.84549,530,0.813,0.189,0.552,-0.854,1.465,-0.366,19.094,-54.448,-133.698,-24.84,-12.513,0.793,28.53,-0.41418,0.3569,0.31268,0.77664,534,0.668,-0.079,0.727,-0.427,0.916,-0.366,-5.867,-42.643,156.643,-18.88,-7.867,-28.827,32.5,-0.20663,-0.34619,0.12027,-0.90714,532,0.933,0.01,0.317,0.061,0.671,0.0,1.483,-70.955,-157.852,-29.48,-10.147,-5.973,32.64,0.16623,-0.56705,-0.12402,-0.79709,528
133,0.912,0.032,0.45,0.244,0.61,-0.061,3.587,-63.655,166.998,-25.52,-12.14,-14.027,29.68,0.0795,0.52689,-0.0332,0.84549,531,0.812,0.186,0.553,-0.122,0.977,-0.549,19.089,-54.421,-133.704,-24.84,-12.513,0.793,28.53,-0.41418,0.3569,0.31268,0.77664,535,0.668,-0.082,0.729,-0.122,0.549,-0.305,-5.867,-42.638,156.649,-18.88,-7.867,-28.827,32.5,-0.20663,-0.34619,0.12027,-0.90714,533,0.934,0.01,0.321,0.0,0.61,-0.061,1.478,-70.944,-157.863,-29.48,-10.147,-5.973,32.64,0.16623,-0.56705,-0.12402,-0.79709,529
134,0.91,0.031,0.453,0.061,0.549,-0.122,3.593,-63.649,167.003,-25.52,-12.14,-14.027,29.68,0.0795,0.52689,-0.0332,0.84549,540,0.813,0.187,0.555,0.488,0.305,-0.61,19.1,-54.41,-133.72,-24.593,-12.067,1.267,28.53,-0.41418,0.3569,0.31268,0.77664,538,0.671,-0.083,0.729,0.916,0.793,-0.366,-5.845,-42.627,156.671,-18.88,-7.867,-28.827,32.5,-0.20663,-0.34619,0.12027,-0.90714,542,0.934,0.006,0.321,0.0,0.366,-0.183,1.478,-70.939,-157.879,-29.48,-10.147,-5.973,32.64,0.16623,-0.56705,-0.12402,-0.79709,536
135,0.911,0.032,0.454,0.061,0.671,-0.061,3.598,-63.638,167.009,-25.52,-12.14,-14.027,29.68,0.0795,0.52689,-0.0332,0.84549,541,0.812,0.19,0.554,0.549,-0.061,-0.488,19.122,-54.404,-133.748,-24.593,-12.067,1.267,28.53,-0.41418,0.3569,0.31268,0.77664,539,0.672,-0.076,0.728,0.427,0.61,-0.793,-5.823,-42.616,156.671,-18.88,-7.867,-28.827,32.5,-0.20663,-0.34619,0.12027,-0.90714,543,0.933,0.007,0.321,0.061,0.61,-0.122,1.483,-70.928,-157.879,-29.48,-10.147,-5.973,32.64,0.16623,-0.56705,-0.12402,-0.79709,537
136,0.912,0.031,0.455,0.0,0.61,-0.183,3.598,-63.627,167.009,-25.52,-12.14,-14.027,29.68,0.0795,0.52689,-0.0332,0.84549,544,0.811,0.196,0.552,0.427,0.061,-0.366,19.138,-54.404,-133.764,-24.593,-12.067,1.267,28.53,-0.41418,0.3569,0.31268,0.77664,546,0.67,-0.07,0.728,0.244,0.549,-0.61,-5.812,-42.605,156.671,-18.88,-7.867,-28.827,32.5,-0.20663,-0.34619,0.12027,-0.90714,550,0.932,0.006,0.323,0.122,0.793,-0.427,1.5,-70.917,-157.896,-29.48,-10.147,-5.973,32.64,0.1636,-0.56735,-0.12164,-0.79776,548
137,0.913,0.032,0.454,0.0,0.488,-0.061,3.609,-63.616,167.025,-25.52,-12.14,-14.027,29.68,0.0795,0.52689,-0.0332,0.84549,545,0.814,0.199,0.554,0.427,0.0,-0.183,19.155,-54.399,-133.77,-24.593,-12.067,1.267,28.53,-0.41418,0.3569,0.31268,0.77664,547,0.67,-0.067,0.729,0.122,0.732,-0.244,-5.806,-42.594,156.676,-18.88,-7.867,-28.827,32.5,-0.20663,-0.34619,0.12027,-0.90714,551,0.932,0.01,0.327,0.0,1.038,-0.549,1.522,-70.9,-157.934,-29.48,-10.147,-5.973,32.64,0.1636,-0.56735,-0.12164,-0.79776,549
138,0.912,0.031,0.453,0.0,0.488,0.061,3.609,-63.605,167.069,-25.52,-12.14,-14.027,29.68,0.0795,0.52689,-0.0332,0.84549,554,0.814,0.198,0.557,0.488,0.061,-0.244,19.166,-54.399,-133.775,-24.593,-12.067,1.267,28.53,-0.41418,0.35645,0.31305,0.7767,552,0.669,-0.07,0.733,0.732,0.916,-0.122,-5.784,-42.578,156.687,-18.88,-7.867,-28.827,32.5,-0.20663,-0.34619,0.12027,-0.90714,558,0.933,0.012,0.325,-0.122,0.916,-0.488,1.544,-70.884,-157.978,-29.48,-10.147,-5.973,32.64,0.1636,-0.56735,-0.12164,-0.79776,556
139,0.915,0.025,0.453,0.061,0.488,0.0,3.609,-63.594,167.119,-25.52,-12.14,-14.027,29.68,0.0795,0.52689,-0.0332,0.84549,555,0.814,0.195,0.557,0.0,-0.061,-0.366,19.182,-54.393,-133.786,-24.593,-12.067,1.267,28.53,-0.41418,0.35645,0.31305,0.7767,553,0.667,-0.073,0.732,0.244,0.854,-0.854,-5.762,-42.561,156.693,-18.88,-7.867,-28.827,32.5,-0.20663,-0.34619,0.12027,-0.90714,559,0.937,0.008,0.326,0.427,0.916,-0.305,1.571,-70.867,-158.016,-29.48,-10.147,-5.973,32.64,0.1636,-0.56735,-0.12164,-0.79776,557
140,0.917,0.024,0.451,0.183,0.61,0.0,3.615,-63.583,167.162,-25.52,-12.14,-14.027,29.68,0.0795,0.52689,-0.0332,0.84549,562,0.82,0.197,0.553,-0.671,-0.061,-0.671,19.188,-54.388,-133.802,-24.593,-12.067,1.267,28.53,-0.41418,0.35645,0.31305,0.7767,560,0.676,-0.07,0.728,-0.793,1.343,-1.587,-5.751,-42.534,156.676,-18.88,-7.867,-28.827,32.5,-0.20663,-0.34619,0.12027,-0.90714,566,0.931,0.008,0.319,3.174,0.977,0.244,1.604,-70.845,-158.033,-29.48,-10.147,-5.973,32.64,0.1636,-0.56735,-0.12164,-0.79776,564
141,0.916,0.03,0.451,0.61,0.488,0.0,3.615,-63.572,167.195,-25.52,-12.14,-14.027,29.68,0.0795,0.52689,-0.0332,0.84549,563,0.82,0.203,0.549,-1.221,-0.305,-1.221,19.199,-54.382,-133.846,-24.593,-12.067,1.267,28.53,-0.41418,0.35645,0.31305,0.7767,561,0.683,-0.07,0.73,-1.099,0.793,-2.319,-5.729,-42.523,156.638,-18.88,-7.867,-28.827,32.5,-0.20663,-0.34619,0.12027,-0.90714,567,0.937,0.007,0.328,3.174,1.221,0.061,1.653,-70.829,-158.038,-29.48,-10.147,-5.973,32.64,0.1636,-0.56735,-0.12164,-0.79776,565
142,0.914,0.031,0.452,0.61,0.549,0.061,3.625,-63.567,167.212,-25.52,-12.14,-14.027,29.68,0.0795,0.52689,-0.0332,0.84549,574,0.81,0.209,0.56,-1.343,0.732,-1.404,19.21,-54.371,-133.89,-24.593,-12.067,1.267,28.53,-0.41418,0.35645,0.31305,0.7767,570,0.669,-0.06,0.732,-0.488,1.038,-1.953,-5.696,-42.506,156.594,-18.88,-7.867,-28.827,32.5,-0.20663,-0.34619,0.12027,-0.90714,572,0.934,0.012,0.324,1.282,1.099,0.183,1.686,-70.807,-158.044,-29.48,-10.147,-5.973,32.64,0.1636,-0.56735,-0.12164,-0.79776,568
143,0.908,0.035,0.452,0.061,0.427,0.183,3.631,-63.556,167.228,-25.52,-12.14,-14.027,29.68,0.0795,0.52689,-0.0332,0.84549,575,0.797,0.203,0.566,-0.793,0.916,-0.244,19.21,-54.349,-133.923,-24.593,-12.067,1.267,28.53,-0.41418,0.35645,0.31305,0.7767,571,0.658,-0.056,0.742,1.038,2.136,-1.038,-5.652,-42.468,156.583,-18.88,-7.867,-28.827,32.5,-0.20663,-0.34619,0.12027,-0.90714,573,0.929,0.012,0.323,0.671,0.61,0.366,1.686,-70.79,-158.033,-29.48,-10.147,-5.973,32.64,0.1636,-0.56735,-0.12164,-0.79776,569
144,0.899,0.035,0.453,-0.244,0.305,0.122,3.625,-63.55,167.245,-25.36,-11.827,-14.28,29.68,0.0795,0.52689,-0.0332,0.84549,582,0.783,0.199,0.559,0.0,0.183,0.793,19.193,-54.333,-133.912,-24.593,-12.067,1.267,28.53,-0.41418,0.35645,0.31305,0.7767,578,0.639,-0.064,0.744,2.319,1.526,0.366,-5.603,-42.435,156.616,-18.847,-7.66,-27.187,32.5,-0.20663,-0.34619,0.12027,-0.90714,580,0.923,0.011,0.324,-0.549,0.427,0.61,1.659,-70.779,-158.0,-29.48,-10.147,-5.973,32.64,0.1636,-0.56735,-0.12164,-0.79776,576
145,0.9,0.033,0.452,-0.366,0.0,0.0,3.62,-63.545,167.245,-25.36,-11.827,-14.28,29.68,0.0795,0.52689,-0.0332,0.84549,583,0.784,0.198,0.573,-0.061,-0.793,0.732,19.182,-54.338,-133.896,-24.593,-12.067,1.267,28.53,-0.41418,0.35645,0.31305,0.7767,579,0.634,-0.07,0.753,1.343,-1.465,1.892,-5.609,-42.457,156.698,-18.847,-7.66,-27.187,32.5,-0.20663,-0.34619,0.12027,-0.90714,581,0.918,0.008,0.336,-0.793,0.0,0.366,1.62,-70.779,-157.961,-29.48,-10.147,-5.973,32.64,0.1636,-0.56735,-0.12164,-0.79776,577
146,0.909,0.029,0.455,-0.549,-0.061,0.0,3.615,-63.545,167.228,-25.36,-11.827,-14.28,29.68,0.0795,0.52689,-0.0332,0.84549,588,0.797,0.198,0.584,-1.404,-1.587,0.427,19.166,-54.355,-133.885,-24.593,-12.067,1.267,28.53,-0.41418,0.35645,0.31305,0.7767,586,0.642,-0.072,0.76,-0.549,-2.563,1.648,-5.652,-42.495,156.791,-18.847,-7.66,-27.187,32.5,-0.20471,-0.34531,0.1178,-0.90823,590,0.917,0.016,0.329,-3.357,-0.549,0.305,1.56,-70.779,-157.923,-29.48,-10.147,-5.973,32.64,0.1636,-0.56735,-0.12164,-0.79776,584
147,0.911,0.026,0.456,-0.671,-0.549,-0.183,3.609,-63.55,167.206,-25.36,-11.827,-14.28,29.68,0.0795,0.52689,-0.0332,0.84549,589,0.822,0.192,0.566,-1.953,-2.869,0.61,19.144,-54.388,-133.896,-24.593,-12.067,1.267,28.53,-0.41418,0.35645,0.31305,0.7767,587,0.671,-0.072,0.752,-2.441,-2.258,-0.305,-5.696,-42.523,156.824,-18.847,-7.66,-27.187,32.5,-0.20471,-0.34531,0.1178,-0.90823,591,0.923,0.009,0.335,-2.93,-0.916,0.549,1.478,-70.796,-157.879,-29.48,-10.147,-5.973,32.64,0.1636,-0.56735,-0.12164,-0.79776,585
148,0.911,0.027,0.456,-0.549,-0.793,-0.122,3.609,-63.561,167.184,-25.36,-11.827,-14.28,29.68,0.07822,0.52606,-0.03204,0.84619,594,0.833,0.18,0.546,-1.221,-3.784,0.549,19.127,-54.443,-133.907,-24.593,-12.067,1.267,28.53,-0.41418,0.35645,0.31305,0.7767,592,0.696,-0.083,0.726,-2.197,-2.502,-0.671,-5.729,-42.561,156.852,-18.847,-7.66,-27.187,32.5,-0.20471,-0.34531,0.1178,-0.90823,598,0.935,0.004,0.333,-2.136,-1.282,0.427,1.406,-70.818,-157.857,-29.48,-10.147,-5.973,32.64,0.1636,-0.56735,-0.12164,-0.79776,596
149,0.911,0.026,0.455,-0.122,-0.732,0.0,3.609,-63.572,167.168,-25.36,-11.827,-14.28,29.68,0.07822,0.52606,-0.03204,0.84619,595,0.825,0.183,0.545,-1.282,-1.953,-0.183,19.122,-54.487,-133.934,-24.593,-12.067,1.267,28.53,-0.41418,0.35645,0.31305,0.7767,593,0.689,-0.089,0.707,-2.258,-2.197,-1.221,-5.757,-42.599,156.852,-18.847,-7.66,-27.187,32.5,-0.20471,-0.34531,0.1178,-0.90823,599,0.937,0.004,0.329,-1.16,-1.465,0.366,1.362,-70.84,-157.841,-29.48,-10.147,-5.973,32.64,0.1636,-0.56735,-0.12164,-0.79776,597
150,0.916,0.023,0.453,0.122,-0.854,0.0,3.609,-63.589,167.168,-25.36,-11.827,-14.28,29.68,0.07822,0.52606,-0.03204,0.84619,602,0.818,0.186,0.542,-1.709,0.427,-0.793,19.111,-54.492,-133.956,-24.593,-12.067,1.267,28.53,-0.41418,0.35645,0.31305,0.7767,606,0.676,-0.077,0.709,-1.709,-1.709,-1.282,-5.768,-42.632,156.835,-18.847,-7.66,-27.187,32.5,-0.20471,-0.34531,0.1178,-0.90823,604,0.934,-0.002,0.323,-0.427,-1.587,0.427,1.329,-70.867,-157.835,-29.673,-11.013,-5.873,32.64,0.1636,-0.56735,-0.12164,-0.79776,600
151,0.923,0.023,0.448,0.122,-0.854,0.0,3.615,-63.605,167.146,-25.36,-11.827,-14.28,29.68,0.07822,0.52606,-0.03204,0.84619,603,0.833,0.178,0.534,-0.854,0.305,-0.61,19.1,-54.476,-133.967,-24.593,-12.067,1.267,28.53,-0.41418,0.35645,0.31305,0.7767,607,0.688,-0.079,0.714,0.244,-2.869,0.244,-5.779,-42.687,156.857,-18.847,-7.66,-27.187,32.5,-0.20471,-0.34531,0.1178,-0.90823,605,0.935,-0.004,0.322,1.099,-1.038,0.366,1.318,-70.889,-157.819,-29.673,-11.013,-5.873,32.64,0.1636,-0.56735,-0.12164,-0.79776,601
152,0.924,0.028,0.446,0.061,-0.732,0.0,3.615,-63.616,167.13,-25.36,-11.827,-14.28,29.68,0.07822,0.52606,-0.03204,0.84619,612,0.856,0.175,0.525,0.305,-0.366,-0.427,19.105,-54.476,-133.984,-24.707,-12.287,1.74,28.53,-0.41418,0.35645,0.31305,0.7767,610,0.708,-0.083,0.699,0.732,-2.441,0.305,-5.779,-42.737,156.874,-18.847,-7.66,-27.187,32.5,-0.20471,-0.34531,0.1178,-0.90823,614,0.944,0.002,0.317,2.686,-0.671,0.488,1.329,-70.9,-157.786,-29.673,-11.013,-5.873,32.64,0.1636,-0.56735,-0.12164,-0.79776,608
153,0.924,0.032,0.442,0.305,-0.427,0.0,3.62,-63.633,167.119,-25.36,-11.827,-14.28,29.68,0.07822,0.52606,-0.03204,0.84619,613,0.854,0.167,0.523,1.038,-0.366,-0.122,19.127,-54.487,-134.0,-24.707,-12.287,1.74,28.53,-0.41418,0.35645,0.31305,0.7767,611,0.724,-0.094,0.691,-0.854,-0.305,-0.122,-5.801,-42.748,156.874,-18.847,-7.66,-27.187,32.5,-0.20471,-0.34531,0.1178,-0.90823,615,0.947,0.005,0.31,3.54,-0.061,0.427,1.362,-70.906,-157.742,-29.673,-11.013,-5.873,32.64,0.1636,-0.56735,-0.12164,-0.79776,609
154,0.923,0.03,0.441,0.305,0.061,0.0,3.625,-63.638,167.097,-25.36,-11.827,-14.28,29.68,0.07822,0.52606,-0.03204,0.84619,616,0.828,0.172,0.528,1.709,1.038,-0.244,19.149,-54.487,-133.995,-24.707,-12.287,1.74,28.53,-0.41418,0.35645,0.31305,0.7767,618,0.693,-0.1,0.688,-2.136,2.502,-0.427,-5.839,-42.709,156.846,-18.847,-7.66,-27.187,32.5,-0.20471,-0.34531,0.1178,-0.90823,622,0.948,0.004,0.304,4.15,0.61,0.183,1.423,-70.895,-157.731,-29.673,-11.013,-5.873,32.64,0.16376,-0.56723,-0.12122,-0.79788,620
155,0.923,0.03,0.445,0.305,0.366,0.0,3.631,-63.638,167.08,-25.36,-11.827,-14.28,29.68,0.07822,0.52606,-0.03204,0.84619,617,0.812,0.196,0.537,3.357,1.709,-0.549,19.193,-54.47,-134.0,-24.707,-12.287,1.74,28.53,-0.41418,0.35645,0.31305,0.7767,619,0.667,-0.072,0.707,0.0,5.493,0.244,-5.845,-42.616,156.808,-18.847,-7.66,-27.187,32.5,-0.20471,-0.34531,0.1178,-0.90823,623,0.94,0.003,0.307,4.333,1.587,-0.122,1.5,-70.873,-157.753,-29.673,-11.013,-5.873,32.64,0.16376,-0.56723,-0.12122,-0.79788,621
156,0.925,0.035,0.447,0.122,0.61,0.0,3.636,-63.633,167.069,-25.36,-11.827,-14.28,29.68,0.07822,0.52606,-0.03204,0.84619,626,0.815,0.204,0.55,1.953,1.587,-0.793,19.243,-54.448,-134.011,-24.707,-12.287,1.74,28.53,-0.41275,0.35745,0.31274,0.77713,624,0.67,-0.063,0.727,1.77,9.033,-0.366,-5.79,-42.451,156.758,-18.847,-7.66,-27.187,32.5,-0.20471,-0.34531,0.1178,-0.90823,630,0.942,0.01,0.315,3.54,1.831,-0.427,1.582,-70.845,-157.808,-29.673,-11.013,-5.873,32.64,0.16376,-0.56723,-0.12122,-0.79788,628
157,0.937,0.041,0.448,-0.366,1.221,0.305,3.631,-63.622,167.069,-25.36,-11.827,-14.28,29.68,0.07822,0.52606,-0.03204,0.84619,627,0.844,0.201,0.551,0.732,0.732,-1.099,19.281,-54.432,-134.033,-24.707,-12.287,1.74,28.53,-0.41275,0.35745,0.31274,0.77713,625,0.691,-0.069,0.738,1.404,9.033,-1.16,-5.729,-42.286,156.693,-18.847,-7.66,-27.187,32.5,-0.20471,-0.34531,0.1178,-0.90823,631,0.953,0.015,0.312,2.38,1.953,-0.488,1.653,-70.812,-157.857,-29.673,-11.013,-5.873,32.64,0.16376,-0.56723,-0.12122,-0.79788,629
158,0.921,0.042,0.448,-0.488,2.014,0.732,3.609,-63.6,167.075,-25.36,-11.827,-14.28,29.68,0.07822,0.52606,-0.03204,0.84619,634,0.872,0.212,0.542,0.977,-1.465,-0.671,19.325,-54.437,-134.061,-24.707,-12.287,1.74,28.53,-0.41275,0.35745,0.31274,0.77713,632,0.719,-0.056,0.734,1.892,7.507,-0.61,-5.669,-42.155,156.643,-18.633,-7.393,-27.527,32.5,-0.20471,-0.34531,0.1178,-0.90823,638,0.943,0.025,0.309,0.061,2.441,-0.427,1.686,-70.774,-157.896,-29.673,-11.013,-5.873,32.64,0.16376,-0.56723,-0.12122,-0.79788,636
159,0.908,0.028,0.45,0.549,2.136,1.038,3.576,-63.567,167.097,-25.36,-11.827,-14.28,29.68,0.07822,0.52606,-0.03204,0.84619,635,0.841,0.205,0.545,2.136,-1.831,-0.488,19.391,-54.476,-134.099,-24.707,-12.287,1.74,28.53,-0.41275,0.35745,0.31274,0.77713,633,0.703,-0.059,0.711,-0.793,11.414,3.357,-5.724,-41.94,156.665,-18.633,-7.393,-27.527,32.5,-0.20471,-0.34531,0.1178,-0.90823,639,0.946,0.019,0.328,1.648,2.319,-0.061,1.719,-70.735,-157.906,-29.673,-11.013,-5.873,32.64,0.16376,-0.56723,-0.12122,-0.79788,637
160,0.88,0.014,0.453,0.916,2.075,0.793,3.549,-63.528,167.113,-25.36,-11.827,-14.28,29.68,0.07822,0.52606,-0.03204,0.84619,644,0.793,0.196,0.575,-1.648,4.517,-0.854,19.407,-54.454,-134.116,-24.707,-12.287,1.74,28.53,-0.41275,0.35745,0.31274,0.77713,642,0.636,-0.08,0.72,-0.549,12.085,2.075,-5.751,-41.715,156.654,-18.633,-7.393,-27.527,32.5,-0.20471,-0.34531,0.1178,-0.90823,646,0.94,-0.018,0.325,2.563,1.465,-0.671,1.791,-70.708,-157.934,-29.673,-11.013,-5.873,32.64,0.16376,-0.56723,-0.12122,-0.79788,640
161,0.891,0.017,0.47,0.244,0.671,0.061,3.538,-63.501,167.108,-25.36,-11.827,-14.28,29.68,0.07822,0.52606,-0.03204,0.84619,645,0.762,0.208,0.597,-1.648,8.24,-0.305,19.336,-54.338,-134.072,-24.707,-12.287,1.74,28.53,-0.41275,0.35745,0.31274,0.77713,643,0.6,-0.063,0.789,4.15,11.353,5.615,-5.746,-41.501,156.725,-18.633,-7.393,-27.527,32.5,-0.20471,-0.34531,0.1178,-0.90823,647,0.903,-0.014,0.341,2.38,1.282,-1.587,1.906,-70.686,-158.011,-29.673,-11.013,-5.873,32.64,0.16376,-0.56723,-0.12122,-0.79788,641
162,0.897,0.033,0.474,-0.366,-0.122,-0.61,3.543,-63.495,167.091,-25.433,-11.607,-15.147,29.68,0.07822,0.52606,-0.03204,0.84619,654,0.73,0.194,0.567,0.366,4.944,0.488,19.259,-54.218,-134.006,-24.707,-12.287,1.74,28.53,-0.41275,0.35745,0.31274,0.77713,650,0.575,-0.072,0.792,6.714,7.69,5.005,-5.685,-41.347,156.813,-18.633,-7.393,-27.527,32.5,-0.20602,-0.33795,0.11758,-0.91074,652,0.919,0.006,0.364,-0.977,-0.305,-1.343,1.967,-70.686,-158.077,-29.673,-11.013,-5.873,32.64,0.16376,-0.56723,-0.12122,-0.79788,648
163,0.894,0.034,0.47,-0.061,0.366,-0.244,3.56,-63.49,167.097,-25.433,-11.607,-15.147,29.68,0.07822,0.52606,-0.03204,0.84619,655,0.742,0.181,0.562,1.16,0.366,0.61,19.254,-54.185,-133.973,-24.707,-12.287,1.74,28.53,-0.41275,0.35745,0.31274,0.77713,651,0.569,-0.083,0.762,0.977,1.526,1.77,-5.691,-41.309,156.863,-18.633,-7.393,-27.527,32.5,-0.20602,-0.33795,0.11758,-0.91074,653,0.909,0.028,0.333,-0.732,0.916,-0.427,1.972,-70.675,-158.093,-29.673,-11.013,-5.873,32.64,0.16376,-0.56723,-0.12122,-0.79788,649
164,0.881,0.024,0.456,-0.061,0.061,0.183,3.56,-63.484,167.119,-25.433,-11.607,-15.147,29.68,0.07901,0.52545,-0.03268,0.84647,658,0.785,0.182,0.561,0.671,-2.991,0.427,19.276,-54.223,-133.978,-24.707,-12.287,1.74,28.53,-0.41275,0.35745,0.31274,0.77713,656,0.626,-0.081,0.75,-1.221,-0.366,0.061,-5.718,-41.309,156.901,-18.633,-7.393,-27.527,32.5,-0.20602,-0.33795,0.11758,-0.91074,660,0.896,0.022,0.33,0.0,1.648,-0.366,1.983,-70.642,-158.082,-29.673,-11.013,-5.873,32.64,0.16376,-0.56723,-0.12122,-0.79788,662
165,0.896,0.026,0.446,-0.427,-0.305,0.183,3.543,-63.479,167.135,-25.433,-11.607,-15.147,29.68,0.07901,0.52545,-0.03268,0.84647,659,0.803,0.175,0.544,2.014,-4.883,0.244,19.336,-54.294,-134.011,-24.707,-12.287,1.74,28.53,-0.41275,0.35745,0.31274,0.77713,657,0.651,-0.09,0.73,-0.793,-1.587,-0.122,-5.735,-41.325,156.967,-18.633,-7.393,-27.527,32.5,-0.20602,-0.33795,0.11758,-0.91074,661,0.896,0.006,0.327,-0.61,2.93,-0.488,1.989,-70.587,-158.071,-29.673,-11.013,-5.873,32.64,0.16376,-0.56723,-0.12122,-0.79788,663
166,0.924,0.025,0.445,-0.305,-1.16,0.0,3.538,-63.49,167.135,-25.433,-11.607,-15.147,29.68,0.07901,0.52545,-0.03268,0.84647,668,0.805,0.192,0.568,2.319,-3.296,-0.427,19.413,-54.349,-134.05,-24.707,-12.287,1.74,28.53,-0.41275,0.35745,0.31274,0.77713,664,0.644,-0.088,0.74,1.343,-1.282,-0.244,-5.713,-41.342,157.028,-18.633,-7.393,-27.527,32.5,-0.20602,-0.33795,0.11758,-0.91074,670,0.918,0.0,0.332,-0.671,2.563,-0.793,2.01,-70.527,-158.099,-29.54,-10.547,-5.913,32.64,0.16376,-0.56723,-0.12122,-0.79788,666
167,0.921,0.036,0.443,-0.916,-1.404,-0.183,3.532,-63.512,167.119,-25.433,-11.607,-15.147,29.68,0.07901,0.52545,-0.03268,0.84647,669,0.821,0.199,0.578,0.61,-0.671,-0.977,19.457,-54.355,-134.072,-24.707,-12.287,1.74,28.53,-0.41275,0.35745,0.31274,0.77713,665,0.653,-0.071,0.757,1.16,-0.549,-0.916,-5.68,-41.342,157.088,-18.633,-7.393,-27.527,32.5,-0.20602,-0.33795,0.11758,-0.91074,671,0.932,0.014,0.33,-1.465,1.953,-0.732,2.016,-70.488,-158.143,-29.54,-10.547,-5.913,32.64,0.16376,-0.56723,-0.12122,-0.79788,667
168,0.934,0.039,0.442,-1.343,-1.648,-0.183,3.521,-63.539,167.102,-25.433,-11.607,-15.147,29.68,0.07901,0.52545,-0.03268,0.84647,674,0.862,0.196,0.542,0.366,-2.93,0.0,19.49,-54.388,-134.077,-24.707,-12.287,1.74,28.53,-0.41275,0.35745,0.31274,0.77713,672,0.7,-0.066,0.751,1.16,1.16,-0.488,-5.647,-41.309,157.154,-18.633,-7.393,-27.527,32.5,-0.20602,-0.33795,0.11758,-0.91074,678,0.938,0.011,0.332,-2.502,2.258,-1.099,2.016,-70.439,-158.203,-29.54,-10.547,-5.913,32.64,0.16376,-0.56723,-0.12122,-0.79788,676
169,0.935,0.022,0.451,-0.488,-2.014,-0.061,3.516,-63.578,167.086,-25.433,-11.607,-15.147,29.68,0.07901,0.52545,-0.03268,0.84647,675,0.872,0.208,0.542,1.648,-4.272,0.549,19.534,-54.454,-134.099,-24.707,-12.287,1.74,28.53,-0.41275,0.35745,0.31274,0.77713,673,0.719,-0.067,0.749,-0.488,0.427,0.366,-5.663,-41.292,157.236,-18.633,-7.393,-27.527,32.5,-0.20602,-0.33795,0.11758,-0.91074,679,0.957,0.012,0.324,-1.465,0.916,-1.526,2.065,-70.417,-158.302,-29.54,-10.547,-5.913,32.64,0.16376,-0.56723,-0.12122,-0.79788,677
170,0.918,0.02,0.465,-0.549,-2.136,-0.488,3.521,-63.622,167.058,-25.433,-11.607,-15.147,29.68,0.07901,0.52545,-0.03268,0.84647,682,0.831,0.222,0.575,1.465,-0.427,0.427,19.567,-54.481,-134.099,-24.8,-12.167,1.587,28.53,-0.41275,0.35745,0.31274,0.77713,686,0.677,-0.063,0.762,2.197,-0.549,0.488,-5.63,-41.303,157.286,-18.633,-7.393,-27.527,32.5,-0.20602,-0.33795,0.11758,-0.91074,684,0.961,-0.001,0.333,1.831,-0.366,-1.282,2.17,-70.422,-158.417,-29.54,-10.547,-5.913,32.64,0.16388,-0.56335,-0.12302,-0.80032,680
171,0.908,0.024,0.46,0.305,-1.465,-0.427,3.543,-63.655,167.014,-25.433,-11.607,-15.147,29.68,0.07901,0.52545,-0.03268,0.84647,683,0.789,0.206,0.561,-1.16,4.089,0.244,19.523,-54.421,-134.055,-24.8,-12.167,1.587,28.53,-0.41275,0.35745,0.31274,0.77713,687,0.628,-0.064,0.754,1.831,-0.183,0.977,-5.609,-41.303,157.313,-18.633,-7.393,-27.527,32.5,-0.20602,-0.33795,0.11758,-0.91074,685,0.954,0.001,0.343,0.549,-1.282,-0.916,2.225,-70.45,-158.516,-29.54,-10.547,-5.913,32.64,0.16388,-0.56335,-0.12302,-0.80032,681
172,0.896,0.028,0.452,0.488,-0.977,-0.366,3.571,-63.677,166.992,-25.433,-11.607,-15.147,29.68,0.07901,0.52545,-0.03268,0.84647,692,0.777,0.193,0.524,-1.404,2.869,0.244,19.462,-54.36,-134.011,-24.8,-12.167,1.587,28.53,-0.41351,0.35577,0.31439,0.77682,690,0.626,-0.072,0.731,-2.014,-2.319,-0.061,-5.647,-41.353,157.319,-18.633,-7.393,-27.527,32.5,-0.20602,-0.33795,0.11758,-0.91074,694,0.919,0.016,0.332,0.183,-0.732,-0.671,2.258,-70.461,-158.588,-29.54,-10.547,-5.913,32.64,0.16388,-0.56335,-0.12302,-0.80032,688
173,0.896,0.029,0.444,0.366,-0.671,-0.061,3.587,-63.693,166.959,-25.433,-11.607,-15.147,29.68,0.07901,0.52545,-0.03268,0.84647,693,0.779,0.184,0.519,0.549,0.183,0.244,19.457,-54.349,-133.989,-24.8,-12.167,1.587,28.53,-0.41351,0.35577,0.31439,0.77682,691,0.626,-0.076,0.71,0.122,-0.305,0.061,-5.647,-41.358,157.33,-18.633,-7.393,-27.527,32.5,-0.20602,-0.33795,0.11758,-0.91074,695,0.892,0.019,0.318,0.732,0.427,-0.244,2.274,-70.455,-158.626,-29.54,-10.547,-5.913,32.64,0.16388,-0.56335,-0.12302,-0.80032,689
174,0.905,0.03,0.438,0.061,-0.793,0.122,3.593,-63.704,166.904,-25.433,-11.607,-15.147,29.68,0.07901,0.52545,-0.03268,0.84647,696,0.792,0.191,0.542,1.099,-0.488,0.0,19.479,-54.355,-133.984,-24.8,-12.167,1.587,28.53,-0.41351,0.35577,0.31439,0.77682,700,0.662,-0.073,0.724,-0.061,-2.563,0.061,-5.652,-41.407,157.357,-18.567,-7.733,-28.087,32.5,-0.20602,-0.33795,0.11758,-0.91074,702,0.898,0.016,0.317,1.343,1.16,-0.061,2.302,-70.433,-158.643,-29.54,-10.547,-5.913,32.64,0.16388,-0.56335,-0.12302,-0.80032,698
175,0.919,0.033,0.443,-0.305,-0.916,0.366,3.582,-63.721,166.888,-25.433,-11.607,-15.147,29.68,0.07901,0.52545,-0.03268,0.84647,697,0.82,0.199,0.545,0.61,-1.526,-0.122,19.512,-54.371,-133.995,-24.8,-12.167,1.587,28.53,-0.41351,0.35577,0.31439,0.77682,701,0.697,-0.067,0.74,0.244,-0.061,0.061,-5.647,-41.424,157.401,-18.567,-7.733,-28.087,32.5,-0.20602,-0.33795,0.11758,-0.91074,703,0.924,0.018,0.327,0.916,1.587,-0.061,2.318,-70.4,-158.626,-29.54,-10.547,-5.913,32.64,0.16388,-0.56335,-0.12302,-0.80032,699
176,0.933,0.034,0.449,-0.549,-0.793,0.0,3.571,-63.737,166.888,-25.433,-11.607,-15.147,29.68,0.07901,0.52545,-0.03268,0.84647,706,0.856,0.201,0.551,0.854,-2.38,0.0,19.55,-54.41,-134.017,-24.8,-12.167,1.587,28.53,-0.41351,0.35577,0.31439,0.77682,704,0.714,-0.066,0.738,-0.61,1.465,0.549,-5.647,-41.413,157.423,-18.567,-7.733,-28.087,32.5,-0.19992,-0.33731,0.11432,-0.91272,712,0.935,0.021,0.324,-0.244,1.709,0.0,2.307,-70.367,-158.626,-29.54,-10.547,-5.913,32.64,0.16388,-0.56335,-0.12302,-0.80032,708
177,0.935,0.037,0.45,-0.244,-0.549,-0.122,3.565,-63.754,166.893,-25.433,-11.607,-15.147,29.68,0.07901,0.52545,-0.03268,0.84647,707,0.869,0.205,0.544,0.732,-1.953,0.183,19.589,-54.448,-134.044,-24.8,-12.167,1.587,28.53,-0.41351,0.35577,0.31439,0.77682,705,0.698,-0.067,0.73,-2.869,3.967,0.977,-5.674,-41.375,157.44,-18.567,-7.733,-28.087,32.5,-0.19992,-0.33731,0.11432,-0.91272,713,0.951,0.018,0.332,0.0,1.77,0.0,2.307,-70.334,-158.643,-29.54,-10.547,-5.913,32.64,0.16388,-0.56335,-0.12302,-0.80032,709
178,0.924,0.032,0.452,0.0,0.0,0.061,3.571,-63.759,166.893,-25.433,-11.607,-15.147,29.68,0.07901,0.52545,-0.03268,0.84647,716,0.857,0.209,0.535,0.427,-0.916,0.061,19.611,-54.476,-134.055,-24.8,-12.167,1.587,28.53,-0.41351,0.35577,0.31439,0.77682,714,0.668,-0.082,0.746,-1.77,3.662,-0.183,-5.729,-41.303,157.418,-18.567,-7.733,-28.087,32.5,-0.19992,-0.33731,0.11432,-0.91272,718,0.966,0.016,0.334,-0.977,1.465,-0.366,2.307,-70.307,-158.67,-29.54,-10.547,-5.913,32.64,0.16388,-0.56335,-0.12302,-0.80032,710
179,0.921,0.026,0.457,0.061,0.366,0.427,3.565,-63.754,166.91,-25.433,-11.607,-15.147,29.68,0.07901,0.52545,-0.03268,0.84647,717,0.831,0.203,0.556,0.0,1.709,-0.305,19.616,-54.459,-134.05,-24.8,-12.167,1.587,28.53,-0.41351,0.35577,0.31439,0.77682,715,0.642,-0.079,0.757,-0.732,2.991,-1.099,-5.746,-41.248,157.379,-18.567,-7.733,-28.087,32.5,-0.19992,-0.33731,0.11432,-0.91272,719,0.956,0.015,0.329,-1.465,0.854,-0.244,2.296,-70.291,-158.703,-29.54,-10.547,-5.913,32.64,0.16388,-0.56335,-0.12302,-0.80032,711
180,0.916,0.029,0.457,0.0,0.244,0.244,3.56,-63.748,166.926,-25.66,-11.927,-14.333,29.68,0.07901,0.52545,-0.03268,0.84647,726,0.797,0.2,0.556,-1.343,3.418,-0.732,19.594,-54.404,-134.044,-24.8,-12.167,1.587,28.53,-0.41351,0.35577,0.31439,0.77682,722,0.615,-0.075,0.745,-3.052,-0.427,-1.709,-5.746,-41.215,157.319,-18.567,-7.733,-28.087,32.5,-0.19992,-0.33731,0.11432,-0.91272,724,0.941,0.008,0.33,-0.061,1.038,0.0,2.296,-70.274,-158.714,-29.54,-10.547,-5.913,32.64,0.16388,-0.56335,-0.12302,-0.80032,720
181,0.908,0.03,0.45,0.305,0.916,-0.061,3.56,-63.737,166.954,-25.66,-11.927,-14.333,29.68,0.07901,0.52545,-0.03268,0.84647,727,0.775,0.194,0.545,-1.77,2.625,-0.61,19.556,-54.349,-134.028,-24.8,-12.167,1.587,28.53,-0.41351,0.35577,0.31439,0.77682,723,0.624,-0.079,0.737,-2.258,-1.465,-1.099,-5.773,-41.243,157.258,-18.567,-7.733,-28.087,32.5,-0.19992,-0.33731,0.11432,-0.91272,725,0.929,0.012,0.332,-0.61,1.526,-0.061,2.285,-70.252,-158.725,-29.54,-10.547,-5.913,32.64,0.16388,-0.56335,-0.12302,-0.80032,721
182,0.903,0.027,0.443,0.488,1.404,0.0,3.571,-63.715,166.97,-25.66,-11.927,-14.333,29.68,0.0799,0.5271,-0.03351,0.84531,730,0.783,0.188,0.545,-1.16,1.099,-0.427,19.534,-54.322,-134.022,-24.8,-12.167,1.587,28.53,-0.41351,0.35577,0.31439,0.77682,732,0.644,-0.086,0.731,-0.305,-0.244,-1.038,-5.79,-41.27,157.225,-18.567,-7.733,-28.087,32.5,-0.19992,-0.33731,0.11432,-0.91272,734,0.91,0.016,0.325,-0.793,2.136,-0.183,2.274,-70.214,-158.73,-29.54,-10.547,-5.913,32.64,0.16388,-0.56335,-0.12302,-0.80032,728
183,0.904,0.024,0.437,0.305,1.343,0.305,3.571,-63.693,166.981,-25.66,-11.927,-14.333,29.68,0.0799,0.5271,-0.03351,0.84531,731,0.803,0.181,0.535,0.122,-1.16,-0.366,19.545,-54.333,-134.044,-24.8,-12.167,1.587,28.53,-0.41351,0.35577,0.31439,0.77682,733,0.668,-0.074,0.726,-2.014,-0.244,-0.366,-5.79,-41.276,157.203,-18.567,-7.733,-28.087,32.5,-0.19992,-0.33731,0.11432,-0.91272,735,0.91,0.015,0.327,-0.549,2.808,-0.122,2.269,-70.159,-158.725,-29.54,-10.547,-5.913,32.64,0.16388,-0.56335,-0.12302,-0.80032,729
184,0.912,0.025,0.439,0.0,0.732,0.488,3.554,-63.671,167.009,-25.66,-11.927,-14.333,29.68,0.0799,0.5271,-0.03351,0.84531,736,0.821,0.19,0.542,0.671,-2.258,-0.244,19.583,-54.371,-134.094,-24.8,-12.167,1.587,28.53,-0.41351,0.35577,0.31439,0.77682,738,0.667,-0.063,0.735,-0.671,1.099,0.061,-5.823,-41.276,157.198,-18.567,-7.733,-28.087,32.5,-0.19992,-0.33731,0.11432,-0.91272,740,0.926,0.011,0.332,-0.366,3.174,0.0,2.258,-70.104,-158.708,-29.48,-10.753,-5.567,32.64,0.16388,-0.56335,-0.12302,-0.80032,742
185,0.918,0.027,0.447,0.0,0.366,0.366,3.538,-63.666,167.003,-25.66,-11.927,-14.333,29.68,0.0799,0.5271,-0.03351,0.84531,737,0.825,0.206,0.544,0.427,-1.221,0.0,19.611,-54.399,-134.127,-24.8,-12.167,1.587,28.53,-0.41351,0.35577,0.31439,0.77682,739,0.657,-0.065,0.755,0.977,-0.977,0.793,-5.828,-41.265,157.192,-18.567,-7.733,-28.087,32.5,-0.19992,-0.33731,0.11432,-0.91272,741,0.933,0.009,0.334,0.061,3.357,0.0,2.247,-70.043,-158.698,-29.48,-10.753,-5.567,32.64,0.16388,-0.56335,-0.12302,-0.80032,743
186,0.923,0.03,0.454,-0.061,0.549,0.183,3.527,-63.66,166.998,-25.66,-11.927,-14.333,29.68,0.0799,0.5271,-0.03351,0.84531,746,0.819,0.209,0.557,1.099,0.183,0.366,19.627,-54.404,-134.121,-25.213,-12.373,1.333,28.53,-0.41351,0.35577,0.31439,0.77682,744,0.66,-0.076,0.76,-0.732,-2.93,0.183,-5.828,-41.292,157.181,-18.567,-7.733,-28.087,32.5,-0.19992,-0.33731,0.11432,-0.91272,750,0.94,0.012,0.343,0.61,3.113,0.244,2.241,-69.983,-158.698,-29.48,-10.753,-5.567,32.64,0.16238,-0.56049,-0.1217,-0.80286,748
187,0.918,0.032,0.457,0.0,0.488,0.122,3.516,-63.649,166.992,-25.66,-11.927,-14.333,29.68,0.0799,0.5271,-0.03351,0.84531,747,0.827,0.202,0.563,0.671,0.244,0.671,19.627,-54.404,-134.105,-25.213,-12.373,1.333,28.53,-0.41351,0.35577,0.31439,0.77682,745,0.671,-0.075,0.754,-0.854,0.061,0.854,-5.85,-41.336,157.181,-18.567,-7.733,-28.087,32.5,-0.19992,-0.33731,0.11432,-0.91272,751,0.937,0.013,0.348,0.0,2.869,0.061,2.23,-69.922,-158.676,-29.48,-10.753,-5.567,32.64,0.16238,-0.56049,-0.1217,-0.80286,749
188,0.913,0.028,0.457,-0.122,0.61,0.061,3.516,-63.644,166.965,-25.66,-11.927,-14.333,29.68,0.0799,0.5271,-0.03351,0.84531,754,0.829,0.199,0.562,0.61,-0.61,0.854,19.627,-54.415,-134.083,-25.213,-12.373,1.333,28.53,-0.41351,0.35577,0.31439,0.77682,752,0.652,-0.084,0.757,-1.221,1.221,1.77,-5.889,-41.325,157.198,-18.567,-7.733,-28.087,32.5,-0.19992,-0.33731,0.11432,-0.91272,756,0.928,0.012,0.346,-0.732,2.075,0.122,2.214,-69.873,-158.659,-29.48,-10.753,-5.567,32.64,0.16238,-0.56049,-0.1217,-0.80286,758
189,0.911,0.025,0.455,-0.122,0.671,-0.061,3.51,-63.633,166.954,-25.66,-11.927,-14.333,29.68,0.0799,0.5271,-0.03351,0.84531,755,0.815,0.2,0.57,0.671,0.61,0.732,19.616,-54.415,-134.061,-25.213,-12.373,1.333,28.53,-0.41351,0.35577,0.31439,0.77682,753,0.637,-0.088,0.754,0.0,0.488,0.305,-5.927,-41.303,157.203,-18.567,-7.733,-28.087,32.5,-0.19992,-0.33731,0.11432,-0.91272,757,0.926,0.008,0.354,0.366,1.16,0.244,2.192,-69.84,-158.637,-29.48,-10.753,-5.567,32.64,0.16238,-0.56049,-0.1217,-0.80286,759
190,0.911,0.028,0.454,0.122,0.549,-0.244,3.516,-63.616,166.959,-25.66,-11.927,-14.333,29.68,0.0799,0.5271,-0.03351,0.84531,760,0.804,0.191,0.565,0.244,1.953,0.549,19.594,-54.382,-134.017,-25.213,-12.373,1.333,28.53,-0.4136,0.35571,0.31531,0.77646,766,0.662,-0.078,0.741,-1.099,2.014,0.366,-5.933,-41.281,157.198,-18.507,-7.56,-29.36,32.5,-0.19992,-0.33731,0.11432,-0.91272,764,0.919,0.008,0.348,-0.61,0.854,0.0,2.181,-69.818,-158.643,-29.48,-10.753,-5.567,32.64,0.16238,-0.56049,-0.1217,-0.80286,762
191,0.905,0.032,0.445,-0.122,0.854,-0.122,3.521,-63.605,166.976,-25.66,-11.927,-14.333,29.68,0.0799,0.5271,-0.03351,0.84531,761,0.822,0.194,0.553,-0.061,0.244,0.366,19.578,-54.371,-133.989,-25.213,-12.373,1.333,28.53,-0.4136,0.35571,0.31531,0.77646,767,0.671,-0.077,0.743,-2.197,4.761,0.0,-5.96,-41.226,157.203,-18.507,-7.56,-29.36,32.5,-0.19992,-0.33731,0.11432,-0.91272,765,0.914,0.014,0.345,-0.977,0.305,-0.244,2.164,-69.807,-158.665,-29.48,-10.753,-5.567,32.64,0.16238,-0.56049,-0.1217,-0.80286,763
192,0.915,0.029,0.454,-0.183,0.732,0.183,3.521,-63.589,166.97,-25.66,-11.927,-14.333,29.68,0.0799,0.5271,-0.03351,0.84531,770,0.831,0.203,0.552,-1.282,-0.183,0.061,19.556,-54.371,-133.989,-25.213,-12.373,1.333,28.53,-0.4136,0.35571,0.31531,0.77646,772,0.628,-0.081,0.761,1.099,4.639,0.427,-5.982,-41.127,157.192,-18.507,-7.56,-29.36,32.5,-0.20279,-0.33438,0.11734,-0.91278,774,0.93,0.013,0.356,-0.305,-1.465,-0.183,2.159,-69.807,-158.687,-29.48,-10.753,-5.567,32.64,0.16238,-0.56049,-0.1217,-0.80286,768
193,0.913,0.022,0.458,0.183,-0.549,0.122,3.516,-63.589,166.948,-25.66,-11.927,-14.333,29.68,0.0799,0.5271,-0.03351,0.84531,771,0.797,0.208,0.575,-2.441,3.174,-0.61,19.501,-54.322,-133.973,-25.213,-12.373,1.333,28.53,-0.4136,0.35571,0.31531,0.77646,773,0.593,-0.087,0.771,2.502,0.854,1.282,-5.96,-41.056,157.192,-18.507,-7.56,-29.36,32.5,-0.20279,-0.33438,0.11734,-0.91278,775,0.933,0.002,0.361,0.977,-1.953,-0.183,2.17,-69.835,-158.708,-29.48,-10.753,-5.567,32.64,0.16238,-0.56049,-0.1217,-0.80286,769
194,0.901,0.028,0.458,0.183,-0.793,0.0,3.516,-63.6,166.91,-25.66,-11.927,-14.333,29.68,0.0799,0.5271,-0.03351,0.84531,778,0.761,0.193,0.578,-4.272,6.409,-1.343,19.407,-54.207,-133.945,-25.213,-12.373,1.333,28.53,-0.4136,0.35571,0.31531,0.77646,780,0.603,-0.092,0.755,-2.991,-1.343,-3.845,-5.938,-41.045,157.203,-18.507,-7.56,-29.36,32.5,-0.20279,-0.33438,0.11734,-0.91278,782,0.912,0.011,0.34,-1.343,-2.319,-0.244,2.186,-69.868,-158.73,-29.48,-10.753,-5.567,32.64,0.16238,-0.56049,-0.1217,-0.80286,776
195,0.89,0.036,0.454,0.366,0.0,0.244,3.521,-63.611,166.86,-25.66,-11.927,-14.333,29.68,0.0799,0.5271,-0.03351,0.84531,779,0.764,0.181,0.551,-3.418,3.235,-1.343,19.341,-54.13,-133.951,-25.213,-12.373,1.333,28.53,-0.4136,0.35571,0.31531,0.77646,781,0.638,-0.084,0.746,-0.305,-1.282,-1.526,-5.933,-41.072,157.143,-18.507,-7.56,-29.36,32.5,-0.20279,-0.33438,0.11734,-0.91278,783,0.89,0.027,0.328,-2.625,-1.343,0.0,2.164,-69.906,-158.725,-29.48,-10.753,-5.567,32.64,0.16238,-0.56049,-0.1217,-0.80286,777
196,0.896,0.031,0.451,0.0,-0.122,0.427,3.51,-63.611,166.822,-25.66,-11.927,-14.333,29.68,0.0799,0.5271,-0.03351,0.84531,786,0.793,0.181,0.551,0.61,-2.808,-0.671,19.396,-54.168,-133.995,-25.213,-12.373,1.333,28.53,-0.4136,0.35571,0.31531,0.77646,784,0.654,-0.082,0.734,0.427,-1.526,-1.16,-5.916,-41.089,157.148,-18.507,-7.56,-29.36,32.5,-0.20279,-0.33438,0.11734,-0.91278,790,0.898,0.015,0.338,-2.197,0.061,0.0,2.115,-69.922,-158.703,-29.48,-10.753,-5.567,32.64,0.16238,-0.56049,-0.1217,-0.80286,788
197,0.908,0.028,0.447,-0.732,-0.916,0.183,3.494,-63.622,166.8,-25.66,-11.927,-14.333,29.68,0.0799,0.5271,-0.03351,0.84531,787,0.812,0.185,0.557,1.16,-4.272,-0.366,19.462,-54.24,-134.044,-25.213,-12.373,1.333,28.53,-0.4136,0.35571,0.31531,0.77646,785,0.66,-0.077,0.746,0.916,-2.38,-0.061,-5.9,-41.111,157.176,-18.507,-7.56,-29.36,32.5,-0.20279,-0.33438,0.11734,-0.91278,791,0.926,0.0,0.351,-1.77,1.099,-0.61,2.082,-69.911,-158.681,-29.48,-10.753,-5.567,32.64,0.16238,-0.56049,-0.1217,-0.80286,789
198,0.921,0.025,0.446,-0.549,-1.77,0.0,3.483,-63.649,166.789,-25.187,-11.547,-15.213,29.68,0.0799,0.5271,-0.03351,0.84531,798,0.823,0.191,0.555,0.793,-2.625,-0.122,19.501,-54.278,-134.066,-25.213,-12.373,1.333,28.53,-0.4136,0.35571,0.31531,0.77646,794,0.669,-0.074,0.755,1.831,-2.38,0.488,-5.883,-41.149,157.214,-18.507,-7.56,-29.36,32.5,-0.20279,-0.33438,0.11734,-0.91278,796,0.933,0.001,0.344,-0.183,0.183,-0.977,2.087,-69.89,-158.659,-29.48,-10.753,-5.567,32.64,0.16238,-0.56049,-0.1217,-0.80286,792
199,0.924,0.023,0.456,-0.427,-2.38,-0.183,3.488,-63.693,166.772,-25.187,-11.547,-15.213,29.68,0.0799,0.5271,-0.03351,0.84531,799,0.827,0.202,0.562,1.587,-2.258,0.244,19.539,-54.316,-134.088,-25.213,-12.373,1.333,28.53,-0.4136,0.35571,0.31531,0.77646,795,0.659,-0.068,0.746,1.648,-2.869,0.916,-5.867,-41.188,157.247,-18.507,-7.56,-29.36,32.5,-0.20279,-0.33438,0.11734,-0.91278,797,0.94,0.005,0.352,0.183,-0.732,-1.038,2.137,-69.884,-158.665,-29.48,-10.753,-5.567,32.64,0.16238,-0.56049,-0.1217,-0.80286,793
200,0.908,0.025,0.458,-0.854,-2.319,-0.427,3.494,-63.737,166.783,-25.187,-11.547,-15.213,29.68,0.08163,0.52719,-0.03497,0.84503,802,0.817,0.205,0.546,1.526,-1.404,0.549,19.567,-54.338,-134.083,-25.213,-12.373,1.333,28.53,-0.4136,0.35571,0.31531,0.77646,806,0.647,-0.07,0.724,-1.648,-3.906,1.953,-5.878,-41.243,157.302,-18.507,-7.56,-29.36,32.5,-0.20279,-0.33438,0.11734,-0.91278,804,0.93,0.008,0.344,0.366,-0.854,-0.732,2.186,-69.89,-158.687,-29.48,-10.753,-5.567,32.64,0.16238,-0.56049,-0.1217,-0.80286,800
201,0.898,0.019,0.452,-0.61,-1.953,-0.793,3.51,-63.77,166.783,-25.187,-11.547,-15.213,29.68,0.08163,0.52719,-0.03497,0.84503,803,0.807,0.196,0.535,0.916,-0.854,0.732,19.572,-54.36,-134.072,-25.213,-12.373,1.333,28.53,-0.4136,0.35571,0.31531,0.77646,807,0.651,-0.075,0.73,-3.662,-3.296,1.953,-5.96,-41.309,157.401,-18.507,-7.56,-29.36,32.5,-0.20279,-0.33438,0.11734,-0.91278,805,0.907,0.004,0.339,1.038,-0.244,-0.244,2.219,-69.901,-158.708,-29.48,-10.753,-5.567,32.64,0.16238,-0.56049,-0.1217,-0.80286,801
202,0.9,0.018,0.447,0.0,-1.892,-1.16,3.554,-63.803,166.756,-25.187,-11.547,-15.213,29.68,0.08163,0.52719,-0.03497,0.84503,810,0.807,0.199,0.543,0.244,0.122,0.244,19.567,-54.355,-134.061,-24.8,-12.067,0.973,28.53,-0.4136,0.35571,0.31531,0.77646,808,0.662,-0.068,0.74,-5.127,-4.944,3.052,-6.086,-41.375,157.478,-18.507,-7.56,-29.36,32.5,-0.20279,-0.33438,0.11734,-0.91278,812,0.911,0.004,0.34,0.61,-0.427,-0.488,2.247,-69.901,-158.719,-29.387,-10.773,-6.027,32.64,0.16238,-0.56049,-0.1217,-0.80286,816
203,0.915,0.028,0.446,0.0,-1.709,-1.465,3.609,-63.836,166.718,-25.187,-11.547,-15.213,29.68,0.08163,0.52719,-0.03497,0.84503,811,0.809,0.197,0.547,0.854,0.61,0.671,19.561,-54.344,-134.028,-24.8,-12.067,0.973,28.53,-0.4136,0.35571,0.31531,0.77646,809,0.672,-0.071,0.737,-2.563,-4.883,4.7,-6.24,-41.462,157.588,-18.507,-7.56,-29.36,32.5,-0.20279,-0.33438,0.11734,-0.91278,813,0.92,0.015,0.34,-3.235,-0.305,-0.854,2.247,-69.901,-158.741,-29.387,-10.773,-6.027,32.64,0.16238,-0.56049,-0.1217,-0.80286,817
204,0.937,0.035,0.446,-0.61,-1.648,-1.343,3.653,-63.864,166.69,-25.187,-11.547,-15.213,29.68,0.08163,0.52719,-0.03497,0.84503,814,0.826,0.195,0.541,2.93,-0.183,2.014,19.572,-54.36,-133.967,-24.8,-12.067,0.973,28.53,-0.4136,0.35571,0.31531,0.77646,818,0.693,-0.076,0.733,-3.967,-5.371,8.911,-6.405,-41.545,157.775,-18.747,-7.547,-28.913,32.5,-0.20279,-0.33438,0.11734,-0.91278,822,0.939,0.026,0.343,-3.174,0.305,-0.671,2.214,-69.901,-158.774,-29.387,-10.773,-6.027,32.64,0.16177,-0.56,-0.12103,-0.80341,820
205,0.947,0.036,0.443,-1.404,-1.16,-1.099,3.68,-63.885,166.652,-25.187,-11.547,-15.213,29.68,0.08163,0.52719,-0.03497,0.84503,815,0.843,0.194,0.531,4.456,-1.831,3.479,19.589,-54.421,-133.874,-24.8,-12.067,0.973,28.53,-0.4136,0.35571,0.31531,0.77646,819,0.709,-0.1,0.747,-2.93,-7.141,5.92,-6.625,-41.638,158.016,-18.747,-7.547,-28.913,32.5,-0.20279,-0.33438,0.11734,-0.91278,823,0.956,0.017,0.332,-0.732,0.977,-0.305,2.197,-69.879,-158.78,-29.387,-10.773,-6.027,32.64,0.16177,-0.56,-0.12103,-0.80341,821
206,0.944,0.037,0.439,-0.61,-0.366,-0.793,3.697,-63.896,166.608,-25.187,-11.547,-15.213,29.68,0.08163,0.52719,-0.03497,0.84503,826,0.856,0.204,0.547,4.456,-1.831,3.54,19.605,-54.481,-133.792,-24.8,-12.067,0.973,28.53,-0.41498,0.35535,0.31583,0.77567,824,0.688,-0.086,0.747,-0.61,-7.751,4.395,-6.779,-41.77,158.159,-18.747,-7.547,-28.913,32.5,-0.19717,-0.33923,0.1218,-0.91165,828,0.959,0.021,0.322,-1.831,1.221,-0.793,2.203,-69.857,-158.796,-29.387,-10.773,-6.027,32.64,0.16177,-0.56,-0.12103,-0.80341,830
207,0.932,0.04,0.436,0.0,0.122,-0.305,3.719,-63.896,166.602,-25.187,-11.547,-15.213,29.68,0.08163,0.52719,-0.03497,0.84503,827,0.844,0.213,0.559,3.174,-0.671,2.625,19.611,-54.509,-133.72,-24.8,-12.067,0.973,28.53,-0.41498,0.35535,0.31583,0.77567,825,0.657,-0.085,0.738,-0.488,-9.033,5.188,-6.877,-41.918,158.291,-18.747,-7.547,-28.913,32.5,-0.19717,-0.33923,0.1218,-0.91165,829,0.959,0.029,0.333,-5.066,-0.61,-0.732,2.175,-69.851,-158.829,-29.387,-10.773,-6.027,32.64,0.16177,-0.56,-0.12103,-0.80341,831
208,0.928,0.034,0.438,-0.366,0.61,0.122,3.713,-63.891,166.602,-25.187,-11.547,-15.213,29.68,0.08163,0.52719,-0.03497,0.84503,834,0.81,0.21,0.55,1.709,0.122,2.319,19.589,-54.525,-133.649,-24.8,-12.067,0.973,28.53,-0.41498,0.35535,0.31583,0.77567,838,0.65,-0.095,0.73,-0.305,-7.446,2.869,-6.982,-42.083,158.445,-18.747,-7.547,-28.913,32.5,-0.19717,-0.33923,0.1218,-0.91165,836,0.948,0.001,0.313,-5.554,-1.343,-0.671,2.12,-69.879,-158.868,-29.387,-10.773,-6.027,32.64,0.16177,-0.56,-0.12103,-0.80341,832
209,0.92,0.024,0.443,-1.16,1.16,-0.671,3.719,-63.875,166.602,-25.187,-11.547,-15.213,29.68,0.08163,0.52719,-0.03497,0.84503,835,0.801,0.198,0.554,-0.61,1.099,1.648,19.528,-54.52,-133.583,-24.8,-12.067,0.973,28.53,-0.41498,0.35535,0.31583,0.77567,839,0.655,-0.107,0.724,-1.953,-4.272,-0.183,-7.042,-42.209,158.533,-18.747,-7.547,-28.913,32.5,-0.19717,-0.33923,0.1218,-0.91165,837,0.918,0.008,0.317,-4.028,-0.305,0.122,2.043,-69.901,-158.884,-29.387,-10.773,-6.027,32.64,0.16177,-0.56,-0.12103,-0.80341,833
210,0.908,0.033,0.445,-0.244,1.831,-0.549,3.73,-63.847,166.641,-25.187,-11.547,-15.213,29.68,0.08163,0.52719,-0.03497,0.84503,844,0.802,0.184,0.549,-1.953,-0.793,1.099,19.473,-54.542,-133.55,-24.8,-12.067,0.973,28.53,-0.41498,0.35535,0.31583,0.77567,842,0.672,-0.094,0.717,-3.357,-3.784,-1.953,-7.081,-42.286,158.527,-18.747,-7.547,-28.913,32.5,-0.19717,-0.33923,0.1218,-0.91165,846,0.916,0.032,0.332,-2.869,0.732,-0.183,1.983,-69.906,-158.862,-29.387,-10.773,-6.027,32.64,0.16177,-0.56,-0.12103,-0.80341,840
211,0.907,0.039,0.442,0.977,2.441,0.305,3.741,-63.809,166.712,-25.187,-11.547,-15.213,29.68,0.08163,0.52719,-0.03497,0.84503,845,0.814,0.192,0.541,-1.099,-2.197,0.183,19.473,-54.586,-133.566,-24.8,-12.067,0.973,28.53,-0.41498,0.35535,0.31583,0.77567,843,0.701,-0.087,0.705,-4.028,-1.465,-3.296,-7.114,-42.352,158.516,-18.747,-7.547,-28.913,32.5,-0.19717,-0.33923,0.1218,-0.91165,847,0.924,0.02,0.333,-3.357,1.038,-0.61,1.95,-69.895,-158.879,-29.387,-10.773,-6.027,32.64,0.16177,-0.56,-0.12103,-0.80341,841
212,0.924,0.03,0.449,0.305,2.258,0.916,3.719,-63.77,166.778,-25.187,-11.547,-15.213,29.68,0.08163,0.52719,-0.03497,0.84503,852,0.841,0.197,0.542,-0.061,-2.563,-0.122,19.501,-54.63,-133.605,-24.8,-12.067,0.973,28.53,-0.41498,0.35535,0.31583,0.77567,850,0.701,-0.096,0.695,-4.822,4.15,-4.089,-7.136,-42.363,158.467,-18.747,-7.547,-28.913,32.5,-0.19717,-0.33923,0.1218,-0.91165,854,0.943,0.011,0.336,-2.319,0.61,0.122,1.917,-69.884,-158.912,-29.387,-10.773,-6.027,32.64,0.16177,-0.56,-0.12103,-0.80341,848
213,0.906,0.028,0.452,-0.854,2.319,0.549,3.68,-63.726,166.811,-25.187,-11.547,-15.213,29.68,0.08163,0.52719,-0.03497,0.84503,853,0.847,0.187,0.525,0.244,-2.441,-0.122,19.534,-54.679,-133.649,-24.8,-12.067,0.973,28.53,-0.41498,0.35535,0.31583,0.77567,851,0.682,-0.102,0.714,-5.066,6.042,-3.54,-7.152,-42.286,158.379,-18.747,-7.547,-28.913,32.5,-0.19717,-0.33923,0.1218,-0.91165,855,0.927,0.004,0.34,-2.563,1.099,0.671,1.857,-69.873,-158.917,-29.387,-10.773,-6.027,32.64,0.16177,-0.56,-0.12103,-0.80341,849
214,0.896,0.034,0.458,-0.793,2.136,0.305,3.647,-63.688,166.816,-25.32,-11.913,-14.567,29.68,0.08163,0.52719,-0.03497,0.84503,858,0.836,0.182,0.542,0.854,-0.732,0.244,19.556,-54.695,-133.676,-24.8,-12.067,0.973,28.53,-0.41498,0.35535,0.31583,0.77567,856,0.663,-0.095,0.735,0.488,6.348,-0.366,-7.163,-42.182,158.297,-18.747,-7.547,-28.913,32.5,-0.19717,-0.33923,0.1218,-0.91165,864,0.917,0.003,0.351,-1.709,0.488,0.305,1.791,-69.862,-158.917,-29.387,-10.773,-6.027,32.64,0.16177,-0.56,-0.12103,-0.80341,860
215,0.892,0.027,0.462,0.0,1.282,0.366,3.631,-63.66,166.838,-25.32,-11.913,-14.567,29.68,0.08163,0.52719,-0.03497,0.84503,859,0.817,0.199,0.564,0.854,1.953,0.061,19.55,-54.668,-133.676,-24.8,-12.067,0.973,28.53,-0.41498,0.35535,0.31583,0.77567,857,0.639,-0.083,0.75,4.028,6.592,-0.732,-7.114,-42.067,158.247,-18.747,-7.547,-28.913,32.5,-0.19717,-0.33923,0.1218,-0.91165,865,0.913,0.0,0.373,-0.732,-0.671,-0.183,1.763,-69.868,-158.956,-29.387,-10.773,-6.027,32.64,0.16177,-0.56,-0.12103,-0.80341,861
216,0.892,0.026,0.468,0.0,0.0,0.427,3.615,-63.655,166.866,-25.32,-11.913,-14.567,29.68,0.08163,0.52719,-0.03497,0.84503,866,0.792,0.212,0.565,-0.61,4.944,-0.549,19.506,-54.569,-133.649,-24.8,-12.067,0.973,28.53,-0.41498,0.35535,0.31583,0.77567,868,0.61,-0.08,0.755,5.676,3.967,-0.244,-7.004,-41.957,158.192,-18.747,-7.547,-28.913,32.5,-0.19717,-0.33923,0.1218,-0.91165,870,0.915,0.006,0.377,-0.916,-2.014,-0.122,1.758,-69.89,-158.983,-29.387,-10.773,-6.027,32.64,0.16177,-0.56,-0.12103,-0.80341,862
217,0.897,0.028,0.468,0.061,-0.854,0.549,3.598,-63.66,166.899,-25.32,-11.913,-14.567,29.68,0.08163,0.52719,-0.03497,0.84503,867,0.77,0.206,0.563,0.244,5.493,-0.61,19.479,-54.465,-133.627,-24.8,-12.067,0.973,28.53,-0.41498,0.35535,0.31583,0.77567,869,0.615,-0.085,0.76,5.066,0.671,0.732,-6.888,-41.896,158.176,-18.747,-7.547,-28.913,32.5,-0.19717,-0.33923,0.1218,-0.91165,871,0.907,0.011,0.355,-0.916,-2.136,0.0,1.741,-69.928,-158.967,-29.387,-10.773,-6.027,32.64,0.16177,-0.56,-0.12103,-0.80341,863
218,0.909,0.024,0.463,0.061,-1.16,0.427,3.587,-63.677,166.948,-25.32,-11.913,-14.567,29.68,0.08044,0.52673,-0.0336,0.84549,878,0.77,0.193,0.572,0.793,4.272,0.0,19.462,-54.377,-133.583,-24.8,-12.067,0.973,28.53,-0.41498,0.35535,0.31583,0.77567,872,0.633,-0.095,0.736,2.258,0.549,1.099,-6.812,-41.88,158.214,-18.747,-7.547,-28.913,32.5,-0.19717,-0.33923,0.1218,-0.91165,876,0.909,0.006,0.349,-1.099,-1.099,0.061,1.719,-69.95,-158.939,-29.387,-10.773,-6.027,32.64,0.16177,-0.56,-0.12103,-0.80341,874
219,0.907,0.023,0.45,0.122,-0.977,0.122,3.582,-63.693,166.987,-25.32,-11.913,-14.567,29.68,0.08044,0.52673,-0.0336,0.84549,879,0.785,0.186,0.554,0.61,1.648,0.549,19.44,-54.344,-133.55,-24.8,-12.067,0.973,28.53,-0.41498,0.35535,0.31583,0.77567,873,0.646,-0.093,0.735,-1.282,0.0,-0.305,-6.801,-41.863,158.264,-18.747,-7.547,-28.913,32.5,-0.19717,-0.33923,0.1218,-0.91165,877,0.912,0.001,0.333,1.465,0.305,0.061,1.719,-69.95,-158.912,-29.387,-10.773,-6.027,32.64,0.16177,-0.56,-0.12103,-0.80341,875
220,0.91,0.022,0.438,0.488,-0.549,0.122,3.582,-63.699,167.009,-25.32,-11.913,-14.567,29.68,0.08044,0.52673,-0.0336,0.84549,884,0.798,0.192,0.551,0.122,-0.366,0.305,19.44,-54.344,-133.544,-24.8,-12.067,0.973,28.53,-0.41498,0.35535,0.31583,0.77567,882,0.667,-0.086,0.746,-2.441,1.16,-2.014,-6.823,-41.847,158.28,-18.88,-7.313,-27.973,32.5,-0.19717,-0.33923,0.1218,-0.91165,886,0.909,0.007,0.332,3.235,0.183,0.366,1.747,-69.939,-158.879,-29.027,-10.913,-5.94,32.64,0.16177,-0.56,-0.12103,-0.80341,880
221,0.92,0.027,0.43,0.61,-1.038,0.305,3.587,-63.715,167.02,-25.32,-11.913,-14.567,29.68,0.08044,0.52673,-0.0336,0.84549,885,0.809,0.202,0.564,-0.977,-1.404,-0.122,19.435,-54.36,-133.572,-24.8,-12.067,0.973,28.53,-0.41498,0.35535,0.31583,0.77567,883,0.696,-0.085,0.724,-2.869,2.258,-2.93,-6.828,-41.814,158.264,-18.88,-7.313,-27.973,32.5,-0.19717,-0.33923,0.1218,-0.91165,887,0.923,0.015,0.336,2.075,0.183,0.61,1.769,-69.928,-158.818,-29.027,-10.913,-5.94,32.64,0.16177,-0.56,-0.12103,-0.80341,881
222,0.931,0.04,0.421,-0.183,-0.916,0.549,3.571,-63.737,167.042,-25.32,-11.913,-14.567,29.68,0.08044,0.52673,-0.0336,0.84549,890,0.845,0.192,0.543,-1.404,-2.197,0.0,19.429,-54.393,-133.605,-24.987,-12.187,0.773,28.53,-0.41498,0.35535,0.31583,0.77567,894,0.707,-0.096,0.754,2.258,1.221,0.427,-6.823,-41.776,158.264,-18.88,-7.313,-27.973,32.5,-0.19666,-0.33902,0.1217,-0.91183,892,0.936,0.021,0.314,-1.77,-0.61,0.427,1.725,-69.933,-158.763,-29.027,-10.913,-5.94,32.64,0.16177,-0.56,-0.12103,-0.80341,888
223,0.958,0.034,0.446,-0.305,-1.648,0.61,3.543,-63.77,167.053,-25.32,-11.913,-14.567,29.68,0.08044,0.52673,-0.0336,0.84549,891,0.867,0.195,0.558,2.136,-3.052,0.427,19.49,-54.448,-133.638,-24.987,-12.187,0.773,28.53,-0.41498,0.35535,0.31583,0.77567,895,0.67,-0.093,0.769,4.639,0.793,0.732,-6.773,-41.748,158.307,-18.88,-7.313,-27.973,32.5,-0.19666,-0.33902,0.1217,-0.91183,893,0.969,0.017,0.338,-0.549,-2.563,0.793,1.675,-69.972,-158.703,-29.027,-10.913,-5.94,32.64,0.16177,-0.56,-0.12103,-0.80341,889
224,0.918,0.028,0.457,-0.366,-2.258,0.244,3.532,-63.814,167.064,-25.32,-11.913,-14.567,29.68,0.08044,0.52673,-0.0336,0.84549,896,0.837,0.208,0.579,0.732,-0.427,-0.061,19.506,-54.454,-133.649,-24.987,-12.187,0.773,28.53,-0.41608,0.35519,0.31583,0.77515,898,0.642,-0.089,0.739,-0.305,-1.404,0.0,-6.718,-41.743,158.335,-18.88,-7.313,-27.973,32.5,-0.19666,-0.33902,0.1217,-0.91183,902,0.963,-0.003,0.343,2.075,-2.319,0.366,1.681,-70.016,-158.665,-29.027,-10.913,-5.94,32.64,0.15961,-0.56122,-0.11771,-0.8035,900
225,0.899,0.028,0.453,-0.366,-0.61,-0.427,3.543,-63.836,167.042,-25.32,-11.913,-14.567,29.68,0.08044,0.52673,-0.0336,0.84549,897,0.785,0.193,0.551,-2.441,1.343,0.0,19.446,-54.421,-133.632,-24.987,-12.187,0.773,28.53,-0.41608,0.35519,0.31583,0.77515,899,0.634,-0.092,0.723,-0.977,-0.488,-0.61,-6.729,-41.765,158.34,-18.88,-7.313,-27.973,32.5,-0.19666,-0.33902,0.1217,-0.91183,903,0.919,-0.004,0.33,2.38,-2.197,-0.061,1.725,-70.065,-158.665,-29.027,-10.913,-5.94,32.64,0.15961,-0.56122,-0.11771,-0.8035,901
226,0.898,0.024,0.45,0.549,-0.122,-0.305,3.565,-63.842,167.003,-25.32,-11.913,-14.567,29.68,0.08044,0.52673,-0.0336,0.84549,904,0.791,0.194,0.543,0.549,-1.099,0.122,19.413,-54.421,-133.621,-24.987,-12.187,0.773,28.53,-0.41608,0.35519,0.31583,0.77515,910,0.645,-0.083,0.729,0.671,-1.404,-0.244,-6.735,-41.781,158.313,-18.88,-7.313,-27.973,32.5,-0.19666,-0.33902,0.1217,-0.91183,906,0.896,0.014,0.335,2.38,-1.282,-0.305,1.785,-70.093,-158.681,-29.027,-10.913,-5.94,32.64,0.15961,-0.56122,-0.11771,-0.8035,908
227,0.912,0.022,0.452,0.244,-0.61,0.0,3.576,-63.853,166.981,-25.32,-11.913,-14.567,29.68,0.08044,0.52673,-0.0336,0.84549,905,0.803,0.186,0.547,1.465,-1.282,0.305,19.435,-54.443,-133.621,-24.987,-12.187,0.773,28.53,-0.41608,0.35519,0.31583,0.77515,911,0.651,-0.089,0.726,1.831,-2.441,0.793,-6.724,-41.808,158.313,-18.88,-7.313,-27.973,32.5,-0.19666,-0.33902,0.1217,-0.91183,907,0.915,0.016,0.342,2.808,-0.427,0.061,1.835,-70.104,-158.648,-29.027,-10.913,-5.94,32.64,0.15961,-0.56122,-0.11771,-0.8035,909
228,0.911,0.028,0.446,-0.61,-0.671,-0.061,3.571,-63.864,166.965,-25.32,-11.913,-14.567,29.68,0.08044,0.52673,-0.0336,0.84549,918,0.82,0.188,0.542,-1.282,-1.038,-0.061,19.451,-54.459,-133.61,-24.987,-12.187,0.773,28.53,-0.41608,0.35519,0.31583,0.77515,914,0.678,-0.093,0.718,1.282,-2.502,0.366,-6.707,-41.852,158.346,-18.88,-7.313,-27.973,32.5,-0.19666,-0.33902,0.1217,-0.91183,916,0.929,0.008,0.323,3.601,0.488,0.488,1.879,-70.098,-158.588,-29.027,-10.913,-5.94,32.64,0.15961,-0.56122,-0.11771,-0.8035,912
229,0.909,0.034,0.446,-0.244,-0.061,0.0,3.565,-63.864,166.926,-25.32,-11.913,-14.567,29.68,0.08044,0.52673,-0.0336,0.84549,919,0.851,0.193,0.521,-2.014,-1.709,-0.427,19.44,-54.481,-133.616,-24.987,-12.187,0.773,28.53,-0.41608,0.35519,0.31583,0.77515,915,0.71,-0.082,0.712,-0.916,-1.831,-1.343,-6.702,-41.896,158.362,-18.88,-7.313,-27.973,32.5,-0.19666,-0.33902,0.1217,-0.91183,917,0.928,0.007,0.328,2.869,0.854,0.305,1.917,-70.087,-158.516,-29.027,-10.913,-5.94,32.64,0.15961,-0.56122,-0.11771,-0.8035,913
230,0.915,0.027,0.444,0.122,-0.305,0.305,3.56,-63.869,166.915,-25.527,-12.08,-14.973,29.68,0.08044,0.52673,-0.0336,0.84549,924,0.865,0.205,0.547,0.977,-2.563,0.183,19.44,-54.514,-133.638,-24.987,-12.187,0.773,28.53,-0.41608,0.35519,0.31583,0.77515,922,0.711,-0.076,0.743,0.916,-0.671,0.0,-6.696,-41.929,158.357,-18.88,-7.313,-27.973,32.5,-0.19666,-0.33902,0.1217,-0.91183,926,0.92,0.012,0.333,1.16,1.465,0.061,1.934,-70.06,-158.456,-29.027,-10.913,-5.94,32.64,0.15961,-0.56122,-0.11771,-0.8035,920
231,0.935,0.026,0.453,0.061,-0.977,0.488,3.543,-63.891,166.926,-25.527,-12.08,-14.973,29.68,0.08044,0.52673,-0.0336,0.84549,925,0.836,0.212,0.577,0.0,0.732,0.488,19.468,-54.547,-133.649,-24.987,-12.187,0.773,28.53,-0.41608,0.35519,0.31583,0.77515,923,0.671,-0.086,0.768,2.014,-1.526,1.343,-6.68,-41.946,158.368,-18.88,-7.313,-27.973,32.5,-0.19666,-0.33902,0.1217,-0.91183,927,0.951,0.011,0.356,1.465,1.099,0.366,1.945,-70.038,-158.406,-29.027,-10.913,-5.94,32.64,0.15961,-0.56122,-0.11771,-0.8035,921
232,0.929,0.032,0.461,-0.061,-1.282,0.061,3.543,-63.913,166.926,-25.527,-12.08,-14.973,29.68,0.08044,0.52673,-0.0336,0.84549,932,0.798,0.204,0.567,-2.869,5.127,-0.488,19.429,-54.52,-133.627,-24.987,-12.187,0.773,28.53,-0.41608,0.35519,0.31583,0.77515,930,0.642,-0.094,0.737,1.221,-4.517,1.465,-6.674,-41.995,158.406,-18.88,-7.313,-27.973,32.5,-0.19666,-0.33902,0.1217,-0.91183,934,0.96,0.007,0.359,0.244,0.244,0.183,1.934,-70.027,-158.368,-29.027,-10.913,-5.94,32.64,0.15961,-0.56122,-0.11771,-0.8035,928
233,0.902,0.035,0.459,0.0,-1.038,-0.244,3.56,-63.935,166.91,-25.527,-12.08,-14.973,29.68,0.08044,0.52673,-0.0336,0.84549,933,0.78,0.179,0.541,-3.784,5.92,-1.77,19.347,-54.415,-133.583,-24.987,-12.187,0.773,28.53,-0.41608,0.35519,0.31583,0.77515,931,0.634,-0.098,0.708,-0.793,-1.099,-0.488,-6.685,-42.067,158.423,-18.88,-7.313,-27.973,32.5,-0.19666,-0.33902,0.1217,-0.91183,935,0.926,0.01,0.355,-1.953,-1.343,-0.061,1.906,-70.043,-158.357,-29.027,-10.913,-5.94,32.64,0.15961,-0.56122,-0.11771,-0.8035,929
234,0.896,0.029,0.438,0.427,0.122,-0.122,3.576,-63.929,166.888,-25.527,-12.08,-14.973,29.68,0.08032,0.52869,-0.03409,0.84424,938,0.782,0.177,0.532,-1.77,3.418,-1.221,19.276,-54.305,-133.566,-24.987,-12.187,0.773,28.53,-0.41608,0.35519,0.31583,0.77515,936,0.649,-0.083,0.705,-1.831,-0.977,0.61,-6.707,-42.089,158.39,-18.547,-6.86,-28.44,32.5,-0.19666,-0.33902,0.1217,-0.91183,942,0.89,0.006,0.318,0.305,-1.526,-0.305,1.912,-70.071,-158.373,-29.027,-10.913,-5.94,32.64,0.15961,-0.56122,-0.11771,-0.8035,940
235,0.911,0.023,0.432,0.671,0.122,0.122,3.587,-63.924,166.882,-25.527,-12.08,-14.973,29.68,0.08032,0.52869,-0.03409,0.84424,939,0.803,0.189,0.545,-1.709,1.648,-0.488,19.243,-54.245,-133.555,-24.987,-12.187,0.773,28.53,-0.41608,0.35519,0.31583,0.77515,937,0.666,-0.085,0.728,-1.648,-0.244,2.441,-6.768,-42.105,158.395,-18.547,-6.86,-28.44,32.5,-0.19666,-0.33902,0.1217,-0.91183,943,0.887,0.005,0.337,-0.854,-1.465,-0.793,1.934,-70.098,-158.417,-29.027,-10.913,-5.94,32.64,0.15961,-0.56122,-0.11771,-0.8035,941
