Index,L5_Acceleration X(g),L5_Acceleration Y(g),L5_Acceleration Z(g),L5_Angular velocity X(°/s),L5_Angular velocity Y(°/s),L5_Angular velocity Z(°/s),L5_Angle X(°),L5_Angle Y(°),L5_Angle Z(°),L5_Magnetic field X(ʯt),L5_Magnetic field Y(ʯt),L5_Magnetic field Z(ʯt),L5_Temperature(℃),L5_Quaternions 0(),L5_Quaternions 1(),L5_Quaternions 2(),L5_Quaternions 3(),L5___orig_idx,T4_Acceleration X(g),T4_Acceleration Y(g),T4_Acceleration Z(g),T4_Angular velocity X(°/s),T4_Angular velocity Y(°/s),T4_Angular velocity Z(°/s),T4_Angle X(°),T4_Angle Y(°),T4_Angle Z(°),T4_Magnetic field X(ʯt),T4_Magnetic field Y(ʯt),T4_Magnetic field Z(ʯt),T4_Temperature(℃),T4_Quaternions 0(),T4_Quaternions 1(),T4_Quaternions 2(),T4_Quaternions 3(),T4___orig_idx,C7_Acceleration X(g),C7_Acceleration Y(g),C7_Acceleration Z(g),C7_Angular velocity X(°/s),C7_Angular velocity Y(°/s),C7_Angular velocity Z(°/s),C7_Angle X(°),C7_Angle Y(°),C7_Angle Z(°),C7_Magnetic field X(ʯt),C7_Magnetic field Y(ʯt),C7_Magnetic field Z(ʯt),C7_Temperature(℃),C7_Quaternions 0(),C7_Quaternions 1(),C7_Quaternions 2(),C7_Quaternions 3(),C7___orig_idx,T12_Acceleration X(g),T12_Acceleration Y(g),T12_Acceleration Z(g),T12_Angular velocity X(°/s),T12_Angular velocity Y(°/s),T12_Angular velocity Z(°/s),T12_Angle X(°),T12_Angle Y(°),T12_Angle Z(°),T12_Magnetic field X(ʯt),T12_Magnetic field Y(ʯt),T12_Magnetic field Z(ʯt),T12_Temperature(℃),T12_Quaternions 0(),T12_Quaternions 1(),T12_Quaternions 2(),T12_Quaternions 3(),T12___orig_idx
0,1.001,0.011,0.201,0.122,0.0,0.183,3.796,-78.788,158.983,-27.027,-12.733,-9.94,24.11,-0.12,-0.62817,0.09024,-0.76337,0,0.722,-0.023,0.702,0.183,-0.183,0.0,-2.142,-46.016,-122.036,-22.56,-8.467,-3.313,22.91,0.43884,-0.35089,-0.17383,-0.80869,2,0.43,0.013,0.9,0.366,-0.549,0.061,0.643,-25.692,161.131,-12.08,-10.44,-32.14,27.06,-0.15729,-0.22025,0.03152,-0.9621,4,0.986,-0.067,0.044,-0.244,0.0,0.0,-58.173,-85.54,-113.659,-31.72,-10.853,0.373,27.01,-0.0748,0.69208,0.02609,0.71741,6
1,1.0,0.014,0.2,0.244,-0.183,0.183,3.779,-78.788,159.0,-27.027,-12.733,-9.94,24.11,-0.12,-0.62817,0.09024,-0.76337,1,0.721,-0.024,0.695,0.0,0.305,0.0,-2.142,-46.011,-122.031,-22.56,-8.467,-3.313,22.91,0.43884,-0.35089,-0.17383,-0.80869,3,0.432,0.01,0.896,0.244,0.0,0.0,0.648,-25.692,161.164,-12.08,-10.44,-32.14,27.06,-0.15729,-0.22025,0.03152,-0.9621,5,0.984,-0.064,0.045,-0.183,-0.061,0.122,-58.189,-85.54,-113.632,-31.72,-10.853,0.373,27.01,-0.0748,0.69208,0.02609,0.71741,7
2,0.999,0.013,0.197,0.244,-0.244,0.183,3.763,-78.794,159.016,-27.027,-12.733,-9.94,24.11,-0.12,-0.62817,0.09024,-0.76337,14,0.719,-0.025,0.695,0.0,0.366,0.0,-2.137,-46.005,-122.031,-22.56,-8.467,-3.313,22.91,0.43884,-0.35089,-0.17383,-0.80869,12,0.432,0.011,0.896,0.122,0.366,0.0,0.654,-25.681,161.197,-12.08,-10.44,-32.14,27.06,-0.1579,-0.22015,0.03073,-0.96207,8,0.983,-0.064,0.042,0.0,0.0,0.061,-58.184,-85.534,-113.621,-31.72,-10.853,0.373,27.01,-0.0748,0.69208,0.02609,0.71741,10
3,1.0,0.012,0.196,0.061,-0.183,0.183,3.746,-78.799,159.038,-27.027,-12.733,-9.94,24.11,-0.12,-0.62817,0.09024,-0.76337,15,0.72,-0.026,0.699,0.244,0.183,0.0,-2.137,-46.0,-122.025,-22.56,-8.467,-3.313,22.91,0.43884,-0.35089,-0.17383,-0.80869,13,0.43,0.01,0.896,0.427,0.427,0.0,0.659,-25.67,161.23,-12.08,-10.44,-32.14,27.06,-0.1579,-0.22015,0.03073,-0.96207,9,0.981,-0.065,0.041,0.061,0.061,0.0,-58.156,-85.534,-113.632,-31.72,-10.853,0.373,27.01,-0.0748,0.69208,0.02609,0.71741,11
4,1.001,0.01,0.195,0.122,0.061,0.244,3.724,-78.799,159.06,-26.913,-12.727,-9.86,24.11,-0.12,-0.62817,0.09024,-0.76337,20,0.722,-0.025,0.697,0.244,0.061,0.0,-2.131,-45.994,-122.02,-22.267,-8.5,-2.253,22.91,0.43884,-0.35089,-0.17383,-0.80869,18,0.43,0.01,0.897,0.366,0.549,0.061,0.67,-25.659,161.263,-12.08,-10.44,-32.14,27.06,-0.1579,-0.22015,0.03073,-0.96207,16,0.982,-0.065,0.042,0.0,0.0,0.0,-58.145,-85.534,-113.632,-31.72,-10.853,0.373,27.01,-0.0748,0.69208,0.02609,0.71741,22
5,1.004,0.01,0.196,0.122,0.122,0.305,3.697,-78.794,159.093,-26.913,-12.727,-9.86,24.11,-0.12,-0.62817,0.09024,-0.76337,21,0.723,-0.026,0.697,0.183,0.0,0.0,-2.126,-45.994,-122.014,-22.267,-8.5,-2.253,22.91,0.43884,-0.35089,-0.17383,-0.80869,19,0.432,0.011,0.898,0.183,0.61,0.122,0.67,-25.648,161.274,-12.08,-10.44,-32.14,27.06,-0.1579,-0.22015,0.03073,-0.96207,17,0.985,-0.065,0.04,-0.122,-0.122,0.061,-58.173,-85.534,-113.599,-31.72,-10.853,0.373,27.01,-0.0748,0.69208,0.02609,0.71741,23
6,1.002,0.011,0.195,0.305,0.183,0.244,3.669,-78.794,159.12,-26.913,-12.727,-9.86,24.11,-0.12,-0.62817,0.09024,-0.76337,28,0.724,-0.027,0.697,0.061,0.122,0.0,-2.12,-45.989,-122.014,-22.267,-8.5,-2.253,22.91,0.43884,-0.35089,-0.17383,-0.80869,30,0.433,0.009,0.898,0.305,0.671,0.122,0.676,-25.631,161.285,-12.08,-10.44,-32.14,27.06,-0.1579,-0.22015,0.03073,-0.96207,26,0.985,-0.066,0.039,0.061,-0.061,0.0,-58.189,-85.534,-113.571,-32.093,-10.793,0.8,27.01,-0.0748,0.69208,0.02609,0.71741,24
7,1.001,0.011,0.195,0.427,0.122,0.244,3.647,-78.794,159.148,-26.913,-12.727,-9.86,24.11,-0.12,-0.62817,0.09024,-0.76337,29,0.722,-0.026,0.696,0.122,0.0,-0.061,-2.115,-45.989,-122.009,-22.267,-8.5,-2.253,22.91,0.43884,-0.35089,-0.17383,-0.80869,31,0.433,0.008,0.898,0.122,0.549,0.0,0.676,-25.62,161.318,-12.08,-10.44,-32.14,27.06,-0.1579,-0.22015,0.03073,-0.96207,27,0.984,-0.067,0.038,0.0,-0.061,0.0,-58.195,-85.534,-113.56,-32.093,-10.793,0.8,27.01,-0.0748,0.69208,0.02609,0.71741,25
8,1.002,0.01,0.196,0.183,0.0,0.183,3.631,-78.794,159.17,-26.913,-12.727,-9.86,24.11,-0.11981,-0.62833,0.09055,-0.76324,34,0.724,-0.025,0.697,0.366,-0.061,-0.122,-2.109,-45.989,-122.009,-22.267,-8.5,-2.253,22.91,0.43979,-0.34985,-0.17444,-0.80847,32,0.432,0.008,0.901,0.244,0.183,0.0,0.681,-25.62,161.345,-12.08,-10.44,-32.14,27.06,-0.1579,-0.22015,0.03073,-0.96207,38,0.985,-0.066,0.039,-0.061,-0.061,0.061,-58.211,-85.534,-113.544,-32.093,-10.793,0.8,27.01,-0.0748,0.69208,0.02609,0.71741,36
9,1.002,0.01,0.195,0.122,0.0,0.122,3.615,-78.794,159.186,-26.913,-12.727,-9.86,24.11,-0.11981,-0.62833,0.09055,-0.76324,35,0.724,-0.023,0.694,0.183,-0.122,0.0,-2.104,-45.989,-122.003,-22.267,-8.5,-2.253,22.91,0.43979,-0.34985,-0.17444,-0.80847,33,0.433,0.01,0.9,0.549,-0.122,0.061,0.692,-25.62,161.367,-12.08,-10.44,-32.14,27.06,-0.1579,-0.22015,0.03073,-0.96207,39,0.984,-0.067,0.038,-0.366,-0.122,0.061,-58.244,-85.534,-113.516,-32.093,-10.793,0.8,27.01,-0.0748,0.69208,0.02609,0.71741,37
10,1.002,0.011,0.197,0.244,-0.061,0.122,3.604,-78.794,159.197,-26.913,-12.727,-9.86,24.11,-0.11981,-0.62833,0.09055,-0.76324,42,0.724,-0.024,0.696,0.183,-0.122,0.0,-2.098,-45.994,-122.003,-22.267,-8.5,-2.253,22.91,0.43979,-0.34985,-0.17444,-0.80847,46,0.435,0.012,0.898,0.427,-0.122,0.122,0.698,-25.626,161.384,-12.08,-10.44,-32.14,27.06,-0.1579,-0.22015,0.03073,-0.96207,44,0.986,-0.067,0.04,-0.183,-0.122,0.0,-58.288,-85.534,-113.489,-32.093,-10.793,0.8,27.01,-0.07507,0.69193,0.02631,0.71747,40
11,1.002,0.012,0.197,0.366,0.122,0.122,3.593,-78.794,159.214,-26.913,-12.727,-9.86,24.11,-0.11981,-0.62833,0.09055,-0.76324,43,0.725,-0.025,0.696,0.183,-0.122,0.0,-2.098,-45.994,-121.998,-22.267,-8.5,-2.253,22.91,0.43979,-0.34985,-0.17444,-0.80847,47,0.434,0.01,0.896,0.305,0.122,0.061,0.703,-25.626,161.389,-12.08,-10.44,-32.14,27.06,-0.1579,-0.22015,0.03073,-0.96207,45,0.985,-0.065,0.042,0.0,-0.061,0.0,-58.321,-85.534,-113.467,-32.093,-10.793,0.8,27.01,-0.07507,0.69193,0.02631,0.71747,41
12,1.0,0.013,0.196,0.732,0.061,0.122,3.593,-78.794,159.225,-26.913,-12.727,-9.86,24.11,-0.11981,-0.62833,0.09055,-0.76324,54,0.724,-0.032,0.687,0.122,0.061,0.061,-2.093,-46.0,-121.992,-22.267,-8.5,-2.253,22.91,0.43979,-0.34985,-0.17444,-0.80847,52,0.437,0.009,0.898,0.488,-0.183,-0.061,0.714,-25.626,161.384,-12.08,-10.44,-32.14,27.06,-0.1579,-0.22015,0.03073,-0.96207,48,0.984,-0.067,0.039,0.0,0.0,0.0,-58.332,-85.534,-113.456,-32.093,-10.793,0.8,27.01,-0.07507,0.69193,0.02631,0.71747,50
13,1.0,0.014,0.197,0.793,0.183,0.0,3.598,-78.794,159.23,-26.913,-12.727,-9.86,24.11,-0.11981,-0.62833,0.09055,-0.76324,55,0.722,-0.029,0.693,0.427,0.61,0.122,-2.093,-45.994,-121.987,-22.267,-8.5,-2.253,22.91,0.43979,-0.34985,-0.17444,-0.80847,53,0.436,0.005,0.889,0.793,0.061,0.305,0.725,-25.626,161.389,-12.08,-10.44,-32.14,27.06,-0.1579,-0.22015,0.03073,-0.96207,49,0.983,-0.077,0.038,0.061,0.366,0.0,-58.321,-85.534,-113.472,-32.093,-10.793,0.8,27.01,-0.07507,0.69193,0.02631,0.71747,51
14,1.001,0.01,0.198,0.793,0.427,-0.244,3.631,-78.783,159.214,-26.913,-12.727,-9.86,24.11,-0.11981,-0.62833,0.09055,-0.76324,56,0.721,-0.03,0.696,0.427,0.671,0.244,-2.087,-45.983,-121.976,-22.267,-8.5,-2.253,22.91,0.43979,-0.34985,-0.17444,-0.80847,58,0.431,0.004,0.891,0.61,0.061,0.427,0.731,-25.631,161.395,-12.08,-10.44,-32.14,27.06,-0.1579,-0.22015,0.03073,-0.96207,62,0.983,-0.072,0.043,0.854,0.488,-0.61,-58.228,-85.529,-113.582,-32.093,-10.793,0.8,27.01,-0.07507,0.69193,0.02631,0.71747,60
15,1.002,0.007,0.195,1.16,0.793,-0.122,3.658,-78.772,159.219,-26.913,-12.727,-9.86,24.11,-0.11981,-0.62833,0.09055,-0.76324,57,0.722,-0.032,0.7,0.793,0.488,0.427,-2.082,-45.972,-121.965,-22.267,-8.5,-2.253,22.91,0.43979,-0.34985,-0.17444,-0.80847,59,0.432,0.008,0.9,1.038,0.366,0.122,0.747,-25.626,161.389,-12.08,-10.44,-32.14,27.06,-0.1579,-0.22015,0.03073,-0.96207,63,0.986,-0.067,0.041,1.648,0.122,-0.854,-58.052,-85.534,-113.752,-32.093,-10.793,0.8,27.01,-0.07507,0.69193,0.02631,0.71747,61
16,1.004,0.008,0.2,0.244,0.122,-0.122,3.669,-78.772,159.219,-26.913,-12.727,-9.86,24.11,-0.11981,-0.62833,0.09055,-0.76324,66,0.721,-0.026,0.7,1.099,0.61,0.488,-2.076,-45.961,-121.948,-22.267,-8.5,-2.253,22.91,0.43979,-0.34985,-0.17444,-0.80847,64,0.432,0.007,0.899,0.977,0.183,0.488,0.758,-25.62,161.389,-11.787,-10.313,-32.313,27.06,-0.1579,-0.22015,0.03073,-0.96207,70,0.987,-0.068,0.04,1.282,0.0,-0.854,-57.903,-85.545,-113.857,-32.093,-10.793,0.8,27.01,-0.07507,0.69193,0.02631,0.71747,68
17,1.002,0.011,0.197,-0.793,-0.305,0.0,3.647,-78.777,159.241,-26.913,-12.727,-9.86,24.11,-0.11981,-0.62833,0.09055,-0.76324,67,0.721,-0.021,0.698,0.854,0.427,0.305,-2.071,-45.95,-121.937,-22.267,-8.5,-2.253,22.91,0.43979,-0.34985,-0.17444,-0.80847,65,0.429,0.009,0.9,1.282,-0.488,0.732,0.775,-25.637,161.406,-11.787,-10.313,-32.313,27.06,-0.1579,-0.22015,0.03073,-0.96207,71,0.986,-0.062,0.038,0.916,-0.061,-0.732,-57.788,-85.562,-113.945,-32.093,-10.793,0.8,27.01,-0.07507,0.69193,0.02631,0.71747,69
18,1.002,0.013,0.197,-0.854,-0.305,0.0,3.625,-78.783,159.252,-26.913,-12.727,-9.86,24.11,-0.11981,-0.62833,0.09055,-0.76324,74,0.723,-0.018,0.695,0.732,0.183,0.0,-2.06,-45.945,-121.926,-22.267,-8.5,-2.253,22.91,0.43979,-0.34985,-0.17444,-0.80847,72,0.43,0.014,0.904,1.404,0.0,0.61,0.797,-25.637,161.406,-11.787,-10.313,-32.313,27.06,-0.15598,-0.22003,0.02917,-0.96246,78,0.984,-0.058,0.038,0.0,0.122,-0.183,-57.717,-85.567,-114.0,-32.093,-10.793,0.8,27.01,-0.07507,0.69193,0.02631,0.71747,76
19,1.003,0.01,0.197,-0.305,-0.061,-0.061,3.625,-78.788,159.247,-26.913,-12.727,-9.86,24.11,-0.11981,-0.62833,0.09055,-0.76324,75,0.723,-0.02,0.695,0.244,0.0,-0.244,-2.043,-45.945,-121.921,-22.267,-8.5,-2.253,22.91,0.43979,-0.34985,-0.17444,-0.80847,73,0.434,0.016,0.899,1.221,-0.183,0.488,0.813,-25.637,161.406,-11.787,-10.313,-32.313,27.06,-0.15598,-0.22003,0.02917,-0.96246,79,0.984,-0.062,0.038,-0.427,0.427,0.183,-57.678,-85.567,-114.033,-32.093,-10.793,0.8,27.01,-0.07507,0.69193,0.02631,0.71747,77
20,1.002,0.007,0.195,0.427,0.061,-0.183,3.642,-78.783,159.23,-26.913,-12.727,-9.86,24.11,-0.11981,-0.62833,0.09055,-0.76324,86,0.72,-0.024,0.696,-0.305,0.061,-0.183,-2.038,-45.945,-121.926,-22.267,-8.5,-2.253,22.91,0.43979,-0.34985,-0.17444,-0.80847,84,0.434,0.013,0.898,0.366,-0.183,0.0,0.818,-25.642,161.384,-11.787,-10.313,-32.313,27.06,-0.15598,-0.22003,0.02917,-0.96246,82,0.984,-0.069,0.039,-0.671,0.549,0.183,-57.629,-85.562,-114.077,-32.093,-10.793,0.8,27.01,-0.07507,0.69193,0.02631,0.71747,80
21,1.002,0.008,0.197,0.427,0.366,-0.183,3.658,-78.777,159.214,-26.913,-12.727,-9.86,24.11,-0.11981,-0.62833,0.09055,-0.76324,87,0.722,-0.027,0.702,-0.549,0.061,0.0,-2.043,-45.945,-121.926,-22.267,-8.5,-2.253,22.91,0.43979,-0.34985,-0.17444,-0.80847,85,0.43,0.012,0.897,-0.61,-0.122,-0.305,0.807,-25.648,161.334,-11.787,-10.313,-32.313,27.06,-0.15598,-0.22003,0.02917,-0.96246,83,0.984,-0.072,0.04,-0.122,0.488,0.061,-57.563,-85.551,-114.131,-32.093,-10.793,0.8,27.01,-0.07507,0.69193,0.02631,0.71747,81
22,1.001,0.014,0.195,-0.427,0.244,-0.183,3.658,-78.777,159.219,-27.007,-12.7,-8.927,24.11,-0.11981,-0.62833,0.09055,-0.76324,92,0.718,-0.026,0.696,-0.549,0.061,0.122,-2.054,-45.945,-121.921,-22.687,-8.867,-2.513,22.91,0.43979,-0.34985,-0.17444,-0.80847,90,0.432,0.012,0.9,-1.038,-0.122,-0.305,0.791,-25.648,161.312,-11.787,-10.313,-32.313,27.06,-0.15598,-0.22003,0.02917,-0.96246,88,0.984,-0.066,0.039,0.366,0.305,-0.061,-57.491,-85.545,-114.186,-32.093,-10.793,0.8,27.01,-0.07507,0.69193,0.02631,0.71747,94
23,0.998,0.017,0.195,-0.61,-0.061,-0.122,3.658,-78.777,159.219,-27.007,-12.7,-8.927,24.11,-0.11981,-0.62833,0.09055,-0.76324,93,0.715,-0.024,0.695,-0.183,0.183,0.0,-2.065,-45.945,-121.915,-22.687,-8.867,-2.513,22.91,0.43979,-0.34985,-0.17444,-0.80847,91,0.426,0.011,0.897,-0.916,0.305,-0.183,0.775,-25.642,161.285,-11.787,-10.313,-32.313,27.06,-0.15598,-0.22003,0.02917,-0.96246,89,0.981,-0.06,0.041,0.61,0.244,-0.183,-57.431,-85.545,-114.252,-32.093,-10.793,0.8,27.01,-0.07507,0.69193,0.02631,0.71747,95
24,0.997,0.013,0.198,0.0,-0.122,-0.122,3.669,-78.783,159.203,-27.007,-12.7,-8.927,24.11,-0.11981,-0.62833,0.09055,-0.76324,102,0.716,-0.021,0.7,-0.061,0.061,-0.122,-2.065,-45.939,-121.915,-22.687,-8.867,-2.513,22.91,0.43979,-0.34985,-0.17444,-0.80847,100,0.427,0.014,0.898,-0.488,-0.366,-0.183,0.764,-25.648,161.263,-11.787,-10.313,-32.313,27.06,-0.15598,-0.22003,0.02917,-0.96246,98,0.98,-0.059,0.044,0.183,0.061,-0.122,-57.387,-85.545,-114.285,-32.52,-10.88,0.693,27.01,-0.07507,0.69193,0.02631,0.71747,96
25,1.0,0.009,0.2,0.244,0.244,0.0,3.669,-78.777,159.208,-27.007,-12.7,-8.927,24.11,-0.11981,-0.62833,0.09055,-0.76324,103,0.723,-0.024,0.702,-0.122,-0.122,-0.122,-2.065,-45.939,-121.915,-22.687,-8.867,-2.513,22.91,0.43979,-0.34985,-0.17444,-0.80847,101,0.435,0.013,0.899,-0.427,0.244,-0.366,0.758,-25.648,161.235,-11.787,-10.313,-32.313,27.06,-0.15598,-0.22003,0.02917,-0.96246,99,0.984,-0.065,0.047,-0.366,0.122,-0.061,-57.36,-85.545,-114.313,-32.52,-10.88,0.693,27.01,-0.07507,0.69193,0.02631,0.71747,97
26,1.002,0.008,0.201,0.061,0.549,-0.061,3.664,-78.766,159.197,-27.007,-12.7,-8.927,24.11,-0.11938,-0.62827,0.09009,-0.76343,104,0.724,-0.026,0.699,-0.061,-0.244,0.0,-2.065,-45.939,-121.915,-22.687,-8.867,-2.513,22.91,0.4407,-0.34918,-0.1749,-0.8082,106,0.434,0.012,0.898,-0.732,0.427,-0.183,0.753,-25.642,161.208,-11.787,-10.313,-32.313,27.06,-0.15598,-0.22003,0.02917,-0.96246,108,0.989,-0.07,0.043,-0.549,0.061,0.0,-57.343,-85.545,-114.351,-32.52,-10.88,0.693,27.01,-0.07507,0.69193,0.02631,0.71747,110
27,1.003,0.012,0.202,-0.122,0.183,-0.061,3.664,-78.761,159.181,-27.007,-12.7,-8.927,24.11,-0.11938,-0.62827,0.09009,-0.76343,105,0.722,-0.022,0.699,-0.061,0.0,0.183,-2.065,-45.945,-121.91,-22.687,-8.867,-2.513,22.91,0.4407,-0.34918,-0.1749,-0.8082,107,0.43,0.013,0.899,-0.427,0.305,-0.061,0.736,-25.637,161.191,-11.787,-10.313,-32.313,27.06,-0.15598,-0.22003,0.02917,-0.96246,109,0.987,-0.068,0.045,0.0,0.122,0.0,-57.327,-85.54,-114.368,-32.52,-10.88,0.693,27.01,-0.07507,0.69193,0.02631,0.71747,111
28,1.001,0.017,0.2,-0.305,-0.305,-0.122,3.669,-78.766,159.148,-27.007,-12.7,-8.927,24.11,-0.11938,-0.62827,0.09009,-0.76343,114,0.721,-0.021,0.697,-0.122,0.061,0.122,-2.071,-45.945,-121.899,-22.687,-8.867,-2.513,22.91,0.4407,-0.34918,-0.1749,-0.8082,112,0.433,0.011,0.899,0.0,0.61,-0.244,0.736,-25.626,161.175,-11.787,-10.313,-32.313,27.06,-0.15598,-0.22003,0.02917,-0.96246,116,0.985,-0.062,0.043,0.244,0.183,-0.061,-57.288,-85.54,-114.412,-32.52,-10.88,0.693,27.01,-0.07526,0.69156,0.02698,0.7178,118
29,1.0,0.017,0.198,-0.305,-0.427,-0.122,3.68,-78.777,159.12,-27.007,-12.7,-8.927,24.11,-0.11938,-0.62827,0.09009,-0.76343,115,0.72,-0.022,0.696,-0.244,0.183,-0.122,-2.071,-45.939,-121.893,-22.687,-8.867,-2.513,22.91,0.4407,-0.34918,-0.1749,-0.8082,113,0.43,0.012,0.896,-0.366,0.854,-0.427,0.736,-25.615,161.164,-11.787,-10.313,-32.313,27.06,-0.15598,-0.22003,0.02917,-0.96246,117,0.983,-0.058,0.042,0.122,0.244,-0.122,-57.217,-85.54,-114.483,-32.52,-10.88,0.693,27.01,-0.07526,0.69156,0.02698,0.7178,119
30,1.001,0.013,0.197,0.061,-0.427,0.0,3.686,-78.783,159.099,-27.007,-12.7,-8.927,24.11,-0.11938,-0.62827,0.09009,-0.76343,122,0.717,-0.02,0.694,-0.122,0.122,-0.244,-2.071,-45.934,-121.899,-22.687,-8.867,-2.513,22.91,0.4407,-0.34918,-0.1749,-0.8082,120,0.429,0.016,0.899,0.061,0.488,-0.305,0.736,-25.598,161.158,-11.933,-10.327,-32.4,27.06,-0.15598,-0.22003,0.02917,-0.96246,126,0.981,-0.059,0.041,-0.427,0.122,0.0,-57.162,-85.534,-114.532,-32.52,-10.88,0.693,27.01,-0.07526,0.69156,0.02698,0.7178,124
31,1.0,0.011,0.196,0.0,-0.244,0.0,3.686,-78.788,159.082,-27.007,-12.7,-8.927,24.11,-0.11938,-0.62827,0.09009,-0.76343,123,0.719,-0.019,0.696,-0.183,0.061,-0.244,-2.065,-45.934,-121.899,-22.687,-8.867,-2.513,22.91,0.4407,-0.34918,-0.1749,-0.8082,121,0.43,0.017,0.897,0.244,0.427,-0.244,0.742,-25.593,161.158,-11.933,-10.327,-32.4,27.06,-0.15598,-0.22003,0.02917,-0.96246,127,0.981,-0.062,0.039,-0.488,0.366,0.061,-57.112,-85.534,-114.587,-32.52,-10.88,0.693,27.01,-0.07526,0.69156,0.02698,0.7178,125
32,1.0,0.012,0.194,0.0,0.183,0.0,3.686,-78.783,159.082,-27.007,-12.7,-8.927,24.11,-0.11938,-0.62827,0.09009,-0.76343,134,0.721,-0.022,0.698,-0.488,0.0,-0.122,-2.071,-45.934,-121.904,-22.687,-8.867,-2.513,22.91,0.4407,-0.34918,-0.1749,-0.8082,132,0.43,0.013,0.897,0.0,0.122,-0.244,0.747,-25.582,161.175,-11.933,-10.327,-32.4,27.06,-0.15802,-0.21945,0.02988,-0.96222,130,0.984,-0.066,0.04,-0.61,0.305,0.122,-57.057,-85.529,-114.653,-32.52,-10.88,0.693,27.01,-0.07526,0.69156,0.02698,0.7178,128
33,1.002,0.012,0.195,0.183,0.488,0.0,3.686,-78.777,159.099,-27.007,-12.7,-8.927,24.11,-0.11938,-0.62827,0.09009,-0.76343,135,0.723,-0.027,0.699,-0.61,-0.122,-0.122,-2.076,-45.934,-121.904,-22.687,-8.867,-2.513,22.91,0.4407,-0.34918,-0.1749,-0.8082,133,0.431,0.008,0.901,-0.427,-0.061,-0.488,0.747,-25.582,161.169,-11.933,-10.327,-32.4,27.06,-0.15802,-0.21945,0.02988,-0.96222,131,0.985,-0.067,0.042,-0.427,0.244,0.183,-57.03,-85.523,-114.675,-32.52,-10.88,0.693,27.01,-0.07526,0.69156,0.02698,0.7178,129
34,1.002,0.011,0.195,0.305,0.244,0.0,3.691,-78.772,159.12,-27.007,-12.7,-8.927,24.11,-0.11938,-0.62827,0.09009,-0.76343,142,0.723,-0.027,0.698,-0.366,-0.183,-0.122,-2.082,-45.939,-121.904,-22.687,-8.867,-2.513,22.91,0.4407,-0.34918,-0.1749,-0.8082,138,0.433,0.01,0.901,0.0,-0.183,-0.305,0.747,-25.582,161.158,-11.933,-10.327,-32.4,27.06,-0.15802,-0.21945,0.02988,-0.96222,140,0.987,-0.066,0.042,-0.366,0.0,0.244,-57.041,-85.518,-114.675,-32.52,-10.88,0.693,27.01,-0.07526,0.69156,0.02698,0.7178,136
35,1.003,0.012,0.196,0.183,0.0,0.0,3.691,-78.772,159.115,-27.007,-12.7,-8.927,24.11,-0.11938,-0.62827,0.09009,-0.76343,143,0.723,-0.025,0.697,0.122,-0.061,-0.183,-2.076,-45.939,-121.904,-22.687,-8.867,-2.513,22.91,0.4407,-0.34918,-0.1749,-0.8082,139,0.432,0.013,0.899,0.671,0.0,0.0,0.753,-25.587,161.136,-11.933,-10.327,-32.4,27.06,-0.15802,-0.21945,0.02988,-0.96222,141,0.986,-0.064,0.04,-0.427,0.0,0.122,-57.079,-85.518,-114.642,-32.52,-10.88,0.693,27.01,-0.07526,0.69156,0.02698,0.7178,137
36,1.0,0.012,0.196,0.0,-0.061,0.0,3.691,-78.777,159.099,-27.007,-12.7,-8.927,24.11,-0.11938,-0.62827,0.09009,-0.76343,146,0.722,-0.022,0.694,0.122,-0.061,-0.122,-2.071,-45.939,-121.904,-22.687,-8.867,-2.513,22.91,0.4407,-0.34918,-0.1749,-0.8082,144,0.432,0.013,0.898,0.671,0.061,0.061,0.769,-25.587,161.12,-11.933,-10.327,-32.4,27.06,-0.15802,-0.21945,0.02988,-0.96222,150,0.984,-0.064,0.039,-0.427,-0.183,0.122,-57.123,-85.518,-114.598,-32.52,-10.88,0.693,27.01,-0.07526,0.69156,0.02698,0.7178,148
37,1.0,0.012,0.198,0.0,0.0,0.0,3.691,-78.777,159.071,-27.007,-12.7,-8.927,24.11,-0.11938,-0.62827,0.09009,-0.76343,147,0.721,-0.022,0.698,0.183,-0.122,-0.122,-2.065,-45.945,-121.904,-22.687,-8.867,-2.513,22.91,0.4407,-0.34918,-0.1749,-0.8082,145,0.431,0.015,0.9,0.427,-0.122,0.0,0.78,-25.587,161.098,-11.933,-10.327,-32.4,27.06,-0.15802,-0.21945,0.02988,-0.96222,151,0.985,-0.065,0.042,-0.549,0.0,0.122,-57.173,-85.518,-114.549,-32.52,-10.88,0.693,27.01,-0.07526,0.69156,0.02698,0.7178,149
38,1.001,0.012,0.199,0.122,-0.061,0.0,3.691,-78.777,159.055,-27.007,-12.7,-8.927,24.11,-0.11938,-0.62827,0.09009,-0.76343,156,0.722,-0.022,0.697,0.122,-0.244,-0.061,-2.06,-45.945,-121.904,-22.687,-8.867,-2.513,22.91,0.4407,-0.34918,-0.1749,-0.8082,154,0.433,0.014,0.901,0.732,-0.549,0.0,0.791,-25.593,161.082,-11.933,-10.327,-32.4,27.06,-0.15802,-0.21945,0.02988,-0.96222,158,0.984,-0.066,0.042,-0.305,0.244,0.183,-57.184,-85.512,-114.554,-32.52,-10.88,0.693,27.01,-0.07526,0.69156,0.02698,0.7178,152
39,1.0,0.011,0.201,0.244,0.0,0.0,3.697,-78.777,159.049,-27.007,-12.7,-8.927,24.11,-0.11938,-0.62827,0.09009,-0.76343,157,0.722,-0.03,0.693,0.0,-0.366,0.0,-2.054,-45.956,-121.904,-22.687,-8.867,-2.513,22.91,0.4407,-0.34918,-0.1749,-0.8082,155,0.432,0.006,0.895,0.488,-0.305,0.244,0.802,-25.604,161.065,-11.933,-10.327,-32.4,27.06,-0.15802,-0.21945,0.02988,-0.96222,159,0.984,-0.068,0.042,-0.122,0.366,0.305,-57.156,-85.507,-114.582,-32.52,-10.88,0.693,27.01,-0.07526,0.69156,0.02698,0.7178,153
40,1.001,0.011,0.2,0.244,0.366,0.0,3.691,-78.772,159.066,-27.093,-12.76,-8.94,24.11,-0.11938,-0.62827,0.09009,-0.76343,162,0.722,-0.025,0.699,0.122,0.0,0.0,-2.054,-45.956,-121.899,-21.913,-8.753,-2.867,22.91,0.4407,-0.34918,-0.1749,-0.8082,160,0.432,0.009,0.896,0.0,-0.916,0.305,0.807,-25.609,161.054,-11.933,-10.327,-32.4,27.06,-0.15802,-0.21945,0.02988,-0.96222,168,0.986,-0.072,0.042,0.0,0.732,0.183,-57.085,-85.496,-114.648,-32.52,-10.88,0.693,27.01,-0.07526,0.69156,0.02698,0.7178,164
41,1.0,0.011,0.2,-0.061,0.0,0.0,3.686,-78.772,159.109,-27.093,-12.76,-8.94,24.11,-0.11938,-0.62827,0.09009,-0.76343,163,0.721,-0.024,0.698,0.0,0.0,0.0,-2.054,-45.956,-121.899,-21.913,-8.753,-2.867,22.91,0.4407,-0.34918,-0.1749,-0.8082,161,0.431,0.015,0.9,0.61,-0.122,0.061,0.807,-25.626,161.054,-11.933,-10.327,-32.4,27.06,-0.15802,-0.21945,0.02988,-0.96222,169,0.984,-0.065,0.048,-0.305,0.61,0.244,-56.981,-85.485,-114.752,-32.52,-10.88,0.693,27.01,-0.07526,0.69156,0.02698,0.7178,165
42,1.001,0.012,0.197,-0.061,-0.122,0.0,3.686,-78.772,159.17,-27.093,-12.76,-8.94,24.11,-0.11938,-0.62827,0.09009,-0.76343,174,0.722,-0.028,0.697,0.366,0.0,0.122,-2.049,-45.956,-121.893,-21.913,-8.753,-2.867,22.91,0.4407,-0.34918,-0.1749,-0.8082,172,0.43,0.01,0.897,0.61,-0.244,0.427,0.818,-25.631,161.054,-11.933,-10.327,-32.4,27.06,-0.15802,-0.21945,0.02988,-0.96222,170,0.984,-0.066,0.044,-0.183,0.366,0.244,-56.92,-85.474,-114.824,-31.72,-10.893,0.373,27.01,-0.07526,0.69156,0.02698,0.7178,166
43,1.002,0.009,0.197,0.0,-0.244,0.0,3.68,-78.777,159.219,-27.093,-12.76,-8.94,24.11,-0.11938,-0.62827,0.09009,-0.76343,175,0.717,-0.025,0.7,0.427,0.183,0.0,-2.043,-45.956,-121.888,-21.913,-8.753,-2.867,22.91,0.4407,-0.34918,-0.1749,-0.8082,173,0.426,0.011,0.901,0.183,-0.854,0.366,0.824,-25.637,161.049,-11.933,-10.327,-32.4,27.06,-0.15802,-0.21945,0.02988,-0.96222,171,0.983,-0.071,0.042,-0.122,0.488,0.183,-56.854,-85.463,-114.89,-31.72,-10.893,0.373,27.01,-0.07526,0.69156,0.02698,0.7178,167
44,1.0,0.009,0.195,-0.122,-0.061,0.0,3.675,-78.777,159.258,-27.093,-12.76,-8.94,24.11,-0.11914,-0.62833,0.08987,-0.76343,178,0.716,-0.023,0.701,0.244,0.0,0.0,-2.038,-45.956,-121.888,-21.913,-8.753,-2.867,22.91,0.44092,-0.34915,-0.17517,-0.80801,176,0.425,0.013,0.904,0.488,-0.183,0.305,0.824,-25.653,161.054,-11.933,-10.327,-32.4,27.06,-0.15802,-0.21945,0.02988,-0.96222,182,0.982,-0.071,0.042,0.061,0.488,0.0,-56.772,-85.457,-114.972,-31.72,-10.893,0.373,27.01,-0.07526,0.69156,0.02698,0.7178,180
45,1.0,0.011,0.195,-0.122,-0.427,0.0,3.669,-78.788,159.28,-27.093,-12.76,-8.94,24.11,-0.11914,-0.62833,0.08987,-0.76343,179,0.718,-0.025,0.697,0.122,-0.366,0.0,-2.032,-45.956,-121.882,-21.913,-8.753,-2.867,22.91,0.44092,-0.34915,-0.17517,-0.80801,177,0.429,0.011,0.9,0.061,-0.305,0.305,0.824,-25.653,161.076,-11.933,-10.327,-32.4,27.06,-0.15802,-0.21945,0.02988,-0.96222,183,0.98,-0.067,0.043,0.488,0.427,0.122,-56.695,-85.446,-115.021,-31.72,-10.893,0.373,27.01,-0.07526,0.69156,0.02698,0.7178,181
46,1.002,0.012,0.198,-0.183,0.0,0.0,3.664,-78.794,159.263,-27.093,-12.76,-8.94,24.11,-0.11914,-0.62833,0.08987,-0.76343,186,0.72,-0.026,0.697,0.0,-0.61,0.0,-2.032,-45.967,-121.882,-21.913,-8.753,-2.867,22.91,0.44092,-0.34915,-0.17517,-0.80801,184,0.431,0.01,0.897,-0.183,-0.305,0.183,0.824,-25.659,161.12,-12.407,-10.433,-32.807,27.06,-0.15802,-0.21945,0.02988,-0.96222,188,0.981,-0.064,0.042,0.244,0.244,0.244,-56.673,-85.441,-115.016,-31.72,-10.893,0.373,27.01,-0.07541,0.69101,0.02643,0.71832,190
47,1.002,0.012,0.198,-0.183,0.244,0.0,3.653,-78.794,159.23,-27.093,-12.76,-8.94,24.11,-0.11914,-0.62833,0.08987,-0.76343,187,0.722,-0.025,0.695,-0.061,-0.549,0.0,-2.038,-45.978,-121.877,-21.913,-8.753,-2.867,22.91,0.44092,-0.34915,-0.17517,-0.80801,185,0.433,0.011,0.896,-0.488,-0.183,0.0,0.813,-25.664,161.158,-12.407,-10.433,-32.807,27.06,-0.15802,-0.21945,0.02988,-0.96222,189,0.984,-0.063,0.046,-0.305,0.122,0.305,-56.689,-85.435,-114.983,-31.72,-10.893,0.373,27.01,-0.07541,0.69101,0.02643,0.71832,191
48,1.001,0.011,0.197,-0.122,0.305,0.0,3.647,-78.788,159.208,-27.093,-12.76,-8.94,24.11,-0.11914,-0.62833,0.08987,-0.76343,194,0.723,-0.024,0.695,-0.061,-0.305,0.0,-2.038,-45.983,-121.871,-21.913,-8.753,-2.867,22.91,0.44092,-0.34915,-0.17517,-0.80801,192,0.436,0.012,0.894,-0.549,0.061,-0.061,0.802,-25.664,161.164,-12.407,-10.433,-32.807,27.06,-0.15796,-0.22021,0.02954,-0.96207,198,0.984,-0.066,0.045,-0.366,0.0,0.122,-56.711,-85.43,-114.983,-31.72,-10.893,0.373,27.01,-0.07541,0.69101,0.02643,0.71832,196
49,1.001,0.012,0.199,-0.305,0.0,0.0,3.636,-78.783,159.197,-27.093,-12.76,-8.94,24.11,-0.11914,-0.62833,0.08987,-0.76343,195,0.725,-0.022,0.692,0.061,0.0,0.0,-2.038,-45.983,-121.871,-21.913,-8.753,-2.867,22.91,0.44092,-0.34915,-0.17517,-0.80801,193,0.437,0.014,0.892,0.0,0.549,0.183,0.797,-25.659,161.169,-12.407,-10.433,-32.807,27.06,-0.15796,-0.22021,0.02954,-0.96207,199,0.985,-0.067,0.043,-0.366,0.061,0.0,-56.711,-85.43,-114.994,-31.72,-10.893,0.373,27.01,-0.07541,0.69101,0.02643,0.71832,197
50,1.001,0.013,0.199,-0.244,0.0,0.0,3.631,-78.783,159.197,-27.093,-12.76,-8.94,24.11,-0.11914,-0.62833,0.08987,-0.76343,206,0.722,-0.025,0.693,0.183,0.244,0.0,-2.038,-45.983,-121.866,-21.913,-8.753,-2.867,22.91,0.44092,-0.34915,-0.17517,-0.80801,204,0.433,0.01,0.894,0.183,0.488,0.305,0.791,-25.648,161.164,-12.407,-10.433,-32.807,27.06,-0.15796,-0.22021,0.02954,-0.96207,202,0.985,-0.068,0.043,-0.488,0.061,0.061,-56.717,-85.424,-114.988,-31.72,-10.893,0.373,27.01,-0.07541,0.69101,0.02643,0.71832,200
51,1.001,0.012,0.198,-0.122,-0.122,0.0,3.62,-78.788,159.208,-27.093,-12.76,-8.94,24.11,-0.11914,-0.62833,0.08987,-0.76343,207,0.721,-0.024,0.698,0.122,0.305,0.0,-2.032,-45.978,-121.866,-21.913,-8.753,-2.867,22.91,0.44092,-0.34915,-0.17517,-0.80801,205,0.431,0.012,0.899,-0.122,0.305,0.122,0.791,-25.642,161.136,-12.407,-10.433,-32.807,27.06,-0.15796,-0.22021,0.02954,-0.96207,203,0.983,-0.067,0.045,0.122,0.183,0.183,-56.711,-85.419,-114.988,-31.72,-10.893,0.373,27.01,-0.07541,0.69101,0.02643,0.71832,201
52,1.003,0.012,0.198,-0.061,0.0,0.0,3.62,-78.788,159.208,-27.093,-12.76,-8.94,24.11,-0.11914,-0.62833,0.08987,-0.76343,214,0.723,-0.025,0.699,0.0,0.122,0.0,-2.032,-45.972,-121.866,-21.913,-8.753,-2.867,22.91,0.44092,-0.34915,-0.17517,-0.80801,208,0.435,0.011,0.902,-0.488,0.183,-0.061,0.786,-25.637,161.131,-12.407,-10.433,-32.807,27.06,-0.15796,-0.22021,0.02954,-0.96207,212,0.983,-0.067,0.045,0.305,0.244,0.183,-56.678,-85.413,-115.01,-31.72,-10.893,0.373,27.01,-0.07541,0.69101,0.02643,0.71832,210
53,1.003,0.011,0.197,0.0,0.0,0.0,3.615,-78.788,159.186,-27.093,-12.76,-8.94,24.11,-0.11914,-0.62833,0.08987,-0.76343,215,0.725,-0.025,0.698,0.0,0.0,0.0,-2.032,-45.972,-121.86,-21.913,-8.753,-2.867,22.91,0.44092,-0.34915,-0.17517,-0.80801,209,0.434,0.012,0.899,-0.305,0.366,0.122,0.78,-25.631,161.136,-12.407,-10.433,-32.807,27.06,-0.15796,-0.22021,0.02954,-0.96207,213,0.986,-0.067,0.043,0.427,0.183,0.0,-56.635,-85.408,-115.027,-31.72,-10.893,0.373,27.01,-0.07541,0.69101,0.02643,0.71832,211
54,1.001,0.012,0.195,0.061,-0.244,0.0,3.615,-78.788,159.153,-27.093,-12.76,-8.94,24.11,-0.11914,-0.62833,0.08987,-0.76343,220,0.722,-0.024,0.697,0.061,0.061,0.0,-2.032,-45.972,-121.86,-21.913,-8.753,-2.867,22.91,0.44092,-0.34915,-0.17517,-0.80801,216,0.431,0.009,0.897,-0.122,0.671,0.122,0.769,-25.626,161.142,-12.407,-10.433,-32.807,27.06,-0.15796,-0.22021,0.02954,-0.96207,222,0.986,-0.067,0.042,0.122,0.305,-0.061,-56.569,-85.408,-115.082,-31.72,-10.893,0.373,27.01,-0.07541,0.69101,0.02643,0.71832,218
55,1.0,0.013,0.195,-0.061,-0.427,0.0,3.615,-78.794,159.131,-27.093,-12.76,-8.94,24.11,-0.11914,-0.62833,0.08987,-0.76343,221,0.72,-0.022,0.696,0.061,0.0,0.0,-2.027,-45.972,-121.855,-21.913,-8.753,-2.867,22.91,0.44092,-0.34915,-0.17517,-0.80801,217,0.432,0.012,0.898,0.183,0.793,0.0,0.769,-25.615,161.147,-12.407,-10.433,-32.807,27.06,-0.15796,-0.22021,0.02954,-0.96207,223,0.984,-0.066,0.044,-0.061,0.244,0.0,-56.519,-85.402,-115.131,-31.72,-10.893,0.373,27.01,-0.07541,0.69101,0.02643,0.71832,219
56,1.0,0.015,0.192,-0.122,-0.244,0.0,3.615,-78.805,159.109,-27.093,-12.76,-8.94,24.11,-0.11914,-0.62833,0.08987,-0.76343,228,0.719,-0.023,0.696,0.0,0.061,0.0,-2.027,-45.972,-121.855,-21.913,-8.753,-2.867,22.91,0.44092,-0.34915,-0.17517,-0.80801,226,0.43,0.011,0.896,0.0,0.671,-0.122,0.769,-25.598,161.147,-12.407,-10.433,-32.807,27.06,-0.15796,-0.22021,0.02954,-0.96207,224,0.981,-0.064,0.044,-0.427,0.305,0.183,-56.486,-85.397,-115.164,-31.72,-10.893,0.373,27.01,-0.07541,0.69101,0.02643,0.71832,230
57,1.002,0.013,0.194,0.061,0.061,0.0,3.615,-78.81,159.082,-27.093,-12.76,-8.94,24.11,-0.11914,-0.62833,0.08987,-0.76343,229,0.72,-0.024,0.697,0.0,0.0,0.0,-2.027,-45.972,-121.855,-21.913,-8.753,-2.867,22.91,0.44092,-0.34915,-0.17517,-0.80801,227,0.429,0.012,0.898,-0.183,0.061,-0.244,0.769,-25.593,161.125,-12.407,-10.433,-32.807,27.06,-0.15796,-0.22021,0.02954,-0.96207,225,0.98,-0.064,0.042,-0.305,0.244,0.122,-56.459,-85.391,-115.225,-31.72,-10.893,0.373,27.01,-0.07541,0.69101,0.02643,0.71832,231
58,1.003,0.011,0.194,0.427,0.488,0.0,3.62,-78.805,159.066,-26.807,-12.56,-9.427,24.11,-0.11914,-0.62833,0.08987,-0.76343,234,0.723,-0.022,0.697,-0.122,-0.122,0.0,-2.027,-45.972,-121.849,-22.373,-8.507,-3.087,22.91,0.44092,-0.34915,-0.17517,-0.80801,232,0.433,0.013,0.901,-0.366,-0.183,-0.427,0.769,-25.593,161.104,-12.407,-10.433,-32.807,27.06,-0.15796,-0.22021,0.02954,-0.96207,238,0.983,-0.064,0.043,-0.183,0.061,0.061,-56.448,-85.391,-115.28,-31.813,-10.96,-0.233,27.01,-0.07541,0.69101,0.02643,0.71832,236
59,1.003,0.012,0.196,0.549,0.488,0.0,3.625,-78.799,159.066,-26.807,-12.56,-9.427,24.11,-0.11914,-0.62833,0.08987,-0.76343,235,0.724,-0.024,0.698,-0.305,-0.244,0.0,-2.032,-45.978,-121.849,-22.373,-8.507,-3.087,22.91,0.44092,-0.34915,-0.17517,-0.80801,233,0.433,0.011,0.9,-0.427,-0.122,-0.427,0.764,-25.593,161.071,-12.407,-10.433,-32.807,27.06,-0.15796,-0.22021,0.02954,-0.96207,239,0.986,-0.066,0.043,-0.183,-0.061,0.0,-56.464,-85.391,-115.307,-31.813,-10.96,-0.233,27.01,-0.07541,0.69101,0.02643,0.71832,237
60,1.001,0.013,0.198,0.305,0.366,0.0,3.631,-78.788,159.077,-26.807,-12.56,-9.427,24.11,-0.11914,-0.62833,0.08987,-0.76343,244,0.723,-0.025,0.697,-0.305,-0.244,0.0,-2.038,-45.978,-121.844,-22.373,-8.507,-3.087,22.91,0.44092,-0.34915,-0.17517,-0.80801,242,0.432,0.009,0.9,-0.427,-0.183,-0.427,0.758,-25.598,161.032,-11.487,-10.3,-32.153,27.06,-0.15796,-0.22021,0.02954,-0.96207,240,0.986,-0.068,0.042,0.0,-0.061,-0.061,-56.47,-85.391,-115.302,-31.813,-10.96,-0.233,27.01,-0.07541,0.69101,0.02643,0.71832,246
61,1.001,0.013,0.198,0.0,0.122,0.0,3.631,-78.788,159.071,-26.807,-12.56,-9.427,24.11,-0.11914,-0.62833,0.08987,-0.76343,245,0.722,-0.025,0.698,-0.183,-0.244,0.0,-2.043,-45.983,-121.844,-22.373,-8.507,-3.087,22.91,0.44092,-0.34915,-0.17517,-0.80801,243,0.432,0.012,0.899,0.0,-0.183,-0.244,0.758,-25.604,161.01,-11.487,-10.3,-32.153,27.06,-0.15796,-0.22021,0.02954,-0.96207,241,0.986,-0.067,0.043,-0.244,-0.122,-0.061,-56.492,-85.397,-115.291,-31.813,-10.96,-0.233,27.01,-0.07541,0.69101,0.02643,0.71832,247
62,1.001,0.012,0.199,-0.183,-0.122,0.0,3.631,-78.788,159.055,-26.807,-12.56,-9.427,24.11,-0.12045,-0.6282,0.09106,-0.76318,250,0.722,-0.026,0.697,0.0,-0.244,0.0,-2.043,-45.989,-121.838,-22.373,-8.507,-3.087,22.91,0.44119,-0.3493,-0.17545,-0.80774,248,0.432,0.011,0.899,0.427,-0.488,0.0,0.758,-25.609,160.999,-11.487,-10.3,-32.153,27.06,-0.15796,-0.22021,0.02954,-0.96207,254,0.986,-0.067,0.043,-0.488,-0.122,0.0,-56.536,-85.397,-115.269,-31.813,-10.96,-0.233,27.01,-0.07523,0.69077,0.02576,0.71863,252
63,1.0,0.011,0.199,-0.061,-0.183,0.0,3.631,-78.788,159.044,-26.807,-12.56,-9.427,24.11,-0.12045,-0.6282,0.09106,-0.76318,251,0.719,-0.025,0.696,-0.061,-0.183,0.0,-2.043,-45.994,-121.838,-22.373,-8.507,-3.087,22.91,0.44119,-0.3493,-0.17545,-0.80774,249,0.427,0.009,0.896,-0.061,-0.732,-0.122,0.769,-25.62,160.994,-11.487,-10.3,-32.153,27.06,-0.15796,-0.22021,0.02954,-0.96207,255,0.984,-0.066,0.045,-0.61,-0.183,0.061,-56.596,-85.397,-115.236,-31.813,-10.96,-0.233,27.01,-0.07523,0.69077,0.02576,0.71863,253
64,1.0,0.01,0.2,0.0,-0.183,0.0,3.631,-78.794,159.022,-26.807,-12.56,-9.427,24.11,-0.12045,-0.6282,0.09106,-0.76318,258,0.718,-0.021,0.701,-0.122,-0.183,-0.366,-2.043,-46.0,-121.844,-22.373,-8.507,-3.087,22.91,0.44119,-0.3493,-0.17545,-0.80774,256,0.428,0.014,0.9,-0.549,-1.404,-0.427,0.764,-25.637,160.972,-11.487,-10.3,-32.153,27.06,-0.15945,-0.2197,0.03012,-0.96191,262,0.982,-0.065,0.047,-0.61,0.0,0.0,-56.607,-85.397,-115.225,-31.813,-10.96,-0.233,27.01,-0.07523,0.69077,0.02576,0.71863,260
65,0.999,0.011,0.198,0.427,0.0,0.0,3.631,-78.794,159.0,-26.807,-12.56,-9.427,24.11,-0.12045,-0.6282,0.09106,-0.76318,259,0.72,-0.024,0.696,-0.427,-0.183,-0.305,-2.043,-46.0,-121.849,-22.373,-8.507,-3.087,22.91,0.44119,-0.3493,-0.17545,-0.80774,257,0.433,0.012,0.896,-0.183,-1.282,-0.366,0.758,-25.664,160.961,-11.487,-10.3,-32.153,27.06,-0.15945,-0.2197,0.03012,-0.96191,263,0.981,-0.065,0.049,-0.488,0.0,0.061,-56.613,-85.397,-115.219,-31.813,-10.96,-0.233,27.01,-0.07523,0.69077,0.02576,0.71863,261
66,1.001,0.01,0.199,0.61,0.244,0.0,3.636,-78.794,158.983,-26.807,-12.56,-9.427,24.11,-0.12045,-0.6282,0.09106,-0.76318,266,0.719,-0.027,0.692,-0.305,0.0,-0.183,-2.043,-46.0,-121.855,-22.373,-8.507,-3.087,22.91,0.44119,-0.3493,-0.17545,-0.80774,264,0.431,0.009,0.891,-0.732,-0.854,0.0,0.753,-25.686,160.939,-11.487,-10.3,-32.153,27.06,-0.15945,-0.2197,0.03012,-0.96191,270,0.981,-0.068,0.045,0.0,0.061,0.0,-56.591,-85.391,-115.241,-31.813,-10.96,-0.233,27.01,-0.07523,0.69077,0.02576,0.71863,268
67,1.0,0.011,0.199,0.366,0.122,0.0,3.642,-78.788,158.961,-26.807,-12.56,-9.427,24.11,-0.12045,-0.6282,0.09106,-0.76318,267,0.72,-0.024,0.702,0.061,0.366,-0.122,-2.038,-45.994,-121.855,-22.373,-8.507,-3.087,22.91,0.44119,-0.3493,-0.17545,-0.80774,265,0.43,0.013,0.898,-0.061,-1.343,0.0,0.742,-25.708,160.939,-11.487,-10.3,-32.153,27.06,-0.15945,-0.2197,0.03012,-0.96191,271,0.984,-0.073,0.045,0.183,0.0,-0.122,-56.563,-85.397,-115.247,-31.813,-10.96,-0.233,27.01,-0.07523,0.69077,0.02576,0.71863,269
68,1.002,0.011,0.197,0.183,0.122,0.0,3.642,-78.788,158.939,-26.807,-12.56,-9.427,24.11,-0.12045,-0.6282,0.09106,-0.76318,276,0.718,-0.026,0.7,0.244,0.183,0.061,-2.038,-45.989,-121.855,-22.373,-8.507,-3.087,22.91,0.44119,-0.3493,-0.17545,-0.80774,274,0.429,0.012,0.903,0.549,-1.221,0.183,0.747,-25.73,160.928,-11.487,-10.3,-32.153,27.06,-0.15945,-0.2197,0.03012,-0.96191,278,0.982,-0.068,0.051,0.061,-0.061,-0.061,-56.558,-85.397,-115.236,-31.813,-10.96,-0.233,27.01,-0.07523,0.69077,0.02576,0.71863,272
69,1.003,0.009,0.196,0.0,0.244,0.0,3.642,-78.783,158.917,-26.807,-12.56,-9.427,24.11,-0.12045,-0.6282,0.09106,-0.76318,277,0.721,-0.028,0.703,0.549,0.0,0.183,-2.032,-45.989,-121.849,-22.373,-8.507,-3.087,22.91,0.44119,-0.3493,-0.17545,-0.80774,275,0.432,0.011,0.903,0.183,-2.136,0.427,0.753,-25.757,160.939,-11.487,-10.3,-32.153,27.06,-0.15945,-0.2197,0.03012,-0.96191,279,0.982,-0.069,0.041,0.0,-0.366,0.0,-56.629,-85.397,-115.148,-31.813,-10.96,-0.233,27.01,-0.07523,0.69077,0.02576,0.71863,273
70,1.003,0.01,0.195,-0.061,0.427,0.0,3.636,-78.777,158.901,-26.807,-12.56,-9.427,24.11,-0.12045,-0.6282,0.09106,-0.76318,286,0.721,-0.022,0.703,0.61,-0.244,0.366,-2.027,-45.989,-121.838,-22.373,-8.507,-3.087,22.91,0.44119,-0.3493,-0.17545,-0.80774,284,0.434,0.016,0.903,0.244,-2.319,0.488,0.753,-25.801,160.955,-11.487,-10.3,-32.153,27.06,-0.15945,-0.2197,0.03012,-0.96191,282,0.985,-0.073,0.043,-0.183,-0.244,-0.183,-56.656,-85.402,-115.115,-31.813,-10.96,-0.233,27.01,-0.07523,0.69077,0.02576,0.71863,280
71,1.002,0.013,0.194,0.061,0.183,0.0,3.625,-78.772,158.884,-26.807,-12.56,-9.427,24.11,-0.12045,-0.6282,0.09106,-0.76318,287,0.723,-0.021,0.699,0.61,-0.549,0.488,-2.021,-45.994,-121.822,-22.373,-8.507,-3.087,22.91,0.44119,-0.3493,-0.17545,-0.80774,285,0.437,0.016,0.901,0.366,-2.136,0.732,0.753,-25.845,160.961,-11.487,-10.3,-32.153,27.06,-0.15945,-0.2197,0.03012,-0.96191,283,0.985,-0.07,0.042,-0.244,-0.488,-0.183,-56.744,-85.408,-115.027,-31.813,-10.96,-0.233,27.01,-0.07523,0.69077,0.02576,0.71863,281
72,1.002,0.015,0.195,0.183,0.061,0.0,3.62,-78.772,158.862,-26.807,-12.56,-9.427,24.11,-0.12045,-0.6282,0.09106,-0.76318,290,0.725,-0.022,0.695,0.61,-0.916,0.549,-2.021,-46.011,-121.805,-22.373,-8.507,-3.087,22.91,0.44119,-0.3493,-0.17545,-0.80774,288,0.438,0.012,0.898,0.122,-2.014,0.916,0.753,-25.884,160.983,-11.487,-10.3,-32.153,27.06,-0.15945,-0.2197,0.03012,-0.96191,292,0.985,-0.065,0.041,0.122,-0.488,0.0,-56.849,-85.408,-114.917,-31.813,-10.96,-0.233,27.01,-0.07523,0.69077,0.02576,0.71863,294
73,1.001,0.015,0.197,0.183,0.244,0.0,3.62,-78.772,158.846,-26.807,-12.56,-9.427,24.11,-0.12045,-0.6282,0.09106,-0.76318,291,0.723,-0.025,0.695,0.366,-0.977,0.549,-2.027,-46.027,-121.783,-22.373,-8.507,-3.087,22.91,0.44119,-0.3493,-0.17545,-0.80774,289,0.437,0.008,0.895,-0.366,-1.709,0.854,0.747,-25.917,161.027,-11.487,-10.3,-32.153,27.06,-0.15945,-0.2197,0.03012,-0.96191,293,0.985,-0.063,0.041,0.183,-0.671,0.0,-56.992,-85.413,-114.763,-31.813,-10.96,-0.233,27.01,-0.07523,0.69077,0.02576,0.71863,295
74,1.0,0.013,0.198,0.244,0.549,0.0,3.625,-78.766,158.824,-26.807,-12.56,-9.427,24.11,-0.12045,-0.6282,0.09106,-0.76318,298,0.722,-0.025,0.696,0.183,-0.793,0.488,-2.032,-46.044,-121.767,-22.373,-8.507,-3.087,22.91,0.44119,-0.3493,-0.17545,-0.80774,296,0.437,0.008,0.894,-0.732,-1.526,0.61,0.731,-25.95,161.065,-11.487,-10.3,-32.153,27.06,-0.15945,-0.2197,0.03012,-0.96191,300,0.984,-0.063,0.042,0.305,-0.671,0.0,-57.129,-85.424,-114.615,-31.813,-10.96,-0.233,27.01,-0.07523,0.69077,0.02576,0.71863,302
75,1.0,0.011,0.197,0.305,0.366,0.0,3.625,-78.755,158.807,-26.807,-12.56,-9.427,24.11,-0.12045,-0.6282,0.09106,-0.76318,299,0.724,-0.025,0.694,0.183,-0.732,0.427,-2.038,-46.055,-121.75,-22.373,-8.507,-3.087,22.91,0.44119,-0.3493,-0.17545,-0.80774,297,0.441,0.008,0.892,-0.366,-1.465,0.549,0.709,-25.977,161.104,-11.487,-10.3,-32.153,27.06,-0.15945,-0.2197,0.03012,-0.96191,301,0.983,-0.066,0.044,0.549,-0.671,0.0,-57.261,-85.43,-114.467,-31.813,-10.96,-0.233,27.01,-0.07523,0.69077,0.02576,0.71863,303
76,1.0,0.01,0.202,0.305,0.244,0.0,3.631,-78.75,158.791,-26.673,-12.773,-9.8,24.11,-0.12045,-0.6282,0.09106,-0.76318,310,0.723,-0.025,0.693,0.183,-0.61,0.366,-2.038,-46.066,-121.74,-22.44,-8.567,-2.307,22.91,0.44119,-0.3493,-0.17545,-0.80774,308,0.44,0.008,0.891,-0.183,-1.16,0.427,0.698,-26.005,161.12,-12.24,-10.107,-31.847,27.06,-0.15945,-0.2197,0.03012,-0.96191,306,0.984,-0.068,0.042,0.61,-0.732,-0.366,-57.349,-85.441,-114.351,-31.873,-10.7,0.353,27.01,-0.07523,0.69077,0.02576,0.71863,304
77,0.999,0.011,0.202,0.305,0.183,0.0,3.631,-78.745,158.774,-26.673,-12.773,-9.8,24.11,-0.12045,-0.6282,0.09106,-0.76318,311,0.723,-0.023,0.695,0.122,-0.427,0.183,-2.043,-46.077,-121.729,-22.44,-8.567,-2.307,22.91,0.44119,-0.3493,-0.17545,-0.80774,309,0.438,0.012,0.891,-0.305,-1.282,0.183,0.692,-26.027,161.131,-12.24,-10.107,-31.847,27.06,-0.15945,-0.2197,0.03012,-0.96191,307,0.984,-0.069,0.046,0.549,-0.732,-0.366,-57.442,-85.457,-114.236,-31.873,-10.7,0.353,27.01,-0.07523,0.69077,0.02576,0.71863,305
78,1.0,0.012,0.201,0.427,0.122,0.0,3.636,-78.745,158.758,-26.673,-12.773,-9.8,24.11,-0.12256,-0.62769,0.09268,-0.76309,314,0.724,-0.023,0.695,0.183,-0.305,0.244,-2.043,-46.082,-121.718,-22.44,-8.567,-2.307,22.91,0.44186,-0.34979,-0.17618,-0.80701,312,0.442,0.013,0.892,0.0,-0.732,0.366,0.681,-26.049,161.158,-12.24,-10.107,-31.847,27.06,-0.15799,-0.22333,0.0311,-0.9613,318,0.985,-0.067,0.047,0.549,-0.549,-0.183,-57.513,-85.463,-114.137,-31.873,-10.7,0.353,27.01,-0.07523,0.69077,0.02576,0.71863,316
79,1.002,0.012,0.201,0.366,0.061,0.0,3.642,-78.745,158.741,-26.673,-12.773,-9.8,24.11,-0.12256,-0.62769,0.09268,-0.76309,315,0.727,-0.023,0.694,0.122,-0.244,0.366,-2.049,-46.088,-121.707,-22.44,-8.567,-2.307,22.91,0.44186,-0.34979,-0.17618,-0.80701,313,0.444,0.01,0.892,-0.122,-0.305,0.427,0.681,-26.06,161.208,-12.24,-10.107,-31.847,27.06,-0.15799,-0.22333,0.0311,-0.9613,319,0.986,-0.067,0.042,0.305,-0.183,-0.122,-57.541,-85.468,-114.082,-31.873,-10.7,0.353,27.01,-0.07523,0.69077,0.02576,0.71863,317
80,1.0,0.012,0.2,0.244,0.0,0.0,3.647,-78.739,158.719,-26.673,-12.773,-9.8,24.11,-0.12256,-0.62769,0.09268,-0.76309,326,0.724,-0.024,0.692,0.0,-0.061,0.366,-2.054,-46.088,-121.696,-22.44,-8.567,-2.307,22.91,0.44186,-0.34979,-0.17618,-0.80701,324,0.439,0.008,0.891,-0.183,-0.366,0.183,0.676,-26.071,161.241,-12.24,-10.107,-31.847,27.06,-0.15799,-0.22333,0.0311,-0.9613,322,0.985,-0.066,0.042,0.183,-0.061,0.0,-57.546,-85.468,-114.055,-31.873,-10.7,0.353,27.01,-0.07623,0.69141,0.02701,0.71786,320
81,1.0,0.013,0.199,0.183,-0.061,0.0,3.647,-78.739,158.703,-26.673,-12.773,-9.8,24.11,-0.12256,-0.62769,0.09268,-0.76309,327,0.722,-0.025,0.694,0.0,0.122,0.305,-2.06,-46.088,-121.685,-22.44,-8.567,-2.307,22.91,0.44186,-0.34979,-0.17618,-0.80701,325,0.439,0.01,0.893,0.0,0.0,0.183,0.67,-26.076,161.274,-12.24,-10.107,-31.847,27.06,-0.15799,-0.22333,0.0311,-0.9613,323,0.983,-0.066,0.042,0.0,-0.061,0.0,-57.552,-85.468,-114.033,-31.873,-10.7,0.353,27.01,-0.07623,0.69141,0.02701,0.71786,321
82,1.001,0.013,0.195,0.122,0.0,0.0,3.647,-78.745,158.687,-26.673,-12.773,-9.8,24.11,-0.12256,-0.62769,0.09268,-0.76309,330,0.723,-0.024,0.695,0.0,0.244,0.244,-2.065,-46.082,-121.674,-22.44,-8.567,-2.307,22.91,0.44186,-0.34979,-0.17618,-0.80701,328,0.439,0.008,0.894,-0.183,0.0,0.0,0.665,-26.076,161.301,-12.24,-10.107,-31.847,27.06,-0.15799,-0.22333,0.0311,-0.9613,334,0.983,-0.066,0.042,-0.122,-0.061,0.061,-57.563,-85.468,-114.011,-31.873,-10.7,0.353,27.01,-0.07623,0.69141,0.02701,0.71786,332
83,1.002,0.014,0.195,0.061,0.061,0.0,3.647,-78.739,158.665,-26.673,-12.773,-9.8,24.11,-0.12256,-0.62769,0.09268,-0.76309,331,0.724,-0.025,0.694,0.0,0.122,0.183,-2.065,-46.082,-121.668,-22.44,-8.567,-2.307,22.91,0.44186,-0.34979,-0.17618,-0.80701,329,0.44,0.008,0.895,-0.183,-0.244,-0.122,0.665,-26.076,161.318,-12.24,-10.107,-31.847,27.06,-0.15799,-0.22333,0.0311,-0.9613,335,0.984,-0.065,0.039,0.061,-0.061,0.0,-57.579,-85.463,-113.983,-31.873,-10.7,0.353,27.01,-0.07623,0.69141,0.02701,0.71786,333
84,1.002,0.012,0.196,0.122,0.183,0.0,3.647,-78.739,158.648,-26.673,-12.773,-9.8,24.11,-0.12256,-0.62769,0.09268,-0.76309,336,0.727,-0.026,0.694,0.0,0.122,0.122,-2.071,-46.082,-121.663,-22.44,-8.567,-2.307,22.91,0.44186,-0.34979,-0.17618,-0.80701,338,0.443,0.007,0.894,0.0,-0.122,0.0,0.659,-26.082,161.323,-12.24,-10.107,-31.847,27.06,-0.15799,-0.22333,0.0311,-0.9613,342,0.986,-0.066,0.038,0.0,-0.183,-0.122,-57.59,-85.468,-113.961,-31.873,-10.7,0.353,27.01,-0.07623,0.69141,0.02701,0.71786,340
85,1.002,0.011,0.196,0.183,0.122,0.0,3.653,-78.739,158.632,-26.673,-12.773,-9.8,24.11,-0.12256,-0.62769,0.09268,-0.76309,337,0.726,-0.028,0.692,0.0,0.183,0.122,-2.071,-46.077,-121.657,-22.44,-8.567,-2.307,22.91,0.44186,-0.34979,-0.17618,-0.80701,339,0.442,0.005,0.892,-0.061,0.0,0.0,0.659,-26.087,161.334,-12.24,-10.107,-31.847,27.06,-0.15799,-0.22333,0.0311,-0.9613,343,0.984,-0.068,0.039,0.0,-0.244,-0.305,-57.612,-85.468,-113.934,-31.873,-10.7,0.353,27.01,-0.07623,0.69141,0.02701,0.71786,341
86,1.0,0.011,0.195,0.122,0.0,0.0,3.653,-78.739,158.615,-26.673,-12.773,-9.8,24.11,-0.12256,-0.62769,0.09268,-0.76309,346,0.723,-0.028,0.693,0.0,0.183,0.061,-2.071,-46.077,-121.657,-22.44,-8.567,-2.307,22.91,0.44186,-0.34979,-0.17618,-0.80701,344,0.438,0.007,0.893,0.0,0.122,0.061,0.659,-26.087,161.356,-12.24,-10.107,-31.847,27.06,-0.15799,-0.22333,0.0311,-0.9613,348,0.983,-0.066,0.038,0.244,-0.061,-0.305,-57.623,-85.479,-113.923,-31.873,-10.7,0.353,27.01,-0.07623,0.69141,0.02701,0.71786,350
87,1.001,0.01,0.198,0.0,0.183,0.0,3.653,-78.739,158.599,-26.673,-12.773,-9.8,24.11,-0.12256,-0.62769,0.09268,-0.76309,347,0.722,-0.024,0.697,0.0,0.061,0.0,-2.076,-46.077,-121.652,-22.44,-8.567,-2.307,22.91,0.44186,-0.34979,-0.17618,-0.80701,345,0.438,0.008,0.896,-0.122,0.061,-0.061,0.654,-26.087,161.373,-12.24,-10.107,-31.847,27.06,-0.15799,-0.22333,0.0311,-0.9613,349,0.983,-0.065,0.04,-0.122,-0.122,-0.122,-57.612,-85.485,-113.934,-31.873,-10.7,0.353,27.01,-0.07623,0.69141,0.02701,0.71786,351
88,1.001,0.009,0.197,0.0,0.183,0.0,3.647,-78.734,158.582,-26.673,-12.773,-9.8,24.11,-0.12256,-0.62769,0.09268,-0.76309,356,0.724,-0.023,0.697,-0.122,0.0,-0.061,-2.076,-46.077,-121.652,-22.44,-8.567,-2.307,22.91,0.44186,-0.34979,-0.17618,-0.80701,354,0.44,0.012,0.896,-0.366,0.0,-0.366,0.654,-26.087,161.362,-12.24,-10.107,-31.847,27.06,-0.15799,-0.22333,0.0311,-0.9613,352,0.986,-0.068,0.042,-0.427,-0.244,-0.061,-57.645,-85.485,-113.912,-31.873,-10.7,0.353,27.01,-0.07623,0.69141,0.02701,0.71786,358
89,1.001,0.01,0.198,0.061,0.0,0.0,3.642,-78.734,158.571,-26.673,-12.773,-9.8,24.11,-0.12256,-0.62769,0.09268,-0.76309,357,0.725,-0.024,0.695,-0.305,0.0,0.0,-2.082,-46.077,-121.652,-22.44,-8.567,-2.307,22.91,0.44186,-0.34979,-0.17618,-0.80701,355,0.442,0.011,0.894,-0.183,-0.183,-0.061,0.648,-26.087,161.345,-12.24,-10.107,-31.847,27.06,-0.15799,-0.22333,0.0311,-0.9613,353,0.985,-0.068,0.04,-0.366,-0.244,0.0,-57.711,-85.49,-113.857,-31.873,-10.7,0.353,27.01,-0.07623,0.69141,0.02701,0.71786,359
90,1.002,0.012,0.2,0.061,-0.183,0.0,3.636,-78.739,158.549,-26.673,-12.773,-9.8,24.11,-0.12256,-0.62769,0.09268,-0.76309,368,0.725,-0.025,0.693,-0.244,0.0,0.122,-2.087,-46.077,-121.646,-22.44,-8.567,-2.307,22.91,0.44186,-0.34979,-0.17618,-0.80701,364,0.441,0.009,0.894,-0.427,-0.183,0.061,0.643,-26.093,161.345,-12.247,-10.213,-32.393,27.06,-0.15799,-0.22333,0.0311,-0.9613,362,0.987,-0.068,0.04,-0.305,-0.122,0.0,-57.772,-85.49,-113.802,-31.873,-10.7,0.353,27.01,-0.07623,0.69141,0.02701,0.71786,360
91,1.0,0.013,0.201,0.183,-0.183,0.0,3.636,-78.745,158.533,-26.673,-12.773,-9.8,24.11,-0.12256,-0.62769,0.09268,-0.76309,369,0.726,-0.022,0.696,-0.244,0.061,0.122,-2.093,-46.077,-121.641,-22.44,-8.567,-2.307,22.91,0.44186,-0.34979,-0.17618,-0.80701,365,0.444,0.01,0.892,-0.061,-0.061,-0.061,0.637,-26.098,161.345,-12.247,-10.213,-32.393,27.06,-0.15799,-0.22333,0.0311,-0.9613,363,0.984,-0.066,0.044,-0.183,0.061,-0.061,-57.805,-85.49,-113.78,-31.873,-10.7,0.353,27.01,-0.07623,0.69141,0.02701,0.71786,361
92,1.0,0.012,0.2,0.183,0.0,0.0,3.642,-78.745,158.516,-26.593,-12.96,-8.88,24.11,-0.12256,-0.62769,0.09268,-0.76309,374,0.724,-0.029,0.688,-0.671,0.305,0.183,-2.109,-46.071,-121.635,-22.427,-8.687,-3.047,22.91,0.44186,-0.34979,-0.17618,-0.80701,366,0.441,0.004,0.884,-0.427,0.793,0.0,0.632,-26.093,161.34,-12.247,-10.213,-32.393,27.06,-0.15662,-0.22369,0.03125,-0.96143,372,0.985,-0.069,0.04,0.0,0.061,-0.122,-57.794,-85.49,-113.796,-31.873,-10.7,0.353,27.01,-0.07623,0.69141,0.02701,0.71786,370
93,1.002,0.011,0.201,-0.122,-0.061,0.0,3.636,-78.745,158.5,-26.593,-12.96,-8.88,24.11,-0.12256,-0.62769,0.09268,-0.76309,375,0.723,-0.028,0.696,-0.427,0.793,0.183,-2.12,-46.06,-121.63,-22.427,-8.687,-3.047,22.91,0.44186,-0.34979,-0.17618,-0.80701,367,0.438,0.006,0.895,-0.977,0.122,0.0,0.615,-26.087,161.334,-12.247,-10.213,-32.393,27.06,-0.15662,-0.22369,0.03125,-0.96143,373,0.986,-0.07,0.042,-0.122,0.244,-0.244,-57.761,-85.49,-113.835,-31.873,-10.7,0.353,27.01,-0.07623,0.69141,0.02701,0.71786,371
94,1.0,0.014,0.198,-0.122,-0.305,0.0,3.631,-78.75,158.483,-26.593,-12.96,-8.88,24.11,-0.12256,-0.62769,0.09268,-0.76309,380,0.721,-0.023,0.701,-0.427,0.732,0.183,-2.131,-46.049,-121.624,-22.427,-8.687,-3.047,22.91,0.44186,-0.34979,-0.17618,-0.80701,376,0.434,0.011,0.902,-0.183,-0.427,-0.244,0.604,-26.093,161.323,-12.247,-10.213,-32.393,27.06,-0.15662,-0.22369,0.03125,-0.96143,378,0.984,-0.064,0.046,-0.305,0.244,-0.183,-57.689,-85.49,-113.912,-31.787,-10.987,0.72,27.01,-0.07623,0.69141,0.02701,0.71786,382
95,1.0,0.012,0.197,0.0,-0.122,0.0,3.631,-78.75,158.467,-26.593,-12.96,-8.88,24.11,-0.12256,-0.62769,0.09268,-0.76309,381,0.716,-0.027,0.698,-0.122,0.488,0.244,-2.137,-46.038,-121.619,-22.427,-8.687,-3.047,22.91,0.44186,-0.34979,-0.17618,-0.80701,377,0.433,0.008,0.897,0.0,-0.488,0.122,0.599,-26.104,161.307,-12.247,-10.213,-32.393,27.06,-0.15662,-0.22369,0.03125,-0.96143,379,0.981,-0.066,0.04,-0.305,0.061,-0.122,-57.64,-85.49,-113.967,-31.787,-10.987,0.72,27.01,-0.07623,0.69141,0.02701,0.71786,383
96,1.0,0.012,0.193,-0.061,-0.122,0.0,3.631,-78.755,158.45,-26.593,-12.96,-8.88,24.11,-0.1246,-0.6275,0.09442,-0.7627,384,0.717,-0.028,0.7,0.305,0.366,0.305,-2.137,-46.033,-121.608,-22.427,-8.687,-3.047,22.91,0.44235,-0.34973,-0.17569,-0.80685,390,0.435,0.006,0.897,0.305,-0.305,0.366,0.604,-26.109,161.29,-12.247,-10.213,-32.393,27.06,-0.15662,-0.22369,0.03125,-0.96143,386,0.981,-0.068,0.041,-0.854,-0.061,-0.244,-57.623,-85.49,-113.989,-31.787,-10.987,0.72,27.01,-0.07608,0.6915,0.0271,0.71777,388
97,1.0,0.014,0.192,-0.183,0.0,0.0,3.625,-78.755,158.439,-26.593,-12.96,-8.88,24.11,-0.1246,-0.6275,0.09442,-0.7627,385,0.72,-0.027,0.697,0.183,0.0,0.183,-2.137,-46.033,-121.602,-22.427,-8.687,-3.047,22.91,0.44235,-0.34973,-0.17569,-0.80685,391,0.438,0.009,0.897,0.305,-0.122,0.183,0.604,-26.115,161.285,-12.247,-10.213,-32.393,27.06,-0.15662,-0.22369,0.03125,-0.96143,387,0.982,-0.064,0.042,-0.61,-0.244,-0.183,-57.64,-85.496,-113.989,-31.787,-10.987,0.72,27.01,-0.07608,0.6915,0.0271,0.71777,389
98,1.0,0.014,0.194,-0.122,0.0,0.0,3.625,-78.755,158.423,-26.593,-12.96,-8.88,24.11,-0.1246,-0.6275,0.09442,-0.7627,400,0.721,-0.024,0.695,0.0,-0.244,0.122,-2.142,-46.033,-121.597,-22.427,-8.687,-3.047,22.91,0.44235,-0.34973,-0.17569,-0.80685,394,0.438,0.009,0.894,-0.366,-0.671,0.0,0.604,-26.12,161.274,-12.247,-10.213,-32.393,27.06,-0.15662,-0.22369,0.03125,-0.96143,392,0.982,-0.064,0.038,-0.305,-0.366,-0.061,-57.706,-85.501,-113.934,-31.787,-10.987,0.72,27.01,-0.07608,0.6915,0.0271,0.71777,396
99,1.001,0.013,0.196,-0.061,0.0,0.0,3.625,-78.761,158.406,-26.593,-12.96,-8.88,24.11,-0.1246,-0.6275,0.09442,-0.7627,401,0.72,-0.025,0.694,-0.061,-0.244,0.122,-2.148,-46.038,-121.591,-22.427,-8.687,-3.047,22.91,0.44235,-0.34973,-0.17569,-0.80685,395,0.439,0.008,0.892,-0.366,-0.488,0.0,0.593,-26.131,161.246,-12.247,-10.213,-32.393,27.06,-0.15662,-0.22369,0.03125,-0.96143,393,0.983,-0.065,0.04,-0.122,-0.427,-0.183,-57.783,-85.507,-113.857,-31.787,-10.987,0.72,27.01,-0.07608,0.6915,0.0271,0.71777,397
100,0.999,0.012,0.199,0.0,0.244,0.0,3.625,-78.755,158.395,-26.593,-12.96,-8.88,24.11,-0.1246,-0.6275,0.09442,-0.7627,406,0.72,-0.026,0.694,0.0,-0.122,0.122,-2.148,-46.038,-121.586,-22.427,-8.687,-3.047,22.91,0.44235,-0.34973,-0.17569,-0.80685,398,0.438,0.005,0.892,-0.183,-0.183,0.0,0.588,-26.136,161.213,-12.247,-10.213,-32.393,27.06,-0.15662,-0.22369,0.03125,-0.96143,404,0.983,-0.066,0.043,0.0,-0.427,-0.305,-57.849,-85.512,-113.796,-31.787,-10.987,0.72,27.01,-0.07608,0.6915,0.0271,0.71777,402
101,0.999,0.013,0.201,0.0,0.366,0.0,3.62,-78.755,158.379,-26.593,-12.96,-8.88,24.11,-0.1246,-0.6275,0.09442,-0.7627,407,0.72,-0.027,0.695,-0.061,-0.122,0.061,-2.153,-46.044,-121.58,-22.427,-8.687,-3.047,22.91,0.44235,-0.34973,-0.17569,-0.80685,399,0.44,0.006,0.893,-0.305,-0.061,-0.122,0.582,-26.142,161.191,-12.247,-10.213,-32.393,27.06,-0.15662,-0.22369,0.03125,-0.96143,405,0.983,-0.067,0.042,0.0,-0.488,-0.244,-57.914,-85.523,-113.725,-31.787,-10.987,0.72,27.01,-0.07608,0.6915,0.0271,0.71777,403
102,1.0,0.012,0.202,0.0,0.244,0.0,3.62,-78.75,158.368,-26.593,-12.96,-8.88,24.11,-0.1246,-0.6275,0.09442,-0.7627,412,0.723,-0.027,0.692,-0.122,-0.122,0.0,-2.153,-46.044,-121.58,-22.427,-8.687,-3.047,22.91,0.44235,-0.34973,-0.17569,-0.80685,408,0.443,0.006,0.889,0.0,0.366,-0.183,0.582,-26.136,161.169,-12.247,-10.213,-32.393,27.06,-0.15662,-0.22369,0.03125,-0.96143,414,0.984,-0.065,0.044,0.0,-0.366,-0.244,-57.975,-85.529,-113.659,-31.787,-10.987,0.72,27.01,-0.07608,0.6915,0.0271,0.71777,410
103,1.0,0.011,0.201,-0.061,0.183,0.0,3.62,-78.745,158.357,-26.593,-12.96,-8.88,24.11,-0.1246,-0.6275,0.09442,-0.7627,413,0.724,-0.026,0.693,0.0,0.061,-0.122,-2.153,-46.044,-121.58,-22.427,-8.687,-3.047,22.91,0.44235,-0.34973,-0.17569,-0.80685,409,0.441,0.007,0.892,0.061,0.244,-0.366,0.582,-26.131,161.125,-12.247,-10.213,-32.393,27.06,-0.15662,-0.22369,0.03125,-0.96143,415,0.985,-0.064,0.041,-0.244,-0.366,-0.122,-58.03,-85.534,-113.599,-31.787,-10.987,0.72,27.01,-0.07608,0.6915,0.0271,0.71777,411
104,1.002,0.012,0.203,-0.183,0.0,0.0,3.615,-78.739,158.34,-26.593,-12.96,-8.88,24.11,-0.1246,-0.6275,0.09442,-0.7627,418,0.723,-0.024,0.697,0.0,0.0,-0.244,-2.148,-46.044,-121.586,-22.427,-8.687,-3.047,22.91,0.44235,-0.34973,-0.17569,-0.80685,416,0.44,0.011,0.896,0.366,0.061,-0.427,0.588,-26.131,161.082,-12.007,-9.94,-33.113,27.06,-0.15662,-0.22369,0.03125,-0.96143,422,0.987,-0.065,0.042,-0.244,-0.183,0.0,-58.079,-85.54,-113.538,-31.787,-10.987,0.72,27.01,-0.07608,0.6915,0.0271,0.71777,420
105,1.002,0.013,0.201,-0.122,-0.122,0.0,3.615,-78.745,158.329,-26.593,-12.96,-8.88,24.11,-0.1246,-0.6275,0.09442,-0.7627,419,0.723,-0.023,0.697,0.0,0.0,-0.183,-2.142,-46.044,-121.591,-22.427,-8.687,-3.047,22.91,0.44235,-0.34973,-0.17569,-0.80685,417,0.441,0.012,0.894,0.183,0.0,-0.244,0.599,-26.131,161.049,-12.007,-9.94,-33.113,27.06,-0.15662,-0.22369,0.03125,-0.96143,423,0.987,-0.064,0.042,-0.61,-0.061,0.0,-58.107,-85.54,-113.511,-31.787,-10.987,0.72,27.01,-0.07608,0.6915,0.0271,0.71777,421
106,1.0,0.014,0.198,-0.061,-0.366,0.0,3.615,-78.745,158.313,-26.593,-12.96,-8.88,24.11,-0.1246,-0.6275,0.09442,-0.7627,426,0.723,-0.023,0.696,-0.061,0.122,-0.061,-2.142,-46.038,-121.591,-22.427,-8.687,-3.047,22.91,0.44235,-0.34973,-0.17569,-0.80685,430,0.438,0.01,0.894,0.122,0.244,-0.244,0.604,-26.125,161.027,-12.007,-9.94,-33.113,27.06,-0.1593,-0.22379,0.03217,-0.96094,428,0.985,-0.064,0.041,-0.488,0.061,0.061,-58.112,-85.54,-113.5,-31.787,-10.987,0.72,27.01,-0.07608,0.6915,0.0271,0.71777,424
107,1.0,0.013,0.197,-0.122,-0.488,0.0,3.615,-78.755,158.297,-26.593,-12.96,-8.88,24.11,-0.1246,-0.6275,0.09442,-0.7627,427,0.721,-0.024,0.696,-0.183,0.061,-0.122,-2.142,-46.038,-121.597,-22.427,-8.687,-3.047,22.91,0.44235,-0.34973,-0.17569,-0.80685,431,0.439,0.009,0.896,-0.061,0.671,-0.488,0.604,-26.12,161.005,-12.007,-9.94,-33.113,27.06,-0.1593,-0.22379,0.03217,-0.96094,429,0.982,-0.066,0.041,-0.549,0.183,0.061,-58.09,-85.534,-113.511,-31.787,-10.987,0.72,27.01,-0.07608,0.6915,0.0271,0.71777,425
108,1.0,0.013,0.194,-0.183,-0.244,0.0,3.615,-78.761,158.28,-26.593,-12.96,-8.88,24.11,-0.1246,-0.6275,0.09442,-0.7627,438,0.722,-0.025,0.695,-0.183,0.061,-0.183,-2.142,-46.038,-121.597,-22.953,-8.753,-3.073,22.91,0.44235,-0.34973,-0.17569,-0.80685,436,0.44,0.01,0.892,-0.061,0.793,-0.366,0.61,-26.104,160.972,-12.007,-9.94,-33.113,27.06,-0.1593,-0.22379,0.03217,-0.96094,434,0.982,-0.067,0.038,-0.366,0.061,0.061,-58.079,-85.534,-113.522,-31.787,-10.987,0.72,27.01,-0.07608,0.6915,0.0271,0.71777,432
109,1.001,0.013,0.195,-0.244,0.0,0.0,3.615,-78.761,158.269,-26.593,-12.96,-8.88,24.11,-0.1246,-0.6275,0.09442,-0.7627,439,0.722,-0.025,0.694,0.0,0.061,-0.061,-2.137,-46.038,-121.597,-22.953,-8.753,-3.073,22.91,0.44235,-0.34973,-0.17569,-0.80685,437,0.438,0.009,0.892,0.244,0.732,-0.244,0.615,-26.093,160.933,-12.007,-9.94,-33.113,27.06,-0.1593,-0.22379,0.03217,-0.96094,435,0.983,-0.064,0.037,-0.244,0.0,0.061,-58.085,-85.529,-113.516,-31.787,-10.987,0.72,27.01,-0.07608,0.6915,0.0271,0.71777,433
110,1.003,0.014,0.195,-0.183,0.183,0.0,3.609,-78.761,158.258,-26.84,-12.747,-9.207,24.11,-0.1246,-0.6275,0.09442,-0.7627,444,0.723,-0.024,0.693,0.0,0.0,-0.122,-2.137,-46.038,-121.602,-22.953,-8.753,-3.073,22.91,0.44235,-0.34973,-0.17569,-0.80685,446,0.44,0.008,0.894,0.427,0.549,-0.244,0.621,-26.082,160.906,-12.007,-9.94,-33.113,27.06,-0.1593,-0.22379,0.03217,-0.96094,442,0.984,-0.062,0.038,-0.183,0.0,0.0,-58.096,-85.529,-113.505,-31.787,-10.987,0.72,27.01,-0.07608,0.6915,0.0271,0.71777,440
111,1.002,0.013,0.195,0.122,0.244,0.305,3.593,-78.755,158.269,-26.84,-12.747,-9.207,24.11,-0.1246,-0.6275,0.09442,-0.7627,445,0.724,-0.025,0.694,0.061,0.0,-0.244,-2.126,-46.038,-121.608,-22.953,-8.753,-3.073,22.91,0.44235,-0.34973,-0.17569,-0.80685,447,0.441,0.008,0.893,0.305,0.732,-0.427,0.632,-26.071,160.884,-12.007,-9.94,-33.113,27.06,-0.1593,-0.22379,0.03217,-0.96094,443,0.985,-0.062,0.039,-0.244,-0.061,0.0,-58.112,-85.529,-113.494,-31.787,-10.987,0.72,27.01,-0.07608,0.6915,0.0271,0.71777,441
112,1.003,0.011,0.197,0.305,0.244,0.305,3.565,-78.755,158.291,-26.84,-12.747,-9.207,24.11,-0.1246,-0.6275,0.09442,-0.7627,452,0.725,-0.025,0.695,0.0,-0.122,-0.427,-2.12,-46.044,-121.619,-22.953,-8.753,-3.073,22.91,0.44247,-0.34964,-0.17578,-0.80682,448,0.441,0.008,0.895,0.305,0.488,-0.488,0.643,-26.06,160.862,-12.007,-9.94,-33.113,27.06,-0.1593,-0.22379,0.03217,-0.96094,450,0.986,-0.065,0.039,-0.305,0.0,0.061,-58.129,-85.529,-113.478,-31.947,-10.9,0.073,27.01,-0.07608,0.6915,0.0271,0.71777,454
113,1.002,0.011,0.198,0.366,0.305,0.305,3.543,-78.75,158.307,-26.84,-12.747,-9.207,24.11,-0.1246,-0.6275,0.09442,-0.7627,453,0.726,-0.025,0.697,0.0,-0.122,-0.488,-2.109,-46.044,-121.63,-22.953,-8.753,-3.073,22.91,0.44247,-0.34964,-0.17578,-0.80682,449,0.441,0.012,0.896,0.244,0.427,-0.488,0.648,-26.049,160.84,-12.007,-9.94,-33.113,27.06,-0.1593,-0.22379,0.03217,-0.96094,451,0.986,-0.068,0.038,-0.305,0.0,0.061,-58.151,-85.529,-113.461,-31.947,-10.9,0.073,27.01,-0.07608,0.6915,0.0271,0.71777,455
114,1.001,0.011,0.198,0.305,0.244,0.183,3.527,-78.745,158.318,-26.84,-12.747,-9.207,24.11,-0.12607,-0.62723,0.09583,-0.76248,460,0.726,-0.023,0.695,0.061,-0.122,-0.366,-2.098,-46.049,-121.641,-22.953,-8.753,-3.073,22.91,0.44247,-0.34964,-0.17578,-0.80682,456,0.442,0.013,0.894,0.916,0.244,-0.122,0.665,-26.043,160.823,-12.007,-9.94,-33.113,27.06,-0.1593,-0.22379,0.03217,-0.96094,462,0.986,-0.07,0.039,-0.366,0.0,0.061,-58.173,-85.529,-113.45,-31.947,-10.9,0.073,27.01,-0.07596,0.69186,0.02713,0.71744,458
115,1.002,0.013,0.198,0.0,0.0,0.061,3.521,-78.745,158.318,-26.84,-12.747,-9.207,24.11,-0.12607,-0.62723,0.09583,-0.76248,461,0.727,-0.025,0.694,0.183,-0.061,-0.183,-2.093,-46.049,-121.646,-22.953,-8.753,-3.073,22.91,0.44247,-0.34964,-0.17578,-0.80682,457,0.442,0.01,0.893,0.916,0.732,0.0,0.681,-26.038,160.812,-12.007,-9.94,-33.113,27.06,-0.1593,-0.22379,0.03217,-0.96094,463,0.986,-0.069,0.038,-0.427,0.0,0.122,-58.206,-85.529,-113.434,-31.947,-10.9,0.073,27.01,-0.07596,0.69186,0.02713,0.71744,459
116,1.002,0.015,0.199,-0.305,-0.122,0.0,3.516,-78.75,158.307,-26.84,-12.747,-9.207,24.11,-0.12607,-0.62723,0.09583,-0.76248,468,0.725,-0.026,0.693,0.061,0.0,-0.061,-2.087,-46.055,-121.646,-22.953,-8.753,-3.073,22.91,0.44247,-0.34964,-0.17578,-0.80682,464,0.438,0.01,0.895,0.427,0.793,0.0,0.698,-26.027,160.801,-12.007,-9.94,-33.113,27.06,-0.1593,-0.22379,0.03217,-0.96094,470,0.986,-0.066,0.04,-0.244,0.122,0.122,-58.233,-85.523,-113.423,-31.947,-10.9,0.073,27.01,-0.07596,0.69186,0.02713,0.71744,466
117,1.002,0.014,0.199,-0.061,-0.183,0.061,3.516,-78.755,158.297,-26.84,-12.747,-9.207,24.11,-0.12607,-0.62723,0.09583,-0.76248,469,0.724,-0.023,0.697,0.183,0.061,-0.061,-2.082,-46.055,-121.646,-22.953,-8.753,-3.073,22.91,0.44247,-0.34964,-0.17578,-0.80682,465,0.438,0.012,0.897,0.244,0.61,-0.183,0.703,-26.016,160.807,-12.007,-9.94,-33.113,27.06,-0.1593,-0.22379,0.03217,-0.96094,471,0.985,-0.064,0.042,-0.061,0.305,0.061,-58.2,-85.523,-113.467,-31.947,-10.9,0.073,27.01,-0.07596,0.69186,0.02713,0.71744,467
118,1.0,0.011,0.199,0.183,-0.183,0.122,3.51,-78.755,158.297,-26.84,-12.747,-9.207,24.11,-0.12607,-0.62723,0.09583,-0.76248,478,0.725,-0.025,0.694,0.061,0.0,-0.061,-2.082,-46.055,-121.646,-22.953,-8.753,-3.073,22.91,0.44247,-0.34964,-0.17578,-0.80682,476,0.441,0.007,0.893,0.732,0.793,-0.061,0.714,-26.005,160.812,-11.867,-10.213,-31.547,27.06,-0.1593,-0.22379,0.03217,-0.96094,474,0.983,-0.064,0.042,0.0,0.427,0.0,-58.123,-85.518,-113.544,-31.947,-10.9,0.073,27.01,-0.07596,0.69186,0.02713,0.71744,472
119,1.001,0.007,0.196,0.183,0.061,0.061,3.505,-78.755,158.291,-26.84,-12.747,-9.207,24.11,-0.12607,-0.62723,0.09583,-0.76248,479,0.722,-0.03,0.69,0.061,0.0,-0.061,-2.076,-46.055,-121.646,-22.953,-8.753,-3.073,22.91,0.44247,-0.34964,-0.17578,-0.80682,477,0.435,0.005,0.89,0.244,0.671,0.122,0.72,-25.988,160.812,-11.867,-10.213,-31.547,27.06,-0.1593,-0.22379,0.03217,-0.96094,475,0.985,-0.072,0.036,0.183,0.61,0.0,-58.008,-85.512,-113.659,-31.947,-10.9,0.073,27.01,-0.07596,0.69186,0.02713,0.71744,473
120,1.001,0.009,0.199,0.0,-0.122,0.0,3.505,-78.761,158.286,-26.84,-12.747,-9.207,24.11,-0.12607,-0.62723,0.09583,-0.76248,480,0.721,-0.025,0.7,0.122,0.366,-0.122,-2.071,-46.049,-121.652,-22.953,-8.753,-3.073,22.91,0.44247,-0.34964,-0.17578,-0.80682,482,0.434,0.011,0.897,0.305,0.427,-0.183,0.725,-25.983,160.796,-11.867,-10.213,-31.547,27.06,-0.1593,-0.22379,0.03217,-0.96094,486,0.984,-0.07,0.043,-0.061,0.488,0.0,-57.914,-85.507,-113.769,-31.947,-10.9,0.073,27.01,-0.07596,0.69186,0.02713,0.71744,484
121,1.0,0.012,0.196,-0.061,0.0,0.0,3.505,-78.761,158.269,-26.84,-12.747,-9.207,24.11,-0.12607,-0.62723,0.09583,-0.76248,481,0.72,-0.025,0.698,0.0,0.244,-0.061,-2.071,-46.044,-121.652,-22.953,-8.753,-3.073,22.91,0.44247,-0.34964,-0.17578,-0.80682,483,0.435,0.01,0.898,0.671,0.916,-0.183,0.736,-25.972,160.768,-11.867,-10.213,-31.547,27.06,-0.1593,-0.22379,0.03217,-0.96094,487,0.982,-0.067,0.043,-0.122,0.183,0.122,-57.887,-85.501,-113.807,-31.947,-10.9,0.073,27.01,-0.07596,0.69186,0.02713,0.71744,485
122,1.0,0.01,0.196,0.0,-0.061,0.0,3.499,-78.761,158.258,-26.84,-12.747,-9.207,24.11,-0.12607,-0.62723,0.09583,-0.76248,488,0.719,-0.03,0.698,0.244,0.244,0.0,-2.071,-46.038,-121.652,-22.953,-8.753,-3.073,22.91,0.44247,-0.34964,-0.17578,-0.80682,490,0.431,0.008,0.896,0.244,-0.061,0.0,0.742,-25.966,160.752,-11.867,-10.213,-31.547,27.06,-0.16122,-0.22266,0.03137,-0.96091,494,0.982,-0.071,0.042,-0.122,0.183,0.0,-57.865,-85.496,-113.84,-31.947,-10.9,0.073,27.01,-0.07596,0.69186,0.02713,0.71744,492
123,1.0,0.01,0.196,-0.122,0.0,-0.061,3.499,-78.761,158.247,-26.84,-12.747,-9.207,24.11,-0.12607,-0.62723,0.09583,-0.76248,489,0.716,-0.027,0.702,0.183,0.244,0.061,-2.065,-46.038,-121.646,-22.953,-8.753,-3.073,22.91,0.44247,-0.34964,-0.17578,-0.80682,491,0.429,0.011,0.901,0.427,-0.061,-0.061,0.747,-25.966,160.763,-11.867,-10.213,-31.547,27.06,-0.16122,-0.22266,0.03137,-0.96091,495,0.982,-0.071,0.042,-0.183,0.0,-0.122,-57.859,-85.496,-113.857,-31.947,-10.9,0.073,27.01,-0.07596,0.69186,0.02713,0.71744,493
124,1.0,0.012,0.197,-0.183,-0.122,-0.061,3.499,-78.766,158.225,-26.84,-12.747,-9.207,24.11,-0.12607,-0.62723,0.09583,-0.76248,496,0.722,-0.024,0.7,0.122,-0.061,0.122,-2.071,-46.033,-121.641,-22.953,-8.753,-3.073,22.91,0.44247,-0.34964,-0.17578,-0.80682,502,0.434,0.013,0.901,0.183,0.0,-0.122,0.753,-25.966,160.785,-11.867,-10.213,-31.547,27.06,-0.16122,-0.22266,0.03137,-0.96091,500,0.982,-0.065,0.042,-0.244,0.0,-0.122,-57.865,-85.496,-113.868,-31.947,-10.9,0.073,27.01,-0.07596,0.69186,0.02713,0.71744,498
125,1.002,0.013,0.198,-0.183,0.0,0.0,3.494,-78.766,158.214,-26.84,-12.747,-9.207,24.11,-0.12607,-0.62723,0.09583,-0.76248,497,0.723,-0.023,0.697,0.0,-0.549,-0.122,-2.071,-46.044,-121.641,-22.953,-8.753,-3.073,22.91,0.44247,-0.34964,-0.17578,-0.80682,503,0.438,0.013,0.898,0.0,-0.244,-0.122,0.758,-25.966,160.801,-11.867,-10.213,-31.547,27.06,-0.16122,-0.22266,0.03137,-0.96091,501,0.984,-0.062,0.042,-0.427,-0.122,0.122,-57.909,-85.496,-113.835,-31.947,-10.9,0.073,27.01,-0.07596,0.69186,0.02713,0.71744,499
126,1.002,0.014,0.198,-0.061,0.061,0.0,3.494,-78.766,158.203,-26.84,-12.747,-9.207,24.11,-0.12607,-0.62723,0.09583,-0.76248,510,0.723,-0.025,0.698,-0.244,-0.488,-0.061,-2.065,-46.049,-121.646,-22.127,-8.773,-3.233,22.91,0.44247,-0.34964,-0.17578,-0.80682,508,0.436,0.012,0.896,-0.183,-0.122,-0.183,0.753,-25.972,160.807,-11.867,-10.213,-31.547,27.06,-0.16122,-0.22266,0.03137,-0.96091,506,0.985,-0.063,0.042,-0.671,-0.244,0.0,-57.975,-85.496,-113.78,-31.947,-10.9,0.073,27.01,-0.07596,0.69186,0.02713,0.71744,504
127,1.0,0.013,0.198,0.0,0.305,0.0,3.494,-78.761,158.198,-26.84,-12.747,-9.207,24.11,-0.12607,-0.62723,0.09583,-0.76248,511,0.722,-0.026,0.695,-0.427,-0.427,-0.061,-2.071,-46.06,-121.646,-22.127,-8.773,-3.233,22.91,0.44247,-0.34964,-0.17578,-0.80682,509,0.438,0.011,0.897,-0.671,-0.122,-0.366,0.747,-25.972,160.796,-11.867,-10.213,-31.547,27.06,-0.16122,-0.22266,0.03137,-0.96091,507,0.984,-0.066,0.042,-0.488,-0.366,0.0,-58.057,-85.501,-113.703,-31.947,-10.9,0.073,27.01,-0.07596,0.69186,0.02713,0.71744,505
128,1.0,0.012,0.199,-0.122,0.244,-0.061,3.494,-78.761,158.181,-27.04,-12.567,-9.387,24.11,-0.12607,-0.62723,0.09583,-0.76248,516,0.722,-0.026,0.694,-0.305,-0.183,0.0,-2.082,-46.066,-121.646,-22.127,-8.773,-3.233,22.91,0.44247,-0.34964,-0.17578,-0.80682,518,0.437,0.011,0.893,-0.427,0.244,-0.183,0.742,-25.972,160.779,-11.867,-10.213,-31.547,27.06,-0.16122,-0.22266,0.03137,-0.96091,514,0.983,-0.068,0.042,-0.427,-0.305,0.0,-58.134,-85.501,-113.626,-31.947,-10.9,0.073,27.01,-0.07596,0.69186,0.02713,0.71744,512
129,1.0,0.012,0.199,-0.061,0.122,0.0,3.494,-78.755,158.17,-27.04,-12.567,-9.387,24.11,-0.12607,-0.62723,0.09583,-0.76248,517,0.721,-0.024,0.694,-0.183,0.0,-0.061,-2.087,-46.066,-121.641,-22.127,-8.773,-3.233,22.91,0.44247,-0.34964,-0.17578,-0.80682,519,0.437,0.008,0.892,-0.122,0.305,-0.122,0.736,-25.961,160.763,-11.867,-10.213,-31.547,27.06,-0.16122,-0.22266,0.03137,-0.96091,515,0.984,-0.067,0.044,-0.122,-0.366,0.0,-58.206,-85.501,-113.549,-31.947,-10.9,0.073,27.01,-0.07596,0.69186,0.02713,0.71744,513
130,1.0,0.013,0.201,0.0,0.0,0.0,3.494,-78.755,158.159,-27.04,-12.567,-9.387,24.11,-0.12607,-0.62723,0.09583,-0.76248,526,0.721,-0.023,0.695,-0.183,0.0,-0.122,-2.087,-46.066,-121.646,-22.127,-8.773,-3.233,22.91,0.44232,-0.34973,-0.17606,-0.80679,522,0.435,0.01,0.893,-0.183,0.305,-0.366,0.731,-25.955,160.746,-11.867,-10.213,-31.547,27.06,-0.16122,-0.22266,0.03137,-0.96091,520,0.982,-0.066,0.043,0.183,-0.183,0.0,-58.25,-85.507,-113.494,-31.88,-11.033,0.9,27.01,-0.07596,0.69186,0.02713,0.71744,524
131,1.001,0.014,0.201,0.061,0.061,0.061,3.494,-78.755,158.154,-27.04,-12.567,-9.387,24.11,-0.12607,-0.62723,0.09583,-0.76248,527,0.723,-0.024,0.696,0.061,0.0,-0.122,-2.087,-46.066,-121.646,-22.127,-8.773,-3.233,22.91,0.44232,-0.34973,-0.17606,-0.80679,523,0.436,0.013,0.896,0.244,0.366,-0.244,0.736,-25.95,160.724,-11.867,-10.213,-31.547,27.06,-0.16122,-0.22266,0.03137,-0.96091,521,0.984,-0.064,0.043,0.244,-0.122,0.0,-58.266,-85.507,-113.461,-31.88,-11.033,0.9,27.01,-0.07596,0.69186,0.02713,0.71744,525
132,1.001,0.011,0.2,0.061,0.061,0.122,3.483,-78.75,158.159,-27.04,-12.567,-9.387,24.11,-0.12738,-0.62708,0.09702,-0.76224,528,0.723,-0.023,0.698,0.122,-0.061,0.0,-2.082,-46.066,-121.646,-22.127,-8.773,-3.233,22.91,0.44232,-0.34973,-0.17606,-0.80679,534,0.436,0.014,0.896,0.305,0.244,0.0,0.742,-25.944,160.714,-11.867,-10.213,-31.547,27.06,-0.16122,-0.22266,0.03137,-0.96091,532,0.984,-0.066,0.042,0.061,-0.122,0.0,-58.277,-85.507,-113.428,-31.88,-11.033,0.9,27.01,-0.07559,0.69186,0.02649,0.7175,530
133,1.002,0.011,0.198,0.0,0.183,0.061,3.477,-78.75,158.154,-27.04,-12.567,-9.387,24.11,-0.12738,-0.62708,0.09702,-0.76224,529,0.723,-0.022,0.698,-0.061,-0.061,0.061,-2.082,-46.066,-121.646,-22.127,-8.773,-3.233,22.91,0.44232,-0.34973,-0.17606,-0.80679,535,0.436,0.014,0.898,0.122,0.0,0.0,0.747,-25.944,160.697,-11.867,-10.213,-31.547,27.06,-0.16122,-0.22266,0.03137,-0.96091,533,0.985,-0.067,0.041,-0.244,0.0,0.0,-58.277,-85.507,-113.417,-31.88,-11.033,0.9,27.01,-0.07559,0.69186,0.02649,0.7175,531
134,1.001,0.012,0.198,0.061,0.0,0.0,3.477,-78.75,158.148,-27.04,-12.567,-9.387,24.11,-0.12738,-0.62708,0.09702,-0.76224,538,0.723,-0.022,0.695,-0.183,0.0,0.183,-2.087,-46.066,-121.641,-22.127,-8.773,-3.233,22.91,0.44232,-0.34973,-0.17606,-0.80679,536,0.436,0.014,0.897,-0.122,0.183,-0.061,0.747,-25.939,160.686,-11.867,-10.213,-31.547,27.06,-0.16122,-0.22266,0.03137,-0.96091,542,0.984,-0.067,0.041,0.0,-0.122,0.0,-58.288,-85.507,-113.395,-31.88,-11.033,0.9,27.01,-0.07559,0.69186,0.02649,0.7175,540
135,1.0,0.013,0.195,0.183,-0.061,0.122,3.472,-78.75,158.148,-27.04,-12.567,-9.387,24.11,-0.12738,-0.62708,0.09702,-0.76224,539,0.723,-0.024,0.694,-0.122,0.0,0.122,-2.093,-46.066,-121.635,-22.127,-8.773,-3.233,22.91,0.44232,-0.34973,-0.17606,-0.80679,537,0.437,0.012,0.894,-0.183,0.0,0.0,0.747,-25.939,160.675,-11.867,-10.213,-31.547,27.06,-0.16122,-0.22266,0.03137,-0.96091,543,0.983,-0.066,0.04,0.122,-0.122,0.0,-58.304,-85.507,-113.362,-31.88,-11.033,0.9,27.01,-0.07559,0.69186,0.02649,0.7175,541
136,1.0,0.013,0.196,0.244,0.0,0.122,3.466,-78.75,158.148,-27.04,-12.567,-9.387,24.11,-0.12738,-0.62708,0.09702,-0.76224,548,0.723,-0.024,0.694,0.0,-0.183,0.061,-2.093,-46.066,-121.635,-22.127,-8.773,-3.233,22.91,0.44232,-0.34973,-0.17606,-0.80679,550,0.437,0.013,0.894,0.0,0.183,0.061,0.742,-25.939,160.664,-11.793,-10.587,-32.753,27.06,-0.16122,-0.22266,0.03137,-0.96091,546,0.983,-0.064,0.037,0.061,-0.061,0.0,-58.315,-85.507,-113.346,-31.88,-11.033,0.9,27.01,-0.07559,0.69186,0.02649,0.7175,544
137,1.001,0.013,0.197,0.244,0.0,0.183,3.455,-78.75,158.159,-27.04,-12.567,-9.387,24.11,-0.12738,-0.62708,0.09702,-0.76224,549,0.725,-0.025,0.694,0.061,-0.183,0.061,-2.093,-46.066,-121.63,-22.127,-8.773,-3.233,22.91,0.44232,-0.34973,-0.17606,-0.80679,551,0.438,0.011,0.895,0.183,0.061,0.122,0.747,-25.933,160.653,-11.793,-10.587,-32.753,27.06,-0.16122,-0.22266,0.03137,-0.96091,547,0.983,-0.065,0.04,0.0,-0.061,0.0,-58.326,-85.507,-113.329,-31.88,-11.033,0.9,27.01,-0.07559,0.69186,0.02649,0.7175,545
138,1.003,0.013,0.196,0.122,0.122,0.122,3.45,-78.75,158.165,-27.04,-12.567,-9.387,24.11,-0.12738,-0.62708,0.09702,-0.76224,552,0.725,-0.027,0.694,0.061,-0.183,0.061,-2.093,-46.071,-121.63,-22.127,-8.773,-3.233,22.91,0.44232,-0.34973,-0.17606,-0.80679,558,0.439,0.009,0.895,0.122,0.183,0.0,0.747,-25.933,160.642,-11.793,-10.587,-32.753,27.06,-0.16122,-0.22266,0.03137,-0.96091,556,0.985,-0.066,0.038,-0.305,-0.061,0.0,-58.348,-85.507,-113.313,-31.88,-11.033,0.9,27.01,-0.07559,0.69186,0.02649,0.7175,554
139,1.002,0.013,0.198,0.061,0.183,0.0,3.45,-78.75,158.154,-27.04,-12.567,-9.387,24.11,-0.12738,-0.62708,0.09702,-0.76224,553,0.724,-0.025,0.695,0.183,-0.183,0.0,-2.093,-46.077,-121.624,-22.127,-8.773,-3.233,22.91,0.44232,-0.34973,-0.17606,-0.80679,559,0.437,0.01,0.896,0.061,-0.061,0.061,0.747,-25.933,160.631,-11.793,-10.587,-32.753,27.06,-0.16122,-0.22266,0.03137,-0.96091,557,0.986,-0.067,0.039,-0.366,-0.305,0.0,-58.425,-85.507,-113.242,-31.88,-11.033,0.9,27.01,-0.07559,0.69186,0.02649,0.7175,555
140,1.001,0.011,0.197,0.122,0.244,0.0,3.455,-78.745,158.148,-27.04,-12.567,-9.387,24.11,-0.12738,-0.62708,0.09702,-0.76224,562,0.724,-0.022,0.694,0.183,-0.244,0.0,-2.087,-46.082,-121.624,-22.127,-8.773,-3.233,22.91,0.44232,-0.34973,-0.17606,-0.80679,560,0.438,0.013,0.897,0.305,-0.122,0.061,0.753,-25.939,160.62,-11.793,-10.587,-32.753,27.06,-0.16238,-0.22226,0.0314,-0.96082,566,0.985,-0.067,0.039,-0.122,-0.183,0.0,-58.475,-85.512,-113.198,-31.88,-11.033,0.9,27.01,-0.07559,0.69186,0.02649,0.7175,564
141,1.001,0.012,0.197,0.305,0.244,0.0,3.461,-78.739,158.143,-27.04,-12.567,-9.387,24.11,-0.12738,-0.62708,0.09702,-0.76224,563,0.726,-0.022,0.693,0.183,-0.244,0.0,-2.082,-46.088,-121.624,-22.127,-8.773,-3.233,22.91,0.44232,-0.34973,-0.17606,-0.80679,561,0.439,0.014,0.895,0.427,0.0,0.061,0.758,-25.939,160.609,-11.793,-10.587,-32.753,27.06,-0.16238,-0.22226,0.0314,-0.96082,567,0.985,-0.065,0.039,0.0,-0.122,0.0,-58.508,-85.512,-113.17,-31.88,-11.033,0.9,27.01,-0.07559,0.69186,0.02649,0.7175,565
142,1.001,0.013,0.198,0.183,0.0,0.0,3.466,-78.739,158.132,-27.04,-12.567,-9.387,24.11,-0.12738,-0.62708,0.09702,-0.76224,568,0.725,-0.024,0.692,0.0,-0.183,0.0,-2.076,-46.093,-121.624,-22.127,-8.773,-3.233,22.91,0.44232,-0.34973,-0.17606,-0.80679,572,0.44,0.013,0.893,0.244,0.061,0.061,0.764,-25.939,160.604,-11.793,-10.587,-32.753,27.06,-0.16238,-0.22226,0.0314,-0.96082,570,0.985,-0.067,0.039,-0.122,0.0,0.0,-58.519,-85.512,-113.165,-31.88,-11.033,0.9,27.01,-0.07559,0.69186,0.02649,0.7175,574
143,1.002,0.013,0.197,0.122,0.0,0.0,3.472,-78.739,158.126,-27.04,-12.567,-9.387,24.11,-0.12738,-0.62708,0.09702,-0.76224,569,0.725,-0.023,0.696,0.122,-0.122,0.0,-2.076,-46.093,-121.619,-22.127,-8.773,-3.233,22.91,0.44232,-0.34973,-0.17606,-0.80679,573,0.437,0.01,0.894,0.061,0.061,0.0,0.769,-25.939,160.593,-11.793,-10.587,-32.753,27.06,-0.16238,-0.22226,0.0314,-0.96082,571,0.986,-0.065,0.04,-0.183,0.0,0.0,-58.53,-85.512,-113.159,-31.88,-11.033,0.9,27.01,-0.07559,0.69186,0.02649,0.7175,575
144,1.001,0.013,0.2,0.244,0.0,0.0,3.477,-78.745,158.115,-27.04,-12.567,-9.387,24.11,-0.12738,-0.62708,0.09702,-0.76224,580,0.726,-0.027,0.69,0.0,-0.183,0.0,-2.076,-46.099,-121.619,-22.66,-8.707,-2.867,22.91,0.44232,-0.34973,-0.17606,-0.80679,578,0.439,0.011,0.897,0.366,0.0,-0.183,0.775,-25.939,160.576,-11.793,-10.587,-32.753,27.06,-0.16238,-0.22226,0.0314,-0.96082,576,0.985,-0.065,0.041,-0.183,0.0,0.0,-58.535,-85.512,-113.159,-31.88,-11.033,0.9,27.01,-0.07559,0.69186,0.02649,0.7175,582
145,1.001,0.011,0.199,0.366,0.061,0.0,3.488,-78.739,158.11,-27.04,-12.567,-9.387,24.11,-0.12738,-0.62708,0.09702,-0.76224,581,0.724,-0.03,0.689,0.244,0.061,0.0,-2.071,-46.104,-121.619,-22.66,-8.707,-2.867,22.91,0.44232,-0.34973,-0.17606,-0.80679,579,0.44,0.005,0.89,0.671,0.427,0.0,0.786,-25.939,160.565,-11.793,-10.587,-32.753,27.06,-0.16238,-0.22226,0.0314,-0.96082,577,0.983,-0.066,0.04,-0.183,0.183,0.0,-58.502,-85.512,-113.192,-31.88,-11.033,0.9,27.01,-0.07559,0.69186,0.02649,0.7175,583
146,1.001,0.01,0.199,0.244,0.244,0.0,3.494,-78.739,158.099,-26.787,-12.913,-9.587,24.11,-0.12738,-0.62708,0.09702,-0.76224,588,0.724,-0.025,0.698,0.366,0.305,0.0,-2.071,-46.099,-121.619,-22.66,-8.707,-2.867,22.91,0.44232,-0.34973,-0.17606,-0.80679,586,0.438,0.007,0.892,0.61,0.122,0.061,0.797,-25.933,160.554,-11.793,-10.587,-32.753,27.06,-0.16238,-0.22226,0.0314,-0.96082,584,0.985,-0.072,0.036,0.0,0.305,0.0,-58.453,-85.507,-113.258,-31.88,-11.033,0.9,27.01,-0.07559,0.69186,0.02649,0.7175,592
147,0.999,0.011,0.199,-0.061,0.0,0.0,3.488,-78.739,158.093,-26.787,-12.913,-9.587,24.11,-0.12738,-0.62708,0.09702,-0.76224,589,0.722,-0.028,0.694,0.305,0.122,0.0,-2.06,-46.099,-121.619,-22.66,-8.707,-2.867,22.91,0.44232,-0.34973,-0.17606,-0.80679,587,0.434,0.013,0.897,0.854,0.305,-0.305,0.807,-25.933,160.543,-11.793,-10.587,-32.753,27.06,-0.16238,-0.22226,0.0314,-0.96082,585,0.984,-0.068,0.043,-0.305,0.244,0.0,-58.414,-85.501,-113.307,-31.88,-11.033,0.9,27.01,-0.07559,0.69186,0.02649,0.7175,593
148,1.001,0.012,0.199,-0.061,0.0,0.0,3.488,-78.739,158.082,-26.787,-12.913,-9.587,24.11,-0.12738,-0.62708,0.09702,-0.76224,600,0.723,-0.028,0.697,0.366,0.244,0.0,-2.054,-46.093,-121.619,-22.66,-8.707,-2.867,22.91,0.4425,-0.34982,-0.17642,-0.80658,590,0.437,0.011,0.897,0.427,0.244,0.0,0.818,-25.928,160.527,-11.793,-10.587,-32.753,27.06,-0.16238,-0.22226,0.0314,-0.96082,594,0.983,-0.067,0.043,-0.122,0.183,0.0,-58.387,-85.501,-113.34,-31.687,-11.013,0.813,27.01,-0.07559,0.69186,0.02649,0.7175,596
149,1.002,0.009,0.198,-0.244,-0.061,0.0,3.483,-78.739,158.077,-26.787,-12.913,-9.587,24.11,-0.12738,-0.62708,0.09702,-0.76224,601,0.72,-0.024,0.699,0.244,0.183,0.0,-2.049,-46.093,-121.619,-22.66,-8.707,-2.867,22.91,0.4425,-0.34982,-0.17642,-0.80658,591,0.431,0.01,0.898,0.0,-0.366,0.0,0.824,-25.933,160.521,-11.793,-10.587,-32.753,27.06,-0.16238,-0.22226,0.0314,-0.96082,595,0.985,-0.072,0.039,-0.122,0.122,0.0,-58.376,-85.501,-113.362,-31.687,-11.013,0.813,27.01,-0.07559,0.69186,0.02649,0.7175,597
150,1.0,0.008,0.196,-0.305,-0.183,0.0,3.472,-78.745,158.066,-26.787,-12.913,-9.587,24.11,-0.12799,-0.62692,0.0975,-0.76221,606,0.721,-0.023,0.697,0.183,0.0,0.0,-2.049,-46.088,-121.619,-22.66,-8.707,-2.867,22.91,0.4425,-0.34982,-0.17642,-0.80658,598,0.432,0.015,0.901,0.183,0.0,-0.061,0.824,-25.933,160.51,-11.793,-10.587,-32.753,27.06,-0.16238,-0.22226,0.0314,-0.96082,602,0.983,-0.072,0.04,-0.122,0.183,-0.305,-58.315,-85.501,-113.439,-31.687,-11.013,0.813,27.01,-0.07559,0.69186,0.02649,0.7175,604
151,1.001,0.01,0.196,-0.061,-0.488,0.0,3.472,-78.755,158.055,-26.787,-12.913,-9.587,24.11,-0.12799,-0.62692,0.0975,-0.76221,607,0.724,-0.024,0.695,0.0,-0.305,0.0,-2.043,-46.093,-121.613,-22.66,-8.707,-2.867,22.91,0.4425,-0.34982,-0.17642,-0.80658,599,0.438,0.013,0.898,0.0,0.061,0.0,0.824,-25.933,160.499,-11.793,-10.587,-32.753,27.06,-0.16238,-0.22226,0.0314,-0.96082,603,0.984,-0.066,0.041,0.0,0.122,-0.122,-58.288,-85.501,-113.478,-31.687,-11.013,0.813,27.01,-0.07559,0.69186,0.02649,0.7175,605
152,1.001,0.012,0.196,-0.061,-0.305,0.0,3.466,-78.761,158.044,-26.787,-12.913,-9.587,24.11,-0.12799,-0.62692,0.0975,-0.76221,620,0.724,-0.026,0.693,-0.244,-0.366,0.0,-2.049,-46.099,-121.613,-22.66,-8.707,-2.867,22.91,0.4425,-0.34982,-0.17642,-0.80658,612,0.438,0.01,0.895,-0.366,0.0,-0.122,0.818,-25.933,160.488,-11.913,-10.547,-32.533,27.06,-0.16238,-0.22226,0.0314,-0.96082,608,0.984,-0.065,0.04,-0.61,0.0,0.244,-58.315,-85.496,-113.472,-31.687,-11.013,0.813,27.01,-0.0752,0.69186,0.02594,0.71756,610
153,1.001,0.013,0.197,0.061,0.0,0.0,3.466,-78.761,158.038,-26.787,-12.913,-9.587,24.11,-0.12799,-0.62692,0.0975,-0.76221,621,0.722,-0.028,0.695,-0.366,-0.183,0.0,-2.054,-46.104,-121.613,-22.66,-8.707,-2.867,22.91,0.4425,-0.34982,-0.17642,-0.80658,613,0.434,0.008,0.893,-0.61,0.0,-0.366,0.813,-25.933,160.472,-11.913,-10.547,-32.533,27.06,-0.16238,-0.22226,0.0314,-0.96082,609,0.983,-0.067,0.041,-0.488,0.0,0.0,-58.365,-85.49,-113.445,-31.687,-11.013,0.813,27.01,-0.0752,0.69186,0.02594,0.71756,611
154,1.0,0.012,0.198,0.122,0.183,0.0,3.466,-78.755,158.033,-26.787,-12.913,-9.587,24.11,-0.12799,-0.62692,0.0975,-0.76221,626,0.722,-0.027,0.693,-0.488,-0.122,0.0,-2.065,-46.104,-121.613,-22.66,-8.707,-2.867,22.91,0.4425,-0.34982,-0.17642,-0.80658,618,0.435,0.008,0.896,-0.793,0.183,-0.488,0.802,-25.933,160.45,-11.913,-10.547,-32.533,27.06,-0.16385,-0.22229,0.03134,-0.96054,614,0.983,-0.07,0.041,-0.305,-0.061,-0.122,-58.381,-85.49,-113.439,-31.687,-11.013,0.813,27.01,-0.0752,0.69186,0.02594,0.71756,622
155,1.0,0.011,0.198,0.0,0.305,0.0,3.466,-78.755,158.027,-26.787,-12.913,-9.587,24.11,-0.12799,-0.62692,0.0975,-0.76221,627,0.724,-0.027,0.693,-0.366,0.0,0.0,-2.071,-46.11,-121.613,-22.66,-8.707,-2.867,22.91,0.4425,-0.34982,-0.17642,-0.80658,619,0.436,0.01,0.893,-0.549,0.366,-0.488,0.791,-25.928,160.433,-11.913,-10.547,-32.533,27.06,-0.16385,-0.22229,0.03134,-0.96054,615,0.984,-0.069,0.042,-0.061,-0.183,-0.183,-58.398,-85.49,-113.434,-31.687,-11.013,0.813,27.01,-0.0752,0.69186,0.02594,0.71756,623
156,1.0,0.011,0.2,0.0,0.061,0.0,3.461,-78.75,158.022,-26.787,-12.913,-9.587,24.11,-0.12799,-0.62692,0.0975,-0.76221,632,0.724,-0.026,0.693,-0.061,0.183,0.0,-2.076,-46.104,-121.613,-22.66,-8.707,-2.867,22.91,0.4425,-0.34982,-0.17642,-0.80658,624,0.438,0.011,0.893,0.0,0.549,-0.183,0.786,-25.917,160.417,-11.913,-10.547,-32.533,27.06,-0.16385,-0.22229,0.03134,-0.96054,616,0.984,-0.067,0.041,0.061,0.061,-0.122,-58.414,-85.496,-113.428,-31.687,-11.013,0.813,27.01,-0.0752,0.69186,0.02594,0.71756,634
157,1.0,0.012,0.201,0.0,0.0,0.0,3.461,-78.75,158.011,-26.787,-12.913,-9.587,24.11,-0.12799,-0.62692,0.0975,-0.76221,633,0.721,-0.025,0.695,0.0,0.183,0.0,-2.082,-46.104,-121.613,-22.66,-8.707,-2.867,22.91,0.4425,-0.34982,-0.17642,-0.80658,625,0.434,0.011,0.894,0.305,0.549,-0.122,0.791,-25.906,160.4,-11.913,-10.547,-32.533,27.06,-0.16385,-0.22229,0.03134,-0.96054,617,0.984,-0.066,0.044,0.061,0.183,-0.122,-58.381,-85.496,-113.461,-31.687,-11.013,0.813,27.01,-0.0752,0.69186,0.02594,0.71756,635
158,1.001,0.014,0.2,0.061,0.0,0.0,3.461,-78.75,158.005,-26.787,-12.913,-9.587,24.11,-0.12799,-0.62692,0.0975,-0.76221,638,0.724,-0.023,0.697,0.122,0.122,0.0,-2.082,-46.099,-121.608,-22.66,-8.707,-2.867,22.91,0.4425,-0.34982,-0.17642,-0.80658,630,0.436,0.014,0.898,0.244,0.427,-0.122,0.797,-25.9,160.389,-11.913,-10.547,-32.533,27.06,-0.16385,-0.22229,0.03134,-0.96054,628,0.985,-0.067,0.041,0.122,0.183,-0.183,-58.326,-85.496,-113.516,-31.687,-11.013,0.813,27.01,-0.0752,0.69186,0.02594,0.71756,636
159,1.002,0.012,0.199,0.0,0.0,0.0,3.461,-78.75,158.0,-26.787,-12.913,-9.587,24.11,-0.12799,-0.62692,0.0975,-0.76221,639,0.723,-0.022,0.698,0.122,0.061,0.0,-2.076,-46.099,-121.608,-22.66,-8.707,-2.867,22.91,0.4425,-0.34982,-0.17642,-0.80658,631,0.436,0.016,0.899,0.305,0.305,0.0,0.802,-25.895,160.378,-11.913,-10.547,-32.533,27.06,-0.16385,-0.22229,0.03134,-0.96054,629,0.986,-0.067,0.042,0.244,0.244,-0.061,-58.266,-85.49,-113.577,-31.687,-11.013,0.813,27.01,-0.0752,0.69186,0.02594,0.71756,637
160,1.002,0.011,0.2,-0.183,-0.122,0.0,3.461,-78.755,157.989,-26.787,-12.913,-9.587,24.11,-0.12799,-0.62692,0.0975,-0.76221,642,0.722,-0.022,0.698,0.0,0.061,0.0,-2.076,-46.099,-121.608,-22.66,-8.707,-2.867,22.91,0.4425,-0.34982,-0.17642,-0.80658,644,0.434,0.014,0.899,0.122,-0.061,0.0,0.802,-25.895,160.373,-11.913,-10.547,-32.533,27.06,-0.16385,-0.22229,0.03134,-0.96054,640,0.983,-0.067,0.041,0.0,0.244,0.0,-58.206,-85.49,-113.632,-31.687,-11.013,0.813,27.01,-0.0752,0.69186,0.02594,0.71756,646
161,1.0,0.012,0.196,0.0,-0.122,0.0,3.461,-78.755,157.983,-26.787,-12.913,-9.587,24.11,-0.12799,-0.62692,0.0975,-0.76221,643,0.722,-0.023,0.695,-0.061,0.0,0.0,-2.076,-46.099,-121.608,-22.66,-8.707,-2.867,22.91,0.4425,-0.34982,-0.17642,-0.80658,645,0.435,0.014,0.897,-0.305,0.0,-0.183,0.802,-25.895,160.362,-11.913,-10.547,-32.533,27.06,-0.16385,-0.22229,0.03134,-0.96054,641,0.982,-0.067,0.039,0.0,0.122,0.0,-58.162,-85.485,-113.676,-31.687,-11.013,0.813,27.01,-0.0752,0.69186,0.02594,0.71756,647
162,1.001,0.013,0.196,0.183,-0.183,0.0,3.461,-78.761,157.972,-26.787,-12.913,-9.587,24.11,-0.12799,-0.62692,0.0975,-0.76221,650,0.721,-0.022,0.694,-0.061,0.0,0.0,-2.076,-46.099,-121.608,-22.5,-9.013,-3.24,22.91,0.4425,-0.34982,-0.17642,-0.80658,648,0.435,0.015,0.895,0.0,0.183,-0.061,0.802,-25.889,160.351,-11.913,-10.547,-32.533,27.06,-0.16385,-0.22229,0.03134,-0.96054,654,0.982,-0.065,0.04,0.0,0.061,0.0,-58.145,-85.485,-113.692,-31.687,-11.013,0.813,27.01,-0.0752,0.69186,0.02594,0.71756,652
163,1.0,0.015,0.195,0.183,0.0,0.0,3.466,-78.761,157.967,-26.787,-12.913,-9.587,24.11,-0.12799,-0.62692,0.0975,-0.76221,651,0.721,-0.023,0.695,-0.061,0.0,0.0,-2.076,-46.099,-121.608,-22.5,-9.013,-3.24,22.91,0.4425,-0.34982,-0.17642,-0.80658,649,0.434,0.015,0.895,0.061,0.122,0.0,0.802,-25.889,160.34,-11.913,-10.547,-32.533,27.06,-0.16385,-0.22229,0.03134,-0.96054,655,0.982,-0.063,0.041,0.0,0.0,0.0,-58.145,-85.485,-113.703,-31.687,-11.013,0.813,27.01,-0.0752,0.69186,0.02594,0.71756,653
164,1.001,0.014,0.196,0.061,0.0,0.0,3.472,-78.761,157.961,-26.787,-12.913,-9.587,24.11,-0.12799,-0.62692,0.0975,-0.76221,662,0.723,-0.024,0.696,0.0,-0.183,0.0,-2.076,-46.099,-121.608,-22.5,-9.013,-3.24,22.91,0.4425,-0.34982,-0.17642,-0.80658,660,0.434,0.012,0.896,0.0,0.122,0.0,0.802,-25.884,160.334,-11.913,-10.547,-32.533,27.06,-0.16385,-0.22229,0.03134,-0.96054,658,0.984,-0.063,0.04,-0.061,-0.122,0.0,-58.151,-85.485,-113.692,-31.687,-11.013,0.813,27.01,-0.0752,0.69186,0.02594,0.71756,656
165,1.002,0.013,0.197,0.0,0.122,0.0,3.477,-78.761,157.956,-26.787,-12.913,-9.587,24.11,-0.12799,-0.62692,0.0975,-0.76221,663,0.725,-0.024,0.695,0.0,-0.244,0.0,-2.076,-46.104,-121.608,-22.5,-9.013,-3.24,22.91,0.4425,-0.34982,-0.17642,-0.80658,661,0.436,0.012,0.897,-0.122,-0.061,-0.183,0.802,-25.884,160.318,-11.913,-10.547,-32.533,27.06,-0.16385,-0.22229,0.03134,-0.96054,659,0.985,-0.065,0.041,-0.122,-0.061,-0.061,-58.178,-85.485,-113.665,-31.687,-11.013,0.813,27.01,-0.0752,0.69186,0.02594,0.71756,657
166,1.001,0.011,0.198,0.183,0.366,0.0,3.483,-78.755,157.95,-26.787,-12.913,-9.587,24.11,-0.12799,-0.62692,0.0975,-0.76221,666,0.724,-0.024,0.696,-0.061,-0.244,0.0,-2.076,-46.104,-121.602,-22.5,-9.013,-3.24,22.91,0.44254,-0.34988,-0.17639,-0.80655,670,0.436,0.013,0.896,-0.244,-0.183,-0.183,0.802,-25.889,160.307,-11.913,-10.547,-32.533,27.06,-0.16385,-0.22229,0.03134,-0.96054,668,0.985,-0.067,0.042,-0.244,-0.061,0.0,-58.189,-85.485,-113.659,-31.687,-11.013,0.813,27.01,-0.0752,0.69186,0.02594,0.71756,664
167,1.001,0.011,0.198,0.366,0.244,0.0,3.488,-78.75,157.945,-26.787,-12.913,-9.587,24.11,-0.12799,-0.62692,0.0975,-0.76221,667,0.724,-0.024,0.695,-0.122,-0.244,0.0,-2.076,-46.11,-121.602,-22.5,-9.013,-3.24,22.91,0.44254,-0.34988,-0.17639,-0.80655,671,0.437,0.013,0.897,-0.244,-0.183,-0.244,0.797,-25.895,160.296,-11.913,-10.547,-32.533,27.06,-0.16385,-0.22229,0.03134,-0.96054,669,0.985,-0.067,0.041,-0.122,-0.122,0.0,-58.211,-85.485,-113.637,-31.687,-11.013,0.813,27.01,-0.0752,0.69186,0.02594,0.71756,665
168,1.001,0.012,0.199,0.244,0.0,0.0,3.494,-78.75,157.939,-26.773,-12.427,-8.76,24.11,-0.12799,-0.62692,0.0975,-0.76221,672,0.725,-0.025,0.695,0.0,-0.183,0.0,-2.076,-46.115,-121.602,-22.5,-9.013,-3.24,22.91,0.44254,-0.34988,-0.17639,-0.80655,678,0.438,0.012,0.896,0.0,-0.122,-0.305,0.802,-25.895,160.28,-11.927,-10.313,-31.567,27.06,-0.16385,-0.22229,0.03134,-0.96054,676,0.985,-0.067,0.04,-0.183,-0.061,0.0,-58.233,-85.49,-113.61,-31.687,-11.013,0.813,27.01,-0.0752,0.69186,0.02594,0.71756,674
169,1.001,0.012,0.199,0.061,0.122,0.0,3.494,-78.75,157.934,-26.773,-12.427,-8.76,24.11,-0.12799,-0.62692,0.0975,-0.76221,673,0.724,-0.025,0.692,-0.061,-0.183,0.0,-2.076,-46.121,-121.602,-22.5,-9.013,-3.24,22.91,0.44254,-0.34988,-0.17639,-0.80655,679,0.438,0.011,0.895,0.061,-0.122,-0.183,0.802,-25.9,160.269,-11.927,-10.313,-31.567,27.06,-0.16385,-0.22229,0.03134,-0.96054,677,0.985,-0.067,0.041,-0.183,-0.122,0.061,-58.26,-85.49,-113.593,-31.687,-11.013,0.813,27.01,-0.0752,0.69186,0.02594,0.71756,675
170,1.002,0.012,0.199,0.122,0.0,0.0,3.499,-78.75,157.928,-26.773,-12.427,-8.76,24.11,-0.12799,-0.62692,0.0975,-0.76221,682,0.724,-0.024,0.694,-0.061,-0.061,0.0,-2.076,-46.121,-121.602,-22.5,-9.013,-3.24,22.91,0.44254,-0.34988,-0.17639,-0.80655,680,0.435,0.011,0.894,-0.183,-0.061,-0.244,0.802,-25.9,160.252,-11.927,-10.313,-31.567,27.06,-0.16385,-0.22229,0.03134,-0.96054,686,0.985,-0.067,0.042,-0.122,0.061,0.061,-58.288,-85.49,-113.566,-31.687,-11.013,0.813,27.01,-0.0752,0.69186,0.02594,0.71756,684
171,1.0,0.011,0.199,0.061,-0.244,0.0,3.499,-78.755,157.917,-26.773,-12.427,-8.76,24.11,-0.12799,-0.62692,0.0975,-0.76221,683,0.725,-0.025,0.694,-0.061,0.0,0.0,-2.076,-46.121,-121.602,-22.5,-9.013,-3.24,22.91,0.44254,-0.34988,-0.17639,-0.80655,681,0.438,0.013,0.897,-0.061,-0.183,-0.305,0.802,-25.906,160.241,-11.927,-10.313,-31.567,27.06,-0.16385,-0.22229,0.03134,-0.96054,687,0.984,-0.066,0.042,-0.305,0.183,0.061,-58.282,-85.485,-113.571,-31.687,-11.013,0.813,27.01,-0.0752,0.69186,0.02594,0.71756,685
172,1.001,0.01,0.198,0.122,0.061,0.0,3.505,-78.755,157.912,-26.773,-12.427,-8.76,24.11,-0.12888,-0.62689,0.09818,-0.76202,694,0.724,-0.031,0.689,-0.122,0.122,0.0,-2.076,-46.121,-121.602,-22.5,-9.013,-3.24,22.91,0.44254,-0.34988,-0.17639,-0.80655,690,0.439,0.009,0.892,0.0,0.183,-0.244,0.807,-25.906,160.225,-11.927,-10.313,-31.567,27.06,-0.16559,-0.22198,0.03168,-0.96033,692,0.983,-0.069,0.041,-0.061,0.183,0.0,-58.25,-85.485,-113.604,-31.36,-10.893,1.06,27.01,-0.0752,0.69186,0.02594,0.71756,688
173,1.001,0.008,0.198,0.0,0.0,0.0,3.499,-78.755,157.906,-26.773,-12.427,-8.76,24.11,-0.12888,-0.62689,0.09818,-0.76202,695,0.726,-0.024,0.696,0.0,0.488,0.0,-2.082,-46.115,-121.602,-22.5,-9.013,-3.24,22.91,0.44254,-0.34988,-0.17639,-0.80655,691,0.438,0.01,0.891,-0.061,0.183,0.122,0.802,-25.9,160.219,-11.927,-10.313,-31.567,27.06,-0.16559,-0.22198,0.03168,-0.96033,693,0.984,-0.072,0.04,0.0,0.366,-0.061,-58.189,-85.479,-113.665,-31.36,-10.893,1.06,27.01,-0.0752,0.69186,0.02594,0.71756,689
174,1.001,0.011,0.196,-0.061,-0.061,0.0,3.499,-78.755,157.901,-26.773,-12.427,-8.76,24.11,-0.12888,-0.62689,0.09818,-0.76202,702,0.721,-0.025,0.695,0.0,0.305,0.0,-2.082,-46.11,-121.602,-22.5,-9.013,-3.24,22.91,0.44254,-0.34988,-0.17639,-0.80655,700,0.434,0.015,0.896,0.0,0.0,-0.061,0.802,-25.9,160.214,-11.927,-10.313,-31.567,27.06,-0.16559,-0.22198,0.03168,-0.96033,698,0.983,-0.068,0.042,0.061,0.183,0.061,-58.14,-85.474,-113.719,-31.36,-10.893,1.06,27.01,-0.0752,0.69186,0.02594,0.71756,696
175,1.003,0.009,0.198,0.0,-0.244,0.0,3.494,-78.761,157.896,-26.773,-12.427,-8.76,24.11,-0.12888,-0.62689,0.09818,-0.76202,703,0.723,-0.03,0.696,0.366,0.366,0.305,-2.082,-46.104,-121.597,-22.5,-9.013,-3.24,22.91,0.44254,-0.34988,-0.17639,-0.80655,701,0.436,0.01,0.898,0.305,0.0,0.244,0.807,-25.906,160.208,-11.927,-10.313,-31.567,27.06,-0.16559,-0.22198,0.03168,-0.96033,699,0.985,-0.071,0.039,0.122,0.0,0.0,-58.134,-85.474,-113.73,-31.36,-10.893,1.06,27.01,-0.0752,0.69186,0.02594,0.71756,697
176,1.001,0.011,0.197,-0.183,-0.305,0.0,3.488,-78.766,157.885,-26.773,-12.427,-8.76,24.11,-0.12888,-0.62689,0.09818,-0.76202,708,0.719,-0.028,0.703,0.366,0.488,0.305,-2.082,-46.093,-121.586,-22.5,-9.013,-3.24,22.91,0.44254,-0.34988,-0.17639,-0.80655,704,0.43,0.007,0.898,0.244,-0.732,0.488,0.807,-25.917,160.208,-11.927,-10.313,-31.567,27.06,-0.16559,-0.22198,0.03168,-0.96033,706,0.985,-0.074,0.044,-0.244,0.183,0.0,-58.129,-85.468,-113.752,-31.36,-10.893,1.06,27.01,-0.07477,0.69171,0.02539,0.71777,710
177,1.0,0.012,0.197,-0.122,-0.671,0.0,3.483,-78.772,157.879,-26.773,-12.427,-8.76,24.11,-0.12888,-0.62689,0.09818,-0.76202,709,0.717,-0.023,0.702,0.0,0.305,0.366,-2.082,-46.088,-121.575,-22.5,-9.013,-3.24,22.91,0.44254,-0.34988,-0.17639,-0.80655,705,0.428,0.014,0.905,-0.366,-0.366,0.0,0.802,-25.928,160.203,-11.927,-10.313,-31.567,27.06,-0.16559,-0.22198,0.03168,-0.96033,707,0.982,-0.069,0.044,-0.305,0.061,0.0,-58.123,-85.468,-113.774,-31.36,-10.893,1.06,27.01,-0.07477,0.69171,0.02539,0.71777,711
178,1.0,0.014,0.197,-0.061,-0.549,0.0,3.483,-78.783,157.868,-26.773,-12.427,-8.76,24.11,-0.12888,-0.62689,0.09818,-0.76202,714,0.719,-0.021,0.699,0.061,0.122,0.427,-2.093,-46.082,-121.564,-22.5,-9.013,-3.24,22.91,0.44254,-0.34988,-0.17639,-0.80655,712,0.432,0.018,0.901,-0.61,-0.366,0.122,0.786,-25.933,160.197,-11.927,-10.313,-31.567,27.06,-0.16559,-0.22198,0.03168,-0.96033,718,0.981,-0.064,0.043,-0.061,0.061,0.0,-58.123,-85.463,-113.785,-31.36,-10.893,1.06,27.01,-0.07477,0.69171,0.02539,0.71777,716
179,1.001,0.014,0.197,0.122,-0.061,0.0,3.483,-78.794,157.863,-26.773,-12.427,-8.76,24.11,-0.12888,-0.62689,0.09818,-0.76202,715,0.72,-0.026,0.697,0.061,0.0,0.488,-2.098,-46.077,-121.553,-22.5,-9.013,-3.24,22.91,0.44254,-0.34988,-0.17639,-0.80655,713,0.434,0.013,0.896,-0.549,-0.671,0.427,0.775,-25.944,160.203,-11.927,-10.313,-31.567,27.06,-0.16559,-0.22198,0.03168,-0.96033,719,0.982,-0.062,0.042,-0.061,-0.061,0.0,-58.123,-85.463,-113.78,-31.36,-10.893,1.06,27.01,-0.07477,0.69171,0.02539,0.71777,717
180,1.001,0.013,0.198,0.183,0.427,0.0,3.488,-78.794,157.857,-26.773,-12.427,-8.76,24.11,-0.12888,-0.62689,0.09818,-0.76202,720,0.721,-0.028,0.697,0.0,0.061,0.488,-2.109,-46.077,-121.536,-22.827,-8.54,-3.28,22.91,0.44254,-0.34988,-0.17639,-0.80655,726,0.434,0.008,0.895,-0.793,-0.61,0.427,0.753,-25.95,160.203,-11.927,-10.313,-31.567,27.06,-0.16559,-0.22198,0.03168,-0.96033,724,0.982,-0.065,0.042,-0.244,-0.427,0.0,-58.178,-85.463,-113.725,-31.36,-10.893,1.06,27.01,-0.07477,0.69171,0.02539,0.71777,722
181,1.001,0.013,0.197,0.0,0.671,0.0,3.488,-78.783,157.852,-26.773,-12.427,-8.76,24.11,-0.12888,-0.62689,0.09818,-0.76202,721,0.724,-0.03,0.695,-0.305,0.244,0.427,-2.12,-46.071,-121.525,-22.827,-8.54,-3.28,22.91,0.44254,-0.34988,-0.17639,-0.80655,727,0.438,0.005,0.895,-1.038,-0.488,0.244,0.731,-25.961,160.203,-11.927,-10.313,-31.567,27.06,-0.16559,-0.22198,0.03168,-0.96033,725,0.984,-0.07,0.041,-0.183,-0.61,-0.305,-58.266,-85.468,-113.632,-31.36,-10.893,1.06,27.01,-0.07477,0.69171,0.02539,0.71777,723
182,1.0,0.013,0.199,0.305,0.305,0.0,3.488,-78.772,157.852,-26.773,-12.427,-8.76,24.11,-0.12888,-0.62689,0.09818,-0.76202,732,0.725,-0.028,0.692,-0.305,0.244,0.366,-2.137,-46.066,-121.509,-22.827,-8.54,-3.28,22.91,0.44308,-0.3497,-0.17612,-0.8064,730,0.44,0.005,0.893,-1.099,-0.549,0.0,0.709,-25.972,160.197,-11.927,-10.313,-31.567,27.06,-0.16559,-0.22198,0.03168,-0.96033,734,0.986,-0.065,0.04,0.488,-0.549,-0.488,-58.332,-85.479,-113.56,-31.36,-10.893,1.06,27.01,-0.07477,0.69171,0.02539,0.71777,728
183,1.001,0.013,0.2,0.427,0.0,0.0,3.494,-78.766,157.846,-26.773,-12.427,-8.76,24.11,-0.12888,-0.62689,0.09818,-0.76202,733,0.725,-0.027,0.692,0.0,0.427,0.122,-2.148,-46.055,-121.503,-22.827,-8.54,-3.28,22.91,0.44308,-0.3497,-0.17612,-0.8064,731,0.44,0.006,0.892,-0.854,-0.854,0.0,0.692,-25.983,160.192,-11.927,-10.313,-31.567,27.06,-0.16559,-0.22198,0.03168,-0.96033,735,0.985,-0.066,0.042,0.61,-0.427,-0.61,-58.354,-85.496,-113.522,-31.36,-10.893,1.06,27.01,-0.07477,0.69171,0.02539,0.71777,729
184,1.0,0.011,0.199,0.427,-0.122,0.0,3.505,-78.766,157.841,-26.773,-12.427,-8.76,24.11,-0.12888,-0.62689,0.09818,-0.76202,742,0.722,-0.023,0.695,0.0,0.366,0.0,-2.148,-46.049,-121.503,-22.827,-8.54,-3.28,22.91,0.44308,-0.3497,-0.17612,-0.8064,740,0.438,0.012,0.894,-0.671,-0.61,-0.061,0.676,-25.999,160.181,-11.967,-10.4,-32.627,27.06,-0.16559,-0.22198,0.03168,-0.96033,738,0.983,-0.065,0.042,0.793,-0.061,-0.549,-58.31,-85.507,-113.544,-31.36,-10.893,1.06,27.01,-0.07477,0.69171,0.02539,0.71777,736
185,1.001,0.01,0.198,0.305,0.0,0.0,3.516,-78.772,157.835,-26.773,-12.427,-8.76,24.11,-0.12888,-0.62689,0.09818,-0.76202,743,0.721,-0.023,0.697,0.122,0.244,0.122,-2.148,-46.044,-121.498,-22.827,-8.54,-3.28,22.91,0.44308,-0.3497,-0.17612,-0.8064,741,0.437,0.015,0.896,0.0,-0.427,0.122,0.67,-26.005,160.175,-11.967,-10.4,-32.627,27.06,-0.16559,-0.22198,0.03168,-0.96033,739,0.983,-0.065,0.04,0.732,-0.122,-0.488,-58.239,-85.512,-113.593,-31.36,-10.893,1.06,27.01,-0.07477,0.69171,0.02539,0.71777,737
186,1.001,0.011,0.197,0.122,0.122,0.0,3.516,-78.772,157.83,-26.6,-12.707,-9.027,24.11,-0.12888,-0.62689,0.09818,-0.76202,744,0.723,-0.024,0.697,0.183,0.122,0.244,-2.148,-46.038,-121.492,-22.827,-8.54,-3.28,22.91,0.44308,-0.3497,-0.17612,-0.8064,748,0.438,0.012,0.896,0.0,-0.549,0.305,0.67,-26.016,160.175,-11.967,-10.4,-32.627,27.06,-0.16559,-0.22198,0.03168,-0.96033,750,0.984,-0.067,0.038,0.488,-0.305,-0.305,-58.222,-85.523,-113.599,-31.36,-10.893,1.06,27.01,-0.07477,0.69171,0.02539,0.71777,746
187,1.002,0.012,0.198,0.061,0.122,0.0,3.521,-78.766,157.83,-26.6,-12.707,-9.027,24.11,-0.12888,-0.62689,0.09818,-0.76202,745,0.724,-0.025,0.697,0.061,0.0,0.244,-2.148,-46.038,-121.487,-22.827,-8.54,-3.28,22.91,0.44308,-0.3497,-0.17612,-0.8064,749,0.438,0.01,0.896,-0.061,-0.854,0.122,0.665,-26.032,160.17,-11.967,-10.4,-32.627,27.06,-0.16559,-0.22198,0.03168,-0.96033,751,0.985,-0.068,0.038,0.122,-0.305,-0.183,-58.25,-85.529,-113.56,-31.36,-10.893,1.06,27.01,-0.07477,0.69171,0.02539,0.71777,747
188,1.003,0.012,0.196,-0.061,0.122,0.0,3.516,-78.766,157.824,-26.6,-12.707,-9.027,24.11,-0.12888,-0.62689,0.09818,-0.76202,754,0.725,-0.026,0.694,0.061,0.0,0.305,-2.153,-46.038,-121.476,-22.827,-8.54,-3.28,22.91,0.44308,-0.3497,-0.17612,-0.8064,752,0.442,0.011,0.896,0.0,-0.977,0.122,0.665,-26.054,160.17,-11.967,-10.4,-32.627,27.06,-0.16638,-0.22278,0.03314,-0.95993,758,0.986,-0.068,0.04,0.122,-0.183,-0.183,-58.282,-85.534,-113.533,-31.36,-10.893,1.06,27.01,-0.07477,0.69171,0.02539,0.71777,756
189,1.002,0.015,0.197,-0.061,-0.061,0.0,3.516,-78.766,157.819,-26.6,-12.707,-9.027,24.11,-0.12888,-0.62689,0.09818,-0.76202,755,0.726,-0.025,0.694,0.061,0.061,0.366,-2.159,-46.038,-121.47,-22.827,-8.54,-3.28,22.91,0.44308,-0.3497,-0.17612,-0.8064,753,0.443,0.01,0.893,-0.183,-0.916,0.305,0.659,-26.071,160.17,-11.967,-10.4,-32.627,27.06,-0.16638,-0.22278,0.03314,-0.95993,759,0.986,-0.065,0.039,0.305,-0.061,-0.122,-58.293,-85.534,-113.522,-31.36,-10.893,1.06,27.01,-0.07477,0.69171,0.02539,0.71777,757
190,1.001,0.015,0.196,0.122,-0.183,0.0,3.516,-78.766,157.813,-26.6,-12.707,-9.027,24.11,-0.12946,-0.62689,0.09866,-0.76184,766,0.724,-0.025,0.694,0.061,0.122,0.366,-2.164,-46.038,-121.459,-22.827,-8.54,-3.28,22.91,0.44308,-0.3497,-0.17612,-0.8064,760,0.442,0.009,0.893,-0.183,-0.732,0.305,0.654,-26.087,160.17,-11.967,-10.4,-32.627,27.06,-0.16638,-0.22278,0.03314,-0.95993,762,0.985,-0.062,0.04,0.488,-0.061,-0.122,-58.293,-85.54,-113.522,-31.993,-10.6,0.493,27.01,-0.07477,0.69171,0.02539,0.71777,764
191,1.0,0.013,0.194,0.427,-0.244,0.0,3.527,-78.772,157.808,-26.6,-12.707,-9.027,24.11,-0.12946,-0.62689,0.09866,-0.76184,767,0.72,-0.025,0.696,0.183,0.244,0.305,-2.17,-46.033,-121.448,-22.827,-8.54,-3.28,22.91,0.44308,-0.3497,-0.17612,-0.8064,761,0.437,0.009,0.893,-0.427,-0.671,0.122,0.643,-26.104,160.164,-11.967,-10.4,-32.627,27.06,-0.16638,-0.22278,0.03314,-0.95993,763,0.982,-0.062,0.04,0.427,-0.061,-0.244,-58.271,-85.545,-113.538,-31.993,-10.6,0.493,27.01,-0.07477,0.69171,0.02539,0.71777,765
192,1.001,0.01,0.194,0.488,0.061,0.0,3.538,-78.777,157.802,-26.6,-12.707,-9.027,24.11,-0.12946,-0.62689,0.09866,-0.76184,770,0.72,-0.024,0.695,0.183,0.183,0.244,-2.17,-46.027,-121.437,-22.827,-8.54,-3.28,22.91,0.44308,-0.3497,-0.17612,-0.8064,768,0.437,0.012,0.896,-0.183,-0.671,0.0,0.643,-26.115,160.159,-11.967,-10.4,-32.627,27.06,-0.16638,-0.22278,0.03314,-0.95993,774,0.981,-0.064,0.038,0.305,-0.122,-0.305,-58.255,-85.551,-113.549,-31.993,-10.6,0.493,27.01,-0.07474,0.69199,0.02612,0.71747,772
193,1.0,0.012,0.196,0.366,0.183,0.0,3.549,-78.777,157.797,-26.6,-12.707,-9.027,24.11,-0.12946,-0.62689,0.09866,-0.76184,771,0.723,-0.024,0.693,0.0,0.122,0.183,-2.17,-46.027,-121.432,-22.827,-8.54,-3.28,22.91,0.44308,-0.3497,-0.17612,-0.8064,769,0.442,0.01,0.893,0.0,-0.488,0.122,0.637,-26.125,160.153,-11.967,-10.4,-32.627,27.06,-0.16638,-0.22278,0.03314,-0.95993,775,0.982,-0.065,0.038,-0.061,-0.122,-0.183,-58.26,-85.551,-113.549,-31.993,-10.6,0.493,27.01,-0.07474,0.69199,0.02612,0.71747,773
194,1.0,0.015,0.198,0.305,0.366,0.0,3.554,-78.772,157.791,-26.6,-12.707,-9.027,24.11,-0.12946,-0.62689,0.09866,-0.76184,780,0.722,-0.025,0.693,-0.061,0.0,0.061,-2.17,-46.027,-121.432,-22.827,-8.54,-3.28,22.91,0.44308,-0.3497,-0.17612,-0.8064,778,0.441,0.008,0.891,-0.305,-0.488,0.0,0.637,-26.136,160.148,-11.967,-10.4,-32.627,27.06,-0.16638,-0.22278,0.03314,-0.95993,776,0.983,-0.064,0.037,-0.122,-0.183,-0.061,-58.293,-85.556,-113.527,-31.993,-10.6,0.493,27.01,-0.07474,0.69199,0.02612,0.71747,782
195,1.0,0.015,0.201,0.122,0.366,0.0,3.56,-78.766,157.791,-26.6,-12.707,-9.027,24.11,-0.12946,-0.62689,0.09866,-0.76184,781,0.723,-0.025,0.695,0.0,0.061,0.061,-2.17,-46.027,-121.426,-22.827,-8.54,-3.28,22.91,0.44308,-0.3497,-0.17612,-0.8064,779,0.441,0.01,0.891,-0.122,-0.61,0.0,0.632,-26.147,160.142,-11.967,-10.4,-32.627,27.06,-0.16638,-0.22278,0.03314,-0.95993,777,0.985,-0.064,0.041,-0.061,-0.244,0.0,-58.354,-85.562,-113.472,-31.993,-10.6,0.493,27.01,-0.07474,0.69199,0.02612,0.71747,783
196,1.001,0.014,0.201,0.0,0.061,0.0,3.56,-78.761,157.791,-26.6,-12.707,-9.027,24.11,-0.12946,-0.62689,0.09866,-0.76184,786,0.723,-0.027,0.696,0.122,0.244,0.183,-2.17,-46.022,-121.426,-22.733,-8.98,-3.32,22.91,0.44308,-0.3497,-0.17612,-0.8064,784,0.441,0.01,0.892,-0.183,-0.122,0.0,0.626,-26.153,160.137,-11.967,-10.4,-32.627,27.06,-0.16638,-0.22278,0.03314,-0.95993,790,0.986,-0.068,0.043,-0.122,-0.183,-0.061,-58.398,-85.562,-113.434,-31.993,-10.6,0.493,27.01,-0.07474,0.69199,0.02612,0.71747,788
197,1.002,0.012,0.201,-0.061,-0.183,0.0,3.565,-78.761,157.786,-26.6,-12.707,-9.027,24.11,-0.12946,-0.62689,0.09866,-0.76184,787,0.723,-0.027,0.696,0.122,0.427,0.366,-2.175,-46.016,-121.415,-22.733,-8.98,-3.32,22.91,0.44308,-0.3497,-0.17612,-0.8064,785,0.442,0.009,0.893,-0.122,0.0,0.366,0.621,-26.153,160.137,-11.967,-10.4,-32.627,27.06,-0.16638,-0.22278,0.03314,-0.95993,791,0.986,-0.067,0.041,-0.061,0.0,-0.122,-58.398,-85.562,-113.439,-31.993,-10.6,0.493,27.01,-0.07474,0.69199,0.02612,0.71747,789
198,1.002,0.012,0.2,0.122,-0.244,0.0,3.571,-78.766,157.78,-26.6,-12.707,-9.027,24.11,-0.12946,-0.62689,0.09866,-0.76184,792,0.724,-0.024,0.698,0.183,0.549,0.305,-2.175,-46.005,-121.404,-22.733,-8.98,-3.32,22.91,0.44308,-0.3497,-0.17612,-0.8064,794,0.441,0.007,0.894,-0.427,0.183,0.366,0.615,-26.153,160.142,-11.967,-10.4,-32.627,27.06,-0.16638,-0.22278,0.03314,-0.95993,798,0.986,-0.063,0.04,0.0,0.122,-0.061,-58.365,-85.562,-113.467,-31.993,-10.6,0.493,27.01,-0.07474,0.69199,0.02612,0.71747,796
199,1.0,0.012,0.199,0.488,-0.122,0.0,3.576,-78.766,157.775,-26.6,-12.707,-9.027,24.11,-0.12946,-0.62689,0.09866,-0.76184,793,0.727,-0.024,0.692,0.061,0.488,0.183,-2.181,-46.0,-121.399,-22.733,-8.98,-3.32,22.91,0.44308,-0.3497,-0.17612,-0.8064,795,0.446,0.009,0.895,-0.061,0.061,0.061,0.61,-26.153,160.137,-11.967,-10.4,-32.627,27.06,-0.16638,-0.22278,0.03314,-0.95993,799,0.985,-0.061,0.039,0.0,0.122,-0.122,-58.326,-85.562,-113.505,-31.993,-10.6,0.493,27.01,-0.07474,0.69199,0.02612,0.71747,797
200,1.001,0.01,0.196,0.427,0.0,0.0,3.587,-78.772,157.769,-26.6,-12.707,-9.027,24.11,-0.12946,-0.62689,0.09866,-0.76184,800,0.725,-0.032,0.688,-0.061,0.916,0.122,-2.181,-45.983,-121.399,-22.733,-8.98,-3.32,22.91,0.44385,-0.34927,-0.17587,-0.80621,806,0.447,0.003,0.883,0.0,1.099,0.122,0.604,-26.136,160.137,-12.3,-10.2,-32.647,27.06,-0.16638,-0.22278,0.03314,-0.95993,804,0.984,-0.068,0.039,-0.061,0.244,-0.122,-58.266,-85.562,-113.566,-31.993,-10.6,0.493,27.01,-0.07474,0.69199,0.02612,0.71747,802
201,1.002,0.011,0.197,-0.122,-0.427,0.0,3.593,-78.772,157.764,-26.6,-12.707,-9.027,24.11,-0.12946,-0.62689,0.09866,-0.76184,801,0.721,-0.027,0.7,0.061,1.343,0.122,-2.181,-45.961,-121.41,-22.733,-8.98,-3.32,22.91,0.44385,-0.34927,-0.17587,-0.80621,807,0.439,0.004,0.889,-0.732,1.221,0.061,0.593,-26.115,160.131,-12.3,-10.2,-32.647,27.06,-0.16638,-0.22278,0.03314,-0.95993,805,0.985,-0.073,0.038,-0.061,0.488,-0.122,-58.162,-85.562,-113.676,-31.993,-10.6,0.493,27.01,-0.07474,0.69199,0.02612,0.71747,803
202,1.0,0.013,0.194,-0.183,-0.427,0.0,3.593,-78.783,157.758,-26.6,-12.707,-9.027,24.11,-0.12946,-0.62689,0.09866,-0.76184,812,0.715,-0.028,0.701,0.183,1.038,0.244,-2.181,-45.939,-121.432,-22.733,-8.98,-3.32,22.91,0.44385,-0.34927,-0.17587,-0.80621,810,0.431,0.01,0.901,0.305,0.305,-0.183,0.593,-26.109,160.126,-12.3,-10.2,-32.647,27.06,-0.1669,-0.22336,0.03394,-0.95969,814,0.982,-0.067,0.042,-0.183,0.427,0.0,-58.079,-85.556,-113.774,-31.993,-10.6,0.493,27.01,-0.07474,0.69199,0.02612,0.71747,808
203,1.001,0.011,0.193,0.0,-0.366,0.0,3.593,-78.788,157.747,-26.6,-12.707,-9.027,24.11,-0.12946,-0.62689,0.09866,-0.76184,813,0.714,-0.031,0.7,0.671,0.732,0.366,-2.181,-45.923,-121.443,-22.733,-8.98,-3.32,22.91,0.44385,-0.34927,-0.17587,-0.80621,811,0.431,0.008,0.901,0.671,0.0,0.305,0.604,-26.109,160.131,-12.3,-10.2,-32.647,27.06,-0.1669,-0.22336,0.03394,-0.95969,815,0.98,-0.065,0.037,-0.183,0.061,0.0,-58.063,-85.556,-113.807,-31.993,-10.6,0.493,27.01,-0.07474,0.69199,0.02612,0.71747,809
204,1.0,0.01,0.192,-0.122,0.061,0.0,3.593,-78.794,157.742,-26.66,-12.847,-9.12,24.11,-0.12946,-0.62689,0.09866,-0.76184,824,0.718,-0.026,0.7,0.671,0.488,0.366,-2.175,-45.912,-121.437,-22.733,-8.98,-3.32,22.91,0.44385,-0.34927,-0.17587,-0.80621,820,0.437,0.007,0.897,0.488,-0.488,0.61,0.61,-26.12,160.159,-12.3,-10.2,-32.647,27.06,-0.1669,-0.22336,0.03394,-0.95969,818,0.981,-0.069,0.038,-0.671,0.0,-0.122,-58.074,-85.556,-113.818,-31.993,-10.6,0.493,27.01,-0.07474,0.69199,0.02612,0.71747,816
205,1.001,0.011,0.191,-0.122,0.122,0.0,3.587,-78.794,157.742,-26.66,-12.847,-9.12,24.11,-0.12946,-0.62689,0.09866,-0.76184,825,0.722,-0.024,0.694,0.366,0.0,0.366,-2.175,-45.912,-121.432,-22.733,-8.98,-3.32,22.91,0.44385,-0.34927,-0.17587,-0.80621,821,0.441,0.011,0.896,0.305,0.0,0.366,0.61,-26.12,160.192,-12.3,-10.2,-32.647,27.06,-0.1669,-0.22336,0.03394,-0.95969,819,0.982,-0.066,0.036,-0.427,-0.122,-0.061,-58.112,-85.556,-113.807,-31.993,-10.6,0.493,27.01,-0.07474,0.69199,0.02612,0.71747,817
206,1.001,0.013,0.194,-0.183,0.061,0.0,3.582,-78.794,157.736,-26.66,-12.847,-9.12,24.11,-0.12964,-0.62708,0.09875,-0.76163,830,0.725,-0.027,0.692,0.366,-0.061,0.427,-2.175,-45.912,-121.421,-22.733,-8.98,-3.32,22.91,0.44385,-0.34927,-0.17587,-0.80621,822,0.444,0.008,0.891,0.061,0.244,0.549,0.604,-26.115,160.214,-12.3,-10.2,-32.647,27.06,-0.1669,-0.22336,0.03394,-0.95969,828,0.983,-0.065,0.035,-0.183,-0.305,0.0,-58.195,-85.556,-113.752,-31.993,-10.6,0.493,27.01,-0.07474,0.69199,0.02612,0.71747,826
207,1.001,0.014,0.197,-0.183,0.427,0.0,3.576,-78.788,157.736,-26.66,-12.847,-9.12,24.11,-0.12964,-0.62708,0.09875,-0.76163,831,0.724,-0.028,0.693,0.183,-0.061,0.427,-2.181,-45.912,-121.415,-22.733,-8.98,-3.32,22.91,0.44385,-0.34927,-0.17587,-0.80621,823,0.443,0.005,0.891,-0.122,0.183,0.488,0.599,-26.115,160.236,-12.3,-10.2,-32.647,27.06,-0.1669,-0.22336,0.03394,-0.95969,829,0.985,-0.067,0.036,0.0,-0.366,0.0,-58.299,-85.562,-113.67,-31.993,-10.6,0.493,27.01,-0.07474,0.69199,0.02612,0.71747,827
208,1.0,0.013,0.201,-0.122,0.305,0.0,3.571,-78.783,157.731,-26.66,-12.847,-9.12,24.11,-0.12964,-0.62708,0.09875,-0.76163,838,0.721,-0.027,0.698,0.122,0.0,0.427,-2.186,-45.917,-121.415,-22.733,-8.98,-3.32,22.91,0.44385,-0.34927,-0.17587,-0.80621,832,0.438,0.006,0.894,-0.183,0.61,0.366,0.593,-26.104,160.269,-12.3,-10.2,-32.647,27.06,-0.1669,-0.22336,0.03394,-0.95969,834,0.987,-0.067,0.039,0.427,-0.183,-0.183,-58.348,-85.567,-113.637,-31.727,-10.74,1.02,27.01,-0.07474,0.69199,0.02612,0.71747,836
209,0.999,0.012,0.202,-0.366,0.0,0.0,3.565,-78.783,157.731,-26.66,-12.847,-9.12,24.11,-0.12964,-0.62708,0.09875,-0.76163,839,0.719,-0.027,0.699,0.183,0.061,0.366,-2.192,-45.912,-121.415,-22.733,-8.98,-3.32,22.91,0.44385,-0.34927,-0.17587,-0.80621,833,0.437,0.006,0.896,0.061,0.488,0.244,0.588,-26.098,160.291,-12.3,-10.2,-32.647,27.06,-0.1669,-0.22336,0.03394,-0.95969,835,0.986,-0.066,0.043,0.183,-0.122,-0.244,-58.359,-85.573,-113.643,-31.727,-10.74,1.02,27.01,-0.07474,0.69199,0.02612,0.71747,837
210,1.0,0.012,0.203,-0.427,-0.305,0.0,3.56,-78.788,157.725,-26.66,-12.847,-9.12,24.11,-0.12964,-0.62708,0.09875,-0.76163,844,0.718,-0.026,0.698,0.305,0.0,0.183,-2.192,-45.917,-121.426,-22.733,-8.98,-3.32,22.91,0.44385,-0.34927,-0.17587,-0.80621,840,0.436,0.007,0.896,0.427,1.038,0.183,0.593,-26.076,160.296,-12.3,-10.2,-32.647,27.06,-0.1669,-0.22336,0.03394,-0.95969,846,0.984,-0.064,0.043,-0.061,-0.122,-0.183,-58.376,-85.573,-113.637,-31.727,-10.74,1.02,27.01,-0.0733,0.69217,0.02496,0.7175,842
211,1.0,0.014,0.201,-0.366,-0.305,0.0,3.554,-78.794,157.72,-26.66,-12.847,-9.12,24.11,-0.12964,-0.62708,0.09875,-0.76163,845,0.72,-0.024,0.698,0.305,0.122,0.061,-2.186,-45.912,-121.437,-22.733,-8.98,-3.32,22.91,0.44385,-0.34927,-0.17587,-0.80621,841,0.438,0.009,0.893,0.427,1.16,0.122,0.599,-26.06,160.296,-12.3,-10.2,-32.647,27.06,-0.1669,-0.22336,0.03394,-0.95969,847,0.983,-0.064,0.044,-0.122,0.0,-0.061,-58.37,-85.573,-113.648,-31.727,-10.74,1.02,27.01,-0.0733,0.69217,0.02496,0.7175,843
212,1.001,0.015,0.2,-0.305,-0.183,0.0,3.549,-78.794,157.714,-26.66,-12.847,-9.12,24.11,-0.12964,-0.62708,0.09875,-0.76163,848,0.719,-0.023,0.697,0.122,0.122,0.061,-2.186,-45.912,-121.454,-22.733,-8.98,-3.32,22.91,0.44385,-0.34927,-0.17587,-0.80621,850,0.437,0.011,0.893,0.244,1.221,0.0,0.599,-26.032,160.291,-12.3,-10.2,-32.647,27.06,-0.1669,-0.22336,0.03394,-0.95969,852,0.983,-0.063,0.044,0.0,0.183,0.0,-58.326,-85.573,-113.687,-31.727,-10.74,1.02,27.01,-0.0733,0.69217,0.02496,0.7175,854
213,1.002,0.013,0.199,-0.122,-0.305,0.0,3.549,-78.799,157.709,-26.66,-12.847,-9.12,24.11,-0.12964,-0.62708,0.09875,-0.76163,849,0.72,-0.026,0.699,0.183,0.244,0.061,-2.181,-45.906,-121.454,-22.733,-8.98,-3.32,22.91,0.44385,-0.34927,-0.17587,-0.80621,851,0.436,0.009,0.895,0.183,1.038,0.0,0.604,-26.016,160.274,-12.3,-10.2,-32.647,27.06,-0.1669,-0.22336,0.03394,-0.95969,853,0.984,-0.063,0.042,0.183,0.305,0.0,-58.25,-85.567,-113.752,-31.727,-10.74,1.02,27.01,-0.0733,0.69217,0.02496,0.7175,855
214,1.001,0.014,0.195,-0.061,-0.183,0.0,3.554,-78.805,157.703,-26.66,-12.847,-9.12,24.11,-0.12964,-0.62708,0.09875,-0.76163,862,0.718,-0.025,0.7,0.183,0.305,0.0,-2.175,-45.901,-121.459,-22.233,-8.493,-2.58,22.91,0.44385,-0.34927,-0.17587,-0.80621,856,0.435,0.008,0.896,0.122,1.038,-0.061,0.604,-25.994,160.263,-12.3,-10.2,-32.647,27.06,-0.1669,-0.22336,0.03394,-0.95969,860,0.984,-0.062,0.04,-0.061,0.427,0.0,-58.145,-85.562,-113.84,-31.727,-10.74,1.02,27.01,-0.0733,0.69217,0.02496,0.7175,858
215,1.001,0.014,0.194,0.0,0.0,0.0,3.554,-78.805,157.698,-26.66,-12.847,-9.12,24.11,-0.12964,-0.62708,0.09875,-0.76163,863,0.717,-0.024,0.7,0.0,0.122,-0.183,-2.17,-45.895,-121.465,-22.233,-8.493,-2.58,22.91,0.44385,-0.34927,-0.17587,-0.80621,857,0.433,0.009,0.898,0.183,0.916,-0.366,0.61,-25.977,160.263,-12.3,-10.2,-32.647,27.06,-0.1669,-0.22336,0.03394,-0.95969,861,0.983,-0.061,0.04,-0.366,0.305,0.0,-58.079,-85.562,-113.906,-31.727,-10.74,1.02,27.01,-0.0733,0.69217,0.02496,0.7175,859
216,1.0,0.013,0.193,0.0,0.0,0.0,3.56,-78.805,157.698,-26.66,-12.847,-9.12,24.11,-0.12964,-0.62708,0.09875,-0.76163,864,0.719,-0.023,0.7,-0.061,0.061,-0.305,-2.164,-45.895,-121.47,-22.233,-8.493,-2.58,22.91,0.44385,-0.34927,-0.17587,-0.80621,866,0.434,0.011,0.898,0.183,0.793,-0.61,0.621,-25.961,160.258,-11.94,-10.247,-32.573,27.06,-0.1669,-0.22336,0.03394,-0.95969,870,0.982,-0.062,0.04,-0.366,0.122,0.061,-58.057,-85.556,-113.923,-31.727,-10.74,1.02,27.01,-0.0733,0.69217,0.02496,0.7175,868
217,1.002,0.012,0.193,0.0,0.061,0.0,3.565,-78.805,157.692,-26.66,-12.847,-9.12,24.11,-0.12964,-0.62708,0.09875,-0.76163,865,0.72,-0.024,0.699,-0.061,0.0,-0.305,-2.159,-45.895,-121.487,-22.233,-8.493,-2.58,22.91,0.44385,-0.34927,-0.17587,-0.80621,867,0.437,0.011,0.896,0.305,0.793,-0.549,0.632,-25.944,160.236,-11.94,-10.247,-32.573,27.06,-0.1669,-0.22336,0.03394,-0.95969,871,0.982,-0.063,0.039,-0.671,-0.061,0.061,-58.085,-85.556,-113.901,-31.727,-10.74,1.02,27.01,-0.0733,0.69217,0.02496,0.7175,869
218,1.002,0.012,0.194,0.0,0.366,0.0,3.565,-78.799,157.692,-26.66,-12.847,-9.12,24.11,-0.12964,-0.62708,0.09875,-0.76163,872,0.721,-0.025,0.698,-0.183,-0.061,-0.305,-2.153,-45.895,-121.525,-22.233,-8.493,-2.58,22.91,0.44354,-0.34857,-0.17535,-0.80679,878,0.437,0.009,0.896,0.183,0.61,-0.61,0.637,-25.933,160.219,-11.94,-10.247,-32.573,27.06,-0.16605,-0.22198,0.03314,-0.96017,876,0.984,-0.064,0.038,-0.732,-0.244,0.0,-58.151,-85.562,-113.846,-31.727,-10.74,1.02,27.01,-0.0733,0.69217,0.02496,0.7175,874
219,1.002,0.011,0.197,0.0,0.427,0.0,3.571,-78.794,157.687,-26.66,-12.847,-9.12,24.11,-0.12964,-0.62708,0.09875,-0.76163,873,0.721,-0.025,0.698,-0.183,-0.244,-0.366,-2.153,-45.901,-121.553,-22.233,-8.493,-2.58,22.91,0.44354,-0.34857,-0.17535,-0.80679,879,0.436,0.009,0.897,-0.061,0.122,-0.671,0.648,-25.928,160.192,-11.94,-10.247,-32.573,27.06,-0.16605,-0.22198,0.03314,-0.96017,877,0.986,-0.065,0.037,-0.793,-0.305,0.0,-58.233,-85.567,-113.774,-31.727,-10.74,1.02,27.01,-0.0733,0.69217,0.02496,0.7175,875
220,1.003,0.011,0.196,0.122,0.305,0.0,3.571,-78.788,157.687,-26.66,-12.847,-9.12,24.11,-0.12964,-0.62708,0.09875,-0.76163,884,0.724,-0.026,0.698,-0.488,-0.305,-0.366,-2.153,-45.906,-121.586,-22.233,-8.493,-2.58,22.91,0.44354,-0.34857,-0.17535,-0.80679,882,0.438,0.008,0.898,-0.305,0.122,-0.732,0.648,-25.922,160.175,-11.94,-10.247,-32.573,27.06,-0.16605,-0.22198,0.03314,-0.96017,886,0.986,-0.066,0.038,-0.793,-0.244,0.0,-58.31,-85.567,-113.719,-31.727,-10.74,1.02,27.01,-0.0733,0.69217,0.02496,0.7175,880
221,1.002,0.012,0.199,0.061,0.122,0.0,3.571,-78.788,157.687,-26.66,-12.847,-9.12,24.11,-0.12964,-0.62708,0.09875,-0.76163,885,0.724,-0.027,0.699,-0.488,-0.427,-0.427,-2.153,-45.912,-121.613,-22.233,-8.493,-2.58,22.91,0.44354,-0.34857,-0.17535,-0.80679,883,0.44,0.008,0.899,-0.549,0.122,-0.854,0.643,-25.922,160.159,-11.94,-10.247,-32.573,27.06,-0.16605,-0.22198,0.03314,-0.96017,887,0.987,-0.066,0.039,-0.793,-0.183,0.0,-58.37,-85.573,-113.681,-31.727,-10.74,1.02,27.01,-0.0733,0.69217,0.02496,0.7175,881
222,1.002,0.012,0.198,0.0,0.061,0.0,3.571,-78.783,157.681,-26.993,-12.613,-9.507,24.11,-0.12964,-0.62708,0.09875,-0.76163,896,0.724,-0.028,0.698,-0.244,-0.427,-0.366,-2.148,-45.923,-121.635,-22.233,-8.493,-2.58,22.91,0.44354,-0.34857,-0.17535,-0.80679,892,0.439,0.009,0.896,-0.183,0.061,-0.61,0.643,-25.922,160.137,-11.94,-10.247,-32.573,27.06,-0.16605,-0.22198,0.03314,-0.96017,890,0.987,-0.066,0.039,-0.732,-0.061,0.0,-58.403,-85.573,-113.665,-31.727,-10.74,1.02,27.01,-0.0733,0.69217,0.02496,0.7175,888
223,1.0,0.011,0.199,0.0,-0.183,0.0,3.571,-78.788,157.681,-26.993,-12.613,-9.507,24.11,-0.12964,-0.62708,0.09875,-0.76163,897,0.72,-0.025,0.696,0.0,-0.366,-0.122,-2.148,-45.928,-121.646,-22.233,-8.493,-2.58,22.91,0.44354,-0.34857,-0.17535,-0.80679,893,0.436,0.011,0.895,0.427,0.244,-0.183,0.654,-25.917,160.098,-11.94,-10.247,-32.573,27.06,-0.16605,-0.22198,0.03314,-0.96017,891,0.985,-0.067,0.039,-0.671,0.0,0.0,-58.431,-85.573,-113.665,-31.727,-10.74,1.02,27.01,-0.0733,0.69217,0.02496,0.7175,889
224,1.0,0.011,0.197,-0.061,-0.122,0.0,3.571,-78.788,157.676,-26.993,-12.613,-9.507,24.11,-0.13007,-0.62701,0.09915,-0.76157,902,0.72,-0.025,0.696,0.122,-0.244,0.0,-2.148,-45.934,-121.652,-22.233,-8.493,-2.58,22.91,0.44354,-0.34857,-0.17535,-0.80679,894,0.436,0.011,0.894,0.793,0.488,0.0,0.665,-25.911,160.087,-11.94,-10.247,-32.573,27.06,-0.16605,-0.22198,0.03314,-0.96017,900,0.983,-0.069,0.039,-0.366,0.061,0.0,-58.436,-85.573,-113.676,-31.727,-10.74,1.02,27.01,-0.0733,0.69217,0.02496,0.7175,898
225,1.002,0.011,0.198,-0.061,0.0,0.0,3.571,-78.794,157.67,-26.993,-12.613,-9.507,24.11,-0.13007,-0.62701,0.09915,-0.76157,903,0.719,-0.027,0.693,0.061,-0.122,0.0,-2.142,-45.934,-121.668,-22.233,-8.493,-2.58,22.91,0.44354,-0.34857,-0.17535,-0.80679,895,0.436,0.008,0.892,0.732,0.793,0.061,0.681,-25.895,160.082,-11.94,-10.247,-32.573,27.06,-0.16605,-0.22198,0.03314,-0.96017,901,0.982,-0.069,0.041,-0.061,0.183,0.0,-58.409,-85.567,-113.714,-31.727,-10.74,1.02,27.01,-0.0733,0.69217,0.02496,0.7175,899
226,1.0,0.012,0.198,0.061,0.061,0.0,3.565,-78.794,157.67,-26.993,-12.613,-9.507,24.11,-0.13007,-0.62701,0.09915,-0.76157,908,0.72,-0.026,0.698,0.244,-0.122,0.0,-2.142,-45.939,-121.679,-22.233,-8.493,-2.58,22.91,0.44354,-0.34857,-0.17535,-0.80679,904,0.434,0.009,0.894,0.427,0.671,0.0,0.687,-25.884,160.098,-11.94,-10.247,-32.573,27.06,-0.16605,-0.22198,0.03314,-0.96017,906,0.983,-0.067,0.04,0.183,0.305,0.0,-58.348,-85.562,-113.78,-31.56,-11.167,0.573,27.01,-0.0733,0.69217,0.02496,0.7175,910
227,1.001,0.012,0.196,0.305,0.244,0.0,3.571,-78.788,157.665,-26.993,-12.613,-9.507,24.11,-0.13007,-0.62701,0.09915,-0.76157,909,0.723,-0.026,0.695,0.0,-0.122,0.0,-2.142,-45.939,-121.69,-22.233,-8.493,-2.58,22.91,0.44354,-0.34857,-0.17535,-0.80679,905,0.437,0.01,0.896,0.854,0.61,0.061,0.703,-25.873,160.109,-11.94,-10.247,-32.573,27.06,-0.16605,-0.22198,0.03314,-0.96017,907,0.985,-0.065,0.038,0.244,0.305,0.0,-58.271,-85.556,-113.862,-31.56,-11.167,0.573,27.01,-0.0733,0.69217,0.02496,0.7175,911
228,1.003,0.01,0.197,0.183,0.488,0.0,3.571,-78.783,157.665,-26.993,-12.613,-9.507,24.11,-0.13007,-0.62701,0.09915,-0.76157,914,0.722,-0.028,0.693,0.0,-0.122,-0.061,-2.142,-45.945,-121.707,-22.233,-8.493,-2.58,22.91,0.44354,-0.34857,-0.17535,-0.80679,912,0.437,0.006,0.892,0.366,0.977,0.122,0.709,-25.856,160.126,-11.94,-10.247,-32.573,27.06,-0.16605,-0.22198,0.03314,-0.96017,918,0.987,-0.069,0.038,0.0,0.244,0.0,-58.217,-85.556,-113.928,-31.56,-11.167,0.573,27.01,-0.0726,0.69208,0.02414,0.71768,916
229,1.001,0.011,0.197,0.0,0.244,0.0,3.565,-78.777,157.665,-26.993,-12.613,-9.507,24.11,-0.13007,-0.62701,0.09915,-0.76157,915,0.722,-0.023,0.704,0.0,0.061,0.0,-2.142,-45.945,-121.718,-22.233,-8.493,-2.58,22.91,0.44354,-0.34857,-0.17535,-0.80679,913,0.433,0.012,0.901,-0.122,0.122,0.0,0.703,-25.856,160.12,-11.94,-10.247,-32.573,27.06,-0.16605,-0.22198,0.03314,-0.96017,919,0.985,-0.067,0.043,-0.061,0.061,0.0,-58.189,-85.551,-113.967,-31.56,-11.167,0.573,27.01,-0.0726,0.69208,0.02414,0.71768,917
230,1.001,0.011,0.197,0.061,0.122,0.0,3.565,-78.772,157.665,-26.993,-12.613,-9.507,24.11,-0.13007,-0.62701,0.09915,-0.76157,922,0.72,-0.023,0.701,-0.122,-0.122,0.244,-2.148,-45.945,-121.712,-22.233,-8.493,-2.58,22.91,0.44354,-0.34857,-0.17535,-0.80679,920,0.431,0.017,0.903,0.366,0.793,-0.122,0.714,-25.84,160.098,-11.767,-10.187,-33.22,27.06,-0.16605,-0.22198,0.03314,-0.96017,926,0.984,-0.07,0.039,0.244,0.0,0.0,-58.189,-85.551,-113.978,-31.56,-11.167,0.573,27.01,-0.0726,0.69208,0.02414,0.71768,924
231,1.001,0.011,0.197,-0.061,-0.122,0.0,3.56,-78.772,157.659,-26.993,-12.613,-9.507,24.11,-0.13007,-0.62701,0.09915,-0.76157,923,0.72,-0.028,0.7,0.122,0.0,0.488,-2.153,-45.945,-121.69,-22.233,-8.493,-2.58,22.91,0.44354,-0.34857,-0.17535,-0.80679,921,0.434,0.012,0.9,0.366,0.427,0.366,0.714,-25.834,160.082,-11.767,-10.187,-33.22,27.06,-0.16605,-0.22198,0.03314,-0.96017,927,0.984,-0.072,0.041,0.183,0.0,0.0,-58.2,-85.551,-113.978,-31.56,-11.167,0.573,27.01,-0.0726,0.69208,0.02414,0.71768,925
232,1.001,0.013,0.196,-0.244,-0.122,0.0,3.554,-78.777,157.659,-26.993,-12.613,-9.507,24.11,-0.13007,-0.62701,0.09915,-0.76157,932,0.719,-0.029,0.701,0.183,0.0,0.549,-2.164,-45.939,-121.668,-22.62,-8.447,-2.56,22.91,0.44354,-0.34857,-0.17535,-0.80679,934,0.431,0.006,0.897,0.305,-0.305,0.61,0.714,-25.84,160.104,-11.767,-10.187,-33.22,27.06,-0.16693,-0.22128,0.03259,-0.96021,930,0.983,-0.067,0.04,0.183,0.0,0.0,-58.211,-85.545,-113.972,-31.56,-11.167,0.573,27.01,-0.0726,0.69208,0.02414,0.71768,928
233,1.0,0.015,0.197,-0.183,-0.366,0.0,3.554,-78.783,157.654,-26.993,-12.613,-9.507,24.11,-0.13007,-0.62701,0.09915,-0.76157,933,0.719,-0.027,0.698,0.183,-0.366,0.488,-2.17,-45.95,-121.652,-22.62,-8.447,-2.56,22.91,0.44354,-0.34857,-0.17535,-0.80679,935,0.432,0.01,0.902,0.0,-0.183,0.366,0.714,-25.84,160.109,-11.767,-10.187,-33.22,27.06,-0.16693,-0.22128,0.03259,-0.96021,931,0.982,-0.062,0.041,0.122,0.0,0.0,-58.222,-85.545,-113.972,-31.56,-11.167,0.573,27.01,-0.0726,0.69208,0.02414,0.71768,929
234,1.001,0.015,0.196,-0.122,-0.366,0.0,3.554,-78.788,157.648,-26.993,-12.613,-9.507,24.11,-0.13007,-0.62701,0.09915,-0.76157,936,0.721,-0.025,0.696,0.366,-0.549,0.427,-2.17,-45.956,-121.641,-22.62,-8.447,-2.56,22.91,0.44226,-0.3493,-0.17505,-0.80725,942,0.436,0.012,0.897,0.061,-0.488,0.549,0.709,-25.851,160.115,-11.767,-10.187,-33.22,27.06,-0.16693,-0.22128,0.03259,-0.96021,938,0.983,-0.062,0.04,0.061,0.0,0.0,-58.233,-85.545,-113.972,-31.56,-11.167,0.573,27.01,-0.0726,0.69208,0.02414,0.71768,940
235,1.002,0.013,0.196,-0.061,-0.061,0.0,3.554,-78.794,157.643,-26.993,-12.613,-9.507,24.11,-0.13007,-0.62701,0.09915,-0.76157,937,0.721,-0.028,0.694,0.366,-0.549,0.244,-2.17,-45.967,-121.646,-22.62,-8.447,-2.56,22.91,0.44226,-0.3493,-0.17505,-0.80725,943,0.436,0.006,0.893,0.305,-0.427,0.488,0.709,-25.862,160.126,-11.767,-10.187,-33.22,27.06,-0.16693,-0.22128,0.03259,-0.96021,939,0.983,-0.063,0.04,-0.366,-0.061,0.0,-58.244,-85.545,-113.967,-31.56,-11.167,0.573,27.01,-0.0726,0.69208,0.02414,0.71768,941
236,1.0,0.012,0.197,0.0,0.488,0.0,3.554,-78.788,157.643,-26.993,-12.613,-9.507,24.11,-0.13007,-0.62701,0.09915,-0.76157,950,0.719,-0.027,0.696,0.244,-0.488,0.0,-2.164,-45.978,-121.668,-22.62,-8.447,-2.56,22.91,0.44226,-0.3493,-0.17505,-0.80725,948,0.431,0.005,0.895,0.122,-0.305,0.122,0.709,-25.867,160.131,-11.767,-10.187,-33.22,27.06,-0.16693,-0.22128,0.03259,-0.96021,946,0.982,-0.066,0.041,-0.244,-0.183,0.0,-58.271,-85.545,-113.945,-31.56,-11.167,0.573,27.01,-0.0726,0.69208,0.02414,0.71768,944
