Time,Device name,Chip Time(),Acceleration X(g),Acceleration Y(g),Acceleration Z(g),Angular velocity X(°/s),Angular velocity Y(°/s),Angular velocity Z(°/s),Angle X(°),Angle Y(°),Angle Z(°),Magnetic field X(ʯt),Magnetic field Y(ʯt),Magnetic field Z(ʯt),Temperature(℃),Quaternions 0(),Quaternions 1(),Quaternions 2(),Quaternions 3()
 15:01:23.092,e3:ca:2d:fd:e0:8c, 2015-01-01 01:23:54.810, 0.967, 0.059, -0.327, 2.319, -2.441, 0.061, 169.151, -71.999, -24.005, -24.520, -10.133, 0.753, 29.66, 0.19647, 0.776, -0.22137, 0.55688,
 15:01:23.092,e3:ca:2d:fd:e0:8c, 2015-01-01 01:23:54.810, 0.966, 0.062, -0.333, 2.014, -2.502, 0, 169.228, -71.949, -24.115, -24.520, -10.133, 0.753, 29.66, 0.19647, 0.776, -0.22137, 0.55688,
 15:01:23.096,ed:35:33:d3:6c:f8, 2015-01-01 01:23:53.765, 0.917, 0.086, 0.411, 8.118, 0.488, 1.587, 9.454, -63.325, 142.586, -21.960, -12.427, -18.140, 32.49, -0.23605, -0.51321, 0.09781, -0.81927,
 15:01:23.096,ed:35:33:d3:6c:f8, 2015-01-01 01:23:53.765, 0.906, 0.083, 0.4, 6.714, 0.366, 0.549, 9.58, -63.331, 142.542, -21.960, -12.427, -18.140, 32.49, -0.23605, -0.51321, 0.09781, -0.81927,
 15:01:23.099,f6:90:cc:01:6d:25, 2015-01-01 01:23:52.590, 0.934, 0.084, -0.322, -2.38, -2.869, -0.427, 164.493, -71.862, 14.436, -28.240, -12.853, 7.847, 32.33, 0.02948, 0.80338, 0.02853, 0.59396,
 15:01:23.099,f6:90:cc:01:6d:25, 2015-01-01 01:23:52.590, 0.932, 0.085, -0.319, -1.648, -2.197, -0.427, 164.471, -71.801, 14.354, -28.240, -12.853, 7.847, 32.33, 0.02948, 0.80338, 0.02853, 0.59396,
 15:01:23.119,ed:40:fe:65:30:6c, 2015-01-01 01:24:05.605, 0.981, 0.109, 0.226, 7.751, -5.432, -0.793, 20.11, -73.658, -140.51, -26.300, -13.527, 8.600, 28.18, -0.36481, 0.50793, 0.32977, 0.70715,
 15:01:23.119,ed:40:fe:65:30:6c, 2015-01-01 01:24:05.605, 0.978, 0.097, 0.227, 6.897, -2.38, -1.404, 20.396, -73.702, -140.729, -26.300, -13.527, 8.600, 28.18, -0.36481, 0.50793, 0.32977, 0.70715,
 15:01:23.128,f6:90:cc:01:6d:25, 2015-01-01 01:23:52.590, 0.932, 0.091, -0.33, 0, -0.793, -0.366, 164.454, -71.757, 14.282, -28.240, -12.853, 7.847, 32.33, 0.02948, 0.80338, 0.02853, 0.59396,
 15:01:23.128,f6:90:cc:01:6d:25, 2015-01-01 01:23:52.590, 0.934, 0.092, -0.335, 0.488, 0.122, -0.366, 164.449, -71.735, 14.211, -28.240, -12.853, 7.847, 32.33, 0.02948, 0.80338, 0.02853, 0.59396,
 15:01:23.150,ed:40:fe:65:30:6c, 2015-01-01 01:24:05.960, 0.988, 0.113, 0.227, 2.014, -1.77, -1.587, 20.588, -73.74, -140.955, -26.300, -13.527, 8.600, 28.18, -0.36481, 0.50793, 0.32977, 0.70715,
 15:01:23.150,ed:40:fe:65:30:6c, 2015-01-01 01:24:05.960, 0.983, 0.116, 0.228, 0.122, 1.038, -1.587, 20.687, -73.724, -141.108, -26.300, -13.527, 8.600, 28.18, -0.36481, 0.50793, 0.32977, 0.70715,
 15:01:23.152,e3:ca:2d:fd:e0:8c, 2015-01-01 01:23:54.810, 0.966, 0.063, -0.337, 1.953, -0.916, 0, 169.288, -71.9, -24.225, -24.520, -10.133, 0.753, 29.66, 0.19647, 0.776, -0.22137, 0.55688,
 15:01:23.152,e3:ca:2d:fd:e0:8c, 2015-01-01 01:23:54.810, 0.966, 0.061, -0.337, 2.686, 0, 0.061, 169.338, -71.884, -24.313, -24.520, -10.133, 0.753, 29.66, 0.19647, 0.776, -0.22137, 0.55688,
 15:01:23.156,ed:35:33:d3:6c:f8, 2015-01-01 01:23:53.765, 0.917, 0.086, 0.408, 4.333, 0, -0.549, 9.701, -63.342, 142.454, -21.960, -12.427, -18.140, 32.49, -0.23077, -0.51822, 0.10062, -0.81729,
 15:01:23.156,ed:35:33:d3:6c:f8, 2015-01-01 01:23:53.765, 0.917, 0.096, 0.401, 3.967, 0.061, -2.686, 9.904, -63.347, 142.273, -21.960, -12.427, -18.140, 32.49, -0.23077, -0.51822, 0.10062, -0.81729,
 15:01:23.179,ed:40:fe:65:30:6c, 2015-01-01 01:24:05.960, 0.976, 0.111, 0.232, -0.549, 2.502, -1.038, 20.709, -73.685, -141.196, -26.300, -13.527, 8.600, 28.18, -0.36481, 0.50793, 0.32977, 0.70715,
 15:01:23.179,ed:40:fe:65:30:6c, 2015-01-01 01:24:05.960, 0.975, 0.109, 0.237, -2.808, 3.906, -0.305, 20.605, -73.625, -141.207, -26.300, -13.527, 8.600, 28.18, -0.36481, 0.50793, 0.32977, 0.70715,
 15:01:23.183,e3:ca:2d:fd:e0:8c, 2015-01-01 01:23:55.230, 0.965, 0.058, -0.344, 3.174, 0.305, 0.061, 169.398, -71.878, -24.401, -24.520, -10.133, 0.753, 29.66, 0.19647, 0.776, -0.22137, 0.55688,
 15:01:23.183,e3:ca:2d:fd:e0:8c, 2015-01-01 01:23:55.230, 0.966, 0.057, -0.325, 1.587, -0.122, 0.061, 169.453, -71.867, -24.489, -24.520, -10.133, 0.753, 29.66, 0.19647, 0.776, -0.22137, 0.55688,
 15:01:23.185,ed:35:33:d3:6c:f8, 2015-01-01 01:23:54.120, 0.906, 0.101, 0.406, 3.906, 1.343, -3.906, 10.14, -63.325, 142.037, -21.960, -12.427, -18.140, 32.49, -0.23077, -0.51822, 0.10062, -0.81729,
 15:01:23.185,ed:35:33:d3:6c:f8, 2015-01-01 01:23:54.120, 0.905, 0.102, 0.414, 1.892, 1.343, -4.089, 10.349, -63.303, 141.757, -21.960, -12.427, -18.140, 32.49, -0.23077, -0.51822, 0.10062, -0.81729,
 15:01:23.190,f6:90:cc:01:6d:25, 2015-01-01 01:23:52.590, 0.934, 0.089, -0.331, 0.549, 0.366, -0.244, 164.443, -71.724, 14.139, -28.240, -12.853, 7.847, 32.33, 0.02948, 0.80338, 0.02853, 0.59396,
 15:01:23.190,f6:90:cc:01:6d:25, 2015-01-01 01:23:52.590, 0.932, 0.088, -0.328, 0.488, 0.122, -0.244, 164.443, -71.713, 14.041, -28.240, -12.853, 7.847, 32.33, 0.02948, 0.80338, 0.02853, 0.59396,
 15:01:23.212,e3:ca:2d:fd:e0:8c, 2015-01-01 01:23:55.230, 0.966, 0.06, -0.326, 0.427, -0.305, 0.183, 169.486, -71.856, -24.565, -24.520, -10.133, 0.753, 29.66, 0.19647, 0.776, -0.22137, 0.55688,
 15:01:23.212,e3:ca:2d:fd:e0:8c, 2015-01-01 01:23:55.230, 0.966, 0.058, -0.319, 0.122, -0.183, 0.244, 169.508, -71.84, -24.659, -24.520, -10.133, 0.753, 29.66, 0.19647, 0.776, -0.22137, 0.55688,
 15:01:23.214,ed:35:33:d3:6c:f8, 2015-01-01 01:23:54.120, 0.906, 0.107, 0.418, -0.061, 1.465, -4.089, 10.519, -63.281, 141.487, -21.960, -12.427, -18.140, 32.49, -0.23077, -0.51822, 0.10062, -0.81729,
 15:01:23.214,ed:35:33:d3:6c:f8, 2015-01-01 01:23:54.120, 0.878, 0.107, 0.422, -0.671, 2.319, -3.174, 10.635, -63.243, 141.279, -21.960, -12.427, -18.140, 32.49, -0.23077, -0.51822, 0.10062, -0.81729,
 15:01:23.218,f6:90:cc:01:6d:25, 2015-01-01 01:23:52.590, 0.933, 0.09, -0.324, 0.305, 0.61, -0.061, 164.443, -71.702, 13.942, -28.240, -12.853, 7.847, 32.33, 0.02948, 0.80338, 0.02853, 0.59396,
 15:01:23.218,f6:90:cc:01:6d:25, 2015-01-01 01:23:52.590, 0.933, 0.091, -0.322, 0.244, 1.648, 0, 164.438, -71.702, 13.848, -28.240, -12.853, 7.847, 32.33, 0.02948, 0.80338, 0.02853, 0.59396,
 15:01:23.239,ed:40:fe:65:30:6c, 2015-01-01 01:24:05.960, 0.975, 0.108, 0.245, -3.479, 4.578, 0, 20.462, -73.559, -141.18, -26.300, -13.527, 8.600, 28.18, -0.36481, 0.50793, 0.32977, 0.70715,
 15:01:23.239,ed:40:fe:65:30:6c, 2015-01-01 01:24:05.960, 0.947, 0.11, 0.248, -4.333, 5.127, 0.793, 20.237, -73.488, -141.092, -26.300, -13.527, 8.600, 28.18, -0.36481, 0.50793, 0.32977, 0.70715,
 15:01:23.241,e3:ca:2d:fd:e0:8c, 2015-01-01 01:23:55.230, 0.964, 0.052, -0.315, -0.366, 0, 0.305, 169.525, -71.834, -24.758, -24.520, -10.133, 0.753, 29.66, 0.19647, 0.776, -0.22137, 0.55688,
 15:01:23.241,e3:ca:2d:fd:e0:8c, 2015-01-01 01:23:55.230, 0.964, 0.049, -0.315, -0.549, -0.122, 0.244, 169.536, -71.829, -24.868, -24.520, -10.133, 0.753, 29.66, 0.19647, 0.776, -0.22137, 0.55688,
 15:01:23.272,ed:40:fe:65:30:6c, 2015-01-01 01:24:05.960, 0.94, 0.099, 0.281, -6.226, 5.31, 1.282, 19.984, -73.422, -140.993, -26.300, -13.527, 8.600, 28.18, -0.36481, 0.50793, 0.32977, 0.70715,
 15:01:23.272,ed:40:fe:65:30:6c, 2015-01-01 01:24:05.960, 0.946, 0.077, 0.287, -4.028, 5.92, 1.587, 19.693, -73.339, -140.85, -26.300, -13.527, 8.600, 28.18, -0.36481, 0.50793, 0.32977, 0.70715,
 15:01:23.274,ed:35:33:d3:6c:f8, 2015-01-01 01:23:54.120, 0.867, 0.099, 0.446, -3.662, 2.991, -2.258, 10.684, -63.193, 141.119, -21.960, -12.427, -18.140, 32.49, -0.23077, -0.51822, 0.10062, -0.81729,
 15:01:23.274,ed:35:33:d3:6c:f8, 2015-01-01 01:23:54.120, 0.867, 0.085, 0.461, -4.578, 3.662, -1.282, 10.69, -63.138, 140.96, -21.960, -12.427, -18.140, 32.49, -0.23077, -0.51822, 0.10062, -0.81729,
 15:01:23.278,f6:90:cc:01:6d:25, 2015-01-01 01:23:52.590, 0.934, 0.089, -0.313, 0.061, 2.014, 0.061, 164.421, -71.719, 13.76, -28.453, -13.027, 7.840, 32.33, 0.02948, 0.80338, 0.02853, 0.59396,
 15:01:23.278,f6:90:cc:01:6d:25, 2015-01-01 01:23:52.590, 0.933, 0.083, -0.305, -0.061, 2.319, 0.183, 164.399, -71.746, 13.672, -28.453, -13.027, 7.840, 32.33, 0.02948, 0.80338, 0.02853, 0.59396,
 15:01:23.299,ed:40:fe:65:30:6c, 2015-01-01 01:24:05.960, 0.959, 0.068, 0.286, -1.343, 2.686, 1.709, 19.429, -73.262, -140.691, -26.300, -13.527, 8.600, 28.18, -0.36481, 0.50793, 0.32977, 0.70715,
 15:01:23.299,ed:40:fe:65:30:6c, 2015-01-01 01:24:05.960, 0.956, 0.066, 0.277, 0.854, 0.732, 0.671, 19.281, -73.24, -140.603, -26.300, -13.527, 8.600, 28.18, -0.36481, 0.50793, 0.32977, 0.70715,
 15:01:23.303,e3:ca:2d:fd:e0:8c, 2015-01-01 01:23:55.230, 0.963, 0.05, -0.31, -1.587, -0.366, 0, 169.536, -71.818, -24.977, -24.520, -10.133, 0.753, 29.66, 0.19647, 0.776, -0.22137, 0.55688,
 15:01:23.303,e3:ca:2d:fd:e0:8c, 2015-01-01 01:23:55.230, 0.964, 0.053, -0.313, -2.441, -0.977, -0.122, 169.503, -71.796, -25.071, -24.520, -10.133, 0.753, 29.66, 0.19647, 0.776, -0.22137, 0.55688,
 15:01:23.304,ed:35:33:d3:6c:f8, 2015-01-01 01:23:54.120, 0.878, 0.067, 0.466, -3.357, 4.822, 1.16, 10.618, -63.067, 140.878, -21.960, -12.427, -18.140, 32.49, -0.23077, -0.51822, 0.10062, -0.81729,
 15:01:23.304,ed:35:33:d3:6c:f8, 2015-01-01 01:23:54.120, 0.884, 0.054, 0.457, -1.099, 5.127, 2.991, 10.481, -62.979, 140.916, -21.960, -12.427, -18.140, 32.49, -0.23077, -0.51822, 0.10062, -0.81729,
 15:01:23.309,f6:90:cc:01:6d:25, 2015-01-01 01:23:52.590, 0.933, 0.078, -0.298, 0, 1.953, 0.122, 164.377, -71.774, 13.596, -28.453, -13.027, 7.840, 32.33, 0.02948, 0.80338, 0.02853, 0.59396,
 15:01:23.309,f6:90:cc:01:6d:25, 2015-01-01 01:23:52.590, 0.932, 0.079, -0.296, -0.427, 1.526, 0.061, 164.355, -71.801, 13.508, -28.453, -13.027, 7.840, 32.33, 0.02948, 0.80338, 0.02853, 0.59396,
 15:01:23.309,f6:90:cc:01:6d:25, 2015-01-01 01:23:52.590, 0.934, 0.081, -0.293, -0.977, 1.16, 0, 164.328, -71.818, 13.42, -28.453, -13.027, 7.840, 32.33, 0.02948, 0.80338, 0.02853, 0.59396,
 15:01:23.309,f6:90:cc:01:6d:25, 2015-01-01 01:23:52.590, 0.933, 0.083, -0.287, -1.77, 0.305, -0.244, 164.29, -71.823, 13.343, -28.453, -13.027, 7.840, 32.33, 0.02948, 0.80338, 0.02853, 0.59396,
 15:01:23.339,ed:35:33:d3:6c:f8, 2015-01-01 01:23:54.120, 0.871, 0.061, 0.442, 1.404, 4.15, 2.686, 10.327, -62.897, 141.037, -21.960, -12.427, -18.140, 32.49, -0.23077, -0.51822, 0.10062, -0.81729,
 15:01:23.339,ed:35:33:d3:6c:f8, 2015-01-01 01:23:54.120, 0.87, 0.073, 0.44, 2.197, 3.967, 0.244, 10.25, -62.825, 141.125, -21.960, -12.427, -18.140, 32.49, -0.23077, -0.51822, 0.10062, -0.81729,
 15:01:23.341,f6:90:cc:01:6d:25, 2015-01-01 01:23:52.590, 0.932, 0.085, -0.285, -2.563, 0, -0.427, 164.229, -71.818, 13.266, -28.453, -13.027, 7.840, 32.33, 0.04187, 0.80618, 0.01416, 0.58994,
 15:01:23.341,f6:90:cc:01:6d:25, 2015-01-01 01:23:52.590, 0.932, 0.086, -0.29, -2.93, -0.549, -0.366, 164.158, -71.807, 13.184, -28.453, -13.027, 7.840, 32.33, 0.04187, 0.80618, 0.01416, 0.58994,
 15:01:23.359,ed:40:fe:65:30:6c, 2015-01-01 01:24:05.960, 0.95, 0.085, 0.272, 1.038, 0.366, -0.061, 19.248, -73.235, -140.592, -26.300, -13.527, 8.600, 28.18, -0.36481, 0.50793, 0.32977, 0.70715,
 15:01:23.359,ed:40:fe:65:30:6c, 2015-01-01 01:24:05.960, 0.95, 0.093, 0.275, -0.366, 1.709, -1.038, 19.254, -73.229, -140.63, -26.300, -13.527, 8.600, 28.18, -0.36481, 0.50793, 0.32977, 0.70715,
 15:01:23.362,e3:ca:2d:fd:e0:8c, 2015-01-01 01:23:55.230, 0.964, 0.056, -0.31, -3.174, -1.282, -0.183, 169.459, -71.774, -25.142, -24.520, -10.133, 0.753, 29.66, 0.19647, 0.776, -0.22137, 0.55688,
 15:01:23.362,e3:ca:2d:fd:e0:8c, 2015-01-01 01:23:55.230, 0.962, 0.057, -0.308, -3.418, -2.563, -0.183, 169.415, -71.73, -25.203, -24.520, -10.133, 0.753, 29.66, 0.19647, 0.776, -0.22137, 0.55688,
 15:01:23.389,ed:40:fe:65:30:6c, 2015-01-01 01:24:05.960, 0.955, 0.094, 0.261, 0.488, 2.747, -2.136, 19.281, -73.185, -140.696, -26.853, -13.347, 9.040, 28.18, -0.36481, 0.50793, 0.32977, 0.70715,
 15:01:23.389,ed:40:fe:65:30:6c, 2015-01-01 01:24:05.960, 0.962, 0.092, 0.256, 2.563, 1.587, -2.38, 19.374, -73.13, -140.806, -26.853, -13.347, 9.040, 28.18, -0.36481, 0.50793, 0.32977, 0.70715,
 15:01:23.393,e3:ca:2d:fd:e0:8c, 2015-01-01 01:23:55.230, 0.961, 0.059, -0.313, -2.686, -3.235, -0.183, 169.382, -71.675, -25.274, -24.520, -10.133, 0.753, 29.66, 0.19647, 0.776, -0.22137, 0.55688,
 15:01:23.393,e3:ca:2d:fd:e0:8c, 2015-01-01 01:23:55.230, 0.959, 0.062, -0.31, -3.113, -3.662, -0.305, 169.354, -71.603, -25.345, -24.520, -10.133, 0.753, 29.66, 0.19647, 0.776, -0.22137, 0.55688,
 15:01:23.395,ed:35:33:d3:6c:f8, 2015-01-01 01:23:54.120, 0.877, 0.079, 0.435, 4.089, 4.7, -1.343, 10.283, -62.748, 141.103, -21.960, -12.427, -18.140, 32.49, -0.23077, -0.51822, 0.10062, -0.81729,
 15:01:23.395,ed:35:33:d3:6c:f8, 2015-01-01 01:23:54.120, 0.884, 0.089, 0.436, 5.371, 5.005, -1.526, 10.388, -62.655, 141.026, -21.960, -12.427, -18.140, 32.49, -0.23077, -0.51822, 0.10062, -0.81729,
 15:01:23.400,f6:90:cc:01:6d:25, 2015-01-01 01:23:52.590, 0.93, 0.091, -0.292, -4.517, -1.16, -0.488, 164.07, -71.785, 13.107, -28.453, -13.027, 7.840, 32.33, 0.04187, 0.80618, 0.01416, 0.58994,
 15:01:23.400,f6:90:cc:01:6d:25, 2015-01-01 01:23:52.590, 0.932, 0.095, -0.302, -4.517, -0.61, -0.305, 163.971, -71.763, 13.041, -28.453, -13.027, 7.840, 32.33, 0.04187, 0.80618, 0.01416, 0.58994,
 15:01:23.419,ed:40:fe:65:30:6c, 2015-01-01 01:24:05.960, 0.963, 0.095, 0.259, 3.174, 0.671, -2.197, 19.534, -73.098, -140.955, -26.853, -13.347, 9.040, 28.18, -0.36481, 0.50793, 0.32977, 0.70715,
 15:01:23.419,ed:40:fe:65:30:6c, 2015-01-01 01:24:05.960, 0.971, 0.121, 0.262, -0.916, 1.221, -2.258, 19.693, -73.07, -141.108, -26.853, -13.347, 9.040, 28.18, -0.36481, 0.50793, 0.32977, 0.70715,
 15:01:23.422,e3:ca:2d:fd:e0:8c, 2015-01-01 01:23:55.230, 0.959, 0.065, -0.316, -3.662, -4.333, -0.305, 169.316, -71.526, -25.422, -24.767, -10.373, 0.120, 29.66, 0.19647, 0.776, -0.22137, 0.55688,
 15:01:23.422,e3:ca:2d:fd:e0:8c, 2015-01-01 01:23:55.230, 0.979, 0.063, -0.32, -4.456, -4.211, -0.305, 169.261, -71.444, -25.483, -24.767, -10.373, 0.120, 29.66, 0.19647, 0.776, -0.22137, 0.55688,
 15:01:23.425,ed:35:33:d3:6c:f8, 2015-01-01 01:23:54.120, 0.884, 0.09, 0.44, 4.944, 3.662, -0.488, 10.503, -62.567, 140.955, -21.680, -12.967, -19.200, 32.49, -0.23077, -0.51822, 0.10062, -0.81729,
 15:01:23.425,ed:35:33:d3:6c:f8, 2015-01-01 01:23:54.120, 0.891, 0.103, 0.448, 2.991, 2.869, -1.038, 10.591, -62.501, 140.916, -21.680, -12.967, -19.200, 32.49, -0.23077, -0.51822, 0.10062, -0.81729,
 15:01:23.452,e3:ca:2d:fd:e0:8c, 2015-01-01 01:23:55.230, 0.963, 0.062, -0.319, -1.038, -10.01, 0, 169.277, -71.307, -25.582, -24.767, -10.373, 0.120, 29.66, 0.19647, 0.776, -0.22137, 0.55688,
 15:01:23.452,e3:ca:2d:fd:e0:8c, 2015-01-01 01:23:55.230, 0.961, 0.063, -0.337, -2.319, -2.563, -0.061, 169.31, -71.186, -25.675, -24.767, -10.373, 0.120, 29.66, 0.19647, 0.776, -0.22137, 0.55688,
 15:01:23.456,ed:35:33:d3:6c:f8, 2015-01-01 01:23:54.120, 0.897, 0.109, 0.442, 2.563, 1.77, -2.686, 10.69, -62.452, 140.823, -21.680, -12.967, -19.200, 32.49, -0.23077, -0.51822, 0.10062, -0.81729,
 15:01:23.456,ed:35:33:d3:6c:f8, 2015-01-01 01:23:54.120, 0.897, 0.107, 0.442, 1.465, 0.977, -3.723, 10.844, -62.419, 140.663, -21.680, -12.967, -19.200, 32.49, -0.23077, -0.51822, 0.10062, -0.81729,
 15:01:23.457,f6:90:cc:01:6d:25, 2015-01-01 01:23:52.975, 0.931, 0.094, -0.314, -4.272, 0.183, -0.366, 163.867, -71.757, 12.991, -28.453, -13.027, 7.840, 32.33, 0.04187, 0.80618, 0.01416, 0.58994,
 15:01:23.457,f6:90:cc:01:6d:25, 2015-01-01 01:23:52.975, 0.935, 0.092, -0.316, -4.211, 0.061, -0.366, 163.751, -71.752, 12.953, -28.453, -13.027, 7.840, 32.33, 0.04187, 0.80618, 0.01416, 0.58994,
 15:01:23.459,f6:90:cc:01:6d:25, 2015-01-01 01:23:52.975, 0.934, 0.094, -0.314, -4.028, -0.061, -0.244, 163.652, -71.741, 12.909, -28.453, -13.027, 7.840, 32.33, 0.04187, 0.80618, 0.01416, 0.58994,
 15:01:23.459,f6:90:cc:01:6d:25, 2015-01-01 01:23:52.975, 0.934, 0.099, -0.317, -3.357, 0.122, 0, 163.57, -71.735, 12.859, -28.453, -13.027, 7.840, 32.33, 0.04187, 0.80618, 0.01416, 0.58994,
 15:01:23.479,ed:40:fe:65:30:6c, 2015-01-01 01:24:05.960, 0.974, 0.121, 0.253, -1.831, 1.831, -2.625, 19.786, -73.037, -141.273, -26.853, -13.347, 9.040, 28.18, -0.35953, 0.50735, 0.32483, 0.71255,
 15:01:23.479,ed:40:fe:65:30:6c, 2015-01-01 01:24:05.960, 0.975, 0.109, 0.259, -2.258, 1.526, -2.625, 19.885, -72.993, -141.454, -26.853, -13.347, 9.040, 28.18, -0.35953, 0.50735, 0.32483, 0.71255,
 15:01:23.509,ed:40:fe:65:30:6c, 2015-01-01 01:24:06.320, 0.969, 0.101, 0.26, -2.686, 1.77, -2.319, 19.973, -72.96, -141.641, -26.853, -13.347, 9.040, 28.18, -0.35953, 0.50735, 0.32483, 0.71255,
 15:01:23.509,ed:40:fe:65:30:6c, 2015-01-01 01:24:06.320, 0.962, 0.104, 0.262, -3.479, 0.671, -1.831, 20.034, -72.927, -141.795, -26.853, -13.347, 9.040, 28.18, -0.35953, 0.50735, 0.32483, 0.71255,
 15:01:23.517,ed:35:33:d3:6c:f8, 2015-01-01 01:23:54.120, 0.892, 0.104, 0.442, -0.244, 0.305, -3.601, 11.008, -62.397, 140.482, -21.680, -12.967, -19.200, 32.49, -0.24039, -0.51294, 0.09747, -0.81824,
 15:01:23.517,ed:35:33:d3:6c:f8, 2015-01-01 01:23:54.120, 0.889, 0.103, 0.443, -1.038, 0.671, -2.869, 11.135, -62.38, 140.295, -21.680, -12.967, -19.200, 32.49, -0.24039, -0.51294, 0.09747, -0.81824,
 15:01:23.542,e3:ca:2d:fd:e0:8c, 2015-01-01 01:23:55.230, 0.963, 0.065, -0.34, -2.136, -2.991, 0, 169.294, -71.131, -25.735, -24.767, -10.373, 0.120, 29.66, 0.20285, 0.77737, -0.23312, 0.54779,
 15:01:23.542,e3:ca:2d:fd:e0:8c, 2015-01-01 01:23:55.230, 0.962, 0.064, -0.348, -2.747, -2.563, 0, 169.272, -71.076, -25.812, -24.767, -10.373, 0.120, 29.66, 0.20285, 0.77737, -0.23312, 0.54779,
 15:01:23.544,ed:35:33:d3:6c:f8, 2015-01-01 01:23:54.480, 0.886, 0.104, 0.437, -0.793, 0.671, -2.563, 11.228, -62.364, 140.142, -21.680, -12.967, -19.200, 32.49, -0.24039, -0.51294, 0.09747, -0.81824,
 15:01:23.544,ed:35:33:d3:6c:f8, 2015-01-01 01:23:54.480, 0.884, 0.1, 0.432, -0.122, 0.671, -1.953, 11.316, -62.353, 139.999, -21.680, -12.967, -19.200, 32.49, -0.24039, -0.51294, 0.09747, -0.81824,
 15:01:23.568,ed:40:fe:65:30:6c, 2015-01-01 01:24:06.320, 0.959, 0.106, 0.258, -3.296, 1.526, -1.526, 20.067, -72.905, -141.943, -26.853, -13.347, 9.040, 28.18, -0.35953, 0.50735, 0.32483, 0.71255,
 15:01:23.568,ed:40:fe:65:30:6c, 2015-01-01 01:24:06.320, 0.959, 0.094, 0.258, -1.648, 1.77, -1.221, 20.078, -72.878, -142.048, -26.853, -13.347, 9.040, 28.18, -0.35953, 0.50735, 0.32483, 0.71255,
 15:01:23.574,ed:35:33:d3:6c:f8, 2015-01-01 01:23:54.480, 0.88, 0.094, 0.44, 0, 1.77, -0.854, 11.382, -62.336, 139.878, -21.680, -12.967, -19.200, 32.49, -0.24039, -0.51294, 0.09747, -0.81824,
 15:01:23.574,ed:35:33:d3:6c:f8, 2015-01-01 01:23:54.480, 0.877, 0.095, 0.45, 0.244, 2.38, -0.854, 11.415, -62.303, 139.79, -21.680, -12.967, -19.200, 32.49, -0.24039, -0.51294, 0.09747, -0.81824,
 15:01:23.600,ed:40:fe:65:30:6c, 2015-01-01 01:24:06.320, 0.957, 0.097, 0.267, -1.221, 1.587, -0.977, 20.094, -72.85, -142.13, -26.853, -13.347, 9.040, 28.18, -0.35953, 0.50735, 0.32483, 0.71255,
 15:01:23.600,ed:40:fe:65:30:6c, 2015-01-01 01:24:06.320, 0.955, 0.102, 0.272, -1.343, 1.282, -0.977, 20.105, -72.828, -142.196, -26.853, -13.347, 9.040, 28.18, -0.35953, 0.50735, 0.32483, 0.71255,
 15:01:23.609,f6:90:cc:01:6d:25, 2015-01-01 01:23:52.975, 0.936, 0.098, -0.323, -2.625, 0.793, 0.122, 163.504, -71.735, 12.783, -28.453, -13.027, 7.840, 32.33, 0.04187, 0.80618, 0.01416, 0.58994,
 15:01:23.609,f6:90:cc:01:6d:25, 2015-01-01 01:23:52.975, 0.935, 0.092, -0.32, -2.258, 0.916, 0.122, 163.449, -71.741, 12.711, -28.453, -13.027, 7.840, 32.33, 0.04187, 0.80618, 0.01416, 0.58994,
 15:01:23.609,f6:90:cc:01:6d:25, 2015-01-01 01:23:52.975, 0.933, 0.09, -0.314, -2.197, 0.488, 0.122, 163.405, -71.741, 12.623, -28.453, -13.027, 7.840, 32.33, 0.04187, 0.80618, 0.01416, 0.58994,
 15:01:23.609,f6:90:cc:01:6d:25, 2015-01-01 01:23:52.975, 0.933, 0.091, -0.31, -1.831, 0.793, 0.122, 163.361, -71.741, 12.546, -28.453, -13.027, 7.840, 32.33, 0.04187, 0.80618, 0.01416, 0.58994,
 15:01:23.609,f6:90:cc:01:6d:25, 2015-01-01 01:23:52.975, 0.934, 0.091, -0.307, -1.709, 1.221, 0.183, 163.323, -71.752, 12.486, -28.453, -13.027, 7.840, 32.33, 0.04187, 0.80618, 0.01416, 0.58994,
 15:01:23.609,f6:90:cc:01:6d:25, 2015-01-01 01:23:52.975, 0.933, 0.089, -0.305, -1.831, 1.282, 0.061, 163.279, -71.763, 12.437, -28.453, -13.027, 7.840, 32.33, 0.04187, 0.80618, 0.01416, 0.58994,
 15:01:23.629,ed:40:fe:65:30:6c, 2015-01-01 01:24:06.320, 0.954, 0.101, 0.284, -1.282, 1.892, -0.549, 20.11, -72.806, -142.262, -26.853, -13.347, 9.040, 28.18, -0.35953, 0.50735, 0.32483, 0.71255,
 15:01:23.629,ed:40:fe:65:30:6c, 2015-01-01 01:24:06.320, 0.956, 0.103, 0.271, -0.366, 1.587, -0.732, 20.089, -72.773, -142.306, -26.853, -13.347, 9.040, 28.18, -0.35953, 0.50735, 0.32483, 0.71255,
 15:01:23.633,e3:ca:2d:fd:e0:8c, 2015-01-01 01:23:55.230, 0.961, 0.062, -0.346, -2.869, -2.075, 0.061, 169.244, -71.027, -25.878, -24.767, -10.373, 0.120, 29.66, 0.20285, 0.77737, -0.23312, 0.54779,
 15:01:23.633,e3:ca:2d:fd:e0:8c, 2015-01-01 01:23:55.230, 0.958, 0.06, -0.341, -1.648, -1.77, 0.061, 169.228, -70.988, -25.933, -24.767, -10.373, 0.120, 29.66, 0.20285, 0.77737, -0.23312, 0.54779,
 15:01:23.635,ed:35:33:d3:6c:f8, 2015-01-01 01:23:54.480, 0.88, 0.101, 0.459, 1.099, 2.197, -1.465, 11.453, -62.265, 139.73, -21.680, -12.967, -19.200, 32.49, -0.24039, -0.51294, 0.09747, -0.81824,
 15:01:23.635,ed:35:33:d3:6c:f8, 2015-01-01 01:23:54.480, 0.876, 0.099, 0.461, 1.892, 1.587, -1.526, 11.53, -62.227, 139.664, -21.680, -12.967, -19.200, 32.49, -0.24039, -0.51294, 0.09747, -0.81824,
 15:01:23.662,e3:ca:2d:fd:e0:8c, 2015-01-01 01:23:55.615, 0.958, 0.06, -0.334, -1.282, -1.831, 0, 169.222, -70.95, -25.988, -24.767, -10.373, 0.120, 29.66, 0.20285, 0.77737, -0.23312, 0.54779,
 15:01:23.662,e3:ca:2d:fd:e0:8c, 2015-01-01 01:23:55.615, 0.958, 0.06, -0.334, -1.77, -1.648, 0, 169.211, -70.911, -26.043, -24.767, -10.373, 0.120, 29.66, 0.20285, 0.77737, -0.23312, 0.54779,
 15:01:23.662,e3:ca:2d:fd:e0:8c, 2015-01-01 01:23:55.615, 0.957, 0.059, -0.334, -1.953, -1.526, 0, 169.2, -70.873, -26.098, -24.767, -10.373, 0.120, 29.66, 0.20285, 0.77737, -0.23312, 0.54779,
 15:01:23.662,e3:ca:2d:fd:e0:8c, 2015-01-01 01:23:55.615, 0.938, 0.059, -0.336, -1.526, -1.526, 0, 169.189, -70.84, -26.153, -24.767, -10.373, 0.120, 29.66, 0.20285, 0.77737, -0.23312, 0.54779,
 15:01:23.664,ed:35:33:d3:6c:f8, 2015-01-01 01:23:54.480, 0.879, 0.104, 0.464, 1.953, 1.77, -1.648, 11.624, -62.194, 139.581, -21.680, -12.967, -19.200, 32.49, -0.24039, -0.51294, 0.09747, -0.81824,
 15:01:23.664,ed:35:33:d3:6c:f8, 2015-01-01 01:23:54.480, 0.878, 0.112, 0.456, 1.648, 2.014, -1.587, 11.717, -62.15, 139.471, -21.680, -12.967, -19.200, 32.49, -0.24039, -0.51294, 0.09747, -0.81824,
 15:01:23.668,f6:90:cc:01:6d:25, 2015-01-01 01:23:52.975, 0.935, 0.09, -0.309, -1.709, 0.977, 0, 163.229, -71.774, 12.404, -28.453, -13.027, 7.840, 32.33, 0.04187, 0.80618, 0.01416, 0.58994,
 15:01:23.668,f6:90:cc:01:6d:25, 2015-01-01 01:23:52.975, 0.934, 0.094, -0.312, -1.282, 0.549, 0, 163.191, -71.779, 12.365, -28.453, -13.027, 7.840, 32.33, 0.04187, 0.80618, 0.01416, 0.58994,
 15:01:23.689,ed:40:fe:65:30:6c, 2015-01-01 01:24:06.320, 0.959, 0.108, 0.281, 0.305, -0.549, -0.732, 20.116, -72.757, -142.372, -26.853, -13.347, 9.040, 28.18, -0.35953, 0.50735, 0.32483, 0.71255,
 15:01:23.689,ed:40:fe:65:30:6c, 2015-01-01 01:24:06.320, 0.958, 0.107, 0.28, 0.61, -0.061, -0.244, 20.176, -72.768, -142.46, -26.853, -13.347, 9.040, 28.18, -0.35953, 0.50735, 0.32483, 0.71255,
 15:01:23.692,e3:ca:2d:fd:e0:8c, 2015-01-01 01:23:55.615, 0.967, 0.064, -0.346, -0.793, -6.653, 0.183, 169.222, -70.757, -26.246, -24.767, -10.373, 0.120, 29.66, 0.20285, 0.77737, -0.23312, 0.54779,
 15:01:23.692,e3:ca:2d:fd:e0:8c, 2015-01-01 01:23:55.615, 0.96, 0.062, -0.337, -1.038, -0.854, 0.366, 169.261, -70.681, -26.356, -24.767, -10.373, 0.120, 29.66, 0.20285, 0.77737, -0.23312, 0.54779,
 15:01:23.695,ed:35:33:d3:6c:f8, 2015-01-01 01:23:54.480, 0.875, 0.105, 0.454, 0.671, 1.831, -0.244, 11.788, -62.111, 139.373, -21.680, -12.967, -19.200, 32.49, -0.24039, -0.51294, 0.09747, -0.81824,
 15:01:23.695,ed:35:33:d3:6c:f8, 2015-01-01 01:23:54.480, 0.879, 0.104, 0.455, -0.305, 1.587, -0.122, 11.799, -62.078, 139.323, -21.680, -12.967, -19.200, 32.49, -0.24039, -0.51294, 0.09747, -0.81824,
 15:01:23.719,ed:40:fe:65:30:6c, 2015-01-01 01:24:06.320, 0.957, 0.103, 0.276, 0.061, 0.244, -0.122, 20.204, -72.768, -142.504, -26.700, -13.747, 9.213, 28.18, -0.35953, 0.50735, 0.32483, 0.71255,
 15:01:23.719,ed:40:fe:65:30:6c, 2015-01-01 01:24:06.320, 0.961, 0.108, 0.278, -1.038, 0.671, -0.122, 20.204, -72.762, -142.537, -26.700, -13.747, 9.213, 28.18, -0.35953, 0.50735, 0.32483, 0.71255,
 15:01:23.722,e3:ca:2d:fd:e0:8c, 2015-01-01 01:23:55.615, 0.958, 0.061, -0.33, -1.099, -0.305, 0.122, 169.266, -70.664, -26.444, -24.767, -10.373, 0.120, 29.66, 0.20285, 0.77737, -0.23312, 0.54779,
 15:01:23.722,e3:ca:2d:fd:e0:8c, 2015-01-01 01:23:55.615, 0.958, 0.062, -0.333, -0.732, -0.793, 0.122, 169.266, -70.653, -26.505, -24.767, -10.373, 0.120, 29.66, 0.20285, 0.77737, -0.23312, 0.54779,
 15:01:23.722,e3:ca:2d:fd:e0:8c, 2015-01-01 01:23:55.615, 0.958, 0.062, -0.333, -0.488, -0.61, 0, 169.266, -70.637, -26.559, -24.767, -10.373, 0.120, 29.66, 0.20285, 0.77737, -0.23312, 0.54779,
 15:01:23.722,e3:ca:2d:fd:e0:8c, 2015-01-01 01:23:55.615, 0.958, 0.063, -0.334, -0.305, -0.366, 0, 169.266, -70.626, -26.603, -24.767, -10.373, 0.120, 29.66, 0.20285, 0.77737, -0.23312, 0.54779,
 15:01:23.750,ed:40:fe:65:30:6c, 2015-01-01 01:24:06.320, 0.961, 0.111, 0.277, -1.892, 0.671, -0.122, 20.182, -72.751, -142.564, -26.700, -13.747, 9.213, 28.18, -0.35953, 0.50735, 0.32483, 0.71255,
 15:01:23.750,ed:40:fe:65:30:6c, 2015-01-01 01:24:06.320, 0.957, 0.106, 0.272, -1.648, 0.366, -0.061, 20.149, -72.746, -142.597, -26.700, -13.747, 9.213, 28.18, -0.35953, 0.50735, 0.32483, 0.71255,
 15:01:23.754,ed:35:33:d3:6c:f8, 2015-01-01 01:23:54.480, 0.879, 0.107, 0.458, -0.488, 1.587, -1.038, 11.805, -62.045, 139.252, -21.680, -12.967, -19.200, 32.49, -0.24039, -0.51294, 0.09747, -0.81824,
 15:01:23.754,ed:35:33:d3:6c:f8, 2015-01-01 01:23:54.480, 0.874, 0.107, 0.455, -0.183, 1.831, -1.404, 11.838, -62.012, 139.169, -21.680, -12.967, -19.200, 32.49, -0.24039, -0.51294, 0.09747, -0.81824,
 15:01:23.758,f6:90:cc:01:6d:25, 2015-01-01 01:23:52.975, 0.934, 0.094, -0.303, -0.916, 0.183, 0.122, 163.174, -71.779, 12.288, -28.407, -13.073, 7.453, 32.33, 0.04187, 0.80618, 0.01416, 0.58994,
 15:01:23.758,f6:90:cc:01:6d:25, 2015-01-01 01:23:52.975, 0.933, 0.093, -0.297, -0.793, 0, 0.122, 163.163, -71.768, 12.195, -28.407, -13.073, 7.453, 32.33, 0.04187, 0.80618, 0.01416, 0.58994,
 15:01:23.758,f6:90:cc:01:6d:25, 2015-01-01 01:23:52.975, 0.934, 0.091, -0.296, -0.549, 0, 0.122, 163.163, -71.763, 12.14, -28.407, -13.073, 7.453, 32.33, 0.04187, 0.80618, 0.01416, 0.58994,
 15:01:23.758,f6:90:cc:01:6d:25, 2015-01-01 01:23:52.975, 0.934, 0.091, -0.301, -0.732, 0.061, 0.061, 163.152, -71.757, 12.112, -28.407, -13.073, 7.453, 32.33, 0.04187, 0.80618, 0.01416, 0.58994,
 15:01:23.760,f6:90:cc:01:6d:25, 2015-01-01 01:23:52.975, 0.934, 0.095, -0.301, -0.671, -0.122, 0.061, 163.147, -71.746, 12.079, -28.407, -13.073, 7.453, 32.33, 0.04187, 0.80618, 0.01416, 0.58994,
 15:01:23.760,f6:90:cc:01:6d:25, 2015-01-01 01:23:52.975, 0.933, 0.096, -0.299, -0.671, -0.488, 0.122, 163.141, -71.735, 12.041, -28.407, -13.073, 7.453, 32.33, 0.04187, 0.80618, 0.01416, 0.58994,
 15:01:23.785,ed:35:33:d3:6c:f8, 2015-01-01 01:23:54.480, 0.877, 0.104, 0.453, -0.122, 2.258, -1.038, 11.882, -61.968, 139.07, -21.873, -13.060, -18.727, 32.49, -0.24039, -0.51294, 0.09747, -0.81824,
 15:01:23.785,ed:35:33:d3:6c:f8, 2015-01-01 01:23:54.480, 0.869, 0.102, 0.457, -0.244, 1.282, -0.916, 11.909, -61.93, 138.961, -21.873, -13.060, -18.727, 32.49, -0.24039, -0.51294, 0.09747, -0.81824,
 15:01:23.809,ed:40:fe:65:30:6c, 2015-01-01 01:24:06.320, 0.957, 0.104, 0.274, -1.343, -0.427, -0.061, 20.127, -72.746, -142.635, -26.700, -13.747, 9.213, 28.18, -0.35233, 0.50793, 0.3205, 0.71765,
 15:01:23.809,ed:40:fe:65:30:6c, 2015-01-01 01:24:06.320, 0.95, 0.101, 0.273, -1.404, 0.305, -0.122, 20.121, -72.751, -142.674, -26.700, -13.747, 9.213, 28.18, -0.35233, 0.50793, 0.3205, 0.71765,
 15:01:23.839,ed:40:fe:65:30:6c, 2015-01-01 01:24:06.645, 0.954, 0.097, 0.271, -0.793, -0.916, -0.061, 20.11, -72.751, -142.712, -26.700, -13.747, 9.213, 28.18, -0.35233, 0.50793, 0.3205, 0.71765,
 15:01:23.839,ed:40:fe:65:30:6c, 2015-01-01 01:24:06.645, 0.958, 0.1, 0.273, -0.671, -1.465, -0.122, 20.127, -72.773, -142.767, -26.700, -13.747, 9.213, 28.18, -0.35233, 0.50793, 0.3205, 0.71765,
 15:01:23.847,ed:35:33:d3:6c:f8, 2015-01-01 01:23:54.480, 0.87, 0.097, 0.456, 0.122, 0.549, -0.793, 11.942, -61.902, 138.851, -21.873, -13.060, -18.727, 32.49, -0.24039, -0.51294, 0.09747, -0.81824,
 15:01:23.847,ed:35:33:d3:6c:f8, 2015-01-01 01:23:54.480, 0.875, 0.099, 0.454, 0.305, 0.854, -0.916, 11.981, -61.891, 138.746, -21.873, -13.060, -18.727, 32.49, -0.24039, -0.51294, 0.09747, -0.81824,
 15:01:23.849,f6:90:cc:01:6d:25, 2015-01-01 01:23:52.975, 0.933, 0.095, -0.3, -0.732, -0.549, 0.122, 163.141, -71.719, 12.014, -28.407, -13.073, 7.453, 32.33, 0.05722, 0.80615, -0.00122, 0.58887,
 15:01:23.849,f6:90:cc:01:6d:25, 2015-01-01 01:23:52.975, 0.934, 0.093, -0.303, -0.793, -0.488, 0.122, 163.136, -71.708, 11.986, -28.407, -13.073, 7.453, 32.33, 0.05722, 0.80615, -0.00122, 0.58887,
 15:01:23.849,f6:90:cc:01:6d:25, 2015-01-01 01:23:52.975, 0.933, 0.092, -0.307, -0.61, -0.427, 0.122, 163.136, -71.691, 11.97, -28.407, -13.073, 7.453, 32.33, 0.05722, 0.80615, -0.00122, 0.58887,
 15:01:23.849,f6:90:cc:01:6d:25, 2015-01-01 01:23:52.975, 0.933, 0.093, -0.307, -0.671, -0.793, 0.122, 163.141, -71.675, 11.915, -28.407, -13.073, 7.453, 32.33, 0.05722, 0.80615, -0.00122, 0.58887,
 15:01:23.869,ed:40:fe:65:30:6c, 2015-01-01 01:24:06.645, 0.961, 0.099, 0.269, -0.244, -1.526, -0.244, 20.165, -72.801, -142.844, -26.700, -13.747, 9.213, 28.18, -0.35233, 0.50793, 0.3205, 0.71765,
 15:01:23.869,ed:40:fe:65:30:6c, 2015-01-01 01:24:06.645, 0.963, 0.097, 0.271, 0.61, -0.854, -0.244, 20.215, -72.828, -142.932, -26.700, -13.747, 9.213, 28.18, -0.35233, 0.50793, 0.3205, 0.71765,
 15:01:23.871,e3:ca:2d:fd:e0:8c, 2015-01-01 01:23:55.615, 0.958, 0.065, -0.334, -0.427, -0.183, 0.061, 169.272, -70.615, -26.642, -24.767, -10.373, 0.120, 29.66, 0.20285, 0.77737, -0.23312, 0.54779,
 15:01:23.871,e3:ca:2d:fd:e0:8c, 2015-01-01 01:23:55.615, 0.957, 0.064, -0.336, -0.122, -0.427, 0.061, 169.272, -70.609, -26.664, -24.767, -10.373, 0.120, 29.66, 0.20285, 0.77737, -0.23312, 0.54779,
 15:01:23.875,ed:35:33:d3:6c:f8, 2015-01-01 01:23:54.480, 0.879, 0.102, 0.453, 0.305, 0.732, -1.16, 12.025, -61.87, 138.653, -21.873, -13.060, -18.727, 32.49, -0.25006, -0.51019, 0.09631, -0.8172,
 15:01:23.875,ed:35:33:d3:6c:f8, 2015-01-01 01:23:54.480, 0.882, 0.104, 0.45, 0.61, 0.305, -0.61, 12.068, -61.859, 138.565, -21.873, -13.060, -18.727, 32.49, -0.25006, -0.51019, 0.09631, -0.8172,
 15:01:23.907,ed:35:33:d3:6c:f8, 2015-01-01 01:23:54.480, 0.883, 0.105, 0.449, 0.793, 0.183, 0.183, 12.107, -61.853, 138.521, -21.873, -13.060, -18.727, 32.49, -0.25006, -0.51019, 0.09631, -0.8172,
 15:01:23.907,ed:35:33:d3:6c:f8, 2015-01-01 01:23:54.480, 0.882, 0.108, 0.449, 0.488, -0.061, 0.488, 12.118, -61.853, 138.499, -21.873, -13.060, -18.727, 32.49, -0.25006, -0.51019, 0.09631, -0.8172,
 15:01:23.929,ed:40:fe:65:30:6c, 2015-01-01 01:24:06.645, 0.964, 0.1, 0.263, 1.221, -1.77, 0.244, 20.264, -72.856, -142.987, -26.700, -13.747, 9.213, 28.18, -0.35233, 0.50793, 0.3205, 0.71765,
 15:01:23.929,ed:40:fe:65:30:6c, 2015-01-01 01:24:06.645, 0.963, 0.104, 0.265, 1.282, -1.221, 0.488, 20.303, -72.894, -143.026, -26.700, -13.747, 9.213, 28.18, -0.35233, 0.50793, 0.3205, 0.71765,
 15:01:23.933,e3:ca:2d:fd:e0:8c, 2015-01-01 01:23:55.615, 0.956, 0.063, -0.337, -0.244, -0.61, 0.061, 169.277, -70.598, -26.713, -24.767, -10.373, 0.120, 29.66, 0.20285, 0.77737, -0.23312, 0.54779,
 15:01:23.933,e3:ca:2d:fd:e0:8c, 2015-01-01 01:23:55.615, 0.956, 0.062, -0.341, -0.061, -0.671, 0.061, 169.288, -70.582, -26.763, -24.767, -10.373, 0.120, 29.66, 0.20285, 0.77737, -0.23312, 0.54779,
 15:01:23.958,ed:40:fe:65:30:6c, 2015-01-01 01:24:06.645, 0.963, 0.106, 0.262, 1.526, -1.282, 0.732, 20.325, -72.927, -143.053, -26.700, -13.747, 9.213, 28.18, -0.35233, 0.50793, 0.3205, 0.71765,
 15:01:23.958,ed:40:fe:65:30:6c, 2015-01-01 01:24:06.645, 0.964, 0.107, 0.269, 0.793, -0.305, 0.61, 20.33, -72.949, -143.069, -26.700, -13.747, 9.213, 28.18, -0.35233, 0.50793, 0.3205, 0.71765,
 15:01:23.961,e3:ca:2d:fd:e0:8c, 2015-01-01 01:23:55.615, 0.956, 0.062, -0.344, -0.061, -0.61, 0, 169.294, -70.565, -26.812, -24.767, -10.373, 0.120, 29.66, 0.20285, 0.77737, -0.23312, 0.54779,
 15:01:23.961,e3:ca:2d:fd:e0:8c, 2015-01-01 01:23:55.615, 0.957, 0.062, -0.344, 0, -0.732, 0.061, 169.31, -70.549, -26.845, -24.767, -10.373, 0.120, 29.66, 0.20285, 0.77737, -0.23312, 0.54779,
 15:01:23.964,e3:ca:2d:fd:e0:8c, 2015-01-01 01:23:55.615, 0.957, 0.06, -0.341, -0.244, -0.916, 0, 169.316, -70.527, -26.9, -24.767, -10.373, 0.120, 29.66, 0.20285, 0.77737, -0.23312, 0.54779,
 15:01:23.964,e3:ca:2d:fd:e0:8c, 2015-01-01 01:23:55.615, 0.957, 0.06, -0.345, -0.305, -1.099, 0, 169.327, -70.505, -26.966, -24.767, -10.373, 0.120, 29.66, 0.20285, 0.77737, -0.23312, 0.54779,
 15:01:23.965,ed:35:33:d3:6c:f8, 2015-01-01 01:23:54.865, 0.882, 0.111, 0.445, 0.183, -0.244, 0.61, 12.118, -61.864, 138.461, -21.873, -13.060, -18.727, 32.49, -0.25006, -0.51019, 0.09631, -0.8172,
 15:01:23.965,ed:35:33:d3:6c:f8, 2015-01-01 01:23:54.865, 0.883, 0.105, 0.444, -0.061, -0.122, 0.61, 12.107, -61.875, 138.422, -21.873, -13.060, -18.727, 32.49, -0.25006, -0.51019, 0.09631, -0.8172,
 15:01:23.989,ed:40:fe:65:30:6c, 2015-01-01 01:24:06.645, 0.96, 0.106, 0.261, 0, -0.244, 0.427, 20.325, -72.96, -143.086, -26.700, -13.747, 9.213, 28.18, -0.35233, 0.50793, 0.3205, 0.71765,
 15:01:23.989,ed:40:fe:65:30:6c, 2015-01-01 01:24:06.645, 0.964, 0.104, 0.265, -0.061, 0.671, 0.366, 20.303, -72.966, -143.102, -26.700, -13.747, 9.213, 28.18, -0.35233, 0.50793, 0.3205, 0.71765,
 15:01:23.992,e3:ca:2d:fd:e0:8c, 2015-01-01 01:23:55.615, 0.957, 0.06, -0.341, -0.305, -0.977, 0, 169.338, -70.477, -27.026, -24.767, -10.373, 0.120, 29.66, 0.20285, 0.77737, -0.23312, 0.54779,
 15:01:23.992,e3:ca:2d:fd:e0:8c, 2015-01-01 01:23:55.615, 0.957, 0.061, -0.34, -0.549, -0.916, 0, 169.343, -70.455, -27.092, -24.767, -10.373, 0.120, 29.66, 0.20285, 0.77737, -0.23312, 0.54779,
 15:01:23.995,ed:35:33:d3:6c:f8, 2015-01-01 01:23:54.865, 0.879, 0.105, 0.445, -0.183, -0.061, 0.061, 12.101, -61.88, 138.384, -21.873, -13.060, -18.727, 32.49, -0.25006, -0.51019, 0.09631, -0.8172,
 15:01:23.995,ed:35:33:d3:6c:f8, 2015-01-01 01:23:54.865, 0.883, 0.107, 0.447, -0.427, 0.366, -0.305, 12.112, -61.886, 138.318, -21.873, -13.060, -18.727, 32.49, -0.25006, -0.51019, 0.09631, -0.8172,
 15:01:24.023,e3:ca:2d:fd:e0:8c, 2015-01-01 01:23:55.615, 0.967, 0.062, -0.339, -0.732, -1.038, 0, 169.343, -70.433, -27.153, -24.080, -10.600, 0.180, 29.66, 0.20285, 0.77737, -0.23312, 0.54779,
 15:01:24.023,e3:ca:2d:fd:e0:8c, 2015-01-01 01:23:55.615, 0.961, 0.062, -0.329, 0.671, -9.155, 0.183, 169.437, -70.291, -27.301, -24.080, -10.600, 0.180, 29.66, 0.20285, 0.77737, -0.23312, 0.54779,
 15:01:24.025,ed:35:33:d3:6c:f8, 2015-01-01 01:23:54.865, 0.884, 0.108, 0.453, -0.916, 0.977, -0.183, 12.118, -61.88, 138.257, -21.873, -13.060, -18.727, 32.49, -0.25006, -0.51019, 0.09631, -0.8172,
 15:01:24.025,ed:35:33:d3:6c:f8, 2015-01-01 01:23:54.865, 0.88, 0.107, 0.454, -1.16, 0.854, -0.183, 12.112, -61.87, 138.186, -21.873, -13.060, -18.727, 32.49, -0.25006, -0.51019, 0.09631, -0.8172,
 15:01:24.052,e3:ca:2d:fd:e0:8c, 2015-01-01 01:23:55.615, 0.954, 0.063, -0.34, -0.671, -1.099, 0.183, 169.475, -70.23, -27.405, -24.080, -10.600, 0.180, 29.66, 0.20285, 0.77737, -0.23312, 0.54779,
 15:01:24.052,e3:ca:2d:fd:e0:8c, 2015-01-01 01:23:55.615, 0.956, 0.064, -0.342, -0.793, -1.77, 0.122, 169.486, -70.203, -27.488, -24.080, -10.600, 0.180, 29.66, 0.20285, 0.77737, -0.23312, 0.54779,
 15:01:24.060,f6:90:cc:01:6d:25, 2015-01-01 01:23:52.975, 0.934, 0.093, -0.308, -0.793, -1.221, 0, 163.141, -71.647, 11.854, -28.407, -13.073, 7.453, 32.33, 0.05722, 0.80615, -0.00122, 0.58887,
 15:01:24.060,f6:90:cc:01:6d:25, 2015-01-01 01:23:52.975, 0.933, 0.092, -0.306, -0.977, -1.404, 0, 163.147, -71.614, 11.788, -28.407, -13.073, 7.453, 32.33, 0.05722, 0.80615, -0.00122, 0.58887,
 15:01:24.060,f6:90:cc:01:6d:25, 2015-01-01 01:23:52.975, 0.933, 0.091, -0.31, -0.977, -1.221, 0, 163.152, -71.587, 11.722, -28.407, -13.073, 7.453, 32.33, 0.05722, 0.80615, -0.00122, 0.58887,
 15:01:24.060,f6:90:cc:01:6d:25, 2015-01-01 01:23:52.975, 0.934, 0.091, -0.311, -0.916, -1.282, 0, 163.152, -71.554, 11.651, -28.407, -13.073, 7.453, 32.33, 0.05722, 0.80615, -0.00122, 0.58887,
 15:01:24.060,f6:90:cc:01:6d:25, 2015-01-01 01:23:52.975, 0.933, 0.094, -0.309, -0.854, -1.038, 0, 163.158, -71.526, 11.58, -28.407, -13.073, 7.453, 32.33, 0.05722, 0.80615, -0.00122, 0.58887,
 15:01:24.060,f6:90:cc:01:6d:25, 2015-01-01 01:23:53.450, 0.933, 0.094, -0.307, -0.916, -0.549, 0, 163.152, -71.51, 11.53, -28.407, -13.073, 7.453, 32.33, 0.05722, 0.80615, -0.00122, 0.58887,
 15:01:24.060,f6:90:cc:01:6d:25, 2015-01-01 01:23:53.450, 0.932, 0.094, -0.306, -0.977, -0.366, 0, 163.141, -71.494, 11.497, -28.407, -13.073, 7.453, 32.33, 0.05722, 0.80615, -0.00122, 0.58887,
 15:01:24.060,f6:90:cc:01:6d:25, 2015-01-01 01:23:53.450, 0.932, 0.095, -0.305, -0.793, 0.061, 0, 163.125, -71.488, 11.459, -28.407, -13.073, 7.453, 32.33, 0.05722, 0.80615, -0.00122, 0.58887,
 15:01:24.060,f6:90:cc:01:6d:25, 2015-01-01 01:23:53.450, 0.933, 0.096, -0.308, -0.854, 0.183, 0, 163.103, -71.488, 11.426, -28.407, -13.073, 7.453, 32.33, 0.05722, 0.80615, -0.00122, 0.58887,
 15:01:24.060,f6:90:cc:01:6d:25, 2015-01-01 01:23:53.450, 0.933, 0.096, -0.31, -0.793, 0.427, 0, 163.081, -71.488, 11.393, -28.407, -13.073, 7.453, 32.33, 0.05722, 0.80615, -0.00122, 0.58887,
 15:01:24.079,ed:40:fe:65:30:6c, 2015-01-01 01:24:06.645, 0.964, 0.105, 0.266, -0.366, 0.793, 0.488, 20.27, -72.96, -143.091, -26.700, -13.747, 9.213, 28.18, -0.35233, 0.50793, 0.3205, 0.71765,
 15:01:24.079,ed:40:fe:65:30:6c, 2015-01-01 01:24:06.645, 0.961, 0.104, 0.268, -0.61, 0.916, 0.549, 20.22, -72.955, -143.069, -26.700, -13.747, 9.213, 28.18, -0.35233, 0.50793, 0.3205, 0.71765,
 15:01:24.079,ed:40:fe:65:30:6c, 2015-01-01 01:24:06.645, 0.96, 0.102, 0.271, -0.793, 1.038, 0.549, 20.165, -72.944, -143.031, -26.700, -13.747, 9.213, 28.18, -0.35233, 0.50793, 0.3205, 0.71765,
 15:01:24.079,ed:40:fe:65:30:6c, 2015-01-01 01:24:06.645, 0.96, 0.101, 0.272, -1.16, 1.343, 0.366, 20.105, -72.933, -142.998, -26.700, -13.747, 9.213, 28.18, -0.35233, 0.50793, 0.3205, 0.71765,
 15:01:24.083,e3:ca:2d:fd:e0:8c, 2015-01-01 01:23:55.615, 0.957, 0.063, -0.344, -0.549, -1.892, 0.183, 169.503, -70.164, -27.57, -24.080, -10.600, 0.180, 29.66, 0.20285, 0.77737, -0.23312, 0.54779,
 15:01:24.083,e3:ca:2d:fd:e0:8c, 2015-01-01 01:23:55.615, 0.954, 0.063, -0.342, -0.854, -0.916, 0.061, 169.503, -70.142, -27.609, -24.080, -10.600, 0.180, 29.66, 0.20285, 0.77737, -0.23312, 0.54779,
 15:01:24.086,ed:35:33:d3:6c:f8, 2015-01-01 01:23:54.865, 0.877, 0.104, 0.458, -1.404, 0.854, -0.061, 12.101, -61.859, 138.109, -21.873, -13.060, -18.727, 32.49, -0.25006, -0.51019, 0.09631, -0.8172,
 15:01:24.086,ed:35:33:d3:6c:f8, 2015-01-01 01:23:54.865, 0.878, 0.101, 0.458, -1.648, 1.16, -0.061, 12.079, -61.842, 138.06, -21.873, -13.060, -18.727, 32.49, -0.25006, -0.51019, 0.09631, -0.8172,
 15:01:24.090,f6:90:cc:01:6d:25, 2015-01-01 01:23:53.450, 0.933, 0.094, -0.305, -0.916, 0.61, 0, 163.048, -71.494, 11.343, -28.407, -13.073, 7.453, 32.33, 0.05722, 0.80615, -0.00122, 0.58887,
 15:01:24.090,f6:90:cc:01:6d:25, 2015-01-01 01:23:53.450, 0.933, 0.094, -0.305, -0.793, 0.732, 0, 163.021, -71.499, 11.316, -28.407, -13.073, 7.453, 32.33, 0.05722, 0.80615, -0.00122, 0.58887,
 15:01:24.109,ed:40:fe:65:30:6c, 2015-01-01 01:24:06.645, 0.96, 0.1, 0.271, -1.343, 1.282, 0.183, 20.045, -72.916, -142.982, -26.760, -13.773, 9.353, 28.18, -0.35233, 0.50793, 0.3205, 0.71765,
 15:01:24.109,ed:40:fe:65:30:6c, 2015-01-01 01:24:06.645, 0.96, 0.098, 0.269, -0.61, 0.488, 0.061, 20.006, -72.905, -142.976, -26.760, -13.773, 9.353, 28.18, -0.35233, 0.50793, 0.3205, 0.71765,
 15:01:24.116,ed:35:33:d3:6c:f8, 2015-01-01 01:23:54.865, 0.877, 0.101, 0.458, -1.526, 1.404, -0.183, 12.052, -61.826, 138.054, -21.873, -13.060, -18.727, 32.49, -0.25006, -0.51019, 0.09631, -0.8172,
 15:01:24.116,ed:35:33:d3:6c:f8, 2015-01-01 01:23:54.865, 0.876, 0.101, 0.458, -1.038, 1.587, -0.122, 12.03, -61.798, 138.087, -21.873, -13.060, -18.727, 32.49, -0.25006, -0.51019, 0.09631, -0.8172,
 15:01:24.143,e3:ca:2d:fd:e0:8c, 2015-01-01 01:23:55.615, 0.954, 0.062, -0.345, -0.61, -1.343, 0, 169.503, -70.115, -27.642, -24.080, -10.600, 0.180, 29.66, 0.20926, 0.7789, -0.24561, 0.53766,
 15:01:24.143,e3:ca:2d:fd:e0:8c, 2015-01-01 01:23:55.615, 0.957, 0.063, -0.347, -0.305, -1.892, 0, 169.514, -70.082, -27.68, -24.080, -10.600, 0.180, 29.66, 0.20926, 0.7789, -0.24561, 0.53766,
 15:01:24.145,ed:35:33:d3:6c:f8, 2015-01-01 01:23:54.865, 0.879, 0.1, 0.455, -0.793, 1.587, 0, 12.014, -61.771, 138.159, -21.373, -13.287, -16.560, 32.49, -0.25006, -0.51019, 0.09631, -0.8172,
 15:01:24.145,ed:35:33:d3:6c:f8, 2015-01-01 01:23:54.865, 0.875, 0.101, 0.456, -0.61, 1.343, -0.061, 11.997, -61.743, 138.252, -21.373, -13.287, -16.560, 32.49, -0.25006, -0.51019, 0.09631, -0.8172,
 15:01:24.168,ed:40:fe:65:30:6c, 2015-01-01 01:24:06.645, 0.961, 0.098, 0.269, -0.122, -0.122, 0, 20.001, -72.905, -143.004, -26.760, -13.773, 9.353, 28.18, -0.35233, 0.50793, 0.3205, 0.71765,
 15:01:24.168,ed:40:fe:65:30:6c, 2015-01-01 01:24:06.645, 0.959, 0.099, 0.271, 0, 0, 0, 20.006, -72.911, -143.053, -26.760, -13.773, 9.353, 28.18, -0.35233, 0.50793, 0.3205, 0.71765,
 15:01:24.173,e3:ca:2d:fd:e0:8c, 2015-01-01 01:23:55.615, 0.955, 0.063, -0.349, -0.488, -0.366, 0, 169.514, -70.065, -27.708, -24.080, -10.600, 0.180, 29.66, 0.20926, 0.7789, -0.24561, 0.53766,
 15:01:24.173,e3:ca:2d:fd:e0:8c, 2015-01-01 01:23:55.615, 0.955, 0.062, -0.348, -0.549, 0.244, 0.061, 169.508, -70.065, -27.719, -24.080, -10.600, 0.180, 29.66, 0.20926, 0.7789, -0.24561, 0.53766,
 15:01:24.199,ed:40:fe:65:30:6c, 2015-01-01 01:24:06.645, 0.961, 0.1, 0.27, -0.061, 0.061, 0.061, 20.012, -72.916, -143.08, -26.760, -13.773, 9.353, 28.18, -0.34894, 0.51068, 0.31796, 0.71848,
 15:01:24.199,ed:40:fe:65:30:6c, 2015-01-01 01:24:06.645, 0.958, 0.102, 0.27, 0.061, -0.183, 0.122, 20.012, -72.922, -143.108, -26.760, -13.773, 9.353, 28.18, -0.34894, 0.51068, 0.31796, 0.71848,
 15:01:24.205,ed:35:33:d3:6c:f8, 2015-01-01 01:23:54.865, 0.876, 0.102, 0.458, -0.061, 0.916, -0.061, 11.986, -61.721, 138.318, -21.373, -13.287, -16.560, 32.49, -0.25006, -0.51019, 0.09631, -0.8172,
 15:01:24.205,ed:35:33:d3:6c:f8, 2015-01-01 01:23:54.865, 0.875, 0.104, 0.459, 0.122, 0.793, -0.122, 11.992, -61.71, 138.334, -21.373, -13.287, -16.560, 32.49, -0.25006, -0.51019, 0.09631, -0.8172,
 15:01:24.205,e3:ca:2d:fd:e0:8c, 2015-01-01 01:23:56.240, 0.954, 0.061, -0.349, -0.488, 0.122, 0, 169.503, -70.065, -27.729, -24.080, -10.600, 0.180, 29.66, 0.20926, 0.7789, -0.24561, 0.53766,
 15:01:24.205,e3:ca:2d:fd:e0:8c, 2015-01-01 01:23:56.240, 0.954, 0.061, -0.35, -0.244, 0.122, 0, 169.497, -70.065, -27.757, -24.080, -10.600, 0.180, 29.66, 0.20926, 0.7789, -0.24561, 0.53766,
 15:01:24.205,e3:ca:2d:fd:e0:8c, 2015-01-01 01:23:56.240, 0.954, 0.062, -0.35, -0.061, 0.183, 0, 169.497, -70.065, -27.801, -24.080, -10.600, 0.180, 29.66, 0.20926, 0.7789, -0.24561, 0.53766,
 15:01:24.205,e3:ca:2d:fd:e0:8c, 2015-01-01 01:23:56.240, 0.955, 0.062, -0.351, -0.122, 0.427, 0, 169.497, -70.071, -27.839, -24.080, -10.600, 0.180, 29.66, 0.20926, 0.7789, -0.24561, 0.53766,
 15:01:24.229,ed:40:fe:65:30:6c, 2015-01-01 01:24:06.645, 0.957, 0.104, 0.271, 0.244, -0.366, 0.305, 20.017, -72.933, -143.135, -26.760, -13.773, 9.353, 28.18, -0.34894, 0.51068, 0.31796, 0.71848,
 15:01:24.229,ed:40:fe:65:30:6c, 2015-01-01 01:24:06.645, 0.963, 0.103, 0.27, 0.61, -0.61, 0.549, 20.017, -72.949, -143.146, -26.760, -13.773, 9.353, 28.18, -0.34894, 0.51068, 0.31796, 0.71848,
 15:01:24.235,ed:35:33:d3:6c:f8, 2015-01-01 01:23:54.865, 0.872, 0.108, 0.459, 0, 0.549, -0.122, 12.003, -61.699, 138.318, -21.373, -13.287, -16.560, 32.49, -0.25351, -0.50861, 0.09756, -0.81696,
 15:01:24.235,ed:35:33:d3:6c:f8, 2015-01-01 01:23:54.865, 0.88, 0.105, 0.458, -0.183, 0.854, -0.244, 12.008, -61.688, 138.296, -21.373, -13.287, -16.560, 32.49, -0.25351, -0.50861, 0.09756, -0.81696,
 15:01:24.267,ed:35:33:d3:6c:f8, 2015-01-01 01:23:54.865, 0.875, 0.106, 0.458, -0.671, 1.16, -0.122, 12.014, -61.672, 138.29, -21.373, -13.287, -16.560, 32.49, -0.25351, -0.50861, 0.09756, -0.81696,
 15:01:24.267,ed:35:33:d3:6c:f8, 2015-01-01 01:23:54.865, 0.875, 0.102, 0.458, -1.16, 0.732, 0.122, 12.003, -61.655, 138.318, -21.373, -13.287, -16.560, 32.49, -0.25351, -0.50861, 0.09756, -0.81696,
 15:01:24.288,ed:40:fe:65:30:6c, 2015-01-01 01:24:07.065, 0.959, 0.101, 0.271, 0.122, -0.244, 0.549, 20.006, -72.966, -143.152, -26.760, -13.773, 9.353, 28.18, -0.34894, 0.51068, 0.31796, 0.71848,
 15:01:24.288,ed:40:fe:65:30:6c, 2015-01-01 01:24:07.065, 0.96, 0.101, 0.27, -0.549, -0.244, 0.488, 19.984, -72.977, -143.152, -26.760, -13.773, 9.353, 28.18, -0.34894, 0.51068, 0.31796, 0.71848,
 15:01:24.293,e3:ca:2d:fd:e0:8c, 2015-01-01 01:23:56.240, 0.955, 0.063, -0.346, -0.488, 0.366, 0, 169.486, -70.071, -27.883, -24.080, -10.600, 0.180, 29.66, 0.20926, 0.7789, -0.24561, 0.53766,
 15:01:24.293,e3:ca:2d:fd:e0:8c, 2015-01-01 01:23:56.240, 0.954, 0.063, -0.348, 0.061, 0.122, 0, 169.492, -70.071, -27.922, -24.080, -10.600, 0.180, 29.66, 0.20926, 0.7789, -0.24561, 0.53766,
 15:01:24.293,e3:ca:2d:fd:e0:8c, 2015-01-01 01:23:56.240, 0.953, 0.062, -0.343, -0.061, 0.061, 0, 169.492, -70.071, -27.966, -24.080, -10.600, 0.180, 29.66, 0.20926, 0.7789, -0.24561, 0.53766,
 15:01:24.293,e3:ca:2d:fd:e0:8c, 2015-01-01 01:23:56.240, 0.955, 0.062, -0.346, 0, 0, 0, 169.492, -70.065, -27.999, -24.080, -10.600, 0.180, 29.66, 0.20926, 0.7789, -0.24561, 0.53766,
 15:01:24.299,f6:90:cc:01:6d:25, 2015-01-01 01:23:53.450, 0.933, 0.094, -0.306, -0.732, 0.61, 0, 162.993, -71.505, 11.277, -28.407, -13.073, 7.453, 32.33, 0.05722, 0.80615, -0.00122, 0.58887,
 15:01:24.299,f6:90:cc:01:6d:25, 2015-01-01 01:23:53.450, 0.933, 0.096, -0.311, -0.671, 0.366, 0, 162.971, -71.51, 11.228, -28.407, -13.073, 7.453, 32.33, 0.05722, 0.80615, -0.00122, 0.58887,
 15:01:24.299,f6:90:cc:01:6d:25, 2015-01-01 01:23:53.450, 0.933, 0.095, -0.309, -0.549, 0.244, 0, 162.96, -71.505, 11.168, -28.407, -13.073, 7.453, 32.33, 0.05722, 0.80615, -0.00122, 0.58887,
 15:01:24.299,f6:90:cc:01:6d:25, 2015-01-01 01:23:53.450, 0.933, 0.093, -0.308, -0.366, 0.305, 0, 162.944, -71.505, 11.102, -28.407, -13.073, 7.453, 32.33, 0.05722, 0.80615, -0.00122, 0.58887,
 15:01:24.299,f6:90:cc:01:6d:25, 2015-01-01 01:23:53.450, 0.933, 0.093, -0.309, -0.183, 0.183, 0, 162.938, -71.499, 11.052, -28.407, -13.073, 7.453, 32.33, 0.05722, 0.80615, -0.00122, 0.58887,
 15:01:24.299,f6:90:cc:01:6d:25, 2015-01-01 01:23:53.450, 0.933, 0.094, -0.309, -0.122, 0, 0, 162.938, -71.494, 11.003, -28.407, -13.073, 7.453, 32.33, 0.05722, 0.80615, -0.00122, 0.58887,
 15:01:24.299,f6:90:cc:01:6d:25, 2015-01-01 01:23:53.450, 0.932, 0.095, -0.31, -0.244, -0.183, 0, 162.938, -71.483, 10.953, -28.407, -13.073, 7.453, 32.33, 0.05722, 0.80615, -0.00122, 0.58887,
 15:01:24.299,f6:90:cc:01:6d:25, 2015-01-01 01:23:53.450, 0.934, 0.095, -0.306, -0.366, -0.122, 0, 162.933, -71.477, 10.942, -28.407, -13.073, 7.453, 32.33, 0.05722, 0.80615, -0.00122, 0.58887,
 15:01:24.301,f6:90:cc:01:6d:25, 2015-01-01 01:23:53.450, 0.933, 0.095, -0.308, -0.183, 0, 0, 162.927, -71.472, 10.926, -28.407, -13.073, 7.453, 32.33, 0.05722, 0.80615, -0.00122, 0.58887,
 15:01:24.301,f6:90:cc:01:6d:25, 2015-01-01 01:23:53.450, 0.932, 0.094, -0.304, -0.244, -0.061, 0, 162.927, -71.461, 10.893, -28.407, -13.073, 7.453, 32.33, 0.05722, 0.80615, -0.00122, 0.58887,
 15:01:24.301,f6:90:cc:01:6d:25, 2015-01-01 01:23:53.450, 0.932, 0.095, -0.305, -0.366, -0.183, 0, 162.922, -71.455, 10.838, -28.407, -13.073, 7.453, 32.33, 0.05722, 0.80615, -0.00122, 0.58887,
 15:01:24.301,f6:90:cc:01:6d:25, 2015-01-01 01:23:53.450, 0.933, 0.097, -0.303, -0.366, -0.305, 0, 162.916, -71.444, 10.772, -28.407, -13.073, 7.453, 32.33, 0.05722, 0.80615, -0.00122, 0.58887,
 15:01:24.318,ed:40:fe:65:30:6c, 2015-01-01 01:24:07.065, 0.96, 0.108, 0.273, -1.221, 0.061, 0.183, 19.951, -72.982, -143.163, -26.760, -13.773, 9.353, 28.18, -0.34894, 0.51068, 0.31796, 0.71848,
 15:01:24.318,ed:40:fe:65:30:6c, 2015-01-01 01:24:07.065, 0.958, 0.105, 0.271, -1.404, 0.488, 0.122, 19.924, -72.982, -143.174, -26.760, -13.773, 9.353, 28.18, -0.34894, 0.51068, 0.31796, 0.71848,
 15:01:24.321,e3:ca:2d:fd:e0:8c, 2015-01-01 01:23:56.240, 0.955, 0.064, -0.341, -0.549, 0.244, 0, 169.486, -70.065, -28.026, -24.080, -10.600, 0.180, 29.66, 0.20926, 0.7789, -0.24561, 0.53766,
 15:01:24.321,e3:ca:2d:fd:e0:8c, 2015-01-01 01:23:56.240, 0.955, 0.064, -0.345, -0.427, 0.366, 0, 169.475, -70.071, -28.015, -24.080, -10.600, 0.180, 29.66, 0.20926, 0.7789, -0.24561, 0.53766,
 15:01:24.324,ed:35:33:d3:6c:f8, 2015-01-01 01:23:55.225, 0.876, 0.105, 0.46, -1.282, 0.977, -0.488, 11.986, -61.639, 138.34, -21.373, -13.287, -16.560, 32.49, -0.25351, -0.50861, 0.09756, -0.81696,
 15:01:24.324,ed:35:33:d3:6c:f8, 2015-01-01 01:23:55.225, 0.873, 0.11, 0.46, -1.221, 0.549, -0.671, 11.981, -61.622, 138.323, -21.373, -13.287, -16.560, 32.49, -0.25351, -0.50861, 0.09756, -0.81696,
 15:01:24.349,ed:40:fe:65:30:6c, 2015-01-01 01:24:07.065, 0.958, 0.1, 0.27, -0.916, 0.122, 0.366, 19.891, -72.982, -143.179, -26.760, -13.773, 9.353, 28.18, -0.34894, 0.51068, 0.31796, 0.71848,
 15:01:24.349,ed:40:fe:65:30:6c, 2015-01-01 01:24:07.065, 0.962, 0.096, 0.272, -0.61, -0.183, 0.427, 19.858, -72.988, -143.179, -26.760, -13.773, 9.353, 28.18, -0.34894, 0.51068, 0.31796, 0.71848,
 15:01:24.355,ed:35:33:d3:6c:f8, 2015-01-01 01:23:55.225, 0.873, 0.105, 0.46, -1.099, 0.732, -0.061, 11.986, -61.611, 138.296, -21.373, -13.287, -16.560, 32.49, -0.25351, -0.50861, 0.09756, -0.81696,
 15:01:24.355,ed:35:33:d3:6c:f8, 2015-01-01 01:23:55.225, 0.878, 0.098, 0.459, -1.282, 1.038, 0.061, 11.97, -61.595, 138.285, -21.373, -13.287, -16.560, 32.49, -0.25351, -0.50861, 0.09756, -0.81696,
 15:01:24.385,ed:35:33:d3:6c:f8, 2015-01-01 01:23:55.225, 0.874, 0.099, 0.458, -0.916, 1.221, 0, 11.942, -61.578, 138.257, -21.373, -13.287, -16.560, 32.49, -0.25351, -0.50861, 0.09756, -0.81696,
 15:01:24.385,ed:35:33:d3:6c:f8, 2015-01-01 01:23:55.225, 0.871, 0.098, 0.46, -0.122, 0.793, 0, 11.931, -61.556, 138.224, -21.373, -13.287, -16.560, 32.49, -0.25351, -0.50861, 0.09756, -0.81696,
 15:01:24.389,f6:90:cc:01:6d:25, 2015-01-01 01:23:53.450, 0.932, 0.098, -0.305, -0.183, -0.427, 0, 162.922, -71.428, 10.706, -28.407, -13.073, 7.453, 32.33, 0.05722, 0.80615, -0.00122, 0.58887,
 15:01:24.389,f6:90:cc:01:6d:25, 2015-01-01 01:23:53.450, 0.933, 0.093, -0.304, -0.183, -0.61, 0, 162.922, -71.411, 10.629, -28.407, -13.073, 7.453, 32.33, 0.05722, 0.80615, -0.00122, 0.58887,
 15:01:24.389,f6:90:cc:01:6d:25, 2015-01-01 01:23:53.450, 0.933, 0.093, -0.305, -0.122, -0.305, 0, 162.922, -71.4, 10.585, -28.407, -13.073, 7.453, 32.33, 0.05722, 0.80615, -0.00122, 0.58887,
 15:01:24.389,f6:90:cc:01:6d:25, 2015-01-01 01:23:53.450, 0.933, 0.093, -0.307, 0, -0.061, 0, 162.922, -71.4, 10.558, -28.407, -13.073, 7.453, 32.33, 0.05722, 0.80615, -0.00122, 0.58887,
 15:01:24.408,ed:40:fe:65:30:6c, 2015-01-01 01:24:07.065, 0.959, 0.096, 0.268, -0.244, -0.183, 0.488, 19.836, -72.999, -143.179, -26.760, -13.773, 9.353, 28.18, -0.34894, 0.51068, 0.31796, 0.71848,
 15:01:24.408,ed:40:fe:65:30:6c, 2015-01-01 01:24:07.065, 0.958, 0.095, 0.27, 0, 0, 0.366, 19.814, -73.004, -143.174, -26.760, -13.773, 9.353, 28.18, -0.34894, 0.51068, 0.31796, 0.71848,
 15:01:24.418,f6:90:cc:01:6d:25, 2015-01-01 01:23:53.450, 0.933, 0.094, -0.308, 0, -0.305, 0, 162.927, -71.389, 10.519, -28.853, -12.807, 7.340, 32.33, 0.05722, 0.80615, -0.00122, 0.58887,
 15:01:24.418,f6:90:cc:01:6d:25, 2015-01-01 01:23:53.450, 0.932, 0.094, -0.311, 0, -0.61, 0, 162.933, -71.378, 10.453, -28.853, -12.807, 7.340, 32.33, 0.05722, 0.80615, -0.00122, 0.58887,
 15:01:24.439,ed:40:fe:65:30:6c, 2015-01-01 01:24:07.065, 0.957, 0.096, 0.271, 0.671, -0.671, 0.427, 19.808, -73.021, -143.168, -26.760, -13.773, 9.353, 28.18, -0.34894, 0.51068, 0.31796, 0.71848,
 15:01:24.439,ed:40:fe:65:30:6c, 2015-01-01 01:24:07.065, 0.96, 0.103, 0.269, 0.549, -0.427, 0.549, 19.808, -73.037, -143.168, -26.760, -13.773, 9.353, 28.18, -0.34894, 0.51068, 0.31796, 0.71848,
 15:01:24.442,e3:ca:2d:fd:e0:8c, 2015-01-01 01:23:56.240, 0.955, 0.062, -0.341, -0.122, 0.305, 0, 169.47, -70.071, -27.993, -24.080, -10.600, 0.180, 29.66, 0.20926, 0.7789, -0.24561, 0.53766,
 15:01:24.442,e3:ca:2d:fd:e0:8c, 2015-01-01 01:23:56.240, 0.954, 0.062, -0.344, 0.122, 0.061, 0, 169.475, -70.071, -27.982, -24.080, -10.600, 0.180, 29.66, 0.20926, 0.7789, -0.24561, 0.53766,
 15:01:24.444,ed:35:33:d3:6c:f8, 2015-01-01 01:23:55.225, 0.871, 0.102, 0.462, 0, 0.671, 0.305, 11.926, -61.545, 138.181, -21.373, -13.287, -16.560, 32.49, -0.25351, -0.50861, 0.09756, -0.81696,
 15:01:24.444,ed:35:33:d3:6c:f8, 2015-01-01 01:23:55.225, 0.875, 0.105, 0.463, -0.244, 0.244, 0.671, 11.915, -61.54, 138.153, -21.373, -13.287, -16.560, 32.49, -0.25351, -0.50861, 0.09756, -0.81696,
 15:01:24.469,ed:40:fe:65:30:6c, 2015-01-01 01:24:07.065, 0.962, 0.104, 0.27, 0.244, -0.305, 0.671, 19.792, -73.048, -143.157, -26.580, -13.940, 9.467, 28.18, -0.34894, 0.51068, 0.31796, 0.71848,
 15:01:24.469,ed:40:fe:65:30:6c, 2015-01-01 01:24:07.065, 0.961, 0.1, 0.269, 0.061, -0.305, 0.671, 19.764, -73.065, -143.152, -26.580, -13.940, 9.467, 28.18, -0.34894, 0.51068, 0.31796, 0.71848,
 15:01:24.475,ed:35:33:d3:6c:f8, 2015-01-01 01:23:55.225, 0.877, 0.105, 0.462, -0.549, 0.061, 0.305, 11.893, -61.54, 138.12, -21.373, -13.287, -16.560, 32.49, -0.25351, -0.50861, 0.09756, -0.81696,
 15:01:24.475,ed:35:33:d3:6c:f8, 2015-01-01 01:23:55.225, 0.876, 0.101, 0.461, -0.366, -0.366, 0.244, 11.882, -61.54, 138.076, -21.373, -13.287, -16.560, 32.49, -0.25351, -0.50861, 0.09756, -0.81696,
 15:01:24.478,f6:90:cc:01:6d:25, 2015-01-01 01:23:53.450, 0.933, 0.096, -0.307, -0.122, -0.61, 0, 162.944, -71.362, 10.388, -28.853, -12.807, 7.340, 32.33, 0.05722, 0.80615, -0.00122, 0.58887,
 15:01:24.478,f6:90:cc:01:6d:25, 2015-01-01 01:23:53.450, 0.932, 0.097, -0.308, -0.427, -0.854, 0, 162.949, -71.345, 10.349, -28.853, -12.807, 7.340, 32.33, 0.05722, 0.80615, -0.00122, 0.58887,
 15:01:24.505,ed:35:33:d3:6c:f8, 2015-01-01 01:23:55.225, 0.876, 0.101, 0.461, -0.244, -0.549, 0.183, 11.876, -61.551, 138.043, -22.127, -13.160, -19.347, 32.49, -0.25351, -0.50861, 0.09756, -0.81696,
 15:01:24.505,ed:35:33:d3:6c:f8, 2015-01-01 01:23:55.225, 0.879, 0.104, 0.455, -0.183, -0.305, 0.244, 11.876, -61.562, 138.021, -22.127, -13.160, -19.347, 32.49, -0.25351, -0.50861, 0.09756, -0.81696,
 15:01:24.508,f6:90:cc:01:6d:25, 2015-01-01 01:23:53.450, 0.932, 0.096, -0.31, -0.427, -0.793, 0, 162.955, -71.323, 10.322, -28.853, -12.807, 7.340, 32.33, 0.06778, 0.8078, -0.01349, 0.5853,
 15:01:24.508,f6:90:cc:01:6d:25, 2015-01-01 01:23:53.450, 0.932, 0.094, -0.309, -0.305, -0.732, 0, 162.96, -71.307, 10.311, -28.853, -12.807, 7.340, 32.33, 0.06778, 0.8078, -0.01349, 0.5853,
 15:01:24.528,ed:40:fe:65:30:6c, 2015-01-01 01:24:07.065, 0.962, 0.098, 0.268, 0.305, -0.549, 0.366, 19.753, -73.076, -143.163, -26.580, -13.940, 9.467, 28.18, -0.34894, 0.51068, 0.31796, 0.71848,
 15:01:24.528,ed:40:fe:65:30:6c, 2015-01-01 01:24:07.065, 0.963, 0.099, 0.265, 0.549, -0.61, 0.427, 19.759, -73.092, -143.185, -26.580, -13.940, 9.467, 28.18, -0.34894, 0.51068, 0.31796, 0.71848,
 15:01:24.533,e3:ca:2d:fd:e0:8c, 2015-01-01 01:23:56.240, 0.955, 0.061, -0.347, 0.122, 0, 0, 169.475, -70.071, -27.966, -24.420, -10.620, 1.633, 29.66, 0.20926, 0.7789, -0.24561, 0.53766,
 15:01:24.533,e3:ca:2d:fd:e0:8c, 2015-01-01 01:23:56.240, 0.954, 0.062, -0.347, -0.061, -0.061, 0, 169.481, -70.065, -27.971, -24.420, -10.620, 1.633, 29.66, 0.20926, 0.7789, -0.24561, 0.53766,
 15:01:24.558,ed:40:fe:65:30:6c, 2015-01-01 01:24:07.065, 0.965, 0.099, 0.265, 0.549, -0.427, 0.488, 19.759, -73.109, -143.19, -26.580, -13.940, 9.467, 28.18, -0.34692, 0.513, 0.31604, 0.71866,
 15:01:24.558,ed:40:fe:65:30:6c, 2015-01-01 01:24:07.065, 0.964, 0.098, 0.266, 0, 0.061, 0.244, 19.753, -73.114, -143.196, -26.580, -13.940, 9.467, 28.18, -0.34692, 0.513, 0.31604, 0.71866,
 15:01:24.562,e3:ca:2d:fd:e0:8c, 2015-01-01 01:23:56.240, 0.911, 0.062, -0.349, 0, -0.122, 0, 169.486, -70.06, -27.977, -24.420, -10.620, 1.633, 29.66, 0.20926, 0.7789, -0.24561, 0.53766,
 15:01:24.562,e3:ca:2d:fd:e0:8c, 2015-01-01 01:23:56.240, 0.974, 0.065, -0.361, 1.892, -6.348, 0, 169.59, -69.933, -28.065, -24.420, -10.620, 1.633, 29.66, 0.20926, 0.7789, -0.24561, 0.53766,
 15:01:24.565,ed:35:33:d3:6c:f8, 2015-01-01 01:23:55.225, 0.88, 0.101, 0.453, -0.061, -0.122, 0.305, 11.876, -61.573, 137.977, -22.127, -13.160, -19.347, 32.49, -0.25351, -0.50861, 0.09756, -0.81696,
 15:01:24.565,ed:35:33:d3:6c:f8, 2015-01-01 01:23:55.225, 0.88, 0.101, 0.454, -0.366, -0.244, 0.183, 11.871, -61.578, 137.933, -22.127, -13.160, -19.347, 32.49, -0.25351, -0.50861, 0.09756, -0.81696,
 15:01:24.569,f6:90:cc:01:6d:25, 2015-01-01 01:23:53.450, 0.932, 0.094, -0.309, -0.244, -0.183, 0, 162.96, -71.29, 10.3, -28.853, -12.807, 7.340, 32.33, 0.06778, 0.8078, -0.01349, 0.5853,
 15:01:24.569,f6:90:cc:01:6d:25, 2015-01-01 01:23:53.450, 0.932, 0.094, -0.308, -0.061, 0, 0, 162.96, -71.279, 10.289, -28.853, -12.807, 7.340, 32.33, 0.06778, 0.8078, -0.01349, 0.5853,
 15:01:24.588,ed:40:fe:65:30:6c, 2015-01-01 01:24:07.065, 0.965, 0.094, 0.263, 0.671, 0.244, 0.366, 19.742, -73.12, -143.19, -26.580, -13.940, 9.467, 28.18, -0.34692, 0.513, 0.31604, 0.71866,
 15:01:24.588,ed:40:fe:65:30:6c, 2015-01-01 01:24:07.065, 0.962, 0.097, 0.267, 1.099, -0.061, 0.366, 19.748, -73.125, -143.185, -26.580, -13.940, 9.467, 28.18, -0.34692, 0.513, 0.31604, 0.71866,
 15:01:24.594,ed:35:33:d3:6c:f8, 2015-01-01 01:23:55.225, 0.881, 0.1, 0.457, 0, -0.183, 0.488, 11.871, -61.589, 137.906, -22.127, -13.160, -19.347, 32.49, -0.25705, -0.50711, 0.09964, -0.81653,
 15:01:24.594,ed:35:33:d3:6c:f8, 2015-01-01 01:23:55.225, 0.877, 0.098, 0.458, 0.061, 0, 0.732, 11.86, -61.595, 137.889, -22.127, -13.160, -19.347, 32.49, -0.25705, -0.50711, 0.09964, -0.81653,
 15:01:24.598,f6:90:cc:01:6d:25, 2015-01-01 01:23:54.135, 0.932, 0.095, -0.31, 0.183, 0.183, 0, 162.955, -71.279, 10.294, -28.853, -12.807, 7.340, 32.33, 0.06778, 0.8078, -0.01349, 0.5853,
 15:01:24.598,f6:90:cc:01:6d:25, 2015-01-01 01:23:54.135, 0.932, 0.094, -0.31, 0.244, 0.61, 0, 162.955, -71.279, 10.283, -28.853, -12.807, 7.340, 32.33, 0.06778, 0.8078, -0.01349, 0.5853,
 15:01:24.622,e3:ca:2d:fd:e0:8c, 2015-01-01 01:23:56.240, 0.955, 0.064, -0.347, -0.122, -0.488, 0, 169.59, -69.917, -28.087, -24.420, -10.620, 1.633, 29.66, 0.20926, 0.7789, -0.24561, 0.53766,
 15:01:24.622,e3:ca:2d:fd:e0:8c, 2015-01-01 01:23:56.240, 0.955, 0.063, -0.347, -0.183, 0.183, 0, 169.59, -69.917, -28.103, -24.420, -10.620, 1.633, 29.66, 0.20926, 0.7789, -0.24561, 0.53766,
 15:01:24.626,ed:35:33:d3:6c:f8, 2015-01-01 01:23:55.225, 0.875, 0.101, 0.46, 0, 0.183, 0.488, 11.843, -61.6, 137.884, -22.127, -13.160, -19.347, 32.49, -0.25705, -0.50711, 0.09964, -0.81653,
 15:01:24.626,ed:35:33:d3:6c:f8, 2015-01-01 01:23:55.225, 0.872, 0.101, 0.461, 0, 0.61, 0.122, 11.832, -61.6, 137.873, -22.127, -13.160, -19.347, 32.49, -0.25705, -0.50711, 0.09964, -0.81653,
 15:01:24.647,ed:40:fe:65:30:6c, 2015-01-01 01:24:07.420, 0.96, 0.1, 0.27, 0.549, 0.061, 0.183, 19.748, -73.13, -143.185, -26.580, -13.940, 9.467, 28.18, -0.34692, 0.513, 0.31604, 0.71866,
 15:01:24.647,ed:40:fe:65:30:6c, 2015-01-01 01:24:07.420, 0.957, 0.102, 0.27, 0, 0.366, 0.061, 19.748, -73.13, -143.19, -26.580, -13.940, 9.467, 28.18, -0.34692, 0.513, 0.31604, 0.71866,
 15:01:24.653,e3:ca:2d:fd:e0:8c, 2015-01-01 01:23:56.240, 0.954, 0.063, -0.349, -0.183, 0.061, 0, 169.585, -69.911, -28.13, -24.420, -10.620, 1.633, 29.66, 0.21082, 0.77902, -0.24878, 0.5354,
 15:01:24.653,e3:ca:2d:fd:e0:8c, 2015-01-01 01:23:56.240, 0.954, 0.062, -0.345, -0.244, 0.244, 0, 169.579, -69.917, -28.147, -24.420, -10.620, 1.633, 29.66, 0.21082, 0.77902, -0.24878, 0.5354,
 15:01:24.658,f6:90:cc:01:6d:25, 2015-01-01 01:23:54.135, 0.932, 0.094, -0.309, 0.183, 0.671, 0, 162.949, -71.285, 10.267, -28.853, -12.807, 7.340, 32.33, 0.06778, 0.8078, -0.01349, 0.5853,
 15:01:24.658,f6:90:cc:01:6d:25, 2015-01-01 01:23:54.135, 0.932, 0.095, -0.308, 0.122, 0.366, 0, 162.944, -71.29, 10.261, -28.853, -12.807, 7.340, 32.33, 0.06778, 0.8078, -0.01349, 0.5853,
 15:01:24.679,ed:40:fe:65:30:6c, 2015-01-01 01:24:07.420, 0.955, 0.101, 0.271, -0.732, 0.427, -0.122, 19.737, -73.125, -143.207, -26.580, -13.940, 9.467, 28.18, -0.34692, 0.513, 0.31604, 0.71866,
 15:01:24.679,ed:40:fe:65:30:6c, 2015-01-01 01:24:07.420, 0.957, 0.102, 0.275, -1.526, 0.488, -0.183, 19.72, -73.12, -143.234, -26.580, -13.940, 9.467, 28.18, -0.34692, 0.513, 0.31604, 0.71866,
 15:01:24.684,ed:35:33:d3:6c:f8, 2015-01-01 01:23:55.580, 0.868, 0.1, 0.463, -0.305, 1.038, -0.427, 11.832, -61.589, 137.84, -22.127, -13.160, -19.347, 32.49, -0.25705, -0.50711, 0.09964, -0.81653,
 15:01:24.684,ed:35:33:d3:6c:f8, 2015-01-01 01:23:55.580, 0.87, 0.103, 0.468, -0.977, 0.916, -1.16, 11.849, -61.567, 137.78, -22.127, -13.160, -19.347, 32.49, -0.25705, -0.50711, 0.09964, -0.81653,
 15:01:24.688,f6:90:cc:01:6d:25, 2015-01-01 01:23:54.135, 0.932, 0.096, -0.308, 0, 0.183, 0, 162.938, -71.296, 10.289, -28.853, -12.807, 7.340, 32.33, 0.06778, 0.8078, -0.01349, 0.5853,
 15:01:24.688,f6:90:cc:01:6d:25, 2015-01-01 01:23:54.135, 0.932, 0.094, -0.308, -0.061, 0, 0, 162.938, -71.29, 10.3, -28.853, -12.807, 7.340, 32.33, 0.06778, 0.8078, -0.01349, 0.5853,
 15:01:24.708,ed:40:fe:65:30:6c, 2015-01-01 01:24:07.420, 0.962, 0.099, 0.276, -1.831, 0.549, 0.061, 19.677, -73.114, -143.262, -26.580, -13.940, 9.467, 28.18, -0.34692, 0.513, 0.31604, 0.71866,
 15:01:24.708,ed:40:fe:65:30:6c, 2015-01-01 01:24:07.420, 0.959, 0.094, 0.27, -0.916, 0.244, 0.305, 19.638, -73.109, -143.273, -26.580, -13.940, 9.467, 28.18, -0.34692, 0.513, 0.31604, 0.71866,
 15:01:24.713,e3:ca:2d:fd:e0:8c, 2015-01-01 01:23:56.240, 0.954, 0.062, -0.346, -0.183, -0.061, 0, 169.579, -69.911, -28.163, -24.420, -10.620, 1.633, 29.66, 0.21082, 0.77902, -0.24878, 0.5354,
 15:01:24.713,e3:ca:2d:fd:e0:8c, 2015-01-01 01:23:56.240, 0.955, 0.062, -0.346, 0, 0, 0, 169.579, -69.906, -28.158, -24.420, -10.620, 1.633, 29.66, 0.21082, 0.77902, -0.24878, 0.5354,
 15:01:24.713,e3:ca:2d:fd:e0:8c, 2015-01-01 01:23:56.240, 0.954, 0.062, -0.345, 0, 0.061, 0, 169.585, -69.906, -28.152, -24.420, -10.620, 1.633, 29.66, 0.21082, 0.77902, -0.24878, 0.5354,
 15:01:24.713,e3:ca:2d:fd:e0:8c, 2015-01-01 01:23:56.240, 0.954, 0.061, -0.348, 0, 0.122, 0, 169.585, -69.906, -28.141, -24.420, -10.620, 1.633, 29.66, 0.21082, 0.77902, -0.24878, 0.5354,
 15:01:24.715,ed:35:33:d3:6c:f8, 2015-01-01 01:23:55.580, 0.875, 0.104, 0.468, -0.977, 0.793, -1.404, 11.876, -61.545, 137.697, -22.127, -13.160, -19.347, 32.49, -0.25705, -0.50711, 0.09964, -0.81653,
 15:01:24.715,ed:35:33:d3:6c:f8, 2015-01-01 01:23:55.580, 0.872, 0.101, 0.464, -0.61, 0.549, -0.793, 11.904, -61.529, 137.615, -22.127, -13.160, -19.347, 32.49, -0.25705, -0.50711, 0.09964, -0.81653,
 15:01:24.718,f6:90:cc:01:6d:25, 2015-01-01 01:23:54.135, 0.933, 0.093, -0.307, -0.122, -0.122, 0, 162.933, -71.285, 10.278, -28.853, -12.807, 7.340, 32.33, 0.06778, 0.8078, -0.01349, 0.5853,
 15:01:24.718,f6:90:cc:01:6d:25, 2015-01-01 01:23:54.135, 0.932, 0.094, -0.305, -0.183, -0.427, 0, 162.933, -71.279, 10.245, -28.853, -12.807, 7.340, 32.33, 0.06778, 0.8078, -0.01349, 0.5853,
 15:01:24.743,e3:ca:2d:fd:e0:8c, 2015-01-01 01:23:56.240, 0.954, 0.062, -0.349, -0.061, 0.122, 0, 169.585, -69.906, -28.147, -24.420, -10.620, 1.633, 29.66, 0.21082, 0.77902, -0.24878, 0.5354,
 15:01:24.743,e3:ca:2d:fd:e0:8c, 2015-01-01 01:23:56.240, 0.954, 0.062, -0.348, -0.122, 0.183, 0, 169.579, -69.906, -28.147, -24.420, -10.620, 1.633, 29.66, 0.21082, 0.77902, -0.24878, 0.5354,
 15:01:24.745,ed:35:33:d3:6c:f8, 2015-01-01 01:23:55.580, 0.874, 0.097, 0.459, -0.61, 0.305, -0.183, 11.909, -61.518, 137.554, -22.127, -13.160, -19.347, 32.49, -0.25705, -0.50711, 0.09964, -0.81653,
 15:01:24.745,ed:35:33:d3:6c:f8, 2015-01-01 01:23:55.580, 0.876, 0.097, 0.457, -0.366, 0.244, 0.366, 11.898, -61.512, 137.516, -22.127, -13.160, -19.347, 32.49, -0.25705, -0.50711, 0.09964, -0.81653,
 15:01:24.768,ed:40:fe:65:30:6c, 2015-01-01 01:24:07.420, 0.96, 0.094, 0.27, 0, -0.305, 0.183, 19.627, -73.114, -143.306, -26.580, -13.940, 9.467, 28.18, -0.34692, 0.513, 0.31604, 0.71866,
 15:01:24.768,ed:40:fe:65:30:6c, 2015-01-01 01:24:07.420, 0.962, 0.093, 0.266, 0.732, -0.427, 0, 19.649, -73.125, -143.344, -26.580, -13.940, 9.467, 28.18, -0.34692, 0.513, 0.31604, 0.71866,
 15:01:24.772,e3:ca:2d:fd:e0:8c, 2015-01-01 01:23:56.240, 0.954, 0.062, -0.347, -0.244, 0.244, 0, 169.579, -69.911, -28.158, -24.420, -10.620, 1.633, 29.66, 0.21082, 0.77902, -0.24878, 0.5354,
 15:01:24.772,e3:ca:2d:fd:e0:8c, 2015-01-01 01:23:56.240, 0.955, 0.062, -0.347, -0.305, 0.244, 0, 169.574, -69.911, -28.191, -24.420, -10.620, 1.633, 29.66, 0.21082, 0.77902, -0.24878, 0.5354,
 15:01:24.778,f6:90:cc:01:6d:25, 2015-01-01 01:23:54.135, 0.931, 0.096, -0.305, -0.122, -0.793, 0, 162.938, -71.263, 10.228, -28.853, -12.807, 7.340, 32.33, 0.06778, 0.8078, -0.01349, 0.5853,
 15:01:24.778,f6:90:cc:01:6d:25, 2015-01-01 01:23:54.135, 0.932, 0.096, -0.308, -0.122, -0.793, 0, 162.949, -71.246, 10.195, -28.853, -12.807, 7.340, 32.33, 0.06778, 0.8078, -0.01349, 0.5853,
 15:01:24.799,ed:40:fe:65:30:6c, 2015-01-01 01:24:07.420, 0.961, 0.095, 0.265, 0.854, -0.488, -0.305, 19.693, -73.136, -143.405, -26.580, -13.940, 9.467, 28.18, -0.34692, 0.513, 0.31604, 0.71866,
 15:01:24.799,ed:40:fe:65:30:6c, 2015-01-01 01:24:07.420, 0.962, 0.098, 0.267, 0.61, -0.122, -0.549, 19.742, -73.141, -143.47, -26.580, -13.940, 9.467, 28.18, -0.34692, 0.513, 0.31604, 0.71866,
 15:01:24.802,e3:ca:2d:fd:e0:8c, 2015-01-01 01:23:56.775, 0.954, 0.062, -0.347, -0.061, 0, 0, 169.574, -69.911, -28.24, -24.420, -10.620, 1.633, 29.66, 0.21082, 0.77902, -0.24878, 0.5354,
 15:01:24.802,e3:ca:2d:fd:e0:8c, 2015-01-01 01:23:56.775, 0.953, 0.062, -0.345, 0.061, -0.183, 0, 169.579, -69.906, -28.284, -24.420, -10.620, 1.633, 29.66, 0.21082, 0.77902, -0.24878, 0.5354,
 15:01:24.802,e3:ca:2d:fd:e0:8c, 2015-01-01 01:23:56.775, 0.955, 0.063, -0.346, 0.122, -0.122, 0, 169.585, -69.901, -28.328, -24.420, -10.620, 1.633, 29.66, 0.21082, 0.77902, -0.24878, 0.5354,
 15:01:24.802,e3:ca:2d:fd:e0:8c, 2015-01-01 01:23:56.775, 0.954, 0.062, -0.344, 0, 0, 0, 169.59, -69.901, -28.372, -24.420, -10.620, 1.633, 29.66, 0.21082, 0.77902, -0.24878, 0.5354,
 15:01:24.804,ed:35:33:d3:6c:f8, 2015-01-01 01:23:55.580, 0.875, 0.095, 0.455, 0, 0.061, 0.732, 11.876, -61.512, 137.494, -22.127, -13.160, -19.347, 32.49, -0.25705, -0.50711, 0.09964, -0.81653,
 15:01:24.804,ed:35:33:d3:6c:f8, 2015-01-01 01:23:55.580, 0.875, 0.097, 0.458, 0.916, 0, 0.183, 11.876, -61.518, 137.477, -22.127, -13.160, -19.347, 32.49, -0.25705, -0.50711, 0.09964, -0.81653,
 15:01:24.828,ed:40:fe:65:30:6c, 2015-01-01 01:24:07.420, 0.961, 0.099, 0.267, 0.671, 0, -0.732, 19.797, -73.141, -143.542, -26.420, -13.880, 8.633, 28.18, -0.34692, 0.513, 0.31604, 0.71866,
 15:01:24.828,ed:40:fe:65:30:6c, 2015-01-01 01:24:07.420, 0.965, 0.095, 0.265, 1.038, -0.183, -0.854, 19.874, -73.141, -143.624, -26.420, -13.880, 8.633, 28.18, -0.34692, 0.513, 0.31604, 0.71866,
 15:01:24.832,e3:ca:2d:fd:e0:8c, 2015-01-01 01:23:56.775, 0.954, 0.062, -0.343, -0.183, -0.061, 0, 169.59, -69.895, -28.416, -24.420, -10.620, 1.633, 29.66, 0.21082, 0.77902, -0.24878, 0.5354,
 15:01:24.832,e3:ca:2d:fd:e0:8c, 2015-01-01 01:23:56.775, 0.954, 0.062, -0.346, 0, -0.244, 0, 169.596, -69.89, -28.444, -24.420, -10.620, 1.633, 29.66, 0.21082, 0.77902, -0.24878, 0.5354,
 15:01:24.835,ed:35:33:d3:6c:f8, 2015-01-01 01:23:55.580, 0.876, 0.099, 0.46, 1.709, 0.305, -0.671, 11.909, -61.518, 137.417, -22.127, -13.160, -19.347, 32.49, -0.25705, -0.50711, 0.09964, -0.81653,
 15:01:24.835,ed:35:33:d3:6c:f8, 2015-01-01 01:23:55.580, 0.88, 0.1, 0.46, 1.526, 0.488, -1.038, 11.975, -61.507, 137.357, -22.127, -13.160, -19.347, 32.49, -0.25705, -0.50711, 0.09964, -0.81653,
 15:01:24.839,f6:90:cc:01:6d:25, 2015-01-01 01:23:54.135, 0.932, 0.094, -0.308, -0.244, -0.427, 0, 162.96, -71.23, 10.162, -28.853, -12.807, 7.340, 32.33, 0.06778, 0.8078, -0.01349, 0.5853,
 15:01:24.839,f6:90:cc:01:6d:25, 2015-01-01 01:23:54.135, 0.932, 0.094, -0.308, -0.122, -0.122, 0, 162.96, -71.219, 10.14, -28.853, -12.807, 7.340, 32.33, 0.06778, 0.8078, -0.01349, 0.5853,
 15:01:24.839,f6:90:cc:01:6d:25, 2015-01-01 01:23:54.135, 0.932, 0.095, -0.309, 0, -0.061, 0, 162.96, -71.213, 10.113, -28.853, -12.807, 7.340, 32.33, 0.06778, 0.8078, -0.01349, 0.5853,
 15:01:24.839,f6:90:cc:01:6d:25, 2015-01-01 01:23:54.135, 0.933, 0.095, -0.313, -0.244, 0.122, 0, 162.955, -71.213, 10.091, -28.853, -12.807, 7.340, 32.33, 0.06778, 0.8078, -0.01349, 0.5853,
 15:01:24.862,e3:ca:2d:fd:e0:8c, 2015-01-01 01:23:56.775, 0.953, 0.063, -0.349, -0.183, -0.122, 0, 169.596, -69.884, -28.471, -24.420, -10.620, 1.633, 29.66, 0.21082, 0.77902, -0.24878, 0.5354,
 15:01:24.862,e3:ca:2d:fd:e0:8c, 2015-01-01 01:23:56.775, 0.955, 0.061, -0.353, -0.427, -0.183, 0, 169.59, -69.879, -28.493, -24.420, -10.620, 1.633, 29.66, 0.21082, 0.77902, -0.24878, 0.5354,
 15:01:24.865,ed:35:33:d3:6c:f8, 2015-01-01 01:23:55.580, 0.884, 0.103, 0.46, 1.099, 0.916, -0.977, 12.03, -61.496, 137.296, -21.653, -13.380, -19.593, 32.49, -0.25705, -0.50711, 0.09964, -0.81653,
 15:01:24.865,ed:35:33:d3:6c:f8, 2015-01-01 01:23:55.580, 0.88, 0.108, 0.462, 1.221, 0.549, -0.916, 12.085, -61.479, 137.236, -21.653, -13.380, -19.593, 32.49, -0.25705, -0.50711, 0.09964, -0.81653,
 15:01:24.889,ed:40:fe:65:30:6c, 2015-01-01 01:24:07.420, 0.97, 0.099, 0.267, 0.671, -0.488, -0.732, 19.946, -73.147, -143.712, -26.420, -13.880, 8.633, 28.18, -0.34692, 0.513, 0.31604, 0.71866,
 15:01:24.889,ed:40:fe:65:30:6c, 2015-01-01 01:24:07.420, 0.965, 0.104, 0.266, 0.183, 0, -0.854, 20.006, -73.152, -143.806, -26.420, -13.880, 8.633, 28.18, -0.34692, 0.513, 0.31604, 0.71866,
 15:01:24.919,ed:40:fe:65:30:6c, 2015-01-01 01:24:07.420, 0.965, 0.102, 0.264, 0.61, -0.183, -0.671, 20.067, -73.152, -143.893, -26.420, -13.880, 8.633, 28.18, -0.34418, 0.5144, 0.31488, 0.71948,
 15:01:24.919,ed:40:fe:65:30:6c, 2015-01-01 01:24:07.420, 0.96, 0.1, 0.265, 0.427, -0.366, -0.549, 20.121, -73.158, -143.965, -26.420, -13.880, 8.633, 28.18, -0.34418, 0.5144, 0.31488, 0.71948,
 15:01:24.922,e3:ca:2d:fd:e0:8c, 2015-01-01 01:23:56.775, 0.956, 0.061, -0.352, -0.122, 0.122, 0, 169.59, -69.879, -28.531, -24.420, -10.620, 1.633, 29.66, 0.21082, 0.77902, -0.24878, 0.5354,
 15:01:24.922,e3:ca:2d:fd:e0:8c, 2015-01-01 01:23:56.775, 0.955, 0.063, -0.353, -0.061, 0.122, 0, 169.59, -69.879, -28.559, -24.420, -10.620, 1.633, 29.66, 0.21082, 0.77902, -0.24878, 0.5354,
 15:01:24.925,ed:35:33:d3:6c:f8, 2015-01-01 01:23:55.580, 0.879, 0.109, 0.463, 0.977, 0.61, -0.488, 12.134, -61.469, 137.192, -21.653, -13.380, -19.593, 32.49, -0.25705, -0.50711, 0.09964, -0.81653,
 15:01:24.925,ed:35:33:d3:6c:f8, 2015-01-01 01:23:55.580, 0.873, 0.103, 0.46, 0, 0.61, -0.183, 12.151, -61.458, 137.17, -21.653, -13.380, -19.593, 32.49, -0.25705, -0.50711, 0.09964, -0.81653,
 15:01:24.928,f6:90:cc:01:6d:25, 2015-01-01 01:23:54.135, 0.933, 0.094, -0.316, -0.244, 0.183, 0, 162.949, -71.208, 10.069, -28.607, -12.900, 8.027, 32.33, 0.06778, 0.8078, -0.01349, 0.5853,
 15:01:24.928,f6:90:cc:01:6d:25, 2015-01-01 01:23:54.135, 0.933, 0.096, -0.315, -0.122, 0.122, 0, 162.944, -71.208, 10.058, -28.607, -12.900, 8.027, 32.33, 0.06778, 0.8078, -0.01349, 0.5853,
 15:01:24.930,f6:90:cc:01:6d:25, 2015-01-01 01:23:54.135, 0.932, 0.097, -0.317, 0.061, 0.183, 0, 162.938, -71.208, 10.036, -28.607, -12.900, 8.027, 32.33, 0.06778, 0.8078, -0.01349, 0.5853,
 15:01:24.930,f6:90:cc:01:6d:25, 2015-01-01 01:23:54.135, 0.932, 0.095, -0.313, -0.061, 0.183, 0, 162.938, -71.202, 10.009, -28.607, -12.900, 8.027, 32.33, 0.06778, 0.8078, -0.01349, 0.5853,
 15:01:24.952,e3:ca:2d:fd:e0:8c, 2015-01-01 01:23:56.775, 0.954, 0.063, -0.355, 0.122, 0.061, 0, 169.596, -69.879, -28.592, -24.420, -10.620, 1.633, 29.66, 0.21082, 0.77902, -0.24878, 0.5354,
 15:01:24.952,e3:ca:2d:fd:e0:8c, 2015-01-01 01:23:56.775, 0.953, 0.062, -0.349, 0, 0.122, 0, 169.601, -69.873, -28.625, -24.420, -10.620, 1.633, 29.66, 0.21082, 0.77902, -0.24878, 0.5354,
 15:01:24.954,ed:35:33:d3:6c:f8, 2015-01-01 01:23:55.580, 0.87, 0.101, 0.461, -0.488, 0.366, -0.732, 12.167, -61.447, 137.126, -21.653, -13.380, -19.593, 32.49, -0.2616, -0.50629, 0.10077, -0.81546,
 15:01:24.954,ed:35:33:d3:6c:f8, 2015-01-01 01:23:55.580, 0.867, 0.1, 0.462, 0, 0.427, -0.916, 12.189, -61.441, 137.076, -21.653, -13.380, -19.593, 32.49, -0.2616, -0.50629, 0.10077, -0.81546,
 15:01:24.958,f6:90:cc:01:6d:25, 2015-01-01 01:23:54.135, 0.931, 0.094, -0.312, -0.183, 0.244, 0, 162.933, -71.202, 9.987, -28.607, -12.900, 8.027, 32.33, 0.07007, 0.8085, -0.01608, 0.58398,
 15:01:24.958,f6:90:cc:01:6d:25, 2015-01-01 01:23:54.135, 0.931, 0.096, -0.31, -0.061, 0.244, 0, 162.927, -71.202, 9.965, -28.607, -12.900, 8.027, 32.33, 0.07007, 0.8085, -0.01608, 0.58398,
 15:01:24.978,ed:40:fe:65:30:6c, 2015-01-01 01:24:07.420, 0.956, 0.1, 0.266, -0.122, -0.061, -0.671, 20.165, -73.163, -144.036, -26.420, -13.880, 8.633, 28.18, -0.34418, 0.5144, 0.31488, 0.71948,
 15:01:24.978,ed:40:fe:65:30:6c, 2015-01-01 01:24:07.420, 0.955, 0.099, 0.267, 0, -0.183, -0.916, 20.226, -73.163, -144.119, -26.420, -13.880, 8.633, 28.18, -0.34418, 0.5144, 0.31488, 0.71948,
 15:01:24.986,e3:ca:2d:fd:e0:8c, 2015-01-01 01:23:56.775, 0.953, 0.062, -0.347, 0.183, 0.122, 0, 169.607, -69.873, -28.669, -24.420, -10.620, 1.633, 29.66, 0.21082, 0.77902, -0.24878, 0.5354,
 15:01:24.986,e3:ca:2d:fd:e0:8c, 2015-01-01 01:23:56.775, 0.954, 0.062, -0.346, 0.122, 0.366, 0, 169.607, -69.879, -28.707, -24.420, -10.620, 1.633, 29.66, 0.21082, 0.77902, -0.24878, 0.5354,
 15:01:24.988,ed:35:33:d3:6c:f8, 2015-01-01 01:23:55.580, 0.87, 0.101, 0.462, 0.244, 0.488, -1.282, 12.233, -61.43, 137, -21.653, -13.380, -19.593, 32.49, -0.2616, -0.50629, 0.10077, -0.81546,
 15:01:24.988,ed:35:33:d3:6c:f8, 2015-01-01 01:23:55.580, 0.872, 0.103, 0.461, 0.427, 0.671, -1.343, 12.283, -61.414, 136.923, -21.653, -13.380, -19.593, 32.49, -0.2616, -0.50629, 0.10077, -0.81546,
 15:01:25.009,ed:40:fe:65:30:6c, 2015-01-01 01:24:07.775, 0.958, 0.1, 0.27, -0.366, -0.122, -1.221, 20.297, -73.163, -144.218, -26.420, -13.880, 8.633, 28.18, -0.34418, 0.5144, 0.31488, 0.71948,
 15:01:25.009,ed:40:fe:65:30:6c, 2015-01-01 01:24:07.775, 0.959, 0.097, 0.268, 0.122, -0.244, -1.221, 20.38, -73.163, -144.305, -26.420, -13.880, 8.633, 28.18, -0.34418, 0.5144, 0.31488, 0.71948,
 15:01:25.011,e3:ca:2d:fd:e0:8c, 2015-01-01 01:23:56.775, 0.954, 0.062, -0.343, -0.244, 0.305, 0, 169.601, -69.879, -28.757, -24.767, -10.333, 0.413, 29.66, 0.21082, 0.77902, -0.24878, 0.5354,
 15:01:25.011,e3:ca:2d:fd:e0:8c, 2015-01-01 01:23:56.775, 0.954, 0.061, -0.343, -0.244, 0, 0, 169.601, -69.879, -28.784, -24.767, -10.333, 0.413, 29.66, 0.21082, 0.77902, -0.24878, 0.5354,
 15:01:25.039,ed:40:fe:65:30:6c, 2015-01-01 01:24:07.775, 0.96, 0.098, 0.269, 0.854, -0.183, -1.038, 20.462, -73.158, -144.382, -26.420, -13.880, 8.633, 28.18, -0.34418, 0.5144, 0.31488, 0.71948,
 15:01:25.039,ed:40:fe:65:30:6c, 2015-01-01 01:24:07.775, 0.964, 0.101, 0.27, 1.221, -0.244, -0.916, 20.544, -73.163, -144.465, -26.420, -13.880, 8.633, 28.18, -0.34418, 0.5144, 0.31488, 0.71948,
 15:01:25.045,ed:35:33:d3:6c:f8, 2015-01-01 01:23:55.940, 0.873, 0.103, 0.462, 0.366, 0.61, -0.916, 12.327, -61.403, 136.846, -21.653, -13.380, -19.593, 32.49, -0.2616, -0.50629, 0.10077, -0.81546,
 15:01:25.045,ed:35:33:d3:6c:f8, 2015-01-01 01:23:55.940, 0.877, 0.104, 0.465, 0.977, 0.61, -0.854, 12.371, -61.386, 136.785, -21.653, -13.380, -19.593, 32.49, -0.2616, -0.50629, 0.10077, -0.81546,
 15:01:25.050,f6:90:cc:01:6d:25, 2015-01-01 01:23:54.135, 0.931, 0.095, -0.307, -0.183, 0.061, 0, 162.922, -71.197, 9.943, -28.607, -12.900, 8.027, 32.33, 0.07007, 0.8085, -0.01608, 0.58398,
 15:01:25.050,f6:90:cc:01:6d:25, 2015-01-01 01:23:54.135, 0.932, 0.093, -0.304, -0.305, 0, 0, 162.916, -71.191, 9.921, -28.607, -12.900, 8.027, 32.33, 0.07007, 0.8085, -0.01608, 0.58398,
 15:01:25.050,f6:90:cc:01:6d:25, 2015-01-01 01:23:54.135, 0.932, 0.093, -0.307, -0.183, 0.183, 0, 162.911, -71.191, 9.899, -28.607, -12.900, 8.027, 32.33, 0.07007, 0.8085, -0.01608, 0.58398,
 15:01:25.050,f6:90:cc:01:6d:25, 2015-01-01 01:23:54.135, 0.932, 0.094, -0.31, 0, 0.427, 0, 162.905, -71.191, 9.882, -28.607, -12.900, 8.027, 32.33, 0.07007, 0.8085, -0.01608, 0.58398,
 15:01:25.073,e3:ca:2d:fd:e0:8c, 2015-01-01 01:23:56.775, 0.955, 0.062, -0.345, -0.366, -0.122, 0, 169.596, -69.873, -28.79, -24.767, -10.333, 0.413, 29.66, 0.21082, 0.77902, -0.24878, 0.5354,
 15:01:25.073,e3:ca:2d:fd:e0:8c, 2015-01-01 01:23:56.775, 0.955, 0.062, -0.348, -0.244, 0.061, 0, 169.596, -69.873, -28.795, -24.767, -10.333, 0.413, 29.66, 0.21082, 0.77902, -0.24878, 0.5354,
 15:01:25.074,ed:35:33:d3:6c:f8, 2015-01-01 01:23:55.940, 0.875, 0.107, 0.467, 1.343, 0.732, -0.854, 12.42, -61.37, 136.719, -21.653, -13.380, -19.593, 32.49, -0.2616, -0.50629, 0.10077, -0.81546,
 15:01:25.074,ed:35:33:d3:6c:f8, 2015-01-01 01:23:55.940, 0.871, 0.111, 0.468, 1.221, 0.671, -1.038, 12.475, -61.353, 136.659, -21.653, -13.380, -19.593, 32.49, -0.2616, -0.50629, 0.10077, -0.81546,
 15:01:25.098,ed:40:fe:65:30:6c, 2015-01-01 01:24:07.775, 0.963, 0.105, 0.27, 1.221, -0.427, -0.977, 20.638, -73.163, -144.553, -26.420, -13.880, 8.633, 28.18, -0.34418, 0.5144, 0.31488, 0.71948,
 15:01:25.098,ed:40:fe:65:30:6c, 2015-01-01 01:24:07.775, 0.959, 0.109, 0.27, 0.61, -0.366, -1.16, 20.726, -73.169, -144.651, -26.420, -13.880, 8.633, 28.18, -0.34418, 0.5144, 0.31488, 0.71948,
 15:01:25.103,e3:ca:2d:fd:e0:8c, 2015-01-01 01:23:56.775, 0.954, 0.063, -0.346, -0.549, 0, 0, 169.59, -69.873, -28.817, -24.767, -10.333, 0.413, 29.66, 0.21399, 0.77771, -0.25354, 0.53381,
 15:01:25.103,e3:ca:2d:fd:e0:8c, 2015-01-01 01:23:56.775, 0.955, 0.064, -0.346, -0.427, -0.061, 0, 169.579, -69.873, -28.861, -24.767, -10.333, 0.413, 29.66, 0.21399, 0.77771, -0.25354, 0.53381,
 15:01:25.104,ed:35:33:d3:6c:f8, 2015-01-01 01:23:55.940, 0.872, 0.113, 0.466, 0.61, 0.732, -1.16, 12.53, -61.337, 136.593, -21.653, -13.380, -19.593, 32.49, -0.2616, -0.50629, 0.10077, -0.81546,
 15:01:25.104,ed:35:33:d3:6c:f8, 2015-01-01 01:23:55.940, 0.872, 0.113, 0.464, -0.122, 0.793, -1.16, 12.574, -61.32, 136.527, -21.653, -13.380, -19.593, 32.49, -0.2616, -0.50629, 0.10077, -0.81546,
 15:01:25.129,ed:40:fe:65:30:6c, 2015-01-01 01:24:07.775, 0.959, 0.108, 0.267, 0.366, -0.427, -1.038, 20.814, -73.169, -144.75, -26.420, -13.880, 8.633, 28.18, -0.34418, 0.5144, 0.31488, 0.71948,
 15:01:25.129,ed:40:fe:65:30:6c, 2015-01-01 01:24:07.775, 0.961, 0.108, 0.268, 0.183, -0.305, -0.854, 20.885, -73.169, -144.833, -26.420, -13.880, 8.633, 28.18, -0.34418, 0.5144, 0.31488, 0.71948,
 15:01:25.133,e3:ca:2d:fd:e0:8c, 2015-01-01 01:23:56.775, 0.954, 0.063, -0.348, -0.549, 0, 0, 169.574, -69.868, -28.911, -24.767, -10.333, 0.413, 29.66, 0.21399, 0.77771, -0.25354, 0.53381,
 15:01:25.133,e3:ca:2d:fd:e0:8c, 2015-01-01 01:23:56.775, 0.954, 0.064, -0.348, -0.061, -0.061, 0, 169.568, -69.868, -28.949, -24.767, -10.333, 0.413, 29.66, 0.21399, 0.77771, -0.25354, 0.53381,
 15:01:25.139,f6:90:cc:01:6d:25, 2015-01-01 01:23:54.585, 0.932, 0.096, -0.309, -0.061, 0.305, 0, 162.9, -71.197, 9.866, -28.607, -12.900, 8.027, 32.33, 0.07007, 0.8085, -0.01608, 0.58398,
 15:01:25.139,f6:90:cc:01:6d:25, 2015-01-01 01:23:54.585, 0.932, 0.097, -0.308, -0.244, 0.305, 0, 162.894, -71.197, 9.849, -28.607, -12.900, 8.027, 32.33, 0.07007, 0.8085, -0.01608, 0.58398,
 15:01:25.158,ed:40:fe:65:30:6c, 2015-01-01 01:24:07.775, 0.96, 0.11, 0.266, -0.366, -0.244, -0.671, 20.934, -73.174, -144.915, -26.420, -13.880, 8.633, 28.18, -0.34418, 0.5144, 0.31488, 0.71948,
 15:01:25.158,ed:40:fe:65:30:6c, 2015-01-01 01:24:07.775, 0.959, 0.107, 0.266, -0.305, 0, -0.305, 20.956, -73.174, -144.954, -26.420, -13.880, 8.633, 28.18, -0.34418, 0.5144, 0.31488, 0.71948,
 15:01:25.166,ed:35:33:d3:6c:f8, 2015-01-01 01:23:55.940, 0.872, 0.116, 0.463, -0.427, 0.671, -0.977, 12.607, -61.298, 136.467, -21.653, -13.380, -19.593, 32.49, -0.2616, -0.50629, 0.10077, -0.81546,
 15:01:25.166,ed:35:33:d3:6c:f8, 2015-01-01 01:23:55.940, 0.87, 0.113, 0.464, -0.732, 0.61, -0.793, 12.629, -61.287, 136.395, -21.653, -13.380, -19.593, 32.49, -0.2616, -0.50629, 0.10077, -0.81546,
 15:01:25.192,e3:ca:2d:fd:e0:8c, 2015-01-01 01:23:57.225, 0.953, 0.063, -0.349, -0.061, -0.061, 0, 169.568, -69.862, -28.987, -24.767, -10.333, 0.413, 29.66, 0.21399, 0.77771, -0.25354, 0.53381,
 15:01:25.192,e3:ca:2d:fd:e0:8c, 2015-01-01 01:23:57.225, 0.954, 0.064, -0.346, -0.305, -0.061, 0, 169.568, -69.862, -29.02, -24.767, -10.333, 0.413, 29.66, 0.21399, 0.77771, -0.25354, 0.53381,
 15:01:25.196,ed:35:33:d3:6c:f8, 2015-01-01 01:23:55.940, 0.87, 0.108, 0.468, -1.465, 0.122, -0.366, 12.634, -61.276, 136.329, -21.653, -13.380, -19.593, 32.49, -0.2616, -0.50629, 0.10077, -0.81546,
 15:01:25.196,ed:35:33:d3:6c:f8, 2015-01-01 01:23:55.940, 0.868, 0.108, 0.467, -1.16, 0.305, -0.732, 12.634, -61.271, 136.258, -21.653, -13.380, -19.593, 32.49, -0.2616, -0.50629, 0.10077, -0.81546,
 15:01:25.219,ed:40:fe:65:30:6c, 2015-01-01 01:24:07.775, 0.958, 0.104, 0.269, -0.671, 0.305, -0.244, 20.956, -73.169, -144.987, -26.420, -13.880, 8.633, 28.18, -0.34418, 0.5144, 0.31488, 0.71948,
 15:01:25.219,ed:40:fe:65:30:6c, 2015-01-01 01:24:07.775, 0.957, 0.106, 0.27, -0.671, 0.061, -0.244, 20.962, -73.163, -145.025, -26.420, -13.880, 8.633, 28.18, -0.34418, 0.5144, 0.31488, 0.71948,
 15:01:25.223,e3:ca:2d:fd:e0:8c, 2015-01-01 01:23:57.225, 0.954, 0.063, -0.346, -0.427, -0.122, 0, 169.563, -69.857, -29.059, -24.767, -10.333, 0.413, 29.66, 0.21399, 0.77771, -0.25354, 0.53381,
 15:01:25.223,e3:ca:2d:fd:e0:8c, 2015-01-01 01:23:57.225, 0.954, 0.063, -0.346, -0.366, -0.122, 0, 169.557, -69.851, -29.097, -24.767, -10.333, 0.413, 29.66, 0.21399, 0.77771, -0.25354, 0.53381,
 15:01:25.228,f6:90:cc:01:6d:25, 2015-01-01 01:23:54.585, 0.931, 0.097, -0.308, -0.183, 0.366, 0, 162.883, -71.197, 9.833, -28.607, -12.900, 8.027, 32.33, 0.07007, 0.8085, -0.01608, 0.58398,
 15:01:25.228,f6:90:cc:01:6d:25, 2015-01-01 01:23:54.585, 0.932, 0.097, -0.309, -0.122, 0.549, 0, 162.872, -71.202, 9.822, -28.607, -12.900, 8.027, 32.33, 0.07007, 0.8085, -0.01608, 0.58398,
 15:01:25.228,f6:90:cc:01:6d:25, 2015-01-01 01:23:54.585, 0.932, 0.097, -0.31, -0.061, 0.488, 0, 162.856, -71.208, 9.811, -28.607, -12.900, 8.027, 32.33, 0.07007, 0.8085, -0.01608, 0.58398,
 15:01:25.228,f6:90:cc:01:6d:25, 2015-01-01 01:23:54.585, 0.932, 0.096, -0.309, 0, 0.488, 0, 162.845, -71.213, 9.794, -28.607, -12.900, 8.027, 32.33, 0.07007, 0.8085, -0.01608, 0.58398,
 15:01:25.230,f6:90:cc:01:6d:25, 2015-01-01 01:23:54.585, 0.932, 0.096, -0.308, -0.183, 0.244, 0, 162.839, -71.213, 9.783, -28.607, -12.900, 8.027, 32.33, 0.07007, 0.8085, -0.01608, 0.58398,
 15:01:25.230,f6:90:cc:01:6d:25, 2015-01-01 01:23:54.585, 0.932, 0.097, -0.306, -0.244, 0.061, 0, 162.828, -71.213, 9.761, -28.607, -12.900, 8.027, 32.33, 0.07007, 0.8085, -0.01608, 0.58398,
 15:01:25.230,f6:90:cc:01:6d:25, 2015-01-01 01:23:54.585, 0.933, 0.096, -0.307, -0.305, 0, 0, 162.823, -71.208, 9.745, -28.607, -12.900, 8.027, 32.33, 0.07007, 0.8085, -0.01608, 0.58398,
 15:01:25.230,f6:90:cc:01:6d:25, 2015-01-01 01:23:54.585, 0.932, 0.096, -0.31, -0.183, 0, 0, 162.817, -71.208, 9.723, -28.607, -12.900, 8.027, 32.33, 0.07007, 0.8085, -0.01608, 0.58398,
 15:01:25.248,ed:40:fe:65:30:6c, 2015-01-01 01:24:07.775, 0.959, 0.106, 0.266, -0.427, 0, -0.366, 20.984, -73.163, -145.074, -26.440, -14.053, 8.760, 28.18, -0.34418, 0.5144, 0.31488, 0.71948,
 15:01:25.248,ed:40:fe:65:30:6c, 2015-01-01 01:24:07.775, 0.961, 0.107, 0.265, -0.122, 0, -0.305, 21.006, -73.163, -145.113, -26.440, -14.053, 8.760, 28.18, -0.34418, 0.5144, 0.31488, 0.71948,
 15:01:25.255,ed:35:33:d3:6c:f8, 2015-01-01 01:23:55.940, 0.87, 0.109, 0.463, -0.366, 0.427, -0.732, 12.651, -61.26, 136.198, -21.413, -13.247, -19.520, 32.49, -0.2616, -0.50629, 0.10077, -0.81546,
 15:01:25.255,ed:35:33:d3:6c:f8, 2015-01-01 01:23:55.940, 0.873, 0.112, 0.459, -0.061, 0.366, -0.671, 12.673, -61.249, 136.137, -21.413, -13.247, -19.520, 32.49, -0.2616, -0.50629, 0.10077, -0.81546,
 15:01:25.281,e3:ca:2d:fd:e0:8c, 2015-01-01 01:23:57.225, 0.954, 0.062, -0.348, -0.244, -0.122, 0, 169.552, -69.846, -29.136, -24.767, -10.333, 0.413, 29.66, 0.21399, 0.77771, -0.25354, 0.53381,
 15:01:25.281,e3:ca:2d:fd:e0:8c, 2015-01-01 01:23:57.225, 0.954, 0.063, -0.348, -0.244, -0.122, 0, 169.552, -69.846, -29.147, -24.767, -10.333, 0.413, 29.66, 0.21399, 0.77771, -0.25354, 0.53381,
 15:01:25.284,ed:35:33:d3:6c:f8, 2015-01-01 01:23:55.940, 0.871, 0.11, 0.461, -0.122, 0.061, -0.305, 12.695, -61.243, 136.093, -21.413, -13.247, -19.520, 32.49, -0.26752, -0.5051, 0.10098, -0.81424,
 15:01:25.284,ed:35:33:d3:6c:f8, 2015-01-01 01:23:55.940, 0.875, 0.107, 0.466, -0.244, -0.122, 0, 12.706, -61.243, 136.066, -21.413, -13.247, -19.520, 32.49, -0.26752, -0.5051, 0.10098, -0.81424,
 15:01:25.289,f6:90:cc:01:6d:25, 2015-01-01 01:23:54.585, 0.932, 0.095, -0.309, -0.244, -0.061, 0, 162.812, -71.202, 9.701, -28.607, -12.900, 8.027, 32.33, 0.07007, 0.8085, -0.01608, 0.58398,
 15:01:25.289,f6:90:cc:01:6d:25, 2015-01-01 01:23:54.585, 0.932, 0.095, -0.31, -0.244, -0.122, 0, 162.806, -71.197, 9.679, -28.607, -12.900, 8.027, 32.33, 0.07007, 0.8085, -0.01608, 0.58398,
 15:01:25.309,ed:40:fe:65:30:6c, 2015-01-01 01:24:07.775, 0.96, 0.104, 0.265, 0, 0.305, -0.061, 21.006, -73.158, -145.135, -26.440, -14.053, 8.760, 28.18, -0.34418, 0.5144, 0.31488, 0.71948,
 15:01:25.309,ed:40:fe:65:30:6c, 2015-01-01 01:24:07.775, 0.961, 0.104, 0.267, 0, 0.61, 0, 21, -73.152, -145.14, -26.440, -14.053, 8.760, 28.18, -0.34418, 0.5144, 0.31488, 0.71948,
 15:01:25.311,e3:ca:2d:fd:e0:8c, 2015-01-01 01:23:57.225, 0.955, 0.064, -0.348, -0.183, -0.061, 0, 169.552, -69.84, -29.152, -24.767, -10.333, 0.413, 29.66, 0.21399, 0.77771, -0.25354, 0.53381,
 15:01:25.311,e3:ca:2d:fd:e0:8c, 2015-01-01 01:23:57.225, 0.918, 0.065, -0.347, -0.122, -0.061, 0, 169.547, -69.835, -29.163, -24.767, -10.333, 0.413, 29.66, 0.21399, 0.77771, -0.25354, 0.53381,
 15:01:25.315,ed:35:33:d3:6c:f8, 2015-01-01 01:23:55.940, 0.876, 0.108, 0.464, 0.305, 0.122, -0.122, 12.717, -61.243, 136.033, -21.413, -13.247, -19.520, 32.49, -0.26752, -0.5051, 0.10098, -0.81424,
 15:01:25.315,ed:35:33:d3:6c:f8, 2015-01-01 01:23:55.940, 0.87, 0.109, 0.464, 0.732, 0, 0, 12.733, -61.243, 136, -21.413, -13.247, -19.520, 32.49, -0.26752, -0.5051, 0.10098, -0.81424,
 15:01:25.338,ed:40:fe:65:30:6c, 2015-01-01 01:24:07.775, 0.964, 0.105, 0.265, 0.427, 0.183, 0, 21.011, -73.152, -145.151, -26.440, -14.053, 8.760, 28.18, -0.34009, 0.51517, 0.31509, 0.72079,
 15:01:25.338,ed:40:fe:65:30:6c, 2015-01-01 01:24:07.775, 0.959, 0.106, 0.266, 0.61, 0.122, -0.183, 21.039, -73.147, -145.179, -26.440, -14.053, 8.760, 28.18, -0.34009, 0.51517, 0.31509, 0.72079,
 15:01:25.343,e3:ca:2d:fd:e0:8c, 2015-01-01 01:23:57.225, 0.984, 0.064, -0.362, 0.549, -2.197, 0, 169.557, -69.824, -29.169, -24.767, -10.333, 0.413, 29.66, 0.21399, 0.77771, -0.25354, 0.53381,
 15:01:25.343,e3:ca:2d:fd:e0:8c, 2015-01-01 01:23:57.225, 0.955, 0.06, -0.342, 0.305, -2.075, 0, 169.59, -69.78, -29.185, -24.767, -10.333, 0.413, 29.66, 0.21399, 0.77771, -0.25354, 0.53381,
 15:01:25.349,f6:90:cc:01:6d:25, 2015-01-01 01:23:54.585, 0.932, 0.098, -0.309, -0.183, -0.122, 0, 162.801, -71.186, 9.657, -28.393, -13.007, 7.527, 32.33, 0.07007, 0.8085, -0.01608, 0.58398,
 15:01:25.349,f6:90:cc:01:6d:25, 2015-01-01 01:23:54.585, 0.933, 0.098, -0.309, -0.122, 0, 0, 162.801, -71.186, 9.641, -28.393, -13.007, 7.527, 32.33, 0.07007, 0.8085, -0.01608, 0.58398,
 15:01:25.349,f6:90:cc:01:6d:25, 2015-01-01 01:23:54.585, 0.932, 0.096, -0.309, -0.122, 0, 0, 162.795, -71.18, 9.619, -28.393, -13.007, 7.527, 32.33, 0.07007, 0.8085, -0.01608, 0.58398,
 15:01:25.349,f6:90:cc:01:6d:25, 2015-01-01 01:23:54.585, 0.933, 0.094, -0.31, 0, 0.122, 0, 162.79, -71.18, 9.602, -28.393, -13.007, 7.527, 32.33, 0.07007, 0.8085, -0.01608, 0.58398,
 15:01:25.368,ed:40:fe:65:30:6c, 2015-01-01 01:24:07.775, 0.96, 0.103, 0.266, 0.671, 0.061, -0.244, 21.072, -73.147, -145.217, -26.440, -14.053, 8.760, 28.18, -0.34009, 0.51517, 0.31509, 0.72079,
 15:01:25.368,ed:40:fe:65:30:6c, 2015-01-01 01:24:07.775, 0.963, 0.104, 0.267, 0.549, 0.122, -0.061, 21.088, -73.147, -145.245, -26.440, -14.053, 8.760, 28.18, -0.34009, 0.51517, 0.31509, 0.72079,
 15:01:25.372,e3:ca:2d:fd:e0:8c, 2015-01-01 01:23:57.225, 0.954, 0.062, -0.349, 0, 0.488, 0, 169.607, -69.747, -29.185, -24.527, -10.613, 1.533, 29.66, 0.21399, 0.77771, -0.25354, 0.53381,
 15:01:25.372,e3:ca:2d:fd:e0:8c, 2015-01-01 01:23:57.225, 0.953, 0.063, -0.351, 0.061, 0.244, 0, 169.607, -69.752, -29.191, -24.527, -10.613, 1.533, 29.66, 0.21399, 0.77771, -0.25354, 0.53381,
 15:01:25.374,ed:35:33:d3:6c:f8, 2015-01-01 01:23:56.265, 0.872, 0.108, 0.463, 0.549, 0, 0.122, 12.75, -61.249, 135.989, -21.413, -13.247, -19.520, 32.49, -0.26752, -0.5051, 0.10098, -0.81424,
 15:01:25.374,ed:35:33:d3:6c:f8, 2015-01-01 01:23:56.265, 0.876, 0.109, 0.464, 0.183, 0.366, 0.061, 12.761, -61.243, 135.994, -21.413, -13.247, -19.520, 32.49, -0.26752, -0.5051, 0.10098, -0.81424,
 15:01:25.399,ed:40:fe:65:30:6c, 2015-01-01 01:24:08.195, 0.962, 0.106, 0.266, 0.732, 0.183, 0, 21.105, -73.147, -145.267, -26.440, -14.053, 8.760, 28.18, -0.34009, 0.51517, 0.31509, 0.72079,
 15:01:25.399,ed:40:fe:65:30:6c, 2015-01-01 01:24:08.195, 0.959, 0.107, 0.266, 0.854, 0.061, -0.122, 21.132, -73.152, -145.305, -26.440, -14.053, 8.760, 28.18, -0.34009, 0.51517, 0.31509, 0.72079,
 15:01:25.405,ed:35:33:d3:6c:f8, 2015-01-01 01:23:56.265, 0.875, 0.109, 0.464, 0.549, 0.671, 0, 12.766, -61.238, 135.961, -21.413, -13.247, -19.520, 32.49, -0.26752, -0.5051, 0.10098, -0.81424,
 15:01:25.405,ed:35:33:d3:6c:f8, 2015-01-01 01:23:56.265, 0.87, 0.111, 0.465, 0.671, 0.61, 0.061, 12.777, -61.227, 135.923, -21.413, -13.247, -19.520, 32.49, -0.26752, -0.5051, 0.10098, -0.81424,
 15:01:25.432,e3:ca:2d:fd:e0:8c, 2015-01-01 01:23:57.225, 0.954, 0.063, -0.35, -0.061, 0.122, 0, 169.607, -69.758, -29.191, -24.527, -10.613, 1.533, 29.66, 0.21399, 0.77771, -0.25354, 0.53381,
 15:01:25.432,e3:ca:2d:fd:e0:8c, 2015-01-01 01:23:57.225, 0.954, 0.061, -0.348, -0.366, 0, 0, 169.601, -69.758, -29.18, -24.527, -10.613, 1.533, 29.66, 0.21399, 0.77771, -0.25354, 0.53381,
 15:01:25.434,ed:35:33:d3:6c:f8, 2015-01-01 01:23:56.265, 0.87, 0.109, 0.466, 0.61, 0.854, 0, 12.788, -61.216, 135.895, -21.413, -13.247, -19.520, 32.49, -0.26752, -0.5051, 0.10098, -0.81424,
 15:01:25.434,ed:35:33:d3:6c:f8, 2015-01-01 01:23:56.265, 0.872, 0.112, 0.467, 0.488, 1.282, -0.244, 12.805, -61.194, 135.862, -21.413, -13.247, -19.520, 32.49, -0.26752, -0.5051, 0.10098, -0.81424,
 15:01:25.458,ed:40:fe:65:30:6c, 2015-01-01 01:24:08.195, 0.959, 0.105, 0.266, 0.793, 0.244, 0, 21.149, -73.147, -145.322, -26.440, -14.053, 8.760, 28.18, -0.34009, 0.51517, 0.31509, 0.72079,
 15:01:25.458,ed:40:fe:65:30:6c, 2015-01-01 01:24:08.195, 0.961, 0.11, 0.271, 0.061, 0.366, 0.061, 21.143, -73.147, -145.327, -26.440, -14.053, 8.760, 28.18, -0.34009, 0.51517, 0.31509, 0.72079,
 15:01:25.469,f6:90:cc:01:6d:25, 2015-01-01 01:23:54.585, 0.932, 0.097, -0.31, 0, 0.061, 0, 162.79, -71.175, 9.586, -28.393, -13.007, 7.527, 32.33, 0.07303, 0.80847, -0.01941, 0.58356,
 15:01:25.469,f6:90:cc:01:6d:25, 2015-01-01 01:23:54.585, 0.932, 0.097, -0.311, 0.061, 0.122, 0, 162.79, -71.175, 9.569, -28.393, -13.007, 7.527, 32.33, 0.07303, 0.80847, -0.01941, 0.58356,
 15:01:25.469,f6:90:cc:01:6d:25, 2015-01-01 01:23:54.585, 0.932, 0.094, -0.309, 0, 0.427, 0, 162.779, -71.175, 9.558, -28.393, -13.007, 7.527, 32.33, 0.07303, 0.80847, -0.01941, 0.58356,
 15:01:25.469,f6:90:cc:01:6d:25, 2015-01-01 01:23:54.585, 0.932, 0.094, -0.31, 0, 0.549, 0, 162.773, -71.18, 9.547, -28.393, -13.007, 7.527, 32.33, 0.07303, 0.80847, -0.01941, 0.58356,
 15:01:25.469,f6:90:cc:01:6d:25, 2015-01-01 01:23:54.585, 0.932, 0.098, -0.309, 0, 0.427, 0, 162.762, -71.186, 9.542, -28.393, -13.007, 7.527, 32.33, 0.07303, 0.80847, -0.01941, 0.58356,
 15:01:25.469,f6:90:cc:01:6d:25, 2015-01-01 01:23:54.585, 0.933, 0.097, -0.312, 0.183, 0.305, 0, 162.762, -71.186, 9.525, -28.393, -13.007, 7.527, 32.33, 0.07303, 0.80847, -0.01941, 0.58356,
 15:01:25.489,ed:40:fe:65:30:6c, 2015-01-01 01:24:08.195, 0.963, 0.111, 0.266, 0, 0.671, 0.122, 21.127, -73.136, -145.322, -26.440, -14.053, 8.760, 28.18, -0.34009, 0.51517, 0.31509, 0.72079,
 15:01:25.489,ed:40:fe:65:30:6c, 2015-01-01 01:24:08.195, 0.963, 0.106, 0.267, 0.549, 0.488, 0.366, 21.11, -73.13, -145.294, -26.440, -14.053, 8.760, 28.18, -0.34009, 0.51517, 0.31509, 0.72079,
 15:01:25.518,ed:40:fe:65:30:6c, 2015-01-01 01:24:08.195, 0.959, 0.104, 0.269, -0.061, 0.366, 0.244, 21.094, -73.13, -145.289, -26.440, -14.053, 8.760, 28.18, -0.34009, 0.51517, 0.31509, 0.72079,
 15:01:25.518,ed:40:fe:65:30:6c, 2015-01-01 01:24:08.195, 0.958, 0.106, 0.271, -0.61, 0.427, 0.122, 21.072, -73.125, -145.294, -26.440, -14.053, 8.760, 28.18, -0.34009, 0.51517, 0.31509, 0.72079,
 15:01:25.522,e3:ca:2d:fd:e0:8c, 2015-01-01 01:23:57.225, 0.953, 0.062, -0.35, -0.366, 0.122, 0, 169.596, -69.752, -29.158, -24.527, -10.613, 1.533, 29.66, 0.21536, 0.77753, -0.25595, 0.53238,
 15:01:25.522,e3:ca:2d:fd:e0:8c, 2015-01-01 01:23:57.225, 0.954, 0.064, -0.351, -0.244, 0.366, 0, 169.59, -69.758, -29.13, -24.527, -10.613, 1.533, 29.66, 0.21536, 0.77753, -0.25595, 0.53238,
 15:01:25.524,ed:35:33:d3:6c:f8, 2015-01-01 01:23:56.265, 0.875, 0.116, 0.466, 0.854, 1.343, -0.427, 12.821, -61.166, 135.824, -21.413, -13.247, -19.520, 32.49, -0.26752, -0.5051, 0.10098, -0.81424,
 15:01:25.524,ed:35:33:d3:6c:f8, 2015-01-01 01:23:56.265, 0.872, 0.113, 0.469, 0.427, 1.465, 0.061, 12.838, -61.139, 135.802, -21.413, -13.247, -19.520, 32.49, -0.26752, -0.5051, 0.10098, -0.81424,
 15:01:25.524,ed:35:33:d3:6c:f8, 2015-01-01 01:23:56.265, 0.868, 0.107, 0.47, -0.732, 1.16, 0.183, 12.827, -61.117, 135.786, -21.413, -13.247, -19.520, 32.49, -0.26752, -0.5051, 0.10098, -0.81424,
 15:01:25.524,ed:35:33:d3:6c:f8, 2015-01-01 01:23:56.265, 0.868, 0.111, 0.471, -1.282, 0.916, 0.061, 12.805, -61.1, 135.769, -21.413, -13.247, -19.520, 32.49, -0.26752, -0.5051, 0.10098, -0.81424,
 15:01:25.528,f6:90:cc:01:6d:25, 2015-01-01 01:23:55.000, 0.932, 0.095, -0.311, -0.061, 0.244, 0, 162.757, -71.186, 9.514, -28.393, -13.007, 7.527, 32.33, 0.07303, 0.80847, -0.01941, 0.58356,
 15:01:25.528,f6:90:cc:01:6d:25, 2015-01-01 01:23:55.000, 0.932, 0.095, -0.309, -0.061, 0.244, 0, 162.751, -71.186, 9.503, -28.393, -13.007, 7.527, 32.33, 0.07303, 0.80847, -0.01941, 0.58356,
 15:01:25.552,e3:ca:2d:fd:e0:8c, 2015-01-01 01:23:57.225, 0.954, 0.063, -0.352, -0.122, 0.366, 0, 169.585, -69.763, -29.125, -24.527, -10.613, 1.533, 29.66, 0.21536, 0.77753, -0.25595, 0.53238,
 15:01:25.552,e3:ca:2d:fd:e0:8c, 2015-01-01 01:23:57.225, 0.953, 0.062, -0.35, -0.061, 0.305, 0, 169.585, -69.763, -29.114, -24.527, -10.613, 1.533, 29.66, 0.21536, 0.77753, -0.25595, 0.53238,
 15:01:25.555,ed:35:33:d3:6c:f8, 2015-01-01 01:23:56.265, 0.868, 0.111, 0.47, -1.038, 0.977, 0.183, 12.772, -61.084, 135.753, -21.413, -13.247, -19.520, 32.49, -0.26752, -0.5051, 0.10098, -0.81424,
 15:01:25.555,ed:35:33:d3:6c:f8, 2015-01-01 01:23:56.265, 0.866, 0.11, 0.47, -0.916, 0.549, 0.427, 12.744, -61.068, 135.758, -21.413, -13.247, -19.520, 32.49, -0.26752, -0.5051, 0.10098, -0.81424,
 15:01:25.559,f6:90:cc:01:6d:25, 2015-01-01 01:23:55.000, 0.932, 0.095, -0.308, -0.061, 0.183, 0, 162.746, -71.186, 9.487, -28.393, -13.007, 7.527, 32.33, 0.07303, 0.80847, -0.01941, 0.58356,
 15:01:25.559,f6:90:cc:01:6d:25, 2015-01-01 01:23:55.000, 0.932, 0.095, -0.307, -0.061, 0.061, 0, 162.746, -71.186, 9.476, -28.393, -13.007, 7.527, 32.33, 0.07303, 0.80847, -0.01941, 0.58356,
 15:01:25.580,ed:40:fe:65:30:6c, 2015-01-01 01:24:08.195, 0.959, 0.104, 0.269, -0.244, 0.244, 0.488, 21.039, -73.125, -145.283, -26.440, -14.053, 8.760, 28.18, -0.34009, 0.51517, 0.31509, 0.72079,
 15:01:25.580,ed:40:fe:65:30:6c, 2015-01-01 01:24:08.195, 0.958, 0.106, 0.27, -0.061, 0.061, 0.671, 21, -73.13, -145.267, -26.440, -14.053, 8.760, 28.18, -0.34009, 0.51517, 0.31509, 0.72079,
 15:01:25.582,e3:ca:2d:fd:e0:8c, 2015-01-01 01:23:57.580, 0.954, 0.062, -0.35, 0, 0.122, 0, 169.585, -69.769, -29.114, -24.527, -10.613, 1.533, 29.66, 0.21536, 0.77753, -0.25595, 0.53238,
 15:01:25.582,e3:ca:2d:fd:e0:8c, 2015-01-01 01:23:57.580, 0.952, 0.062, -0.349, -0.183, 0.061, 0, 169.585, -69.769, -29.119, -24.527, -10.613, 1.533, 29.66, 0.21536, 0.77753, -0.25595, 0.53238,
 15:01:25.588,f6:90:cc:01:6d:25, 2015-01-01 01:23:55.000, 0.932, 0.095, -0.306, -0.061, 0, 0, 162.746, -71.18, 9.459, -28.393, -13.007, 7.527, 32.33, 0.07303, 0.80847, -0.01941, 0.58356,
 15:01:25.588,f6:90:cc:01:6d:25, 2015-01-01 01:23:55.000, 0.932, 0.096, -0.306, 0, 0.061, 0, 162.746, -71.18, 9.443, -28.393, -13.007, 7.527, 32.33, 0.07303, 0.80847, -0.01941, 0.58356,
 15:01:25.609,ed:40:fe:65:30:6c, 2015-01-01 01:24:08.195, 0.958, 0.104, 0.269, 0.122, 0.061, 0.732, 20.962, -73.136, -145.234, -26.340, -13.667, 8.813, 28.18, -0.34009, 0.51517, 0.31509, 0.72079,
 15:01:25.609,ed:40:fe:65:30:6c, 2015-01-01 01:24:08.195, 0.958, 0.104, 0.27, 0.427, 0, 0.793, 20.929, -73.141, -145.19, -26.340, -13.667, 8.813, 28.18, -0.34009, 0.51517, 0.31509, 0.72079,
 15:01:25.615,ed:35:33:d3:6c:f8, 2015-01-01 01:23:56.265, 0.867, 0.11, 0.468, -0.732, 0.427, 0.671, 12.711, -61.062, 135.775, -21.333, -13.527, -19.207, 32.49, -0.26752, -0.5051, 0.10098, -0.81424,
 15:01:25.615,ed:35:33:d3:6c:f8, 2015-01-01 01:23:56.265, 0.868, 0.105, 0.468, -0.488, 0.305, 0.916, 12.678, -61.057, 135.797, -21.333, -13.527, -19.207, 32.49, -0.26752, -0.5051, 0.10098, -0.81424,
 15:01:25.641,ed:40:fe:65:30:6c, 2015-01-01 01:24:08.195, 0.96, 0.102, 0.268, 0.549, 0.061, 0.549, 20.912, -73.147, -145.173, -26.340, -13.667, 8.813, 28.18, -0.34009, 0.51517, 0.31509, 0.72079,
 15:01:25.641,ed:40:fe:65:30:6c, 2015-01-01 01:24:08.195, 0.958, 0.104, 0.271, 0.305, 0.305, 0.305, 20.896, -73.141, -145.157, -26.340, -13.667, 8.813, 28.18, -0.34009, 0.51517, 0.31509, 0.72079,
 15:01:25.643,e3:ca:2d:fd:e0:8c, 2015-01-01 01:23:57.580, 0.954, 0.062, -0.346, -0.061, 0.183, 0, 169.585, -69.769, -29.125, -24.527, -10.613, 1.533, 29.66, 0.21536, 0.77753, -0.25595, 0.53238,
 15:01:25.643,e3:ca:2d:fd:e0:8c, 2015-01-01 01:23:57.580, 0.953, 0.063, -0.346, -0.122, 0.183, 0, 169.585, -69.769, -29.141, -24.527, -10.613, 1.533, 29.66, 0.21536, 0.77753, -0.25595, 0.53238,
 15:01:25.643,e3:ca:2d:fd:e0:8c, 2015-01-01 01:23:57.580, 0.954, 0.063, -0.347, -0.061, 0.061, 0, 169.579, -69.769, -29.158, -24.527, -10.613, 1.533, 29.66, 0.21536, 0.77753, -0.25595, 0.53238,
 15:01:25.643,e3:ca:2d:fd:e0:8c, 2015-01-01 01:23:57.580, 0.953, 0.063, -0.348, -0.244, 0.183, 0, 169.579, -69.769, -29.185, -24.527, -10.613, 1.533, 29.66, 0.21536, 0.77753, -0.25595, 0.53238,
 15:01:25.675,ed:35:33:d3:6c:f8, 2015-01-01 01:23:56.265, 0.871, 0.104, 0.466, -0.305, 0.244, 0.732, 12.645, -61.057, 135.835, -21.333, -13.527, -19.207, 32.49, -0.26999, -0.50348, 0.1019, -0.81433,
 15:01:25.675,ed:35:33:d3:6c:f8, 2015-01-01 01:23:56.265, 0.868, 0.104, 0.47, 0.183, 0.122, 0.488, 12.623, -61.057, 135.846, -21.333, -13.527, -19.207, 32.49, -0.26999, -0.50348, 0.1019, -0.81433,
 15:01:25.677,ed:35:33:d3:6c:f8, 2015-01-01 01:23:56.265, 0.871, 0.106, 0.47, 0.61, 0.122, 0.366, 12.618, -61.057, 135.835, -21.333, -13.527, -19.207, 32.49, -0.26999, -0.50348, 0.1019, -0.81433,
 15:01:25.677,ed:35:33:d3:6c:f8, 2015-01-01 01:23:56.265, 0.873, 0.109, 0.469, 0.244, 0.305, 0.244, 12.618, -61.051, 135.818, -21.333, -13.527, -19.207, 32.49, -0.26999, -0.50348, 0.1019, -0.81433,
 15:01:25.678,f6:90:cc:01:6d:25, 2015-01-01 01:23:55.000, 0.932, 0.095, -0.307, -0.061, 0.061, 0, 162.74, -71.175, 9.426, -28.393, -13.007, 7.527, 32.33, 0.07303, 0.80847, -0.01941, 0.58356,
 15:01:25.678,f6:90:cc:01:6d:25, 2015-01-01 01:23:55.000, 0.932, 0.096, -0.306, -0.122, 0, 0, 162.74, -71.175, 9.41, -28.393, -13.007, 7.527, 32.33, 0.07303, 0.80847, -0.01941, 0.58356,
 15:01:25.680,f6:90:cc:01:6d:25, 2015-01-01 01:23:55.000, 0.932, 0.097, -0.307, -0.244, -0.061, 0, 162.735, -71.169, 9.393, -28.393, -13.007, 7.527, 32.33, 0.07303, 0.80847, -0.01941, 0.58356,
 15:01:25.680,f6:90:cc:01:6d:25, 2015-01-01 01:23:55.000, 0.932, 0.098, -0.307, -0.183, 0, 0, 162.729, -71.164, 9.377, -28.393, -13.007, 7.527, 32.33, 0.07303, 0.80847, -0.01941, 0.58356,
 15:01:25.698,ed:40:fe:65:30:6c, 2015-01-01 01:24:08.195, 0.961, 0.103, 0.268, 0.305, 0.244, 0.122, 20.891, -73.141, -145.146, -26.340, -13.667, 8.813, 28.18, -0.33954, 0.51544, 0.31436, 0.72116,
 15:01:25.698,ed:40:fe:65:30:6c, 2015-01-01 01:24:08.195, 0.962, 0.105, 0.271, 0.488, -0.122, 0.061, 20.907, -73.147, -145.151, -26.340, -13.667, 8.813, 28.18, -0.33954, 0.51544, 0.31436, 0.72116,
 15:01:25.702,e3:ca:2d:fd:e0:8c, 2015-01-01 01:23:57.580, 0.954, 0.063, -0.347, -0.366, 0.305, 0, 169.574, -69.774, -29.207, -24.527, -10.613, 1.533, 29.66, 0.21536, 0.77753, -0.25595, 0.53238,
 15:01:25.702,e3:ca:2d:fd:e0:8c, 2015-01-01 01:23:57.580, 0.954, 0.064, -0.348, -0.305, 0, 0, 169.568, -69.774, -29.218, -24.527, -10.613, 1.533, 29.66, 0.21536, 0.77753, -0.25595, 0.53238,
 15:01:25.709,f6:90:cc:01:6d:25, 2015-01-01 01:23:55.000, 0.932, 0.097, -0.309, -0.122, 0.061, 0, 162.724, -71.164, 9.366, -28.293, -12.987, 7.733, 32.33, 0.07303, 0.80847, -0.01941, 0.58356,
 15:01:25.709,f6:90:cc:01:6d:25, 2015-01-01 01:23:55.000, 0.932, 0.097, -0.312, -0.061, 0.122, 0, 162.719, -71.164, 9.349, -28.293, -12.987, 7.733, 32.33, 0.07303, 0.80847, -0.01941, 0.58356,
 15:01:25.729,ed:40:fe:65:30:6c, 2015-01-01 01:24:08.195, 0.961, 0.107, 0.266, 0.305, 0, 0.061, 20.912, -73.147, -145.151, -26.340, -13.667, 8.813, 28.18, -0.33954, 0.51544, 0.31436, 0.72116,
 15:01:25.729,ed:40:fe:65:30:6c, 2015-01-01 01:24:08.195, 0.959, 0.107, 0.266, 0.488, 0.183, 0.061, 20.923, -73.147, -145.157, -26.340, -13.667, 8.813, 28.18, -0.33954, 0.51544, 0.31436, 0.72116,
 15:01:25.733,e3:ca:2d:fd:e0:8c, 2015-01-01 01:23:57.580, 0.955, 0.064, -0.349, -0.366, -0.061, 0, 169.563, -69.774, -29.229, -24.527, -10.613, 1.533, 29.66, 0.21536, 0.77753, -0.25595, 0.53238,
 15:01:25.733,e3:ca:2d:fd:e0:8c, 2015-01-01 01:23:57.580, 0.954, 0.065, -0.35, -0.305, 0, 0, 169.557, -69.769, -29.235, -24.527, -10.613, 1.533, 29.66, 0.21536, 0.77753, -0.25595, 0.53238,
 15:01:25.735,ed:35:33:d3:6c:f8, 2015-01-01 01:23:56.625, 0.872, 0.11, 0.468, 0.183, 0, 0, 12.623, -61.051, 135.802, -21.333, -13.527, -19.207, 32.49, -0.26999, -0.50348, 0.1019, -0.81433,
 15:01:25.735,ed:35:33:d3:6c:f8, 2015-01-01 01:23:56.625, 0.869, 0.113, 0.466, 0.549, 0, 0.061, 12.634, -61.051, 135.775, -21.333, -13.527, -19.207, 32.49, -0.26999, -0.50348, 0.1019, -0.81433,
 15:01:25.759,ed:40:fe:65:30:6c, 2015-01-01 01:24:08.195, 0.962, 0.105, 0.268, 0.549, 0, 0.305, 20.923, -73.152, -145.151, -26.340, -13.667, 8.813, 28.18, -0.33954, 0.51544, 0.31436, 0.72116,
 15:01:25.759,ed:40:fe:65:30:6c, 2015-01-01 01:24:08.195, 0.957, 0.109, 0.271, -0.366, 0.366, 0.244, 20.896, -73.147, -145.129, -26.340, -13.667, 8.813, 28.18, -0.33954, 0.51544, 0.31436, 0.72116,
 15:01:25.793,e3:ca:2d:fd:e0:8c, 2015-01-01 01:23:57.580, 0.953, 0.064, -0.35, -0.183, 0, 0, 169.552, -69.769, -29.251, -24.527, -10.613, 1.533, 29.66, 0.21536, 0.77753, -0.25595, 0.53238,
 15:01:25.793,e3:ca:2d:fd:e0:8c, 2015-01-01 01:23:57.580, 0.953, 0.063, -0.35, -0.122, 0.061, 0, 169.552, -69.769, -29.251, -24.527, -10.613, 1.533, 29.66, 0.21536, 0.77753, -0.25595, 0.53238,
 15:01:25.795,ed:35:33:d3:6c:f8, 2015-01-01 01:23:56.625, 0.871, 0.109, 0.467, 0.183, 0.122, 0.244, 12.64, -61.051, 135.764, -21.333, -13.527, -19.207, 32.49, -0.26999, -0.50348, 0.1019, -0.81433,
 15:01:25.795,ed:35:33:d3:6c:f8, 2015-01-01 01:23:56.625, 0.865, 0.112, 0.473, -0.793, 0, -0.061, 12.64, -61.051, 135.736, -21.333, -13.527, -19.207, 32.49, -0.26999, -0.50348, 0.1019, -0.81433,
 15:01:25.795,ed:35:33:d3:6c:f8, 2015-01-01 01:23:56.625, 0.867, 0.114, 0.476, -1.282, 0.122, -0.671, 12.634, -61.046, 135.698, -21.333, -13.527, -19.207, 32.49, -0.26999, -0.50348, 0.1019, -0.81433,
 15:01:25.795,ed:35:33:d3:6c:f8, 2015-01-01 01:23:56.625, 0.872, 0.114, 0.472, -1.404, 0.183, -0.305, 12.634, -61.04, 135.648, -21.333, -13.527, -19.207, 32.49, -0.26999, -0.50348, 0.1019, -0.81433,
 15:01:25.799,f6:90:cc:01:6d:25, 2015-01-01 01:23:55.000, 0.932, 0.097, -0.309, 0, 0.183, 0, 162.713, -71.164, 9.338, -28.293, -12.987, 7.733, 32.33, 0.07303, 0.80847, -0.01941, 0.58356,
 15:01:25.799,f6:90:cc:01:6d:25, 2015-01-01 01:23:55.000, 0.933, 0.096, -0.31, 0, 0.061, 0, 162.713, -71.158, 9.327, -28.293, -12.987, 7.733, 32.33, 0.07303, 0.80847, -0.01941, 0.58356,
 15:01:25.799,f6:90:cc:01:6d:25, 2015-01-01 01:23:55.000, 0.932, 0.097, -0.309, 0, 0, 0, 162.713, -71.158, 9.311, -28.293, -12.987, 7.733, 32.33, 0.07303, 0.80847, -0.01941, 0.58356,
 15:01:25.799,f6:90:cc:01:6d:25, 2015-01-01 01:23:55.000, 0.932, 0.097, -0.309, -0.122, -0.183, 0, 162.713, -71.147, 9.294, -28.293, -12.987, 7.733, 32.33, 0.07303, 0.80847, -0.01941, 0.58356,
 15:01:25.819,ed:40:fe:65:30:6c, 2015-01-01 01:24:08.195, 0.961, 0.105, 0.27, -1.465, 0.61, 0.671, 20.841, -73.136, -145.096, -26.340, -13.667, 8.813, 28.18, -0.33954, 0.51544, 0.31436, 0.72116,
 15:01:25.819,ed:40:fe:65:30:6c, 2015-01-01 01:24:08.195, 0.961, 0.103, 0.268, -0.61, 0.122, 0.977, 20.77, -73.136, -145.036, -26.340, -13.667, 8.813, 28.18, -0.33954, 0.51544, 0.31436, 0.72116,
 15:01:25.823,e3:ca:2d:fd:e0:8c, 2015-01-01 01:23:57.580, 0.953, 0.063, -0.349, -0.183, 0.305, 0, 169.547, -69.769, -29.246, -24.527, -10.613, 1.533, 29.66, 0.21536, 0.77753, -0.25595, 0.53238,
 15:01:25.823,e3:ca:2d:fd:e0:8c, 2015-01-01 01:23:57.580, 0.954, 0.063, -0.349, -0.183, 0.427, 0, 169.541, -69.774, -29.257, -24.527, -10.613, 1.533, 29.66, 0.21536, 0.77753, -0.25595, 0.53238,
 15:01:25.829,f6:90:cc:01:6d:25, 2015-01-01 01:23:55.000, 0.932, 0.096, -0.309, -0.122, -0.244, 0, 162.713, -71.142, 9.278, -28.293, -12.987, 7.733, 32.33, 0.07495, 0.80847, -0.0217, 0.58328,
 15:01:25.829,f6:90:cc:01:6d:25, 2015-01-01 01:23:55.000, 0.932, 0.095, -0.308, 0, -0.305, 0, 162.719, -71.131, 9.256, -28.293, -12.987, 7.733, 32.33, 0.07495, 0.80847, -0.0217, 0.58328,
 15:01:25.849,ed:40:fe:65:30:6c, 2015-01-01 01:24:08.640, 0.961, 0.099, 0.268, -0.122, 0.244, 0.977, 20.704, -73.141, -144.976, -26.340, -13.667, 8.813, 28.18, -0.33954, 0.51544, 0.31436, 0.72116,
 15:01:25.849,ed:40:fe:65:30:6c, 2015-01-01 01:24:08.640, 0.96, 0.097, 0.266, 0.732, -0.061, 0.977, 20.649, -73.147, -144.921, -26.340, -13.667, 8.813, 28.18, -0.33954, 0.51544, 0.31436, 0.72116,
 15:01:25.851,e3:ca:2d:fd:e0:8c, 2015-01-01 01:23:57.580, 0.953, 0.063, -0.349, 0, 0.366, 0, 169.536, -69.78, -29.273, -24.693, -10.453, 1.047, 29.66, 0.21536, 0.77753, -0.25595, 0.53238,
 15:01:25.851,e3:ca:2d:fd:e0:8c, 2015-01-01 01:23:57.580, 0.954, 0.062, -0.348, 0, 0.427, 0, 169.536, -69.785, -29.301, -24.693, -10.453, 1.047, 29.66, 0.21536, 0.77753, -0.25595, 0.53238,
 15:01:25.855,ed:35:33:d3:6c:f8, 2015-01-01 01:23:56.625, 0.871, 0.109, 0.468, -1.709, -0.183, 0.305, 12.612, -61.04, 135.61, -21.333, -13.527, -19.207, 32.49, -0.26999, -0.50348, 0.1019, -0.81433,
 15:01:25.855,ed:35:33:d3:6c:f8, 2015-01-01 01:23:56.625, 0.872, 0.104, 0.465, -1.465, -0.488, 0.977, 12.568, -61.046, 135.615, -21.333, -13.527, -19.207, 32.49, -0.26999, -0.50348, 0.1019, -0.81433,
 15:01:25.880,ed:40:fe:65:30:6c, 2015-01-01 01:24:08.640, 0.96, 0.1, 0.268, 0.854, 0.061, 0.61, 20.616, -73.152, -144.866, -26.340, -13.667, 8.813, 28.18, -0.33954, 0.51544, 0.31436, 0.72116,
 15:01:25.880,ed:40:fe:65:30:6c, 2015-01-01 01:24:08.640, 0.96, 0.104, 0.267, 0.732, 0.366, 0.244, 20.599, -73.158, -144.838, -26.340, -13.667, 8.813, 28.18, -0.33954, 0.51544, 0.31436, 0.72116,
 15:01:25.883,e3:ca:2d:fd:e0:8c, 2015-01-01 01:23:57.580, 0.954, 0.062, -0.346, 0, 0.488, 0, 169.53, -69.791, -29.344, -24.693, -10.453, 1.047, 29.66, 0.21536, 0.77753, -0.25595, 0.53238,
 15:01:25.883,e3:ca:2d:fd:e0:8c, 2015-01-01 01:23:57.580, 0.954, 0.062, -0.345, 0, 0.366, 0, 169.53, -69.796, -29.388, -24.693, -10.453, 1.047, 29.66, 0.21536, 0.77753, -0.25595, 0.53238,
 15:01:25.887,ed:35:33:d3:6c:f8, 2015-01-01 01:23:56.625, 0.871, 0.1, 0.463, -0.61, -0.427, 1.343, 12.513, -61.062, 135.654, -21.333, -13.527, -19.207, 32.49, -0.26999, -0.50348, 0.1019, -0.81433,
 15:01:25.887,ed:35:33:d3:6c:f8, 2015-01-01 01:23:56.625, 0.871, 0.101, 0.464, 0.061, -0.305, 1.099, 12.475, -61.073, 135.731, -21.333, -13.527, -19.207, 32.49, -0.26999, -0.50348, 0.1019, -0.81433,
 15:01:25.889,f6:90:cc:01:6d:25, 2015-01-01 01:23:55.000, 0.931, 0.095, -0.308, 0, -0.244, 0, 162.719, -71.125, 9.24, -28.293, -12.987, 7.733, 32.33, 0.07495, 0.80847, -0.0217, 0.58328,
 15:01:25.889,f6:90:cc:01:6d:25, 2015-01-01 01:23:55.000, 0.932, 0.095, -0.307, 0, -0.122, 0, 162.724, -71.12, 9.223, -28.293, -12.987, 7.733, 32.33, 0.07495, 0.80847, -0.0217, 0.58328,
 15:01:25.916,ed:35:33:d3:6c:f8, 2015-01-01 01:23:56.625, 0.871, 0.104, 0.466, 0.793, -0.122, 0.427, 12.464, -61.078, 135.753, -21.767, -12.967, -19.147, 32.49, -0.26999, -0.50348, 0.1019, -0.81433,
 15:01:25.916,ed:35:33:d3:6c:f8, 2015-01-01 01:23:56.625, 0.873, 0.106, 0.469, 0.916, 0.244, 0, 12.475, -61.084, 135.736, -21.767, -12.967, -19.147, 32.49, -0.26999, -0.50348, 0.1019, -0.81433,
 15:01:25.918,f6:90:cc:01:6d:25, 2015-01-01 01:23:55.450, 0.932, 0.096, -0.307, 0.061, 0.061, 0, 162.724, -71.115, 9.207, -28.293, -12.987, 7.733, 32.33, 0.07495, 0.80847, -0.0217, 0.58328,
 15:01:25.918,f6:90:cc:01:6d:25, 2015-01-01 01:23:55.450, 0.932, 0.095, -0.31, 0, 0.183, 0, 162.719, -71.12, 9.201, -28.293, -12.987, 7.733, 32.33, 0.07495, 0.80847, -0.0217, 0.58328,
 15:01:25.939,ed:40:fe:65:30:6c, 2015-01-01 01:24:08.640, 0.96, 0.103, 0.27, 0.61, 0.427, 0, 20.599, -73.152, -144.827, -26.340, -13.667, 8.813, 28.18, -0.33954, 0.51544, 0.31436, 0.72116,
 15:01:25.939,ed:40:fe:65:30:6c, 2015-01-01 01:24:08.640, 0.963, 0.104, 0.27, 0.488, 0.427, 0.061, 20.605, -73.147, -144.827, -26.340, -13.667, 8.813, 28.18, -0.33954, 0.51544, 0.31436, 0.72116,
 15:01:25.943,e3:ca:2d:fd:e0:8c, 2015-01-01 01:23:57.580, 0.954, 0.063, -0.344, 0, 0.366, 0, 169.53, -69.802, -29.416, -24.693, -10.453, 1.047, 29.66, 0.21536, 0.77753, -0.25595, 0.53238,
 15:01:25.943,e3:ca:2d:fd:e0:8c, 2015-01-01 01:23:57.580, 0.952, 0.064, -0.345, -0.183, 0.305, 0, 169.525, -69.807, -29.443, -24.693, -10.453, 1.047, 29.66, 0.21536, 0.77753, -0.25595, 0.53238,
 15:01:25.976,ed:35:33:d3:6c:f8, 2015-01-01 01:23:56.625, 0.874, 0.109, 0.47, 0.732, 0.549, -0.122, 12.497, -61.073, 135.72, -21.767, -12.967, -19.147, 32.49, -0.26999, -0.50348, 0.1019, -0.81433,
 15:01:25.976,ed:35:33:d3:6c:f8, 2015-01-01 01:23:56.625, 0.872, 0.108, 0.469, 0.61, 0.732, 0.061, 12.508, -61.062, 135.714, -21.767, -12.967, -19.147, 32.49, -0.26999, -0.50348, 0.1019, -0.81433,
 15:01:25.978,f6:90:cc:01:6d:25, 2015-01-01 01:23:55.450, 0.932, 0.094, -0.311, 0, 0.244, 0, 162.713, -71.12, 9.19, -28.293, -12.987, 7.733, 32.33, 0.07495, 0.80847, -0.0217, 0.58328,
 15:01:25.978,f6:90:cc:01:6d:25, 2015-01-01 01:23:55.450, 0.932, 0.095, -0.31, 0, 0.244, 0, 162.713, -71.12, 9.179, -28.293, -12.987, 7.733, 32.33, 0.07495, 0.80847, -0.0217, 0.58328,
 15:01:25.998,ed:40:fe:65:30:6c, 2015-01-01 01:24:08.640, 0.961, 0.103, 0.269, 0.61, 0.427, 0.305, 20.605, -73.141, -144.816, -26.340, -13.667, 8.813, 28.18, -0.33954, 0.51544, 0.31436, 0.72116,
 15:01:25.998,ed:40:fe:65:30:6c, 2015-01-01 01:24:08.640, 0.961, 0.102, 0.269, 0.61, 0.427, 0.305, 20.588, -73.136, -144.811, -26.340, -13.667, 8.813, 28.18, -0.33954, 0.51544, 0.31436, 0.72116,
 15:01:25.998,ed:40:fe:65:30:6c, 2015-01-01 01:24:08.640, 0.96, 0.1, 0.268, 0.671, 0.427, 0.183, 20.583, -73.136, -144.794, -26.340, -13.667, 8.813, 28.18, -0.33954, 0.51544, 0.31436, 0.72116,
 15:01:25.998,ed:40:fe:65:30:6c, 2015-01-01 01:24:08.640, 0.962, 0.097, 0.265, 0.427, 0.305, 0, 20.577, -73.13, -144.789, -26.340, -13.667, 8.813, 28.18, -0.33954, 0.51544, 0.31436, 0.72116,
 15:01:26.002,e3:ca:2d:fd:e0:8c, 2015-01-01 01:23:57.580, 0.955, 0.063, -0.348, -0.366, 0.488, 0, 169.519, -69.818, -29.471, -24.693, -10.453, 1.047, 29.66, 0.2171, 0.77658, -0.25793, 0.5321,
 15:01:26.002,e3:ca:2d:fd:e0:8c, 2015-01-01 01:23:57.580, 0.955, 0.062, -0.348, -0.427, 0.427, 0, 169.508, -69.824, -29.487, -24.693, -10.453, 1.047, 29.66, 0.2171, 0.77658, -0.25793, 0.5321,
 15:01:26.031,e3:ca:2d:fd:e0:8c, 2015-01-01 01:23:57.580, 0.955, 0.063, -0.348, -0.305, 0.183, 0, 169.497, -69.829, -29.493, -24.693, -10.453, 1.047, 29.66, 0.2171, 0.77658, -0.25793, 0.5321,
 15:01:26.031,e3:ca:2d:fd:e0:8c, 2015-01-01 01:23:57.580, 0.954, 0.063, -0.351, 0.061, 0, 0, 169.497, -69.829, -29.498, -24.693, -10.453, 1.047, 29.66, 0.2171, 0.77658, -0.25793, 0.5321,
 15:01:26.035,ed:35:33:d3:6c:f8, 2015-01-01 01:23:56.625, 0.871, 0.106, 0.468, 0.244, 0.793, 0.366, 12.508, -61.051, 135.714, -21.767, -12.967, -19.147, 32.49, -0.27139, -0.50314, 0.10342, -0.81387,
 15:01:26.035,ed:35:33:d3:6c:f8, 2015-01-01 01:23:56.625, 0.871, 0.102, 0.465, 0, 0.732, 0.61, 12.491, -61.04, 135.731, -21.767, -12.967, -19.147, 32.49, -0.27139, -0.50314, 0.10342, -0.81387,
 15:01:26.035,ed:35:33:d3:6c:f8, 2015-01-01 01:23:56.625, 0.874, 0.099, 0.463, -0.183, 0.732, 0.366, 12.469, -61.029, 135.769, -21.767, -12.967, -19.147, 32.49, -0.27139, -0.50314, 0.10342, -0.81387,
 15:01:26.035,ed:35:33:d3:6c:f8, 2015-01-01 01:23:56.625, 0.873, 0.104, 0.467, 0.244, 0.488, -0.244, 12.464, -61.018, 135.775, -21.767, -12.967, -19.147, 32.49, -0.27139, -0.50314, 0.10342, -0.81387,
 15:01:26.059,ed:40:fe:65:30:6c, 2015-01-01 01:24:08.640, 0.963, 0.104, 0.268, -0.061, 0.61, -0.427, 20.583, -73.125, -144.805, -26.340, -13.667, 8.813, 28.18, -0.33954, 0.51544, 0.31436, 0.72116,
 15:01:26.059,ed:40:fe:65:30:6c, 2015-01-01 01:24:08.640, 0.961, 0.105, 0.268, -0.244, 0.793, -0.671, 20.599, -73.114, -144.833, -26.340, -13.667, 8.813, 28.18, -0.33954, 0.51544, 0.31436, 0.72116,
 15:01:26.061,e3:ca:2d:fd:e0:8c, 2015-01-01 01:23:57.580, 0.953, 0.062, -0.348, 0, 0.122, 0, 169.497, -69.829, -29.526, -24.693, -10.453, 1.047, 29.66, 0.2171, 0.77658, -0.25793, 0.5321,
 15:01:26.061,e3:ca:2d:fd:e0:8c, 2015-01-01 01:23:57.580, 0.955, 0.063, -0.348, -0.244, 0.244, 0, 169.497, -69.829, -29.553, -24.693, -10.453, 1.047, 29.66, 0.2171, 0.77658, -0.25793, 0.5321,
 15:01:26.068,f6:90:cc:01:6d:25, 2015-01-01 01:23:55.450, 0.932, 0.096, -0.31, 0.122, 0.122, 0, 162.708, -71.12, 9.174, -28.293, -12.987, 7.733, 32.33, 0.07495, 0.80847, -0.0217, 0.58328,
 15:01:26.068,f6:90:cc:01:6d:25, 2015-01-01 01:23:55.450, 0.932, 0.095, -0.311, 0.061, 0.122, 0, 162.713, -71.12, 9.163, -28.293, -12.987, 7.733, 32.33, 0.07495, 0.80847, -0.0217, 0.58328,
 15:01:26.070,f6:90:cc:01:6d:25, 2015-01-01 01:23:55.450, 0.932, 0.096, -0.312, -0.061, 0.305, 0, 162.708, -71.12, 9.152, -28.293, -12.987, 7.733, 32.33, 0.07495, 0.80847, -0.0217, 0.58328,
 15:01:26.070,f6:90:cc:01:6d:25, 2015-01-01 01:23:55.450, 0.932, 0.098, -0.311, -0.061, 0.305, 0, 162.702, -71.12, 9.146, -28.293, -12.987, 7.733, 32.33, 0.07495, 0.80847, -0.0217, 0.58328,
 15:01:26.088,ed:40:fe:65:30:6c, 2015-01-01 01:24:08.640, 0.963, 0.1, 0.269, 0.305, 0.427, -0.549, 20.627, -73.098, -144.866, -26.007, -13.680, 8.767, 28.18, -0.33954, 0.51544, 0.31436, 0.72116,
 15:01:26.088,ed:40:fe:65:30:6c, 2015-01-01 01:24:08.640, 0.962, 0.101, 0.271, 0.183, 0, -0.549, 20.66, -73.092, -144.899, -26.007, -13.680, 8.767, 28.18, -0.33954, 0.51544, 0.31436, 0.72116,
 15:01:26.092,e3:ca:2d:fd:e0:8c, 2015-01-01 01:23:58.115, 0.955, 0.063, -0.348, -0.122, 0.427, 0, 169.492, -69.835, -29.575, -24.693, -10.453, 1.047, 29.66, 0.2171, 0.77658, -0.25793, 0.5321,
 15:01:26.092,e3:ca:2d:fd:e0:8c, 2015-01-01 01:23:58.115, 0.954, 0.064, -0.35, 0, 0.549, 0, 169.492, -69.84, -29.592, -24.693, -10.453, 1.047, 29.66, 0.2171, 0.77658, -0.25793, 0.5321,
 15:01:26.094,ed:35:33:d3:6c:f8, 2015-01-01 01:23:56.980, 0.872, 0.107, 0.471, 1.099, 0.427, -0.671, 12.502, -61.013, 135.747, -21.767, -12.967, -19.147, 32.49, -0.27139, -0.50314, 0.10342, -0.81387,
 15:01:26.094,ed:35:33:d3:6c:f8, 2015-01-01 01:23:56.980, 0.873, 0.105, 0.473, 0.977, 0.793, -0.427, 12.535, -60.996, 135.714, -21.767, -12.967, -19.147, 32.49, -0.27139, -0.50314, 0.10342, -0.81387,
 15:01:26.098,f6:90:cc:01:6d:25, 2015-01-01 01:23:55.450, 0.933, 0.097, -0.312, 0.122, 0.183, 0, 162.702, -71.125, 9.135, -28.293, -12.987, 7.733, 32.33, 0.07495, 0.80847, -0.0217, 0.58328,
 15:01:26.098,f6:90:cc:01:6d:25, 2015-01-01 01:23:55.450, 0.932, 0.095, -0.31, 0, 0.122, 0, 162.702, -71.12, 9.13, -28.293, -12.987, 7.733, 32.33, 0.07495, 0.80847, -0.0217, 0.58328,
 15:01:26.120,ed:40:fe:65:30:6c, 2015-01-01 01:24:08.640, 0.956, 0.103, 0.271, 0.366, 0, -0.61, 20.698, -73.092, -144.943, -26.007, -13.680, 8.767, 28.18, -0.33954, 0.51544, 0.31436, 0.72116,
 15:01:26.120,ed:40:fe:65:30:6c, 2015-01-01 01:24:08.640, 0.956, 0.103, 0.274, 0.122, 0, -0.793, 20.748, -73.092, -144.998, -26.007, -13.680, 8.767, 28.18, -0.33954, 0.51544, 0.31436, 0.72116,
 15:01:26.122,e3:ca:2d:fd:e0:8c, 2015-01-01 01:23:58.115, 0.957, 0.063, -0.348, -0.122, 0.61, 0, 169.486, -69.851, -29.603, -24.693, -10.453, 1.047, 29.66, 0.2171, 0.77658, -0.25793, 0.5321,
 15:01:26.122,e3:ca:2d:fd:e0:8c, 2015-01-01 01:23:58.115, 0.955, 0.062, -0.349, -0.305, 1.282, 0, 169.475, -69.868, -29.614, -24.693, -10.453, 1.047, 29.66, 0.2171, 0.77658, -0.25793, 0.5321,
 15:01:26.124,ed:35:33:d3:6c:f8, 2015-01-01 01:23:56.980, 0.87, 0.104, 0.472, 0.549, 0.793, -0.671, 12.563, -60.98, 135.676, -21.767, -12.967, -19.147, 32.49, -0.27139, -0.50314, 0.10342, -0.81387,
 15:01:26.124,ed:35:33:d3:6c:f8, 2015-01-01 01:23:56.980, 0.863, 0.105, 0.471, 0.732, 0.793, -0.549, 12.59, -60.963, 135.621, -21.767, -12.967, -19.147, 32.49, -0.27139, -0.50314, 0.10342, -0.81387,
 15:01:26.152,e3:ca:2d:fd:e0:8c, 2015-01-01 01:23:58.115, 0.953, 0.062, -0.346, 0, 0.244, 0, 169.464, -69.879, -29.625, -24.693, -10.453, 1.047, 29.66, 0.2171, 0.77658, -0.25793, 0.5321,
 15:01:26.152,e3:ca:2d:fd:e0:8c, 2015-01-01 01:23:58.115, 0.955, 0.063, -0.346, 0.183, 0.793, 0, 169.464, -69.884, -29.619, -24.693, -10.453, 1.047, 29.66, 0.2171, 0.77658, -0.25793, 0.5321,
 15:01:26.154,ed:35:33:d3:6c:f8, 2015-01-01 01:23:56.980, 0.866, 0.104, 0.474, 0.549, 0.977, -0.488, 12.612, -60.947, 135.571, -21.767, -12.967, -19.147, 32.49, -0.27139, -0.50314, 0.10342, -0.81387,
 15:01:26.154,ed:35:33:d3:6c:f8, 2015-01-01 01:23:56.980, 0.868, 0.109, 0.473, 0.366, 0.977, -0.916, 12.64, -60.925, 135.522, -21.767, -12.967, -19.147, 32.49, -0.27139, -0.50314, 0.10342, -0.81387,
 15:01:26.179,ed:40:fe:65:30:6c, 2015-01-01 01:24:08.640, 0.959, 0.105, 0.271, -0.061, 0, -0.977, 20.797, -73.087, -145.074, -26.007, -13.680, 8.767, 28.18, -0.33987, 0.51511, 0.31409, 0.72137,
 15:01:26.179,ed:40:fe:65:30:6c, 2015-01-01 01:24:08.640, 0.959, 0.106, 0.27, 0, -0.305, -0.977, 20.858, -73.081, -145.162, -26.007, -13.680, 8.767, 28.18, -0.33987, 0.51511, 0.31409, 0.72137,
 15:01:26.182,e3:ca:2d:fd:e0:8c, 2015-01-01 01:23:58.115, 0.955, 0.064, -0.343, 0, 0.732, 0, 169.464, -69.895, -29.608, -24.693, -10.453, 1.047, 29.66, 0.2171, 0.77658, -0.25793, 0.5321,
 15:01:26.182,e3:ca:2d:fd:e0:8c, 2015-01-01 01:23:58.115, 0.955, 0.063, -0.342, -0.122, 0.244, 0, 169.459, -69.906, -29.614, -24.693, -10.453, 1.047, 29.66, 0.2171, 0.77658, -0.25793, 0.5321,
