Index,L5_Acceleration X(g),L5_Acceleration Y(g),L5_Acceleration Z(g),L5_Angular velocity X(°/s),L5_Angular velocity Y(°/s),L5_Angular velocity Z(°/s),L5_Angle X(°),L5_Angle Y(°),L5_Angle Z(°),L5_Magnetic field X(ʯt),L5_Magnetic field Y(ʯt),L5_Magnetic field Z(ʯt),L5_Temperature(℃),L5_Quaternions 0(),L5_Quaternions 1(),L5_Quaternions 2(),L5_Quaternions 3(),L5___orig_idx,T4_Acceleration X(g),T4_Acceleration Y(g),T4_Acceleration Z(g),T4_Angular velocity X(°/s),T4_Angular velocity Y(°/s),T4_Angular velocity Z(°/s),T4_Angle X(°),T4_Angle Y(°),T4_Angle Z(°),T4_Magnetic field X(ʯt),T4_Magnetic field Y(ʯt),T4_Magnetic field Z(ʯt),T4_Temperature(℃),T4_Quaternions 0(),T4_Quaternions 1(),T4_Quaternions 2(),T4_Quaternions 3(),T4___orig_idx,C7_Acceleration X(g),C7_Acceleration Y(g),C7_Acceleration Z(g),C7_Angular velocity X(°/s),C7_Angular velocity Y(°/s),C7_Angular velocity Z(°/s),C7_Angle X(°),C7_Angle Y(°),C7_Angle Z(°),C7_Magnetic field X(ʯt),C7_Magnetic field Y(ʯt),C7_Magnetic field Z(ʯt),C7_Temperature(℃),C7_Quaternions 0(),C7_Quaternions 1(),C7_Quaternions 2(),C7_Quaternions 3(),C7___orig_idx,T12_Acceleration X(g),T12_Acceleration Y(g),T12_Acceleration Z(g),T12_Angular velocity X(°/s),T12_Angular velocity Y(°/s),T12_Angular velocity Z(°/s),T12_Angle X(°),T12_Angle Y(°),T12_Angle Z(°),T12_Magnetic field X(ʯt),T12_Magnetic field Y(ʯt),T12_Magnetic field Z(ʯt),T12_Temperature(℃),T12_Quaternions 0(),T12_Quaternions 1(),T12_Quaternions 2(),T12_Quaternions 3(),T12___orig_idx
0,0.975,0.138,0.253,0.0,-0.427,0.122,28.4,-73.488,143.492,-24.787,-15.02,-8.1,29.46,0.10324,0.61218,0.00531,0.78387,0,0.6,0.264,0.755,-1.099,-0.427,-0.549,19.226,-36.826,-145.849,-17.38,-15.1,-3.42,29.46,0.32599,-0.25076,-0.2435,-0.87833,8,0.362,0.328,0.869,0.61,-0.488,-1.404,20.528,-21.171,152.238,-11.167,-16.593,-31.173,28.7,0.19989,0.2175,0.12585,0.94699,2,0.921,0.343,0.078,0.122,-0.183,0.122,76.509,-69.153,131.149,-28.733,-18.147,0.2,31.45,-0.05188,0.61676,0.27911,0.73407,4
1,0.977,0.138,0.255,0.244,-0.244,0.122,28.405,-73.493,143.487,-24.787,-15.02,-8.1,29.46,0.10324,0.61218,0.00531,0.78387,1,0.603,0.266,0.752,-1.099,-0.549,-0.61,19.215,-36.832,-145.882,-17.38,-15.1,-3.42,29.46,0.32599,-0.25076,-0.2435,-0.87833,9,0.363,0.334,0.867,0.671,-0.305,-1.404,20.555,-21.165,152.243,-11.167,-16.593,-31.173,28.7,0.19989,0.2175,0.12585,0.94699,3,0.926,0.342,0.081,0.0,-0.122,0.244,76.514,-69.159,131.166,-28.733,-18.147,0.2,31.45,-0.05188,0.61676,0.27911,0.73407,5
2,0.977,0.137,0.256,0.305,-0.305,0.061,28.416,-73.499,143.476,-24.787,-15.02,-8.1,29.46,0.10324,0.61218,0.00531,0.78387,6,0.605,0.281,0.751,-2.991,-1.221,-0.488,19.171,-36.848,-145.909,-17.38,-15.1,-3.42,29.46,0.32599,-0.25076,-0.2435,-0.87833,14,0.365,0.34,0.869,0.61,-0.671,-2.075,20.588,-21.165,152.232,-11.167,-16.593,-31.173,28.7,0.19989,0.2175,0.12585,0.94699,12,0.928,0.345,0.082,0.122,-0.061,0.488,76.514,-69.17,131.188,-28.733,-18.147,0.2,31.45,-0.05188,0.61676,0.27911,0.73407,10
3,0.978,0.137,0.255,0.0,-0.122,0.0,28.427,-73.499,143.47,-24.787,-15.02,-8.1,29.46,0.10324,0.61218,0.00531,0.78387,7,0.606,0.269,0.757,-4.822,-1.038,-0.61,19.094,-36.865,-145.926,-17.38,-15.1,-3.42,29.46,0.32599,-0.25076,-0.2435,-0.87833,15,0.367,0.326,0.869,-0.793,0.122,-2.563,20.594,-21.149,152.205,-11.167,-16.593,-31.173,28.7,0.19989,0.2175,0.12585,0.94699,13,0.924,0.348,0.078,-0.183,-0.061,0.793,76.509,-69.181,131.215,-28.733,-18.147,0.2,31.45,-0.05188,0.61676,0.27911,0.73407,11
4,0.979,0.141,0.253,-0.061,0.0,0.061,28.422,-73.499,143.47,-24.787,-15.02,-8.1,29.46,0.10388,0.61243,0.00504,0.7836,26,0.603,0.257,0.753,-5.493,-0.305,-1.16,19.006,-36.865,-145.953,-17.38,-15.1,-3.42,29.46,0.32599,-0.25076,-0.2435,-0.87833,20,0.368,0.325,0.867,-2.197,-0.305,-3.113,20.572,-21.132,152.144,-11.167,-16.593,-31.173,28.7,0.19989,0.2175,0.12585,0.94699,18,0.921,0.343,0.076,-1.038,0.122,0.793,76.481,-69.197,131.248,-28.733,-18.147,0.2,31.45,-0.05188,0.61676,0.27911,0.73407,16
5,0.98,0.139,0.254,0.122,-0.061,-0.061,28.433,-73.499,143.459,-24.787,-15.02,-8.1,29.46,0.10388,0.61243,0.00504,0.7836,27,0.603,0.258,0.753,-5.188,-0.061,-1.343,18.924,-36.859,-145.986,-17.38,-15.1,-3.42,29.46,0.32599,-0.25076,-0.2435,-0.87833,21,0.366,0.326,0.864,-2.502,-0.305,-3.601,20.55,-21.116,152.067,-11.167,-16.593,-31.173,28.7,0.19989,0.2175,0.12585,0.94699,19,0.922,0.338,0.075,-1.404,0.244,0.977,76.443,-69.208,131.254,-28.733,-18.147,0.2,31.45,-0.05188,0.61676,0.27911,0.73407,17
6,0.981,0.138,0.252,0.0,0.0,-0.305,28.449,-73.499,143.443,-24.787,-15.02,-8.1,29.46,0.10388,0.61243,0.00504,0.7836,32,0.603,0.253,0.753,-4.15,-0.122,-1.343,18.864,-36.854,-146.025,-17.153,-15.22,-3.34,29.46,0.32599,-0.25076,-0.2435,-0.87833,22,0.361,0.325,0.867,-2.014,0.671,-2.991,20.533,-21.088,152.023,-11.167,-16.593,-31.173,28.7,0.19989,0.2175,0.12585,0.94699,30,0.923,0.337,0.075,-1.343,0.366,1.038,76.393,-69.23,131.27,-28.733,-18.147,0.2,31.45,-0.05188,0.61676,0.27911,0.73407,24
7,0.979,0.14,0.251,-0.366,0.0,-0.488,28.471,-73.493,143.41,-24.787,-15.02,-8.1,29.46,0.10388,0.61243,0.00504,0.7836,33,0.599,0.247,0.754,-2.625,-0.061,-0.916,18.831,-36.848,-146.063,-17.153,-15.22,-3.34,29.46,0.32599,-0.25076,-0.2435,-0.87833,23,0.356,0.325,0.871,-0.977,1.465,-1.404,20.522,-21.055,152.029,-11.167,-16.593,-31.173,28.7,0.19989,0.2175,0.12585,0.94699,31,0.922,0.333,0.076,-1.099,0.549,0.732,76.339,-69.241,131.32,-28.733,-18.147,0.2,31.45,-0.05188,0.61676,0.27911,0.73407,25
8,0.978,0.139,0.251,-0.61,0.122,-0.427,28.488,-73.488,143.383,-24.787,-15.02,-8.1,29.46,0.10388,0.61243,0.00504,0.7836,40,0.602,0.25,0.758,-0.916,0.0,-0.427,18.82,-36.848,-146.091,-17.153,-15.22,-3.34,29.46,0.32599,-0.25076,-0.2435,-0.87833,34,0.358,0.326,0.873,-0.549,1.099,-0.183,20.511,-21.033,152.045,-10.62,-16.607,-30.2,28.7,0.19989,0.2175,0.12585,0.94699,36,0.925,0.335,0.08,-0.549,0.549,0.427,76.3,-69.252,131.375,-28.973,-17.907,1.3,31.45,-0.05188,0.61676,0.27911,0.73407,28
9,0.978,0.139,0.251,-0.671,0.0,-0.183,28.493,-73.482,143.366,-24.787,-15.02,-8.1,29.46,0.10388,0.61243,0.00504,0.7836,41,0.599,0.263,0.757,-1.16,-0.366,-0.305,18.803,-36.854,-146.107,-17.153,-15.22,-3.34,29.46,0.32599,-0.25076,-0.2435,-0.87833,35,0.357,0.329,0.872,-0.061,0.0,-0.732,20.517,-21.033,152.045,-10.62,-16.607,-30.2,28.7,0.19989,0.2175,0.12585,0.94699,37,0.923,0.341,0.081,-0.061,0.488,0.183,76.278,-69.252,131.402,-28.973,-17.907,1.3,31.45,-0.05188,0.61676,0.27911,0.73407,29
10,0.977,0.141,0.25,-0.305,0.0,0.0,28.488,-73.488,143.361,-24.787,-15.02,-8.1,29.46,0.10388,0.61243,0.00504,0.7836,44,0.599,0.256,0.76,-1.77,-0.244,-0.366,18.776,-36.859,-146.135,-17.153,-15.22,-3.34,29.46,0.32214,-0.25314,-0.23914,-0.88025,38,0.361,0.327,0.869,-0.183,-0.244,-1.343,20.522,-21.028,152.007,-10.62,-16.607,-30.2,28.7,0.19989,0.2175,0.12585,0.94699,48,0.92,0.337,0.081,-0.061,0.427,0.183,76.256,-69.258,131.435,-28.973,-17.907,1.3,31.45,-0.05368,0.61633,0.2793,0.73425,42
11,0.975,0.141,0.252,0.122,0.305,0.0,28.488,-73.482,143.361,-24.787,-15.02,-8.1,29.46,0.10388,0.61243,0.00504,0.7836,45,0.602,0.256,0.756,-2.319,0.0,-0.244,18.732,-36.859,-146.146,-17.153,-15.22,-3.34,29.46,0.32214,-0.25314,-0.23914,-0.88025,39,0.361,0.329,0.868,-1.16,-0.122,-1.77,20.517,-21.022,151.974,-10.62,-16.607,-30.2,28.7,0.19989,0.2175,0.12585,0.94699,49,0.923,0.336,0.081,-0.366,0.366,0.244,76.234,-69.258,131.473,-28.973,-17.907,1.3,31.45,-0.05368,0.61633,0.2793,0.73425,43
12,0.975,0.139,0.257,0.183,0.549,-0.122,28.488,-73.471,143.372,-24.787,-15.02,-8.1,29.46,0.10388,0.61243,0.00504,0.7836,50,0.603,0.259,0.756,-3.052,0.0,-0.244,18.677,-36.859,-146.14,-17.153,-15.22,-3.34,29.46,0.32214,-0.25314,-0.23914,-0.88025,52,0.359,0.333,0.867,-2.319,-0.366,-2.441,20.49,-21.017,151.886,-10.62,-16.607,-30.2,28.7,0.20328,0.21655,0.12613,0.94644,54,0.926,0.342,0.081,-0.549,0.61,0.366,76.201,-69.263,131.512,-28.973,-17.907,1.3,31.45,-0.05368,0.61633,0.2793,0.73425,46
13,0.976,0.141,0.257,-0.305,0.549,-0.244,28.482,-73.46,143.372,-24.787,-15.02,-8.1,29.46,0.10388,0.61243,0.00504,0.7836,51,0.599,0.261,0.756,-3.296,0.061,-0.305,18.616,-36.854,-146.135,-17.153,-15.22,-3.34,29.46,0.32214,-0.25314,-0.23914,-0.88025,53,0.355,0.333,0.868,-2.808,0.0,-2.441,20.457,-21.0,151.826,-10.62,-16.607,-30.2,28.7,0.20328,0.21655,0.12613,0.94644,55,0.924,0.344,0.083,-0.793,0.977,0.488,76.141,-69.269,131.55,-28.973,-17.907,1.3,31.45,-0.05368,0.61633,0.2793,0.73425,47
14,0.977,0.142,0.257,-0.244,0.549,-0.244,28.477,-73.449,143.372,-24.787,-15.02,-8.1,29.46,0.10388,0.61243,0.00504,0.7836,58,0.595,0.257,0.76,-3.113,0.183,-0.244,18.561,-36.854,-146.129,-17.153,-15.22,-3.34,29.46,0.32214,-0.25314,-0.23914,-0.88025,60,0.352,0.33,0.875,-2.869,0.977,-1.709,20.413,-20.973,151.776,-10.62,-16.607,-30.2,28.7,0.20328,0.21655,0.12613,0.94644,62,0.92,0.342,0.084,-0.732,1.038,0.549,76.075,-69.274,131.589,-28.973,-17.907,1.3,31.45,-0.05368,0.61633,0.2793,0.73425,56
15,0.976,0.141,0.254,0.122,0.488,-0.061,28.477,-73.438,143.377,-24.787,-15.02,-8.1,29.46,0.10388,0.61243,0.00504,0.7836,59,0.593,0.25,0.764,-2.38,0.305,-0.183,18.517,-36.843,-146.118,-17.153,-15.22,-3.34,29.46,0.32214,-0.25314,-0.23914,-0.88025,61,0.348,0.321,0.878,-2.625,1.77,-1.099,20.363,-20.934,151.754,-10.62,-16.607,-30.2,28.7,0.20328,0.21655,0.12613,0.94644,63,0.92,0.339,0.084,-0.671,0.916,0.488,76.014,-69.28,131.594,-28.973,-17.907,1.3,31.45,-0.05368,0.61633,0.2793,0.73425,57
16,0.975,0.14,0.255,0.183,0.305,0.0,28.471,-73.433,143.388,-24.787,-15.02,-8.1,29.46,0.10388,0.61243,0.00504,0.7836,64,0.595,0.244,0.764,-1.648,0.122,-0.183,18.484,-36.843,-146.118,-17.153,-15.22,-3.34,29.46,0.32214,-0.25314,-0.23914,-0.88025,66,0.358,0.322,0.876,-3.235,1.038,-1.099,20.308,-20.907,151.749,-10.62,-16.607,-30.2,28.7,0.20328,0.21655,0.12613,0.94644,70,0.922,0.334,0.087,-0.549,0.732,0.366,75.965,-69.28,131.578,-28.973,-17.907,1.3,31.45,-0.05368,0.61633,0.2793,0.73425,68
17,0.978,0.138,0.255,-0.122,0.122,0.061,28.466,-73.433,143.388,-24.787,-15.02,-8.1,29.46,0.10388,0.61243,0.00504,0.7836,65,0.601,0.249,0.761,-1.099,0.183,0.0,18.463,-36.837,-146.118,-17.153,-15.22,-3.34,29.46,0.32214,-0.25314,-0.23914,-0.88025,67,0.357,0.333,0.871,-3.479,0.427,-0.61,20.242,-20.896,151.716,-10.62,-16.607,-30.2,28.7,0.20328,0.21655,0.12613,0.94644,71,0.923,0.332,0.085,-0.061,0.61,0.122,75.932,-69.28,131.556,-28.973,-17.907,1.3,31.45,-0.05368,0.61633,0.2793,0.73425,69
18,0.974,0.138,0.253,-0.366,0.061,0.0,28.46,-73.427,143.388,-24.787,-15.02,-8.1,29.46,0.10388,0.61243,0.00504,0.7836,78,0.598,0.255,0.755,-0.793,0.366,0.732,18.435,-36.832,-146.091,-17.153,-15.22,-3.34,29.46,0.32214,-0.25314,-0.23914,-0.88025,72,0.353,0.333,0.866,-3.418,1.099,0.854,20.171,-20.88,151.721,-10.62,-16.607,-30.2,28.7,0.20328,0.21655,0.12613,0.94644,74,0.919,0.331,0.083,0.366,0.793,0.122,75.899,-69.28,131.534,-28.973,-17.907,1.3,31.45,-0.05368,0.61633,0.2793,0.73425,76
19,0.973,0.139,0.255,0.061,0.244,0.183,28.449,-73.427,143.405,-24.787,-15.02,-8.1,29.46,0.10388,0.61243,0.00504,0.7836,79,0.591,0.254,0.756,-0.916,0.61,1.343,18.397,-36.832,-146.058,-17.153,-15.22,-3.34,29.46,0.32214,-0.25314,-0.23914,-0.88025,73,0.345,0.324,0.868,-3.54,1.648,1.221,20.094,-20.858,151.771,-10.62,-16.607,-30.2,28.7,0.20328,0.21655,0.12613,0.94644,75,0.915,0.338,0.084,0.61,0.854,0.244,75.866,-69.285,131.539,-28.973,-17.907,1.3,31.45,-0.05368,0.61633,0.2793,0.73425,77
20,0.971,0.14,0.256,0.549,0.366,0.427,28.427,-73.427,143.432,-24.78,-15.067,-8.273,29.46,0.10388,0.61243,0.00504,0.7836,80,0.588,0.258,0.759,-1.099,0.854,1.404,18.353,-36.821,-146.025,-17.153,-15.22,-3.34,29.46,0.32214,-0.25314,-0.23914,-0.88025,86,0.348,0.329,0.869,-3.723,1.099,0.793,20.023,-20.847,151.842,-10.62,-16.607,-30.2,28.7,0.20328,0.21655,0.12613,0.94644,82,0.915,0.342,0.089,0.732,0.916,0.488,75.833,-69.291,131.572,-28.973,-17.907,1.3,31.45,-0.05368,0.61633,0.2793,0.73425,84
21,0.971,0.141,0.257,0.305,0.244,0.549,28.4,-73.427,143.47,-24.78,-15.067,-8.273,29.46,0.10388,0.61243,0.00504,0.7836,81,0.594,0.258,0.76,-0.366,0.977,1.648,18.32,-36.81,-145.981,-17.153,-15.22,-3.34,29.46,0.32214,-0.25314,-0.23914,-0.88025,87,0.352,0.324,0.88,-2.93,0.061,0.732,19.962,-20.847,151.908,-10.62,-16.607,-30.2,28.7,0.20328,0.21655,0.12613,0.94644,83,0.922,0.34,0.087,1.16,0.916,0.793,75.8,-69.302,131.627,-28.973,-17.907,1.3,31.45,-0.05368,0.61633,0.2793,0.73425,85
22,0.975,0.142,0.254,0.183,0.488,0.732,28.35,-73.422,143.531,-24.78,-15.067,-8.273,29.46,0.10388,0.61243,0.00504,0.7836,92,0.599,0.249,0.766,0.0,0.549,1.77,18.298,-36.81,-145.942,-17.153,-15.22,-3.34,29.46,0.32214,-0.25314,-0.23914,-0.88025,90,0.352,0.315,0.883,-2.869,0.366,0.916,19.907,-20.847,151.996,-10.62,-16.607,-30.2,28.7,0.20328,0.21655,0.12613,0.94644,94,0.927,0.337,0.085,1.465,0.793,0.732,75.778,-69.307,131.688,-28.807,-17.947,0.9,31.45,-0.05368,0.61633,0.2793,0.73425,88
23,0.979,0.141,0.257,0.244,0.366,0.916,28.295,-73.422,143.597,-24.78,-15.067,-8.273,29.46,0.10388,0.61243,0.00504,0.7836,93,0.598,0.246,0.768,-0.427,0.122,1.709,18.265,-36.815,-145.898,-17.153,-15.22,-3.34,29.46,0.32214,-0.25314,-0.23914,-0.88025,91,0.355,0.311,0.885,-2.563,-0.183,0.549,19.852,-20.852,152.078,-10.62,-16.607,-30.2,28.7,0.20328,0.21655,0.12613,0.94644,95,0.926,0.336,0.085,1.526,0.61,0.549,75.773,-69.318,131.743,-28.807,-17.947,0.9,31.45,-0.05368,0.61633,0.2793,0.73425,89
24,0.981,0.138,0.259,0.427,0.488,0.916,28.24,-73.422,143.668,-24.78,-15.067,-8.273,29.46,0.10379,0.61179,0.00507,0.78409,96,0.602,0.243,0.768,-0.916,0.061,1.404,18.226,-36.821,-145.854,-17.153,-15.22,-3.34,29.46,0.32214,-0.25314,-0.23914,-0.88025,100,0.357,0.312,0.88,-2.502,-0.671,0.0,19.808,-20.863,152.128,-10.62,-16.607,-30.2,28.7,0.20328,0.21655,0.12613,0.94644,106,0.928,0.337,0.087,1.282,0.427,0.366,75.773,-69.324,131.765,-28.807,-17.947,0.9,31.45,-0.05368,0.61633,0.2793,0.73425,98
25,0.98,0.139,0.256,0.549,0.61,0.671,28.196,-73.416,143.723,-24.78,-15.067,-8.273,29.46,0.10379,0.61179,0.00507,0.78409,97,0.599,0.25,0.763,-1.587,0.122,1.038,18.177,-36.821,-145.811,-17.153,-15.22,-3.34,29.46,0.32214,-0.25314,-0.23914,-0.88025,101,0.361,0.316,0.877,-1.465,-1.404,-0.305,19.792,-20.885,152.117,-10.62,-16.607,-30.2,28.7,0.20328,0.21655,0.12613,0.94644,107,0.927,0.341,0.085,0.793,0.244,0.305,75.773,-69.324,131.759,-28.807,-17.947,0.9,31.45,-0.05368,0.61633,0.2793,0.73425,99
26,0.976,0.14,0.254,0.732,0.305,0.366,28.185,-73.416,143.756,-24.78,-15.067,-8.273,29.46,0.10379,0.61179,0.00507,0.78409,102,0.594,0.238,0.759,-0.671,0.732,1.038,18.138,-36.815,-145.772,-17.813,-14.987,-4.007,29.46,0.32214,-0.25314,-0.23914,-0.88025,104,0.357,0.311,0.871,-0.732,-1.282,-0.305,19.781,-20.907,152.089,-10.66,-16.493,-31.0,28.7,0.20328,0.21655,0.12613,0.94644,112,0.922,0.338,0.084,0.427,0.305,0.305,75.762,-69.329,131.781,-28.807,-17.947,0.9,31.45,-0.05353,0.61603,0.27759,0.73517,108
27,0.974,0.139,0.255,0.61,-0.183,0.305,28.191,-73.422,143.762,-24.78,-15.067,-8.273,29.46,0.10379,0.61179,0.00507,0.78409,103,0.589,0.237,0.762,0.549,0.671,1.526,18.105,-36.81,-145.734,-17.813,-14.987,-4.007,29.46,0.32214,-0.25314,-0.23914,-0.88025,105,0.346,0.311,0.874,-0.488,-0.183,0.122,19.775,-20.907,152.111,-10.66,-16.493,-31.0,28.7,0.20328,0.21655,0.12613,0.94644,113,0.92,0.329,0.084,0.61,0.366,0.061,75.756,-69.329,131.759,-28.807,-17.947,0.9,31.45,-0.05353,0.61603,0.27759,0.73517,109
28,0.974,0.135,0.257,0.061,-0.244,0.427,28.18,-73.427,143.778,-24.78,-15.067,-8.273,29.46,0.10379,0.61179,0.00507,0.78409,110,0.592,0.241,0.767,2.014,0.61,1.953,18.1,-36.804,-145.684,-17.813,-14.987,-4.007,29.46,0.32214,-0.25314,-0.23914,-0.88025,114,0.353,0.314,0.875,0.427,0.671,1.77,19.764,-20.901,152.177,-10.66,-16.493,-31.0,28.7,0.20328,0.21655,0.12613,0.94644,118,0.918,0.328,0.087,1.282,0.488,-0.061,75.756,-69.329,131.759,-28.807,-17.947,0.9,31.45,-0.05353,0.61603,0.27759,0.73517,116
29,0.974,0.135,0.256,-0.366,-0.122,0.549,28.147,-73.433,143.806,-24.78,-15.067,-8.273,29.46,0.10379,0.61179,0.00507,0.78409,111,0.597,0.244,0.762,2.747,0.793,2.075,18.105,-36.804,-145.618,-17.813,-14.987,-4.007,29.46,0.32214,-0.25314,-0.23914,-0.88025,115,0.358,0.313,0.873,0.854,-0.549,2.319,19.764,-20.907,152.265,-10.66,-16.493,-31.0,28.7,0.20328,0.21655,0.12613,0.94644,119,0.917,0.332,0.088,1.831,0.427,-0.122,75.767,-69.324,131.743,-28.807,-17.947,0.9,31.45,-0.05353,0.61603,0.27759,0.73517,117
30,0.974,0.137,0.255,0.122,0.0,0.671,28.109,-73.438,143.844,-24.78,-15.067,-8.273,29.46,0.10379,0.61179,0.00507,0.78409,122,0.601,0.247,0.759,3.113,0.793,1.953,18.127,-36.799,-145.563,-17.813,-14.987,-4.007,29.46,0.32434,-0.25369,-0.23477,-0.88046,130,0.355,0.315,0.876,0.183,-0.122,2.625,19.764,-20.929,152.358,-10.66,-16.493,-31.0,28.7,0.20129,0.21405,0.12112,0.94809,124,0.922,0.336,0.085,1.953,0.305,-0.122,75.795,-69.324,131.726,-28.807,-17.947,0.9,31.45,-0.05353,0.61603,0.27759,0.73517,120
31,0.976,0.138,0.257,0.977,0.061,0.793,28.081,-73.449,143.893,-24.78,-15.067,-8.273,29.46,0.10379,0.61179,0.00507,0.78409,123,0.6,0.252,0.764,2.258,0.305,1.648,18.149,-36.799,-145.508,-17.813,-14.987,-4.007,29.46,0.32434,-0.25369,-0.23477,-0.88046,131,0.361,0.315,0.879,-0.244,0.366,1.953,19.748,-20.945,152.369,-10.66,-16.493,-31.0,28.7,0.20129,0.21405,0.12112,0.94809,125,0.927,0.339,0.086,1.77,0.244,-0.122,75.817,-69.318,131.71,-28.807,-17.947,0.9,31.45,-0.05353,0.61603,0.27759,0.73517,121
32,0.979,0.139,0.26,0.793,0.0,0.854,28.048,-73.455,143.943,-24.78,-15.067,-8.273,29.46,0.10379,0.61179,0.00507,0.78409,126,0.607,0.252,0.761,0.671,0.366,1.282,18.16,-36.799,-145.475,-17.813,-14.987,-4.007,29.46,0.32434,-0.25369,-0.23477,-0.88046,136,0.364,0.308,0.873,-1.404,0.183,0.916,19.726,-20.945,152.32,-10.66,-16.493,-31.0,28.7,0.20129,0.21405,0.12112,0.94809,132,0.928,0.343,0.085,1.404,0.427,-0.305,75.828,-69.313,131.726,-28.807,-17.947,0.9,31.45,-0.05353,0.61603,0.27759,0.73517,128
33,0.978,0.14,0.259,0.122,-0.183,0.549,28.026,-73.46,143.97,-24.78,-15.067,-8.273,29.46,0.10379,0.61179,0.00507,0.78409,127,0.606,0.25,0.756,-0.916,0.854,0.305,18.149,-36.793,-145.443,-17.813,-14.987,-4.007,29.46,0.32434,-0.25369,-0.23477,-0.88046,137,0.364,0.302,0.87,-1.648,-0.366,-0.977,19.693,-20.951,152.254,-10.66,-16.493,-31.0,28.7,0.20129,0.21405,0.12112,0.94809,133,0.925,0.347,0.079,0.61,0.549,-0.244,75.828,-69.307,131.721,-28.807,-17.947,0.9,31.45,-0.05353,0.61603,0.27759,0.73517,129
34,0.979,0.141,0.256,0.061,-0.061,0.305,28.015,-73.46,143.981,-24.78,-15.067,-8.273,29.46,0.10379,0.61179,0.00507,0.78409,134,0.603,0.243,0.756,-0.854,1.282,-0.549,18.122,-36.777,-145.426,-17.813,-14.987,-4.007,29.46,0.32434,-0.25369,-0.23477,-0.88046,140,0.361,0.309,0.875,-0.549,0.061,-1.892,19.671,-20.945,152.227,-10.66,-16.493,-31.0,28.7,0.20129,0.21405,0.12112,0.94809,142,0.925,0.343,0.077,-0.122,0.793,0.0,75.811,-69.296,131.704,-28.807,-17.947,0.9,31.45,-0.05353,0.61603,0.27759,0.73517,138
35,0.981,0.139,0.253,0.488,-0.122,0.061,28.032,-73.466,143.981,-24.78,-15.067,-8.273,29.46,0.10379,0.61179,0.00507,0.78409,135,0.602,0.242,0.761,-0.183,1.282,-0.732,18.111,-36.749,-145.426,-17.813,-14.987,-4.007,29.46,0.32434,-0.25369,-0.23477,-0.88046,141,0.36,0.315,0.879,-0.305,1.16,-1.16,19.671,-20.934,152.177,-10.66,-16.493,-31.0,28.7,0.20129,0.21405,0.12112,0.94809,143,0.925,0.335,0.079,-0.549,0.793,-0.122,75.767,-69.296,131.704,-28.807,-17.947,0.9,31.45,-0.05353,0.61603,0.27759,0.73517,139
36,0.981,0.138,0.253,0.427,-0.183,-0.061,28.054,-73.466,143.97,-24.78,-15.067,-8.273,29.46,0.10379,0.61179,0.00507,0.78409,146,0.601,0.244,0.763,0.244,1.282,-0.305,18.111,-36.722,-145.415,-17.813,-14.987,-4.007,29.46,0.32434,-0.25369,-0.23477,-0.88046,144,0.357,0.313,0.88,-0.366,0.61,-0.549,19.671,-20.907,152.111,-10.66,-16.493,-31.0,28.7,0.20129,0.21405,0.12112,0.94809,148,0.924,0.332,0.081,-0.488,0.732,-0.305,75.729,-69.285,131.704,-28.807,-17.947,0.9,31.45,-0.05353,0.61603,0.27759,0.73517,150
37,0.98,0.136,0.252,0.122,0.122,-0.244,28.07,-73.46,143.954,-24.78,-15.067,-8.273,29.46,0.10379,0.61179,0.00507,0.78409,147,0.596,0.247,0.76,0.61,0.916,-0.061,18.111,-36.7,-145.393,-17.813,-14.987,-4.007,29.46,0.32434,-0.25369,-0.23477,-0.88046,145,0.355,0.307,0.878,-0.122,-0.916,-1.099,19.671,-20.901,152.067,-10.66,-16.493,-31.0,28.7,0.20129,0.21405,0.12112,0.94809,149,0.92,0.334,0.078,-0.122,0.793,-0.305,75.69,-69.28,131.715,-28.807,-17.947,0.9,31.45,-0.05353,0.61603,0.27759,0.73517,151
38,0.98,0.134,0.254,-0.122,0.305,-0.183,28.076,-73.455,143.948,-24.633,-15.127,-8.427,29.46,0.10379,0.61179,0.00507,0.78409,152,0.592,0.249,0.76,1.831,0.061,-0.61,18.127,-36.689,-145.377,-17.813,-14.987,-4.007,29.46,0.32434,-0.25369,-0.23477,-0.88046,154,0.35,0.309,0.879,1.282,-2.014,-2.747,19.688,-20.918,152.007,-10.66,-16.493,-31.0,28.7,0.20129,0.21405,0.12112,0.94809,156,0.919,0.345,0.075,0.305,0.916,0.305,75.657,-69.274,131.732,-28.76,-18.333,0.827,31.45,-0.05353,0.61603,0.27759,0.73517,158
39,0.98,0.136,0.248,0.0,0.977,0.061,28.043,-73.438,143.981,-24.633,-15.127,-8.427,29.46,0.10379,0.61179,0.00507,0.78409,153,0.593,0.254,0.769,2.747,-0.488,-1.099,18.177,-36.689,-145.377,-17.813,-14.987,-4.007,29.46,0.32434,-0.25369,-0.23477,-0.88046,155,0.348,0.329,0.881,2.258,-2.563,-3.723,19.742,-20.94,151.935,-10.66,-16.493,-31.0,28.7,0.20129,0.21405,0.12112,0.94809,157,0.926,0.345,0.089,0.916,0.61,0.549,75.63,-69.274,131.781,-28.76,-18.333,0.827,31.45,-0.05353,0.61603,0.27759,0.73517,159
40,0.976,0.141,0.25,1.038,2.808,0.549,27.949,-73.394,144.108,-24.633,-15.127,-8.427,29.46,0.10379,0.61179,0.00507,0.78409,160,0.599,0.26,0.767,0.427,-0.427,-0.549,18.237,-36.694,-145.393,-17.813,-14.987,-4.007,29.46,0.32434,-0.25369,-0.23477,-0.88046,162,0.355,0.334,0.87,1.221,-3.052,-2.869,19.814,-20.962,151.87,-10.66,-16.493,-31.0,28.7,0.20129,0.21405,0.12112,0.94809,166,0.927,0.328,0.102,1.16,0.549,0.244,75.624,-69.285,131.841,-28.76,-18.333,0.827,31.45,-0.0531,0.61572,0.27734,0.73553,164
41,0.974,0.139,0.261,1.709,2.625,1.099,27.845,-73.361,144.25,-24.633,-15.127,-8.427,29.46,0.10379,0.61179,0.00507,0.78409,161,0.596,0.26,0.759,-2.93,0.0,0.122,18.232,-36.7,-145.404,-17.813,-14.987,-4.007,29.46,0.32434,-0.25369,-0.23477,-0.88046,163,0.36,0.31,0.869,-1.526,-3.601,-2.686,19.852,-21.006,151.826,-10.66,-16.493,-31.0,28.7,0.20129,0.21405,0.12112,0.94809,167,0.92,0.325,0.095,0.122,1.099,0.488,75.608,-69.285,131.907,-28.76,-18.333,0.827,31.45,-0.0531,0.61572,0.27734,0.73553,165
42,0.974,0.127,0.262,1.099,2.625,0.977,27.735,-73.328,144.36,-24.633,-15.127,-8.427,29.46,0.10214,0.61111,0.00565,0.78482,172,0.59,0.237,0.757,-4.333,0.427,-0.183,18.166,-36.694,-145.404,-17.813,-14.987,-4.007,29.46,0.32434,-0.25369,-0.23477,-0.88046,168,0.36,0.293,0.87,-2.258,-2.441,-3.418,19.847,-21.044,151.82,-10.66,-16.493,-31.0,28.7,0.20129,0.21405,0.12112,0.94809,178,0.915,0.336,0.081,0.549,0.61,0.305,75.553,-69.291,131.984,-28.76,-18.333,0.827,31.45,-0.0531,0.61572,0.27734,0.73553,170
43,0.973,0.131,0.254,2.747,6.348,0.977,27.537,-73.224,144.569,-24.633,-15.127,-8.427,29.46,0.10214,0.61111,0.00565,0.78482,173,0.591,0.231,0.759,-2.197,-0.122,-1.221,18.094,-36.689,-145.415,-17.813,-14.987,-4.007,29.46,0.32434,-0.25369,-0.23477,-0.88046,169,0.357,0.304,0.878,0.305,-0.549,-2.808,19.841,-21.061,151.815,-10.66,-16.493,-31.0,28.7,0.20129,0.21405,0.12112,0.94809,179,0.921,0.349,0.08,1.038,0.122,0.0,75.536,-69.296,132.023,-28.76,-18.333,0.827,31.45,-0.0531,0.61572,0.27734,0.73553,171
44,0.973,0.144,0.262,4.944,5.737,1.221,27.394,-73.136,144.778,-24.633,-15.127,-8.427,29.46,0.10214,0.61111,0.00565,0.78482,174,0.599,0.236,0.767,0.854,-1.221,-1.709,18.089,-36.689,-145.448,-17.813,-14.987,-4.007,29.46,0.32434,-0.25369,-0.23477,-0.88046,176,0.36,0.313,0.883,1.404,0.793,-1.282,19.869,-21.044,151.837,-10.46,-16.647,-30.227,28.7,0.20129,0.21405,0.12112,0.94809,184,0.927,0.343,0.085,-0.122,0.244,0.183,75.547,-69.296,132.017,-28.76,-18.333,0.827,31.45,-0.0531,0.61572,0.27734,0.73553,180
45,0.974,0.145,0.269,3.601,4.211,1.16,27.279,-73.076,144.921,-24.633,-15.127,-8.427,29.46,0.10214,0.61111,0.00565,0.78482,175,0.604,0.237,0.769,2.563,-1.404,-1.587,18.138,-36.7,-145.503,-17.813,-14.987,-4.007,29.46,0.32434,-0.25369,-0.23477,-0.88046,177,0.358,0.309,0.884,1.221,0.305,0.366,19.896,-21.028,151.875,-10.46,-16.647,-30.227,28.7,0.20129,0.21405,0.12112,0.94809,185,0.934,0.337,0.088,-0.793,-0.122,-0.122,75.536,-69.296,132.017,-28.76,-18.333,0.827,31.45,-0.0531,0.61572,0.27734,0.73553,181
46,0.979,0.141,0.264,0.183,1.404,0.244,27.241,-73.054,144.937,-24.633,-15.127,-8.427,29.46,0.10214,0.61111,0.00565,0.78482,182,0.598,0.24,0.771,3.357,-1.282,-1.77,18.215,-36.716,-145.563,-17.453,-15.027,-4.66,29.46,0.32434,-0.25369,-0.23477,-0.88046,190,0.352,0.311,0.885,0.793,-1.587,0.0,19.913,-21.033,151.946,-10.46,-16.647,-30.227,28.7,0.20129,0.21405,0.12112,0.94809,192,0.928,0.337,0.091,-0.854,-0.244,-0.61,75.536,-69.291,131.979,-28.76,-18.333,0.827,31.45,-0.0531,0.61572,0.27734,0.73553,186
47,0.979,0.135,0.261,-0.732,0.0,-0.366,27.257,-73.054,144.926,-24.633,-15.127,-8.427,29.46,0.10214,0.61111,0.00565,0.78482,183,0.585,0.253,0.77,2.991,-1.099,-2.075,18.303,-36.727,-145.624,-17.453,-15.027,-4.66,29.46,0.32434,-0.25369,-0.23477,-0.88046,191,0.344,0.326,0.876,1.709,-2.563,-1.648,19.935,-21.061,151.996,-10.46,-16.647,-30.227,28.7,0.20129,0.21405,0.12112,0.94809,193,0.914,0.337,0.089,-0.671,-0.427,-0.732,75.542,-69.28,131.929,-28.76,-18.333,0.827,31.45,-0.0531,0.61572,0.27734,0.73553,187
48,0.974,0.136,0.26,-0.061,-0.183,-0.549,27.301,-73.054,144.893,-24.633,-15.127,-8.427,29.46,0.10214,0.61111,0.00565,0.78482,188,0.582,0.261,0.764,2.869,-0.916,-1.77,18.391,-36.733,-145.695,-17.453,-15.027,-4.66,29.46,0.32437,-0.25247,-0.23663,-0.88031,194,0.355,0.333,0.872,2.625,-2.991,-1.953,19.99,-21.099,151.957,-10.46,-16.647,-30.227,28.7,0.20361,0.21603,0.12167,0.94708,196,0.906,0.333,0.087,-0.488,-0.671,-0.366,75.564,-69.269,131.863,-28.76,-18.333,0.827,31.45,-0.0531,0.61572,0.27734,0.73553,198
49,0.97,0.138,0.26,0.366,-0.916,-0.488,27.367,-73.065,144.827,-24.633,-15.127,-8.427,29.46,0.10214,0.61111,0.00565,0.78482,189,0.597,0.261,0.757,2.502,-1.099,-0.916,18.468,-36.738,-145.75,-17.453,-15.027,-4.66,29.46,0.32437,-0.25247,-0.23663,-0.88031,195,0.362,0.334,0.857,2.136,-3.296,-1.16,20.056,-21.143,151.891,-10.46,-16.647,-30.227,28.7,0.20361,0.21603,0.12167,0.94708,197,0.915,0.326,0.086,-0.244,-0.916,0.122,75.591,-69.269,131.792,-28.76,-18.333,0.827,31.45,-0.0531,0.61572,0.27734,0.73553,199
50,0.964,0.137,0.259,0.549,-0.732,-0.183,27.422,-73.081,144.789,-24.633,-15.127,-8.427,29.46,0.10214,0.61111,0.00565,0.78482,200,0.596,0.261,0.746,1.221,-1.16,-0.061,18.517,-36.749,-145.778,-17.453,-15.027,-4.66,29.46,0.32437,-0.25247,-0.23663,-0.88031,204,0.358,0.326,0.857,1.038,-2.563,-0.122,20.11,-21.187,151.831,-10.46,-16.647,-30.227,28.7,0.20361,0.21603,0.12167,0.94708,206,0.921,0.332,0.084,0.366,-0.549,0.305,75.63,-69.28,131.737,-28.76,-18.333,0.827,31.45,-0.0531,0.61572,0.27734,0.73553,202
51,0.964,0.133,0.27,0.183,0.366,-0.061,27.416,-73.076,144.794,-24.633,-15.127,-8.427,29.46,0.10214,0.61111,0.00565,0.78482,201,0.595,0.254,0.754,1.465,-0.854,0.244,18.545,-36.766,-145.783,-17.453,-15.027,-4.66,29.46,0.32437,-0.25247,-0.23663,-0.88031,205,0.361,0.323,0.87,0.61,-0.366,0.916,20.132,-21.226,151.787,-10.46,-16.647,-30.227,28.7,0.20361,0.21603,0.12167,0.94708,207,0.925,0.338,0.087,0.671,0.0,0.366,75.646,-69.285,131.715,-28.76,-18.333,0.827,31.45,-0.0531,0.61572,0.27734,0.73553,203
52,0.975,0.133,0.272,-0.366,0.916,0.0,27.383,-73.059,144.827,-24.633,-15.127,-8.427,29.46,0.10214,0.61111,0.00565,0.78482,212,0.601,0.252,0.765,1.221,-0.366,0.183,18.572,-36.782,-145.772,-17.453,-15.027,-4.66,29.46,0.32437,-0.25247,-0.23663,-0.88031,208,0.362,0.321,0.876,-0.366,0.854,1.404,20.132,-21.231,151.754,-10.46,-16.647,-30.227,28.7,0.20361,0.21603,0.12167,0.94708,214,0.93,0.338,0.091,0.549,0.183,0.366,75.646,-69.296,131.754,-28.76,-18.333,0.827,31.45,-0.0531,0.61572,0.27734,0.73553,210
53,0.979,0.135,0.267,-0.183,0.061,0.0,27.356,-73.048,144.844,-24.633,-15.127,-8.427,29.46,0.10214,0.61111,0.00565,0.78482,213,0.602,0.252,0.765,0.488,0.0,0.122,18.589,-36.782,-145.756,-17.453,-15.027,-4.66,29.46,0.32437,-0.25247,-0.23663,-0.88031,209,0.366,0.318,0.877,-0.61,0.305,1.343,20.116,-21.226,151.749,-10.46,-16.647,-30.227,28.7,0.20361,0.21603,0.12167,0.94708,215,0.928,0.339,0.09,0.122,0.122,0.366,75.635,-69.302,131.77,-28.76,-18.333,0.827,31.45,-0.0531,0.61572,0.27734,0.73553,211
54,0.978,0.138,0.263,0.122,-0.122,-0.061,27.35,-73.043,144.822,-25.1,-14.813,-8.987,29.46,0.10214,0.61111,0.00565,0.78482,222,0.605,0.255,0.764,0.244,0.305,-0.183,18.594,-36.782,-145.745,-17.453,-15.027,-4.66,29.46,0.32437,-0.25247,-0.23663,-0.88031,216,0.369,0.319,0.878,-0.671,0.122,1.404,20.094,-21.226,151.787,-10.46,-16.647,-30.227,28.7,0.20361,0.21603,0.12167,0.94708,220,0.928,0.345,0.084,-0.366,0.0,0.305,75.624,-69.307,131.743,-29.053,-17.98,0.88,31.45,-0.0531,0.61572,0.27734,0.73553,218
55,0.977,0.144,0.263,0.122,-0.183,-0.122,27.361,-73.048,144.811,-25.1,-14.813,-8.987,29.46,0.10214,0.61111,0.00565,0.78482,223,0.607,0.255,0.765,0.366,0.183,-0.549,18.6,-36.771,-145.75,-17.453,-15.027,-4.66,29.46,0.32437,-0.25247,-0.23663,-0.88031,217,0.369,0.318,0.881,-0.61,0.122,0.427,20.072,-21.231,151.837,-10.46,-16.647,-30.227,28.7,0.20361,0.21603,0.12167,0.94708,221,0.93,0.345,0.082,-0.671,-0.244,0.183,75.619,-69.313,131.693,-29.053,-17.98,0.88,31.45,-0.0531,0.61572,0.27734,0.73553,219
56,0.98,0.146,0.262,-0.244,-0.244,-0.183,27.378,-73.048,144.811,-25.1,-14.813,-8.987,29.46,0.10214,0.61111,0.00565,0.78482,230,0.604,0.257,0.764,0.061,0.0,-1.038,18.611,-36.766,-145.756,-17.453,-15.027,-4.66,29.46,0.32437,-0.25247,-0.23663,-0.88031,224,0.366,0.319,0.879,-0.061,-0.427,-0.183,20.061,-21.231,151.859,-10.46,-16.647,-30.227,28.7,0.20361,0.21603,0.12167,0.94708,226,0.927,0.346,0.078,-0.916,-0.244,0.0,75.613,-69.313,131.611,-29.053,-17.98,0.88,31.45,-0.05167,0.61646,0.27582,0.73563,228
57,0.979,0.146,0.259,-0.732,-0.61,-0.183,27.394,-73.048,144.811,-25.1,-14.813,-8.987,29.46,0.10214,0.61111,0.00565,0.78482,231,0.603,0.256,0.763,0.0,-0.244,-1.343,18.627,-36.755,-145.772,-17.453,-15.027,-4.66,29.46,0.32437,-0.25247,-0.23663,-0.88031,225,0.362,0.322,0.872,0.244,-1.221,-0.793,20.067,-21.242,151.837,-10.46,-16.647,-30.227,28.7,0.20361,0.21603,0.12167,0.94708,227,0.925,0.339,0.078,-0.916,-0.183,-0.244,75.613,-69.313,131.55,-29.053,-17.98,0.88,31.45,-0.05167,0.61646,0.27582,0.73563,229
58,0.979,0.14,0.259,-0.427,-0.854,-0.244,27.422,-73.059,144.783,-25.1,-14.813,-8.987,29.46,0.10162,0.60873,0.00659,0.78674,232,0.595,0.259,0.754,-0.549,-0.732,-1.282,18.638,-36.76,-145.794,-17.453,-15.027,-4.66,29.46,0.32437,-0.25247,-0.23663,-0.88031,234,0.361,0.323,0.862,0.488,-2.197,-1.343,20.083,-21.264,151.765,-10.46,-16.647,-30.227,28.7,0.20361,0.21603,0.12167,0.94708,236,0.917,0.334,0.08,-0.488,-0.122,-0.427,75.619,-69.307,131.457,-29.053,-17.98,0.88,31.45,-0.05167,0.61646,0.27582,0.73563,238
59,0.974,0.135,0.259,0.0,-0.61,-0.244,27.466,-73.07,144.767,-25.1,-14.813,-8.987,29.46,0.10162,0.60873,0.00659,0.78674,233,0.595,0.255,0.751,-0.61,-0.488,-0.854,18.644,-36.766,-145.811,-17.453,-15.027,-4.66,29.46,0.32437,-0.25247,-0.23663,-0.88031,235,0.361,0.321,0.856,0.488,-1.709,-1.526,20.11,-21.297,151.694,-10.46,-16.647,-30.227,28.7,0.20361,0.21603,0.12167,0.94708,237,0.916,0.331,0.083,0.0,0.0,-0.305,75.63,-69.296,131.418,-29.053,-17.98,0.88,31.45,-0.05167,0.61646,0.27582,0.73563,239
60,0.966,0.134,0.258,0.0,-0.244,-0.061,27.499,-73.081,144.739,-25.1,-14.813,-8.987,29.46,0.10162,0.60873,0.00659,0.78674,242,0.592,0.255,0.75,-1.099,-0.061,-0.671,18.638,-36.766,-145.822,-17.453,-15.027,-4.66,29.46,0.32437,-0.25247,-0.23663,-0.88031,244,0.361,0.323,0.859,0.183,-0.183,-1.343,20.132,-21.308,151.628,-10.46,-16.647,-30.227,28.7,0.20361,0.21603,0.12167,0.94708,246,0.914,0.332,0.082,0.0,0.0,-0.061,75.635,-69.296,131.396,-29.053,-17.98,0.88,31.45,-0.05167,0.61646,0.27582,0.73563,240
61,0.967,0.131,0.258,0.183,0.0,0.122,27.51,-73.081,144.739,-25.1,-14.813,-8.987,29.46,0.10162,0.60873,0.00659,0.78674,243,0.594,0.255,0.752,-0.793,0.061,-0.549,18.627,-36.76,-145.822,-17.453,-15.027,-4.66,29.46,0.32437,-0.25247,-0.23663,-0.88031,245,0.359,0.324,0.867,0.305,0.854,-0.916,20.149,-21.302,151.584,-10.46,-16.647,-30.227,28.7,0.20361,0.21603,0.12167,0.94708,247,0.918,0.336,0.083,-0.061,0.061,0.0,75.641,-69.296,131.396,-29.053,-17.98,0.88,31.45,-0.05167,0.61646,0.27582,0.73563,241
62,0.975,0.136,0.262,-0.183,0.0,0.305,27.51,-73.087,144.767,-25.1,-14.813,-8.987,29.46,0.10162,0.60873,0.00659,0.78674,248,0.597,0.259,0.755,-0.305,-0.732,-0.61,18.627,-36.766,-145.822,-17.76,-14.793,-3.347,29.46,0.32437,-0.25247,-0.23663,-0.88031,250,0.365,0.323,0.875,0.732,0.916,-0.793,20.165,-21.281,151.562,-10.58,-16.153,-30.513,28.7,0.20361,0.21603,0.12167,0.94708,258,0.922,0.34,0.085,-0.122,0.061,0.305,75.641,-69.302,131.391,-29.053,-17.98,0.88,31.45,-0.05167,0.61646,0.27582,0.73563,252
63,0.98,0.142,0.265,-0.366,0.244,0.488,27.482,-73.087,144.805,-25.1,-14.813,-8.987,29.46,0.10162,0.60873,0.00659,0.78674,249,0.606,0.259,0.758,-0.122,-1.343,-0.854,18.644,-36.777,-145.833,-17.76,-14.793,-3.347,29.46,0.32437,-0.25247,-0.23663,-0.88031,251,0.372,0.315,0.876,0.61,0.793,-1.465,20.182,-21.259,151.518,-10.58,-16.153,-30.513,28.7,0.20361,0.21603,0.12167,0.94708,259,0.929,0.346,0.084,-0.366,-0.183,0.61,75.641,-69.307,131.391,-29.053,-17.98,0.88,31.45,-0.05167,0.61646,0.27582,0.73563,253
64,0.981,0.146,0.265,-0.244,0.366,0.427,27.444,-73.087,144.838,-25.1,-14.813,-8.987,29.46,0.10162,0.60873,0.00659,0.78674,254,0.612,0.255,0.763,-0.793,-1.404,-1.831,18.66,-36.799,-145.871,-17.76,-14.793,-3.347,29.46,0.32437,-0.25247,-0.23663,-0.88031,256,0.373,0.314,0.876,-0.122,0.244,-2.93,20.204,-21.237,151.425,-10.58,-16.153,-30.513,28.7,0.20767,0.21832,0.12231,0.94559,264,0.934,0.349,0.083,-1.16,-0.427,0.671,75.635,-69.324,131.369,-29.053,-17.98,0.88,31.45,-0.05167,0.61646,0.27582,0.73563,260
65,0.983,0.144,0.264,-0.061,0.061,0.244,27.416,-73.087,144.838,-25.1,-14.813,-8.987,29.46,0.10162,0.60873,0.00659,0.78674,255,0.611,0.254,0.761,-1.648,-0.977,-2.563,18.671,-36.804,-145.937,-17.76,-14.793,-3.347,29.46,0.32437,-0.25247,-0.23663,-0.88031,257,0.366,0.33,0.875,-0.244,-0.61,-3.967,20.226,-21.215,151.293,-10.58,-16.153,-30.513,28.7,0.20767,0.21832,0.12231,0.94559,265,0.935,0.34,0.083,-1.709,-0.244,0.366,75.624,-69.329,131.369,-29.053,-17.98,0.88,31.45,-0.05167,0.61646,0.27582,0.73563,261
66,0.979,0.141,0.266,0.183,0.0,-0.122,27.416,-73.087,144.8,-25.1,-14.813,-8.987,29.46,0.10162,0.60873,0.00659,0.78674,262,0.608,0.268,0.759,-2.747,-0.854,-2.38,18.666,-36.81,-146.003,-17.76,-14.793,-3.347,29.46,0.32327,-0.25272,-0.23843,-0.88016,270,0.368,0.33,0.875,0.0,-1.16,-4.822,20.253,-21.204,151.122,-10.58,-16.153,-30.513,28.7,0.20767,0.21832,0.12231,0.94559,272,0.934,0.336,0.084,-2.014,-0.244,0.0,75.608,-69.335,131.375,-29.053,-17.98,0.88,31.45,-0.05167,0.61646,0.27582,0.73563,266
67,0.974,0.14,0.266,0.244,0.366,-0.549,27.438,-73.081,144.761,-25.1,-14.813,-8.987,29.46,0.10162,0.60873,0.00659,0.78674,263,0.604,0.261,0.758,-4.333,-0.671,-2.38,18.633,-36.81,-146.063,-17.76,-14.793,-3.347,29.46,0.32327,-0.25272,-0.23843,-0.88016,271,0.368,0.318,0.869,-1.526,-1.648,-5.493,20.286,-21.193,150.941,-10.58,-16.153,-30.513,28.7,0.20767,0.21832,0.12231,0.94559,273,0.925,0.34,0.081,-1.953,0.183,0.061,75.575,-69.335,131.385,-29.053,-17.98,0.88,31.45,-0.05167,0.61646,0.27582,0.73563,267
68,0.97,0.139,0.265,0.183,0.549,-0.671,27.471,-73.07,144.706,-25.1,-14.813,-8.987,29.46,0.10162,0.60873,0.00659,0.78674,268,0.599,0.249,0.756,-5.859,-0.183,-2.869,18.578,-36.804,-146.129,-17.76,-14.793,-3.347,29.46,0.32327,-0.25272,-0.23843,-0.88016,276,0.366,0.318,0.867,-3.479,-2.075,-6.104,20.292,-21.193,150.765,-10.58,-16.153,-30.513,28.7,0.20767,0.21832,0.12231,0.94559,278,0.92,0.334,0.081,-2.197,0.854,0.061,75.515,-69.335,131.413,-29.2,-18.12,1.02,31.45,-0.05167,0.61646,0.27582,0.73563,274
69,0.972,0.133,0.264,0.0,0.732,-0.671,27.499,-73.054,144.662,-25.1,-14.813,-8.987,29.46,0.10162,0.60873,0.00659,0.78674,269,0.598,0.245,0.755,-6.104,0.061,-2.686,18.495,-36.788,-146.201,-17.76,-14.793,-3.347,29.46,0.32327,-0.25272,-0.23843,-0.88016,277,0.363,0.327,0.858,-3.967,-1.953,-6.104,20.27,-21.193,150.557,-10.58,-16.153,-30.513,28.7,0.20767,0.21832,0.12231,0.94559,279,0.921,0.323,0.083,-2.136,1.282,-0.061,75.421,-69.329,131.446,-29.2,-18.12,1.02,31.45,-0.05167,0.61646,0.27582,0.73563,275
70,0.975,0.126,0.266,-0.366,1.099,-0.854,27.521,-73.032,144.635,-25.1,-14.813,-8.987,29.46,0.10162,0.60873,0.00659,0.78674,284,0.596,0.25,0.751,-5.981,0.183,-1.709,18.408,-36.777,-146.261,-17.76,-14.793,-3.347,29.46,0.32327,-0.25272,-0.23843,-0.88016,280,0.359,0.327,0.861,-3.296,-1.16,-5.676,20.242,-21.187,150.337,-10.58,-16.153,-30.513,28.7,0.20767,0.21832,0.12231,0.94559,286,0.921,0.321,0.084,-1.648,1.648,0.0,75.311,-69.324,131.484,-29.2,-18.12,1.02,31.45,-0.05167,0.61646,0.27582,0.73563,282
71,0.975,0.127,0.265,-0.916,1.526,-0.854,27.521,-72.999,144.608,-25.1,-14.813,-8.987,29.46,0.10162,0.60873,0.00659,0.78674,285,0.595,0.252,0.756,-5.859,0.732,-1.099,18.309,-36.76,-146.294,-17.76,-14.793,-3.347,29.46,0.32327,-0.25272,-0.23843,-0.88016,281,0.355,0.321,0.869,-3.174,0.0,-5.432,20.22,-21.171,150.161,-10.58,-16.153,-30.513,28.7,0.20767,0.21832,0.12231,0.94559,287,0.921,0.33,0.087,-1.16,1.77,0.427,75.201,-69.324,131.523,-29.2,-18.12,1.02,31.45,-0.05167,0.61646,0.27582,0.73563,283
72,0.975,0.136,0.265,-0.854,2.075,-0.488,27.493,-72.966,144.597,-24.893,-15.227,-9.353,29.46,0.10162,0.60873,0.00659,0.78674,288,0.593,0.247,0.763,-6.165,1.16,-1.038,18.204,-36.738,-146.305,-17.76,-14.793,-3.347,29.46,0.32327,-0.25272,-0.23843,-0.88016,290,0.348,0.323,0.878,-3.113,-0.549,-5.676,20.198,-21.138,149.98,-10.58,-16.153,-30.513,28.7,0.20767,0.21832,0.12231,0.94559,294,0.923,0.335,0.089,-1.099,1.831,0.61,75.086,-69.329,131.545,-29.2,-18.12,1.02,31.45,-0.0491,0.61688,0.27292,0.73651,292
73,0.975,0.14,0.265,-0.793,2.014,-0.183,27.433,-72.927,144.597,-24.893,-15.227,-9.353,29.46,0.10162,0.60873,0.00659,0.78674,289,0.583,0.245,0.77,-5.432,1.038,-0.732,18.1,-36.716,-146.305,-17.76,-14.793,-3.347,29.46,0.32327,-0.25272,-0.23843,-0.88016,291,0.342,0.333,0.881,-2.38,-2.441,-4.822,20.187,-21.127,149.81,-10.58,-16.153,-30.513,28.7,0.20767,0.21832,0.12231,0.94559,295,0.92,0.333,0.093,-0.916,1.77,0.427,74.976,-69.335,131.583,-29.2,-18.12,1.02,31.45,-0.0491,0.61688,0.27292,0.73651,293
74,0.972,0.141,0.265,-1.16,1.221,-0.122,27.367,-72.894,144.591,-24.893,-15.227,-9.353,29.46,0.10162,0.60873,0.00659,0.78674,302,0.583,0.246,0.777,-4.456,0.977,0.244,18.001,-36.694,-146.294,-17.76,-14.793,-3.347,29.46,0.32327,-0.25272,-0.23843,-0.88016,296,0.354,0.337,0.884,-1.038,-2.747,-2.319,20.187,-21.143,149.656,-10.58,-16.153,-30.513,28.7,0.20767,0.21832,0.12231,0.94559,298,0.918,0.326,0.098,-0.244,1.587,0.244,74.883,-69.335,131.649,-29.2,-18.12,1.02,31.45,-0.0491,0.61688,0.27292,0.73651,300
75,0.971,0.139,0.263,-1.099,0.854,-0.122,27.318,-72.872,144.591,-24.893,-15.227,-9.353,29.46,0.10162,0.60873,0.00659,0.78674,303,0.592,0.251,0.773,-3.479,0.366,1.343,17.913,-36.683,-146.25,-17.76,-14.793,-3.347,29.46,0.32327,-0.25272,-0.23843,-0.88016,297,0.358,0.327,0.876,-0.183,-2.502,-1.038,20.193,-21.176,149.551,-10.58,-16.153,-30.513,28.7,0.20767,0.21832,0.12231,0.94559,299,0.921,0.33,0.095,0.488,1.038,0.244,74.828,-69.335,131.721,-29.2,-18.12,1.02,31.45,-0.0491,0.61688,0.27292,0.73651,301
76,0.972,0.144,0.265,-0.183,1.16,0.0,27.279,-72.856,144.613,-24.893,-15.227,-9.353,29.46,0.10413,0.60754,0.00543,0.78735,304,0.594,0.247,0.769,-2.625,0.0,1.587,17.831,-36.689,-146.19,-17.76,-14.793,-3.347,29.46,0.32327,-0.25272,-0.23843,-0.88016,306,0.356,0.318,0.873,-0.61,-1.526,-1.343,20.209,-21.209,149.458,-10.58,-16.153,-30.513,28.7,0.20767,0.21832,0.12231,0.94559,308,0.922,0.342,0.092,0.732,0.732,0.427,74.795,-69.34,131.781,-29.2,-18.12,1.02,31.45,-0.0491,0.61688,0.27292,0.73651,310
77,0.973,0.148,0.269,0.671,1.038,0.122,27.246,-72.839,144.657,-24.893,-15.227,-9.353,29.46,0.10413,0.60754,0.00543,0.78735,305,0.589,0.244,0.769,-2.869,0.122,1.099,17.759,-36.689,-146.14,-17.76,-14.793,-3.347,29.46,0.32327,-0.25272,-0.23843,-0.88016,307,0.354,0.328,0.868,-1.465,-2.686,-2.136,20.209,-21.231,149.37,-10.58,-16.153,-30.513,28.7,0.20767,0.21832,0.12231,0.94559,309,0.92,0.342,0.094,0.61,0.488,0.244,74.773,-69.346,131.797,-29.2,-18.12,1.02,31.45,-0.0491,0.61688,0.27292,0.73651,311
78,0.971,0.144,0.275,0.305,0.793,0.244,27.23,-72.823,144.695,-24.893,-15.227,-9.353,29.46,0.10413,0.60754,0.00543,0.78735,318,0.585,0.249,0.767,-3.479,0.671,1.16,17.682,-36.683,-146.096,-17.76,-14.793,-3.347,29.46,0.32327,-0.25272,-0.23843,-0.88016,314,0.352,0.33,0.865,-0.854,-3.052,-2.563,20.209,-21.264,149.266,-10.58,-16.153,-30.513,28.7,0.20767,0.21832,0.12231,0.94559,316,0.917,0.339,0.098,0.427,0.427,0.122,74.756,-69.346,131.836,-29.2,-18.12,1.02,31.45,-0.0491,0.61688,0.27292,0.73651,312
79,0.965,0.144,0.273,-0.549,0.977,0.183,27.202,-72.812,144.717,-24.893,-15.227,-9.353,29.46,0.10413,0.60754,0.00543,0.78735,319,0.585,0.248,0.765,-2.625,1.099,1.282,17.606,-36.672,-146.052,-17.76,-14.793,-3.347,29.46,0.32327,-0.25272,-0.23843,-0.88016,315,0.357,0.33,0.869,-0.183,-1.953,-1.648,20.226,-21.292,149.183,-10.58,-16.153,-30.513,28.7,0.20767,0.21832,0.12231,0.94559,317,0.915,0.345,0.096,0.61,0.366,0.366,74.74,-69.346,131.896,-29.2,-18.12,1.02,31.45,-0.0491,0.61688,0.27292,0.73651,313
80,0.964,0.145,0.271,-0.305,0.916,0.305,27.158,-72.795,144.734,-24.893,-15.227,-9.353,29.46,0.10413,0.60754,0.00543,0.78735,324,0.589,0.247,0.767,-1.465,1.038,1.221,17.545,-36.656,-146.003,-17.473,-15.0,-4.187,29.46,0.32327,-0.25272,-0.23843,-0.88016,320,0.354,0.332,0.867,0.977,-1.831,-0.793,20.248,-21.313,149.139,-10.167,-16.22,-30.513,28.7,0.20767,0.21832,0.12231,0.94559,330,0.918,0.344,0.097,0.671,0.305,0.549,74.729,-69.351,131.968,-29.2,-18.12,1.02,31.45,-0.0491,0.61688,0.27292,0.73651,322
81,0.967,0.14,0.271,0.305,0.671,0.671,27.114,-72.779,144.772,-24.893,-15.227,-9.353,29.46,0.10413,0.60754,0.00543,0.78735,325,0.586,0.246,0.768,-1.16,1.038,1.404,17.501,-36.639,-145.953,-17.473,-15.0,-4.187,29.46,0.32327,-0.25272,-0.23843,-0.88016,321,0.352,0.331,0.869,1.099,-2.014,-0.61,20.281,-21.341,149.112,-10.167,-16.22,-30.513,28.7,0.20767,0.21832,0.12231,0.94559,331,0.92,0.337,0.099,0.732,0.305,0.732,74.713,-69.362,132.061,-29.2,-18.12,1.02,31.45,-0.0491,0.61688,0.27292,0.73651,323
82,0.97,0.133,0.271,0.061,0.305,0.977,27.07,-72.773,144.838,-24.893,-15.227,-9.353,29.46,0.10413,0.60754,0.00543,0.78735,326,0.587,0.238,0.77,-0.854,1.16,2.258,17.452,-36.623,-145.887,-17.473,-15.0,-4.187,29.46,0.32327,-0.25272,-0.23843,-0.88016,328,0.355,0.325,0.874,1.16,-1.16,-0.183,20.319,-21.363,149.062,-10.167,-16.22,-30.513,28.7,0.2265,0.22214,0.11841,0.94086,336,0.917,0.325,0.099,1.343,0.244,0.793,74.707,-69.373,132.122,-29.2,-18.12,1.02,31.45,-0.0491,0.61688,0.27292,0.73651,332
83,0.97,0.133,0.27,-0.061,0.61,1.282,27.004,-72.773,144.91,-24.893,-15.227,-9.353,29.46,0.10413,0.60754,0.00543,0.78735,327,0.592,0.24,0.771,-0.977,0.854,2.686,17.402,-36.612,-145.8,-17.473,-15.0,-4.187,29.46,0.32327,-0.25272,-0.23843,-0.88016,329,0.365,0.333,0.876,1.587,-1.404,0.549,20.352,-21.379,149.052,-10.167,-16.22,-30.513,28.7,0.2265,0.22214,0.11841,0.94086,337,0.922,0.329,0.096,1.77,0.061,0.916,74.718,-69.384,132.177,-29.2,-18.12,1.02,31.45,-0.0491,0.61688,0.27292,0.73651,333
84,0.969,0.138,0.272,0.488,1.099,1.587,26.911,-72.773,145.009,-24.893,-15.227,-9.353,29.46,0.10413,0.60754,0.00543,0.78735,334,0.601,0.245,0.772,-1.038,-0.061,2.686,17.342,-36.617,-145.717,-17.473,-15.0,-4.187,29.46,0.32117,-0.25455,-0.22861,-0.883,342,0.374,0.327,0.871,1.526,-1.282,1.343,20.385,-21.407,149.117,-10.167,-16.22,-30.513,28.7,0.2265,0.22214,0.11841,0.94086,344,0.927,0.341,0.097,1.77,0.0,1.038,74.729,-69.401,132.253,-28.967,-17.66,0.733,31.45,-0.0491,0.61688,0.27292,0.73651,338
85,0.975,0.141,0.271,0.488,0.671,1.709,26.807,-72.768,145.135,-24.893,-15.227,-9.353,29.46,0.10413,0.60754,0.00543,0.78735,335,0.602,0.242,0.768,-0.854,-0.854,1.953,17.298,-36.634,-145.651,-17.473,-15.0,-4.187,29.46,0.32117,-0.25455,-0.22861,-0.883,343,0.371,0.318,0.872,0.61,0.0,1.343,20.407,-21.429,149.2,-10.167,-16.22,-30.513,28.7,0.2265,0.22214,0.11841,0.94086,345,0.928,0.35,0.089,1.16,0.0,1.343,74.729,-69.423,132.336,-28.967,-17.66,0.733,31.45,-0.0491,0.61688,0.27292,0.73651,339
86,0.979,0.144,0.268,0.122,0.122,1.404,26.719,-72.773,145.228,-24.893,-15.227,-9.353,29.46,0.10413,0.60754,0.00543,0.78735,340,0.601,0.23,0.771,-0.183,-0.732,1.16,17.276,-36.65,-145.618,-17.473,-15.0,-4.187,29.46,0.32117,-0.25455,-0.22861,-0.883,346,0.369,0.319,0.876,0.305,0.854,1.282,20.407,-21.429,149.266,-10.167,-16.22,-30.513,28.7,0.2265,0.22214,0.11841,0.94086,348,0.93,0.342,0.086,0.244,0.0,1.465,74.713,-69.45,132.369,-28.967,-17.66,0.733,31.45,-0.05243,0.61557,0.27344,0.73718,350
87,0.98,0.139,0.268,0.183,-0.305,0.977,26.664,-72.784,145.267,-24.893,-15.227,-9.353,29.46,0.10413,0.60754,0.00543,0.78735,341,0.602,0.228,0.772,0.244,-0.488,0.977,17.265,-36.667,-145.596,-17.473,-15.0,-4.187,29.46,0.32117,-0.25455,-0.22861,-0.883,347,0.37,0.322,0.874,-0.122,0.427,1.648,20.402,-21.423,149.343,-10.167,-16.22,-30.513,28.7,0.2265,0.22214,0.11841,0.94086,349,0.928,0.33,0.087,-0.305,-0.122,1.16,74.696,-69.467,132.38,-28.967,-17.66,0.733,31.45,-0.05243,0.61557,0.27344,0.73718,351
88,0.979,0.136,0.269,-0.061,-0.244,0.671,26.636,-72.795,145.3,-24.893,-15.227,-9.353,29.46,0.10413,0.60754,0.00543,0.78735,352,0.604,0.234,0.768,0.305,-0.427,0.977,17.26,-36.678,-145.574,-17.473,-15.0,-4.187,29.46,0.32117,-0.25455,-0.22861,-0.883,354,0.375,0.327,0.866,0.122,-0.854,1.465,20.385,-21.429,149.398,-10.167,-16.22,-30.513,28.7,0.2265,0.22214,0.11841,0.94086,358,0.928,0.33,0.087,-0.244,-0.183,0.793,74.691,-69.483,132.38,-28.967,-17.66,0.733,31.45,-0.05243,0.61557,0.27344,0.73718,356
89,0.976,0.137,0.269,-0.366,-0.244,0.549,26.609,-72.806,145.344,-24.893,-15.227,-9.353,29.46,0.10413,0.60754,0.00543,0.78735,353,0.605,0.241,0.762,-0.305,-0.427,1.038,17.243,-36.689,-145.552,-17.473,-15.0,-4.187,29.46,0.32117,-0.25455,-0.22861,-0.883,355,0.375,0.321,0.861,0.183,-0.916,0.977,20.385,-21.456,149.436,-10.167,-16.22,-30.513,28.7,0.2265,0.22214,0.11841,0.94086,359,0.929,0.331,0.087,0.0,-0.183,0.61,74.696,-69.494,132.336,-28.967,-17.66,0.733,31.45,-0.05243,0.61557,0.27344,0.73718,357
90,0.972,0.135,0.268,-0.122,-0.061,0.427,26.592,-72.812,145.36,-24.893,-15.227,-9.353,29.46,0.10413,0.60754,0.00543,0.78735,362,0.604,0.231,0.76,-1.099,0.061,0.916,17.21,-36.694,-145.53,-17.473,-15.0,-4.187,29.46,0.32117,-0.25455,-0.22861,-0.883,364,0.371,0.314,0.859,-0.427,0.305,0.549,20.38,-21.473,149.485,-10.167,-16.22,-30.513,28.7,0.2265,0.22214,0.11841,0.94086,366,0.928,0.329,0.086,0.122,0.061,0.671,74.691,-69.505,132.308,-28.967,-17.66,0.733,31.45,-0.05243,0.61557,0.27344,0.73718,360
91,0.97,0.13,0.267,0.0,-0.061,0.366,26.576,-72.812,145.371,-24.893,-15.227,-9.353,29.46,0.10413,0.60754,0.00543,0.78735,363,0.599,0.226,0.758,-1.709,0.732,0.916,17.166,-36.694,-145.497,-17.473,-15.0,-4.187,29.46,0.32117,-0.25455,-0.22861,-0.883,365,0.37,0.314,0.86,-0.244,0.916,-0.122,20.369,-21.467,149.535,-10.167,-16.22,-30.513,28.7,0.2265,0.22214,0.11841,0.94086,367,0.921,0.323,0.086,-0.061,0.366,0.549,74.663,-69.516,132.314,-28.967,-17.66,0.733,31.45,-0.05243,0.61557,0.27344,0.73718,361
92,0.97,0.127,0.267,-0.061,0.0,0.366,26.559,-72.817,145.404,-25.047,-15.06,-8.333,29.46,0.10413,0.60754,0.00543,0.78735,368,0.6,0.226,0.76,-2.075,1.282,0.854,17.106,-36.678,-145.464,-17.473,-15.0,-4.187,29.46,0.32117,-0.25455,-0.22861,-0.883,370,0.373,0.316,0.863,-0.366,0.977,-0.549,20.363,-21.456,149.546,-10.167,-16.22,-30.513,28.7,0.2265,0.22214,0.11841,0.94086,372,0.924,0.324,0.086,-0.122,0.61,0.427,74.63,-69.521,132.325,-28.967,-17.66,0.733,31.45,-0.05243,0.61557,0.27344,0.73718,374
93,0.975,0.131,0.267,-0.366,0.122,0.244,26.537,-72.823,145.432,-25.047,-15.06,-8.333,29.46,0.10413,0.60754,0.00543,0.78735,369,0.602,0.229,0.763,-1.831,1.526,0.549,17.051,-36.656,-145.426,-17.473,-15.0,-4.187,29.46,0.32117,-0.25455,-0.22861,-0.883,371,0.369,0.32,0.867,-0.549,0.977,-0.244,20.352,-21.434,149.518,-10.167,-16.22,-30.513,28.7,0.2265,0.22214,0.11841,0.94086,373,0.927,0.33,0.087,-0.244,0.732,0.305,74.586,-69.527,132.347,-28.967,-17.66,0.733,31.45,-0.05243,0.61557,0.27344,0.73718,375
94,0.981,0.136,0.269,-0.488,0.122,0.183,26.516,-72.823,145.448,-25.047,-15.06,-8.333,29.46,0.10413,0.60754,0.00543,0.78735,376,0.597,0.225,0.766,-1.038,1.77,0.488,17.012,-36.628,-145.399,-17.473,-15.0,-4.187,29.46,0.32117,-0.25455,-0.22861,-0.883,378,0.365,0.318,0.873,-0.366,1.892,0.549,20.341,-21.418,149.464,-10.167,-16.22,-30.513,28.7,0.2265,0.22214,0.11841,0.94086,380,0.928,0.33,0.087,-0.183,0.793,0.305,74.542,-69.532,132.363,-28.967,-17.66,0.733,31.45,-0.05243,0.61557,0.27344,0.73718,382
95,0.979,0.136,0.271,-0.488,0.0,0.244,26.494,-72.823,145.443,-25.047,-15.06,-8.333,29.46,0.10413,0.60754,0.00543,0.78735,377,0.598,0.22,0.771,0.366,1.648,0.793,16.99,-36.606,-145.36,-17.473,-15.0,-4.187,29.46,0.32117,-0.25455,-0.22861,-0.883,379,0.362,0.321,0.877,-0.671,2.686,1.526,20.319,-21.39,149.425,-10.167,-16.22,-30.513,28.7,0.2265,0.22214,0.11841,0.94086,381,0.929,0.321,0.088,0.183,0.854,0.305,74.504,-69.538,132.374,-28.967,-17.66,0.733,31.45,-0.05243,0.61557,0.27344,0.73718,383
96,0.975,0.132,0.271,-0.366,0.122,0.244,26.472,-72.823,145.459,-25.047,-15.06,-8.333,29.46,0.10275,0.60648,0.00446,0.78836,384,0.597,0.226,0.773,0.854,1.465,1.282,16.979,-36.584,-145.311,-17.473,-15.0,-4.187,29.46,0.32117,-0.25455,-0.22861,-0.883,386,0.358,0.325,0.877,-0.671,2.136,1.892,20.286,-21.357,149.398,-10.167,-16.22,-30.513,28.7,0.2265,0.22214,0.11841,0.94086,390,0.93,0.319,0.091,0.732,0.793,0.122,74.476,-69.538,132.385,-28.967,-17.66,0.733,31.45,-0.05243,0.61557,0.27344,0.73718,388
97,0.972,0.131,0.27,-0.244,0.305,0.122,26.45,-72.823,145.486,-25.047,-15.06,-8.333,29.46,0.10275,0.60648,0.00446,0.78836,385,0.594,0.233,0.774,0.671,1.282,1.648,16.963,-36.573,-145.25,-17.473,-15.0,-4.187,29.46,0.32117,-0.25455,-0.22861,-0.883,387,0.361,0.321,0.876,-0.549,1.16,2.014,20.253,-21.341,149.359,-10.167,-16.22,-30.513,28.7,0.2265,0.22214,0.11841,0.94086,391,0.927,0.327,0.094,1.038,0.793,0.0,74.46,-69.538,132.407,-28.967,-17.66,0.733,31.45,-0.05243,0.61557,0.27344,0.73718,389
98,0.969,0.133,0.269,0.0,0.061,0.0,26.439,-72.817,145.497,-25.047,-15.06,-8.333,29.46,0.10275,0.60648,0.00446,0.78836,392,0.592,0.231,0.773,0.183,1.099,1.526,16.935,-36.562,-145.201,-17.587,-14.6,-4.44,29.46,0.32117,-0.25455,-0.22861,-0.883,394,0.359,0.313,0.871,-0.549,0.366,1.404,20.226,-21.341,149.343,-10.233,-16.5,-31.573,28.7,0.2265,0.22214,0.11841,0.94086,402,0.924,0.33,0.094,0.916,0.671,0.0,74.443,-69.538,132.413,-28.867,-17.847,0.38,31.45,-0.05243,0.61557,0.27344,0.73718,396
99,0.97,0.134,0.27,0.061,-0.427,0.0,26.444,-72.823,145.503,-25.047,-15.06,-8.333,29.46,0.10275,0.60648,0.00446,0.78836,393,0.589,0.227,0.77,-0.061,1.099,1.16,16.913,-36.552,-145.157,-17.587,-14.6,-4.44,29.46,0.32117,-0.25455,-0.22861,-0.883,395,0.355,0.314,0.87,-0.366,0.488,0.488,20.209,-21.341,149.31,-10.233,-16.5,-31.573,28.7,0.2265,0.22214,0.11841,0.94086,403,0.921,0.333,0.094,0.488,0.488,0.061,74.432,-69.543,132.396,-28.867,-17.847,0.38,31.45,-0.05243,0.61557,0.27344,0.73718,397
100,0.971,0.136,0.273,-0.183,-0.549,0.0,26.455,-72.834,145.481,-25.047,-15.06,-8.333,29.46,0.10275,0.60648,0.00446,0.78836,398,0.588,0.228,0.769,0.0,0.916,0.671,16.891,-36.535,-145.124,-17.587,-14.6,-4.44,29.46,0.32117,-0.25455,-0.22861,-0.883,400,0.354,0.321,0.869,0.122,0.671,-0.061,20.204,-21.335,149.293,-10.233,-16.5,-31.573,28.7,0.22479,0.22137,0.11795,0.94153,406,0.92,0.333,0.094,0.061,0.549,0.183,74.399,-69.543,132.385,-28.867,-17.847,0.38,31.45,-0.05243,0.61557,0.27344,0.73718,404
101,0.971,0.137,0.274,-0.549,-0.122,-0.061,26.461,-72.834,145.47,-25.047,-15.06,-8.333,29.46,0.10275,0.60648,0.00446,0.78836,399,0.587,0.233,0.77,-0.122,0.732,0.488,16.875,-36.524,-145.091,-17.587,-14.6,-4.44,29.46,0.32117,-0.25455,-0.22861,-0.883,401,0.356,0.321,0.872,0.549,0.61,0.061,20.204,-21.324,149.315,-10.233,-16.5,-31.573,28.7,0.22479,0.22137,0.11795,0.94153,407,0.919,0.332,0.097,-0.061,0.61,0.122,74.366,-69.543,132.369,-28.867,-17.847,0.38,31.45,-0.05243,0.61557,0.27344,0.73718,405
102,0.97,0.138,0.271,-0.488,0.305,-0.061,26.45,-72.834,145.486,-25.047,-15.06,-8.333,29.46,0.10275,0.60648,0.00446,0.78836,408,0.589,0.229,0.772,-0.122,0.61,0.366,16.864,-36.513,-145.069,-17.587,-14.6,-4.44,29.46,0.32547,-0.25397,-0.22595,-0.88226,416,0.357,0.317,0.874,0.305,0.549,0.427,20.209,-21.313,149.337,-10.233,-16.5,-31.573,28.7,0.22479,0.22137,0.11795,0.94153,414,0.921,0.333,0.096,0.0,0.488,0.0,74.339,-69.543,132.358,-28.867,-17.847,0.38,31.45,-0.05121,0.61609,0.27081,0.73779,410
103,0.97,0.138,0.27,0.0,0.366,0.061,26.439,-72.823,145.497,-25.047,-15.06,-8.333,29.46,0.10275,0.60648,0.00446,0.78836,409,0.59,0.225,0.773,0.061,0.549,0.183,16.853,-36.502,-145.052,-17.587,-14.6,-4.44,29.46,0.32547,-0.25397,-0.22595,-0.88226,417,0.358,0.317,0.875,0.366,0.183,0.671,20.209,-21.308,149.354,-10.233,-16.5,-31.573,28.7,0.22479,0.22137,0.11795,0.94153,415,0.922,0.332,0.095,0.122,0.244,-0.183,74.328,-69.538,132.325,-28.867,-17.847,0.38,31.45,-0.05121,0.61609,0.27081,0.73779,411
104,0.972,0.135,0.27,0.0,0.0,0.183,26.428,-72.823,145.525,-25.047,-15.06,-8.333,29.46,0.10275,0.60648,0.00446,0.78836,412,0.592,0.226,0.774,0.427,0.488,0.122,16.853,-36.491,-145.036,-17.587,-14.6,-4.44,29.46,0.32547,-0.25397,-0.22595,-0.88226,422,0.36,0.32,0.876,0.61,0.122,0.61,20.215,-21.308,149.376,-10.233,-16.5,-31.573,28.7,0.22479,0.22137,0.11795,0.94153,418,0.925,0.328,0.096,0.122,0.122,-0.305,74.328,-69.532,132.308,-28.867,-17.847,0.38,31.45,-0.05121,0.61609,0.27081,0.73779,420
105,0.975,0.135,0.27,-0.183,-0.366,0.0,26.433,-72.823,145.53,-25.047,-15.06,-8.333,29.46,0.10275,0.60648,0.00446,0.78836,413,0.592,0.229,0.775,0.305,0.244,0.183,16.853,-36.486,-145.025,-17.587,-14.6,-4.44,29.46,0.32547,-0.25397,-0.22595,-0.88226,423,0.359,0.322,0.872,0.793,-0.122,0.671,20.22,-21.308,149.409,-10.233,-16.5,-31.573,28.7,0.22479,0.22137,0.11795,0.94153,419,0.923,0.329,0.095,0.122,0.0,-0.366,74.333,-69.527,132.286,-28.867,-17.847,0.38,31.45,-0.05121,0.61609,0.27081,0.73779,421
106,0.971,0.134,0.27,-0.244,-0.427,0.0,26.439,-72.828,145.519,-25.047,-15.06,-8.333,29.46,0.10275,0.60648,0.00446,0.78836,424,0.589,0.231,0.771,0.427,0.061,0.061,16.853,-36.48,-145.009,-17.587,-14.6,-4.44,29.46,0.32547,-0.25397,-0.22595,-0.88226,428,0.359,0.32,0.873,0.793,-0.122,0.549,20.231,-21.313,149.414,-10.233,-16.5,-31.573,28.7,0.22479,0.22137,0.11795,0.94153,430,0.92,0.329,0.093,0.244,-0.122,-0.366,74.344,-69.521,132.303,-28.867,-17.847,0.38,31.45,-0.05121,0.61609,0.27081,0.73779,426
107,0.97,0.135,0.27,-0.061,-0.427,0.0,26.455,-72.834,145.508,-25.047,-15.06,-8.333,29.46,0.10275,0.60648,0.00446,0.78836,425,0.59,0.227,0.772,0.61,0.0,0.122,16.859,-36.48,-144.992,-17.587,-14.6,-4.44,29.46,0.32547,-0.25397,-0.22595,-0.88226,429,0.361,0.321,0.869,0.671,-0.549,0.549,20.242,-21.324,149.442,-10.233,-16.5,-31.573,28.7,0.22479,0.22137,0.11795,0.94153,431,0.923,0.327,0.092,0.427,-0.122,-0.488,74.355,-69.516,132.341,-28.867,-17.847,0.38,31.45,-0.05121,0.61609,0.27081,0.73779,427
108,0.97,0.133,0.27,0.061,-0.427,0.0,26.466,-72.839,145.486,-25.047,-15.06,-8.333,29.46,0.10275,0.60648,0.00446,0.78836,432,0.592,0.228,0.77,0.793,0.0,0.244,16.864,-36.48,-144.97,-17.587,-14.6,-4.44,29.46,0.32547,-0.25397,-0.22595,-0.88226,434,0.362,0.324,0.87,0.61,-0.549,1.221,20.248,-21.335,149.485,-10.233,-16.5,-31.573,28.7,0.22479,0.22137,0.11795,0.94153,438,0.926,0.327,0.093,0.793,-0.061,-0.61,74.377,-69.505,132.369,-28.867,-17.847,0.38,31.45,-0.05121,0.61609,0.27081,0.73779,436
109,0.973,0.132,0.271,0.122,-0.305,0.122,26.477,-72.845,145.492,-25.047,-15.06,-8.333,29.46,0.10275,0.60648,0.00446,0.78836,433,0.595,0.23,0.771,1.282,0.0,0.488,16.88,-36.48,-144.937,-17.587,-14.6,-4.44,29.46,0.32547,-0.25397,-0.22595,-0.88226,435,0.365,0.325,0.87,0.61,-0.061,1.587,20.248,-21.352,149.507,-10.233,-16.5,-31.573,28.7,0.22479,0.22137,0.11795,0.94153,439,0.926,0.33,0.094,1.038,-0.122,-0.427,74.405,-69.5,132.369,-28.867,-17.847,0.38,31.45,-0.05121,0.61609,0.27081,0.73779,437
110,0.975,0.132,0.27,0.122,-0.305,0.305,26.477,-72.856,145.497,-24.82,-15.067,-8.667,29.46,0.10275,0.60648,0.00446,0.78836,444,0.597,0.235,0.77,1.038,-0.244,0.61,16.891,-36.486,-144.915,-17.587,-14.6,-4.44,29.46,0.32547,-0.25397,-0.22595,-0.88226,440,0.368,0.325,0.87,0.305,-0.305,1.221,20.248,-21.363,149.535,-10.233,-16.5,-31.573,28.7,0.22479,0.22137,0.11795,0.94153,446,0.926,0.333,0.09,0.854,-0.183,-0.183,74.432,-69.494,132.358,-28.867,-17.847,0.38,31.45,-0.05121,0.61609,0.27081,0.73779,442
111,0.975,0.133,0.268,0.122,-0.366,0.366,26.466,-72.861,145.525,-24.82,-15.067,-8.667,29.46,0.10275,0.60648,0.00446,0.78836,445,0.599,0.234,0.768,0.61,-0.183,0.488,16.891,-36.491,-144.904,-17.587,-14.6,-4.44,29.46,0.32547,-0.25397,-0.22595,-0.88226,441,0.367,0.322,0.87,-0.427,-0.244,0.732,20.242,-21.374,149.595,-10.233,-16.5,-31.573,28.7,0.22479,0.22137,0.11795,0.94153,447,0.926,0.333,0.088,0.549,-0.183,-0.061,74.454,-69.494,132.341,-28.867,-17.847,0.38,31.45,-0.05121,0.61609,0.27081,0.73779,443
112,0.975,0.136,0.268,0.183,-0.427,0.305,26.461,-72.872,145.541,-24.82,-15.067,-8.667,29.46,0.10208,0.60675,0.00464,0.78824,448,0.597,0.232,0.767,0.305,-0.122,0.427,16.891,-36.497,-144.904,-17.587,-14.6,-4.44,29.46,0.32547,-0.25397,-0.22595,-0.88226,450,0.366,0.323,0.868,-0.244,-0.366,0.61,20.231,-21.385,149.639,-10.233,-16.5,-31.573,28.7,0.22479,0.22137,0.11795,0.94153,454,0.926,0.335,0.089,0.244,-0.122,-0.061,74.476,-69.494,132.341,-28.867,-17.847,0.38,31.45,-0.05121,0.61609,0.27081,0.73779,452
113,0.977,0.138,0.268,0.244,-0.427,0.183,26.466,-72.878,145.547,-24.82,-15.067,-8.667,29.46,0.10208,0.60675,0.00464,0.78824,449,0.597,0.236,0.769,0.366,-0.061,0.305,16.891,-36.497,-144.904,-17.587,-14.6,-4.44,29.46,0.32547,-0.25397,-0.22595,-0.88226,451,0.365,0.325,0.866,-0.122,-0.427,0.0,20.231,-21.39,149.645,-10.233,-16.5,-31.573,28.7,0.22479,0.22137,0.11795,0.94153,455,0.924,0.336,0.09,0.305,-0.122,-0.061,74.487,-69.494,132.336,-28.867,-17.847,0.38,31.45,-0.05121,0.61609,0.27081,0.73779,453
114,0.975,0.139,0.268,-0.061,-0.488,0.061,26.472,-72.889,145.541,-24.82,-15.067,-8.667,29.46,0.10208,0.60675,0.00464,0.78824,456,0.595,0.239,0.768,-0.122,0.0,0.122,16.891,-36.497,-144.921,-17.587,-14.6,-4.44,29.46,0.32547,-0.25397,-0.22595,-0.88226,458,0.364,0.324,0.866,0.0,-0.427,-0.427,20.231,-21.401,149.634,-10.987,-16.487,-31.64,28.7,0.22479,0.22137,0.11795,0.94153,460,0.921,0.332,0.089,0.183,0.0,0.0,74.498,-69.494,132.358,-28.88,-17.82,0.827,31.45,-0.05121,0.61609,0.27081,0.73779,462
115,0.971,0.139,0.267,-0.183,-0.366,0.061,26.483,-72.894,145.519,-24.82,-15.067,-8.667,29.46,0.10208,0.60675,0.00464,0.78824,457,0.593,0.233,0.766,-0.488,-0.061,0.122,16.88,-36.502,-144.926,-17.587,-14.6,-4.44,29.46,0.32547,-0.25397,-0.22595,-0.88226,459,0.365,0.322,0.868,-0.488,-0.183,-0.183,20.231,-21.401,149.639,-10.987,-16.487,-31.64,28.7,0.22479,0.22137,0.11795,0.94153,461,0.923,0.328,0.088,0.122,0.0,0.0,74.504,-69.5,132.402,-28.88,-17.82,0.827,31.45,-0.05121,0.61609,0.27081,0.73779,463
116,0.969,0.134,0.267,0.122,-0.183,0.061,26.494,-72.9,145.497,-24.82,-15.067,-8.667,29.46,0.10208,0.60675,0.00464,0.78824,464,0.594,0.229,0.767,-0.488,-0.122,0.244,16.87,-36.502,-144.921,-17.353,-14.66,-4.58,29.46,0.32547,-0.25397,-0.22595,-0.88226,466,0.366,0.321,0.869,-0.61,0.183,0.305,20.226,-21.407,149.689,-10.987,-16.487,-31.64,28.7,0.22479,0.22137,0.11795,0.94153,470,0.925,0.331,0.09,0.183,0.061,0.0,74.509,-69.5,132.457,-28.88,-17.82,0.827,31.45,-0.05228,0.61563,0.2724,0.73755,468
117,0.973,0.132,0.267,0.244,-0.183,0.122,26.499,-72.9,145.497,-24.82,-15.067,-8.667,29.46,0.10208,0.60675,0.00464,0.78824,465,0.596,0.229,0.769,-0.305,-0.183,0.244,16.859,-36.508,-144.921,-17.353,-14.66,-4.58,29.46,0.32547,-0.25397,-0.22595,-0.88226,467,0.367,0.319,0.87,-0.305,0.305,0.427,20.215,-21.401,149.744,-10.987,-16.487,-31.64,28.7,0.22479,0.22137,0.11795,0.94153,471,0.927,0.333,0.092,0.122,0.0,0.0,74.515,-69.5,132.512,-28.88,-17.82,0.827,31.45,-0.05228,0.61563,0.2724,0.73755,469
118,0.978,0.132,0.266,0.061,-0.366,0.061,26.51,-72.911,145.486,-24.82,-15.067,-8.667,29.46,0.10208,0.60675,0.00464,0.78824,472,0.597,0.229,0.77,-0.061,-0.122,0.183,16.853,-36.513,-144.91,-17.353,-14.66,-4.58,29.46,0.32547,-0.25397,-0.22595,-0.88226,474,0.366,0.319,0.87,0.061,0.732,0.183,20.209,-21.396,149.755,-10.987,-16.487,-31.64,28.7,0.22101,0.2215,0.11874,0.94229,480,0.927,0.332,0.091,0.0,-0.061,0.0,74.515,-69.5,132.539,-28.88,-17.82,0.827,31.45,-0.05228,0.61563,0.2724,0.73755,476
119,0.977,0.134,0.267,-0.061,-0.488,0.0,26.526,-72.916,145.459,-24.82,-15.067,-8.667,29.46,0.10208,0.60675,0.00464,0.78824,473,0.596,0.229,0.771,0.061,0.061,0.122,16.848,-36.513,-144.899,-17.353,-14.66,-4.58,29.46,0.32547,-0.25397,-0.22595,-0.88226,475,0.363,0.32,0.874,0.122,1.099,0.122,20.209,-21.379,149.782,-10.987,-16.487,-31.64,28.7,0.22101,0.2215,0.11874,0.94229,481,0.924,0.331,0.09,-0.183,-0.061,0.061,74.52,-69.5,132.539,-28.88,-17.82,0.827,31.45,-0.05228,0.61563,0.2724,0.73755,477
120,0.973,0.133,0.268,-0.183,-0.427,0.0,26.537,-72.922,145.415,-24.82,-15.067,-8.667,29.46,0.10208,0.60675,0.00464,0.78824,478,0.595,0.229,0.771,0.244,0.061,0.061,16.853,-36.513,-144.888,-17.353,-14.66,-4.58,29.46,0.32697,-0.25351,-0.2261,-0.88181,484,0.365,0.32,0.874,0.183,0.488,0.122,20.209,-21.368,149.832,-10.987,-16.487,-31.64,28.7,0.22101,0.2215,0.11874,0.94229,488,0.925,0.331,0.09,-0.183,-0.061,0.0,74.52,-69.505,132.55,-28.88,-17.82,0.827,31.45,-0.05228,0.61563,0.2724,0.73755,482
121,0.972,0.134,0.269,-0.244,-0.366,-0.061,26.548,-72.933,145.377,-24.82,-15.067,-8.667,29.46,0.10208,0.60675,0.00464,0.78824,479,0.597,0.229,0.771,0.61,0.0,0.0,16.859,-36.513,-144.877,-17.353,-14.66,-4.58,29.46,0.32697,-0.25351,-0.2261,-0.88181,485,0.365,0.322,0.871,0.122,-0.305,0.122,20.209,-21.368,149.837,-10.987,-16.487,-31.64,28.7,0.22101,0.2215,0.11874,0.94229,489,0.927,0.333,0.09,0.0,0.0,-0.061,74.526,-69.505,132.556,-28.88,-17.82,0.827,31.45,-0.05228,0.61563,0.2724,0.73755,483
122,0.973,0.137,0.268,-0.122,-0.244,0.0,26.554,-72.933,145.36,-24.82,-15.067,-8.667,29.46,0.10208,0.60675,0.00464,0.78824,486,0.597,0.232,0.769,0.61,-0.183,-0.061,16.87,-36.519,-144.86,-17.353,-14.66,-4.58,29.46,0.32697,-0.25351,-0.2261,-0.88181,490,0.364,0.322,0.868,0.244,-0.061,0.183,20.215,-21.374,149.848,-10.987,-16.487,-31.64,28.7,0.22101,0.2215,0.11874,0.94229,494,0.925,0.332,0.091,0.122,0.0,-0.122,74.531,-69.505,132.567,-28.88,-17.82,0.827,31.45,-0.05228,0.61563,0.2724,0.73755,492
123,0.975,0.136,0.267,0.122,-0.305,0.0,26.57,-72.938,145.344,-24.82,-15.067,-8.667,29.46,0.10208,0.60675,0.00464,0.78824,487,0.594,0.231,0.769,0.488,-0.061,0.0,16.88,-36.519,-144.844,-17.353,-14.66,-4.58,29.46,0.32697,-0.25351,-0.2261,-0.88181,491,0.364,0.32,0.869,0.0,0.732,0.0,20.215,-21.368,149.875,-10.987,-16.487,-31.64,28.7,0.22101,0.2215,0.11874,0.94229,495,0.922,0.331,0.091,0.0,0.061,-0.061,74.531,-69.505,132.556,-28.88,-17.82,0.827,31.45,-0.05228,0.61563,0.2724,0.73755,493
124,0.975,0.134,0.267,0.122,-0.427,0.0,26.587,-72.944,145.338,-24.82,-15.067,-8.667,29.46,0.10208,0.60675,0.00464,0.78824,498,0.594,0.23,0.77,0.183,0.061,-0.061,16.88,-36.519,-144.827,-17.353,-14.66,-4.58,29.46,0.32697,-0.25351,-0.2261,-0.88181,496,0.362,0.322,0.87,-0.427,0.977,-0.183,20.209,-21.357,149.897,-10.987,-16.487,-31.64,28.7,0.22101,0.2215,0.11874,0.94229,500,0.923,0.33,0.089,-0.244,0.0,0.0,74.531,-69.505,132.567,-28.88,-17.82,0.827,31.45,-0.05228,0.61563,0.2724,0.73755,502
125,0.973,0.134,0.267,-0.061,-0.366,-0.061,26.598,-72.949,145.311,-24.82,-15.067,-8.667,29.46,0.10208,0.60675,0.00464,0.78824,499,0.594,0.232,0.768,-0.183,0.0,-0.061,16.875,-36.519,-144.822,-17.353,-14.66,-4.58,29.46,0.32697,-0.25351,-0.2261,-0.88181,497,0.362,0.323,0.871,-0.854,0.366,-0.305,20.198,-21.341,149.93,-10.987,-16.487,-31.64,28.7,0.22101,0.2215,0.11874,0.94229,501,0.924,0.331,0.091,-0.244,0.0,0.0,74.531,-69.505,132.589,-28.88,-17.82,0.827,31.45,-0.05228,0.61563,0.2724,0.73755,503
126,0.975,0.135,0.267,-0.244,-0.366,-0.122,26.614,-72.955,145.261,-25.24,-14.793,-9.34,29.46,0.10208,0.60675,0.00464,0.78824,506,0.594,0.233,0.77,-0.305,-0.122,-0.122,16.87,-36.519,-144.816,-17.353,-14.66,-4.58,29.46,0.32697,-0.25351,-0.2261,-0.88181,504,0.363,0.324,0.871,-0.793,0.0,-0.061,20.182,-21.341,149.985,-10.987,-16.487,-31.64,28.7,0.22101,0.2215,0.11874,0.94229,510,0.924,0.332,0.09,-0.122,0.0,0.0,74.526,-69.505,132.61,-28.88,-17.82,0.827,31.45,-0.05228,0.61563,0.2724,0.73755,508
127,0.974,0.137,0.267,-0.305,-0.427,-0.244,26.636,-72.96,145.212,-25.24,-14.793,-9.34,29.46,0.10208,0.60675,0.00464,0.78824,507,0.594,0.23,0.77,-0.061,-0.122,-0.061,16.87,-36.519,-144.811,-17.353,-14.66,-4.58,29.46,0.32697,-0.25351,-0.2261,-0.88181,505,0.363,0.321,0.867,-0.977,0.305,0.366,20.165,-21.335,150.046,-10.987,-16.487,-31.64,28.7,0.22101,0.2215,0.11874,0.94229,511,0.922,0.325,0.092,0.0,0.0,-0.061,74.531,-69.505,132.621,-28.88,-17.82,0.827,31.45,-0.05228,0.61563,0.2724,0.73755,509
128,0.972,0.134,0.267,0.0,-0.305,-0.183,26.658,-72.966,145.201,-25.24,-14.793,-9.34,29.46,0.10208,0.60675,0.00464,0.78824,512,0.594,0.23,0.767,-0.244,0.0,0.244,16.859,-36.524,-144.8,-17.353,-14.66,-4.58,29.46,0.32697,-0.25351,-0.2261,-0.88181,514,0.363,0.318,0.866,-0.671,0.977,0.305,20.149,-21.33,150.084,-10.987,-16.487,-31.64,28.7,0.22101,0.2215,0.11874,0.94229,518,0.923,0.329,0.092,0.061,0.122,0.0,74.526,-69.51,132.643,-28.88,-17.82,0.827,31.45,-0.05228,0.61563,0.2724,0.73755,516
129,0.97,0.13,0.267,0.183,0.061,0.0,26.664,-72.966,145.206,-25.24,-14.793,-9.34,29.46,0.10208,0.60675,0.00464,0.78824,513,0.594,0.229,0.768,-0.183,0.122,0.305,16.848,-36.524,-144.794,-17.353,-14.66,-4.58,29.46,0.32697,-0.25351,-0.2261,-0.88181,515,0.361,0.319,0.872,-0.61,1.404,0.122,20.132,-21.308,150.128,-10.987,-16.487,-31.64,28.7,0.22101,0.2215,0.11874,0.94229,519,0.924,0.333,0.091,0.061,0.061,0.0,74.526,-69.51,132.698,-28.88,-17.82,0.827,31.45,-0.05228,0.61563,0.2724,0.73755,517
130,0.972,0.134,0.266,0.0,-0.183,0.0,26.669,-72.966,145.201,-25.24,-14.793,-9.34,29.46,0.10303,0.60751,0.00397,0.78754,522,0.594,0.231,0.771,0.0,0.183,0.122,16.848,-36.519,-144.789,-17.353,-14.66,-4.58,29.46,0.32697,-0.25351,-0.2261,-0.88181,524,0.361,0.322,0.877,-0.244,0.916,-0.061,20.121,-21.292,150.172,-10.7,-16.46,-30.44,28.7,0.22101,0.2215,0.11874,0.94229,526,0.927,0.336,0.091,0.061,0.0,0.0,74.526,-69.51,132.742,-29.333,-17.7,1.213,31.45,-0.05228,0.61563,0.2724,0.73755,520
131,0.977,0.138,0.265,0.0,-0.305,0.061,26.675,-72.971,145.179,-25.24,-14.793,-9.34,29.46,0.10303,0.60751,0.00397,0.78754,523,0.595,0.233,0.774,0.244,0.0,0.0,16.848,-36.519,-144.794,-17.353,-14.66,-4.58,29.46,0.32697,-0.25351,-0.2261,-0.88181,525,0.363,0.325,0.878,-0.183,0.366,0.061,20.116,-21.281,150.189,-10.7,-16.46,-30.44,28.7,0.22101,0.2215,0.11874,0.94229,527,0.928,0.334,0.091,0.061,-0.061,-0.122,74.531,-69.51,132.759,-29.333,-17.7,1.213,31.45,-0.05228,0.61563,0.2724,0.73755,521
132,0.979,0.14,0.268,-0.183,-0.549,0.061,26.686,-72.977,145.157,-25.24,-14.793,-9.34,29.46,0.10303,0.60751,0.00397,0.78754,528,0.598,0.234,0.774,0.305,-0.183,0.0,16.853,-36.519,-144.789,-17.467,-14.733,-4.293,29.46,0.32697,-0.25351,-0.2261,-0.88181,530,0.366,0.322,0.873,-0.427,0.366,0.0,20.11,-21.27,150.189,-10.7,-16.46,-30.44,28.7,0.22101,0.2215,0.11874,0.94229,536,0.928,0.333,0.09,0.183,0.0,-0.122,74.537,-69.51,132.781,-29.333,-17.7,1.213,31.45,-0.05444,0.61493,0.27414,0.7373,532
133,0.978,0.137,0.269,0.0,-0.427,0.061,26.697,-72.988,145.129,-25.24,-14.793,-9.34,29.46,0.10303,0.60751,0.00397,0.78754,529,0.6,0.233,0.771,0.061,-0.122,0.0,16.853,-36.524,-144.794,-17.467,-14.733,-4.293,29.46,0.32697,-0.25351,-0.2261,-0.88181,531,0.361,0.328,0.869,-0.732,0.305,-0.244,20.099,-21.264,150.194,-10.7,-16.46,-30.44,28.7,0.22101,0.2215,0.11874,0.94229,537,0.926,0.333,0.089,0.122,0.0,-0.061,74.542,-69.505,132.825,-29.333,-17.7,1.213,31.45,-0.05444,0.61493,0.27414,0.7373,533
134,0.975,0.135,0.266,0.061,-0.122,0.061,26.708,-72.988,145.102,-25.24,-14.793,-9.34,29.46,0.10303,0.60751,0.00397,0.78754,534,0.594,0.239,0.768,-0.427,0.0,0.0,16.848,-36.524,-144.8,-17.467,-14.733,-4.293,29.46,0.32697,-0.25351,-0.2261,-0.88181,538,0.358,0.326,0.871,-0.549,0.366,-0.549,20.094,-21.259,150.156,-10.7,-16.46,-30.44,28.7,0.21793,0.21967,0.11893,0.94339,546,0.921,0.335,0.089,-0.122,0.0,0.061,74.548,-69.505,132.852,-29.333,-17.7,1.213,31.45,-0.05444,0.61493,0.27414,0.7373,540
135,0.969,0.136,0.264,0.244,0.122,0.0,26.708,-72.988,145.091,-25.24,-14.793,-9.34,29.46,0.10303,0.60751,0.00397,0.78754,535,0.591,0.237,0.768,-0.793,0.0,0.122,16.831,-36.524,-144.805,-17.467,-14.733,-4.293,29.46,0.32697,-0.25351,-0.2261,-0.88181,539,0.359,0.318,0.868,-0.793,0.0,-0.427,20.083,-21.253,150.128,-10.7,-16.46,-30.44,28.7,0.21793,0.21967,0.11893,0.94339,547,0.919,0.334,0.091,-0.244,0.0,0.0,74.548,-69.51,132.874,-29.333,-17.7,1.213,31.45,-0.05444,0.61493,0.27414,0.7373,541
136,0.969,0.136,0.265,0.244,-0.061,0.0,26.719,-72.988,145.063,-25.24,-14.793,-9.34,29.46,0.10303,0.60751,0.00397,0.78754,542,0.59,0.23,0.766,-0.916,0.0,0.061,16.809,-36.524,-144.822,-17.467,-14.733,-4.293,29.46,0.32764,-0.25348,-0.22614,-0.88156,544,0.359,0.313,0.867,-0.732,0.0,-0.244,20.078,-21.248,150.123,-10.7,-16.46,-30.44,28.7,0.21793,0.21967,0.11893,0.94339,556,0.919,0.33,0.092,-0.183,0.0,0.305,74.542,-69.51,132.929,-29.333,-17.7,1.213,31.45,-0.05444,0.61493,0.27414,0.7373,548
137,0.971,0.135,0.266,0.122,-0.061,0.183,26.719,-72.988,145.074,-25.24,-14.793,-9.34,29.46,0.10303,0.60751,0.00397,0.78754,543,0.591,0.223,0.767,-0.488,0.061,0.0,16.804,-36.524,-144.833,-17.467,-14.733,-4.293,29.46,0.32764,-0.25348,-0.22614,-0.88156,545,0.359,0.313,0.868,-0.427,0.854,0.305,20.067,-21.242,150.145,-10.7,-16.46,-30.44,28.7,0.21793,0.21967,0.11893,0.94339,557,0.922,0.327,0.092,0.061,0.061,0.122,74.537,-69.516,132.995,-29.333,-17.7,1.213,31.45,-0.05444,0.61493,0.27414,0.7373,549
138,0.974,0.134,0.266,0.061,-0.183,0.366,26.713,-72.993,145.096,-25.24,-14.793,-9.34,29.46,0.10303,0.60751,0.00397,0.78754,550,0.593,0.223,0.768,0.122,0.122,0.122,16.798,-36.519,-144.827,-17.467,-14.733,-4.293,29.46,0.32764,-0.25348,-0.22614,-0.88156,552,0.361,0.315,0.873,0.488,1.038,0.488,20.061,-21.231,150.2,-10.7,-16.46,-30.44,28.7,0.21793,0.21967,0.11893,0.94339,564,0.925,0.328,0.092,0.366,0.122,0.0,74.537,-69.516,133.055,-29.333,-17.7,1.213,31.45,-0.05444,0.61493,0.27414,0.7373,554
139,0.975,0.135,0.265,0.122,-0.244,0.427,26.697,-72.999,145.124,-25.24,-14.793,-9.34,29.46,0.10303,0.60751,0.00397,0.78754,551,0.595,0.226,0.771,0.732,0.0,0.183,16.809,-36.519,-144.822,-17.467,-14.733,-4.293,29.46,0.32764,-0.25348,-0.22614,-0.88156,553,0.361,0.317,0.876,0.854,0.488,0.488,20.067,-21.22,150.233,-10.7,-16.46,-30.44,28.7,0.21793,0.21967,0.11893,0.94339,565,0.927,0.33,0.091,0.488,0.0,-0.122,74.542,-69.516,133.11,-29.333,-17.7,1.213,31.45,-0.05444,0.61493,0.27414,0.7373,555
140,0.977,0.135,0.266,0.305,-0.244,0.366,26.691,-73.01,145.146,-25.24,-14.793,-9.34,29.46,0.10303,0.60751,0.00397,0.78754,562,0.596,0.228,0.772,1.099,0.0,0.244,16.826,-36.519,-144.816,-17.467,-14.733,-4.293,29.46,0.32764,-0.25348,-0.22614,-0.88156,558,0.363,0.32,0.876,1.099,0.061,0.122,20.083,-21.215,150.216,-10.7,-16.46,-30.44,28.7,0.21793,0.21967,0.11893,0.94339,572,0.928,0.332,0.091,0.61,0.0,-0.244,74.559,-69.516,133.16,-29.333,-17.7,1.213,31.45,-0.05444,0.61493,0.27414,0.7373,560
141,0.978,0.135,0.267,0.427,-0.122,0.244,26.691,-73.015,145.168,-25.24,-14.793,-9.34,29.46,0.10303,0.60751,0.00397,0.78754,563,0.599,0.233,0.774,0.977,0.0,0.061,16.842,-36.519,-144.816,-17.467,-14.733,-4.293,29.46,0.32764,-0.25348,-0.22614,-0.88156,559,0.364,0.325,0.876,0.977,0.0,-0.244,20.105,-21.215,150.172,-10.7,-16.46,-30.44,28.7,0.21793,0.21967,0.11893,0.94339,573,0.927,0.336,0.09,0.549,0.0,-0.244,74.575,-69.51,133.209,-29.333,-17.7,1.213,31.45,-0.05444,0.61493,0.27414,0.7373,561
142,0.977,0.137,0.266,0.305,-0.183,0.244,26.691,-73.015,145.184,-25.247,-14.893,-8.307,29.46,0.10303,0.60751,0.00397,0.78754,566,0.598,0.237,0.771,0.488,-0.061,-0.061,16.853,-36.519,-144.816,-17.467,-14.733,-4.293,29.46,0.32764,-0.25348,-0.22614,-0.88156,568,0.362,0.324,0.871,0.488,-0.183,-0.366,20.121,-21.215,150.079,-10.7,-16.46,-30.44,28.7,0.21793,0.21967,0.11893,0.94339,580,0.926,0.339,0.088,0.244,0.0,-0.183,74.586,-69.505,133.259,-29.333,-17.7,1.213,31.45,-0.05444,0.61493,0.27414,0.7373,570
143,0.974,0.139,0.266,0.183,-0.244,0.244,26.691,-73.021,145.201,-25.247,-14.893,-8.307,29.46,0.10303,0.60751,0.00397,0.78754,567,0.596,0.237,0.77,0.122,0.0,-0.183,16.853,-36.519,-144.822,-17.467,-14.733,-4.293,29.46,0.32764,-0.25348,-0.22614,-0.88156,569,0.364,0.325,0.869,-0.061,0.122,-0.488,20.132,-21.215,149.98,-10.7,-16.46,-30.44,28.7,0.21793,0.21967,0.11893,0.94339,581,0.924,0.336,0.089,0.0,0.122,0.0,74.592,-69.505,133.314,-29.333,-17.7,1.213,31.45,-0.05444,0.61493,0.27414,0.7373,571
144,0.974,0.136,0.266,0.427,-0.122,0.305,26.691,-73.026,145.217,-25.247,-14.893,-8.307,29.46,0.10303,0.60751,0.00397,0.78754,576,0.596,0.236,0.769,-0.366,0.0,-0.366,16.853,-36.519,-144.838,-17.467,-14.733,-4.293,29.46,0.32764,-0.25348,-0.22614,-0.88156,578,0.362,0.323,0.868,-0.061,0.244,-0.732,20.138,-21.209,149.859,-10.7,-16.46,-30.44,28.7,0.21793,0.21967,0.11893,0.94339,586,0.925,0.332,0.089,-0.122,0.244,0.122,74.581,-69.505,133.38,-28.887,-17.933,1.067,31.45,-0.05444,0.61493,0.27414,0.7373,574
145,0.975,0.132,0.265,0.244,-0.183,0.183,26.697,-73.032,145.234,-25.247,-14.893,-8.307,29.46,0.10303,0.60751,0.00397,0.78754,577,0.595,0.233,0.766,-0.488,0.122,-0.305,16.848,-36.513,-144.849,-17.467,-14.733,-4.293,29.46,0.32764,-0.25348,-0.22614,-0.88156,579,0.359,0.323,0.871,-0.305,0.732,-0.305,20.138,-21.198,149.738,-10.7,-16.46,-30.44,28.7,0.21793,0.21967,0.11893,0.94339,587,0.924,0.328,0.088,-0.122,0.305,0.183,74.564,-69.505,133.445,-28.887,-17.933,1.067,31.45,-0.05444,0.61493,0.27414,0.7373,575
146,0.973,0.13,0.264,0.0,-0.122,0.061,26.702,-73.032,145.245,-25.247,-14.893,-8.307,29.46,0.10239,0.60797,0.00415,0.78726,582,0.593,0.229,0.769,-0.427,0.305,0.0,16.837,-36.508,-144.849,-17.467,-14.733,-4.293,29.46,0.32764,-0.25348,-0.22614,-0.88156,584,0.357,0.321,0.872,-0.427,1.099,0.183,20.127,-21.182,149.645,-10.7,-16.46,-30.44,28.7,0.21793,0.21967,0.11893,0.94339,590,0.923,0.325,0.09,0.0,0.305,0.244,74.548,-69.51,133.517,-28.887,-17.933,1.067,31.45,-0.05444,0.61493,0.27414,0.7373,588
147,0.973,0.132,0.264,0.061,0.061,0.122,26.697,-73.032,145.256,-25.247,-14.893,-8.307,29.46,0.10239,0.60797,0.00415,0.78726,583,0.593,0.229,0.769,-0.427,0.244,0.366,16.82,-36.508,-144.833,-17.467,-14.733,-4.293,29.46,0.32764,-0.25348,-0.22614,-0.88156,585,0.359,0.318,0.873,-0.671,0.61,0.549,20.116,-21.165,149.573,-10.7,-16.46,-30.44,28.7,0.21793,0.21967,0.11893,0.94339,591,0.924,0.326,0.092,0.305,0.305,0.122,74.537,-69.516,133.588,-28.887,-17.933,1.067,31.45,-0.05444,0.61493,0.27414,0.7373,589
148,0.974,0.134,0.266,0.183,0.122,0.244,26.686,-73.032,145.278,-25.247,-14.893,-8.307,29.46,0.10239,0.60797,0.00415,0.78726,592,0.593,0.228,0.771,-0.427,0.183,0.61,16.804,-36.508,-144.816,-17.467,-14.733,-4.293,29.46,0.32764,-0.25348,-0.22614,-0.88156,596,0.36,0.317,0.872,-0.61,0.549,0.427,20.099,-21.16,149.518,-10.7,-16.46,-30.44,28.7,0.21793,0.21967,0.11893,0.94339,598,0.924,0.331,0.092,0.488,0.305,0.061,74.531,-69.516,133.654,-28.887,-17.933,1.067,31.45,-0.05948,0.61307,0.27832,0.73691,594
149,0.975,0.135,0.266,0.061,0.0,0.305,26.669,-73.037,145.305,-25.247,-14.893,-8.307,29.46,0.10239,0.60797,0.00415,0.78726,593,0.594,0.229,0.771,-0.183,0.305,0.488,16.787,-36.502,-144.789,-17.467,-14.733,-4.293,29.46,0.32764,-0.25348,-0.22614,-0.88156,597,0.359,0.319,0.873,-0.183,0.916,0.183,20.089,-21.149,149.491,-10.7,-16.46,-30.44,28.7,0.21793,0.21967,0.11893,0.94339,599,0.924,0.335,0.091,0.366,0.305,0.122,74.52,-69.516,133.72,-28.887,-17.933,1.067,31.45,-0.05948,0.61307,0.27832,0.73691,595
150,0.976,0.135,0.263,0.0,0.0,0.183,26.664,-73.037,145.322,-25.247,-14.893,-8.307,29.46,0.10239,0.60797,0.00415,0.78726,600,0.595,0.231,0.771,0.061,0.244,0.244,16.787,-36.497,-144.756,-17.473,-14.173,-4.433,29.46,0.32764,-0.25348,-0.22614,-0.88156,602,0.358,0.321,0.875,-0.061,1.099,0.0,20.083,-21.132,149.447,-10.333,-16.447,-31.633,28.7,0.21793,0.21967,0.11893,0.94339,604,0.926,0.333,0.091,0.122,0.183,0.183,74.515,-69.521,133.781,-28.887,-17.933,1.067,31.45,-0.05948,0.61307,0.27832,0.73691,606
151,0.975,0.135,0.264,0.0,-0.122,0.0,26.669,-73.037,145.327,-25.247,-14.893,-8.307,29.46,0.10239,0.60797,0.00415,0.78726,601,0.594,0.231,0.772,-0.122,0.183,0.183,16.776,-36.497,-144.75,-17.473,-14.173,-4.433,29.46,0.32764,-0.25348,-0.22614,-0.88156,603,0.357,0.321,0.875,-0.488,0.671,0.061,20.078,-21.116,149.42,-10.333,-16.447,-31.633,28.7,0.21793,0.21967,0.11893,0.94339,605,0.925,0.329,0.09,-0.061,0.122,0.122,74.509,-69.521,133.841,-28.887,-17.933,1.067,31.45,-0.05948,0.61307,0.27832,0.73691,607
152,0.974,0.135,0.266,0.0,0.0,0.0,26.675,-73.037,145.333,-25.247,-14.893,-8.307,29.46,0.10239,0.60797,0.00415,0.78726,608,0.594,0.23,0.771,-0.427,0.061,0.305,16.765,-36.497,-144.728,-17.473,-14.173,-4.433,29.46,0.32764,-0.25348,-0.22614,-0.88156,612,0.359,0.32,0.874,-1.16,0.122,0.183,20.056,-21.11,149.425,-10.333,-16.447,-31.633,28.7,0.21793,0.21967,0.11893,0.94339,610,0.925,0.33,0.091,0.0,0.122,0.122,74.498,-69.527,133.896,-28.887,-17.933,1.067,31.45,-0.05948,0.61307,0.27832,0.73691,614
153,0.975,0.135,0.266,0.0,0.0,0.0,26.675,-73.037,145.338,-25.247,-14.893,-8.307,29.46,0.10239,0.60797,0.00415,0.78726,609,0.594,0.23,0.77,-0.366,0.183,0.244,16.754,-36.497,-144.706,-17.473,-14.173,-4.433,29.46,0.32764,-0.25348,-0.22614,-0.88156,613,0.359,0.32,0.872,-0.916,0.122,0.305,20.034,-21.11,149.403,-10.333,-16.447,-31.633,28.7,0.21793,0.21967,0.11893,0.94339,611,0.926,0.333,0.092,0.061,0.183,0.061,74.493,-69.527,133.951,-28.887,-17.933,1.067,31.45,-0.05948,0.61307,0.27832,0.73691,615
154,0.974,0.137,0.266,0.061,-0.061,0.0,26.68,-73.043,145.344,-25.247,-14.893,-8.307,29.46,0.10239,0.60797,0.00415,0.78726,616,0.593,0.232,0.77,-0.366,0.305,0.305,16.738,-36.497,-144.679,-17.473,-14.173,-4.433,29.46,0.32828,-0.25327,-0.22574,-0.8815,622,0.357,0.321,0.871,-0.671,0.671,0.183,20.017,-21.105,149.376,-10.333,-16.447,-31.633,28.7,0.22449,0.21912,0.11746,0.94217,624,0.924,0.333,0.092,0.0,0.183,0.122,74.487,-69.532,134.006,-28.887,-17.933,1.067,31.45,-0.05948,0.61307,0.27832,0.73691,618
155,0.973,0.136,0.267,-0.061,-0.183,0.0,26.691,-73.043,145.344,-25.247,-14.893,-8.307,29.46,0.10239,0.60797,0.00415,0.78726,617,0.591,0.227,0.771,-0.427,0.366,0.366,16.727,-36.491,-144.668,-17.473,-14.173,-4.433,29.46,0.32828,-0.25327,-0.22574,-0.8815,623,0.356,0.317,0.874,-0.549,0.916,0.244,20.006,-21.094,149.376,-10.333,-16.447,-31.633,28.7,0.22449,0.21912,0.11746,0.94217,625,0.923,0.33,0.091,0.061,0.305,0.122,74.471,-69.532,134.066,-28.887,-17.933,1.067,31.45,-0.05948,0.61307,0.27832,0.73691,619
156,0.973,0.133,0.264,0.0,-0.183,0.0,26.697,-73.048,145.344,-25.247,-14.893,-8.307,29.46,0.10239,0.60797,0.00415,0.78726,620,0.591,0.227,0.771,-0.122,0.183,0.366,16.71,-36.486,-144.657,-17.473,-14.173,-4.433,29.46,0.32828,-0.25327,-0.22574,-0.8815,628,0.355,0.315,0.875,-0.549,0.793,0.366,19.99,-21.077,149.376,-10.333,-16.447,-31.633,28.7,0.22449,0.21912,0.11746,0.94217,630,0.923,0.329,0.09,0.183,0.305,0.183,74.46,-69.532,134.132,-28.887,-17.933,1.067,31.45,-0.05948,0.61307,0.27832,0.73691,626
157,0.973,0.133,0.266,0.122,-0.183,0.061,26.702,-73.048,145.349,-25.247,-14.893,-8.307,29.46,0.10239,0.60797,0.00415,0.78726,621,0.592,0.228,0.772,0.122,0.122,0.244,16.705,-36.486,-144.662,-17.473,-14.173,-4.433,29.46,0.32828,-0.25327,-0.22574,-0.8815,629,0.357,0.315,0.875,-0.244,0.305,0.183,19.979,-21.072,149.376,-10.333,-16.447,-31.633,28.7,0.22449,0.21912,0.11746,0.94217,631,0.924,0.332,0.093,0.244,0.244,0.122,74.449,-69.538,134.193,-28.887,-17.933,1.067,31.45,-0.05948,0.61307,0.27832,0.73691,627
158,0.975,0.135,0.266,0.244,-0.183,0.183,26.708,-73.054,145.36,-25.247,-14.893,-8.307,29.46,0.10239,0.60797,0.00415,0.78726,636,0.593,0.226,0.773,0.122,0.122,0.061,16.699,-36.48,-144.657,-17.473,-14.173,-4.433,29.46,0.32828,-0.25327,-0.22574,-0.8815,632,0.357,0.315,0.874,-0.061,0.366,0.0,19.979,-21.066,149.332,-10.333,-16.447,-31.633,28.7,0.22449,0.21912,0.11746,0.94217,642,0.925,0.333,0.093,0.244,0.183,0.122,74.443,-69.538,134.247,-28.887,-17.933,1.067,31.45,-0.05948,0.61307,0.27832,0.73691,634
159,0.976,0.136,0.266,0.0,-0.305,0.183,26.708,-73.059,145.366,-25.247,-14.893,-8.307,29.46,0.10239,0.60797,0.00415,0.78726,637,0.593,0.225,0.772,0.244,0.244,0.061,16.699,-36.48,-144.651,-17.473,-14.173,-4.433,29.46,0.32828,-0.25327,-0.22574,-0.8815,633,0.356,0.315,0.875,-0.122,0.854,0.122,19.973,-21.05,149.332,-10.333,-16.447,-31.633,28.7,0.22449,0.21912,0.11746,0.94217,643,0.925,0.33,0.093,0.122,0.122,0.0,74.438,-69.538,134.297,-28.887,-17.933,1.067,31.45,-0.05948,0.61307,0.27832,0.73691,635
160,0.974,0.135,0.265,-0.122,-0.305,0.0,26.713,-73.065,145.36,-25.26,-15.2,-9.447,29.46,0.10239,0.60797,0.00415,0.78726,638,0.592,0.228,0.772,0.305,0.061,0.244,16.699,-36.475,-144.646,-17.473,-14.173,-4.433,29.46,0.32828,-0.25327,-0.22574,-0.8815,640,0.354,0.317,0.877,0.0,0.732,0.366,19.968,-21.039,149.37,-10.333,-16.447,-31.633,28.7,0.22449,0.21912,0.11746,0.94217,646,0.923,0.326,0.091,0.244,0.061,-0.122,74.443,-69.538,134.346,-29.02,-17.98,0.347,31.45,-0.05948,0.61307,0.27832,0.73691,644
161,0.973,0.133,0.264,0.0,-0.183,0.0,26.724,-73.065,145.36,-25.26,-15.2,-9.447,29.46,0.10239,0.60797,0.00415,0.78726,639,0.592,0.231,0.771,0.366,-0.061,0.183,16.699,-36.475,-144.635,-17.473,-14.173,-4.433,29.46,0.32828,-0.25327,-0.22574,-0.8815,641,0.354,0.319,0.875,0.0,0.244,0.366,19.962,-21.033,149.403,-10.333,-16.447,-31.633,28.7,0.22449,0.21912,0.11746,0.94217,647,0.924,0.33,0.091,0.427,0.0,-0.244,74.449,-69.538,134.385,-29.02,-17.98,0.347,31.45,-0.05948,0.61307,0.27832,0.73691,645
162,0.974,0.134,0.264,0.244,-0.305,0.061,26.735,-73.07,145.36,-25.26,-15.2,-9.447,29.46,0.10239,0.60797,0.00415,0.78726,648,0.593,0.23,0.771,0.427,-0.061,0.122,16.705,-36.475,-144.63,-17.473,-14.173,-4.433,29.46,0.32828,-0.25327,-0.22574,-0.8815,650,0.356,0.319,0.875,0.061,-0.305,0.305,19.962,-21.033,149.42,-10.333,-16.447,-31.633,28.7,0.22449,0.21912,0.11746,0.94217,652,0.924,0.333,0.092,0.488,0.0,0.0,74.46,-69.538,134.423,-29.02,-17.98,0.347,31.45,-0.06479,0.61108,0.28235,0.73657,654
163,0.975,0.136,0.265,0.244,-0.427,0.122,26.752,-73.081,145.36,-25.26,-15.2,-9.447,29.46,0.10239,0.60797,0.00415,0.78726,649,0.594,0.228,0.772,0.183,0.0,0.122,16.705,-36.475,-144.624,-17.473,-14.173,-4.433,29.46,0.32828,-0.25327,-0.22574,-0.8815,651,0.357,0.316,0.875,-0.183,0.122,0.305,19.957,-21.039,149.425,-10.333,-16.447,-31.633,28.7,0.22449,0.21912,0.11746,0.94217,653,0.924,0.33,0.092,0.427,0.0,0.0,74.471,-69.538,134.467,-29.02,-17.98,0.347,31.45,-0.06479,0.61108,0.28235,0.73657,655
164,0.974,0.134,0.264,0.122,-0.366,0.183,26.757,-73.087,145.366,-25.26,-15.2,-9.447,29.46,0.1011,0.60831,0.00504,0.78714,656,0.594,0.227,0.771,0.0,-0.061,0.183,16.705,-36.475,-144.613,-17.473,-14.173,-4.433,29.46,0.32828,-0.25327,-0.22574,-0.8815,658,0.356,0.316,0.876,-0.183,0.305,0.183,19.951,-21.033,149.469,-10.333,-16.447,-31.633,28.7,0.22449,0.21912,0.11746,0.94217,666,0.924,0.328,0.092,0.305,-0.061,0.0,74.482,-69.538,134.5,-29.02,-17.98,0.347,31.45,-0.06479,0.61108,0.28235,0.73657,660
165,0.975,0.133,0.263,0.0,-0.244,0.061,26.763,-73.092,145.371,-25.26,-15.2,-9.447,29.46,0.1011,0.60831,0.00504,0.78714,657,0.593,0.229,0.771,0.0,-0.244,0.061,16.699,-36.48,-144.608,-17.473,-14.173,-4.433,29.46,0.32828,-0.25327,-0.22574,-0.8815,659,0.356,0.317,0.875,-0.244,0.061,0.183,19.946,-21.033,149.502,-10.333,-16.447,-31.633,28.7,0.22449,0.21912,0.11746,0.94217,667,0.923,0.331,0.091,0.366,-0.061,0.0,74.487,-69.538,134.539,-29.02,-17.98,0.347,31.45,-0.06479,0.61108,0.28235,0.73657,661
166,0.975,0.134,0.263,0.061,-0.427,0.0,26.779,-73.098,145.36,-25.26,-15.2,-9.447,29.46,0.1011,0.60831,0.00504,0.78714,662,0.594,0.229,0.771,0.122,-0.366,0.0,16.699,-36.48,-144.608,-17.473,-14.173,-4.433,29.46,0.32828,-0.25327,-0.22574,-0.8815,664,0.356,0.318,0.875,-0.183,0.061,0.061,19.94,-21.028,149.507,-10.32,-16.527,-31.287,28.7,0.22449,0.21912,0.11746,0.94217,670,0.925,0.333,0.09,0.305,-0.122,0.0,74.504,-69.543,134.572,-29.02,-17.98,0.347,31.45,-0.06479,0.61108,0.28235,0.73657,668
167,0.976,0.135,0.264,0.122,-0.61,0.122,26.79,-73.109,145.355,-25.26,-15.2,-9.447,29.46,0.1011,0.60831,0.00504,0.78714,663,0.598,0.229,0.771,0.366,-0.305,0.061,16.699,-36.486,-144.608,-17.473,-14.173,-4.433,29.46,0.32828,-0.25327,-0.22574,-0.8815,665,0.36,0.319,0.875,-0.305,0.427,0.549,19.935,-21.028,149.496,-10.32,-16.527,-31.287,28.7,0.22449,0.21912,0.11746,0.94217,671,0.926,0.333,0.091,0.366,-0.183,0.0,74.52,-69.543,134.599,-29.02,-17.98,0.347,31.45,-0.06479,0.61108,0.28235,0.73657,669
168,0.976,0.135,0.265,0.122,-0.671,0.122,26.812,-73.125,145.349,-25.26,-15.2,-9.447,29.46,0.1011,0.60831,0.00504,0.78714,672,0.598,0.229,0.767,0.305,-0.183,0.061,16.705,-36.491,-144.602,-16.887,-14.187,-4.513,29.46,0.32828,-0.25327,-0.22574,-0.8815,678,0.361,0.312,0.872,-0.183,0.61,0.549,19.924,-21.017,149.436,-10.32,-16.527,-31.287,28.7,0.22449,0.21912,0.11746,0.94217,680,0.926,0.33,0.091,0.244,-0.183,0.0,74.537,-69.543,134.626,-29.02,-17.98,0.347,31.45,-0.06479,0.61108,0.28235,0.73657,674
169,0.975,0.134,0.264,0.0,-0.549,0.0,26.829,-73.13,145.338,-25.26,-15.2,-9.447,29.46,0.1011,0.60831,0.00504,0.78714,673,0.596,0.227,0.766,0.0,0.0,-0.305,16.71,-36.497,-144.602,-16.887,-14.187,-4.513,29.46,0.32828,-0.25327,-0.22574,-0.8815,679,0.359,0.309,0.87,0.061,0.549,-0.183,19.924,-21.006,149.392,-10.32,-16.527,-31.287,28.7,0.22449,0.21912,0.11746,0.94217,681,0.924,0.333,0.087,-0.122,-0.061,0.0,74.537,-69.549,134.665,-29.02,-17.98,0.347,31.45,-0.06479,0.61108,0.28235,0.73657,675
170,0.974,0.133,0.264,-0.061,-0.244,-0.061,26.84,-73.136,145.327,-25.26,-15.2,-9.447,29.46,0.1011,0.60831,0.00504,0.78714,676,0.595,0.228,0.771,-0.305,0.061,-0.732,16.71,-36.491,-144.608,-16.887,-14.187,-4.513,29.46,0.32895,-0.25317,-0.22565,-0.88129,684,0.355,0.315,0.875,0.488,0.793,-0.854,19.929,-20.989,149.337,-10.32,-16.527,-31.287,28.7,0.22522,0.21808,0.11664,0.94235,682,0.924,0.334,0.088,-0.549,0.061,0.0,74.526,-69.549,134.703,-29.02,-17.98,0.347,31.45,-0.06479,0.61108,0.28235,0.73657,686
171,0.973,0.136,0.263,0.0,-0.061,-0.122,26.851,-73.136,145.327,-25.26,-15.2,-9.447,29.46,0.1011,0.60831,0.00504,0.78714,677,0.596,0.227,0.773,-0.122,0.0,-0.732,16.716,-36.486,-144.619,-16.887,-14.187,-4.513,29.46,0.32895,-0.25317,-0.22565,-0.88129,685,0.357,0.318,0.879,0.244,1.038,-0.671,19.94,-20.967,149.299,-10.32,-16.527,-31.287,28.7,0.22522,0.21808,0.11664,0.94235,683,0.926,0.331,0.09,-0.427,-0.061,0.0,74.526,-69.549,134.736,-29.02,-17.98,0.347,31.45,-0.06479,0.61108,0.28235,0.73657,687
172,0.978,0.137,0.262,0.122,-0.244,0.0,26.862,-73.136,145.322,-25.26,-15.2,-9.447,29.46,0.1011,0.60831,0.00504,0.78714,688,0.596,0.229,0.773,0.122,-0.061,-0.488,16.721,-36.486,-144.635,-16.887,-14.187,-4.513,29.46,0.32895,-0.25317,-0.22565,-0.88129,690,0.357,0.32,0.879,0.244,0.244,-0.122,19.946,-20.956,149.277,-10.32,-16.527,-31.287,28.7,0.22522,0.21808,0.11664,0.94235,692,0.927,0.329,0.09,-0.122,-0.122,-0.427,74.537,-69.543,134.758,-29.02,-17.98,0.347,31.45,-0.06479,0.61108,0.28235,0.73657,694
173,0.978,0.137,0.261,0.061,-0.305,0.0,26.878,-73.141,145.316,-25.26,-15.2,-9.447,29.46,0.1011,0.60831,0.00504,0.78714,689,0.594,0.229,0.77,0.0,-0.061,-0.183,16.727,-36.486,-144.641,-16.887,-14.187,-4.513,29.46,0.32895,-0.25317,-0.22565,-0.88129,691,0.355,0.32,0.875,0.061,-0.183,-0.061,19.946,-20.962,149.244,-10.32,-16.527,-31.287,28.7,0.22522,0.21808,0.11664,0.94235,693,0.927,0.327,0.09,0.122,-0.122,-0.549,74.553,-69.532,134.78,-29.02,-17.98,0.347,31.45,-0.06479,0.61108,0.28235,0.73657,695
174,0.978,0.133,0.264,0.061,-0.488,0.0,26.9,-73.152,145.305,-25.26,-15.2,-9.447,29.46,0.1011,0.60831,0.00504,0.78714,700,0.593,0.23,0.771,-0.244,-0.061,0.0,16.727,-36.486,-144.641,-16.887,-14.187,-4.513,29.46,0.32895,-0.25317,-0.22565,-0.88129,696,0.354,0.319,0.875,-0.061,-0.244,-0.122,19.946,-20.962,149.167,-10.32,-16.527,-31.287,28.7,0.22522,0.21808,0.11664,0.94235,702,0.924,0.326,0.09,0.427,0.0,-0.427,74.57,-69.527,134.808,-29.413,-17.62,0.9,31.45,-0.06479,0.61108,0.28235,0.73657,698
175,0.975,0.131,0.262,0.0,-0.427,0.0,26.917,-73.158,145.294,-25.26,-15.2,-9.447,29.46,0.1011,0.60831,0.00504,0.78714,701,0.593,0.229,0.77,-0.244,-0.061,0.0,16.716,-36.486,-144.641,-16.887,-14.187,-4.513,29.46,0.32895,-0.25317,-0.22565,-0.88129,697,0.355,0.317,0.875,-0.366,0.061,-0.061,19.94,-20.962,149.079,-10.32,-16.527,-31.287,28.7,0.22522,0.21808,0.11664,0.94235,703,0.922,0.33,0.089,0.488,0.0,-0.305,74.586,-69.521,134.841,-29.413,-17.62,0.9,31.45,-0.06479,0.61108,0.28235,0.73657,699
176,0.972,0.131,0.261,0.0,-0.305,0.0,26.927,-73.163,145.294,-25.26,-15.2,-9.447,29.46,0.1011,0.60831,0.00504,0.78714,706,0.594,0.229,0.77,-0.061,-0.183,-0.122,16.71,-36.486,-144.635,-16.887,-14.187,-4.513,29.46,0.32895,-0.25317,-0.22565,-0.88129,708,0.354,0.317,0.874,-0.122,0.061,0.0,19.94,-20.962,149.008,-10.32,-16.527,-31.287,28.7,0.22522,0.21808,0.11664,0.94235,710,0.923,0.333,0.09,0.366,-0.122,-0.183,74.608,-69.521,134.868,-29.413,-17.62,0.9,31.45,-0.06479,0.61108,0.28235,0.73657,704
177,0.974,0.134,0.261,0.244,-0.305,0.0,26.938,-73.169,145.289,-25.26,-15.2,-9.447,29.46,0.1011,0.60831,0.00504,0.78714,707,0.591,0.23,0.77,-0.061,-0.122,-0.183,16.71,-36.491,-144.641,-16.887,-14.187,-4.513,29.46,0.32895,-0.25317,-0.22565,-0.88129,709,0.353,0.317,0.873,0.183,0.183,-0.122,19.94,-20.962,148.986,-10.32,-16.527,-31.287,28.7,0.22522,0.21808,0.11664,0.94235,711,0.923,0.333,0.092,0.244,-0.122,-0.122,74.619,-69.521,134.89,-29.413,-17.62,0.9,31.45,-0.06479,0.61108,0.28235,0.73657,705
178,0.975,0.135,0.262,0.427,-0.427,0.0,26.96,-73.174,145.278,-25.113,-15.013,-8.46,29.46,0.1011,0.60831,0.00504,0.78714,712,0.59,0.228,0.771,-0.122,0.0,-0.244,16.71,-36.491,-144.641,-16.887,-14.187,-4.513,29.46,0.32895,-0.25317,-0.22565,-0.88129,714,0.353,0.316,0.875,0.122,0.122,-0.244,19.946,-20.956,148.931,-10.32,-16.527,-31.287,28.7,0.22522,0.21808,0.11664,0.94235,716,0.921,0.333,0.092,0.183,-0.061,-0.122,74.63,-69.521,134.923,-29.413,-17.62,0.9,31.45,-0.06845,0.6098,0.2858,0.73596,718
179,0.973,0.136,0.264,0.122,-0.488,0.0,26.982,-73.185,145.267,-25.113,-15.013,-8.46,29.46,0.1011,0.60831,0.00504,0.78714,713,0.594,0.228,0.772,-0.122,0.0,-0.244,16.71,-36.486,-144.646,-16.887,-14.187,-4.513,29.46,0.32895,-0.25317,-0.22565,-0.88129,715,0.355,0.318,0.876,-0.061,0.0,-0.183,19.946,-20.951,148.892,-10.32,-16.527,-31.287,28.7,0.22522,0.21808,0.11664,0.94235,717,0.924,0.332,0.093,0.0,-0.061,-0.122,74.636,-69.521,134.951,-29.413,-17.62,0.9,31.45,-0.06845,0.6098,0.2858,0.73596,719
180,0.975,0.137,0.264,0.0,-0.244,0.0,26.993,-73.191,145.261,-25.113,-15.013,-8.46,29.46,0.1011,0.60831,0.00504,0.78714,720,0.597,0.231,0.771,0.0,-0.061,-0.122,16.71,-36.486,-144.646,-16.887,-14.187,-4.513,29.46,0.32895,-0.25317,-0.22565,-0.88129,722,0.36,0.322,0.873,-0.183,-0.366,0.0,19.946,-20.956,148.859,-10.32,-16.527,-31.287,28.7,0.22522,0.21808,0.11664,0.94235,724,0.927,0.333,0.09,0.0,-0.061,-0.183,74.636,-69.516,134.978,-29.413,-17.62,0.9,31.45,-0.06845,0.6098,0.2858,0.73596,726
181,0.976,0.137,0.264,0.0,-0.244,0.0,26.999,-73.191,145.256,-25.113,-15.013,-8.46,29.46,0.1011,0.60831,0.00504,0.78714,721,0.597,0.233,0.768,0.183,0.0,0.0,16.71,-36.486,-144.646,-16.887,-14.187,-4.513,29.46,0.32895,-0.25317,-0.22565,-0.88129,723,0.357,0.322,0.872,0.0,0.0,0.122,19.946,-20.956,148.848,-10.32,-16.527,-31.287,28.7,0.22522,0.21808,0.11664,0.94235,725,0.926,0.334,0.089,0.122,0.0,-0.183,74.641,-69.516,135.005,-29.413,-17.62,0.9,31.45,-0.06845,0.6098,0.2858,0.73596,727
182,0.978,0.137,0.263,0.122,-0.305,0.0,27.015,-73.196,145.256,-25.113,-15.013,-8.46,29.46,0.10016,0.60922,0.00583,0.78656,728,0.595,0.234,0.771,0.122,0.061,0.0,16.716,-36.486,-144.641,-16.887,-14.187,-4.513,29.46,0.32895,-0.25317,-0.22565,-0.88129,736,0.357,0.323,0.875,0.122,0.305,0.183,19.946,-20.956,148.859,-10.32,-16.527,-31.287,28.7,0.22522,0.21808,0.11664,0.94235,732,0.924,0.335,0.089,0.244,0.183,-0.244,74.647,-69.51,135.038,-29.413,-17.62,0.9,31.45,-0.06845,0.6098,0.2858,0.73596,730
183,0.975,0.136,0.262,0.244,-0.244,0.0,27.026,-73.202,145.25,-25.113,-15.013,-8.46,29.46,0.10016,0.60922,0.00583,0.78656,729,0.593,0.235,0.772,0.0,0.183,0.0,16.716,-36.48,-144.641,-16.887,-14.187,-4.513,29.46,0.32895,-0.25317,-0.22565,-0.88129,737,0.354,0.322,0.875,0.0,0.305,0.061,19.946,-20.951,148.881,-10.32,-16.527,-31.287,28.7,0.22522,0.21808,0.11664,0.94235,733,0.923,0.336,0.09,0.122,0.122,-0.061,74.647,-69.505,135.077,-29.413,-17.62,0.9,31.45,-0.06845,0.6098,0.2858,0.73596,731
184,0.975,0.135,0.261,0.244,-0.305,0.0,27.043,-73.202,145.245,-25.113,-15.013,-8.46,29.46,0.10016,0.60922,0.00583,0.78656,734,0.592,0.231,0.773,-0.061,0.183,-0.061,16.716,-36.48,-144.635,-17.533,-14.567,-4.54,29.46,0.32895,-0.25317,-0.22565,-0.88129,740,0.354,0.319,0.877,0.0,0.671,0.0,19.946,-20.94,148.909,-10.713,-16.16,-30.767,28.7,0.22522,0.21808,0.11664,0.94235,744,0.922,0.334,0.09,0.0,0.122,0.0,74.647,-69.505,135.11,-29.413,-17.62,0.9,31.45,-0.06845,0.6098,0.2858,0.73596,738
185,0.975,0.135,0.26,0.0,-0.488,0.0,27.065,-73.207,145.239,-25.113,-15.013,-8.46,29.46,0.10016,0.60922,0.00583,0.78656,735,0.595,0.229,0.769,0.0,0.122,-0.061,16.716,-36.475,-144.635,-17.533,-14.567,-4.54,29.46,0.32895,-0.25317,-0.22565,-0.88129,741,0.356,0.319,0.875,0.183,0.122,-0.244,19.951,-20.934,148.958,-10.713,-16.16,-30.767,28.7,0.22522,0.21808,0.11664,0.94235,745,0.924,0.332,0.088,-0.122,0.0,0.061,74.641,-69.505,135.148,-29.413,-17.62,0.9,31.45,-0.06845,0.6098,0.2858,0.73596,739
186,0.977,0.135,0.259,-0.122,-0.549,0.0,27.081,-73.218,145.228,-25.113,-15.013,-8.46,29.46,0.10016,0.60922,0.00583,0.78656,742,0.596,0.231,0.769,0.122,0.0,0.061,16.716,-36.475,-144.63,-17.533,-14.567,-4.54,29.46,0.32895,-0.25317,-0.22565,-0.88129,750,0.357,0.324,0.874,0.183,0.0,0.061,19.957,-20.929,149.002,-10.713,-16.16,-30.767,28.7,0.22842,0.21793,0.11639,0.94165,748,0.924,0.331,0.089,0.0,0.0,0.061,74.641,-69.505,135.181,-29.413,-17.62,0.9,31.45,-0.06845,0.6098,0.2858,0.73596,746
187,0.977,0.135,0.261,0.0,-0.305,0.0,27.098,-73.224,145.217,-25.113,-15.013,-8.46,29.46,0.10016,0.60922,0.00583,0.78656,743,0.595,0.229,0.769,0.244,0.0,0.244,16.716,-36.475,-144.624,-17.533,-14.567,-4.54,29.46,0.32895,-0.25317,-0.22565,-0.88129,751,0.357,0.318,0.873,0.0,0.122,0.488,19.957,-20.929,149.073,-10.713,-16.16,-30.767,28.7,0.22842,0.21793,0.11639,0.94165,749,0.924,0.331,0.088,0.183,0.122,0.061,74.641,-69.505,135.214,-29.413,-17.62,0.9,31.45,-0.06845,0.6098,0.2858,0.73596,747
188,0.977,0.136,0.259,0.122,-0.061,0.0,27.109,-73.229,145.212,-25.113,-15.013,-8.46,29.46,0.10016,0.60922,0.00583,0.78656,752,0.593,0.227,0.771,0.305,0.0,0.244,16.716,-36.475,-144.619,-17.533,-14.567,-4.54,29.46,0.32886,-0.25302,-0.22562,-0.88138,754,0.356,0.316,0.877,-0.366,0.305,0.732,19.946,-20.929,149.128,-10.713,-16.16,-30.767,28.7,0.22842,0.21793,0.11639,0.94165,760,0.924,0.331,0.088,0.244,0.061,0.0,74.641,-69.51,135.253,-29.413,-17.62,0.9,31.45,-0.06845,0.6098,0.2858,0.73596,756
189,0.977,0.136,0.259,0.183,-0.061,0.0,27.12,-73.229,145.217,-25.113,-15.013,-8.46,29.46,0.10016,0.60922,0.00583,0.78656,753,0.594,0.229,0.771,0.427,0.0,0.244,16.721,-36.475,-144.608,-17.533,-14.567,-4.54,29.46,0.32886,-0.25302,-0.22562,-0.88138,755,0.355,0.318,0.877,-0.366,0.305,0.732,19.935,-20.929,149.178,-10.713,-16.16,-30.767,28.7,0.22842,0.21793,0.11639,0.94165,761,0.925,0.332,0.089,0.305,0.0,0.0,74.647,-69.51,135.286,-29.413,-17.62,0.9,31.45,-0.06845,0.6098,0.2858,0.73596,757
190,0.977,0.136,0.26,0.244,-0.061,0.0,27.125,-73.229,145.217,-25.113,-15.013,-8.46,29.46,0.10016,0.60922,0.00583,0.78656,758,0.596,0.232,0.77,0.427,-0.061,0.244,16.727,-36.48,-144.602,-17.533,-14.567,-4.54,29.46,0.32886,-0.25302,-0.22562,-0.88138,764,0.356,0.319,0.875,-0.061,0.122,0.488,19.929,-20.929,149.194,-10.713,-16.16,-30.767,28.7,0.22842,0.21793,0.11639,0.94165,762,0.927,0.334,0.089,0.305,0.0,0.0,74.658,-69.51,135.313,-28.88,-18.273,1.707,31.45,-0.06845,0.6098,0.2858,0.73596,766
191,0.977,0.136,0.26,0.061,-0.183,0.0,27.136,-73.235,145.217,-25.113,-15.013,-8.46,29.46,0.10016,0.60922,0.00583,0.78656,759,0.598,0.234,0.771,0.305,-0.183,0.244,16.727,-36.48,-144.591,-17.533,-14.567,-4.54,29.46,0.32886,-0.25302,-0.22562,-0.88138,765,0.359,0.322,0.875,0.366,-0.122,0.244,19.935,-20.934,149.211,-10.713,-16.16,-30.767,28.7,0.22842,0.21793,0.11639,0.94165,763,0.926,0.335,0.089,0.183,0.061,0.061,74.669,-69.51,135.341,-28.88,-18.273,1.707,31.45,-0.06845,0.6098,0.2858,0.73596,767
192,0.977,0.136,0.262,-0.061,-0.305,0.0,27.153,-73.235,145.217,-25.113,-15.013,-8.46,29.46,0.10016,0.60922,0.00583,0.78656,768,0.597,0.234,0.769,-0.061,0.0,0.183,16.727,-36.486,-144.586,-17.533,-14.567,-4.54,29.46,0.32886,-0.25302,-0.22562,-0.88138,772,0.358,0.321,0.872,0.0,-0.244,0.061,19.935,-20.94,149.211,-10.713,-16.16,-30.767,28.7,0.22842,0.21793,0.11639,0.94165,774,0.924,0.333,0.088,0.061,0.122,0.122,74.669,-69.51,135.379,-28.88,-18.273,1.707,31.45,-0.07193,0.60846,0.28891,0.73553,770
193,0.976,0.134,0.261,0.0,-0.183,0.0,27.164,-73.24,145.212,-25.113,-15.013,-8.46,29.46,0.10016,0.60922,0.00583,0.78656,769,0.595,0.233,0.769,-0.488,0.122,0.183,16.721,-36.486,-144.58,-17.533,-14.567,-4.54,29.46,0.32886,-0.25302,-0.22562,-0.88138,773,0.357,0.321,0.873,-0.427,0.122,-0.122,19.935,-20.94,149.205,-10.713,-16.16,-30.767,28.7,0.22842,0.21793,0.11639,0.94165,775,0.924,0.333,0.087,-0.061,0.244,0.244,74.663,-69.516,135.417,-28.88,-18.273,1.707,31.45,-0.07193,0.60846,0.28891,0.73553,771
194,0.976,0.135,0.26,0.0,0.0,0.0,27.169,-73.246,145.212,-25.113,-15.013,-8.46,29.46,0.10016,0.60922,0.00583,0.78656,776,0.595,0.233,0.769,-0.549,0.122,0.183,16.705,-36.486,-144.569,-17.533,-14.567,-4.54,29.46,0.32886,-0.25302,-0.22562,-0.88138,778,0.355,0.321,0.873,-0.916,0.244,-0.061,19.918,-20.934,149.183,-10.713,-16.16,-30.767,28.7,0.22842,0.21793,0.11639,0.94165,782,0.924,0.335,0.089,-0.122,0.244,0.366,74.652,-69.516,135.461,-28.88,-18.273,1.707,31.45,-0.07193,0.60846,0.28891,0.73553,780
195,0.976,0.135,0.26,0.061,0.0,0.0,27.175,-73.246,145.212,-25.113,-15.013,-8.46,29.46,0.10016,0.60922,0.00583,0.78656,777,0.595,0.231,0.768,-0.671,0.122,0.183,16.694,-36.48,-144.564,-17.533,-14.567,-4.54,29.46,0.32886,-0.25302,-0.22562,-0.88138,779,0.357,0.32,0.873,-0.916,0.122,0.061,19.902,-20.934,149.205,-10.713,-16.16,-30.767,28.7,0.22842,0.21793,0.11639,0.94165,783,0.925,0.332,0.09,-0.122,0.244,0.427,74.636,-69.527,135.511,-28.88,-18.273,1.707,31.45,-0.07193,0.60846,0.28891,0.73553,781
196,0.975,0.135,0.26,0.061,0.061,0.0,27.18,-73.246,145.217,-25.087,-15.093,-9.107,29.46,0.10016,0.60922,0.00583,0.78656,786,0.595,0.227,0.77,-0.671,0.366,0.305,16.677,-36.48,-144.553,-17.533,-14.567,-4.54,29.46,0.32886,-0.25302,-0.22562,-0.88138,790,0.357,0.315,0.874,-0.793,0.488,0.183,19.885,-20.929,149.2,-10.713,-16.16,-30.767,28.7,0.22842,0.21793,0.11639,0.94165,788,0.925,0.328,0.09,-0.122,0.244,0.427,74.619,-69.532,135.555,-28.88,-18.273,1.707,31.45,-0.07193,0.60846,0.28891,0.73553,784
197,0.975,0.133,0.26,-0.122,0.061,0.0,27.18,-73.246,145.223,-25.087,-15.093,-9.107,29.46,0.10016,0.60922,0.00583,0.78656,787,0.594,0.223,0.771,-0.61,0.427,0.366,16.655,-36.475,-144.542,-17.533,-14.567,-4.54,29.46,0.32886,-0.25302,-0.22562,-0.88138,791,0.355,0.311,0.876,-0.854,0.854,0.244,19.869,-20.912,149.205,-10.713,-16.16,-30.767,28.7,0.22842,0.21793,0.11639,0.94165,789,0.925,0.328,0.09,-0.061,0.366,0.305,74.603,-69.538,135.604,-28.88,-18.273,1.707,31.45,-0.07193,0.60846,0.28891,0.73553,785
198,0.976,0.134,0.26,-0.122,0.0,0.0,27.18,-73.24,145.228,-25.087,-15.093,-9.107,29.46,0.09927,0.60968,0.00671,0.78632,792,0.592,0.222,0.773,-0.122,0.305,0.305,16.644,-36.469,-144.525,-17.533,-14.567,-4.54,29.46,0.32886,-0.25302,-0.22562,-0.88138,804,0.352,0.311,0.879,-0.549,0.854,0.366,19.852,-20.901,149.249,-10.713,-16.16,-30.767,28.7,0.22842,0.21793,0.11639,0.94165,796,0.925,0.33,0.092,0.0,0.366,0.122,74.581,-69.543,135.654,-28.88,-18.273,1.707,31.45,-0.07193,0.60846,0.28891,0.73553,794
199,0.977,0.134,0.26,0.0,-0.122,0.0,27.18,-73.246,145.228,-25.087,-15.093,-9.107,29.46,0.09927,0.60968,0.00671,0.78632,793,0.592,0.224,0.773,0.122,0.244,0.183,16.633,-36.469,-144.514,-17.533,-14.567,-4.54,29.46,0.32886,-0.25302,-0.22562,-0.88138,805,0.354,0.311,0.879,-0.122,0.244,0.427,19.847,-20.896,149.271,-10.713,-16.16,-30.767,28.7,0.22842,0.21793,0.11639,0.94165,797,0.924,0.329,0.092,0.0,0.244,0.0,74.564,-69.543,135.698,-28.88,-18.273,1.707,31.45,-0.07193,0.60846,0.28891,0.73553,795
200,0.977,0.135,0.261,0.061,-0.122,0.0,27.186,-73.246,145.228,-25.087,-15.093,-9.107,29.46,0.09927,0.60968,0.00671,0.78632,798,0.595,0.224,0.771,0.427,0.122,0.183,16.633,-36.464,-144.509,-17.533,-14.567,-4.54,29.46,0.32886,-0.25302,-0.22562,-0.88138,810,0.356,0.312,0.876,0.061,-0.122,0.427,19.841,-20.901,149.255,-10.407,-15.853,-31.427,28.7,0.22842,0.21793,0.11639,0.94165,806,0.926,0.328,0.09,0.0,0.122,-0.061,74.559,-69.543,135.736,-28.88,-18.273,1.707,31.45,-0.07193,0.60846,0.28891,0.73553,800
201,0.976,0.134,0.262,0.061,-0.061,0.0,27.191,-73.246,145.228,-25.087,-15.093,-9.107,29.46,0.09927,0.60968,0.00671,0.78632,799,0.596,0.228,0.771,0.183,0.183,0.061,16.633,-36.464,-144.503,-17.533,-14.567,-4.54,29.46,0.32886,-0.25302,-0.22562,-0.88138,811,0.357,0.315,0.875,0.0,0.122,0.061,19.841,-20.901,149.227,-10.407,-15.853,-31.427,28.7,0.22842,0.21793,0.11639,0.94165,807,0.926,0.332,0.089,0.0,0.122,0.0,74.553,-69.543,135.769,-28.88,-18.273,1.707,31.45,-0.07193,0.60846,0.28891,0.73553,801
202,0.976,0.135,0.261,0.061,0.0,0.0,27.197,-73.251,145.234,-25.087,-15.093,-9.107,29.46,0.09927,0.60968,0.00671,0.78632,802,0.594,0.23,0.771,0.0,0.305,-0.122,16.633,-36.458,-144.498,-17.66,-14.427,-4.213,29.46,0.32886,-0.25302,-0.22562,-0.88138,820,0.354,0.318,0.876,-0.061,0.671,-0.183,19.836,-20.891,149.205,-10.407,-15.853,-31.427,28.7,0.22842,0.21793,0.11639,0.94165,814,0.925,0.333,0.089,-0.061,0.183,-0.061,74.548,-69.543,135.802,-28.88,-18.273,1.707,31.45,-0.07193,0.60846,0.28891,0.73553,808
203,0.977,0.136,0.26,0.0,-0.061,0.0,27.202,-73.251,145.234,-25.087,-15.093,-9.107,29.46,0.09927,0.60968,0.00671,0.78632,803,0.59,0.231,0.773,-0.244,0.183,-0.122,16.628,-36.453,-144.498,-17.66,-14.427,-4.213,29.46,0.32886,-0.25302,-0.22562,-0.88138,821,0.35,0.32,0.878,-0.305,0.61,-0.122,19.83,-20.88,149.178,-10.407,-15.853,-31.427,28.7,0.22842,0.21793,0.11639,0.94165,815,0.922,0.332,0.091,-0.122,0.244,0.0,74.542,-69.543,135.835,-28.88,-18.273,1.707,31.45,-0.07193,0.60846,0.28891,0.73553,809
204,0.976,0.135,0.26,0.0,-0.061,0.0,27.202,-73.251,145.239,-25.087,-15.093,-9.107,29.46,0.09927,0.60968,0.00671,0.78632,812,0.591,0.23,0.773,-0.305,0.122,0.061,16.622,-36.453,-144.498,-17.66,-14.427,-4.213,29.46,0.32886,-0.25302,-0.22562,-0.88138,824,0.353,0.318,0.878,-0.427,0.427,0.0,19.825,-20.869,149.145,-10.407,-15.853,-31.427,28.7,0.22726,0.2171,0.11584,0.94217,818,0.923,0.33,0.092,-0.061,0.183,0.0,74.531,-69.543,135.873,-28.88,-18.273,1.707,31.45,-0.07193,0.60846,0.28891,0.73553,816
205,0.976,0.135,0.26,0.061,0.0,0.0,27.208,-73.251,145.239,-25.087,-15.093,-9.107,29.46,0.09927,0.60968,0.00671,0.78632,813,0.594,0.228,0.772,-0.305,0.0,0.122,16.611,-36.447,-144.492,-17.66,-14.427,-4.213,29.46,0.32886,-0.25302,-0.22562,-0.88138,825,0.354,0.314,0.876,-0.549,0.122,0.0,19.814,-20.863,149.117,-10.407,-15.853,-31.427,28.7,0.22726,0.2171,0.11584,0.94217,819,0.924,0.331,0.092,-0.061,0.122,0.122,74.52,-69.543,135.906,-28.88,-18.273,1.707,31.45,-0.07193,0.60846,0.28891,0.73553,817
206,0.975,0.134,0.262,0.122,0.0,0.0,27.213,-73.251,145.245,-25.087,-15.093,-9.107,29.46,0.09927,0.60968,0.00671,0.78632,822,0.594,0.226,0.771,-0.366,0.0,0.0,16.606,-36.447,-144.487,-17.66,-14.427,-4.213,29.46,0.32886,-0.25302,-0.22562,-0.88138,830,0.354,0.315,0.875,-0.61,0.183,0.0,19.803,-20.863,149.09,-10.407,-15.853,-31.427,28.7,0.22726,0.2171,0.11584,0.94217,832,0.925,0.331,0.09,-0.183,0.061,0.061,74.515,-69.543,135.939,-29.253,-17.847,1.013,31.45,-0.07193,0.60846,0.28891,0.73553,826
207,0.977,0.135,0.261,-0.244,0.0,0.0,27.213,-73.251,145.245,-25.087,-15.093,-9.107,29.46,0.09927,0.60968,0.00671,0.78632,823,0.59,0.226,0.771,-0.305,0.061,0.061,16.595,-36.447,-144.481,-17.66,-14.427,-4.213,29.46,0.32886,-0.25302,-0.22562,-0.88138,831,0.351,0.314,0.877,-0.488,0.488,0.122,19.792,-20.852,149.062,-10.407,-15.853,-31.427,28.7,0.22726,0.2171,0.11584,0.94217,833,0.923,0.33,0.09,-0.183,0.122,0.0,74.509,-69.549,135.967,-29.253,-17.847,1.013,31.45,-0.07193,0.60846,0.28891,0.73553,827
208,0.978,0.135,0.261,-0.549,0.0,0.0,27.208,-73.251,145.25,-25.087,-15.093,-9.107,29.46,0.09927,0.60968,0.00671,0.78632,828,0.591,0.225,0.774,-0.061,0.0,0.061,16.589,-36.447,-144.481,-17.66,-14.427,-4.213,29.46,0.32962,-0.2529,-0.22488,-0.88132,836,0.351,0.313,0.88,-0.488,0.427,0.244,19.775,-20.847,149.041,-10.407,-15.853,-31.427,28.7,0.22726,0.2171,0.11584,0.94217,838,0.922,0.331,0.092,-0.244,0.061,0.0,74.498,-69.549,135.994,-29.253,-17.847,1.013,31.45,-0.07513,0.60718,0.29089,0.7355,834
209,0.977,0.137,0.26,-0.427,0.244,0.0,27.197,-73.251,145.256,-25.087,-15.093,-9.107,29.46,0.09927,0.60968,0.00671,0.78632,829,0.593,0.227,0.774,0.061,-0.122,0.0,16.584,-36.447,-144.476,-17.66,-14.427,-4.213,29.46,0.32962,-0.2529,-0.22488,-0.88132,837,0.353,0.312,0.879,-0.061,0.0,0.061,19.775,-20.841,149.019,-10.407,-15.853,-31.427,28.7,0.22726,0.2171,0.11584,0.94217,839,0.925,0.334,0.091,-0.488,-0.122,0.0,74.498,-69.549,136.016,-29.253,-17.847,1.013,31.45,-0.07513,0.60718,0.29089,0.7355,835
210,0.975,0.135,0.261,-0.244,0.305,0.0,27.186,-73.246,145.267,-25.087,-15.093,-9.107,29.46,0.09927,0.60968,0.00671,0.78632,840,0.594,0.229,0.774,0.122,-0.244,-0.305,16.589,-36.447,-144.481,-17.66,-14.427,-4.213,29.46,0.32962,-0.2529,-0.22488,-0.88132,850,0.354,0.316,0.878,0.183,-0.488,-0.244,19.775,-20.847,148.98,-10.407,-15.853,-31.427,28.7,0.22726,0.2171,0.11584,0.94217,842,0.926,0.332,0.092,-0.671,-0.244,0.061,74.498,-69.549,136.033,-29.253,-17.847,1.013,31.45,-0.07513,0.60718,0.29089,0.7355,844
211,0.975,0.135,0.261,-0.488,0.061,0.0,27.175,-73.24,145.278,-25.087,-15.093,-9.107,29.46,0.09927,0.60968,0.00671,0.78632,841,0.592,0.229,0.773,0.0,-0.183,-0.244,16.595,-36.453,-144.487,-17.66,-14.427,-4.213,29.46,0.32962,-0.2529,-0.22488,-0.88132,851,0.353,0.318,0.878,0.122,-0.305,-0.244,19.781,-20.852,148.947,-10.407,-15.853,-31.427,28.7,0.22726,0.2171,0.11584,0.94217,843,0.924,0.331,0.091,-0.671,-0.244,0.0,74.498,-69.554,136.044,-29.253,-17.847,1.013,31.45,-0.07513,0.60718,0.29089,0.7355,845
212,0.974,0.136,0.261,-0.793,0.0,-0.366,27.175,-73.24,145.267,-24.94,-14.7,-8.267,29.46,0.09927,0.60968,0.00671,0.78632,846,0.593,0.229,0.772,0.061,-0.183,-0.122,16.595,-36.453,-144.492,-17.66,-14.427,-4.213,29.46,0.32962,-0.2529,-0.22488,-0.88132,856,0.355,0.318,0.877,0.0,-0.305,0.061,19.781,-20.858,148.914,-10.407,-15.853,-31.427,28.7,0.22726,0.2171,0.11584,0.94217,852,0.924,0.33,0.091,-0.549,-0.183,0.0,74.498,-69.554,136.055,-29.253,-17.847,1.013,31.45,-0.07513,0.60718,0.29089,0.7355,848
213,0.975,0.135,0.261,-0.732,0.0,-0.244,27.18,-73.235,145.256,-24.94,-14.7,-8.267,29.46,0.09927,0.60968,0.00671,0.78632,847,0.593,0.23,0.771,0.0,-0.122,-0.061,16.595,-36.453,-144.492,-17.66,-14.427,-4.213,29.46,0.32962,-0.2529,-0.22488,-0.88132,857,0.354,0.316,0.876,0.0,-0.488,0.061,19.786,-20.863,148.887,-10.407,-15.853,-31.427,28.7,0.22726,0.2171,0.11584,0.94217,853,0.925,0.331,0.09,-0.366,-0.122,0.0,74.498,-69.554,136.066,-29.253,-17.847,1.013,31.45,-0.07513,0.60718,0.29089,0.7355,849
214,0.975,0.134,0.26,-0.244,0.183,-0.122,27.18,-73.235,145.25,-24.94,-14.7,-8.267,29.46,0.09927,0.60968,0.00671,0.78632,854,0.595,0.229,0.771,0.0,-0.183,-0.122,16.595,-36.453,-144.492,-17.66,-14.427,-4.213,29.46,0.32962,-0.2529,-0.22488,-0.88132,860,0.356,0.315,0.873,0.183,-0.549,0.0,19.786,-20.874,148.854,-10.407,-15.853,-31.427,28.7,0.22726,0.2171,0.11584,0.94217,862,0.925,0.33,0.092,-0.122,-0.061,0.0,74.498,-69.554,136.082,-29.253,-17.847,1.013,31.45,-0.07513,0.60718,0.29089,0.7355,858
215,0.975,0.134,0.261,0.0,0.061,0.0,27.18,-73.229,145.25,-24.94,-14.7,-8.267,29.46,0.09927,0.60968,0.00671,0.78632,855,0.595,0.229,0.769,0.061,-0.061,-0.061,16.595,-36.453,-144.492,-17.66,-14.427,-4.213,29.46,0.32962,-0.2529,-0.22488,-0.88132,861,0.356,0.314,0.871,0.427,-0.488,-0.061,19.797,-20.88,148.826,-10.407,-15.853,-31.427,28.7,0.22726,0.2171,0.11584,0.94217,863,0.924,0.331,0.091,-0.122,0.0,0.0,74.498,-69.56,136.104,-29.253,-17.847,1.013,31.45,-0.07513,0.60718,0.29089,0.7355,859
216,0.972,0.136,0.263,-0.183,0.122,0.0,27.18,-73.229,145.256,-24.94,-14.7,-8.267,29.46,0.09915,0.60959,0.0069,0.78638,870,0.593,0.227,0.768,0.0,0.122,-0.122,16.595,-36.453,-144.492,-17.66,-14.427,-4.213,29.46,0.32962,-0.2529,-0.22488,-0.88132,864,0.355,0.312,0.872,0.427,0.122,-0.122,19.808,-20.88,148.793,-10.407,-15.853,-31.427,28.7,0.22726,0.2171,0.11584,0.94217,866,0.923,0.331,0.091,-0.366,0.122,0.0,74.493,-69.56,136.132,-29.253,-17.847,1.013,31.45,-0.07513,0.60718,0.29089,0.7355,868
217,0.972,0.136,0.261,-0.549,0.244,-0.061,27.169,-73.224,145.261,-24.94,-14.7,-8.267,29.46,0.09915,0.60959,0.0069,0.78638,871,0.594,0.227,0.771,0.122,0.244,-0.244,16.6,-36.447,-144.498,-17.66,-14.427,-4.213,29.46,0.32962,-0.2529,-0.22488,-0.88132,865,0.354,0.316,0.879,0.671,0.122,-0.305,19.819,-20.874,148.766,-10.407,-15.853,-31.427,28.7,0.22726,0.2171,0.11584,0.94217,867,0.925,0.331,0.091,-0.488,0.122,0.0,74.476,-69.56,136.159,-29.253,-17.847,1.013,31.45,-0.07513,0.60718,0.29089,0.7355,869
218,0.977,0.136,0.26,-0.671,0.122,-0.061,27.158,-73.218,145.267,-24.94,-14.7,-8.267,29.46,0.09915,0.60959,0.0069,0.78638,874,0.596,0.228,0.773,0.183,0.061,-0.183,16.606,-36.442,-144.498,-17.66,-14.427,-4.213,29.46,0.32962,-0.2529,-0.22488,-0.88132,872,0.356,0.319,0.879,0.427,0.0,-0.061,19.83,-20.874,148.738,-10.407,-15.853,-31.427,28.7,0.22726,0.2171,0.11584,0.94217,876,0.927,0.33,0.09,-0.244,0.122,-0.061,74.465,-69.56,136.187,-29.253,-17.847,1.013,31.45,-0.07513,0.60718,0.29089,0.7355,878
219,0.979,0.137,0.26,-0.366,0.061,0.0,27.153,-73.218,145.272,-24.94,-14.7,-8.267,29.46,0.09915,0.60959,0.0069,0.78638,875,0.595,0.231,0.773,0.305,-0.061,0.0,16.606,-36.442,-144.498,-17.66,-14.427,-4.213,29.46,0.32962,-0.2529,-0.22488,-0.88132,873,0.355,0.32,0.877,0.671,-0.854,0.122,19.847,-20.885,148.705,-10.407,-15.853,-31.427,28.7,0.22726,0.2171,0.11584,0.94217,877,0.927,0.33,0.09,0.061,0.122,-0.183,74.465,-69.554,136.208,-29.253,-17.847,1.013,31.45,-0.07513,0.60718,0.29089,0.7355,879
220,0.979,0.136,0.262,0.122,0.0,0.122,27.147,-73.218,145.278,-24.94,-14.7,-8.267,29.46,0.09915,0.60959,0.0069,0.78638,880,0.594,0.228,0.773,0.244,0.0,0.122,16.611,-36.442,-144.492,-17.66,-14.427,-4.213,29.46,0.32962,-0.2529,-0.22488,-0.88132,886,0.354,0.318,0.877,0.305,-0.732,0.427,19.852,-20.901,148.683,-10.193,-16.053,-31.433,28.7,0.22726,0.2171,0.11584,0.94217,888,0.926,0.33,0.091,0.183,0.183,-0.244,74.465,-69.549,136.236,-29.007,-17.82,0.527,31.45,-0.07513,0.60718,0.29089,0.7355,882
221,0.977,0.133,0.26,0.122,0.122,0.122,27.147,-73.218,145.294,-24.94,-14.7,-8.267,29.46,0.09915,0.60959,0.0069,0.78638,881,0.593,0.23,0.772,0.183,0.061,0.244,16.611,-36.442,-144.487,-17.66,-14.427,-4.213,29.46,0.32962,-0.2529,-0.22488,-0.88132,887,0.355,0.318,0.878,0.427,-0.671,0.305,19.863,-20.918,148.661,-10.193,-16.053,-31.433,28.7,0.22726,0.2171,0.11584,0.94217,889,0.924,0.33,0.09,0.122,0.122,-0.122,74.46,-69.549,136.263,-29.007,-17.82,0.527,31.45,-0.07513,0.60718,0.29089,0.7355,883
222,0.974,0.134,0.26,-0.183,0.0,0.061,27.142,-73.218,145.3,-24.94,-14.7,-8.267,29.46,0.09915,0.60959,0.0069,0.78638,884,0.593,0.229,0.772,0.366,0.0,0.305,16.611,-36.442,-144.476,-17.66,-14.427,-4.213,29.46,0.32962,-0.2529,-0.22488,-0.88132,896,0.355,0.317,0.877,0.549,-1.099,0.488,19.869,-20.934,148.64,-10.193,-16.053,-31.433,28.7,0.23154,0.21811,0.11499,0.94101,892,0.923,0.331,0.091,0.122,0.122,0.0,74.46,-69.549,136.285,-29.007,-17.82,0.527,31.45,-0.07687,0.60645,0.29221,0.73541,890
223,0.974,0.134,0.26,-0.244,-0.122,0.061,27.142,-73.218,145.305,-24.94,-14.7,-8.267,29.46,0.09915,0.60959,0.0069,0.78638,885,0.591,0.228,0.77,0.366,0.0,0.244,16.611,-36.447,-144.47,-17.66,-14.427,-4.213,29.46,0.32962,-0.2529,-0.22488,-0.88132,897,0.354,0.315,0.874,0.549,-1.343,0.427,19.88,-20.962,148.64,-10.193,-16.053,-31.433,28.7,0.23154,0.21811,0.11499,0.94101,893,0.922,0.331,0.092,0.183,0.061,0.0,74.46,-69.549,136.313,-29.007,-17.82,0.527,31.45,-0.07687,0.60645,0.29221,0.73541,891
224,0.975,0.135,0.261,-0.122,0.305,0.061,27.131,-73.218,145.316,-24.94,-14.7,-8.267,29.46,0.09915,0.60959,0.0069,0.78638,894,0.59,0.227,0.77,0.244,0.122,0.183,16.611,-36.442,-144.465,-17.66,-14.427,-4.213,29.46,0.32962,-0.2529,-0.22488,-0.88132,902,0.355,0.317,0.872,0.549,-1.038,0.366,19.891,-20.984,148.645,-10.193,-16.053,-31.433,28.7,0.23154,0.21811,0.11499,0.94101,900,0.922,0.33,0.093,0.122,0.061,0.0,74.46,-69.549,136.335,-29.007,-17.82,0.527,31.45,-0.07687,0.60645,0.29221,0.73541,898
225,0.974,0.135,0.264,-0.061,0.244,0.061,27.12,-73.213,145.333,-24.94,-14.7,-8.267,29.46,0.09915,0.60959,0.0069,0.78638,895,0.592,0.229,0.77,0.122,0.244,0.244,16.611,-36.442,-144.454,-17.66,-14.427,-4.213,29.46,0.32962,-0.2529,-0.22488,-0.88132,903,0.356,0.318,0.874,0.366,-0.671,0.427,19.902,-21.0,148.678,-10.193,-16.053,-31.433,28.7,0.23154,0.21811,0.11499,0.94101,901,0.923,0.332,0.093,0.0,0.061,0.0,74.46,-69.549,136.357,-29.007,-17.82,0.527,31.45,-0.07687,0.60645,0.29221,0.73541,899
226,0.975,0.135,0.262,-0.244,0.122,0.0,27.114,-73.213,145.344,-24.94,-14.7,-8.267,29.46,0.09915,0.60959,0.0069,0.78638,908,0.594,0.23,0.771,0.061,0.183,0.122,16.611,-36.436,-144.448,-17.207,-14.393,-4.32,29.46,0.32962,-0.2529,-0.22488,-0.88132,910,0.359,0.32,0.874,0.305,-0.732,0.244,19.907,-21.017,148.716,-10.193,-16.053,-31.433,28.7,0.23154,0.21811,0.11499,0.94101,906,0.925,0.333,0.091,-0.061,0.183,0.0,74.454,-69.549,136.384,-29.007,-17.82,0.527,31.45,-0.07687,0.60645,0.29221,0.73541,904
227,0.976,0.136,0.261,-0.366,0.183,0.0,27.109,-73.207,145.349,-24.94,-14.7,-8.267,29.46,0.09915,0.60959,0.0069,0.78638,909,0.593,0.23,0.771,0.183,0.061,0.183,16.606,-36.436,-144.443,-17.207,-14.393,-4.32,29.46,0.32962,-0.2529,-0.22488,-0.88132,911,0.356,0.321,0.874,0.305,-0.916,0.488,19.913,-21.033,148.744,-10.193,-16.053,-31.433,28.7,0.23154,0.21811,0.11499,0.94101,907,0.926,0.33,0.09,-0.122,0.183,0.0,74.443,-69.549,136.412,-29.007,-17.82,0.527,31.45,-0.07687,0.60645,0.29221,0.73541,905
228,0.976,0.136,0.263,-0.183,0.366,0.061,27.092,-73.202,145.36,-24.973,-15.34,-9.133,29.46,0.09915,0.60959,0.0069,0.78638,912,0.594,0.227,0.772,0.488,0.122,0.671,16.606,-36.436,-144.426,-17.207,-14.393,-4.32,29.46,0.32962,-0.2529,-0.22488,-0.88132,920,0.356,0.319,0.874,0.122,-0.244,1.16,19.913,-21.044,148.788,-10.193,-16.053,-31.433,28.7,0.23154,0.21811,0.11499,0.94101,914,0.926,0.325,0.093,0.122,0.244,0.0,74.432,-69.549,136.445,-29.007,-17.82,0.527,31.45,-0.07687,0.60645,0.29221,0.73541,916
229,0.976,0.132,0.264,0.0,0.732,0.183,27.07,-73.196,145.388,-24.973,-15.34,-9.133,29.46,0.09915,0.60959,0.0069,0.78638,913,0.594,0.229,0.772,0.427,0.183,0.977,16.6,-36.436,-144.404,-17.207,-14.393,-4.32,29.46,0.32962,-0.2529,-0.22488,-0.88132,921,0.358,0.319,0.878,0.0,-0.183,1.343,19.902,-21.055,148.837,-10.193,-16.053,-31.433,28.7,0.23154,0.21811,0.11499,0.94101,915,0.925,0.328,0.092,0.549,0.183,0.0,74.432,-69.549,136.472,-29.007,-17.82,0.527,31.45,-0.07687,0.60645,0.29221,0.73541,917
230,0.975,0.134,0.264,0.0,0.61,0.183,27.043,-73.185,145.426,-24.973,-15.34,-9.133,29.46,0.09915,0.60959,0.0069,0.78638,922,0.596,0.231,0.771,0.366,0.061,0.977,16.595,-36.442,-144.377,-17.207,-14.393,-4.32,29.46,0.33044,-0.25266,-0.22513,-0.88101,928,0.361,0.318,0.875,0.0,-0.977,1.343,19.896,-21.077,148.887,-10.193,-16.053,-31.433,28.7,0.23154,0.21811,0.11499,0.94101,924,0.926,0.336,0.091,0.549,0.244,0.0,74.427,-69.549,136.505,-29.007,-17.82,0.527,31.45,-0.07687,0.60645,0.29221,0.73541,918
231,0.975,0.137,0.263,0.0,0.427,0.122,27.021,-73.174,145.453,-24.973,-15.34,-9.133,29.46,0.09915,0.60959,0.0069,0.78638,923,0.595,0.23,0.771,0.366,0.061,0.61,16.589,-36.442,-144.355,-17.207,-14.393,-4.32,29.46,0.33044,-0.25266,-0.22513,-0.88101,929,0.361,0.315,0.873,0.0,-0.916,0.977,19.891,-21.105,148.958,-10.193,-16.053,-31.433,28.7,0.23154,0.21811,0.11499,0.94101,925,0.926,0.336,0.09,0.183,0.183,0.0,74.427,-69.549,136.533,-29.007,-17.82,0.527,31.45,-0.07687,0.60645,0.29221,0.73541,919
232,0.976,0.136,0.262,-0.061,0.244,0.122,27.004,-73.174,145.475,-24.973,-15.34,-9.133,29.46,0.09875,0.60907,0.00705,0.78683,926,0.595,0.229,0.77,0.427,0.061,0.366,16.595,-36.447,-144.344,-17.207,-14.393,-4.32,29.46,0.33044,-0.25266,-0.22513,-0.88101,934,0.36,0.317,0.872,0.488,-0.305,0.488,19.896,-21.116,149.046,-10.193,-16.053,-31.433,28.7,0.23154,0.21811,0.11499,0.94101,932,0.925,0.334,0.09,0.0,0.244,0.0,74.416,-69.549,136.566,-29.007,-17.82,0.527,31.45,-0.07687,0.60645,0.29221,0.73541,930
233,0.976,0.135,0.262,-0.305,0.244,0.244,26.988,-73.169,145.492,-24.973,-15.34,-9.133,29.46,0.09875,0.60907,0.00705,0.78683,927,0.594,0.229,0.771,0.244,0.122,0.305,16.595,-36.442,-144.333,-17.207,-14.393,-4.32,29.46,0.33044,-0.25266,-0.22513,-0.88101,935,0.36,0.318,0.874,0.488,0.183,0.488,19.907,-21.116,149.095,-10.193,-16.053,-31.433,28.7,0.23154,0.21811,0.11499,0.94101,933,0.924,0.33,0.091,-0.061,0.244,0.0,74.405,-69.549,136.599,-29.007,-17.82,0.527,31.45,-0.07687,0.60645,0.29221,0.73541,931
234,0.975,0.136,0.261,-0.061,0.488,0.244,26.96,-73.163,145.525,-24.973,-15.34,-9.133,29.46,0.09875,0.60907,0.00705,0.78683,936,0.596,0.228,0.771,0.122,0.061,0.366,16.589,-36.447,-144.327,-17.207,-14.393,-4.32,29.46,0.33044,-0.25266,-0.22513,-0.88101,944,0.361,0.313,0.875,0.122,0.061,0.488,19.902,-21.116,149.156,-10.193,-16.053,-31.433,28.7,0.23154,0.21811,0.11499,0.94101,940,0.925,0.331,0.089,-0.183,0.183,0.0,74.394,-69.549,136.626,-29.007,-17.82,0.527,31.45,-0.07687,0.60645,0.29221,0.73541,938
235,0.976,0.136,0.261,0.0,0.366,0.122,26.938,-73.158,145.552,-24.973,-15.34,-9.133,29.46,0.09875,0.60907,0.00705,0.78683,937,0.595,0.226,0.771,-0.061,0.0,0.122,16.584,-36.447,-144.316,-17.207,-14.393,-4.32,29.46,0.33044,-0.25266,-0.22513,-0.88101,945,0.36,0.314,0.874,-0.122,-0.671,0.305,19.902,-21.132,149.183,-10.193,-16.053,-31.433,28.7,0.23154,0.21811,0.11499,0.94101,941,0.925,0.333,0.089,-0.244,0.244,0.0,74.383,-69.549,136.653,-29.007,-17.82,0.527,31.45,-0.07687,0.60645,0.29221,0.73541,939
236,0.978,0.136,0.261,-0.305,0.183,0.0,26.933,-73.152,145.563,-24.973,-15.34,-9.133,29.46,0.09875,0.60907,0.00705,0.78683,942,0.594,0.227,0.771,-0.061,0.0,0.0,16.584,-36.447,-144.316,-17.207,-14.393,-4.32,29.46,0.33044,-0.25266,-0.22513,-0.88101,952,0.36,0.315,0.873,0.122,-0.61,0.122,19.907,-21.143,149.178,-10.34,-16.1,-31.047,28.7,0.23154,0.21811,0.11499,0.94101,946,0.924,0.332,0.09,-0.305,0.244,0.0,74.366,-69.543,136.686,-29.06,-18.1,0.38,31.45,-0.07687,0.60645,0.29221,0.73541,948
237,0.977,0.136,0.262,-0.427,0.244,0.0,26.922,-73.152,145.574,-24.973,-15.34,-9.133,29.46,0.09875,0.60907,0.00705,0.78683,943,0.595,0.227,0.771,0.0,0.0,0.0,16.584,-36.447,-144.316,-17.207,-14.393,-4.32,29.46,0.33044,-0.25266,-0.22513,-0.88101,953,0.361,0.316,0.874,0.488,-0.061,0.0,19.913,-21.143,149.178,-10.34,-16.1,-31.047,28.7,0.23154,0.21811,0.11499,0.94101,947,0.925,0.331,0.091,-0.244,0.183,0.0,74.355,-69.543,136.714,-29.06,-18.1,0.38,31.45,-0.07687,0.60645,0.29221,0.73541,949
238,0.975,0.135,0.261,-0.244,0.366,0.0,26.911,-73.147,145.585,-24.973,-15.34,-9.133,29.46,0.09875,0.60907,0.00705,0.78683,950,0.594,0.227,0.771,0.122,0.0,0.0,16.584,-36.447,-144.316,-17.207,-14.393,-4.32,29.46,0.33044,-0.25266,-0.22513,-0.88101,954,0.359,0.316,0.875,0.549,0.0,0.0,19.924,-21.143,149.161,-10.34,-16.1,-31.047,28.7,0.23154,0.21811,0.11499,0.94101,956,0.924,0.331,0.09,-0.061,0.122,0.0,74.355,-69.543,136.736,-29.06,-18.1,0.38,31.45,-0.0791,0.60538,0.29388,0.73538,958
