Index,L5_Acceleration X(g),L5_Acceleration Y(g),L5_Acceleration Z(g),L5_Angular velocity X(°/s),L5_Angular velocity Y(°/s),L5_Angular velocity Z(°/s),L5_Angle X(°),L5_Angle Y(°),L5_Angle Z(°),L5_Magnetic field X(ʯt),L5_Magnetic field Y(ʯt),L5_Magnetic field Z(ʯt),L5_Temperature(℃),L5_Quaternions 0(),L5_Quaternions 1(),L5_Quaternions 2(),L5_Quaternions 3(),L5___orig_idx,T4_Acceleration X(g),T4_Acceleration Y(g),T4_Acceleration Z(g),T4_Angular velocity X(°/s),T4_Angular velocity Y(°/s),T4_Angular velocity Z(°/s),T4_Angle X(°),T4_Angle Y(°),T4_Angle Z(°),T4_Magnetic field X(ʯt),T4_Magnetic field Y(ʯt),T4_Magnetic field Z(ʯt),T4_Temperature(℃),T4_Quaternions 0(),T4_Quaternions 1(),T4_Quaternions 2(),T4_Quaternions 3(),T4___orig_idx,C7_Acceleration X(g),C7_Acceleration Y(g),C7_Acceleration Z(g),C7_Angular velocity X(°/s),C7_Angular velocity Y(°/s),C7_Angular velocity Z(°/s),C7_Angle X(°),C7_Angle Y(°),C7_Angle Z(°),C7_Magnetic field X(ʯt),C7_Magnetic field Y(ʯt),C7_Magnetic field Z(ʯt),C7_Temperature(℃),C7_Quaternions 0(),C7_Quaternions 1(),C7_Quaternions 2(),C7_Quaternions 3(),C7___orig_idx,T12_Acceleration X(g),T12_Acceleration Y(g),T12_Acceleration Z(g),T12_Angular velocity X(°/s),T12_Angular velocity Y(°/s),T12_Angular velocity Z(°/s),T12_Angle X(°),T12_Angle Y(°),T12_Angle Z(°),T12_Magnetic field X(ʯt),T12_Magnetic field Y(ʯt),T12_Magnetic field Z(ʯt),T12_Temperature(℃),T12_Quaternions 0(),T12_Quaternions 1(),T12_Quaternions 2(),T12_Quaternions 3(),T12___orig_idx
0,0.996,0.185,0.074,-0.061,0.0,0.0,67.934,-78.668,92.681,-24.047,-8.58,-2.867,27.3,-0.18631,-0.67862,0.05011,-0.70862,2,0.649,0.194,0.737,-0.061,0.0,-0.122,14.837,-40.627,-119.564,-21.98,-9.387,1.247,24.03,-0.50674,0.23654,0.27792,0.78094,6,0.565,0.238,0.785,0.122,0.0,0.0,16.99,-34.645,173.562,-16.22,-12.627,-21.393,28.37,0.00967,0.30246,0.12473,0.94485,4,0.874,0.367,0.268,-0.183,0.122,0.0,53.811,-62.518,-160.62,-26.42,-13.693,1.9,29.79,0.35934,-0.39148,-0.45853,-0.71222,0
1,0.997,0.185,0.073,0.0,0.0,0.0,67.939,-78.668,92.675,-24.047,-8.58,-2.867,27.3,-0.18631,-0.67862,0.05011,-0.70862,3,0.649,0.193,0.736,0.122,0.0,0.0,14.837,-40.627,-119.564,-21.98,-9.387,1.247,24.03,-0.50674,0.23654,0.27792,0.78094,7,0.564,0.237,0.786,-0.122,0.305,-0.061,16.99,-34.64,173.633,-16.22,-12.627,-21.393,28.37,0.00967,0.30246,0.12473,0.94485,5,0.874,0.366,0.268,-0.061,0.061,0.0,53.811,-62.518,-160.615,-26.42,-13.693,1.9,29.79,0.35934,-0.39148,-0.45853,-0.71222,1
2,0.999,0.184,0.074,0.0,0.0,0.0,67.945,-78.668,92.664,-24.047,-8.58,-2.867,27.3,-0.18631,-0.67862,0.05011,-0.70862,8,0.65,0.192,0.736,0.305,-0.183,0.061,14.843,-40.627,-119.564,-21.98,-9.387,1.247,24.03,-0.50674,0.23654,0.27792,0.78094,10,0.567,0.238,0.786,0.061,0.427,-0.244,16.996,-34.634,173.71,-16.22,-12.627,-21.393,28.37,0.00967,0.30246,0.12473,0.94485,16,0.875,0.365,0.269,0.122,0.0,0.0,53.811,-62.518,-160.615,-26.42,-13.693,1.9,29.79,0.35977,-0.39099,-0.4592,-0.71185,12
3,0.998,0.184,0.074,0.122,-0.122,0.0,67.956,-78.668,92.653,-24.047,-8.58,-2.867,27.3,-0.18631,-0.67862,0.05011,-0.70862,9,0.65,0.192,0.737,0.427,-0.244,0.122,14.848,-40.633,-119.57,-21.98,-9.387,1.247,24.03,-0.50674,0.23654,0.27792,0.78094,11,0.571,0.242,0.784,-0.488,0.61,-0.061,16.99,-34.623,173.787,-16.22,-12.627,-21.393,28.37,0.00967,0.30246,0.12473,0.94485,17,0.875,0.366,0.269,0.305,0.0,0.0,53.817,-62.518,-160.615,-26.42,-13.693,1.9,29.79,0.35977,-0.39099,-0.4592,-0.71185,13
4,0.998,0.186,0.074,0.061,-0.183,0.0,67.978,-78.673,92.626,-24.473,-8.56,-3.173,27.3,-0.18631,-0.67862,0.05011,-0.70862,20,0.653,0.194,0.738,0.488,-0.244,0.122,14.854,-40.638,-119.564,-21.98,-9.387,1.247,24.03,-0.50674,0.23654,0.27792,0.78094,14,0.568,0.25,0.778,-4.211,0.305,0.671,16.935,-34.612,173.859,-16.467,-12.667,-21.427,28.37,0.00967,0.30246,0.12473,0.94485,24,0.876,0.368,0.269,0.305,-0.061,0.0,53.828,-62.518,-160.615,-26.42,-13.693,1.9,29.79,0.35977,-0.39099,-0.4592,-0.71185,18
5,0.998,0.186,0.074,0.0,-0.122,0.0,67.994,-78.673,92.604,-24.473,-8.56,-3.173,27.3,-0.18631,-0.67862,0.05011,-0.70862,21,0.655,0.195,0.734,0.549,-0.183,0.0,14.865,-40.638,-119.564,-21.98,-9.387,1.247,24.03,-0.50674,0.23654,0.27792,0.78094,15,0.563,0.238,0.788,-7.263,-1.038,1.282,16.815,-34.629,173.914,-16.467,-12.667,-21.427,28.37,0.00967,0.30246,0.12473,0.94485,25,0.876,0.369,0.269,0.244,-0.061,0.0,53.833,-62.518,-160.615,-26.42,-13.693,1.9,29.79,0.35977,-0.39099,-0.4592,-0.71185,19
6,0.997,0.186,0.072,-0.244,0.366,0.0,67.983,-78.673,92.609,-24.473,-8.56,-3.173,27.3,-0.18674,-0.67868,0.05038,-0.70844,28,0.653,0.194,0.732,0.549,0.0,-0.122,14.875,-40.644,-119.57,-21.98,-9.387,1.247,24.03,-0.50674,0.23654,0.27792,0.78094,22,0.576,0.237,0.795,-7.141,-0.366,0.244,16.666,-34.645,173.969,-16.467,-12.667,-21.427,28.37,0.00967,0.30246,0.12473,0.94485,32,0.875,0.368,0.265,0.244,0.0,0.0,53.844,-62.518,-160.615,-26.42,-13.693,1.9,29.79,0.35977,-0.39099,-0.4592,-0.71185,26
7,0.996,0.187,0.064,-0.549,2.258,0.0,67.857,-78.662,92.708,-24.473,-8.56,-3.173,27.3,-0.18674,-0.67868,0.05038,-0.70844,29,0.654,0.197,0.735,0.61,-0.305,-0.122,14.886,-40.644,-119.575,-21.98,-9.387,1.247,24.03,-0.50674,0.23654,0.27792,0.78094,23,0.57,0.23,0.794,-7.141,-3.418,-0.427,16.54,-34.678,174.007,-16.467,-12.667,-21.427,28.37,0.00967,0.30246,0.12473,0.94485,33,0.875,0.368,0.253,0.305,0.122,0.0,53.849,-62.518,-160.609,-26.42,-13.693,1.9,29.79,0.35977,-0.39099,-0.4592,-0.71185,27
8,1.002,0.191,0.072,-0.671,3.967,0.0,67.571,-78.64,92.928,-24.473,-8.56,-3.173,27.3,-0.18674,-0.67868,0.05038,-0.70844,36,0.658,0.197,0.742,0.977,-0.305,-0.366,14.903,-40.649,-119.581,-21.98,-9.387,1.247,24.03,-0.50674,0.23654,0.27792,0.78094,30,0.575,0.222,0.802,-6.775,-4.517,-0.854,16.43,-34.75,173.985,-16.467,-12.667,-21.427,28.37,0.00656,0.30185,0.12143,0.94553,38,0.876,0.374,0.237,1.77,0.305,0.0,53.877,-62.512,-160.631,-26.42,-13.693,1.9,29.87,0.35977,-0.39099,-0.4592,-0.71185,34
9,1.005,0.192,0.071,-0.61,4.272,0.549,67.192,-78.613,93.296,-24.473,-8.56,-3.173,27.3,-0.18674,-0.67868,0.05038,-0.70844,37,0.658,0.193,0.738,1.648,-0.427,-1.221,14.936,-40.649,-119.603,-21.98,-9.387,1.247,24.03,-0.50674,0.23654,0.27792,0.78094,31,0.579,0.228,0.802,-6.409,-4.089,-1.953,16.331,-34.821,173.979,-16.467,-12.667,-21.427,28.37,0.00656,0.30185,0.12143,0.94553,39,0.882,0.381,0.257,2.869,0.244,0.0,53.932,-62.512,-160.67,-26.42,-13.693,1.9,29.87,0.35977,-0.39099,-0.4592,-0.71185,35
10,1.006,0.19,0.071,-0.793,5.066,0.671,66.753,-78.585,93.807,-24.473,-8.56,-3.173,27.3,-0.18674,-0.67868,0.05038,-0.70844,42,0.662,0.197,0.742,2.625,-2.197,-2.075,15.002,-40.66,-119.663,-21.98,-9.387,1.247,24.03,-0.50674,0.23654,0.27792,0.78094,44,0.575,0.217,0.797,-6.47,-2.686,-2.93,16.254,-34.871,173.969,-16.467,-12.667,-21.427,28.37,0.00656,0.30185,0.12143,0.94553,46,0.885,0.379,0.25,3.357,0.793,0.0,53.992,-62.507,-160.692,-26.42,-13.693,1.9,29.87,0.35977,-0.39099,-0.4592,-0.71185,40
11,1.002,0.188,0.079,-0.244,5.005,0.427,66.297,-78.558,94.34,-24.473,-8.56,-3.173,27.3,-0.18674,-0.67868,0.05038,-0.70844,43,0.661,0.192,0.744,2.991,-3.54,-2.563,15.101,-40.693,-119.751,-21.98,-9.387,1.247,24.03,-0.50674,0.23654,0.27792,0.78094,45,0.566,0.236,0.785,-4.395,-2.991,-3.357,16.199,-34.904,173.919,-16.467,-12.667,-21.427,28.37,0.00656,0.30185,0.12143,0.94553,47,0.884,0.376,0.261,4.333,0.671,0.0,54.064,-62.501,-160.681,-26.42,-13.693,1.9,29.87,0.35977,-0.39099,-0.4592,-0.71185,41
12,0.997,0.186,0.083,0.305,4.395,0.061,65.896,-78.525,94.724,-24.473,-8.56,-3.173,27.3,-0.18674,-0.67868,0.05038,-0.70844,52,0.66,0.197,0.738,3.418,-5.31,-3.052,15.222,-40.759,-119.855,-21.98,-9.387,1.247,24.03,-0.50674,0.23654,0.27792,0.78094,48,0.562,0.24,0.786,-4.639,-2.991,-3.967,16.172,-34.942,173.842,-16.467,-12.667,-21.427,28.37,0.00656,0.30185,0.12143,0.94553,54,0.88,0.376,0.278,3.296,0.854,0.0,54.124,-62.496,-160.664,-26.42,-13.693,1.9,29.87,0.35977,-0.39099,-0.4592,-0.71185,50
13,0.993,0.185,0.081,0.549,3.662,0.061,65.572,-78.492,95.004,-24.473,-8.56,-3.173,27.3,-0.18674,-0.67868,0.05038,-0.70844,53,0.654,0.211,0.733,3.845,-5.066,-3.296,15.359,-40.842,-119.987,-21.98,-9.387,1.247,24.03,-0.50674,0.23654,0.27792,0.78094,49,0.562,0.243,0.78,-4.7,-1.892,-4.089,16.144,-34.964,173.732,-16.467,-12.667,-21.427,28.37,0.00656,0.30185,0.12143,0.94553,55,0.874,0.376,0.275,2.258,0.854,0.0,54.157,-62.485,-160.653,-26.42,-13.693,1.9,29.87,0.35977,-0.39099,-0.4592,-0.71185,51
14,0.991,0.184,0.085,0.732,2.869,0.244,65.314,-78.47,95.229,-24.473,-8.56,-3.173,27.3,-0.18674,-0.67868,0.05038,-0.70844,60,0.648,0.216,0.732,4.578,-5.31,-3.174,15.518,-40.919,-120.119,-21.98,-9.387,1.247,24.03,-0.50674,0.23654,0.27792,0.78094,58,0.553,0.235,0.78,-6.287,-2.319,-3.906,16.1,-34.975,173.65,-16.467,-12.667,-21.427,28.37,0.00656,0.30185,0.12143,0.94553,62,0.869,0.374,0.274,0.793,0.61,0.0,54.168,-62.474,-160.67,-26.42,-13.693,1.9,29.87,0.35977,-0.39099,-0.4592,-0.71185,56
15,0.988,0.185,0.086,0.854,1.831,0.549,65.132,-78.459,95.405,-24.473,-8.56,-3.173,27.3,-0.18674,-0.67868,0.05038,-0.70844,61,0.647,0.218,0.73,5.249,-4.944,-2.502,15.683,-41.001,-120.223,-21.98,-9.387,1.247,24.03,-0.50674,0.23654,0.27792,0.78094,59,0.554,0.227,0.779,-3.784,-2.075,-3.54,16.068,-34.991,173.568,-16.467,-12.667,-21.427,28.37,0.00656,0.30185,0.12143,0.94553,63,0.865,0.368,0.277,0.122,0.366,0.366,54.157,-62.474,-160.686,-26.42,-13.693,1.9,29.87,0.35977,-0.39099,-0.4592,-0.71185,57
16,0.989,0.182,0.091,0.732,0.977,0.671,65.017,-78.459,95.57,-24.473,-8.56,-3.173,27.3,-0.18674,-0.67868,0.05038,-0.70844,68,0.642,0.214,0.725,5.005,-4.761,-1.648,15.842,-41.078,-120.317,-22.507,-9.32,1.107,24.03,-0.50674,0.23654,0.27792,0.78094,64,0.567,0.23,0.779,-1.648,-1.892,-2.747,16.068,-35.008,173.551,-16.467,-12.667,-21.427,28.37,0.00656,0.30185,0.12143,0.94553,72,0.864,0.365,0.275,-0.244,0.061,0.671,54.135,-62.479,-160.714,-26.42,-13.693,1.9,29.87,0.35977,-0.39099,-0.4592,-0.71185,66
17,0.995,0.181,0.092,0.366,0.305,0.793,64.957,-78.47,95.663,-24.473,-8.56,-3.173,27.3,-0.18674,-0.67868,0.05038,-0.70844,69,0.648,0.212,0.725,4.517,-3.967,-0.916,15.974,-41.149,-120.388,-22.507,-9.32,1.107,24.03,-0.50674,0.23654,0.27792,0.78094,65,0.575,0.227,0.776,-2.625,-2.502,-1.526,16.068,-35.035,173.535,-16.467,-12.667,-21.427,28.37,0.00656,0.30185,0.12143,0.94553,73,0.867,0.364,0.276,-0.488,-0.122,0.732,54.113,-62.49,-160.741,-26.42,-13.693,1.9,29.87,0.35977,-0.39099,-0.4592,-0.71185,67
18,1.0,0.181,0.093,0.061,-0.244,0.793,64.935,-78.481,95.751,-24.453,-8.247,-3.373,27.3,-0.18674,-0.67868,0.05038,-0.70844,76,0.658,0.212,0.721,3.845,-2.686,-0.427,16.084,-41.199,-120.438,-22.507,-9.32,1.107,24.03,-0.50674,0.23654,0.27792,0.78094,70,0.579,0.22,0.772,-1.465,-2.014,-1.526,16.062,-35.063,173.48,-16.467,-12.667,-21.427,28.37,0.00656,0.30185,0.12143,0.94553,78,0.875,0.365,0.279,-0.671,-0.122,0.732,54.08,-62.501,-160.741,-26.42,-13.693,1.9,29.87,0.35977,-0.39099,-0.4592,-0.71185,74
19,1.002,0.181,0.092,-0.305,-0.488,0.671,64.935,-78.497,95.773,-24.453,-8.247,-3.373,27.3,-0.18674,-0.67868,0.05038,-0.70844,77,0.665,0.209,0.72,3.296,-1.404,-0.244,16.166,-41.232,-120.476,-22.507,-9.32,1.107,24.03,-0.50674,0.23654,0.27792,0.78094,71,0.578,0.223,0.776,-1.099,-1.953,-1.77,16.068,-35.09,173.414,-16.467,-12.667,-21.427,28.37,0.00656,0.30185,0.12143,0.94553,79,0.88,0.366,0.277,-1.343,0.0,0.671,54.036,-62.507,-160.73,-26.42,-13.693,1.9,29.87,0.35977,-0.39099,-0.4592,-0.71185,75
20,1.002,0.183,0.088,-0.549,-0.366,0.427,64.94,-78.514,95.768,-24.453,-8.247,-3.373,27.3,-0.18674,-0.67868,0.05038,-0.70844,82,0.667,0.209,0.718,2.625,-0.061,-0.244,16.232,-41.237,-120.509,-22.507,-9.32,1.107,24.03,-0.50293,0.23727,0.28729,0.77982,86,0.588,0.22,0.78,-0.366,-1.892,-1.221,16.084,-35.118,173.397,-16.467,-12.667,-21.427,28.37,0.00656,0.30185,0.12143,0.94553,84,0.882,0.365,0.274,-2.197,0.244,0.671,53.97,-62.512,-160.714,-26.42,-13.693,1.9,29.87,0.35977,-0.39099,-0.4592,-0.71185,80
21,1.003,0.181,0.085,-0.61,-0.244,0.244,64.94,-78.519,95.724,-24.453,-8.247,-3.373,27.3,-0.18674,-0.67868,0.05038,-0.70844,83,0.667,0.209,0.72,1.892,0.671,-0.244,16.276,-41.226,-120.536,-22.507,-9.32,1.107,24.03,-0.50293,0.23727,0.28729,0.77982,87,0.583,0.224,0.78,0.122,-0.61,-1.465,16.106,-35.134,173.375,-16.467,-12.667,-21.427,28.37,0.00656,0.30185,0.12143,0.94553,85,0.882,0.365,0.27,-2.625,0.488,0.488,53.888,-62.512,-160.714,-26.42,-13.693,1.9,29.87,0.35977,-0.39099,-0.4592,-0.71185,81
22,1.001,0.178,0.085,-0.488,-0.122,0.0,64.935,-78.525,95.68,-24.453,-8.247,-3.373,27.3,-0.18616,-0.67477,0.04977,-0.71234,88,0.669,0.209,0.723,1.648,1.038,-0.183,16.309,-41.21,-120.558,-22.507,-9.32,1.107,24.03,-0.50293,0.23727,0.28729,0.77982,90,0.589,0.22,0.779,-0.488,-1.038,-0.854,16.122,-35.145,173.331,-16.6,-12.653,-21.907,28.37,0.00656,0.30185,0.12143,0.94553,96,0.883,0.365,0.268,-2.563,0.671,0.305,53.806,-62.512,-160.703,-26.293,-14.127,1.507,29.87,0.35977,-0.39099,-0.4592,-0.71185,92
23,0.998,0.179,0.082,-0.305,0.061,-0.183,64.929,-78.519,95.674,-24.453,-8.247,-3.373,27.3,-0.18616,-0.67477,0.04977,-0.71234,89,0.667,0.207,0.722,1.221,1.099,-0.244,16.331,-41.188,-120.58,-22.507,-9.32,1.107,24.03,-0.50293,0.23727,0.28729,0.77982,91,0.582,0.23,0.775,-2.319,-0.793,-0.732,16.111,-35.162,173.282,-16.6,-12.653,-21.907,28.37,0.00656,0.30185,0.12143,0.94553,97,0.881,0.361,0.268,-2.563,0.916,0.244,53.718,-62.507,-160.675,-26.293,-14.127,1.507,29.87,0.35977,-0.39099,-0.4592,-0.71185,93
24,0.997,0.182,0.082,0.0,0.366,-0.549,64.918,-78.514,95.614,-24.453,-8.247,-3.373,27.3,-0.18616,-0.67477,0.04977,-0.71234,100,0.666,0.204,0.718,0.671,1.221,-0.488,16.348,-41.16,-120.613,-22.507,-9.32,1.107,24.03,-0.50293,0.23727,0.28729,0.77982,94,0.572,0.222,0.77,-2.869,-2.38,0.977,16.062,-35.195,173.249,-16.6,-12.653,-21.907,28.37,0.0134,0.30667,0.11533,0.94464,104,0.877,0.362,0.266,-2.258,1.038,0.0,53.635,-62.496,-160.642,-26.293,-14.127,1.507,29.87,0.35895,-0.39148,-0.45798,-0.71277,98
25,0.997,0.184,0.083,0.244,0.366,-0.732,64.918,-78.497,95.609,-24.453,-8.247,-3.373,27.3,-0.18616,-0.67477,0.04977,-0.71234,101,0.659,0.209,0.71,0.488,1.465,-0.793,16.359,-41.133,-120.652,-22.507,-9.32,1.107,24.03,-0.50293,0.23727,0.28729,0.77982,95,0.575,0.216,0.777,0.977,0.0,0.061,16.04,-35.222,173.232,-16.6,-12.653,-21.907,28.37,0.0134,0.30667,0.11533,0.94464,105,0.875,0.365,0.267,-1.648,0.977,-0.183,53.575,-62.479,-160.609,-26.293,-14.127,1.507,29.87,0.35895,-0.39148,-0.45798,-0.71277,99
26,0.997,0.183,0.084,0.0,0.305,-0.793,64.929,-78.481,95.707,-24.453,-8.247,-3.373,27.3,-0.18616,-0.67477,0.04977,-0.71234,108,0.656,0.21,0.719,2.014,1.587,-0.549,16.386,-41.105,-120.679,-22.507,-9.32,1.107,24.03,-0.50293,0.23727,0.28729,0.77982,102,0.571,0.23,0.777,-0.366,-0.549,0.183,16.046,-35.233,173.238,-16.6,-12.653,-21.907,28.37,0.0134,0.30667,0.11533,0.94464,112,0.874,0.368,0.269,-1.526,0.854,-0.305,53.525,-62.468,-160.587,-26.293,-14.127,1.507,29.87,0.35895,-0.39148,-0.45798,-0.71277,106
27,0.995,0.181,0.085,-0.244,0.305,-0.854,64.935,-78.464,95.773,-24.453,-8.247,-3.373,27.3,-0.18616,-0.67477,0.04977,-0.71234,109,0.655,0.208,0.719,2.93,1.587,-0.549,16.436,-41.078,-120.701,-22.507,-9.32,1.107,24.03,-0.50293,0.23727,0.28729,0.77982,103,0.578,0.229,0.778,0.488,0.244,0.427,16.046,-35.239,173.216,-16.6,-12.653,-21.907,28.37,0.0134,0.30667,0.11533,0.94464,113,0.874,0.361,0.269,-1.709,0.854,-0.427,53.476,-62.452,-160.582,-26.293,-14.127,1.507,29.87,0.35895,-0.39148,-0.45798,-0.71277,107
28,0.997,0.181,0.085,0.061,0.183,-0.977,64.957,-78.448,95.801,-24.453,-8.247,-3.373,27.3,-0.18616,-0.67477,0.04977,-0.71234,116,0.657,0.215,0.722,2.93,1.282,-0.244,16.49,-41.05,-120.718,-22.507,-9.32,1.107,24.03,-0.50293,0.23727,0.28729,0.77982,110,0.583,0.237,0.773,-1.099,-0.122,0.61,16.035,-35.244,173.199,-16.6,-12.653,-21.907,28.37,0.0134,0.30667,0.11533,0.94464,118,0.873,0.359,0.271,-1.221,0.854,-0.61,53.443,-62.435,-160.582,-26.293,-14.127,1.507,29.87,0.35895,-0.39148,-0.45798,-0.71277,114
29,0.997,0.184,0.086,0.549,-0.061,-0.854,65.001,-78.437,95.762,-24.453,-8.247,-3.373,27.3,-0.18616,-0.67477,0.04977,-0.71234,117,0.662,0.22,0.721,2.502,1.343,0.0,16.534,-41.028,-120.734,-22.507,-9.32,1.107,24.03,-0.50293,0.23727,0.28729,0.77982,111,0.572,0.242,0.768,-2.563,-0.122,0.305,15.996,-35.255,173.167,-16.6,-12.653,-21.907,28.37,0.0134,0.30667,0.11533,0.94464,119,0.874,0.363,0.272,-0.732,0.854,-0.549,53.41,-62.419,-160.587,-26.293,-14.127,1.507,29.87,0.35895,-0.39148,-0.45798,-0.71277,115
30,0.995,0.189,0.089,0.488,-0.122,-0.671,65.05,-78.426,95.74,-24.453,-8.247,-3.373,27.3,-0.18616,-0.67477,0.04977,-0.71234,122,0.661,0.227,0.714,1.465,1.709,-0.183,16.567,-41.001,-120.74,-22.507,-9.32,1.107,24.03,-0.50293,0.23727,0.28729,0.77982,120,0.567,0.237,0.772,-1.77,0.427,0.122,15.958,-35.255,173.112,-16.6,-12.653,-21.907,28.37,0.0134,0.30667,0.11533,0.94464,128,0.873,0.37,0.274,-0.427,0.854,-0.366,53.388,-62.402,-160.587,-26.293,-14.127,1.507,29.87,0.35895,-0.39148,-0.45798,-0.71277,124
31,0.991,0.193,0.089,0.061,0.0,-0.549,65.083,-78.415,95.74,-24.453,-8.247,-3.373,27.3,-0.18616,-0.67477,0.04977,-0.71234,123,0.653,0.232,0.713,0.854,2.075,-0.305,16.584,-40.968,-120.751,-22.507,-9.32,1.107,24.03,-0.50293,0.23727,0.28729,0.77982,121,0.573,0.234,0.781,-1.343,0.854,-0.732,15.936,-35.244,173.073,-16.6,-12.653,-21.907,28.37,0.0134,0.30667,0.11533,0.94464,129,0.87,0.375,0.275,-0.793,1.038,-0.244,53.344,-62.391,-160.554,-26.293,-14.127,1.507,29.87,0.35895,-0.39148,-0.45798,-0.71277,125
32,0.992,0.194,0.088,0.061,-0.122,-0.305,65.105,-78.409,95.779,-24.453,-8.247,-3.373,27.3,-0.18616,-0.67477,0.04977,-0.71234,138,0.648,0.232,0.719,0.977,2.625,-0.183,16.6,-40.924,-120.767,-22.507,-9.32,1.107,24.03,-0.50293,0.23727,0.28729,0.77982,126,0.572,0.232,0.782,-0.671,2.136,-0.793,15.93,-35.211,173.079,-16.6,-12.653,-21.907,28.37,0.0134,0.30667,0.11533,0.94464,134,0.866,0.377,0.273,-0.916,1.404,-0.061,53.289,-62.369,-160.494,-26.293,-14.127,1.507,29.87,0.35895,-0.39148,-0.45798,-0.71277,130
33,0.995,0.191,0.088,0.061,-0.244,0.0,65.127,-78.409,95.757,-24.453,-8.247,-3.373,27.3,-0.18616,-0.67477,0.04977,-0.71234,139,0.649,0.23,0.724,1.343,2.441,-0.061,16.617,-40.88,-120.778,-22.507,-9.32,1.107,24.03,-0.50293,0.23727,0.28729,0.77982,127,0.568,0.235,0.788,-0.427,1.221,-0.061,15.925,-35.178,173.079,-16.6,-12.653,-21.907,28.37,0.0134,0.30667,0.11533,0.94464,135,0.868,0.378,0.275,-0.732,1.404,0.061,53.234,-62.353,-160.444,-26.293,-14.127,1.507,29.87,0.35895,-0.39148,-0.45798,-0.71277,131
34,0.996,0.188,0.088,-0.122,-0.305,0.183,65.149,-78.409,95.729,-24.6,-8.1,-3.42,27.3,-0.18616,-0.67477,0.04977,-0.71234,140,0.65,0.229,0.726,1.526,2.625,0.183,16.639,-40.836,-120.784,-22.507,-9.32,1.107,24.03,-0.50293,0.23727,0.28729,0.77982,132,0.572,0.231,0.791,-1.526,0.732,-0.183,15.914,-35.162,173.09,-16.6,-12.653,-21.907,28.37,0.0134,0.30667,0.11533,0.94464,142,0.871,0.373,0.274,-0.671,1.221,0.244,53.185,-62.342,-160.406,-26.293,-14.127,1.507,29.87,0.35895,-0.39148,-0.45798,-0.71277,136
35,0.996,0.188,0.085,-0.122,-0.366,0.305,65.165,-78.415,95.74,-24.6,-8.1,-3.42,27.3,-0.18616,-0.67477,0.04977,-0.71234,141,0.65,0.229,0.729,1.465,2.625,0.366,16.661,-40.787,-120.778,-22.507,-9.32,1.107,24.03,-0.50293,0.23727,0.28729,0.77982,133,0.575,0.23,0.792,-0.793,0.671,0.122,15.897,-35.145,173.112,-16.6,-12.653,-21.907,28.37,0.0134,0.30667,0.11533,0.94464,143,0.872,0.372,0.276,-0.61,1.221,0.366,53.13,-62.331,-160.362,-26.293,-14.127,1.507,29.87,0.35895,-0.39148,-0.45798,-0.71277,137
36,0.996,0.188,0.083,0.122,-0.366,0.305,65.187,-78.426,95.779,-24.6,-8.1,-3.42,27.3,-0.18616,-0.67477,0.04977,-0.71234,150,0.651,0.228,0.733,0.977,2.625,0.427,16.672,-40.743,-120.773,-22.04,-10.02,1.253,24.03,-0.50293,0.23727,0.28729,0.77982,144,0.574,0.227,0.787,-1.526,-0.061,0.488,15.875,-35.14,173.177,-16.6,-12.653,-21.907,28.37,0.0134,0.30667,0.11533,0.94464,146,0.873,0.371,0.275,-0.732,1.221,0.488,53.075,-62.32,-160.312,-26.293,-14.127,1.507,29.87,0.35895,-0.39148,-0.45798,-0.71277,148
37,0.997,0.188,0.082,0.244,-0.366,0.366,65.209,-78.431,95.79,-24.6,-8.1,-3.42,27.3,-0.18616,-0.67477,0.04977,-0.71234,151,0.652,0.226,0.732,0.488,2.441,0.366,16.672,-40.693,-120.778,-22.04,-10.02,1.253,24.03,-0.50293,0.23727,0.28729,0.77982,145,0.573,0.225,0.786,-0.61,-0.61,0.61,15.853,-35.151,173.282,-16.6,-12.653,-21.907,28.37,0.0134,0.30667,0.11533,0.94464,147,0.873,0.372,0.273,-0.488,1.221,0.61,53.02,-62.314,-160.263,-26.293,-14.127,1.507,29.87,0.35895,-0.39148,-0.45798,-0.71277,149
38,0.997,0.186,0.082,0.183,-0.183,0.427,65.22,-78.437,95.823,-24.6,-8.1,-3.42,27.3,-0.18472,-0.67505,0.0473,-0.71262,156,0.654,0.223,0.728,0.122,2.136,0.244,16.672,-40.655,-120.778,-22.04,-10.02,1.253,24.03,-0.5022,0.23163,0.28802,0.78171,152,0.573,0.228,0.789,-0.122,-0.916,0.549,15.848,-35.167,173.353,-16.6,-12.653,-21.907,28.37,0.0134,0.30667,0.11533,0.94464,158,0.874,0.37,0.272,-0.122,1.038,0.61,52.976,-62.309,-160.23,-26.513,-14.14,1.38,29.87,0.35895,-0.39148,-0.45798,-0.71277,154
39,0.998,0.183,0.081,0.305,-0.183,0.549,65.231,-78.448,95.856,-24.6,-8.1,-3.42,27.3,-0.18472,-0.67505,0.0473,-0.71262,157,0.651,0.223,0.729,0.244,1.831,0.244,16.666,-40.616,-120.784,-22.04,-10.02,1.253,24.03,-0.5022,0.23163,0.28802,0.78171,153,0.573,0.221,0.788,0.366,-0.732,0.732,15.848,-35.184,173.408,-16.6,-12.653,-21.907,28.37,0.0134,0.30667,0.11533,0.94464,159,0.874,0.368,0.272,0.061,0.854,0.671,52.943,-62.303,-160.203,-26.513,-14.14,1.38,29.87,0.35895,-0.39148,-0.45798,-0.71277,155
40,0.999,0.181,0.081,0.366,-0.305,0.61,65.242,-78.459,95.828,-24.6,-8.1,-3.42,27.3,-0.18472,-0.67505,0.0473,-0.71262,164,0.65,0.224,0.733,0.916,1.587,0.549,16.672,-40.589,-120.784,-22.04,-10.02,1.253,24.03,-0.5022,0.23163,0.28802,0.78171,160,0.573,0.221,0.788,0.427,-1.038,0.549,15.859,-35.2,173.441,-16.233,-12.747,-21.107,28.37,0.0134,0.30667,0.11533,0.94464,170,0.876,0.364,0.273,0.0,0.793,0.793,52.91,-62.309,-160.175,-26.513,-14.14,1.38,29.87,0.35895,-0.39148,-0.45798,-0.71277,162
41,0.998,0.183,0.082,0.366,-0.305,0.61,65.259,-78.475,95.823,-24.6,-8.1,-3.42,27.3,-0.18472,-0.67505,0.0473,-0.71262,165,0.65,0.219,0.732,1.343,1.221,1.038,16.677,-40.567,-120.773,-22.04,-10.02,1.253,24.03,-0.5022,0.23163,0.28802,0.78171,161,0.58,0.227,0.781,-1.465,-1.16,0.61,15.848,-35.222,173.474,-16.233,-12.747,-21.107,28.37,0.0134,0.30667,0.11533,0.94464,171,0.874,0.363,0.278,0.122,0.427,1.038,52.877,-62.314,-160.153,-26.513,-14.14,1.38,29.87,0.35895,-0.39148,-0.45798,-0.71277,163
42,0.996,0.185,0.083,0.366,-0.427,0.61,65.286,-78.486,95.867,-24.6,-8.1,-3.42,27.3,-0.18472,-0.67505,0.0473,-0.71262,172,0.651,0.219,0.733,0.793,0.854,1.16,16.683,-40.551,-120.756,-22.04,-10.02,1.253,24.03,-0.5022,0.23163,0.28802,0.78171,166,0.583,0.219,0.781,-1.282,-0.977,0.183,15.82,-35.244,173.529,-16.233,-12.747,-21.107,28.37,0.01175,0.30673,0.11404,0.94479,176,0.874,0.366,0.275,0.0,0.427,0.977,52.85,-62.325,-160.137,-26.513,-14.14,1.38,29.87,0.35895,-0.39069,-0.45514,-0.71503,168
43,1.0,0.186,0.082,0.244,-0.427,0.61,65.308,-78.503,95.839,-24.6,-8.1,-3.42,27.3,-0.18472,-0.67505,0.0473,-0.71262,173,0.654,0.222,0.729,0.122,1.343,0.977,16.672,-40.534,-120.745,-22.04,-10.02,1.253,24.03,-0.5022,0.23163,0.28802,0.78171,167,0.578,0.217,0.786,-0.854,-1.343,0.244,15.804,-35.266,173.622,-16.233,-12.747,-21.107,28.37,0.01175,0.30673,0.11404,0.94479,177,0.878,0.367,0.274,-0.244,0.427,0.916,52.817,-62.336,-160.12,-26.513,-14.14,1.38,29.87,0.35895,-0.39069,-0.45514,-0.71503,169
44,1.001,0.185,0.082,0.061,-0.305,0.549,65.325,-78.514,95.85,-24.6,-8.1,-3.42,27.3,-0.18472,-0.67505,0.0473,-0.71262,180,0.654,0.219,0.727,-0.305,1.221,0.61,16.655,-40.518,-120.729,-22.04,-10.02,1.253,24.03,-0.5022,0.23163,0.28802,0.78171,174,0.573,0.218,0.789,-1.099,-2.075,1.16,15.782,-35.299,173.732,-16.233,-12.747,-21.107,28.37,0.01175,0.30673,0.11404,0.94479,184,0.878,0.364,0.276,-0.671,0.366,0.854,52.784,-62.347,-160.098,-26.513,-14.14,1.38,29.87,0.35895,-0.39069,-0.45514,-0.71503,178
45,0.998,0.183,0.083,0.0,-0.183,0.366,65.336,-78.525,95.839,-24.6,-8.1,-3.42,27.3,-0.18472,-0.67505,0.0473,-0.71262,181,0.649,0.213,0.732,-0.305,1.038,0.427,16.639,-40.496,-120.723,-22.04,-10.02,1.253,24.03,-0.5022,0.23163,0.28802,0.78171,175,0.579,0.21,0.785,-1.16,-1.953,1.648,15.749,-35.349,173.809,-16.233,-12.747,-21.107,28.37,0.01175,0.30673,0.11404,0.94479,185,0.875,0.359,0.276,-0.854,0.366,0.61,52.74,-62.353,-160.071,-26.513,-14.14,1.38,29.87,0.35895,-0.39069,-0.45514,-0.71503,179
46,0.998,0.182,0.083,-0.061,-0.061,0.305,65.336,-78.53,95.839,-24.6,-8.1,-3.42,27.3,-0.18472,-0.67505,0.0473,-0.71262,188,0.647,0.211,0.734,-0.244,0.916,0.61,16.622,-40.485,-120.712,-22.04,-10.02,1.253,24.03,-0.5022,0.23163,0.28802,0.78171,182,0.578,0.214,0.779,-0.488,-1.404,1.221,15.716,-35.387,173.903,-16.233,-12.747,-21.107,28.37,0.01175,0.30673,0.11404,0.94479,190,0.875,0.357,0.278,-0.366,0.244,0.427,52.707,-62.358,-160.054,-26.513,-14.14,1.38,29.87,0.35895,-0.39069,-0.45514,-0.71503,186
47,0.997,0.181,0.084,0.0,-0.183,0.244,65.341,-78.536,95.839,-24.6,-8.1,-3.42,27.3,-0.18472,-0.67505,0.0473,-0.71262,189,0.649,0.211,0.734,0.0,0.61,0.732,16.606,-40.474,-120.701,-22.04,-10.02,1.253,24.03,-0.5022,0.23163,0.28802,0.78171,183,0.569,0.218,0.777,-1.221,-1.892,2.197,15.683,-35.425,174.007,-16.233,-12.747,-21.107,28.37,0.01175,0.30673,0.11404,0.94479,191,0.874,0.358,0.28,0.0,0.061,0.244,52.69,-62.364,-160.06,-26.513,-14.14,1.38,29.87,0.35895,-0.39069,-0.45514,-0.71503,187
48,0.994,0.179,0.085,0.183,-0.366,0.061,65.374,-78.541,95.762,-24.6,-8.1,-3.42,27.3,-0.18472,-0.67505,0.0473,-0.71262,196,0.645,0.212,0.729,-0.122,0.61,0.793,16.584,-40.468,-120.696,-22.04,-10.02,1.253,24.03,-0.5022,0.23163,0.28802,0.78171,192,0.576,0.208,0.781,0.122,-0.366,1.404,15.65,-35.453,174.144,-16.233,-12.747,-21.107,28.37,0.01175,0.30673,0.11404,0.94479,198,0.87,0.358,0.281,-0.122,0.0,0.122,52.679,-62.369,-160.065,-26.513,-14.14,1.38,29.87,0.35895,-0.39069,-0.45514,-0.71503,194
49,0.994,0.18,0.086,0.122,-0.61,0.0,65.424,-78.547,95.658,-24.6,-8.1,-3.42,27.3,-0.18472,-0.67505,0.0473,-0.71262,197,0.643,0.214,0.73,0.0,0.793,0.793,16.567,-40.457,-120.679,-22.04,-10.02,1.253,24.03,-0.5022,0.23163,0.28802,0.78171,193,0.578,0.211,0.779,-0.427,0.122,0.183,15.634,-35.458,174.287,-16.233,-12.747,-21.107,28.37,0.01175,0.30673,0.11404,0.94479,199,0.87,0.358,0.282,-0.305,0.0,0.183,52.674,-62.369,-160.065,-26.513,-14.14,1.38,29.87,0.35895,-0.39069,-0.45514,-0.71503,195
50,0.996,0.182,0.086,0.0,-0.732,-0.061,65.49,-78.552,95.581,-24.6,-8.1,-3.42,27.3,-0.18472,-0.67505,0.0473,-0.71262,204,0.644,0.213,0.732,0.366,0.671,0.854,16.556,-40.452,-120.668,-22.04,-10.02,1.253,24.03,-0.5022,0.23163,0.28802,0.78171,200,0.575,0.218,0.781,0.122,-0.122,0.977,15.623,-35.464,174.386,-16.233,-12.747,-21.107,28.37,0.01175,0.30673,0.11404,0.94479,208,0.872,0.359,0.281,-0.488,-0.061,0.183,52.657,-62.375,-160.071,-26.513,-14.14,1.38,29.87,0.35895,-0.39069,-0.45514,-0.71503,202
51,0.997,0.183,0.085,0.0,-0.854,-0.122,65.561,-78.558,95.603,-24.6,-8.1,-3.42,27.3,-0.18472,-0.67505,0.0473,-0.71262,205,0.645,0.212,0.731,0.366,0.488,0.732,16.545,-40.441,-120.657,-22.04,-10.02,1.253,24.03,-0.5022,0.23163,0.28802,0.78171,201,0.577,0.213,0.782,-0.244,-0.549,1.282,15.606,-35.475,174.485,-16.233,-12.747,-21.107,28.37,0.01175,0.30673,0.11404,0.94479,209,0.873,0.359,0.282,-0.305,-0.183,0.061,52.646,-62.38,-160.082,-26.513,-14.14,1.38,29.87,0.35895,-0.39069,-0.45514,-0.71503,203
52,0.997,0.182,0.086,0.122,-0.977,-0.244,65.654,-78.563,95.625,-24.453,-8.82,-2.747,27.3,-0.18472,-0.67505,0.0473,-0.71262,212,0.645,0.214,0.731,0.305,0.61,0.793,16.534,-40.435,-120.646,-22.087,-9.833,0.507,24.03,-0.5022,0.23163,0.28802,0.78171,206,0.583,0.213,0.785,0.305,0.0,0.61,15.59,-35.48,174.589,-16.233,-12.747,-21.107,28.37,0.01175,0.30673,0.11404,0.94479,216,0.874,0.36,0.282,0.0,-0.183,0.0,52.641,-62.38,-160.098,-26.513,-14.14,1.38,29.87,0.35895,-0.39069,-0.45514,-0.71503,210
53,0.997,0.183,0.083,0.244,-1.099,-0.305,65.759,-78.569,95.702,-24.453,-8.82,-2.747,27.3,-0.18472,-0.67505,0.0473,-0.71262,213,0.647,0.214,0.733,0.244,0.61,0.916,16.518,-40.424,-120.641,-22.087,-9.833,0.507,24.03,-0.5022,0.23163,0.28802,0.78171,207,0.582,0.216,0.78,0.061,-0.366,0.244,15.584,-35.486,174.655,-16.233,-12.747,-21.107,28.37,0.01175,0.30673,0.11404,0.94479,217,0.874,0.362,0.279,-0.061,-0.122,0.0,52.641,-62.386,-160.098,-26.513,-14.14,1.38,29.87,0.35895,-0.39069,-0.45514,-0.71503,211
54,0.999,0.185,0.082,0.305,-0.977,-0.366,65.863,-78.569,95.79,-24.453,-8.82,-2.747,27.3,-0.18015,-0.67639,0.04413,-0.71274,220,0.65,0.214,0.735,0.244,0.549,0.732,16.507,-40.419,-120.635,-22.087,-9.833,0.507,24.03,-0.5022,0.23163,0.28802,0.78171,214,0.576,0.224,0.784,0.977,-0.122,0.793,15.59,-35.497,174.688,-16.233,-12.747,-21.107,28.37,0.01175,0.30673,0.11404,0.94479,228,0.875,0.365,0.279,0.061,-0.183,-0.061,52.641,-62.386,-160.093,-26.513,-14.14,1.38,29.87,0.35895,-0.39069,-0.45514,-0.71503,218
55,0.998,0.186,0.081,0.305,-0.977,-0.366,65.962,-78.569,95.812,-24.453,-8.82,-2.747,27.3,-0.18015,-0.67639,0.04413,-0.71274,221,0.649,0.218,0.732,0.366,0.366,0.488,16.501,-40.413,-120.641,-22.087,-9.833,0.507,24.03,-0.5022,0.23163,0.28802,0.78171,215,0.58,0.22,0.786,0.793,-0.366,1.282,15.59,-35.502,174.727,-16.233,-12.747,-21.107,28.37,0.01175,0.30673,0.11404,0.94479,229,0.875,0.365,0.278,0.0,-0.366,-0.061,52.641,-62.386,-160.071,-26.513,-14.14,1.38,29.87,0.35895,-0.39069,-0.45514,-0.71503,219
56,0.997,0.186,0.079,0.366,-0.916,-0.183,66.055,-78.574,95.817,-24.453,-8.82,-2.747,27.3,-0.18015,-0.67639,0.04413,-0.71274,224,0.647,0.222,0.734,0.671,0.183,0.61,16.501,-40.408,-120.657,-22.087,-9.833,0.507,24.03,-0.5029,0.23029,0.28629,0.78229,226,0.58,0.22,0.782,0.916,-0.122,0.916,15.595,-35.513,174.754,-16.433,-12.627,-21.46,28.37,0.01175,0.30673,0.11404,0.94479,232,0.874,0.364,0.275,0.183,-0.427,-0.061,52.652,-62.391,-160.087,-26.347,-13.487,1.493,29.87,0.35895,-0.39069,-0.45514,-0.71503,222
57,0.997,0.185,0.078,0.305,-0.854,-0.122,66.143,-78.58,95.762,-24.453,-8.82,-2.747,27.3,-0.18015,-0.67639,0.04413,-0.71274,225,0.648,0.221,0.734,0.793,0.244,0.793,16.507,-40.408,-120.663,-22.087,-9.833,0.507,24.03,-0.5029,0.23029,0.28629,0.78229,227,0.575,0.226,0.782,0.854,-0.427,1.526,15.595,-35.524,174.781,-16.433,-12.627,-21.46,28.37,0.01175,0.30673,0.11404,0.94479,233,0.875,0.363,0.275,0.366,-0.488,0.0,52.668,-62.397,-160.12,-26.347,-13.487,1.493,29.87,0.35895,-0.39069,-0.45514,-0.71503,223
58,0.997,0.184,0.078,0.244,-0.793,-0.122,66.226,-78.585,95.674,-24.453,-8.82,-2.747,27.3,-0.18015,-0.67639,0.04413,-0.71274,234,0.648,0.22,0.732,0.916,0.061,1.038,16.507,-40.408,-120.668,-22.087,-9.833,0.507,24.03,-0.5029,0.23029,0.28629,0.78229,230,0.58,0.215,0.782,1.648,0.122,1.648,15.601,-35.535,174.809,-16.433,-12.627,-21.46,28.37,0.01175,0.30673,0.11404,0.94479,240,0.873,0.364,0.274,0.488,-0.61,0.0,52.69,-62.402,-160.175,-26.347,-13.487,1.493,29.87,0.35895,-0.39069,-0.45514,-0.71503,238
59,0.996,0.184,0.077,0.244,-0.916,-0.061,66.319,-78.591,95.565,-24.453,-8.82,-2.747,27.3,-0.18015,-0.67639,0.04413,-0.71274,235,0.647,0.222,0.732,1.038,0.061,1.221,16.507,-40.413,-120.663,-22.087,-9.833,0.507,24.03,-0.5029,0.23029,0.28629,0.78229,231,0.579,0.226,0.777,1.221,-0.122,0.732,15.612,-35.541,174.836,-16.433,-12.627,-21.46,28.37,0.01175,0.30673,0.11404,0.94479,241,0.873,0.366,0.274,0.488,-0.732,0.0,52.723,-62.408,-160.236,-26.347,-13.487,1.493,29.87,0.35895,-0.39069,-0.45514,-0.71503,239
60,0.996,0.186,0.077,0.244,-1.099,0.0,66.423,-78.596,95.4,-24.453,-8.82,-2.747,27.3,-0.18015,-0.67639,0.04413,-0.71274,244,0.648,0.221,0.733,1.221,0.0,1.221,16.512,-40.419,-120.657,-22.087,-9.833,0.507,24.03,-0.5029,0.23029,0.28629,0.78229,236,0.577,0.223,0.776,1.099,-0.366,1.465,15.623,-35.552,174.869,-16.433,-12.627,-21.46,28.37,0.00079,0.30789,0.11575,0.94431,248,0.874,0.366,0.274,0.427,-0.793,0.122,52.751,-62.419,-160.302,-26.347,-13.487,1.493,29.87,0.35812,-0.39215,-0.4538,-0.71548,242
61,0.997,0.186,0.078,0.183,-1.16,0.061,66.533,-78.607,95.235,-24.453,-8.82,-2.747,27.3,-0.18015,-0.67639,0.04413,-0.71274,245,0.648,0.222,0.728,1.038,0.061,1.099,16.518,-40.424,-120.652,-22.087,-9.833,0.507,24.03,-0.5029,0.23029,0.28629,0.78229,237,0.586,0.216,0.78,1.465,0.0,0.61,15.639,-35.557,174.875,-16.433,-12.627,-21.46,28.37,0.00079,0.30789,0.11575,0.94431,249,0.875,0.366,0.274,0.366,-0.793,0.183,52.778,-62.43,-160.351,-26.347,-13.487,1.493,29.87,0.35812,-0.39215,-0.4538,-0.71548,243
62,0.999,0.187,0.078,0.183,-1.16,0.122,66.643,-78.618,95.087,-24.453,-8.82,-2.747,27.3,-0.18015,-0.67639,0.04413,-0.71274,250,0.651,0.222,0.728,0.854,0.0,1.038,16.523,-40.424,-120.641,-22.087,-9.833,0.507,24.03,-0.5029,0.23029,0.28629,0.78229,246,0.587,0.218,0.779,1.038,-0.183,0.0,15.661,-35.563,174.853,-16.433,-12.627,-21.46,28.37,0.00079,0.30789,0.11575,0.94431,258,0.876,0.368,0.273,0.244,-0.671,0.183,52.806,-62.441,-160.406,-26.347,-13.487,1.493,29.87,0.35812,-0.39215,-0.4538,-0.71548,252
63,1.001,0.188,0.077,0.122,-0.977,0.122,66.731,-78.629,94.938,-24.453,-8.82,-2.747,27.3,-0.18015,-0.67639,0.04413,-0.71274,251,0.654,0.221,0.73,0.671,0.0,0.854,16.523,-40.43,-120.63,-22.087,-9.833,0.507,24.03,-0.5029,0.23029,0.28629,0.78229,247,0.589,0.22,0.776,0.0,-0.366,0.183,15.667,-35.568,174.847,-16.433,-12.627,-21.46,28.37,0.00079,0.30789,0.11575,0.94431,259,0.879,0.369,0.272,-0.061,-0.549,0.244,52.822,-62.452,-160.455,-26.347,-13.487,1.493,29.87,0.35812,-0.39215,-0.4538,-0.71548,253
64,1.002,0.188,0.076,-0.122,-0.793,0.122,66.802,-78.635,94.856,-24.453,-8.82,-2.747,27.3,-0.18015,-0.67639,0.04413,-0.71274,260,0.656,0.218,0.729,0.061,-0.061,0.427,16.523,-40.435,-120.63,-22.087,-9.833,0.507,24.03,-0.5029,0.23029,0.28629,0.78229,254,0.586,0.221,0.776,-0.366,-0.366,0.0,15.661,-35.579,174.831,-16.433,-12.627,-21.46,28.37,0.00079,0.30789,0.11575,0.94431,262,0.88,0.37,0.272,-0.488,-0.366,0.122,52.828,-62.457,-160.499,-26.347,-13.487,1.493,29.87,0.35812,-0.39215,-0.4538,-0.71548,256
65,1.001,0.188,0.076,-0.305,-0.427,0.061,66.841,-78.64,94.839,-24.453,-8.82,-2.747,27.3,-0.18015,-0.67639,0.04413,-0.71274,261,0.656,0.219,0.728,-0.549,0.061,0.0,16.512,-40.435,-120.641,-22.087,-9.833,0.507,24.03,-0.5029,0.23029,0.28629,0.78229,255,0.589,0.217,0.774,-0.854,-0.244,-0.366,15.65,-35.585,174.803,-16.433,-12.627,-21.46,28.37,0.00079,0.30789,0.11575,0.94431,263,0.879,0.369,0.271,-0.916,-0.244,0.0,52.828,-62.463,-160.527,-26.347,-13.487,1.493,29.87,0.35812,-0.39215,-0.4538,-0.71548,257
66,1.0,0.188,0.074,-0.305,-0.244,0.061,66.863,-78.64,94.856,-24.373,-8.607,-2.953,27.3,-0.18015,-0.67639,0.04413,-0.71274,268,0.655,0.219,0.728,-1.16,0.244,-0.305,16.501,-40.43,-120.657,-22.087,-9.833,0.507,24.03,-0.5029,0.23029,0.28629,0.78229,264,0.583,0.218,0.776,-0.854,-0.366,-0.488,15.645,-35.59,174.787,-16.433,-12.627,-21.46,28.37,0.00079,0.30789,0.11575,0.94431,270,0.877,0.367,0.271,-1.099,-0.122,0.0,52.817,-62.463,-160.549,-26.347,-13.487,1.493,29.87,0.35812,-0.39215,-0.4538,-0.71548,266
67,0.998,0.185,0.074,-0.366,0.0,0.0,66.863,-78.64,94.916,-24.373,-8.607,-2.953,27.3,-0.18015,-0.67639,0.04413,-0.71274,269,0.655,0.217,0.727,-1.526,0.305,-0.61,16.479,-40.424,-120.685,-22.087,-9.833,0.507,24.03,-0.5029,0.23029,0.28629,0.78229,265,0.58,0.221,0.776,-0.549,-0.671,-0.366,15.639,-35.601,174.76,-16.433,-12.627,-21.46,28.37,0.00079,0.30789,0.11575,0.94431,271,0.875,0.364,0.271,-1.282,0.0,-0.122,52.806,-62.463,-160.582,-26.347,-13.487,1.493,29.87,0.35812,-0.39215,-0.4538,-0.71548,267
68,0.997,0.181,0.073,-0.427,0.122,-0.061,66.857,-78.64,94.938,-24.373,-8.607,-2.953,27.3,-0.18015,-0.67639,0.04413,-0.71274,276,0.649,0.217,0.727,-1.526,0.366,-0.793,16.463,-40.413,-120.712,-22.087,-9.833,0.507,24.03,-0.5029,0.23029,0.28629,0.78229,272,0.579,0.217,0.777,-0.488,-0.061,0.549,15.628,-35.612,174.716,-16.433,-12.627,-21.46,28.37,0.00079,0.30789,0.11575,0.94431,278,0.875,0.357,0.271,-1.038,0.061,-0.183,52.789,-62.457,-160.62,-26.347,-13.487,1.493,29.87,0.35812,-0.39215,-0.4538,-0.71548,274
69,0.996,0.18,0.075,-0.305,0.183,-0.061,66.846,-78.635,94.933,-24.373,-8.607,-2.953,27.3,-0.18015,-0.67639,0.04413,-0.71274,277,0.647,0.215,0.729,-1.099,0.244,-0.549,16.452,-40.408,-120.734,-22.087,-9.833,0.507,24.03,-0.5029,0.23029,0.28629,0.78229,273,0.581,0.22,0.777,-0.977,0.0,0.427,15.606,-35.618,174.672,-16.433,-12.627,-21.46,28.37,0.00079,0.30789,0.11575,0.94431,279,0.873,0.355,0.273,-0.671,0.0,-0.244,52.784,-62.457,-160.664,-26.347,-13.487,1.493,29.87,0.35812,-0.39215,-0.4538,-0.71548,275
70,0.995,0.182,0.073,-0.122,0.122,-0.061,66.841,-78.635,94.933,-24.373,-8.607,-2.953,27.3,-0.17929,-0.67773,0.04349,-0.7117,282,0.646,0.214,0.729,-1.038,0.122,-0.061,16.436,-40.408,-120.745,-21.967,-9.667,1.547,24.03,-0.5029,0.23029,0.28629,0.78229,280,0.585,0.217,0.78,-0.732,0.549,-0.305,15.59,-35.612,174.65,-16.433,-12.627,-21.46,28.37,0.00079,0.30789,0.11575,0.94431,288,0.872,0.361,0.273,-0.305,0.061,-0.183,52.778,-62.452,-160.703,-26.347,-13.487,1.493,29.87,0.35812,-0.39215,-0.4538,-0.71548,284
71,0.999,0.184,0.074,-0.122,0.0,0.0,66.852,-78.635,94.933,-24.373,-8.607,-2.953,27.3,-0.17929,-0.67773,0.04349,-0.7117,283,0.646,0.219,0.73,-0.977,0.244,0.0,16.419,-40.402,-120.751,-21.967,-9.667,1.547,24.03,-0.5029,0.23029,0.28629,0.78229,281,0.581,0.218,0.784,-0.854,0.488,0.0,15.579,-35.601,174.639,-16.433,-12.627,-21.46,28.37,0.00079,0.30789,0.11575,0.94431,289,0.876,0.364,0.272,-0.122,0.061,-0.061,52.778,-62.452,-160.719,-26.347,-13.487,1.493,29.87,0.35812,-0.39215,-0.4538,-0.71548,285
72,1.002,0.184,0.076,0.0,0.0,0.0,66.863,-78.635,94.96,-24.373,-8.607,-2.953,27.3,-0.17929,-0.67773,0.04349,-0.7117,292,0.651,0.218,0.734,-0.671,0.122,-0.061,16.403,-40.402,-120.762,-21.967,-9.667,1.547,24.03,-0.5029,0.23029,0.28629,0.78229,286,0.581,0.217,0.784,-0.244,0.183,0.61,15.562,-35.601,174.617,-16.433,-12.627,-21.46,28.37,0.00079,0.30789,0.11575,0.94431,294,0.879,0.364,0.277,-0.244,0.0,0.0,52.778,-62.452,-160.746,-26.347,-13.487,1.493,29.87,0.35812,-0.39215,-0.4538,-0.71548,290
73,1.0,0.184,0.078,0.0,0.0,0.0,66.874,-78.64,94.938,-24.373,-8.607,-2.953,27.3,-0.17929,-0.67773,0.04349,-0.7117,293,0.648,0.216,0.736,-0.61,0.183,-0.122,16.397,-40.397,-120.767,-21.967,-9.667,1.547,24.03,-0.5029,0.23029,0.28629,0.78229,287,0.583,0.215,0.782,-1.221,0.732,0.305,15.535,-35.59,174.606,-16.433,-12.627,-21.46,28.37,0.00079,0.30789,0.11575,0.94431,295,0.877,0.363,0.276,-0.183,-0.061,0.0,52.778,-62.457,-160.768,-26.347,-13.487,1.493,29.87,0.35812,-0.39215,-0.4538,-0.71548,291
74,0.999,0.183,0.079,0.0,0.244,0.0,66.857,-78.635,94.916,-24.373,-8.607,-2.953,27.3,-0.17929,-0.67773,0.04349,-0.7117,300,0.649,0.215,0.737,-0.671,0.183,-0.061,16.386,-40.391,-120.778,-21.967,-9.667,1.547,24.03,-0.50183,0.23096,0.28528,0.78314,298,0.576,0.213,0.777,-1.343,0.549,0.244,15.507,-35.585,174.589,-16.433,-12.627,-21.46,28.37,0.00079,0.30789,0.11575,0.94431,304,0.876,0.361,0.277,-0.183,0.0,0.0,52.778,-62.457,-160.796,-26.347,-13.487,1.493,29.87,0.35812,-0.39215,-0.4538,-0.71548,296
75,0.997,0.184,0.081,0.0,0.366,-0.122,66.835,-78.635,94.867,-24.373,-8.607,-2.953,27.3,-0.17929,-0.67773,0.04349,-0.7117,301,0.648,0.214,0.735,-0.854,0.183,0.0,16.37,-40.391,-120.784,-21.967,-9.667,1.547,24.03,-0.50183,0.23096,0.28528,0.78314,299,0.575,0.211,0.778,-0.793,1.038,0.244,15.48,-35.568,174.562,-16.433,-12.627,-21.46,28.37,0.00079,0.30789,0.11575,0.94431,305,0.875,0.361,0.279,0.0,-0.122,0.0,52.778,-62.457,-160.818,-26.347,-13.487,1.493,29.87,0.35812,-0.39215,-0.4538,-0.71548,297
76,0.994,0.183,0.082,0.122,0.366,-0.244,66.813,-78.624,94.801,-24.373,-8.607,-2.953,27.3,-0.17929,-0.67773,0.04349,-0.7117,306,0.645,0.213,0.732,-1.038,0.122,0.0,16.348,-40.386,-120.789,-21.967,-9.667,1.547,24.03,-0.50183,0.23096,0.28528,0.78314,302,0.574,0.213,0.778,-0.183,1.099,-0.061,15.469,-35.552,174.529,-16.46,-12.753,-21.727,28.37,0.00079,0.30789,0.11575,0.94431,310,0.872,0.361,0.28,-0.061,-0.122,-0.305,52.784,-62.457,-160.856,-26.793,-14.113,0.993,29.87,0.35812,-0.39215,-0.4538,-0.71548,312
77,0.993,0.184,0.082,0.244,0.183,-0.366,66.819,-78.618,94.774,-24.373,-8.607,-2.953,27.3,-0.17929,-0.67773,0.04349,-0.7117,307,0.643,0.212,0.731,-0.977,0.061,0.0,16.331,-40.386,-120.795,-21.967,-9.667,1.547,24.03,-0.50183,0.23096,0.28528,0.78314,303,0.574,0.214,0.779,0.427,1.404,-0.061,15.469,-35.524,174.501,-16.46,-12.753,-21.727,28.37,0.00079,0.30789,0.11575,0.94431,311,0.869,0.361,0.279,-0.061,-0.061,-0.366,52.795,-62.452,-160.906,-26.793,-14.113,0.993,29.87,0.35812,-0.39215,-0.4538,-0.71548,313
78,0.995,0.185,0.081,0.061,0.122,-0.244,66.813,-78.613,94.724,-24.373,-8.607,-2.953,27.3,-0.17929,-0.67773,0.04349,-0.7117,316,0.641,0.212,0.731,-0.793,0.122,-0.061,16.315,-40.38,-120.806,-21.967,-9.667,1.547,24.03,-0.50183,0.23096,0.28528,0.78314,308,0.577,0.218,0.785,1.282,1.709,-0.671,15.491,-35.491,174.468,-16.46,-12.753,-21.727,28.37,0.00079,0.30789,0.11575,0.94431,320,0.871,0.362,0.278,0.0,-0.061,-0.488,52.806,-62.446,-160.939,-26.793,-14.113,0.993,29.87,0.3541,-0.39496,-0.45184,-0.71716,314
79,0.997,0.185,0.079,0.122,0.0,-0.183,66.824,-78.613,94.713,-24.373,-8.607,-2.953,27.3,-0.17929,-0.67773,0.04349,-0.7117,317,0.642,0.213,0.733,-0.183,0.122,0.0,16.315,-40.38,-120.811,-21.967,-9.667,1.547,24.03,-0.50183,0.23096,0.28528,0.78314,309,0.577,0.224,0.787,0.977,1.77,-0.244,15.513,-35.458,174.468,-16.46,-12.753,-21.727,28.37,0.00079,0.30789,0.11575,0.94431,321,0.873,0.362,0.277,0.183,-0.183,-0.427,52.817,-62.441,-160.983,-26.793,-14.113,0.993,29.87,0.3541,-0.39496,-0.45184,-0.71716,315
80,0.999,0.184,0.078,0.244,-0.122,-0.122,66.846,-78.607,94.664,-24.373,-8.607,-2.953,27.3,-0.17929,-0.67773,0.04349,-0.7117,324,0.646,0.217,0.736,0.244,-0.061,0.244,16.315,-40.38,-120.817,-21.967,-9.667,1.547,24.03,-0.50183,0.23096,0.28528,0.78314,318,0.574,0.22,0.786,0.977,1.282,0.244,15.524,-35.431,174.485,-16.46,-12.753,-21.727,28.37,0.00443,0.30765,0.1138,0.94461,328,0.875,0.363,0.277,0.366,-0.183,-0.305,52.833,-62.441,-161.016,-26.793,-14.113,0.993,29.87,0.3541,-0.39496,-0.45184,-0.71716,322
81,0.998,0.186,0.077,0.183,-0.244,-0.061,66.874,-78.607,94.631,-24.373,-8.607,-2.953,27.3,-0.17929,-0.67773,0.04349,-0.7117,325,0.648,0.219,0.737,0.427,-0.122,0.427,16.315,-40.38,-120.811,-21.967,-9.667,1.547,24.03,-0.50183,0.23096,0.28528,0.78314,319,0.581,0.223,0.787,1.16,0.977,-0.305,15.546,-35.409,174.468,-16.46,-12.753,-21.727,28.37,0.00443,0.30765,0.1138,0.94461,329,0.875,0.367,0.277,0.427,-0.305,-0.183,52.855,-62.441,-161.038,-26.793,-14.113,0.993,29.87,0.3541,-0.39496,-0.45184,-0.71716,323
82,0.998,0.188,0.075,0.122,-0.244,0.0,66.901,-78.613,94.653,-24.66,-8.7,-3.24,27.3,-0.17929,-0.67773,0.04349,-0.7117,332,0.649,0.22,0.736,0.427,-0.061,0.366,16.32,-40.38,-120.811,-21.967,-9.667,1.547,24.03,-0.50183,0.23096,0.28528,0.78314,326,0.577,0.225,0.783,0.305,0.793,-0.122,15.557,-35.392,174.435,-16.46,-12.753,-21.727,28.37,0.00443,0.30765,0.1138,0.94461,336,0.875,0.368,0.273,0.305,-0.244,-0.183,52.872,-62.435,-161.054,-26.793,-14.113,0.993,29.87,0.3541,-0.39496,-0.45184,-0.71716,330
83,0.998,0.187,0.075,0.061,-0.244,0.0,66.929,-78.613,94.636,-24.66,-8.7,-3.24,27.3,-0.17929,-0.67773,0.04349,-0.7117,333,0.65,0.22,0.734,0.244,-0.061,0.305,16.32,-40.38,-120.811,-21.967,-9.667,1.547,24.03,-0.50183,0.23096,0.28528,0.78314,327,0.577,0.225,0.783,0.793,0.427,0.488,15.562,-35.381,174.413,-16.46,-12.753,-21.727,28.37,0.00443,0.30765,0.1138,0.94461,337,0.876,0.369,0.273,0.183,-0.244,-0.061,52.883,-62.441,-161.054,-26.793,-14.113,0.993,29.87,0.3541,-0.39496,-0.45184,-0.71716,331
84,0.999,0.188,0.075,0.061,-0.122,0.0,66.945,-78.613,94.636,-24.66,-8.7,-3.24,27.3,-0.18063,-0.67773,0.04446,-0.7113,340,0.65,0.221,0.733,0.183,-0.244,0.305,16.326,-40.386,-120.817,-21.967,-9.667,1.547,24.03,-0.50183,0.23096,0.28528,0.78314,338,0.577,0.218,0.783,0.549,0.427,0.549,15.568,-35.376,174.435,-16.46,-12.753,-21.727,28.37,0.00443,0.30765,0.1138,0.94461,342,0.875,0.368,0.271,0.122,-0.305,-0.061,52.899,-62.441,-161.065,-26.793,-14.113,0.993,29.87,0.3541,-0.39496,-0.45184,-0.71716,334
85,0.998,0.187,0.075,0.0,0.0,0.061,66.951,-78.613,94.653,-24.66,-8.7,-3.24,27.3,-0.18063,-0.67773,0.04446,-0.7113,341,0.65,0.219,0.732,0.183,-0.183,0.366,16.326,-40.391,-120.822,-21.967,-9.667,1.547,24.03,-0.50183,0.23096,0.28528,0.78314,339,0.579,0.217,0.782,0.0,0.061,0.061,15.573,-35.376,174.452,-16.46,-12.753,-21.727,28.37,0.00443,0.30765,0.1138,0.94461,343,0.875,0.367,0.271,0.183,-0.244,0.0,52.91,-62.441,-161.071,-26.793,-14.113,0.993,29.87,0.3541,-0.39496,-0.45184,-0.71716,335
86,0.998,0.186,0.074,0.0,0.0,0.0,66.956,-78.618,94.697,-24.66,-8.7,-3.24,27.3,-0.18063,-0.67773,0.04446,-0.7113,348,0.649,0.217,0.731,0.061,-0.183,0.305,16.326,-40.397,-120.833,-21.967,-9.667,1.547,24.03,-0.50183,0.23096,0.28528,0.78314,344,0.575,0.22,0.782,0.183,0.0,0.0,15.573,-35.376,174.446,-16.46,-12.753,-21.727,28.37,0.00443,0.30765,0.1138,0.94461,352,0.875,0.367,0.271,0.244,-0.122,-0.061,52.927,-62.441,-161.071,-26.793,-14.113,0.993,29.87,0.3541,-0.39496,-0.45184,-0.71716,346
87,0.997,0.185,0.075,0.0,0.0,0.0,66.967,-78.618,94.686,-24.66,-8.7,-3.24,27.3,-0.18063,-0.67773,0.04446,-0.7113,349,0.649,0.215,0.731,-0.122,-0.244,0.122,16.326,-40.397,-120.85,-21.967,-9.667,1.547,24.03,-0.50183,0.23096,0.28528,0.78314,345,0.576,0.219,0.784,-0.061,-0.122,0.244,15.573,-35.376,174.441,-16.46,-12.753,-21.727,28.37,0.00443,0.30765,0.1138,0.94461,353,0.875,0.366,0.271,0.122,-0.122,-0.061,52.938,-62.441,-161.082,-26.793,-14.113,0.993,29.87,0.3541,-0.39496,-0.45184,-0.71716,347
88,0.997,0.185,0.075,-0.122,-0.061,0.0,66.978,-78.618,94.647,-24.66,-8.7,-3.24,27.3,-0.18063,-0.67773,0.04446,-0.7113,354,0.646,0.216,0.731,-0.244,-0.244,0.0,16.326,-40.402,-120.866,-21.913,-9.847,0.733,24.03,-0.50183,0.23096,0.28528,0.78314,350,0.577,0.218,0.783,0.427,0.0,-0.061,15.579,-35.381,174.441,-16.46,-12.753,-21.727,28.37,0.00443,0.30765,0.1138,0.94461,358,0.874,0.365,0.272,0.061,-0.061,-0.122,52.949,-62.441,-161.087,-26.793,-14.113,0.993,29.87,0.3541,-0.39496,-0.45184,-0.71716,360
89,0.997,0.186,0.077,-0.061,-0.122,0.0,66.995,-78.618,94.603,-24.66,-8.7,-3.24,27.3,-0.18063,-0.67773,0.04446,-0.7113,355,0.647,0.215,0.734,-0.061,-0.244,0.0,16.326,-40.408,-120.883,-21.913,-9.847,0.733,24.03,-0.50183,0.23096,0.28528,0.78314,351,0.578,0.223,0.782,0.122,-0.061,-0.244,15.59,-35.381,174.474,-16.46,-12.753,-21.727,28.37,0.00443,0.30765,0.1138,0.94461,359,0.874,0.366,0.273,0.061,-0.122,-0.122,52.96,-62.441,-161.098,-26.793,-14.113,0.993,29.87,0.3541,-0.39496,-0.45184,-0.71716,361
90,0.998,0.185,0.078,0.0,-0.244,0.061,67.017,-78.618,94.592,-24.66,-8.7,-3.24,27.3,-0.18063,-0.67773,0.04446,-0.7113,364,0.649,0.216,0.734,0.061,-0.366,0.061,16.331,-40.413,-120.899,-21.913,-9.847,0.733,24.03,-0.50183,0.23096,0.28528,0.78314,356,0.577,0.223,0.781,-0.244,0.0,-0.183,15.59,-35.376,174.512,-16.46,-12.753,-21.727,28.37,0.00443,0.30765,0.1138,0.94461,366,0.874,0.366,0.274,0.122,-0.244,-0.061,52.971,-62.441,-161.104,-26.793,-14.113,0.993,29.87,0.3541,-0.39496,-0.45184,-0.71716,362
91,0.999,0.185,0.079,0.061,-0.244,0.061,67.044,-78.624,94.554,-24.66,-8.7,-3.24,27.3,-0.18063,-0.67773,0.04446,-0.7113,365,0.648,0.219,0.731,0.122,-0.366,0.0,16.337,-40.419,-120.916,-21.913,-9.847,0.733,24.03,-0.50183,0.23096,0.28528,0.78314,357,0.578,0.22,0.78,0.122,0.244,-0.061,15.595,-35.376,174.556,-16.46,-12.753,-21.727,28.37,0.00443,0.30765,0.1138,0.94461,367,0.875,0.365,0.275,0.305,-0.244,0.0,52.987,-62.446,-161.109,-26.793,-14.113,0.993,29.87,0.3541,-0.39496,-0.45184,-0.71716,363
92,0.998,0.186,0.079,0.0,-0.122,0.122,67.066,-78.624,94.493,-24.66,-8.7,-3.24,27.3,-0.18063,-0.67773,0.04446,-0.7113,368,0.649,0.218,0.731,0.122,-0.305,0.061,16.342,-40.424,-120.927,-21.913,-9.847,0.733,24.03,-0.50073,0.23169,0.28458,0.78391,372,0.578,0.219,0.778,0.0,0.671,-0.061,15.595,-35.365,174.595,-16.58,-12.667,-21.1,28.37,0.00443,0.30765,0.1138,0.94461,374,0.875,0.365,0.275,0.244,-0.305,0.0,53.004,-62.446,-161.12,-26.793,-14.113,0.993,29.87,0.3541,-0.39496,-0.45184,-0.71716,370
93,0.999,0.186,0.079,-0.122,-0.061,0.061,67.077,-78.629,94.499,-24.66,-8.7,-3.24,27.3,-0.18063,-0.67773,0.04446,-0.7113,369,0.65,0.216,0.731,0.061,-0.244,0.122,16.342,-40.424,-120.938,-21.913,-9.847,0.733,24.03,-0.50073,0.23169,0.28458,0.78391,373,0.579,0.217,0.777,0.0,0.854,0.0,15.595,-35.349,174.617,-16.58,-12.667,-21.1,28.37,0.00443,0.30765,0.1138,0.94461,375,0.875,0.365,0.275,0.183,-0.183,0.0,53.015,-62.452,-161.125,-26.793,-14.113,0.993,29.87,0.3541,-0.39496,-0.45184,-0.71716,371
94,1.0,0.184,0.079,-0.122,0.0,0.0,67.083,-78.629,94.51,-24.66,-8.7,-3.24,27.3,-0.18063,-0.67773,0.04446,-0.7113,378,0.65,0.216,0.73,-0.122,-0.061,0.122,16.342,-40.424,-120.943,-21.913,-9.847,0.733,24.03,-0.50073,0.23169,0.28458,0.78391,380,0.579,0.216,0.782,-0.549,0.977,-0.061,15.584,-35.332,174.611,-16.58,-12.667,-21.1,28.37,0.00443,0.30765,0.1138,0.94461,384,0.875,0.366,0.275,0.0,-0.061,0.0,53.02,-62.452,-161.131,-26.527,-13.767,1.153,29.87,0.3541,-0.39496,-0.45184,-0.71716,376
95,0.999,0.183,0.078,0.0,0.061,-0.061,67.083,-78.629,94.537,-24.66,-8.7,-3.24,27.3,-0.18063,-0.67773,0.04446,-0.7113,379,0.65,0.213,0.728,-0.366,0.0,0.061,16.337,-40.424,-120.954,-21.913,-9.847,0.733,24.03,-0.50073,0.23169,0.28458,0.78391,381,0.576,0.22,0.783,-0.183,0.854,-0.061,15.579,-35.316,174.628,-16.58,-12.667,-21.1,28.37,0.00443,0.30765,0.1138,0.94461,385,0.876,0.364,0.276,-0.061,0.0,0.0,53.02,-62.452,-161.136,-26.527,-13.767,1.153,29.87,0.3541,-0.39496,-0.45184,-0.71716,377
96,0.998,0.182,0.078,-0.122,0.244,-0.122,67.077,-78.624,94.455,-24.66,-8.7,-3.24,27.3,-0.18063,-0.67773,0.04446,-0.7113,386,0.649,0.213,0.731,-0.427,0.183,0.0,16.326,-40.424,-120.97,-21.913,-9.847,0.733,24.03,-0.50073,0.23169,0.28458,0.78391,382,0.573,0.216,0.786,0.183,0.732,0.854,15.568,-35.305,174.65,-16.58,-12.667,-21.1,28.37,0.00314,0.30621,0.1149,0.94495,392,0.877,0.363,0.275,-0.122,0.122,-0.061,53.02,-62.446,-161.147,-26.527,-13.767,1.153,29.87,0.3541,-0.39496,-0.45184,-0.71716,388
97,0.996,0.184,0.076,0.0,0.122,-0.122,67.061,-78.624,94.334,-24.66,-8.7,-3.24,27.3,-0.18063,-0.67773,0.04446,-0.7113,387,0.649,0.213,0.733,-0.244,0.244,0.0,16.32,-40.419,-120.987,-21.913,-9.847,0.733,24.03,-0.50073,0.23169,0.28458,0.78391,383,0.577,0.221,0.785,0.366,0.793,0.427,15.568,-35.294,174.699,-16.58,-12.667,-21.1,28.37,0.00314,0.30621,0.1149,0.94495,393,0.875,0.36,0.274,0.0,0.122,-0.061,53.015,-62.446,-161.164,-26.527,-13.767,1.153,29.87,0.3541,-0.39496,-0.45184,-0.71716,389
98,0.999,0.185,0.075,0.0,0.0,-0.061,67.055,-78.618,94.268,-24.493,-8.293,-3.78,27.3,-0.18063,-0.67773,0.04446,-0.7113,394,0.647,0.213,0.734,-0.061,0.183,0.244,16.315,-40.413,-120.998,-21.913,-9.847,0.733,24.03,-0.50073,0.23169,0.28458,0.78391,390,0.582,0.222,0.786,0.305,1.221,0.122,15.568,-35.277,174.76,-16.58,-12.667,-21.1,28.37,0.00314,0.30621,0.1149,0.94495,398,0.873,0.365,0.274,0.061,0.183,-0.061,53.009,-62.441,-161.175,-26.527,-13.767,1.153,29.87,0.35342,-0.39514,-0.45242,-0.71704,400
99,1.002,0.186,0.074,0.122,0.122,0.0,67.061,-78.618,94.252,-24.493,-8.293,-3.78,27.3,-0.18063,-0.67773,0.04446,-0.7113,395,0.649,0.218,0.735,0.0,0.183,0.244,16.315,-40.413,-121.009,-21.913,-9.847,0.733,24.03,-0.50073,0.23169,0.28458,0.78391,391,0.576,0.225,0.786,0.122,0.549,0.183,15.568,-35.266,174.814,-16.58,-12.667,-21.1,28.37,0.00314,0.30621,0.1149,0.94495,399,0.875,0.368,0.271,0.0,0.244,0.0,53.004,-62.441,-161.18,-26.527,-13.767,1.153,29.87,0.35342,-0.39514,-0.45242,-0.71704,401
100,0.999,0.187,0.075,0.122,0.183,0.0,67.055,-78.618,94.307,-24.493,-8.293,-3.78,27.3,-0.18216,-0.6778,0.0459,-0.71078,404,0.654,0.218,0.733,0.183,0.122,0.122,16.315,-40.413,-121.025,-21.913,-9.847,0.733,24.03,-0.50073,0.23169,0.28458,0.78391,396,0.573,0.223,0.785,0.244,0.366,0.732,15.562,-35.261,174.831,-16.58,-12.667,-21.1,28.37,0.00314,0.30621,0.1149,0.94495,406,0.879,0.366,0.272,0.122,0.183,0.0,53.004,-62.435,-161.175,-26.527,-13.767,1.153,29.87,0.35342,-0.39514,-0.45242,-0.71704,402
101,0.996,0.185,0.075,0.122,0.305,0.061,67.044,-78.618,94.411,-24.493,-8.293,-3.78,27.3,-0.18216,-0.6778,0.0459,-0.71078,405,0.652,0.218,0.732,0.122,0.061,0.061,16.32,-40.408,-121.036,-21.913,-9.847,0.733,24.03,-0.50073,0.23169,0.28458,0.78391,397,0.574,0.222,0.786,-0.61,0.427,0.793,15.546,-35.255,174.847,-16.58,-12.667,-21.1,28.37,0.00314,0.30621,0.1149,0.94495,407,0.876,0.365,0.273,0.061,0.061,0.061,53.004,-62.435,-161.175,-26.527,-13.767,1.153,29.87,0.35342,-0.39514,-0.45242,-0.71704,403
102,0.997,0.185,0.074,0.061,0.305,0.0,67.022,-78.618,94.482,-24.493,-8.293,-3.78,27.3,-0.18216,-0.6778,0.0459,-0.71078,412,0.648,0.217,0.733,0.183,0.122,0.366,16.315,-40.408,-121.042,-21.913,-9.847,0.733,24.03,-0.50073,0.23169,0.28458,0.78391,408,0.573,0.217,0.784,-0.244,0.0,1.404,15.524,-35.261,174.853,-16.58,-12.667,-21.1,28.37,0.00314,0.30621,0.1149,0.94495,416,0.874,0.363,0.271,0.183,0.122,0.061,53.004,-62.435,-161.18,-26.527,-13.767,1.153,29.87,0.35342,-0.39514,-0.45242,-0.71704,410
103,0.997,0.186,0.074,0.305,0.122,0.0,67.011,-78.613,94.548,-24.493,-8.293,-3.78,27.3,-0.18216,-0.6778,0.0459,-0.71078,413,0.647,0.215,0.732,0.183,0.183,0.732,16.309,-40.408,-121.042,-21.913,-9.847,0.733,24.03,-0.50073,0.23169,0.28458,0.78391,409,0.573,0.214,0.785,-0.183,-0.122,1.038,15.507,-35.272,174.853,-16.58,-12.667,-21.1,28.37,0.00314,0.30621,0.1149,0.94495,417,0.874,0.364,0.272,0.427,0.061,0.061,53.009,-62.441,-161.191,-26.527,-13.767,1.153,29.87,0.35342,-0.39514,-0.45242,-0.71704,411
104,0.996,0.186,0.076,0.183,0.061,0.0,67.017,-78.613,94.559,-24.493,-8.293,-3.78,27.3,-0.18216,-0.6778,0.0459,-0.71078,420,0.648,0.214,0.734,0.183,0.061,0.793,16.304,-40.413,-121.042,-21.913,-9.847,0.733,24.03,-0.50073,0.23169,0.28458,0.78391,414,0.571,0.217,0.784,0.0,-0.061,0.549,15.496,-35.277,174.858,-16.58,-12.667,-21.1,28.37,0.00314,0.30621,0.1149,0.94495,422,0.874,0.367,0.272,0.549,0.0,0.0,53.02,-62.441,-161.202,-26.527,-13.767,1.153,29.87,0.35342,-0.39514,-0.45242,-0.71704,418
105,0.996,0.188,0.077,-0.061,0.0,0.0,67.028,-78.613,94.537,-24.493,-8.293,-3.78,27.3,-0.18216,-0.6778,0.0459,-0.71078,421,0.646,0.214,0.732,0.244,0.0,0.61,16.298,-40.413,-121.042,-21.913,-9.847,0.733,24.03,-0.50073,0.23169,0.28458,0.78391,415,0.574,0.22,0.785,0.244,0.0,0.305,15.496,-35.277,174.858,-16.58,-12.667,-21.1,28.37,0.00314,0.30621,0.1149,0.94495,423,0.872,0.369,0.272,0.305,0.0,0.061,53.031,-62.441,-161.208,-26.527,-13.767,1.153,29.87,0.35342,-0.39514,-0.45242,-0.71704,419
106,0.996,0.187,0.078,0.0,-0.122,0.0,67.039,-78.613,94.631,-24.493,-8.293,-3.78,27.3,-0.18216,-0.6778,0.0459,-0.71078,426,0.646,0.216,0.734,0.366,-0.183,0.366,16.304,-40.419,-121.042,-21.807,-9.767,1.153,24.03,-0.50073,0.23169,0.28458,0.78391,428,0.573,0.221,0.785,0.366,0.183,0.366,15.502,-35.277,174.864,-16.58,-12.667,-21.1,28.37,0.00314,0.30621,0.1149,0.94495,430,0.871,0.368,0.274,0.183,0.0,0.0,53.036,-62.441,-161.208,-26.527,-13.767,1.153,29.87,0.35342,-0.39514,-0.45242,-0.71704,424
107,0.998,0.185,0.079,0.061,-0.244,0.0,67.061,-78.618,94.735,-24.493,-8.293,-3.78,27.3,-0.18216,-0.6778,0.0459,-0.71078,427,0.648,0.216,0.732,0.427,-0.244,0.244,16.309,-40.424,-121.031,-21.807,-9.767,1.153,24.03,-0.50073,0.23169,0.28458,0.78391,429,0.573,0.224,0.786,-0.244,-0.183,0.183,15.496,-35.277,174.88,-16.58,-12.667,-21.1,28.37,0.00314,0.30621,0.1149,0.94495,431,0.872,0.367,0.275,0.183,-0.061,0.0,53.047,-62.441,-161.202,-26.527,-13.767,1.153,29.87,0.35342,-0.39514,-0.45242,-0.71704,425
108,0.997,0.185,0.08,0.0,-0.244,0.0,67.088,-78.618,94.796,-24.493,-8.293,-3.78,27.3,-0.18216,-0.6778,0.0459,-0.71078,436,0.646,0.219,0.733,0.366,0.0,0.305,16.315,-40.43,-121.031,-21.807,-9.767,1.153,24.03,-0.49985,0.23218,0.28427,0.78442,432,0.574,0.22,0.782,0.0,0.061,0.549,15.491,-35.277,174.902,-16.58,-12.667,-21.1,28.37,0.00314,0.30621,0.1149,0.94495,438,0.874,0.366,0.275,0.244,-0.183,0.0,53.058,-62.441,-161.219,-26.527,-13.767,1.153,29.87,0.35342,-0.39514,-0.45242,-0.71704,434
109,0.997,0.186,0.079,-0.061,-0.305,0.0,67.115,-78.618,94.856,-24.493,-8.293,-3.78,27.3,-0.18216,-0.6778,0.0459,-0.71078,437,0.648,0.217,0.732,0.549,0.061,0.427,16.32,-40.43,-121.025,-21.807,-9.767,1.153,24.03,-0.49985,0.23218,0.28427,0.78442,433,0.579,0.214,0.783,-0.183,0.305,0.488,15.485,-35.272,174.913,-16.58,-12.667,-21.1,28.37,0.00314,0.30621,0.1149,0.94495,439,0.874,0.367,0.276,0.305,-0.183,0.0,53.069,-62.441,-161.23,-26.527,-13.767,1.153,29.87,0.35342,-0.39514,-0.45242,-0.71704,435
110,0.999,0.187,0.079,0.0,-0.244,0.0,67.143,-78.618,94.889,-24.493,-8.293,-3.78,27.3,-0.18216,-0.6778,0.0459,-0.71078,444,0.649,0.214,0.731,0.488,0.122,0.366,16.326,-40.424,-121.02,-21.807,-9.767,1.153,24.03,-0.49985,0.23218,0.28427,0.78442,440,0.577,0.217,0.781,0.183,0.061,-0.122,15.485,-35.272,174.924,-16.593,-12.647,-21.893,28.37,0.00314,0.30621,0.1149,0.94495,454,0.874,0.366,0.276,0.183,-0.183,0.0,53.08,-62.441,-161.257,-26.527,-13.767,1.153,29.87,0.35342,-0.39514,-0.45242,-0.71704,442
111,1.0,0.185,0.078,0.0,-0.122,0.0,67.165,-78.624,94.872,-24.493,-8.293,-3.78,27.3,-0.18216,-0.6778,0.0459,-0.71078,445,0.651,0.214,0.73,0.305,0.061,0.061,16.331,-40.424,-121.014,-21.807,-9.767,1.153,24.03,-0.49985,0.23218,0.28427,0.78442,441,0.576,0.223,0.784,0.244,0.0,0.183,15.491,-35.272,174.886,-16.593,-12.647,-21.893,28.37,0.00314,0.30621,0.1149,0.94495,455,0.875,0.367,0.274,0.061,0.0,0.0,53.08,-62.441,-161.279,-26.527,-13.767,1.153,29.87,0.35342,-0.39514,-0.45242,-0.71704,443
112,0.999,0.183,0.077,0.0,0.0,0.0,67.176,-78.624,94.834,-24.327,-8.507,-3.113,27.3,-0.18216,-0.6778,0.0459,-0.71078,450,0.651,0.217,0.731,0.427,0.061,0.061,16.337,-40.424,-121.014,-21.807,-9.767,1.153,24.03,-0.49985,0.23218,0.28427,0.78442,446,0.578,0.22,0.785,0.0,0.183,0.488,15.491,-35.272,174.847,-16.593,-12.647,-21.893,28.37,0.00162,0.30566,0.11481,0.94513,462,0.877,0.367,0.273,0.061,0.0,0.0,53.086,-62.441,-161.285,-26.46,-13.933,1.227,29.87,0.35342,-0.39514,-0.45242,-0.71704,448
113,0.998,0.184,0.075,0.061,0.061,0.0,67.176,-78.624,94.79,-24.327,-8.507,-3.113,27.3,-0.18216,-0.6778,0.0459,-0.71078,451,0.651,0.217,0.733,0.305,0.183,0.122,16.342,-40.419,-121.009,-21.807,-9.767,1.153,24.03,-0.49985,0.23218,0.28427,0.78442,447,0.578,0.218,0.785,0.061,0.0,0.061,15.491,-35.272,174.825,-16.593,-12.647,-21.893,28.37,0.00162,0.30566,0.11481,0.94513,463,0.877,0.365,0.274,-0.061,0.0,0.0,53.086,-62.441,-161.301,-26.46,-13.933,1.227,29.87,0.35342,-0.39514,-0.45242,-0.71704,449
114,0.998,0.185,0.073,0.122,0.0,0.0,67.176,-78.624,94.752,-24.327,-8.507,-3.113,27.3,-0.17859,-0.67816,0.04248,-0.71155,458,0.65,0.216,0.732,0.061,0.183,0.183,16.348,-40.419,-121.009,-21.807,-9.767,1.153,24.03,-0.49985,0.23218,0.28427,0.78442,452,0.577,0.222,0.783,-0.427,-0.183,0.427,15.48,-35.277,174.781,-16.593,-12.647,-21.893,28.37,0.00162,0.30566,0.11481,0.94513,464,0.876,0.364,0.272,-0.061,0.183,0.0,53.08,-62.435,-161.307,-26.46,-13.933,1.227,29.87,0.35342,-0.39514,-0.45242,-0.71704,456
115,0.997,0.185,0.073,0.244,0.0,0.0,67.181,-78.624,94.708,-24.327,-8.507,-3.113,27.3,-0.17859,-0.67816,0.04248,-0.71155,459,0.649,0.216,0.731,0.0,0.122,0.183,16.348,-40.413,-121.009,-21.807,-9.767,1.153,24.03,-0.49985,0.23218,0.28427,0.78442,453,0.572,0.22,0.783,-0.854,0.0,0.366,15.463,-35.277,174.732,-16.593,-12.647,-21.893,28.37,0.00162,0.30566,0.11481,0.94513,465,0.875,0.365,0.271,0.183,0.122,0.0,53.08,-62.435,-161.318,-26.46,-13.933,1.227,29.87,0.35342,-0.39514,-0.45242,-0.71704,457
116,0.997,0.183,0.073,0.244,0.0,0.0,67.192,-78.624,94.664,-24.327,-8.507,-3.113,27.3,-0.17859,-0.67816,0.04248,-0.71155,466,0.647,0.217,0.732,0.0,0.122,0.305,16.342,-40.413,-120.998,-21.807,-9.767,1.153,24.03,-0.49985,0.23218,0.28427,0.78442,460,0.575,0.215,0.784,0.0,0.122,0.488,15.452,-35.277,174.694,-16.593,-12.647,-21.893,28.37,0.00162,0.30566,0.11481,0.94513,472,0.874,0.363,0.271,0.366,0.0,0.0,53.08,-62.435,-161.334,-26.46,-13.933,1.227,29.87,0.35266,-0.39551,-0.45227,-0.71732,470
117,0.997,0.183,0.074,0.183,-0.061,0.0,67.203,-78.624,94.625,-24.327,-8.507,-3.113,27.3,-0.17859,-0.67816,0.04248,-0.71155,467,0.647,0.214,0.733,0.183,0.0,0.549,16.342,-40.413,-120.992,-21.807,-9.767,1.153,24.03,-0.49985,0.23218,0.28427,0.78442,461,0.578,0.216,0.785,-0.122,0.0,0.488,15.447,-35.283,174.628,-16.593,-12.647,-21.893,28.37,0.00162,0.30566,0.11481,0.94513,473,0.874,0.363,0.272,0.488,-0.061,0.0,53.091,-62.435,-161.334,-26.46,-13.933,1.227,29.87,0.35266,-0.39551,-0.45227,-0.71732,471
118,0.998,0.185,0.074,0.183,-0.122,0.0,67.225,-78.624,94.57,-24.327,-8.507,-3.113,27.3,-0.17859,-0.67816,0.04248,-0.71155,476,0.649,0.214,0.732,0.305,0.0,0.549,16.337,-40.413,-120.987,-21.807,-9.767,1.153,24.03,-0.49985,0.23218,0.28427,0.78442,468,0.577,0.216,0.782,0.488,0.061,0.366,15.452,-35.283,174.578,-16.593,-12.647,-21.893,28.37,0.00162,0.30566,0.11481,0.94513,478,0.875,0.364,0.271,0.427,-0.061,0.0,53.102,-62.435,-161.329,-26.46,-13.933,1.227,29.87,0.35266,-0.39551,-0.45227,-0.71732,474
119,1.0,0.186,0.075,0.244,-0.122,0.0,67.247,-78.624,94.521,-24.327,-8.507,-3.113,27.3,-0.17859,-0.67816,0.04248,-0.71155,477,0.649,0.215,0.732,0.427,-0.061,0.488,16.337,-40.419,-120.981,-21.807,-9.767,1.153,24.03,-0.49985,0.23218,0.28427,0.78442,469,0.575,0.219,0.783,0.183,0.0,0.549,15.452,-35.283,174.606,-16.593,-12.647,-21.893,28.37,0.00162,0.30566,0.11481,0.94513,479,0.876,0.366,0.271,0.488,-0.183,0.0,53.119,-62.435,-161.323,-26.46,-13.933,1.227,29.87,0.35266,-0.39551,-0.45227,-0.71732,475
120,0.999,0.186,0.076,0.122,-0.061,0.0,67.264,-78.629,94.471,-24.327,-8.507,-3.113,27.3,-0.17859,-0.67816,0.04248,-0.71155,484,0.649,0.216,0.731,0.366,-0.183,0.427,16.337,-40.419,-120.981,-21.807,-9.767,1.153,24.03,-0.49985,0.23218,0.28427,0.78442,482,0.575,0.222,0.785,0.488,0.305,0.305,15.452,-35.283,174.617,-16.593,-12.647,-21.893,28.37,0.00162,0.30566,0.11481,0.94513,488,0.876,0.367,0.272,0.427,-0.183,0.0,53.135,-62.441,-161.323,-26.46,-13.933,1.227,29.87,0.35266,-0.39551,-0.45227,-0.71732,480
121,0.998,0.186,0.077,-0.061,-0.061,0.305,67.275,-78.629,94.433,-24.327,-8.507,-3.113,27.3,-0.17859,-0.67816,0.04248,-0.71155,485,0.648,0.218,0.732,0.366,-0.061,0.488,16.337,-40.424,-120.981,-21.807,-9.767,1.153,24.03,-0.49985,0.23218,0.28427,0.78442,483,0.577,0.219,0.784,-0.549,0.0,0.61,15.441,-35.283,174.617,-16.593,-12.647,-21.893,28.37,0.00162,0.30566,0.11481,0.94513,489,0.875,0.366,0.273,0.244,-0.183,0.0,53.152,-62.441,-161.323,-26.46,-13.933,1.227,29.87,0.35266,-0.39551,-0.45227,-0.71732,481
122,0.999,0.184,0.078,-0.061,0.0,0.244,67.269,-78.64,94.4,-24.327,-8.507,-3.113,27.3,-0.17859,-0.67816,0.04248,-0.71155,494,0.651,0.216,0.732,0.244,-0.061,0.549,16.337,-40.43,-120.976,-22.293,-9.907,1.147,24.03,-0.49985,0.23218,0.28427,0.78442,486,0.578,0.218,0.783,-0.488,0.366,0.61,15.425,-35.283,174.606,-16.593,-12.647,-21.893,28.37,0.00162,0.30566,0.11481,0.94513,492,0.876,0.364,0.274,0.244,-0.122,0.0,53.163,-62.446,-161.318,-26.46,-13.933,1.227,29.87,0.35266,-0.39551,-0.45227,-0.71732,490
123,0.999,0.184,0.077,0.0,0.0,0.244,67.264,-78.64,94.367,-24.327,-8.507,-3.113,27.3,-0.17859,-0.67816,0.04248,-0.71155,495,0.65,0.216,0.73,0.061,0.061,0.549,16.337,-40.43,-120.97,-22.293,-9.907,1.147,24.03,-0.49985,0.23218,0.28427,0.78442,487,0.574,0.218,0.783,0.0,0.427,0.244,15.419,-35.277,174.617,-16.593,-12.647,-21.893,28.37,0.00162,0.30566,0.11481,0.94513,493,0.876,0.367,0.273,0.183,-0.061,0.0,53.168,-62.446,-161.318,-26.46,-13.933,1.227,29.87,0.35266,-0.39551,-0.45227,-0.71732,491
124,0.999,0.183,0.077,0.122,0.0,0.183,67.264,-78.646,94.34,-24.327,-8.507,-3.113,27.3,-0.17859,-0.67816,0.04248,-0.71155,504,0.649,0.216,0.733,0.122,0.183,0.427,16.331,-40.435,-120.965,-22.293,-9.907,1.147,24.03,-0.49985,0.23218,0.28427,0.78442,496,0.574,0.21,0.783,0.122,0.122,0.732,15.414,-35.277,174.644,-16.593,-12.647,-21.893,28.37,0.00162,0.30566,0.11481,0.94513,500,0.876,0.364,0.273,0.061,0.0,0.0,53.174,-62.446,-161.312,-26.46,-13.933,1.227,29.87,0.35266,-0.39551,-0.45227,-0.71732,498
125,0.995,0.184,0.078,0.061,0.061,0.122,67.258,-78.651,94.312,-24.327,-8.507,-3.113,27.3,-0.17859,-0.67816,0.04248,-0.71155,505,0.647,0.21,0.729,0.0,0.122,0.427,16.326,-40.43,-120.965,-22.293,-9.907,1.147,24.03,-0.49985,0.23218,0.28427,0.78442,497,0.573,0.219,0.783,-0.305,0.061,0.488,15.403,-35.277,174.688,-16.593,-12.647,-21.893,28.37,0.00162,0.30566,0.11481,0.94513,501,0.873,0.364,0.274,0.244,0.0,0.0,53.179,-62.446,-161.301,-26.46,-13.933,1.227,29.87,0.35266,-0.39551,-0.45227,-0.71732,499
126,0.997,0.184,0.075,0.0,0.0,0.122,67.253,-78.651,94.279,-24.327,-8.507,-3.113,27.3,-0.17859,-0.67816,0.04248,-0.71155,508,0.648,0.215,0.733,-0.305,0.122,0.305,16.315,-40.43,-120.959,-22.293,-9.907,1.147,24.03,-0.50031,0.23199,0.28448,0.78412,502,0.584,0.216,0.784,-0.305,0.61,0.0,15.392,-35.272,174.721,-16.593,-12.647,-21.893,28.37,0.00162,0.30566,0.11481,0.94513,512,0.873,0.367,0.272,-0.061,0.122,0.0,53.179,-62.446,-161.296,-26.46,-13.933,1.227,29.87,0.35266,-0.39551,-0.45227,-0.71732,506
127,1.001,0.185,0.073,-0.061,0.0,0.244,67.247,-78.657,94.252,-24.327,-8.507,-3.113,27.3,-0.17859,-0.67816,0.04248,-0.71155,509,0.652,0.216,0.731,-0.244,0.244,0.122,16.309,-40.43,-120.965,-22.293,-9.907,1.147,24.03,-0.50031,0.23199,0.28448,0.78412,503,0.575,0.219,0.786,-0.366,0.305,-0.183,15.386,-35.261,174.771,-16.593,-12.647,-21.893,28.37,0.00162,0.30566,0.11481,0.94513,513,0.877,0.366,0.27,0.0,0.183,0.0,53.179,-62.446,-161.285,-26.46,-13.933,1.227,29.87,0.35266,-0.39551,-0.45227,-0.71732,507
128,1.001,0.185,0.074,0.183,0.061,0.244,67.242,-78.662,94.224,-24.227,-8.48,-3.253,27.3,-0.17859,-0.67816,0.04248,-0.71155,516,0.652,0.216,0.731,-0.122,0.061,0.0,16.304,-40.424,-120.97,-22.293,-9.907,1.147,24.03,-0.50031,0.23199,0.28448,0.78412,510,0.573,0.217,0.788,0.549,0.305,0.244,15.392,-35.255,174.82,-16.593,-12.647,-21.893,28.37,0.00162,0.30566,0.11481,0.94513,522,0.879,0.367,0.271,0.061,0.061,0.0,53.174,-62.446,-161.268,-26.46,-13.933,1.227,29.87,0.35266,-0.39551,-0.45227,-0.71732,514
129,0.998,0.183,0.074,0.244,0.122,0.244,67.236,-78.662,94.208,-24.227,-8.48,-3.253,27.3,-0.17859,-0.67816,0.04248,-0.71155,517,0.649,0.215,0.736,0.183,0.0,0.122,16.304,-40.424,-120.976,-22.293,-9.907,1.147,24.03,-0.50031,0.23199,0.28448,0.78412,511,0.576,0.216,0.789,-0.183,0.0,0.366,15.386,-35.261,174.869,-16.593,-12.647,-21.893,28.37,0.00162,0.30566,0.11481,0.94513,523,0.876,0.363,0.271,0.122,0.0,0.0,53.174,-62.446,-161.263,-26.46,-13.933,1.227,29.87,0.35266,-0.39551,-0.45227,-0.71732,515
130,0.998,0.183,0.074,0.0,0.244,0.122,67.22,-78.668,94.197,-24.227,-8.48,-3.253,27.3,-0.18143,-0.6781,0.04568,-0.71066,524,0.648,0.213,0.734,0.183,0.061,0.305,16.304,-40.424,-120.981,-22.293,-9.907,1.147,24.03,-0.50031,0.23199,0.28448,0.78412,518,0.574,0.213,0.786,0.0,-0.061,0.366,15.386,-35.261,174.902,-16.453,-12.227,-21.213,28.37,0.00162,0.30566,0.11481,0.94513,532,0.875,0.363,0.271,0.305,0.0,0.0,53.179,-62.446,-161.257,-26.26,-13.933,1.753,29.87,0.35266,-0.39551,-0.45227,-0.71732,520
131,0.997,0.184,0.072,0.122,0.122,0.122,67.209,-78.668,94.18,-24.227,-8.48,-3.253,27.3,-0.18143,-0.6781,0.04568,-0.71066,525,0.648,0.213,0.734,0.061,0.0,0.305,16.304,-40.424,-120.981,-22.293,-9.907,1.147,24.03,-0.50031,0.23199,0.28448,0.78412,519,0.57,0.214,0.786,0.122,-0.305,0.366,15.386,-35.272,174.946,-16.453,-12.227,-21.213,28.37,0.00162,0.30566,0.11481,0.94513,533,0.875,0.366,0.271,0.488,0.0,0.0,53.19,-62.446,-161.252,-26.26,-13.933,1.753,29.87,0.35266,-0.39551,-0.45227,-0.71732,521
132,0.997,0.183,0.074,0.122,0.0,0.061,67.209,-78.673,94.153,-24.227,-8.48,-3.253,27.3,-0.18143,-0.6781,0.04568,-0.71066,530,0.646,0.211,0.733,0.061,0.0,0.183,16.298,-40.424,-120.981,-22.293,-9.907,1.147,24.03,-0.50031,0.23199,0.28448,0.78412,526,0.574,0.21,0.785,0.122,-0.183,0.122,15.386,-35.272,175.029,-16.453,-12.227,-21.213,28.37,0.00024,0.30548,0.1145,0.94522,536,0.874,0.365,0.271,0.366,-0.061,0.0,53.201,-62.446,-161.241,-26.26,-13.933,1.753,29.87,0.35266,-0.39551,-0.45227,-0.71732,528
133,0.997,0.183,0.075,0.0,0.0,0.0,67.22,-78.673,94.12,-24.227,-8.48,-3.253,27.3,-0.18143,-0.6781,0.04568,-0.71066,531,0.646,0.21,0.733,0.244,-0.183,0.061,16.298,-40.43,-120.987,-22.293,-9.907,1.147,24.03,-0.50031,0.23199,0.28448,0.78412,527,0.575,0.213,0.783,0.732,-0.244,0.0,15.397,-35.277,175.1,-16.453,-12.227,-21.213,28.37,0.00024,0.30548,0.1145,0.94522,537,0.875,0.363,0.271,0.183,-0.061,0.0,53.212,-62.452,-161.241,-26.26,-13.933,1.753,29.87,0.35266,-0.39551,-0.45227,-0.71732,529
134,0.997,0.183,0.076,0.0,-0.122,0.0,67.231,-78.673,94.081,-24.227,-8.48,-3.253,27.3,-0.18143,-0.6781,0.04568,-0.71066,538,0.647,0.211,0.732,0.305,-0.427,0.0,16.304,-40.43,-120.992,-22.293,-9.907,1.147,24.03,-0.50031,0.23199,0.28448,0.78412,534,0.575,0.215,0.785,0.0,-0.244,0.0,15.397,-35.283,175.172,-16.453,-12.227,-21.213,28.37,0.00024,0.30548,0.1145,0.94522,550,0.874,0.363,0.272,0.0,-0.122,0.0,53.218,-62.452,-161.235,-26.26,-13.933,1.753,29.87,0.35364,-0.3949,-0.45334,-0.71649,542
135,0.998,0.183,0.076,0.0,-0.183,0.0,67.253,-78.679,94.032,-24.227,-8.48,-3.253,27.3,-0.18143,-0.6781,0.04568,-0.71066,539,0.648,0.212,0.731,0.183,-0.61,-0.061,16.309,-40.441,-121.003,-22.293,-9.907,1.147,24.03,-0.50031,0.23199,0.28448,0.78412,535,0.576,0.217,0.784,-0.183,-0.122,-0.366,15.397,-35.283,175.221,-16.453,-12.227,-21.213,28.37,0.00024,0.30548,0.1145,0.94522,551,0.875,0.364,0.273,0.061,-0.183,0.0,53.223,-62.452,-161.235,-26.26,-13.933,1.753,29.87,0.35364,-0.3949,-0.45334,-0.71649,543
136,1.0,0.183,0.077,0.0,-0.183,-0.061,67.275,-78.679,93.983,-24.227,-8.48,-3.253,27.3,-0.18143,-0.6781,0.04568,-0.71066,544,0.649,0.214,0.731,0.122,-0.305,-0.122,16.315,-40.446,-121.02,-22.293,-9.907,1.147,24.03,-0.50031,0.23199,0.28448,0.78412,540,0.573,0.219,0.782,0.122,-0.366,0.0,15.403,-35.288,175.254,-16.453,-12.227,-21.213,28.37,0.00024,0.30548,0.1145,0.94522,554,0.876,0.364,0.274,0.122,-0.183,0.0,53.229,-62.457,-161.235,-26.26,-13.933,1.753,29.87,0.35364,-0.3949,-0.45334,-0.71649,546
137,0.999,0.183,0.078,-0.122,-0.122,0.0,67.291,-78.679,93.933,-24.227,-8.48,-3.253,27.3,-0.18143,-0.6781,0.04568,-0.71066,545,0.649,0.216,0.731,0.061,0.0,-0.061,16.32,-40.452,-121.031,-22.293,-9.907,1.147,24.03,-0.50031,0.23199,0.28448,0.78412,541,0.578,0.213,0.782,0.305,0.0,-0.061,15.408,-35.288,175.276,-16.453,-12.227,-21.213,28.37,0.00024,0.30548,0.1145,0.94522,555,0.876,0.365,0.274,0.061,-0.183,0.0,53.234,-62.457,-161.235,-26.26,-13.933,1.753,29.87,0.35364,-0.3949,-0.45334,-0.71649,547
138,0.998,0.184,0.078,-0.061,-0.122,-0.061,67.308,-78.679,93.889,-24.227,-8.48,-3.253,27.3,-0.18143,-0.6781,0.04568,-0.71066,556,0.65,0.214,0.732,0.061,-0.061,-0.061,16.32,-40.452,-121.042,-22.293,-9.907,1.147,24.03,-0.50031,0.23199,0.28448,0.78412,548,0.578,0.212,0.783,-0.305,-0.061,-0.549,15.408,-35.283,175.243,-16.453,-12.227,-21.213,28.37,0.00024,0.30548,0.1145,0.94522,560,0.875,0.364,0.273,0.0,-0.122,0.0,53.24,-62.463,-161.235,-26.26,-13.933,1.753,29.87,0.35364,-0.3949,-0.45334,-0.71649,552
139,0.999,0.184,0.077,-0.061,0.0,-0.183,67.313,-78.679,93.845,-24.227,-8.48,-3.253,27.3,-0.18143,-0.6781,0.04568,-0.71066,557,0.651,0.211,0.73,-0.122,0.0,-0.244,16.326,-40.446,-121.053,-22.293,-9.907,1.147,24.03,-0.50031,0.23199,0.28448,0.78412,549,0.57,0.223,0.783,-0.061,0.0,-0.183,15.414,-35.283,175.226,-16.453,-12.227,-21.213,28.37,0.00024,0.30548,0.1145,0.94522,561,0.876,0.365,0.273,0.0,0.0,0.0,53.24,-62.463,-161.23,-26.26,-13.933,1.753,29.87,0.35364,-0.3949,-0.45334,-0.71649,553
140,0.998,0.183,0.077,0.0,0.061,-0.183,67.319,-78.679,93.807,-24.227,-8.48,-3.253,27.3,-0.18143,-0.6781,0.04568,-0.71066,562,0.649,0.216,0.73,0.0,0.061,-0.305,16.326,-40.446,-121.069,-22.793,-9.6,0.72,24.03,-0.50031,0.23199,0.28448,0.78412,564,0.58,0.217,0.787,-0.122,-0.122,0.305,15.408,-35.288,175.21,-16.453,-12.227,-21.213,28.37,0.00024,0.30548,0.1145,0.94522,566,0.876,0.365,0.273,0.061,0.0,0.0,53.24,-62.463,-161.224,-26.26,-13.933,1.753,29.87,0.35364,-0.3949,-0.45334,-0.71649,558
141,0.999,0.183,0.076,0.0,0.183,-0.183,67.313,-78.673,93.779,-24.227,-8.48,-3.253,27.3,-0.18143,-0.6781,0.04568,-0.71066,563,0.65,0.216,0.734,0.244,0.061,-0.061,16.331,-40.441,-121.08,-22.793,-9.6,0.72,24.03,-0.50031,0.23199,0.28448,0.78412,565,0.577,0.216,0.785,0.0,0.0,-0.183,15.408,-35.288,175.221,-16.453,-12.227,-21.213,28.37,0.00024,0.30548,0.1145,0.94522,567,0.876,0.364,0.272,0.0,0.061,0.0,53.24,-62.463,-161.219,-26.26,-13.933,1.753,29.87,0.35364,-0.3949,-0.45334,-0.71649,559
142,0.998,0.184,0.074,0.0,0.122,-0.183,67.308,-78.668,93.757,-24.64,-8.607,-2.867,27.3,-0.18143,-0.6781,0.04568,-0.71066,570,0.65,0.215,0.732,0.183,0.061,0.0,16.337,-40.441,-121.086,-22.793,-9.6,0.72,24.03,-0.49951,0.23233,0.28433,0.78458,572,0.573,0.217,0.786,0.305,-0.183,0.061,15.414,-35.288,175.199,-16.453,-12.227,-21.213,28.37,0.00024,0.30548,0.1145,0.94522,574,0.877,0.365,0.271,0.0,0.122,0.0,53.234,-62.463,-161.208,-26.26,-13.933,1.753,29.87,0.35364,-0.3949,-0.45334,-0.71649,568
143,0.997,0.184,0.073,0.122,0.061,-0.183,67.308,-78.668,93.73,-24.64,-8.607,-2.867,27.3,-0.18143,-0.6781,0.04568,-0.71066,571,0.648,0.214,0.734,0.122,0.0,-0.061,16.337,-40.441,-121.091,-22.793,-9.6,0.72,24.03,-0.49951,0.23233,0.28433,0.78458,573,0.573,0.219,0.788,0.122,-0.061,0.0,15.419,-35.288,175.193,-16.453,-12.227,-21.213,28.37,0.00024,0.30548,0.1145,0.94522,575,0.875,0.365,0.271,0.122,0.061,0.0,53.234,-62.463,-161.197,-26.26,-13.933,1.753,29.87,0.35364,-0.3949,-0.45334,-0.71649,569
144,0.997,0.184,0.073,0.061,0.0,-0.183,67.319,-78.662,93.691,-24.64,-8.607,-2.867,27.3,-0.18143,-0.6781,0.04568,-0.71066,578,0.647,0.216,0.735,0.183,0.0,0.0,16.342,-40.441,-121.102,-22.793,-9.6,0.72,24.03,-0.49951,0.23233,0.28433,0.78458,580,0.575,0.215,0.785,0.183,-0.183,-0.061,15.425,-35.294,175.182,-16.453,-12.227,-21.213,28.37,0.00024,0.30548,0.1145,0.94522,582,0.875,0.366,0.271,0.122,0.0,0.0,53.234,-62.463,-161.191,-26.26,-13.933,1.753,29.87,0.35364,-0.3949,-0.45334,-0.71649,576
145,0.996,0.184,0.073,0.0,0.0,-0.122,67.33,-78.662,93.658,-24.64,-8.607,-2.867,27.3,-0.18143,-0.6781,0.04568,-0.71066,579,0.648,0.215,0.734,0.244,-0.183,0.0,16.348,-40.441,-121.108,-22.793,-9.6,0.72,24.03,-0.49951,0.23233,0.28433,0.78458,581,0.575,0.218,0.783,0.488,-0.366,0.122,15.43,-35.299,175.177,-16.453,-12.227,-21.213,28.37,0.00024,0.30548,0.1145,0.94522,583,0.874,0.366,0.27,0.183,-0.061,0.0,53.24,-62.463,-161.186,-26.26,-13.933,1.753,29.87,0.35364,-0.3949,-0.45334,-0.71649,577
146,0.996,0.185,0.074,0.0,-0.122,-0.061,67.346,-78.662,93.62,-24.64,-8.607,-2.867,27.3,-0.18408,-0.67804,0.0481,-0.7099,586,0.647,0.215,0.731,0.366,-0.244,0.0,16.353,-40.441,-121.119,-22.793,-9.6,0.72,24.03,-0.49951,0.23233,0.28433,0.78458,584,0.573,0.223,0.784,0.671,-0.122,0.122,15.447,-35.299,175.182,-16.453,-12.227,-21.213,28.37,0.00024,0.30548,0.1145,0.94522,594,0.874,0.365,0.27,0.244,-0.183,0.0,53.251,-62.468,-161.186,-26.26,-13.933,1.753,29.87,0.35364,-0.3949,-0.45334,-0.71649,588
147,0.997,0.185,0.075,0.0,-0.183,0.0,67.368,-78.662,93.576,-24.64,-8.607,-2.867,27.3,-0.18408,-0.67804,0.0481,-0.7099,587,0.648,0.219,0.731,0.549,-0.183,0.061,16.364,-40.446,-121.124,-22.793,-9.6,0.72,24.03,-0.49951,0.23233,0.28433,0.78458,585,0.575,0.224,0.784,0.427,-0.122,0.0,15.458,-35.305,175.182,-16.453,-12.227,-21.213,28.37,0.00024,0.30548,0.1145,0.94522,595,0.874,0.366,0.271,0.305,-0.244,0.0,53.262,-62.468,-161.191,-26.26,-13.933,1.753,29.87,0.35364,-0.3949,-0.45334,-0.71649,589
148,0.998,0.185,0.075,0.0,-0.244,0.0,67.396,-78.668,93.527,-24.64,-8.607,-2.867,27.3,-0.18408,-0.67804,0.0481,-0.7099,596,0.649,0.221,0.732,0.61,-0.122,0.122,16.375,-40.446,-121.13,-22.793,-9.6,0.72,24.03,-0.49951,0.23233,0.28433,0.78458,590,0.576,0.226,0.784,-0.122,-0.427,0.305,15.452,-35.31,175.204,-16.18,-12.233,-21.1,28.37,0.00024,0.30548,0.1145,0.94522,600,0.874,0.368,0.271,0.366,-0.305,0.0,53.278,-62.474,-161.191,-26.6,-14.12,1.353,29.87,0.35364,-0.3949,-0.45334,-0.71649,592
149,0.999,0.186,0.076,0.0,-0.244,0.0,67.423,-78.668,93.472,-24.64,-8.607,-2.867,27.3,-0.18408,-0.67804,0.0481,-0.7099,597,0.649,0.223,0.731,0.488,-0.122,0.305,16.386,-40.452,-121.135,-22.793,-9.6,0.72,24.03,-0.49951,0.23233,0.28433,0.78458,591,0.577,0.22,0.783,0.183,-0.122,0.488,15.452,-35.316,175.232,-16.18,-12.233,-21.1,28.37,0.00024,0.30548,0.1145,0.94522,601,0.875,0.368,0.271,0.427,-0.366,0.0,53.3,-62.479,-161.197,-26.6,-14.12,1.353,29.87,0.35364,-0.3949,-0.45334,-0.71649,593
150,0.999,0.186,0.077,0.0,-0.244,0.0,67.451,-78.668,93.422,-24.64,-8.607,-2.867,27.3,-0.18408,-0.67804,0.0481,-0.7099,604,0.651,0.22,0.732,0.427,-0.122,0.427,16.392,-40.452,-121.13,-22.793,-9.6,0.72,24.03,-0.49951,0.23233,0.28433,0.78458,598,0.577,0.219,0.781,-0.183,-0.183,0.549,15.447,-35.321,175.27,-16.18,-12.233,-21.1,28.37,0.00024,0.30548,0.1145,0.94522,608,0.876,0.369,0.272,0.366,-0.366,0.0,53.322,-62.485,-161.208,-26.6,-14.12,1.353,29.87,0.35364,-0.3949,-0.45334,-0.71649,602
151,0.999,0.185,0.076,-0.061,-0.183,0.0,67.473,-78.673,93.373,-24.64,-8.607,-2.867,27.3,-0.18408,-0.67804,0.0481,-0.7099,605,0.651,0.218,0.729,0.244,0.0,0.488,16.392,-40.457,-121.13,-22.793,-9.6,0.72,24.03,-0.49951,0.23233,0.28433,0.78458,599,0.58,0.218,0.782,-0.366,0.061,0.61,15.436,-35.321,175.298,-16.18,-12.233,-21.1,28.37,0.00024,0.30548,0.1145,0.94522,609,0.875,0.368,0.272,0.122,-0.305,0.0,53.339,-62.485,-161.213,-26.6,-14.12,1.353,29.87,0.35364,-0.3949,-0.45334,-0.71649,603
152,0.999,0.185,0.075,-0.061,-0.122,0.0,67.489,-78.673,93.334,-24.64,-8.607,-2.867,27.3,-0.18408,-0.67804,0.0481,-0.7099,610,0.652,0.217,0.729,0.0,0.183,0.366,16.386,-40.457,-121.124,-22.793,-9.6,0.72,24.03,-0.49951,0.23233,0.28433,0.78458,606,0.578,0.217,0.782,-0.305,0.0,-0.061,15.43,-35.321,175.281,-16.18,-12.233,-21.1,28.37,-0.00195,0.30563,0.11551,0.94507,614,0.877,0.37,0.271,0.122,-0.183,0.0,53.35,-62.485,-161.213,-26.6,-14.12,1.353,29.87,0.35434,-0.39462,-0.45419,-0.71576,616
153,1.0,0.183,0.075,0.0,-0.061,0.0,67.495,-78.673,93.301,-24.64,-8.607,-2.867,27.3,-0.18408,-0.67804,0.0481,-0.7099,611,0.651,0.218,0.731,0.0,0.122,0.061,16.386,-40.452,-121.124,-22.793,-9.6,0.72,24.03,-0.49951,0.23233,0.28433,0.78458,607,0.578,0.216,0.782,0.244,0.0,0.488,15.43,-35.327,175.287,-16.18,-12.233,-21.1,28.37,-0.00195,0.30563,0.11551,0.94507,615,0.878,0.368,0.271,-0.122,0.0,0.0,53.35,-62.485,-161.213,-26.6,-14.12,1.353,29.87,0.35434,-0.39462,-0.45419,-0.71576,617
154,0.997,0.184,0.075,0.0,0.061,0.0,67.495,-78.673,93.274,-24.64,-8.607,-2.867,27.3,-0.18408,-0.67804,0.0481,-0.7099,620,0.652,0.213,0.729,-0.183,0.061,0.061,16.386,-40.452,-121.124,-22.793,-9.6,0.72,24.03,-0.49951,0.23233,0.28433,0.78458,612,0.577,0.223,0.781,-0.305,-0.061,0.244,15.425,-35.327,175.287,-16.18,-12.233,-21.1,28.37,-0.00195,0.30563,0.11551,0.94507,622,0.876,0.364,0.271,-0.122,0.0,0.0,53.35,-62.485,-161.208,-26.6,-14.12,1.353,29.87,0.35434,-0.39462,-0.45419,-0.71576,618
155,0.997,0.184,0.073,0.0,0.0,0.0,67.5,-78.673,93.252,-24.64,-8.607,-2.867,27.3,-0.18408,-0.67804,0.0481,-0.7099,621,0.65,0.218,0.731,-0.427,0.0,0.061,16.381,-40.452,-121.13,-22.793,-9.6,0.72,24.03,-0.49951,0.23233,0.28433,0.78458,613,0.585,0.217,0.782,0.0,0.549,0.0,15.425,-35.316,175.281,-16.18,-12.233,-21.1,28.37,-0.00195,0.30563,0.11551,0.94507,623,0.874,0.368,0.271,-0.305,0.122,0.0,53.344,-62.485,-161.197,-26.6,-14.12,1.353,29.87,0.35434,-0.39462,-0.45419,-0.71576,619
156,1.001,0.184,0.072,-0.183,0.122,0.0,67.495,-78.673,93.23,-24.64,-8.607,-2.867,27.3,-0.18408,-0.67804,0.0481,-0.7099,628,0.655,0.218,0.73,-0.366,0.305,0.0,16.375,-40.446,-121.135,-22.793,-9.6,0.72,24.03,-0.49951,0.23233,0.28433,0.78458,624,0.575,0.223,0.782,0.0,0.244,-0.366,15.43,-35.31,175.27,-16.18,-12.233,-21.1,28.37,-0.00195,0.30563,0.11551,0.94507,630,0.877,0.368,0.268,-0.427,0.305,0.0,53.333,-62.485,-161.186,-26.6,-14.12,1.353,29.87,0.35434,-0.39462,-0.45419,-0.71576,626
157,1.001,0.185,0.072,0.0,0.122,0.0,67.484,-78.673,93.219,-24.64,-8.607,-2.867,27.3,-0.18408,-0.67804,0.0481,-0.7099,629,0.653,0.218,0.728,-0.244,0.183,-0.061,16.37,-40.441,-121.141,-22.793,-9.6,0.72,24.03,-0.49951,0.23233,0.28433,0.78458,625,0.575,0.222,0.788,0.854,0.244,0.427,15.447,-35.31,175.276,-16.18,-12.233,-21.1,28.37,-0.00195,0.30563,0.11551,0.94507,631,0.879,0.368,0.268,-0.244,0.183,0.0,53.322,-62.479,-161.175,-26.6,-14.12,1.353,29.87,0.35434,-0.39462,-0.45419,-0.71576,627
158,1.0,0.183,0.073,0.0,0.305,0.0,67.467,-78.673,93.219,-24.38,-8.267,-2.653,27.3,-0.18408,-0.67804,0.0481,-0.7099,636,0.65,0.219,0.734,0.0,0.122,0.061,16.37,-40.441,-121.146,-22.133,-9.86,1.633,24.03,-0.49951,0.23233,0.28433,0.78458,632,0.58,0.217,0.788,-0.061,0.0,0.427,15.441,-35.316,175.281,-16.18,-12.233,-21.1,28.37,-0.00195,0.30563,0.11551,0.94507,640,0.877,0.365,0.27,-0.366,0.183,0.0,53.317,-62.479,-161.164,-26.6,-14.12,1.353,29.87,0.35434,-0.39462,-0.45419,-0.71576,634
159,0.998,0.184,0.071,-0.122,0.305,0.0,67.451,-78.673,93.219,-24.38,-8.267,-2.653,27.3,-0.18408,-0.67804,0.0481,-0.7099,637,0.649,0.215,0.735,0.0,0.183,0.366,16.37,-40.441,-121.146,-22.133,-9.86,1.633,24.03,-0.49951,0.23233,0.28433,0.78458,633,0.576,0.215,0.785,-0.183,-0.122,0.549,15.43,-35.321,175.287,-16.18,-12.233,-21.1,28.37,-0.00195,0.30563,0.11551,0.94507,641,0.875,0.364,0.269,-0.305,0.244,0.0,53.306,-62.474,-161.147,-26.6,-14.12,1.353,29.87,0.35434,-0.39462,-0.45419,-0.71576,635
160,0.998,0.185,0.072,0.0,0.244,0.0,67.434,-78.673,93.219,-24.38,-8.267,-2.653,27.3,-0.18622,-0.67804,0.05017,-0.7092,646,0.649,0.213,0.734,-0.305,0.061,0.366,16.359,-40.441,-121.141,-22.133,-9.86,1.633,24.03,-0.49951,0.23233,0.28433,0.78458,638,0.573,0.212,0.784,0.366,-0.183,0.61,15.436,-35.327,175.292,-16.18,-12.233,-21.1,28.37,-0.00195,0.30563,0.11551,0.94507,644,0.875,0.366,0.27,-0.122,0.122,0.0,53.3,-62.474,-161.136,-26.6,-14.12,1.353,29.87,0.35434,-0.39462,-0.45419,-0.71576,642
161,0.997,0.183,0.073,0.0,0.061,0.0,67.434,-78.673,93.203,-24.38,-8.267,-2.653,27.3,-0.18622,-0.67804,0.05017,-0.7092,647,0.647,0.212,0.733,-0.183,0.061,0.122,16.353,-40.441,-121.141,-22.133,-9.86,1.633,24.03,-0.49951,0.23233,0.28433,0.78458,639,0.575,0.213,0.784,0.122,0.0,-0.061,15.436,-35.327,175.287,-16.18,-12.233,-21.1,28.37,-0.00195,0.30563,0.11551,0.94507,645,0.875,0.366,0.271,-0.122,0.061,0.0,53.3,-62.474,-161.131,-26.6,-14.12,1.353,29.87,0.35434,-0.39462,-0.45419,-0.71576,643
162,0.997,0.182,0.075,-0.305,0.061,0.0,67.434,-78.673,93.186,-24.38,-8.267,-2.653,27.3,-0.18622,-0.67804,0.05017,-0.7092,648,0.647,0.213,0.734,-0.122,-0.061,0.0,16.348,-40.441,-121.141,-22.133,-9.86,1.633,24.03,-0.49918,0.23239,0.28433,0.78476,652,0.575,0.217,0.782,0.061,-0.122,-0.061,15.441,-35.327,175.281,-16.18,-12.233,-21.1,28.37,-0.00195,0.30563,0.11551,0.94507,654,0.875,0.365,0.271,-0.427,0.0,0.0,53.295,-62.474,-161.125,-26.6,-14.12,1.353,29.87,0.35434,-0.39462,-0.45419,-0.71576,650
163,0.997,0.183,0.076,-0.366,0.0,0.0,67.434,-78.673,93.164,-24.38,-8.267,-2.653,27.3,-0.18622,-0.67804,0.05017,-0.7092,649,0.648,0.212,0.731,-0.061,-0.244,0.0,16.348,-40.441,-121.152,-22.133,-9.86,1.633,24.03,-0.49918,0.23239,0.28433,0.78476,653,0.573,0.217,0.781,0.183,-0.183,0.122,15.441,-35.332,175.276,-16.18,-12.233,-21.1,28.37,-0.00195,0.30563,0.11551,0.94507,655,0.874,0.363,0.272,-0.549,0.0,0.0,53.289,-62.474,-161.12,-26.6,-14.12,1.353,29.87,0.35434,-0.39462,-0.45419,-0.71576,651
164,0.997,0.183,0.077,-0.122,0.0,0.0,67.434,-78.673,93.137,-24.38,-8.267,-2.653,27.3,-0.18622,-0.67804,0.05017,-0.7092,656,0.646,0.213,0.729,-0.061,-0.305,0.0,16.348,-40.446,-121.157,-22.133,-9.86,1.633,24.03,-0.49918,0.23239,0.28433,0.78476,660,0.574,0.217,0.785,0.549,0.0,-0.061,15.458,-35.332,175.27,-16.18,-12.233,-21.1,28.37,-0.00195,0.30563,0.11551,0.94507,664,0.874,0.363,0.273,-0.366,0.0,0.0,53.284,-62.474,-161.12,-26.6,-14.12,1.353,29.87,0.35434,-0.39462,-0.45419,-0.71576,658
165,0.999,0.184,0.078,-0.183,0.0,0.0,67.434,-78.673,93.115,-24.38,-8.267,-2.653,27.3,-0.18622,-0.67804,0.05017,-0.7092,657,0.646,0.215,0.732,0.0,-0.122,0.061,16.348,-40.452,-121.163,-22.133,-9.86,1.633,24.03,-0.49918,0.23239,0.28433,0.78476,661,0.575,0.218,0.786,0.427,-0.061,0.0,15.463,-35.332,175.259,-16.18,-12.233,-21.1,28.37,-0.00195,0.30563,0.11551,0.94507,665,0.875,0.365,0.274,-0.305,0.0,0.0,53.278,-62.479,-161.115,-26.6,-14.12,1.353,29.87,0.35434,-0.39462,-0.45419,-0.71576,659
166,0.998,0.184,0.078,-0.366,0.0,0.0,67.434,-78.679,93.093,-24.38,-8.267,-2.653,27.3,-0.18622,-0.67804,0.05017,-0.7092,666,0.649,0.214,0.733,0.0,-0.061,0.061,16.348,-40.452,-121.168,-22.133,-9.86,1.633,24.03,-0.49918,0.23239,0.28433,0.78476,668,0.573,0.218,0.784,0.366,-0.244,0.122,15.469,-35.338,175.259,-16.047,-12.787,-21.007,28.37,-0.00195,0.30563,0.11551,0.94507,670,0.875,0.366,0.274,-0.366,0.0,0.0,53.273,-62.479,-161.109,-26.513,-14.093,1.007,29.87,0.35434,-0.39462,-0.45419,-0.71576,662
167,0.998,0.185,0.078,-0.244,-0.061,0.0,67.429,-78.679,93.065,-24.38,-8.267,-2.653,27.3,-0.18622,-0.67804,0.05017,-0.7092,667,0.649,0.215,0.733,0.061,0.0,0.0,16.348,-40.452,-121.174,-22.133,-9.86,1.633,24.03,-0.49918,0.23239,0.28433,0.78476,669,0.58,0.216,0.785,0.0,-0.305,0.0,15.474,-35.343,175.248,-16.047,-12.787,-21.007,28.37,-0.00195,0.30563,0.11551,0.94507,671,0.876,0.367,0.275,-0.488,0.0,0.0,53.262,-62.479,-161.104,-26.513,-14.093,1.007,29.87,0.35434,-0.39462,-0.45419,-0.71576,663
168,0.999,0.183,0.077,-0.122,0.0,0.0,67.429,-78.679,93.038,-24.38,-8.267,-2.653,27.3,-0.18622,-0.67804,0.05017,-0.7092,676,0.65,0.214,0.732,-0.061,0.061,0.0,16.348,-40.452,-121.179,-22.133,-9.86,1.633,24.06,-0.49918,0.23239,0.28433,0.78476,674,0.572,0.221,0.781,-0.488,-0.427,0.0,15.463,-35.349,175.243,-16.047,-12.787,-21.007,28.37,-0.00195,0.30563,0.11551,0.94507,682,0.876,0.365,0.274,-0.366,0.0,0.0,53.256,-62.479,-161.098,-26.513,-14.093,1.007,29.87,0.35434,-0.39462,-0.45419,-0.71576,672
169,0.998,0.183,0.078,-0.122,0.0,0.0,67.429,-78.679,93.016,-24.38,-8.267,-2.653,27.3,-0.18622,-0.67804,0.05017,-0.7092,677,0.649,0.216,0.731,-0.244,0.122,-0.122,16.342,-40.446,-121.185,-22.133,-9.86,1.633,24.06,-0.49918,0.23239,0.28433,0.78476,675,0.578,0.213,0.786,0.61,-0.488,0.366,15.474,-35.359,175.243,-16.047,-12.787,-21.007,28.37,-0.00195,0.30563,0.11551,0.94507,683,0.876,0.364,0.273,-0.305,0.0,0.0,53.245,-62.479,-161.098,-26.513,-14.093,1.007,29.87,0.35434,-0.39462,-0.45419,-0.71576,673
170,0.998,0.182,0.076,-0.183,0.0,0.0,67.423,-78.679,92.994,-24.38,-8.267,-2.653,27.3,-0.18622,-0.67804,0.05017,-0.7092,678,0.647,0.214,0.733,0.0,0.183,-0.061,16.342,-40.441,-121.19,-22.133,-9.86,1.633,24.06,-0.49918,0.23239,0.28433,0.78476,680,0.58,0.217,0.784,0.183,-0.366,0.0,15.48,-35.365,175.237,-16.047,-12.787,-21.007,28.37,-0.00168,0.306,0.11569,0.94492,688,0.875,0.364,0.273,-0.488,0.061,0.0,53.234,-62.474,-161.093,-26.513,-14.093,1.007,29.87,0.35474,-0.39438,-0.45407,-0.71576,684
171,1.0,0.183,0.073,-0.305,0.061,0.0,67.412,-78.679,92.977,-24.38,-8.267,-2.653,27.3,-0.18622,-0.67804,0.05017,-0.7092,679,0.65,0.214,0.732,-0.122,0.244,-0.061,16.342,-40.435,-121.196,-22.133,-9.86,1.633,24.06,-0.49918,0.23239,0.28433,0.78476,681,0.577,0.218,0.784,0.061,-0.549,0.305,15.48,-35.376,175.232,-16.047,-12.787,-21.007,28.37,-0.00168,0.306,0.11569,0.94492,689,0.876,0.363,0.271,-0.671,0.122,0.0,53.218,-62.474,-161.082,-26.513,-14.093,1.007,29.87,0.35474,-0.39438,-0.45407,-0.71576,685
172,0.999,0.184,0.073,0.0,0.061,0.0,67.407,-78.679,92.961,-24.187,-8.847,-3.473,27.3,-0.18622,-0.67804,0.05017,-0.7092,692,0.649,0.214,0.733,-0.244,0.244,-0.061,16.337,-40.43,-121.201,-22.133,-9.86,1.633,24.06,-0.49918,0.23239,0.28433,0.78476,686,0.577,0.216,0.785,0.305,-0.732,0.427,15.48,-35.392,175.232,-16.047,-12.787,-21.007,28.37,-0.00168,0.306,0.11569,0.94492,696,0.877,0.364,0.271,-0.427,0.0,0.0,53.212,-62.474,-161.076,-26.513,-14.093,1.007,29.87,0.35474,-0.39438,-0.45407,-0.71576,690
173,0.998,0.183,0.072,0.0,0.0,0.0,67.407,-78.679,92.939,-24.187,-8.847,-3.473,27.3,-0.18622,-0.67804,0.05017,-0.7092,693,0.649,0.214,0.733,-0.122,0.183,-0.122,16.331,-40.424,-121.207,-22.133,-9.86,1.633,24.06,-0.49918,0.23239,0.28433,0.78476,687,0.579,0.217,0.782,0.305,-0.671,0.122,15.485,-35.403,175.226,-16.047,-12.787,-21.007,28.37,-0.00168,0.306,0.11569,0.94492,697,0.876,0.365,0.27,-0.183,0.0,0.0,53.207,-62.474,-161.076,-26.513,-14.093,1.007,29.87,0.35474,-0.39438,-0.45407,-0.71576,691
174,0.998,0.183,0.072,-0.122,0.0,0.0,67.412,-78.679,92.922,-24.187,-8.847,-3.473,27.3,-0.18808,-0.67789,0.05209,-0.70871,700,0.649,0.214,0.733,-0.122,0.0,-0.061,16.331,-40.424,-121.212,-22.133,-9.86,1.633,24.06,-0.49918,0.23239,0.28433,0.78476,694,0.579,0.218,0.78,0.366,-0.793,0.366,15.491,-35.42,175.226,-16.047,-12.787,-21.007,28.37,-0.00168,0.306,0.11569,0.94492,704,0.875,0.364,0.27,-0.183,0.0,0.0,53.207,-62.479,-161.071,-26.513,-14.093,1.007,29.87,0.35474,-0.39438,-0.45407,-0.71576,698
175,0.998,0.184,0.072,-0.061,0.0,0.0,67.418,-78.684,92.9,-24.187,-8.847,-3.473,27.3,-0.18808,-0.67789,0.05209,-0.70871,701,0.649,0.214,0.732,-0.122,-0.061,-0.061,16.331,-40.424,-121.218,-22.133,-9.86,1.633,24.06,-0.49918,0.23239,0.28433,0.78476,695,0.578,0.215,0.781,0.793,-0.732,0.244,15.507,-35.436,175.221,-16.047,-12.787,-21.007,28.37,-0.00168,0.306,0.11569,0.94492,705,0.875,0.364,0.27,-0.305,0.0,0.0,53.201,-62.479,-161.065,-26.513,-14.093,1.007,29.87,0.35474,-0.39438,-0.45407,-0.71576,699
176,0.999,0.186,0.074,0.0,-0.061,0.0,67.429,-78.684,92.873,-24.187,-8.847,-3.473,27.3,-0.18808,-0.67789,0.05209,-0.70871,708,0.649,0.214,0.732,0.0,-0.122,-0.061,16.331,-40.424,-121.229,-22.133,-9.86,1.633,24.06,-0.49918,0.23239,0.28433,0.78476,702,0.581,0.217,0.781,0.793,-0.488,-0.183,15.529,-35.442,175.21,-16.047,-12.787,-21.007,28.37,-0.00168,0.306,0.11569,0.94492,712,0.875,0.366,0.27,-0.183,-0.061,0.0,53.201,-62.479,-161.065,-26.513,-14.093,1.007,29.87,0.35474,-0.39438,-0.45407,-0.71576,706
177,0.998,0.187,0.074,-0.183,0.0,0.0,67.434,-78.684,92.851,-24.187,-8.847,-3.473,27.3,-0.18808,-0.67789,0.05209,-0.70871,709,0.65,0.215,0.731,0.0,-0.122,-0.183,16.331,-40.424,-121.234,-22.133,-9.86,1.633,24.06,-0.49918,0.23239,0.28433,0.78476,703,0.579,0.219,0.78,0.793,-0.549,-0.061,15.546,-35.453,175.199,-16.047,-12.787,-21.007,28.37,-0.00168,0.306,0.11569,0.94492,713,0.876,0.367,0.271,-0.244,-0.122,0.0,53.201,-62.479,-161.065,-26.513,-14.093,1.007,29.87,0.35474,-0.39438,-0.45407,-0.71576,707
178,0.999,0.186,0.075,-0.305,0.0,0.0,67.434,-78.684,92.829,-24.187,-8.847,-3.473,27.3,-0.18808,-0.67789,0.05209,-0.70871,716,0.651,0.215,0.73,0.0,-0.061,-0.305,16.337,-40.424,-121.251,-22.133,-9.86,1.633,24.06,-0.49918,0.23239,0.28433,0.78476,710,0.579,0.22,0.781,0.305,-0.427,-0.244,15.557,-35.464,175.188,-16.047,-12.787,-21.007,28.37,-0.00168,0.306,0.11569,0.94492,720,0.876,0.368,0.271,-0.366,-0.061,0.0,53.201,-62.485,-161.065,-26.513,-14.093,1.007,29.87,0.35474,-0.39438,-0.45407,-0.71576,714
179,0.999,0.185,0.075,-0.366,0.061,0.0,67.434,-78.684,92.818,-24.187,-8.847,-3.473,27.3,-0.18808,-0.67789,0.05209,-0.70871,717,0.649,0.215,0.731,-0.183,-0.061,-0.427,16.342,-40.424,-121.262,-22.133,-9.86,1.633,24.06,-0.49918,0.23239,0.28433,0.78476,711,0.576,0.222,0.781,-0.122,-0.671,-0.305,15.562,-35.475,175.172,-16.047,-12.787,-21.007,28.37,-0.00168,0.306,0.11569,0.94492,721,0.876,0.367,0.271,-0.427,-0.061,-0.305,53.201,-62.479,-161.071,-26.513,-14.093,1.007,29.87,0.35474,-0.39438,-0.45407,-0.71576,715
180,0.998,0.184,0.076,-0.427,0.122,0.0,67.423,-78.684,92.807,-24.187,-8.847,-3.473,27.3,-0.18808,-0.67789,0.05209,-0.70871,724,0.648,0.215,0.731,-0.122,0.0,-0.427,16.348,-40.424,-121.278,-22.133,-9.86,1.633,24.06,-0.49918,0.23239,0.28433,0.78476,718,0.579,0.218,0.782,0.671,-0.549,-0.122,15.579,-35.48,175.161,-16.047,-12.787,-21.007,28.37,-0.00168,0.306,0.11569,0.94492,726,0.876,0.366,0.272,-0.488,0.0,-0.366,53.207,-62.474,-161.076,-26.513,-14.093,1.007,29.87,0.35474,-0.39438,-0.45407,-0.71576,722
181,0.997,0.184,0.076,-0.305,0.122,0.0,67.412,-78.684,92.796,-24.187,-8.847,-3.473,27.3,-0.18808,-0.67789,0.05209,-0.70871,725,0.648,0.216,0.733,0.0,-0.122,-0.305,16.353,-40.424,-121.295,-22.133,-9.86,1.633,24.06,-0.49918,0.23239,0.28433,0.78476,719,0.579,0.22,0.782,0.488,-0.305,-0.366,15.595,-35.486,175.144,-16.047,-12.787,-21.007,28.37,-0.00168,0.306,0.11569,0.94492,727,0.875,0.365,0.273,-0.488,0.0,-0.366,53.207,-62.468,-161.082,-26.513,-14.093,1.007,29.87,0.35474,-0.39438,-0.45407,-0.71576,723
182,0.996,0.185,0.076,-0.244,0.0,0.0,67.412,-78.684,92.78,-24.187,-8.847,-3.473,27.3,-0.18808,-0.67789,0.05209,-0.70871,732,0.648,0.215,0.734,0.183,-0.061,-0.244,16.359,-40.419,-121.306,-22.133,-9.86,1.633,24.06,-0.49918,0.23239,0.28433,0.78476,728,0.575,0.225,0.781,0.488,-0.549,-0.183,15.612,-35.497,175.133,-16.047,-12.787,-21.007,28.37,-0.00168,0.306,0.11569,0.94492,736,0.874,0.365,0.274,-0.427,0.0,-0.305,53.207,-62.463,-161.087,-26.513,-14.093,1.007,29.87,0.35474,-0.39438,-0.45407,-0.71576,730
183,0.997,0.184,0.076,-0.183,0.0,0.0,67.412,-78.684,92.758,-24.187,-8.847,-3.473,27.3,-0.18808,-0.67789,0.05209,-0.70871,733,0.646,0.217,0.732,0.122,0.0,-0.305,16.364,-40.419,-121.317,-22.133,-9.86,1.633,24.06,-0.49918,0.23239,0.28433,0.78476,729,0.577,0.227,0.782,0.061,-0.305,0.0,15.617,-35.502,175.122,-16.047,-12.787,-21.007,28.37,-0.00168,0.306,0.11569,0.94492,737,0.873,0.365,0.274,-0.366,0.0,-0.305,53.207,-62.457,-161.093,-26.513,-14.093,1.007,29.87,0.35474,-0.39438,-0.45407,-0.71576,731
184,0.998,0.185,0.077,-0.183,-0.061,0.0,67.418,-78.684,92.736,-24.187,-8.847,-3.473,27.3,-0.18808,-0.67789,0.05209,-0.70871,738,0.647,0.221,0.732,0.0,0.061,-0.244,16.37,-40.419,-121.328,-22.28,-9.893,1.04,24.06,-0.49918,0.23239,0.28433,0.78476,734,0.578,0.223,0.781,0.122,-0.366,-0.244,15.623,-35.508,175.111,-16.44,-12.853,-21.567,28.37,-0.00168,0.306,0.11569,0.94492,744,0.874,0.366,0.273,-0.244,-0.061,-0.244,53.212,-62.457,-161.093,-26.473,-14.027,1.5,29.87,0.35474,-0.39438,-0.45407,-0.71576,742
185,0.997,0.185,0.077,-0.122,-0.061,0.0,67.423,-78.684,92.708,-24.187,-8.847,-3.473,27.3,-0.18808,-0.67789,0.05209,-0.70871,739,0.647,0.221,0.732,0.0,0.061,-0.122,16.375,-40.413,-121.333,-22.28,-9.893,1.04,24.06,-0.49918,0.23239,0.28433,0.78476,735,0.58,0.22,0.779,-0.183,-0.122,0.061,15.623,-35.508,175.106,-16.44,-12.853,-21.567,28.37,-0.00168,0.306,0.11569,0.94492,745,0.874,0.365,0.273,-0.305,-0.061,0.0,53.207,-62.457,-161.093,-26.473,-14.027,1.5,29.87,0.35474,-0.39438,-0.45407,-0.71576,743
186,0.998,0.186,0.076,-0.061,-0.061,0.0,67.434,-78.684,92.686,-24.147,-8.46,-3.14,27.3,-0.18808,-0.67789,0.05209,-0.70871,748,0.648,0.216,0.732,-0.183,0.0,0.0,16.375,-40.413,-121.339,-22.28,-9.893,1.04,24.06,-0.49918,0.23239,0.28433,0.78476,740,0.582,0.219,0.781,-0.244,-0.366,0.366,15.617,-35.513,175.111,-16.44,-12.853,-21.567,28.37,-0.00168,0.306,0.11569,0.94492,750,0.875,0.366,0.274,-0.244,-0.061,0.0,53.207,-62.457,-161.093,-26.473,-14.027,1.5,29.87,0.35458,-0.39438,-0.45383,-0.716,746
187,1.0,0.186,0.075,-0.061,-0.061,0.0,67.44,-78.684,92.664,-24.147,-8.46,-3.14,27.3,-0.18808,-0.67789,0.05209,-0.70871,749,0.652,0.215,0.73,-0.305,0.183,0.0,16.37,-40.408,-121.344,-22.28,-9.893,1.04,24.06,-0.49918,0.23239,0.28433,0.78476,741,0.581,0.219,0.779,-0.061,-0.366,0.061,15.617,-35.524,175.106,-16.44,-12.853,-21.567,28.37,-0.00168,0.306,0.11569,0.94492,751,0.876,0.366,0.274,-0.244,-0.061,0.0,53.201,-62.457,-161.093,-26.473,-14.027,1.5,29.87,0.35458,-0.39438,-0.45383,-0.716,747
188,0.999,0.185,0.075,-0.061,0.0,0.0,67.44,-78.684,92.642,-24.147,-8.46,-3.14,27.3,-0.18961,-0.67783,0.05362,-0.70825,754,0.651,0.216,0.733,-0.122,0.244,-0.061,16.37,-40.402,-121.344,-22.28,-9.893,1.04,24.06,-0.49783,0.23257,0.28397,0.78571,752,0.578,0.217,0.779,0.122,-0.488,0.549,15.617,-35.535,175.111,-16.44,-12.853,-21.567,28.37,-0.00113,0.30746,0.11639,0.94437,764,0.876,0.367,0.272,-0.366,0.0,-0.061,53.196,-62.457,-161.087,-26.473,-14.027,1.5,29.87,0.35458,-0.39438,-0.45383,-0.716,756
189,0.996,0.186,0.075,-0.122,0.183,0.0,67.429,-78.684,92.642,-24.147,-8.46,-3.14,27.3,-0.18961,-0.67783,0.05362,-0.70825,755,0.648,0.213,0.73,-0.244,0.244,-0.061,16.364,-40.397,-121.349,-22.28,-9.893,1.04,24.06,-0.49783,0.23257,0.28397,0.78571,753,0.581,0.224,0.778,0.183,-0.366,0.061,15.623,-35.541,175.106,-16.44,-12.853,-21.567,28.37,-0.00113,0.30746,0.11639,0.94437,765,0.873,0.368,0.271,-0.366,0.061,-0.183,53.196,-62.457,-161.087,-26.473,-14.027,1.5,29.87,0.35458,-0.39438,-0.45383,-0.716,757
190,0.996,0.187,0.073,-0.122,0.061,0.0,67.423,-78.684,92.631,-24.147,-8.46,-3.14,27.3,-0.18961,-0.67783,0.05362,-0.70825,762,0.647,0.217,0.733,-0.488,0.122,-0.061,16.359,-40.391,-121.355,-22.28,-9.893,1.04,24.06,-0.49783,0.23257,0.28397,0.78571,758,0.586,0.224,0.78,0.366,0.427,-0.427,15.639,-35.53,175.095,-16.44,-12.853,-21.567,28.37,-0.00113,0.30746,0.11639,0.94437,768,0.875,0.37,0.27,-0.427,0.183,-0.061,53.19,-62.452,-161.087,-26.473,-14.027,1.5,29.87,0.35458,-0.39438,-0.45383,-0.716,760
191,1.002,0.187,0.072,-0.122,0.061,0.0,67.423,-78.684,92.62,-24.147,-8.46,-3.14,27.3,-0.18961,-0.67783,0.05362,-0.70825,763,0.65,0.22,0.731,-0.305,0.305,-0.244,16.353,-40.386,-121.36,-22.28,-9.893,1.04,24.06,-0.49783,0.23257,0.28397,0.78571,759,0.579,0.227,0.784,0.61,-0.061,-0.122,15.656,-35.53,175.089,-16.44,-12.853,-21.567,28.37,-0.00113,0.30746,0.11639,0.94437,769,0.879,0.369,0.271,-0.305,0.061,0.0,53.179,-62.446,-161.076,-26.473,-14.027,1.5,29.87,0.35458,-0.39438,-0.45383,-0.716,761
192,1.0,0.186,0.073,0.0,0.061,0.0,67.429,-78.684,92.609,-24.147,-8.46,-3.14,27.3,-0.18961,-0.67783,0.05362,-0.70825,770,0.651,0.219,0.732,0.0,0.061,-0.244,16.359,-40.386,-121.371,-22.28,-9.893,1.04,24.06,-0.49783,0.23257,0.28397,0.78571,766,0.579,0.225,0.786,1.831,-0.305,0.488,15.688,-35.541,175.117,-16.44,-12.853,-21.567,28.37,-0.00113,0.30746,0.11639,0.94437,776,0.876,0.366,0.271,-0.366,0.0,0.061,53.174,-62.446,-161.071,-26.473,-14.027,1.5,29.87,0.35458,-0.39438,-0.45383,-0.716,772
193,0.997,0.185,0.073,0.0,0.183,0.0,67.423,-78.679,92.609,-24.147,-8.46,-3.14,27.3,-0.18961,-0.67783,0.05362,-0.70825,771,0.648,0.219,0.737,0.488,0.122,0.0,16.37,-40.38,-121.377,-22.28,-9.893,1.04,24.06,-0.49783,0.23257,0.28397,0.78571,767,0.58,0.227,0.783,0.671,-0.427,0.671,15.694,-35.552,175.144,-16.44,-12.853,-21.567,28.37,-0.00113,0.30746,0.11639,0.94437,777,0.875,0.364,0.269,-0.061,0.0,0.061,53.168,-62.446,-161.071,-26.473,-14.027,1.5,29.87,0.35458,-0.39438,-0.45383,-0.716,773
194,0.998,0.186,0.073,-0.061,0.244,0.0,67.407,-78.679,92.615,-24.147,-8.46,-3.14,27.3,-0.18961,-0.67783,0.05362,-0.70825,780,0.647,0.218,0.736,0.488,0.0,0.366,16.375,-40.38,-121.371,-22.28,-9.893,1.04,24.06,-0.49783,0.23257,0.28397,0.78571,774,0.576,0.219,0.779,1.16,-0.366,1.038,15.71,-35.563,175.166,-16.44,-12.853,-21.567,28.37,-0.00113,0.30746,0.11639,0.94437,784,0.875,0.366,0.273,0.244,0.0,0.061,53.174,-62.452,-161.065,-26.473,-14.027,1.5,29.87,0.35458,-0.39438,-0.45383,-0.716,778
195,0.997,0.185,0.074,0.061,0.0,0.0,67.418,-78.679,92.598,-24.147,-8.46,-3.14,27.3,-0.18961,-0.67783,0.05362,-0.70825,781,0.648,0.217,0.734,0.427,-0.122,0.549,16.375,-40.386,-121.366,-22.28,-9.893,1.04,24.06,-0.49783,0.23257,0.28397,0.78571,775,0.578,0.219,0.779,1.038,-0.305,0.488,15.727,-35.574,175.182,-16.44,-12.853,-21.567,28.37,-0.00113,0.30746,0.11639,0.94437,785,0.874,0.367,0.273,0.061,-0.122,0.061,53.179,-62.452,-161.06,-26.473,-14.027,1.5,29.87,0.35458,-0.39438,-0.45383,-0.716,779
196,0.995,0.185,0.075,0.0,-0.122,0.0,67.44,-78.679,92.571,-24.147,-8.46,-3.14,27.3,-0.18961,-0.67783,0.05362,-0.70825,788,0.647,0.216,0.732,0.366,-0.122,0.427,16.381,-40.386,-121.36,-22.28,-9.893,1.04,24.06,-0.49783,0.23257,0.28397,0.78571,782,0.577,0.221,0.775,0.244,-0.427,0.305,15.732,-35.579,175.199,-16.44,-12.853,-21.567,28.37,-0.00113,0.30746,0.11639,0.94437,790,0.872,0.365,0.273,-0.305,-0.183,0.122,53.185,-62.457,-161.06,-26.473,-14.027,1.5,29.87,0.35458,-0.39438,-0.45383,-0.716,786
197,0.996,0.185,0.077,-0.244,-0.122,0.0,67.456,-78.679,92.543,-24.147,-8.46,-3.14,27.3,-0.18961,-0.67783,0.05362,-0.70825,789,0.645,0.214,0.73,0.122,-0.061,0.244,16.381,-40.391,-121.355,-22.28,-9.893,1.04,24.06,-0.49783,0.23257,0.28397,0.78571,783,0.581,0.22,0.776,0.244,0.0,0.305,15.732,-35.585,175.215,-16.44,-12.853,-21.567,28.37,-0.00113,0.30746,0.11639,0.94437,791,0.872,0.364,0.274,-0.427,-0.122,0.122,53.185,-62.457,-161.06,-26.473,-14.027,1.5,29.87,0.35458,-0.39438,-0.45383,-0.716,787
198,0.996,0.186,0.077,-0.244,-0.061,0.0,67.462,-78.679,92.521,-24.147,-8.46,-3.14,27.3,-0.18961,-0.67783,0.05362,-0.70825,798,0.645,0.215,0.73,-0.061,-0.122,0.244,16.381,-40.391,-121.355,-22.28,-9.893,1.04,24.06,-0.49783,0.23257,0.28397,0.78571,792,0.582,0.224,0.78,0.244,0.183,0.0,15.738,-35.579,175.188,-16.44,-12.853,-21.567,28.37,-0.00113,0.30746,0.11639,0.94437,796,0.874,0.364,0.273,-0.305,-0.061,0.061,53.179,-62.463,-161.06,-26.473,-14.027,1.5,29.87,0.35458,-0.39438,-0.45383,-0.716,794
199,0.998,0.186,0.077,-0.061,-0.183,0.0,67.484,-78.679,92.488,-24.147,-8.46,-3.14,27.3,-0.18961,-0.67783,0.05362,-0.70825,799,0.647,0.215,0.731,-0.061,-0.061,0.244,16.375,-40.397,-121.349,-22.28,-9.893,1.04,24.06,-0.49783,0.23257,0.28397,0.78571,793,0.582,0.224,0.782,0.244,0.0,0.061,15.749,-35.579,175.155,-16.44,-12.853,-21.567,28.37,-0.00113,0.30746,0.11639,0.94437,797,0.876,0.367,0.273,-0.183,0.0,0.061,53.174,-62.463,-161.054,-26.473,-14.027,1.5,29.87,0.35458,-0.39438,-0.45383,-0.716,795
200,0.999,0.186,0.076,-0.183,-0.122,0.0,67.495,-78.679,92.461,-24.093,-8.387,-2.413,27.3,-0.18961,-0.67783,0.05362,-0.70825,804,0.65,0.217,0.732,0.0,0.0,0.122,16.375,-40.397,-121.349,-22.28,-9.893,1.04,24.06,-0.49783,0.23257,0.28397,0.78571,800,0.579,0.221,0.779,0.244,0.0,0.183,15.754,-35.579,175.106,-16.44,-12.853,-21.567,28.37,-0.00113,0.30746,0.11639,0.94437,812,0.877,0.367,0.273,-0.305,0.0,0.122,53.168,-62.463,-161.049,-26.473,-14.027,1.5,29.87,0.35458,-0.39438,-0.45383,-0.716,802
201,0.999,0.187,0.076,-0.183,0.0,0.0,67.495,-78.679,92.444,-24.093,-8.387,-2.413,27.3,-0.18961,-0.67783,0.05362,-0.70825,805,0.65,0.218,0.734,0.061,0.0,0.061,16.375,-40.391,-121.355,-22.28,-9.893,1.04,24.06,-0.49783,0.23257,0.28397,0.78571,801,0.583,0.221,0.78,0.0,0.183,0.122,15.754,-35.579,175.084,-16.44,-12.853,-21.567,28.37,-0.00113,0.30746,0.11639,0.94437,813,0.875,0.365,0.274,-0.183,0.0,0.122,53.163,-62.463,-161.043,-26.473,-14.027,1.5,29.87,0.35458,-0.39438,-0.45383,-0.716,803
202,0.997,0.186,0.075,-0.061,0.0,0.0,67.5,-78.679,92.428,-24.093,-8.387,-2.413,27.3,-0.18961,-0.67783,0.05362,-0.70825,808,0.648,0.215,0.734,0.122,-0.061,0.122,16.375,-40.397,-121.355,-22.04,-9.433,0.553,24.06,-0.49783,0.23257,0.28397,0.78571,806,0.576,0.225,0.776,0.183,0.305,0.0,15.754,-35.574,175.117,-16.253,-12.567,-20.767,28.37,-0.00113,0.30746,0.11639,0.94437,816,0.875,0.365,0.272,0.0,0.0,0.0,53.157,-62.468,-161.038,-26.32,-14.06,1.173,29.87,0.35458,-0.39438,-0.45383,-0.716,814
203,0.997,0.184,0.074,0.061,0.0,0.0,67.505,-78.679,92.417,-24.093,-8.387,-2.413,27.3,-0.18961,-0.67783,0.05362,-0.70825,809,0.649,0.215,0.734,0.0,-0.061,0.183,16.375,-40.397,-121.355,-22.04,-9.433,0.553,24.06,-0.49783,0.23257,0.28397,0.78571,807,0.581,0.222,0.78,0.061,0.244,0.244,15.76,-35.568,175.155,-16.253,-12.567,-20.767,28.37,-0.00113,0.30746,0.11639,0.94437,817,0.875,0.365,0.272,0.0,0.0,0.0,53.157,-62.468,-161.038,-26.32,-14.06,1.173,29.87,0.35458,-0.39438,-0.45383,-0.716,815
204,0.997,0.185,0.074,0.061,0.061,0.0,67.505,-78.679,92.406,-24.093,-8.387,-2.413,27.3,-0.19067,-0.67783,0.0545,-0.70792,820,0.649,0.216,0.731,0.0,0.0,0.183,16.37,-40.397,-121.355,-22.04,-9.433,0.553,24.06,-0.49783,0.23257,0.28397,0.78571,810,0.581,0.22,0.779,0.0,0.366,0.0,15.76,-35.568,175.177,-16.253,-12.567,-20.767,28.37,-0.00113,0.30746,0.11639,0.94437,822,0.874,0.366,0.271,0.0,0.0,0.122,53.157,-62.468,-161.032,-26.32,-14.06,1.173,29.87,0.35483,-0.39435,-0.45374,-0.71597,818
205,0.997,0.185,0.074,0.061,0.0,0.0,67.511,-78.679,92.39,-24.093,-8.387,-2.413,27.3,-0.19067,-0.67783,0.0545,-0.70792,821,0.647,0.217,0.731,0.122,-0.061,0.183,16.37,-40.397,-121.349,-22.04,-9.433,0.553,24.06,-0.49783,0.23257,0.28397,0.78571,811,0.581,0.221,0.779,0.0,0.305,0.0,15.76,-35.557,175.199,-16.253,-12.567,-20.767,28.37,-0.00113,0.30746,0.11639,0.94437,823,0.875,0.364,0.271,0.0,0.061,0.183,53.157,-62.468,-161.027,-26.32,-14.06,1.173,29.87,0.35483,-0.39435,-0.45374,-0.71597,819
206,0.999,0.186,0.073,0.061,0.061,0.0,67.516,-78.679,92.384,-24.093,-8.387,-2.413,27.3,-0.19067,-0.67783,0.0545,-0.70792,828,0.648,0.215,0.732,0.122,-0.122,0.183,16.375,-40.402,-121.349,-22.04,-9.433,0.553,24.06,-0.49777,0.23251,0.28387,0.7858,824,0.581,0.22,0.78,-0.305,0.244,0.244,15.754,-35.552,175.177,-16.253,-12.567,-20.767,28.37,-0.00214,0.30765,0.11768,0.94412,834,0.877,0.364,0.271,0.122,0.061,0.183,53.152,-62.468,-161.016,-26.32,-14.06,1.173,29.87,0.35483,-0.39435,-0.45374,-0.71597,826
207,1.0,0.185,0.073,0.122,0.061,0.0,67.516,-78.679,92.373,-24.093,-8.387,-2.413,27.3,-0.19067,-0.67783,0.0545,-0.70792,829,0.65,0.213,0.732,-0.061,-0.183,0.122,16.37,-40.402,-121.355,-22.04,-9.433,0.553,24.06,-0.49777,0.23251,0.28387,0.7858,825,0.579,0.217,0.778,-0.061,0.549,0.061,15.749,-35.552,175.172,-16.253,-12.567,-20.767,28.37,-0.00214,0.30765,0.11768,0.94412,835,0.877,0.364,0.271,0.183,0.0,0.122,53.152,-62.474,-161.005,-26.32,-14.06,1.173,29.87,0.35483,-0.39435,-0.45374,-0.71597,827
208,0.998,0.184,0.073,0.183,0.061,0.0,67.522,-78.679,92.368,-24.093,-8.387,-2.413,27.3,-0.19067,-0.67783,0.0545,-0.70792,836,0.65,0.213,0.732,-0.183,-0.244,0.183,16.364,-40.408,-121.355,-22.04,-9.433,0.553,24.06,-0.49777,0.23251,0.28387,0.7858,830,0.578,0.221,0.778,0.0,0.549,0.0,15.743,-35.541,175.204,-16.253,-12.567,-20.767,28.37,-0.00214,0.30765,0.11768,0.94412,840,0.875,0.364,0.272,0.244,0.0,0.0,53.157,-62.474,-161.005,-26.32,-14.06,1.173,29.87,0.35483,-0.39435,-0.45374,-0.71597,832
209,0.997,0.184,0.074,0.0,0.0,0.0,67.533,-78.679,92.351,-24.093,-8.387,-2.413,27.3,-0.19067,-0.67783,0.0545,-0.70792,837,0.648,0.212,0.733,-0.122,-0.244,0.122,16.364,-40.413,-121.355,-22.04,-9.433,0.553,24.06,-0.49777,0.23251,0.28387,0.7858,831,0.578,0.223,0.779,-0.122,0.488,0.061,15.743,-35.53,175.226,-16.253,-12.567,-20.767,28.37,-0.00214,0.30765,0.11768,0.94412,841,0.874,0.364,0.272,0.122,0.0,0.0,53.163,-62.474,-160.999,-26.32,-14.06,1.173,29.87,0.35483,-0.39435,-0.45374,-0.71597,833
210,0.997,0.185,0.075,0.0,0.0,0.0,67.538,-78.679,92.34,-24.093,-8.387,-2.413,27.3,-0.19067,-0.67783,0.0545,-0.70792,844,0.648,0.212,0.731,-0.183,-0.183,0.122,16.359,-40.419,-121.355,-22.04,-9.433,0.553,24.06,-0.49777,0.23251,0.28387,0.7858,838,0.579,0.222,0.78,0.0,0.427,-0.061,15.743,-35.524,175.237,-16.253,-12.567,-20.767,28.37,-0.00214,0.30765,0.11768,0.94412,848,0.875,0.364,0.272,0.183,0.0,0.0,53.168,-62.474,-160.999,-26.32,-14.06,1.173,29.87,0.35483,-0.39435,-0.45374,-0.71597,842
211,0.998,0.185,0.075,0.0,0.0,0.0,67.544,-78.679,92.324,-24.093,-8.387,-2.413,27.3,-0.19067,-0.67783,0.0545,-0.70792,845,0.647,0.214,0.731,-0.122,-0.122,0.122,16.353,-40.419,-121.36,-22.04,-9.433,0.553,24.06,-0.49777,0.23251,0.28387,0.7858,839,0.579,0.223,0.782,0.061,0.61,-0.122,15.743,-35.513,175.204,-16.253,-12.567,-20.767,28.37,-0.00214,0.30765,0.11768,0.94412,849,0.875,0.366,0.272,0.183,0.0,0.0,53.168,-62.474,-160.994,-26.32,-14.06,1.173,29.87,0.35483,-0.39435,-0.45374,-0.71597,843
212,0.999,0.185,0.076,0.0,0.0,0.0,67.549,-78.679,92.313,-24.093,-8.387,-2.413,27.3,-0.19067,-0.67783,0.0545,-0.70792,850,0.648,0.216,0.731,-0.061,-0.122,0.122,16.353,-40.419,-121.36,-22.04,-9.433,0.553,24.06,-0.49777,0.23251,0.28387,0.7858,846,0.579,0.223,0.783,-0.671,0.244,0.0,15.738,-35.502,175.172,-16.253,-12.567,-20.767,28.37,-0.00214,0.30765,0.11768,0.94412,858,0.876,0.367,0.273,0.183,-0.061,0.0,53.174,-62.474,-160.994,-26.32,-14.06,1.173,29.87,0.35483,-0.39435,-0.45374,-0.71597,852
213,0.999,0.185,0.075,-0.061,0.0,0.0,67.555,-78.679,92.296,-24.093,-8.387,-2.413,27.3,-0.19067,-0.67783,0.0545,-0.70792,851,0.649,0.216,0.733,-0.061,-0.061,0.061,16.348,-40.424,-121.36,-22.04,-9.433,0.553,24.06,-0.49777,0.23251,0.28387,0.7858,847,0.578,0.222,0.782,-0.122,0.366,-0.061,15.732,-35.497,175.172,-16.253,-12.567,-20.767,28.37,-0.00214,0.30765,0.11768,0.94412,859,0.876,0.366,0.273,0.061,0.0,0.0,53.179,-62.479,-160.994,-26.32,-14.06,1.173,29.87,0.35483,-0.39435,-0.45374,-0.71597,853
214,0.998,0.185,0.076,-0.061,0.061,0.0,67.555,-78.679,92.285,-24.093,-8.387,-2.413,27.3,-0.19067,-0.67783,0.0545,-0.70792,860,0.65,0.215,0.733,-0.122,0.0,0.0,16.348,-40.419,-121.366,-22.04,-9.433,0.553,24.06,-0.49777,0.23251,0.28387,0.7858,854,0.579,0.222,0.781,-0.488,0.183,0.061,15.727,-35.491,175.182,-16.253,-12.567,-20.767,28.37,-0.00214,0.30765,0.11768,0.94412,864,0.876,0.366,0.273,0.0,0.0,0.0,53.185,-62.479,-160.988,-26.32,-14.06,1.173,29.87,0.35483,-0.39435,-0.45374,-0.71597,856
215,0.998,0.185,0.076,-0.061,0.061,0.0,67.555,-78.679,92.28,-24.093,-8.387,-2.413,27.3,-0.19067,-0.67783,0.0545,-0.70792,861,0.649,0.216,0.734,-0.122,0.061,0.061,16.342,-40.419,-121.366,-22.04,-9.433,0.553,24.06,-0.49777,0.23251,0.28387,0.7858,855,0.577,0.22,0.781,0.061,0.244,0.061,15.721,-35.491,175.243,-16.253,-12.567,-20.767,28.37,-0.00214,0.30765,0.11768,0.94412,865,0.875,0.366,0.273,-0.061,0.0,0.0,53.185,-62.479,-160.988,-26.32,-14.06,1.173,29.87,0.35483,-0.39435,-0.45374,-0.71597,857
216,0.998,0.185,0.075,0.0,0.061,0.0,67.549,-78.679,92.269,-24.04,-8.34,-3.307,27.3,-0.19067,-0.67783,0.0545,-0.70792,868,0.649,0.214,0.734,-0.122,0.061,0.061,16.342,-40.419,-121.366,-22.04,-9.433,0.553,24.06,-0.49777,0.23251,0.28387,0.7858,862,0.578,0.221,0.781,-0.122,0.122,0.183,15.721,-35.486,175.347,-16.253,-12.567,-20.767,28.37,-0.00214,0.30765,0.11768,0.94412,872,0.875,0.366,0.272,0.0,0.0,0.0,53.185,-62.479,-160.983,-26.32,-14.06,1.173,29.87,0.35483,-0.39435,-0.45374,-0.71597,866
217,0.997,0.185,0.075,0.061,0.0,0.0,67.549,-78.679,92.263,-24.04,-8.34,-3.307,27.3,-0.19067,-0.67783,0.0545,-0.70792,869,0.647,0.214,0.733,0.0,0.0,0.122,16.337,-40.419,-121.366,-22.04,-9.433,0.553,24.06,-0.49777,0.23251,0.28387,0.7858,863,0.58,0.222,0.781,0.0,0.366,-0.122,15.716,-35.486,175.413,-16.253,-12.567,-20.767,28.37,-0.00214,0.30765,0.11768,0.94412,873,0.875,0.365,0.272,0.061,0.0,0.0,53.185,-62.479,-160.983,-26.32,-14.06,1.173,29.87,0.35483,-0.39435,-0.45374,-0.71597,867
218,0.999,0.186,0.075,0.061,-0.061,0.0,67.555,-78.679,92.247,-24.04,-8.34,-3.307,27.3,-0.19147,-0.67783,0.05521,-0.70764,876,0.648,0.213,0.733,0.061,0.0,0.122,16.337,-40.419,-121.366,-22.04,-9.433,0.553,24.06,-0.49777,0.23251,0.28387,0.7858,870,0.576,0.223,0.779,-0.183,0.061,-0.366,15.721,-35.475,175.419,-16.253,-12.567,-20.767,28.37,-0.00214,0.30765,0.11768,0.94412,878,0.875,0.365,0.273,0.244,-0.061,0.0,53.19,-62.479,-160.983,-26.32,-14.06,1.173,29.87,0.35483,-0.39435,-0.45374,-0.71597,874
219,0.998,0.184,0.075,0.0,0.0,0.0,67.566,-78.679,92.23,-24.04,-8.34,-3.307,27.3,-0.19147,-0.67783,0.05521,-0.70764,877,0.65,0.215,0.731,0.0,0.0,0.122,16.337,-40.419,-121.366,-22.04,-9.433,0.553,24.06,-0.49777,0.23251,0.28387,0.7858,871,0.577,0.217,0.78,-0.122,0.183,0.305,15.721,-35.475,175.402,-16.253,-12.567,-20.767,28.37,-0.00214,0.30765,0.11768,0.94412,879,0.876,0.367,0.271,0.122,-0.061,0.0,53.196,-62.479,-160.983,-26.32,-14.06,1.173,29.87,0.35483,-0.39435,-0.45374,-0.71597,875
220,0.996,0.185,0.075,0.0,0.0,0.0,67.571,-78.679,92.219,-24.04,-8.34,-3.307,27.3,-0.19147,-0.67783,0.05521,-0.70764,880,0.647,0.216,0.733,0.183,0.0,0.061,16.337,-40.413,-121.366,-22.073,-10.0,1.653,24.06,-0.49777,0.23251,0.28387,0.7858,882,0.579,0.225,0.778,-0.427,0.183,-0.305,15.716,-35.469,175.408,-16.253,-12.567,-20.767,28.37,-0.00214,0.30765,0.11768,0.94412,884,0.875,0.363,0.272,0.122,-0.061,0.0,53.201,-62.479,-160.983,-26.22,-14.087,1.453,29.87,0.35483,-0.39435,-0.45374,-0.71597,886
221,0.998,0.185,0.074,0.0,0.0,0.0,67.571,-78.679,92.208,-24.04,-8.34,-3.307,27.3,-0.19147,-0.67783,0.05521,-0.70764,881,0.648,0.211,0.731,0.0,0.0,0.122,16.337,-40.413,-121.366,-22.073,-10.0,1.653,24.06,-0.49777,0.23251,0.28387,0.7858,883,0.585,0.214,0.781,0.61,0.671,-0.305,15.716,-35.464,175.413,-16.253,-12.567,-20.767,28.37,-0.00214,0.30765,0.11768,0.94412,885,0.873,0.366,0.272,0.122,-0.061,0.0,53.207,-62.479,-160.983,-26.22,-14.087,1.453,29.87,0.35483,-0.39435,-0.45374,-0.71597,887
222,1.002,0.187,0.073,-0.122,0.0,0.0,67.577,-78.679,92.197,-24.04,-8.34,-3.307,27.3,-0.19147,-0.67783,0.05521,-0.70764,892,0.647,0.215,0.732,-0.183,0.0,0.0,16.331,-40.413,-121.371,-22.073,-10.0,1.653,24.06,-0.49756,0.23285,0.28363,0.78592,888,0.579,0.221,0.784,0.366,0.244,-0.671,15.732,-35.453,175.435,-16.18,-12.673,-20.793,28.37,-0.00214,0.30765,0.11768,0.94412,896,0.875,0.368,0.271,0.0,0.122,0.0,53.207,-62.479,-160.977,-26.22,-14.087,1.453,29.87,0.35535,-0.39404,-0.45422,-0.71555,890
223,1.0,0.186,0.074,0.061,0.0,0.0,67.582,-78.679,92.186,-24.04,-8.34,-3.307,27.3,-0.19147,-0.67783,0.05521,-0.70764,893,0.653,0.215,0.732,-0.061,0.061,0.0,16.331,-40.413,-121.371,-22.073,-10.0,1.653,24.06,-0.49756,0.23285,0.28363,0.78592,889,0.577,0.226,0.784,1.038,0.244,-0.183,15.749,-35.442,175.452,-16.18,-12.673,-20.793,28.37,-0.00214,0.30765,0.11768,0.94412,897,0.88,0.368,0.272,0.0,0.0,0.0,53.207,-62.479,-160.972,-26.22,-14.087,1.453,29.87,0.35535,-0.39404,-0.45422,-0.71555,891
224,0.997,0.185,0.073,0.061,0.122,0.0,67.582,-78.679,92.175,-24.04,-8.34,-3.307,27.3,-0.19147,-0.67783,0.05521,-0.70764,898,0.652,0.211,0.732,0.061,-0.122,0.0,16.331,-40.413,-121.377,-22.073,-10.0,1.653,24.06,-0.49756,0.23285,0.28363,0.78592,894,0.578,0.23,0.784,-0.427,0.0,0.061,15.765,-35.442,175.468,-16.18,-12.673,-20.793,28.37,-0.00443,0.30643,0.11862,0.9444,904,0.878,0.367,0.273,-0.061,0.0,0.0,53.212,-62.479,-160.972,-26.22,-14.087,1.453,29.87,0.35535,-0.39404,-0.45422,-0.71555,902
225,0.997,0.184,0.073,0.0,0.305,0.0,67.577,-78.679,92.181,-24.04,-8.34,-3.307,27.3,-0.19147,-0.67783,0.05521,-0.70764,899,0.65,0.214,0.736,0.122,0.0,-0.427,16.342,-40.413,-121.388,-22.073,-10.0,1.653,24.06,-0.49756,0.23285,0.28363,0.78592,895,0.578,0.223,0.781,-0.122,0.0,0.305,15.754,-35.442,175.479,-16.18,-12.673,-20.793,28.37,-0.00443,0.30643,0.11862,0.9444,905,0.875,0.365,0.27,0.0,0.0,0.0,53.212,-62.479,-160.972,-26.22,-14.087,1.453,29.87,0.35535,-0.39404,-0.45422,-0.71555,903
226,0.998,0.184,0.074,0.061,0.183,0.0,67.56,-78.673,92.192,-24.04,-8.34,-3.307,27.3,-0.19147,-0.67783,0.05521,-0.70764,908,0.648,0.217,0.733,0.244,0.0,-0.122,16.348,-40.413,-121.393,-22.073,-10.0,1.653,24.06,-0.49756,0.23285,0.28363,0.78592,900,0.575,0.224,0.779,-0.427,-0.305,0.122,15.754,-35.442,175.512,-16.18,-12.673,-20.793,28.37,-0.00443,0.30643,0.11862,0.9444,914,0.875,0.364,0.271,0.427,0.0,0.0,53.218,-62.479,-160.966,-26.22,-14.087,1.453,29.87,0.35535,-0.39404,-0.45422,-0.71555,906
227,0.997,0.184,0.074,0.244,0.0,0.0,67.555,-78.673,92.197,-24.04,-8.34,-3.307,27.3,-0.19147,-0.67783,0.05521,-0.70764,909,0.65,0.218,0.733,0.183,-0.061,0.122,16.348,-40.413,-121.393,-22.073,-10.0,1.653,24.06,-0.49756,0.23285,0.28363,0.78592,901,0.577,0.219,0.777,-0.061,0.0,0.122,15.749,-35.447,175.556,-16.18,-12.673,-20.793,28.37,-0.00443,0.30643,0.11862,0.9444,915,0.875,0.366,0.272,0.549,-0.061,0.0,53.234,-62.479,-160.966,-26.22,-14.087,1.453,29.87,0.35535,-0.39404,-0.45422,-0.71555,907
228,0.996,0.184,0.075,0.0,0.0,0.0,67.566,-78.673,92.186,-24.04,-8.34,-3.307,27.3,-0.19147,-0.67783,0.05521,-0.70764,916,0.648,0.217,0.731,0.061,-0.061,0.183,16.348,-40.413,-121.393,-22.073,-10.0,1.653,24.06,-0.49756,0.23285,0.28363,0.78592,910,0.577,0.218,0.777,-0.488,0.061,-0.061,15.743,-35.447,175.556,-16.18,-12.673,-20.793,28.37,-0.00443,0.30643,0.11862,0.9444,918,0.874,0.366,0.271,0.305,-0.061,0.0,53.245,-62.479,-160.966,-26.22,-14.087,1.453,29.87,0.35535,-0.39404,-0.45422,-0.71555,912
229,0.997,0.185,0.076,-0.061,0.0,0.0,67.571,-78.673,92.175,-24.04,-8.34,-3.307,27.3,-0.19147,-0.67783,0.05521,-0.70764,917,0.647,0.216,0.73,0.0,0.0,0.122,16.348,-40.413,-121.393,-22.073,-10.0,1.653,24.06,-0.49756,0.23285,0.28363,0.78592,911,0.578,0.22,0.778,-0.183,0.366,-0.122,15.738,-35.447,175.578,-16.18,-12.673,-20.793,28.37,-0.00443,0.30643,0.11862,0.9444,919,0.874,0.365,0.272,0.061,-0.061,0.0,53.251,-62.479,-160.966,-26.22,-14.087,1.453,29.87,0.35535,-0.39404,-0.45422,-0.71555,913
230,0.998,0.185,0.076,0.0,0.0,0.0,67.577,-78.673,92.164,-24.04,-8.34,-3.307,27.3,-0.19147,-0.67783,0.05521,-0.70764,924,0.648,0.211,0.729,-0.183,-0.061,0.0,16.342,-40.413,-121.393,-22.073,-10.0,1.653,24.06,-0.49756,0.23285,0.28363,0.78592,920,0.577,0.223,0.781,-0.244,0.427,-0.183,15.738,-35.436,175.594,-16.18,-12.673,-20.793,28.37,-0.00443,0.30643,0.11862,0.9444,928,0.874,0.364,0.272,0.0,-0.061,0.0,53.256,-62.479,-160.966,-26.22,-14.087,1.453,29.87,0.35535,-0.39404,-0.45422,-0.71555,922
231,0.999,0.185,0.076,0.0,0.0,0.0,67.582,-78.673,92.153,-24.04,-8.34,-3.307,27.3,-0.19147,-0.67783,0.05521,-0.70764,925,0.648,0.213,0.731,-0.488,0.0,-0.122,16.337,-40.413,-121.399,-22.073,-10.0,1.653,24.06,-0.49756,0.23285,0.28363,0.78592,921,0.578,0.224,0.785,0.0,0.366,-0.061,15.732,-35.431,175.622,-16.18,-12.673,-20.793,28.37,-0.00443,0.30643,0.11862,0.9444,929,0.875,0.365,0.272,0.061,0.0,0.0,53.256,-62.479,-160.966,-26.22,-14.087,1.453,29.87,0.35535,-0.39404,-0.45422,-0.71555,923
232,1.0,0.187,0.075,-0.061,0.061,0.0,67.582,-78.673,92.142,-24.453,-8.727,-3.027,27.3,-0.19147,-0.67783,0.05521,-0.70764,930,0.649,0.216,0.733,-0.244,0.061,-0.122,16.331,-40.413,-121.404,-22.073,-10.0,1.653,24.06,-0.49756,0.23285,0.28363,0.78592,926,0.578,0.223,0.783,-0.183,0.183,-0.305,15.738,-35.425,175.649,-16.18,-12.673,-20.793,28.37,-0.00443,0.30643,0.11862,0.9444,936,0.876,0.367,0.272,0.061,0.0,0.0,53.262,-62.479,-160.966,-26.22,-14.087,1.453,29.87,0.35535,-0.39404,-0.45422,-0.71555,932
233,0.999,0.188,0.075,0.0,0.061,0.0,67.582,-78.673,92.137,-24.453,-8.727,-3.027,27.3,-0.19147,-0.67783,0.05521,-0.70764,931,0.649,0.217,0.735,-0.061,0.0,-0.061,16.331,-40.413,-121.41,-22.073,-10.0,1.653,24.06,-0.49756,0.23285,0.28363,0.78592,927,0.581,0.221,0.783,-0.061,0.549,-0.366,15.738,-35.414,175.666,-16.18,-12.673,-20.793,28.37,-0.00443,0.30643,0.11862,0.9444,937,0.876,0.369,0.272,0.122,0.061,0.0,53.262,-62.479,-160.961,-26.22,-14.087,1.453,29.87,0.35535,-0.39404,-0.45422,-0.71555,933
234,0.998,0.186,0.075,0.0,0.061,0.0,67.577,-78.673,92.131,-24.453,-8.727,-3.027,27.3,-0.19202,-0.6778,0.05569,-0.70746,940,0.651,0.215,0.734,0.0,-0.122,-0.061,16.331,-40.413,-121.415,-22.073,-10.0,1.653,24.06,-0.49756,0.23285,0.28363,0.78592,934,0.573,0.228,0.778,-0.427,-0.061,-0.549,15.743,-35.409,175.616,-16.18,-12.673,-20.793,28.37,-0.00443,0.30643,0.11862,0.9444,944,0.875,0.369,0.273,0.061,0.0,0.0,53.262,-62.479,-160.955,-26.22,-14.087,1.453,29.87,0.35535,-0.39404,-0.45422,-0.71555,938
235,0.997,0.184,0.075,0.0,0.122,0.0,67.577,-78.673,92.131,-24.453,-8.727,-3.027,27.3,-0.19202,-0.6778,0.05569,-0.70746,941,0.649,0.216,0.731,-0.122,-0.122,-0.183,16.331,-40.413,-121.421,-22.073,-10.0,1.653,24.06,-0.49756,0.23285,0.28363,0.78592,935,0.573,0.226,0.783,0.122,0.305,-0.061,15.743,-35.403,175.551,-16.18,-12.673,-20.793,28.37,-0.00443,0.30643,0.11862,0.9444,945,0.875,0.367,0.271,0.122,0.0,0.0,53.267,-62.479,-160.955,-26.22,-14.087,1.453,29.87,0.35535,-0.39404,-0.45422,-0.71555,939
236,0.996,0.184,0.075,0.0,0.122,0.0,67.571,-78.673,92.131,-24.453,-8.727,-3.027,27.3,-0.19202,-0.6778,0.05569,-0.70746,948,0.647,0.218,0.731,0.0,0.0,-0.183,16.331,-40.413,-121.432,-22.073,-10.0,1.653,24.06,-0.49756,0.23285,0.28363,0.78592,942,0.579,0.223,0.782,-0.427,0.0,0.061,15.743,-35.398,175.507,-16.18,-12.673,-20.793,28.37,-0.00443,0.30643,0.11862,0.9444,950,0.875,0.367,0.271,0.183,0.061,0.0,53.273,-62.479,-160.95,-26.22,-14.087,1.453,29.87,0.35535,-0.39404,-0.45422,-0.71555,946
237,0.997,0.184,0.074,0.061,0.061,0.0,67.566,-78.673,92.131,-24.453,-8.727,-3.027,27.3,-0.19202,-0.6778,0.05569,-0.70746,949,0.647,0.217,0.732,0.183,0.0,0.0,16.337,-40.413,-121.437,-22.073,-10.0,1.653,24.06,-0.49756,0.23285,0.28363,0.78592,943,0.577,0.224,0.781,-0.366,0.061,0.0,15.738,-35.398,175.485,-16.18,-12.673,-20.793,28.37,-0.00443,0.30643,0.11862,0.9444,951,0.874,0.366,0.272,0.061,0.0,0.0,53.273,-62.479,-160.95,-26.22,-14.087,1.453,29.87,0.35535,-0.39404,-0.45422,-0.71555,947
238,0.998,0.185,0.075,0.061,0.061,0.0,67.566,-78.673,92.126,-24.453,-8.727,-3.027,27.3,-0.19202,-0.6778,0.05569,-0.70746,952,0.649,0.216,0.731,0.0,0.061,0.061,16.342,-40.413,-121.437,-22.5,-9.787,1.847,24.06,-0.49756,0.23285,0.28363,0.78592,956,0.575,0.222,0.782,-0.427,-0.061,0.244,15.732,-35.398,175.468,-16.293,-12.893,-21.453,28.37,-0.00443,0.30643,0.11862,0.9444,954,0.875,0.365,0.271,0.122,0.122,0.0,53.278,-62.479,-160.944,-26.5,-14.313,1.58,29.87,0.35535,-0.39404,-0.45422,-0.71555,958
239,0.998,0.185,0.074,0.122,0.061,0.0,67.566,-78.668,92.12,-24.453,-8.727,-3.027,27.3,-0.19202,-0.6778,0.05569,-0.70746,953,0.649,0.216,0.732,-0.244,0.061,0.061,16.342,-40.408,-121.437,-22.5,-9.787,1.847,24.06,-0.49756,0.23285,0.28363,0.78592,957,0.576,0.219,0.785,-0.183,0.0,0.0,15.727,-35.403,175.43,-16.293,-12.893,-21.453,28.37,-0.00443,0.30643,0.11862,0.9444,955,0.876,0.367,0.27,0.122,0.061,0.0,53.278,-62.474,-160.939,-26.5,-14.313,1.58,29.87,0.35535,-0.39404,-0.45422,-0.71555,959
