Index,L5_Acceleration X(g),L5_Acceleration Y(g),L5_Acceleration Z(g),L5_Angular velocity X(°/s),L5_Angular velocity Y(°/s),L5_Angular velocity Z(°/s),L5_Angle X(°),L5_Angle Y(°),L5_Angle Z(°),L5_Magnetic field X(ʯt),L5_Magnetic field Y(ʯt),L5_Magnetic field Z(ʯt),L5_Temperature(℃),L5_Quaternions 0(),L5_Quaternions 1(),L5_Quaternions 2(),L5_Quaternions 3(),L5___orig_idx,T4_Acceleration X(g),T4_Acceleration Y(g),T4_Acceleration Z(g),T4_Angular velocity X(°/s),T4_Angular velocity Y(°/s),T4_Angular velocity Z(°/s),T4_Angle X(°),T4_Angle Y(°),T4_Angle Z(°),T4_Magnetic field X(ʯt),T4_Magnetic field Y(ʯt),T4_Magnetic field Z(ʯt),T4_Temperature(℃),T4_Quaternions 0(),T4_Quaternions 1(),T4_Quaternions 2(),T4_Quaternions 3(),T4___orig_idx,C7_Acceleration X(g),C7_Acceleration Y(g),C7_Acceleration Z(g),C7_Angular velocity X(°/s),C7_Angular velocity Y(°/s),C7_Angular velocity Z(°/s),C7_Angle X(°),C7_Angle Y(°),C7_Angle Z(°),C7_Magnetic field X(ʯt),C7_Magnetic field Y(ʯt),C7_Magnetic field Z(ʯt),C7_Temperature(℃),C7_Quaternions 0(),C7_Quaternions 1(),C7_Quaternions 2(),C7_Quaternions 3(),C7___orig_idx,T12_Acceleration X(g),T12_Acceleration Y(g),T12_Acceleration Z(g),T12_Angular velocity X(°/s),T12_Angular velocity Y(°/s),T12_Angular velocity Z(°/s),T12_Angle X(°),T12_Angle Y(°),T12_Angle Z(°),T12_Magnetic field X(ʯt),T12_Magnetic field Y(ʯt),T12_Magnetic field Z(ʯt),T12_Temperature(℃),T12_Quaternions 0(),T12_Quaternions 1(),T12_Quaternions 2(),T12_Quaternions 3(),T12___orig_idx
0,0.891,-0.051,0.493,0.0,0.0,0.0,-5.856,-60.853,171.112,-25.367,-11.993,-17.607,26.65,0.09244,0.50082,-0.08307,0.85651,4,0.564,0.307,0.765,-0.427,0.427,0.183,21.802,-34.36,-149.321,-16.407,-15.593,-5.793,27.85,0.30197,-0.2319,-0.25195,-0.88965,2,0.48,0.425,0.762,-0.61,0.0,0.183,28.982,-28.922,107.183,-10.427,-19.053,-29.207,30.09,-0.50595,-0.33838,-0.05197,-0.79163,0,0.846,0.234,0.454,-0.061,0.122,0.0,26.675,-58.892,178.05,-26.133,-16.647,-10.293,31.26,-0.10132,0.48154,0.19385,0.84863,6
1,0.892,-0.051,0.494,0.0,0.0,0.0,-5.856,-60.853,171.112,-25.367,-11.993,-17.607,26.65,0.09244,0.50082,-0.08307,0.85651,5,0.564,0.307,0.765,-0.305,0.305,0.122,21.797,-34.354,-149.304,-16.407,-15.593,-5.793,27.85,0.30197,-0.2319,-0.25195,-0.88965,3,0.481,0.425,0.764,-0.549,0.122,0.061,28.971,-28.922,107.144,-10.427,-19.053,-29.207,30.09,-0.50595,-0.33838,-0.05197,-0.79163,1,0.846,0.233,0.454,-0.061,0.366,0.0,26.675,-58.892,178.017,-26.133,-16.647,-10.293,31.26,-0.10132,0.48154,0.19385,0.84863,7
2,0.89,-0.05,0.494,0.0,0.0,0.0,-5.856,-60.853,171.107,-25.367,-11.993,-17.607,26.65,0.09244,0.50082,-0.08307,0.85651,8,0.564,0.305,0.764,-0.366,0.244,0.0,21.786,-34.354,-149.304,-16.407,-15.593,-5.793,27.85,0.30197,-0.2319,-0.25195,-0.88965,12,0.479,0.423,0.763,-0.427,-0.061,0.0,28.96,-28.922,107.089,-10.427,-19.053,-29.207,30.09,-0.50595,-0.33838,-0.05197,-0.79163,10,0.844,0.231,0.456,-0.244,0.488,0.0,26.669,-58.881,178.0,-26.133,-16.647,-10.293,31.26,-0.10132,0.48154,0.19385,0.84863,18
3,0.888,-0.05,0.495,0.0,0.122,0.0,-5.856,-60.853,171.101,-25.367,-11.993,-17.607,26.65,0.09244,0.50082,-0.08307,0.85651,9,0.562,0.306,0.766,-0.488,0.427,0.0,21.775,-34.343,-149.299,-16.407,-15.593,-5.793,27.85,0.30197,-0.2319,-0.25195,-0.88965,13,0.479,0.424,0.761,-0.61,-0.244,0.0,28.954,-28.922,107.04,-10.427,-19.053,-29.207,30.09,-0.50595,-0.33838,-0.05197,-0.79163,11,0.844,0.229,0.457,-0.122,0.549,0.305,26.658,-58.876,178.0,-26.133,-16.647,-10.293,31.26,-0.10132,0.48154,0.19385,0.84863,19
4,0.888,-0.05,0.495,0.0,0.061,0.0,-5.856,-60.853,171.101,-25.367,-11.993,-17.607,26.65,0.09244,0.50082,-0.08307,0.85651,14,0.562,0.306,0.768,-0.671,0.61,0.0,21.758,-34.338,-149.288,-16.333,-15.32,-5.773,27.85,0.30197,-0.2319,-0.25195,-0.88965,20,0.478,0.425,0.761,-0.977,-0.122,0.0,28.938,-28.922,106.985,-10.427,-19.053,-29.207,30.09,-0.50595,-0.33838,-0.05197,-0.79163,16,0.845,0.228,0.456,-0.183,0.427,0.427,26.642,-58.87,178.022,-26.133,-16.647,-10.293,31.26,-0.09854,0.48166,0.19241,0.84921,22
5,0.889,-0.051,0.494,-0.061,0.0,0.0,-5.856,-60.848,171.096,-25.367,-11.993,-17.607,26.65,0.09244,0.50082,-0.08307,0.85651,15,0.562,0.309,0.767,-1.099,0.732,0.183,21.731,-34.321,-149.271,-16.333,-15.32,-5.773,27.85,0.30197,-0.2319,-0.25195,-0.88965,21,0.481,0.427,0.763,-1.282,0.0,0.0,28.916,-28.922,106.968,-10.427,-19.053,-29.207,30.09,-0.50595,-0.33838,-0.05197,-0.79163,17,0.846,0.23,0.456,-0.061,0.366,0.671,26.62,-58.865,178.05,-26.133,-16.647,-10.293,31.26,-0.09854,0.48166,0.19241,0.84921,23
6,0.892,-0.053,0.494,-0.061,0.0,0.0,-5.861,-60.848,171.096,-25.367,-11.993,-17.607,26.65,0.09244,0.50082,-0.08307,0.85651,24,0.563,0.307,0.767,-1.038,0.488,0.366,21.703,-34.316,-149.255,-16.333,-15.32,-5.773,27.85,0.30197,-0.2319,-0.25195,-0.88965,28,0.479,0.429,0.765,-1.343,-0.183,0.0,28.894,-28.922,106.93,-10.427,-19.053,-29.207,30.09,-0.50595,-0.33838,-0.05197,-0.79163,26,0.848,0.229,0.455,-0.977,0.061,1.038,26.592,-58.87,178.083,-26.133,-16.647,-10.293,31.26,-0.09854,0.48166,0.19241,0.84921,30
7,0.89,-0.054,0.493,-0.061,0.0,0.0,-5.861,-60.848,171.09,-25.367,-11.993,-17.607,26.65,0.09244,0.50082,-0.08307,0.85651,25,0.565,0.306,0.768,-0.916,0.549,0.427,21.682,-34.31,-149.238,-16.333,-15.32,-5.773,27.85,0.30197,-0.2319,-0.25195,-0.88965,29,0.479,0.424,0.763,-1.221,-0.183,0.061,28.872,-28.927,106.919,-10.427,-19.053,-29.207,30.09,-0.50595,-0.33838,-0.05197,-0.79163,27,0.852,0.229,0.456,-1.77,0.305,1.831,26.532,-58.876,178.138,-26.133,-16.647,-10.293,31.26,-0.09854,0.48166,0.19241,0.84921,31
8,0.885,-0.057,0.492,-0.366,0.122,-0.488,-5.861,-60.848,171.079,-25.367,-11.993,-17.607,26.65,0.09244,0.50082,-0.08307,0.85651,34,0.571,0.314,0.765,-1.221,0.854,0.305,21.649,-34.299,-149.222,-16.333,-15.32,-5.773,27.85,0.30234,-0.23166,-0.25015,-0.89008,38,0.483,0.426,0.759,-1.404,0.244,0.0,28.85,-28.922,106.919,-10.427,-19.053,-29.207,30.09,-0.50595,-0.33838,-0.05197,-0.79163,32,0.851,0.228,0.458,-1.648,0.916,2.625,26.439,-58.887,178.215,-26.133,-16.647,-10.293,31.26,-0.09854,0.48166,0.19241,0.84921,36
9,0.886,-0.061,0.496,-0.793,0.244,-1.099,-5.845,-60.848,171.041,-25.367,-11.993,-17.607,26.65,0.09244,0.50082,-0.08307,0.85651,35,0.569,0.316,0.765,-1.648,1.282,0.549,21.61,-34.277,-149.189,-16.333,-15.32,-5.773,27.85,0.30234,-0.23166,-0.25015,-0.89008,39,0.485,0.436,0.758,-1.282,0.061,-0.427,28.834,-28.916,106.897,-10.427,-19.053,-29.207,30.09,-0.50595,-0.33838,-0.05197,-0.79163,33,0.847,0.228,0.453,-1.892,1.648,2.869,26.312,-58.892,178.325,-26.133,-16.647,-10.293,31.26,-0.09854,0.48166,0.19241,0.84921,37
10,0.894,-0.058,0.496,-0.671,-0.122,-1.648,-5.817,-60.848,171.002,-25.367,-11.993,-17.607,26.65,0.09244,0.50082,-0.08307,0.85651,40,0.564,0.313,0.767,-1.892,1.16,1.099,21.555,-34.266,-149.134,-16.333,-15.32,-5.773,27.85,0.30234,-0.23166,-0.25015,-0.89008,44,0.484,0.438,0.761,-0.977,-0.122,-0.366,28.823,-28.911,106.859,-10.547,-18.76,-29.313,30.09,-0.50595,-0.33838,-0.05197,-0.79163,42,0.846,0.229,0.45,-1.953,1.648,2.747,26.169,-58.887,178.44,-26.133,-16.647,-10.293,31.26,-0.09854,0.48166,0.19241,0.84921,46
11,0.897,-0.052,0.496,-0.61,-0.244,-1.831,-5.773,-60.853,170.964,-25.367,-11.993,-17.607,26.65,0.09244,0.50082,-0.08307,0.85651,41,0.562,0.305,0.77,-1.892,0.916,1.465,21.5,-34.261,-149.084,-16.333,-15.32,-5.773,27.85,0.30234,-0.23166,-0.25015,-0.89008,45,0.481,0.431,0.765,-1.099,0.061,0.244,28.806,-28.911,106.793,-10.547,-18.76,-29.313,30.09,-0.50595,-0.33838,-0.05197,-0.79163,43,0.845,0.23,0.454,-1.648,1.526,2.625,26.038,-58.887,178.539,-26.133,-16.647,-10.293,31.26,-0.09854,0.48166,0.19241,0.84921,47
12,0.895,-0.044,0.494,-0.61,-0.122,-1.526,-5.735,-60.859,170.925,-25.367,-11.993,-17.607,26.65,0.09244,0.50082,-0.08307,0.85651,50,0.562,0.303,0.765,-2.197,1.038,1.526,21.44,-34.255,-149.041,-16.333,-15.32,-5.773,27.85,0.30234,-0.23166,-0.25015,-0.89008,48,0.48,0.425,0.765,-1.77,0.61,0.61,28.773,-28.911,106.727,-10.547,-18.76,-29.313,30.09,-0.50989,-0.33759,-0.0488,-0.78967,52,0.843,0.23,0.454,-1.343,1.404,2.625,25.917,-58.881,178.638,-26.133,-16.647,-10.293,31.26,-0.09854,0.48166,0.19241,0.84921,54
13,0.893,-0.042,0.493,-0.488,-0.183,-0.793,-5.707,-60.864,170.898,-25.367,-11.993,-17.607,26.65,0.09244,0.50082,-0.08307,0.85651,51,0.562,0.301,0.765,-2.319,0.916,1.16,21.379,-34.244,-149.013,-16.333,-15.32,-5.773,27.85,0.30234,-0.23166,-0.25015,-0.89008,49,0.482,0.42,0.764,-2.258,0.305,0.488,28.729,-28.905,106.65,-10.547,-18.76,-29.313,30.09,-0.50989,-0.33759,-0.0488,-0.78967,53,0.844,0.225,0.454,-1.038,1.404,2.441,25.812,-58.881,178.742,-26.133,-16.647,-10.293,31.26,-0.09854,0.48166,0.19241,0.84921,55
14,0.891,-0.043,0.489,-0.244,0.0,-0.366,-5.696,-60.87,170.881,-25.407,-12.307,-17.72,26.65,0.09244,0.50082,-0.08307,0.85651,56,0.563,0.297,0.765,-2.38,0.916,0.977,21.319,-34.239,-148.975,-16.333,-15.32,-5.773,27.85,0.30234,-0.23166,-0.25015,-0.89008,60,0.482,0.419,0.763,-2.441,0.0,0.61,28.685,-28.911,106.617,-10.547,-18.76,-29.313,30.09,-0.50989,-0.33759,-0.0488,-0.78967,58,0.845,0.22,0.455,-0.977,1.343,2.075,25.714,-58.876,178.852,-26.133,-16.647,-10.293,31.26,-0.09854,0.48166,0.19241,0.84921,62
15,0.892,-0.046,0.488,-0.183,0.305,-0.122,-5.691,-60.87,170.854,-25.407,-12.307,-17.72,26.65,0.09244,0.50082,-0.08307,0.85651,57,0.562,0.295,0.768,-2.502,0.854,1.038,21.253,-34.233,-148.936,-16.333,-15.32,-5.773,27.85,0.30234,-0.23166,-0.25015,-0.89008,61,0.482,0.418,0.762,-2.747,0.183,0.793,28.63,-28.916,106.6,-10.547,-18.76,-29.313,30.09,-0.50989,-0.33759,-0.0488,-0.78967,59,0.845,0.221,0.457,-1.16,1.16,1.77,25.631,-58.87,178.94,-26.133,-16.647,-10.293,31.26,-0.09854,0.48166,0.19241,0.84921,63
16,0.895,-0.046,0.49,-0.183,0.488,-0.183,-5.685,-60.859,170.81,-25.407,-12.307,-17.72,26.65,0.09244,0.50082,-0.08307,0.85651,64,0.562,0.294,0.77,-2.441,0.916,1.099,21.193,-34.222,-148.914,-16.333,-15.32,-5.773,27.85,0.30234,-0.23166,-0.25015,-0.89008,68,0.483,0.416,0.764,-2.93,1.038,0.977,28.564,-28.911,106.617,-10.547,-18.76,-29.313,30.09,-0.50989,-0.33759,-0.0488,-0.78967,66,0.846,0.223,0.459,-1.099,0.916,1.404,25.554,-58.87,179.011,-26.133,-16.647,-10.293,31.26,-0.09854,0.48166,0.19241,0.84921,70
17,0.895,-0.044,0.492,-0.061,0.488,-0.122,-5.68,-60.853,170.777,-25.407,-12.307,-17.72,26.65,0.09244,0.50082,-0.08307,0.85651,65,0.562,0.292,0.771,-2.197,0.549,0.916,21.138,-34.222,-148.887,-16.333,-15.32,-5.773,27.85,0.30234,-0.23166,-0.25015,-0.89008,69,0.481,0.413,0.768,-2.93,1.587,0.916,28.493,-28.894,106.65,-10.547,-18.76,-29.313,30.09,-0.50989,-0.33759,-0.0488,-0.78967,67,0.847,0.222,0.462,-0.732,0.732,1.038,25.499,-58.865,179.066,-26.133,-16.647,-10.293,31.26,-0.09854,0.48166,0.19241,0.84921,71
18,0.891,-0.041,0.495,0.0,0.488,0.122,-5.674,-60.848,170.75,-25.407,-12.307,-17.72,26.65,0.09424,0.50073,-0.08325,0.85635,74,0.564,0.292,0.771,-1.892,0.488,0.854,21.088,-34.222,-148.865,-16.333,-15.32,-5.773,27.85,0.30234,-0.23166,-0.25015,-0.89008,76,0.48,0.413,0.771,-2.625,1.587,0.916,28.427,-28.872,106.677,-10.547,-18.76,-29.313,30.09,-0.50989,-0.33759,-0.0488,-0.78967,72,0.846,0.221,0.464,-0.427,0.977,0.793,25.455,-58.859,179.105,-26.053,-16.713,-9.48,31.26,-0.09854,0.48166,0.19241,0.84921,80
19,0.889,-0.041,0.496,-0.122,0.549,0.427,-5.68,-60.837,170.733,-25.407,-12.307,-17.72,26.65,0.09424,0.50073,-0.08325,0.85635,75,0.561,0.292,0.773,-1.648,0.549,0.671,21.044,-34.217,-148.837,-16.333,-15.32,-5.773,27.85,0.30234,-0.23166,-0.25015,-0.89008,77,0.477,0.412,0.769,-2.197,1.221,0.916,28.367,-28.861,106.705,-10.547,-18.76,-29.313,30.09,-0.50989,-0.33759,-0.0488,-0.78967,73,0.843,0.217,0.464,-0.244,1.038,0.793,25.417,-58.848,179.121,-26.053,-16.713,-9.48,31.26,-0.09854,0.48166,0.19241,0.84921,81
20,0.888,-0.046,0.496,-0.244,0.488,0.671,-5.696,-60.826,170.717,-25.407,-12.307,-17.72,26.65,0.09424,0.50073,-0.08325,0.85635,78,0.561,0.292,0.774,-1.587,0.977,0.671,21.0,-34.206,-148.81,-16.66,-15.547,-5.873,27.85,0.30234,-0.23166,-0.25015,-0.89008,82,0.477,0.412,0.768,-2.014,1.282,0.854,28.317,-28.845,106.727,-10.547,-18.76,-29.313,30.09,-0.50989,-0.33759,-0.0488,-0.78967,86,0.842,0.217,0.462,-0.244,1.221,0.916,25.378,-58.837,179.176,-26.053,-16.713,-9.48,31.26,-0.10181,0.48053,0.1879,0.85046,84
21,0.886,-0.052,0.496,-0.244,0.549,0.671,-5.718,-60.815,170.744,-25.407,-12.307,-17.72,26.65,0.09424,0.50073,-0.08325,0.85635,79,0.557,0.293,0.772,-1.831,1.099,0.61,20.951,-34.189,-148.777,-16.66,-15.547,-5.873,27.85,0.30234,-0.23166,-0.25015,-0.89008,83,0.475,0.413,0.769,-2.136,1.77,0.549,28.262,-28.823,106.765,-10.547,-18.76,-29.313,30.09,-0.50989,-0.33759,-0.0488,-0.78967,87,0.842,0.218,0.463,-0.366,1.343,1.038,25.329,-58.821,179.247,-26.053,-16.713,-9.48,31.26,-0.10181,0.48053,0.1879,0.85046,85
22,0.886,-0.055,0.496,-0.061,0.549,0.61,-5.74,-60.804,170.771,-25.407,-12.307,-17.72,26.65,0.09424,0.50073,-0.08325,0.85635,88,0.557,0.292,0.772,-1.526,1.099,0.671,20.907,-34.173,-148.749,-16.66,-15.547,-5.873,27.85,0.30234,-0.23166,-0.25015,-0.89008,92,0.473,0.414,0.77,-1.892,1.526,0.366,28.213,-28.801,106.787,-10.547,-18.76,-29.313,30.09,-0.50989,-0.33759,-0.0488,-0.78967,90,0.842,0.217,0.464,-0.183,1.343,0.916,25.28,-58.804,179.302,-26.053,-16.713,-9.48,31.26,-0.10181,0.48053,0.1879,0.85046,98
23,0.886,-0.052,0.496,0.183,0.366,0.549,-5.757,-60.798,170.788,-25.407,-12.307,-17.72,26.65,0.09424,0.50073,-0.08325,0.85635,89,0.557,0.289,0.777,-1.526,1.099,0.61,20.863,-34.162,-148.722,-16.66,-15.547,-5.873,27.85,0.30234,-0.23166,-0.25015,-0.89008,93,0.473,0.41,0.771,-1.709,1.282,0.427,28.169,-28.779,106.826,-10.547,-18.76,-29.313,30.09,-0.50989,-0.33759,-0.0488,-0.78967,91,0.842,0.216,0.464,-0.244,1.282,0.916,25.23,-58.788,179.363,-26.053,-16.713,-9.48,31.26,-0.10181,0.48053,0.1879,0.85046,99
24,0.889,-0.05,0.495,0.305,0.061,0.732,-5.773,-60.793,170.81,-25.407,-12.307,-17.72,26.65,0.09424,0.50073,-0.08325,0.85635,94,0.56,0.289,0.778,-1.587,0.854,0.427,20.819,-34.146,-148.689,-16.66,-15.547,-5.873,27.85,0.30469,-0.23145,-0.24438,-0.89093,100,0.473,0.407,0.773,-1.77,1.221,0.366,28.125,-28.757,106.859,-10.56,-18.473,-29.707,30.09,-0.50989,-0.33759,-0.0488,-0.78967,96,0.844,0.217,0.462,-0.244,0.916,0.977,25.186,-58.777,179.434,-26.053,-16.713,-9.48,31.26,-0.10181,0.48053,0.1879,0.85046,102
25,0.891,-0.05,0.493,0.183,0.0,0.793,-5.795,-60.793,170.837,-25.407,-12.307,-17.72,26.65,0.09424,0.50073,-0.08325,0.85635,95,0.561,0.288,0.78,-1.343,0.549,0.366,20.781,-34.135,-148.672,-16.66,-15.547,-5.873,27.85,0.30469,-0.23145,-0.24438,-0.89093,101,0.476,0.409,0.778,-1.892,1.16,0.244,28.081,-28.74,106.88,-10.56,-18.473,-29.707,30.09,-0.50989,-0.33759,-0.0488,-0.78967,97,0.848,0.216,0.465,-0.061,0.732,0.977,25.142,-58.771,179.517,-26.053,-16.713,-9.48,31.26,-0.10181,0.48053,0.1879,0.85046,103
26,0.89,-0.052,0.493,0.122,0.305,0.793,-5.817,-60.782,170.887,-25.407,-12.307,-17.72,26.65,0.09424,0.50073,-0.08325,0.85635,104,0.56,0.287,0.779,-1.221,0.549,0.488,20.742,-34.124,-148.661,-16.66,-15.547,-5.873,27.85,0.30469,-0.23145,-0.24438,-0.89093,108,0.476,0.41,0.78,-1.953,0.854,0.122,28.037,-28.724,106.897,-10.56,-18.473,-29.707,30.09,-0.50989,-0.33759,-0.0488,-0.78967,106,0.847,0.213,0.468,-0.061,0.549,0.916,25.109,-58.766,179.594,-26.053,-16.713,-9.48,31.26,-0.10181,0.48053,0.1879,0.85046,110
27,0.891,-0.053,0.495,0.061,0.427,0.61,-5.839,-60.776,170.931,-25.407,-12.307,-17.72,26.65,0.09424,0.50073,-0.08325,0.85635,105,0.56,0.283,0.779,-1.038,0.793,0.427,20.709,-34.113,-148.645,-16.66,-15.547,-5.873,27.85,0.30469,-0.23145,-0.24438,-0.89093,109,0.476,0.409,0.778,-1.831,0.61,0.061,27.999,-28.707,106.924,-10.56,-18.473,-29.707,30.09,-0.50989,-0.33759,-0.0488,-0.78967,107,0.845,0.212,0.463,-0.488,0.61,0.854,25.071,-58.766,179.665,-26.053,-16.713,-9.48,31.26,-0.10181,0.48053,0.1879,0.85046,111
28,0.893,-0.053,0.495,0.0,0.061,0.427,-5.856,-60.771,170.964,-25.407,-12.307,-17.72,26.65,0.09424,0.50073,-0.08325,0.85635,112,0.559,0.28,0.779,-0.916,0.61,0.305,20.676,-34.102,-148.629,-16.66,-15.547,-5.873,27.85,0.30469,-0.23145,-0.24438,-0.89093,116,0.477,0.405,0.778,-1.587,0.305,0.0,27.96,-28.702,106.935,-10.56,-18.473,-29.707,30.09,-0.51144,-0.33295,-0.0451,-0.79083,114,0.845,0.213,0.462,-0.549,0.366,0.671,25.027,-58.766,179.731,-26.053,-16.713,-9.48,31.26,-0.10181,0.48053,0.1879,0.85046,118
29,0.892,-0.052,0.495,0.0,0.0,0.305,-5.867,-60.771,170.986,-25.407,-12.307,-17.72,26.65,0.09424,0.50073,-0.08325,0.85635,113,0.56,0.281,0.779,-0.732,0.488,0.061,20.649,-34.096,-148.612,-16.66,-15.547,-5.873,27.85,0.30469,-0.23145,-0.24438,-0.89093,117,0.477,0.4,0.779,-1.282,0.244,0.0,27.933,-28.696,106.946,-10.56,-18.473,-29.707,30.09,-0.51144,-0.33295,-0.0451,-0.79083,115,0.846,0.213,0.465,-0.427,0.305,0.427,24.999,-58.76,179.786,-26.053,-16.713,-9.48,31.26,-0.10181,0.48053,0.1879,0.85046,119
30,0.89,-0.051,0.495,0.0,0.122,0.244,-5.878,-60.771,171.013,-25.407,-12.307,-17.72,26.65,0.09424,0.50073,-0.08325,0.85635,120,0.56,0.281,0.777,-0.549,0.183,0.0,20.627,-34.085,-148.601,-16.66,-15.547,-5.873,27.85,0.30469,-0.23145,-0.24438,-0.89093,124,0.478,0.4,0.779,-1.038,0.305,-0.122,27.911,-28.685,106.963,-10.56,-18.473,-29.707,30.09,-0.51144,-0.33295,-0.0451,-0.79083,122,0.845,0.209,0.465,-0.244,0.244,0.305,24.977,-58.76,179.824,-26.053,-16.713,-9.48,31.26,-0.10181,0.48053,0.1879,0.85046,126
31,0.889,-0.051,0.495,-0.061,0.183,0.244,-5.883,-60.765,171.046,-25.407,-12.307,-17.72,26.65,0.09424,0.50073,-0.08325,0.85635,121,0.56,0.279,0.776,-0.488,0.244,0.0,20.61,-34.08,-148.59,-16.66,-15.547,-5.873,27.85,0.30469,-0.23145,-0.24438,-0.89093,125,0.475,0.402,0.778,-0.977,0.366,-0.183,27.889,-28.674,107.001,-10.56,-18.473,-29.707,30.09,-0.51144,-0.33295,-0.0451,-0.79083,123,0.844,0.208,0.465,-0.244,0.305,0.244,24.961,-58.76,179.846,-26.053,-16.713,-9.48,31.26,-0.10181,0.48053,0.1879,0.85046,127
32,0.889,-0.055,0.494,-0.122,0.122,0.122,-5.894,-60.765,171.057,-25.207,-12.027,-17.753,26.65,0.09424,0.50073,-0.08325,0.85635,128,0.558,0.281,0.776,-0.427,0.244,0.0,20.594,-34.08,-148.579,-16.66,-15.547,-5.873,27.85,0.30469,-0.23145,-0.24438,-0.89093,136,0.475,0.4,0.776,-0.854,0.061,-0.183,27.867,-28.674,107.034,-10.56,-18.473,-29.707,30.09,-0.51144,-0.33295,-0.0451,-0.79083,130,0.844,0.21,0.463,-0.305,0.305,0.122,24.939,-58.755,179.874,-26.053,-16.713,-9.48,31.26,-0.10181,0.48053,0.1879,0.85046,132
33,0.889,-0.056,0.494,-0.061,0.061,0.0,-5.894,-60.76,171.074,-25.207,-12.027,-17.753,26.65,0.09424,0.50073,-0.08325,0.85635,129,0.557,0.282,0.779,-0.305,0.305,0.0,20.577,-34.074,-148.563,-16.66,-15.547,-5.873,27.85,0.30469,-0.23145,-0.24438,-0.89093,137,0.475,0.4,0.774,-0.793,-0.183,-0.122,27.85,-28.674,107.056,-10.56,-18.473,-29.707,30.09,-0.51144,-0.33295,-0.0451,-0.79083,131,0.843,0.212,0.465,0.0,0.366,0.0,24.928,-58.749,179.912,-26.053,-16.713,-9.48,31.26,-0.10181,0.48053,0.1879,0.85046,133
34,0.888,-0.055,0.495,0.0,0.122,-0.122,-5.894,-60.76,171.074,-25.207,-12.027,-17.753,26.65,0.09424,0.50073,-0.08325,0.85635,134,0.559,0.283,0.778,-0.244,0.244,0.0,20.566,-34.069,-148.557,-16.66,-15.547,-5.873,27.85,0.30469,-0.23145,-0.24438,-0.89093,142,0.474,0.401,0.775,-0.793,-0.061,-0.183,27.834,-28.669,107.04,-10.56,-18.473,-29.707,30.09,-0.51144,-0.33295,-0.0451,-0.79083,138,0.844,0.211,0.467,0.061,0.244,-0.122,24.928,-58.744,179.94,-26.053,-16.713,-9.48,31.26,-0.10181,0.48053,0.1879,0.85046,146
35,0.888,-0.053,0.496,0.061,0.061,-0.061,-5.894,-60.76,171.085,-25.207,-12.027,-17.753,26.65,0.09424,0.50073,-0.08325,0.85635,135,0.562,0.283,0.777,-0.122,0.061,0.0,20.555,-34.063,-148.552,-16.66,-15.547,-5.873,27.85,0.30469,-0.23145,-0.24438,-0.89093,143,0.473,0.402,0.777,-0.793,0.0,-0.183,27.812,-28.669,107.04,-10.56,-18.473,-29.707,30.09,-0.51144,-0.33295,-0.0451,-0.79083,139,0.845,0.212,0.467,0.061,0.122,-0.244,24.928,-58.744,179.962,-26.053,-16.713,-9.48,31.26,-0.10181,0.48053,0.1879,0.85046,147
36,0.888,-0.052,0.496,0.244,0.0,0.0,-5.894,-60.76,171.107,-25.207,-12.027,-17.753,26.65,0.09286,0.50009,-0.08347,0.85687,140,0.564,0.281,0.779,0.061,0.122,0.0,20.544,-34.063,-148.546,-16.66,-15.547,-5.873,27.85,0.30469,-0.23145,-0.24438,-0.89093,148,0.476,0.404,0.779,-0.549,-0.427,-0.183,27.801,-28.674,107.045,-10.56,-18.473,-29.707,30.09,-0.51144,-0.33295,-0.0451,-0.79083,144,0.846,0.213,0.465,0.305,0.061,-0.244,24.933,-58.738,179.967,-26.053,-16.387,-9.173,31.26,-0.10181,0.48053,0.1879,0.85046,150
37,0.887,-0.052,0.496,0.183,0.0,-0.061,-5.889,-60.76,171.112,-25.207,-12.027,-17.753,26.65,0.09286,0.50009,-0.08347,0.85687,141,0.561,0.286,0.781,-0.183,0.305,0.183,20.539,-34.058,-148.53,-16.66,-15.547,-5.873,27.85,0.30469,-0.23145,-0.24438,-0.89093,149,0.477,0.402,0.779,-0.122,-0.854,-0.122,27.801,-28.685,107.084,-10.56,-18.473,-29.707,30.09,-0.51144,-0.33295,-0.0451,-0.79083,145,0.846,0.212,0.465,0.122,0.0,-0.366,24.944,-58.738,179.951,-26.053,-16.387,-9.173,31.26,-0.10181,0.48053,0.1879,0.85046,151
38,0.888,-0.052,0.497,0.0,0.0,-0.122,-5.889,-60.76,171.118,-25.207,-12.027,-17.753,26.65,0.09286,0.50009,-0.08347,0.85687,154,0.558,0.289,0.783,-0.793,0.122,0.305,20.522,-34.058,-148.519,-16.66,-15.547,-5.873,27.85,0.30469,-0.23145,-0.24438,-0.89093,156,0.479,0.404,0.777,-0.244,-0.916,0.061,27.795,-28.696,107.117,-10.56,-18.473,-29.707,30.09,-0.51144,-0.33295,-0.0451,-0.79083,152,0.846,0.213,0.466,-0.366,-0.061,-0.427,24.944,-58.733,179.923,-26.053,-16.387,-9.173,31.26,-0.10181,0.48053,0.1879,0.85046,158
39,0.891,-0.053,0.497,-0.061,-0.122,-0.366,-5.878,-60.76,171.112,-25.207,-12.027,-17.753,26.65,0.09286,0.50009,-0.08347,0.85687,155,0.56,0.293,0.78,-1.526,0.366,0.305,20.49,-34.052,-148.513,-16.66,-15.547,-5.873,27.85,0.30469,-0.23145,-0.24438,-0.89093,157,0.475,0.409,0.78,-0.427,-0.854,0.122,27.784,-28.713,107.128,-10.56,-18.473,-29.707,30.09,-0.51144,-0.33295,-0.0451,-0.79083,153,0.844,0.214,0.468,-1.221,-0.061,-0.061,24.928,-58.738,179.879,-26.053,-16.387,-9.173,31.26,-0.10181,0.48053,0.1879,0.85046,159
40,0.888,-0.055,0.496,-0.183,-0.244,-0.671,-5.867,-60.765,171.107,-25.207,-12.027,-17.753,26.65,0.09286,0.50009,-0.08347,0.85687,160,0.562,0.295,0.775,-1.709,0.732,0.488,20.451,-34.047,-148.497,-16.367,-15.3,-6.1,27.85,0.30469,-0.23145,-0.24438,-0.89093,164,0.474,0.412,0.778,-0.793,-1.16,0.427,27.768,-28.735,107.133,-11.027,-18.36,-30.227,30.09,-0.51144,-0.33295,-0.0451,-0.79083,162,0.846,0.216,0.464,-1.465,0.122,0.305,24.884,-58.738,179.857,-26.053,-16.387,-9.173,31.26,-0.10464,0.47913,0.18719,0.85107,168
41,0.886,-0.057,0.495,-0.488,-0.122,-1.038,-5.845,-60.771,171.057,-25.207,-12.027,-17.753,26.65,0.09286,0.50009,-0.08347,0.85687,161,0.553,0.295,0.775,-1.709,0.488,0.916,20.402,-34.036,-148.48,-16.367,-15.3,-6.1,27.85,0.30469,-0.23145,-0.24438,-0.89093,165,0.48,0.416,0.772,-0.916,-1.343,0.427,27.751,-28.757,107.128,-11.027,-18.36,-30.227,30.09,-0.51144,-0.33295,-0.0451,-0.79083,163,0.843,0.217,0.46,-1.099,0.366,0.427,24.846,-58.733,179.863,-26.053,-16.387,-9.173,31.26,-0.10464,0.47913,0.18719,0.85107,169
42,0.891,-0.053,0.496,-0.61,-0.183,-1.282,-5.817,-60.776,171.03,-25.207,-12.027,-17.753,26.65,0.09286,0.50009,-0.08347,0.85687,166,0.557,0.293,0.776,-1.77,0.061,1.282,20.352,-34.036,-148.464,-16.367,-15.3,-6.1,27.85,0.30469,-0.23145,-0.24438,-0.89093,172,0.476,0.419,0.772,-1.099,-1.221,0.61,27.729,-28.784,107.117,-11.027,-18.36,-30.227,30.09,-0.51062,-0.332,-0.04333,-0.79187,170,0.841,0.219,0.462,-1.038,0.305,0.366,24.807,-58.733,179.885,-26.053,-16.387,-9.173,31.26,-0.10464,0.47913,0.18719,0.85107,178
43,0.896,-0.048,0.497,-0.305,-0.488,-1.16,-5.79,-60.782,171.008,-25.207,-12.027,-17.753,26.65,0.09286,0.50009,-0.08347,0.85687,167,0.561,0.29,0.775,-1.709,-0.061,1.343,20.303,-34.047,-148.453,-16.367,-15.3,-6.1,27.85,0.30469,-0.23145,-0.24438,-0.89093,173,0.477,0.419,0.774,-1.221,-1.099,0.916,27.708,-28.806,107.133,-11.027,-18.36,-30.227,30.09,-0.51062,-0.332,-0.04333,-0.79187,171,0.844,0.22,0.463,-0.793,0.0,0.488,24.78,-58.738,179.901,-26.053,-16.387,-9.173,31.26,-0.10464,0.47913,0.18719,0.85107,179
44,0.892,-0.046,0.493,-0.183,-0.366,-0.854,-5.762,-60.793,170.991,-25.207,-12.027,-17.753,26.65,0.09286,0.50009,-0.08347,0.85687,174,0.561,0.287,0.776,-1.526,-0.244,1.16,20.259,-34.052,-148.442,-16.367,-15.3,-6.1,27.85,0.30548,-0.23157,-0.24036,-0.89172,180,0.479,0.412,0.775,-1.404,-0.977,1.099,27.675,-28.828,107.161,-11.027,-18.36,-30.227,30.09,-0.51062,-0.332,-0.04333,-0.79187,176,0.844,0.219,0.467,-0.183,-0.122,0.61,24.758,-58.744,179.918,-26.053,-16.387,-9.173,31.26,-0.10464,0.47913,0.18719,0.85107,182
45,0.889,-0.046,0.493,-0.122,0.0,-0.366,-5.751,-60.798,170.969,-25.207,-12.027,-17.753,26.65,0.09286,0.50009,-0.08347,0.85687,175,0.56,0.282,0.775,-1.16,-0.366,1.038,20.215,-34.069,-148.425,-16.367,-15.3,-6.1,27.85,0.30548,-0.23157,-0.24036,-0.89172,181,0.48,0.406,0.771,-1.343,-0.916,0.793,27.647,-28.85,107.177,-11.027,-18.36,-30.227,30.09,-0.51062,-0.332,-0.04333,-0.79187,177,0.845,0.214,0.463,0.061,-0.122,0.61,24.741,-58.749,179.951,-26.053,-16.387,-9.173,31.26,-0.10464,0.47913,0.18719,0.85107,183
46,0.891,-0.047,0.492,0.0,-0.305,-0.183,-5.746,-60.804,170.942,-25.207,-12.027,-17.753,26.65,0.09286,0.50009,-0.08347,0.85687,184,0.561,0.278,0.771,-0.671,-0.244,1.221,20.187,-34.08,-148.403,-16.367,-15.3,-6.1,27.85,0.30548,-0.23157,-0.24036,-0.89172,188,0.48,0.406,0.771,-1.099,-0.732,0.671,27.625,-28.867,107.205,-11.027,-18.36,-30.227,30.09,-0.51062,-0.332,-0.04333,-0.79187,186,0.842,0.212,0.462,-0.244,0.0,0.366,24.73,-58.755,179.973,-26.053,-16.387,-9.173,31.26,-0.10464,0.47913,0.18719,0.85107,192
47,0.894,-0.046,0.493,0.061,-0.183,-0.122,-5.74,-60.804,170.931,-25.207,-12.027,-17.753,26.65,0.09286,0.50009,-0.08347,0.85687,185,0.563,0.275,0.773,-0.305,-0.122,1.099,20.16,-34.091,-148.37,-16.367,-15.3,-6.1,27.85,0.30548,-0.23157,-0.24036,-0.89172,189,0.481,0.403,0.768,-0.793,-0.305,1.16,27.603,-28.878,107.243,-11.027,-18.36,-30.227,30.09,-0.51062,-0.332,-0.04333,-0.79187,187,0.845,0.216,0.461,0.0,-0.061,0.0,24.73,-58.755,179.995,-26.053,-16.387,-9.173,31.26,-0.10464,0.47913,0.18719,0.85107,193
48,0.893,-0.045,0.494,0.0,0.0,-0.061,-5.735,-60.809,170.903,-25.207,-12.027,-17.753,26.65,0.09286,0.50009,-0.08347,0.85687,190,0.562,0.279,0.775,-0.122,0.061,0.61,20.143,-34.102,-148.343,-16.367,-15.3,-6.1,27.85,0.30548,-0.23157,-0.24036,-0.89172,196,0.482,0.397,0.769,-0.488,0.061,1.404,27.581,-28.889,107.309,-11.027,-18.36,-30.227,30.09,-0.51062,-0.332,-0.04333,-0.79187,194,0.846,0.219,0.465,0.61,0.0,-0.305,24.747,-58.755,179.995,-26.053,-16.387,-9.173,31.26,-0.10464,0.47913,0.18719,0.85107,200
49,0.886,-0.043,0.494,0.0,0.122,0.061,-5.735,-60.809,170.865,-25.207,-12.027,-17.753,26.65,0.09286,0.50009,-0.08347,0.85687,191,0.562,0.285,0.777,-0.122,0.427,0.305,20.132,-34.102,-148.326,-16.367,-15.3,-6.1,27.85,0.30548,-0.23157,-0.24036,-0.89172,197,0.482,0.395,0.77,-0.427,0.305,1.221,27.565,-28.894,107.364,-11.027,-18.36,-30.227,30.09,-0.51062,-0.332,-0.04333,-0.79187,195,0.846,0.217,0.469,0.977,0.305,-0.549,24.785,-58.744,179.984,-26.053,-16.387,-9.173,31.26,-0.10464,0.47913,0.18719,0.85107,201
50,0.887,-0.043,0.497,-0.122,0.0,0.183,-5.74,-60.809,170.837,-25.207,-12.027,-17.753,26.65,0.09286,0.50009,-0.08347,0.85687,198,0.561,0.284,0.777,-0.122,0.61,0.122,20.127,-34.096,-148.315,-16.367,-15.3,-6.1,27.85,0.30548,-0.23157,-0.24036,-0.89172,202,0.479,0.401,0.771,-0.366,0.61,0.61,27.548,-28.889,107.375,-11.027,-18.36,-30.227,30.09,-0.51062,-0.332,-0.04333,-0.79187,204,0.846,0.217,0.467,0.488,0.732,-0.366,24.796,-58.727,179.973,-26.053,-16.387,-9.173,31.26,-0.10464,0.47913,0.18719,0.85107,206
51,0.893,-0.048,0.496,-0.122,-0.305,0.305,-5.751,-60.809,170.815,-25.207,-12.027,-17.753,26.65,0.09286,0.50009,-0.08347,0.85687,199,0.559,0.281,0.778,0.0,0.366,0.122,20.121,-34.085,-148.315,-16.367,-15.3,-6.1,27.85,0.30548,-0.23157,-0.24036,-0.89172,203,0.481,0.404,0.774,-0.305,0.854,0.061,27.537,-28.872,107.38,-11.027,-18.36,-30.227,30.09,-0.51062,-0.332,-0.04333,-0.79187,205,0.844,0.216,0.462,-0.061,0.854,0.0,24.785,-58.711,179.967,-26.053,-16.387,-9.173,31.26,-0.10464,0.47913,0.18719,0.85107,207
52,0.894,-0.053,0.496,-0.122,-0.061,0.244,-5.757,-60.815,170.81,-24.987,-12.173,-18.653,26.65,0.09286,0.50009,-0.08347,0.85687,212,0.56,0.282,0.778,0.0,0.244,0.061,20.116,-34.08,-148.315,-16.367,-15.3,-6.1,27.85,0.30548,-0.23157,-0.24036,-0.89172,210,0.478,0.404,0.777,-0.061,0.488,0.0,27.532,-28.867,107.397,-11.027,-18.36,-30.227,30.09,-0.51062,-0.332,-0.04333,-0.79187,208,0.844,0.216,0.465,0.0,0.732,-0.061,24.78,-58.7,179.956,-26.053,-16.387,-9.173,31.26,-0.10464,0.47913,0.18719,0.85107,214
53,0.889,-0.054,0.495,0.0,0.244,0.244,-5.762,-60.809,170.821,-24.987,-12.173,-18.653,26.65,0.09286,0.50009,-0.08347,0.85687,213,0.558,0.286,0.779,0.0,0.488,0.0,20.11,-34.08,-148.321,-16.367,-15.3,-6.1,27.85,0.30548,-0.23157,-0.24036,-0.89172,211,0.478,0.402,0.774,-0.183,0.244,0.122,27.526,-28.861,107.408,-11.027,-18.36,-30.227,30.09,-0.51062,-0.332,-0.04333,-0.79187,209,0.844,0.216,0.467,0.305,0.854,0.0,24.774,-58.683,179.945,-26.053,-16.387,-9.173,31.26,-0.10464,0.47913,0.18719,0.85107,215
54,0.887,-0.053,0.495,0.061,0.244,0.305,-5.773,-60.804,170.848,-24.987,-12.173,-18.653,26.65,0.09412,0.50034,-0.08359,0.85657,216,0.559,0.283,0.781,-0.061,0.671,0.061,20.11,-34.069,-148.321,-16.367,-15.3,-6.1,27.85,0.30548,-0.23157,-0.24036,-0.89172,222,0.476,0.404,0.772,-0.305,0.488,-0.183,27.521,-28.85,107.424,-11.027,-18.36,-30.227,30.09,-0.51062,-0.332,-0.04333,-0.79187,218,0.844,0.213,0.464,0.0,0.916,0.244,24.758,-58.667,179.945,-26.053,-16.387,-9.173,31.26,-0.10464,0.47913,0.18719,0.85107,224
55,0.892,-0.053,0.494,0.061,-0.061,0.305,-5.784,-60.804,170.87,-24.987,-12.173,-18.653,26.65,0.09412,0.50034,-0.08359,0.85657,217,0.561,0.281,0.78,-0.183,0.305,0.183,20.099,-34.058,-148.321,-16.367,-15.3,-6.1,27.85,0.30548,-0.23157,-0.24036,-0.89172,223,0.479,0.406,0.776,-0.061,0.305,-0.244,27.521,-28.839,107.446,-11.027,-18.36,-30.227,30.09,-0.51062,-0.332,-0.04333,-0.79187,219,0.844,0.213,0.464,-0.244,0.671,0.427,24.73,-58.661,179.967,-26.053,-16.387,-9.173,31.26,-0.10464,0.47913,0.18719,0.85107,225
56,0.893,-0.053,0.492,0.183,0.061,0.244,-5.79,-60.804,170.881,-24.987,-12.173,-18.653,26.65,0.09412,0.50034,-0.08359,0.85657,220,0.562,0.281,0.778,0.0,0.061,0.061,20.094,-34.058,-148.321,-16.367,-15.3,-6.1,27.85,0.30548,-0.23157,-0.24036,-0.89172,238,0.48,0.403,0.781,-0.122,0.0,-0.061,27.521,-28.839,107.457,-10.393,-18.68,-29.927,30.09,-0.51062,-0.332,-0.04333,-0.79187,226,0.845,0.215,0.462,0.0,0.488,0.366,24.719,-58.656,179.989,-25.907,-16.473,-9.547,31.26,-0.10464,0.47913,0.18719,0.85107,230
57,0.89,-0.053,0.493,0.183,0.305,0.183,-5.79,-60.798,170.898,-24.987,-12.173,-18.653,26.65,0.09412,0.50034,-0.08359,0.85657,221,0.56,0.281,0.782,0.244,0.061,0.0,20.094,-34.058,-148.315,-16.367,-15.3,-6.1,27.85,0.30548,-0.23157,-0.24036,-0.89172,239,0.479,0.4,0.779,-0.061,-0.427,-0.366,27.526,-28.839,107.457,-10.393,-18.68,-29.927,30.09,-0.51062,-0.332,-0.04333,-0.79187,227,0.846,0.214,0.469,0.0,0.366,0.244,24.708,-58.656,-179.989,-25.907,-16.473,-9.547,31.26,-0.10464,0.47913,0.18719,0.85107,231
58,0.891,-0.051,0.494,0.0,0.122,0.061,-5.795,-60.793,170.92,-24.987,-12.173,-18.653,26.65,0.09412,0.50034,-0.08359,0.85657,228,0.557,0.277,0.781,0.244,0.183,0.0,20.099,-34.052,-148.315,-16.46,-15.073,-5.993,27.85,0.30548,-0.23157,-0.24036,-0.89172,242,0.479,0.403,0.776,0.244,-0.732,-0.977,27.543,-28.845,107.424,-10.393,-18.68,-29.927,30.09,-0.50885,-0.33142,-0.04266,-0.7933,232,0.842,0.211,0.47,-0.854,0.671,0.305,24.67,-58.645,-179.973,-25.907,-16.473,-9.547,31.26,-0.10464,0.47913,0.18719,0.85107,236
59,0.891,-0.05,0.494,0.061,0.0,0.061,-5.795,-60.793,170.947,-24.987,-12.173,-18.653,26.65,0.09412,0.50034,-0.08359,0.85657,229,0.556,0.274,0.779,0.366,0.122,0.0,20.099,-34.052,-148.304,-16.46,-15.073,-5.993,27.85,0.30548,-0.23157,-0.24036,-0.89172,243,0.478,0.401,0.777,0.244,-0.671,-0.793,27.559,-28.845,107.408,-10.393,-18.68,-29.927,30.09,-0.50885,-0.33142,-0.04266,-0.7933,233,0.84,0.21,0.468,-0.977,0.61,0.122,24.642,-58.634,-179.967,-25.907,-16.473,-9.547,31.26,-0.10464,0.47913,0.18719,0.85107,237
60,0.889,-0.05,0.496,0.061,0.244,0.061,-5.795,-60.793,170.964,-24.987,-12.173,-18.653,26.65,0.09412,0.50034,-0.08359,0.85657,234,0.558,0.273,0.779,0.671,-0.061,-0.183,20.105,-34.052,-148.299,-16.46,-15.073,-5.993,27.85,0.30548,-0.23157,-0.24036,-0.89172,248,0.477,0.397,0.776,0.61,-0.366,-0.61,27.576,-28.845,107.413,-10.393,-18.68,-29.927,30.09,-0.50885,-0.33142,-0.04266,-0.7933,240,0.84,0.212,0.468,-0.793,0.488,-0.061,24.62,-58.629,-179.973,-25.907,-16.473,-9.547,31.26,-0.10468,0.47833,0.18616,0.85175,250
61,0.887,-0.049,0.498,-0.122,0.366,0.0,-5.801,-60.782,170.964,-24.987,-12.173,-18.653,26.65,0.09412,0.50034,-0.08359,0.85657,235,0.56,0.275,0.78,0.732,-0.061,-0.427,20.121,-34.047,-148.293,-16.46,-15.073,-5.993,27.85,0.30548,-0.23157,-0.24036,-0.89172,249,0.477,0.395,0.777,0.732,0.0,-0.61,27.592,-28.839,107.435,-10.393,-18.68,-29.927,30.09,-0.50885,-0.33142,-0.04266,-0.7933,241,0.842,0.212,0.469,-0.549,0.305,-0.244,24.609,-58.618,-179.973,-25.907,-16.473,-9.547,31.26,-0.10468,0.47833,0.18616,0.85175,251
62,0.886,-0.051,0.497,-0.244,0.122,0.0,-5.806,-60.782,170.969,-24.987,-12.173,-18.653,26.65,0.09412,0.50034,-0.08359,0.85657,244,0.561,0.278,0.781,0.671,0.061,-0.549,20.132,-34.047,-148.293,-16.46,-15.073,-5.993,27.85,0.30548,-0.23157,-0.24036,-0.89172,260,0.478,0.397,0.777,0.732,0.122,-0.61,27.609,-28.828,107.446,-10.393,-18.68,-29.927,30.09,-0.50885,-0.33142,-0.04266,-0.7933,246,0.844,0.213,0.471,-0.183,0.305,-0.366,24.615,-58.612,-179.973,-25.907,-16.473,-9.547,31.26,-0.10468,0.47833,0.18616,0.85175,254
63,0.888,-0.051,0.496,-0.061,-0.061,0.0,-5.806,-60.782,170.986,-24.987,-12.173,-18.653,26.65,0.09412,0.50034,-0.08359,0.85657,245,0.562,0.284,0.779,0.549,0.183,-0.427,20.149,-34.041,-148.299,-16.46,-15.073,-5.993,27.85,0.30548,-0.23157,-0.24036,-0.89172,261,0.479,0.399,0.776,0.671,-0.122,-0.427,27.625,-28.828,107.441,-10.393,-18.68,-29.927,30.09,-0.50885,-0.33142,-0.04266,-0.7933,247,0.845,0.211,0.465,-0.366,0.427,-0.427,24.609,-58.601,-179.984,-25.907,-16.473,-9.547,31.26,-0.10468,0.47833,0.18616,0.85175,255
64,0.892,-0.051,0.494,0.0,-0.244,0.0,-5.806,-60.787,171.002,-24.987,-12.173,-18.653,26.65,0.09412,0.50034,-0.08359,0.85657,252,0.566,0.282,0.777,0.488,-0.061,-0.061,20.154,-34.036,-148.293,-16.46,-15.073,-5.993,27.85,0.3064,-0.23151,-0.23965,-0.8916,262,0.483,0.406,0.773,0.488,0.0,-0.488,27.636,-28.823,107.457,-10.393,-18.68,-29.927,30.09,-0.50885,-0.33142,-0.04266,-0.7933,256,0.845,0.206,0.447,0.122,0.183,-0.305,24.62,-58.596,-179.995,-25.907,-16.473,-9.547,31.26,-0.10468,0.47833,0.18616,0.85175,258
65,0.898,-0.052,0.496,-0.061,-0.122,-0.061,-5.806,-60.787,171.024,-24.987,-12.173,-18.653,26.65,0.09412,0.50034,-0.08359,0.85657,253,0.57,0.288,0.78,0.671,-1.221,0.244,20.165,-34.052,-148.288,-16.46,-15.073,-5.993,27.85,0.3064,-0.23151,-0.23965,-0.8916,263,0.486,0.408,0.774,0.061,0.671,-0.671,27.636,-28.801,107.49,-10.393,-18.68,-29.927,30.09,-0.50885,-0.33142,-0.04266,-0.7933,257,0.856,0.209,0.46,1.709,-1.282,-0.061,24.67,-58.623,179.951,-25.907,-16.473,-9.547,31.26,-0.10468,0.47833,0.18616,0.85175,259
66,0.9,-0.054,0.495,-0.061,0.427,-0.122,-5.806,-60.782,171.024,-24.987,-12.173,-18.653,26.65,0.09412,0.50034,-0.08359,0.85657,264,0.562,0.285,0.788,0.183,-1.892,0.488,20.171,-34.08,-148.282,-16.46,-15.073,-5.993,27.85,0.3064,-0.23151,-0.23965,-0.8916,272,0.486,0.411,0.779,-0.305,1.16,-0.732,27.631,-28.773,107.507,-10.393,-18.68,-29.927,30.09,-0.50885,-0.33142,-0.04266,-0.7933,266,0.842,0.216,0.459,1.648,-0.488,0.366,24.697,-58.64,179.907,-25.907,-16.473,-9.547,31.26,-0.10468,0.47833,0.18616,0.85175,270
67,0.9,-0.057,0.495,-0.183,0.854,-0.305,-5.795,-60.765,171.008,-24.987,-12.173,-18.653,26.65,0.09412,0.50034,-0.08359,0.85657,265,0.555,0.284,0.781,0.732,-3.052,0.488,20.182,-34.135,-148.282,-16.46,-15.073,-5.993,27.85,0.3064,-0.23151,-0.23965,-0.8916,273,0.483,0.409,0.787,-0.977,1.831,-1.526,27.614,-28.729,107.523,-10.393,-18.68,-29.927,30.09,-0.50885,-0.33142,-0.04266,-0.7933,267,0.837,0.215,0.468,-2.563,0.671,0.244,24.653,-58.64,179.841,-25.907,-16.473,-9.547,31.26,-0.10468,0.47833,0.18616,0.85175,271
68,0.897,-0.057,0.495,-0.244,0.916,-0.488,-5.784,-60.749,170.991,-25.307,-12.193,-18.067,26.65,0.09412,0.50034,-0.08359,0.85657,268,0.556,0.28,0.779,1.77,-3.479,0.61,20.209,-34.195,-148.293,-16.46,-15.073,-5.993,27.85,0.3064,-0.23151,-0.23965,-0.8916,276,0.472,0.409,0.789,-0.183,1.648,-1.831,27.614,-28.68,107.529,-10.393,-18.68,-29.927,30.09,-0.50885,-0.33142,-0.04266,-0.7933,274,0.834,0.214,0.474,-1.709,0.366,0.0,24.593,-58.634,179.791,-25.907,-16.473,-9.547,31.26,-0.10468,0.47833,0.18616,0.85175,278
69,0.886,-0.052,0.49,-0.244,1.465,-0.732,-5.762,-60.721,170.953,-25.307,-12.193,-18.067,26.65,0.09412,0.50034,-0.08359,0.85657,269,0.558,0.279,0.772,1.709,-3.052,0.427,20.248,-34.261,-148.31,-16.46,-15.073,-5.993,27.85,0.3064,-0.23151,-0.23965,-0.8916,277,0.467,0.406,0.785,0.732,1.099,-1.221,27.636,-28.652,107.545,-10.393,-18.68,-29.927,30.09,-0.50885,-0.33142,-0.04266,-0.7933,275,0.836,0.211,0.475,-0.793,0.0,-0.122,24.56,-58.629,179.747,-25.907,-16.473,-9.547,31.26,-0.10468,0.47833,0.18616,0.85175,279
70,0.878,-0.046,0.493,-0.244,1.648,-0.488,-5.751,-60.694,170.903,-25.307,-12.193,-18.067,26.65,0.09412,0.50034,-0.08359,0.85657,280,0.561,0.282,0.77,1.404,-2.075,0.305,20.281,-34.305,-148.315,-16.46,-15.073,-5.993,27.85,0.3064,-0.23151,-0.23965,-0.8916,284,0.467,0.4,0.769,0.732,1.221,-0.793,27.647,-28.619,107.551,-10.533,-18.4,-30.207,30.09,-0.50885,-0.33142,-0.04266,-0.7933,282,0.84,0.208,0.471,-0.61,-0.244,-0.183,24.549,-58.629,179.725,-25.907,-16.473,-9.547,31.26,-0.10468,0.47833,0.18616,0.85175,288
71,0.88,-0.045,0.494,-0.305,0.61,-0.244,-5.746,-60.683,170.865,-25.307,-12.193,-18.067,26.65,0.09412,0.50034,-0.08359,0.85657,281,0.566,0.281,0.768,1.221,-1.343,0.427,20.308,-34.338,-148.304,-16.46,-15.073,-5.993,27.85,0.3064,-0.23151,-0.23965,-0.8916,285,0.47,0.402,0.762,0.732,1.404,-0.488,27.658,-28.592,107.556,-10.533,-18.4,-30.207,30.09,-0.50885,-0.33142,-0.04266,-0.7933,283,0.842,0.211,0.469,-0.244,-0.305,-0.183,24.549,-58.629,179.709,-25.907,-16.473,-9.547,31.26,-0.10468,0.47833,0.18616,0.85175,289
72,0.884,-0.046,0.495,-0.183,-0.061,0.0,-5.751,-60.688,170.843,-25.307,-12.193,-18.067,26.65,0.09372,0.49951,-0.08322,0.85712,286,0.565,0.284,0.769,0.916,-0.916,0.427,20.325,-34.36,-148.282,-16.46,-15.073,-5.993,27.85,0.3064,-0.23151,-0.23965,-0.8916,292,0.474,0.404,0.767,0.549,1.404,-0.183,27.664,-28.564,107.562,-10.533,-18.4,-30.207,30.09,-0.50836,-0.33014,-0.04538,-0.79398,290,0.844,0.213,0.47,0.427,-0.122,-0.366,24.554,-58.634,179.703,-25.907,-16.473,-9.547,31.26,-0.10468,0.47833,0.18616,0.85175,298
73,0.884,-0.05,0.496,0.0,0.0,0.0,-5.751,-60.688,170.826,-25.307,-12.193,-18.067,26.65,0.09372,0.49951,-0.08322,0.85712,287,0.565,0.286,0.773,0.732,-0.671,0.488,20.336,-34.376,-148.266,-16.46,-15.073,-5.993,27.85,0.3064,-0.23151,-0.23965,-0.8916,293,0.475,0.405,0.771,0.549,0.366,0.183,27.669,-28.559,107.573,-10.533,-18.4,-30.207,30.09,-0.50836,-0.33014,-0.04538,-0.79398,291,0.844,0.214,0.471,0.671,0.0,-0.671,24.576,-58.629,179.703,-25.907,-16.473,-9.547,31.26,-0.10468,0.47833,0.18616,0.85175,299
74,0.885,-0.052,0.502,0.122,0.244,-0.183,-5.74,-60.683,170.788,-25.307,-12.193,-18.067,26.65,0.09372,0.49951,-0.08322,0.85712,294,0.567,0.282,0.769,0.061,-0.122,0.305,20.336,-34.387,-148.25,-16.46,-15.073,-5.993,27.85,0.3064,-0.23151,-0.23965,-0.8916,300,0.474,0.408,0.774,0.427,-0.427,0.244,27.68,-28.57,107.595,-10.533,-18.4,-30.207,30.09,-0.50836,-0.33014,-0.04538,-0.79398,296,0.842,0.219,0.467,0.061,0.488,-0.61,24.604,-58.623,179.698,-26.147,-16.513,-9.8,31.26,-0.10468,0.47833,0.18616,0.85175,302
75,0.888,-0.05,0.503,0.183,-0.183,-0.244,-5.729,-60.688,170.755,-25.307,-12.193,-18.067,26.65,0.09372,0.49951,-0.08322,0.85712,295,0.564,0.285,0.764,-0.183,0.671,-0.183,20.33,-34.382,-148.244,-16.46,-15.073,-5.993,27.85,0.3064,-0.23151,-0.23965,-0.8916,301,0.475,0.402,0.767,-0.183,-0.244,0.122,27.675,-28.575,107.661,-10.533,-18.4,-30.207,30.09,-0.50836,-0.33014,-0.04538,-0.79398,297,0.842,0.219,0.464,0.0,0.916,-0.427,24.609,-58.607,179.698,-26.147,-16.513,-9.8,31.26,-0.10468,0.47833,0.18616,0.85175,303
76,0.889,-0.047,0.499,0.122,-0.366,-0.122,-5.724,-60.694,170.722,-25.307,-12.193,-18.067,26.65,0.09372,0.49951,-0.08322,0.85712,304,0.564,0.288,0.77,0.244,0.793,-0.427,20.33,-34.365,-148.239,-16.46,-15.073,-5.993,27.85,0.3064,-0.23151,-0.23965,-0.8916,308,0.476,0.401,0.764,-0.244,-0.244,-0.183,27.669,-28.575,107.792,-10.533,-18.4,-30.207,30.09,-0.50836,-0.33014,-0.04538,-0.79398,306,0.844,0.213,0.461,0.061,0.732,-0.427,24.609,-58.585,179.698,-26.147,-16.513,-9.8,31.26,-0.10468,0.47833,0.18616,0.85175,312
77,0.891,-0.047,0.494,0.061,-0.366,0.0,-5.724,-60.699,170.706,-25.307,-12.193,-18.067,26.65,0.09372,0.49951,-0.08322,0.85712,305,0.564,0.286,0.775,0.916,0.366,-0.061,20.341,-34.354,-148.228,-16.46,-15.073,-5.993,27.85,0.3064,-0.23151,-0.23965,-0.8916,309,0.476,0.411,0.774,0.244,-1.16,-0.549,27.686,-28.592,107.886,-10.533,-18.4,-30.207,30.09,-0.50836,-0.33014,-0.04538,-0.79398,307,0.846,0.213,0.463,0.793,0.0,-0.488,24.62,-58.574,179.67,-26.147,-16.513,-9.8,31.26,-0.10468,0.47833,0.18616,0.85175,313
78,0.895,-0.05,0.492,0.122,-0.366,0.122,-5.729,-60.705,170.695,-25.307,-12.193,-18.067,26.65,0.09372,0.49951,-0.08322,0.85712,310,0.566,0.285,0.778,0.61,-0.122,0.122,20.352,-34.354,-148.222,-16.46,-15.073,-5.993,27.85,0.3064,-0.23151,-0.23965,-0.8916,318,0.476,0.414,0.783,0.793,-1.77,-0.244,27.713,-28.619,107.946,-10.533,-18.4,-30.207,30.09,-0.50836,-0.33014,-0.04538,-0.79398,314,0.845,0.218,0.466,1.648,-0.671,-0.305,24.659,-58.574,179.632,-26.147,-16.513,-9.8,31.26,-0.1019,0.47842,0.1846,0.85239,324
79,0.893,-0.051,0.489,0.305,-0.061,0.183,-5.729,-60.705,170.689,-25.307,-12.193,-18.067,26.65,0.09372,0.49951,-0.08322,0.85712,311,0.566,0.288,0.776,0.244,-0.061,0.061,20.358,-34.354,-148.206,-16.46,-15.073,-5.993,27.85,0.3064,-0.23151,-0.23965,-0.8916,319,0.476,0.409,0.781,0.549,-1.953,0.061,27.735,-28.652,107.952,-10.533,-18.4,-30.207,30.09,-0.50836,-0.33014,-0.04538,-0.79398,315,0.845,0.218,0.465,1.831,-0.549,-0.183,24.708,-58.579,179.588,-26.147,-16.513,-9.8,31.26,-0.1019,0.47842,0.1846,0.85239,325
80,0.893,-0.05,0.49,0.488,0.0,0.366,-5.735,-60.71,170.695,-25.307,-12.193,-18.067,26.65,0.09372,0.49951,-0.08322,0.85712,316,0.567,0.286,0.774,0.122,-0.305,0.0,20.363,-34.36,-148.195,-16.813,-14.907,-5.873,27.85,0.3064,-0.23151,-0.23965,-0.8916,322,0.478,0.408,0.775,0.244,-1.831,0.0,27.751,-28.685,107.957,-10.533,-18.4,-30.207,30.09,-0.50836,-0.33014,-0.04538,-0.79398,320,0.844,0.215,0.464,1.221,-0.427,-0.305,24.758,-58.59,179.572,-26.147,-16.513,-9.8,31.26,-0.1019,0.47842,0.1846,0.85239,328
81,0.893,-0.048,0.494,0.488,-0.305,0.427,-5.74,-60.716,170.706,-25.307,-12.193,-18.067,26.65,0.09372,0.49951,-0.08322,0.85712,317,0.565,0.282,0.773,0.0,-0.366,0.0,20.363,-34.365,-148.195,-16.813,-14.907,-5.873,27.85,0.3064,-0.23151,-0.23965,-0.8916,323,0.478,0.409,0.774,0.244,-1.709,0.0,27.762,-28.713,107.957,-10.533,-18.4,-30.207,30.09,-0.50836,-0.33014,-0.04538,-0.79398,321,0.842,0.216,0.468,0.671,-0.244,-0.427,24.796,-58.596,179.572,-26.147,-16.513,-9.8,31.26,-0.1019,0.47842,0.1846,0.85239,329
82,0.891,-0.047,0.497,0.366,-0.244,0.366,-5.746,-60.721,170.7,-25.307,-12.193,-18.067,26.65,0.09372,0.49951,-0.08322,0.85712,326,0.564,0.282,0.774,-0.061,-0.305,-0.061,20.363,-34.376,-148.189,-16.813,-14.907,-5.873,27.85,0.3064,-0.23151,-0.23965,-0.8916,332,0.478,0.406,0.772,0.61,-2.075,0.0,27.784,-28.746,107.99,-10.533,-18.4,-30.207,30.09,-0.50836,-0.33014,-0.04538,-0.79398,330,0.841,0.216,0.471,0.488,-0.244,-0.488,24.824,-58.596,179.577,-26.147,-16.513,-9.8,31.26,-0.1019,0.47842,0.1846,0.85239,334
83,0.884,-0.048,0.499,0.122,0.183,0.244,-5.751,-60.716,170.684,-25.307,-12.193,-18.067,26.65,0.09372,0.49951,-0.08322,0.85712,327,0.564,0.284,0.775,-0.183,-0.061,-0.183,20.358,-34.376,-148.184,-16.813,-14.907,-5.873,27.85,0.3064,-0.23151,-0.23965,-0.8916,333,0.478,0.405,0.773,0.488,-1.892,0.0,27.806,-28.779,108.007,-10.533,-18.4,-30.207,30.09,-0.50836,-0.33014,-0.04538,-0.79398,331,0.842,0.216,0.474,0.61,-0.183,-0.549,24.851,-58.596,179.561,-26.147,-16.513,-9.8,31.26,-0.1019,0.47842,0.1846,0.85239,335
84,0.882,-0.05,0.501,-0.183,0.244,0.061,-5.751,-60.71,170.662,-25.307,-12.193,-18.067,26.65,0.09372,0.49951,-0.08322,0.85712,336,0.564,0.285,0.774,-0.122,0.0,-0.183,20.358,-34.376,-148.184,-16.813,-14.907,-5.873,27.85,0.30789,-0.23346,-0.2421,-0.88992,346,0.479,0.407,0.772,0.305,-1.587,0.0,27.817,-28.806,108.023,-10.533,-18.4,-30.207,30.09,-0.50836,-0.33014,-0.04538,-0.79398,338,0.842,0.215,0.473,0.488,-0.061,-0.427,24.879,-58.596,179.544,-26.147,-16.513,-9.8,31.26,-0.1019,0.47842,0.1846,0.85239,342
85,0.883,-0.052,0.499,-0.061,0.0,0.061,-5.757,-60.705,170.64,-25.307,-12.193,-18.067,26.65,0.09372,0.49951,-0.08322,0.85712,337,0.565,0.284,0.774,-0.122,0.244,-0.244,20.358,-34.371,-148.189,-16.813,-14.907,-5.873,27.85,0.30789,-0.23346,-0.2421,-0.88992,347,0.478,0.407,0.771,0.061,-0.916,-0.061,27.823,-28.817,108.04,-10.533,-18.4,-30.207,30.09,-0.50836,-0.33014,-0.04538,-0.79398,339,0.842,0.214,0.468,0.183,0.0,-0.183,24.895,-58.59,179.528,-26.147,-16.513,-9.8,31.26,-0.1019,0.47842,0.1846,0.85239,343
86,0.888,-0.054,0.498,0.061,-0.305,0.0,-5.757,-60.705,170.612,-24.953,-12.373,-18.76,26.65,0.09372,0.49951,-0.08322,0.85712,340,0.562,0.282,0.776,0.122,0.183,-0.183,20.358,-34.371,-148.184,-16.813,-14.907,-5.873,27.85,0.30789,-0.23346,-0.2421,-0.88992,352,0.48,0.407,0.774,0.0,-0.61,-0.122,27.828,-28.823,108.034,-10.973,-18.58,-29.707,30.09,-0.50836,-0.33014,-0.04538,-0.79398,344,0.843,0.214,0.467,0.0,0.061,-0.122,24.901,-58.59,179.528,-26.147,-16.513,-9.8,31.26,-0.1019,0.47842,0.1846,0.85239,350
87,0.89,-0.053,0.497,0.244,-0.366,0.0,-5.757,-60.71,170.596,-24.953,-12.373,-18.76,26.65,0.09372,0.49951,-0.08322,0.85712,341,0.564,0.281,0.777,0.183,0.244,-0.183,20.358,-34.365,-148.189,-16.813,-14.907,-5.873,27.85,0.30789,-0.23346,-0.2421,-0.88992,353,0.478,0.407,0.775,0.427,-0.793,-0.061,27.839,-28.834,108.012,-10.973,-18.58,-29.707,30.09,-0.50836,-0.33014,-0.04538,-0.79398,345,0.843,0.216,0.467,0.061,-0.244,-0.122,24.906,-58.59,179.544,-26.147,-16.513,-9.8,31.26,-0.1019,0.47842,0.1846,0.85239,351
88,0.89,-0.053,0.496,0.183,-0.183,0.0,-5.757,-60.716,170.601,-24.953,-12.373,-18.76,26.65,0.09372,0.49951,-0.08322,0.85712,348,0.566,0.286,0.773,0.549,0.183,-0.183,20.363,-34.36,-148.206,-16.813,-14.907,-5.873,27.85,0.30789,-0.23346,-0.2421,-0.88992,356,0.479,0.405,0.775,0.488,-0.427,0.061,27.85,-28.839,108.012,-10.973,-18.58,-29.707,30.09,-0.50391,-0.33255,-0.04651,-0.79575,354,0.845,0.217,0.466,0.549,-0.427,-0.122,24.917,-58.596,179.533,-26.147,-16.513,-9.8,31.26,-0.1019,0.47842,0.1846,0.85239,358
89,0.891,-0.051,0.495,0.183,-0.122,0.0,-5.757,-60.721,170.612,-24.953,-12.373,-18.76,26.65,0.09372,0.49951,-0.08322,0.85712,349,0.566,0.287,0.772,0.61,0.0,0.0,20.374,-34.36,-148.222,-16.813,-14.907,-5.873,27.85,0.30789,-0.23346,-0.2421,-0.88992,357,0.48,0.409,0.775,0.549,-0.122,-0.061,27.856,-28.839,108.034,-10.973,-18.58,-29.707,30.09,-0.50391,-0.33255,-0.04651,-0.79575,355,0.845,0.215,0.464,0.488,-0.366,-0.183,24.933,-58.601,179.517,-26.147,-16.513,-9.8,31.26,-0.1019,0.47842,0.1846,0.85239,359
90,0.891,-0.051,0.495,0.183,-0.122,0.0,-5.757,-60.721,170.634,-24.953,-12.373,-18.76,26.65,0.09583,0.49954,-0.0845,0.85675,364,0.567,0.288,0.774,0.244,0.061,0.183,20.374,-34.36,-148.239,-16.813,-14.907,-5.873,27.85,0.30789,-0.23346,-0.2421,-0.88992,362,0.48,0.412,0.771,0.732,-0.366,0.061,27.872,-28.845,108.056,-10.973,-18.58,-29.707,30.09,-0.50391,-0.33255,-0.04651,-0.79575,360,0.845,0.217,0.462,0.427,-0.427,-0.061,24.95,-58.607,179.5,-26.147,-16.513,-9.8,31.26,-0.1019,0.47842,0.1846,0.85239,368
91,0.893,-0.05,0.494,0.244,-0.244,0.0,-5.751,-60.721,170.651,-24.953,-12.373,-18.76,26.65,0.09583,0.49954,-0.0845,0.85675,365,0.566,0.288,0.772,0.0,0.0,0.244,20.374,-34.36,-148.255,-16.813,-14.907,-5.873,27.85,0.30789,-0.23346,-0.2421,-0.88992,363,0.482,0.412,0.772,0.61,-0.61,0.305,27.883,-28.856,108.073,-10.973,-18.58,-29.707,30.09,-0.50391,-0.33255,-0.04651,-0.79575,361,0.845,0.219,0.461,0.183,-0.488,0.0,24.961,-58.612,179.484,-26.147,-16.513,-9.8,31.26,-0.1019,0.47842,0.1846,0.85239,369
92,0.893,-0.05,0.494,0.122,-0.183,0.0,-5.751,-60.727,170.645,-24.953,-12.373,-18.76,26.65,0.09583,0.49954,-0.0845,0.85675,366,0.567,0.286,0.771,-0.183,-0.183,0.183,20.369,-34.365,-148.266,-16.813,-14.907,-5.873,27.85,0.30789,-0.23346,-0.2421,-0.88992,372,0.481,0.411,0.772,0.183,-0.61,0.183,27.889,-28.867,108.067,-10.973,-18.58,-29.707,30.09,-0.50391,-0.33255,-0.04651,-0.79575,370,0.845,0.22,0.462,0.244,-0.549,-0.061,24.972,-58.623,179.473,-25.933,-16.333,-9.973,31.26,-0.1019,0.47842,0.1846,0.85239,374
93,0.89,-0.049,0.494,0.061,0.0,-0.061,-5.751,-60.732,170.629,-24.953,-12.373,-18.76,26.65,0.09583,0.49954,-0.0845,0.85675,367,0.567,0.286,0.77,-0.183,-0.183,0.0,20.363,-34.371,-148.266,-16.813,-14.907,-5.873,27.85,0.30789,-0.23346,-0.2421,-0.88992,373,0.482,0.409,0.772,-0.183,-0.549,0.183,27.889,-28.878,108.045,-10.973,-18.58,-29.707,30.09,-0.50391,-0.33255,-0.04651,-0.79575,371,0.844,0.219,0.464,0.244,-0.244,-0.183,24.988,-58.629,179.456,-25.933,-16.333,-9.973,31.26,-0.1019,0.47842,0.1846,0.85239,375
94,0.889,-0.049,0.495,0.0,0.183,-0.061,-5.746,-60.732,170.601,-24.953,-12.373,-18.76,26.65,0.09583,0.49954,-0.0845,0.85675,378,0.565,0.287,0.771,-0.305,0.0,0.0,20.358,-34.371,-148.26,-16.813,-14.907,-5.873,27.85,0.30789,-0.23346,-0.2421,-0.88992,380,0.481,0.408,0.769,-0.366,-0.732,0.061,27.883,-28.889,108.023,-10.973,-18.58,-29.707,30.09,-0.50391,-0.33255,-0.04651,-0.79575,376,0.843,0.219,0.463,0.0,-0.122,-0.122,24.999,-58.634,179.429,-25.933,-16.333,-9.973,31.26,-0.1019,0.47842,0.1846,0.85239,382
95,0.89,-0.049,0.495,0.0,0.0,0.0,-5.746,-60.727,170.579,-24.953,-12.373,-18.76,26.65,0.09583,0.49954,-0.0845,0.85675,379,0.564,0.286,0.771,-0.244,0.061,0.0,20.352,-34.371,-148.255,-16.813,-14.907,-5.873,27.85,0.30789,-0.23346,-0.2421,-0.88992,381,0.48,0.411,0.767,-0.488,-0.732,0.0,27.878,-28.9,108.023,-10.973,-18.58,-29.707,30.09,-0.50391,-0.33255,-0.04651,-0.79575,377,0.843,0.219,0.462,0.0,-0.061,-0.061,25.005,-58.634,179.423,-25.933,-16.333,-9.973,31.26,-0.1019,0.47842,0.1846,0.85239,383
96,0.891,-0.05,0.496,0.0,0.0,0.0,-5.746,-60.732,170.585,-24.953,-12.373,-18.76,26.65,0.09583,0.49954,-0.0845,0.85675,384,0.565,0.285,0.773,-0.183,0.0,0.0,20.347,-34.371,-148.25,-16.813,-14.907,-5.873,27.85,0.30789,-0.23346,-0.2421,-0.88992,388,0.481,0.41,0.769,-0.244,-0.488,-0.061,27.878,-28.911,107.996,-10.973,-18.58,-29.707,30.09,-0.50391,-0.33255,-0.04651,-0.79575,386,0.844,0.219,0.464,0.0,-0.244,0.0,25.01,-58.64,179.418,-25.933,-16.333,-9.973,31.26,-0.10175,0.47897,0.18637,0.85172,394
97,0.89,-0.05,0.496,0.0,0.122,0.0,-5.746,-60.727,170.59,-24.953,-12.373,-18.76,26.65,0.09583,0.49954,-0.0845,0.85675,385,0.566,0.286,0.772,0.0,0.0,-0.061,20.347,-34.376,-148.239,-16.813,-14.907,-5.873,27.85,0.30789,-0.23346,-0.2421,-0.88992,389,0.48,0.409,0.772,0.061,-0.366,-0.244,27.883,-28.916,107.957,-10.973,-18.58,-29.707,30.09,-0.50391,-0.33255,-0.04651,-0.79575,387,0.844,0.218,0.468,0.122,-0.183,0.0,25.016,-58.645,179.401,-25.933,-16.333,-9.973,31.26,-0.10175,0.47897,0.18637,0.85172,395
98,0.887,-0.051,0.497,0.061,0.183,0.0,-5.746,-60.727,170.601,-24.953,-12.373,-18.76,26.65,0.09583,0.49954,-0.0845,0.85675,390,0.565,0.287,0.774,-0.183,0.0,-0.061,20.341,-34.376,-148.239,-16.507,-14.993,-5.933,27.85,0.30789,-0.23346,-0.2421,-0.88992,392,0.48,0.41,0.77,0.0,-0.427,-0.183,27.889,-28.916,107.913,-10.973,-18.58,-29.707,30.09,-0.50391,-0.33255,-0.04651,-0.79575,396,0.843,0.217,0.465,0.183,0.061,-0.061,25.021,-58.645,179.379,-25.933,-16.333,-9.973,31.26,-0.10175,0.47897,0.18637,0.85172,402
99,0.888,-0.051,0.496,0.0,0.0,0.0,-5.746,-60.727,170.607,-24.953,-12.373,-18.76,26.65,0.09583,0.49954,-0.0845,0.85675,391,0.565,0.285,0.774,-0.183,0.183,0.0,20.336,-34.371,-148.255,-16.507,-14.993,-5.933,27.85,0.30789,-0.23346,-0.2421,-0.88992,393,0.48,0.41,0.771,0.0,-0.305,-0.122,27.894,-28.922,107.875,-10.973,-18.58,-29.707,30.09,-0.50391,-0.33255,-0.04651,-0.79575,397,0.842,0.218,0.464,0.0,0.244,0.061,25.021,-58.64,179.363,-25.933,-16.333,-9.973,31.26,-0.10175,0.47897,0.18637,0.85172,403
100,0.889,-0.051,0.496,0.0,0.0,0.0,-5.746,-60.727,170.612,-24.953,-12.373,-18.76,26.65,0.09583,0.49954,-0.0845,0.85675,404,0.562,0.286,0.774,-0.061,0.366,0.0,20.336,-34.365,-148.26,-16.507,-14.993,-5.933,27.85,0.30789,-0.23346,-0.2421,-0.88992,400,0.48,0.411,0.771,-0.061,-0.244,0.0,27.894,-28.927,107.864,-10.78,-18.6,-30.36,30.09,-0.50391,-0.33255,-0.04651,-0.79575,398,0.842,0.218,0.464,0.0,0.183,0.122,25.021,-58.64,179.335,-25.933,-16.333,-9.973,31.26,-0.10175,0.47897,0.18637,0.85172,408
101,0.889,-0.05,0.496,0.0,0.0,0.0,-5.746,-60.727,170.623,-24.953,-12.373,-18.76,26.65,0.09583,0.49954,-0.0845,0.85675,405,0.564,0.285,0.773,-0.061,0.244,0.061,20.33,-34.365,-148.26,-16.507,-14.993,-5.933,27.85,0.30789,-0.23346,-0.2421,-0.88992,401,0.48,0.41,0.771,-0.061,-0.183,0.0,27.894,-28.927,107.858,-10.78,-18.6,-30.36,30.09,-0.50391,-0.33255,-0.04651,-0.79575,399,0.843,0.218,0.466,0.061,0.0,0.122,25.016,-58.64,179.341,-25.933,-16.333,-9.973,31.26,-0.10175,0.47897,0.18637,0.85172,409
102,0.888,-0.051,0.496,0.0,0.0,0.0,-5.746,-60.727,170.634,-25.127,-11.933,-17.627,26.65,0.09583,0.49954,-0.0845,0.85675,406,0.565,0.284,0.774,-0.122,0.122,0.0,20.325,-34.36,-148.26,-16.507,-14.993,-5.933,27.85,0.30725,-0.23358,-0.2417,-0.89023,416,0.481,0.409,0.772,-0.122,-0.061,0.122,27.894,-28.927,107.858,-10.78,-18.6,-30.36,30.09,-0.50391,-0.33255,-0.04651,-0.79575,410,0.844,0.217,0.466,0.122,0.0,0.122,25.016,-58.64,179.352,-25.933,-16.333,-9.973,31.26,-0.10175,0.47897,0.18637,0.85172,412
103,0.888,-0.05,0.496,0.0,0.0,0.0,-5.751,-60.727,170.64,-25.127,-11.933,-17.627,26.65,0.09583,0.49954,-0.0845,0.85675,407,0.565,0.286,0.774,0.0,0.122,0.0,20.325,-34.36,-148.271,-16.507,-14.993,-5.933,27.85,0.30725,-0.23358,-0.2417,-0.89023,417,0.481,0.41,0.772,-0.122,0.0,0.183,27.894,-28.932,107.891,-10.78,-18.6,-30.36,30.09,-0.50391,-0.33255,-0.04651,-0.79575,411,0.844,0.218,0.463,0.122,0.0,0.183,25.016,-58.64,179.374,-25.933,-16.333,-9.973,31.26,-0.10175,0.47897,0.18637,0.85172,413
104,0.89,-0.051,0.496,0.0,-0.061,0.0,-5.751,-60.727,170.64,-25.127,-11.933,-17.627,26.65,0.09583,0.49954,-0.0845,0.85675,414,0.564,0.285,0.775,0.0,0.183,0.0,20.325,-34.36,-148.277,-16.507,-14.993,-5.933,27.85,0.30725,-0.23358,-0.2417,-0.89023,420,0.48,0.409,0.773,-0.122,0.0,0.122,27.889,-28.932,107.924,-10.78,-18.6,-30.36,30.09,-0.50446,-0.33337,-0.04596,-0.79507,418,0.843,0.217,0.461,-0.122,0.122,0.183,25.01,-58.645,179.396,-25.933,-16.333,-9.973,31.26,-0.10175,0.47897,0.18637,0.85172,424
105,0.892,-0.05,0.496,0.0,-0.122,0.0,-5.751,-60.727,170.623,-25.127,-11.933,-17.627,26.65,0.09583,0.49954,-0.0845,0.85675,415,0.564,0.284,0.774,0.0,0.0,0.0,20.325,-34.354,-148.277,-16.507,-14.993,-5.933,27.85,0.30725,-0.23358,-0.2417,-0.89023,421,0.48,0.409,0.774,-0.061,0.0,0.183,27.889,-28.932,107.935,-10.78,-18.6,-30.36,30.09,-0.50446,-0.33337,-0.04596,-0.79507,419,0.844,0.217,0.463,-0.305,-0.061,0.122,25.005,-58.645,179.418,-25.933,-16.333,-9.973,31.26,-0.10175,0.47897,0.18637,0.85172,425
106,0.891,-0.05,0.495,0.061,0.0,0.0,-5.751,-60.727,170.618,-25.127,-11.933,-17.627,26.65,0.09567,0.4996,-0.08438,0.85675,422,0.567,0.282,0.774,0.0,-0.122,0.0,20.319,-34.36,-148.277,-16.507,-14.993,-5.933,27.85,0.30725,-0.23358,-0.2417,-0.89023,428,0.483,0.406,0.771,-0.061,0.0,0.244,27.883,-28.932,107.957,-10.78,-18.6,-30.36,30.09,-0.50446,-0.33337,-0.04596,-0.79507,426,0.847,0.217,0.466,-0.183,-0.122,0.061,24.999,-58.645,179.445,-25.933,-16.333,-9.973,31.26,-0.10175,0.47897,0.18637,0.85172,432
107,0.889,-0.05,0.495,0.122,0.183,0.0,-5.751,-60.727,170.607,-25.127,-11.933,-17.627,26.65,0.09567,0.4996,-0.08438,0.85675,423,0.569,0.284,0.772,-0.061,0.0,0.0,20.319,-34.36,-148.288,-16.507,-14.993,-5.933,27.85,0.30725,-0.23358,-0.2417,-0.89023,429,0.483,0.407,0.768,-0.244,0.0,0.122,27.883,-28.932,107.957,-10.78,-18.6,-30.36,30.09,-0.50446,-0.33337,-0.04596,-0.79507,427,0.846,0.217,0.466,-0.183,0.0,0.061,24.994,-58.651,179.44,-25.933,-16.333,-9.973,31.26,-0.10175,0.47897,0.18637,0.85172,433
108,0.891,-0.051,0.495,0.0,0.061,0.0,-5.751,-60.727,170.59,-25.127,-11.933,-17.627,26.65,0.09567,0.4996,-0.08438,0.85675,430,0.566,0.283,0.773,-0.061,0.061,0.0,20.314,-34.36,-148.293,-16.507,-14.993,-5.933,27.85,0.30725,-0.23358,-0.2417,-0.89023,434,0.482,0.408,0.769,-0.183,-0.122,0.0,27.878,-28.932,107.935,-10.78,-18.6,-30.36,30.09,-0.50446,-0.33337,-0.04596,-0.79507,436,0.843,0.215,0.464,0.0,0.183,0.061,24.994,-58.645,179.418,-25.933,-16.333,-9.973,31.26,-0.10175,0.47897,0.18637,0.85172,440
109,0.89,-0.051,0.496,0.0,0.0,0.0,-5.751,-60.727,170.579,-25.127,-11.933,-17.627,26.65,0.09567,0.4996,-0.08438,0.85675,431,0.562,0.281,0.774,-0.244,0.244,0.0,20.308,-34.36,-148.304,-16.507,-14.993,-5.933,27.85,0.30725,-0.23358,-0.2417,-0.89023,435,0.479,0.406,0.771,-0.366,0.061,0.0,27.872,-28.932,107.886,-10.78,-18.6,-30.36,30.09,-0.50446,-0.33337,-0.04596,-0.79507,437,0.841,0.216,0.463,-0.183,0.061,0.0,24.988,-58.645,179.401,-25.933,-16.333,-9.973,31.26,-0.10175,0.47897,0.18637,0.85172,441
110,0.887,-0.052,0.495,0.0,0.0,0.0,-5.751,-60.727,170.563,-25.127,-11.933,-17.627,26.65,0.09567,0.4996,-0.08438,0.85675,438,0.564,0.283,0.771,-0.305,0.244,0.0,20.303,-34.354,-148.315,-16.507,-14.993,-5.933,27.85,0.30725,-0.23358,-0.2417,-0.89023,444,0.481,0.405,0.769,-0.305,0.0,-0.122,27.867,-28.932,107.836,-10.78,-18.6,-30.36,30.09,-0.50446,-0.33337,-0.04596,-0.79507,442,0.843,0.22,0.465,-0.183,0.122,0.0,24.983,-58.645,179.39,-25.867,-16.813,-9.887,31.26,-0.10175,0.47897,0.18637,0.85172,446
111,0.887,-0.05,0.497,0.0,0.244,0.0,-5.751,-60.727,170.552,-25.127,-11.933,-17.627,26.65,0.09567,0.4996,-0.08438,0.85675,439,0.566,0.285,0.771,-0.244,0.366,0.0,20.292,-34.349,-148.332,-16.507,-14.993,-5.933,27.85,0.30725,-0.23358,-0.2417,-0.89023,445,0.481,0.409,0.769,-0.122,-0.122,-0.488,27.861,-28.927,107.792,-10.78,-18.6,-30.36,30.09,-0.50446,-0.33337,-0.04596,-0.79507,443,0.844,0.218,0.465,0.427,0.183,0.0,24.988,-58.645,179.385,-25.867,-16.813,-9.887,31.26,-0.10175,0.47897,0.18637,0.85172,447
112,0.89,-0.05,0.498,0.061,0.061,0.0,-5.751,-60.721,170.541,-25.127,-11.933,-17.627,26.65,0.09567,0.4996,-0.08438,0.85675,448,0.565,0.285,0.775,0.0,0.366,0.0,20.286,-34.343,-148.343,-16.507,-14.993,-5.933,27.85,0.30725,-0.23358,-0.2417,-0.89023,452,0.481,0.413,0.772,0.244,-0.183,-0.305,27.867,-28.927,107.748,-10.78,-18.6,-30.36,30.09,-0.50446,-0.33337,-0.04596,-0.79507,450,0.846,0.212,0.464,0.366,0.061,0.0,24.994,-58.64,179.385,-25.867,-16.813,-9.887,31.26,-0.10175,0.47897,0.18637,0.85172,454
113,0.892,-0.05,0.497,0.0,0.0,0.0,-5.751,-60.721,170.546,-25.127,-11.933,-17.627,26.65,0.09567,0.4996,-0.08438,0.85675,449,0.564,0.284,0.779,0.0,0.244,0.427,20.281,-34.343,-148.348,-16.507,-14.993,-5.933,27.85,0.30725,-0.23358,-0.2417,-0.89023,453,0.481,0.41,0.775,0.488,0.061,0.0,27.878,-28.927,107.743,-10.78,-18.6,-30.36,30.09,-0.50446,-0.33337,-0.04596,-0.79507,451,0.845,0.216,0.466,0.427,-0.122,0.0,25.005,-58.645,179.374,-25.867,-16.813,-9.887,31.26,-0.10175,0.47897,0.18637,0.85172,455
114,0.889,-0.051,0.495,-0.061,0.0,0.0,-5.751,-60.721,170.541,-25.127,-11.933,-17.627,26.65,0.09567,0.4996,-0.08438,0.85675,456,0.564,0.286,0.778,0.122,0.183,0.366,20.275,-34.343,-148.348,-16.507,-14.993,-5.933,27.85,0.30725,-0.23358,-0.2417,-0.89023,460,0.48,0.41,0.778,0.61,0.061,0.0,27.889,-28.927,107.748,-10.78,-18.6,-30.36,30.09,-0.50446,-0.33337,-0.04596,-0.79507,458,0.845,0.221,0.468,0.366,-0.122,0.0,25.016,-58.645,179.368,-25.867,-16.813,-9.887,31.26,-0.10141,0.4791,0.18613,0.85172,464
115,0.888,-0.053,0.496,0.0,-0.061,0.0,-5.757,-60.721,170.541,-25.127,-11.933,-17.627,26.65,0.09567,0.4996,-0.08438,0.85675,457,0.563,0.287,0.775,0.0,0.0,0.061,20.27,-34.343,-148.348,-16.507,-14.993,-5.933,27.85,0.30725,-0.23358,-0.2417,-0.89023,461,0.479,0.41,0.774,0.427,-0.183,-0.122,27.9,-28.922,107.759,-10.78,-18.6,-30.36,30.09,-0.50446,-0.33337,-0.04596,-0.79507,459,0.842,0.221,0.465,0.122,0.183,0.366,25.01,-58.645,179.374,-25.867,-16.813,-9.887,31.26,-0.10141,0.4791,0.18613,0.85172,465
116,0.89,-0.051,0.496,0.183,-0.183,0.0,-5.757,-60.721,170.546,-25.127,-11.933,-17.627,26.65,0.09567,0.4996,-0.08438,0.85675,462,0.564,0.285,0.775,0.0,-0.061,-0.061,20.27,-34.343,-148.354,-16.107,-14.813,-6.28,27.85,0.30725,-0.23358,-0.2417,-0.89023,474,0.479,0.411,0.771,0.183,0.0,0.0,27.911,-28.922,107.792,-10.733,-18.733,-29.607,30.09,-0.50446,-0.33337,-0.04596,-0.79507,466,0.844,0.218,0.464,-0.427,0.427,0.427,24.988,-58.645,179.39,-25.867,-16.813,-9.887,31.26,-0.10141,0.4791,0.18613,0.85172,468
117,0.889,-0.049,0.495,0.183,0.0,0.0,-5.751,-60.727,170.552,-25.127,-11.933,-17.627,26.65,0.09567,0.4996,-0.08438,0.85675,463,0.565,0.284,0.774,0.0,-0.061,0.0,20.27,-34.343,-148.365,-16.107,-14.813,-6.28,27.85,0.30725,-0.23358,-0.2417,-0.89023,475,0.481,0.41,0.77,0.0,0.061,0.122,27.911,-28.922,107.792,-10.733,-18.733,-29.607,30.09,-0.50446,-0.33337,-0.04596,-0.79507,467,0.843,0.22,0.465,-0.732,0.427,0.427,24.955,-58.64,179.396,-25.867,-16.813,-9.887,31.26,-0.10141,0.4791,0.18613,0.85172,469
118,0.887,-0.048,0.497,0.0,0.244,0.0,-5.751,-60.721,170.546,-25.127,-11.933,-17.627,26.65,0.09567,0.4996,-0.08438,0.85675,470,0.564,0.285,0.772,-0.061,0.122,0.0,20.27,-34.343,-148.365,-16.107,-14.813,-6.28,27.85,0.30627,-0.2338,-0.24097,-0.89072,478,0.481,0.408,0.768,-0.061,0.061,0.0,27.911,-28.922,107.803,-10.733,-18.733,-29.607,30.09,-0.50494,-0.3334,-0.0459,-0.79477,476,0.843,0.222,0.467,-0.61,0.732,0.244,24.928,-58.634,179.374,-25.867,-16.813,-9.887,31.26,-0.10141,0.4791,0.18613,0.85172,472
119,0.887,-0.047,0.498,-0.122,0.061,0.0,-5.751,-60.721,170.552,-25.127,-11.933,-17.627,26.65,0.09567,0.4996,-0.08438,0.85675,471,0.564,0.285,0.771,0.0,0.305,-0.183,20.27,-34.338,-148.37,-16.107,-14.813,-6.28,27.85,0.30627,-0.2338,-0.24097,-0.89072,479,0.481,0.408,0.768,0.061,-0.366,-0.183,27.911,-28.922,107.792,-10.733,-18.733,-29.607,30.09,-0.50494,-0.3334,-0.0459,-0.79477,477,0.843,0.22,0.465,-0.488,0.977,0.244,24.901,-58.618,179.363,-25.867,-16.813,-9.887,31.26,-0.10141,0.4791,0.18613,0.85172,473
120,0.888,-0.049,0.496,-0.183,0.0,0.0,-5.757,-60.716,170.546,-25.413,-12.473,-18.0,26.65,0.09567,0.4996,-0.08438,0.85675,480,0.568,0.285,0.774,-0.061,0.61,-0.366,20.27,-34.321,-148.381,-16.107,-14.813,-6.28,27.85,0.30627,-0.2338,-0.24097,-0.89072,486,0.484,0.409,0.769,0.0,-0.366,-0.305,27.916,-28.922,107.787,-10.733,-18.733,-29.607,30.09,-0.50494,-0.3334,-0.0459,-0.79477,482,0.845,0.217,0.467,-0.366,1.16,0.305,24.873,-58.601,179.368,-25.867,-16.813,-9.887,31.26,-0.10141,0.4791,0.18613,0.85172,484
121,0.89,-0.05,0.497,-0.122,0.061,0.0,-5.757,-60.716,170.541,-25.413,-12.473,-18.0,26.65,0.09567,0.4996,-0.08438,0.85675,481,0.564,0.29,0.774,-0.122,0.671,-0.244,20.264,-34.31,-148.392,-16.107,-14.813,-6.28,27.85,0.30627,-0.2338,-0.24097,-0.89072,487,0.479,0.416,0.772,0.122,-0.488,-0.793,27.922,-28.927,107.781,-10.733,-18.733,-29.607,30.09,-0.50494,-0.3334,-0.0459,-0.79477,483,0.845,0.217,0.468,-0.793,1.404,0.488,24.829,-58.579,179.385,-25.867,-16.813,-9.887,31.26,-0.10141,0.4791,0.18613,0.85172,485
122,0.892,-0.051,0.498,0.0,0.244,0.0,-5.757,-60.716,170.535,-25.413,-12.473,-18.0,26.65,0.09567,0.4996,-0.08438,0.85675,488,0.564,0.285,0.777,0.0,0.549,0.0,20.264,-34.299,-148.398,-16.107,-14.813,-6.28,27.85,0.30627,-0.2338,-0.24097,-0.89072,492,0.479,0.414,0.772,0.183,-0.671,-0.732,27.938,-28.927,107.754,-10.733,-18.733,-29.607,30.09,-0.50494,-0.3334,-0.0459,-0.79477,490,0.844,0.214,0.469,-0.793,1.526,0.427,24.785,-58.557,179.401,-25.867,-16.813,-9.887,31.26,-0.10141,0.4791,0.18613,0.85172,496
123,0.887,-0.051,0.497,0.061,0.366,0.0,-5.757,-60.705,170.53,-25.413,-12.473,-18.0,26.65,0.09567,0.4996,-0.08438,0.85675,489,0.564,0.282,0.778,-0.061,1.099,0.122,20.253,-34.283,-148.392,-16.107,-14.813,-6.28,27.85,0.30627,-0.2338,-0.24097,-0.89072,493,0.482,0.408,0.772,0.061,-0.549,-0.488,27.955,-28.932,107.726,-10.733,-18.733,-29.607,30.09,-0.50494,-0.3334,-0.0459,-0.79477,491,0.844,0.215,0.471,-0.061,1.343,0.427,24.758,-58.535,179.434,-25.867,-16.813,-9.887,31.26,-0.10141,0.4791,0.18613,0.85172,497
124,0.887,-0.052,0.497,0.0,0.427,0.0,-5.757,-60.699,170.524,-25.413,-12.473,-18.0,26.65,0.09641,0.49939,-0.08484,0.85675,494,0.562,0.283,0.776,0.183,1.221,0.0,20.253,-34.261,-148.392,-16.107,-14.813,-6.28,27.85,0.30627,-0.2338,-0.24097,-0.89072,500,0.479,0.409,0.772,0.549,-0.427,-0.671,27.966,-28.932,107.688,-10.733,-18.733,-29.607,30.09,-0.50494,-0.3334,-0.0459,-0.79477,498,0.841,0.217,0.467,0.122,1.526,0.427,24.725,-58.513,179.473,-25.867,-16.813,-9.887,31.26,-0.10141,0.4791,0.18613,0.85172,504
125,0.888,-0.052,0.497,-0.122,0.183,0.0,-5.757,-60.694,170.519,-25.413,-12.473,-18.0,26.65,0.09641,0.49939,-0.08484,0.85675,495,0.562,0.284,0.778,0.366,1.099,0.0,20.253,-34.239,-148.392,-16.107,-14.813,-6.28,27.85,0.30627,-0.2338,-0.24097,-0.89072,501,0.481,0.41,0.774,0.732,-0.427,-0.549,27.988,-28.932,107.682,-10.733,-18.733,-29.607,30.09,-0.50494,-0.3334,-0.0459,-0.79477,499,0.842,0.216,0.469,-0.183,1.465,0.488,24.692,-58.491,179.522,-25.867,-16.813,-9.887,31.26,-0.10141,0.4791,0.18613,0.85172,505
126,0.89,-0.052,0.495,-0.061,0.183,0.0,-5.757,-60.688,170.513,-25.413,-12.473,-18.0,26.65,0.09641,0.49939,-0.08484,0.85675,502,0.563,0.285,0.779,0.183,1.099,-0.122,20.253,-34.222,-148.392,-16.107,-14.813,-6.28,27.85,0.30627,-0.2338,-0.24097,-0.89072,506,0.481,0.41,0.776,0.366,-0.183,-0.427,28.004,-28.932,107.688,-10.733,-18.733,-29.607,30.09,-0.50494,-0.3334,-0.0459,-0.79477,508,0.842,0.216,0.472,-0.305,1.282,0.671,24.648,-58.475,179.588,-25.867,-16.813,-9.887,31.26,-0.10141,0.4791,0.18613,0.85172,512
127,0.889,-0.052,0.496,-0.122,0.244,0.0,-5.762,-60.683,170.508,-25.413,-12.473,-18.0,26.65,0.09641,0.49939,-0.08484,0.85675,503,0.561,0.285,0.777,0.0,1.099,-0.305,20.248,-34.2,-148.398,-16.107,-14.813,-6.28,27.85,0.30627,-0.2338,-0.24097,-0.89072,507,0.48,0.41,0.773,0.427,-0.671,-0.671,28.021,-28.932,107.672,-10.733,-18.733,-29.607,30.09,-0.50494,-0.3334,-0.0459,-0.79477,509,0.842,0.213,0.471,-0.183,0.977,0.61,24.615,-58.458,179.665,-25.867,-16.813,-9.887,31.26,-0.10141,0.4791,0.18613,0.85172,513
128,0.886,-0.052,0.496,-0.122,0.366,0.0,-5.762,-60.677,170.502,-25.413,-12.473,-18.0,26.65,0.09641,0.49939,-0.08484,0.85675,510,0.562,0.282,0.775,0.183,1.038,-0.244,20.248,-34.178,-148.403,-16.107,-14.813,-6.28,27.85,0.30627,-0.2338,-0.24097,-0.89072,516,0.48,0.409,0.771,0.732,-1.404,-0.671,28.037,-28.943,107.644,-10.733,-18.733,-29.607,30.09,-0.50494,-0.3334,-0.0459,-0.79477,514,0.842,0.216,0.47,-0.061,0.977,0.488,24.593,-58.447,179.742,-26.113,-16.753,-9.02,31.26,-0.10141,0.4791,0.18613,0.85172,518
129,0.888,-0.051,0.499,-0.244,0.366,0.0,-5.768,-60.672,170.497,-25.413,-12.473,-18.0,26.65,0.09641,0.49939,-0.08484,0.85675,511,0.561,0.282,0.78,0.61,1.099,-0.305,20.259,-34.156,-148.425,-16.107,-14.813,-6.28,27.85,0.30627,-0.2338,-0.24097,-0.89072,517,0.479,0.41,0.771,0.916,-1.221,-0.549,28.065,-28.96,107.617,-10.733,-18.733,-29.607,30.09,-0.50494,-0.3334,-0.0459,-0.79477,515,0.839,0.218,0.471,0.0,0.916,0.488,24.565,-58.436,179.797,-26.113,-16.753,-9.02,31.26,-0.10141,0.4791,0.18613,0.85172,519
130,0.889,-0.049,0.499,-0.244,0.061,0.0,-5.773,-60.667,170.491,-25.413,-12.473,-18.0,26.65,0.09641,0.49939,-0.08484,0.85675,520,0.557,0.286,0.778,0.671,1.221,-0.488,20.27,-34.129,-148.442,-16.107,-14.813,-6.28,27.85,0.30627,-0.2338,-0.24097,-0.89072,526,0.479,0.412,0.773,1.221,-1.099,-0.61,28.098,-28.971,107.639,-11.0,-18.587,-29.453,30.09,-0.50494,-0.3334,-0.0459,-0.79477,522,0.839,0.219,0.472,0.0,0.793,0.427,24.543,-58.425,179.846,-26.113,-16.753,-9.02,31.26,-0.10141,0.4791,0.18613,0.85172,524
131,0.888,-0.047,0.498,-0.122,0.183,0.0,-5.779,-60.667,170.486,-25.413,-12.473,-18.0,26.65,0.09641,0.49939,-0.08484,0.85675,521,0.561,0.286,0.777,0.732,1.038,-0.793,20.286,-34.107,-148.469,-16.107,-14.813,-6.28,27.85,0.30627,-0.2338,-0.24097,-0.89072,527,0.481,0.412,0.77,1.282,-1.282,-0.488,28.13,-28.982,107.672,-11.0,-18.587,-29.453,30.09,-0.50494,-0.3334,-0.0459,-0.79477,523,0.841,0.217,0.472,0.0,0.488,0.366,24.532,-58.42,179.874,-26.113,-16.753,-9.02,31.26,-0.10141,0.4791,0.18613,0.85172,525
132,0.888,-0.046,0.498,-0.244,0.122,0.0,-5.779,-60.661,170.48,-25.413,-12.473,-18.0,26.65,0.09641,0.49939,-0.08484,0.85675,528,0.562,0.284,0.775,0.732,1.16,-0.793,20.303,-34.08,-148.486,-15.893,-14.927,-6.193,27.85,0.30627,-0.2338,-0.24097,-0.89072,532,0.482,0.411,0.764,1.038,-0.793,-0.488,28.163,-28.998,107.71,-11.0,-18.587,-29.453,30.09,-0.50485,-0.33493,-0.04684,-0.79413,530,0.841,0.214,0.47,0.061,0.183,0.183,24.527,-58.414,179.885,-26.113,-16.753,-9.02,31.26,-0.10269,0.47708,0.18491,0.85297,538
133,0.889,-0.047,0.497,-0.366,0.0,0.0,-5.784,-60.661,170.475,-25.413,-12.473,-18.0,26.65,0.09641,0.49939,-0.08484,0.85675,529,0.562,0.285,0.775,0.732,1.221,-0.732,20.319,-34.052,-148.502,-15.893,-14.927,-6.193,27.85,0.30627,-0.2338,-0.24097,-0.89072,533,0.482,0.412,0.766,1.038,-0.183,-0.549,28.191,-29.004,107.737,-11.0,-18.587,-29.453,30.09,-0.50485,-0.33493,-0.04684,-0.79413,531,0.841,0.212,0.468,0.183,0.0,0.183,24.527,-58.42,179.901,-26.113,-16.753,-9.02,31.26,-0.10269,0.47708,0.18491,0.85297,539
134,0.891,-0.05,0.496,-0.427,-0.122,0.0,-5.79,-60.661,170.469,-25.413,-12.473,-18.0,26.65,0.09641,0.49939,-0.08484,0.85675,534,0.56,0.286,0.777,0.671,1.099,-0.549,20.33,-34.03,-148.519,-15.893,-14.927,-6.193,27.85,0.30627,-0.2338,-0.24097,-0.89072,540,0.481,0.415,0.77,1.038,-0.305,-0.671,28.218,-28.998,107.732,-11.0,-18.587,-29.453,30.09,-0.50485,-0.33493,-0.04684,-0.79413,536,0.843,0.209,0.466,0.061,-0.427,0.183,24.527,-58.425,179.907,-26.113,-16.753,-9.02,31.26,-0.10269,0.47708,0.18491,0.85297,544
135,0.894,-0.05,0.493,-0.488,-0.244,0.0,-5.801,-60.667,170.469,-25.413,-12.473,-18.0,26.65,0.09641,0.49939,-0.08484,0.85675,535,0.561,0.284,0.78,0.671,0.977,-0.366,20.341,-34.014,-148.53,-15.893,-14.927,-6.193,27.85,0.30627,-0.2338,-0.24097,-0.89072,541,0.485,0.413,0.771,1.099,-0.366,-0.488,28.246,-28.998,107.71,-11.0,-18.587,-29.453,30.09,-0.50485,-0.33493,-0.04684,-0.79413,537,0.844,0.208,0.47,0.366,-0.977,0.061,24.549,-58.447,179.89,-26.113,-16.753,-9.02,31.26,-0.10269,0.47708,0.18491,0.85297,545
136,0.894,-0.049,0.496,-0.427,-0.122,0.0,-5.806,-60.667,170.464,-25.413,-12.473,-18.0,26.65,0.09641,0.49939,-0.08484,0.85675,542,0.562,0.282,0.782,0.549,1.038,-0.061,20.347,-33.992,-148.53,-15.893,-14.927,-6.193,27.85,0.30493,-0.23123,-0.2406,-0.89194,546,0.485,0.411,0.77,0.854,0.0,-0.305,28.268,-28.993,107.704,-11.0,-18.587,-29.453,30.09,-0.50485,-0.33493,-0.04684,-0.79413,548,0.845,0.208,0.472,0.0,-1.404,-0.061,24.565,-58.469,179.89,-26.113,-16.753,-9.02,31.26,-0.10269,0.47708,0.18491,0.85297,550
137,0.893,-0.05,0.493,-0.183,0.0,0.488,-5.823,-60.672,170.469,-25.413,-12.473,-18.0,26.65,0.09641,0.49939,-0.08484,0.85675,543,0.557,0.279,0.783,0.549,0.977,0.0,20.347,-33.975,-148.541,-15.893,-14.927,-6.193,27.85,0.30493,-0.23123,-0.2406,-0.89194,547,0.483,0.409,0.776,0.549,0.366,-0.183,28.284,-28.987,107.699,-11.0,-18.587,-29.453,30.09,-0.50485,-0.33493,-0.04684,-0.79413,549,0.843,0.209,0.466,-0.244,-1.709,0.0,24.582,-58.502,179.896,-26.113,-16.753,-9.02,31.26,-0.10269,0.47708,0.18491,0.85297,551
138,0.895,-0.053,0.494,-0.122,0.0,0.549,-5.845,-60.672,170.486,-24.693,-11.36,-18.013,26.65,0.09641,0.49939,-0.08484,0.85675,556,0.559,0.275,0.783,1.038,0.488,-0.061,20.363,-33.97,-148.557,-15.893,-14.927,-6.193,27.85,0.30493,-0.23123,-0.2406,-0.89194,554,0.483,0.403,0.783,0.61,0.366,-0.061,28.295,-28.982,107.715,-11.0,-18.587,-29.453,30.09,-0.50485,-0.33493,-0.04684,-0.79413,552,0.842,0.213,0.462,-0.366,-1.892,-0.122,24.598,-58.535,179.863,-26.113,-16.753,-9.02,31.26,-0.10269,0.47708,0.18491,0.85297,558
139,0.89,-0.056,0.494,0.0,0.244,0.549,-5.861,-60.667,170.508,-24.693,-11.36,-18.013,26.65,0.09641,0.49939,-0.08484,0.85675,557,0.555,0.275,0.779,1.587,-0.061,-0.427,20.391,-33.964,-148.579,-15.893,-14.927,-6.193,27.85,0.30493,-0.23123,-0.2406,-0.89194,555,0.479,0.403,0.777,1.16,-0.549,0.0,28.306,-28.976,107.759,-11.0,-18.587,-29.453,30.09,-0.50485,-0.33493,-0.04684,-0.79413,553,0.84,0.209,0.469,0.183,-2.38,-0.549,24.648,-58.579,179.813,-26.113,-16.753,-9.02,31.26,-0.10269,0.47708,0.18491,0.85297,559
140,0.883,-0.055,0.495,0.305,0.427,0.488,-5.878,-60.661,170.519,-24.693,-11.36,-18.013,26.65,0.09702,0.49896,-0.08575,0.85684,560,0.556,0.277,0.779,1.77,-0.244,-0.549,20.429,-33.97,-148.596,-15.893,-14.927,-6.193,27.85,0.30493,-0.23123,-0.2406,-0.89194,564,0.479,0.404,0.767,1.526,-1.221,0.0,28.328,-28.987,107.809,-11.0,-18.587,-29.453,30.09,-0.50485,-0.33493,-0.04684,-0.79413,562,0.839,0.207,0.47,0.61,-2.319,-0.854,24.714,-58.612,179.775,-26.113,-16.753,-9.02,31.26,-0.10269,0.47708,0.18491,0.85297,566
141,0.881,-0.056,0.495,0.305,0.244,0.549,-5.889,-60.656,170.535,-24.693,-11.36,-18.013,26.65,0.09702,0.49896,-0.08575,0.85684,561,0.556,0.28,0.775,1.587,-0.122,-0.61,20.462,-33.964,-148.618,-15.893,-14.927,-6.193,27.85,0.30493,-0.23123,-0.2406,-0.89194,565,0.481,0.408,0.762,1.343,-0.183,-0.061,28.356,-29.004,107.842,-11.0,-18.587,-29.453,30.09,-0.50485,-0.33493,-0.04684,-0.79413,563,0.838,0.209,0.461,0.305,-1.77,-0.732,24.769,-58.64,179.736,-26.113,-16.753,-9.02,31.26,-0.10269,0.47708,0.18491,0.85297,567
142,0.883,-0.055,0.496,0.183,-0.305,0.183,-5.9,-60.656,170.546,-24.693,-11.36,-18.013,26.65,0.09702,0.49896,-0.08575,0.85684,572,0.555,0.285,0.771,1.465,-0.244,-0.549,20.49,-33.97,-148.634,-15.893,-14.927,-6.193,27.85,0.30493,-0.23123,-0.2406,-0.89194,570,0.48,0.416,0.764,1.343,0.366,0.0,28.378,-29.004,107.891,-11.0,-18.587,-29.453,30.09,-0.50485,-0.33493,-0.04684,-0.79413,568,0.838,0.212,0.464,0.854,-1.77,-0.916,24.818,-58.667,179.698,-26.113,-16.753,-9.02,31.26,-0.10269,0.47708,0.18491,0.85297,574
143,0.883,-0.054,0.498,0.061,-0.305,-0.122,-5.905,-60.667,170.546,-24.693,-11.36,-18.013,26.65,0.09702,0.49896,-0.08575,0.85684,573,0.554,0.284,0.771,1.709,-0.488,-0.244,20.522,-33.975,-148.64,-15.893,-14.927,-6.193,27.85,0.30493,-0.23123,-0.2406,-0.89194,571,0.478,0.412,0.764,1.221,-0.183,0.183,28.4,-28.998,107.935,-11.0,-18.587,-29.453,30.09,-0.50485,-0.33493,-0.04684,-0.79413,569,0.842,0.216,0.463,1.16,-1.953,-1.099,24.884,-58.689,179.637,-26.113,-16.753,-9.02,31.26,-0.10269,0.47708,0.18491,0.85297,575
144,0.883,-0.052,0.499,0.0,-0.366,-0.305,-5.9,-60.672,170.535,-24.693,-11.36,-18.013,26.65,0.09702,0.49896,-0.08575,0.85684,576,0.558,0.287,0.771,1.282,-0.671,-0.061,20.544,-33.986,-148.634,-15.893,-14.927,-6.193,27.85,0.30493,-0.23123,-0.2406,-0.89194,582,0.48,0.415,0.761,0.916,-0.183,0.183,28.416,-29.004,107.979,-11.053,-18.993,-29.587,30.09,-0.50485,-0.33493,-0.04684,-0.79413,578,0.844,0.218,0.459,1.465,-1.831,-1.038,24.961,-58.716,179.583,-26.113,-16.753,-9.02,31.26,-0.10269,0.47708,0.18491,0.85297,584
145,0.886,-0.05,0.499,0.0,-0.793,-0.244,-5.894,-60.683,170.524,-24.693,-11.36,-18.013,26.65,0.09702,0.49896,-0.08575,0.85684,577,0.56,0.295,0.767,1.038,-0.488,-0.122,20.566,-33.997,-148.629,-15.893,-14.927,-6.193,27.85,0.30493,-0.23123,-0.2406,-0.89194,583,0.482,0.418,0.754,0.977,-0.122,-0.244,28.433,-29.004,108.007,-11.053,-18.993,-29.587,30.09,-0.50485,-0.33493,-0.04684,-0.79413,579,0.848,0.218,0.46,1.465,-2.014,-0.854,25.043,-58.738,179.522,-26.113,-16.753,-9.02,31.26,-0.10269,0.47708,0.18491,0.85297,585
146,0.891,-0.05,0.496,0.061,-1.221,-0.061,-5.894,-60.699,170.53,-24.693,-11.36,-18.013,26.65,0.09702,0.49896,-0.08575,0.85684,580,0.561,0.293,0.771,1.16,-0.244,-0.244,20.588,-34.003,-148.629,-15.893,-14.927,-6.193,27.85,0.30493,-0.23123,-0.2406,-0.89194,588,0.482,0.419,0.759,0.977,0.427,-0.61,28.455,-29.004,108.062,-11.053,-18.993,-29.587,30.09,-0.50134,-0.33618,-0.04999,-0.79562,586,0.852,0.216,0.458,0.916,-2.258,-0.916,25.12,-58.771,179.467,-25.787,-16.52,-9.6,31.26,-0.10269,0.47708,0.18491,0.85297,594
147,0.896,-0.052,0.494,0.183,-1.282,0.0,-5.894,-60.727,170.557,-24.693,-11.36,-18.013,26.65,0.09702,0.49896,-0.08575,0.85684,581,0.565,0.291,0.777,1.038,-0.488,-0.061,20.61,-34.008,-148.623,-15.893,-14.927,-6.193,27.85,0.30493,-0.23123,-0.2406,-0.89194,589,0.486,0.421,0.771,0.61,0.732,0.0,28.471,-28.987,108.111,-11.053,-18.993,-29.587,30.09,-0.50134,-0.33618,-0.04999,-0.79562,587,0.851,0.214,0.453,0.916,-1.953,-1.038,25.192,-58.799,179.407,-25.787,-16.52,-9.6,31.26,-0.10269,0.47708,0.18491,0.85297,595
148,0.897,-0.051,0.493,0.305,-1.099,0.0,-5.894,-60.749,170.579,-24.693,-11.36,-18.013,26.65,0.09702,0.49896,-0.08575,0.85684,590,0.562,0.292,0.773,0.916,-0.793,0.122,20.627,-34.025,-148.612,-15.893,-14.927,-6.193,27.85,0.30493,-0.23123,-0.2406,-0.89194,602,0.484,0.421,0.767,0.549,-0.183,0.366,28.477,-28.982,108.171,-11.053,-18.993,-29.587,30.09,-0.50134,-0.33618,-0.04999,-0.79562,592,0.847,0.215,0.451,1.282,-1.343,-0.977,25.263,-58.826,179.352,-25.787,-16.52,-9.6,31.26,-0.10269,0.47708,0.18491,0.85297,598
149,0.894,-0.051,0.492,0.488,-0.61,0.183,-5.894,-60.76,170.596,-24.693,-11.36,-18.013,26.65,0.09702,0.49896,-0.08575,0.85684,591,0.562,0.293,0.774,0.061,-0.732,0.61,20.632,-34.047,-148.607,-15.893,-14.927,-6.193,27.85,0.30493,-0.23123,-0.2406,-0.89194,603,0.482,0.418,0.755,0.366,-0.61,0.305,28.488,-28.987,108.221,-11.053,-18.993,-29.587,30.09,-0.50134,-0.33618,-0.04999,-0.79562,593,0.847,0.218,0.458,1.16,-1.038,-0.916,25.334,-58.843,179.291,-25.787,-16.52,-9.6,31.26,-0.10269,0.47708,0.18491,0.85297,599
150,0.89,-0.054,0.49,0.366,-0.366,0.183,-5.9,-60.771,170.623,-24.693,-11.36,-18.013,26.65,0.09702,0.49896,-0.08575,0.85684,596,0.561,0.296,0.773,-0.183,-0.366,0.732,20.627,-34.069,-148.59,-16.367,-15.173,-5.733,27.85,0.30493,-0.23123,-0.2406,-0.89194,606,0.482,0.421,0.764,0.0,-0.488,0.366,28.493,-29.004,108.259,-11.053,-18.993,-29.587,30.09,-0.50134,-0.33618,-0.04999,-0.79562,600,0.847,0.223,0.459,0.732,-0.793,-0.61,25.389,-58.854,179.231,-25.787,-16.52,-9.6,31.26,-0.10236,0.4805,0.18811,0.85037,604
151,0.89,-0.055,0.492,0.183,-0.244,0.0,-5.9,-60.776,170.651,-24.693,-11.36,-18.013,26.65,0.09702,0.49896,-0.08575,0.85684,597,0.563,0.297,0.77,-0.183,-0.183,0.732,20.616,-34.08,-148.574,-16.367,-15.173,-5.733,27.85,0.30493,-0.23123,-0.2406,-0.89194,607,0.483,0.424,0.76,-0.305,0.0,0.366,28.493,-29.009,108.276,-11.053,-18.993,-29.587,30.09,-0.50134,-0.33618,-0.04999,-0.79562,601,0.848,0.227,0.458,0.366,-0.671,-0.244,25.428,-58.87,179.176,-25.787,-16.52,-9.6,31.26,-0.10236,0.4805,0.18811,0.85037,605
152,0.892,-0.053,0.493,0.244,-0.244,-0.122,-5.894,-60.782,170.656,-24.693,-11.36,-18.013,26.65,0.09702,0.49896,-0.08575,0.85684,614,0.563,0.294,0.77,0.0,-0.122,0.488,20.605,-34.091,-148.557,-16.367,-15.173,-5.733,27.85,0.30493,-0.23123,-0.2406,-0.89194,612,0.485,0.421,0.761,-0.061,0.183,0.366,28.488,-29.015,108.276,-11.053,-18.993,-29.587,30.09,-0.50134,-0.33618,-0.04999,-0.79562,608,0.849,0.228,0.46,0.427,-0.366,-0.122,25.45,-58.876,179.143,-25.787,-16.52,-9.6,31.26,-0.10236,0.4805,0.18811,0.85037,610
153,0.89,-0.051,0.495,0.366,-0.122,-0.061,-5.889,-60.787,170.684,-24.693,-11.36,-18.013,26.65,0.09702,0.49896,-0.08575,0.85684,615,0.562,0.297,0.772,0.0,0.061,0.244,20.605,-34.096,-148.541,-16.367,-15.173,-5.733,27.85,0.30493,-0.23123,-0.2406,-0.89194,613,0.485,0.419,0.761,0.061,0.122,0.122,28.488,-29.015,108.287,-11.053,-18.993,-29.587,30.09,-0.50134,-0.33618,-0.04999,-0.79562,609,0.848,0.229,0.461,0.305,0.0,-0.122,25.466,-58.881,179.132,-25.787,-16.52,-9.6,31.26,-0.10236,0.4805,0.18811,0.85037,611
154,0.889,-0.049,0.499,0.183,-0.061,-0.061,-5.883,-60.787,170.7,-25.193,-12.38,-17.667,26.65,0.09702,0.49896,-0.08575,0.85684,620,0.562,0.299,0.774,0.061,0.183,0.0,20.605,-34.096,-148.546,-16.367,-15.173,-5.733,27.85,0.30539,-0.23129,-0.24274,-0.89117,618,0.484,0.421,0.762,0.0,0.183,-0.061,28.488,-29.015,108.292,-11.053,-18.993,-29.587,30.09,-0.50134,-0.33618,-0.04999,-0.79562,616,0.846,0.228,0.459,0.0,0.305,0.061,25.477,-58.881,179.127,-25.787,-16.52,-9.6,31.26,-0.10236,0.4805,0.18811,0.85037,622
155,0.891,-0.049,0.5,0.061,-0.305,0.0,-5.883,-60.793,170.722,-25.193,-12.38,-17.667,26.65,0.09702,0.49896,-0.08575,0.85684,621,0.559,0.295,0.774,0.0,0.244,-0.061,20.605,-34.091,-148.563,-16.367,-15.173,-5.733,27.85,0.30539,-0.23129,-0.24274,-0.89117,619,0.483,0.425,0.766,0.0,0.427,-0.427,28.493,-29.009,108.281,-11.053,-18.993,-29.587,30.09,-0.50134,-0.33618,-0.04999,-0.79562,617,0.845,0.225,0.46,-0.183,0.366,0.244,25.472,-58.876,179.138,-25.787,-16.52,-9.6,31.26,-0.10236,0.4805,0.18811,0.85037,623
156,0.892,-0.048,0.498,0.0,-0.244,0.061,-5.883,-60.798,170.76,-25.193,-12.38,-17.667,26.65,0.09702,0.49896,-0.08575,0.85684,624,0.562,0.292,0.774,-0.061,0.183,-0.061,20.61,-34.091,-148.574,-16.367,-15.173,-5.733,27.85,0.30539,-0.23129,-0.24274,-0.89117,634,0.482,0.423,0.768,0.0,0.0,-0.488,28.504,-28.998,108.281,-11.053,-18.993,-29.587,30.09,-0.50134,-0.33618,-0.04999,-0.79562,628,0.844,0.221,0.458,-0.122,0.366,0.183,25.461,-58.87,179.165,-25.787,-16.52,-9.6,31.26,-0.10236,0.4805,0.18811,0.85037,626
157,0.889,-0.049,0.496,0.0,0.0,0.0,-5.883,-60.798,170.782,-25.193,-12.38,-17.667,26.65,0.09702,0.49896,-0.08575,0.85684,625,0.56,0.293,0.772,0.0,0.061,0.0,20.61,-34.085,-148.579,-16.367,-15.173,-5.733,27.85,0.30539,-0.23129,-0.24274,-0.89117,635,0.483,0.418,0.766,-0.488,0.305,-0.244,28.51,-28.993,108.287,-11.053,-18.993,-29.587,30.09,-0.50134,-0.33618,-0.04999,-0.79562,629,0.844,0.22,0.457,0.0,0.305,0.244,25.455,-58.87,179.171,-25.787,-16.52,-9.6,31.26,-0.10236,0.4805,0.18811,0.85037,627
158,0.888,-0.049,0.493,0.0,0.061,0.0,-5.883,-60.798,170.788,-25.193,-12.38,-17.667,26.65,0.09702,0.49896,-0.08575,0.85684,632,0.559,0.293,0.775,0.183,0.061,0.244,20.61,-34.085,-148.585,-16.367,-15.173,-5.733,27.85,0.30539,-0.23129,-0.24274,-0.89117,638,0.481,0.422,0.765,-0.366,0.366,-0.244,28.504,-28.987,108.287,-10.407,-18.96,-29.36,30.09,-0.50134,-0.33618,-0.04999,-0.79562,630,0.846,0.22,0.457,-0.061,0.244,0.122,25.45,-58.865,179.171,-25.787,-16.52,-9.6,31.26,-0.10236,0.4805,0.18811,0.85037,636
159,0.892,-0.049,0.492,-0.122,-0.122,0.0,-5.883,-60.798,170.788,-25.193,-12.38,-17.667,26.65,0.09702,0.49896,-0.08575,0.85684,633,0.56,0.293,0.776,0.183,-0.061,0.549,20.616,-34.091,-148.59,-16.367,-15.173,-5.733,27.85,0.30539,-0.23129,-0.24274,-0.89117,639,0.483,0.424,0.767,-0.183,0.427,0.183,28.499,-28.976,108.265,-10.407,-18.96,-29.36,30.09,-0.50134,-0.33618,-0.04999,-0.79562,631,0.847,0.22,0.457,0.0,-0.061,0.183,25.444,-58.865,179.16,-25.787,-16.52,-9.6,31.26,-0.10236,0.4805,0.18811,0.85037,637
160,0.893,-0.051,0.491,-0.122,-0.061,0.122,-5.889,-60.798,170.793,-25.193,-12.38,-17.667,26.65,0.09503,0.50015,-0.08469,0.85648,640,0.563,0.293,0.775,0.061,-0.122,0.61,20.61,-34.096,-148.59,-16.367,-15.173,-5.733,27.85,0.30539,-0.23129,-0.24274,-0.89117,646,0.482,0.422,0.77,-0.427,0.244,0.793,28.493,-28.971,108.248,-10.407,-18.96,-29.36,30.09,-0.50134,-0.33618,-0.04999,-0.79562,642,0.847,0.221,0.459,0.366,-0.427,0.427,25.45,-58.87,179.138,-25.787,-16.52,-9.6,31.26,-0.10236,0.4805,0.18811,0.85037,644
161,0.892,-0.051,0.491,0.0,0.0,0.244,-5.894,-60.798,170.815,-25.193,-12.38,-17.667,26.65,0.09503,0.50015,-0.08469,0.85648,641,0.562,0.291,0.771,0.061,-0.061,0.671,20.605,-34.102,-148.585,-16.367,-15.173,-5.733,27.85,0.30539,-0.23129,-0.24274,-0.89117,647,0.481,0.42,0.769,-0.671,-0.671,0.793,28.482,-28.982,108.254,-10.407,-18.96,-29.36,30.09,-0.50134,-0.33618,-0.04999,-0.79562,643,0.848,0.216,0.457,0.488,-0.671,0.61,25.45,-58.887,179.127,-25.787,-16.52,-9.6,31.26,-0.10236,0.4805,0.18811,0.85037,645
162,0.893,-0.054,0.493,0.0,0.0,0.366,-5.911,-60.798,170.854,-25.193,-12.38,-17.667,26.65,0.09503,0.50015,-0.08469,0.85648,648,0.563,0.286,0.772,0.244,0.0,0.793,20.605,-34.107,-148.579,-16.367,-15.173,-5.733,27.85,0.30539,-0.23129,-0.24274,-0.89117,652,0.484,0.417,0.764,-0.488,-1.465,0.793,28.471,-29.004,108.248,-10.407,-18.96,-29.36,30.09,-0.50003,-0.33609,-0.0509,-0.79645,650,0.846,0.216,0.458,0.488,-0.732,0.671,25.455,-58.909,179.11,-25.787,-16.52,-9.6,31.26,-0.10236,0.4805,0.18811,0.85037,658
163,0.892,-0.055,0.494,0.061,-0.122,0.305,-5.922,-60.804,170.892,-25.193,-12.38,-17.667,26.65,0.09503,0.50015,-0.08469,0.85648,649,0.56,0.286,0.771,0.549,0.305,0.793,20.599,-34.113,-148.568,-16.367,-15.173,-5.733,27.85,0.30539,-0.23129,-0.24274,-0.89117,653,0.483,0.412,0.76,-0.305,-1.465,0.854,28.466,-29.031,108.226,-10.407,-18.96,-29.36,30.09,-0.50003,-0.33609,-0.0509,-0.79645,651,0.844,0.217,0.458,0.732,-0.549,0.549,25.461,-58.925,179.105,-25.787,-16.52,-9.6,31.26,-0.10236,0.4805,0.18811,0.85037,659
164,0.888,-0.054,0.494,0.244,0.0,0.244,-5.927,-60.804,170.92,-25.193,-12.38,-17.667,26.65,0.09503,0.50015,-0.08469,0.85648,654,0.558,0.288,0.771,0.61,0.549,0.793,20.599,-34.113,-148.541,-16.367,-15.173,-5.733,27.85,0.30539,-0.23129,-0.24274,-0.89117,656,0.481,0.412,0.76,-0.305,-0.122,0.793,28.46,-29.059,108.248,-10.407,-18.96,-29.36,30.09,-0.50003,-0.33609,-0.0509,-0.79645,660,0.843,0.217,0.458,0.916,-0.549,0.427,25.472,-58.942,179.099,-26.053,-16.967,-9.753,31.26,-0.10236,0.4805,0.18811,0.85037,664
165,0.886,-0.052,0.496,0.366,0.0,0.427,-5.933,-60.804,170.931,-25.193,-12.38,-17.667,26.65,0.09503,0.50015,-0.08469,0.85648,655,0.56,0.291,0.771,0.244,0.488,0.793,20.599,-34.107,-148.519,-16.367,-15.173,-5.733,27.85,0.30539,-0.23129,-0.24274,-0.89117,657,0.479,0.414,0.761,-0.488,0.854,0.61,28.449,-29.064,108.303,-10.407,-18.96,-29.36,30.09,-0.50003,-0.33609,-0.0509,-0.79645,661,0.846,0.218,0.456,0.671,-0.305,0.488,25.483,-58.953,179.11,-26.053,-16.967,-9.753,31.26,-0.10236,0.4805,0.18811,0.85037,665
166,0.888,-0.051,0.496,0.366,-0.122,0.366,-5.944,-60.804,170.936,-25.193,-12.38,-17.667,26.65,0.09503,0.50015,-0.08469,0.85648,662,0.563,0.289,0.772,-0.366,0.183,0.732,20.588,-34.107,-148.491,-16.367,-15.173,-5.733,27.85,0.30539,-0.23129,-0.24274,-0.89117,668,0.48,0.414,0.764,-0.549,0.854,0.244,28.433,-29.053,108.358,-10.407,-18.96,-29.36,30.09,-0.50003,-0.33609,-0.0509,-0.79645,666,0.849,0.22,0.454,0.183,0.0,0.549,25.477,-58.958,179.132,-26.053,-16.967,-9.753,31.26,-0.10236,0.4805,0.18811,0.85037,672
167,0.89,-0.052,0.495,0.366,-0.183,0.305,-5.949,-60.809,170.931,-25.193,-12.38,-17.667,26.65,0.09503,0.50015,-0.08469,0.85648,663,0.565,0.287,0.774,-0.671,0.0,0.488,20.572,-34.113,-148.475,-16.367,-15.173,-5.733,27.85,0.30539,-0.23129,-0.24274,-0.89117,669,0.482,0.414,0.766,-0.671,0.183,0.122,28.416,-29.042,108.38,-10.407,-18.96,-29.36,30.09,-0.50003,-0.33609,-0.0509,-0.79645,667,0.851,0.221,0.457,0.0,0.061,0.488,25.466,-58.964,179.127,-26.053,-16.967,-9.753,31.26,-0.10236,0.4805,0.18811,0.85037,673
168,0.891,-0.052,0.493,0.305,0.0,0.244,-5.949,-60.809,170.931,-25.193,-12.38,-17.667,26.65,0.09503,0.50015,-0.08469,0.85648,670,0.565,0.288,0.773,-0.854,-0.061,0.366,20.55,-34.118,-148.469,-16.367,-15.173,-5.733,27.85,0.30539,-0.23129,-0.24274,-0.89117,678,0.483,0.413,0.766,-0.977,0.061,0.305,28.4,-29.042,108.38,-10.407,-18.96,-29.36,30.09,-0.50003,-0.33609,-0.0509,-0.79645,674,0.851,0.221,0.458,0.0,0.427,0.366,25.45,-58.964,179.127,-26.053,-16.967,-9.753,31.26,-0.10199,0.48151,0.18817,0.84985,676
169,0.892,-0.052,0.494,0.183,0.122,0.183,-5.955,-60.804,170.936,-25.193,-12.38,-17.667,26.65,0.09503,0.50015,-0.08469,0.85648,671,0.568,0.288,0.774,-1.282,-0.061,0.061,20.528,-34.124,-148.469,-16.367,-15.173,-5.733,27.85,0.30539,-0.23129,-0.24274,-0.89117,679,0.484,0.414,0.766,-1.038,0.0,0.366,28.378,-29.048,108.364,-10.407,-18.96,-29.36,30.09,-0.50003,-0.33609,-0.0509,-0.79645,675,0.854,0.221,0.456,-0.427,0.732,0.366,25.428,-58.958,179.121,-26.053,-16.967,-9.753,31.26,-0.10199,0.48151,0.18817,0.84985,677
170,0.893,-0.052,0.493,0.0,0.0,0.061,-5.96,-60.804,170.931,-25.193,-12.38,-17.667,26.65,0.09503,0.50015,-0.08469,0.85648,680,0.566,0.282,0.777,-1.587,0.061,-0.488,20.5,-34.124,-148.48,-16.447,-15.233,-6.08,27.85,0.30539,-0.23129,-0.24274,-0.89117,684,0.487,0.41,0.768,-0.977,-0.122,0.122,28.356,-29.048,108.353,-10.407,-18.96,-29.36,30.09,-0.50003,-0.33609,-0.0509,-0.79645,682,0.853,0.221,0.458,-0.854,0.916,0.305,25.4,-58.953,179.132,-26.053,-16.967,-9.753,31.26,-0.10199,0.48151,0.18817,0.84985,688
171,0.895,-0.051,0.492,-0.122,0.0,0.0,-5.96,-60.804,170.92,-25.193,-12.38,-17.667,26.65,0.09503,0.50015,-0.08469,0.85648,681,0.562,0.279,0.779,-1.282,0.366,-1.038,20.479,-34.118,-148.497,-16.447,-15.233,-6.08,27.85,0.30539,-0.23129,-0.24274,-0.89117,685,0.488,0.405,0.771,-0.916,-0.305,0.0,28.339,-29.053,108.336,-10.407,-18.96,-29.36,30.09,-0.50003,-0.33609,-0.0509,-0.79645,683,0.847,0.215,0.458,-0.977,0.916,0.061,25.367,-58.936,179.116,-26.053,-16.967,-9.753,31.26,-0.10199,0.48151,0.18817,0.84985,689
172,0.895,-0.052,0.492,-0.183,0.0,0.0,-5.966,-60.809,170.909,-25.193,-12.38,-17.667,26.65,0.09503,0.50015,-0.08469,0.85648,686,0.56,0.279,0.775,-1.221,0.427,-0.977,20.462,-34.107,-148.53,-16.447,-15.233,-6.08,27.85,0.30539,-0.23129,-0.24274,-0.89117,692,0.484,0.404,0.77,-0.916,-0.305,-0.061,28.323,-29.059,108.336,-10.407,-18.96,-29.36,30.09,-0.50003,-0.33609,-0.0509,-0.79645,690,0.844,0.209,0.46,-0.549,0.61,-0.244,25.345,-58.925,179.094,-26.053,-16.967,-9.753,31.26,-0.10199,0.48151,0.18817,0.84985,696
173,0.894,-0.052,0.493,-0.122,0.061,-0.061,-5.966,-60.809,170.876,-25.193,-12.38,-17.667,26.65,0.09503,0.50015,-0.08469,0.85648,687,0.559,0.281,0.773,-1.16,0.183,-0.671,20.44,-34.096,-148.546,-16.447,-15.233,-6.08,27.85,0.30539,-0.23129,-0.24274,-0.89117,693,0.484,0.406,0.768,-0.854,-0.488,-0.244,28.306,-29.064,108.342,-10.407,-18.96,-29.36,30.09,-0.50003,-0.33609,-0.0509,-0.79645,691,0.844,0.209,0.458,-0.061,0.488,-0.366,25.34,-58.914,179.083,-26.053,-16.967,-9.753,31.26,-0.10199,0.48151,0.18817,0.84985,697
174,0.89,-0.054,0.493,-0.183,0.183,-0.061,-5.966,-60.804,170.859,-25.193,-12.38,-17.667,26.65,0.09503,0.50015,-0.08469,0.85648,694,0.555,0.279,0.776,-0.732,0.061,-0.427,20.424,-34.091,-148.563,-16.447,-15.233,-6.08,27.85,0.30508,-0.23172,-0.24152,-0.89151,698,0.48,0.409,0.768,-0.61,-0.671,-0.366,28.295,-29.07,108.342,-10.973,-18.787,-29.587,30.09,-0.50003,-0.33609,-0.0509,-0.79645,702,0.841,0.21,0.46,0.305,0.244,-0.488,25.351,-58.909,179.066,-26.053,-16.967,-9.753,31.26,-0.10199,0.48151,0.18817,0.84985,700
175,0.886,-0.055,0.493,-0.122,0.305,-0.122,-5.966,-60.804,170.843,-25.193,-12.38,-17.667,26.65,0.09503,0.50015,-0.08469,0.85648,695,0.555,0.284,0.776,-0.671,0.244,-0.183,20.413,-34.091,-148.574,-16.447,-15.233,-6.08,27.85,0.30508,-0.23172,-0.24152,-0.89151,699,0.476,0.408,0.766,-0.671,-0.305,0.0,28.284,-29.081,108.325,-10.973,-18.787,-29.587,30.09,-0.50003,-0.33609,-0.0509,-0.79645,703,0.841,0.215,0.462,0.366,0.122,-0.488,25.362,-58.903,179.05,-26.053,-16.967,-9.753,31.26,-0.10199,0.48151,0.18817,0.84985,701
176,0.882,-0.057,0.494,-0.061,0.305,-0.244,-5.96,-60.798,170.837,-25.187,-12.407,-18.427,26.65,0.09503,0.50015,-0.08469,0.85648,710,0.556,0.289,0.776,-0.183,0.488,-0.061,20.396,-34.085,-148.574,-16.447,-15.233,-6.08,27.85,0.30508,-0.23172,-0.24152,-0.89151,706,0.479,0.411,0.765,-0.427,0.122,0.0,28.273,-29.081,108.336,-10.973,-18.787,-29.587,30.09,-0.50003,-0.33609,-0.0509,-0.79645,704,0.844,0.22,0.462,0.671,0.0,-0.305,25.384,-58.903,179.017,-26.053,-16.967,-9.753,31.26,-0.10199,0.48151,0.18817,0.84985,708
177,0.886,-0.055,0.495,0.061,0.122,-0.183,-5.955,-60.798,170.837,-25.187,-12.407,-18.427,26.65,0.09503,0.50015,-0.08469,0.85648,711,0.559,0.289,0.78,0.427,0.061,-0.061,20.391,-34.074,-148.568,-16.447,-15.233,-6.08,27.85,0.30508,-0.23172,-0.24152,-0.89151,707,0.479,0.414,0.77,0.061,0.244,-0.244,28.268,-29.075,108.336,-10.973,-18.787,-29.587,30.09,-0.50003,-0.33609,-0.0509,-0.79645,705,0.846,0.222,0.465,0.793,-0.061,-0.244,25.4,-58.898,178.978,-26.053,-16.967,-9.753,31.26,-0.10199,0.48151,0.18817,0.84985,709
178,0.889,-0.053,0.497,0.305,0.0,-0.122,-5.949,-60.798,170.832,-25.187,-12.407,-18.427,26.65,0.09497,0.50012,-0.08499,0.85648,712,0.559,0.289,0.784,0.427,-0.122,0.122,20.396,-34.074,-148.568,-16.447,-15.233,-6.08,27.85,0.30508,-0.23172,-0.24152,-0.89151,716,0.48,0.418,0.774,0.671,0.183,-0.183,28.273,-29.07,108.314,-10.973,-18.787,-29.587,30.09,-0.49973,-0.33575,-0.04913,-0.79688,714,0.848,0.219,0.463,0.793,-0.305,-0.366,25.428,-58.903,178.951,-26.053,-16.967,-9.753,31.26,-0.10199,0.48151,0.18817,0.84985,718
179,0.89,-0.052,0.498,0.305,0.0,-0.122,-5.944,-60.793,170.821,-25.187,-12.407,-18.427,26.65,0.09497,0.50012,-0.08499,0.85648,713,0.559,0.291,0.784,0.122,-0.427,0.244,20.402,-34.08,-148.557,-16.447,-15.233,-6.08,27.85,0.30508,-0.23172,-0.24152,-0.89151,717,0.48,0.418,0.778,0.61,0.0,0.244,28.284,-29.064,108.287,-10.973,-18.787,-29.587,30.09,-0.49973,-0.33575,-0.04913,-0.79688,715,0.845,0.22,0.461,0.488,-0.366,-0.305,25.45,-58.903,178.934,-26.053,-16.967,-9.753,31.26,-0.10199,0.48151,0.18817,0.84985,719
180,0.888,-0.05,0.497,0.122,0.0,-0.122,-5.938,-60.793,170.81,-25.187,-12.407,-18.427,26.65,0.09497,0.50012,-0.08499,0.85648,720,0.559,0.291,0.779,0.122,-0.671,0.427,20.402,-34.091,-148.53,-16.447,-15.233,-6.08,27.85,0.30508,-0.23172,-0.24152,-0.89151,724,0.481,0.418,0.775,0.183,-0.061,0.305,28.29,-29.064,108.243,-10.973,-18.787,-29.587,30.09,-0.49973,-0.33575,-0.04913,-0.79688,722,0.844,0.22,0.461,0.549,-0.549,-0.122,25.472,-58.914,178.929,-26.053,-16.967,-9.753,31.26,-0.10199,0.48151,0.18817,0.84985,728
181,0.89,-0.05,0.496,0.061,-0.305,-0.122,-5.933,-60.798,170.793,-25.187,-12.407,-18.427,26.65,0.09497,0.50012,-0.08499,0.85648,721,0.561,0.287,0.776,0.366,-0.977,0.671,20.402,-34.107,-148.508,-16.447,-15.233,-6.08,27.85,0.30508,-0.23172,-0.24152,-0.89151,725,0.481,0.418,0.772,0.0,0.0,0.427,28.29,-29.064,108.204,-10.973,-18.787,-29.587,30.09,-0.49973,-0.33575,-0.04913,-0.79688,723,0.845,0.219,0.458,0.366,-0.61,-0.122,25.494,-58.92,178.923,-26.053,-16.967,-9.753,31.26,-0.10199,0.48151,0.18817,0.84985,729
182,0.89,-0.051,0.494,0.0,-0.366,-0.122,-5.933,-60.809,170.788,-25.187,-12.407,-18.427,26.65,0.09497,0.50012,-0.08499,0.85648,726,0.562,0.284,0.773,0.427,-0.977,0.732,20.402,-34.129,-148.486,-16.447,-15.233,-6.08,27.85,0.30508,-0.23172,-0.24152,-0.89151,734,0.483,0.415,0.769,0.0,0.061,0.793,28.279,-29.064,108.182,-10.973,-18.787,-29.587,30.09,-0.49973,-0.33575,-0.04913,-0.79688,730,0.847,0.22,0.456,0.061,-0.61,-0.244,25.51,-58.931,178.918,-26.067,-16.84,-9.527,31.26,-0.10199,0.48151,0.18817,0.84985,736
183,0.891,-0.05,0.492,0.0,-0.366,-0.183,-5.927,-60.815,170.777,-25.187,-12.407,-18.427,26.65,0.09497,0.50012,-0.08499,0.85648,727,0.562,0.284,0.774,0.488,-0.916,0.488,20.407,-34.151,-148.475,-16.447,-15.233,-6.08,27.85,0.30508,-0.23172,-0.24152,-0.89151,735,0.484,0.409,0.766,0.0,0.183,0.916,28.273,-29.07,108.166,-10.973,-18.787,-29.587,30.09,-0.49973,-0.33575,-0.04913,-0.79688,731,0.847,0.222,0.457,0.0,-0.671,-0.305,25.527,-58.942,178.885,-26.067,-16.84,-9.527,31.26,-0.10199,0.48151,0.18817,0.84985,737
184,0.892,-0.05,0.492,0.0,-0.183,-0.122,-5.927,-60.82,170.782,-25.187,-12.407,-18.427,26.65,0.09497,0.50012,-0.08499,0.85648,732,0.567,0.284,0.773,0.61,-1.038,0.122,20.418,-34.173,-148.475,-16.447,-15.233,-6.08,27.85,0.30508,-0.23172,-0.24152,-0.89151,738,0.486,0.409,0.767,0.122,0.366,0.732,28.262,-29.07,108.166,-10.973,-18.787,-29.587,30.09,-0.49973,-0.33575,-0.04913,-0.79688,740,0.85,0.223,0.456,0.183,-0.671,-0.488,25.554,-58.947,178.852,-26.067,-16.84,-9.527,31.26,-0.10199,0.48151,0.18817,0.84985,744
185,0.893,-0.05,0.493,0.061,-0.183,0.0,-5.927,-60.82,170.804,-25.187,-12.407,-18.427,26.65,0.09497,0.50012,-0.08499,0.85648,733,0.569,0.286,0.771,0.183,-1.038,-0.183,20.429,-34.189,-148.475,-16.447,-15.233,-6.08,27.85,0.30508,-0.23172,-0.24152,-0.89151,739,0.486,0.409,0.768,0.305,0.488,0.671,28.257,-29.064,108.182,-10.973,-18.787,-29.587,30.09,-0.49973,-0.33575,-0.04913,-0.79688,741,0.852,0.221,0.457,0.183,-0.549,-0.549,25.582,-58.953,178.808,-26.067,-16.84,-9.527,31.26,-0.10199,0.48151,0.18817,0.84985,745
186,0.893,-0.051,0.493,0.061,-0.122,0.0,-5.922,-60.826,170.815,-25.187,-12.407,-18.427,26.65,0.09497,0.50012,-0.08499,0.85648,742,0.567,0.291,0.771,-0.183,-0.854,-0.244,20.435,-34.206,-148.48,-16.447,-15.233,-6.08,27.85,0.30508,-0.23172,-0.24152,-0.89151,748,0.488,0.412,0.764,0.061,0.122,0.671,28.251,-29.064,108.215,-10.973,-18.787,-29.587,30.09,-0.49973,-0.33575,-0.04913,-0.79688,746,0.849,0.22,0.455,0.061,-0.244,-0.427,25.604,-58.958,178.786,-26.067,-16.84,-9.527,31.26,-0.10199,0.48151,0.18817,0.84985,752
187,0.893,-0.053,0.493,0.061,0.0,0.061,-5.927,-60.826,170.81,-25.187,-12.407,-18.427,26.65,0.09497,0.50012,-0.08499,0.85648,743,0.565,0.29,0.771,-0.427,-0.671,-0.183,20.429,-34.217,-148.491,-16.447,-15.233,-6.08,27.85,0.30508,-0.23172,-0.24152,-0.89151,749,0.484,0.416,0.761,0.0,0.0,0.427,28.246,-29.07,108.254,-10.973,-18.787,-29.587,30.09,-0.49973,-0.33575,-0.04913,-0.79688,747,0.849,0.22,0.454,-0.122,-0.061,-0.366,25.615,-58.958,178.759,-26.067,-16.84,-9.527,31.26,-0.10199,0.48151,0.18817,0.84985,753
188,0.892,-0.054,0.494,0.0,0.0,0.0,-5.927,-60.826,170.793,-25.187,-12.407,-18.427,26.65,0.09497,0.50012,-0.08499,0.85648,750,0.565,0.288,0.77,-0.977,-0.244,-0.366,20.424,-34.228,-148.508,-16.533,-15.673,-5.793,27.85,0.30508,-0.23172,-0.24152,-0.89151,754,0.483,0.413,0.761,-0.305,-0.061,0.305,28.24,-29.075,108.276,-10.973,-18.787,-29.587,30.09,-0.49973,-0.33575,-0.04913,-0.79688,758,0.847,0.223,0.454,-0.061,0.061,-0.305,25.626,-58.958,178.742,-26.067,-16.84,-9.527,31.26,-0.09982,0.4819,0.18777,0.84995,756
189,0.891,-0.053,0.492,0.061,0.061,-0.061,-5.922,-60.826,170.788,-25.187,-12.407,-18.427,26.65,0.09497,0.50012,-0.08499,0.85648,751,0.564,0.291,0.77,-1.16,0.061,-0.549,20.407,-34.228,-148.524,-16.533,-15.673,-5.793,27.85,0.30508,-0.23172,-0.24152,-0.89151,755,0.484,0.412,0.761,-0.732,-0.366,0.0,28.235,-29.081,108.303,-10.973,-18.787,-29.587,30.09,-0.49973,-0.33575,-0.04913,-0.79688,759,0.848,0.225,0.456,-0.061,0.244,-0.305,25.631,-58.953,178.731,-26.067,-16.84,-9.527,31.26,-0.09982,0.4819,0.18777,0.84995,757
190,0.891,-0.051,0.494,0.122,0.244,-0.061,-5.916,-60.82,170.777,-25.187,-12.407,-18.427,26.65,0.09497,0.50012,-0.08499,0.85648,760,0.562,0.289,0.773,-1.16,0.244,-0.427,20.391,-34.222,-148.541,-16.533,-15.673,-5.793,27.85,0.30508,-0.23172,-0.24152,-0.89151,764,0.483,0.416,0.761,-0.732,-0.732,-0.244,28.224,-29.086,108.309,-10.873,-18.833,-29.393,30.09,-0.49973,-0.33575,-0.04913,-0.79688,762,0.847,0.223,0.457,-0.122,0.183,-0.366,25.642,-58.947,178.731,-26.067,-16.84,-9.527,31.26,-0.09982,0.4819,0.18777,0.84995,766
191,0.892,-0.05,0.494,0.122,0.183,0.0,-5.916,-60.82,170.771,-25.187,-12.407,-18.427,26.65,0.09497,0.50012,-0.08499,0.85648,761,0.562,0.286,0.775,-1.221,0.183,-0.366,20.369,-34.217,-148.552,-16.533,-15.673,-5.793,27.85,0.30508,-0.23172,-0.24152,-0.89151,765,0.483,0.416,0.766,-0.854,-0.793,-0.122,28.218,-29.097,108.303,-10.873,-18.833,-29.393,30.09,-0.49973,-0.33575,-0.04913,-0.79688,763,0.847,0.221,0.457,-0.305,0.244,-0.305,25.648,-58.942,178.737,-26.067,-16.84,-9.527,31.26,-0.09982,0.4819,0.18777,0.84995,767
192,0.891,-0.05,0.493,0.122,0.305,0.0,-5.911,-60.815,170.771,-24.907,-12.367,-17.94,26.65,0.09497,0.50012,-0.08499,0.85648,768,0.561,0.288,0.778,-1.282,0.122,-0.305,20.352,-34.217,-148.563,-16.533,-15.673,-5.793,27.85,0.30496,-0.23291,-0.24115,-0.89133,776,0.483,0.413,0.769,-1.038,-0.732,-0.061,28.202,-29.114,108.259,-10.873,-18.833,-29.393,30.09,-0.49973,-0.33575,-0.04913,-0.79688,770,0.845,0.221,0.459,-0.61,0.183,-0.183,25.642,-58.936,178.753,-26.067,-16.84,-9.527,31.26,-0.09982,0.4819,0.18777,0.84995,772
193,0.889,-0.052,0.493,0.0,0.366,0.0,-5.911,-60.809,170.771,-24.907,-12.367,-17.94,26.65,0.09497,0.50012,-0.08499,0.85648,769,0.561,0.286,0.775,-1.099,-0.061,-0.305,20.33,-34.211,-148.563,-16.533,-15.673,-5.793,27.85,0.30496,-0.23291,-0.24115,-0.89133,777,0.482,0.415,0.772,-1.038,-0.549,-0.183,28.191,-29.119,108.237,-10.873,-18.833,-29.393,30.09,-0.49973,-0.33575,-0.04913,-0.79688,771,0.844,0.222,0.46,-0.549,0.061,0.0,25.631,-58.936,178.781,-26.067,-16.84,-9.527,31.26,-0.09982,0.4819,0.18777,0.84995,773
194,0.889,-0.053,0.493,0.0,0.305,0.0,-5.911,-60.804,170.755,-24.907,-12.367,-17.94,26.65,0.09497,0.50012,-0.08499,0.85648,774,0.561,0.286,0.776,-0.671,-0.244,-0.244,20.319,-34.217,-148.563,-16.533,-15.673,-5.793,27.85,0.30496,-0.23291,-0.24115,-0.89133,782,0.481,0.413,0.771,-0.916,-0.854,-0.183,28.18,-29.13,108.204,-10.873,-18.833,-29.393,30.09,-0.50055,-0.33572,-0.04807,-0.79645,780,0.845,0.222,0.459,-0.427,0.061,-0.061,25.626,-58.936,178.808,-26.067,-16.84,-9.527,31.26,-0.09982,0.4819,0.18777,0.84995,778
195,0.887,-0.053,0.494,-0.061,0.305,0.0,-5.916,-60.798,170.722,-24.907,-12.367,-17.94,26.65,0.09497,0.50012,-0.08499,0.85648,775,0.561,0.286,0.778,-0.61,-0.183,-0.183,20.308,-34.217,-148.557,-16.533,-15.673,-5.793,27.85,0.30496,-0.23291,-0.24115,-0.89133,783,0.481,0.412,0.769,-0.488,-0.916,-0.122,28.174,-29.141,108.177,-10.873,-18.833,-29.393,30.09,-0.50055,-0.33572,-0.04807,-0.79645,781,0.845,0.221,0.458,-0.305,0.061,-0.122,25.626,-58.936,178.819,-26.067,-16.84,-9.527,31.26,-0.09982,0.4819,0.18777,0.84995,779
196,0.888,-0.051,0.495,0.0,0.183,0.0,-5.916,-60.793,170.711,-24.907,-12.367,-17.94,26.65,0.09555,0.50012,-0.08514,0.85638,788,0.561,0.284,0.777,-0.488,-0.061,-0.244,20.303,-34.217,-148.568,-16.533,-15.673,-5.793,27.85,0.30496,-0.23291,-0.24115,-0.89133,786,0.483,0.412,0.769,-0.366,-0.671,-0.061,28.169,-29.152,108.166,-10.873,-18.833,-29.393,30.09,-0.50055,-0.33572,-0.04807,-0.79645,784,0.845,0.222,0.46,-0.244,0.061,-0.061,25.626,-58.931,178.846,-26.067,-16.84,-9.527,31.26,-0.09982,0.4819,0.18777,0.84995,790
197,0.889,-0.049,0.497,0.0,0.183,0.0,-5.916,-60.793,170.7,-24.907,-12.367,-17.94,26.65,0.09555,0.50012,-0.08514,0.85638,789,0.562,0.283,0.775,-0.183,0.0,-0.183,20.297,-34.217,-148.579,-16.533,-15.673,-5.793,27.85,0.30496,-0.23291,-0.24115,-0.89133,787,0.484,0.41,0.769,-0.305,-0.427,-0.061,28.169,-29.163,108.155,-10.873,-18.833,-29.393,30.09,-0.50055,-0.33572,-0.04807,-0.79645,785,0.845,0.221,0.462,-0.061,0.0,-0.122,25.626,-58.931,178.841,-26.067,-16.84,-9.527,31.26,-0.09982,0.4819,0.18777,0.84995,791
198,0.888,-0.05,0.496,0.061,0.061,0.0,-5.911,-60.793,170.695,-24.907,-12.367,-17.94,26.65,0.09555,0.50012,-0.08514,0.85638,792,0.562,0.286,0.776,0.0,-0.061,0.0,20.297,-34.217,-148.59,-16.533,-15.673,-5.793,27.85,0.30496,-0.23291,-0.24115,-0.89133,796,0.484,0.412,0.768,-0.122,-0.427,0.0,28.169,-29.169,108.133,-10.873,-18.833,-29.393,30.09,-0.50055,-0.33572,-0.04807,-0.79645,794,0.845,0.219,0.461,0.0,-0.122,-0.122,25.631,-58.931,178.813,-26.067,-16.84,-9.527,31.26,-0.09982,0.4819,0.18777,0.84995,798
199,0.887,-0.051,0.496,0.0,0.061,0.0,-5.911,-60.787,170.689,-24.907,-12.367,-17.94,26.65,0.09555,0.50012,-0.08514,0.85638,793,0.562,0.287,0.777,0.122,-0.244,0.183,20.297,-34.222,-148.596,-16.533,-15.673,-5.793,27.85,0.30496,-0.23291,-0.24115,-0.89133,797,0.483,0.414,0.77,0.122,-0.366,0.061,28.169,-29.169,108.127,-10.873,-18.833,-29.393,30.09,-0.50055,-0.33572,-0.04807,-0.79645,795,0.847,0.221,0.459,0.0,-0.244,-0.061,25.637,-58.936,178.786,-26.067,-16.84,-9.527,31.26,-0.09982,0.4819,0.18777,0.84995,799
200,0.888,-0.052,0.496,0.0,0.0,0.0,-5.911,-60.787,170.684,-24.907,-12.367,-17.94,26.65,0.09555,0.50012,-0.08514,0.85638,800,0.564,0.285,0.776,0.305,-0.305,0.122,20.303,-34.228,-148.596,-16.533,-15.673,-5.793,27.85,0.30496,-0.23291,-0.24115,-0.89133,804,0.484,0.413,0.771,0.183,-0.305,0.244,28.174,-29.174,108.144,-10.873,-18.833,-29.393,30.09,-0.50055,-0.33572,-0.04807,-0.79645,802,0.847,0.223,0.458,0.0,-0.305,0.0,25.642,-58.942,178.77,-26.067,-16.84,-9.527,31.26,-0.09982,0.4819,0.18777,0.84995,808
201,0.891,-0.052,0.495,0.0,-0.061,0.0,-5.911,-60.787,170.678,-24.907,-12.367,-17.94,26.65,0.09555,0.50012,-0.08514,0.85638,801,0.563,0.284,0.775,0.549,-0.122,0.061,20.308,-34.228,-148.596,-16.533,-15.673,-5.793,27.85,0.30496,-0.23291,-0.24115,-0.89133,805,0.485,0.409,0.768,0.244,-0.244,0.305,28.18,-29.18,108.188,-10.873,-18.833,-29.393,30.09,-0.50055,-0.33572,-0.04807,-0.79645,803,0.846,0.221,0.459,0.122,-0.244,-0.183,25.659,-58.942,178.748,-26.067,-16.84,-9.527,31.26,-0.09982,0.4819,0.18777,0.84995,809
202,0.891,-0.051,0.494,0.122,-0.061,0.0,-5.911,-60.787,170.673,-24.907,-12.367,-17.94,26.65,0.09555,0.50012,-0.08514,0.85638,806,0.563,0.285,0.775,0.488,-0.122,0.183,20.314,-34.233,-148.596,-16.533,-15.673,-5.793,27.85,0.30496,-0.23291,-0.24115,-0.89133,810,0.483,0.411,0.766,0.366,-0.122,0.305,28.18,-29.185,108.199,-10.873,-18.833,-29.393,30.09,-0.50055,-0.33572,-0.04807,-0.79645,812,0.846,0.22,0.457,0.305,-0.244,-0.183,25.675,-58.947,178.726,-25.953,-16.867,-9.873,31.26,-0.09982,0.4819,0.18777,0.84995,820
203,0.89,-0.049,0.494,0.183,-0.061,0.0,-5.911,-60.793,170.667,-24.907,-12.367,-17.94,26.65,0.09555,0.50012,-0.08514,0.85638,807,0.567,0.286,0.773,0.244,-0.244,0.183,20.319,-34.239,-148.585,-16.533,-15.673,-5.793,27.85,0.30496,-0.23291,-0.24115,-0.89133,811,0.487,0.412,0.768,0.305,0.061,0.366,28.185,-29.185,108.232,-10.873,-18.833,-29.393,30.09,-0.50055,-0.33572,-0.04807,-0.79645,813,0.849,0.221,0.456,0.122,-0.305,-0.122,25.686,-58.953,178.704,-25.953,-16.867,-9.873,31.26,-0.09982,0.4819,0.18777,0.84995,821
204,0.889,-0.051,0.493,0.122,-0.122,0.0,-5.905,-60.793,170.662,-24.907,-12.367,-17.94,26.65,0.09555,0.50012,-0.08514,0.85638,814,0.566,0.287,0.772,0.244,-0.244,0.0,20.325,-34.244,-148.563,-16.533,-15.673,-5.793,27.85,0.30496,-0.23291,-0.24115,-0.89133,818,0.487,0.412,0.766,0.183,-0.061,0.305,28.185,-29.191,108.243,-10.873,-18.833,-29.393,30.09,-0.50055,-0.33572,-0.04807,-0.79645,816,0.85,0.224,0.456,-0.122,-0.122,0.0,25.686,-58.953,178.693,-25.953,-16.867,-9.873,31.26,-0.09967,0.48193,0.18802,0.84991,822
205,0.893,-0.052,0.494,0.0,0.0,0.0,-5.905,-60.793,170.656,-24.907,-12.367,-17.94,26.65,0.09555,0.50012,-0.08514,0.85638,815,0.563,0.282,0.774,0.244,-0.061,0.0,20.33,-34.244,-148.541,-16.533,-15.673,-5.793,27.85,0.30496,-0.23291,-0.24115,-0.89133,819,0.486,0.411,0.766,0.183,-0.366,0.061,28.191,-29.191,108.232,-10.873,-18.833,-29.393,30.09,-0.50055,-0.33572,-0.04807,-0.79645,817,0.847,0.22,0.457,0.061,-0.061,-0.183,25.692,-58.953,178.671,-25.953,-16.867,-9.873,31.26,-0.09967,0.48193,0.18802,0.84991,823
206,0.893,-0.052,0.494,0.0,-0.061,0.0,-5.905,-60.793,170.651,-24.907,-12.367,-17.94,26.65,0.09555,0.50012,-0.08514,0.85638,826,0.566,0.286,0.771,0.061,0.0,0.0,20.33,-34.25,-148.524,-16.6,-14.607,-6.013,27.85,0.30496,-0.23291,-0.24115,-0.89133,830,0.485,0.409,0.764,-0.061,-0.244,0.183,28.191,-29.196,108.243,-11.073,-18.253,-29.06,30.09,-0.50055,-0.33572,-0.04807,-0.79645,824,0.848,0.22,0.456,0.0,-0.061,-0.244,25.703,-58.953,178.654,-25.953,-16.867,-9.873,31.26,-0.09967,0.48193,0.18802,0.84991,832
207,0.89,-0.052,0.493,0.0,0.0,0.0,-5.905,-60.793,170.645,-24.907,-12.367,-17.94,26.65,0.09555,0.50012,-0.08514,0.85638,827,0.565,0.29,0.772,0.061,0.122,-0.061,20.33,-34.25,-148.513,-16.6,-14.607,-6.013,27.85,0.30496,-0.23291,-0.24115,-0.89133,831,0.486,0.412,0.762,0.0,-0.183,0.0,28.191,-29.202,108.27,-11.073,-18.253,-29.06,30.09,-0.50055,-0.33572,-0.04807,-0.79645,825,0.848,0.224,0.456,0.122,0.061,-0.122,25.708,-58.953,178.638,-25.953,-16.867,-9.873,31.26,-0.09967,0.48193,0.18802,0.84991,833
208,0.889,-0.052,0.494,0.0,0.183,0.0,-5.905,-60.793,170.634,-25.347,-12.213,-17.727,26.65,0.09555,0.50012,-0.08514,0.85638,828,0.563,0.289,0.775,0.244,0.183,-0.061,20.336,-34.244,-148.502,-16.6,-14.607,-6.013,27.85,0.3053,-0.23315,-0.241,-0.8912,836,0.485,0.415,0.763,0.122,-0.122,-0.183,28.196,-29.202,108.303,-11.073,-18.253,-29.06,30.09,-0.49991,-0.33624,-0.04782,-0.79666,834,0.847,0.225,0.457,0.061,0.122,0.0,25.714,-58.953,178.632,-25.953,-16.867,-9.873,31.26,-0.09967,0.48193,0.18802,0.84991,838
209,0.891,-0.051,0.496,0.0,0.061,0.0,-5.911,-60.793,170.629,-25.347,-12.213,-17.727,26.65,0.09555,0.50012,-0.08514,0.85638,829,0.563,0.286,0.777,0.183,0.122,0.0,20.336,-34.244,-148.48,-16.6,-14.607,-6.013,27.85,0.3053,-0.23315,-0.241,-0.8912,837,0.486,0.415,0.769,0.366,-0.122,-0.183,28.202,-29.202,108.309,-11.073,-18.253,-29.06,30.09,-0.49991,-0.33624,-0.04782,-0.79666,835,0.847,0.221,0.456,-0.122,-0.061,-0.122,25.719,-58.953,178.616,-25.953,-16.867,-9.873,31.26,-0.09967,0.48193,0.18802,0.84991,839
210,0.89,-0.05,0.494,0.0,0.122,0.0,-5.911,-60.793,170.623,-25.347,-12.213,-17.727,26.65,0.09555,0.50012,-0.08514,0.85638,840,0.563,0.286,0.776,0.061,0.0,0.061,20.341,-34.244,-148.464,-16.6,-14.607,-6.013,27.85,0.3053,-0.23315,-0.241,-0.8912,844,0.485,0.413,0.771,0.244,-0.305,-0.061,28.213,-29.207,108.325,-11.073,-18.253,-29.06,30.09,-0.49991,-0.33624,-0.04782,-0.79666,842,0.846,0.22,0.458,0.061,-0.244,-0.061,25.724,-58.958,178.599,-25.953,-16.867,-9.873,31.26,-0.09967,0.48193,0.18802,0.84991,848
211,0.889,-0.052,0.494,0.0,0.061,0.0,-5.911,-60.787,170.618,-25.347,-12.213,-17.727,26.65,0.09555,0.50012,-0.08514,0.85638,841,0.562,0.286,0.775,0.0,-0.244,0.122,20.336,-34.25,-148.469,-16.6,-14.607,-6.013,27.85,0.3053,-0.23315,-0.241,-0.8912,845,0.484,0.413,0.77,0.061,-0.427,-0.122,28.218,-29.213,108.353,-11.073,-18.253,-29.06,30.09,-0.49991,-0.33624,-0.04782,-0.79666,843,0.846,0.221,0.458,0.122,-0.183,0.061,25.73,-58.964,178.588,-25.953,-16.867,-9.873,31.26,-0.09967,0.48193,0.18802,0.84991,849
212,0.889,-0.052,0.494,0.0,-0.061,0.0,-5.911,-60.787,170.612,-25.347,-12.213,-17.727,26.65,0.09641,0.49994,-0.08563,0.85635,846,0.562,0.285,0.774,0.0,-0.244,0.183,20.336,-34.255,-148.475,-16.6,-14.607,-6.013,27.85,0.3053,-0.23315,-0.241,-0.8912,850,0.484,0.414,0.767,-0.122,-0.366,0.0,28.224,-29.218,108.353,-11.073,-18.253,-29.06,30.09,-0.49991,-0.33624,-0.04782,-0.79666,852,0.846,0.221,0.458,0.0,0.0,0.061,25.73,-58.964,178.577,-25.953,-16.867,-9.873,31.26,-0.09967,0.48193,0.18802,0.84991,854
213,0.89,-0.052,0.494,0.0,-0.061,0.0,-5.911,-60.793,170.612,-25.347,-12.213,-17.727,26.65,0.09641,0.49994,-0.08563,0.85635,847,0.563,0.284,0.774,0.061,-0.122,0.244,20.336,-34.261,-148.48,-16.6,-14.607,-6.013,27.85,0.3053,-0.23315,-0.241,-0.8912,851,0.483,0.411,0.767,-0.061,-0.366,0.183,28.224,-29.224,108.369,-11.073,-18.253,-29.06,30.09,-0.49991,-0.33624,-0.04782,-0.79666,853,0.846,0.221,0.456,-0.061,-0.122,0.0,25.73,-58.969,178.566,-25.953,-16.867,-9.873,31.26,-0.09967,0.48193,0.18802,0.84991,855
214,0.889,-0.051,0.494,0.061,0.061,0.0,-5.911,-60.793,170.607,-25.347,-12.213,-17.727,26.65,0.09641,0.49994,-0.08563,0.85635,858,0.563,0.283,0.772,0.061,0.061,0.122,20.33,-34.261,-148.48,-16.6,-14.607,-6.013,27.85,0.3053,-0.23315,-0.241,-0.8912,862,0.485,0.409,0.765,0.061,-0.366,0.183,28.224,-29.229,108.391,-11.073,-18.253,-29.06,30.09,-0.49991,-0.33624,-0.04782,-0.79666,856,0.847,0.222,0.457,0.0,-0.183,-0.122,25.741,-58.969,178.55,-25.953,-16.867,-9.873,31.26,-0.09967,0.48193,0.18802,0.84991,860
215,0.889,-0.05,0.496,0.0,0.061,0.0,-5.911,-60.793,170.601,-25.347,-12.213,-17.727,26.65,0.09641,0.49994,-0.08563,0.85635,859,0.563,0.282,0.773,0.122,0.061,0.0,20.33,-34.261,-148.486,-16.6,-14.607,-6.013,27.85,0.3053,-0.23315,-0.241,-0.8912,863,0.485,0.407,0.765,0.122,-0.427,0.061,28.224,-29.235,108.408,-11.073,-18.253,-29.06,30.09,-0.49991,-0.33624,-0.04782,-0.79666,857,0.847,0.223,0.458,0.0,-0.061,-0.183,25.746,-58.969,178.533,-25.953,-16.867,-9.873,31.26,-0.09967,0.48193,0.18802,0.84991,861
216,0.889,-0.051,0.495,0.061,0.0,0.0,-5.911,-60.793,170.596,-25.347,-12.213,-17.727,26.65,0.09641,0.49994,-0.08563,0.85635,864,0.564,0.284,0.774,0.122,0.183,-0.122,20.336,-34.261,-148.502,-16.6,-14.607,-6.013,27.85,0.3053,-0.23315,-0.241,-0.8912,868,0.486,0.408,0.765,0.061,-0.549,0.0,28.229,-29.24,108.43,-11.073,-18.253,-29.06,30.09,-0.49991,-0.33624,-0.04782,-0.79666,866,0.846,0.22,0.457,0.061,0.122,-0.244,25.757,-58.969,178.517,-25.953,-16.867,-9.873,31.26,-0.09967,0.48193,0.18802,0.84991,870
217,0.888,-0.051,0.496,0.0,0.0,0.0,-5.911,-60.793,170.59,-25.347,-12.213,-17.727,26.65,0.09641,0.49994,-0.08563,0.85635,865,0.562,0.287,0.773,0.061,0.122,0.0,20.336,-34.255,-148.508,-16.6,-14.607,-6.013,27.85,0.3053,-0.23315,-0.241,-0.8912,869,0.485,0.411,0.767,0.061,-0.366,0.0,28.235,-29.251,108.446,-11.073,-18.253,-29.06,30.09,-0.49991,-0.33624,-0.04782,-0.79666,867,0.847,0.22,0.457,-0.183,0.122,0.0,25.757,-58.969,178.506,-25.953,-16.867,-9.873,31.26,-0.09967,0.48193,0.18802,0.84991,871
218,0.891,-0.052,0.495,0.0,0.0,0.0,-5.911,-60.793,170.585,-25.347,-12.213,-17.727,26.65,0.09641,0.49994,-0.08563,0.85635,872,0.564,0.285,0.774,0.183,0.0,0.061,20.336,-34.255,-148.519,-16.6,-14.607,-6.013,27.85,0.3053,-0.23315,-0.241,-0.8912,876,0.486,0.415,0.768,0.305,-0.61,0.0,28.24,-29.257,108.457,-11.073,-18.253,-29.06,30.09,-0.49991,-0.33624,-0.04782,-0.79666,874,0.847,0.223,0.456,0.0,0.122,0.0,25.752,-58.964,178.5,-25.887,-16.86,-9.807,31.26,-0.09967,0.48193,0.18802,0.84991,880
219,0.89,-0.053,0.494,0.0,0.0,0.0,-5.911,-60.793,170.579,-25.347,-12.213,-17.727,26.65,0.09641,0.49994,-0.08563,0.85635,873,0.565,0.285,0.774,0.0,0.061,0.0,20.336,-34.255,-148.519,-16.6,-14.607,-6.013,27.85,0.3053,-0.23315,-0.241,-0.8912,877,0.487,0.41,0.764,0.244,-0.61,0.0,28.246,-29.268,108.474,-11.073,-18.253,-29.06,30.09,-0.49991,-0.33624,-0.04782,-0.79666,875,0.848,0.224,0.457,0.061,0.244,0.0,25.752,-58.964,178.495,-25.887,-16.86,-9.807,31.26,-0.09967,0.48193,0.18802,0.84991,881
220,0.89,-0.052,0.494,0.061,0.061,0.0,-5.911,-60.787,170.574,-25.347,-12.213,-17.727,26.65,0.09641,0.49994,-0.08563,0.85635,878,0.564,0.286,0.773,0.061,0.122,0.0,20.33,-34.255,-148.519,-16.6,-14.607,-6.013,27.85,0.3053,-0.23315,-0.241,-0.8912,890,0.486,0.411,0.764,0.183,-0.732,-0.366,28.257,-29.273,108.484,-10.947,-18.887,-30.147,30.09,-0.49991,-0.33624,-0.04782,-0.79666,882,0.848,0.221,0.458,0.0,0.183,0.0,25.752,-58.964,178.489,-25.887,-16.86,-9.807,31.26,-0.09967,0.48193,0.18802,0.84991,886
221,0.891,-0.051,0.494,0.061,0.061,0.0,-5.911,-60.787,170.568,-25.347,-12.213,-17.727,26.65,0.09641,0.49994,-0.08563,0.85635,879,0.564,0.286,0.775,0.122,0.122,0.0,20.33,-34.255,-148.513,-16.6,-14.607,-6.013,27.85,0.3053,-0.23315,-0.241,-0.8912,891,0.487,0.414,0.765,0.305,-0.61,-0.244,28.268,-29.284,108.49,-10.947,-18.887,-30.147,30.09,-0.49991,-0.33624,-0.04782,-0.79666,883,0.847,0.22,0.457,0.0,0.061,0.0,25.752,-58.958,178.478,-25.887,-16.86,-9.807,31.26,-0.09967,0.48193,0.18802,0.84991,887
222,0.892,-0.051,0.494,0.0,0.0,0.0,-5.911,-60.787,170.563,-25.347,-12.213,-17.727,26.65,0.09641,0.49994,-0.08563,0.85635,884,0.563,0.287,0.775,0.0,0.122,0.0,20.33,-34.255,-148.513,-16.427,-15.113,-6.0,27.85,0.3053,-0.23315,-0.241,-0.8912,896,0.487,0.415,0.766,0.244,-0.427,-0.183,28.279,-29.29,108.501,-10.947,-18.887,-30.147,30.09,-0.49796,-0.33704,-0.04855,-0.79749,888,0.846,0.223,0.455,-0.427,0.061,0.0,25.746,-58.958,178.473,-25.887,-16.86,-9.807,31.26,-0.09842,0.48224,0.18762,0.84998,898
223,0.892,-0.052,0.494,0.0,0.0,0.0,-5.911,-60.787,170.563,-25.347,-12.213,-17.727,26.65,0.09641,0.49994,-0.08563,0.85635,885,0.563,0.285,0.775,-0.061,-0.061,0.0,20.33,-34.255,-148.519,-16.427,-15.113,-6.0,27.85,0.3053,-0.23315,-0.241,-0.8912,897,0.487,0.413,0.768,0.061,-0.244,-0.244,28.284,-29.29,108.512,-10.947,-18.887,-30.147,30.09,-0.49796,-0.33704,-0.04855,-0.79749,889,0.846,0.224,0.457,-0.061,0.0,0.0,25.741,-58.958,178.467,-25.887,-16.86,-9.807,31.26,-0.09842,0.48224,0.18762,0.84998,899
224,0.889,-0.051,0.494,0.0,0.061,0.0,-5.911,-60.787,170.557,-25.347,-12.213,-17.727,26.65,0.09641,0.49994,-0.08563,0.85635,892,0.564,0.287,0.774,-0.061,-0.244,0.0,20.33,-34.261,-148.519,-16.427,-15.113,-6.0,27.85,0.3053,-0.23315,-0.241,-0.8912,900,0.487,0.413,0.769,0.0,-0.549,-0.305,28.29,-29.295,108.523,-10.947,-18.887,-30.147,30.09,-0.49796,-0.33704,-0.04855,-0.79749,894,0.847,0.222,0.458,0.244,-0.061,0.0,25.746,-58.958,178.456,-25.887,-16.86,-9.807,31.26,-0.09842,0.48224,0.18762,0.84998,904
225,0.888,-0.051,0.494,0.0,0.183,0.0,-5.911,-60.787,170.552,-25.347,-12.213,-17.727,26.65,0.09641,0.49994,-0.08563,0.85635,893,0.565,0.286,0.774,0.061,-0.183,0.0,20.33,-34.266,-148.524,-16.427,-15.113,-6.0,27.85,0.3053,-0.23315,-0.241,-0.8912,901,0.488,0.413,0.766,0.0,-0.61,-0.305,28.295,-29.301,108.528,-10.947,-18.887,-30.147,30.09,-0.49796,-0.33704,-0.04855,-0.79749,895,0.847,0.221,0.458,0.305,0.0,0.0,25.752,-58.964,178.445,-25.887,-16.86,-9.807,31.26,-0.09842,0.48224,0.18762,0.84998,905
226,0.889,-0.05,0.495,0.0,0.061,0.0,-5.911,-60.782,170.546,-25.347,-12.213,-17.727,26.65,0.09641,0.49994,-0.08563,0.85635,902,0.563,0.286,0.774,0.122,0.0,0.0,20.33,-34.266,-148.524,-16.427,-15.113,-6.0,27.85,0.3053,-0.23315,-0.241,-0.8912,910,0.486,0.414,0.764,0.061,-0.549,-0.183,28.301,-29.306,108.539,-10.947,-18.887,-30.147,30.09,-0.49796,-0.33704,-0.04855,-0.79749,906,0.846,0.221,0.457,0.0,0.061,0.0,25.763,-58.964,178.44,-25.887,-16.86,-9.807,31.26,-0.09842,0.48224,0.18762,0.84998,908
227,0.89,-0.051,0.495,0.0,0.0,0.0,-5.911,-60.782,170.541,-25.347,-12.213,-17.727,26.65,0.09641,0.49994,-0.08563,0.85635,903,0.564,0.286,0.773,0.0,0.061,0.0,20.33,-34.266,-148.524,-16.427,-15.113,-6.0,27.85,0.3053,-0.23315,-0.241,-0.8912,911,0.487,0.413,0.763,0.122,-0.366,0.0,28.306,-29.312,108.55,-10.947,-18.887,-30.147,30.09,-0.49796,-0.33704,-0.04855,-0.79749,907,0.847,0.225,0.458,-0.183,0.061,0.0,25.757,-58.964,178.429,-25.887,-16.86,-9.807,31.26,-0.09842,0.48224,0.18762,0.84998,909
228,0.889,-0.051,0.496,0.061,0.0,0.0,-5.911,-60.782,170.535,-24.96,-12.453,-17.833,26.65,0.09641,0.49994,-0.08563,0.85635,914,0.566,0.287,0.772,0.0,0.0,0.0,20.33,-34.266,-148.524,-16.427,-15.113,-6.0,27.85,0.30511,-0.23337,-0.24097,-0.8912,916,0.489,0.412,0.763,0.122,-0.244,0.0,28.312,-29.317,108.567,-10.947,-18.887,-30.147,30.09,-0.49796,-0.33704,-0.04855,-0.79749,912,0.847,0.226,0.458,-0.183,0.183,0.0,25.757,-58.964,178.423,-25.887,-16.86,-9.807,31.26,-0.09842,0.48224,0.18762,0.84998,918
229,0.889,-0.051,0.496,0.0,0.0,0.0,-5.911,-60.782,170.535,-24.96,-12.453,-17.833,26.65,0.09641,0.49994,-0.08563,0.85635,915,0.565,0.287,0.773,0.0,0.061,0.0,20.33,-34.266,-148.524,-16.427,-15.113,-6.0,27.85,0.30511,-0.23337,-0.24097,-0.8912,917,0.488,0.414,0.764,0.183,-0.183,-0.061,28.317,-29.323,108.583,-10.947,-18.887,-30.147,30.09,-0.49796,-0.33704,-0.04855,-0.79749,913,0.847,0.224,0.458,0.061,0.305,0.0,25.752,-58.958,178.418,-25.887,-16.86,-9.807,31.26,-0.09842,0.48224,0.18762,0.84998,919
230,0.89,-0.051,0.496,0.0,0.0,0.0,-5.911,-60.782,170.53,-24.96,-12.453,-17.833,26.65,0.09711,0.49985,-0.08603,0.85629,920,0.563,0.288,0.774,-0.061,0.183,0.0,20.325,-34.266,-148.519,-16.427,-15.113,-6.0,27.85,0.30511,-0.23337,-0.24097,-0.8912,924,0.488,0.415,0.765,0.0,-0.244,0.0,28.317,-29.323,108.594,-10.947,-18.887,-30.147,30.09,-0.49796,-0.33704,-0.04855,-0.79749,922,0.847,0.223,0.458,0.0,0.366,0.0,25.752,-58.953,178.418,-25.887,-16.86,-9.807,31.26,-0.09842,0.48224,0.18762,0.84998,926
231,0.891,-0.051,0.495,0.0,-0.061,0.0,-5.911,-60.787,170.524,-24.96,-12.453,-17.833,26.65,0.09711,0.49985,-0.08603,0.85629,921,0.564,0.289,0.773,-0.061,0.244,0.0,20.325,-34.261,-148.513,-16.427,-15.113,-6.0,27.85,0.30511,-0.23337,-0.24097,-0.8912,925,0.486,0.417,0.765,-0.122,-0.122,0.0,28.317,-29.328,108.611,-10.947,-18.887,-30.147,30.09,-0.49796,-0.33704,-0.04855,-0.79749,923,0.847,0.222,0.456,-0.122,0.305,0.0,25.752,-58.947,178.412,-25.887,-16.86,-9.807,31.26,-0.09842,0.48224,0.18762,0.84998,927
232,0.891,-0.052,0.495,0.0,0.0,0.0,-5.911,-60.787,170.519,-24.96,-12.453,-17.833,26.65,0.09711,0.49985,-0.08603,0.85629,930,0.564,0.287,0.772,-0.061,0.183,0.0,20.325,-34.261,-148.508,-16.427,-15.113,-6.0,27.85,0.30511,-0.23337,-0.24097,-0.8912,928,0.487,0.416,0.764,0.0,-0.122,0.122,28.317,-29.328,108.633,-10.947,-18.887,-30.147,30.09,-0.49796,-0.33704,-0.04855,-0.79749,932,0.846,0.223,0.456,-0.183,0.305,0.0,25.746,-58.942,178.412,-25.887,-16.86,-9.807,31.26,-0.09842,0.48224,0.18762,0.84998,936
233,0.89,-0.051,0.494,0.061,0.0,0.0,-5.911,-60.787,170.519,-24.96,-12.453,-17.833,26.65,0.09711,0.49985,-0.08603,0.85629,931,0.563,0.286,0.773,-0.061,0.305,0.0,20.319,-34.255,-148.508,-16.427,-15.113,-6.0,27.85,0.30511,-0.23337,-0.24097,-0.8912,929,0.487,0.415,0.763,0.0,-0.183,0.183,28.323,-29.333,108.649,-10.947,-18.887,-30.147,30.09,-0.49796,-0.33704,-0.04855,-0.79749,933,0.847,0.223,0.457,-0.122,0.183,0.0,25.741,-58.936,178.407,-25.887,-16.86,-9.807,31.26,-0.09842,0.48224,0.18762,0.84998,937
234,0.889,-0.051,0.494,0.122,0.0,0.0,-5.911,-60.787,170.513,-24.96,-12.453,-17.833,26.65,0.09711,0.49985,-0.08603,0.85629,934,0.565,0.288,0.774,-0.305,0.305,0.0,20.314,-34.25,-148.513,-16.427,-15.113,-6.0,27.85,0.30511,-0.23337,-0.24097,-0.8912,940,0.49,0.414,0.763,-0.122,0.0,0.244,28.317,-29.333,108.671,-10.793,-18.58,-29.687,30.09,-0.49796,-0.33704,-0.04855,-0.79749,938,0.848,0.226,0.457,-0.244,0.366,0.0,25.741,-58.936,178.407,-25.887,-16.86,-9.807,31.26,-0.09842,0.48224,0.18762,0.84998,946
