Index,L5_Acceleration X(g),L5_Acceleration Y(g),L5_Acceleration Z(g),L5_Angular velocity X(°/s),L5_Angular velocity Y(°/s),L5_Angular velocity Z(°/s),L5_Angle X(°),L5_Angle Y(°),L5_Angle Z(°),L5_Magnetic field X(ʯt),L5_Magnetic field Y(ʯt),L5_Magnetic field Z(ʯt),L5_Temperature(℃),L5_Quaternions 0(),L5_Quaternions 1(),L5_Quaternions 2(),L5_Quaternions 3(),L5___orig_idx,T4_Acceleration X(g),T4_Acceleration Y(g),T4_Acceleration Z(g),T4_Angular velocity X(°/s),T4_Angular velocity Y(°/s),T4_Angular velocity Z(°/s),T4_Angle X(°),T4_Angle Y(°),T4_Angle Z(°),T4_Magnetic field X(ʯt),T4_Magnetic field Y(ʯt),T4_Magnetic field Z(ʯt),T4_Temperature(℃),T4_Quaternions 0(),T4_Quaternions 1(),T4_Quaternions 2(),T4_Quaternions 3(),T4___orig_idx,C7_Acceleration X(g),C7_Acceleration Y(g),C7_Acceleration Z(g),C7_Angular velocity X(°/s),C7_Angular velocity Y(°/s),C7_Angular velocity Z(°/s),C7_Angle X(°),C7_Angle Y(°),C7_Angle Z(°),C7_Magnetic field X(ʯt),C7_Magnetic field Y(ʯt),C7_Magnetic field Z(ʯt),C7_Temperature(℃),C7_Quaternions 0(),C7_Quaternions 1(),C7_Quaternions 2(),C7_Quaternions 3(),C7___orig_idx,T12_Acceleration X(g),T12_Acceleration Y(g),T12_Acceleration Z(g),T12_Angular velocity X(°/s),T12_Angular velocity Y(°/s),T12_Angular velocity Z(°/s),T12_Angle X(°),T12_Angle Y(°),T12_Angle Z(°),T12_Magnetic field X(ʯt),T12_Magnetic field Y(ʯt),T12_Magnetic field Z(ʯt),T12_Temperature(℃),T12_Quaternions 0(),T12_Quaternions 1(),T12_Quaternions 2(),T12_Quaternions 3(),T12___orig_idx
0,0.978,0.15,-0.236,0.427,-0.183,1.587,147.656,-74.081,7.795,-23.187,-17.213,-0.56,26.79,0.18384,0.77594,-0.11502,0.59229,0,0.823,0.288,0.499,-2.625,-1.282,-0.916,29.284,-54.86,-144.712,-27.027,-15.867,2.887,24.1,0.37427,-0.35376,-0.34979,-0.7825,2,0.081,0.217,0.969,-0.488,-1.221,-3.174,12.096,-4.565,-173.815,-2.787,-13.427,-34.653,26.37,0.06079,-0.0307,-0.10693,-0.99188,8,0.935,0.313,0.041,-1.831,-1.099,1.038,82.123,-71.175,122.234,-25.467,-23.513,5.76,29.08,0.03851,-0.64194,-0.25613,-0.72162,6
1,0.979,0.146,-0.237,-0.244,-0.183,1.526,147.755,-74.092,7.712,-23.187,-17.213,-0.56,26.79,0.18384,0.77594,-0.11502,0.59229,1,0.818,0.288,0.499,-2.93,-0.977,-0.977,29.268,-54.871,-144.734,-27.027,-15.867,2.887,24.1,0.37427,-0.35376,-0.34979,-0.7825,3,0.079,0.216,0.971,-0.366,-0.977,-2.441,12.096,-4.576,-173.914,-2.787,-13.427,-34.653,26.37,0.06079,-0.0307,-0.10693,-0.99188,9,0.935,0.309,0.039,-1.709,-1.221,1.221,82.145,-71.202,122.173,-25.467,-23.513,5.76,29.08,0.03851,-0.64194,-0.25613,-0.72162,7
2,0.978,0.145,-0.241,-0.244,-0.183,1.404,147.849,-74.108,7.625,-23.187,-17.213,-0.56,26.79,0.18384,0.77594,-0.11502,0.59229,10,0.818,0.284,0.501,-2.869,-1.099,-0.977,29.251,-54.877,-144.756,-27.027,-15.867,2.887,24.1,0.37076,-0.35718,-0.34851,-0.7832,4,0.081,0.217,0.974,-0.61,-0.916,-2.258,12.09,-4.587,-173.974,-2.787,-13.427,-34.653,26.37,0.06079,-0.0307,-0.10693,-0.99188,14,0.937,0.309,0.037,-1.404,-1.221,1.038,82.178,-71.235,122.097,-25.467,-23.513,5.76,29.08,0.03851,-0.64194,-0.25613,-0.72162,16
3,0.977,0.146,-0.239,0.0,-0.366,1.343,147.936,-74.114,7.537,-23.187,-17.213,-0.56,26.79,0.18384,0.77594,-0.11502,0.59229,11,0.819,0.283,0.502,-3.113,-0.977,-0.916,29.235,-54.888,-144.783,-27.027,-15.867,2.887,24.1,0.37076,-0.35718,-0.34851,-0.7832,5,0.083,0.213,0.972,-0.916,-0.488,-2.319,12.079,-4.587,-174.034,-2.787,-13.427,-34.653,26.37,0.06079,-0.0307,-0.10693,-0.99188,15,0.939,0.311,0.035,-1.16,-1.16,0.916,82.216,-71.257,122.036,-25.467,-23.513,5.76,29.08,0.03851,-0.64194,-0.25613,-0.72162,17
4,0.979,0.147,-0.239,-0.122,-0.427,1.282,148.03,-74.119,7.454,-23.187,-17.213,-0.56,26.79,0.18384,0.77594,-0.11502,0.59229,20,0.82,0.281,0.503,-3.113,-0.671,-0.671,29.202,-54.893,-144.8,-27.027,-15.867,2.887,24.1,0.37076,-0.35718,-0.34851,-0.7832,12,0.085,0.209,0.975,-1.465,-0.122,-2.563,12.057,-4.576,-174.078,-3.613,-13.453,-34.433,26.37,0.06079,-0.0307,-0.10693,-0.99188,22,0.938,0.313,0.036,-1.465,-0.977,0.793,82.255,-71.279,121.987,-25.467,-23.513,5.76,29.08,0.03851,-0.64194,-0.25613,-0.72162,26
5,0.979,0.145,-0.242,-0.183,-0.427,1.221,148.118,-74.125,7.372,-23.187,-17.213,-0.56,26.79,0.18384,0.77594,-0.11502,0.59229,21,0.823,0.278,0.501,-2.991,-0.488,-0.427,29.169,-54.899,-144.816,-27.027,-15.867,2.887,24.1,0.37076,-0.35718,-0.34851,-0.7832,13,0.082,0.207,0.975,-1.77,0.305,-2.869,12.03,-4.559,-174.144,-3.613,-13.453,-34.433,26.37,0.06079,-0.0307,-0.10693,-0.99188,23,0.938,0.312,0.039,-1.831,-0.732,0.793,82.282,-71.301,121.937,-25.467,-23.513,5.76,29.08,0.03851,-0.64194,-0.25613,-0.72162,27
6,0.977,0.146,-0.238,-0.305,-0.183,1.343,148.206,-74.136,7.306,-23.187,-17.213,-0.56,26.79,0.18384,0.77594,-0.11502,0.59229,24,0.826,0.278,0.5,-2.93,-0.549,-0.427,29.13,-54.904,-144.827,-27.027,-15.867,2.887,24.1,0.37076,-0.35718,-0.34851,-0.7832,18,0.081,0.208,0.979,-0.061,0.122,-1.953,12.025,-4.548,-174.199,-3.613,-13.453,-34.433,26.37,0.06079,-0.0307,-0.10693,-0.99188,30,0.936,0.307,0.042,-1.831,-0.549,0.854,82.282,-71.318,121.904,-25.467,-23.513,5.76,29.08,0.03851,-0.64194,-0.25613,-0.72162,32
7,0.978,0.146,-0.234,-1.343,-0.183,1.282,148.271,-74.141,7.273,-23.187,-17.213,-0.56,26.79,0.18384,0.77594,-0.11502,0.59229,25,0.825,0.279,0.499,-2.93,-0.793,-0.671,29.092,-54.91,-144.844,-27.027,-15.867,2.887,24.1,0.37076,-0.35718,-0.34851,-0.7832,19,0.083,0.208,0.974,0.244,-0.122,-1.099,12.03,-4.543,-174.227,-3.613,-13.453,-34.433,26.37,0.06079,-0.0307,-0.10693,-0.99188,31,0.936,0.303,0.04,-1.709,-0.488,0.488,82.277,-71.34,121.888,-25.467,-23.513,5.76,29.08,0.03851,-0.64194,-0.25613,-0.72162,33
8,0.977,0.146,-0.236,-2.075,-0.183,1.038,148.315,-74.152,7.229,-23.187,-17.213,-0.56,26.79,0.18384,0.77594,-0.11502,0.59229,36,0.822,0.279,0.503,-2.136,-1.038,-0.854,29.075,-54.921,-144.866,-27.027,-15.867,2.887,24.1,0.37076,-0.35718,-0.34851,-0.7832,28,0.082,0.206,0.972,0.61,-0.305,-0.244,12.036,-4.543,-174.249,-3.613,-13.453,-34.433,26.37,0.05417,-0.03409,-0.10654,-0.99219,38,0.937,0.305,0.037,-1.16,-0.488,0.305,82.277,-71.351,121.877,-25.467,-23.513,5.76,29.08,0.03851,-0.64194,-0.25613,-0.72162,40
9,0.98,0.142,-0.239,-1.892,-0.305,0.977,148.343,-74.158,7.191,-23.187,-17.213,-0.56,26.79,0.18384,0.77594,-0.11502,0.59229,37,0.821,0.275,0.502,-1.221,-1.465,-0.977,29.086,-54.937,-144.899,-27.027,-15.867,2.887,24.1,0.37076,-0.35718,-0.34851,-0.7832,29,0.083,0.207,0.971,1.099,-0.427,-0.305,12.052,-4.548,-174.249,-3.613,-13.453,-34.433,26.37,0.05417,-0.03409,-0.10654,-0.99219,39,0.937,0.304,0.035,-1.16,-0.488,0.183,82.288,-71.362,121.86,-25.467,-23.513,5.76,29.08,0.03851,-0.64194,-0.25613,-0.72162,41
10,0.977,0.139,-0.24,-1.221,-0.122,0.854,148.381,-74.163,7.125,-23.38,-17.007,0.593,26.79,0.18384,0.77594,-0.11502,0.59229,46,0.82,0.271,0.502,-0.427,-1.404,-0.916,29.114,-54.954,-144.937,-27.027,-15.867,2.887,24.1,0.37076,-0.35718,-0.34851,-0.7832,34,0.081,0.211,0.975,1.587,-0.183,-0.427,12.079,-4.559,-174.243,-3.613,-13.453,-34.433,26.37,0.05417,-0.03409,-0.10654,-0.99219,44,0.937,0.306,0.036,-1.77,-0.549,0.366,82.293,-71.367,121.838,-25.467,-23.513,5.76,29.08,0.03851,-0.64194,-0.25613,-0.72162,48
11,0.977,0.139,-0.239,-1.526,0.061,0.732,148.403,-74.169,7.075,-23.38,-17.007,0.593,26.79,0.18384,0.77594,-0.11502,0.59229,47,0.823,0.273,0.5,-0.122,-1.343,-0.732,29.147,-54.97,-144.965,-27.027,-15.867,2.887,24.1,0.37076,-0.35718,-0.34851,-0.7832,35,0.075,0.213,0.982,2.014,-0.244,-0.488,12.112,-4.559,-174.221,-3.613,-13.453,-34.433,26.37,0.05417,-0.03409,-0.10654,-0.99219,45,0.939,0.31,0.046,-2.869,-0.488,0.793,82.288,-71.384,121.811,-25.467,-23.513,5.76,29.08,0.03851,-0.64194,-0.25613,-0.72162,49
12,0.979,0.141,-0.232,-3.357,0.366,0.549,148.392,-74.18,7.07,-23.38,-17.007,0.593,26.79,0.18097,0.77618,-0.11652,0.59253,50,0.825,0.277,0.498,0.0,-1.221,-0.671,29.18,-54.987,-144.992,-27.027,-15.867,2.887,24.1,0.37076,-0.35718,-0.34851,-0.7832,42,0.084,0.218,0.974,2.258,-0.732,0.427,12.156,-4.57,-174.205,-3.613,-13.453,-34.433,26.37,0.05417,-0.03409,-0.10654,-0.99219,54,0.935,0.306,0.04,-3.784,0.0,0.916,82.249,-71.406,121.805,-25.507,-23.02,5.433,29.08,0.03851,-0.64194,-0.25613,-0.72162,56
13,0.977,0.144,-0.228,-4.211,0.427,0.61,148.343,-74.191,7.07,-23.38,-17.007,0.593,26.79,0.18097,0.77618,-0.11652,0.59253,51,0.82,0.28,0.499,0.183,-1.587,-0.549,29.213,-55.009,-145.014,-27.027,-15.867,2.887,24.1,0.37076,-0.35718,-0.34851,-0.7832,43,0.076,0.219,0.976,2.197,-1.404,1.16,12.2,-4.592,-174.188,-3.613,-13.453,-34.433,26.37,0.05417,-0.03409,-0.10654,-0.99219,55,0.933,0.304,0.038,-2.93,0.122,0.793,82.172,-71.422,121.822,-25.507,-23.02,5.433,29.08,0.03851,-0.64194,-0.25613,-0.72162,57
14,0.979,0.145,-0.233,-5.127,0.244,0.549,148.277,-74.202,7.092,-23.38,-17.007,0.593,26.79,0.18097,0.77618,-0.11652,0.59253,58,0.824,0.283,0.505,0.549,-2.136,-0.488,29.257,-55.036,-145.047,-27.027,-15.867,2.887,24.1,0.37076,-0.35718,-0.34851,-0.7832,52,0.081,0.209,0.968,1.404,-0.427,1.404,12.239,-4.62,-174.128,-3.613,-13.453,-34.433,26.37,0.05417,-0.03409,-0.10654,-0.99219,62,0.933,0.302,0.036,-1.648,-0.427,0.061,82.123,-71.439,121.838,-25.507,-23.02,5.433,29.08,0.03763,-0.64389,-0.25208,-0.72134,66
15,0.978,0.144,-0.244,-4.578,0.122,0.366,148.206,-74.213,7.103,-23.38,-17.007,0.593,26.79,0.18097,0.77618,-0.11652,0.59253,59,0.821,0.281,0.5,1.404,-2.075,-0.122,29.312,-55.069,-145.074,-27.027,-15.867,2.887,24.1,0.37076,-0.35718,-0.34851,-0.7832,53,0.098,0.21,0.963,0.916,-0.061,2.075,12.266,-4.631,-174.067,-3.613,-13.453,-34.433,26.37,0.05417,-0.03409,-0.10654,-0.99219,63,0.939,0.312,0.031,-1.282,-0.854,-0.732,82.134,-71.444,121.816,-25.507,-23.02,5.433,29.08,0.03763,-0.64389,-0.25208,-0.72134,67
16,0.979,0.149,-0.248,-3.601,0.0,0.183,148.145,-74.213,7.13,-23.38,-17.007,0.593,26.79,0.18097,0.77618,-0.11652,0.59253,64,0.813,0.275,0.499,2.197,-1.953,0.244,29.372,-55.107,-145.085,-27.027,-15.867,2.887,24.1,0.37076,-0.35718,-0.34851,-0.7832,60,0.063,0.213,0.963,0.549,0.916,1.038,12.277,-4.636,-174.001,-3.613,-13.453,-34.433,26.37,0.05417,-0.03409,-0.10654,-0.99219,68,0.93,0.323,0.045,-1.831,-0.916,-0.793,82.172,-71.433,121.767,-25.507,-23.02,5.433,29.08,0.03763,-0.64389,-0.25208,-0.72134,70
17,0.978,0.152,-0.242,-3.54,0.244,0.122,148.085,-74.218,7.163,-23.38,-17.007,0.593,26.79,0.18097,0.77618,-0.11652,0.59253,65,0.82,0.271,0.5,2.197,-1.404,0.366,29.427,-55.14,-145.08,-27.027,-15.867,2.887,24.1,0.37076,-0.35718,-0.34851,-0.7832,61,0.071,0.215,0.989,1.16,1.038,-0.244,12.294,-4.625,-173.974,-3.613,-13.453,-34.433,26.37,0.05417,-0.03409,-0.10654,-0.99219,69,0.929,0.326,0.049,-2.93,-0.793,-0.732,82.194,-71.422,121.707,-25.507,-23.02,5.433,29.08,0.03763,-0.64389,-0.25208,-0.72134,71
18,0.973,0.161,-0.232,-4.211,0.122,0.366,148.019,-74.218,7.196,-23.38,-17.007,0.593,26.79,0.18097,0.77618,-0.11652,0.59253,72,0.827,0.277,0.487,1.099,-0.366,0.305,29.454,-55.157,-145.058,-27.267,-15.747,2.773,24.1,0.37076,-0.35718,-0.34851,-0.7832,74,0.086,0.212,0.969,0.671,-0.854,-1.831,12.316,-4.609,-173.941,-3.613,-13.453,-34.433,26.37,0.05417,-0.03409,-0.10654,-0.99219,76,0.937,0.319,0.043,-3.54,-0.732,-0.977,82.189,-71.406,121.663,-25.507,-23.02,5.433,29.08,0.03763,-0.64389,-0.25208,-0.72134,80
19,0.975,0.164,-0.228,-5.615,-0.122,0.793,147.953,-74.224,7.202,-23.38,-17.007,0.593,26.79,0.18097,0.77618,-0.11652,0.59253,73,0.813,0.292,0.501,0.061,-0.244,-0.061,29.465,-55.162,-145.031,-27.267,-15.747,2.773,24.1,0.37076,-0.35718,-0.34851,-0.7832,75,0.098,0.208,0.963,1.099,-1.831,-2.869,12.332,-4.62,-173.947,-3.613,-13.453,-34.433,26.37,0.05417,-0.03409,-0.10654,-0.99219,77,0.938,0.314,0.04,-4.456,-0.183,-1.16,82.161,-71.389,121.641,-25.507,-23.02,5.433,29.08,0.03763,-0.64389,-0.25208,-0.72134,81
20,0.979,0.156,-0.232,-6.592,0.0,0.977,147.881,-74.229,7.196,-23.38,-17.007,0.593,26.79,0.18097,0.77618,-0.11652,0.59253,82,0.814,0.294,0.504,-0.549,-0.305,-0.61,29.471,-55.168,-145.02,-27.267,-15.747,2.773,24.1,0.36993,-0.35931,-0.34961,-0.7821,78,0.077,0.22,0.961,1.221,0.122,-1.892,12.36,-4.636,-174.001,-3.613,-13.453,-34.433,26.37,0.05417,-0.03409,-0.10654,-0.99219,84,0.935,0.309,0.042,-4.028,0.305,-1.099,82.09,-71.362,121.646,-25.507,-23.02,5.433,29.08,0.03763,-0.64389,-0.25208,-0.72134,88
21,0.979,0.147,-0.231,-6.897,0.183,0.916,147.788,-74.235,7.185,-23.38,-17.007,0.593,26.79,0.18097,0.77618,-0.11652,0.59253,83,0.826,0.284,0.498,-1.038,-0.305,-1.282,29.482,-55.162,-145.025,-27.267,-15.747,2.773,24.1,0.36993,-0.35931,-0.34961,-0.7821,79,0.07,0.221,0.973,0.854,1.465,-2.075,12.387,-4.62,-174.04,-3.613,-13.453,-34.433,26.37,0.05417,-0.03409,-0.10654,-0.99219,85,0.932,0.31,0.044,-3.418,0.305,-1.221,82.007,-71.34,121.663,-25.507,-23.02,5.433,29.08,0.03763,-0.64389,-0.25208,-0.72134,89
22,0.979,0.145,-0.233,-5.676,0.305,0.732,147.7,-74.246,7.174,-23.38,-17.007,0.593,26.79,0.18097,0.77618,-0.11652,0.59253,90,0.827,0.282,0.486,-1.282,-0.305,-1.953,29.504,-55.146,-145.052,-27.267,-15.747,2.773,24.1,0.36993,-0.35931,-0.34961,-0.7821,86,0.06,0.217,0.975,0.0,1.221,-2.441,12.404,-4.587,-174.084,-3.567,-13.687,-34.207,26.37,0.05417,-0.03409,-0.10654,-0.99219,96,0.928,0.315,0.044,-3.784,-0.061,-1.343,81.947,-71.312,121.668,-25.507,-23.02,5.433,29.08,0.03763,-0.64389,-0.25208,-0.72134,94
23,0.976,0.15,-0.236,-5.188,0.366,0.671,147.612,-74.257,7.163,-23.38,-17.007,0.593,26.79,0.18097,0.77618,-0.11652,0.59253,91,0.817,0.287,0.493,-1.648,-0.122,-2.136,29.531,-55.129,-145.096,-27.267,-15.747,2.773,24.1,0.36993,-0.35931,-0.34961,-0.7821,87,0.063,0.211,0.978,0.061,0.061,-3.174,12.409,-4.554,-174.128,-3.567,-13.687,-34.207,26.37,0.05417,-0.03409,-0.10654,-0.99219,97,0.93,0.32,0.045,-4.333,-0.549,-1.587,81.898,-71.285,121.646,-25.507,-23.02,5.433,29.08,0.03763,-0.64389,-0.25208,-0.72134,95
24,0.977,0.157,-0.236,-6.165,0.0,0.916,147.541,-74.268,7.136,-23.38,-17.007,0.593,26.79,0.18097,0.77618,-0.11652,0.59253,100,0.815,0.282,0.501,-2.014,0.366,-1.892,29.548,-55.107,-145.135,-27.267,-15.747,2.773,24.1,0.36993,-0.35931,-0.34961,-0.7821,92,0.067,0.209,0.971,0.793,-1.282,-2.502,12.42,-4.548,-174.183,-3.567,-13.687,-34.207,26.37,0.05475,-0.03387,-0.10989,-0.99182,102,0.932,0.32,0.047,-5.371,-0.977,-2.014,81.865,-71.252,121.613,-25.507,-23.02,5.433,29.08,0.03763,-0.64389,-0.25208,-0.72134,106
25,0.979,0.159,-0.236,-7.385,-0.244,1.038,147.464,-74.273,7.086,-23.38,-17.007,0.593,26.79,0.18097,0.77618,-0.11652,0.59253,101,0.808,0.285,0.51,-2.38,0.549,-1.892,29.542,-55.08,-145.162,-27.267,-15.747,2.773,24.1,0.36993,-0.35931,-0.34961,-0.7821,93,0.073,0.214,0.971,1.343,-1.892,-1.404,12.442,-4.559,-174.238,-3.567,-13.687,-34.207,26.37,0.05475,-0.03387,-0.10989,-0.99182,103,0.935,0.318,0.045,-6.47,-1.282,-2.136,81.832,-71.213,121.569,-25.507,-23.02,5.433,29.08,0.03763,-0.64389,-0.25208,-0.72134,107
26,0.98,0.155,-0.234,-8.301,-0.671,1.16,147.382,-74.273,7.031,-23.007,-17.36,-0.333,26.79,0.18097,0.77618,-0.11652,0.59253,104,0.812,0.282,0.507,-2.38,0.244,-2.197,29.542,-55.052,-145.184,-27.267,-15.747,2.773,24.1,0.36993,-0.35931,-0.34961,-0.7821,98,0.071,0.219,0.971,1.465,-1.465,-1.404,12.469,-4.587,-174.276,-3.567,-13.687,-34.207,26.37,0.05475,-0.03387,-0.10989,-0.99182,110,0.934,0.318,0.041,-7.324,-1.465,-2.075,81.793,-71.175,121.498,-25.427,-22.56,4.94,29.08,0.03763,-0.64389,-0.25208,-0.72134,112
27,0.979,0.151,-0.236,-9.216,-1.038,1.221,147.305,-74.268,6.932,-23.007,-17.36,-0.333,26.79,0.18097,0.77618,-0.11652,0.59253,105,0.812,0.281,0.506,-2.075,-0.122,-2.747,29.564,-55.025,-145.239,-27.267,-15.747,2.773,24.1,0.36993,-0.35931,-0.34961,-0.7821,99,0.067,0.222,0.977,0.916,-0.732,-2.319,12.497,-4.598,-174.315,-3.567,-13.687,-34.207,26.37,0.05475,-0.03387,-0.10989,-0.99182,111,0.935,0.32,0.042,-7.324,-1.709,-1.77,81.76,-71.142,121.393,-25.427,-22.56,4.94,29.08,0.03763,-0.64389,-0.25208,-0.72134,113
28,0.979,0.149,-0.236,-9.277,-1.16,1.16,147.233,-74.257,6.812,-23.007,-17.36,-0.333,26.79,0.18097,0.77618,-0.11652,0.59253,118,0.818,0.288,0.506,-1.709,-0.488,-3.296,29.608,-54.998,-145.316,-27.267,-15.747,2.773,24.1,0.36993,-0.35931,-0.34961,-0.7821,108,0.076,0.225,0.98,0.549,-0.549,-3.296,12.519,-4.598,-174.337,-3.567,-13.687,-34.207,26.37,0.05475,-0.03387,-0.10989,-0.99182,116,0.939,0.324,0.04,-7.751,-2.075,-1.343,81.738,-71.115,121.273,-25.427,-22.56,4.94,29.08,0.03763,-0.64389,-0.25208,-0.72134,120
29,0.98,0.151,-0.239,-9.033,-1.16,1.343,147.173,-74.251,6.68,-23.007,-17.36,-0.333,26.79,0.18097,0.77618,-0.11652,0.59253,119,0.817,0.291,0.504,-2.014,-0.488,-3.54,29.663,-54.97,-145.415,-27.267,-15.747,2.773,24.1,0.36993,-0.35931,-0.34961,-0.7821,109,0.074,0.231,0.98,0.366,-1.465,-3.662,12.535,-4.592,-174.375,-3.567,-13.687,-34.207,26.37,0.05475,-0.03387,-0.10989,-0.99182,117,0.936,0.326,0.045,-8.118,-2.075,-1.038,81.716,-71.093,121.146,-25.427,-22.56,4.94,29.08,0.03763,-0.64389,-0.25208,-0.72134,121
30,0.979,0.154,-0.235,-9.155,-0.916,1.465,147.112,-74.246,6.553,-23.007,-17.36,-0.333,26.79,0.19058,0.77353,-0.12506,0.59125,124,0.817,0.295,0.505,-2.93,-0.488,-3.601,29.702,-54.937,-145.514,-27.267,-15.747,2.773,24.1,0.36993,-0.35931,-0.34961,-0.7821,114,0.075,0.228,0.985,-0.061,-2.136,-4.028,12.552,-4.598,-174.419,-3.567,-13.687,-34.207,26.37,0.05475,-0.03387,-0.10989,-0.99182,126,0.933,0.331,0.05,-8.24,-1.953,-0.977,81.683,-71.076,121.025,-25.427,-22.56,4.94,29.08,0.02948,-0.64435,-0.24796,-0.72275,128
31,0.979,0.16,-0.23,-9.399,-0.61,1.526,147.041,-74.246,6.454,-23.007,-17.36,-0.333,26.79,0.19058,0.77353,-0.12506,0.59125,125,0.824,0.299,0.506,-3.662,-0.732,-3.784,29.734,-54.91,-145.624,-27.267,-15.747,2.773,24.1,0.36993,-0.35931,-0.34961,-0.7821,115,0.064,0.228,0.977,0.061,-2.38,-5.005,12.557,-4.62,-174.485,-3.567,-13.687,-34.207,26.37,0.05475,-0.03387,-0.10989,-0.99182,127,0.93,0.329,0.051,-8.789,-2.258,-0.793,81.65,-71.065,120.905,-25.427,-22.56,4.94,29.08,0.02948,-0.64435,-0.24796,-0.72275,129
32,0.978,0.163,-0.233,-9.705,-0.61,1.709,146.964,-74.251,6.361,-23.007,-17.36,-0.333,26.79,0.19058,0.77353,-0.12506,0.59125,130,0.821,0.298,0.504,-4.089,-1.465,-3.784,29.767,-54.893,-145.745,-27.267,-15.747,2.773,24.1,0.36993,-0.35931,-0.34961,-0.7821,122,0.062,0.231,0.979,0.0,-2.747,-5.92,12.574,-4.636,-174.573,-3.567,-13.687,-34.207,26.37,0.05475,-0.03387,-0.10989,-0.99182,134,0.926,0.329,0.047,-9.888,-2.869,-0.916,81.623,-71.049,120.745,-25.427,-22.56,4.94,29.08,0.02948,-0.64435,-0.24796,-0.72275,138
33,0.974,0.165,-0.237,-10.498,-0.793,1.831,146.887,-74.257,6.251,-23.007,-17.36,-0.333,26.79,0.19058,0.77353,-0.12506,0.59125,131,0.817,0.3,0.506,-4.761,-1.892,-4.028,29.806,-54.877,-145.871,-27.267,-15.747,2.773,24.1,0.36993,-0.35931,-0.34961,-0.7821,123,0.065,0.231,0.975,0.183,-3.296,-6.409,12.59,-4.664,-174.683,-3.567,-13.687,-34.207,26.37,0.05475,-0.03387,-0.10989,-0.99182,135,0.926,0.332,0.046,-10.437,-3.479,-0.854,81.612,-71.038,120.547,-25.427,-22.56,4.94,29.08,0.02948,-0.64435,-0.24796,-0.72275,139
34,0.974,0.165,-0.238,-11.475,-1.16,1.953,146.81,-74.251,6.136,-23.007,-17.36,-0.333,26.79,0.19058,0.77353,-0.12506,0.59125,136,0.81,0.304,0.509,-5.432,-2.38,-4.395,29.839,-54.871,-146.019,-27.267,-15.747,2.773,24.1,0.36993,-0.35931,-0.34961,-0.7821,132,0.068,0.23,0.971,0.0,-4.272,-6.775,12.607,-4.691,-174.787,-3.567,-13.687,-34.207,26.37,0.05475,-0.03387,-0.10989,-0.99182,142,0.927,0.333,0.048,-10.62,-3.784,-0.916,81.623,-71.027,120.339,-25.427,-22.56,4.94,29.08,0.02948,-0.64435,-0.24796,-0.72275,146
35,0.975,0.17,-0.232,-12.451,-1.343,2.319,146.739,-74.251,5.993,-23.007,-17.36,-0.333,26.79,0.19058,0.77353,-0.12506,0.59125,137,0.807,0.302,0.511,-6.287,-2.93,-4.456,29.872,-54.866,-146.173,-27.267,-15.747,2.773,24.1,0.36993,-0.35931,-0.34961,-0.7821,133,0.07,0.23,0.969,0.183,-4.578,-7.507,12.623,-4.741,-174.864,-3.567,-13.687,-34.207,26.37,0.05475,-0.03387,-0.10989,-0.99182,143,0.929,0.33,0.048,-11.047,-4.028,-0.732,81.639,-71.01,120.141,-25.427,-22.56,4.94,29.08,0.02948,-0.64435,-0.24796,-0.72275,147
36,0.976,0.165,-0.229,-13.062,-1.404,2.625,146.667,-74.246,5.812,-23.007,-17.36,-0.333,26.79,0.19058,0.77353,-0.12506,0.59125,144,0.807,0.302,0.508,-6.653,-3.418,-4.578,29.905,-54.871,-146.338,-27.1,-16.167,3.207,24.1,0.36993,-0.35931,-0.34961,-0.7821,140,0.078,0.232,0.968,-0.061,-4.517,-8.301,12.645,-4.785,-174.957,-3.567,-13.687,-34.207,26.37,0.05475,-0.03387,-0.10989,-0.99182,154,0.931,0.328,0.047,-11.108,-4.028,-0.488,81.656,-71.005,119.943,-25.427,-22.56,4.94,29.08,0.02948,-0.64435,-0.24796,-0.72275,148
37,0.978,0.159,-0.227,-12.695,-1.343,2.93,146.618,-74.251,5.603,-23.007,-17.36,-0.333,26.79,0.19058,0.77353,-0.12506,0.59125,145,0.807,0.302,0.506,-7.141,-3.845,-4.883,29.943,-54.882,-146.508,-27.1,-16.167,3.207,24.1,0.36993,-0.35931,-0.34961,-0.7821,141,0.067,0.233,0.971,-0.183,-4.15,-9.094,12.667,-4.823,-175.095,-3.567,-13.687,-34.207,26.37,0.05475,-0.03387,-0.10989,-0.99182,155,0.927,0.324,0.053,-11.047,-3.906,0.0,81.667,-71.005,119.751,-25.427,-22.56,4.94,29.08,0.02948,-0.64435,-0.24796,-0.72275,149
38,0.977,0.155,-0.225,-11.719,-1.099,3.296,146.596,-74.262,5.405,-23.007,-17.36,-0.333,26.79,0.19058,0.77353,-0.12506,0.59125,152,0.81,0.304,0.506,-7.874,-3.906,-5.249,29.976,-54.888,-146.684,-27.1,-16.167,3.207,24.1,0.36993,-0.35931,-0.34961,-0.7821,150,0.066,0.233,0.973,0.061,-3.174,-9.155,12.689,-4.85,-175.254,-3.24,-13.387,-34.26,26.37,0.05475,-0.03387,-0.10989,-0.99182,158,0.929,0.32,0.052,-10.986,-4.211,0.366,81.678,-71.016,119.553,-25.427,-22.56,4.94,29.08,0.02948,-0.64435,-0.24796,-0.72275,160
39,0.978,0.154,-0.224,-10.925,-1.16,3.54,146.613,-74.279,5.219,-23.007,-17.36,-0.333,26.79,0.19058,0.77353,-0.12506,0.59125,153,0.814,0.302,0.501,-8.179,-3.723,-5.371,30.009,-54.888,-146.86,-27.1,-16.167,3.207,24.1,0.36993,-0.35931,-0.34961,-0.7821,151,0.067,0.233,0.97,0.183,-3.235,-8.667,12.711,-4.861,-175.413,-3.24,-13.387,-34.26,26.37,0.05475,-0.03387,-0.10989,-0.99182,159,0.929,0.316,0.05,-10.742,-4.578,0.854,81.705,-71.032,119.328,-25.427,-22.56,4.94,29.08,0.02948,-0.64435,-0.24796,-0.72275,161
40,0.979,0.15,-0.228,-10.315,-1.465,3.784,146.662,-74.295,5.004,-23.007,-17.36,-0.333,26.79,0.19058,0.77353,-0.12506,0.59125,162,0.807,0.303,0.503,-8.606,-3.601,-5.493,30.031,-54.888,-147.041,-27.1,-16.167,3.207,24.1,0.3573,-0.36176,-0.34665,-0.78815,156,0.073,0.234,0.971,0.305,-3.906,-7.996,12.739,-4.878,-175.551,-3.24,-13.387,-34.26,26.37,0.05475,-0.03387,-0.10989,-0.99182,166,0.931,0.311,0.048,-10.193,-5.188,1.16,81.777,-71.065,119.064,-25.427,-22.56,4.94,29.08,0.02948,-0.64435,-0.24796,-0.72275,168
41,0.978,0.144,-0.23,-8.667,-1.648,3.967,146.766,-74.306,4.774,-23.007,-17.36,-0.333,26.79,0.19058,0.77353,-0.12506,0.59125,163,0.807,0.301,0.51,-8.972,-3.662,-5.371,30.048,-54.888,-147.222,-27.1,-16.167,3.207,24.1,0.3573,-0.36176,-0.34665,-0.78815,157,0.077,0.238,0.973,-0.061,-4.272,-7.507,12.766,-4.911,-175.693,-3.24,-13.387,-34.26,26.37,0.05475,-0.03387,-0.10989,-0.99182,167,0.931,0.312,0.046,-10.376,-5.554,1.404,81.87,-71.104,118.779,-25.427,-22.56,4.94,29.08,0.02948,-0.64435,-0.24796,-0.72275,169
42,0.976,0.146,-0.227,-7.812,-1.77,4.028,146.904,-74.323,4.526,-23.007,-17.36,-0.333,26.79,0.19058,0.77353,-0.12506,0.59125,174,0.809,0.297,0.509,-8.667,-3.845,-5.127,30.059,-54.888,-147.393,-27.1,-16.167,3.207,24.1,0.3573,-0.36176,-0.34665,-0.78815,164,0.084,0.235,0.973,-1.038,-4.761,-7.385,12.783,-4.949,-175.814,-3.24,-13.387,-34.26,26.37,0.04126,-0.03873,-0.1127,-0.99197,172,0.936,0.318,0.043,-10.376,-5.554,1.282,81.969,-71.142,118.51,-25.8,-23.407,4.567,29.08,0.02948,-0.64435,-0.24796,-0.72275,176
43,0.979,0.157,-0.226,-8.606,-1.77,4.883,147.068,-74.344,4.235,-23.007,-17.36,-0.333,26.79,0.19058,0.77353,-0.12506,0.59125,175,0.812,0.293,0.508,-8.606,-3.845,-4.639,30.064,-54.899,-147.557,-27.1,-16.167,3.207,24.1,0.3573,-0.36176,-0.34665,-0.78815,165,0.092,0.229,0.971,-1.831,-5.676,-7.507,12.777,-5.004,-175.924,-3.24,-13.387,-34.26,26.37,0.04126,-0.03873,-0.1127,-0.99197,173,0.937,0.308,0.045,-10.498,-5.615,1.831,82.062,-71.186,118.251,-25.8,-23.407,4.567,29.08,0.02948,-0.64435,-0.24796,-0.72275,177
44,0.98,0.144,-0.228,-8.667,-1.77,5.127,147.261,-74.366,3.911,-23.54,-17.213,-1.027,26.79,0.19058,0.77353,-0.12506,0.59125,180,0.813,0.294,0.503,-8.606,-4.272,-3.967,30.059,-54.921,-147.7,-27.1,-16.167,3.207,24.1,0.3573,-0.36176,-0.34665,-0.78815,170,0.091,0.223,0.971,-2.136,-5.188,-8.423,12.761,-5.07,-176.045,-3.24,-13.387,-34.26,26.37,0.04126,-0.03873,-0.1127,-0.99197,182,0.937,0.308,0.045,-10.62,-5.371,1.77,82.145,-71.235,118.01,-25.8,-23.407,4.567,29.08,0.01227,-0.65152,-0.23148,-0.72229,184
45,0.98,0.147,-0.225,-8.789,-2.075,4.456,147.426,-74.383,3.593,-23.54,-17.213,-1.027,26.79,0.19058,0.77353,-0.12506,0.59125,181,0.821,0.294,0.5,-8.484,-4.456,-3.54,30.048,-54.948,-147.821,-27.1,-16.167,3.207,24.1,0.3573,-0.36176,-0.34665,-0.78815,171,0.093,0.22,0.97,-2.747,-4.761,-8.24,12.739,-5.12,-176.193,-3.24,-13.387,-34.26,26.37,0.04126,-0.03873,-0.1127,-0.99197,183,0.937,0.305,0.04,-10.376,-5.371,1.77,82.227,-71.285,117.784,-25.8,-23.407,4.567,29.08,0.01227,-0.65152,-0.23148,-0.72229,185
46,0.98,0.141,-0.229,-8.728,-2.441,4.272,147.59,-74.388,3.296,-23.54,-17.213,-1.027,26.79,0.19058,0.77353,-0.12506,0.59125,190,0.822,0.29,0.5,-8.606,-4.395,-3.357,30.026,-54.981,-147.931,-27.1,-16.167,3.207,24.1,0.3573,-0.36176,-0.34665,-0.78815,178,0.099,0.219,0.971,-2.991,-4.761,-7.874,12.706,-5.169,-176.32,-3.24,-13.387,-34.26,26.37,0.04126,-0.03873,-0.1127,-0.99197,186,0.938,0.305,0.036,-9.949,-5.249,1.831,82.321,-71.334,117.548,-25.8,-23.407,4.567,29.08,0.01227,-0.65152,-0.23148,-0.72229,192
47,0.981,0.136,-0.231,-7.874,-2.441,4.211,147.772,-74.394,3.005,-23.54,-17.213,-1.027,26.79,0.19058,0.77353,-0.12506,0.59125,191,0.822,0.284,0.5,-8.911,-4.517,-3.357,29.998,-55.02,-148.046,-27.1,-16.167,3.207,24.1,0.3573,-0.36176,-0.34665,-0.78815,179,0.104,0.221,0.972,-2.991,-4.7,-7.385,12.667,-5.224,-176.429,-3.24,-13.387,-34.26,26.37,0.04126,-0.03873,-0.1127,-0.99197,187,0.942,0.312,0.035,-9.827,-5.066,1.648,82.403,-71.378,117.307,-25.8,-23.407,4.567,29.08,0.01227,-0.65152,-0.23148,-0.72229,193
48,0.982,0.14,-0.231,-7.141,-2.075,4.456,147.969,-74.405,2.714,-23.54,-17.213,-1.027,26.79,0.20581,0.76932,-0.1481,0.5863,194,0.823,0.282,0.498,-9.277,-4.456,-3.418,29.965,-55.052,-148.173,-27.1,-16.167,3.207,24.1,0.3573,-0.36176,-0.34665,-0.78815,188,0.101,0.215,0.969,-2.747,-4.517,-7.69,12.629,-5.279,-176.561,-3.24,-13.387,-34.26,26.37,0.04126,-0.03873,-0.1127,-0.99197,198,0.938,0.304,0.034,-9.949,-4.822,1.953,82.48,-71.433,117.076,-25.8,-23.407,4.567,29.08,0.01227,-0.65152,-0.23148,-0.72229,200
49,0.981,0.135,-0.234,-7.385,-1.953,5.432,148.206,-74.427,2.379,-23.54,-17.213,-1.027,26.79,0.20581,0.76932,-0.1481,0.5863,195,0.826,0.282,0.494,-9.399,-4.517,-3.418,29.932,-55.091,-148.31,-27.1,-16.167,3.207,24.1,0.3573,-0.36176,-0.34665,-0.78815,189,0.106,0.217,0.975,-2.808,-4.028,-8.789,12.596,-5.323,-176.732,-3.24,-13.387,-34.26,26.37,0.04126,-0.03873,-0.1127,-0.99197,199,0.938,0.308,0.032,-9.949,-4.761,1.648,82.551,-71.477,116.823,-25.8,-23.407,4.567,29.08,0.01227,-0.65152,-0.23148,-0.72229,201
50,0.979,0.146,-0.237,-7.446,-2.197,4.272,148.414,-74.438,2.082,-23.54,-17.213,-1.027,26.79,0.20581,0.76932,-0.1481,0.5863,202,0.832,0.282,0.491,-9.46,-4.456,-3.418,29.888,-55.129,-148.436,-27.1,-16.167,3.207,24.1,0.3573,-0.36176,-0.34665,-0.78815,196,0.105,0.215,0.966,-3.235,-3.906,-9.277,12.557,-5.361,-176.94,-3.24,-13.387,-34.26,26.37,0.04126,-0.03873,-0.1127,-0.99197,204,0.936,0.31,0.031,-10.315,-4.7,1.282,82.617,-71.516,116.581,-25.8,-23.407,4.567,29.08,0.01227,-0.65152,-0.23148,-0.72229,208
51,0.979,0.146,-0.239,-8.606,-2.38,3.967,148.579,-74.443,1.824,-23.54,-17.213,-1.027,26.79,0.20581,0.76932,-0.1481,0.5863,203,0.827,0.283,0.492,-9.644,-4.395,-3.54,29.85,-55.168,-148.563,-27.1,-16.167,3.207,24.1,0.3573,-0.36176,-0.34665,-0.78815,197,0.104,0.208,0.966,-3.113,-3.845,-9.521,12.519,-5.4,-177.177,-3.24,-13.387,-34.26,26.37,0.04126,-0.03873,-0.1127,-0.99197,205,0.937,0.309,0.027,-10.498,-4.761,1.038,82.689,-71.554,116.351,-25.8,-23.407,4.567,29.08,0.01227,-0.65152,-0.23148,-0.72229,209
52,0.98,0.142,-0.242,-8.972,-2.441,3.967,148.733,-74.438,1.533,-23.54,-17.213,-1.027,26.79,0.20581,0.76932,-0.1481,0.5863,214,0.827,0.281,0.49,-10.01,-4.395,-3.662,29.806,-55.206,-148.689,-27.1,-16.167,3.207,24.1,0.3573,-0.36176,-0.34665,-0.78815,206,0.119,0.209,0.964,-1.953,-3.479,-10.193,12.48,-5.433,-177.407,-3.24,-13.387,-34.26,26.37,0.04126,-0.03873,-0.1127,-0.99197,212,0.943,0.306,0.029,-9.766,-4.822,0.854,82.782,-71.581,116.109,-25.8,-23.407,4.567,29.08,0.01227,-0.65152,-0.23148,-0.72229,216
53,0.982,0.139,-0.242,-8.24,-2.136,4.089,148.892,-74.443,1.241,-23.54,-17.213,-1.027,26.79,0.20581,0.76932,-0.1481,0.5863,215,0.825,0.279,0.489,-10.193,-4.15,-3.906,29.762,-55.245,-148.815,-27.1,-16.167,3.207,24.1,0.3573,-0.36176,-0.34665,-0.78815,207,0.115,0.217,0.962,-1.038,-3.357,-9.888,12.469,-5.455,-177.643,-3.24,-13.387,-34.26,26.37,0.04126,-0.03873,-0.1127,-0.99197,213,0.943,0.301,0.034,-9.888,-4.517,0.549,82.864,-71.609,115.862,-25.8,-23.407,4.567,29.08,0.01227,-0.65152,-0.23148,-0.72229,217
54,0.98,0.138,-0.235,-7.08,-1.77,4.272,149.068,-74.454,0.972,-23.54,-17.213,-1.027,26.79,0.20581,0.76932,-0.1481,0.5863,218,0.826,0.281,0.489,-10.864,-3.845,-4.578,29.718,-55.267,-148.958,-26.807,-15.853,3.213,24.1,0.3573,-0.36176,-0.34665,-0.78815,210,0.109,0.219,0.969,-1.526,-2.441,-8.911,12.469,-5.477,-177.874,-3.24,-13.387,-34.26,26.37,0.04126,-0.03873,-0.1127,-0.99197,222,0.942,0.297,0.028,-9.827,-4.089,0.366,82.925,-71.625,115.642,-25.8,-23.407,4.567,29.08,0.01227,-0.65152,-0.23148,-0.72229,224
55,0.98,0.136,-0.234,-7.568,-1.77,4.089,149.238,-74.465,0.703,-23.54,-17.213,-1.027,26.79,0.20581,0.76932,-0.1481,0.5863,219,0.835,0.278,0.486,-11.475,-3.418,-5.066,29.669,-55.278,-149.123,-26.807,-15.853,3.213,24.1,0.3573,-0.36176,-0.34665,-0.78815,211,0.108,0.213,0.975,-1.77,-2.136,-7.996,12.458,-5.493,-178.088,-3.24,-13.387,-34.26,26.37,0.04126,-0.03873,-0.1127,-0.99197,223,0.94,0.298,0.027,-9.705,-3.723,0.122,82.963,-71.642,115.45,-25.8,-23.407,4.567,29.08,0.01227,-0.65152,-0.23148,-0.72229,225
56,0.98,0.135,-0.235,-8.545,-1.77,3.784,149.376,-74.471,0.439,-23.54,-17.213,-1.027,26.79,0.20581,0.76932,-0.1481,0.5863,228,0.835,0.278,0.486,-11.292,-3.052,-5.249,29.619,-55.283,-149.288,-26.807,-15.853,3.213,24.1,0.3573,-0.36176,-0.34665,-0.78815,220,0.108,0.209,0.971,-1.343,-2.502,-7.874,12.442,-5.51,-178.275,-3.607,-14.027,-33.78,26.37,0.04126,-0.03873,-0.1127,-0.99197,230,0.939,0.298,0.029,-9.521,-3.418,-0.061,82.996,-71.653,115.263,-25.8,-23.407,4.567,29.08,0.01227,-0.65152,-0.23148,-0.72229,232
57,0.98,0.135,-0.234,-9.766,-1.587,3.418,149.447,-74.476,0.214,-23.54,-17.213,-1.027,26.79,0.20581,0.76932,-0.1481,0.5863,229,0.833,0.272,0.488,-10.925,-2.747,-5.066,29.57,-55.289,-149.453,-26.807,-15.853,3.213,24.1,0.3573,-0.36176,-0.34665,-0.78815,221,0.109,0.207,0.968,-0.671,-2.502,-7.69,12.437,-5.532,-178.473,-3.607,-14.027,-33.78,26.37,0.04126,-0.03873,-0.1127,-0.99197,231,0.941,0.3,0.028,-9.888,-3.235,-0.366,83.007,-71.658,115.098,-25.8,-23.407,4.567,29.08,0.01227,-0.65152,-0.23148,-0.72229,233
58,0.982,0.134,-0.238,-10.559,-1.587,3.174,149.491,-74.482,0.022,-23.54,-17.213,-1.027,26.79,0.20581,0.76932,-0.1481,0.5863,234,0.828,0.271,0.49,-10.376,-2.563,-5.005,29.526,-55.289,-149.606,-26.807,-15.853,3.213,24.1,0.33981,-0.3732,-0.33624,-0.79501,226,0.109,0.206,0.969,-0.366,-2.38,-7.751,12.437,-5.554,-178.676,-3.607,-14.027,-33.78,26.37,0.04126,-0.03873,-0.1127,-0.99197,238,0.941,0.302,0.03,-9.949,-3.174,-0.549,83.018,-71.658,114.944,-25.793,-23.033,5.327,29.08,0.01227,-0.65152,-0.23148,-0.72229,240
59,0.981,0.134,-0.238,-11.047,-1.526,2.991,149.513,-74.482,-0.132,-23.54,-17.213,-1.027,26.79,0.20581,0.76932,-0.1481,0.5863,235,0.828,0.271,0.49,-9.644,-2.625,-5.066,29.498,-55.289,-149.744,-26.807,-15.853,3.213,24.1,0.33981,-0.3732,-0.33624,-0.79501,227,0.104,0.209,0.969,-0.366,-1.648,-8.362,12.448,-5.57,-178.868,-3.607,-14.027,-33.78,26.37,0.04126,-0.03873,-0.1127,-0.99197,239,0.939,0.302,0.031,-10.315,-3.052,-0.671,83.013,-71.658,114.802,-25.793,-23.033,5.327,29.08,0.01227,-0.65152,-0.23148,-0.72229,241
60,0.98,0.135,-0.237,-11.353,-1.526,2.991,149.529,-74.487,-0.297,-23.54,-17.213,-1.027,26.79,0.20581,0.76932,-0.1481,0.5863,244,0.829,0.271,0.492,-8.85,-2.686,-5.249,29.493,-55.289,-149.881,-26.807,-15.853,3.213,24.1,0.33981,-0.3732,-0.33624,-0.79501,236,0.102,0.216,0.973,-0.244,-1.404,-8.85,12.453,-5.57,-179.061,-3.607,-14.027,-33.78,26.37,0.01587,-0.04709,-0.10873,-0.99277,246,0.94,0.298,0.03,-10.193,-3.174,-0.854,83.018,-71.653,114.664,-25.793,-23.033,5.327,29.08,-0.00089,-0.65894,-0.21591,-0.72046,248
61,0.981,0.133,-0.239,-11.658,-1.648,2.869,149.54,-74.487,-0.472,-23.54,-17.213,-1.027,26.79,0.20581,0.76932,-0.1481,0.5863,245,0.829,0.271,0.493,-8.301,-2.747,-5.554,29.504,-55.289,-150.035,-26.807,-15.853,3.213,24.1,0.33981,-0.3732,-0.33624,-0.79501,237,0.106,0.215,0.974,-0.122,-2.014,-8.362,12.464,-5.57,-179.236,-3.607,-14.027,-33.78,26.37,0.01587,-0.04709,-0.10873,-0.99277,247,0.942,0.294,0.029,-9.46,-3.357,-1.221,83.057,-71.647,114.51,-25.793,-23.033,5.327,29.08,-0.00089,-0.65894,-0.21591,-0.72046,249
62,0.983,0.131,-0.239,-11.78,-1.587,2.747,149.54,-74.487,-0.659,-23.753,-16.853,-0.66,26.79,0.20581,0.76932,-0.1481,0.5863,254,0.826,0.276,0.493,-8.667,-2.502,-5.92,29.509,-55.278,-150.189,-26.807,-15.853,3.213,24.1,0.33981,-0.3732,-0.33624,-0.79501,242,0.11,0.217,0.973,-0.305,-2.686,-7.568,12.475,-5.581,-179.429,-3.607,-14.027,-33.78,26.37,0.01587,-0.04709,-0.10873,-0.99277,252,0.939,0.298,0.031,-8.728,-3.113,-1.465,83.09,-71.631,114.379,-25.793,-23.033,5.327,29.08,-0.00089,-0.65894,-0.21591,-0.72046,256
63,0.979,0.13,-0.234,-11.414,-1.404,2.563,149.535,-74.487,-0.846,-23.753,-16.853,-0.66,26.79,0.20581,0.76932,-0.1481,0.5863,255,0.827,0.275,0.495,-8.728,-2.441,-5.92,29.515,-55.272,-150.337,-26.807,-15.853,3.213,24.1,0.33981,-0.3732,-0.33624,-0.79501,243,0.104,0.216,0.971,-0.244,-1.953,-7.08,12.486,-5.603,-179.621,-3.607,-14.027,-33.78,26.37,0.01587,-0.04709,-0.10873,-0.99277,253,0.94,0.301,0.031,-8.545,-2.747,-1.465,83.112,-71.614,114.269,-25.793,-23.033,5.327,29.08,-0.00089,-0.65894,-0.21591,-0.72046,257
64,0.981,0.127,-0.232,-11.597,-1.343,2.502,149.518,-74.493,-1.027,-23.753,-16.853,-0.66,26.79,0.21469,0.76648,-0.16626,0.58197,258,0.83,0.27,0.495,-8.545,-2.38,-5.615,29.515,-55.261,-150.48,-26.807,-15.853,3.213,24.1,0.33981,-0.3732,-0.33624,-0.79501,250,0.107,0.217,0.97,0.122,-1.892,-6.836,12.497,-5.62,-179.819,-3.607,-14.027,-33.78,26.37,0.01587,-0.04709,-0.10873,-0.99277,262,0.939,0.304,0.034,-8.789,-2.686,-1.16,83.117,-71.603,114.159,-25.793,-23.033,5.327,29.08,-0.00089,-0.65894,-0.21591,-0.72046,264
65,0.98,0.129,-0.234,-11.169,-0.977,2.441,149.496,-74.498,-1.187,-23.753,-16.853,-0.66,26.79,0.21469,0.76648,-0.16626,0.58197,259,0.828,0.273,0.494,-7.446,-2.502,-5.371,29.531,-55.261,-150.617,-26.807,-15.853,3.213,24.1,0.33981,-0.3732,-0.33624,-0.79501,251,0.106,0.222,0.968,0.549,-1.465,-6.592,12.513,-5.63,179.978,-3.607,-14.027,-33.78,26.37,0.01587,-0.04709,-0.10873,-0.99277,263,0.94,0.301,0.034,-9.705,-2.441,-0.793,83.084,-71.598,114.088,-25.793,-23.033,5.327,29.08,-0.00089,-0.65894,-0.21591,-0.72046,265
66,0.98,0.13,-0.231,-10.986,-0.916,2.441,149.474,-74.509,-1.324,-23.753,-16.853,-0.66,26.79,0.21469,0.76648,-0.16626,0.58197,276,0.825,0.277,0.493,-6.653,-2.686,-5.249,29.564,-55.261,-150.754,-26.807,-15.853,3.213,24.1,0.33981,-0.3732,-0.33624,-0.79501,260,0.108,0.224,0.972,0.549,-1.16,-6.348,12.535,-5.636,179.808,-3.607,-14.027,-33.78,26.37,0.01587,-0.04709,-0.10873,-0.99277,268,0.941,0.294,0.033,-10.01,-2.136,-0.671,83.029,-71.598,114.033,-25.793,-23.033,5.327,29.08,-0.00089,-0.65894,-0.21591,-0.72046,270
67,0.981,0.13,-0.23,-11.536,-1.038,2.258,149.436,-74.515,-1.439,-23.753,-16.853,-0.66,26.79,0.21469,0.76648,-0.16626,0.58197,277,0.828,0.281,0.495,-6.47,-2.563,-5.371,29.603,-55.256,-150.892,-26.807,-15.853,3.213,24.1,0.33981,-0.3732,-0.33624,-0.79501,261,0.108,0.216,0.967,0.061,-0.671,-5.798,12.557,-5.63,179.665,-3.607,-14.027,-33.78,26.37,0.01587,-0.04709,-0.10873,-0.99277,269,0.939,0.292,0.032,-9.644,-1.77,-1.038,82.963,-71.592,113.972,-25.793,-23.033,5.327,29.08,-0.00089,-0.65894,-0.21591,-0.72046,271
68,0.98,0.129,-0.229,-11.902,-0.977,2.075,149.381,-74.526,-1.549,-23.753,-16.853,-0.66,26.79,0.21469,0.76648,-0.16626,0.58197,280,0.828,0.283,0.494,-6.042,-2.441,-5.31,29.647,-55.25,-151.04,-26.807,-15.853,3.213,24.1,0.33981,-0.3732,-0.33624,-0.79501,266,0.102,0.209,0.971,0.977,-0.488,-4.028,12.574,-5.63,179.544,-3.607,-14.027,-33.78,26.37,0.01587,-0.04709,-0.10873,-0.99277,274,0.94,0.29,0.032,-9.521,-1.709,-1.587,82.897,-71.57,113.917,-25.793,-23.033,5.327,29.08,-0.00089,-0.65894,-0.21591,-0.72046,278
69,0.981,0.127,-0.233,-12.207,-0.854,1.892,149.304,-74.531,-1.648,-23.753,-16.853,-0.66,26.79,0.21469,0.76648,-0.16626,0.58197,281,0.826,0.275,0.491,-4.944,-2.502,-4.944,29.702,-55.25,-151.172,-26.807,-15.853,3.213,24.1,0.33981,-0.3732,-0.33624,-0.79501,267,0.102,0.221,0.975,2.686,-0.549,-2.38,12.612,-5.63,179.456,-3.607,-14.027,-33.78,26.37,0.01587,-0.04709,-0.10873,-0.99277,275,0.942,0.297,0.032,-10.254,-1.709,-1.648,82.82,-71.554,113.862,-25.793,-23.033,5.327,29.08,-0.00089,-0.65894,-0.21591,-0.72046,279
70,0.982,0.126,-0.233,-12.451,-0.671,1.648,149.2,-74.537,-1.73,-23.753,-16.853,-0.66,26.79,0.21469,0.76648,-0.16626,0.58197,284,0.828,0.265,0.494,-2.991,-2.502,-4.456,29.784,-55.256,-151.282,-26.807,-15.853,3.213,24.1,0.33981,-0.3732,-0.33624,-0.79501,272,0.098,0.22,0.977,1.953,-1.282,-1.404,12.667,-5.636,179.418,-3.607,-14.027,-33.78,26.37,0.01587,-0.04709,-0.10873,-0.99277,282,0.943,0.305,0.037,-9.949,-1.892,-1.343,82.755,-71.543,113.791,-25.793,-23.033,5.327,29.08,-0.00089,-0.65894,-0.21591,-0.72046,288
71,0.983,0.128,-0.234,-12.329,-0.549,1.526,149.09,-74.548,-1.785,-23.753,-16.853,-0.66,26.79,0.21469,0.76648,-0.16626,0.58197,285,0.827,0.267,0.494,-1.526,-2.747,-4.089,29.888,-55.267,-151.375,-26.807,-15.853,3.213,24.1,0.33981,-0.3732,-0.33624,-0.79501,273,0.109,0.232,0.977,2.136,-1.343,-1.709,12.706,-5.663,179.39,-3.607,-14.027,-33.78,26.37,0.01587,-0.04709,-0.10873,-0.99277,283,0.94,0.301,0.036,-9.46,-2.136,-0.916,82.711,-71.537,113.703,-25.793,-23.033,5.327,29.08,-0.00089,-0.65894,-0.21591,-0.72046,289
72,0.982,0.132,-0.232,-11.475,-0.793,1.587,149.013,-74.553,-1.835,-23.753,-16.853,-0.66,26.79,0.21469,0.76648,-0.16626,0.58197,290,0.827,0.275,0.494,0.488,-3.235,-3.601,30.02,-55.294,-151.452,-26.527,-15.86,3.0,24.1,0.33981,-0.3732,-0.33624,-0.79501,286,0.112,0.232,0.968,1.648,-0.916,-2.502,12.75,-5.68,179.319,-3.607,-14.027,-33.78,26.37,0.01587,-0.04709,-0.10873,-0.99277,296,0.937,0.304,0.034,-8.24,-1.77,-0.549,82.667,-71.537,113.604,-26.007,-23.253,3.607,29.08,-0.00089,-0.65894,-0.21591,-0.72046,298
73,0.979,0.132,-0.229,-10.803,-1.038,1.526,148.953,-74.553,-1.895,-23.753,-16.853,-0.66,26.79,0.21469,0.76648,-0.16626,0.58197,291,0.83,0.287,0.501,1.343,-3.723,-3.54,30.179,-55.327,-151.54,-26.527,-15.86,3.0,24.1,0.33981,-0.3732,-0.33624,-0.79501,287,0.11,0.229,0.96,1.465,-0.305,-2.747,12.788,-5.691,179.253,-3.607,-14.027,-33.78,26.37,0.01587,-0.04709,-0.10873,-0.99277,297,0.937,0.305,0.033,-7.629,-1.526,0.061,82.617,-71.548,113.527,-26.007,-23.253,3.607,29.08,-0.00089,-0.65894,-0.21591,-0.72046,299
74,0.98,0.13,-0.231,-9.827,-0.916,1.587,148.909,-74.559,-1.961,-23.753,-16.853,-0.66,26.79,0.21469,0.76648,-0.16626,0.58197,294,0.828,0.292,0.493,0.977,-3.662,-3.296,30.322,-55.36,-151.622,-26.527,-15.86,3.0,24.1,0.3273,-0.37787,-0.33426,-0.79892,292,0.112,0.236,0.961,1.404,-0.183,-2.686,12.827,-5.685,179.171,-3.487,-13.767,-34.033,26.37,0.01587,-0.04709,-0.10873,-0.99277,302,0.945,0.296,0.033,-7.08,-1.16,0.549,82.557,-71.57,113.489,-26.007,-23.253,3.607,29.08,-0.01172,-0.66092,-0.20639,-0.72134,304
75,0.981,0.127,-0.231,-8.423,-0.671,1.587,148.887,-74.564,-2.016,-23.753,-16.853,-0.66,26.79,0.21469,0.76648,-0.16626,0.58197,295,0.825,0.293,0.484,0.122,-2.93,-2.869,30.432,-55.382,-151.688,-26.527,-15.86,3.0,24.1,0.3273,-0.37787,-0.33426,-0.79892,293,0.111,0.232,0.969,0.427,0.0,-2.93,12.854,-5.68,179.088,-3.487,-13.767,-34.033,26.37,0.01587,-0.04709,-0.10873,-0.99277,303,0.949,0.285,0.029,-4.578,-0.549,0.671,82.491,-71.598,113.494,-26.007,-23.253,3.607,29.08,-0.01172,-0.66092,-0.20639,-0.72134,305
76,0.982,0.126,-0.23,-7.385,-0.61,1.465,148.876,-74.57,-2.06,-23.753,-16.853,-0.66,26.79,0.21469,0.76648,-0.16626,0.58197,306,0.826,0.297,0.481,-0.61,-2.38,-2.686,30.515,-55.399,-151.738,-26.527,-15.86,3.0,24.1,0.3273,-0.37787,-0.33426,-0.79892,300,0.119,0.226,0.972,-0.61,0.122,-3.479,12.859,-5.669,178.995,-3.487,-13.767,-34.033,26.37,0.01587,-0.04709,-0.10873,-0.99277,312,0.947,0.278,0.026,-2.319,0.0,0.183,82.447,-71.614,113.527,-26.007,-23.253,3.607,29.08,-0.01172,-0.66092,-0.20639,-0.72134,310
77,0.986,0.125,-0.233,-6.531,-0.427,1.16,148.859,-74.581,-2.076,-23.753,-16.853,-0.66,26.79,0.21469,0.76648,-0.16626,0.58197,307,0.832,0.289,0.482,-1.221,-1.648,-2.258,30.569,-55.404,-151.754,-26.527,-15.86,3.0,24.1,0.3273,-0.37787,-0.33426,-0.79892,301,0.135,0.217,0.974,-0.61,-0.549,-2.319,12.859,-5.669,178.901,-3.487,-13.767,-34.033,26.37,0.01587,-0.04709,-0.10873,-0.99277,313,0.943,0.28,0.03,1.038,0.366,-0.61,82.43,-71.625,113.599,-26.007,-23.253,3.607,29.08,-0.01172,-0.66092,-0.20639,-0.72134,311
78,0.984,0.124,-0.231,-5.981,-0.427,0.671,148.826,-74.581,-2.065,-23.753,-16.853,-0.66,26.79,0.21469,0.76648,-0.16626,0.58197,316,0.835,0.284,0.484,-1.587,-1.221,-1.526,30.591,-55.415,-151.743,-26.527,-15.86,3.0,24.1,0.3273,-0.37787,-0.33426,-0.79892,308,0.104,0.213,0.959,-0.122,0.854,0.488,12.854,-5.669,178.819,-3.487,-13.767,-34.033,26.37,-0.00439,-0.05029,-0.11133,-0.99246,318,0.939,0.292,0.041,1.343,0.244,-1.099,82.458,-71.625,113.659,-26.007,-23.253,3.607,29.08,-0.01172,-0.66092,-0.20639,-0.72134,320
79,0.984,0.125,-0.237,-4.456,-0.366,0.122,148.788,-74.581,-2.032,-23.753,-16.853,-0.66,26.79,0.21469,0.76648,-0.16626,0.58197,317,0.843,0.275,0.486,-0.977,-1.221,-0.793,30.602,-55.432,-151.71,-26.527,-15.86,3.0,24.1,0.3273,-0.37787,-0.33426,-0.79892,309,0.121,0.203,0.975,0.549,-0.61,0.732,12.859,-5.68,178.792,-3.487,-13.767,-34.033,26.37,-0.00439,-0.05029,-0.11133,-0.99246,319,0.936,0.294,0.032,1.404,0.671,-0.854,82.485,-71.62,113.741,-26.007,-23.253,3.607,29.08,-0.01172,-0.66092,-0.20639,-0.72134,321
80,0.982,0.125,-0.231,-2.93,-0.183,-0.061,148.76,-74.581,-1.989,-23.753,-16.853,-0.66,26.79,0.21469,0.76648,-0.16626,0.58197,322,0.837,0.26,0.473,0.793,-0.793,0.0,30.624,-55.453,-151.644,-26.527,-15.86,3.0,24.1,0.3273,-0.37787,-0.33426,-0.79892,314,0.114,0.217,0.958,0.671,0.0,1.038,12.865,-5.702,178.748,-3.487,-13.767,-34.033,26.37,-0.00439,-0.05029,-0.11133,-0.99246,326,0.938,0.292,0.03,1.648,1.221,-0.61,82.491,-71.614,113.851,-26.007,-23.253,3.607,29.08,-0.01172,-0.66092,-0.20639,-0.72134,330
81,0.979,0.125,-0.228,-1.953,-0.122,-0.122,148.749,-74.581,-1.939,-23.753,-16.853,-0.66,26.79,0.21469,0.76648,-0.16626,0.58197,323,0.828,0.257,0.487,2.319,-0.244,0.61,30.646,-55.47,-151.551,-26.527,-15.86,3.0,24.1,0.3273,-0.37787,-0.33426,-0.79892,315,0.111,0.219,0.96,0.488,0.977,1.16,12.876,-5.707,178.698,-3.487,-13.767,-34.033,26.37,-0.00439,-0.05029,-0.11133,-0.99246,327,0.942,0.293,0.034,2.136,1.709,-0.549,82.463,-71.609,113.978,-26.007,-23.253,3.607,29.08,-0.01172,-0.66092,-0.20639,-0.72134,331
82,0.982,0.126,-0.229,-1.099,0.305,-0.122,148.744,-74.592,-1.868,-23.967,-16.853,-1.44,26.79,0.21469,0.76648,-0.16626,0.58197,328,0.83,0.274,0.488,2.686,-0.061,0.61,30.674,-55.486,-151.469,-26.527,-15.86,3.0,24.1,0.3273,-0.37787,-0.33426,-0.79892,324,0.114,0.214,0.961,0.488,1.404,1.221,12.876,-5.702,178.654,-3.487,-13.767,-34.033,26.37,-0.00439,-0.05029,-0.11133,-0.99246,334,0.946,0.292,0.032,2.502,2.014,-0.366,82.419,-71.609,114.131,-26.007,-23.253,3.607,29.08,-0.01172,-0.66092,-0.20639,-0.72134,336
83,0.983,0.126,-0.229,0.0,0.61,-0.305,148.733,-74.603,-1.758,-23.967,-16.853,-1.44,26.79,0.21469,0.76648,-0.16626,0.58197,329,0.827,0.28,0.476,3.235,0.427,0.61,30.707,-55.492,-151.375,-26.527,-15.86,3.0,24.1,0.3273,-0.37787,-0.33426,-0.79892,325,0.109,0.216,0.964,1.404,2.075,2.258,12.892,-5.685,178.654,-3.487,-13.767,-34.033,26.37,-0.00439,-0.05029,-0.11133,-0.99246,335,0.948,0.289,0.037,3.357,2.136,-0.366,82.37,-71.609,114.291,-26.007,-23.253,3.607,29.08,-0.01172,-0.66092,-0.20639,-0.72134,337
84,0.984,0.125,-0.23,0.916,0.916,-0.488,148.716,-74.614,-1.631,-23.967,-16.853,-1.44,26.79,0.21469,0.76648,-0.16626,0.58197,338,0.828,0.278,0.477,2.869,0.61,0.732,30.723,-55.497,-151.271,-26.527,-15.86,3.0,24.1,0.3273,-0.37787,-0.33426,-0.79892,332,0.104,0.219,0.976,1.038,2.258,1.953,12.909,-5.663,178.676,-3.487,-13.767,-34.033,26.37,-0.00439,-0.05029,-0.11133,-0.99246,340,0.946,0.288,0.036,4.028,2.014,-0.549,82.337,-71.609,114.45,-26.007,-23.253,3.607,29.08,-0.01172,-0.66092,-0.20639,-0.72134,342
85,0.985,0.126,-0.229,1.404,0.977,-0.732,148.694,-74.63,-1.489,-23.967,-16.853,-1.44,26.79,0.21469,0.76648,-0.16626,0.58197,339,0.833,0.282,0.479,2.197,1.221,0.671,30.723,-55.492,-151.155,-26.527,-15.86,3.0,24.1,0.3273,-0.37787,-0.33426,-0.79892,333,0.104,0.216,0.979,0.488,2.197,2.563,12.914,-5.636,178.704,-3.487,-13.767,-34.033,26.37,-0.00439,-0.05029,-0.11133,-0.99246,341,0.942,0.295,0.034,4.272,1.709,-0.793,82.321,-71.603,114.615,-26.007,-23.253,3.607,29.08,-0.01172,-0.66092,-0.20639,-0.72134,343
86,0.986,0.126,-0.232,1.953,0.977,-1.038,148.661,-74.641,-1.351,-23.967,-16.853,-1.44,26.79,0.22241,0.76352,-0.17389,0.58069,348,0.835,0.278,0.485,2.441,1.953,0.854,30.712,-55.475,-151.024,-26.527,-15.86,3.0,24.1,0.3273,-0.37787,-0.33426,-0.79892,344,0.104,0.216,0.98,0.366,1.831,2.502,12.914,-5.62,178.742,-3.487,-13.767,-34.033,26.37,-0.00439,-0.05029,-0.11133,-0.99246,346,0.935,0.301,0.032,3.784,1.77,-0.793,82.321,-71.598,114.763,-26.007,-23.253,3.607,29.08,-0.01172,-0.66092,-0.20639,-0.72134,352
87,0.98,0.128,-0.235,2.075,0.916,-1.343,148.618,-74.647,-1.208,-23.967,-16.853,-1.44,26.79,0.22241,0.76352,-0.17389,0.58069,349,0.835,0.277,0.489,2.075,2.258,1.099,30.685,-55.459,-150.886,-26.527,-15.86,3.0,24.1,0.3273,-0.37787,-0.33426,-0.79892,345,0.099,0.222,0.975,-0.488,1.953,2.197,12.903,-5.603,178.792,-3.487,-13.767,-34.033,26.37,-0.00439,-0.05029,-0.11133,-0.99246,347,0.937,0.299,0.032,3.479,1.953,-0.793,82.304,-71.587,114.917,-26.007,-23.253,3.607,29.08,-0.01172,-0.66092,-0.20639,-0.72134,353
88,0.98,0.135,-0.23,0.793,1.038,-1.77,148.541,-74.647,-1.038,-23.967,-16.853,-1.44,26.79,0.22241,0.76352,-0.17389,0.58069,354,0.83,0.273,0.494,2.197,2.075,1.587,30.646,-55.448,-150.738,-26.753,-15.913,3.073,24.1,0.3273,-0.37787,-0.33426,-0.79892,350,0.104,0.221,0.969,-0.427,0.977,1.526,12.887,-5.587,178.841,-3.487,-13.767,-34.033,26.37,-0.00439,-0.05029,-0.11133,-0.99246,356,0.938,0.299,0.036,3.052,2.075,-0.977,82.277,-71.576,115.071,-25.68,-23.107,5.12,29.08,-0.01172,-0.66092,-0.20639,-0.72134,360
89,0.982,0.138,-0.229,0.0,1.099,-1.953,148.431,-74.652,-0.846,-23.967,-16.853,-1.44,26.79,0.22241,0.76352,-0.17389,0.58069,355,0.824,0.284,0.486,2.625,1.587,1.831,30.613,-55.443,-150.584,-26.753,-15.913,3.073,24.1,0.3273,-0.37787,-0.33426,-0.79892,351,0.099,0.221,0.967,0.122,1.221,2.014,12.881,-5.581,178.857,-3.487,-13.767,-34.033,26.37,-0.00439,-0.05029,-0.11133,-0.99246,357,0.938,0.304,0.042,3.052,2.258,-1.038,82.233,-71.559,115.241,-25.68,-23.107,5.12,29.08,-0.01172,-0.66092,-0.20639,-0.72134,361
90,0.983,0.138,-0.227,0.0,1.038,-2.136,148.288,-74.652,-0.632,-23.967,-16.853,-1.44,26.79,0.22241,0.76352,-0.17389,0.58069,362,0.827,0.282,0.483,3.235,1.404,1.953,30.591,-55.443,-150.425,-26.753,-15.913,3.073,24.1,0.3273,-0.37787,-0.33426,-0.79892,358,0.088,0.223,0.968,-0.061,1.221,2.808,12.87,-5.576,178.907,-3.487,-13.767,-34.033,26.37,-0.00439,-0.05029,-0.11133,-0.99246,368,0.936,0.307,0.043,3.418,2.197,-1.038,82.189,-71.543,115.428,-25.68,-23.107,5.12,29.08,-0.00171,-0.65726,-0.21552,-0.72211,370
91,0.98,0.137,-0.228,0.916,0.854,-2.075,148.151,-74.647,-0.412,-23.967,-16.853,-1.44,26.79,0.22241,0.76352,-0.17389,0.58069,363,0.823,0.281,0.488,3.967,1.404,2.075,30.58,-55.443,-150.271,-26.753,-15.913,3.073,24.1,0.3273,-0.37787,-0.33426,-0.79892,359,0.091,0.223,0.972,0.549,1.709,3.174,12.87,-5.565,178.995,-3.487,-13.767,-34.033,26.37,-0.00439,-0.05029,-0.11133,-0.99246,369,0.936,0.307,0.039,3.906,2.014,-0.854,82.15,-71.526,115.604,-25.68,-23.107,5.12,29.08,-0.00171,-0.65726,-0.21552,-0.72211,371
92,0.98,0.139,-0.228,1.709,0.854,-2.136,148.035,-74.641,-0.203,-23.967,-16.853,-1.44,26.79,0.22241,0.76352,-0.17389,0.58069,366,0.821,0.286,0.495,4.517,1.526,2.136,30.58,-55.448,-150.123,-26.753,-15.913,3.073,24.1,0.33835,-0.3735,-0.34109,-0.79346,364,0.096,0.226,0.972,0.732,1.282,3.784,12.876,-5.554,179.099,-3.733,-13.693,-34.027,26.37,-0.00439,-0.05029,-0.11133,-0.99246,374,0.936,0.308,0.042,4.395,2.136,-0.61,82.123,-71.516,115.763,-25.68,-23.107,5.12,29.08,-0.00171,-0.65726,-0.21552,-0.72211,376
93,0.979,0.141,-0.222,2.38,1.16,-2.136,147.925,-74.636,0.022,-23.967,-16.853,-1.44,26.79,0.22241,0.76352,-0.17389,0.58069,367,0.823,0.289,0.496,4.822,1.587,2.136,30.586,-55.448,-149.963,-26.753,-15.913,3.073,24.1,0.33835,-0.3735,-0.34109,-0.79346,365,0.1,0.235,0.969,0.427,1.343,3.601,12.881,-5.548,179.182,-3.733,-13.693,-34.027,26.37,-0.00439,-0.05029,-0.11133,-0.99246,375,0.935,0.316,0.044,5.005,2.625,-0.427,82.095,-71.505,115.955,-25.68,-23.107,5.12,29.08,-0.00171,-0.65726,-0.21552,-0.72211,377
94,0.978,0.15,-0.22,2.808,1.282,-2.075,147.816,-74.636,0.253,-23.967,-16.853,-1.44,26.79,0.22241,0.76352,-0.17389,0.58069,378,0.824,0.293,0.49,4.517,1.709,2.197,30.597,-55.443,-149.815,-26.753,-15.913,3.073,24.1,0.33835,-0.3735,-0.34109,-0.79346,372,0.096,0.235,0.967,0.305,1.343,3.845,12.881,-5.543,179.242,-3.733,-13.693,-34.027,26.37,-0.00439,-0.05029,-0.11133,-0.99246,386,0.932,0.318,0.047,5.249,2.93,-0.183,82.04,-71.494,116.175,-25.68,-23.107,5.12,29.08,-0.00171,-0.65726,-0.21552,-0.72211,382
95,0.978,0.154,-0.221,2.869,1.282,-1.953,147.706,-74.641,0.472,-23.967,-16.853,-1.44,26.79,0.22241,0.76352,-0.17389,0.58069,379,0.824,0.295,0.488,4.333,1.587,2.502,30.602,-55.443,-149.65,-26.753,-15.913,3.073,24.1,0.33835,-0.3735,-0.34109,-0.79346,373,0.087,0.24,0.964,-0.061,1.831,3.845,12.876,-5.526,179.291,-3.733,-13.693,-34.027,26.37,-0.00439,-0.05029,-0.11133,-0.99246,387,0.932,0.309,0.042,5.31,2.93,-0.244,81.98,-71.483,116.417,-25.68,-23.107,5.12,29.08,-0.00171,-0.65726,-0.21552,-0.72211,383
96,0.979,0.152,-0.225,2.869,1.16,-1.831,147.601,-74.641,0.703,-23.967,-16.853,-1.44,26.79,0.22241,0.76352,-0.17389,0.58069,388,0.82,0.3,0.488,4.333,1.77,2.686,30.597,-55.437,-149.485,-26.753,-15.913,3.073,24.1,0.33835,-0.3735,-0.34109,-0.79346,380,0.088,0.233,0.97,-0.61,2.319,4.272,12.87,-5.51,179.352,-3.733,-13.693,-34.027,26.37,-0.00058,-0.04855,-0.11172,-0.99249,390,0.934,0.312,0.041,5.981,2.808,-0.244,81.931,-71.472,116.658,-25.68,-23.107,5.12,29.08,-0.00171,-0.65726,-0.21552,-0.72211,392
97,0.982,0.146,-0.226,3.113,1.526,-1.892,147.502,-74.647,0.917,-23.967,-16.853,-1.44,26.79,0.22241,0.76352,-0.17389,0.58069,389,0.818,0.302,0.491,4.272,2.014,2.808,30.586,-55.437,-149.315,-26.753,-15.913,3.073,24.1,0.33835,-0.3735,-0.34109,-0.79346,381,0.089,0.228,0.969,-1.343,1.831,4.822,12.843,-5.488,179.423,-3.733,-13.693,-34.027,26.37,-0.00058,-0.04855,-0.11172,-0.99249,391,0.938,0.316,0.044,6.592,2.563,-0.061,81.903,-71.466,116.895,-25.68,-23.107,5.12,29.08,-0.00171,-0.65726,-0.21552,-0.72211,393
98,0.982,0.145,-0.229,4.456,1.709,-1.77,147.393,-74.652,1.137,-24.16,-16.493,-1.34,26.79,0.22241,0.76352,-0.17389,0.58069,394,0.819,0.29,0.493,3.967,2.258,3.113,30.569,-55.426,-149.145,-26.753,-15.913,3.073,24.1,0.33835,-0.3735,-0.34109,-0.79346,384,0.092,0.228,0.969,-1.038,1.038,4.761,12.816,-5.482,179.528,-3.733,-13.693,-34.027,26.37,-0.00058,-0.04855,-0.11172,-0.99249,398,0.934,0.315,0.047,7.141,2.38,0.0,81.903,-71.461,117.103,-25.68,-23.107,5.12,29.08,-0.00171,-0.65726,-0.21552,-0.72211,400
99,0.979,0.151,-0.228,5.554,1.465,-1.648,147.321,-74.663,1.357,-24.16,-16.493,-1.34,26.79,0.22241,0.76352,-0.17389,0.58069,395,0.821,0.293,0.492,3.601,2.502,3.296,30.536,-55.421,-148.964,-26.753,-15.913,3.073,24.1,0.33835,-0.3735,-0.34109,-0.79346,385,0.087,0.228,0.969,-0.671,1.892,4.15,12.799,-5.471,179.632,-3.733,-13.693,-34.027,26.37,-0.00058,-0.04855,-0.11172,-0.99249,399,0.936,0.316,0.046,7.385,2.075,-0.061,81.92,-71.45,117.296,-25.68,-23.107,5.12,29.08,-0.00171,-0.65726,-0.21552,-0.72211,401
100,0.979,0.153,-0.228,5.859,1.099,-1.526,147.283,-74.669,1.577,-24.16,-16.493,-1.34,26.79,0.22241,0.76352,-0.17389,0.58069,414,0.822,0.298,0.495,3.784,2.38,3.113,30.493,-55.41,-148.766,-26.753,-15.913,3.073,24.1,0.33835,-0.3735,-0.34109,-0.79346,396,0.095,0.229,0.971,-0.732,2.258,3.845,12.783,-5.449,179.709,-3.733,-13.693,-34.027,26.37,-0.00058,-0.04855,-0.11172,-0.99249,404,0.939,0.316,0.046,7.08,1.831,0.061,81.953,-71.444,117.477,-25.68,-23.107,5.12,29.08,-0.00171,-0.65726,-0.21552,-0.72211,406
101,0.98,0.149,-0.224,5.615,1.038,-1.404,147.261,-74.669,1.769,-24.16,-16.493,-1.34,26.79,0.22241,0.76352,-0.17389,0.58069,415,0.819,0.296,0.498,4.028,1.953,3.174,30.465,-55.399,-148.579,-26.753,-15.913,3.073,24.1,0.33835,-0.3735,-0.34109,-0.79346,397,0.098,0.231,0.969,-1.099,2.136,3.601,12.761,-5.416,179.797,-3.733,-13.693,-34.027,26.37,-0.00058,-0.04855,-0.11172,-0.99249,405,0.939,0.305,0.044,7.141,1.953,0.488,81.98,-71.444,117.647,-25.68,-23.107,5.12,29.08,-0.00171,-0.65726,-0.21552,-0.72211,407
102,0.983,0.146,-0.222,5.005,0.793,-1.526,147.239,-74.669,1.945,-24.16,-16.493,-1.34,26.79,0.21481,0.76544,-0.15878,0.58536,420,0.824,0.299,0.495,3.296,1.77,3.113,30.438,-55.393,-148.398,-26.753,-15.913,3.073,24.1,0.33835,-0.3735,-0.34109,-0.79346,402,0.1,0.231,0.972,-1.953,2.258,3.662,12.728,-5.389,179.885,-3.733,-13.693,-34.027,26.37,-0.00058,-0.04855,-0.11172,-0.99249,410,0.935,0.303,0.042,8.301,2.258,0.244,82.007,-71.444,117.823,-25.7,-22.76,4.48,29.08,-0.00171,-0.65726,-0.21552,-0.72211,412
103,0.98,0.146,-0.223,4.761,0.671,-1.77,147.206,-74.663,2.142,-24.16,-16.493,-1.34,26.79,0.21481,0.76544,-0.15878,0.58536,421,0.827,0.296,0.493,2.441,2.014,3.113,30.399,-55.388,-148.222,-26.753,-15.913,3.073,24.1,0.33835,-0.3735,-0.34109,-0.79346,403,0.096,0.219,0.968,-2.014,2.625,4.761,12.689,-5.361,179.984,-3.733,-13.693,-34.027,26.37,-0.00058,-0.04855,-0.11172,-0.99249,411,0.931,0.308,0.041,8.85,2.686,0.0,82.029,-71.444,118.015,-25.7,-22.76,4.48,29.08,-0.00171,-0.65726,-0.21552,-0.72211,413
104,0.98,0.146,-0.225,4.944,0.671,-1.831,147.162,-74.658,2.346,-24.16,-16.493,-1.34,26.79,0.21481,0.76544,-0.15878,0.58536,424,0.827,0.284,0.492,2.747,2.258,3.601,30.344,-55.382,-148.035,-26.753,-15.913,3.073,24.1,0.33835,-0.3735,-0.34109,-0.79346,408,0.085,0.211,0.967,-1.831,2.563,5.859,12.645,-5.334,-179.912,-3.733,-13.693,-34.027,26.41,-0.00058,-0.04855,-0.11172,-0.99249,418,0.932,0.309,0.04,8.789,2.747,-0.122,82.046,-71.433,118.235,-25.7,-22.76,4.48,29.08,-0.00171,-0.65726,-0.21552,-0.72211,422
105,0.98,0.146,-0.227,5.005,0.671,-1.831,147.118,-74.647,2.543,-24.16,-16.493,-1.34,26.79,0.21481,0.76544,-0.15878,0.58536,425,0.82,0.277,0.49,3.357,2.441,4.089,30.278,-55.377,-147.849,-26.753,-15.913,3.073,24.1,0.33835,-0.3735,-0.34109,-0.79346,409,0.083,0.204,0.973,-1.77,2.014,6.042,12.601,-5.317,-179.802,-3.733,-13.693,-34.027,26.41,-0.00058,-0.04855,-0.11172,-0.99249,419,0.937,0.311,0.039,8.362,2.686,-0.305,82.062,-71.428,118.444,-25.7,-22.76,4.48,29.08,-0.00171,-0.65726,-0.21552,-0.72211,423
106,0.982,0.142,-0.228,5.31,0.793,-1.77,147.079,-74.641,2.73,-24.16,-16.493,-1.34,26.79,0.21481,0.76544,-0.15878,0.58536,432,0.816,0.278,0.493,4.15,2.441,3.906,30.218,-55.371,-147.656,-26.74,-15.96,2.82,24.1,0.33835,-0.3735,-0.34109,-0.79346,416,0.091,0.21,0.973,-0.61,0.671,5.92,12.568,-5.317,-179.692,-3.733,-13.693,-34.027,26.41,-0.00058,-0.04855,-0.11172,-0.99249,428,0.938,0.307,0.042,8.362,2.625,-0.122,82.073,-71.417,118.641,-25.7,-22.76,4.48,29.08,0.01517,-0.65128,-0.23193,-0.72229,430
107,0.982,0.138,-0.226,6.226,0.977,-1.709,147.052,-74.636,2.917,-24.16,-16.493,-1.34,26.79,0.21481,0.76544,-0.15878,0.58536,433,0.821,0.277,0.496,4.333,2.38,3.357,30.174,-55.371,-147.469,-26.74,-15.96,2.82,24.1,0.33835,-0.3735,-0.34109,-0.79346,417,0.093,0.219,0.971,-0.061,1.038,5.066,12.557,-5.328,-179.583,-3.733,-13.693,-34.027,26.41,-0.00058,-0.04855,-0.11172,-0.99249,429,0.938,0.305,0.043,8.484,2.747,0.0,82.09,-71.406,118.845,-25.7,-22.76,4.48,29.08,0.01517,-0.65128,-0.23193,-0.72229,431
108,0.98,0.138,-0.223,7.202,1.038,-1.77,147.041,-74.636,3.109,-24.16,-16.493,-1.34,26.79,0.21481,0.76544,-0.15878,0.58536,436,0.822,0.285,0.493,4.089,2.441,2.93,30.141,-55.36,-147.316,-26.74,-15.96,2.82,24.1,0.33835,-0.3735,-0.34109,-0.79346,426,0.093,0.221,0.972,-0.366,1.343,5.493,12.541,-5.323,-179.462,-3.733,-13.693,-34.027,26.41,-0.00058,-0.04855,-0.11172,-0.99249,434,0.937,0.307,0.04,8.24,2.93,0.183,82.09,-71.406,119.048,-25.7,-22.76,4.48,29.08,0.01517,-0.65128,-0.23193,-0.72229,440
109,0.98,0.144,-0.227,7.446,0.977,-1.953,147.041,-74.636,3.296,-24.16,-16.493,-1.34,26.79,0.21481,0.76544,-0.15878,0.58536,437,0.826,0.286,0.495,4.456,2.563,2.869,30.119,-55.344,-147.167,-26.74,-15.96,2.82,24.1,0.33835,-0.3735,-0.34109,-0.79346,427,0.091,0.226,0.976,-0.549,1.343,5.493,12.524,-5.323,-179.33,-3.733,-13.693,-34.027,26.41,-0.00058,-0.04855,-0.11172,-0.99249,435,0.936,0.313,0.04,8.362,2.991,0.305,82.084,-71.406,119.268,-25.7,-22.76,4.48,29.08,0.01517,-0.65128,-0.23193,-0.72229,441
110,0.98,0.148,-0.229,7.507,0.977,-2.014,147.036,-74.63,3.51,-24.16,-16.493,-1.34,26.79,0.21481,0.76544,-0.15878,0.58536,442,0.827,0.287,0.494,4.333,2.686,3.113,30.097,-55.327,-147.008,-26.74,-15.96,2.82,24.1,0.35693,-0.36539,-0.34729,-0.78635,438,0.09,0.221,0.976,-0.793,1.465,5.737,12.502,-5.317,-179.214,-3.733,-13.693,-34.027,26.41,-0.00058,-0.04855,-0.11172,-0.99249,444,0.932,0.316,0.042,7.812,2.991,0.488,82.068,-71.406,119.493,-25.7,-22.76,4.48,29.08,0.01517,-0.65128,-0.23193,-0.72229,450
111,0.979,0.148,-0.226,7.263,1.16,-1.953,147.03,-74.625,3.741,-24.16,-16.493,-1.34,26.79,0.21481,0.76544,-0.15878,0.58536,443,0.824,0.293,0.493,4.395,2.563,3.357,30.064,-55.311,-146.843,-26.74,-15.96,2.82,24.1,0.35693,-0.36539,-0.34729,-0.78635,439,0.089,0.216,0.97,-0.427,1.404,5.31,12.486,-5.312,-179.094,-3.733,-13.693,-34.027,26.41,-0.00058,-0.04855,-0.11172,-0.99249,445,0.932,0.314,0.042,7.019,3.113,0.732,82.035,-71.411,119.724,-25.7,-22.76,4.48,29.08,0.01517,-0.65128,-0.23193,-0.72229,451
112,0.979,0.149,-0.223,7.202,1.282,-1.892,147.014,-74.625,3.972,-24.16,-16.493,-1.34,26.79,0.21481,0.76544,-0.15878,0.58536,448,0.821,0.291,0.494,4.456,2.319,3.601,30.031,-55.305,-146.673,-26.74,-15.96,2.82,24.1,0.35693,-0.36539,-0.34729,-0.78635,446,0.087,0.217,0.969,-0.427,2.136,4.883,12.469,-5.301,-178.962,-3.733,-13.693,-34.027,26.41,-0.00058,-0.04855,-0.11172,-0.99249,452,0.937,0.316,0.042,6.714,3.418,0.61,81.98,-71.417,119.971,-25.7,-22.76,4.48,29.08,0.01517,-0.65128,-0.23193,-0.72229,456
113,0.981,0.151,-0.226,7.263,1.404,-1.831,146.992,-74.625,4.186,-24.16,-16.493,-1.34,26.79,0.21481,0.76544,-0.15878,0.58536,449,0.817,0.291,0.494,4.028,2.136,3.357,30.004,-55.3,-146.492,-26.74,-15.96,2.82,24.1,0.35693,-0.36539,-0.34729,-0.78635,447,0.085,0.217,0.971,-0.793,1.648,4.7,12.453,-5.284,-178.868,-3.733,-13.693,-34.027,26.41,-0.00058,-0.04855,-0.11172,-0.99249,453,0.936,0.319,0.043,6.592,3.357,0.549,81.914,-71.417,120.218,-25.7,-22.76,4.48,29.08,0.01517,-0.65128,-0.23193,-0.72229,457
114,0.98,0.154,-0.228,7.324,1.404,-1.77,146.97,-74.63,4.395,-24.16,-16.493,-1.34,26.79,0.21481,0.76544,-0.15878,0.58536,458,0.819,0.288,0.494,3.601,2.563,3.052,29.971,-55.289,-146.332,-26.74,-15.96,2.82,24.1,0.35693,-0.36539,-0.34729,-0.78635,454,0.081,0.225,0.975,-1.343,1.526,3.784,12.426,-5.268,-178.781,-3.733,-13.693,-34.027,26.41,-0.00058,-0.04855,-0.11172,-0.99249,462,0.936,0.323,0.042,5.859,3.052,0.61,81.848,-71.417,120.432,-25.7,-22.76,4.48,29.08,0.01517,-0.65128,-0.23193,-0.72229,464
115,0.982,0.156,-0.231,6.775,1.343,-1.648,146.953,-74.636,4.598,-24.16,-16.493,-1.34,26.79,0.21481,0.76544,-0.15878,0.58536,459,0.822,0.289,0.497,3.479,2.686,2.93,29.932,-55.272,-146.173,-26.74,-15.96,2.82,24.1,0.35693,-0.36539,-0.34729,-0.78635,455,0.08,0.22,0.981,-1.587,1.648,2.686,12.393,-5.251,-178.682,-3.733,-13.693,-34.027,26.41,-0.00058,-0.04855,-0.11172,-0.99249,463,0.936,0.325,0.04,5.127,2.808,0.977,81.788,-71.422,120.63,-25.7,-22.76,4.48,29.08,0.01517,-0.65128,-0.23193,-0.72229,465
116,0.98,0.155,-0.23,6.531,1.465,-1.526,146.931,-74.641,4.768,-24.16,-16.493,-1.34,26.79,0.21481,0.76544,-0.15878,0.58536,466,0.821,0.296,0.502,3.113,2.747,2.869,29.894,-55.256,-146.019,-26.74,-15.96,2.82,24.1,0.35693,-0.36539,-0.34729,-0.78635,460,0.081,0.225,0.98,-1.648,1.221,1.404,12.36,-5.229,-178.588,-3.733,-13.693,-34.027,26.41,-0.00058,-0.04855,-0.11172,-0.99249,470,0.932,0.32,0.043,4.7,2.563,1.343,81.727,-71.439,120.817,-25.7,-22.76,4.48,29.08,0.01517,-0.65128,-0.23193,-0.72229,472
117,0.98,0.152,-0.229,6.287,1.648,-1.343,146.904,-74.647,4.933,-24.16,-16.493,-1.34,26.79,0.21481,0.76544,-0.15878,0.58536,467,0.822,0.299,0.502,2.38,2.441,2.686,29.85,-55.234,-145.871,-26.74,-15.96,2.82,24.1,0.35693,-0.36539,-0.34729,-0.78635,461,0.081,0.226,0.978,-1.892,0.732,0.732,12.327,-5.213,-178.522,-3.733,-13.693,-34.027,26.41,-0.00058,-0.04855,-0.11172,-0.99249,471,0.931,0.312,0.045,4.517,2.319,1.404,81.672,-71.455,120.987,-25.7,-22.76,4.48,29.08,0.01517,-0.65128,-0.23193,-0.72229,473
118,0.979,0.154,-0.23,6.47,1.404,-1.221,146.882,-74.652,5.076,-24.16,-16.493,-1.34,26.79,0.21481,0.76544,-0.15878,0.58536,476,0.82,0.3,0.5,1.831,1.953,2.441,29.8,-55.217,-145.734,-26.74,-15.96,2.82,24.1,0.35693,-0.36539,-0.34729,-0.78635,468,0.078,0.221,0.971,-2.441,0.671,1.16,12.288,-5.197,-178.462,-3.573,-13.793,-33.973,26.41,-0.00058,-0.04855,-0.11172,-0.99249,478,0.931,0.31,0.046,4.761,2.014,0.977,81.639,-71.466,121.146,-25.687,-22.6,4.647,29.08,0.01517,-0.65128,-0.23193,-0.72229,480
119,0.979,0.155,-0.228,6.592,1.038,-1.221,146.882,-74.658,5.208,-24.16,-16.493,-1.34,26.79,0.21481,0.76544,-0.15878,0.58536,477,0.814,0.295,0.5,1.648,1.587,2.319,29.756,-55.206,-145.613,-26.74,-15.96,2.82,24.1,0.35693,-0.36539,-0.34729,-0.78635,469,0.078,0.216,0.971,-2.441,0.122,2.441,12.244,-5.191,-178.38,-3.573,-13.793,-33.973,26.41,-0.00058,-0.04855,-0.11172,-0.99249,479,0.934,0.314,0.047,4.456,1.709,0.671,81.623,-71.472,121.289,-25.687,-22.6,4.647,29.08,0.01517,-0.65128,-0.23193,-0.72229,481
120,0.979,0.154,-0.226,6.226,0.793,-1.16,146.893,-74.658,5.345,-23.867,-16.693,-1.093,26.79,0.21481,0.76544,-0.15878,0.58536,482,0.812,0.283,0.501,1.709,1.404,2.625,29.718,-55.201,-145.497,-26.74,-15.96,2.82,24.1,0.35693,-0.36539,-0.34729,-0.78635,474,0.08,0.207,0.972,-2.014,-0.427,3.601,12.2,-5.202,-178.248,-3.573,-13.793,-33.973,26.41,-0.00058,-0.04855,-0.11172,-0.99249,486,0.935,0.314,0.048,4.089,1.465,0.549,81.617,-71.472,121.421,-25.687,-22.6,4.647,29.08,0.03256,-0.64499,-0.24655,-0.72253,488
121,0.979,0.154,-0.227,5.981,0.427,-1.221,146.909,-74.652,5.46,-23.867,-16.693,-1.093,26.79,0.21481,0.76544,-0.15878,0.58536,483,0.813,0.281,0.504,1.953,1.526,2.808,29.674,-55.195,-145.371,-26.74,-15.96,2.82,24.1,0.35693,-0.36539,-0.34729,-0.78635,475,0.086,0.208,0.976,-1.587,-0.671,3.113,12.162,-5.219,-178.116,-3.573,-13.793,-33.973,26.41,-0.00058,-0.04855,-0.11172,-0.99249,487,0.934,0.319,0.049,4.15,1.099,0.427,81.628,-71.477,121.52,-25.687,-22.6,4.647,29.08,0.03256,-0.64499,-0.24655,-0.72253,489
122,0.978,0.157,-0.225,6.042,0.366,-1.099,146.931,-74.641,5.581,-23.867,-16.693,-1.093,26.79,0.21481,0.76544,-0.15878,0.58536,490,0.818,0.284,0.505,2.258,1.465,2.502,29.63,-55.19,-145.25,-26.74,-15.96,2.82,24.1,0.35693,-0.36539,-0.34729,-0.78635,484,0.095,0.213,0.97,-1.404,-0.183,1.404,12.134,-5.235,-178.006,-3.573,-13.793,-33.973,26.41,0.02112,-0.04355,-0.10657,-0.99307,494,0.932,0.324,0.051,2.869,1.16,0.488,81.617,-71.477,121.624,-25.687,-22.6,4.647,29.08,0.03256,-0.64499,-0.24655,-0.72253,496
123,0.976,0.161,-0.22,5.127,0.366,-0.793,146.959,-74.636,5.702,-23.867,-16.693,-1.093,26.79,0.21481,0.76544,-0.15878,0.58536,491,0.819,0.288,0.505,1.953,1.526,2.319,29.597,-55.184,-145.124,-26.74,-15.96,2.82,24.1,0.35693,-0.36539,-0.34729,-0.78635,485,0.089,0.216,0.967,-1.282,1.038,0.183,12.107,-5.224,-177.918,-3.573,-13.793,-33.973,26.41,0.02112,-0.04355,-0.10657,-0.99307,495,0.933,0.323,0.051,1.465,1.343,0.671,81.573,-71.483,121.718,-25.687,-22.6,4.647,29.08,0.03256,-0.64499,-0.24655,-0.72253,497
124,0.979,0.16,-0.222,3.967,0.061,-0.61,146.981,-74.63,5.795,-23.867,-16.693,-1.093,26.79,0.19656,0.77014,-0.13382,0.5918,498,0.821,0.294,0.501,0.61,1.587,2.075,29.548,-55.173,-145.003,-26.687,-15.407,2.913,24.1,0.35693,-0.36539,-0.34729,-0.78635,492,0.081,0.218,0.968,-0.977,2.197,-0.61,12.09,-5.186,-177.863,-3.573,-13.793,-33.973,26.41,0.02112,-0.04355,-0.10657,-0.99307,502,0.933,0.315,0.046,1.038,1.343,0.61,81.513,-71.483,121.833,-25.687,-22.6,4.647,29.08,0.03256,-0.64499,-0.24655,-0.72253,504
125,0.979,0.157,-0.224,3.235,0.061,-0.427,146.997,-74.619,5.872,-23.867,-16.693,-1.093,26.79,0.19656,0.77014,-0.13382,0.5918,499,0.817,0.298,0.498,-0.122,1.526,1.587,29.493,-55.157,-144.904,-26.687,-15.407,2.913,24.1,0.35693,-0.36539,-0.34729,-0.78635,493,0.082,0.21,0.973,-1.282,2.319,-0.183,12.074,-5.136,-177.781,-3.573,-13.793,-33.973,26.41,0.02112,-0.04355,-0.10657,-0.99307,503,0.935,0.307,0.045,1.831,1.282,0.305,81.464,-71.483,121.943,-25.687,-22.6,4.647,29.08,0.03256,-0.64499,-0.24655,-0.72253,505
126,0.981,0.153,-0.23,3.357,0.0,-0.488,147.014,-74.614,5.955,-23.867,-16.693,-1.093,26.79,0.19656,0.77014,-0.13382,0.5918,506,0.815,0.292,0.5,-0.488,1.892,1.038,29.438,-55.135,-144.816,-26.687,-15.407,2.913,24.1,0.35693,-0.36539,-0.34729,-0.78635,500,0.087,0.202,0.974,-0.61,0.916,0.732,12.057,-5.103,-177.665,-3.573,-13.793,-33.973,26.41,0.02112,-0.04355,-0.10657,-0.99307,510,0.934,0.308,0.046,2.991,1.038,-0.061,81.453,-71.472,122.031,-25.687,-22.6,4.647,29.08,0.03256,-0.64499,-0.24655,-0.72253,512
127,0.979,0.152,-0.226,3.723,0.183,-0.61,147.025,-74.608,6.037,-23.867,-16.693,-1.093,26.79,0.19656,0.77014,-0.13382,0.5918,507,0.817,0.282,0.501,-0.732,2.014,0.916,29.383,-55.107,-144.728,-26.687,-15.407,2.913,24.1,0.35693,-0.36539,-0.34729,-0.78635,501,0.085,0.2,0.972,0.183,0.305,1.16,12.057,-5.092,-177.556,-3.573,-13.793,-33.973,26.41,0.02112,-0.04355,-0.10657,-0.99307,511,0.931,0.31,0.05,3.174,1.221,-0.305,81.447,-71.461,122.13,-25.687,-22.6,4.647,29.08,0.03256,-0.64499,-0.24655,-0.72253,513
128,0.977,0.151,-0.22,3.662,0.366,-0.61,147.036,-74.603,6.125,-23.867,-16.693,-1.093,26.79,0.19656,0.77014,-0.13382,0.5918,514,0.818,0.271,0.504,-0.183,1.709,0.916,29.333,-55.08,-144.662,-26.687,-15.407,2.913,24.1,0.3717,-0.35818,-0.34973,-0.78174,508,0.077,0.206,0.971,0.671,0.671,1.099,12.063,-5.087,-177.468,-3.573,-13.793,-33.973,26.41,0.02112,-0.04355,-0.10657,-0.99307,518,0.932,0.311,0.052,2.502,1.404,-0.427,81.42,-71.45,122.245,-25.687,-22.6,4.647,29.08,0.03256,-0.64499,-0.24655,-0.72253,522
129,0.979,0.153,-0.218,2.563,0.427,-0.671,147.025,-74.597,6.224,-23.867,-16.693,-1.093,26.79,0.19656,0.77014,-0.13382,0.5918,515,0.815,0.273,0.503,0.122,1.343,0.671,29.295,-55.058,-144.619,-26.687,-15.407,2.913,24.1,0.3717,-0.35818,-0.34973,-0.78174,509,0.075,0.208,0.974,0.793,0.793,1.526,12.074,-5.07,-177.391,-3.573,-13.793,-33.973,26.41,0.02112,-0.04355,-0.10657,-0.99307,519,0.935,0.311,0.057,1.343,1.465,-0.488,81.37,-71.433,122.371,-25.687,-22.6,4.647,29.08,0.03256,-0.64499,-0.24655,-0.72253,523
130,0.98,0.157,-0.219,1.038,0.305,-0.732,146.981,-74.597,6.334,-23.867,-16.693,-1.093,26.79,0.19656,0.77014,-0.13382,0.5918,520,0.812,0.279,0.503,0.793,1.404,0.488,29.273,-55.036,-144.575,-26.687,-15.407,2.913,24.1,0.3717,-0.35818,-0.34973,-0.78174,516,0.073,0.211,0.976,0.671,0.366,1.282,12.09,-5.065,-177.303,-3.573,-13.793,-33.973,26.41,0.02112,-0.04355,-0.10657,-0.99307,526,0.935,0.318,0.052,1.648,0.977,-0.793,81.337,-71.411,122.454,-25.687,-22.6,4.647,29.08,0.03256,-0.64499,-0.24655,-0.72253,528
131,0.979,0.158,-0.23,0.61,0.0,-0.671,146.931,-74.592,6.427,-23.867,-16.693,-1.093,26.79,0.19656,0.77014,-0.13382,0.5918,521,0.813,0.281,0.507,1.221,1.221,0.305,29.268,-55.014,-144.531,-26.687,-15.407,2.913,24.1,0.3717,-0.35818,-0.34973,-0.78174,517,0.076,0.21,0.98,0.671,-0.061,0.916,12.101,-5.059,-177.226,-3.573,-13.793,-33.973,26.41,0.02112,-0.04355,-0.10657,-0.99307,527,0.933,0.324,0.05,1.099,0.366,-0.793,81.337,-71.395,122.509,-25.687,-22.6,4.647,29.08,0.03256,-0.64499,-0.24655,-0.72253,529
132,0.979,0.159,-0.229,0.0,0.0,-0.488,146.882,-74.581,6.509,-23.867,-16.693,-1.093,26.79,0.19656,0.77014,-0.13382,0.5918,532,0.815,0.282,0.513,1.221,1.099,0.366,29.268,-54.992,-144.487,-26.687,-15.407,2.913,24.1,0.3717,-0.35818,-0.34973,-0.78174,524,0.078,0.212,0.979,0.488,-0.366,0.305,12.112,-5.065,-177.16,-3.573,-13.793,-33.973,26.41,0.02112,-0.04355,-0.10657,-0.99307,534,0.934,0.318,0.049,0.0,0.122,-0.61,81.332,-71.378,122.531,-25.687,-22.6,4.647,29.08,0.03256,-0.64499,-0.24655,-0.72253,536
133,0.979,0.155,-0.228,-0.549,-0.183,-0.366,146.832,-74.575,6.564,-23.867,-16.693,-1.093,26.79,0.19656,0.77014,-0.13382,0.5918,533,0.815,0.288,0.514,0.854,0.793,0.244,29.268,-54.976,-144.443,-26.687,-15.407,2.913,24.1,0.3717,-0.35818,-0.34973,-0.78174,525,0.077,0.215,0.977,0.0,-0.671,-0.427,12.118,-5.065,-177.116,-3.573,-13.793,-33.973,26.41,0.02112,-0.04355,-0.10657,-0.99307,535,0.932,0.314,0.046,-0.427,-0.061,-0.671,81.332,-71.362,122.536,-25.687,-22.6,4.647,29.08,0.03256,-0.64499,-0.24655,-0.72253,537
134,0.979,0.154,-0.229,-1.526,-0.366,-0.366,146.783,-74.564,6.586,-23.867,-16.693,-1.093,26.79,0.19656,0.77014,-0.13382,0.5918,538,0.817,0.293,0.51,0.122,0.549,-0.122,29.262,-54.959,-144.41,-26.687,-15.407,2.913,24.1,0.3717,-0.35818,-0.34973,-0.78174,530,0.077,0.213,0.975,-0.305,-0.61,-0.366,12.118,-5.07,-177.056,-3.573,-13.793,-33.973,26.41,0.02112,-0.04355,-0.10657,-0.99307,540,0.933,0.309,0.049,-0.916,-0.305,-0.977,81.337,-71.34,122.525,-25.753,-23.153,4.727,29.08,0.03256,-0.64499,-0.24655,-0.72253,544
135,0.981,0.154,-0.229,-2.319,-0.61,-0.488,146.722,-74.548,6.597,-23.867,-16.693,-1.093,26.79,0.19656,0.77014,-0.13382,0.5918,539,0.814,0.287,0.507,-0.305,0.183,-0.366,29.262,-54.948,-144.399,-26.687,-15.407,2.913,24.1,0.3717,-0.35818,-0.34973,-0.78174,531,0.082,0.209,0.975,0.0,-1.221,0.61,12.112,-5.081,-177.012,-3.573,-13.793,-33.973,26.41,0.02112,-0.04355,-0.10657,-0.99307,541,0.935,0.314,0.044,0.183,-0.793,-1.526,81.398,-71.307,122.481,-25.753,-23.153,4.727,29.08,0.03256,-0.64499,-0.24655,-0.72253,545
136,0.979,0.156,-0.234,-1.77,-0.793,-0.488,146.667,-74.526,6.608,-23.867,-16.693,-1.093,26.79,0.19656,0.77014,-0.13382,0.5918,548,0.812,0.283,0.507,-0.061,-0.061,-0.427,29.273,-54.937,-144.399,-26.687,-15.407,2.913,24.1,0.3717,-0.35818,-0.34973,-0.78174,542,0.087,0.206,0.975,0.61,-1.831,1.648,12.123,-5.109,-176.962,-3.573,-13.793,-33.973,26.41,0.02112,-0.04355,-0.10657,-0.99307,550,0.934,0.323,0.044,0.671,-1.038,-1.709,81.486,-71.279,122.432,-25.753,-23.153,4.727,29.08,0.03256,-0.64499,-0.24655,-0.72253,552
137,0.978,0.156,-0.23,-1.038,-0.61,-0.305,146.635,-74.509,6.619,-23.867,-16.693,-1.093,26.79,0.19656,0.77014,-0.13382,0.5918,549,0.816,0.275,0.51,0.305,-0.122,-0.244,29.284,-54.926,-144.399,-26.687,-15.407,2.913,24.1,0.3717,-0.35818,-0.34973,-0.78174,543,0.09,0.213,0.976,1.465,-1.892,1.16,12.14,-5.147,-176.913,-3.573,-13.793,-33.973,26.41,0.02112,-0.04355,-0.10657,-0.99307,551,0.936,0.323,0.042,0.244,-0.977,-1.282,81.557,-71.252,122.388,-25.753,-23.153,4.727,29.08,0.03256,-0.64499,-0.24655,-0.72253,553
138,0.978,0.153,-0.227,-0.977,-0.366,-0.061,146.613,-74.493,6.63,-23.627,-16.947,-0.98,26.79,0.19656,0.77014,-0.13382,0.5918,554,0.819,0.28,0.507,0.549,-0.305,-0.305,29.301,-54.926,-144.399,-26.687,-15.407,2.913,24.1,0.3717,-0.35818,-0.34973,-0.78174,546,0.098,0.221,0.973,1.587,-1.953,0.244,12.173,-5.18,-176.885,-3.447,-13.633,-35.24,26.41,0.02112,-0.04355,-0.10657,-0.99307,556,0.936,0.321,0.048,-0.61,-0.793,-0.916,81.601,-71.235,122.36,-25.753,-23.153,4.727,29.08,0.03683,-0.64227,-0.25269,-0.7226,560
139,0.979,0.153,-0.222,-1.404,-0.061,0.0,146.585,-74.487,6.63,-23.627,-16.947,-0.98,26.79,0.19656,0.77014,-0.13382,0.5918,555,0.82,0.294,0.502,0.61,-0.305,-0.793,29.328,-54.921,-144.41,-26.687,-15.407,2.913,24.1,0.3717,-0.35818,-0.34973,-0.78174,547,0.103,0.216,0.968,1.343,-1.404,-0.061,12.2,-5.208,-176.88,-3.447,-13.633,-35.24,26.41,0.02112,-0.04355,-0.10657,-0.99307,557,0.934,0.316,0.05,-1.831,-0.366,-0.61,81.59,-71.219,122.388,-25.753,-23.153,4.727,29.08,0.03683,-0.64227,-0.25269,-0.7226,561
140,0.979,0.152,-0.224,-1.282,-0.305,0.122,146.558,-74.482,6.619,-23.627,-16.947,-0.98,26.79,0.19656,0.77014,-0.13382,0.5918,562,0.822,0.294,0.5,0.305,-0.549,-0.977,29.366,-54.915,-144.432,-26.687,-15.407,2.913,24.1,0.3717,-0.35818,-0.34973,-0.78174,558,0.098,0.225,0.962,1.038,-0.244,-0.854,12.228,-5.219,-176.88,-3.447,-13.633,-35.24,26.41,0.02112,-0.04355,-0.10657,-0.99307,564,0.935,0.315,0.041,-1.953,0.0,-0.488,81.557,-71.208,122.448,-25.753,-23.153,4.727,29.08,0.03683,-0.64227,-0.25269,-0.7226,568
141,0.98,0.152,-0.23,-1.221,-0.488,0.244,146.552,-74.476,6.603,-23.627,-16.947,-0.98,26.79,0.19656,0.77014,-0.13382,0.5918,563,0.821,0.293,0.498,-0.977,-0.61,-1.404,29.399,-54.91,-144.47,-26.687,-15.407,2.913,24.1,0.3717,-0.35818,-0.34973,-0.78174,559,0.091,0.221,0.974,0.916,0.122,-1.282,12.255,-5.213,-176.891,-3.447,-13.633,-35.24,26.41,0.02112,-0.04355,-0.10657,-0.99307,565,0.936,0.312,0.04,-1.099,0.122,-0.427,81.535,-71.197,122.503,-25.753,-23.153,4.727,29.08,0.03683,-0.64227,-0.25269,-0.7226,569
142,0.98,0.15,-0.23,-0.977,-0.183,0.183,146.547,-74.471,6.575,-23.627,-16.947,-0.98,26.79,0.19537,0.77118,-0.13,0.59171,572,0.822,0.292,0.495,-1.587,0.0,-1.465,29.416,-54.899,-144.514,-26.567,-15.527,2.313,24.1,0.3717,-0.35818,-0.34973,-0.78174,566,0.089,0.225,0.977,0.488,-0.122,-0.732,12.272,-5.208,-176.902,-3.447,-13.633,-35.24,26.41,0.03171,-0.0423,-0.10785,-0.99271,570,0.937,0.314,0.04,-0.244,0.183,-0.244,81.524,-71.191,122.536,-25.753,-23.153,4.727,29.08,0.03683,-0.64227,-0.25269,-0.7226,576
143,0.981,0.147,-0.231,-0.427,0.122,0.183,146.541,-74.471,6.559,-23.627,-16.947,-0.98,26.79,0.19537,0.77118,-0.13,0.59171,573,0.82,0.288,0.495,-1.648,0.427,-1.16,29.421,-54.877,-144.536,-26.567,-15.527,2.313,24.1,0.3717,-0.35818,-0.34973,-0.78174,567,0.092,0.219,0.976,0.061,-0.671,-0.366,12.277,-5.213,-176.913,-3.447,-13.633,-35.24,26.41,0.03171,-0.0423,-0.10785,-0.99271,571,0.936,0.312,0.045,-0.183,0.305,0.0,81.513,-71.191,122.563,-25.753,-23.153,4.727,29.08,0.03683,-0.64227,-0.25269,-0.7226,577
144,0.98,0.146,-0.228,0.0,0.366,0.183,146.536,-74.476,6.548,-23.627,-16.947,-0.98,26.79,0.19537,0.77118,-0.13,0.59171,582,0.82,0.285,0.501,-1.709,0.305,-0.671,29.41,-54.86,-144.531,-26.567,-15.527,2.313,24.1,0.3717,-0.35818,-0.34973,-0.78174,574,0.091,0.22,0.973,-0.061,-0.793,-0.488,12.283,-5.229,-176.935,-3.447,-13.633,-35.24,26.41,0.03171,-0.0423,-0.10785,-0.99271,580,0.935,0.311,0.048,-0.488,0.305,0.061,81.486,-71.191,122.591,-25.753,-23.153,4.727,29.08,0.03683,-0.64227,-0.25269,-0.7226,584
145,0.979,0.144,-0.226,0.061,0.183,0.122,146.536,-74.482,6.553,-23.627,-16.947,-0.98,26.79,0.19537,0.77118,-0.13,0.59171,583,0.82,0.287,0.501,-1.282,0.122,-0.366,29.394,-54.849,-144.52,-26.567,-15.527,2.313,24.1,0.3717,-0.35818,-0.34973,-0.78174,575,0.088,0.212,0.971,-0.061,-0.305,-0.244,12.288,-5.235,-176.929,-3.447,-13.633,-35.24,26.41,0.03171,-0.0423,-0.10785,-0.99271,581,0.935,0.311,0.047,-0.793,0.305,0.244,81.458,-71.197,122.629,-25.753,-23.153,4.727,29.08,0.03683,-0.64227,-0.25269,-0.7226,585
146,0.98,0.145,-0.226,0.061,0.0,0.122,146.541,-74.482,6.548,-23.627,-16.947,-0.98,26.79,0.19537,0.77118,-0.13,0.59171,586,0.818,0.285,0.504,-0.916,0.122,-0.122,29.383,-54.844,-144.509,-26.567,-15.527,2.313,24.1,0.37286,-0.35571,-0.35022,-0.7821,578,0.087,0.212,0.971,0.183,0.244,-0.061,12.294,-5.229,-176.913,-3.447,-13.633,-35.24,26.41,0.03171,-0.0423,-0.10785,-0.99271,590,0.933,0.31,0.048,-0.916,0.183,0.427,81.425,-71.202,122.662,-25.753,-23.153,4.727,29.08,0.03683,-0.64227,-0.25269,-0.7226,592
147,0.98,0.147,-0.227,0.122,-0.061,0.061,146.552,-74.482,6.537,-23.627,-16.947,-0.98,26.79,0.19537,0.77118,-0.13,0.59171,587,0.817,0.283,0.506,-0.61,0.122,-0.061,29.372,-54.844,-144.487,-26.567,-15.527,2.313,24.1,0.37286,-0.35571,-0.35022,-0.7821,579,0.084,0.215,0.973,0.122,0.305,-0.122,12.299,-5.224,-176.924,-3.447,-13.633,-35.24,26.41,0.03171,-0.0423,-0.10785,-0.99271,591,0.933,0.308,0.05,-0.854,0.061,0.427,81.403,-71.213,122.695,-25.753,-23.153,4.727,29.08,0.03683,-0.64227,-0.25269,-0.7226,593
148,0.978,0.151,-0.224,0.122,-0.183,0.0,146.569,-74.482,6.542,-23.627,-16.947,-0.98,26.79,0.19537,0.77118,-0.13,0.59171,596,0.815,0.282,0.507,-0.671,0.122,-0.122,29.366,-54.838,-144.465,-26.567,-15.527,2.313,24.1,0.37286,-0.35571,-0.35022,-0.7821,588,0.083,0.213,0.972,0.0,-0.366,0.305,12.299,-5.229,-176.929,-3.447,-13.633,-35.24,26.41,0.03171,-0.0423,-0.10785,-0.99271,598,0.933,0.307,0.05,-0.61,0.0,0.122,81.392,-71.219,122.712,-25.753,-23.153,4.727,29.08,0.03683,-0.64227,-0.25269,-0.7226,602
149,0.979,0.152,-0.225,-0.183,-0.427,-0.061,146.574,-74.476,6.553,-23.627,-16.947,-0.98,26.79,0.19537,0.77118,-0.13,0.59171,597,0.814,0.281,0.508,-0.549,0.122,0.0,29.355,-54.833,-144.448,-26.567,-15.527,2.313,24.1,0.37286,-0.35571,-0.35022,-0.7821,589,0.086,0.207,0.976,-0.122,-0.61,1.221,12.299,-5.24,-176.924,-3.447,-13.633,-35.24,26.41,0.03171,-0.0423,-0.10785,-0.99271,599,0.933,0.313,0.049,0.0,-0.122,-0.366,81.392,-71.213,122.723,-25.753,-23.153,4.727,29.08,0.03683,-0.64227,-0.25269,-0.7226,603
150,0.979,0.151,-0.225,-0.427,-0.427,-0.122,146.58,-74.471,6.542,-23.627,-16.947,-0.98,26.79,0.19537,0.77118,-0.13,0.59171,600,0.814,0.275,0.508,0.183,0.061,0.305,29.35,-54.833,-144.437,-26.567,-15.527,2.313,24.1,0.37286,-0.35571,-0.35022,-0.7821,594,0.088,0.208,0.971,-0.122,-1.343,1.831,12.294,-5.268,-176.88,-3.447,-13.633,-35.24,26.41,0.03171,-0.0423,-0.10785,-0.99271,606,0.934,0.315,0.051,0.0,-0.122,-0.183,81.403,-71.208,122.728,-25.807,-23.147,5.307,29.08,0.03683,-0.64227,-0.25269,-0.7226,608
151,0.978,0.152,-0.224,-0.488,-0.427,-0.122,146.58,-74.46,6.548,-23.627,-16.947,-0.98,26.79,0.19537,0.77118,-0.13,0.59171,601,0.813,0.273,0.509,0.732,-0.244,0.488,29.35,-54.838,-144.415,-26.567,-15.527,2.313,24.1,0.37286,-0.35571,-0.35022,-0.7821,595,0.084,0.21,0.973,0.0,-1.16,1.709,12.294,-5.295,-176.841,-3.447,-13.633,-35.24,26.41,0.03171,-0.0423,-0.10785,-0.99271,607,0.933,0.315,0.049,-0.061,-0.244,-0.122,81.409,-71.208,122.728,-25.807,-23.147,5.307,29.08,0.03683,-0.64227,-0.25269,-0.7226,609
152,0.979,0.152,-0.225,-0.671,-0.488,-0.061,146.58,-74.454,6.553,-23.627,-16.947,-0.98,26.79,0.19537,0.77118,-0.13,0.59171,612,0.814,0.279,0.508,0.916,-0.488,0.366,29.361,-54.849,-144.393,-26.567,-15.527,2.313,24.1,0.37286,-0.35571,-0.35022,-0.7821,604,0.092,0.22,0.973,0.183,-1.343,0.61,12.294,-5.317,-176.819,-3.447,-13.633,-35.24,26.41,0.03171,-0.0423,-0.10785,-0.99271,614,0.932,0.315,0.046,-0.305,-0.183,-0.122,81.42,-71.208,122.728,-25.807,-23.147,5.307,29.08,0.03683,-0.64227,-0.25269,-0.7226,616
153,0.979,0.152,-0.228,-0.793,-0.61,-0.061,146.58,-74.443,6.548,-23.627,-16.947,-0.98,26.79,0.19537,0.77118,-0.13,0.59171,613,0.817,0.286,0.508,1.16,-0.366,0.183,29.377,-54.855,-144.377,-26.567,-15.527,2.313,24.1,0.37286,-0.35571,-0.35022,-0.7821,605,0.095,0.219,0.97,-0.305,-1.16,0.305,12.294,-5.339,-176.808,-3.447,-13.633,-35.24,26.41,0.03171,-0.0423,-0.10785,-0.99271,615,0.935,0.318,0.042,-0.305,-0.244,-0.183,81.42,-71.208,122.734,-25.807,-23.147,5.307,29.08,0.03683,-0.64227,-0.25269,-0.7226,617
154,0.978,0.154,-0.23,-0.549,-0.671,0.0,146.591,-74.432,6.526,-23.627,-16.947,-0.98,26.79,0.19537,0.77118,-0.13,0.59171,618,0.817,0.288,0.506,0.916,-0.366,0.122,29.394,-54.86,-144.36,-26.567,-15.527,2.313,24.1,0.37286,-0.35571,-0.35022,-0.7821,610,0.093,0.216,0.969,-0.61,-0.977,0.244,12.283,-5.361,-176.803,-3.447,-13.633,-35.24,26.41,0.03171,-0.0423,-0.10785,-0.99271,624,0.938,0.317,0.042,-0.732,-0.366,-0.122,81.431,-71.202,122.723,-25.807,-23.147,5.307,29.08,0.03796,-0.64142,-0.25397,-0.72287,622
155,0.98,0.153,-0.234,-0.244,-0.61,0.122,146.607,-74.421,6.493,-23.627,-16.947,-0.98,26.79,0.19537,0.77118,-0.13,0.59171,619,0.817,0.288,0.502,0.488,-0.305,0.244,29.405,-54.866,-144.344,-26.567,-15.527,2.313,24.1,0.37286,-0.35571,-0.35022,-0.7821,611,0.096,0.213,0.972,-0.916,-0.977,0.122,12.272,-5.378,-176.803,-3.447,-13.633,-35.24,26.41,0.03171,-0.0423,-0.10785,-0.99271,625,0.938,0.314,0.041,-0.854,-0.366,-0.061,81.442,-71.202,122.701,-25.807,-23.147,5.307,29.08,0.03796,-0.64142,-0.25397,-0.72287,623
156,0.98,0.151,-0.232,-0.488,-0.366,0.122,146.624,-74.416,6.465,-23.627,-16.947,-0.98,26.79,0.19537,0.77118,-0.13,0.59171,626,0.818,0.286,0.5,0.244,-0.061,0.305,29.405,-54.866,-144.327,-26.567,-15.527,2.313,24.1,0.37286,-0.35571,-0.35022,-0.7821,620,0.099,0.214,0.976,-1.038,-0.671,-0.244,12.255,-5.389,-176.808,-3.513,-13.247,-33.353,26.41,0.03171,-0.0423,-0.10785,-0.99271,630,0.937,0.315,0.042,-0.732,-0.305,-0.061,81.447,-71.202,122.684,-25.807,-23.147,5.307,29.08,0.03796,-0.64142,-0.25397,-0.72287,634
157,0.979,0.151,-0.233,-0.671,-0.305,0.061,146.624,-74.41,6.454,-23.627,-16.947,-0.98,26.79,0.19537,0.77118,-0.13,0.59171,627,0.822,0.286,0.501,0.0,-0.061,0.061,29.405,-54.866,-144.316,-26.567,-15.527,2.313,24.1,0.37286,-0.35571,-0.35022,-0.7821,621,0.102,0.216,0.976,-0.916,-0.916,-0.549,12.239,-5.4,-176.819,-3.513,-13.247,-33.353,26.41,0.03171,-0.0423,-0.10785,-0.99271,631,0.936,0.315,0.045,-0.671,0.0,0.061,81.453,-71.202,122.673,-25.807,-23.147,5.307,29.08,0.03796,-0.64142,-0.25397,-0.72287,635
158,0.979,0.152,-0.23,-0.793,-0.183,0.061,146.624,-74.405,6.454,-23.427,-17.08,-1.213,26.79,0.19537,0.77118,-0.13,0.59171,632,0.824,0.287,0.502,-0.366,-0.061,-0.061,29.399,-54.866,-144.305,-26.567,-15.527,2.313,24.1,0.37286,-0.35571,-0.35022,-0.7821,628,0.101,0.219,0.971,-0.916,-0.61,-0.793,12.222,-5.411,-176.836,-3.513,-13.247,-33.353,26.41,0.03171,-0.0423,-0.10785,-0.99271,640,0.935,0.314,0.042,-0.366,0.183,0.122,81.442,-71.202,122.69,-25.807,-23.147,5.307,29.08,0.03796,-0.64142,-0.25397,-0.72287,642
159,0.98,0.15,-0.23,-0.61,-0.122,0.122,146.618,-74.405,6.471,-23.427,-17.08,-1.213,26.79,0.19537,0.77118,-0.13,0.59171,633,0.824,0.285,0.5,-0.671,-0.183,-0.122,29.394,-54.866,-144.294,-26.567,-15.527,2.313,24.1,0.37286,-0.35571,-0.35022,-0.7821,629,0.097,0.218,0.971,-0.793,0.061,-0.916,12.211,-5.411,-176.841,-3.513,-13.247,-33.353,26.41,0.03171,-0.0423,-0.10785,-0.99271,641,0.934,0.312,0.043,0.0,0.305,0.305,81.431,-71.208,122.712,-25.807,-23.147,5.307,29.08,0.03796,-0.64142,-0.25397,-0.72287,643
160,0.979,0.149,-0.231,0.061,0.0,0.183,146.629,-74.405,6.487,-23.427,-17.08,-1.213,26.79,0.19537,0.77118,-0.13,0.59171,638,0.822,0.288,0.499,-0.732,-0.183,-0.122,29.388,-54.866,-144.294,-26.707,-15.413,2.76,24.1,0.37286,-0.35571,-0.35022,-0.7821,636,0.089,0.212,0.973,-0.732,0.061,-0.549,12.206,-5.405,-176.863,-3.513,-13.247,-33.353,26.41,0.03235,-0.04398,-0.10751,-0.99265,644,0.936,0.309,0.043,0.183,0.244,0.366,81.42,-71.213,122.739,-25.807,-23.147,5.307,29.08,0.03796,-0.64142,-0.25397,-0.72287,648
161,0.979,0.147,-0.23,0.671,0.122,0.183,146.651,-74.405,6.487,-23.427,-17.08,-1.213,26.79,0.19537,0.77118,-0.13,0.59171,639,0.821,0.287,0.498,-0.549,-0.183,0.0,29.383,-54.866,-144.294,-26.707,-15.413,2.76,24.1,0.37286,-0.35571,-0.35022,-0.7821,637,0.091,0.208,0.975,-0.183,-0.305,-0.061,12.2,-5.411,-176.874,-3.513,-13.247,-33.353,26.41,0.03235,-0.04398,-0.10751,-0.99265,645,0.939,0.306,0.047,0.244,0.0,0.305,81.414,-71.219,122.778,-25.807,-23.147,5.307,29.08,0.03796,-0.64142,-0.25397,-0.72287,649
162,0.98,0.146,-0.23,0.671,0.244,0.183,146.667,-74.41,6.487,-23.427,-17.08,-1.213,26.79,0.19547,0.77155,-0.1301,0.59119,650,0.817,0.282,0.5,-0.305,-0.183,0.0,29.383,-54.871,-144.294,-26.707,-15.413,2.76,24.1,0.37439,-0.35519,-0.35086,-0.78131,646,0.098,0.212,0.974,0.0,-0.671,0.427,12.2,-5.422,-176.858,-3.513,-13.247,-33.353,26.41,0.03235,-0.04398,-0.10751,-0.99265,654,0.936,0.308,0.045,0.916,0.0,0.305,81.425,-71.224,122.8,-25.807,-23.147,5.307,29.08,0.03796,-0.64142,-0.25397,-0.72287,656
163,0.982,0.146,-0.229,0.488,0.061,0.0,146.678,-74.41,6.487,-23.427,-17.08,-1.213,26.79,0.19547,0.77155,-0.1301,0.59119,651,0.818,0.279,0.505,0.061,-0.244,-0.061,29.388,-54.871,-144.278,-26.707,-15.413,2.76,24.1,0.37439,-0.35519,-0.35086,-0.78131,647,0.1,0.22,0.974,-0.305,-0.671,0.244,12.2,-5.438,-176.836,-3.513,-13.247,-33.353,26.41,0.03235,-0.04398,-0.10751,-0.99265,655,0.936,0.311,0.042,1.77,0.122,0.183,81.453,-71.235,122.816,-25.807,-23.147,5.307,29.08,0.03796,-0.64142,-0.25397,-0.72287,657
164,0.979,0.147,-0.23,1.099,-0.122,0.0,146.706,-74.41,6.471,-23.427,-17.08,-1.213,26.79,0.19547,0.77155,-0.1301,0.59119,658,0.823,0.278,0.506,0.061,-0.244,0.0,29.394,-54.877,-144.267,-26.707,-15.413,2.76,24.1,0.37439,-0.35519,-0.35086,-0.78131,652,0.098,0.215,0.972,-0.671,-0.061,0.183,12.189,-5.444,-176.814,-3.513,-13.247,-33.353,26.41,0.03235,-0.04398,-0.10751,-0.99265,662,0.937,0.315,0.042,1.465,0.122,0.183,81.48,-71.241,122.844,-25.807,-23.147,5.307,29.08,0.03796,-0.64142,-0.25397,-0.72287,664
165,0.979,0.149,-0.232,1.831,0.0,0.0,146.744,-74.41,6.465,-23.427,-17.08,-1.213,26.79,0.19547,0.77155,-0.1301,0.59119,659,0.823,0.284,0.503,0.183,-0.122,0.305,29.394,-54.882,-144.245,-26.707,-15.413,2.76,24.1,0.37439,-0.35519,-0.35086,-0.78131,653,0.1,0.207,0.971,-1.221,0.0,0.183,12.173,-5.444,-176.803,-3.513,-13.247,-33.353,26.41,0.03235,-0.04398,-0.10751,-0.99265,663,0.942,0.313,0.038,0.854,0.0,0.427,81.502,-71.246,122.855,-25.807,-23.147,5.307,29.08,0.03796,-0.64142,-0.25397,-0.72287,665
166,0.979,0.149,-0.233,1.953,-0.061,0.0,146.794,-74.405,6.476,-23.427,-17.08,-1.213,26.79,0.19547,0.77155,-0.1301,0.59119,666,0.82,0.281,0.499,0.671,0.0,0.793,29.388,-54.888,-144.212,-26.707,-15.413,2.76,24.1,0.37439,-0.35519,-0.35086,-0.78131,660,0.102,0.211,0.969,-1.16,0.732,-0.366,12.151,-5.433,-176.792,-3.513,-13.247,-33.353,26.41,0.03235,-0.04398,-0.10751,-0.99265,670,0.941,0.303,0.035,1.221,-0.061,0.549,81.53,-71.257,122.86,-25.533,-23.227,5.173,29.08,0.03796,-0.64142,-0.25397,-0.72287,674
167,0.985,0.144,-0.237,1.709,0.061,0.0,146.832,-74.405,6.482,-23.427,-17.08,-1.213,26.79,0.19547,0.77155,-0.1301,0.59119,667,0.821,0.281,0.501,0.244,0.0,0.854,29.372,-54.899,-144.179,-26.707,-15.413,2.76,24.1,0.37439,-0.35519,-0.35086,-0.78131,661,0.097,0.214,0.979,-0.61,0.732,-0.366,12.14,-5.416,-176.819,-3.513,-13.247,-33.353,26.41,0.03235,-0.04398,-0.10751,-0.99265,671,0.938,0.302,0.032,2.686,-0.305,0.366,81.573,-71.268,122.849,-25.533,-23.227,5.173,29.08,0.03796,-0.64142,-0.25397,-0.72287,675
168,0.982,0.14,-0.24,2.38,0.061,0.0,146.882,-74.405,6.471,-23.427,-17.08,-1.213,26.79,0.19547,0.77155,-0.1301,0.59119,672,0.828,0.287,0.5,0.0,0.183,0.488,29.361,-54.899,-144.152,-26.707,-15.413,2.76,24.1,0.37439,-0.35519,-0.35086,-0.78131,668,0.096,0.215,0.982,-0.488,0.0,0.366,12.129,-5.416,-176.88,-3.513,-13.247,-33.353,26.41,0.03235,-0.04398,-0.10751,-0.99265,678,0.936,0.306,0.035,3.662,-0.366,0.183,81.661,-71.279,122.822,-25.533,-23.227,5.173,29.08,0.04041,-0.64139,-0.25571,-0.72214,680
169,0.98,0.139,-0.242,3.296,0.244,-0.305,146.937,-74.405,6.482,-23.427,-17.08,-1.213,26.79,0.19547,0.77155,-0.1301,0.59119,673,0.827,0.282,0.5,0.244,0.122,0.427,29.35,-54.904,-144.135,-26.707,-15.413,2.76,24.1,0.37439,-0.35519,-0.35086,-0.78131,669,0.104,0.206,0.979,-0.549,-0.977,1.404,12.123,-5.438,-176.907,-3.513,-13.247,-33.353,26.41,0.03235,-0.04398,-0.10751,-0.99265,679,0.936,0.312,0.039,3.601,-0.305,0.305,81.766,-71.29,122.783,-25.533,-23.227,5.173,29.08,0.04041,-0.64139,-0.25571,-0.72214,681
170,0.979,0.143,-0.237,4.211,0.427,-0.427,146.997,-74.405,6.52,-23.427,-17.08,-1.213,26.79,0.19547,0.77155,-0.1301,0.59119,682,0.824,0.273,0.502,0.854,0.061,0.977,29.344,-54.91,-144.108,-26.707,-15.413,2.76,24.1,0.37439,-0.35519,-0.35086,-0.78131,676,0.103,0.207,0.973,-0.549,-1.465,1.831,12.107,-5.477,-176.918,-3.513,-13.247,-33.353,26.41,0.03235,-0.04398,-0.10751,-0.99265,684,0.938,0.31,0.043,2.686,0.061,0.61,81.843,-71.301,122.789,-25.533,-23.227,5.173,29.08,0.04041,-0.64139,-0.25571,-0.72214,686
171,0.978,0.144,-0.231,4.272,0.549,-0.366,147.052,-74.41,6.559,-23.427,-17.08,-1.213,26.79,0.19547,0.77155,-0.1301,0.59119,683,0.824,0.272,0.5,1.648,0.0,1.526,29.333,-54.926,-144.058,-26.707,-15.413,2.76,24.1,0.37439,-0.35519,-0.35086,-0.78131,677,0.107,0.212,0.968,-0.549,-0.977,1.709,12.096,-5.504,-176.913,-3.513,-13.247,-33.353,26.41,0.03235,-0.04398,-0.10751,-0.99265,685,0.94,0.307,0.044,2.441,0.549,1.099,81.876,-71.323,122.816,-25.533,-23.227,5.173,29.08,0.04041,-0.64139,-0.25571,-0.72214,687
172,0.98,0.141,-0.224,4.211,0.61,-0.366,147.107,-74.416,6.575,-23.427,-17.08,-1.213,26.79,0.19547,0.77155,-0.1301,0.59119,692,0.824,0.279,0.497,1.892,-0.122,1.526,29.333,-54.948,-144.009,-26.707,-15.413,2.76,24.1,0.37439,-0.35519,-0.35086,-0.78131,688,0.107,0.214,0.967,-0.916,0.061,0.427,12.079,-5.515,-176.951,-3.513,-13.247,-33.353,26.41,0.03235,-0.04398,-0.10751,-0.99265,690,0.938,0.306,0.048,2.136,1.099,1.709,81.87,-71.351,122.882,-25.533,-23.227,5.173,29.08,0.04041,-0.64139,-0.25571,-0.72214,696
173,0.979,0.138,-0.221,4.639,0.916,-0.488,147.151,-74.421,6.614,-23.427,-17.08,-1.213,26.79,0.19547,0.77155,-0.1301,0.59119,693,0.825,0.286,0.496,1.526,0.0,1.343,29.333,-54.965,-143.965,-26.707,-15.413,2.76,24.1,0.37439,-0.35519,-0.35086,-0.78131,689,0.103,0.214,0.969,-1.465,1.282,-0.427,12.057,-5.499,-176.979,-3.513,-13.247,-33.353,26.41,0.03235,-0.04398,-0.10751,-0.99265,691,0.935,0.303,0.046,2.197,1.648,1.953,81.821,-71.384,122.975,-25.533,-23.227,5.173,29.08,0.04041,-0.64139,-0.25571,-0.72214,697
174,0.978,0.14,-0.22,4.822,1.16,-0.549,147.184,-74.438,6.691,-23.327,-17.107,-0.793,26.79,0.19547,0.77155,-0.1301,0.59119,698,0.826,0.286,0.496,0.916,0.244,1.343,29.317,-54.976,-143.915,-26.707,-15.413,2.76,24.1,0.37439,-0.35519,-0.35086,-0.78131,694,0.092,0.212,0.972,-1.953,2.197,-0.366,12.025,-5.466,-177.006,-3.513,-13.247,-33.353,26.41,0.03235,-0.04398,-0.10751,-0.99265,700,0.934,0.304,0.048,2.869,1.892,1.892,81.755,-71.422,123.113,-25.533,-23.227,5.173,29.08,0.04041,-0.64139,-0.25571,-0.72214,704
175,0.979,0.145,-0.222,4.639,1.282,-0.671,147.2,-74.454,6.779,-23.327,-17.107,-0.793,26.79,0.19547,0.77155,-0.1301,0.59119,699,0.825,0.284,0.497,0.183,0.61,1.526,29.284,-54.981,-143.855,-26.707,-15.413,2.76,24.1,0.37439,-0.35519,-0.35086,-0.78131,695,0.086,0.208,0.975,-1.953,1.648,0.244,11.986,-5.433,-177.028,-3.513,-13.247,-33.353,26.41,0.03235,-0.04398,-0.10751,-0.99265,701,0.933,0.307,0.048,3.601,1.892,1.648,81.694,-71.455,123.261,-25.533,-23.227,5.173,29.08,0.04041,-0.64139,-0.25571,-0.72214,705
176,0.979,0.146,-0.224,4.944,1.404,-0.732,147.206,-74.471,6.883,-23.327,-17.107,-0.793,26.79,0.19547,0.77155,-0.1301,0.59119,710,0.818,0.279,0.5,0.0,0.916,1.709,29.235,-54.987,-143.784,-26.873,-15.493,3.527,24.1,0.37439,-0.35519,-0.35086,-0.78131,702,0.088,0.208,0.974,-1.648,0.183,0.977,11.953,-5.427,-177.05,-3.7,-13.52,-33.993,26.41,0.03235,-0.04398,-0.10751,-0.99265,706,0.933,0.308,0.047,4.15,1.648,1.587,81.65,-71.483,123.398,-25.533,-23.227,5.173,29.08,0.04041,-0.64139,-0.25571,-0.72214,718
177,0.979,0.147,-0.228,5.676,1.282,-0.671,147.228,-74.487,6.982,-23.327,-17.107,-0.793,26.79,0.19547,0.77155,-0.1301,0.59119,711,0.815,0.273,0.504,0.244,0.977,2.014,29.18,-54.992,-143.696,-26.873,-15.493,3.527,24.1,0.37439,-0.35519,-0.35086,-0.78131,703,0.085,0.204,0.971,-1.831,0.244,1.282,11.92,-5.433,-177.017,-3.7,-13.52,-33.993,26.41,0.03235,-0.04398,-0.10751,-0.99265,707,0.93,0.31,0.047,4.028,1.343,1.282,81.634,-71.51,123.525,-25.533,-23.227,5.173,29.08,0.04041,-0.64139,-0.25571,-0.72214,719
178,0.979,0.15,-0.23,6.104,1.16,-0.61,147.266,-74.504,7.097,-23.327,-17.107,-0.793,26.79,0.18854,0.77271,-0.12366,0.59329,712,0.814,0.274,0.508,0.61,0.854,2.38,29.119,-54.998,-143.602,-26.873,-15.493,3.527,24.1,0.37439,-0.35519,-0.35086,-0.78131,708,0.082,0.204,0.974,-1.343,0.244,1.404,11.893,-5.433,-176.968,-3.7,-13.52,-33.993,26.41,0.03235,-0.04398,-0.10751,-0.99265,716,0.929,0.312,0.047,3.479,1.099,0.854,81.623,-71.526,123.635,-25.533,-23.227,5.173,29.08,0.04041,-0.64139,-0.25571,-0.72214,720
179,0.977,0.157,-0.229,5.554,0.854,-0.61,147.31,-74.509,7.202,-23.327,-17.107,-0.793,26.79,0.18854,0.77271,-0.12366,0.59329,713,0.814,0.275,0.508,1.221,0.793,2.625,29.064,-55.009,-143.503,-26.873,-15.493,3.527,24.1,0.37439,-0.35519,-0.35086,-0.78131,709,0.081,0.202,0.972,-1.099,0.305,1.709,11.871,-5.433,-176.94,-3.7,-13.52,-33.993,26.41,0.03235,-0.04398,-0.10751,-0.99265,717,0.93,0.315,0.048,2.869,0.916,0.244,81.623,-71.537,123.723,-25.533,-23.227,5.173,29.08,0.04041,-0.64139,-0.25571,-0.72214,721
180,0.976,0.161,-0.229,4.15,0.61,-0.61,147.332,-74.515,7.284,-23.327,-17.107,-0.793,26.79,0.18854,0.77271,-0.12366,0.59329,724,0.812,0.276,0.508,1.709,0.671,2.502,29.02,-55.025,-143.405,-26.873,-15.493,3.527,24.1,0.37875,-0.35489,-0.35135,-0.77911,714,0.079,0.2,0.972,-0.732,-0.244,1.953,11.849,-5.438,-176.913,-3.7,-13.52,-33.993,26.41,0.0314,-0.04437,-0.10449,-0.99298,722,0.931,0.321,0.051,2.075,0.61,-0.183,81.623,-71.532,123.788,-25.533,-23.227,5.173,29.08,0.04041,-0.64139,-0.25571,-0.72214,726
181,0.976,0.163,-0.229,2.747,0.427,-0.671,147.327,-74.515,7.35,-23.327,-17.107,-0.793,26.79,0.18854,0.77271,-0.12366,0.59329,725,0.811,0.275,0.508,1.831,0.549,2.441,28.987,-55.036,-143.322,-26.873,-15.493,3.527,24.1,0.37875,-0.35489,-0.35135,-0.77911,715,0.084,0.2,0.974,-0.671,-0.61,1.282,11.832,-5.449,-176.885,-3.7,-13.52,-33.993,26.41,0.0314,-0.04437,-0.10449,-0.99298,723,0.932,0.329,0.052,1.099,0.427,-0.183,81.623,-71.526,123.827,-25.533,-23.227,5.173,29.08,0.04041,-0.64139,-0.25571,-0.72214,727
182,0.98,0.163,-0.228,1.831,0.244,-0.488,147.31,-74.509,7.416,-23.327,-17.107,-0.793,26.79,0.18854,0.77271,-0.12366,0.59329,728,0.811,0.276,0.509,2.197,0.488,2.197,28.965,-55.047,-143.234,-26.873,-15.493,3.527,24.1,0.37875,-0.35489,-0.35135,-0.77911,730,0.086,0.209,0.97,-1.221,-0.183,0.0,11.816,-5.455,-176.88,-3.7,-13.52,-33.993,26.41,0.0314,-0.04437,-0.10449,-0.99298,732,0.926,0.331,0.054,-0.427,0.305,0.0,81.606,-71.516,123.86,-25.58,-22.62,5.193,29.08,0.04041,-0.64139,-0.25571,-0.72214,736
183,0.974,0.165,-0.226,1.16,0.183,-0.244,147.288,-74.509,7.46,-23.327,-17.107,-0.793,26.79,0.18854,0.77271,-0.12366,0.59329,729,0.812,0.281,0.508,2.258,0.427,1.831,28.954,-55.052,-143.174,-26.873,-15.493,3.527,24.1,0.37875,-0.35489,-0.35135,-0.77911,731,0.088,0.216,0.967,-1.648,0.244,-0.671,11.788,-5.444,-176.863,-3.7,-13.52,-33.993,26.41,0.0314,-0.04437,-0.10449,-0.99298,733,0.925,0.321,0.055,-2.686,0.488,0.0,81.546,-71.51,123.904,-25.58,-22.62,5.193,29.08,0.04041,-0.64139,-0.25571,-0.72214,737
184,0.974,0.168,-0.22,-0.305,0.183,0.0,147.25,-74.509,7.498,-23.327,-17.107,-0.793,26.79,0.18854,0.77271,-0.12366,0.59329,738,0.813,0.292,0.509,1.77,0.305,1.16,28.954,-55.052,-143.124,-26.873,-15.493,3.527,24.1,0.37875,-0.35489,-0.35135,-0.77911,734,0.087,0.222,0.965,-2.563,1.038,-0.916,11.744,-5.416,-176.847,-3.7,-13.52,-33.993,26.41,0.0314,-0.04437,-0.10449,-0.99298,742,0.925,0.313,0.056,-4.272,0.977,-0.549,81.431,-71.494,123.964,-25.58,-22.62,5.193,29.08,0.04758,-0.63962,-0.25943,-0.72195,744
185,0.971,0.17,-0.215,-3.052,0.122,0.122,147.162,-74.509,7.542,-23.327,-17.107,-0.793,26.79,0.18854,0.77271,-0.12366,0.59329,739,0.81,0.297,0.507,1.099,0.549,0.488,28.96,-55.042,-143.086,-26.873,-15.493,3.527,24.1,0.37875,-0.35489,-0.35135,-0.77911,735,0.081,0.214,0.963,-3.357,1.343,-0.793,11.689,-5.383,-176.852,-3.7,-13.52,-33.993,26.41,0.0314,-0.04437,-0.10449,-0.99298,743,0.931,0.313,0.056,-3.662,1.343,-1.16,81.282,-71.466,124.041,-25.58,-22.62,5.193,29.08,0.04758,-0.63962,-0.25943,-0.72195,745
186,0.976,0.169,-0.214,-5.737,0.0,-0.061,147.008,-74.504,7.603,-23.327,-17.107,-0.793,26.79,0.18854,0.77271,-0.12366,0.59329,746,0.808,0.296,0.504,0.61,0.916,0.122,28.96,-55.02,-143.058,-26.873,-15.493,3.527,24.1,0.37875,-0.35489,-0.35135,-0.77911,740,0.08,0.197,0.967,-3.784,0.977,-0.427,11.624,-5.356,-176.836,-3.7,-13.52,-33.993,26.41,0.0314,-0.04437,-0.10449,-0.99298,750,0.935,0.322,0.055,-2.441,1.282,-1.526,81.145,-71.428,124.135,-25.58,-22.62,5.193,29.08,0.04758,-0.63962,-0.25943,-0.72195,754
187,0.977,0.166,-0.22,-6.775,-0.183,-0.183,146.832,-74.498,7.663,-23.327,-17.107,-0.793,26.79,0.18854,0.77271,-0.12366,0.59329,747,0.806,0.284,0.501,-0.061,1.465,0.244,28.943,-54.992,-143.02,-26.873,-15.493,3.527,24.1,0.37875,-0.35489,-0.35135,-0.77911,741,0.076,0.19,0.973,-3.113,1.221,0.366,11.563,-5.334,-176.808,-3.7,-13.52,-33.993,26.41,0.0314,-0.04437,-0.10449,-0.99298,751,0.934,0.324,0.055,-2.686,0.671,-1.587,81.052,-71.389,124.217,-25.58,-22.62,5.193,29.08,0.04758,-0.63962,-0.25943,-0.72195,755
188,0.979,0.163,-0.228,-7.08,-0.244,0.0,146.662,-74.487,7.69,-23.327,-17.107,-0.793,26.79,0.18854,0.77271,-0.12366,0.59329,752,0.809,0.275,0.505,-0.366,1.77,0.366,28.905,-54.959,-142.965,-26.873,-15.493,3.527,24.1,0.37875,-0.35489,-0.35135,-0.77911,748,0.075,0.196,0.977,-2.014,0.916,0.183,11.519,-5.306,-176.77,-3.7,-13.52,-33.993,26.41,0.0314,-0.04437,-0.10449,-0.99298,758,0.935,0.325,0.049,-3.113,0.0,-1.404,80.991,-71.356,124.255,-25.58,-22.62,5.193,29.08,0.04758,-0.63962,-0.25943,-0.72195,760
189,0.982,0.16,-0.233,-7.324,-0.732,0.305,146.536,-74.476,7.668,-23.327,-17.107,-0.793,26.79,0.18854,0.77271,-0.12366,0.59329,753,0.811,0.275,0.513,-0.488,1.526,0.0,28.878,-54.926,-142.927,-26.873,-15.493,3.527,24.1,0.37875,-0.35489,-0.35135,-0.77911,749,0.081,0.198,0.984,-1.343,0.854,-0.61,11.492,-5.284,-176.721,-3.7,-13.52,-33.993,26.41,0.0314,-0.04437,-0.10449,-0.99298,759,0.938,0.318,0.041,-2.991,-0.671,-1.16,80.969,-71.323,124.239,-25.58,-22.62,5.193,29.08,0.04758,-0.63962,-0.25943,-0.72195,761
190,0.983,0.154,-0.242,-6.653,-1.282,0.793,146.475,-74.46,7.581,-23.327,-17.107,-0.793,26.79,0.18854,0.77271,-0.12366,0.59329,762,0.812,0.284,0.518,-0.854,1.221,-0.732,28.867,-54.888,-142.916,-26.873,-15.493,3.527,24.1,0.37875,-0.35489,-0.35135,-0.77911,756,0.081,0.202,0.986,0.061,0.427,-0.549,11.492,-5.262,-176.66,-3.7,-13.52,-33.993,26.41,0.0314,-0.04437,-0.10449,-0.99298,766,0.938,0.311,0.039,-2.319,-1.343,-0.854,80.997,-71.307,124.156,-25.58,-22.62,5.193,29.08,0.04758,-0.63962,-0.25943,-0.72195,768
191,0.984,0.143,-0.245,-4.761,-1.404,1.099,146.492,-74.443,7.476,-23.327,-17.107,-0.793,26.79,0.18854,0.77271,-0.12366,0.59329,763,0.814,0.289,0.52,-0.854,0.671,-1.465,28.878,-54.855,-142.938,-26.873,-15.493,3.527,24.1,0.37875,-0.35489,-0.35135,-0.77911,757,0.09,0.206,0.982,0.854,-0.671,-0.366,11.508,-5.262,-176.611,-3.7,-13.52,-33.993,26.41,0.0314,-0.04437,-0.10449,-0.99298,767,0.943,0.304,0.039,-1.282,-1.77,-0.122,81.074,-71.301,124.03,-25.58,-22.62,5.193,29.08,0.04758,-0.63962,-0.25943,-0.72195,769
192,0.981,0.134,-0.24,-2.075,-1.343,1.221,146.574,-74.432,7.344,-23.327,-17.107,-0.793,26.79,0.18854,0.77271,-0.12366,0.59329,770,0.819,0.288,0.515,-0.366,0.061,-1.77,28.916,-54.833,-142.965,-26.873,-15.493,3.527,24.1,0.37875,-0.35489,-0.35135,-0.77911,764,0.101,0.214,0.982,0.916,-0.793,-0.427,11.53,-5.268,-176.594,-3.7,-13.52,-33.993,26.41,0.0314,-0.04437,-0.10449,-0.99298,774,0.944,0.304,0.041,-0.488,-1.587,0.61,81.156,-71.312,123.926,-25.58,-22.62,5.193,29.08,0.04758,-0.63962,-0.25943,-0.72195,776
193,0.983,0.133,-0.235,0.0,-1.099,1.099,146.689,-74.421,7.234,-23.327,-17.107,-0.793,26.79,0.18854,0.77271,-0.12366,0.59329,771,0.821,0.284,0.511,0.0,-0.366,-1.648,28.965,-54.816,-143.009,-26.873,-15.493,3.527,24.1,0.37875,-0.35489,-0.35135,-0.77911,765,0.104,0.216,0.986,0.549,-1.282,-0.488,11.547,-5.284,-176.6,-3.7,-13.52,-33.993,26.41,0.0314,-0.04437,-0.10449,-0.99298,775,0.944,0.305,0.042,-0.061,-1.16,1.099,81.227,-71.34,123.849,-25.58,-22.62,5.193,29.08,0.04758,-0.63962,-0.25943,-0.72195,777
194,0.981,0.138,-0.229,1.16,-0.793,0.916,146.805,-74.416,7.158,-23.56,-17.193,-0.82,26.79,0.18854,0.77271,-0.12366,0.59329,778,0.828,0.287,0.505,0.0,-0.488,-1.221,29.004,-54.805,-143.047,-26.873,-15.493,3.527,24.1,0.37875,-0.35489,-0.35135,-0.77911,772,0.106,0.214,0.985,-0.122,-0.854,0.0,11.558,-5.301,-176.561,-3.333,-12.827,-32.253,26.41,0.0314,-0.04437,-0.10449,-0.99298,782,0.942,0.304,0.045,-0.732,-0.671,1.282,81.255,-71.367,123.799,-25.58,-22.62,5.193,29.08,0.04758,-0.63962,-0.25943,-0.72195,784
195,0.98,0.143,-0.227,0.793,-0.244,0.793,146.887,-74.421,7.114,-23.56,-17.193,-0.82,26.79,0.18854,0.77271,-0.12366,0.59329,779,0.833,0.288,0.501,-0.244,-0.244,-0.488,29.015,-54.8,-143.064,-26.873,-15.493,3.527,24.1,0.37875,-0.35489,-0.35135,-0.77911,773,0.104,0.202,0.983,-0.793,-1.221,0.122,11.547,-5.317,-176.523,-3.333,-12.827,-32.253,26.41,0.0314,-0.04437,-0.10449,-0.99298,783,0.937,0.3,0.047,-1.221,-0.244,1.16,81.249,-71.395,123.783,-25.58,-22.62,5.193,29.08,0.04758,-0.63962,-0.25943,-0.72195,785
196,0.98,0.145,-0.226,-0.488,0.0,0.671,146.926,-74.427,7.092,-23.56,-17.193,-0.82,26.79,0.19031,0.77258,-0.12454,0.59268,786,0.833,0.284,0.5,-0.549,-0.305,0.244,29.004,-54.805,-143.064,-26.833,-15.62,2.467,24.1,0.37875,-0.35489,-0.35135,-0.77911,780,0.103,0.192,0.976,-1.465,-0.793,-0.366,11.525,-5.334,-176.512,-3.333,-12.827,-32.253,26.41,0.03491,-0.04324,-0.10168,-0.99323,790,0.935,0.298,0.045,-1.221,0.0,0.916,81.222,-71.417,123.783,-25.613,-23.1,5.127,29.08,0.04758,-0.63962,-0.25943,-0.72195,792
197,0.979,0.144,-0.227,-1.465,0.0,0.549,146.942,-74.432,7.075,-23.56,-17.193,-0.82,26.79,0.19031,0.77258,-0.12454,0.59268,787,0.829,0.278,0.5,-0.427,-0.427,0.854,28.987,-54.822,-143.053,-26.833,-15.62,2.467,24.1,0.37875,-0.35489,-0.35135,-0.77911,781,0.103,0.18,0.97,-1.404,-0.366,-0.61,11.503,-5.345,-176.512,-3.333,-12.827,-32.253,26.41,0.03491,-0.04324,-0.10168,-0.99323,791,0.937,0.295,0.042,-0.793,0.0,0.427,81.205,-71.433,123.766,-25.613,-23.1,5.127,29.08,0.04758,-0.63962,-0.25943,-0.72195,793
198,0.979,0.14,-0.232,-1.343,-0.122,0.366,146.948,-74.438,7.059,-23.56,-17.193,-0.82,26.79,0.19031,0.77258,-0.12454,0.59268,794,0.822,0.271,0.502,-0.305,-0.854,0.977,28.971,-54.844,-143.036,-26.833,-15.62,2.467,24.1,0.38165,-0.35248,-0.35193,-0.77856,788,0.104,0.177,0.966,-1.099,-0.366,-0.671,11.481,-5.35,-176.528,-3.333,-12.827,-32.253,26.41,0.03491,-0.04324,-0.10168,-0.99323,800,0.939,0.294,0.041,-0.366,0.122,0.0,81.194,-71.439,123.739,-25.613,-23.1,5.127,29.08,0.04431,-0.64001,-0.25681,-0.72275,798
199,0.981,0.139,-0.232,-0.854,-0.061,0.183,146.959,-74.438,7.048,-23.56,-17.193,-0.82,26.79,0.19031,0.77258,-0.12454,0.59268,795,0.819,0.264,0.501,-0.366,-0.793,0.732,28.954,-54.866,-143.031,-26.833,-15.62,2.467,24.1,0.38165,-0.35248,-0.35193,-0.77856,789,0.099,0.183,0.968,-0.61,0.0,-0.61,11.464,-5.356,-176.539,-3.333,-12.827,-32.253,26.41,0.03491,-0.04324,-0.10168,-0.99323,801,0.94,0.296,0.041,0.061,0.061,-0.244,81.194,-71.439,123.695,-25.613,-23.1,5.127,29.08,0.04431,-0.64001,-0.25681,-0.72275,799
200,0.981,0.138,-0.234,-0.183,-0.122,0.0,146.975,-74.438,7.053,-23.56,-17.193,-0.82,26.79,0.19031,0.77258,-0.12454,0.59268,802,0.82,0.259,0.5,-0.427,-0.671,0.305,28.943,-54.882,-143.036,-26.833,-15.62,2.467,24.1,0.38165,-0.35248,-0.35193,-0.77856,796,0.1,0.189,0.974,-0.427,0.366,-0.366,11.453,-5.35,-176.545,-3.333,-12.827,-32.253,26.41,0.03491,-0.04324,-0.10168,-0.99323,804,0.941,0.299,0.04,0.549,0.122,-0.549,81.211,-71.439,123.657,-25.613,-23.1,5.127,29.08,0.04431,-0.64001,-0.25681,-0.72275,808
201,0.981,0.14,-0.235,0.244,-0.183,-0.183,146.992,-74.432,7.053,-23.56,-17.193,-0.82,26.79,0.19031,0.77258,-0.12454,0.59268,803,0.823,0.26,0.499,-0.488,-0.183,0.0,28.932,-54.888,-143.047,-26.833,-15.62,2.467,24.1,0.38165,-0.35248,-0.35193,-0.77856,797,0.099,0.191,0.978,-0.366,0.427,-0.061,11.442,-5.345,-176.539,-3.333,-12.827,-32.253,26.41,0.03491,-0.04324,-0.10168,-0.99323,805,0.939,0.306,0.04,0.793,0.183,-0.793,81.227,-71.428,123.624,-25.613,-23.1,5.127,29.08,0.04431,-0.64001,-0.25681,-0.72275,809
202,0.981,0.145,-0.235,0.305,-0.183,-0.427,146.997,-74.427,7.07,-23.56,-17.193,-0.82,26.79,0.19031,0.77258,-0.12454,0.59268,810,0.825,0.263,0.5,0.0,0.122,0.0,28.927,-54.893,-143.053,-26.833,-15.62,2.467,24.1,0.38165,-0.35248,-0.35193,-0.77856,806,0.096,0.196,0.983,-0.122,-0.366,0.61,11.431,-5.356,-176.523,-3.333,-12.827,-32.253,26.41,0.03491,-0.04324,-0.10168,-0.99323,812,0.937,0.31,0.042,0.549,0.244,-0.916,81.244,-71.417,123.596,-25.613,-23.1,5.127,29.08,0.04431,-0.64001,-0.25681,-0.72275,816
203,0.979,0.148,-0.235,-0.122,0.0,-0.488,146.986,-74.421,7.092,-23.56,-17.193,-0.82,26.79,0.19031,0.77258,-0.12454,0.59268,811,0.826,0.266,0.501,0.671,0.305,0.061,28.922,-54.893,-143.047,-26.833,-15.62,2.467,24.1,0.38165,-0.35248,-0.35193,-0.77856,807,0.092,0.196,0.979,0.0,-0.793,0.549,11.431,-5.372,-176.512,-3.333,-12.827,-32.253,26.41,0.03491,-0.04324,-0.10168,-0.99323,813,0.937,0.311,0.046,0.244,0.305,-0.793,81.249,-71.406,123.591,-25.613,-23.1,5.127,29.08,0.04431,-0.64001,-0.25681,-0.72275,817
204,0.979,0.149,-0.231,-0.61,0.061,-0.549,146.953,-74.416,7.125,-23.56,-17.193,-0.82,26.79,0.19031,0.77258,-0.12454,0.59268,818,0.824,0.272,0.503,1.16,0.244,0.183,28.932,-54.893,-143.031,-26.833,-15.62,2.467,24.1,0.38165,-0.35248,-0.35193,-0.77856,814,0.093,0.196,0.978,0.366,-1.038,0.244,11.431,-5.4,-176.506,-3.333,-12.827,-32.253,26.41,0.03491,-0.04324,-0.10168,-0.99323,822,0.935,0.31,0.048,0.244,0.305,-0.671,81.249,-71.395,123.591,-25.613,-23.1,5.127,29.08,0.04431,-0.64001,-0.25681,-0.72275,826
205,0.979,0.147,-0.228,-0.793,0.244,-0.488,146.909,-74.41,7.163,-23.56,-17.193,-0.82,26.79,0.19031,0.77258,-0.12454,0.59268,819,0.821,0.277,0.504,1.465,0.0,0.183,28.949,-54.899,-143.026,-26.833,-15.62,2.467,24.1,0.38165,-0.35248,-0.35193,-0.77856,815,0.09,0.203,0.977,0.061,-0.732,0.305,11.431,-5.416,-176.506,-3.333,-12.827,-32.253,26.41,0.03491,-0.04324,-0.10168,-0.99323,823,0.934,0.31,0.05,0.305,0.305,-0.427,81.249,-71.389,123.607,-25.613,-23.1,5.127,29.08,0.04431,-0.64001,-0.25681,-0.72275,827
206,0.979,0.147,-0.227,-0.488,0.305,-0.488,146.871,-74.41,7.213,-23.56,-17.193,-0.82,26.79,0.19031,0.77258,-0.12454,0.59268,824,0.82,0.278,0.505,1.709,0.0,0.061,28.976,-54.904,-143.026,-26.833,-15.62,2.467,24.1,0.38165,-0.35248,-0.35193,-0.77856,820,0.09,0.201,0.974,0.0,-0.488,0.427,11.431,-5.427,-176.512,-3.333,-12.827,-32.253,26.41,0.03491,-0.04324,-0.10168,-0.99323,830,0.934,0.311,0.051,0.244,0.305,-0.244,81.238,-71.389,123.64,-25.613,-23.1,5.127,29.08,0.04431,-0.64001,-0.25681,-0.72275,832
207,0.978,0.149,-0.227,-0.061,0.244,-0.427,146.843,-74.41,7.273,-23.56,-17.193,-0.82,26.79,0.19031,0.77258,-0.12454,0.59268,825,0.816,0.282,0.507,1.282,-0.244,0.0,28.998,-54.91,-143.02,-26.833,-15.62,2.467,24.1,0.38165,-0.35248,-0.35193,-0.77856,821,0.089,0.198,0.974,-0.244,0.061,0.0,11.426,-5.433,-176.539,-3.333,-12.827,-32.253,26.41,0.03491,-0.04324,-0.10168,-0.99323,831,0.933,0.312,0.05,0.122,0.244,-0.244,81.233,-71.384,123.668,-25.613,-23.1,5.127,29.08,0.04431,-0.64001,-0.25681,-0.72275,833
208,0.978,0.152,-0.227,0.183,0.061,-0.366,146.832,-74.41,7.317,-23.56,-17.193,-0.82,26.79,0.19031,0.77258,-0.12454,0.59268,836,0.816,0.283,0.506,0.61,-0.183,0.061,29.009,-54.915,-143.009,-26.833,-15.62,2.467,24.1,0.38165,-0.35248,-0.35193,-0.77856,828,0.088,0.201,0.973,-0.427,0.122,0.061,11.42,-5.427,-176.572,-3.333,-12.827,-32.253,26.41,0.03491,-0.04324,-0.10168,-0.99323,834,0.932,0.312,0.051,0.0,0.183,-0.366,81.227,-71.378,123.695,-25.613,-23.1,5.127,29.08,0.04431,-0.64001,-0.25681,-0.72275,838
209,0.977,0.154,-0.227,0.183,0.0,-0.305,146.821,-74.405,7.328,-23.56,-17.193,-0.82,26.79,0.19031,0.77258,-0.12454,0.59268,837,0.815,0.281,0.507,0.366,-0.061,0.061,29.009,-54.921,-142.998,-26.833,-15.62,2.467,24.1,0.38165,-0.35248,-0.35193,-0.77856,829,0.089,0.199,0.975,-0.671,0.122,0.183,11.404,-5.427,-176.589,-3.333,-12.827,-32.253,26.41,0.03491,-0.04324,-0.10168,-0.99323,835,0.934,0.312,0.048,0.122,0.061,-0.488,81.227,-71.373,123.701,-25.613,-23.1,5.127,29.08,0.04431,-0.64001,-0.25681,-0.72275,839
210,0.978,0.154,-0.227,0.0,-0.061,-0.305,146.805,-74.399,7.339,-23.873,-16.767,-1.04,26.79,0.19031,0.77258,-0.12454,0.59268,840,0.815,0.281,0.507,0.366,0.0,0.0,29.015,-54.921,-142.987,-26.833,-15.62,2.467,24.1,0.38165,-0.35248,-0.35193,-0.77856,842,0.091,0.201,0.975,-0.61,0.0,0.0,11.393,-5.427,-176.6,-3.333,-12.827,-32.253,26.41,0.03491,-0.04324,-0.10168,-0.99323,844,0.934,0.315,0.048,0.305,0.0,-0.366,81.238,-71.367,123.712,-25.613,-23.1,5.127,29.08,0.04431,-0.64001,-0.25681,-0.72275,848
211,0.979,0.154,-0.229,-0.061,-0.061,-0.244,146.788,-74.399,7.339,-23.873,-16.767,-1.04,26.79,0.19031,0.77258,-0.12454,0.59268,841,0.814,0.28,0.508,0.793,-0.061,0.0,29.031,-54.921,-142.982,-26.833,-15.62,2.467,24.1,0.38165,-0.35248,-0.35193,-0.77856,843,0.087,0.203,0.975,-0.549,-0.061,-0.183,11.387,-5.422,-176.622,-3.333,-12.827,-32.253,26.41,0.03491,-0.04324,-0.10168,-0.99323,845,0.935,0.315,0.048,0.305,0.0,-0.244,81.244,-71.362,123.712,-25.613,-23.1,5.127,29.08,0.04431,-0.64001,-0.25681,-0.72275,849
212,0.979,0.154,-0.23,0.0,0.0,-0.183,146.777,-74.394,7.35,-23.873,-16.767,-1.04,26.79,0.19031,0.77258,-0.12454,0.59268,850,0.818,0.282,0.506,0.732,0.0,0.0,29.042,-54.915,-142.971,-26.86,-15.167,2.773,24.1,0.38165,-0.35248,-0.35193,-0.77856,846,0.089,0.201,0.979,-0.183,-0.183,0.061,11.387,-5.427,-176.622,-3.413,-13.153,-34.66,26.41,0.03491,-0.04324,-0.10168,-0.99323,854,0.935,0.315,0.048,0.427,-0.061,-0.305,81.26,-71.356,123.712,-25.4,-23.147,4.987,29.08,0.04431,-0.64001,-0.25681,-0.72275,856
213,0.979,0.155,-0.231,0.122,-0.122,-0.061,146.777,-74.388,7.361,-23.873,-16.767,-1.04,26.79,0.19031,0.77258,-0.12454,0.59268,851,0.817,0.285,0.506,0.732,0.0,0.061,29.053,-54.915,-142.954,-26.86,-15.167,2.773,24.1,0.38165,-0.35248,-0.35193,-0.77856,847,0.089,0.197,0.977,0.305,-0.427,0.488,11.393,-5.433,-176.6,-3.413,-13.153,-34.66,26.41,0.03491,-0.04324,-0.10168,-0.99323,855,0.935,0.314,0.047,0.244,-0.244,-0.305,81.282,-71.351,123.723,-25.4,-23.147,4.987,29.08,0.04431,-0.64001,-0.25681,-0.72275,857
214,0.979,0.154,-0.231,0.122,-0.183,0.0,146.783,-74.388,7.361,-23.873,-16.767,-1.04,26.79,0.19,0.77283,-0.12341,0.59271,860,0.817,0.282,0.507,0.977,-0.305,0.0,29.064,-54.915,-142.954,-26.86,-15.167,2.773,24.1,0.38165,-0.35248,-0.35193,-0.77856,852,0.095,0.197,0.976,0.549,-0.549,0.671,11.404,-5.444,-176.572,-3.413,-13.153,-34.66,26.41,0.03433,-0.04425,-0.10059,-0.99332,864,0.935,0.313,0.046,0.244,-0.305,-0.305,81.31,-71.345,123.728,-25.4,-23.147,4.987,29.08,0.04443,-0.63965,-0.25812,-0.7226,862
215,0.979,0.15,-0.23,0.305,-0.183,0.061,146.794,-74.383,7.344,-23.873,-16.767,-1.04,26.79,0.19,0.77283,-0.12341,0.59271,861,0.818,0.282,0.507,0.916,-0.366,-0.122,29.092,-54.915,-142.965,-26.86,-15.167,2.773,24.1,0.38165,-0.35248,-0.35193,-0.77856,853,0.096,0.202,0.974,0.244,-0.549,0.183,11.409,-5.455,-176.55,-3.413,-13.153,-34.66,26.41,0.03433,-0.04425,-0.10059,-0.99332,865,0.935,0.311,0.045,0.305,-0.244,-0.122,81.332,-71.34,123.717,-25.4,-23.147,4.987,29.08,0.04443,-0.63965,-0.25812,-0.7226,863
216,0.978,0.151,-0.23,0.488,-0.244,0.061,146.81,-74.377,7.333,-23.873,-16.767,-1.04,26.79,0.19,0.77283,-0.12341,0.59271,868,0.82,0.284,0.504,0.671,-0.305,-0.183,29.114,-54.921,-142.971,-26.86,-15.167,2.773,24.1,0.38257,-0.35242,-0.35315,-0.77756,858,0.096,0.207,0.975,0.244,0.0,-0.061,11.415,-5.449,-176.534,-3.413,-13.153,-34.66,26.41,0.03433,-0.04425,-0.10059,-0.99332,876,0.935,0.312,0.047,0.366,-0.183,-0.122,81.354,-71.34,123.673,-25.4,-23.147,4.987,29.08,0.04443,-0.63965,-0.25812,-0.7226,870
217,0.979,0.151,-0.229,0.305,-0.244,0.061,146.827,-74.372,7.311,-23.873,-16.767,-1.04,26.79,0.19,0.77283,-0.12341,0.59271,869,0.819,0.286,0.501,0.427,-0.183,-0.122,29.136,-54.921,-142.971,-26.86,-15.167,2.773,24.1,0.38257,-0.35242,-0.35315,-0.77756,859,0.098,0.201,0.973,0.0,-0.061,0.0,11.42,-5.449,-176.512,-3.413,-13.153,-34.66,26.41,0.03433,-0.04425,-0.10059,-0.99332,877,0.937,0.313,0.046,0.183,-0.061,-0.061,81.359,-71.334,123.635,-25.4,-23.147,4.987,29.08,0.04443,-0.63965,-0.25812,-0.7226,871
218,0.98,0.151,-0.23,0.183,-0.183,0.061,146.843,-74.366,7.3,-23.873,-16.767,-1.04,26.79,0.19,0.77283,-0.12341,0.59271,872,0.819,0.281,0.502,0.427,-0.122,0.061,29.147,-54.921,-142.971,-26.86,-15.167,2.773,24.1,0.38257,-0.35242,-0.35315,-0.77756,866,0.098,0.203,0.972,0.0,0.671,0.122,11.42,-5.438,-176.484,-3.413,-13.153,-34.66,26.41,0.03433,-0.04425,-0.10059,-0.99332,878,0.939,0.313,0.044,0.0,0.0,0.0,81.359,-71.334,123.613,-25.4,-23.147,4.987,29.08,0.04443,-0.63965,-0.25812,-0.7226,880
219,0.98,0.15,-0.231,0.122,-0.061,0.061,146.849,-74.366,7.311,-23.873,-16.767,-1.04,26.79,0.19,0.77283,-0.12341,0.59271,873,0.821,0.283,0.502,0.183,-0.061,0.0,29.158,-54.921,-142.965,-26.86,-15.167,2.773,24.1,0.38257,-0.35242,-0.35315,-0.77756,867,0.097,0.2,0.977,0.244,0.549,-0.061,11.431,-5.427,-176.473,-3.413,-13.153,-34.66,26.41,0.03433,-0.04425,-0.10059,-0.99332,879,0.938,0.313,0.043,0.0,0.0,0.0,81.365,-71.334,123.591,-25.4,-23.147,4.987,29.08,0.04443,-0.63965,-0.25812,-0.7226,881
220,0.98,0.148,-0.232,0.0,0.061,0.061,146.854,-74.361,7.333,-23.873,-16.767,-1.04,26.79,0.19,0.77283,-0.12341,0.59271,882,0.826,0.284,0.501,0.427,0.0,0.0,29.163,-54.921,-142.971,-26.86,-15.167,2.773,24.1,0.38257,-0.35242,-0.35315,-0.77756,874,0.095,0.206,0.98,0.122,0.671,0.0,11.437,-5.411,-176.462,-3.413,-13.153,-34.66,26.41,0.03433,-0.04425,-0.10059,-0.99332,886,0.938,0.31,0.045,-0.061,0.0,0.183,81.365,-71.34,123.591,-25.4,-23.147,4.987,29.08,0.04443,-0.63965,-0.25812,-0.7226,888
221,0.979,0.148,-0.233,0.061,0.0,0.0,146.854,-74.366,7.322,-23.873,-16.767,-1.04,26.79,0.19,0.77283,-0.12341,0.59271,883,0.823,0.285,0.501,0.305,0.0,0.0,29.174,-54.915,-142.965,-26.86,-15.167,2.773,24.1,0.38257,-0.35242,-0.35315,-0.77756,875,0.093,0.2,0.98,-0.183,0.244,-0.061,11.431,-5.405,-176.462,-3.413,-13.153,-34.66,26.41,0.03433,-0.04425,-0.10059,-0.99332,887,0.936,0.31,0.043,0.0,0.0,0.122,81.37,-71.345,123.591,-25.4,-23.147,4.987,29.08,0.04443,-0.63965,-0.25812,-0.7226,889
222,0.979,0.148,-0.234,0.061,0.0,0.0,146.86,-74.361,7.317,-23.873,-16.767,-1.04,26.79,0.19,0.77283,-0.12341,0.59271,890,0.823,0.283,0.503,0.183,0.0,0.183,29.18,-54.915,-142.965,-26.86,-15.167,2.773,24.1,0.38257,-0.35242,-0.35315,-0.77756,884,0.094,0.197,0.979,-0.427,-0.122,-0.183,11.426,-5.411,-176.479,-3.413,-13.153,-34.66,26.41,0.03433,-0.04425,-0.10059,-0.99332,892,0.935,0.309,0.042,0.061,0.0,0.122,81.37,-71.345,123.585,-25.4,-23.147,4.987,29.08,0.04443,-0.63965,-0.25812,-0.7226,896
223,0.979,0.149,-0.233,0.122,0.0,0.0,146.86,-74.361,7.317,-23.873,-16.767,-1.04,26.79,0.19,0.77283,-0.12341,0.59271,891,0.819,0.278,0.503,0.061,-0.061,0.244,29.18,-54.915,-142.96,-26.86,-15.167,2.773,24.1,0.38257,-0.35242,-0.35315,-0.77756,885,0.096,0.196,0.974,-0.366,-0.122,0.0,11.42,-5.411,-176.484,-3.413,-13.153,-34.66,26.41,0.03433,-0.04425,-0.10059,-0.99332,893,0.937,0.31,0.044,0.122,0.0,-0.061,81.387,-71.345,123.569,-25.4,-23.147,4.987,29.08,0.04443,-0.63965,-0.25812,-0.7226,897
224,0.979,0.149,-0.231,0.0,0.061,0.0,146.865,-74.361,7.306,-23.873,-16.767,-1.04,26.79,0.19,0.77283,-0.12341,0.59271,898,0.819,0.278,0.502,0.061,-0.183,0.183,29.18,-54.921,-142.96,-26.86,-15.167,2.773,24.17,0.38257,-0.35242,-0.35315,-0.77756,894,0.096,0.197,0.974,-0.366,-0.183,0.122,11.415,-5.416,-176.495,-3.413,-13.153,-34.66,26.41,0.03433,-0.04425,-0.10059,-0.99332,900,0.937,0.31,0.046,-0.061,0.122,0.0,81.392,-71.345,123.558,-25.4,-23.147,4.987,29.08,0.04443,-0.63965,-0.25812,-0.7226,904
225,0.979,0.149,-0.23,-0.061,0.122,-0.061,146.865,-74.361,7.3,-23.873,-16.767,-1.04,26.79,0.19,0.77283,-0.12341,0.59271,899,0.82,0.277,0.5,0.183,-0.183,0.0,29.18,-54.926,-142.954,-26.86,-15.167,2.773,24.17,0.38257,-0.35242,-0.35315,-0.77756,895,0.099,0.198,0.974,-0.305,-0.305,0.0,11.409,-5.422,-176.512,-3.413,-13.153,-34.66,26.41,0.03433,-0.04425,-0.10059,-0.99332,901,0.936,0.311,0.045,-0.122,0.244,0.0,81.387,-71.351,123.558,-25.4,-23.147,4.987,29.08,0.04443,-0.63965,-0.25812,-0.7226,905
226,0.979,0.148,-0.229,-0.061,0.061,-0.122,146.86,-74.361,7.306,-23.873,-16.767,-1.04,26.79,0.19,0.77283,-0.12341,0.59271,906,0.822,0.28,0.501,0.122,-0.061,0.0,29.185,-54.926,-142.965,-26.86,-15.167,2.773,24.17,0.38257,-0.35242,-0.35315,-0.77756,902,0.097,0.197,0.973,-0.549,0.0,-0.305,11.404,-5.422,-176.523,-3.413,-13.153,-34.66,26.41,0.03433,-0.04425,-0.10059,-0.99332,910,0.935,0.311,0.045,0.0,0.366,0.0,81.37,-71.351,123.569,-25.64,-22.993,5.12,29.08,0.04443,-0.63965,-0.25812,-0.7226,912
227,0.979,0.15,-0.23,0.0,0.122,-0.061,146.849,-74.361,7.317,-23.873,-16.767,-1.04,26.79,0.19,0.77283,-0.12341,0.59271,907,0.822,0.281,0.501,-0.061,0.061,0.0,29.185,-54.932,-142.965,-26.86,-15.167,2.773,24.17,0.38257,-0.35242,-0.35315,-0.77756,903,0.091,0.199,0.974,-0.549,0.61,-0.183,11.393,-5.411,-176.512,-3.413,-13.153,-34.66,26.41,0.03433,-0.04425,-0.10059,-0.99332,911,0.935,0.311,0.046,0.0,0.366,0.0,81.354,-71.351,123.574,-25.64,-22.993,5.12,29.08,0.04443,-0.63965,-0.25812,-0.7226,913
228,0.979,0.151,-0.23,-0.122,0.244,-0.061,146.843,-74.361,7.311,-23.313,-17.127,-1.12,26.79,0.19,0.77283,-0.12341,0.59271,914,0.821,0.28,0.501,-0.122,0.122,0.0,29.185,-54.926,-142.96,-26.86,-15.167,2.773,24.17,0.38257,-0.35242,-0.35315,-0.77756,908,0.087,0.198,0.98,-0.305,0.549,0.122,11.387,-5.4,-176.479,-3.413,-13.153,-34.66,26.41,0.03433,-0.04425,-0.10059,-0.99332,918,0.935,0.313,0.048,0.0,0.366,0.0,81.337,-71.351,123.585,-25.64,-22.993,5.12,29.08,0.04443,-0.63965,-0.25812,-0.7226,920
229,0.979,0.151,-0.229,-0.305,0.183,-0.061,146.832,-74.361,7.311,-23.313,-17.127,-1.12,26.79,0.19,0.77283,-0.12341,0.59271,915,0.818,0.279,0.503,0.0,0.122,0.0,29.18,-54.926,-142.96,-26.86,-15.167,2.773,24.17,0.38257,-0.35242,-0.35315,-0.77756,909,0.094,0.198,0.977,-0.244,-0.305,0.122,11.387,-5.411,-176.429,-3.413,-13.153,-34.66,26.41,0.03433,-0.04425,-0.10059,-0.99332,919,0.934,0.312,0.049,-0.183,0.366,0.061,81.315,-71.351,123.602,-25.64,-22.993,5.12,29.08,0.04443,-0.63965,-0.25812,-0.7226,921
230,0.979,0.15,-0.228,-0.366,0.244,-0.061,146.816,-74.366,7.311,-23.313,-17.127,-1.12,26.79,0.19,0.77283,-0.12341,0.59271,922,0.818,0.28,0.506,0.0,0.0,0.0,29.18,-54.926,-142.965,-26.86,-15.167,2.773,24.17,0.38257,-0.35242,-0.35315,-0.77756,916,0.094,0.198,0.975,-0.183,-0.183,0.061,11.382,-5.411,-176.369,-4.393,-13.58,-34.22,26.41,0.03433,-0.04425,-0.10059,-0.99332,926,0.933,0.312,0.046,-0.061,0.305,0.183,81.293,-71.351,123.618,-25.64,-22.993,5.12,29.08,0.04373,-0.63998,-0.25745,-0.7226,928
231,0.978,0.151,-0.23,-0.122,0.183,0.0,146.794,-74.366,7.311,-23.313,-17.127,-1.12,26.79,0.19,0.77283,-0.12341,0.59271,923,0.82,0.281,0.504,0.244,0.0,0.0,29.18,-54.926,-142.976,-26.86,-15.167,2.773,24.17,0.38257,-0.35242,-0.35315,-0.77756,917,0.091,0.204,0.974,-0.305,0.061,0.0,11.376,-5.411,-176.309,-4.393,-13.58,-34.22,26.41,0.03433,-0.04425,-0.10059,-0.99332,927,0.934,0.312,0.048,0.0,0.305,0.183,81.277,-71.356,123.624,-25.64,-22.993,5.12,29.08,0.04373,-0.63998,-0.25745,-0.7226,929
232,0.979,0.153,-0.23,0.0,0.183,0.0,146.788,-74.372,7.311,-23.313,-17.127,-1.12,26.79,0.19016,0.77292,-0.1236,0.5925,934,0.817,0.285,0.504,0.0,-0.122,0.0,29.185,-54.926,-142.987,-26.86,-15.167,2.773,24.17,0.38257,-0.35242,-0.35315,-0.77756,924,0.09,0.202,0.976,-0.366,0.244,0.305,11.371,-5.405,-176.226,-4.393,-13.58,-34.22,26.41,0.03433,-0.04425,-0.10059,-0.99332,932,0.935,0.313,0.047,0.0,0.244,0.061,81.26,-71.356,123.64,-25.64,-22.993,5.12,29.08,0.04373,-0.63998,-0.25745,-0.7226,936
233,0.979,0.153,-0.23,0.0,0.061,0.0,146.783,-74.372,7.322,-23.313,-17.127,-1.12,26.79,0.19016,0.77292,-0.1236,0.5925,935,0.816,0.283,0.503,0.0,-0.061,0.0,29.185,-54.926,-142.998,-26.86,-15.167,2.773,24.17,0.38257,-0.35242,-0.35315,-0.77756,925,0.088,0.197,0.975,-0.427,0.427,0.122,11.365,-5.4,-176.166,-4.393,-13.58,-34.22,26.41,0.03433,-0.04425,-0.10059,-0.99332,933,0.936,0.312,0.047,0.0,0.061,0.061,81.249,-71.356,123.646,-25.64,-22.993,5.12,29.08,0.04373,-0.63998,-0.25745,-0.7226,937
234,0.979,0.152,-0.23,0.0,0.061,0.0,146.777,-74.372,7.328,-23.313,-17.127,-1.12,26.79,0.19016,0.77292,-0.1236,0.5925,942,0.817,0.281,0.504,0.061,0.0,0.305,29.185,-54.926,-143.004,-26.86,-15.167,2.773,24.17,0.38257,-0.35242,-0.35315,-0.77756,930,0.089,0.195,0.976,-0.305,0.122,0.0,11.36,-5.394,-176.111,-4.393,-13.58,-34.22,26.41,0.03775,-0.04355,-0.10043,-0.99323,940,0.936,0.312,0.046,0.0,0.0,0.0,81.249,-71.356,123.64,-25.64,-22.993,5.12,29.08,0.04373,-0.63998,-0.25745,-0.7226,944
