Index,L5_Acceleration X(g),L5_Acceleration Y(g),L5_Acceleration Z(g),L5_Angular velocity X(°/s),L5_Angular velocity Y(°/s),L5_Angular velocity Z(°/s),L5_Angle X(°),L5_Angle Y(°),L5_Angle Z(°),L5_Magnetic field X(ʯt),L5_Magnetic field Y(ʯt),L5_Magnetic field Z(ʯt),L5_Temperature(℃),L5_Quaternions 0(),L5_Quaternions 1(),L5_Quaternions 2(),L5_Quaternions 3(),L5___orig_idx,T4_Acceleration X(g),T4_Acceleration Y(g),T4_Acceleration Z(g),T4_Angular velocity X(°/s),T4_Angular velocity Y(°/s),T4_Angular velocity Z(°/s),T4_Angle X(°),T4_Angle Y(°),T4_Angle Z(°),T4_Magnetic field X(ʯt),T4_Magnetic field Y(ʯt),T4_Magnetic field Z(ʯt),T4_Temperature(℃),T4_Quaternions 0(),T4_Quaternions 1(),T4_Quaternions 2(),T4_Quaternions 3(),T4___orig_idx,C7_Acceleration X(g),C7_Acceleration Y(g),C7_Acceleration Z(g),C7_Angular velocity X(°/s),C7_Angular velocity Y(°/s),C7_Angular velocity Z(°/s),C7_Angle X(°),C7_Angle Y(°),C7_Angle Z(°),C7_Magnetic field X(ʯt),C7_Magnetic field Y(ʯt),C7_Magnetic field Z(ʯt),C7_Temperature(℃),C7_Quaternions 0(),C7_Quaternions 1(),C7_Quaternions 2(),C7_Quaternions 3(),C7___orig_idx,T12_Acceleration X(g),T12_Acceleration Y(g),T12_Acceleration Z(g),T12_Angular velocity X(°/s),T12_Angular velocity Y(°/s),T12_Angular velocity Z(°/s),T12_Angle X(°),T12_Angle Y(°),T12_Angle Z(°),T12_Magnetic field X(ʯt),T12_Magnetic field Y(ʯt),T12_Magnetic field Z(ʯt),T12_Temperature(℃),T12_Quaternions 0(),T12_Quaternions 1(),T12_Quaternions 2(),T12_Quaternions 3(),T12___orig_idx
0,0.858,0.088,0.548,5.005,1.526,-5.432,6.367,-56.201,155.424,-21.393,-6.5,-16.48,22.23,-0.14578,-0.46893,0.06699,-0.86847,10,0.863,0.176,0.507,20.508,-1.587,-8.667,16.243,-60.721,-121.135,-25.967,-7.973,5.94,23.78,-0.48108,0.38382,0.34351,0.70932,4,0.711,0.229,0.692,14.343,2.441,0.916,16.15,-47.983,142.905,-17.92,-11.433,-20.053,27.99,-0.19876,-0.44919,0.04819,-0.86966,0,0.957,0.179,0.183,9.338,20.081,-19.836,39.556,-76.597,166.954,-28.473,-8.667,0.707,27.99,0.13205,-0.6441,-0.17169,-0.73355,2
1,0.85,0.093,0.54,4.15,2.869,-4.822,6.608,-56.162,155.209,-21.393,-6.5,-16.48,22.23,-0.14578,-0.46893,0.06699,-0.86847,11,0.864,0.179,0.508,20.386,-3.479,-7.751,16.952,-60.716,-121.503,-25.967,-7.973,5.94,23.78,-0.48108,0.38382,0.34351,0.70932,5,0.715,0.23,0.689,12.512,-1.038,1.709,16.381,-47.999,142.949,-17.92,-11.433,-20.053,27.99,-0.19876,-0.44919,0.04819,-0.86966,1,0.948,0.19,0.194,11.353,15.564,-20.081,40.056,-76.064,166.729,-28.473,-8.667,0.707,27.99,0.13205,-0.6441,-0.17169,-0.73355,3
2,0.838,0.092,0.555,4.028,4.639,-4.639,6.828,-56.096,155.028,-20.787,-7.973,-16.313,22.23,-0.14578,-0.46893,0.06699,-0.86847,18,0.854,0.19,0.485,19.165,-4.395,-8.057,17.655,-60.727,-121.888,-25.967,-7.973,5.94,23.78,-0.48108,0.38382,0.34351,0.70932,8,0.72,0.221,0.675,11.902,-4.883,1.16,16.633,-48.076,142.96,-17.92,-11.433,-20.053,27.99,-0.23199,-0.42334,0.00403,-0.8757,6,0.938,0.211,0.176,12.329,11.841,-19.409,40.787,-75.602,166.355,-28.473,-8.667,0.707,27.99,0.13205,-0.6441,-0.17169,-0.73355,12
3,0.827,0.08,0.57,3.906,4.089,-4.089,7.031,-56.003,154.863,-20.787,-7.973,-16.313,22.23,-0.14578,-0.46893,0.06699,-0.86847,19,0.859,0.211,0.47,15.503,-6.165,-9.094,18.347,-60.76,-122.305,-25.967,-7.973,5.94,23.78,-0.48108,0.38382,0.34351,0.70932,9,0.718,0.222,0.651,12.085,-6.165,0.0,16.924,-48.175,142.888,-17.92,-11.433,-20.053,27.99,-0.23199,-0.42334,0.00403,-0.8757,7,0.94,0.23,0.169,11.658,10.071,-17.639,41.6,-75.19,165.916,-28.473,-8.667,0.707,27.99,0.13205,-0.6441,-0.17169,-0.73355,13
4,0.831,0.08,0.577,3.357,2.136,-3.479,7.213,-55.931,154.698,-20.787,-7.973,-16.313,22.23,-0.16422,-0.46881,0.04825,-0.86649,28,0.872,0.236,0.47,12.573,-7.996,-10.437,19.045,-60.815,-122.789,-25.967,-7.973,5.94,23.78,-0.48108,0.38382,0.34351,0.70932,16,0.727,0.242,0.64,12.146,-5.615,-1.709,17.254,-48.246,142.707,-17.92,-11.433,-20.053,27.99,-0.23199,-0.42334,0.00403,-0.8757,14,0.951,0.232,0.2,9.033,8.423,-15.198,42.341,-74.828,165.531,-28.473,-8.667,0.707,27.99,0.13205,-0.6441,-0.17169,-0.73355,20
5,0.832,0.086,0.565,2.441,1.465,-3.357,7.372,-55.887,154.506,-20.787,-7.973,-16.313,22.23,-0.16422,-0.46881,0.04825,-0.86649,29,0.879,0.244,0.483,9.094,-8.423,-11.597,19.748,-60.875,-123.344,-25.967,-7.973,5.94,23.78,-0.48108,0.38382,0.34351,0.70932,17,0.737,0.26,0.639,10.864,-3.723,-4.028,17.6,-48.274,142.487,-17.92,-11.433,-20.053,27.99,-0.23199,-0.42334,0.00403,-0.8757,15,0.933,0.226,0.243,9.521,9.46,-12.39,42.929,-74.509,165.262,-28.473,-8.667,0.707,27.99,0.13205,-0.6441,-0.17169,-0.73355,21
6,0.829,0.089,0.569,1.648,2.93,-3.601,7.515,-55.849,154.308,-20.787,-7.973,-16.313,22.23,-0.16422,-0.46881,0.04825,-0.86649,30,0.865,0.239,0.496,5.005,-6.592,-11.353,20.385,-60.914,-123.915,-25.967,-7.973,5.94,23.78,-0.48108,0.38382,0.34351,0.70932,24,0.732,0.274,0.649,7.629,-3.174,-5.615,17.913,-48.274,142.256,-17.92,-11.433,-20.053,27.99,-0.23199,-0.42334,0.00403,-0.8757,22,0.929,0.217,0.239,7.202,6.714,-11.475,43.358,-74.218,165.174,-28.073,-11.06,-0.36,27.99,0.13205,-0.6441,-0.17169,-0.73355,26
7,0.817,0.084,0.578,1.16,4.272,-3.845,7.646,-55.772,154.127,-20.787,-7.973,-16.313,22.23,-0.16422,-0.46881,0.04825,-0.86649,31,0.853,0.229,0.486,3.174,-5.615,-9.949,20.929,-60.93,-124.437,-25.967,-7.973,5.94,23.78,-0.48108,0.38382,0.34351,0.70932,25,0.722,0.279,0.661,2.93,-1.465,-5.554,18.127,-48.246,142.086,-17.92,-11.433,-20.053,27.99,-0.23199,-0.42334,0.00403,-0.8757,23,0.925,0.214,0.205,5.92,5.188,-11.108,43.802,-73.971,165.037,-28.073,-11.06,-0.36,27.99,0.13205,-0.6441,-0.17169,-0.73355,27
8,0.813,0.078,0.583,1.343,2.808,-3.357,7.767,-55.69,154.012,-20.787,-7.973,-16.313,22.23,-0.16422,-0.46881,0.04825,-0.86649,38,0.859,0.222,0.474,3.479,-5.371,-7.996,21.39,-60.941,-124.882,-25.967,-7.973,5.94,23.78,-0.48108,0.38382,0.34351,0.70932,36,0.724,0.276,0.646,-0.977,1.282,-2.991,18.193,-48.175,142.042,-17.92,-11.433,-20.053,27.99,-0.23199,-0.42334,0.00403,-0.8757,32,0.931,0.213,0.201,5.066,2.319,-12.146,44.33,-73.751,164.784,-28.073,-11.06,-0.36,27.99,0.13205,-0.6441,-0.17169,-0.73355,34
9,0.821,0.078,0.568,1.648,-0.427,-2.441,7.883,-55.64,153.924,-20.787,-7.973,-16.313,22.23,-0.16422,-0.46881,0.04825,-0.86649,39,0.872,0.219,0.467,4.089,-5.737,-6.226,21.802,-60.963,-125.261,-25.967,-7.973,5.94,23.78,-0.48108,0.38382,0.34351,0.70932,37,0.732,0.264,0.638,-2.197,5.371,-0.183,18.149,-48.049,142.108,-17.92,-11.433,-20.053,27.99,-0.23199,-0.42334,0.00403,-0.8757,33,0.93,0.225,0.229,4.211,0.122,-11.963,44.962,-73.559,164.399,-28.073,-11.06,-0.36,27.99,0.13205,-0.6441,-0.17169,-0.73355,35
10,0.84,0.085,0.561,2.197,-2.319,-1.831,7.987,-55.646,153.847,-20.787,-7.973,-16.313,22.23,-0.16422,-0.46881,0.04825,-0.86649,48,0.879,0.223,0.461,4.761,-5.005,-4.395,22.148,-60.996,-125.546,-25.493,-9.7,6.993,23.78,-0.48108,0.38382,0.34351,0.70932,42,0.733,0.26,0.631,-2.38,9.46,2.014,18.034,-47.862,142.245,-17.92,-11.433,-20.053,27.99,-0.23199,-0.42334,0.00403,-0.8757,40,0.924,0.223,0.256,4.272,-0.671,-11.169,45.604,-73.389,164.004,-28.073,-11.06,-0.36,27.99,0.1264,-0.5899,-0.22766,-0.76425,46
11,0.852,0.088,0.559,1.587,-1.465,-1.77,8.091,-55.679,153.803,-20.787,-7.973,-16.313,22.23,-0.16422,-0.46881,0.04825,-0.86649,49,0.871,0.213,0.456,3.662,-2.625,-2.93,22.401,-61.007,-125.75,-25.493,-9.7,6.993,23.78,-0.48108,0.38382,0.34351,0.70932,43,0.733,0.252,0.628,-1.465,11.597,2.808,17.908,-47.648,142.405,-17.92,-11.433,-20.053,27.99,-0.23199,-0.42334,0.00403,-0.8757,41,0.924,0.221,0.245,4.944,-3.174,-10.376,46.269,-73.251,163.614,-28.073,-11.06,-0.36,27.99,0.1264,-0.5899,-0.22766,-0.76425,47
12,0.842,0.086,0.566,0.732,0.183,-2.197,8.179,-55.695,153.754,-20.787,-7.973,-16.313,22.23,-0.16422,-0.46881,0.04825,-0.86649,60,0.853,0.206,0.464,3.418,-2.136,-2.197,22.604,-61.007,-125.898,-25.493,-9.7,6.993,23.78,-0.48108,0.38382,0.34351,0.70932,52,0.708,0.232,0.633,0.0,11.475,2.563,17.82,-47.433,142.542,-17.92,-11.433,-20.053,27.99,-0.23199,-0.42334,0.00403,-0.8757,44,0.926,0.223,0.22,4.578,-5.615,-10.376,47.01,-73.147,163.13,-28.073,-11.06,-0.36,27.99,0.1264,-0.5899,-0.22766,-0.76425,50
13,0.833,0.094,0.575,0.305,-0.488,-2.258,8.256,-55.684,153.699,-20.787,-7.973,-16.313,22.23,-0.16422,-0.46881,0.04825,-0.86649,61,0.856,0.211,0.465,4.333,-2.686,-0.854,22.78,-61.024,-126.008,-25.493,-9.7,6.993,23.78,-0.48108,0.38382,0.34351,0.70932,53,0.696,0.237,0.651,0.671,13.794,3.235,17.715,-47.181,142.756,-17.92,-11.433,-20.053,27.99,-0.23199,-0.42334,0.00403,-0.8757,45,0.938,0.221,0.181,3.54,-7.935,-10.315,47.834,-73.076,162.543,-28.073,-11.06,-0.36,27.99,0.1264,-0.5899,-0.22766,-0.76425,51
14,0.819,0.096,0.57,-0.305,-2.93,-1.648,8.328,-55.701,153.622,-20.787,-7.973,-16.313,22.23,-0.16422,-0.46881,0.04825,-0.86649,64,0.875,0.198,0.454,6.042,-2.625,0.305,22.945,-61.051,-126.068,-25.493,-9.7,6.993,23.78,-0.47266,0.36621,0.37772,0.70691,58,0.703,0.23,0.653,2.502,15.015,3.723,17.633,-46.906,143.02,-17.92,-11.433,-20.053,27.99,-0.23199,-0.42334,0.00403,-0.8757,54,0.945,0.229,0.194,1.221,-11.169,-10.803,48.774,-73.032,161.79,-28.073,-11.06,-0.36,27.99,0.1264,-0.5899,-0.22766,-0.76425,56
15,0.817,0.08,0.555,1.099,-5.554,-1.465,8.394,-55.761,153.539,-20.787,-7.973,-16.313,22.23,-0.16422,-0.46881,0.04825,-0.86649,65,0.891,0.17,0.453,7.202,-1.831,1.465,23.082,-61.078,-126.079,-25.493,-9.7,6.993,23.78,-0.47266,0.36621,0.37772,0.70691,59,0.721,0.216,0.651,4.333,12.695,5.859,17.551,-46.692,143.311,-17.92,-11.433,-20.053,27.99,-0.23199,-0.42334,0.00403,-0.8757,55,0.935,0.238,0.226,2.625,-13.489,-11.658,49.856,-73.015,160.878,-28.073,-11.06,-0.36,27.99,0.1264,-0.5899,-0.22766,-0.76425,57
16,0.828,0.082,0.567,2.991,-7.324,-2.014,8.498,-55.871,153.43,-20.547,-8.327,-16.66,22.23,-0.16422,-0.46881,0.04825,-0.86649,70,0.878,0.168,0.457,8.362,-2.38,2.625,23.203,-61.122,-126.046,-25.493,-9.7,6.993,23.78,-0.47266,0.36621,0.37772,0.70691,66,0.722,0.191,0.67,4.333,9.766,8.911,17.424,-46.555,143.685,-18.633,-11.727,-19.307,27.99,-0.23199,-0.42334,0.00403,-0.8757,68,0.924,0.229,0.225,6.409,-14.038,-13.733,51.108,-72.982,159.857,-28.073,-11.06,-0.36,27.99,0.1264,-0.5899,-0.22766,-0.76425,62
17,0.828,0.084,0.566,4.272,-7.202,-3.113,8.663,-56.003,153.325,-20.547,-8.327,-16.66,22.23,-0.16422,-0.46881,0.04825,-0.86649,71,0.879,0.191,0.441,9.399,-2.441,2.686,23.324,-61.177,-126.019,-25.493,-9.7,6.993,23.78,-0.47266,0.36621,0.37772,0.70691,67,0.712,0.188,0.672,3.967,9.949,10.071,17.26,-46.423,144.069,-18.633,-11.727,-19.307,27.99,-0.23199,-0.42334,0.00403,-0.8757,69,0.926,0.234,0.21,9.888,-15.808,-13.916,52.515,-72.938,158.736,-28.073,-11.06,-0.36,27.99,0.1264,-0.5899,-0.22766,-0.76425,63
18,0.834,0.094,0.581,3.662,-6.104,-3.418,8.871,-56.124,153.221,-20.547,-8.327,-16.66,22.23,-0.16422,-0.46881,0.04825,-0.86649,78,0.863,0.2,0.421,11.414,-1.648,2.075,23.494,-61.216,-126.008,-25.493,-9.7,6.993,23.78,-0.47266,0.36621,0.37772,0.70691,74,0.721,0.2,0.651,4.578,5.005,7.751,17.177,-46.368,144.316,-18.633,-11.727,-19.307,27.99,-0.22244,-0.4126,-0.01144,-0.88318,72,0.928,0.25,0.174,9.766,-15.564,-12.817,53.959,-72.9,157.61,-28.073,-11.06,-0.36,27.99,0.1264,-0.5899,-0.22766,-0.76425,76
19,0.837,0.091,0.575,3.54,-5.676,-3.601,9.069,-56.217,153.067,-20.547,-8.327,-16.66,22.23,-0.16422,-0.46881,0.04825,-0.86649,79,0.867,0.202,0.42,12.207,-1.892,1.77,23.698,-61.26,-126.013,-25.493,-9.7,6.993,23.78,-0.47266,0.36621,0.37772,0.70691,75,0.705,0.212,0.637,5.981,4.517,10.132,17.084,-46.34,144.602,-18.633,-11.727,-19.307,27.99,-0.22244,-0.4126,-0.01144,-0.88318,73,0.931,0.265,0.166,9.888,-12.695,-11.658,55.278,-72.856,156.621,-28.073,-11.06,-0.36,27.99,0.1264,-0.5899,-0.22766,-0.76425,77
20,0.838,0.088,0.572,3.418,-5.554,-3.601,9.267,-56.305,152.897,-20.547,-8.327,-16.66,22.23,-0.16837,-0.47253,0.04184,-0.86401,90,0.879,0.202,0.421,12.39,-2.747,1.343,23.934,-61.309,-126.046,-25.493,-9.7,6.993,23.78,-0.47266,0.36621,0.37772,0.70691,84,0.714,0.208,0.647,6.348,2.869,13.123,16.946,-46.362,144.904,-18.633,-11.727,-19.307,27.99,-0.22244,-0.4126,-0.01144,-0.88318,80,0.936,0.274,0.158,8.24,-9.827,-10.62,56.387,-72.79,155.825,-28.073,-11.06,-0.36,27.99,0.1264,-0.5899,-0.22766,-0.76425,82
21,0.842,0.083,0.559,2.686,-6.104,-3.54,9.459,-56.393,152.721,-20.547,-8.327,-16.66,22.23,-0.16837,-0.47253,0.04184,-0.86401,91,0.893,0.21,0.426,11.292,-3.479,1.16,24.181,-61.375,-126.096,-25.493,-9.7,6.993,23.78,-0.47266,0.36621,0.37772,0.70691,85,0.726,0.204,0.651,5.249,1.099,14.832,16.765,-46.428,145.245,-18.633,-11.727,-19.307,27.99,-0.22244,-0.4126,-0.01144,-0.88318,81,0.939,0.272,0.172,8.972,-6.775,-10.376,57.31,-72.691,155.215,-28.073,-11.06,-0.36,27.99,0.1264,-0.5899,-0.22766,-0.76425,83
22,0.859,0.087,0.55,2.258,-8.179,-3.723,9.641,-56.508,152.562,-20.547,-8.327,-16.66,22.23,-0.16837,-0.47253,0.04184,-0.86401,100,0.899,0.22,0.425,9.399,-3.357,0.916,24.401,-61.441,-126.156,-25.493,-9.7,6.993,23.78,-0.47266,0.36621,0.37772,0.70691,88,0.733,0.198,0.653,4.517,0.305,11.841,16.628,-46.489,145.525,-18.633,-11.727,-19.307,27.99,-0.22244,-0.4126,-0.01144,-0.88318,86,0.936,0.271,0.172,8.484,-5.371,-9.705,58.09,-72.576,154.775,-28.073,-11.06,-0.36,27.99,0.1264,-0.5899,-0.22766,-0.76425,92
23,0.868,0.086,0.545,2.136,-9.827,-4.578,9.833,-56.651,152.391,-20.547,-8.327,-16.66,22.23,-0.16837,-0.47253,0.04184,-0.86401,101,0.905,0.23,0.425,6.958,-1.77,1.282,24.554,-61.49,-126.2,-25.493,-9.7,6.993,23.78,-0.47266,0.36621,0.37772,0.70691,89,0.742,0.213,0.648,4.517,0.0,6.409,16.606,-46.522,145.651,-18.633,-11.727,-19.307,27.99,-0.22244,-0.4126,-0.01144,-0.88318,87,0.94,0.262,0.168,7.69,-4.333,-9.155,58.76,-72.46,154.413,-28.073,-11.06,-0.36,27.99,0.1264,-0.5899,-0.22766,-0.76425,93
24,0.869,0.099,0.541,2.258,-10.925,-5.676,10.069,-56.832,152.183,-20.547,-8.327,-16.66,22.23,-0.16837,-0.47253,0.04184,-0.86401,106,0.903,0.221,0.429,5.005,0.0,2.075,24.62,-61.512,-126.189,-25.493,-9.7,6.993,23.78,-0.47266,0.36621,0.37772,0.70691,98,0.747,0.225,0.648,3.296,1.465,4.333,16.595,-46.522,145.706,-18.633,-11.727,-19.307,27.99,-0.22244,-0.4126,-0.01144,-0.88318,94,0.942,0.263,0.167,7.751,-4.639,-8.301,59.381,-72.345,154.072,-27.107,-12.92,0.533,27.99,0.1264,-0.5899,-0.22766,-0.76425,96
25,0.871,0.104,0.542,2.747,-10.742,-6.714,10.355,-57.014,151.935,-20.547,-8.327,-16.66,22.23,-0.16837,-0.47253,0.04184,-0.86401,107,0.893,0.206,0.434,3.662,1.282,3.113,24.609,-61.518,-126.118,-25.493,-9.7,6.993,23.78,-0.47266,0.36621,0.37772,0.70691,99,0.737,0.216,0.659,1.587,1.77,5.188,16.529,-46.522,145.794,-18.633,-11.727,-19.307,27.99,-0.22244,-0.4126,-0.01144,-0.88318,95,0.946,0.261,0.161,6.592,-6.836,-8.057,60.035,-72.257,153.677,-27.107,-12.92,0.533,27.99,0.1264,-0.5899,-0.22766,-0.76425,97
26,0.861,0.111,0.53,3.479,-7.874,-6.714,10.662,-57.162,151.65,-20.547,-8.327,-16.66,22.23,-0.16837,-0.47253,0.04184,-0.86401,108,0.881,0.199,0.438,2.869,1.587,4.272,24.527,-61.523,-125.991,-25.493,-9.7,6.993,23.78,-0.47266,0.36621,0.37772,0.70691,110,0.727,0.208,0.668,0.0,2.502,7.996,16.375,-46.522,145.959,-18.633,-11.727,-19.307,27.99,-0.22244,-0.4126,-0.01144,-0.88318,102,0.941,0.269,0.146,5.554,-9.521,-8.301,60.826,-72.197,153.073,-27.107,-12.92,0.533,27.99,0.1264,-0.5899,-0.22766,-0.76425,104
27,0.855,0.117,0.543,3.357,-4.028,-6.409,10.953,-57.25,151.353,-20.547,-8.327,-16.66,22.23,-0.16837,-0.47253,0.04184,-0.86401,109,0.858,0.195,0.428,3.418,2.075,5.249,24.406,-61.529,-125.832,-25.493,-9.7,6.993,23.78,-0.47266,0.36621,0.37772,0.70691,111,0.707,0.193,0.669,0.0,2.747,10.498,16.161,-46.527,146.19,-18.633,-11.727,-19.307,27.99,-0.22244,-0.4126,-0.01144,-0.88318,103,0.932,0.284,0.124,6.165,-10.742,-9.338,61.732,-72.131,152.358,-27.107,-12.92,0.533,27.99,0.1264,-0.5899,-0.22766,-0.76425,105
28,0.852,0.117,0.546,3.357,-2.747,-5.859,11.217,-57.288,151.095,-20.547,-8.327,-16.66,22.23,-0.16837,-0.47253,0.04184,-0.86401,120,0.872,0.205,0.419,4.15,2.136,5.127,24.296,-61.534,-125.662,-25.107,-10.127,7.347,23.78,-0.47266,0.36621,0.37772,0.70691,114,0.706,0.185,0.656,0.793,0.732,10.559,15.974,-46.571,146.409,-18.633,-11.727,-19.307,27.99,-0.22244,-0.4126,-0.01144,-0.88318,112,0.927,0.3,0.101,7.141,-8.606,-9.216,62.606,-72.054,151.688,-27.107,-12.92,0.533,27.99,0.12766,-0.58963,-0.28137,-0.74615,118
29,0.854,0.113,0.538,2.808,-3.784,-5.066,11.459,-57.327,150.848,-20.547,-8.327,-16.66,22.23,-0.16837,-0.47253,0.04184,-0.86401,121,0.889,0.208,0.401,5.371,0.305,3.967,24.258,-61.556,-125.552,-25.107,-10.127,7.347,23.78,-0.47266,0.36621,0.37772,0.70691,115,0.742,0.184,0.645,2.441,-0.732,8.423,15.875,-46.631,146.596,-18.633,-11.727,-19.307,27.99,-0.22244,-0.4126,-0.01144,-0.88318,113,0.934,0.314,0.098,5.066,-5.676,-9.338,63.309,-71.938,151.166,-27.107,-12.92,0.533,27.99,0.12766,-0.58963,-0.28137,-0.74615,119
30,0.868,0.117,0.526,2.258,-4.639,-4.7,11.673,-57.382,150.639,-20.547,-8.327,-16.66,22.23,-0.16837,-0.47253,0.04184,-0.86401,130,0.903,0.205,0.406,5.981,-1.343,2.38,24.313,-61.6,-125.519,-25.107,-10.127,7.347,23.78,-0.47266,0.36621,0.37772,0.70691,124,0.75,0.189,0.643,3.418,-1.526,6.592,15.815,-46.697,146.755,-18.633,-11.727,-19.307,27.99,-0.22244,-0.4126,-0.01144,-0.88318,116,0.932,0.316,0.14,5.859,-2.441,-8.85,63.842,-71.801,150.864,-27.107,-12.92,0.533,27.99,0.12766,-0.58963,-0.28137,-0.74615,122
31,0.872,0.132,0.527,1.892,-4.15,-4.272,11.876,-57.448,150.397,-20.547,-8.327,-16.66,22.23,-0.16837,-0.47253,0.04184,-0.86401,131,0.905,0.234,0.413,5.92,-2.075,1.465,24.428,-61.655,-125.541,-25.107,-10.127,7.347,23.78,-0.47266,0.36621,0.37772,0.70691,125,0.747,0.218,0.64,4.15,0.366,3.052,15.787,-46.752,146.854,-18.633,-11.727,-19.307,27.99,-0.22244,-0.4126,-0.01144,-0.88318,117,0.926,0.318,0.145,5.493,-0.183,-7.751,64.199,-71.658,150.721,-27.107,-12.92,0.533,27.99,0.12766,-0.58963,-0.28137,-0.74615,123
32,0.873,0.143,0.525,1.648,-2.686,-3.967,12.057,-57.497,150.178,-20.827,-8.7,-15.96,22.23,-0.16837,-0.47253,0.04184,-0.86401,138,0.887,0.249,0.408,5.493,-1.099,0.977,24.554,-61.694,-125.574,-25.107,-10.127,7.347,23.78,-0.48041,0.36221,0.3909,0.69647,132,0.731,0.227,0.639,3.174,2.136,0.732,15.826,-46.758,146.849,-18.633,-11.727,-19.307,27.99,-0.22244,-0.4126,-0.01144,-0.88318,126,0.93,0.319,0.133,4.7,0.122,-5.798,64.457,-71.532,150.667,-27.107,-12.92,0.533,27.99,0.12766,-0.58963,-0.28137,-0.74615,128
33,0.871,0.144,0.531,1.465,-1.831,-3.845,12.228,-57.519,149.985,-20.827,-8.7,-15.96,22.23,-0.16837,-0.47253,0.04184,-0.86401,139,0.889,0.243,0.409,3.296,-0.366,0.732,24.648,-61.716,-125.601,-25.107,-10.127,7.347,23.78,-0.48041,0.36221,0.3909,0.69647,133,0.736,0.221,0.645,1.404,2.563,0.427,15.875,-46.725,146.75,-18.633,-11.727,-19.307,27.99,-0.22244,-0.4126,-0.01144,-0.88318,127,0.93,0.327,0.11,3.479,-0.732,-4.761,64.693,-71.439,150.617,-27.107,-12.92,0.533,27.99,0.12766,-0.58963,-0.28137,-0.74615,129
34,0.866,0.143,0.531,0.977,-0.916,-3.235,12.376,-57.53,149.799,-20.827,-8.7,-15.96,22.23,-0.17691,-0.48651,0.03339,-0.85486,148,0.892,0.241,0.41,1.648,0.183,0.366,24.719,-61.721,-125.64,-25.107,-10.127,7.347,23.78,-0.48041,0.36221,0.3909,0.69647,136,0.741,0.219,0.648,0.305,2.136,0.366,15.897,-46.686,146.646,-18.273,-11.387,-20.713,27.99,-0.22244,-0.4126,-0.01144,-0.88318,140,0.935,0.341,0.117,2.197,0.122,-4.089,64.874,-71.345,150.612,-27.107,-12.92,0.533,27.99,0.12766,-0.58963,-0.28137,-0.74615,134
35,0.863,0.135,0.527,0.366,-0.671,-2.502,12.491,-57.535,149.645,-20.827,-8.7,-15.96,22.23,-0.17691,-0.48651,0.03339,-0.85486,149,0.905,0.242,0.406,0.366,0.0,-0.488,24.785,-61.727,-125.706,-25.107,-10.127,7.347,23.78,-0.48041,0.36221,0.3909,0.69647,137,0.756,0.21,0.635,0.854,0.732,-1.16,15.919,-46.659,146.53,-18.273,-11.387,-20.713,27.99,-0.22244,-0.4126,-0.01144,-0.88318,141,0.932,0.347,0.113,0.427,1.892,-3.235,64.929,-71.257,150.721,-27.107,-12.92,0.533,27.99,0.12766,-0.58963,-0.28137,-0.74615,135
36,0.871,0.134,0.52,-0.854,-0.854,-2.38,12.579,-57.541,149.496,-20.827,-8.7,-15.96,22.23,-0.17691,-0.48651,0.03339,-0.85486,150,0.907,0.236,0.398,0.061,0.244,-1.709,24.884,-61.716,-125.815,-25.107,-10.127,7.347,23.78,-0.48041,0.36221,0.3909,0.69647,146,0.74,0.199,0.628,0.488,2.38,-3.784,15.991,-46.637,146.371,-18.273,-11.387,-20.713,27.99,-0.20999,-0.41223,-0.00882,-0.88644,142,0.931,0.342,0.119,0.0,3.845,-2.197,64.847,-71.164,150.98,-27.107,-12.92,0.533,27.99,0.12766,-0.58963,-0.28137,-0.74615,144
37,0.874,0.135,0.524,-1.648,-0.366,-2.258,12.64,-57.546,149.326,-20.827,-8.7,-15.96,22.23,-0.17691,-0.48651,0.03339,-0.85486,151,0.896,0.222,0.404,-0.916,1.16,-2.93,24.994,-61.683,-125.958,-25.107,-10.127,7.347,23.78,-0.48041,0.36221,0.3909,0.69647,147,0.736,0.21,0.637,-0.61,2.991,-5.371,16.084,-46.577,146.184,-18.273,-11.387,-20.713,27.99,-0.20999,-0.41223,-0.00882,-0.88644,143,0.926,0.333,0.134,0.183,4.272,-1.526,64.715,-71.082,151.304,-27.107,-12.92,0.533,27.99,0.12766,-0.58963,-0.28137,-0.74615,145
38,0.869,0.136,0.526,-1.465,1.038,-1.77,12.684,-57.53,149.178,-20.827,-8.7,-15.96,22.23,-0.17691,-0.48651,0.03339,-0.85486,162,0.892,0.249,0.413,-3.784,1.709,-3.54,25.076,-61.633,-126.129,-25.107,-10.127,7.347,23.78,-0.48041,0.36221,0.3909,0.69647,154,0.723,0.243,0.656,-2.319,3.967,-6.348,16.177,-46.5,145.92,-18.273,-11.387,-20.713,27.99,-0.20999,-0.41223,-0.00882,-0.88644,152,0.931,0.326,0.131,-1.648,4.028,-0.427,64.534,-71.016,151.617,-27.107,-12.92,0.533,27.99,0.12766,-0.58963,-0.28137,-0.74615,160
39,0.861,0.139,0.53,-1.099,2.319,-1.038,12.706,-57.497,149.046,-20.827,-8.7,-15.96,22.23,-0.17691,-0.48651,0.03339,-0.85486,163,0.882,0.252,0.429,-5.615,2.38,-2.747,25.087,-61.578,-126.266,-25.107,-10.127,7.347,23.78,-0.48041,0.36221,0.3909,0.69647,155,0.722,0.249,0.672,-3.54,3.418,-5.249,16.254,-46.406,145.646,-18.273,-11.387,-20.713,27.99,-0.20999,-0.41223,-0.00882,-0.88644,153,0.932,0.324,0.117,-2.93,3.235,0.122,64.347,-70.966,151.913,-27.107,-12.92,0.533,27.99,0.12766,-0.58963,-0.28137,-0.74615,161
40,0.849,0.134,0.532,-0.977,2.686,-0.244,12.7,-57.453,148.958,-20.827,-8.7,-15.96,22.23,-0.17691,-0.48651,0.03339,-0.85486,170,0.888,0.242,0.433,-6.104,2.686,-1.343,25.038,-61.523,-126.354,-25.107,-10.127,7.347,23.78,-0.48041,0.36221,0.3909,0.69647,158,0.726,0.237,0.664,-3.967,1.77,-2.258,16.282,-46.329,145.399,-18.273,-11.387,-20.713,27.99,-0.20999,-0.41223,-0.00882,-0.88644,156,0.93,0.328,0.118,-1.709,2.686,0.61,64.199,-70.928,152.199,-27.12,-13.673,1.493,27.99,0.12766,-0.58963,-0.28137,-0.74615,164
41,0.845,0.132,0.531,-0.854,2.625,0.549,12.678,-57.404,148.887,-20.827,-8.7,-15.96,22.23,-0.17691,-0.48651,0.03339,-0.85486,171,0.882,0.238,0.416,-5.249,2.991,-0.366,24.961,-61.469,-126.392,-25.107,-10.127,7.347,23.78,-0.48041,0.36221,0.3909,0.69647,159,0.718,0.229,0.651,-3.418,0.183,-0.427,16.265,-46.302,145.195,-18.273,-11.387,-20.713,27.99,-0.20999,-0.41223,-0.00882,-0.88644,157,0.925,0.331,0.127,-1.465,3.296,0.793,64.045,-70.895,152.534,-27.12,-13.673,1.493,27.99,0.12766,-0.58963,-0.28137,-0.74615,165
42,0.845,0.133,0.53,-0.549,1.892,1.16,12.64,-57.365,148.876,-20.827,-8.7,-15.96,22.23,-0.17691,-0.48651,0.03339,-0.85486,176,0.877,0.231,0.416,-4.272,2.136,0.244,24.89,-61.436,-126.409,-25.107,-10.127,7.347,23.78,-0.48041,0.36221,0.3909,0.69647,168,0.709,0.217,0.652,-2.93,1.099,-0.427,16.238,-46.302,145.047,-18.273,-11.387,-20.713,27.99,-0.20999,-0.41223,-0.00882,-0.88644,166,0.917,0.327,0.137,-1.16,4.028,1.343,63.842,-70.867,152.913,-27.12,-13.673,1.493,27.99,0.12766,-0.58963,-0.28137,-0.74615,172
43,0.843,0.131,0.535,-0.366,1.404,1.587,12.596,-57.343,148.903,-20.827,-8.7,-15.96,22.23,-0.17691,-0.48651,0.03339,-0.85486,177,0.866,0.224,0.428,-2.93,1.526,0.671,24.84,-61.419,-126.42,-25.107,-10.127,7.347,23.78,-0.48041,0.36221,0.3909,0.69647,169,0.699,0.214,0.66,-2.075,3.052,-0.244,16.21,-46.274,144.943,-18.273,-11.387,-20.713,27.99,-0.20999,-0.41223,-0.00882,-0.88644,167,0.912,0.322,0.15,-0.61,4.272,1.953,63.616,-70.84,153.331,-27.12,-13.673,1.493,27.99,0.12766,-0.58963,-0.28137,-0.74615,173
44,0.842,0.133,0.539,-0.366,1.282,2.014,12.541,-57.327,148.964,-20.827,-8.7,-15.96,22.23,-0.17691,-0.48651,0.03339,-0.85486,182,0.862,0.22,0.441,-1.343,1.16,1.16,24.802,-61.408,-126.42,-25.107,-10.127,7.347,23.78,-0.48041,0.36221,0.3909,0.69647,180,0.699,0.217,0.673,-1.404,4.211,0.732,16.183,-46.214,144.893,-18.273,-11.387,-20.713,27.99,-0.20999,-0.41223,-0.00882,-0.88644,174,0.913,0.317,0.155,-0.244,3.784,2.197,63.408,-70.823,153.737,-27.12,-13.673,1.493,27.99,0.13834,-0.57782,-0.30475,-0.74432,178
45,0.842,0.13,0.54,-0.549,0.732,2.686,12.469,-57.316,149.046,-20.827,-8.7,-15.96,22.23,-0.17691,-0.48651,0.03339,-0.85486,183,0.868,0.227,0.446,-0.671,0.732,1.953,24.758,-61.408,-126.381,-25.107,-10.127,7.347,23.78,-0.48041,0.36221,0.3909,0.69647,181,0.706,0.218,0.674,-1.282,4.639,0.61,16.15,-46.137,144.86,-18.273,-11.387,-20.713,27.99,-0.20999,-0.41223,-0.00882,-0.88644,175,0.914,0.318,0.155,0.427,3.601,2.38,63.21,-70.812,154.127,-27.12,-13.673,1.493,27.99,0.13834,-0.57782,-0.30475,-0.74432,179
46,0.849,0.126,0.54,-0.916,0.0,3.235,12.382,-57.321,149.161,-20.827,-8.7,-15.96,22.23,-0.17691,-0.48651,0.03339,-0.85486,190,0.871,0.229,0.442,-0.244,0.244,2.502,24.708,-61.419,-126.337,-25.727,-9.86,7.967,23.78,-0.48041,0.36221,0.3909,0.69647,186,0.706,0.215,0.669,-0.61,3.967,-0.183,16.122,-46.049,144.794,-18.273,-11.387,-20.713,27.99,-0.20999,-0.41223,-0.00882,-0.88644,184,0.915,0.321,0.158,1.038,3.479,2.808,63.012,-70.812,154.523,-27.12,-13.673,1.493,27.99,0.13834,-0.57782,-0.30475,-0.74432,188
47,0.856,0.123,0.536,-1.16,-0.61,3.54,12.277,-57.338,149.304,-20.827,-8.7,-15.96,22.23,-0.17691,-0.48651,0.03339,-0.85486,191,0.875,0.222,0.438,0.061,0.61,2.625,24.653,-61.425,-126.282,-25.727,-9.86,7.967,23.78,-0.48041,0.36221,0.3909,0.69647,187,0.711,0.209,0.669,-0.549,2.686,-0.183,16.117,-45.978,144.701,-18.273,-11.387,-20.713,27.99,-0.20999,-0.41223,-0.00882,-0.88644,185,0.915,0.321,0.166,1.953,3.601,3.54,62.803,-70.818,154.918,-27.12,-13.673,1.493,27.99,0.13834,-0.57782,-0.30475,-0.74432,189
48,0.86,0.124,0.538,-0.854,-0.671,3.601,12.167,-57.36,149.431,-21.06,-8.793,-15.3,22.23,-0.17691,-0.48651,0.03339,-0.85486,204,0.878,0.219,0.438,0.671,0.732,2.686,24.604,-61.43,-126.222,-25.727,-9.86,7.967,23.78,-0.48041,0.36221,0.3909,0.69647,198,0.708,0.211,0.668,-0.671,2.38,0.244,16.117,-45.928,144.635,-18.273,-11.387,-20.713,27.99,-0.20999,-0.41223,-0.00882,-0.88644,192,0.92,0.314,0.167,2.075,3.296,4.272,62.589,-70.84,155.308,-27.12,-13.673,1.493,27.99,0.13834,-0.57782,-0.30475,-0.74432,194
49,0.86,0.123,0.535,-0.916,0.0,3.54,12.063,-57.382,149.551,-21.06,-8.793,-15.3,22.23,-0.17691,-0.48651,0.03339,-0.85486,205,0.876,0.219,0.44,0.305,0.916,2.869,24.538,-61.43,-126.151,-25.727,-9.86,7.967,23.78,-0.48041,0.36221,0.3909,0.69647,199,0.704,0.206,0.676,-0.854,1.892,0.793,16.106,-45.879,144.635,-18.273,-11.387,-20.713,27.99,-0.20999,-0.41223,-0.00882,-0.88644,193,0.926,0.307,0.164,1.221,2.319,4.761,62.391,-70.878,155.66,-27.12,-13.673,1.493,27.99,0.13834,-0.57782,-0.30475,-0.74432,195
50,0.858,0.125,0.539,-1.282,0.977,3.113,11.953,-57.382,149.65,-21.06,-8.793,-15.3,22.23,-0.18018,-0.48477,0.03671,-0.85504,210,0.875,0.208,0.44,-0.305,1.038,3.174,24.445,-61.43,-126.063,-25.727,-9.86,7.967,23.78,-0.47714,0.36224,0.38889,0.69983,200,0.709,0.193,0.672,-0.916,1.343,0.977,16.084,-45.846,144.619,-18.067,-11.527,-20.633,27.99,-0.20999,-0.41223,-0.00882,-0.88644,196,0.929,0.305,0.154,0.732,1.77,4.883,62.205,-70.928,155.995,-27.12,-13.673,1.493,27.99,0.13834,-0.57782,-0.30475,-0.74432,202
51,0.86,0.114,0.536,-1.465,0.61,2.869,11.843,-57.376,149.711,-21.06,-8.793,-15.3,22.23,-0.18018,-0.48477,0.03671,-0.85504,211,0.882,0.203,0.437,-0.305,1.404,3.235,24.34,-61.425,-125.958,-25.727,-9.86,7.967,23.78,-0.47714,0.36224,0.38889,0.69983,201,0.715,0.189,0.668,-0.916,1.099,0.61,16.057,-45.824,144.591,-18.067,-11.527,-20.633,27.99,-0.20999,-0.41223,-0.00882,-0.88644,197,0.93,0.303,0.141,0.916,1.892,5.005,62.012,-70.977,156.352,-27.12,-13.673,1.493,27.99,0.13834,-0.57782,-0.30475,-0.74432,203
52,0.866,0.104,0.528,-1.587,-0.732,2.686,11.744,-57.387,149.744,-21.06,-8.793,-15.3,22.23,-0.18018,-0.48477,0.03671,-0.85504,218,0.888,0.199,0.434,-0.366,1.282,2.93,24.241,-61.419,-125.865,-25.727,-9.86,7.967,23.78,-0.47714,0.36224,0.38889,0.69983,212,0.719,0.184,0.67,-0.671,1.404,0.244,16.04,-45.802,144.597,-18.067,-11.527,-20.633,27.99,-0.20999,-0.41223,-0.00882,-0.88644,208,0.932,0.302,0.146,0.061,2.747,4.7,61.765,-71.016,156.775,-27.12,-13.673,1.493,27.99,0.13834,-0.57782,-0.30475,-0.74432,206
53,0.867,0.103,0.529,-1.16,-0.916,2.319,11.656,-57.415,149.793,-21.06,-8.793,-15.3,22.23,-0.18018,-0.48477,0.03671,-0.85504,219,0.889,0.191,0.436,0.0,0.671,2.625,24.164,-61.425,-125.793,-25.727,-9.86,7.967,23.78,-0.47714,0.36224,0.38889,0.69983,213,0.71,0.181,0.673,-0.793,2.38,0.61,16.018,-45.769,144.591,-18.067,-11.527,-20.633,27.99,-0.20999,-0.41223,-0.00882,-0.88644,209,0.934,0.294,0.164,0.183,2.808,4.395,61.529,-71.043,157.203,-27.12,-13.673,1.493,27.99,0.13834,-0.57782,-0.30475,-0.74432,207
54,0.863,0.104,0.536,-0.732,0.0,1.953,11.585,-57.431,149.865,-21.06,-8.793,-15.3,22.23,-0.18018,-0.48477,0.03671,-0.85504,222,0.88,0.187,0.441,0.061,0.793,2.502,24.088,-61.43,-125.728,-25.727,-9.86,7.967,23.78,-0.47714,0.36224,0.38889,0.69983,216,0.703,0.181,0.678,-0.61,4.211,1.404,15.98,-45.714,144.63,-18.067,-11.527,-20.633,27.99,-0.22574,-0.40604,-0.00522,-0.88547,220,0.934,0.283,0.162,-0.244,2.136,4.395,61.309,-71.087,157.588,-27.12,-13.673,1.493,27.99,0.13834,-0.57782,-0.30475,-0.74432,214
55,0.855,0.109,0.54,-1.038,1.038,1.465,11.519,-57.426,149.925,-21.06,-8.793,-15.3,22.23,-0.18018,-0.48477,0.03671,-0.85504,223,0.877,0.184,0.445,-0.244,0.916,2.869,23.983,-61.436,-125.645,-25.727,-9.86,7.967,23.78,-0.47714,0.36224,0.38889,0.69983,217,0.707,0.179,0.685,-1.16,4.395,1.709,15.914,-45.643,144.734,-18.067,-11.527,-20.633,27.99,-0.22574,-0.40604,-0.00522,-0.88547,221,0.936,0.277,0.145,-0.977,0.977,4.089,61.139,-71.131,157.874,-27.12,-13.673,1.493,27.99,0.13834,-0.57782,-0.30475,-0.74432,215
56,0.854,0.108,0.542,-1.282,0.916,1.16,11.459,-57.409,149.941,-21.06,-8.793,-15.3,22.23,-0.18018,-0.48477,0.03671,-0.85504,230,0.882,0.185,0.44,-0.427,0.732,3.296,23.862,-61.447,-125.557,-25.727,-9.86,7.967,23.78,-0.47714,0.36224,0.38889,0.69983,226,0.715,0.179,0.678,-1.343,2.197,1.465,15.837,-45.571,144.849,-18.067,-11.527,-20.633,27.99,-0.22574,-0.40604,-0.00522,-0.88547,224,0.935,0.281,0.146,-0.732,0.732,3.662,61.007,-71.18,158.088,-27.12,-13.673,1.493,27.99,0.13834,-0.57782,-0.30475,-0.74432,228
57,0.858,0.105,0.536,-1.343,0.244,1.16,11.398,-57.409,149.936,-21.06,-8.793,-15.3,22.23,-0.18018,-0.48477,0.03671,-0.85504,231,0.891,0.186,0.433,-0.183,0.549,3.418,23.741,-61.463,-125.469,-25.727,-9.86,7.967,23.78,-0.47714,0.36224,0.38889,0.69983,227,0.722,0.174,0.668,-0.366,-0.122,0.854,15.782,-45.549,144.932,-18.067,-11.527,-20.633,27.99,-0.22574,-0.40604,-0.00522,-0.88547,225,0.934,0.286,0.15,-1.221,0.977,3.418,60.853,-71.219,158.286,-27.12,-13.673,1.493,27.99,0.13834,-0.57782,-0.30475,-0.74432,229
58,0.861,0.104,0.531,-1.16,0.0,0.671,11.354,-57.409,149.886,-21.06,-8.793,-15.3,22.23,-0.18018,-0.48477,0.03671,-0.85504,242,0.89,0.183,0.429,0.061,0.427,3.113,23.637,-61.479,-125.392,-25.727,-9.86,7.967,23.78,-0.47714,0.36224,0.38889,0.69983,236,0.71,0.168,0.664,0.0,0.366,0.0,15.76,-45.549,144.992,-18.067,-11.527,-20.633,27.99,-0.22574,-0.40604,-0.00522,-0.88547,232,0.931,0.288,0.166,-1.282,1.648,3.174,60.672,-71.252,158.533,-26.86,-13.127,0.493,27.99,0.13834,-0.57782,-0.30475,-0.74432,234
59,0.859,0.106,0.536,-0.671,0.854,0.122,11.332,-57.404,149.793,-21.06,-8.793,-15.3,22.23,-0.18018,-0.48477,0.03671,-0.85504,243,0.878,0.179,0.433,-0.183,0.916,2.319,23.544,-61.485,-125.343,-25.727,-9.86,7.967,23.78,-0.47714,0.36224,0.38889,0.69983,237,0.699,0.168,0.669,-0.122,2.38,-0.549,15.754,-45.533,145.063,-18.067,-11.527,-20.633,27.99,-0.22574,-0.40604,-0.00522,-0.88547,233,0.929,0.282,0.167,-1.099,1.831,3.174,60.48,-71.274,158.818,-26.86,-13.127,0.493,27.99,0.13834,-0.57782,-0.30475,-0.74432,235
60,0.854,0.11,0.541,-0.671,1.831,0.061,11.305,-57.371,149.689,-21.06,-8.793,-15.3,22.23,-0.18018,-0.48477,0.03671,-0.85504,252,0.871,0.176,0.438,-0.61,1.282,1.77,23.45,-61.479,-125.299,-25.727,-9.86,7.967,23.78,-0.47714,0.36224,0.38889,0.69983,240,0.696,0.172,0.678,-0.366,3.662,-0.122,15.732,-45.483,145.129,-18.067,-11.527,-20.633,27.99,-0.22574,-0.40604,-0.00522,-0.88547,238,0.93,0.275,0.153,-1.526,1.343,2.869,60.309,-71.307,159.06,-26.86,-13.127,0.493,27.99,0.13834,-0.57782,-0.30475,-0.74432,244
61,0.851,0.113,0.543,-1.16,1.892,0.0,11.277,-57.338,149.601,-21.06,-8.793,-15.3,22.23,-0.18018,-0.48477,0.03671,-0.85504,253,0.872,0.174,0.44,-0.916,1.526,1.709,23.351,-61.469,-125.244,-25.727,-9.86,7.967,23.78,-0.47714,0.36224,0.38889,0.69983,241,0.704,0.175,0.682,-0.549,2.747,0.61,15.699,-45.417,145.245,-18.067,-11.527,-20.633,27.99,-0.22574,-0.40604,-0.00522,-0.88547,239,0.931,0.275,0.148,-1.831,1.038,2.014,60.178,-71.323,159.252,-26.86,-13.127,0.493,27.99,0.13834,-0.57782,-0.30475,-0.74432,245
62,0.856,0.104,0.534,-1.099,0.732,0.061,11.25,-57.316,149.546,-21.06,-8.793,-15.3,22.23,-0.18018,-0.48477,0.03671,-0.85504,258,0.881,0.18,0.44,-0.671,1.465,1.77,23.253,-61.458,-125.189,-25.727,-9.86,7.967,23.78,-0.47714,0.36224,0.38889,0.69983,250,0.707,0.175,0.68,-0.305,0.793,0.732,15.65,-45.379,145.366,-18.067,-11.527,-20.633,27.99,-0.22574,-0.40604,-0.00522,-0.88547,246,0.928,0.291,0.166,-0.916,2.625,0.977,60.051,-71.318,159.417,-26.86,-13.127,0.493,27.99,0.16107,-0.56943,-0.30988,-0.74411,248
63,0.861,0.103,0.53,-0.549,0.122,0.0,11.239,-57.316,149.491,-21.06,-8.793,-15.3,22.23,-0.18018,-0.48477,0.03671,-0.85504,259,0.883,0.183,0.441,-0.244,1.038,1.221,23.187,-61.447,-125.173,-25.727,-9.86,7.967,23.78,-0.47714,0.36224,0.38889,0.69983,251,0.701,0.175,0.681,0.183,-0.305,0.305,15.623,-45.374,145.448,-18.067,-11.527,-20.633,27.99,-0.22574,-0.40604,-0.00522,-0.88547,247,0.928,0.284,0.176,-0.549,2.563,1.16,59.886,-71.301,159.587,-26.86,-13.127,0.493,27.99,0.16107,-0.56943,-0.30988,-0.74411,249
64,0.858,0.108,0.539,0.0,0.732,-0.244,11.239,-57.305,149.414,-20.92,-8.68,-16.527,22.23,-0.18018,-0.48477,0.03671,-0.85504,262,0.877,0.185,0.447,-0.061,0.793,0.427,23.154,-61.436,-125.184,-25.727,-9.86,7.967,23.78,-0.47714,0.36224,0.38889,0.69983,256,0.697,0.178,0.682,0.61,0.732,-0.061,15.612,-45.374,145.508,-18.067,-11.527,-20.633,27.99,-0.22574,-0.40604,-0.00522,-0.88547,260,0.931,0.273,0.16,-0.916,1.099,1.221,59.738,-71.29,159.791,-26.86,-13.127,0.493,27.99,0.16107,-0.56943,-0.30988,-0.74411,254
65,0.852,0.114,0.543,0.122,1.282,-0.427,11.25,-57.283,149.343,-20.92,-8.68,-16.527,22.23,-0.18018,-0.48477,0.03671,-0.85504,263,0.874,0.184,0.45,-0.793,0.854,0.0,23.121,-61.425,-125.2,-25.727,-9.86,7.967,23.78,-0.47714,0.36224,0.38889,0.69983,257,0.697,0.182,0.688,0.0,2.075,0.0,15.606,-45.352,145.569,-18.067,-11.527,-20.633,27.99,-0.22574,-0.40604,-0.00522,-0.88547,261,0.933,0.278,0.154,-1.404,0.183,0.732,59.65,-71.296,159.922,-26.86,-13.127,0.493,27.99,0.16107,-0.56943,-0.30988,-0.74411,255
66,0.848,0.116,0.543,-0.122,1.282,-0.366,11.255,-57.255,149.288,-20.92,-8.68,-16.527,22.23,-0.18018,-0.48477,0.03671,-0.85504,270,0.874,0.184,0.449,-1.465,0.793,0.0,23.071,-61.408,-125.217,-25.853,-9.627,7.733,23.78,-0.47714,0.36224,0.38889,0.69983,268,0.699,0.183,0.688,-0.549,1.16,-0.122,15.584,-45.313,145.635,-17.667,-10.933,-20.0,27.99,-0.22574,-0.40604,-0.00522,-0.88547,264,0.929,0.288,0.16,-1.038,0.366,0.244,59.606,-71.296,160.027,-26.86,-13.127,0.493,27.99,0.16107,-0.56943,-0.30988,-0.74411,266
67,0.847,0.111,0.539,-0.366,0.61,-0.244,11.255,-57.239,149.244,-20.92,-8.68,-16.527,22.23,-0.18018,-0.48477,0.03671,-0.85504,271,0.875,0.185,0.446,-1.282,0.549,0.0,23.033,-61.397,-125.25,-25.853,-9.627,7.733,23.78,-0.47714,0.36224,0.38889,0.69983,269,0.7,0.183,0.683,-0.366,-0.244,-0.122,15.562,-45.297,145.717,-17.667,-10.933,-20.0,27.99,-0.22574,-0.40604,-0.00522,-0.88547,265,0.924,0.291,0.169,-0.488,1.038,0.0,59.568,-71.285,160.137,-26.86,-13.127,0.493,27.99,0.16107,-0.56943,-0.30988,-0.74411,267
68,0.854,0.104,0.534,-0.061,0.0,-0.183,11.261,-57.233,149.216,-20.92,-8.68,-16.527,22.23,-0.18619,-0.48248,0.0433,-0.85471,282,0.875,0.186,0.441,-0.366,0.183,0.0,23.022,-61.392,-125.283,-25.853,-9.627,7.733,23.78,-0.47766,0.36539,0.38226,0.70148,276,0.701,0.184,0.679,0.122,-1.343,-0.122,15.551,-45.297,145.767,-17.667,-10.933,-20.0,27.99,-0.22574,-0.40604,-0.00522,-0.88547,272,0.923,0.288,0.173,0.0,1.343,-0.183,59.513,-71.263,160.28,-26.86,-13.127,0.493,27.99,0.16107,-0.56943,-0.30988,-0.74411,274
69,0.855,0.103,0.537,0.244,-0.122,-0.305,11.277,-57.239,149.205,-20.92,-8.68,-16.527,22.23,-0.18619,-0.48248,0.0433,-0.85471,283,0.876,0.188,0.442,0.244,-0.183,-0.183,23.027,-61.392,-125.327,-25.853,-9.627,7.733,23.78,-0.47766,0.36539,0.38226,0.70148,277,0.699,0.184,0.676,0.61,-1.16,-0.61,15.562,-45.319,145.827,-17.667,-10.933,-20.0,27.99,-0.22574,-0.40604,-0.00522,-0.88547,273,0.928,0.278,0.168,0.0,0.793,-0.061,59.469,-71.241,160.367,-26.86,-13.127,0.493,27.99,0.16107,-0.56943,-0.30988,-0.74411,275
70,0.854,0.108,0.542,0.305,0.183,-0.671,11.299,-57.233,149.167,-20.92,-8.68,-16.527,22.23,-0.18619,-0.48248,0.0433,-0.85471,288,0.876,0.186,0.443,0.305,-0.305,-0.366,23.049,-61.392,-125.376,-25.853,-9.627,7.733,23.78,-0.47766,0.36539,0.38226,0.70148,284,0.703,0.179,0.676,0.916,-0.427,-0.671,15.584,-45.33,145.882,-17.667,-10.933,-20.0,27.99,-0.2186,-0.40158,-0.00735,-0.88925,278,0.932,0.274,0.164,-0.122,0.122,-0.183,59.442,-71.224,160.45,-26.86,-13.127,0.493,27.99,0.16107,-0.56943,-0.30988,-0.74411,280
71,0.852,0.115,0.543,-0.061,0.305,-0.732,11.321,-57.222,149.106,-20.92,-8.68,-16.527,22.23,-0.18619,-0.48248,0.0433,-0.85471,289,0.878,0.18,0.441,0.183,-0.427,-0.488,23.071,-61.397,-125.425,-25.853,-9.627,7.733,23.78,-0.47766,0.36539,0.38226,0.70148,285,0.703,0.18,0.675,0.916,0.305,-0.671,15.606,-45.324,145.953,-17.667,-10.933,-20.0,27.99,-0.2186,-0.40158,-0.00735,-0.88925,279,0.931,0.279,0.163,-0.61,-0.366,-0.549,59.453,-71.213,160.516,-26.86,-13.127,0.493,27.99,0.16107,-0.56943,-0.30988,-0.74411,281
72,0.857,0.116,0.542,-0.427,0.244,-0.549,11.338,-57.217,149.062,-20.92,-8.68,-16.527,22.23,-0.18619,-0.48248,0.0433,-0.85471,300,0.881,0.192,0.439,0.244,0.122,-0.549,23.082,-61.392,-125.464,-25.853,-9.627,7.733,23.78,-0.47766,0.36539,0.38226,0.70148,292,0.706,0.185,0.676,0.854,0.061,-1.099,15.628,-45.313,146.003,-17.667,-10.933,-20.0,27.99,-0.2186,-0.40158,-0.00735,-0.88925,290,0.928,0.292,0.166,-0.305,0.244,-0.671,59.469,-71.197,160.554,-26.86,-13.127,0.493,27.99,0.16107,-0.56943,-0.30988,-0.74411,286
73,0.859,0.109,0.536,-0.122,-0.183,-0.305,11.349,-57.217,149.024,-20.92,-8.68,-16.527,22.23,-0.18619,-0.48248,0.0433,-0.85471,301,0.881,0.199,0.447,0.488,-0.061,-0.854,23.104,-61.386,-125.508,-25.853,-9.627,7.733,23.78,-0.47766,0.36539,0.38226,0.70148,293,0.706,0.193,0.683,1.465,-0.854,-1.709,15.667,-45.308,146.052,-17.667,-10.933,-20.0,27.99,-0.2186,-0.40158,-0.00735,-0.88925,291,0.931,0.294,0.168,-0.183,0.977,-0.488,59.469,-71.175,160.626,-26.86,-13.127,0.493,27.99,0.16107,-0.56943,-0.30988,-0.74411,287
74,0.858,0.109,0.537,0.122,-0.183,-0.366,11.36,-57.217,148.975,-20.92,-8.68,-16.527,22.23,-0.18619,-0.48248,0.0433,-0.85471,302,0.88,0.196,0.45,0.244,-0.305,-0.854,23.143,-61.381,-125.563,-25.853,-9.627,7.733,23.78,-0.47766,0.36539,0.38226,0.70148,298,0.704,0.199,0.688,1.648,-1.221,-1.526,15.727,-45.313,146.102,-17.667,-10.933,-20.0,27.99,-0.2186,-0.40158,-0.00735,-0.88925,294,0.932,0.287,0.169,0.061,0.427,-0.305,59.442,-71.153,160.714,-26.86,-13.127,0.493,27.99,0.16107,-0.56943,-0.30988,-0.74411,296
75,0.853,0.111,0.538,0.244,0.061,-0.61,11.387,-57.217,148.947,-20.92,-8.68,-16.527,22.23,-0.18619,-0.48248,0.0433,-0.85471,303,0.88,0.192,0.444,-0.366,-0.366,-0.61,23.176,-61.375,-125.618,-25.853,-9.627,7.733,23.78,-0.47766,0.36539,0.38226,0.70148,299,0.705,0.195,0.684,1.221,-1.709,-0.732,15.787,-45.324,146.113,-17.667,-10.933,-20.0,27.99,-0.2186,-0.40158,-0.00735,-0.88925,295,0.933,0.28,0.161,-0.061,-0.488,-0.427,59.442,-71.136,160.801,-26.86,-13.127,0.493,27.99,0.16107,-0.56943,-0.30988,-0.74411,297
76,0.853,0.113,0.539,-0.061,0.183,-0.916,11.415,-57.211,148.92,-20.92,-8.68,-16.527,22.23,-0.18619,-0.48248,0.0433,-0.85471,314,0.879,0.189,0.438,-0.61,-0.427,-0.488,23.187,-61.375,-125.673,-25.853,-9.627,7.733,23.78,-0.47766,0.36539,0.38226,0.70148,306,0.708,0.19,0.676,0.671,-1.953,-0.732,15.826,-45.352,146.124,-17.667,-10.933,-20.0,27.99,-0.2186,-0.40158,-0.00735,-0.88925,304,0.929,0.283,0.16,-0.427,-0.854,-0.732,59.491,-71.125,160.834,-27.52,-13.1,0.127,27.99,0.16107,-0.56943,-0.30988,-0.74411,310
77,0.852,0.117,0.539,-0.366,-0.122,-0.793,11.437,-57.211,148.909,-20.92,-8.68,-16.527,22.23,-0.18619,-0.48248,0.0433,-0.85471,315,0.877,0.191,0.436,-0.122,-0.244,-0.366,23.203,-61.381,-125.717,-25.853,-9.627,7.733,23.78,-0.47766,0.36539,0.38226,0.70148,307,0.707,0.19,0.671,1.099,-2.258,-0.916,15.864,-45.379,146.14,-17.667,-10.933,-20.0,27.99,-0.2186,-0.40158,-0.00735,-0.88925,305,0.926,0.287,0.165,-0.793,-0.854,-0.854,59.551,-71.115,160.829,-27.52,-13.1,0.127,27.99,0.16107,-0.56943,-0.30988,-0.74411,311
78,0.853,0.111,0.537,-0.427,-0.488,-0.549,11.453,-57.217,148.903,-20.92,-8.68,-16.527,22.23,-0.18619,-0.48248,0.0433,-0.85471,322,0.879,0.194,0.438,0.366,-0.305,-0.427,23.22,-61.381,-125.755,-25.853,-9.627,7.733,23.78,-0.47766,0.36539,0.38226,0.70148,312,0.707,0.195,0.671,1.465,-2.441,-0.916,15.914,-45.412,146.124,-17.667,-10.933,-20.0,27.99,-0.2186,-0.40158,-0.00735,-0.88925,308,0.926,0.294,0.165,-0.488,-0.61,-0.854,59.606,-71.098,160.834,-27.52,-13.1,0.127,27.99,0.16742,-0.56476,-0.31476,-0.7442,316
79,0.854,0.107,0.536,0.0,-0.732,-0.305,11.47,-57.228,148.87,-20.92,-8.68,-16.527,22.23,-0.18619,-0.48248,0.0433,-0.85471,323,0.878,0.198,0.441,0.488,-0.305,-0.549,23.247,-61.381,-125.799,-25.853,-9.627,7.733,23.78,-0.47766,0.36539,0.38226,0.70148,313,0.706,0.198,0.671,1.404,-2.197,-0.671,15.969,-45.45,146.118,-17.667,-10.933,-20.0,27.99,-0.2186,-0.40158,-0.00735,-0.88925,309,0.927,0.291,0.167,0.0,-0.488,-0.61,59.656,-71.082,160.889,-27.52,-13.1,0.127,27.99,0.16742,-0.56476,-0.31476,-0.7442,317
80,0.856,0.109,0.54,0.366,-0.427,-0.305,11.486,-57.233,148.815,-21.413,-8.667,-16.24,22.23,-0.18619,-0.48248,0.0433,-0.85471,330,0.881,0.194,0.441,0.366,-0.183,-0.549,23.286,-61.381,-125.848,-25.853,-9.627,7.733,23.78,-0.47766,0.36539,0.38226,0.70148,320,0.707,0.197,0.672,1.343,-1.465,-0.793,16.018,-45.478,146.124,-17.667,-10.933,-20.0,27.99,-0.2186,-0.40158,-0.00735,-0.88925,318,0.928,0.283,0.164,-0.122,-0.793,-0.366,59.7,-71.071,160.966,-27.52,-13.1,0.127,27.99,0.16742,-0.56476,-0.31476,-0.7442,324
81,0.857,0.115,0.544,0.244,-0.061,-0.366,11.508,-57.239,148.766,-21.413,-8.667,-16.24,22.23,-0.18619,-0.48248,0.0433,-0.85471,331,0.884,0.192,0.438,0.244,-0.244,-0.427,23.313,-61.381,-125.892,-25.853,-9.627,7.733,23.78,-0.47766,0.36539,0.38226,0.70148,321,0.711,0.196,0.672,1.343,-0.61,-0.671,16.068,-45.494,146.146,-17.667,-10.933,-20.0,27.99,-0.2186,-0.40158,-0.00735,-0.88925,319,0.932,0.282,0.161,-0.183,-0.977,-0.366,59.755,-71.065,161.038,-27.52,-13.1,0.127,27.99,0.16742,-0.56476,-0.31476,-0.7442,325
82,0.854,0.116,0.542,0.061,-0.122,-0.305,11.525,-57.239,148.738,-21.413,-8.667,-16.24,22.23,-0.189,-0.48267,0.04349,-0.854,334,0.886,0.195,0.435,0.244,-0.305,-0.305,23.34,-61.381,-125.936,-25.853,-9.627,7.733,23.78,-0.47766,0.36539,0.38226,0.70148,328,0.716,0.197,0.672,1.343,-0.61,-0.671,16.106,-45.5,146.201,-17.667,-10.933,-20.0,27.99,-0.2186,-0.40158,-0.00735,-0.88925,332,0.932,0.289,0.164,-0.183,-0.854,-0.427,59.815,-71.06,161.082,-27.52,-13.1,0.127,27.99,0.16742,-0.56476,-0.31476,-0.7442,326
83,0.852,0.116,0.541,-0.244,0.0,-0.244,11.53,-57.233,148.7,-21.413,-8.667,-16.24,22.23,-0.189,-0.48267,0.04349,-0.854,335,0.878,0.2,0.436,0.366,-0.183,-0.122,23.362,-61.381,-125.986,-25.853,-9.627,7.733,23.78,-0.47766,0.36539,0.38226,0.70148,329,0.71,0.201,0.669,1.282,-1.282,-0.854,16.15,-45.505,146.217,-17.667,-10.933,-20.0,27.99,-0.2186,-0.40158,-0.00735,-0.88925,333,0.93,0.294,0.166,-0.061,-0.427,-0.488,59.859,-71.049,161.104,-27.52,-13.1,0.127,27.99,0.16742,-0.56476,-0.31476,-0.7442,327
84,0.854,0.113,0.534,-0.122,-0.061,-0.122,11.536,-57.233,148.651,-21.413,-8.667,-16.24,22.23,-0.189,-0.48267,0.04349,-0.854,342,0.882,0.199,0.438,0.427,0.0,-0.183,23.379,-61.386,-126.019,-25.707,-9.893,7.94,23.78,-0.47766,0.36539,0.38226,0.70148,340,0.708,0.204,0.67,1.465,-1.77,-1.099,16.205,-45.527,146.201,-18.02,-11.353,-20.04,27.99,-0.2186,-0.40158,-0.00735,-0.88925,336,0.926,0.294,0.162,0.0,0.0,-0.122,59.881,-71.038,161.136,-27.52,-13.1,0.127,27.99,0.16742,-0.56476,-0.31476,-0.7442,338
85,0.858,0.111,0.535,0.122,-0.549,-0.061,11.547,-57.244,148.607,-21.413,-8.667,-16.24,22.23,-0.189,-0.48267,0.04349,-0.854,343,0.883,0.197,0.438,0.366,-0.305,-0.671,23.406,-61.381,-126.057,-25.707,-9.893,7.94,23.78,-0.47766,0.36539,0.38226,0.70148,341,0.713,0.198,0.667,1.526,-0.977,-0.549,16.26,-45.549,146.179,-18.02,-11.353,-20.04,27.99,-0.2186,-0.40158,-0.00735,-0.88925,337,0.927,0.291,0.163,-0.183,0.122,0.061,59.886,-71.027,161.175,-27.52,-13.1,0.127,27.99,0.16742,-0.56476,-0.31476,-0.7442,339
86,0.858,0.114,0.536,0.244,-0.671,-0.061,11.558,-57.255,148.568,-21.413,-8.667,-16.24,22.23,-0.189,-0.48267,0.04349,-0.854,352,0.879,0.196,0.439,-0.122,-0.244,-1.099,23.45,-61.381,-126.129,-25.707,-9.893,7.94,23.78,-0.47385,0.36636,0.38217,0.70361,348,0.71,0.196,0.669,1.587,-0.183,-0.61,16.309,-45.555,146.173,-18.02,-11.353,-20.04,27.99,-0.2186,-0.40158,-0.00735,-0.88925,344,0.931,0.286,0.166,-0.183,-0.061,0.183,59.881,-71.021,161.208,-27.52,-13.1,0.127,27.99,0.16742,-0.56476,-0.31476,-0.7442,346
87,0.857,0.118,0.539,0.0,-0.244,-0.122,11.569,-57.261,148.541,-21.413,-8.667,-16.24,22.23,-0.189,-0.48267,0.04349,-0.854,353,0.877,0.197,0.44,-0.427,-0.061,-0.916,23.494,-61.375,-126.211,-25.707,-9.893,7.94,23.78,-0.47385,0.36636,0.38217,0.70361,349,0.708,0.202,0.67,1.465,0.366,-1.343,16.353,-45.549,146.173,-18.02,-11.353,-20.04,27.99,-0.2186,-0.40158,-0.00735,-0.88925,345,0.93,0.287,0.162,-0.549,-0.61,0.122,59.892,-71.021,161.246,-27.52,-13.1,0.127,27.99,0.16742,-0.56476,-0.31476,-0.7442,347
88,0.855,0.116,0.539,-0.488,0.0,-0.061,11.563,-57.261,148.497,-21.413,-8.667,-16.24,22.23,-0.189,-0.48267,0.04349,-0.854,362,0.882,0.198,0.435,-0.122,0.0,-0.549,23.522,-61.37,-126.282,-25.707,-9.893,7.94,23.78,-0.47385,0.36636,0.38217,0.70361,356,0.711,0.205,0.669,0.916,-0.061,-1.16,16.403,-45.538,146.179,-18.02,-11.353,-20.04,27.99,-0.21274,-0.40475,-0.01413,-0.88916,350,0.931,0.293,0.155,-0.671,-0.549,0.061,59.914,-71.016,161.268,-27.52,-13.1,0.127,27.99,0.16742,-0.56476,-0.31476,-0.7442,354
89,0.855,0.113,0.536,-0.61,-0.061,0.0,11.558,-57.261,148.447,-21.413,-8.667,-16.24,22.23,-0.189,-0.48267,0.04349,-0.854,363,0.883,0.199,0.434,0.0,-0.122,-0.427,23.544,-61.37,-126.326,-25.707,-9.893,7.94,23.78,-0.47385,0.36636,0.38217,0.70361,357,0.714,0.205,0.668,0.61,-0.549,-0.793,16.447,-45.533,146.19,-18.02,-11.353,-20.04,27.99,-0.21274,-0.40475,-0.01413,-0.88916,351,0.93,0.293,0.159,-0.305,-0.122,0.122,59.925,-71.016,161.318,-27.52,-13.1,0.127,27.99,0.16742,-0.56476,-0.31476,-0.7442,355
90,0.856,0.108,0.537,-0.427,-0.061,0.0,11.552,-57.261,148.403,-21.413,-8.667,-16.24,22.23,-0.189,-0.48267,0.04349,-0.854,370,0.879,0.198,0.435,-0.122,0.0,-0.427,23.566,-61.37,-126.381,-25.707,-9.893,7.94,23.78,-0.47385,0.36636,0.38217,0.70361,360,0.71,0.204,0.665,0.488,-0.793,-0.793,16.479,-45.538,146.201,-18.02,-11.353,-20.04,27.99,-0.21274,-0.40475,-0.01413,-0.88916,358,0.929,0.29,0.165,-0.305,0.0,0.244,59.93,-71.01,161.411,-27.52,-13.1,0.127,27.99,0.16742,-0.56476,-0.31476,-0.7442,364
91,0.856,0.11,0.537,-0.183,0.183,-0.061,11.558,-57.261,148.343,-21.413,-8.667,-16.24,22.23,-0.189,-0.48267,0.04349,-0.854,371,0.882,0.196,0.436,-0.244,0.183,-0.061,23.582,-61.364,-126.431,-25.707,-9.893,7.94,23.78,-0.47385,0.36636,0.38217,0.70361,361,0.711,0.205,0.665,0.366,-0.671,-1.038,16.512,-45.549,146.212,-18.02,-11.353,-20.04,27.99,-0.21274,-0.40475,-0.01413,-0.88916,359,0.929,0.282,0.157,-0.427,-0.061,0.183,59.925,-71.005,161.499,-27.52,-13.1,0.127,27.99,0.16742,-0.56476,-0.31476,-0.7442,365
92,0.855,0.114,0.54,-0.183,0.061,-0.122,11.558,-57.255,148.304,-21.413,-8.667,-16.24,22.23,-0.189,-0.48267,0.04349,-0.854,374,0.882,0.195,0.436,-0.122,0.0,0.244,23.582,-61.364,-126.458,-25.707,-9.893,7.94,23.78,-0.47385,0.36636,0.38217,0.70361,368,0.711,0.203,0.667,0.183,-0.366,-1.038,16.545,-45.555,146.234,-18.02,-11.353,-20.04,27.99,-0.21274,-0.40475,-0.01413,-0.88916,372,0.932,0.284,0.162,-0.488,0.0,0.122,59.925,-70.999,161.559,-27.333,-13.62,0.747,27.99,0.16742,-0.56476,-0.31476,-0.7442,366
93,0.855,0.115,0.538,-0.122,-0.183,0.061,11.558,-57.261,148.293,-21.413,-8.667,-16.24,22.23,-0.189,-0.48267,0.04349,-0.854,375,0.883,0.199,0.438,0.0,0.122,0.488,23.577,-61.364,-126.486,-25.707,-9.893,7.94,23.78,-0.47385,0.36636,0.38217,0.70361,369,0.715,0.207,0.668,0.122,-0.244,-0.671,16.567,-45.555,146.255,-18.02,-11.353,-20.04,27.99,-0.21274,-0.40475,-0.01413,-0.88916,373,0.931,0.289,0.163,-0.549,0.0,0.183,59.914,-70.999,161.631,-27.333,-13.62,0.747,27.99,0.16742,-0.56476,-0.31476,-0.7442,367
94,0.855,0.114,0.537,-0.183,-0.244,0.244,11.552,-57.266,148.321,-21.413,-8.667,-16.24,22.23,-0.189,-0.48267,0.04349,-0.854,380,0.881,0.199,0.438,-0.061,0.427,0.427,23.571,-61.37,-126.502,-25.707,-9.893,7.94,23.78,-0.47385,0.36636,0.38217,0.70361,378,0.711,0.204,0.668,0.0,-0.244,-0.732,16.589,-45.555,146.255,-18.02,-11.353,-20.04,27.99,-0.21274,-0.40475,-0.01413,-0.88916,376,0.929,0.293,0.166,-0.305,0.183,0.305,59.903,-70.994,161.724,-27.333,-13.62,0.747,27.99,0.16742,-0.56476,-0.31476,-0.7442,384
95,0.855,0.112,0.537,-0.244,-0.061,0.183,11.547,-57.272,148.326,-21.413,-8.667,-16.24,22.23,-0.189,-0.48267,0.04349,-0.854,381,0.879,0.198,0.438,-0.244,0.488,0.122,23.555,-61.364,-126.513,-25.707,-9.893,7.94,23.78,-0.47385,0.36636,0.38217,0.70361,379,0.71,0.203,0.669,-0.122,0.0,-0.732,16.606,-45.555,146.261,-18.02,-11.353,-20.04,27.99,-0.21274,-0.40475,-0.01413,-0.88916,377,0.93,0.291,0.162,0.0,0.244,0.488,59.886,-70.988,161.851,-27.333,-13.62,0.747,27.99,0.16742,-0.56476,-0.31476,-0.7442,385
96,0.854,0.111,0.539,-0.183,0.183,0.061,11.547,-57.266,148.348,-21.06,-9.187,-15.907,22.23,-0.189,-0.48267,0.04349,-0.854,392,0.88,0.195,0.438,-0.488,0.366,-0.061,23.549,-61.359,-126.535,-25.707,-9.893,7.94,23.78,-0.47385,0.36636,0.38217,0.70361,386,0.709,0.201,0.668,0.0,-0.305,-0.977,16.628,-45.549,146.272,-18.02,-11.353,-20.04,27.99,-0.21274,-0.40475,-0.01413,-0.88916,382,0.929,0.288,0.159,-0.427,0.366,0.671,59.859,-70.988,161.999,-27.333,-13.62,0.747,27.99,0.17575,-0.56052,-0.32248,-0.74216,390
97,0.854,0.112,0.539,-0.122,0.0,0.061,11.541,-57.266,148.365,-21.06,-9.187,-15.907,22.23,-0.189,-0.48267,0.04349,-0.854,393,0.882,0.195,0.439,-0.61,0.366,-0.122,23.544,-61.353,-126.562,-25.707,-9.893,7.94,23.78,-0.47385,0.36636,0.38217,0.70361,387,0.712,0.202,0.668,0.061,-0.305,-0.916,16.65,-45.549,146.277,-18.02,-11.353,-20.04,27.99,-0.21274,-0.40475,-0.01413,-0.88916,383,0.93,0.285,0.161,-0.671,0.488,0.793,59.815,-70.988,162.147,-27.333,-13.62,0.747,27.99,0.17575,-0.56052,-0.32248,-0.74216,391
98,0.855,0.112,0.539,-0.122,-0.305,0.122,11.541,-57.272,148.376,-21.06,-9.187,-15.907,22.23,-0.19162,-0.48282,0.04501,-0.85327,402,0.88,0.195,0.439,-0.671,0.61,-0.122,23.538,-61.342,-126.584,-25.707,-9.893,7.94,23.78,-0.47385,0.36636,0.38217,0.70361,396,0.711,0.204,0.667,0.0,-0.122,-0.916,16.672,-45.549,146.31,-18.02,-11.353,-20.04,27.99,-0.21274,-0.40475,-0.01413,-0.88916,388,0.93,0.286,0.167,-0.732,0.305,0.732,59.766,-70.994,162.268,-27.333,-13.62,0.747,27.99,0.17575,-0.56052,-0.32248,-0.74216,394
99,0.855,0.113,0.536,-0.366,-0.244,0.183,11.536,-57.277,148.376,-21.06,-9.187,-15.907,22.23,-0.19162,-0.48282,0.04501,-0.85327,403,0.875,0.193,0.44,-0.366,0.793,0.0,23.527,-61.331,-126.59,-25.707,-9.893,7.94,23.78,-0.47385,0.36636,0.38217,0.70361,397,0.706,0.203,0.668,-0.244,0.244,-0.549,16.683,-45.544,146.316,-18.02,-11.353,-20.04,27.99,-0.21274,-0.40475,-0.01413,-0.88916,389,0.928,0.287,0.169,-0.427,0.0,0.61,59.744,-70.994,162.35,-27.333,-13.62,0.747,27.99,0.17575,-0.56052,-0.32248,-0.74216,395
100,0.855,0.112,0.536,-0.427,0.122,0.122,11.525,-57.277,148.398,-21.06,-9.187,-15.907,22.23,-0.19162,-0.48282,0.04501,-0.85327,408,0.875,0.194,0.44,-0.122,0.671,0.122,23.516,-61.32,-126.595,-25.493,-9.547,7.54,23.78,-0.47385,0.36636,0.38217,0.70361,400,0.704,0.203,0.669,-0.061,0.549,-0.244,16.688,-45.533,146.316,-18.02,-11.353,-20.04,27.99,-0.21274,-0.40475,-0.01413,-0.88916,398,0.927,0.287,0.162,0.0,-0.122,0.549,59.733,-70.999,162.449,-27.333,-13.62,0.747,27.99,0.17575,-0.56052,-0.32248,-0.74216,404
101,0.859,0.111,0.539,-0.366,0.61,0.061,11.519,-57.266,148.414,-21.06,-9.187,-15.907,22.23,-0.19162,-0.48282,0.04501,-0.85327,409,0.881,0.196,0.439,-0.427,0.366,0.0,23.505,-61.309,-126.601,-25.493,-9.547,7.54,23.78,-0.47385,0.36636,0.38217,0.70361,401,0.71,0.202,0.669,0.061,0.61,0.0,16.688,-45.522,146.31,-18.02,-11.353,-20.04,27.99,-0.21274,-0.40475,-0.01413,-0.88916,399,0.931,0.285,0.155,-0.427,-0.122,0.488,59.727,-70.999,162.526,-27.333,-13.62,0.747,27.99,0.17575,-0.56052,-0.32248,-0.74216,405
102,0.863,0.113,0.538,-0.305,0.488,-0.061,11.514,-57.255,148.398,-21.06,-9.187,-15.907,22.23,-0.19162,-0.48282,0.04501,-0.85327,414,0.888,0.196,0.438,-1.465,0.0,-0.305,23.5,-61.304,-126.617,-25.493,-9.547,7.54,23.78,-0.47385,0.36636,0.38217,0.70361,406,0.714,0.2,0.67,0.366,0.61,-0.244,16.694,-45.505,146.327,-18.247,-11.307,-20.273,27.99,-0.21274,-0.40475,-0.01413,-0.88916,410,0.933,0.286,0.161,-0.977,0.366,0.549,59.694,-70.999,162.62,-27.333,-13.62,0.747,27.99,0.17575,-0.56052,-0.32248,-0.74216,412
103,0.861,0.113,0.538,-0.549,0.244,-0.305,11.514,-57.25,148.381,-21.06,-9.187,-15.907,22.23,-0.19162,-0.48282,0.04501,-0.85327,415,0.89,0.196,0.437,-2.625,-0.183,-1.099,23.489,-61.298,-126.667,-25.493,-9.547,7.54,23.78,-0.47385,0.36636,0.38217,0.70361,407,0.722,0.196,0.669,0.549,0.549,-0.549,16.71,-45.489,146.31,-18.247,-11.307,-20.273,27.99,-0.21274,-0.40475,-0.01413,-0.88916,411,0.937,0.287,0.164,-1.709,1.099,0.671,59.606,-70.999,162.773,-27.333,-13.62,0.747,27.99,0.17575,-0.56052,-0.32248,-0.74216,413
104,0.855,0.112,0.538,-0.977,0.305,-0.488,11.514,-57.244,148.359,-21.06,-9.187,-15.907,22.23,-0.19162,-0.48282,0.04501,-0.85327,422,0.883,0.193,0.435,-3.418,0.122,-1.77,23.483,-61.287,-126.744,-25.493,-9.547,7.54,23.78,-0.47079,0.36737,0.38052,0.70599,420,0.715,0.197,0.663,-0.305,0.793,-1.648,16.732,-45.472,146.294,-18.247,-11.307,-20.273,27.99,-0.21066,-0.40485,-0.01758,-0.88956,416,0.935,0.287,0.165,-2.625,1.404,0.793,59.48,-70.988,162.916,-27.333,-13.62,0.747,27.99,0.17575,-0.56052,-0.32248,-0.74216,418
105,0.853,0.109,0.535,-0.793,0.427,-0.183,11.503,-57.239,148.348,-21.06,-9.187,-15.907,22.23,-0.19162,-0.48282,0.04501,-0.85327,423,0.876,0.191,0.437,-2.441,0.671,-1.099,23.472,-61.276,-126.804,-25.493,-9.547,7.54,23.78,-0.47079,0.36737,0.38052,0.70599,421,0.707,0.206,0.663,-0.854,1.526,-2.441,16.754,-45.439,146.234,-18.247,-11.307,-20.273,27.99,-0.21066,-0.40485,-0.01758,-0.88956,417,0.93,0.284,0.162,-2.808,1.16,0.671,59.359,-70.983,163.01,-27.333,-13.62,0.747,27.99,0.17575,-0.56052,-0.32248,-0.74216,419
106,0.854,0.106,0.539,-0.305,0.61,0.061,11.492,-57.228,148.337,-21.06,-9.187,-15.907,22.23,-0.19162,-0.48282,0.04501,-0.85327,434,0.875,0.197,0.442,-1.282,0.549,-0.122,23.456,-61.26,-126.832,-25.493,-9.547,7.54,23.78,-0.47079,0.36737,0.38052,0.70599,428,0.705,0.213,0.671,-0.427,1.892,-1.587,16.771,-45.401,146.168,-18.247,-11.307,-20.273,27.99,-0.21066,-0.40485,-0.01758,-0.88956,424,0.927,0.282,0.161,-1.709,0.549,0.427,59.282,-70.983,163.043,-27.333,-13.62,0.747,27.99,0.17575,-0.56052,-0.32248,-0.74216,426
107,0.853,0.106,0.54,-0.244,0.977,0.183,11.475,-57.211,148.348,-21.06,-9.187,-15.907,22.23,-0.19162,-0.48282,0.04501,-0.85327,435,0.875,0.194,0.441,-0.61,0.366,0.671,23.423,-61.254,-126.821,-25.493,-9.547,7.54,23.78,-0.47079,0.36737,0.38052,0.70599,429,0.703,0.214,0.674,-0.183,1.526,-0.366,16.776,-45.363,146.091,-18.247,-11.307,-20.273,27.99,-0.21066,-0.40485,-0.01758,-0.88956,425,0.93,0.28,0.164,-0.366,0.122,0.366,59.26,-70.983,163.065,-27.333,-13.62,0.747,27.99,0.17575,-0.56052,-0.32248,-0.74216,427
108,0.85,0.108,0.541,-0.183,0.854,0.122,11.464,-57.195,148.387,-21.06,-9.187,-15.907,22.23,-0.19162,-0.48282,0.04501,-0.85327,444,0.877,0.19,0.441,-0.183,0.061,0.854,23.395,-61.26,-126.804,-25.493,-9.547,7.54,23.78,-0.47079,0.36737,0.38052,0.70599,436,0.705,0.201,0.672,-0.427,0.305,0.732,16.765,-45.346,146.069,-18.247,-11.307,-20.273,27.99,-0.21066,-0.40485,-0.01758,-0.88956,430,0.93,0.28,0.162,0.0,0.916,0.549,59.216,-70.977,163.163,-27.333,-13.62,0.747,27.99,0.17575,-0.56052,-0.32248,-0.74216,432
109,0.848,0.109,0.54,-0.183,0.488,0.061,11.459,-57.184,148.458,-21.06,-9.187,-15.907,22.23,-0.19162,-0.48282,0.04501,-0.85327,445,0.877,0.188,0.444,-0.305,0.0,0.61,23.368,-61.265,-126.793,-25.493,-9.547,7.54,23.78,-0.47079,0.36737,0.38052,0.70599,437,0.704,0.195,0.67,-0.366,-0.183,0.366,16.749,-45.352,146.074,-18.247,-11.307,-20.273,27.99,-0.21066,-0.40485,-0.01758,-0.88956,431,0.928,0.28,0.169,-0.244,1.282,0.549,59.15,-70.972,163.279,-27.333,-13.62,0.747,27.99,0.17575,-0.56052,-0.32248,-0.74216,433
110,0.849,0.113,0.542,-0.183,0.122,0.061,11.453,-57.184,148.486,-21.02,-8.987,-15.92,22.23,-0.19162,-0.48282,0.04501,-0.85327,450,0.874,0.19,0.448,-0.244,0.244,0.366,23.351,-61.265,-126.788,-25.493,-9.547,7.54,23.78,-0.47079,0.36737,0.38052,0.70599,442,0.701,0.198,0.673,-0.366,0.366,-0.061,16.738,-45.346,146.036,-18.247,-11.307,-20.273,27.99,-0.21066,-0.40485,-0.01758,-0.88956,438,0.925,0.281,0.176,-0.366,1.038,0.488,59.079,-70.961,163.383,-27.333,-13.62,0.747,27.99,0.17575,-0.56052,-0.32248,-0.74216,440
111,0.851,0.115,0.542,-0.122,0.0,0.0,11.453,-57.184,148.524,-21.02,-8.987,-15.92,22.23,-0.19162,-0.48282,0.04501,-0.85327,451,0.872,0.193,0.447,-0.122,0.366,0.244,23.335,-61.265,-126.793,-25.493,-9.547,7.54,23.78,-0.47079,0.36737,0.38052,0.70599,443,0.7,0.202,0.675,-0.244,0.793,0.0,16.727,-45.335,145.992,-18.247,-11.307,-20.273,27.99,-0.21066,-0.40485,-0.01758,-0.88956,439,0.924,0.282,0.173,-0.061,0.244,0.61,59.046,-70.961,163.438,-27.333,-13.62,0.747,27.99,0.17575,-0.56052,-0.32248,-0.74216,441
112,0.855,0.113,0.543,-0.061,0.183,0.0,11.453,-57.178,148.585,-21.02,-8.987,-15.92,22.23,-0.19043,-0.48206,0.04446,-0.85397,454,0.873,0.195,0.445,0.0,0.122,0.305,23.318,-61.26,-126.793,-25.493,-9.547,7.54,23.78,-0.47079,0.36737,0.38052,0.70599,448,0.699,0.207,0.675,0.0,0.977,0.366,16.716,-45.319,145.997,-18.247,-11.307,-20.273,27.99,-0.21066,-0.40485,-0.01758,-0.88956,446,0.927,0.285,0.174,0.061,0.0,0.488,59.03,-70.966,163.488,-27.333,-13.62,0.747,27.99,0.17575,-0.56052,-0.32248,-0.74216,452
113,0.857,0.115,0.54,0.0,0.122,0.0,11.453,-57.173,148.623,-21.02,-8.987,-15.92,22.23,-0.19043,-0.48206,0.04446,-0.85397,455,0.879,0.196,0.445,-0.183,0.061,0.427,23.307,-61.26,-126.793,-25.493,-9.547,7.54,23.78,-0.47079,0.36737,0.38052,0.70599,449,0.706,0.208,0.676,0.183,0.488,0.732,16.705,-45.308,146.003,-18.247,-11.307,-20.273,27.99,-0.21066,-0.40485,-0.01758,-0.88956,447,0.929,0.284,0.168,0.061,0.0,0.305,59.024,-70.966,163.542,-27.333,-13.62,0.747,27.99,0.17575,-0.56052,-0.32248,-0.74216,453
114,0.856,0.112,0.539,-0.183,0.0,0.122,11.453,-57.173,148.634,-21.02,-8.987,-15.92,22.23,-0.19043,-0.48206,0.04446,-0.85397,468,0.88,0.193,0.443,-0.305,-0.061,0.122,23.297,-61.26,-126.804,-25.493,-9.547,7.54,23.78,-0.47079,0.36737,0.38052,0.70599,460,0.708,0.201,0.673,0.244,0.0,0.549,16.699,-45.302,145.986,-18.247,-11.307,-20.273,27.99,-0.21066,-0.40485,-0.01758,-0.88956,456,0.932,0.287,0.17,0.0,0.244,0.244,59.008,-70.961,163.641,-27.133,-13.113,0.667,27.99,0.17575,-0.56052,-0.32248,-0.74216,458
115,0.855,0.11,0.536,-0.061,-0.061,0.366,11.442,-57.178,148.623,-21.02,-8.987,-15.92,22.23,-0.19043,-0.48206,0.04446,-0.85397,469,0.876,0.191,0.443,-0.061,-0.122,-0.122,23.297,-61.26,-126.832,-25.493,-9.547,7.54,23.78,-0.47079,0.36737,0.38052,0.70599,461,0.705,0.201,0.673,0.488,-0.183,0.183,16.699,-45.302,145.981,-18.247,-11.307,-20.273,27.99,-0.21066,-0.40485,-0.01758,-0.88956,457,0.93,0.287,0.169,0.0,0.305,0.122,58.991,-70.955,163.757,-27.133,-13.113,0.667,27.99,0.17575,-0.56052,-0.32248,-0.74216,459
116,0.854,0.109,0.536,0.122,-0.183,0.488,11.437,-57.184,148.612,-21.02,-8.987,-15.92,22.23,-0.19043,-0.48206,0.04446,-0.85397,476,0.877,0.193,0.446,0.61,-0.305,-0.122,23.313,-61.26,-126.854,-25.493,-9.547,7.54,23.78,-0.47079,0.36737,0.38052,0.70599,466,0.703,0.205,0.675,0.977,0.0,0.488,16.71,-45.302,145.942,-18.247,-11.307,-20.273,27.99,-0.21066,-0.40485,-0.01758,-0.88956,462,0.929,0.284,0.165,0.244,0.122,0.183,58.98,-70.95,163.856,-27.133,-13.113,0.667,27.99,0.17575,-0.56052,-0.32248,-0.74216,464
117,0.854,0.109,0.541,0.305,-0.183,0.488,11.426,-57.189,148.59,-21.02,-8.987,-15.92,22.23,-0.19043,-0.48206,0.04446,-0.85397,477,0.878,0.191,0.442,0.977,-0.61,0.061,23.34,-61.265,-126.876,-25.493,-9.547,7.54,23.78,-0.47079,0.36737,0.38052,0.70599,467,0.706,0.205,0.674,1.343,0.122,0.671,16.721,-45.302,145.931,-18.247,-11.307,-20.273,27.99,-0.21066,-0.40485,-0.01758,-0.88956,463,0.929,0.282,0.166,0.916,-0.366,0.244,59.008,-70.95,163.927,-27.133,-13.113,0.667,27.99,0.17575,-0.56052,-0.32248,-0.74216,465
118,0.856,0.109,0.541,0.488,-0.183,0.549,11.42,-57.195,148.574,-21.02,-8.987,-15.92,22.23,-0.19043,-0.48206,0.04446,-0.85397,480,0.881,0.193,0.44,1.221,-0.793,0.366,23.368,-61.282,-126.898,-25.88,-9.76,7.967,23.78,-0.47079,0.36737,0.38052,0.70599,474,0.708,0.204,0.669,1.221,0.183,0.671,16.738,-45.302,145.904,-17.847,-11.553,-20.953,27.99,-0.21066,-0.40485,-0.01758,-0.88956,470,0.931,0.279,0.164,1.099,-0.671,0.244,59.057,-70.955,163.965,-27.133,-13.113,0.667,27.99,0.18408,-0.55612,-0.32666,-0.74164,472
119,0.857,0.111,0.541,0.427,0.0,0.427,11.42,-57.2,148.552,-21.02,-8.987,-15.92,22.23,-0.19043,-0.48206,0.04446,-0.85397,481,0.882,0.192,0.439,1.16,-0.671,0.427,23.39,-61.293,-126.903,-25.88,-9.76,7.967,23.78,-0.47079,0.36737,0.38052,0.70599,475,0.71,0.201,0.67,1.16,0.0,0.0,16.754,-45.297,145.876,-17.847,-11.553,-20.953,27.99,-0.21066,-0.40485,-0.01758,-0.88956,471,0.931,0.28,0.168,0.916,-0.427,0.244,59.095,-70.955,164.009,-27.133,-13.113,0.667,27.99,0.18408,-0.55612,-0.32666,-0.74164,473
120,0.857,0.111,0.542,0.061,0.244,0.183,11.415,-57.2,148.53,-21.02,-8.987,-15.92,22.23,-0.19043,-0.48206,0.04446,-0.85397,488,0.883,0.192,0.438,0.916,-0.488,0.427,23.406,-61.309,-126.903,-25.88,-9.76,7.967,23.78,-0.47079,0.36737,0.38052,0.70599,484,0.71,0.204,0.667,1.099,0.244,-0.122,16.776,-45.291,145.876,-17.847,-11.553,-20.953,27.99,-0.21066,-0.40485,-0.01758,-0.88956,482,0.931,0.281,0.168,0.671,-0.244,0.244,59.112,-70.961,164.02,-27.133,-13.113,0.667,27.99,0.18408,-0.55612,-0.32666,-0.74164,478
121,0.856,0.107,0.538,-0.061,0.183,0.0,11.415,-57.195,148.502,-21.02,-8.987,-15.92,22.23,-0.19043,-0.48206,0.04446,-0.85397,489,0.883,0.19,0.436,0.488,-0.366,0.183,23.417,-61.32,-126.909,-25.88,-9.76,7.967,23.78,-0.47079,0.36737,0.38052,0.70599,485,0.711,0.201,0.668,0.793,0.427,0.183,16.793,-45.286,145.893,-17.847,-11.553,-20.953,27.99,-0.21066,-0.40485,-0.01758,-0.88956,483,0.933,0.283,0.165,0.671,0.0,0.183,59.123,-70.955,164.059,-27.133,-13.113,0.667,27.99,0.18408,-0.55612,-0.32666,-0.74164,479
122,0.856,0.108,0.538,0.0,0.183,0.0,11.409,-57.189,148.469,-21.02,-8.987,-15.92,22.23,-0.19043,-0.48206,0.04446,-0.85397,494,0.881,0.188,0.437,0.366,-0.244,0.0,23.428,-61.326,-126.931,-25.88,-9.76,7.967,23.78,-0.46899,0.36862,0.37927,0.70724,490,0.708,0.199,0.668,0.366,0.549,0.305,16.798,-45.28,145.937,-17.847,-11.553,-20.953,27.99,-0.21402,-0.40366,-0.01712,-0.88931,486,0.934,0.282,0.166,0.488,0.183,0.122,59.123,-70.955,164.152,-27.133,-13.113,0.667,27.99,0.18408,-0.55612,-0.32666,-0.74164,492
123,0.855,0.11,0.535,0.427,0.061,0.183,11.415,-57.189,148.436,-21.02,-8.987,-15.92,22.23,-0.19043,-0.48206,0.04446,-0.85397,495,0.875,0.191,0.442,0.793,-0.305,0.183,23.445,-61.331,-126.958,-25.88,-9.76,7.967,23.78,-0.46899,0.36862,0.37927,0.70724,491,0.702,0.203,0.673,0.549,0.977,0.427,16.798,-45.264,145.975,-17.847,-11.553,-20.953,27.99,-0.21402,-0.40366,-0.01712,-0.88931,487,0.932,0.28,0.167,0.122,0.427,-0.061,59.112,-70.944,164.257,-27.133,-13.113,0.667,27.99,0.18408,-0.55612,-0.32666,-0.74164,493
124,0.854,0.111,0.538,0.488,0.122,0.366,11.415,-57.189,148.414,-21.02,-8.987,-15.92,22.23,-0.19043,-0.48206,0.04446,-0.85397,506,0.878,0.194,0.445,1.16,-0.427,0.488,23.456,-61.342,-126.969,-25.88,-9.76,7.967,23.78,-0.46899,0.36862,0.37927,0.70724,500,0.705,0.208,0.678,0.916,0.916,0.671,16.793,-45.253,145.975,-17.847,-11.553,-20.953,27.99,-0.21402,-0.40366,-0.01712,-0.88931,496,0.93,0.28,0.164,0.183,0.488,0.0,59.09,-70.933,164.394,-27.133,-13.113,0.667,27.99,0.18408,-0.55612,-0.32666,-0.74164,498
125,0.853,0.113,0.541,0.305,0.183,0.366,11.415,-57.189,148.392,-21.02,-8.987,-15.92,22.23,-0.19043,-0.48206,0.04446,-0.85397,507,0.876,0.192,0.442,1.465,-0.671,0.549,23.472,-61.353,-126.974,-25.88,-9.76,7.967,23.78,-0.46899,0.36862,0.37927,0.70724,501,0.703,0.203,0.676,1.099,0.366,0.916,16.798,-45.242,145.992,-17.847,-11.553,-20.953,27.99,-0.21402,-0.40366,-0.01712,-0.88931,497,0.929,0.282,0.165,0.488,0.183,0.0,59.095,-70.928,164.559,-27.133,-13.113,0.667,27.99,0.18408,-0.55612,-0.32666,-0.74164,499
126,0.852,0.111,0.541,0.061,-0.061,0.305,11.409,-57.189,148.376,-21.02,-8.987,-15.92,22.23,-0.19043,-0.48206,0.04446,-0.85397,516,0.879,0.194,0.44,1.404,-0.793,0.244,23.5,-61.37,-126.985,-25.88,-9.76,7.967,23.78,-0.46899,0.36862,0.37927,0.70724,504,0.704,0.201,0.674,1.16,-0.183,0.488,16.804,-45.242,146.052,-17.847,-11.553,-20.953,27.99,-0.21402,-0.40366,-0.01712,-0.88931,502,0.929,0.284,0.163,0.916,-0.183,-0.122,59.128,-70.922,164.663,-27.133,-13.113,0.667,27.99,0.18408,-0.55612,-0.32666,-0.74164,508
127,0.856,0.108,0.538,0.0,-0.366,0.183,11.404,-57.195,148.348,-21.02,-8.987,-15.92,22.23,-0.19043,-0.48206,0.04446,-0.85397,517,0.881,0.195,0.438,1.16,-0.793,0.0,23.533,-61.386,-127.013,-25.88,-9.76,7.967,23.78,-0.46899,0.36862,0.37927,0.70724,505,0.708,0.203,0.669,0.854,-0.366,-0.122,16.82,-45.247,146.135,-17.847,-11.553,-20.953,27.99,-0.21402,-0.40366,-0.01712,-0.88931,503,0.929,0.286,0.167,0.793,-0.061,-0.061,59.156,-70.922,164.751,-27.133,-13.113,0.667,27.99,0.18408,-0.55612,-0.32666,-0.74164,509
128,0.858,0.106,0.542,0.183,0.061,0.0,11.404,-57.2,148.321,-20.833,-8.54,-16.133,22.23,-0.19043,-0.48206,0.04446,-0.85397,522,0.884,0.196,0.437,0.793,-0.549,-0.183,23.566,-61.397,-127.04,-25.88,-9.76,7.967,23.78,-0.46899,0.36862,0.37927,0.70724,514,0.711,0.206,0.668,0.122,-0.427,-0.427,16.842,-45.253,146.173,-17.847,-11.553,-20.953,27.99,-0.21402,-0.40366,-0.01712,-0.88931,510,0.928,0.285,0.172,0.977,0.0,0.0,59.178,-70.917,164.833,-27.133,-13.113,0.667,27.99,0.18408,-0.55612,-0.32666,-0.74164,512
129,0.856,0.107,0.54,0.427,0.61,-0.122,11.409,-57.195,148.288,-20.833,-8.54,-16.133,22.23,-0.19043,-0.48206,0.04446,-0.85397,523,0.881,0.193,0.435,0.366,-0.305,-0.122,23.593,-61.403,-127.073,-25.88,-9.76,7.967,23.78,-0.46899,0.36862,0.37927,0.70724,515,0.708,0.206,0.667,-0.366,-0.183,-0.427,16.848,-45.258,146.184,-17.847,-11.553,-20.953,27.99,-0.21402,-0.40366,-0.01712,-0.88931,511,0.929,0.282,0.171,0.671,0.244,0.0,59.178,-70.906,164.932,-27.133,-13.113,0.667,27.99,0.18408,-0.55612,-0.32666,-0.74164,513
130,0.854,0.109,0.541,0.366,0.549,0.0,11.42,-57.184,148.26,-20.833,-8.54,-16.133,22.23,-0.19312,-0.4819,0.04617,-0.85336,526,0.88,0.188,0.434,-0.122,-0.244,0.122,23.599,-61.408,-127.09,-25.88,-9.76,7.967,23.78,-0.46899,0.36862,0.37927,0.70724,520,0.708,0.203,0.666,-0.854,0.244,-0.061,16.842,-45.253,146.157,-17.847,-11.553,-20.953,27.99,-0.21402,-0.40366,-0.01712,-0.88931,518,0.933,0.276,0.162,0.244,0.061,-0.183,59.189,-70.9,165.02,-27.133,-13.113,0.667,27.99,0.18408,-0.55612,-0.32666,-0.74164,524
131,0.854,0.111,0.537,0.488,0.0,0.183,11.426,-57.178,148.233,-20.833,-8.54,-16.133,22.23,-0.19312,-0.4819,0.04617,-0.85336,527,0.882,0.184,0.436,0.305,-0.183,0.244,23.599,-61.414,-127.106,-25.88,-9.76,7.967,23.78,-0.46899,0.36862,0.37927,0.70724,521,0.706,0.198,0.669,-0.61,0.549,0.427,16.82,-45.247,146.118,-17.847,-11.553,-20.953,27.99,-0.21402,-0.40366,-0.01712,-0.88931,519,0.933,0.278,0.163,0.305,0.427,-0.488,59.189,-70.884,165.086,-27.133,-13.113,0.667,27.99,0.18408,-0.55612,-0.32666,-0.74164,525
132,0.856,0.109,0.534,0.549,-0.305,0.244,11.431,-57.178,148.206,-20.833,-8.54,-16.133,22.23,-0.19312,-0.4819,0.04617,-0.85336,534,0.882,0.191,0.441,1.16,-0.488,0.183,23.61,-61.425,-127.117,-25.88,-9.76,7.967,23.78,-0.46899,0.36862,0.37927,0.70724,532,0.707,0.2,0.677,0.305,0.549,0.854,16.804,-45.242,146.118,-17.847,-11.553,-20.953,27.99,-0.21402,-0.40366,-0.01712,-0.88931,528,0.932,0.283,0.166,0.488,0.732,-0.61,59.183,-70.862,165.157,-27.273,-13.333,0.88,27.99,0.18408,-0.55612,-0.32666,-0.74164,530
133,0.856,0.113,0.54,0.305,-0.061,0.0,11.437,-57.184,148.184,-20.833,-8.54,-16.133,22.23,-0.19312,-0.4819,0.04617,-0.85336,535,0.878,0.199,0.444,1.16,-0.488,0.0,23.637,-61.43,-127.134,-25.88,-9.76,7.967,23.78,-0.46899,0.36862,0.37927,0.70724,533,0.703,0.207,0.678,0.366,0.244,0.427,16.793,-45.236,146.157,-17.847,-11.553,-20.953,27.99,-0.21402,-0.40366,-0.01712,-0.88931,529,0.928,0.288,0.172,1.038,0.549,-0.488,59.194,-70.845,165.218,-27.273,-13.333,0.88,27.99,0.18408,-0.55612,-0.32666,-0.74164,531
134,0.854,0.113,0.542,-0.061,0.427,-0.183,11.442,-57.184,148.151,-20.833,-8.54,-16.133,22.23,-0.19312,-0.4819,0.04617,-0.85336,548,0.877,0.201,0.444,0.61,-0.61,-0.122,23.665,-61.441,-127.161,-25.88,-9.76,7.967,23.78,-0.46899,0.36862,0.37927,0.70724,540,0.702,0.209,0.679,0.732,0.0,-0.183,16.804,-45.236,146.168,-17.847,-11.553,-20.953,27.99,-0.21402,-0.40366,-0.01712,-0.88931,538,0.929,0.285,0.168,1.16,0.0,-0.244,59.227,-70.84,165.24,-27.273,-13.333,0.88,27.99,0.18408,-0.55612,-0.32666,-0.74164,536
135,0.85,0.11,0.542,-0.183,0.549,-0.305,11.448,-57.178,148.118,-20.833,-8.54,-16.133,22.23,-0.19312,-0.4819,0.04617,-0.85336,549,0.88,0.198,0.44,-0.061,-0.671,-0.244,23.687,-61.452,-127.2,-25.88,-9.76,7.967,23.78,-0.46899,0.36862,0.37927,0.70724,541,0.707,0.208,0.675,0.549,-0.061,-0.488,16.82,-45.231,146.19,-17.847,-11.553,-20.953,27.99,-0.21402,-0.40366,-0.01712,-0.88931,539,0.931,0.283,0.162,0.427,-0.61,-0.061,59.271,-70.84,165.24,-27.273,-13.333,0.88,27.99,0.18408,-0.55612,-0.32666,-0.74164,537
136,0.85,0.111,0.542,-0.244,0.549,-0.122,11.448,-57.162,148.079,-20.833,-8.54,-16.133,22.23,-0.19312,-0.4819,0.04617,-0.85336,554,0.882,0.192,0.435,-0.549,-0.61,-0.183,23.698,-61.458,-127.244,-25.847,-9.927,7.787,23.78,-0.46899,0.36862,0.37927,0.70724,544,0.709,0.205,0.669,0.061,-0.427,-0.549,16.842,-45.231,146.245,-18.347,-11.887,-19.8,27.99,-0.21402,-0.40366,-0.01712,-0.88931,542,0.929,0.284,0.167,-0.305,0.061,-0.366,59.282,-70.834,165.267,-27.273,-13.333,0.88,27.99,0.19324,-0.5513,-0.3349,-0.7392,546
137,0.854,0.109,0.539,-0.366,0.244,-0.061,11.442,-57.156,148.052,-20.833,-8.54,-16.133,22.23,-0.19312,-0.4819,0.04617,-0.85336,555,0.884,0.191,0.429,-0.427,-0.427,0.0,23.698,-61.469,-127.266,-25.847,-9.927,7.787,23.78,-0.46899,0.36862,0.37927,0.70724,545,0.711,0.205,0.663,-0.183,-0.488,-0.427,16.853,-45.236,146.305,-18.347,-11.887,-19.8,27.99,-0.21402,-0.40366,-0.01712,-0.88931,543,0.927,0.285,0.168,0.122,0.427,-0.488,59.288,-70.823,165.284,-27.273,-13.333,0.88,27.99,0.19324,-0.5513,-0.3349,-0.7392,547
138,0.86,0.106,0.537,0.0,-0.305,0.0,11.442,-57.151,148.024,-20.833,-8.54,-16.133,22.23,-0.19312,-0.4819,0.04617,-0.85336,560,0.887,0.196,0.431,-0.427,-0.183,0.0,23.698,-61.474,-127.288,-25.847,-9.927,7.787,23.78,-0.46899,0.36862,0.37927,0.70724,556,0.714,0.207,0.661,-0.732,-0.061,-0.244,16.853,-45.242,146.354,-18.347,-11.887,-19.8,27.99,-0.21402,-0.40366,-0.01712,-0.88931,550,0.929,0.286,0.172,0.061,0.549,-0.244,59.282,-70.807,165.306,-27.273,-13.333,0.88,27.99,0.19324,-0.5513,-0.3349,-0.7392,552
139,0.862,0.109,0.542,0.305,-0.122,0.0,11.448,-57.156,147.991,-20.833,-8.54,-16.133,22.23,-0.19312,-0.4819,0.04617,-0.85336,561,0.888,0.198,0.433,-0.549,0.122,-0.122,23.692,-61.474,-127.315,-25.847,-9.927,7.787,23.78,-0.46899,0.36862,0.37927,0.70724,557,0.712,0.208,0.663,-1.038,0.793,-0.305,16.842,-45.231,146.365,-18.347,-11.887,-19.8,27.99,-0.21402,-0.40366,-0.01712,-0.88931,551,0.933,0.282,0.171,-0.183,0.61,0.061,59.26,-70.796,165.35,-27.273,-13.333,0.88,27.99,0.19324,-0.5513,-0.3349,-0.7392,553
140,0.855,0.113,0.541,0.244,0.427,-0.122,11.453,-57.156,147.964,-20.833,-8.54,-16.133,22.23,-0.19312,-0.4819,0.04617,-0.85336,564,0.88,0.195,0.44,-0.732,0.488,-0.122,23.681,-61.463,-127.337,-25.847,-9.927,7.787,23.78,-0.46738,0.3699,0.38013,0.70718,562,0.703,0.207,0.674,-1.038,1.648,-0.366,16.82,-45.209,146.349,-18.347,-11.887,-19.8,27.99,-0.21027,-0.40332,-0.01935,-0.89032,566,0.935,0.28,0.167,-0.061,-0.061,0.122,59.233,-70.79,165.388,-27.273,-13.333,0.88,27.99,0.19324,-0.5513,-0.3349,-0.7392,558
141,0.849,0.115,0.541,0.305,0.61,0.0,11.459,-57.151,147.936,-20.833,-8.54,-16.133,22.23,-0.19312,-0.4819,0.04617,-0.85336,565,0.878,0.19,0.443,-0.549,0.305,0.0,23.67,-61.458,-127.348,-25.847,-9.927,7.787,23.78,-0.46738,0.3699,0.38013,0.70718,563,0.702,0.204,0.682,-0.61,1.77,0.183,16.798,-45.176,146.299,-18.347,-11.887,-19.8,27.99,-0.21027,-0.40332,-0.01935,-0.89032,567,0.931,0.284,0.159,0.061,0.0,0.0,59.233,-70.785,165.394,-27.273,-13.333,0.88,27.99,0.19324,-0.5513,-0.3349,-0.7392,559
142,0.848,0.112,0.539,0.183,0.305,0.122,11.464,-57.14,147.914,-20.833,-8.54,-16.133,22.23,-0.19312,-0.4819,0.04617,-0.85336,574,0.879,0.191,0.439,-0.122,-0.061,0.122,23.665,-61.458,-127.348,-25.847,-9.927,7.787,23.78,-0.46738,0.3699,0.38013,0.70718,570,0.703,0.201,0.679,-0.244,0.488,0.549,16.782,-45.159,146.25,-18.347,-11.887,-19.8,27.99,-0.21027,-0.40332,-0.01935,-0.89032,572,0.927,0.289,0.163,0.488,0.366,-0.183,59.238,-70.785,165.421,-27.273,-13.333,0.88,27.99,0.19324,-0.5513,-0.3349,-0.7392,568
143,0.852,0.108,0.538,0.122,0.0,0.183,11.464,-57.134,147.892,-20.833,-8.54,-16.133,22.23,-0.19312,-0.4819,0.04617,-0.85336,575,0.878,0.193,0.437,0.183,-0.183,0.0,23.67,-61.463,-127.359,-25.847,-9.927,7.787,23.78,-0.46738,0.3699,0.38013,0.70718,571,0.703,0.202,0.674,-0.122,-0.854,0.0,16.776,-45.165,146.212,-18.347,-11.887,-19.8,27.99,-0.21027,-0.40332,-0.01935,-0.89032,573,0.924,0.289,0.17,1.16,0.427,-0.244,59.244,-70.774,165.487,-27.273,-13.333,0.88,27.99,0.19324,-0.5513,-0.3349,-0.7392,569
144,0.854,0.108,0.538,0.305,-0.183,0.244,11.459,-57.14,147.87,-20.887,-8.6,-15.98,22.23,-0.19312,-0.4819,0.04617,-0.85336,584,0.876,0.197,0.438,0.244,-0.183,-0.122,23.681,-61.469,-127.37,-25.847,-9.927,7.787,23.78,-0.46738,0.3699,0.38013,0.70718,582,0.702,0.208,0.671,0.0,-1.282,-0.366,16.787,-45.181,146.162,-18.347,-11.887,-19.8,27.99,-0.21027,-0.40332,-0.01935,-0.89032,578,0.924,0.283,0.173,0.977,0.244,-0.122,59.26,-70.763,165.564,-27.273,-13.333,0.88,27.99,0.19324,-0.5513,-0.3349,-0.7392,576
145,0.854,0.111,0.542,0.427,0.183,0.183,11.464,-57.14,147.854,-20.887,-8.6,-15.98,22.23,-0.19312,-0.4819,0.04617,-0.85336,585,0.876,0.197,0.438,0.305,-0.183,0.0,23.698,-61.469,-127.381,-25.847,-9.927,7.787,23.78,-0.46738,0.3699,0.38013,0.70718,583,0.701,0.211,0.67,-0.122,-0.61,-0.061,16.793,-45.198,146.107,-18.347,-11.887,-19.8,27.99,-0.21027,-0.40332,-0.01935,-0.89032,579,0.928,0.281,0.17,0.671,0.0,-0.061,59.277,-70.752,165.613,-27.273,-13.333,0.88,27.99,0.19324,-0.5513,-0.3349,-0.7392,577
146,0.854,0.113,0.544,0.305,0.244,0.122,11.464,-57.14,147.838,-20.887,-8.6,-15.98,22.23,-0.19608,-0.48151,0.04745,-0.85284,594,0.878,0.193,0.438,0.366,-0.183,0.366,23.698,-61.474,-127.386,-25.847,-9.927,7.787,23.78,-0.46738,0.3699,0.38013,0.70718,588,0.703,0.207,0.67,0.0,0.366,0.366,16.793,-45.198,146.107,-18.347,-11.887,-19.8,27.99,-0.21027,-0.40332,-0.01935,-0.89032,586,0.93,0.282,0.164,0.488,-0.366,-0.122,59.293,-70.746,165.652,-27.273,-13.333,0.88,27.99,0.19324,-0.5513,-0.3349,-0.7392,580
147,0.853,0.111,0.543,0.122,0.122,0.183,11.464,-57.134,147.816,-20.887,-8.6,-15.98,22.23,-0.19608,-0.48151,0.04745,-0.85284,595,0.881,0.19,0.437,0.488,-0.305,0.366,23.703,-61.479,-127.392,-25.847,-9.927,7.787,23.78,-0.46738,0.3699,0.38013,0.70718,589,0.705,0.199,0.673,0.183,0.793,0.549,16.787,-45.192,146.14,-18.347,-11.887,-19.8,27.99,-0.21027,-0.40332,-0.01935,-0.89032,587,0.931,0.287,0.167,0.732,-0.122,-0.244,59.326,-70.746,165.657,-27.273,-13.333,0.88,27.99,0.19324,-0.5513,-0.3349,-0.7392,581
148,0.854,0.107,0.539,0.061,-0.305,0.305,11.464,-57.134,147.799,-20.887,-8.6,-15.98,22.23,-0.19608,-0.48151,0.04745,-0.85284,602,0.882,0.192,0.438,0.549,-0.305,0.183,23.714,-61.49,-127.408,-25.847,-9.927,7.787,23.78,-0.46738,0.3699,0.38013,0.70718,592,0.706,0.2,0.674,0.427,0.183,0.244,16.782,-45.181,146.162,-18.347,-11.887,-19.8,27.99,-0.21027,-0.40332,-0.01935,-0.89032,590,0.931,0.29,0.172,0.916,0.305,-0.183,59.348,-70.735,165.652,-27.273,-13.333,0.88,27.99,0.19324,-0.5513,-0.3349,-0.7392,596
149,0.854,0.107,0.54,0.427,-0.366,0.427,11.459,-57.145,147.783,-20.887,-8.6,-15.98,22.23,-0.19608,-0.48151,0.04745,-0.85284,603,0.884,0.198,0.44,0.854,-0.366,0.0,23.73,-61.496,-127.43,-25.847,-9.927,7.787,23.78,-0.46738,0.3699,0.38013,0.70718,593,0.708,0.208,0.676,0.61,-0.122,0.061,16.793,-45.181,146.168,-18.347,-11.887,-19.8,27.99,-0.21027,-0.40332,-0.01935,-0.89032,591,0.93,0.286,0.175,0.854,0.366,0.0,59.359,-70.73,165.646,-27.273,-13.333,0.88,27.99,0.19324,-0.5513,-0.3349,-0.7392,597
150,0.854,0.109,0.54,0.549,0.0,0.427,11.459,-57.151,147.772,-20.887,-8.6,-15.98,22.23,-0.19608,-0.48151,0.04745,-0.85284,606,0.881,0.201,0.442,0.793,-0.122,0.122,23.752,-61.496,-127.447,-25.847,-9.927,7.787,23.78,-0.46738,0.3699,0.38013,0.70718,604,0.705,0.213,0.676,0.549,0.0,0.183,16.804,-45.181,146.157,-18.347,-11.887,-19.8,27.99,-0.21027,-0.40332,-0.01935,-0.89032,598,0.929,0.282,0.169,0.854,-0.061,0.244,59.359,-70.719,165.657,-27.053,-13.167,-0.4,27.99,0.19324,-0.5513,-0.3349,-0.7392,600
151,0.855,0.114,0.542,0.488,0.0,0.366,11.459,-57.151,147.761,-20.887,-8.6,-15.98,22.23,-0.19608,-0.48151,0.04745,-0.85284,607,0.881,0.197,0.439,0.549,0.0,0.488,23.752,-61.501,-127.441,-25.847,-9.927,7.787,23.78,-0.46738,0.3699,0.38013,0.70718,605,0.707,0.21,0.675,0.427,0.305,0.488,16.809,-45.176,146.179,-18.347,-11.887,-19.8,27.99,-0.21027,-0.40332,-0.01935,-0.89032,599,0.929,0.281,0.163,0.732,-0.671,0.305,59.376,-70.724,165.696,-27.053,-13.167,-0.4,27.99,0.19324,-0.5513,-0.3349,-0.7392,601
152,0.857,0.113,0.54,0.244,0.0,0.244,11.459,-57.151,147.75,-20.887,-8.6,-15.98,22.23,-0.19608,-0.48151,0.04745,-0.85284,614,0.883,0.191,0.433,0.488,-0.244,0.671,23.747,-61.507,-127.43,-26.02,-9.76,8.007,23.78,-0.46738,0.3699,0.38013,0.70718,610,0.708,0.201,0.669,0.183,0.305,0.549,16.809,-45.17,146.201,-18.347,-11.887,-19.8,27.99,-0.21027,-0.40332,-0.01935,-0.89032,612,0.93,0.287,0.164,1.16,-0.244,0.305,59.414,-70.73,165.734,-27.053,-13.167,-0.4,27.99,0.19324,-0.5513,-0.3349,-0.7392,608
153,0.859,0.111,0.538,0.0,-0.183,0.122,11.453,-57.156,147.733,-20.887,-8.6,-15.98,22.23,-0.19608,-0.48151,0.04745,-0.85284,615,0.885,0.192,0.43,0.366,-0.244,0.366,23.747,-61.512,-127.43,-26.02,-9.76,8.007,23.78,-0.46738,0.3699,0.38013,0.70718,611,0.71,0.198,0.667,0.488,-0.244,0.0,16.809,-45.17,146.157,-18.347,-11.887,-19.8,27.99,-0.21027,-0.40332,-0.01935,-0.89032,613,0.931,0.288,0.168,0.977,0.122,0.183,59.436,-70.735,165.745,-27.053,-13.167,-0.4,27.99,0.19324,-0.5513,-0.3349,-0.7392,609
154,0.858,0.109,0.537,0.0,-0.183,0.0,11.459,-57.156,147.711,-20.887,-8.6,-15.98,22.23,-0.19608,-0.48151,0.04745,-0.85284,622,0.883,0.195,0.431,0.244,-0.183,0.183,23.752,-61.518,-127.43,-26.02,-9.76,8.007,23.78,-0.46738,0.3699,0.38013,0.70718,620,0.708,0.208,0.666,0.427,0.0,0.0,16.82,-45.176,146.08,-17.853,-11.16,-20.7,27.99,-0.21027,-0.40332,-0.01935,-0.89032,616,0.932,0.286,0.167,0.549,0.305,0.122,59.442,-70.73,165.74,-27.053,-13.167,-0.4,27.99,0.19687,-0.54892,-0.33875,-0.73828,618
155,0.856,0.109,0.538,0.122,0.0,0.061,11.459,-57.162,147.684,-20.887,-8.6,-15.98,22.23,-0.19608,-0.48151,0.04745,-0.85284,623,0.884,0.194,0.435,0.366,-0.061,0.244,23.758,-61.523,-127.436,-26.02,-9.76,8.007,23.78,-0.46738,0.3699,0.38013,0.70718,621,0.708,0.207,0.671,0.244,0.732,0.61,16.82,-45.17,146.041,-17.853,-11.16,-20.7,27.99,-0.21027,-0.40332,-0.01935,-0.89032,617,0.933,0.285,0.165,0.183,0.183,0.122,59.436,-70.724,165.729,-27.053,-13.167,-0.4,27.99,0.19687,-0.54892,-0.33875,-0.73828,619
156,0.854,0.11,0.541,0.122,0.305,0.122,11.459,-57.162,147.667,-20.887,-8.6,-15.98,22.23,-0.19608,-0.48151,0.04745,-0.85284,634,0.882,0.194,0.436,0.305,-0.122,0.366,23.758,-61.529,-127.43,-26.02,-9.76,8.007,23.78,-0.46671,0.37045,0.38022,0.70731,628,0.707,0.205,0.673,0.122,1.099,0.488,16.815,-45.154,146.019,-17.853,-11.16,-20.7,27.99,-0.21027,-0.40332,-0.01935,-0.89032,624,0.932,0.284,0.162,0.122,-0.122,0.061,59.436,-70.724,165.701,-27.053,-13.167,-0.4,27.99,0.19687,-0.54892,-0.33875,-0.73828,626
157,0.853,0.109,0.541,0.0,0.427,0.061,11.459,-57.151,147.651,-20.887,-8.6,-15.98,22.23,-0.19608,-0.48151,0.04745,-0.85284,635,0.881,0.193,0.437,0.061,0.0,0.366,23.752,-61.534,-127.414,-26.02,-9.76,8.007,23.78,-0.46671,0.37045,0.38022,0.70731,629,0.705,0.203,0.675,0.061,0.671,0.183,16.804,-45.143,146.003,-17.853,-11.16,-20.7,27.99,-0.21027,-0.40332,-0.01935,-0.89032,625,0.931,0.285,0.16,0.183,-0.305,0.0,59.453,-70.724,165.641,-27.053,-13.167,-0.4,27.99,0.19687,-0.54892,-0.33875,-0.73828,627
158,0.854,0.108,0.542,-0.183,0.366,0.122,11.453,-57.145,147.634,-20.807,-8.46,-16.147,22.23,-0.19608,-0.48151,0.04745,-0.85284,644,0.884,0.193,0.434,-0.061,0.0,0.244,23.747,-61.54,-127.403,-26.02,-9.76,8.007,23.78,-0.46671,0.37045,0.38022,0.70731,636,0.708,0.203,0.673,-0.061,0.0,0.122,16.804,-45.137,146.025,-17.853,-11.16,-20.7,27.99,-0.21335,-0.40253,-0.01807,-0.88995,630,0.93,0.287,0.165,0.305,0.122,0.061,59.469,-70.724,165.641,-27.053,-13.167,-0.4,27.99,0.19687,-0.54892,-0.33875,-0.73828,632
159,0.855,0.108,0.541,0.0,0.183,0.122,11.442,-57.14,147.618,-20.807,-8.46,-16.147,22.23,-0.19608,-0.48151,0.04745,-0.85284,645,0.885,0.194,0.432,0.0,-0.061,0.061,23.747,-61.54,-127.403,-26.02,-9.76,8.007,23.78,-0.46671,0.37045,0.38022,0.70731,637,0.709,0.204,0.668,0.0,-0.366,0.0,16.804,-45.143,146.052,-17.853,-11.16,-20.7,27.99,-0.21335,-0.40253,-0.01807,-0.88995,631,0.93,0.285,0.167,0.244,0.488,0.183,59.464,-70.719,165.701,-27.053,-13.167,-0.4,27.99,0.19687,-0.54892,-0.33875,-0.73828,633
160,0.854,0.109,0.541,0.183,0.244,0.061,11.442,-57.14,147.601,-20.807,-8.46,-16.147,22.23,-0.198,-0.48135,0.04865,-0.85242,646,0.884,0.194,0.433,-0.061,0.0,0.0,23.747,-61.54,-127.397,-26.02,-9.76,8.007,23.78,-0.46671,0.37045,0.38022,0.70731,642,0.708,0.205,0.669,-0.061,-0.061,-0.122,16.804,-45.148,146.063,-17.853,-11.16,-20.7,27.99,-0.21335,-0.40253,-0.01807,-0.88995,638,0.931,0.283,0.17,0.183,0.732,0.305,59.431,-70.714,165.778,-27.053,-13.167,-0.4,27.99,0.19687,-0.54892,-0.33875,-0.73828,640
161,0.853,0.113,0.54,0.183,0.061,0.0,11.448,-57.134,147.579,-20.807,-8.46,-16.147,22.23,-0.198,-0.48135,0.04865,-0.85242,647,0.882,0.194,0.437,-0.122,0.183,0.061,23.747,-61.54,-127.403,-26.02,-9.76,8.007,23.78,-0.46671,0.37045,0.38022,0.70731,643,0.706,0.206,0.672,-0.122,0.488,0.0,16.804,-45.143,146.063,-17.853,-11.16,-20.7,27.99,-0.21335,-0.40253,-0.01807,-0.88995,639,0.93,0.282,0.169,0.122,0.549,0.244,59.398,-70.708,165.844,-27.053,-13.167,-0.4,27.99,0.19687,-0.54892,-0.33875,-0.73828,641
162,0.853,0.112,0.542,0.0,0.0,0.061,11.448,-57.134,147.563,-20.807,-8.46,-16.147,22.23,-0.198,-0.48135,0.04865,-0.85242,656,0.881,0.192,0.438,-0.244,0.305,0.244,23.736,-61.54,-127.408,-26.02,-9.76,8.007,23.78,-0.46671,0.37045,0.38022,0.70731,654,0.704,0.205,0.674,-0.366,0.732,0.122,16.798,-45.132,146.107,-17.853,-11.16,-20.7,27.99,-0.21335,-0.40253,-0.01807,-0.88995,648,0.929,0.285,0.168,0.061,0.305,0.183,59.376,-70.708,165.916,-27.053,-13.167,-0.4,27.99,0.19687,-0.54892,-0.33875,-0.73828,650
163,0.852,0.11,0.541,-0.244,-0.061,0.0,11.448,-57.14,147.541,-20.807,-8.46,-16.147,22.23,-0.198,-0.48135,0.04865,-0.85242,657,0.879,0.192,0.438,-0.183,0.305,0.244,23.719,-61.534,-127.408,-26.02,-9.76,8.007,23.78,-0.46671,0.37045,0.38022,0.70731,655,0.702,0.201,0.675,-0.427,0.671,0.183,16.787,-45.121,146.195,-17.853,-11.16,-20.7,27.99,-0.21335,-0.40253,-0.01807,-0.88995,649,0.928,0.287,0.169,0.061,0.0,0.122,59.37,-70.703,165.954,-27.053,-13.167,-0.4,27.99,0.19687,-0.54892,-0.33875,-0.73828,651
164,0.854,0.106,0.54,-0.183,-0.061,0.0,11.442,-57.14,147.519,-20.807,-8.46,-16.147,22.23,-0.198,-0.48135,0.04865,-0.85242,666,0.876,0.191,0.438,-0.183,0.183,0.0,23.714,-61.534,-127.408,-26.02,-9.76,8.007,23.78,-0.46671,0.37045,0.38022,0.70731,658,0.7,0.2,0.675,-0.244,0.549,0.0,16.776,-45.11,146.272,-17.853,-11.16,-20.7,27.99,-0.21335,-0.40253,-0.01807,-0.88995,652,0.927,0.286,0.168,0.061,0.0,0.061,59.37,-70.703,165.998,-27.053,-13.167,-0.4,27.99,0.19687,-0.54892,-0.33875,-0.73828,660
165,0.854,0.109,0.539,0.122,0.0,0.061,11.442,-57.14,147.497,-20.807,-8.46,-16.147,22.23,-0.198,-0.48135,0.04865,-0.85242,667,0.877,0.191,0.438,0.0,0.122,-0.122,23.719,-61.529,-127.419,-26.02,-9.76,8.007,23.78,-0.46671,0.37045,0.38022,0.70731,659,0.7,0.201,0.674,0.0,0.244,-0.183,16.771,-45.099,146.343,-17.853,-11.16,-20.7,27.99,-0.21335,-0.40253,-0.01807,-0.88995,653,0.928,0.283,0.168,0.061,0.061,0.122,59.37,-70.697,166.042,-27.053,-13.167,-0.4,27.99,0.19687,-0.54892,-0.33875,-0.73828,661
166,0.855,0.11,0.543,0.305,0.305,0.122,11.442,-57.14,147.48,-20.807,-8.46,-16.147,22.23,-0.198,-0.48135,0.04865,-0.85242,676,0.88,0.193,0.438,0.122,0.061,-0.061,23.725,-61.529,-127.436,-26.02,-9.76,8.007,23.78,-0.46671,0.37045,0.38022,0.70731,664,0.703,0.206,0.675,0.183,-0.061,-0.244,16.776,-45.099,146.382,-17.853,-11.16,-20.7,27.99,-0.21335,-0.40253,-0.01807,-0.88995,662,0.929,0.281,0.167,0.0,0.122,0.122,59.365,-70.697,166.086,-27.053,-13.167,-0.4,27.99,0.19687,-0.54892,-0.33875,-0.73828,668
167,0.856,0.11,0.54,0.0,0.061,0.061,11.442,-57.134,147.469,-20.807,-8.46,-16.147,22.23,-0.198,-0.48135,0.04865,-0.85242,677,0.882,0.192,0.437,0.061,0.061,0.122,23.719,-61.529,-127.447,-26.02,-9.76,8.007,23.78,-0.46671,0.37045,0.38022,0.70731,665,0.705,0.205,0.674,0.122,-0.183,0.0,16.782,-45.099,146.453,-17.853,-11.16,-20.7,27.99,-0.21335,-0.40253,-0.01807,-0.88995,663,0.931,0.284,0.165,0.061,0.0,0.061,59.359,-70.697,166.141,-27.053,-13.167,-0.4,27.99,0.19687,-0.54892,-0.33875,-0.73828,669
168,0.855,0.111,0.541,-0.122,0.0,0.0,11.442,-57.134,147.448,-20.807,-8.46,-16.147,22.23,-0.198,-0.48135,0.04865,-0.85242,678,0.885,0.193,0.437,0.0,0.0,0.183,23.714,-61.529,-127.452,-26.02,-9.76,8.007,23.78,-0.46671,0.37045,0.38022,0.70731,674,0.707,0.203,0.674,0.122,-0.061,0.244,16.782,-45.104,146.508,-17.853,-11.16,-20.7,27.99,-0.21335,-0.40253,-0.01807,-0.88995,670,0.932,0.286,0.169,0.244,0.061,0.0,59.359,-70.692,166.212,-27.147,-13.147,0.887,27.99,0.19687,-0.54892,-0.33875,-0.73828,672
169,0.854,0.109,0.539,-0.122,0.061,-0.061,11.442,-57.134,147.426,-20.807,-8.46,-16.147,22.23,-0.198,-0.48135,0.04865,-0.85242,679,0.882,0.193,0.438,0.0,0.0,0.122,23.714,-61.534,-127.458,-26.02,-9.76,8.007,23.78,-0.46671,0.37045,0.38022,0.70731,675,0.705,0.204,0.675,0.0,0.0,0.183,16.782,-45.104,146.536,-17.853,-11.16,-20.7,27.99,-0.21335,-0.40253,-0.01807,-0.88995,671,0.931,0.287,0.169,0.244,0.061,0.061,59.365,-70.692,166.278,-27.147,-13.147,0.887,27.99,0.19687,-0.54892,-0.33875,-0.73828,673
170,0.853,0.108,0.541,-0.061,0.183,0.0,11.437,-57.129,147.409,-20.807,-8.46,-16.147,22.23,-0.198,-0.48135,0.04865,-0.85242,686,0.881,0.194,0.437,-0.061,0.061,0.0,23.714,-61.529,-127.463,-26.02,-9.76,8.007,23.78,-0.46671,0.37045,0.38022,0.70731,684,0.705,0.205,0.674,-0.061,0.0,0.061,16.782,-45.104,146.558,-17.853,-11.16,-20.7,27.99,-0.21335,-0.40253,-0.01807,-0.88995,680,0.929,0.285,0.166,0.122,0.0,0.061,59.365,-70.686,166.333,-27.147,-13.147,0.887,27.99,0.19687,-0.54892,-0.33875,-0.73828,682
171,0.854,0.107,0.541,0.122,-0.061,0.0,11.442,-57.129,147.387,-20.807,-8.46,-16.147,22.23,-0.198,-0.48135,0.04865,-0.85242,687,0.882,0.194,0.436,-0.061,0.0,0.0,23.714,-61.529,-127.463,-26.02,-9.76,8.007,23.78,-0.46671,0.37045,0.38022,0.70731,685,0.707,0.205,0.672,-0.061,0.0,0.0,16.776,-45.099,146.569,-17.853,-11.16,-20.7,27.99,-0.21335,-0.40253,-0.01807,-0.88995,681,0.93,0.283,0.165,-0.061,-0.183,0.061,59.37,-70.686,166.382,-27.147,-13.147,0.887,27.99,0.19687,-0.54892,-0.33875,-0.73828,683
172,0.854,0.108,0.54,0.305,-0.061,0.0,11.442,-57.129,147.371,-20.807,-8.46,-16.147,22.23,-0.198,-0.48135,0.04865,-0.85242,694,0.882,0.191,0.435,-0.061,0.0,0.122,23.708,-61.534,-127.469,-26.327,-9.793,8.367,23.78,-0.46671,0.37045,0.38022,0.70731,690,0.705,0.203,0.672,-0.061,0.183,0.0,16.776,-45.099,146.569,-18.133,-11.247,-20.473,27.99,-0.21335,-0.40253,-0.01807,-0.88995,688,0.929,0.282,0.17,-0.122,-0.061,0.061,59.376,-70.686,166.421,-27.147,-13.147,0.887,27.99,0.20041,-0.54691,-0.34146,-0.73758,692
173,0.854,0.111,0.54,0.122,0.0,0.0,11.448,-57.134,147.349,-20.807,-8.46,-16.147,22.23,-0.198,-0.48135,0.04865,-0.85242,695,0.881,0.188,0.435,0.0,0.0,0.244,23.703,-61.534,-127.463,-26.327,-9.793,8.367,23.78,-0.46671,0.37045,0.38022,0.70731,691,0.706,0.201,0.672,-0.244,0.183,0.305,16.771,-45.093,146.591,-18.133,-11.247,-20.473,27.99,-0.21335,-0.40253,-0.01807,-0.88995,689,0.929,0.283,0.168,0.244,0.0,-0.061,59.381,-70.681,166.454,-27.147,-13.147,0.887,27.99,0.20041,-0.54691,-0.34146,-0.73758,693
174,0.857,0.112,0.54,0.0,0.183,0.0,11.448,-57.129,147.332,-20.753,-8.913,-15.68,22.23,-0.198,-0.48135,0.04865,-0.85242,704,0.88,0.19,0.433,0.122,0.0,0.244,23.698,-61.54,-127.463,-26.327,-9.793,8.367,23.78,-0.46631,0.37088,0.37976,0.70758,700,0.704,0.199,0.668,-0.122,0.183,0.122,16.76,-45.093,146.596,-18.133,-11.247,-20.473,27.99,-0.20901,-0.40201,-0.0199,-0.89117,696,0.928,0.284,0.167,0.366,0.0,-0.061,59.387,-70.681,166.454,-27.147,-13.147,0.887,27.99,0.20041,-0.54691,-0.34146,-0.73758,698
175,0.859,0.109,0.543,-0.061,0.244,0.0,11.448,-57.129,147.316,-20.753,-8.913,-15.68,22.23,-0.198,-0.48135,0.04865,-0.85242,705,0.882,0.191,0.434,0.183,0.183,0.0,23.698,-61.534,-127.474,-26.327,-9.793,8.367,23.78,-0.46631,0.37088,0.37976,0.70758,701,0.707,0.201,0.67,-0.061,0.305,-0.061,16.76,-45.088,146.591,-18.133,-11.247,-20.473,27.99,-0.20901,-0.40201,-0.0199,-0.89117,697,0.929,0.287,0.164,0.244,0.183,-0.061,59.392,-70.675,166.47,-27.147,-13.147,0.887,27.99,0.20041,-0.54691,-0.34146,-0.73758,699
176,0.856,0.108,0.541,0.122,0.0,0.0,11.448,-57.123,147.299,-20.753,-8.913,-15.68,22.23,-0.2002,-0.48114,0.04984,-0.85196,716,0.886,0.196,0.435,0.0,0.061,-0.183,23.703,-61.534,-127.491,-26.327,-9.793,8.367,23.78,-0.46631,0.37088,0.37976,0.70758,708,0.708,0.204,0.673,0.061,0.305,-0.549,16.765,-45.082,146.563,-18.133,-11.247,-20.473,27.99,-0.20901,-0.40201,-0.0199,-0.89117,706,0.935,0.287,0.166,0.0,0.549,0.0,59.37,-70.664,166.509,-27.147,-13.147,0.887,27.99,0.20041,-0.54691,-0.34146,-0.73758,702
177,0.852,0.11,0.54,0.183,0.0,0.0,11.453,-57.123,147.283,-20.753,-8.913,-15.68,22.23,-0.2002,-0.48114,0.04984,-0.85196,717,0.885,0.195,0.44,-0.244,0.061,-0.305,23.708,-61.529,-127.507,-26.327,-9.793,8.367,23.78,-0.46631,0.37088,0.37976,0.70758,709,0.706,0.208,0.677,0.0,0.488,-0.793,16.776,-45.066,146.53,-18.133,-11.247,-20.473,27.99,-0.20901,-0.40201,-0.0199,-0.89117,707,0.934,0.284,0.171,0.0,0.305,0.0,59.359,-70.659,166.536,-27.147,-13.147,0.887,27.99,0.20041,-0.54691,-0.34146,-0.73758,703
178,0.851,0.11,0.538,0.122,0.183,0.0,11.453,-57.123,147.261,-20.753,-8.913,-15.68,22.23,-0.2002,-0.48114,0.04984,-0.85196,718,0.879,0.192,0.44,-0.183,0.183,0.0,23.708,-61.529,-127.507,-26.327,-9.793,8.367,23.78,-0.46631,0.37088,0.37976,0.70758,712,0.702,0.207,0.678,-0.122,0.305,-0.183,16.782,-45.06,146.475,-18.133,-11.247,-20.473,27.99,-0.20901,-0.40201,-0.0199,-0.89117,710,0.929,0.283,0.169,0.061,0.183,0.0,59.348,-70.653,166.558,-27.147,-13.147,0.887,27.99,0.20041,-0.54691,-0.34146,-0.73758,714
179,0.853,0.112,0.539,0.061,0.305,0.0,11.459,-57.123,147.25,-20.753,-8.913,-15.68,22.23,-0.2002,-0.48114,0.04984,-0.85196,719,0.877,0.191,0.44,0.122,0.183,0.183,23.703,-61.529,-127.502,-26.327,-9.793,8.367,23.78,-0.46631,0.37088,0.37976,0.70758,713,0.699,0.204,0.678,0.0,-0.061,0.061,16.782,-45.06,146.415,-18.133,-11.247,-20.473,27.99,-0.20901,-0.40201,-0.0199,-0.89117,711,0.926,0.284,0.164,0.305,0.0,-0.061,59.354,-70.653,166.586,-27.147,-13.147,0.887,27.99,0.20041,-0.54691,-0.34146,-0.73758,715
180,0.854,0.112,0.541,-0.183,0.244,0.0,11.453,-57.118,147.233,-20.753,-8.913,-15.68,22.23,-0.2002,-0.48114,0.04984,-0.85196,726,0.877,0.193,0.438,0.244,-0.183,0.122,23.703,-61.529,-127.513,-26.327,-9.793,8.367,23.78,-0.46631,0.37088,0.37976,0.70758,722,0.7,0.204,0.677,0.061,-0.183,0.244,16.782,-45.06,146.371,-18.133,-11.247,-20.473,27.99,-0.20901,-0.40201,-0.0199,-0.89117,720,0.927,0.285,0.165,0.366,-0.122,-0.122,59.37,-70.648,166.597,-27.147,-13.147,0.887,27.99,0.20041,-0.54691,-0.34146,-0.73758,724
181,0.853,0.11,0.541,-0.244,0.0,0.0,11.448,-57.118,147.217,-20.753,-8.913,-15.68,22.23,-0.2002,-0.48114,0.04984,-0.85196,727,0.88,0.194,0.436,0.122,-0.427,0.0,23.714,-61.54,-127.529,-26.327,-9.793,8.367,23.78,-0.46631,0.37088,0.37976,0.70758,723,0.703,0.203,0.674,0.427,-0.854,0.061,16.787,-45.077,146.376,-18.133,-11.247,-20.473,27.99,-0.20901,-0.40201,-0.0199,-0.89117,721,0.93,0.287,0.168,0.122,0.061,0.0,59.381,-70.648,166.608,-27.147,-13.147,0.887,27.99,0.20041,-0.54691,-0.34146,-0.73758,725
182,0.853,0.109,0.54,0.0,-0.183,0.0,11.453,-57.118,147.195,-20.753,-8.913,-15.68,22.23,-0.2002,-0.48114,0.04984,-0.85196,738,0.883,0.194,0.436,0.122,-0.549,-0.061,23.73,-61.545,-127.551,-26.327,-9.793,8.367,23.78,-0.46631,0.37088,0.37976,0.70758,732,0.706,0.205,0.671,0.671,-0.977,-0.183,16.809,-45.088,146.343,-18.133,-11.247,-20.473,27.99,-0.20901,-0.40201,-0.0199,-0.89117,728,0.929,0.287,0.17,-0.183,0.305,0.0,59.365,-70.642,166.657,-27.147,-13.147,0.887,27.99,0.20041,-0.54691,-0.34146,-0.73758,730
183,0.854,0.109,0.541,0.244,-0.061,0.0,11.459,-57.123,147.178,-20.753,-8.913,-15.68,22.23,-0.2002,-0.48114,0.04984,-0.85196,739,0.882,0.194,0.438,0.061,-0.366,-0.122,23.741,-61.551,-127.579,-26.327,-9.793,8.367,23.78,-0.46631,0.37088,0.37976,0.70758,733,0.707,0.205,0.672,0.366,-0.671,-0.366,16.831,-45.099,146.283,-18.133,-11.247,-20.473,27.99,-0.20901,-0.40201,-0.0199,-0.89117,729,0.928,0.285,0.17,-0.183,0.061,0.0,59.359,-70.637,166.685,-27.147,-13.147,0.887,27.99,0.20041,-0.54691,-0.34146,-0.73758,731
184,0.854,0.11,0.544,0.122,0.122,0.0,11.459,-57.118,147.162,-20.753,-8.913,-15.68,22.23,-0.2002,-0.48114,0.04984,-0.85196,744,0.882,0.193,0.437,0.0,-0.244,0.0,23.747,-61.556,-127.601,-26.327,-9.793,8.367,23.78,-0.46631,0.37088,0.37976,0.70758,736,0.707,0.207,0.671,0.122,0.0,-0.488,16.842,-45.099,146.25,-18.133,-11.247,-20.473,27.99,-0.20901,-0.40201,-0.0199,-0.89117,734,0.929,0.283,0.168,0.122,-0.305,0.0,59.37,-70.637,166.679,-27.147,-13.147,0.887,27.99,0.20041,-0.54691,-0.34146,-0.73758,740
185,0.855,0.11,0.542,0.061,0.061,0.0,11.459,-57.118,147.151,-20.753,-8.913,-15.68,22.23,-0.2002,-0.48114,0.04984,-0.85196,745,0.884,0.191,0.434,0.183,-0.122,0.0,23.752,-61.556,-127.623,-26.327,-9.793,8.367,23.78,-0.46631,0.37088,0.37976,0.70758,737,0.708,0.204,0.671,0.183,0.366,-0.061,16.848,-45.093,146.217,-18.133,-11.247,-20.473,27.99,-0.20901,-0.40201,-0.0199,-0.89117,735,0.932,0.284,0.165,0.244,-0.427,0.0,59.398,-70.637,166.674,-27.147,-13.147,0.887,27.99,0.20041,-0.54691,-0.34146,-0.73758,741
186,0.854,0.107,0.54,0.0,-0.061,0.0,11.464,-57.118,147.134,-20.753,-8.913,-15.68,22.23,-0.2002,-0.48114,0.04984,-0.85196,756,0.884,0.193,0.433,0.122,-0.122,0.0,23.758,-61.562,-127.639,-26.327,-9.793,8.367,23.78,-0.46631,0.37088,0.37976,0.70758,748,0.707,0.205,0.671,0.0,0.244,0.244,16.848,-45.088,146.217,-18.133,-11.247,-20.473,27.99,-0.20901,-0.40201,-0.0199,-0.89117,746,0.931,0.286,0.17,0.244,0.0,0.0,59.409,-70.637,166.696,-27.36,-13.26,0.1,27.99,0.20041,-0.54691,-0.34146,-0.73758,742
187,0.855,0.109,0.538,0.061,0.0,0.0,11.464,-57.118,147.118,-20.753,-8.913,-15.68,22.23,-0.2002,-0.48114,0.04984,-0.85196,757,0.883,0.193,0.435,0.183,0.0,0.0,23.763,-61.562,-127.656,-26.327,-9.793,8.367,23.78,-0.46631,0.37088,0.37976,0.70758,749,0.705,0.204,0.673,-0.061,0.061,0.061,16.842,-45.088,146.179,-18.133,-11.247,-20.473,27.99,-0.20901,-0.40201,-0.0199,-0.89117,747,0.93,0.285,0.17,0.244,0.061,0.0,59.409,-70.631,166.707,-27.36,-13.26,0.1,27.99,0.20041,-0.54691,-0.34146,-0.73758,743
188,0.855,0.109,0.538,0.183,0.061,0.0,11.464,-57.118,147.101,-20.78,-8.72,-16.06,22.23,-0.2002,-0.48114,0.04984,-0.85196,758,0.881,0.192,0.435,0.122,0.0,0.0,23.769,-61.562,-127.672,-25.713,-9.993,7.913,23.78,-0.46631,0.37088,0.37976,0.70758,754,0.706,0.204,0.673,-0.061,0.0,0.0,16.842,-45.088,146.146,-17.86,-11.52,-20.567,27.99,-0.20901,-0.40201,-0.0199,-0.89117,750,0.929,0.283,0.167,0.061,0.0,0.0,59.414,-70.631,166.718,-27.36,-13.26,0.1,27.99,0.20041,-0.54691,-0.34146,-0.73758,752
189,0.856,0.111,0.54,0.183,0.366,0.0,11.47,-57.112,147.085,-20.78,-8.72,-16.06,22.23,-0.2002,-0.48114,0.04984,-0.85196,759,0.883,0.192,0.435,0.122,-0.061,0.0,23.774,-61.562,-127.689,-25.713,-9.993,7.913,23.78,-0.46631,0.37088,0.37976,0.70758,755,0.706,0.203,0.672,-0.061,0.061,-0.183,16.842,-45.082,146.113,-17.86,-11.52,-20.567,27.99,-0.20901,-0.40201,-0.0199,-0.89117,751,0.93,0.284,0.164,0.0,0.122,0.0,59.409,-70.626,166.718,-27.36,-13.26,0.1,27.99,0.20041,-0.54691,-0.34146,-0.73758,753
190,0.855,0.112,0.543,-0.061,0.366,0.0,11.464,-57.107,147.074,-20.78,-8.72,-16.06,22.23,-0.2002,-0.48114,0.04984,-0.85196,766,0.882,0.193,0.435,0.0,0.0,-0.061,23.774,-61.562,-127.711,-25.713,-9.993,7.913,23.78,-0.46631,0.37088,0.37976,0.70758,762,0.706,0.207,0.673,0.122,0.061,-0.244,16.848,-45.082,146.08,-17.86,-11.52,-20.567,27.99,-0.20901,-0.40201,-0.0199,-0.89117,760,0.931,0.282,0.163,0.0,0.122,0.0,59.403,-70.626,166.74,-27.36,-13.26,0.1,27.99,0.20258,-0.54544,-0.34357,-0.73709,768
191,0.855,0.111,0.541,-0.427,0.244,0.0,11.459,-57.101,147.063,-20.78,-8.72,-16.06,22.23,-0.2002,-0.48114,0.04984,-0.85196,767,0.883,0.194,0.437,0.0,0.0,0.122,23.774,-61.567,-127.722,-25.713,-9.993,7.913,23.78,-0.46631,0.37088,0.37976,0.70758,763,0.707,0.208,0.672,0.0,0.244,0.244,16.848,-45.082,146.036,-17.86,-11.52,-20.567,27.99,-0.20901,-0.40201,-0.0199,-0.89117,761,0.932,0.286,0.166,-0.183,0.061,0.0,59.403,-70.62,166.778,-27.36,-13.26,0.1,27.99,0.20258,-0.54544,-0.34357,-0.73709,769
192,0.854,0.109,0.539,-0.488,0.122,-0.305,11.459,-57.101,147.041,-20.78,-8.72,-16.06,22.23,-0.2019,-0.48093,0.05063,-0.85162,774,0.886,0.195,0.435,0.0,0.0,0.244,23.769,-61.567,-127.727,-25.713,-9.993,7.913,23.78,-0.46497,0.37161,0.37949,0.70822,770,0.708,0.206,0.673,-0.244,0.122,0.244,16.842,-45.077,146.008,-17.86,-11.52,-20.567,27.99,-0.21307,-0.40216,-0.01868,-0.89017,764,0.931,0.288,0.169,-0.366,0.244,0.0,59.387,-70.615,166.805,-27.36,-13.26,0.1,27.99,0.20258,-0.54544,-0.34357,-0.73709,772
193,0.853,0.108,0.541,-0.183,0.305,-0.183,11.459,-57.096,147.019,-20.78,-8.72,-16.06,22.23,-0.2019,-0.48093,0.05063,-0.85162,775,0.883,0.196,0.436,-0.305,0.061,0.183,23.758,-61.567,-127.733,-25.713,-9.993,7.913,23.78,-0.46497,0.37161,0.37949,0.70822,771,0.705,0.207,0.673,-0.488,0.244,-0.183,16.831,-45.077,145.997,-17.86,-11.52,-20.567,27.99,-0.21307,-0.40216,-0.01868,-0.89017,765,0.93,0.285,0.169,-0.671,0.183,0.0,59.365,-70.615,166.838,-27.36,-13.26,0.1,27.99,0.20258,-0.54544,-0.34357,-0.73709,773
194,0.852,0.11,0.541,-0.061,0.488,-0.122,11.459,-57.085,147.003,-20.78,-8.72,-16.06,22.23,-0.2019,-0.48093,0.05063,-0.85162,788,0.88,0.192,0.436,-0.671,0.244,0.122,23.741,-61.567,-127.738,-25.713,-9.993,7.913,23.78,-0.46497,0.37161,0.37949,0.70822,780,0.703,0.204,0.674,-0.732,0.305,-0.183,16.826,-45.066,145.975,-17.86,-11.52,-20.567,27.99,-0.21307,-0.40216,-0.01868,-0.89017,776,0.929,0.284,0.167,-0.916,0.061,0.0,59.343,-70.609,166.871,-27.36,-13.26,0.1,27.99,0.20258,-0.54544,-0.34357,-0.73709,778
195,0.852,0.111,0.544,-0.061,0.488,-0.122,11.459,-57.079,146.986,-20.78,-8.72,-16.06,22.23,-0.2019,-0.48093,0.05063,-0.85162,789,0.883,0.189,0.436,-0.427,0.305,0.0,23.73,-61.562,-127.749,-25.713,-9.993,7.913,23.78,-0.46497,0.37161,0.37949,0.70822,781,0.705,0.202,0.673,-0.488,0.244,0.061,16.815,-45.066,145.975,-17.86,-11.52,-20.567,27.99,-0.21307,-0.40216,-0.01868,-0.89017,777,0.928,0.283,0.164,-0.793,0.183,0.0,59.321,-70.604,166.91,-27.36,-13.26,0.1,27.99,0.20258,-0.54544,-0.34357,-0.73709,779
196,0.853,0.111,0.542,-0.183,0.366,-0.061,11.453,-57.068,146.97,-20.78,-8.72,-16.06,22.23,-0.2019,-0.48093,0.05063,-0.85162,796,0.883,0.193,0.435,0.0,0.122,0.061,23.725,-61.562,-127.76,-25.713,-9.993,7.913,23.78,-0.46497,0.37161,0.37949,0.70822,786,0.707,0.204,0.673,-0.244,0.061,0.183,16.804,-45.06,145.981,-17.86,-11.52,-20.567,27.99,-0.21307,-0.40216,-0.01868,-0.89017,782,0.929,0.284,0.168,-0.427,0.122,0.0,59.31,-70.604,166.932,-27.36,-13.26,0.1,27.99,0.20258,-0.54544,-0.34357,-0.73709,784
197,0.853,0.109,0.541,-0.305,0.061,-0.122,11.453,-57.068,146.953,-20.78,-8.72,-16.06,22.23,-0.2019,-0.48093,0.05063,-0.85162,797,0.882,0.196,0.436,-0.183,0.305,0.061,23.719,-61.562,-127.771,-25.713,-9.993,7.913,23.78,-0.46497,0.37161,0.37949,0.70822,787,0.706,0.206,0.672,-0.305,-0.183,0.122,16.798,-45.066,145.975,-17.86,-11.52,-20.567,27.99,-0.21307,-0.40216,-0.01868,-0.89017,783,0.928,0.287,0.172,-0.305,0.183,0.0,59.299,-70.598,166.97,-27.36,-13.26,0.1,27.99,0.20258,-0.54544,-0.34357,-0.73709,785
198,0.854,0.108,0.541,-0.183,0.0,-0.061,11.453,-57.068,146.937,-20.78,-8.72,-16.06,22.23,-0.2019,-0.48093,0.05063,-0.85162,798,0.881,0.194,0.437,-0.427,0.488,0.0,23.714,-61.556,-127.776,-25.713,-9.993,7.913,23.78,-0.46497,0.37161,0.37949,0.70822,792,0.706,0.207,0.671,-0.427,-0.122,-0.122,16.793,-45.066,145.97,-17.86,-11.52,-20.567,27.99,-0.21307,-0.40216,-0.01868,-0.89017,790,0.929,0.286,0.172,-0.305,0.244,0.0,59.282,-70.593,167.014,-27.36,-13.26,0.1,27.99,0.20258,-0.54544,-0.34357,-0.73709,794
199,0.854,0.11,0.541,0.0,-0.061,0.0,11.453,-57.068,146.926,-20.78,-8.72,-16.06,22.23,-0.2019,-0.48093,0.05063,-0.85162,799,0.88,0.191,0.438,-0.488,0.549,0.122,23.698,-61.545,-127.782,-25.713,-9.993,7.913,23.78,-0.46497,0.37161,0.37949,0.70822,793,0.704,0.206,0.672,-0.61,0.366,-0.427,16.787,-45.06,145.964,-17.86,-11.52,-20.567,27.99,-0.21307,-0.40216,-0.01868,-0.89017,791,0.929,0.283,0.17,-0.61,0.183,0.0,59.26,-70.587,167.047,-27.36,-13.26,0.1,27.99,0.20258,-0.54544,-0.34357,-0.73709,795
200,0.852,0.111,0.541,0.0,0.0,0.0,11.453,-57.068,146.909,-20.78,-8.72,-16.06,22.23,-0.2019,-0.48093,0.05063,-0.85162,810,0.877,0.192,0.439,-0.427,0.61,0.244,23.676,-61.54,-127.782,-25.713,-9.993,7.913,23.78,-0.46497,0.37161,0.37949,0.70822,804,0.702,0.204,0.674,-0.732,0.61,-0.061,16.776,-45.049,145.959,-17.86,-11.52,-20.567,27.99,-0.21307,-0.40216,-0.01868,-0.89017,800,0.929,0.283,0.169,-0.549,0.0,0.0,59.249,-70.587,167.075,-27.36,-13.26,0.1,27.99,0.20258,-0.54544,-0.34357,-0.73709,802
201,0.852,0.112,0.542,-0.122,0.122,0.0,11.448,-57.068,146.898,-20.78,-8.72,-16.06,22.23,-0.2019,-0.48093,0.05063,-0.85162,811,0.879,0.19,0.439,-0.061,0.488,0.244,23.654,-61.529,-127.776,-25.713,-9.993,7.913,23.78,-0.46497,0.37161,0.37949,0.70822,805,0.699,0.204,0.678,-0.549,0.427,0.244,16.76,-45.044,145.964,-17.86,-11.52,-20.567,27.99,-0.21307,-0.40216,-0.01868,-0.89017,801,0.928,0.284,0.169,-0.244,-0.183,0.0,59.255,-70.587,167.086,-27.36,-13.26,0.1,27.99,0.20258,-0.54544,-0.34357,-0.73709,803
202,0.853,0.109,0.541,-0.183,0.061,0.0,11.448,-57.068,146.887,-20.78,-8.72,-16.06,22.23,-0.2019,-0.48093,0.05063,-0.85162,814,0.881,0.191,0.44,0.122,0.244,0.0,23.643,-61.523,-127.776,-25.713,-9.993,7.913,23.78,-0.46497,0.37161,0.37949,0.70822,808,0.703,0.202,0.678,-0.244,0.0,0.427,16.749,-45.044,145.975,-17.86,-11.52,-20.567,27.99,-0.21307,-0.40216,-0.01868,-0.89017,806,0.928,0.286,0.166,0.0,-0.244,0.0,59.266,-70.587,167.08,-27.36,-13.26,0.1,27.99,0.20258,-0.54544,-0.34357,-0.73709,812
203,0.853,0.108,0.542,-0.122,0.0,0.0,11.448,-57.063,146.871,-20.78,-8.72,-16.06,22.23,-0.2019,-0.48093,0.05063,-0.85162,815,0.882,0.193,0.439,0.0,0.183,0.0,23.643,-61.518,-127.782,-25.713,-9.993,7.913,23.78,-0.46497,0.37161,0.37949,0.70822,809,0.703,0.202,0.676,0.0,-0.488,0.183,16.743,-45.049,145.975,-17.86,-11.52,-20.567,27.99,-0.21307,-0.40216,-0.01868,-0.89017,807,0.929,0.285,0.169,-0.061,-0.122,0.0,59.271,-70.587,167.075,-27.36,-13.26,0.1,27.99,0.20258,-0.54544,-0.34357,-0.73709,813
204,0.854,0.108,0.542,0.0,-0.183,0.0,11.448,-57.068,146.86,-20.973,-8.773,-16.52,22.23,-0.2019,-0.48093,0.05063,-0.85162,826,0.882,0.193,0.439,-0.122,0.244,0.0,23.643,-61.512,-127.793,-25.713,-9.993,7.913,23.78,-0.46497,0.37161,0.37949,0.70822,816,0.704,0.204,0.674,0.122,-0.671,-0.183,16.754,-45.06,145.964,-17.86,-11.52,-20.567,27.99,-0.21307,-0.40216,-0.01868,-0.89017,818,0.93,0.283,0.17,-0.061,-0.122,0.0,59.277,-70.582,167.064,-27.453,-13.167,-0.08,27.99,0.20258,-0.54544,-0.34357,-0.73709,820
205,0.854,0.11,0.542,0.0,-0.305,-0.061,11.448,-57.074,146.843,-20.973,-8.773,-16.52,22.23,-0.2019,-0.48093,0.05063,-0.85162,827,0.883,0.189,0.438,-0.122,0.366,0.0,23.637,-61.507,-127.804,-25.713,-9.993,7.913,23.78,-0.46497,0.37161,0.37949,0.70822,817,0.705,0.204,0.674,0.244,-0.061,-0.366,16.765,-45.06,145.953,-17.86,-11.52,-20.567,27.99,-0.21307,-0.40216,-0.01868,-0.89017,819,0.93,0.282,0.171,-0.183,-0.244,0.0,59.282,-70.582,167.053,-27.453,-13.167,-0.08,27.99,0.20258,-0.54544,-0.34357,-0.73709,821
206,0.856,0.11,0.541,-0.061,-0.366,-0.183,11.453,-57.079,146.821,-20.973,-8.773,-16.52,22.23,-0.20386,-0.48062,0.0517,-0.85126,830,0.881,0.189,0.438,0.0,0.305,0.0,23.626,-61.501,-127.809,-25.713,-9.993,7.913,23.78,-0.46497,0.37161,0.37949,0.70822,824,0.706,0.203,0.675,0.122,0.366,0.0,16.771,-45.055,145.948,-17.84,-11.567,-21.073,27.99,-0.21307,-0.40216,-0.01868,-0.89017,822,0.931,0.282,0.17,-0.305,-0.427,0.0,59.299,-70.587,167.025,-27.453,-13.167,-0.08,27.99,0.20258,-0.54544,-0.34357,-0.73709,828
207,0.855,0.111,0.541,-0.183,-0.183,-0.244,11.459,-57.085,146.799,-20.973,-8.773,-16.52,22.23,-0.20386,-0.48062,0.0517,-0.85126,831,0.88,0.188,0.438,0.061,0.244,0.0,23.626,-61.496,-127.82,-25.713,-9.993,7.913,23.78,-0.46497,0.37161,0.37949,0.70822,825,0.704,0.2,0.675,0.183,0.366,0.122,16.771,-45.044,145.953,-17.84,-11.567,-21.073,27.99,-0.21307,-0.40216,-0.01868,-0.89017,823,0.93,0.283,0.17,-0.305,-0.488,0.0,59.31,-70.587,167.003,-27.453,-13.167,-0.08,27.99,0.20258,-0.54544,-0.34357,-0.73709,829
208,0.854,0.11,0.54,-0.244,0.122,-0.305,11.464,-57.079,146.777,-20.973,-8.773,-16.52,22.23,-0.20386,-0.48062,0.0517,-0.85126,836,0.88,0.189,0.437,0.0,0.183,0.0,23.621,-61.496,-127.826,-26.547,-9.72,7.973,23.78,-0.46497,0.37161,0.37949,0.70822,838,0.705,0.198,0.674,0.366,0.0,0.061,16.771,-45.044,145.953,-17.84,-11.567,-21.073,27.99,-0.21307,-0.40216,-0.01868,-0.89017,832,0.931,0.283,0.167,-0.244,-0.549,0.0,59.332,-70.593,166.97,-27.453,-13.167,-0.08,27.99,0.2037,-0.54462,-0.34439,-0.737,834
209,0.855,0.11,0.539,-0.183,0.183,-0.244,11.47,-57.079,146.755,-20.973,-8.773,-16.52,22.23,-0.20386,-0.48062,0.0517,-0.85126,837,0.882,0.192,0.436,0.0,0.122,0.0,23.615,-61.49,-127.837,-26.547,-9.72,7.973,23.78,-0.46497,0.37161,0.37949,0.70822,839,0.704,0.201,0.673,0.305,-0.488,-0.183,16.782,-45.049,145.942,-17.84,-11.567,-21.073,27.99,-0.21307,-0.40216,-0.01868,-0.89017,833,0.93,0.284,0.165,-0.427,-0.427,0.0,59.343,-70.598,166.948,-27.453,-13.167,-0.08,27.99,0.2037,-0.54462,-0.34439,-0.737,835
210,0.854,0.109,0.54,0.061,0.0,-0.061,11.47,-57.079,146.739,-20.973,-8.773,-16.52,22.23,-0.20386,-0.48062,0.0517,-0.85126,846,0.882,0.192,0.439,0.061,0.061,0.0,23.615,-61.49,-127.848,-26.547,-9.72,7.973,23.78,-0.46371,0.37216,0.3779,0.70963,842,0.705,0.205,0.673,0.366,-0.671,-0.183,16.798,-45.06,145.931,-17.84,-11.567,-21.073,27.99,-0.21411,-0.40186,-0.01791,-0.89008,844,0.93,0.285,0.167,-0.549,0.061,0.0,59.332,-70.593,166.948,-27.453,-13.167,-0.08,27.99,0.2037,-0.54462,-0.34439,-0.737,840
211,0.855,0.11,0.54,0.061,-0.122,-0.122,11.475,-57.079,146.722,-20.973,-8.773,-16.52,22.23,-0.20386,-0.48062,0.0517,-0.85126,847,0.883,0.191,0.439,0.061,0.061,0.0,23.615,-61.49,-127.859,-26.547,-9.72,7.973,23.78,-0.46371,0.37216,0.3779,0.70963,843,0.706,0.204,0.675,0.488,-0.488,-0.061,16.809,-45.071,145.92,-17.84,-11.567,-21.073,27.99,-0.21411,-0.40186,-0.01791,-0.89008,845,0.93,0.283,0.168,-0.122,-0.183,0.0,59.321,-70.593,166.948,-27.453,-13.167,-0.08,27.99,0.2037,-0.54462,-0.34439,-0.737,841
212,0.853,0.111,0.542,-0.183,-0.061,-0.244,11.481,-57.079,146.7,-20.973,-8.773,-16.52,22.23,-0.20386,-0.48062,0.0517,-0.85126,860,0.883,0.192,0.437,-0.061,0.122,-0.366,23.615,-61.485,-127.875,-26.547,-9.72,7.973,23.78,-0.46371,0.37216,0.3779,0.70963,852,0.707,0.203,0.673,0.61,-0.244,-0.122,16.826,-45.071,145.915,-17.84,-11.567,-21.073,27.99,-0.21411,-0.40186,-0.01791,-0.89008,850,0.93,0.284,0.168,-0.183,-0.427,0.0,59.332,-70.593,166.932,-27.453,-13.167,-0.08,27.99,0.2037,-0.54462,-0.34439,-0.737,848
213,0.854,0.11,0.544,-0.427,0.061,-0.488,11.486,-57.079,146.673,-20.973,-8.773,-16.52,22.23,-0.20386,-0.48062,0.0517,-0.85126,861,0.882,0.193,0.436,-0.305,0.183,-0.427,23.626,-61.479,-127.897,-26.547,-9.72,7.973,23.78,-0.46371,0.37216,0.3779,0.70963,853,0.707,0.203,0.671,0.366,-0.427,-0.244,16.837,-45.077,145.904,-17.84,-11.567,-21.073,27.99,-0.21411,-0.40186,-0.01791,-0.89008,851,0.93,0.284,0.167,-0.732,-0.366,0.0,59.348,-70.598,166.91,-27.453,-13.167,-0.08,27.99,0.2037,-0.54462,-0.34439,-0.737,849
214,0.851,0.107,0.542,-0.366,0.305,-0.488,11.492,-57.068,146.646,-20.973,-8.773,-16.52,22.23,-0.20386,-0.48062,0.0517,-0.85126,866,0.88,0.191,0.435,-0.488,0.183,-0.366,23.632,-61.474,-127.925,-26.547,-9.72,7.973,23.78,-0.46371,0.37216,0.3779,0.70963,858,0.707,0.206,0.672,0.244,-0.427,-0.61,16.853,-45.082,145.882,-17.84,-11.567,-21.073,27.99,-0.21411,-0.40186,-0.01791,-0.89008,854,0.929,0.283,0.168,-0.916,-0.122,0.0,59.348,-70.598,166.893,-27.453,-13.167,-0.08,27.99,0.2037,-0.54462,-0.34439,-0.737,856
215,0.851,0.109,0.541,-0.183,0.427,-0.488,11.503,-57.057,146.618,-20.973,-8.773,-16.52,22.23,-0.20386,-0.48062,0.0517,-0.85126,867,0.882,0.19,0.433,-0.366,0.244,-0.183,23.626,-61.469,-127.947,-26.547,-9.72,7.973,23.78,-0.46371,0.37216,0.3779,0.70963,859,0.706,0.205,0.669,0.0,-0.244,-0.61,16.87,-45.088,145.86,-17.84,-11.567,-21.073,27.99,-0.21411,-0.40186,-0.01791,-0.89008,855,0.928,0.28,0.166,-0.977,0.183,0.0,59.332,-70.598,166.888,-27.453,-13.167,-0.08,27.99,0.2037,-0.54462,-0.34439,-0.737,857
216,0.856,0.11,0.541,0.0,0.061,-0.244,11.508,-57.057,146.602,-20.973,-8.773,-16.52,22.23,-0.20386,-0.48062,0.0517,-0.85126,870,0.884,0.191,0.436,-0.488,0.366,-0.122,23.621,-61.469,-127.958,-26.547,-9.72,7.973,23.78,-0.46371,0.37216,0.3779,0.70963,868,0.708,0.204,0.666,-0.122,0.0,-0.488,16.875,-45.082,145.844,-17.84,-11.567,-21.073,27.99,-0.21411,-0.40186,-0.01791,-0.89008,862,0.928,0.283,0.169,-0.854,0.366,0.0,59.299,-70.593,166.899,-27.453,-13.167,-0.08,27.99,0.2037,-0.54462,-0.34439,-0.737,864
217,0.858,0.11,0.541,0.061,-0.244,-0.061,11.514,-57.063,146.585,-20.973,-8.773,-16.52,22.23,-0.20386,-0.48062,0.0517,-0.85126,871,0.881,0.193,0.441,-0.427,0.61,-0.305,23.615,-61.458,-127.969,-26.547,-9.72,7.973,23.78,-0.46371,0.37216,0.3779,0.70963,869,0.707,0.204,0.668,-0.183,0.488,-0.488,16.88,-45.077,145.833,-17.84,-11.567,-21.073,27.99,-0.21411,-0.40186,-0.01791,-0.89008,863,0.933,0.285,0.171,-0.427,0.366,0.0,59.271,-70.587,166.921,-27.453,-13.167,-0.08,27.99,0.2037,-0.54462,-0.34439,-0.737,865
218,0.856,0.113,0.543,-0.183,0.061,-0.244,11.514,-57.063,146.563,-20.973,-8.773,-16.52,22.23,-0.20386,-0.48062,0.0517,-0.85126,878,0.877,0.194,0.445,-0.366,0.549,-0.366,23.61,-61.447,-127.98,-26.547,-9.72,7.973,23.78,-0.46371,0.37216,0.3779,0.70963,876,0.701,0.206,0.678,0.0,0.671,-0.61,16.886,-45.06,145.816,-17.84,-11.567,-21.073,27.99,-0.21411,-0.40186,-0.01791,-0.89008,872,0.933,0.284,0.168,-0.061,-0.183,0.0,59.249,-70.587,166.932,-27.453,-13.167,-0.08,27.99,0.2037,-0.54462,-0.34439,-0.737,874
219,0.851,0.112,0.542,-0.427,0.488,-0.427,11.519,-57.052,146.541,-20.973,-8.773,-16.52,22.23,-0.20386,-0.48062,0.0517,-0.85126,879,0.879,0.194,0.442,-0.183,0.244,-0.183,23.61,-61.436,-127.996,-26.547,-9.72,7.973,23.78,-0.46371,0.37216,0.3779,0.70963,877,0.701,0.209,0.683,-0.122,0.183,-0.366,16.891,-45.055,145.805,-17.84,-11.567,-21.073,27.99,-0.21411,-0.40186,-0.01791,-0.89008,873,0.931,0.284,0.164,-0.549,-0.061,0.0,59.255,-70.587,166.921,-27.453,-13.167,-0.08,27.99,0.2037,-0.54462,-0.34439,-0.737,875
220,0.848,0.111,0.541,-0.244,0.366,-0.366,11.519,-57.041,146.519,-21.133,-8.867,-16.1,22.23,-0.20386,-0.48062,0.0517,-0.85126,886,0.879,0.19,0.44,0.0,0.061,-0.061,23.61,-61.43,-128.013,-26.547,-9.72,7.973,23.78,-0.46371,0.37216,0.3779,0.70963,880,0.703,0.206,0.678,-0.122,-0.854,0.0,16.897,-45.066,145.8,-17.84,-11.567,-21.073,27.99,-0.21411,-0.40186,-0.01791,-0.89008,882,0.928,0.284,0.167,-0.732,0.0,0.0,59.249,-70.587,166.915,-27.453,-13.167,-0.08,27.99,0.2037,-0.54462,-0.34439,-0.737,884
221,0.849,0.11,0.539,0.0,-0.183,-0.183,11.53,-57.047,146.503,-21.133,-8.867,-16.1,22.23,-0.20386,-0.48062,0.0517,-0.85126,887,0.878,0.191,0.44,0.122,0.0,-0.122,23.61,-61.43,-128.024,-26.547,-9.72,7.973,23.78,-0.46371,0.37216,0.3779,0.70963,881,0.704,0.202,0.673,0.122,-1.465,-0.305,16.908,-45.088,145.838,-17.84,-11.567,-21.073,27.99,-0.21411,-0.40186,-0.01791,-0.89008,883,0.924,0.283,0.173,-0.488,-0.244,0.0,59.238,-70.582,166.915,-27.453,-13.167,-0.08,27.99,0.2037,-0.54462,-0.34439,-0.737,885
222,0.853,0.11,0.539,0.122,-0.488,-0.122,11.536,-57.057,146.486,-21.133,-8.867,-16.1,22.23,-0.20599,-0.48044,0.0524,-0.85083,896,0.876,0.194,0.44,0.183,0.122,-0.061,23.615,-61.43,-128.04,-26.547,-9.72,7.973,23.78,-0.46371,0.37216,0.3779,0.70963,892,0.702,0.206,0.671,0.366,-0.977,-0.183,16.924,-45.104,145.942,-18.6,-11.5,-19.44,27.99,-0.21411,-0.40186,-0.01791,-0.89008,888,0.925,0.283,0.173,-0.244,-0.366,0.0,59.244,-70.587,166.899,-27.56,-12.707,1.087,27.99,0.2037,-0.54462,-0.34439,-0.737,890
223,0.854,0.112,0.542,0.061,-0.244,-0.061,11.541,-57.057,146.47,-21.133,-8.867,-16.1,22.23,-0.20599,-0.48044,0.0524,-0.85083,897,0.876,0.194,0.438,0.183,0.122,0.0,23.621,-61.425,-128.051,-26.547,-9.72,7.973,23.78,-0.46371,0.37216,0.3779,0.70963,893,0.701,0.208,0.671,0.305,-0.244,-0.122,16.935,-45.11,146.036,-18.6,-11.5,-19.44,27.99,-0.21411,-0.40186,-0.01791,-0.89008,889,0.928,0.283,0.167,0.0,-0.671,0.0,59.26,-70.587,166.871,-27.56,-12.707,1.087,27.99,0.2037,-0.54462,-0.34439,-0.737,891
224,0.854,0.113,0.542,-0.061,0.0,-0.122,11.547,-57.057,146.453,-21.133,-8.867,-16.1,22.23,-0.20599,-0.48044,0.0524,-0.85083,908,0.88,0.191,0.438,0.366,0.0,-0.122,23.626,-61.425,-128.062,-25.933,-9.753,7.76,23.78,-0.46371,0.37216,0.3779,0.70963,894,0.703,0.206,0.671,0.366,-0.183,0.0,16.946,-45.115,146.168,-18.6,-11.5,-19.44,27.99,-0.21411,-0.40186,-0.01791,-0.89008,898,0.93,0.284,0.165,-0.183,-0.61,0.0,59.293,-70.593,166.838,-27.56,-12.707,1.087,27.99,0.2037,-0.54462,-0.34439,-0.737,900
225,0.854,0.111,0.544,-0.061,0.0,-0.122,11.547,-57.057,146.442,-21.133,-8.867,-16.1,22.23,-0.20599,-0.48044,0.0524,-0.85083,909,0.883,0.191,0.439,0.488,-0.061,-0.183,23.637,-61.419,-128.079,-25.933,-9.753,7.76,23.78,-0.46371,0.37216,0.3779,0.70963,895,0.706,0.203,0.672,0.61,-0.366,0.0,16.957,-45.121,146.277,-18.6,-11.5,-19.44,27.99,-0.21411,-0.40186,-0.01791,-0.89008,899,0.931,0.285,0.168,-0.366,-0.244,0.0,59.31,-70.593,166.811,-27.56,-12.707,1.087,27.99,0.2037,-0.54462,-0.34439,-0.737,901
226,0.854,0.11,0.542,0.0,-0.244,-0.061,11.552,-57.063,146.426,-21.133,-8.867,-16.1,22.23,-0.20599,-0.48044,0.0524,-0.85083,910,0.886,0.194,0.44,0.549,-0.061,-0.183,23.654,-61.419,-128.095,-25.933,-9.753,7.76,23.78,-0.46371,0.37216,0.3779,0.70963,906,0.708,0.205,0.673,0.732,-0.549,-0.183,16.979,-45.126,146.36,-18.6,-11.5,-19.44,27.99,-0.21017,-0.40268,-0.0206,-0.89059,902,0.932,0.285,0.171,-0.183,-0.244,0.0,59.321,-70.598,166.8,-27.56,-12.707,1.087,27.99,0.20255,-0.54517,-0.34348,-0.73734,904
227,0.855,0.109,0.541,0.122,-0.549,0.0,11.558,-57.074,146.415,-21.133,-8.867,-16.1,22.23,-0.20599,-0.48044,0.0524,-0.85083,911,0.882,0.197,0.44,0.427,0.0,0.0,23.67,-61.419,-128.112,-25.933,-9.753,7.76,23.78,-0.46371,0.37216,0.3779,0.70963,907,0.71,0.209,0.673,0.671,-0.732,-0.305,17.001,-45.137,146.431,-18.6,-11.5,-19.44,27.99,-0.21017,-0.40268,-0.0206,-0.89059,903,0.931,0.283,0.173,0.0,-0.488,0.0,59.332,-70.598,166.783,-27.56,-12.707,1.087,27.99,0.20255,-0.54517,-0.34348,-0.73734,905
228,0.853,0.11,0.539,0.183,-0.488,-0.061,11.569,-57.085,146.398,-21.133,-8.867,-16.1,22.23,-0.20599,-0.48044,0.0524,-0.85083,920,0.879,0.194,0.441,0.305,0.061,0.061,23.676,-61.419,-128.117,-25.933,-9.753,7.76,23.78,-0.46231,0.37231,0.37723,0.71082,918,0.706,0.211,0.673,0.366,-0.61,-0.183,17.018,-45.143,146.459,-18.6,-11.5,-19.44,27.99,-0.21017,-0.40268,-0.0206,-0.89059,912,0.929,0.281,0.167,0.0,-0.732,0.0,59.359,-70.598,166.75,-27.56,-12.707,1.087,27.99,0.20255,-0.54517,-0.34348,-0.73734,914
229,0.853,0.112,0.538,0.0,-0.244,-0.061,11.569,-57.085,146.382,-21.133,-8.867,-16.1,22.23,-0.20599,-0.48044,0.0524,-0.85083,921,0.878,0.19,0.436,0.366,0.0,0.122,23.681,-61.419,-128.123,-25.933,-9.753,7.76,23.78,-0.46231,0.37231,0.37723,0.71082,919,0.705,0.208,0.674,0.427,0.0,0.122,17.029,-45.148,146.475,-18.6,-11.5,-19.44,27.99,-0.21017,-0.40268,-0.0206,-0.89059,913,0.927,0.283,0.165,-0.061,-0.854,0.0,59.392,-70.604,166.707,-27.56,-12.707,1.087,27.99,0.20255,-0.54517,-0.34348,-0.73734,915
230,0.854,0.112,0.542,-0.122,0.0,-0.061,11.569,-57.085,146.371,-21.133,-8.867,-16.1,22.23,-0.20599,-0.48044,0.0524,-0.85083,930,0.88,0.19,0.435,0.61,0.0,0.0,23.687,-61.419,-128.134,-25.933,-9.753,7.76,23.78,-0.46231,0.37231,0.37723,0.71082,922,0.705,0.203,0.667,0.366,-0.061,0.488,17.029,-45.148,146.53,-18.6,-11.5,-19.44,27.99,-0.21017,-0.40268,-0.0206,-0.89059,916,0.928,0.285,0.161,-0.061,-0.549,0.0,59.425,-70.609,166.668,-27.56,-12.707,1.087,27.99,0.20255,-0.54517,-0.34348,-0.73734,924
231,0.858,0.111,0.54,-0.183,0.0,-0.061,11.569,-57.085,146.36,-21.133,-8.867,-16.1,22.23,-0.20599,-0.48044,0.0524,-0.85083,931,0.883,0.196,0.435,0.427,-0.183,-0.305,23.703,-61.419,-128.15,-25.933,-9.753,7.76,23.78,-0.46231,0.37231,0.37723,0.71082,923,0.707,0.202,0.668,0.732,-0.366,0.0,17.04,-45.154,146.563,-18.6,-11.5,-19.44,27.99,-0.21017,-0.40268,-0.0206,-0.89059,917,0.931,0.286,0.166,-0.122,-0.061,0.0,59.442,-70.615,166.652,-27.56,-12.707,1.087,27.99,0.20255,-0.54517,-0.34348,-0.73734,925
232,0.857,0.111,0.54,-0.183,-0.061,-0.061,11.569,-57.09,146.349,-21.133,-8.867,-16.1,22.23,-0.20599,-0.48044,0.0524,-0.85083,940,0.885,0.197,0.437,0.061,0.0,-0.183,23.719,-61.419,-128.167,-25.933,-9.753,7.76,23.78,-0.46231,0.37231,0.37723,0.71082,932,0.71,0.211,0.667,0.671,-0.488,-0.488,17.062,-45.159,146.574,-18.6,-11.5,-19.44,27.99,-0.21017,-0.40268,-0.0206,-0.89059,926,0.933,0.284,0.168,-0.305,0.0,0.0,59.436,-70.609,166.652,-27.56,-12.707,1.087,27.99,0.20255,-0.54517,-0.34348,-0.73734,928
233,0.856,0.11,0.541,-0.061,0.0,-0.122,11.569,-57.09,146.332,-21.133,-8.867,-16.1,22.23,-0.20599,-0.48044,0.0524,-0.85083,941,0.884,0.195,0.437,-0.366,0.122,-0.061,23.725,-61.419,-128.183,-25.933,-9.753,7.76,23.78,-0.46231,0.37231,0.37723,0.71082,933,0.712,0.212,0.669,0.244,-0.244,-0.244,17.078,-45.165,146.563,-18.6,-11.5,-19.44,27.99,-0.21017,-0.40268,-0.0206,-0.89059,927,0.933,0.283,0.166,-0.488,-0.061,0.0,59.431,-70.609,166.646,-27.56,-12.707,1.087,27.99,0.20255,-0.54517,-0.34348,-0.73734,929
234,0.854,0.11,0.541,0.0,0.122,-0.244,11.58,-57.085,146.316,-20.947,-8.98,-15.913,22.23,-0.20599,-0.48044,0.0524,-0.85083,946,0.882,0.19,0.437,-0.305,0.122,0.0,23.719,-61.419,-128.188,-25.933,-9.753,7.76,23.78,-0.46231,0.37231,0.37723,0.71082,936,0.709,0.208,0.67,-0.183,0.061,-0.305,17.084,-45.165,146.525,-18.6,-11.5,-19.44,27.99,-0.21017,-0.40268,-0.0206,-0.89059,934,0.932,0.283,0.164,-0.488,-0.061,0.0,59.431,-70.609,166.646,-27.56,-12.707,1.087,27.99,0.20255,-0.54517,-0.34348,-0.73734,938
235,0.853,0.111,0.541,0.122,0.122,-0.122,11.585,-57.085,146.305,-20.947,-8.98,-15.913,22.23,-0.20599,-0.48044,0.0524,-0.85083,947,0.881,0.188,0.437,0.0,0.0,0.0,23.714,-61.419,-128.199,-25.933,-9.753,7.76,23.78,-0.46231,0.37231,0.37723,0.71082,937,0.707,0.205,0.67,-0.244,0.305,-0.122,17.078,-45.159,146.486,-18.6,-11.5,-19.44,27.99,-0.21017,-0.40268,-0.0206,-0.89059,935,0.93,0.283,0.165,-0.244,-0.122,0.0,59.425,-70.609,166.641,-27.56,-12.707,1.087,27.99,0.20255,-0.54517,-0.34348,-0.73734,939
