Time,Device name,Chip Time(),Acceleration X(g),Acceleration Y(g),Acceleration Z(g),Angular velocity X(°/s),Angular velocity Y(°/s),Angular velocity Z(°/s),Angle X(°),Angle Y(°),Angle Z(°),Magnetic field X(ʯt),Magnetic field Y(ʯt),Magnetic field Z(ʯt),Temperature(℃),Quaternions 0(),Quaternions 1(),Quaternions 2(),Quaternions 3()
 15:29:01.377,e3:ca:2d:fd:e0:8c, 2015-01-01 03:14:11.260, 0.949, -0.075, 0.357, 1.831, -0.244, -1.343, -12.173, -69.208, 176.325, -24.860, -9.740, -13.027, 29.54, -0.08514, -0.56189, 0.10675, -0.8158,
 15:29:01.378,e3:ca:2d:fd:e0:8c, 2015-01-01 03:14:11.260, 0.947, -0.072, 0.36, 1.526, -0.122, -1.16, -12.085, -69.219, 176.265, -24.860, -9.740, -13.027, 29.54, -0.08514, -0.56189, 0.10675, -0.8158,
 15:29:01.378,ed:35:33:d3:6c:f8, 2015-01-01 03:14:10.215, 0.618, 0.134, 0.76, 20.203, 11.658, -10.437, 8.844, -39.364, 158.121, -17.887, -11.320, -24.873, 31.6, 0.15204, 0.34595, 0.00055, 0.92581,
 15:29:01.378,ed:35:33:d3:6c:f8, 2015-01-01 03:14:10.215, 0.619, 0.138, 0.77, 18.799, 9.766, -10.437, 9.349, -39.128, 157.923, -17.887, -11.320, -24.873, 31.6, 0.15204, 0.34595, 0.00055, 0.92581,
 15:29:01.379,f6:90:cc:01:6d:25, 2015-01-01 03:14:09.770, 0.874, 0.151, 0.422, 1.282, 5.371, -6.714, 18.957, -63.127, -177.215, -26.487, -14.653, -8.007, 31.87, 0.10959, -0.51617, -0.15015, -0.836,
 15:29:01.379,f6:90:cc:01:6d:25, 2015-01-01 03:14:09.770, 0.872, 0.15, 0.431, 0.854, 5.249, -6.592, 19.149, -62.996, -177.407, -26.487, -14.653, -8.007, 31.87, 0.10959, -0.51617, -0.15015, -0.836,
 15:29:01.398,e3:ca:2d:fd:e0:8c, 2015-01-01 03:14:11.260, 0.948, -0.07, 0.363, 1.038, 0, -1.282, -12.003, -69.225, 176.199, -24.860, -9.740, -13.027, 29.54, -0.08514, -0.56189, 0.10675, -0.8158,
 15:29:01.398,e3:ca:2d:fd:e0:8c, 2015-01-01 03:14:11.260, 0.95, -0.071, 0.362, 0.488, 0.061, -1.343, -11.926, -69.23, 176.155, -24.860, -9.740, -13.027, 29.54, -0.08514, -0.56189, 0.10675, -0.8158,
 15:29:01.400,ed:40:fe:65:30:6c, 2015-01-01 03:14:10.210, 0.873, 0.063, 0.499, 11.169, 5.066, -14.648, 6.757, -60.93, -133.319, -26.187, -9.240, 0.013, 26.71, 0.37845, -0.46066, -0.22543, -0.77048,
 15:29:01.400,ed:40:fe:65:30:6c, 2015-01-01 03:14:10.210, 0.874, 0.072, 0.502, 9.766, 5.92, -14.16, 7.41, -60.787, -133.863, -26.187, -9.240, 0.013, 26.71, 0.37845, -0.46066, -0.22543, -0.77048,
 15:29:01.425,f6:90:cc:01:6d:25, 2015-01-01 03:14:09.770, 0.872, 0.151, 0.426, 0.793, 5.188, -6.714, 19.336, -62.864, -177.589, -26.487, -14.653, -8.007, 31.87, 0.10959, -0.51617, -0.15015, -0.836,
 15:29:01.425,f6:90:cc:01:6d:25, 2015-01-01 03:14:09.770, 0.874, 0.151, 0.433, 1.099, 4.944, -6.714, 19.523, -62.732, -177.786, -26.487, -14.653, -8.007, 31.87, 0.10959, -0.51617, -0.15015, -0.836,
 15:29:01.444,e3:ca:2d:fd:e0:8c, 2015-01-01 03:14:11.260, 0.953, -0.069, 0.361, 0.549, 0.183, -1.465, -11.843, -69.23, 176.078, -24.860, -9.740, -13.027, 29.54, -0.08514, -0.56189, 0.10675, -0.8158,
 15:29:01.444,e3:ca:2d:fd:e0:8c, 2015-01-01 03:14:11.260, 0.951, -0.072, 0.361, 0.549, -0.122, -1.587, -11.755, -69.236, 175.979, -24.860, -9.740, -13.027, 29.54, -0.08514, -0.56189, 0.10675, -0.8158,
 15:29:01.445,ed:35:33:d3:6c:f8, 2015-01-01 03:14:10.550, 0.614, 0.143, 0.774, 16.907, 8.24, -10.315, 9.833, -38.925, 157.698, -17.887, -11.320, -24.873, 31.6, 0.15204, 0.34595, 0.00055, 0.92581,
 15:29:01.445,ed:35:33:d3:6c:f8, 2015-01-01 03:14:10.550, 0.614, 0.153, 0.778, 14.832, 6.287, -9.705, 10.278, -38.749, 157.456, -17.887, -11.320, -24.873, 31.6, 0.15204, 0.34595, 0.00055, 0.92581,
 15:29:01.469,ed:40:fe:65:30:6c, 2015-01-01 03:14:10.210, 0.874, 0.079, 0.504, 8.85, 6.47, -13.794, 8.02, -60.628, -134.401, -26.187, -9.240, 0.013, 26.71, 0.37845, -0.46066, -0.22543, -0.77048,
 15:29:01.469,ed:40:fe:65:30:6c, 2015-01-01 03:14:10.210, 0.866, 0.087, 0.506, 7.08, 7.202, -12.878, 8.564, -60.452, -134.896, -26.187, -9.240, 0.013, 26.71, 0.37845, -0.46066, -0.22543, -0.77048,
 15:29:01.469,ed:35:33:d3:6c:f8, 2015-01-01 03:14:10.550, 0.612, 0.16, 0.78, 13.611, 5.005, -9.583, 10.673, -38.617, 157.236, -17.887, -11.320, -24.873, 31.6, 0.15204, 0.34595, 0.00055, 0.92581,
 15:29:01.469,ed:35:33:d3:6c:f8, 2015-01-01 03:14:10.550, 0.605, 0.172, 0.781, 10.925, 3.723, -9.277, 11.036, -38.502, 157.039, -17.887, -11.320, -24.873, 31.6, 0.15204, 0.34595, 0.00055, 0.92581,
 15:29:01.470,f6:90:cc:01:6d:25, 2015-01-01 03:14:09.770, 0.874, 0.152, 0.434, 1.404, 4.761, -6.836, 19.726, -62.6, -177.973, -26.487, -14.653, -8.007, 31.87, 0.10959, -0.51617, -0.15015, -0.836,
 15:29:01.470,f6:90:cc:01:6d:25, 2015-01-01 03:14:09.770, 0.87, 0.155, 0.437, 1.953, 4.517, -6.958, 19.935, -62.474, -178.176, -26.487, -14.653, -8.007, 31.87, 0.10959, -0.51617, -0.15015, -0.836,
 15:29:01.489,e3:ca:2d:fd:e0:8c, 2015-01-01 03:14:11.260, 0.95, -0.071, 0.361, 0.854, -0.183, -1.587, -11.662, -69.241, 175.88, -24.860, -9.740, -13.027, 29.54, -0.08514, -0.56189, 0.10675, -0.8158,
 15:29:01.489,e3:ca:2d:fd:e0:8c, 2015-01-01 03:14:11.260, 0.949, -0.073, 0.358, 1.038, -0.61, -1.404, -11.569, -69.252, 175.792, -24.860, -9.740, -13.027, 29.54, -0.08514, -0.56189, 0.10675, -0.8158,
 15:29:01.490,ed:40:fe:65:30:6c, 2015-01-01 03:14:10.210, 0.86, 0.096, 0.508, 3.723, 7.751, -11.353, 8.998, -60.271, -135.33, -25.007, -11.640, 0.220, 26.71, 0.37845, -0.46066, -0.22543, -0.77048,
 15:29:01.490,ed:40:fe:65:30:6c, 2015-01-01 03:14:10.210, 0.859, 0.104, 0.512, 0.549, 7.568, -10.193, 9.322, -60.084, -135.709, -25.007, -11.640, 0.220, 26.71, 0.37845, -0.46066, -0.22543, -0.77048,
 15:29:01.491,ed:35:33:d3:6c:f8, 2015-01-01 03:14:10.550, 0.6, 0.176, 0.78, 7.263, 2.014, -8.789, 11.332, -38.414, 156.824, -17.887, -11.320, -24.873, 31.6, 0.15204, 0.34595, 0.00055, 0.92581,
 15:29:01.491,ed:35:33:d3:6c:f8, 2015-01-01 03:14:10.550, 0.605, 0.184, 0.78, 4.211, 0.732, -8.728, 11.563, -38.353, 156.594, -17.887, -11.320, -24.873, 31.6, 0.15204, 0.34595, 0.00055, 0.92581,
 15:29:01.492,f6:90:cc:01:6d:25, 2015-01-01 03:14:09.770, 0.868, 0.161, 0.433, 2.502, 4.395, -6.958, 20.16, -62.347, -178.407, -26.487, -14.653, -8.007, 31.87, 0.10959, -0.51617, -0.15015, -0.836,
 15:29:01.492,f6:90:cc:01:6d:25, 2015-01-01 03:14:09.770, 0.867, 0.167, 0.434, 2.258, 4.028, -6.653, 20.385, -62.232, -178.643, -26.487, -14.653, -8.007, 31.87, 0.10959, -0.51617, -0.15015, -0.836,
 15:29:01.515,ed:35:33:d3:6c:f8, 2015-01-01 03:14:10.550, 0.603, 0.183, 0.772, 2.136, -1.282, -9.155, 11.761, -38.326, 156.341, -17.887, -11.320, -24.873, 31.6, 0.15204, 0.34595, 0.00055, 0.92581,
 15:29:01.516,ed:35:33:d3:6c:f8, 2015-01-01 03:14:10.550, 0.599, 0.183, 0.777, -1.404, -4.333, -9.644, 11.915, -38.337, 156.061, -17.887, -11.320, -24.873, 31.6, 0.15204, 0.34595, 0.00055, 0.92581,
 15:29:01.536,ed:40:fe:65:30:6c, 2015-01-01 03:14:10.210, 0.858, 0.109, 0.505, -1.16, 7.263, -9.766, 9.591, -59.908, -136.049, -25.007, -11.640, 0.220, 26.71, 0.37845, -0.46066, -0.22543, -0.77048,
 15:29:01.536,ed:40:fe:65:30:6c, 2015-01-01 03:14:10.210, 0.854, 0.109, 0.508, -2.93, 6.836, -9.644, 9.822, -59.738, -136.379, -25.007, -11.640, 0.220, 26.71, 0.37845, -0.46066, -0.22543, -0.77048,
 15:29:01.540,f6:90:cc:01:6d:25, 2015-01-01 03:14:09.770, 0.862, 0.174, 0.434, 1.953, 3.784, -6.165, 20.588, -62.117, -178.841, -26.487, -14.653, -8.007, 31.87, 0.10959, -0.51617, -0.15015, -0.836,
 15:29:01.540,f6:90:cc:01:6d:25, 2015-01-01 03:14:09.770, 0.861, 0.177, 0.438, 1.526, 3.235, -5.554, 20.77, -62.018, -179, -26.487, -14.653, -8.007, 31.87, 0.10959, -0.51617, -0.15015, -0.836,
 15:29:01.558,ed:40:fe:65:30:6c, 2015-01-01 03:14:10.210, 0.855, 0.115, 0.519, -5.493, 6.226, -9.277, 9.998, -59.584, -136.703, -25.007, -11.640, 0.220, 26.71, 0.36023, -0.4328, -0.25323, -0.78656,
 15:29:01.558,ed:40:fe:65:30:6c, 2015-01-01 03:14:10.210, 0.849, 0.117, 0.523, -6.165, 7.385, -8.911, 10.14, -59.409, -137.01, -25.007, -11.640, 0.220, 26.71, 0.36023, -0.4328, -0.25323, -0.78656,
 15:29:01.579,e3:ca:2d:fd:e0:8c, 2015-01-01 03:14:11.260, 0.949, -0.071, 0.355, 1.221, -0.61, -1.221, -11.486, -69.269, 175.71, -24.860, -9.740, -13.027, 29.54, -0.08514, -0.56189, 0.10675, -0.8158,
 15:29:01.579,e3:ca:2d:fd:e0:8c, 2015-01-01 03:14:11.260, 0.948, -0.068, 0.354, 0.977, -0.977, -1.038, -11.415, -69.285, 175.644, -24.860, -9.740, -13.027, 29.54, -0.08514, -0.56189, 0.10675, -0.8158,
 15:29:01.581,ed:35:33:d3:6c:f8, 2015-01-01 03:14:10.550, 0.598, 0.194, 0.779, -4.639, -5.676, -9.705, 12.019, -38.386, 155.781, -17.887, -11.320, -24.873, 31.6, 0.15204, 0.34595, 0.00055, 0.92581,
 15:29:01.581,ed:35:33:d3:6c:f8, 2015-01-01 03:14:10.550, 0.608, 0.193, 0.77, -5.432, -4.517, -10.071, 12.09, -38.436, 155.55, -17.887, -11.320, -24.873, 31.6, 0.15204, 0.34595, 0.00055, 0.92581,
 15:29:01.582,f6:90:cc:01:6d:25, 2015-01-01 03:14:09.770, 0.863, 0.175, 0.445, 1.099, 2.197, -5.127, 20.94, -61.935, -179.149, -25.607, -14.933, -8.087, 31.87, 0.10959, -0.51617, -0.15015, -0.836,
 15:29:01.582,f6:90:cc:01:6d:25, 2015-01-01 03:14:09.770, 0.869, 0.179, 0.444, 1.038, 1.465, -4.761, 21.105, -61.87, -179.28, -25.607, -14.933, -8.087, 31.87, 0.10959, -0.51617, -0.15015, -0.836,
 15:29:01.602,ed:40:fe:65:30:6c, 2015-01-01 03:14:10.210, 0.854, 0.114, 0.498, -6.409, 6.836, -8.667, 10.267, -59.238, -137.302, -25.007, -11.640, 0.220, 26.71, 0.36023, -0.4328, -0.25323, -0.78656,
 15:29:01.602,ed:40:fe:65:30:6c, 2015-01-01 03:14:10.210, 0.854, 0.107, 0.494, -4.883, 6.897, -9.094, 10.426, -59.068, -137.604, -25.007, -11.640, 0.220, 26.71, 0.36023, -0.4328, -0.25323, -0.78656,
 15:29:01.602,e3:ca:2d:fd:e0:8c, 2015-01-01 03:14:11.260, 0.948, -0.067, 0.354, 0.977, -1.221, -0.793, -11.36, -69.307, 175.6, -25.013, -10.287, -12.880, 29.54, -0.08514, -0.56189, 0.10675, -0.8158,
 15:29:01.602,e3:ca:2d:fd:e0:8c, 2015-01-01 03:14:11.260, 0.952, -0.066, 0.355, 0.916, -2.258, -0.488, -11.327, -69.34, 175.6, -25.013, -10.287, -12.880, 29.54, -0.08514, -0.56189, 0.10675, -0.8158,
 15:29:01.603,ed:35:33:d3:6c:f8, 2015-01-01 03:14:10.550, 0.619, 0.185, 0.75, -5.127, -3.967, -10.254, 12.162, -38.469, 155.33, -16.500, -13.433, -23.980, 31.6, 0.15204, 0.34595, 0.00055, 0.92581,
 15:29:01.603,ed:35:33:d3:6c:f8, 2015-01-01 03:14:10.550, 0.611, 0.179, 0.744, -4.028, -2.625, -10.071, 12.244, -38.48, 155.105, -16.500, -13.433, -23.980, 31.6, 0.15204, 0.34595, 0.00055, 0.92581,
 15:29:01.624,e3:ca:2d:fd:e0:8c, 2015-01-01 03:14:11.260, 0.953, -0.065, 0.357, 0.793, -2.991, -0.305, -11.31, -69.39, 175.622, -25.013, -10.287, -12.880, 29.54, -0.08514, -0.56189, 0.10675, -0.8158,
 15:29:01.624,e3:ca:2d:fd:e0:8c, 2015-01-01 03:14:11.260, 0.952, -0.065, 0.357, 0.61, -3.357, -0.244, -11.316, -69.45, 175.649, -25.013, -10.287, -12.880, 29.54, -0.08514, -0.56189, 0.10675, -0.8158,
 15:29:01.627,f6:90:cc:01:6d:25, 2015-01-01 03:14:09.770, 0.866, 0.178, 0.444, 0.793, 1.343, -4.395, 21.259, -61.815, -179.407, -25.607, -14.933, -8.087, 31.87, 0.09909, -0.504, -0.16086, -0.84274,
 15:29:01.627,f6:90:cc:01:6d:25, 2015-01-01 03:14:09.770, 0.863, 0.179, 0.442, 0.427, 1.465, -4.028, 21.39, -61.754, -179.495, -25.607, -14.933, -8.087, 31.87, 0.09909, -0.504, -0.16086, -0.84274,
 15:29:01.649,ed:35:33:d3:6c:f8, 2015-01-01 03:14:10.550, 0.606, 0.18, 0.748, -2.869, -0.366, -10.254, 12.343, -38.458, 154.825, -16.500, -13.433, -23.980, 31.6, 0.15204, 0.34595, 0.00055, 0.92581,
 15:29:01.649,ed:35:33:d3:6c:f8, 2015-01-01 03:14:10.550, 0.609, 0.183, 0.745, -0.732, 2.075, -10.193, 12.475, -38.392, 154.534, -16.500, -13.433, -23.980, 31.6, 0.15204, 0.34595, 0.00055, 0.92581,
 15:29:01.649,ed:40:fe:65:30:6c, 2015-01-01 03:14:10.570, 0.845, 0.107, 0.503, -3.967, 7.385, -9.46, 10.613, -58.898, -137.922, -25.007, -11.640, 0.220, 26.71, 0.36023, -0.4328, -0.25323, -0.78656,
 15:29:01.649,ed:40:fe:65:30:6c, 2015-01-01 03:14:10.570, 0.842, 0.109, 0.506, -2.625, 8.24, -9.766, 10.827, -58.705, -138.235, -25.007, -11.640, 0.220, 26.71, 0.36023, -0.4328, -0.25323, -0.78656,
 15:29:01.650,f6:90:cc:01:6d:25, 2015-01-01 03:14:10.085, 0.863, 0.181, 0.44, -0.183, 1.526, -3.601, 21.495, -61.699, -179.577, -25.607, -14.933, -8.087, 31.87, 0.09909, -0.504, -0.16086, -0.84274,
 15:29:01.650,f6:90:cc:01:6d:25, 2015-01-01 03:14:10.085, 0.865, 0.182, 0.441, -0.061, 1.587, -3.601, 21.594, -61.639, -179.643, -25.607, -14.933, -8.087, 31.87, 0.09909, -0.504, -0.16086, -0.84274,
 15:29:01.669,e3:ca:2d:fd:e0:8c, 2015-01-01 03:14:11.260, 0.952, -0.067, 0.357, 0.183, -3.662, 0, -11.332, -69.51, 175.693, -25.013, -10.287, -12.880, 29.54, -0.08514, -0.56189, 0.10675, -0.8158,
 15:29:01.669,e3:ca:2d:fd:e0:8c, 2015-01-01 03:14:11.260, 0.953, -0.066, 0.355, -0.122, -3.479, 0.061, -11.365, -69.576, 175.732, -25.013, -10.287, -12.880, 29.54, -0.08514, -0.56189, 0.10675, -0.8158,
 15:29:01.691,e3:ca:2d:fd:e0:8c, 2015-01-01 03:14:11.260, 0.956, -0.062, 0.354, -0.305, -3.662, 0.183, -11.404, -69.642, 175.781, -25.013, -10.287, -12.880, 29.54, -0.08691, -0.56409, 0.10239, -0.81467,
 15:29:01.691,e3:ca:2d:fd:e0:8c, 2015-01-01 03:14:11.260, 0.953, -0.057, 0.355, 0.305, -3.967, 0.366, -11.453, -69.708, 175.842, -25.013, -10.287, -12.880, 29.54, -0.08691, -0.56409, 0.10239, -0.81467,
 15:29:01.692,ed:40:fe:65:30:6c, 2015-01-01 03:14:10.570, 0.847, 0.108, 0.499, -0.61, 8.423, -9.888, 11.074, -58.508, -138.543, -25.007, -11.640, 0.220, 26.71, 0.36023, -0.4328, -0.25323, -0.78656,
 15:29:01.692,ed:40:fe:65:30:6c, 2015-01-01 03:14:10.570, 0.846, 0.107, 0.504, 1.16, 8.789, -10.62, 11.371, -58.304, -138.867, -25.007, -11.640, 0.220, 26.71, 0.36023, -0.4328, -0.25323, -0.78656,
 15:29:01.694,f6:90:cc:01:6d:25, 2015-01-01 03:14:10.085, 0.864, 0.185, 0.446, 0.61, 1.526, -3.662, 21.709, -61.578, -179.72, -25.607, -14.933, -8.087, 31.87, 0.09909, -0.504, -0.16086, -0.84274,
 15:29:01.694,f6:90:cc:01:6d:25, 2015-01-01 03:14:10.085, 0.865, 0.188, 0.45, 1.404, 1.221, -3.845, 21.846, -61.523, -179.797, -25.607, -14.933, -8.087, 31.87, 0.09909, -0.504, -0.16086, -0.84274,
 15:29:01.716,ed:35:33:d3:6c:f8, 2015-01-01 03:14:10.550, 0.615, 0.179, 0.743, 1.77, 3.052, -9.583, 12.634, -38.298, 154.237, -16.500, -13.433, -23.980, 31.6, 0.17203, 0.34143, 0.02802, 0.92355,
 15:29:01.716,ed:35:33:d3:6c:f8, 2015-01-01 03:14:10.550, 0.61, 0.175, 0.739, 3.357, 5.005, -9.949, 12.827, -38.177, 153.957, -16.500, -13.433, -23.980, 31.6, 0.17203, 0.34143, 0.02802, 0.92355,
 15:29:01.737,ed:40:fe:65:30:6c, 2015-01-01 03:14:10.570, 0.839, 0.112, 0.506, 2.686, 10.437, -11.597, 11.717, -58.068, -139.202, -25.007, -11.640, 0.220, 26.71, 0.36023, -0.4328, -0.25323, -0.78656,
 15:29:01.737,ed:40:fe:65:30:6c, 2015-01-01 03:14:10.570, 0.839, 0.126, 0.509, 2.991, 11.78, -11.963, 12.068, -57.81, -139.543, -25.007, -11.640, 0.220, 26.71, 0.36023, -0.4328, -0.25323, -0.78656,
 15:29:01.739,ed:35:33:d3:6c:f8, 2015-01-01 03:14:10.885, 0.606, 0.183, 0.741, 4.15, 7.202, -10.315, 13.041, -38.013, 153.682, -16.500, -13.433, -23.980, 31.6, 0.17203, 0.34143, 0.02802, 0.92355,
 15:29:01.739,ed:35:33:d3:6c:f8, 2015-01-01 03:14:10.885, 0.604, 0.196, 0.741, 4.456, 9.521, -10.62, 13.255, -37.809, 153.43, -16.500, -13.433, -23.980, 31.6, 0.17203, 0.34143, 0.02802, 0.92355,
 15:29:01.740,f6:90:cc:01:6d:25, 2015-01-01 03:14:10.085, 0.868, 0.188, 0.454, 1.038, 0.366, -4.028, 21.995, -61.479, -179.885, -25.607, -14.933, -8.087, 31.87, 0.09909, -0.504, -0.16086, -0.84274,
 15:29:01.740,f6:90:cc:01:6d:25, 2015-01-01 03:14:10.085, 0.869, 0.188, 0.453, 1.038, -0.366, -4.089, 22.159, -61.447, -179.989, -25.607, -14.933, -8.087, 31.87, 0.09909, -0.504, -0.16086, -0.84274,
 15:29:01.762,e3:ca:2d:fd:e0:8c, 2015-01-01 03:14:11.260, 0.954, -0.059, 0.354, 1.099, -4.822, 0.732, -11.503, -69.785, 175.935, -25.013, -10.287, -12.880, 29.54, -0.08691, -0.56409, 0.10239, -0.81467,
 15:29:01.762,e3:ca:2d:fd:e0:8c, 2015-01-01 03:14:11.260, 0.956, -0.062, 0.35, 1.282, -5.554, 1.038, -11.563, -69.879, 176.078, -25.013, -10.287, -12.880, 29.54, -0.08691, -0.56409, 0.10239, -0.81467,
 15:29:01.763,ed:35:33:d3:6c:f8, 2015-01-01 03:14:10.885, 0.594, 0.196, 0.746, 6.226, 10.864, -11.108, 13.491, -37.573, 153.144, -16.500, -13.433, -23.980, 31.6, 0.17203, 0.34143, 0.02802, 0.92355,
 15:29:01.763,ed:35:33:d3:6c:f8, 2015-01-01 03:14:10.885, 0.587, 0.195, 0.752, 7.324, 11.536, -11.475, 13.76, -37.31, 152.858, -16.500, -13.433, -23.980, 31.6, 0.17203, 0.34143, 0.02802, 0.92355,
 15:29:01.786,e3:ca:2d:fd:e0:8c, 2015-01-01 03:14:11.660, 0.959, -0.064, 0.345, 0.427, -6.531, 1.099, -11.656, -69.983, 176.237, -25.013, -10.287, -12.880, 29.54, -0.08691, -0.56409, 0.10239, -0.81467,
 15:29:01.786,e3:ca:2d:fd:e0:8c, 2015-01-01 03:14:11.660, 0.96, -0.063, 0.341, -0.122, -7.507, 1.038, -11.772, -70.109, 176.396, -25.013, -10.287, -12.880, 29.54, -0.08691, -0.56409, 0.10239, -0.81467,
 15:29:01.786,ed:40:fe:65:30:6c, 2015-01-01 03:14:10.570, 0.832, 0.13, 0.514, 4.7, 13.123, -12.573, 12.453, -57.519, -139.883, -25.007, -11.640, 0.220, 26.71, 0.36023, -0.4328, -0.25323, -0.78656,
 15:29:01.786,ed:40:fe:65:30:6c, 2015-01-01 03:14:10.570, 0.823, 0.131, 0.518, 6.042, 13.611, -13.428, 12.881, -57.211, -140.246, -25.007, -11.640, 0.220, 26.71, 0.36023, -0.4328, -0.25323, -0.78656,
 15:29:01.786,f6:90:cc:01:6d:25, 2015-01-01 03:14:10.085, 0.867, 0.192, 0.442, 1.343, -0.488, -4.028, 22.324, -61.419, 179.896, -25.607, -14.933, -8.087, 31.87, 0.09909, -0.504, -0.16086, -0.84274,
 15:29:01.786,f6:90:cc:01:6d:25, 2015-01-01 03:14:10.085, 0.864, 0.194, 0.437, 1.709, -0.549, -3.784, 22.495, -61.392, 179.797, -25.607, -14.933, -8.087, 31.87, 0.09909, -0.504, -0.16086, -0.84274,
 15:29:01.804,e3:ca:2d:fd:e0:8c, 2015-01-01 03:14:11.660, 0.963, -0.062, 0.337, 0.122, -7.446, 1.16, -11.898, -70.241, 176.539, -25.013, -10.287, -12.880, 29.54, -0.08691, -0.56409, 0.10239, -0.81467,
 15:29:01.804,e3:ca:2d:fd:e0:8c, 2015-01-01 03:14:11.660, 0.964, -0.065, 0.333, 0.61, -6.775, 1.465, -12.025, -70.367, 176.688, -25.013, -10.287, -12.880, 29.54, -0.08691, -0.56409, 0.10239, -0.81467,
 15:29:01.806,ed:35:33:d3:6c:f8, 2015-01-01 03:14:10.885, 0.591, 0.194, 0.752, 8.301, 11.536, -11.963, 14.046, -37.04, 152.584, -16.500, -13.433, -23.980, 31.6, 0.17203, 0.34143, 0.02802, 0.92355,
 15:29:01.806,ed:35:33:d3:6c:f8, 2015-01-01 03:14:10.885, 0.594, 0.195, 0.755, 9.949, 11.719, -12.512, 14.359, -36.771, 152.281, -16.500, -13.433, -23.980, 31.6, 0.17203, 0.34143, 0.02802, 0.92355,
 15:29:01.828,ed:40:fe:65:30:6c, 2015-01-01 03:14:10.570, 0.825, 0.133, 0.516, 7.507, 13.123, -14.526, 13.354, -56.898, -140.647, -25.007, -11.640, 0.220, 26.71, 0.36023, -0.4328, -0.25323, -0.78656,
 15:29:01.828,ed:40:fe:65:30:6c, 2015-01-01 03:14:10.570, 0.832, 0.135, 0.521, 9.644, 12.39, -15.93, 13.903, -56.596, -141.086, -25.007, -11.640, 0.220, 26.71, 0.36023, -0.4328, -0.25323, -0.78656,
 15:29:01.829,f6:90:cc:01:6d:25, 2015-01-01 03:14:10.085, 0.865, 0.191, 0.432, 2.258, -0.061, -3.723, 22.67, -61.364, 179.709, -25.607, -14.933, -8.087, 31.87, 0.09909, -0.504, -0.16086, -0.84274,
 15:29:01.829,f6:90:cc:01:6d:25, 2015-01-01 03:14:10.085, 0.869, 0.185, 0.433, 2.93, -0.671, -3.906, 22.863, -61.337, 179.588, -25.607, -14.933, -8.087, 31.87, 0.09909, -0.504, -0.16086, -0.84274,
 15:29:01.851,ed:40:fe:65:30:6c, 2015-01-01 03:14:10.570, 0.834, 0.14, 0.535, 12.024, 12.756, -16.907, 14.535, -56.283, -141.553, -23.633, -12.373, -0.193, 26.71, 0.36023, -0.4328, -0.25323, -0.78656,
 15:29:01.851,ed:40:fe:65:30:6c, 2015-01-01 03:14:10.570, 0.833, 0.144, 0.544, 14.404, 14.709, -16.907, 15.183, -55.931, -141.998, -23.633, -12.373, -0.193, 26.71, 0.36023, -0.4328, -0.25323, -0.78656,
 15:29:01.851,e3:ca:2d:fd:e0:8c, 2015-01-01 03:14:11.660, 0.967, -0.072, 0.33, 0.61, -6.042, 1.709, -12.156, -70.477, 176.83, -25.013, -10.287, -12.880, 29.54, -0.08691, -0.56409, 0.10239, -0.81467,
 15:29:01.851,e3:ca:2d:fd:e0:8c, 2015-01-01 03:14:11.660, 0.969, -0.077, 0.327, 0.183, -5.493, 1.831, -12.299, -70.582, 176.995, -25.013, -10.287, -12.880, 29.54, -0.08691, -0.56409, 0.10239, -0.81467,
 15:29:01.853,ed:35:33:d3:6c:f8, 2015-01-01 03:14:10.885, 0.592, 0.207, 0.765, 11.78, 12.573, -12.451, 14.705, -36.486, 151.99, -16.500, -13.433, -23.980, 31.6, 0.17203, 0.34143, 0.02802, 0.92355,
 15:29:01.853,ed:35:33:d3:6c:f8, 2015-01-01 03:14:10.885, 0.591, 0.212, 0.769, 13.916, 14.221, -11.719, 15.073, -36.178, 151.699, -16.500, -13.433, -23.980, 31.6, 0.17203, 0.34143, 0.02802, 0.92355,
 15:29:01.853,f6:90:cc:01:6d:25, 2015-01-01 03:14:10.085, 0.873, 0.178, 0.431, 3.601, -1.343, -4.211, 23.088, -61.326, 179.434, -25.460, -15.593, -8.420, 31.87, 0.09909, -0.504, -0.16086, -0.84274,
 15:29:01.853,f6:90:cc:01:6d:25, 2015-01-01 03:14:10.085, 0.875, 0.176, 0.427, 4.333, -1.648, -4.7, 23.351, -61.32, 179.236, -25.460, -15.593, -8.420, 31.87, 0.09909, -0.504, -0.16086, -0.84274,
 15:29:01.873,ed:35:33:d3:6c:f8, 2015-01-01 03:14:10.885, 0.586, 0.211, 0.769, 15.808, 16.296, -10.681, 15.463, -35.843, 151.469, -16.500, -13.433, -23.980, 31.6, 0.17203, 0.34143, 0.02802, 0.92355,
 15:29:01.873,ed:35:33:d3:6c:f8, 2015-01-01 03:14:10.885, 0.577, 0.225, 0.781, 16.846, 18.066, -9.644, 15.848, -35.475, 151.287, -16.500, -13.433, -23.980, 31.6, 0.17203, 0.34143, 0.02802, 0.92355,
 15:29:01.894,ed:40:fe:65:30:6c, 2015-01-01 03:14:10.570, 0.83, 0.144, 0.54, 16.296, 15.93, -16.541, 15.837, -55.552, -142.416, -23.633, -12.373, -0.193, 26.71, 0.36023, -0.4328, -0.25323, -0.78656,
 15:29:01.894,ed:40:fe:65:30:6c, 2015-01-01 03:14:10.570, 0.825, 0.159, 0.554, 18.005, 18.188, -16.541, 16.485, -55.129, -142.795, -23.633, -12.373, -0.193, 26.71, 0.36023, -0.4328, -0.25323, -0.78656,
 15:29:01.894,e3:ca:2d:fd:e0:8c, 2015-01-01 03:14:11.660, 0.967, -0.078, 0.321, 0.488, -5.249, 1.709, -12.442, -70.67, 177.155, -25.013, -10.287, -12.880, 29.54, -0.08691, -0.56409, 0.10239, -0.81467,
 15:29:01.894,e3:ca:2d:fd:e0:8c, 2015-01-01 03:14:11.660, 0.971, -0.081, 0.314, 1.343, -4.761, 1.587, -12.568, -70.757, 177.286, -25.013, -10.287, -12.880, 29.54, -0.08691, -0.56409, 0.10239, -0.81467,
 15:29:01.897,f6:90:cc:01:6d:25, 2015-01-01 03:14:10.085, 0.875, 0.178, 0.423, 5.554, -1.526, -5.31, 23.654, -61.309, 179.028, -25.460, -15.593, -8.420, 31.87, 0.09909, -0.504, -0.16086, -0.84274,
 15:29:01.897,f6:90:cc:01:6d:25, 2015-01-01 03:14:10.085, 0.877, 0.176, 0.421, 6.836, -1.587, -5.798, 23.994, -61.293, 178.786, -25.460, -15.593, -8.420, 31.87, 0.09909, -0.504, -0.16086, -0.84274,
 15:29:01.919,ed:35:33:d3:6c:f8, 2015-01-01 03:14:10.885, 0.563, 0.243, 0.789, 16.724, 18.555, -8.667, 16.227, -35.096, 151.155, -16.500, -13.433, -23.980, 31.6, 0.17203, 0.34143, 0.02802, 0.92355,
 15:29:01.919,ed:35:33:d3:6c:f8, 2015-01-01 03:14:10.885, 0.562, 0.261, 0.796, 15.259, 17.517, -6.897, 16.567, -34.722, 151.084, -16.500, -13.433, -23.980, 31.6, 0.17203, 0.34143, 0.02802, 0.92355,
 15:29:01.939,e3:ca:2d:fd:e0:8c, 2015-01-01 03:14:11.660, 0.974, -0.084, 0.314, 2.319, -4.639, 1.16, -12.662, -70.84, 177.391, -25.013, -10.287, -12.880, 29.54, -0.08691, -0.56409, 0.10239, -0.81467,
 15:29:01.939,e3:ca:2d:fd:e0:8c, 2015-01-01 03:14:11.660, 0.972, -0.089, 0.319, 2.808, -3.845, 0.549, -12.7, -70.917, 177.446, -25.013, -10.287, -12.880, 29.54, -0.08691, -0.56409, 0.10239, -0.81467,
 15:29:01.942,f6:90:cc:01:6d:25, 2015-01-01 03:14:10.085, 0.879, 0.173, 0.42, 7.385, -1.587, -5.859, 24.346, -61.282, 178.544, -25.460, -15.593, -8.420, 31.87, 0.09726, -0.50046, -0.17285, -0.84268,
 15:29:01.942,f6:90:cc:01:6d:25, 2015-01-01 03:14:10.085, 0.875, 0.175, 0.418, 7.141, -0.854, -5.615, 24.664, -61.26, 178.341, -25.460, -15.593, -8.420, 31.87, 0.09726, -0.50046, -0.17285, -0.84268,
 15:29:01.962,ed:40:fe:65:30:6c, 2015-01-01 03:14:10.570, 0.822, 0.177, 0.56, 18.677, 19.043, -15.381, 17.1, -54.695, -143.119, -23.633, -12.373, -0.193, 26.71, 0.34271, -0.39349, -0.26654, -0.81027,
 15:29:01.962,ed:40:fe:65:30:6c, 2015-01-01 03:14:10.570, 0.818, 0.184, 0.565, 18.982, 18.982, -13.916, 17.666, -54.267, -143.388, -23.633, -12.373, -0.193, 26.71, 0.34271, -0.39349, -0.26654, -0.81027,
 15:29:01.984,e3:ca:2d:fd:e0:8c, 2015-01-01 03:14:11.660, 0.969, -0.091, 0.321, 2.441, -2.808, -0.244, -12.695, -70.972, 177.435, -25.013, -10.287, -12.880, 29.54, -0.08691, -0.56409, 0.10239, -0.81467,
 15:29:01.984,e3:ca:2d:fd:e0:8c, 2015-01-01 03:14:11.660, 0.965, -0.089, 0.322, 1.648, -1.953, -0.977, -12.651, -71.016, 177.374, -25.013, -10.287, -12.880, 29.54, -0.08691, -0.56409, 0.10239, -0.81467,
 15:29:01.985,ed:40:fe:65:30:6c, 2015-01-01 03:14:10.925, 0.809, 0.19, 0.571, 18.188, 18.555, -11.719, 18.155, -53.866, -143.591, -23.633, -12.373, -0.193, 26.71, 0.34271, -0.39349, -0.26654, -0.81027,
 15:29:01.985,ed:40:fe:65:30:6c, 2015-01-01 03:14:10.925, 0.799, 0.195, 0.582, 17.578, 17.944, -9.766, 18.583, -53.481, -143.718, -23.633, -12.373, -0.193, 26.71, 0.34271, -0.39349, -0.26654, -0.81027,
 15:29:01.986,ed:35:33:d3:6c:f8, 2015-01-01 03:14:10.885, 0.547, 0.259, 0.799, 16.296, 18.433, -4.822, 16.875, -34.365, 151.046, -15.287, -14.853, -24.947, 31.6, 0.17203, 0.34143, 0.02802, 0.92355,
 15:29:01.986,ed:35:33:d3:6c:f8, 2015-01-01 03:14:10.885, 0.536, 0.261, 0.812, 15.686, 17.944, -3.357, 17.166, -34.008, 151.007, -15.287, -14.853, -24.947, 31.6, 0.17203, 0.34143, 0.02802, 0.92355,
 15:29:01.987,f6:90:cc:01:6d:25, 2015-01-01 03:14:10.395, 0.869, 0.181, 0.418, 6.409, 0.061, -5.249, 24.944, -61.221, 178.187, -25.460, -15.593, -8.420, 31.87, 0.09726, -0.50046, -0.17285, -0.84268,
 15:29:01.987,f6:90:cc:01:6d:25, 2015-01-01 03:14:10.395, 0.864, 0.188, 0.417, 5.737, 0.854, -5.066, 25.186, -61.177, 178.033, -25.460, -15.593, -8.420, 31.87, 0.09726, -0.50046, -0.17285, -0.84268,
 15:29:02.005,e3:ca:2d:fd:e0:8c, 2015-01-01 03:14:11.660, 0.967, -0.084, 0.321, 1.465, -1.099, -1.465, -12.579, -71.049, 177.27, -25.007, -9.833, -12.607, 29.54, -0.08691, -0.56409, 0.10239, -0.81467,
 15:29:02.005,e3:ca:2d:fd:e0:8c, 2015-01-01 03:14:11.660, 0.967, -0.081, 0.319, 2.075, -0.244, -1.953, -12.464, -71.06, 177.127, -25.007, -9.833, -12.607, 29.54, -0.08691, -0.56409, 0.10239, -0.81467,
 15:29:02.007,ed:40:fe:65:30:6c, 2015-01-01 03:14:10.925, 0.793, 0.207, 0.586, 15.32, 16.418, -7.935, 18.929, -53.135, -143.8, -23.633, -12.373, -0.193, 26.71, 0.34271, -0.39349, -0.26654, -0.81027,
 15:29:02.007,ed:40:fe:65:30:6c, 2015-01-01 03:14:10.925, 0.788, 0.224, 0.586, 12.024, 13.977, -5.737, 19.177, -52.85, -143.86, -23.633, -12.373, -0.193, 26.71, 0.34271, -0.39349, -0.26654, -0.81027,
 15:29:02.008,ed:35:33:d3:6c:f8, 2015-01-01 03:14:10.885, 0.537, 0.277, 0.818, 12.329, 16.052, -1.953, 17.402, -33.684, 150.991, -15.287, -14.853, -24.947, 31.6, 0.19449, 0.31406, 0.06787, 0.92673,
 15:29:02.008,ed:35:33:d3:6c:f8, 2015-01-01 03:14:10.885, 0.524, 0.283, 0.814, 10.315, 14.282, -1.343, 17.584, -33.398, 151.002, -15.287, -14.853, -24.947, 31.6, 0.19449, 0.31406, 0.06787, 0.92673,
 15:29:02.032,f6:90:cc:01:6d:25, 2015-01-01 03:14:10.395, 0.865, 0.196, 0.415, 5.005, 1.221, -4.822, 25.4, -61.128, 177.891, -25.460, -15.593, -8.420, 31.87, 0.09726, -0.50046, -0.17285, -0.84268,
 15:29:02.032,f6:90:cc:01:6d:25, 2015-01-01 03:14:10.395, 0.865, 0.205, 0.417, 4.578, 1.343, -4.089, 25.587, -61.078, 177.77, -25.460, -15.593, -8.420, 31.87, 0.09726, -0.50046, -0.17285, -0.84268,
 15:29:02.051,e3:ca:2d:fd:e0:8c, 2015-01-01 03:14:11.660, 0.967, -0.079, 0.317, 2.441, 0, -2.136, -12.316, -71.071, 176.979, -25.007, -9.833, -12.607, 29.54, -0.08691, -0.56409, 0.10239, -0.81467,
 15:29:02.051,e3:ca:2d:fd:e0:8c, 2015-01-01 03:14:11.660, 0.966, -0.077, 0.317, 2.441, 0.305, -2.258, -12.162, -71.076, 176.841, -25.007, -9.833, -12.607, 29.54, -0.08691, -0.56409, 0.10239, -0.81467,
 15:29:02.053,ed:40:fe:65:30:6c, 2015-01-01 03:14:10.925, 0.792, 0.231, 0.583, 9.949, 10.925, -3.784, 19.363, -52.625, -143.899, -23.633, -12.373, -0.193, 26.71, 0.34271, -0.39349, -0.26654, -0.81027,
 15:29:02.053,ed:40:fe:65:30:6c, 2015-01-01 03:14:10.925, 0.789, 0.236, 0.595, 7.202, 8.667, -1.831, 19.473, -52.46, -143.888, -23.633, -12.373, -0.193, 26.71, 0.34271, -0.39349, -0.26654, -0.81027,
 15:29:02.053,ed:35:33:d3:6c:f8, 2015-01-01 03:14:10.885, 0.534, 0.298, 0.821, 7.202, 11.292, -0.061, 17.715, -33.157, 151.013, -15.287, -14.853, -24.947, 31.6, 0.19449, 0.31406, 0.06787, 0.92673,
 15:29:02.053,ed:35:33:d3:6c:f8, 2015-01-01 03:14:10.885, 0.521, 0.291, 0.82, 4.028, 7.812, 0.488, 17.792, -32.981, 151.051, -15.287, -14.853, -24.947, 31.6, 0.19449, 0.31406, 0.06787, 0.92673,
 15:29:02.054,f6:90:cc:01:6d:25, 2015-01-01 03:14:10.395, 0.862, 0.208, 0.418, 4.15, 1.77, -3.357, 25.735, -61.029, 177.682, -25.460, -15.593, -8.420, 31.87, 0.09726, -0.50046, -0.17285, -0.84268,
 15:29:02.054,f6:90:cc:01:6d:25, 2015-01-01 03:14:10.395, 0.863, 0.208, 0.423, 3.784, 1.404, -2.869, 25.867, -60.991, 177.621, -25.460, -15.593, -8.420, 31.87, 0.09726, -0.50046, -0.17285, -0.84268,
 15:29:02.077,ed:35:33:d3:6c:f8, 2015-01-01 03:14:11.220, 0.518, 0.294, 0.824, 3.235, 7.629, 1.465, 17.825, -32.844, 151.095, -15.287, -14.853, -24.947, 31.6, 0.19449, 0.31406, 0.06787, 0.92673,
 15:29:02.077,ed:35:33:d3:6c:f8, 2015-01-01 03:14:11.220, 0.52, 0.285, 0.824, 1.526, 3.967, 2.136, 17.836, -32.739, 151.133, -15.287, -14.853, -24.947, 31.6, 0.19449, 0.31406, 0.06787, 0.92673,
 15:29:02.097,ed:40:fe:65:30:6c, 2015-01-01 03:14:10.925, 0.783, 0.233, 0.598, 5.859, 7.08, -0.244, 19.534, -52.328, -143.844, -23.633, -12.373, -0.193, 26.71, 0.34271, -0.39349, -0.26654, -0.81027,
 15:29:02.097,ed:40:fe:65:30:6c, 2015-01-01 03:14:10.925, 0.778, 0.231, 0.603, 5.066, 6.042, 0.61, 19.572, -52.224, -143.778, -23.633, -12.373, -0.193, 26.71, 0.34271, -0.39349, -0.26654, -0.81027,
 15:29:02.100,f6:90:cc:01:6d:25, 2015-01-01 03:14:10.395, 0.86, 0.212, 0.426, 3.174, 1.099, -2.258, 25.977, -60.958, 177.589, -25.460, -15.593, -8.420, 31.87, 0.09726, -0.50046, -0.17285, -0.84268,
 15:29:02.100,f6:90:cc:01:6d:25, 2015-01-01 03:14:10.395, 0.858, 0.214, 0.428, 2.869, 0.671, -1.587, 26.071, -60.941, 177.567, -25.460, -15.593, -8.420, 31.87, 0.09726, -0.50046, -0.17285, -0.84268,
 15:29:02.119,e3:ca:2d:fd:e0:8c, 2015-01-01 03:14:11.660, 0.965, -0.075, 0.318, 2.686, 0.732, -2.075, -12.003, -71.071, 176.715, -25.007, -9.833, -12.607, 29.54, -0.0838, -0.57535, 0.1022, -0.8071,
 15:29:02.119,e3:ca:2d:fd:e0:8c, 2015-01-01 03:14:11.660, 0.962, -0.074, 0.32, 3.113, 0.793, -1.892, -11.849, -71.065, 176.594, -25.007, -9.833, -12.607, 29.54, -0.0838, -0.57535, 0.1022, -0.8071,
 15:29:02.121,ed:40:fe:65:30:6c, 2015-01-01 03:14:10.925, 0.777, 0.228, 0.598, 4.456, 4.456, 1.282, 19.594, -52.147, -143.707, -23.633, -12.373, -0.193, 26.71, 0.34271, -0.39349, -0.26654, -0.81027,
 15:29:02.121,ed:40:fe:65:30:6c, 2015-01-01 03:14:10.925, 0.775, 0.22, 0.598, 4.089, 3.235, 1.404, 19.622, -52.092, -143.646, -23.633, -12.373, -0.193, 26.71, 0.34271, -0.39349, -0.26654, -0.81027,
 15:29:02.122,ed:35:33:d3:6c:f8, 2015-01-01 03:14:11.220, 0.519, 0.273, 0.819, 0.977, 2.441, 2.441, 17.831, -32.69, 151.161, -15.287, -14.853, -24.947, 31.6, 0.19449, 0.31406, 0.06787, 0.92673,
 15:29:02.122,ed:35:33:d3:6c:f8, 2015-01-01 03:14:11.220, 0.517, 0.265, 0.816, 1.526, 2.625, 2.136, 17.825, -32.646, 151.221, -15.287, -14.853, -24.947, 31.6, 0.19449, 0.31406, 0.06787, 0.92673,
 15:29:02.143,e3:ca:2d:fd:e0:8c, 2015-01-01 03:14:12.040, 0.963, -0.071, 0.32, 2.502, 0.305, -1.648, -11.711, -71.065, 176.501, -25.007, -9.833, -12.607, 29.54, -0.0838, -0.57535, 0.1022, -0.8071,
 15:29:02.143,e3:ca:2d:fd:e0:8c, 2015-01-01 03:14:12.040, 0.964, -0.069, 0.321, 1.77, -0.061, -1.77, -11.596, -71.071, 176.407, -25.007, -9.833, -12.607, 29.54, -0.0838, -0.57535, 0.1022, -0.8071,
 15:29:02.145,f6:90:cc:01:6d:25, 2015-01-01 03:14:10.395, 0.859, 0.217, 0.427, 2.197, 0.244, -1.038, 26.136, -60.936, 177.545, -25.460, -15.593, -8.420, 31.87, 0.09726, -0.50046, -0.17285, -0.84268,
 15:29:02.145,f6:90:cc:01:6d:25, 2015-01-01 03:14:10.395, 0.858, 0.219, 0.428, 1.709, 0, -0.854, 26.191, -60.93, 177.517, -25.460, -15.593, -8.420, 31.87, 0.09726, -0.50046, -0.17285, -0.84268,
 15:29:02.164,e3:ca:2d:fd:e0:8c, 2015-01-01 03:14:12.040, 0.963, -0.066, 0.323, 1.038, 0, -1.77, -11.492, -71.082, 176.325, -25.007, -9.833, -12.607, 29.54, -0.0838, -0.57535, 0.1022, -0.8071,
 15:29:02.164,e3:ca:2d:fd:e0:8c, 2015-01-01 03:14:12.040, 0.963, -0.062, 0.326, 0.488, 0.122, -1.892, -11.387, -71.087, 176.221, -25.007, -9.833, -12.607, 29.54, -0.0838, -0.57535, 0.1022, -0.8071,
 15:29:02.165,ed:35:33:d3:6c:f8, 2015-01-01 03:14:11.220, 0.52, 0.262, 0.812, 0.793, -0.916, 2.38, 17.825, -32.635, 151.287, -15.287, -14.853, -24.947, 31.6, 0.19449, 0.31406, 0.06787, 0.92673,
 15:29:02.165,ed:35:33:d3:6c:f8, 2015-01-01 03:14:11.220, 0.52, 0.256, 0.807, 0.916, -1.16, 2.014, 17.825, -32.657, 151.337, -15.287, -14.853, -24.947, 31.6, 0.19449, 0.31406, 0.06787, 0.92673,
 15:29:02.191,ed:40:fe:65:30:6c, 2015-01-01 03:14:10.925, 0.775, 0.215, 0.593, 4.089, 2.441, 1.099, 19.66, -52.042, -143.597, -23.633, -12.373, -0.193, 26.71, 0.34271, -0.39349, -0.26654, -0.81027,
 15:29:02.191,ed:40:fe:65:30:6c, 2015-01-01 03:14:10.925, 0.774, 0.213, 0.595, 3.906, 1.465, 0.732, 19.709, -52.015, -143.564, -23.633, -12.373, -0.193, 26.71, 0.34271, -0.39349, -0.26654, -0.81027,
 15:29:02.191,f6:90:cc:01:6d:25, 2015-01-01 03:14:10.395, 0.855, 0.22, 0.428, 1.709, 0, -1.038, 26.263, -60.925, 177.484, -25.067, -16.387, -7.840, 31.87, 0.09726, -0.50046, -0.17285, -0.84268,
 15:29:02.191,f6:90:cc:01:6d:25, 2015-01-01 03:14:10.395, 0.856, 0.22, 0.432, 1.526, -0.183, -1.587, 26.345, -60.919, 177.435, -25.067, -16.387, -7.840, 31.87, 0.09726, -0.50046, -0.17285, -0.84268,
 15:29:02.209,e3:ca:2d:fd:e0:8c, 2015-01-01 03:14:12.040, 0.963, -0.06, 0.329, 0.549, 0.122, -1.892, -11.277, -71.093, 176.111, -25.007, -9.833, -12.607, 29.54, -0.0838, -0.57535, 0.1022, -0.8071,
 15:29:02.209,e3:ca:2d:fd:e0:8c, 2015-01-01 03:14:12.040, 0.962, -0.058, 0.327, 0.977, 0.305, -1.831, -11.162, -71.093, 176.012, -25.007, -9.833, -12.607, 29.54, -0.0838, -0.57535, 0.1022, -0.8071,
 15:29:02.211,ed:40:fe:65:30:6c, 2015-01-01 03:14:10.925, 0.773, 0.216, 0.593, 2.747, 1.587, 0.488, 19.742, -51.982, -143.547, -22.240, -14.567, -0.447, 26.71, 0.34271, -0.39349, -0.26654, -0.81027,
 15:29:02.211,ed:40:fe:65:30:6c, 2015-01-01 03:14:10.925, 0.772, 0.219, 0.592, 2.014, 1.587, 0.366, 19.764, -51.943, -143.536, -22.240, -14.567, -0.447, 26.71, 0.34271, -0.39349, -0.26654, -0.81027,
 15:29:02.211,ed:35:33:d3:6c:f8, 2015-01-01 03:14:11.220, 0.52, 0.261, 0.803, 0.366, -0.671, 1.587, 17.825, -32.673, 151.386, -15.287, -14.853, -24.947, 31.6, 0.19449, 0.31406, 0.06787, 0.92673,
 15:29:02.211,ed:35:33:d3:6c:f8, 2015-01-01 03:14:11.220, 0.519, 0.264, 0.805, 0.671, -0.183, 1.343, 17.825, -32.679, 151.419, -15.287, -14.853, -24.947, 31.6, 0.19449, 0.31406, 0.06787, 0.92673,
 15:29:02.236,f6:90:cc:01:6d:25, 2015-01-01 03:14:10.395, 0.854, 0.219, 0.432, 1.648, -0.244, -2.014, 26.45, -60.903, 177.363, -25.067, -16.387, -7.840, 31.87, 0.09662, -0.49777, -0.18579, -0.84158,
 15:29:02.236,f6:90:cc:01:6d:25, 2015-01-01 03:14:10.395, 0.858, 0.227, 0.429, 2.502, -0.183, -2.319, 26.565, -60.892, 177.281, -25.067, -16.387, -7.840, 31.87, 0.09662, -0.49777, -0.18579, -0.84158,
 15:29:02.255,ed:40:fe:65:30:6c, 2015-01-01 03:14:10.925, 0.773, 0.22, 0.593, 2.197, 1.343, 0.183, 19.797, -51.91, -143.542, -22.240, -14.567, -0.447, 26.71, 0.34271, -0.39349, -0.26654, -0.81027,
 15:29:02.255,ed:40:fe:65:30:6c, 2015-01-01 03:14:10.925, 0.776, 0.222, 0.593, 2.686, 0.854, -0.061, 19.852, -51.883, -143.564, -22.240, -14.567, -0.447, 26.71, 0.34271, -0.39349, -0.26654, -0.81027,
 15:29:02.256,ed:35:33:d3:6c:f8, 2015-01-01 03:14:11.220, 0.521, 0.265, 0.807, 1.343, 0, 1.282, 17.831, -32.679, 151.496, -15.287, -14.853, -24.947, 31.6, 0.19449, 0.31406, 0.06787, 0.92673,
 15:29:02.256,ed:35:33:d3:6c:f8, 2015-01-01 03:14:11.220, 0.525, 0.267, 0.808, 2.075, -0.244, 1.221, 17.853, -32.679, 151.567, -15.287, -14.853, -24.947, 31.6, 0.19449, 0.31406, 0.06787, 0.92673,
 15:29:02.258,f6:90:cc:01:6d:25, 2015-01-01 03:14:10.685, 0.859, 0.229, 0.432, 2.869, -0.122, -2.502, 26.697, -60.87, 177.204, -25.067, -16.387, -7.840, 31.87, 0.09662, -0.49777, -0.18579, -0.84158,
 15:29:02.258,f6:90:cc:01:6d:25, 2015-01-01 03:14:10.685, 0.861, 0.231, 0.433, 2.808, -0.183, -2.625, 26.84, -60.848, 177.133, -25.067, -16.387, -7.840, 31.87, 0.09662, -0.49777, -0.18579, -0.84158,
 15:29:02.276,e3:ca:2d:fd:e0:8c, 2015-01-01 03:14:12.040, 0.966, -0.056, 0.328, 0.916, 0.549, -1.709, -11.047, -71.087, 175.897, -25.007, -9.833, -12.607, 29.54, -0.0838, -0.57535, 0.1022, -0.8071,
 15:29:02.276,e3:ca:2d:fd:e0:8c, 2015-01-01 03:14:12.040, 0.966, -0.055, 0.328, 0.732, 0.793, -1.587, -10.931, -71.082, 175.77, -25.007, -9.833, -12.607, 29.54, -0.0838, -0.57535, 0.1022, -0.8071,
 15:29:02.299,e3:ca:2d:fd:e0:8c, 2015-01-01 03:14:12.040, 0.968, -0.051, 0.327, 0.549, 0.671, -1.404, -10.827, -71.071, 175.644, -25.007, -9.833, -12.607, 29.54, -0.0838, -0.57535, 0.1022, -0.8071,
 15:29:02.299,e3:ca:2d:fd:e0:8c, 2015-01-01 03:14:12.040, 0.969, -0.052, 0.326, 0.549, 0.427, -1.343, -10.734, -71.065, 175.556, -25.007, -9.833, -12.607, 29.54, -0.0838, -0.57535, 0.1022, -0.8071,
 15:29:02.301,ed:35:33:d3:6c:f8, 2015-01-01 03:14:11.220, 0.527, 0.267, 0.804, 2.563, -1.221, 1.038, 17.897, -32.684, 151.633, -15.287, -14.853, -24.947, 31.6, 0.19449, 0.31406, 0.06787, 0.92673,
 15:29:02.301,ed:35:33:d3:6c:f8, 2015-01-01 03:14:11.220, 0.527, 0.274, 0.802, 2.38, -1.648, 0.732, 17.941, -32.706, 151.672, -15.287, -14.853, -24.947, 31.6, 0.19449, 0.31406, 0.06787, 0.92673,
 15:29:02.303,f6:90:cc:01:6d:25, 2015-01-01 03:14:10.685, 0.861, 0.234, 0.431, 2.563, -0.305, -2.686, 26.988, -60.826, 177.072, -25.067, -16.387, -7.840, 31.87, 0.09662, -0.49777, -0.18579, -0.84158,
 15:29:02.303,f6:90:cc:01:6d:25, 2015-01-01 03:14:10.685, 0.861, 0.235, 0.431, 2.258, -0.61, -2.808, 27.136, -60.804, 177.023, -25.067, -16.387, -7.840, 31.87, 0.09662, -0.49777, -0.18579, -0.84158,
 15:29:02.323,ed:40:fe:65:30:6c, 2015-01-01 03:14:10.925, 0.778, 0.225, 0.591, 3.113, 0, -0.305, 19.924, -51.872, -143.602, -22.240, -14.567, -0.447, 26.71, 0.34851, -0.36084, -0.28195, -0.81775,
 15:29:02.323,ed:40:fe:65:30:6c, 2015-01-01 03:14:10.925, 0.78, 0.229, 0.59, 2.991, 0, -0.671, 20.006, -51.855, -143.646, -22.240, -14.567, -0.447, 26.71, 0.34851, -0.36084, -0.28195, -0.81775,
 15:29:02.323,ed:35:33:d3:6c:f8, 2015-01-01 03:14:11.220, 0.526, 0.272, 0.806, 2.869, -1.465, 0.183, 18.001, -32.723, 151.666, -13.933, -15.333, -25.840, 31.6, 0.19449, 0.31406, 0.06787, 0.92673,
 15:29:02.323,ed:35:33:d3:6c:f8, 2015-01-01 03:14:11.220, 0.53, 0.268, 0.806, 4.15, -1.831, -0.061, 18.078, -32.745, 151.666, -13.933, -15.333, -25.840, 31.6, 0.19449, 0.31406, 0.06787, 0.92673,
 15:29:02.344,e3:ca:2d:fd:e0:8c, 2015-01-01 03:14:12.040, 0.966, -0.056, 0.326, 0.793, 0.122, -1.465, -10.629, -71.071, 175.479, -25.007, -9.833, -12.607, 29.54, -0.0838, -0.57535, 0.1022, -0.8071,
 15:29:02.344,e3:ca:2d:fd:e0:8c, 2015-01-01 03:14:12.040, 0.967, -0.056, 0.325, 0.305, -0.244, -1.343, -10.536, -71.076, 175.402, -25.007, -9.833, -12.607, 29.54, -0.0838, -0.57535, 0.1022, -0.8071,
 15:29:02.345,ed:40:fe:65:30:6c, 2015-01-01 03:14:11.285, 0.778, 0.232, 0.592, 2.869, 0, -0.916, 20.094, -51.839, -143.701, -22.240, -14.567, -0.447, 26.71, 0.34851, -0.36084, -0.28195, -0.81775,
 15:29:02.346,ed:40:fe:65:30:6c, 2015-01-01 03:14:11.285, 0.78, 0.227, 0.595, 3.784, -0.183, -1.526, 20.215, -51.823, -143.767, -22.240, -14.567, -0.447, 26.71, 0.34851, -0.36084, -0.28195, -0.81775,
 15:29:02.348,f6:90:cc:01:6d:25, 2015-01-01 03:14:10.685, 0.862, 0.233, 0.43, 2.075, -0.977, -2.991, 27.29, -60.787, 176.968, -25.067, -16.387, -7.840, 31.87, 0.09662, -0.49777, -0.18579, -0.84158,
 15:29:02.348,f6:90:cc:01:6d:25, 2015-01-01 03:14:10.685, 0.858, 0.233, 0.426, 1.709, -0.977, -3.052, 27.444, -60.771, 176.902, -25.067, -16.387, -7.840, 31.87, 0.09662, -0.49777, -0.18579, -0.84158,
 15:29:02.366,e3:ca:2d:fd:e0:8c, 2015-01-01 03:14:12.040, 0.965, -0.057, 0.324, -0.183, -0.549, -1.404, -10.459, -71.093, 175.309, -25.213, -10.873, -11.753, 29.54, -0.0838, -0.57535, 0.1022, -0.8071,
 15:29:02.366,e3:ca:2d:fd:e0:8c, 2015-01-01 03:14:12.040, 0.963, -0.056, 0.322, -0.732, -0.793, -1.404, -10.393, -71.109, 175.204, -25.213, -10.873, -11.753, 29.54, -0.0838, -0.57535, 0.1022, -0.8071,
 15:29:02.367,ed:40:fe:65:30:6c, 2015-01-01 03:14:11.285, 0.777, 0.224, 0.59, 3.479, -0.488, -1.953, 20.341, -51.806, -143.849, -22.240, -14.567, -0.447, 26.71, 0.34851, -0.36084, -0.28195, -0.81775,
 15:29:02.367,ed:40:fe:65:30:6c, 2015-01-01 03:14:11.285, 0.777, 0.227, 0.59, 2.502, -0.732, -2.441, 20.457, -51.79, -143.932, -22.240, -14.567, -0.447, 26.71, 0.34851, -0.36084, -0.28195, -0.81775,
 15:29:02.368,ed:35:33:d3:6c:f8, 2015-01-01 03:14:11.220, 0.527, 0.265, 0.803, 3.54, -2.197, -0.549, 18.171, -32.767, 151.644, -13.933, -15.333, -25.840, 31.6, 0.19449, 0.31406, 0.06787, 0.92673,
 15:29:02.368,ed:35:33:d3:6c:f8, 2015-01-01 03:14:11.220, 0.529, 0.268, 0.801, 2.93, -2.197, -1.404, 18.259, -32.794, 151.578, -13.933, -15.333, -25.840, 31.6, 0.19449, 0.31406, 0.06787, 0.92673,
 15:29:02.392,f6:90:cc:01:6d:25, 2015-01-01 03:14:10.685, 0.857, 0.237, 0.425, 1.16, -1.099, -3.174, 27.598, -60.76, 176.841, -25.067, -16.387, -7.840, 31.87, 0.09662, -0.49777, -0.18579, -0.84158,
 15:29:02.392,f6:90:cc:01:6d:25, 2015-01-01 03:14:10.685, 0.866, 0.238, 0.429, 0.793, -1.343, -3.235, 27.74, -60.749, 176.759, -25.067, -16.387, -7.840, 31.87, 0.09662, -0.49777, -0.18579, -0.84158,
 15:29:02.412,e3:ca:2d:fd:e0:8c, 2015-01-01 03:14:12.040, 0.967, -0.055, 0.321, -1.038, -1.221, -1.282, -10.349, -71.136, 175.1, -25.213, -10.873, -11.753, 29.54, -0.0838, -0.57535, 0.1022, -0.8071,
 15:29:02.412,e3:ca:2d:fd:e0:8c, 2015-01-01 03:14:12.040, 0.976, -0.055, 0.32, -0.732, -2.38, -1.221, -10.311, -71.186, 175.007, -25.213, -10.873, -11.753, 29.54, -0.0838, -0.57535, 0.1022, -0.8071,
 15:29:02.416,ed:40:fe:65:30:6c, 2015-01-01 03:14:11.285, 0.778, 0.232, 0.59, 0.732, -0.916, -3.113, 20.561, -51.779, -144.042, -22.240, -14.567, -0.447, 26.71, 0.34851, -0.36084, -0.28195, -0.81775,
 15:29:02.416,ed:40:fe:65:30:6c, 2015-01-01 03:14:11.285, 0.786, 0.238, 0.58, -0.732, -1.038, -4.028, 20.654, -51.757, -144.185, -22.240, -14.567, -0.447, 26.71, 0.34851, -0.36084, -0.28195, -0.81775,
 15:29:02.418,f6:90:cc:01:6d:25, 2015-01-01 03:14:10.685, 0.874, 0.24, 0.426, -0.122, 0.122, -3.174, 27.878, -60.732, 176.688, -25.067, -16.387, -7.840, 31.87, 0.09662, -0.49777, -0.18579, -0.84158,
 15:29:02.418,f6:90:cc:01:6d:25, 2015-01-01 03:14:10.685, 0.864, 0.251, 0.414, -1.77, 2.075, -2.747, 27.96, -60.688, 176.638, -25.067, -16.387, -7.840, 31.87, 0.09662, -0.49777, -0.18579, -0.84158,
 15:29:02.436,ed:35:33:d3:6c:f8, 2015-01-01 03:14:11.220, 0.531, 0.271, 0.801, 1.77, -1.831, -2.869, 18.342, -32.805, 151.479, -13.933, -15.333, -25.840, 31.6, 0.18896, 0.30743, 0.07904, 0.9292,
 15:29:02.436,ed:35:33:d3:6c:f8, 2015-01-01 03:14:11.220, 0.54, 0.277, 0.804, 2.014, -1.953, -4.15, 18.43, -32.805, 151.37, -13.933, -15.333, -25.840, 31.6, 0.18896, 0.30743, 0.07904, 0.9292,
 15:29:02.457,ed:40:fe:65:30:6c, 2015-01-01 03:14:11.285, 0.787, 0.246, 0.577, -0.183, -4.089, -6.104, 20.841, -51.784, -144.432, -22.240, -14.567, -0.447, 26.71, 0.34851, -0.36084, -0.28195, -0.81775,
 15:29:02.457,ed:40:fe:65:30:6c, 2015-01-01 03:14:11.285, 0.788, 0.22, 0.583, -2.869, -4.089, -7.446, 21.05, -51.817, -144.739, -22.240, -14.567, -0.447, 26.71, 0.34851, -0.36084, -0.28195, -0.81775,
 15:29:02.458,ed:35:33:d3:6c:f8, 2015-01-01 03:14:11.220, 0.549, 0.274, 0.811, 5.493, -3.174, -5.798, 18.578, -32.811, 151.221, -13.933, -15.333, -25.840, 31.6, 0.18896, 0.30743, 0.07904, 0.9292,
 15:29:02.458,ed:35:33:d3:6c:f8, 2015-01-01 03:14:11.220, 0.542, 0.269, 0.802, 5.615, -4.944, -7.446, 18.787, -32.838, 151.013, -13.933, -15.333, -25.840, 31.6, 0.18896, 0.30743, 0.07904, 0.9292,
 15:29:02.460,f6:90:cc:01:6d:25, 2015-01-01 03:14:10.685, 0.866, 0.241, 0.414, -2.197, 0.427, -2.991, 27.999, -60.634, 176.583, -25.067, -16.387, -7.840, 31.87, 0.09662, -0.49777, -0.18579, -0.84158,
 15:29:02.460,f6:90:cc:01:6d:25, 2015-01-01 03:14:10.685, 0.872, 0.241, 0.408, -1.648, 1.16, -3.296, 28.054, -60.59, 176.49, -25.067, -16.387, -7.840, 31.87, 0.09662, -0.49777, -0.18579, -0.84158,
 15:29:02.478,e3:ca:2d:fd:e0:8c, 2015-01-01 03:14:12.040, 0.975, -0.053, 0.314, 0.061, -3.723, -1.221, -10.272, -71.257, 174.919, -25.213, -10.873, -11.753, 29.54, -0.08725, -0.57574, 0.09814, -0.80695,
 15:29:02.478,e3:ca:2d:fd:e0:8c, 2015-01-01 03:14:12.040, 0.972, -0.051, 0.308, 0.671, -4.578, -1.343, -10.228, -71.345, 174.842, -25.213, -10.873, -11.753, 29.54, -0.08725, -0.57574, 0.09814, -0.80695,
 15:29:02.501,e3:ca:2d:fd:e0:8c, 2015-01-01 03:14:12.395, 0.977, -0.051, 0.308, 1.221, -4.639, -1.343, -10.173, -71.444, 174.787, -25.213, -10.873, -11.753, 29.54, -0.08725, -0.57574, 0.09814, -0.80695,
 15:29:02.501,e3:ca:2d:fd:e0:8c, 2015-01-01 03:14:12.395, 0.976, -0.055, 0.313, 1.282, -3.845, -1.526, -10.096, -71.532, 174.743, -25.213, -10.873, -11.753, 29.54, -0.08725, -0.57574, 0.09814, -0.80695,
 15:29:02.502,ed:40:fe:65:30:6c, 2015-01-01 03:14:11.285, 0.786, 0.232, 0.553, -2.991, -5.188, -8.484, 21.22, -51.839, -145.031, -22.240, -14.567, -0.447, 26.71, 0.34851, -0.36084, -0.28195, -0.81775,
 15:29:02.502,ed:40:fe:65:30:6c, 2015-01-01 03:14:11.285, 0.786, 0.215, 0.569, -2.136, -5.066, -9.583, 21.418, -51.861, -145.382, -22.240, -14.567, -0.447, 26.71, 0.34851, -0.36084, -0.28195, -0.81775,
 15:29:02.503,ed:35:33:d3:6c:f8, 2015-01-01 03:14:11.220, 0.551, 0.269, 0.783, 2.319, -4.456, -7.507, 18.973, -32.871, 150.771, -13.933, -15.333, -25.840, 31.6, 0.18896, 0.30743, 0.07904, 0.9292,
 15:29:02.503,ed:35:33:d3:6c:f8, 2015-01-01 03:14:11.220, 0.544, 0.267, 0.771, 1.648, -7.202, -9.399, 19.138, -32.921, 150.507, -13.933, -15.333, -25.840, 31.6, 0.18896, 0.30743, 0.07904, 0.9292,
 15:29:02.505,f6:90:cc:01:6d:25, 2015-01-01 03:14:10.685, 0.864, 0.237, 0.412, -2.869, 1.038, -3.418, 28.12, -60.546, 176.407, -25.220, -16.320, -7.813, 31.87, 0.09662, -0.49777, -0.18579, -0.84158,
 15:29:02.505,f6:90:cc:01:6d:25, 2015-01-01 03:14:10.685, 0.855, 0.224, 0.421, -3.54, 1.221, -3.723, 28.163, -60.496, 176.298, -25.220, -16.320, -7.813, 31.87, 0.09662, -0.49777, -0.18579, -0.84158,
 15:29:02.526,ed:35:33:d3:6c:f8, 2015-01-01 03:14:11.220, 0.543, 0.25, 0.78, 2.136, -5.798, -9.705, 19.314, -32.975, 150.189, -13.933, -15.333, -25.840, 31.62, 0.18896, 0.30743, 0.07904, 0.9292,
 15:29:02.526,ed:35:33:d3:6c:f8, 2015-01-01 03:14:11.220, 0.542, 0.272, 0.777, 0.183, -3.052, -9.521, 19.462, -32.992, 149.87, -13.933, -15.333, -25.840, 31.62, 0.18896, 0.30743, 0.07904, 0.9292,
 15:29:02.547,ed:40:fe:65:30:6c, 2015-01-01 03:14:11.285, 0.786, 0.211, 0.57, -4.578, -4.761, -9.399, 21.638, -51.883, -145.756, -22.240, -14.567, -0.447, 26.71, 0.34851, -0.36084, -0.28195, -0.81775,
 15:29:02.547,ed:40:fe:65:30:6c, 2015-01-01 03:14:11.285, 0.786, 0.229, 0.573, -6.775, -3.418, -8.24, 21.786, -51.894, -146.102, -22.240, -14.567, -0.447, 26.71, 0.34851, -0.36084, -0.28195, -0.81775,
 15:29:02.547,e3:ca:2d:fd:e0:8c, 2015-01-01 03:14:12.395, 0.966, -0.06, 0.321, -0.305, -2.502, -1.831, -10.02, -71.598, 174.655, -25.213, -10.873, -11.753, 29.54, -0.08725, -0.57574, 0.09814, -0.80695,
 15:29:02.547,e3:ca:2d:fd:e0:8c, 2015-01-01 03:14:12.395, 0.962, -0.063, 0.319, -2.747, -1.343, -2.38, -9.943, -71.636, 174.529, -25.213, -10.873, -11.753, 29.54, -0.08725, -0.57574, 0.09814, -0.80695,
 15:29:02.550,f6:90:cc:01:6d:25, 2015-01-01 03:14:10.685, 0.854, 0.214, 0.424, -3.845, 1.221, -4.15, 28.207, -60.441, 176.166, -25.220, -16.320, -7.813, 31.87, 0.09479, -0.49496, -0.19415, -0.84155,
 15:29:02.550,f6:90:cc:01:6d:25, 2015-01-01 03:14:10.685, 0.858, 0.214, 0.419, -3.601, 1.16, -4.028, 28.246, -60.392, 176.012, -25.220, -16.320, -7.813, 31.87, 0.09479, -0.49496, -0.19415, -0.84155,
 15:29:02.570,ed:40:fe:65:30:6c, 2015-01-01 03:14:11.285, 0.79, 0.236, 0.57, -7.935, -2.625, -7.446, 21.857, -51.894, -146.398, -21.933, -15.053, -0.793, 26.71, 0.34851, -0.36084, -0.28195, -0.81775,
 15:29:02.570,ed:40:fe:65:30:6c, 2015-01-01 03:14:11.285, 0.785, 0.246, 0.561, -13.794, -1.892, -5.31, 21.852, -51.888, -146.64, -21.933, -15.053, -0.793, 26.71, 0.34851, -0.36084, -0.28195, -0.81775,
 15:29:02.570,e3:ca:2d:fd:e0:8c, 2015-01-01 03:14:12.395, 0.963, -0.067, 0.311, -4.272, -0.427, -2.991, -9.866, -71.658, 174.364, -25.213, -10.873, -11.753, 29.54, -0.08725, -0.57574, 0.09814, -0.80695,
 15:29:02.570,e3:ca:2d:fd:e0:8c, 2015-01-01 03:14:12.395, 0.965, -0.07, 0.305, -4.028, -0.183, -3.54, -9.75, -71.675, 174.166, -25.213, -10.873, -11.753, 29.54, -0.08725, -0.57574, 0.09814, -0.80695,
 15:29:02.571,ed:35:33:d3:6c:f8, 2015-01-01 03:14:11.220, 0.545, 0.292, 0.782, -1.038, -3.174, -8.972, 19.572, -32.986, 149.601, -13.933, -15.333, -25.840, 31.62, 0.18896, 0.30743, 0.07904, 0.9292,
 15:29:02.571,ed:35:33:d3:6c:f8, 2015-01-01 03:14:11.220, 0.549, 0.294, 0.78, -2.563, -2.197, -8.728, 19.649, -32.975, 149.326, -13.933, -15.333, -25.840, 31.62, 0.18896, 0.30743, 0.07904, 0.9292,
 15:29:02.594,f6:90:cc:01:6d:25, 2015-01-01 03:14:11.000, 0.856, 0.217, 0.416, -3.052, 0.916, -3.479, 28.279, -60.342, 175.875, -25.220, -16.320, -7.813, 31.87, 0.09479, -0.49496, -0.19415, -0.84155,
 15:29:02.594,f6:90:cc:01:6d:25, 2015-01-01 03:14:11.000, 0.85, 0.214, 0.422, -1.831, 1.404, -3.54, 28.317, -60.298, 175.765, -25.220, -16.320, -7.813, 31.87, 0.09479, -0.49496, -0.19415, -0.84155,
 15:29:02.615,e3:ca:2d:fd:e0:8c, 2015-01-01 03:14:12.395, 0.962, -0.071, 0.308, -2.747, -0.061, -3.784, -9.597, -71.686, 173.963, -25.213, -10.873, -11.753, 29.54, -0.08725, -0.57574, 0.09814, -0.80695,
 15:29:02.615,e3:ca:2d:fd:e0:8c, 2015-01-01 03:14:12.395, 0.959, -0.074, 0.314, -1.099, 0.366, -3.296, -9.443, -71.691, 173.798, -25.213, -10.873, -11.753, 29.54, -0.08725, -0.57574, 0.09814, -0.80695,
 15:29:02.615,ed:40:fe:65:30:6c, 2015-01-01 03:14:11.285, 0.776, 0.259, 0.561, -18.372, -0.061, -2.686, 21.682, -51.877, -146.805, -21.933, -15.053, -0.793, 26.71, 0.34851, -0.36084, -0.28195, -0.81775,
 15:29:02.615,ed:40:fe:65:30:6c, 2015-01-01 03:14:11.285, 0.779, 0.257, 0.57, -21.729, 3.052, -0.549, 21.352, -51.85, -146.865, -21.933, -15.053, -0.793, 26.71, 0.34851, -0.36084, -0.28195, -0.81775,
 15:29:02.617,ed:35:33:d3:6c:f8, 2015-01-01 03:14:11.735, 0.542, 0.312, 0.764, -9.033, -0.366, -8.301, 19.638, -32.948, 149.09, -13.933, -15.333, -25.840, 31.62, 0.18896, 0.30743, 0.07904, 0.9292,
 15:29:02.618,ed:35:33:d3:6c:f8, 2015-01-01 03:14:11.735, 0.537, 0.321, 0.764, -14.771, 0.977, -8.057, 19.501, -32.888, 148.881, -13.933, -15.333, -25.840, 31.62, 0.18896, 0.30743, 0.07904, 0.9292,
 15:29:02.619,f6:90:cc:01:6d:25, 2015-01-01 03:14:11.000, 0.845, 0.215, 0.431, 0, 1.404, -3.052, 28.378, -60.249, 175.677, -25.220, -16.320, -7.813, 31.87, 0.09479, -0.49496, -0.19415, -0.84155,
 15:29:02.619,f6:90:cc:01:6d:25, 2015-01-01 03:14:11.000, 0.846, 0.217, 0.433, 2.625, 0.977, -1.892, 28.449, -60.216, 175.6, -25.220, -16.320, -7.813, 31.87, 0.09479, -0.49496, -0.19415, -0.84155,
 15:29:02.639,ed:35:33:d3:6c:f8, 2015-01-01 03:14:11.735, 0.526, 0.316, 0.773, -16.968, -0.427, -8.606, 19.297, -32.833, 148.661, -13.933, -15.333, -25.840, 31.62, 0.18896, 0.30743, 0.07904, 0.9292,
 15:29:02.639,ed:35:33:d3:6c:f8, 2015-01-01 03:14:11.735, 0.511, 0.3, 0.798, -15.93, -1.465, -6.958, 19.089, -32.8, 148.42, -13.933, -15.333, -25.840, 31.62, 0.18896, 0.30743, 0.07904, 0.9292,
 15:29:02.663,f6:90:cc:01:6d:25, 2015-01-01 03:14:11.000, 0.848, 0.23, 0.43, 5.005, 0.916, -1.343, 28.548, -60.189, 175.562, -25.220, -16.320, -7.813, 31.87, 0.09479, -0.49496, -0.19415, -0.84155,
 15:29:02.663,f6:90:cc:01:6d:25, 2015-01-01 03:14:11.000, 0.848, 0.239, 0.427, 5.92, 1.16, -0.793, 28.663, -60.167, 175.583, -25.220, -16.320, -7.813, 31.87, 0.09479, -0.49496, -0.19415, -0.84155,
 15:29:02.682,e3:ca:2d:fd:e0:8c, 2015-01-01 03:14:12.395, 0.96, -0.067, 0.309, 1.587, 1.526, -2.38, -9.283, -71.669, 173.672, -25.213, -10.873, -11.753, 29.54, -0.08725, -0.57574, 0.09814, -0.80695,
 15:29:02.682,e3:ca:2d:fd:e0:8c, 2015-01-01 03:14:12.395, 0.965, -0.057, 0.319, 3.601, 2.563, -1.16, -9.146, -71.625, 173.595, -25.213, -10.873, -11.753, 29.54, -0.08725, -0.57574, 0.09814, -0.80695,
 15:29:02.683,ed:35:33:d3:6c:f8, 2015-01-01 03:14:11.735, 0.529, 0.275, 0.798, -10.559, 0.122, -3.235, 18.907, -32.778, 148.25, -13.933, -15.333, -25.840, 31.62, 0.18896, 0.30743, 0.07904, 0.9292,
 15:29:02.683,ed:35:33:d3:6c:f8, 2015-01-01 03:14:11.735, 0.522, 0.278, 0.793, -9.155, -1.221, -2.197, 18.765, -32.772, 148.134, -13.933, -15.333, -25.840, 31.62, 0.18896, 0.30743, 0.07904, 0.9292,
 15:29:02.683,ed:40:fe:65:30:6c, 2015-01-01 03:14:11.285, 0.764, 0.244, 0.582, -24.353, 5.554, 1.587, 20.891, -51.779, -146.832, -21.933, -15.053, -0.793, 26.71, 0.32993, -0.36407, -0.28296, -0.82367,
 15:29:02.683,ed:40:fe:65:30:6c, 2015-01-01 03:14:11.285, 0.767, 0.221, 0.584, -16.541, 2.319, 2.502, 20.385, -51.702, -146.722, -21.933, -15.053, -0.793, 26.71, 0.32993, -0.36407, -0.28296, -0.82367,
 15:29:02.703,e3:ca:2d:fd:e0:8c, 2015-01-01 03:14:12.395, 0.964, -0.045, 0.319, 4.089, 3.052, -0.122, -9.053, -71.565, 173.584, -25.100, -10.767, -11.420, 29.54, -0.08725, -0.57574, 0.09814, -0.80695,
 15:29:02.703,e3:ca:2d:fd:e0:8c, 2015-01-01 03:14:12.395, 0.964, -0.043, 0.314, 3.784, 3.967, 0.427, -8.981, -71.488, 173.589, -25.100, -10.767, -11.420, 29.54, -0.08725, -0.57574, 0.09814, -0.80695,
 15:29:02.707,f6:90:cc:01:6d:25, 2015-01-01 03:14:11.000, 0.848, 0.248, 0.421, 6.714, 0.671, 0, 28.779, -60.15, 175.638, -25.220, -16.320, -7.813, 31.87, 0.09479, -0.49496, -0.19415, -0.84155,
 15:29:02.707,f6:90:cc:01:6d:25, 2015-01-01 03:14:11.000, 0.85, 0.257, 0.438, 6.897, 0, 0.122, 28.905, -60.15, 175.699, -25.220, -16.320, -7.813, 31.87, 0.09479, -0.49496, -0.19415, -0.84155,
 15:29:02.727,ed:40:fe:65:30:6c, 2015-01-01 03:14:11.640, 0.771, 0.22, 0.588, -11.719, -1.099, 2.319, 20.034, -51.685, -146.624, -21.933, -15.053, -0.793, 26.71, 0.32993, -0.36407, -0.28296, -0.82367,
 15:29:02.727,ed:40:fe:65:30:6c, 2015-01-01 03:14:11.640, 0.771, 0.22, 0.591, -9.399, -0.916, 1.526, 19.797, -51.718, -146.552, -21.933, -15.053, -0.793, 26.71, 0.32993, -0.36407, -0.28296, -0.82367,
 15:29:02.749,e3:ca:2d:fd:e0:8c, 2015-01-01 03:14:12.395, 0.969, -0.042, 0.321, 3.662, 4.15, 0.732, -8.926, -71.406, 173.6, -25.100, -10.767, -11.420, 29.54, -0.08725, -0.57574, 0.09814, -0.80695,
 15:29:02.749,e3:ca:2d:fd:e0:8c, 2015-01-01 03:14:12.395, 0.967, -0.036, 0.328, 2.686, 2.808, 0.916, -8.904, -71.345, 173.617, -25.100, -10.767, -11.420, 29.54, -0.08725, -0.57574, 0.09814, -0.80695,
 15:29:02.751,ed:40:fe:65:30:6c, 2015-01-01 03:14:11.640, 0.771, 0.214, 0.601, -4.272, -1.648, 0.549, 19.638, -51.74, -146.508, -21.933, -15.053, -0.793, 26.71, 0.32993, -0.36407, -0.28296, -0.82367,
 15:29:02.751,ed:40:fe:65:30:6c, 2015-01-01 03:14:11.640, 0.775, 0.21, 0.604, -0.244, -2.136, -0.732, 19.605, -51.768, -146.503, -21.933, -15.053, -0.793, 26.71, 0.32993, -0.36407, -0.28296, -0.82367,
 15:29:02.751,ed:35:33:d3:6c:f8, 2015-01-01 03:14:11.735, 0.521, 0.271, 0.798, -6.897, -2.625, -1.587, 18.655, -32.789, 148.041, -13.933, -15.333, -25.840, 31.62, 0.18896, 0.30743, 0.07904, 0.9292,
 15:29:02.751,ed:35:33:d3:6c:f8, 2015-01-01 03:14:11.735, 0.525, 0.266, 0.806, -2.441, -2.197, -0.793, 18.6, -32.822, 147.969, -13.933, -15.333, -25.840, 31.62, 0.18896, 0.30743, 0.07904, 0.9292,
 15:29:02.752,f6:90:cc:01:6d:25, 2015-01-01 03:14:11.000, 0.848, 0.262, 0.443, 5.92, -0.488, -0.549, 29.042, -60.15, 175.721, -25.220, -16.320, -7.813, 31.87, 0.09479, -0.49496, -0.19415, -0.84155,
 15:29:02.752,f6:90:cc:01:6d:25, 2015-01-01 03:14:11.000, 0.847, 0.26, 0.443, 5.737, -1.465, -1.648, 29.213, -60.156, 175.699, -25.220, -16.320, -7.813, 31.87, 0.09479, -0.49496, -0.19415, -0.84155,
 15:29:02.771,e3:ca:2d:fd:e0:8c, 2015-01-01 03:14:12.395, 0.964, -0.031, 0.326, 1.953, 1.77, 1.038, -8.904, -71.312, 173.644, -25.100, -10.767, -11.420, 29.54, -0.09021, -0.57693, 0.09528, -0.80612,
 15:29:02.771,e3:ca:2d:fd:e0:8c, 2015-01-01 03:14:12.395, 0.962, -0.031, 0.324, 1.343, 0.854, 0.916, -8.915, -71.296, 173.65, -25.100, -10.767, -11.420, 29.54, -0.09021, -0.57693, 0.09528, -0.80612,
 15:29:02.772,ed:40:fe:65:30:6c, 2015-01-01 03:14:11.640, 0.77, 0.219, 0.598, 1.099, -1.587, -1.526, 19.66, -51.784, -146.53, -21.933, -15.053, -0.793, 26.71, 0.32993, -0.36407, -0.28296, -0.82367,
 15:29:02.772,ed:40:fe:65:30:6c, 2015-01-01 03:14:11.640, 0.767, 0.223, 0.597, 4.272, -2.441, -2.014, 19.764, -51.795, -146.574, -21.933, -15.053, -0.793, 26.71, 0.32993, -0.36407, -0.28296, -0.82367,
 15:29:02.796,ed:35:33:d3:6c:f8, 2015-01-01 03:14:11.735, 0.526, 0.269, 0.805, 1.099, -2.93, -0.793, 18.616, -32.86, 147.909, -13.933, -15.333, -25.840, 31.62, 0.18896, 0.30743, 0.07904, 0.9292,
 15:29:02.796,ed:35:33:d3:6c:f8, 2015-01-01 03:14:11.735, 0.521, 0.278, 0.8, 3.784, -3.662, -0.793, 18.699, -32.904, 147.887, -13.933, -15.333, -25.840, 31.62, 0.18896, 0.30743, 0.07904, 0.9292,
 15:29:02.798,f6:90:cc:01:6d:25, 2015-01-01 03:14:11.000, 0.843, 0.258, 0.436, 6.348, -2.258, -2.869, 29.432, -60.161, 175.622, -24.827, -16.687, -7.380, 31.87, 0.09479, -0.49496, -0.19415, -0.84155,
 15:29:02.798,f6:90:cc:01:6d:25, 2015-01-01 03:14:11.000, 0.84, 0.256, 0.436, 7.324, -2.991, -3.418, 29.713, -60.167, 175.523, -24.827, -16.687, -7.380, 31.87, 0.09479, -0.49496, -0.19415, -0.84155,
 15:29:02.816,ed:40:fe:65:30:6c, 2015-01-01 03:14:11.640, 0.761, 0.229, 0.602, 7.446, -2.869, -2.197, 19.951, -51.817, -146.651, -21.933, -15.053, -0.793, 26.71, 0.32993, -0.36407, -0.28296, -0.82367,
 15:29:02.816,ed:40:fe:65:30:6c, 2015-01-01 03:14:11.640, 0.759, 0.23, 0.602, 9.521, -2.808, -2.075, 20.193, -51.844, -146.744, -21.933, -15.053, -0.793, 26.71, 0.32993, -0.36407, -0.28296, -0.82367,
 15:29:02.817,e3:ca:2d:fd:e0:8c, 2015-01-01 03:14:12.395, 0.957, -0.031, 0.322, 1.221, 0.122, 0.732, -8.915, -71.29, 173.639, -25.100, -10.767, -11.420, 29.54, -0.09021, -0.57693, 0.09528, -0.80612,
 15:29:02.817,e3:ca:2d:fd:e0:8c, 2015-01-01 03:14:12.395, 0.957, -0.035, 0.326, 1.587, -0.61, 0.793, -8.915, -71.301, 173.633, -25.100, -10.767, -11.420, 29.54, -0.09021, -0.57693, 0.09528, -0.80612,
 15:29:02.818,ed:35:33:d3:6c:f8, 2015-01-01 03:14:11.735, 0.517, 0.285, 0.801, 7.568, -4.028, 0.244, 18.842, -32.964, 147.865, -14.087, -15.907, -25.847, 31.62, 0.18896, 0.30743, 0.07904, 0.9292,
 15:29:02.818,ed:35:33:d3:6c:f8, 2015-01-01 03:14:11.735, 0.513, 0.288, 0.801, 9.094, -4.578, 0.977, 19.028, -33.041, 147.892, -14.087, -15.907, -25.847, 31.62, 0.18896, 0.30743, 0.07904, 0.9292,
 15:29:02.820,f6:90:cc:01:6d:25, 2015-01-01 03:14:11.000, 0.837, 0.256, 0.437, 7.996, -3.723, -3.296, 30.02, -60.183, 175.391, -24.827, -16.687, -7.380, 31.87, 0.09628, -0.49289, -0.2049, -0.84006,
 15:29:02.823,f6:90:cc:01:6d:25, 2015-01-01 03:14:11.000, 0.836, 0.255, 0.433, 8.423, -4.211, -3.113, 30.35, -60.211, 175.248, -24.827, -16.687, -7.380, 31.87, 0.09628, -0.49289, -0.2049, -0.84006,
 15:29:02.861,e3:ca:2d:fd:e0:8c, 2015-01-01 03:14:12.730, 0.956, -0.039, 0.331, 1.831, -1.16, 1.282, -8.943, -71.323, 173.677, -25.100, -10.767, -11.420, 29.54, -0.09021, -0.57693, 0.09528, -0.80612,
 15:29:02.861,e3:ca:2d:fd:e0:8c, 2015-01-01 03:14:12.730, 0.955, -0.044, 0.333, 1.892, -0.793, 2.197, -9.02, -71.329, 173.782, -25.100, -10.767, -11.420, 29.54, -0.09021, -0.57693, 0.09528, -0.80612,
 15:29:02.862,ed:40:fe:65:30:6c, 2015-01-01 03:14:11.640, 0.764, 0.231, 0.598, 9.46, -2.563, -1.465, 20.457, -51.866, -146.821, -21.933, -15.053, -0.793, 26.71, 0.32993, -0.36407, -0.28296, -0.82367,
 15:29:02.862,ed:40:fe:65:30:6c, 2015-01-01 03:14:11.640, 0.771, 0.242, 0.59, 8.362, -2.319, -0.916, 20.698, -51.883, -146.871, -21.933, -15.053, -0.793, 26.71, 0.32993, -0.36407, -0.28296, -0.82367,
 15:29:02.863,ed:35:33:d3:6c:f8, 2015-01-01 03:14:11.735, 0.516, 0.29, 0.797, 10.01, -4.395, 1.648, 19.226, -33.118, 147.942, -14.087, -15.907, -25.847, 31.62, 0.18896, 0.30743, 0.07904, 0.9292,
 15:29:02.863,ed:35:33:d3:6c:f8, 2015-01-01 03:14:11.735, 0.522, 0.296, 0.79, 8.972, -3.906, 2.319, 19.407, -33.195, 148.019, -14.087, -15.907, -25.847, 31.62, 0.18896, 0.30743, 0.07904, 0.9292,
 15:29:02.865,f6:90:cc:01:6d:25, 2015-01-01 03:14:11.000, 0.842, 0.257, 0.43, 8.606, -4.639, -2.747, 30.679, -60.244, 175.1, -24.827, -16.687, -7.380, 31.87, 0.09628, -0.49289, -0.2049, -0.84006,
 15:29:02.865,f6:90:cc:01:6d:25, 2015-01-01 03:14:11.000, 0.849, 0.264, 0.429, 8.423, -4.944, -2.136, 30.998, -60.293, 174.968, -24.827, -16.687, -7.380, 31.87, 0.09628, -0.49289, -0.2049, -0.84006,
 15:29:02.887,ed:35:33:d3:6c:f8, 2015-01-01 03:14:11.735, 0.531, 0.301, 0.785, 8.972, -2.869, 2.747, 19.567, -33.25, 148.123, -14.087, -15.907, -25.847, 31.62, 0.21356, 0.31534, 0.07806, 0.92126,
 15:29:02.887,ed:35:33:d3:6c:f8, 2015-01-01 03:14:11.735, 0.536, 0.31, 0.784, 8.606, -1.404, 3.845, 19.709, -33.289, 148.25, -14.087, -15.907, -25.847, 31.62, 0.21356, 0.31534, 0.07806, 0.92126,
 15:29:02.907,e3:ca:2d:fd:e0:8c, 2015-01-01 03:14:12.730, 0.959, -0.047, 0.334, 1.282, -0.122, 2.93, -9.146, -71.318, 173.925, -25.100, -10.767, -11.420, 29.54, -0.09021, -0.57693, 0.09528, -0.80612,
 15:29:02.907,e3:ca:2d:fd:e0:8c, 2015-01-01 03:14:12.730, 0.96, -0.053, 0.336, 0.427, -0.366, 3.113, -9.3, -71.312, 174.1, -25.100, -10.767, -11.420, 29.54, -0.09021, -0.57693, 0.09528, -0.80612,
 15:29:02.907,ed:40:fe:65:30:6c, 2015-01-01 03:14:11.640, 0.776, 0.247, 0.586, 9.766, -2.075, -0.671, 20.918, -51.899, -146.893, -21.933, -15.053, -0.793, 26.71, 0.32993, -0.36407, -0.28296, -0.82367,
 15:29:02.907,ed:40:fe:65:30:6c, 2015-01-01 03:14:11.640, 0.78, 0.251, 0.584, 11.719, -1.648, 0, 21.154, -51.916, -146.904, -21.933, -15.053, -0.793, 26.71, 0.32993, -0.36407, -0.28296, -0.82367,
 15:29:02.910,f6:90:cc:01:6d:25, 2015-01-01 03:14:11.290, 0.851, 0.262, 0.429, 7.935, -5.066, -1.587, 31.3, -60.342, 174.847, -24.827, -16.687, -7.380, 31.87, 0.09628, -0.49289, -0.2049, -0.84006,
 15:29:02.910,f6:90:cc:01:6d:25, 2015-01-01 03:14:11.290, 0.854, 0.256, 0.426, 7.446, -4.883, -1.099, 31.575, -60.403, 174.749, -24.827, -16.687, -7.380, 31.87, 0.09628, -0.49289, -0.2049, -0.84006,
 15:29:02.929,e3:ca:2d:fd:e0:8c, 2015-01-01 03:14:12.730, 0.958, -0.058, 0.334, 0, -0.916, 3.052, -9.47, -71.318, 174.271, -25.100, -10.767, -11.420, 29.54, -0.09021, -0.57693, 0.09528, -0.80612,
 15:29:02.929,e3:ca:2d:fd:e0:8c, 2015-01-01 03:14:12.730, 0.962, -0.062, 0.331, 0.122, -1.221, 2.808, -9.63, -71.323, 174.441, -25.100, -10.767, -11.420, 29.54, -0.09021, -0.57693, 0.09528, -0.80612,
 15:29:02.930,ed:40:fe:65:30:6c, 2015-01-01 03:14:11.640, 0.784, 0.252, 0.578, 10.986, -0.061, 1.587, 21.396, -51.921, -146.882, -22.073, -14.433, -1.153, 26.71, 0.32993, -0.36407, -0.28296, -0.82367,
 15:29:02.930,ed:40:fe:65:30:6c, 2015-01-01 03:14:11.640, 0.787, 0.249, 0.577, 10.071, 1.16, 2.502, 21.572, -51.916, -146.805, -22.073, -14.433, -1.153, 26.71, 0.32993, -0.36407, -0.28296, -0.82367,
 15:29:02.931,ed:35:33:d3:6c:f8, 2015-01-01 03:14:11.735, 0.542, 0.315, 0.774, 8.057, 0.549, 4.883, 19.825, -33.3, 148.431, -14.087, -15.907, -25.847, 31.62, 0.21356, 0.31534, 0.07806, 0.92126,
 15:29:02.931,ed:35:33:d3:6c:f8, 2015-01-01 03:14:11.735, 0.544, 0.311, 0.775, 6.897, 2.075, 5.493, 19.902, -33.289, 148.64, -14.087, -15.907, -25.847, 31.62, 0.21356, 0.31534, 0.07806, 0.92126,
 15:29:02.955,f6:90:cc:01:6d:25, 2015-01-01 03:14:11.290, 0.86, 0.257, 0.422, 7.263, -4.578, -0.61, 31.822, -60.463, 174.694, -24.827, -16.687, -7.380, 31.87, 0.09628, -0.49289, -0.2049, -0.84006,
 15:29:02.955,f6:90:cc:01:6d:25, 2015-01-01 03:14:11.290, 0.862, 0.26, 0.419, 7.141, -4.211, 0.244, 32.036, -60.524, 174.677, -24.827, -16.687, -7.380, 31.87, 0.09628, -0.49289, -0.2049, -0.84006,
 15:29:02.975,ed:40:fe:65:30:6c, 2015-01-01 03:14:11.640, 0.792, 0.253, 0.571, 8.972, 1.953, 3.235, 21.698, -51.894, -146.7, -22.073, -14.433, -1.153, 26.71, 0.32993, -0.36407, -0.28296, -0.82367,
 15:29:02.975,ed:40:fe:65:30:6c, 2015-01-01 03:14:11.640, 0.8, 0.251, 0.566, 7.263, 2.258, 4.089, 21.775, -51.866, -146.563, -22.073, -14.433, -1.153, 26.71, 0.32993, -0.36407, -0.28296, -0.82367,
 15:29:02.975,e3:ca:2d:fd:e0:8c, 2015-01-01 03:14:12.730, 0.965, -0.065, 0.331, 0.671, -1.099, 3.113, -9.794, -71.329, 174.644, -25.100, -10.767, -11.420, 29.54, -0.09021, -0.57693, 0.09528, -0.80612,
 15:29:02.975,e3:ca:2d:fd:e0:8c, 2015-01-01 03:14:12.730, 0.968, -0.066, 0.329, 1.099, -1.16, 3.296, -9.97, -71.334, 174.853, -25.100, -10.767, -11.420, 29.54, -0.09021, -0.57693, 0.09528, -0.80612,
 15:29:02.976,ed:35:33:d3:6c:f8, 2015-01-01 03:14:12.095, 0.55, 0.309, 0.777, 5.92, 2.686, 5.432, 19.962, -33.267, 148.821, -14.087, -15.907, -25.847, 31.62, 0.21356, 0.31534, 0.07806, 0.92126,
 15:29:02.976,ed:35:33:d3:6c:f8, 2015-01-01 03:14:12.095, 0.557, 0.312, 0.775, 5.127, 2.93, 5.493, 20.001, -33.239, 148.975, -14.087, -15.907, -25.847, 31.62, 0.21356, 0.31534, 0.07806, 0.92126,
 15:29:03.000,f6:90:cc:01:6d:25, 2015-01-01 03:14:11.290, 0.867, 0.26, 0.412, 6.775, -3.845, 1.221, 32.206, -60.59, 174.699, -24.827, -16.687, -7.380, 31.87, 0.09628, -0.49289, -0.2049, -0.84006,
 15:29:03.000,f6:90:cc:01:6d:25, 2015-01-01 03:14:11.290, 0.875, 0.262, 0.407, 5.92, -3.601, 1.953, 32.333, -60.661, 174.727, -24.827, -16.687, -7.380, 31.87, 0.09628, -0.49289, -0.2049, -0.84006,
 15:29:03.021,ed:35:33:d3:6c:f8, 2015-01-01 03:14:12.095, 0.562, 0.305, 0.777, 3.906, 2.869, 5.371, 20.017, -33.217, 149.09, -14.087, -15.907, -25.847, 31.62, 0.21356, 0.31534, 0.07806, 0.92126,
 15:29:03.021,ed:35:33:d3:6c:f8, 2015-01-01 03:14:12.095, 0.562, 0.295, 0.78, 2.563, 2.258, 5.005, 20.017, -33.201, 149.189, -14.087, -15.907, -25.847, 31.62, 0.21356, 0.31534, 0.07806, 0.92126,
 15:29:03.022,f6:90:cc:01:6d:25, 2015-01-01 03:14:11.290, 0.879, 0.267, 0.4, 4.761, -3.174, 2.258, 32.421, -60.732, 174.771, -24.827, -16.687, -7.380, 31.87, 0.09628, -0.49289, -0.2049, -0.84006,
 15:29:03.022,f6:90:cc:01:6d:25, 2015-01-01 03:14:11.290, 0.879, 0.271, 0.394, 3.357, -2.686, 2.075, 32.481, -60.793, 174.82, -24.827, -16.687, -7.380, 31.87, 0.09628, -0.49289, -0.2049, -0.84006,
 15:29:03.043,ed:40:fe:65:30:6c, 2015-01-01 03:14:11.640, 0.802, 0.243, 0.568, 4.272, 2.38, 4.761, 21.797, -51.844, -146.398, -22.073, -14.433, -1.153, 26.71, 0.33252, -0.36279, -0.2858, -0.8222,
 15:29:03.043,ed:40:fe:65:30:6c, 2015-01-01 03:14:11.640, 0.799, 0.235, 0.565, 1.648, 2.197, 4.822, 21.747, -51.833, -146.228, -22.073, -14.433, -1.153, 26.71, 0.33252, -0.36279, -0.2858, -0.8222,
 15:29:03.043,ed:35:33:d3:6c:f8, 2015-01-01 03:14:12.095, 0.562, 0.286, 0.781, 1.343, 1.709, 4.272, 20.001, -33.195, 149.26, -14.087, -15.907, -25.847, 31.62, 0.21356, 0.31534, 0.07806, 0.92126,
 15:29:03.043,ed:35:33:d3:6c:f8, 2015-01-01 03:14:12.095, 0.559, 0.284, 0.776, 0.061, 1.038, 3.479, 19.968, -33.201, 149.337, -14.087, -15.907, -25.847, 31.62, 0.21356, 0.31534, 0.07806, 0.92126,
 15:29:03.064,e3:ca:2d:fd:e0:8c, 2015-01-01 03:14:12.730, 0.97, -0.065, 0.326, 0.916, -1.587, 3.296, -10.157, -71.351, 175.073, -25.100, -10.767, -11.420, 29.54, -0.09021, -0.57693, 0.09528, -0.80612,
 15:29:03.064,e3:ca:2d:fd:e0:8c, 2015-01-01 03:14:12.730, 0.975, -0.065, 0.32, 0.671, -1.404, 2.808, -10.316, -71.362, 175.21, -25.100, -10.767, -11.420, 29.54, -0.09021, -0.57693, 0.09528, -0.80612,
 15:29:03.065,ed:40:fe:65:30:6c, 2015-01-01 03:14:12.000, 0.797, 0.232, 0.565, -0.305, 1.77, 4.333, 21.654, -51.823, -146.063, -22.073, -14.433, -1.153, 26.71, 0.33252, -0.36279, -0.2858, -0.8222,
 15:29:03.065,ed:40:fe:65:30:6c, 2015-01-01 03:14:12.000, 0.793, 0.226, 0.562, -1.343, 1.343, 3.845, 21.544, -51.823, -145.926, -22.073, -14.433, -1.153, 26.71, 0.33252, -0.36279, -0.2858, -0.8222,
 15:29:03.068,f6:90:cc:01:6d:25, 2015-01-01 03:14:11.290, 0.879, 0.272, 0.389, 1.892, -2.441, 1.648, 32.52, -60.853, 174.853, -24.827, -16.687, -7.380, 31.87, 0.09628, -0.49289, -0.2049, -0.84006,
 15:29:03.068,f6:90:cc:01:6d:25, 2015-01-01 03:14:11.290, 0.877, 0.268, 0.386, 0.793, -2.136, 1.404, 32.547, -60.903, 174.869, -24.827, -16.687, -7.380, 31.87, 0.09628, -0.49289, -0.2049, -0.84006,
 15:29:03.087,e3:ca:2d:fd:e0:8c, 2015-01-01 03:14:12.730, 0.98, -0.064, 0.313, 0.305, -1.953, 1.831, -10.437, -71.389, 175.298, -24.813, -10.893, -12.660, 29.54, -0.09021, -0.57693, 0.09528, -0.80612,
 15:29:03.087,e3:ca:2d:fd:e0:8c, 2015-01-01 03:14:12.730, 0.981, -0.061, 0.309, -0.244, -2.441, 1.099, -10.536, -71.433, 175.358, -24.813, -10.893, -12.660, 29.54, -0.09021, -0.57693, 0.09528, -0.80612,
 15:29:03.087,ed:40:fe:65:30:6c, 2015-01-01 03:14:12.000, 0.797, 0.222, 0.558, -1.16, 0.244, 3.174, 21.44, -51.833, -145.816, -22.073, -14.433, -1.153, 26.71, 0.33252, -0.36279, -0.2858, -0.8222,
 15:29:03.087,ed:40:fe:65:30:6c, 2015-01-01 03:14:12.000, 0.799, 0.221, 0.562, -1.221, -0.549, 2.38, 21.363, -51.861, -145.745, -22.073, -14.433, -1.153, 26.71, 0.33252, -0.36279, -0.2858, -0.8222,
 15:29:03.088,ed:35:33:d3:6c:f8, 2015-01-01 03:14:12.095, 0.559, 0.278, 0.774, -0.427, 0.61, 2.991, 19.929, -33.212, 149.381, -14.087, -15.907, -25.847, 31.62, 0.21356, 0.31534, 0.07806, 0.92126,
 15:29:03.088,ed:35:33:d3:6c:f8, 2015-01-01 03:14:12.095, 0.564, 0.275, 0.772, -0.549, -0.244, 2.625, 19.891, -33.234, 149.392, -14.087, -15.907, -25.847, 31.62, 0.21356, 0.31534, 0.07806, 0.92126,
 15:29:03.114,f6:90:cc:01:6d:25, 2015-01-01 03:14:11.290, 0.877, 0.264, 0.385, 0, -1.77, 1.282, 32.552, -60.947, 174.88, -25.040, -16.933, -6.707, 31.87, 0.09628, -0.49289, -0.2049, -0.84006,
 15:29:03.114,f6:90:cc:01:6d:25, 2015-01-01 03:14:11.290, 0.877, 0.261, 0.385, -0.488, -1.526, 1.221, 32.552, -60.991, 174.886, -25.040, -16.933, -6.707, 31.87, 0.09628, -0.49289, -0.2049, -0.84006,
 15:29:03.131,e3:ca:2d:fd:e0:8c, 2015-01-01 03:14:12.730, 0.981, -0.059, 0.306, -0.366, -2.991, 0.366, -10.596, -71.488, 175.375, -24.813, -10.893, -12.660, 29.54, -0.09021, -0.57693, 0.09528, -0.80612,
 15:29:03.131,e3:ca:2d:fd:e0:8c, 2015-01-01 03:14:12.730, 0.98, -0.061, 0.306, -0.61, -2.808, -0.183, -10.629, -71.543, 175.364, -24.813, -10.893, -12.660, 29.54, -0.09021, -0.57693, 0.09528, -0.80612,
 15:29:03.133,ed:40:fe:65:30:6c, 2015-01-01 03:14:12.000, 0.797, 0.218, 0.559, -1.77, -0.305, 1.831, 21.302, -51.888, -145.706, -22.073, -14.433, -1.153, 26.71, 0.33252, -0.36279, -0.2858, -0.8222,
 15:29:03.133,ed:40:fe:65:30:6c, 2015-01-01 03:14:12.000, 0.8, 0.212, 0.554, -1.648, -1.16, 1.099, 21.248, -51.916, -145.706, -22.073, -14.433, -1.153, 26.71, 0.33252, -0.36279, -0.2858, -0.8222,
 15:29:03.154,e3:ca:2d:fd:e0:8c, 2015-01-01 03:14:12.730, 0.978, -0.061, 0.305, -1.16, -2.136, -0.61, -10.64, -71.592, 175.342, -24.813, -10.893, -12.660, 29.54, -0.08707, -0.57889, 0.09885, -0.80463,
 15:29:03.154,e3:ca:2d:fd:e0:8c, 2015-01-01 03:14:12.730, 0.978, -0.06, 0.303, -1.526, -1.709, -1.038, -10.635, -71.631, 175.298, -24.813, -10.893, -12.660, 29.54, -0.08707, -0.57889, 0.09885, -0.80463,
 15:29:03.157,ed:35:33:d3:6c:f8, 2015-01-01 03:14:12.095, 0.562, 0.276, 0.771, -0.732, -0.427, 1.77, 19.863, -33.261, 149.392, -14.087, -15.907, -25.847, 31.62, 0.21356, 0.31534, 0.07806, 0.92126,
 15:29:03.157,ed:35:33:d3:6c:f8, 2015-01-01 03:14:12.095, 0.563, 0.271, 0.77, -0.122, -0.732, 1.282, 19.847, -33.289, 149.365, -14.087, -15.907, -25.847, 31.62, 0.21356, 0.31534, 0.07806, 0.92126,
 15:29:03.157,f6:90:cc:01:6d:25, 2015-01-01 03:14:11.290, 0.878, 0.26, 0.384, -0.793, -1.282, 0.916, 32.547, -61.029, 174.875, -25.040, -16.933, -6.707, 31.87, 0.10516, -0.49771, -0.21936, -0.83246,
 15:29:03.157,f6:90:cc:01:6d:25, 2015-01-01 03:14:11.290, 0.877, 0.263, 0.381, -1.282, -0.549, 0.488, 32.531, -61.051, 174.858, -25.040, -16.933, -6.707, 31.87, 0.10516, -0.49771, -0.21936, -0.83246,
 15:29:03.178,ed:40:fe:65:30:6c, 2015-01-01 03:14:12.000, 0.799, 0.216, 0.562, -2.197, -1.465, 0.183, 21.215, -51.954, -145.728, -22.073, -14.433, -1.153, 26.71, 0.33252, -0.36279, -0.2858, -0.8222,
 15:29:03.178,ed:40:fe:65:30:6c, 2015-01-01 03:14:12.000, 0.796, 0.225, 0.561, -2.93, -0.549, -0.549, 21.182, -51.982, -145.778, -22.073, -14.433, -1.153, 26.71, 0.33252, -0.36279, -0.2858, -0.8222,
 15:29:03.179,ed:35:33:d3:6c:f8, 2015-01-01 03:14:12.095, 0.566, 0.267, 0.769, -0.183, -0.854, 0.61, 19.841, -33.316, 149.304, -14.100, -16.120, -25.540, 31.62, 0.21356, 0.31534, 0.07806, 0.92126,
 15:29:03.179,ed:35:33:d3:6c:f8, 2015-01-01 03:14:12.095, 0.562, 0.276, 0.77, -0.671, -0.793, -0.305, 19.83, -33.344, 149.266, -14.100, -16.120, -25.540, 31.62, 0.21356, 0.31534, 0.07806, 0.92126,
 15:29:03.203,f6:90:cc:01:6d:25, 2015-01-01 03:14:11.605, 0.876, 0.268, 0.381, -1.526, -0.122, -0.061, 32.52, -61.062, 174.825, -25.040, -16.933, -6.707, 31.87, 0.10516, -0.49771, -0.21936, -0.83246,
 15:29:03.203,f6:90:cc:01:6d:25, 2015-01-01 03:14:11.605, 0.874, 0.27, 0.382, -1.953, 0.061, -0.732, 32.52, -61.062, 174.776, -25.040, -16.933, -6.707, 31.87, 0.10516, -0.49771, -0.21936, -0.83246,
 15:29:03.222,e3:ca:2d:fd:e0:8c, 2015-01-01 03:14:12.730, 0.979, -0.059, 0.301, -1.099, -1.648, -1.16, -10.607, -71.675, 175.248, -24.813, -10.893, -12.660, 29.54, -0.08707, -0.57889, 0.09885, -0.80463,
 15:29:03.222,e3:ca:2d:fd:e0:8c, 2015-01-01 03:14:12.730, 0.98, -0.056, 0.3, -0.671, -1.526, -1.282, -10.563, -71.713, 175.177, -24.813, -10.893, -12.660, 29.54, -0.08707, -0.57889, 0.09885, -0.80463,
 15:29:03.223,ed:40:fe:65:30:6c, 2015-01-01 03:14:12.000, 0.795, 0.226, 0.563, -2.625, -0.427, -1.221, 21.16, -51.993, -145.838, -22.073, -14.433, -1.153, 26.71, 0.33252, -0.36279, -0.2858, -0.8222,
 15:29:03.223,ed:40:fe:65:30:6c, 2015-01-01 03:14:12.000, 0.789, 0.229, 0.568, -2.93, -0.244, -1.587, 21.149, -51.998, -145.904, -22.073, -14.433, -1.153, 26.71, 0.33252, -0.36279, -0.2858, -0.8222,
 15:29:03.225,f6:90:cc:01:6d:25, 2015-01-01 03:14:11.605, 0.871, 0.27, 0.386, -2.319, 0.427, -1.16, 32.525, -61.057, 174.705, -25.040, -16.933, -6.707, 31.87, 0.10516, -0.49771, -0.21936, -0.83246,
 15:29:03.225,f6:90:cc:01:6d:25, 2015-01-01 03:14:11.605, 0.867, 0.27, 0.39, -2.625, 0.793, -1.587, 32.525, -61.035, 174.628, -25.040, -16.933, -6.707, 31.87, 0.10516, -0.49771, -0.21936, -0.83246,
 15:29:03.244,e3:ca:2d:fd:e0:8c, 2015-01-01 03:14:12.730, 0.977, -0.051, 0.31, -1.099, -0.549, -1.526, -10.508, -71.746, 175.106, -24.813, -10.893, -12.660, 29.54, -0.08707, -0.57889, 0.09885, -0.80463,
 15:29:03.244,e3:ca:2d:fd:e0:8c, 2015-01-01 03:14:12.730, 0.974, -0.051, 0.312, -1.587, 0.244, -1.648, -10.443, -71.763, 175.012, -24.813, -10.893, -12.660, 29.54, -0.08707, -0.57889, 0.09885, -0.80463,
 15:29:03.247,ed:35:33:d3:6c:f8, 2015-01-01 03:14:12.095, 0.559, 0.282, 0.77, -0.549, -0.854, -1.282, 19.841, -33.36, 149.194, -14.100, -16.120, -25.540, 31.62, 0.21356, 0.31534, 0.07806, 0.92126,
 15:29:03.247,ed:35:33:d3:6c:f8, 2015-01-01 03:14:12.095, 0.554, 0.285, 0.774, -0.854, -0.732, -1.831, 19.847, -33.376, 149.095, -14.100, -16.120, -25.540, 31.62, 0.21356, 0.31534, 0.07806, 0.92126,
 15:29:03.268,ed:40:fe:65:30:6c, 2015-01-01 03:14:12.000, 0.783, 0.234, 0.57, -3.174, -0.061, -1.831, 21.138, -51.993, -145.981, -22.073, -14.433, -1.153, 26.71, 0.33252, -0.36279, -0.2858, -0.8222,
 15:29:03.268,ed:40:fe:65:30:6c, 2015-01-01 03:14:12.000, 0.779, 0.236, 0.571, -2.563, 0.061, -1.953, 21.138, -51.987, -146.052, -22.073, -14.433, -1.153, 26.71, 0.33252, -0.36279, -0.2858, -0.8222,
 15:29:03.268,ed:35:33:d3:6c:f8, 2015-01-01 03:14:12.095, 0.547, 0.291, 0.774, -1.282, -0.488, -2.258, 19.858, -33.382, 148.975, -14.100, -16.120, -25.540, 31.62, 0.20386, 0.31665, 0.08371, 0.92252,
 15:29:03.268,ed:35:33:d3:6c:f8, 2015-01-01 03:14:12.095, 0.542, 0.294, 0.774, -1.526, -0.305, -2.502, 19.863, -33.376, 148.859, -14.100, -16.120, -25.540, 31.62, 0.20386, 0.31665, 0.08371, 0.92252,
 15:29:03.269,f6:90:cc:01:6d:25, 2015-01-01 03:14:11.605, 0.86, 0.27, 0.393, -2.625, 1.099, -1.709, 32.525, -61.007, 174.529, -25.040, -16.933, -6.707, 31.87, 0.10516, -0.49771, -0.21936, -0.83246,
 15:29:03.269,f6:90:cc:01:6d:25, 2015-01-01 03:14:11.605, 0.856, 0.268, 0.393, -2.197, 1.282, -1.587, 32.531, -60.974, 174.435, -25.040, -16.933, -6.707, 31.87, 0.10516, -0.49771, -0.21936, -0.83246,
 15:29:03.289,e3:ca:2d:fd:e0:8c, 2015-01-01 03:14:12.730, 0.968, -0.05, 0.312, -1.77, 0.793, -1.587, -10.377, -71.768, 174.891, -24.813, -10.893, -12.660, 29.54, -0.08707, -0.57889, 0.09885, -0.80463,
 15:29:03.289,e3:ca:2d:fd:e0:8c, 2015-01-01 03:14:12.730, 0.965, -0.05, 0.312, -1.648, 1.099, -1.465, -10.305, -71.763, 174.76, -24.813, -10.893, -12.660, 29.54, -0.08707, -0.57889, 0.09885, -0.80463,
 15:29:03.290,ed:40:fe:65:30:6c, 2015-01-01 03:14:12.000, 0.776, 0.236, 0.573, -1.404, 0.061, -1.709, 21.149, -51.976, -146.124, -22.200, -14.513, -1.180, 26.71, 0.33252, -0.36279, -0.2858, -0.8222,
 15:29:03.290,ed:40:fe:65:30:6c, 2015-01-01 03:14:12.000, 0.776, 0.234, 0.579, -0.427, -0.183, -1.343, 21.182, -51.971, -146.179, -22.200, -14.513, -1.180, 26.71, 0.33252, -0.36279, -0.2858, -0.8222,
 15:29:03.312,e3:ca:2d:fd:e0:8c, 2015-01-01 03:14:12.730, 0.964, -0.053, 0.314, -0.854, 1.099, -1.221, -10.234, -71.746, 174.639, -24.813, -10.893, -12.660, 29.65, -0.08707, -0.57889, 0.09885, -0.80463,
 15:29:03.312,e3:ca:2d:fd:e0:8c, 2015-01-01 03:14:12.730, 0.964, -0.056, 0.316, -0.122, 1.16, -0.793, -10.162, -71.735, 174.551, -24.813, -10.893, -12.660, 29.65, -0.08707, -0.57889, 0.09885, -0.80463,
 15:29:03.313,ed:35:33:d3:6c:f8, 2015-01-01 03:14:12.095, 0.538, 0.299, 0.774, -1.587, -0.244, -2.319, 19.863, -33.376, 148.733, -14.100, -16.120, -25.540, 31.62, 0.20386, 0.31665, 0.08371, 0.92252,
 15:29:03.313,ed:35:33:d3:6c:f8, 2015-01-01 03:14:12.095, 0.534, 0.297, 0.78, -1.221, -0.366, -1.77, 19.869, -33.371, 148.645, -14.100, -16.120, -25.540, 31.62, 0.20386, 0.31665, 0.08371, 0.92252,
 15:29:03.315,f6:90:cc:01:6d:25, 2015-01-01 03:14:11.605, 0.854, 0.263, 0.4, -1.343, 1.282, -1.587, 32.542, -60.941, 174.342, -25.040, -16.933, -6.707, 31.87, 0.10516, -0.49771, -0.21936, -0.83246,
 15:29:03.315,f6:90:cc:01:6d:25, 2015-01-01 03:14:11.605, 0.856, 0.261, 0.404, -0.427, 1.221, -1.343, 32.563, -60.914, 174.265, -25.040, -16.933, -6.707, 31.87, 0.10516, -0.49771, -0.21936, -0.83246,
 15:29:03.335,ed:35:33:d3:6c:f8, 2015-01-01 03:14:12.475, 0.536, 0.297, 0.782, -0.732, -0.671, -1.038, 19.88, -33.376, 148.557, -14.100, -16.120, -25.540, 31.62, 0.20386, 0.31665, 0.08371, 0.92252,
 15:29:03.335,ed:35:33:d3:6c:f8, 2015-01-01 03:14:12.475, 0.534, 0.297, 0.786, -0.427, -0.793, -0.488, 19.885, -33.387, 148.475, -14.100, -16.120, -25.540, 31.62, 0.20386, 0.31665, 0.08371, 0.92252,
 15:29:03.335,ed:40:fe:65:30:6c, 2015-01-01 03:14:12.000, 0.777, 0.235, 0.582, 0.122, -0.549, -0.854, 21.215, -51.971, -146.228, -22.200, -14.513, -1.180, 26.71, 0.33252, -0.36279, -0.2858, -0.8222,
 15:29:03.335,ed:40:fe:65:30:6c, 2015-01-01 03:14:12.000, 0.778, 0.236, 0.586, 0.122, -0.488, -0.427, 21.248, -51.971, -146.261, -22.200, -14.513, -1.180, 26.71, 0.33252, -0.36279, -0.2858, -0.8222,
 15:29:03.356,e3:ca:2d:fd:e0:8c, 2015-01-01 03:14:12.730, 0.965, -0.058, 0.317, 0.061, 1.221, -0.427, -10.107, -71.719, 174.474, -24.813, -10.893, -12.660, 29.65, -0.08707, -0.57889, 0.09885, -0.80463,
 15:29:03.356,e3:ca:2d:fd:e0:8c, 2015-01-01 03:14:12.730, 0.965, -0.057, 0.318, 0, 1.404, -0.122, -10.074, -71.697, 174.413, -24.813, -10.893, -12.660, 29.65, -0.08707, -0.57889, 0.09885, -0.80463,
 15:29:03.361,f6:90:cc:01:6d:25, 2015-01-01 03:14:11.605, 0.856, 0.261, 0.404, 0.305, 0.977, -1.038, 32.596, -60.886, 174.216, -25.040, -16.933, -6.707, 31.87, 0.10516, -0.49771, -0.21936, -0.83246,
 15:29:03.361,f6:90:cc:01:6d:25, 2015-01-01 03:14:11.605, 0.857, 0.265, 0.405, 1.099, 0.732, -0.671, 32.64, -60.87, 174.183, -25.040, -16.933, -6.707, 31.87, 0.10516, -0.49771, -0.21936, -0.83246,
 15:29:03.378,e3:ca:2d:fd:e0:8c, 2015-01-01 03:14:13.270, 0.966, -0.055, 0.318, 0, 1.038, 0.061, -10.052, -71.669, 174.353, -24.813, -10.893, -12.660, 29.65, -0.08707, -0.57889, 0.09885, -0.80463,
 15:29:03.378,e3:ca:2d:fd:e0:8c, 2015-01-01 03:14:13.270, 0.966, -0.053, 0.319, 0, 0.488, 0.244, -10.047, -71.653, 174.293, -24.813, -10.893, -12.660, 29.65, -0.08707, -0.57889, 0.09885, -0.80463,
 15:29:03.380,ed:40:fe:65:30:6c, 2015-01-01 03:14:12.000, 0.78, 0.238, 0.585, 0.122, -0.61, -0.305, 21.275, -51.976, -146.288, -22.200, -14.513, -1.180, 26.71, 0.33368, -0.36401, -0.28348, -0.82199,
 15:29:03.380,ed:40:fe:65:30:6c, 2015-01-01 03:14:12.000, 0.78, 0.238, 0.586, 0.061, -0.366, -0.244, 21.297, -51.976, -146.305, -22.200, -14.513, -1.180, 26.71, 0.33368, -0.36401, -0.28348, -0.82199,
 15:29:03.381,ed:35:33:d3:6c:f8, 2015-01-01 03:14:12.475, 0.538, 0.296, 0.788, -0.183, -0.916, -0.244, 19.896, -33.404, 148.403, -14.100, -16.120, -25.540, 31.62, 0.20386, 0.31665, 0.08371, 0.92252,
 15:29:03.381,ed:35:33:d3:6c:f8, 2015-01-01 03:14:12.475, 0.538, 0.298, 0.786, -0.061, -1.099, -0.244, 19.913, -33.415, 148.365, -14.100, -16.120, -25.540, 31.62, 0.20386, 0.31665, 0.08371, 0.92252,
 15:29:03.382,f6:90:cc:01:6d:25, 2015-01-01 03:14:11.605, 0.858, 0.267, 0.409, 1.16, 0.427, -0.366, 32.673, -60.859, 174.177, -24.847, -17.540, -6.600, 31.87, 0.10516, -0.49771, -0.21936, -0.83246,
 15:29:03.382,f6:90:cc:01:6d:25, 2015-01-01 03:14:11.605, 0.858, 0.268, 0.41, 0.793, 0.183, -0.183, 32.701, -60.853, 174.188, -24.847, -17.540, -6.600, 31.87, 0.10516, -0.49771, -0.21936, -0.83246,
 15:29:03.424,e3:ca:2d:fd:e0:8c, 2015-01-01 03:14:13.270, 0.966, -0.053, 0.319, 0, 0.183, 0.305, -10.058, -71.647, 174.254, -24.813, -10.893, -12.660, 29.65, -0.08707, -0.57889, 0.09885, -0.80463,
 15:29:03.424,e3:ca:2d:fd:e0:8c, 2015-01-01 03:14:13.270, 0.969, -0.052, 0.319, -0.061, 0, 0.366, -10.074, -71.642, 174.232, -24.813, -10.893, -12.660, 29.65, -0.08707, -0.57889, 0.09885, -0.80463,
 15:29:03.426,ed:35:33:d3:6c:f8, 2015-01-01 03:14:12.475, 0.54, 0.296, 0.785, -0.061, -0.916, -0.183, 19.929, -33.426, 148.332, -14.100, -16.120, -25.540, 31.62, 0.20386, 0.31665, 0.08371, 0.92252,
 15:29:03.426,ed:35:33:d3:6c:f8, 2015-01-01 03:14:12.475, 0.542, 0.296, 0.784, 0, -0.61, 0, 19.94, -33.437, 148.304, -14.100, -16.120, -25.540, 31.62, 0.20386, 0.31665, 0.08371, 0.92252,
 15:29:03.430,f6:90:cc:01:6d:25, 2015-01-01 03:14:11.605, 0.859, 0.267, 0.409, 0.427, 0, -0.061, 32.723, -60.848, 174.216, -24.847, -17.540, -6.600, 31.87, 0.10516, -0.49771, -0.21936, -0.83246,
 15:29:03.430,f6:90:cc:01:6d:25, 2015-01-01 03:14:11.605, 0.861, 0.268, 0.408, 0.366, -0.183, 0.061, 32.739, -60.853, 174.232, -24.847, -17.540, -6.600, 31.87, 0.10516, -0.49771, -0.21936, -0.83246,
 15:29:03.447,ed:40:fe:65:30:6c, 2015-01-01 03:14:12.000, 0.782, 0.237, 0.582, 0.122, -0.183, -0.122, 21.313, -51.971, -146.299, -22.200, -14.513, -1.180, 26.71, 0.33368, -0.36401, -0.28348, -0.82199,
 15:29:03.447,ed:40:fe:65:30:6c, 2015-01-01 03:14:12.000, 0.781, 0.237, 0.583, 0.671, 0, 0, 21.335, -51.965, -146.277, -22.200, -14.513, -1.180, 26.71, 0.33368, -0.36401, -0.28348, -0.82199,
 15:29:03.448,ed:35:33:d3:6c:f8, 2015-01-01 03:14:12.475, 0.542, 0.296, 0.779, 0.671, -0.366, 0.427, 19.957, -33.437, 148.31, -14.100, -16.120, -25.540, 31.62, 0.20386, 0.31665, 0.08371, 0.92252,
 15:29:03.448,ed:35:33:d3:6c:f8, 2015-01-01 03:14:12.475, 0.542, 0.289, 0.778, 0.977, -0.061, 0.977, 19.973, -33.442, 148.326, -14.100, -16.120, -25.540, 31.62, 0.20386, 0.31665, 0.08371, 0.92252,
 15:29:03.468,e3:ca:2d:fd:e0:8c, 2015-01-01 03:14:13.270, 0.967, -0.053, 0.319, -0.122, -0.122, 0.427, -10.091, -71.642, 174.21, -24.813, -10.893, -12.660, 29.65, -0.08707, -0.57889, 0.09885, -0.80463,
 15:29:03.468,e3:ca:2d:fd:e0:8c, 2015-01-01 03:14:13.270, 0.966, -0.055, 0.318, -0.122, -0.305, 0.488, -10.118, -71.642, 174.199, -24.813, -10.893, -12.660, 29.65, -0.08707, -0.57889, 0.09885, -0.80463,
 15:29:03.470,ed:40:fe:65:30:6c, 2015-01-01 03:14:12.400, 0.779, 0.232, 0.574, 1.648, 0.122, 0.244, 21.363, -51.96, -146.25, -22.200, -14.513, -1.180, 26.71, 0.33368, -0.36401, -0.28348, -0.82199,
 15:29:03.470,ed:40:fe:65:30:6c, 2015-01-01 03:14:12.400, 0.782, 0.231, 0.573, 2.808, -0.122, 0.183, 21.412, -51.954, -146.223, -22.200, -14.513, -1.180, 26.71, 0.33368, -0.36401, -0.28348, -0.82199,
 15:29:03.472,f6:90:cc:01:6d:25, 2015-01-01 03:14:11.605, 0.859, 0.267, 0.405, 0.366, -0.244, 0.122, 32.756, -60.853, 174.249, -24.847, -17.540, -6.600, 31.87, 0.10101, -0.49747, -0.21835, -0.83337,
 15:29:03.472,f6:90:cc:01:6d:25, 2015-01-01 03:14:11.605, 0.86, 0.265, 0.403, 0.427, -0.244, 0.244, 32.767, -60.859, 174.287, -24.847, -17.540, -6.600, 31.87, 0.10101, -0.49747, -0.21835, -0.83337,
 15:29:03.493,ed:40:fe:65:30:6c, 2015-01-01 03:14:12.400, 0.787, 0.234, 0.575, 3.54, -0.244, 0.244, 21.478, -51.954, -146.201, -22.200, -14.513, -1.180, 26.71, 0.33368, -0.36401, -0.28348, -0.82199,
 15:29:03.493,ed:40:fe:65:30:6c, 2015-01-01 03:14:12.400, 0.789, 0.237, 0.578, 3.113, 0.122, 0.305, 21.544, -51.949, -146.173, -22.200, -14.513, -1.180, 26.71, 0.33368, -0.36401, -0.28348, -0.82199,
 15:29:03.494,ed:35:33:d3:6c:f8, 2015-01-01 03:14:12.475, 0.546, 0.292, 0.775, 1.77, -0.122, 1.221, 19.995, -33.448, 148.354, -14.100, -16.120, -25.540, 31.62, 0.20386, 0.31665, 0.08371, 0.92252,
 15:29:03.494,ed:35:33:d3:6c:f8, 2015-01-01 03:14:12.475, 0.55, 0.293, 0.78, 1.77, 0.122, 1.282, 20.023, -33.448, 148.392, -14.100, -16.120, -25.540, 31.62, 0.20386, 0.31665, 0.08371, 0.92252,
 15:29:03.514,e3:ca:2d:fd:e0:8c, 2015-01-01 03:14:13.270, 0.968, -0.055, 0.315, 0, -0.366, 0.549, -10.146, -71.647, 174.216, -24.813, -10.893, -12.660, 29.65, -0.08707, -0.57889, 0.09885, -0.80463,
 15:29:03.514,e3:ca:2d:fd:e0:8c, 2015-01-01 03:14:13.270, 0.97, -0.054, 0.315, -0.061, -0.427, 0.549, -10.179, -71.653, 174.249, -24.813, -10.893, -12.660, 29.65, -0.08707, -0.57889, 0.09885, -0.80463,
 15:29:03.517,f6:90:cc:01:6d:25, 2015-01-01 03:14:11.915, 0.862, 0.265, 0.402, 0.549, -0.305, 0.366, 32.783, -60.864, 174.337, -24.847, -17.540, -6.600, 31.87, 0.10101, -0.49747, -0.21835, -0.83337,
 15:29:03.517,f6:90:cc:01:6d:25, 2015-01-01 03:14:11.915, 0.863, 0.268, 0.402, 0.671, -0.366, 0.305, 32.8, -60.87, 174.364, -24.847, -17.540, -6.600, 31.87, 0.10101, -0.49747, -0.21835, -0.83337,
 15:29:03.536,e3:ca:2d:fd:e0:8c, 2015-01-01 03:14:13.270, 0.969, -0.056, 0.314, 0.061, -0.549, 0.549, -10.212, -71.658, 174.282, -24.813, -10.893, -12.660, 29.65, -0.08707, -0.57889, 0.09885, -0.80463,
 15:29:03.536,e3:ca:2d:fd:e0:8c, 2015-01-01 03:14:13.270, 0.969, -0.059, 0.313, 0.549, -0.61, 0.549, -10.239, -71.669, 174.32, -24.813, -10.893, -12.660, 29.65, -0.08707, -0.57889, 0.09885, -0.80463,
 15:29:03.538,ed:40:fe:65:30:6c, 2015-01-01 03:14:12.400, 0.787, 0.237, 0.572, 2.502, 0.977, 0.61, 21.594, -51.938, -146.14, -22.200, -14.513, -1.180, 26.71, 0.33368, -0.36401, -0.28348, -0.82199,
 15:29:03.538,ed:40:fe:65:30:6c, 2015-01-01 03:14:12.400, 0.787, 0.233, 0.574, 3.113, 0.793, 0.793, 21.632, -51.921, -146.096, -22.200, -14.513, -1.180, 26.71, 0.33368, -0.36401, -0.28348, -0.82199,
 15:29:03.539,ed:35:33:d3:6c:f8, 2015-01-01 03:14:12.475, 0.549, 0.298, 0.776, 1.587, 0.854, 1.16, 20.045, -33.442, 148.42, -14.100, -16.120, -25.540, 31.62, 0.20386, 0.31665, 0.08371, 0.92252,
 15:29:03.539,ed:35:33:d3:6c:f8, 2015-01-01 03:14:12.475, 0.547, 0.294, 0.778, 1.648, 1.16, 1.465, 20.067, -33.426, 148.442, -14.100, -16.120, -25.540, 31.62, 0.20386, 0.31665, 0.08371, 0.92252,
 15:29:03.562,f6:90:cc:01:6d:25, 2015-01-01 03:14:11.915, 0.864, 0.264, 0.398, 0.61, -0.244, 0.305, 32.816, -60.875, 174.364, -24.847, -17.540, -6.600, 31.87, 0.10101, -0.49747, -0.21835, -0.83337,
 15:29:03.562,f6:90:cc:01:6d:25, 2015-01-01 03:14:11.915, 0.864, 0.263, 0.399, 0.732, -0.183, 0.366, 32.833, -60.881, 174.342, -24.847, -17.540, -6.600, 31.87, 0.10101, -0.49747, -0.21835, -0.83337,
 15:29:03.581,e3:ca:2d:fd:e0:8c, 2015-01-01 03:14:13.270, 0.97, -0.06, 0.312, 0.488, -0.488, 0.671, -10.267, -71.675, 174.348, -24.813, -10.893, -12.660, 29.65, -0.08707, -0.57889, 0.09885, -0.80463,
 15:29:03.581,e3:ca:2d:fd:e0:8c, 2015-01-01 03:14:13.270, 0.971, -0.06, 0.311, 0.183, -0.61, 0.732, -10.305, -71.686, 174.391, -24.813, -10.893, -12.660, 29.65, -0.08707, -0.57889, 0.09885, -0.80463,
 15:29:03.583,ed:40:fe:65:30:6c, 2015-01-01 03:14:12.400, 0.787, 0.234, 0.576, 3.113, 0.671, 0.854, 21.671, -51.91, -146.063, -22.200, -14.513, -1.180, 26.71, 0.33368, -0.36401, -0.28348, -0.82199,
 15:29:03.583,ed:40:fe:65:30:6c, 2015-01-01 03:14:12.400, 0.787, 0.236, 0.571, 2.563, 0.61, 1.038, 21.709, -51.899, -146.03, -22.200, -14.513, -1.180, 26.71, 0.33368, -0.36401, -0.28348, -0.82199,
 15:29:03.584,f6:90:cc:01:6d:25, 2015-01-01 03:14:11.915, 0.864, 0.264, 0.398, 0.793, -0.122, 0.61, 32.838, -60.892, 174.326, -24.847, -17.540, -6.600, 31.87, 0.10101, -0.49747, -0.21835, -0.83337,
 15:29:03.584,f6:90:cc:01:6d:25, 2015-01-01 03:14:11.915, 0.866, 0.263, 0.397, 0.61, -0.122, 0.732, 32.838, -60.897, 174.293, -24.847, -17.540, -6.600, 31.87, 0.10101, -0.49747, -0.21835, -0.83337,
 15:29:03.606,ed:35:33:d3:6c:f8, 2015-01-01 03:14:12.475, 0.548, 0.291, 0.782, 1.953, 1.099, 1.77, 20.083, -33.415, 148.458, -14.187, -15.207, -24.593, 31.62, 0.20386, 0.31665, 0.08371, 0.92252,
 15:29:03.606,ed:35:33:d3:6c:f8, 2015-01-01 03:14:12.475, 0.548, 0.293, 0.779, 1.526, 0.793, 1.77, 20.094, -33.409, 148.458, -14.187, -15.207, -24.593, 31.62, 0.20386, 0.31665, 0.08371, 0.92252,
 15:29:03.628,ed:40:fe:65:30:6c, 2015-01-01 03:14:12.400, 0.788, 0.231, 0.572, 2.563, 0.366, 1.038, 21.736, -51.894, -145.992, -22.200, -14.513, -1.180, 26.71, 0.33368, -0.36401, -0.28348, -0.82199,
 15:29:03.628,ed:40:fe:65:30:6c, 2015-01-01 03:14:12.400, 0.788, 0.229, 0.573, 2.625, 0.244, 1.038, 21.764, -51.894, -145.964, -22.200, -14.513, -1.180, 26.71, 0.33368, -0.36401, -0.28348, -0.82199,
 15:29:03.629,ed:35:33:d3:6c:f8, 2015-01-01 03:14:12.475, 0.55, 0.291, 0.778, 1.16, 0.488, 1.709, 20.105, -33.409, 148.447, -14.187, -15.207, -24.593, 31.62, 0.2081, 0.31781, 0.08392, 0.92117,
 15:29:03.629,ed:35:33:d3:6c:f8, 2015-01-01 03:14:12.475, 0.55, 0.286, 0.78, 1.282, 0.244, 1.709, 20.11, -33.415, 148.42, -14.187, -15.207, -24.593, 31.62, 0.2081, 0.31781, 0.08392, 0.92117,
 15:29:03.630,f6:90:cc:01:6d:25, 2015-01-01 03:14:11.915, 0.866, 0.261, 0.396, 0.366, -0.122, 0.732, 32.833, -60.908, 174.293, -24.847, -17.540, -6.600, 31.87, 0.10101, -0.49747, -0.21835, -0.83337,
 15:29:03.630,f6:90:cc:01:6d:25, 2015-01-01 03:14:11.915, 0.867, 0.26, 0.397, 0.366, -0.122, 0.671, 32.833, -60.919, 174.287, -24.847, -17.540, -6.600, 31.87, 0.10101, -0.49747, -0.21835, -0.83337,
 15:29:03.650,e3:ca:2d:fd:e0:8c, 2015-01-01 03:14:13.270, 0.971, -0.059, 0.311, 0.122, -0.671, 0.671, -10.349, -71.697, 174.435, -25.040, -11.120, -11.933, 29.65, -0.08707, -0.57889, 0.09885, -0.80463,
 15:29:03.650,e3:ca:2d:fd:e0:8c, 2015-01-01 03:14:13.270, 0.972, -0.06, 0.311, 0.427, -0.732, 0.488, -10.388, -71.708, 174.457, -25.040, -11.120, -11.933, 29.65, -0.08707, -0.57889, 0.09885, -0.80463,
 15:29:03.672,ed:40:fe:65:30:6c, 2015-01-01 03:14:12.400, 0.789, 0.228, 0.571, 2.38, 0.244, 1.038, 21.791, -51.899, -145.942, -22.200, -14.513, -1.180, 26.71, 0.33368, -0.36401, -0.28348, -0.82199,
 15:29:03.672,ed:40:fe:65:30:6c, 2015-01-01 03:14:12.400, 0.788, 0.23, 0.572, 2.197, 0.366, 0.916, 21.813, -51.899, -145.926, -22.200, -14.513, -1.180, 26.71, 0.33368, -0.36401, -0.28348, -0.82199,
 15:29:03.674,ed:35:33:d3:6c:f8, 2015-01-01 03:14:12.475, 0.551, 0.284, 0.779, 1.16, 0.122, 1.709, 20.116, -33.42, 148.376, -14.187, -15.207, -24.593, 31.62, 0.2081, 0.31781, 0.08392, 0.92117,
 15:29:03.674,ed:35:33:d3:6c:f8, 2015-01-01 03:14:12.475, 0.55, 0.285, 0.777, 0.916, 0.244, 1.587, 20.121, -33.426, 148.354, -14.187, -15.207, -24.593, 31.62, 0.2081, 0.31781, 0.08392, 0.92117,
 15:29:03.676,f6:90:cc:01:6d:25, 2015-01-01 03:14:11.915, 0.867, 0.259, 0.397, 0.366, -0.183, 0.61, 32.827, -60.93, 174.282, -24.847, -17.540, -6.600, 31.87, 0.10101, -0.49747, -0.21835, -0.83337,
 15:29:03.676,f6:90:cc:01:6d:25, 2015-01-01 03:14:11.915, 0.866, 0.261, 0.397, 0.305, -0.183, 0.488, 32.833, -60.941, 174.254, -24.847, -17.540, -6.600, 31.87, 0.10101, -0.49747, -0.21835, -0.83337,
 15:29:03.693,e3:ca:2d:fd:e0:8c, 2015-01-01 03:14:13.270, 0.972, -0.06, 0.312, 0.366, -0.488, 0.366, -10.415, -71.719, 174.485, -25.040, -11.120, -11.933, 29.65, -0.09192, -0.57916, 0.10153, -0.80356,
 15:29:03.693,e3:ca:2d:fd:e0:8c, 2015-01-01 03:14:13.270, 0.972, -0.059, 0.313, 0.122, -0.244, 0.244, -10.437, -71.73, 174.507, -25.040, -11.120, -11.933, 29.65, -0.09192, -0.57916, 0.10153, -0.80356,
 15:29:03.695,ed:40:fe:65:30:6c, 2015-01-01 03:14:12.400, 0.787, 0.23, 0.573, 2.075, 0.427, 0.732, 21.835, -51.894, -145.915, -21.900, -15.060, -0.340, 26.71, 0.33368, -0.36401, -0.28348, -0.82199,
 15:29:03.695,ed:40:fe:65:30:6c, 2015-01-01 03:14:12.400, 0.79, 0.232, 0.568, 1.892, 0.244, 0.549, 21.857, -51.894, -145.893, -21.900, -15.060, -0.340, 26.71, 0.33368, -0.36401, -0.28348, -0.82199,
 15:29:03.695,ed:35:33:d3:6c:f8, 2015-01-01 03:14:12.830, 0.55, 0.285, 0.78, 1.038, 0.305, 1.343, 20.127, -33.431, 148.343, -14.187, -15.207, -24.593, 31.62, 0.2081, 0.31781, 0.08392, 0.92117,
 15:29:03.695,ed:35:33:d3:6c:f8, 2015-01-01 03:14:12.830, 0.551, 0.287, 0.777, 1.16, 0.122, 1.16, 20.132, -33.437, 148.354, -14.187, -15.207, -24.593, 31.62, 0.2081, 0.31781, 0.08392, 0.92117,
 15:29:03.722,f6:90:cc:01:6d:25, 2015-01-01 03:14:11.915, 0.868, 0.263, 0.396, 0.244, 0, 0.366, 32.833, -60.947, 174.232, -24.653, -17.227, -6.947, 31.87, 0.10101, -0.49747, -0.21835, -0.83337,
 15:29:03.722,f6:90:cc:01:6d:25, 2015-01-01 03:14:11.915, 0.869, 0.266, 0.397, -0.122, 0.366, 0.183, 32.827, -60.952, 174.238, -24.653, -17.227, -6.947, 31.87, 0.10101, -0.49747, -0.21835, -0.83337,
 15:29:03.739,ed:40:fe:65:30:6c, 2015-01-01 03:14:12.400, 0.792, 0.232, 0.57, 0.732, 0, 0.305, 21.874, -51.894, -145.887, -21.900, -15.060, -0.340, 26.71, 0.33368, -0.36401, -0.28348, -0.82199,
 15:29:03.739,ed:40:fe:65:30:6c, 2015-01-01 03:14:12.400, 0.792, 0.236, 0.567, -0.854, 0.305, -0.122, 21.863, -51.888, -145.898, -21.900, -15.060, -0.340, 26.71, 0.33368, -0.36401, -0.28348, -0.82199,
 15:29:03.740,e3:ca:2d:fd:e0:8c, 2015-01-01 03:14:13.270, 0.972, -0.058, 0.312, 0, -0.061, 0.061, -10.448, -71.735, 174.534, -25.040, -11.120, -11.933, 29.65, -0.09192, -0.57916, 0.10153, -0.80356,
 15:29:03.740,e3:ca:2d:fd:e0:8c, 2015-01-01 03:14:13.270, 0.973, -0.057, 0.313, 0, -0.122, 0.061, -10.453, -71.735, 174.556, -25.040, -11.120, -11.933, 29.65, -0.09192, -0.57916, 0.10153, -0.80356,
 15:29:03.741,ed:35:33:d3:6c:f8, 2015-01-01 03:14:12.830, 0.555, 0.285, 0.777, 0.61, -0.183, 0.793, 20.138, -33.448, 148.343, -14.187, -15.207, -24.593, 31.62, 0.2081, 0.31781, 0.08392, 0.92117,
 15:29:03.741,ed:35:33:d3:6c:f8, 2015-01-01 03:14:12.830, 0.557, 0.288, 0.776, -0.305, -0.061, -0.061, 20.138, -33.448, 148.288, -14.187, -15.207, -24.593, 31.62, 0.2081, 0.31781, 0.08392, 0.92117,
 15:29:03.762,e3:ca:2d:fd:e0:8c, 2015-01-01 03:14:13.625, 0.974, -0.055, 0.313, -0.061, 0, 0, -10.459, -71.741, 174.573, -25.040, -11.120, -11.933, 29.65, -0.09192, -0.57916, 0.10153, -0.80356,
 15:29:03.762,e3:ca:2d:fd:e0:8c, 2015-01-01 03:14:13.625, 0.973, -0.055, 0.313, -0.244, 0.122, -0.061, -10.459, -71.741, 174.578, -25.040, -11.120, -11.933, 29.65, -0.09192, -0.57916, 0.10153, -0.80356,
 15:29:03.766,f6:90:cc:01:6d:25, 2015-01-01 03:14:11.915, 0.868, 0.268, 0.396, -0.549, 0.916, 0, 32.816, -60.947, 174.254, -24.653, -17.227, -6.947, 31.87, 0.10165, -0.49805, -0.21878, -0.83286,
 15:29:03.766,f6:90:cc:01:6d:25, 2015-01-01 03:14:11.915, 0.865, 0.266, 0.396, -1.038, 1.221, -0.061, 32.794, -60.93, 174.276, -24.653, -17.227, -6.947, 31.87, 0.10165, -0.49805, -0.21878, -0.83286,
 15:29:03.784,e3:ca:2d:fd:e0:8c, 2015-01-01 03:14:13.625, 0.97, -0.056, 0.314, -0.488, 0.488, -0.244, -10.459, -71.735, 174.556, -25.040, -11.120, -11.933, 29.65, -0.09192, -0.57916, 0.10153, -0.80356,
 15:29:03.784,e3:ca:2d:fd:e0:8c, 2015-01-01 03:14:13.625, 0.968, -0.058, 0.312, -0.732, 0.61, -0.427, -10.443, -71.73, 174.518, -25.040, -11.120, -11.933, 29.65, -0.09192, -0.57916, 0.10153, -0.80356,
 15:29:03.786,ed:35:33:d3:6c:f8, 2015-01-01 03:14:12.830, 0.552, 0.288, 0.773, -0.671, -0.244, -0.977, 20.138, -33.448, 148.228, -14.187, -15.207, -24.593, 31.62, 0.2081, 0.31781, 0.08392, 0.92117,
 15:29:03.786,ed:35:33:d3:6c:f8, 2015-01-01 03:14:12.830, 0.547, 0.284, 0.778, -0.732, -0.122, -1.221, 20.143, -33.448, 148.206, -14.187, -15.207, -24.593, 31.62, 0.2081, 0.31781, 0.08392, 0.92117,
 15:29:03.788,f6:90:cc:01:6d:25, 2015-01-01 03:14:12.205, 0.861, 0.262, 0.398, -1.282, 1.282, -0.305, 32.761, -60.914, 174.282, -24.653, -17.227, -6.947, 31.87, 0.10165, -0.49805, -0.21878, -0.83286,
 15:29:03.788,f6:90:cc:01:6d:25, 2015-01-01 03:14:12.205, 0.859, 0.262, 0.4, -1.404, 1.16, -0.427, 32.728, -60.892, 174.265, -24.653, -17.227, -6.947, 31.87, 0.10165, -0.49805, -0.21878, -0.83286,
 15:29:03.808,ed:40:fe:65:30:6c, 2015-01-01 03:14:12.400, 0.787, 0.23, 0.568, -1.77, 0.549, -0.61, 21.846, -51.877, -145.915, -21.900, -15.060, -0.340, 26.71, 0.33826, -0.36066, -0.28906, -0.81964,
 15:29:03.808,ed:40:fe:65:30:6c, 2015-01-01 03:14:12.400, 0.784, 0.229, 0.574, -1.709, 0.61, -0.732, 21.824, -51.866, -145.937, -21.900, -15.060, -0.340, 26.71, 0.33826, -0.36066, -0.28906, -0.81964,
 15:29:03.809,ed:35:33:d3:6c:f8, 2015-01-01 03:14:12.830, 0.542, 0.291, 0.78, -0.671, 0.061, -0.916, 20.143, -33.442, 148.195, -14.187, -15.207, -24.593, 31.62, 0.2081, 0.31781, 0.08392, 0.92117,
 15:29:03.809,ed:35:33:d3:6c:f8, 2015-01-01 03:14:12.830, 0.542, 0.295, 0.782, -0.488, 0.061, -0.61, 20.143, -33.437, 148.206, -14.187, -15.207, -24.593, 31.62, 0.2081, 0.31781, 0.08392, 0.92117,
 15:29:03.829,e3:ca:2d:fd:e0:8c, 2015-01-01 03:14:13.625, 0.967, -0.058, 0.31, -0.854, 0.427, -0.488, -10.426, -71.724, 174.474, -25.040, -11.120, -11.933, 29.65, -0.09192, -0.57916, 0.10153, -0.80356,
 15:29:03.829,e3:ca:2d:fd:e0:8c, 2015-01-01 03:14:13.625, 0.967, -0.058, 0.31, -0.549, 0.244, -0.366, -10.41, -71.719, 174.424, -25.040, -11.120, -11.933, 29.65, -0.09192, -0.57916, 0.10153, -0.80356,
 15:29:03.831,ed:40:fe:65:30:6c, 2015-01-01 03:14:12.760, 0.781, 0.235, 0.577, -1.343, 0.854, -0.488, 21.802, -51.844, -145.942, -21.900, -15.060, -0.340, 26.71, 0.33826, -0.36066, -0.28906, -0.81964,
 15:29:03.831,ed:40:fe:65:30:6c, 2015-01-01 03:14:12.760, 0.78, 0.239, 0.577, -1.282, 0.61, -0.244, 21.786, -51.833, -145.948, -21.900, -15.060, -0.340, 26.71, 0.33826, -0.36066, -0.28906, -0.81964,
 15:29:03.833,f6:90:cc:01:6d:25, 2015-01-01 03:14:12.205, 0.859, 0.261, 0.398, -1.16, 0.854, -0.305, 32.701, -60.87, 174.265, -24.653, -17.227, -6.947, 31.87, 0.10165, -0.49805, -0.21878, -0.83286,
 15:29:03.833,f6:90:cc:01:6d:25, 2015-01-01 03:14:12.205, 0.861, 0.263, 0.399, -0.793, 0.61, -0.061, 32.684, -60.859, 174.254, -24.653, -17.227, -6.947, 31.87, 0.10165, -0.49805, -0.21878, -0.83286,
 15:29:03.852,ed:40:fe:65:30:6c, 2015-01-01 03:14:12.760, 0.78, 0.238, 0.575, -1.77, 0.305, -0.061, 21.753, -51.823, -145.948, -21.900, -15.060, -0.340, 26.71, 0.33826, -0.36066, -0.28906, -0.81964,
 15:29:03.852,ed:40:fe:65:30:6c, 2015-01-01 03:14:12.760, 0.78, 0.236, 0.578, -1.587, 0, 0, 21.725, -51.823, -145.953, -21.900, -15.060, -0.340, 26.71, 0.33826, -0.36066, -0.28906, -0.81964,
 15:29:03.854,ed:35:33:d3:6c:f8, 2015-01-01 03:14:12.830, 0.542, 0.295, 0.78, -0.977, -0.122, -0.61, 20.138, -33.437, 148.206, -14.187, -15.207, -24.593, 31.62, 0.2081, 0.31781, 0.08392, 0.92117,
 15:29:03.854,ed:35:33:d3:6c:f8, 2015-01-01 03:14:12.830, 0.541, 0.293, 0.78, -1.343, -0.122, -0.549, 20.121, -33.431, 148.2, -14.187, -15.207, -24.593, 31.62, 0.2081, 0.31781, 0.08392, 0.92117,
 15:29:03.873,e3:ca:2d:fd:e0:8c, 2015-01-01 03:14:13.625, 0.968, -0.059, 0.312, -0.183, 0.244, -0.122, -10.399, -71.713, 174.397, -25.040, -11.120, -11.933, 29.65, -0.09192, -0.57916, 0.10153, -0.80356,
 15:29:03.873,e3:ca:2d:fd:e0:8c, 2015-01-01 03:14:13.625, 0.968, -0.057, 0.316, -0.122, 0.366, 0.061, -10.399, -71.713, 174.386, -25.040, -11.120, -11.933, 29.65, -0.09192, -0.57916, 0.10153, -0.80356,
 15:29:03.877,f6:90:cc:01:6d:25, 2015-01-01 03:14:12.205, 0.861, 0.264, 0.402, -0.671, 0.61, 0.061, 32.668, -60.848, 174.249, -24.653, -17.227, -6.947, 31.87, 0.10165, -0.49805, -0.21878, -0.83286,
 15:29:03.877,f6:90:cc:01:6d:25, 2015-01-01 03:14:12.205, 0.863, 0.263, 0.405, -0.793, 0.427, 0.122, 32.646, -60.842, 174.271, -24.653, -17.227, -6.947, 31.87, 0.10165, -0.49805, -0.21878, -0.83286,
 15:29:03.896,e3:ca:2d:fd:e0:8c, 2015-01-01 03:14:13.625, 0.968, -0.058, 0.317, -0.183, 0.305, 0.061, -10.404, -71.708, 174.391, -25.040, -11.120, -11.933, 29.65, -0.09192, -0.57916, 0.10153, -0.80356,
 15:29:03.896,e3:ca:2d:fd:e0:8c, 2015-01-01 03:14:13.625, 0.968, -0.059, 0.317, -0.244, 0.183, 0, -10.404, -71.702, 174.413, -25.040, -11.120, -11.933, 29.65, -0.09192, -0.57916, 0.10153, -0.80356,
 15:29:03.898,ed:40:fe:65:30:6c, 2015-01-01 03:14:12.760, 0.784, 0.232, 0.58, -1.099, -0.244, -0.122, 21.714, -51.823, -145.959, -21.900, -15.060, -0.340, 26.71, 0.33826, -0.36066, -0.28906, -0.81964,
 15:29:03.898,ed:40:fe:65:30:6c, 2015-01-01 03:14:12.760, 0.786, 0.233, 0.578, -1.221, -0.305, -0.061, 21.698, -51.823, -145.953, -21.900, -15.060, -0.340, 26.71, 0.33826, -0.36066, -0.28906, -0.81964,
 15:29:03.899,ed:35:33:d3:6c:f8, 2015-01-01 03:14:12.830, 0.544, 0.289, 0.784, -0.854, -0.183, -0.366, 20.11, -33.431, 148.162, -14.187, -15.207, -24.593, 31.62, 0.2081, 0.31781, 0.08392, 0.92117,
 15:29:03.899,ed:35:33:d3:6c:f8, 2015-01-01 03:14:12.830, 0.546, 0.29, 0.783, -0.549, -0.183, -0.366, 20.11, -33.431, 148.107, -14.187, -15.207, -24.593, 31.62, 0.2081, 0.31781, 0.08392, 0.92117,
 15:29:03.923,f6:90:cc:01:6d:25, 2015-01-01 03:14:12.205, 0.864, 0.261, 0.406, -0.977, 0.366, 0.122, 32.629, -60.837, 174.287, -24.653, -17.227, -6.947, 31.87, 0.10165, -0.49805, -0.21878, -0.83286,
 15:29:03.923,f6:90:cc:01:6d:25, 2015-01-01 03:14:12.205, 0.864, 0.259, 0.406, -1.099, 0.427, 0.122, 32.602, -60.837, 174.331, -24.653, -17.227, -6.947, 31.87, 0.10165, -0.49805, -0.21878, -0.83286,
 15:29:03.943,ed:40:fe:65:30:6c, 2015-01-01 03:14:12.760, 0.787, 0.232, 0.578, -1.221, -0.183, -0.061, 21.682, -51.823, -145.948, -21.900, -15.060, -0.340, 26.71, 0.33826, -0.36066, -0.28906, -0.81964,
 15:29:03.943,ed:40:fe:65:30:6c, 2015-01-01 03:14:12.760, 0.785, 0.231, 0.575, -1.892, 0.061, 0, 21.654, -51.817, -145.937, -21.900, -15.060, -0.340, 26.71, 0.33826, -0.36066, -0.28906, -0.81964,
 15:29:03.964,e3:ca:2d:fd:e0:8c, 2015-01-01 03:14:13.625, 0.97, -0.06, 0.316, -0.366, 0, -0.183, -10.404, -71.702, 174.43, -25.040, -11.120, -11.933, 29.65, -0.09192, -0.57916, 0.10153, -0.80356,
 15:29:03.964,e3:ca:2d:fd:e0:8c, 2015-01-01 03:14:13.625, 0.969, -0.059, 0.317, -0.671, 0.061, -0.244, -10.404, -71.702, 174.419, -25.040, -11.120, -11.933, 29.65, -0.09192, -0.57916, 0.10153, -0.80356,
 15:29:03.966,ed:35:33:d3:6c:f8, 2015-01-01 03:14:12.830, 0.55, 0.289, 0.781, -0.488, 0, -0.427, 20.11, -33.426, 148.09, -13.960, -15.740, -25.120, 31.62, 0.2081, 0.31781, 0.08392, 0.92117,
 15:29:03.966,ed:35:33:d3:6c:f8, 2015-01-01 03:14:12.830, 0.548, 0.289, 0.78, -0.793, 0.061, -0.488, 20.105, -33.42, 148.09, -13.960, -15.740, -25.120, 31.62, 0.2081, 0.31781, 0.08392, 0.92117,
 15:29:03.967,f6:90:cc:01:6d:25, 2015-01-01 03:14:12.205, 0.862, 0.259, 0.404, -1.099, 0.61, 0.183, 32.574, -60.831, 174.375, -24.653, -17.227, -6.947, 31.87, 0.10165, -0.49805, -0.21878, -0.83286,
 15:29:03.967,f6:90:cc:01:6d:25, 2015-01-01 03:14:12.205, 0.859, 0.259, 0.403, -0.854, 0.793, 0.122, 32.542, -60.82, 174.402, -24.653, -17.227, -6.947, 31.87, 0.10165, -0.49805, -0.21878, -0.83286,
 15:29:03.987,ed:40:fe:65:30:6c, 2015-01-01 03:14:12.760, 0.78, 0.23, 0.575, -2.563, 0.183, 0.183, 21.605, -51.817, -145.92, -21.900, -15.060, -0.340, 26.71, 0.33826, -0.36066, -0.28906, -0.81964,
 15:29:03.987,ed:40:fe:65:30:6c, 2015-01-01 03:14:12.760, 0.78, 0.229, 0.577, -2.197, 0.488, 0.244, 21.555, -51.806, -145.887, -21.900, -15.060, -0.340, 26.71, 0.33826, -0.36066, -0.28906, -0.81964,
 15:29:03.987,e3:ca:2d:fd:e0:8c, 2015-01-01 03:14:13.625, 0.966, -0.057, 0.317, -0.61, 0.244, -0.244, -10.404, -71.697, 174.408, -24.913, -10.720, -11.487, 29.65, -0.09192, -0.57916, 0.10153, -0.80356,
 15:29:03.987,e3:ca:2d:fd:e0:8c, 2015-01-01 03:14:13.625, 0.966, -0.057, 0.316, -0.366, 0.366, -0.183, -10.393, -71.691, 174.37, -24.913, -10.720, -11.487, 29.65, -0.09192, -0.57916, 0.10153, -0.80356,
 15:29:03.989,ed:35:33:d3:6c:f8, 2015-01-01 03:14:12.830, 0.544, 0.288, 0.778, -1.526, 0.305, -0.61, 20.083, -33.409, 148.068, -13.960, -15.740, -25.120, 31.62, 0.21115, 0.31805, 0.08273, 0.9205,
 15:29:03.989,ed:35:33:d3:6c:f8, 2015-01-01 03:14:12.830, 0.54, 0.287, 0.779, -1.831, 0.61, -0.427, 20.056, -33.393, 148.046, -13.960, -15.740, -25.120, 31.62, 0.21115, 0.31805, 0.08273, 0.9205,
 15:29:03.990,f6:90:cc:01:6d:25, 2015-01-01 03:14:12.205, 0.857, 0.26, 0.405, -0.61, 0.854, 0.061, 32.514, -60.809, 174.424, -24.967, -17.360, -6.987, 31.87, 0.10165, -0.49805, -0.21878, -0.83286,
 15:29:03.990,f6:90:cc:01:6d:25, 2015-01-01 03:14:12.205, 0.86, 0.262, 0.405, -0.488, 0.732, 0.122, 32.487, -60.798, 174.43, -24.967, -17.360, -6.987, 31.87, 0.10165, -0.49805, -0.21878, -0.83286,
 15:29:04.031,e3:ca:2d:fd:e0:8c, 2015-01-01 03:14:13.625, 0.968, -0.056, 0.314, -0.061, 0.244, -0.061, -10.388, -71.686, 174.342, -24.913, -10.720, -11.487, 29.65, -0.09192, -0.57916, 0.10153, -0.80356,
 15:29:04.031,e3:ca:2d:fd:e0:8c, 2015-01-01 03:14:13.625, 0.971, -0.057, 0.313, 0, 0, 0, -10.388, -71.686, 174.326, -24.913, -10.720, -11.487, 29.65, -0.09192, -0.57916, 0.10153, -0.80356,
 15:29:04.033,ed:35:33:d3:6c:f8, 2015-01-01 03:14:12.830, 0.543, 0.287, 0.781, -1.099, 0.854, -0.183, 20.034, -33.376, 148.052, -13.960, -15.740, -25.120, 31.62, 0.21115, 0.31805, 0.08273, 0.9205,
 15:29:04.033,ed:35:33:d3:6c:f8, 2015-01-01 03:14:12.830, 0.545, 0.29, 0.782, -0.671, 0.916, -0.122, 20.017, -33.36, 148.085, -13.960, -15.740, -25.120, 31.62, 0.21115, 0.31805, 0.08273, 0.9205,
 15:29:04.033,ed:40:fe:65:30:6c, 2015-01-01 03:14:12.760, 0.782, 0.231, 0.58, -1.404, 0.305, 0.244, 21.517, -51.801, -145.871, -21.900, -15.060, -0.340, 26.71, 0.33826, -0.36066, -0.28906, -0.81964,
 15:29:04.033,ed:40:fe:65:30:6c, 2015-01-01 03:14:12.760, 0.783, 0.23, 0.578, -1.465, 0.671, 0.244, 21.484, -51.79, -145.86, -21.900, -15.060, -0.340, 26.71, 0.33826, -0.36066, -0.28906, -0.81964,
 15:29:04.038,f6:90:cc:01:6d:25, 2015-01-01 03:14:12.205, 0.863, 0.261, 0.404, -0.366, 0.488, 0.061, 32.47, -60.787, 174.446, -24.967, -17.360, -6.987, 31.87, 0.10165, -0.49805, -0.21878, -0.83286,
 15:29:04.038,f6:90:cc:01:6d:25, 2015-01-01 03:14:12.205, 0.864, 0.262, 0.403, -0.366, 0.427, 0.061, 32.454, -60.782, 174.457, -24.967, -17.360, -6.987, 31.87, 0.10165, -0.49805, -0.21878, -0.83286,
 15:29:04.056,ed:40:fe:65:30:6c, 2015-01-01 03:14:12.760, 0.786, 0.231, 0.573, -1.892, 0.488, 0.366, 21.44, -51.779, -145.838, -22.127, -14.193, -1.140, 26.71, 0.33826, -0.36066, -0.28906, -0.81964,
 15:29:04.056,ed:40:fe:65:30:6c, 2015-01-01 03:14:12.760, 0.787, 0.234, 0.574, -2.197, 0.61, 0.244, 21.39, -51.768, -145.816, -22.127, -14.193, -1.140, 26.71, 0.33826, -0.36066, -0.28906, -0.81964,
 15:29:04.057,ed:35:33:d3:6c:f8, 2015-01-01 03:14:13.190, 0.547, 0.288, 0.78, -1.099, 0.671, -0.122, 20.001, -33.344, 148.107, -13.960, -15.740, -25.120, 31.62, 0.21115, 0.31805, 0.08273, 0.9205,
 15:29:04.057,ed:35:33:d3:6c:f8, 2015-01-01 03:14:13.190, 0.547, 0.291, 0.777, -1.465, 0.427, -0.366, 19.979, -33.327, 148.107, -13.960, -15.740, -25.120, 31.62, 0.21115, 0.31805, 0.08273, 0.9205,
 15:29:04.080,f6:90:cc:01:6d:25, 2015-01-01 03:14:12.205, 0.864, 0.263, 0.401, -0.61, 0.488, 0.122, 32.443, -60.776, 174.474, -24.967, -17.360, -6.987, 31.87, 0.1012, -0.49683, -0.21732, -0.83401,
 15:29:04.080,f6:90:cc:01:6d:25, 2015-01-01 03:14:12.205, 0.863, 0.264, 0.404, -0.61, 0.61, 0.183, 32.421, -60.771, 174.485, -24.967, -17.360, -6.987, 31.87, 0.1012, -0.49683, -0.21732, -0.83401,
 15:29:04.099,e3:ca:2d:fd:e0:8c, 2015-01-01 03:14:13.625, 0.971, -0.058, 0.313, 0, 0, -0.061, -10.382, -71.686, 174.326, -24.913, -10.720, -11.487, 29.65, -0.09286, -0.5788, 0.10214, -0.80362,
 15:29:04.099,e3:ca:2d:fd:e0:8c, 2015-01-01 03:14:13.625, 0.969, -0.057, 0.315, -0.244, 0.122, -0.061, -10.382, -71.686, 174.304, -24.913, -10.720, -11.487, 29.65, -0.09286, -0.5788, 0.10214, -0.80362,
 15:29:04.100,ed:40:fe:65:30:6c, 2015-01-01 03:14:12.760, 0.786, 0.233, 0.581, -2.441, 0.793, 0.122, 21.341, -51.751, -145.789, -22.127, -14.193, -1.140, 26.71, 0.33826, -0.36066, -0.28906, -0.81964,
 15:29:04.100,ed:40:fe:65:30:6c, 2015-01-01 03:14:12.760, 0.785, 0.231, 0.581, -2.197, 1.038, 0.061, 21.292, -51.729, -145.772, -22.127, -14.193, -1.140, 26.71, 0.33826, -0.36066, -0.28906, -0.81964,
 15:29:04.102,ed:35:33:d3:6c:f8, 2015-01-01 03:14:13.190, 0.546, 0.291, 0.782, -1.831, 0.732, -0.549, 19.951, -33.311, 148.112, -13.960, -15.740, -25.120, 31.62, 0.21115, 0.31805, 0.08273, 0.9205,
 15:29:04.102,ed:35:33:d3:6c:f8, 2015-01-01 03:14:13.190, 0.544, 0.29, 0.785, -1.526, 1.404, -0.732, 19.929, -33.283, 148.123, -13.960, -15.740, -25.120, 31.62, 0.21115, 0.31805, 0.08273, 0.9205,
 15:29:04.121,e3:ca:2d:fd:e0:8c, 2015-01-01 03:14:14.005, 0.97, -0.057, 0.314, -0.366, 0.427, 0, -10.382, -71.68, 174.293, -24.913, -10.720, -11.487, 29.65, -0.09286, -0.5788, 0.10214, -0.80362,
 15:29:04.121,e3:ca:2d:fd:e0:8c, 2015-01-01 03:14:14.005, 0.97, -0.057, 0.313, -0.427, 0.061, -0.061, -10.388, -71.675, 174.287, -24.913, -10.720, -11.487, 29.65, -0.09286, -0.5788, 0.10214, -0.80362,
 15:29:04.125,f6:90:cc:01:6d:25, 2015-01-01 03:14:12.520, 0.863, 0.262, 0.403, -0.732, 0.549, 0.122, 32.399, -60.76, 174.507, -24.967, -17.360, -6.987, 31.87, 0.1012, -0.49683, -0.21732, -0.83401,
 15:29:04.125,f6:90:cc:01:6d:25, 2015-01-01 03:14:12.520, 0.862, 0.26, 0.404, -0.61, 0.366, 0.244, 32.382, -60.754, 174.534, -24.967, -17.360, -6.987, 31.87, 0.1012, -0.49683, -0.21732, -0.83401,
 15:29:04.146,ed:35:33:d3:6c:f8, 2015-01-01 03:14:13.190, 0.544, 0.29, 0.785, -1.038, 1.221, -0.427, 19.913, -33.256, 148.123, -13.960, -15.740, -25.120, 31.62, 0.21115, 0.31805, 0.08273, 0.9205,
 15:29:04.146,ed:35:33:d3:6c:f8, 2015-01-01 03:14:13.190, 0.541, 0.289, 0.787, -0.916, 0.854, 0, 19.896, -33.234, 148.129, -13.960, -15.740, -25.120, 31.62, 0.21115, 0.31805, 0.08273, 0.9205,
 15:29:04.148,f6:90:cc:01:6d:25, 2015-01-01 03:14:12.520, 0.861, 0.261, 0.403, -0.427, 0.366, 0.366, 32.36, -60.754, 174.562, -24.967, -17.360, -6.987, 31.87, 0.1012, -0.49683, -0.21732, -0.83401,
 15:29:04.148,f6:90:cc:01:6d:25, 2015-01-01 03:14:12.520, 0.86, 0.261, 0.404, -0.305, 0.244, 0.488, 32.344, -60.754, 174.611, -24.967, -17.360, -6.987, 31.87, 0.1012, -0.49683, -0.21732, -0.83401,
 15:29:04.166,e3:ca:2d:fd:e0:8c, 2015-01-01 03:14:14.005, 0.969, -0.058, 0.313, -0.061, 0, -0.061, -10.388, -71.675, 174.293, -24.913, -10.720, -11.487, 29.65, -0.09286, -0.5788, 0.10214, -0.80362,
 15:29:04.166,e3:ca:2d:fd:e0:8c, 2015-01-01 03:14:14.005, 0.969, -0.059, 0.312, 0, 0, 0, -10.382, -71.68, 174.298, -24.913, -10.720, -11.487, 29.65, -0.09286, -0.5788, 0.10214, -0.80362,
 15:29:04.189,ed:40:fe:65:30:6c, 2015-01-01 03:14:12.760, 0.784, 0.229, 0.58, -1.709, 0.793, 0.305, 21.248, -51.713, -145.745, -22.127, -14.193, -1.140, 26.71, 0.33725, -0.36087, -0.28519, -0.82132,
 15:29:04.189,ed:40:fe:65:30:6c, 2015-01-01 03:14:12.760, 0.78, 0.229, 0.581, -1.221, 0.549, 0.488, 21.215, -51.707, -145.723, -22.127, -14.193, -1.140, 26.71, 0.33725, -0.36087, -0.28519, -0.82132,
 15:29:04.190,e3:ca:2d:fd:e0:8c, 2015-01-01 03:14:14.005, 0.968, -0.057, 0.313, 0, 0.061, 0.122, -10.388, -71.68, 174.304, -24.913, -10.720, -11.487, 29.65, -0.09286, -0.5788, 0.10214, -0.80362,
 15:29:04.190,e3:ca:2d:fd:e0:8c, 2015-01-01 03:14:14.005, 0.968, -0.057, 0.314, 0, -0.122, 0.183, -10.399, -71.68, 174.309, -24.913, -10.720, -11.487, 29.65, -0.09286, -0.5788, 0.10214, -0.80362,
 15:29:04.193,f6:90:cc:01:6d:25, 2015-01-01 03:14:12.520, 0.86, 0.26, 0.405, -0.122, 0.122, 0.488, 32.327, -60.76, 174.644, -24.967, -17.360, -6.987, 31.87, 0.1012, -0.49683, -0.21732, -0.83401,
 15:29:04.193,f6:90:cc:01:6d:25, 2015-01-01 03:14:12.520, 0.861, 0.259, 0.406, 0, 0, 0.305, 32.322, -60.765, 174.672, -24.967, -17.360, -6.987, 31.87, 0.1012, -0.49683, -0.21732, -0.83401,
 15:29:04.213,ed:40:fe:65:30:6c, 2015-01-01 03:14:13.115, 0.781, 0.226, 0.577, -0.61, 0, 0.427, 21.193, -51.702, -145.712, -22.127, -14.193, -1.140, 26.71, 0.33725, -0.36087, -0.28519, -0.82132,
 15:29:04.213,ed:40:fe:65:30:6c, 2015-01-01 03:14:13.115, 0.781, 0.225, 0.582, -0.244, -0.244, 0.183, 21.187, -51.707, -145.706, -22.127, -14.193, -1.140, 26.71, 0.33725, -0.36087, -0.28519, -0.82132,
 15:29:04.213,ed:35:33:d3:6c:f8, 2015-01-01 03:14:13.190, 0.541, 0.286, 0.784, -0.549, 0.122, 0.183, 19.885, -33.228, 148.145, -13.960, -15.740, -25.120, 31.62, 0.21115, 0.31805, 0.08273, 0.9205,
 15:29:04.213,ed:35:33:d3:6c:f8, 2015-01-01 03:14:13.190, 0.541, 0.282, 0.784, -0.366, -0.488, 0.183, 19.88, -33.234, 148.156, -13.960, -15.740, -25.120, 31.62, 0.21115, 0.31805, 0.08273, 0.9205,
 15:29:04.234,e3:ca:2d:fd:e0:8c, 2015-01-01 03:14:14.005, 0.968, -0.057, 0.315, 0.305, -0.244, 0.183, -10.404, -71.686, 174.32, -24.913, -10.720, -11.487, 29.65, -0.09286, -0.5788, 0.10214, -0.80362,
 15:29:04.234,e3:ca:2d:fd:e0:8c, 2015-01-01 03:14:14.005, 0.969, -0.057, 0.316, 0.305, -0.244, 0.122, -10.41, -71.691, 174.337, -24.913, -10.720, -11.487, 29.65, -0.09286, -0.5788, 0.10214, -0.80362,
 15:29:04.235,ed:40:fe:65:30:6c, 2015-01-01 03:14:13.115, 0.781, 0.224, 0.581, 0.061, -0.244, 0, 21.193, -51.707, -145.701, -22.127, -14.193, -1.140, 26.71, 0.33725, -0.36087, -0.28519, -0.82132,
 15:29:04.235,ed:40:fe:65:30:6c, 2015-01-01 03:14:13.115, 0.782, 0.223, 0.58, 0.061, -0.244, -0.122, 21.204, -51.707, -145.695, -22.127, -14.193, -1.140, 26.71, 0.33725, -0.36087, -0.28519, -0.82132,
 15:29:04.236,ed:35:33:d3:6c:f8, 2015-01-01 03:14:13.190, 0.541, 0.282, 0.785, -0.122, -0.671, 0.061, 19.88, -33.245, 148.156, -13.960, -15.740, -25.120, 31.62, 0.21115, 0.31805, 0.08273, 0.9205,
 15:29:04.236,ed:35:33:d3:6c:f8, 2015-01-01 03:14:13.190, 0.543, 0.281, 0.783, 0.122, -0.61, 0, 19.885, -33.256, 148.129, -13.960, -15.740, -25.120, 31.62, 0.21115, 0.31805, 0.08273, 0.9205,
 15:29:04.237,f6:90:cc:01:6d:25, 2015-01-01 03:14:12.520, 0.861, 0.259, 0.407, 0, -0.183, 0.122, 32.322, -60.765, 174.672, -24.967, -17.360, -6.987, 31.87, 0.1012, -0.49683, -0.21732, -0.83401,
 15:29:04.237,f6:90:cc:01:6d:25, 2015-01-01 03:14:12.520, 0.861, 0.259, 0.405, 0.061, -0.244, 0, 32.327, -60.771, 174.661, -24.967, -17.360, -6.987, 31.87, 0.1012, -0.49683, -0.21732, -0.83401,
 15:29:04.258,ed:40:fe:65:30:6c, 2015-01-01 03:14:13.115, 0.782, 0.225, 0.579, -0.183, 0, -0.244, 21.209, -51.707, -145.684, -22.127, -14.193, -1.140, 26.71, 0.33725, -0.36087, -0.28519, -0.82132,
 15:29:04.258,ed:40:fe:65:30:6c, 2015-01-01 03:14:13.115, 0.781, 0.227, 0.579, -0.183, 0, -0.305, 21.215, -51.702, -145.673, -22.127, -14.193, -1.140, 26.71, 0.33725, -0.36087, -0.28519, -0.82132,
 15:29:04.278,e3:ca:2d:fd:e0:8c, 2015-01-01 03:14:14.005, 0.968, -0.057, 0.316, 0.061, -0.122, 0.061, -10.415, -71.691, 174.353, -24.913, -10.720, -11.487, 29.65, -0.09286, -0.5788, 0.10214, -0.80362,
 15:29:04.278,e3:ca:2d:fd:e0:8c, 2015-01-01 03:14:14.005, 0.968, -0.057, 0.316, -0.061, -0.061, 0, -10.415, -71.697, 174.348, -24.913, -10.720, -11.487, 29.65, -0.09286, -0.5788, 0.10214, -0.80362,
 15:29:04.282,ed:35:33:d3:6c:f8, 2015-01-01 03:14:13.190, 0.542, 0.282, 0.78, -0.061, -0.427, -0.244, 19.891, -33.261, 148.123, -13.960, -15.740, -25.120, 31.62, 0.21115, 0.31805, 0.08273, 0.9205,
 15:29:04.282,ed:35:33:d3:6c:f8, 2015-01-01 03:14:13.190, 0.542, 0.285, 0.782, 0, -0.183, -0.305, 19.896, -33.261, 148.123, -13.960, -15.740, -25.120, 31.62, 0.21115, 0.31805, 0.08273, 0.9205,
 15:29:04.283,f6:90:cc:01:6d:25, 2015-01-01 03:14:12.520, 0.86, 0.259, 0.404, 0.061, -0.122, -0.061, 32.338, -60.776, 174.655, -24.967, -17.360, -6.987, 31.87, 0.1012, -0.49683, -0.21732, -0.83401,
 15:29:04.283,f6:90:cc:01:6d:25, 2015-01-01 03:14:12.520, 0.861, 0.26, 0.406, 0.061, -0.122, 0, 32.349, -60.776, 174.661, -24.967, -17.360, -6.987, 31.87, 0.1012, -0.49683, -0.21732, -0.83401,
 15:29:04.302,ed:40:fe:65:30:6c, 2015-01-01 03:14:13.115, 0.782, 0.228, 0.578, -0.061, 0.061, -0.183, 21.22, -51.696, -145.668, -22.127, -14.193, -1.140, 26.71, 0.33725, -0.36087, -0.28519, -0.82132,
 15:29:04.302,ed:40:fe:65:30:6c, 2015-01-01 03:14:13.115, 0.786, 0.227, 0.578, 0, -0.122, -0.183, 21.226, -51.696, -145.668, -22.127, -14.193, -1.140, 26.71, 0.33725, -0.36087, -0.28519, -0.82132,
 15:29:04.303,ed:35:33:d3:6c:f8, 2015-01-01 03:14:13.190, 0.542, 0.287, 0.781, 0, -0.061, -0.244, 19.902, -33.256, 148.096, -14.593, -15.653, -25.227, 31.62, 0.21115, 0.31805, 0.08273, 0.9205,
 15:29:04.303,ed:35:33:d3:6c:f8, 2015-01-01 03:14:13.190, 0.546, 0.284, 0.78, 0, -0.366, -0.122, 19.907, -33.261, 148.079, -14.593, -15.653, -25.227, 31.62, 0.21115, 0.31805, 0.08273, 0.9205,
 15:29:04.324,e3:ca:2d:fd:e0:8c, 2015-01-01 03:14:14.005, 0.969, -0.057, 0.317, 0, 0.061, 0, -10.415, -71.697, 174.337, -24.913, -10.720, -11.487, 29.65, -0.09286, -0.5788, 0.10214, -0.80362,
 15:29:04.324,e3:ca:2d:fd:e0:8c, 2015-01-01 03:14:14.005, 0.97, -0.057, 0.317, 0.061, 0.183, 0.061, -10.41, -71.691, 174.315, -24.913, -10.720, -11.487, 29.65, -0.09286, -0.5788, 0.10214, -0.80362,
 15:29:04.328,f6:90:cc:01:6d:25, 2015-01-01 03:14:12.520, 0.863, 0.26, 0.405, 0.061, -0.061, 0, 32.355, -60.776, 174.655, -24.620, -17.427, -6.347, 31.87, 0.1012, -0.49683, -0.21732, -0.83401,
 15:29:04.328,f6:90:cc:01:6d:25, 2015-01-01 03:14:12.520, 0.864, 0.26, 0.406, 0.122, 0, -0.061, 32.36, -60.782, 174.65, -24.620, -17.427, -6.347, 31.87, 0.1012, -0.49683, -0.21732, -0.83401,
 15:29:04.349,ed:40:fe:65:30:6c, 2015-01-01 03:14:13.115, 0.785, 0.23, 0.581, -0.183, 0.244, -0.122, 21.226, -51.691, -145.673, -22.127, -14.193, -1.140, 26.71, 0.33725, -0.36087, -0.28519, -0.82132,
 15:29:04.349,ed:40:fe:65:30:6c, 2015-01-01 03:14:13.115, 0.787, 0.229, 0.577, 0, 0.183, -0.061, 21.231, -51.685, -145.679, -22.127, -14.193, -1.140, 26.71, 0.33725, -0.36087, -0.28519, -0.82132,
 15:29:04.351,e3:ca:2d:fd:e0:8c, 2015-01-01 03:14:14.005, 0.97, -0.058, 0.317, 0.183, 0.183, 0, -10.41, -71.686, 174.293, -25.047, -10.700, -12.173, 29.65, -0.09286, -0.5788, 0.10214, -0.80362,
 15:29:04.351,e3:ca:2d:fd:e0:8c, 2015-01-01 03:14:14.005, 0.97, -0.06, 0.316, 0.061, 0.183, 0, -10.404, -71.686, 174.271, -25.047, -10.700, -12.173, 29.65, -0.09286, -0.5788, 0.10214, -0.80362,
 15:29:04.351,ed:35:33:d3:6c:f8, 2015-01-01 03:14:13.190, 0.546, 0.289, 0.782, -0.183, 0.183, -0.183, 19.907, -33.256, 148.063, -14.593, -15.653, -25.227, 31.62, 0.21115, 0.31805, 0.08273, 0.9205,
 15:29:04.351,ed:35:33:d3:6c:f8, 2015-01-01 03:14:13.190, 0.546, 0.289, 0.782, 0, 0.244, -0.122, 19.907, -33.25, 148.046, -14.593, -15.653, -25.227, 31.62, 0.21115, 0.31805, 0.08273, 0.9205,
 15:29:04.352,f6:90:cc:01:6d:25, 2015-01-01 03:14:12.520, 0.865, 0.26, 0.405, 0.061, 0.061, 0, 32.366, -60.776, 174.666, -24.620, -17.427, -6.347, 31.87, 0.10233, -0.49646, -0.21759, -0.83401,
 15:29:04.352,f6:90:cc:01:6d:25, 2015-01-01 03:14:12.520, 0.863, 0.258, 0.405, -0.061, 0.122, 0.061, 32.371, -60.776, 174.672, -24.620, -17.427, -6.347, 31.87, 0.10233, -0.49646, -0.21759, -0.83401,
 15:29:04.372,ed:35:33:d3:6c:f8, 2015-01-01 03:14:13.190, 0.545, 0.29, 0.785, 0, 0.244, 0, 19.913, -33.245, 148.03, -14.593, -15.653, -25.227, 31.62, 0.21219, 0.3165, 0.0817, 0.9209,
 15:29:04.372,ed:35:33:d3:6c:f8, 2015-01-01 03:14:13.190, 0.542, 0.288, 0.784, -0.183, 0.366, 0.122, 19.907, -33.234, 148.013, -14.593, -15.653, -25.227, 31.62, 0.21219, 0.3165, 0.0817, 0.9209,
 15:29:04.391,e3:ca:2d:fd:e0:8c, 2015-01-01 03:14:14.005, 0.97, -0.06, 0.317, -0.122, 0.366, 0, -10.399, -71.68, 174.276, -25.047, -10.700, -12.173, 29.65, -0.09286, -0.5788, 0.10214, -0.80362,
 15:29:04.391,e3:ca:2d:fd:e0:8c, 2015-01-01 03:14:14.005, 0.969, -0.059, 0.314, -0.183, 0.427, 0, -10.399, -71.669, 174.282, -25.047, -10.700, -12.173, 29.65, -0.09286, -0.5788, 0.10214, -0.80362,
 15:29:04.392,ed:40:fe:65:30:6c, 2015-01-01 03:14:13.115, 0.784, 0.229, 0.583, 0, 0.244, 0.061, 21.231, -51.68, -145.679, -22.127, -14.193, -1.140, 26.71, 0.33725, -0.36087, -0.28519, -0.82132,
 15:29:04.392,ed:40:fe:65:30:6c, 2015-01-01 03:14:13.115, 0.782, 0.229, 0.58, -0.061, 0.427, 0.183, 21.226, -51.669, -145.673, -22.127, -14.193, -1.140, 26.71, 0.33725, -0.36087, -0.28519, -0.82132,
