Time,Device name,Chip Time(),Acceleration X(g),Acceleration Y(g),Acceleration Z(g),Angular velocity X(°/s),Angular velocity Y(°/s),Angular velocity Z(°/s),Angle X(°),Angle Y(°),Angle Z(°),Magnetic field X(ʯt),Magnetic field Y(ʯt),Magnetic field Z(ʯt),Temperature(℃),Quaternions 0(),Quaternions 1(),Quaternions 2(),Quaternions 3()
 12:16:46.049,f6:90:cc:01:6d:25, 2015-01-01 00:03:15.035, 0.937, 0.046, 0.322, 3.296, -0.732, -0.671, 4.812, -70.109, -167.525, -29.613, -10.933, -7.807, 26.13, 0.11166, -0.56595, -0.09296, -0.81146,
 12:16:46.049,f6:90:cc:01:6d:25, 2015-01-01 00:03:15.035, 0.941, 0.054, 0.317, 2.991, -0.427, 0, 4.905, -70.12, -167.569, -29.613, -10.933, -7.807, 26.13, 0.11166, -0.56595, -0.09296, -0.81146,
 12:16:46.068,ed:40:fe:65:30:6c, 2015-01-01 00:03:15.565, 0.54, 0.183, 0.835, 4.15, 3.052, 2.38, 9.899, -31.816, -135.692, -16.793, -11.727, -6.160, 22.72, 0.37692, -0.22601, -0.17261, -0.88144,
 12:16:46.068,ed:40:fe:65:30:6c, 2015-01-01 00:03:15.565, 0.534, 0.171, 0.846, 3.967, 2.258, 2.258, 9.954, -31.778, -135.665, -16.793, -11.727, -6.160, 22.72, 0.37692, -0.22601, -0.17261, -0.88144,
 12:16:46.070,ed:35:33:d3:6c:f8, 2015-01-01 00:03:15.925, 0.706, 0.252, 0.644, 4.639, 9.216, 2.747, 19.012, -44.918, 122.465, -17.020, -14.380, -25.920, 28.95, 0.38522, 0.40613, -0.05115, 0.827,
 12:16:46.070,ed:35:33:d3:6c:f8, 2015-01-01 00:03:15.925, 0.719, 0.253, 0.663, 1.831, 7.446, 0.732, 18.995, -44.791, 122.503, -17.020, -14.380, -25.920, 28.95, 0.38522, 0.40613, -0.05115, 0.827,
 12:16:46.072,f6:90:cc:01:6d:25, 2015-01-01 00:03:15.035, 0.942, 0.044, 0.323, 3.235, -0.427, 0.305, 4.971, -70.131, -167.574, -29.613, -10.933, -7.807, 26.13, 0.11166, -0.56595, -0.09296, -0.81146,
 12:16:46.072,f6:90:cc:01:6d:25, 2015-01-01 00:03:15.035, 0.935, 0.039, 0.321, 3.357, -0.671, 0.427, 5.032, -70.142, -167.569, -29.613, -10.933, -7.807, 26.13, 0.11166, -0.56595, -0.09296, -0.81146,
 12:16:46.091,e3:ca:2d:fd:e0:8c, 2015-01-01 00:03:16.365, 1.018, -0.101, -0.051, 1.343, -2.319, -1.526, -111.973, -83.71, -102.217, -26.593, -7.327, -6.280, 23.54, 0.17023, 0.67291, -0.24857, 0.67551,
 12:16:46.091,e3:ca:2d:fd:e0:8c, 2015-01-01 00:03:16.365, 1.028, -0.105, -0.058, 2.075, -1.77, -0.916, -112.302, -83.716, -101.854, -26.593, -7.327, -6.280, 23.54, 0.17023, 0.67291, -0.24857, 0.67551,
 12:16:46.092,ed:35:33:d3:6c:f8, 2015-01-01 00:03:15.925, 0.707, 0.252, 0.682, 1.77, 7.446, 0.671, 18.984, -44.665, 122.552, -17.020, -14.380, -25.920, 28.95, 0.38522, 0.40613, -0.05115, 0.827,
 12:16:46.092,ed:35:33:d3:6c:f8, 2015-01-01 00:03:15.925, 0.691, 0.255, 0.689, 3.174, 5.981, 0.854, 19.006, -44.566, 122.602, -17.020, -14.380, -25.920, 28.95, 0.38522, 0.40613, -0.05115, 0.827,
 12:16:46.092,ed:40:fe:65:30:6c, 2015-01-01 00:03:15.565, 0.53, 0.171, 0.849, 4.028, 1.282, 2.686, 10.014, -31.75, -135.637, -16.793, -11.727, -6.160, 22.72, 0.37692, -0.22601, -0.17261, -0.88144,
 12:16:46.092,ed:40:fe:65:30:6c, 2015-01-01 00:03:15.565, 0.54, 0.181, 0.839, 3.296, 0, 2.991, 10.063, -31.75, -135.61, -16.793, -11.727, -6.160, 22.72, 0.37692, -0.22601, -0.17261, -0.88144,
 12:16:46.114,e3:ca:2d:fd:e0:8c, 2015-01-01 00:03:16.365, 1.021, -0.097, -0.06, 1.404, -1.404, -0.671, -112.566, -83.716, -101.569, -26.593, -7.327, -6.280, 23.54, 0.16867, 0.67856, -0.24582, 0.67123,
 12:16:46.114,e3:ca:2d:fd:e0:8c, 2015-01-01 00:03:16.365, 1.02, -0.098, -0.061, 2.197, -1.648, -0.122, -112.824, -83.705, -101.288, -26.593, -7.327, -6.280, 23.54, 0.16867, 0.67856, -0.24582, 0.67123,
 12:16:46.117,f6:90:cc:01:6d:25, 2015-01-01 00:03:15.035, 0.937, 0.046, 0.315, 3.052, -1.038, 0.61, 5.087, -70.164, -167.563, -29.613, -10.933, -7.807, 26.13, 0.11166, -0.56595, -0.09296, -0.81146,
 12:16:46.117,f6:90:cc:01:6d:25, 2015-01-01 00:03:15.035, 0.937, 0.052, 0.316, 2.686, -1.038, 0.977, 5.125, -70.192, -167.558, -29.613, -10.933, -7.807, 26.13, 0.11166, -0.56595, -0.09296, -0.81146,
 12:16:46.136,ed:40:fe:65:30:6c, 2015-01-01 00:03:15.565, 0.542, 0.177, 0.827, 1.648, -0.488, 2.258, 10.102, -31.767, -135.588, -16.793, -11.727, -6.160, 22.72, 0.37692, -0.22601, -0.17261, -0.88144,
 12:16:46.136,ed:40:fe:65:30:6c, 2015-01-01 00:03:15.565, 0.531, 0.164, 0.82, 0.305, -0.305, 0.977, 10.124, -31.789, -135.582, -16.793, -11.727, -6.160, 22.72, 0.37692, -0.22601, -0.17261, -0.88144,
 12:16:46.138,ed:35:33:d3:6c:f8, 2015-01-01 00:03:15.925, 0.702, 0.258, 0.678, 3.052, 3.662, 0.488, 19.05, -44.506, 122.624, -17.020, -14.380, -25.920, 28.95, 0.38522, 0.40613, -0.05115, 0.827,
 12:16:46.138,ed:35:33:d3:6c:f8, 2015-01-01 00:03:15.925, 0.707, 0.246, 0.663, 1.77, 3.174, -0.732, 19.094, -44.445, 122.591, -17.020, -14.380, -25.920, 28.95, 0.38522, 0.40613, -0.05115, 0.827,
 12:16:46.158,e3:ca:2d:fd:e0:8c, 2015-01-01 00:03:16.365, 1.018, -0.098, -0.057, 2.563, -1.343, 0.244, -113.027, -83.688, -101.063, -26.593, -7.327, -6.280, 23.54, 0.16867, 0.67856, -0.24582, 0.67123,
 12:16:46.158,e3:ca:2d:fd:e0:8c, 2015-01-01 00:03:16.365, 1.015, -0.098, -0.051, 2.991, -1.343, 0.61, -113.192, -83.666, -100.887, -26.593, -7.327, -6.280, 23.54, 0.16867, 0.67856, -0.24582, 0.67123,
 12:16:46.163,f6:90:cc:01:6d:25, 2015-01-01 00:03:15.035, 0.929, 0.05, 0.32, 1.709, -0.732, 1.16, 5.136, -70.219, -167.536, -29.613, -10.933, -7.807, 26.13, 0.11166, -0.56595, -0.09296, -0.81146,
 12:16:46.163,f6:90:cc:01:6d:25, 2015-01-01 00:03:15.035, 0.924, 0.042, 0.322, 0.793, -0.366, 1.038, 5.131, -70.236, -167.498, -29.613, -10.933, -7.807, 26.13, 0.11166, -0.56595, -0.09296, -0.81146,
 12:16:46.180,e3:ca:2d:fd:e0:8c, 2015-01-01 00:03:16.700, 1.013, -0.099, -0.046, 3.418, -1.282, 0.977, -113.307, -83.644, -100.75, -26.593, -7.327, -6.280, 23.54, 0.16867, 0.67856, -0.24582, 0.67123,
 12:16:46.180,e3:ca:2d:fd:e0:8c, 2015-01-01 00:03:16.700, 1.012, -0.101, -0.043, 3.296, -0.977, 1.16, -113.368, -83.611, -100.673, -26.593, -7.327, -6.280, 23.54, 0.16867, 0.67856, -0.24582, 0.67123,
 12:16:46.182,ed:35:33:d3:6c:f8, 2015-01-01 00:03:15.925, 0.693, 0.236, 0.654, 1.282, 1.221, -1.343, 19.149, -44.418, 122.52, -17.020, -14.380, -25.920, 28.95, 0.38522, 0.40613, -0.05115, 0.827,
 12:16:46.182,ed:35:33:d3:6c:f8, 2015-01-01 00:03:15.925, 0.689, 0.232, 0.654, -0.488, 0.732, -2.502, 19.193, -44.396, 122.404, -17.020, -14.380, -25.920, 28.95, 0.38522, 0.40613, -0.05115, 0.827,
 12:16:46.207,f6:90:cc:01:6d:25, 2015-01-01 00:03:15.035, 0.923, 0.035, 0.326, 0.427, 0.061, 0.854, 5.114, -70.247, -167.465, -29.653, -11.753, -6.667, 26.13, 0.11166, -0.56595, -0.09296, -0.81146,
 12:16:46.207,f6:90:cc:01:6d:25, 2015-01-01 00:03:15.035, 0.928, 0.027, 0.333, 0.549, 0.427, 0.732, 5.103, -70.247, -167.432, -29.653, -11.753, -6.667, 26.13, 0.11166, -0.56595, -0.09296, -0.81146,
 12:16:46.226,ed:40:fe:65:30:6c, 2015-01-01 00:03:15.565, 0.523, 0.159, 0.819, -0.854, -0.061, -0.183, 10.129, -31.8, -135.615, -17.207, -12.973, -6.113, 22.72, 0.37692, -0.22601, -0.17261, -0.88144,
 12:16:46.226,ed:40:fe:65:30:6c, 2015-01-01 00:03:15.565, 0.519, 0.158, 0.824, -0.488, 0.305, -0.488, 10.129, -31.805, -135.676, -17.207, -12.973, -6.113, 22.72, 0.37692, -0.22601, -0.17261, -0.88144,
 12:16:46.227,e3:ca:2d:fd:e0:8c, 2015-01-01 00:03:16.700, 1.013, -0.103, -0.039, 3.052, -0.671, 1.221, -113.362, -83.589, -100.646, -26.593, -7.327, -6.280, 23.54, 0.16867, 0.67856, -0.24582, 0.67123,
 12:16:46.227,e3:ca:2d:fd:e0:8c, 2015-01-01 00:03:16.700, 1.014, -0.103, -0.036, 2.686, -0.366, 1.221, -113.307, -83.562, -100.668, -26.593, -7.327, -6.280, 23.54, 0.16867, 0.67856, -0.24582, 0.67123,
 12:16:46.249,ed:40:fe:65:30:6c, 2015-01-01 00:03:15.565, 0.525, 0.152, 0.833, 0.671, 0.122, -0.183, 10.146, -31.805, -135.731, -17.207, -12.973, -6.113, 22.72, 0.38345, -0.22076, -0.18158, -0.87814,
 12:16:46.249,ed:40:fe:65:30:6c, 2015-01-01 00:03:15.565, 0.524, 0.155, 0.837, 0.916, -0.305, -0.427, 10.173, -31.811, -135.78, -17.207, -12.973, -6.113, 22.72, 0.38345, -0.22076, -0.18158, -0.87814,
 12:16:46.251,f6:90:cc:01:6d:25, 2015-01-01 00:03:15.035, 0.931, 0.029, 0.337, 0.427, 0.61, 0.549, 5.092, -70.247, -167.41, -29.653, -11.753, -6.667, 26.13, 0.11496, -0.56729, -0.09912, -0.80933,
 12:16:46.251,f6:90:cc:01:6d:25, 2015-01-01 00:03:15.035, 0.933, 0.033, 0.339, -0.122, 0.732, 0.488, 5.081, -70.236, -167.388, -29.653, -11.753, -6.667, 26.13, 0.11496, -0.56729, -0.09912, -0.80933,
 12:16:46.271,e3:ca:2d:fd:e0:8c, 2015-01-01 00:03:16.700, 1.014, -0.1, -0.037, 1.648, 0, 0.977, -113.214, -83.546, -100.745, -26.593, -7.327, -6.280, 23.54, 0.16867, 0.67856, -0.24582, 0.67123,
 12:16:46.271,e3:ca:2d:fd:e0:8c, 2015-01-01 00:03:16.700, 1.012, -0.104, -0.04, 0.244, 0.244, 0.488, -113.126, -83.54, -100.876, -26.593, -7.327, -6.280, 23.54, 0.16867, 0.67856, -0.24582, 0.67123,
 12:16:46.272,ed:35:33:d3:6c:f8, 2015-01-01 00:03:15.925, 0.685, 0.239, 0.659, -0.61, 1.282, -2.319, 19.226, -44.363, 122.311, -17.020, -14.380, -25.920, 28.95, 0.38522, 0.40613, -0.05115, 0.827,
 12:16:46.272,ed:35:33:d3:6c:f8, 2015-01-01 00:03:15.925, 0.692, 0.231, 0.67, 1.709, 1.465, -0.916, 19.276, -44.335, 122.278, -17.020, -14.380, -25.920, 28.95, 0.38522, 0.40613, -0.05115, 0.827,
 12:16:46.274,f6:90:cc:01:6d:25, 2015-01-01 00:03:15.325, 0.93, 0.031, 0.336, -0.61, 0.854, 0.366, 5.059, -70.219, -167.366, -29.653, -11.753, -6.667, 26.13, 0.11496, -0.56729, -0.09912, -0.80933,
 12:16:46.274,f6:90:cc:01:6d:25, 2015-01-01 00:03:15.325, 0.926, 0.013, 0.334, 0, 0.977, 0.366, 5.037, -70.203, -167.36, -29.653, -11.753, -6.667, 26.13, 0.11496, -0.56729, -0.09912, -0.80933,
 12:16:46.295,ed:40:fe:65:30:6c, 2015-01-01 00:03:15.565, 0.526, 0.163, 0.839, 0.61, 0.183, -0.916, 10.206, -31.816, -135.84, -17.207, -12.973, -6.113, 22.72, 0.38345, -0.22076, -0.18158, -0.87814,
 12:16:46.295,ed:40:fe:65:30:6c, 2015-01-01 00:03:15.565, 0.526, 0.162, 0.838, 0.61, 1.099, -0.977, 10.239, -31.805, -135.901, -17.207, -12.973, -6.113, 22.72, 0.38345, -0.22076, -0.18158, -0.87814,
 12:16:46.296,ed:35:33:d3:6c:f8, 2015-01-01 00:03:15.925, 0.693, 0.231, 0.673, 3.052, 2.747, -0.916, 19.341, -44.28, 122.267, -16.693, -14.893, -25.740, 28.95, 0.38522, 0.40613, -0.05115, 0.827,
 12:16:46.296,ed:35:33:d3:6c:f8, 2015-01-01 00:03:15.925, 0.689, 0.241, 0.668, 2.441, 5.554, -1.465, 19.385, -44.171, 122.256, -16.693, -14.893, -25.740, 28.95, 0.38522, 0.40613, -0.05115, 0.827,
 12:16:46.315,e3:ca:2d:fd:e0:8c, 2015-01-01 00:03:16.700, 1.011, -0.111, -0.042, 0.244, -0.061, 0.427, -113.088, -83.535, -100.964, -26.593, -7.327, -6.280, 23.54, 0.16867, 0.67856, -0.24582, 0.67123,
 12:16:46.315,e3:ca:2d:fd:e0:8c, 2015-01-01 00:03:16.700, 1.014, -0.109, -0.044, 0.244, 0, 0.244, -113.055, -83.529, -101.025, -26.593, -7.327, -6.280, 23.54, 0.16867, 0.67856, -0.24582, 0.67123,
 12:16:46.317,ed:40:fe:65:30:6c, 2015-01-01 00:03:15.925, 0.523, 0.153, 0.834, 1.343, 1.221, -0.061, 10.267, -31.783, -135.95, -17.207, -12.973, -6.113, 22.72, 0.38345, -0.22076, -0.18158, -0.87814,
 12:16:46.317,ed:40:fe:65:30:6c, 2015-01-01 00:03:15.925, 0.521, 0.157, 0.836, 2.014, 0.916, 0.488, 10.3, -31.761, -135.972, -17.207, -12.973, -6.113, 22.72, 0.38345, -0.22076, -0.18158, -0.87814,
 12:16:46.319,f6:90:cc:01:6d:25, 2015-01-01 00:03:15.325, 0.928, 0.016, 0.331, 0.671, 1.099, 0.549, 5.015, -70.186, -167.377, -29.653, -11.753, -6.667, 26.13, 0.11496, -0.56729, -0.09912, -0.80933,
 12:16:46.319,f6:90:cc:01:6d:25, 2015-01-01 00:03:15.325, 0.929, 0.026, 0.333, 0.61, 0.977, 0.671, 4.988, -70.17, -167.371, -29.653, -11.753, -6.667, 26.13, 0.11496, -0.56729, -0.09912, -0.80933,
 12:16:46.319,ed:35:33:d3:6c:f8, 2015-01-01 00:03:15.925, 0.691, 0.247, 0.666, 0.916, 7.935, -1.648, 19.385, -44.017, 122.245, -16.693, -14.893, -25.740, 28.95, 0.38522, 0.40613, -0.05115, 0.827,
 12:16:46.319,ed:35:33:d3:6c:f8, 2015-01-01 00:03:15.925, 0.687, 0.241, 0.674, 1.16, 9.583, 0, 19.352, -43.841, 122.327, -16.693, -14.893, -25.740, 28.95, 0.38522, 0.40613, -0.05115, 0.827,
 12:16:46.340,ed:40:fe:65:30:6c, 2015-01-01 00:03:15.925, 0.521, 0.167, 0.841, 2.014, 0, 0.793, 10.338, -31.75, -135.989, -17.207, -12.973, -6.113, 22.72, 0.38345, -0.22076, -0.18158, -0.87814,
 12:16:46.340,ed:40:fe:65:30:6c, 2015-01-01 00:03:15.925, 0.524, 0.165, 0.845, 1.221, 0.122, 1.16, 10.371, -31.75, -136, -17.207, -12.973, -6.113, 22.72, 0.38345, -0.22076, -0.18158, -0.87814,
 12:16:46.363,ed:35:33:d3:6c:f8, 2015-01-01 00:03:15.925, 0.679, 0.238, 0.682, 2.258, 9.399, 0.122, 19.341, -43.671, 122.41, -16.693, -14.893, -25.740, 28.95, 0.38522, 0.40613, -0.05115, 0.827,
 12:16:46.363,ed:35:33:d3:6c:f8, 2015-01-01 00:03:15.925, 0.677, 0.249, 0.692, 1.953, 6.592, -0.916, 19.358, -43.55, 122.459, -16.693, -14.893, -25.740, 28.95, 0.38522, 0.40613, -0.05115, 0.827,
 12:16:46.365,f6:90:cc:01:6d:25, 2015-01-01 00:03:15.325, 0.93, 0.025, 0.329, 0.488, 0.854, 0.854, 4.949, -70.153, -167.333, -29.653, -11.753, -6.667, 26.13, 0.11496, -0.56729, -0.09912, -0.80933,
 12:16:46.365,f6:90:cc:01:6d:25, 2015-01-01 00:03:15.325, 0.934, 0.025, 0.327, 0.671, 0.61, 0.977, 4.905, -70.142, -167.289, -29.653, -11.753, -6.667, 26.13, 0.11496, -0.56729, -0.09912, -0.80933,
 12:16:46.383,e3:ca:2d:fd:e0:8c, 2015-01-01 00:03:16.700, 1.015, -0.11, -0.047, 0.244, 0.305, 0.122, -112.994, -83.529, -101.096, -26.593, -7.327, -6.280, 23.54, 0.16867, 0.67856, -0.24582, 0.67123,
 12:16:46.383,e3:ca:2d:fd:e0:8c, 2015-01-01 00:03:16.700, 1.017, -0.11, -0.05, 0.244, 0.488, 0.122, -112.906, -83.529, -101.195, -26.593, -7.327, -6.280, 23.54, 0.16867, 0.67856, -0.24582, 0.67123,
 12:16:46.384,ed:40:fe:65:30:6c, 2015-01-01 00:03:15.925, 0.526, 0.161, 0.842, 1.16, -0.244, 1.465, 10.388, -31.756, -136.005, -17.207, -12.973, -6.113, 22.72, 0.38345, -0.22076, -0.18158, -0.87814,
 12:16:46.384,ed:40:fe:65:30:6c, 2015-01-01 00:03:15.925, 0.524, 0.168, 0.844, 1.526, -1.221, 1.587, 10.399, -31.767, -136.016, -17.207, -12.973, -6.113, 22.72, 0.38345, -0.22076, -0.18158, -0.87814,
 12:16:46.385,ed:35:33:d3:6c:f8, 2015-01-01 00:03:15.925, 0.686, 0.249, 0.697, -0.366, 7.08, -1.404, 19.336, -43.407, 122.498, -16.693, -14.893, -25.740, 28.95, 0.38589, 0.39587, -0.03931, 0.83231,
 12:16:46.385,ed:35:33:d3:6c:f8, 2015-01-01 00:03:15.925, 0.678, 0.243, 0.699, 0.366, 5.554, -0.671, 19.325, -43.303, 122.525, -16.693, -14.893, -25.740, 28.95, 0.38589, 0.39587, -0.03931, 0.83231,
 12:16:46.405,e3:ca:2d:fd:e0:8c, 2015-01-01 00:03:16.700, 1.018, -0.109, -0.051, -0.061, 0.793, 0.122, -112.786, -83.535, -101.327, -26.767, -7.373, -5.640, 23.54, 0.16867, 0.67856, -0.24582, 0.67123,
 12:16:46.405,e3:ca:2d:fd:e0:8c, 2015-01-01 00:03:16.700, 1.018, -0.106, -0.05, -0.305, 0.854, 0, -112.659, -83.54, -101.453, -26.767, -7.373, -5.640, 23.54, 0.16867, 0.67856, -0.24582, 0.67123,
 12:16:46.409,f6:90:cc:01:6d:25, 2015-01-01 00:03:15.325, 0.934, 0.029, 0.329, 0.732, 0.427, 0.916, 4.861, -70.137, -167.245, -29.653, -11.753, -6.667, 26.13, 0.11496, -0.56729, -0.09912, -0.80933,
 12:16:46.409,f6:90:cc:01:6d:25, 2015-01-01 00:03:15.325, 0.929, 0.031, 0.334, 0.854, 0.305, 1.099, 4.818, -70.131, -167.206, -29.653, -11.753, -6.667, 26.13, 0.11496, -0.56729, -0.09912, -0.80933,
 12:16:46.429,ed:40:fe:65:30:6c, 2015-01-01 00:03:15.925, 0.521, 0.173, 0.844, 1.953, -0.916, 1.892, 10.421, -31.794, -136.022, -17.207, -12.973, -6.113, 22.72, 0.38345, -0.22076, -0.18158, -0.87814,
 12:16:46.429,ed:40:fe:65:30:6c, 2015-01-01 00:03:15.925, 0.518, 0.167, 0.838, 2.197, -0.488, 2.319, 10.448, -31.816, -136.011, -17.207, -12.973, -6.113, 22.72, 0.38345, -0.22076, -0.18158, -0.87814,
 12:16:46.431,ed:35:33:d3:6c:f8, 2015-01-01 00:03:15.925, 0.672, 0.25, 0.699, 0.305, 3.601, -0.793, 19.33, -43.231, 122.531, -16.693, -14.893, -25.740, 28.95, 0.38589, 0.39587, -0.03931, 0.83231,
 12:16:46.431,ed:35:33:d3:6c:f8, 2015-01-01 00:03:15.925, 0.671, 0.252, 0.694, 0.366, 2.93, -0.916, 19.336, -43.171, 122.514, -16.693, -14.893, -25.740, 28.95, 0.38589, 0.39587, -0.03931, 0.83231,
 12:16:46.452,ed:35:33:d3:6c:f8, 2015-01-01 00:03:16.305, 0.667, 0.25, 0.695, 1.221, 1.77, -0.061, 19.358, -43.132, 122.52, -16.693, -14.893, -25.740, 28.95, 0.38589, 0.39587, -0.03931, 0.83231,
 12:16:46.452,ed:35:33:d3:6c:f8, 2015-01-01 00:03:16.305, 0.665, 0.253, 0.689, 0.671, 0.977, -0.122, 19.369, -43.11, 122.542, -16.693, -14.893, -25.740, 28.95, 0.38589, 0.39587, -0.03931, 0.83231,
 12:16:46.454,f6:90:cc:01:6d:25, 2015-01-01 00:03:15.325, 0.924, 0.026, 0.335, 1.343, 0.122, 1.221, 4.779, -70.131, -167.135, -29.653, -11.753, -6.667, 26.13, 0.11496, -0.56729, -0.09912, -0.80933,
 12:16:46.454,f6:90:cc:01:6d:25, 2015-01-01 00:03:15.325, 0.922, 0.031, 0.335, 1.282, 0, 1.16, 4.741, -70.137, -167.064, -29.653, -11.753, -6.667, 26.13, 0.11496, -0.56729, -0.09912, -0.80933,
 12:16:46.472,e3:ca:2d:fd:e0:8c, 2015-01-01 00:03:16.700, 1.015, -0.106, -0.048, -0.122, 0.61, 0.061, -112.566, -83.54, -101.547, -26.767, -7.373, -5.640, 23.54, 0.16867, 0.67856, -0.24582, 0.67123,
 12:16:46.472,e3:ca:2d:fd:e0:8c, 2015-01-01 00:03:16.700, 1.013, -0.106, -0.045, -0.061, 0.488, 0.061, -112.495, -83.54, -101.613, -26.767, -7.373, -5.640, 23.54, 0.16867, 0.67856, -0.24582, 0.67123,
 12:16:46.477,f6:90:cc:01:6d:25, 2015-01-01 00:03:15.325, 0.922, 0.036, 0.337, 1.099, 0.061, 1.282, 4.697, -70.137, -167.009, -29.513, -11.193, -7.240, 26.13, 0.11496, -0.56729, -0.09912, -0.80933,
 12:16:46.477,f6:90:cc:01:6d:25, 2015-01-01 00:03:15.325, 0.924, 0.034, 0.337, 0.916, 0.183, 1.282, 4.653, -70.137, -166.948, -29.513, -11.193, -7.240, 26.13, 0.11496, -0.56729, -0.09912, -0.80933,
 12:16:46.495,e3:ca:2d:fd:e0:8c, 2015-01-01 00:03:16.700, 1.011, -0.104, -0.042, 0.122, 0.488, 0.122, -112.418, -83.546, -101.678, -26.767, -7.373, -5.640, 23.54, 0.16742, 0.67865, -0.24667, 0.67114,
 12:16:46.495,e3:ca:2d:fd:e0:8c, 2015-01-01 00:03:16.700, 1.012, -0.102, -0.038, 0.549, 0.61, 0.427, -112.302, -83.54, -101.783, -26.767, -7.373, -5.640, 23.54, 0.16742, 0.67865, -0.24667, 0.67114,
 12:16:46.496,ed:40:fe:65:30:6c, 2015-01-01 00:03:15.925, 0.517, 0.172, 0.833, 1.892, -0.671, 2.502, 10.47, -31.827, -135.989, -17.207, -12.973, -6.113, 22.72, 0.38345, -0.22076, -0.18158, -0.87814,
 12:16:46.496,ed:40:fe:65:30:6c, 2015-01-01 00:03:15.925, 0.52, 0.172, 0.831, 1.404, -0.366, 2.38, 10.486, -31.844, -135.961, -17.207, -12.973, -6.113, 22.72, 0.38345, -0.22076, -0.18158, -0.87814,
 12:16:46.498,ed:35:33:d3:6c:f8, 2015-01-01 00:03:16.305, 0.67, 0.253, 0.688, -0.183, -0.305, 0.671, 19.363, -43.116, 122.591, -16.693, -14.893, -25.740, 28.95, 0.38589, 0.39587, -0.03931, 0.83231,
 12:16:46.498,ed:35:33:d3:6c:f8, 2015-01-01 00:03:16.305, 0.671, 0.246, 0.686, -0.366, -0.854, 1.099, 19.347, -43.132, 122.651, -16.693, -14.893, -25.740, 28.95, 0.38589, 0.39587, -0.03931, 0.83231,
 12:16:46.519,ed:40:fe:65:30:6c, 2015-01-01 00:03:15.925, 0.521, 0.168, 0.829, 1.038, 0, 2.075, 10.497, -31.855, -135.928, -16.787, -12.520, -5.240, 22.72, 0.38345, -0.22076, -0.18158, -0.87814,
 12:16:46.519,ed:40:fe:65:30:6c, 2015-01-01 00:03:15.925, 0.524, 0.168, 0.831, 1.16, -0.061, 1.831, 10.503, -31.855, -135.906, -16.787, -12.520, -5.240, 22.72, 0.38345, -0.22076, -0.18158, -0.87814,
 12:16:46.522,f6:90:cc:01:6d:25, 2015-01-01 00:03:15.325, 0.927, 0.033, 0.338, 0.854, 0.244, 1.282, 4.603, -70.137, -166.877, -29.513, -11.193, -7.240, 26.13, 0.11496, -0.56729, -0.09912, -0.80933,
 12:16:46.522,f6:90:cc:01:6d:25, 2015-01-01 00:03:15.325, 0.929, 0.031, 0.338, 0.305, 0.366, 1.343, 4.548, -70.131, -166.794, -29.513, -11.193, -7.240, 26.13, 0.11496, -0.56729, -0.09912, -0.80933,
 12:16:46.541,e3:ca:2d:fd:e0:8c, 2015-01-01 00:03:16.700, 1.012, -0.103, -0.038, 0.916, 0.671, 0.732, -112.137, -83.535, -101.926, -26.767, -7.373, -5.640, 23.54, 0.16742, 0.67865, -0.24667, 0.67114,
 12:16:46.541,e3:ca:2d:fd:e0:8c, 2015-01-01 00:03:16.700, 1.014, -0.104, -0.038, 1.16, 0.61, 0.977, -111.956, -83.524, -102.068, -26.767, -7.373, -5.640, 23.54, 0.16742, 0.67865, -0.24667, 0.67114,
 12:16:46.543,ed:35:33:d3:6c:f8, 2015-01-01 00:03:16.305, 0.675, 0.246, 0.687, -0.061, -1.587, 0.549, 19.352, -43.165, 122.695, -16.693, -14.893, -25.740, 28.95, 0.38589, 0.39587, -0.03931, 0.83231,
 12:16:46.543,ed:35:33:d3:6c:f8, 2015-01-01 00:03:16.305, 0.68, 0.249, 0.688, 0, -1.16, 0.793, 19.352, -43.182, 122.706, -16.693, -14.893, -25.740, 28.95, 0.38589, 0.39587, -0.03931, 0.83231,
 12:16:46.564,ed:40:fe:65:30:6c, 2015-01-01 00:03:15.925, 0.526, 0.168, 0.835, 1.282, -0.122, 1.77, 10.514, -31.86, -135.89, -16.787, -12.520, -5.240, 22.72, 0.38345, -0.22076, -0.18158, -0.87814,
 12:16:46.564,ed:40:fe:65:30:6c, 2015-01-01 00:03:15.925, 0.527, 0.168, 0.838, 0.916, 0.488, 1.587, 10.525, -31.86, -135.873, -16.787, -12.520, -5.240, 22.72, 0.38345, -0.22076, -0.18158, -0.87814,
 12:16:46.564,e3:ca:2d:fd:e0:8c, 2015-01-01 00:03:17.080, 1.014, -0.105, -0.04, 1.282, 0.549, 1.221, -111.764, -83.507, -102.211, -26.767, -7.373, -5.640, 23.54, 0.16742, 0.67865, -0.24667, 0.67114,
 12:16:46.564,e3:ca:2d:fd:e0:8c, 2015-01-01 00:03:17.080, 1.016, -0.106, -0.042, 1.282, 0.427, 1.343, -111.577, -83.485, -102.349, -26.767, -7.373, -5.640, 23.54, 0.16742, 0.67865, -0.24667, 0.67114,
 12:16:46.567,f6:90:cc:01:6d:25, 2015-01-01 00:03:15.325, 0.932, 0.029, 0.336, 0, 0.366, 1.343, 4.482, -70.12, -166.701, -29.513, -11.193, -7.240, 26.13, 0.11652, -0.56653, -0.09827, -0.80975,
 12:16:46.567,f6:90:cc:01:6d:25, 2015-01-01 00:03:15.325, 0.93, 0.028, 0.334, -0.244, 0.366, 1.282, 4.417, -70.115, -166.613, -29.513, -11.193, -7.240, 26.13, 0.11652, -0.56653, -0.09827, -0.80975,
 12:16:46.586,e3:ca:2d:fd:e0:8c, 2015-01-01 00:03:17.080, 1.015, -0.107, -0.044, 0.305, 0.183, 0.977, -111.462, -83.469, -102.442, -26.767, -7.373, -5.640, 23.54, 0.16742, 0.67865, -0.24667, 0.67114,
 12:16:46.586,e3:ca:2d:fd:e0:8c, 2015-01-01 00:03:17.080, 1.016, -0.111, -0.045, 0.183, 0.122, 0.916, -111.379, -83.458, -102.491, -26.767, -7.373, -5.640, 23.54, 0.16742, 0.67865, -0.24667, 0.67114,
 12:16:46.587,ed:40:fe:65:30:6c, 2015-01-01 00:03:15.925, 0.525, 0.165, 0.839, 0.061, 1.282, 1.282, 10.53, -31.849, -135.862, -16.787, -12.520, -5.240, 22.72, 0.38306, -0.22012, -0.18445, -0.8779,
 12:16:46.587,ed:40:fe:65:30:6c, 2015-01-01 00:03:15.925, 0.528, 0.161, 0.837, -0.366, 1.282, 1.221, 10.519, -31.827, -135.862, -16.787, -12.520, -5.240, 22.72, 0.38306, -0.22012, -0.18445, -0.8779,
 12:16:46.588,ed:35:33:d3:6c:f8, 2015-01-01 00:03:16.305, 0.681, 0.246, 0.689, -0.549, -1.526, 0.977, 19.336, -43.215, 122.712, -16.693, -14.893, -25.740, 28.95, 0.38589, 0.39587, -0.03931, 0.83231,
 12:16:46.588,ed:35:33:d3:6c:f8, 2015-01-01 00:03:16.305, 0.68, 0.245, 0.686, -1.282, -0.854, 1.038, 19.303, -43.231, 122.734, -16.693, -14.893, -25.740, 28.95, 0.38589, 0.39587, -0.03931, 0.83231,
 12:16:46.611,f6:90:cc:01:6d:25, 2015-01-01 00:03:15.640, 0.929, 0.023, 0.333, -0.183, 0.305, 1.16, 4.356, -70.109, -166.514, -29.513, -11.193, -7.240, 26.13, 0.11652, -0.56653, -0.09827, -0.80975,
 12:16:46.611,f6:90:cc:01:6d:25, 2015-01-01 00:03:15.640, 0.93, 0.02, 0.332, -0.061, 0.183, 1.099, 4.296, -70.109, -166.437, -29.513, -11.193, -7.240, 26.13, 0.11652, -0.56653, -0.09827, -0.80975,
 12:16:46.630,e3:ca:2d:fd:e0:8c, 2015-01-01 00:03:17.080, 1.016, -0.115, -0.046, 0.366, 0.244, 0.916, -111.286, -83.441, -102.524, -26.767, -7.373, -5.640, 23.54, 0.16742, 0.67865, -0.24667, 0.67114,
 12:16:46.630,e3:ca:2d:fd:e0:8c, 2015-01-01 00:03:17.080, 1.018, -0.115, -0.046, 0.549, 0.366, 0.854, -111.176, -83.425, -102.596, -26.767, -7.373, -5.640, 23.54, 0.16742, 0.67865, -0.24667, 0.67114,
 12:16:46.634,f6:90:cc:01:6d:25, 2015-01-01 00:03:15.640, 0.933, 0.019, 0.332, 0.122, 0, 1.099, 4.241, -70.109, -166.36, -29.513, -11.193, -7.240, 26.13, 0.11652, -0.56653, -0.09827, -0.80975,
 12:16:46.634,f6:90:cc:01:6d:25, 2015-01-01 00:03:15.640, 0.934, 0.022, 0.331, 0.305, 0, 1.221, 4.18, -70.115, -166.273, -29.513, -11.193, -7.240, 26.13, 0.11652, -0.56653, -0.09827, -0.80975,
 12:16:46.654,ed:40:fe:65:30:6c, 2015-01-01 00:03:15.925, 0.528, 0.162, 0.834, -0.183, 0.549, 1.343, 10.503, -31.811, -135.857, -16.787, -12.520, -5.240, 22.72, 0.38306, -0.22012, -0.18445, -0.8779,
 12:16:46.654,ed:40:fe:65:30:6c, 2015-01-01 00:03:15.925, 0.531, 0.165, 0.836, 0.122, 0, 1.709, 10.492, -31.811, -135.846, -16.787, -12.520, -5.240, 22.72, 0.38306, -0.22012, -0.18445, -0.8779,
 12:16:46.655,ed:35:33:d3:6c:f8, 2015-01-01 00:03:16.305, 0.682, 0.243, 0.686, -1.526, -0.732, 1.343, 19.259, -43.248, 122.767, -16.693, -14.893, -25.740, 28.95, 0.38589, 0.39587, -0.03931, 0.83231,
 12:16:46.655,ed:35:33:d3:6c:f8, 2015-01-01 00:03:16.305, 0.682, 0.243, 0.686, -0.916, -0.427, 1.221, 19.226, -43.259, 122.789, -16.693, -14.893, -25.740, 28.95, 0.38589, 0.39587, -0.03931, 0.83231,
 12:16:46.675,e3:ca:2d:fd:e0:8c, 2015-01-01 00:03:17.080, 1.018, -0.116, -0.045, 0.549, 0.366, 0.793, -111.066, -83.414, -102.689, -26.767, -7.373, -5.640, 23.54, 0.16742, 0.67865, -0.24667, 0.67114,
 12:16:46.675,e3:ca:2d:fd:e0:8c, 2015-01-01 00:03:17.080, 1.015, -0.116, -0.044, 0.427, 0.244, 0.671, -110.978, -83.403, -102.761, -26.767, -7.373, -5.640, 23.54, 0.16742, 0.67865, -0.24667, 0.67114,
 12:16:46.677,ed:35:33:d3:6c:f8, 2015-01-01 00:03:16.305, 0.684, 0.246, 0.687, -0.244, -1.038, 1.648, 19.204, -43.286, 122.811, -16.367, -14.813, -26.367, 28.95, 0.38589, 0.39587, -0.03931, 0.83231,
 12:16:46.677,ed:35:33:d3:6c:f8, 2015-01-01 00:03:16.305, 0.686, 0.242, 0.683, -0.366, -0.732, 1.526, 19.182, -43.308, 122.827, -16.367, -14.813, -26.367, 28.95, 0.38589, 0.39587, -0.03931, 0.83231,
 12:16:46.679,f6:90:cc:01:6d:25, 2015-01-01 00:03:15.640, 0.932, 0.022, 0.331, 0.244, 0, 1.282, 4.12, -70.115, -166.174, -29.513, -11.193, -7.240, 26.13, 0.11652, -0.56653, -0.09827, -0.80975,
 12:16:46.679,f6:90:cc:01:6d:25, 2015-01-01 00:03:15.640, 0.933, 0.021, 0.331, 0.183, 0.061, 1.343, 4.048, -70.12, -166.086, -29.513, -11.193, -7.240, 26.13, 0.11652, -0.56653, -0.09827, -0.80975,
 12:16:46.699,ed:40:fe:65:30:6c, 2015-01-01 00:03:16.260, 0.534, 0.164, 0.835, 0.183, -0.244, 1.831, 10.486, -31.816, -135.835, -16.787, -12.520, -5.240, 22.72, 0.38306, -0.22012, -0.18445, -0.8779,
 12:16:46.699,ed:40:fe:65:30:6c, 2015-01-01 00:03:16.260, 0.533, 0.164, 0.832, 0.122, -0.244, 1.831, 10.475, -31.827, -135.829, -16.787, -12.520, -5.240, 22.72, 0.38306, -0.22012, -0.18445, -0.8779,
 12:16:46.721,ed:40:fe:65:30:6c, 2015-01-01 00:03:16.260, 0.531, 0.162, 0.833, -0.244, -0.244, 1.709, 10.459, -31.838, -135.829, -16.787, -12.520, -5.240, 22.72, 0.38306, -0.22012, -0.18445, -0.8779,
 12:16:46.721,ed:40:fe:65:30:6c, 2015-01-01 00:03:16.260, 0.529, 0.163, 0.833, -0.488, -0.061, 1.587, 10.443, -31.849, -135.818, -16.787, -12.520, -5.240, 22.72, 0.38306, -0.22012, -0.18445, -0.8779,
 12:16:46.723,ed:35:33:d3:6c:f8, 2015-01-01 00:03:16.305, 0.685, 0.242, 0.68, -0.854, -0.549, 1.465, 19.149, -43.325, 122.838, -16.367, -14.813, -26.367, 28.95, 0.38589, 0.39587, -0.03931, 0.83231,
 12:16:46.723,ed:35:33:d3:6c:f8, 2015-01-01 00:03:16.305, 0.684, 0.239, 0.681, -0.916, 0.183, 1.526, 19.105, -43.325, 122.833, -16.367, -14.813, -26.367, 28.95, 0.38589, 0.39587, -0.03931, 0.83231,
 12:16:46.724,f6:90:cc:01:6d:25, 2015-01-01 00:03:15.640, 0.931, 0.022, 0.332, -0.061, 0.183, 1.343, 3.977, -70.12, -165.998, -29.513, -11.193, -7.240, 26.13, 0.11652, -0.56653, -0.09827, -0.80975,
 12:16:46.724,f6:90:cc:01:6d:25, 2015-01-01 00:03:15.640, 0.93, 0.02, 0.333, -0.122, 0.305, 1.343, 3.9, -70.12, -165.894, -29.513, -11.193, -7.240, 26.13, 0.11652, -0.56653, -0.09827, -0.80975,
 12:16:46.743,e3:ca:2d:fd:e0:8c, 2015-01-01 00:03:17.080, 1.016, -0.112, -0.043, 0.671, 0.427, 0.61, -110.874, -83.392, -102.849, -26.767, -7.373, -5.640, 23.54, 0.16742, 0.67865, -0.24667, 0.67114,
 12:16:46.743,e3:ca:2d:fd:e0:8c, 2015-01-01 00:03:17.080, 1.015, -0.111, -0.042, 0.244, 0.427, 0.427, -110.781, -83.381, -102.942, -26.767, -7.373, -5.640, 23.54, 0.16742, 0.67865, -0.24667, 0.67114,
 12:16:46.744,ed:40:fe:65:30:6c, 2015-01-01 00:03:16.260, 0.529, 0.159, 0.835, -0.61, 0.183, 1.526, 10.421, -31.855, -135.802, -16.787, -12.520, -5.240, 22.72, 0.38306, -0.22012, -0.18445, -0.8779,
 12:16:46.744,ed:40:fe:65:30:6c, 2015-01-01 00:03:16.260, 0.533, 0.157, 0.833, -0.732, 0.122, 1.282, 10.399, -31.855, -135.791, -16.787, -12.520, -5.240, 22.72, 0.38306, -0.22012, -0.18445, -0.8779,
 12:16:46.745,ed:35:33:d3:6c:f8, 2015-01-01 00:03:16.305, 0.683, 0.238, 0.682, -1.16, 0.122, 1.404, 19.061, -43.33, 122.811, -16.367, -14.813, -26.367, 28.95, 0.3848, 0.39337, -0.039, 0.83398,
 12:16:46.745,ed:35:33:d3:6c:f8, 2015-01-01 00:03:16.305, 0.683, 0.235, 0.686, -1.282, 0.305, 1.221, 19.017, -43.336, 122.805, -16.367, -14.813, -26.367, 28.95, 0.3848, 0.39337, -0.039, 0.83398,
 12:16:46.766,e3:ca:2d:fd:e0:8c, 2015-01-01 00:03:17.080, 1.015, -0.111, -0.042, 0.305, 0.61, 0.427, -110.66, -83.375, -103.057, -26.333, -7.087, -5.613, 23.54, 0.16742, 0.67865, -0.24667, 0.67114,
 12:16:46.766,e3:ca:2d:fd:e0:8c, 2015-01-01 00:03:17.080, 1.015, -0.111, -0.042, 0.244, 0.61, 0.366, -110.539, -83.375, -103.184, -26.333, -7.087, -5.613, 23.54, 0.16742, 0.67865, -0.24667, 0.67114,
 12:16:46.769,f6:90:cc:01:6d:25, 2015-01-01 00:03:15.640, 0.933, 0.021, 0.334, -0.305, 0.366, 1.282, 3.823, -70.115, -165.795, -29.513, -11.193, -7.240, 26.13, 0.11652, -0.56653, -0.09827, -0.80975,
 12:16:46.769,f6:90:cc:01:6d:25, 2015-01-01 00:03:15.640, 0.931, 0.023, 0.334, -0.427, 0.549, 1.038, 3.757, -70.109, -165.723, -29.513, -11.193, -7.240, 26.13, 0.11652, -0.56653, -0.09827, -0.80975,
 12:16:46.790,ed:40:fe:65:30:6c, 2015-01-01 00:03:16.260, 0.528, 0.158, 0.833, -0.916, 0.305, 0.671, 10.377, -31.855, -135.797, -16.787, -12.520, -5.240, 22.72, 0.38306, -0.22012, -0.18445, -0.8779,
 12:16:46.790,ed:40:fe:65:30:6c, 2015-01-01 00:03:16.260, 0.525, 0.155, 0.835, -0.793, 0.732, 0.305, 10.36, -31.849, -135.824, -16.787, -12.520, -5.240, 22.72, 0.38306, -0.22012, -0.18445, -0.8779,
 12:16:46.791,ed:35:33:d3:6c:f8, 2015-01-01 00:03:16.305, 0.685, 0.231, 0.682, -1.587, 0.061, 0.671, 18.979, -43.336, 122.811, -16.367, -14.813, -26.367, 28.95, 0.3848, 0.39337, -0.039, 0.83398,
 12:16:46.791,ed:35:33:d3:6c:f8, 2015-01-01 00:03:16.305, 0.684, 0.231, 0.68, -1.282, 0.244, 0.244, 18.951, -43.33, 122.816, -16.367, -14.813, -26.367, 28.95, 0.3848, 0.39337, -0.039, 0.83398,
 12:16:46.811,e3:ca:2d:fd:e0:8c, 2015-01-01 00:03:17.080, 1.015, -0.111, -0.041, 0.305, 0.488, 0.244, -110.446, -83.37, -103.282, -26.333, -7.087, -5.613, 23.54, 0.16742, 0.67865, -0.24667, 0.67114,
 12:16:46.811,e3:ca:2d:fd:e0:8c, 2015-01-01 00:03:17.080, 1.015, -0.11, -0.041, 0.305, 0.366, 0.183, -110.38, -83.37, -103.381, -26.333, -7.087, -5.613, 23.54, 0.16742, 0.67865, -0.24667, 0.67114,
 12:16:46.813,ed:35:33:d3:6c:f8, 2015-01-01 00:03:16.660, 0.679, 0.231, 0.682, -0.854, 0.916, 0.122, 18.929, -43.319, 122.822, -16.367, -14.813, -26.367, 28.95, 0.3848, 0.39337, -0.039, 0.83398,
 12:16:46.813,ed:35:33:d3:6c:f8, 2015-01-01 00:03:16.660, 0.681, 0.232, 0.685, -1.404, 1.709, -0.488, 18.902, -43.281, 122.833, -16.367, -14.813, -26.367, 28.95, 0.3848, 0.39337, -0.039, 0.83398,
 12:16:46.814,f6:90:cc:01:6d:25, 2015-01-01 00:03:15.640, 0.928, 0.021, 0.334, -0.427, 0.549, 0.916, 3.697, -70.098, -165.657, -29.500, -11.267, -6.867, 26.13, 0.11652, -0.56653, -0.09827, -0.80975,
 12:16:46.814,f6:90:cc:01:6d:25, 2015-01-01 00:03:15.640, 0.928, 0.019, 0.334, -0.549, 0.61, 0.732, 3.642, -70.093, -165.602, -29.500, -11.267, -6.867, 26.13, 0.11652, -0.56653, -0.09827, -0.80975,
 12:16:46.834,e3:ca:2d:fd:e0:8c, 2015-01-01 00:03:17.080, 1.015, -0.109, -0.042, 0.244, 0.427, 0.244, -110.297, -83.37, -103.497, -26.333, -7.087, -5.613, 23.54, 0.16428, 0.67789, -0.24591, 0.67297,
 12:16:46.834,e3:ca:2d:fd:e0:8c, 2015-01-01 00:03:17.080, 1.018, -0.109, -0.042, 0, 0.427, 0.122, -110.226, -83.37, -103.59, -26.333, -7.087, -5.613, 23.54, 0.16428, 0.67789, -0.24591, 0.67297,
 12:16:46.837,f6:90:cc:01:6d:25, 2015-01-01 00:03:15.640, 0.93, 0.017, 0.335, -0.427, 0.61, 0.488, 3.604, -70.082, -165.58, -29.500, -11.267, -6.867, 26.13, 0.12054, -0.5661, -0.09747, -0.80957,
 12:16:46.837,f6:90:cc:01:6d:25, 2015-01-01 00:03:15.640, 0.93, 0.019, 0.335, -0.366, 0.549, 0.427, 3.565, -70.071, -165.586, -29.500, -11.267, -6.867, 26.13, 0.12054, -0.5661, -0.09747, -0.80957,
 12:16:46.856,ed:40:fe:65:30:6c, 2015-01-01 00:03:16.260, 0.526, 0.155, 0.834, -0.671, 0.549, 0.183, 10.344, -31.838, -135.851, -16.787, -12.520, -5.240, 22.72, 0.38306, -0.22012, -0.18445, -0.8779,
 12:16:46.856,ed:40:fe:65:30:6c, 2015-01-01 00:03:16.260, 0.525, 0.159, 0.837, -0.244, 0.488, 0.305, 10.338, -31.827, -135.868, -16.787, -12.520, -5.240, 22.72, 0.38306, -0.22012, -0.18445, -0.8779,
 12:16:46.857,ed:35:33:d3:6c:f8, 2015-01-01 00:03:16.660, 0.68, 0.237, 0.688, -1.038, 2.014, -0.61, 18.88, -43.242, 122.844, -16.367, -14.813, -26.367, 28.95, 0.3848, 0.39337, -0.039, 0.83398,
 12:16:46.857,ed:35:33:d3:6c:f8, 2015-01-01 00:03:16.660, 0.678, 0.235, 0.688, -0.61, 1.831, -0.366, 18.864, -43.204, 122.866, -16.367, -14.813, -26.367, 28.95, 0.3848, 0.39337, -0.039, 0.83398,
 12:16:46.878,e3:ca:2d:fd:e0:8c, 2015-01-01 00:03:17.080, 1.015, -0.117, -0.041, -0.244, 0.183, 0.122, -110.198, -83.364, -103.629, -26.333, -7.087, -5.613, 23.54, 0.16428, 0.67789, -0.24591, 0.67297,
 12:16:46.878,e3:ca:2d:fd:e0:8c, 2015-01-01 00:03:17.080, 1.015, -0.111, -0.041, 0.244, 0.305, 0.244, -110.138, -83.364, -103.694, -26.333, -7.087, -5.613, 23.54, 0.16428, 0.67789, -0.24591, 0.67297,
 12:16:46.879,ed:40:fe:65:30:6c, 2015-01-01 00:03:16.260, 0.525, 0.159, 0.839, 0, 0.549, 0.366, 10.333, -31.822, -135.884, -17.347, -12.993, -5.500, 22.72, 0.38306, -0.22012, -0.18445, -0.8779,
 12:16:46.879,ed:40:fe:65:30:6c, 2015-01-01 00:03:16.260, 0.526, 0.16, 0.836, -0.061, 0.427, 0.305, 10.333, -31.811, -135.895, -17.347, -12.993, -5.500, 22.72, 0.38306, -0.22012, -0.18445, -0.8779,
 12:16:46.881,f6:90:cc:01:6d:25, 2015-01-01 00:03:15.640, 0.93, 0.02, 0.335, -0.366, 0.549, 0.305, 3.538, -70.065, -165.569, -29.500, -11.267, -6.867, 26.13, 0.12054, -0.5661, -0.09747, -0.80957,
 12:16:46.881,f6:90:cc:01:6d:25, 2015-01-01 00:03:15.640, 0.93, 0.021, 0.336, -0.183, 0.61, 0.183, 3.521, -70.054, -165.569, -29.500, -11.267, -6.867, 26.13, 0.12054, -0.5661, -0.09747, -0.80957,
 12:16:46.902,ed:35:33:d3:6c:f8, 2015-01-01 00:03:16.660, 0.679, 0.236, 0.687, -1.038, 2.014, -0.732, 18.847, -43.16, 122.86, -16.367, -14.813, -26.367, 28.95, 0.3848, 0.39337, -0.039, 0.83398,
 12:16:46.902,ed:35:33:d3:6c:f8, 2015-01-01 00:03:16.660, 0.678, 0.238, 0.688, -1.099, 2.197, -0.854, 18.831, -43.116, 122.855, -16.367, -14.813, -26.367, 28.95, 0.3848, 0.39337, -0.039, 0.83398,
 12:16:46.924,ed:40:fe:65:30:6c, 2015-01-01 00:03:16.260, 0.526, 0.162, 0.838, -0.183, 0.671, 0.061, 10.333, -31.8, -135.901, -17.347, -12.993, -5.500, 22.72, 0.38306, -0.22012, -0.18445, -0.8779,
 12:16:46.924,ed:40:fe:65:30:6c, 2015-01-01 00:03:16.260, 0.523, 0.157, 0.837, 0, 0.916, 0.122, 10.338, -31.789, -135.912, -17.347, -12.993, -5.500, 22.72, 0.38306, -0.22012, -0.18445, -0.8779,
 12:16:46.926,f6:90:cc:01:6d:25, 2015-01-01 00:03:15.930, 0.927, 0.018, 0.337, 0, 0.549, 0.183, 3.51, -70.043, -165.569, -29.500, -11.267, -6.867, 26.13, 0.12054, -0.5661, -0.09747, -0.80957,
 12:16:46.926,f6:90:cc:01:6d:25, 2015-01-01 00:03:15.930, 0.925, 0.015, 0.335, -0.061, 0.671, 0.061, 3.499, -70.032, -165.575, -29.500, -11.267, -6.867, 26.13, 0.12054, -0.5661, -0.09747, -0.80957,
 12:16:46.945,e3:ca:2d:fd:e0:8c, 2015-01-01 00:03:17.415, 1.015, -0.111, -0.041, 0.183, 0.244, 0.122, -110.089, -83.359, -103.744, -26.333, -7.087, -5.613, 23.54, 0.16428, 0.67789, -0.24591, 0.67297,
 12:16:46.945,e3:ca:2d:fd:e0:8c, 2015-01-01 00:03:17.415, 1.014, -0.114, -0.04, 0.122, 0.244, 0.061, -110.045, -83.359, -103.782, -26.333, -7.087, -5.613, 23.54, 0.16428, 0.67789, -0.24591, 0.67297,
 12:16:46.946,ed:40:fe:65:30:6c, 2015-01-01 00:03:16.260, 0.52, 0.159, 0.837, -0.244, 0.488, 0.122, 10.338, -31.772, -135.917, -17.347, -12.993, -5.500, 22.72, 0.38232, -0.22021, -0.18265, -0.87857,
 12:16:46.946,ed:40:fe:65:30:6c, 2015-01-01 00:03:16.260, 0.521, 0.164, 0.837, -0.671, 0.244, 0, 10.333, -31.767, -135.939, -17.347, -12.993, -5.500, 22.72, 0.38232, -0.22021, -0.18265, -0.87857,
 12:16:46.948,ed:35:33:d3:6c:f8, 2015-01-01 00:03:16.660, 0.674, 0.235, 0.69, -0.977, 2.075, -0.244, 18.803, -43.077, 122.888, -16.367, -14.813, -26.367, 28.95, 0.3848, 0.39337, -0.039, 0.83398,
 12:16:46.948,ed:35:33:d3:6c:f8, 2015-01-01 00:03:16.660, 0.669, 0.234, 0.695, -0.916, 2.014, -0.427, 18.781, -43.033, 122.921, -16.367, -14.813, -26.367, 28.95, 0.3848, 0.39337, -0.039, 0.83398,
 12:16:46.968,e3:ca:2d:fd:e0:8c, 2015-01-01 00:03:17.415, 1.013, -0.113, -0.04, 0.122, 0.183, 0.061, -110.012, -83.359, -103.854, -26.333, -7.087, -5.613, 23.54, 0.16428, 0.67789, -0.24591, 0.67297,
 12:16:46.968,e3:ca:2d:fd:e0:8c, 2015-01-01 00:03:17.415, 1.013, -0.112, -0.038, 0.183, 0.305, 0.061, -109.957, -83.359, -103.964, -26.333, -7.087, -5.613, 23.54, 0.16428, 0.67789, -0.24591, 0.67297,
 12:16:46.972,f6:90:cc:01:6d:25, 2015-01-01 00:03:15.930, 0.925, 0.022, 0.337, -0.366, 0.671, 0.122, 3.483, -70.021, -165.564, -29.500, -11.267, -6.867, 26.13, 0.12054, -0.5661, -0.09747, -0.80957,
 12:16:46.972,f6:90:cc:01:6d:25, 2015-01-01 00:03:15.930, 0.929, 0.021, 0.337, -0.183, 0.61, 0.122, 3.466, -70.01, -165.531, -29.500, -11.267, -6.867, 26.13, 0.12054, -0.5661, -0.09747, -0.80957,
 12:16:46.990,e3:ca:2d:fd:e0:8c, 2015-01-01 00:03:17.415, 1.018, -0.11, -0.039, -1.465, 0.305, -0.305, -109.951, -83.37, -104.035, -26.333, -7.087, -5.613, 23.54, 0.16428, 0.67789, -0.24591, 0.67297,
 12:16:46.990,e3:ca:2d:fd:e0:8c, 2015-01-01 00:03:17.415, 1.014, -0.115, -0.039, 0.122, 0.366, 0.061, -109.88, -83.37, -104.123, -26.333, -7.087, -5.613, 23.54, 0.16428, 0.67789, -0.24591, 0.67297,
 12:16:46.992,ed:40:fe:65:30:6c, 2015-01-01 00:03:16.260, 0.522, 0.162, 0.84, -0.61, 0.366, -0.183, 10.327, -31.756, -135.967, -17.347, -12.993, -5.500, 22.72, 0.38232, -0.22021, -0.18265, -0.87857,
 12:16:46.992,ed:40:fe:65:30:6c, 2015-01-01 00:03:16.260, 0.523, 0.158, 0.842, 0, 0.183, -0.122, 10.327, -31.75, -135.994, -17.347, -12.993, -5.500, 22.72, 0.38232, -0.22021, -0.18265, -0.87857,
 12:16:46.993,ed:35:33:d3:6c:f8, 2015-01-01 00:03:16.660, 0.674, 0.238, 0.694, -1.648, 1.038, -0.671, 18.759, -43.011, 122.926, -16.367, -14.813, -26.367, 28.95, 0.3848, 0.39337, -0.039, 0.83398,
 12:16:46.993,ed:35:33:d3:6c:f8, 2015-01-01 00:03:16.660, 0.676, 0.236, 0.698, -1.282, 0.427, -0.488, 18.737, -42.995, 122.915, -16.367, -14.813, -26.367, 28.95, 0.3848, 0.39337, -0.039, 0.83398,
 12:16:47.018,f6:90:cc:01:6d:25, 2015-01-01 00:03:15.930, 0.93, 0.018, 0.342, 0, 0.427, 0, 3.466, -69.999, -165.52, -29.500, -11.267, -6.867, 26.13, 0.12054, -0.5661, -0.09747, -0.80957,
 12:16:47.018,f6:90:cc:01:6d:25, 2015-01-01 00:03:15.930, 0.929, 0.015, 0.339, 0, 0.244, -0.061, 3.466, -69.994, -165.487, -29.500, -11.267, -6.867, 26.13, 0.12054, -0.5661, -0.09747, -0.80957,
 12:16:47.019,ed:35:33:d3:6c:f8, 2015-01-01 00:03:16.660, 0.676, 0.236, 0.697, -0.183, 0.366, -0.244, 18.737, -42.984, 122.899, -16.360, -14.740, -26.653, 28.95, 0.3848, 0.39337, -0.039, 0.83398,
 12:16:47.019,ed:35:33:d3:6c:f8, 2015-01-01 00:03:16.660, 0.675, 0.235, 0.695, -0.488, 0.549, 0, 18.726, -42.973, 122.882, -16.360, -14.740, -26.653, 28.95, 0.3848, 0.39337, -0.039, 0.83398,
 12:16:47.035,e3:ca:2d:fd:e0:8c, 2015-01-01 00:03:17.415, 1.014, -0.111, -0.04, 0, 0.122, 0, -109.858, -83.37, -104.194, -26.333, -7.087, -5.613, 23.54, 0.16428, 0.67789, -0.24591, 0.67297,
 12:16:47.035,e3:ca:2d:fd:e0:8c, 2015-01-01 00:03:17.415, 1.016, -0.112, -0.04, 0, 0.244, 0, -109.819, -83.37, -104.26, -26.333, -7.087, -5.613, 23.54, 0.16428, 0.67789, -0.24591, 0.67297,
 12:16:47.036,ed:40:fe:65:30:6c, 2015-01-01 00:03:16.615, 0.525, 0.159, 0.843, 0, -0.122, 0, 10.333, -31.745, -136.027, -17.347, -12.993, -5.500, 22.72, 0.38232, -0.22021, -0.18265, -0.87857,
 12:16:47.036,ed:40:fe:65:30:6c, 2015-01-01 00:03:16.615, 0.525, 0.163, 0.838, -0.427, -0.122, 0, 10.333, -31.745, -136.066, -17.347, -12.993, -5.500, 22.72, 0.38232, -0.22021, -0.18265, -0.87857,
 12:16:47.039,f6:90:cc:01:6d:25, 2015-01-01 00:03:15.930, 0.929, 0.018, 0.337, -0.183, 0.183, -0.061, 3.461, -69.994, -165.454, -29.500, -11.267, -6.867, 26.13, 0.12054, -0.5661, -0.09747, -0.80957,
 12:16:47.039,f6:90:cc:01:6d:25, 2015-01-01 00:03:15.930, 0.928, 0.018, 0.338, -0.061, 0.122, -0.061, 3.455, -69.988, -165.432, -29.500, -11.267, -6.867, 26.13, 0.12054, -0.5661, -0.09747, -0.80957,
 12:16:47.059,ed:40:fe:65:30:6c, 2015-01-01 00:03:16.615, 0.525, 0.16, 0.836, -0.488, 0, 0, 10.333, -31.745, -136.11, -17.347, -12.993, -5.500, 22.72, 0.38232, -0.22021, -0.18265, -0.87857,
 12:16:47.059,ed:40:fe:65:30:6c, 2015-01-01 00:03:16.615, 0.523, 0.159, 0.836, -0.549, 0, -0.183, 10.327, -31.74, -136.137, -17.347, -12.993, -5.500, 22.72, 0.38232, -0.22021, -0.18265, -0.87857,
 12:16:47.061,ed:35:33:d3:6c:f8, 2015-01-01 00:03:16.660, 0.676, 0.238, 0.692, -1.282, -0.061, -0.244, 18.71, -42.968, 122.849, -16.360, -14.740, -26.653, 28.95, 0.3848, 0.39337, -0.039, 0.83398,
 12:16:47.061,ed:35:33:d3:6c:f8, 2015-01-01 00:03:16.660, 0.676, 0.234, 0.691, -0.671, -0.488, 0.122, 18.693, -42.979, 122.827, -16.360, -14.740, -26.653, 28.95, 0.3848, 0.39337, -0.039, 0.83398,
 12:16:47.080,e3:ca:2d:fd:e0:8c, 2015-01-01 00:03:17.415, 1.015, -0.113, -0.04, -0.122, 0.183, -0.061, -109.792, -83.37, -104.293, -26.333, -7.087, -5.613, 23.54, 0.16428, 0.67789, -0.24591, 0.67297,
 12:16:47.080,e3:ca:2d:fd:e0:8c, 2015-01-01 00:03:17.415, 1.015, -0.112, -0.041, -0.122, 0.183, -0.061, -109.764, -83.37, -104.337, -26.333, -7.087, -5.613, 23.54, 0.16428, 0.67789, -0.24591, 0.67297,
 12:16:47.085,f6:90:cc:01:6d:25, 2015-01-01 00:03:15.930, 0.928, 0.02, 0.337, 0, 0.122, -0.122, 3.461, -69.988, -165.41, -29.500, -11.267, -6.867, 26.13, 0.12054, -0.5661, -0.09747, -0.80957,
 12:16:47.085,f6:90:cc:01:6d:25, 2015-01-01 00:03:15.930, 0.926, 0.019, 0.335, -0.122, 0.183, -0.183, 3.466, -69.983, -165.388, -29.500, -11.267, -6.867, 26.13, 0.12054, -0.5661, -0.09747, -0.80957,
 12:16:47.105,ed:40:fe:65:30:6c, 2015-01-01 00:03:16.615, 0.518, 0.161, 0.837, -0.549, 0.061, -0.305, 10.327, -31.74, -136.17, -17.347, -12.993, -5.500, 22.72, 0.38232, -0.22021, -0.18265, -0.87857,
 12:16:47.105,ed:40:fe:65:30:6c, 2015-01-01 00:03:16.615, 0.521, 0.158, 0.839, -0.244, 0.122, -0.061, 10.327, -31.734, -136.203, -17.347, -12.993, -5.500, 22.72, 0.38232, -0.22021, -0.18265, -0.87857,
 12:16:47.128,ed:35:33:d3:6c:f8, 2015-01-01 00:03:16.660, 0.672, 0.233, 0.691, -0.61, -0.732, 0.061, 18.688, -42.99, 122.789, -16.360, -14.740, -26.653, 28.95, 0.38693, 0.38971, -0.0401, 0.83469,
 12:16:47.128,ed:35:33:d3:6c:f8, 2015-01-01 00:03:16.660, 0.675, 0.234, 0.694, -0.671, -0.916, 0, 18.682, -43, 122.734, -16.360, -14.740, -26.653, 28.95, 0.38693, 0.38971, -0.0401, 0.83469,
 12:16:47.129,f6:90:cc:01:6d:25, 2015-01-01 00:03:15.930, 0.925, 0.017, 0.336, -0.122, 0.244, -0.244, 3.472, -69.977, -165.394, -29.520, -10.947, -6.827, 26.13, 0.12054, -0.5661, -0.09747, -0.80957,
 12:16:47.129,f6:90:cc:01:6d:25, 2015-01-01 00:03:15.930, 0.929, 0.016, 0.338, 0.061, 0.122, -0.305, 3.483, -69.977, -165.416, -29.520, -10.947, -6.827, 26.13, 0.12054, -0.5661, -0.09747, -0.80957,
 12:16:47.148,e3:ca:2d:fd:e0:8c, 2015-01-01 00:03:17.415, 1.014, -0.113, -0.041, 0, 0.183, -0.061, -109.742, -83.37, -104.37, -26.820, -7.173, -6.127, 23.54, 0.16428, 0.67789, -0.24591, 0.67297,
 12:16:47.148,e3:ca:2d:fd:e0:8c, 2015-01-01 00:03:17.415, 1.014, -0.113, -0.04, -0.122, 0.244, -0.061, -109.709, -83.375, -104.431, -26.820, -7.173, -6.127, 23.54, 0.16428, 0.67789, -0.24591, 0.67297,
 12:16:47.149,ed:40:fe:65:30:6c, 2015-01-01 00:03:16.615, 0.528, 0.157, 0.839, 0, -0.366, 0, 10.333, -31.734, -136.219, -17.347, -12.993, -5.500, 22.72, 0.38232, -0.22021, -0.18265, -0.87857,
 12:16:47.149,ed:40:fe:65:30:6c, 2015-01-01 00:03:16.615, 0.528, 0.163, 0.836, -0.183, -0.305, -0.244, 10.338, -31.74, -136.225, -17.347, -12.993, -5.500, 22.72, 0.38232, -0.22021, -0.18265, -0.87857,
 12:16:47.150,ed:35:33:d3:6c:f8, 2015-01-01 00:03:16.995, 0.679, 0.23, 0.693, -0.916, -0.732, -0.061, 18.671, -43.017, 122.695, -16.360, -14.740, -26.653, 28.95, 0.38693, 0.38971, -0.0401, 0.83469,
 12:16:47.150,ed:35:33:d3:6c:f8, 2015-01-01 00:03:16.995, 0.679, 0.237, 0.687, -0.671, -1.099, -0.671, 18.666, -43.028, 122.662, -16.360, -14.740, -26.653, 28.95, 0.38693, 0.38971, -0.0401, 0.83469,
 12:16:47.172,e3:ca:2d:fd:e0:8c, 2015-01-01 00:03:17.415, 1.015, -0.113, -0.039, -0.183, 0.305, -0.122, -109.666, -83.375, -104.502, -26.820, -7.173, -6.127, 23.54, 0.16669, 0.67654, -0.24823, 0.67288,
 12:16:47.172,e3:ca:2d:fd:e0:8c, 2015-01-01 00:03:17.415, 1.015, -0.112, -0.038, -0.183, 0.183, -0.183, -109.649, -83.381, -104.546, -26.820, -7.173, -6.127, 23.54, 0.16669, 0.67654, -0.24823, 0.67288,
 12:16:47.175,f6:90:cc:01:6d:25, 2015-01-01 00:03:15.930, 0.931, 0.02, 0.341, 0.305, 0, -0.366, 3.505, -69.977, -165.449, -29.520, -10.947, -6.827, 26.13, 0.12109, -0.56534, -0.09744, -0.81003,
 12:16:47.175,f6:90:cc:01:6d:25, 2015-01-01 00:03:15.930, 0.93, 0.021, 0.339, 0.427, 0, -0.366, 3.527, -69.972, -165.498, -29.520, -10.947, -6.827, 26.13, 0.12109, -0.56534, -0.09744, -0.81003,
 12:16:47.194,ed:40:fe:65:30:6c, 2015-01-01 00:03:16.615, 0.525, 0.163, 0.834, -0.549, 0.183, -0.488, 10.338, -31.734, -136.247, -17.347, -12.993, -5.500, 22.72, 0.38232, -0.22021, -0.18265, -0.87857,
 12:16:47.194,ed:40:fe:65:30:6c, 2015-01-01 00:03:16.615, 0.525, 0.162, 0.833, -0.549, 0.305, -0.61, 10.344, -31.729, -136.274, -17.347, -12.993, -5.500, 22.72, 0.38232, -0.22021, -0.18265, -0.87857,
 12:16:47.195,ed:35:33:d3:6c:f8, 2015-01-01 00:03:16.995, 0.675, 0.238, 0.683, -0.671, -1.709, -0.061, 18.671, -43.044, 122.613, -16.360, -14.740, -26.653, 28.95, 0.38693, 0.38971, -0.0401, 0.83469,
 12:16:47.195,ed:35:33:d3:6c:f8, 2015-01-01 00:03:16.995, 0.678, 0.234, 0.684, -1.282, -1.343, -0.427, 18.666, -43.072, 122.585, -16.360, -14.740, -26.653, 28.95, 0.38693, 0.38971, -0.0401, 0.83469,
 12:16:47.215,e3:ca:2d:fd:e0:8c, 2015-01-01 00:03:17.415, 1.015, -0.112, -0.038, -0.183, 0.122, -0.305, -109.649, -83.386, -104.562, -26.820, -7.173, -6.127, 23.54, 0.16669, 0.67654, -0.24823, 0.67288,
 12:16:47.215,e3:ca:2d:fd:e0:8c, 2015-01-01 00:03:17.415, 1.014, -0.111, -0.037, -0.183, 0.061, -0.305, -109.655, -83.392, -104.584, -26.820, -7.173, -6.127, 23.54, 0.16669, 0.67654, -0.24823, 0.67288,
 12:16:47.217,ed:35:33:d3:6c:f8, 2015-01-01 00:03:16.995, 0.681, 0.235, 0.684, -1.587, -0.977, -0.61, 18.66, -43.088, 122.558, -16.360, -14.740, -26.653, 28.95, 0.38693, 0.38971, -0.0401, 0.83469,
 12:16:47.217,ed:35:33:d3:6c:f8, 2015-01-01 00:03:16.995, 0.678, 0.24, 0.684, -1.038, -0.671, -1.038, 18.649, -43.099, 122.498, -16.360, -14.740, -26.653, 28.95, 0.38693, 0.38971, -0.0401, 0.83469,
 12:16:47.218,f6:90:cc:01:6d:25, 2015-01-01 00:03:16.240, 0.928, 0.022, 0.337, 0.244, 0.061, -0.366, 3.549, -69.972, -165.542, -29.520, -10.947, -6.827, 26.13, 0.12109, -0.56534, -0.09744, -0.81003,
 12:16:47.218,f6:90:cc:01:6d:25, 2015-01-01 00:03:16.240, 0.927, 0.023, 0.337, 0.549, 0.305, -0.305, 3.576, -69.966, -165.553, -29.520, -10.947, -6.827, 26.13, 0.12109, -0.56534, -0.09744, -0.81003,
 12:16:47.238,e3:ca:2d:fd:e0:8c, 2015-01-01 00:03:17.750, 1.014, -0.11, -0.036, -0.183, -0.061, -0.366, -109.682, -83.397, -104.59, -26.820, -7.173, -6.127, 23.54, 0.16669, 0.67654, -0.24823, 0.67288,
 12:16:47.238,e3:ca:2d:fd:e0:8c, 2015-01-01 00:03:17.750, 1.014, -0.11, -0.038, -0.061, 0.061, -0.244, -109.682, -83.403, -104.617, -26.820, -7.173, -6.127, 23.54, 0.16669, 0.67654, -0.24823, 0.67288,
 12:16:47.243,f6:90:cc:01:6d:25, 2015-01-01 00:03:16.240, 0.927, 0.022, 0.336, 0.916, 0.671, -0.305, 3.604, -69.95, -165.569, -29.520, -10.947, -6.827, 26.13, 0.12109, -0.56534, -0.09744, -0.81003,
 12:16:47.243,f6:90:cc:01:6d:25, 2015-01-01 00:03:16.240, 0.928, 0.019, 0.337, 0.854, 0.732, -0.305, 3.642, -69.939, -165.564, -29.520, -10.947, -6.827, 26.13, 0.12109, -0.56534, -0.09744, -0.81003,
 12:16:47.262,ed:40:fe:65:30:6c, 2015-01-01 00:03:16.615, 0.526, 0.162, 0.833, -0.366, 0.183, -0.793, 10.344, -31.718, -136.318, -17.127, -12.927, -5.800, 22.72, 0.38232, -0.22021, -0.18265, -0.87857,
 12:16:47.262,ed:40:fe:65:30:6c, 2015-01-01 00:03:16.615, 0.524, 0.163, 0.834, 0, 0.244, -0.916, 10.36, -31.712, -136.368, -17.127, -12.927, -5.800, 22.72, 0.38232, -0.22021, -0.18265, -0.87857,
 12:16:47.263,ed:35:33:d3:6c:f8, 2015-01-01 00:03:16.995, 0.679, 0.242, 0.69, -0.549, -0.183, -0.061, 18.655, -43.105, 122.454, -16.360, -14.740, -26.653, 28.95, 0.38693, 0.38971, -0.0401, 0.83469,
 12:16:47.263,ed:35:33:d3:6c:f8, 2015-01-01 00:03:16.995, 0.679, 0.242, 0.69, -0.732, 0.122, -0.183, 18.649, -43.105, 122.448, -16.360, -14.740, -26.653, 28.95, 0.38693, 0.38971, -0.0401, 0.83469,
 12:16:47.283,e3:ca:2d:fd:e0:8c, 2015-01-01 00:03:17.750, 1.015, -0.111, -0.039, 0, 0.122, -0.183, -109.666, -83.403, -104.656, -26.820, -7.173, -6.127, 23.54, 0.16669, 0.67654, -0.24823, 0.67288,
 12:16:47.283,e3:ca:2d:fd:e0:8c, 2015-01-01 00:03:17.750, 1.017, -0.111, -0.04, 0.061, 0.183, -0.122, -109.638, -83.408, -104.7, -26.820, -7.173, -6.127, 23.54, 0.16669, 0.67654, -0.24823, 0.67288,
 12:16:47.284,ed:40:fe:65:30:6c, 2015-01-01 00:03:16.615, 0.523, 0.162, 0.837, 0.549, 0.122, -0.61, 10.382, -31.707, -136.406, -17.127, -12.927, -5.800, 22.72, 0.37857, -0.22025, -0.18188, -0.88034,
 12:16:47.284,ed:40:fe:65:30:6c, 2015-01-01 00:03:16.615, 0.526, 0.167, 0.838, 0.244, -0.061, -0.183, 10.404, -31.701, -136.439, -17.127, -12.927, -5.800, 22.72, 0.37857, -0.22025, -0.18188, -0.88034,
 12:16:47.286,f6:90:cc:01:6d:25, 2015-01-01 00:03:16.240, 0.93, 0.022, 0.337, 0.61, 0.671, -0.244, 3.669, -69.922, -165.553, -29.520, -10.947, -6.827, 26.13, 0.12109, -0.56534, -0.09744, -0.81003,
 12:16:47.286,f6:90:cc:01:6d:25, 2015-01-01 00:03:16.240, 0.929, 0.025, 0.337, 0.305, 0.488, -0.183, 3.686, -69.911, -165.553, -29.520, -10.947, -6.827, 26.13, 0.12109, -0.56534, -0.09744, -0.81003,
 12:16:47.328,e3:ca:2d:fd:e0:8c, 2015-01-01 00:03:17.750, 1.016, -0.111, -0.042, 0, 0.244, -0.061, -109.6, -83.414, -104.744, -26.820, -7.173, -6.127, 23.54, 0.16669, 0.67654, -0.24823, 0.67288,
 12:16:47.328,e3:ca:2d:fd:e0:8c, 2015-01-01 00:03:17.750, 1.015, -0.111, -0.041, 0, 0.183, -0.061, -109.567, -83.414, -104.782, -26.820, -7.173, -6.127, 23.54, 0.16669, 0.67654, -0.24823, 0.67288,
 12:16:47.329,ed:40:fe:65:30:6c, 2015-01-01 00:03:16.615, 0.526, 0.168, 0.839, -0.183, -0.305, -0.061, 10.41, -31.707, -136.461, -17.127, -12.927, -5.800, 22.72, 0.37857, -0.22025, -0.18188, -0.88034,
 12:16:47.329,ed:40:fe:65:30:6c, 2015-01-01 00:03:16.615, 0.524, 0.167, 0.838, -0.732, -0.305, -0.305, 10.41, -31.712, -136.494, -17.127, -12.927, -5.800, 22.72, 0.37857, -0.22025, -0.18188, -0.88034,
 12:16:47.330,ed:35:33:d3:6c:f8, 2015-01-01 00:03:16.995, 0.681, 0.241, 0.692, -0.183, -0.427, 0.061, 18.644, -43.099, 122.437, -16.360, -14.740, -26.653, 28.95, 0.38693, 0.38971, -0.0401, 0.83469,
 12:16:47.330,ed:35:33:d3:6c:f8, 2015-01-01 00:03:16.995, 0.68, 0.236, 0.69, -0.732, -0.732, -0.183, 18.644, -43.11, 122.415, -16.360, -14.740, -26.653, 28.95, 0.38693, 0.38971, -0.0401, 0.83469,
 12:16:47.332,f6:90:cc:01:6d:25, 2015-01-01 00:03:16.240, 0.928, 0.025, 0.337, 0.122, 0.305, -0.122, 3.702, -69.901, -165.553, -29.520, -10.947, -6.827, 26.13, 0.12109, -0.56534, -0.09744, -0.81003,
 12:16:47.332,f6:90:cc:01:6d:25, 2015-01-01 00:03:16.240, 0.927, 0.022, 0.337, 0, 0.244, -0.122, 3.708, -69.895, -165.564, -29.520, -10.947, -6.827, 26.13, 0.12109, -0.56534, -0.09744, -0.81003,
 12:16:47.350,e3:ca:2d:fd:e0:8c, 2015-01-01 00:03:17.750, 1.015, -0.111, -0.041, 0, 0.122, 0, -109.545, -83.414, -104.81, -26.820, -7.173, -6.127, 23.54, 0.16669, 0.67654, -0.24823, 0.67288,
 12:16:47.350,e3:ca:2d:fd:e0:8c, 2015-01-01 00:03:17.750, 1.016, -0.112, -0.04, 0, 0.183, 0.061, -109.523, -83.414, -104.832, -26.820, -7.173, -6.127, 23.54, 0.16669, 0.67654, -0.24823, 0.67288,
 12:16:47.351,ed:40:fe:65:30:6c, 2015-01-01 00:03:16.950, 0.524, 0.164, 0.837, -0.793, -0.244, -0.488, 10.41, -31.712, -136.538, -17.127, -12.927, -5.800, 22.72, 0.37857, -0.22025, -0.18188, -0.88034,
 12:16:47.351,ed:40:fe:65:30:6c, 2015-01-01 00:03:16.950, 0.524, 0.165, 0.836, -0.793, -0.244, -0.488, 10.41, -31.712, -136.577, -17.127, -12.927, -5.800, 22.72, 0.37857, -0.22025, -0.18188, -0.88034,
 12:16:47.352,ed:35:33:d3:6c:f8, 2015-01-01 00:03:16.995, 0.679, 0.236, 0.689, -0.488, -0.854, -0.305, 18.644, -43.121, 122.393, -16.293, -14.613, -26.067, 28.95, 0.38693, 0.38971, -0.0401, 0.83469,
 12:16:47.352,ed:35:33:d3:6c:f8, 2015-01-01 00:03:16.995, 0.679, 0.24, 0.688, -0.732, -0.732, -0.732, 18.655, -43.132, 122.377, -16.293, -14.613, -26.067, 28.95, 0.38693, 0.38971, -0.0401, 0.83469,
 12:16:47.376,f6:90:cc:01:6d:25, 2015-01-01 00:03:16.240, 0.928, 0.021, 0.337, 0, 0.183, -0.122, 3.713, -69.895, -165.564, -29.520, -10.947, -6.827, 26.13, 0.12109, -0.56534, -0.09744, -0.81003,
 12:16:47.376,f6:90:cc:01:6d:25, 2015-01-01 00:03:16.240, 0.928, 0.021, 0.339, 0.122, 0.183, 0, 3.719, -69.89, -165.575, -29.520, -10.947, -6.827, 26.13, 0.12109, -0.56534, -0.09744, -0.81003,
 12:16:47.397,ed:40:fe:65:30:6c, 2015-01-01 00:03:16.950, 0.523, 0.167, 0.836, -0.427, -0.183, -0.061, 10.41, -31.718, -136.604, -17.127, -12.927, -5.800, 22.72, 0.37857, -0.22025, -0.18188, -0.88034,
 12:16:47.397,ed:40:fe:65:30:6c, 2015-01-01 00:03:16.950, 0.524, 0.165, 0.837, -0.244, -0.122, 0.183, 10.41, -31.718, -136.626, -17.127, -12.927, -5.800, 22.72, 0.37857, -0.22025, -0.18188, -0.88034,
 12:16:47.398,ed:35:33:d3:6c:f8, 2015-01-01 00:03:16.995, 0.679, 0.243, 0.688, -0.305, -0.671, 0, 18.66, -43.138, 122.327, -16.293, -14.613, -26.067, 28.95, 0.38693, 0.38971, -0.0401, 0.83469,
 12:16:47.398,ed:35:33:d3:6c:f8, 2015-01-01 00:03:16.995, 0.68, 0.239, 0.689, 0, -0.61, 0.122, 18.666, -43.149, 122.305, -16.293, -14.613, -26.067, 28.95, 0.38693, 0.38971, -0.0401, 0.83469,
 12:16:47.400,f6:90:cc:01:6d:25, 2015-01-01 00:03:16.240, 0.928, 0.023, 0.338, 0.122, 0.244, 0, 3.719, -69.89, -165.58, -29.827, -10.833, -7.600, 26.13, 0.12109, -0.56534, -0.09744, -0.81003,
 12:16:47.400,f6:90:cc:01:6d:25, 2015-01-01 00:03:16.240, 0.928, 0.022, 0.34, 0, 0.244, 0.061, 3.719, -69.884, -165.597, -29.827, -10.833, -7.600, 26.13, 0.12109, -0.56534, -0.09744, -0.81003,
 12:16:47.420,ed:35:33:d3:6c:f8, 2015-01-01 00:03:16.995, 0.68, 0.239, 0.689, 0, -0.732, 0, 18.671, -43.16, 122.305, -16.293, -14.613, -26.067, 28.95, 0.39044, 0.39059, -0.04297, 0.83249,
 12:16:47.420,ed:35:33:d3:6c:f8, 2015-01-01 00:03:16.995, 0.679, 0.239, 0.689, 0.183, -0.671, 0.183, 18.682, -43.171, 122.289, -16.293, -14.613, -26.067, 28.95, 0.39044, 0.39059, -0.04297, 0.83249,
 12:16:47.440,e3:ca:2d:fd:e0:8c, 2015-01-01 00:03:17.750, 1.015, -0.112, -0.039, 0.061, 0.183, 0, -109.495, -83.414, -104.859, -26.820, -7.173, -6.127, 23.54, 0.16669, 0.67654, -0.24823, 0.67288,
 12:16:47.440,e3:ca:2d:fd:e0:8c, 2015-01-01 00:03:17.750, 1.015, -0.112, -0.039, 0.061, 0.244, 0, -109.462, -83.414, -104.881, -26.820, -7.173, -6.127, 23.54, 0.16669, 0.67654, -0.24823, 0.67288,
 12:16:47.441,ed:40:fe:65:30:6c, 2015-01-01 00:03:16.950, 0.524, 0.166, 0.838, -0.305, -0.244, 0.183, 10.41, -31.723, -136.653, -17.127, -12.927, -5.800, 22.72, 0.37857, -0.22025, -0.18188, -0.88034,
 12:16:47.441,ed:40:fe:65:30:6c, 2015-01-01 00:03:16.950, 0.522, 0.166, 0.839, -0.122, -0.122, 0.305, 10.415, -31.723, -136.67, -17.127, -12.927, -5.800, 22.72, 0.37857, -0.22025, -0.18188, -0.88034,
 12:16:47.444,f6:90:cc:01:6d:25, 2015-01-01 00:03:16.240, 0.927, 0.021, 0.341, 0, 0.122, 0.122, 3.719, -69.879, -165.613, -29.827, -10.833, -7.600, 26.13, 0.12109, -0.56534, -0.09744, -0.81003,
 12:16:47.444,f6:90:cc:01:6d:25, 2015-01-01 00:03:16.240, 0.926, 0.021, 0.342, 0.122, 0, 0.122, 3.708, -69.879, -165.63, -29.827, -10.833, -7.600, 26.13, 0.12109, -0.56534, -0.09744, -0.81003,
 12:16:47.463,e3:ca:2d:fd:e0:8c, 2015-01-01 00:03:17.750, 1.015, -0.111, -0.038, 0, 0.244, 0, -109.424, -83.414, -104.914, -26.833, -6.747, -5.460, 23.54, 0.16669, 0.67654, -0.24823, 0.67288,
 12:16:47.463,e3:ca:2d:fd:e0:8c, 2015-01-01 00:03:17.750, 1.014, -0.111, -0.037, 0, 0.183, 0, -109.385, -83.414, -104.947, -26.833, -6.747, -5.460, 23.54, 0.16669, 0.67654, -0.24823, 0.67288,
 12:16:47.464,ed:40:fe:65:30:6c, 2015-01-01 00:03:16.950, 0.522, 0.163, 0.839, 0, -0.061, 0.488, 10.415, -31.723, -136.686, -17.127, -12.927, -5.800, 22.72, 0.37857, -0.22025, -0.18188, -0.88034,
 12:16:47.464,ed:40:fe:65:30:6c, 2015-01-01 00:03:16.950, 0.522, 0.165, 0.837, 0, -0.305, 0.549, 10.421, -31.729, -136.697, -17.127, -12.927, -5.800, 22.72, 0.37857, -0.22025, -0.18188, -0.88034,
 12:16:47.465,ed:35:33:d3:6c:f8, 2015-01-01 00:03:16.995, 0.678, 0.236, 0.688, 0, -0.854, 0.488, 18.688, -43.182, 122.272, -16.293, -14.613, -26.067, 28.95, 0.39044, 0.39059, -0.04297, 0.83249,
 12:16:47.465,ed:35:33:d3:6c:f8, 2015-01-01 00:03:16.995, 0.678, 0.239, 0.686, 0.061, -0.427, 0.305, 18.693, -43.198, 122.256, -16.293, -14.613, -26.067, 28.95, 0.39044, 0.39059, -0.04297, 0.83249,
 12:16:47.489,f6:90:cc:01:6d:25, 2015-01-01 00:03:16.240, 0.925, 0.021, 0.342, 0.244, 0, 0.061, 3.708, -69.879, -165.646, -29.827, -10.833, -7.600, 26.13, 0.12091, -0.56458, -0.09796, -0.81052,
 12:16:47.489,f6:90:cc:01:6d:25, 2015-01-01 00:03:16.240, 0.925, 0.022, 0.342, 0.305, 0, 0.183, 3.708, -69.879, -165.657, -29.827, -10.833, -7.600, 26.13, 0.12091, -0.56458, -0.09796, -0.81052,
 12:16:47.509,e3:ca:2d:fd:e0:8c, 2015-01-01 00:03:17.750, 1.014, -0.111, -0.037, -0.061, 0.183, 0, -109.358, -83.414, -104.969, -26.833, -6.747, -5.460, 23.54, 0.16669, 0.67654, -0.24823, 0.67288,
 12:16:47.509,e3:ca:2d:fd:e0:8c, 2015-01-01 00:03:17.750, 1.013, -0.111, -0.036, 0, 0.183, -0.061, -109.325, -83.419, -104.98, -26.833, -6.747, -5.460, 23.54, 0.16669, 0.67654, -0.24823, 0.67288,
 12:16:47.510,ed:35:33:d3:6c:f8, 2015-01-01 00:03:17.330, 0.678, 0.237, 0.687, 0.061, -0.427, 0.61, 18.693, -43.204, 122.245, -16.293, -14.613, -26.067, 28.95, 0.39044, 0.39059, -0.04297, 0.83249,
 12:16:47.510,ed:35:33:d3:6c:f8, 2015-01-01 00:03:17.330, 0.682, 0.234, 0.684, -0.122, -0.366, 0.366, 18.693, -43.215, 122.25, -16.293, -14.613, -26.067, 28.95, 0.39044, 0.39059, -0.04297, 0.83249,
 12:16:47.531,e3:ca:2d:fd:e0:8c, 2015-01-01 00:03:17.750, 1.014, -0.11, -0.036, 0, 0.122, 0, -109.292, -83.419, -105.007, -26.833, -6.747, -5.460, 23.54, 0.16763, 0.67603, -0.24872, 0.67297,
 12:16:47.531,e3:ca:2d:fd:e0:8c, 2015-01-01 00:03:17.750, 1.016, -0.11, -0.036, 0.122, 0.183, 0.061, -109.265, -83.419, -105.024, -26.833, -6.747, -5.460, 23.54, 0.16763, 0.67603, -0.24872, 0.67297,
 12:16:47.532,ed:40:fe:65:30:6c, 2015-01-01 00:03:16.950, 0.523, 0.165, 0.836, 0, 0, 0.61, 10.421, -31.729, -136.714, -17.127, -12.927, -5.800, 22.72, 0.37857, -0.22025, -0.18188, -0.88034,
 12:16:47.532,ed:40:fe:65:30:6c, 2015-01-01 00:03:16.950, 0.526, 0.164, 0.834, -0.244, 0.122, 0.488, 10.421, -31.729, -136.719, -17.127, -12.927, -5.800, 22.72, 0.37857, -0.22025, -0.18188, -0.88034,
 12:16:47.534,f6:90:cc:01:6d:25, 2015-01-01 00:03:16.555, 0.928, 0.024, 0.341, 0.061, 0, 0.183, 3.702, -69.879, -165.663, -29.827, -10.833, -7.600, 26.13, 0.12091, -0.56458, -0.09796, -0.81052,
 12:16:47.534,f6:90:cc:01:6d:25, 2015-01-01 00:03:16.555, 0.93, 0.024, 0.339, -0.183, 0.122, 0.183, 3.691, -69.873, -165.646, -29.827, -10.833, -7.600, 26.13, 0.12091, -0.56458, -0.09796, -0.81052,
 12:16:47.554,ed:40:fe:65:30:6c, 2015-01-01 00:03:16.950, 0.527, 0.162, 0.834, -0.488, 0.305, 0.244, 10.415, -31.723, -136.725, -16.680, -12.667, -5.787, 22.72, 0.37857, -0.22025, -0.18188, -0.88034,
 12:16:47.554,ed:40:fe:65:30:6c, 2015-01-01 00:03:16.950, 0.527, 0.163, 0.834, -0.793, 0.916, -0.122, 10.41, -31.707, -136.747, -16.680, -12.667, -5.787, 22.72, 0.37857, -0.22025, -0.18188, -0.88034,
 12:16:47.556,ed:35:33:d3:6c:f8, 2015-01-01 00:03:17.330, 0.683, 0.232, 0.683, -0.427, 0, 0.061, 18.688, -43.22, 122.256, -16.293, -14.613, -26.067, 28.95, 0.39044, 0.39059, -0.04297, 0.83249,
 12:16:47.556,ed:35:33:d3:6c:f8, 2015-01-01 00:03:17.330, 0.685, 0.233, 0.68, -0.916, -0.122, -0.305, 18.682, -43.22, 122.228, -16.293, -14.613, -26.067, 28.95, 0.39044, 0.39059, -0.04297, 0.83249,
 12:16:47.575,e3:ca:2d:fd:e0:8c, 2015-01-01 00:03:17.750, 1.016, -0.11, -0.038, 0.061, 0.061, 0.061, -109.226, -83.419, -105.051, -26.833, -6.747, -5.460, 23.54, 0.16763, 0.67603, -0.24872, 0.67297,
 12:16:47.575,e3:ca:2d:fd:e0:8c, 2015-01-01 00:03:17.750, 1.016, -0.109, -0.039, 0.061, 0, 0, -109.21, -83.419, -105.068, -26.833, -6.747, -5.460, 23.54, 0.16763, 0.67603, -0.24872, 0.67297,
 12:16:47.577,ed:35:33:d3:6c:f8, 2015-01-01 00:03:17.330, 0.682, 0.234, 0.682, -1.16, 0.122, -0.305, 18.671, -43.215, 122.195, -16.293, -14.613, -26.067, 28.95, 0.39044, 0.39059, -0.04297, 0.83249,
 12:16:47.577,ed:35:33:d3:6c:f8, 2015-01-01 00:03:17.330, 0.683, 0.236, 0.686, -1.343, 0.427, -0.244, 18.66, -43.209, 122.141, -16.293, -14.613, -26.067, 28.95, 0.39044, 0.39059, -0.04297, 0.83249,
 12:16:47.578,f6:90:cc:01:6d:25, 2015-01-01 00:03:16.555, 0.929, 0.023, 0.338, -0.427, 0.183, 0.122, 3.68, -69.873, -165.619, -29.827, -10.833, -7.600, 26.13, 0.12091, -0.56458, -0.09796, -0.81052,
 12:16:47.578,f6:90:cc:01:6d:25, 2015-01-01 00:03:16.555, 0.928, 0.021, 0.337, -0.366, 0.305, 0.061, 3.664, -69.868, -165.608, -29.827, -10.833, -7.600, 26.13, 0.12091, -0.56458, -0.09796, -0.81052,
 12:16:47.598,ed:40:fe:65:30:6c, 2015-01-01 00:03:16.950, 0.526, 0.16, 0.834, -0.916, 0.916, -0.305, 10.399, -31.685, -136.774, -16.680, -12.667, -5.787, 22.72, 0.37857, -0.22025, -0.18188, -0.88034,
 12:16:47.598,ed:40:fe:65:30:6c, 2015-01-01 00:03:16.950, 0.526, 0.16, 0.837, -0.854, 0.549, -0.366, 10.393, -31.674, -136.802, -16.680, -12.667, -5.787, 22.72, 0.37857, -0.22025, -0.18188, -0.88034,
 12:16:47.598,e3:ca:2d:fd:e0:8c, 2015-01-01 00:03:18.110, 1.015, -0.111, -0.04, 0.061, 0, 0, -109.204, -83.419, -105.068, -26.833, -6.747, -5.460, 23.54, 0.16763, 0.67603, -0.24872, 0.67297,
 12:16:47.598,e3:ca:2d:fd:e0:8c, 2015-01-01 00:03:18.110, 1.016, -0.112, -0.04, 0, 0, 0, -109.199, -83.419, -105.068, -26.833, -6.747, -5.460, 23.54, 0.16763, 0.67603, -0.24872, 0.67297,
 12:16:47.602,f6:90:cc:01:6d:25, 2015-01-01 00:03:16.555, 0.929, 0.021, 0.337, -0.122, 0.427, 0, 3.658, -69.862, -165.613, -29.827, -10.833, -7.600, 26.13, 0.12091, -0.56458, -0.09796, -0.81052,
 12:16:47.602,f6:90:cc:01:6d:25, 2015-01-01 00:03:16.555, 0.928, 0.021, 0.336, -0.061, 0.427, 0.061, 3.653, -69.851, -165.63, -29.827, -10.833, -7.600, 26.13, 0.12091, -0.56458, -0.09796, -0.81052,
 12:16:47.622,ed:35:33:d3:6c:f8, 2015-01-01 00:03:17.330, 0.683, 0.237, 0.688, -1.282, 0.061, -0.122, 18.638, -43.204, 122.08, -16.293, -14.613, -26.067, 28.95, 0.39044, 0.39059, -0.04297, 0.83249,
 12:16:47.622,ed:35:33:d3:6c:f8, 2015-01-01 00:03:17.330, 0.681, 0.235, 0.688, -1.221, 0.061, -0.244, 18.616, -43.204, 122.031, -16.293, -14.613, -26.067, 28.95, 0.39044, 0.39059, -0.04297, 0.83249,
 12:16:47.643,e3:ca:2d:fd:e0:8c, 2015-01-01 00:03:18.110, 1.016, -0.112, -0.041, 0.061, 0.061, 0.061, -109.193, -83.419, -105.079, -26.833, -6.747, -5.460, 23.54, 0.16763, 0.67603, -0.24872, 0.67297,
 12:16:47.643,e3:ca:2d:fd:e0:8c, 2015-01-01 00:03:18.110, 1.016, -0.112, -0.04, 0.061, 0.061, 0, -109.182, -83.414, -105.09, -26.833, -6.747, -5.460, 23.54, 0.16763, 0.67603, -0.24872, 0.67297,
 12:16:47.647,f6:90:cc:01:6d:25, 2015-01-01 00:03:16.555, 0.928, 0.021, 0.337, -0.183, 0.427, 0, 3.647, -69.846, -165.646, -29.827, -10.833, -7.600, 26.13, 0.12091, -0.56458, -0.09796, -0.81052,
 12:16:47.647,f6:90:cc:01:6d:25, 2015-01-01 00:03:16.555, 0.928, 0.021, 0.339, -0.183, 0.366, 0, 3.642, -69.835, -165.657, -29.827, -10.833, -7.600, 26.13, 0.12091, -0.56458, -0.09796, -0.81052,
 12:16:47.668,ed:35:33:d3:6c:f8, 2015-01-01 00:03:17.330, 0.683, 0.233, 0.689, -1.16, 0.183, -0.061, 18.6, -43.198, 121.987, -16.293, -14.613, -26.067, 28.95, 0.39044, 0.39059, -0.04297, 0.83249,
 12:16:47.668,ed:35:33:d3:6c:f8, 2015-01-01 00:03:17.330, 0.679, 0.231, 0.69, -0.671, 0.183, -0.366, 18.589, -43.193, 121.965, -16.293, -14.613, -26.067, 28.95, 0.39044, 0.39059, -0.04297, 0.83249,
 12:16:47.688,e3:ca:2d:fd:e0:8c, 2015-01-01 00:03:18.110, 1.015, -0.113, -0.039, 0, 0.061, 0, -109.171, -83.414, -105.09, -26.833, -6.747, -5.460, 23.54, 0.16763, 0.67603, -0.24872, 0.67297,
 12:16:47.688,e3:ca:2d:fd:e0:8c, 2015-01-01 00:03:18.110, 1.014, -0.113, -0.038, 0, 0.122, -0.061, -109.16, -83.414, -105.084, -26.833, -6.747, -5.460, 23.54, 0.16763, 0.67603, -0.24872, 0.67297,
 12:16:47.689,ed:40:fe:65:30:6c, 2015-01-01 00:03:16.950, 0.524, 0.164, 0.838, -0.671, 0.427, -0.244, 10.388, -31.663, -136.807, -16.680, -12.667, -5.787, 22.72, 0.37564, -0.22058, -0.18106, -0.88168,
 12:16:47.689,ed:40:fe:65:30:6c, 2015-01-01 00:03:16.950, 0.522, 0.162, 0.84, -0.61, 0.305, -0.183, 10.382, -31.652, -136.813, -16.680, -12.667, -5.787, 22.72, 0.37564, -0.22058, -0.18106, -0.88168,
 12:16:47.691,f6:90:cc:01:6d:25, 2015-01-01 00:03:16.555, 0.926, 0.017, 0.34, -0.122, 0.244, -0.061, 3.642, -69.835, -165.657, -29.827, -10.833, -7.600, 26.13, 0.12091, -0.56458, -0.09796, -0.81052,
 12:16:47.691,f6:90:cc:01:6d:25, 2015-01-01 00:03:16.555, 0.925, 0.018, 0.34, -0.061, 0.183, -0.061, 3.642, -69.829, -165.652, -29.827, -10.833, -7.600, 26.13, 0.12091, -0.56458, -0.09796, -0.81052,
 12:16:47.710,e3:ca:2d:fd:e0:8c, 2015-01-01 00:03:18.110, 1.013, -0.113, -0.037, -0.061, 0.183, -0.122, -109.144, -83.419, -105.09, -26.833, -6.747, -5.460, 23.54, 0.16763, 0.67603, -0.24872, 0.67297,
 12:16:47.710,e3:ca:2d:fd:e0:8c, 2015-01-01 00:03:18.110, 1.014, -0.112, -0.036, -0.061, 0.183, 0, -109.122, -83.419, -105.101, -26.833, -6.747, -5.460, 23.54, 0.16763, 0.67603, -0.24872, 0.67297,
 12:16:47.711,ed:40:fe:65:30:6c, 2015-01-01 00:03:17.285, 0.523, 0.161, 0.841, -0.427, 0.244, -0.122, 10.382, -31.646, -136.818, -16.680, -12.667, -5.787, 22.72, 0.37564, -0.22058, -0.18106, -0.88168,
 12:16:47.711,ed:40:fe:65:30:6c, 2015-01-01 00:03:17.285, 0.521, 0.159, 0.84, -0.488, 0, -0.244, 10.382, -31.646, -136.829, -16.680, -12.667, -5.787, 22.72, 0.37564, -0.22058, -0.18106, -0.88168,
 12:16:47.735,ed:35:33:d3:6c:f8, 2015-01-01 00:03:17.330, 0.678, 0.235, 0.69, -0.488, 0, -0.244, 18.583, -43.193, 121.943, -16.380, -14.853, -26.727, 28.95, 0.39044, 0.39059, -0.04297, 0.83249,
 12:16:47.735,ed:35:33:d3:6c:f8, 2015-01-01 00:03:17.330, 0.678, 0.235, 0.69, -0.488, -0.061, -0.061, 18.578, -43.187, 121.932, -16.380, -14.853, -26.727, 28.95, 0.39044, 0.39059, -0.04297, 0.83249,
 12:16:47.735,ed:40:fe:65:30:6c, 2015-01-01 00:03:17.285, 0.52, 0.16, 0.84, -0.549, 0.061, -0.183, 10.382, -31.641, -136.851, -16.680, -12.667, -5.787, 22.72, 0.37564, -0.22058, -0.18106, -0.88168,
 12:16:47.735,ed:40:fe:65:30:6c, 2015-01-01 00:03:17.285, 0.52, 0.162, 0.84, -0.549, 0.122, 0, 10.377, -31.641, -136.868, -16.680, -12.667, -5.787, 22.72, 0.37564, -0.22058, -0.18106, -0.88168,
 12:16:47.737,f6:90:cc:01:6d:25, 2015-01-01 00:03:16.555, 0.926, 0.019, 0.342, 0, 0.183, -0.061, 3.642, -69.824, -165.646, -29.500, -11.353, -6.993, 26.13, 0.12091, -0.56458, -0.09796, -0.81052,
 12:16:47.737,f6:90:cc:01:6d:25, 2015-01-01 00:03:16.555, 0.926, 0.019, 0.343, 0.061, 0.122, -0.122, 3.642, -69.824, -165.641, -29.500, -11.353, -6.993, 26.13, 0.12091, -0.56458, -0.09796, -0.81052,
 12:16:47.756,ed:40:fe:65:30:6c, 2015-01-01 00:03:17.285, 0.52, 0.161, 0.839, -0.366, 0.122, 0.122, 10.371, -31.635, -136.862, -16.680, -12.667, -5.787, 22.72, 0.37564, -0.22058, -0.18106, -0.88168,
 12:16:47.756,ed:40:fe:65:30:6c, 2015-01-01 00:03:17.285, 0.521, 0.162, 0.839, -0.244, 0.183, 0.183, 10.371, -31.63, -136.857, -16.680, -12.667, -5.787, 22.72, 0.37564, -0.22058, -0.18106, -0.88168,
 12:16:47.758,ed:35:33:d3:6c:f8, 2015-01-01 00:03:17.330, 0.678, 0.235, 0.69, -0.244, -0.183, 0, 18.578, -43.187, 121.943, -16.380, -14.853, -26.727, 28.95, 0.39328, 0.39041, -0.04501, 0.83112,
 12:16:47.758,ed:35:33:d3:6c:f8, 2015-01-01 00:03:17.330, 0.679, 0.235, 0.688, -0.305, 0, 0, 18.572, -43.193, 121.965, -16.380, -14.853, -26.727, 28.95, 0.39328, 0.39041, -0.04501, 0.83112,
 12:16:47.778,e3:ca:2d:fd:e0:8c, 2015-01-01 00:03:18.110, 1.014, -0.112, -0.035, -0.122, 0.183, 0, -109.089, -83.419, -105.134, -26.833, -6.747, -5.460, 23.54, 0.16763, 0.67603, -0.24872, 0.67297,
 12:16:47.778,e3:ca:2d:fd:e0:8c, 2015-01-01 00:03:18.110, 1.014, -0.112, -0.035, -0.122, 0.122, 0, -109.056, -83.419, -105.156, -26.833, -6.747, -5.460, 23.54, 0.16763, 0.67603, -0.24872, 0.67297,
 12:16:47.781,f6:90:cc:01:6d:25, 2015-01-01 00:03:16.555, 0.926, 0.021, 0.343, 0.183, 0.061, -0.061, 3.647, -69.818, -165.652, -29.500, -11.353, -6.993, 26.13, 0.12039, -0.56424, -0.09729, -0.81088,
 12:16:47.781,f6:90:cc:01:6d:25, 2015-01-01 00:03:16.555, 0.925, 0.022, 0.342, 0.122, 0.061, 0, 3.647, -69.818, -165.674, -29.500, -11.353, -6.993, 26.13, 0.12039, -0.56424, -0.09729, -0.81088,
 12:16:47.801,ed:40:fe:65:30:6c, 2015-01-01 00:03:17.285, 0.52, 0.163, 0.838, -0.305, 0.305, 0.183, 10.371, -31.624, -136.868, -16.680, -12.667, -5.787, 22.72, 0.37564, -0.22058, -0.18106, -0.88168,
 12:16:47.801,ed:40:fe:65:30:6c, 2015-01-01 00:03:17.285, 0.517, 0.164, 0.84, -0.305, 0.244, 0.122, 10.371, -31.613, -136.873, -16.680, -12.667, -5.787, 22.72, 0.37564, -0.22058, -0.18106, -0.88168,
 12:16:47.802,e3:ca:2d:fd:e0:8c, 2015-01-01 00:03:18.110, 1.014, -0.111, -0.035, -0.122, 0.122, 0, -109.034, -83.419, -105.189, -26.913, -7.433, -6.147, 23.54, 0.16763, 0.67603, -0.24872, 0.67297,
 12:16:47.802,e3:ca:2d:fd:e0:8c, 2015-01-01 00:03:18.110, 1.014, -0.11, -0.036, -0.061, 0.183, 0, -109.001, -83.419, -105.222, -26.913, -7.433, -6.147, 23.54, 0.16763, 0.67603, -0.24872, 0.67297,
 12:16:47.803,ed:35:33:d3:6c:f8, 2015-01-01 00:03:17.330, 0.678, 0.236, 0.688, -0.244, 0, -0.122, 18.572, -43.187, 121.976, -16.380, -14.853, -26.727, 28.95, 0.39328, 0.39041, -0.04501, 0.83112,
 12:16:47.803,ed:35:33:d3:6c:f8, 2015-01-01 00:03:17.330, 0.677, 0.237, 0.689, -0.061, -0.183, 0, 18.572, -43.187, 121.981, -16.380, -14.853, -26.727, 28.95, 0.39328, 0.39041, -0.04501, 0.83112,
 12:16:47.804,f6:90:cc:01:6d:25, 2015-01-01 00:03:16.845, 0.925, 0.022, 0.342, 0.061, 0.061, 0, 3.647, -69.818, -165.69, -29.500, -11.353, -6.993, 26.13, 0.12039, -0.56424, -0.09729, -0.81088,
 12:16:47.804,f6:90:cc:01:6d:25, 2015-01-01 00:03:16.845, 0.926, 0.021, 0.343, 0.122, 0, 0, 3.647, -69.813, -165.712, -29.500, -11.353, -6.993, 26.13, 0.12039, -0.56424, -0.09729, -0.81088,
 12:16:47.824,ed:40:fe:65:30:6c, 2015-01-01 00:03:17.285, 0.519, 0.164, 0.841, 0, 0.244, 0.366, 10.371, -31.608, -136.879, -16.680, -12.667, -5.787, 22.72, 0.37564, -0.22058, -0.18106, -0.88168,
 12:16:47.824,ed:40:fe:65:30:6c, 2015-01-01 00:03:17.285, 0.523, 0.165, 0.839, 0.061, 0, 0.488, 10.371, -31.602, -136.879, -16.680, -12.667, -5.787, 22.72, 0.37564, -0.22058, -0.18106, -0.88168,
 12:16:47.826,ed:35:33:d3:6c:f8, 2015-01-01 00:03:17.665, 0.679, 0.238, 0.691, 0.122, 0, 0.122, 18.578, -43.187, 121.987, -16.380, -14.853, -26.727, 28.95, 0.39328, 0.39041, -0.04501, 0.83112,
 12:16:47.826,ed:35:33:d3:6c:f8, 2015-01-01 00:03:17.665, 0.681, 0.239, 0.688, 0.183, -0.061, 0.305, 18.583, -43.187, 121.998, -16.380, -14.853, -26.727, 28.95, 0.39328, 0.39041, -0.04501, 0.83112,
 12:16:47.846,e3:ca:2d:fd:e0:8c, 2015-01-01 00:03:18.110, 1.015, -0.11, -0.037, -0.061, 0.122, 0, -108.968, -83.419, -105.287, -26.913, -7.433, -6.147, 23.54, 0.16763, 0.67603, -0.24872, 0.67297,
 12:16:47.846,e3:ca:2d:fd:e0:8c, 2015-01-01 00:03:18.110, 1.014, -0.11, -0.037, -0.061, 0.061, 0, -108.94, -83.419, -105.331, -26.913, -7.433, -6.147, 23.54, 0.16763, 0.67603, -0.24872, 0.67297,
 12:16:47.849,f6:90:cc:01:6d:25, 2015-01-01 00:03:16.845, 0.927, 0.023, 0.343, 0.244, -0.122, 0, 3.647, -69.813, -165.734, -29.500, -11.353, -6.993, 26.13, 0.12039, -0.56424, -0.09729, -0.81088,
 12:16:47.849,f6:90:cc:01:6d:25, 2015-01-01 00:03:16.845, 0.927, 0.025, 0.34, 0.183, -0.122, 0, 3.653, -69.818, -165.751, -29.500, -11.353, -6.993, 26.13, 0.12039, -0.56424, -0.09729, -0.81088,
 12:16:47.870,ed:35:33:d3:6c:f8, 2015-01-01 00:03:17.665, 0.68, 0.234, 0.684, 0.122, -0.366, 0.549, 18.583, -43.187, 122.003, -16.380, -14.853, -26.727, 28.95, 0.39328, 0.39041, -0.04501, 0.83112,
 12:16:47.870,ed:35:33:d3:6c:f8, 2015-01-01 00:03:17.665, 0.682, 0.235, 0.682, -0.427, -0.183, 0, 18.583, -43.198, 122.009, -16.380, -14.853, -26.727, 28.95, 0.39328, 0.39041, -0.04501, 0.83112,
 12:16:47.892,ed:40:fe:65:30:6c, 2015-01-01 00:03:17.285, 0.524, 0.164, 0.838, 0, 0, 0.488, 10.377, -31.602, -136.879, -16.680, -12.667, -5.787, 22.72, 0.37564, -0.22058, -0.18106, -0.88168,
 12:16:47.892,ed:40:fe:65:30:6c, 2015-01-01 00:03:17.285, 0.522, 0.164, 0.834, -0.427, 0.122, 0.183, 10.371, -31.597, -136.884, -16.680, -12.667, -5.787, 22.72, 0.37564, -0.22058, -0.18106, -0.88168,
 12:16:47.896,f6:90:cc:01:6d:25, 2015-01-01 00:03:16.845, 0.928, 0.025, 0.34, 0, 0, 0, 3.653, -69.818, -165.762, -29.500, -11.353, -6.993, 26.13, 0.12039, -0.56424, -0.09729, -0.81088,
 12:16:47.896,f6:90:cc:01:6d:25, 2015-01-01 00:03:16.845, 0.929, 0.023, 0.341, 0.061, 0, 0, 3.658, -69.813, -165.773, -29.500, -11.353, -6.993, 26.13, 0.12039, -0.56424, -0.09729, -0.81088,
 12:16:47.914,ed:40:fe:65:30:6c, 2015-01-01 00:03:17.285, 0.524, 0.164, 0.838, -0.183, 0.366, 0.061, 10.371, -31.591, -136.89, -17.100, -12.533, -6.387, 22.72, 0.37564, -0.22058, -0.18106, -0.88168,
 12:16:47.914,ed:40:fe:65:30:6c, 2015-01-01 00:03:17.285, 0.528, 0.158, 0.836, 0.061, 0.305, 0, 10.382, -31.58, -136.901, -17.100, -12.533, -6.387, 22.72, 0.37564, -0.22058, -0.18106, -0.88168,
 12:16:47.915,ed:35:33:d3:6c:f8, 2015-01-01 00:03:17.665, 0.684, 0.235, 0.688, 0, 0.061, 0, 18.578, -43.198, 121.992, -16.380, -14.853, -26.727, 28.95, 0.39328, 0.39041, -0.04501, 0.83112,
 12:16:47.915,ed:35:33:d3:6c:f8, 2015-01-01 00:03:17.665, 0.683, 0.229, 0.681, -0.305, 0.061, -0.122, 18.583, -43.193, 121.992, -16.380, -14.853, -26.727, 28.95, 0.39328, 0.39041, -0.04501, 0.83112,
 12:16:47.935,e3:ca:2d:fd:e0:8c, 2015-01-01 00:03:18.110, 1.015, -0.11, -0.038, 0, 0.061, 0, -108.924, -83.419, -105.364, -26.913, -7.433, -6.147, 23.54, 0.16745, 0.67584, -0.24854, 0.67328,
 12:16:47.935,e3:ca:2d:fd:e0:8c, 2015-01-01 00:03:18.110, 1.016, -0.111, -0.037, 0.061, 0.061, 0, -108.907, -83.419, -105.397, -26.913, -7.433, -6.147, 23.54, 0.16745, 0.67584, -0.24854, 0.67328,
 12:16:47.940,f6:90:cc:01:6d:25, 2015-01-01 00:03:16.845, 0.929, 0.02, 0.338, 0.122, 0, 0, 3.658, -69.813, -165.789, -29.500, -11.353, -6.993, 26.13, 0.12039, -0.56424, -0.09729, -0.81088,
 12:16:47.940,f6:90:cc:01:6d:25, 2015-01-01 00:03:16.845, 0.927, 0.024, 0.337, -0.122, 0.244, 0, 3.664, -69.813, -165.811, -29.500, -11.353, -6.993, 26.13, 0.12039, -0.56424, -0.09729, -0.81088,
 12:16:47.958,e3:ca:2d:fd:e0:8c, 2015-01-01 00:03:18.445, 1.016, -0.111, -0.038, 0.061, 0, 0, -108.896, -83.419, -105.43, -26.913, -7.433, -6.147, 23.54, 0.16745, 0.67584, -0.24854, 0.67328,
 12:16:47.958,e3:ca:2d:fd:e0:8c, 2015-01-01 00:03:18.445, 1.014, -0.111, -0.038, 0.122, -0.061, 0, -108.891, -83.419, -105.447, -26.913, -7.433, -6.147, 23.54, 0.16745, 0.67584, -0.24854, 0.67328,
 12:16:47.960,ed:35:33:d3:6c:f8, 2015-01-01 00:03:17.665, 0.684, 0.233, 0.679, -1.16, -0.244, -0.61, 18.583, -43.193, 121.987, -16.380, -14.853, -26.727, 28.95, 0.39328, 0.39041, -0.04501, 0.83112,
 12:16:47.960,ed:35:33:d3:6c:f8, 2015-01-01 00:03:17.665, 0.688, 0.232, 0.68, -1.221, 0, -0.549, 18.572, -43.193, 121.976, -16.380, -14.853, -26.727, 28.95, 0.39328, 0.39041, -0.04501, 0.83112,
 12:16:47.981,e3:ca:2d:fd:e0:8c, 2015-01-01 00:03:18.445, 1.016, -0.11, -0.038, 0.305, -0.122, 0, -108.896, -83.419, -105.458, -26.913, -7.433, -6.147, 23.54, 0.16745, 0.67584, -0.24854, 0.67328,
 12:16:47.981,e3:ca:2d:fd:e0:8c, 2015-01-01 00:03:18.445, 1.018, -0.111, -0.04, 0.183, 0.061, 0, -108.896, -83.419, -105.474, -26.913, -7.433, -6.147, 23.54, 0.16745, 0.67584, -0.24854, 0.67328,
 12:16:47.982,ed:40:fe:65:30:6c, 2015-01-01 00:03:17.285, 0.527, 0.161, 0.834, -0.305, 0, -0.122, 10.382, -31.58, -136.917, -17.100, -12.533, -6.387, 22.72, 0.37564, -0.22058, -0.18106, -0.88168,
 12:16:47.983,ed:40:fe:65:30:6c, 2015-01-01 00:03:17.285, 0.526, 0.164, 0.834, -0.732, 0.488, -0.549, 10.382, -31.569, -136.939, -17.100, -12.533, -6.387, 22.72, 0.37564, -0.22058, -0.18106, -0.88168,
 12:16:47.984,f6:90:cc:01:6d:25, 2015-01-01 00:03:16.845, 0.931, 0.025, 0.336, -0.061, 0.427, 0, 3.658, -69.807, -165.833, -29.500, -11.353, -6.993, 26.13, 0.12039, -0.56424, -0.09729, -0.81088,
 12:16:47.984,f6:90:cc:01:6d:25, 2015-01-01 00:03:16.845, 0.931, 0.019, 0.341, 0, 0.427, 0, 3.658, -69.796, -165.85, -29.500, -11.353, -6.993, 26.13, 0.12039, -0.56424, -0.09729, -0.81088,
 12:16:48.004,e3:ca:2d:fd:e0:8c, 2015-01-01 00:03:18.445, 1.015, -0.113, -0.04, 0, 0, 0, -108.885, -83.419, -105.485, -26.913, -7.433, -6.147, 23.54, 0.16745, 0.67584, -0.24854, 0.67328,
 12:16:48.004,e3:ca:2d:fd:e0:8c, 2015-01-01 00:03:18.445, 1.016, -0.112, -0.04, 0, 0, 0, -108.885, -83.419, -105.485, -26.913, -7.433, -6.147, 23.54, 0.16745, 0.67584, -0.24854, 0.67328,
 12:16:48.004,ed:40:fe:65:30:6c, 2015-01-01 00:03:17.285, 0.523, 0.161, 0.837, -0.671, 0.61, -0.793, 10.382, -31.553, -136.961, -17.100, -12.533, -6.387, 22.72, 0.37439, -0.21997, -0.18033, -0.88251,
 12:16:48.004,ed:40:fe:65:30:6c, 2015-01-01 00:03:17.285, 0.521, 0.162, 0.843, -0.305, 0.366, -0.488, 10.388, -31.547, -136.983, -17.100, -12.533, -6.387, 22.72, 0.37439, -0.21997, -0.18033, -0.88251,
 12:16:48.006,ed:35:33:d3:6c:f8, 2015-01-01 00:03:17.665, 0.683, 0.236, 0.688, -0.916, 0, -0.916, 18.567, -43.193, 121.976, -16.380, -14.853, -26.727, 28.95, 0.39328, 0.39041, -0.04501, 0.83112,
 12:16:48.006,ed:35:33:d3:6c:f8, 2015-01-01 00:03:17.665, 0.682, 0.239, 0.694, -0.305, 0.244, 0, 18.567, -43.187, 121.959, -16.380, -14.853, -26.727, 28.95, 0.39328, 0.39041, -0.04501, 0.83112,
 12:16:48.007,f6:90:cc:01:6d:25, 2015-01-01 00:03:16.845, 0.928, 0.017, 0.338, -0.244, 0.305, 0, 3.658, -69.791, -165.85, -29.947, -11.147, -7.707, 26.13, 0.12039, -0.56424, -0.09729, -0.81088,
 12:16:48.007,f6:90:cc:01:6d:25, 2015-01-01 00:03:16.845, 0.928, 0.019, 0.337, -0.488, 0.183, 0, 3.647, -69.785, -165.85, -29.947, -11.147, -7.707, 26.13, 0.12039, -0.56424, -0.09729, -0.81088,
 12:16:48.028,ed:35:33:d3:6c:f8, 2015-01-01 00:03:17.665, 0.682, 0.236, 0.694, -0.488, 0, 0.061, 18.561, -43.187, 121.959, -16.827, -14.273, -26.247, 28.95, 0.39328, 0.39041, -0.04501, 0.83112,
 12:16:48.028,ed:35:33:d3:6c:f8, 2015-01-01 00:03:17.665, 0.677, 0.233, 0.692, -0.183, -0.427, 0.122, 18.556, -43.187, 121.959, -16.827, -14.273, -26.247, 28.95, 0.39328, 0.39041, -0.04501, 0.83112,
 12:16:48.048,e3:ca:2d:fd:e0:8c, 2015-01-01 00:03:18.445, 1.015, -0.113, -0.04, 0, 0, 0, -108.891, -83.419, -105.48, -26.913, -7.433, -6.147, 23.54, 0.16745, 0.67584, -0.24854, 0.67328,
 12:16:48.048,e3:ca:2d:fd:e0:8c, 2015-01-01 00:03:18.445, 1.014, -0.112, -0.039, -0.122, 0, 0, -108.896, -83.419, -105.48, -26.913, -7.433, -6.147, 23.54, 0.16745, 0.67584, -0.24854, 0.67328,
 12:16:48.049,ed:40:fe:65:30:6c, 2015-01-01 00:03:17.285, 0.521, 0.163, 0.846, -0.305, 0.244, -0.061, 10.388, -31.542, -136.994, -17.100, -12.533, -6.387, 22.72, 0.37439, -0.21997, -0.18033, -0.88251,
 12:16:48.049,ed:40:fe:65:30:6c, 2015-01-01 00:03:17.285, 0.518, 0.161, 0.843, -0.366, -0.061, 0.061, 10.388, -31.542, -137.005, -17.100, -12.533, -6.387, 22.72, 0.37439, -0.21997, -0.18033, -0.88251,
 12:16:48.051,f6:90:cc:01:6d:25, 2015-01-01 00:03:16.845, 0.925, 0.02, 0.34, -0.183, 0.122, 0, 3.642, -69.785, -165.866, -29.947, -11.147, -7.707, 26.13, 0.12039, -0.56424, -0.09729, -0.81088,
 12:16:48.051,f6:90:cc:01:6d:25, 2015-01-01 00:03:16.845, 0.924, 0.02, 0.342, 0, 0, 0, 3.636, -69.785, -165.861, -29.947, -11.147, -7.707, 26.13, 0.12039, -0.56424, -0.09729, -0.81088,
 12:16:48.072,ed:40:fe:65:30:6c, 2015-01-01 00:03:17.665, 0.518, 0.159, 0.843, 0, -0.122, 0.122, 10.393, -31.542, -137.01, -17.100, -12.533, -6.387, 22.72, 0.37439, -0.21997, -0.18033, -0.88251,
 12:16:48.072,ed:40:fe:65:30:6c, 2015-01-01 00:03:17.665, 0.52, 0.16, 0.838, -0.122, -0.183, 0, 10.399, -31.542, -137.021, -17.100, -12.533, -6.387, 22.72, 0.37439, -0.21997, -0.18033, -0.88251,
 12:16:48.073,ed:35:33:d3:6c:f8, 2015-01-01 00:03:17.665, 0.678, 0.229, 0.691, 0.061, -0.549, 0.061, 18.561, -43.198, 121.954, -16.827, -14.273, -26.247, 28.95, 0.39328, 0.39041, -0.04501, 0.83112,
 12:16:48.073,ed:35:33:d3:6c:f8, 2015-01-01 00:03:17.665, 0.679, 0.232, 0.686, 0, -0.488, -0.427, 18.567, -43.204, 121.954, -16.827, -14.273, -26.247, 28.95, 0.39328, 0.39041, -0.04501, 0.83112,
 12:16:48.093,e3:ca:2d:fd:e0:8c, 2015-01-01 00:03:18.445, 1.012, -0.112, -0.038, -0.061, 0.061, 0, -108.896, -83.419, -105.485, -26.913, -7.433, -6.147, 23.54, 0.16745, 0.67584, -0.24854, 0.67328,
 12:16:48.093,e3:ca:2d:fd:e0:8c, 2015-01-01 00:03:18.445, 1.013, -0.112, -0.036, -0.122, 0.122, 0, -108.885, -83.419, -105.496, -26.913, -7.433, -6.147, 23.54, 0.16745, 0.67584, -0.24854, 0.67328,
 12:16:48.097,f6:90:cc:01:6d:25, 2015-01-01 00:03:16.845, 0.924, 0.02, 0.342, 0, -0.122, 0, 3.636, -69.791, -165.85, -29.947, -11.147, -7.707, 26.13, 0.1189, -0.56418, -0.09619, -0.81128,
 12:16:48.097,f6:90:cc:01:6d:25, 2015-01-01 00:03:16.845, 0.925, 0.02, 0.341, -0.122, -0.061, 0, 3.631, -69.791, -165.839, -29.947, -11.147, -7.707, 26.13, 0.1189, -0.56418, -0.09619, -0.81128,
 12:16:48.118,ed:40:fe:65:30:6c, 2015-01-01 00:03:17.665, 0.52, 0.161, 0.836, -0.427, -0.122, -0.061, 10.393, -31.542, -137.032, -17.100, -12.533, -6.387, 22.72, 0.37439, -0.21997, -0.18033, -0.88251,
 12:16:48.118,ed:40:fe:65:30:6c, 2015-01-01 00:03:17.665, 0.52, 0.161, 0.837, -0.671, -0.061, -0.061, 10.388, -31.542, -137.043, -17.100, -12.533, -6.387, 22.72, 0.37439, -0.21997, -0.18033, -0.88251,
 12:16:48.138,e3:ca:2d:fd:e0:8c, 2015-01-01 00:03:18.445, 1.014, -0.112, -0.033, -0.183, 0.244, 0, -108.858, -83.419, -105.524, -26.913, -7.433, -6.147, 23.54, 0.16745, 0.67584, -0.24854, 0.67328,
 12:16:48.138,e3:ca:2d:fd:e0:8c, 2015-01-01 00:03:18.445, 1.014, -0.111, -0.032, -0.305, 0.183, 0, -108.82, -83.419, -105.562, -26.913, -7.433, -6.147, 23.54, 0.16745, 0.67584, -0.24854, 0.67328,
 12:16:48.140,ed:35:33:d3:6c:f8, 2015-01-01 00:03:17.665, 0.679, 0.233, 0.685, -0.244, -0.854, -0.244, 18.578, -43.215, 121.948, -16.827, -14.273, -26.247, 28.95, 0.39319, 0.39047, -0.0451, 0.83115,
 12:16:48.140,ed:35:33:d3:6c:f8, 2015-01-01 00:03:17.665, 0.679, 0.233, 0.684, -0.366, -0.854, -0.183, 18.583, -43.226, 121.948, -16.827, -14.273, -26.247, 28.95, 0.39319, 0.39047, -0.0451, 0.83115,
 12:16:48.142,f6:90:cc:01:6d:25, 2015-01-01 00:03:17.160, 0.926, 0.019, 0.343, -0.244, 0, 0, 3.625, -69.791, -165.844, -29.947, -11.147, -7.707, 26.13, 0.1189, -0.56418, -0.09619, -0.81128,
 12:16:48.142,f6:90:cc:01:6d:25, 2015-01-01 00:03:17.160, 0.927, 0.021, 0.345, -0.061, 0.122, 0, 3.62, -69.785, -165.822, -29.947, -11.147, -7.707, 26.13, 0.1189, -0.56418, -0.09619, -0.81128,
 12:16:48.160,e3:ca:2d:fd:e0:8c, 2015-01-01 00:03:18.445, 1.015, -0.111, -0.034, -0.244, 0.122, -0.305, -108.803, -83.419, -105.573, -26.707, -7.080, -6.387, 23.54, 0.16745, 0.67584, -0.24854, 0.67328,
 12:16:48.160,e3:ca:2d:fd:e0:8c, 2015-01-01 00:03:18.445, 1.015, -0.111, -0.035, -0.183, 0.061, -0.244, -108.792, -83.425, -105.573, -26.707, -7.080, -6.387, 23.54, 0.16745, 0.67584, -0.24854, 0.67328,
 12:16:48.161,ed:40:fe:65:30:6c, 2015-01-01 00:03:17.665, 0.518, 0.162, 0.837, -0.549, 0, -0.061, 10.382, -31.542, -137.054, -17.100, -12.533, -6.387, 22.72, 0.37439, -0.21997, -0.18033, -0.88251,
 12:16:48.161,ed:40:fe:65:30:6c, 2015-01-01 00:03:17.665, 0.519, 0.163, 0.841, -0.183, 0.183, -0.061, 10.388, -31.536, -137.065, -17.100, -12.533, -6.387, 22.72, 0.37439, -0.21997, -0.18033, -0.88251,
 12:16:48.164,ed:35:33:d3:6c:f8, 2015-01-01 00:03:18.000, 0.68, 0.234, 0.686, -0.183, -0.671, -0.244, 18.589, -43.242, 121.954, -16.827, -14.273, -26.247, 28.95, 0.39319, 0.39047, -0.0451, 0.83115,
 12:16:48.164,ed:35:33:d3:6c:f8, 2015-01-01 00:03:18.000, 0.682, 0.235, 0.689, 0, -0.61, -0.183, 18.594, -43.248, 121.965, -16.827, -14.273, -26.247, 28.95, 0.39319, 0.39047, -0.0451, 0.83115,
 12:16:48.185,ed:35:33:d3:6c:f8, 2015-01-01 00:03:18.000, 0.679, 0.235, 0.688, 0, -0.549, -0.183, 18.605, -43.259, 121.976, -16.827, -14.273, -26.247, 28.95, 0.39319, 0.39047, -0.0451, 0.83115,
 12:16:48.185,ed:35:33:d3:6c:f8, 2015-01-01 00:03:18.000, 0.681, 0.233, 0.684, -0.305, -0.732, -0.183, 18.611, -43.27, 121.976, -16.827, -14.273, -26.247, 28.95, 0.39319, 0.39047, -0.0451, 0.83115,
 12:16:48.186,f6:90:cc:01:6d:25, 2015-01-01 00:03:17.160, 0.927, 0.023, 0.345, 0, 0.122, 0, 3.62, -69.785, -165.8, -29.947, -11.147, -7.707, 26.13, 0.1189, -0.56418, -0.09619, -0.81128,
 12:16:48.186,f6:90:cc:01:6d:25, 2015-01-01 00:03:17.160, 0.927, 0.023, 0.344, 0.061, 0.122, 0, 3.615, -69.78, -165.784, -29.947, -11.147, -7.707, 26.13, 0.1189, -0.56418, -0.09619, -0.81128,
 12:16:48.205,e3:ca:2d:fd:e0:8c, 2015-01-01 00:03:18.445, 1.014, -0.11, -0.035, -0.183, 0, -0.244, -108.792, -83.43, -105.562, -26.707, -7.080, -6.387, 23.54, 0.16745, 0.67584, -0.24854, 0.67328,
 12:16:48.205,e3:ca:2d:fd:e0:8c, 2015-01-01 00:03:18.445, 1.015, -0.109, -0.036, -0.183, -0.061, -0.183, -108.803, -83.436, -105.546, -26.707, -7.080, -6.387, 23.54, 0.16745, 0.67584, -0.24854, 0.67328,
 12:16:48.207,ed:40:fe:65:30:6c, 2015-01-01 00:03:17.665, 0.52, 0.164, 0.842, -0.061, 0.366, -0.122, 10.393, -31.525, -137.076, -17.100, -12.533, -6.387, 22.72, 0.37439, -0.21997, -0.18033, -0.88251,
 12:16:48.207,ed:40:fe:65:30:6c, 2015-01-01 00:03:17.665, 0.519, 0.163, 0.839, -0.305, 0.305, -0.122, 10.393, -31.514, -137.087, -17.100, -12.533, -6.387, 22.72, 0.37439, -0.21997, -0.18033, -0.88251,
 12:16:48.208,f6:90:cc:01:6d:25, 2015-01-01 00:03:17.160, 0.924, 0.024, 0.343, 0, 0.061, 0, 3.615, -69.78, -165.778, -29.947, -11.147, -7.707, 26.13, 0.1189, -0.56418, -0.09619, -0.81128,
 12:16:48.208,f6:90:cc:01:6d:25, 2015-01-01 00:03:17.160, 0.926, 0.025, 0.34, 0.122, 0.122, 0, 3.62, -69.774, -165.784, -29.947, -11.147, -7.707, 26.13, 0.1189, -0.56418, -0.09619, -0.81128,
 12:16:48.229,ed:40:fe:65:30:6c, 2015-01-01 00:03:17.665, 0.52, 0.163, 0.837, -0.61, 0.305, -0.366, 10.393, -31.503, -137.104, -17.100, -12.533, -6.387, 22.72, 0.37439, -0.21997, -0.18033, -0.88251,
 12:16:48.229,ed:40:fe:65:30:6c, 2015-01-01 00:03:17.665, 0.519, 0.163, 0.838, -0.305, 0.366, -0.427, 10.399, -31.492, -137.12, -17.100, -12.533, -6.387, 22.72, 0.37439, -0.21997, -0.18033, -0.88251,
 12:16:48.231,ed:35:33:d3:6c:f8, 2015-01-01 00:03:18.000, 0.681, 0.234, 0.685, -0.366, -0.61, -0.61, 18.616, -43.275, 121.965, -16.827, -14.273, -26.247, 28.95, 0.39319, 0.39047, -0.0451, 0.83115,
 12:16:48.231,ed:35:33:d3:6c:f8, 2015-01-01 00:03:18.000, 0.682, 0.237, 0.686, 0.244, -0.916, -0.488, 18.633, -43.286, 121.926, -16.827, -14.273, -26.247, 28.95, 0.39319, 0.39047, -0.0451, 0.83115,
 12:16:48.255,f6:90:cc:01:6d:25, 2015-01-01 00:03:17.160, 0.926, 0.023, 0.341, 0, 0.061, 0, 3.62, -69.769, -165.784, -29.947, -11.147, -7.707, 26.13, 0.1189, -0.56418, -0.09619, -0.81128,
 12:16:48.255,f6:90:cc:01:6d:25, 2015-01-01 00:03:17.160, 0.928, 0.022, 0.339, -0.061, 0.061, 0, 3.62, -69.769, -165.778, -29.947, -11.147, -7.707, 26.13, 0.1189, -0.56418, -0.09619, -0.81128,
 12:16:48.273,e3:ca:2d:fd:e0:8c, 2015-01-01 00:03:18.445, 1.015, -0.109, -0.037, -0.122, 0.061, -0.122, -108.803, -83.436, -105.535, -26.707, -7.080, -6.387, 23.54, 0.168, 0.67557, -0.24893, 0.67328,
 12:16:48.274,e3:ca:2d:fd:e0:8c, 2015-01-01 00:03:18.445, 1.016, -0.11, -0.039, -0.061, 0, -0.061, -108.798, -83.441, -105.535, -26.707, -7.080, -6.387, 23.54, 0.168, 0.67557, -0.24893, 0.67328,
 12:16:48.275,ed:35:33:d3:6c:f8, 2015-01-01 00:03:18.000, 0.686, 0.238, 0.686, 0.061, -0.793, -0.305, 18.649, -43.297, 121.882, -16.827, -14.273, -26.247, 28.95, 0.39319, 0.39047, -0.0451, 0.83115,
 12:16:48.275,ed:35:33:d3:6c:f8, 2015-01-01 00:03:18.000, 0.688, 0.237, 0.683, -0.305, -0.671, -0.366, 18.666, -43.308, 121.86, -16.827, -14.273, -26.247, 28.95, 0.39319, 0.39047, -0.0451, 0.83115,
 12:16:48.275,ed:40:fe:65:30:6c, 2015-01-01 00:03:17.665, 0.521, 0.164, 0.84, -0.122, 0.305, -0.366, 10.404, -31.487, -137.137, -17.100, -12.533, -6.387, 22.72, 0.37439, -0.21997, -0.18033, -0.88251,
 12:16:48.275,ed:40:fe:65:30:6c, 2015-01-01 00:03:17.665, 0.525, 0.163, 0.839, -0.244, 0.122, -0.244, 10.41, -31.481, -137.153, -17.100, -12.533, -6.387, 22.72, 0.37439, -0.21997, -0.18033, -0.88251,
 12:16:48.295,e3:ca:2d:fd:e0:8c, 2015-01-01 00:03:18.800, 1.017, -0.11, -0.039, 0, 0.061, 0, -108.792, -83.441, -105.535, -26.707, -7.080, -6.387, 23.54, 0.168, 0.67557, -0.24893, 0.67328,
 12:16:48.295,e3:ca:2d:fd:e0:8c, 2015-01-01 00:03:18.800, 1.016, -0.11, -0.039, 0, 0.061, 0, -108.776, -83.441, -105.54, -26.707, -7.080, -6.387, 23.54, 0.168, 0.67557, -0.24893, 0.67328,
 12:16:48.299,f6:90:cc:01:6d:25, 2015-01-01 00:03:17.160, 0.93, 0.022, 0.339, -0.061, 0, 0, 3.62, -69.769, -165.773, -29.947, -11.147, -7.707, 26.13, 0.1189, -0.56418, -0.09619, -0.81128,
 12:16:48.299,f6:90:cc:01:6d:25, 2015-01-01 00:03:17.160, 0.929, 0.023, 0.339, 0, 0, 0, 3.625, -69.769, -165.767, -29.947, -11.147, -7.707, 26.13, 0.1189, -0.56418, -0.09619, -0.81128,
 12:16:48.318,e3:ca:2d:fd:e0:8c, 2015-01-01 00:03:18.800, 1.015, -0.111, -0.038, 0, 0, -0.061, -108.776, -83.441, -105.546, -26.707, -7.080, -6.387, 23.54, 0.168, 0.67557, -0.24893, 0.67328,
 12:16:48.318,e3:ca:2d:fd:e0:8c, 2015-01-01 00:03:18.800, 1.015, -0.112, -0.038, 0, 0, 0, -108.776, -83.441, -105.54, -26.707, -7.080, -6.387, 23.54, 0.168, 0.67557, -0.24893, 0.67328,
 12:16:48.342,ed:40:fe:65:30:6c, 2015-01-01 00:03:17.665, 0.524, 0.164, 0.838, -0.549, 0, -0.244, 10.41, -31.476, -137.164, -17.147, -12.500, -6.220, 22.72, 0.37439, -0.21997, -0.18033, -0.88251,
 12:16:48.342,ed:40:fe:65:30:6c, 2015-01-01 00:03:17.665, 0.52, 0.164, 0.839, -0.61, 0.122, -0.244, 10.41, -31.47, -137.181, -17.147, -12.500, -6.220, 22.72, 0.37439, -0.21997, -0.18033, -0.88251,
 12:16:48.343,ed:35:33:d3:6c:f8, 2015-01-01 00:03:18.000, 0.685, 0.238, 0.682, -0.305, -1.038, -0.061, 18.671, -43.319, 121.833, -16.827, -14.273, -26.247, 28.95, 0.39319, 0.39047, -0.0451, 0.83115,
 12:16:48.343,ed:35:33:d3:6c:f8, 2015-01-01 00:03:18.000, 0.683, 0.238, 0.685, -0.244, -0.793, -0.061, 18.677, -43.336, 121.822, -16.827, -14.273, -26.247, 28.95, 0.39319, 0.39047, -0.0451, 0.83115,
 12:16:48.344,f6:90:cc:01:6d:25, 2015-01-01 00:03:17.160, 0.928, 0.022, 0.339, 0, 0.061, 0, 3.625, -69.769, -165.756, -29.600, -11.173, -7.127, 26.13, 0.1189, -0.56418, -0.09619, -0.81128,
 12:16:48.344,f6:90:cc:01:6d:25, 2015-01-01 00:03:17.160, 0.926, 0.023, 0.34, 0, 0.061, 0, 3.625, -69.763, -165.751, -29.600, -11.173, -7.127, 26.13, 0.1189, -0.56418, -0.09619, -0.81128,
 12:16:48.363,e3:ca:2d:fd:e0:8c, 2015-01-01 00:03:18.800, 1.014, -0.112, -0.038, 0.061, 0, 0, -108.776, -83.441, -105.54, -26.707, -7.080, -6.387, 23.54, 0.168, 0.67557, -0.24893, 0.67328,
 12:16:48.363,e3:ca:2d:fd:e0:8c, 2015-01-01 00:03:18.800, 1.015, -0.112, -0.037, 0.061, 0.061, 0, -108.77, -83.441, -105.546, -26.707, -7.080, -6.387, 23.54, 0.168, 0.67557, -0.24893, 0.67328,
 12:16:48.364,ed:40:fe:65:30:6c, 2015-01-01 00:03:17.665, 0.519, 0.165, 0.84, -0.305, -0.061, -0.122, 10.41, -31.47, -137.192, -17.147, -12.500, -6.220, 22.72, 0.37271, -0.21957, -0.17987, -0.88342,
 12:16:48.364,ed:40:fe:65:30:6c, 2015-01-01 00:03:17.665, 0.52, 0.164, 0.84, -0.061, -0.183, 0, 10.415, -31.476, -137.203, -17.147, -12.500, -6.220, 22.72, 0.37271, -0.21957, -0.17987, -0.88342,
 12:16:48.366,ed:35:33:d3:6c:f8, 2015-01-01 00:03:18.000, 0.684, 0.239, 0.684, -0.061, -0.549, 0, 18.682, -43.352, 121.822, -16.773, -14.847, -26.360, 28.95, 0.39319, 0.39047, -0.0451, 0.83115,
 12:16:48.366,ed:35:33:d3:6c:f8, 2015-01-01 00:03:18.000, 0.684, 0.237, 0.684, -0.061, -0.183, -0.122, 18.688, -43.358, 121.822, -16.773, -14.847, -26.360, 28.95, 0.39319, 0.39047, -0.0451, 0.83115,
 12:16:48.367,f6:90:cc:01:6d:25, 2015-01-01 00:03:17.160, 0.927, 0.021, 0.342, 0.122, 0.061, 0, 3.631, -69.763, -165.745, -29.600, -11.173, -7.127, 26.13, 0.11969, -0.56396, -0.09671, -0.81128,
 12:16:48.367,f6:90:cc:01:6d:25, 2015-01-01 00:03:17.160, 0.927, 0.021, 0.342, 0.183, 0, 0, 3.636, -69.763, -165.74, -29.600, -11.173, -7.127, 26.13, 0.11969, -0.56396, -0.09671, -0.81128,
 12:16:48.408,e3:ca:2d:fd:e0:8c, 2015-01-01 00:03:18.800, 1.014, -0.111, -0.036, 0, 0, -0.061, -108.765, -83.441, -105.546, -26.707, -7.080, -6.387, 23.54, 0.168, 0.67557, -0.24893, 0.67328,
 12:16:48.408,e3:ca:2d:fd:e0:8c, 2015-01-01 00:03:18.800, 1.014, -0.111, -0.036, 0, 0, -0.061, -108.765, -83.441, -105.54, -26.707, -7.080, -6.387, 23.54, 0.168, 0.67557, -0.24893, 0.67328,
 12:16:48.410,ed:40:fe:65:30:6c, 2015-01-01 00:03:17.665, 0.521, 0.163, 0.839, -0.122, -0.183, 0.122, 10.421, -31.476, -137.208, -17.147, -12.500, -6.220, 22.72, 0.37271, -0.21957, -0.17987, -0.88342,
 12:16:48.410,ed:40:fe:65:30:6c, 2015-01-01 00:03:17.665, 0.521, 0.162, 0.838, -0.244, 0, 0, 10.426, -31.476, -137.214, -17.147, -12.500, -6.220, 22.72, 0.37271, -0.21957, -0.17987, -0.88342,
 12:16:48.411,ed:35:33:d3:6c:f8, 2015-01-01 00:03:18.000, 0.684, 0.233, 0.681, 0, -0.183, 0, 18.693, -43.363, 121.827, -16.773, -14.847, -26.360, 28.95, 0.39319, 0.39047, -0.0451, 0.83115,
 12:16:48.411,ed:35:33:d3:6c:f8, 2015-01-01 00:03:18.000, 0.683, 0.235, 0.681, -0.244, -0.061, -0.427, 18.704, -43.363, 121.822, -16.773, -14.847, -26.360, 28.95, 0.39319, 0.39047, -0.0451, 0.83115,
 12:16:48.413,f6:90:cc:01:6d:25, 2015-01-01 00:03:17.160, 0.926, 0.022, 0.342, 0.122, 0, 0, 3.642, -69.763, -165.734, -29.600, -11.173, -7.127, 26.13, 0.11969, -0.56396, -0.09671, -0.81128,
 12:16:48.413,f6:90:cc:01:6d:25, 2015-01-01 00:03:17.160, 0.926, 0.021, 0.342, 0, 0.122, 0, 3.642, -69.763, -165.729, -29.600, -11.173, -7.127, 26.13, 0.11969, -0.56396, -0.09671, -0.81128,
 12:16:48.432,ed:40:fe:65:30:6c, 2015-01-01 00:03:18.025, 0.52, 0.162, 0.838, -0.366, 0.183, -0.061, 10.426, -31.47, -137.225, -17.147, -12.500, -6.220, 22.72, 0.37271, -0.21957, -0.17987, -0.88342,
 12:16:48.432,ed:40:fe:65:30:6c, 2015-01-01 00:03:18.025, 0.518, 0.163, 0.838, -0.427, 0.061, 0, 10.421, -31.465, -137.23, -17.147, -12.500, -6.220, 22.72, 0.37271, -0.21957, -0.17987, -0.88342,
 12:16:48.433,ed:35:33:d3:6c:f8, 2015-01-01 00:03:18.000, 0.684, 0.238, 0.683, -0.305, 0.244, -0.183, 18.71, -43.363, 121.811, -16.773, -14.847, -26.360, 28.95, 0.39328, 0.39197, -0.04526, 0.83038,
 12:16:48.433,ed:35:33:d3:6c:f8, 2015-01-01 00:03:18.000, 0.683, 0.239, 0.684, -0.732, 0.427, 0, 18.704, -43.358, 121.811, -16.773, -14.847, -26.360, 28.95, 0.39328, 0.39197, -0.04526, 0.83038,
 12:16:48.457,f6:90:cc:01:6d:25, 2015-01-01 00:03:17.450, 0.927, 0.021, 0.342, -0.061, 0.122, 0, 3.642, -69.758, -165.723, -29.600, -11.173, -7.127, 26.13, 0.11969, -0.56396, -0.09671, -0.81128,
 12:16:48.457,f6:90:cc:01:6d:25, 2015-01-01 00:03:17.450, 0.927, 0.022, 0.342, 0, 0.183, 0, 3.642, -69.758, -165.718, -29.600, -11.173, -7.127, 26.13, 0.11969, -0.56396, -0.09671, -0.81128,
 12:16:48.476,e3:ca:2d:fd:e0:8c, 2015-01-01 00:03:18.800, 1.015, -0.111, -0.035, -0.061, 0.061, -0.061, -108.759, -83.441, -105.54, -26.707, -7.080, -6.387, 23.54, 0.168, 0.67557, -0.24893, 0.67328,
 12:16:48.476,e3:ca:2d:fd:e0:8c, 2015-01-01 00:03:18.800, 1.015, -0.111, -0.036, -0.122, 0.061, -0.061, -108.748, -83.447, -105.546, -26.707, -7.080, -6.387, 23.54, 0.168, 0.67557, -0.24893, 0.67328,
 12:16:48.476,ed:40:fe:65:30:6c, 2015-01-01 00:03:18.025, 0.521, 0.163, 0.842, -0.366, 0.061, 0.183, 10.421, -31.465, -137.236, -17.147, -12.500, -6.220, 22.72, 0.37271, -0.21957, -0.17987, -0.88342,
 12:16:48.476,ed:40:fe:65:30:6c, 2015-01-01 00:03:18.025, 0.52, 0.162, 0.84, -0.244, 0.183, 0, 10.415, -31.459, -137.241, -17.147, -12.500, -6.220, 22.72, 0.37271, -0.21957, -0.17987, -0.88342,
 12:16:48.478,ed:35:33:d3:6c:f8, 2015-01-01 00:03:18.000, 0.683, 0.236, 0.686, -0.549, 0.305, 0.244, 18.693, -43.347, 121.811, -16.773, -14.847, -26.360, 28.95, 0.39328, 0.39197, -0.04526, 0.83038,
 12:16:48.478,ed:35:33:d3:6c:f8, 2015-01-01 00:03:18.000, 0.684, 0.233, 0.685, -0.61, 0.427, 0, 18.682, -43.341, 121.816, -16.773, -14.847, -26.360, 28.95, 0.39328, 0.39197, -0.04526, 0.83038,
 12:16:48.499,e3:ca:2d:fd:e0:8c, 2015-01-01 00:03:18.800, 1.015, -0.111, -0.036, -0.061, 0.061, -0.061, -108.737, -83.447, -105.551, -26.653, -6.980, -6.413, 23.54, 0.168, 0.67557, -0.24893, 0.67328,
 12:16:48.499,e3:ca:2d:fd:e0:8c, 2015-01-01 00:03:18.800, 1.015, -0.11, -0.036, 0, 0, 0, -108.726, -83.447, -105.551, -26.653, -6.980, -6.413, 23.54, 0.168, 0.67557, -0.24893, 0.67328,
 12:16:48.502,f6:90:cc:01:6d:25, 2015-01-01 00:03:17.450, 0.927, 0.024, 0.343, 0, 0.122, 0, 3.642, -69.752, -165.707, -29.600, -11.173, -7.127, 26.13, 0.11969, -0.56396, -0.09671, -0.81128,
 12:16:48.502,f6:90:cc:01:6d:25, 2015-01-01 00:03:17.450, 0.926, 0.023, 0.342, 0, 0.061, 0, 3.642, -69.752, -165.701, -29.600, -11.173, -7.127, 26.13, 0.11969, -0.56396, -0.09671, -0.81128,
 12:16:48.521,ed:40:fe:65:30:6c, 2015-01-01 00:03:18.025, 0.519, 0.161, 0.839, -0.183, 0.244, -0.061, 10.421, -31.454, -137.247, -17.147, -12.500, -6.220, 22.72, 0.37271, -0.21957, -0.17987, -0.88342,
 12:16:48.521,ed:40:fe:65:30:6c, 2015-01-01 00:03:18.025, 0.519, 0.164, 0.839, -0.244, 0, 0, 10.421, -31.448, -137.252, -17.147, -12.500, -6.220, 22.72, 0.37271, -0.21957, -0.17987, -0.88342,
 12:16:48.523,ed:35:33:d3:6c:f8, 2015-01-01 00:03:18.335, 0.683, 0.234, 0.684, -0.427, 0.366, -0.183, 18.677, -43.336, 121.816, -16.773, -14.847, -26.360, 28.95, 0.39328, 0.39197, -0.04526, 0.83038,
 12:16:48.523,ed:35:33:d3:6c:f8, 2015-01-01 00:03:18.335, 0.682, 0.235, 0.685, -0.61, 0.183, 0, 18.671, -43.33, 121.822, -16.773, -14.847, -26.360, 28.95, 0.39328, 0.39197, -0.04526, 0.83038,
 12:16:48.544,e3:ca:2d:fd:e0:8c, 2015-01-01 00:03:18.800, 1.014, -0.111, -0.037, 0, 0, 0, -108.721, -83.447, -105.551, -26.653, -6.980, -6.413, 23.54, 0.168, 0.67557, -0.24893, 0.67328,
 12:16:48.544,e3:ca:2d:fd:e0:8c, 2015-01-01 00:03:18.800, 1.015, -0.111, -0.037, -0.122, 0, 0, -108.715, -83.447, -105.551, -26.653, -6.980, -6.413, 23.54, 0.168, 0.67557, -0.24893, 0.67328,
 12:16:48.545,ed:35:33:d3:6c:f8, 2015-01-01 00:03:18.335, 0.683, 0.238, 0.685, -0.427, 0, 0, 18.66, -43.33, 121.816, -16.773, -14.847, -26.360, 28.95, 0.39328, 0.39197, -0.04526, 0.83038,
 12:16:48.545,ed:35:33:d3:6c:f8, 2015-01-01 00:03:18.335, 0.684, 0.232, 0.684, -0.122, -0.366, 0.183, 18.66, -43.33, 121.805, -16.773, -14.847, -26.360, 28.95, 0.39328, 0.39197, -0.04526, 0.83038,
 12:16:48.547,f6:90:cc:01:6d:25, 2015-01-01 00:03:17.450, 0.925, 0.021, 0.341, 0, 0.061, 0, 3.642, -69.747, -165.696, -29.600, -11.173, -7.127, 26.13, 0.11969, -0.56396, -0.09671, -0.81128,
 12:16:48.547,f6:90:cc:01:6d:25, 2015-01-01 00:03:17.450, 0.926, 0.021, 0.341, 0, 0, 0, 3.647, -69.747, -165.69, -29.600, -11.173, -7.127, 26.13, 0.11969, -0.56396, -0.09671, -0.81128,
 12:16:48.565,e3:ca:2d:fd:e0:8c, 2015-01-01 00:03:18.800, 1.016, -0.111, -0.037, -0.061, 0.061, 0, -108.71, -83.447, -105.557, -26.653, -6.980, -6.413, 23.54, 0.1676, 0.67569, -0.24835, 0.67346,
 12:16:48.565,e3:ca:2d:fd:e0:8c, 2015-01-01 00:03:18.800, 1.016, -0.111, -0.037, 0, 0, 0, -108.699, -83.447, -105.557, -26.653, -6.980, -6.413, 23.54, 0.1676, 0.67569, -0.24835, 0.67346,
 12:16:48.566,ed:40:fe:65:30:6c, 2015-01-01 00:03:18.025, 0.522, 0.163, 0.841, -0.305, 0, 0.122, 10.421, -31.448, -137.263, -17.147, -12.500, -6.220, 22.72, 0.37271, -0.21957, -0.17987, -0.88342,
 12:16:48.566,ed:40:fe:65:30:6c, 2015-01-01 00:03:18.025, 0.522, 0.161, 0.839, -0.427, -0.061, 0, 10.421, -31.448, -137.269, -17.147, -12.500, -6.220, 22.72, 0.37271, -0.21957, -0.17987, -0.88342,
 12:16:48.569,f6:90:cc:01:6d:25, 2015-01-01 00:03:17.450, 0.928, 0.024, 0.341, 0.061, 0, 0, 3.647, -69.747, -165.685, -29.600, -11.173, -7.127, 26.13, 0.11969, -0.56396, -0.09671, -0.81128,
 12:16:48.569,f6:90:cc:01:6d:25, 2015-01-01 00:03:17.450, 0.928, 0.024, 0.342, 0, 0.061, 0, 3.647, -69.747, -165.679, -29.600, -11.173, -7.127, 26.13, 0.11969, -0.56396, -0.09671, -0.81128,
 12:16:48.590,ed:35:33:d3:6c:f8, 2015-01-01 00:03:18.335, 0.685, 0.232, 0.684, 0.671, -0.671, -0.488, 18.677, -43.341, 121.794, -16.773, -14.847, -26.360, 28.95, 0.39328, 0.39197, -0.04526, 0.83038,
 12:16:48.590,ed:35:33:d3:6c:f8, 2015-01-01 00:03:18.335, 0.683, 0.233, 0.68, -0.305, -0.977, -0.671, 18.699, -43.352, 121.783, -16.773, -14.847, -26.360, 28.95, 0.39328, 0.39197, -0.04526, 0.83038,
 12:16:48.611,e3:ca:2d:fd:e0:8c, 2015-01-01 00:03:18.800, 1.016, -0.11, -0.036, 0.061, -0.061, 0, -108.699, -83.447, -105.551, -26.653, -6.980, -6.413, 23.54, 0.1676, 0.67569, -0.24835, 0.67346,
 12:16:48.611,e3:ca:2d:fd:e0:8c, 2015-01-01 00:03:18.800, 1.015, -0.11, -0.037, 0, 0, 0, -108.699, -83.447, -105.546, -26.653, -6.980, -6.413, 23.54, 0.1676, 0.67569, -0.24835, 0.67346,
 12:16:48.611,ed:40:fe:65:30:6c, 2015-01-01 00:03:18.025, 0.52, 0.161, 0.838, -0.488, 0.061, -0.305, 10.421, -31.443, -137.274, -17.147, -12.500, -6.220, 22.72, 0.37271, -0.21957, -0.17987, -0.88342,
 12:16:48.611,ed:40:fe:65:30:6c, 2015-01-01 00:03:18.025, 0.519, 0.16, 0.839, -0.427, 0.244, -0.366, 10.421, -31.443, -137.291, -17.147, -12.500, -6.220, 22.72, 0.37271, -0.21957, -0.17987, -0.88342,
 12:16:48.614,f6:90:cc:01:6d:25, 2015-01-01 00:03:17.450, 0.926, 0.023, 0.341, -0.122, 0.061, 0, 3.647, -69.747, -165.674, -29.600, -11.173, -7.127, 26.13, 0.11969, -0.56396, -0.09671, -0.81128,
 12:16:48.614,f6:90:cc:01:6d:25, 2015-01-01 00:03:17.450, 0.926, 0.021, 0.341, -0.183, 0.183, 0, 3.647, -69.741, -165.668, -29.600, -11.173, -7.127, 26.13, 0.11969, -0.56396, -0.09671, -0.81128,
 12:16:48.655,e3:ca:2d:fd:e0:8c, 2015-01-01 00:03:19.135, 1.015, -0.11, -0.037, -0.122, 0, -0.061, -108.699, -83.447, -105.54, -26.653, -6.980, -6.413, 23.54, 0.1676, 0.67569, -0.24835, 0.67346,
 12:16:48.655,e3:ca:2d:fd:e0:8c, 2015-01-01 00:03:19.135, 1.015, -0.112, -0.036, -0.122, 0, -0.061, -108.699, -83.447, -105.54, -26.653, -6.980, -6.413, 23.54, 0.1676, 0.67569, -0.24835, 0.67346,
 12:16:48.656,ed:40:fe:65:30:6c, 2015-01-01 00:03:18.025, 0.519, 0.163, 0.84, -0.366, 0, -0.305, 10.421, -31.432, -137.307, -17.147, -12.500, -6.220, 22.72, 0.37271, -0.21957, -0.17987, -0.88342,
 12:16:48.656,ed:40:fe:65:30:6c, 2015-01-01 00:03:18.025, 0.519, 0.163, 0.842, -0.183, 0, -0.122, 10.426, -31.432, -137.318, -17.147, -12.500, -6.220, 22.72, 0.37271, -0.21957, -0.17987, -0.88342,
 12:16:48.659,f6:90:cc:01:6d:25, 2015-01-01 00:03:17.450, 0.927, 0.02, 0.342, -0.122, 0.244, 0, 3.642, -69.736, -165.663, -29.527, -11.180, -7.480, 26.13, 0.11969, -0.56396, -0.09671, -0.81128,
 12:16:48.659,f6:90:cc:01:6d:25, 2015-01-01 00:03:17.450, 0.928, 0.022, 0.344, 0, 0.183, 0, 3.642, -69.73, -165.657, -29.527, -11.180, -7.480, 26.13, 0.11969, -0.56396, -0.09671, -0.81128,
 12:16:48.678,e3:ca:2d:fd:e0:8c, 2015-01-01 00:03:19.135, 1.016, -0.111, -0.036, 0, 0, 0, -108.693, -83.447, -105.535, -26.653, -6.980, -6.413, 23.54, 0.1676, 0.67569, -0.24835, 0.67346,
 12:16:48.678,e3:ca:2d:fd:e0:8c, 2015-01-01 00:03:19.135, 1.015, -0.111, -0.036, 0, -0.061, 0, -108.699, -83.447, -105.529, -26.653, -6.980, -6.413, 23.54, 0.1676, 0.67569, -0.24835, 0.67346,
 12:16:48.680,ed:40:fe:65:30:6c, 2015-01-01 00:03:18.025, 0.522, 0.163, 0.842, 0, 0.061, -0.183, 10.432, -31.432, -137.329, -17.087, -12.740, -5.647, 22.72, 0.37271, -0.21957, -0.17987, -0.88342,
 12:16:48.680,ed:40:fe:65:30:6c, 2015-01-01 00:03:18.025, 0.523, 0.159, 0.838, 0, 0.061, -0.549, 10.437, -31.426, -137.34, -17.087, -12.740, -5.647, 22.72, 0.37271, -0.21957, -0.17987, -0.88342,
 12:16:48.680,ed:35:33:d3:6c:f8, 2015-01-01 00:03:18.335, 0.684, 0.235, 0.684, -0.244, -1.587, -0.61, 18.715, -43.374, 121.772, -16.773, -14.847, -26.360, 28.95, 0.39328, 0.39197, -0.04526, 0.83038,
 12:16:48.680,ed:35:33:d3:6c:f8, 2015-01-01 00:03:18.335, 0.685, 0.238, 0.686, -0.061, -1.953, -0.549, 18.737, -43.401, 121.772, -16.773, -14.847, -26.360, 28.95, 0.39328, 0.39197, -0.04526, 0.83038,
 12:16:48.704,f6:90:cc:01:6d:25, 2015-01-01 00:03:17.450, 0.928, 0.024, 0.344, -0.061, 0.061, 0, 3.642, -69.73, -165.652, -29.527, -11.180, -7.480, 26.13, 0.12039, -0.56363, -0.0972, -0.81134,
 12:16:48.704,f6:90:cc:01:6d:25, 2015-01-01 00:03:17.450, 0.925, 0.024, 0.342, -0.305, 0, 0, 3.642, -69.73, -165.646, -29.527, -11.180, -7.480, 26.13, 0.12039, -0.56363, -0.0972, -0.81134,
 12:16:48.723,e3:ca:2d:fd:e0:8c, 2015-01-01 00:03:19.135, 1.015, -0.11, -0.036, 0, -0.183, 0, -108.715, -83.447, -105.502, -26.653, -6.980, -6.413, 23.54, 0.1676, 0.67569, -0.24835, 0.67346,
 12:16:48.723,e3:ca:2d:fd:e0:8c, 2015-01-01 00:03:19.135, 1.015, -0.109, -0.036, -0.183, -0.061, 0, -108.732, -83.447, -105.485, -26.653, -6.980, -6.413, 23.54, 0.1676, 0.67569, -0.24835, 0.67346,
 12:16:48.725,ed:35:33:d3:6c:f8, 2015-01-01 00:03:18.335, 0.683, 0.235, 0.684, 0, -1.77, -0.366, 18.759, -43.434, 121.761, -16.773, -14.847, -26.360, 28.95, 0.39328, 0.39197, -0.04526, 0.83038,
 12:16:48.725,ed:35:33:d3:6c:f8, 2015-01-01 00:03:18.335, 0.689, 0.231, 0.682, 0.244, -1.709, -1.038, 18.787, -43.462, 121.723, -16.773, -14.847, -26.360, 28.95, 0.39328, 0.39197, -0.04526, 0.83038,
 12:16:48.725,ed:40:fe:65:30:6c, 2015-01-01 00:03:18.025, 0.519, 0.16, 0.836, -0.244, 0.305, -0.916, 10.453, -31.421, -137.362, -17.087, -12.740, -5.647, 22.72, 0.37271, -0.21957, -0.17987, -0.88342,
 12:16:48.725,ed:40:fe:65:30:6c, 2015-01-01 00:03:18.025, 0.517, 0.16, 0.839, -0.244, 0.427, -0.793, 10.459, -31.41, -137.39, -17.087, -12.740, -5.647, 22.72, 0.37271, -0.21957, -0.17987, -0.88342,
 12:16:48.748,ed:35:33:d3:6c:f8, 2015-01-01 00:03:18.335, 0.69, 0.231, 0.675, 0.183, -1.77, -1.404, 18.825, -43.489, 121.668, -16.333, -14.307, -26.380, 28.95, 0.39328, 0.39197, -0.04526, 0.83038,
 12:16:48.748,ed:35:33:d3:6c:f8, 2015-01-01 00:03:18.335, 0.685, 0.237, 0.678, 0, -1.526, -1.282, 18.864, -43.511, 121.613, -16.333, -14.307, -26.380, 28.95, 0.39328, 0.39197, -0.04526, 0.83038,
 12:16:48.749,f6:90:cc:01:6d:25, 2015-01-01 00:03:17.760, 0.926, 0.019, 0.341, -0.183, 0.244, -0.305, 3.653, -69.725, -165.663, -29.527, -11.180, -7.480, 26.13, 0.12039, -0.56363, -0.0972, -0.81134,
 12:16:48.749,f6:90:cc:01:6d:25, 2015-01-01 00:03:17.760, 0.928, 0.02, 0.342, -0.122, 0.305, -0.366, 3.664, -69.719, -165.674, -29.527, -11.180, -7.480, 26.13, 0.12039, -0.56363, -0.0972, -0.81134,
 12:16:48.767,e3:ca:2d:fd:e0:8c, 2015-01-01 00:03:19.135, 1.015, -0.111, -0.037, -0.183, 0, 0, -108.732, -83.447, -105.48, -26.653, -6.980, -6.413, 23.54, 0.1676, 0.67569, -0.24835, 0.67346,
 12:16:48.767,e3:ca:2d:fd:e0:8c, 2015-01-01 00:03:19.135, 1.016, -0.112, -0.037, -0.061, 0, 0, -108.726, -83.447, -105.48, -26.653, -6.980, -6.413, 23.54, 0.1676, 0.67569, -0.24835, 0.67346,
 12:16:48.770,ed:35:33:d3:6c:f8, 2015-01-01 00:03:18.335, 0.685, 0.238, 0.683, 0.061, -1.16, -0.549, 18.885, -43.528, 121.575, -16.333, -14.307, -26.380, 28.95, 0.39328, 0.39197, -0.04526, 0.83038,
 12:16:48.770,ed:35:33:d3:6c:f8, 2015-01-01 00:03:18.335, 0.687, 0.242, 0.683, 0.122, -0.854, -0.61, 18.907, -43.544, 121.553, -16.333, -14.307, -26.380, 28.95, 0.39328, 0.39197, -0.04526, 0.83038,
 12:16:48.771,f6:90:cc:01:6d:25, 2015-01-01 00:03:17.760, 0.929, 0.023, 0.344, 0.061, 0.183, -0.244, 3.68, -69.714, -165.685, -29.527, -11.180, -7.480, 26.13, 0.12039, -0.56363, -0.0972, -0.81134,
 12:16:48.771,f6:90:cc:01:6d:25, 2015-01-01 00:03:17.760, 0.928, 0.026, 0.343, 0, 0.122, -0.183, 3.691, -69.708, -165.696, -29.527, -11.180, -7.480, 26.13, 0.12039, -0.56363, -0.0972, -0.81134,
 12:16:48.792,ed:40:fe:65:30:6c, 2015-01-01 00:03:18.025, 0.518, 0.164, 0.843, -0.183, 0.183, -0.488, 10.47, -31.399, -137.411, -17.087, -12.740, -5.647, 22.72, 0.37131, -0.21924, -0.17972, -0.88412,
 12:16:48.792,ed:40:fe:65:30:6c, 2015-01-01 00:03:18.025, 0.521, 0.166, 0.844, -0.122, 0.183, -0.305, 10.475, -31.393, -137.428, -17.087, -12.740, -5.647, 22.72, 0.37131, -0.21924, -0.17972, -0.88412,
 12:16:48.815,ed:35:33:d3:6c:f8, 2015-01-01 00:03:18.335, 0.69, 0.238, 0.683, 0, -0.732, -0.366, 18.924, -43.555, 121.476, -16.333, -14.307, -26.380, 28.95, 0.39328, 0.39197, -0.04526, 0.83038,
 12:16:48.815,ed:35:33:d3:6c:f8, 2015-01-01 00:03:18.335, 0.689, 0.235, 0.678, -0.244, -0.671, -1.038, 18.94, -43.566, 121.393, -16.333, -14.307, -26.380, 28.95, 0.39328, 0.39197, -0.04526, 0.83038,
 12:16:48.815,ed:40:fe:65:30:6c, 2015-01-01 00:03:18.405, 0.522, 0.164, 0.841, -0.427, 0.061, -0.549, 10.481, -31.382, -137.439, -17.087, -12.740, -5.647, 22.72, 0.37131, -0.21924, -0.17972, -0.88412,
 12:16:48.815,ed:40:fe:65:30:6c, 2015-01-01 00:03:18.405, 0.516, 0.164, 0.838, -0.854, 0.183, -1.038, 10.486, -31.377, -137.461, -17.087, -12.740, -5.647, 22.72, 0.37131, -0.21924, -0.17972, -0.88412,
 12:16:48.817,f6:90:cc:01:6d:25, 2015-01-01 00:03:17.760, 0.925, 0.027, 0.341, -0.244, 0.122, -0.244, 3.702, -69.708, -165.701, -29.527, -11.180, -7.480, 26.13, 0.12039, -0.56363, -0.0972, -0.81134,
 12:16:48.817,f6:90:cc:01:6d:25, 2015-01-01 00:03:17.760, 0.924, 0.022, 0.341, -0.488, 0.183, -0.305, 3.713, -69.703, -165.712, -29.527, -11.180, -7.480, 26.13, 0.12039, -0.56363, -0.0972, -0.81134,
 12:16:48.836,ed:40:fe:65:30:6c, 2015-01-01 00:03:18.405, 0.512, 0.162, 0.842, -0.793, 0.305, -1.099, 10.486, -31.371, -137.494, -17.087, -12.740, -5.647, 22.72, 0.37131, -0.21924, -0.17972, -0.88412,
 12:16:48.836,ed:40:fe:65:30:6c, 2015-01-01 00:03:18.405, 0.515, 0.161, 0.845, -0.244, -0.061, -0.671, 10.492, -31.36, -137.521, -17.087, -12.740, -5.647, 22.72, 0.37131, -0.21924, -0.17972, -0.88412,
 12:16:48.837,e3:ca:2d:fd:e0:8c, 2015-01-01 00:03:19.135, 1.015, -0.11, -0.038, 0, -0.122, 0, -108.737, -83.447, -105.463, -26.653, -6.980, -6.413, 23.54, 0.1676, 0.67569, -0.24835, 0.67346,
 12:16:48.837,e3:ca:2d:fd:e0:8c, 2015-01-01 00:03:19.135, 1.015, -0.11, -0.038, 0, -0.183, 0, -108.765, -83.441, -105.436, -26.653, -6.980, -6.413, 23.54, 0.1676, 0.67569, -0.24835, 0.67346,
 12:16:48.838,ed:35:33:d3:6c:f8, 2015-01-01 00:03:18.335, 0.685, 0.238, 0.68, -0.427, -0.977, -1.221, 18.962, -43.572, 121.333, -16.333, -14.307, -26.380, 28.95, 0.39471, 0.39395, -0.04578, 0.82874,
 12:16:48.838,ed:35:33:d3:6c:f8, 2015-01-01 00:03:18.335, 0.684, 0.239, 0.686, 0, -0.488, -1.221, 18.99, -43.577, 121.311, -16.333, -14.307, -26.380, 28.95, 0.39471, 0.39395, -0.04578, 0.82874,
 12:16:48.858,e3:ca:2d:fd:e0:8c, 2015-01-01 00:03:19.135, 1.014, -0.108, -0.038, 0, -0.183, 0, -108.792, -83.441, -105.403, -26.667, -7.273, -6.067, 23.54, 0.1676, 0.67569, -0.24835, 0.67346,
 12:16:48.858,e3:ca:2d:fd:e0:8c, 2015-01-01 00:03:19.135, 1.015, -0.109, -0.038, -0.122, 0, 0, -108.798, -83.441, -105.397, -26.667, -7.273, -6.067, 23.54, 0.1676, 0.67569, -0.24835, 0.67346,
 12:16:48.862,f6:90:cc:01:6d:25, 2015-01-01 00:03:17.760, 0.925, 0.016, 0.343, -0.366, 0.122, -0.366, 3.724, -69.697, -165.723, -29.527, -11.180, -7.480, 26.13, 0.12039, -0.56363, -0.0972, -0.81134,
 12:16:48.862,f6:90:cc:01:6d:25, 2015-01-01 00:03:17.760, 0.927, 0.02, 0.344, -0.061, 0, -0.427, 3.735, -69.697, -165.74, -29.527, -11.180, -7.480, 26.13, 0.12039, -0.56363, -0.0972, -0.81134,
 12:16:48.882,ed:40:fe:65:30:6c, 2015-01-01 00:03:18.405, 0.519, 0.167, 0.843, -0.183, -0.366, -0.122, 10.497, -31.36, -137.538, -17.087, -12.740, -5.647, 22.72, 0.37131, -0.21924, -0.17972, -0.88412,
 12:16:48.882,ed:40:fe:65:30:6c, 2015-01-01 00:03:18.405, 0.521, 0.168, 0.839, -0.549, -0.061, 0, 10.497, -31.36, -137.549, -17.087, -12.740, -5.647, 22.72, 0.37131, -0.21924, -0.17972, -0.88412,
 12:16:48.884,ed:35:33:d3:6c:f8, 2015-01-01 00:03:18.335, 0.686, 0.243, 0.687, 0.244, -0.244, -0.61, 19.012, -43.583, 121.311, -16.333, -14.307, -26.380, 28.95, 0.39471, 0.39395, -0.04578, 0.82874,
 12:16:48.884,ed:35:33:d3:6c:f8, 2015-01-01 00:03:18.335, 0.686, 0.247, 0.68, 0.305, -0.488, 0.061, 19.028, -43.583, 121.333, -16.333, -14.307, -26.380, 28.95, 0.39471, 0.39395, -0.04578, 0.82874,
 12:16:48.904,e3:ca:2d:fd:e0:8c, 2015-01-01 00:03:19.135, 1.015, -0.111, -0.037, -0.122, 0, 0, -108.803, -83.441, -105.392, -26.667, -7.273, -6.067, 23.54, 0.1676, 0.67569, -0.24835, 0.67346,
 12:16:48.904,e3:ca:2d:fd:e0:8c, 2015-01-01 00:03:19.135, 1.015, -0.111, -0.037, 0, -0.061, 0, -108.809, -83.441, -105.386, -26.667, -7.273, -6.067, 23.54, 0.1676, 0.67569, -0.24835, 0.67346,
 12:16:48.907,f6:90:cc:01:6d:25, 2015-01-01 00:03:17.760, 0.928, 0.027, 0.344, 0, -0.061, -0.244, 3.757, -69.697, -165.762, -29.527, -11.180, -7.480, 26.13, 0.12039, -0.56363, -0.0972, -0.81134,
 12:16:48.907,f6:90:cc:01:6d:25, 2015-01-01 00:03:17.760, 0.926, 0.03, 0.343, -0.183, -0.061, -0.183, 3.768, -69.697, -165.767, -29.527, -11.180, -7.480, 26.13, 0.12039, -0.56363, -0.0972, -0.81134,
 12:16:48.925,e3:ca:2d:fd:e0:8c, 2015-01-01 00:03:19.135, 1.016, -0.109, -0.036, 0, -0.183, 0, -108.831, -83.441, -105.359, -26.667, -7.273, -6.067, 23.54, 0.16711, 0.67593, -0.24796, 0.67349,
 12:16:48.925,e3:ca:2d:fd:e0:8c, 2015-01-01 00:03:19.135, 1.014, -0.11, -0.036, -0.061, -0.183, 0, -108.858, -83.441, -105.326, -26.667, -7.273, -6.067, 23.54, 0.16711, 0.67593, -0.24796, 0.67349,
 12:16:48.927,ed:35:33:d3:6c:f8, 2015-01-01 00:03:18.740, 0.688, 0.238, 0.675, 0, -0.488, 0.061, 19.034, -43.594, 121.344, -16.333, -14.307, -26.380, 28.95, 0.39471, 0.39395, -0.04578, 0.82874,
 12:16:48.927,ed:35:33:d3:6c:f8, 2015-01-01 00:03:18.740, 0.688, 0.237, 0.679, -0.061, -0.183, -0.427, 19.045, -43.599, 121.36, -16.333, -14.307, -26.380, 28.95, 0.39471, 0.39395, -0.04578, 0.82874,
 12:16:48.927,ed:40:fe:65:30:6c, 2015-01-01 00:03:18.405, 0.518, 0.167, 0.84, -0.732, 0.122, -0.427, 10.497, -31.36, -137.56, -17.087, -12.740, -5.647, 22.72, 0.37131, -0.21924, -0.17972, -0.88412,
 12:16:48.927,ed:40:fe:65:30:6c, 2015-01-01 00:03:18.405, 0.515, 0.159, 0.84, -0.61, 0.183, -0.549, 10.492, -31.349, -137.571, -17.087, -12.740, -5.647, 22.72, 0.37131, -0.21924, -0.17972, -0.88412,
 12:16:48.950,ed:35:33:d3:6c:f8, 2015-01-01 00:03:18.740, 0.681, 0.239, 0.677, -0.122, -0.366, -0.122, 19.056, -43.599, 121.344, -16.333, -14.307, -26.380, 28.95, 0.39471, 0.39395, -0.04578, 0.82874,
 12:16:48.950,ed:35:33:d3:6c:f8, 2015-01-01 00:03:18.740, 0.684, 0.242, 0.682, -0.122, -0.732, 0.183, 19.056, -43.61, 121.366, -16.333, -14.307, -26.380, 28.95, 0.39471, 0.39395, -0.04578, 0.82874,
 12:16:48.951,f6:90:cc:01:6d:25, 2015-01-01 00:03:17.760, 0.923, 0.019, 0.341, -0.244, 0, -0.244, 3.779, -69.697, -165.778, -29.833, -11.833, -7.707, 26.13, 0.12039, -0.56363, -0.0972, -0.81134,
 12:16:48.951,f6:90:cc:01:6d:25, 2015-01-01 00:03:17.760, 0.922, 0.018, 0.342, -0.183, 0.183, -0.183, 3.785, -69.697, -165.784, -29.833, -11.833, -7.707, 26.13, 0.12039, -0.56363, -0.0972, -0.81134,
 12:16:48.971,e3:ca:2d:fd:e0:8c, 2015-01-01 00:03:19.135, 1.012, -0.11, -0.035, -0.244, -0.122, 0, -108.88, -83.441, -105.304, -26.667, -7.273, -6.067, 23.54, 0.16711, 0.67593, -0.24796, 0.67349,
 12:16:48.971,e3:ca:2d:fd:e0:8c, 2015-01-01 00:03:19.135, 1.014, -0.11, -0.035, -0.122, 0, 0, -108.88, -83.441, -105.298, -26.667, -7.273, -6.067, 23.54, 0.16711, 0.67593, -0.24796, 0.67349,
 12:16:48.974,f6:90:cc:01:6d:25, 2015-01-01 00:03:17.760, 0.928, 0.025, 0.344, 0.183, 0.183, -0.061, 3.79, -69.692, -165.789, -29.833, -11.833, -7.707, 26.13, 0.12021, -0.56329, -0.09756, -0.81155,
 12:16:48.974,f6:90:cc:01:6d:25, 2015-01-01 00:03:17.760, 0.931, 0.027, 0.349, 0.488, 0, -0.061, 3.796, -69.686, -165.789, -29.833, -11.833, -7.707, 26.13, 0.12021, -0.56329, -0.09756, -0.81155,
 12:16:48.994,ed:40:fe:65:30:6c, 2015-01-01 00:03:18.405, 0.512, 0.162, 0.84, -0.61, 0, -0.122, 10.492, -31.344, -137.587, -17.087, -12.740, -5.647, 22.72, 0.37131, -0.21924, -0.17972, -0.88412,
 12:16:48.994,ed:40:fe:65:30:6c, 2015-01-01 00:03:18.405, 0.517, 0.168, 0.842, -0.732, -0.061, 0, 10.486, -31.344, -137.598, -17.087, -12.740, -5.647, 22.72, 0.37131, -0.21924, -0.17972, -0.88412,
 12:16:48.995,ed:35:33:d3:6c:f8, 2015-01-01 00:03:18.740, 0.691, 0.243, 0.683, 0.061, -0.61, 0.122, 19.061, -43.621, 121.393, -16.333, -14.307, -26.380, 28.95, 0.39471, 0.39395, -0.04578, 0.82874,
 12:16:48.995,ed:35:33:d3:6c:f8, 2015-01-01 00:03:18.740, 0.69, 0.242, 0.681, 0.793, -0.793, 0.122, 19.078, -43.638, 121.404, -16.333, -14.307, -26.380, 28.95, 0.39471, 0.39395, -0.04578, 0.82874,
 12:16:49.016,e3:ca:2d:fd:e0:8c, 2015-01-01 00:03:19.495, 1.019, -0.11, -0.036, 0.061, 0, 0, -108.875, -83.441, -105.298, -26.667, -7.273, -6.067, 23.54, 0.16711, 0.67593, -0.24796, 0.67349,
 12:16:49.016,e3:ca:2d:fd:e0:8c, 2015-01-01 00:03:19.495, 1.015, -0.109, -0.037, 0.061, -0.305, 0, -108.902, -83.441, -105.26, -26.667, -7.273, -6.067, 23.54, 0.16711, 0.67593, -0.24796, 0.67349,
 12:16:49.017,ed:40:fe:65:30:6c, 2015-01-01 00:03:18.405, 0.52, 0.167, 0.844, -0.549, -0.061, 0, 10.481, -31.344, -137.604, -16.867, -12.600, -5.753, 22.72, 0.37131, -0.21924, -0.17972, -0.88412,
 12:16:49.017,ed:40:fe:65:30:6c, 2015-01-01 00:03:18.405, 0.518, 0.164, 0.844, -0.488, 0.244, 0, 10.475, -31.339, -137.609, -16.867, -12.600, -5.753, 22.72, 0.37131, -0.21924, -0.17972, -0.88412,
 12:16:49.019,f6:90:cc:01:6d:25, 2015-01-01 00:03:17.760, 0.926, 0.023, 0.345, 0.305, -0.244, -0.061, 3.812, -69.686, -165.789, -29.833, -11.833, -7.707, 26.13, 0.12021, -0.56329, -0.09756, -0.81155,
 12:16:49.019,f6:90:cc:01:6d:25, 2015-01-01 00:03:17.760, 0.926, 0.021, 0.338, -0.305, -0.183, -0.061, 3.818, -69.692, -165.789, -29.833, -11.833, -7.707, 26.13, 0.12021, -0.56329, -0.09756, -0.81155,
 12:16:49.040,ed:35:33:d3:6c:f8, 2015-01-01 00:03:18.740, 0.689, 0.241, 0.682, 1.16, -0.854, 0.488, 19.1, -43.654, 121.404, -16.333, -14.307, -26.380, 28.95, 0.39471, 0.39395, -0.04578, 0.82874,
 12:16:49.040,ed:35:33:d3:6c:f8, 2015-01-01 00:03:18.740, 0.69, 0.241, 0.681, 0.61, -1.16, 0.61, 19.122, -43.676, 121.426, -16.333, -14.307, -26.380, 28.95, 0.39471, 0.39395, -0.04578, 0.82874,
 12:16:49.061,ed:40:fe:65:30:6c, 2015-01-01 00:03:18.405, 0.517, 0.163, 0.845, -0.671, 0.183, 0.061, 10.475, -31.328, -137.615, -16.867, -12.600, -5.753, 22.72, 0.37131, -0.21924, -0.17972, -0.88412,
 12:16:49.061,ed:40:fe:65:30:6c, 2015-01-01 00:03:18.405, 0.518, 0.163, 0.843, -0.732, -0.305, 0.244, 10.464, -31.328, -137.615, -16.867, -12.600, -5.753, 22.72, 0.37131, -0.21924, -0.17972, -0.88412,
 12:16:49.061,e3:ca:2d:fd:e0:8c, 2015-01-01 00:03:19.495, 1.017, -0.107, -0.039, 0, -0.366, 0, -108.957, -83.436, -105.2, -26.667, -7.273, -6.067, 23.54, 0.16711, 0.67593, -0.24796, 0.67349,
 12:16:49.061,e3:ca:2d:fd:e0:8c, 2015-01-01 00:03:19.495, 1.016, -0.109, -0.039, -0.244, -0.061, 0, -108.979, -83.436, -105.178, -26.667, -7.273, -6.067, 23.54, 0.16711, 0.67593, -0.24796, 0.67349,
 12:16:49.064,f6:90:cc:01:6d:25, 2015-01-01 00:03:18.050, 0.927, 0.022, 0.34, -0.183, -0.183, -0.061, 3.818, -69.692, -165.789, -29.833, -11.833, -7.707, 26.13, 0.12021, -0.56329, -0.09756, -0.81155,
 12:16:49.064,f6:90:cc:01:6d:25, 2015-01-01 00:03:18.050, 0.926, 0.025, 0.344, 0.305, -0.244, -0.122, 3.823, -69.697, -165.789, -29.833, -11.833, -7.707, 26.13, 0.12021, -0.56329, -0.09756, -0.81155,
 12:16:49.083,e3:ca:2d:fd:e0:8c, 2015-01-01 00:03:19.495, 1.015, -0.11, -0.04, -0.305, -0.122, 0, -109.001, -83.436, -105.156, -26.667, -7.273, -6.067, 23.54, 0.16711, 0.67593, -0.24796, 0.67349,
 12:16:49.083,e3:ca:2d:fd:e0:8c, 2015-01-01 00:03:19.495, 1.014, -0.11, -0.039, 0.122, -0.244, 0, -109.034, -83.436, -105.123, -26.667, -7.273, -6.067, 23.54, 0.16711, 0.67593, -0.24796, 0.67349,
 12:16:49.084,ed:40:fe:65:30:6c, 2015-01-01 00:03:18.405, 0.517, 0.165, 0.842, -0.61, -0.427, 0.366, 10.453, -31.333, -137.615, -16.867, -12.600, -5.753, 22.72, 0.36951, -0.21896, -0.17905, -0.88507,
 12:16:49.084,ed:40:fe:65:30:6c, 2015-01-01 00:03:18.405, 0.519, 0.167, 0.84, -0.427, -0.427, 0.366, 10.448, -31.339, -137.615, -16.867, -12.600, -5.753, 22.72, 0.36951, -0.21896, -0.17905, -0.88507,
 12:16:49.109,ed:35:33:d3:6c:f8, 2015-01-01 00:03:18.740, 0.687, 0.242, 0.68, 0.549, -1.16, 0.854, 19.133, -43.698, 121.454, -16.333, -14.307, -26.380, 28.95, 0.39471, 0.39395, -0.04578, 0.82874,
 12:16:49.109,ed:35:33:d3:6c:f8, 2015-01-01 00:03:18.740, 0.686, 0.242, 0.675, 0.854, -1.404, 0.732, 19.144, -43.726, 121.459, -16.333, -14.307, -26.380, 28.95, 0.39471, 0.39395, -0.04578, 0.82874,
 12:16:49.109,f6:90:cc:01:6d:25, 2015-01-01 00:03:18.050, 0.926, 0.028, 0.342, 0.366, -0.366, -0.061, 3.834, -69.703, -165.789, -29.833, -11.833, -7.707, 26.13, 0.12021, -0.56329, -0.09756, -0.81155,
