Time,Device name,Chip Time(),Acceleration X(g),Acceleration Y(g),Acceleration Z(g),Angular velocity X(°/s),Angular velocity Y(°/s),Angular velocity Z(°/s),Angle X(°),Angle Y(°),Angle Z(°),Magnetic field X(ʯt),Magnetic field Y(ʯt),Magnetic field Z(ʯt),Temperature(℃),Quaternions 0(),Quaternions 1(),Quaternions 2(),Quaternions 3()
 12:44:49.988,e3:ca:2d:fd:e0:8c, 2015-01-01 02:14:29.265, 0.976, -0.143, -0.258, -0.061, 0.061, -0.122, -150.595, -73.218, -67.039, -28.993, -8.853, -3.533, 23.86, 0.14804, 0.73117, -0.30182, 0.59354,
 12:44:49.988,e3:ca:2d:fd:e0:8c, 2015-01-01 02:14:29.265, 0.978, -0.144, -0.26, -0.061, 0.122, -0.122, -150.601, -73.218, -67.072, -28.993, -8.853, -3.533, 23.86, 0.14804, 0.73117, -0.30182, 0.59354,
 12:44:49.988,e3:ca:2d:fd:e0:8c, 2015-01-01 02:14:29.265, 0.978, -0.144, -0.257, 0, 0.061, -0.061, -150.606, -73.218, -67.099, -28.993, -8.853, -3.533, 23.86, 0.14804, 0.73117, -0.30182, 0.59354,
 12:44:49.988,e3:ca:2d:fd:e0:8c, 2015-01-01 02:14:29.265, 0.977, -0.144, -0.258, 0.061, -0.061, 0, -150.606, -73.218, -67.11, -28.993, -8.853, -3.533, 23.86, 0.14804, 0.73117, -0.30182, 0.59354,
 12:44:49.992,f6:90:cc:01:6d:25, 2015-01-01 02:14:29.010, 0.848, -0.11, -0.493, 0, 0, 0, -167.102, -59.211, -38.029, -31.213, -8.973, 10.587, 26.98, 0.06506, 0.83606, -0.22412, 0.49646,
 12:44:49.992,f6:90:cc:01:6d:25, 2015-01-01 02:14:29.010, 0.847, -0.111, -0.495, 0.061, -0.061, 0, -167.102, -59.211, -38.035, -31.213, -8.973, 10.587, 26.98, 0.06506, 0.83606, -0.22412, 0.49646,
 12:44:49.994,ed:35:33:d3:6c:f8, 2015-01-01 02:14:28.375, 0.965, -0.016, 0.24, 0, 0.183, -0.427, -3.779, -75.948, 149.628, -22.480, -9.553, -12.487, 27.08, 0.22556, 0.58731, -0.18488, 0.75491,
 12:44:49.994,ed:35:33:d3:6c:f8, 2015-01-01 02:14:28.375, 0.961, -0.015, 0.239, 0.122, -0.061, -0.549, -3.741, -75.948, 149.606, -22.480, -9.553, -12.487, 27.08, 0.22556, 0.58731, -0.18488, 0.75491,
 12:44:49.996,ed:40:fe:65:30:6c, 2015-01-01 02:14:28.400, 0.901, -0.196, 0.403, 0.244, 0.061, -0.488, -26.241, -63.583, -88.38, -25.967, -2.713, 6.493, 22.61, 0.51047, -0.49597, -0.2334, -0.66245,
 12:44:49.996,ed:40:fe:65:30:6c, 2015-01-01 02:14:28.400, 0.905, -0.196, 0.404, 0.183, 0.122, -0.488, -26.219, -63.583, -88.418, -25.967, -2.713, 6.493, 22.61, 0.51047, -0.49597, -0.2334, -0.66245,
 12:44:50.018,e3:ca:2d:fd:e0:8c, 2015-01-01 02:14:29.265, 0.975, -0.145, -0.256, 0, -0.061, 0, -150.612, -73.218, -67.121, -28.993, -8.853, -3.533, 23.86, 0.14804, 0.73117, -0.30182, 0.59354,
 12:44:50.018,e3:ca:2d:fd:e0:8c, 2015-01-01 02:14:29.265, 0.976, -0.145, -0.255, -0.061, -0.061, -0.061, -150.617, -73.218, -67.137, -28.993, -8.853, -3.533, 23.86, 0.14804, 0.73117, -0.30182, 0.59354,
 12:44:50.020,f6:90:cc:01:6d:25, 2015-01-01 02:14:29.010, 0.847, -0.11, -0.497, 0, -0.061, -0.061, -167.108, -59.205, -38.035, -31.213, -8.973, 10.587, 26.98, 0.06506, 0.83606, -0.22412, 0.49646,
 12:44:50.020,f6:90:cc:01:6d:25, 2015-01-01 02:14:29.010, 0.847, -0.111, -0.496, 0.061, 0, 0, -167.108, -59.205, -38.046, -31.213, -8.973, 10.587, 26.98, 0.06506, 0.83606, -0.22412, 0.49646,
 12:44:50.052,ed:35:33:d3:6c:f8, 2015-01-01 02:14:28.375, 0.962, -0.015, 0.24, 0.183, 0, -0.488, -3.702, -75.948, 149.573, -22.480, -9.553, -12.487, 27.08, 0.22556, 0.58731, -0.18488, 0.75491,
 12:44:50.052,ed:35:33:d3:6c:f8, 2015-01-01 02:14:28.375, 0.965, -0.015, 0.241, 0.122, 0.122, -0.61, -3.653, -75.948, 149.535, -22.480, -9.553, -12.487, 27.08, 0.22556, 0.58731, -0.18488, 0.75491,
 12:44:50.056,ed:40:fe:65:30:6c, 2015-01-01 02:14:28.400, 0.903, -0.195, 0.402, 0.061, -0.061, -0.427, -26.202, -63.589, -88.445, -25.967, -2.713, 6.493, 22.61, 0.51047, -0.49597, -0.2334, -0.66245,
 12:44:50.056,ed:40:fe:65:30:6c, 2015-01-01 02:14:28.400, 0.9, -0.195, 0.402, 0, -0.122, -0.366, -26.186, -63.589, -88.473, -25.967, -2.713, 6.493, 22.61, 0.51047, -0.49597, -0.2334, -0.66245,
 12:44:50.078,e3:ca:2d:fd:e0:8c, 2015-01-01 02:14:29.265, 0.977, -0.145, -0.256, 0, 0, -0.061, -150.623, -73.218, -67.143, -28.993, -8.853, -3.533, 23.86, 0.14804, 0.73117, -0.30182, 0.59354,
 12:44:50.078,e3:ca:2d:fd:e0:8c, 2015-01-01 02:14:29.265, 0.975, -0.144, -0.256, 0, 0.122, 0, -150.623, -73.218, -67.148, -28.993, -8.853, -3.533, 23.86, 0.14804, 0.73117, -0.30182, 0.59354,
 12:44:50.082,ed:35:33:d3:6c:f8, 2015-01-01 02:14:28.375, 0.964, -0.016, 0.243, 0, 0.122, -0.671, -3.604, -75.948, 149.485, -22.147, -9.347, -12.347, 27.08, 0.22556, 0.58731, -0.18488, 0.75491,
 12:44:50.082,ed:35:33:d3:6c:f8, 2015-01-01 02:14:28.375, 0.966, -0.012, 0.242, 0, -0.061, -0.732, -3.549, -75.948, 149.414, -22.147, -9.347, -12.347, 27.08, 0.22556, 0.58731, -0.18488, 0.75491,
 12:44:50.086,ed:40:fe:65:30:6c, 2015-01-01 02:14:28.400, 0.902, -0.194, 0.402, 0, 0, -0.244, -26.175, -63.594, -88.495, -25.967, -2.713, 6.493, 22.61, 0.51047, -0.49597, -0.2334, -0.66245,
 12:44:50.086,ed:40:fe:65:30:6c, 2015-01-01 02:14:28.400, 0.905, -0.195, 0.401, 0.061, 0.061, -0.183, -26.164, -63.6, -88.522, -25.967, -2.713, 6.493, 22.61, 0.51047, -0.49597, -0.2334, -0.66245,
 12:44:50.108,e3:ca:2d:fd:e0:8c, 2015-01-01 02:14:29.265, 0.974, -0.143, -0.256, 0, 0.061, 0, -150.623, -73.218, -67.165, -28.993, -8.853, -3.533, 23.86, 0.14804, 0.73117, -0.30182, 0.59354,
 12:44:50.108,e3:ca:2d:fd:e0:8c, 2015-01-01 02:14:29.265, 0.975, -0.145, -0.256, -0.122, 0, -0.061, -150.623, -73.218, -67.17, -28.993, -8.853, -3.533, 23.86, 0.14804, 0.73117, -0.30182, 0.59354,
 12:44:50.110,f6:90:cc:01:6d:25, 2015-01-01 02:14:29.010, 0.847, -0.111, -0.495, 0, 0, 0, -167.113, -59.205, -38.068, -31.213, -8.973, 10.587, 26.98, 0.06775, 0.83481, -0.22919, 0.49585,
 12:44:50.110,f6:90:cc:01:6d:25, 2015-01-01 02:14:29.010, 0.846, -0.11, -0.494, 0, 0, 0, -167.113, -59.2, -38.084, -31.213, -8.973, 10.587, 26.98, 0.06775, 0.83481, -0.22919, 0.49585,
 12:44:50.113,ed:35:33:d3:6c:f8, 2015-01-01 02:14:28.375, 0.963, -0.011, 0.24, 0, -0.183, -0.61, -3.505, -75.954, 149.337, -22.147, -9.347, -12.347, 27.08, 0.22556, 0.58731, -0.18488, 0.75491,
 12:44:50.113,ed:35:33:d3:6c:f8, 2015-01-01 02:14:28.375, 0.961, -0.012, 0.239, 0.122, -0.122, -0.549, -3.455, -75.959, 149.282, -22.147, -9.347, -12.347, 27.08, 0.22556, 0.58731, -0.18488, 0.75491,
 12:44:50.116,ed:40:fe:65:30:6c, 2015-01-01 02:14:28.400, 0.905, -0.194, 0.402, 0, 0.061, -0.366, -26.147, -63.6, -88.539, -25.967, -2.713, 6.493, 22.61, 0.51047, -0.49597, -0.2334, -0.66245,
 12:44:50.116,ed:40:fe:65:30:6c, 2015-01-01 02:14:28.400, 0.9, -0.198, 0.403, 0.305, 0.061, -0.366, -26.131, -63.6, -88.561, -25.967, -2.713, 6.493, 22.61, 0.51047, -0.49597, -0.2334, -0.66245,
 12:44:50.138,e3:ca:2d:fd:e0:8c, 2015-01-01 02:14:29.265, 0.979, -0.143, -0.257, -0.122, 0, 0, -150.628, -73.218, -67.17, -28.993, -8.853, -3.533, 23.86, 0.14804, 0.73117, -0.30182, 0.59354,
 12:44:50.138,e3:ca:2d:fd:e0:8c, 2015-01-01 02:14:29.265, 0.978, -0.146, -0.258, -0.183, 0.061, -0.061, -150.634, -73.218, -67.181, -28.993, -8.853, -3.533, 23.86, 0.14804, 0.73117, -0.30182, 0.59354,
 12:44:50.140,f6:90:cc:01:6d:25, 2015-01-01 02:14:29.400, 0.848, -0.11, -0.495, 0, -0.061, 0, -167.119, -59.2, -38.106, -31.213, -8.973, 10.587, 26.98, 0.06775, 0.83481, -0.22919, 0.49585,
 12:44:50.140,f6:90:cc:01:6d:25, 2015-01-01 02:14:29.400, 0.847, -0.11, -0.495, -0.183, 0, 0, -167.124, -59.194, -38.134, -31.213, -8.973, 10.587, 26.98, 0.06775, 0.83481, -0.22919, 0.49585,
 12:44:50.144,ed:35:33:d3:6c:f8, 2015-01-01 02:14:28.375, 0.964, -0.011, 0.239, 0.244, 0.305, -0.427, -3.417, -75.954, 149.233, -22.147, -9.347, -12.347, 27.08, 0.22556, 0.58731, -0.18488, 0.75491,
 12:44:50.144,ed:35:33:d3:6c:f8, 2015-01-01 02:14:28.375, 0.967, -0.013, 0.24, 0.122, 0.305, -0.305, -3.389, -75.948, 149.205, -22.147, -9.347, -12.347, 27.08, 0.22556, 0.58731, -0.18488, 0.75491,
 12:44:50.150,ed:40:fe:65:30:6c, 2015-01-01 02:14:28.400, 0.901, -0.197, 0.401, -0.061, 0.122, -0.183, -26.115, -63.6, -88.588, -25.967, -2.713, 6.493, 22.61, 0.51047, -0.49597, -0.2334, -0.66245,
 12:44:50.150,ed:40:fe:65:30:6c, 2015-01-01 02:14:28.400, 0.906, -0.191, 0.402, 0, 0.305, -0.061, -26.104, -63.6, -88.605, -25.967, -2.713, 6.493, 22.61, 0.51047, -0.49597, -0.2334, -0.66245,
 12:44:50.170,f6:90:cc:01:6d:25, 2015-01-01 02:14:29.400, 0.845, -0.113, -0.495, 0.061, 0.061, 0, -167.13, -59.194, -38.172, -31.213, -8.973, 10.587, 26.98, 0.06775, 0.83481, -0.22919, 0.49585,
 12:44:50.170,f6:90:cc:01:6d:25, 2015-01-01 02:14:29.400, 0.847, -0.113, -0.497, 0, 0.061, 0, -167.13, -59.194, -38.205, -31.213, -8.973, 10.587, 26.98, 0.06775, 0.83481, -0.22919, 0.49585,
 12:44:50.173,ed:35:33:d3:6c:f8, 2015-01-01 02:14:28.375, 0.967, -0.012, 0.239, 0, 0.061, -0.549, -3.34, -75.948, 149.15, -22.147, -9.347, -12.347, 27.08, 0.2269, 0.58673, -0.18573, 0.75476,
 12:44:50.173,ed:35:33:d3:6c:f8, 2015-01-01 02:14:28.375, 0.961, -0.014, 0.24, 0, 0.305, -0.366, -3.312, -75.943, 149.112, -22.147, -9.347, -12.347, 27.08, 0.2269, 0.58673, -0.18573, 0.75476,
 12:44:50.198,e3:ca:2d:fd:e0:8c, 2015-01-01 02:14:29.265, 0.975, -0.146, -0.258, -0.122, 0, -0.061, -150.639, -73.224, -67.187, -28.993, -8.853, -3.533, 23.86, 0.14804, 0.73117, -0.30182, 0.59354,
 12:44:50.198,e3:ca:2d:fd:e0:8c, 2015-01-01 02:14:29.265, 0.977, -0.143, -0.259, -0.122, 0, -0.122, -150.65, -73.224, -67.203, -28.993, -8.853, -3.533, 23.86, 0.14804, 0.73117, -0.30182, 0.59354,
 12:44:50.200,f6:90:cc:01:6d:25, 2015-01-01 02:14:29.400, 0.847, -0.108, -0.499, -0.061, 0.061, 0, -167.13, -59.194, -38.216, -31.213, -8.973, 10.587, 26.98, 0.06775, 0.83481, -0.22919, 0.49585,
 12:44:50.200,f6:90:cc:01:6d:25, 2015-01-01 02:14:29.400, 0.848, -0.108, -0.497, 0.061, 0, 0, -167.135, -59.194, -38.238, -31.213, -8.973, 10.587, 26.98, 0.06775, 0.83481, -0.22919, 0.49585,
 12:44:50.202,ed:35:33:d3:6c:f8, 2015-01-01 02:14:28.375, 0.965, -0.012, 0.237, 0, 0.366, -0.183, -3.29, -75.932, 149.084, -22.147, -9.347, -12.347, 27.08, 0.2269, 0.58673, -0.18573, 0.75476,
 12:44:50.202,ed:35:33:d3:6c:f8, 2015-01-01 02:14:28.375, 0.968, -0.01, 0.242, -0.061, 0.61, -0.183, -3.274, -75.921, 149.057, -22.147, -9.347, -12.347, 27.08, 0.2269, 0.58673, -0.18573, 0.75476,
 12:44:50.206,ed:40:fe:65:30:6c, 2015-01-01 02:14:28.400, 0.905, -0.192, 0.403, 0.061, 0.183, -0.244, -26.093, -63.594, -88.616, -25.967, -2.713, 6.493, 22.61, 0.51047, -0.49597, -0.2334, -0.66245,
 12:44:50.206,ed:40:fe:65:30:6c, 2015-01-01 02:14:28.400, 0.904, -0.195, 0.401, 0.488, 0.061, -0.061, -26.076, -63.594, -88.621, -25.967, -2.713, 6.493, 22.61, 0.51047, -0.49597, -0.2334, -0.66245,
 12:44:50.228,e3:ca:2d:fd:e0:8c, 2015-01-01 02:14:29.265, 0.979, -0.143, -0.257, -0.122, 0.061, 0.061, -150.65, -73.224, -67.231, -28.887, -9.167, -3.953, 23.86, 0.14804, 0.73117, -0.30182, 0.59354,
 12:44:50.228,e3:ca:2d:fd:e0:8c, 2015-01-01 02:14:29.265, 0.978, -0.143, -0.258, 0, 0.122, 0.122, -150.645, -73.224, -67.264, -28.887, -9.167, -3.953, 23.86, 0.14804, 0.73117, -0.30182, 0.59354,
 12:44:50.230,f6:90:cc:01:6d:25, 2015-01-01 02:14:29.400, 0.846, -0.111, -0.496, -0.183, -0.061, 0, -167.141, -59.189, -38.265, -31.213, -8.973, 10.587, 26.98, 0.06775, 0.83481, -0.22919, 0.49585,
 12:44:50.230,f6:90:cc:01:6d:25, 2015-01-01 02:14:29.400, 0.846, -0.112, -0.499, -0.366, -0.061, 0, -167.151, -59.183, -38.276, -31.213, -8.973, 10.587, 26.98, 0.06775, 0.83481, -0.22919, 0.49585,
 12:44:50.233,ed:35:33:d3:6c:f8, 2015-01-01 02:14:28.375, 0.966, -0.009, 0.242, 0, 0.122, -0.549, -3.224, -75.921, 149.002, -22.147, -9.347, -12.347, 27.08, 0.2269, 0.58673, -0.18573, 0.75476,
 12:44:50.233,ed:35:33:d3:6c:f8, 2015-01-01 02:14:28.375, 0.965, -0.011, 0.239, 0.793, 0.061, -0.122, -3.197, -75.921, 148.969, -22.147, -9.347, -12.347, 27.08, 0.2269, 0.58673, -0.18573, 0.75476,
 12:44:50.236,ed:40:fe:65:30:6c, 2015-01-01 02:14:28.400, 0.9, -0.197, 0.402, 0.61, 0.122, 0.122, -26.06, -63.594, -88.616, -25.647, -2.573, 6.260, 22.61, 0.51047, -0.49597, -0.2334, -0.66245,
 12:44:50.236,ed:40:fe:65:30:6c, 2015-01-01 02:14:28.400, 0.9, -0.192, 0.403, 0.305, 0, 0.183, -26.054, -63.594, -88.605, -25.647, -2.573, 6.260, 22.61, 0.51047, -0.49597, -0.2334, -0.66245,
 12:44:50.259,e3:ca:2d:fd:e0:8c, 2015-01-01 02:14:29.265, 0.976, -0.145, -0.258, -0.183, 0.427, 0, -150.634, -73.229, -67.302, -28.887, -9.167, -3.953, 23.86, 0.14804, 0.73117, -0.30182, 0.59354,
 12:44:50.259,e3:ca:2d:fd:e0:8c, 2015-01-01 02:14:29.265, 0.976, -0.143, -0.258, -0.305, 0.122, 0, -150.634, -73.229, -67.335, -28.887, -9.167, -3.953, 23.86, 0.14804, 0.73117, -0.30182, 0.59354,
 12:44:50.263,ed:35:33:d3:6c:f8, 2015-01-01 02:14:28.855, 0.961, -0.013, 0.241, 0.854, 0.305, 0.122, -3.186, -75.916, 148.936, -22.147, -9.347, -12.347, 27.08, 0.2269, 0.58673, -0.18573, 0.75476,
 12:44:50.263,ed:35:33:d3:6c:f8, 2015-01-01 02:14:28.855, 0.963, -0.011, 0.241, 0.305, 0.549, 0.061, -3.175, -75.905, 148.914, -22.147, -9.347, -12.347, 27.08, 0.2269, 0.58673, -0.18573, 0.75476,
 12:44:50.267,ed:40:fe:65:30:6c, 2015-01-01 02:14:28.400, 0.899, -0.193, 0.404, 0.122, 0, 0, -26.049, -63.594, -88.588, -25.647, -2.573, 6.260, 22.61, 0.51047, -0.49597, -0.2334, -0.66245,
 12:44:50.267,ed:40:fe:65:30:6c, 2015-01-01 02:14:28.400, 0.901, -0.192, 0.406, -0.183, -0.122, -0.244, -26.043, -63.594, -88.588, -25.647, -2.573, 6.260, 22.61, 0.51047, -0.49597, -0.2334, -0.66245,
 12:44:50.291,f6:90:cc:01:6d:25, 2015-01-01 02:14:29.400, 0.847, -0.11, -0.497, -0.305, -0.183, 0, -167.162, -59.178, -38.287, -31.213, -8.973, 10.587, 26.98, 0.06775, 0.83481, -0.22919, 0.49585,
 12:44:50.291,f6:90:cc:01:6d:25, 2015-01-01 02:14:29.400, 0.847, -0.108, -0.495, -0.122, -0.061, 0, -167.168, -59.178, -38.298, -31.213, -8.973, 10.587, 26.98, 0.06775, 0.83481, -0.22919, 0.49585,
 12:44:50.293,ed:35:33:d3:6c:f8, 2015-01-01 02:14:28.855, 0.961, -0.015, 0.245, -0.061, 0.549, -0.183, -3.159, -75.899, 148.881, -22.147, -9.347, -12.347, 27.08, 0.2269, 0.58673, -0.18573, 0.75476,
 12:44:50.293,ed:35:33:d3:6c:f8, 2015-01-01 02:14:28.855, 0.963, -0.011, 0.246, -0.305, 0.305, -0.305, -3.137, -75.888, 148.843, -22.147, -9.347, -12.347, 27.08, 0.2269, 0.58673, -0.18573, 0.75476,
 12:44:50.319,e3:ca:2d:fd:e0:8c, 2015-01-01 02:14:29.265, 0.975, -0.141, -0.258, -0.061, 0, 0, -150.639, -73.229, -67.357, -28.887, -9.167, -3.953, 23.86, 0.1506, 0.72995, -0.30466, 0.59293,
 12:44:50.319,e3:ca:2d:fd:e0:8c, 2015-01-01 02:14:29.265, 0.974, -0.142, -0.256, -0.061, 0, 0, -150.645, -73.229, -67.379, -28.887, -9.167, -3.953, 23.86, 0.1506, 0.72995, -0.30466, 0.59293,
 12:44:50.323,f6:90:cc:01:6d:25, 2015-01-01 02:14:29.400, 0.847, -0.109, -0.495, -0.183, 0, 0, -167.173, -59.172, -38.315, -31.213, -8.973, 10.587, 26.98, 0.06775, 0.83481, -0.22919, 0.49585,
 12:44:50.323,f6:90:cc:01:6d:25, 2015-01-01 02:14:29.400, 0.847, -0.111, -0.495, -0.061, 0, 0, -167.179, -59.172, -38.326, -31.213, -8.973, 10.587, 26.98, 0.06775, 0.83481, -0.22919, 0.49585,
 12:44:50.348,e3:ca:2d:fd:e0:8c, 2015-01-01 02:14:29.685, 0.977, -0.145, -0.257, -0.061, 0, 0, -150.65, -73.229, -67.401, -28.887, -9.167, -3.953, 23.86, 0.1506, 0.72995, -0.30466, 0.59293,
 12:44:50.348,e3:ca:2d:fd:e0:8c, 2015-01-01 02:14:29.685, 0.978, -0.146, -0.258, 0, 0, 0, -150.65, -73.229, -67.429, -28.887, -9.167, -3.953, 23.86, 0.1506, 0.72995, -0.30466, 0.59293,
 12:44:50.350,f6:90:cc:01:6d:25, 2015-01-01 02:14:29.400, 0.847, -0.112, -0.494, 0, 0, 0, -167.184, -59.172, -38.337, -31.293, -8.867, 11.027, 26.98, 0.06775, 0.83481, -0.22919, 0.49585,
 12:44:50.350,f6:90:cc:01:6d:25, 2015-01-01 02:14:29.400, 0.846, -0.113, -0.494, 0.122, 0, 0, -167.184, -59.167, -38.348, -31.293, -8.867, 11.027, 26.98, 0.06775, 0.83481, -0.22919, 0.49585,
 12:44:50.353,ed:35:33:d3:6c:f8, 2015-01-01 02:14:28.855, 0.961, -0.01, 0.245, -0.122, 0, -0.061, -3.131, -75.888, 148.843, -22.147, -9.347, -12.347, 27.08, 0.2269, 0.58673, -0.18573, 0.75476,
 12:44:50.353,ed:35:33:d3:6c:f8, 2015-01-01 02:14:28.855, 0.961, -0.009, 0.242, 0.061, -0.122, 0.122, -3.137, -75.894, 148.843, -22.147, -9.347, -12.347, 27.08, 0.2269, 0.58673, -0.18573, 0.75476,
 12:44:50.355,ed:40:fe:65:30:6c, 2015-01-01 02:14:28.400, 0.9, -0.193, 0.404, -0.061, -0.122, -0.183, -26.038, -63.6, -88.599, -25.647, -2.573, 6.260, 22.61, 0.5097, -0.49557, -0.23367, -0.66324,
 12:44:50.355,ed:40:fe:65:30:6c, 2015-01-01 02:14:28.400, 0.899, -0.193, 0.403, -0.061, -0.122, 0.061, -26.032, -63.6, -88.61, -25.647, -2.573, 6.260, 22.61, 0.5097, -0.49557, -0.23367, -0.66324,
 12:44:50.357,ed:40:fe:65:30:6c, 2015-01-01 02:14:28.400, 0.9, -0.193, 0.405, 0.122, -0.122, 0.366, -26.032, -63.605, -88.616, -25.647, -2.573, 6.260, 22.61, 0.5097, -0.49557, -0.23367, -0.66324,
 12:44:50.357,ed:40:fe:65:30:6c, 2015-01-01 02:14:28.400, 0.903, -0.196, 0.401, 0.244, 0, 0.488, -26.043, -63.6, -88.616, -25.647, -2.573, 6.260, 22.61, 0.5097, -0.49557, -0.23367, -0.66324,
 12:44:50.377,e3:ca:2d:fd:e0:8c, 2015-01-01 02:14:29.685, 0.976, -0.146, -0.257, 0, -0.244, 0, -150.656, -73.224, -67.44, -28.887, -9.167, -3.953, 23.86, 0.1506, 0.72995, -0.30466, 0.59293,
 12:44:50.377,e3:ca:2d:fd:e0:8c, 2015-01-01 02:14:29.685, 0.974, -0.145, -0.257, 0, -0.183, 0, -150.667, -73.218, -67.456, -28.887, -9.167, -3.953, 23.86, 0.1506, 0.72995, -0.30466, 0.59293,
 12:44:50.382,ed:35:33:d3:6c:f8, 2015-01-01 02:14:28.855, 0.963, -0.011, 0.244, 0.366, 0, 0.427, -3.159, -75.888, 148.87, -22.147, -9.347, -12.347, 27.08, 0.2269, 0.58673, -0.18573, 0.75476,
 12:44:50.382,ed:35:33:d3:6c:f8, 2015-01-01 02:14:28.855, 0.967, -0.017, 0.24, 0.305, 0.122, 0.427, -3.181, -75.888, 148.909, -22.147, -9.347, -12.347, 27.08, 0.2269, 0.58673, -0.18573, 0.75476,
 12:44:50.386,ed:40:fe:65:30:6c, 2015-01-01 02:14:28.760, 0.903, -0.195, 0.404, -0.061, 0.122, 0.061, -26.049, -63.594, -88.621, -25.647, -2.573, 6.260, 22.61, 0.5097, -0.49557, -0.23367, -0.66324,
 12:44:50.386,ed:40:fe:65:30:6c, 2015-01-01 02:14:28.760, 0.902, -0.195, 0.403, -0.305, -0.061, -0.305, -26.043, -63.594, -88.638, -25.647, -2.573, 6.260, 22.61, 0.5097, -0.49557, -0.23367, -0.66324,
 12:44:50.410,f6:90:cc:01:6d:25, 2015-01-01 02:14:29.400, 0.848, -0.111, -0.497, 0.183, 0, 0, -167.184, -59.167, -38.359, -31.293, -8.867, 11.027, 26.98, 0.06775, 0.83481, -0.22919, 0.49585,
 12:44:50.410,f6:90:cc:01:6d:25, 2015-01-01 02:14:29.400, 0.847, -0.109, -0.497, 0.244, 0, 0, -167.179, -59.167, -38.375, -31.293, -8.867, 11.027, 26.98, 0.06775, 0.83481, -0.22919, 0.49585,
 12:44:50.414,ed:35:33:d3:6c:f8, 2015-01-01 02:14:28.855, 0.964, -0.017, 0.245, -0.305, -0.122, -0.122, -3.175, -75.888, 148.909, -22.147, -9.347, -12.347, 27.08, 0.2269, 0.58673, -0.18573, 0.75476,
 12:44:50.414,ed:35:33:d3:6c:f8, 2015-01-01 02:14:28.855, 0.963, -0.009, 0.244, 0, -0.122, -0.061, -3.148, -75.894, 148.881, -22.147, -9.347, -12.347, 27.08, 0.2269, 0.58673, -0.18573, 0.75476,
 12:44:50.438,e3:ca:2d:fd:e0:8c, 2015-01-01 02:14:29.685, 0.977, -0.143, -0.255, 0.061, -0.183, 0, -150.672, -73.218, -67.473, -28.887, -9.167, -3.953, 23.86, 0.1506, 0.72995, -0.30466, 0.59293,
 12:44:50.438,e3:ca:2d:fd:e0:8c, 2015-01-01 02:14:29.685, 0.979, -0.144, -0.256, 0.122, -0.122, 0, -150.672, -73.213, -67.489, -28.887, -9.167, -3.953, 23.86, 0.1506, 0.72995, -0.30466, 0.59293,
 12:44:50.442,f6:90:cc:01:6d:25, 2015-01-01 02:14:29.400, 0.847, -0.109, -0.496, 0.061, 0, 0, -167.184, -59.167, -38.386, -31.293, -8.867, 11.027, 26.98, 0.06955, 0.83426, -0.23196, 0.49524,
 12:44:50.442,f6:90:cc:01:6d:25, 2015-01-01 02:14:29.400, 0.847, -0.111, -0.497, 0, 0, 0, -167.184, -59.161, -38.397, -31.293, -8.867, 11.027, 26.98, 0.06955, 0.83426, -0.23196, 0.49524,
 12:44:50.447,ed:40:fe:65:30:6c, 2015-01-01 02:14:28.760, 0.902, -0.195, 0.404, 0, -0.122, -0.122, -26.038, -63.6, -88.66, -25.647, -2.573, 6.260, 22.61, 0.5097, -0.49557, -0.23367, -0.66324,
 12:44:50.447,ed:40:fe:65:30:6c, 2015-01-01 02:14:28.760, 0.902, -0.194, 0.403, 0, -0.305, 0.183, -26.038, -63.6, -88.676, -25.647, -2.573, 6.260, 22.61, 0.5097, -0.49557, -0.23367, -0.66324,
 12:44:50.468,e3:ca:2d:fd:e0:8c, 2015-01-01 02:14:29.685, 0.979, -0.145, -0.256, 0.061, 0.061, 0, -150.672, -73.213, -67.511, -28.887, -9.167, -3.953, 23.86, 0.1506, 0.72995, -0.30466, 0.59293,
 12:44:50.468,e3:ca:2d:fd:e0:8c, 2015-01-01 02:14:29.685, 0.978, -0.145, -0.257, 0, 0, 0, -150.672, -73.213, -67.533, -28.887, -9.167, -3.953, 23.86, 0.1506, 0.72995, -0.30466, 0.59293,
 12:44:50.474,ed:35:33:d3:6c:f8, 2015-01-01 02:14:28.855, 0.964, -0.01, 0.242, 0, -0.244, 0.366, -3.148, -75.899, 148.892, -22.147, -9.347, -12.347, 27.08, 0.2269, 0.58673, -0.18573, 0.75476,
 12:44:50.474,ed:35:33:d3:6c:f8, 2015-01-01 02:14:28.855, 0.962, -0.013, 0.245, -0.061, -0.488, 0.244, -3.175, -75.899, 148.925, -22.147, -9.347, -12.347, 27.08, 0.2269, 0.58673, -0.18573, 0.75476,
 12:44:50.476,ed:40:fe:65:30:6c, 2015-01-01 02:14:28.760, 0.902, -0.193, 0.404, -0.061, -0.366, 0.305, -26.043, -63.605, -88.676, -25.647, -2.573, 6.260, 22.61, 0.5097, -0.49557, -0.23367, -0.66324,
 12:44:50.476,ed:40:fe:65:30:6c, 2015-01-01 02:14:28.760, 0.9, -0.19, 0.405, -0.305, -0.488, 0.122, -26.06, -63.611, -88.665, -25.647, -2.573, 6.260, 22.61, 0.5097, -0.49557, -0.23367, -0.66324,
 12:44:50.498,e3:ca:2d:fd:e0:8c, 2015-01-01 02:14:29.685, 0.975, -0.143, -0.257, 0.061, 0, 0, -150.667, -73.213, -67.555, -28.887, -9.167, -3.953, 23.86, 0.1506, 0.72995, -0.30466, 0.59293,
 12:44:50.498,e3:ca:2d:fd:e0:8c, 2015-01-01 02:14:29.685, 0.973, -0.142, -0.256, 0, 0, 0, -150.667, -73.213, -67.577, -28.887, -9.167, -3.953, 23.86, 0.1506, 0.72995, -0.30466, 0.59293,
 12:44:50.504,ed:35:33:d3:6c:f8, 2015-01-01 02:14:28.855, 0.96, -0.009, 0.244, -0.549, -0.671, 0, -3.192, -75.91, 148.936, -22.473, -9.453, -12.413, 27.08, 0.2269, 0.58673, -0.18573, 0.75476,
 12:44:50.504,ed:35:33:d3:6c:f8, 2015-01-01 02:14:28.855, 0.958, -0.008, 0.243, -0.793, -0.61, 0, -3.197, -75.921, 148.942, -22.473, -9.453, -12.413, 27.08, 0.2269, 0.58673, -0.18573, 0.75476,
 12:44:50.506,ed:40:fe:65:30:6c, 2015-01-01 02:14:28.760, 0.898, -0.19, 0.403, -0.61, -0.427, 0.122, -26.076, -63.616, -88.643, -25.647, -2.573, 6.260, 22.61, 0.5097, -0.49557, -0.23367, -0.66324,
 12:44:50.506,ed:40:fe:65:30:6c, 2015-01-01 02:14:28.760, 0.901, -0.187, 0.403, -0.977, -0.427, 0.061, -26.093, -63.622, -88.627, -25.647, -2.573, 6.260, 22.61, 0.5097, -0.49557, -0.23367, -0.66324,
 12:44:50.531,f6:90:cc:01:6d:25, 2015-01-01 02:14:29.400, 0.847, -0.113, -0.497, 0.061, 0, 0, -167.19, -59.161, -38.408, -31.293, -8.867, 11.027, 26.98, 0.06955, 0.83426, -0.23196, 0.49524,
 12:44:50.531,f6:90:cc:01:6d:25, 2015-01-01 02:14:29.400, 0.846, -0.109, -0.496, 0.122, 0.061, 0, -167.184, -59.161, -38.419, -31.293, -8.867, 11.027, 26.98, 0.06955, 0.83426, -0.23196, 0.49524,
 12:44:50.535,ed:35:33:d3:6c:f8, 2015-01-01 02:14:28.855, 0.965, -0.008, 0.243, -1.282, -0.61, 0, -3.214, -75.932, 148.953, -22.473, -9.453, -12.413, 27.08, 0.2269, 0.58673, -0.18573, 0.75476,
 12:44:50.535,ed:35:33:d3:6c:f8, 2015-01-01 02:14:28.855, 0.968, -0.011, 0.242, -1.343, -0.977, 0.183, -3.235, -75.943, 148.942, -22.473, -9.453, -12.413, 27.08, 0.2269, 0.58673, -0.18573, 0.75476,
 12:44:50.558,e3:ca:2d:fd:e0:8c, 2015-01-01 02:14:29.685, 0.975, -0.143, -0.257, -0.183, -0.061, 0, -150.672, -73.213, -67.593, -28.887, -9.167, -3.953, 23.86, 0.1506, 0.72995, -0.30466, 0.59293,
 12:44:50.558,e3:ca:2d:fd:e0:8c, 2015-01-01 02:14:29.685, 0.977, -0.144, -0.258, -0.183, -0.183, 0, -150.683, -73.213, -67.61, -28.887, -9.167, -3.953, 23.86, 0.1506, 0.72995, -0.30466, 0.59293,
 12:44:50.560,f6:90:cc:01:6d:25, 2015-01-01 02:14:29.785, 0.846, -0.108, -0.497, 0, 0, 0, -167.19, -59.156, -38.43, -31.293, -8.867, 11.027, 26.98, 0.06955, 0.83426, -0.23196, 0.49524,
 12:44:50.560,f6:90:cc:01:6d:25, 2015-01-01 02:14:29.785, 0.846, -0.108, -0.496, -0.183, 0, 0, -167.195, -59.156, -38.441, -31.293, -8.867, 11.027, 26.98, 0.06955, 0.83426, -0.23196, 0.49524,
 12:44:50.562,f6:90:cc:01:6d:25, 2015-01-01 02:14:29.785, 0.847, -0.109, -0.495, -0.305, 0, 0, -167.206, -59.156, -38.452, -31.293, -8.867, 11.027, 26.98, 0.06955, 0.83426, -0.23196, 0.49524,
 12:44:50.562,f6:90:cc:01:6d:25, 2015-01-01 02:14:29.785, 0.847, -0.111, -0.495, -0.122, 0, 0, -167.212, -59.156, -38.463, -31.293, -8.867, 11.027, 26.98, 0.06955, 0.83426, -0.23196, 0.49524,
 12:44:50.566,ed:40:fe:65:30:6c, 2015-01-01 02:14:28.760, 0.907, -0.193, 0.403, -1.282, -0.244, 0.061, -26.115, -63.627, -88.616, -25.647, -2.573, 6.260, 22.61, 0.5097, -0.49557, -0.23367, -0.66324,
 12:44:50.566,ed:40:fe:65:30:6c, 2015-01-01 02:14:28.760, 0.903, -0.197, 0.4, -0.916, -0.366, 0.366, -26.142, -63.633, -88.616, -25.647, -2.573, 6.260, 22.61, 0.5097, -0.49557, -0.23367, -0.66324,
 12:44:50.589,e3:ca:2d:fd:e0:8c, 2015-01-01 02:14:29.685, 0.978, -0.146, -0.258, -0.122, -0.183, 0, -150.694, -73.207, -67.621, -28.967, -9.120, -2.927, 23.86, 0.1506, 0.72995, -0.30466, 0.59293,
 12:44:50.589,e3:ca:2d:fd:e0:8c, 2015-01-01 02:14:29.685, 0.978, -0.146, -0.259, 0, -0.122, 0, -150.699, -73.207, -67.637, -28.967, -9.120, -2.927, 23.86, 0.1506, 0.72995, -0.30466, 0.59293,
 12:44:50.590,f6:90:cc:01:6d:25, 2015-01-01 02:14:29.785, 0.846, -0.114, -0.499, 0, 0.122, 0, -167.212, -59.156, -38.474, -31.293, -8.867, 11.027, 26.98, 0.06955, 0.83426, -0.23196, 0.49524,
 12:44:50.590,f6:90:cc:01:6d:25, 2015-01-01 02:14:29.785, 0.847, -0.112, -0.499, 0, 0.061, 0, -167.217, -59.156, -38.485, -31.293, -8.867, 11.027, 26.98, 0.06955, 0.83426, -0.23196, 0.49524,
 12:44:50.595,ed:40:fe:65:30:6c, 2015-01-01 02:14:28.760, 0.905, -0.197, 0.402, -0.854, -0.549, 0.549, -26.175, -63.638, -88.605, -25.713, -2.993, 6.780, 22.61, 0.5097, -0.49557, -0.23367, -0.66324,
 12:44:50.595,ed:40:fe:65:30:6c, 2015-01-01 02:14:28.760, 0.905, -0.201, 0.398, -0.61, -0.488, 0.671, -26.213, -63.638, -88.561, -25.713, -2.993, 6.780, 22.61, 0.5097, -0.49557, -0.23367, -0.66324,
 12:44:50.619,e3:ca:2d:fd:e0:8c, 2015-01-01 02:14:29.685, 0.978, -0.145, -0.258, 0.061, -0.122, 0, -150.705, -73.202, -67.654, -28.967, -9.120, -2.927, 23.86, 0.1506, 0.72995, -0.30466, 0.59293,
 12:44:50.619,e3:ca:2d:fd:e0:8c, 2015-01-01 02:14:29.685, 0.974, -0.144, -0.258, 0, 0, 0, -150.705, -73.202, -67.67, -28.967, -9.120, -2.927, 23.86, 0.1506, 0.72995, -0.30466, 0.59293,
 12:44:50.651,f6:90:cc:01:6d:25, 2015-01-01 02:14:29.785, 0.846, -0.109, -0.496, -0.061, 0.061, 0, -167.217, -59.15, -38.496, -31.293, -8.867, 11.027, 26.98, 0.06955, 0.83426, -0.23196, 0.49524,
 12:44:50.651,f6:90:cc:01:6d:25, 2015-01-01 02:14:29.785, 0.846, -0.109, -0.496, 0, 0.061, 0, -167.223, -59.15, -38.507, -31.293, -8.867, 11.027, 26.98, 0.06955, 0.83426, -0.23196, 0.49524,
 12:44:50.653,ed:35:33:d3:6c:f8, 2015-01-01 02:14:28.855, 0.966, -0.012, 0.24, -0.793, -1.465, 0.549, -3.279, -75.965, 148.936, -22.473, -9.453, -12.413, 27.08, 0.22766, 0.58661, -0.1861, 0.75452,
 12:44:50.653,ed:35:33:d3:6c:f8, 2015-01-01 02:14:28.855, 0.968, -0.016, 0.238, -0.671, -1.343, 0.732, -3.34, -75.992, 148.947, -22.473, -9.453, -12.413, 27.08, 0.22766, 0.58661, -0.1861, 0.75452,
 12:44:50.655,ed:40:fe:65:30:6c, 2015-01-01 02:14:28.760, 0.903, -0.2, 0.398, 0.061, -0.427, 0.732, -26.252, -63.644, -88.517, -25.713, -2.993, 6.780, 22.61, 0.5097, -0.49557, -0.23367, -0.66324,
 12:44:50.655,ed:40:fe:65:30:6c, 2015-01-01 02:14:28.760, 0.904, -0.197, 0.399, 0.305, -0.183, 0.549, -26.274, -63.644, -88.484, -25.713, -2.993, 6.780, 22.61, 0.5097, -0.49557, -0.23367, -0.66324,
 12:44:50.678,e3:ca:2d:fd:e0:8c, 2015-01-01 02:14:29.685, 0.972, -0.144, -0.255, 0, -0.061, 0, -150.705, -73.202, -67.687, -28.967, -9.120, -2.927, 23.86, 0.15259, 0.72906, -0.30725, 0.59216,
 12:44:50.678,e3:ca:2d:fd:e0:8c, 2015-01-01 02:14:29.685, 0.975, -0.143, -0.254, 0, -0.183, 0, -150.71, -73.196, -67.703, -28.967, -9.120, -2.927, 23.86, 0.15259, 0.72906, -0.30725, 0.59216,
 12:44:50.681,f6:90:cc:01:6d:25, 2015-01-01 02:14:29.785, 0.847, -0.111, -0.496, 0, 0.122, 0, -167.223, -59.15, -38.518, -31.293, -8.867, 11.027, 26.98, 0.06955, 0.83426, -0.23196, 0.49524,
 12:44:50.681,f6:90:cc:01:6d:25, 2015-01-01 02:14:29.785, 0.847, -0.109, -0.496, -0.061, 0.183, 0, -167.228, -59.156, -38.529, -31.293, -8.867, 11.027, 26.98, 0.06955, 0.83426, -0.23196, 0.49524,
 12:44:50.683,ed:35:33:d3:6c:f8, 2015-01-01 02:14:29.240, 0.966, -0.017, 0.234, -0.122, -1.221, 0.732, -3.406, -76.014, 148.969, -22.473, -9.453, -12.413, 27.08, 0.22766, 0.58661, -0.1861, 0.75452,
 12:44:50.683,ed:35:33:d3:6c:f8, 2015-01-01 02:14:29.240, 0.965, -0.017, 0.233, 0.427, -1.038, 0.549, -3.461, -76.036, 149.002, -22.473, -9.453, -12.413, 27.08, 0.22766, 0.58661, -0.1861, 0.75452,
 12:44:50.683,ed:35:33:d3:6c:f8, 2015-01-01 02:14:29.240, 0.965, -0.014, 0.235, 0.427, -0.549, 0.305, -3.494, -76.058, 149.041, -22.473, -9.453, -12.413, 27.08, 0.22766, 0.58661, -0.1861, 0.75452,
 12:44:50.683,ed:35:33:d3:6c:f8, 2015-01-01 02:14:29.240, 0.963, -0.009, 0.236, -0.122, -0.183, 0.122, -3.51, -76.064, 149.073, -22.473, -9.453, -12.413, 27.08, 0.22766, 0.58661, -0.1861, 0.75452,
 12:44:50.686,ed:40:fe:65:30:6c, 2015-01-01 02:14:28.760, 0.902, -0.191, 0.4, 0.183, 0, 0.366, -26.285, -63.644, -88.467, -25.713, -2.993, 6.780, 22.61, 0.50906, -0.49661, -0.23306, -0.66318,
 12:44:50.686,ed:40:fe:65:30:6c, 2015-01-01 02:14:28.760, 0.9, -0.19, 0.4, -0.244, 0, 0.061, -26.29, -63.638, -88.456, -25.713, -2.993, 6.780, 22.61, 0.50906, -0.49661, -0.23306, -0.66318,
 12:44:50.708,e3:ca:2d:fd:e0:8c, 2015-01-01 02:14:30.040, 0.979, -0.142, -0.256, 0, -0.183, 0, -150.721, -73.196, -67.714, -28.967, -9.120, -2.927, 23.86, 0.15259, 0.72906, -0.30725, 0.59216,
 12:44:50.708,e3:ca:2d:fd:e0:8c, 2015-01-01 02:14:30.040, 0.978, -0.142, -0.257, 0, -0.122, 0, -150.727, -73.191, -67.725, -28.967, -9.120, -2.927, 23.86, 0.15259, 0.72906, -0.30725, 0.59216,
 12:44:50.712,f6:90:cc:01:6d:25, 2015-01-01 02:14:29.785, 0.847, -0.108, -0.496, -0.244, 0.061, 0, -167.234, -59.156, -38.54, -31.293, -8.867, 11.027, 26.98, 0.06955, 0.83426, -0.23196, 0.49524,
 12:44:50.712,f6:90:cc:01:6d:25, 2015-01-01 02:14:29.785, 0.847, -0.109, -0.494, -0.122, 0, 0, -167.239, -59.15, -38.551, -31.293, -8.867, 11.027, 26.98, 0.06955, 0.83426, -0.23196, 0.49524,
 12:44:50.714,ed:35:33:d3:6c:f8, 2015-01-01 02:14:29.240, 0.964, -0.011, 0.239, -0.854, 0, 0, -3.516, -76.069, 149.101, -22.473, -9.453, -12.413, 27.08, 0.22766, 0.58661, -0.1861, 0.75452,
 12:44:50.714,ed:35:33:d3:6c:f8, 2015-01-01 02:14:29.240, 0.968, -0.014, 0.241, -1.404, -0.183, -0.061, -3.532, -76.069, 149.112, -22.473, -9.453, -12.413, 27.08, 0.22766, 0.58661, -0.1861, 0.75452,
 12:44:50.716,ed:40:fe:65:30:6c, 2015-01-01 02:14:28.760, 0.904, -0.193, 0.403, -0.732, 0.122, -0.183, -26.29, -63.638, -88.462, -25.713, -2.993, 6.780, 22.61, 0.50906, -0.49661, -0.23306, -0.66318,
 12:44:50.716,ed:40:fe:65:30:6c, 2015-01-01 02:14:28.760, 0.901, -0.2, 0.402, -0.732, 0.122, -0.183, -26.29, -63.644, -88.478, -25.713, -2.993, 6.780, 22.61, 0.50906, -0.49661, -0.23306, -0.66318,
 12:44:50.738,e3:ca:2d:fd:e0:8c, 2015-01-01 02:14:30.040, 0.978, -0.145, -0.258, 0, -0.183, 0, -150.732, -73.191, -67.736, -28.967, -9.120, -2.927, 23.86, 0.15259, 0.72906, -0.30725, 0.59216,
 12:44:50.738,e3:ca:2d:fd:e0:8c, 2015-01-01 02:14:30.040, 0.976, -0.146, -0.259, -0.183, -0.061, 0, -150.738, -73.191, -67.753, -28.967, -9.120, -2.927, 23.86, 0.15259, 0.72906, -0.30725, 0.59216,
 12:44:50.744,ed:35:33:d3:6c:f8, 2015-01-01 02:14:29.240, 0.964, -0.018, 0.238, -1.038, -0.305, 0, -3.549, -76.075, 149.106, -22.473, -9.453, -12.413, 27.08, 0.22766, 0.58661, -0.1861, 0.75452,
 12:44:50.744,ed:35:33:d3:6c:f8, 2015-01-01 02:14:29.240, 0.967, -0.019, 0.241, -0.366, -0.244, 0.427, -3.571, -76.08, 149.112, -22.473, -9.453, -12.413, 27.08, 0.22766, 0.58661, -0.1861, 0.75452,
 12:44:50.770,f6:90:cc:01:6d:25, 2015-01-01 02:14:29.785, 0.846, -0.113, -0.495, -0.244, 0, 0, -167.245, -59.15, -38.562, -31.293, -8.867, 11.027, 26.98, 0.06955, 0.83426, -0.23196, 0.49524,
 12:44:50.770,f6:90:cc:01:6d:25, 2015-01-01 02:14:29.785, 0.847, -0.113, -0.498, -0.122, 0.122, 0, -167.25, -59.15, -38.568, -31.293, -8.867, 11.027, 26.98, 0.06955, 0.83426, -0.23196, 0.49524,
 12:44:50.773,ed:35:33:d3:6c:f8, 2015-01-01 02:14:29.240, 0.968, -0.015, 0.233, 0.366, 0, 0.977, -3.62, -76.08, 149.167, -22.473, -9.453, -12.413, 27.08, 0.22766, 0.58661, -0.1861, 0.75452,
 12:44:50.773,ed:35:33:d3:6c:f8, 2015-01-01 02:14:29.240, 0.969, -0.016, 0.234, 0.488, -0.122, 0.366, -3.68, -76.08, 149.216, -22.473, -9.453, -12.413, 27.08, 0.22766, 0.58661, -0.1861, 0.75452,
 12:44:50.800,f6:90:cc:01:6d:25, 2015-01-01 02:14:29.785, 0.847, -0.108, -0.5, 0.183, 0.366, 0, -167.25, -59.15, -38.578, -30.753, -8.787, 10.447, 26.98, 0.06955, 0.83426, -0.23196, 0.49524,
 12:44:50.800,f6:90:cc:01:6d:25, 2015-01-01 02:14:29.785, 0.847, -0.108, -0.496, 0.305, 0.122, 0, -167.245, -59.156, -38.595, -30.753, -8.787, 10.447, 26.98, 0.06955, 0.83426, -0.23196, 0.49524,
 12:44:50.806,ed:40:fe:65:30:6c, 2015-01-01 02:14:29.145, 0.902, -0.206, 0.404, -0.366, -0.061, 0.122, -26.296, -63.644, -88.484, -25.713, -2.993, 6.780, 22.61, 0.50906, -0.49661, -0.23306, -0.66318,
 12:44:50.806,ed:40:fe:65:30:6c, 2015-01-01 02:14:29.145, 0.906, -0.201, 0.398, -0.061, -0.061, 0.732, -26.318, -63.638, -88.473, -25.713, -2.993, 6.780, 22.61, 0.50906, -0.49661, -0.23306, -0.66318,
 12:44:50.806,ed:40:fe:65:30:6c, 2015-01-01 02:14:29.145, 0.907, -0.196, 0.399, 0.427, -0.122, 0.732, -26.34, -63.633, -88.456, -25.713, -2.993, 6.780, 22.61, 0.50906, -0.49661, -0.23306, -0.66318,
 12:44:50.806,ed:40:fe:65:30:6c, 2015-01-01 02:14:29.145, 0.905, -0.195, 0.398, 0.549, 0, 0.366, -26.351, -63.627, -88.434, -25.713, -2.993, 6.780, 22.61, 0.50906, -0.49661, -0.23306, -0.66318,
 12:44:50.829,e3:ca:2d:fd:e0:8c, 2015-01-01 02:14:30.040, 0.974, -0.148, -0.257, -0.122, -0.122, 0, -150.743, -73.185, -67.769, -28.967, -9.120, -2.927, 23.86, 0.15259, 0.72906, -0.30725, 0.59216,
 12:44:50.830,e3:ca:2d:fd:e0:8c, 2015-01-01 02:14:30.040, 0.977, -0.145, -0.26, 0, -0.183, 0, -150.749, -73.185, -67.78, -28.967, -9.120, -2.927, 23.86, 0.15259, 0.72906, -0.30725, 0.59216,
 12:44:50.830,e3:ca:2d:fd:e0:8c, 2015-01-01 02:14:30.040, 0.979, -0.145, -0.26, 0.122, 0.122, 0, -150.743, -73.185, -67.797, -28.967, -9.120, -2.927, 23.86, 0.15259, 0.72906, -0.30725, 0.59216,
 12:44:50.830,e3:ca:2d:fd:e0:8c, 2015-01-01 02:14:30.040, 0.979, -0.144, -0.258, 0.122, 0, 0, -150.743, -73.18, -67.813, -28.967, -9.120, -2.927, 23.86, 0.15259, 0.72906, -0.30725, 0.59216,
 12:44:50.831,f6:90:cc:01:6d:25, 2015-01-01 02:14:29.785, 0.846, -0.109, -0.499, -0.061, 0.061, 0, -167.239, -59.156, -38.6, -30.753, -8.787, 10.447, 26.98, 0.06955, 0.83426, -0.23196, 0.49524,
 12:44:50.831,f6:90:cc:01:6d:25, 2015-01-01 02:14:29.785, 0.848, -0.111, -0.5, -0.183, 0, 0, -167.245, -59.156, -38.611, -30.753, -8.787, 10.447, 26.98, 0.06955, 0.83426, -0.23196, 0.49524,
 12:44:50.833,ed:35:33:d3:6c:f8, 2015-01-01 02:14:29.240, 0.966, -0.012, 0.234, 0.793, -0.183, 0, -3.691, -76.086, 149.227, -22.473, -9.453, -12.413, 27.08, 0.22766, 0.58661, -0.1861, 0.75452,
 12:44:50.833,ed:35:33:d3:6c:f8, 2015-01-01 02:14:29.240, 0.963, -0.012, 0.235, 0.488, 0.122, 0.183, -3.68, -76.091, 149.222, -22.473, -9.453, -12.413, 27.08, 0.22766, 0.58661, -0.1861, 0.75452,
 12:44:50.835,ed:40:fe:65:30:6c, 2015-01-01 02:14:29.145, 0.901, -0.195, 0.397, 0.549, 0, 0.305, -26.351, -63.627, -88.429, -25.713, -2.993, 6.780, 22.61, 0.50906, -0.49661, -0.23306, -0.66318,
 12:44:50.835,ed:40:fe:65:30:6c, 2015-01-01 02:14:29.145, 0.901, -0.195, 0.401, 0.061, 0.061, 0.183, -26.351, -63.627, -88.429, -25.713, -2.993, 6.780, 22.61, 0.50906, -0.49661, -0.23306, -0.66318,
 12:44:50.865,ed:35:33:d3:6c:f8, 2015-01-01 02:14:29.240, 0.963, -0.016, 0.239, -0.183, 0.488, 0.061, -3.68, -76.086, 149.238, -22.473, -9.453, -12.413, 27.08, 0.22766, 0.58661, -0.1861, 0.75452,
 12:44:50.865,ed:35:33:d3:6c:f8, 2015-01-01 02:14:29.240, 0.963, -0.016, 0.243, -0.671, 0.366, -0.244, -3.68, -76.08, 149.249, -22.473, -9.453, -12.413, 27.08, 0.22766, 0.58661, -0.1861, 0.75452,
 12:44:50.889,e3:ca:2d:fd:e0:8c, 2015-01-01 02:14:30.040, 0.976, -0.143, -0.261, 0, 0.244, 0, -150.732, -73.185, -67.841, -28.967, -9.120, -2.927, 23.86, 0.15259, 0.72906, -0.30725, 0.59216,
 12:44:50.889,e3:ca:2d:fd:e0:8c, 2015-01-01 02:14:30.040, 0.975, -0.145, -0.257, -0.366, 0.305, 0, -150.732, -73.191, -67.868, -28.967, -9.120, -2.927, 23.86, 0.15259, 0.72906, -0.30725, 0.59216,
 12:44:50.891,f6:90:cc:01:6d:25, 2015-01-01 02:14:29.785, 0.847, -0.11, -0.496, -0.183, 0, 0, -167.25, -59.15, -38.622, -30.753, -8.787, 10.447, 26.98, 0.07104, 0.83377, -0.23404, 0.49487,
 12:44:50.891,f6:90:cc:01:6d:25, 2015-01-01 02:14:29.785, 0.847, -0.11, -0.495, -0.366, 0.061, 0, -167.261, -59.15, -38.628, -30.753, -8.787, 10.447, 26.98, 0.07104, 0.83377, -0.23404, 0.49487,
 12:44:50.895,ed:40:fe:65:30:6c, 2015-01-01 02:14:29.145, 0.9, -0.196, 0.404, -0.305, 0.061, 0, -26.351, -63.627, -88.434, -25.713, -2.993, 6.780, 22.61, 0.50906, -0.49661, -0.23306, -0.66318,
 12:44:50.895,ed:40:fe:65:30:6c, 2015-01-01 02:14:29.145, 0.902, -0.198, 0.405, -0.549, -0.122, -0.122, -26.356, -63.627, -88.44, -25.713, -2.993, 6.780, 22.61, 0.50906, -0.49661, -0.23306, -0.66318,
 12:44:50.921,f6:90:cc:01:6d:25, 2015-01-01 02:14:30.205, 0.846, -0.112, -0.495, -0.427, 0, 0, -167.267, -59.15, -38.639, -30.753, -8.787, 10.447, 26.98, 0.07104, 0.83377, -0.23404, 0.49487,
 12:44:50.921,f6:90:cc:01:6d:25, 2015-01-01 02:14:30.205, 0.847, -0.113, -0.494, -0.366, 0, 0, -167.278, -59.145, -38.65, -30.753, -8.787, 10.447, 26.98, 0.07104, 0.83377, -0.23404, 0.49487,
 12:44:50.927,ed:40:fe:65:30:6c, 2015-01-01 02:14:29.145, 0.902, -0.2, 0.404, -0.366, -0.244, 0, -26.362, -63.633, -88.44, -25.713, -2.993, 6.780, 22.61, 0.50906, -0.49661, -0.23306, -0.66318,
 12:44:50.927,ed:40:fe:65:30:6c, 2015-01-01 02:14:29.145, 0.903, -0.2, 0.401, -0.244, -0.366, 0.244, -26.378, -63.633, -88.434, -25.713, -2.993, 6.780, 22.61, 0.50906, -0.49661, -0.23306, -0.66318,
 12:44:50.949,e3:ca:2d:fd:e0:8c, 2015-01-01 02:14:30.040, 0.976, -0.142, -0.258, -0.305, 0, 0, -150.738, -73.191, -67.885, -28.967, -9.120, -2.927, 23.86, 0.15259, 0.72906, -0.30725, 0.59216,
 12:44:50.949,e3:ca:2d:fd:e0:8c, 2015-01-01 02:14:30.040, 0.974, -0.143, -0.257, -0.122, -0.122, 0, -150.749, -73.185, -67.896, -28.967, -9.120, -2.927, 23.86, 0.15259, 0.72906, -0.30725, 0.59216,
 12:44:50.951,f6:90:cc:01:6d:25, 2015-01-01 02:14:30.205, 0.846, -0.112, -0.493, -0.366, 0, 0, -167.289, -59.145, -38.655, -30.753, -8.787, 10.447, 26.98, 0.07104, 0.83377, -0.23404, 0.49487,
 12:44:50.951,f6:90:cc:01:6d:25, 2015-01-01 02:14:30.205, 0.847, -0.111, -0.493, -0.366, 0.122, 0, -167.294, -59.145, -38.666, -30.753, -8.787, 10.447, 26.98, 0.07104, 0.83377, -0.23404, 0.49487,
 12:44:50.953,ed:35:33:d3:6c:f8, 2015-01-01 02:14:29.240, 0.965, -0.017, 0.244, -0.732, 0.122, -0.122, -3.675, -76.075, 149.244, -22.087, -9.713, -12.240, 27.08, 0.22766, 0.58661, -0.1861, 0.75452,
 12:44:50.953,ed:35:33:d3:6c:f8, 2015-01-01 02:14:29.240, 0.965, -0.015, 0.241, -0.244, -0.244, 0.183, -3.68, -76.075, 149.266, -22.087, -9.713, -12.240, 27.08, 0.22766, 0.58661, -0.1861, 0.75452,
 12:44:50.955,ed:40:fe:65:30:6c, 2015-01-01 02:14:29.145, 0.901, -0.203, 0.398, 0.183, -0.244, 0.488, -26.395, -63.638, -88.412, -25.807, -2.787, 6.627, 22.61, 0.50906, -0.49661, -0.23306, -0.66318,
 12:44:50.955,ed:40:fe:65:30:6c, 2015-01-01 02:14:29.145, 0.903, -0.2, 0.398, 0.427, -0.061, 0.305, -26.406, -63.638, -88.391, -25.807, -2.787, 6.627, 22.61, 0.50906, -0.49661, -0.23306, -0.66318,
 12:44:50.979,e3:ca:2d:fd:e0:8c, 2015-01-01 02:14:30.040, 0.972, -0.146, -0.256, -0.244, -0.183, 0, -150.76, -73.185, -67.906, -28.920, -9.207, -3.427, 23.86, 0.15259, 0.72906, -0.30725, 0.59216,
 12:44:50.979,e3:ca:2d:fd:e0:8c, 2015-01-01 02:14:30.040, 0.972, -0.148, -0.256, -0.183, -0.244, 0, -150.771, -73.18, -67.912, -28.920, -9.207, -3.427, 23.86, 0.15259, 0.72906, -0.30725, 0.59216,
 12:44:50.983,ed:35:33:d3:6c:f8, 2015-01-01 02:14:29.240, 0.965, -0.017, 0.235, 0.122, -0.488, 0.427, -3.708, -76.08, 149.31, -22.087, -9.713, -12.240, 27.08, 0.22766, 0.58661, -0.1861, 0.75452,
 12:44:50.983,ed:35:33:d3:6c:f8, 2015-01-01 02:14:29.240, 0.964, -0.021, 0.233, 0.61, -0.305, 0.488, -3.741, -76.086, 149.365, -22.087, -9.713, -12.240, 27.08, 0.22766, 0.58661, -0.1861, 0.75452,
 12:44:51.008,e3:ca:2d:fd:e0:8c, 2015-01-01 02:14:30.040, 0.974, -0.146, -0.254, -0.122, -0.488, 0, -150.782, -73.169, -67.912, -28.920, -9.207, -3.427, 23.86, 0.15259, 0.72906, -0.30725, 0.59216,
 12:44:51.008,e3:ca:2d:fd:e0:8c, 2015-01-01 02:14:30.040, 0.977, -0.144, -0.255, -0.183, -0.671, 0, -150.804, -73.158, -67.906, -28.920, -9.207, -3.427, 23.86, 0.15259, 0.72906, -0.30725, 0.59216,
 12:44:51.010,f6:90:cc:01:6d:25, 2015-01-01 02:14:30.205, 0.847, -0.109, -0.495, -0.488, 0.244, 0, -167.3, -59.145, -38.677, -30.753, -8.787, 10.447, 26.98, 0.07104, 0.83377, -0.23404, 0.49487,
 12:44:51.010,f6:90:cc:01:6d:25, 2015-01-01 02:14:30.205, 0.847, -0.106, -0.494, -0.488, 0.183, 0, -167.311, -59.15, -38.683, -30.753, -8.787, 10.447, 26.98, 0.07104, 0.83377, -0.23404, 0.49487,
 12:44:51.016,ed:40:fe:65:30:6c, 2015-01-01 02:14:29.145, 0.904, -0.198, 0.399, 0.366, 0.305, 0, -26.4, -63.633, -88.38, -25.807, -2.787, 6.627, 22.61, 0.50906, -0.49661, -0.23306, -0.66318,
 12:44:51.016,ed:40:fe:65:30:6c, 2015-01-01 02:14:29.145, 0.901, -0.195, 0.402, 0, 0.427, -0.549, -26.378, -63.627, -88.396, -25.807, -2.787, 6.627, 22.61, 0.50906, -0.49661, -0.23306, -0.66318,
 12:44:51.038,e3:ca:2d:fd:e0:8c, 2015-01-01 02:14:30.040, 0.978, -0.143, -0.257, -0.183, -0.549, 0, -150.826, -73.147, -67.901, -28.920, -9.207, -3.427, 23.86, 0.15259, 0.72906, -0.30725, 0.59216,
 12:44:51.038,e3:ca:2d:fd:e0:8c, 2015-01-01 02:14:30.040, 0.976, -0.143, -0.256, -0.305, -0.549, 0.305, -150.831, -73.136, -67.917, -28.920, -9.207, -3.427, 23.86, 0.15259, 0.72906, -0.30725, 0.59216,
 12:44:51.040,f6:90:cc:01:6d:25, 2015-01-01 02:14:30.205, 0.847, -0.105, -0.495, -0.793, 0.061, 0, -167.322, -59.15, -38.694, -30.753, -8.787, 10.447, 26.98, 0.07104, 0.83377, -0.23404, 0.49487,
 12:44:51.040,f6:90:cc:01:6d:25, 2015-01-01 02:14:30.205, 0.846, -0.109, -0.496, -0.977, 0, 0, -167.338, -59.15, -38.705, -30.753, -8.787, 10.447, 26.98, 0.07104, 0.83377, -0.23404, 0.49487,
 12:44:51.044,ed:35:33:d3:6c:f8, 2015-01-01 02:14:29.240, 0.967, -0.018, 0.231, 0.61, 0.122, 0.061, -3.763, -76.091, 149.392, -22.087, -9.713, -12.240, 27.08, 0.22745, 0.58719, -0.18753, 0.75378,
 12:44:51.044,ed:35:33:d3:6c:f8, 2015-01-01 02:14:29.240, 0.965, -0.018, 0.235, 0, 0.488, -0.366, -3.752, -76.086, 149.387, -22.087, -9.713, -12.240, 27.08, 0.22745, 0.58719, -0.18753, 0.75378,
 12:44:51.046,ed:40:fe:65:30:6c, 2015-01-01 02:14:29.145, 0.904, -0.195, 0.404, 0, 0.366, -0.977, -26.345, -63.627, -88.429, -25.807, -2.787, 6.627, 22.61, 0.50922, -0.49686, -0.23276, -0.66296,
 12:44:51.046,ed:40:fe:65:30:6c, 2015-01-01 02:14:29.145, 0.902, -0.198, 0.405, 0.488, 0.183, -0.916, -26.296, -63.633, -88.467, -25.807, -2.787, 6.627, 22.61, 0.50922, -0.49686, -0.23276, -0.66296,
 12:44:51.068,e3:ca:2d:fd:e0:8c, 2015-01-01 02:14:30.040, 0.975, -0.143, -0.256, -0.427, -0.671, 0.244, -150.842, -73.125, -67.923, -28.920, -9.207, -3.427, 23.86, 0.1543, 0.72845, -0.30963, 0.59122,
 12:44:51.068,e3:ca:2d:fd:e0:8c, 2015-01-01 02:14:30.040, 0.978, -0.144, -0.259, -0.61, -0.488, 0.122, -150.864, -73.114, -67.928, -28.920, -9.207, -3.427, 23.86, 0.1543, 0.72845, -0.30963, 0.59122,
 12:44:51.070,f6:90:cc:01:6d:25, 2015-01-01 02:14:30.205, 0.847, -0.113, -0.496, -0.732, 0.061, 0, -167.36, -59.15, -38.71, -30.753, -8.787, 10.447, 26.98, 0.07104, 0.83377, -0.23404, 0.49487,
 12:44:51.070,f6:90:cc:01:6d:25, 2015-01-01 02:14:30.205, 0.847, -0.11, -0.498, -0.366, 0.122, 0, -167.377, -59.15, -38.721, -30.753, -8.787, 10.447, 26.98, 0.07104, 0.83377, -0.23404, 0.49487,
 12:44:51.074,ed:35:33:d3:6c:f8, 2015-01-01 02:14:29.240, 0.966, -0.018, 0.24, -0.122, 0.305, -1.282, -3.708, -76.08, 149.326, -22.087, -9.713, -12.240, 27.08, 0.22745, 0.58719, -0.18753, 0.75378,
 12:44:51.074,ed:35:33:d3:6c:f8, 2015-01-01 02:14:29.240, 0.967, -0.015, 0.242, 0.122, 0.427, -1.404, -3.609, -76.075, 149.211, -22.087, -9.713, -12.240, 27.08, 0.22745, 0.58719, -0.18753, 0.75378,
 12:44:51.077,ed:40:fe:65:30:6c, 2015-01-01 02:14:29.145, 0.903, -0.197, 0.402, 0.732, 0, -0.671, -26.252, -63.638, -88.484, -25.807, -2.787, 6.627, 22.61, 0.50922, -0.49686, -0.23276, -0.66296,
 12:44:51.077,ed:40:fe:65:30:6c, 2015-01-01 02:14:29.145, 0.903, -0.192, 0.403, 0.549, -0.061, -0.488, -26.219, -63.644, -88.495, -25.807, -2.787, 6.627, 22.61, 0.50922, -0.49686, -0.23276, -0.66296,
 12:44:51.104,ed:35:33:d3:6c:f8, 2015-01-01 02:14:29.240, 0.963, -0.014, 0.241, 0.61, 0.183, -1.099, -3.499, -76.069, 149.095, -22.087, -9.713, -12.240, 27.08, 0.22745, 0.58719, -0.18753, 0.75378,
 12:44:51.104,ed:35:33:d3:6c:f8, 2015-01-01 02:14:29.240, 0.966, -0.013, 0.24, 0.671, 0.305, -0.854, -3.406, -76.069, 149.008, -22.087, -9.713, -12.240, 27.08, 0.22745, 0.58719, -0.18753, 0.75378,
 12:44:51.128,e3:ca:2d:fd:e0:8c, 2015-01-01 02:14:30.040, 0.979, -0.144, -0.261, -0.671, -0.061, 0, -150.875, -73.114, -67.939, -28.920, -9.207, -3.427, 23.86, 0.1543, 0.72845, -0.30963, 0.59122,
 12:44:51.128,e3:ca:2d:fd:e0:8c, 2015-01-01 02:14:30.040, 0.979, -0.143, -0.262, -0.488, -0.122, 0, -150.892, -73.114, -67.95, -28.920, -9.207, -3.427, 23.86, 0.1543, 0.72845, -0.30963, 0.59122,
 12:44:51.130,f6:90:cc:01:6d:25, 2015-01-01 02:14:30.205, 0.847, -0.107, -0.499, -0.366, 0, 0, -167.382, -59.15, -38.727, -30.753, -8.787, 10.447, 26.98, 0.07104, 0.83377, -0.23404, 0.49487,
 12:44:51.130,f6:90:cc:01:6d:25, 2015-01-01 02:14:30.205, 0.847, -0.107, -0.499, -0.305, 0, 0, -167.393, -59.15, -38.738, -30.753, -8.787, 10.447, 26.98, 0.07104, 0.83377, -0.23404, 0.49487,
 12:44:51.134,ed:35:33:d3:6c:f8, 2015-01-01 02:14:29.690, 0.964, -0.007, 0.239, 0.488, 0.549, -0.854, -3.329, -76.064, 148.947, -22.087, -9.713, -12.240, 27.08, 0.22745, 0.58719, -0.18753, 0.75378,
 12:44:51.134,ed:35:33:d3:6c:f8, 2015-01-01 02:14:29.690, 0.962, -0.008, 0.241, 0.122, 0.427, -0.793, -3.252, -76.053, 148.876, -22.087, -9.713, -12.240, 27.08, 0.22745, 0.58719, -0.18753, 0.75378,
 12:44:51.136,ed:40:fe:65:30:6c, 2015-01-01 02:14:29.505, 0.902, -0.191, 0.401, 0.244, -0.183, -0.427, -26.197, -63.649, -88.495, -25.807, -2.787, 6.627, 22.61, 0.50922, -0.49686, -0.23276, -0.66296,
 12:44:51.136,ed:40:fe:65:30:6c, 2015-01-01 02:14:29.505, 0.904, -0.189, 0.401, -0.061, -0.061, -0.488, -26.175, -63.655, -88.5, -25.807, -2.787, 6.627, 22.61, 0.50922, -0.49686, -0.23276, -0.66296,
 12:44:51.158,e3:ca:2d:fd:e0:8c, 2015-01-01 02:14:30.460, 0.977, -0.144, -0.263, -0.427, -0.183, 0.061, -150.903, -73.109, -67.961, -28.920, -9.207, -3.427, 23.86, 0.1543, 0.72845, -0.30963, 0.59122,
 12:44:51.158,e3:ca:2d:fd:e0:8c, 2015-01-01 02:14:30.460, 0.974, -0.145, -0.263, -0.671, 0, 0.061, -150.914, -73.109, -67.978, -28.920, -9.207, -3.427, 23.86, 0.1543, 0.72845, -0.30963, 0.59122,
 12:44:51.161,f6:90:cc:01:6d:25, 2015-01-01 02:14:30.205, 0.846, -0.108, -0.499, -0.366, -0.122, 0, -167.399, -59.15, -38.743, -31.113, -8.813, 11.067, 26.98, 0.07104, 0.83377, -0.23404, 0.49487,
 12:44:51.161,f6:90:cc:01:6d:25, 2015-01-01 02:14:30.205, 0.846, -0.107, -0.499, -0.61, -0.244, 0.305, -167.41, -59.145, -38.754, -31.113, -8.813, 11.067, 26.98, 0.07104, 0.83377, -0.23404, 0.49487,
 12:44:51.163,ed:35:33:d3:6c:f8, 2015-01-01 02:14:29.690, 0.968, -0.009, 0.24, -0.061, 0.244, -0.732, -3.186, -76.047, 148.815, -22.087, -9.713, -12.240, 27.08, 0.22745, 0.58719, -0.18753, 0.75378,
 12:44:51.163,ed:35:33:d3:6c:f8, 2015-01-01 02:14:29.690, 0.966, -0.012, 0.236, -0.061, -0.244, -0.977, -3.12, -76.042, 148.749, -22.087, -9.713, -12.240, 27.08, 0.22745, 0.58719, -0.18753, 0.75378,
 12:44:51.165,ed:40:fe:65:30:6c, 2015-01-01 02:14:29.505, 0.907, -0.193, 0.4, -0.366, -0.061, -0.61, -26.158, -63.66, -88.517, -25.807, -2.787, 6.627, 22.61, 0.50922, -0.49686, -0.23276, -0.66296,
 12:44:51.165,ed:40:fe:65:30:6c, 2015-01-01 02:14:29.505, 0.903, -0.194, 0.398, -0.366, 0, -0.854, -26.136, -63.666, -88.539, -25.807, -2.787, 6.627, 22.61, 0.50922, -0.49686, -0.23276, -0.66296,
 12:44:51.189,e3:ca:2d:fd:e0:8c, 2015-01-01 02:14:30.460, 0.973, -0.145, -0.262, -0.854, -0.061, 0.061, -150.93, -73.103, -67.994, -28.920, -9.207, -3.427, 23.86, 0.1543, 0.72845, -0.30963, 0.59122,
 12:44:51.189,e3:ca:2d:fd:e0:8c, 2015-01-01 02:14:30.460, 0.975, -0.145, -0.261, -0.854, -0.061, 0.061, -150.947, -73.103, -68.011, -28.920, -9.207, -3.427, 23.86, 0.1543, 0.72845, -0.30963, 0.59122,
 12:44:51.191,f6:90:cc:01:6d:25, 2015-01-01 02:14:30.205, 0.846, -0.11, -0.499, -0.671, -0.122, 0.305, -167.415, -59.134, -38.771, -31.113, -8.813, 11.067, 26.98, 0.07104, 0.83377, -0.23404, 0.49487,
 12:44:51.191,f6:90:cc:01:6d:25, 2015-01-01 02:14:30.205, 0.846, -0.111, -0.499, -0.427, -0.122, 0.305, -167.421, -59.128, -38.787, -31.113, -8.813, 11.067, 26.98, 0.07104, 0.83377, -0.23404, 0.49487,
 12:44:51.193,ed:35:33:d3:6c:f8, 2015-01-01 02:14:29.690, 0.966, -0.012, 0.236, 0, -0.366, -1.221, -3.038, -76.053, 148.689, -22.087, -9.713, -12.240, 27.08, 0.22745, 0.58719, -0.18753, 0.75378,
 12:44:51.193,ed:35:33:d3:6c:f8, 2015-01-01 02:14:29.690, 0.966, -0.01, 0.235, 0.305, -0.061, -0.977, -2.944, -76.058, 148.596, -22.087, -9.713, -12.240, 27.08, 0.22745, 0.58719, -0.18753, 0.75378,
 12:44:51.223,ed:35:33:d3:6c:f8, 2015-01-01 02:14:29.690, 0.965, -0.011, 0.236, 0.671, -0.061, -0.671, -2.862, -76.064, 148.513, -22.087, -9.713, -12.240, 27.08, 0.22745, 0.58719, -0.18753, 0.75378,
 12:44:51.223,ed:35:33:d3:6c:f8, 2015-01-01 02:14:29.690, 0.965, -0.007, 0.239, 0.427, -0.122, -0.732, -2.796, -76.064, 148.469, -22.087, -9.713, -12.240, 27.08, 0.22745, 0.58719, -0.18753, 0.75378,
 12:44:51.225,ed:40:fe:65:30:6c, 2015-01-01 02:14:29.505, 0.905, -0.195, 0.399, -0.122, 0.122, -0.916, -26.104, -63.677, -88.572, -25.807, -2.787, 6.627, 22.61, 0.50922, -0.49686, -0.23276, -0.66296,
 12:44:51.225,ed:40:fe:65:30:6c, 2015-01-01 02:14:29.505, 0.904, -0.196, 0.398, 0.305, 0.305, -0.671, -26.065, -63.677, -88.594, -25.807, -2.787, 6.627, 22.61, 0.50922, -0.49686, -0.23276, -0.66296,
 12:44:51.251,f6:90:cc:01:6d:25, 2015-01-01 02:14:30.205, 0.846, -0.11, -0.5, -0.183, 0, 0.305, -167.421, -59.123, -38.809, -31.113, -8.813, 11.067, 26.98, 0.073, 0.8334, -0.23611, 0.49423,
 12:44:51.251,f6:90:cc:01:6d:25, 2015-01-01 02:14:30.205, 0.846, -0.109, -0.501, -0.183, 0, 0.244, -167.415, -59.123, -38.826, -31.113, -8.813, 11.067, 26.98, 0.073, 0.8334, -0.23611, 0.49423,
 12:44:51.255,ed:40:fe:65:30:6c, 2015-01-01 02:14:29.505, 0.904, -0.193, 0.4, 0.305, 0.244, -0.549, -26.032, -63.682, -88.61, -25.807, -2.787, 6.627, 22.61, 0.50922, -0.49686, -0.23276, -0.66296,
 12:44:51.255,ed:40:fe:65:30:6c, 2015-01-01 02:14:29.505, 0.906, -0.188, 0.4, -0.122, 0.183, -0.549, -26.005, -63.682, -88.632, -25.807, -2.787, 6.627, 22.61, 0.50922, -0.49686, -0.23276, -0.66296,
 12:44:51.279,e3:ca:2d:fd:e0:8c, 2015-01-01 02:14:30.460, 0.979, -0.145, -0.261, -0.916, -0.061, 0.061, -150.969, -73.098, -68.027, -28.920, -9.207, -3.427, 23.86, 0.1543, 0.72845, -0.30963, 0.59122,
 12:44:51.279,e3:ca:2d:fd:e0:8c, 2015-01-01 02:14:30.460, 0.979, -0.146, -0.263, -0.793, 0.122, 0.122, -150.974, -73.098, -68.049, -28.920, -9.207, -3.427, 23.86, 0.1543, 0.72845, -0.30963, 0.59122,
 12:44:51.279,e3:ca:2d:fd:e0:8c, 2015-01-01 02:14:30.460, 0.975, -0.145, -0.26, -0.549, 0.122, 0.183, -150.969, -73.098, -68.077, -28.920, -9.207, -3.427, 23.86, 0.1543, 0.72845, -0.30963, 0.59122,
 12:44:51.279,e3:ca:2d:fd:e0:8c, 2015-01-01 02:14:30.460, 0.975, -0.144, -0.259, -0.366, 0, 0.244, -150.963, -73.098, -68.104, -28.920, -9.207, -3.427, 23.86, 0.1543, 0.72845, -0.30963, 0.59122,
 12:44:51.281,f6:90:cc:01:6d:25, 2015-01-01 02:14:30.560, 0.846, -0.109, -0.5, -0.183, 0.122, 0.305, -167.415, -59.117, -38.842, -31.113, -8.813, 11.067, 26.98, 0.073, 0.8334, -0.23611, 0.49423,
 12:44:51.281,f6:90:cc:01:6d:25, 2015-01-01 02:14:30.560, 0.846, -0.11, -0.497, -0.183, 0.122, 0.305, -167.41, -59.117, -38.864, -31.113, -8.813, 11.067, 26.98, 0.073, 0.8334, -0.23611, 0.49423,
 12:44:51.282,ed:35:33:d3:6c:f8, 2015-01-01 02:14:29.690, 0.965, -0.001, 0.238, -0.183, -0.244, -0.793, -2.73, -76.069, 148.425, -22.087, -9.713, -12.240, 27.08, 0.22745, 0.58719, -0.18753, 0.75378,
 12:44:51.282,ed:35:33:d3:6c:f8, 2015-01-01 02:14:29.690, 0.961, -0.003, 0.241, -0.61, -0.061, -0.305, -2.675, -76.075, 148.387, -22.087, -9.713, -12.240, 27.08, 0.22745, 0.58719, -0.18753, 0.75378,
 12:44:51.286,ed:40:fe:65:30:6c, 2015-01-01 02:14:29.505, 0.902, -0.188, 0.401, -0.488, 0.061, -0.366, -25.994, -63.688, -88.638, -25.807, -2.787, 6.627, 22.61, 0.50922, -0.49686, -0.23276, -0.66296,
 12:44:51.286,ed:40:fe:65:30:6c, 2015-01-01 02:14:29.505, 0.899, -0.192, 0.402, -0.61, -0.122, -0.122, -25.994, -63.693, -88.638, -25.807, -2.787, 6.627, 22.61, 0.50922, -0.49686, -0.23276, -0.66296,
 12:44:51.310,f6:90:cc:01:6d:25, 2015-01-01 02:14:30.560, 0.846, -0.111, -0.494, -0.488, 0.061, 0.305, -167.41, -59.112, -38.881, -31.113, -8.813, 11.067, 26.98, 0.073, 0.8334, -0.23611, 0.49423,
 12:44:51.310,f6:90:cc:01:6d:25, 2015-01-01 02:14:30.560, 0.847, -0.11, -0.497, -0.427, 0.122, 0.305, -167.41, -59.112, -38.903, -31.113, -8.813, 11.067, 26.98, 0.073, 0.8334, -0.23611, 0.49423,
 12:44:51.314,ed:35:33:d3:6c:f8, 2015-01-01 02:14:29.690, 0.963, -0.011, 0.24, -0.549, -0.122, -0.061, -2.664, -76.08, 148.37, -22.087, -9.713, -12.240, 27.08, 0.22745, 0.58719, -0.18753, 0.75378,
 12:44:51.314,ed:35:33:d3:6c:f8, 2015-01-01 02:14:29.690, 0.968, -0.006, 0.239, -0.61, -0.122, 0.122, -2.664, -76.08, 148.387, -22.087, -9.713, -12.240, 27.08, 0.22745, 0.58719, -0.18753, 0.75378,
 12:44:51.316,ed:40:fe:65:30:6c, 2015-01-01 02:14:29.505, 0.906, -0.192, 0.403, -0.854, -0.122, -0.061, -26.005, -63.693, -88.643, -25.687, -2.787, 6.327, 22.61, 0.50922, -0.49686, -0.23276, -0.66296,
 12:44:51.316,ed:40:fe:65:30:6c, 2015-01-01 02:14:29.505, 0.904, -0.193, 0.4, -0.854, 0, 0.122, -26.021, -63.693, -88.654, -25.687, -2.787, 6.327, 22.61, 0.50922, -0.49686, -0.23276, -0.66296,
 12:44:51.337,e3:ca:2d:fd:e0:8c, 2015-01-01 02:14:30.460, 0.975, -0.145, -0.259, -0.366, 0, 0.244, -150.958, -73.092, -68.132, -28.920, -9.207, -3.427, 23.86, 0.1543, 0.72845, -0.30963, 0.59122,
 12:44:51.337,e3:ca:2d:fd:e0:8c, 2015-01-01 02:14:30.460, 0.975, -0.146, -0.258, -0.366, -0.061, 0.244, -150.952, -73.087, -68.159, -28.920, -9.207, -3.427, 23.86, 0.1543, 0.72845, -0.30963, 0.59122,
 12:44:51.343,ed:35:33:d3:6c:f8, 2015-01-01 02:14:29.690, 0.965, -0.008, 0.237, -0.549, -0.549, 0.366, -2.686, -76.086, 148.403, -22.640, -9.207, -12.400, 27.08, 0.22745, 0.58719, -0.18753, 0.75378,
 12:44:51.343,ed:35:33:d3:6c:f8, 2015-01-01 02:14:29.690, 0.961, -0.014, 0.239, -0.183, -0.305, 0.61, -2.719, -76.091, 148.442, -22.640, -9.207, -12.400, 27.08, 0.22745, 0.58719, -0.18753, 0.75378,
 12:44:51.368,e3:ca:2d:fd:e0:8c, 2015-01-01 02:14:30.460, 0.974, -0.146, -0.259, -0.305, -0.122, 0.122, -150.952, -73.081, -68.176, -28.920, -9.207, -3.427, 23.86, 0.1543, 0.72845, -0.30963, 0.59122,
 12:44:51.368,e3:ca:2d:fd:e0:8c, 2015-01-01 02:14:30.460, 0.976, -0.145, -0.259, -0.244, -0.122, 0.122, -150.952, -73.081, -68.192, -28.920, -9.207, -3.427, 23.86, 0.1543, 0.72845, -0.30963, 0.59122,
 12:44:51.374,f6:90:cc:01:6d:25, 2015-01-01 02:14:30.560, 0.845, -0.111, -0.496, -0.427, 0.244, 0.244, -167.41, -59.112, -38.919, -31.113, -8.813, 11.067, 26.98, 0.073, 0.8334, -0.23611, 0.49423,
 12:44:51.374,f6:90:cc:01:6d:25, 2015-01-01 02:14:30.560, 0.845, -0.115, -0.497, -0.183, 0.305, 0.183, -167.404, -59.117, -38.936, -31.113, -8.813, 11.067, 26.98, 0.073, 0.8334, -0.23611, 0.49423,
 12:44:51.375,ed:40:fe:65:30:6c, 2015-01-01 02:14:29.505, 0.9, -0.196, 0.402, -0.366, -0.244, 0.305, -26.038, -63.699, -88.643, -25.687, -2.787, 6.327, 22.61, 0.50922, -0.49686, -0.23276, -0.66296,
 12:44:51.375,ed:40:fe:65:30:6c, 2015-01-01 02:14:29.505, 0.9, -0.198, 0.401, -0.427, -0.183, 0.488, -26.065, -63.699, -88.632, -25.687, -2.787, 6.327, 22.61, 0.50922, -0.49686, -0.23276, -0.66296,
 12:44:51.399,e3:ca:2d:fd:e0:8c, 2015-01-01 02:14:30.460, 0.975, -0.145, -0.26, -0.183, 0, 0.061, -150.952, -73.081, -68.209, -28.987, -9.060, -3.087, 23.86, 0.1543, 0.72845, -0.30963, 0.59122,
 12:44:51.399,e3:ca:2d:fd:e0:8c, 2015-01-01 02:14:30.460, 0.974, -0.146, -0.259, 0, 0, 0.183, -150.936, -73.076, -68.231, -28.987, -9.060, -3.087, 23.86, 0.1543, 0.72845, -0.30963, 0.59122,
 12:44:51.401,f6:90:cc:01:6d:25, 2015-01-01 02:14:30.560, 0.848, -0.111, -0.497, -0.061, 0.427, 0.122, -167.399, -59.117, -38.952, -31.113, -8.813, 11.067, 26.98, 0.073, 0.8334, -0.23611, 0.49423,
 12:44:51.401,f6:90:cc:01:6d:25, 2015-01-01 02:14:30.560, 0.848, -0.107, -0.495, 0.061, 0.427, 0.122, -167.393, -59.123, -38.969, -31.113, -8.813, 11.067, 26.98, 0.073, 0.8334, -0.23611, 0.49423,
 12:44:51.407,ed:40:fe:65:30:6c, 2015-01-01 02:14:29.505, 0.902, -0.194, 0.402, -0.488, -0.061, 0.549, -26.093, -63.693, -88.621, -25.687, -2.787, 6.327, 22.61, 0.50894, -0.49615, -0.23401, -0.66327,
 12:44:51.407,ed:40:fe:65:30:6c, 2015-01-01 02:14:29.505, 0.905, -0.191, 0.404, -0.549, 0, 0.305, -26.109, -63.693, -88.616, -25.687, -2.787, 6.327, 22.61, 0.50894, -0.49615, -0.23401, -0.66327,
 12:44:51.428,e3:ca:2d:fd:e0:8c, 2015-01-01 02:14:30.460, 0.976, -0.144, -0.26, 0.244, -0.244, 0.244, -150.925, -73.07, -68.247, -28.987, -9.060, -3.087, 23.86, 0.1543, 0.72845, -0.30963, 0.59122,
 12:44:51.428,e3:ca:2d:fd:e0:8c, 2015-01-01 02:14:30.460, 0.979, -0.145, -0.259, 0.244, -0.305, 0.122, -150.919, -73.065, -68.258, -28.987, -9.060, -3.087, 23.86, 0.1543, 0.72845, -0.30963, 0.59122,
 12:44:51.432,f6:90:cc:01:6d:25, 2015-01-01 02:14:30.560, 0.846, -0.111, -0.494, 0.122, 0.244, 0.122, -167.388, -59.128, -38.979, -31.113, -8.813, 11.067, 26.98, 0.073, 0.8334, -0.23611, 0.49423,
 12:44:51.432,f6:90:cc:01:6d:25, 2015-01-01 02:14:30.560, 0.847, -0.112, -0.498, -0.183, 0.244, 0.183, -167.382, -59.134, -38.996, -31.113, -8.813, 11.067, 26.98, 0.073, 0.8334, -0.23611, 0.49423,
 12:44:51.434,ed:35:33:d3:6c:f8, 2015-01-01 02:14:29.690, 0.962, -0.012, 0.236, -0.122, -0.122, 0.793, -2.774, -76.097, 148.502, -22.640, -9.207, -12.400, 27.08, 0.22745, 0.58719, -0.18753, 0.75378,
 12:44:51.434,ed:35:33:d3:6c:f8, 2015-01-01 02:14:29.690, 0.966, -0.012, 0.241, -0.366, -0.122, 0.61, -2.829, -76.102, 148.563, -22.640, -9.207, -12.400, 27.08, 0.22745, 0.58719, -0.18753, 0.75378,
 12:44:51.434,ed:35:33:d3:6c:f8, 2015-01-01 02:14:29.690, 0.964, -0.008, 0.243, -0.305, -0.366, 0.183, -2.873, -76.102, 148.612, -22.640, -9.207, -12.400, 27.08, 0.22745, 0.58719, -0.18753, 0.75378,
 12:44:51.434,ed:35:33:d3:6c:f8, 2015-01-01 02:14:29.690, 0.962, -0.006, 0.243, 0.366, -0.488, 0.977, -2.906, -76.108, 148.629, -22.640, -9.207, -12.400, 27.08, 0.22745, 0.58719, -0.18753, 0.75378,
 12:44:51.436,ed:40:fe:65:30:6c, 2015-01-01 02:14:29.505, 0.9, -0.194, 0.404, -0.183, -0.183, 0.549, -26.131, -63.688, -88.594, -25.687, -2.787, 6.327, 22.61, 0.50894, -0.49615, -0.23401, -0.66327,
 12:44:51.436,ed:40:fe:65:30:6c, 2015-01-01 02:14:29.505, 0.896, -0.194, 0.405, 0.183, -0.488, 1.221, -26.169, -63.688, -88.539, -25.687, -2.787, 6.327, 22.61, 0.50894, -0.49615, -0.23401, -0.66327,
 12:44:51.464,ed:35:33:d3:6c:f8, 2015-01-01 02:14:29.690, 0.959, -0.012, 0.242, 0.549, -0.488, 1.404, -2.977, -76.119, 148.7, -22.640, -9.207, -12.400, 27.08, 0.22791, 0.58783, -0.18561, 0.75363,
 12:44:51.464,ed:35:33:d3:6c:f8, 2015-01-01 02:14:29.690, 0.966, -0.012, 0.245, -0.488, -0.366, 0.671, -3.06, -76.124, 148.793, -22.640, -9.207, -12.400, 27.08, 0.22791, 0.58783, -0.18561, 0.75363,
 12:44:51.490,e3:ca:2d:fd:e0:8c, 2015-01-01 02:14:30.460, 0.977, -0.145, -0.261, 0.427, -0.122, 0.122, -150.914, -73.054, -68.269, -28.987, -9.060, -3.087, 23.86, 0.15631, 0.72763, -0.31268, 0.59012,
 12:44:51.490,e3:ca:2d:fd:e0:8c, 2015-01-01 02:14:30.460, 0.973, -0.143, -0.258, 0.244, -0.122, 0.244, -150.897, -73.054, -68.286, -28.987, -9.060, -3.087, 23.86, 0.15631, 0.72763, -0.31268, 0.59012,
 12:44:51.492,f6:90:cc:01:6d:25, 2015-01-01 02:14:30.560, 0.848, -0.109, -0.497, -0.366, 0.061, 0.122, -167.382, -59.134, -39.007, -31.113, -8.813, 11.067, 26.98, 0.073, 0.8334, -0.23611, 0.49423,
 12:44:51.492,f6:90:cc:01:6d:25, 2015-01-01 02:14:30.560, 0.847, -0.108, -0.493, -0.183, 0, 0.122, -167.382, -59.128, -39.018, -31.113, -8.813, 11.067, 26.98, 0.073, 0.8334, -0.23611, 0.49423,
 12:44:51.496,ed:40:fe:65:30:6c, 2015-01-01 02:14:29.860, 0.9, -0.19, 0.406, -0.488, -0.549, 1.038, -26.219, -63.688, -88.473, -25.687, -2.787, 6.327, 22.61, 0.50894, -0.49615, -0.23401, -0.66327,
 12:44:51.496,ed:40:fe:65:30:6c, 2015-01-01 02:14:29.860, 0.904, -0.192, 0.405, -1.16, -0.61, 0.61, -26.268, -63.688, -88.429, -25.687, -2.787, 6.327, 22.61, 0.50894, -0.49615, -0.23401, -0.66327,
 12:44:51.521,f6:90:cc:01:6d:25, 2015-01-01 02:14:30.560, 0.846, -0.112, -0.495, -0.244, 0.183, 0.122, -167.382, -59.134, -39.034, -30.873, -8.753, 11.087, 26.98, 0.073, 0.8334, -0.23611, 0.49423,
 12:44:51.521,f6:90:cc:01:6d:25, 2015-01-01 02:14:30.560, 0.846, -0.113, -0.496, -0.244, 0.183, 0.061, -167.382, -59.134, -39.04, -30.873, -8.753, 11.087, 26.98, 0.073, 0.8334, -0.23611, 0.49423,
 12:44:51.523,ed:35:33:d3:6c:f8, 2015-01-01 02:14:29.690, 0.965, -0.012, 0.24, -1.038, -0.854, 0.671, -3.126, -76.13, 148.832, -22.640, -9.207, -12.400, 27.08, 0.22791, 0.58783, -0.18561, 0.75363,
 12:44:51.523,ed:35:33:d3:6c:f8, 2015-01-01 02:14:29.690, 0.966, -0.017, 0.237, -0.549, -1.343, 1.221, -3.203, -76.146, 148.887, -22.640, -9.207, -12.400, 27.08, 0.22791, 0.58783, -0.18561, 0.75363,
 12:44:51.525,ed:40:fe:65:30:6c, 2015-01-01 02:14:29.860, 0.902, -0.201, 0.4, -1.099, -0.916, 0.793, -26.323, -63.699, -88.385, -25.687, -2.787, 6.327, 22.61, 0.50894, -0.49615, -0.23401, -0.66327,
 12:44:51.525,ed:40:fe:65:30:6c, 2015-01-01 02:14:29.860, 0.904, -0.203, 0.399, -0.427, -0.977, 1.221, -26.384, -63.704, -88.325, -25.687, -2.787, 6.327, 22.61, 0.50894, -0.49615, -0.23401, -0.66327,
 12:44:51.551,f6:90:cc:01:6d:25, 2015-01-01 02:14:30.560, 0.847, -0.111, -0.495, -0.122, 0.244, 0, -167.388, -59.134, -39.051, -30.873, -8.753, 11.087, 26.98, 0.073, 0.8334, -0.23611, 0.49423,
 12:44:51.551,f6:90:cc:01:6d:25, 2015-01-01 02:14:30.560, 0.847, -0.109, -0.496, 0, 0.305, 0, -167.382, -59.139, -39.056, -30.873, -8.753, 11.087, 26.98, 0.073, 0.8334, -0.23611, 0.49423,
 12:44:51.553,ed:35:33:d3:6c:f8, 2015-01-01 02:14:30.135, 0.966, -0.021, 0.232, 0.671, -1.465, 1.526, -3.312, -76.168, 148.997, -22.640, -9.207, -12.400, 27.08, 0.22791, 0.58783, -0.18561, 0.75363,
 12:44:51.553,ed:35:33:d3:6c:f8, 2015-01-01 02:14:30.135, 0.966, -0.02, 0.23, 1.282, -1.282, 1.099, -3.417, -76.196, 149.101, -22.640, -9.207, -12.400, 27.08, 0.22791, 0.58783, -0.18561, 0.75363,
 12:44:51.555,ed:40:fe:65:30:6c, 2015-01-01 02:14:29.860, 0.904, -0.204, 0.396, 0.244, -0.732, 1.16, -26.439, -63.704, -88.27, -25.687, -2.787, 6.327, 22.61, 0.50894, -0.49615, -0.23401, -0.66327,
 12:44:51.555,ed:40:fe:65:30:6c, 2015-01-01 02:14:29.860, 0.904, -0.199, 0.398, 0.671, -0.366, 0.854, -26.466, -63.704, -88.237, -25.687, -2.787, 6.327, 22.61, 0.50894, -0.49615, -0.23401, -0.66327,
 12:44:51.579,e3:ca:2d:fd:e0:8c, 2015-01-01 02:14:30.845, 0.973, -0.145, -0.26, 0.122, -0.549, 0.183, -150.886, -73.043, -68.302, -28.987, -9.060, -3.087, 23.86, 0.15631, 0.72763, -0.31268, 0.59012,
 12:44:51.579,e3:ca:2d:fd:e0:8c, 2015-01-01 02:14:30.845, 0.972, -0.148, -0.26, 0.244, -0.427, 0, -150.892, -73.037, -68.302, -28.987, -9.060, -3.087, 23.86, 0.15631, 0.72763, -0.31268, 0.59012,
 12:44:51.579,e3:ca:2d:fd:e0:8c, 2015-01-01 02:14:30.845, 0.974, -0.147, -0.261, 0.305, -0.366, 0, -150.897, -73.026, -68.302, -28.987, -9.060, -3.087, 23.86, 0.15631, 0.72763, -0.31268, 0.59012,
 12:44:51.579,e3:ca:2d:fd:e0:8c, 2015-01-01 02:14:30.845, 0.976, -0.146, -0.262, 0.366, -0.305, 0, -150.903, -73.021, -68.302, -28.987, -9.060, -3.087, 23.86, 0.15631, 0.72763, -0.31268, 0.59012,
 12:44:51.583,ed:35:33:d3:6c:f8, 2015-01-01 02:14:30.135, 0.967, -0.018, 0.233, 0.977, -1.038, 0.61, -3.477, -76.218, 149.172, -22.640, -9.207, -12.400, 27.08, 0.22791, 0.58783, -0.18561, 0.75363,
 12:44:51.583,ed:35:33:d3:6c:f8, 2015-01-01 02:14:30.135, 0.969, -0.017, 0.23, 0.488, -0.671, 0.183, -3.51, -76.234, 149.216, -22.640, -9.207, -12.400, 27.08, 0.22791, 0.58783, -0.18561, 0.75363,
 12:44:51.608,e3:ca:2d:fd:e0:8c, 2015-01-01 02:14:30.845, 0.976, -0.145, -0.262, 0.244, -0.427, 0, -150.903, -73.015, -68.297, -28.987, -9.060, -3.087, 23.86, 0.15631, 0.72763, -0.31268, 0.59012,
 12:44:51.608,e3:ca:2d:fd:e0:8c, 2015-01-01 02:14:30.845, 0.976, -0.146, -0.262, 0.122, -0.671, 0, -150.914, -73.004, -68.291, -28.987, -9.060, -3.087, 23.86, 0.15631, 0.72763, -0.31268, 0.59012,
 12:44:51.611,f6:90:cc:01:6d:25, 2015-01-01 02:14:30.560, 0.847, -0.108, -0.495, -0.061, 0.427, 0, -167.382, -59.145, -39.067, -30.873, -8.753, 11.087, 26.98, 0.07391, 0.83282, -0.23788, 0.4942,
 12:44:51.611,f6:90:cc:01:6d:25, 2015-01-01 02:14:30.560, 0.848, -0.109, -0.498, 0, 0.488, 0.061, -167.377, -59.156, -39.078, -30.873, -8.753, 11.087, 26.98, 0.07391, 0.83282, -0.23788, 0.4942,
 12:44:51.615,ed:40:fe:65:30:6c, 2015-01-01 02:14:29.860, 0.904, -0.199, 0.396, 0.488, -0.183, 0.366, -26.472, -63.704, -88.237, -25.687, -2.787, 6.327, 22.61, 0.50894, -0.49615, -0.23401, -0.66327,
 12:44:51.615,ed:40:fe:65:30:6c, 2015-01-01 02:14:29.860, 0.906, -0.196, 0.399, 0.244, 0, 0.061, -26.472, -63.704, -88.259, -25.687, -2.787, 6.327, 22.61, 0.50894, -0.49615, -0.23401, -0.66327,
 12:44:51.638,e3:ca:2d:fd:e0:8c, 2015-01-01 02:14:30.845, 0.976, -0.147, -0.262, 0.061, -0.488, 0, -150.93, -72.993, -68.286, -28.987, -9.060, -3.087, 23.86, 0.15631, 0.72763, -0.31268, 0.59012,
 12:44:51.638,e3:ca:2d:fd:e0:8c, 2015-01-01 02:14:30.845, 0.977, -0.148, -0.261, 0.061, -0.488, 0, -150.941, -72.982, -68.28, -28.987, -9.060, -3.087, 23.86, 0.15631, 0.72763, -0.31268, 0.59012,
 12:44:51.640,f6:90:cc:01:6d:25, 2015-01-01 02:14:30.920, 0.847, -0.111, -0.498, 0.122, 0.427, 0.061, -167.371, -59.161, -39.089, -30.873, -8.753, 11.087, 26.98, 0.07391, 0.83282, -0.23788, 0.4942,
 12:44:51.640,f6:90:cc:01:6d:25, 2015-01-01 02:14:30.920, 0.847, -0.111, -0.498, -0.122, 0.488, 0.061, -167.371, -59.167, -39.106, -30.873, -8.753, 11.087, 26.98, 0.07391, 0.83282, -0.23788, 0.4942,
 12:44:51.668,e3:ca:2d:fd:e0:8c, 2015-01-01 02:14:30.845, 0.978, -0.146, -0.262, 0.122, -0.244, 0, -150.952, -72.977, -68.275, -28.987, -9.060, -3.087, 23.86, 0.15631, 0.72763, -0.31268, 0.59012,
 12:44:51.668,e3:ca:2d:fd:e0:8c, 2015-01-01 02:14:30.845, 0.977, -0.146, -0.262, 0.061, 0, 0, -150.952, -72.971, -68.28, -28.987, -9.060, -3.087, 23.86, 0.15631, 0.72763, -0.31268, 0.59012,
 12:44:51.672,ed:35:33:d3:6c:f8, 2015-01-01 02:14:30.135, 0.966, -0.014, 0.237, -0.244, -0.61, -0.122, -3.521, -76.245, 149.244, -22.640, -9.207, -12.400, 27.08, 0.22791, 0.58783, -0.18561, 0.75363,
 12:44:51.672,ed:35:33:d3:6c:f8, 2015-01-01 02:14:30.135, 0.966, -0.01, 0.235, -0.183, -0.916, -0.305, -3.516, -76.262, 149.255, -22.640, -9.207, -12.400, 27.08, 0.22791, 0.58783, -0.18561, 0.75363,
 12:44:51.674,ed:35:33:d3:6c:f8, 2015-01-01 02:14:30.135, 0.965, -0.014, 0.238, 0.122, -0.793, 0.305, -3.51, -76.278, 149.26, -22.640, -9.207, -12.400, 27.08, 0.22791, 0.58783, -0.18561, 0.75363,
 12:44:51.674,ed:35:33:d3:6c:f8, 2015-01-01 02:14:30.135, 0.969, -0.015, 0.235, 0, -0.732, 0.427, -3.538, -76.295, 149.277, -22.640, -9.207, -12.400, 27.08, 0.22791, 0.58783, -0.18561, 0.75363,
 12:44:51.676,ed:40:fe:65:30:6c, 2015-01-01 02:14:29.860, 0.903, -0.196, 0.4, -0.244, -0.061, -0.061, -26.472, -63.704, -88.281, -25.687, -2.787, 6.327, 22.61, 0.50894, -0.49615, -0.23401, -0.66327,
 12:44:51.676,ed:40:fe:65:30:6c, 2015-01-01 02:14:29.860, 0.903, -0.197, 0.4, -0.122, -0.305, 0.183, -26.483, -63.71, -88.297, -25.687, -2.787, 6.327, 22.61, 0.50894, -0.49615, -0.23401, -0.66327,
 12:44:51.676,ed:40:fe:65:30:6c, 2015-01-01 02:14:29.860, 0.903, -0.197, 0.401, -0.244, -0.549, 0.366, -26.505, -63.715, -88.297, -25.687, -2.787, 6.327, 22.61, 0.50894, -0.49615, -0.23401, -0.66327,
 12:44:51.676,ed:40:fe:65:30:6c, 2015-01-01 02:14:29.860, 0.906, -0.2, 0.4, -0.366, -0.671, 0.305, -26.526, -63.721, -88.286, -25.687, -2.787, 6.327, 22.61, 0.50894, -0.49615, -0.23401, -0.66327,
 12:44:51.700,f6:90:cc:01:6d:25, 2015-01-01 02:14:30.920, 0.847, -0.111, -0.499, -0.244, 0.488, 0, -167.371, -59.172, -39.111, -30.873, -8.753, 11.087, 26.98, 0.07391, 0.83282, -0.23788, 0.4942,
 12:44:51.700,f6:90:cc:01:6d:25, 2015-01-01 02:14:30.920, 0.847, -0.111, -0.496, -0.122, 0.305, 0, -167.371, -59.178, -39.122, -30.873, -8.753, 11.087, 26.98, 0.07391, 0.83282, -0.23788, 0.4942,
 12:44:51.728,e3:ca:2d:fd:e0:8c, 2015-01-01 02:14:30.845, 0.973, -0.146, -0.261, 0.061, -0.122, 0, -150.952, -72.971, -68.286, -28.987, -9.060, -3.087, 23.86, 0.15631, 0.72763, -0.31268, 0.59012,
 12:44:51.728,e3:ca:2d:fd:e0:8c, 2015-01-01 02:14:30.845, 0.972, -0.146, -0.263, 0.061, -0.122, 0, -150.952, -72.971, -68.291, -28.987, -9.060, -3.087, 23.86, 0.15631, 0.72763, -0.31268, 0.59012,
 12:44:51.732,f6:90:cc:01:6d:25, 2015-01-01 02:14:30.920, 0.847, -0.111, -0.496, -0.122, 0.366, 0, -167.371, -59.183, -39.128, -30.873, -8.753, 11.087, 26.98, 0.07391, 0.83282, -0.23788, 0.4942,
 12:44:51.732,f6:90:cc:01:6d:25, 2015-01-01 02:14:30.920, 0.847, -0.109, -0.494, -0.122, 0.427, 0, -167.371, -59.189, -39.139, -30.873, -8.753, 11.087, 26.98, 0.07391, 0.83282, -0.23788, 0.4942,
 12:44:51.734,ed:35:33:d3:6c:f8, 2015-01-01 02:14:30.135, 0.966, -0.017, 0.232, 0, -0.732, 0.244, -3.576, -76.306, 149.288, -22.640, -9.207, -12.400, 27.08, 0.22791, 0.58783, -0.18561, 0.75363,
 12:44:51.734,ed:35:33:d3:6c:f8, 2015-01-01 02:14:30.135, 0.964, -0.015, 0.232, -0.061, -0.671, 0.183, -3.598, -76.322, 149.31, -22.640, -9.207, -12.400, 27.08, 0.22791, 0.58783, -0.18561, 0.75363,
 12:44:51.736,ed:40:fe:65:30:6c, 2015-01-01 02:14:29.860, 0.903, -0.199, 0.397, -0.305, -0.793, 0.305, -26.559, -63.732, -88.27, -25.647, -3.320, 6.527, 22.61, 0.50894, -0.49615, -0.23401, -0.66327,
 12:44:51.736,ed:40:fe:65:30:6c, 2015-01-01 02:14:29.860, 0.902, -0.198, 0.396, -0.244, -0.671, 0.244, -26.581, -63.743, -88.248, -25.647, -3.320, 6.527, 22.61, 0.50894, -0.49615, -0.23401, -0.66327,
 12:44:51.758,e3:ca:2d:fd:e0:8c, 2015-01-01 02:14:30.845, 0.972, -0.145, -0.263, 0, -0.122, 0, -150.952, -72.966, -68.297, -28.560, -8.713, -3.607, 23.86, 0.15631, 0.72763, -0.31268, 0.59012,
 12:44:51.758,e3:ca:2d:fd:e0:8c, 2015-01-01 02:14:30.845, 0.974, -0.144, -0.263, 0, -0.244, 0, -150.952, -72.966, -68.302, -28.560, -8.713, -3.607, 23.86, 0.15631, 0.72763, -0.31268, 0.59012,
 12:44:51.760,f6:90:cc:01:6d:25, 2015-01-01 02:14:30.920, 0.847, -0.109, -0.495, -0.061, 0.366, 0, -167.371, -59.194, -39.15, -30.873, -8.753, 11.087, 26.98, 0.07391, 0.83282, -0.23788, 0.4942,
 12:44:51.760,f6:90:cc:01:6d:25, 2015-01-01 02:14:30.920, 0.848, -0.108, -0.494, -0.061, 0.305, 0, -167.371, -59.2, -39.155, -30.873, -8.753, 11.087, 26.98, 0.07391, 0.83282, -0.23788, 0.4942,
 12:44:51.763,ed:35:33:d3:6c:f8, 2015-01-01 02:14:30.135, 0.965, -0.016, 0.23, 0.122, -0.488, 0.122, -3.615, -76.333, 149.326, -22.640, -9.207, -12.400, 27.08, 0.22791, 0.58783, -0.18561, 0.75363,
 12:44:51.763,ed:35:33:d3:6c:f8, 2015-01-01 02:14:30.135, 0.966, -0.016, 0.231, 0.244, -0.488, 0.061, -3.625, -76.344, 149.326, -22.640, -9.207, -12.400, 27.08, 0.22791, 0.58783, -0.18561, 0.75363,
 12:44:51.765,ed:40:fe:65:30:6c, 2015-01-01 02:14:29.860, 0.903, -0.2, 0.397, -0.122, -0.488, 0.183, -26.598, -63.754, -88.231, -25.647, -3.320, 6.527, 22.61, 0.50867, -0.49799, -0.23294, -0.66248,
 12:44:51.765,ed:40:fe:65:30:6c, 2015-01-01 02:14:29.860, 0.904, -0.197, 0.398, 0, -0.244, 0, -26.603, -63.759, -88.237, -25.647, -3.320, 6.527, 22.61, 0.50867, -0.49799, -0.23294, -0.66248,
 12:44:51.790,e3:ca:2d:fd:e0:8c, 2015-01-01 02:14:30.845, 0.978, -0.145, -0.263, 0, -0.366, 0, -150.963, -72.96, -68.302, -28.560, -8.713, -3.607, 23.86, 0.15631, 0.72763, -0.31268, 0.59012,
 12:44:51.790,e3:ca:2d:fd:e0:8c, 2015-01-01 02:14:30.845, 0.977, -0.146, -0.263, 0, -0.366, 0, -150.974, -72.949, -68.302, -28.560, -8.713, -3.607, 23.86, 0.15631, 0.72763, -0.31268, 0.59012,
 12:44:51.793,ed:35:33:d3:6c:f8, 2015-01-01 02:14:30.135, 0.967, -0.014, 0.233, 0, -0.549, -0.183, -3.625, -76.355, 149.326, -22.360, -9.380, -12.347, 27.08, 0.22791, 0.58783, -0.18561, 0.75363,
 12:44:51.793,ed:35:33:d3:6c:f8, 2015-01-01 02:14:30.135, 0.966, -0.016, 0.232, -0.122, -0.549, -0.427, -3.604, -76.366, 149.315, -22.360, -9.380, -12.347, 27.08, 0.22791, 0.58783, -0.18561, 0.75363,
 12:44:51.797,ed:40:fe:65:30:6c, 2015-01-01 02:14:29.860, 0.904, -0.197, 0.398, -0.061, -0.122, -0.183, -26.603, -63.759, -88.248, -25.647, -3.320, 6.527, 22.61, 0.50867, -0.49799, -0.23294, -0.66248,
 12:44:51.797,ed:40:fe:65:30:6c, 2015-01-01 02:14:29.860, 0.902, -0.199, 0.4, 0, -0.061, -0.244, -26.592, -63.765, -88.253, -25.647, -3.320, 6.527, 22.61, 0.50867, -0.49799, -0.23294, -0.66248,
 12:44:51.821,f6:90:cc:01:6d:25, 2015-01-01 02:14:30.920, 0.847, -0.108, -0.494, -0.061, 0.244, 0, -167.371, -59.205, -39.161, -30.873, -8.753, 11.087, 26.98, 0.07391, 0.83282, -0.23788, 0.4942,
 12:44:51.821,f6:90:cc:01:6d:25, 2015-01-01 02:14:30.920, 0.848, -0.109, -0.494, -0.122, 0.122, 0, -167.377, -59.205, -39.172, -30.873, -8.753, 11.087, 26.98, 0.07391, 0.83282, -0.23788, 0.4942,
 12:44:51.823,ed:35:33:d3:6c:f8, 2015-01-01 02:14:30.135, 0.965, -0.014, 0.234, 0.061, -0.488, -0.366, -3.576, -76.377, 149.288, -22.360, -9.380, -12.347, 27.08, 0.22791, 0.58783, -0.18561, 0.75363,
 12:44:51.823,ed:35:33:d3:6c:f8, 2015-01-01 02:14:30.135, 0.968, -0.011, 0.235, 0.244, -0.305, 0, -3.565, -76.382, 149.26, -22.360, -9.380, -12.347, 27.08, 0.22791, 0.58783, -0.18561, 0.75363,
 12:44:51.850,f6:90:cc:01:6d:25, 2015-01-01 02:14:30.920, 0.847, -0.112, -0.496, -0.061, 0.061, 0.061, -167.377, -59.205, -39.177, -31.253, -8.753, 11.013, 26.98, 0.07391, 0.83282, -0.23788, 0.4942,
 12:44:51.850,f6:90:cc:01:6d:25, 2015-01-01 02:14:30.920, 0.848, -0.111, -0.497, -0.061, 0.061, 0, -167.377, -59.205, -39.183, -31.253, -8.753, 11.013, 26.98, 0.07391, 0.83282, -0.23788, 0.4942,
 12:44:51.856,ed:40:fe:65:30:6c, 2015-01-01 02:14:30.220, 0.903, -0.197, 0.399, 0, -0.061, -0.061, -26.587, -63.765, -88.264, -25.647, -3.320, 6.527, 22.61, 0.50867, -0.49799, -0.23294, -0.66248,
 12:44:51.856,ed:40:fe:65:30:6c, 2015-01-01 02:14:30.220, 0.904, -0.195, 0.4, 0, -0.244, 0.122, -26.592, -63.77, -88.259, -25.647, -3.320, 6.527, 22.61, 0.50867, -0.49799, -0.23294, -0.66248,
 12:44:51.878,e3:ca:2d:fd:e0:8c, 2015-01-01 02:14:30.845, 0.975, -0.146, -0.263, 0, -0.244, 0, -150.985, -72.944, -68.302, -28.560, -8.713, -3.607, 23.86, 0.15634, 0.72781, -0.31372, 0.58936,
 12:44:51.878,e3:ca:2d:fd:e0:8c, 2015-01-01 02:14:30.845, 0.975, -0.147, -0.262, 0, -0.244, 0, -150.991, -72.938, -68.302, -28.560, -8.713, -3.607, 23.86, 0.15634, 0.72781, -0.31372, 0.58936,
 12:44:51.880,f6:90:cc:01:6d:25, 2015-01-01 02:14:30.920, 0.848, -0.109, -0.496, 0.061, 0.122, 0, -167.377, -59.205, -39.188, -31.253, -8.753, 11.013, 26.98, 0.07391, 0.83282, -0.23788, 0.4942,
 12:44:51.880,f6:90:cc:01:6d:25, 2015-01-01 02:14:30.920, 0.847, -0.108, -0.494, 0, 0.061, 0, -167.377, -59.205, -39.194, -31.253, -8.753, 11.013, 26.98, 0.07391, 0.83282, -0.23788, 0.4942,
 12:44:51.884,ed:35:33:d3:6c:f8, 2015-01-01 02:14:30.135, 0.964, -0.012, 0.234, 0.122, -0.366, 0.122, -3.565, -76.388, 149.277, -22.360, -9.380, -12.347, 27.08, 0.22672, 0.58942, -0.18735, 0.75232,
 12:44:51.884,ed:35:33:d3:6c:f8, 2015-01-01 02:14:30.135, 0.967, -0.012, 0.233, 0, -0.305, 0, -3.571, -76.399, 149.315, -22.360, -9.380, -12.347, 27.08, 0.22672, 0.58942, -0.18735, 0.75232,
 12:44:51.884,ed:40:fe:65:30:6c, 2015-01-01 02:14:30.220, 0.904, -0.195, 0.398, -0.183, -0.427, 0.122, -26.603, -63.776, -88.248, -25.647, -3.320, 6.527, 22.61, 0.50867, -0.49799, -0.23294, -0.66248,
 12:44:51.884,ed:40:fe:65:30:6c, 2015-01-01 02:14:30.220, 0.905, -0.193, 0.397, -0.61, -0.305, -0.061, -26.614, -63.781, -88.237, -25.647, -3.320, 6.527, 22.61, 0.50867, -0.49799, -0.23294, -0.66248,
 12:44:51.908,e3:ca:2d:fd:e0:8c, 2015-01-01 02:14:31.205, 0.976, -0.146, -0.262, 0.061, -0.183, 0, -150.996, -72.933, -68.302, -28.560, -8.713, -3.607, 23.86, 0.15634, 0.72781, -0.31372, 0.58936,
 12:44:51.908,e3:ca:2d:fd:e0:8c, 2015-01-01 02:14:31.205, 0.973, -0.144, -0.262, 0.122, 0, 0, -150.996, -72.933, -68.307, -28.560, -8.713, -3.607, 23.86, 0.15634, 0.72781, -0.31372, 0.58936,
 12:44:51.908,e3:ca:2d:fd:e0:8c, 2015-01-01 02:14:31.205, 0.971, -0.145, -0.261, 0.061, 0, 0, -150.996, -72.933, -68.318, -28.560, -8.713, -3.607, 23.86, 0.15634, 0.72781, -0.31372, 0.58936,
 12:44:51.908,e3:ca:2d:fd:e0:8c, 2015-01-01 02:14:31.205, 0.972, -0.147, -0.261, -0.122, -0.061, 0, -150.996, -72.933, -68.324, -28.560, -8.713, -3.607, 23.86, 0.15634, 0.72781, -0.31372, 0.58936,
 12:44:51.913,ed:35:33:d3:6c:f8, 2015-01-01 02:14:30.520, 0.968, -0.011, 0.229, -0.61, -0.366, 0, -3.571, -76.404, 149.359, -22.360, -9.380, -12.347, 27.08, 0.22672, 0.58942, -0.18735, 0.75232,
 12:44:51.913,ed:35:33:d3:6c:f8, 2015-01-01 02:14:30.520, 0.969, -0.014, 0.228, -0.61, -0.427, 0, -3.582, -76.41, 149.409, -22.360, -9.380, -12.347, 27.08, 0.22672, 0.58942, -0.18735, 0.75232,
 12:44:51.941,f6:90:cc:01:6d:25, 2015-01-01 02:14:30.920, 0.848, -0.108, -0.493, -0.061, 0, 0, -167.377, -59.205, -39.199, -31.253, -8.753, 11.013, 26.98, 0.07465, 0.83231, -0.23871, 0.49457,
 12:44:51.941,f6:90:cc:01:6d:25, 2015-01-01 02:14:30.920, 0.847, -0.111, -0.494, -0.244, 0.061, 0, -167.388, -59.205, -39.205, -31.253, -8.753, 11.013, 26.98, 0.07465, 0.83231, -0.23871, 0.49457,
 12:44:51.943,ed:35:33:d3:6c:f8, 2015-01-01 02:14:30.520, 0.967, -0.02, 0.226, 0.183, -0.122, 0.366, -3.604, -76.415, 149.458, -22.360, -9.380, -12.347, 27.08, 0.22672, 0.58942, -0.18735, 0.75232,
 12:44:51.943,ed:35:33:d3:6c:f8, 2015-01-01 02:14:30.520, 0.966, -0.019, 0.227, 0.305, 0.244, 0.427, -3.631, -76.415, 149.518, -22.360, -9.380, -12.347, 27.08, 0.22672, 0.58942, -0.18735, 0.75232,
 12:44:51.947,ed:40:fe:65:30:6c, 2015-01-01 02:14:30.220, 0.907, -0.196, 0.395, -0.793, -0.061, -0.061, -26.625, -63.781, -88.242, -25.647, -3.320, 6.527, 22.61, 0.50867, -0.49799, -0.23294, -0.66248,
 12:44:51.947,ed:40:fe:65:30:6c, 2015-01-01 02:14:30.220, 0.906, -0.203, 0.394, -0.244, 0, 0.061, -26.625, -63.781, -88.242, -25.647, -3.320, 6.527, 22.61, 0.50867, -0.49799, -0.23294, -0.66248,
 12:44:51.968,e3:ca:2d:fd:e0:8c, 2015-01-01 02:14:31.205, 0.975, -0.147, -0.263, -0.122, 0, 0, -150.996, -72.927, -68.329, -28.560, -8.713, -3.607, 23.86, 0.15634, 0.72781, -0.31372, 0.58936,
 12:44:51.968,e3:ca:2d:fd:e0:8c, 2015-01-01 02:14:31.205, 0.976, -0.147, -0.265, 0, 0.244, 0, -150.996, -72.927, -68.34, -28.560, -8.713, -3.607, 23.86, 0.15634, 0.72781, -0.31372, 0.58936,
 12:44:51.970,f6:90:cc:01:6d:25, 2015-01-01 02:14:31.245, 0.847, -0.114, -0.496, 0, 0.122, 0, -167.382, -59.205, -39.21, -31.253, -8.753, 11.013, 26.98, 0.07465, 0.83231, -0.23871, 0.49457,
 12:44:51.970,f6:90:cc:01:6d:25, 2015-01-01 02:14:31.245, 0.848, -0.112, -0.496, 0.061, 0.061, 0, -167.382, -59.205, -39.216, -31.253, -8.753, 11.013, 26.98, 0.07465, 0.83231, -0.23871, 0.49457,
 12:44:51.975,ed:40:fe:65:30:6c, 2015-01-01 02:14:30.220, 0.904, -0.204, 0.395, 0.305, 0.122, 0.366, -26.631, -63.776, -88.237, -25.647, -3.320, 6.527, 22.61, 0.50867, -0.49799, -0.23294, -0.66248,
 12:44:51.975,ed:40:fe:65:30:6c, 2015-01-01 02:14:30.220, 0.904, -0.2, 0.396, 0.244, 0.305, 0.183, -26.625, -63.77, -88.215, -25.647, -3.320, 6.527, 22.61, 0.50867, -0.49799, -0.23294, -0.66248,
 12:44:51.998,e3:ca:2d:fd:e0:8c, 2015-01-01 02:14:31.205, 0.975, -0.144, -0.264, 0, 0.183, 0, -150.985, -72.933, -68.357, -28.560, -8.713, -3.607, 23.86, 0.15634, 0.72781, -0.31372, 0.58936,
 12:44:51.998,e3:ca:2d:fd:e0:8c, 2015-01-01 02:14:31.205, 0.978, -0.144, -0.263, -0.061, 0.183, 0, -150.98, -72.933, -68.373, -28.560, -8.713, -3.607, 23.86, 0.15634, 0.72781, -0.31372, 0.58936,
 12:44:52.000,f6:90:cc:01:6d:25, 2015-01-01 02:14:31.245, 0.848, -0.105, -0.497, 0.061, 0.122, 0, -167.382, -59.205, -39.221, -31.253, -8.753, 11.013, 26.98, 0.07465, 0.83231, -0.23871, 0.49457,
 12:44:52.000,f6:90:cc:01:6d:25, 2015-01-01 02:14:31.245, 0.85, -0.106, -0.495, 0.183, 0, 0, -167.382, -59.205, -39.227, -31.253, -8.753, 11.013, 26.98, 0.07465, 0.83231, -0.23871, 0.49457,
 12:44:52.004,ed:35:33:d3:6c:f8, 2015-01-01 02:14:30.520, 0.967, -0.015, 0.23, 0.122, 0.488, 0, -3.642, -76.41, 149.546, -22.360, -9.380, -12.347, 27.08, 0.22672, 0.58942, -0.18735, 0.75232,
 12:44:52.004,ed:35:33:d3:6c:f8, 2015-01-01 02:14:30.520, 0.965, -0.013, 0.234, 0, 0.488, -0.366, -3.625, -76.404, 149.529, -22.360, -9.380, -12.347, 27.08, 0.22672, 0.58942, -0.18735, 0.75232,
 12:44:52.006,ed:40:fe:65:30:6c, 2015-01-01 02:14:30.220, 0.904, -0.196, 0.397, 0.366, 0.549, 0, -26.609, -63.765, -88.193, -25.647, -3.320, 6.527, 22.61, 0.50867, -0.49799, -0.23294, -0.66248,
 12:44:52.006,ed:40:fe:65:30:6c, 2015-01-01 02:14:30.220, 0.902, -0.194, 0.401, 0.305, 0.549, -0.244, -26.581, -63.759, -88.204, -25.647, -3.320, 6.527, 22.61, 0.50867, -0.49799, -0.23294, -0.66248,
 12:44:52.028,e3:ca:2d:fd:e0:8c, 2015-01-01 02:14:31.205, 0.977, -0.146, -0.261, -0.122, 0.183, 0, -150.974, -72.938, -68.384, -28.560, -8.713, -3.607, 23.86, 0.15634, 0.72781, -0.31372, 0.58936,
 12:44:52.028,e3:ca:2d:fd:e0:8c, 2015-01-01 02:14:31.205, 0.975, -0.146, -0.261, -0.061, 0.244, 0, -150.969, -72.938, -68.401, -28.560, -8.713, -3.607, 23.86, 0.15634, 0.72781, -0.31372, 0.58936,
 12:44:52.034,ed:35:33:d3:6c:f8, 2015-01-01 02:14:30.520, 0.963, -0.007, 0.238, 0, 0.488, -0.488, -3.587, -76.399, 149.513, -22.360, -9.380, -12.347, 27.08, 0.22672, 0.58942, -0.18735, 0.75232,
 12:44:52.034,ed:35:33:d3:6c:f8, 2015-01-01 02:14:30.520, 0.964, -0.01, 0.238, -0.183, 0.854, 0.061, -3.565, -76.382, 149.507, -22.360, -9.380, -12.347, 27.08, 0.22672, 0.58942, -0.18735, 0.75232,
 12:44:52.062,f6:90:cc:01:6d:25, 2015-01-01 02:14:31.245, 0.848, -0.11, -0.493, 0, -0.183, 0, -167.382, -59.2, -39.227, -31.253, -8.753, 11.013, 26.98, 0.07465, 0.83231, -0.23871, 0.49457,
 12:44:52.062,f6:90:cc:01:6d:25, 2015-01-01 02:14:31.245, 0.848, -0.11, -0.495, -0.244, -0.244, 0, -167.393, -59.194, -39.232, -31.253, -8.753, 11.013, 26.98, 0.07465, 0.83231, -0.23871, 0.49457,
 12:44:52.064,ed:35:33:d3:6c:f8, 2015-01-01 02:14:30.520, 0.966, -0.011, 0.236, -0.61, 0.916, 0.122, -3.571, -76.366, 149.507, -22.360, -9.380, -12.347, 27.08, 0.22672, 0.58942, -0.18735, 0.75232,
 12:44:52.064,ed:35:33:d3:6c:f8, 2015-01-01 02:14:30.520, 0.964, -0.013, 0.234, -0.366, 0.549, 0.366, -3.593, -76.349, 149.496, -22.360, -9.380, -12.347, 27.08, 0.22672, 0.58942, -0.18735, 0.75232,
 12:44:52.068,ed:40:fe:65:30:6c, 2015-01-01 02:14:30.220, 0.9, -0.193, 0.403, 0.122, 0.305, -0.122, -26.57, -63.754, -88.209, -25.493, -2.940, 7.387, 22.61, 0.50867, -0.49799, -0.23294, -0.66248,
 12:44:52.068,ed:40:fe:65:30:6c, 2015-01-01 02:14:30.220, 0.902, -0.193, 0.403, -0.061, 0.122, 0.061, -26.565, -63.748, -88.215, -25.493, -2.940, 7.387, 22.61, 0.50867, -0.49799, -0.23294, -0.66248,
 12:44:52.090,e3:ca:2d:fd:e0:8c, 2015-01-01 02:14:31.205, 0.971, -0.146, -0.26, -0.244, 0.305, 0, -150.963, -72.944, -68.417, -28.560, -8.713, -3.607, 23.86, 0.15634, 0.72781, -0.31372, 0.58936,
 12:44:52.090,e3:ca:2d:fd:e0:8c, 2015-01-01 02:14:31.205, 0.974, -0.146, -0.26, -0.305, 0.061, 0, -150.963, -72.944, -68.434, -28.560, -8.713, -3.607, 23.86, 0.15634, 0.72781, -0.31372, 0.58936,
 12:44:52.090,f6:90:cc:01:6d:25, 2015-01-01 02:14:31.245, 0.848, -0.111, -0.495, -0.183, -0.305, 0, -167.399, -59.189, -39.232, -31.253, -8.753, 11.013, 26.98, 0.07465, 0.83231, -0.23871, 0.49457,
 12:44:52.090,f6:90:cc:01:6d:25, 2015-01-01 02:14:31.245, 0.846, -0.111, -0.493, -0.061, -0.183, 0, -167.404, -59.183, -39.232, -31.253, -8.753, 11.013, 26.98, 0.07465, 0.83231, -0.23871, 0.49457,
 12:44:52.097,ed:40:fe:65:30:6c, 2015-01-01 02:14:30.220, 0.904, -0.195, 0.401, -0.427, 0.061, 0.183, -26.576, -63.748, -88.215, -25.493, -2.940, 7.387, 22.61, 0.50891, -0.49783, -0.23312, -0.66235,
 12:44:52.097,ed:40:fe:65:30:6c, 2015-01-01 02:14:30.220, 0.9, -0.2, 0.397, -0.244, 0, 0.427, -26.587, -63.743, -88.198, -25.493, -2.940, 7.387, 22.61, 0.50891, -0.49783, -0.23312, -0.66235,
 12:44:52.119,e3:ca:2d:fd:e0:8c, 2015-01-01 02:14:31.205, 0.974, -0.146, -0.263, 0, 0.122, 0, -150.963, -72.949, -68.445, -28.827, -9.180, -3.773, 23.86, 0.15634, 0.72781, -0.31372, 0.58936,
 12:44:52.119,e3:ca:2d:fd:e0:8c, 2015-01-01 02:14:31.205, 0.972, -0.146, -0.262, 0.061, 0.183, 0, -150.958, -72.949, -68.456, -28.827, -9.180, -3.773, 23.86, 0.15634, 0.72781, -0.31372, 0.58936,
 12:44:52.121,f6:90:cc:01:6d:25, 2015-01-01 02:14:31.245, 0.846, -0.109, -0.495, 0.061, 0, 0, -167.399, -59.183, -39.238, -31.253, -8.753, 11.013, 26.98, 0.07465, 0.83231, -0.23871, 0.49457,
 12:44:52.121,f6:90:cc:01:6d:25, 2015-01-01 02:14:31.245, 0.847, -0.109, -0.495, 0.122, 0, 0, -167.399, -59.183, -39.243, -31.253, -8.753, 11.013, 26.98, 0.07465, 0.83231, -0.23871, 0.49457,
 12:44:52.123,ed:35:33:d3:6c:f8, 2015-01-01 02:14:30.520, 0.966, -0.018, 0.231, 0, 0.244, 0.549, -3.625, -76.344, 149.513, -22.360, -9.380, -12.347, 27.08, 0.22672, 0.58942, -0.18735, 0.75232,
 12:44:52.123,ed:35:33:d3:6c:f8, 2015-01-01 02:14:30.520, 0.966, -0.019, 0.23, 0.366, 0.366, 0.427, -3.658, -76.339, 149.535, -22.360, -9.380, -12.347, 27.08, 0.22672, 0.58942, -0.18735, 0.75232,
 12:44:52.127,ed:40:fe:65:30:6c, 2015-01-01 02:14:30.220, 0.905, -0.2, 0.398, -0.061, 0, 0.427, -26.603, -63.743, -88.182, -25.493, -2.940, 7.387, 22.61, 0.50891, -0.49783, -0.23312, -0.66235,
 12:44:52.127,ed:40:fe:65:30:6c, 2015-01-01 02:14:30.220, 0.905, -0.201, 0.396, 0.305, 0.305, 0.183, -26.592, -63.732, -88.176, -25.493, -2.940, 7.387, 22.61, 0.50891, -0.49783, -0.23312, -0.66235,
 12:44:52.148,e3:ca:2d:fd:e0:8c, 2015-01-01 02:14:31.205, 0.975, -0.147, -0.263, -0.061, 0.061, 0, -150.952, -72.949, -68.467, -28.827, -9.180, -3.773, 23.86, 0.15634, 0.72781, -0.31372, 0.58936,
 12:44:52.148,e3:ca:2d:fd:e0:8c, 2015-01-01 02:14:31.205, 0.977, -0.147, -0.264, -0.061, 0, 0, -150.947, -72.949, -68.478, -28.827, -9.180, -3.773, 23.86, 0.15634, 0.72781, -0.31372, 0.58936,
 12:44:52.152,ed:35:33:d3:6c:f8, 2015-01-01 02:14:30.520, 0.969, -0.015, 0.23, 0.183, 0.488, 0.122, -3.669, -76.328, 149.529, -22.227, -9.480, -12.580, 27.08, 0.22672, 0.58942, -0.18735, 0.75232,
 12:44:52.152,ed:35:33:d3:6c:f8, 2015-01-01 02:14:30.520, 0.965, -0.016, 0.232, 0, 0.549, 0, -3.669, -76.322, 149.491, -22.227, -9.480, -12.580, 27.08, 0.22672, 0.58942, -0.18735, 0.75232,
 12:44:52.180,f6:90:cc:01:6d:25, 2015-01-01 02:14:31.245, 0.847, -0.11, -0.496, 0.183, 0, 0, -167.399, -59.178, -39.249, -31.253, -8.753, 11.013, 26.98, 0.07465, 0.83231, -0.23871, 0.49457,
 12:44:52.180,f6:90:cc:01:6d:25, 2015-01-01 02:14:31.245, 0.847, -0.111, -0.498, 0.122, 0.061, 0, -167.393, -59.178, -39.254, -31.253, -8.753, 11.013, 26.98, 0.07465, 0.83231, -0.23871, 0.49457,
 12:44:52.184,ed:35:33:d3:6c:f8, 2015-01-01 02:14:30.520, 0.968, -0.016, 0.231, -0.122, 0.61, 0, -3.669, -76.311, 149.436, -22.227, -9.480, -12.580, 27.08, 0.22672, 0.58942, -0.18735, 0.75232,
 12:44:52.184,ed:35:33:d3:6c:f8, 2015-01-01 02:14:30.520, 0.968, -0.016, 0.234, -0.244, 0.61, 0, -3.669, -76.3, 149.387, -22.227, -9.480, -12.580, 27.08, 0.22672, 0.58942, -0.18735, 0.75232,
 12:44:52.186,ed:40:fe:65:30:6c, 2015-01-01 02:14:30.545, 0.904, -0.199, 0.396, 0.305, 0.427, 0, -26.576, -63.726, -88.171, -25.493, -2.940, 7.387, 22.61, 0.50891, -0.49783, -0.23312, -0.66235,
 12:44:52.186,ed:40:fe:65:30:6c, 2015-01-01 02:14:30.545, 0.902, -0.2, 0.399, 0.244, 0.366, 0, -26.565, -63.721, -88.16, -25.493, -2.940, 7.387, 22.61, 0.50891, -0.49783, -0.23312, -0.66235,
 12:44:52.208,e3:ca:2d:fd:e0:8c, 2015-01-01 02:14:31.205, 0.977, -0.147, -0.263, 0, -0.122, 0, -150.952, -72.949, -68.483, -28.827, -9.180, -3.773, 23.86, 0.15707, 0.72736, -0.3147, 0.58917,
 12:44:52.208,e3:ca:2d:fd:e0:8c, 2015-01-01 02:14:31.205, 0.976, -0.147, -0.263, -0.061, 0, 0, -150.952, -72.944, -68.489, -28.827, -9.180, -3.773, 23.86, 0.15707, 0.72736, -0.3147, 0.58917,
 12:44:52.210,f6:90:cc:01:6d:25, 2015-01-01 02:14:31.245, 0.848, -0.11, -0.498, 0.061, 0.122, 0, -167.393, -59.183, -39.26, -31.420, -8.533, 10.953, 26.98, 0.07465, 0.83231, -0.23871, 0.49457,
 12:44:52.210,f6:90:cc:01:6d:25, 2015-01-01 02:14:31.245, 0.848, -0.109, -0.498, 0.122, 0.183, 0, -167.393, -59.183, -39.265, -31.420, -8.533, 10.953, 26.98, 0.07465, 0.83231, -0.23871, 0.49457,
 12:44:52.216,ed:40:fe:65:30:6c, 2015-01-01 02:14:30.545, 0.906, -0.199, 0.397, 0.122, 0.488, 0, -26.554, -63.71, -88.16, -25.493, -2.940, 7.387, 22.61, 0.50891, -0.49783, -0.23312, -0.66235,
 12:44:52.216,ed:40:fe:65:30:6c, 2015-01-01 02:14:30.545, 0.905, -0.198, 0.4, 0.061, 0.427, -0.244, -26.537, -63.71, -88.16, -25.493, -2.940, 7.387, 22.61, 0.50891, -0.49783, -0.23312, -0.66235,
 12:44:52.238,e3:ca:2d:fd:e0:8c, 2015-01-01 02:14:31.560, 0.977, -0.147, -0.262, -0.061, 0, 0, -150.952, -72.944, -68.494, -28.827, -9.180, -3.773, 23.86, 0.15707, 0.72736, -0.3147, 0.58917,
 12:44:52.238,e3:ca:2d:fd:e0:8c, 2015-01-01 02:14:31.560, 0.975, -0.146, -0.261, 0.061, 0.122, 0, -150.947, -72.944, -68.505, -28.827, -9.180, -3.773, 23.86, 0.15707, 0.72736, -0.3147, 0.58917,
 12:44:52.245,ed:40:fe:65:30:6c, 2015-01-01 02:14:30.545, 0.905, -0.195, 0.399, -0.122, 0.244, -0.427, -26.516, -63.71, -88.176, -25.493, -2.940, 7.387, 22.61, 0.50891, -0.49783, -0.23312, -0.66235,
 12:44:52.245,ed:40:fe:65:30:6c, 2015-01-01 02:14:30.545, 0.903, -0.199, 0.4, 0.183, 0.122, -0.061, -26.505, -63.704, -88.182, -25.493, -2.940, 7.387, 22.61, 0.50891, -0.49783, -0.23312, -0.66235,
 12:44:52.269,e3:ca:2d:fd:e0:8c, 2015-01-01 02:14:31.560, 0.975, -0.146, -0.261, 0.061, 0.244, 0, -150.941, -72.944, -68.516, -28.827, -9.180, -3.773, 23.86, 0.15707, 0.72736, -0.3147, 0.58917,
 12:44:52.269,e3:ca:2d:fd:e0:8c, 2015-01-01 02:14:31.560, 0.975, -0.147, -0.261, 0, 0.244, 0, -150.93, -72.949, -68.533, -28.827, -9.180, -3.773, 23.86, 0.15707, 0.72736, -0.3147, 0.58917,
 12:44:52.272,f6:90:cc:01:6d:25, 2015-01-01 02:14:31.245, 0.847, -0.11, -0.498, 0.061, 0.305, 0, -167.388, -59.183, -39.271, -31.420, -8.533, 10.953, 26.98, 0.07465, 0.83231, -0.23871, 0.49457,
 12:44:52.272,f6:90:cc:01:6d:25, 2015-01-01 02:14:31.245, 0.847, -0.112, -0.497, 0.061, 0.244, 0, -167.382, -59.189, -39.276, -31.420, -8.533, 10.953, 26.98, 0.07465, 0.83231, -0.23871, 0.49457,
 12:44:52.274,ed:35:33:d3:6c:f8, 2015-01-01 02:14:30.520, 0.967, -0.014, 0.235, -0.427, 0.244, -0.671, -3.653, -76.295, 149.343, -22.227, -9.480, -12.580, 27.08, 0.22653, 0.58884, -0.18726, 0.75284,
 12:44:52.274,ed:35:33:d3:6c:f8, 2015-01-01 02:14:30.520, 0.967, -0.012, 0.236, -0.061, 0.427, -0.183, -3.62, -76.289, 149.31, -22.227, -9.480, -12.580, 27.08, 0.22653, 0.58884, -0.18726, 0.75284,
 12:44:52.300,f6:90:cc:01:6d:25, 2015-01-01 02:14:31.245, 0.848, -0.111, -0.494, 0, 0.183, 0, -167.382, -59.189, -39.282, -31.420, -8.533, 10.953, 26.98, 0.07501, 0.83218, -0.23935, 0.49442,
 12:44:52.300,f6:90:cc:01:6d:25, 2015-01-01 02:14:31.245, 0.848, -0.109, -0.494, 0, 0.183, 0, -167.382, -59.194, -39.287, -31.420, -8.533, 10.953, 26.98, 0.07501, 0.83218, -0.23935, 0.49442,
 12:44:52.302,ed:35:33:d3:6c:f8, 2015-01-01 02:14:30.520, 0.965, -0.012, 0.234, 0.061, 0.427, 0.061, -3.615, -76.284, 149.304, -22.227, -9.480, -12.580, 27.08, 0.22653, 0.58884, -0.18726, 0.75284,
 12:44:52.302,ed:35:33:d3:6c:f8, 2015-01-01 02:14:30.520, 0.964, -0.017, 0.234, -0.122, 0.61, 0.122, -3.615, -76.273, 149.299, -22.227, -9.480, -12.580, 27.08, 0.22653, 0.58884, -0.18726, 0.75284,
 12:44:52.306,ed:40:fe:65:30:6c, 2015-01-01 02:14:30.545, 0.901, -0.197, 0.399, 0, 0, 0.061, -26.51, -63.704, -88.187, -25.493, -2.940, 7.387, 22.61, 0.50891, -0.49783, -0.23312, -0.66235,
 12:44:52.306,ed:40:fe:65:30:6c, 2015-01-01 02:14:30.545, 0.902, -0.198, 0.401, -0.061, 0, 0, -26.51, -63.71, -88.193, -25.493, -2.940, 7.387, 22.61, 0.50891, -0.49783, -0.23312, -0.66235,
 12:44:52.331,f6:90:cc:01:6d:25, 2015-01-01 02:14:31.245, 0.848, -0.108, -0.493, 0, 0.122, 0, -167.382, -59.194, -39.293, -31.420, -8.533, 10.953, 26.98, 0.07501, 0.83218, -0.23935, 0.49442,
 12:44:52.331,f6:90:cc:01:6d:25, 2015-01-01 02:14:31.245, 0.847, -0.109, -0.494, 0.122, 0.061, 0, -167.382, -59.194, -39.298, -31.420, -8.533, 10.953, 26.98, 0.07501, 0.83218, -0.23935, 0.49442,
 12:44:52.358,e3:ca:2d:fd:e0:8c, 2015-01-01 02:14:31.560, 0.975, -0.146, -0.261, 0, 0.183, 0, -150.919, -72.955, -68.549, -28.827, -9.180, -3.773, 23.86, 0.15707, 0.72736, -0.3147, 0.58917,
 12:44:52.358,e3:ca:2d:fd:e0:8c, 2015-01-01 02:14:31.560, 0.974, -0.145, -0.262, -0.061, 0.244, 0, -150.914, -72.955, -68.56, -28.827, -9.180, -3.773, 23.86, 0.15707, 0.72736, -0.3147, 0.58917,
 12:44:52.358,e3:ca:2d:fd:e0:8c, 2015-01-01 02:14:31.560, 0.973, -0.146, -0.261, -0.122, 0.183, 0, -150.903, -72.96, -68.577, -28.827, -9.180, -3.773, 23.86, 0.15707, 0.72736, -0.3147, 0.58917,
 12:44:52.358,e3:ca:2d:fd:e0:8c, 2015-01-01 02:14:31.560, 0.976, -0.146, -0.263, -0.122, 0.061, 0, -150.903, -72.96, -68.588, -28.827, -9.180, -3.773, 23.86, 0.15707, 0.72736, -0.3147, 0.58917,
 12:44:52.362,f6:90:cc:01:6d:25, 2015-01-01 02:14:31.635, 0.848, -0.11, -0.494, 0.061, 0.061, 0, -167.382, -59.194, -39.298, -31.420, -8.533, 10.953, 26.98, 0.07501, 0.83218, -0.23935, 0.49442,
 12:44:52.362,f6:90:cc:01:6d:25, 2015-01-01 02:14:31.635, 0.848, -0.109, -0.493, 0.122, 0, 0, -167.377, -59.194, -39.304, -31.420, -8.533, 10.953, 26.98, 0.07501, 0.83218, -0.23935, 0.49442,
 12:44:52.364,ed:35:33:d3:6c:f8, 2015-01-01 02:14:30.520, 0.964, -0.013, 0.237, -0.427, 0.916, -0.061, -3.62, -76.262, 149.26, -22.227, -9.480, -12.580, 27.08, 0.22653, 0.58884, -0.18726, 0.75284,
 12:44:52.364,ed:35:33:d3:6c:f8, 2015-01-01 02:14:30.520, 0.965, -0.017, 0.235, -0.305, 0.854, 0, -3.62, -76.245, 149.222, -22.227, -9.480, -12.580, 27.08, 0.22653, 0.58884, -0.18726, 0.75284,
 12:44:52.366,ed:40:fe:65:30:6c, 2015-01-01 02:14:30.545, 0.902, -0.195, 0.401, -0.122, 0.122, 0, -26.505, -63.704, -88.204, -25.493, -2.940, 7.387, 22.61, 0.50891, -0.49783, -0.23312, -0.66235,
 12:44:52.366,ed:40:fe:65:30:6c, 2015-01-01 02:14:30.545, 0.902, -0.199, 0.401, 0.061, 0.122, 0, -26.499, -63.704, -88.209, -25.493, -2.940, 7.387, 22.61, 0.50891, -0.49783, -0.23312, -0.66235,
 12:44:52.368,ed:40:fe:65:30:6c, 2015-01-01 02:14:30.545, 0.902, -0.198, 0.4, 0.366, 0.183, -0.061, -26.483, -63.699, -88.22, -25.493, -2.940, 7.387, 22.61, 0.50891, -0.49783, -0.23312, -0.66235,
 12:44:52.368,ed:40:fe:65:30:6c, 2015-01-01 02:14:30.545, 0.899, -0.197, 0.399, 0.488, 0.122, -0.122, -26.466, -63.699, -88.242, -25.493, -2.940, 7.387, 22.61, 0.50891, -0.49783, -0.23312, -0.66235,
 12:44:52.391,e3:ca:2d:fd:e0:8c, 2015-01-01 02:14:31.560, 0.975, -0.145, -0.261, -0.061, 0, 0, -150.903, -72.96, -68.593, -28.827, -9.180, -3.773, 23.86, 0.15707, 0.72736, -0.3147, 0.58917,
 12:44:52.391,e3:ca:2d:fd:e0:8c, 2015-01-01 02:14:31.560, 0.975, -0.145, -0.26, -0.122, -0.122, 0, -150.908, -72.96, -68.599, -28.827, -9.180, -3.773, 23.86, 0.15707, 0.72736, -0.3147, 0.58917,
 12:44:52.393,ed:35:33:d3:6c:f8, 2015-01-01 02:14:30.520, 0.966, -0.016, 0.237, 0.061, 0.61, -0.122, -3.615, -76.229, 149.183, -22.227, -9.480, -12.580, 27.08, 0.22653, 0.58884, -0.18726, 0.75284,
 12:44:52.393,ed:35:33:d3:6c:f8, 2015-01-01 02:14:30.520, 0.962, -0.016, 0.234, 0.366, 0.488, -0.122, -3.598, -76.218, 149.134, -22.227, -9.480, -12.580, 27.08, 0.22653, 0.58884, -0.18726, 0.75284,
 12:44:52.420,f6:90:cc:01:6d:25, 2015-01-01 02:14:31.635, 0.848, -0.108, -0.493, 0, 0, 0, -167.377, -59.194, -39.309, -31.420, -8.533, 10.953, 26.98, 0.07501, 0.83218, -0.23935, 0.49442,
 12:44:52.420,f6:90:cc:01:6d:25, 2015-01-01 02:14:31.635, 0.848, -0.109, -0.496, -0.183, 0, 0, -167.382, -59.194, -39.309, -31.420, -8.533, 10.953, 26.98, 0.07501, 0.83218, -0.23935, 0.49442,
 12:44:52.423,ed:35:33:d3:6c:f8, 2015-01-01 02:14:30.520, 0.964, -0.015, 0.237, 0.305, 0.793, -0.366, -3.571, -76.207, 149.079, -22.227, -9.480, -12.580, 27.27, 0.22653, 0.58884, -0.18726, 0.75284,
 12:44:52.423,ed:35:33:d3:6c:f8, 2015-01-01 02:14:30.520, 0.964, -0.011, 0.239, -0.122, 1.16, -0.732, -3.521, -76.19, 149.008, -22.227, -9.480, -12.580, 27.27, 0.22653, 0.58884, -0.18726, 0.75284,
 12:44:52.427,ed:40:fe:65:30:6c, 2015-01-01 02:14:30.545, 0.902, -0.193, 0.402, 0.427, 0.244, -0.366, -26.439, -63.699, -88.275, -25.720, -2.927, 6.647, 22.61, 0.50891, -0.49783, -0.23312, -0.66235,
 12:44:52.427,ed:40:fe:65:30:6c, 2015-01-01 02:14:30.545, 0.904, -0.191, 0.402, 0, 0.427, -0.549, -26.406, -63.693, -88.33, -25.720, -2.927, 6.647, 22.61, 0.50891, -0.49783, -0.23312, -0.66235,
 12:44:52.449,e3:ca:2d:fd:e0:8c, 2015-01-01 02:14:31.560, 0.977, -0.146, -0.26, -0.122, -0.122, 0, -150.914, -72.955, -68.599, -28.827, -9.180, -3.773, 23.86, 0.15707, 0.72736, -0.3147, 0.58917,
 12:44:52.449,e3:ca:2d:fd:e0:8c, 2015-01-01 02:14:31.560, 0.976, -0.148, -0.261, -0.122, 0, 0, -150.914, -72.955, -68.604, -28.827, -9.180, -3.773, 23.86, 0.15707, 0.72736, -0.3147, 0.58917,
 12:44:52.451,f6:90:cc:01:6d:25, 2015-01-01 02:14:31.635, 0.847, -0.111, -0.496, -0.061, 0, 0, -167.388, -59.194, -39.315, -31.420, -8.533, 10.953, 26.98, 0.07501, 0.83218, -0.23935, 0.49442,
 12:44:52.451,f6:90:cc:01:6d:25, 2015-01-01 02:14:31.635, 0.847, -0.112, -0.497, -0.061, 0.061, 0, -167.388, -59.194, -39.32, -31.420, -8.533, 10.953, 26.98, 0.07501, 0.83218, -0.23935, 0.49442,
 12:44:52.453,ed:35:33:d3:6c:f8, 2015-01-01 02:14:30.520, 0.966, -0.008, 0.241, -0.549, 0.854, -0.61, -3.466, -76.168, 148.953, -22.227, -9.480, -12.580, 27.27, 0.22653, 0.58884, -0.18726, 0.75284,
 12:44:52.453,ed:35:33:d3:6c:f8, 2015-01-01 02:14:30.520, 0.969, -0.01, 0.24, -0.427, 0.366, -0.122, -3.444, -76.157, 148.914, -22.227, -9.480, -12.580, 27.27, 0.22653, 0.58884, -0.18726, 0.75284,
 12:44:52.457,ed:40:fe:65:30:6c, 2015-01-01 02:14:30.545, 0.905, -0.193, 0.402, -0.305, 0.244, -0.305, -26.395, -63.693, -88.358, -25.720, -2.927, 6.647, 22.61, 0.50909, -0.49707, -0.23325, -0.66272,
 12:44:52.457,ed:40:fe:65:30:6c, 2015-01-01 02:14:30.545, 0.905, -0.197, 0.401, -0.183, 0, 0, -26.389, -63.693, -88.369, -25.720, -2.927, 6.647, 22.61, 0.50909, -0.49707, -0.23325, -0.66272,
 12:44:52.479,e3:ca:2d:fd:e0:8c, 2015-01-01 02:14:31.560, 0.974, -0.148, -0.261, -0.061, 0.061, 0, -150.914, -72.955, -68.615, -29.047, -9.107, -2.813, 23.86, 0.15707, 0.72736, -0.3147, 0.58917,
 12:44:52.479,e3:ca:2d:fd:e0:8c, 2015-01-01 02:14:31.560, 0.973, -0.147, -0.261, 0, 0.122, 0, -150.908, -72.955, -68.621, -29.047, -9.107, -2.813, 23.86, 0.15707, 0.72736, -0.3147, 0.58917,
 12:44:52.481,f6:90:cc:01:6d:25, 2015-01-01 02:14:31.635, 0.847, -0.111, -0.496, 0, 0.061, 0, -167.388, -59.194, -39.32, -31.420, -8.533, 10.953, 26.98, 0.07501, 0.83218, -0.23935, 0.49442,
 12:44:52.481,f6:90:cc:01:6d:25, 2015-01-01 02:14:31.635, 0.848, -0.109, -0.497, 0, 0.122, 0, -167.388, -59.194, -39.326, -31.420, -8.533, 10.953, 26.98, 0.07501, 0.83218, -0.23935, 0.49442,
 12:44:52.483,ed:35:33:d3:6c:f8, 2015-01-01 02:14:30.520, 0.966, -0.014, 0.236, 0.061, 0.122, 0.244, -3.444, -76.152, 148.909, -22.227, -9.480, -12.580, 27.27, 0.22653, 0.58884, -0.18726, 0.75284,
 12:44:52.483,ed:35:33:d3:6c:f8, 2015-01-01 02:14:30.520, 0.967, -0.015, 0.231, 0.183, 0.244, 0.427, -3.466, -76.152, 148.936, -22.227, -9.480, -12.580, 27.27, 0.22653, 0.58884, -0.18726, 0.75284,
 12:44:52.487,ed:40:fe:65:30:6c, 2015-01-01 02:14:30.545, 0.904, -0.198, 0.399, -0.061, -0.122, 0.305, -26.4, -63.693, -88.363, -25.720, -2.927, 6.647, 22.61, 0.50909, -0.49707, -0.23325, -0.66272,
 12:44:52.487,ed:40:fe:65:30:6c, 2015-01-01 02:14:30.545, 0.903, -0.197, 0.396, 0, 0, 0.305, -26.411, -63.688, -88.358, -25.720, -2.927, 6.647, 22.61, 0.50909, -0.49707, -0.23325, -0.66272,
 12:44:52.513,ed:35:33:d3:6c:f8, 2015-01-01 02:14:31.090, 0.968, -0.014, 0.232, 0.061, 0.427, 0.244, -3.488, -76.146, 148.947, -22.227, -9.480, -12.580, 27.27, 0.22653, 0.58884, -0.18726, 0.75284,
 12:44:52.513,ed:35:33:d3:6c:f8, 2015-01-01 02:14:31.090, 0.962, -0.018, 0.236, 0.122, 0.61, 0.061, -3.494, -76.135, 148.942, -22.227, -9.480, -12.580, 27.27, 0.22653, 0.58884, -0.18726, 0.75284,
 12:44:52.537,e3:ca:2d:fd:e0:8c, 2015-01-01 02:14:31.560, 0.975, -0.145, -0.263, 0, 0.061, 0, -150.903, -72.955, -68.632, -29.047, -9.107, -2.813, 23.86, 0.15707, 0.72736, -0.3147, 0.58917,
 12:44:52.537,e3:ca:2d:fd:e0:8c, 2015-01-01 02:14:31.560, 0.977, -0.145, -0.263, 0, 0.122, 0, -150.897, -72.955, -68.643, -29.047, -9.107, -2.813, 23.86, 0.15707, 0.72736, -0.3147, 0.58917,
 12:44:52.541,f6:90:cc:01:6d:25, 2015-01-01 02:14:31.635, 0.847, -0.109, -0.494, 0.061, 0.122, 0, -167.388, -59.194, -39.331, -31.420, -8.533, 10.953, 26.98, 0.07501, 0.83218, -0.23935, 0.49442,
 12:44:52.541,f6:90:cc:01:6d:25, 2015-01-01 02:14:31.635, 0.847, -0.112, -0.496, 0.061, 0.122, 0, -167.388, -59.194, -39.337, -31.420, -8.533, 10.953, 26.98, 0.07501, 0.83218, -0.23935, 0.49442,
 12:44:52.543,ed:35:33:d3:6c:f8, 2015-01-01 02:14:31.090, 0.962, -0.017, 0.239, 0.122, 0.549, 0, -3.488, -76.124, 148.914, -22.227, -9.480, -12.580, 27.27, 0.22653, 0.58884, -0.18726, 0.75284,
 12:44:52.543,ed:35:33:d3:6c:f8, 2015-01-01 02:14:31.090, 0.964, -0.013, 0.242, -0.122, 0.61, -0.183, -3.483, -76.113, 148.892, -22.227, -9.480, -12.580, 27.27, 0.22653, 0.58884, -0.18726, 0.75284,
 12:44:52.545,ed:40:fe:65:30:6c, 2015-01-01 02:14:30.905, 0.9, -0.2, 0.401, 0.366, 0.183, 0, -26.406, -63.688, -88.363, -25.720, -2.927, 6.647, 22.61, 0.50909, -0.49707, -0.23325, -0.66272,
 12:44:52.545,ed:40:fe:65:30:6c, 2015-01-01 02:14:30.905, 0.9, -0.196, 0.401, 0.061, 0.244, 0, -26.395, -63.682, -88.374, -25.720, -2.927, 6.647, 22.61, 0.50909, -0.49707, -0.23325, -0.66272,
 12:44:52.569,e3:ca:2d:fd:e0:8c, 2015-01-01 02:14:31.560, 0.976, -0.147, -0.264, 0, 0.183, 0, -150.892, -72.96, -68.654, -29.047, -9.107, -2.813, 23.86, 0.15762, 0.72696, -0.31546, 0.58914,
 12:44:52.569,e3:ca:2d:fd:e0:8c, 2015-01-01 02:14:31.560, 0.974, -0.145, -0.263, 0, 0, 0, -150.892, -72.96, -68.659, -29.047, -9.107, -2.813, 23.86, 0.15762, 0.72696, -0.31546, 0.58914,
 12:44:52.571,f6:90:cc:01:6d:25, 2015-01-01 02:14:31.635, 0.848, -0.107, -0.495, -0.061, 0.183, 0, -167.388, -59.194, -39.337, -31.000, -8.767, 10.380, 26.98, 0.07501, 0.83218, -0.23935, 0.49442,
 12:44:52.571,f6:90:cc:01:6d:25, 2015-01-01 02:14:31.635, 0.849, -0.107, -0.495, 0.061, 0.122, 0, -167.388, -59.2, -39.342, -31.000, -8.767, 10.380, 26.98, 0.07501, 0.83218, -0.23935, 0.49442,
 12:44:52.575,ed:40:fe:65:30:6c, 2015-01-01 02:14:30.905, 0.903, -0.192, 0.405, -0.061, 0.183, -0.183, -26.384, -63.682, -88.385, -25.720, -2.927, 6.647, 22.61, 0.50909, -0.49707, -0.23325, -0.66272,
 12:44:52.575,ed:40:fe:65:30:6c, 2015-01-01 02:14:30.905, 0.903, -0.192, 0.405, -0.244, 0.183, -0.366, -26.373, -63.677, -88.401, -25.720, -2.927, 6.647, 22.61, 0.50909, -0.49707, -0.23325, -0.66272,
 12:44:52.599,e3:ca:2d:fd:e0:8c, 2015-01-01 02:14:31.560, 0.977, -0.145, -0.262, -0.122, 0, 0, -150.892, -72.96, -68.665, -29.047, -9.107, -2.813, 23.86, 0.15762, 0.72696, -0.31546, 0.58914,
 12:44:52.599,e3:ca:2d:fd:e0:8c, 2015-01-01 02:14:31.560, 0.979, -0.146, -0.262, 0, 0, 0, -150.892, -72.96, -68.67, -29.047, -9.107, -2.813, 23.86, 0.15762, 0.72696, -0.31546, 0.58914,
 12:44:52.601,f6:90:cc:01:6d:25, 2015-01-01 02:14:31.635, 0.848, -0.11, -0.492, 0.061, 0, 0, -167.388, -59.2, -39.348, -31.000, -8.767, 10.380, 26.98, 0.07501, 0.83218, -0.23935, 0.49442,
 12:44:52.601,f6:90:cc:01:6d:25, 2015-01-01 02:14:31.635, 0.847, -0.111, -0.496, -0.061, -0.122, 0, -167.388, -59.2, -39.348, -31.000, -8.767, 10.380, 26.98, 0.07501, 0.83218, -0.23935, 0.49442,
 12:44:52.603,ed:35:33:d3:6c:f8, 2015-01-01 02:14:31.090, 0.964, -0.011, 0.244, -0.61, 0.305, -0.61, -3.455, -76.108, 148.865, -22.227, -9.480, -12.580, 27.27, 0.22653, 0.58884, -0.18726, 0.75284,
 12:44:52.603,ed:35:33:d3:6c:f8, 2015-01-01 02:14:31.090, 0.966, -0.007, 0.243, -0.244, 0, -0.366, -3.422, -76.102, 148.815, -22.227, -9.480, -12.580, 27.27, 0.22653, 0.58884, -0.18726, 0.75284,
 12:44:52.604,ed:40:fe:65:30:6c, 2015-01-01 02:14:30.905, 0.902, -0.196, 0.403, -0.061, -0.061, 0.122, -26.362, -63.677, -88.418, -25.720, -2.927, 6.647, 22.61, 0.50909, -0.49707, -0.23325, -0.66272,
 12:44:52.604,ed:40:fe:65:30:6c, 2015-01-01 02:14:30.905, 0.901, -0.197, 0.401, 0.183, -0.244, 0.732, -26.367, -63.677, -88.407, -25.720, -2.927, 6.647, 22.61, 0.50909, -0.49707, -0.23325, -0.66272,
 12:44:52.633,ed:35:33:d3:6c:f8, 2015-01-01 02:14:31.090, 0.964, -0.011, 0.24, 0.427, 0.061, 0.671, -3.428, -76.102, 148.799, -22.227, -9.480, -12.580, 27.27, 0.22653, 0.58884, -0.18726, 0.75284,
 12:44:52.633,ed:35:33:d3:6c:f8, 2015-01-01 02:14:31.090, 0.965, -0.015, 0.236, 0.427, 0.244, 0.793, -3.472, -76.097, 148.837, -22.227, -9.480, -12.580, 27.27, 0.22653, 0.58884, -0.18726, 0.75284,
 12:44:52.659,e3:ca:2d:fd:e0:8c, 2015-01-01 02:14:31.950, 0.974, -0.147, -0.26, 0, 0.122, 0, -150.886, -72.96, -68.681, -29.047, -9.107, -2.813, 23.86, 0.15762, 0.72696, -0.31546, 0.58914,
 12:44:52.659,e3:ca:2d:fd:e0:8c, 2015-01-01 02:14:31.950, 0.973, -0.146, -0.26, -0.122, 0.244, 0, -150.881, -72.96, -68.692, -29.047, -9.107, -2.813, 23.86, 0.15762, 0.72696, -0.31546, 0.58914,
 12:44:52.661,f6:90:cc:01:6d:25, 2015-01-01 02:14:31.635, 0.848, -0.111, -0.496, -0.122, -0.122, 0, -167.393, -59.194, -39.353, -31.000, -8.767, 10.380, 26.98, 0.07538, 0.832, -0.2399, 0.49442,
 12:44:52.661,f6:90:cc:01:6d:25, 2015-01-01 02:14:31.635, 0.847, -0.108, -0.493, 0, -0.061, 0, -167.393, -59.189, -39.353, -31.000, -8.767, 10.380, 26.98, 0.07538, 0.832, -0.2399, 0.49442,
 12:44:52.665,ed:40:fe:65:30:6c, 2015-01-01 02:14:30.905, 0.903, -0.196, 0.4, 0.122, -0.183, 0.61, -26.389, -63.677, -88.38, -25.720, -2.927, 6.647, 22.61, 0.50909, -0.49707, -0.23325, -0.66272,
 12:44:52.665,ed:40:fe:65:30:6c, 2015-01-01 02:14:30.905, 0.902, -0.196, 0.401, 0, -0.183, 0.305, -26.4, -63.671, -88.358, -25.720, -2.927, 6.647, 22.61, 0.50909, -0.49707, -0.23325, -0.66272,
 12:44:52.689,e3:ca:2d:fd:e0:8c, 2015-01-01 02:14:31.950, 0.974, -0.145, -0.259, -0.122, 0.183, 0, -150.875, -72.966, -68.703, -29.047, -9.107, -2.813, 23.86, 0.15762, 0.72696, -0.31546, 0.58914,
 12:44:52.689,e3:ca:2d:fd:e0:8c, 2015-01-01 02:14:31.950, 0.974, -0.144, -0.262, 0, 0, 0, -150.875, -72.966, -68.714, -29.047, -9.107, -2.813, 23.86, 0.15762, 0.72696, -0.31546, 0.58914,
 12:44:52.691,f6:90:cc:01:6d:25, 2015-01-01 02:14:31.960, 0.847, -0.107, -0.493, 0, 0.061, 0, -167.393, -59.189, -39.359, -31.000, -8.767, 10.380, 26.98, 0.07538, 0.832, -0.2399, 0.49442,
 12:44:52.691,f6:90:cc:01:6d:25, 2015-01-01 02:14:31.960, 0.848, -0.11, -0.494, 0, 0, 0, -167.399, -59.189, -39.359, -31.000, -8.767, 10.380, 26.98, 0.07538, 0.832, -0.2399, 0.49442,
 12:44:52.693,ed:35:33:d3:6c:f8, 2015-01-01 02:14:31.090, 0.965, -0.016, 0.238, 0, 0.183, 0.427, -3.51, -76.091, 148.848, -22.227, -9.480, -12.580, 27.27, 0.22653, 0.58884, -0.18726, 0.75284,
 12:44:52.693,ed:35:33:d3:6c:f8, 2015-01-01 02:14:31.090, 0.962, -0.016, 0.238, -0.244, 0, 0.122, -3.532, -76.091, 148.843, -22.227, -9.480, -12.580, 27.27, 0.22653, 0.58884, -0.18726, 0.75284,
 12:44:52.695,ed:40:fe:65:30:6c, 2015-01-01 02:14:30.905, 0.9, -0.198, 0.4, -0.122, -0.122, 0, -26.411, -63.677, -88.347, -25.720, -2.927, 6.647, 22.61, 0.50909, -0.49707, -0.23325, -0.66272,
 12:44:52.695,ed:40:fe:65:30:6c, 2015-01-01 02:14:30.905, 0.901, -0.197, 0.402, -0.244, -0.061, -0.061, -26.411, -63.677, -88.347, -25.720, -2.927, 6.647, 22.61, 0.50909, -0.49707, -0.23325, -0.66272,
 12:44:52.718,e3:ca:2d:fd:e0:8c, 2015-01-01 02:14:31.950, 0.973, -0.146, -0.261, 0, 0.122, 0, -150.87, -72.966, -68.719, -29.047, -9.107, -2.813, 23.86, 0.15762, 0.72696, -0.31546, 0.58914,
 12:44:52.718,e3:ca:2d:fd:e0:8c, 2015-01-01 02:14:31.950, 0.974, -0.148, -0.26, -0.061, 0, 0, -150.87, -72.966, -68.725, -29.047, -9.107, -2.813, 23.86, 0.15762, 0.72696, -0.31546, 0.58914,
 12:44:52.720,f6:90:cc:01:6d:25, 2015-01-01 02:14:31.960, 0.848, -0.111, -0.494, 0, 0, 0, -167.399, -59.189, -39.364, -31.000, -8.767, 10.380, 26.98, 0.07538, 0.832, -0.2399, 0.49442,
 12:44:52.720,f6:90:cc:01:6d:25, 2015-01-01 02:14:31.960, 0.847, -0.112, -0.495, 0, 0, 0, -167.399, -59.189, -39.364, -31.000, -8.767, 10.380, 26.98, 0.07538, 0.832, -0.2399, 0.49442,
 12:44:52.724,ed:35:33:d3:6c:f8, 2015-01-01 02:14:31.090, 0.963, -0.016, 0.24, -0.244, -0.061, 0, -3.538, -76.091, 148.832, -22.087, -9.340, -13.100, 27.27, 0.22653, 0.58884, -0.18726, 0.75284,
 12:44:52.724,ed:35:33:d3:6c:f8, 2015-01-01 02:14:31.090, 0.963, -0.014, 0.238, -0.183, 0, 0, -3.543, -76.091, 148.804, -22.087, -9.340, -13.100, 27.27, 0.22653, 0.58884, -0.18726, 0.75284,
 12:44:52.726,ed:40:fe:65:30:6c, 2015-01-01 02:14:30.905, 0.901, -0.198, 0.4, -0.122, 0.061, 0, -26.411, -63.677, -88.352, -25.393, -2.467, 6.480, 22.61, 0.50909, -0.49707, -0.23325, -0.66272,
 12:44:52.726,ed:40:fe:65:30:6c, 2015-01-01 02:14:30.905, 0.902, -0.195, 0.402, -0.122, 0, 0.122, -26.406, -63.677, -88.352, -25.393, -2.467, 6.480, 22.61, 0.50909, -0.49707, -0.23325, -0.66272,
 12:44:52.754,ed:35:33:d3:6c:f8, 2015-01-01 02:14:31.090, 0.964, -0.013, 0.24, -0.183, -0.122, 0.061, -3.549, -76.091, 148.804, -22.087, -9.340, -13.100, 27.27, 0.22653, 0.58884, -0.18726, 0.75284,
 12:44:52.754,ed:35:33:d3:6c:f8, 2015-01-01 02:14:31.090, 0.966, -0.014, 0.238, 0, -0.305, 0.305, -3.565, -76.097, 148.821, -22.087, -9.340, -13.100, 27.27, 0.22653, 0.58884, -0.18726, 0.75284,
 12:44:52.782,f6:90:cc:01:6d:25, 2015-01-01 02:14:31.960, 0.847, -0.112, -0.496, 0.061, 0, 0, -167.399, -59.189, -39.37, -31.000, -8.767, 10.380, 26.98, 0.07538, 0.832, -0.2399, 0.49442,
 12:44:52.782,f6:90:cc:01:6d:25, 2015-01-01 02:14:31.960, 0.847, -0.111, -0.498, 0.183, 0.061, 0, -167.399, -59.189, -39.375, -31.000, -8.767, 10.380, 26.98, 0.07538, 0.832, -0.2399, 0.49442,
 12:44:52.786,ed:40:fe:65:30:6c, 2015-01-01 02:14:30.905, 0.904, -0.198, 0.4, 0, 0, 0.305, -26.411, -63.671, -88.352, -25.393, -2.467, 6.480, 22.61, 0.50909, -0.49707, -0.23325, -0.66272,
 12:44:52.786,ed:40:fe:65:30:6c, 2015-01-01 02:14:30.905, 0.905, -0.198, 0.401, 0, 0, 0.366, -26.422, -63.671, -88.341, -25.393, -2.467, 6.480, 22.61, 0.50909, -0.49707, -0.23325, -0.66272,
 12:44:52.808,e3:ca:2d:fd:e0:8c, 2015-01-01 02:14:31.950, 0.978, -0.148, -0.262, -0.061, -0.183, 0, -150.875, -72.96, -68.73, -29.047, -9.107, -2.813, 23.86, 0.15762, 0.72696, -0.31546, 0.58914,
 12:44:52.808,e3:ca:2d:fd:e0:8c, 2015-01-01 02:14:31.950, 0.977, -0.147, -0.262, 0, -0.061, 0, -150.875, -72.96, -68.73, -29.047, -9.107, -2.813, 23.86, 0.15762, 0.72696, -0.31546, 0.58914,
 12:44:52.810,f6:90:cc:01:6d:25, 2015-01-01 02:14:31.960, 0.848, -0.109, -0.496, 0.488, 0.122, 0, -167.388, -59.189, -39.375, -31.000, -8.767, 10.380, 26.98, 0.07538, 0.832, -0.2399, 0.49442,
 12:44:52.810,f6:90:cc:01:6d:25, 2015-01-01 02:14:31.960, 0.847, -0.108, -0.496, 0.305, 0.122, 0, -167.382, -59.189, -39.38, -31.000, -8.767, 10.380, 26.98, 0.07538, 0.832, -0.2399, 0.49442,
 12:44:52.814,ed:35:33:d3:6c:f8, 2015-01-01 02:14:31.090, 0.967, -0.015, 0.238, -0.061, -0.305, 0.427, -3.593, -76.102, 148.843, -22.087, -9.340, -13.100, 27.27, 0.22995, 0.58676, -0.18915, 0.75296,
 12:44:52.814,ed:35:33:d3:6c:f8, 2015-01-01 02:14:31.090, 0.967, -0.017, 0.238, -0.183, -0.61, 0, -3.615, -76.108, 148.843, -22.087, -9.340, -13.100, 27.27, 0.22995, 0.58676, -0.18915, 0.75296,
 12:44:52.816,ed:40:fe:65:30:6c, 2015-01-01 02:14:30.905, 0.906, -0.197, 0.4, -0.366, -0.122, 0.061, -26.428, -63.666, -88.33, -25.393, -2.467, 6.480, 22.61, 0.50916, -0.49707, -0.23303, -0.66275,
 12:44:52.816,ed:40:fe:65:30:6c, 2015-01-01 02:14:30.905, 0.906, -0.197, 0.4, -0.061, -0.061, 0.122, -26.439, -63.671, -88.33, -25.393, -2.467, 6.480, 22.61, 0.50916, -0.49707, -0.23303, -0.66275,
 12:44:52.841,e3:ca:2d:fd:e0:8c, 2015-01-01 02:14:31.950, 0.974, -0.147, -0.262, 0.061, 0, 0, -150.875, -72.96, -68.736, -29.047, -9.107, -2.813, 23.86, 0.15762, 0.72696, -0.31546, 0.58914,
 12:44:52.841,e3:ca:2d:fd:e0:8c, 2015-01-01 02:14:31.950, 0.974, -0.147, -0.262, 0.122, 0.061, 0, -150.87, -72.96, -68.741, -29.047, -9.107, -2.813, 23.86, 0.15762, 0.72696, -0.31546, 0.58914,
 12:44:52.841,f6:90:cc:01:6d:25, 2015-01-01 02:14:31.960, 0.848, -0.109, -0.497, 0.305, 0.122, 0, -167.377, -59.189, -39.386, -31.000, -8.767, 10.380, 26.98, 0.07538, 0.832, -0.2399, 0.49442,
 12:44:52.841,f6:90:cc:01:6d:25, 2015-01-01 02:14:31.960, 0.848, -0.112, -0.496, 0.244, 0.122, 0, -167.371, -59.189, -39.386, -31.000, -8.767, 10.380, 26.98, 0.07538, 0.832, -0.2399, 0.49442,
 12:44:52.843,ed:35:33:d3:6c:f8, 2015-01-01 02:14:31.445, 0.967, -0.012, 0.236, 0, -0.488, 0.122, -3.62, -76.119, 148.848, -22.087, -9.340, -13.100, 27.27, 0.22995, 0.58676, -0.18915, 0.75296,
 12:44:52.843,ed:35:33:d3:6c:f8, 2015-01-01 02:14:31.445, 0.966, -0.012, 0.236, -0.061, -0.488, 0.366, -3.642, -76.13, 148.892, -22.087, -9.340, -13.100, 27.27, 0.22995, 0.58676, -0.18915, 0.75296,
 12:44:52.847,ed:40:fe:65:30:6c, 2015-01-01 02:14:30.905, 0.903, -0.196, 0.399, -0.183, -0.244, 0.244, -26.444, -63.671, -88.325, -25.393, -2.467, 6.480, 22.61, 0.50916, -0.49707, -0.23303, -0.66275,
 12:44:52.847,ed:40:fe:65:30:6c, 2015-01-01 02:14:30.905, 0.904, -0.199, 0.399, 0, -0.183, 0.244, -26.455, -63.671, -88.308, -25.393, -2.467, 6.480, 22.61, 0.50916, -0.49707, -0.23303, -0.66275,
 12:44:52.868,e3:ca:2d:fd:e0:8c, 2015-01-01 02:14:31.950, 0.976, -0.145, -0.261, 0.244, 0, 0, -150.859, -72.96, -68.747, -29.047, -9.107, -2.813, 23.86, 0.15762, 0.72696, -0.31546, 0.58914,
 12:44:52.868,e3:ca:2d:fd:e0:8c, 2015-01-01 02:14:31.950, 0.976, -0.146, -0.261, 0.122, 0.061, 0, -150.853, -72.96, -68.752, -29.047, -9.107, -2.813, 23.86, 0.15762, 0.72696, -0.31546, 0.58914,
 12:44:52.898,e3:ca:2d:fd:e0:8c, 2015-01-01 02:14:31.950, 0.976, -0.146, -0.262, 0, 0.122, 0, -150.848, -72.96, -68.763, -29.027, -9.113, -3.193, 23.86, 0.15762, 0.72696, -0.31546, 0.58914,
 12:44:52.898,e3:ca:2d:fd:e0:8c, 2015-01-01 02:14:31.950, 0.974, -0.145, -0.262, 0.061, 0.122, 0, -150.842, -72.96, -68.774, -29.027, -9.113, -3.193, 23.86, 0.15762, 0.72696, -0.31546, 0.58914,
 12:44:52.900,f6:90:cc:01:6d:25, 2015-01-01 02:14:31.960, 0.848, -0.109, -0.496, 0.122, 0.122, 0, -167.366, -59.194, -39.391, -31.000, -8.767, 10.380, 26.98, 0.07538, 0.832, -0.2399, 0.49442,
 12:44:52.900,f6:90:cc:01:6d:25, 2015-01-01 02:14:31.960, 0.847, -0.109, -0.495, 0, 0.122, 0, -167.366, -59.194, -39.397, -31.000, -8.767, 10.380, 26.98, 0.07538, 0.832, -0.2399, 0.49442,
 12:44:52.905,ed:40:fe:65:30:6c, 2015-01-01 02:14:31.260, 0.901, -0.198, 0.4, -0.122, -0.122, 0.122, -26.466, -63.677, -88.303, -25.393, -2.467, 6.480, 22.61, 0.50916, -0.49707, -0.23303, -0.66275,
 12:44:52.905,ed:40:fe:65:30:6c, 2015-01-01 02:14:31.260, 0.901, -0.197, 0.399, 0, -0.061, 0.122, -26.472, -63.677, -88.297, -25.393, -2.467, 6.480, 22.61, 0.50916, -0.49707, -0.23303, -0.66275,
 12:44:52.928,e3:ca:2d:fd:e0:8c, 2015-01-01 02:14:31.950, 0.974, -0.144, -0.262, 0, 0.061, 0, -150.842, -72.96, -68.78, -29.027, -9.113, -3.193, 23.86, 0.15762, 0.72696, -0.31546, 0.58914,
 12:44:52.928,e3:ca:2d:fd:e0:8c, 2015-01-01 02:14:31.950, 0.975, -0.146, -0.261, 0, 0.122, 0, -150.837, -72.966, -68.785, -29.027, -9.113, -3.193, 23.86, 0.15762, 0.72696, -0.31546, 0.58914,
 12:44:52.930,f6:90:cc:01:6d:25, 2015-01-01 02:14:31.960, 0.848, -0.109, -0.494, 0.061, 0.183, 0, -167.366, -59.194, -39.397, -31.220, -8.713, 10.153, 26.98, 0.07538, 0.832, -0.2399, 0.49442,
 12:44:52.930,f6:90:cc:01:6d:25, 2015-01-01 02:14:31.960, 0.848, -0.109, -0.494, 0.122, 0.122, 0, -167.366, -59.194, -39.402, -31.220, -8.713, 10.153, 26.98, 0.07538, 0.832, -0.2399, 0.49442,
 12:44:52.933,ed:35:33:d3:6c:f8, 2015-01-01 02:14:31.445, 0.966, -0.017, 0.235, 0, -0.427, 0.366, -3.669, -76.135, 148.947, -22.087, -9.340, -13.100, 27.27, 0.22995, 0.58676, -0.18915, 0.75296,
 12:44:52.933,ed:35:33:d3:6c:f8, 2015-01-01 02:14:31.445, 0.964, -0.017, 0.236, -0.183, -0.305, 0.061, -3.691, -76.146, 149.002, -22.087, -9.340, -13.100, 27.27, 0.22995, 0.58676, -0.18915, 0.75296,
 12:44:52.933,ed:35:33:d3:6c:f8, 2015-01-01 02:14:31.445, 0.963, -0.015, 0.235, -0.122, -0.122, 0.061, -3.697, -76.146, 149.024, -22.087, -9.340, -13.100, 27.27, 0.22995, 0.58676, -0.18915, 0.75296,
 12:44:52.933,ed:35:33:d3:6c:f8, 2015-01-01 02:14:31.445, 0.963, -0.013, 0.236, -0.183, 0.061, 0.061, -3.702, -76.152, 149.03, -22.087, -9.340, -13.100, 27.27, 0.22995, 0.58676, -0.18915, 0.75296,
 12:44:52.937,ed:40:fe:65:30:6c, 2015-01-01 02:14:31.260, 0.901, -0.195, 0.4, 0, 0.061, 0.122, -26.472, -63.677, -88.292, -25.393, -2.467, 6.480, 22.61, 0.50916, -0.49707, -0.23303, -0.66275,
 12:44:52.937,ed:40:fe:65:30:6c, 2015-01-01 02:14:31.260, 0.901, -0.193, 0.402, -0.061, 0.122, 0.122, -26.472, -63.671, -88.292, -25.393, -2.467, 6.480, 22.61, 0.50916, -0.49707, -0.23303, -0.66275,
 12:44:52.959,e3:ca:2d:fd:e0:8c, 2015-01-01 02:14:31.950, 0.976, -0.146, -0.261, 0, 0.061, 0, -150.837, -72.966, -68.796, -29.027, -9.113, -3.193, 23.86, 0.15805, 0.72659, -0.31607, 0.58914,
 12:44:52.959,e3:ca:2d:fd:e0:8c, 2015-01-01 02:14:31.950, 0.976, -0.146, -0.259, 0, 0, 0, -150.837, -72.966, -68.802, -29.027, -9.113, -3.193, 23.86, 0.15805, 0.72659, -0.31607, 0.58914,
 12:44:52.961,f6:90:cc:01:6d:25, 2015-01-01 02:14:31.960, 0.848, -0.109, -0.493, 0.122, 0, 0, -167.366, -59.194, -39.408, -31.220, -8.713, 10.153, 26.98, 0.07538, 0.832, -0.2399, 0.49442,
 12:44:52.961,f6:90:cc:01:6d:25, 2015-01-01 02:14:31.960, 0.848, -0.108, -0.493, 0, 0, 0, -167.366, -59.194, -39.408, -31.220, -8.713, 10.153, 26.98, 0.07538, 0.832, -0.2399, 0.49442,
 12:44:52.965,ed:40:fe:65:30:6c, 2015-01-01 02:14:31.260, 0.903, -0.193, 0.403, -0.366, 0.061, 0, -26.472, -63.671, -88.292, -25.393, -2.467, 6.480, 22.61, 0.50916, -0.49707, -0.23303, -0.66275,
 12:44:52.965,ed:40:fe:65:30:6c, 2015-01-01 02:14:31.260, 0.904, -0.199, 0.4, -0.488, 0.122, -0.122, -26.472, -63.671, -88.297, -25.393, -2.467, 6.480, 22.61, 0.50916, -0.49707, -0.23303, -0.66275,
 12:44:52.993,ed:35:33:d3:6c:f8, 2015-01-01 02:14:31.445, 0.963, -0.012, 0.239, -0.122, 0.061, 0.244, -3.719, -76.146, 149.057, -22.087, -9.340, -13.100, 27.27, 0.22995, 0.58676, -0.18915, 0.75296,
 12:44:52.993,ed:35:33:d3:6c:f8, 2015-01-01 02:14:31.445, 0.966, -0.014, 0.241, -0.366, 0.061, 0.122, -3.73, -76.146, 149.095, -22.087, -9.340, -13.100, 27.27, 0.22995, 0.58676, -0.18915, 0.75296,
 12:44:53.020,f6:90:cc:01:6d:25, 2015-01-01 02:14:31.960, 0.847, -0.111, -0.495, 0, 0, 0, -167.366, -59.194, -39.413, -31.220, -8.713, 10.153, 26.98, 0.07544, 0.83191, -0.24023, 0.49442,
 12:44:53.020,f6:90:cc:01:6d:25, 2015-01-01 02:14:31.960, 0.847, -0.112, -0.496, 0, 0, 0, -167.366, -59.194, -39.413, -31.220, -8.713, 10.153, 26.98, 0.07544, 0.83191, -0.24023, 0.49442,
 12:44:53.022,ed:35:33:d3:6c:f8, 2015-01-01 02:14:31.445, 0.966, -0.017, 0.238, -0.488, 0, 0, -3.741, -76.146, 149.123, -22.087, -9.340, -13.100, 27.27, 0.22995, 0.58676, -0.18915, 0.75296,
 12:44:53.022,ed:35:33:d3:6c:f8, 2015-01-01 02:14:31.445, 0.965, -0.013, 0.237, -0.427, 0, 0, -3.746, -76.146, 149.123, -22.087, -9.340, -13.100, 27.27, 0.22995, 0.58676, -0.18915, 0.75296,
 12:44:53.048,e3:ca:2d:fd:e0:8c, 2015-01-01 02:14:31.950, 0.975, -0.146, -0.26, 0, -0.061, 0, -150.837, -72.96, -68.802, -29.027, -9.113, -3.193, 23.86, 0.15805, 0.72659, -0.31607, 0.58914,
 12:44:53.048,e3:ca:2d:fd:e0:8c, 2015-01-01 02:14:31.950, 0.975, -0.147, -0.26, 0, -0.061, 0, -150.837, -72.96, -68.807, -29.027, -9.113, -3.193, 23.86, 0.15805, 0.72659, -0.31607, 0.58914,
 12:44:53.048,e3:ca:2d:fd:e0:8c, 2015-01-01 02:14:31.950, 0.975, -0.149, -0.26, 0.061, 0.061, 0, -150.837, -72.96, -68.813, -29.027, -9.113, -3.193, 23.86, 0.15805, 0.72659, -0.31607, 0.58914,
 12:44:53.048,e3:ca:2d:fd:e0:8c, 2015-01-01 02:14:31.950, 0.974, -0.147, -0.26, 0.122, 0.061, 0, -150.826, -72.96, -68.818, -29.027, -9.113, -3.193, 23.86, 0.15805, 0.72659, -0.31607, 0.58914,
 12:44:53.050,f6:90:cc:01:6d:25, 2015-01-01 02:14:31.960, 0.847, -0.111, -0.494, 0.183, 0.061, 0, -167.366, -59.194, -39.413, -31.220, -8.713, 10.153, 26.98, 0.07544, 0.83191, -0.24023, 0.49442,
 12:44:53.050,f6:90:cc:01:6d:25, 2015-01-01 02:14:31.960, 0.847, -0.11, -0.493, 0.244, 0.122, 0, -167.36, -59.194, -39.419, -31.220, -8.713, 10.153, 26.98, 0.07544, 0.83191, -0.24023, 0.49442,
