Index,L5_Acceleration X(g),L5_Acceleration Y(g),L5_Acceleration Z(g),L5_Angular velocity X(°/s),L5_Angular velocity Y(°/s),L5_Angular velocity Z(°/s),L5_Angle X(°),L5_Angle Y(°),L5_Angle Z(°),L5_Magnetic field X(ʯt),L5_Magnetic field Y(ʯt),L5_Magnetic field Z(ʯt),L5_Temperature(℃),L5_Quaternions 0(),L5_Quaternions 1(),L5_Quaternions 2(),L5_Quaternions 3(),L5___orig_idx,T4_Acceleration X(g),T4_Acceleration Y(g),T4_Acceleration Z(g),T4_Angular velocity X(°/s),T4_Angular velocity Y(°/s),T4_Angular velocity Z(°/s),T4_Angle X(°),T4_Angle Y(°),T4_Angle Z(°),T4_Magnetic field X(ʯt),T4_Magnetic field Y(ʯt),T4_Magnetic field Z(ʯt),T4_Temperature(℃),T4_Quaternions 0(),T4_Quaternions 1(),T4_Quaternions 2(),T4_Quaternions 3(),T4___orig_idx,C7_Acceleration X(g),C7_Acceleration Y(g),C7_Acceleration Z(g),C7_Angular velocity X(°/s),C7_Angular velocity Y(°/s),C7_Angular velocity Z(°/s),C7_Angle X(°),C7_Angle Y(°),C7_Angle Z(°),C7_Magnetic field X(ʯt),C7_Magnetic field Y(ʯt),C7_Magnetic field Z(ʯt),C7_Temperature(℃),C7_Quaternions 0(),C7_Quaternions 1(),C7_Quaternions 2(),C7_Quaternions 3(),C7___orig_idx,T12_Acceleration X(g),T12_Acceleration Y(g),T12_Acceleration Z(g),T12_Angular velocity X(°/s),T12_Angular velocity Y(°/s),T12_Angular velocity Z(°/s),T12_Angle X(°),T12_Angle Y(°),T12_Angle Z(°),T12_Magnetic field X(ʯt),T12_Magnetic field Y(ʯt),T12_Magnetic field Z(ʯt),T12_Temperature(℃),T12_Quaternions 0(),T12_Quaternions 1(),T12_Quaternions 2(),T12_Quaternions 3(),T12___orig_idx
0,0.97,-0.127,0.294,3.113,-0.061,0.793,-22.846,-71.785,177.781,-28.793,-6.573,-13.373,27.64,0.13788,0.5704,-0.17645,0.79019,0.0,0.771,-0.003,0.643,1.526,0.305,1.404,-0.209,-50.251,-110.303,-24.68,-5.133,-1.293,25.64,-0.51566,0.34979,0.24091,0.74405,8.0,0.595,0.041,0.796,1.282,0.793,1.343,3.038,-36.595,157.544,-16.733,-8.273,-27.247,28.81,0.1796,0.31357,-0.03748,0.93161,4.0,0.963,-0.092,0.196,2.441,0.122,0.305,-24.214,-77.206,-149.277,-31.967,-6.467,-5.1,29.41,0.07034,-0.63202,0.00095,-0.7717,2
1,0.97,-0.127,0.294,3.601,0.0,0.854,-22.824,-71.779,177.863,-28.793,-6.573,-13.373,27.64,0.13788,0.5704,-0.17645,0.79019,1.0,0.772,-0.002,0.644,1.587,0.305,1.526,-0.214,-50.246,-110.242,-24.68,-5.133,-1.293,25.64,-0.51566,0.34979,0.24091,0.74405,9.0,0.595,0.042,0.797,1.038,0.732,1.465,3.038,-36.584,157.582,-16.733,-8.273,-27.247,28.81,0.1796,0.31357,-0.03748,0.93161,5.0,0.965,-0.093,0.195,2.808,0.122,0.305,-24.192,-77.201,-149.211,-31.967,-6.467,-5.1,29.41,0.07034,-0.63202,0.00095,-0.7717,3
2,0.971,-0.126,0.296,4.028,0.061,0.916,-22.802,-71.768,177.935,-28.793,-6.573,-13.373,27.64,0.13788,0.5704,-0.17645,0.79019,6.0,0.771,-0.001,0.645,1.709,0.244,1.587,-0.22,-50.24,-110.187,-24.68,-5.133,-1.293,25.64,-0.51566,0.34979,0.24091,0.74405,12.0,0.594,0.043,0.798,1.221,0.854,1.587,3.038,-36.573,157.61,-16.733,-8.273,-27.247,28.81,0.1796,0.31357,-0.03748,0.93161,10.0,0.964,-0.094,0.196,2.991,0.183,0.305,-24.164,-77.201,-149.161,-32.187,-5.887,-4.913,29.41,0.07034,-0.63202,0.00095,-0.7717,22
3,0.97,-0.126,0.296,4.272,0.122,1.038,-22.775,-71.757,178.0,-28.793,-6.573,-13.373,27.64,0.13788,0.5704,-0.17645,0.79019,7.0,0.771,0.0,0.646,1.831,0.305,1.831,-0.225,-50.235,-110.132,-24.68,-5.133,-1.293,25.64,-0.51566,0.34979,0.24091,0.74405,13.0,0.594,0.045,0.798,1.648,0.916,1.77,3.043,-36.562,157.632,-16.733,-8.273,-27.247,28.81,0.1796,0.31357,-0.03748,0.93161,11.0,0.962,-0.094,0.196,3.235,0.244,0.427,-24.137,-77.195,-149.101,-32.187,-5.887,-4.913,29.41,0.07034,-0.63202,0.00095,-0.7717,23
4,0.97,-0.126,0.297,4.395,0.122,1.099,-22.753,-71.746,178.05,-28.793,-6.573,-13.373,27.64,0.12952,0.57166,-0.16995,0.79211,14.0,0.77,-0.001,0.646,1.77,0.427,1.831,-0.231,-50.224,-110.078,-24.68,-5.133,-1.293,25.64,-0.51566,0.34979,0.24091,0.74405,18.0,0.592,0.042,0.798,1.709,1.038,1.709,3.049,-36.546,157.698,-17.087,-8.093,-27.607,28.81,0.1796,0.31357,-0.03748,0.93161,16.0,0.963,-0.094,0.196,3.479,0.244,0.488,-24.109,-77.19,-149.068,-32.187,-5.887,-4.913,29.41,0.07034,-0.63202,0.00095,-0.7717,26
5,0.969,-0.125,0.296,4.761,0.0,1.099,-22.725,-71.741,178.11,-28.793,-6.573,-13.373,27.64,0.12952,0.57166,-0.16995,0.79211,15.0,0.769,-0.003,0.646,1.648,0.488,1.831,-0.242,-50.213,-110.017,-24.68,-5.133,-1.293,25.64,-0.51566,0.34979,0.24091,0.74405,19.0,0.591,0.042,0.8,1.282,0.916,1.77,3.054,-36.53,157.791,-17.087,-8.093,-27.607,28.81,0.1796,0.31357,-0.03748,0.93161,17.0,0.963,-0.092,0.198,3.906,0.305,0.488,-24.082,-77.179,-149.041,-32.187,-5.887,-4.913,29.41,0.07034,-0.63202,0.00095,-0.7717,27
6,0.969,-0.123,0.295,5.066,0.0,1.099,-22.687,-71.73,178.182,-28.793,-6.573,-13.373,27.64,0.12952,0.57166,-0.16995,0.79211,20.0,0.77,-0.003,0.647,1.831,0.366,1.892,-0.247,-50.208,-109.946,-24.68,-5.133,-1.293,25.64,-0.51566,0.34979,0.24091,0.74405,30.0,0.591,0.042,0.8,1.343,0.854,2.014,3.049,-36.513,157.841,-17.087,-8.093,-27.607,28.81,0.1796,0.31357,-0.03748,0.93161,28.0,0.963,-0.092,0.199,4.211,0.366,0.488,-24.049,-77.173,-149.024,-32.187,-5.887,-4.913,29.41,0.07034,-0.63202,0.00095,-0.7717,38
7,0.97,-0.123,0.296,5.31,0.0,1.221,-22.654,-71.719,178.253,-28.793,-6.573,-13.373,27.64,0.12952,0.57166,-0.16995,0.79211,21.0,0.769,0.0,0.647,1.953,0.244,2.014,-0.258,-50.197,-109.863,-24.68,-5.133,-1.293,25.64,-0.51566,0.34979,0.24091,0.74405,31.0,0.591,0.044,0.801,1.343,0.977,2.075,3.043,-36.502,157.885,-17.087,-8.093,-27.607,28.81,0.1796,0.31357,-0.03748,0.93161,29.0,0.963,-0.093,0.2,4.395,0.366,0.61,-24.005,-77.162,-148.997,-32.187,-5.887,-4.913,29.41,0.07034,-0.63202,0.00095,-0.7717,39
8,0.97,-0.124,0.297,5.493,-0.122,1.343,-22.626,-71.713,178.352,-28.793,-6.573,-13.373,27.64,0.12952,0.57166,-0.16995,0.79211,24.0,0.769,0.002,0.648,1.831,0.244,2.075,-0.269,-50.191,-109.781,-24.68,-5.133,-1.293,25.64,-0.51566,0.34979,0.24091,0.74405,34.0,0.59,0.047,0.801,1.404,1.099,2.136,3.043,-36.48,157.945,-17.087,-8.093,-27.607,28.81,0.17389,0.31207,-0.03525,0.93329,32.0,0.961,-0.092,0.2,4.456,0.366,0.732,-23.967,-77.151,-148.953,-32.187,-5.887,-4.913,29.41,0.07034,-0.63202,0.00095,-0.7717,46
9,0.97,-0.124,0.297,5.615,-0.305,1.465,-22.604,-71.708,178.451,-28.793,-6.573,-13.373,27.64,0.12952,0.57166,-0.16995,0.79211,25.0,0.769,0.002,0.646,1.831,0.305,2.136,-0.28,-50.186,-109.698,-24.68,-5.133,-1.293,25.64,-0.51566,0.34979,0.24091,0.74405,35.0,0.59,0.046,0.8,1.648,1.221,2.014,3.043,-36.464,158.0,-17.087,-8.093,-27.607,28.81,0.17389,0.31207,-0.03525,0.93329,33.0,0.961,-0.091,0.2,4.578,0.366,0.793,-23.939,-77.141,-148.898,-32.187,-5.887,-4.913,29.41,0.07034,-0.63202,0.00095,-0.7717,47
10,0.968,-0.122,0.297,5.92,-0.427,1.526,-22.582,-71.702,178.528,-28.793,-6.573,-13.373,27.64,0.12952,0.57166,-0.16995,0.79211,36.0,0.77,0.001,0.645,1.465,0.366,2.136,-0.291,-50.175,-109.616,-24.68,-5.133,-1.293,25.64,-0.51566,0.34979,0.24091,0.74405,40.0,0.589,0.045,0.798,1.526,0.977,1.77,3.043,-36.442,158.071,-17.087,-8.093,-27.607,28.81,0.17389,0.31207,-0.03525,0.93329,42.0,0.961,-0.091,0.201,5.005,0.244,0.793,-23.912,-77.13,-148.832,-32.187,-5.887,-4.913,29.41,0.08087,-0.63095,-0.00763,-0.77148,50
11,0.968,-0.122,0.296,6.226,-0.488,1.587,-22.56,-71.697,178.61,-28.793,-6.573,-13.373,27.64,0.12952,0.57166,-0.16995,0.79211,37.0,0.772,0.001,0.648,1.099,0.366,1.892,-0.313,-50.164,-109.539,-24.68,-5.133,-1.293,25.64,-0.51566,0.34979,0.24091,0.74405,41.0,0.593,0.043,0.801,0.854,1.16,1.526,3.043,-36.425,158.126,-17.087,-8.093,-27.607,28.81,0.17389,0.31207,-0.03525,0.93329,43.0,0.962,-0.09,0.201,5.371,0.183,0.671,-23.873,-77.119,-148.749,-32.187,-5.887,-4.913,29.41,0.08087,-0.63095,-0.00763,-0.77148,51
12,0.97,-0.122,0.298,6.348,-0.549,1.587,-22.538,-71.697,178.709,-28.793,-6.573,-13.373,27.64,0.12952,0.57166,-0.16995,0.79211,44.0,0.774,0.001,0.65,0.854,0.0,1.526,-0.33,-50.158,-109.468,-24.68,-5.133,-1.293,25.64,-0.51566,0.34979,0.24091,0.74405,54.0,0.595,0.044,0.805,0.244,1.526,1.099,3.038,-36.398,158.154,-17.087,-8.093,-27.607,28.81,0.17389,0.31207,-0.03525,0.93329,52.0,0.962,-0.09,0.203,5.554,0.0,0.732,-23.824,-77.113,-148.683,-32.187,-5.887,-4.913,29.41,0.08087,-0.63095,-0.00763,-0.77148,62
13,0.973,-0.12,0.296,6.47,-0.61,1.77,-22.522,-71.691,178.802,-28.793,-6.573,-13.373,27.64,0.12952,0.57166,-0.16995,0.79211,45.0,0.771,-0.001,0.645,0.793,0.122,1.465,-0.346,-50.153,-109.402,-24.68,-5.133,-1.293,25.64,-0.51566,0.34979,0.24091,0.74405,55.0,0.589,0.044,0.8,0.61,1.343,0.916,3.032,-36.37,158.187,-17.087,-8.093,-27.607,28.81,0.17389,0.31207,-0.03525,0.93329,53.0,0.961,-0.089,0.201,5.615,0.061,0.793,-23.785,-77.102,-148.596,-32.187,-5.887,-4.913,29.41,0.08087,-0.63095,-0.00763,-0.77148,63
14,0.974,-0.119,0.299,6.287,-0.793,1.831,-22.511,-71.691,178.901,-28.793,-6.573,-13.373,27.64,0.12952,0.57166,-0.16995,0.79211,48.0,0.769,0.0,0.646,0.549,0.61,1.404,-0.363,-50.147,-109.352,-24.707,-4.487,-1.787,25.64,-0.51566,0.34979,0.24091,0.74405,58.0,0.589,0.042,0.796,0.0,1.221,0.793,3.027,-36.348,158.236,-17.087,-8.093,-27.607,28.81,0.17389,0.31207,-0.03525,0.93329,56.0,0.961,-0.089,0.201,5.737,0.0,0.977,-23.747,-77.097,-148.497,-32.187,-5.887,-4.913,29.41,0.08087,-0.63095,-0.00763,-0.77148,64
15,0.972,-0.119,0.295,6.409,-0.732,1.77,-22.5,-71.691,179.017,-28.793,-6.573,-13.373,27.64,0.12952,0.57166,-0.16995,0.79211,49.0,0.771,0.003,0.645,-0.305,0.671,1.099,-0.385,-50.131,-109.319,-24.707,-4.487,-1.787,25.64,-0.51566,0.34979,0.24091,0.74405,59.0,0.592,0.044,0.8,-0.183,1.892,0.061,3.016,-36.321,158.258,-17.087,-8.093,-27.607,28.81,0.17389,0.31207,-0.03525,0.93329,57.0,0.963,-0.086,0.203,5.676,0.0,1.038,-23.719,-77.091,-148.409,-32.187,-5.887,-4.913,29.41,0.08087,-0.63095,-0.00763,-0.77148,65
16,0.97,-0.118,0.297,6.47,-0.671,1.587,-22.467,-71.697,179.116,-28.793,-6.573,-13.373,27.64,0.12952,0.57166,-0.16995,0.79211,60.0,0.77,-0.001,0.643,0.0,0.488,0.854,-0.406,-50.12,-109.286,-24.707,-4.487,-1.787,25.64,-0.51566,0.34979,0.24091,0.74405,68.0,0.59,0.043,0.801,0.671,1.831,-0.183,3.021,-36.282,158.258,-17.087,-8.093,-27.607,28.81,0.17389,0.31207,-0.03525,0.93329,66.0,0.967,-0.083,0.203,5.737,0.0,1.099,-23.698,-77.08,-148.326,-32.187,-5.887,-4.913,29.41,0.08087,-0.63095,-0.00763,-0.77148,72
17,0.969,-0.116,0.297,6.348,-0.732,1.526,-22.44,-71.697,179.209,-28.793,-6.573,-13.373,27.64,0.12952,0.57166,-0.16995,0.79211,61.0,0.768,-0.008,0.648,0.732,0.122,0.854,-0.412,-50.114,-109.259,-24.707,-4.487,-1.787,25.64,-0.51566,0.34979,0.24091,0.74405,69.0,0.585,0.037,0.803,0.671,1.953,0.0,3.038,-36.249,158.28,-17.087,-8.093,-27.607,28.81,0.17389,0.31207,-0.03525,0.93329,67.0,0.965,-0.084,0.204,5.737,-0.183,1.099,-23.676,-77.075,-148.266,-32.187,-5.887,-4.913,29.41,0.08087,-0.63095,-0.00763,-0.77148,73
18,0.97,-0.116,0.297,6.104,-0.488,1.648,-22.418,-71.691,179.313,-28.34,-6.32,-12.967,27.64,0.12952,0.57166,-0.16995,0.79211,70.0,0.767,-0.01,0.648,0.488,0.244,0.793,-0.412,-50.109,-109.232,-24.707,-4.487,-1.787,25.64,-0.52313,0.3472,0.24249,0.7395,80.0,0.585,0.035,0.804,-0.061,1.953,0.0,3.043,-36.211,158.275,-17.087,-8.093,-27.607,28.81,0.17389,0.31207,-0.03525,0.93329,78.0,0.962,-0.088,0.199,5.859,0.0,0.977,-23.643,-77.069,-148.228,-32.187,-5.887,-4.913,29.41,0.08087,-0.63095,-0.00763,-0.77148,76
19,0.971,-0.117,0.298,5.676,-0.305,1.587,-22.39,-71.686,179.396,-28.34,-6.32,-12.967,27.64,0.12952,0.57166,-0.16995,0.79211,71.0,0.765,-0.007,0.646,0.122,0.427,0.732,-0.428,-50.098,-109.204,-24.707,-4.487,-1.787,25.64,-0.52313,0.3472,0.24249,0.7395,81.0,0.583,0.039,0.803,0.0,1.465,0.061,3.038,-36.178,158.242,-17.087,-8.093,-27.607,28.81,0.17389,0.31207,-0.03525,0.93329,79.0,0.961,-0.086,0.202,5.432,0.061,0.977,-23.61,-77.058,-148.206,-32.187,-5.887,-4.913,29.41,0.08087,-0.63095,-0.00763,-0.77148,77
20,0.968,-0.115,0.295,5.249,-0.671,1.343,-22.374,-71.691,179.462,-28.34,-6.32,-12.967,27.64,0.12952,0.57166,-0.16995,0.79211,74.0,0.764,-0.005,0.647,0.122,0.305,0.671,-0.439,-50.092,-109.182,-24.707,-4.487,-1.787,25.64,-0.52313,0.3472,0.24249,0.7395,88.0,0.582,0.04,0.804,0.305,1.404,0.183,3.038,-36.151,158.22,-17.087,-8.093,-27.607,28.81,0.17389,0.31207,-0.03525,0.93329,86.0,0.963,-0.083,0.201,5.249,0.183,1.099,-23.577,-77.053,-148.162,-32.187,-5.887,-4.913,29.41,0.08087,-0.63095,-0.00763,-0.77148,82
21,0.967,-0.116,0.295,5.005,-0.305,1.099,-22.346,-71.691,179.511,-28.34,-6.32,-12.967,27.64,0.12952,0.57166,-0.16995,0.79211,75.0,0.767,-0.004,0.647,0.366,0.183,0.732,-0.45,-50.081,-109.149,-24.707,-4.487,-1.787,25.64,-0.52313,0.3472,0.24249,0.7395,89.0,0.584,0.042,0.804,0.366,1.16,0.305,3.038,-36.129,158.22,-17.087,-8.093,-27.607,28.81,0.17389,0.31207,-0.03525,0.93329,87.0,0.964,-0.086,0.202,5.066,0.366,1.038,-23.549,-77.036,-148.118,-32.187,-5.887,-4.913,29.41,0.08087,-0.63095,-0.00763,-0.77148,83
22,0.969,-0.117,0.296,4.517,-0.244,1.038,-22.308,-71.691,179.561,-28.34,-6.32,-12.967,27.64,0.11685,0.57382,-0.15952,0.79468,90.0,0.769,-0.003,0.647,0.549,0.061,0.732,-0.456,-50.081,-109.122,-24.707,-4.487,-1.787,25.64,-0.52313,0.3472,0.24249,0.7395,98.0,0.585,0.042,0.804,0.488,0.916,0.488,3.038,-36.107,158.231,-16.587,-8.26,-27.053,28.81,0.17389,0.31207,-0.03525,0.93329,96.0,0.961,-0.089,0.203,5.127,0.488,0.854,-23.505,-77.025,-148.085,-32.187,-5.887,-4.913,29.41,0.08087,-0.63095,-0.00763,-0.77148,84
23,0.971,-0.116,0.298,4.028,-0.305,1.038,-22.275,-71.686,179.594,-28.34,-6.32,-12.967,27.64,0.11685,0.57382,-0.15952,0.79468,91.0,0.768,-0.003,0.649,0.61,0.061,0.671,-0.461,-50.076,-109.094,-24.707,-4.487,-1.787,25.64,-0.52313,0.3472,0.24249,0.7395,99.0,0.584,0.042,0.805,0.183,0.977,0.305,3.038,-36.09,158.231,-16.587,-8.26,-27.053,28.81,0.17389,0.31207,-0.03525,0.93329,97.0,0.959,-0.088,0.203,4.883,0.671,0.732,-23.445,-77.009,-148.057,-32.187,-5.887,-4.913,29.41,0.08087,-0.63095,-0.00763,-0.77148,85
24,0.971,-0.116,0.299,3.845,-0.488,1.038,-22.253,-71.686,179.61,-28.34,-6.32,-12.967,27.64,0.11685,0.57382,-0.15952,0.79468,100.0,0.767,-0.002,0.65,0.427,0.061,0.61,-0.461,-50.07,-109.072,-24.707,-4.487,-1.787,25.64,-0.52313,0.3472,0.24249,0.7395,108.0,0.583,0.044,0.808,0.122,0.977,0.305,3.038,-36.068,158.225,-16.587,-8.26,-27.053,28.81,0.17389,0.31207,-0.03525,0.93329,106.0,0.958,-0.089,0.2,4.272,0.671,0.61,-23.384,-76.992,-148.03,-32.187,-5.887,-4.913,29.41,0.08087,-0.63095,-0.00763,-0.77148,92
25,0.969,-0.115,0.3,3.906,-0.427,0.854,-22.231,-71.691,179.626,-28.34,-6.32,-12.967,27.64,0.11685,0.57382,-0.15952,0.79468,101.0,0.767,-0.002,0.649,0.671,0.183,0.854,-0.467,-50.065,-109.056,-24.707,-4.487,-1.787,25.64,-0.52313,0.3472,0.24249,0.7395,109.0,0.584,0.046,0.806,0.61,0.61,0.61,3.032,-36.057,158.236,-16.587,-8.26,-27.053,28.81,0.17389,0.31207,-0.03525,0.93329,107.0,0.958,-0.088,0.201,3.967,0.488,0.488,-23.329,-76.981,-148.002,-32.187,-5.887,-4.913,29.41,0.08087,-0.63095,-0.00763,-0.77148,93
26,0.969,-0.115,0.299,3.784,-0.305,0.732,-22.203,-71.691,179.626,-28.34,-6.32,-12.967,27.64,0.11685,0.57382,-0.15952,0.79468,104.0,0.768,0.0,0.65,0.916,0.183,0.854,-0.467,-50.059,-109.028,-24.707,-4.487,-1.787,25.64,-0.52313,0.3472,0.24249,0.7395,114.0,0.583,0.045,0.806,0.793,0.61,0.671,3.038,-36.041,158.247,-16.587,-8.26,-27.053,28.81,0.17142,0.30856,-0.03366,0.93497,112.0,0.962,-0.086,0.203,3.601,0.244,0.488,-23.28,-76.97,-147.964,-32.187,-5.887,-4.913,29.41,0.08087,-0.63095,-0.00763,-0.77148,94
27,0.969,-0.114,0.3,3.235,-0.366,0.671,-22.165,-71.691,179.61,-28.34,-6.32,-12.967,27.64,0.11685,0.57382,-0.15952,0.79468,105.0,0.767,-0.001,0.649,0.732,0.244,0.793,-0.472,-50.048,-109.006,-24.707,-4.487,-1.787,25.64,-0.52313,0.3472,0.24249,0.7395,115.0,0.583,0.045,0.807,0.671,0.427,0.671,3.043,-36.035,158.258,-16.587,-8.26,-27.053,28.81,0.17142,0.30856,-0.03366,0.93497,113.0,0.963,-0.086,0.207,3.601,0.061,0.427,-23.242,-76.965,-147.925,-32.187,-5.887,-4.913,29.41,0.08087,-0.63095,-0.00763,-0.77148,95
28,0.97,-0.112,0.297,2.563,-0.305,0.61,-22.137,-71.697,179.572,-28.34,-6.32,-12.967,27.64,0.11685,0.57382,-0.15952,0.79468,116.0,0.767,0.0,0.649,0.977,0.061,0.916,-0.472,-50.043,-108.979,-24.707,-4.487,-1.787,25.64,-0.52313,0.3472,0.24249,0.7395,122.0,0.583,0.046,0.807,0.916,0.427,0.854,3.049,-36.024,158.258,-16.587,-8.26,-27.053,28.81,0.17142,0.30856,-0.03366,0.93497,120.0,0.962,-0.086,0.206,3.601,0.061,0.366,-23.198,-76.959,-147.881,-32.187,-5.887,-4.913,29.41,0.08087,-0.63095,-0.00763,-0.77148,102
29,0.972,-0.111,0.298,1.831,-0.122,0.427,-22.115,-71.697,179.539,-28.34,-6.32,-12.967,27.64,0.11685,0.57382,-0.15952,0.79468,117.0,0.767,-0.001,0.65,0.854,0.0,0.977,-0.472,-50.043,-108.957,-24.707,-4.487,-1.787,25.64,-0.52313,0.3472,0.24249,0.7395,123.0,0.583,0.045,0.808,0.916,0.305,0.977,3.054,-36.019,158.247,-16.587,-8.26,-27.053,28.81,0.17142,0.30856,-0.03366,0.93497,121.0,0.961,-0.088,0.206,3.418,0.0,0.244,-23.154,-76.959,-147.843,-32.187,-5.887,-4.913,29.41,0.08087,-0.63095,-0.00763,-0.77148,103
30,0.972,-0.111,0.299,1.282,-0.061,0.305,-22.094,-71.697,179.522,-28.34,-6.32,-12.967,27.64,0.11685,0.57382,-0.15952,0.79468,124.0,0.768,-0.001,0.65,0.732,-0.061,0.793,-0.472,-50.037,-108.94,-24.707,-4.487,-1.787,25.64,-0.52313,0.3472,0.24249,0.7395,132.0,0.583,0.043,0.806,0.61,0.061,0.916,3.06,-36.013,158.242,-16.587,-8.26,-27.053,28.81,0.17142,0.30856,-0.03366,0.93497,130.0,0.961,-0.087,0.207,3.113,0.061,0.305,-23.11,-76.959,-147.799,-32.187,-5.887,-4.913,29.41,0.08087,-0.63095,-0.00763,-0.77148,110
31,0.97,-0.11,0.299,0.916,0.0,0.122,-22.072,-71.697,179.484,-28.34,-6.32,-12.967,27.64,0.11685,0.57382,-0.15952,0.79468,125.0,0.766,-0.001,0.648,0.671,0.0,0.549,-0.472,-50.037,-108.935,-24.707,-4.487,-1.787,25.64,-0.52313,0.3472,0.24249,0.7395,133.0,0.582,0.043,0.805,0.61,0.0,0.732,3.06,-36.013,158.253,-16.587,-8.26,-27.053,28.81,0.17142,0.30856,-0.03366,0.93497,131.0,0.96,-0.084,0.206,2.808,0.0,0.305,-23.071,-76.954,-147.728,-32.187,-5.887,-4.913,29.41,0.08087,-0.63095,-0.00763,-0.77148,111
32,0.969,-0.109,0.297,0.427,0.0,0.0,-22.044,-71.697,179.429,-28.34,-6.32,-12.967,27.64,0.11685,0.57382,-0.15952,0.79468,128.0,0.765,-0.001,0.648,0.427,0.061,0.305,-0.467,-50.032,-108.929,-24.52,-5.267,-1.88,25.64,-0.52313,0.3472,0.24249,0.7395,138.0,0.582,0.044,0.805,0.366,0.0,0.549,3.06,-36.013,158.264,-16.587,-8.26,-27.053,28.81,0.17142,0.30856,-0.03366,0.93497,136.0,0.961,-0.084,0.205,2.441,0.122,0.244,-23.038,-76.954,-147.667,-32.187,-5.887,-4.913,29.41,0.08087,-0.63095,-0.00763,-0.77148,118
33,0.967,-0.11,0.296,-0.183,0.0,-0.061,-22.022,-71.697,179.363,-28.34,-6.32,-12.967,27.64,0.11685,0.57382,-0.15952,0.79468,129.0,0.766,0.0,0.648,0.244,0.0,0.183,-0.461,-50.026,-108.935,-24.52,-5.267,-1.88,25.64,-0.52313,0.3472,0.24249,0.7395,139.0,0.583,0.045,0.806,0.244,0.0,0.366,3.06,-36.008,158.247,-16.587,-8.26,-27.053,28.81,0.17142,0.30856,-0.03366,0.93497,137.0,0.962,-0.083,0.205,2.014,0.0,0.183,-23.011,-76.948,-147.612,-32.187,-5.887,-4.913,29.41,0.08087,-0.63095,-0.00763,-0.77148,119
34,0.969,-0.111,0.296,-0.916,0.0,-0.061,-22.011,-71.702,179.286,-28.34,-6.32,-12.967,27.64,0.11685,0.57382,-0.15952,0.79468,140.0,0.767,0.0,0.648,0.061,-0.183,0.0,-0.456,-50.026,-108.935,-24.52,-5.267,-1.88,25.64,-0.52313,0.3472,0.24249,0.7395,146.0,0.583,0.044,0.805,0.183,-0.122,0.061,3.065,-36.008,158.242,-16.587,-8.26,-27.053,28.81,0.17142,0.30856,-0.03366,0.93497,144.0,0.963,-0.082,0.206,1.526,0.061,0.061,-22.978,-76.948,-147.568,-32.187,-5.887,-4.913,29.41,0.08087,-0.63095,-0.00763,-0.77148,126
35,0.971,-0.113,0.298,-1.404,0.0,0.0,-22.011,-71.702,179.236,-28.34,-6.32,-12.967,27.64,0.11685,0.57382,-0.15952,0.79468,141.0,0.768,-0.001,0.649,0.0,-0.183,-0.305,-0.445,-50.026,-108.951,-24.52,-5.267,-1.88,25.64,-0.52313,0.3472,0.24249,0.7395,147.0,0.585,0.043,0.805,-0.061,-0.183,-0.183,3.065,-36.013,158.253,-16.587,-8.26,-27.053,28.81,0.17142,0.30856,-0.03366,0.93497,145.0,0.961,-0.08,0.207,0.916,0.0,0.0,-22.95,-76.948,-147.546,-32.187,-5.887,-4.913,29.41,0.08087,-0.63095,-0.00763,-0.77148,127
36,0.971,-0.115,0.298,-1.465,0.0,0.0,-22.022,-71.702,179.198,-28.707,-6.213,-13.44,27.64,0.11685,0.57382,-0.15952,0.79468,148.0,0.768,-0.002,0.649,-0.305,-0.183,-0.488,-0.434,-50.026,-108.968,-24.52,-5.267,-1.88,25.64,-0.52515,0.34619,0.2428,0.73846,154.0,0.583,0.044,0.806,-0.366,-0.061,-0.427,3.065,-36.013,158.264,-16.587,-8.26,-27.053,28.81,0.17142,0.30856,-0.03366,0.93497,152.0,0.959,-0.081,0.206,0.244,0.061,-0.061,-22.928,-76.948,-147.552,-31.827,-5.947,-5.087,29.41,0.08087,-0.63095,-0.00763,-0.77148,134
37,0.97,-0.116,0.297,-1.404,0.122,-0.122,-22.039,-71.708,179.149,-28.707,-6.213,-13.44,27.64,0.11685,0.57382,-0.15952,0.79468,149.0,0.768,-0.002,0.65,-0.427,-0.122,-0.427,-0.428,-50.026,-108.979,-24.52,-5.267,-1.88,25.64,-0.52515,0.34619,0.2428,0.73846,155.0,0.584,0.045,0.807,-0.366,-0.183,-0.427,3.065,-36.013,158.225,-16.587,-8.26,-27.053,28.81,0.17142,0.30856,-0.03366,0.93497,153.0,0.959,-0.081,0.205,-0.244,0.122,-0.183,-22.906,-76.948,-147.563,-31.827,-5.947,-5.087,29.41,0.08087,-0.63095,-0.00763,-0.77148,135
38,0.97,-0.117,0.298,-1.404,0.122,-0.305,-22.039,-71.708,179.094,-28.707,-6.213,-13.44,27.64,0.11685,0.57382,-0.15952,0.79468,156.0,0.768,-0.002,0.649,-0.427,-0.244,-0.488,-0.423,-50.026,-108.995,-24.52,-5.267,-1.88,25.64,-0.52515,0.34619,0.2428,0.73846,158.0,0.584,0.043,0.807,0.0,-0.366,-0.488,3.071,-36.013,158.203,-16.587,-8.26,-27.053,28.81,0.17142,0.30856,-0.03366,0.93497,162.0,0.96,-0.08,0.205,-0.61,0.061,-0.366,-22.879,-76.948,-147.601,-31.827,-5.947,-5.087,29.41,0.09552,-0.62891,-0.021,-0.77124,142
39,0.97,-0.117,0.297,-1.465,-0.061,-0.244,-22.033,-71.708,179.044,-28.707,-6.213,-13.44,27.64,0.11685,0.57382,-0.15952,0.79468,157.0,0.767,-0.004,0.648,-0.427,-0.305,-0.61,-0.417,-50.032,-109.017,-24.52,-5.267,-1.88,25.64,-0.52515,0.34619,0.2428,0.73846,159.0,0.584,0.042,0.805,0.0,-0.427,-0.61,3.082,-36.019,158.192,-16.587,-8.26,-27.053,28.81,0.17142,0.30856,-0.03366,0.93497,163.0,0.962,-0.081,0.207,-0.854,0.0,-0.305,-22.857,-76.954,-147.667,-31.827,-5.947,-5.087,29.41,0.09552,-0.62891,-0.021,-0.77124,143
40,0.97,-0.116,0.297,-1.648,-0.061,-0.305,-22.039,-71.713,179.017,-28.707,-6.213,-13.44,27.64,0.1185,0.57361,-0.15961,0.79459,160.0,0.767,-0.005,0.648,-0.366,-0.305,-0.549,-0.406,-50.032,-109.056,-24.52,-5.267,-1.88,25.64,-0.52515,0.34619,0.2428,0.73846,164.0,0.584,0.042,0.804,-0.183,-0.366,-0.549,3.087,-36.024,158.187,-16.98,-8.053,-27.14,28.81,0.17142,0.30856,-0.03366,0.93497,170.0,0.962,-0.083,0.205,-1.16,0.061,-0.366,-22.835,-76.954,-147.733,-31.827,-5.947,-5.087,29.41,0.09552,-0.62891,-0.021,-0.77124,150
41,0.969,-0.115,0.296,-1.77,-0.122,-0.427,-22.044,-71.719,178.978,-28.707,-6.213,-13.44,27.64,0.1185,0.57361,-0.15961,0.79459,161.0,0.767,-0.004,0.648,-0.244,-0.366,-0.549,-0.396,-50.037,-109.083,-24.52,-5.267,-1.88,25.64,-0.52515,0.34619,0.2428,0.73846,165.0,0.583,0.042,0.805,-0.061,-0.305,-0.427,3.093,-36.03,158.192,-16.98,-8.053,-27.14,28.81,0.17142,0.30856,-0.03366,0.93497,171.0,0.962,-0.086,0.206,-1.465,0.0,-0.427,-22.819,-76.959,-147.766,-31.827,-5.947,-5.087,29.41,0.09552,-0.62891,-0.021,-0.77124,151
42,0.97,-0.114,0.297,-2.014,0.0,-0.488,-22.05,-71.724,178.929,-28.707,-6.213,-13.44,27.64,0.1185,0.57361,-0.15961,0.79459,166.0,0.767,-0.002,0.648,-0.244,-0.488,-0.488,-0.39,-50.043,-109.094,-24.52,-5.267,-1.88,25.64,-0.52515,0.34619,0.2428,0.73846,172.0,0.584,0.043,0.805,-0.244,-0.366,-0.366,3.093,-36.035,158.187,-16.98,-8.053,-27.14,28.81,0.17142,0.30856,-0.03366,0.93497,178.0,0.962,-0.086,0.205,-1.465,0.0,-0.427,-22.802,-76.965,-147.794,-31.827,-5.947,-5.087,29.41,0.09552,-0.62891,-0.021,-0.77124,168
43,0.97,-0.116,0.297,-2.441,-0.061,-0.549,-22.055,-71.73,178.852,-28.707,-6.213,-13.44,27.64,0.1185,0.57361,-0.15961,0.79459,167.0,0.769,-0.002,0.647,-0.427,-0.488,-0.61,-0.379,-50.054,-109.1,-24.52,-5.267,-1.88,25.64,-0.52515,0.34619,0.2428,0.73846,173.0,0.585,0.044,0.805,-0.427,-0.488,-0.488,3.093,-36.041,158.17,-16.98,-8.053,-27.14,28.81,0.17142,0.30856,-0.03366,0.93497,179.0,0.96,-0.086,0.204,-1.526,0.0,-0.366,-22.797,-76.965,-147.832,-31.827,-5.947,-5.087,29.41,0.09552,-0.62891,-0.021,-0.77124,169
44,0.97,-0.118,0.298,-2.869,-0.061,-0.61,-22.061,-71.735,178.77,-28.707,-6.213,-13.44,27.64,0.1185,0.57361,-0.15961,0.79459,174.0,0.77,-0.002,0.648,-0.488,-0.549,-0.732,-0.374,-50.059,-109.111,-24.52,-5.267,-1.88,25.64,-0.52515,0.34619,0.2428,0.73846,180.0,0.586,0.042,0.805,-0.488,-0.488,-0.671,3.093,-36.046,158.154,-16.98,-8.053,-27.14,28.81,0.17191,0.30859,-0.03339,0.93488,184.0,0.96,-0.087,0.205,-1.648,-0.061,-0.427,-22.791,-76.97,-147.881,-31.827,-5.947,-5.087,29.41,0.09552,-0.62891,-0.021,-0.77124,176
45,0.971,-0.118,0.297,-2.93,-0.061,-0.671,-22.077,-71.741,178.709,-28.707,-6.213,-13.44,27.64,0.1185,0.57361,-0.15961,0.79459,175.0,0.769,-0.002,0.648,-0.671,-0.427,-0.854,-0.363,-50.065,-109.116,-24.52,-5.267,-1.88,25.64,-0.52515,0.34619,0.2428,0.73846,181.0,0.585,0.043,0.805,-0.671,-0.488,-0.732,3.093,-36.057,158.143,-16.98,-8.053,-27.14,28.81,0.17191,0.30859,-0.03339,0.93488,185.0,0.96,-0.086,0.204,-1.526,-0.183,-0.549,-22.786,-76.981,-147.964,-31.827,-5.947,-5.087,29.41,0.09552,-0.62891,-0.021,-0.77124,177
46,0.971,-0.117,0.298,-3.052,0.0,-0.793,-22.088,-71.746,178.649,-28.707,-6.213,-13.44,27.64,0.1185,0.57361,-0.15961,0.79459,182.0,0.769,-0.001,0.648,-0.916,-0.488,-0.977,-0.357,-50.07,-109.133,-24.52,-5.267,-1.88,25.64,-0.52515,0.34619,0.2428,0.73846,186.0,0.587,0.044,0.806,-0.916,-0.488,-0.977,3.087,-36.063,158.132,-16.98,-8.053,-27.14,28.81,0.17191,0.30859,-0.03339,0.93488,190.0,0.961,-0.085,0.203,-1.648,-0.244,-0.671,-22.769,-76.987,-148.041,-31.827,-5.947,-5.087,29.41,0.09552,-0.62891,-0.021,-0.77124,192
47,0.971,-0.118,0.296,-3.418,0.061,-0.793,-22.099,-71.752,178.583,-28.707,-6.213,-13.44,27.64,0.1185,0.57361,-0.15961,0.79459,183.0,0.77,0.0,0.646,-1.221,-0.427,-1.099,-0.352,-50.076,-109.155,-24.52,-5.267,-1.88,25.64,-0.52515,0.34619,0.2428,0.73846,187.0,0.586,0.045,0.804,-0.977,-0.427,-1.16,3.087,-36.068,158.11,-16.98,-8.053,-27.14,28.81,0.17191,0.30859,-0.03339,0.93488,191.0,0.961,-0.084,0.204,-1.709,-0.183,-0.732,-22.753,-76.998,-148.14,-31.827,-5.947,-5.087,29.41,0.09552,-0.62891,-0.021,-0.77124,193
48,0.971,-0.118,0.297,-3.784,0.122,-0.854,-22.11,-71.757,178.517,-28.707,-6.213,-13.44,27.64,0.1185,0.57361,-0.15961,0.79459,188.0,0.771,0.0,0.646,-1.282,-0.427,-1.16,-0.346,-50.081,-109.182,-24.52,-5.267,-1.88,25.64,-0.52515,0.34619,0.2428,0.73846,196.0,0.589,0.043,0.804,-1.038,-0.488,-1.099,3.082,-36.079,158.104,-16.98,-8.053,-27.14,28.81,0.17191,0.30859,-0.03339,0.93488,194.0,0.961,-0.084,0.205,-1.953,-0.183,-0.793,-22.731,-77.009,-148.239,-31.827,-5.947,-5.087,29.41,0.09552,-0.62891,-0.021,-0.77124,200
49,0.972,-0.117,0.297,-4.089,0.0,-0.793,-22.132,-71.763,178.445,-28.707,-6.213,-13.44,27.64,0.1185,0.57361,-0.15961,0.79459,189.0,0.772,-0.001,0.65,-1.16,-0.61,-1.221,-0.341,-50.092,-109.21,-24.52,-5.267,-1.88,25.64,-0.52515,0.34619,0.2428,0.73846,197.0,0.589,0.044,0.807,-1.038,-0.488,-1.221,3.082,-36.085,158.099,-16.98,-8.053,-27.14,28.81,0.17191,0.30859,-0.03339,0.93488,195.0,0.962,-0.085,0.205,-2.38,-0.183,-0.793,-22.72,-77.014,-148.348,-31.827,-5.947,-5.087,29.41,0.09552,-0.62891,-0.021,-0.77124,201
50,0.974,-0.117,0.296,-4.272,0.0,-0.916,-22.159,-71.768,178.369,-28.707,-6.213,-13.44,27.64,0.1185,0.57361,-0.15961,0.79459,198.0,0.77,-0.004,0.647,-1.404,-0.549,-1.221,-0.335,-50.103,-109.237,-24.6,-5.0,-1.027,25.64,-0.52515,0.34619,0.2428,0.73846,206.0,0.586,0.042,0.805,-0.977,-0.61,-1.221,3.082,-36.096,158.055,-16.98,-8.053,-27.14,28.81,0.17191,0.30859,-0.03339,0.93488,204.0,0.963,-0.084,0.205,-2.808,-0.122,-0.793,-22.709,-77.025,-148.42,-31.827,-5.947,-5.087,29.41,0.09552,-0.62891,-0.021,-0.77124,202
51,0.972,-0.118,0.296,-4.333,0.061,-1.099,-22.181,-71.779,178.297,-28.707,-6.213,-13.44,27.64,0.1185,0.57361,-0.15961,0.79459,199.0,0.77,-0.006,0.647,-1.404,-0.366,-1.038,-0.341,-50.109,-109.254,-24.6,-5.0,-1.027,25.64,-0.52515,0.34619,0.2428,0.73846,207.0,0.587,0.039,0.799,-1.77,-0.427,-1.099,3.071,-36.101,158.016,-16.98,-8.053,-27.14,28.81,0.17191,0.30859,-0.03339,0.93488,205.0,0.962,-0.084,0.204,-3.174,-0.183,-0.732,-22.72,-77.031,-148.497,-31.827,-5.947,-5.087,29.41,0.09552,-0.62891,-0.021,-0.77124,203
52,0.97,-0.119,0.294,-4.456,0.244,-1.099,-22.198,-71.785,178.226,-28.707,-6.213,-13.44,27.64,0.1185,0.57361,-0.15961,0.79459,208.0,0.771,0.0,0.645,-1.892,-0.183,-1.282,-0.346,-50.109,-109.27,-24.6,-5.0,-1.027,25.64,-0.52515,0.34619,0.2428,0.73846,210.0,0.59,0.043,0.802,-2.136,0.0,-1.526,3.049,-36.107,157.983,-16.98,-8.053,-27.14,28.81,0.17191,0.30859,-0.03339,0.93488,216.0,0.962,-0.085,0.204,-3.54,-0.183,-0.671,-22.742,-77.042,-148.535,-31.827,-5.947,-5.087,29.41,0.09552,-0.62891,-0.021,-0.77124,214
53,0.971,-0.117,0.297,-4.761,0.122,-1.16,-22.214,-71.79,178.143,-28.707,-6.213,-13.44,27.64,0.1185,0.57361,-0.15961,0.79459,209.0,0.772,0.001,0.645,-1.892,-0.244,-1.465,-0.346,-50.109,-109.303,-24.6,-5.0,-1.027,25.64,-0.52515,0.34619,0.2428,0.73846,211.0,0.591,0.047,0.803,-1.221,-0.244,-1.587,3.038,-36.107,157.978,-16.98,-8.053,-27.14,28.81,0.17191,0.30859,-0.03339,0.93488,217.0,0.964,-0.085,0.202,-3.723,-0.061,-0.61,-22.764,-77.047,-148.563,-31.827,-5.947,-5.087,29.41,0.09552,-0.62891,-0.021,-0.77124,215
54,0.972,-0.116,0.295,-4.883,0.0,-1.099,-22.236,-71.796,178.072,-28.567,-6.287,-12.933,27.64,0.1185,0.57361,-0.15961,0.79459,212.0,0.771,-0.004,0.645,-1.038,-0.427,-1.343,-0.335,-50.12,-109.336,-24.6,-5.0,-1.027,25.64,-0.52298,0.34702,0.24274,0.73962,222.0,0.588,0.041,0.804,-0.366,-0.183,-1.343,3.043,-36.107,157.978,-16.98,-8.053,-27.14,28.81,0.17191,0.30859,-0.03339,0.93488,220.0,0.964,-0.086,0.204,-3.967,-0.183,-0.61,-22.802,-77.058,-148.596,-31.867,-6.06,-5.127,29.41,0.09552,-0.62891,-0.021,-0.77124,218
55,0.973,-0.118,0.295,-5.188,0.305,-1.221,-22.264,-71.801,177.99,-28.567,-6.287,-12.933,27.64,0.1185,0.57361,-0.15961,0.79459,213.0,0.77,-0.008,0.649,-1.099,-0.366,-1.343,-0.324,-50.125,-109.363,-24.6,-5.0,-1.027,25.64,-0.52298,0.34702,0.24274,0.73962,223.0,0.587,0.037,0.805,-1.099,-0.366,-1.282,3.049,-36.112,157.956,-16.98,-8.053,-27.14,28.81,0.17191,0.30859,-0.03339,0.93488,221.0,0.961,-0.087,0.202,-3.967,-0.366,-0.732,-22.83,-77.069,-148.618,-31.867,-6.06,-5.127,29.41,0.09552,-0.62891,-0.021,-0.77124,219
56,0.972,-0.12,0.295,-5.432,0.244,-1.343,-22.28,-71.807,177.913,-28.567,-6.287,-12.933,27.64,0.1185,0.57361,-0.15961,0.79459,224.0,0.769,-0.005,0.646,-1.404,-0.305,-1.465,-0.313,-50.131,-109.402,-24.6,-5.0,-1.027,25.64,-0.52298,0.34702,0.24274,0.73962,230.0,0.586,0.04,0.805,-1.709,-0.427,-1.282,3.043,-36.118,157.934,-16.98,-8.053,-27.14,28.81,0.17191,0.30859,-0.03339,0.93488,228.0,0.962,-0.088,0.201,-4.089,-0.305,-0.854,-22.857,-77.08,-148.634,-31.867,-6.06,-5.127,29.41,0.09552,-0.62891,-0.021,-0.77124,226
57,0.971,-0.119,0.294,-5.554,0.0,-1.404,-22.302,-71.818,177.858,-28.567,-6.287,-12.933,27.64,0.1185,0.57361,-0.15961,0.79459,225.0,0.769,-0.001,0.646,-1.587,-0.427,-1.587,-0.308,-50.136,-109.462,-24.6,-5.0,-1.027,25.64,-0.52298,0.34702,0.24274,0.73962,231.0,0.586,0.043,0.805,-1.77,-0.549,-1.404,3.027,-36.129,157.923,-16.98,-8.053,-27.14,28.81,0.17191,0.30859,-0.03339,0.93488,229.0,0.963,-0.084,0.204,-4.333,-0.244,-0.793,-22.885,-77.091,-148.64,-31.867,-6.06,-5.127,29.41,0.09552,-0.62891,-0.021,-0.77124,227
58,0.97,-0.12,0.292,-5.676,0.0,-1.465,-22.33,-71.829,177.814,-28.567,-6.287,-12.933,27.64,0.12811,0.57239,-0.16724,0.79239,232.0,0.77,0.002,0.645,-1.953,-0.549,-1.648,-0.308,-50.147,-109.512,-24.6,-5.0,-1.027,25.64,-0.52298,0.34702,0.24274,0.73962,238.0,0.589,0.045,0.802,-1.709,-0.427,-1.648,3.01,-36.134,157.912,-16.98,-8.053,-27.14,28.81,0.17191,0.30859,-0.03339,0.93488,236.0,0.965,-0.083,0.202,-4.517,-0.122,-0.793,-22.917,-77.102,-148.661,-31.867,-6.06,-5.127,29.41,0.09552,-0.62891,-0.021,-0.77124,234
59,0.971,-0.12,0.294,-5.798,0.122,-1.404,-22.357,-71.84,177.748,-28.567,-6.287,-12.933,27.64,0.12811,0.57239,-0.16724,0.79239,233.0,0.771,0.0,0.644,-1.831,-0.61,-1.709,-0.302,-50.158,-109.561,-24.6,-5.0,-1.027,25.64,-0.52298,0.34702,0.24274,0.73962,239.0,0.589,0.044,0.8,-1.343,-0.488,-1.648,3.005,-36.145,157.868,-16.98,-8.053,-27.14,28.81,0.17191,0.30859,-0.03339,0.93488,237.0,0.964,-0.086,0.201,-4.7,0.0,-0.916,-22.934,-77.108,-148.694,-31.867,-6.06,-5.127,29.41,0.09552,-0.62891,-0.021,-0.77124,235
60,0.971,-0.12,0.294,-5.859,0.305,-1.221,-22.385,-71.845,177.687,-28.567,-6.287,-12.933,27.64,0.12811,0.57239,-0.16724,0.79239,240.0,0.773,-0.001,0.645,-1.892,-0.549,-1.77,-0.297,-50.164,-109.616,-24.6,-5.0,-1.027,25.64,-0.52298,0.34702,0.24274,0.73962,246.0,0.591,0.042,0.802,-1.648,-0.427,-1.77,3.005,-36.151,157.83,-16.98,-8.053,-27.14,28.81,0.17191,0.30859,-0.03339,0.93488,244.0,0.963,-0.088,0.201,-4.944,0.0,-0.977,-22.956,-77.113,-148.738,-31.867,-6.06,-5.127,29.41,0.09552,-0.62891,-0.021,-0.77124,242
61,0.972,-0.121,0.295,-5.92,0.244,-1.038,-22.429,-71.851,177.605,-28.567,-6.287,-12.933,27.64,0.12811,0.57239,-0.16724,0.79239,241.0,0.774,0.0,0.646,-2.38,-0.61,-1.892,-0.297,-50.175,-109.677,-24.6,-5.0,-1.027,25.64,-0.52298,0.34702,0.24274,0.73962,247.0,0.592,0.042,0.803,-2.319,-0.244,-2.014,2.994,-36.156,157.802,-16.98,-8.053,-27.14,28.81,0.17191,0.30859,-0.03339,0.93488,245.0,0.96,-0.087,0.201,-5.127,0.0,-0.977,-22.978,-77.124,-148.788,-31.867,-6.06,-5.127,29.41,0.09552,-0.62891,-0.021,-0.77124,243
62,0.971,-0.122,0.295,-5.615,0.122,-1.099,-22.478,-71.851,177.55,-28.567,-6.287,-12.933,27.64,0.12811,0.57239,-0.16724,0.79239,254.0,0.773,0.0,0.644,-2.686,-0.305,-1.953,-0.302,-50.18,-109.737,-24.6,-5.0,-1.027,25.64,-0.52298,0.34702,0.24274,0.73962,252.0,0.59,0.044,0.801,-2.441,-0.549,-2.075,2.977,-36.161,157.753,-16.847,-8.52,-26.947,28.81,0.17191,0.30859,-0.03339,0.93488,250.0,0.961,-0.085,0.199,-5.493,0.061,-0.977,-23.011,-77.13,-148.826,-31.867,-6.06,-5.127,29.41,0.08606,-0.63031,-0.01389,-0.77136,248
63,0.971,-0.121,0.296,-5.31,0.061,-1.16,-22.516,-71.862,177.49,-28.567,-6.287,-12.933,27.64,0.12811,0.57239,-0.16724,0.79239,255.0,0.771,0.0,0.644,-2.747,-0.183,-1.953,-0.308,-50.186,-109.792,-24.6,-5.0,-1.027,25.64,-0.52298,0.34702,0.24274,0.73962,253.0,0.59,0.043,0.801,-2.319,-0.488,-2.197,2.961,-36.172,157.72,-16.847,-8.52,-26.947,28.81,0.17191,0.30859,-0.03339,0.93488,251.0,0.962,-0.083,0.199,-5.737,-0.061,-0.977,-23.049,-77.141,-148.854,-31.867,-6.06,-5.127,29.41,0.08606,-0.63031,-0.01389,-0.77136,249
64,0.972,-0.122,0.295,-5.188,0.183,-1.221,-22.544,-71.867,177.407,-28.567,-6.287,-12.933,27.64,0.12811,0.57239,-0.16724,0.79239,260.0,0.772,-0.002,0.645,-2.991,-0.061,-2.075,-0.313,-50.186,-109.852,-24.6,-5.0,-1.027,25.64,-0.52298,0.34702,0.24274,0.73962,258.0,0.591,0.042,0.8,-2.502,-0.366,-2.441,2.95,-36.178,157.67,-16.847,-8.52,-26.947,28.81,0.17191,0.30859,-0.03339,0.93488,266.0,0.964,-0.082,0.201,-5.493,-0.183,-1.099,-23.071,-77.151,-148.892,-31.867,-6.06,-5.127,29.41,0.08606,-0.63031,-0.01389,-0.77136,256
65,0.971,-0.122,0.297,-5.31,0.305,-1.221,-22.571,-71.873,177.319,-28.567,-6.287,-12.933,27.64,0.12811,0.57239,-0.16724,0.79239,261.0,0.772,-0.002,0.644,-2.869,-0.122,-1.953,-0.319,-50.186,-109.896,-24.6,-5.0,-1.027,25.64,-0.52298,0.34702,0.24274,0.73962,259.0,0.59,0.043,0.802,-2.502,-0.183,-2.258,2.933,-36.183,157.61,-16.847,-8.52,-26.947,28.81,0.17191,0.30859,-0.03339,0.93488,267.0,0.966,-0.085,0.201,-5.066,-0.244,-1.16,-23.088,-77.168,-148.942,-31.867,-6.06,-5.127,29.41,0.08606,-0.63031,-0.01389,-0.77136,257
66,0.97,-0.122,0.296,-5.432,0.549,-1.343,-22.593,-71.873,177.209,-28.567,-6.287,-12.933,27.64,0.12811,0.57239,-0.16724,0.79239,262.0,0.771,-0.003,0.646,-2.502,0.0,-1.77,-0.324,-50.186,-109.951,-24.6,-5.0,-1.027,25.64,-0.52298,0.34702,0.24274,0.73962,272.0,0.59,0.042,0.802,-2.197,-0.305,-1.953,2.917,-36.183,157.56,-16.847,-8.52,-26.947,28.81,0.17664,0.30923,-0.03635,0.93369,270.0,0.965,-0.089,0.201,-4.883,-0.244,-1.16,-23.099,-77.179,-149.002,-31.867,-6.06,-5.127,29.41,0.08606,-0.63031,-0.01389,-0.77136,264
67,0.969,-0.124,0.296,-5.493,0.61,-1.404,-22.604,-71.873,177.105,-28.567,-6.287,-12.933,27.64,0.12811,0.57239,-0.16724,0.79239,263.0,0.77,-0.003,0.646,-2.197,0.061,-1.526,-0.33,-50.18,-109.995,-24.6,-5.0,-1.027,25.64,-0.52298,0.34702,0.24274,0.73962,273.0,0.588,0.041,0.801,-1.953,-0.427,-1.709,2.906,-36.194,157.549,-16.847,-8.52,-26.947,28.81,0.17664,0.30923,-0.03635,0.93369,271.0,0.964,-0.088,0.201,-4.883,-0.244,-1.099,-23.115,-77.195,-149.073,-31.867,-6.06,-5.127,29.41,0.08606,-0.63031,-0.01389,-0.77136,265
68,0.969,-0.124,0.295,-5.31,0.61,-1.343,-22.621,-71.867,176.962,-28.567,-6.287,-12.933,27.64,0.12811,0.57239,-0.16724,0.79239,274.0,0.77,-0.003,0.645,-2.014,0.122,-1.465,-0.335,-50.18,-110.039,-24.373,-5.247,-1.193,25.64,-0.52298,0.34702,0.24274,0.73962,282.0,0.587,0.039,0.803,-1.648,-0.671,-1.648,2.895,-36.205,157.549,-16.847,-8.52,-26.947,28.81,0.17664,0.30923,-0.03635,0.93369,280.0,0.963,-0.087,0.2,-4.822,-0.122,-0.977,-23.137,-77.206,-149.161,-31.867,-6.06,-5.127,29.41,0.08606,-0.63031,-0.01389,-0.77136,268
69,0.971,-0.125,0.294,-4.883,0.549,-1.221,-22.632,-71.867,176.83,-28.567,-6.287,-12.933,27.64,0.12811,0.57239,-0.16724,0.79239,275.0,0.77,-0.003,0.647,-1.831,0.0,-1.526,-0.335,-50.18,-110.089,-24.373,-5.247,-1.193,25.64,-0.52298,0.34702,0.24274,0.73962,283.0,0.589,0.039,0.803,-1.77,-0.61,-1.587,2.889,-36.216,157.544,-16.847,-8.52,-26.947,28.81,0.17664,0.30923,-0.03635,0.93369,281.0,0.964,-0.089,0.201,-4.944,-0.122,-0.854,-23.17,-77.212,-149.238,-31.867,-6.06,-5.127,29.41,0.08606,-0.63031,-0.01389,-0.77136,269
70,0.971,-0.125,0.293,-4.639,0.488,-1.099,-22.648,-71.862,176.715,-28.567,-6.287,-12.933,27.64,0.12811,0.57239,-0.16724,0.79239,284.0,0.771,-0.004,0.646,-1.587,0.0,-1.404,-0.33,-50.175,-110.143,-24.373,-5.247,-1.193,25.64,-0.52298,0.34702,0.24274,0.73962,292.0,0.59,0.04,0.802,-1.526,-0.61,-1.282,2.878,-36.227,157.538,-16.847,-8.52,-26.947,28.81,0.17664,0.30923,-0.03635,0.93369,288.0,0.963,-0.089,0.202,-5.005,-0.061,-0.854,-23.203,-77.223,-149.31,-31.867,-6.06,-5.127,29.41,0.08606,-0.63031,-0.01389,-0.77136,276
71,0.971,-0.127,0.293,-4.333,0.549,-1.099,-22.665,-71.862,176.622,-28.567,-6.287,-12.933,27.64,0.12811,0.57239,-0.16724,0.79239,285.0,0.771,-0.005,0.645,-1.16,0.0,-1.099,-0.33,-50.175,-110.182,-24.373,-5.247,-1.193,25.64,-0.52298,0.34702,0.24274,0.73962,293.0,0.589,0.041,0.802,-1.038,-0.61,-1.038,2.873,-36.238,157.533,-16.847,-8.52,-26.947,28.81,0.17664,0.30923,-0.03635,0.93369,289.0,0.963,-0.089,0.201,-4.761,0.0,-0.793,-23.242,-77.228,-149.381,-31.867,-6.06,-5.127,29.41,0.08606,-0.63031,-0.01389,-0.77136,277
72,0.97,-0.127,0.293,-3.906,0.488,-0.977,-22.676,-71.856,176.528,-28.8,-6.367,-14.22,27.64,0.12811,0.57239,-0.16724,0.79239,290.0,0.77,-0.002,0.646,-1.16,0.0,-0.916,-0.33,-50.175,-110.209,-24.373,-5.247,-1.193,25.64,-0.51724,0.34921,0.24048,0.74335,298.0,0.589,0.04,0.803,-0.977,-0.61,-0.916,2.867,-36.249,157.549,-16.847,-8.52,-26.947,28.81,0.17664,0.30923,-0.03635,0.93369,296.0,0.962,-0.09,0.199,-4.578,-0.061,-0.732,-23.275,-77.234,-149.442,-31.867,-6.06,-5.127,29.41,0.08606,-0.63031,-0.01389,-0.77136,278
73,0.971,-0.127,0.292,-3.357,0.244,-0.793,-22.692,-71.856,176.429,-28.8,-6.367,-14.22,27.64,0.12811,0.57239,-0.16724,0.79239,291.0,0.771,-0.001,0.646,-1.038,0.0,-0.916,-0.324,-50.175,-110.242,-24.373,-5.247,-1.193,25.64,-0.51724,0.34921,0.24048,0.74335,299.0,0.591,0.041,0.803,-0.671,-0.793,-0.916,2.867,-36.266,157.582,-16.847,-8.52,-26.947,28.81,0.17664,0.30923,-0.03635,0.93369,297.0,0.962,-0.091,0.197,-4.333,-0.061,-0.671,-23.318,-77.239,-149.507,-31.867,-6.06,-5.127,29.41,0.08606,-0.63031,-0.01389,-0.77136,279
74,0.971,-0.126,0.292,-2.991,0.183,-0.732,-22.714,-71.856,176.353,-28.8,-6.367,-14.22,27.64,0.12811,0.57239,-0.16724,0.79239,300.0,0.771,-0.003,0.646,-0.854,-0.183,-0.854,-0.324,-50.175,-110.264,-24.373,-5.247,-1.193,25.64,-0.51724,0.34921,0.24048,0.74335,306.0,0.59,0.04,0.801,-0.488,-0.854,-0.732,2.867,-36.277,157.632,-16.847,-8.52,-26.947,28.81,0.17664,0.30923,-0.03635,0.93369,304.0,0.963,-0.093,0.197,-4.089,-0.122,-0.671,-23.357,-77.245,-149.562,-31.867,-6.06,-5.127,29.41,0.08606,-0.63031,-0.01389,-0.77136,286
75,0.972,-0.127,0.292,-2.93,0.122,-0.671,-22.736,-71.862,176.325,-28.8,-6.367,-14.22,27.64,0.12811,0.57239,-0.16724,0.79239,301.0,0.771,-0.004,0.646,-0.793,-0.244,-0.671,-0.319,-50.18,-110.27,-24.373,-5.247,-1.193,25.64,-0.51724,0.34921,0.24048,0.74335,307.0,0.59,0.04,0.801,-0.488,-0.793,-0.488,2.867,-36.293,157.648,-16.847,-8.52,-26.947,28.81,0.17664,0.30923,-0.03635,0.93369,305.0,0.963,-0.091,0.196,-3.723,-0.183,-0.549,-23.401,-77.256,-149.612,-31.867,-6.06,-5.127,29.41,0.08606,-0.63031,-0.01389,-0.77136,287
76,0.971,-0.128,0.294,-2.808,0.061,-0.61,-22.758,-71.862,176.303,-28.8,-6.367,-14.22,27.64,0.14093,0.56989,-0.17786,0.7897,308.0,0.771,-0.003,0.646,-0.671,-0.244,-0.427,-0.324,-50.18,-110.275,-24.373,-5.247,-1.193,25.64,-0.51724,0.34921,0.24048,0.74335,314.0,0.591,0.04,0.8,-0.427,-0.671,-0.366,2.867,-36.31,157.637,-16.847,-8.52,-26.947,28.81,0.17664,0.30923,-0.03635,0.93369,312.0,0.962,-0.09,0.196,-3.235,-0.244,-0.549,-23.445,-77.261,-149.639,-31.867,-6.06,-5.127,29.41,0.08606,-0.63031,-0.01389,-0.77136,294
77,0.969,-0.128,0.292,-2.319,-0.061,-0.549,-22.786,-71.867,176.303,-28.8,-6.367,-14.22,27.64,0.14093,0.56989,-0.17786,0.7897,309.0,0.771,-0.002,0.644,-0.671,-0.183,-0.244,-0.33,-50.186,-110.27,-24.373,-5.247,-1.193,25.64,-0.51724,0.34921,0.24048,0.74335,315.0,0.592,0.041,0.799,-0.305,-0.793,-0.183,2.862,-36.321,157.637,-16.847,-8.52,-26.947,28.81,0.17664,0.30923,-0.03635,0.93369,313.0,0.963,-0.089,0.195,-3.052,-0.305,-0.427,-23.483,-77.272,-149.661,-31.867,-6.06,-5.127,29.41,0.08606,-0.63031,-0.01389,-0.77136,295
78,0.97,-0.127,0.294,-1.77,0.0,-0.488,-22.802,-71.873,176.309,-28.8,-6.367,-14.22,27.64,0.14093,0.56989,-0.17786,0.7897,316.0,0.771,-0.002,0.643,-0.427,-0.183,-0.122,-0.335,-50.186,-110.27,-24.373,-5.247,-1.193,25.64,-0.51724,0.34921,0.24048,0.74335,320.0,0.593,0.041,0.799,0.061,-0.854,-0.061,2.862,-36.343,157.648,-16.847,-8.52,-26.947,28.81,0.17664,0.30923,-0.03635,0.93369,318.0,0.963,-0.092,0.197,-2.93,-0.427,-0.305,-23.538,-77.278,-149.661,-31.867,-6.06,-5.127,29.41,0.08606,-0.63031,-0.01389,-0.77136,302
79,0.972,-0.126,0.294,-1.526,-0.122,-0.427,-22.819,-71.873,176.309,-28.8,-6.367,-14.22,27.64,0.14093,0.56989,-0.17786,0.7897,317.0,0.771,-0.004,0.645,-0.244,-0.122,-0.061,-0.341,-50.186,-110.27,-24.373,-5.247,-1.193,25.64,-0.51724,0.34921,0.24048,0.74335,321.0,0.593,0.039,0.8,0.122,-0.793,-0.061,2.867,-36.359,157.659,-16.847,-8.52,-26.947,28.81,0.17664,0.30923,-0.03635,0.93369,319.0,0.962,-0.093,0.195,-2.808,-0.488,-0.244,-23.599,-77.289,-149.639,-31.867,-6.06,-5.127,29.41,0.08606,-0.63031,-0.01389,-0.77136,303
80,0.971,-0.126,0.293,-1.343,-0.183,-0.244,-22.835,-71.878,176.32,-28.8,-6.367,-14.22,27.64,0.14093,0.56989,-0.17786,0.7897,322.0,0.771,-0.005,0.646,0.0,-0.122,0.061,-0.341,-50.186,-110.264,-24.373,-5.247,-1.193,25.64,-0.51724,0.34921,0.24048,0.74335,326.0,0.593,0.038,0.8,-0.061,-0.549,0.0,2.867,-36.37,157.654,-16.893,-8.287,-27.027,28.81,0.17664,0.30923,-0.03635,0.93369,324.0,0.961,-0.092,0.195,-2.441,-0.549,-0.244,-23.665,-77.3,-149.628,-31.867,-6.06,-5.127,29.41,0.08606,-0.63031,-0.01389,-0.77136,310
81,0.971,-0.127,0.295,-1.16,0.0,-0.183,-22.857,-71.878,176.309,-28.8,-6.367,-14.22,27.64,0.14093,0.56989,-0.17786,0.7897,323.0,0.77,-0.003,0.644,0.244,-0.061,0.244,-0.341,-50.191,-110.264,-24.373,-5.247,-1.193,25.64,-0.51724,0.34921,0.24048,0.74335,327.0,0.593,0.04,0.799,0.122,-0.305,0.244,2.867,-36.376,157.687,-16.893,-8.287,-27.027,28.81,0.17664,0.30923,-0.03635,0.93369,325.0,0.963,-0.09,0.197,-2.197,-0.61,-0.183,-23.725,-77.311,-149.606,-31.867,-6.06,-5.127,29.41,0.08606,-0.63031,-0.01389,-0.77136,311
82,0.97,-0.128,0.295,-0.793,-0.122,-0.061,-22.879,-71.878,176.303,-28.8,-6.367,-14.22,27.64,0.14093,0.56989,-0.17786,0.7897,328.0,0.769,-0.003,0.645,0.549,0.0,0.488,-0.341,-50.186,-110.259,-24.373,-5.247,-1.193,25.64,-0.51724,0.34921,0.24048,0.74335,338.0,0.591,0.042,0.797,0.61,-0.244,0.488,2.873,-36.387,157.709,-16.893,-8.287,-27.027,28.81,0.17664,0.30923,-0.03635,0.93369,336.0,0.964,-0.09,0.197,-1.709,-0.61,-0.183,-23.785,-77.327,-149.562,-31.88,-6.473,-4.887,29.41,0.08606,-0.63031,-0.01389,-0.77136,330
83,0.97,-0.126,0.295,-0.366,0.0,0.0,-22.896,-71.878,176.325,-28.8,-6.367,-14.22,27.64,0.14093,0.56989,-0.17786,0.7897,329.0,0.771,-0.003,0.646,0.61,0.0,0.549,-0.341,-50.186,-110.248,-24.373,-5.247,-1.193,25.64,-0.51724,0.34921,0.24048,0.74335,339.0,0.591,0.041,0.799,0.793,-0.427,0.793,2.878,-36.392,157.725,-16.893,-8.287,-27.027,28.81,0.17664,0.30923,-0.03635,0.93369,337.0,0.964,-0.091,0.195,-1.343,-0.549,-0.122,-23.835,-77.338,-149.546,-31.88,-6.473,-4.887,29.41,0.08606,-0.63031,-0.01389,-0.77136,331
84,0.97,-0.126,0.294,0.0,0.061,0.0,-22.901,-71.878,176.347,-28.8,-6.367,-14.22,27.64,0.14093,0.56989,-0.17786,0.7897,332.0,0.772,-0.002,0.647,0.732,-0.183,0.427,-0.341,-50.186,-110.231,-24.373,-5.247,-1.193,25.64,-0.51724,0.34921,0.24048,0.74335,350.0,0.594,0.039,0.801,0.549,-0.244,0.732,2.878,-36.403,157.764,-16.893,-8.287,-27.027,28.81,0.17569,0.31091,-0.03687,0.93329,342.0,0.963,-0.093,0.196,-0.977,-0.549,-0.061,-23.884,-77.349,-149.535,-31.88,-6.473,-4.887,29.41,0.07584,-0.63232,-0.00467,-0.7709,334
85,0.972,-0.126,0.293,0.122,0.0,0.0,-22.901,-71.873,176.375,-28.8,-6.367,-14.22,27.64,0.14093,0.56989,-0.17786,0.7897,333.0,0.771,-0.006,0.642,0.732,-0.122,0.427,-0.335,-50.186,-110.22,-24.373,-5.247,-1.193,25.64,-0.51724,0.34921,0.24048,0.74335,351.0,0.595,0.039,0.802,0.793,-0.427,0.671,2.884,-36.409,157.824,-16.893,-8.287,-27.027,28.81,0.17569,0.31091,-0.03687,0.93329,343.0,0.963,-0.093,0.196,-0.732,-0.488,0.0,-23.928,-77.355,-149.507,-31.88,-6.473,-4.887,29.41,0.07584,-0.63232,-0.00467,-0.7709,335
86,0.972,-0.126,0.292,0.305,-0.244,0.061,-22.912,-71.878,176.429,-28.8,-6.367,-14.22,27.64,0.14093,0.56989,-0.17786,0.7897,344.0,0.771,-0.006,0.644,1.16,0.061,0.793,-0.33,-50.186,-110.198,-24.373,-5.247,-1.193,25.64,-0.51724,0.34921,0.24048,0.74335,352.0,0.593,0.038,0.796,1.16,-0.61,0.916,2.889,-36.425,157.885,-16.893,-8.287,-27.027,28.81,0.17569,0.31091,-0.03687,0.93329,348.0,0.962,-0.091,0.196,-0.427,-0.488,0.061,-23.978,-77.366,-149.48,-31.88,-6.473,-4.887,29.41,0.07584,-0.63232,-0.00467,-0.7709,340
87,0.97,-0.127,0.293,0.61,-0.183,0.122,-22.917,-71.878,176.49,-28.8,-6.367,-14.22,27.64,0.14093,0.56989,-0.17786,0.7897,345.0,0.773,0.0,0.644,0.61,0.122,0.732,-0.33,-50.186,-110.154,-24.373,-5.247,-1.193,25.64,-0.51724,0.34921,0.24048,0.74335,353.0,0.594,0.038,0.794,0.854,-0.061,1.16,2.895,-36.431,157.95,-16.893,-8.287,-27.027,28.81,0.17569,0.31091,-0.03687,0.93329,349.0,0.963,-0.091,0.196,-0.061,-0.427,0.0,-24.016,-77.371,-149.464,-31.88,-6.473,-4.887,29.41,0.07584,-0.63232,-0.00467,-0.7709,341
88,0.969,-0.127,0.292,1.099,-0.122,0.244,-22.917,-71.878,176.556,-28.8,-6.367,-14.22,27.64,0.14093,0.56989,-0.17786,0.7897,354.0,0.773,0.001,0.646,0.732,0.0,0.854,-0.335,-50.18,-110.116,-24.607,-5.307,-1.42,25.64,-0.51724,0.34921,0.24048,0.74335,360.0,0.596,0.044,0.799,0.427,0.366,0.854,2.889,-36.425,158.011,-16.893,-8.287,-27.027,28.81,0.17569,0.31091,-0.03687,0.93329,358.0,0.965,-0.09,0.194,0.0,-0.427,0.061,-24.044,-77.377,-149.453,-31.88,-6.473,-4.887,29.41,0.07584,-0.63232,-0.00467,-0.7709,346
89,0.972,-0.125,0.293,1.404,-0.183,0.244,-22.912,-71.878,176.622,-28.8,-6.367,-14.22,27.64,0.14093,0.56989,-0.17786,0.7897,355.0,0.77,-0.006,0.649,1.343,-0.305,1.221,-0.341,-50.18,-110.072,-24.607,-5.307,-1.42,25.64,-0.51724,0.34921,0.24048,0.74335,361.0,0.594,0.044,0.804,1.526,0.122,1.099,2.9,-36.425,158.044,-16.893,-8.287,-27.027,28.81,0.17569,0.31091,-0.03687,0.93329,359.0,0.965,-0.09,0.193,0.305,-0.366,0.244,-24.082,-77.382,-149.425,-31.88,-6.473,-4.887,29.41,0.07584,-0.63232,-0.00467,-0.7709,347
90,0.974,-0.124,0.294,1.587,-0.244,0.305,-22.912,-71.878,176.666,-28.8,-6.367,-14.22,27.64,0.14093,0.56989,-0.17786,0.7897,362.0,0.77,-0.009,0.648,1.282,-0.366,1.16,-0.341,-50.186,-110.039,-24.607,-5.307,-1.42,25.64,-0.51813,0.34903,0.24091,0.74268,370.0,0.591,0.035,0.805,1.831,0.0,1.465,2.911,-36.425,158.093,-16.893,-8.287,-27.027,28.81,0.17569,0.31091,-0.03687,0.93329,368.0,0.962,-0.093,0.195,0.793,-0.549,0.183,-24.115,-77.393,-149.392,-31.88,-6.473,-4.887,29.41,0.07584,-0.63232,-0.00467,-0.7709,356
91,0.973,-0.126,0.293,1.404,0.061,0.244,-22.901,-71.873,176.688,-28.8,-6.367,-14.22,27.64,0.14093,0.56989,-0.17786,0.7897,363.0,0.771,-0.006,0.645,1.099,-0.244,1.038,-0.346,-50.191,-110.012,-24.607,-5.307,-1.42,25.64,-0.51813,0.34903,0.24091,0.74268,371.0,0.592,0.034,0.802,0.977,-0.366,1.526,2.911,-36.436,158.126,-16.893,-8.287,-27.027,28.81,0.17569,0.31091,-0.03687,0.93329,369.0,0.962,-0.096,0.193,1.099,-0.427,0.122,-24.137,-77.399,-149.37,-31.88,-6.473,-4.887,29.41,0.07584,-0.63232,-0.00467,-0.7709,357
92,0.971,-0.125,0.294,1.343,0.0,0.244,-22.89,-71.873,176.71,-28.58,-6.467,-13.72,27.64,0.14093,0.56989,-0.17786,0.7897,372.0,0.771,-0.003,0.644,0.916,-0.244,1.099,-0.346,-50.197,-109.979,-24.607,-5.307,-1.42,25.64,-0.51813,0.34903,0.24091,0.74268,378.0,0.593,0.038,0.799,0.671,-0.244,1.526,2.906,-36.442,158.165,-16.893,-8.287,-27.027,28.81,0.17569,0.31091,-0.03687,0.93329,376.0,0.964,-0.091,0.194,1.282,-0.427,0.305,-24.164,-77.404,-149.348,-31.88,-6.473,-4.887,29.41,0.07584,-0.63232,-0.00467,-0.7709,364
93,0.969,-0.123,0.293,1.404,-0.305,0.244,-22.885,-71.873,176.754,-28.58,-6.467,-13.72,27.64,0.14093,0.56989,-0.17786,0.7897,373.0,0.771,0.0,0.643,0.793,-0.305,1.099,-0.357,-50.197,-109.946,-24.607,-5.307,-1.42,25.64,-0.51813,0.34903,0.24091,0.74268,379.0,0.594,0.041,0.798,0.488,-0.122,1.404,2.895,-36.447,158.17,-16.893,-8.287,-27.027,28.81,0.17569,0.31091,-0.03687,0.93329,377.0,0.966,-0.09,0.193,1.526,-0.488,0.427,-24.192,-77.41,-149.315,-31.88,-6.473,-4.887,29.41,0.07584,-0.63232,-0.00467,-0.7709,365
94,0.969,-0.123,0.293,1.587,-0.183,0.244,-22.874,-71.873,176.786,-28.58,-6.467,-13.72,27.64,0.14093,0.56989,-0.17786,0.7897,380.0,0.771,-0.001,0.643,0.671,-0.122,1.16,-0.368,-50.202,-109.891,-24.607,-5.307,-1.42,25.64,-0.51813,0.34903,0.24091,0.74268,386.0,0.594,0.042,0.797,0.549,0.0,1.221,2.884,-36.453,158.148,-16.893,-8.287,-27.027,28.81,0.17569,0.31091,-0.03687,0.93329,384.0,0.966,-0.093,0.194,1.465,-0.488,0.427,-24.23,-77.415,-149.255,-31.88,-6.473,-4.887,29.41,0.07584,-0.63232,-0.00467,-0.7709,366
95,0.97,-0.124,0.293,1.526,-0.122,0.305,-22.868,-71.873,176.819,-28.58,-6.467,-13.72,27.64,0.14093,0.56989,-0.17786,0.7897,381.0,0.772,-0.004,0.645,0.732,-0.122,1.16,-0.385,-50.202,-109.836,-24.607,-5.307,-1.42,25.64,-0.51813,0.34903,0.24091,0.74268,387.0,0.592,0.041,0.797,0.854,-0.061,1.099,2.884,-36.453,158.121,-16.893,-8.287,-27.027,28.81,0.17569,0.31091,-0.03687,0.93329,385.0,0.964,-0.093,0.194,1.343,-0.488,0.427,-24.269,-77.421,-149.194,-31.88,-6.473,-4.887,29.41,0.07584,-0.63232,-0.00467,-0.7709,367
96,0.971,-0.126,0.293,1.648,-0.244,0.366,-22.863,-71.873,176.858,-28.58,-6.467,-13.72,27.64,0.13815,0.57059,-0.17627,0.79004,388.0,0.771,-0.004,0.644,0.671,-0.244,1.099,-0.396,-50.202,-109.786,-24.607,-5.307,-1.42,25.64,-0.51813,0.34903,0.24091,0.74268,394.0,0.593,0.038,0.8,0.549,-0.122,1.099,2.878,-36.458,158.104,-16.893,-8.287,-27.027,28.81,0.17569,0.31091,-0.03687,0.93329,392.0,0.963,-0.09,0.195,1.343,-0.488,0.427,-24.307,-77.426,-149.101,-31.88,-6.473,-4.887,29.41,0.07584,-0.63232,-0.00467,-0.7709,374
97,0.972,-0.126,0.294,2.136,-0.305,0.488,-22.857,-71.873,176.907,-28.58,-6.467,-13.72,27.64,0.13815,0.57059,-0.17627,0.79004,389.0,0.771,-0.002,0.643,0.549,-0.183,1.16,-0.406,-50.208,-109.737,-24.607,-5.307,-1.42,25.64,-0.51813,0.34903,0.24091,0.74268,395.0,0.593,0.041,0.798,0.427,-0.244,1.099,2.873,-36.464,158.121,-16.893,-8.287,-27.027,28.81,0.17569,0.31091,-0.03687,0.93329,393.0,0.963,-0.09,0.194,1.343,-0.488,0.305,-24.335,-77.432,-149.03,-31.88,-6.473,-4.887,29.41,0.07584,-0.63232,-0.00467,-0.7709,375
98,0.971,-0.125,0.294,2.625,-0.366,0.671,-22.852,-71.873,176.962,-28.58,-6.467,-13.72,27.64,0.13815,0.57059,-0.17627,0.79004,396.0,0.772,0.0,0.645,0.793,0.0,1.282,-0.423,-50.208,-109.693,-24.607,-5.307,-1.42,25.64,-0.51813,0.34903,0.24091,0.74268,400.0,0.594,0.042,0.797,0.305,-0.427,1.221,2.862,-36.475,158.132,-16.82,-8.227,-27.26,28.81,0.17569,0.31091,-0.03687,0.93329,398.0,0.964,-0.089,0.192,1.404,-0.61,0.366,-24.368,-77.437,-148.953,-31.88,-6.473,-4.887,29.41,0.07584,-0.63232,-0.00467,-0.7709,382
99,0.97,-0.125,0.292,2.93,-0.427,0.793,-22.852,-71.878,177.028,-28.58,-6.467,-13.72,27.64,0.13815,0.57059,-0.17627,0.79004,397.0,0.775,-0.002,0.644,0.732,0.0,1.282,-0.434,-50.208,-109.644,-24.607,-5.307,-1.42,25.64,-0.51813,0.34903,0.24091,0.74268,401.0,0.598,0.041,0.796,0.366,-0.183,1.099,2.851,-36.48,158.159,-16.82,-8.227,-27.26,28.81,0.17569,0.31091,-0.03687,0.93329,399.0,0.963,-0.09,0.193,1.465,-0.671,0.427,-24.406,-77.448,-148.854,-31.88,-6.473,-4.887,29.41,0.07584,-0.63232,-0.00467,-0.7709,383
100,0.971,-0.125,0.292,3.418,-0.488,0.854,-22.846,-71.878,177.111,-28.58,-6.467,-13.72,27.64,0.13815,0.57059,-0.17627,0.79004,402.0,0.772,-0.003,0.643,1.282,-0.122,1.526,-0.45,-50.208,-109.594,-24.607,-5.307,-1.42,25.64,-0.51813,0.34903,0.24091,0.74268,410.0,0.598,0.043,0.797,0.61,-0.061,1.221,2.845,-36.486,158.17,-16.82,-8.227,-27.26,28.81,0.17569,0.31091,-0.03687,0.93329,408.0,0.964,-0.091,0.192,1.892,-0.549,0.427,-24.439,-77.454,-148.738,-31.88,-6.473,-4.887,29.41,0.07584,-0.63232,-0.00467,-0.7709,390
101,0.973,-0.122,0.292,3.906,-0.671,1.038,-22.846,-71.878,177.204,-28.58,-6.467,-13.72,27.64,0.13815,0.57059,-0.17627,0.79004,403.0,0.768,-0.003,0.646,1.282,-0.061,1.648,-0.456,-50.208,-109.528,-24.607,-5.307,-1.42,25.64,-0.51813,0.34903,0.24091,0.74268,411.0,0.591,0.042,0.798,1.038,0.0,1.587,2.845,-36.491,158.231,-16.82,-8.227,-27.26,28.81,0.17569,0.31091,-0.03687,0.93329,409.0,0.964,-0.091,0.193,2.197,-0.549,0.488,-24.461,-77.459,-148.651,-31.88,-6.473,-4.887,29.41,0.07584,-0.63232,-0.00467,-0.7709,391
102,0.972,-0.123,0.292,3.967,-0.549,1.099,-22.846,-71.884,177.275,-28.58,-6.467,-13.72,27.64,0.13815,0.57059,-0.17627,0.79004,404.0,0.767,-0.003,0.645,1.16,0.0,1.648,-0.472,-50.208,-109.473,-24.607,-5.307,-1.42,25.64,-0.51813,0.34903,0.24091,0.74268,416.0,0.589,0.041,0.799,1.099,0.0,1.587,2.845,-36.497,158.264,-16.82,-8.227,-27.26,28.81,0.17175,0.3118,-0.03598,0.93375,414.0,0.964,-0.091,0.192,2.38,-0.61,0.549,-24.489,-77.47,-148.557,-31.88,-6.473,-4.887,29.41,0.07584,-0.63232,-0.00467,-0.7709,406
103,0.97,-0.123,0.292,3.906,-0.427,1.16,-22.846,-71.884,177.336,-28.58,-6.467,-13.72,27.64,0.13815,0.57059,-0.17627,0.79004,405.0,0.768,-0.004,0.644,1.221,-0.061,1.648,-0.483,-50.208,-109.435,-24.607,-5.307,-1.42,25.64,-0.51813,0.34903,0.24091,0.74268,417.0,0.591,0.041,0.798,0.916,-0.061,1.587,2.84,-36.497,158.269,-16.82,-8.227,-27.26,28.81,0.17175,0.3118,-0.03598,0.93375,415.0,0.963,-0.091,0.19,2.991,-0.549,0.671,-24.516,-77.476,-148.464,-31.88,-6.473,-4.887,29.41,0.07584,-0.63232,-0.00467,-0.7709,407
104,0.969,-0.121,0.293,3.967,-0.549,1.221,-22.846,-71.884,177.407,-28.58,-6.467,-13.72,27.64,0.13815,0.57059,-0.17627,0.79004,418.0,0.77,-0.003,0.645,1.221,-0.305,1.587,-0.494,-50.208,-109.396,-24.533,-5.507,-1.36,25.64,-0.51813,0.34903,0.24091,0.74268,424.0,0.59,0.039,0.798,0.793,-0.244,1.526,2.834,-36.502,158.28,-16.82,-8.227,-27.26,28.81,0.17175,0.3118,-0.03598,0.93375,422.0,0.966,-0.091,0.19,3.479,-0.671,0.732,-24.538,-77.481,-148.354,-31.9,-6.22,-5.08,29.41,0.07584,-0.63232,-0.00467,-0.7709,412
105,0.969,-0.121,0.292,4.028,-0.549,1.16,-22.846,-71.884,177.468,-28.58,-6.467,-13.72,27.64,0.13815,0.57059,-0.17627,0.79004,419.0,0.772,-0.002,0.644,1.221,-0.305,1.465,-0.505,-50.213,-109.352,-24.533,-5.507,-1.36,25.64,-0.51813,0.34903,0.24091,0.74268,425.0,0.594,0.04,0.797,0.854,-0.183,1.526,2.829,-36.508,158.291,-16.82,-8.227,-27.26,28.81,0.17175,0.3118,-0.03598,0.93375,423.0,0.965,-0.091,0.19,3.54,-0.671,0.671,-24.56,-77.487,-148.222,-31.9,-6.22,-5.08,29.41,0.07584,-0.63232,-0.00467,-0.7709,413
106,0.97,-0.119,0.292,3.967,-0.61,1.099,-22.841,-71.884,177.539,-28.58,-6.467,-13.72,27.64,0.13815,0.57059,-0.17627,0.79004,426.0,0.771,-0.003,0.644,1.099,-0.244,1.465,-0.516,-50.219,-109.303,-24.533,-5.507,-1.36,25.64,-0.51813,0.34903,0.24091,0.74268,434.0,0.594,0.04,0.797,0.854,-0.061,1.404,2.829,-36.513,158.329,-16.82,-8.227,-27.26,28.81,0.17175,0.3118,-0.03598,0.93375,432.0,0.962,-0.09,0.189,3.601,-0.549,0.793,-24.582,-77.492,-148.079,-31.9,-6.22,-5.08,29.41,0.07584,-0.63232,-0.00467,-0.7709,420
107,0.972,-0.119,0.292,3.845,-0.549,1.099,-22.835,-71.889,177.61,-28.58,-6.467,-13.72,27.64,0.13815,0.57059,-0.17627,0.79004,427.0,0.77,-0.001,0.644,0.977,-0.183,1.526,-0.527,-50.219,-109.259,-24.533,-5.507,-1.36,25.64,-0.51813,0.34903,0.24091,0.74268,435.0,0.593,0.042,0.797,0.916,0.183,1.404,2.823,-36.513,158.384,-16.82,-8.227,-27.26,28.81,0.17175,0.3118,-0.03598,0.93375,433.0,0.96,-0.089,0.191,3.662,-0.549,0.793,-24.604,-77.498,-147.942,-31.9,-6.22,-5.08,29.41,0.07584,-0.63232,-0.00467,-0.7709,421
108,0.97,-0.119,0.293,3.845,-0.488,1.099,-22.83,-71.889,177.665,-28.58,-6.467,-13.72,27.64,0.13815,0.57059,-0.17627,0.79004,436.0,0.77,-0.001,0.645,0.977,-0.183,1.648,-0.538,-50.219,-109.199,-24.533,-5.507,-1.36,25.64,-0.52243,0.34845,0.24219,0.7395,442.0,0.591,0.043,0.797,0.916,0.183,1.465,2.823,-36.513,158.445,-16.82,-8.227,-27.26,28.81,0.17175,0.3118,-0.03598,0.93375,440.0,0.961,-0.088,0.19,3.54,-0.427,0.854,-24.626,-77.498,-147.821,-31.9,-6.22,-5.08,29.41,0.07584,-0.63232,-0.00467,-0.7709,428
109,0.97,-0.119,0.294,3.784,-0.488,1.038,-22.824,-71.889,177.709,-28.58,-6.467,-13.72,27.64,0.13815,0.57059,-0.17627,0.79004,437.0,0.77,-0.005,0.646,1.282,-0.183,1.648,-0.555,-50.224,-109.144,-24.533,-5.507,-1.36,25.64,-0.52243,0.34845,0.24219,0.7395,443.0,0.592,0.041,0.799,1.282,0.061,1.465,2.829,-36.513,158.549,-16.82,-8.227,-27.26,28.81,0.17175,0.3118,-0.03598,0.93375,441.0,0.963,-0.088,0.192,3.54,-0.488,0.793,-24.648,-77.503,-147.711,-31.9,-6.22,-5.08,29.41,0.07584,-0.63232,-0.00467,-0.7709,429
110,0.97,-0.119,0.294,3.662,-0.427,0.977,-22.808,-71.889,177.781,-28.7,-6.153,-13.073,27.64,0.13815,0.57059,-0.17627,0.79004,446.0,0.77,-0.008,0.646,1.526,-0.183,1.526,-0.56,-50.224,-109.089,-24.533,-5.507,-1.36,25.64,-0.52243,0.34845,0.24219,0.7395,450.0,0.592,0.037,0.799,1.709,0.061,1.526,2.84,-36.513,158.637,-16.82,-8.227,-27.26,28.81,0.17175,0.3118,-0.03598,0.93375,448.0,0.964,-0.086,0.192,3.357,-0.488,0.793,-24.664,-77.503,-147.629,-31.9,-6.22,-5.08,29.41,0.08371,-0.63367,-0.01028,-0.76892,430
111,0.971,-0.119,0.294,3.479,-0.366,0.916,-22.797,-71.889,177.847,-28.7,-6.153,-13.073,27.64,0.13815,0.57059,-0.17627,0.79004,447.0,0.771,-0.006,0.648,1.099,-0.305,1.404,-0.566,-50.224,-109.034,-24.533,-5.507,-1.36,25.64,-0.52243,0.34845,0.24219,0.7395,451.0,0.592,0.036,0.803,1.404,0.061,1.587,2.845,-36.513,158.698,-16.82,-8.227,-27.26,28.81,0.17175,0.3118,-0.03598,0.93375,449.0,0.964,-0.086,0.191,3.418,-0.488,0.793,-24.686,-77.509,-147.513,-31.9,-6.22,-5.08,29.41,0.08371,-0.63367,-0.01028,-0.76892,431
112,0.972,-0.118,0.293,3.174,-0.427,1.038,-22.791,-71.889,177.902,-28.7,-6.153,-13.073,27.64,0.13815,0.57059,-0.17627,0.79004,452.0,0.769,-0.004,0.646,0.549,-0.305,1.282,-0.582,-50.229,-108.99,-24.533,-5.507,-1.36,25.64,-0.52243,0.34845,0.24219,0.7395,456.0,0.592,0.039,0.802,0.732,0.061,1.404,2.84,-36.513,158.752,-16.82,-8.227,-27.26,28.81,0.17175,0.3118,-0.03598,0.93375,460.0,0.963,-0.089,0.193,3.357,-0.366,0.732,-24.692,-77.514,-147.409,-31.9,-6.22,-5.08,29.41,0.08371,-0.63367,-0.01028,-0.76892,438
113,0.971,-0.117,0.292,2.808,-0.61,0.977,-22.797,-71.895,177.951,-28.7,-6.153,-13.073,27.64,0.13815,0.57059,-0.17627,0.79004,453.0,0.769,-0.002,0.646,0.305,-0.488,1.343,-0.604,-50.235,-108.951,-24.533,-5.507,-1.36,25.64,-0.52243,0.34845,0.24219,0.7395,457.0,0.59,0.041,0.802,0.0,0.0,1.16,2.823,-36.513,158.818,-16.82,-8.227,-27.26,28.81,0.17175,0.3118,-0.03598,0.93375,461.0,0.963,-0.088,0.192,3.113,-0.183,0.793,-24.703,-77.509,-147.332,-31.9,-6.22,-5.08,29.41,0.08371,-0.63367,-0.01028,-0.76892,439
114,0.971,-0.115,0.292,2.563,-0.61,0.916,-22.802,-71.9,177.995,-28.7,-6.153,-13.073,27.64,0.1301,0.57251,-0.17017,0.79135,458.0,0.769,0.0,0.647,0.244,-0.549,1.343,-0.626,-50.24,-108.918,-24.533,-5.507,-1.36,25.64,-0.52243,0.34845,0.24219,0.7395,462.0,0.59,0.043,0.8,-0.122,-0.122,1.221,2.807,-36.519,158.89,-16.82,-8.227,-27.26,28.81,0.17175,0.3118,-0.03598,0.93375,466.0,0.964,-0.089,0.193,3.052,-0.244,0.854,-24.719,-77.509,-147.239,-31.9,-6.22,-5.08,29.41,0.08371,-0.63367,-0.01028,-0.76892,444
115,0.971,-0.116,0.292,2.319,-0.732,0.732,-22.802,-71.906,178.044,-28.7,-6.153,-13.073,27.64,0.1301,0.57251,-0.17017,0.79135,459.0,0.77,-0.003,0.644,0.305,-0.488,1.16,-0.648,-50.251,-108.885,-24.533,-5.507,-1.36,25.64,-0.52243,0.34845,0.24219,0.7395,463.0,0.591,0.043,0.799,0.244,-0.122,1.099,2.796,-36.519,158.95,-16.82,-8.227,-27.26,28.81,0.17175,0.3118,-0.03598,0.93375,467.0,0.965,-0.088,0.193,2.808,-0.244,0.854,-24.747,-77.509,-147.14,-31.9,-6.22,-5.08,29.41,0.08371,-0.63367,-0.01028,-0.76892,445
116,0.972,-0.115,0.292,2.075,-0.793,0.671,-22.808,-71.917,178.11,-28.7,-6.153,-13.073,27.64,0.1301,0.57251,-0.17017,0.79135,470.0,0.771,-0.009,0.641,0.061,-0.488,0.61,-0.659,-50.257,-108.858,-24.533,-5.507,-1.36,25.64,-0.52243,0.34845,0.24219,0.7395,468.0,0.592,0.035,0.795,0.61,-0.305,0.732,2.796,-36.524,158.994,-16.82,-8.227,-27.26,28.81,0.17175,0.3118,-0.03598,0.93375,476.0,0.964,-0.088,0.193,2.686,-0.122,0.793,-24.763,-77.503,-147.057,-31.9,-6.22,-5.08,29.41,0.08371,-0.63367,-0.01028,-0.76892,454
117,0.972,-0.115,0.29,1.526,-0.793,0.549,-22.819,-71.927,178.154,-28.7,-6.153,-13.073,27.64,0.1301,0.57251,-0.17017,0.79135,471.0,0.774,-0.007,0.643,-0.244,-0.549,0.0,-0.665,-50.262,-108.858,-24.533,-5.507,-1.36,25.64,-0.52243,0.34845,0.24219,0.7395,469.0,0.594,0.03,0.795,-0.061,-0.366,0.244,2.791,-36.53,159.011,-16.82,-8.227,-27.26,28.81,0.17175,0.3118,-0.03598,0.93375,477.0,0.963,-0.088,0.192,2.502,-0.244,0.61,-24.774,-77.503,-147.003,-31.9,-6.22,-5.08,29.41,0.08371,-0.63367,-0.01028,-0.76892,455
118,0.973,-0.113,0.291,0.916,-0.671,0.488,-22.83,-71.938,178.187,-28.7,-6.153,-13.073,27.64,0.1301,0.57251,-0.17017,0.79135,472.0,0.774,-0.003,0.642,-0.366,-0.793,-0.183,-0.665,-50.273,-108.88,-24.533,-5.507,-1.36,25.64,-0.52243,0.34845,0.24219,0.7395,482.0,0.597,0.038,0.8,-0.488,-0.183,-0.183,2.785,-36.535,159.011,-16.84,-8.513,-26.72,28.81,0.17175,0.3118,-0.03598,0.93375,480.0,0.963,-0.086,0.192,2.319,-0.244,0.488,-24.774,-77.503,-146.953,-31.9,-6.22,-5.08,29.41,0.08371,-0.63367,-0.01028,-0.76892,464
119,0.973,-0.114,0.291,0.366,-0.549,0.244,-22.835,-71.949,178.187,-28.7,-6.153,-13.073,27.64,0.1301,0.57251,-0.17017,0.79135,473.0,0.776,-0.003,0.641,-0.488,-0.732,0.0,-0.67,-50.29,-108.896,-24.533,-5.507,-1.36,25.64,-0.52243,0.34845,0.24219,0.7395,483.0,0.596,0.042,0.796,-0.122,-0.122,-0.366,2.785,-36.541,159.016,-16.84,-8.513,-26.72,28.81,0.17175,0.3118,-0.03598,0.93375,481.0,0.963,-0.084,0.192,2.014,-0.305,0.427,-24.78,-77.509,-146.876,-31.9,-6.22,-5.08,29.41,0.08371,-0.63367,-0.01028,-0.76892,465
120,0.974,-0.116,0.293,0.0,-0.366,0.0,-22.83,-71.955,178.154,-28.7,-6.153,-13.073,27.64,0.1301,0.57251,-0.17017,0.79135,484.0,0.779,0.0,0.639,-0.488,-0.488,0.0,-0.676,-50.301,-108.918,-24.533,-5.507,-1.36,25.64,-0.52243,0.34845,0.24219,0.7395,490.0,0.599,0.043,0.794,-0.305,0.0,-0.244,2.785,-36.541,159.038,-16.84,-8.513,-26.72,28.81,0.17175,0.3118,-0.03598,0.93375,488.0,0.963,-0.083,0.19,1.404,-0.305,0.427,-24.791,-77.509,-146.788,-31.9,-6.22,-5.08,29.41,0.08371,-0.63367,-0.01028,-0.76892,474
121,0.973,-0.117,0.292,-0.244,-0.122,0.0,-22.824,-71.96,178.099,-28.7,-6.153,-13.073,27.64,0.1301,0.57251,-0.17017,0.79135,485.0,0.778,-0.002,0.643,-0.427,-0.366,-0.366,-0.676,-50.306,-108.94,-24.533,-5.507,-1.36,25.64,-0.52243,0.34845,0.24219,0.7395,491.0,0.602,0.042,0.794,-0.366,0.305,-0.549,2.785,-36.535,159.022,-16.84,-8.513,-26.72,28.81,0.17175,0.3118,-0.03598,0.93375,489.0,0.963,-0.083,0.191,0.793,-0.244,0.488,-24.813,-77.514,-146.728,-31.9,-6.22,-5.08,29.41,0.08371,-0.63367,-0.01028,-0.76892,475
122,0.974,-0.118,0.292,-0.671,0.061,0.0,-22.824,-71.96,178.044,-28.7,-6.153,-13.073,27.64,0.1301,0.57251,-0.17017,0.79135,498.0,0.773,-0.011,0.645,-0.061,-0.244,-0.488,-0.665,-50.312,-108.968,-24.54,-5.307,-1.46,25.64,-0.52243,0.34845,0.24219,0.7395,496.0,0.599,0.038,0.799,-0.061,0.183,-0.732,2.791,-36.535,159.005,-16.84,-8.513,-26.72,28.81,0.16537,0.31232,-0.03433,0.93478,494.0,0.965,-0.082,0.189,0.305,-0.061,0.244,-24.824,-77.514,-146.667,-31.9,-6.22,-5.08,29.41,0.08371,-0.63367,-0.01028,-0.76892,478
123,0.975,-0.121,0.293,-1.099,0.061,0.122,-22.841,-71.96,177.995,-28.7,-6.153,-13.073,27.64,0.1301,0.57251,-0.17017,0.79135,499.0,0.767,-0.014,0.645,0.122,-0.305,-0.366,-0.654,-50.317,-109.006,-24.54,-5.307,-1.46,25.64,-0.52243,0.34845,0.24219,0.7395,497.0,0.591,0.033,0.802,0.305,0.122,-0.488,2.807,-36.535,158.978,-16.84,-8.513,-26.72,28.81,0.16537,0.31232,-0.03433,0.93478,495.0,0.966,-0.084,0.192,0.061,-0.061,0.0,-24.818,-77.514,-146.613,-31.9,-6.22,-5.08,29.41,0.08371,-0.63367,-0.01028,-0.76892,479
124,0.973,-0.124,0.292,-1.282,0.244,0.183,-22.857,-71.955,177.984,-28.7,-6.153,-13.073,27.64,0.1301,0.57251,-0.17017,0.79135,506.0,0.767,-0.01,0.644,0.0,-0.366,-0.366,-0.643,-50.323,-109.05,-24.54,-5.307,-1.46,25.64,-0.52243,0.34845,0.24219,0.7395,504.0,0.589,0.033,0.801,0.122,0.0,-0.244,2.812,-36.535,158.956,-16.84,-8.513,-26.72,28.81,0.16537,0.31232,-0.03433,0.93478,502.0,0.967,-0.087,0.19,-0.183,0.0,-0.061,-24.807,-77.52,-146.574,-31.9,-6.22,-5.08,29.41,0.08371,-0.63367,-0.01028,-0.76892,486
125,0.969,-0.124,0.291,-1.16,0.427,0.122,-22.868,-71.949,177.968,-28.7,-6.153,-13.073,27.64,0.1301,0.57251,-0.17017,0.79135,507.0,0.77,-0.007,0.641,-0.061,-0.488,-0.305,-0.637,-50.334,-109.089,-24.54,-5.307,-1.46,25.64,-0.52243,0.34845,0.24219,0.7395,505.0,0.59,0.037,0.798,0.061,0.0,-0.244,2.818,-36.535,158.928,-16.84,-8.513,-26.72,28.81,0.16537,0.31232,-0.03433,0.93478,503.0,0.97,-0.087,0.19,-0.732,0.061,0.061,-24.818,-77.52,-146.541,-31.9,-6.22,-5.08,29.41,0.08371,-0.63367,-0.01028,-0.76892,487
126,0.967,-0.122,0.29,-0.977,0.122,0.0,-22.879,-71.944,177.951,-28.7,-6.153,-13.073,27.64,0.1301,0.57251,-0.17017,0.79135,514.0,0.773,-0.005,0.641,-0.122,-0.549,-0.183,-0.632,-50.339,-109.111,-24.54,-5.307,-1.46,25.64,-0.52313,0.34924,0.24255,0.73853,512.0,0.594,0.039,0.796,-0.061,-0.183,-0.244,2.818,-36.541,158.906,-16.84,-8.513,-26.72,28.81,0.16537,0.31232,-0.03433,0.93478,510.0,0.969,-0.086,0.191,-0.793,0.183,0.366,-24.846,-77.514,-146.475,-31.747,-6.333,-3.953,29.41,0.08371,-0.63367,-0.01028,-0.76892,492
127,0.968,-0.123,0.29,-0.854,-0.183,0.0,-22.896,-71.949,177.935,-28.7,-6.153,-13.073,27.64,0.1301,0.57251,-0.17017,0.79135,515.0,0.774,-0.006,0.641,-0.183,-0.488,-0.061,-0.632,-50.35,-109.122,-24.54,-5.307,-1.46,25.64,-0.52313,0.34924,0.24255,0.73853,513.0,0.596,0.04,0.795,-0.122,0.0,-0.244,2.818,-36.541,158.895,-16.84,-8.513,-26.72,28.81,0.16537,0.31232,-0.03433,0.93478,511.0,0.966,-0.091,0.191,-0.916,0.122,0.305,-24.879,-77.514,-146.404,-31.747,-6.333,-3.953,29.41,0.08371,-0.63367,-0.01028,-0.76892,493
128,0.972,-0.124,0.29,-0.854,-0.244,0.0,-22.912,-71.955,177.957,-28.7,-6.153,-13.073,27.64,0.1301,0.57251,-0.17017,0.79135,522.0,0.774,-0.008,0.642,-0.122,-0.366,-0.061,-0.632,-50.356,-109.127,-24.54,-5.307,-1.46,25.64,-0.52313,0.34924,0.24255,0.73853,520.0,0.595,0.039,0.796,0.0,0.122,-0.183,2.818,-36.541,158.884,-16.84,-8.513,-26.72,28.81,0.16537,0.31232,-0.03433,0.93478,518.0,0.96,-0.096,0.19,-1.16,0.244,0.183,-24.906,-77.509,-146.371,-31.747,-6.333,-3.953,29.41,0.08371,-0.63367,-0.01028,-0.76892,500
129,0.973,-0.124,0.291,-0.671,-0.305,0.0,-22.934,-71.96,177.99,-28.7,-6.153,-13.073,27.64,0.1301,0.57251,-0.17017,0.79135,523.0,0.774,-0.011,0.644,-0.244,-0.427,-0.183,-0.632,-50.361,-109.127,-24.54,-5.307,-1.46,25.64,-0.52313,0.34924,0.24255,0.73853,521.0,0.595,0.034,0.798,-0.305,0.0,-0.183,2.818,-36.541,158.84,-16.84,-8.513,-26.72,28.81,0.16537,0.31232,-0.03433,0.93478,519.0,0.958,-0.094,0.19,-1.282,0.244,0.0,-24.922,-77.509,-146.376,-31.747,-6.333,-3.953,29.41,0.08371,-0.63367,-0.01028,-0.76892,501
130,0.973,-0.125,0.292,-0.488,-0.183,0.0,-22.945,-71.966,178.0,-29.047,-6.247,-13.073,27.64,0.1301,0.57251,-0.17017,0.79135,524.0,0.774,-0.009,0.642,-0.366,-0.305,-0.122,-0.637,-50.367,-109.133,-24.54,-5.307,-1.46,25.64,-0.52313,0.34924,0.24255,0.73853,530.0,0.594,0.036,0.8,-0.549,0.122,-0.183,2.807,-36.541,158.796,-16.84,-8.513,-26.72,28.81,0.16537,0.31232,-0.03433,0.93478,528.0,0.959,-0.093,0.191,-1.099,0.244,-0.061,-24.933,-77.509,-146.415,-31.747,-6.333,-3.953,29.41,0.09088,-0.63376,-0.01569,-0.76794,508
131,0.971,-0.125,0.293,-0.427,-0.305,0.0,-22.956,-71.971,178.022,-29.047,-6.247,-13.073,27.64,0.1301,0.57251,-0.17017,0.79135,525.0,0.775,-0.007,0.64,-0.122,-0.244,-0.061,-0.643,-50.372,-109.122,-24.54,-5.307,-1.46,25.64,-0.52313,0.34924,0.24255,0.73853,531.0,0.595,0.037,0.796,-0.122,0.0,-0.061,2.802,-36.541,158.769,-16.84,-8.513,-26.72,28.81,0.16537,0.31232,-0.03433,0.93478,529.0,0.963,-0.094,0.189,-0.732,0.122,-0.061,-24.944,-77.503,-146.415,-31.747,-6.333,-3.953,29.41,0.09088,-0.63376,-0.01569,-0.76794,509
132,0.971,-0.125,0.293,-0.244,-0.427,0.0,-22.972,-71.977,178.055,-29.047,-6.247,-13.073,27.64,0.1301,0.57251,-0.17017,0.79135,538.0,0.777,-0.005,0.642,-0.427,-0.122,-0.183,-0.643,-50.378,-109.116,-24.54,-5.307,-1.46,25.64,-0.52313,0.34924,0.24255,0.73853,536.0,0.597,0.038,0.796,-0.061,0.244,-0.122,2.802,-36.541,158.73,-16.84,-8.513,-26.72,28.81,0.16537,0.31232,-0.03433,0.93478,534.0,0.965,-0.093,0.19,-0.549,0.0,-0.061,-24.955,-77.509,-146.415,-31.747,-6.333,-3.953,29.41,0.09088,-0.63376,-0.01569,-0.76794,516
133,0.973,-0.125,0.293,-0.061,-0.305,0.0,-22.978,-71.982,178.077,-29.047,-6.247,-13.073,27.64,0.1301,0.57251,-0.17017,0.79135,539.0,0.775,-0.004,0.64,-0.427,-0.122,-0.122,-0.648,-50.378,-109.111,-24.54,-5.307,-1.46,25.64,-0.52313,0.34924,0.24255,0.73853,537.0,0.598,0.041,0.798,-0.671,0.305,-0.366,2.796,-36.535,158.681,-16.84,-8.513,-26.72,28.81,0.16537,0.31232,-0.03433,0.93478,535.0,0.965,-0.093,0.191,-0.488,-0.061,-0.061,-24.972,-77.509,-146.415,-31.747,-6.333,-3.953,29.41,0.09088,-0.63376,-0.01569,-0.76794,517
134,0.974,-0.122,0.292,0.244,-0.244,0.0,-22.978,-71.988,178.088,-29.047,-6.247,-13.073,27.64,0.1301,0.57251,-0.17017,0.79135,546.0,0.774,-0.005,0.642,-0.122,-0.122,0.0,-0.654,-50.378,-109.105,-24.54,-5.307,-1.46,25.64,-0.52313,0.34924,0.24255,0.73853,544.0,0.595,0.043,0.798,-0.366,0.427,-0.122,2.785,-36.53,158.632,-16.84,-8.513,-26.72,28.81,0.16537,0.31232,-0.03433,0.93478,542.0,0.965,-0.094,0.192,-0.488,0.0,0.0,-24.988,-77.514,-146.409,-31.747,-6.333,-3.953,29.41,0.09088,-0.63376,-0.01569,-0.76794,526
135,0.974,-0.121,0.291,0.488,0.061,0.0,-22.967,-71.988,178.116,-29.047,-6.247,-13.073,27.64,0.1301,0.57251,-0.17017,0.79135,547.0,0.773,-0.008,0.642,0.0,0.0,-0.061,-0.654,-50.378,-109.105,-24.54,-5.307,-1.46,25.64,-0.52313,0.34924,0.24255,0.73853,545.0,0.594,0.038,0.798,0.122,0.122,-0.122,2.791,-36.524,158.582,-16.84,-8.513,-26.72,28.81,0.16537,0.31232,-0.03433,0.93478,543.0,0.965,-0.096,0.192,-0.305,0.0,-0.122,-24.994,-77.514,-146.431,-31.747,-6.333,-3.953,29.41,0.09088,-0.63376,-0.01569,-0.76794,527
136,0.972,-0.121,0.292,0.244,0.305,0.0,-22.95,-71.982,178.11,-29.047,-6.247,-13.073,27.64,0.12997,0.57315,-0.17044,0.79083,548.0,0.772,-0.008,0.642,-0.061,0.0,-0.183,-0.648,-50.378,-109.105,-24.54,-5.307,-1.46,25.64,-0.52313,0.34924,0.24255,0.73853,552.0,0.593,0.036,0.798,-0.061,0.122,-0.183,2.791,-36.524,158.549,-16.84,-8.513,-26.72,28.81,0.16537,0.31232,-0.03433,0.93478,550.0,0.966,-0.094,0.192,0.0,0.061,-0.122,-24.994,-77.514,-146.442,-31.747,-6.333,-3.953,29.41,0.09088,-0.63376,-0.01569,-0.76794,532
137,0.97,-0.121,0.289,0.0,0.122,0.122,-22.956,-71.977,178.121,-29.047,-6.247,-13.073,27.64,0.12997,0.57315,-0.17044,0.79083,549.0,0.772,-0.006,0.64,-0.183,0.0,-0.244,-0.643,-50.378,-109.116,-24.54,-5.307,-1.46,25.64,-0.52313,0.34924,0.24255,0.73853,553.0,0.593,0.036,0.797,-0.183,0.244,-0.244,2.791,-36.524,158.522,-16.84,-8.513,-26.72,28.81,0.16537,0.31232,-0.03433,0.93478,551.0,0.966,-0.092,0.191,0.305,0.244,-0.122,-24.983,-77.509,-146.464,-31.747,-6.333,-3.953,29.41,0.09088,-0.63376,-0.01569,-0.76794,533
138,0.971,-0.121,0.29,-0.122,0.0,0.183,-22.967,-71.977,178.132,-29.047,-6.247,-13.073,27.64,0.12997,0.57315,-0.17044,0.79083,554.0,0.772,-0.004,0.641,-0.305,-0.061,-0.305,-0.643,-50.378,-109.116,-24.54,-5.307,-1.46,25.64,-0.52313,0.34924,0.24255,0.73853,558.0,0.592,0.039,0.796,-0.305,0.366,-0.366,2.791,-36.519,158.516,-16.807,-7.987,-26.96,28.81,0.16537,0.31232,-0.03433,0.93478,562.0,0.967,-0.091,0.189,0.244,0.366,-0.122,-24.961,-77.503,-146.525,-31.747,-6.333,-3.953,29.41,0.09088,-0.63376,-0.01569,-0.76794,540
139,0.972,-0.122,0.29,-0.183,0.0,0.0,-22.967,-71.977,178.143,-29.047,-6.247,-13.073,27.64,0.12997,0.57315,-0.17044,0.79083,555.0,0.774,-0.003,0.642,-0.366,-0.122,-0.366,-0.643,-50.378,-109.127,-24.54,-5.307,-1.46,25.64,-0.52313,0.34924,0.24255,0.73853,559.0,0.593,0.041,0.798,-0.427,0.244,-0.427,2.785,-36.513,158.511,-16.807,-7.987,-26.96,28.81,0.16537,0.31232,-0.03433,0.93478,563.0,0.966,-0.09,0.19,0.0,0.244,-0.061,-24.961,-77.503,-146.563,-31.747,-6.333,-3.953,29.41,0.09088,-0.63376,-0.01569,-0.76794,541
140,0.973,-0.123,0.29,-0.183,0.061,-0.061,-22.961,-71.977,178.143,-29.047,-6.247,-13.073,27.64,0.12997,0.57315,-0.17044,0.79083,560.0,0.775,-0.005,0.642,-0.244,-0.122,-0.366,-0.637,-50.383,-109.133,-24.2,-4.873,-1.58,25.64,-0.52313,0.34924,0.24255,0.73853,564.0,0.594,0.04,0.797,-0.244,0.244,-0.488,2.785,-36.508,158.494,-16.807,-7.987,-26.96,28.81,0.16537,0.31232,-0.03433,0.93478,568.0,0.964,-0.089,0.191,0.0,0.305,0.0,-24.955,-77.498,-146.585,-31.747,-6.333,-3.953,29.41,0.09088,-0.63376,-0.01569,-0.76794,556
141,0.972,-0.123,0.29,-0.061,0.183,0.0,-22.956,-71.971,178.149,-29.047,-6.247,-13.073,27.64,0.12997,0.57315,-0.17044,0.79083,561.0,0.776,-0.004,0.643,-0.244,-0.183,-0.244,-0.632,-50.383,-109.144,-24.2,-4.873,-1.58,25.64,-0.52313,0.34924,0.24255,0.73853,565.0,0.595,0.041,0.801,-0.122,0.183,-0.366,2.791,-36.508,158.478,-16.807,-7.987,-26.96,28.81,0.16537,0.31232,-0.03433,0.93478,569.0,0.962,-0.091,0.19,0.183,0.305,-0.122,-24.939,-77.498,-146.585,-31.747,-6.333,-3.953,29.41,0.09088,-0.63376,-0.01569,-0.76794,557
142,0.972,-0.123,0.291,-0.244,0.0,0.0,-22.961,-71.977,178.132,-29.047,-6.247,-13.073,27.64,0.12997,0.57315,-0.17044,0.79083,570.0,0.775,-0.003,0.64,-0.122,-0.122,-0.061,-0.632,-50.389,-109.16,-24.2,-4.873,-1.58,25.64,-0.52313,0.34924,0.24255,0.73853,576.0,0.597,0.042,0.799,-0.122,0.183,-0.244,2.791,-36.508,158.489,-16.807,-7.987,-26.96,28.81,0.16974,0.31195,-0.03571,0.93408,574.0,0.963,-0.091,0.19,0.0,0.305,-0.183,-24.922,-77.492,-146.58,-31.747,-6.333,-3.953,29.41,0.09088,-0.63376,-0.01569,-0.76794,566
143,0.972,-0.124,0.291,-0.244,0.0,0.0,-22.967,-71.977,178.149,-29.047,-6.247,-13.073,27.64,0.12997,0.57315,-0.17044,0.79083,571.0,0.774,-0.006,0.641,0.061,0.0,0.0,-0.626,-50.389,-109.166,-24.2,-4.873,-1.58,25.64,-0.52313,0.34924,0.24255,0.73853,577.0,0.594,0.04,0.797,0.122,0.366,-0.183,2.796,-36.502,158.511,-16.807,-7.987,-26.96,28.81,0.16974,0.31195,-0.03571,0.93408,575.0,0.964,-0.089,0.191,-0.244,0.366,-0.183,-24.901,-77.487,-146.585,-31.747,-6.333,-3.953,29.41,0.09088,-0.63376,-0.01569,-0.76794,567
144,0.972,-0.123,0.292,-0.122,0.0,0.0,-22.967,-71.977,178.165,-29.047,-6.247,-13.073,27.64,0.12997,0.57315,-0.17044,0.79083,578.0,0.774,-0.006,0.644,0.0,0.061,0.0,-0.626,-50.383,-109.188,-24.2,-4.873,-1.58,25.64,-0.52243,0.34979,0.24261,0.73874,584.0,0.593,0.039,0.799,0.122,0.305,-0.122,2.802,-36.497,158.549,-16.807,-7.987,-26.96,28.81,0.16974,0.31195,-0.03571,0.93408,582.0,0.965,-0.089,0.192,-0.366,0.305,-0.061,-24.884,-77.487,-146.596,-32.273,-6.32,-4.733,29.41,0.09088,-0.63376,-0.01569,-0.76794,572
145,0.972,-0.124,0.293,0.0,0.122,0.0,-22.961,-71.971,178.193,-29.047,-6.247,-13.073,27.64,0.12997,0.57315,-0.17044,0.79083,579.0,0.772,-0.004,0.642,-0.122,0.122,0.061,-0.626,-50.383,-109.199,-24.2,-4.873,-1.58,25.64,-0.52243,0.34979,0.24261,0.73874,585.0,0.594,0.04,0.798,-0.122,0.305,-0.061,2.802,-36.491,158.61,-16.807,-7.987,-26.96,28.81,0.16974,0.31195,-0.03571,0.93408,583.0,0.966,-0.091,0.192,-0.244,0.305,-0.061,-24.884,-77.481,-146.629,-32.273,-6.32,-4.733,29.41,0.09088,-0.63376,-0.01569,-0.76794,573
146,0.972,-0.123,0.293,0.183,0.061,0.0,-22.956,-71.971,178.215,-29.047,-6.247,-13.073,27.64,0.12997,0.57315,-0.17044,0.79083,590.0,0.772,-0.005,0.643,-0.061,0.122,0.061,-0.626,-50.378,-109.215,-24.2,-4.873,-1.58,25.64,-0.52243,0.34979,0.24261,0.73874,592.0,0.592,0.04,0.798,0.0,0.427,-0.061,2.802,-36.486,158.665,-16.807,-7.987,-26.96,28.81,0.16974,0.31195,-0.03571,0.93408,588.0,0.966,-0.093,0.192,0.0,0.244,-0.061,-24.879,-77.481,-146.667,-32.273,-6.32,-4.733,29.41,0.09088,-0.63376,-0.01569,-0.76794,580
147,0.971,-0.121,0.292,0.122,0.183,0.0,-22.95,-71.971,178.248,-29.047,-6.247,-13.073,27.64,0.12997,0.57315,-0.17044,0.79083,591.0,0.771,-0.004,0.643,-0.061,0.122,0.0,-0.626,-50.378,-109.237,-24.2,-4.873,-1.58,25.64,-0.52243,0.34979,0.24261,0.73874,593.0,0.592,0.039,0.799,0.122,0.366,-0.061,2.807,-36.48,158.708,-16.807,-7.987,-26.96,28.81,0.16974,0.31195,-0.03571,0.93408,589.0,0.965,-0.093,0.191,0.0,0.244,0.0,-24.873,-77.476,-146.678,-32.273,-6.32,-4.733,29.41,0.09088,-0.63376,-0.01569,-0.76794,581
148,0.971,-0.121,0.292,0.0,0.183,0.0,-22.939,-71.966,178.27,-29.047,-6.247,-13.073,27.64,0.12997,0.57315,-0.17044,0.79083,594.0,0.771,-0.005,0.642,-0.061,0.183,-0.061,-0.626,-50.372,-109.254,-24.2,-4.873,-1.58,25.64,-0.52243,0.34979,0.24261,0.73874,600.0,0.592,0.038,0.799,0.305,0.61,-0.183,2.812,-36.469,158.763,-16.807,-7.987,-26.96,28.81,0.16974,0.31195,-0.03571,0.93408,598.0,0.964,-0.093,0.193,0.122,0.366,0.0,-24.868,-77.476,-146.695,-32.273,-6.32,-4.733,29.41,0.09088,-0.63376,-0.01569,-0.76794,586
149,0.971,-0.121,0.292,-0.122,0.183,0.0,-22.934,-71.96,178.248,-29.047,-6.247,-13.073,27.64,0.12997,0.57315,-0.17044,0.79083,595.0,0.772,-0.007,0.643,-0.366,0.122,-0.244,-0.626,-50.367,-109.276,-24.2,-4.873,-1.58,25.64,-0.52243,0.34979,0.24261,0.73874,601.0,0.591,0.036,0.799,-0.061,0.427,-0.244,2.818,-36.458,158.796,-16.807,-7.987,-26.96,28.81,0.16974,0.31195,-0.03571,0.93408,599.0,0.963,-0.092,0.193,0.244,0.427,0.061,-24.862,-77.465,-146.728,-32.273,-6.32,-4.733,29.41,0.09088,-0.63376,-0.01569,-0.76794,587
150,0.973,-0.122,0.291,-0.244,0.0,0.0,-22.928,-71.96,178.204,-29.047,-6.247,-13.073,27.64,0.12997,0.57315,-0.17044,0.79083,608.0,0.773,-0.007,0.647,-0.244,0.0,-0.366,-0.621,-50.367,-109.297,-24.2,-4.873,-1.58,25.64,-0.52243,0.34979,0.24261,0.73874,606.0,0.592,0.037,0.802,-0.854,0.427,-0.366,2.802,-36.453,158.813,-16.807,-7.987,-26.96,28.81,0.16974,0.31195,-0.03571,0.93408,604.0,0.964,-0.091,0.192,0.122,0.488,0.061,-24.857,-77.459,-146.761,-32.273,-6.32,-4.733,29.41,0.0889,-0.63348,-0.01392,-0.76843,596
151,0.973,-0.122,0.291,-0.244,0.061,0.0,-22.934,-71.96,178.154,-29.047,-6.247,-13.073,27.64,0.12997,0.57315,-0.17044,0.79083,609.0,0.771,-0.007,0.644,-0.366,-0.061,-0.244,-0.621,-50.367,-109.314,-24.2,-4.873,-1.58,25.64,-0.52243,0.34979,0.24261,0.73874,607.0,0.592,0.039,0.804,-0.366,0.244,-0.366,2.802,-36.447,158.813,-16.807,-7.987,-26.96,28.81,0.16974,0.31195,-0.03571,0.93408,605.0,0.963,-0.089,0.192,0.061,0.488,0.061,-24.846,-77.454,-146.777,-32.273,-6.32,-4.733,29.41,0.0889,-0.63348,-0.01392,-0.76843,597
152,0.971,-0.124,0.293,-0.244,0.122,0.0,-22.934,-71.96,178.088,-28.513,-6.427,-14.42,27.64,0.12997,0.57315,-0.17044,0.79083,616.0,0.773,-0.008,0.643,-0.122,-0.122,0.0,-0.621,-50.367,-109.319,-24.2,-4.873,-1.58,25.64,-0.52243,0.34979,0.24261,0.73874,618.0,0.591,0.037,0.801,0.0,-0.183,-0.183,2.802,-36.453,158.835,-16.807,-7.987,-26.96,28.81,0.16974,0.31195,-0.03571,0.93408,614.0,0.962,-0.089,0.195,0.0,0.427,0.0,-24.84,-77.443,-146.783,-32.273,-6.32,-4.733,29.41,0.0889,-0.63348,-0.01392,-0.76843,602
153,0.971,-0.123,0.293,-0.122,0.122,0.0,-22.934,-71.955,178.044,-28.513,-6.427,-14.42,27.64,0.12997,0.57315,-0.17044,0.79083,617.0,0.775,-0.002,0.641,-0.427,0.0,-0.122,-0.626,-50.367,-109.319,-24.2,-4.873,-1.58,25.64,-0.52243,0.34979,0.24261,0.73874,619.0,0.594,0.038,0.796,-0.732,0.0,-0.122,2.791,-36.453,158.835,-16.807,-7.987,-26.96,28.81,0.16974,0.31195,-0.03571,0.93408,615.0,0.963,-0.09,0.194,-0.305,0.427,0.0,-24.829,-77.437,-146.777,-32.273,-6.32,-4.733,29.41,0.0889,-0.63348,-0.01392,-0.76843,603
154,0.972,-0.123,0.292,-0.122,0.0,0.0,-22.928,-71.955,178.017,-28.513,-6.427,-14.42,27.64,0.12997,0.57315,-0.17044,0.79083,620.0,0.775,0.0,0.644,-0.305,0.122,-0.061,-0.626,-50.361,-109.314,-24.2,-4.873,-1.58,25.64,-0.52243,0.34979,0.24261,0.73874,632.0,0.596,0.044,0.798,-0.854,0.61,-0.427,2.78,-36.442,158.851,-16.807,-7.987,-26.96,28.81,0.16974,0.31195,-0.03571,0.93408,624.0,0.964,-0.091,0.193,-0.305,0.549,0.0,-24.824,-77.432,-146.744,-32.273,-6.32,-4.733,29.41,0.0889,-0.63348,-0.01392,-0.76843,610
155,0.972,-0.122,0.292,0.0,0.0,0.0,-22.928,-71.955,178.006,-28.513,-6.427,-14.42,27.64,0.12997,0.57315,-0.17044,0.79083,621.0,0.772,-0.006,0.643,0.61,0.0,0.183,-0.621,-50.361,-109.297,-24.2,-4.873,-1.58,25.64,-0.52243,0.34979,0.24261,0.73874,633.0,0.592,0.044,0.801,0.671,0.549,-0.061,2.796,-36.431,158.873,-16.807,-7.987,-26.96,28.81,0.16974,0.31195,-0.03571,0.93408,625.0,0.964,-0.094,0.194,-0.244,0.366,0.0,-24.813,-77.421,-146.722,-32.273,-6.32,-4.733,29.41,0.0889,-0.63348,-0.01392,-0.76843,611
156,0.972,-0.124,0.292,-0.122,0.305,0.0,-22.928,-71.955,177.995,-28.513,-6.427,-14.42,27.64,0.12997,0.57315,-0.17044,0.79083,626.0,0.77,-0.01,0.645,0.488,0.0,0.183,-0.615,-50.361,-109.286,-24.2,-4.873,-1.58,25.64,-0.52243,0.34979,0.24261,0.73874,634.0,0.589,0.035,0.801,1.16,0.183,0.183,2.812,-36.431,158.868,-17.113,-8.02,-27.14,28.81,0.16974,0.31195,-0.03571,0.93408,630.0,0.963,-0.095,0.194,-0.061,0.244,0.0,-24.813,-77.415,-146.711,-32.273,-6.32,-4.733,29.41,0.0889,-0.63348,-0.01392,-0.76843,612
157,0.971,-0.125,0.294,-0.122,0.244,0.0,-22.923,-71.949,177.979,-28.513,-6.427,-14.42,27.64,0.12997,0.57315,-0.17044,0.79083,627.0,0.77,-0.006,0.644,0.0,0.0,0.183,-0.615,-50.356,-109.276,-24.2,-4.873,-1.58,25.64,-0.52243,0.34979,0.24261,0.73874,635.0,0.589,0.035,0.802,-0.183,0.0,0.244,2.807,-36.431,158.857,-17.113,-8.02,-27.14,28.81,0.16974,0.31195,-0.03571,0.93408,631.0,0.964,-0.092,0.194,-0.183,0.244,0.0,-24.813,-77.415,-146.706,-32.273,-6.32,-4.733,29.41,0.0889,-0.63348,-0.01392,-0.76843,613
158,0.97,-0.123,0.292,0.0,-0.122,0.0,-22.917,-71.944,177.957,-28.513,-6.427,-14.42,27.64,0.13062,0.57278,-0.1709,0.79092,636.0,0.769,-0.004,0.643,0.305,0.0,0.183,-0.615,-50.356,-109.259,-24.2,-4.873,-1.58,25.64,-0.52243,0.34979,0.24261,0.73874,644.0,0.588,0.04,0.8,0.0,0.122,0.244,2.802,-36.425,158.84,-17.113,-8.02,-27.14,28.81,0.16974,0.31195,-0.03571,0.93408,642.0,0.964,-0.089,0.193,0.0,0.366,0.0,-24.813,-77.41,-146.678,-32.273,-6.32,-4.733,29.41,0.0889,-0.63348,-0.01392,-0.76843,622
159,0.971,-0.122,0.289,0.0,-0.183,0.0,-22.923,-71.944,177.968,-28.513,-6.427,-14.42,27.64,0.13062,0.57278,-0.1709,0.79092,637.0,0.771,-0.006,0.642,0.305,-0.061,0.0,-0.61,-50.356,-109.259,-24.2,-4.873,-1.58,25.64,-0.52243,0.34979,0.24261,0.73874,645.0,0.59,0.037,0.799,0.488,0.061,0.122,2.812,-36.425,158.857,-17.113,-8.02,-27.14,28.81,0.16974,0.31195,-0.03571,0.93408,643.0,0.965,-0.092,0.193,0.061,0.244,0.0,-24.802,-77.404,-146.651,-32.273,-6.32,-4.733,29.41,0.0889,-0.63348,-0.01392,-0.76843,623
160,0.972,-0.122,0.291,-0.122,0.0,0.0,-22.923,-71.949,177.984,-28.513,-6.427,-14.42,27.64,0.13062,0.57278,-0.1709,0.79092,640.0,0.772,-0.004,0.643,-0.061,-0.244,-0.061,-0.604,-50.356,-109.259,-24.413,-5.067,-1.78,25.64,-0.52243,0.34979,0.24261,0.73874,650.0,0.591,0.039,0.8,-0.122,-0.061,0.061,2.807,-36.425,158.868,-17.113,-8.02,-27.14,28.81,0.16669,0.31143,-0.03442,0.93484,648.0,0.962,-0.095,0.194,0.061,0.244,0.0,-24.802,-77.399,-146.629,-32.273,-6.32,-4.733,29.41,0.0889,-0.63348,-0.01392,-0.76843,628
161,0.973,-0.121,0.292,-0.305,-0.061,0.0,-22.928,-71.949,177.984,-28.513,-6.427,-14.42,27.64,0.13062,0.57278,-0.1709,0.79092,641.0,0.773,-0.003,0.644,-0.305,-0.183,-0.061,-0.604,-50.356,-109.259,-24.413,-5.067,-1.78,25.64,-0.52243,0.34979,0.24261,0.73874,651.0,0.592,0.041,0.8,-0.427,-0.061,0.0,2.796,-36.431,158.879,-17.113,-8.02,-27.14,28.81,0.16669,0.31143,-0.03442,0.93484,649.0,0.961,-0.094,0.196,0.061,0.244,0.0,-24.796,-77.393,-146.596,-32.273,-6.32,-4.733,29.41,0.0889,-0.63348,-0.01392,-0.76843,629
162,0.972,-0.122,0.292,-0.305,-0.122,0.0,-22.934,-71.949,177.984,-28.513,-6.427,-14.42,27.64,0.13062,0.57278,-0.1709,0.79092,652.0,0.772,-0.006,0.644,-0.488,-0.122,-0.122,-0.61,-50.356,-109.27,-24.413,-5.067,-1.78,25.64,-0.52243,0.34979,0.24261,0.73874,656.0,0.591,0.038,0.801,-0.427,0.244,-0.244,2.791,-36.425,158.89,-17.113,-8.02,-27.14,28.81,0.16669,0.31143,-0.03442,0.93484,660.0,0.96,-0.091,0.194,0.0,0.305,0.0,-24.796,-77.393,-146.569,-32.273,-6.32,-4.733,29.41,0.0889,-0.63348,-0.01392,-0.76843,638
163,0.97,-0.123,0.293,-0.183,-0.122,0.0,-22.939,-71.955,177.995,-28.513,-6.427,-14.42,27.64,0.13062,0.57278,-0.1709,0.79092,653.0,0.772,-0.008,0.643,-0.488,-0.061,-0.244,-0.615,-50.356,-109.286,-24.413,-5.067,-1.78,25.64,-0.52243,0.34979,0.24261,0.73874,657.0,0.592,0.037,0.801,-0.305,0.061,-0.305,2.791,-36.42,158.906,-17.113,-8.02,-27.14,28.81,0.16669,0.31143,-0.03442,0.93484,661.0,0.961,-0.089,0.193,-0.183,0.244,0.0,-24.796,-77.388,-146.552,-32.273,-6.32,-4.733,29.41,0.0889,-0.63348,-0.01392,-0.76843,639
164,0.971,-0.123,0.293,-0.122,-0.183,0.0,-22.945,-71.955,178.017,-28.513,-6.427,-14.42,27.64,0.13062,0.57278,-0.1709,0.79092,658.0,0.774,-0.005,0.642,-0.183,-0.061,-0.244,-0.61,-50.356,-109.303,-24.413,-5.067,-1.78,25.64,-0.52173,0.34979,0.24219,0.73938,666.0,0.593,0.037,0.798,-0.244,0.0,-0.183,2.785,-36.42,158.923,-17.113,-8.02,-27.14,28.81,0.16669,0.31143,-0.03442,0.93484,664.0,0.964,-0.089,0.193,-0.305,0.183,0.0,-24.796,-77.382,-146.514,-32.273,-6.32,-4.733,29.41,0.0889,-0.63348,-0.01392,-0.76843,646
165,0.972,-0.123,0.293,0.0,-0.061,0.0,-22.945,-71.955,178.028,-28.513,-6.427,-14.42,27.64,0.13062,0.57278,-0.1709,0.79092,659.0,0.776,-0.002,0.642,-0.488,0.0,-0.244,-0.61,-50.356,-109.325,-24.413,-5.067,-1.78,25.64,-0.52173,0.34979,0.24219,0.73938,667.0,0.594,0.041,0.799,-0.366,0.0,-0.244,2.785,-36.42,158.928,-17.113,-8.02,-27.14,28.81,0.16669,0.31143,-0.03442,0.93484,665.0,0.964,-0.091,0.195,-0.366,0.122,0.0,-24.802,-77.382,-146.475,-32.273,-6.32,-4.733,29.41,0.0889,-0.63348,-0.01392,-0.76843,647
166,0.972,-0.123,0.294,0.0,0.0,0.0,-22.945,-71.96,178.028,-28.513,-6.427,-14.42,27.64,0.13062,0.57278,-0.1709,0.79092,662.0,0.775,-0.001,0.641,-0.305,-0.122,0.0,-0.615,-50.356,-109.33,-24.413,-5.067,-1.78,25.64,-0.52173,0.34979,0.24219,0.73938,672.0,0.595,0.046,0.799,-0.305,0.305,-0.244,2.78,-36.414,158.912,-17.113,-8.02,-27.14,28.81,0.16669,0.31143,-0.03442,0.93484,670.0,0.964,-0.092,0.195,-0.183,0.122,0.0,-24.807,-77.382,-146.464,-31.813,-6.387,-4.547,29.41,0.0889,-0.63348,-0.01392,-0.76843,654
167,0.973,-0.122,0.292,0.061,0.183,0.0,-22.939,-71.955,178.033,-28.513,-6.427,-14.42,27.64,0.13062,0.57278,-0.1709,0.79092,663.0,0.773,-0.005,0.643,0.0,0.0,0.183,-0.615,-50.356,-109.33,-24.413,-5.067,-1.78,25.64,-0.52173,0.34979,0.24219,0.73938,673.0,0.592,0.042,0.799,0.366,0.488,-0.061,2.791,-36.409,158.879,-17.113,-8.02,-27.14,28.81,0.16669,0.31143,-0.03442,0.93484,671.0,0.963,-0.091,0.196,-0.183,0.0,0.0,-24.813,-77.382,-146.453,-31.813,-6.387,-4.547,29.41,0.0889,-0.63348,-0.01392,-0.76843,655
168,0.973,-0.123,0.292,-0.061,0.122,0.0,-22.934,-71.955,178.033,-28.513,-6.427,-14.42,27.64,0.13062,0.57278,-0.1709,0.79092,674.0,0.773,-0.007,0.644,0.061,0.0,0.122,-0.615,-50.356,-109.33,-24.413,-5.067,-1.78,25.64,-0.52173,0.34979,0.24219,0.73938,680.0,0.592,0.038,0.802,0.244,0.244,0.0,2.796,-36.403,158.851,-17.113,-8.02,-27.14,28.81,0.16669,0.31143,-0.03442,0.93484,678.0,0.964,-0.092,0.194,-0.122,0.0,0.0,-24.818,-77.382,-146.459,-31.813,-6.387,-4.547,29.41,0.0889,-0.63348,-0.01392,-0.76843,668
169,0.972,-0.122,0.29,0.0,0.0,0.0,-22.928,-71.949,178.028,-28.513,-6.427,-14.42,27.64,0.13062,0.57278,-0.1709,0.79092,675.0,0.771,-0.008,0.643,0.305,0.0,0.0,-0.61,-50.356,-109.336,-24.413,-5.067,-1.78,25.64,-0.52173,0.34979,0.24219,0.73938,681.0,0.591,0.037,0.801,0.305,0.244,0.061,2.802,-36.398,158.835,-17.113,-8.02,-27.14,28.81,0.16669,0.31143,-0.03442,0.93484,679.0,0.964,-0.091,0.194,0.0,0.122,0.0,-24.824,-77.382,-146.448,-31.813,-6.387,-4.547,29.41,0.0889,-0.63348,-0.01392,-0.76843,669
170,0.97,-0.122,0.29,-0.061,0.0,0.0,-22.928,-71.949,178.022,-28.513,-6.427,-14.42,27.64,0.13062,0.57278,-0.1709,0.79092,682.0,0.771,-0.006,0.643,0.122,0.0,0.0,-0.61,-50.35,-109.341,-24.413,-5.067,-1.78,25.64,-0.52173,0.34979,0.24219,0.73938,692.0,0.59,0.036,0.8,0.244,0.0,0.061,2.807,-36.403,158.835,-17.113,-8.02,-27.14,28.81,0.16669,0.31143,-0.03442,0.93484,690.0,0.966,-0.093,0.195,0.0,0.183,0.0,-24.824,-77.377,-146.442,-31.813,-6.387,-4.547,29.41,0.09134,-0.6329,-0.01553,-0.76859,676
171,0.97,-0.123,0.29,-0.183,0.0,0.0,-22.928,-71.949,178.028,-28.513,-6.427,-14.42,27.64,0.13062,0.57278,-0.1709,0.79092,683.0,0.771,-0.004,0.643,0.0,-0.061,0.0,-0.604,-50.35,-109.341,-24.413,-5.067,-1.78,25.64,-0.52173,0.34979,0.24219,0.73938,693.0,0.591,0.039,0.801,-0.183,-0.061,0.0,2.802,-36.403,158.818,-17.113,-8.02,-27.14,28.81,0.16669,0.31143,-0.03442,0.93484,691.0,0.965,-0.092,0.195,-0.122,0.122,0.0,-24.824,-77.377,-146.431,-31.813,-6.387,-4.547,29.41,0.09134,-0.6329,-0.01553,-0.76859,677
172,0.972,-0.124,0.29,-0.244,0.0,0.0,-22.934,-71.949,178.033,-28.773,-6.36,-13.087,27.64,0.13062,0.57278,-0.1709,0.79092,686.0,0.773,-0.003,0.642,0.0,-0.122,0.0,-0.604,-50.35,-109.347,-24.413,-5.067,-1.78,25.64,-0.52173,0.34979,0.24219,0.73938,698.0,0.591,0.042,0.8,-0.061,-0.061,0.061,2.796,-36.403,158.785,-17.113,-8.02,-27.14,28.81,0.16669,0.31143,-0.03442,0.93484,696.0,0.964,-0.091,0.194,0.0,0.183,0.0,-24.824,-77.371,-146.426,-31.813,-6.387,-4.547,29.41,0.09134,-0.6329,-0.01553,-0.76859,684
173,0.972,-0.124,0.291,-0.061,-0.122,0.0,-22.934,-71.955,178.022,-28.773,-6.36,-13.087,27.64,0.13062,0.57278,-0.1709,0.79092,687.0,0.774,-0.004,0.642,0.0,-0.183,0.0,-0.604,-50.356,-109.352,-24.413,-5.067,-1.78,25.64,-0.52173,0.34979,0.24219,0.73938,699.0,0.592,0.04,0.799,0.244,-0.061,0.0,2.802,-36.403,158.747,-17.113,-8.02,-27.14,28.81,0.16669,0.31143,-0.03442,0.93484,697.0,0.962,-0.091,0.194,0.122,0.122,0.0,-24.818,-77.371,-146.437,-31.813,-6.387,-4.547,29.41,0.09134,-0.6329,-0.01553,-0.76859,685
174,0.972,-0.123,0.292,0.0,-0.122,0.0,-22.939,-71.955,178.022,-28.773,-6.36,-13.087,27.64,0.13062,0.57278,-0.1709,0.79092,700.0,0.774,-0.003,0.643,-0.061,-0.183,-0.122,-0.599,-50.356,-109.358,-24.413,-5.067,-1.78,25.64,-0.52173,0.34979,0.24219,0.73938,704.0,0.592,0.039,0.799,0.122,0.0,-0.061,2.807,-36.409,158.725,-17.113,-8.02,-27.14,28.81,0.16669,0.31143,-0.03442,0.93484,702.0,0.961,-0.091,0.192,0.0,0.061,0.0,-24.818,-77.371,-146.426,-31.813,-6.387,-4.547,29.41,0.09134,-0.6329,-0.01553,-0.76859,688
175,0.971,-0.123,0.293,0.0,0.0,0.0,-22.939,-71.955,178.006,-28.773,-6.36,-13.087,27.64,0.13062,0.57278,-0.1709,0.79092,701.0,0.774,-0.001,0.643,-0.244,-0.122,0.0,-0.599,-50.356,-109.363,-24.413,-5.067,-1.78,25.64,-0.52173,0.34979,0.24219,0.73938,705.0,0.592,0.042,0.801,-0.122,-0.061,-0.061,2.807,-36.409,158.692,-17.113,-8.02,-27.14,28.81,0.16669,0.31143,-0.03442,0.93484,703.0,0.961,-0.091,0.192,-0.061,0.0,0.0,-24.824,-77.371,-146.437,-31.813,-6.387,-4.547,29.41,0.09134,-0.6329,-0.01553,-0.76859,689
176,0.972,-0.123,0.293,-0.061,0.0,0.0,-22.939,-71.955,177.995,-28.773,-6.36,-13.087,27.64,0.13052,0.57285,-0.17087,0.79089,706.0,0.774,-0.004,0.643,-0.244,-0.122,0.0,-0.604,-50.361,-109.369,-24.413,-5.067,-1.78,25.64,-0.52173,0.34979,0.24219,0.73938,714.0,0.593,0.042,0.8,-0.061,-0.122,-0.061,2.807,-36.409,158.687,-16.373,-8.54,-27.38,28.81,0.16669,0.31143,-0.03442,0.93484,712.0,0.963,-0.092,0.193,-0.122,0.0,0.0,-24.829,-77.371,-146.448,-31.813,-6.387,-4.547,29.41,0.09134,-0.6329,-0.01553,-0.76859,694
177,0.972,-0.124,0.293,-0.122,0.0,0.0,-22.939,-71.955,177.984,-28.773,-6.36,-13.087,27.64,0.13052,0.57285,-0.17087,0.79089,707.0,0.773,-0.009,0.641,0.122,-0.061,0.0,-0.599,-50.361,-109.374,-24.413,-5.067,-1.78,25.64,-0.52173,0.34979,0.24219,0.73938,715.0,0.593,0.037,0.798,0.244,0.061,0.0,2.812,-36.409,158.681,-16.373,-8.54,-27.38,28.81,0.16669,0.31143,-0.03442,0.93484,713.0,0.964,-0.091,0.194,-0.122,0.0,0.0,-24.84,-77.371,-146.448,-31.813,-6.387,-4.547,29.41,0.09134,-0.6329,-0.01553,-0.76859,695
178,0.972,-0.124,0.292,-0.122,0.0,0.0,-22.939,-71.955,177.973,-28.773,-6.36,-13.087,27.64,0.13052,0.57285,-0.17087,0.79089,720.0,0.771,-0.01,0.643,0.366,0.0,0.0,-0.588,-50.361,-109.38,-24.9,-4.913,-1.0,25.64,-0.52173,0.34979,0.24219,0.73938,718.0,0.591,0.034,0.8,0.61,0.061,0.061,2.823,-36.409,158.643,-16.373,-8.54,-27.38,28.81,0.16837,0.31125,-0.03485,0.9346,716.0,0.964,-0.09,0.194,-0.061,0.0,0.0,-24.846,-77.371,-146.459,-31.813,-6.387,-4.547,29.41,0.09134,-0.6329,-0.01553,-0.76859,708
179,0.97,-0.124,0.292,0.0,0.0,0.0,-22.939,-71.955,177.968,-28.773,-6.36,-13.087,27.64,0.13052,0.57285,-0.17087,0.79089,721.0,0.771,-0.007,0.644,0.183,0.0,0.0,-0.588,-50.356,-109.38,-24.9,-4.913,-1.0,25.64,-0.52173,0.34979,0.24219,0.73938,719.0,0.589,0.036,0.802,0.305,0.122,0.183,2.823,-36.409,158.621,-16.373,-8.54,-27.38,28.81,0.16837,0.31125,-0.03485,0.9346,717.0,0.964,-0.091,0.194,-0.122,0.061,0.0,-24.851,-77.371,-146.492,-31.813,-6.387,-4.547,29.41,0.09134,-0.6329,-0.01553,-0.76859,709
180,0.97,-0.123,0.292,0.061,0.061,0.0,-22.939,-71.955,177.957,-28.773,-6.36,-13.087,27.64,0.13052,0.57285,-0.17087,0.79089,722.0,0.771,-0.004,0.643,0.0,0.0,0.0,-0.588,-50.356,-109.385,-24.9,-4.913,-1.0,25.64,-0.52173,0.34979,0.24219,0.73938,728.0,0.589,0.04,0.8,0.0,0.122,0.122,2.823,-36.409,158.604,-16.373,-8.54,-27.38,28.81,0.16837,0.31125,-0.03485,0.9346,726.0,0.965,-0.091,0.195,-0.244,0.122,0.0,-24.857,-77.371,-146.525,-31.813,-6.387,-4.547,29.41,0.09134,-0.6329,-0.01553,-0.76859,710
181,0.971,-0.122,0.292,0.0,0.0,0.0,-22.934,-71.955,177.94,-28.773,-6.36,-13.087,27.64,0.13052,0.57285,-0.17087,0.79089,723.0,0.771,-0.003,0.642,0.0,0.0,0.0,-0.582,-50.356,-109.391,-24.9,-4.913,-1.0,25.64,-0.52173,0.34979,0.24219,0.73938,729.0,0.59,0.04,0.799,0.122,0.0,0.0,2.823,-36.409,158.61,-16.373,-8.54,-27.38,28.81,0.16837,0.31125,-0.03485,0.9346,727.0,0.964,-0.094,0.196,-0.122,0.122,0.0,-24.857,-77.371,-146.563,-31.813,-6.387,-4.547,29.41,0.09134,-0.6329,-0.01553,-0.76859,711
182,0.971,-0.122,0.29,0.0,0.0,0.0,-22.934,-71.955,177.935,-28.773,-6.36,-13.087,27.64,0.13052,0.57285,-0.17087,0.79089,730.0,0.773,-0.004,0.643,0.0,0.0,0.0,-0.582,-50.356,-109.396,-24.9,-4.913,-1.0,25.64,-0.52118,0.34985,0.24207,0.73978,736.0,0.591,0.04,0.8,-0.061,0.0,0.0,2.823,-36.409,158.626,-16.373,-8.54,-27.38,28.81,0.16837,0.31125,-0.03485,0.9346,734.0,0.963,-0.094,0.194,-0.061,0.122,0.0,-24.862,-77.371,-146.602,-31.813,-6.387,-4.547,29.41,0.09134,-0.6329,-0.01553,-0.76859,724
183,0.973,-0.123,0.292,-0.061,0.0,0.0,-22.934,-71.955,177.924,-28.773,-6.36,-13.087,27.64,0.13052,0.57285,-0.17087,0.79089,731.0,0.775,-0.005,0.645,0.0,-0.183,0.0,-0.582,-50.356,-109.396,-24.9,-4.913,-1.0,25.64,-0.52118,0.34985,0.24207,0.73978,737.0,0.594,0.039,0.802,-0.305,0.061,-0.061,2.818,-36.409,158.637,-16.373,-8.54,-27.38,28.81,0.16837,0.31125,-0.03485,0.9346,735.0,0.961,-0.094,0.194,0.0,0.122,0.0,-24.862,-77.366,-146.635,-31.813,-6.387,-4.547,29.41,0.09134,-0.6329,-0.01553,-0.76859,725
184,0.974,-0.123,0.292,-0.122,0.061,0.0,-22.934,-71.955,177.913,-28.773,-6.36,-13.087,27.64,0.13052,0.57285,-0.17087,0.79089,738.0,0.773,-0.008,0.644,0.061,-0.244,0.0,-0.577,-50.361,-109.402,-24.9,-4.913,-1.0,25.64,-0.52118,0.34985,0.24207,0.73978,744.0,0.594,0.038,0.802,0.183,-0.061,-0.122,2.823,-36.409,158.615,-16.373,-8.54,-27.38,28.81,0.16837,0.31125,-0.03485,0.9346,742.0,0.962,-0.092,0.195,0.0,0.183,0.0,-24.862,-77.366,-146.673,-31.813,-6.387,-4.547,29.41,0.09134,-0.6329,-0.01553,-0.76859,732
185,0.972,-0.125,0.293,-0.122,0.0,0.0,-22.934,-71.949,177.902,-28.773,-6.36,-13.087,27.64,0.13052,0.57285,-0.17087,0.79089,739.0,0.773,-0.009,0.643,0.305,-0.122,0.0,-0.571,-50.361,-109.407,-24.9,-4.913,-1.0,25.64,-0.52118,0.34985,0.24207,0.73978,745.0,0.59,0.036,0.8,0.61,-0.305,0.061,2.834,-36.414,158.599,-16.373,-8.54,-27.38,28.81,0.16837,0.31125,-0.03485,0.9346,743.0,0.961,-0.09,0.195,0.0,0.122,0.0,-24.862,-77.36,-146.706,-31.813,-6.387,-4.547,29.41,0.09134,-0.6329,-0.01553,-0.76859,733
186,0.97,-0.125,0.292,0.0,0.0,0.0,-22.934,-71.949,177.891,-28.773,-6.36,-13.087,27.64,0.13052,0.57285,-0.17087,0.79089,746.0,0.774,-0.002,0.641,-0.122,0.061,0.0,-0.577,-50.356,-109.413,-24.9,-4.913,-1.0,25.64,-0.52118,0.34985,0.24207,0.73978,752.0,0.593,0.039,0.797,-0.183,0.061,0.0,2.829,-36.414,158.577,-16.373,-8.54,-27.38,28.81,0.16837,0.31125,-0.03485,0.9346,750.0,0.963,-0.09,0.193,0.061,0.0,0.0,-24.868,-77.36,-146.739,-31.813,-6.387,-4.547,29.41,0.09134,-0.6329,-0.01553,-0.76859,740
187,0.972,-0.122,0.292,0.122,-0.061,0.0,-22.934,-71.949,177.885,-28.773,-6.36,-13.087,27.64,0.13052,0.57285,-0.17087,0.79089,747.0,0.775,0.0,0.642,-0.366,0.061,0.0,-0.582,-50.356,-109.413,-24.9,-4.913,-1.0,25.64,-0.52118,0.34985,0.24207,0.73978,753.0,0.594,0.042,0.797,-0.549,0.427,-0.305,2.823,-36.403,158.544,-16.373,-8.54,-27.38,28.81,0.16837,0.31125,-0.03485,0.9346,751.0,0.965,-0.09,0.193,-0.061,0.061,0.0,-24.873,-77.36,-146.772,-31.813,-6.387,-4.547,29.41,0.09134,-0.6329,-0.01553,-0.76859,741
188,0.972,-0.121,0.292,0.183,-0.122,0.0,-22.934,-71.955,177.874,-28.773,-6.36,-13.087,27.64,0.13052,0.57285,-0.17087,0.79089,754.0,0.771,-0.002,0.641,0.183,0.0,0.0,-0.571,-50.356,-109.418,-24.9,-4.913,-1.0,25.64,-0.52118,0.34985,0.24207,0.73978,762.0,0.592,0.045,0.8,0.366,0.305,-0.244,2.834,-36.398,158.522,-16.373,-8.54,-27.38,28.81,0.16837,0.31125,-0.03485,0.9346,760.0,0.966,-0.093,0.195,-0.061,0.0,0.0,-24.879,-77.36,-146.799,-31.813,-6.387,-4.547,29.41,0.09134,-0.6329,-0.01553,-0.76859,748
189,0.972,-0.122,0.292,0.061,0.122,0.0,-22.928,-71.955,177.869,-28.773,-6.36,-13.087,27.64,0.13052,0.57285,-0.17087,0.79089,755.0,0.77,-0.004,0.646,0.183,-0.061,0.0,-0.566,-50.356,-109.424,-24.9,-4.913,-1.0,25.64,-0.52118,0.34985,0.24207,0.73978,763.0,0.587,0.042,0.803,0.793,0.244,0.0,2.851,-36.398,158.5,-16.373,-8.54,-27.38,28.81,0.16837,0.31125,-0.03485,0.9346,761.0,0.963,-0.094,0.195,0.0,-0.061,0.0,-24.884,-77.366,-146.827,-31.813,-6.387,-4.547,29.41,0.09134,-0.6329,-0.01553,-0.76859,749
190,0.971,-0.123,0.292,-0.183,0.244,0.0,-22.923,-71.949,177.852,-28.773,-6.36,-13.087,27.64,0.13052,0.57285,-0.17087,0.79089,764.0,0.771,-0.007,0.645,-0.122,-0.122,0.0,-0.566,-50.356,-109.424,-24.9,-4.913,-1.0,25.64,-0.52118,0.34985,0.24207,0.73978,770.0,0.59,0.038,0.805,0.0,0.122,-0.122,2.851,-36.392,158.516,-16.373,-8.54,-27.38,28.81,0.16837,0.31125,-0.03485,0.9346,768.0,0.963,-0.095,0.194,0.061,0.0,0.0,-24.89,-77.366,-146.854,-31.8,-6.567,-4.66,29.41,0.09134,-0.6329,-0.01553,-0.76859,756
191,0.971,-0.124,0.292,-0.366,0.0,0.0,-22.928,-71.949,177.841,-28.773,-6.36,-13.087,27.64,0.13052,0.57285,-0.17087,0.79089,765.0,0.772,-0.007,0.643,-0.061,-0.183,0.0,-0.566,-50.356,-109.429,-24.9,-4.913,-1.0,25.64,-0.52118,0.34985,0.24207,0.73978,771.0,0.59,0.038,0.801,-0.122,0.0,-0.061,2.851,-36.392,158.522,-16.373,-8.54,-27.38,28.81,0.16837,0.31125,-0.03485,0.9346,769.0,0.963,-0.09,0.194,0.061,0.061,0.0,-24.895,-77.366,-146.882,-31.8,-6.567,-4.66,29.41,0.09134,-0.6329,-0.01553,-0.76859,757
192,0.97,-0.123,0.291,-0.244,-0.122,0.0,-22.934,-71.949,177.83,-28.927,-6.44,-13.367,27.64,0.13052,0.57285,-0.17087,0.79089,772.0,0.772,-0.005,0.642,-0.061,-0.244,0.0,-0.566,-50.361,-109.435,-24.9,-4.913,-1.0,25.64,-0.52118,0.34985,0.24207,0.73978,776.0,0.591,0.039,0.801,-0.122,-0.244,0.0,2.845,-36.398,158.544,-17.22,-8.273,-27.12,28.81,0.16837,0.31125,-0.03485,0.9346,774.0,0.964,-0.088,0.193,0.061,0.122,0.0,-24.895,-77.36,-146.915,-31.8,-6.567,-4.66,29.41,0.09134,-0.6329,-0.01553,-0.76859,758
193,0.971,-0.124,0.29,-0.061,-0.122,0.0,-22.939,-71.949,177.825,-28.927,-6.44,-13.367,27.64,0.13052,0.57285,-0.17087,0.79089,773.0,0.772,-0.005,0.642,0.122,-0.305,0.0,-0.566,-50.367,-109.435,-24.9,-4.913,-1.0,25.64,-0.52118,0.34985,0.24207,0.73978,777.0,0.592,0.041,0.8,0.0,-0.183,0.0,2.845,-36.403,158.571,-17.22,-8.273,-27.12,28.81,0.16837,0.31125,-0.03485,0.9346,775.0,0.962,-0.091,0.193,-0.061,0.122,0.0,-24.895,-77.36,-146.948,-31.8,-6.567,-4.66,29.41,0.09134,-0.6329,-0.01553,-0.76859,759
194,0.972,-0.123,0.291,-0.061,-0.122,0.0,-22.939,-71.955,177.819,-28.927,-6.44,-13.367,27.64,0.13052,0.57285,-0.17087,0.79089,780.0,0.773,-0.005,0.642,0.122,-0.305,0.0,-0.56,-50.367,-109.44,-24.9,-4.913,-1.0,25.64,-0.52118,0.34985,0.24207,0.73978,786.0,0.591,0.038,0.799,0.244,-0.061,0.0,2.851,-36.403,158.549,-17.22,-8.273,-27.12,28.81,0.16837,0.31125,-0.03485,0.9346,784.0,0.962,-0.092,0.196,-0.244,0.122,0.0,-24.895,-77.36,-146.981,-31.8,-6.567,-4.66,29.41,0.09134,-0.6329,-0.01553,-0.76859,766
195,0.972,-0.123,0.292,-0.061,0.0,0.0,-22.945,-71.955,177.814,-28.927,-6.44,-13.367,27.64,0.13052,0.57285,-0.17087,0.79089,781.0,0.773,-0.003,0.644,-0.305,-0.305,0.0,-0.566,-50.372,-109.44,-24.9,-4.913,-1.0,25.64,-0.52118,0.34985,0.24207,0.73978,787.0,0.592,0.041,0.801,-0.488,0.0,-0.061,2.84,-36.403,158.472,-17.22,-8.273,-27.12,28.81,0.16837,0.31125,-0.03485,0.9346,785.0,0.962,-0.093,0.196,-0.427,0.122,0.0,-24.906,-77.36,-147.008,-31.8,-6.567,-4.66,29.41,0.09134,-0.6329,-0.01553,-0.76859,767
196,0.971,-0.123,0.292,-0.061,-0.061,0.0,-22.945,-71.955,177.808,-28.927,-6.44,-13.367,27.64,0.13193,0.57254,-0.17191,0.79065,788.0,0.773,-0.003,0.641,0.061,-0.183,0.0,-0.56,-50.378,-109.446,-24.307,-5.013,-1.567,25.64,-0.52118,0.34985,0.24207,0.73978,792.0,0.592,0.043,0.801,0.0,0.0,-0.061,2.845,-36.403,158.401,-17.22,-8.273,-27.12,28.81,0.16934,0.31119,-0.03497,0.93442,790.0,0.962,-0.093,0.194,-0.488,0.061,0.0,-24.917,-77.355,-147.041,-31.8,-6.567,-4.66,29.41,0.08731,-0.6329,-0.01196,-0.7691,778
197,0.971,-0.124,0.294,0.0,-0.244,0.0,-22.95,-71.955,177.803,-28.927,-6.44,-13.367,27.64,0.13193,0.57254,-0.17191,0.79065,789.0,0.774,-0.006,0.642,0.305,-0.061,0.0,-0.555,-50.378,-109.451,-24.307,-5.013,-1.567,25.64,-0.52118,0.34985,0.24207,0.73978,793.0,0.592,0.038,0.797,0.549,-0.183,0.061,2.856,-36.409,158.357,-17.22,-8.273,-27.12,28.81,0.16934,0.31119,-0.03497,0.93442,791.0,0.963,-0.091,0.193,-0.427,0.0,0.0,-24.928,-77.355,-147.068,-31.8,-6.567,-4.66,29.41,0.08731,-0.6329,-0.01196,-0.7691,779
198,0.973,-0.125,0.293,0.122,-0.122,0.0,-22.95,-71.96,177.797,-28.927,-6.44,-13.367,27.64,0.13193,0.57254,-0.17191,0.79065,794.0,0.776,-0.005,0.642,-0.122,-0.061,0.0,-0.555,-50.378,-109.451,-24.307,-5.013,-1.567,25.64,-0.52118,0.34985,0.24207,0.73978,798.0,0.595,0.038,0.8,-0.122,0.061,0.0,2.851,-36.409,158.329,-17.22,-8.273,-27.12,28.81,0.16934,0.31119,-0.03497,0.93442,796.0,0.963,-0.091,0.193,-0.244,0.0,0.0,-24.939,-77.36,-147.09,-31.8,-6.567,-4.66,29.41,0.08731,-0.6329,-0.01196,-0.7691,782
199,0.972,-0.123,0.292,0.183,0.0,0.0,-22.95,-71.96,177.792,-28.927,-6.44,-13.367,27.64,0.13193,0.57254,-0.17191,0.79065,795.0,0.776,-0.003,0.641,-0.061,-0.061,0.0,-0.555,-50.378,-109.457,-24.307,-5.013,-1.567,25.64,-0.52118,0.34985,0.24207,0.73978,799.0,0.596,0.041,0.799,-0.183,0.244,0.0,2.845,-36.403,158.302,-17.22,-8.273,-27.12,28.81,0.16934,0.31119,-0.03497,0.93442,797.0,0.965,-0.092,0.196,0.0,-0.122,0.0,-24.944,-77.36,-147.112,-31.8,-6.567,-4.66,29.41,0.08731,-0.6329,-0.01196,-0.7691,783
200,0.973,-0.123,0.292,0.183,0.122,0.0,-22.945,-71.96,177.781,-28.927,-6.44,-13.367,27.64,0.13193,0.57254,-0.17191,0.79065,800.0,0.774,-0.004,0.641,0.061,0.0,0.0,-0.549,-50.372,-109.457,-24.307,-5.013,-1.567,25.64,-0.52081,0.35001,0.24213,0.73996,804.0,0.593,0.041,0.799,0.183,0.305,0.0,2.851,-36.398,158.264,-17.22,-8.273,-27.12,28.81,0.16934,0.31119,-0.03497,0.93442,802.0,0.964,-0.092,0.196,0.122,-0.061,0.0,-24.95,-77.36,-147.134,-31.8,-6.567,-4.66,29.41,0.08731,-0.6329,-0.01196,-0.7691,820
201,0.973,-0.122,0.292,0.061,0.122,0.0,-22.934,-71.955,177.77,-28.927,-6.44,-13.367,27.64,0.13193,0.57254,-0.17191,0.79065,801.0,0.773,-0.004,0.643,0.0,0.0,0.0,-0.549,-50.372,-109.462,-24.307,-5.013,-1.567,25.64,-0.52081,0.35001,0.24213,0.73996,805.0,0.592,0.041,0.801,-0.122,0.244,0.061,2.845,-36.392,158.264,-17.22,-8.273,-27.12,28.81,0.16934,0.31119,-0.03497,0.93442,803.0,0.964,-0.093,0.196,0.122,-0.183,0.0,-24.961,-77.366,-147.151,-31.8,-6.567,-4.66,29.41,0.08731,-0.6329,-0.01196,-0.7691,821
202,0.972,-0.122,0.291,0.0,0.061,0.0,-22.934,-71.955,177.759,-28.927,-6.44,-13.367,27.64,0.13193,0.57254,-0.17191,0.79065,806.0,0.771,-0.004,0.643,0.061,0.0,0.0,-0.549,-50.372,-109.468,-24.307,-5.013,-1.567,25.64,-0.52081,0.35001,0.24213,0.73996,810.0,0.589,0.041,0.801,0.0,0.122,0.061,2.845,-36.392,158.28,-17.22,-8.273,-27.12,28.81,0.16934,0.31119,-0.03497,0.93442,808.0,0.964,-0.092,0.194,0.305,0.0,0.0,-24.955,-77.366,-147.178,-31.8,-6.567,-4.66,29.41,0.08731,-0.6329,-0.01196,-0.7691,822
203,0.971,-0.123,0.29,0.0,0.0,0.0,-22.928,-71.955,177.753,-28.927,-6.44,-13.367,27.64,0.13193,0.57254,-0.17191,0.79065,807.0,0.773,-0.005,0.642,0.0,0.0,0.0,-0.544,-50.372,-109.468,-24.307,-5.013,-1.567,25.64,-0.52081,0.35001,0.24213,0.73996,811.0,0.59,0.039,0.801,0.061,0.0,0.061,2.845,-36.392,158.302,-17.22,-8.273,-27.12,28.81,0.16934,0.31119,-0.03497,0.93442,809.0,0.966,-0.092,0.193,0.305,0.061,0.0,-24.955,-77.366,-147.206,-31.8,-6.567,-4.66,29.41,0.08731,-0.6329,-0.01196,-0.7691,823
204,0.971,-0.124,0.29,-0.061,0.0,0.0,-22.928,-71.955,177.742,-28.927,-6.44,-13.367,27.64,0.13193,0.57254,-0.17191,0.79065,812.0,0.773,-0.005,0.642,0.0,-0.061,0.0,-0.544,-50.372,-109.473,-24.307,-5.013,-1.567,25.64,-0.52081,0.35001,0.24213,0.73996,816.0,0.592,0.039,0.799,0.0,-0.061,0.061,2.845,-36.398,158.324,-17.22,-8.273,-27.12,28.81,0.16934,0.31119,-0.03497,0.93442,814.0,0.966,-0.092,0.192,0.183,0.122,0.0,-24.95,-77.36,-147.233,-31.8,-6.567,-4.66,29.41,0.08731,-0.6329,-0.01196,-0.7691,830
205,0.972,-0.124,0.29,0.0,0.0,0.0,-22.928,-71.955,177.737,-28.927,-6.44,-13.367,27.64,0.13193,0.57254,-0.17191,0.79065,813.0,0.774,-0.002,0.642,-0.122,-0.122,0.0,-0.544,-50.372,-109.473,-24.307,-5.013,-1.567,25.64,-0.52081,0.35001,0.24213,0.73996,817.0,0.591,0.038,0.799,0.0,0.0,0.0,2.845,-36.398,158.357,-17.22,-8.273,-27.12,28.81,0.16934,0.31119,-0.03497,0.93442,815.0,0.964,-0.09,0.194,0.061,0.183,0.0,-24.95,-77.36,-147.266,-31.8,-6.567,-4.66,29.41,0.08731,-0.6329,-0.01196,-0.7691,831
206,0.972,-0.124,0.291,0.0,0.0,0.0,-22.928,-71.955,177.726,-28.927,-6.44,-13.367,27.64,0.13193,0.57254,-0.17191,0.79065,818.0,0.773,-0.001,0.642,-0.061,-0.122,0.0,-0.544,-50.372,-109.479,-24.307,-5.013,-1.567,25.64,-0.52081,0.35001,0.24213,0.73996,826.0,0.593,0.042,0.8,0.0,0.122,-0.061,2.845,-36.398,158.395,-17.22,-8.273,-27.12,28.81,0.16934,0.31119,-0.03497,0.93442,824.0,0.963,-0.091,0.194,0.122,0.183,0.0,-24.944,-77.36,-147.294,-31.8,-6.567,-4.66,29.41,0.08731,-0.6329,-0.01196,-0.7691,832
207,0.971,-0.123,0.292,0.061,0.0,0.0,-22.928,-71.955,177.72,-28.927,-6.44,-13.367,27.64,0.13193,0.57254,-0.17191,0.79065,819.0,0.774,-0.002,0.643,-0.183,-0.061,0.0,-0.544,-50.378,-109.479,-24.307,-5.013,-1.567,25.64,-0.52081,0.35001,0.24213,0.73996,827.0,0.592,0.042,0.801,-0.061,0.061,-0.061,2.845,-36.398,158.434,-17.22,-8.273,-27.12,28.81,0.16934,0.31119,-0.03497,0.93442,825.0,0.961,-0.092,0.193,0.061,0.122,0.0,-24.944,-77.355,-147.321,-31.8,-6.567,-4.66,29.41,0.08731,-0.6329,-0.01196,-0.7691,833
208,0.972,-0.123,0.293,0.061,0.0,0.0,-22.928,-71.955,177.715,-28.927,-6.44,-13.367,27.64,0.13193,0.57254,-0.17191,0.79065,828.0,0.773,-0.005,0.644,-0.061,0.0,0.0,-0.544,-50.378,-109.484,-24.307,-5.013,-1.567,25.64,-0.52081,0.35001,0.24213,0.73996,836.0,0.592,0.041,0.801,0.183,0.0,0.0,2.845,-36.398,158.467,-17.22,-8.273,-27.12,28.81,0.16934,0.31119,-0.03497,0.93442,834.0,0.962,-0.092,0.192,0.0,0.061,0.0,-24.944,-77.355,-147.349,-31.8,-6.567,-4.66,29.41,0.08731,-0.6329,-0.01196,-0.7691,840
209,0.972,-0.124,0.294,0.0,0.0,0.0,-22.928,-71.955,177.704,-28.927,-6.44,-13.367,27.64,0.13193,0.57254,-0.17191,0.79065,829.0,0.772,-0.006,0.643,0.0,0.0,0.0,-0.544,-50.372,-109.49,-24.307,-5.013,-1.567,25.64,-0.52081,0.35001,0.24213,0.73996,837.0,0.59,0.036,0.799,0.366,0.061,0.0,2.851,-36.398,158.505,-17.22,-8.273,-27.12,28.81,0.16934,0.31119,-0.03497,0.93442,835.0,0.962,-0.092,0.193,0.0,0.061,0.0,-24.95,-77.355,-147.371,-31.8,-6.567,-4.66,29.41,0.08731,-0.6329,-0.01196,-0.7691,841
210,0.971,-0.123,0.292,0.0,0.0,0.0,-22.928,-71.955,177.698,-28.507,-6.653,-13.433,27.64,0.13193,0.57254,-0.17191,0.79065,838.0,0.771,-0.008,0.642,0.061,0.0,0.0,-0.538,-50.372,-109.49,-24.307,-5.013,-1.567,25.64,-0.52081,0.35001,0.24213,0.73996,846.0,0.589,0.035,0.8,0.122,0.061,-0.061,2.856,-36.398,158.538,-16.887,-8.027,-27.427,28.81,0.16934,0.31119,-0.03497,0.93442,844.0,0.963,-0.091,0.193,0.122,0.122,0.0,-24.944,-77.355,-147.398,-31.8,-6.567,-4.66,29.41,0.08731,-0.6329,-0.01196,-0.7691,842
211,0.97,-0.123,0.292,-0.122,0.0,0.0,-22.928,-71.955,177.693,-28.507,-6.653,-13.433,27.64,0.13193,0.57254,-0.17191,0.79065,839.0,0.771,-0.005,0.643,-0.061,-0.061,0.0,-0.538,-50.372,-109.495,-24.307,-5.013,-1.567,25.64,-0.52081,0.35001,0.24213,0.73996,847.0,0.589,0.039,0.8,-0.244,0.122,-0.122,2.856,-36.392,158.577,-16.887,-8.027,-27.427,28.81,0.16934,0.31119,-0.03497,0.93442,845.0,0.964,-0.09,0.193,0.244,0.061,0.0,-24.944,-77.355,-147.426,-31.8,-6.567,-4.66,29.41,0.08731,-0.6329,-0.01196,-0.7691,843
212,0.97,-0.123,0.292,-0.122,0.061,0.0,-22.928,-71.949,177.682,-28.507,-6.653,-13.433,27.64,0.13193,0.57254,-0.17191,0.79065,848.0,0.772,-0.002,0.643,-0.183,0.0,0.0,-0.538,-50.372,-109.495,-24.307,-5.013,-1.567,25.64,-0.52081,0.35001,0.24213,0.73996,854.0,0.59,0.042,0.801,-0.183,0.122,0.0,2.856,-36.392,158.61,-16.887,-8.027,-27.427,28.81,0.16934,0.31119,-0.03497,0.93442,852.0,0.965,-0.091,0.196,0.122,0.061,0.0,-24.944,-77.355,-147.448,-31.8,-6.567,-4.66,29.41,0.08731,-0.6329,-0.01196,-0.7691,850
213,0.971,-0.123,0.292,-0.122,0.0,0.0,-22.928,-71.949,177.676,-28.507,-6.653,-13.433,27.64,0.13193,0.57254,-0.17191,0.79065,849.0,0.773,-0.003,0.643,-0.061,-0.183,0.0,-0.544,-50.372,-109.501,-24.307,-5.013,-1.567,25.64,-0.52081,0.35001,0.24213,0.73996,855.0,0.592,0.042,0.802,0.0,0.122,0.0,2.851,-36.392,158.643,-16.887,-8.027,-27.427,28.81,0.16934,0.31119,-0.03497,0.93442,853.0,0.964,-0.092,0.196,0.0,0.061,0.0,-24.944,-77.355,-147.469,-31.8,-6.567,-4.66,29.41,0.08731,-0.6329,-0.01196,-0.7691,851
214,0.971,-0.123,0.293,0.0,0.0,0.0,-22.928,-71.949,177.671,-28.507,-6.653,-13.433,27.64,0.13281,0.57233,-0.17252,0.79053,856.0,0.774,-0.004,0.643,0.183,-0.122,0.0,-0.538,-50.372,-109.501,-24.7,-5.52,-1.58,25.64,-0.52081,0.35001,0.24213,0.73996,862.0,0.593,0.041,0.8,0.183,-0.061,0.0,2.851,-36.387,158.676,-16.887,-8.027,-27.427,28.81,0.16843,0.31113,-0.03461,0.93463,860.0,0.963,-0.092,0.194,0.0,0.061,0.0,-24.944,-77.355,-147.497,-31.7,-6.473,-5.427,29.41,0.08731,-0.6329,-0.01196,-0.7691,858
215,0.971,-0.123,0.292,0.061,0.0,0.0,-22.928,-71.949,177.66,-28.507,-6.653,-13.433,27.64,0.13281,0.57233,-0.17252,0.79053,857.0,0.774,-0.005,0.642,0.427,-0.122,0.0,-0.533,-50.372,-109.506,-24.7,-5.52,-1.58,25.64,-0.52081,0.35001,0.24213,0.73996,863.0,0.594,0.04,0.799,0.427,-0.061,0.0,2.856,-36.392,158.708,-16.887,-8.027,-27.427,28.81,0.16843,0.31113,-0.03461,0.93463,861.0,0.961,-0.092,0.195,-0.244,0.122,0.0,-24.95,-77.355,-147.519,-31.7,-6.473,-5.427,29.41,0.08731,-0.6329,-0.01196,-0.7691,859
216,0.972,-0.124,0.291,0.0,0.0,0.0,-22.928,-71.949,177.654,-28.507,-6.653,-13.433,27.64,0.13281,0.57233,-0.17252,0.79053,864.0,0.775,-0.006,0.641,0.549,0.0,0.366,-0.527,-50.372,-109.506,-24.7,-5.52,-1.58,25.64,-0.52081,0.35001,0.24213,0.73996,874.0,0.592,0.039,0.798,0.549,0.061,0.488,2.867,-36.392,158.747,-16.887,-8.027,-27.427,28.81,0.16843,0.31113,-0.03461,0.93463,870.0,0.962,-0.092,0.195,-0.183,0.122,0.0,-24.95,-77.349,-147.546,-31.7,-6.473,-5.427,29.41,0.08731,-0.6329,-0.01196,-0.7691,866
217,0.972,-0.124,0.291,0.061,-0.061,0.0,-22.928,-71.949,177.649,-28.507,-6.653,-13.433,27.64,0.13281,0.57233,-0.17252,0.79053,865.0,0.774,-0.004,0.643,0.488,0.0,0.183,-0.522,-50.372,-109.495,-24.7,-5.52,-1.58,25.64,-0.52081,0.35001,0.24213,0.73996,875.0,0.593,0.038,0.801,0.244,0.122,0.305,2.867,-36.392,158.791,-16.887,-8.027,-27.427,28.81,0.16843,0.31113,-0.03461,0.93463,871.0,0.963,-0.091,0.195,-0.061,0.122,0.0,-24.955,-77.349,-147.568,-31.7,-6.473,-5.427,29.41,0.08731,-0.6329,-0.01196,-0.7691,867
218,0.973,-0.124,0.291,0.0,-0.061,0.0,-22.928,-71.949,177.643,-28.507,-6.653,-13.433,27.64,0.13281,0.57233,-0.17252,0.79053,872.0,0.772,-0.002,0.643,0.183,-0.183,0.061,-0.516,-50.372,-109.495,-24.7,-5.52,-1.58,25.64,-0.52066,0.34991,0.24222,0.74008,880.0,0.59,0.042,0.803,0.305,0.061,0.122,2.867,-36.392,158.829,-16.887,-8.027,-27.427,28.81,0.16843,0.31113,-0.03461,0.93463,878.0,0.965,-0.092,0.195,0.061,0.061,0.0,-24.955,-77.349,-147.596,-31.7,-6.473,-5.427,29.41,0.08731,-0.6329,-0.01196,-0.7691,868
219,0.973,-0.124,0.291,0.122,0.0,0.0,-22.928,-71.949,177.638,-28.507,-6.653,-13.433,27.64,0.13281,0.57233,-0.17252,0.79053,873.0,0.771,-0.003,0.642,0.366,-0.183,0.244,-0.511,-50.372,-109.495,-24.7,-5.52,-1.58,25.64,-0.52066,0.34991,0.24222,0.74008,881.0,0.589,0.041,0.799,0.488,-0.061,0.244,2.873,-36.392,158.868,-16.887,-8.027,-27.427,28.81,0.16843,0.31113,-0.03461,0.93463,879.0,0.965,-0.094,0.194,0.183,0.0,0.0,-24.955,-77.349,-147.618,-31.7,-6.473,-5.427,29.41,0.08731,-0.6329,-0.01196,-0.7691,869
220,0.972,-0.123,0.292,0.305,0.061,0.0,-22.923,-71.949,177.632,-28.507,-6.653,-13.433,27.64,0.13281,0.57233,-0.17252,0.79053,882.0,0.775,0.0,0.64,0.0,0.0,0.0,-0.511,-50.378,-109.49,-24.7,-5.52,-1.58,25.64,-0.52066,0.34991,0.24222,0.74008,888.0,0.593,0.041,0.796,-0.244,0.122,0.0,2.878,-36.392,158.901,-16.887,-8.027,-27.427,28.81,0.16843,0.31113,-0.03461,0.93463,886.0,0.964,-0.094,0.194,0.366,-0.061,0.0,-24.955,-77.349,-147.634,-31.7,-6.473,-5.427,29.41,0.08731,-0.6329,-0.01196,-0.7691,876
221,0.97,-0.123,0.29,0.427,0.122,0.0,-22.912,-71.949,177.621,-28.507,-6.653,-13.433,27.64,0.13281,0.57233,-0.17252,0.79053,883.0,0.777,0.0,0.642,-0.305,0.0,-0.122,-0.505,-50.378,-109.495,-24.7,-5.52,-1.58,25.64,-0.52066,0.34991,0.24222,0.74008,889.0,0.596,0.045,0.797,-0.488,0.244,-0.244,2.873,-36.387,158.934,-16.887,-8.027,-27.427,28.81,0.16843,0.31113,-0.03461,0.93463,887.0,0.965,-0.093,0.193,0.366,0.0,0.0,-24.955,-77.349,-147.656,-31.7,-6.473,-5.427,29.41,0.08731,-0.6329,-0.01196,-0.7691,877
222,0.971,-0.122,0.291,0.122,0.061,0.0,-22.906,-71.944,177.616,-28.507,-6.653,-13.433,27.64,0.13281,0.57233,-0.17252,0.79053,890.0,0.772,-0.004,0.643,0.183,0.061,0.0,-0.505,-50.372,-109.501,-24.7,-5.52,-1.58,25.64,-0.52066,0.34991,0.24222,0.74008,898.0,0.59,0.043,0.802,0.671,0.244,-0.061,2.873,-36.387,158.961,-16.887,-8.027,-27.427,28.81,0.16843,0.31113,-0.03461,0.93463,892.0,0.964,-0.09,0.193,0.427,0.061,0.0,-24.95,-77.349,-147.673,-31.7,-6.473,-5.427,29.41,0.08258,-0.63297,-0.00787,-0.76965,884
223,0.972,-0.121,0.292,0.0,-0.061,0.0,-22.906,-71.949,177.61,-28.507,-6.653,-13.433,27.64,0.13281,0.57233,-0.17252,0.79053,891.0,0.769,-0.007,0.646,0.0,-0.061,0.0,-0.5,-50.372,-109.501,-24.7,-5.52,-1.58,25.64,-0.52066,0.34991,0.24222,0.74008,899.0,0.587,0.036,0.804,0.549,0.244,0.0,2.884,-36.381,158.989,-16.887,-8.027,-27.427,28.81,0.16843,0.31113,-0.03461,0.93463,893.0,0.962,-0.09,0.194,0.61,0.061,0.0,-24.944,-77.349,-147.695,-31.7,-6.473,-5.427,29.41,0.08258,-0.63297,-0.00787,-0.76965,885
224,0.972,-0.123,0.292,-0.122,0.122,0.0,-22.906,-71.944,177.599,-28.507,-6.653,-13.433,27.64,0.13281,0.57233,-0.17252,0.79053,894.0,0.769,-0.007,0.645,-0.427,0.0,-0.061,-0.5,-50.372,-109.506,-24.7,-5.52,-1.58,25.64,-0.52066,0.34991,0.24222,0.74008,908.0,0.586,0.036,0.804,-0.427,0.122,-0.122,2.889,-36.376,159.022,-16.887,-8.027,-27.427,28.81,0.16843,0.31113,-0.03461,0.93463,902.0,0.962,-0.091,0.193,0.305,0.061,0.0,-24.939,-77.349,-147.717,-31.7,-6.473,-5.427,29.41,0.08258,-0.63297,-0.00787,-0.76965,896
225,0.97,-0.124,0.293,-0.244,0.183,0.0,-22.906,-71.944,177.589,-28.507,-6.653,-13.433,27.64,0.13281,0.57233,-0.17252,0.79053,895.0,0.769,-0.006,0.643,-0.061,-0.122,-0.183,-0.505,-50.372,-109.512,-24.7,-5.52,-1.58,25.64,-0.52066,0.34991,0.24222,0.74008,909.0,0.586,0.039,0.801,-0.244,-0.122,-0.061,2.884,-36.376,159.049,-16.887,-8.027,-27.427,28.81,0.16843,0.31113,-0.03461,0.93463,903.0,0.965,-0.089,0.196,-0.122,0.122,0.0,-24.933,-77.349,-147.739,-31.7,-6.473,-5.427,29.41,0.08258,-0.63297,-0.00787,-0.76965,897
226,0.968,-0.123,0.294,-0.122,-0.122,0.0,-22.912,-71.944,177.583,-28.507,-6.653,-13.433,27.64,0.13281,0.57233,-0.17252,0.79053,904.0,0.772,-0.004,0.644,0.0,-0.183,-0.183,-0.5,-50.372,-109.517,-24.7,-5.52,-1.58,25.64,-0.52066,0.34991,0.24222,0.74008,910.0,0.589,0.04,0.801,0.0,-0.244,-0.061,2.884,-36.381,159.077,-16.887,-8.027,-27.427,28.81,0.16843,0.31113,-0.03461,0.93463,906.0,0.965,-0.089,0.194,-0.122,0.122,0.0,-24.933,-77.344,-147.761,-31.7,-6.473,-5.427,29.41,0.08258,-0.63297,-0.00787,-0.76965,900
227,0.968,-0.123,0.292,-0.061,-0.061,0.0,-22.912,-71.944,177.583,-28.507,-6.653,-13.433,27.64,0.13281,0.57233,-0.17252,0.79053,905.0,0.774,-0.005,0.643,0.0,-0.366,-0.061,-0.494,-50.372,-109.523,-24.7,-5.52,-1.58,25.64,-0.52066,0.34991,0.24222,0.74008,911.0,0.592,0.042,0.801,-0.061,-0.244,-0.061,2.884,-36.381,159.104,-16.887,-8.027,-27.427,28.81,0.16843,0.31113,-0.03461,0.93463,907.0,0.963,-0.093,0.194,-0.183,0.122,0.0,-24.933,-77.344,-147.783,-31.7,-6.473,-5.427,29.41,0.08258,-0.63297,-0.00787,-0.76965,901
228,0.971,-0.123,0.292,-0.122,-0.122,0.0,-22.917,-71.944,177.578,-28.84,-6.307,-12.627,27.64,0.13281,0.57233,-0.17252,0.79053,912.0,0.773,-0.005,0.642,0.0,-0.366,0.061,-0.494,-50.378,-109.528,-24.7,-5.52,-1.58,25.64,-0.52066,0.34991,0.24222,0.74008,920.0,0.591,0.04,0.8,0.0,-0.061,0.061,2.884,-36.387,159.131,-16.927,-8.34,-27.573,28.81,0.16843,0.31113,-0.03461,0.93463,918.0,0.961,-0.094,0.196,-0.183,0.183,0.0,-24.939,-77.344,-147.81,-31.7,-6.473,-5.427,29.41,0.08258,-0.63297,-0.00787,-0.76965,914
229,0.973,-0.124,0.292,-0.305,-0.122,0.0,-22.923,-71.949,177.578,-28.84,-6.307,-12.627,27.64,0.13281,0.57233,-0.17252,0.79053,913.0,0.773,-0.004,0.645,-0.061,-0.305,0.122,-0.494,-50.383,-109.528,-24.7,-5.52,-1.58,25.64,-0.52066,0.34991,0.24222,0.74008,921.0,0.591,0.04,0.803,-0.244,0.0,0.061,2.878,-36.387,159.159,-16.927,-8.34,-27.573,28.81,0.16843,0.31113,-0.03461,0.93463,919.0,0.959,-0.092,0.197,-0.244,0.305,0.0,-24.939,-77.338,-147.832,-31.7,-6.473,-5.427,29.41,0.08258,-0.63297,-0.00787,-0.76965,915
230,0.972,-0.125,0.293,-0.305,-0.122,0.0,-22.934,-71.949,177.572,-28.84,-6.307,-12.627,27.64,0.13281,0.57233,-0.17252,0.79053,916.0,0.773,-0.003,0.642,0.122,-0.183,0.244,-0.5,-50.389,-109.528,-24.7,-5.52,-1.58,25.64,-0.52066,0.34991,0.24222,0.74008,928.0,0.592,0.042,0.801,0.061,-0.122,0.122,2.873,-36.387,159.192,-16.927,-8.34,-27.573,28.81,0.1637,0.31131,-0.03287,0.93549,926.0,0.96,-0.09,0.197,-0.427,0.244,0.0,-24.933,-77.338,-147.859,-31.7,-6.473,-5.427,29.41,0.08258,-0.63297,-0.00787,-0.76965,922
231,0.971,-0.125,0.292,0.0,-0.244,0.0,-22.939,-71.955,177.572,-28.84,-6.307,-12.627,27.64,0.13281,0.57233,-0.17252,0.79053,917.0,0.773,-0.006,0.641,0.488,-0.183,0.183,-0.5,-50.389,-109.523,-24.7,-5.52,-1.58,25.64,-0.52066,0.34991,0.24222,0.74008,929.0,0.591,0.037,0.798,0.427,-0.183,0.244,2.873,-36.387,159.225,-16.927,-8.34,-27.573,28.81,0.1637,0.31131,-0.03287,0.93549,927.0,0.962,-0.091,0.196,-0.61,0.0,0.0,-24.939,-77.333,-147.887,-31.7,-6.473,-5.427,29.41,0.08258,-0.63297,-0.00787,-0.76965,923
232,0.971,-0.125,0.293,0.244,-0.183,0.0,-22.939,-71.955,177.572,-28.84,-6.307,-12.627,27.64,0.13358,0.57217,-0.17307,0.79041,930.0,0.775,-0.003,0.642,-0.061,-0.061,0.0,-0.494,-50.389,-109.517,-24.5,-5.187,-1.233,25.64,-0.52066,0.34991,0.24222,0.74008,934.0,0.593,0.041,0.799,-0.061,-0.183,0.061,2.878,-36.392,159.258,-16.927,-8.34,-27.573,28.81,0.1637,0.31131,-0.03287,0.93549,932.0,0.965,-0.094,0.197,-0.305,0.0,0.0,-24.955,-77.333,-147.903,-31.7,-6.473,-5.427,29.41,0.08258,-0.63297,-0.00787,-0.76965,924
233,0.971,-0.123,0.292,0.183,-0.183,0.0,-22.939,-71.96,177.572,-28.84,-6.307,-12.627,27.64,0.13358,0.57217,-0.17307,0.79041,931.0,0.774,0.0,0.641,0.0,-0.122,0.061,-0.494,-50.389,-109.523,-24.5,-5.187,-1.233,25.64,-0.52066,0.34991,0.24222,0.74008,935.0,0.592,0.045,0.8,-0.061,0.244,0.0,2.878,-36.392,159.285,-16.927,-8.34,-27.573,28.81,0.1637,0.31131,-0.03287,0.93549,933.0,0.964,-0.095,0.196,-0.061,-0.183,0.0,-24.961,-77.333,-147.92,-31.7,-6.473,-5.427,29.41,0.08258,-0.63297,-0.00787,-0.76965,925
