Index,L5_Acceleration X(g),L5_Acceleration Y(g),L5_Acceleration Z(g),L5_Angular velocity X(°/s),L5_Angular velocity Y(°/s),L5_Angular velocity Z(°/s),L5_Angle X(°),L5_Angle Y(°),L5_Angle Z(°),L5_Magnetic field X(ʯt),L5_Magnetic field Y(ʯt),L5_Magnetic field Z(ʯt),L5_Temperature(℃),L5_Quaternions 0(),L5_Quaternions 1(),L5_Quaternions 2(),L5_Quaternions 3(),L5___orig_idx,T4_Acceleration X(g),T4_Acceleration Y(g),T4_Acceleration Z(g),T4_Angular velocity X(°/s),T4_Angular velocity Y(°/s),T4_Angular velocity Z(°/s),T4_Angle X(°),T4_Angle Y(°),T4_Angle Z(°),T4_Magnetic field X(ʯt),T4_Magnetic field Y(ʯt),T4_Magnetic field Z(ʯt),T4_Temperature(℃),T4_Quaternions 0(),T4_Quaternions 1(),T4_Quaternions 2(),T4_Quaternions 3(),T4___orig_idx,C7_Acceleration X(g),C7_Acceleration Y(g),C7_Acceleration Z(g),C7_Angular velocity X(°/s),C7_Angular velocity Y(°/s),C7_Angular velocity Z(°/s),C7_Angle X(°),C7_Angle Y(°),C7_Angle Z(°),C7_Magnetic field X(ʯt),C7_Magnetic field Y(ʯt),C7_Magnetic field Z(ʯt),C7_Temperature(℃),C7_Quaternions 0(),C7_Quaternions 1(),C7_Quaternions 2(),C7_Quaternions 3(),C7___orig_idx,T12_Acceleration X(g),T12_Acceleration Y(g),T12_Acceleration Z(g),T12_Angular velocity X(°/s),T12_Angular velocity Y(°/s),T12_Angular velocity Z(°/s),T12_Angle X(°),T12_Angle Y(°),T12_Angle Z(°),T12_Magnetic field X(ʯt),T12_Magnetic field Y(ʯt),T12_Magnetic field Z(ʯt),T12_Temperature(℃),T12_Quaternions 0(),T12_Quaternions 1(),T12_Quaternions 2(),T12_Quaternions 3(),T12___orig_idx
0,0.966,-0.083,0.322,0.366,0.305,0.0,-14.183,-70.714,179.423,-25.007,-10.213,-11.9,28.48,-0.07565,-0.57388,0.1037,-0.80875,4,0.751,-0.052,0.675,0.0,0.244,0.61,-4.872,-48.439,-118.916,-23.36,-8.207,-1.687,26.23,-0.44772,0.37305,0.17502,0.79349,0,0.604,-0.03,0.797,-0.61,0.122,0.122,-2.653,-38.029,158.967,-15.82,-9.767,-26.7,29.9,0.18256,0.31845,-0.08286,0.92645,20,0.962,0.009,0.201,1.099,1.709,0.061,2.856,-77.245,-167.272,-28.333,-12.12,-2.587,31.37,0.10373,-0.61752,-0.09015,-0.77438,8
1,0.963,-0.078,0.326,0.366,0.0,0.0,-14.178,-70.719,179.418,-25.007,-10.213,-11.9,28.48,-0.07565,-0.57388,0.1037,-0.80875,5,0.739,-0.053,0.678,0.122,0.0,0.488,-4.883,-48.433,-118.911,-23.36,-8.207,-1.687,26.23,-0.44772,0.37305,0.17502,0.79349,1,0.597,-0.038,0.8,-0.061,-1.038,0.244,-2.659,-38.046,158.967,-15.82,-9.767,-26.7,29.9,0.18256,0.31845,-0.08286,0.92645,21,0.96,0.007,0.208,1.099,1.831,0.183,2.851,-77.217,-167.267,-28.333,-12.12,-2.587,31.37,0.10373,-0.61752,-0.09015,-0.77438,9
2,0.966,-0.078,0.332,0.488,-0.427,0.366,-14.194,-70.724,179.412,-25.007,-10.213,-11.9,28.48,-0.07565,-0.57388,0.1037,-0.80875,6,0.751,-0.061,0.678,0.488,-0.488,0.488,-4.883,-48.439,-118.894,-23.36,-8.207,-1.687,26.23,-0.44772,0.37305,0.17502,0.79349,2,0.604,-0.041,0.793,0.549,-0.977,0.488,-2.659,-38.062,158.961,-15.82,-9.767,-26.7,29.9,0.18256,0.31845,-0.08286,0.92645,22,0.962,0.006,0.21,0.854,1.526,0.0,2.851,-77.19,-167.267,-28.333,-12.12,-2.587,31.37,0.10373,-0.61752,-0.09015,-0.77438,10
3,0.963,-0.078,0.326,0.366,0.0,0.0,-14.178,-70.719,179.418,-25.007,-10.213,-11.9,28.48,-0.07565,-0.57388,0.1037,-0.80875,7,0.739,-0.053,0.678,0.122,0.0,0.488,-4.883,-48.433,-118.911,-23.36,-8.207,-1.687,26.23,-0.44772,0.37305,0.17502,0.79349,3,0.597,-0.038,0.8,-0.061,-1.038,0.244,-2.659,-38.046,158.967,-15.82,-9.767,-26.7,29.9,0.18256,0.31845,-0.08286,0.92645,23,0.96,0.007,0.208,1.099,1.831,0.183,2.851,-77.217,-167.267,-28.333,-12.12,-2.587,31.37,0.10373,-0.61752,-0.09015,-0.77438,11
4,0.962,-0.078,0.332,0.488,-0.427,0.366,-14.194,-70.724,179.412,-25.007,-10.213,-11.9,28.48,-0.07565,-0.57388,0.1037,-0.80875,16,0.743,-0.061,0.678,0.488,-0.488,0.488,-4.883,-48.439,-118.894,-23.0,-8.133,-1.227,26.23,-0.44772,0.37305,0.17502,0.79349,12,0.61,-0.041,0.793,0.549,-0.977,0.488,-2.659,-38.062,158.961,-15.82,-9.767,-26.7,29.9,0.18256,0.31845,-0.08286,0.92645,24,0.964,0.006,0.21,0.854,1.526,0.0,2.851,-77.19,-167.267,-28.333,-12.12,-2.587,31.37,0.10202,-0.61783,-0.08847,-0.77457,28
5,0.958,-0.078,0.332,0.61,-0.305,0.427,-14.211,-70.73,179.429,-25.007,-10.213,-11.9,28.48,-0.07565,-0.57388,0.1037,-0.80875,17,0.75,-0.058,0.668,0.61,-0.793,0.427,-4.883,-48.45,-118.878,-23.0,-8.133,-1.227,26.23,-0.44772,0.37305,0.17502,0.79349,13,0.613,-0.038,0.781,0.244,-1.099,0.061,-2.653,-38.079,158.956,-15.82,-9.767,-26.7,29.9,0.18256,0.31845,-0.08286,0.92645,25,0.965,0.01,0.218,0.488,0.916,0.183,2.84,-77.173,-167.245,-28.333,-12.12,-2.587,31.37,0.10202,-0.61783,-0.08847,-0.77457,29
6,0.962,-0.08,0.337,0.305,-0.305,0.244,-14.216,-70.735,179.434,-25.007,-10.213,-11.9,28.48,-0.07565,-0.57388,0.1037,-0.80875,18,0.743,-0.058,0.661,0.549,-0.732,0.427,-4.883,-48.461,-118.867,-23.0,-8.133,-1.227,26.23,-0.44772,0.37305,0.17502,0.79349,14,0.61,-0.04,0.77,0.122,-0.671,0.061,-2.653,-38.09,158.956,-15.82,-9.767,-26.7,29.9,0.18256,0.31845,-0.08286,0.92645,26,0.964,0.013,0.221,0.427,0.0,0.427,2.807,-77.173,-167.212,-28.333,-12.12,-2.587,31.37,0.10202,-0.61783,-0.08847,-0.77457,30
7,0.958,-0.078,0.332,0.61,-0.305,0.427,-14.211,-70.73,179.429,-25.007,-10.213,-11.9,28.48,-0.07565,-0.57388,0.1037,-0.80875,19,0.75,-0.058,0.668,0.61,-0.793,0.427,-4.883,-48.45,-118.878,-23.0,-8.133,-1.227,26.23,-0.44772,0.37305,0.17502,0.79349,15,0.613,-0.038,0.781,0.244,-1.099,0.061,-2.653,-38.079,158.956,-15.82,-9.767,-26.7,29.9,0.18256,0.31845,-0.08286,0.92645,27,0.965,0.01,0.218,0.488,0.916,0.183,2.84,-77.173,-167.245,-28.333,-12.12,-2.587,31.37,0.10202,-0.61783,-0.08847,-0.77457,31
8,0.957,-0.08,0.337,0.305,-0.305,0.244,-14.216,-70.735,179.434,-25.007,-10.213,-11.9,28.48,-0.07565,-0.57388,0.1037,-0.80875,40,0.751,-0.058,0.661,0.549,-0.732,0.427,-4.883,-48.461,-118.867,-23.0,-8.133,-1.227,26.23,-0.44772,0.37305,0.17502,0.79349,36,0.617,-0.04,0.77,0.122,-0.671,0.061,-2.653,-38.09,158.956,-15.82,-9.767,-26.7,29.9,0.17993,0.31644,-0.08105,0.9278,44,0.961,0.013,0.221,0.427,0.0,0.427,2.807,-77.173,-167.212,-28.333,-12.12,-2.587,31.37,0.10202,-0.61783,-0.08847,-0.77457,32
9,0.958,-0.08,0.335,0.183,-0.305,0.061,-14.216,-70.741,179.434,-25.007,-10.213,-11.9,28.48,-0.07565,-0.57388,0.1037,-0.80875,41,0.754,-0.06,0.651,0.305,-0.061,0.183,-4.883,-48.461,-118.867,-23.0,-8.133,-1.227,26.23,-0.44772,0.37305,0.17502,0.79349,37,0.616,-0.04,0.765,-0.122,0.793,0.0,-2.659,-38.079,158.956,-15.82,-9.767,-26.7,29.9,0.17993,0.31644,-0.08105,0.9278,45,0.959,0.012,0.225,0.549,-0.366,0.244,2.791,-77.179,-167.195,-28.333,-12.12,-2.587,31.37,0.10202,-0.61783,-0.08847,-0.77457,33
10,0.957,-0.08,0.332,0.0,-0.183,0.0,-14.211,-70.741,179.429,-25.007,-10.213,-11.9,28.48,-0.07565,-0.57388,0.1037,-0.80875,42,0.751,-0.06,0.65,0.122,0.488,0.061,-4.883,-48.455,-118.878,-23.0,-8.133,-1.227,26.23,-0.44772,0.37305,0.17502,0.79349,38,0.617,-0.04,0.773,-0.183,1.404,-0.061,-2.659,-38.057,158.939,-15.82,-9.767,-26.7,29.9,0.17993,0.31644,-0.08105,0.9278,46,0.961,0.012,0.22,0.793,-0.427,0.061,2.796,-77.19,-167.201,-28.333,-12.12,-2.587,31.37,0.10202,-0.61783,-0.08847,-0.77457,34
11,0.958,-0.08,0.335,0.183,-0.305,0.061,-14.216,-70.741,179.434,-25.007,-10.213,-11.9,28.48,-0.07565,-0.57388,0.1037,-0.80875,43,0.754,-0.06,0.651,0.305,-0.061,0.183,-4.883,-48.461,-118.867,-23.0,-8.133,-1.227,26.23,-0.44772,0.37305,0.17502,0.79349,39,0.616,-0.04,0.765,-0.122,0.793,0.0,-2.659,-38.079,158.956,-15.82,-9.767,-26.7,29.9,0.17993,0.31644,-0.08105,0.9278,47,0.959,0.012,0.225,0.549,-0.366,0.244,2.791,-77.179,-167.195,-28.333,-12.12,-2.587,31.37,0.10202,-0.61783,-0.08847,-0.77457,35
12,0.961,-0.08,0.332,0.0,-0.183,0.0,-14.211,-70.741,179.429,-24.833,-10.467,-11.92,28.48,-0.07565,-0.57388,0.1037,-0.80875,76,0.749,-0.06,0.65,0.122,0.488,0.061,-4.883,-48.455,-118.878,-23.0,-8.133,-1.227,26.23,-0.44818,0.37283,0.17502,0.79333,56,0.606,-0.04,0.773,-0.183,1.404,-0.061,-2.659,-38.057,158.939,-15.82,-9.767,-26.7,29.9,0.17993,0.31644,-0.08105,0.9278,60,0.96,0.012,0.22,0.793,-0.427,0.061,2.796,-77.19,-167.201,-28.333,-12.12,-2.587,31.37,0.10202,-0.61783,-0.08847,-0.77457,48
13,0.965,-0.083,0.326,0.0,0.0,-0.061,-14.2,-70.741,179.418,-24.833,-10.467,-11.92,28.48,-0.07565,-0.57388,0.1037,-0.80875,77,0.745,-0.062,0.66,0.0,0.671,-0.122,-4.883,-48.439,-118.894,-23.0,-8.133,-1.227,26.23,-0.44818,0.37283,0.17502,0.79333,57,0.609,-0.042,0.784,-0.061,1.221,-0.183,-2.659,-38.029,158.917,-15.82,-9.767,-26.7,29.9,0.17993,0.31644,-0.08105,0.9278,61,0.958,0.01,0.228,0.427,-0.305,0.0,2.807,-77.195,-167.212,-28.333,-12.12,-2.587,31.37,0.10202,-0.61783,-0.08847,-0.77457,49
14,0.961,-0.085,0.324,0.0,0.061,-0.061,-14.194,-70.741,179.407,-24.833,-10.467,-11.92,28.48,-0.07565,-0.57388,0.1037,-0.80875,78,0.749,-0.06,0.667,0.0,0.427,-0.244,-4.878,-48.433,-118.911,-23.0,-8.133,-1.227,26.23,-0.44818,0.37283,0.17502,0.79333,58,0.606,-0.037,0.788,-0.183,0.916,-0.488,-2.659,-38.013,158.895,-15.82,-9.767,-26.7,29.9,0.17993,0.31644,-0.08105,0.9278,62,0.96,0.009,0.224,0.305,-0.183,-0.061,2.818,-77.201,-167.217,-28.333,-12.12,-2.587,31.37,0.10202,-0.61783,-0.08847,-0.77457,50
15,0.965,-0.083,0.326,0.0,0.0,-0.061,-14.2,-70.741,179.418,-24.833,-10.467,-11.92,28.48,-0.07565,-0.57388,0.1037,-0.80875,79,0.745,-0.062,0.66,0.0,0.671,-0.122,-4.883,-48.439,-118.894,-23.0,-8.133,-1.227,26.23,-0.44818,0.37283,0.17502,0.79333,59,0.609,-0.042,0.784,-0.061,1.221,-0.183,-2.659,-38.029,158.917,-15.82,-9.767,-26.7,29.9,0.17993,0.31644,-0.08105,0.9278,63,0.958,0.01,0.228,0.427,-0.305,0.0,2.807,-77.195,-167.212,-28.333,-12.12,-2.587,31.37,0.10202,-0.61783,-0.08847,-0.77457,51
16,0.97,-0.085,0.324,0.0,0.061,-0.061,-14.194,-70.741,179.407,-24.833,-10.467,-11.92,28.48,-0.07565,-0.57388,0.1037,-0.80875,88,0.753,-0.06,0.667,0.0,0.427,-0.244,-4.878,-48.433,-118.911,-23.0,-8.133,-1.227,26.23,-0.44818,0.37283,0.17502,0.79333,72,0.616,-0.037,0.788,-0.183,0.916,-0.488,-2.659,-38.013,158.895,-15.82,-9.767,-26.7,29.9,0.17993,0.31644,-0.08105,0.9278,68,0.958,0.009,0.224,0.305,-0.183,-0.061,2.818,-77.201,-167.217,-28.333,-12.12,-2.587,31.37,0.10202,-0.61783,-0.08847,-0.77457,52
17,0.97,-0.086,0.322,0.122,0.061,-0.061,-14.189,-70.735,179.39,-24.833,-10.467,-11.92,28.48,-0.07565,-0.57388,0.1037,-0.80875,89,0.756,-0.059,0.667,0.0,0.061,-0.122,-4.878,-48.428,-118.927,-23.0,-8.133,-1.227,26.23,-0.44818,0.37283,0.17502,0.79333,73,0.616,-0.036,0.787,-0.488,0.427,-0.244,-2.664,-38.002,158.873,-15.82,-9.767,-26.7,29.9,0.17993,0.31644,-0.08105,0.9278,69,0.959,0.01,0.221,0.305,0.061,-0.244,2.84,-77.195,-167.234,-28.333,-12.12,-2.587,31.37,0.10202,-0.61783,-0.08847,-0.77457,53
18,0.97,-0.085,0.32,0.122,0.0,-0.061,-14.183,-70.735,179.368,-24.833,-10.467,-11.92,28.48,-0.07565,-0.57388,0.1037,-0.80875,90,0.753,-0.059,0.665,0.0,0.183,0.122,-4.878,-48.428,-118.932,-23.0,-8.133,-1.227,26.23,-0.44818,0.37283,0.17502,0.79333,74,0.616,-0.038,0.786,-0.671,0.366,-0.183,-2.675,-37.991,158.862,-15.82,-9.767,-26.7,29.9,0.17993,0.31644,-0.08105,0.9278,70,0.958,0.009,0.217,0.122,0.244,-0.305,2.862,-77.19,-167.261,-28.333,-12.12,-2.587,31.37,0.10202,-0.61783,-0.08847,-0.77457,54
19,0.97,-0.086,0.322,0.122,0.061,-0.061,-14.189,-70.735,179.39,-24.833,-10.467,-11.92,28.48,-0.07565,-0.57388,0.1037,-0.80875,91,0.756,-0.059,0.667,0.0,0.061,-0.122,-4.878,-48.428,-118.927,-23.0,-8.133,-1.227,26.23,-0.44818,0.37283,0.17502,0.79333,75,0.616,-0.036,0.787,-0.488,0.427,-0.244,-2.664,-38.002,158.873,-15.82,-9.767,-26.7,29.9,0.17993,0.31644,-0.08105,0.9278,71,0.959,0.01,0.221,0.305,0.061,-0.244,2.84,-77.195,-167.234,-28.333,-12.12,-2.587,31.37,0.10202,-0.61783,-0.08847,-0.77457,55
20,0.968,-0.085,0.32,0.122,0.0,-0.061,-14.183,-70.735,179.368,-24.833,-10.467,-11.92,28.48,-0.07574,-0.57385,0.10373,-0.80875,104,0.753,-0.059,0.665,0.0,0.183,0.122,-4.878,-48.428,-118.932,-23.0,-8.133,-1.227,26.23,-0.44818,0.37283,0.17502,0.79333,84,0.613,-0.038,0.786,-0.671,0.366,-0.183,-2.675,-37.991,158.862,-15.82,-9.767,-26.7,29.9,0.17993,0.31644,-0.08105,0.9278,92,0.961,0.009,0.217,0.122,0.244,-0.305,2.862,-77.19,-167.261,-28.333,-12.12,-2.587,31.37,0.10202,-0.61783,-0.08847,-0.77457,64
21,0.968,-0.084,0.321,0.0,0.0,-0.061,-14.178,-70.741,179.335,-24.833,-10.467,-11.92,28.48,-0.07574,-0.57385,0.10373,-0.80875,105,0.754,-0.058,0.667,0.061,0.0,0.183,-4.883,-48.422,-118.938,-23.0,-8.133,-1.227,26.23,-0.44818,0.37283,0.17502,0.79333,85,0.615,-0.038,0.789,-0.427,0.0,-0.305,-2.681,-37.991,158.868,-15.82,-9.767,-26.7,29.9,0.17993,0.31644,-0.08105,0.9278,93,0.966,0.006,0.216,0.122,0.427,-0.244,2.884,-77.179,-167.283,-28.333,-12.12,-2.587,31.37,0.10202,-0.61783,-0.08847,-0.77457,65
22,0.968,-0.083,0.322,0.0,-0.305,-0.061,-14.183,-70.746,179.308,-24.833,-10.467,-11.92,28.48,-0.07574,-0.57385,0.10373,-0.80875,106,0.753,-0.058,0.664,0.183,0.0,0.122,-4.889,-48.422,-118.932,-23.0,-8.133,-1.227,26.23,-0.44818,0.37283,0.17502,0.79333,86,0.613,-0.037,0.779,0.183,0.183,0.183,-2.681,-37.985,158.884,-15.82,-9.767,-26.7,29.9,0.17993,0.31644,-0.08105,0.9278,94,0.961,0.005,0.213,0.183,0.427,-0.183,2.889,-77.173,-167.278,-28.333,-12.12,-2.587,31.37,0.10202,-0.61783,-0.08847,-0.77457,66
23,0.968,-0.084,0.321,0.0,0.0,-0.061,-14.178,-70.741,179.335,-24.833,-10.467,-11.92,28.48,-0.07574,-0.57385,0.10373,-0.80875,107,0.754,-0.058,0.667,0.061,0.0,0.183,-4.883,-48.422,-118.938,-23.0,-8.133,-1.227,26.23,-0.44818,0.37283,0.17502,0.79333,87,0.615,-0.038,0.789,-0.427,0.0,-0.305,-2.681,-37.991,158.868,-15.82,-9.767,-26.7,29.9,0.17993,0.31644,-0.08105,0.9278,95,0.966,0.006,0.216,0.122,0.427,-0.244,2.884,-77.179,-167.283,-28.333,-12.12,-2.587,31.37,0.10202,-0.61783,-0.08847,-0.77457,67
24,0.967,-0.083,0.322,0.0,-0.305,-0.061,-14.183,-70.746,179.308,-24.833,-10.467,-11.92,28.48,-0.07574,-0.57385,0.10373,-0.80875,120,0.754,-0.058,0.664,0.183,0.0,0.122,-4.889,-48.422,-118.932,-23.0,-8.133,-1.227,26.23,-0.44818,0.37283,0.17502,0.79333,100,0.615,-0.037,0.779,0.183,0.183,0.183,-2.681,-37.985,158.884,-15.82,-9.767,-26.7,29.9,0.17993,0.31644,-0.08105,0.9278,108,0.969,0.005,0.213,0.183,0.427,-0.183,2.889,-77.173,-167.278,-28.333,-12.12,-2.587,31.37,0.10202,-0.61783,-0.08847,-0.77457,80
25,0.965,-0.082,0.321,0.122,-0.122,-0.061,-14.183,-70.752,179.275,-24.833,-10.467,-11.92,28.48,-0.07574,-0.57385,0.10373,-0.80875,121,0.754,-0.061,0.657,0.305,0.061,0.183,-4.889,-48.422,-118.932,-23.0,-8.133,-1.227,26.23,-0.44818,0.37283,0.17502,0.79333,101,0.614,-0.041,0.777,0.0,0.549,0.122,-2.686,-37.98,158.901,-15.82,-9.767,-26.7,29.9,0.17993,0.31644,-0.08105,0.9278,109,0.965,0.006,0.212,0.122,0.183,-0.183,2.9,-77.168,-167.272,-28.333,-12.12,-2.587,31.37,0.10202,-0.61783,-0.08847,-0.77457,81
26,0.967,-0.083,0.325,0.122,0.183,-0.122,-14.172,-70.752,179.258,-24.833,-10.467,-11.92,28.48,-0.07574,-0.57385,0.10373,-0.80875,122,0.754,-0.059,0.659,0.061,0.183,0.061,-4.889,-48.422,-118.922,-23.0,-8.133,-1.227,26.23,-0.44818,0.37283,0.17502,0.79333,102,0.615,-0.038,0.782,-0.183,0.305,0.0,-2.692,-37.974,158.906,-15.82,-9.767,-26.7,29.9,0.17993,0.31644,-0.08105,0.9278,110,0.969,0.008,0.211,0.183,0.061,-0.122,2.906,-77.173,-167.272,-28.333,-12.12,-2.587,31.37,0.10202,-0.61783,-0.08847,-0.77457,82
27,0.965,-0.082,0.321,0.122,-0.122,-0.061,-14.183,-70.752,179.275,-24.833,-10.467,-11.92,28.48,-0.07574,-0.57385,0.10373,-0.80875,123,0.754,-0.061,0.657,0.305,0.061,0.183,-4.889,-48.422,-118.932,-23.0,-8.133,-1.227,26.23,-0.44818,0.37283,0.17502,0.79333,103,0.614,-0.041,0.777,0.0,0.549,0.122,-2.686,-37.98,158.901,-15.82,-9.767,-26.7,29.9,0.17993,0.31644,-0.08105,0.9278,111,0.965,0.006,0.212,0.122,0.183,-0.183,2.9,-77.168,-167.272,-28.333,-12.12,-2.587,31.37,0.10202,-0.61783,-0.08847,-0.77457,83
28,0.964,-0.083,0.325,0.122,0.183,-0.122,-14.172,-70.752,179.258,-24.833,-10.467,-11.92,28.48,-0.07574,-0.57385,0.10373,-0.80875,128,0.751,-0.059,0.659,0.061,0.183,0.061,-4.889,-48.422,-118.922,-23.0,-8.133,-1.227,26.23,-0.44818,0.37283,0.17502,0.79333,116,0.609,-0.038,0.782,-0.183,0.305,0.0,-2.692,-37.974,158.906,-15.82,-9.767,-26.7,29.9,0.17993,0.31644,-0.08105,0.9278,124,0.967,0.008,0.211,0.183,0.061,-0.122,2.906,-77.173,-167.272,-28.333,-12.12,-2.587,31.37,0.10202,-0.61783,-0.08847,-0.77457,96
29,0.963,-0.081,0.328,0.305,0.305,-0.183,-14.15,-70.746,179.231,-24.833,-10.467,-11.92,28.48,-0.07574,-0.57385,0.10373,-0.80875,129,0.749,-0.059,0.662,0.0,0.183,0.0,-4.889,-48.417,-118.916,-23.0,-8.133,-1.227,26.23,-0.44818,0.37283,0.17502,0.79333,117,0.611,-0.04,0.782,-0.122,0.183,0.0,-2.697,-37.969,158.912,-15.82,-9.767,-26.7,29.9,0.17993,0.31644,-0.08105,0.9278,125,0.964,0.007,0.214,0.183,0.0,-0.061,2.906,-77.173,-167.267,-28.333,-12.12,-2.587,31.37,0.10202,-0.61783,-0.08847,-0.77457,97
30,0.964,-0.079,0.328,0.244,0.305,-0.183,-14.134,-70.741,179.214,-24.833,-10.467,-11.92,28.48,-0.07574,-0.57385,0.10373,-0.80875,130,0.751,-0.06,0.663,0.183,0.122,0.0,-4.889,-48.417,-118.927,-23.0,-8.133,-1.227,26.23,-0.44818,0.37283,0.17502,0.79333,118,0.609,-0.038,0.78,0.122,0.183,-0.122,-2.692,-37.969,158.906,-15.82,-9.767,-26.7,29.9,0.17993,0.31644,-0.08105,0.9278,126,0.967,0.009,0.21,0.122,0.0,-0.122,2.911,-77.179,-167.272,-28.333,-12.12,-2.587,31.37,0.10202,-0.61783,-0.08847,-0.77457,98
31,0.963,-0.081,0.328,0.305,0.305,-0.183,-14.15,-70.746,179.231,-24.833,-10.467,-11.92,28.48,-0.07574,-0.57385,0.10373,-0.80875,131,0.749,-0.059,0.662,0.0,0.183,0.0,-4.889,-48.417,-118.916,-23.0,-8.133,-1.227,26.23,-0.44818,0.37283,0.17502,0.79333,119,0.611,-0.04,0.782,-0.122,0.183,0.0,-2.697,-37.969,158.912,-15.82,-9.767,-26.7,29.9,0.17993,0.31644,-0.08105,0.9278,127,0.964,0.007,0.214,0.183,0.0,-0.061,2.906,-77.173,-167.267,-28.333,-12.12,-2.587,31.37,0.10202,-0.61783,-0.08847,-0.77457,99
32,0.964,-0.079,0.328,0.244,0.305,-0.183,-14.134,-70.741,179.214,-24.833,-10.467,-11.92,28.48,-0.07574,-0.57385,0.10373,-0.80875,140,0.752,-0.06,0.663,0.183,0.122,0.0,-4.889,-48.417,-118.927,-23.0,-8.133,-1.227,26.23,-0.44818,0.37283,0.17502,0.79333,136,0.613,-0.038,0.78,0.122,0.183,-0.122,-2.692,-37.969,158.906,-15.82,-9.767,-26.7,29.9,0.17993,0.31644,-0.08105,0.9278,144,0.963,0.009,0.21,0.122,0.0,-0.122,2.911,-77.179,-167.272,-28.333,-12.12,-2.587,31.37,0.10202,-0.61783,-0.08847,-0.77457,112
33,0.962,-0.078,0.329,0.122,0.244,-0.061,-14.123,-70.741,179.209,-24.833,-10.467,-11.92,28.48,-0.07574,-0.57385,0.10373,-0.80875,141,0.751,-0.058,0.663,0.366,0.305,-0.061,-4.883,-48.411,-118.932,-23.0,-8.133,-1.227,26.23,-0.44818,0.37283,0.17502,0.79333,137,0.608,-0.037,0.782,0.244,0.61,-0.061,-2.692,-37.958,158.884,-15.82,-9.767,-26.7,29.9,0.17993,0.31644,-0.08105,0.9278,145,0.963,0.008,0.212,0.244,0.183,-0.183,2.922,-77.173,-167.267,-28.333,-12.12,-2.587,31.37,0.10202,-0.61783,-0.08847,-0.77457,113
34,0.964,-0.08,0.327,0.061,0.122,-0.061,-14.117,-70.735,179.209,-24.833,-10.467,-11.92,28.48,-0.07574,-0.57385,0.10373,-0.80875,142,0.752,-0.056,0.665,0.366,0.427,-0.183,-4.872,-48.406,-118.943,-23.0,-8.133,-1.227,26.23,-0.44818,0.37283,0.17502,0.79333,138,0.613,-0.037,0.785,0.122,0.793,-0.183,-2.686,-37.941,158.868,-15.82,-9.767,-26.7,29.9,0.17993,0.31644,-0.08105,0.9278,146,0.963,0.009,0.217,0.488,0.427,-0.122,2.933,-77.168,-167.256,-28.333,-12.12,-2.587,31.37,0.10202,-0.61783,-0.08847,-0.77457,114
35,0.962,-0.078,0.329,0.122,0.244,-0.061,-14.123,-70.741,179.209,-24.833,-10.467,-11.92,28.48,-0.07574,-0.57385,0.10373,-0.80875,143,0.751,-0.058,0.663,0.366,0.305,-0.061,-4.883,-48.411,-118.932,-23.0,-8.133,-1.227,26.23,-0.44818,0.37283,0.17502,0.79333,139,0.608,-0.037,0.782,0.244,0.61,-0.061,-2.692,-37.958,158.884,-15.82,-9.767,-26.7,29.9,0.17993,0.31644,-0.08105,0.9278,147,0.963,0.008,0.212,0.244,0.183,-0.183,2.922,-77.173,-167.267,-28.333,-12.12,-2.587,31.37,0.10202,-0.61783,-0.08847,-0.77457,115
36,0.962,-0.08,0.327,0.061,0.122,-0.061,-14.117,-70.735,179.209,-24.833,-10.467,-11.92,28.48,-0.07574,-0.57385,0.10373,-0.80875,152,0.746,-0.056,0.665,0.366,0.427,-0.183,-4.872,-48.406,-118.943,-23.0,-8.133,-1.227,26.23,-0.44818,0.37283,0.17502,0.79333,164,0.604,-0.037,0.785,0.122,0.793,-0.183,-2.686,-37.941,158.868,-14.667,-9.587,-26.813,29.9,0.17993,0.31644,-0.08105,0.9278,156,0.962,0.009,0.217,0.488,0.427,-0.122,2.933,-77.168,-167.256,-28.333,-12.12,-2.587,31.37,0.10202,-0.61783,-0.08847,-0.77457,132
37,0.96,-0.08,0.327,0.061,0.183,-0.122,-14.101,-70.735,179.203,-24.833,-10.467,-11.92,28.48,-0.07574,-0.57385,0.10373,-0.80875,153,0.743,-0.055,0.666,0.122,0.366,-0.244,-4.867,-48.4,-118.949,-23.0,-8.133,-1.227,26.23,-0.44818,0.37283,0.17502,0.79333,165,0.604,-0.036,0.788,-0.183,0.427,-0.549,-2.681,-37.936,158.851,-14.667,-9.587,-26.813,29.9,0.17993,0.31644,-0.08105,0.9278,157,0.962,0.011,0.22,0.427,0.488,-0.183,2.95,-77.162,-167.25,-28.333,-12.12,-2.587,31.37,0.10202,-0.61783,-0.08847,-0.77457,133
38,0.962,-0.08,0.329,0.0,0.122,-0.122,-14.09,-70.735,179.176,-24.833,-10.467,-11.92,28.48,-0.07574,-0.57385,0.10373,-0.80875,154,0.746,-0.055,0.668,0.0,0.122,-0.305,-4.861,-48.395,-118.971,-23.0,-8.133,-1.227,26.23,-0.44818,0.37283,0.17502,0.79333,166,0.604,-0.035,0.788,-0.366,0.0,-0.732,-2.675,-37.93,158.846,-14.667,-9.587,-26.813,29.9,0.17993,0.31644,-0.08105,0.9278,158,0.962,0.012,0.22,0.427,0.488,-0.244,2.972,-77.157,-167.261,-28.333,-12.12,-2.587,31.37,0.10202,-0.61783,-0.08847,-0.77457,134
39,0.96,-0.08,0.327,0.061,0.183,-0.122,-14.101,-70.735,179.203,-24.833,-10.467,-11.92,28.48,-0.07574,-0.57385,0.10373,-0.80875,155,0.743,-0.055,0.666,0.122,0.366,-0.244,-4.867,-48.4,-118.949,-23.0,-8.133,-1.227,26.23,-0.44818,0.37283,0.17502,0.79333,167,0.604,-0.036,0.788,-0.183,0.427,-0.549,-2.681,-37.936,158.851,-14.667,-9.587,-26.813,29.9,0.17993,0.31644,-0.08105,0.9278,159,0.962,0.011,0.22,0.427,0.488,-0.183,2.95,-77.162,-167.25,-28.333,-12.12,-2.587,31.37,0.10202,-0.61783,-0.08847,-0.77457,135
40,0.962,-0.08,0.329,0.0,0.122,-0.122,-14.09,-70.735,179.176,-24.833,-10.467,-11.92,28.48,-0.07574,-0.57385,0.10373,-0.80875,172,0.745,-0.055,0.668,0.0,0.122,-0.305,-4.861,-48.395,-118.971,-23.0,-8.133,-1.227,26.23,-0.44818,0.37283,0.17502,0.79333,168,0.607,-0.035,0.788,-0.366,0.0,-0.732,-2.675,-37.93,158.846,-14.667,-9.587,-26.813,29.9,0.17993,0.31644,-0.08105,0.9278,176,0.961,0.012,0.22,0.427,0.488,-0.244,2.972,-77.157,-167.261,-27.867,-12.34,-2.747,31.37,0.10202,-0.61783,-0.08847,-0.77457,148
41,0.963,-0.08,0.327,0.0,0.0,-0.061,-14.084,-70.735,179.143,-24.833,-10.467,-11.92,28.48,-0.07574,-0.57385,0.10373,-0.80875,173,0.748,-0.054,0.668,-0.061,0.0,-0.244,-4.856,-48.395,-118.987,-23.0,-8.133,-1.227,26.23,-0.44818,0.37283,0.17502,0.79333,169,0.61,-0.033,0.787,-0.366,-0.244,-0.488,-2.675,-37.936,158.835,-14.667,-9.587,-26.813,29.9,0.17993,0.31644,-0.08105,0.9278,177,0.96,0.012,0.22,0.366,0.305,-0.366,3.005,-77.151,-167.283,-27.867,-12.34,-2.747,31.37,0.10202,-0.61783,-0.08847,-0.77457,149
42,0.962,-0.081,0.327,0.0,-0.122,-0.061,-14.079,-70.735,179.094,-24.833,-10.467,-11.92,28.48,-0.07574,-0.57385,0.10373,-0.80875,174,0.745,-0.055,0.666,0.0,-0.061,-0.061,-4.856,-48.395,-118.993,-23.0,-8.133,-1.227,26.23,-0.44818,0.37283,0.17502,0.79333,170,0.607,-0.034,0.786,0.0,0.0,-0.122,-2.675,-37.936,158.818,-14.667,-9.587,-26.813,29.9,0.17993,0.31644,-0.08105,0.9278,178,0.961,0.011,0.217,0.244,0.244,-0.366,3.038,-77.146,-167.3,-27.867,-12.34,-2.747,31.37,0.10202,-0.61783,-0.08847,-0.77457,150
43,0.963,-0.08,0.327,0.0,0.0,-0.061,-14.084,-70.735,179.143,-24.833,-10.467,-11.92,28.48,-0.07574,-0.57385,0.10373,-0.80875,175,0.748,-0.054,0.668,-0.061,0.0,-0.244,-4.856,-48.395,-118.987,-23.0,-8.133,-1.227,26.23,-0.44818,0.37283,0.17502,0.79333,171,0.61,-0.033,0.787,-0.366,-0.244,-0.488,-2.675,-37.936,158.835,-14.667,-9.587,-26.813,29.9,0.17993,0.31644,-0.08105,0.9278,179,0.96,0.012,0.22,0.366,0.305,-0.366,3.005,-77.151,-167.283,-27.867,-12.34,-2.747,31.37,0.10202,-0.61783,-0.08847,-0.77457,151
44,0.964,-0.081,0.327,0.0,-0.122,-0.061,-14.079,-70.735,179.094,-24.833,-10.467,-11.92,28.48,-0.07574,-0.57385,0.10373,-0.80875,188,0.751,-0.055,0.666,0.0,-0.061,-0.061,-4.856,-48.395,-118.993,-23.233,-8.56,-0.94,26.23,-0.44818,0.37283,0.17502,0.79333,184,0.613,-0.034,0.786,0.0,0.0,-0.122,-2.675,-37.936,158.818,-14.667,-9.587,-26.813,29.9,0.18106,0.31534,-0.08139,0.92792,192,0.959,0.011,0.217,0.244,0.244,-0.366,3.038,-77.146,-167.3,-27.867,-12.34,-2.747,31.37,0.10202,-0.61783,-0.08847,-0.77457,160
45,0.965,-0.083,0.327,0.0,-0.122,-0.061,-14.079,-70.741,179.077,-24.833,-10.467,-11.92,28.48,-0.07574,-0.57385,0.10373,-0.80875,189,0.751,-0.057,0.666,0.122,-0.122,0.0,-4.856,-48.395,-118.987,-23.233,-8.56,-0.94,26.23,-0.44818,0.37283,0.17502,0.79333,185,0.61,-0.038,0.786,0.0,0.061,-0.122,-2.67,-37.93,158.785,-14.667,-9.587,-26.813,29.9,0.18106,0.31534,-0.08139,0.92792,193,0.959,0.011,0.221,0.122,0.183,-0.305,3.06,-77.146,-167.316,-27.867,-12.34,-2.747,31.37,0.10202,-0.61783,-0.08847,-0.77457,161
46,0.964,-0.082,0.328,0.122,-0.061,-0.061,-14.068,-70.741,179.066,-24.833,-10.467,-11.92,28.48,-0.07574,-0.57385,0.10373,-0.80875,190,0.751,-0.058,0.665,0.122,-0.122,0.0,-4.85,-48.395,-118.982,-23.233,-8.56,-0.94,26.23,-0.44818,0.37283,0.17502,0.79333,186,0.613,-0.036,0.784,0.0,-0.122,-0.183,-2.67,-37.93,158.752,-14.667,-9.587,-26.813,29.9,0.18106,0.31534,-0.08139,0.92792,194,0.959,0.011,0.219,0.061,0.183,-0.305,3.087,-77.141,-167.327,-27.867,-12.34,-2.747,31.37,0.10202,-0.61783,-0.08847,-0.77457,162
47,0.965,-0.083,0.327,0.0,-0.122,-0.061,-14.079,-70.741,179.077,-24.833,-10.467,-11.92,28.48,-0.07574,-0.57385,0.10373,-0.80875,191,0.751,-0.057,0.666,0.122,-0.122,0.0,-4.856,-48.395,-118.987,-23.233,-8.56,-0.94,26.23,-0.44818,0.37283,0.17502,0.79333,187,0.61,-0.038,0.786,0.0,0.061,-0.122,-2.67,-37.93,158.785,-14.667,-9.587,-26.813,29.9,0.18106,0.31534,-0.08139,0.92792,195,0.959,0.011,0.221,0.122,0.183,-0.305,3.06,-77.146,-167.316,-27.867,-12.34,-2.747,31.37,0.10202,-0.61783,-0.08847,-0.77457,163
48,0.964,-0.082,0.328,0.122,-0.061,-0.061,-14.068,-70.741,179.066,-24.833,-10.467,-11.92,28.48,-0.07574,-0.57385,0.10373,-0.80875,204,0.75,-0.058,0.665,0.122,-0.122,0.0,-4.85,-48.395,-118.982,-23.233,-8.56,-0.94,26.23,-0.44763,0.37244,0.17462,0.79391,200,0.61,-0.036,0.784,0.0,-0.122,-0.183,-2.67,-37.93,158.752,-14.667,-9.587,-26.813,29.9,0.18106,0.31534,-0.08139,0.92792,208,0.963,0.011,0.219,0.061,0.183,-0.305,3.087,-77.141,-167.327,-27.867,-12.34,-2.747,31.37,0.10284,-0.61713,-0.08957,-0.77487,180
49,0.963,-0.081,0.326,0.244,-0.122,0.0,-14.068,-70.741,179.066,-24.833,-10.467,-11.92,28.48,-0.07574,-0.57385,0.10373,-0.80875,205,0.749,-0.055,0.665,0.183,0.0,0.061,-4.85,-48.395,-118.982,-23.233,-8.56,-0.94,26.23,-0.44763,0.37244,0.17462,0.79391,201,0.612,-0.034,0.781,-0.183,-0.244,-0.366,-2.664,-37.936,158.736,-14.667,-9.587,-26.813,29.9,0.18106,0.31534,-0.08139,0.92792,209,0.964,0.009,0.219,0.061,0.061,-0.244,3.109,-77.141,-167.338,-27.867,-12.34,-2.747,31.37,0.10284,-0.61713,-0.08957,-0.77487,181
50,0.964,-0.081,0.326,0.183,-0.061,0.0,-14.062,-70.746,179.061,-24.833,-10.467,-11.92,28.48,-0.07574,-0.57385,0.10373,-0.80875,206,0.75,-0.055,0.661,0.244,0.0,0.183,-4.85,-48.395,-118.982,-23.233,-8.56,-0.94,26.23,-0.44763,0.37244,0.17462,0.79391,202,0.61,-0.035,0.78,-0.549,0.061,-0.549,-2.67,-37.936,158.741,-14.667,-9.587,-26.813,29.9,0.18106,0.31534,-0.08139,0.92792,210,0.963,0.009,0.219,0.183,0.0,-0.183,3.126,-77.141,-167.338,-27.867,-12.34,-2.747,31.37,0.10284,-0.61713,-0.08957,-0.77487,182
51,0.963,-0.081,0.326,0.244,-0.122,0.0,-14.068,-70.741,179.066,-24.833,-10.467,-11.92,28.48,-0.07574,-0.57385,0.10373,-0.80875,207,0.749,-0.055,0.665,0.183,0.0,0.061,-4.85,-48.395,-118.982,-23.233,-8.56,-0.94,26.23,-0.44763,0.37244,0.17462,0.79391,203,0.612,-0.034,0.781,-0.183,-0.244,-0.366,-2.664,-37.936,158.736,-14.667,-9.587,-26.813,29.9,0.18106,0.31534,-0.08139,0.92792,211,0.964,0.009,0.219,0.061,0.061,-0.244,3.109,-77.141,-167.338,-27.867,-12.34,-2.747,31.37,0.10284,-0.61713,-0.08957,-0.77487,183
52,0.965,-0.081,0.326,0.183,-0.061,0.0,-14.062,-70.746,179.061,-24.833,-10.467,-11.92,28.48,-0.07574,-0.57385,0.10373,-0.80875,220,0.752,-0.055,0.661,0.244,0.0,0.183,-4.85,-48.395,-118.982,-23.233,-8.56,-0.94,26.23,-0.44763,0.37244,0.17462,0.79391,216,0.614,-0.035,0.78,-0.549,0.061,-0.549,-2.67,-37.936,158.741,-14.667,-9.587,-26.813,29.9,0.18106,0.31534,-0.08139,0.92792,224,0.962,0.009,0.219,0.183,0.0,-0.183,3.126,-77.141,-167.338,-27.867,-12.34,-2.747,31.37,0.10284,-0.61713,-0.08957,-0.77487,196
53,0.966,-0.079,0.326,0.305,0.0,0.122,-14.062,-70.746,179.044,-24.833,-10.467,-11.92,28.48,-0.07574,-0.57385,0.10373,-0.80875,221,0.753,-0.056,0.661,0.427,0.0,0.183,-4.845,-48.395,-118.982,-23.233,-8.56,-0.94,26.23,-0.44763,0.37244,0.17462,0.79391,217,0.612,-0.032,0.782,-0.732,-0.183,0.305,-2.681,-37.936,158.747,-14.667,-9.587,-26.813,29.9,0.18106,0.31534,-0.08139,0.92792,225,0.96,0.011,0.218,0.305,0.0,-0.122,3.137,-77.141,-167.338,-27.867,-12.34,-2.747,31.37,0.10284,-0.61713,-0.08957,-0.77487,197
54,0.965,-0.081,0.325,0.244,0.0,0.0,-14.057,-70.746,179.017,-24.833,-10.467,-11.92,28.48,-0.07574,-0.57385,0.10373,-0.80875,222,0.752,-0.054,0.662,0.488,0.061,0.244,-4.839,-48.389,-118.976,-23.233,-8.56,-0.94,26.23,-0.44763,0.37244,0.17462,0.79391,218,0.614,-0.034,0.784,0.183,0.0,0.61,-2.692,-37.936,158.736,-14.667,-9.587,-26.813,29.9,0.18106,0.31534,-0.08139,0.92792,226,0.962,0.011,0.217,0.427,-0.061,0.0,3.148,-77.141,-167.327,-27.867,-12.34,-2.747,31.37,0.10284,-0.61713,-0.08957,-0.77487,198
55,0.966,-0.079,0.326,0.305,0.0,0.122,-14.062,-70.746,179.044,-24.833,-10.467,-11.92,28.48,-0.07574,-0.57385,0.10373,-0.80875,223,0.753,-0.056,0.661,0.427,0.0,0.183,-4.845,-48.395,-118.982,-23.233,-8.56,-0.94,26.23,-0.44763,0.37244,0.17462,0.79391,219,0.612,-0.032,0.782,-0.732,-0.183,0.305,-2.681,-37.936,158.747,-14.667,-9.587,-26.813,29.9,0.18106,0.31534,-0.08139,0.92792,227,0.96,0.011,0.218,0.305,0.0,-0.122,3.137,-77.141,-167.338,-27.867,-12.34,-2.747,31.37,0.10284,-0.61713,-0.08957,-0.77487,199
56,0.963,-0.081,0.325,0.244,0.0,0.0,-14.057,-70.746,179.017,-24.747,-10.493,-12.373,28.48,-0.07574,-0.57385,0.10373,-0.80875,236,0.751,-0.054,0.662,0.488,0.061,0.244,-4.839,-48.389,-118.976,-23.233,-8.56,-0.94,26.23,-0.44763,0.37244,0.17462,0.79391,232,0.61,-0.034,0.784,0.183,0.0,0.61,-2.692,-37.936,158.736,-14.667,-9.587,-26.813,29.9,0.18106,0.31534,-0.08139,0.92792,240,0.962,0.011,0.217,0.427,-0.061,0.0,3.148,-77.141,-167.327,-27.867,-12.34,-2.747,31.37,0.10284,-0.61713,-0.08957,-0.77487,212
57,0.964,-0.08,0.325,0.061,0.0,0.0,-14.052,-70.746,179.006,-24.747,-10.493,-12.373,28.48,-0.07574,-0.57385,0.10373,-0.80875,237,0.75,-0.061,0.662,0.427,0.0,0.549,-4.845,-48.389,-118.965,-23.233,-8.56,-0.94,26.23,-0.44763,0.37244,0.17462,0.79391,233,0.613,-0.042,0.779,0.061,0.366,1.587,-2.708,-37.93,158.752,-14.667,-9.587,-26.813,29.9,0.18106,0.31534,-0.08139,0.92792,241,0.963,0.011,0.216,0.305,0.0,0.061,3.148,-77.141,-167.322,-27.867,-12.34,-2.747,31.37,0.10284,-0.61713,-0.08957,-0.77487,213
58,0.963,-0.082,0.327,0.0,0.0,0.0,-14.052,-70.746,178.989,-24.747,-10.493,-12.373,28.48,-0.07574,-0.57385,0.10373,-0.80875,238,0.751,-0.057,0.661,0.0,0.183,0.366,-4.85,-48.389,-118.949,-23.233,-8.56,-0.94,26.23,-0.44763,0.37244,0.17462,0.79391,234,0.61,-0.035,0.783,-1.404,0.427,1.099,-2.747,-37.919,158.769,-14.667,-9.587,-26.813,29.9,0.18106,0.31534,-0.08139,0.92792,242,0.962,0.012,0.216,0.488,0.0,0.0,3.148,-77.141,-167.322,-27.867,-12.34,-2.747,31.37,0.10284,-0.61713,-0.08957,-0.77487,214
59,0.964,-0.08,0.325,0.061,0.0,0.0,-14.052,-70.746,179.006,-24.747,-10.493,-12.373,28.48,-0.07574,-0.57385,0.10373,-0.80875,239,0.75,-0.061,0.662,0.427,0.0,0.549,-4.845,-48.389,-118.965,-23.233,-8.56,-0.94,26.23,-0.44763,0.37244,0.17462,0.79391,235,0.613,-0.042,0.779,0.061,0.366,1.587,-2.708,-37.93,158.752,-14.667,-9.587,-26.813,29.9,0.18106,0.31534,-0.08139,0.92792,243,0.963,0.011,0.216,0.305,0.0,0.061,3.148,-77.141,-167.322,-27.867,-12.34,-2.747,31.37,0.10284,-0.61713,-0.08957,-0.77487,215
60,0.966,-0.082,0.327,0.0,0.0,0.0,-14.052,-70.746,178.989,-24.747,-10.493,-12.373,28.48,-0.07791,-0.57364,0.10477,-0.80856,260,0.755,-0.057,0.661,0.0,0.183,0.366,-4.85,-48.389,-118.949,-23.233,-8.56,-0.94,26.23,-0.44763,0.37244,0.17462,0.79391,248,0.615,-0.035,0.783,-1.404,0.427,1.099,-2.747,-37.919,158.769,-14.667,-9.587,-26.813,29.9,0.18106,0.31534,-0.08139,0.92792,256,0.964,0.012,0.216,0.488,0.0,0.0,3.148,-77.141,-167.322,-27.867,-12.34,-2.747,31.37,0.10284,-0.61713,-0.08957,-0.77487,228
61,0.966,-0.077,0.326,0.061,-0.061,0.0,-14.046,-70.746,178.978,-24.747,-10.493,-12.373,28.48,-0.07791,-0.57364,0.10477,-0.80856,261,0.753,-0.051,0.664,-0.366,0.183,0.0,-4.856,-48.384,-118.954,-23.233,-8.56,-0.94,26.23,-0.44763,0.37244,0.17462,0.79391,249,0.609,-0.034,0.786,-0.061,0.916,0.671,-2.763,-37.903,158.785,-14.667,-9.587,-26.813,29.9,0.18106,0.31534,-0.08139,0.92792,257,0.961,0.011,0.217,0.488,0.061,0.0,3.153,-77.141,-167.338,-27.867,-12.34,-2.747,31.37,0.10284,-0.61713,-0.08957,-0.77487,229
62,0.966,-0.077,0.325,0.0,0.183,0.0,-14.046,-70.746,178.973,-24.747,-10.493,-12.373,28.48,-0.07791,-0.57364,0.10477,-0.80856,262,0.755,-0.056,0.664,-0.244,0.366,-0.122,-4.861,-48.378,-118.976,-23.233,-8.56,-0.94,26.23,-0.44763,0.37244,0.17462,0.79391,250,0.615,-0.039,0.785,0.488,0.427,1.038,-2.769,-37.892,158.802,-14.667,-9.587,-26.813,29.9,0.18106,0.31534,-0.08139,0.92792,258,0.964,0.01,0.215,0.183,0.183,-0.061,3.159,-77.141,-167.355,-27.867,-12.34,-2.747,31.37,0.10284,-0.61713,-0.08957,-0.77487,230
63,0.966,-0.077,0.326,0.061,-0.061,0.0,-14.046,-70.746,178.978,-24.747,-10.493,-12.373,28.48,-0.07791,-0.57364,0.10477,-0.80856,263,0.753,-0.051,0.664,-0.366,0.183,0.0,-4.856,-48.384,-118.954,-23.233,-8.56,-0.94,26.23,-0.44763,0.37244,0.17462,0.79391,251,0.609,-0.034,0.786,-0.061,0.916,0.671,-2.763,-37.903,158.785,-14.667,-9.587,-26.813,29.9,0.18106,0.31534,-0.08139,0.92792,259,0.961,0.011,0.217,0.488,0.061,0.0,3.153,-77.141,-167.338,-27.867,-12.34,-2.747,31.37,0.10284,-0.61713,-0.08957,-0.77487,231
64,0.966,-0.077,0.325,0.0,0.183,0.0,-14.046,-70.746,178.973,-24.747,-10.493,-12.373,28.48,-0.07791,-0.57364,0.10477,-0.80856,272,0.749,-0.056,0.664,-0.244,0.366,-0.122,-4.861,-48.378,-118.976,-23.233,-8.56,-0.94,26.23,-0.44763,0.37244,0.17462,0.79391,252,0.61,-0.039,0.785,0.488,0.427,1.038,-2.769,-37.892,158.802,-14.667,-9.587,-26.813,29.9,0.18106,0.31534,-0.08139,0.92792,276,0.962,0.01,0.215,0.183,0.183,-0.061,3.159,-77.141,-167.355,-27.867,-12.34,-2.747,31.37,0.10284,-0.61713,-0.08957,-0.77487,244
65,0.964,-0.082,0.326,-0.061,0.122,0.0,-14.041,-70.746,178.967,-24.747,-10.493,-12.373,28.48,-0.07791,-0.57364,0.10477,-0.80856,273,0.753,-0.06,0.664,0.0,0.122,0.0,-4.856,-48.378,-118.993,-23.233,-8.56,-0.94,26.23,-0.44763,0.37244,0.17462,0.79391,253,0.614,-0.039,0.787,0.0,0.183,0.366,-2.774,-37.892,158.807,-14.667,-9.587,-26.813,29.9,0.18106,0.31534,-0.08139,0.92792,277,0.965,0.011,0.219,0.0,0.244,0.0,3.164,-77.141,-167.366,-27.867,-12.34,-2.747,31.37,0.10284,-0.61713,-0.08957,-0.77487,245
66,0.966,-0.083,0.326,0.061,0.0,0.0,-14.035,-70.746,178.973,-24.747,-10.493,-12.373,28.48,-0.07791,-0.57364,0.10477,-0.80856,274,0.749,-0.058,0.665,0.0,0.061,0.061,-4.861,-48.378,-119.004,-23.233,-8.56,-0.94,26.23,-0.44763,0.37244,0.17462,0.79391,254,0.61,-0.038,0.784,0.183,0.183,0.854,-2.78,-37.886,158.813,-14.667,-9.587,-26.813,29.9,0.18106,0.31534,-0.08139,0.92792,278,0.962,0.014,0.217,0.122,0.183,0.122,3.159,-77.135,-167.333,-27.867,-12.34,-2.747,31.37,0.10284,-0.61713,-0.08957,-0.77487,246
67,0.964,-0.082,0.326,-0.061,0.122,0.0,-14.041,-70.746,178.967,-24.747,-10.493,-12.373,28.48,-0.07791,-0.57364,0.10477,-0.80856,275,0.753,-0.06,0.664,0.0,0.122,0.0,-4.856,-48.378,-118.993,-23.233,-8.56,-0.94,26.23,-0.44763,0.37244,0.17462,0.79391,255,0.614,-0.039,0.787,0.0,0.183,0.366,-2.774,-37.892,158.807,-14.667,-9.587,-26.813,29.9,0.18106,0.31534,-0.08139,0.92792,279,0.965,0.011,0.219,0.0,0.244,0.0,3.164,-77.141,-167.366,-27.867,-12.34,-2.747,31.37,0.10284,-0.61713,-0.08957,-0.77487,247
68,0.963,-0.083,0.326,0.061,0.0,0.0,-14.035,-70.746,178.973,-24.747,-10.493,-12.373,28.48,-0.07791,-0.57364,0.10477,-0.80856,296,0.753,-0.058,0.665,0.0,0.061,0.061,-4.861,-48.378,-119.004,-23.233,-8.56,-0.94,26.23,-0.44763,0.37244,0.17462,0.79391,288,0.61,-0.038,0.784,0.183,0.183,0.854,-2.78,-37.886,158.813,-14.667,-9.587,-26.813,29.9,0.18106,0.31534,-0.08139,0.92792,280,0.962,0.014,0.217,0.122,0.183,0.122,3.159,-77.135,-167.333,-27.867,-12.34,-2.747,31.37,0.10284,-0.61713,-0.08957,-0.77487,264
69,0.963,-0.083,0.325,0.122,0.0,0.0,-14.03,-70.746,178.967,-24.747,-10.493,-12.373,28.48,-0.07791,-0.57364,0.10477,-0.80856,297,0.749,-0.059,0.663,0.061,0.183,0.183,-4.861,-48.373,-118.998,-23.233,-8.56,-0.94,26.23,-0.44763,0.37244,0.17462,0.79391,289,0.607,-0.042,0.782,-0.122,0.122,0.488,-2.791,-37.881,158.829,-14.667,-9.587,-26.813,29.9,0.18106,0.31534,-0.08139,0.92792,281,0.964,0.015,0.215,0.061,0.305,0.0,3.148,-77.135,-167.289,-27.867,-12.34,-2.747,31.37,0.10284,-0.61713,-0.08957,-0.77487,265
70,0.963,-0.083,0.325,0.122,0.0,0.0,-14.03,-70.746,178.978,-24.747,-10.493,-12.373,28.48,-0.07791,-0.57364,0.10477,-0.80856,298,0.753,-0.06,0.663,0.061,0.244,0.244,-4.867,-48.367,-118.987,-23.233,-8.56,-0.94,26.23,-0.44763,0.37244,0.17462,0.79391,290,0.61,-0.042,0.784,-0.305,0.122,0.0,-2.796,-37.881,158.846,-14.667,-9.587,-26.813,29.9,0.18106,0.31534,-0.08139,0.92792,282,0.962,0.01,0.218,-0.244,0.427,0.0,3.148,-77.13,-167.267,-27.867,-12.34,-2.747,31.37,0.10284,-0.61713,-0.08957,-0.77487,266
71,0.963,-0.083,0.325,0.122,0.0,0.0,-14.03,-70.746,178.967,-24.747,-10.493,-12.373,28.48,-0.07791,-0.57364,0.10477,-0.80856,299,0.749,-0.059,0.663,0.061,0.183,0.183,-4.861,-48.373,-118.998,-23.233,-8.56,-0.94,26.23,-0.44763,0.37244,0.17462,0.79391,291,0.607,-0.042,0.782,-0.122,0.122,0.488,-2.791,-37.881,158.829,-14.667,-9.587,-26.813,29.9,0.18106,0.31534,-0.08139,0.92792,283,0.964,0.015,0.215,0.061,0.305,0.0,3.148,-77.135,-167.289,-27.867,-12.34,-2.747,31.37,0.10284,-0.61713,-0.08957,-0.77487,267
72,0.962,-0.083,0.325,0.122,0.0,0.0,-14.03,-70.746,178.978,-24.747,-10.493,-12.373,28.48,-0.07791,-0.57364,0.10477,-0.80856,300,0.747,-0.06,0.663,0.061,0.244,0.244,-4.867,-48.367,-118.987,-23.233,-8.56,-0.94,26.23,-0.44763,0.37244,0.17462,0.79391,292,0.605,-0.042,0.784,-0.305,0.122,0.0,-2.796,-37.881,158.846,-15.467,-9.447,-26.787,29.9,0.18106,0.31534,-0.08139,0.92792,304,0.964,0.01,0.218,-0.244,0.427,0.0,3.148,-77.13,-167.267,-27.867,-12.34,-2.747,31.37,0.10284,-0.61713,-0.08957,-0.77487,268
73,0.962,-0.084,0.327,0.183,0.0,0.0,-14.024,-70.746,178.973,-24.747,-10.493,-12.373,28.48,-0.07791,-0.57364,0.10477,-0.80856,301,0.747,-0.062,0.665,0.244,0.183,0.244,-4.867,-48.367,-118.982,-23.233,-8.56,-0.94,26.23,-0.44763,0.37244,0.17462,0.79391,293,0.608,-0.041,0.784,0.488,0.427,0.488,-2.796,-37.875,158.873,-15.467,-9.447,-26.787,29.9,0.18106,0.31534,-0.08139,0.92792,305,0.962,0.007,0.217,0.0,0.366,-0.061,3.142,-77.124,-167.25,-27.867,-12.34,-2.747,31.37,0.10284,-0.61713,-0.08957,-0.77487,269
74,0.962,-0.084,0.328,0.183,-0.061,0.0,-14.024,-70.746,178.973,-24.747,-10.493,-12.373,28.48,-0.07791,-0.57364,0.10477,-0.80856,302,0.747,-0.061,0.664,0.549,0.122,0.366,-4.867,-48.362,-118.982,-23.233,-8.56,-0.94,26.23,-0.44763,0.37244,0.17462,0.79391,294,0.605,-0.04,0.785,-3.418,-0.977,1.404,-2.867,-37.886,158.912,-15.467,-9.447,-26.787,29.9,0.18106,0.31534,-0.08139,0.92792,306,0.964,0.008,0.217,0.061,0.244,-0.061,3.142,-77.119,-167.261,-27.867,-12.34,-2.747,31.37,0.10284,-0.61713,-0.08957,-0.77487,270
75,0.962,-0.084,0.327,0.183,0.0,0.0,-14.024,-70.746,178.973,-24.747,-10.493,-12.373,28.48,-0.07791,-0.57364,0.10477,-0.80856,303,0.747,-0.062,0.665,0.244,0.183,0.244,-4.867,-48.367,-118.982,-23.233,-8.56,-0.94,26.23,-0.44763,0.37244,0.17462,0.79391,295,0.608,-0.041,0.784,0.488,0.427,0.488,-2.796,-37.875,158.873,-15.467,-9.447,-26.787,29.9,0.18106,0.31534,-0.08139,0.92792,307,0.962,0.007,0.217,0.0,0.366,-0.061,3.142,-77.124,-167.25,-27.867,-12.34,-2.747,31.37,0.10284,-0.61713,-0.08957,-0.77487,271
76,0.965,-0.084,0.328,0.183,-0.061,0.0,-14.024,-70.746,178.973,-24.747,-10.493,-12.373,28.48,-0.07791,-0.57364,0.10477,-0.80856,316,0.748,-0.061,0.664,0.549,0.122,0.366,-4.867,-48.362,-118.982,-22.767,-8.413,-1.267,26.23,-0.44763,0.37244,0.17462,0.79391,312,0.606,-0.04,0.785,-3.418,-0.977,1.404,-2.867,-37.886,158.912,-15.467,-9.447,-26.787,29.9,0.18106,0.31534,-0.08139,0.92792,320,0.96,0.008,0.217,0.061,0.244,-0.061,3.142,-77.119,-167.261,-28.553,-12.0,-2.54,31.37,0.10284,-0.61713,-0.08957,-0.77487,284
77,0.965,-0.082,0.329,0.183,0.0,0.0,-14.024,-70.752,178.973,-24.747,-10.493,-12.373,28.48,-0.07791,-0.57364,0.10477,-0.80856,317,0.75,-0.059,0.666,0.549,0.0,0.366,-4.867,-48.362,-118.982,-22.767,-8.413,-1.267,26.23,-0.44763,0.37244,0.17462,0.79391,313,0.61,-0.041,0.789,0.183,0.366,0.427,-2.889,-37.881,158.934,-15.467,-9.447,-26.787,29.9,0.18106,0.31534,-0.08139,0.92792,321,0.96,0.008,0.217,0.244,0.122,-0.183,3.148,-77.113,-167.283,-28.553,-12.0,-2.54,31.37,0.10284,-0.61713,-0.08957,-0.77487,285
78,0.965,-0.08,0.329,0.122,0.0,0.0,-14.024,-70.752,178.978,-24.747,-10.493,-12.373,28.48,-0.07791,-0.57364,0.10477,-0.80856,318,0.748,-0.057,0.668,0.366,-0.061,0.427,-4.872,-48.362,-118.971,-22.767,-8.413,-1.267,26.23,-0.44763,0.37244,0.17462,0.79391,314,0.606,-0.039,0.785,0.0,0.0,0.305,-2.895,-37.881,158.939,-15.467,-9.447,-26.787,29.9,0.18106,0.31534,-0.08139,0.92792,322,0.96,0.007,0.218,0.366,0.061,-0.183,3.164,-77.113,-167.311,-28.553,-12.0,-2.54,31.37,0.10284,-0.61713,-0.08957,-0.77487,286
79,0.965,-0.082,0.329,0.183,0.0,0.0,-14.024,-70.752,178.973,-24.747,-10.493,-12.373,28.48,-0.07791,-0.57364,0.10477,-0.80856,319,0.75,-0.059,0.666,0.549,0.0,0.366,-4.867,-48.362,-118.982,-22.767,-8.413,-1.267,26.23,-0.44763,0.37244,0.17462,0.79391,315,0.61,-0.041,0.789,0.183,0.366,0.427,-2.889,-37.881,158.934,-15.467,-9.447,-26.787,29.9,0.18106,0.31534,-0.08139,0.92792,323,0.96,0.008,0.217,0.244,0.122,-0.183,3.148,-77.113,-167.283,-28.553,-12.0,-2.54,31.37,0.10284,-0.61713,-0.08957,-0.77487,287
80,0.963,-0.08,0.329,0.122,0.0,0.0,-14.024,-70.752,178.978,-24.747,-10.493,-12.373,28.48,-0.07791,-0.57364,0.10477,-0.80856,332,0.75,-0.057,0.668,0.366,-0.061,0.427,-4.872,-48.362,-118.971,-22.767,-8.413,-1.267,26.23,-0.44763,0.37244,0.17462,0.79391,328,0.609,-0.039,0.785,0.0,0.0,0.305,-2.895,-37.881,158.939,-15.467,-9.447,-26.787,29.9,0.18088,0.31467,-0.08279,0.92807,336,0.96,0.007,0.218,0.366,0.061,-0.183,3.164,-77.113,-167.311,-28.553,-12.0,-2.54,31.37,0.10284,-0.61713,-0.08957,-0.77487,308
81,0.963,-0.079,0.327,0.0,0.0,0.0,-14.019,-70.746,178.967,-24.747,-10.493,-12.373,28.48,-0.07791,-0.57364,0.10477,-0.80856,333,0.748,-0.057,0.663,0.366,0.122,0.366,-4.878,-48.356,-118.96,-22.767,-8.413,-1.267,26.23,-0.44763,0.37244,0.17462,0.79391,329,0.609,-0.043,0.784,-0.488,0.122,0.0,-2.906,-37.875,158.928,-15.467,-9.447,-26.787,29.9,0.18088,0.31467,-0.08279,0.92807,337,0.963,0.008,0.22,0.366,0.122,-0.183,3.181,-77.113,-167.344,-28.553,-12.0,-2.54,31.37,0.10284,-0.61713,-0.08957,-0.77487,309
82,0.963,-0.08,0.328,0.0,0.0,0.0,-14.019,-70.746,178.973,-24.747,-10.493,-12.373,28.48,-0.07791,-0.57364,0.10477,-0.80856,334,0.75,-0.058,0.666,0.061,0.122,0.183,-4.878,-48.356,-118.954,-22.767,-8.413,-1.267,26.23,-0.44763,0.37244,0.17462,0.79391,330,0.609,-0.039,0.786,-0.488,0.061,-0.122,-2.911,-37.875,158.923,-15.467,-9.447,-26.787,29.9,0.18088,0.31467,-0.08279,0.92807,338,0.96,0.01,0.22,0.366,0.183,-0.183,3.192,-77.113,-167.366,-28.553,-12.0,-2.54,31.37,0.10284,-0.61713,-0.08957,-0.77487,310
83,0.963,-0.079,0.327,0.0,0.0,0.0,-14.019,-70.746,178.967,-24.747,-10.493,-12.373,28.48,-0.07791,-0.57364,0.10477,-0.80856,335,0.748,-0.057,0.663,0.366,0.122,0.366,-4.878,-48.356,-118.96,-22.767,-8.413,-1.267,26.23,-0.44763,0.37244,0.17462,0.79391,331,0.609,-0.043,0.784,-0.488,0.122,0.0,-2.906,-37.875,158.928,-15.467,-9.447,-26.787,29.9,0.18088,0.31467,-0.08279,0.92807,339,0.963,0.008,0.22,0.366,0.122,-0.183,3.181,-77.113,-167.344,-28.553,-12.0,-2.54,31.37,0.10284,-0.61713,-0.08957,-0.77487,311
84,0.963,-0.08,0.328,0.0,0.0,0.0,-14.019,-70.746,178.973,-24.747,-10.493,-12.373,28.48,-0.07791,-0.57364,0.10477,-0.80856,348,0.746,-0.058,0.666,0.061,0.122,0.183,-4.878,-48.356,-118.954,-22.767,-8.413,-1.267,26.23,-0.44781,0.37222,0.17432,0.79398,344,0.607,-0.039,0.786,-0.488,0.061,-0.122,-2.911,-37.875,158.923,-15.467,-9.447,-26.787,29.9,0.18088,0.31467,-0.08279,0.92807,352,0.964,0.01,0.22,0.366,0.183,-0.183,3.192,-77.113,-167.366,-28.553,-12.0,-2.54,31.37,0.10336,-0.61685,-0.09027,-0.77496,324
85,0.963,-0.078,0.324,0.0,0.0,0.0,-14.019,-70.746,178.984,-24.747,-10.493,-12.373,28.48,-0.07791,-0.57364,0.10477,-0.80856,349,0.748,-0.057,0.666,0.122,0.0,0.061,-4.878,-48.351,-118.96,-22.767,-8.413,-1.267,26.23,-0.44781,0.37222,0.17432,0.79398,345,0.606,-0.041,0.786,0.305,0.061,0.366,-2.911,-37.87,158.917,-15.467,-9.447,-26.787,29.9,0.18088,0.31467,-0.08279,0.92807,353,0.961,0.012,0.22,0.366,0.183,-0.061,3.203,-77.108,-167.377,-28.553,-12.0,-2.54,31.37,0.10336,-0.61685,-0.09027,-0.77496,325
86,0.963,-0.08,0.327,-0.122,0.0,0.0,-14.019,-70.746,179.0,-24.747,-10.493,-12.373,28.48,-0.07791,-0.57364,0.10477,-0.80856,350,0.746,-0.057,0.666,-0.122,0.0,0.0,-4.883,-48.351,-118.949,-22.767,-8.413,-1.267,26.23,-0.44781,0.37222,0.17432,0.79398,346,0.607,-0.04,0.784,-0.183,0.0,0.0,-2.917,-37.87,158.901,-15.467,-9.447,-26.787,29.9,0.18088,0.31467,-0.08279,0.92807,354,0.964,0.013,0.22,0.183,0.244,-0.122,3.208,-77.108,-167.377,-28.553,-12.0,-2.54,31.37,0.10336,-0.61685,-0.09027,-0.77496,326
87,0.963,-0.078,0.324,0.0,0.0,0.0,-14.019,-70.746,178.984,-24.747,-10.493,-12.373,28.48,-0.07791,-0.57364,0.10477,-0.80856,351,0.748,-0.057,0.666,0.122,0.0,0.061,-4.878,-48.351,-118.96,-22.767,-8.413,-1.267,26.23,-0.44781,0.37222,0.17432,0.79398,347,0.606,-0.041,0.786,0.305,0.061,0.366,-2.911,-37.87,158.917,-15.467,-9.447,-26.787,29.9,0.18088,0.31467,-0.08279,0.92807,355,0.961,0.012,0.22,0.366,0.183,-0.061,3.203,-77.108,-167.377,-28.553,-12.0,-2.54,31.37,0.10336,-0.61685,-0.09027,-0.77496,327
88,0.965,-0.08,0.327,-0.122,0.0,0.0,-14.019,-70.746,179.0,-24.747,-10.493,-12.373,28.48,-0.07791,-0.57364,0.10477,-0.80856,364,0.75,-0.057,0.666,-0.122,0.0,0.0,-4.883,-48.351,-118.949,-22.767,-8.413,-1.267,26.23,-0.44781,0.37222,0.17432,0.79398,360,0.61,-0.04,0.784,-0.183,0.0,0.0,-2.917,-37.87,158.901,-15.467,-9.447,-26.787,29.9,0.18088,0.31467,-0.08279,0.92807,368,0.962,0.013,0.22,0.183,0.244,-0.122,3.208,-77.108,-167.377,-28.553,-12.0,-2.54,31.37,0.10336,-0.61685,-0.09027,-0.77496,340
89,0.965,-0.081,0.326,0.0,-0.183,0.0,-14.019,-70.752,179.017,-24.747,-10.493,-12.373,28.48,-0.07791,-0.57364,0.10477,-0.80856,365,0.75,-0.056,0.665,-0.183,0.0,0.0,-4.883,-48.351,-118.949,-22.767,-8.413,-1.267,26.23,-0.44781,0.37222,0.17432,0.79398,361,0.609,-0.038,0.785,-0.549,-0.244,0.0,-2.928,-37.87,158.89,-15.467,-9.447,-26.787,29.9,0.18088,0.31467,-0.08279,0.92807,369,0.96,0.011,0.22,0.122,0.183,-0.183,3.219,-77.102,-167.366,-28.553,-12.0,-2.54,31.37,0.10336,-0.61685,-0.09027,-0.77496,341
90,0.965,-0.079,0.326,0.0,-0.183,0.0,-14.019,-70.752,179.017,-24.747,-10.493,-12.373,28.48,-0.07791,-0.57364,0.10477,-0.80856,366,0.75,-0.058,0.664,0.0,0.0,0.0,-4.889,-48.351,-118.954,-22.767,-8.413,-1.267,26.23,-0.44781,0.37222,0.17432,0.79398,362,0.61,-0.041,0.783,-0.366,0.0,0.061,-2.933,-37.87,158.879,-15.467,-9.447,-26.787,29.9,0.18088,0.31467,-0.08279,0.92807,370,0.962,0.014,0.217,0.122,0.244,-0.183,3.23,-77.097,-167.388,-28.553,-12.0,-2.54,31.37,0.10336,-0.61685,-0.09027,-0.77496,342
91,0.965,-0.081,0.326,0.0,-0.183,0.0,-14.019,-70.752,179.017,-24.747,-10.493,-12.373,28.48,-0.07791,-0.57364,0.10477,-0.80856,367,0.75,-0.056,0.665,-0.183,0.0,0.0,-4.883,-48.351,-118.949,-22.767,-8.413,-1.267,26.23,-0.44781,0.37222,0.17432,0.79398,363,0.609,-0.038,0.785,-0.549,-0.244,0.0,-2.928,-37.87,158.89,-15.467,-9.447,-26.787,29.9,0.18088,0.31467,-0.08279,0.92807,371,0.96,0.011,0.22,0.122,0.183,-0.183,3.219,-77.102,-167.366,-28.553,-12.0,-2.54,31.37,0.10336,-0.61685,-0.09027,-0.77496,343
92,0.966,-0.079,0.326,0.0,-0.183,0.0,-14.019,-70.752,179.017,-24.96,-9.8,-11.953,28.48,-0.07791,-0.57364,0.10477,-0.80856,380,0.751,-0.058,0.664,0.0,0.0,0.0,-4.889,-48.351,-118.954,-22.767,-8.413,-1.267,26.23,-0.44781,0.37222,0.17432,0.79398,376,0.611,-0.041,0.783,-0.366,0.0,0.061,-2.933,-37.87,158.879,-15.467,-9.447,-26.787,29.9,0.18088,0.31467,-0.08279,0.92807,384,0.96,0.014,0.217,0.122,0.244,-0.183,3.23,-77.097,-167.388,-28.553,-12.0,-2.54,31.37,0.10336,-0.61685,-0.09027,-0.77496,356
93,0.965,-0.079,0.326,0.061,-0.122,0.0,-14.019,-70.757,179.0,-24.96,-9.8,-11.953,28.48,-0.07791,-0.57364,0.10477,-0.80856,381,0.751,-0.058,0.665,0.122,0.0,-0.061,-4.889,-48.351,-118.965,-22.767,-8.413,-1.267,26.23,-0.44781,0.37222,0.17432,0.79398,377,0.612,-0.042,0.785,0.0,0.183,-0.183,-2.933,-37.864,158.868,-15.467,-9.447,-26.787,29.9,0.18088,0.31467,-0.08279,0.92807,385,0.961,0.013,0.22,0.0,0.122,-0.122,3.241,-77.097,-167.399,-28.553,-12.0,-2.54,31.37,0.10336,-0.61685,-0.09027,-0.77496,357
94,0.966,-0.081,0.325,0.122,-0.061,0.0,-14.013,-70.757,178.984,-24.96,-9.8,-11.953,28.48,-0.07791,-0.57364,0.10477,-0.80856,382,0.751,-0.056,0.664,0.183,0.0,-0.122,-4.883,-48.351,-118.971,-22.767,-8.413,-1.267,26.23,-0.44781,0.37222,0.17432,0.79398,378,0.611,-0.039,0.784,0.0,0.061,-0.305,-2.928,-37.864,158.857,-15.467,-9.447,-26.787,29.9,0.18088,0.31467,-0.08279,0.92807,386,0.96,0.011,0.219,0.061,0.0,-0.061,3.246,-77.097,-167.393,-28.553,-12.0,-2.54,31.37,0.10336,-0.61685,-0.09027,-0.77496,358
95,0.965,-0.079,0.326,0.061,-0.122,0.0,-14.019,-70.757,179.0,-24.96,-9.8,-11.953,28.48,-0.07791,-0.57364,0.10477,-0.80856,383,0.751,-0.058,0.665,0.122,0.0,-0.061,-4.889,-48.351,-118.965,-22.767,-8.413,-1.267,26.23,-0.44781,0.37222,0.17432,0.79398,379,0.612,-0.042,0.785,0.0,0.183,-0.183,-2.933,-37.864,158.868,-15.467,-9.447,-26.787,29.9,0.18088,0.31467,-0.08279,0.92807,387,0.961,0.013,0.22,0.0,0.122,-0.122,3.241,-77.097,-167.399,-28.553,-12.0,-2.54,31.37,0.10336,-0.61685,-0.09027,-0.77496,359
96,0.963,-0.081,0.325,0.122,-0.061,0.0,-14.013,-70.757,178.984,-24.96,-9.8,-11.953,28.48,-0.07791,-0.57364,0.10477,-0.80856,396,0.75,-0.056,0.664,0.183,0.0,-0.122,-4.883,-48.351,-118.971,-22.767,-8.413,-1.267,26.23,-0.44781,0.37222,0.17432,0.79398,392,0.61,-0.039,0.784,0.0,0.061,-0.305,-2.928,-37.864,158.857,-15.467,-9.447,-26.787,29.9,0.18088,0.31467,-0.08279,0.92807,400,0.962,0.011,0.219,0.061,0.0,-0.061,3.246,-77.097,-167.393,-28.553,-12.0,-2.54,31.37,0.10336,-0.61685,-0.09027,-0.77496,372
97,0.963,-0.081,0.326,0.061,0.0,0.0,-14.013,-70.763,178.973,-24.96,-9.8,-11.953,28.48,-0.07791,-0.57364,0.10477,-0.80856,397,0.749,-0.055,0.663,0.183,0.0,0.0,-4.878,-48.351,-118.976,-22.767,-8.413,-1.267,26.23,-0.44781,0.37222,0.17432,0.79398,393,0.609,-0.037,0.783,0.061,-0.061,-0.122,-2.928,-37.864,158.862,-15.467,-9.447,-26.787,29.9,0.18088,0.31467,-0.08279,0.92807,401,0.963,0.013,0.218,0.061,-0.061,-0.061,3.252,-77.097,-167.382,-28.553,-12.0,-2.54,31.37,0.10336,-0.61685,-0.09027,-0.77496,373
98,0.963,-0.08,0.324,0.0,0.0,0.0,-14.008,-70.763,178.967,-24.96,-9.8,-11.953,28.48,-0.07791,-0.57364,0.10477,-0.80856,398,0.75,-0.055,0.663,0.183,0.0,0.061,-4.878,-48.351,-118.976,-22.767,-8.413,-1.267,26.23,-0.44781,0.37222,0.17432,0.79398,394,0.61,-0.038,0.782,0.122,0.061,0.061,-2.922,-37.864,158.862,-15.467,-9.447,-26.787,29.9,0.18088,0.31467,-0.08279,0.92807,402,0.962,0.014,0.217,0.183,0.0,0.0,3.252,-77.097,-167.36,-28.553,-12.0,-2.54,31.37,0.10336,-0.61685,-0.09027,-0.77496,374
99,0.963,-0.081,0.326,0.061,0.0,0.0,-14.013,-70.763,178.973,-24.96,-9.8,-11.953,28.48,-0.07791,-0.57364,0.10477,-0.80856,399,0.749,-0.055,0.663,0.183,0.0,0.0,-4.878,-48.351,-118.976,-22.767,-8.413,-1.267,26.23,-0.44781,0.37222,0.17432,0.79398,395,0.609,-0.037,0.783,0.061,-0.061,-0.122,-2.928,-37.864,158.862,-15.467,-9.447,-26.787,29.9,0.18088,0.31467,-0.08279,0.92807,403,0.963,0.013,0.218,0.061,-0.061,-0.061,3.252,-77.097,-167.382,-28.553,-12.0,-2.54,31.37,0.10336,-0.61685,-0.09027,-0.77496,375
100,0.964,-0.08,0.324,0.0,0.0,0.0,-14.008,-70.763,178.967,-24.96,-9.8,-11.953,28.48,-0.07785,-0.57376,0.10458,-0.80853,440,0.75,-0.055,0.663,0.183,0.0,0.061,-4.878,-48.351,-118.976,-22.767,-8.413,-1.267,26.23,-0.44781,0.37222,0.17432,0.79398,408,0.609,-0.038,0.782,0.122,0.061,0.061,-2.922,-37.864,158.862,-15.467,-9.447,-26.787,29.9,0.18088,0.31467,-0.08279,0.92807,416,0.963,0.014,0.217,0.183,0.0,0.0,3.252,-77.097,-167.36,-28.553,-12.0,-2.54,31.37,0.10336,-0.61685,-0.09027,-0.77496,388
101,0.965,-0.08,0.327,0.0,0.0,0.0,-14.008,-70.763,178.956,-24.96,-9.8,-11.953,28.48,-0.07785,-0.57376,0.10458,-0.80853,441,0.751,-0.056,0.664,0.122,0.0,0.061,-4.872,-48.351,-118.982,-22.767,-8.413,-1.267,26.23,-0.44781,0.37222,0.17432,0.79398,409,0.611,-0.039,0.784,0.0,0.244,0.0,-2.922,-37.859,158.851,-15.467,-9.447,-26.787,29.9,0.18088,0.31467,-0.08279,0.92807,417,0.961,0.012,0.217,0.122,0.0,0.0,3.257,-77.097,-167.344,-28.553,-12.0,-2.54,31.37,0.10336,-0.61685,-0.09027,-0.77496,389
102,0.964,-0.082,0.325,0.0,-0.061,0.0,-14.002,-70.763,178.945,-24.96,-9.8,-11.953,28.48,-0.07785,-0.57376,0.10458,-0.80853,442,0.75,-0.058,0.664,0.0,0.0,0.0,-4.872,-48.351,-118.982,-22.767,-8.413,-1.267,26.23,-0.44781,0.37222,0.17432,0.79398,410,0.609,-0.039,0.784,0.0,0.305,0.061,-2.922,-37.853,158.835,-15.467,-9.447,-26.787,29.9,0.18088,0.31467,-0.08279,0.92807,418,0.963,0.012,0.217,0.122,0.0,0.0,3.257,-77.102,-167.327,-28.553,-12.0,-2.54,31.37,0.10336,-0.61685,-0.09027,-0.77496,390
103,0.965,-0.08,0.327,0.0,0.0,0.0,-14.008,-70.763,178.956,-24.96,-9.8,-11.953,28.48,-0.07785,-0.57376,0.10458,-0.80853,443,0.751,-0.056,0.664,0.122,0.0,0.061,-4.872,-48.351,-118.982,-22.767,-8.413,-1.267,26.23,-0.44781,0.37222,0.17432,0.79398,411,0.611,-0.039,0.784,0.0,0.244,0.0,-2.922,-37.859,158.851,-15.467,-9.447,-26.787,29.9,0.18088,0.31467,-0.08279,0.92807,419,0.961,0.012,0.217,0.122,0.0,0.0,3.257,-77.097,-167.344,-28.553,-12.0,-2.54,31.37,0.10336,-0.61685,-0.09027,-0.77496,391
104,0.965,-0.082,0.325,0.0,-0.061,0.0,-14.002,-70.763,178.945,-24.96,-9.8,-11.953,28.48,-0.07785,-0.57376,0.10458,-0.80853,444,0.751,-0.058,0.664,0.0,0.0,0.0,-4.872,-48.351,-118.982,-22.767,-8.413,-1.267,26.23,-0.44781,0.37222,0.17432,0.79398,412,0.612,-0.039,0.784,0.0,0.305,0.061,-2.922,-37.853,158.835,-15.467,-9.447,-26.787,29.9,0.18088,0.31467,-0.08279,0.92807,420,0.961,0.012,0.217,0.122,0.0,0.0,3.257,-77.102,-167.327,-28.553,-12.0,-2.54,31.37,0.10336,-0.61685,-0.09027,-0.77496,404
105,0.965,-0.082,0.328,0.061,0.0,0.0,-14.002,-70.763,178.934,-24.96,-9.8,-11.953,28.48,-0.07785,-0.57376,0.10458,-0.80853,445,0.751,-0.059,0.663,0.0,0.0,0.061,-4.872,-48.351,-118.982,-22.767,-8.413,-1.267,26.23,-0.44781,0.37222,0.17432,0.79398,413,0.611,-0.041,0.783,-0.061,0.0,0.122,-2.928,-37.853,158.818,-15.467,-9.447,-26.787,29.9,0.18088,0.31467,-0.08279,0.92807,421,0.962,0.012,0.217,0.183,0.0,0.0,3.257,-77.102,-167.316,-28.553,-12.0,-2.54,31.37,0.10336,-0.61685,-0.09027,-0.77496,405
106,0.965,-0.081,0.326,0.122,0.0,0.0,-14.002,-70.763,178.929,-24.96,-9.8,-11.953,28.48,-0.07785,-0.57376,0.10458,-0.80853,446,0.751,-0.061,0.664,0.061,0.0,0.0,-4.872,-48.351,-118.987,-22.767,-8.413,-1.267,26.23,-0.44781,0.37222,0.17432,0.79398,414,0.612,-0.043,0.783,0.183,0.122,0.122,-2.922,-37.848,158.791,-15.467,-9.447,-26.787,29.9,0.18088,0.31467,-0.08279,0.92807,422,0.961,0.013,0.217,0.183,0.0,0.0,3.263,-77.102,-167.3,-28.553,-12.0,-2.54,31.37,0.10336,-0.61685,-0.09027,-0.77496,406
107,0.965,-0.082,0.328,0.061,0.0,0.0,-14.002,-70.763,178.934,-24.96,-9.8,-11.953,28.48,-0.07785,-0.57376,0.10458,-0.80853,447,0.751,-0.059,0.663,0.0,0.0,0.061,-4.872,-48.351,-118.982,-22.767,-8.413,-1.267,26.23,-0.44781,0.37222,0.17432,0.79398,415,0.611,-0.041,0.783,-0.061,0.0,0.122,-2.928,-37.853,158.818,-15.467,-9.447,-26.787,29.9,0.18088,0.31467,-0.08279,0.92807,423,0.962,0.012,0.217,0.183,0.0,0.0,3.257,-77.102,-167.316,-28.553,-12.0,-2.54,31.37,0.10336,-0.61685,-0.09027,-0.77496,407
108,0.963,-0.081,0.326,0.122,0.0,0.0,-14.002,-70.763,178.929,-24.96,-9.8,-11.953,28.48,-0.07785,-0.57376,0.10458,-0.80853,456,0.749,-0.061,0.664,0.061,0.0,0.0,-4.872,-48.351,-118.987,-22.767,-8.413,-1.267,26.23,-0.44781,0.37222,0.17432,0.79398,432,0.609,-0.043,0.783,0.183,0.122,0.122,-2.922,-37.848,158.791,-15.207,-9.827,-27.847,29.9,0.18088,0.31467,-0.08279,0.92807,436,0.963,0.013,0.217,0.183,0.0,0.0,3.263,-77.102,-167.3,-28.553,-12.0,-2.54,31.37,0.10336,-0.61685,-0.09027,-0.77496,424
109,0.962,-0.081,0.326,0.0,0.061,0.0,-13.997,-70.763,178.918,-24.96,-9.8,-11.953,28.48,-0.07785,-0.57376,0.10458,-0.80853,457,0.746,-0.062,0.665,0.244,0.061,-0.122,-4.872,-48.351,-118.987,-22.767,-8.413,-1.267,26.23,-0.44781,0.37222,0.17432,0.79398,433,0.606,-0.045,0.784,0.671,0.61,0.0,-2.911,-37.837,158.752,-15.207,-9.827,-27.847,29.9,0.18088,0.31467,-0.08279,0.92807,437,0.963,0.011,0.218,0.122,0.122,0.0,3.263,-77.102,-167.289,-28.553,-12.0,-2.54,31.37,0.10336,-0.61685,-0.09027,-0.77496,425
110,0.963,-0.082,0.327,0.0,0.0,0.0,-13.997,-70.763,178.907,-24.96,-9.8,-11.953,28.48,-0.07785,-0.57376,0.10458,-0.80853,458,0.749,-0.06,0.667,0.305,0.061,-0.244,-4.867,-48.351,-118.998,-22.767,-8.413,-1.267,26.23,-0.44781,0.37222,0.17432,0.79398,434,0.609,-0.044,0.785,0.732,0.427,-0.305,-2.895,-37.831,158.725,-15.207,-9.827,-27.847,29.9,0.18088,0.31467,-0.08279,0.92807,438,0.963,0.01,0.216,0.122,0.122,0.0,3.263,-77.102,-167.272,-28.553,-12.0,-2.54,31.37,0.10336,-0.61685,-0.09027,-0.77496,426
111,0.962,-0.081,0.326,0.0,0.061,0.0,-13.997,-70.763,178.918,-24.96,-9.8,-11.953,28.48,-0.07785,-0.57376,0.10458,-0.80853,459,0.746,-0.062,0.665,0.244,0.061,-0.122,-4.872,-48.351,-118.987,-22.767,-8.413,-1.267,26.23,-0.44781,0.37222,0.17432,0.79398,435,0.606,-0.045,0.784,0.671,0.61,0.0,-2.911,-37.837,158.752,-15.207,-9.827,-27.847,29.9,0.18088,0.31467,-0.08279,0.92807,439,0.963,0.011,0.218,0.122,0.122,0.0,3.263,-77.102,-167.289,-28.553,-12.0,-2.54,31.37,0.10336,-0.61685,-0.09027,-0.77496,427
112,0.962,-0.082,0.327,0.0,0.0,0.0,-13.997,-70.763,178.907,-24.96,-9.8,-11.953,28.48,-0.07785,-0.57376,0.10458,-0.80853,460,0.747,-0.06,0.667,0.305,0.061,-0.244,-4.867,-48.351,-118.998,-22.767,-8.413,-1.267,26.23,-0.44781,0.37222,0.17432,0.79398,452,0.604,-0.044,0.785,0.732,0.427,-0.305,-2.895,-37.831,158.725,-15.207,-9.827,-27.847,29.9,0.18088,0.31467,-0.08279,0.92807,464,0.964,0.01,0.216,0.122,0.122,0.0,3.263,-77.102,-167.272,-28.553,-12.0,-2.54,31.37,0.10336,-0.61685,-0.09027,-0.77496,428
113,0.965,-0.081,0.327,0.0,-0.122,0.0,-13.997,-70.763,178.901,-24.96,-9.8,-11.953,28.48,-0.07785,-0.57376,0.10458,-0.80853,461,0.751,-0.056,0.666,0.244,0.061,-0.244,-4.856,-48.351,-119.009,-22.767,-8.413,-1.267,26.23,-0.44781,0.37222,0.17432,0.79398,453,0.61,-0.04,0.787,0.488,0.305,-0.549,-2.878,-37.826,158.73,-15.207,-9.827,-27.847,29.9,0.18088,0.31467,-0.08279,0.92807,465,0.962,0.01,0.219,0.122,0.183,0.0,3.263,-77.102,-167.261,-28.553,-12.0,-2.54,31.37,0.10336,-0.61685,-0.09027,-0.77496,429
114,0.962,-0.082,0.328,0.122,-0.122,0.0,-13.997,-70.768,178.89,-24.96,-9.8,-11.953,28.48,-0.07785,-0.57376,0.10458,-0.80853,462,0.747,-0.056,0.666,0.305,-0.061,0.0,-4.85,-48.345,-119.015,-22.767,-8.413,-1.267,26.23,-0.44781,0.37222,0.17432,0.79398,454,0.604,-0.035,0.788,-0.305,0.122,-1.221,-2.862,-37.82,158.708,-15.207,-9.827,-27.847,29.9,0.18088,0.31467,-0.08279,0.92807,466,0.964,0.011,0.218,0.061,0.183,0.0,3.263,-77.097,-167.25,-28.553,-12.0,-2.54,31.37,0.10336,-0.61685,-0.09027,-0.77496,430
115,0.965,-0.081,0.327,0.0,-0.122,0.0,-13.997,-70.763,178.901,-24.96,-9.8,-11.953,28.48,-0.07785,-0.57376,0.10458,-0.80853,463,0.751,-0.056,0.666,0.244,0.061,-0.244,-4.856,-48.351,-119.009,-22.767,-8.413,-1.267,26.23,-0.44781,0.37222,0.17432,0.79398,455,0.61,-0.04,0.787,0.488,0.305,-0.549,-2.878,-37.826,158.73,-15.207,-9.827,-27.847,29.9,0.18088,0.31467,-0.08279,0.92807,467,0.962,0.01,0.219,0.122,0.183,0.0,3.263,-77.102,-167.261,-28.553,-12.0,-2.54,31.37,0.10336,-0.61685,-0.09027,-0.77496,431
116,0.964,-0.082,0.328,0.122,-0.122,0.0,-13.997,-70.768,178.89,-24.96,-9.8,-11.953,28.48,-0.07785,-0.57376,0.10458,-0.80853,472,0.75,-0.056,0.666,0.305,-0.061,0.0,-4.85,-48.345,-119.015,-22.78,-8.133,-1.74,26.23,-0.44781,0.37222,0.17432,0.79398,476,0.611,-0.035,0.788,-0.305,0.122,-1.221,-2.862,-37.82,158.708,-15.207,-9.827,-27.847,29.9,0.18253,0.31406,-0.08316,0.92792,488,0.961,0.011,0.218,0.061,0.183,0.0,3.263,-77.097,-167.25,-27.9,-12.107,-3.487,31.37,0.10336,-0.61685,-0.09027,-0.77496,448
117,0.962,-0.082,0.327,0.122,-0.244,0.0,-13.997,-70.768,178.885,-24.96,-9.8,-11.953,28.48,-0.07785,-0.57376,0.10458,-0.80853,473,0.749,-0.062,0.664,0.549,0.0,0.488,-4.845,-48.351,-119.015,-22.78,-8.133,-1.74,26.23,-0.44781,0.37222,0.17432,0.79398,477,0.606,-0.039,0.782,0.305,0.305,0.061,-2.862,-37.815,158.719,-15.207,-9.827,-27.847,29.9,0.18253,0.31406,-0.08316,0.92792,489,0.96,0.011,0.22,0.061,0.183,0.0,3.257,-77.097,-167.234,-27.9,-12.107,-3.487,31.37,0.10336,-0.61685,-0.09027,-0.77496,449
118,0.964,-0.082,0.326,0.0,-0.122,0.0,-13.997,-70.774,178.879,-24.96,-9.8,-11.953,28.48,-0.07785,-0.57376,0.10458,-0.80853,474,0.75,-0.055,0.664,0.244,0.244,0.183,-4.85,-48.345,-119.004,-22.78,-8.133,-1.74,26.23,-0.44781,0.37222,0.17432,0.79398,478,0.611,-0.045,0.784,-0.061,0.61,-0.549,-2.851,-37.804,158.714,-15.207,-9.827,-27.847,29.9,0.18253,0.31406,-0.08316,0.92792,490,0.961,0.01,0.22,0.0,0.061,0.0,3.257,-77.097,-167.223,-27.9,-12.107,-3.487,31.37,0.10336,-0.61685,-0.09027,-0.77496,450
119,0.962,-0.082,0.327,0.122,-0.244,0.0,-13.997,-70.768,178.885,-24.96,-9.8,-11.953,28.48,-0.07785,-0.57376,0.10458,-0.80853,475,0.749,-0.062,0.664,0.549,0.0,0.488,-4.845,-48.351,-119.015,-22.78,-8.133,-1.74,26.23,-0.44781,0.37222,0.17432,0.79398,479,0.606,-0.039,0.782,0.305,0.305,0.061,-2.862,-37.815,158.719,-15.207,-9.827,-27.847,29.9,0.18253,0.31406,-0.08316,0.92792,491,0.96,0.011,0.22,0.061,0.183,0.0,3.257,-77.097,-167.234,-27.9,-12.107,-3.487,31.37,0.10336,-0.61685,-0.09027,-0.77496,451
120,0.963,-0.082,0.326,0.0,-0.122,0.0,-13.997,-70.774,178.879,-24.96,-9.8,-11.953,28.48,-0.07785,-0.57376,0.10458,-0.80853,484,0.751,-0.055,0.664,0.244,0.244,0.183,-4.85,-48.345,-119.004,-22.78,-8.133,-1.74,26.23,-0.44781,0.37222,0.17432,0.79398,480,0.61,-0.045,0.784,-0.061,0.61,-0.549,-2.851,-37.804,158.714,-15.207,-9.827,-27.847,29.9,0.18253,0.31406,-0.08316,0.92792,492,0.961,0.01,0.22,0.0,0.061,0.0,3.257,-77.097,-167.223,-27.9,-12.107,-3.487,31.37,0.10458,-0.61655,-0.0914,-0.7749,468
121,0.967,-0.082,0.327,0.061,-0.183,0.0,-13.997,-70.774,178.874,-24.96,-9.8,-11.953,28.48,-0.07785,-0.57376,0.10458,-0.80853,485,0.75,-0.051,0.668,0.0,0.0,0.0,-4.85,-48.34,-119.004,-22.78,-8.133,-1.74,26.23,-0.44781,0.37222,0.17432,0.79398,481,0.609,-0.033,0.788,-0.549,0.183,-1.221,-2.845,-37.798,158.687,-15.207,-9.827,-27.847,29.9,0.18253,0.31406,-0.08316,0.92792,493,0.964,0.01,0.221,0.122,0.0,0.0,3.252,-77.097,-167.206,-27.9,-12.107,-3.487,31.37,0.10458,-0.61655,-0.0914,-0.7749,469
122,0.963,-0.077,0.323,0.244,-0.183,0.0,-13.997,-70.779,178.868,-24.96,-9.8,-11.953,28.48,-0.07785,-0.57376,0.10458,-0.80853,486,0.751,-0.052,0.666,0.427,-0.061,0.122,-4.85,-48.34,-119.009,-22.78,-8.133,-1.74,26.23,-0.44781,0.37222,0.17432,0.79398,482,0.61,-0.031,0.789,0.061,-0.305,-0.671,-2.834,-37.809,158.665,-15.207,-9.827,-27.847,29.9,0.18253,0.31406,-0.08316,0.92792,494,0.961,0.009,0.22,0.305,-0.061,0.0,3.252,-77.097,-167.195,-27.9,-12.107,-3.487,31.37,0.10458,-0.61655,-0.0914,-0.7749,470
123,0.967,-0.082,0.327,0.061,-0.183,0.0,-13.997,-70.774,178.874,-24.96,-9.8,-11.953,28.48,-0.07785,-0.57376,0.10458,-0.80853,487,0.75,-0.051,0.668,0.0,0.0,0.0,-4.85,-48.34,-119.004,-22.78,-8.133,-1.74,26.23,-0.44781,0.37222,0.17432,0.79398,483,0.609,-0.033,0.788,-0.549,0.183,-1.221,-2.845,-37.798,158.687,-15.207,-9.827,-27.847,29.9,0.18253,0.31406,-0.08316,0.92792,495,0.964,0.01,0.221,0.122,0.0,0.0,3.252,-77.097,-167.206,-27.9,-12.107,-3.487,31.37,0.10458,-0.61655,-0.0914,-0.7749,471
124,0.967,-0.077,0.323,0.244,-0.183,0.0,-13.997,-70.779,178.868,-24.96,-9.8,-11.953,28.48,-0.07785,-0.57376,0.10458,-0.80853,508,0.753,-0.052,0.666,0.427,-0.061,0.122,-4.85,-48.34,-119.009,-22.78,-8.133,-1.74,26.23,-0.44781,0.37222,0.17432,0.79398,504,0.61,-0.031,0.789,0.061,-0.305,-0.671,-2.834,-37.809,158.665,-15.207,-9.827,-27.847,29.9,0.18253,0.31406,-0.08316,0.92792,512,0.96,0.009,0.22,0.305,-0.061,0.0,3.252,-77.097,-167.195,-27.9,-12.107,-3.487,31.37,0.10458,-0.61655,-0.0914,-0.7749,496
125,0.968,-0.079,0.325,0.061,0.0,0.0,-13.991,-70.779,178.857,-24.96,-9.8,-11.953,28.48,-0.07785,-0.57376,0.10458,-0.80853,509,0.757,-0.054,0.663,0.549,-0.183,0.427,-4.845,-48.34,-119.004,-22.78,-8.133,-1.74,26.23,-0.44781,0.37222,0.17432,0.79398,505,0.615,-0.036,0.784,0.305,-0.244,-0.305,-2.823,-37.809,158.654,-15.207,-9.827,-27.847,29.9,0.18253,0.31406,-0.08316,0.92792,513,0.961,0.01,0.217,0.061,0.061,-0.305,3.268,-77.097,-167.206,-27.9,-12.107,-3.487,31.37,0.10458,-0.61655,-0.0914,-0.7749,497
126,0.967,-0.081,0.325,0.122,-0.122,0.0,-13.991,-70.779,178.852,-24.96,-9.8,-11.953,28.48,-0.07785,-0.57376,0.10458,-0.80853,510,0.753,-0.056,0.662,0.183,0.0,0.427,-4.845,-48.345,-118.993,-22.78,-8.133,-1.74,26.23,-0.44781,0.37222,0.17432,0.79398,506,0.61,-0.036,0.784,-0.427,0.0,-0.366,-2.823,-37.809,158.648,-15.207,-9.827,-27.847,29.9,0.18253,0.31406,-0.08316,0.92792,514,0.96,0.011,0.221,0.0,0.122,-0.244,3.285,-77.097,-167.217,-27.9,-12.107,-3.487,31.37,0.10458,-0.61655,-0.0914,-0.7749,498
127,0.968,-0.079,0.325,0.061,0.0,0.0,-13.991,-70.779,178.857,-24.96,-9.8,-11.953,28.48,-0.07785,-0.57376,0.10458,-0.80853,511,0.757,-0.054,0.663,0.549,-0.183,0.427,-4.845,-48.34,-119.004,-22.78,-8.133,-1.74,26.23,-0.44781,0.37222,0.17432,0.79398,507,0.615,-0.036,0.784,0.305,-0.244,-0.305,-2.823,-37.809,158.654,-15.207,-9.827,-27.847,29.9,0.18253,0.31406,-0.08316,0.92792,515,0.961,0.01,0.217,0.061,0.061,-0.305,3.268,-77.097,-167.206,-27.9,-12.107,-3.487,31.37,0.10458,-0.61655,-0.0914,-0.7749,499
128,0.966,-0.081,0.325,0.122,-0.122,0.0,-13.991,-70.779,178.852,-24.96,-9.8,-11.953,28.48,-0.07785,-0.57376,0.10458,-0.80853,524,0.752,-0.056,0.662,0.183,0.0,0.427,-4.845,-48.345,-118.993,-22.78,-8.133,-1.74,26.23,-0.4476,0.37207,0.17435,0.79416,520,0.614,-0.036,0.784,-0.427,0.0,-0.366,-2.823,-37.809,158.648,-15.207,-9.827,-27.847,29.9,0.18253,0.31406,-0.08316,0.92792,528,0.964,0.011,0.221,0.0,0.122,-0.244,3.285,-77.097,-167.217,-27.9,-12.107,-3.487,31.37,0.10458,-0.61655,-0.0914,-0.7749,500
129,0.964,-0.079,0.323,0.122,0.0,0.0,-13.986,-70.785,178.846,-24.96,-9.8,-11.953,28.48,-0.07785,-0.57376,0.10458,-0.80853,525,0.748,-0.059,0.661,0.122,0.061,0.305,-4.85,-48.345,-118.982,-22.78,-8.133,-1.74,26.23,-0.4476,0.37207,0.17435,0.79416,521,0.608,-0.041,0.781,-0.061,0.0,0.122,-2.829,-37.815,158.659,-15.207,-9.827,-27.847,29.9,0.18253,0.31406,-0.08316,0.92792,529,0.962,0.015,0.218,0.244,0.122,0.0,3.29,-77.091,-167.206,-27.9,-12.107,-3.487,31.37,0.10458,-0.61655,-0.0914,-0.7749,501
130,0.966,-0.079,0.325,0.0,0.122,0.0,-13.98,-70.785,178.835,-24.96,-9.8,-11.953,28.48,-0.07785,-0.57376,0.10458,-0.80853,526,0.752,-0.059,0.662,0.061,0.061,0.183,-4.85,-48.345,-118.976,-22.78,-8.133,-1.74,26.23,-0.4476,0.37207,0.17435,0.79416,522,0.614,-0.041,0.783,-0.061,-0.122,-0.122,-2.829,-37.815,158.659,-15.207,-9.827,-27.847,29.9,0.18253,0.31406,-0.08316,0.92792,530,0.964,0.015,0.215,0.183,0.122,0.0,3.29,-77.091,-167.195,-27.9,-12.107,-3.487,31.37,0.10458,-0.61655,-0.0914,-0.7749,502
131,0.964,-0.079,0.323,0.122,0.0,0.0,-13.986,-70.785,178.846,-24.96,-9.8,-11.953,28.48,-0.07785,-0.57376,0.10458,-0.80853,527,0.748,-0.059,0.661,0.122,0.061,0.305,-4.85,-48.345,-118.982,-22.78,-8.133,-1.74,26.23,-0.4476,0.37207,0.17435,0.79416,523,0.608,-0.041,0.781,-0.061,0.0,0.122,-2.829,-37.815,158.659,-15.207,-9.827,-27.847,29.9,0.18253,0.31406,-0.08316,0.92792,531,0.962,0.015,0.218,0.244,0.122,0.0,3.29,-77.091,-167.206,-27.9,-12.107,-3.487,31.37,0.10458,-0.61655,-0.0914,-0.7749,503
132,0.963,-0.079,0.325,0.0,0.122,0.0,-13.98,-70.785,178.835,-24.96,-9.8,-11.953,28.48,-0.07785,-0.57376,0.10458,-0.80853,540,0.748,-0.059,0.662,0.061,0.061,0.183,-4.85,-48.345,-118.976,-22.78,-8.133,-1.74,26.23,-0.4476,0.37207,0.17435,0.79416,536,0.607,-0.041,0.783,-0.061,-0.122,-0.122,-2.829,-37.815,158.659,-15.207,-9.827,-27.847,29.9,0.18253,0.31406,-0.08316,0.92792,544,0.966,0.015,0.215,0.183,0.122,0.0,3.29,-77.091,-167.195,-27.9,-12.107,-3.487,31.37,0.10458,-0.61655,-0.0914,-0.7749,516
133,0.962,-0.081,0.324,0.122,0.183,0.0,-13.975,-70.779,178.824,-24.96,-9.8,-11.953,28.48,-0.07785,-0.57376,0.10458,-0.80853,541,0.747,-0.06,0.664,0.183,0.061,0.244,-4.856,-48.345,-118.976,-22.78,-8.133,-1.74,26.23,-0.4476,0.37207,0.17435,0.79416,537,0.606,-0.041,0.783,-0.122,0.0,-0.061,-2.829,-37.815,158.648,-15.207,-9.827,-27.847,29.9,0.18253,0.31406,-0.08316,0.92792,545,0.964,0.012,0.219,0.061,0.061,0.0,3.29,-77.091,-167.184,-27.9,-12.107,-3.487,31.37,0.10458,-0.61655,-0.0914,-0.7749,517
134,0.963,-0.083,0.326,0.183,0.0,0.0,-13.969,-70.779,178.813,-24.96,-9.8,-11.953,28.48,-0.07785,-0.57376,0.10458,-0.80853,542,0.748,-0.059,0.664,0.427,0.0,0.244,-4.856,-48.345,-118.971,-22.78,-8.133,-1.74,26.23,-0.4476,0.37207,0.17435,0.79416,538,0.607,-0.042,0.783,0.305,0.122,0.0,-2.823,-37.815,158.632,-15.207,-9.827,-27.847,29.9,0.18253,0.31406,-0.08316,0.92792,546,0.966,0.012,0.215,0.061,0.0,0.0,3.29,-77.091,-167.173,-27.9,-12.107,-3.487,31.37,0.10458,-0.61655,-0.0914,-0.7749,518
135,0.962,-0.081,0.324,0.122,0.183,0.0,-13.975,-70.779,178.824,-24.96,-9.8,-11.953,28.48,-0.07785,-0.57376,0.10458,-0.80853,543,0.747,-0.06,0.664,0.183,0.061,0.244,-4.856,-48.345,-118.976,-22.78,-8.133,-1.74,26.23,-0.4476,0.37207,0.17435,0.79416,539,0.606,-0.041,0.783,-0.122,0.0,-0.061,-2.829,-37.815,158.648,-15.207,-9.827,-27.847,29.9,0.18253,0.31406,-0.08316,0.92792,547,0.964,0.012,0.219,0.061,0.061,0.0,3.29,-77.091,-167.184,-27.9,-12.107,-3.487,31.37,0.10458,-0.61655,-0.0914,-0.7749,519
136,0.963,-0.083,0.326,0.183,0.0,0.0,-13.969,-70.779,178.813,-24.893,-10.127,-11.433,28.48,-0.07785,-0.57376,0.10458,-0.80853,564,0.75,-0.059,0.664,0.427,0.0,0.244,-4.856,-48.345,-118.971,-22.78,-8.133,-1.74,26.23,-0.4476,0.37207,0.17435,0.79416,556,0.607,-0.042,0.783,0.305,0.122,0.0,-2.823,-37.815,158.632,-15.207,-9.827,-27.847,29.9,0.18253,0.31406,-0.08316,0.92792,552,0.961,0.012,0.215,0.061,0.0,0.0,3.29,-77.091,-167.173,-27.9,-12.107,-3.487,31.37,0.10458,-0.61655,-0.0914,-0.7749,532
137,0.967,-0.083,0.326,0.244,0.0,0.0,-13.964,-70.779,178.808,-24.893,-10.127,-11.433,28.48,-0.07785,-0.57376,0.10458,-0.80853,565,0.751,-0.057,0.665,0.549,0.061,0.183,-4.856,-48.34,-118.965,-22.78,-8.133,-1.74,26.23,-0.4476,0.37207,0.17435,0.79416,557,0.61,-0.039,0.785,0.671,0.732,0.122,-2.812,-37.798,158.626,-15.207,-9.827,-27.847,29.9,0.18253,0.31406,-0.08316,0.92792,553,0.96,0.013,0.215,0.061,0.122,-0.061,3.296,-77.091,-167.168,-27.9,-12.107,-3.487,31.37,0.10458,-0.61655,-0.0914,-0.7749,533
138,0.963,-0.081,0.329,0.183,0.061,0.0,-13.964,-70.779,178.797,-24.893,-10.127,-11.433,28.48,-0.07785,-0.57376,0.10458,-0.80853,566,0.75,-0.057,0.667,0.549,-0.061,0.183,-4.85,-48.34,-118.965,-22.78,-8.133,-1.74,26.23,-0.4476,0.37207,0.17435,0.79416,558,0.607,-0.038,0.789,0.916,0.488,0.244,-2.796,-37.787,158.632,-15.207,-9.827,-27.847,29.9,0.18253,0.31406,-0.08316,0.92792,554,0.961,0.011,0.215,0.061,0.122,-0.122,3.301,-77.091,-167.162,-27.9,-12.107,-3.487,31.37,0.10458,-0.61655,-0.0914,-0.7749,534
139,0.967,-0.083,0.326,0.244,0.0,0.0,-13.964,-70.779,178.808,-24.893,-10.127,-11.433,28.48,-0.07785,-0.57376,0.10458,-0.80853,567,0.751,-0.057,0.665,0.549,0.061,0.183,-4.856,-48.34,-118.965,-22.78,-8.133,-1.74,26.23,-0.4476,0.37207,0.17435,0.79416,559,0.61,-0.039,0.785,0.671,0.732,0.122,-2.812,-37.798,158.626,-15.207,-9.827,-27.847,29.9,0.18253,0.31406,-0.08316,0.92792,555,0.96,0.013,0.215,0.061,0.122,-0.061,3.296,-77.091,-167.168,-27.9,-12.107,-3.487,31.37,0.10458,-0.61655,-0.0914,-0.7749,535
140,0.965,-0.081,0.329,0.183,0.061,0.0,-13.964,-70.779,178.797,-24.893,-10.127,-11.433,28.48,-0.07886,-0.57376,0.10507,-0.80835,580,0.75,-0.057,0.667,0.549,-0.061,0.183,-4.85,-48.34,-118.965,-22.78,-8.133,-1.74,26.23,-0.4476,0.37207,0.17435,0.79416,560,0.609,-0.038,0.789,0.916,0.488,0.244,-2.796,-37.787,158.632,-15.207,-9.827,-27.847,29.9,0.18253,0.31406,-0.08316,0.92792,584,0.96,0.011,0.215,0.061,0.122,-0.122,3.301,-77.091,-167.162,-27.9,-12.107,-3.487,31.37,0.10458,-0.61655,-0.0914,-0.7749,548
141,0.963,-0.079,0.328,0.061,0.122,0.0,-13.958,-70.779,178.792,-24.893,-10.127,-11.433,28.48,-0.07886,-0.57376,0.10507,-0.80835,581,0.749,-0.055,0.664,0.366,0.0,0.122,-4.845,-48.34,-118.96,-22.78,-8.133,-1.74,26.23,-0.4476,0.37207,0.17435,0.79416,561,0.606,-0.037,0.786,0.488,0.244,0.0,-2.791,-37.782,158.648,-15.207,-9.827,-27.847,29.9,0.18253,0.31406,-0.08316,0.92792,585,0.961,0.01,0.219,0.183,0.122,-0.122,3.318,-77.091,-167.162,-27.9,-12.107,-3.487,31.37,0.10458,-0.61655,-0.0914,-0.7749,549
142,0.965,-0.082,0.328,0.0,0.122,0.0,-13.953,-70.779,178.781,-24.893,-10.127,-11.433,28.48,-0.07886,-0.57376,0.10507,-0.80835,582,0.75,-0.054,0.666,0.0,0.122,0.122,-4.839,-48.34,-118.96,-22.78,-8.133,-1.74,26.23,-0.4476,0.37207,0.17435,0.79416,562,0.609,-0.037,0.787,-0.183,0.061,-0.244,-2.791,-37.782,158.654,-15.207,-9.827,-27.847,29.9,0.18253,0.31406,-0.08316,0.92792,586,0.96,0.009,0.22,0.183,0.183,-0.122,3.323,-77.091,-167.162,-27.9,-12.107,-3.487,31.37,0.10458,-0.61655,-0.0914,-0.7749,550
143,0.963,-0.079,0.328,0.061,0.122,0.0,-13.958,-70.779,178.792,-24.893,-10.127,-11.433,28.48,-0.07886,-0.57376,0.10507,-0.80835,583,0.749,-0.055,0.664,0.366,0.0,0.122,-4.845,-48.34,-118.96,-22.78,-8.133,-1.74,26.23,-0.4476,0.37207,0.17435,0.79416,563,0.606,-0.037,0.786,0.488,0.244,0.0,-2.791,-37.782,158.648,-15.207,-9.827,-27.847,29.9,0.18253,0.31406,-0.08316,0.92792,587,0.961,0.01,0.219,0.183,0.122,-0.122,3.318,-77.091,-167.162,-27.9,-12.107,-3.487,31.37,0.10458,-0.61655,-0.0914,-0.7749,551
144,0.962,-0.082,0.328,0.0,0.122,0.0,-13.953,-70.779,178.781,-24.893,-10.127,-11.433,28.48,-0.07886,-0.57376,0.10507,-0.80835,592,0.749,-0.054,0.666,0.0,0.122,0.122,-4.839,-48.34,-118.96,-22.78,-8.133,-1.74,26.23,-0.4476,0.37207,0.17435,0.79416,576,0.608,-0.037,0.787,-0.183,0.061,-0.244,-2.791,-37.782,158.654,-15.207,-9.827,-27.847,29.9,0.18253,0.31406,-0.08316,0.92792,588,0.964,0.009,0.22,0.183,0.183,-0.122,3.323,-77.091,-167.162,-27.9,-12.107,-3.487,31.37,0.10458,-0.61655,-0.0914,-0.7749,568
145,0.962,-0.081,0.326,0.0,0.0,0.0,-13.953,-70.774,178.77,-24.893,-10.127,-11.433,28.48,-0.07886,-0.57376,0.10507,-0.80835,593,0.747,-0.056,0.665,0.183,0.122,0.244,-4.845,-48.34,-118.96,-22.78,-8.133,-1.74,26.23,-0.4476,0.37207,0.17435,0.79416,577,0.604,-0.033,0.785,0.122,0.061,0.061,-2.785,-37.782,158.676,-15.207,-9.827,-27.847,29.9,0.18253,0.31406,-0.08316,0.92792,589,0.965,0.012,0.219,0.244,0.183,-0.122,3.334,-77.086,-167.162,-27.9,-12.107,-3.487,31.37,0.10458,-0.61655,-0.0914,-0.7749,569
146,0.962,-0.079,0.326,0.0,0.122,0.0,-13.953,-70.774,178.764,-24.893,-10.127,-11.433,28.48,-0.07886,-0.57376,0.10507,-0.80835,594,0.749,-0.059,0.665,0.244,0.122,0.305,-4.845,-48.334,-118.954,-22.78,-8.133,-1.74,26.23,-0.4476,0.37207,0.17435,0.79416,578,0.608,-0.042,0.786,0.793,0.427,0.61,-2.78,-37.771,158.698,-15.207,-9.827,-27.847,29.9,0.18253,0.31406,-0.08316,0.92792,590,0.964,0.013,0.22,0.061,0.244,0.0,3.334,-77.086,-167.151,-27.9,-12.107,-3.487,31.37,0.10458,-0.61655,-0.0914,-0.7749,570
147,0.962,-0.081,0.326,0.0,0.0,0.0,-13.953,-70.774,178.77,-24.893,-10.127,-11.433,28.48,-0.07886,-0.57376,0.10507,-0.80835,595,0.747,-0.056,0.665,0.183,0.122,0.244,-4.845,-48.34,-118.96,-22.78,-8.133,-1.74,26.23,-0.4476,0.37207,0.17435,0.79416,579,0.604,-0.033,0.785,0.122,0.061,0.061,-2.785,-37.782,158.676,-15.207,-9.827,-27.847,29.9,0.18253,0.31406,-0.08316,0.92792,591,0.965,0.012,0.219,0.244,0.183,-0.122,3.334,-77.086,-167.162,-27.9,-12.107,-3.487,31.37,0.10458,-0.61655,-0.0914,-0.7749,571
148,0.963,-0.079,0.326,0.0,0.122,0.0,-13.953,-70.774,178.764,-24.893,-10.127,-11.433,28.48,-0.07886,-0.57376,0.10507,-0.80835,604,0.749,-0.059,0.665,0.244,0.122,0.305,-4.845,-48.334,-118.954,-22.78,-8.133,-1.74,26.23,-0.4476,0.37207,0.17435,0.79416,600,0.607,-0.042,0.786,0.793,0.427,0.61,-2.78,-37.771,158.698,-15.207,-9.827,-27.847,29.9,0.18253,0.31406,-0.08316,0.92792,608,0.961,0.013,0.22,0.061,0.244,0.0,3.334,-77.086,-167.151,-27.9,-12.107,-3.487,31.37,0.10458,-0.61655,-0.0914,-0.7749,572
149,0.965,-0.081,0.326,0.0,0.061,0.0,-13.947,-70.774,178.753,-24.893,-10.127,-11.433,28.48,-0.07886,-0.57376,0.10507,-0.80835,605,0.749,-0.058,0.666,0.0,0.061,0.183,-4.85,-48.334,-118.949,-22.78,-8.133,-1.74,26.23,-0.4476,0.37207,0.17435,0.79416,601,0.608,-0.041,0.786,0.061,0.122,0.0,-2.78,-37.766,158.703,-15.207,-9.827,-27.847,29.9,0.18253,0.31406,-0.08316,0.92792,609,0.961,0.012,0.22,0.0,0.305,0.0,3.334,-77.08,-167.141,-27.9,-12.107,-3.487,31.37,0.10458,-0.61655,-0.0914,-0.7749,573
150,0.963,-0.08,0.326,0.0,0.0,0.0,-13.947,-70.774,178.748,-24.893,-10.127,-11.433,28.48,-0.07886,-0.57376,0.10507,-0.80835,606,0.749,-0.057,0.667,-0.122,0.061,0.122,-4.856,-48.329,-118.949,-22.78,-8.133,-1.74,26.23,-0.4476,0.37207,0.17435,0.79416,602,0.607,-0.039,0.788,-0.305,-0.244,-0.061,-2.785,-37.771,158.719,-15.207,-9.827,-27.847,29.9,0.18253,0.31406,-0.08316,0.92792,610,0.961,0.009,0.22,-0.061,0.305,0.0,3.329,-77.075,-167.13,-27.9,-12.107,-3.487,31.37,0.10458,-0.61655,-0.0914,-0.7749,574
151,0.965,-0.081,0.326,0.0,0.061,0.0,-13.947,-70.774,178.753,-24.893,-10.127,-11.433,28.48,-0.07886,-0.57376,0.10507,-0.80835,607,0.749,-0.058,0.666,0.0,0.061,0.183,-4.85,-48.334,-118.949,-22.78,-8.133,-1.74,26.23,-0.4476,0.37207,0.17435,0.79416,603,0.608,-0.041,0.786,0.061,0.122,0.0,-2.78,-37.766,158.703,-15.207,-9.827,-27.847,29.9,0.18253,0.31406,-0.08316,0.92792,611,0.961,0.012,0.22,0.0,0.305,0.0,3.334,-77.08,-167.141,-27.9,-12.107,-3.487,31.37,0.10458,-0.61655,-0.0914,-0.7749,575
152,0.965,-0.08,0.326,0.0,0.0,0.0,-13.947,-70.774,178.748,-24.893,-10.127,-11.433,28.48,-0.07886,-0.57376,0.10507,-0.80835,620,0.749,-0.057,0.667,-0.122,0.061,0.122,-4.856,-48.329,-118.949,-22.78,-8.133,-1.74,26.23,-0.4476,0.37207,0.17435,0.79416,616,0.605,-0.039,0.788,-0.305,-0.244,-0.061,-2.785,-37.771,158.719,-15.04,-9.667,-26.66,29.9,0.18253,0.31406,-0.08316,0.92792,624,0.96,0.009,0.22,-0.061,0.305,0.0,3.329,-77.075,-167.13,-28.353,-12.18,-2.807,31.37,0.10458,-0.61655,-0.0914,-0.7749,596
153,0.965,-0.079,0.325,0.0,0.0,0.0,-13.947,-70.774,178.742,-24.893,-10.127,-11.433,28.48,-0.07886,-0.57376,0.10507,-0.80835,621,0.752,-0.054,0.666,-0.244,0.061,0.061,-4.861,-48.329,-118.943,-22.78,-8.133,-1.74,26.23,-0.4476,0.37207,0.17435,0.79416,617,0.611,-0.036,0.787,-0.61,-0.366,-0.305,-2.791,-37.776,158.719,-15.04,-9.667,-26.66,29.9,0.18253,0.31406,-0.08316,0.92792,625,0.96,0.013,0.218,0.0,0.244,0.0,3.323,-77.069,-167.119,-28.353,-12.18,-2.807,31.37,0.10458,-0.61655,-0.0914,-0.7749,597
154,0.965,-0.079,0.324,0.0,-0.061,0.0,-13.947,-70.774,178.731,-24.893,-10.127,-11.433,28.48,-0.07886,-0.57376,0.10507,-0.80835,622,0.749,-0.054,0.664,-0.244,0.061,0.061,-4.867,-48.329,-118.949,-22.78,-8.133,-1.74,26.23,-0.4476,0.37207,0.17435,0.79416,618,0.605,-0.034,0.784,-0.427,0.0,-0.122,-2.802,-37.776,158.73,-15.04,-9.667,-26.66,29.9,0.18253,0.31406,-0.08316,0.92792,626,0.96,0.012,0.221,0.0,0.183,0.0,3.318,-77.064,-167.108,-28.353,-12.18,-2.807,31.37,0.10458,-0.61655,-0.0914,-0.7749,598
155,0.965,-0.079,0.325,0.0,0.0,0.0,-13.947,-70.774,178.742,-24.893,-10.127,-11.433,28.48,-0.07886,-0.57376,0.10507,-0.80835,623,0.752,-0.054,0.666,-0.244,0.061,0.061,-4.861,-48.329,-118.943,-22.78,-8.133,-1.74,26.23,-0.4476,0.37207,0.17435,0.79416,619,0.611,-0.036,0.787,-0.61,-0.366,-0.305,-2.791,-37.776,158.719,-15.04,-9.667,-26.66,29.9,0.18253,0.31406,-0.08316,0.92792,627,0.96,0.013,0.218,0.0,0.244,0.0,3.323,-77.069,-167.119,-28.353,-12.18,-2.807,31.37,0.10458,-0.61655,-0.0914,-0.7749,599
156,0.965,-0.079,0.324,0.0,-0.061,0.0,-13.947,-70.774,178.731,-24.893,-10.127,-11.433,28.48,-0.07886,-0.57376,0.10507,-0.80835,636,0.752,-0.054,0.664,-0.244,0.061,0.061,-4.867,-48.329,-118.949,-23.013,-8.293,-1.42,26.23,-0.4476,0.37207,0.17435,0.79416,632,0.611,-0.034,0.784,-0.427,0.0,-0.122,-2.802,-37.776,158.73,-15.04,-9.667,-26.66,29.9,0.18253,0.31406,-0.08316,0.92792,640,0.962,0.012,0.221,0.0,0.183,0.0,3.318,-77.064,-167.108,-28.353,-12.18,-2.807,31.37,0.10568,-0.61621,-0.09241,-0.7749,612
157,0.965,-0.08,0.326,-0.061,0.0,0.0,-13.942,-70.774,178.726,-24.893,-10.127,-11.433,28.48,-0.07886,-0.57376,0.10507,-0.80835,637,0.75,-0.057,0.663,-0.061,0.122,0.061,-4.872,-48.323,-118.949,-23.013,-8.293,-1.42,26.23,-0.4476,0.37207,0.17435,0.79416,633,0.608,-0.038,0.784,0.061,0.0,0.122,-2.802,-37.776,158.763,-15.04,-9.667,-26.66,29.9,0.18253,0.31406,-0.08316,0.92792,641,0.962,0.011,0.22,0.061,0.061,0.0,3.318,-77.064,-167.097,-28.353,-12.18,-2.807,31.37,0.10568,-0.61621,-0.09241,-0.7749,613
158,0.965,-0.08,0.326,0.0,0.0,0.0,-13.942,-70.774,178.72,-24.893,-10.127,-11.433,28.48,-0.07886,-0.57376,0.10507,-0.80835,638,0.752,-0.057,0.663,-0.061,0.0,0.061,-4.872,-48.323,-118.949,-23.013,-8.293,-1.42,26.23,-0.4476,0.37207,0.17435,0.79416,634,0.611,-0.039,0.784,0.061,-0.183,0.0,-2.796,-37.782,158.774,-15.04,-9.667,-26.66,29.9,0.18253,0.31406,-0.08316,0.92792,642,0.962,0.012,0.218,0.0,0.0,0.061,3.307,-77.064,-167.086,-28.353,-12.18,-2.807,31.37,0.10568,-0.61621,-0.09241,-0.7749,614
159,0.965,-0.08,0.326,-0.061,0.0,0.0,-13.942,-70.774,178.726,-24.893,-10.127,-11.433,28.48,-0.07886,-0.57376,0.10507,-0.80835,639,0.75,-0.057,0.663,-0.061,0.122,0.061,-4.872,-48.323,-118.949,-23.013,-8.293,-1.42,26.23,-0.4476,0.37207,0.17435,0.79416,635,0.608,-0.038,0.784,0.061,0.0,0.122,-2.802,-37.776,158.763,-15.04,-9.667,-26.66,29.9,0.18253,0.31406,-0.08316,0.92792,643,0.962,0.011,0.22,0.061,0.061,0.0,3.318,-77.064,-167.097,-28.353,-12.18,-2.807,31.37,0.10568,-0.61621,-0.09241,-0.7749,615
160,0.965,-0.08,0.326,0.0,0.0,0.0,-13.942,-70.774,178.72,-24.893,-10.127,-11.433,28.48,-0.07886,-0.57376,0.10507,-0.80835,652,0.75,-0.057,0.663,-0.061,0.0,0.061,-4.872,-48.323,-118.949,-23.013,-8.293,-1.42,26.23,-0.4476,0.37207,0.17435,0.79416,648,0.609,-0.039,0.784,0.061,-0.183,0.0,-2.796,-37.782,158.774,-15.04,-9.667,-26.66,29.9,0.18201,0.31381,-0.08234,0.92816,656,0.962,0.012,0.218,0.0,0.0,0.061,3.307,-77.064,-167.086,-28.353,-12.18,-2.807,31.37,0.10568,-0.61621,-0.09241,-0.7749,628
161,0.965,-0.08,0.325,0.0,0.061,0.0,-13.942,-70.774,178.709,-24.893,-10.127,-11.433,28.48,-0.07886,-0.57376,0.10507,-0.80835,653,0.75,-0.055,0.664,0.0,0.0,0.061,-4.872,-48.323,-118.949,-23.013,-8.293,-1.42,26.23,-0.4476,0.37207,0.17435,0.79416,649,0.609,-0.036,0.785,0.061,-0.244,-0.122,-2.796,-37.782,158.774,-15.04,-9.667,-26.66,29.9,0.18201,0.31381,-0.08234,0.92816,657,0.963,0.015,0.218,0.0,0.0,0.061,3.301,-77.069,-167.069,-28.353,-12.18,-2.807,31.37,0.10568,-0.61621,-0.09241,-0.7749,629
162,0.965,-0.08,0.326,0.0,0.122,0.0,-13.936,-70.774,178.704,-24.893,-10.127,-11.433,28.48,-0.07886,-0.57376,0.10507,-0.80835,654,0.75,-0.057,0.665,0.0,0.061,0.183,-4.878,-48.323,-118.949,-23.013,-8.293,-1.42,26.23,-0.4476,0.37207,0.17435,0.79416,650,0.609,-0.036,0.785,0.183,-0.305,0.122,-2.791,-37.787,158.769,-15.04,-9.667,-26.66,29.9,0.18201,0.31381,-0.08234,0.92816,658,0.962,0.013,0.217,0.0,-0.061,0.122,3.29,-77.069,-167.047,-28.353,-12.18,-2.807,31.37,0.10568,-0.61621,-0.09241,-0.7749,630
163,0.965,-0.08,0.325,0.0,0.061,0.0,-13.942,-70.774,178.709,-24.893,-10.127,-11.433,28.48,-0.07886,-0.57376,0.10507,-0.80835,655,0.75,-0.055,0.664,0.0,0.0,0.061,-4.872,-48.323,-118.949,-23.013,-8.293,-1.42,26.23,-0.4476,0.37207,0.17435,0.79416,651,0.609,-0.036,0.785,0.061,-0.244,-0.122,-2.796,-37.782,158.774,-15.04,-9.667,-26.66,29.9,0.18201,0.31381,-0.08234,0.92816,659,0.963,0.015,0.218,0.0,0.0,0.061,3.301,-77.069,-167.069,-28.353,-12.18,-2.807,31.37,0.10568,-0.61621,-0.09241,-0.7749,631
164,0.965,-0.08,0.326,0.0,0.122,0.0,-13.936,-70.774,178.704,-24.893,-10.127,-11.433,28.48,-0.07886,-0.57376,0.10507,-0.80835,668,0.753,-0.057,0.665,0.0,0.061,0.183,-4.878,-48.323,-118.949,-23.013,-8.293,-1.42,26.23,-0.44797,0.37198,0.17426,0.79404,664,0.611,-0.036,0.785,0.183,-0.305,0.122,-2.791,-37.787,158.769,-15.04,-9.667,-26.66,29.9,0.18201,0.31381,-0.08234,0.92816,672,0.962,0.013,0.217,0.0,-0.061,0.122,3.29,-77.069,-167.047,-28.353,-12.18,-2.807,31.37,0.10568,-0.61621,-0.09241,-0.7749,644
165,0.965,-0.081,0.326,0.0,0.061,0.0,-13.936,-70.774,178.698,-24.893,-10.127,-11.433,28.48,-0.07886,-0.57376,0.10507,-0.80835,669,0.75,-0.056,0.664,-0.061,0.122,0.305,-4.883,-48.323,-118.943,-23.013,-8.293,-1.42,26.23,-0.44797,0.37198,0.17426,0.79404,665,0.61,-0.037,0.784,-0.244,-0.061,0.0,-2.796,-37.793,158.763,-15.04,-9.667,-26.66,29.9,0.18201,0.31381,-0.08234,0.92816,673,0.962,0.012,0.217,-0.061,0.0,0.122,3.279,-77.069,-167.025,-28.353,-12.18,-2.807,31.37,0.10568,-0.61621,-0.09241,-0.7749,645
166,0.965,-0.081,0.326,0.0,0.122,0.0,-13.931,-70.774,178.687,-24.893,-10.127,-11.433,28.48,-0.07886,-0.57376,0.10507,-0.80835,670,0.753,-0.057,0.664,0.0,0.244,0.366,-4.889,-48.318,-118.932,-23.013,-8.293,-1.42,26.23,-0.44797,0.37198,0.17426,0.79404,666,0.611,-0.036,0.784,-0.061,-0.305,0.183,-2.802,-37.798,158.763,-15.04,-9.667,-26.66,29.9,0.18201,0.31381,-0.08234,0.92816,674,0.962,0.012,0.217,-0.061,0.183,0.122,3.263,-77.069,-167.009,-28.353,-12.18,-2.807,31.37,0.10568,-0.61621,-0.09241,-0.7749,646
167,0.965,-0.081,0.326,0.0,0.061,0.0,-13.936,-70.774,178.698,-24.893,-10.127,-11.433,28.48,-0.07886,-0.57376,0.10507,-0.80835,671,0.75,-0.056,0.664,-0.061,0.122,0.305,-4.883,-48.323,-118.943,-23.013,-8.293,-1.42,26.23,-0.44797,0.37198,0.17426,0.79404,667,0.61,-0.037,0.784,-0.244,-0.061,0.0,-2.796,-37.793,158.763,-15.04,-9.667,-26.66,29.9,0.18201,0.31381,-0.08234,0.92816,675,0.962,0.012,0.217,-0.061,0.0,0.122,3.279,-77.069,-167.025,-28.353,-12.18,-2.807,31.37,0.10568,-0.61621,-0.09241,-0.7749,647
168,0.964,-0.081,0.326,0.0,0.122,0.0,-13.931,-70.774,178.687,-24.893,-10.127,-11.433,28.48,-0.07886,-0.57376,0.10507,-0.80835,684,0.749,-0.057,0.664,0.0,0.244,0.366,-4.889,-48.318,-118.932,-23.013,-8.293,-1.42,26.23,-0.44797,0.37198,0.17426,0.79404,680,0.608,-0.036,0.784,-0.061,-0.305,0.183,-2.802,-37.798,158.763,-15.04,-9.667,-26.66,29.9,0.18201,0.31381,-0.08234,0.92816,688,0.963,0.012,0.217,-0.061,0.183,0.122,3.263,-77.069,-167.009,-28.353,-12.18,-2.807,31.37,0.10568,-0.61621,-0.09241,-0.7749,660
169,0.964,-0.082,0.324,0.0,0.122,0.0,-13.931,-70.768,178.682,-24.893,-10.127,-11.433,28.48,-0.07886,-0.57376,0.10507,-0.80835,685,0.749,-0.061,0.665,0.0,0.244,0.427,-4.894,-48.312,-118.927,-23.013,-8.293,-1.42,26.23,-0.44797,0.37198,0.17426,0.79404,681,0.608,-0.042,0.785,0.0,-0.366,0.61,-2.807,-37.804,158.769,-15.04,-9.667,-26.66,29.9,0.18201,0.31381,-0.08234,0.92816,689,0.963,0.012,0.218,-0.061,0.244,0.122,3.252,-77.064,-166.987,-28.353,-12.18,-2.807,31.37,0.10568,-0.61621,-0.09241,-0.7749,661
170,0.964,-0.083,0.326,0.061,0.244,0.0,-13.925,-70.768,178.671,-24.893,-10.127,-11.433,28.48,-0.07886,-0.57376,0.10507,-0.80835,686,0.749,-0.059,0.665,0.244,0.183,0.366,-4.905,-48.312,-118.916,-23.013,-8.293,-1.42,26.23,-0.44797,0.37198,0.17426,0.79404,682,0.608,-0.041,0.786,0.183,-0.366,0.366,-2.812,-37.809,158.747,-15.04,-9.667,-26.66,29.9,0.18201,0.31381,-0.08234,0.92816,690,0.963,0.012,0.22,-0.122,0.183,0.183,3.23,-77.064,-166.959,-28.353,-12.18,-2.807,31.37,0.10568,-0.61621,-0.09241,-0.7749,662
171,0.964,-0.082,0.324,0.0,0.122,0.0,-13.931,-70.768,178.682,-24.893,-10.127,-11.433,28.48,-0.07886,-0.57376,0.10507,-0.80835,687,0.749,-0.061,0.665,0.0,0.244,0.427,-4.894,-48.312,-118.927,-23.013,-8.293,-1.42,26.23,-0.44797,0.37198,0.17426,0.79404,683,0.608,-0.042,0.785,0.0,-0.366,0.61,-2.807,-37.804,158.769,-15.04,-9.667,-26.66,29.9,0.18201,0.31381,-0.08234,0.92816,691,0.963,0.012,0.218,-0.061,0.244,0.122,3.252,-77.064,-166.987,-28.353,-12.18,-2.807,31.37,0.10568,-0.61621,-0.09241,-0.7749,663
172,0.963,-0.083,0.326,0.061,0.244,0.0,-13.925,-70.768,178.671,-24.893,-10.127,-11.433,28.48,-0.07886,-0.57376,0.10507,-0.80835,700,0.748,-0.059,0.665,0.244,0.183,0.366,-4.905,-48.312,-118.916,-23.013,-8.293,-1.42,26.23,-0.44797,0.37198,0.17426,0.79404,696,0.608,-0.041,0.786,0.183,-0.366,0.366,-2.812,-37.809,158.747,-15.04,-9.667,-26.66,29.9,0.18201,0.31381,-0.08234,0.92816,704,0.963,0.012,0.22,-0.122,0.183,0.183,3.23,-77.064,-166.959,-28.353,-12.18,-2.807,31.37,0.10568,-0.61621,-0.09241,-0.7749,676
173,0.963,-0.082,0.327,0.183,0.244,0.0,-13.92,-70.763,178.66,-24.893,-10.127,-11.433,28.48,-0.07886,-0.57376,0.10507,-0.80835,701,0.747,-0.058,0.667,0.305,0.061,0.305,-4.905,-48.307,-118.911,-23.013,-8.293,-1.42,26.23,-0.44797,0.37198,0.17426,0.79404,697,0.607,-0.039,0.786,0.427,-0.427,0.366,-2.807,-37.82,158.725,-15.04,-9.667,-26.66,29.9,0.18201,0.31381,-0.08234,0.92816,705,0.962,0.012,0.219,-0.122,0.122,0.183,3.214,-77.064,-166.932,-28.353,-12.18,-2.807,31.37,0.10568,-0.61621,-0.09241,-0.7749,677
174,0.963,-0.081,0.327,0.122,0.183,0.0,-13.914,-70.757,178.649,-24.893,-10.127,-11.433,28.48,-0.07886,-0.57376,0.10507,-0.80835,702,0.748,-0.059,0.665,0.305,0.122,0.366,-4.905,-48.307,-118.9,-23.013,-8.293,-1.42,26.23,-0.44797,0.37198,0.17426,0.79404,698,0.608,-0.038,0.784,0.488,-0.183,0.427,-2.807,-37.82,158.719,-15.04,-9.667,-26.66,29.9,0.18201,0.31381,-0.08234,0.92816,706,0.963,0.011,0.217,-0.122,0.183,0.183,3.192,-77.058,-166.904,-28.353,-12.18,-2.807,31.37,0.10568,-0.61621,-0.09241,-0.7749,678
175,0.963,-0.082,0.327,0.183,0.244,0.0,-13.92,-70.763,178.66,-24.893,-10.127,-11.433,28.48,-0.07886,-0.57376,0.10507,-0.80835,703,0.747,-0.058,0.667,0.305,0.061,0.305,-4.905,-48.307,-118.911,-23.013,-8.293,-1.42,26.23,-0.44797,0.37198,0.17426,0.79404,699,0.607,-0.039,0.786,0.427,-0.427,0.366,-2.807,-37.82,158.725,-15.04,-9.667,-26.66,29.9,0.18201,0.31381,-0.08234,0.92816,707,0.962,0.012,0.219,-0.122,0.122,0.183,3.214,-77.064,-166.932,-28.353,-12.18,-2.807,31.37,0.10568,-0.61621,-0.09241,-0.7749,679
176,0.963,-0.081,0.327,0.122,0.183,0.0,-13.914,-70.757,178.649,-24.553,-9.94,-11.387,28.48,-0.07886,-0.57376,0.10507,-0.80835,716,0.749,-0.059,0.665,0.305,0.122,0.366,-4.905,-48.307,-118.9,-23.013,-8.293,-1.42,26.23,-0.44797,0.37198,0.17426,0.79404,712,0.609,-0.038,0.784,0.488,-0.183,0.427,-2.807,-37.82,158.719,-15.04,-9.667,-26.66,29.9,0.18201,0.31381,-0.08234,0.92816,720,0.961,0.011,0.217,-0.122,0.183,0.183,3.192,-77.058,-166.904,-28.353,-12.18,-2.807,31.37,0.10568,-0.61621,-0.09241,-0.7749,692
177,0.963,-0.082,0.328,0.0,0.061,0.0,-13.914,-70.757,178.643,-24.553,-9.94,-11.387,28.48,-0.07886,-0.57376,0.10507,-0.80835,717,0.747,-0.06,0.664,0.427,0.183,0.427,-4.911,-48.301,-118.889,-23.013,-8.293,-1.42,26.23,-0.44797,0.37198,0.17426,0.79404,713,0.608,-0.041,0.781,1.099,0.366,0.732,-2.796,-37.809,158.741,-15.04,-9.667,-26.66,29.9,0.18201,0.31381,-0.08234,0.92816,721,0.962,0.009,0.217,-0.061,0.244,0.0,3.186,-77.058,-166.899,-28.353,-12.18,-2.807,31.37,0.10568,-0.61621,-0.09241,-0.7749,693
178,0.963,-0.081,0.327,0.061,0.0,0.0,-13.914,-70.757,178.638,-24.553,-9.94,-11.387,28.48,-0.07886,-0.57376,0.10507,-0.80835,718,0.749,-0.059,0.667,0.549,0.183,0.305,-4.911,-48.296,-118.883,-23.013,-8.293,-1.42,26.23,-0.44797,0.37198,0.17426,0.79404,714,0.609,-0.041,0.785,1.16,0.244,0.305,-2.774,-37.804,158.758,-15.04,-9.667,-26.66,29.9,0.18201,0.31381,-0.08234,0.92816,722,0.961,0.009,0.219,0.0,0.427,0.0,3.181,-77.053,-166.888,-28.353,-12.18,-2.807,31.37,0.10568,-0.61621,-0.09241,-0.7749,694
179,0.963,-0.082,0.328,0.0,0.061,0.0,-13.914,-70.757,178.643,-24.553,-9.94,-11.387,28.48,-0.07886,-0.57376,0.10507,-0.80835,719,0.747,-0.06,0.664,0.427,0.183,0.427,-4.911,-48.301,-118.889,-23.013,-8.293,-1.42,26.23,-0.44797,0.37198,0.17426,0.79404,715,0.608,-0.041,0.781,1.099,0.366,0.732,-2.796,-37.809,158.741,-15.04,-9.667,-26.66,29.9,0.18201,0.31381,-0.08234,0.92816,723,0.962,0.009,0.217,-0.061,0.244,0.0,3.186,-77.058,-166.899,-28.353,-12.18,-2.807,31.37,0.10568,-0.61621,-0.09241,-0.7749,695
180,0.965,-0.081,0.327,0.061,0.0,0.0,-13.914,-70.757,178.638,-24.553,-9.94,-11.387,28.48,-0.07886,-0.57376,0.10507,-0.80835,736,0.748,-0.059,0.667,0.549,0.183,0.305,-4.911,-48.296,-118.883,-23.013,-8.293,-1.42,26.23,-0.44797,0.37198,0.17426,0.79404,728,0.608,-0.041,0.785,1.16,0.244,0.305,-2.774,-37.804,158.758,-15.04,-9.667,-26.66,29.9,0.18201,0.31381,-0.08234,0.92816,732,0.962,0.009,0.219,0.0,0.427,0.0,3.181,-77.053,-166.888,-28.353,-12.18,-2.807,31.37,0.10568,-0.61621,-0.09241,-0.7749,708
181,0.962,-0.083,0.327,0.183,0.0,0.0,-13.914,-70.757,178.632,-24.553,-9.94,-11.387,28.48,-0.07886,-0.57376,0.10507,-0.80835,737,0.744,-0.062,0.664,0.549,0.061,0.427,-4.905,-48.296,-118.872,-23.013,-8.293,-1.42,26.23,-0.44797,0.37198,0.17426,0.79404,729,0.606,-0.039,0.786,1.16,0.61,0.61,-2.763,-37.793,158.785,-15.04,-9.667,-26.66,29.9,0.18201,0.31381,-0.08234,0.92816,733,0.96,0.01,0.219,0.0,0.427,0.0,3.175,-77.042,-166.877,-28.353,-12.18,-2.807,31.37,0.10568,-0.61621,-0.09241,-0.7749,709
182,0.965,-0.081,0.328,0.244,0.061,0.0,-13.909,-70.757,178.621,-24.553,-9.94,-11.387,28.48,-0.07886,-0.57376,0.10507,-0.80835,738,0.748,-0.063,0.665,0.366,0.0,0.549,-4.911,-48.29,-118.861,-23.013,-8.293,-1.42,26.23,-0.44797,0.37198,0.17426,0.79404,730,0.608,-0.048,0.781,0.854,0.854,0.732,-2.758,-37.776,158.796,-15.04,-9.667,-26.66,29.9,0.18201,0.31381,-0.08234,0.92816,734,0.962,0.01,0.22,0.0,0.366,0.0,3.17,-77.036,-166.866,-28.353,-12.18,-2.807,31.37,0.10568,-0.61621,-0.09241,-0.7749,710
183,0.962,-0.083,0.327,0.183,0.0,0.0,-13.914,-70.757,178.632,-24.553,-9.94,-11.387,28.48,-0.07886,-0.57376,0.10507,-0.80835,739,0.744,-0.062,0.664,0.549,0.061,0.427,-4.905,-48.296,-118.872,-23.013,-8.293,-1.42,26.23,-0.44797,0.37198,0.17426,0.79404,731,0.606,-0.039,0.786,1.16,0.61,0.61,-2.763,-37.793,158.785,-15.04,-9.667,-26.66,29.9,0.18201,0.31381,-0.08234,0.92816,735,0.96,0.01,0.219,0.0,0.427,0.0,3.175,-77.042,-166.877,-28.353,-12.18,-2.807,31.37,0.10568,-0.61621,-0.09241,-0.7749,711
184,0.961,-0.081,0.328,0.244,0.061,0.0,-13.909,-70.757,178.621,-24.553,-9.94,-11.387,28.48,-0.07977,-0.57349,0.10559,-0.80838,748,0.748,-0.063,0.665,0.366,0.0,0.549,-4.911,-48.29,-118.861,-23.013,-8.293,-1.42,26.23,-0.44797,0.37198,0.17426,0.79404,744,0.607,-0.048,0.781,0.854,0.854,0.732,-2.758,-37.776,158.796,-15.04,-9.667,-26.66,29.9,0.18201,0.31381,-0.08234,0.92816,752,0.961,0.01,0.22,0.0,0.366,0.0,3.17,-77.036,-166.866,-28.08,-11.753,-3.5,31.37,0.10568,-0.61621,-0.09241,-0.7749,724
185,0.961,-0.083,0.328,0.122,0.0,0.0,-13.909,-70.757,178.616,-24.553,-9.94,-11.387,28.48,-0.07977,-0.57349,0.10559,-0.80838,749,0.75,-0.055,0.666,-0.183,0.366,0.244,-4.922,-48.285,-118.85,-23.013,-8.293,-1.42,26.23,-0.44797,0.37198,0.17426,0.79404,745,0.61,-0.037,0.785,-0.427,0.549,-0.427,-2.763,-37.766,158.791,-15.04,-9.667,-26.66,29.9,0.18201,0.31381,-0.08234,0.92816,753,0.96,0.01,0.22,-0.122,0.305,0.0,3.164,-77.031,-166.855,-28.08,-11.753,-3.5,31.37,0.10568,-0.61621,-0.09241,-0.7749,725
186,0.961,-0.081,0.33,0.244,-0.183,0.0,-13.909,-70.757,178.61,-24.553,-9.94,-11.387,28.48,-0.07977,-0.57349,0.10559,-0.80838,750,0.748,-0.056,0.667,-0.183,0.244,0.122,-4.927,-48.279,-118.85,-23.013,-8.293,-1.42,26.23,-0.44797,0.37198,0.17426,0.79404,746,0.607,-0.035,0.788,-0.366,0.0,-0.183,-2.769,-37.766,158.807,-15.04,-9.667,-26.66,29.9,0.18201,0.31381,-0.08234,0.92816,754,0.961,0.01,0.221,0.0,0.244,0.0,3.153,-77.031,-166.844,-28.08,-11.753,-3.5,31.37,0.10568,-0.61621,-0.09241,-0.7749,726
187,0.961,-0.083,0.328,0.122,0.0,0.0,-13.909,-70.757,178.616,-24.553,-9.94,-11.387,28.48,-0.07977,-0.57349,0.10559,-0.80838,751,0.75,-0.055,0.666,-0.183,0.366,0.244,-4.922,-48.285,-118.85,-23.013,-8.293,-1.42,26.23,-0.44797,0.37198,0.17426,0.79404,747,0.61,-0.037,0.785,-0.427,0.549,-0.427,-2.763,-37.766,158.791,-15.04,-9.667,-26.66,29.9,0.18201,0.31381,-0.08234,0.92816,755,0.96,0.01,0.22,-0.122,0.305,0.0,3.164,-77.031,-166.855,-28.08,-11.753,-3.5,31.37,0.10568,-0.61621,-0.09241,-0.7749,727
188,0.965,-0.081,0.33,0.244,-0.183,0.0,-13.909,-70.757,178.61,-24.553,-9.94,-11.387,28.48,-0.07977,-0.57349,0.10559,-0.80838,760,0.749,-0.056,0.667,-0.183,0.244,0.122,-4.927,-48.279,-118.85,-23.013,-8.293,-1.42,26.23,-0.44797,0.37198,0.17426,0.79404,756,0.608,-0.035,0.788,-0.366,0.0,-0.183,-2.769,-37.766,158.807,-15.547,-9.42,-27.473,29.9,0.18201,0.31381,-0.08234,0.92816,764,0.961,0.01,0.221,0.0,0.244,0.0,3.153,-77.031,-166.844,-28.08,-11.753,-3.5,31.37,0.10568,-0.61621,-0.09241,-0.7749,740
189,0.965,-0.079,0.321,0.427,-0.061,0.0,-13.903,-70.757,178.61,-24.553,-9.94,-11.387,28.48,-0.07977,-0.57349,0.10559,-0.80838,761,0.75,-0.06,0.667,0.244,0.061,0.305,-4.933,-48.274,-118.845,-23.013,-8.293,-1.42,26.23,-0.44797,0.37198,0.17426,0.79404,757,0.609,-0.038,0.787,0.244,-0.122,0.183,-2.769,-37.766,158.824,-15.547,-9.42,-27.473,29.9,0.18201,0.31381,-0.08234,0.92816,765,0.96,0.007,0.219,0.183,0.488,0.0,3.153,-77.02,-166.833,-28.08,-11.753,-3.5,31.37,0.10568,-0.61621,-0.09241,-0.7749,741
190,0.965,-0.082,0.329,0.244,0.0,0.0,-13.898,-70.757,178.605,-24.553,-9.94,-11.387,28.48,-0.07977,-0.57349,0.10559,-0.80838,762,0.749,-0.06,0.667,0.244,-0.061,0.366,-4.938,-48.274,-118.839,-23.013,-8.293,-1.42,26.23,-0.44797,0.37198,0.17426,0.79404,758,0.608,-0.04,0.788,0.366,-0.183,0.305,-2.763,-37.771,158.84,-15.547,-9.42,-27.473,29.9,0.18201,0.31381,-0.08234,0.92816,766,0.961,0.009,0.222,-0.061,0.61,0.0,3.142,-77.009,-166.822,-28.08,-11.753,-3.5,31.37,0.10568,-0.61621,-0.09241,-0.7749,742
191,0.965,-0.079,0.321,0.427,-0.061,0.0,-13.903,-70.757,178.61,-24.553,-9.94,-11.387,28.48,-0.07977,-0.57349,0.10559,-0.80838,763,0.75,-0.06,0.667,0.244,0.061,0.305,-4.933,-48.274,-118.845,-23.013,-8.293,-1.42,26.23,-0.44797,0.37198,0.17426,0.79404,759,0.609,-0.038,0.787,0.244,-0.122,0.183,-2.769,-37.766,158.824,-15.547,-9.42,-27.473,29.9,0.18201,0.31381,-0.08234,0.92816,767,0.96,0.007,0.219,0.183,0.488,0.0,3.153,-77.02,-166.833,-28.08,-11.753,-3.5,31.37,0.10568,-0.61621,-0.09241,-0.7749,743
192,0.966,-0.082,0.329,0.244,0.0,0.0,-13.898,-70.757,178.605,-24.553,-9.94,-11.387,28.48,-0.07977,-0.57349,0.10559,-0.80838,772,0.751,-0.06,0.667,0.244,-0.061,0.366,-4.938,-48.274,-118.839,-23.18,-8.093,-0.653,26.23,-0.44797,0.37198,0.17426,0.79404,768,0.61,-0.04,0.788,0.366,-0.183,0.305,-2.763,-37.771,158.84,-15.547,-9.42,-27.473,29.9,0.18201,0.31381,-0.08234,0.92816,776,0.96,0.009,0.222,-0.061,0.61,0.0,3.142,-77.009,-166.822,-28.08,-11.753,-3.5,31.37,0.10663,-0.61588,-0.09271,-0.77499,780
193,0.965,-0.083,0.326,0.366,-0.305,0.0,-13.892,-70.763,178.599,-24.553,-9.94,-11.387,28.48,-0.07977,-0.57349,0.10559,-0.80838,773,0.749,-0.06,0.669,0.183,-0.061,0.427,-4.944,-48.274,-118.828,-23.18,-8.093,-0.653,26.23,-0.44797,0.37198,0.17426,0.79404,769,0.609,-0.038,0.79,0.061,-0.427,0.488,-2.774,-37.776,158.873,-15.547,-9.42,-27.473,29.9,0.18201,0.31381,-0.08234,0.92816,777,0.963,0.009,0.223,0.061,0.61,0.0,3.131,-76.998,-166.811,-28.08,-11.753,-3.5,31.37,0.10663,-0.61588,-0.09271,-0.77499,781
194,0.966,-0.081,0.325,0.427,-0.366,0.0,-13.892,-70.768,178.599,-24.553,-9.94,-11.387,28.48,-0.07977,-0.57349,0.10559,-0.80838,774,0.751,-0.061,0.665,0.122,0.0,0.366,-4.949,-48.274,-118.817,-23.18,-8.093,-0.653,26.23,-0.44797,0.37198,0.17426,0.79404,770,0.61,-0.042,0.785,-0.061,-0.488,0.305,-2.78,-37.787,158.895,-15.547,-9.42,-27.473,29.9,0.18201,0.31381,-0.08234,0.92816,778,0.96,0.012,0.22,0.244,0.61,0.0,3.126,-76.987,-166.805,-28.08,-11.753,-3.5,31.37,0.10663,-0.61588,-0.09271,-0.77499,782
195,0.965,-0.083,0.326,0.366,-0.305,0.0,-13.892,-70.763,178.599,-24.553,-9.94,-11.387,28.48,-0.07977,-0.57349,0.10559,-0.80838,775,0.749,-0.06,0.669,0.183,-0.061,0.427,-4.944,-48.274,-118.828,-23.18,-8.093,-0.653,26.23,-0.44797,0.37198,0.17426,0.79404,771,0.609,-0.038,0.79,0.061,-0.427,0.488,-2.774,-37.776,158.873,-15.547,-9.42,-27.473,29.9,0.18201,0.31381,-0.08234,0.92816,779,0.963,0.009,0.223,0.061,0.61,0.0,3.131,-76.998,-166.811,-28.08,-11.753,-3.5,31.37,0.10663,-0.61588,-0.09271,-0.77499,783
196,0.965,-0.081,0.325,0.427,-0.366,0.0,-13.892,-70.768,178.599,-24.553,-9.94,-11.387,28.48,-0.07977,-0.57349,0.10559,-0.80838,784,0.749,-0.061,0.665,0.122,0.0,0.366,-4.949,-48.274,-118.817,-23.18,-8.093,-0.653,26.23,-0.44797,0.37198,0.17426,0.79404,792,0.609,-0.042,0.785,-0.061,-0.488,0.305,-2.78,-37.787,158.895,-15.547,-9.42,-27.473,29.9,0.18109,0.31393,-0.08185,0.92834,788,0.965,0.012,0.22,0.244,0.61,0.0,3.126,-76.987,-166.805,-28.08,-11.753,-3.5,31.37,0.10663,-0.61588,-0.09271,-0.77499,796
197,0.963,-0.081,0.323,0.122,-0.244,0.0,-13.892,-70.774,178.599,-24.553,-9.94,-11.387,28.48,-0.07977,-0.57349,0.10559,-0.80838,785,0.746,-0.064,0.666,0.183,0.0,0.183,-4.955,-48.274,-118.812,-23.18,-8.093,-0.653,26.23,-0.44797,0.37198,0.17426,0.79404,793,0.606,-0.044,0.785,0.183,-0.366,0.183,-2.78,-37.793,158.917,-15.547,-9.42,-27.473,29.9,0.18109,0.31393,-0.08185,0.92834,789,0.963,0.008,0.224,0.0,0.488,0.0,3.12,-76.981,-166.794,-28.08,-11.753,-3.5,31.37,0.10663,-0.61588,-0.09271,-0.77499,797
198,0.965,-0.083,0.326,0.122,-0.061,0.0,-13.898,-70.779,178.594,-24.553,-9.94,-11.387,28.48,-0.07977,-0.57349,0.10559,-0.80838,786,0.749,-0.062,0.665,0.366,0.0,0.061,-4.955,-48.274,-118.806,-23.18,-8.093,-0.653,26.23,-0.44797,0.37198,0.17426,0.79404,794,0.609,-0.042,0.784,0.488,-0.061,0.183,-2.78,-37.793,158.945,-15.547,-9.42,-27.473,29.9,0.18109,0.31393,-0.08185,0.92834,790,0.965,0.009,0.22,0.122,0.366,0.0,3.115,-76.97,-166.783,-28.08,-11.753,-3.5,31.37,0.10663,-0.61588,-0.09271,-0.77499,798
199,0.963,-0.081,0.323,0.122,-0.244,0.0,-13.892,-70.774,178.599,-24.553,-9.94,-11.387,28.48,-0.07977,-0.57349,0.10559,-0.80838,787,0.746,-0.064,0.666,0.183,0.0,0.183,-4.955,-48.274,-118.812,-23.18,-8.093,-0.653,26.23,-0.44797,0.37198,0.17426,0.79404,795,0.606,-0.044,0.785,0.183,-0.366,0.183,-2.78,-37.793,158.917,-15.547,-9.42,-27.473,29.9,0.18109,0.31393,-0.08185,0.92834,791,0.963,0.008,0.224,0.0,0.488,0.0,3.12,-76.981,-166.794,-28.08,-11.753,-3.5,31.37,0.10663,-0.61588,-0.09271,-0.77499,799
200,0.962,-0.083,0.326,0.122,-0.061,0.0,-13.898,-70.779,178.594,-24.553,-9.94,-11.387,28.48,-0.07977,-0.57349,0.10559,-0.80838,824,0.747,-0.062,0.665,0.366,0.0,0.061,-4.955,-48.274,-118.806,-23.18,-8.093,-0.653,26.23,-0.44873,0.37177,0.17392,0.79376,800,0.606,-0.042,0.784,0.488,-0.061,0.183,-2.78,-37.793,158.945,-15.547,-9.42,-27.473,29.9,0.18109,0.31393,-0.08185,0.92834,804,0.961,0.009,0.22,0.122,0.366,0.0,3.115,-76.97,-166.783,-28.08,-11.753,-3.5,31.37,0.10663,-0.61588,-0.09271,-0.77499,808
201,0.965,-0.083,0.326,0.183,-0.122,0.0,-13.898,-70.779,178.588,-24.553,-9.94,-11.387,28.48,-0.07977,-0.57349,0.10559,-0.80838,825,0.75,-0.058,0.666,0.244,0.0,0.122,-4.955,-48.274,-118.806,-23.18,-8.093,-0.653,26.23,-0.44873,0.37177,0.17392,0.79376,801,0.608,-0.038,0.785,0.244,0.122,0.244,-2.78,-37.787,158.961,-15.547,-9.42,-27.473,29.9,0.18109,0.31393,-0.08185,0.92834,805,0.961,0.01,0.22,0.061,0.244,0.0,3.109,-76.965,-166.772,-28.08,-11.753,-3.5,31.37,0.10663,-0.61588,-0.09271,-0.77499,809
202,0.962,-0.083,0.327,0.122,-0.122,0.0,-13.898,-70.779,178.588,-24.553,-9.94,-11.387,28.48,-0.07977,-0.57349,0.10559,-0.80838,826,0.747,-0.061,0.667,-0.122,0.183,0.122,-4.96,-48.268,-118.806,-23.18,-8.093,-0.653,26.23,-0.44873,0.37177,0.17392,0.79376,802,0.606,-0.039,0.786,-0.122,-0.183,0.671,-2.791,-37.793,158.994,-15.547,-9.42,-27.473,29.9,0.18109,0.31393,-0.08185,0.92834,806,0.961,0.01,0.217,0.061,0.061,0.0,3.104,-76.965,-166.767,-28.08,-11.753,-3.5,31.37,0.10663,-0.61588,-0.09271,-0.77499,810
203,0.965,-0.083,0.326,0.183,-0.122,0.0,-13.898,-70.779,178.588,-24.553,-9.94,-11.387,28.48,-0.07977,-0.57349,0.10559,-0.80838,827,0.75,-0.058,0.666,0.244,0.0,0.122,-4.955,-48.274,-118.806,-23.18,-8.093,-0.653,26.23,-0.44873,0.37177,0.17392,0.79376,803,0.608,-0.038,0.785,0.244,0.122,0.244,-2.78,-37.787,158.961,-15.547,-9.42,-27.473,29.9,0.18109,0.31393,-0.08185,0.92834,807,0.961,0.01,0.22,0.061,0.244,0.0,3.109,-76.965,-166.772,-28.08,-11.753,-3.5,31.37,0.10663,-0.61588,-0.09271,-0.77499,811
204,0.968,-0.083,0.327,0.122,-0.122,0.0,-13.898,-70.779,178.588,-24.553,-9.94,-11.387,28.48,-0.07977,-0.57349,0.10559,-0.80838,828,0.75,-0.061,0.667,-0.122,0.183,0.122,-4.96,-48.268,-118.806,-23.18,-8.093,-0.653,26.23,-0.44873,0.37177,0.17392,0.79376,820,0.611,-0.039,0.786,-0.122,-0.183,0.671,-2.791,-37.793,158.994,-15.547,-9.42,-27.473,29.9,0.18109,0.31393,-0.08185,0.92834,832,0.96,0.01,0.217,0.061,0.061,0.0,3.104,-76.965,-166.767,-28.08,-11.753,-3.5,31.37,0.10663,-0.61588,-0.09271,-0.77499,812
205,0.964,-0.083,0.328,0.122,0.0,-0.366,-13.887,-70.785,178.566,-24.553,-9.94,-11.387,28.48,-0.07977,-0.57349,0.10559,-0.80838,829,0.75,-0.062,0.667,-0.305,0.305,0.0,-4.966,-48.263,-118.806,-23.18,-8.093,-0.653,26.23,-0.44873,0.37177,0.17392,0.79376,821,0.61,-0.042,0.786,-0.244,-0.793,0.916,-2.812,-37.804,159.022,-15.547,-9.42,-27.473,29.9,0.18109,0.31393,-0.08185,0.92834,833,0.961,0.008,0.221,0.061,0.183,-0.305,3.104,-76.965,-166.767,-28.08,-11.753,-3.5,31.37,0.10663,-0.61588,-0.09271,-0.77499,813
206,0.968,-0.081,0.328,0.0,0.122,-0.427,-13.865,-70.785,178.533,-24.553,-9.94,-11.387,28.48,-0.07977,-0.57349,0.10559,-0.80838,830,0.75,-0.061,0.667,-0.122,0.366,0.0,-4.971,-48.257,-118.806,-23.18,-8.093,-0.653,26.23,-0.44873,0.37177,0.17392,0.79376,822,0.611,-0.042,0.786,0.305,-0.183,1.038,-2.823,-37.804,159.06,-15.547,-9.42,-27.473,29.9,0.18109,0.31393,-0.08185,0.92834,834,0.96,0.008,0.221,0.0,0.305,-0.366,3.126,-76.959,-166.783,-28.08,-11.753,-3.5,31.37,0.10663,-0.61588,-0.09271,-0.77499,814
207,0.964,-0.083,0.328,0.122,0.0,-0.366,-13.887,-70.785,178.566,-24.553,-9.94,-11.387,28.48,-0.07977,-0.57349,0.10559,-0.80838,831,0.75,-0.062,0.667,-0.305,0.305,0.0,-4.966,-48.263,-118.806,-23.18,-8.093,-0.653,26.23,-0.44873,0.37177,0.17392,0.79376,823,0.61,-0.042,0.786,-0.244,-0.793,0.916,-2.812,-37.804,159.022,-15.547,-9.42,-27.473,29.9,0.18109,0.31393,-0.08185,0.92834,835,0.961,0.008,0.221,0.061,0.183,-0.305,3.104,-76.965,-166.767,-28.08,-11.753,-3.5,31.37,0.10663,-0.61588,-0.09271,-0.77499,815
208,0.964,-0.081,0.328,0.0,0.122,-0.427,-13.865,-70.785,178.533,-24.553,-9.94,-11.387,28.48,-0.07977,-0.57349,0.10559,-0.80838,844,0.75,-0.061,0.667,-0.122,0.366,0.0,-4.971,-48.257,-118.806,-23.18,-8.093,-0.653,26.23,-0.44873,0.37177,0.17392,0.79376,840,0.609,-0.042,0.786,0.305,-0.183,1.038,-2.823,-37.804,159.06,-15.547,-9.42,-27.473,29.9,0.18109,0.31393,-0.08185,0.92834,848,0.964,0.008,0.221,0.0,0.305,-0.366,3.126,-76.959,-166.783,-28.08,-11.753,-3.5,31.37,0.10663,-0.61588,-0.09271,-0.77499,816
209,0.965,-0.078,0.329,-0.061,0.0,-0.305,-13.848,-70.785,178.511,-24.553,-9.94,-11.387,28.48,-0.07977,-0.57349,0.10559,-0.80838,845,0.749,-0.053,0.667,-0.183,0.305,-0.183,-4.977,-48.252,-118.812,-23.18,-8.093,-0.653,26.23,-0.44873,0.37177,0.17392,0.79376,841,0.611,-0.034,0.787,-0.061,-0.305,0.122,-2.829,-37.809,159.088,-15.547,-9.42,-27.473,29.9,0.18109,0.31393,-0.08185,0.92834,849,0.964,0.009,0.221,-0.305,0.122,-0.366,3.142,-76.954,-166.811,-28.08,-11.753,-3.5,31.37,0.10663,-0.61588,-0.09271,-0.77499,817
210,0.964,-0.078,0.324,-0.122,0.0,-0.244,-13.837,-70.785,178.489,-24.553,-9.94,-11.387,28.48,-0.07977,-0.57349,0.10559,-0.80838,846,0.75,-0.057,0.663,0.0,0.244,-0.061,-4.977,-48.246,-118.817,-23.18,-8.093,-0.653,26.23,-0.44873,0.37177,0.17392,0.79376,842,0.609,-0.034,0.782,0.061,-0.244,0.305,-2.834,-37.815,159.115,-15.547,-9.42,-27.473,29.9,0.18109,0.31393,-0.08185,0.92834,850,0.964,0.01,0.223,-0.488,0.0,-0.366,3.159,-76.954,-166.833,-28.08,-11.753,-3.5,31.37,0.10663,-0.61588,-0.09271,-0.77499,818
211,0.965,-0.078,0.329,-0.061,0.0,-0.305,-13.848,-70.785,178.511,-24.553,-9.94,-11.387,28.48,-0.07977,-0.57349,0.10559,-0.80838,847,0.749,-0.053,0.667,-0.183,0.305,-0.183,-4.977,-48.252,-118.812,-23.18,-8.093,-0.653,26.23,-0.44873,0.37177,0.17392,0.79376,843,0.611,-0.034,0.787,-0.061,-0.305,0.122,-2.829,-37.809,159.088,-15.547,-9.42,-27.473,29.9,0.18109,0.31393,-0.08185,0.92834,851,0.964,0.009,0.221,-0.305,0.122,-0.366,3.142,-76.954,-166.811,-28.08,-11.753,-3.5,31.37,0.10663,-0.61588,-0.09271,-0.77499,819
212,0.963,-0.078,0.324,-0.122,0.0,-0.244,-13.837,-70.785,178.489,-24.793,-9.727,-11.7,28.48,-0.07977,-0.57349,0.10559,-0.80838,860,0.748,-0.057,0.663,0.0,0.244,-0.061,-4.977,-48.246,-118.817,-23.18,-8.093,-0.653,26.21,-0.44873,0.37177,0.17392,0.79376,856,0.608,-0.034,0.782,0.061,-0.244,0.305,-2.834,-37.815,159.115,-15.547,-9.42,-27.473,29.9,0.18109,0.31393,-0.08185,0.92834,864,0.962,0.01,0.223,-0.488,0.0,-0.366,3.159,-76.954,-166.833,-28.08,-11.753,-3.5,31.37,0.10663,-0.61588,-0.09271,-0.77499,836
213,0.965,-0.079,0.324,-0.305,0.244,-0.244,-13.826,-70.779,178.467,-24.793,-9.727,-11.7,28.48,-0.07977,-0.57349,0.10559,-0.80838,861,0.75,-0.06,0.663,-0.061,0.122,-0.061,-4.977,-48.241,-118.823,-23.18,-8.093,-0.653,26.21,-0.44873,0.37177,0.17392,0.79376,857,0.612,-0.041,0.781,-0.122,-0.427,0.305,-2.84,-37.826,159.126,-15.547,-9.42,-27.473,29.9,0.18109,0.31393,-0.08185,0.92834,865,0.962,0.014,0.225,-0.488,0.0,-0.305,3.17,-76.954,-166.86,-28.08,-11.753,-3.5,31.37,0.10663,-0.61588,-0.09271,-0.77499,837
214,0.963,-0.08,0.324,-0.244,0.183,-0.183,-13.815,-70.779,178.445,-24.793,-9.727,-11.7,28.48,-0.07977,-0.57349,0.10559,-0.80838,862,0.748,-0.057,0.663,0.0,0.0,-0.061,-4.977,-48.241,-118.828,-23.18,-8.093,-0.653,26.21,-0.44873,0.37177,0.17392,0.79376,858,0.608,-0.036,0.782,-0.061,-0.366,0.244,-2.845,-37.831,159.142,-15.547,-9.42,-27.473,29.9,0.18109,0.31393,-0.08185,0.92834,866,0.962,0.015,0.222,-0.366,0.0,-0.244,3.181,-76.959,-166.877,-28.08,-11.753,-3.5,31.37,0.10663,-0.61588,-0.09271,-0.77499,838
215,0.965,-0.079,0.324,-0.305,0.244,-0.244,-13.826,-70.779,178.467,-24.793,-9.727,-11.7,28.48,-0.07977,-0.57349,0.10559,-0.80838,863,0.75,-0.06,0.663,-0.061,0.122,-0.061,-4.977,-48.241,-118.823,-23.18,-8.093,-0.653,26.21,-0.44873,0.37177,0.17392,0.79376,859,0.612,-0.041,0.781,-0.122,-0.427,0.305,-2.84,-37.826,159.126,-15.547,-9.42,-27.473,29.9,0.18109,0.31393,-0.08185,0.92834,867,0.962,0.014,0.225,-0.488,0.0,-0.305,3.17,-76.954,-166.86,-28.08,-11.753,-3.5,31.37,0.10663,-0.61588,-0.09271,-0.77499,839
216,0.965,-0.08,0.324,-0.244,0.183,-0.183,-13.815,-70.779,178.445,-24.793,-9.727,-11.7,28.48,-0.07977,-0.57349,0.10559,-0.80838,876,0.749,-0.057,0.663,0.0,0.0,-0.061,-4.977,-48.241,-118.828,-23.18,-8.093,-0.653,26.21,-0.44873,0.37177,0.17392,0.79376,868,0.611,-0.036,0.782,-0.061,-0.366,0.244,-2.845,-37.831,159.142,-15.547,-9.42,-27.473,29.9,0.18109,0.31393,-0.08185,0.92834,880,0.961,0.015,0.222,-0.366,0.0,-0.244,3.181,-76.959,-166.877,-28.08,-11.753,-3.5,31.37,0.10663,-0.61588,-0.09271,-0.77499,852
217,0.965,-0.079,0.324,-0.122,0.183,-0.122,-13.81,-70.774,178.429,-24.793,-9.727,-11.7,28.48,-0.07977,-0.57349,0.10559,-0.80838,877,0.748,-0.055,0.664,0.0,-0.061,0.0,-4.977,-48.241,-118.828,-23.18,-8.093,-0.653,26.21,-0.44873,0.37177,0.17392,0.79376,869,0.61,-0.036,0.782,-0.061,-0.549,0.122,-2.851,-37.842,159.164,-15.547,-9.42,-27.473,29.9,0.18109,0.31393,-0.08185,0.92834,881,0.96,0.014,0.217,-0.488,0.061,-0.244,3.186,-76.959,-166.893,-28.08,-11.753,-3.5,31.37,0.10663,-0.61588,-0.09271,-0.77499,853
218,0.965,-0.077,0.324,-0.122,0.244,0.0,-13.804,-70.774,178.423,-24.793,-9.727,-11.7,28.48,-0.07977,-0.57349,0.10559,-0.80838,878,0.749,-0.055,0.665,0.0,-0.061,-0.061,-4.977,-48.246,-118.834,-23.18,-8.093,-0.653,26.21,-0.44873,0.37177,0.17392,0.79376,870,0.611,-0.036,0.783,-0.244,-0.488,0.0,-2.851,-37.853,159.181,-15.547,-9.42,-27.473,29.9,0.18109,0.31393,-0.08185,0.92834,882,0.961,0.012,0.219,-0.61,0.122,-0.244,3.197,-76.954,-166.904,-28.08,-11.753,-3.5,31.37,0.10663,-0.61588,-0.09271,-0.77499,854
219,0.965,-0.079,0.324,-0.122,0.183,-0.122,-13.81,-70.774,178.429,-24.793,-9.727,-11.7,28.48,-0.07977,-0.57349,0.10559,-0.80838,879,0.748,-0.055,0.664,0.0,-0.061,0.0,-4.977,-48.241,-118.828,-23.18,-8.093,-0.653,26.21,-0.44873,0.37177,0.17392,0.79376,871,0.61,-0.036,0.782,-0.061,-0.549,0.122,-2.851,-37.842,159.164,-15.547,-9.42,-27.473,29.9,0.18109,0.31393,-0.08185,0.92834,883,0.96,0.014,0.217,-0.488,0.061,-0.244,3.186,-76.959,-166.893,-28.08,-11.753,-3.5,31.37,0.10663,-0.61588,-0.09271,-0.77499,855
220,0.964,-0.077,0.324,-0.122,0.244,0.0,-13.804,-70.774,178.423,-24.793,-9.727,-11.7,28.48,-0.08066,-0.57352,0.10583,-0.80826,888,0.75,-0.055,0.665,0.0,-0.061,-0.061,-4.977,-48.246,-118.834,-23.18,-8.093,-0.653,26.21,-0.44873,0.37177,0.17392,0.79376,884,0.611,-0.036,0.783,-0.244,-0.488,0.0,-2.851,-37.853,159.181,-15.547,-9.42,-27.473,29.9,0.18109,0.31393,-0.08185,0.92834,892,0.962,0.012,0.219,-0.61,0.122,-0.244,3.197,-76.954,-166.904,-28.08,-11.753,-3.5,31.37,0.10663,-0.61588,-0.09271,-0.77499,872
221,0.964,-0.078,0.326,-0.061,0.122,0.061,-13.81,-70.768,178.418,-24.793,-9.727,-11.7,28.48,-0.08066,-0.57352,0.10583,-0.80826,889,0.75,-0.056,0.665,0.122,-0.122,-0.122,-4.971,-48.246,-118.834,-23.18,-8.093,-0.653,26.21,-0.44873,0.37177,0.17392,0.79376,885,0.611,-0.037,0.783,-0.061,-0.305,-0.122,-2.851,-37.859,159.197,-15.547,-9.42,-27.473,29.9,0.18109,0.31393,-0.08185,0.92834,893,0.962,0.012,0.218,-0.549,0.183,-0.183,3.203,-76.954,-166.921,-28.08,-11.753,-3.5,31.37,0.10663,-0.61588,-0.09271,-0.77499,873
222,0.964,-0.08,0.327,-0.122,0.061,0.122,-13.815,-70.768,178.418,-24.793,-9.727,-11.7,28.48,-0.08066,-0.57352,0.10583,-0.80826,890,0.75,-0.055,0.665,0.183,0.0,-0.122,-4.966,-48.252,-118.839,-23.18,-8.093,-0.653,26.21,-0.44873,0.37177,0.17392,0.79376,886,0.611,-0.035,0.783,0.122,-0.061,-0.183,-2.845,-37.859,159.192,-15.547,-9.42,-27.473,29.9,0.18109,0.31393,-0.08185,0.92834,894,0.962,0.014,0.218,-0.244,0.183,-0.122,3.203,-76.954,-166.926,-28.08,-11.753,-3.5,31.37,0.10663,-0.61588,-0.09271,-0.77499,874
223,0.964,-0.078,0.326,-0.061,0.122,0.061,-13.81,-70.768,178.418,-24.793,-9.727,-11.7,28.48,-0.08066,-0.57352,0.10583,-0.80826,891,0.75,-0.056,0.665,0.122,-0.122,-0.122,-4.971,-48.246,-118.834,-23.18,-8.093,-0.653,26.21,-0.44873,0.37177,0.17392,0.79376,887,0.611,-0.037,0.783,-0.061,-0.305,-0.122,-2.851,-37.859,159.197,-15.547,-9.42,-27.473,29.9,0.18109,0.31393,-0.08185,0.92834,895,0.962,0.012,0.218,-0.549,0.183,-0.183,3.203,-76.954,-166.921,-28.08,-11.753,-3.5,31.37,0.10663,-0.61588,-0.09271,-0.77499,875
224,0.964,-0.08,0.327,-0.122,0.061,0.122,-13.815,-70.768,178.418,-24.793,-9.727,-11.7,28.48,-0.08066,-0.57352,0.10583,-0.80826,908,0.749,-0.055,0.665,0.183,0.0,-0.122,-4.966,-48.252,-118.839,-23.18,-8.093,-0.653,26.21,-0.44873,0.37177,0.17392,0.79376,904,0.61,-0.035,0.783,0.122,-0.061,-0.183,-2.845,-37.859,159.192,-15.167,-9.793,-27.053,29.9,0.18109,0.31393,-0.08185,0.92834,912,0.962,0.014,0.218,-0.244,0.183,-0.122,3.203,-76.954,-166.926,-28.08,-11.753,-3.5,31.37,0.10663,-0.61588,-0.09271,-0.77499,896
225,0.963,-0.08,0.327,-0.061,0.122,0.122,-13.815,-70.768,178.418,-24.793,-9.727,-11.7,28.48,-0.08066,-0.57352,0.10583,-0.80826,909,0.748,-0.056,0.665,0.061,0.0,0.0,-4.96,-48.252,-118.845,-23.18,-8.093,-0.653,26.21,-0.44873,0.37177,0.17392,0.79376,905,0.61,-0.036,0.783,-0.122,-0.061,-0.183,-2.84,-37.859,159.164,-15.167,-9.793,-27.053,29.9,0.18109,0.31393,-0.08185,0.92834,913,0.961,0.015,0.22,-0.244,0.183,0.0,3.208,-76.948,-166.926,-28.08,-11.753,-3.5,31.37,0.10663,-0.61588,-0.09271,-0.77499,897
226,0.964,-0.081,0.329,0.0,0.244,0.183,-13.821,-70.763,178.423,-24.793,-9.727,-11.7,28.48,-0.08066,-0.57352,0.10583,-0.80826,910,0.749,-0.058,0.665,0.0,0.0,0.0,-4.96,-48.252,-118.845,-23.18,-8.093,-0.653,26.21,-0.44873,0.37177,0.17392,0.79376,906,0.61,-0.038,0.784,-0.183,-0.183,-0.061,-2.845,-37.864,159.126,-15.167,-9.793,-27.053,29.9,0.18109,0.31393,-0.08185,0.92834,914,0.962,0.014,0.222,-0.183,0.183,0.0,3.203,-76.948,-166.921,-28.08,-11.753,-3.5,31.37,0.10663,-0.61588,-0.09271,-0.77499,898
227,0.963,-0.08,0.327,-0.061,0.122,0.122,-13.815,-70.768,178.418,-24.793,-9.727,-11.7,28.48,-0.08066,-0.57352,0.10583,-0.80826,911,0.748,-0.056,0.665,0.061,0.0,0.0,-4.96,-48.252,-118.845,-23.18,-8.093,-0.653,26.21,-0.44873,0.37177,0.17392,0.79376,907,0.61,-0.036,0.783,-0.122,-0.061,-0.183,-2.84,-37.859,159.164,-15.167,-9.793,-27.053,29.9,0.18109,0.31393,-0.08185,0.92834,915,0.961,0.015,0.22,-0.244,0.183,0.0,3.208,-76.948,-166.926,-28.08,-11.753,-3.5,31.37,0.10663,-0.61588,-0.09271,-0.77499,899
228,0.964,-0.081,0.329,0.0,0.244,0.183,-13.821,-70.763,178.423,-24.793,-9.727,-11.7,28.48,-0.08066,-0.57352,0.10583,-0.80826,924,0.747,-0.058,0.665,0.0,0.0,0.0,-4.96,-48.252,-118.845,-23.18,-8.093,-0.653,26.21,-0.44873,0.37177,0.17392,0.79376,920,0.609,-0.038,0.784,-0.183,-0.183,-0.061,-2.845,-37.864,159.126,-15.167,-9.793,-27.053,29.9,0.18109,0.31393,-0.08185,0.92834,928,0.962,0.014,0.222,-0.183,0.183,0.0,3.203,-76.948,-166.921,-28.4,-12.52,-3.4,31.37,0.10663,-0.61588,-0.09271,-0.77499,900
229,0.963,-0.081,0.329,0.061,0.183,0.183,-13.826,-70.757,178.423,-24.793,-9.727,-11.7,28.48,-0.08066,-0.57352,0.10583,-0.80826,925,0.748,-0.061,0.667,0.061,-0.061,0.0,-4.96,-48.252,-118.845,-23.18,-8.093,-0.653,26.21,-0.44873,0.37177,0.17392,0.79376,921,0.608,-0.042,0.785,0.0,-0.244,0.0,-2.845,-37.87,159.099,-15.167,-9.793,-27.053,29.9,0.18109,0.31393,-0.08185,0.92834,929,0.961,0.012,0.221,-0.183,0.122,0.122,3.197,-76.948,-166.91,-28.4,-12.52,-3.4,31.37,0.10663,-0.61588,-0.09271,-0.77499,901
230,0.964,-0.081,0.328,0.0,0.183,0.122,-13.832,-70.752,178.423,-24.793,-9.727,-11.7,28.48,-0.08066,-0.57352,0.10583,-0.80826,926,0.747,-0.059,0.667,0.122,0.0,0.0,-4.955,-48.252,-118.845,-23.18,-8.093,-0.653,26.21,-0.44873,0.37177,0.17392,0.79376,922,0.609,-0.04,0.785,0.061,-0.244,0.0,-2.84,-37.875,159.088,-15.167,-9.793,-27.053,29.9,0.18109,0.31393,-0.08185,0.92834,930,0.962,0.011,0.22,-0.244,0.122,0.122,3.186,-76.943,-166.893,-28.4,-12.52,-3.4,31.37,0.10663,-0.61588,-0.09271,-0.77499,902
231,0.963,-0.081,0.329,0.061,0.183,0.183,-13.826,-70.757,178.423,-24.793,-9.727,-11.7,28.48,-0.08066,-0.57352,0.10583,-0.80826,927,0.748,-0.061,0.667,0.061,-0.061,0.0,-4.96,-48.252,-118.845,-23.18,-8.093,-0.653,26.21,-0.44873,0.37177,0.17392,0.79376,923,0.608,-0.042,0.785,0.0,-0.244,0.0,-2.845,-37.87,159.099,-15.167,-9.793,-27.053,29.9,0.18109,0.31393,-0.08185,0.92834,931,0.961,0.012,0.221,-0.183,0.122,0.122,3.197,-76.948,-166.91,-28.4,-12.52,-3.4,31.37,0.10663,-0.61588,-0.09271,-0.77499,903
232,0.963,-0.081,0.328,0.0,0.183,0.122,-13.832,-70.752,178.423,-24.793,-9.727,-11.7,28.48,-0.08066,-0.57352,0.10583,-0.80826,940,0.748,-0.059,0.667,0.122,0.0,0.0,-4.955,-48.252,-118.845,-23.18,-8.093,-0.653,26.21,-0.44873,0.37177,0.17392,0.79376,936,0.609,-0.04,0.785,0.061,-0.244,0.0,-2.84,-37.875,159.088,-15.167,-9.793,-27.053,29.9,0.17935,0.31476,-0.08191,0.92841,944,0.961,0.011,0.22,-0.244,0.122,0.122,3.186,-76.943,-166.893,-28.4,-12.52,-3.4,31.37,0.10663,-0.61588,-0.09271,-0.77499,916
233,0.963,-0.082,0.328,-0.061,0.122,0.122,-13.837,-70.752,178.423,-24.793,-9.727,-11.7,28.48,-0.08066,-0.57352,0.10583,-0.80826,941,0.747,-0.06,0.666,0.183,0.0,0.122,-4.955,-48.252,-118.845,-23.18,-8.093,-0.653,26.21,-0.44873,0.37177,0.17392,0.79376,937,0.61,-0.041,0.783,0.244,0.0,0.122,-2.84,-37.875,159.077,-15.167,-9.793,-27.053,29.9,0.17935,0.31476,-0.08191,0.92841,945,0.962,0.011,0.223,-0.122,0.305,0.061,3.17,-76.943,-166.877,-28.4,-12.52,-3.4,31.37,0.10663,-0.61588,-0.09271,-0.77499,917
234,0.963,-0.083,0.326,0.0,0.0,0.061,-13.843,-70.746,178.423,-24.793,-9.727,-11.7,28.48,-0.08066,-0.57352,0.10583,-0.80826,942,0.748,-0.061,0.666,0.244,0.0,0.183,-4.955,-48.252,-118.845,-23.18,-8.093,-0.653,26.21,-0.44873,0.37177,0.17392,0.79376,938,0.609,-0.042,0.783,0.366,0.122,0.183,-2.834,-37.875,159.077,-15.167,-9.793,-27.053,29.9,0.17935,0.31476,-0.08191,0.92841,946,0.961,0.01,0.223,0.0,0.366,0.061,3.164,-76.937,-166.86,-28.4,-12.52,-3.4,31.37,0.10663,-0.61588,-0.09271,-0.77499,918
235,0.963,-0.082,0.328,-0.061,0.122,0.122,-13.837,-70.752,178.423,-24.793,-9.727,-11.7,28.48,-0.08066,-0.57352,0.10583,-0.80826,943,0.747,-0.06,0.666,0.183,0.0,0.122,-4.955,-48.252,-118.845,-23.18,-8.093,-0.653,26.21,-0.44873,0.37177,0.17392,0.79376,939,0.61,-0.041,0.783,0.244,0.0,0.122,-2.84,-37.875,159.077,-15.167,-9.793,-27.053,29.9,0.17935,0.31476,-0.08191,0.92841,947,0.962,0.011,0.223,-0.122,0.305,0.061,3.17,-76.943,-166.877,-28.4,-12.52,-3.4,31.37,0.10663,-0.61588,-0.09271,-0.77499,919
236,0.963,-0.083,0.326,0.0,0.0,0.061,-13.843,-70.746,178.423,-24.793,-9.727,-11.7,28.48,-0.08066,-0.57352,0.10583,-0.80826,952,0.748,-0.061,0.666,0.244,0.0,0.183,-4.955,-48.252,-118.845,-23.18,-8.093,-0.653,26.21,-0.44873,0.37177,0.17392,0.79376,956,0.609,-0.042,0.783,0.366,0.122,0.183,-2.834,-37.875,159.077,-15.167,-9.793,-27.053,29.9,0.17935,0.31476,-0.08191,0.92841,972,0.961,0.01,0.223,0.0,0.366,0.061,3.164,-76.937,-166.86,-28.4,-12.52,-3.4,31.37,0.10657,-0.61526,-0.09259,-0.77551,932
