Index,L5_Acceleration X(g),L5_Acceleration Y(g),L5_Acceleration Z(g),L5_Angular velocity X(°/s),L5_Angular velocity Y(°/s),L5_Angular velocity Z(°/s),L5_Angle X(°),L5_Angle Y(°),L5_Angle Z(°),L5_Magnetic field X(ʯt),L5_Magnetic field Y(ʯt),L5_Magnetic field Z(ʯt),L5_Temperature(℃),L5_Quaternions 0(),L5_Quaternions 1(),L5_Quaternions 2(),L5_Quaternions 3(),L5___orig_idx,T4_Acceleration X(g),T4_Acceleration Y(g),T4_Acceleration Z(g),T4_Angular velocity X(°/s),T4_Angular velocity Y(°/s),T4_Angular velocity Z(°/s),T4_Angle X(°),T4_Angle Y(°),T4_Angle Z(°),T4_Magnetic field X(ʯt),T4_Magnetic field Y(ʯt),T4_Magnetic field Z(ʯt),T4_Temperature(℃),T4_Quaternions 0(),T4_Quaternions 1(),T4_Quaternions 2(),T4_Quaternions 3(),T4___orig_idx,C7_Acceleration X(g),C7_Acceleration Y(g),C7_Acceleration Z(g),C7_Angular velocity X(°/s),C7_Angular velocity Y(°/s),C7_Angular velocity Z(°/s),C7_Angle X(°),C7_Angle Y(°),C7_Angle Z(°),C7_Magnetic field X(ʯt),C7_Magnetic field Y(ʯt),C7_Magnetic field Z(ʯt),C7_Temperature(℃),C7_Quaternions 0(),C7_Quaternions 1(),C7_Quaternions 2(),C7_Quaternions 3(),C7___orig_idx,T12_Acceleration X(g),T12_Acceleration Y(g),T12_Acceleration Z(g),T12_Angular velocity X(°/s),T12_Angular velocity Y(°/s),T12_Angular velocity Z(°/s),T12_Angle X(°),T12_Angle Y(°),T12_Angle Z(°),T12_Magnetic field X(ʯt),T12_Magnetic field Y(ʯt),T12_Magnetic field Z(ʯt),T12_Temperature(℃),T12_Quaternions 0(),T12_Quaternions 1(),T12_Quaternions 2(),T12_Quaternions 3(),T12___orig_idx
0,0.859,0.034,0.524,-0.793,3.052,0.366,5.202,-58.705,154.655,-22.887,-8.413,-16.28,26.95,-0.16516,-0.4913,0.06818,-0.85242,8,0.752,0.235,0.61,1.282,-3.601,-0.732,20.242,-48.571,-141.372,-21.127,-14.573,-2.653,26.38,0.37201,-0.31903,-0.27786,-0.82614,6,0.74,0.198,0.633,0.0,-6.836,0.183,16.276,-47.472,155.176,-17.873,-14.273,-20.647,30.5,0.13849,0.4068,0.04279,0.90189,2,0.932,0.126,0.297,0.732,-1.404,-2.625,21.934,-71.598,177.676,-29.087,-12.147,-5.773,30.93,0.1037,-0.57428,-0.14667,-0.79865,0
1,0.862,0.03,0.533,-2.319,2.869,0.305,5.136,-58.656,154.649,-22.887,-8.413,-16.28,26.95,-0.16516,-0.4913,0.06818,-0.85242,9,0.759,0.232,0.615,2.441,-4.028,-0.366,20.33,-48.642,-141.46,-21.127,-14.573,-2.653,26.38,0.37201,-0.31903,-0.27786,-0.82614,7,0.742,0.197,0.635,1.16,-5.798,0.244,16.331,-47.587,155.171,-17.873,-14.273,-20.647,30.5,0.13849,0.4068,0.04279,0.90189,3,0.934,0.123,0.291,-0.061,-0.793,-1.221,22.104,-71.609,177.506,-29.087,-12.147,-5.773,30.93,0.1037,-0.57428,-0.14667,-0.79865,1
2,0.855,0.033,0.543,-2.38,2.686,0.366,5.065,-58.612,154.66,-22.887,-8.413,-16.28,26.95,-0.16516,-0.4913,0.06818,-0.85242,16,0.775,0.238,0.612,1.892,-3.723,-0.305,20.407,-48.713,-141.537,-21.973,-14.8,-0.993,26.38,0.37201,-0.31903,-0.27786,-0.82614,10,0.762,0.193,0.625,0.916,-4.517,1.038,16.37,-47.686,155.198,-17.873,-14.273,-20.647,30.5,0.13849,0.4068,0.04279,0.90189,12,0.939,0.111,0.294,-1.465,-0.671,-0.122,22.176,-71.62,177.429,-29.087,-12.147,-5.773,30.93,0.1037,-0.57428,-0.14667,-0.79865,4
3,0.855,0.036,0.553,-1.465,2.258,0.427,5.004,-58.568,154.704,-22.887,-8.413,-16.28,26.95,-0.16516,-0.4913,0.06818,-0.85242,17,0.778,0.244,0.613,0.061,-2.258,-0.916,20.462,-48.763,-141.619,-21.973,-14.8,-0.993,26.38,0.37201,-0.31903,-0.27786,-0.82614,11,0.761,0.203,0.627,-0.427,-2.502,0.671,16.381,-47.752,155.22,-17.873,-14.273,-20.647,30.5,0.13849,0.4068,0.04279,0.90189,13,0.944,0.114,0.302,-2.319,0.0,0.854,22.148,-71.631,177.418,-29.087,-12.147,-5.773,30.93,0.1037,-0.57428,-0.14667,-0.79865,5
4,0.86,0.035,0.551,-0.244,1.648,0.244,4.982,-58.535,154.753,-22.887,-8.413,-16.28,26.95,-0.16516,-0.4913,0.06818,-0.85242,22,0.769,0.24,0.621,-0.427,0.305,-0.671,20.479,-48.763,-141.685,-21.973,-14.8,-0.993,26.38,0.37201,-0.31903,-0.27786,-0.82614,18,0.754,0.2,0.628,-0.183,-0.61,0.732,16.375,-47.78,155.187,-17.873,-14.273,-20.647,30.5,0.13849,0.4068,0.04279,0.90189,20,0.948,0.11,0.312,-1.77,1.282,1.77,22.033,-71.631,177.495,-29.087,-12.147,-5.773,30.93,0.1037,-0.57428,-0.14667,-0.79865,14
5,0.86,0.038,0.551,0.916,1.953,0.0,4.982,-58.491,154.825,-22.887,-8.413,-16.28,26.95,-0.16516,-0.4913,0.06818,-0.85242,23,0.764,0.225,0.62,0.61,2.258,0.61,20.468,-48.741,-141.696,-21.973,-14.8,-0.993,26.38,0.37201,-0.31903,-0.27786,-0.82614,19,0.75,0.191,0.633,2.808,0.0,2.014,16.392,-47.796,155.176,-17.873,-14.273,-20.647,30.5,0.13849,0.4068,0.04279,0.90189,21,0.943,0.102,0.307,-0.793,1.648,2.136,21.863,-71.62,177.649,-29.087,-12.147,-5.773,30.93,0.1037,-0.57428,-0.14667,-0.79865,15
6,0.857,0.049,0.544,1.526,2.38,0.0,4.999,-58.436,154.924,-22.887,-8.413,-16.28,26.95,-0.16516,-0.4913,0.06818,-0.85242,30,0.745,0.215,0.614,0.977,3.174,1.282,20.44,-48.697,-141.685,-21.973,-14.8,-0.993,26.38,0.36331,-0.33057,-0.28616,-0.82263,26,0.733,0.173,0.636,2.014,0.671,3.845,16.37,-47.812,155.22,-17.873,-14.273,-20.647,30.5,0.13849,0.4068,0.04279,0.90189,28,0.937,0.103,0.305,0.183,1.526,1.831,21.693,-71.603,177.841,-28.933,-12.387,-5.787,30.93,0.1037,-0.57428,-0.14667,-0.79865,24
7,0.852,0.06,0.545,1.404,2.747,0.305,5.004,-58.381,155.034,-22.887,-8.413,-16.28,26.95,-0.16516,-0.4913,0.06818,-0.85242,31,0.737,0.215,0.618,1.648,2.991,1.343,20.418,-48.658,-141.663,-21.973,-14.8,-0.993,26.38,0.36331,-0.33057,-0.28616,-0.82263,27,0.725,0.172,0.637,1.892,0.732,2.563,16.342,-47.823,155.259,-17.873,-14.273,-20.647,30.5,0.13849,0.4068,0.04279,0.90189,29,0.929,0.105,0.302,0.061,1.831,1.038,21.561,-71.581,178.0,-28.933,-12.387,-5.787,30.93,0.1037,-0.57428,-0.14667,-0.79865,25
8,0.848,0.064,0.539,0.916,2.747,0.549,4.993,-58.321,155.16,-22.86,-8.433,-16.36,26.95,-0.16516,-0.4913,0.06818,-0.85242,34,0.737,0.219,0.615,3.052,2.38,0.793,20.429,-48.62,-141.647,-21.973,-14.8,-0.993,26.38,0.36331,-0.33057,-0.28616,-0.82263,40,0.728,0.175,0.638,2.869,0.977,2.258,16.342,-47.823,155.308,-17.873,-14.273,-20.647,30.5,0.13849,0.4068,0.04279,0.90189,36,0.922,0.116,0.301,-0.671,1.892,0.244,21.467,-71.548,178.11,-28.933,-12.387,-5.787,30.93,0.09573,-0.57675,-0.1416,-0.79877,32
9,0.847,0.062,0.542,0.305,2.686,0.488,4.982,-58.26,155.259,-22.86,-8.433,-16.36,26.95,-0.16516,-0.4913,0.06818,-0.85242,35,0.752,0.226,0.616,2.502,1.038,-0.305,20.468,-48.598,-141.669,-21.973,-14.8,-0.993,26.38,0.36331,-0.33057,-0.28616,-0.82263,41,0.721,0.178,0.643,2.502,0.793,0.977,16.359,-47.818,155.319,-17.873,-14.273,-20.647,30.5,0.13849,0.4068,0.04279,0.90189,37,0.919,0.128,0.298,-1.16,2.197,-0.183,21.39,-71.505,178.154,-28.933,-12.387,-5.787,30.93,0.09573,-0.57675,-0.1416,-0.79877,33
10,0.85,0.056,0.537,-0.122,2.502,0.183,4.971,-58.206,155.341,-22.86,-8.433,-16.36,26.95,-0.16586,-0.48288,0.06677,-0.85718,48,0.738,0.241,0.62,-0.549,2.38,-1.953,20.484,-48.554,-141.724,-21.973,-14.8,-0.993,26.38,0.36331,-0.33057,-0.28616,-0.82263,44,0.739,0.189,0.626,-1.831,1.587,0.305,16.326,-47.802,155.292,-18.833,-14.193,-19.987,30.5,0.13849,0.4068,0.04279,0.90189,46,0.923,0.126,0.298,-0.977,2.441,-0.549,21.335,-71.455,178.182,-28.933,-12.387,-5.787,30.93,0.09573,-0.57675,-0.1416,-0.79877,38
11,0.857,0.057,0.533,-0.488,2.38,-0.122,4.966,-58.151,155.424,-22.86,-8.433,-16.36,26.95,-0.16586,-0.48288,0.06677,-0.85718,49,0.726,0.243,0.62,-4.333,2.319,-3.601,20.462,-48.488,-141.823,-21.973,-14.8,-0.993,26.38,0.36331,-0.33057,-0.28616,-0.82263,45,0.714,0.198,0.646,-5.676,1.038,0.305,16.216,-47.78,155.259,-18.833,-14.193,-19.987,30.5,0.13849,0.4068,0.04279,0.90189,47,0.921,0.123,0.299,-1.282,2.686,-1.16,21.308,-71.395,178.182,-28.933,-12.387,-5.787,30.93,0.09573,-0.57675,-0.1416,-0.79877,39
12,0.862,0.057,0.536,-0.916,2.075,-0.549,4.966,-58.101,155.435,-22.86,-8.433,-16.36,26.95,-0.16586,-0.48288,0.06677,-0.85718,56,0.739,0.236,0.635,-2.93,2.075,-3.601,20.457,-48.428,-141.927,-21.973,-14.8,-0.993,26.38,0.36331,-0.33057,-0.28616,-0.82263,50,0.729,0.199,0.648,-3.906,2.136,-2.38,16.161,-47.736,155.198,-18.833,-14.193,-19.987,30.5,0.13849,0.4068,0.04279,0.90189,54,0.926,0.121,0.297,-2.38,2.136,-1.404,21.292,-71.34,178.16,-28.933,-12.387,-5.787,30.93,0.09573,-0.57675,-0.1416,-0.79877,42
13,0.867,0.055,0.543,-0.977,1.648,-0.61,4.971,-58.063,155.446,-22.86,-8.433,-16.36,26.95,-0.16586,-0.48288,0.06677,-0.85718,57,0.753,0.245,0.637,-2.991,2.197,-2.93,20.451,-48.362,-142.015,-21.973,-14.8,-0.993,26.38,0.36331,-0.33057,-0.28616,-0.82263,51,0.749,0.205,0.653,-4.272,3.052,0.122,16.073,-47.681,155.187,-18.833,-14.193,-19.987,30.5,0.13849,0.4068,0.04279,0.90189,55,0.935,0.124,0.3,-3.052,1.343,-1.465,21.286,-71.29,178.105,-28.933,-12.387,-5.787,30.93,0.09573,-0.57675,-0.1416,-0.79877,43
14,0.871,0.048,0.542,-0.732,0.854,-0.488,4.977,-58.041,155.462,-22.86,-8.433,-16.36,26.95,-0.16586,-0.48288,0.06677,-0.85718,62,0.751,0.24,0.632,-1.343,2.014,-1.77,20.446,-48.307,-142.07,-21.973,-14.8,-0.993,26.38,0.36331,-0.33057,-0.28616,-0.82263,58,0.741,0.197,0.655,-2.075,2.747,-0.061,16.013,-47.62,155.171,-18.833,-14.193,-19.987,30.5,0.13956,0.41806,0.0387,0.89673,60,0.941,0.12,0.304,-3.235,0.854,-1.465,21.286,-71.252,178.028,-28.933,-12.387,-5.787,30.93,0.09573,-0.57675,-0.1416,-0.79877,52
15,0.871,0.042,0.54,-0.366,0.366,-0.183,4.982,-58.03,155.49,-22.86,-8.433,-16.36,26.95,-0.16586,-0.48288,0.06677,-0.85718,63,0.751,0.238,0.634,0.366,1.587,-0.671,20.451,-48.268,-142.103,-21.973,-14.8,-0.993,26.38,0.36331,-0.33057,-0.28616,-0.82263,59,0.739,0.192,0.655,-0.122,2.441,0.183,15.991,-47.576,155.149,-18.833,-14.193,-19.987,30.5,0.13956,0.41806,0.0387,0.89673,61,0.942,0.115,0.307,-2.197,0.732,-1.526,21.302,-71.224,177.929,-28.933,-12.387,-5.787,30.93,0.09573,-0.57675,-0.1416,-0.79877,53
16,0.857,0.043,0.539,0.122,0.305,0.305,4.977,-58.024,155.528,-22.86,-8.433,-16.36,26.95,-0.16586,-0.48288,0.06677,-0.85718,70,0.75,0.236,0.639,0.671,1.831,-0.61,20.462,-48.224,-142.125,-21.973,-14.8,-0.993,26.38,0.36331,-0.33057,-0.28616,-0.82263,66,0.738,0.185,0.657,1.892,2.625,0.0,16.013,-47.521,155.143,-18.833,-14.193,-19.987,30.5,0.13956,0.41806,0.0387,0.89673,68,0.941,0.117,0.301,-1.343,0.061,-1.221,21.335,-71.202,177.852,-28.933,-12.387,-5.787,30.93,0.09573,-0.57675,-0.1416,-0.79877,64
17,0.852,0.046,0.545,-0.183,-0.061,0.793,4.955,-58.019,155.544,-22.86,-8.433,-16.36,26.95,-0.16586,-0.48288,0.06677,-0.85718,71,0.744,0.244,0.637,-0.732,2.075,-0.977,20.462,-48.181,-142.147,-21.973,-14.8,-0.993,26.38,0.36331,-0.33057,-0.28616,-0.82263,67,0.735,0.195,0.658,0.061,3.052,-0.916,16.024,-47.461,155.138,-18.833,-14.193,-19.987,30.5,0.13956,0.41806,0.0387,0.89673,69,0.94,0.116,0.3,-0.916,-0.854,-0.793,21.379,-71.197,177.786,-28.933,-12.387,-5.787,30.93,0.09573,-0.57675,-0.1416,-0.79877,65
18,0.853,0.046,0.543,-0.793,-0.977,0.61,4.927,-58.024,155.566,-22.86,-8.433,-16.36,26.95,-0.16586,-0.48288,0.06677,-0.85718,80,0.735,0.247,0.632,-0.61,1.77,-0.732,20.451,-48.137,-142.174,-21.973,-14.8,-0.993,26.38,0.36331,-0.33057,-0.28616,-0.82263,76,0.725,0.202,0.653,0.671,2.747,-0.549,16.035,-47.406,155.165,-18.833,-14.193,-19.987,30.5,0.13956,0.41806,0.0387,0.89673,78,0.935,0.116,0.304,-0.793,-1.465,-0.732,21.429,-71.213,177.709,-28.933,-12.387,-5.787,30.93,0.09573,-0.57675,-0.1416,-0.79877,72
19,0.854,0.045,0.539,-1.099,-1.221,0.244,4.9,-58.041,155.605,-22.86,-8.433,-16.36,26.95,-0.16586,-0.48288,0.06677,-0.85718,81,0.732,0.235,0.633,-0.793,1.343,-0.671,20.446,-48.104,-142.202,-21.973,-14.8,-0.993,26.38,0.36331,-0.33057,-0.28616,-0.82263,77,0.72,0.19,0.656,0.183,2.258,-0.305,16.04,-47.357,155.193,-18.833,-14.193,-19.987,30.5,0.13956,0.41806,0.0387,0.89673,79,0.929,0.12,0.307,-1.038,-1.709,-0.183,21.467,-71.235,177.643,-28.933,-12.387,-5.787,30.93,0.09573,-0.57675,-0.1416,-0.79877,73
20,0.853,0.046,0.537,-0.732,-0.977,0.183,4.878,-58.063,155.61,-22.86,-8.433,-16.36,26.95,-0.16586,-0.48288,0.06677,-0.85718,88,0.729,0.23,0.629,-0.916,0.671,-0.488,20.435,-48.082,-142.229,-21.973,-14.8,-0.993,26.38,0.36331,-0.33057,-0.28616,-0.82263,86,0.717,0.185,0.651,0.0,1.709,-0.671,16.051,-47.313,155.226,-18.833,-14.193,-19.987,30.5,0.13956,0.41806,0.0387,0.89673,82,0.925,0.119,0.302,-1.526,-1.587,0.244,21.473,-71.257,177.621,-28.933,-12.387,-5.787,30.93,0.09573,-0.57675,-0.1416,-0.79877,74
21,0.855,0.046,0.542,-0.122,-0.671,0.244,4.861,-58.074,155.599,-22.86,-8.433,-16.36,26.95,-0.16586,-0.48288,0.06677,-0.85718,89,0.731,0.225,0.627,-1.526,0.366,-0.671,20.418,-48.065,-142.273,-21.973,-14.8,-0.993,26.38,0.36331,-0.33057,-0.28616,-0.82263,87,0.717,0.18,0.648,-0.549,1.099,-0.244,16.046,-47.285,155.259,-18.833,-14.193,-19.987,30.5,0.13956,0.41806,0.0387,0.89673,83,0.923,0.114,0.297,-2.136,-1.648,0.427,21.451,-71.285,177.632,-28.933,-12.387,-5.787,30.93,0.09573,-0.57675,-0.1416,-0.79877,75
22,0.859,0.045,0.544,0.549,-0.793,0.366,4.856,-58.085,155.599,-22.547,-8.387,-17.373,26.95,-0.16586,-0.48288,0.06677,-0.85718,94,0.743,0.225,0.629,-2.808,0.305,-1.038,20.38,-48.049,-142.328,-21.427,-15.027,-1.307,26.38,0.36331,-0.33057,-0.28616,-0.82263,90,0.73,0.179,0.649,-2.258,0.977,-0.427,16.013,-47.263,155.281,-18.833,-14.193,-19.987,30.5,0.13956,0.41806,0.0387,0.89673,92,0.925,0.112,0.291,-1.77,-1.709,0.244,21.429,-71.318,177.627,-28.933,-12.387,-5.787,30.93,0.09573,-0.57675,-0.1416,-0.79877,84
23,0.863,0.041,0.542,1.099,-0.732,0.427,4.861,-58.096,155.616,-22.547,-8.387,-17.373,26.95,-0.16586,-0.48288,0.06677,-0.85718,95,0.754,0.226,0.629,-3.052,0.244,-1.099,20.341,-48.032,-142.377,-21.427,-15.027,-1.307,26.38,0.36331,-0.33057,-0.28616,-0.82263,91,0.742,0.181,0.648,-3.052,0.793,-0.427,15.958,-47.241,155.264,-18.833,-14.193,-19.987,30.5,0.13956,0.41806,0.0387,0.89673,93,0.931,0.112,0.298,-1.099,-1.404,0.0,21.423,-71.34,177.627,-28.933,-12.387,-5.787,30.93,0.09573,-0.57675,-0.1416,-0.79877,85
24,0.866,0.04,0.541,1.282,-0.61,0.427,4.872,-58.107,155.649,-22.547,-8.387,-17.373,26.95,-0.16388,-0.48212,0.06589,-0.85806,102,0.751,0.225,0.626,-2.014,0.854,-0.549,20.303,-48.01,-142.394,-21.427,-15.027,-1.307,26.38,0.36331,-0.33057,-0.28616,-0.82263,98,0.739,0.183,0.642,-1.465,1.404,0.671,15.908,-47.219,155.259,-18.833,-14.193,-19.987,30.5,0.13956,0.41806,0.0387,0.89673,100,0.936,0.11,0.295,-0.366,-0.854,-0.305,21.44,-71.356,177.621,-28.493,-12.293,-5.62,30.93,0.09573,-0.57675,-0.1416,-0.79877,96
25,0.867,0.042,0.539,1.404,-0.549,0.244,4.883,-58.112,155.676,-22.547,-8.387,-17.373,26.95,-0.16388,-0.48212,0.06589,-0.85806,103,0.74,0.225,0.62,-1.343,1.404,0.0,20.264,-47.983,-142.388,-21.427,-15.027,-1.307,26.38,0.36331,-0.33057,-0.28616,-0.82263,99,0.727,0.18,0.639,-0.427,1.77,2.014,15.848,-47.197,155.297,-18.833,-14.193,-19.987,30.5,0.13956,0.41806,0.0387,0.89673,101,0.936,0.107,0.296,0.671,-0.488,-0.671,21.478,-71.362,177.594,-28.493,-12.293,-5.62,30.93,0.09573,-0.57675,-0.1416,-0.79877,97
26,0.869,0.048,0.538,1.099,-0.183,0.061,4.905,-58.118,155.687,-22.547,-8.387,-17.373,26.95,-0.16388,-0.48212,0.06589,-0.85806,106,0.744,0.228,0.622,-0.305,1.221,0.244,20.242,-47.966,-142.366,-21.427,-15.027,-1.307,26.38,0.35764,-0.32712,-0.28131,-0.82816,110,0.733,0.182,0.641,-0.122,1.831,1.831,15.798,-47.175,155.33,-18.833,-14.193,-19.987,30.5,0.13956,0.41806,0.0387,0.89673,108,0.936,0.107,0.292,1.648,-0.244,-0.854,21.55,-71.356,177.556,-28.493,-12.293,-5.62,30.93,0.09198,-0.57605,-0.13953,-0.80008,104
27,0.869,0.053,0.539,0.305,0.061,0.061,4.916,-58.118,155.704,-22.547,-8.387,-17.373,26.95,-0.16388,-0.48212,0.06589,-0.85806,107,0.748,0.233,0.627,-0.244,1.465,0.0,20.226,-47.939,-142.361,-21.427,-15.027,-1.307,26.38,0.35764,-0.32712,-0.28131,-0.82816,111,0.734,0.184,0.646,0.061,2.319,1.709,15.749,-47.142,155.363,-18.833,-14.193,-19.987,30.5,0.13956,0.41806,0.0387,0.89673,109,0.938,0.113,0.292,1.709,-0.244,-0.793,21.621,-71.356,177.528,-28.493,-12.293,-5.62,30.93,0.09198,-0.57605,-0.13953,-0.80008,105
28,0.869,0.049,0.534,-0.122,0.0,0.122,4.922,-58.112,155.709,-22.547,-8.387,-17.373,26.95,-0.16388,-0.48212,0.06589,-0.85806,118,0.745,0.233,0.628,-0.977,0.977,-0.854,20.215,-47.917,-142.394,-21.427,-15.027,-1.307,26.38,0.35764,-0.32712,-0.28131,-0.82816,116,0.73,0.179,0.652,-0.122,2.075,0.793,15.716,-47.115,155.38,-18.853,-14.173,-19.813,30.5,0.13956,0.41806,0.0387,0.89673,114,0.94,0.122,0.291,0.732,-0.122,-0.671,21.676,-71.351,177.534,-28.493,-12.293,-5.62,30.93,0.09198,-0.57605,-0.13953,-0.80008,112
29,0.869,0.043,0.535,-0.305,0.061,0.0,4.916,-58.107,155.709,-22.547,-8.387,-17.373,26.95,-0.16388,-0.48212,0.06589,-0.85806,119,0.743,0.235,0.631,-1.953,0.854,-1.709,20.204,-47.889,-142.449,-21.427,-15.027,-1.307,26.38,0.35764,-0.32712,-0.28131,-0.82816,117,0.732,0.182,0.652,-1.709,1.648,-0.61,15.688,-47.082,155.374,-18.853,-14.173,-19.813,30.5,0.13956,0.41806,0.0387,0.89673,115,0.939,0.126,0.287,0.488,0.244,-0.488,21.709,-71.345,177.528,-28.493,-12.293,-5.62,30.93,0.09198,-0.57605,-0.13953,-0.80008,113
30,0.87,0.04,0.537,-0.122,0.0,-0.244,4.911,-58.107,155.715,-22.547,-8.387,-17.373,26.95,-0.16388,-0.48212,0.06589,-0.85806,126,0.744,0.234,0.631,-2.502,0.916,-2.075,20.193,-47.862,-142.515,-21.427,-15.027,-1.307,26.38,0.35764,-0.32712,-0.28131,-0.82816,122,0.732,0.188,0.652,-2.014,1.465,-1.16,15.661,-47.049,155.352,-18.853,-14.173,-19.813,30.5,0.13956,0.41806,0.0387,0.89673,128,0.939,0.123,0.289,0.183,0.61,-0.305,21.725,-71.329,177.523,-28.493,-12.293,-5.62,30.93,0.09198,-0.57605,-0.13953,-0.80008,120
31,0.871,0.044,0.537,0.0,-0.183,-0.305,4.916,-58.107,155.748,-22.547,-8.387,-17.373,26.95,-0.16388,-0.48212,0.06589,-0.85806,127,0.745,0.229,0.631,-2.93,0.854,-2.075,20.171,-47.829,-142.586,-21.427,-15.027,-1.307,26.38,0.35764,-0.32712,-0.28131,-0.82816,123,0.732,0.182,0.652,-2.014,1.404,-1.038,15.639,-47.021,155.314,-18.853,-14.173,-19.813,30.5,0.13956,0.41806,0.0387,0.89673,129,0.939,0.116,0.289,0.366,0.488,-0.122,21.731,-71.323,177.528,-28.493,-12.293,-5.62,30.93,0.09198,-0.57605,-0.13953,-0.80008,121
32,0.87,0.046,0.535,-0.305,-0.244,-0.305,4.922,-58.112,155.764,-22.547,-8.387,-17.373,26.95,-0.16388,-0.48212,0.06589,-0.85806,136,0.742,0.23,0.63,-2.869,0.61,-1.648,20.143,-47.812,-142.641,-21.427,-15.027,-1.307,26.38,0.35764,-0.32712,-0.28131,-0.82816,130,0.729,0.184,0.653,-2.38,1.343,-0.732,15.601,-46.994,155.286,-18.853,-14.173,-19.813,30.5,0.1413,0.4126,0.03723,0.89905,134,0.941,0.112,0.293,0.549,0.671,-0.122,21.736,-71.312,177.539,-28.493,-12.293,-5.62,30.93,0.09198,-0.57605,-0.13953,-0.80008,124
33,0.863,0.048,0.535,-0.671,-0.061,-0.244,4.927,-58.112,155.786,-22.547,-8.387,-17.373,26.95,-0.16388,-0.48212,0.06589,-0.85806,137,0.739,0.236,0.631,-2.014,0.183,-1.038,20.127,-47.802,-142.696,-21.427,-15.027,-1.307,26.38,0.35764,-0.32712,-0.28131,-0.82816,131,0.728,0.19,0.654,-2.075,1.099,-0.854,15.573,-46.972,155.248,-18.853,-14.173,-19.813,30.5,0.1413,0.4126,0.03723,0.89905,135,0.94,0.116,0.292,0.671,0.61,0.0,21.736,-71.301,177.561,-28.493,-12.293,-5.62,30.93,0.09198,-0.57605,-0.13953,-0.80008,125
34,0.86,0.047,0.538,-0.732,0.061,-0.122,4.916,-58.112,155.808,-22.547,-8.387,-17.373,26.95,-0.16388,-0.48212,0.06589,-0.85806,140,0.744,0.233,0.63,-1.831,-0.061,-0.549,20.099,-47.802,-142.74,-21.427,-15.027,-1.307,26.38,0.35764,-0.32712,-0.28131,-0.82816,138,0.729,0.188,0.653,-2.38,0.854,0.305,15.524,-46.956,155.22,-18.853,-14.173,-19.813,30.5,0.1413,0.4126,0.03723,0.89905,144,0.937,0.117,0.289,0.549,0.549,0.0,21.736,-71.29,177.567,-28.493,-12.293,-5.62,30.93,0.09198,-0.57605,-0.13953,-0.80008,132
35,0.86,0.045,0.538,-0.366,0.0,-0.122,4.905,-58.112,155.808,-22.547,-8.387,-17.373,26.95,-0.16388,-0.48212,0.06589,-0.85806,141,0.744,0.238,0.63,-1.953,-0.305,-0.61,20.083,-47.802,-142.789,-21.427,-15.027,-1.307,26.38,0.35764,-0.32712,-0.28131,-0.82816,139,0.731,0.183,0.652,-3.052,0.671,-0.305,15.469,-46.945,155.187,-18.853,-14.173,-19.813,30.5,0.1413,0.4126,0.03723,0.89905,145,0.937,0.12,0.288,-0.122,0.549,0.0,21.725,-71.285,177.55,-28.493,-12.293,-5.62,30.93,0.09198,-0.57605,-0.13953,-0.80008,133
36,0.86,0.044,0.538,0.244,-0.122,0.0,4.905,-58.112,155.83,-22.547,-8.387,-17.373,26.95,-0.16388,-0.48212,0.06589,-0.85806,150,0.742,0.235,0.633,-1.465,0.0,-0.488,20.067,-47.802,-142.817,-21.427,-15.027,-1.307,26.38,0.35764,-0.32712,-0.28131,-0.82816,148,0.728,0.188,0.652,-2.319,0.793,-1.038,15.436,-46.928,155.132,-18.853,-14.173,-19.813,30.5,0.1413,0.4126,0.03723,0.89905,146,0.934,0.121,0.293,-0.122,0.61,0.183,21.709,-71.274,177.545,-28.493,-12.293,-5.62,30.93,0.09198,-0.57605,-0.13953,-0.80008,142
37,0.859,0.045,0.538,0.854,-0.122,0.0,4.916,-58.118,155.896,-22.547,-8.387,-17.373,26.95,-0.16388,-0.48212,0.06589,-0.85806,151,0.742,0.227,0.632,-0.244,0.122,0.0,20.061,-47.802,-142.822,-21.427,-15.027,-1.307,26.38,0.35764,-0.32712,-0.28131,-0.82816,149,0.726,0.178,0.651,-1.099,1.221,0.732,15.403,-46.912,155.116,-18.853,-14.173,-19.813,30.5,0.1413,0.4126,0.03723,0.89905,147,0.933,0.117,0.297,0.183,0.549,0.427,21.682,-71.268,177.567,-28.493,-12.293,-5.62,30.93,0.09198,-0.57605,-0.13953,-0.80008,143
38,0.858,0.048,0.539,1.038,-0.122,0.0,4.933,-58.118,155.918,-22.827,-8.58,-16.34,26.95,-0.16388,-0.48212,0.06589,-0.85806,158,0.737,0.222,0.634,-0.549,0.366,-0.122,20.05,-47.791,-142.817,-21.427,-15.027,-1.307,26.38,0.35764,-0.32712,-0.28131,-0.82816,156,0.722,0.167,0.655,-0.671,1.343,-0.061,15.381,-46.89,155.078,-18.853,-14.173,-19.813,30.5,0.1413,0.4126,0.03723,0.89905,154,0.933,0.113,0.292,1.038,0.305,0.427,21.671,-71.268,177.616,-28.493,-12.293,-5.62,30.93,0.09198,-0.57605,-0.13953,-0.80008,152
39,0.856,0.051,0.541,0.793,-0.122,0.0,4.949,-58.118,155.934,-22.827,-8.58,-16.34,26.95,-0.16388,-0.48212,0.06589,-0.85806,159,0.732,0.226,0.633,-1.038,0.488,-0.427,20.034,-47.78,-142.811,-21.427,-15.027,-1.307,26.38,0.35764,-0.32712,-0.28131,-0.82816,157,0.718,0.176,0.656,-1.343,1.465,-0.732,15.359,-46.862,155.023,-18.853,-14.173,-19.813,30.5,0.1413,0.4126,0.03723,0.89905,155,0.931,0.114,0.297,1.709,0.366,0.244,21.676,-71.263,177.676,-28.493,-12.293,-5.62,30.93,0.09198,-0.57605,-0.13953,-0.80008,153
40,0.857,0.053,0.541,0.427,-0.366,0.0,4.966,-58.118,155.929,-22.827,-8.58,-16.34,26.95,-0.16144,-0.48248,0.06409,-0.85846,168,0.737,0.229,0.632,-0.671,0.366,-0.488,20.028,-47.769,-142.811,-21.86,-14.373,-1.167,26.38,0.35764,-0.32712,-0.28131,-0.82816,162,0.724,0.181,0.658,-0.61,0.793,-0.549,15.353,-46.84,154.99,-18.853,-14.173,-19.813,30.58,0.1413,0.4126,0.03723,0.89905,164,0.93,0.116,0.296,2.136,0.427,0.122,21.703,-71.257,177.72,-28.493,-12.293,-5.62,30.93,0.09198,-0.57605,-0.13953,-0.80008,160
41,0.86,0.051,0.538,0.305,-0.61,0.061,4.977,-58.123,155.945,-22.827,-8.58,-16.34,26.95,-0.16144,-0.48248,0.06409,-0.85846,169,0.739,0.228,0.631,0.549,0.0,-0.366,20.045,-47.769,-142.822,-21.86,-14.373,-1.167,26.38,0.35764,-0.32712,-0.28131,-0.82816,163,0.724,0.176,0.654,0.366,0.427,-0.671,15.364,-46.829,154.946,-18.853,-14.173,-19.813,30.58,0.1413,0.4126,0.03723,0.89905,165,0.929,0.123,0.298,2.075,0.488,0.061,21.731,-71.252,177.753,-28.493,-12.293,-5.62,30.93,0.09198,-0.57605,-0.13953,-0.80008,161
42,0.86,0.049,0.537,0.549,-0.732,0.0,4.988,-58.134,155.967,-22.827,-8.58,-16.34,26.95,-0.16144,-0.48248,0.06409,-0.85846,176,0.736,0.232,0.636,0.854,-0.488,-0.305,20.072,-47.774,-142.839,-21.86,-14.373,-1.167,26.38,0.35764,-0.32712,-0.28131,-0.82816,170,0.72,0.181,0.659,0.366,0.427,-0.305,15.375,-46.818,154.918,-18.853,-14.173,-19.813,30.58,0.1413,0.4126,0.03723,0.89905,172,0.929,0.124,0.301,1.953,0.671,0.122,21.747,-71.241,177.77,-28.58,-12.64,-5.967,30.93,0.09198,-0.57605,-0.13953,-0.80008,166
43,0.859,0.05,0.539,0.671,-0.854,-0.061,5.004,-58.145,155.989,-22.827,-8.58,-16.34,26.95,-0.16144,-0.48248,0.06409,-0.85846,177,0.738,0.234,0.636,-0.488,-0.061,-0.793,20.078,-47.769,-142.866,-21.86,-14.373,-1.167,26.38,0.35764,-0.32712,-0.28131,-0.82816,171,0.723,0.181,0.656,-0.183,0.732,-1.099,15.392,-46.802,154.896,-18.853,-14.173,-19.813,30.58,0.1413,0.4126,0.03723,0.89905,173,0.93,0.121,0.302,1.77,0.732,0.061,21.769,-71.224,177.77,-28.58,-12.64,-5.967,30.93,0.09198,-0.57605,-0.13953,-0.80008,167
44,0.861,0.049,0.542,0.732,-0.916,0.0,5.021,-58.156,156.011,-22.827,-8.58,-16.34,26.95,-0.16144,-0.48248,0.06409,-0.85846,180,0.737,0.229,0.633,-0.549,0.061,-1.16,20.089,-47.758,-142.899,-21.86,-14.373,-1.167,26.38,0.35364,-0.32718,-0.27805,-0.83093,182,0.722,0.179,0.658,0.061,0.732,-1.221,15.414,-46.785,154.869,-18.853,-14.173,-19.813,30.58,0.1413,0.4126,0.03723,0.89905,178,0.932,0.12,0.298,1.77,0.549,0.061,21.786,-71.213,177.77,-28.58,-12.64,-5.967,30.93,0.09198,-0.57605,-0.13953,-0.80008,174
45,0.863,0.048,0.538,0.549,-1.221,0.0,5.043,-58.173,156.033,-22.827,-8.58,-16.34,26.95,-0.16144,-0.48248,0.06409,-0.85846,181,0.742,0.228,0.635,-0.244,-0.122,-1.343,20.11,-47.747,-142.943,-21.86,-14.373,-1.167,26.38,0.35364,-0.32718,-0.27805,-0.83093,183,0.726,0.177,0.66,-0.061,0.427,-1.465,15.436,-46.763,154.874,-18.853,-14.173,-19.813,30.58,0.1413,0.4126,0.03723,0.89905,179,0.933,0.122,0.298,1.892,0.427,0.0,21.819,-71.202,177.775,-28.58,-12.64,-5.967,30.93,0.09198,-0.57605,-0.13953,-0.80008,175
46,0.866,0.045,0.537,0.427,-1.16,0.0,5.054,-58.195,156.072,-22.827,-8.58,-16.34,26.95,-0.16144,-0.48248,0.06409,-0.85846,190,0.743,0.232,0.636,-0.366,-0.305,-1.465,20.138,-47.741,-142.993,-21.86,-14.373,-1.167,26.38,0.35364,-0.32718,-0.27805,-0.83093,186,0.728,0.185,0.661,-0.793,0.244,-2.014,15.458,-46.752,154.863,-18.853,-14.173,-19.813,30.58,0.1413,0.4126,0.03723,0.89905,188,0.933,0.123,0.301,2.075,0.488,0.122,21.841,-71.191,177.792,-28.58,-12.64,-5.967,30.93,0.09464,-0.57449,-0.1427,-0.80032,184
47,0.865,0.046,0.536,0.671,-1.099,0.0,5.07,-58.211,156.116,-22.827,-8.58,-16.34,26.95,-0.16144,-0.48248,0.06409,-0.85846,191,0.741,0.239,0.638,-0.671,-0.488,-1.038,20.143,-47.741,-143.026,-21.86,-14.373,-1.167,26.38,0.35364,-0.32718,-0.27805,-0.83093,187,0.726,0.192,0.66,-0.793,0.244,-1.77,15.48,-46.736,154.841,-18.853,-14.173,-19.813,30.58,0.1413,0.4126,0.03723,0.89905,189,0.934,0.121,0.299,2.258,0.427,0.183,21.868,-71.18,177.836,-28.58,-12.64,-5.967,30.93,0.09464,-0.57449,-0.1427,-0.80032,185
48,0.865,0.05,0.536,0.854,-1.16,-0.061,5.087,-58.233,156.143,-22.827,-8.58,-16.34,26.95,-0.16144,-0.48248,0.06409,-0.85846,198,0.738,0.239,0.635,-0.732,-0.183,-0.61,20.143,-47.741,-143.047,-21.86,-14.373,-1.167,26.38,0.35364,-0.32718,-0.27805,-0.83093,196,0.722,0.189,0.659,0.0,0.244,-1.16,15.502,-46.725,154.83,-18.853,-14.173,-19.813,30.58,0.1413,0.4126,0.03723,0.89905,194,0.935,0.115,0.298,2.258,0.244,0.305,21.896,-71.175,177.88,-28.58,-12.64,-5.967,30.93,0.09464,-0.57449,-0.1427,-0.80032,192
49,0.862,0.052,0.535,1.038,-1.282,0.0,5.114,-58.25,156.16,-22.827,-8.58,-16.34,26.95,-0.16144,-0.48248,0.06409,-0.85846,199,0.736,0.237,0.633,-0.549,-0.183,-0.488,20.149,-47.736,-143.069,-21.86,-14.373,-1.167,26.38,0.35364,-0.32718,-0.27805,-0.83093,197,0.72,0.191,0.659,-1.16,0.061,-1.038,15.507,-46.714,154.803,-18.853,-14.173,-19.813,30.58,0.1413,0.4126,0.03723,0.89905,195,0.935,0.118,0.3,1.953,0.0,0.488,21.907,-71.175,177.913,-28.58,-12.64,-5.967,30.93,0.09464,-0.57449,-0.1427,-0.80032,193
50,0.861,0.051,0.533,0.854,-1.465,0.244,5.131,-58.277,156.165,-22.827,-8.58,-16.34,26.95,-0.16144,-0.48248,0.06409,-0.85846,208,0.735,0.233,0.637,-0.183,-0.244,-0.488,20.154,-47.736,-143.091,-21.86,-14.373,-1.167,26.38,0.35364,-0.32718,-0.27805,-0.83093,202,0.719,0.183,0.66,-0.305,0.0,-0.732,15.513,-46.708,154.77,-18.853,-14.173,-19.813,30.58,0.1413,0.4126,0.03723,0.89905,204,0.933,0.121,0.298,1.282,-0.244,0.671,21.896,-71.186,177.935,-28.58,-12.64,-5.967,30.93,0.09464,-0.57449,-0.1427,-0.80032,200
51,0.861,0.052,0.532,0.549,-1.587,0.366,5.142,-58.304,156.182,-22.827,-8.58,-16.34,26.95,-0.16144,-0.48248,0.06409,-0.85846,209,0.738,0.231,0.634,-1.587,-0.366,-1.221,20.154,-47.73,-143.13,-21.86,-14.373,-1.167,26.38,0.35364,-0.32718,-0.27805,-0.83093,203,0.721,0.177,0.66,-2.136,0.0,-1.587,15.507,-46.703,154.709,-18.853,-14.173,-19.813,30.58,0.1413,0.4126,0.03723,0.89905,205,0.931,0.124,0.295,1.099,-0.549,0.671,21.896,-71.197,177.94,-28.58,-12.64,-5.967,30.93,0.09464,-0.57449,-0.1427,-0.80032,201
52,0.864,0.052,0.532,0.305,-1.648,0.427,5.147,-58.332,156.187,-23.113,-8.42,-17.38,26.95,-0.16144,-0.48248,0.06409,-0.85846,214,0.737,0.236,0.634,-2.563,-0.427,-2.197,20.149,-47.719,-143.196,-21.86,-14.373,-1.167,26.38,0.35364,-0.32718,-0.27805,-0.83093,212,0.722,0.187,0.656,-1.343,0.0,-2.991,15.535,-46.686,154.6,-18.853,-14.173,-19.813,30.58,0.1413,0.4126,0.03723,0.89905,210,0.931,0.125,0.295,1.099,-0.671,0.671,21.901,-71.213,177.94,-28.58,-12.64,-5.967,30.93,0.09464,-0.57449,-0.1427,-0.80032,206
53,0.868,0.054,0.533,0.122,-1.648,0.427,5.142,-58.365,156.176,-23.113,-8.42,-17.38,26.95,-0.16144,-0.48248,0.06409,-0.85846,215,0.742,0.233,0.629,-2.136,0.0,-2.502,20.149,-47.697,-143.267,-21.86,-14.373,-1.167,26.38,0.35364,-0.32718,-0.27805,-0.83093,213,0.724,0.189,0.652,-2.441,-0.122,-2.625,15.546,-46.67,154.495,-18.853,-14.173,-19.813,30.58,0.1413,0.4126,0.03723,0.89905,211,0.93,0.125,0.294,1.099,-0.977,0.854,21.901,-71.235,177.957,-28.58,-12.64,-5.967,30.93,0.09464,-0.57449,-0.1427,-0.80032,207
54,0.871,0.055,0.534,-0.061,-1.648,0.366,5.142,-58.392,156.149,-23.113,-8.42,-17.38,26.95,-0.16144,-0.48248,0.06409,-0.85846,220,0.746,0.233,0.631,-1.465,-0.122,-2.075,20.16,-47.681,-143.35,-21.86,-14.373,-1.167,26.38,0.35364,-0.32718,-0.27805,-0.83093,218,0.729,0.185,0.654,-0.916,0.0,-3.174,15.584,-46.653,154.402,-18.393,-13.993,-20.133,30.58,0.1413,0.4126,0.03723,0.89905,228,0.932,0.125,0.295,1.099,-1.404,1.16,21.896,-71.263,177.979,-28.58,-12.64,-5.967,30.93,0.09464,-0.57449,-0.1427,-0.80032,216
55,0.871,0.055,0.531,-0.183,-1.587,0.366,5.136,-58.425,156.132,-23.113,-8.42,-17.38,26.95,-0.16144,-0.48248,0.06409,-0.85846,221,0.744,0.237,0.632,-1.709,0.0,-1.587,20.171,-47.67,-143.41,-21.86,-14.373,-1.167,26.38,0.35364,-0.32718,-0.27805,-0.83093,219,0.73,0.188,0.653,-0.793,0.0,-2.502,15.623,-46.642,154.33,-18.393,-13.993,-20.133,30.58,0.1413,0.4126,0.03723,0.89905,229,0.936,0.123,0.293,1.038,-1.465,1.343,21.885,-71.301,178.066,-28.58,-12.64,-5.967,30.93,0.09464,-0.57449,-0.1427,-0.80032,217
56,0.87,0.053,0.53,-0.305,-1.343,0.305,5.131,-58.447,156.127,-23.113,-8.42,-17.38,26.95,-0.15878,-0.48499,0.06241,-0.85767,226,0.743,0.236,0.63,-1.099,0.305,-1.038,20.171,-47.659,-143.459,-21.86,-14.373,-1.167,26.38,0.35364,-0.32718,-0.27805,-0.83093,224,0.728,0.193,0.655,-1.038,0.366,-2.075,15.65,-46.626,154.286,-18.393,-13.993,-20.133,30.58,0.14984,0.41006,0.03467,0.89893,232,0.939,0.121,0.294,1.099,-1.587,1.221,21.879,-71.334,178.138,-28.58,-12.64,-5.967,30.93,0.09464,-0.57449,-0.1427,-0.80032,222
57,0.869,0.05,0.529,-0.305,-1.282,0.427,5.12,-58.475,156.138,-23.113,-8.42,-17.38,26.95,-0.15878,-0.48499,0.06241,-0.85767,227,0.742,0.234,0.631,0.0,0.366,-0.61,20.176,-47.642,-143.492,-21.86,-14.373,-1.167,26.38,0.35364,-0.32718,-0.27805,-0.83093,225,0.728,0.189,0.652,-1.282,0.183,-1.587,15.661,-46.615,154.248,-18.393,-13.993,-20.133,30.58,0.14984,0.41006,0.03467,0.89893,233,0.938,0.12,0.292,0.916,-1.465,0.916,21.89,-71.367,178.165,-28.58,-12.64,-5.967,30.93,0.09464,-0.57449,-0.1427,-0.80032,223
58,0.871,0.047,0.528,-0.122,-1.099,0.549,5.109,-58.497,156.16,-23.113,-8.42,-17.38,26.95,-0.15878,-0.48499,0.06241,-0.85767,238,0.739,0.23,0.627,0.0,0.305,-0.488,20.187,-47.637,-143.514,-21.3,-14.633,-1.607,26.38,0.35364,-0.32718,-0.27805,-0.83093,240,0.726,0.187,0.651,0.122,0.427,-1.16,15.688,-46.604,154.232,-18.393,-13.993,-20.133,30.58,0.14984,0.41006,0.03467,0.89893,236,0.938,0.121,0.288,0.549,-1.526,0.732,21.901,-71.395,178.176,-28.58,-12.64,-5.967,30.93,0.09464,-0.57449,-0.1427,-0.80032,230
59,0.871,0.046,0.526,0.183,-0.977,0.549,5.103,-58.519,156.16,-23.113,-8.42,-17.38,26.95,-0.15878,-0.48499,0.06241,-0.85767,239,0.738,0.228,0.625,-0.244,0.122,-0.61,20.198,-47.626,-143.531,-21.3,-14.633,-1.607,26.38,0.35364,-0.32718,-0.27805,-0.83093,241,0.723,0.182,0.652,0.366,0.488,-0.977,15.716,-46.593,154.248,-18.393,-13.993,-20.133,30.58,0.14984,0.41006,0.03467,0.89893,237,0.938,0.119,0.291,0.549,-1.587,0.61,21.918,-71.428,178.165,-28.58,-12.64,-5.967,30.93,0.09464,-0.57449,-0.1427,-0.80032,231
60,0.871,0.045,0.528,0.488,-0.732,0.549,5.098,-58.535,156.143,-23.113,-8.42,-17.38,26.95,-0.15878,-0.48499,0.06241,-0.85767,246,0.741,0.228,0.627,-0.183,0.244,-0.61,20.204,-47.62,-143.564,-21.3,-14.633,-1.607,26.38,0.34879,-0.32736,-0.2767,-0.83337,248,0.724,0.18,0.65,-0.183,0.183,-1.221,15.738,-46.582,154.248,-18.393,-13.993,-20.133,30.58,0.14984,0.41006,0.03467,0.89893,244,0.936,0.118,0.285,0.671,-1.587,0.61,21.94,-71.461,178.154,-28.48,-12.527,-5.827,30.93,0.09464,-0.57449,-0.1427,-0.80032,234
61,0.872,0.047,0.527,0.488,-0.488,0.488,5.092,-58.546,156.132,-23.113,-8.42,-17.38,26.95,-0.15878,-0.48499,0.06241,-0.85767,247,0.742,0.226,0.628,-0.244,0.244,-0.671,20.215,-47.615,-143.586,-21.3,-14.633,-1.607,26.38,0.34879,-0.32736,-0.2767,-0.83337,249,0.727,0.18,0.648,-0.122,0.0,-1.099,15.754,-46.582,154.248,-18.393,-13.993,-20.133,30.58,0.14984,0.41006,0.03467,0.89893,245,0.937,0.115,0.283,0.916,-1.282,0.549,21.967,-71.488,178.149,-28.48,-12.527,-5.827,30.93,0.09464,-0.57449,-0.1427,-0.80032,235
62,0.872,0.045,0.524,0.122,-0.366,0.488,5.087,-58.557,156.154,-23.113,-8.42,-17.38,26.95,-0.15878,-0.48499,0.06241,-0.85767,250,0.738,0.228,0.628,0.0,0.305,-0.549,20.22,-47.609,-143.602,-21.3,-14.633,-1.607,26.38,0.34879,-0.32736,-0.2767,-0.83337,254,0.728,0.181,0.651,-0.061,0.488,-1.099,15.776,-46.571,154.226,-18.393,-13.993,-20.133,30.58,0.14984,0.41006,0.03467,0.89893,252,0.938,0.115,0.283,1.282,-0.916,0.427,21.995,-71.51,178.127,-28.48,-12.527,-5.827,30.93,0.09464,-0.57449,-0.1427,-0.80032,242
63,0.872,0.045,0.525,-0.061,-0.244,0.427,5.076,-58.563,156.143,-23.113,-8.42,-17.38,26.95,-0.15878,-0.48499,0.06241,-0.85767,251,0.741,0.23,0.629,0.488,0.183,-0.366,20.231,-47.604,-143.619,-21.3,-14.633,-1.607,26.38,0.34879,-0.32736,-0.2767,-0.83337,255,0.723,0.182,0.651,0.122,0.61,-0.916,15.793,-46.56,154.199,-18.393,-13.993,-20.133,30.58,0.14984,0.41006,0.03467,0.89893,253,0.938,0.116,0.282,1.16,-0.366,0.244,22.017,-71.521,178.105,-28.48,-12.527,-5.827,30.93,0.09464,-0.57449,-0.1427,-0.80032,243
64,0.873,0.045,0.528,-0.305,-0.061,0.244,5.065,-58.568,156.143,-23.113,-8.42,-17.38,26.95,-0.15878,-0.48499,0.06241,-0.85767,260,0.743,0.233,0.633,1.221,0.061,-0.122,20.248,-47.604,-143.641,-21.3,-14.633,-1.607,26.38,0.34879,-0.32736,-0.2767,-0.83337,264,0.727,0.185,0.654,0.61,0.61,-0.671,15.815,-46.549,154.182,-18.393,-13.993,-20.133,30.58,0.14984,0.41006,0.03467,0.89893,258,0.939,0.115,0.284,0.793,-0.244,0.244,22.033,-71.532,178.094,-28.48,-12.527,-5.827,30.93,0.09842,-0.57608,-0.14545,-0.79825,256
65,0.873,0.042,0.526,-0.061,-0.183,0.061,5.054,-58.574,156.143,-23.113,-8.42,-17.38,26.95,-0.15878,-0.48499,0.06241,-0.85767,261,0.742,0.227,0.63,1.587,0.366,0.366,20.27,-47.604,-143.646,-21.3,-14.633,-1.607,26.38,0.34879,-0.32736,-0.2767,-0.83337,265,0.728,0.188,0.655,1.282,0.549,-0.366,15.837,-46.538,154.199,-18.393,-13.993,-20.133,30.58,0.14984,0.41006,0.03467,0.89893,259,0.94,0.116,0.282,0.671,-0.183,0.305,22.044,-71.537,178.088,-28.48,-12.527,-5.827,30.93,0.09842,-0.57608,-0.14545,-0.79825,257
66,0.872,0.042,0.528,0.305,0.0,0.061,5.054,-58.574,156.138,-23.113,-8.42,-17.38,26.95,-0.15878,-0.48499,0.06241,-0.85767,272,0.744,0.228,0.63,1.16,0.427,0.61,20.286,-47.598,-143.624,-21.3,-14.633,-1.607,26.38,0.34879,-0.32736,-0.2767,-0.83337,268,0.727,0.181,0.652,1.465,0.427,0.183,15.859,-46.538,154.237,-18.393,-13.993,-20.133,30.58,0.14984,0.41006,0.03467,0.89893,270,0.938,0.109,0.286,0.61,0.061,0.244,22.05,-71.543,178.099,-28.48,-12.527,-5.827,30.93,0.09842,-0.57608,-0.14545,-0.79825,262
67,0.871,0.045,0.531,0.305,0.183,-0.061,5.059,-58.574,156.127,-23.113,-8.42,-17.38,26.95,-0.15878,-0.48499,0.06241,-0.85767,273,0.741,0.234,0.632,0.61,0.793,0.549,20.286,-47.598,-143.613,-21.3,-14.633,-1.607,26.38,0.34879,-0.32736,-0.2767,-0.83337,269,0.728,0.182,0.655,0.854,0.916,0.366,15.864,-46.527,154.259,-18.393,-13.993,-20.133,30.58,0.14984,0.41006,0.03467,0.89893,271,0.939,0.111,0.283,0.671,0.244,0.0,22.05,-71.548,178.127,-28.48,-12.527,-5.827,30.93,0.09842,-0.57608,-0.14545,-0.79825,263
68,0.87,0.047,0.53,-0.122,0.244,0.0,5.059,-58.574,156.105,-22.407,-8.553,-17.0,26.95,-0.15878,-0.48499,0.06241,-0.85767,280,0.738,0.235,0.63,1.038,0.916,0.671,20.281,-47.587,-143.597,-21.3,-14.633,-1.607,26.38,0.34879,-0.32736,-0.2767,-0.83337,278,0.723,0.189,0.654,0.427,1.404,0.244,15.859,-46.505,154.27,-18.393,-13.993,-20.133,30.58,0.14984,0.41006,0.03467,0.89893,274,0.939,0.115,0.286,0.793,0.244,-0.122,22.055,-71.548,178.105,-28.48,-12.527,-5.827,30.93,0.09842,-0.57608,-0.14545,-0.79825,266
69,0.866,0.048,0.53,-0.549,0.427,0.0,5.054,-58.563,156.066,-22.407,-8.553,-17.0,26.95,-0.15878,-0.48499,0.06241,-0.85767,281,0.739,0.23,0.631,1.526,0.732,0.793,20.281,-47.582,-143.58,-21.3,-14.633,-1.607,26.38,0.34879,-0.32736,-0.2767,-0.83337,279,0.722,0.189,0.655,0.854,1.526,0.366,15.859,-46.483,154.303,-18.393,-13.993,-20.133,30.58,0.14984,0.41006,0.03467,0.89893,275,0.938,0.119,0.288,0.488,0.305,0.0,22.066,-71.543,178.05,-28.48,-12.527,-5.827,30.93,0.09842,-0.57608,-0.14545,-0.79825,267
70,0.866,0.047,0.531,-0.488,0.488,-0.183,5.043,-58.557,156.044,-22.407,-8.553,-17.0,26.95,-0.15976,-0.4859,0.06381,-0.85684,288,0.736,0.231,0.635,1.343,0.427,0.671,20.292,-47.576,-143.58,-21.3,-14.633,-1.607,26.38,0.34879,-0.32736,-0.2767,-0.83337,284,0.721,0.182,0.657,0.916,1.099,0.549,15.859,-46.472,154.347,-18.393,-13.993,-20.133,30.58,0.14984,0.41006,0.03467,0.89893,282,0.936,0.119,0.285,0.0,0.427,0.0,22.066,-71.543,178.028,-28.48,-12.527,-5.827,30.93,0.09842,-0.57608,-0.14545,-0.79825,276
71,0.867,0.047,0.53,0.0,0.366,-0.122,5.043,-58.546,156.033,-22.407,-8.553,-17.0,26.95,-0.15976,-0.4859,0.06381,-0.85684,289,0.735,0.233,0.634,1.343,0.244,0.549,20.297,-47.576,-143.58,-21.3,-14.633,-1.607,26.38,0.34879,-0.32736,-0.2767,-0.83337,285,0.72,0.184,0.662,0.977,1.099,0.366,15.864,-46.456,154.369,-18.393,-13.993,-20.133,30.58,0.14984,0.41006,0.03467,0.89893,283,0.935,0.117,0.289,-0.122,0.732,-0.061,22.055,-71.532,178.028,-28.48,-12.527,-5.827,30.93,0.09842,-0.57608,-0.14545,-0.79825,277
72,0.866,0.048,0.529,0.305,0.244,-0.061,5.048,-58.541,156.072,-22.407,-8.553,-17.0,26.95,-0.15976,-0.4859,0.06381,-0.85684,294,0.733,0.236,0.637,1.709,0.0,0.671,20.314,-47.576,-143.586,-21.3,-14.633,-1.607,26.38,0.34879,-0.32736,-0.2767,-0.83337,290,0.718,0.188,0.661,0.916,0.732,0.183,15.87,-46.445,154.369,-18.393,-13.993,-20.133,30.58,0.14984,0.41006,0.03467,0.89893,292,0.935,0.117,0.292,0.122,0.793,-0.122,22.044,-71.521,178.011,-28.48,-12.527,-5.827,30.93,0.09842,-0.57608,-0.14545,-0.79825,286
73,0.865,0.048,0.529,0.366,0.061,-0.061,5.054,-58.541,156.094,-22.407,-8.553,-17.0,26.95,-0.15976,-0.4859,0.06381,-0.85684,295,0.73,0.236,0.639,1.648,0.0,0.854,20.33,-47.587,-143.586,-21.3,-14.633,-1.607,26.38,0.34879,-0.32736,-0.2767,-0.83337,291,0.716,0.19,0.663,1.465,0.549,0.305,15.892,-46.439,154.369,-18.393,-13.993,-20.133,30.58,0.14984,0.41006,0.03467,0.89893,293,0.933,0.119,0.29,0.366,0.671,-0.122,22.039,-71.51,177.984,-28.48,-12.527,-5.827,30.93,0.09842,-0.57608,-0.14545,-0.79825,287
74,0.863,0.049,0.531,0.427,-0.122,-0.122,5.065,-58.541,156.099,-22.407,-8.553,-17.0,26.95,-0.15976,-0.4859,0.06381,-0.85684,298,0.729,0.233,0.636,1.831,-0.122,1.099,20.341,-47.593,-143.575,-21.3,-14.633,-1.607,26.38,0.34879,-0.32736,-0.2767,-0.83337,302,0.712,0.191,0.663,1.404,0.549,0.427,15.903,-46.434,154.374,-19.047,-14.447,-20.42,30.58,0.14984,0.41006,0.03467,0.89893,304,0.933,0.117,0.291,0.793,0.305,-0.122,22.044,-71.499,177.957,-28.48,-12.527,-5.827,30.93,0.09842,-0.57608,-0.14545,-0.79825,296
75,0.864,0.051,0.532,0.305,-0.305,-0.122,5.081,-58.541,156.127,-22.407,-8.553,-17.0,26.95,-0.15976,-0.4859,0.06381,-0.85684,299,0.73,0.234,0.637,2.014,-0.427,1.099,20.358,-47.598,-143.558,-21.3,-14.633,-1.607,26.38,0.34879,-0.32736,-0.2767,-0.83337,303,0.712,0.188,0.663,1.892,0.244,0.61,15.93,-46.428,154.363,-19.047,-14.447,-20.42,30.58,0.14984,0.41006,0.03467,0.89893,305,0.932,0.118,0.292,0.671,0.0,-0.183,22.061,-71.494,177.935,-28.48,-12.527,-5.827,30.93,0.09842,-0.57608,-0.14545,-0.79825,297
76,0.864,0.05,0.534,0.244,-0.549,-0.061,5.092,-58.552,156.143,-22.407,-8.553,-17.0,26.95,-0.15976,-0.4859,0.06381,-0.85684,312,0.735,0.239,0.637,1.892,-0.916,0.977,20.374,-47.615,-143.542,-21.673,-14.907,-1.993,26.38,0.34879,-0.32736,-0.2767,-0.83337,306,0.715,0.188,0.664,1.16,-0.183,0.427,15.941,-46.434,154.347,-19.047,-14.447,-20.42,30.58,0.14868,0.40897,0.03766,0.89951,310,0.931,0.122,0.292,0.488,0.061,-0.244,22.083,-71.494,177.896,-28.48,-12.527,-5.827,30.93,0.09842,-0.57608,-0.14545,-0.79825,300
77,0.865,0.049,0.533,0.305,-0.671,0.0,5.103,-58.563,156.149,-22.407,-8.553,-17.0,26.95,-0.15976,-0.4859,0.06381,-0.85684,313,0.737,0.241,0.639,1.465,-1.038,0.793,20.396,-47.637,-143.536,-21.673,-14.907,-1.993,26.38,0.34879,-0.32736,-0.2767,-0.83337,307,0.718,0.194,0.665,1.587,-0.061,0.122,15.974,-46.434,154.325,-19.047,-14.447,-20.42,30.58,0.14868,0.40897,0.03766,0.89951,311,0.933,0.123,0.293,0.427,0.061,-0.183,22.104,-71.494,177.863,-28.48,-12.527,-5.827,30.93,0.09842,-0.57608,-0.14545,-0.79825,301
78,0.865,0.049,0.533,0.549,-0.732,0.061,5.114,-58.574,156.132,-22.407,-8.553,-17.0,26.95,-0.15976,-0.4859,0.06381,-0.85684,318,0.741,0.239,0.636,1.221,-1.038,0.671,20.418,-47.659,-143.531,-21.673,-14.907,-1.993,26.38,0.34879,-0.32736,-0.2767,-0.83337,316,0.718,0.194,0.665,1.465,-0.305,0.0,16.002,-46.439,154.314,-19.047,-14.447,-20.42,30.58,0.14868,0.40897,0.03766,0.89951,320,0.935,0.122,0.296,0.305,0.061,-0.122,22.121,-71.488,177.847,-28.487,-12.167,-6.053,30.93,0.09842,-0.57608,-0.14545,-0.79825,308
79,0.866,0.048,0.531,0.916,-0.977,0.122,5.131,-58.585,156.132,-22.407,-8.553,-17.0,26.95,-0.15976,-0.4859,0.06381,-0.85684,319,0.739,0.238,0.637,1.038,-0.977,0.427,20.435,-47.675,-143.542,-21.673,-14.907,-1.993,26.38,0.34879,-0.32736,-0.2767,-0.83337,317,0.723,0.193,0.665,0.244,-0.977,-0.122,16.018,-46.45,154.297,-19.047,-14.447,-20.42,30.58,0.14868,0.40897,0.03766,0.89951,321,0.936,0.121,0.294,0.549,0.0,-0.061,22.137,-71.488,177.825,-28.487,-12.167,-6.053,30.93,0.09842,-0.57608,-0.14545,-0.79825,309
80,0.866,0.048,0.531,0.854,-1.038,0.183,5.147,-58.601,156.138,-22.407,-8.553,-17.0,26.95,-0.15976,-0.4859,0.06381,-0.85684,326,0.732,0.237,0.633,0.244,-0.671,0.0,20.451,-47.692,-143.553,-21.673,-14.907,-1.993,26.38,0.34964,-0.32703,-0.27856,-0.83252,322,0.717,0.188,0.661,1.465,-0.244,-0.61,16.057,-46.45,154.281,-19.047,-14.447,-20.42,30.58,0.14868,0.40897,0.03766,0.89951,324,0.935,0.122,0.296,0.916,-0.061,0.061,22.154,-71.483,177.792,-28.487,-12.167,-6.053,30.93,0.09842,-0.57608,-0.14545,-0.79825,314
81,0.865,0.049,0.53,0.671,-1.038,0.183,5.158,-58.623,156.149,-22.407,-8.553,-17.0,26.95,-0.15976,-0.4859,0.06381,-0.85684,327,0.732,0.239,0.637,-0.122,-0.732,0.061,20.462,-47.697,-143.569,-21.673,-14.907,-1.993,26.38,0.34964,-0.32703,-0.27856,-0.83252,323,0.714,0.195,0.662,-0.549,-0.427,-1.038,16.073,-46.45,154.254,-19.047,-14.447,-20.42,30.58,0.14868,0.40897,0.03766,0.89951,325,0.934,0.121,0.292,1.099,-0.305,0.122,22.176,-71.483,177.764,-28.487,-12.167,-6.053,30.93,0.09842,-0.57608,-0.14545,-0.79825,315
82,0.865,0.051,0.529,0.366,-1.099,0.122,5.164,-58.64,156.16,-22.947,-8.653,-16.493,26.95,-0.15976,-0.4859,0.06381,-0.85684,334,0.736,0.239,0.635,-0.854,-0.61,0.0,20.457,-47.708,-143.586,-21.673,-14.907,-1.993,26.38,0.34964,-0.32703,-0.27856,-0.83252,330,0.714,0.195,0.661,-0.488,-0.305,-0.549,16.073,-46.45,154.243,-19.047,-14.447,-20.42,30.58,0.14868,0.40897,0.03766,0.89951,332,0.932,0.119,0.292,1.038,-0.366,0.061,22.198,-71.488,177.737,-28.487,-12.167,-6.053,30.93,0.09689,-0.57614,-0.14493,-0.79849,328
83,0.867,0.05,0.528,0.061,-1.16,0.0,5.175,-58.661,156.198,-22.947,-8.653,-16.493,26.95,-0.15976,-0.4859,0.06381,-0.85684,335,0.74,0.237,0.634,-1.648,-0.549,-0.183,20.446,-47.714,-143.591,-21.673,-14.907,-1.993,26.38,0.34964,-0.32703,-0.27856,-0.83252,331,0.719,0.194,0.663,-2.075,-0.488,-0.488,16.046,-46.45,154.221,-19.047,-14.447,-20.42,30.58,0.14868,0.40897,0.03766,0.89951,333,0.932,0.121,0.29,0.793,-0.427,0.122,22.225,-71.494,177.731,-28.487,-12.167,-6.053,30.93,0.09689,-0.57614,-0.14493,-0.79849,329
84,0.87,0.049,0.526,-0.122,-1.282,-0.061,5.18,-58.683,156.22,-22.947,-8.653,-16.493,26.95,-0.15976,-0.4859,0.06381,-0.85684,340,0.737,0.239,0.632,-2.258,-0.244,-0.305,20.413,-47.714,-143.608,-21.673,-14.907,-1.993,26.38,0.34964,-0.32703,-0.27856,-0.83252,342,0.722,0.191,0.657,-3.174,-0.183,-0.61,16.002,-46.45,154.215,-19.047,-14.447,-20.42,30.58,0.14868,0.40897,0.03766,0.89951,338,0.934,0.121,0.29,0.61,-0.427,0.122,22.242,-71.499,177.731,-28.487,-12.167,-6.053,30.93,0.09689,-0.57614,-0.14493,-0.79849,336
85,0.872,0.049,0.524,-0.366,-1.282,-0.061,5.18,-58.705,156.231,-22.947,-8.653,-16.493,26.95,-0.15976,-0.4859,0.06381,-0.85684,341,0.735,0.235,0.63,-2.014,-0.244,-0.061,20.38,-47.714,-143.635,-21.673,-14.907,-1.993,26.38,0.34964,-0.32703,-0.27856,-0.83252,343,0.718,0.193,0.657,-3.296,0.0,-0.488,15.947,-46.445,154.221,-19.047,-14.447,-20.42,30.58,0.14868,0.40897,0.03766,0.89951,339,0.934,0.121,0.289,0.244,-0.549,0.183,22.258,-71.51,177.726,-28.487,-12.167,-6.053,30.93,0.09689,-0.57614,-0.14493,-0.79849,337
86,0.872,0.049,0.523,-0.427,-1.221,-0.061,5.18,-58.727,156.198,-22.947,-8.653,-16.493,26.95,-0.15762,-0.48718,0.06226,-0.85663,352,0.739,0.231,0.63,-1.221,-0.488,0.183,20.347,-47.719,-143.652,-21.673,-14.907,-1.993,26.38,0.34964,-0.32703,-0.27856,-0.83252,350,0.717,0.191,0.658,-2.441,-0.549,0.0,15.903,-46.45,154.226,-19.047,-14.447,-20.42,30.58,0.14868,0.40897,0.03766,0.89951,346,0.935,0.12,0.286,0.244,-0.61,0.244,22.264,-71.521,177.72,-28.487,-12.167,-6.053,30.93,0.09689,-0.57614,-0.14493,-0.79849,344
87,0.873,0.048,0.523,-0.244,-1.16,-0.061,5.18,-58.749,156.16,-22.947,-8.653,-16.493,26.95,-0.15762,-0.48718,0.06226,-0.85663,353,0.741,0.229,0.628,-0.916,-0.671,0.366,20.325,-47.725,-143.657,-21.673,-14.907,-1.993,26.38,0.34964,-0.32703,-0.27856,-0.83252,351,0.721,0.186,0.657,-2.075,-0.793,0.244,15.87,-46.467,154.221,-19.047,-14.447,-20.42,30.58,0.14868,0.40897,0.03766,0.89951,347,0.935,0.119,0.284,0.0,-0.854,0.244,22.275,-71.532,177.72,-28.487,-12.167,-6.053,30.93,0.09689,-0.57614,-0.14493,-0.79849,345
88,0.873,0.047,0.523,0.0,-1.16,0.0,5.186,-58.771,156.116,-22.947,-8.653,-16.493,26.95,-0.15762,-0.48718,0.06226,-0.85663,358,0.744,0.229,0.626,-0.427,-0.793,0.549,20.308,-47.741,-143.652,-21.673,-14.907,-1.993,26.38,0.34964,-0.32703,-0.27856,-0.83252,354,0.725,0.184,0.655,-1.16,-1.038,0.488,15.842,-46.489,154.21,-19.047,-14.447,-20.42,30.58,0.14868,0.40897,0.03766,0.89951,356,0.937,0.117,0.284,-0.061,-0.916,0.183,22.286,-71.548,177.715,-28.487,-12.167,-6.053,30.93,0.09689,-0.57614,-0.14493,-0.79849,348
89,0.874,0.048,0.523,0.061,-1.038,0.0,5.191,-58.793,156.066,-22.947,-8.653,-16.493,26.95,-0.15762,-0.48718,0.06226,-0.85663,359,0.748,0.23,0.625,-0.244,-0.793,0.488,20.297,-47.758,-143.646,-21.673,-14.907,-1.993,26.38,0.34964,-0.32703,-0.27856,-0.83252,355,0.727,0.185,0.654,-1.465,-1.404,0.732,15.809,-46.516,154.21,-19.047,-14.447,-20.42,30.58,0.14868,0.40897,0.03766,0.89951,357,0.938,0.117,0.282,0.0,-0.977,0.061,22.302,-71.57,177.687,-28.487,-12.167,-6.053,30.93,0.09689,-0.57614,-0.14493,-0.79849,349
90,0.875,0.049,0.521,0.244,-1.038,0.0,5.197,-58.81,155.995,-22.947,-8.653,-16.493,26.95,-0.15762,-0.48718,0.06226,-0.85663,364,0.747,0.233,0.626,-0.488,-0.671,0.366,20.286,-47.774,-143.641,-21.673,-14.907,-1.993,26.38,0.34964,-0.32703,-0.27856,-0.83252,360,0.729,0.184,0.651,-1.099,-1.099,0.61,15.782,-46.544,154.232,-19.047,-14.447,-20.42,30.58,0.14868,0.40897,0.03766,0.89951,368,0.938,0.119,0.282,0.061,-0.793,0.0,22.324,-71.587,177.649,-28.487,-12.167,-6.053,30.93,0.09689,-0.57614,-0.14493,-0.79849,362
91,0.875,0.048,0.521,0.305,-0.916,0.0,5.208,-58.832,155.951,-22.947,-8.653,-16.493,26.95,-0.15762,-0.48718,0.06226,-0.85663,365,0.744,0.233,0.625,-0.793,-0.549,0.244,20.275,-47.785,-143.641,-21.673,-14.907,-1.993,26.38,0.34964,-0.32703,-0.27856,-0.83252,361,0.728,0.185,0.65,-0.671,-0.793,0.488,15.765,-46.56,154.265,-19.047,-14.447,-20.42,30.58,0.14868,0.40897,0.03766,0.89951,369,0.939,0.12,0.282,0.244,-0.549,0.0,22.346,-71.598,177.621,-28.487,-12.167,-6.053,30.93,0.09689,-0.57614,-0.14493,-0.79849,363
92,0.875,0.048,0.522,0.305,-0.61,0.0,5.219,-58.843,155.934,-22.947,-8.653,-16.493,26.95,-0.15762,-0.48718,0.06226,-0.85663,376,0.745,0.233,0.627,-0.549,-0.671,0.305,20.264,-47.802,-143.641,-21.673,-14.907,-1.993,26.38,0.34964,-0.32703,-0.27856,-0.83252,372,0.727,0.188,0.651,-0.916,-0.732,0.244,15.749,-46.577,154.286,-18.9,-14.287,-19.76,30.58,0.14868,0.40897,0.03766,0.89951,370,0.939,0.12,0.28,0.427,-0.366,0.0,22.368,-71.609,177.578,-28.487,-12.167,-6.053,30.93,0.09689,-0.57614,-0.14493,-0.79849,366
93,0.874,0.048,0.522,0.061,-0.549,0.0,5.224,-58.854,155.945,-22.947,-8.653,-16.493,26.95,-0.15762,-0.48718,0.06226,-0.85663,377,0.744,0.229,0.628,-0.183,-0.549,0.305,20.253,-47.818,-143.641,-21.673,-14.907,-1.993,26.38,0.34964,-0.32703,-0.27856,-0.83252,373,0.727,0.187,0.653,-0.366,-0.732,0.366,15.743,-46.593,154.281,-18.9,-14.287,-19.76,30.58,0.14868,0.40897,0.03766,0.89951,371,0.939,0.119,0.282,0.427,-0.366,0.0,22.39,-71.614,177.539,-28.487,-12.167,-6.053,30.93,0.09689,-0.57614,-0.14493,-0.79849,367
94,0.873,0.049,0.522,-0.061,-0.488,0.0,5.224,-58.865,155.962,-22.947,-8.653,-16.493,26.95,-0.15762,-0.48718,0.06226,-0.85663,384,0.743,0.231,0.627,-0.244,-0.549,0.244,20.248,-47.829,-143.652,-21.58,-14.733,-1.72,26.38,0.34964,-0.32703,-0.27856,-0.83252,382,0.726,0.183,0.654,-0.122,-0.61,0.366,15.738,-46.609,154.292,-18.9,-14.287,-19.76,30.58,0.14868,0.40897,0.03766,0.89951,380,0.938,0.119,0.282,0.427,-0.244,0.0,22.412,-71.625,177.512,-28.487,-12.167,-6.053,30.93,0.09689,-0.57614,-0.14493,-0.79849,374
95,0.873,0.05,0.523,-0.244,-0.61,0.0,5.224,-58.881,155.962,-22.947,-8.653,-16.493,26.95,-0.15762,-0.48718,0.06226,-0.85663,385,0.747,0.232,0.626,-0.122,-0.488,0.244,20.242,-47.845,-143.652,-21.58,-14.733,-1.72,26.38,0.34964,-0.32703,-0.27856,-0.83252,383,0.726,0.187,0.653,-0.732,-0.671,0.427,15.721,-46.631,154.292,-18.9,-14.287,-19.76,30.58,0.14868,0.40897,0.03766,0.89951,381,0.938,0.119,0.282,0.183,-0.427,0.0,22.429,-71.631,177.457,-28.487,-12.167,-6.053,30.93,0.09689,-0.57614,-0.14493,-0.79849,375
96,0.873,0.05,0.523,-0.183,-0.549,0.0,5.224,-58.892,155.951,-22.947,-8.653,-16.493,26.95,-0.15762,-0.48718,0.06226,-0.85663,390,0.747,0.234,0.627,0.0,-0.244,0.061,20.242,-47.851,-143.663,-21.58,-14.733,-1.72,26.38,0.34964,-0.32703,-0.27856,-0.83252,388,0.73,0.185,0.651,-0.244,-0.549,0.244,15.716,-46.642,154.314,-18.9,-14.287,-19.76,30.58,0.14951,0.41019,0.03525,0.8989,386,0.938,0.12,0.285,0.0,-0.427,0.0,22.445,-71.642,177.385,-28.447,-12.527,-6.253,30.93,0.09689,-0.57614,-0.14493,-0.79849,378
97,0.875,0.048,0.521,-0.061,-0.366,0.0,5.224,-58.898,155.945,-22.947,-8.653,-16.493,26.95,-0.15762,-0.48718,0.06226,-0.85663,391,0.744,0.229,0.625,0.122,-0.061,0.305,20.242,-47.856,-143.679,-21.58,-14.733,-1.72,26.38,0.34964,-0.32703,-0.27856,-0.83252,389,0.728,0.188,0.652,-0.061,-0.244,0.0,15.721,-46.653,154.336,-18.9,-14.287,-19.76,30.58,0.14951,0.41019,0.03525,0.8989,387,0.939,0.122,0.285,-0.061,-0.244,0.0,22.456,-71.653,177.336,-28.447,-12.527,-6.253,30.93,0.09689,-0.57614,-0.14493,-0.79849,379
98,0.874,0.046,0.522,0.061,-0.122,0.0,5.229,-58.903,155.967,-23.18,-8.407,-16.36,26.95,-0.15762,-0.48718,0.06226,-0.85663,398,0.748,0.229,0.625,0.122,-0.122,0.366,20.242,-47.862,-143.685,-21.58,-14.733,-1.72,26.38,0.34814,-0.32935,-0.27707,-0.83273,392,0.727,0.181,0.649,0.061,-0.305,0.366,15.716,-46.664,154.347,-18.9,-14.287,-19.76,30.58,0.14951,0.41019,0.03525,0.8989,394,0.937,0.119,0.284,0.122,-0.244,0.0,22.467,-71.658,177.308,-28.447,-12.527,-6.253,30.93,0.09689,-0.57614,-0.14493,-0.79849,396
99,0.874,0.048,0.524,0.122,0.122,0.0,5.229,-58.903,156.017,-23.18,-8.407,-16.36,26.95,-0.15762,-0.48718,0.06226,-0.85663,399,0.746,0.234,0.628,0.0,0.183,0.122,20.237,-47.867,-143.69,-21.58,-14.733,-1.72,26.38,0.34814,-0.32935,-0.27707,-0.83273,393,0.729,0.183,0.651,-0.366,-0.061,0.122,15.71,-46.67,154.341,-18.9,-14.287,-19.76,30.58,0.14951,0.41019,0.03525,0.8989,395,0.939,0.117,0.279,0.305,-0.061,0.0,22.478,-71.664,177.281,-28.447,-12.527,-6.253,30.93,0.09689,-0.57614,-0.14493,-0.79849,397
100,0.875,0.05,0.526,0.0,0.183,0.0,5.229,-58.903,156.066,-23.18,-8.407,-16.36,26.95,-0.15833,-0.48871,0.0629,-0.85559,406,0.744,0.23,0.629,0.0,0.366,0.0,20.237,-47.867,-143.701,-21.58,-14.733,-1.72,26.38,0.34814,-0.32935,-0.27707,-0.83273,400,0.727,0.185,0.653,0.0,0.427,-0.061,15.71,-46.664,154.319,-18.9,-14.287,-19.76,30.58,0.14951,0.41019,0.03525,0.8989,404,0.939,0.118,0.283,0.122,0.183,0.0,22.489,-71.664,177.264,-28.447,-12.527,-6.253,30.93,0.09528,-0.57773,-0.14438,-0.79764,402
101,0.874,0.051,0.524,0.0,0.0,0.0,5.235,-58.903,156.077,-23.18,-8.407,-16.36,26.95,-0.15833,-0.48871,0.0629,-0.85559,407,0.744,0.229,0.63,-0.366,0.549,0.0,20.226,-47.862,-143.707,-21.58,-14.733,-1.72,26.38,0.34814,-0.32935,-0.27707,-0.83273,401,0.726,0.183,0.654,0.061,0.61,-0.244,15.71,-46.653,154.314,-18.9,-14.287,-19.76,30.58,0.14951,0.41019,0.03525,0.8989,405,0.939,0.12,0.286,0.061,0.183,0.0,22.489,-71.664,177.231,-28.447,-12.527,-6.253,30.93,0.09528,-0.57773,-0.14438,-0.79764,403
102,0.874,0.05,0.523,0.0,0.0,0.0,5.235,-58.903,156.088,-23.18,-8.407,-16.36,26.95,-0.15833,-0.48871,0.0629,-0.85559,414,0.745,0.228,0.63,-0.244,0.366,-0.122,20.22,-47.851,-143.718,-21.58,-14.733,-1.72,26.38,0.34814,-0.32935,-0.27707,-0.83273,410,0.726,0.182,0.657,-0.427,0.427,-0.305,15.71,-46.648,154.303,-18.9,-14.287,-19.76,30.58,0.14951,0.41019,0.03525,0.8989,412,0.939,0.12,0.286,0.183,0.366,0.0,22.484,-71.658,177.209,-28.447,-12.527,-6.253,30.93,0.09528,-0.57773,-0.14438,-0.79764,408
103,0.873,0.049,0.522,-0.061,0.0,0.0,5.235,-58.903,156.072,-23.18,-8.407,-16.36,26.95,-0.15833,-0.48871,0.0629,-0.85559,415,0.745,0.228,0.628,0.122,0.366,-0.305,20.22,-47.845,-143.74,-21.58,-14.733,-1.72,26.38,0.34814,-0.32935,-0.27707,-0.83273,411,0.727,0.18,0.655,0.0,0.366,-0.427,15.716,-46.642,154.265,-18.9,-14.287,-19.76,30.58,0.14951,0.41019,0.03525,0.8989,413,0.938,0.12,0.284,0.183,0.366,0.0,22.484,-71.653,177.182,-28.447,-12.527,-6.253,30.93,0.09528,-0.57773,-0.14438,-0.79764,409
104,0.872,0.05,0.522,-0.183,0.0,0.0,5.235,-58.903,156.044,-23.18,-8.407,-16.36,26.95,-0.15833,-0.48871,0.0629,-0.85559,424,0.743,0.231,0.628,0.305,0.305,-0.244,20.226,-47.84,-143.745,-21.58,-14.733,-1.72,26.38,0.34814,-0.32935,-0.27707,-0.83273,420,0.728,0.183,0.656,0.122,0.305,-0.61,15.727,-46.637,154.232,-18.9,-14.287,-19.76,30.58,0.14951,0.41019,0.03525,0.8989,422,0.938,0.12,0.285,0.0,0.366,0.0,22.484,-71.647,177.16,-28.447,-12.527,-6.253,30.93,0.09528,-0.57773,-0.14438,-0.79764,416
105,0.872,0.048,0.522,0.0,0.0,0.0,5.235,-58.903,156.039,-23.18,-8.407,-16.36,26.95,-0.15833,-0.48871,0.0629,-0.85559,425,0.74,0.232,0.629,0.549,0.427,0.0,20.231,-47.834,-143.751,-21.58,-14.733,-1.72,26.38,0.34814,-0.32935,-0.27707,-0.83273,421,0.724,0.186,0.654,0.305,0.305,-0.549,15.743,-46.631,154.21,-18.9,-14.287,-19.76,30.58,0.14951,0.41019,0.03525,0.8989,423,0.938,0.119,0.285,-0.305,0.305,0.0,22.473,-71.647,177.133,-28.447,-12.527,-6.253,30.93,0.09528,-0.57773,-0.14438,-0.79764,417
106,0.872,0.046,0.521,0.122,0.0,0.0,5.24,-58.903,156.072,-23.18,-8.407,-16.36,26.95,-0.15833,-0.48871,0.0629,-0.85559,432,0.737,0.233,0.628,0.61,0.427,0.122,20.237,-47.829,-143.751,-21.58,-14.733,-1.72,26.38,0.34814,-0.32935,-0.27707,-0.83273,430,0.721,0.187,0.654,0.549,0.366,-0.183,15.754,-46.626,154.215,-18.9,-14.287,-19.76,30.58,0.14951,0.41019,0.03525,0.8989,426,0.936,0.118,0.283,-0.122,0.305,0.0,22.467,-71.642,177.116,-28.447,-12.527,-6.253,30.93,0.09528,-0.57773,-0.14438,-0.79764,418
107,0.871,0.049,0.521,0.0,0.122,0.0,5.24,-58.903,156.077,-23.18,-8.407,-16.36,26.95,-0.15833,-0.48871,0.0629,-0.85559,433,0.736,0.234,0.629,0.732,0.366,0.244,20.242,-47.829,-143.751,-21.58,-14.733,-1.72,26.38,0.34814,-0.32935,-0.27707,-0.83273,431,0.719,0.19,0.655,0.488,0.427,0.0,15.76,-46.62,154.226,-18.9,-14.287,-19.76,30.58,0.14951,0.41019,0.03525,0.8989,427,0.936,0.118,0.285,0.244,0.305,0.0,22.467,-71.636,177.122,-28.447,-12.527,-6.253,30.93,0.09528,-0.57773,-0.14438,-0.79764,419
108,0.87,0.051,0.523,-0.122,0.244,0.0,5.24,-58.903,156.055,-23.18,-8.407,-16.36,26.95,-0.15833,-0.48871,0.0629,-0.85559,440,0.739,0.234,0.631,0.793,0.183,0.244,20.253,-47.823,-143.745,-21.58,-14.733,-1.72,26.38,0.34814,-0.32935,-0.27707,-0.83273,434,0.718,0.188,0.656,0.732,0.244,0.061,15.776,-46.62,154.259,-18.9,-14.287,-19.76,30.58,0.14951,0.41019,0.03525,0.8989,438,0.935,0.119,0.282,0.183,0.305,0.0,22.467,-71.636,177.127,-28.447,-12.527,-6.253,30.93,0.09528,-0.57773,-0.14438,-0.79764,428
109,0.871,0.051,0.525,-0.183,0.183,0.0,5.235,-58.898,156.039,-23.18,-8.407,-16.36,26.95,-0.15833,-0.48871,0.0629,-0.85559,441,0.741,0.235,0.633,0.854,0.061,0.183,20.264,-47.823,-143.745,-21.58,-14.733,-1.72,26.38,0.34814,-0.32935,-0.27707,-0.83273,435,0.723,0.188,0.658,0.671,0.061,-0.061,15.793,-46.62,154.292,-18.9,-14.287,-19.76,30.58,0.14951,0.41019,0.03525,0.8989,439,0.935,0.122,0.285,0.0,0.244,0.0,22.462,-71.631,177.138,-28.447,-12.527,-6.253,30.93,0.09528,-0.57773,-0.14438,-0.79764,429
110,0.872,0.05,0.524,0.0,0.122,0.0,5.24,-58.892,156.05,-23.18,-8.407,-16.36,26.95,-0.15833,-0.48871,0.0629,-0.85559,444,0.742,0.233,0.631,0.977,0.061,0.305,20.275,-47.823,-143.74,-21.58,-14.733,-1.72,26.38,0.34814,-0.32935,-0.27707,-0.83273,442,0.723,0.19,0.658,0.793,0.061,0.0,15.809,-46.615,154.319,-19.033,-14.173,-19.553,30.58,0.14951,0.41019,0.03525,0.8989,446,0.936,0.123,0.287,-0.183,0.244,0.0,22.462,-71.625,177.171,-28.447,-12.527,-6.253,30.93,0.09528,-0.57773,-0.14438,-0.79764,436
111,0.872,0.049,0.525,0.122,0.183,0.0,5.24,-58.892,156.05,-23.18,-8.407,-16.36,26.95,-0.15833,-0.48871,0.0629,-0.85559,445,0.74,0.232,0.633,0.61,-0.061,0.122,20.286,-47.823,-143.74,-21.58,-14.733,-1.72,26.38,0.34814,-0.32935,-0.27707,-0.83273,443,0.723,0.185,0.658,0.916,-0.061,0.061,15.826,-46.62,154.341,-19.033,-14.173,-19.553,30.58,0.14951,0.41019,0.03525,0.8989,447,0.937,0.121,0.288,-0.122,0.305,0.0,22.456,-71.625,177.198,-28.447,-12.527,-6.253,30.93,0.09528,-0.57773,-0.14438,-0.79764,437
112,0.871,0.05,0.524,0.122,0.183,0.0,5.246,-58.887,156.022,-23.18,-8.407,-16.36,26.95,-0.15833,-0.48871,0.0629,-0.85559,452,0.74,0.237,0.631,0.061,0.0,-0.183,20.292,-47.823,-143.751,-21.433,-14.827,-1.333,26.38,0.34814,-0.32935,-0.27707,-0.83273,456,0.723,0.186,0.66,0.122,0.0,-0.305,15.837,-46.62,154.352,-19.033,-14.173,-19.553,30.58,0.14951,0.41019,0.03525,0.8989,450,0.938,0.121,0.287,0.0,0.305,0.0,22.451,-71.62,177.193,-28.447,-12.527,-6.253,30.93,0.09528,-0.57773,-0.14438,-0.79764,448
113,0.87,0.051,0.524,0.0,0.183,0.0,5.246,-58.887,155.989,-23.18,-8.407,-16.36,26.95,-0.15833,-0.48871,0.0629,-0.85559,453,0.739,0.235,0.63,0.671,0.244,0.122,20.303,-47.823,-143.751,-21.433,-14.827,-1.333,26.38,0.34814,-0.32935,-0.27707,-0.83273,457,0.721,0.195,0.653,0.0,0.244,-0.244,15.842,-46.615,154.369,-19.033,-14.173,-19.553,30.58,0.14951,0.41019,0.03525,0.8989,451,0.936,0.123,0.287,0.488,0.366,0.0,22.456,-71.614,177.198,-28.447,-12.527,-6.253,30.93,0.09528,-0.57773,-0.14438,-0.79764,449
114,0.871,0.051,0.523,-0.183,0.122,0.0,5.246,-58.881,155.956,-22.72,-8.24,-16.8,26.95,-0.15833,-0.48871,0.0629,-0.85559,462,0.737,0.231,0.631,0.732,0.183,0.122,20.314,-47.818,-143.745,-21.433,-14.827,-1.333,26.38,0.34787,-0.32898,-0.27731,-0.83292,460,0.72,0.187,0.657,1.16,0.305,0.122,15.859,-46.609,154.402,-19.033,-14.173,-19.553,30.58,0.14853,0.41019,0.0365,0.89902,464,0.935,0.122,0.288,0.244,0.366,0.0,22.462,-71.609,177.209,-28.447,-12.527,-6.253,30.93,0.09528,-0.57773,-0.14438,-0.79764,454
115,0.871,0.05,0.523,-0.488,0.122,0.0,5.24,-58.881,155.945,-22.72,-8.24,-16.8,26.95,-0.15833,-0.48871,0.0629,-0.85559,463,0.737,0.232,0.632,0.671,0.0,0.122,20.325,-47.812,-143.751,-21.433,-14.827,-1.333,26.38,0.34787,-0.32898,-0.27731,-0.83292,461,0.719,0.186,0.659,0.732,0.427,0.122,15.87,-46.599,154.413,-19.033,-14.173,-19.553,30.58,0.14853,0.41019,0.0365,0.89902,465,0.935,0.12,0.287,0.061,0.366,0.0,22.462,-71.598,177.215,-28.447,-12.527,-6.253,30.93,0.09528,-0.57773,-0.14438,-0.79764,455
116,0.87,0.05,0.524,-0.427,0.061,0.0,5.235,-58.876,155.945,-22.72,-8.24,-16.8,26.95,-0.15927,-0.48849,0.06335,-0.8555,472,0.737,0.234,0.632,0.671,0.0,0.183,20.33,-47.812,-143.751,-21.433,-14.827,-1.333,26.38,0.34787,-0.32898,-0.27731,-0.83292,466,0.719,0.188,0.659,0.61,0.122,0.061,15.881,-46.599,154.418,-19.033,-14.173,-19.553,30.58,0.14853,0.41019,0.0365,0.89902,470,0.936,0.12,0.288,-0.122,0.122,0.0,22.462,-71.598,177.22,-28.173,-12.367,-5.913,30.93,0.09528,-0.57773,-0.14438,-0.79764,458
117,0.872,0.049,0.522,-0.366,0.0,0.0,5.229,-58.876,155.907,-22.72,-8.24,-16.8,26.95,-0.15927,-0.48849,0.06335,-0.8555,473,0.739,0.234,0.633,0.732,-0.122,0.183,20.341,-47.818,-143.745,-21.433,-14.827,-1.333,26.38,0.34787,-0.32898,-0.27731,-0.83292,467,0.72,0.189,0.658,0.61,-0.122,0.122,15.892,-46.599,154.451,-19.033,-14.173,-19.553,30.58,0.14853,0.41019,0.0365,0.89902,471,0.935,0.119,0.288,-0.427,0.061,0.0,22.456,-71.598,177.22,-28.173,-12.367,-5.913,30.93,0.09528,-0.57773,-0.14438,-0.79764,459
118,0.872,0.047,0.523,-0.183,-0.061,0.0,5.229,-58.881,155.874,-22.72,-8.24,-16.8,26.95,-0.15927,-0.48849,0.06335,-0.8555,478,0.741,0.235,0.633,0.793,0.0,0.366,20.352,-47.818,-143.729,-21.433,-14.827,-1.333,26.38,0.34787,-0.32898,-0.27731,-0.83292,476,0.722,0.191,0.658,0.61,-0.244,0.122,15.908,-46.604,154.462,-19.033,-14.173,-19.553,30.58,0.14853,0.41019,0.0365,0.89902,474,0.935,0.12,0.288,-0.427,0.061,0.0,22.451,-71.598,177.22,-28.173,-12.367,-5.913,30.93,0.09528,-0.57773,-0.14438,-0.79764,468
119,0.872,0.047,0.524,0.0,-0.061,0.0,5.229,-58.881,155.841,-22.72,-8.24,-16.8,26.95,-0.15927,-0.48849,0.06335,-0.8555,479,0.742,0.234,0.632,1.038,-0.122,0.427,20.363,-47.818,-143.723,-21.433,-14.827,-1.333,26.38,0.34787,-0.32898,-0.27731,-0.83292,477,0.723,0.19,0.659,0.854,-0.122,0.305,15.919,-46.609,154.468,-19.033,-14.173,-19.553,30.58,0.14853,0.41019,0.0365,0.89902,475,0.936,0.119,0.287,-0.305,0.0,0.0,22.445,-71.592,177.22,-28.173,-12.367,-5.913,30.93,0.09528,-0.57773,-0.14438,-0.79764,469
120,0.87,0.048,0.525,0.061,-0.122,0.0,5.235,-58.881,155.825,-22.72,-8.24,-16.8,26.95,-0.15927,-0.48849,0.06335,-0.8555,486,0.742,0.234,0.631,1.099,-0.122,0.549,20.374,-47.823,-143.712,-21.433,-14.827,-1.333,26.38,0.34787,-0.32898,-0.27731,-0.83292,480,0.725,0.189,0.659,1.038,-0.244,0.366,15.936,-46.609,154.473,-19.033,-14.173,-19.553,30.58,0.14853,0.41019,0.0365,0.89902,482,0.938,0.119,0.288,-0.061,-0.183,0.0,22.451,-71.598,177.215,-28.173,-12.367,-5.913,30.93,0.09454,-0.57739,-0.14392,-0.79803,484
121,0.87,0.05,0.525,0.0,-0.183,0.0,5.235,-58.887,155.808,-22.72,-8.24,-16.8,26.95,-0.15927,-0.48849,0.06335,-0.8555,487,0.741,0.233,0.631,1.16,-0.122,0.671,20.385,-47.829,-143.696,-21.433,-14.827,-1.333,26.38,0.34787,-0.32898,-0.27731,-0.83292,481,0.724,0.188,0.656,1.221,-0.122,0.549,15.952,-46.615,154.462,-19.033,-14.173,-19.553,30.58,0.14853,0.41019,0.0365,0.89902,483,0.938,0.117,0.29,0.0,-0.244,0.427,22.44,-71.603,177.231,-28.173,-12.367,-5.913,30.93,0.09454,-0.57739,-0.14392,-0.79803,485
122,0.869,0.051,0.526,0.0,-0.183,0.0,5.235,-58.887,155.786,-22.72,-8.24,-16.8,26.95,-0.15927,-0.48849,0.06335,-0.8555,494,0.739,0.233,0.629,1.404,-0.122,0.671,20.396,-47.834,-143.679,-21.433,-14.827,-1.333,26.38,0.34787,-0.32898,-0.27731,-0.83292,490,0.722,0.188,0.656,1.343,0.0,0.61,15.963,-46.62,154.457,-19.033,-14.173,-19.553,30.58,0.14853,0.41019,0.0365,0.89902,492,0.937,0.118,0.289,0.061,-0.366,0.427,22.423,-71.614,177.248,-28.173,-12.367,-5.913,30.93,0.09454,-0.57739,-0.14392,-0.79803,488
123,0.871,0.05,0.525,-0.122,-0.122,0.0,5.235,-58.892,155.803,-22.72,-8.24,-16.8,26.95,-0.15927,-0.48849,0.06335,-0.8555,495,0.741,0.234,0.629,1.465,-0.183,0.61,20.413,-47.84,-143.668,-21.433,-14.827,-1.333,26.38,0.34787,-0.32898,-0.27731,-0.83292,491,0.723,0.188,0.655,1.587,-0.061,0.549,15.985,-46.62,154.462,-19.033,-14.173,-19.553,30.58,0.14853,0.41019,0.0365,0.89902,493,0.936,0.119,0.287,0.122,-0.427,0.366,22.418,-71.625,177.253,-28.173,-12.367,-5.913,30.93,0.09454,-0.57739,-0.14392,-0.79803,489
124,0.871,0.048,0.524,-0.244,-0.122,0.0,5.235,-58.892,155.83,-22.72,-8.24,-16.8,26.95,-0.15927,-0.48849,0.06335,-0.8555,504,0.742,0.234,0.629,1.465,-0.244,0.488,20.435,-47.845,-143.657,-21.433,-14.827,-1.333,26.38,0.34787,-0.32898,-0.27731,-0.83292,500,0.723,0.189,0.655,1.404,-0.122,0.244,16.013,-46.626,154.484,-19.033,-14.173,-19.553,30.58,0.14853,0.41019,0.0365,0.89902,498,0.936,0.121,0.287,0.0,-0.366,0.305,22.412,-71.636,177.264,-28.173,-12.367,-5.913,30.93,0.09454,-0.57739,-0.14392,-0.79803,496
125,0.872,0.049,0.524,-0.183,-0.061,0.0,5.235,-58.892,155.852,-22.72,-8.24,-16.8,26.95,-0.15927,-0.48849,0.06335,-0.8555,505,0.744,0.232,0.629,1.221,-0.183,0.366,20.451,-47.851,-143.646,-21.433,-14.827,-1.333,26.38,0.34787,-0.32898,-0.27731,-0.83292,501,0.724,0.188,0.654,1.526,-0.061,0.366,16.035,-46.631,154.501,-19.033,-14.173,-19.553,30.58,0.14853,0.41019,0.0365,0.89902,499,0.936,0.12,0.287,-0.122,-0.183,0.244,22.401,-71.642,177.27,-28.173,-12.367,-5.913,30.93,0.09454,-0.57739,-0.14392,-0.79803,497
126,0.872,0.05,0.523,-0.061,-0.122,0.0,5.235,-58.892,155.836,-22.72,-8.24,-16.8,26.95,-0.15927,-0.48849,0.06335,-0.8555,510,0.741,0.232,0.628,0.854,-0.061,0.183,20.462,-47.856,-143.641,-21.433,-14.827,-1.333,26.38,0.34787,-0.32898,-0.27731,-0.83292,506,0.724,0.185,0.655,1.343,0.0,0.305,16.057,-46.631,154.545,-19.033,-14.173,-19.553,30.58,0.14853,0.41019,0.0365,0.89902,512,0.937,0.118,0.286,-0.427,-0.061,0.244,22.385,-71.642,177.281,-28.173,-12.367,-5.913,30.93,0.09454,-0.57739,-0.14392,-0.79803,502
127,0.872,0.05,0.522,-0.061,-0.183,0.0,5.235,-58.898,155.764,-22.72,-8.24,-16.8,26.95,-0.15927,-0.48849,0.06335,-0.8555,511,0.741,0.232,0.628,0.793,-0.122,0.061,20.479,-47.856,-143.646,-21.433,-14.827,-1.333,26.38,0.34787,-0.32898,-0.27731,-0.83292,507,0.721,0.187,0.655,0.854,0.0,0.061,16.068,-46.631,154.572,-19.033,-14.173,-19.553,30.58,0.14853,0.41019,0.0365,0.89902,513,0.937,0.118,0.288,-0.427,-0.122,0.122,22.374,-71.647,177.286,-28.173,-12.367,-5.913,30.93,0.09454,-0.57739,-0.14392,-0.79803,503
128,0.872,0.049,0.523,-0.183,-0.183,0.0,5.235,-58.898,155.693,-22.993,-8.327,-17.207,26.95,-0.15927,-0.48849,0.06335,-0.8555,518,0.743,0.234,0.63,0.977,-0.305,0.0,20.495,-47.862,-143.646,-21.433,-14.827,-1.333,26.38,0.34787,-0.32898,-0.27731,-0.83292,516,0.724,0.188,0.656,0.916,-0.061,0.0,16.084,-46.631,154.589,-18.873,-14.487,-19.58,30.58,0.14853,0.41019,0.0365,0.89902,514,0.937,0.119,0.287,-0.183,-0.183,0.0,22.374,-71.647,177.281,-28.173,-12.367,-5.913,30.93,0.09454,-0.57739,-0.14392,-0.79803,508
129,0.874,0.046,0.523,-0.244,-0.183,0.0,5.229,-58.903,155.66,-22.993,-8.327,-17.207,26.95,-0.15927,-0.48849,0.06335,-0.8555,519,0.742,0.236,0.629,1.038,-0.244,0.061,20.517,-47.867,-143.652,-21.433,-14.827,-1.333,26.38,0.34787,-0.32898,-0.27731,-0.83292,517,0.725,0.192,0.657,1.099,-0.061,-0.122,16.111,-46.631,154.583,-18.873,-14.487,-19.58,30.58,0.14853,0.41019,0.0365,0.89902,515,0.938,0.119,0.285,-0.305,-0.244,0.0,22.374,-71.653,177.275,-28.173,-12.367,-5.913,30.93,0.09454,-0.57739,-0.14392,-0.79803,509
130,0.874,0.045,0.522,-0.061,-0.122,0.0,5.229,-58.909,155.632,-22.993,-8.327,-17.207,26.95,-0.15927,-0.48849,0.06335,-0.8555,524,0.745,0.231,0.626,0.732,-0.305,0.244,20.528,-47.873,-143.657,-21.347,-14.72,-1.247,26.38,0.34787,-0.32898,-0.27731,-0.83292,530,0.723,0.189,0.654,1.221,-0.366,0.183,16.133,-46.642,154.583,-18.873,-14.487,-19.58,30.58,0.14853,0.41019,0.0365,0.89902,522,0.938,0.118,0.285,-0.183,-0.244,0.0,22.379,-71.658,177.264,-28.173,-12.367,-5.913,30.93,0.09454,-0.57739,-0.14392,-0.79803,520
131,0.873,0.047,0.524,0.0,0.0,0.0,5.229,-58.909,155.632,-22.993,-8.327,-17.207,26.95,-0.15927,-0.48849,0.06335,-0.8555,525,0.749,0.237,0.628,0.0,-0.305,-0.122,20.533,-47.878,-143.663,-21.347,-14.72,-1.247,26.38,0.34787,-0.32898,-0.27731,-0.83292,531,0.729,0.187,0.654,0.0,-0.427,0.0,16.133,-46.648,154.572,-18.873,-14.487,-19.58,30.58,0.14853,0.41019,0.0365,0.89902,523,0.938,0.114,0.285,-0.061,-0.061,0.0,22.379,-71.658,177.264,-28.173,-12.367,-5.913,30.93,0.09454,-0.57739,-0.14392,-0.79803,521
132,0.876,0.048,0.524,0.061,-0.061,0.0,5.235,-58.909,155.643,-22.993,-8.327,-17.207,26.95,-0.16162,-0.48853,0.06479,-0.85495,532,0.745,0.236,0.628,0.0,0.0,-0.183,20.539,-47.878,-143.679,-21.347,-14.72,-1.247,26.38,0.34903,-0.32858,-0.27927,-0.83194,536,0.729,0.191,0.653,-0.244,0.0,-0.366,16.133,-46.648,154.556,-18.873,-14.487,-19.58,30.58,0.14584,0.41077,0.03943,0.89908,534,0.938,0.118,0.282,-0.244,0.122,0.0,22.374,-71.658,177.264,-28.173,-12.367,-5.913,30.93,0.09454,-0.57739,-0.14392,-0.79803,526
133,0.875,0.048,0.521,0.122,-0.122,0.0,5.235,-58.909,155.671,-22.993,-8.327,-17.207,26.95,-0.16162,-0.48853,0.06479,-0.85495,533,0.742,0.232,0.628,0.366,0.0,0.0,20.539,-47.878,-143.701,-21.347,-14.72,-1.247,26.38,0.34903,-0.32858,-0.27927,-0.83194,537,0.723,0.189,0.654,0.427,0.244,-0.183,16.144,-46.642,154.583,-18.873,-14.487,-19.58,30.58,0.14584,0.41077,0.03943,0.89908,535,0.939,0.118,0.288,-0.061,0.183,0.061,22.363,-71.653,177.27,-28.173,-12.367,-5.913,30.93,0.09454,-0.57739,-0.14392,-0.79803,527
134,0.874,0.047,0.522,0.244,-0.061,0.0,5.24,-58.914,155.665,-22.993,-8.327,-17.207,26.95,-0.16162,-0.48853,0.06479,-0.85495,542,0.742,0.232,0.63,0.488,-0.061,0.244,20.544,-47.878,-143.707,-21.347,-14.72,-1.247,26.38,0.34903,-0.32858,-0.27927,-0.83194,544,0.724,0.188,0.656,0.549,0.061,0.122,16.155,-46.648,154.616,-18.873,-14.487,-19.58,30.58,0.14584,0.41077,0.03943,0.89908,540,0.94,0.116,0.286,0.0,0.122,0.0,22.363,-71.653,177.275,-28.833,-12.533,-5.893,30.93,0.09454,-0.57739,-0.14392,-0.79803,528
135,0.871,0.047,0.522,0.122,-0.061,0.0,5.246,-58.914,155.627,-22.993,-8.327,-17.207,26.95,-0.16162,-0.48853,0.06479,-0.85495,543,0.743,0.233,0.629,0.61,-0.122,0.183,20.55,-47.884,-143.712,-21.347,-14.72,-1.247,26.38,0.34903,-0.32858,-0.27927,-0.83194,545,0.724,0.189,0.655,0.977,0.0,0.0,16.166,-46.648,154.638,-18.873,-14.487,-19.58,30.58,0.14584,0.41077,0.03943,0.89908,541,0.938,0.115,0.283,0.183,0.0,-0.122,22.374,-71.653,177.264,-28.833,-12.533,-5.893,30.93,0.09454,-0.57739,-0.14392,-0.79803,529
136,0.871,0.046,0.522,0.061,-0.122,0.0,5.246,-58.914,155.605,-22.993,-8.327,-17.207,26.95,-0.16162,-0.48853,0.06479,-0.85495,550,0.742,0.233,0.628,0.854,-0.061,0.305,20.561,-47.889,-143.718,-21.347,-14.72,-1.247,26.38,0.34903,-0.32858,-0.27927,-0.83194,548,0.725,0.192,0.653,1.282,0.0,0.305,16.183,-46.648,154.649,-18.873,-14.487,-19.58,30.58,0.14584,0.41077,0.03943,0.89908,546,0.937,0.117,0.285,0.061,-0.122,-0.244,22.39,-71.658,177.248,-28.833,-12.533,-5.893,30.93,0.09454,-0.57739,-0.14392,-0.79803,538
137,0.871,0.046,0.522,0.244,-0.183,0.0,5.251,-58.92,155.588,-22.993,-8.327,-17.207,26.95,-0.16162,-0.48853,0.06479,-0.85495,551,0.742,0.235,0.628,1.099,0.0,0.549,20.566,-47.889,-143.712,-21.347,-14.72,-1.247,26.38,0.34903,-0.32858,-0.27927,-0.83194,549,0.723,0.193,0.652,1.343,0.183,0.488,16.199,-46.648,154.66,-18.873,-14.487,-19.58,30.58,0.14584,0.41077,0.03943,0.89908,547,0.936,0.115,0.285,0.366,0.0,-0.244,22.401,-71.658,177.237,-28.833,-12.533,-5.893,30.93,0.09454,-0.57739,-0.14392,-0.79803,539
138,0.872,0.048,0.523,0.427,-0.183,0.0,5.257,-58.925,155.544,-22.993,-8.327,-17.207,26.95,-0.16162,-0.48853,0.06479,-0.85495,558,0.742,0.238,0.626,0.854,0.244,0.61,20.572,-47.895,-143.707,-21.347,-14.72,-1.247,26.38,0.34903,-0.32858,-0.27927,-0.83194,556,0.722,0.195,0.651,0.671,0.122,0.366,16.216,-46.648,154.688,-18.873,-14.487,-19.58,30.58,0.14584,0.41077,0.03943,0.89908,554,0.937,0.117,0.287,0.366,-0.183,-0.305,22.423,-71.658,177.215,-28.833,-12.533,-5.893,30.93,0.09451,-0.57782,-0.14359,-0.79779,552
139,0.871,0.051,0.523,0.122,-0.122,0.0,5.262,-58.925,155.506,-22.993,-8.327,-17.207,26.95,-0.16162,-0.48853,0.06479,-0.85495,559,0.74,0.242,0.625,0.671,0.122,0.488,20.572,-47.895,-143.707,-21.347,-14.72,-1.247,26.38,0.34903,-0.32858,-0.27927,-0.83194,557,0.721,0.197,0.654,0.244,0.0,0.061,16.221,-46.653,154.715,-18.873,-14.487,-19.58,30.58,0.14584,0.41077,0.03943,0.89908,555,0.936,0.122,0.288,0.122,-0.122,-0.122,22.445,-71.658,177.198,-28.833,-12.533,-5.893,30.93,0.09451,-0.57782,-0.14359,-0.79779,553
140,0.871,0.052,0.524,-0.183,0.0,0.0,5.257,-58.925,155.462,-22.993,-8.327,-17.207,26.95,-0.16162,-0.48853,0.06479,-0.85495,566,0.742,0.242,0.627,0.183,0.0,0.122,20.577,-47.895,-143.718,-21.347,-14.72,-1.247,26.38,0.34903,-0.32858,-0.27927,-0.83194,562,0.725,0.195,0.653,-0.122,-0.122,-0.183,16.221,-46.653,154.742,-18.873,-14.487,-19.58,30.58,0.14584,0.41077,0.03943,0.89908,564,0.935,0.124,0.285,-0.244,0.0,0.061,22.451,-71.664,177.188,-28.833,-12.533,-5.893,30.93,0.09451,-0.57782,-0.14359,-0.79779,560
141,0.872,0.051,0.524,-0.427,0.061,0.0,5.251,-58.925,155.424,-22.993,-8.327,-17.207,26.95,-0.16162,-0.48853,0.06479,-0.85495,567,0.743,0.237,0.627,0.0,0.0,-0.061,20.577,-47.895,-143.734,-21.347,-14.72,-1.247,26.38,0.34903,-0.32858,-0.27927,-0.83194,563,0.725,0.191,0.654,0.244,-0.122,-0.183,16.232,-46.653,154.764,-18.873,-14.487,-19.58,30.58,0.14584,0.41077,0.03943,0.89908,565,0.936,0.124,0.285,-0.61,0.0,0.305,22.44,-71.664,177.193,-28.833,-12.533,-5.893,30.93,0.09451,-0.57782,-0.14359,-0.79779,561
142,0.873,0.049,0.525,-0.427,0.183,0.0,5.24,-58.925,155.385,-22.993,-8.327,-17.207,26.95,-0.16162,-0.48853,0.06479,-0.85495,576,0.743,0.235,0.627,0.427,-0.061,0.0,20.588,-47.895,-143.745,-21.347,-14.72,-1.247,26.38,0.34903,-0.32858,-0.27927,-0.83194,572,0.723,0.19,0.655,0.916,-0.305,0.061,16.243,-46.659,154.737,-18.873,-14.487,-19.58,30.58,0.14584,0.41077,0.03943,0.89908,574,0.938,0.121,0.286,-0.549,0.122,0.427,22.412,-71.664,177.215,-28.833,-12.533,-5.893,30.93,0.09451,-0.57782,-0.14359,-0.79779,568
143,0.872,0.05,0.522,0.0,0.061,0.0,5.246,-58.92,155.347,-22.993,-8.327,-17.207,26.95,-0.16162,-0.48853,0.06479,-0.85495,577,0.742,0.232,0.628,0.488,-0.244,0.0,20.599,-47.9,-143.756,-21.347,-14.72,-1.247,26.38,0.34903,-0.32858,-0.27927,-0.83194,573,0.724,0.185,0.656,0.244,-0.305,-0.366,16.26,-46.664,154.72,-18.873,-14.487,-19.58,30.58,0.14584,0.41077,0.03943,0.89908,575,0.938,0.117,0.287,-0.366,0.244,0.305,22.385,-71.664,177.242,-28.833,-12.533,-5.893,30.93,0.09451,-0.57782,-0.14359,-0.79779,569
144,0.871,0.049,0.522,0.0,0.0,0.0,5.246,-58.92,155.308,-23.013,-8.56,-16.88,26.95,-0.16162,-0.48853,0.06479,-0.85495,582,0.742,0.233,0.629,-0.122,-0.122,-0.366,20.605,-47.9,-143.767,-21.347,-14.72,-1.247,26.38,0.34903,-0.32858,-0.27927,-0.83194,584,0.722,0.194,0.654,-0.671,-0.061,-0.671,16.271,-46.664,154.693,-18.873,-14.487,-19.58,30.58,0.14584,0.41077,0.03943,0.89908,580,0.937,0.119,0.287,-0.061,0.427,0.244,22.357,-71.664,177.264,-28.833,-12.533,-5.893,30.93,0.09451,-0.57782,-0.14359,-0.79779,570
145,0.872,0.049,0.522,0.0,0.0,0.0,5.246,-58.92,155.27,-23.013,-8.56,-16.88,26.95,-0.16162,-0.48853,0.06479,-0.85495,583,0.74,0.239,0.628,-0.061,0.0,-0.244,20.61,-47.9,-143.778,-21.347,-14.72,-1.247,26.38,0.34903,-0.32858,-0.27927,-0.83194,585,0.722,0.196,0.655,0.244,-0.244,-0.183,16.276,-46.664,154.671,-18.873,-14.487,-19.58,30.58,0.14584,0.41077,0.03943,0.89908,581,0.937,0.118,0.285,0.061,0.427,0.061,22.341,-71.658,177.286,-28.833,-12.533,-5.893,30.93,0.09451,-0.57782,-0.14359,-0.79779,571
146,0.872,0.048,0.521,-0.061,0.0,0.0,5.246,-58.92,155.231,-23.013,-8.56,-16.88,26.95,-0.16446,-0.4884,0.06638,-0.85434,592,0.74,0.234,0.628,0.244,-0.061,0.061,20.616,-47.9,-143.778,-21.66,-14.607,-1.407,26.38,0.34903,-0.32858,-0.27927,-0.83194,590,0.722,0.189,0.655,0.122,-0.305,0.0,16.287,-46.67,154.655,-18.633,-14.433,-19.96,30.58,0.14584,0.41077,0.03943,0.89908,586,0.935,0.117,0.286,0.0,0.244,0.0,22.335,-71.653,177.297,-28.833,-12.533,-5.893,30.93,0.09451,-0.57782,-0.14359,-0.79779,578
147,0.872,0.046,0.523,0.0,-0.061,0.0,5.251,-58.92,155.198,-23.013,-8.56,-16.88,26.95,-0.16446,-0.4884,0.06638,-0.85434,593,0.741,0.232,0.628,0.183,-0.183,0.183,20.616,-47.9,-143.778,-21.66,-14.607,-1.407,26.38,0.34903,-0.32858,-0.27927,-0.83194,591,0.723,0.192,0.654,0.0,-0.366,0.122,16.287,-46.675,154.649,-18.633,-14.433,-19.96,30.58,0.14584,0.41077,0.03943,0.89908,587,0.936,0.116,0.285,-0.061,0.183,0.0,22.33,-71.647,177.303,-28.833,-12.533,-5.893,30.93,0.09451,-0.57782,-0.14359,-0.79779,579
148,0.872,0.047,0.523,0.061,-0.061,0.0,5.251,-58.92,155.16,-23.013,-8.56,-16.88,26.95,-0.16446,-0.4884,0.06638,-0.85434,594,0.741,0.235,0.628,0.549,-0.305,0.366,20.621,-47.911,-143.773,-21.66,-14.607,-1.407,26.38,0.34903,-0.32858,-0.27927,-0.83194,598,0.723,0.192,0.652,0.671,-0.305,0.366,16.293,-46.686,154.633,-18.633,-14.433,-19.96,30.58,0.14584,0.41077,0.03943,0.89908,600,0.937,0.116,0.286,-0.061,0.0,-0.061,22.33,-71.647,177.303,-28.833,-12.533,-5.893,30.93,0.09451,-0.57782,-0.14359,-0.79779,588
149,0.872,0.047,0.523,0.244,0.0,0.0,5.251,-58.925,155.127,-23.013,-8.56,-16.88,26.95,-0.16446,-0.4884,0.06638,-0.85434,595,0.741,0.234,0.626,0.977,-0.244,0.427,20.632,-47.917,-143.767,-21.66,-14.607,-1.407,26.38,0.34903,-0.32858,-0.27927,-0.83194,599,0.725,0.19,0.653,0.793,-0.305,0.427,16.298,-46.692,154.649,-18.633,-14.433,-19.96,30.58,0.14584,0.41077,0.03943,0.89908,601,0.936,0.118,0.287,-0.122,0.122,-0.061,22.33,-71.647,177.297,-28.833,-12.533,-5.893,30.93,0.09451,-0.57782,-0.14359,-0.79779,589
150,0.872,0.048,0.523,0.366,0.0,0.0,5.257,-58.925,155.089,-23.013,-8.56,-16.88,26.95,-0.16446,-0.4884,0.06638,-0.85434,606,0.743,0.235,0.627,1.038,-0.305,0.427,20.643,-47.928,-143.745,-21.66,-14.607,-1.407,26.38,0.34879,-0.3288,-0.27988,-0.83176,602,0.725,0.192,0.653,0.61,-0.244,0.427,16.309,-46.703,154.671,-18.633,-14.433,-19.96,30.58,0.14459,0.41125,0.04089,0.89899,604,0.936,0.117,0.286,0.122,0.183,-0.061,22.33,-71.642,177.297,-28.833,-12.533,-5.893,30.93,0.09451,-0.57782,-0.14359,-0.79779,596
151,0.871,0.049,0.525,0.244,0.0,0.0,5.268,-58.925,155.056,-23.013,-8.56,-16.88,26.95,-0.16446,-0.4884,0.06638,-0.85434,607,0.743,0.237,0.627,0.793,-0.183,0.427,20.649,-47.933,-143.734,-21.66,-14.607,-1.407,26.38,0.34879,-0.3288,-0.27988,-0.83176,603,0.725,0.194,0.655,0.244,-0.122,0.366,16.315,-46.708,154.682,-18.633,-14.433,-19.96,30.58,0.14459,0.41125,0.04089,0.89899,605,0.937,0.117,0.287,0.366,0.305,0.0,22.335,-71.636,177.297,-28.833,-12.533,-5.893,30.93,0.09451,-0.57782,-0.14359,-0.79779,597
152,0.871,0.05,0.524,0.0,0.0,0.0,5.268,-58.925,155.017,-23.013,-8.56,-16.88,26.95,-0.16446,-0.4884,0.06638,-0.85434,614,0.744,0.238,0.629,0.488,-0.122,0.305,20.654,-47.933,-143.734,-21.66,-14.607,-1.407,26.38,0.34879,-0.3288,-0.27988,-0.83176,610,0.725,0.193,0.654,0.0,-0.122,0.183,16.309,-46.708,154.682,-18.633,-14.433,-19.96,30.58,0.14459,0.41125,0.04089,0.89899,612,0.937,0.118,0.288,0.305,0.366,-0.061,22.335,-71.636,177.303,-29.14,-11.52,-6.18,30.93,0.09451,-0.57782,-0.14359,-0.79779,608
153,0.871,0.05,0.524,0.0,-0.061,0.0,5.268,-58.925,154.984,-23.013,-8.56,-16.88,26.95,-0.16446,-0.4884,0.06638,-0.85434,615,0.743,0.237,0.628,0.244,0.0,0.183,20.654,-47.933,-143.751,-21.66,-14.607,-1.407,26.38,0.34879,-0.3288,-0.27988,-0.83176,611,0.724,0.191,0.655,0.0,-0.183,0.0,16.309,-46.714,154.688,-18.633,-14.433,-19.96,30.58,0.14459,0.41125,0.04089,0.89899,613,0.937,0.12,0.289,0.0,0.305,0.0,22.335,-71.625,177.308,-29.14,-11.52,-6.18,30.93,0.09451,-0.57782,-0.14359,-0.79779,609
154,0.872,0.051,0.523,0.0,-0.122,0.0,5.273,-58.925,154.951,-23.013,-8.56,-16.88,26.95,-0.16446,-0.4884,0.06638,-0.85434,622,0.742,0.236,0.628,0.061,-0.061,0.0,20.654,-47.933,-143.767,-21.66,-14.607,-1.407,26.38,0.34879,-0.3288,-0.27988,-0.83176,620,0.722,0.191,0.654,-0.244,-0.061,-0.183,16.309,-46.719,154.688,-18.633,-14.433,-19.96,30.58,0.14459,0.41125,0.04089,0.89899,618,0.936,0.12,0.29,-0.061,0.183,0.0,22.33,-71.625,177.314,-29.14,-11.52,-6.18,30.93,0.09464,-0.57755,-0.14352,-0.79797,616
155,0.873,0.05,0.522,0.0,-0.061,0.0,5.273,-58.925,154.918,-23.013,-8.56,-16.88,26.95,-0.16446,-0.4884,0.06638,-0.85434,623,0.74,0.236,0.627,-0.061,-0.061,-0.122,20.66,-47.933,-143.789,-21.66,-14.607,-1.407,26.38,0.34879,-0.3288,-0.27988,-0.83176,621,0.723,0.192,0.653,-0.366,-0.061,-0.244,16.309,-46.719,154.655,-18.633,-14.433,-19.96,30.58,0.14459,0.41125,0.04089,0.89899,619,0.936,0.12,0.289,-0.183,0.122,0.0,22.324,-71.62,177.319,-29.14,-11.52,-6.18,30.93,0.09464,-0.57755,-0.14352,-0.79797,617
156,0.872,0.048,0.521,-0.061,-0.061,0.0,5.273,-58.925,154.885,-23.013,-8.56,-16.88,26.95,-0.16446,-0.4884,0.06638,-0.85434,632,0.741,0.236,0.627,-0.244,-0.061,-0.183,20.654,-47.933,-143.811,-21.66,-14.607,-1.407,26.38,0.34879,-0.3288,-0.27988,-0.83176,626,0.724,0.192,0.653,-0.488,-0.061,-0.366,16.309,-46.714,154.627,-18.633,-14.433,-19.96,30.58,0.14459,0.41125,0.04089,0.89899,628,0.935,0.12,0.287,-0.305,0.122,-0.061,22.319,-71.62,177.319,-29.14,-11.52,-6.18,30.93,0.09464,-0.57755,-0.14352,-0.79797,624
157,0.873,0.046,0.523,0.0,0.0,0.0,5.273,-58.925,154.852,-23.013,-8.56,-16.88,26.95,-0.16446,-0.4884,0.06638,-0.85434,633,0.743,0.236,0.627,-0.244,-0.122,-0.244,20.66,-47.933,-143.822,-21.66,-14.607,-1.407,26.38,0.34879,-0.3288,-0.27988,-0.83176,627,0.727,0.194,0.652,-0.488,-0.061,-0.366,16.309,-46.714,154.611,-18.633,-14.433,-19.96,30.58,0.14459,0.41125,0.04089,0.89899,629,0.936,0.119,0.287,-0.244,0.061,-0.122,22.319,-71.614,177.314,-29.14,-11.52,-6.18,30.93,0.09464,-0.57755,-0.14352,-0.79797,625
158,0.873,0.047,0.521,0.061,-0.061,0.0,5.273,-58.925,154.819,-22.973,-8.353,-16.86,26.95,-0.16446,-0.4884,0.06638,-0.85434,638,0.746,0.237,0.626,0.061,-0.061,-0.122,20.66,-47.933,-143.833,-21.66,-14.607,-1.407,26.38,0.34879,-0.3288,-0.27988,-0.83176,636,0.726,0.192,0.652,0.0,-0.061,-0.122,16.309,-46.714,154.594,-18.633,-14.433,-19.96,30.58,0.14459,0.41125,0.04089,0.89899,634,0.937,0.118,0.286,-0.183,0.122,-0.122,22.319,-71.614,177.308,-29.14,-11.52,-6.18,30.93,0.09464,-0.57755,-0.14352,-0.79797,630
159,0.875,0.049,0.522,0.061,-0.061,0.0,5.279,-58.931,154.786,-22.973,-8.353,-16.86,26.95,-0.16446,-0.4884,0.06638,-0.85434,639,0.744,0.235,0.625,0.244,0.0,0.0,20.665,-47.933,-143.839,-21.66,-14.607,-1.407,26.38,0.34879,-0.3288,-0.27988,-0.83176,637,0.726,0.19,0.651,-0.122,-0.122,-0.122,16.309,-46.714,154.6,-18.633,-14.433,-19.96,30.58,0.14459,0.41125,0.04089,0.89899,635,0.937,0.117,0.288,-0.061,0.122,-0.061,22.324,-71.609,177.303,-29.14,-11.52,-6.18,30.93,0.09464,-0.57755,-0.14352,-0.79797,631
160,0.874,0.05,0.523,0.0,-0.122,0.0,5.279,-58.931,154.753,-22.973,-8.353,-16.86,26.95,-0.16446,-0.4884,0.06638,-0.85434,646,0.745,0.235,0.625,0.122,-0.061,0.0,20.671,-47.933,-143.855,-21.66,-14.607,-1.407,26.38,0.34879,-0.3288,-0.27988,-0.83176,642,0.728,0.193,0.655,-0.122,-0.183,-0.244,16.315,-46.719,154.611,-18.633,-14.433,-19.96,30.58,0.14459,0.41125,0.04089,0.89899,644,0.937,0.118,0.285,0.0,0.122,0.0,22.319,-71.609,177.308,-29.14,-11.52,-6.18,30.93,0.09464,-0.57755,-0.14352,-0.79797,640
161,0.875,0.047,0.521,0.122,-0.122,0.0,5.279,-58.936,154.72,-22.973,-8.353,-16.86,26.95,-0.16446,-0.4884,0.06638,-0.85434,647,0.745,0.241,0.629,0.183,-0.122,-0.183,20.676,-47.939,-143.888,-21.66,-14.607,-1.407,26.38,0.34879,-0.3288,-0.27988,-0.83176,643,0.726,0.197,0.653,0.122,-0.061,-0.244,16.32,-46.719,154.605,-18.633,-14.433,-19.96,30.58,0.14459,0.41125,0.04089,0.89899,645,0.938,0.12,0.288,0.0,0.122,0.0,22.319,-71.603,177.308,-29.14,-11.52,-6.18,30.93,0.09464,-0.57755,-0.14352,-0.79797,641
162,0.874,0.047,0.52,0.244,0.0,0.0,5.284,-58.936,154.693,-22.973,-8.353,-16.86,26.95,-0.16803,-0.48825,0.06827,-0.85358,654,0.743,0.235,0.625,0.305,0.061,-0.061,20.682,-47.933,-143.91,-21.66,-14.607,-1.407,26.38,0.34879,-0.3288,-0.27988,-0.83176,656,0.725,0.187,0.651,0.244,-0.183,0.0,16.331,-46.725,154.6,-18.633,-14.433,-19.96,30.58,0.14459,0.41125,0.04089,0.89899,650,0.938,0.12,0.287,0.061,0.183,0.061,22.319,-71.603,177.314,-29.14,-11.52,-6.18,30.93,0.09464,-0.57755,-0.14352,-0.79797,648
163,0.873,0.049,0.523,0.183,0.183,0.0,5.29,-58.936,154.66,-22.973,-8.353,-16.86,26.95,-0.16803,-0.48825,0.06827,-0.85358,655,0.744,0.233,0.624,0.183,-0.122,-0.122,20.693,-47.939,-143.915,-21.66,-14.607,-1.407,26.38,0.34879,-0.3288,-0.27988,-0.83176,657,0.729,0.193,0.65,-0.488,-0.061,-0.427,16.337,-46.725,154.572,-18.633,-14.433,-19.96,30.58,0.14459,0.41125,0.04089,0.89899,651,0.938,0.116,0.287,0.183,0.244,0.0,22.313,-71.598,177.319,-29.14,-11.52,-6.18,30.93,0.09464,-0.57755,-0.14352,-0.79797,649
164,0.875,0.049,0.523,0.122,0.122,0.0,5.29,-58.931,154.633,-22.973,-8.353,-16.86,26.95,-0.16803,-0.48825,0.06827,-0.85358,664,0.746,0.241,0.626,-0.061,0.061,-0.427,20.698,-47.933,-143.926,-21.627,-14.893,-1.107,26.38,0.34879,-0.3288,-0.27988,-0.83176,662,0.726,0.193,0.651,0.427,0.305,-0.427,16.337,-46.725,154.572,-18.633,-14.433,-19.96,30.58,0.14459,0.41125,0.04089,0.89899,658,0.938,0.12,0.283,0.0,0.305,0.0,22.313,-71.598,177.325,-29.14,-11.52,-6.18,30.93,0.09464,-0.57755,-0.14352,-0.79797,652
165,0.874,0.049,0.521,0.122,0.0,0.0,5.295,-58.931,154.605,-22.973,-8.353,-16.86,26.95,-0.16803,-0.48825,0.06827,-0.85358,665,0.742,0.236,0.625,0.305,0.183,-0.305,20.709,-47.928,-143.937,-21.627,-14.893,-1.107,26.38,0.34879,-0.3288,-0.27988,-0.83176,663,0.724,0.192,0.652,0.427,0.366,-0.183,16.353,-46.719,154.578,-18.633,-14.433,-19.96,30.58,0.14459,0.41125,0.04089,0.89899,659,0.938,0.119,0.288,0.061,0.427,0.122,22.302,-71.592,177.336,-29.14,-11.52,-6.18,30.93,0.09464,-0.57755,-0.14352,-0.79797,653
166,0.873,0.048,0.521,0.183,0.061,0.0,5.295,-58.931,154.572,-22.973,-8.353,-16.86,27.0,-0.16803,-0.48825,0.06827,-0.85358,666,0.743,0.234,0.627,0.488,0.122,0.0,20.72,-47.928,-143.943,-21.627,-14.893,-1.107,26.38,0.34879,-0.3288,-0.27988,-0.83176,670,0.725,0.191,0.655,0.671,0.244,0.122,16.364,-46.714,154.583,-18.907,-14.347,-19.327,30.58,0.14459,0.41125,0.04089,0.89899,672,0.937,0.117,0.288,0.305,0.488,0.0,22.297,-71.587,177.352,-29.14,-11.52,-6.18,30.93,0.09464,-0.57755,-0.14352,-0.79797,660
167,0.872,0.047,0.523,0.061,0.122,0.0,5.301,-58.931,154.545,-22.973,-8.353,-16.86,27.0,-0.16803,-0.48825,0.06827,-0.85358,667,0.742,0.235,0.629,0.488,0.122,0.0,20.726,-47.928,-143.948,-21.627,-14.893,-1.107,26.38,0.34879,-0.3288,-0.27988,-0.83176,671,0.725,0.191,0.655,0.183,0.183,-0.122,16.375,-46.708,154.572,-18.907,-14.347,-19.327,30.58,0.14459,0.41125,0.04089,0.89899,673,0.938,0.117,0.285,0.305,0.488,-0.061,22.297,-71.576,177.358,-29.14,-11.52,-6.18,30.93,0.09464,-0.57755,-0.14352,-0.79797,661
168,0.871,0.047,0.522,0.0,0.061,0.0,5.301,-58.931,154.517,-22.973,-8.353,-16.86,27.0,-0.16803,-0.48825,0.06827,-0.85358,678,0.743,0.237,0.626,0.366,0.061,-0.122,20.737,-47.922,-143.948,-21.627,-14.893,-1.107,26.38,0.3476,-0.32901,-0.27997,-0.83212,674,0.725,0.195,0.652,0.488,0.0,-0.061,16.381,-46.708,154.55,-18.907,-14.347,-19.327,30.58,0.14496,0.41153,0.04117,0.8988,676,0.937,0.119,0.287,0.244,0.366,-0.183,22.297,-71.57,177.363,-29.14,-11.52,-6.18,30.93,0.09464,-0.57755,-0.14352,-0.79797,668
169,0.871,0.048,0.523,0.061,0.122,0.0,5.301,-58.931,154.49,-22.973,-8.353,-16.86,27.0,-0.16803,-0.48825,0.06827,-0.85358,679,0.742,0.238,0.626,0.732,0.0,0.0,20.748,-47.922,-143.948,-21.627,-14.893,-1.107,26.38,0.3476,-0.32901,-0.27997,-0.83212,675,0.723,0.195,0.654,0.61,0.0,0.0,16.392,-46.708,154.523,-18.907,-14.347,-19.327,30.58,0.14496,0.41153,0.04117,0.8988,677,0.936,0.119,0.289,0.122,0.366,0.0,22.302,-71.565,177.363,-29.14,-11.52,-6.18,30.93,0.09464,-0.57755,-0.14352,-0.79797,669
170,0.871,0.047,0.523,0.244,0.061,0.0,5.301,-58.931,154.462,-22.973,-8.353,-16.86,27.0,-0.16803,-0.48825,0.06827,-0.85358,684,0.741,0.239,0.627,0.732,0.0,0.0,20.764,-47.928,-143.965,-21.627,-14.893,-1.107,26.38,0.3476,-0.32901,-0.27997,-0.83212,680,0.724,0.195,0.653,0.488,0.0,0.0,16.403,-46.708,154.517,-18.907,-14.347,-19.327,30.58,0.14496,0.41153,0.04117,0.8988,682,0.935,0.118,0.288,0.061,0.366,0.0,22.297,-71.559,177.374,-28.567,-12.647,-5.433,30.93,0.09464,-0.57755,-0.14352,-0.79797,686
171,0.871,0.047,0.523,0.122,0.122,0.0,5.306,-58.925,154.435,-22.973,-8.353,-16.86,27.0,-0.16803,-0.48825,0.06827,-0.85358,685,0.742,0.239,0.626,0.61,0.122,0.061,20.77,-47.922,-143.976,-21.627,-14.893,-1.107,26.38,0.3476,-0.32901,-0.27997,-0.83212,681,0.723,0.194,0.652,0.488,0.061,0.0,16.414,-46.708,154.484,-18.907,-14.347,-19.327,30.58,0.14496,0.41153,0.04117,0.8988,683,0.935,0.118,0.289,0.183,0.366,0.0,22.291,-71.554,177.38,-28.567,-12.647,-5.433,30.93,0.09464,-0.57755,-0.14352,-0.79797,687
172,0.871,0.05,0.524,-0.061,0.183,0.0,5.306,-58.925,154.407,-22.973,-8.353,-16.86,27.0,-0.16803,-0.48825,0.06827,-0.85358,694,0.74,0.238,0.626,0.488,0.183,0.0,20.781,-47.922,-143.992,-21.627,-14.893,-1.107,26.38,0.3476,-0.32901,-0.27997,-0.83212,690,0.722,0.193,0.652,0.122,0.122,-0.183,16.425,-46.708,154.446,-18.907,-14.347,-19.327,30.58,0.14496,0.41153,0.04117,0.8988,688,0.936,0.119,0.29,0.183,0.427,0.0,22.286,-71.543,177.391,-28.567,-12.647,-5.433,30.93,0.09485,-0.57693,-0.14371,-0.79837,692
173,0.872,0.05,0.524,-0.183,0.244,0.0,5.301,-58.92,154.38,-22.973,-8.353,-16.86,27.0,-0.16803,-0.48825,0.06827,-0.85358,695,0.74,0.238,0.626,0.244,0.183,-0.183,20.786,-47.917,-144.02,-21.627,-14.893,-1.107,26.38,0.3476,-0.32901,-0.27997,-0.83212,691,0.724,0.195,0.653,0.244,0.183,-0.305,16.43,-46.708,154.413,-18.907,-14.347,-19.327,30.58,0.14496,0.41153,0.04117,0.8988,689,0.934,0.12,0.289,0.183,0.427,0.0,22.28,-71.537,177.396,-28.567,-12.647,-5.433,30.93,0.09485,-0.57693,-0.14371,-0.79837,693
174,0.872,0.05,0.524,-0.183,0.244,0.0,5.301,-58.914,154.352,-22.973,-8.353,-16.86,27.0,-0.16803,-0.48825,0.06827,-0.85358,702,0.742,0.239,0.629,0.549,0.122,-0.183,20.803,-47.911,-144.053,-21.627,-14.893,-1.107,26.38,0.3476,-0.32901,-0.27997,-0.83212,700,0.725,0.195,0.654,0.854,0.183,-0.061,16.447,-46.703,154.369,-18.907,-14.347,-19.327,30.58,0.14496,0.41153,0.04117,0.8988,698,0.935,0.12,0.29,0.061,0.366,0.0,22.275,-71.532,177.407,-28.567,-12.647,-5.433,30.93,0.09485,-0.57693,-0.14371,-0.79837,696
175,0.872,0.048,0.524,-0.061,0.305,0.0,5.295,-58.909,154.33,-22.973,-8.353,-16.86,27.0,-0.16803,-0.48825,0.06827,-0.85358,703,0.744,0.238,0.627,0.793,0.061,-0.061,20.819,-47.911,-144.08,-21.627,-14.893,-1.107,26.38,0.3476,-0.32901,-0.27997,-0.83212,701,0.726,0.193,0.654,0.61,0.0,-0.061,16.463,-46.697,154.363,-18.907,-14.347,-19.327,30.58,0.14496,0.41153,0.04117,0.8988,699,0.935,0.119,0.289,0.0,0.366,0.0,22.269,-71.526,177.418,-28.567,-12.647,-5.433,30.93,0.09485,-0.57693,-0.14371,-0.79837,697
176,0.872,0.049,0.524,-0.061,0.305,0.305,5.29,-58.903,154.308,-22.973,-8.353,-16.86,27.0,-0.16803,-0.48825,0.06827,-0.85358,710,0.744,0.24,0.628,0.61,0.0,-0.122,20.83,-47.906,-144.108,-21.627,-14.893,-1.107,26.38,0.3476,-0.32901,-0.27997,-0.83212,706,0.724,0.194,0.653,0.122,0.183,-0.61,16.474,-46.697,154.374,-18.907,-14.347,-19.327,30.58,0.14496,0.41153,0.04117,0.8988,708,0.936,0.119,0.291,-0.061,0.366,0.0,22.264,-71.521,177.424,-28.567,-12.647,-5.433,30.93,0.09485,-0.57693,-0.14371,-0.79837,704
177,0.872,0.049,0.523,-0.183,0.366,0.305,5.279,-58.898,154.297,-22.973,-8.353,-16.86,27.0,-0.16803,-0.48825,0.06827,-0.85358,711,0.74,0.241,0.626,0.122,0.244,-0.61,20.847,-47.9,-144.141,-21.627,-14.893,-1.107,26.38,0.3476,-0.32901,-0.27997,-0.83212,707,0.723,0.198,0.652,0.244,0.305,-0.793,16.49,-46.692,154.369,-18.907,-14.347,-19.327,30.58,0.14496,0.41153,0.04117,0.8988,709,0.936,0.121,0.29,0.0,0.488,0.0,22.253,-71.51,177.435,-28.567,-12.647,-5.433,30.93,0.09485,-0.57693,-0.14371,-0.79837,705
178,0.872,0.048,0.523,-0.305,0.427,0.305,5.262,-58.892,154.286,-22.973,-8.353,-16.86,27.0,-0.16803,-0.48825,0.06827,-0.85358,718,0.74,0.238,0.627,0.61,0.244,-0.488,20.863,-47.889,-144.174,-21.627,-14.893,-1.107,26.38,0.3476,-0.32901,-0.27997,-0.83212,714,0.721,0.195,0.653,0.977,0.427,-0.488,16.512,-46.681,154.33,-18.907,-14.347,-19.327,30.58,0.14496,0.41153,0.04117,0.8988,716,0.935,0.121,0.29,0.0,0.549,0.0,22.247,-71.499,177.446,-28.567,-12.647,-5.433,30.93,0.09485,-0.57693,-0.14371,-0.79837,712
179,0.871,0.047,0.523,-0.305,0.366,0.305,5.246,-58.887,154.276,-22.973,-8.353,-16.86,27.0,-0.16803,-0.48825,0.06827,-0.85358,719,0.741,0.238,0.628,0.488,0.061,-0.549,20.88,-47.884,-144.207,-21.627,-14.893,-1.107,26.38,0.3476,-0.32901,-0.27997,-0.83212,715,0.723,0.194,0.655,0.61,0.244,-0.61,16.54,-46.67,154.281,-18.907,-14.347,-19.327,30.58,0.14496,0.41153,0.04117,0.8988,717,0.935,0.12,0.289,-0.122,0.549,0.0,22.236,-71.488,177.457,-28.567,-12.647,-5.433,30.93,0.09485,-0.57693,-0.14371,-0.79837,713
180,0.872,0.046,0.523,-0.122,0.305,0.305,5.229,-58.881,154.265,-23.233,-8.033,-16.767,27.0,-0.16803,-0.48825,0.06827,-0.85358,724,0.739,0.239,0.629,0.244,0.061,-0.549,20.901,-47.878,-144.24,-21.627,-14.893,-1.107,26.38,0.3476,-0.32901,-0.27997,-0.83212,726,0.722,0.195,0.655,0.305,0.122,-0.61,16.562,-46.664,154.237,-18.907,-14.347,-19.327,30.58,0.14496,0.41153,0.04117,0.8988,728,0.936,0.12,0.288,-0.061,0.427,0.0,22.225,-71.483,177.468,-28.567,-12.647,-5.433,30.93,0.09485,-0.57693,-0.14371,-0.79837,720
181,0.872,0.047,0.524,0.061,0.183,0.244,5.219,-58.876,154.248,-23.233,-8.033,-16.767,27.0,-0.16803,-0.48825,0.06827,-0.85358,725,0.74,0.237,0.628,0.244,0.061,-0.488,20.918,-47.873,-144.278,-21.627,-14.893,-1.107,26.38,0.3476,-0.32901,-0.27997,-0.83212,727,0.722,0.194,0.655,0.183,0.061,-0.549,16.578,-46.659,154.237,-18.907,-14.347,-19.327,30.58,0.14496,0.41153,0.04117,0.8988,729,0.936,0.118,0.29,-0.122,0.549,0.0,22.214,-71.472,177.479,-28.567,-12.647,-5.433,30.93,0.09485,-0.57693,-0.14371,-0.79837,721
182,0.872,0.047,0.523,0.061,0.122,0.305,5.213,-58.87,154.237,-23.233,-8.033,-16.767,27.0,-0.17209,-0.48743,0.07077,-0.85306,736,0.742,0.239,0.627,0.488,0.061,-0.427,20.929,-47.867,-144.311,-21.547,-14.953,-1.773,26.38,0.3476,-0.32901,-0.27997,-0.83212,734,0.723,0.195,0.654,0.366,0.061,-0.488,16.595,-46.653,154.232,-18.76,-14.427,-19.427,30.58,0.14496,0.41153,0.04117,0.8988,732,0.935,0.116,0.291,-0.061,0.366,0.0,22.209,-71.466,177.49,-28.567,-12.647,-5.433,30.93,0.09485,-0.57693,-0.14371,-0.79837,722
183,0.872,0.045,0.524,0.061,0.122,0.305,5.202,-58.87,154.226,-23.233,-8.033,-16.767,27.0,-0.17209,-0.48743,0.07077,-0.85306,737,0.743,0.24,0.627,0.671,0.061,-0.305,20.945,-47.862,-144.338,-21.547,-14.953,-1.773,26.38,0.3476,-0.32901,-0.27997,-0.83212,735,0.725,0.196,0.654,0.671,0.122,-0.366,16.611,-46.653,154.232,-18.76,-14.427,-19.427,30.58,0.14496,0.41153,0.04117,0.8988,733,0.935,0.117,0.29,0.183,0.244,0.0,22.203,-71.461,177.495,-28.567,-12.647,-5.433,30.93,0.09485,-0.57693,-0.14371,-0.79837,723
184,0.872,0.045,0.524,-0.061,0.122,0.305,5.191,-58.87,154.215,-23.233,-8.033,-16.767,27.0,-0.17209,-0.48743,0.07077,-0.85306,740,0.742,0.241,0.627,0.549,0.0,-0.244,20.962,-47.856,-144.366,-21.547,-14.953,-1.773,26.38,0.3476,-0.32901,-0.27997,-0.83212,738,0.724,0.197,0.654,0.488,0.061,-0.305,16.633,-46.648,154.215,-18.76,-14.427,-19.427,30.58,0.14496,0.41153,0.04117,0.8988,742,0.936,0.117,0.289,0.366,0.183,0.0,22.209,-71.455,177.501,-28.567,-12.647,-5.433,30.93,0.09485,-0.57693,-0.14371,-0.79837,730
185,0.871,0.045,0.525,-0.183,0.183,0.183,5.18,-58.865,154.199,-23.233,-8.033,-16.767,27.0,-0.17209,-0.48743,0.07077,-0.85306,741,0.74,0.242,0.628,0.427,0.0,-0.183,20.978,-47.856,-144.393,-21.547,-14.953,-1.773,26.38,0.3476,-0.32901,-0.27997,-0.83212,739,0.722,0.198,0.654,0.427,0.061,-0.183,16.644,-46.642,154.182,-18.76,-14.427,-19.427,30.58,0.14496,0.41153,0.04117,0.8988,743,0.936,0.117,0.29,0.244,0.122,0.0,22.209,-71.455,177.501,-28.567,-12.647,-5.433,30.93,0.09485,-0.57693,-0.14371,-0.79837,731
186,0.871,0.046,0.524,-0.122,0.183,0.183,5.169,-58.865,154.182,-23.233,-8.033,-16.767,27.0,-0.17209,-0.48743,0.07077,-0.85306,748,0.742,0.24,0.627,0.305,0.122,-0.183,20.989,-47.851,-144.415,-21.547,-14.953,-1.773,26.38,0.345,-0.32883,-0.28036,-0.83313,744,0.724,0.198,0.652,0.244,0.122,-0.305,16.655,-46.642,154.144,-18.76,-14.427,-19.427,30.58,0.14728,0.41153,0.04202,0.89838,750,0.936,0.117,0.291,0.061,0.183,0.0,22.209,-71.45,177.506,-28.567,-12.647,-5.433,30.93,0.09485,-0.57693,-0.14371,-0.79837,746
187,0.871,0.045,0.524,-0.061,0.305,0.122,5.164,-58.859,154.166,-23.233,-8.033,-16.767,27.0,-0.17209,-0.48743,0.07077,-0.85306,749,0.742,0.239,0.626,0.427,0.061,-0.183,20.995,-47.851,-144.437,-21.547,-14.953,-1.773,26.38,0.345,-0.32883,-0.28036,-0.83313,745,0.724,0.195,0.653,0.488,0.0,-0.122,16.666,-46.637,154.127,-18.76,-14.427,-19.427,30.58,0.14728,0.41153,0.04202,0.89838,751,0.935,0.118,0.29,-0.061,0.122,0.0,22.203,-71.45,177.506,-28.567,-12.647,-5.433,30.93,0.09485,-0.57693,-0.14371,-0.79837,747
188,0.871,0.046,0.524,0.0,0.366,0.183,5.153,-58.854,154.155,-23.233,-8.033,-16.767,27.0,-0.17209,-0.48743,0.07077,-0.85306,758,0.741,0.239,0.627,0.366,0.061,-0.183,21.006,-47.845,-144.459,-21.547,-14.953,-1.773,26.38,0.345,-0.32883,-0.28036,-0.83313,754,0.723,0.195,0.653,0.427,0.061,-0.244,16.683,-46.637,154.111,-18.76,-14.427,-19.427,30.58,0.14728,0.41153,0.04202,0.89838,756,0.936,0.117,0.291,-0.122,0.183,0.0,22.198,-71.45,177.512,-28.573,-12.773,-5.827,30.93,0.09485,-0.57693,-0.14371,-0.79837,752
189,0.871,0.045,0.525,-0.061,0.366,0.122,5.147,-58.848,154.138,-23.233,-8.033,-16.767,27.0,-0.17209,-0.48743,0.07077,-0.85306,759,0.74,0.239,0.628,0.366,0.061,-0.183,21.017,-47.845,-144.481,-21.547,-14.953,-1.773,26.38,0.345,-0.32883,-0.28036,-0.83313,755,0.723,0.196,0.655,0.488,0.122,-0.183,16.694,-46.637,154.094,-18.76,-14.427,-19.427,30.58,0.14728,0.41153,0.04202,0.89838,757,0.936,0.117,0.29,0.0,0.244,0.0,22.187,-71.444,177.517,-28.573,-12.773,-5.827,30.93,0.09485,-0.57693,-0.14371,-0.79837,753
190,0.87,0.045,0.525,-0.061,0.305,0.122,5.142,-58.843,154.122,-23.233,-8.033,-16.767,27.0,-0.17209,-0.48743,0.07077,-0.85306,768,0.74,0.241,0.629,0.305,0.061,-0.122,21.028,-47.84,-144.503,-21.547,-14.953,-1.773,26.38,0.345,-0.32883,-0.28036,-0.83313,762,0.722,0.197,0.655,0.366,0.122,-0.122,16.705,-46.631,154.072,-18.76,-14.427,-19.427,30.58,0.14728,0.41153,0.04202,0.89838,766,0.936,0.117,0.291,0.0,0.183,0.0,22.181,-71.439,177.523,-28.573,-12.773,-5.827,30.93,0.09485,-0.57693,-0.14371,-0.79837,760
191,0.87,0.046,0.524,-0.122,0.244,0.061,5.131,-58.837,154.105,-23.233,-8.033,-16.767,27.0,-0.17209,-0.48743,0.07077,-0.85306,769,0.74,0.241,0.626,0.305,0.061,0.0,21.033,-47.84,-144.525,-21.547,-14.953,-1.773,26.38,0.345,-0.32883,-0.28036,-0.83313,763,0.721,0.198,0.652,0.366,0.122,-0.061,16.716,-46.631,154.061,-18.76,-14.427,-19.427,30.58,0.14728,0.41153,0.04202,0.89838,767,0.936,0.117,0.291,0.122,0.183,0.0,22.181,-71.439,177.523,-28.573,-12.773,-5.827,30.93,0.09485,-0.57693,-0.14371,-0.79837,761
192,0.871,0.047,0.525,-0.122,0.183,0.061,5.125,-58.832,154.083,-23.233,-8.033,-16.767,27.0,-0.17209,-0.48743,0.07077,-0.85306,774,0.742,0.242,0.627,0.427,0.061,-0.061,21.039,-47.834,-144.542,-21.547,-14.953,-1.773,26.38,0.345,-0.32883,-0.28036,-0.83313,772,0.724,0.197,0.653,0.427,0.061,-0.061,16.721,-46.626,154.045,-18.76,-14.427,-19.427,30.58,0.14728,0.41153,0.04202,0.89838,770,0.935,0.116,0.292,0.122,0.183,0.0,22.176,-71.433,177.528,-28.573,-12.773,-5.827,30.93,0.09509,-0.57614,-0.14377,-0.79892,764
193,0.871,0.047,0.526,-0.244,0.244,0.122,5.12,-58.826,154.067,-23.233,-8.033,-16.767,27.0,-0.17209,-0.48743,0.07077,-0.85306,775,0.741,0.243,0.628,0.61,0.183,-0.122,21.044,-47.834,-144.558,-21.547,-14.953,-1.773,26.38,0.345,-0.32883,-0.28036,-0.83313,773,0.723,0.2,0.653,0.549,0.183,-0.244,16.732,-46.626,154.028,-18.76,-14.427,-19.427,30.58,0.14728,0.41153,0.04202,0.89838,771,0.935,0.118,0.291,-0.061,0.122,0.0,22.17,-71.433,177.534,-28.573,-12.773,-5.827,30.93,0.09509,-0.57614,-0.14377,-0.79892,765
194,0.872,0.045,0.524,-0.183,0.427,0.122,5.109,-58.821,154.056,-22.873,-8.433,-16.88,27.0,-0.17209,-0.48743,0.07077,-0.85306,784,0.74,0.238,0.625,0.244,0.061,0.0,21.055,-47.829,-144.58,-21.547,-14.953,-1.773,26.38,0.345,-0.32883,-0.28036,-0.83313,778,0.721,0.196,0.653,0.244,0.061,-0.061,16.749,-46.62,154.012,-18.76,-14.427,-19.427,30.58,0.14728,0.41153,0.04202,0.89838,780,0.936,0.122,0.29,-0.305,0.122,0.0,22.159,-71.433,177.534,-28.573,-12.773,-5.827,30.93,0.09509,-0.57614,-0.14377,-0.79892,776
195,0.871,0.047,0.525,-0.244,0.61,0.122,5.098,-58.81,154.039,-22.873,-8.433,-16.88,27.0,-0.17209,-0.48743,0.07077,-0.85306,785,0.745,0.244,0.627,-0.183,0.0,-0.305,21.061,-47.829,-144.597,-21.547,-14.953,-1.773,26.38,0.345,-0.32883,-0.28036,-0.83313,779,0.726,0.197,0.654,-0.732,-0.122,-0.305,16.749,-46.62,153.995,-18.76,-14.427,-19.427,30.58,0.14728,0.41153,0.04202,0.89838,781,0.935,0.119,0.291,-0.183,0.244,0.0,22.154,-71.428,177.539,-28.573,-12.773,-5.827,30.93,0.09509,-0.57614,-0.14377,-0.79892,777
196,0.873,0.047,0.527,-0.244,0.793,0.122,5.087,-58.799,154.028,-22.873,-8.433,-16.88,27.0,-0.17435,-0.48651,0.07254,-0.85297,790,0.743,0.243,0.628,0.244,0.305,-0.244,21.061,-47.823,-144.619,-21.547,-14.953,-1.773,26.38,0.345,-0.32883,-0.28036,-0.83313,786,0.727,0.201,0.652,-0.366,0.061,-0.549,16.743,-46.62,153.968,-18.76,-14.427,-19.427,30.58,0.14728,0.41153,0.04202,0.89838,788,0.936,0.118,0.289,-0.183,0.183,0.0,22.143,-71.422,177.545,-28.573,-12.773,-5.827,30.93,0.09509,-0.57614,-0.14377,-0.79892,782
197,0.873,0.046,0.526,-0.122,0.61,0.183,5.076,-58.782,154.012,-22.873,-8.433,-16.88,27.0,-0.17435,-0.48651,0.07254,-0.85297,791,0.737,0.241,0.628,0.61,0.366,0.0,21.072,-47.818,-144.641,-21.547,-14.953,-1.773,26.38,0.345,-0.32883,-0.28036,-0.83313,787,0.72,0.199,0.653,0.61,0.244,-0.061,16.754,-46.615,153.946,-18.76,-14.427,-19.427,30.58,0.14728,0.41153,0.04202,0.89838,789,0.938,0.12,0.288,-0.305,0.305,0.0,22.132,-71.417,177.55,-28.573,-12.773,-5.827,30.93,0.09509,-0.57614,-0.14377,-0.79892,783
198,0.871,0.047,0.524,0.0,0.549,0.183,5.065,-58.771,154.001,-22.873,-8.433,-16.88,27.0,-0.17435,-0.48651,0.07254,-0.85297,796,0.738,0.243,0.63,0.488,0.183,0.244,21.077,-47.812,-144.651,-21.547,-14.953,-1.773,26.38,0.345,-0.32883,-0.28036,-0.83313,794,0.72,0.2,0.656,0.305,0.122,0.183,16.76,-46.615,153.935,-18.76,-14.427,-19.427,30.58,0.14728,0.41153,0.04202,0.89838,800,0.937,0.119,0.293,-0.183,0.244,0.0,22.126,-71.417,177.556,-28.573,-12.773,-5.827,30.93,0.09509,-0.57614,-0.14377,-0.79892,792
199,0.869,0.047,0.525,0.061,0.427,0.183,5.059,-58.766,153.99,-22.873,-8.433,-16.88,27.0,-0.17435,-0.48651,0.07254,-0.85297,797,0.739,0.241,0.627,0.61,0.122,-0.061,21.083,-47.807,-144.662,-21.547,-14.953,-1.773,26.38,0.345,-0.32883,-0.28036,-0.83313,795,0.721,0.195,0.654,0.61,0.183,0.0,16.765,-46.609,153.929,-18.76,-14.427,-19.427,30.58,0.14728,0.41153,0.04202,0.89838,801,0.936,0.118,0.29,0.0,0.427,0.0,22.115,-71.406,177.567,-28.573,-12.773,-5.827,30.93,0.09509,-0.57614,-0.14377,-0.79892,793
200,0.869,0.046,0.525,-0.061,0.366,0.183,5.054,-58.76,153.979,-22.873,-8.433,-16.88,27.0,-0.17435,-0.48651,0.07254,-0.85297,806,0.739,0.241,0.626,0.671,-0.183,-0.305,21.099,-47.807,-144.679,-21.547,-14.733,-1.033,26.38,0.345,-0.32883,-0.28036,-0.83313,808,0.721,0.196,0.654,0.549,-0.061,-0.305,16.782,-46.609,153.913,-18.993,-14.58,-19.833,30.58,0.14728,0.41153,0.04202,0.89838,804,0.934,0.119,0.289,0.183,0.305,-0.427,22.137,-71.4,177.545,-28.573,-12.773,-5.827,30.93,0.09509,-0.57614,-0.14377,-0.79892,798
201,0.869,0.046,0.524,-0.122,0.366,0.122,5.043,-58.749,153.968,-22.873,-8.433,-16.88,27.0,-0.17435,-0.48651,0.07254,-0.85297,807,0.74,0.242,0.627,0.671,-0.305,-0.244,21.116,-47.807,-144.706,-21.547,-14.733,-1.033,26.38,0.345,-0.32883,-0.28036,-0.83313,809,0.721,0.199,0.653,0.671,-0.366,-0.244,16.798,-46.609,153.891,-18.993,-14.58,-19.833,30.58,0.14728,0.41153,0.04202,0.89838,805,0.934,0.123,0.291,0.183,0.244,-0.427,22.165,-71.395,177.528,-28.573,-12.773,-5.827,30.93,0.09509,-0.57614,-0.14377,-0.79892,799
202,0.87,0.045,0.525,0.0,0.305,0.183,5.037,-58.744,153.957,-22.873,-8.433,-16.88,27.0,-0.17435,-0.48651,0.07254,-0.85297,814,0.738,0.244,0.626,0.427,-0.183,-0.244,21.138,-47.807,-144.728,-21.547,-14.733,-1.033,26.38,0.34302,-0.32883,-0.28049,-0.83392,816,0.721,0.2,0.653,0.427,-0.427,-0.183,16.82,-46.615,153.869,-18.993,-14.58,-19.833,30.58,0.14728,0.41153,0.04202,0.89838,812,0.934,0.12,0.29,-0.061,0.305,-0.305,22.176,-71.384,177.517,-28.573,-12.773,-5.827,30.93,0.09509,-0.57614,-0.14377,-0.79892,802
203,0.869,0.045,0.527,0.183,0.244,0.183,5.032,-58.744,153.946,-22.873,-8.433,-16.88,27.0,-0.17435,-0.48651,0.07254,-0.85297,815,0.738,0.244,0.627,0.122,-0.122,-0.183,21.149,-47.807,-144.756,-21.547,-14.733,-1.033,26.38,0.34302,-0.32883,-0.28049,-0.83392,817,0.72,0.2,0.653,0.061,-0.366,-0.122,16.831,-46.62,153.853,-18.993,-14.58,-19.833,30.58,0.14728,0.41153,0.04202,0.89838,813,0.933,0.119,0.29,-0.122,0.244,-0.305,22.187,-71.378,177.506,-28.573,-12.773,-5.827,30.93,0.09509,-0.57614,-0.14377,-0.79892,803
204,0.87,0.044,0.527,0.183,0.183,0.183,5.032,-58.738,153.935,-22.873,-8.433,-16.88,27.0,-0.17435,-0.48651,0.07254,-0.85297,822,0.739,0.242,0.627,-0.061,-0.061,-0.366,21.154,-47.807,-144.778,-21.547,-14.733,-1.033,26.38,0.34302,-0.32883,-0.28049,-0.83392,824,0.722,0.198,0.654,-0.183,-0.427,-0.305,16.837,-46.626,153.831,-18.993,-14.58,-19.833,30.58,0.14911,0.41174,0.04236,0.89795,818,0.934,0.119,0.291,0.0,0.183,-0.366,22.203,-71.373,177.484,-28.573,-12.773,-5.827,30.93,0.09509,-0.57614,-0.14377,-0.79892,810
205,0.87,0.044,0.528,0.0,0.061,0.122,5.026,-58.738,153.924,-22.873,-8.433,-16.88,27.0,-0.17435,-0.48651,0.07254,-0.85297,823,0.74,0.245,0.629,-0.122,-0.122,-0.427,21.165,-47.807,-144.805,-21.547,-14.733,-1.033,26.38,0.34302,-0.32883,-0.28049,-0.83392,825,0.722,0.2,0.655,-0.427,-0.244,-0.488,16.842,-46.631,153.803,-18.993,-14.58,-19.833,30.58,0.14911,0.41174,0.04236,0.89795,819,0.933,0.119,0.292,0.183,0.244,-0.427,22.225,-71.367,177.468,-28.573,-12.773,-5.827,30.93,0.09509,-0.57614,-0.14377,-0.79892,811
206,0.871,0.045,0.528,-0.122,0.0,0.061,5.021,-58.738,153.907,-22.873,-8.433,-16.88,27.0,-0.17435,-0.48651,0.07254,-0.85297,828,0.74,0.245,0.628,0.0,-0.183,-0.244,21.171,-47.807,-144.833,-21.547,-14.733,-1.033,26.38,0.34302,-0.32883,-0.28049,-0.83392,830,0.723,0.203,0.654,-0.122,-0.305,-0.366,16.848,-46.631,153.781,-18.993,-14.58,-19.833,30.58,0.14911,0.41174,0.04236,0.89795,826,0.934,0.12,0.292,0.244,0.305,-0.427,22.247,-71.356,177.451,-28.573,-12.773,-5.827,30.93,0.09509,-0.57614,-0.14377,-0.79892,820
207,0.871,0.044,0.527,-0.244,0.122,0.061,5.015,-58.733,153.891,-22.873,-8.433,-16.88,27.0,-0.17435,-0.48651,0.07254,-0.85297,829,0.744,0.245,0.627,0.122,-0.366,-0.183,21.176,-47.807,-144.855,-21.547,-14.733,-1.033,26.38,0.34302,-0.32883,-0.28049,-0.83392,831,0.726,0.201,0.654,0.0,-0.488,-0.061,16.853,-46.637,153.759,-18.993,-14.58,-19.833,30.58,0.14911,0.41174,0.04236,0.89795,827,0.936,0.12,0.293,0.183,0.061,-0.366,22.269,-71.351,177.429,-28.573,-12.773,-5.827,30.93,0.09509,-0.57614,-0.14377,-0.79892,821
208,0.87,0.043,0.528,-0.183,0.244,0.061,5.004,-58.727,153.88,-22.873,-8.433,-16.88,27.0,-0.17435,-0.48651,0.07254,-0.85297,838,0.743,0.247,0.627,0.061,-0.244,-0.244,21.187,-47.807,-144.877,-21.547,-14.733,-1.033,26.38,0.34302,-0.32883,-0.28049,-0.83392,836,0.727,0.202,0.651,-0.183,-0.366,-0.244,16.859,-46.648,153.737,-18.993,-14.58,-19.833,30.58,0.14911,0.41174,0.04236,0.89795,834,0.935,0.121,0.293,0.0,0.0,-0.305,22.286,-71.351,177.413,-28.693,-12.533,-5.787,30.93,0.09509,-0.57614,-0.14377,-0.79892,832
209,0.871,0.043,0.528,0.0,0.244,0.061,4.999,-58.727,153.864,-22.873,-8.433,-16.88,27.0,-0.17435,-0.48651,0.07254,-0.85297,839,0.74,0.246,0.625,0.305,-0.122,0.0,21.193,-47.812,-144.899,-21.547,-14.733,-1.033,26.38,0.34302,-0.32883,-0.28049,-0.83392,837,0.722,0.204,0.65,0.183,-0.183,0.0,16.864,-46.648,153.721,-18.993,-14.58,-19.833,30.58,0.14911,0.41174,0.04236,0.89795,835,0.937,0.121,0.292,0.0,0.061,-0.122,22.291,-71.351,177.402,-28.693,-12.533,-5.787,30.93,0.09509,-0.57614,-0.14377,-0.79892,833
210,0.87,0.045,0.526,0.0,0.244,0.0,4.999,-58.722,153.847,-22.48,-7.94,-16.327,27.0,-0.17435,-0.48651,0.07254,-0.85297,846,0.739,0.244,0.63,0.122,-0.244,0.061,21.198,-47.812,-144.915,-21.547,-14.733,-1.033,26.38,0.34302,-0.32883,-0.28049,-0.83392,844,0.722,0.201,0.655,0.183,-0.244,0.061,16.87,-46.653,153.71,-18.993,-14.58,-19.833,30.58,0.14911,0.41174,0.04236,0.89795,842,0.936,0.121,0.292,0.061,0.061,0.0,22.297,-71.345,177.407,-28.693,-12.533,-5.787,30.93,0.0947,-0.57556,-0.14407,-0.79932,840
211,0.869,0.045,0.526,0.0,0.122,0.0,4.999,-58.716,153.831,-22.48,-7.94,-16.327,27.0,-0.17435,-0.48651,0.07254,-0.85297,847,0.738,0.244,0.628,-0.183,-0.122,-0.061,21.204,-47.812,-144.926,-21.547,-14.733,-1.033,26.38,0.34302,-0.32883,-0.28049,-0.83392,845,0.721,0.199,0.654,-0.244,-0.122,0.0,16.875,-46.659,153.699,-18.993,-14.58,-19.833,30.58,0.14911,0.41174,0.04236,0.89795,843,0.935,0.121,0.291,0.122,0.061,0.122,22.291,-71.345,177.413,-28.693,-12.533,-5.787,30.93,0.0947,-0.57556,-0.14407,-0.79932,841
212,0.868,0.045,0.526,-0.122,0.0,0.0,4.993,-58.716,153.814,-22.48,-7.94,-16.327,27.0,-0.17639,-0.48566,0.07394,-0.85291,856,0.739,0.242,0.627,-0.305,-0.305,-0.305,21.204,-47.818,-144.948,-21.547,-14.733,-1.033,26.38,0.34302,-0.32883,-0.28049,-0.83392,850,0.721,0.197,0.655,-0.427,-0.305,-0.305,16.875,-46.659,153.682,-18.993,-14.58,-19.833,30.58,0.14911,0.41174,0.04236,0.89795,852,0.934,0.121,0.292,0.0,0.0,0.183,22.286,-71.345,177.424,-28.693,-12.533,-5.787,30.93,0.0947,-0.57556,-0.14407,-0.79932,848
213,0.868,0.044,0.527,-0.122,-0.061,0.0,4.988,-58.716,153.798,-22.48,-7.94,-16.327,27.0,-0.17639,-0.48566,0.07394,-0.85291,857,0.741,0.243,0.627,-0.244,-0.305,-0.244,21.209,-47.818,-144.976,-21.547,-14.733,-1.033,26.38,0.34302,-0.32883,-0.28049,-0.83392,851,0.723,0.199,0.653,-0.488,-0.488,-0.183,16.875,-46.664,153.66,-18.993,-14.58,-19.833,30.58,0.14911,0.41174,0.04236,0.89795,853,0.934,0.121,0.291,0.0,-0.183,0.183,22.275,-71.345,177.429,-28.693,-12.533,-5.787,30.93,0.0947,-0.57556,-0.14407,-0.79932,849
214,0.869,0.044,0.525,0.061,-0.244,0.0,4.988,-58.722,153.781,-22.48,-7.94,-16.327,27.0,-0.17639,-0.48566,0.07394,-0.85291,860,0.74,0.243,0.626,-0.244,-0.305,0.0,21.209,-47.823,-144.992,-21.547,-14.733,-1.033,26.38,0.34302,-0.32883,-0.28049,-0.83392,858,0.722,0.2,0.653,-0.427,-0.61,0.061,16.87,-46.675,153.644,-18.993,-14.58,-19.833,30.58,0.14911,0.41174,0.04236,0.89795,862,0.934,0.118,0.292,0.0,-0.244,0.183,22.275,-71.351,177.435,-28.693,-12.533,-5.787,30.93,0.0947,-0.57556,-0.14407,-0.79932,854
215,0.871,0.044,0.527,0.305,-0.244,0.0,4.993,-58.727,153.765,-22.48,-7.94,-16.327,27.0,-0.17639,-0.48566,0.07394,-0.85291,861,0.742,0.241,0.626,0.183,-0.366,0.305,21.204,-47.829,-145.009,-21.547,-14.733,-1.033,26.38,0.34302,-0.32883,-0.28049,-0.83392,859,0.724,0.199,0.651,0.061,-0.366,0.366,16.864,-46.681,153.633,-18.993,-14.58,-19.833,30.58,0.14911,0.41174,0.04236,0.89795,863,0.934,0.117,0.292,0.061,-0.244,0.122,22.269,-71.356,177.44,-28.693,-12.533,-5.787,30.93,0.0947,-0.57556,-0.14407,-0.79932,855
216,0.87,0.045,0.527,0.427,-0.366,0.0,4.999,-58.733,153.748,-22.48,-7.94,-16.327,27.0,-0.17639,-0.48566,0.07394,-0.85291,868,0.741,0.242,0.625,0.366,-0.366,0.427,21.209,-47.834,-145.014,-21.547,-14.733,-1.033,26.38,0.34302,-0.32883,-0.28049,-0.83392,872,0.724,0.198,0.652,0.122,-0.488,0.427,16.864,-46.692,153.633,-18.993,-14.58,-19.833,30.58,0.14911,0.41174,0.04236,0.89795,866,0.935,0.119,0.292,0.305,-0.366,0.0,22.275,-71.362,177.44,-28.693,-12.533,-5.787,30.93,0.0947,-0.57556,-0.14407,-0.79932,864
217,0.87,0.046,0.527,0.366,-0.305,0.0,5.01,-58.738,153.732,-22.48,-7.94,-16.327,27.0,-0.17639,-0.48566,0.07394,-0.85291,869,0.743,0.243,0.624,0.366,-0.244,0.427,21.209,-47.845,-145.02,-21.547,-14.733,-1.033,26.38,0.34302,-0.32883,-0.28049,-0.83392,873,0.726,0.199,0.65,0.061,-0.427,0.427,16.864,-46.703,153.633,-18.993,-14.58,-19.833,30.58,0.14911,0.41174,0.04236,0.89795,867,0.935,0.12,0.292,0.366,-0.427,0.0,22.291,-71.373,177.429,-28.693,-12.533,-5.787,30.93,0.0947,-0.57556,-0.14407,-0.79932,865
218,0.871,0.046,0.526,0.183,-0.244,0.0,5.01,-58.744,153.715,-22.48,-7.94,-16.327,27.0,-0.17639,-0.48566,0.07394,-0.85291,878,0.743,0.242,0.623,0.549,-0.305,0.244,21.215,-47.851,-145.025,-21.673,-14.947,-1.773,26.38,0.34302,-0.32883,-0.28049,-0.83392,876,0.726,0.196,0.649,0.427,-0.305,0.244,16.864,-46.714,153.627,-18.993,-14.58,-19.833,30.58,0.14911,0.41174,0.04236,0.89795,880,0.935,0.121,0.292,0.366,-0.427,0.0,22.308,-71.378,177.418,-28.693,-12.533,-5.787,30.93,0.0947,-0.57556,-0.14407,-0.79932,870
219,0.87,0.046,0.527,0.122,0.0,0.0,5.015,-58.744,153.699,-22.48,-7.94,-16.327,27.0,-0.17639,-0.48566,0.07394,-0.85291,879,0.742,0.246,0.624,0.305,-0.427,0.0,21.22,-47.856,-145.036,-21.673,-14.947,-1.773,26.38,0.34302,-0.32883,-0.28049,-0.83392,877,0.725,0.199,0.65,0.061,-0.305,0.061,16.87,-46.719,153.616,-18.993,-14.58,-19.833,30.58,0.14911,0.41174,0.04236,0.89795,881,0.935,0.123,0.289,0.183,-0.244,0.0,22.319,-71.384,177.407,-28.693,-12.533,-5.787,30.93,0.0947,-0.57556,-0.14407,-0.79932,871
220,0.87,0.046,0.527,0.244,0.0,0.0,5.015,-58.744,153.682,-22.48,-7.94,-16.327,27.0,-0.17639,-0.48566,0.07394,-0.85291,888,0.742,0.247,0.625,0.183,-0.305,0.0,21.231,-47.862,-145.052,-21.673,-14.947,-1.773,26.38,0.34302,-0.32883,-0.28049,-0.83392,884,0.725,0.202,0.65,0.0,-0.427,0.0,16.87,-46.725,153.605,-18.74,-14.42,-19.673,30.58,0.14911,0.41174,0.04236,0.89795,886,0.936,0.122,0.288,0.0,-0.244,0.0,22.33,-71.389,177.402,-28.693,-12.533,-5.787,30.93,0.0947,-0.57556,-0.14407,-0.79932,874
221,0.87,0.045,0.526,0.427,0.0,0.0,5.026,-58.744,153.666,-22.48,-7.94,-16.327,27.0,-0.17639,-0.48566,0.07394,-0.85291,889,0.744,0.243,0.626,0.122,-0.061,0.0,21.237,-47.867,-145.069,-21.673,-14.947,-1.773,26.38,0.34302,-0.32883,-0.28049,-0.83392,885,0.727,0.199,0.651,0.122,-0.183,-0.061,16.875,-46.73,153.594,-18.74,-14.42,-19.673,30.58,0.14911,0.41174,0.04236,0.89795,887,0.935,0.122,0.292,0.122,-0.061,0.061,22.335,-71.395,177.396,-28.693,-12.533,-5.787,30.93,0.0947,-0.57556,-0.14407,-0.79932,875
222,0.87,0.044,0.526,0.488,-0.122,0.0,5.032,-58.744,153.649,-22.48,-7.94,-16.327,27.0,-0.17639,-0.48566,0.07394,-0.85291,896,0.744,0.244,0.626,0.122,0.0,0.061,21.237,-47.867,-145.08,-21.673,-14.947,-1.773,26.38,0.34088,-0.3298,-0.2803,-0.83447,890,0.726,0.2,0.652,0.0,-0.061,0.0,16.88,-46.736,153.583,-18.74,-14.42,-19.673,30.58,0.14911,0.41174,0.04236,0.89795,894,0.936,0.121,0.291,0.305,-0.061,0.061,22.341,-71.395,177.402,-28.693,-12.533,-5.787,30.93,0.0947,-0.57556,-0.14407,-0.79932,882
223,0.872,0.045,0.525,0.488,-0.183,0.0,5.043,-58.749,153.638,-22.48,-7.94,-16.327,27.0,-0.17639,-0.48566,0.07394,-0.85291,897,0.743,0.244,0.625,0.305,0.061,0.183,21.242,-47.867,-145.091,-21.673,-14.947,-1.773,26.38,0.34088,-0.3298,-0.2803,-0.83447,891,0.726,0.199,0.65,0.0,-0.061,0.183,16.88,-46.736,153.572,-18.74,-14.42,-19.673,30.58,0.14911,0.41174,0.04236,0.89795,895,0.936,0.119,0.29,0.732,-0.183,0.061,22.352,-71.395,177.402,-28.693,-12.533,-5.787,30.93,0.0947,-0.57556,-0.14407,-0.79932,883
224,0.871,0.047,0.527,0.366,-0.183,0.366,5.043,-58.749,153.633,-22.833,-8.573,-16.373,27.0,-0.17639,-0.48566,0.07394,-0.85291,902,0.741,0.245,0.625,0.732,0.122,0.122,21.248,-47.867,-145.096,-21.673,-14.947,-1.773,26.38,0.34088,-0.3298,-0.2803,-0.83447,898,0.725,0.2,0.65,0.244,0.0,0.0,16.886,-46.736,153.567,-18.74,-14.42,-19.673,30.58,0.15082,0.41275,0.0415,0.89725,900,0.936,0.12,0.292,0.61,-0.488,0.061,22.368,-71.4,177.396,-28.693,-12.533,-5.787,30.93,0.0947,-0.57556,-0.14407,-0.79932,892
225,0.873,0.045,0.524,0.305,-0.122,0.488,5.032,-58.755,153.633,-22.833,-8.573,-16.373,27.0,-0.17639,-0.48566,0.07394,-0.85291,903,0.74,0.243,0.625,1.038,0.122,0.366,21.259,-47.867,-145.102,-21.673,-14.947,-1.773,26.38,0.34088,-0.3298,-0.2803,-0.83447,899,0.722,0.2,0.65,0.793,0.244,0.183,16.891,-46.736,153.561,-18.74,-14.42,-19.673,30.58,0.15082,0.41275,0.0415,0.89725,901,0.936,0.124,0.29,0.305,-0.671,0.183,22.39,-71.411,177.391,-28.693,-12.533,-5.787,30.93,0.0947,-0.57556,-0.14407,-0.79932,893
226,0.873,0.044,0.524,0.732,0.244,0.549,5.026,-58.755,153.644,-22.833,-8.573,-16.373,27.0,-0.17639,-0.48566,0.07394,-0.85291,908,0.745,0.244,0.622,0.305,0.244,0.122,21.264,-47.862,-145.102,-21.673,-14.947,-1.773,26.38,0.34088,-0.3298,-0.2803,-0.83447,910,0.728,0.196,0.649,0.122,0.061,0.122,16.902,-46.736,153.556,-18.74,-14.42,-19.673,30.58,0.15082,0.41275,0.0415,0.89725,906,0.936,0.119,0.288,0.488,-0.671,0.244,22.401,-71.422,177.385,-28.16,-12.313,-5.907,30.93,0.0947,-0.57556,-0.14407,-0.79932,904
227,0.872,0.046,0.526,1.038,0.366,0.671,5.021,-58.749,153.655,-22.833,-8.573,-16.373,27.0,-0.17639,-0.48566,0.07394,-0.85291,909,0.745,0.25,0.626,0.122,0.488,0.0,21.27,-47.856,-145.107,-21.673,-14.947,-1.773,26.38,0.34088,-0.3298,-0.2803,-0.83447,911,0.729,0.205,0.647,0.0,0.305,-0.183,16.902,-46.736,153.55,-18.74,-14.42,-19.673,30.58,0.15082,0.41275,0.0415,0.89725,907,0.937,0.122,0.288,0.427,-0.366,0.244,22.418,-71.439,177.385,-28.16,-12.313,-5.907,30.93,0.0947,-0.57556,-0.14407,-0.79932,905
228,0.871,0.049,0.527,1.221,0.183,0.854,5.021,-58.744,153.682,-22.833,-8.573,-16.373,27.0,-0.17746,-0.48584,0.07449,-0.85251,918,0.742,0.246,0.625,0.488,0.854,0.183,21.27,-47.845,-145.113,-21.673,-14.947,-1.773,26.38,0.34088,-0.3298,-0.2803,-0.83447,914,0.726,0.203,0.65,0.671,0.671,0.0,16.913,-46.725,153.545,-18.74,-14.42,-19.673,30.58,0.15082,0.41275,0.0415,0.89725,916,0.938,0.123,0.288,0.61,-0.244,0.427,22.418,-71.444,177.391,-28.16,-12.313,-5.907,30.93,0.09537,-0.57614,-0.14478,-0.79868,912
229,0.87,0.048,0.528,1.404,0.0,0.977,5.015,-58.744,153.726,-22.833,-8.573,-16.373,27.0,-0.17746,-0.48584,0.07449,-0.85251,919,0.739,0.245,0.627,0.977,0.793,0.549,21.27,-47.834,-145.102,-21.673,-14.947,-1.773,26.38,0.34088,-0.3298,-0.2803,-0.83447,915,0.722,0.203,0.653,0.977,0.793,0.305,16.924,-46.714,153.545,-18.74,-14.42,-19.673,30.58,0.15082,0.41275,0.0415,0.89725,917,0.938,0.123,0.292,0.732,-0.244,0.549,22.418,-71.455,177.413,-28.16,-12.313,-5.907,30.93,0.09537,-0.57614,-0.14478,-0.79868,913
230,0.869,0.048,0.526,1.282,-0.122,1.038,5.01,-58.749,153.776,-22.833,-8.573,-16.373,27.0,-0.17746,-0.48584,0.07449,-0.85251,928,0.736,0.244,0.627,0.916,0.732,0.366,21.275,-47.823,-145.091,-21.673,-14.947,-1.773,26.38,0.34088,-0.3298,-0.2803,-0.83447,926,0.719,0.196,0.654,1.099,0.854,0.244,16.935,-46.703,153.55,-18.74,-14.42,-19.673,30.58,0.15082,0.41275,0.0415,0.89725,922,0.935,0.121,0.292,0.549,-0.305,0.366,22.418,-71.461,177.435,-28.16,-12.313,-5.907,30.93,0.09537,-0.57614,-0.14478,-0.79868,920
231,0.869,0.046,0.526,1.16,-0.122,0.977,4.999,-58.755,153.825,-22.833,-8.573,-16.373,27.0,-0.17746,-0.48584,0.07449,-0.85251,929,0.738,0.243,0.625,0.671,0.427,0.0,21.286,-47.812,-145.091,-21.673,-14.947,-1.773,26.38,0.34088,-0.3298,-0.2803,-0.83447,927,0.721,0.198,0.653,0.549,0.549,0.0,16.946,-46.692,153.55,-18.74,-14.42,-19.673,30.58,0.15082,0.41275,0.0415,0.89725,923,0.934,0.123,0.289,0.488,-0.61,0.183,22.423,-71.472,177.44,-28.16,-12.313,-5.907,30.93,0.09537,-0.57614,-0.14478,-0.79868,921
232,0.869,0.045,0.526,1.038,-0.244,0.793,4.999,-58.76,153.864,-22.833,-8.573,-16.373,27.0,-0.17746,-0.48584,0.07449,-0.85251,936,0.74,0.243,0.626,0.671,0.061,-0.061,21.297,-47.807,-145.102,-21.673,-14.947,-1.773,26.38,0.34088,-0.3298,-0.2803,-0.83447,930,0.722,0.199,0.653,0.61,0.244,0.0,16.957,-46.681,153.545,-18.74,-14.42,-19.673,30.58,0.15082,0.41275,0.0415,0.89725,932,0.935,0.122,0.288,0.549,-0.488,0.061,22.445,-71.483,177.429,-28.16,-12.313,-5.907,30.93,0.09537,-0.57614,-0.14478,-0.79868,924
233,0.87,0.045,0.526,1.038,-0.244,0.671,4.999,-58.766,153.902,-22.833,-8.573,-16.373,27.0,-0.17746,-0.48584,0.07449,-0.85251,937,0.74,0.244,0.626,0.61,0.0,-0.061,21.313,-47.807,-145.113,-21.673,-14.947,-1.773,26.38,0.34088,-0.3298,-0.2803,-0.83447,931,0.723,0.2,0.653,0.488,0.061,-0.061,16.968,-46.681,153.539,-18.74,-14.42,-19.673,30.58,0.15082,0.41275,0.0415,0.89725,933,0.934,0.121,0.288,0.244,-0.183,0.0,22.462,-71.488,177.424,-28.16,-12.313,-5.907,30.93,0.09537,-0.57614,-0.14478,-0.79868,925
234,0.87,0.043,0.525,0.977,-0.305,0.549,4.999,-58.771,153.935,-22.833,-8.573,-16.373,27.0,-0.17746,-0.48584,0.07449,-0.85251,940,0.739,0.244,0.627,0.244,0.0,-0.122,21.319,-47.807,-145.129,-21.673,-14.947,-1.773,26.38,0.34088,-0.3298,-0.2803,-0.83447,944,0.721,0.2,0.652,0.061,0.122,-0.122,16.974,-46.675,153.528,-18.74,-14.42,-19.673,30.58,0.15082,0.41275,0.0415,0.89725,938,0.935,0.119,0.289,0.122,0.122,-0.061,22.473,-71.488,177.424,-28.16,-12.313,-5.907,30.93,0.09537,-0.57614,-0.14478,-0.79868,934
235,0.869,0.043,0.526,0.793,-0.183,0.488,4.999,-58.777,153.968,-22.833,-8.573,-16.373,27.0,-0.17746,-0.48584,0.07449,-0.85251,941,0.739,0.244,0.626,0.061,0.0,-0.244,21.33,-47.807,-145.14,-21.673,-14.947,-1.773,26.38,0.34088,-0.3298,-0.2803,-0.83447,945,0.722,0.198,0.651,0.0,0.122,-0.244,16.979,-46.675,153.517,-18.74,-14.42,-19.673,30.58,0.15082,0.41275,0.0415,0.89725,939,0.935,0.119,0.289,0.183,0.061,-0.122,22.484,-71.483,177.418,-28.16,-12.313,-5.907,30.93,0.09537,-0.57614,-0.14478,-0.79868,935
