Index,L5_Acceleration X(g),L5_Acceleration Y(g),L5_Acceleration Z(g),L5_Angular velocity X(°/s),L5_Angular velocity Y(°/s),L5_Angular velocity Z(°/s),L5_Angle X(°),L5_Angle Y(°),L5_Angle Z(°),L5_Magnetic field X(ʯt),L5_Magnetic field Y(ʯt),L5_Magnetic field Z(ʯt),L5_Temperature(℃),L5_Quaternions 0(),L5_Quaternions 1(),L5_Quaternions 2(),L5_Quaternions 3(),L5___orig_idx,T4_Acceleration X(g),T4_Acceleration Y(g),T4_Acceleration Z(g),T4_Angular velocity X(°/s),T4_Angular velocity Y(°/s),T4_Angular velocity Z(°/s),T4_Angle X(°),T4_Angle Y(°),T4_Angle Z(°),T4_Magnetic field X(ʯt),T4_Magnetic field Y(ʯt),T4_Magnetic field Z(ʯt),T4_Temperature(℃),T4_Quaternions 0(),T4_Quaternions 1(),T4_Quaternions 2(),T4_Quaternions 3(),T4___orig_idx,C7_Acceleration X(g),C7_Acceleration Y(g),C7_Acceleration Z(g),C7_Angular velocity X(°/s),C7_Angular velocity Y(°/s),C7_Angular velocity Z(°/s),C7_Angle X(°),C7_Angle Y(°),C7_Angle Z(°),C7_Magnetic field X(ʯt),C7_Magnetic field Y(ʯt),C7_Magnetic field Z(ʯt),C7_Temperature(℃),C7_Quaternions 0(),C7_Quaternions 1(),C7_Quaternions 2(),C7_Quaternions 3(),C7___orig_idx,T12_Acceleration X(g),T12_Acceleration Y(g),T12_Acceleration Z(g),T12_Angular velocity X(°/s),T12_Angular velocity Y(°/s),T12_Angular velocity Z(°/s),T12_Angle X(°),T12_Angle Y(°),T12_Angle Z(°),T12_Magnetic field X(ʯt),T12_Magnetic field Y(ʯt),T12_Magnetic field Z(ʯt),T12_Temperature(℃),T12_Quaternions 0(),T12_Quaternions 1(),T12_Quaternions 2(),T12_Quaternions 3(),T12___orig_idx
0,0.997,-0.038,0.221,1.831,-0.488,-0.427,-12.316,-78.646,-178.66,-27.52,-10.693,-7.72,29.51,-0.05856,-0.6326,0.07748,-0.76828,2,0.765,-0.007,0.623,3.052,4.944,-0.305,-0.989,-49.697,-121.306,-23.66,-9.473,-1.247,27.14,-0.4418,0.37469,0.19742,0.79077,0,0.56,-0.011,0.804,3.601,1.831,0.183,-0.829,-34.453,154.451,-16.333,-9.267,-30.747,31.59,-0.21371,-0.28741,0.07294,-0.93076,4,0.923,0.029,0.304,2.869,15.808,-2.747,3.735,-71.68,-157.231,-29.707,-11.487,-3.293,32.08,0.1785,-0.57584,-0.13873,-0.78561,10
1,1.016,-0.033,0.214,0.122,-1.099,-0.427,-12.255,-78.657,-178.693,-27.52,-10.693,-7.72,29.51,-0.05856,-0.6326,0.07748,-0.76828,3,0.758,-0.015,0.612,3.357,5.615,-0.366,-0.917,-49.598,-121.349,-23.66,-9.473,-1.247,27.14,-0.4418,0.37469,0.19742,0.79077,1,0.534,-0.015,0.809,4.639,2.93,-1.343,-0.731,-34.404,154.462,-16.333,-9.267,-30.747,31.59,-0.21371,-0.28741,0.07294,-0.93076,5,0.921,0.029,0.259,2.869,18.311,-3.418,3.9,-71.351,-157.341,-29.707,-11.487,-3.293,32.08,0.1785,-0.57584,-0.13873,-0.78561,11
2,1.004,-0.025,0.185,-0.793,-0.366,-0.183,-12.228,-78.668,-178.709,-27.52,-10.693,-7.72,29.51,-0.05856,-0.6326,0.07748,-0.76828,12,0.754,-0.024,0.613,2.747,7.324,-0.305,-0.862,-49.466,-121.399,-23.66,-9.473,-1.247,27.14,-0.4418,0.37469,0.19742,0.79077,6,0.555,-0.023,0.827,10.193,-12.085,-0.977,-0.549,-34.579,154.473,-16.333,-9.267,-30.747,31.59,-0.21371,-0.28741,0.07294,-0.93076,8,0.928,0.018,0.299,3.357,15.93,-4.028,4.092,-71.005,-157.478,-29.347,-11.927,-3.547,32.08,0.1785,-0.57584,-0.13873,-0.78561,16
3,1.016,-0.034,0.2,-0.977,2.319,-0.366,-12.195,-78.657,-178.709,-27.52,-10.693,-7.72,29.51,-0.05856,-0.6326,0.07748,-0.76828,13,0.751,-0.02,0.645,3.845,7.996,-0.793,-0.775,-49.318,-121.454,-23.66,-9.473,-1.247,27.14,-0.4418,0.37469,0.19742,0.79077,7,0.576,-0.021,0.786,11.536,-12.756,-0.366,-0.33,-34.827,154.523,-16.333,-9.267,-30.747,31.59,-0.21371,-0.28741,0.07294,-0.93076,9,0.94,0.014,0.323,6.165,15.442,-4.517,4.345,-70.703,-157.654,-29.347,-11.927,-3.547,32.08,0.1785,-0.57584,-0.13873,-0.78561,17
4,1.026,-0.051,0.2,-0.732,3.601,-0.549,-12.09,-78.602,-178.813,-27.52,-10.693,-7.72,29.51,-0.05856,-0.6326,0.07748,-0.76828,20,0.75,-0.012,0.641,5.005,8.179,-1.648,-0.643,-49.169,-121.536,-23.66,-9.473,-1.247,27.14,-0.4418,0.37469,0.19742,0.79077,18,0.53,-0.005,0.798,7.019,-4.7,-1.648,-0.159,-34.958,154.567,-16.333,-9.267,-30.747,31.59,-0.21371,-0.28741,0.07294,-0.93076,14,0.945,0.021,0.333,6.409,14.709,-4.517,4.647,-70.411,-157.857,-29.347,-11.927,-3.547,32.08,0.1785,-0.57584,-0.13873,-0.78561,22
5,1.016,-0.054,0.194,0.366,4.333,-0.549,-11.948,-78.525,-178.951,-27.52,-10.693,-7.72,29.51,-0.05856,-0.6326,0.07748,-0.76828,21,0.744,-0.012,0.66,6.104,7.751,-1.343,-0.5,-49.026,-121.602,-23.66,-9.473,-1.247,27.14,-0.4418,0.37469,0.19742,0.79077,19,0.613,-0.011,0.807,9.705,-12.207,-6.409,0.077,-35.167,154.517,-16.333,-9.267,-30.747,31.59,-0.21371,-0.28741,0.07294,-0.93076,15,0.943,0.028,0.33,6.409,13.428,-4.639,4.949,-70.131,-158.049,-29.347,-11.927,-3.547,32.08,0.1785,-0.57584,-0.13873,-0.78561,23
6,1.012,-0.041,0.187,0.183,4.944,-0.732,-11.788,-78.437,-179.116,-27.353,-11.093,-7.78,29.51,-0.05856,-0.6326,0.07748,-0.76828,26,0.757,-0.011,0.675,6.226,5.737,-0.793,-0.368,-48.922,-121.641,-23.74,-9.867,-0.973,27.14,-0.4418,0.37469,0.19742,0.79077,24,0.542,0.03,0.858,5.615,-9.216,-5.981,0.286,-35.359,154.446,-16.333,-9.267,-30.747,31.59,-0.21371,-0.28741,0.07294,-0.93076,28,0.938,0.028,0.328,5.371,12.756,-4.395,5.235,-69.884,-158.253,-29.347,-11.927,-3.547,32.08,0.18005,-0.55624,-0.14417,-0.79831,34
7,1.014,-0.037,0.177,0.0,5.127,-0.977,-11.607,-78.344,-179.302,-27.353,-11.093,-7.78,29.51,-0.05856,-0.6326,0.07748,-0.76828,27,0.768,0.0,0.683,8.118,6.287,-0.61,-0.198,-48.801,-121.663,-23.74,-9.867,-0.973,27.14,-0.4418,0.37469,0.19742,0.79077,25,0.558,0.003,0.837,8.728,-13.184,0.61,0.45,-35.59,154.484,-16.333,-9.267,-30.747,31.59,-0.21371,-0.28741,0.07294,-0.93076,29,0.926,0.031,0.323,5.554,11.658,-3.784,5.488,-69.653,-158.439,-29.347,-11.927,-3.547,32.08,0.18005,-0.55624,-0.14417,-0.79831,35
8,1.006,-0.039,0.177,0.488,5.188,-0.977,-11.42,-78.256,-179.495,-27.353,-11.093,-7.78,29.51,-0.05856,-0.6326,0.07748,-0.76828,36,0.753,0.008,0.692,9.766,7.019,-0.61,0.0,-48.669,-121.69,-23.74,-9.867,-0.973,27.14,-0.4418,0.37469,0.19742,0.79077,30,0.603,0.009,0.833,9.583,-10.864,0.061,0.626,-35.804,154.55,-16.333,-9.267,-30.747,31.59,-0.21371,-0.28741,0.07294,-0.93076,32,0.913,0.032,0.346,6.165,10.376,-3.418,5.724,-69.445,-158.588,-29.347,-11.927,-3.547,32.08,0.18005,-0.55624,-0.14417,-0.79831,38
9,1.0,-0.049,0.187,1.526,5.737,-0.793,-11.223,-78.162,-179.687,-27.353,-11.093,-7.78,29.51,-0.05856,-0.6326,0.07748,-0.76828,37,0.738,0.013,0.692,10.681,7.141,-0.549,0.214,-48.527,-121.718,-23.74,-9.867,-0.973,27.14,-0.4418,0.37469,0.19742,0.79077,31,0.56,0.023,0.872,19.775,-19.653,-8.667,1.055,-36.134,154.457,-16.333,-9.267,-30.747,31.59,-0.21371,-0.28741,0.07294,-0.93076,33,0.913,0.034,0.36,7.08,8.667,-3.296,5.966,-69.269,-158.719,-29.347,-11.927,-3.547,32.08,0.18005,-0.55624,-0.14417,-0.79831,39
10,0.992,-0.052,0.194,2.075,5.127,-0.244,-11.052,-78.069,-179.835,-27.353,-11.093,-7.78,29.51,-0.05951,-0.62775,0.07425,-0.77252,42,0.726,0.01,0.703,11.414,5.615,-0.732,0.45,-48.417,-121.756,-23.74,-9.867,-0.973,27.14,-0.44455,0.35809,0.2016,0.79587,40,0.592,0.027,0.836,5.615,-12.695,4.15,1.219,-36.398,154.55,-16.333,-9.267,-30.747,31.59,-0.21371,-0.28741,0.07294,-0.93076,44,0.919,0.037,0.357,7.141,7.141,-3.113,6.213,-69.12,-158.846,-29.347,-11.927,-3.547,32.08,0.18005,-0.55624,-0.14417,-0.79831,52
11,0.986,-0.044,0.197,2.136,4.028,0.305,-10.953,-77.992,-179.901,-27.353,-11.093,-7.78,29.51,-0.05951,-0.62775,0.07425,-0.77252,43,0.737,0.014,0.692,9.766,3.845,-0.488,0.648,-48.334,-121.789,-23.74,-9.867,-0.973,27.14,-0.44455,0.35809,0.2016,0.79587,41,0.555,0.031,0.827,1.648,-14.465,0.488,1.247,-36.656,154.66,-16.333,-9.267,-30.747,31.59,-0.21371,-0.28741,0.07294,-0.93076,45,0.91,0.045,0.355,6.775,6.897,-2.686,6.449,-68.989,-158.967,-29.347,-11.927,-3.547,32.08,0.18005,-0.55624,-0.14417,-0.79831,53
12,0.983,-0.038,0.201,1.892,3.052,0.366,-10.904,-77.932,-179.934,-27.353,-11.093,-7.78,29.51,-0.05951,-0.62775,0.07425,-0.77252,48,0.744,0.021,0.684,8.118,3.54,0.549,0.797,-48.257,-121.8,-23.74,-9.867,-0.973,27.14,-0.44455,0.35809,0.2016,0.79587,46,0.675,0.032,0.797,0.488,-11.292,1.953,1.236,-36.87,154.748,-15.867,-11.127,-30.22,31.59,-0.21371,-0.28741,0.07294,-0.93076,50,0.9,0.052,0.359,6.226,6.836,-2.014,6.647,-68.857,-159.066,-29.347,-11.927,-3.547,32.08,0.18005,-0.55624,-0.14417,-0.79831,58
13,0.984,-0.035,0.206,1.77,2.625,0.244,-10.865,-77.882,-179.984,-27.353,-11.093,-7.78,29.51,-0.05951,-0.62775,0.07425,-0.77252,49,0.744,0.032,0.677,8.972,2.563,2.136,0.923,-48.203,-121.761,-23.74,-9.867,-0.973,27.14,-0.44455,0.35809,0.2016,0.79587,47,0.596,0.062,0.827,10.01,-15.93,-7.69,1.56,-37.161,154.561,-15.867,-11.127,-30.22,31.59,-0.21371,-0.28741,0.07294,-0.93076,51,0.899,0.062,0.364,5.249,6.47,-1.526,6.801,-68.73,-159.126,-29.347,-11.927,-3.547,32.08,0.18005,-0.55624,-0.14417,-0.79831,59
14,0.989,-0.032,0.21,1.831,2.136,0.305,-10.827,-77.844,179.956,-27.353,-11.093,-7.78,29.51,-0.05951,-0.62775,0.07425,-0.77252,60,0.73,0.032,0.681,10.254,0.549,2.625,1.071,-48.186,-121.712,-23.74,-9.867,-0.973,27.14,-0.44455,0.35809,0.2016,0.79587,54,0.588,0.044,0.787,0.977,-6.226,4.333,1.516,-37.271,154.671,-15.867,-11.127,-30.22,31.59,-0.21371,-0.28741,0.07294,-0.93076,56,0.905,0.064,0.366,3.479,5.371,-1.16,6.921,-68.615,-159.181,-29.347,-11.927,-3.547,32.08,0.18005,-0.55624,-0.14417,-0.79831,62
15,0.994,-0.03,0.218,1.465,1.77,0.549,-10.805,-77.811,179.929,-27.353,-11.093,-7.78,29.51,-0.05951,-0.62775,0.07425,-0.77252,61,0.729,0.032,0.666,9.216,-0.122,2.197,1.208,-48.186,-121.657,-23.74,-9.867,-0.973,27.14,-0.44455,0.35809,0.2016,0.79587,55,0.592,0.032,0.776,1.343,-4.944,3.418,1.5,-37.354,154.77,-15.867,-11.127,-30.22,31.59,-0.21371,-0.28741,0.07294,-0.93076,57,0.912,0.062,0.372,2.319,4.517,-1.038,7.009,-68.516,-159.208,-29.347,-11.927,-3.547,32.08,0.18005,-0.55624,-0.14417,-0.79831,63
16,0.995,-0.028,0.221,0.488,1.526,0.427,-10.8,-77.783,179.929,-27.353,-11.093,-7.78,29.51,-0.05951,-0.62775,0.07425,-0.77252,66,0.739,0.033,0.663,7.08,-1.038,1.343,1.324,-48.197,-121.624,-23.74,-9.867,-0.973,27.14,-0.44455,0.35809,0.2016,0.79587,64,0.604,0.035,0.777,1.404,-1.892,2.441,1.5,-37.375,154.836,-15.867,-11.127,-30.22,31.59,-0.20261,-0.31522,0.05777,-0.92526,68,0.918,0.061,0.378,0.916,3.601,-1.099,7.075,-68.434,-159.241,-29.347,-11.927,-3.547,32.08,0.18005,-0.55624,-0.14417,-0.79831,70
17,0.999,-0.027,0.229,-0.122,1.77,0.122,-10.778,-77.756,179.923,-27.353,-11.093,-7.78,29.51,-0.05951,-0.62775,0.07425,-0.77252,67,0.747,0.03,0.667,5.188,-0.793,0.793,1.417,-48.208,-121.619,-23.74,-9.867,-0.973,27.14,-0.44455,0.35809,0.2016,0.79587,65,0.604,0.033,0.782,1.16,-0.671,1.709,1.505,-37.381,154.88,-15.867,-11.127,-30.22,31.59,-0.20261,-0.31522,0.05777,-0.92526,69,0.918,0.059,0.387,0.061,3.967,-1.343,7.136,-68.357,-159.28,-29.347,-11.927,-3.547,32.08,0.18005,-0.55624,-0.14417,-0.79831,71
18,1.0,-0.03,0.232,-0.549,1.404,0.0,-10.745,-77.723,179.901,-27.353,-11.093,-7.78,29.51,-0.05951,-0.62775,0.07425,-0.77252,74,0.75,0.024,0.674,3.662,-0.427,0.244,1.489,-48.214,-121.624,-23.74,-9.867,-0.973,27.14,-0.44455,0.35809,0.2016,0.79587,72,0.596,0.027,0.791,0.854,-0.916,1.221,1.511,-37.386,154.902,-15.867,-11.127,-30.22,31.59,-0.20261,-0.31522,0.05777,-0.92526,76,0.914,0.053,0.384,0.0,4.211,-1.282,7.185,-68.269,-159.307,-29.347,-11.927,-3.547,32.08,0.18005,-0.55624,-0.14417,-0.79831,82
19,0.999,-0.038,0.229,-0.61,1.404,-0.061,-10.712,-77.695,179.868,-27.353,-11.093,-7.78,29.51,-0.05951,-0.62775,0.07425,-0.77252,75,0.747,0.025,0.682,2.502,0.549,-0.122,1.549,-48.197,-121.657,-23.74,-9.867,-0.973,27.14,-0.44455,0.35809,0.2016,0.79587,73,0.631,0.024,0.785,-0.366,-3.906,0.183,1.511,-37.458,154.874,-15.867,-11.127,-30.22,31.59,-0.20261,-0.31522,0.05777,-0.92526,77,0.908,0.055,0.378,-0.061,4.15,-0.61,7.218,-68.181,-159.307,-29.347,-11.927,-3.547,32.08,0.18005,-0.55624,-0.14417,-0.79831,83
20,0.996,-0.037,0.223,-0.427,1.465,0.061,-10.679,-77.668,179.857,-27.353,-11.093,-7.78,29.51,-0.05951,-0.62775,0.07425,-0.77252,86,0.75,0.028,0.679,1.282,1.953,-0.488,1.588,-48.153,-121.701,-23.74,-9.867,-0.973,27.14,-0.44455,0.35809,0.2016,0.79587,78,0.612,0.035,0.792,-1.282,-2.625,-2.075,1.522,-37.502,154.781,-15.867,-11.127,-30.22,31.59,-0.20261,-0.31522,0.05777,-0.92526,80,0.909,0.058,0.374,-0.366,3.662,-0.366,7.224,-68.099,-159.285,-28.867,-12.46,-4.94,32.08,0.18005,-0.55624,-0.14417,-0.79831,90
21,0.994,-0.032,0.218,-0.732,1.526,0.183,-10.657,-77.635,179.852,-27.353,-11.093,-7.78,29.51,-0.05951,-0.62775,0.07425,-0.77252,87,0.747,0.029,0.683,0.122,3.662,-0.854,1.615,-48.076,-121.75,-23.74,-9.867,-0.973,27.14,-0.44455,0.35809,0.2016,0.79587,79,0.609,0.028,0.792,-2.258,-0.427,-1.038,1.5,-37.507,154.704,-15.867,-11.127,-30.22,31.59,-0.20261,-0.31522,0.05777,-0.92526,81,0.907,0.053,0.38,-0.916,3.052,-0.671,7.229,-68.027,-159.252,-28.867,-12.46,-4.94,32.08,0.18005,-0.55624,-0.14417,-0.79831,91
22,0.992,-0.037,0.218,-0.732,1.282,0.061,-10.64,-77.607,179.852,-27.353,-11.093,-7.78,29.51,-0.05951,-0.62775,0.07425,-0.77252,100,0.739,0.025,0.677,-0.122,3.784,-1.343,1.642,-47.994,-121.816,-23.74,-9.867,-0.973,27.14,-0.44455,0.35809,0.2016,0.79587,84,0.599,0.025,0.795,-1.465,-1.099,-1.282,1.5,-37.529,154.627,-15.867,-11.127,-30.22,31.59,-0.20261,-0.31522,0.05777,-0.92526,88,0.904,0.043,0.376,-0.916,2.747,-0.793,7.24,-67.961,-159.236,-28.867,-12.46,-4.94,32.08,0.18005,-0.55624,-0.14417,-0.79831,92
23,0.989,-0.044,0.215,-0.549,0.977,0.0,-10.618,-77.585,179.857,-27.353,-11.093,-7.78,29.51,-0.05951,-0.62775,0.07425,-0.77252,101,0.734,0.02,0.677,-0.122,2.625,-1.465,1.681,-47.939,-121.893,-23.74,-9.867,-0.973,27.14,-0.44455,0.35809,0.2016,0.79587,85,0.601,0.025,0.797,-1.16,-2.991,-1.16,1.5,-37.584,154.572,-15.867,-11.127,-30.22,31.59,-0.20261,-0.31522,0.05777,-0.92526,89,0.907,0.043,0.376,-0.549,2.258,-0.793,7.256,-67.906,-159.23,-28.867,-12.46,-4.94,32.08,0.18005,-0.55624,-0.14417,-0.79831,93
24,0.989,-0.042,0.212,-0.366,0.549,0.0,-10.602,-77.569,179.863,-27.353,-11.093,-7.78,29.51,-0.05951,-0.62775,0.07425,-0.77252,106,0.741,0.019,0.681,0.0,2.869,-1.16,1.708,-47.878,-121.965,-23.327,-10.133,-0.933,27.14,-0.44455,0.35809,0.2016,0.79587,94,0.61,0.025,0.784,-0.488,-3.784,-0.732,1.511,-37.65,154.523,-15.867,-11.127,-30.22,31.59,-0.20261,-0.31522,0.05777,-0.92526,96,0.909,0.043,0.372,-0.305,1.831,-0.793,7.278,-67.857,-159.241,-28.867,-12.46,-4.94,32.08,0.18005,-0.55624,-0.14417,-0.79831,104
25,0.995,-0.044,0.208,-0.061,0.061,0.0,-10.596,-77.563,179.852,-27.353,-11.093,-7.78,29.51,-0.05951,-0.62775,0.07425,-0.77252,107,0.746,0.018,0.676,0.549,3.052,-0.793,1.736,-47.812,-122.031,-23.327,-10.133,-0.933,27.14,-0.44455,0.35809,0.2016,0.79587,95,0.615,0.024,0.786,0.061,-1.831,-0.183,1.522,-37.683,154.501,-15.867,-11.127,-30.22,31.59,-0.20261,-0.31522,0.05777,-0.92526,97,0.912,0.042,0.368,-0.183,1.404,-0.61,7.295,-67.824,-159.241,-28.867,-12.46,-4.94,32.08,0.18005,-0.55624,-0.14417,-0.79831,105
26,0.997,-0.046,0.207,0.0,0.0,-0.061,-10.591,-77.563,179.846,-27.033,-10.973,-7.987,29.51,-0.05951,-0.62775,0.07425,-0.77252,112,0.743,0.021,0.671,0.793,1.892,-0.671,1.763,-47.774,-122.091,-23.327,-10.133,-0.933,27.14,-0.44455,0.35809,0.2016,0.79587,98,0.609,0.026,0.785,-0.549,-0.916,-0.122,1.516,-37.7,154.49,-15.867,-11.127,-30.22,31.59,-0.20261,-0.31522,0.05777,-0.92526,102,0.915,0.045,0.371,0.183,1.099,-0.549,7.317,-67.797,-159.252,-28.867,-12.46,-4.94,32.08,0.18405,-0.53827,-0.15219,-0.80817,108
27,1.0,-0.045,0.211,0.305,-0.244,0.122,-10.591,-77.563,179.863,-27.033,-10.973,-7.987,29.51,-0.05951,-0.62775,0.07425,-0.77252,113,0.739,0.021,0.671,0.854,0.488,-0.366,1.791,-47.763,-122.146,-23.327,-10.133,-0.933,27.14,-0.44455,0.35809,0.2016,0.79587,99,0.607,0.026,0.783,0.0,-0.854,0.244,1.522,-37.716,154.479,-15.867,-11.127,-30.22,31.59,-0.20261,-0.31522,0.05777,-0.92526,103,0.915,0.045,0.371,0.61,0.977,-0.366,7.339,-67.769,-159.247,-28.867,-12.46,-4.94,32.08,0.18405,-0.53827,-0.15219,-0.80817,109
28,1.001,-0.044,0.212,0.549,0.0,0.305,-10.607,-77.569,179.918,-27.033,-10.973,-7.987,29.51,-0.05951,-0.62775,0.07425,-0.77252,120,0.742,0.022,0.676,0.549,0.122,-0.061,1.807,-47.758,-122.19,-23.327,-10.133,-0.933,27.14,-0.44772,0.34735,0.20831,0.79712,110,0.613,0.025,0.788,0.0,-1.465,0.488,1.516,-37.744,154.484,-15.867,-11.127,-30.22,31.59,-0.20261,-0.31522,0.05777,-0.92526,114,0.917,0.045,0.366,1.221,0.0,-0.122,7.366,-67.764,-159.236,-28.867,-12.46,-4.94,32.08,0.18405,-0.53827,-0.15219,-0.80817,116
29,1.004,-0.046,0.207,0.549,0.122,0.183,-10.624,-77.569,179.962,-27.033,-10.973,-7.987,29.51,-0.05951,-0.62775,0.07425,-0.77252,121,0.749,0.021,0.679,0.977,0.366,0.061,1.824,-47.752,-122.228,-23.327,-10.133,-0.933,27.14,-0.44772,0.34735,0.20831,0.79712,111,0.62,0.023,0.79,-0.061,-1.648,0.61,1.511,-37.771,154.479,-15.867,-11.127,-30.22,31.59,-0.20261,-0.31522,0.05777,-0.92526,115,0.92,0.051,0.375,1.221,-0.427,0.122,7.388,-67.769,-159.225,-28.867,-12.46,-4.94,32.08,0.18405,-0.53827,-0.15219,-0.80817,117
30,1.006,-0.04,0.215,0.977,0.0,0.305,-10.64,-77.569,-179.989,-27.033,-10.973,-7.987,29.51,-0.05951,-0.62775,0.07425,-0.77252,128,0.752,0.022,0.678,1.099,-0.122,0.244,1.84,-47.752,-122.261,-23.327,-10.133,-0.933,27.14,-0.44772,0.34735,0.20831,0.79712,118,0.621,0.024,0.784,-0.305,-0.732,0.549,1.505,-37.787,154.479,-16.667,-11.113,-29.747,31.59,-0.20261,-0.31522,0.05777,-0.92526,122,0.917,0.055,0.372,0.427,-0.427,0.0,7.405,-67.775,-159.241,-28.867,-12.46,-4.94,32.08,0.18405,-0.53827,-0.15219,-0.80817,130
31,1.0,-0.036,0.214,0.916,0.122,0.305,-10.657,-77.569,-179.951,-27.033,-10.973,-7.987,29.51,-0.05951,-0.62775,0.07425,-0.77252,129,0.745,0.025,0.674,0.488,-0.977,0.244,1.846,-47.769,-122.283,-23.327,-10.133,-0.933,27.14,-0.44772,0.34735,0.20831,0.79712,119,0.614,0.026,0.788,-0.732,-0.183,0.122,1.489,-37.793,154.473,-16.667,-11.113,-29.747,31.59,-0.20261,-0.31522,0.05777,-0.92526,123,0.91,0.055,0.371,-0.244,-0.183,0.0,7.405,-67.78,-159.269,-28.867,-12.46,-4.94,32.08,0.18405,-0.53827,-0.15219,-0.80817,131
32,0.996,-0.035,0.215,0.366,0.427,0.366,-10.668,-77.563,-179.885,-27.033,-10.973,-7.987,29.51,-0.05783,-0.62369,0.07211,-0.77612,136,0.746,0.023,0.68,0.183,-0.671,0.0,1.846,-47.791,-122.316,-23.327,-10.133,-0.933,27.14,-0.44772,0.34735,0.20831,0.79712,126,0.613,0.026,0.789,-0.549,-0.671,-0.122,1.489,-37.804,154.462,-16.667,-11.113,-29.747,31.59,-0.20261,-0.31522,0.05777,-0.92526,124,0.909,0.049,0.379,-0.183,-0.183,-0.122,7.41,-67.78,-159.318,-28.867,-12.46,-4.94,32.08,0.18405,-0.53827,-0.15219,-0.80817,132
33,0.997,-0.038,0.219,0.183,0.0,0.183,-10.684,-77.558,-179.83,-27.033,-10.973,-7.987,29.51,-0.05783,-0.62369,0.07211,-0.77612,137,0.75,0.022,0.677,0.244,-0.671,0.0,1.851,-47.807,-122.36,-23.327,-10.133,-0.933,27.14,-0.44772,0.34735,0.20831,0.79712,127,0.616,0.021,0.789,-0.244,-0.916,-0.183,1.489,-37.82,154.462,-16.667,-11.113,-29.747,31.59,-0.20261,-0.31522,0.05777,-0.92526,125,0.916,0.049,0.379,0.0,-0.732,-0.305,7.427,-67.791,-159.351,-28.867,-12.46,-4.94,32.08,0.18405,-0.53827,-0.15219,-0.80817,133
34,1.002,-0.036,0.217,0.183,-0.061,0.0,-10.684,-77.563,-179.775,-27.033,-10.973,-7.987,29.51,-0.05783,-0.62369,0.07211,-0.77612,142,0.748,0.024,0.67,-0.549,-1.343,0.183,1.857,-47.818,-122.404,-23.327,-10.133,-0.933,27.14,-0.44772,0.34735,0.20831,0.79712,134,0.621,0.027,0.785,-0.977,-1.343,0.061,1.472,-37.848,154.468,-16.667,-11.113,-29.747,31.59,-0.2049,-0.31882,0.05963,-0.9234,144,0.914,0.055,0.369,-0.061,-0.916,-0.427,7.454,-67.802,-159.379,-28.867,-12.46,-4.94,32.08,0.18405,-0.53827,-0.15219,-0.80817,138
35,0.995,-0.035,0.214,0.061,-0.366,0.0,-10.684,-77.569,-179.742,-27.033,-10.973,-7.987,29.51,-0.05783,-0.62369,0.07211,-0.77612,143,0.744,0.022,0.669,-1.526,-1.465,0.0,1.84,-47.845,-122.448,-23.327,-10.133,-0.933,27.14,-0.44772,0.34735,0.20831,0.79712,135,0.617,0.022,0.777,-1.221,-0.488,-0.061,1.456,-37.859,154.457,-16.667,-11.113,-29.747,31.59,-0.2049,-0.31882,0.05963,-0.9234,145,0.909,0.055,0.372,-0.732,-0.427,-0.488,7.471,-67.813,-159.395,-28.867,-12.46,-4.94,32.08,0.18405,-0.53827,-0.15219,-0.80817,139
36,0.993,-0.035,0.22,0.0,0.122,-0.061,-10.668,-77.569,-179.731,-27.033,-10.973,-7.987,29.51,-0.05783,-0.62369,0.07211,-0.77612,152,0.734,0.018,0.672,-1.343,-0.61,-0.61,1.818,-47.873,-122.492,-23.327,-10.133,-0.933,27.14,-0.44772,0.34735,0.20831,0.79712,140,0.61,0.017,0.776,-0.916,0.977,-0.549,1.45,-37.842,154.429,-16.667,-11.113,-29.747,31.59,-0.2049,-0.31882,0.05963,-0.9234,146,0.905,0.053,0.374,-0.977,0.061,-0.793,7.493,-67.808,-159.423,-28.867,-12.46,-4.94,32.08,0.18405,-0.53827,-0.15219,-0.80817,154
37,0.991,-0.038,0.22,-0.549,0.0,-0.122,-10.657,-77.569,-179.753,-27.033,-10.973,-7.987,29.51,-0.05783,-0.62369,0.07211,-0.77612,153,0.737,0.018,0.673,-0.671,-0.61,-0.793,1.807,-47.884,-122.547,-23.327,-10.133,-0.933,27.14,-0.44772,0.34735,0.20831,0.79712,141,0.601,0.017,0.785,-0.977,0.916,-0.916,1.445,-37.826,154.385,-16.667,-11.113,-29.747,31.59,-0.2049,-0.31882,0.05963,-0.9234,147,0.904,0.045,0.376,-0.671,0.0,-0.793,7.52,-67.802,-159.45,-28.867,-12.46,-4.94,32.08,0.18405,-0.53827,-0.15219,-0.80817,155
38,0.991,-0.045,0.219,-0.61,0.061,-0.122,-10.651,-77.569,-179.769,-27.033,-10.973,-7.987,29.51,-0.05783,-0.62369,0.07211,-0.77612,160,0.744,0.022,0.673,-0.61,-0.488,-0.61,1.813,-47.895,-122.607,-23.327,-10.133,-0.933,27.14,-0.44772,0.34735,0.20831,0.79712,150,0.609,0.022,0.783,-0.854,0.061,-0.61,1.439,-37.831,154.33,-16.667,-11.113,-29.747,31.59,-0.2049,-0.31882,0.05963,-0.9234,148,0.911,0.045,0.377,-0.244,-0.427,-0.549,7.548,-67.802,-159.483,-28.867,-12.46,-4.94,32.08,0.18405,-0.53827,-0.15219,-0.80817,156
39,0.998,-0.045,0.217,-0.122,0.061,0.0,-10.651,-77.563,-179.769,-27.033,-10.973,-7.987,29.51,-0.05783,-0.62369,0.07211,-0.77612,161,0.746,0.023,0.666,-1.343,-1.099,-0.366,1.813,-47.906,-122.668,-23.327,-10.133,-0.933,27.14,-0.44772,0.34735,0.20831,0.79712,151,0.614,0.025,0.777,-1.16,-0.061,-0.305,1.423,-37.831,154.276,-16.667,-11.113,-29.747,31.59,-0.2049,-0.31882,0.05963,-0.9234,149,0.914,0.05,0.373,-0.183,-0.977,-0.366,7.57,-67.813,-159.505,-28.867,-12.46,-4.94,32.08,0.18405,-0.53827,-0.15219,-0.80817,157
40,0.998,-0.042,0.212,-0.061,-0.061,-0.061,-10.646,-77.569,-179.764,-27.033,-10.973,-7.987,29.51,-0.05783,-0.62369,0.07211,-0.77612,162,0.747,0.023,0.67,-1.587,-1.648,-0.244,1.791,-47.928,-122.706,-23.507,-10.353,-1.24,27.14,-0.44772,0.34735,0.20831,0.79712,158,0.613,0.023,0.777,-1.343,0.671,-0.549,1.406,-37.82,154.215,-16.667,-11.113,-29.747,31.59,-0.2049,-0.31882,0.05963,-0.9234,164,0.912,0.049,0.373,-0.366,-1.221,0.0,7.575,-67.835,-159.51,-28.813,-12.687,-5.287,32.08,0.18405,-0.53827,-0.15219,-0.80817,166
41,0.997,-0.043,0.217,0.0,0.0,0.0,-10.646,-77.563,-179.758,-27.033,-10.973,-7.987,29.51,-0.05783,-0.62369,0.07211,-0.77612,163,0.747,0.025,0.677,-1.648,-1.77,-0.122,1.769,-47.961,-122.745,-23.507,-10.353,-1.24,27.14,-0.44772,0.34735,0.20831,0.79712,159,0.612,0.024,0.786,-1.282,1.404,-0.549,1.395,-37.793,154.171,-16.667,-11.113,-29.747,31.59,-0.2049,-0.31882,0.05963,-0.9234,165,0.915,0.049,0.374,-0.549,-1.099,0.183,7.564,-67.852,-159.494,-28.813,-12.687,-5.287,32.08,0.18405,-0.53827,-0.15219,-0.80817,167
42,0.997,-0.042,0.217,0.0,0.183,0.0,-10.646,-77.563,-179.747,-27.033,-10.973,-7.987,29.51,-0.05783,-0.62369,0.07211,-0.77612,170,0.746,0.023,0.674,-2.014,-2.075,0.0,1.736,-47.999,-122.778,-23.507,-10.353,-1.24,27.14,-0.44772,0.34735,0.20831,0.79712,168,0.609,0.025,0.79,-2.014,1.343,-0.549,1.368,-37.771,154.138,-16.667,-11.113,-29.747,31.59,-0.2049,-0.31882,0.05963,-0.9234,172,0.914,0.05,0.379,-0.244,-1.16,0.305,7.553,-67.868,-159.456,-28.813,-12.687,-5.287,32.08,0.18405,-0.53827,-0.15219,-0.80817,174
43,0.997,-0.042,0.218,0.122,-0.244,0.122,-10.657,-77.563,-179.725,-27.033,-10.973,-7.987,29.51,-0.05783,-0.62369,0.07211,-0.77612,171,0.749,0.022,0.673,-1.77,-2.014,0.122,1.703,-48.038,-122.816,-23.507,-10.353,-1.24,27.14,-0.44772,0.34735,0.20831,0.79712,169,0.611,0.023,0.789,-1.465,1.038,-0.549,1.351,-37.749,154.089,-16.667,-11.113,-29.747,31.59,-0.2049,-0.31882,0.05963,-0.9234,173,0.915,0.052,0.377,-0.305,-1.221,0.366,7.537,-67.89,-159.401,-28.813,-12.687,-5.287,32.08,0.18405,-0.53827,-0.15219,-0.80817,175
44,0.999,-0.039,0.218,0.244,-0.427,0.061,-10.668,-77.569,-179.687,-27.033,-10.973,-7.987,29.51,-0.05783,-0.62369,0.07211,-0.77612,178,0.746,0.024,0.67,-2.136,-1.221,0.244,1.664,-48.071,-122.855,-23.507,-10.353,-1.24,27.14,-0.44223,0.35098,0.20663,0.79904,176,0.612,0.025,0.783,-0.854,1.038,-0.366,1.34,-37.733,154.039,-16.667,-11.113,-29.747,31.59,-0.2049,-0.31882,0.05963,-0.9234,180,0.913,0.051,0.372,-0.549,-1.16,0.366,7.515,-67.912,-159.357,-28.813,-12.687,-5.287,32.08,0.18393,-0.53839,-0.15317,-0.80792,182
45,0.996,-0.038,0.217,0.0,-0.732,0.0,-10.679,-77.585,-179.643,-27.033,-10.973,-7.987,29.51,-0.05783,-0.62369,0.07211,-0.77612,179,0.743,0.019,0.672,-1.709,-1.526,0.366,1.626,-48.098,-122.882,-23.507,-10.353,-1.24,27.14,-0.44223,0.35098,0.20663,0.79904,177,0.606,0.024,0.785,-0.732,1.77,-0.305,1.335,-37.7,153.99,-16.667,-11.113,-29.747,31.59,-0.2049,-0.31882,0.05963,-0.9234,181,0.911,0.05,0.369,-0.732,-1.038,0.305,7.498,-67.928,-159.313,-28.813,-12.687,-5.287,32.08,0.18393,-0.53839,-0.15317,-0.80792,183
46,0.999,-0.037,0.218,-0.183,-0.366,-0.183,-10.673,-77.591,-179.604,-27.033,-10.973,-7.987,29.51,-0.05783,-0.62369,0.07211,-0.77612,186,0.74,0.017,0.671,-1.709,-1.282,0.122,1.588,-48.12,-122.915,-23.507,-10.353,-1.24,27.14,-0.44223,0.35098,0.20663,0.79904,184,0.604,0.018,0.792,-0.61,1.282,-0.244,1.329,-37.678,153.935,-16.667,-11.113,-29.747,31.59,-0.2049,-0.31882,0.05963,-0.9234,194,0.91,0.053,0.37,-0.793,-0.916,0.061,7.487,-67.939,-159.28,-28.813,-12.687,-5.287,32.08,0.18393,-0.53839,-0.15317,-0.80792,188
47,0.995,-0.036,0.216,-0.244,-0.366,-0.244,-10.657,-77.596,-179.588,-27.033,-10.973,-7.987,29.51,-0.05783,-0.62369,0.07211,-0.77612,187,0.744,0.016,0.669,-2.747,-1.038,-0.122,1.549,-48.142,-122.943,-23.507,-10.353,-1.24,27.14,-0.44223,0.35098,0.20663,0.79904,185,0.604,0.015,0.788,-1.282,-0.061,-0.671,1.318,-37.678,153.88,-16.667,-11.113,-29.747,31.59,-0.2049,-0.31882,0.05963,-0.9234,195,0.912,0.055,0.372,-1.099,-1.099,-0.183,7.482,-67.956,-159.241,-28.813,-12.687,-5.287,32.08,0.18393,-0.53839,-0.15317,-0.80792,189
48,0.994,-0.036,0.218,-0.183,-0.366,0.0,-10.657,-77.607,-179.555,-27.033,-10.973,-7.987,29.51,-0.05783,-0.62369,0.07211,-0.77612,192,0.747,0.02,0.665,-3.479,-1.038,-0.427,1.5,-48.164,-122.975,-23.507,-10.353,-1.24,27.14,-0.44223,0.35098,0.20663,0.79904,190,0.607,0.015,0.784,-2.502,-0.305,-1.343,1.291,-37.683,153.809,-16.667,-11.113,-29.747,31.59,-0.2049,-0.31882,0.05963,-0.9234,196,0.913,0.054,0.373,-1.282,-0.977,-0.305,7.487,-67.972,-159.208,-28.813,-12.687,-5.287,32.08,0.18393,-0.53839,-0.15317,-0.80792,200
49,0.993,-0.035,0.216,-0.488,-0.61,0.0,-10.668,-77.613,-179.528,-27.033,-10.973,-7.987,29.51,-0.05783,-0.62369,0.07211,-0.77612,193,0.749,0.02,0.666,-2.625,-0.977,-0.427,1.45,-48.181,-122.997,-23.507,-10.353,-1.24,27.14,-0.44223,0.35098,0.20663,0.79904,191,0.607,0.023,0.779,-2.38,0.183,-1.526,1.269,-37.683,153.743,-16.667,-11.113,-29.747,31.59,-0.2049,-0.31882,0.05963,-0.9234,197,0.914,0.051,0.371,-1.465,-0.671,-0.305,7.482,-67.978,-159.17,-28.813,-12.687,-5.287,32.08,0.18393,-0.53839,-0.15317,-0.80792,201
50,0.998,-0.036,0.216,-0.732,-0.793,-0.122,-10.673,-77.629,-179.522,-27.033,-10.973,-7.987,29.51,-0.05783,-0.62369,0.07211,-0.77612,204,0.748,0.017,0.667,-1.465,-0.793,-0.61,1.417,-48.197,-123.025,-23.507,-10.353,-1.24,27.14,-0.44223,0.35098,0.20663,0.79904,202,0.611,0.021,0.784,-1.099,1.221,-1.16,1.269,-37.661,153.699,-15.887,-10.827,-29.527,31.59,-0.2049,-0.31882,0.05963,-0.9234,198,0.913,0.047,0.368,-1.343,-0.488,-0.183,7.471,-67.983,-159.131,-28.813,-12.687,-5.287,32.08,0.18393,-0.53839,-0.15317,-0.80792,206
51,0.997,-0.039,0.214,-0.793,-0.671,-0.244,-10.673,-77.64,-179.539,-27.033,-10.973,-7.987,29.51,-0.05783,-0.62369,0.07211,-0.77612,205,0.746,0.014,0.662,-0.977,-0.854,-0.671,1.406,-48.208,-123.058,-23.507,-10.353,-1.24,27.14,-0.44223,0.35098,0.20663,0.79904,203,0.607,0.02,0.781,-0.549,1.16,-0.916,1.274,-37.639,153.666,-15.887,-10.827,-29.527,31.59,-0.2049,-0.31882,0.05963,-0.9234,199,0.913,0.046,0.368,-0.854,-0.427,-0.122,7.465,-67.989,-159.104,-28.813,-12.687,-5.287,32.08,0.18393,-0.53839,-0.15317,-0.80792,207
52,0.999,-0.043,0.215,-0.305,-0.427,-0.061,-10.673,-77.651,-179.55,-26.827,-10.907,-8.08,29.51,-0.05783,-0.62369,0.07211,-0.77612,208,0.75,0.019,0.67,-1.282,-0.977,-0.488,1.406,-48.224,-123.08,-23.507,-10.353,-1.24,27.14,-0.44223,0.35098,0.20663,0.79904,210,0.607,0.021,0.781,-0.61,1.038,-0.61,1.274,-37.617,153.644,-15.887,-10.827,-29.527,31.59,-0.2049,-0.31882,0.05963,-0.9234,214,0.916,0.048,0.372,-0.427,-0.549,-0.122,7.471,-67.994,-159.088,-28.813,-12.687,-5.287,32.08,0.18393,-0.53839,-0.15317,-0.80792,218
53,1.001,-0.042,0.217,0.0,-0.488,0.183,-10.69,-77.657,-179.544,-26.827,-10.907,-8.08,29.51,-0.05783,-0.62369,0.07211,-0.77612,209,0.754,0.019,0.671,-1.587,-1.038,-0.183,1.39,-48.246,-123.096,-23.507,-10.353,-1.24,27.14,-0.44223,0.35098,0.20663,0.79904,211,0.61,0.024,0.79,-0.671,1.526,-0.671,1.274,-37.59,153.627,-15.887,-10.827,-29.527,31.59,-0.2049,-0.31882,0.05963,-0.9234,215,0.917,0.049,0.375,-0.244,-0.916,-0.122,7.476,-68.005,-159.099,-28.813,-12.687,-5.287,32.08,0.18393,-0.53839,-0.15317,-0.80792,219
54,1.0,-0.041,0.218,0.122,-0.427,0.305,-10.712,-77.662,-179.511,-26.827,-10.907,-8.08,29.51,-0.05783,-0.62369,0.07211,-0.77612,220,0.751,0.015,0.67,-1.282,-1.099,-0.183,1.368,-48.263,-123.113,-23.507,-10.353,-1.24,27.14,-0.44223,0.35098,0.20663,0.79904,212,0.611,0.02,0.792,-0.122,1.038,-0.916,1.291,-37.573,153.578,-15.887,-10.827,-29.527,31.59,-0.2049,-0.31882,0.05963,-0.9234,216,0.916,0.048,0.374,-0.305,-0.854,0.0,7.482,-68.022,-159.093,-28.813,-12.687,-5.287,32.08,0.18393,-0.53839,-0.15317,-0.80792,224
55,0.997,-0.041,0.216,0.122,-0.671,0.183,-10.739,-77.673,-179.473,-26.827,-10.907,-8.08,29.51,-0.05783,-0.62369,0.07211,-0.77612,221,0.75,0.018,0.67,-1.953,-1.648,-0.305,1.346,-48.285,-123.135,-23.507,-10.353,-1.24,27.14,-0.44223,0.35098,0.20663,0.79904,213,0.608,0.02,0.789,-0.793,1.465,-1.099,1.291,-37.546,153.539,-15.887,-10.827,-29.527,31.59,-0.2049,-0.31882,0.05963,-0.9234,217,0.914,0.051,0.37,-0.671,-0.732,0.061,7.471,-68.033,-159.088,-28.813,-12.687,-5.287,32.08,0.18393,-0.53839,-0.15317,-0.80792,225
56,0.998,-0.037,0.215,0.061,-0.671,0.0,-10.745,-77.684,-179.445,-26.827,-10.907,-8.08,29.51,-0.05511,-0.62466,0.07001,-0.77573,228,0.747,0.019,0.671,-2.563,-1.16,-0.183,1.313,-48.318,-123.168,-23.507,-10.353,-1.24,27.14,-0.44223,0.35098,0.20663,0.79904,226,0.606,0.022,0.789,-2.014,2.441,-1.16,1.274,-37.496,153.484,-15.887,-10.827,-29.527,31.59,-0.21234,-0.31619,0.0632,-0.92239,222,0.911,0.052,0.364,-1.16,-0.671,0.061,7.449,-68.038,-159.082,-28.813,-12.687,-5.287,32.08,0.18393,-0.53839,-0.15317,-0.80792,230
57,0.996,-0.037,0.21,-0.061,-0.61,-0.061,-10.75,-77.695,-179.429,-26.827,-10.907,-8.08,29.51,-0.05511,-0.62466,0.07001,-0.77573,229,0.747,0.016,0.669,-1.526,-0.977,-0.305,1.274,-48.334,-123.201,-23.507,-10.353,-1.24,27.14,-0.44223,0.35098,0.20663,0.79904,227,0.603,0.021,0.796,-1.77,1.953,-1.404,1.263,-37.458,153.424,-15.887,-10.827,-29.527,31.59,-0.21234,-0.31619,0.0632,-0.92239,223,0.914,0.051,0.364,-1.221,-1.16,0.183,7.427,-68.06,-159.06,-28.813,-12.687,-5.287,32.08,0.18393,-0.53839,-0.15317,-0.80792,231
58,0.998,-0.038,0.21,-0.061,-0.488,0.0,-10.75,-77.706,-179.418,-26.827,-10.907,-8.08,29.51,-0.05511,-0.62466,0.07001,-0.77573,234,0.75,0.012,0.668,-0.549,-1.343,-0.61,1.263,-48.356,-123.234,-23.067,-10.36,-0.78,27.14,-0.44223,0.35098,0.20663,0.79904,232,0.604,0.018,0.794,-0.427,0.0,-1.16,1.274,-37.463,153.391,-15.887,-10.827,-29.527,31.59,-0.21234,-0.31619,0.0632,-0.92239,236,0.916,0.048,0.369,-1.038,-1.404,0.061,7.416,-68.088,-159.055,-29.173,-12.647,-5.167,32.08,0.18393,-0.53839,-0.15317,-0.80792,242
59,0.998,-0.039,0.212,-0.244,-0.732,0.0,-10.761,-77.717,-179.407,-26.827,-10.907,-8.08,29.51,-0.05511,-0.62466,0.07001,-0.77573,235,0.757,0.009,0.661,-0.549,-1.465,-0.793,1.269,-48.384,-123.278,-23.067,-10.36,-0.78,27.14,-0.44223,0.35098,0.20663,0.79904,233,0.61,0.014,0.785,0.549,0.0,-1.099,1.302,-37.463,153.358,-15.887,-10.827,-29.527,31.59,-0.21234,-0.31619,0.0632,-0.92239,237,0.918,0.044,0.367,-0.854,-1.343,-0.122,7.416,-68.11,-159.055,-29.173,-12.647,-5.167,32.08,0.18393,-0.53839,-0.15317,-0.80792,243
60,1.0,-0.042,0.211,-0.244,-0.793,0.0,-10.772,-77.734,-179.379,-26.827,-10.907,-8.08,29.51,-0.05511,-0.62466,0.07001,-0.77573,244,0.756,0.008,0.658,-0.793,-1.587,-0.732,1.274,-48.411,-123.327,-23.067,-10.36,-0.78,27.14,-0.44223,0.35098,0.20663,0.79904,238,0.614,0.014,0.779,0.244,0.854,-1.221,1.324,-37.447,153.314,-15.887,-10.827,-29.527,31.59,-0.21234,-0.31619,0.0632,-0.92239,240,0.916,0.044,0.365,-0.488,-0.916,-0.305,7.432,-68.121,-159.066,-29.173,-12.647,-5.167,32.08,0.18582,-0.53986,-0.15433,-0.80627,248
61,0.997,-0.042,0.21,-0.305,-0.854,-0.061,-10.789,-77.75,-179.374,-26.827,-10.907,-8.08,29.51,-0.05511,-0.62466,0.07001,-0.77573,245,0.748,0.011,0.66,-0.732,-1.526,-0.671,1.274,-48.439,-123.365,-23.067,-10.36,-0.78,27.14,-0.44223,0.35098,0.20663,0.79904,239,0.607,0.018,0.779,-0.61,2.197,-1.099,1.329,-37.403,153.281,-15.887,-10.827,-29.527,31.59,-0.21234,-0.31619,0.0632,-0.92239,241,0.914,0.044,0.359,-0.244,-0.61,-0.366,7.449,-68.132,-159.082,-29.173,-12.647,-5.167,32.08,0.18582,-0.53986,-0.15433,-0.80627,249
62,0.998,-0.042,0.212,-0.183,-0.244,-0.061,-10.789,-77.756,-179.379,-26.827,-10.907,-8.08,29.51,-0.05511,-0.62466,0.07001,-0.77573,250,0.746,0.016,0.667,-0.61,-1.038,-0.549,1.274,-48.466,-123.404,-23.067,-10.36,-0.78,27.14,-0.43646,0.35635,0.20352,0.8006,252,0.595,0.02,0.786,-0.244,2.869,-0.916,1.34,-37.354,153.243,-15.887,-10.827,-29.527,31.59,-0.21234,-0.31619,0.0632,-0.92239,246,0.916,0.052,0.373,-0.122,-0.671,-0.183,7.465,-68.143,-159.093,-29.173,-12.647,-5.167,32.08,0.18582,-0.53986,-0.15433,-0.80627,258
63,0.996,-0.039,0.215,0.122,-0.183,-0.122,-10.783,-77.761,-179.396,-26.827,-10.907,-8.08,29.51,-0.05511,-0.62466,0.07001,-0.77573,251,0.752,0.016,0.668,-0.732,-0.366,-0.305,1.269,-48.483,-123.437,-23.067,-10.36,-0.78,27.14,-0.43646,0.35635,0.20352,0.8006,253,0.598,0.023,0.795,-0.122,2.258,-0.732,1.346,-37.31,153.226,-15.887,-10.827,-29.527,31.59,-0.21234,-0.31619,0.0632,-0.92239,247,0.917,0.049,0.37,-0.305,-0.61,0.0,7.471,-68.154,-159.099,-29.173,-12.647,-5.167,32.08,0.18582,-0.53986,-0.15433,-0.80627,259
64,1.0,-0.04,0.218,0.0,-0.305,-0.061,-10.778,-77.767,-179.39,-26.827,-10.907,-8.08,29.51,-0.05511,-0.62466,0.07001,-0.77573,256,0.753,0.02,0.664,-0.488,-0.854,-0.244,1.263,-48.494,-123.459,-23.067,-10.36,-0.78,27.14,-0.43646,0.35635,0.20352,0.8006,254,0.604,0.023,0.795,-0.366,1.404,-0.488,1.346,-37.282,153.226,-15.887,-10.827,-29.527,31.59,-0.21234,-0.31619,0.0632,-0.92239,262,0.916,0.046,0.365,-0.549,-0.793,0.061,7.471,-68.165,-159.099,-29.173,-12.647,-5.167,32.08,0.18582,-0.53986,-0.15433,-0.80627,266
65,0.999,-0.042,0.212,-0.244,-0.427,0.0,-10.783,-77.772,-179.401,-26.827,-10.907,-8.08,29.51,-0.05511,-0.62466,0.07001,-0.77573,257,0.753,0.019,0.667,-0.854,-1.221,-0.183,1.258,-48.51,-123.481,-23.067,-10.36,-0.78,27.14,-0.43646,0.35635,0.20352,0.8006,255,0.604,0.025,0.792,-1.221,1.465,-0.366,1.329,-37.255,153.221,-15.887,-10.827,-29.527,31.59,-0.21234,-0.31619,0.0632,-0.92239,263,0.915,0.044,0.364,-0.366,-0.977,0.0,7.46,-68.176,-159.099,-29.173,-12.647,-5.167,32.08,0.18582,-0.53986,-0.15433,-0.80627,267
66,1.0,-0.041,0.213,-0.244,-0.305,-0.061,-10.789,-77.778,-179.412,-26.827,-10.907,-8.08,29.51,-0.05511,-0.62466,0.07001,-0.77573,268,0.751,0.01,0.667,-0.305,-0.61,-0.122,1.252,-48.527,-123.497,-23.067,-10.36,-0.78,27.14,-0.43646,0.35635,0.20352,0.8006,260,0.603,0.021,0.792,-1.648,1.77,-0.61,1.307,-37.222,153.204,-15.887,-10.827,-29.527,31.59,-0.21234,-0.31619,0.0632,-0.92239,264,0.914,0.047,0.365,-0.244,-0.977,0.0,7.46,-68.192,-159.109,-29.173,-12.647,-5.167,32.08,0.18582,-0.53986,-0.15433,-0.80627,272
67,0.998,-0.042,0.212,0.061,-0.122,-0.244,-10.772,-77.783,-179.44,-26.827,-10.907,-8.08,29.51,-0.05511,-0.62466,0.07001,-0.77573,269,0.747,0.01,0.662,0.244,-0.305,0.061,1.252,-48.538,-123.514,-23.067,-10.36,-0.78,27.14,-0.43646,0.35635,0.20352,0.8006,261,0.601,0.019,0.791,-0.244,1.221,-0.305,1.313,-37.2,153.182,-15.887,-10.827,-29.527,31.59,-0.21234,-0.31619,0.0632,-0.92239,265,0.912,0.051,0.368,-0.122,-0.916,0.0,7.46,-68.209,-159.137,-29.173,-12.647,-5.167,32.08,0.18582,-0.53986,-0.15433,-0.80627,273
68,0.996,-0.04,0.214,0.61,-0.061,-0.122,-10.75,-77.783,-179.478,-26.827,-10.907,-8.08,29.51,-0.05511,-0.62466,0.07001,-0.77573,276,0.745,0.014,0.664,-0.061,-0.732,0.0,1.252,-48.543,-123.53,-23.067,-10.36,-0.78,27.14,-0.43646,0.35635,0.20352,0.8006,274,0.594,0.018,0.792,0.549,0.854,0.122,1.324,-37.189,153.166,-15.887,-10.827,-29.527,31.59,-0.21234,-0.31619,0.0632,-0.92239,270,0.913,0.051,0.366,-0.061,-0.854,0.0,7.465,-68.225,-159.164,-29.173,-12.647,-5.167,32.08,0.18582,-0.53986,-0.15433,-0.80627,278
69,0.994,-0.037,0.214,0.61,-0.122,0.0,-10.739,-77.789,-179.5,-26.827,-10.907,-8.08,29.51,-0.05511,-0.62466,0.07001,-0.77573,277,0.75,0.019,0.667,-1.038,-0.854,-0.061,1.241,-48.56,-123.547,-23.067,-10.36,-0.78,27.14,-0.43646,0.35635,0.20352,0.8006,275,0.594,0.019,0.794,-0.305,0.61,-0.061,1.318,-37.178,153.16,-15.887,-10.827,-29.527,31.59,-0.21234,-0.31619,0.0632,-0.92239,271,0.914,0.052,0.364,-0.183,-0.854,-0.061,7.471,-68.236,-159.175,-29.173,-12.647,-5.167,32.08,0.18582,-0.53986,-0.15433,-0.80627,279
70,0.997,-0.035,0.212,0.183,-0.122,-0.061,-10.728,-77.789,-179.528,-27.187,-10.867,-8.38,29.51,-0.05511,-0.62466,0.07001,-0.77573,286,0.753,0.018,0.667,-0.977,-0.916,0.0,1.225,-48.576,-123.563,-23.067,-10.36,-0.78,27.14,-0.43646,0.35635,0.20352,0.8006,280,0.599,0.023,0.798,-1.831,0.427,-0.427,1.291,-37.167,153.149,-15.887,-10.827,-29.527,31.59,-0.21234,-0.31619,0.0632,-0.92239,282,0.915,0.053,0.361,-0.183,-1.648,-0.061,7.482,-68.258,-159.175,-29.173,-12.647,-5.167,32.08,0.18582,-0.53986,-0.15433,-0.80627,294
71,0.997,-0.033,0.208,-0.061,-0.549,-0.061,-10.728,-77.8,-179.555,-27.187,-10.867,-8.38,29.51,-0.05511,-0.62466,0.07001,-0.77573,287,0.752,0.016,0.665,-0.183,-0.671,0.061,1.214,-48.587,-123.574,-23.067,-10.36,-0.78,27.14,-0.43646,0.35635,0.20352,0.8006,281,0.601,0.023,0.794,-1.587,0.183,-0.488,1.269,-37.161,153.116,-15.887,-10.827,-29.527,31.59,-0.21234,-0.31619,0.0632,-0.92239,283,0.917,0.053,0.365,0.0,-2.075,-0.183,7.498,-68.286,-159.181,-29.173,-12.647,-5.167,32.08,0.18582,-0.53986,-0.15433,-0.80627,295
72,0.997,-0.034,0.21,0.061,-0.549,-0.061,-10.723,-77.811,-179.555,-27.187,-10.867,-8.38,29.51,-0.05511,-0.62466,0.07001,-0.77573,290,0.753,0.016,0.66,0.0,-0.793,-0.061,1.214,-48.604,-123.585,-23.067,-10.36,-0.78,27.14,-0.43646,0.35635,0.20352,0.8006,284,0.602,0.021,0.791,0.244,0.244,-0.122,1.274,-37.156,153.094,-15.987,-10.687,-29.68,31.59,-0.21234,-0.31619,0.0632,-0.92239,288,0.918,0.051,0.369,0.0,-1.953,-0.244,7.526,-68.324,-159.219,-29.173,-12.647,-5.167,32.08,0.18582,-0.53986,-0.15433,-0.80627,296
73,1.0,-0.037,0.213,0.183,-0.549,0.061,-10.728,-77.822,-179.528,-27.187,-10.867,-8.38,29.51,-0.05511,-0.62466,0.07001,-0.77573,291,0.755,0.016,0.662,-0.488,-1.099,-0.244,1.214,-48.62,-123.607,-23.067,-10.36,-0.78,27.14,-0.43646,0.35635,0.20352,0.8006,285,0.603,0.02,0.789,0.305,0.427,-0.244,1.291,-37.15,153.078,-15.987,-10.687,-29.68,31.59,-0.21234,-0.31619,0.0632,-0.92239,289,0.917,0.051,0.361,-0.488,-1.587,-0.183,7.548,-68.357,-159.258,-29.173,-12.647,-5.167,32.08,0.18582,-0.53986,-0.15433,-0.80627,297
74,1.0,-0.039,0.214,0.0,-0.732,0.183,-10.745,-77.833,-179.484,-27.187,-10.867,-8.38,29.51,-0.05554,-0.62561,0.07019,-0.7749,300,0.755,0.016,0.663,-0.488,-1.282,-0.305,1.214,-48.642,-123.618,-23.067,-10.36,-0.78,27.14,-0.43646,0.35635,0.20352,0.8006,298,0.603,0.02,0.792,-0.244,0.916,-0.549,1.296,-37.128,153.073,-15.987,-10.687,-29.68,31.59,-0.21234,-0.31619,0.0632,-0.92239,292,0.915,0.05,0.363,-0.916,-1.404,-0.122,7.559,-68.384,-159.291,-29.173,-12.647,-5.167,32.08,0.18582,-0.53986,-0.15433,-0.80627,302
75,0.997,-0.039,0.21,-0.061,-0.488,0.0,-10.75,-77.844,-179.462,-27.187,-10.867,-8.38,29.51,-0.05554,-0.62561,0.07019,-0.7749,301,0.753,0.017,0.665,-0.61,-1.099,-0.427,1.214,-48.664,-123.635,-23.067,-10.36,-0.78,27.14,-0.43646,0.35635,0.20352,0.8006,299,0.598,0.021,0.796,0.0,1.16,-0.854,1.307,-37.106,153.062,-15.987,-10.687,-29.68,31.59,-0.21234,-0.31619,0.0632,-0.92239,293,0.916,0.05,0.367,-1.038,-1.282,0.0,7.559,-68.406,-159.313,-29.173,-12.647,-5.167,32.08,0.18582,-0.53986,-0.15433,-0.80627,303
76,0.996,-0.038,0.215,-0.183,-0.427,-0.061,-10.745,-77.849,-179.451,-27.187,-10.867,-8.38,29.51,-0.05554,-0.62561,0.07019,-0.7749,306,0.757,0.018,0.666,-0.977,-0.549,-0.427,1.208,-48.68,-123.662,-23.0,-10.3,-0.787,27.14,-0.43646,0.35635,0.20352,0.8006,304,0.601,0.022,0.794,0.244,0.427,-0.916,1.329,-37.101,153.051,-15.987,-10.687,-29.68,31.59,-0.21722,-0.31195,0.06354,-0.9227,308,0.919,0.05,0.371,-1.404,-1.526,0.122,7.548,-68.428,-159.324,-28.66,-13.087,-4.82,32.08,0.18582,-0.53986,-0.15433,-0.80627,314
77,0.995,-0.04,0.214,-0.305,-0.488,-0.061,-10.745,-77.86,-179.434,-27.187,-10.867,-8.38,29.51,-0.05554,-0.62561,0.07019,-0.7749,307,0.76,0.017,0.667,-1.221,-0.305,-0.366,1.198,-48.686,-123.69,-23.0,-10.3,-0.787,27.14,-0.43646,0.35635,0.20352,0.8006,305,0.606,0.024,0.794,0.122,0.0,-0.793,1.346,-37.101,153.018,-15.987,-10.687,-29.68,31.59,-0.21722,-0.31195,0.06354,-0.9227,309,0.925,0.046,0.365,-1.16,-1.282,0.183,7.526,-68.45,-159.324,-28.66,-13.087,-4.82,32.08,0.18582,-0.53986,-0.15433,-0.80627,315
78,1.002,-0.04,0.217,-0.61,-0.916,-0.122,-10.756,-77.877,-179.418,-27.187,-10.867,-8.38,29.51,-0.05554,-0.62561,0.07019,-0.7749,316,0.754,0.016,0.667,-1.221,-1.038,-0.305,1.187,-48.697,-123.717,-23.0,-10.3,-0.787,27.14,-0.43646,0.35635,0.20352,0.8006,310,0.6,0.021,0.798,0.244,0.61,-1.099,1.368,-37.084,152.968,-15.987,-10.687,-29.68,31.59,-0.21722,-0.31195,0.06354,-0.9227,312,0.922,0.044,0.359,-0.977,-1.038,0.305,7.504,-68.472,-159.324,-28.66,-13.087,-4.82,32.08,0.1842,-0.5426,-0.15393,-0.8049,318
79,1.004,-0.039,0.211,-0.732,-1.099,-0.122,-10.772,-77.893,-179.401,-27.187,-10.867,-8.38,29.51,-0.05554,-0.62561,0.07019,-0.7749,317,0.756,0.019,0.665,-1.587,-1.282,0.061,1.165,-48.719,-123.739,-23.0,-10.3,-0.787,27.14,-0.43646,0.35635,0.20352,0.8006,311,0.593,0.025,0.802,-0.488,0.793,-1.709,1.39,-37.068,152.919,-15.987,-10.687,-29.68,31.59,-0.21722,-0.31195,0.06354,-0.9227,313,0.917,0.043,0.353,-0.793,-1.404,0.61,7.476,-68.494,-159.313,-28.66,-13.087,-4.82,32.08,0.1842,-0.5426,-0.15393,-0.8049,319
80,1.0,-0.041,0.209,-0.793,-0.488,0.0,-10.794,-77.904,-179.379,-27.187,-10.867,-8.38,29.51,-0.05554,-0.62561,0.07019,-0.7749,322,0.761,0.014,0.663,-0.61,-0.305,0.916,1.137,-48.735,-123.739,-23.0,-10.3,-0.787,27.14,-0.43314,0.35934,0.20261,0.8013,320,0.602,0.036,0.798,-0.366,0.549,-0.793,1.395,-37.057,152.897,-15.987,-10.687,-29.68,31.59,-0.21722,-0.31195,0.06354,-0.9227,324,0.915,0.045,0.368,-0.488,-1.831,1.038,7.438,-68.522,-159.285,-28.66,-13.087,-4.82,32.08,0.1842,-0.5426,-0.15393,-0.8049,326
81,0.995,-0.045,0.209,-0.549,0.732,0.0,-10.789,-77.888,-179.379,-27.187,-10.867,-8.38,29.51,-0.05554,-0.62561,0.07019,-0.7749,323,0.759,0.011,0.666,0.305,0.244,1.221,1.11,-48.73,-123.728,-23.0,-10.3,-0.787,27.14,-0.43314,0.35934,0.20261,0.8013,321,0.598,0.024,0.793,0.916,0.549,0.549,1.412,-37.046,152.919,-15.987,-10.687,-29.68,31.59,-0.21722,-0.31195,0.06354,-0.9227,325,0.915,0.047,0.373,-0.061,-1.587,1.465,7.383,-68.555,-159.208,-28.66,-13.087,-4.82,32.08,0.1842,-0.5426,-0.15393,-0.8049,327
82,0.992,-0.042,0.218,-0.122,0.366,0.0,-10.789,-77.877,-179.379,-27.187,-10.867,-8.38,29.51,-0.05554,-0.62561,0.07019,-0.7749,332,0.747,0.02,0.664,0.977,-0.732,1.526,1.093,-48.735,-123.712,-23.0,-10.3,-0.787,27.14,-0.43314,0.35934,0.20261,0.8013,328,0.583,0.032,0.797,2.319,1.343,1.343,1.434,-37.029,152.974,-15.987,-10.687,-29.68,31.59,-0.21722,-0.31195,0.06354,-0.9227,334,0.92,0.045,0.36,-0.549,-1.16,1.465,7.311,-68.582,-159.109,-28.66,-13.087,-4.82,32.08,0.1842,-0.5426,-0.15393,-0.8049,338
83,0.997,-0.042,0.217,-0.183,-0.122,0.305,-10.822,-77.877,-179.335,-27.187,-10.867,-8.38,29.51,-0.05554,-0.62561,0.07019,-0.7749,333,0.743,0.016,0.665,0.427,-1.526,1.709,1.077,-48.757,-123.684,-23.0,-10.3,-0.787,27.14,-0.43314,0.35934,0.20261,0.8013,329,0.592,0.018,0.799,0.916,0.732,1.221,1.456,-37.007,153.023,-15.987,-10.687,-29.68,31.59,-0.21722,-0.31195,0.06354,-0.9227,335,0.919,0.042,0.357,-1.282,-0.732,1.038,7.234,-68.599,-159.038,-28.66,-13.087,-4.82,32.08,0.1842,-0.5426,-0.15393,-0.8049,339
84,0.996,-0.038,0.208,-0.61,-0.793,0.366,-10.876,-77.893,-179.275,-27.187,-10.867,-8.38,29.51,-0.05554,-0.62561,0.07019,-0.7749,340,0.754,0.004,0.667,-0.183,-0.793,1.526,1.044,-48.779,-123.651,-23.0,-10.3,-0.787,27.14,-0.43314,0.35934,0.20261,0.8013,330,0.602,0.011,0.792,-0.549,0.732,0.854,1.456,-36.991,153.062,-15.987,-10.687,-29.68,31.59,-0.21722,-0.31195,0.06354,-0.9227,336,0.916,0.045,0.361,-0.916,-0.061,0.854,7.169,-68.604,-158.961,-28.66,-13.087,-4.82,32.08,0.1842,-0.5426,-0.15393,-0.8049,342
85,0.997,-0.04,0.213,-0.488,-0.549,0.0,-10.898,-77.899,-179.258,-27.187,-10.867,-8.38,29.51,-0.05554,-0.62561,0.07019,-0.7749,341,0.758,0.005,0.662,-0.183,0.488,1.465,1.011,-48.779,-123.624,-23.0,-10.3,-0.787,27.14,-0.43314,0.35934,0.20261,0.8013,331,0.598,0.02,0.79,0.854,1.221,0.916,1.439,-36.969,153.083,-15.987,-10.687,-29.68,31.59,-0.21722,-0.31195,0.06354,-0.9227,337,0.915,0.048,0.36,-0.61,0.183,0.916,7.108,-68.599,-158.89,-28.66,-13.087,-4.82,32.08,0.1842,-0.5426,-0.15393,-0.8049,343
86,0.995,-0.038,0.214,-0.244,-0.488,-0.122,-10.893,-77.91,-179.247,-27.187,-10.867,-8.38,29.51,-0.05554,-0.62561,0.07019,-0.7749,346,0.75,0.012,0.656,0.671,0.427,1.465,0.983,-48.768,-123.585,-23.0,-10.3,-0.787,27.14,-0.43314,0.35934,0.20261,0.8013,344,0.589,0.024,0.791,1.526,1.892,1.099,1.445,-36.942,153.1,-15.987,-10.687,-29.68,31.59,-0.21722,-0.31195,0.06354,-0.9227,348,0.914,0.044,0.362,-0.549,0.183,0.916,7.053,-68.593,-158.824,-28.66,-13.087,-4.82,32.08,0.1842,-0.5426,-0.15393,-0.8049,350
87,0.996,-0.037,0.212,-0.305,-0.427,0.061,-10.909,-77.915,-179.225,-27.187,-10.867,-8.38,29.51,-0.05554,-0.62561,0.07019,-0.7749,347,0.745,0.015,0.66,0.488,0.0,1.343,0.961,-48.763,-123.552,-23.0,-10.3,-0.787,27.14,-0.43314,0.35934,0.20261,0.8013,345,0.588,0.021,0.793,-0.671,2.014,0.366,1.456,-36.903,153.094,-15.987,-10.687,-29.68,31.59,-0.21722,-0.31195,0.06354,-0.9227,349,0.919,0.043,0.356,-1.221,-0.427,0.549,7.004,-68.599,-158.752,-28.66,-13.087,-4.82,32.08,0.1842,-0.5426,-0.15393,-0.8049,351
88,0.997,-0.035,0.208,-0.793,-0.732,0.183,-10.948,-77.926,-179.187,-27.187,-10.867,-8.38,29.51,-0.05554,-0.62561,0.07019,-0.7749,354,0.75,0.014,0.665,-1.953,0.427,1.343,0.917,-48.757,-123.519,-23.0,-10.3,-0.787,27.14,-0.43314,0.35934,0.20261,0.8013,352,0.595,0.024,0.799,-3.113,1.465,-0.61,1.428,-36.87,153.073,-15.987,-10.687,-29.68,31.59,-0.21722,-0.31195,0.06354,-0.9227,356,0.924,0.046,0.356,-1.526,-0.793,0.305,6.96,-68.604,-158.687,-28.66,-13.087,-4.82,32.08,0.1842,-0.5426,-0.15393,-0.8049,362
89,1.0,-0.036,0.21,-1.16,-0.671,0.0,-10.975,-77.937,-179.16,-27.187,-10.867,-8.38,29.51,-0.05554,-0.62561,0.07019,-0.7749,355,0.758,0.008,0.658,-2.869,0.732,1.709,0.84,-48.746,-123.475,-23.0,-10.3,-0.787,27.14,-0.43314,0.35934,0.20261,0.8013,353,0.603,0.023,0.794,-2.014,0.732,0.0,1.379,-36.843,153.04,-15.987,-10.687,-29.68,31.59,-0.21722,-0.31195,0.06354,-0.9227,357,0.924,0.046,0.35,-1.404,-1.16,0.61,6.916,-68.626,-158.643,-28.66,-13.087,-4.82,32.08,0.1842,-0.5426,-0.15393,-0.8049,363
90,1.001,-0.036,0.205,-1.465,-0.977,-0.427,-10.975,-77.953,-179.165,-27.247,-11.167,-7.66,29.51,-0.05554,-0.62561,0.07019,-0.7749,364,0.759,0.006,0.653,-1.343,0.671,1.709,0.764,-48.73,-123.42,-23.0,-10.3,-0.787,27.14,-0.43314,0.35934,0.20261,0.8013,358,0.599,0.018,0.791,0.122,-0.244,1.038,1.346,-36.832,153.045,-14.887,-12.0,-28.947,31.59,-0.21722,-0.31195,0.06354,-0.9227,360,0.922,0.042,0.356,-0.549,-0.61,0.549,6.877,-68.643,-158.588,-28.66,-13.087,-4.82,32.08,0.1842,-0.5426,-0.15393,-0.8049,366
91,1.006,-0.039,0.209,-1.282,-0.732,-0.488,-10.959,-77.97,-179.187,-27.247,-11.167,-7.66,29.51,-0.05554,-0.62561,0.07019,-0.7749,365,0.754,0.006,0.653,-0.122,0.488,1.282,0.714,-48.719,-123.376,-23.0,-10.3,-0.787,27.14,-0.43314,0.35934,0.20261,0.8013,359,0.597,0.014,0.791,-0.488,-0.244,0.549,1.335,-36.837,153.073,-14.887,-12.0,-28.947,31.59,-0.21722,-0.31195,0.06354,-0.9227,361,0.921,0.039,0.344,0.183,-0.854,0.122,6.866,-68.654,-158.56,-28.66,-13.087,-4.82,32.08,0.1842,-0.5426,-0.15393,-0.8049,367
92,1.011,-0.042,0.203,-1.099,-1.038,-0.305,-10.964,-77.992,-179.193,-27.247,-11.167,-7.66,29.51,-0.05554,-0.62561,0.07019,-0.7749,376,0.755,0.002,0.656,-0.061,0.122,1.16,0.687,-48.719,-123.344,-23.0,-10.3,-0.787,27.14,-0.43314,0.35934,0.20261,0.8013,368,0.602,0.016,0.788,-1.282,0.549,0.244,1.318,-36.837,153.094,-14.887,-12.0,-28.947,31.59,-0.21722,-0.31195,0.06354,-0.9227,370,0.923,0.048,0.341,0.488,-1.343,0.0,6.877,-68.681,-158.527,-29.187,-12.287,-4.407,32.08,0.1842,-0.5426,-0.15393,-0.8049,372
93,1.006,-0.042,0.198,-0.366,-1.099,0.061,-10.992,-78.014,-179.187,-27.247,-11.167,-7.66,29.51,-0.05554,-0.62561,0.07019,-0.7749,377,0.759,0.005,0.654,-0.671,0.732,1.038,0.654,-48.708,-123.316,-23.0,-10.3,-0.787,27.14,-0.43314,0.35934,0.20261,0.8013,369,0.603,0.017,0.789,-2.258,0.977,0.122,1.285,-36.826,153.116,-14.887,-12.0,-28.947,31.59,-0.21722,-0.31195,0.06354,-0.9227,371,0.915,0.051,0.348,-0.671,-1.404,0.0,6.894,-68.708,-158.505,-29.187,-12.287,-4.407,32.08,0.1842,-0.5426,-0.15393,-0.8049,373
94,1.0,-0.037,0.198,0.183,-1.16,0.366,-11.041,-78.036,-179.154,-27.247,-11.167,-7.66,29.51,-0.05481,-0.62711,0.07004,-0.77377,390,0.756,0.01,0.647,-0.732,0.244,0.549,0.626,-48.702,-123.3,-23.1,-9.713,-0.98,27.14,-0.43314,0.35934,0.20261,0.8013,374,0.594,0.019,0.789,-0.977,1.709,-0.122,1.247,-36.81,153.144,-14.887,-12.0,-28.947,31.59,-0.21704,-0.30975,0.06296,-0.92352,380,0.909,0.048,0.357,-1.709,-1.587,0.366,6.877,-68.741,-158.489,-29.187,-12.287,-4.407,32.08,0.1842,-0.5426,-0.15393,-0.8049,384
95,0.989,-0.036,0.204,0.061,-1.038,0.244,-11.074,-78.058,-179.143,-27.247,-11.167,-7.66,29.51,-0.05481,-0.62711,0.07004,-0.77377,391,0.745,0.014,0.656,0.0,-0.488,-0.061,0.621,-48.713,-123.3,-23.1,-9.713,-0.98,27.14,-0.43314,0.35934,0.20261,0.8013,375,0.582,0.021,0.795,0.793,2.197,-0.732,1.241,-36.777,153.166,-14.887,-12.0,-28.947,31.59,-0.21704,-0.30975,0.06296,-0.92352,381,0.912,0.047,0.354,-2.258,-1.892,0.488,6.833,-68.774,-158.483,-29.187,-12.287,-4.407,32.08,0.1842,-0.5426,-0.15393,-0.8049,385
96,0.995,-0.037,0.208,-0.366,-1.404,0.061,-11.107,-78.091,-179.154,-27.247,-11.167,-7.66,29.51,-0.05481,-0.62711,0.07004,-0.77377,398,0.739,0.012,0.66,0.122,-1.221,-0.488,0.632,-48.735,-123.311,-23.1,-9.713,-0.98,27.14,-0.43314,0.35934,0.20261,0.8013,378,0.579,0.018,0.798,-0.854,1.526,-1.709,1.263,-36.738,153.16,-14.887,-12.0,-28.947,31.59,-0.21704,-0.30975,0.06296,-0.92352,382,0.922,0.044,0.345,-2.258,-2.502,0.0,6.795,-68.818,-158.483,-29.187,-12.287,-4.407,32.08,0.18692,-0.54453,-0.15369,-0.80301,386
97,0.999,-0.03,0.201,-0.61,-1.953,0.183,-11.162,-78.129,-179.143,-27.247,-11.167,-7.66,29.51,-0.05481,-0.62711,0.07004,-0.77377,399,0.75,0.005,0.658,-0.854,-1.953,-0.61,0.637,-48.774,-123.327,-23.1,-9.713,-0.98,27.14,-0.43314,0.35934,0.20261,0.8013,379,0.597,0.011,0.794,-4.028,1.099,-2.441,1.263,-36.711,153.133,-14.887,-12.0,-28.947,31.59,-0.21704,-0.30975,0.06296,-0.92352,383,0.923,0.04,0.353,-1.953,-2.197,-0.305,6.784,-68.868,-158.516,-29.187,-12.287,-4.407,32.08,0.18692,-0.54453,-0.15369,-0.80301,387
98,1.002,-0.037,0.205,-0.488,-1.709,0.183,-11.206,-78.162,-179.132,-27.247,-11.167,-7.66,29.51,-0.05481,-0.62711,0.07004,-0.77377,408,0.76,0.0,0.654,-2.136,-2.258,-0.61,0.615,-48.818,-123.349,-23.1,-9.713,-0.98,27.14,-0.43427,0.36099,0.20044,0.80051,388,0.598,0.018,0.795,-3.662,1.343,-1.77,1.214,-36.689,153.094,-14.887,-12.0,-28.947,31.59,-0.21704,-0.30975,0.06296,-0.92352,394,0.922,0.039,0.354,-1.465,-2.014,-0.305,6.784,-68.906,-158.549,-29.187,-12.287,-4.407,32.08,0.18692,-0.54453,-0.15369,-0.80301,402
99,1.0,-0.041,0.207,-0.427,-1.099,0.061,-11.234,-78.184,-179.149,-27.247,-11.167,-7.66,29.51,-0.05481,-0.62711,0.07004,-0.77377,409,0.756,0.003,0.662,-1.648,-1.587,-0.427,0.593,-48.851,-123.36,-23.1,-9.713,-0.98,27.14,-0.43427,0.36099,0.20044,0.80051,389,0.59,0.015,0.81,-2.563,-1.221,-1.16,1.176,-36.672,153.062,-14.887,-12.0,-28.947,31.59,-0.21704,-0.30975,0.06296,-0.92352,395,0.924,0.041,0.354,-0.916,-2.136,-0.183,6.795,-68.95,-158.582,-29.187,-12.287,-4.407,32.08,0.18692,-0.54453,-0.15369,-0.80301,403
100,1.001,-0.041,0.203,-0.061,-0.549,0.0,-11.228,-78.19,-179.182,-27.247,-11.167,-7.66,29.51,-0.05481,-0.62711,0.07004,-0.77377,410,0.756,0.005,0.667,-0.854,-1.465,-0.488,0.582,-48.878,-123.382,-23.1,-9.713,-0.98,27.14,-0.43427,0.36099,0.20044,0.80051,392,0.596,0.016,0.803,-2.502,-2.319,-1.343,1.143,-36.7,153.023,-14.887,-12.0,-28.947,31.59,-0.21704,-0.30975,0.06296,-0.92352,396,0.927,0.038,0.354,-0.61,-2.258,0.0,6.795,-68.989,-158.599,-29.187,-12.287,-4.407,32.08,0.18692,-0.54453,-0.15369,-0.80301,404
101,1.001,-0.048,0.202,-0.244,-0.854,0.122,-11.239,-78.201,-179.198,-27.247,-11.167,-7.66,29.51,-0.05481,-0.62711,0.07004,-0.77377,411,0.761,0.006,0.661,-0.916,-1.587,-0.549,0.577,-48.911,-123.409,-23.1,-9.713,-0.98,27.14,-0.43427,0.36099,0.20044,0.80051,393,0.602,0.019,0.793,-3.113,-1.648,-1.282,1.11,-36.744,153.007,-14.887,-12.0,-28.947,31.59,-0.21704,-0.30975,0.06296,-0.92352,397,0.928,0.035,0.349,-0.427,-2.258,0.061,6.801,-69.033,-158.604,-29.187,-12.287,-4.407,32.08,0.18692,-0.54453,-0.15369,-0.80301,405
102,1.002,-0.05,0.203,-0.122,-0.793,0.183,-11.266,-78.217,-179.209,-27.247,-11.167,-7.66,29.51,-0.05481,-0.62711,0.07004,-0.77377,422,0.766,0.003,0.659,-1.221,-1.282,-0.244,0.56,-48.933,-123.437,-23.1,-9.713,-0.98,27.14,-0.43427,0.36099,0.20044,0.80051,416,0.601,0.02,0.791,-3.174,-0.854,-0.732,1.066,-36.771,153.001,-14.887,-12.0,-28.947,31.59,-0.21704,-0.30975,0.06296,-0.92352,400,0.922,0.037,0.35,-0.183,-1.953,0.305,6.795,-69.077,-158.593,-29.187,-12.287,-4.407,32.08,0.18692,-0.54453,-0.15369,-0.80301,406
103,1.0,-0.045,0.204,0.122,-0.671,0.305,-11.305,-78.234,-179.198,-27.247,-11.167,-7.66,29.51,-0.05481,-0.62711,0.07004,-0.77377,423,0.761,0.004,0.657,-1.038,-0.671,0.0,0.544,-48.95,-123.453,-23.1,-9.713,-0.98,27.14,-0.43427,0.36099,0.20044,0.80051,417,0.592,0.018,0.799,-2.502,0.061,-0.244,1.016,-36.782,153.001,-14.887,-12.0,-28.947,31.59,-0.21704,-0.30975,0.06296,-0.92352,401,0.922,0.039,0.347,-0.671,-1.77,0.671,6.762,-69.109,-158.544,-29.187,-12.287,-4.407,32.08,0.18692,-0.54453,-0.15369,-0.80301,407
104,1.006,-0.043,0.205,0.183,-0.366,0.366,-11.349,-78.245,-179.198,-27.247,-11.167,-7.66,29.51,-0.05481,-0.62711,0.07004,-0.77377,424,0.753,0.007,0.66,-0.977,-0.488,0.183,0.516,-48.961,-123.453,-23.1,-9.713,-0.98,27.14,-0.43427,0.36099,0.20044,0.80051,418,0.591,0.014,0.806,-2.197,-0.61,-0.244,0.978,-36.788,152.996,-14.887,-12.0,-28.947,31.59,-0.21704,-0.30975,0.06296,-0.92352,412,0.923,0.036,0.348,-0.977,-1.953,0.854,6.707,-69.148,-158.467,-29.187,-12.287,-4.407,32.08,0.18692,-0.54453,-0.15369,-0.80301,414
105,1.003,-0.042,0.205,0.305,-0.549,0.183,-11.393,-78.25,-179.182,-27.247,-11.167,-7.66,29.51,-0.05481,-0.62711,0.07004,-0.77377,425,0.754,0.004,0.656,-1.099,-0.977,0.183,0.494,-48.977,-123.453,-23.1,-9.713,-0.98,27.14,-0.43427,0.36099,0.20044,0.80051,419,0.598,0.006,0.798,-3.174,-1.221,-0.916,0.939,-36.799,152.996,-14.887,-12.0,-28.947,31.59,-0.21704,-0.30975,0.06296,-0.92352,413,0.922,0.037,0.346,-0.916,-1.953,0.61,6.663,-69.186,-158.406,-29.187,-12.287,-4.407,32.08,0.18692,-0.54453,-0.15369,-0.80301,415
106,0.997,-0.039,0.206,0.305,-0.183,-0.061,-11.409,-78.256,-179.187,-27.247,-11.167,-7.66,29.51,-0.05481,-0.62711,0.07004,-0.77377,428,0.759,-0.004,0.652,-1.16,-1.709,0.0,0.467,-49.01,-123.448,-23.1,-9.713,-0.98,27.14,-0.43427,0.36099,0.20044,0.80051,420,0.599,0.005,0.788,-3.296,-0.977,-0.61,0.89,-36.821,152.99,-14.887,-12.0,-28.947,31.59,-0.21704,-0.30975,0.06296,-0.92352,426,0.924,0.039,0.355,-0.244,-1.831,0.061,6.652,-69.225,-158.373,-29.187,-12.287,-4.407,32.08,0.18692,-0.54453,-0.15369,-0.80301,432
107,0.996,-0.037,0.208,-0.061,-0.366,-0.122,-11.404,-78.261,-179.22,-27.247,-11.167,-7.66,29.51,-0.05481,-0.62711,0.07004,-0.77377,429,0.76,-0.008,0.654,-0.916,-1.709,0.0,0.445,-49.043,-123.448,-23.1,-9.713,-0.98,27.14,-0.43427,0.36099,0.20044,0.80051,421,0.597,0.006,0.783,-1.709,1.465,0.183,0.84,-36.826,152.979,-14.887,-12.0,-28.947,31.59,-0.21704,-0.30975,0.06296,-0.92352,427,0.92,0.04,0.345,-0.244,-1.282,-0.183,6.663,-69.252,-158.362,-29.187,-12.287,-4.407,32.08,0.18692,-0.54453,-0.15369,-0.80301,433
108,0.991,-0.036,0.201,-0.244,-0.549,-0.061,-11.404,-78.267,-179.22,-27.247,-11.167,-7.66,29.51,-0.05481,-0.62711,0.07004,-0.77377,436,0.76,-0.002,0.651,-0.122,-1.404,0.0,0.439,-49.07,-123.448,-23.1,-9.713,-0.98,27.14,-0.43427,0.36099,0.20044,0.80051,434,0.597,0.007,0.788,-0.122,2.747,0.366,0.807,-36.793,152.979,-14.887,-12.0,-28.947,31.59,-0.21704,-0.30975,0.06296,-0.92352,430,0.919,0.04,0.339,-0.427,-0.977,-0.427,6.674,-69.269,-158.362,-29.187,-12.287,-4.407,32.08,0.18692,-0.54453,-0.15369,-0.80301,438
109,1.0,-0.039,0.204,-0.061,-0.183,-0.244,-11.404,-78.278,-179.214,-27.247,-11.167,-7.66,29.51,-0.05481,-0.62711,0.07004,-0.77377,437,0.756,0.0,0.65,0.366,-0.916,-0.061,0.439,-49.092,-123.442,-23.1,-9.713,-0.98,27.14,-0.43427,0.36099,0.20044,0.80051,435,0.586,0.004,0.793,-0.244,3.174,-0.061,0.802,-36.738,152.996,-14.887,-12.0,-28.947,31.59,-0.21704,-0.30975,0.06296,-0.92352,431,0.919,0.039,0.347,-0.305,-0.732,-0.61,6.702,-69.285,-158.384,-29.187,-12.287,-4.407,32.08,0.18692,-0.54453,-0.15369,-0.80301,439
110,1.002,-0.041,0.205,0.061,-0.305,-0.305,-11.376,-78.283,-179.231,-27.247,-11.167,-7.66,29.51,-0.05481,-0.62711,0.07004,-0.77377,442,0.751,0.0,0.655,-0.122,-0.732,-0.366,0.439,-49.109,-123.453,-23.1,-9.713,-0.98,27.14,-0.43427,0.36099,0.20044,0.80051,440,0.586,0.009,0.805,-1.953,1.892,-0.305,0.786,-36.683,153.001,-14.887,-12.0,-28.947,31.59,-0.21704,-0.30975,0.06296,-0.92352,444,0.924,0.04,0.349,-0.183,-0.854,-0.549,6.729,-69.296,-158.406,-29.187,-12.287,-4.407,32.08,0.18692,-0.54453,-0.15369,-0.80301,446
111,1.003,-0.041,0.202,-0.061,-0.183,-0.183,-11.354,-78.289,-179.253,-27.247,-11.167,-7.66,29.51,-0.05481,-0.62711,0.07004,-0.77377,443,0.757,0.005,0.661,-0.366,-0.916,-0.305,0.439,-49.125,-123.47,-23.1,-9.713,-0.98,27.14,-0.43427,0.36099,0.20044,0.80051,441,0.595,0.014,0.8,-1.77,0.977,-0.183,0.753,-36.65,152.996,-14.887,-12.0,-28.947,31.59,-0.21704,-0.30975,0.06296,-0.92352,445,0.932,0.041,0.347,0.183,-1.221,-0.366,6.757,-69.318,-158.428,-29.187,-12.287,-4.407,32.08,0.18692,-0.54453,-0.15369,-0.80301,447
112,1.006,-0.04,0.202,-0.183,-0.305,-0.061,-11.343,-78.294,-179.231,-27.247,-11.167,-7.66,29.51,-0.05481,-0.62711,0.07004,-0.77377,450,0.765,0.008,0.654,-0.427,-0.916,-0.183,0.434,-49.147,-123.481,-23.433,-9.88,-0.667,27.14,-0.43427,0.36099,0.20044,0.80051,448,0.601,0.015,0.795,-1.099,2.38,-0.244,0.725,-36.628,152.99,-15.813,-11.147,-29.66,31.59,-0.21704,-0.30975,0.06296,-0.92352,452,0.93,0.041,0.342,0.0,-0.977,-0.244,6.773,-69.335,-158.445,-29.187,-12.287,-4.407,32.08,0.18692,-0.54453,-0.15369,-0.80301,456
113,1.002,-0.039,0.2,-0.244,-0.427,-0.122,-11.343,-78.3,-179.203,-27.247,-11.167,-7.66,29.51,-0.05481,-0.62711,0.07004,-0.77377,451,0.768,0.006,0.652,-0.244,-1.038,-0.061,0.428,-49.164,-123.492,-23.433,-9.88,-0.667,27.14,-0.43427,0.36099,0.20044,0.80051,449,0.596,0.011,0.8,-0.671,1.892,-0.061,0.709,-36.584,153.001,-15.813,-11.147,-29.66,31.59,-0.21704,-0.30975,0.06296,-0.92352,453,0.923,0.042,0.345,-0.366,-0.732,-0.244,6.784,-69.351,-158.439,-29.187,-12.287,-4.407,32.08,0.18692,-0.54453,-0.15369,-0.80301,457
114,1.001,-0.042,0.203,-0.244,-0.305,-0.183,-11.343,-78.305,-179.203,-27.28,-10.98,-7.48,29.51,-0.05481,-0.62711,0.07004,-0.77377,460,0.761,0.004,0.654,-0.183,-0.977,-0.183,0.423,-49.186,-123.503,-23.433,-9.88,-0.667,27.14,-0.43427,0.36099,0.20044,0.80051,458,0.59,0.009,0.803,-0.061,0.916,-0.244,0.698,-36.552,153.018,-15.813,-11.147,-29.66,31.59,-0.21704,-0.30975,0.06296,-0.92352,454,0.924,0.039,0.346,-0.671,-0.793,-0.183,6.79,-69.368,-158.439,-29.613,-12.16,-4.4,32.08,0.18692,-0.54453,-0.15369,-0.80301,462
115,0.996,-0.043,0.203,0.061,-0.244,-0.183,-11.332,-78.311,-179.193,-27.28,-10.98,-7.48,29.51,-0.05481,-0.62711,0.07004,-0.77377,461,0.758,0.003,0.658,0.0,-1.099,-0.366,0.428,-49.208,-123.514,-23.433,-9.88,-0.667,27.14,-0.43427,0.36099,0.20044,0.80051,459,0.589,0.01,0.803,-0.183,1.099,-0.366,0.703,-36.535,153.029,-15.813,-11.147,-29.66,31.59,-0.21704,-0.30975,0.06296,-0.92352,455,0.92,0.037,0.345,-0.366,-0.854,-0.244,6.795,-69.379,-158.45,-29.613,-12.16,-4.4,32.08,0.18692,-0.54453,-0.15369,-0.80301,463
116,0.996,-0.04,0.205,0.244,-0.061,-0.122,-11.316,-78.316,-179.209,-27.28,-10.98,-7.48,29.51,-0.05698,-0.62888,0.07214,-0.77197,466,0.759,0.003,0.655,-0.061,-1.16,-0.244,0.434,-49.23,-123.53,-23.433,-9.88,-0.667,27.14,-0.43161,0.36511,0.19998,0.8002,464,0.588,0.009,0.807,-1.16,-0.244,-0.488,0.703,-36.519,153.034,-15.813,-11.147,-29.66,31.59,-0.21951,-0.30612,0.06735,-0.92383,472,0.925,0.042,0.349,-0.061,-0.732,-0.183,6.806,-69.395,-158.45,-29.613,-12.16,-4.4,32.08,0.18692,-0.54453,-0.15369,-0.80301,468
117,0.999,-0.035,0.202,0.0,-0.366,0.0,-11.31,-78.322,-179.236,-27.28,-10.98,-7.48,29.51,-0.05698,-0.62888,0.07214,-0.77197,467,0.759,0.003,0.661,-0.549,-1.099,-0.061,0.428,-49.252,-123.547,-23.433,-9.88,-0.667,27.14,-0.43161,0.36511,0.19998,0.8002,465,0.591,0.009,0.808,-2.258,-2.258,-0.488,0.681,-36.535,153.045,-15.813,-11.147,-29.66,31.59,-0.21951,-0.30612,0.06735,-0.92383,473,0.924,0.042,0.342,-0.122,-0.854,-0.122,6.812,-69.412,-158.445,-29.613,-12.16,-4.4,32.08,0.18692,-0.54453,-0.15369,-0.80301,469
118,1.004,-0.041,0.203,-0.244,-0.305,-0.122,-11.31,-78.327,-179.22,-27.28,-10.98,-7.48,29.51,-0.05698,-0.62888,0.07214,-0.77197,476,0.764,0.006,0.658,0.0,-1.16,-0.122,0.423,-49.274,-123.558,-23.433,-9.88,-0.667,27.14,-0.43161,0.36511,0.19998,0.8002,470,0.595,0.018,0.795,-0.854,-2.502,0.122,0.648,-36.579,153.051,-15.813,-11.147,-29.66,31.59,-0.21951,-0.30612,0.06735,-0.92383,474,0.927,0.041,0.343,0.0,-0.854,0.061,6.812,-69.428,-158.428,-29.613,-12.16,-4.4,32.08,0.18665,-0.54916,-0.15424,-0.7998,480
119,1.005,-0.04,0.202,-0.122,-0.366,-0.122,-11.305,-78.333,-179.225,-27.28,-10.98,-7.48,29.51,-0.05698,-0.62888,0.07214,-0.77197,477,0.762,0.009,0.649,0.305,-0.671,0.0,0.428,-49.29,-123.563,-23.433,-9.88,-0.667,27.14,-0.43161,0.36511,0.19998,0.8002,471,0.598,0.014,0.791,-0.549,-1.16,0.183,0.632,-36.623,153.062,-15.813,-11.147,-29.66,31.59,-0.21951,-0.30612,0.06735,-0.92383,475,0.925,0.042,0.342,-0.183,-0.732,0.0,6.812,-69.439,-158.406,-29.613,-12.16,-4.4,32.08,0.18665,-0.54916,-0.15424,-0.7998,481
120,0.999,-0.039,0.201,-0.183,-0.305,-0.061,-11.305,-78.338,-179.214,-27.28,-10.98,-7.48,29.51,-0.05698,-0.62888,0.07214,-0.77197,484,0.765,0.006,0.646,0.122,-0.854,0.122,0.434,-49.301,-123.569,-23.433,-9.88,-0.667,27.14,-0.43161,0.36511,0.19998,0.8002,482,0.595,0.007,0.786,-1.709,0.122,-0.122,0.621,-36.639,153.078,-15.813,-11.147,-29.66,31.59,-0.21951,-0.30612,0.06735,-0.92383,478,0.924,0.042,0.345,-0.671,-0.793,-0.061,6.806,-69.456,-158.406,-29.613,-12.16,-4.4,32.08,0.18665,-0.54916,-0.15424,-0.7998,486
121,1.0,-0.038,0.2,-0.305,0.0,-0.061,-11.305,-78.344,-179.203,-27.28,-10.98,-7.48,29.51,-0.05698,-0.62888,0.07214,-0.77197,485,0.76,0.001,0.649,-0.671,-0.488,0.0,0.423,-49.318,-123.574,-23.433,-9.88,-0.667,27.14,-0.43161,0.36511,0.19998,0.8002,483,0.591,0.006,0.796,-2.319,1.343,-0.427,0.588,-36.628,153.078,-15.813,-11.147,-29.66,31.59,-0.21951,-0.30612,0.06735,-0.92383,479,0.927,0.042,0.338,-0.916,-0.793,0.0,6.795,-69.472,-158.412,-29.613,-12.16,-4.4,32.08,0.18665,-0.54916,-0.15424,-0.7998,487
122,0.998,-0.039,0.201,-0.244,-0.122,0.0,-11.305,-78.344,-179.198,-27.28,-10.98,-7.48,29.51,-0.05698,-0.62888,0.07214,-0.77197,490,0.763,0.005,0.654,-0.977,-0.366,-0.122,0.406,-49.323,-123.58,-23.433,-9.88,-0.667,27.14,-0.43161,0.36511,0.19998,0.8002,488,0.597,0.013,0.808,-2.808,-0.732,-0.366,0.544,-36.617,153.073,-15.813,-11.147,-29.66,31.59,-0.21951,-0.30612,0.06735,-0.92383,492,0.923,0.042,0.344,-0.732,-0.793,0.183,6.779,-69.489,-158.417,-29.613,-12.16,-4.4,32.08,0.18665,-0.54916,-0.15424,-0.7998,500
123,0.999,-0.039,0.203,-0.122,-0.122,-0.061,-11.305,-78.349,-179.182,-27.28,-10.98,-7.48,29.51,-0.05698,-0.62888,0.07214,-0.77197,491,0.768,0.008,0.657,-0.549,-0.244,0.0,0.396,-49.329,-123.591,-23.433,-9.88,-0.667,27.14,-0.43161,0.36511,0.19998,0.8002,489,0.597,0.01,0.797,-0.61,-1.709,0.0,0.505,-36.634,153.067,-15.813,-11.147,-29.66,31.59,-0.21951,-0.30612,0.06735,-0.92383,493,0.925,0.042,0.346,-0.488,-0.61,0.183,6.762,-69.5,-158.423,-29.613,-12.16,-4.4,32.08,0.18665,-0.54916,-0.15424,-0.7998,501
124,1.001,-0.039,0.201,-0.244,-0.183,0.0,-11.305,-78.354,-179.176,-27.28,-10.98,-7.48,29.51,-0.05698,-0.62888,0.07214,-0.77197,496,0.76,0.003,0.652,-0.122,-0.244,0.0,0.39,-49.334,-123.602,-23.433,-9.88,-0.667,27.14,-0.43161,0.36511,0.19998,0.8002,494,0.592,0.001,0.797,0.122,-0.488,-0.122,0.505,-36.661,153.083,-15.813,-11.147,-29.66,31.59,-0.21951,-0.30612,0.06735,-0.92383,498,0.925,0.04,0.342,-0.427,-0.793,0.0,6.757,-69.516,-158.45,-29.613,-12.16,-4.4,32.08,0.18665,-0.54916,-0.15424,-0.7998,504
125,1.004,-0.038,0.2,-0.183,-0.427,-0.122,-11.305,-78.354,-179.16,-27.28,-10.98,-7.48,29.51,-0.05698,-0.62888,0.07214,-0.77197,497,0.761,-0.001,0.655,-0.183,-0.366,-0.305,0.39,-49.345,-123.618,-23.433,-9.88,-0.667,27.14,-0.43161,0.36511,0.19998,0.8002,495,0.595,0.0,0.794,-1.16,0.0,-0.793,0.505,-36.672,153.089,-15.813,-11.147,-29.66,31.59,-0.21951,-0.30612,0.06735,-0.92383,499,0.927,0.039,0.34,-0.305,-0.732,-0.183,6.768,-69.527,-158.472,-29.613,-12.16,-4.4,32.08,0.18665,-0.54916,-0.15424,-0.7998,505
126,1.001,-0.039,0.201,-0.183,-0.366,-0.122,-11.299,-78.365,-179.143,-27.28,-10.98,-7.48,29.51,-0.05698,-0.62888,0.07214,-0.77197,508,0.765,-0.002,0.648,-0.916,-0.061,-0.427,0.385,-49.345,-123.629,-23.433,-9.88,-0.667,27.14,-0.43161,0.36511,0.19998,0.8002,506,0.6,0.003,0.79,-1.648,0.122,-1.038,0.494,-36.672,153.078,-15.813,-11.147,-29.66,31.59,-0.21951,-0.30612,0.06735,-0.92383,502,0.927,0.04,0.338,-0.061,-0.793,-0.305,6.79,-69.543,-158.489,-29.613,-12.16,-4.4,32.08,0.18665,-0.54916,-0.15424,-0.7998,510
127,1.0,-0.039,0.202,-0.305,-0.122,0.0,-11.299,-78.371,-179.127,-27.28,-10.98,-7.48,29.51,-0.05698,-0.62888,0.07214,-0.77197,509,0.767,0.0,0.648,-1.343,0.061,-0.488,0.363,-49.345,-123.646,-23.433,-9.88,-0.667,27.14,-0.43161,0.36511,0.19998,0.8002,507,0.595,0.005,0.795,-1.953,0.916,-1.099,0.472,-36.667,153.062,-15.813,-11.147,-29.66,31.59,-0.21951,-0.30612,0.06735,-0.92383,503,0.926,0.042,0.341,0.0,-0.549,-0.305,6.806,-69.554,-158.511,-29.613,-12.16,-4.4,32.08,0.18665,-0.54916,-0.15424,-0.7998,511
128,1.002,-0.038,0.202,-0.122,-0.244,-0.061,-11.299,-78.376,-179.099,-27.28,-10.98,-7.48,29.51,-0.05698,-0.62888,0.07214,-0.77197,514,0.762,0.003,0.65,-1.282,0.122,-0.671,0.352,-49.345,-123.679,-23.433,-9.88,-0.667,27.14,-0.43161,0.36511,0.19998,0.8002,512,0.592,0.007,0.8,-1.465,0.305,-1.16,0.456,-36.65,153.023,-15.813,-11.147,-29.66,31.59,-0.21951,-0.30612,0.06735,-0.92383,516,0.926,0.041,0.34,-0.183,-0.305,-0.305,6.823,-69.56,-158.522,-29.613,-12.16,-4.4,32.08,0.18665,-0.54916,-0.15424,-0.7998,522
129,1.001,-0.041,0.2,-0.122,-0.122,-0.122,-11.294,-78.382,-179.099,-27.28,-10.98,-7.48,29.51,-0.05698,-0.62888,0.07214,-0.77197,515,0.761,0.002,0.651,-0.671,-0.183,-0.732,0.357,-49.351,-123.701,-23.433,-9.88,-0.667,27.14,-0.43161,0.36511,0.19998,0.8002,513,0.594,0.005,0.796,-0.244,0.0,-0.732,0.445,-36.645,152.968,-15.813,-11.147,-29.66,31.59,-0.21951,-0.30612,0.06735,-0.92383,517,0.925,0.037,0.338,-0.183,-0.183,-0.305,6.833,-69.56,-158.511,-29.613,-12.16,-4.4,32.08,0.18665,-0.54916,-0.15424,-0.7998,523
130,0.999,-0.042,0.2,-0.183,0.305,-0.122,-11.283,-78.382,-179.116,-27.28,-10.98,-7.48,29.51,-0.05698,-0.62888,0.07214,-0.77197,524,0.762,0.0,0.649,-0.122,-0.061,-0.732,0.368,-49.351,-123.717,-23.447,-9.567,-0.74,27.14,-0.43161,0.36511,0.19998,0.8002,518,0.593,0.006,0.793,-0.061,0.061,-0.549,0.45,-36.65,152.924,-15.347,-10.827,-30.38,31.59,-0.21951,-0.30612,0.06735,-0.92383,520,0.925,0.036,0.339,0.122,-0.122,-0.305,6.85,-69.565,-158.494,-29.293,-12.493,-3.767,32.08,0.18665,-0.54916,-0.15424,-0.7998,528
131,1.0,-0.046,0.201,-0.122,0.244,-0.122,-11.272,-78.376,-179.132,-27.28,-10.98,-7.48,29.51,-0.05698,-0.62888,0.07214,-0.77197,525,0.762,0.0,0.648,-0.122,0.0,-0.488,0.374,-49.356,-123.734,-23.447,-9.567,-0.74,27.14,-0.43161,0.36511,0.19998,0.8002,519,0.595,0.008,0.795,-0.122,0.122,-0.488,0.456,-36.65,152.869,-15.347,-10.827,-30.38,31.59,-0.21951,-0.30612,0.06735,-0.92383,521,0.925,0.035,0.342,0.427,0.0,-0.183,6.866,-69.565,-158.478,-29.293,-12.493,-3.767,32.08,0.18665,-0.54916,-0.15424,-0.7998,529
132,1.0,-0.043,0.197,0.244,0.0,-0.122,-11.255,-78.376,-179.132,-27.353,-10.807,-7.573,29.51,-0.05698,-0.62888,0.07214,-0.77197,532,0.763,0.002,0.651,0.0,0.0,-0.244,0.379,-49.356,-123.745,-23.447,-9.567,-0.74,27.14,-0.43161,0.36511,0.19998,0.8002,530,0.594,0.008,0.794,-0.183,0.61,-0.427,0.461,-36.645,152.831,-15.347,-10.827,-30.38,31.59,-0.21951,-0.30612,0.06735,-0.92383,526,0.927,0.038,0.337,0.427,0.0,-0.061,6.872,-69.565,-158.472,-29.293,-12.493,-3.767,32.08,0.18665,-0.54916,-0.15424,-0.7998,534
133,1.003,-0.039,0.203,0.671,0.122,0.0,-11.245,-78.376,-179.132,-27.353,-10.807,-7.573,29.51,-0.05698,-0.62888,0.07214,-0.77197,533,0.761,0.002,0.65,-0.122,0.061,-0.061,0.374,-49.356,-123.755,-23.447,-9.567,-0.74,27.14,-0.43161,0.36511,0.19998,0.8002,531,0.593,0.006,0.799,-0.671,0.916,-0.305,0.461,-36.634,152.814,-15.347,-10.827,-30.38,31.59,-0.21951,-0.30612,0.06735,-0.92383,527,0.926,0.044,0.343,0.488,0.061,-0.061,6.883,-69.565,-158.467,-29.293,-12.493,-3.767,32.08,0.18665,-0.54916,-0.15424,-0.7998,535
134,1.001,-0.034,0.199,0.488,0.061,0.061,-11.239,-78.376,-179.132,-27.353,-10.807,-7.573,29.51,-0.05698,-0.62888,0.07214,-0.77197,538,0.763,0.003,0.651,-0.305,0.0,0.0,0.368,-49.362,-123.761,-23.447,-9.567,-0.74,27.14,-0.4295,0.36682,0.19943,0.80069,536,0.594,0.009,0.797,-1.16,0.671,-0.244,0.45,-36.617,152.814,-15.347,-10.827,-30.38,31.59,-0.2218,-0.30637,0.0701,-0.923,540,0.928,0.044,0.337,0.183,0.122,0.0,6.883,-69.565,-158.467,-29.293,-12.493,-3.767,32.08,0.18674,-0.5502,-0.15479,-0.79895,546
135,1.003,-0.037,0.202,0.183,0.244,0.0,-11.234,-78.371,-179.154,-27.353,-10.807,-7.573,29.51,-0.05698,-0.62888,0.07214,-0.77197,539,0.764,0.008,0.652,-0.183,-0.061,0.0,0.363,-49.362,-123.761,-23.447,-9.567,-0.74,27.14,-0.4295,0.36682,0.19943,0.80069,537,0.593,0.011,0.803,0.061,0.549,-0.183,0.439,-36.606,152.82,-15.347,-10.827,-30.38,31.59,-0.2218,-0.30637,0.0701,-0.923,541,0.928,0.042,0.344,0.0,-0.061,0.0,6.883,-69.565,-158.472,-29.293,-12.493,-3.767,32.08,0.18674,-0.5502,-0.15479,-0.79895,547
136,1.003,-0.037,0.2,-0.122,0.0,0.0,-11.228,-78.371,-179.193,-27.353,-10.807,-7.573,29.51,-0.05621,-0.62933,0.07126,-0.77176,548,0.763,0.008,0.656,0.061,0.0,-0.061,0.363,-49.367,-123.761,-23.447,-9.567,-0.74,27.14,-0.4295,0.36682,0.19943,0.80069,542,0.593,0.007,0.8,0.854,-0.427,0.0,0.445,-36.601,152.82,-15.347,-10.827,-30.38,31.59,-0.2218,-0.30637,0.0701,-0.923,544,0.93,0.038,0.339,0.0,-0.366,-0.122,6.883,-69.576,-158.478,-29.293,-12.493,-3.767,32.08,0.18674,-0.5502,-0.15479,-0.79895,552
137,1.004,-0.041,0.201,-0.366,0.0,0.0,-11.228,-78.371,-179.22,-27.353,-10.807,-7.573,29.51,-0.05621,-0.62933,0.07126,-0.77176,549,0.765,0.0,0.65,0.427,-0.061,-0.061,0.374,-49.367,-123.761,-23.447,-9.567,-0.74,27.14,-0.4295,0.36682,0.19943,0.80069,543,0.599,0.006,0.793,2.502,-0.793,0.549,0.472,-36.612,152.831,-15.347,-10.827,-30.38,31.59,-0.2218,-0.30637,0.0701,-0.923,545,0.926,0.042,0.335,-0.183,0.0,-0.122,6.888,-69.582,-158.494,-29.293,-12.493,-3.767,32.08,0.18674,-0.5502,-0.15479,-0.79895,553
138,1.002,-0.039,0.201,-0.183,0.0,0.0,-11.234,-78.371,-179.264,-27.353,-10.807,-7.573,29.51,-0.05621,-0.62933,0.07126,-0.77176,556,0.768,0.001,0.648,0.305,0.0,0.061,0.379,-49.367,-123.766,-23.447,-9.567,-0.74,27.14,-0.4295,0.36682,0.19943,0.80069,554,0.595,0.006,0.791,1.282,1.465,0.366,0.511,-36.617,152.842,-15.347,-10.827,-30.38,31.59,-0.2218,-0.30637,0.0701,-0.923,550,0.921,0.044,0.34,-0.122,0.244,-0.061,6.888,-69.582,-158.527,-29.293,-12.493,-3.767,32.08,0.18674,-0.5502,-0.15479,-0.79895,558
139,1.0,-0.039,0.201,0.061,0.305,0.0,-11.228,-78.371,-179.302,-27.353,-10.807,-7.573,29.51,-0.05621,-0.62933,0.07126,-0.77176,557,0.762,0.002,0.646,0.0,0.305,0.183,0.374,-49.367,-123.772,-23.447,-9.567,-0.74,27.14,-0.4295,0.36682,0.19943,0.80069,555,0.588,0.008,0.81,-0.183,0.183,-0.183,0.522,-36.595,152.842,-15.347,-10.827,-30.38,31.59,-0.2218,-0.30637,0.0701,-0.923,551,0.923,0.043,0.334,-0.427,0.427,0.0,6.888,-69.576,-158.555,-29.293,-12.493,-3.767,32.08,0.18674,-0.5502,-0.15479,-0.79895,559
140,0.997,-0.038,0.201,-0.061,0.427,0.0,-11.217,-78.365,-179.363,-27.353,-10.807,-7.573,29.51,-0.05621,-0.62933,0.07126,-0.77176,562,0.76,0.004,0.651,0.061,0.0,0.0,0.374,-49.367,-123.783,-23.447,-9.567,-0.74,27.14,-0.4295,0.36682,0.19943,0.80069,560,0.592,0.012,0.778,2.014,1.831,0.366,0.533,-36.584,152.847,-15.347,-10.827,-30.38,31.59,-0.2218,-0.30637,0.0701,-0.923,564,0.921,0.041,0.336,-0.671,0.61,0.061,6.877,-69.571,-158.577,-29.293,-12.493,-3.767,32.08,0.18674,-0.5502,-0.15479,-0.79895,570
141,0.998,-0.038,0.199,-0.122,0.671,0.0,-11.206,-78.354,-179.434,-27.353,-10.807,-7.573,29.51,-0.05621,-0.62933,0.07126,-0.77176,563,0.762,0.007,0.643,0.244,0.061,0.0,0.379,-49.367,-123.783,-23.447,-9.567,-0.74,27.14,-0.4295,0.36682,0.19943,0.80069,561,0.588,0.008,0.786,2.075,7.324,-0.122,0.571,-36.524,152.864,-15.347,-10.827,-30.38,31.59,-0.2218,-0.30637,0.0701,-0.923,565,0.919,0.04,0.335,-0.793,0.671,0.0,6.855,-69.56,-158.571,-29.293,-12.493,-3.767,32.08,0.18674,-0.5502,-0.15479,-0.79895,571
142,0.997,-0.038,0.198,-0.122,0.732,0.0,-11.195,-78.344,-179.506,-27.353,-10.807,-7.573,29.51,-0.05621,-0.62933,0.07126,-0.77176,576,0.759,0.006,0.646,-0.183,-0.061,-0.061,0.374,-49.373,-123.788,-23.447,-9.567,-0.74,27.14,-0.4295,0.36682,0.19943,0.80069,566,0.576,0.009,0.805,0.916,8.24,-0.549,0.604,-36.376,152.864,-15.347,-10.827,-30.38,31.59,-0.2218,-0.30637,0.0701,-0.923,568,0.921,0.041,0.35,-0.061,0.488,-0.122,6.844,-69.549,-158.571,-29.293,-12.493,-3.767,32.08,0.18674,-0.5502,-0.15479,-0.79895,572
143,0.997,-0.038,0.205,0.061,0.916,0.0,-11.173,-78.327,-179.566,-27.353,-10.807,-7.573,29.51,-0.05621,-0.62933,0.07126,-0.77176,577,0.752,0.001,0.649,-0.305,-0.427,-0.122,0.374,-49.384,-123.799,-23.447,-9.567,-0.74,27.14,-0.4295,0.36682,0.19943,0.80069,567,0.576,0.006,0.816,0.305,5.005,-0.366,0.626,-36.233,152.875,-15.347,-10.827,-30.38,31.59,-0.2218,-0.30637,0.0701,-0.923,569,0.928,0.04,0.347,0.0,-0.061,-0.244,6.85,-69.543,-158.571,-29.293,-12.493,-3.767,32.08,0.18674,-0.5502,-0.15479,-0.79895,573
144,1.001,-0.039,0.201,0.0,0.427,0.0,-11.157,-78.316,-179.61,-27.353,-10.807,-7.573,29.51,-0.05621,-0.62933,0.07126,-0.77176,584,0.756,0.002,0.665,-0.183,-1.099,0.0,0.368,-49.406,-123.805,-23.447,-9.567,-0.74,27.14,-0.4295,0.36682,0.19943,0.80069,574,0.581,0.007,0.823,0.305,1.892,-0.427,0.637,-36.151,152.875,-15.347,-10.827,-30.38,31.59,-0.2218,-0.30637,0.0701,-0.923,578,0.926,0.042,0.347,-0.183,-0.61,-0.305,6.861,-69.549,-158.566,-29.293,-12.493,-3.767,32.08,0.18674,-0.5502,-0.15479,-0.79895,580
145,1.002,-0.037,0.203,0.122,0.061,0.0,-11.146,-78.316,-179.659,-27.353,-10.807,-7.573,29.51,-0.05621,-0.62933,0.07126,-0.77176,585,0.762,0.003,0.667,-0.488,-0.793,0.0,0.357,-49.422,-123.805,-23.447,-9.567,-0.74,27.14,-0.4295,0.36682,0.19943,0.80069,575,0.587,0.004,0.823,1.343,-0.977,-0.122,0.654,-36.129,152.869,-15.347,-10.827,-30.38,31.59,-0.2218,-0.30637,0.0701,-0.923,579,0.924,0.04,0.344,-0.366,-0.854,-0.305,6.877,-69.56,-158.588,-29.293,-12.493,-3.767,32.08,0.18674,-0.5502,-0.15479,-0.79895,581
146,1.0,-0.038,0.203,-0.061,-0.122,0.0,-11.14,-78.316,-179.687,-27.353,-10.807,-7.573,29.51,-0.05621,-0.62933,0.07126,-0.77176,586,0.764,0.0,0.665,0.0,-1.16,-0.122,0.357,-49.444,-123.81,-23.447,-9.567,-0.74,27.14,-0.4295,0.36682,0.19943,0.80069,582,0.582,0.008,0.814,1.404,-0.916,0.183,0.681,-36.145,152.864,-15.347,-10.827,-30.38,31.59,-0.2218,-0.30637,0.0701,-0.923,590,0.92,0.039,0.35,-0.122,-1.282,-0.122,6.894,-69.576,-158.604,-29.293,-12.493,-3.767,32.08,0.18674,-0.5502,-0.15479,-0.79895,594
147,0.997,-0.041,0.208,-0.244,-0.183,0.0,-11.146,-78.322,-179.681,-27.353,-10.807,-7.573,29.51,-0.05621,-0.62933,0.07126,-0.77176,587,0.76,0.004,0.665,0.122,-1.16,-0.305,0.368,-49.46,-123.821,-23.447,-9.567,-0.74,27.14,-0.4295,0.36682,0.19943,0.80069,583,0.583,0.015,0.817,0.854,-3.418,0.366,0.698,-36.172,152.864,-15.347,-10.827,-30.38,31.59,-0.2218,-0.30637,0.0701,-0.923,591,0.919,0.04,0.347,0.061,-1.343,0.0,6.905,-69.604,-158.61,-29.293,-12.493,-3.767,32.08,0.18674,-0.5502,-0.15479,-0.79895,595
148,0.994,-0.041,0.208,-0.183,-0.427,0.0,-11.151,-78.327,-179.67,-27.353,-10.807,-7.573,29.51,-0.05621,-0.62933,0.07126,-0.77176,596,0.758,0.008,0.658,0.305,-1.16,-0.061,0.374,-49.482,-123.821,-23.353,-9.527,-1.067,27.14,-0.4295,0.36682,0.19943,0.80069,588,0.581,0.017,0.802,1.221,-4.456,0.671,0.714,-36.244,152.858,-15.347,-10.827,-30.38,31.59,-0.2218,-0.30637,0.0701,-0.923,592,0.922,0.042,0.347,-0.122,-1.465,0.061,6.91,-69.626,-158.61,-29.347,-12.587,-4.447,32.08,0.18674,-0.5502,-0.15479,-0.79895,598
149,0.994,-0.041,0.208,-0.061,-0.488,0.0,-11.157,-78.333,-179.654,-27.353,-10.807,-7.573,29.51,-0.05621,-0.62933,0.07126,-0.77176,597,0.756,0.007,0.654,0.061,-1.16,0.183,0.374,-49.499,-123.799,-23.353,-9.527,-1.067,27.14,-0.4295,0.36682,0.19943,0.80069,589,0.584,0.012,0.812,-1.099,-6.348,0.122,0.72,-36.337,152.869,-15.347,-10.827,-30.38,31.59,-0.2218,-0.30637,0.0701,-0.923,593,0.928,0.043,0.35,-0.244,-1.587,0.305,6.905,-69.653,-158.61,-29.347,-12.587,-4.447,32.08,0.18674,-0.5502,-0.15479,-0.79895,599
150,0.997,-0.039,0.21,0.061,-0.854,0.0,-11.162,-78.344,-179.632,-26.96,-10.947,-7.887,29.51,-0.05621,-0.62933,0.07126,-0.77176,602,0.761,0.007,0.656,-0.183,-1.221,0.427,0.357,-49.521,-123.766,-23.353,-9.527,-1.067,27.14,-0.4295,0.36682,0.19943,0.80069,600,0.6,0.016,0.797,-0.916,-10.376,0.244,0.698,-36.475,152.853,-15.607,-10.547,-30.76,31.59,-0.2218,-0.30637,0.0701,-0.923,604,0.929,0.042,0.339,-0.671,-1.038,0.366,6.888,-69.681,-158.621,-29.347,-12.587,-4.447,32.08,0.18674,-0.5502,-0.15479,-0.79895,606
151,0.999,-0.037,0.208,-0.061,-0.916,0.0,-11.173,-78.36,-179.61,-26.96,-10.947,-7.887,29.51,-0.05621,-0.62933,0.07126,-0.77176,603,0.771,0.008,0.647,-0.061,-0.854,0.427,0.352,-49.532,-123.728,-23.353,-9.527,-1.067,27.14,-0.4295,0.36682,0.19943,0.80069,601,0.61,0.015,0.762,1.77,-3.174,0.854,0.687,-36.639,152.842,-15.607,-10.547,-30.76,31.59,-0.2218,-0.30637,0.0701,-0.923,605,0.927,0.039,0.333,-0.427,-0.366,0.366,6.866,-69.692,-158.604,-29.347,-12.587,-4.447,32.08,0.18674,-0.5502,-0.15479,-0.79895,607
152,0.999,-0.039,0.204,-0.305,-0.305,0.0,-11.184,-78.371,-179.588,-26.96,-10.947,-7.887,29.51,-0.05621,-0.62933,0.07126,-0.77176,610,0.774,0.003,0.633,-0.244,0.0,0.366,0.335,-49.532,-123.701,-23.353,-9.527,-1.067,27.14,-0.4292,0.36807,0.19995,0.80014,608,0.599,0.005,0.773,0.183,2.014,0.0,0.703,-36.645,152.82,-15.607,-10.547,-30.76,31.59,-0.2218,-0.30637,0.0701,-0.923,618,0.925,0.04,0.338,0.366,0.549,0.244,6.844,-69.697,-158.582,-29.347,-12.587,-4.447,32.08,0.18567,-0.55133,-0.15411,-0.79855,612
153,1.0,-0.041,0.206,0.0,0.0,0.0,-11.184,-78.371,-179.577,-26.96,-10.947,-7.887,29.51,-0.05621,-0.62933,0.07126,-0.77176,611,0.764,-0.002,0.634,-0.488,0.916,0.122,0.324,-49.515,-123.695,-23.353,-9.527,-1.067,27.14,-0.4292,0.36807,0.19995,0.80014,609,0.588,0.004,0.792,-1.099,1.404,-0.244,0.698,-36.612,152.792,-15.607,-10.547,-30.76,31.59,-0.2218,-0.30637,0.0701,-0.923,619,0.927,0.042,0.341,0.366,1.099,0.0,6.833,-69.681,-158.555,-29.347,-12.587,-4.447,32.08,0.18567,-0.55133,-0.15411,-0.79855,613
154,1.001,-0.04,0.204,0.061,-0.183,0.0,-11.179,-78.365,-179.572,-26.96,-10.947,-7.887,29.51,-0.05872,-0.62906,0.07321,-0.77161,616,0.764,-0.002,0.644,-0.427,0.977,-0.061,0.319,-49.499,-123.695,-23.353,-9.527,-1.067,27.14,-0.4292,0.36807,0.19995,0.80014,614,0.592,0.002,0.794,-1.953,1.038,-0.916,0.676,-36.59,152.776,-15.607,-10.547,-30.76,31.59,-0.22122,-0.30676,0.06815,-0.92316,620,0.928,0.043,0.334,-0.61,1.038,-0.183,6.833,-69.659,-158.538,-29.347,-12.587,-4.447,32.08,0.18567,-0.55133,-0.15411,-0.79855,622
155,1.002,-0.036,0.192,-0.671,-0.61,0.427,-11.212,-78.371,-179.533,-26.96,-10.947,-7.887,29.51,-0.05872,-0.62906,0.07321,-0.77161,617,0.764,0.0,0.651,-0.427,0.671,-0.488,0.313,-49.488,-123.712,-23.353,-9.527,-1.067,27.14,-0.4292,0.36807,0.19995,0.80014,615,0.594,0.006,0.798,-1.221,2.136,-1.038,0.659,-36.557,152.759,-15.607,-10.547,-30.76,31.59,-0.22122,-0.30676,0.06815,-0.92316,621,0.928,0.044,0.33,-1.282,0.366,-0.305,6.823,-69.642,-158.533,-29.347,-12.587,-4.447,32.08,0.18567,-0.55133,-0.15411,-0.79855,623
156,1.005,-0.031,0.187,-1.16,-0.732,0.244,-11.266,-78.382,-179.489,-26.96,-10.947,-7.887,29.51,-0.05872,-0.62906,0.07321,-0.77161,628,0.766,0.0,0.651,-0.427,0.671,-0.488,0.313,-49.477,-123.728,-23.353,-9.527,-1.067,27.14,-0.4292,0.36807,0.19995,0.80014,624,0.594,0.005,0.808,-1.038,1.953,-1.16,0.648,-36.519,152.743,-15.607,-10.547,-30.76,31.59,-0.22122,-0.30676,0.06815,-0.92316,626,0.926,0.042,0.33,-1.343,-0.305,-0.366,6.817,-69.642,-158.544,-29.347,-12.587,-4.447,32.08,0.18567,-0.55133,-0.15411,-0.79855,630
157,1.003,-0.033,0.186,-1.343,-0.854,-0.244,-11.299,-78.404,-179.489,-26.96,-10.947,-7.887,29.51,-0.05872,-0.62906,0.07321,-0.77161,629,0.763,0.006,0.656,-1.282,-0.305,-0.977,0.308,-49.471,-123.755,-23.353,-9.527,-1.067,27.14,-0.4292,0.36807,0.19995,0.80014,625,0.59,0.01,0.811,-1.892,1.343,-1.709,0.637,-36.486,152.715,-15.607,-10.547,-30.76,31.59,-0.22122,-0.30676,0.06815,-0.92316,627,0.927,0.034,0.339,-0.366,-0.793,-0.183,6.823,-69.659,-158.555,-29.347,-12.587,-4.447,32.08,0.18567,-0.55133,-0.15411,-0.79855,631
158,1.002,-0.048,0.195,-1.099,-0.671,-0.549,-11.294,-78.42,-179.517,-26.96,-10.947,-7.887,29.51,-0.05872,-0.62906,0.07321,-0.77161,634,0.762,0.0,0.652,-0.916,-1.404,-1.038,0.308,-49.488,-123.777,-23.353,-9.527,-1.067,27.14,-0.4292,0.36807,0.19995,0.80014,632,0.583,0.009,0.811,-2.197,0.427,-1.587,0.621,-36.469,152.699,-15.607,-10.547,-30.76,31.59,-0.22122,-0.30676,0.06815,-0.92316,636,0.937,0.027,0.344,0.427,-0.977,-0.244,6.839,-69.675,-158.571,-29.347,-12.587,-4.447,32.08,0.18567,-0.55133,-0.15411,-0.79855,642
159,1.007,-0.052,0.199,-0.732,-1.038,0.0,-11.299,-78.442,-179.511,-26.96,-10.947,-7.887,29.51,-0.05872,-0.62906,0.07321,-0.77161,635,0.773,-0.003,0.655,-1.343,-3.235,-0.122,0.308,-49.521,-123.805,-23.353,-9.527,-1.067,27.14,-0.4292,0.36807,0.19995,0.80014,633,0.59,0.01,0.814,-2.319,-0.793,-1.099,0.599,-36.469,152.688,-15.607,-10.547,-30.76,31.59,-0.22122,-0.30676,0.06815,-0.92316,637,0.932,0.029,0.334,0.793,-0.977,0.0,6.861,-69.697,-158.571,-29.347,-12.587,-4.447,32.08,0.18567,-0.55133,-0.15411,-0.79855,643
160,1.005,-0.048,0.195,-0.488,-1.16,0.549,-11.365,-78.464,-179.44,-26.96,-10.947,-7.887,29.51,-0.05872,-0.62906,0.07321,-0.77161,644,0.777,0.004,0.657,-0.671,-3.296,1.526,0.275,-49.587,-123.788,-23.353,-9.527,-1.067,27.14,-0.4292,0.36807,0.19995,0.80014,638,0.605,0.024,0.808,-2.136,-1.099,0.0,0.56,-36.486,152.688,-15.607,-10.547,-30.76,31.59,-0.22122,-0.30676,0.06815,-0.92316,640,0.916,0.044,0.332,1.038,-0.916,0.549,6.861,-69.719,-158.549,-29.347,-12.587,-4.447,32.08,0.18567,-0.55133,-0.15411,-0.79855,646
161,0.997,-0.038,0.196,-0.061,-0.61,0.61,-11.453,-78.481,-179.313,-26.96,-10.947,-7.887,29.51,-0.05872,-0.62906,0.07321,-0.77161,645,0.759,0.013,0.646,0.793,-1.526,1.953,0.231,-49.642,-123.734,-23.353,-9.527,-1.067,27.14,-0.4292,0.36807,0.19995,0.80014,639,0.594,0.021,0.792,0.183,-0.366,1.77,0.533,-36.497,152.715,-15.607,-10.547,-30.76,31.59,-0.22122,-0.30676,0.06815,-0.92316,641,0.914,0.052,0.339,0.549,-1.099,0.916,6.839,-69.741,-158.494,-29.347,-12.587,-4.447,32.08,0.18567,-0.55133,-0.15411,-0.79855,647
162,0.994,-0.034,0.201,0.305,-0.122,0.427,-11.508,-78.486,-179.198,-26.96,-10.947,-7.887,29.51,-0.05872,-0.62906,0.07321,-0.77161,650,0.753,0.008,0.643,0.0,-1.709,0.854,0.203,-49.675,-123.684,-23.353,-9.527,-1.067,27.14,-0.4292,0.36807,0.19995,0.80014,648,0.583,0.003,0.79,-0.793,0.0,1.282,0.511,-36.502,152.754,-15.607,-10.547,-30.76,31.59,-0.22122,-0.30676,0.06815,-0.92316,652,0.924,0.044,0.339,-0.488,-1.648,0.854,6.801,-69.774,-158.439,-29.347,-12.587,-4.447,32.08,0.18567,-0.55133,-0.15411,-0.79855,654
163,0.997,-0.037,0.2,-0.061,-0.793,0.183,-11.547,-78.497,-179.116,-26.96,-10.947,-7.887,29.51,-0.05872,-0.62906,0.07321,-0.77161,651,0.763,-0.005,0.642,0.305,-2.075,-0.122,0.192,-49.713,-123.662,-23.353,-9.527,-1.067,27.14,-0.4292,0.36807,0.19995,0.80014,649,0.585,-0.005,0.792,-0.732,0.0,0.0,0.489,-36.502,152.765,-15.607,-10.547,-30.76,31.59,-0.22122,-0.30676,0.06815,-0.92316,653,0.932,0.039,0.342,-0.61,-1.587,0.427,6.768,-69.807,-158.401,-29.347,-12.587,-4.447,32.08,0.18567,-0.55133,-0.15411,-0.79855,655
164,1.006,-0.038,0.207,-0.183,-1.038,0.183,-11.585,-78.514,-179.039,-26.96,-10.947,-7.887,29.51,-0.05872,-0.62906,0.07321,-0.77161,658,0.77,-0.006,0.642,0.549,-2.808,0.0,0.203,-49.757,-123.668,-23.353,-9.527,-1.067,27.14,-0.4292,0.36807,0.19995,0.80014,660,0.593,0.005,0.801,0.61,-0.061,0.061,0.489,-36.502,152.754,-15.607,-10.547,-30.76,31.59,-0.22122,-0.30676,0.06815,-0.92316,656,0.936,0.036,0.334,-0.366,-1.038,0.0,6.757,-69.835,-158.395,-29.347,-12.587,-4.447,32.08,0.18567,-0.55133,-0.15411,-0.79855,664
165,1.003,-0.039,0.201,-0.854,-0.854,0.122,-11.624,-78.53,-178.973,-26.96,-10.947,-7.887,29.51,-0.05872,-0.62906,0.07321,-0.77161,659,0.779,0.0,0.647,0.488,-2.502,0.427,0.209,-49.812,-123.673,-23.353,-9.527,-1.067,27.14,-0.4292,0.36807,0.19995,0.80014,661,0.6,0.008,0.795,-1.221,-0.183,0.244,0.478,-36.508,152.759,-15.607,-10.547,-30.76,31.59,-0.22122,-0.30676,0.06815,-0.92316,657,0.931,0.035,0.339,0.366,-0.305,0.305,6.751,-69.846,-158.39,-29.347,-12.587,-4.447,32.08,0.18567,-0.55133,-0.15411,-0.79855,665
166,1.001,-0.043,0.205,-0.549,0.0,0.0,-11.635,-78.536,-178.929,-26.96,-10.947,-7.887,29.51,-0.05872,-0.62906,0.07321,-0.77161,666,0.781,0.001,0.639,1.038,-1.709,0.488,0.209,-49.856,-123.668,-23.353,-9.527,-1.067,27.14,-0.4292,0.36807,0.19995,0.80014,662,0.606,0.012,0.793,-2.014,0.916,0.427,0.445,-36.497,152.77,-15.607,-10.547,-30.76,31.59,-0.22122,-0.30676,0.06815,-0.92316,668,0.925,0.037,0.344,1.404,0.427,0.549,6.746,-69.846,-158.373,-29.06,-12.48,-4.52,32.08,0.18567,-0.55133,-0.15411,-0.79855,670
167,1.0,-0.046,0.202,-0.061,0.183,0.122,-11.646,-78.53,-178.912,-26.96,-10.947,-7.887,29.51,-0.05872,-0.62906,0.07321,-0.77161,667,0.768,0.0,0.639,2.869,-1.282,0.671,0.225,-49.889,-123.662,-23.353,-9.527,-1.067,27.14,-0.4292,0.36807,0.19995,0.80014,663,0.595,0.008,0.792,-1.404,1.16,1.221,0.401,-36.48,152.803,-15.607,-10.547,-30.76,31.59,-0.22122,-0.30676,0.06815,-0.92316,669,0.922,0.039,0.335,1.404,0.366,0.732,6.735,-69.84,-158.34,-29.06,-12.48,-4.52,32.08,0.18567,-0.55133,-0.15411,-0.79855,671
168,1.0,-0.041,0.193,0.244,-0.122,0.488,-11.678,-78.53,-178.879,-26.987,-10.913,-7.92,29.51,-0.05872,-0.62906,0.07321,-0.77161,680,0.763,0.006,0.646,3.845,-0.61,0.793,0.269,-49.911,-123.657,-23.353,-9.527,-1.067,27.14,-0.4292,0.36807,0.19995,0.80014,672,0.587,0.011,0.791,1.221,1.831,1.526,0.379,-36.453,152.836,-15.607,-10.547,-30.76,31.59,-0.22122,-0.30676,0.06815,-0.92316,674,0.925,0.043,0.328,0.916,-0.244,0.732,6.713,-69.84,-158.291,-29.06,-12.48,-4.52,32.08,0.18567,-0.55133,-0.15411,-0.79855,676
169,1.003,-0.033,0.188,0.366,-0.366,0.366,-11.717,-78.536,-178.857,-26.987,-10.913,-7.92,29.51,-0.05872,-0.62906,0.07321,-0.77161,681,0.768,0.005,0.644,3.54,-0.122,0.549,0.324,-49.922,-123.651,-23.353,-9.527,-1.067,27.14,-0.4292,0.36807,0.19995,0.80014,673,0.592,0.005,0.798,1.282,2.686,1.282,0.385,-36.414,152.864,-15.607,-10.547,-30.76,31.59,-0.22122,-0.30676,0.06815,-0.92316,675,0.93,0.042,0.33,1.282,-0.305,0.305,6.713,-69.846,-158.269,-29.06,-12.48,-4.52,32.08,0.18567,-0.55133,-0.15411,-0.79855,677
170,1.005,-0.036,0.19,0.671,-0.366,0.061,-11.717,-78.541,-178.89,-26.987,-10.913,-7.92,29.51,-0.05872,-0.62906,0.07321,-0.77161,686,0.77,-0.002,0.64,3.662,-0.183,0.0,0.385,-49.927,-123.662,-23.687,-10.213,-1.14,27.14,-0.4292,0.36807,0.19995,0.80014,678,0.592,-0.003,0.798,0.854,1.587,0.61,0.396,-36.376,152.897,-15.727,-11.08,-29.987,31.59,-0.22122,-0.30676,0.06815,-0.92316,682,0.93,0.037,0.334,1.221,-0.305,0.0,6.729,-69.857,-158.269,-29.06,-12.48,-4.52,32.08,0.18719,-0.55219,-0.15485,-0.79745,690
171,1.005,-0.042,0.196,0.977,-0.244,0.0,-11.706,-78.547,-178.918,-26.987,-10.913,-7.92,29.51,-0.05872,-0.62906,0.07321,-0.77161,687,0.77,-0.009,0.643,4.639,-0.732,-0.549,0.467,-49.933,-123.679,-23.687,-10.213,-1.14,27.14,-0.4292,0.36807,0.19995,0.80014,679,0.591,-0.008,0.799,2.625,1.343,0.488,0.423,-36.348,152.924,-15.727,-11.08,-29.987,31.59,-0.22122,-0.30676,0.06815,-0.92316,683,0.93,0.033,0.336,1.831,-0.244,-0.122,6.768,-69.862,-158.269,-29.06,-12.48,-4.52,32.08,0.18719,-0.55219,-0.15485,-0.79745,691
172,1.004,-0.044,0.198,0.977,-0.122,0.183,-11.7,-78.552,-178.912,-26.987,-10.913,-7.92,29.51,-0.05731,-0.63043,0.073,-0.7706,692,0.769,-0.003,0.643,4.944,-0.427,-0.732,0.566,-49.949,-123.723,-23.687,-10.213,-1.14,27.14,-0.4292,0.36807,0.19995,0.80014,684,0.59,-0.002,0.797,4.761,0.977,0.977,0.483,-36.332,152.946,-15.727,-11.08,-29.987,31.59,-0.22122,-0.30676,0.06815,-0.92316,688,0.929,0.035,0.332,2.258,-0.061,-0.244,6.817,-69.868,-158.28,-29.06,-12.48,-4.52,32.08,0.18719,-0.55219,-0.15485,-0.79745,694
173,1.001,-0.04,0.194,0.61,0.0,0.244,-11.706,-78.552,-178.901,-26.987,-10.913,-7.92,29.51,-0.05731,-0.63043,0.073,-0.7706,693,0.77,0.003,0.641,4.761,-0.244,-0.488,0.67,-49.955,-123.755,-23.687,-10.213,-1.14,27.14,-0.4292,0.36807,0.19995,0.80014,685,0.587,0.004,0.802,5.249,-0.061,1.221,0.56,-36.326,152.974,-15.727,-11.08,-29.987,31.59,-0.22122,-0.30676,0.06815,-0.92316,689,0.932,0.039,0.332,2.441,0.122,-0.366,6.872,-69.868,-158.318,-29.06,-12.48,-4.52,32.08,0.18719,-0.55219,-0.15485,-0.79745,695
174,1.003,-0.038,0.194,0.488,0.061,0.0,-11.7,-78.558,-178.918,-26.987,-10.913,-7.92,29.51,-0.05731,-0.63043,0.073,-0.7706,698,0.778,0.012,0.643,3.662,-0.061,-0.122,0.764,-49.96,-123.777,-23.687,-10.213,-1.14,27.14,-0.42941,0.3699,0.20374,0.79822,696,0.599,0.012,0.808,2.258,-3.601,0.305,0.621,-36.365,153.012,-15.727,-11.08,-29.987,31.59,-0.22031,-0.30423,0.06805,-0.92422,700,0.934,0.043,0.335,2.258,0.305,-0.305,6.932,-69.862,-158.34,-29.06,-12.48,-4.52,32.08,0.18719,-0.55219,-0.15485,-0.79745,702
175,1.009,-0.038,0.199,0.916,0.122,-0.061,-11.673,-78.558,-178.945,-26.987,-10.913,-7.92,29.51,-0.05731,-0.63043,0.073,-0.7706,699,0.779,0.016,0.641,3.235,0.427,0.183,0.829,-49.96,-123.794,-23.687,-10.213,-1.14,27.14,-0.42941,0.3699,0.20374,0.79822,697,0.603,0.022,0.789,3.906,-2.625,1.099,0.67,-36.425,153.023,-15.727,-11.08,-29.987,31.59,-0.22031,-0.30423,0.06805,-0.92422,701,0.934,0.04,0.333,1.831,0.183,-0.305,6.982,-69.862,-158.34,-29.06,-12.48,-4.52,32.08,0.18719,-0.55219,-0.15485,-0.79745,703
176,1.008,-0.041,0.195,0.793,0.305,0.0,-11.651,-78.552,-178.978,-26.987,-10.913,-7.92,29.51,-0.05731,-0.63043,0.073,-0.7706,706,0.774,0.011,0.642,3.113,0.671,0.244,0.879,-49.955,-123.799,-23.687,-10.213,-1.14,27.14,-0.42941,0.3699,0.20374,0.79822,704,0.596,0.012,0.792,4.15,-0.122,1.16,0.731,-36.458,153.051,-15.727,-11.08,-29.987,31.59,-0.22031,-0.30423,0.06805,-0.92422,708,0.932,0.04,0.334,1.404,0.122,-0.183,7.02,-69.862,-158.324,-29.06,-12.48,-4.52,32.08,0.18719,-0.55219,-0.15485,-0.79745,714
177,1.004,-0.04,0.199,0.61,0.793,0.244,-11.64,-78.541,-179.0,-26.987,-10.913,-7.92,29.51,-0.05731,-0.63043,0.073,-0.7706,707,0.77,0.013,0.645,2.38,0.732,0.366,0.928,-49.944,-123.799,-23.687,-10.213,-1.14,27.14,-0.42941,0.3699,0.20374,0.79822,705,0.59,0.016,0.799,2.625,0.671,1.099,0.78,-36.453,153.078,-15.727,-11.08,-29.987,31.59,-0.22031,-0.30423,0.06805,-0.92422,709,0.93,0.045,0.337,1.16,0.427,-0.183,7.048,-69.857,-158.302,-29.06,-12.48,-4.52,32.08,0.18719,-0.55219,-0.15485,-0.79745,715
178,1.0,-0.037,0.2,0.305,1.16,0.183,-11.624,-78.519,-179.028,-26.987,-10.913,-7.92,29.51,-0.05731,-0.63043,0.073,-0.7706,716,0.774,0.016,0.646,1.282,1.343,0.61,0.956,-49.933,-123.799,-23.687,-10.213,-1.14,27.14,-0.42941,0.3699,0.20374,0.79822,710,0.595,0.015,0.802,0.854,0.427,0.977,0.802,-36.447,153.094,-15.727,-11.08,-29.987,31.59,-0.22031,-0.30423,0.06805,-0.92422,712,0.928,0.044,0.335,0.427,0.549,0.0,7.059,-69.851,-158.297,-29.06,-12.48,-4.52,32.08,0.18719,-0.55219,-0.15485,-0.79745,718
179,1.0,-0.039,0.199,0.061,1.16,-0.061,-11.596,-78.497,-179.077,-26.987,-10.913,-7.92,29.51,-0.05731,-0.63043,0.073,-0.7706,717,0.77,0.013,0.642,0.732,1.648,0.488,0.961,-49.905,-123.788,-23.687,-10.213,-1.14,27.14,-0.42941,0.3699,0.20374,0.79822,711,0.593,0.014,0.799,0.793,1.343,0.671,0.802,-36.431,153.083,-15.727,-11.08,-29.987,31.59,-0.22031,-0.30423,0.06805,-0.92422,713,0.923,0.041,0.339,-0.061,0.854,0.0,7.053,-69.835,-158.291,-29.06,-12.48,-4.52,32.08,0.18719,-0.55219,-0.15485,-0.79745,719
180,1.0,-0.042,0.202,-0.061,0.977,-0.244,-11.552,-78.481,-179.121,-26.987,-10.913,-7.92,29.51,-0.05731,-0.63043,0.073,-0.7706,722,0.761,0.006,0.642,0.732,1.343,0.305,0.961,-49.878,-123.783,-23.687,-10.213,-1.14,27.14,-0.42941,0.3699,0.20374,0.79822,720,0.583,0.008,0.8,0.366,1.892,0.488,0.807,-36.403,153.078,-15.727,-11.08,-29.987,31.59,-0.22031,-0.30423,0.06805,-0.92422,724,0.919,0.037,0.335,-0.305,0.854,-0.061,7.042,-69.818,-158.291,-29.06,-12.48,-4.52,32.08,0.18719,-0.55219,-0.15485,-0.79745,726
181,0.996,-0.044,0.199,-0.061,1.16,0.0,-11.525,-78.459,-179.16,-26.987,-10.913,-7.92,29.51,-0.05731,-0.63043,0.073,-0.7706,723,0.757,0.009,0.648,0.854,1.404,0.488,0.967,-49.856,-123.772,-23.687,-10.213,-1.14,27.14,-0.42941,0.3699,0.20374,0.79822,721,0.577,0.013,0.802,1.038,1.709,0.916,0.807,-36.37,153.094,-15.727,-11.08,-29.987,31.59,-0.22031,-0.30423,0.06805,-0.92422,725,0.918,0.036,0.339,-0.427,0.427,0.061,7.026,-69.813,-158.329,-29.06,-12.48,-4.52,32.08,0.18719,-0.55219,-0.15485,-0.79745,727
182,0.994,-0.043,0.199,-0.122,1.282,0.122,-11.514,-78.437,-179.198,-26.987,-10.913,-7.92,29.51,-0.05731,-0.63043,0.073,-0.7706,728,0.758,0.011,0.65,0.793,1.282,0.793,0.967,-49.834,-123.75,-23.687,-10.213,-1.14,27.14,-0.42941,0.3699,0.20374,0.79822,730,0.579,0.013,0.806,1.526,1.465,1.282,0.818,-36.343,153.122,-15.727,-11.08,-29.987,31.59,-0.22031,-0.30423,0.06805,-0.92422,732,0.92,0.039,0.342,-0.305,0.061,0.183,7.009,-69.813,-158.362,-29.06,-12.48,-4.52,32.08,0.18719,-0.55219,-0.15485,-0.79745,740
183,0.995,-0.042,0.203,0.061,1.038,0.0,-11.497,-78.415,-179.236,-26.987,-10.913,-7.92,29.51,-0.05731,-0.63043,0.073,-0.7706,729,0.758,0.009,0.649,0.305,0.977,0.854,0.961,-49.812,-123.734,-23.687,-10.213,-1.14,27.14,-0.42941,0.3699,0.20374,0.79822,731,0.579,0.009,0.803,0.488,1.038,1.099,0.824,-36.315,153.193,-15.727,-11.08,-29.987,31.59,-0.22031,-0.30423,0.06805,-0.92422,733,0.922,0.041,0.342,-0.305,-0.122,0.122,6.993,-69.813,-158.401,-29.06,-12.48,-4.52,32.08,0.18719,-0.55219,-0.15485,-0.79745,741
184,0.996,-0.038,0.204,-0.061,0.61,-0.061,-11.481,-78.404,-179.269,-26.987,-10.913,-7.92,29.51,-0.05731,-0.63043,0.073,-0.7706,736,0.76,0.011,0.652,0.244,0.793,0.854,0.945,-49.79,-123.717,-23.687,-10.213,-1.14,27.14,-0.42941,0.3699,0.20374,0.79822,734,0.579,0.011,0.807,-0.305,1.038,1.038,0.807,-36.293,153.287,-15.727,-11.08,-29.987,31.59,-0.22031,-0.30423,0.06805,-0.92422,738,0.922,0.041,0.343,-0.122,-0.427,0.061,6.987,-69.818,-158.434,-29.06,-12.48,-4.52,32.08,0.18719,-0.55219,-0.15485,-0.79745,742
185,0.997,-0.039,0.204,-0.183,0.488,-0.061,-11.464,-78.393,-179.291,-26.987,-10.913,-7.92,29.51,-0.05731,-0.63043,0.073,-0.7706,737,0.761,0.009,0.652,0.0,0.732,0.977,0.928,-49.779,-123.695,-23.687,-10.213,-1.14,27.14,-0.42941,0.3699,0.20374,0.79822,735,0.58,0.01,0.808,0.0,0.854,1.099,0.786,-36.277,153.386,-15.727,-11.08,-29.987,31.59,-0.22031,-0.30423,0.06805,-0.92422,739,0.925,0.042,0.345,-0.366,-0.549,0.061,6.976,-69.829,-158.461,-29.06,-12.48,-4.52,32.08,0.18719,-0.55219,-0.15485,-0.79745,743
186,0.996,-0.04,0.207,-0.122,0.244,0.0,-11.459,-78.387,-179.302,-27.007,-10.767,-7.907,29.51,-0.05731,-0.63043,0.073,-0.7706,744,0.762,0.006,0.653,0.488,0.549,0.793,0.906,-49.763,-123.668,-23.62,-9.827,-0.413,27.14,-0.42941,0.3699,0.20374,0.79822,750,0.584,0.005,0.805,1.038,0.671,1.16,0.78,-36.26,153.474,-15.727,-11.08,-29.987,31.59,-0.22031,-0.30423,0.06805,-0.92422,746,0.926,0.039,0.346,-0.244,-0.427,0.0,6.971,-69.835,-158.478,-28.82,-12.713,-4.84,32.08,0.18719,-0.55219,-0.15485,-0.79745,748
187,1.001,-0.041,0.209,-0.061,0.061,-0.122,-11.448,-78.387,-179.324,-27.007,-10.767,-7.907,29.51,-0.05731,-0.63043,0.073,-0.7706,745,0.766,0.002,0.652,0.916,0.61,0.366,0.901,-49.752,-123.646,-23.62,-9.827,-0.413,27.14,-0.42941,0.3699,0.20374,0.79822,751,0.586,0.0,0.807,1.16,0.61,0.916,0.786,-36.244,153.556,-15.727,-11.08,-29.987,31.59,-0.22031,-0.30423,0.06805,-0.92422,747,0.929,0.036,0.339,0.183,-0.305,-0.244,6.982,-69.835,-158.5,-28.82,-12.713,-4.84,32.08,0.18719,-0.55219,-0.15485,-0.79745,749
188,1.003,-0.041,0.204,-0.061,0.0,-0.244,-11.426,-78.387,-179.352,-27.007,-10.767,-7.907,29.51,-0.05731,-0.63043,0.073,-0.7706,754,0.767,0.001,0.652,0.977,0.61,0.183,0.906,-49.735,-123.635,-23.62,-9.827,-0.413,27.14,-0.42941,0.3699,0.20374,0.79822,752,0.586,0.003,0.807,0.0,0.305,0.488,0.786,-36.233,153.616,-15.893,-10.987,-29.88,31.59,-0.22031,-0.30423,0.06805,-0.92422,756,0.929,0.034,0.338,0.793,-0.366,-0.427,7.009,-69.84,-158.538,-28.82,-12.713,-4.84,32.08,0.18719,-0.55219,-0.15485,-0.79745,758
189,1.004,-0.043,0.206,0.122,0.366,-0.427,-11.382,-78.382,-179.396,-27.007,-10.767,-7.907,29.51,-0.05731,-0.63043,0.073,-0.7706,755,0.766,0.005,0.649,1.526,0.732,0.549,0.923,-49.719,-123.618,-23.62,-9.827,-0.413,27.14,-0.42941,0.3699,0.20374,0.79822,753,0.587,0.013,0.802,0.183,0.427,0.854,0.775,-36.222,153.649,-15.893,-10.987,-29.88,31.59,-0.22031,-0.30423,0.06805,-0.92422,757,0.927,0.039,0.343,1.587,0.0,-0.366,7.053,-69.84,-158.571,-28.82,-12.713,-4.84,32.08,0.18719,-0.55219,-0.15485,-0.79745,759
190,1.0,-0.044,0.209,0.793,0.61,-0.244,-11.332,-78.365,-179.407,-27.007,-10.767,-7.907,29.51,-0.05859,-0.62915,0.07355,-0.77151,762,0.764,0.012,0.648,1.465,1.038,0.916,0.928,-49.702,-123.607,-23.62,-9.827,-0.413,27.14,-0.42941,0.3699,0.20374,0.79822,760,0.585,0.015,0.801,1.526,0.305,1.709,0.769,-36.211,153.715,-15.893,-10.987,-29.88,31.59,-0.22031,-0.30423,0.06805,-0.92422,764,0.923,0.046,0.34,1.404,0.122,-0.183,7.086,-69.835,-158.588,-28.82,-12.713,-4.84,32.08,0.18671,-0.55203,-0.15567,-0.79755,766
191,0.995,-0.039,0.202,0.916,0.732,0.0,-11.294,-78.354,-179.418,-27.007,-10.767,-7.907,29.51,-0.05859,-0.62915,0.07355,-0.77151,763,0.762,0.014,0.649,0.977,0.977,0.732,0.934,-49.68,-123.58,-23.62,-9.827,-0.413,27.14,-0.42941,0.3699,0.20374,0.79822,761,0.583,0.01,0.803,1.16,0.61,1.282,0.775,-36.2,153.787,-15.893,-10.987,-29.88,31.59,-0.22031,-0.30423,0.06805,-0.92422,765,0.923,0.048,0.336,0.916,0.061,-0.122,7.114,-69.829,-158.593,-28.82,-12.713,-4.84,32.08,0.18671,-0.55203,-0.15567,-0.79755,767
192,0.996,-0.034,0.201,0.732,0.427,0.0,-11.266,-78.344,-179.418,-27.007,-10.767,-7.907,29.51,-0.05859,-0.62915,0.07355,-0.77151,770,0.761,0.011,0.65,0.793,0.732,0.305,0.934,-49.664,-123.569,-23.62,-9.827,-0.413,27.14,-0.43185,0.36673,0.20508,0.798,768,0.581,0.009,0.807,0.305,0.61,0.549,0.775,-36.189,153.836,-15.893,-10.987,-29.88,31.59,-0.21344,-0.30405,0.06415,-0.92618,772,0.925,0.046,0.336,0.916,0.0,-0.305,7.141,-69.829,-158.599,-28.82,-12.713,-4.84,32.08,0.18671,-0.55203,-0.15567,-0.79755,782
193,1.0,-0.034,0.199,0.488,0.122,-0.244,-11.234,-78.338,-179.44,-27.007,-10.767,-7.907,29.51,-0.05859,-0.62915,0.07355,-0.77151,771,0.763,0.011,0.649,0.732,0.488,0.122,0.945,-49.653,-123.574,-23.62,-9.827,-0.413,27.14,-0.43185,0.36673,0.20508,0.798,769,0.584,0.009,0.805,0.061,0.366,0.244,0.769,-36.178,153.875,-15.893,-10.987,-29.88,31.59,-0.21344,-0.30405,0.06415,-0.92618,773,0.925,0.045,0.335,0.793,0.0,-0.488,7.185,-69.829,-158.61,-28.82,-12.713,-4.84,32.08,0.18671,-0.55203,-0.15567,-0.79755,783
194,1.001,-0.039,0.2,0.549,-0.061,-0.366,-11.184,-78.338,-179.473,-27.007,-10.767,-7.907,29.51,-0.05859,-0.62915,0.07355,-0.77151,776,0.762,0.012,0.647,0.305,0.427,0.0,0.95,-49.642,-123.591,-23.62,-9.827,-0.413,27.14,-0.43185,0.36673,0.20508,0.798,774,0.584,0.01,0.803,0.0,0.061,0.061,0.769,-36.167,153.907,-15.893,-10.987,-29.88,31.59,-0.21344,-0.30405,0.06415,-0.92618,778,0.924,0.046,0.333,0.366,0.0,-0.366,7.213,-69.824,-158.615,-28.82,-12.713,-4.84,32.08,0.18671,-0.55203,-0.15567,-0.79755,784
195,0.998,-0.039,0.197,0.305,-0.183,-0.122,-11.157,-78.344,-179.489,-27.007,-10.767,-7.907,29.51,-0.05859,-0.62915,0.07355,-0.77151,777,0.763,0.016,0.648,-0.061,0.549,0.0,0.95,-49.631,-123.596,-23.62,-9.827,-0.413,27.14,-0.43185,0.36673,0.20508,0.798,775,0.583,0.016,0.804,0.244,-0.732,0.0,0.769,-36.172,153.918,-15.893,-10.987,-29.88,31.59,-0.21344,-0.30405,0.06415,-0.92618,779,0.926,0.046,0.336,0.0,-0.366,-0.183,7.229,-69.829,-158.632,-28.82,-12.713,-4.84,32.08,0.18671,-0.55203,-0.15567,-0.79755,785
196,0.999,-0.037,0.197,-0.122,-0.244,0.122,-11.173,-78.349,-179.473,-27.007,-10.767,-7.907,29.51,-0.05859,-0.62915,0.07355,-0.77151,788,0.765,0.015,0.651,-0.122,0.305,-0.061,0.95,-49.625,-123.602,-23.62,-9.827,-0.413,27.14,-0.43185,0.36673,0.20508,0.798,786,0.586,0.015,0.804,0.366,-0.305,0.061,0.775,-36.183,153.94,-15.893,-10.987,-29.88,31.59,-0.21344,-0.30405,0.06415,-0.92618,780,0.927,0.045,0.334,-0.366,-0.549,-0.061,7.229,-69.84,-158.648,-28.82,-12.713,-4.84,32.08,0.18671,-0.55203,-0.15567,-0.79755,794
197,1.0,-0.034,0.197,-0.488,-0.61,0.061,-11.195,-78.36,-179.484,-27.007,-10.767,-7.907,29.51,-0.05859,-0.62915,0.07355,-0.77151,789,0.766,0.012,0.649,-0.061,0.061,-0.183,0.956,-49.62,-123.629,-23.62,-9.827,-0.413,27.14,-0.43185,0.36673,0.20508,0.798,787,0.587,0.012,0.804,0.366,0.0,-0.122,0.78,-36.183,153.957,-15.893,-10.987,-29.88,31.59,-0.21344,-0.30405,0.06415,-0.92618,781,0.929,0.043,0.334,-0.366,-0.671,-0.122,7.24,-69.857,-158.676,-28.82,-12.713,-4.84,32.08,0.18671,-0.55203,-0.15567,-0.79755,795
198,1.005,-0.036,0.197,-0.671,-0.793,0.0,-11.217,-78.376,-179.478,-27.007,-10.767,-7.907,29.51,-0.05859,-0.62915,0.07355,-0.77151,790,0.765,0.01,0.651,-0.244,-0.122,-0.244,0.956,-49.62,-123.662,-23.62,-9.827,-0.413,27.14,-0.43185,0.36673,0.20508,0.798,796,0.586,0.012,0.806,0.122,-0.183,-0.183,0.791,-36.183,153.957,-15.893,-10.987,-29.88,31.59,-0.21344,-0.30405,0.06415,-0.92618,792,0.93,0.044,0.332,-0.427,-0.671,-0.183,7.245,-69.868,-158.698,-28.82,-12.713,-4.84,32.08,0.18671,-0.55203,-0.15567,-0.79755,802
199,1.003,-0.039,0.198,-0.549,-0.854,-0.061,-11.234,-78.398,-179.473,-27.007,-10.767,-7.907,29.51,-0.05859,-0.62915,0.07355,-0.77151,791,0.766,0.011,0.65,-0.488,-0.244,-0.183,0.956,-49.62,-123.679,-23.62,-9.827,-0.413,27.14,-0.43185,0.36673,0.20508,0.798,797,0.586,0.013,0.807,-0.183,-0.61,-0.305,0.797,-36.189,153.962,-15.893,-10.987,-29.88,31.59,-0.21344,-0.30405,0.06415,-0.92618,793,0.931,0.042,0.335,-0.488,-0.854,-0.122,7.251,-69.884,-158.708,-28.82,-12.713,-4.84,32.08,0.18671,-0.55203,-0.15567,-0.79755,803
200,1.003,-0.042,0.203,-0.244,-0.427,0.061,-11.245,-78.404,-179.462,-27.007,-10.767,-7.907,29.51,-0.05859,-0.62915,0.07355,-0.77151,804,0.77,0.012,0.648,-0.366,-0.366,-0.183,0.95,-49.631,-123.684,-23.62,-9.827,-0.413,27.14,-0.43185,0.36673,0.20508,0.798,798,0.593,0.014,0.805,-0.061,-1.16,-0.122,0.797,-36.205,153.979,-15.893,-10.987,-29.88,31.59,-0.21344,-0.30405,0.06415,-0.92618,800,0.933,0.042,0.337,-0.366,-0.732,0.061,7.251,-69.901,-158.708,-28.82,-12.713,-4.84,32.08,0.18671,-0.55203,-0.15567,-0.79755,808
201,1.003,-0.041,0.204,-0.427,-0.366,0.244,-11.277,-78.415,-179.423,-27.007,-10.767,-7.907,29.51,-0.05859,-0.62915,0.07355,-0.77151,805,0.772,0.011,0.645,-0.549,-0.488,-0.244,0.95,-49.636,-123.701,-23.62,-9.827,-0.413,27.14,-0.43185,0.36673,0.20508,0.798,799,0.595,0.012,0.797,-0.793,-0.732,-0.305,0.791,-36.222,153.995,-15.893,-10.987,-29.88,31.59,-0.21344,-0.30405,0.06415,-0.92618,801,0.932,0.039,0.337,-0.183,-0.427,0.122,7.24,-69.911,-158.703,-28.82,-12.713,-4.84,32.08,0.18671,-0.55203,-0.15567,-0.79755,809
202,1.003,-0.041,0.203,-0.427,-0.305,0.183,-11.31,-78.42,-179.39,-27.5,-11.007,-7.38,29.51,-0.05859,-0.62915,0.07355,-0.77151,812,0.769,0.008,0.646,-0.061,-0.122,-0.122,0.95,-49.642,-123.712,-23.62,-9.827,-0.413,27.14,-0.43185,0.36673,0.20508,0.798,810,0.591,0.012,0.796,-0.122,0.305,-0.183,0.786,-36.222,154.006,-15.893,-10.987,-29.88,31.59,-0.21344,-0.30405,0.06415,-0.92618,806,0.927,0.04,0.334,-0.183,-0.122,0.061,7.234,-69.911,-158.708,-28.82,-12.713,-4.84,32.08,0.18671,-0.55203,-0.15567,-0.79755,814
203,0.999,-0.041,0.201,-0.183,-0.122,0.0,-11.31,-78.42,-179.368,-27.5,-11.007,-7.38,29.51,-0.05859,-0.62915,0.07355,-0.77151,813,0.762,0.006,0.647,0.366,0.244,-0.061,0.956,-49.642,-123.712,-23.62,-9.827,-0.413,27.14,-0.43185,0.36673,0.20508,0.798,811,0.584,0.01,0.799,0.244,0.671,0.0,0.791,-36.216,154.034,-15.893,-10.987,-29.88,31.59,-0.21344,-0.30405,0.06415,-0.92618,807,0.924,0.04,0.335,-0.061,0.122,0.0,7.234,-69.911,-158.698,-28.82,-12.713,-4.84,32.08,0.18671,-0.55203,-0.15567,-0.79755,815
204,0.999,-0.042,0.202,0.122,0.0,0.0,-11.31,-78.42,-179.379,-27.5,-11.007,-7.38,29.51,-0.05859,-0.62915,0.07355,-0.77151,816,0.762,0.009,0.647,0.122,0.305,0.061,0.956,-49.642,-123.712,-23.62,-9.827,-0.413,27.14,-0.43185,0.36673,0.20508,0.798,820,0.585,0.012,0.803,-0.061,-0.122,0.183,0.791,-36.211,154.056,-15.893,-10.987,-29.88,31.59,-0.21344,-0.30405,0.06415,-0.92618,818,0.924,0.042,0.334,0.0,0.183,0.0,7.229,-69.906,-158.703,-28.82,-12.713,-4.84,32.08,0.18671,-0.55203,-0.15567,-0.79755,826
205,0.999,-0.04,0.202,0.183,0.0,0.122,-11.316,-78.42,-179.374,-27.5,-11.007,-7.38,29.51,-0.05859,-0.62915,0.07355,-0.77151,817,0.764,0.011,0.646,0.183,0.305,0.183,0.956,-49.636,-123.712,-23.62,-9.827,-0.413,27.14,-0.43185,0.36673,0.20508,0.798,821,0.587,0.013,0.8,0.122,-0.916,0.244,0.791,-36.222,154.067,-15.893,-10.987,-29.88,31.59,-0.21344,-0.30405,0.06415,-0.92618,819,0.926,0.042,0.336,0.122,0.244,0.0,7.229,-69.906,-158.719,-28.82,-12.713,-4.84,32.08,0.18671,-0.55203,-0.15567,-0.79755,827
206,0.998,-0.038,0.199,0.122,-0.061,0.183,-11.332,-78.42,-179.368,-27.5,-11.007,-7.38,29.51,-0.05814,-0.62949,0.07297,-0.77133,828,0.764,0.01,0.646,0.427,0.122,0.183,0.956,-49.631,-123.712,-23.62,-9.827,-0.413,27.14,-0.43185,0.36673,0.20508,0.798,822,0.586,0.011,0.797,0.916,-0.549,0.366,0.797,-36.238,154.067,-15.893,-10.987,-29.88,31.59,-0.21344,-0.30405,0.06415,-0.92618,824,0.927,0.042,0.334,0.122,0.0,0.0,7.229,-69.906,-158.73,-29.14,-12.54,-4.247,32.08,0.18671,-0.55203,-0.15567,-0.79755,832
207,1.0,-0.038,0.2,0.183,0.0,0.061,-11.332,-78.42,-179.407,-27.5,-11.007,-7.38,29.51,-0.05814,-0.62949,0.07297,-0.77133,829,0.763,0.008,0.649,0.549,0.122,0.122,0.961,-49.631,-123.712,-23.62,-9.827,-0.413,27.14,-0.43185,0.36673,0.20508,0.798,823,0.585,0.008,0.801,0.916,0.244,0.183,0.813,-36.238,154.078,-15.893,-10.987,-29.88,31.59,-0.21344,-0.30405,0.06415,-0.92618,825,0.926,0.042,0.335,0.305,0.061,0.0,7.234,-69.906,-158.73,-29.14,-12.54,-4.247,32.08,0.18671,-0.55203,-0.15567,-0.79755,833
208,1.0,-0.04,0.197,0.122,-0.244,0.061,-11.338,-78.426,-179.423,-27.5,-11.007,-7.38,29.51,-0.05814,-0.62949,0.07297,-0.77133,838,0.765,0.009,0.648,0.183,0.122,0.061,0.967,-49.631,-123.712,-23.647,-10.0,-0.58,27.14,-0.43185,0.36673,0.20508,0.798,834,0.588,0.01,0.802,-0.366,0.061,0.0,0.813,-36.238,154.083,-15.527,-11.287,-29.76,31.59,-0.21344,-0.30405,0.06415,-0.92618,830,0.928,0.041,0.333,0.488,0.0,-0.122,7.251,-69.906,-158.741,-29.14,-12.54,-4.247,32.08,0.18671,-0.55203,-0.15567,-0.79755,842
209,1.002,-0.04,0.202,0.244,-0.122,0.061,-11.338,-78.426,-179.429,-27.5,-11.007,-7.38,29.51,-0.05814,-0.62949,0.07297,-0.77133,839,0.767,0.01,0.647,0.0,0.183,0.183,0.967,-49.631,-123.695,-23.647,-10.0,-0.58,27.14,-0.43185,0.36673,0.20508,0.798,835,0.589,0.012,0.801,-0.549,0.061,0.0,0.807,-36.233,154.072,-15.527,-11.287,-29.76,31.59,-0.21344,-0.30405,0.06415,-0.92618,831,0.929,0.044,0.336,0.305,0.122,-0.122,7.262,-69.906,-158.752,-29.14,-12.54,-4.247,32.08,0.18671,-0.55203,-0.15567,-0.79755,843
210,1.003,-0.038,0.199,0.061,-0.244,0.122,-11.349,-78.431,-179.434,-27.5,-11.007,-7.38,29.51,-0.05814,-0.62949,0.07297,-0.77133,846,0.768,0.011,0.647,0.122,0.122,0.183,0.961,-49.625,-123.684,-23.647,-10.0,-0.58,27.14,-0.43137,0.36639,0.20474,0.79852,836,0.59,0.011,0.801,-0.183,0.0,0.122,0.797,-36.233,154.05,-15.527,-11.287,-29.76,31.59,-0.21344,-0.30405,0.06415,-0.92618,840,0.93,0.042,0.333,-0.061,0.122,0.0,7.256,-69.901,-158.78,-29.14,-12.54,-4.247,32.08,0.18637,-0.55237,-0.15634,-0.79724,850
211,1.002,-0.04,0.198,0.061,0.0,0.0,-11.349,-78.431,-179.451,-27.5,-11.007,-7.38,29.51,-0.05814,-0.62949,0.07297,-0.77133,847,0.768,0.01,0.65,0.305,0.061,0.0,0.961,-49.625,-123.684,-23.647,-10.0,-0.58,27.14,-0.43137,0.36639,0.20474,0.79852,837,0.59,0.011,0.805,0.122,0.0,0.122,0.797,-36.233,154.045,-15.527,-11.287,-29.76,31.59,-0.21344,-0.30405,0.06415,-0.92618,841,0.93,0.042,0.335,0.0,0.122,0.0,7.256,-69.901,-158.818,-29.14,-12.54,-4.247,32.08,0.18637,-0.55237,-0.15634,-0.79724,851
212,1.003,-0.04,0.202,0.061,-0.061,0.0,-11.343,-78.437,-179.462,-27.5,-11.007,-7.38,29.51,-0.05814,-0.62949,0.07297,-0.77133,852,0.768,0.01,0.65,0.366,0.183,0.061,0.967,-49.625,-123.684,-23.647,-10.0,-0.58,27.14,-0.43137,0.36639,0.20474,0.79852,844,0.591,0.012,0.802,0.793,-0.244,0.244,0.802,-36.238,154.023,-15.527,-11.287,-29.76,31.59,-0.21124,-0.3045,0.06335,-0.92657,848,0.928,0.042,0.334,0.061,0.0,-0.061,7.256,-69.901,-158.879,-29.14,-12.54,-4.247,32.08,0.18637,-0.55237,-0.15634,-0.79724,856
213,1.001,-0.04,0.199,-0.122,-0.122,0.0,-11.349,-78.437,-179.451,-27.5,-11.007,-7.38,29.51,-0.05814,-0.62949,0.07297,-0.77133,853,0.767,0.008,0.65,0.366,0.366,0.122,0.972,-49.62,-123.673,-23.647,-10.0,-0.58,27.14,-0.43137,0.36639,0.20474,0.79852,845,0.589,0.01,0.803,0.183,-0.183,0.122,0.807,-36.244,154.006,-15.527,-11.287,-29.76,31.59,-0.21124,-0.3045,0.06335,-0.92657,849,0.926,0.043,0.333,-0.122,0.061,-0.122,7.256,-69.901,-158.923,-29.14,-12.54,-4.247,32.08,0.18637,-0.55237,-0.15634,-0.79724,857
214,1.0,-0.04,0.199,-0.122,0.0,0.0,-11.349,-78.437,-179.44,-27.5,-11.007,-7.38,29.51,-0.05814,-0.62949,0.07297,-0.77133,864,0.764,0.01,0.647,0.061,0.366,0.122,0.972,-49.614,-123.662,-23.647,-10.0,-0.58,27.14,-0.43137,0.36639,0.20474,0.79852,858,0.587,0.012,0.801,-0.366,-0.122,0.061,0.807,-36.244,153.99,-15.527,-11.287,-29.76,31.59,-0.21124,-0.3045,0.06335,-0.92657,854,0.928,0.042,0.335,-0.183,0.122,0.061,7.256,-69.901,-158.961,-29.14,-12.54,-4.247,32.08,0.18637,-0.55237,-0.15634,-0.79724,860
215,1.0,-0.04,0.2,0.0,0.122,0.0,-11.343,-78.437,-179.445,-27.5,-11.007,-7.38,29.51,-0.05814,-0.62949,0.07297,-0.77133,865,0.765,0.013,0.646,0.0,0.488,0.122,0.967,-49.609,-123.646,-23.647,-10.0,-0.58,27.14,-0.43137,0.36639,0.20474,0.79852,859,0.59,0.014,0.798,0.183,0.305,0.122,0.802,-36.244,153.962,-15.527,-11.287,-29.76,31.59,-0.21124,-0.3045,0.06335,-0.92657,855,0.928,0.041,0.337,-0.244,0.244,0.183,7.251,-69.901,-158.972,-29.14,-12.54,-4.247,32.08,0.18637,-0.55237,-0.15634,-0.79724,861
216,1.001,-0.041,0.2,0.0,0.0,0.0,-11.343,-78.437,-179.462,-27.5,-11.007,-7.38,29.51,-0.05814,-0.62949,0.07297,-0.77133,870,0.766,0.011,0.647,0.0,0.549,0.0,0.967,-49.598,-123.64,-23.647,-10.0,-0.58,27.14,-0.43137,0.36639,0.20474,0.79852,862,0.589,0.012,0.801,0.0,0.305,-0.061,0.802,-36.238,153.951,-15.527,-11.287,-29.76,31.59,-0.21124,-0.3045,0.06335,-0.92657,866,0.927,0.04,0.336,-0.244,0.244,0.0,7.234,-69.895,-158.978,-29.14,-12.54,-4.247,32.08,0.18637,-0.55237,-0.15634,-0.79724,872
217,1.003,-0.041,0.202,0.061,-0.061,0.0,-11.343,-78.437,-179.478,-27.5,-11.007,-7.38,29.51,-0.05814,-0.62949,0.07297,-0.77133,871,0.764,0.009,0.651,0.0,0.488,0.0,0.967,-49.592,-123.635,-23.647,-10.0,-0.58,27.14,-0.43137,0.36639,0.20474,0.79852,863,0.586,0.01,0.802,-0.305,0.0,-0.183,0.802,-36.238,153.951,-15.527,-11.287,-29.76,31.59,-0.21124,-0.3045,0.06335,-0.92657,867,0.927,0.04,0.333,0.0,0.366,0.0,7.229,-69.89,-158.983,-29.14,-12.54,-4.247,32.08,0.18637,-0.55237,-0.15634,-0.79724,873
218,1.001,-0.04,0.2,-0.061,0.0,0.0,-11.343,-78.437,-179.528,-27.5,-11.007,-7.38,29.51,-0.05814,-0.62949,0.07297,-0.77133,874,0.763,0.005,0.65,0.305,0.488,0.0,0.967,-49.581,-123.635,-23.647,-10.0,-0.58,27.14,-0.43137,0.36639,0.20474,0.79852,868,0.586,0.009,0.804,-0.427,-0.671,0.0,0.797,-36.244,153.94,-15.527,-11.287,-29.76,31.59,-0.21124,-0.3045,0.06335,-0.92657,876,0.926,0.042,0.333,0.244,0.305,-0.061,7.224,-69.884,-158.994,-29.14,-12.54,-4.247,32.08,0.18637,-0.55237,-0.15634,-0.79724,880
219,1.001,-0.04,0.199,0.0,0.122,0.0,-11.343,-78.437,-179.588,-27.5,-11.007,-7.38,29.51,-0.05814,-0.62949,0.07297,-0.77133,875,0.764,0.009,0.652,0.305,0.427,0.0,0.972,-49.576,-123.635,-23.647,-10.0,-0.58,27.14,-0.43137,0.36639,0.20474,0.79852,869,0.588,0.011,0.804,0.0,-0.366,0.366,0.791,-36.255,153.962,-15.527,-11.287,-29.76,31.59,-0.21124,-0.3045,0.06335,-0.92657,877,0.926,0.044,0.334,0.366,0.183,0.0,7.229,-69.884,-158.994,-29.14,-12.54,-4.247,32.08,0.18637,-0.55237,-0.15634,-0.79724,881
220,1.0,-0.038,0.197,0.305,0.183,0.0,-11.332,-78.437,-179.643,-26.853,-10.907,-8.98,29.51,-0.05814,-0.62949,0.07297,-0.77133,884,0.762,0.011,0.652,0.061,0.427,0.305,0.967,-49.565,-123.629,-23.647,-10.0,-0.58,27.14,-0.43137,0.36639,0.20474,0.79852,882,0.586,0.01,0.806,0.0,-0.183,0.183,0.786,-36.26,153.979,-15.527,-11.287,-29.76,31.59,-0.21124,-0.3045,0.06335,-0.92657,878,0.926,0.044,0.337,0.244,0.0,0.0,7.234,-69.879,-158.983,-29.14,-12.54,-4.247,32.08,0.18637,-0.55237,-0.15634,-0.79724,886
221,1.0,-0.039,0.198,0.366,0.183,0.0,-11.321,-78.431,-179.698,-26.853,-10.907,-8.98,29.51,-0.05814,-0.62949,0.07297,-0.77133,885,0.76,0.01,0.653,0.183,0.183,0.183,0.961,-49.565,-123.624,-23.647,-10.0,-0.58,27.14,-0.43137,0.36639,0.20474,0.79852,883,0.584,0.01,0.806,0.0,-0.427,0.183,0.786,-36.266,153.995,-15.527,-11.287,-29.76,31.59,-0.21124,-0.3045,0.06335,-0.92657,879,0.928,0.041,0.335,0.061,-0.122,0.0,7.234,-69.884,-158.994,-29.14,-12.54,-4.247,32.08,0.18637,-0.55237,-0.15634,-0.79724,887
222,1.0,-0.039,0.2,0.183,0.0,0.0,-11.316,-78.431,-179.747,-26.853,-10.907,-8.98,29.51,-0.05814,-0.62949,0.07297,-0.77133,888,0.762,0.01,0.65,0.366,-0.061,0.0,0.967,-49.565,-123.629,-23.647,-10.0,-0.58,27.14,-0.43137,0.36639,0.20474,0.79852,892,0.586,0.01,0.804,-0.244,-0.916,0.0,0.78,-36.282,154.006,-15.527,-11.287,-29.76,31.59,-0.21124,-0.3045,0.06335,-0.92657,890,0.928,0.041,0.334,-0.061,-0.305,0.0,7.24,-69.89,-159.022,-29.14,-12.54,-4.247,32.08,0.18637,-0.55237,-0.15634,-0.79724,898
223,1.0,-0.041,0.197,0.0,-0.183,0.0,-11.316,-78.437,-179.786,-26.853,-10.907,-8.98,29.51,-0.05814,-0.62949,0.07297,-0.77133,889,0.768,0.009,0.649,0.244,-0.122,0.122,0.972,-49.565,-123.635,-23.647,-10.0,-0.58,27.14,-0.43137,0.36639,0.20474,0.79852,893,0.593,0.011,0.8,-0.122,-1.038,0.0,0.775,-36.304,154.017,-15.527,-11.287,-29.76,31.59,-0.21124,-0.3045,0.06335,-0.92657,891,0.927,0.042,0.335,0.0,-0.122,0.0,7.24,-69.895,-159.055,-29.14,-12.54,-4.247,32.08,0.18637,-0.55237,-0.15634,-0.79724,899
224,1.0,-0.04,0.2,-0.061,-0.122,0.0,-11.321,-78.442,-179.791,-26.853,-10.907,-8.98,29.51,-0.06094,-0.62933,0.07526,-0.77103,900,0.766,0.009,0.647,0.061,0.0,0.122,0.967,-49.565,-123.629,-23.647,-10.0,-0.58,27.14,-0.43137,0.36639,0.20474,0.79852,894,0.59,0.011,0.797,0.244,-0.366,0.0,0.78,-36.31,154.017,-15.527,-11.287,-29.76,31.59,-0.21124,-0.3045,0.06335,-0.92657,896,0.924,0.044,0.338,0.061,0.122,0.0,7.234,-69.895,-159.071,-29.16,-12.64,-4.16,32.08,0.18637,-0.55237,-0.15634,-0.79724,902
225,0.998,-0.039,0.202,0.0,0.0,0.0,-11.321,-78.442,-179.78,-26.853,-10.907,-8.98,29.51,-0.06094,-0.62933,0.07526,-0.77103,901,0.761,0.011,0.648,0.183,0.061,0.122,0.967,-49.565,-123.618,-23.647,-10.0,-0.58,27.14,-0.43137,0.36639,0.20474,0.79852,895,0.586,0.011,0.8,0.549,0.061,0.122,0.786,-36.31,154.028,-15.527,-11.287,-29.76,31.59,-0.21124,-0.3045,0.06335,-0.92657,897,0.926,0.043,0.338,0.0,0.244,0.0,7.234,-69.895,-159.077,-29.16,-12.64,-4.16,32.08,0.18637,-0.55237,-0.15634,-0.79724,903
226,1.0,-0.039,0.204,0.0,0.0,0.0,-11.316,-78.442,-179.758,-26.853,-10.907,-8.98,29.51,-0.06094,-0.62933,0.07526,-0.77103,906,0.761,0.011,0.651,0.427,0.122,0.061,0.972,-49.565,-123.624,-23.647,-10.0,-0.58,27.14,-0.43137,0.36639,0.20474,0.79852,904,0.585,0.011,0.801,0.488,-0.061,0.061,0.797,-36.31,154.039,-15.847,-10.813,-29.913,31.59,-0.21124,-0.3045,0.06335,-0.92657,908,0.928,0.043,0.337,-0.244,0.122,0.0,7.234,-69.89,-159.088,-29.16,-12.64,-4.16,32.08,0.18637,-0.55237,-0.15634,-0.79724,910
227,1.002,-0.039,0.204,0.0,0.0,0.0,-11.316,-78.442,-179.747,-26.853,-10.907,-8.98,29.51,-0.06094,-0.62933,0.07526,-0.77103,907,0.763,0.01,0.65,0.0,0.183,0.061,0.972,-49.559,-123.613,-23.647,-10.0,-0.58,27.14,-0.43137,0.36639,0.20474,0.79852,905,0.588,0.011,0.802,0.122,-0.488,0.0,0.802,-36.321,154.034,-15.847,-10.813,-29.913,31.59,-0.21124,-0.3045,0.06335,-0.92657,909,0.93,0.042,0.335,-0.061,0.244,0.0,7.229,-69.884,-159.082,-29.16,-12.64,-4.16,32.08,0.18637,-0.55237,-0.15634,-0.79724,911
228,1.003,-0.039,0.2,0.0,0.0,0.0,-11.316,-78.442,-179.742,-26.853,-10.907,-8.98,29.51,-0.06094,-0.62933,0.07526,-0.77103,914,0.765,0.011,0.649,0.122,0.061,0.122,0.967,-49.559,-123.613,-23.707,-9.947,-0.227,27.14,-0.43137,0.36639,0.20474,0.79852,912,0.591,0.011,0.801,0.0,-0.549,0.0,0.802,-36.332,154.039,-15.847,-10.813,-29.913,31.59,-0.21121,-0.3053,0.06351,-0.9263,916,0.929,0.042,0.334,0.061,0.183,0.0,7.224,-69.884,-159.088,-29.16,-12.64,-4.16,32.08,0.18399,-0.55273,-0.15457,-0.79791,922
229,1.001,-0.039,0.2,0.122,0.183,0.0,-11.31,-78.442,-179.736,-26.853,-10.907,-8.98,29.51,-0.06094,-0.62933,0.07526,-0.77103,915,0.769,0.012,0.65,0.244,0.061,0.0,0.972,-49.559,-123.613,-23.707,-9.947,-0.227,27.14,-0.43137,0.36639,0.20474,0.79852,913,0.594,0.011,0.8,0.305,0.061,-0.061,0.807,-36.332,154.05,-15.847,-10.813,-29.913,31.59,-0.21121,-0.3053,0.06351,-0.9263,917,0.926,0.041,0.339,0.0,0.244,0.0,7.224,-69.879,-159.093,-29.16,-12.64,-4.16,32.08,0.18399,-0.55273,-0.15457,-0.79791,923
230,0.999,-0.041,0.2,0.0,0.122,0.0,-11.305,-78.442,-179.736,-26.853,-10.907,-8.98,29.51,-0.06094,-0.62933,0.07526,-0.77103,924,0.765,0.008,0.65,0.305,0.305,0.0,0.978,-49.554,-123.618,-23.707,-9.947,-0.227,27.14,-0.43137,0.36639,0.20474,0.79852,918,0.59,0.011,0.8,0.61,0.0,0.0,0.818,-36.332,154.061,-15.847,-10.813,-29.913,31.59,-0.21121,-0.3053,0.06351,-0.9263,920,0.925,0.042,0.338,0.122,0.305,0.0,7.224,-69.873,-159.099,-29.16,-12.64,-4.16,32.08,0.18399,-0.55273,-0.15457,-0.79791,926
231,0.998,-0.039,0.199,-0.122,-0.061,0.0,-11.299,-78.437,-179.742,-26.853,-10.907,-8.98,29.51,-0.06094,-0.62933,0.07526,-0.77103,925,0.761,0.008,0.653,0.305,0.427,0.061,0.983,-49.548,-123.618,-23.707,-9.947,-0.227,27.14,-0.43137,0.36639,0.20474,0.79852,919,0.587,0.01,0.802,0.366,-0.244,0.244,0.824,-36.332,154.061,-15.847,-10.813,-29.913,31.59,-0.21121,-0.3053,0.06351,-0.9263,921,0.925,0.044,0.334,0.0,0.366,0.0,7.224,-69.868,-159.093,-29.16,-12.64,-4.16,32.08,0.18399,-0.55273,-0.15457,-0.79791,927
232,1.001,-0.037,0.198,-0.122,-0.244,0.0,-11.305,-78.442,-179.725,-26.853,-10.907,-8.98,29.51,-0.06094,-0.62933,0.07526,-0.77103,930,0.762,0.01,0.651,0.122,0.427,0.122,0.978,-49.543,-123.635,-23.707,-9.947,-0.227,27.14,-0.43204,0.36563,0.2048,0.79849,928,0.588,0.01,0.802,0.0,-0.305,0.061,0.824,-36.337,154.067,-15.847,-10.813,-29.913,31.59,-0.21121,-0.3053,0.06351,-0.9263,932,0.926,0.042,0.333,-0.061,0.244,0.0,7.218,-69.862,-159.082,-29.16,-12.64,-4.16,32.08,0.18399,-0.55273,-0.15457,-0.79791,934
233,1.002,-0.04,0.197,-0.061,-0.122,0.0,-11.305,-78.448,-179.714,-26.853,-10.907,-8.98,29.51,-0.06094,-0.62933,0.07526,-0.77103,931,0.762,0.011,0.65,-0.061,0.488,0.0,0.978,-49.532,-123.646,-23.707,-9.947,-0.227,27.14,-0.43204,0.36563,0.2048,0.79849,929,0.588,0.011,0.801,0.0,-0.549,-0.061,0.824,-36.348,154.05,-15.847,-10.813,-29.913,31.59,-0.21121,-0.3053,0.06351,-0.9263,933,0.927,0.041,0.335,0.122,0.0,0.0,7.218,-69.862,-159.082,-29.16,-12.64,-4.16,32.08,0.18399,-0.55273,-0.15457,-0.79791,935
