Index,L5_Acceleration X(g),L5_Acceleration Y(g),L5_Acceleration Z(g),L5_Angular velocity X(°/s),L5_Angular velocity Y(°/s),L5_Angular velocity Z(°/s),L5_Angle X(°),L5_Angle Y(°),L5_Angle Z(°),L5_Magnetic field X(ʯt),L5_Magnetic field Y(ʯt),L5_Magnetic field Z(ʯt),L5_Temperature(℃),L5_Quaternions 0(),L5_Quaternions 1(),L5_Quaternions 2(),L5_Quaternions 3(),L5___orig_idx,T4_Acceleration X(g),T4_Acceleration Y(g),T4_Acceleration Z(g),T4_Angular velocity X(°/s),T4_Angular velocity Y(°/s),T4_Angular velocity Z(°/s),T4_Angle X(°),T4_Angle Y(°),T4_Angle Z(°),T4_Magnetic field X(ʯt),T4_Magnetic field Y(ʯt),T4_Magnetic field Z(ʯt),T4_Temperature(℃),T4_Quaternions 0(),T4_Quaternions 1(),T4_Quaternions 2(),T4_Quaternions 3(),T4___orig_idx,C7_Acceleration X(g),C7_Acceleration Y(g),C7_Acceleration Z(g),C7_Angular velocity X(°/s),C7_Angular velocity Y(°/s),C7_Angular velocity Z(°/s),C7_Angle X(°),C7_Angle Y(°),C7_Angle Z(°),C7_Magnetic field X(ʯt),C7_Magnetic field Y(ʯt),C7_Magnetic field Z(ʯt),C7_Temperature(℃),C7_Quaternions 0(),C7_Quaternions 1(),C7_Quaternions 2(),C7_Quaternions 3(),C7___orig_idx,T12_Acceleration X(g),T12_Acceleration Y(g),T12_Acceleration Z(g),T12_Angular velocity X(°/s),T12_Angular velocity Y(°/s),T12_Angular velocity Z(°/s),T12_Angle X(°),T12_Angle Y(°),T12_Angle Z(°),T12_Magnetic field X(ʯt),T12_Magnetic field Y(ʯt),T12_Magnetic field Z(ʯt),T12_Temperature(℃),T12_Quaternions 0(),T12_Quaternions 1(),T12_Quaternions 2(),T12_Quaternions 3(),T12___orig_idx
0,0.938,0.027,0.39,0.061,0.122,0.0,3.851,-67.44,166.492,-26.28,-11.64,-12.607,29.55,0.08176,0.55405,-0.03909,0.82745,6,0.69,0.172,0.704,0.0,-0.427,0.183,13.892,-43.627,-130.347,-21.84,-11.62,-1.867,28.17,-0.42828,0.28729,0.25726,0.81717,4,0.459,-0.073,0.886,1.282,-1.282,0.122,-4.933,-27.4,166.613,-13.6,-7.14,-32.66,32.17,-0.12326,-0.22968,0.06927,-0.96289,0,0.957,0.011,0.208,-0.244,0.122,0.0,2.829,-77.558,-160.922,-30.267,-10.627,-2.98,32.5,0.14453,-0.61368,-0.12299,-0.76636,2
1,0.94,0.025,0.39,-0.061,0.183,0.0,3.851,-67.434,166.514,-26.28,-11.64,-12.607,29.55,0.08176,0.55405,-0.03909,0.82745,7,0.694,0.176,0.703,0.305,-0.427,0.366,13.892,-43.632,-130.353,-21.84,-11.62,-1.867,28.17,-0.42828,0.28729,0.25726,0.81717,5,0.451,-0.075,0.887,1.648,-1.587,0.122,-4.905,-27.427,166.608,-13.6,-7.14,-32.66,32.17,-0.12326,-0.22968,0.06927,-0.96289,1,0.963,0.008,0.212,-0.488,0.0,0.061,2.812,-77.558,-160.911,-30.267,-10.627,-2.98,32.5,0.14453,-0.61368,-0.12299,-0.76636,3
2,0.941,0.027,0.39,-0.244,0.0,0.0,3.845,-67.434,166.536,-26.353,-11.68,-12.807,29.55,0.08176,0.55405,-0.03909,0.82745,10,0.686,0.174,0.705,-0.061,-0.061,0.244,13.892,-43.638,-130.347,-21.84,-11.62,-1.867,28.17,-0.42828,0.28729,0.25726,0.81717,12,0.46,-0.074,0.876,0.854,-2.319,0.366,-4.889,-27.466,166.608,-13.6,-7.14,-32.66,32.17,-0.12326,-0.22968,0.06927,-0.96289,8,0.966,0.008,0.213,-0.427,-0.183,0.122,2.791,-77.558,-160.9,-30.553,-10.707,-2.447,32.5,0.14453,-0.61368,-0.12299,-0.76636,18
3,0.938,0.026,0.392,-0.061,-0.122,0.0,3.845,-67.434,166.558,-26.353,-11.68,-12.807,29.55,0.08176,0.55405,-0.03909,0.82745,11,0.687,0.171,0.707,0.122,-0.061,0.244,13.892,-43.638,-130.342,-21.84,-11.62,-1.867,28.17,-0.42828,0.28729,0.25726,0.81717,13,0.463,-0.071,0.873,0.305,-0.854,0.732,-4.889,-27.488,166.619,-13.6,-7.14,-32.66,32.17,-0.12326,-0.22968,0.06927,-0.96289,9,0.959,0.009,0.213,0.061,-0.183,0.061,2.78,-77.563,-160.911,-30.553,-10.707,-2.447,32.5,0.14453,-0.61368,-0.12299,-0.76636,19
4,0.939,0.026,0.395,0.122,0.0,0.0,3.845,-67.434,166.58,-26.353,-11.68,-12.807,29.55,0.08176,0.55405,-0.03909,0.82745,16,0.694,0.172,0.704,0.671,-0.122,0.244,13.892,-43.643,-130.336,-21.313,-11.033,-2.2,28.17,-0.42828,0.28729,0.25726,0.81717,24,0.454,-0.076,0.876,0.549,-0.183,0.61,-4.883,-27.493,166.63,-13.6,-7.14,-32.66,32.17,-0.12326,-0.22968,0.06927,-0.96289,14,0.96,0.008,0.213,0.183,-0.183,0.0,2.78,-77.569,-160.906,-30.553,-10.707,-2.447,32.5,0.1442,-0.61438,-0.12247,-0.76593,20
5,0.938,0.027,0.395,0.061,0.061,0.0,3.851,-67.434,166.602,-26.353,-11.68,-12.807,29.55,0.08176,0.55405,-0.03909,0.82745,17,0.694,0.177,0.704,0.732,0.0,0.244,13.903,-43.643,-130.336,-21.313,-11.033,-2.2,28.17,-0.42828,0.28729,0.25726,0.81717,25,0.455,-0.078,0.879,0.854,-0.061,0.732,-4.878,-27.493,166.646,-13.6,-7.14,-32.66,32.17,-0.12326,-0.22968,0.06927,-0.96289,15,0.964,0.009,0.215,0.305,-0.061,0.0,2.78,-77.569,-160.889,-30.553,-10.707,-2.447,32.5,0.1442,-0.61438,-0.12247,-0.76593,21
6,0.941,0.026,0.395,-0.061,0.0,0.0,3.845,-67.429,166.619,-26.353,-11.68,-12.807,29.55,0.07852,0.55423,-0.03699,0.82776,34,0.691,0.176,0.705,0.244,0.122,0.183,13.909,-43.638,-130.336,-21.313,-11.033,-2.2,28.17,-0.42828,0.28729,0.25726,0.81717,28,0.464,-0.078,0.875,0.549,-0.122,0.549,-4.872,-27.493,166.663,-13.6,-7.14,-32.66,32.17,-0.12326,-0.22968,0.06927,-0.96289,22,0.964,0.008,0.212,0.488,0.122,0.0,2.785,-77.563,-160.867,-30.553,-10.707,-2.447,32.5,0.1442,-0.61438,-0.12247,-0.76593,30
7,0.941,0.025,0.395,-0.061,0.061,0.0,3.845,-67.429,166.641,-26.353,-11.68,-12.807,29.55,0.07852,0.55423,-0.03699,0.82776,35,0.69,0.172,0.707,0.122,0.122,0.061,13.909,-43.638,-130.342,-21.313,-11.033,-2.2,28.17,-0.42828,0.28729,0.25726,0.81717,29,0.463,-0.072,0.876,0.427,0.366,0.183,-4.867,-27.488,166.685,-13.6,-7.14,-32.66,32.17,-0.12326,-0.22968,0.06927,-0.96289,23,0.964,0.01,0.212,0.366,0.427,-0.061,2.791,-77.558,-160.867,-30.553,-10.707,-2.447,32.5,0.1442,-0.61438,-0.12247,-0.76593,31
8,0.941,0.026,0.392,0.0,0.183,0.0,3.845,-67.423,166.663,-26.353,-11.68,-12.807,29.55,0.07852,0.55423,-0.03699,0.82776,40,0.689,0.176,0.707,0.0,0.0,0.061,13.909,-43.638,-130.353,-21.313,-11.033,-2.2,28.17,-0.4278,0.28763,0.25696,0.81738,32,0.459,-0.075,0.88,0.244,0.671,0.061,-4.861,-27.477,166.679,-13.6,-7.14,-32.66,32.17,-0.12326,-0.22968,0.06927,-0.96289,26,0.963,0.009,0.21,0.793,0.488,-0.061,2.807,-77.547,-160.878,-30.553,-10.707,-2.447,32.5,0.1442,-0.61438,-0.12247,-0.76593,36
9,0.94,0.027,0.393,0.0,0.244,0.0,3.845,-67.418,166.679,-26.353,-11.68,-12.807,29.55,0.07852,0.55423,-0.03699,0.82776,41,0.693,0.175,0.704,0.244,-0.061,0.0,13.914,-43.638,-130.358,-21.313,-11.033,-2.2,28.17,-0.4278,0.28763,0.25696,0.81738,33,0.457,-0.078,0.879,0.0,0.366,0.0,-4.861,-27.471,166.701,-13.6,-7.14,-32.66,32.17,-0.12326,-0.22968,0.06927,-0.96289,27,0.961,0.012,0.211,0.122,0.122,0.0,2.807,-77.547,-160.895,-30.553,-10.707,-2.447,32.5,0.1442,-0.61438,-0.12247,-0.76593,37
10,0.941,0.026,0.392,0.0,0.122,0.0,3.845,-67.412,166.701,-26.353,-11.68,-12.807,29.55,0.07852,0.55423,-0.03699,0.82776,46,0.694,0.173,0.704,0.488,-0.122,0.061,13.92,-43.638,-130.353,-21.313,-11.033,-2.2,28.17,-0.4278,0.28763,0.25696,0.81738,44,0.457,-0.075,0.884,0.244,0.0,0.0,-4.856,-27.466,166.729,-13.6,-7.14,-32.66,32.17,-0.12326,-0.22968,0.06927,-0.96289,38,0.963,0.01,0.213,0.0,0.183,0.0,2.807,-77.542,-160.895,-30.553,-10.707,-2.447,32.5,0.1442,-0.61438,-0.12247,-0.76593,42
11,0.942,0.026,0.39,-0.061,0.0,0.0,3.845,-67.407,166.723,-26.353,-11.68,-12.807,29.55,0.07852,0.55423,-0.03699,0.82776,47,0.693,0.174,0.708,0.0,0.0,0.061,13.925,-43.638,-130.347,-21.313,-11.033,-2.2,28.17,-0.4278,0.28763,0.25696,0.81738,45,0.463,-0.075,0.877,0.122,0.061,-0.122,-4.856,-27.466,166.734,-13.6,-7.14,-32.66,32.17,-0.12326,-0.22968,0.06927,-0.96289,39,0.965,0.008,0.212,0.061,0.427,0.0,2.802,-77.536,-160.873,-30.553,-10.707,-2.447,32.5,0.1442,-0.61438,-0.12247,-0.76593,43
12,0.942,0.025,0.39,-0.183,0.061,0.0,3.84,-67.407,166.74,-26.353,-11.68,-12.807,29.55,0.07852,0.55423,-0.03699,0.82776,52,0.69,0.174,0.706,-0.366,0.061,0.0,13.92,-43.638,-130.347,-21.313,-11.033,-2.2,28.17,-0.4278,0.28763,0.25696,0.81738,54,0.464,-0.075,0.877,0.061,0.366,-0.183,-4.85,-27.46,166.729,-13.653,-7.273,-32.007,32.17,-0.12326,-0.22968,0.06927,-0.96289,48,0.966,0.006,0.209,0.0,0.183,-0.061,2.802,-77.531,-160.862,-30.553,-10.707,-2.447,32.5,0.1442,-0.61438,-0.12247,-0.76593,50
13,0.94,0.024,0.391,-0.183,0.061,0.0,3.834,-67.407,166.761,-26.353,-11.68,-12.807,29.55,0.07852,0.55423,-0.03699,0.82776,53,0.69,0.172,0.704,-0.122,-0.061,0.0,13.914,-43.638,-130.342,-21.313,-11.033,-2.2,28.17,-0.4278,0.28763,0.25696,0.81738,55,0.461,-0.075,0.881,-0.061,0.305,-0.122,-4.85,-27.455,166.696,-13.653,-7.273,-32.007,32.17,-0.12326,-0.22968,0.06927,-0.96289,49,0.961,0.008,0.209,0.0,0.061,-0.061,2.802,-77.531,-160.862,-30.553,-10.707,-2.447,32.5,0.1442,-0.61438,-0.12247,-0.76593,51
14,0.94,0.023,0.393,0.0,0.183,0.0,3.834,-67.401,166.778,-26.353,-11.68,-12.807,29.55,0.07852,0.55423,-0.03699,0.82776,56,0.692,0.171,0.703,0.244,-0.427,0.061,13.914,-43.638,-130.331,-21.313,-11.033,-2.2,28.17,-0.4278,0.28763,0.25696,0.81738,58,0.457,-0.076,0.883,0.0,-0.183,-0.061,-4.85,-27.46,166.674,-13.653,-7.273,-32.007,32.17,-0.12253,-0.23074,0.06833,-0.9628,62,0.959,0.009,0.212,0.122,0.122,0.0,2.802,-77.525,-160.862,-30.553,-10.707,-2.447,32.5,0.1442,-0.61438,-0.12247,-0.76593,60
15,0.94,0.024,0.393,0.0,0.366,0.0,3.834,-67.396,166.794,-26.353,-11.68,-12.807,29.55,0.07852,0.55423,-0.03699,0.82776,57,0.694,0.174,0.706,0.305,-0.366,0.244,13.92,-43.649,-130.314,-21.313,-11.033,-2.2,28.17,-0.4278,0.28763,0.25696,0.81738,59,0.458,-0.077,0.878,0.0,-0.61,-0.122,-4.85,-27.471,166.652,-13.653,-7.273,-32.007,32.17,-0.12253,-0.23074,0.06833,-0.9628,63,0.963,0.006,0.209,0.183,0.305,0.0,2.796,-77.525,-160.862,-30.553,-10.707,-2.447,32.5,0.1442,-0.61438,-0.12247,-0.76593,61
16,0.94,0.026,0.394,-0.122,0.366,0.0,3.829,-67.385,166.816,-26.353,-11.68,-12.807,29.55,0.07852,0.55423,-0.03699,0.82776,68,0.688,0.177,0.708,0.0,-0.061,0.183,13.92,-43.654,-130.298,-21.313,-11.033,-2.2,28.17,-0.4278,0.28763,0.25696,0.81738,66,0.463,-0.077,0.875,0.0,0.0,0.0,-4.85,-27.471,166.657,-13.653,-7.273,-32.007,32.17,-0.12253,-0.23074,0.06833,-0.9628,64,0.967,0.007,0.212,0.0,0.366,0.0,2.791,-77.52,-160.845,-30.553,-10.707,-2.447,32.5,0.1442,-0.61438,-0.12247,-0.76593,72
17,0.937,0.026,0.393,-0.061,0.183,0.0,3.823,-67.379,166.833,-26.353,-11.68,-12.807,29.55,0.07852,0.55423,-0.03699,0.82776,69,0.684,0.174,0.706,0.0,0.0,0.061,13.914,-43.654,-130.298,-21.313,-11.033,-2.2,28.17,-0.4278,0.28763,0.25696,0.81738,67,0.46,-0.075,0.878,0.0,0.0,0.061,-4.85,-27.471,166.679,-13.653,-7.273,-32.007,32.17,-0.12253,-0.23074,0.06833,-0.9628,65,0.962,0.01,0.216,0.183,0.305,0.0,2.785,-77.514,-160.812,-30.553,-10.707,-2.447,32.5,0.1442,-0.61438,-0.12247,-0.76593,73
18,0.938,0.026,0.394,0.0,0.122,0.0,3.823,-67.374,166.855,-26.353,-11.68,-12.807,29.55,0.07852,0.55423,-0.03699,0.82776,76,0.687,0.171,0.706,0.061,-0.305,0.061,13.914,-43.654,-130.309,-21.313,-11.033,-2.2,28.17,-0.4278,0.28763,0.25696,0.81738,74,0.454,-0.072,0.883,-0.244,-0.244,0.0,-4.856,-27.477,166.685,-13.653,-7.273,-32.007,32.17,-0.12253,-0.23074,0.06833,-0.9628,70,0.957,0.011,0.216,0.549,0.305,0.0,2.791,-77.509,-160.768,-30.767,-10.3,-1.7,32.5,0.1442,-0.61438,-0.12247,-0.76593,78
19,0.939,0.026,0.394,0.0,0.244,0.0,3.818,-67.368,166.871,-26.353,-11.68,-12.807,29.55,0.07852,0.55423,-0.03699,0.82776,77,0.694,0.176,0.703,0.183,-0.549,0.183,13.914,-43.66,-130.32,-21.313,-11.033,-2.2,28.17,-0.4278,0.28763,0.25696,0.81738,75,0.451,-0.077,0.88,0.244,-0.488,0.0,-4.856,-27.488,166.685,-13.653,-7.273,-32.007,32.17,-0.12253,-0.23074,0.06833,-0.9628,71,0.959,0.01,0.213,0.488,0.305,0.0,2.796,-77.498,-160.719,-30.767,-10.3,-1.7,32.5,0.1442,-0.61438,-0.12247,-0.76593,79
20,0.942,0.029,0.395,-0.122,0.366,0.0,3.818,-67.363,166.888,-26.373,-11.5,-12.287,29.55,0.07852,0.55423,-0.03699,0.82776,88,0.698,0.181,0.706,0.183,-0.366,0.183,13.92,-43.671,-130.331,-21.313,-11.033,-2.2,28.17,-0.4278,0.28763,0.25696,0.81738,86,0.459,-0.077,0.877,0.122,-0.244,0.0,-4.856,-27.493,166.69,-13.653,-7.273,-32.007,32.17,-0.12253,-0.23074,0.06833,-0.9628,80,0.967,0.01,0.214,-0.122,0.183,0.0,2.791,-77.498,-160.692,-30.767,-10.3,-1.7,32.5,0.1442,-0.61438,-0.12247,-0.76593,84
21,0.941,0.029,0.396,-0.183,0.183,0.0,3.812,-67.357,166.91,-26.373,-11.5,-12.287,29.55,0.07852,0.55423,-0.03699,0.82776,89,0.692,0.174,0.707,0.183,0.061,0.061,13.92,-43.671,-130.336,-21.313,-11.033,-2.2,28.17,-0.4278,0.28763,0.25696,0.81738,87,0.464,-0.071,0.875,0.0,0.305,0.244,-4.856,-27.488,166.701,-13.653,-7.273,-32.007,32.17,-0.12253,-0.23074,0.06833,-0.9628,81,0.971,0.013,0.217,-0.122,0.183,0.0,2.785,-77.492,-160.67,-30.767,-10.3,-1.7,32.5,0.1442,-0.61438,-0.12247,-0.76593,85
22,0.938,0.026,0.395,-0.061,-0.183,0.0,3.812,-67.357,166.926,-26.373,-11.5,-12.287,29.55,0.07629,0.55377,-0.03552,0.82834,94,0.688,0.171,0.702,0.244,0.0,0.0,13.925,-43.671,-130.347,-21.213,-11.133,-2.74,28.17,-0.4278,0.28763,0.25696,0.81738,92,0.464,-0.07,0.88,-0.244,0.122,0.0,-4.861,-27.482,166.712,-13.653,-7.273,-32.007,32.17,-0.12253,-0.23074,0.06833,-0.9628,82,0.962,0.013,0.219,0.488,0.244,0.0,2.791,-77.487,-160.648,-30.767,-10.3,-1.7,32.5,0.14603,-0.61356,-0.12384,-0.76602,90
23,0.94,0.026,0.394,0.0,-0.061,0.0,3.812,-67.357,166.943,-26.373,-11.5,-12.287,29.55,0.07629,0.55377,-0.03552,0.82834,95,0.695,0.18,0.703,0.793,-0.061,0.061,13.936,-43.671,-130.353,-21.213,-11.133,-2.74,28.17,-0.4278,0.28763,0.25696,0.81738,93,0.458,-0.078,0.88,0.244,-0.183,0.0,-4.856,-27.488,166.723,-13.653,-7.273,-32.007,32.17,-0.12253,-0.23074,0.06833,-0.9628,83,0.96,0.008,0.212,0.427,0.244,0.0,2.802,-77.481,-160.642,-30.767,-10.3,-1.7,32.5,0.14603,-0.61356,-0.12384,-0.76602,91
24,0.944,0.028,0.392,0.0,0.061,0.0,3.818,-67.352,166.959,-26.373,-11.5,-12.287,29.55,0.07629,0.55377,-0.03552,0.82834,100,0.692,0.18,0.706,0.671,0.122,0.0,13.947,-43.665,-130.364,-21.213,-11.133,-2.74,28.17,-0.4278,0.28763,0.25696,0.81738,104,0.46,-0.077,0.876,0.671,0.305,0.427,-4.85,-27.482,166.745,-13.653,-7.273,-32.007,32.17,-0.12253,-0.23074,0.06833,-0.9628,96,0.967,0.013,0.208,0.0,0.305,0.0,2.796,-77.476,-160.631,-30.767,-10.3,-1.7,32.5,0.14603,-0.61356,-0.12384,-0.76602,98
25,0.94,0.028,0.393,0.061,0.061,0.0,3.818,-67.352,166.976,-26.373,-11.5,-12.287,29.55,0.07629,0.55377,-0.03552,0.82834,101,0.688,0.175,0.709,0.793,0.122,0.061,13.964,-43.665,-130.369,-21.213,-11.133,-2.74,28.17,-0.4278,0.28763,0.25696,0.81738,105,0.463,-0.069,0.876,0.61,0.366,0.183,-4.839,-27.477,166.75,-13.653,-7.273,-32.007,32.17,-0.12253,-0.23074,0.06833,-0.9628,97,0.965,0.014,0.215,0.366,0.427,0.0,2.807,-77.465,-160.653,-30.767,-10.3,-1.7,32.5,0.14603,-0.61356,-0.12384,-0.76602,99
26,0.939,0.027,0.391,-0.061,0.244,0.0,3.818,-67.346,166.992,-26.373,-11.5,-12.287,29.55,0.07629,0.55377,-0.03552,0.82834,108,0.691,0.171,0.707,0.977,-0.366,0.061,13.98,-43.665,-130.375,-21.213,-11.133,-2.74,28.17,-0.4277,0.28766,0.25735,0.81729,112,0.458,-0.069,0.883,0.671,0.061,-0.061,-4.823,-27.477,166.729,-13.493,-7.22,-32.493,32.17,-0.12253,-0.23074,0.06833,-0.9628,102,0.959,0.008,0.212,0.427,0.244,0.0,2.818,-77.459,-160.67,-30.767,-10.3,-1.7,32.5,0.14603,-0.61356,-0.12384,-0.76602,106
27,0.94,0.025,0.39,0.0,0.366,0.0,3.818,-67.341,167.009,-26.373,-11.5,-12.287,29.55,0.07629,0.55377,-0.03552,0.82834,109,0.696,0.178,0.705,1.038,-0.732,0.0,14.002,-43.676,-130.391,-21.213,-11.133,-2.74,28.17,-0.4277,0.28766,0.25735,0.81729,113,0.453,-0.075,0.881,1.099,0.732,0.244,-4.807,-27.466,166.707,-13.493,-7.22,-32.493,32.17,-0.12253,-0.23074,0.06833,-0.9628,103,0.96,0.008,0.21,0.0,0.305,0.0,2.812,-77.459,-160.708,-30.767,-10.3,-1.7,32.5,0.14603,-0.61356,-0.12384,-0.76602,107
28,0.943,0.027,0.39,-0.061,0.305,0.305,3.807,-67.33,167.036,-26.373,-11.5,-12.287,29.55,0.07629,0.55377,-0.03552,0.82834,116,0.696,0.182,0.709,1.282,-0.305,0.0,14.03,-43.682,-130.408,-21.213,-11.133,-2.74,28.17,-0.4277,0.28766,0.25735,0.81729,120,0.461,-0.08,0.881,0.244,1.038,0.549,-4.801,-27.444,166.69,-13.493,-7.22,-32.493,32.17,-0.12231,-0.23065,0.0679,-0.96286,110,0.968,0.011,0.211,-0.183,0.244,0.0,2.812,-77.454,-160.73,-30.767,-10.3,-1.7,32.5,0.14603,-0.61356,-0.12384,-0.76602,114
29,0.944,0.029,0.392,0.0,0.0,0.427,3.79,-67.335,167.075,-26.373,-11.5,-12.287,29.55,0.07629,0.55377,-0.03552,0.82834,117,0.691,0.168,0.714,1.404,-0.061,-0.366,14.062,-43.682,-130.43,-21.213,-11.133,-2.74,28.17,-0.4277,0.28766,0.25735,0.81729,121,0.464,-0.069,0.876,-0.427,0.916,0.488,-4.812,-27.427,166.685,-13.493,-7.22,-32.493,32.17,-0.12231,-0.23065,0.0679,-0.96286,111,0.971,0.016,0.214,-0.122,-0.183,0.0,2.812,-77.459,-160.752,-30.767,-10.3,-1.7,32.5,0.14603,-0.61356,-0.12384,-0.76602,115
30,0.94,0.025,0.395,0.183,0.0,0.549,3.768,-67.335,167.119,-26.373,-11.5,-12.287,29.55,0.07629,0.55377,-0.03552,0.82834,122,0.692,0.166,0.704,1.587,-0.366,-0.61,14.101,-43.682,-130.441,-21.213,-11.133,-2.74,28.17,-0.4277,0.28766,0.25735,0.81729,126,0.456,-0.075,0.883,-0.793,1.343,0.061,-4.828,-27.4,166.668,-13.493,-7.22,-32.493,32.17,-0.12231,-0.23065,0.0679,-0.96286,118,0.962,0.013,0.213,0.366,-0.732,0.0,2.829,-77.47,-160.763,-30.767,-10.3,-1.7,32.5,0.14603,-0.61356,-0.12384,-0.76602,124
31,0.938,0.024,0.398,0.244,0.061,0.488,3.752,-67.33,167.157,-26.373,-11.5,-12.287,29.55,0.07629,0.55377,-0.03552,0.82834,123,0.694,0.172,0.698,1.892,-0.183,-0.488,14.145,-43.682,-130.441,-21.213,-11.133,-2.74,28.17,-0.4277,0.28766,0.25735,0.81729,127,0.456,-0.09,0.882,-0.305,0.977,-0.671,-4.828,-27.383,166.657,-13.493,-7.22,-32.493,32.17,-0.12231,-0.23065,0.0679,-0.96286,119,0.961,0.005,0.217,0.0,-1.16,0.0,2.834,-77.498,-160.757,-30.767,-10.3,-1.7,32.5,0.14603,-0.61356,-0.12384,-0.76602,125
32,0.935,0.025,0.397,0.0,0.183,0.305,3.735,-67.33,167.19,-26.373,-11.5,-12.287,29.55,0.07629,0.55377,-0.03552,0.82834,130,0.688,0.179,0.7,1.099,0.061,-0.366,14.172,-43.682,-130.446,-21.213,-11.133,-2.74,28.17,-0.4277,0.28766,0.25735,0.81729,134,0.462,-0.084,0.879,0.122,1.892,-0.549,-4.823,-27.35,166.663,-13.493,-7.22,-32.493,32.17,-0.12231,-0.23065,0.0679,-0.96286,128,0.963,0.003,0.215,-0.916,-1.282,-0.305,2.845,-77.52,-160.785,-30.767,-10.3,-1.7,32.5,0.14603,-0.61356,-0.12384,-0.76602,132
33,0.938,0.022,0.394,-0.061,0.122,0.061,3.735,-67.324,167.206,-26.373,-11.5,-12.287,29.55,0.07629,0.55377,-0.03552,0.82834,131,0.687,0.179,0.703,0.183,0.061,-0.244,14.183,-43.676,-130.446,-21.213,-11.133,-2.74,28.17,-0.4277,0.28766,0.25735,0.81729,135,0.459,-0.075,0.873,1.16,1.221,0.244,-4.801,-27.328,166.723,-13.493,-7.22,-32.493,32.17,-0.12231,-0.23065,0.0679,-0.96286,129,0.96,0.003,0.214,-0.671,-0.854,-0.427,2.867,-77.536,-160.818,-30.767,-10.3,-1.7,32.5,0.14603,-0.61356,-0.12384,-0.76602,133
34,0.94,0.023,0.394,-0.061,0.0,0.0,3.73,-67.324,167.223,-26.373,-11.5,-12.287,29.55,0.07629,0.55377,-0.03552,0.82834,146,0.695,0.181,0.7,0.366,-0.305,0.0,14.189,-43.682,-130.441,-21.213,-11.133,-2.74,28.17,-0.4277,0.28766,0.25735,0.81729,138,0.446,-0.07,0.882,0.61,0.61,0.0,-4.79,-27.318,166.805,-13.493,-7.22,-32.493,32.17,-0.12231,-0.23065,0.0679,-0.96286,136,0.959,0.006,0.214,-0.366,-0.61,-0.488,2.9,-77.547,-160.829,-30.767,-10.3,-1.7,32.5,0.14603,-0.61356,-0.12384,-0.76602,142
35,0.943,0.023,0.396,-0.122,0.061,0.0,3.73,-67.319,167.234,-26.373,-11.5,-12.287,29.55,0.07629,0.55377,-0.03552,0.82834,147,0.698,0.181,0.698,0.061,-0.366,-0.061,14.194,-43.687,-130.435,-21.213,-11.133,-2.74,28.17,-0.4277,0.28766,0.25735,0.81729,139,0.449,-0.07,0.884,-0.427,0.61,-0.671,-4.796,-27.307,166.888,-13.493,-7.22,-32.493,32.17,-0.12231,-0.23065,0.0679,-0.96286,137,0.964,0.007,0.213,0.0,-0.488,-0.305,2.917,-77.552,-160.845,-30.767,-10.3,-1.7,32.5,0.14603,-0.61356,-0.12384,-0.76602,143
36,0.941,0.023,0.396,-0.061,0.122,0.0,3.724,-67.313,167.25,-26.0,-11.54,-13.12,29.55,0.07629,0.55377,-0.03552,0.82834,150,0.696,0.178,0.701,-0.366,-0.244,-0.061,14.194,-43.693,-130.424,-21.213,-11.133,-2.74,28.17,-0.4277,0.28766,0.25735,0.81729,148,0.462,-0.072,0.881,-0.671,0.671,-0.244,-4.807,-27.296,166.959,-13.493,-7.22,-32.493,32.17,-0.12231,-0.23065,0.0679,-0.96286,140,0.967,0.011,0.21,-0.061,-0.183,-0.061,2.917,-77.558,-160.856,-30.547,-10.633,-2.58,32.5,0.14603,-0.61356,-0.12384,-0.76602,144
37,0.942,0.023,0.394,0.0,0.0,-0.061,3.724,-67.313,167.261,-26.0,-11.54,-13.12,29.55,0.07629,0.55377,-0.03552,0.82834,151,0.691,0.181,0.705,-0.61,0.0,0.061,14.183,-43.693,-130.413,-21.213,-11.133,-2.74,28.17,-0.4277,0.28766,0.25735,0.81729,149,0.464,-0.073,0.878,-0.916,0.854,-0.732,-4.818,-27.279,166.998,-13.493,-7.22,-32.493,32.17,-0.12231,-0.23065,0.0679,-0.96286,141,0.965,0.008,0.213,0.0,0.122,-0.122,2.917,-77.552,-160.878,-30.547,-10.633,-2.58,32.5,0.14603,-0.61356,-0.12384,-0.76602,145
38,0.939,0.024,0.392,0.0,-0.122,-0.183,3.735,-67.313,167.267,-26.0,-11.54,-13.12,29.55,0.07629,0.55377,-0.03552,0.82834,158,0.685,0.179,0.706,-0.854,0.0,0.0,14.167,-43.693,-130.419,-21.213,-11.133,-2.74,28.17,-0.4277,0.28766,0.25735,0.81729,156,0.458,-0.071,0.879,-0.61,0.549,-0.305,-4.823,-27.268,167.02,-13.493,-7.22,-32.493,32.17,-0.12231,-0.23065,0.0679,-0.96286,152,0.956,0.01,0.211,0.061,0.061,0.061,2.911,-77.547,-160.884,-30.547,-10.633,-2.58,32.5,0.14603,-0.61356,-0.12384,-0.76602,154
39,0.937,0.026,0.392,0.0,-0.183,-0.183,3.741,-67.319,167.267,-26.0,-11.54,-13.12,29.55,0.07629,0.55377,-0.03552,0.82834,159,0.69,0.178,0.704,-0.61,-0.244,0.061,14.156,-43.698,-130.43,-21.213,-11.133,-2.74,28.17,-0.4277,0.28766,0.25735,0.81729,157,0.452,-0.073,0.887,-0.427,0.183,0.0,-4.828,-27.268,167.042,-13.493,-7.22,-32.493,32.17,-0.12231,-0.23065,0.0679,-0.96286,153,0.959,0.01,0.21,-0.061,0.061,0.0,2.9,-77.547,-160.878,-30.547,-10.633,-2.58,32.5,0.14603,-0.61356,-0.12384,-0.76602,155
40,0.941,0.026,0.393,-0.061,0.0,-0.244,3.752,-67.313,167.267,-26.0,-11.54,-13.12,29.55,0.07422,0.55353,-0.03436,0.82874,162,0.701,0.175,0.702,-0.671,-0.488,0.061,14.139,-43.704,-130.435,-21.213,-11.133,-2.74,28.17,-0.4277,0.28766,0.25735,0.81729,164,0.45,-0.073,0.882,0.061,0.244,-0.122,-4.828,-27.263,167.047,-13.493,-7.22,-32.493,32.17,-0.12231,-0.23065,0.0679,-0.96286,160,0.969,0.01,0.213,0.244,0.305,0.0,2.895,-77.547,-160.862,-30.547,-10.633,-2.58,32.5,0.14502,-0.61407,-0.12341,-0.76587,166
41,0.943,0.026,0.395,-0.122,-0.061,-0.183,3.757,-67.313,167.272,-26.0,-11.54,-13.12,29.55,0.07422,0.55353,-0.03436,0.82874,163,0.696,0.179,0.699,-0.732,0.061,0.0,14.128,-43.704,-130.435,-21.213,-11.133,-2.74,28.17,-0.4277,0.28766,0.25735,0.81729,165,0.457,-0.075,0.879,0.305,0.916,0.122,-4.823,-27.246,167.064,-13.493,-7.22,-32.493,32.17,-0.12231,-0.23065,0.0679,-0.96286,161,0.967,0.01,0.216,0.427,0.244,-0.061,2.895,-77.542,-160.851,-30.547,-10.633,-2.58,32.5,0.14502,-0.61407,-0.12341,-0.76587,167
42,0.941,0.027,0.393,-0.061,-0.183,-0.183,3.763,-67.319,167.278,-26.0,-11.54,-13.12,29.55,0.07422,0.55353,-0.03436,0.82874,170,0.69,0.178,0.701,-0.549,0.488,0.0,14.117,-43.698,-130.441,-21.667,-11.373,-2.433,28.17,-0.4277,0.28766,0.25735,0.81729,176,0.468,-0.076,0.875,-0.427,0.916,-0.366,-4.828,-27.23,167.075,-13.987,-6.96,-31.86,32.17,-0.12231,-0.23065,0.0679,-0.96286,168,0.961,0.012,0.209,0.61,0.244,-0.061,2.9,-77.536,-160.856,-30.547,-10.633,-2.58,32.5,0.14502,-0.61407,-0.12341,-0.76587,172
43,0.939,0.027,0.395,0.061,-0.061,0.0,3.763,-67.319,167.289,-26.0,-11.54,-13.12,29.55,0.07422,0.55353,-0.03436,0.82874,171,0.692,0.179,0.701,0.061,0.366,0.061,14.112,-43.693,-130.452,-21.667,-11.373,-2.433,28.17,-0.4277,0.28766,0.25735,0.81729,177,0.458,-0.071,0.875,-0.793,0.0,-0.61,-4.834,-27.235,167.08,-13.987,-6.96,-31.86,32.17,-0.12231,-0.23065,0.0679,-0.96286,169,0.965,0.015,0.209,0.061,0.305,0.0,2.911,-77.531,-160.873,-30.547,-10.633,-2.58,32.5,0.14502,-0.61407,-0.12341,-0.76587,173
44,0.94,0.028,0.396,0.122,0.061,0.061,3.763,-67.319,167.305,-26.0,-11.54,-13.12,29.55,0.07422,0.55353,-0.03436,0.82874,178,0.691,0.183,0.705,0.366,0.122,0.061,14.117,-43.687,-130.468,-21.667,-11.373,-2.433,28.17,-0.42734,0.28751,0.25827,0.81726,184,0.455,-0.074,0.875,0.366,0.977,0.0,-4.828,-27.219,167.108,-13.987,-6.96,-31.86,32.17,-0.1188,-0.229,0.06705,-0.96378,174,0.963,0.013,0.214,0.244,0.488,0.061,2.911,-77.52,-160.9,-30.547,-10.633,-2.58,32.5,0.14502,-0.61407,-0.12341,-0.76587,180
45,0.939,0.029,0.395,0.061,0.0,0.122,3.763,-67.313,167.322,-26.0,-11.54,-13.12,29.55,0.07422,0.55353,-0.03436,0.82874,179,0.692,0.177,0.702,0.305,0.244,0.183,14.123,-43.687,-130.479,-21.667,-11.373,-2.433,28.17,-0.42734,0.28751,0.25827,0.81726,185,0.456,-0.072,0.88,0.427,1.465,0.366,-4.818,-27.191,167.162,-13.987,-6.96,-31.86,32.17,-0.1188,-0.229,0.06705,-0.96378,175,0.962,0.01,0.215,0.549,0.549,0.061,2.911,-77.514,-160.9,-30.547,-10.633,-2.58,32.5,0.14502,-0.61407,-0.12341,-0.76587,181
46,0.941,0.027,0.393,0.0,0.0,0.183,3.752,-67.313,167.344,-26.0,-11.54,-13.12,29.55,0.07422,0.55353,-0.03436,0.82874,188,0.697,0.177,0.701,0.183,0.366,0.122,14.123,-43.682,-130.49,-21.667,-11.373,-2.433,28.17,-0.42734,0.28751,0.25827,0.81726,192,0.454,-0.069,0.882,0.0,1.587,0.122,-4.818,-27.158,167.212,-13.987,-6.96,-31.86,32.17,-0.1188,-0.229,0.06705,-0.96378,182,0.966,0.011,0.213,0.305,0.305,0.061,2.911,-77.503,-160.889,-30.547,-10.633,-2.58,32.5,0.14502,-0.61407,-0.12341,-0.76587,186
47,0.941,0.028,0.393,0.0,0.0,0.122,3.752,-67.313,167.366,-26.0,-11.54,-13.12,29.55,0.07422,0.55353,-0.03436,0.82874,189,0.69,0.176,0.704,0.0,0.61,-0.183,14.128,-43.671,-130.501,-21.667,-11.373,-2.433,28.17,-0.42734,0.28751,0.25827,0.81726,193,0.456,-0.074,0.88,-0.854,1.526,0.0,-4.834,-27.131,167.212,-13.987,-6.96,-31.86,32.17,-0.1188,-0.229,0.06705,-0.96378,183,0.962,0.014,0.211,0.122,0.427,0.0,2.911,-77.498,-160.884,-30.547,-10.633,-2.58,32.5,0.14502,-0.61407,-0.12341,-0.76587,187
48,0.939,0.027,0.392,0.061,0.0,0.122,3.746,-67.313,167.382,-26.0,-11.54,-13.12,29.55,0.07422,0.55353,-0.03436,0.82874,196,0.689,0.174,0.705,0.183,0.488,-0.244,14.134,-43.66,-130.512,-21.667,-11.373,-2.433,28.17,-0.42734,0.28751,0.25827,0.81726,200,0.456,-0.077,0.878,-0.305,1.892,0.0,-4.839,-27.098,167.212,-13.987,-6.96,-31.86,32.17,-0.1188,-0.229,0.06705,-0.96378,190,0.959,0.011,0.213,0.427,0.61,-0.244,2.922,-77.487,-160.873,-30.547,-10.633,-2.58,32.5,0.14502,-0.61407,-0.12341,-0.76587,194
49,0.94,0.025,0.393,0.0,0.0,0.122,3.746,-67.313,167.404,-26.0,-11.54,-13.12,29.55,0.07422,0.55353,-0.03436,0.82874,197,0.693,0.175,0.701,0.183,0.183,-0.122,14.139,-43.654,-130.523,-21.667,-11.373,-2.433,28.17,-0.42734,0.28751,0.25827,0.81726,201,0.448,-0.08,0.884,0.061,2.197,-0.244,-4.834,-27.059,167.223,-13.987,-6.96,-31.86,32.17,-0.1188,-0.229,0.06705,-0.96378,191,0.964,0.006,0.215,0.61,0.427,-0.305,2.955,-77.476,-160.895,-30.547,-10.633,-2.58,32.5,0.14502,-0.61407,-0.12341,-0.76587,195
50,0.939,0.024,0.392,-0.122,0.061,0.122,3.735,-67.308,167.421,-26.0,-11.54,-13.12,29.55,0.07422,0.55353,-0.03436,0.82874,202,0.688,0.182,0.703,0.244,0.305,-0.183,14.145,-43.649,-130.529,-21.667,-11.373,-2.433,28.17,-0.42734,0.28751,0.25827,0.81726,206,0.45,-0.077,0.886,0.305,1.77,-0.549,-4.818,-27.026,167.223,-13.987,-6.96,-31.86,32.17,-0.1188,-0.229,0.06705,-0.96378,198,0.961,0.01,0.211,0.305,0.244,-0.183,2.988,-77.47,-160.906,-30.547,-10.633,-2.58,32.5,0.14502,-0.61407,-0.12341,-0.76587,204
51,0.939,0.022,0.394,-0.061,0.0,0.122,3.73,-67.308,167.437,-26.0,-11.54,-13.12,29.55,0.07422,0.55353,-0.03436,0.82874,203,0.689,0.183,0.705,0.183,0.244,0.0,14.15,-43.643,-130.534,-21.667,-11.373,-2.433,28.17,-0.42734,0.28751,0.25827,0.81726,207,0.455,-0.076,0.88,0.427,1.221,-0.305,-4.807,-27.004,167.223,-13.987,-6.96,-31.86,32.17,-0.1188,-0.229,0.06705,-0.96378,199,0.961,0.01,0.214,0.061,0.427,0.0,2.999,-77.465,-160.9,-30.547,-10.633,-2.58,32.5,0.14502,-0.61407,-0.12341,-0.76587,205
52,0.94,0.022,0.394,0.0,0.061,0.122,3.724,-67.308,167.459,-26.0,-11.54,-13.12,29.55,0.07422,0.55353,-0.03436,0.82874,210,0.696,0.18,0.708,0.366,0.0,0.305,14.15,-43.643,-130.534,-21.667,-11.373,-2.433,28.17,-0.42734,0.28751,0.25827,0.81726,212,0.447,-0.069,0.882,0.183,1.221,-0.549,-4.796,-26.982,167.212,-13.987,-6.96,-31.86,32.17,-0.1188,-0.229,0.06705,-0.96378,208,0.968,0.006,0.215,0.305,0.61,0.244,2.994,-77.454,-160.873,-30.547,-10.633,-2.58,32.5,0.14502,-0.61407,-0.12341,-0.76587,214
53,0.943,0.025,0.394,0.0,0.122,0.122,3.719,-67.308,167.476,-26.0,-11.54,-13.12,29.55,0.07422,0.55353,-0.03436,0.82874,211,0.692,0.18,0.708,0.061,-0.061,0.427,14.15,-43.643,-130.534,-21.667,-11.373,-2.433,28.17,-0.42734,0.28751,0.25827,0.81726,213,0.449,-0.066,0.886,0.61,1.16,-0.183,-4.785,-26.96,167.228,-13.987,-6.96,-31.86,32.17,-0.1188,-0.229,0.06705,-0.96378,209,0.965,0.009,0.215,0.061,0.671,0.366,2.966,-77.443,-160.823,-30.547,-10.633,-2.58,32.5,0.14502,-0.61407,-0.12341,-0.76587,215
54,0.938,0.027,0.395,0.122,0.0,0.122,3.713,-67.302,167.492,-25.927,-11.32,-12.94,29.55,0.07422,0.55353,-0.03436,0.82874,224,0.684,0.173,0.707,0.061,0.0,0.366,14.145,-43.643,-130.529,-21.667,-11.373,-2.433,28.17,-0.42734,0.28751,0.25827,0.81726,218,0.452,-0.07,0.893,0.427,0.671,0.366,-4.774,-26.949,167.245,-13.987,-6.96,-31.86,32.17,-0.1188,-0.229,0.06705,-0.96378,216,0.958,0.01,0.216,0.427,0.61,0.244,2.933,-77.432,-160.785,-30.513,-10.82,-2.293,32.5,0.14502,-0.61407,-0.12341,-0.76587,222
55,0.935,0.026,0.394,0.061,-0.061,0.0,3.713,-67.302,167.503,-25.927,-11.32,-12.94,29.55,0.07422,0.55353,-0.03436,0.82874,225,0.686,0.171,0.708,0.183,-0.244,0.244,14.145,-43.649,-130.534,-21.667,-11.373,-2.433,28.17,-0.42734,0.28751,0.25827,0.81726,219,0.45,-0.075,0.891,0.488,-0.549,0.427,-4.768,-26.96,167.256,-13.987,-6.96,-31.86,32.17,-0.1188,-0.229,0.06705,-0.96378,217,0.957,0.008,0.215,0.427,0.488,0.122,2.917,-77.421,-160.741,-30.513,-10.82,-2.293,32.5,0.14502,-0.61407,-0.12341,-0.76587,223
56,0.938,0.025,0.393,0.0,-0.061,-0.061,3.719,-67.308,167.514,-25.927,-11.32,-12.94,29.55,0.07257,0.5535,-0.03336,0.82895,232,0.688,0.173,0.708,0.244,-0.427,0.183,14.145,-43.654,-130.545,-21.667,-11.373,-2.433,28.17,-0.42734,0.28751,0.25827,0.81726,230,0.44,-0.081,0.882,0.366,0.061,0.244,-4.763,-26.96,167.256,-13.62,-7.587,-32.76,32.17,-0.1188,-0.229,0.06705,-0.96378,220,0.962,0.008,0.217,-0.061,0.305,0.0,2.906,-77.41,-160.724,-30.513,-10.82,-2.293,32.5,0.14624,-0.61295,-0.12418,-0.76639,226
57,0.938,0.026,0.394,-0.061,0.0,0.0,3.719,-67.302,167.525,-25.927,-11.32,-12.94,29.55,0.07257,0.5535,-0.03336,0.82895,233,0.685,0.175,0.705,0.244,-0.305,0.183,14.145,-43.66,-130.556,-21.667,-11.373,-2.433,28.17,-0.42734,0.28751,0.25827,0.81726,231,0.444,-0.079,0.885,0.549,0.122,0.305,-4.757,-26.955,167.267,-13.62,-7.587,-32.76,32.17,-0.1188,-0.229,0.06705,-0.96378,221,0.958,0.007,0.219,-0.488,-0.183,-0.061,2.9,-77.41,-160.719,-30.513,-10.82,-2.293,32.5,0.14624,-0.61295,-0.12418,-0.76639,227
58,0.938,0.027,0.394,-0.183,-0.061,0.0,3.713,-67.302,167.531,-25.927,-11.32,-12.94,29.55,0.07257,0.5535,-0.03336,0.82895,242,0.688,0.176,0.705,0.61,-0.366,0.305,14.15,-43.665,-130.578,-21.573,-11.747,-3.353,28.17,-0.42734,0.28751,0.25827,0.81726,234,0.446,-0.079,0.89,0.305,-0.244,0.183,-4.757,-26.955,167.283,-13.62,-7.587,-32.76,32.17,-0.1188,-0.229,0.06705,-0.96378,228,0.958,0.007,0.217,-0.183,-0.427,-0.122,2.895,-77.415,-160.73,-30.513,-10.82,-2.293,32.5,0.14624,-0.61295,-0.12418,-0.76639,236
59,0.939,0.027,0.395,-0.244,0.061,0.0,3.713,-67.302,167.542,-25.927,-11.32,-12.94,29.55,0.07257,0.5535,-0.03336,0.82895,243,0.693,0.173,0.703,0.671,-0.427,0.183,14.161,-43.671,-130.589,-21.573,-11.747,-3.353,28.17,-0.42734,0.28751,0.25827,0.81726,235,0.443,-0.075,0.882,0.427,-0.977,0.244,-4.752,-26.971,167.289,-13.62,-7.587,-32.76,32.17,-0.1188,-0.229,0.06705,-0.96378,229,0.964,0.01,0.217,0.183,-0.244,-0.183,2.906,-77.421,-160.746,-30.513,-10.82,-2.293,32.5,0.14624,-0.61295,-0.12418,-0.76639,237
60,0.939,0.024,0.396,-0.183,-0.061,0.0,3.708,-67.302,167.552,-25.927,-11.32,-12.94,29.55,0.07257,0.5535,-0.03336,0.82895,246,0.69,0.182,0.703,0.305,-0.549,0.244,14.161,-43.682,-130.6,-21.573,-11.747,-3.353,28.17,-0.42734,0.28751,0.25827,0.81726,244,0.451,-0.078,0.879,0.061,0.0,0.183,-4.757,-26.971,167.3,-13.62,-7.587,-32.76,32.17,-0.11713,-0.22705,0.06589,-0.96451,238,0.963,0.01,0.216,0.183,-0.061,-0.244,2.922,-77.421,-160.763,-30.513,-10.82,-2.293,32.5,0.14624,-0.61295,-0.12418,-0.76639,240
61,0.941,0.024,0.395,-0.061,0.0,0.0,3.702,-67.302,167.563,-25.927,-11.32,-12.94,29.55,0.07257,0.5535,-0.03336,0.82895,247,0.695,0.183,0.697,0.732,-0.732,0.61,14.172,-43.698,-130.605,-21.573,-11.747,-3.353,28.17,-0.42734,0.28751,0.25827,0.81726,245,0.451,-0.078,0.883,-0.244,-0.305,-0.244,-4.757,-26.977,167.294,-13.62,-7.587,-32.76,32.17,-0.11713,-0.22705,0.06589,-0.96451,239,0.961,0.01,0.214,0.244,0.061,0.0,2.933,-77.421,-160.79,-30.513,-10.82,-2.293,32.5,0.14624,-0.61295,-0.12418,-0.76639,241
62,0.943,0.025,0.395,0.061,0.061,0.0,3.702,-67.297,167.574,-25.927,-11.32,-12.94,29.55,0.07257,0.5535,-0.03336,0.82895,252,0.702,0.184,0.69,2.014,-0.61,0.61,14.205,-43.709,-130.605,-21.573,-11.747,-3.353,28.17,-0.42651,0.28769,0.25833,0.8176,250,0.448,-0.064,0.886,0.183,-0.61,0.305,-4.763,-26.982,167.3,-13.62,-7.587,-32.76,32.17,-0.11713,-0.22705,0.06589,-0.96451,248,0.968,0.013,0.212,0.793,0.305,0.244,2.928,-77.415,-160.779,-30.513,-10.82,-2.293,32.5,0.14624,-0.61295,-0.12418,-0.76639,254
63,0.945,0.026,0.394,0.183,0.061,0.305,3.702,-67.297,167.591,-25.927,-11.32,-12.94,29.55,0.07257,0.5535,-0.03336,0.82895,253,0.7,0.191,0.698,1.343,-0.488,0.854,14.222,-43.726,-130.594,-21.573,-11.747,-3.353,28.17,-0.42651,0.28769,0.25833,0.8176,251,0.461,-0.069,0.884,-0.305,-0.793,0.671,-4.774,-26.999,167.327,-13.62,-7.587,-32.76,32.17,-0.11713,-0.22705,0.06589,-0.96451,249,0.97,0.013,0.211,1.953,0.793,0.427,2.917,-77.404,-160.757,-30.513,-10.82,-2.293,32.5,0.14624,-0.61295,-0.12418,-0.76639,255
64,0.943,0.03,0.391,0.366,0.0,0.427,3.691,-67.291,167.618,-25.927,-11.32,-12.94,29.55,0.07257,0.5535,-0.03336,0.82895,258,0.696,0.184,0.705,0.0,-0.549,0.854,14.211,-43.737,-130.578,-21.573,-11.747,-3.353,28.17,-0.42651,0.28769,0.25833,0.8176,262,0.468,-0.063,0.878,-0.916,-1.831,0.916,-4.801,-27.032,167.327,-13.62,-7.587,-32.76,32.17,-0.11713,-0.22705,0.06589,-0.96451,256,0.968,0.016,0.213,1.16,0.916,0.61,2.9,-77.388,-160.719,-30.513,-10.82,-2.293,32.5,0.14624,-0.61295,-0.12418,-0.76639,260
65,0.945,0.031,0.39,0.305,0.061,0.488,3.68,-67.291,167.651,-25.927,-11.32,-12.94,29.55,0.07257,0.5535,-0.03336,0.82895,259,0.692,0.179,0.708,-0.793,-0.61,0.305,14.194,-43.753,-130.583,-21.573,-11.747,-3.353,28.17,-0.42651,0.28769,0.25833,0.8176,263,0.458,-0.06,0.884,0.671,-2.197,2.197,-4.807,-27.07,167.338,-13.62,-7.587,-32.76,32.17,-0.11713,-0.22705,0.06589,-0.96451,257,0.963,0.019,0.214,0.61,0.793,0.549,2.862,-77.371,-160.697,-30.513,-10.82,-2.293,32.5,0.14624,-0.61295,-0.12418,-0.76639,261
66,0.943,0.029,0.39,0.122,0.183,0.305,3.664,-67.291,167.684,-25.927,-11.32,-12.94,29.55,0.07257,0.5535,-0.03336,0.82895,270,0.697,0.172,0.71,-0.732,-0.977,-0.183,14.189,-43.77,-130.594,-21.573,-11.747,-3.353,28.17,-0.42651,0.28769,0.25833,0.8176,268,0.45,-0.075,0.89,-0.305,-3.113,2.319,-4.839,-27.131,167.36,-13.62,-7.587,-32.76,32.17,-0.11713,-0.22705,0.06589,-0.96451,264,0.965,0.015,0.215,-0.305,0.366,0.488,2.823,-77.36,-160.686,-30.513,-10.82,-2.293,32.5,0.14624,-0.61295,-0.12418,-0.76639,266
67,0.938,0.028,0.392,0.061,0.366,0.122,3.658,-67.286,167.706,-25.927,-11.32,-12.94,29.55,0.07257,0.5535,-0.03336,0.82895,271,0.69,0.165,0.709,-1.038,-1.282,-0.854,14.194,-43.792,-130.616,-21.573,-11.747,-3.353,28.17,-0.42651,0.28769,0.25833,0.8176,269,0.453,-0.084,0.896,0.0,-6.165,2.075,-4.861,-27.246,167.393,-13.62,-7.587,-32.76,32.17,-0.11713,-0.22705,0.06589,-0.96451,265,0.959,0.012,0.21,-0.061,0.122,0.061,2.807,-77.36,-160.692,-30.513,-10.82,-2.293,32.5,0.14624,-0.61295,-0.12418,-0.76639,267
68,0.939,0.027,0.392,-0.244,0.366,0.122,3.658,-67.28,167.723,-25.927,-11.32,-12.94,29.55,0.07257,0.5535,-0.03336,0.82895,278,0.694,0.17,0.709,-0.977,-1.587,-0.916,14.194,-43.813,-130.649,-21.573,-11.747,-3.353,28.17,-0.42651,0.28769,0.25833,0.8176,276,0.456,-0.089,0.882,0.793,-6.592,1.648,-4.867,-27.372,167.41,-13.62,-7.587,-32.76,32.17,-0.11713,-0.22705,0.06589,-0.96451,272,0.964,0.005,0.212,-0.244,-0.122,-0.427,2.823,-77.36,-160.741,-30.513,-10.82,-2.293,32.5,0.14624,-0.61295,-0.12418,-0.76639,274
69,0.938,0.025,0.394,-0.427,0.0,0.122,3.647,-67.275,167.739,-25.927,-11.32,-12.94,29.55,0.07257,0.5535,-0.03336,0.82895,279,0.695,0.176,0.708,-1.465,-1.343,-0.977,14.189,-43.835,-130.677,-21.573,-11.747,-3.353,28.17,-0.42651,0.28769,0.25833,0.8176,277,0.453,-0.094,0.886,0.732,-6.165,0.549,-4.867,-27.488,167.415,-13.62,-7.587,-32.76,32.17,-0.11713,-0.22705,0.06589,-0.96451,273,0.968,0.005,0.222,-1.221,-0.61,-0.732,2.867,-77.371,-160.818,-30.513,-10.82,-2.293,32.5,0.14624,-0.61295,-0.12418,-0.76639,275
70,0.935,0.021,0.396,-0.244,-0.244,0.122,3.642,-67.28,167.756,-25.927,-11.32,-12.94,29.55,0.07257,0.5535,-0.03336,0.82895,286,0.684,0.175,0.704,-1.465,-0.916,-0.977,14.178,-43.841,-130.699,-21.573,-11.747,-3.353,28.17,-0.42651,0.28769,0.25833,0.8176,284,0.461,-0.079,0.884,0.61,-6.287,0.793,-4.872,-27.609,167.443,-13.62,-7.587,-32.76,32.17,-0.11713,-0.22705,0.06589,-0.96451,280,0.958,0.007,0.221,-0.671,-1.099,-0.61,2.911,-77.388,-160.889,-30.513,-10.82,-2.293,32.5,0.14624,-0.61295,-0.12418,-0.76639,282
71,0.936,0.018,0.398,-0.122,0.0,0.0,3.631,-67.28,167.772,-25.927,-11.32,-12.94,29.55,0.07257,0.5535,-0.03336,0.82895,287,0.685,0.175,0.702,-1.16,-0.916,-0.671,14.172,-43.857,-130.715,-21.573,-11.747,-3.353,28.17,-0.42651,0.28769,0.25833,0.8176,285,0.464,-0.078,0.881,0.305,-6.47,0.854,-4.883,-27.729,167.465,-13.62,-7.587,-32.76,32.17,-0.11713,-0.22705,0.06589,-0.96451,281,0.953,0.004,0.218,0.0,-1.282,-0.61,2.961,-77.41,-160.95,-30.513,-10.82,-2.293,32.5,0.14624,-0.61295,-0.12418,-0.76639,283
72,0.936,0.019,0.399,-0.122,0.244,0.0,3.631,-67.28,167.778,-26.0,-11.573,-13.107,29.55,0.07257,0.5535,-0.03336,0.82895,292,0.691,0.172,0.703,-0.854,-1.282,-0.427,14.167,-43.874,-130.732,-21.573,-11.747,-3.353,28.17,-0.42651,0.28769,0.25833,0.8176,290,0.459,-0.073,0.872,-0.122,-5.737,0.427,-4.9,-27.834,167.476,-13.513,-7.2,-32.12,32.17,-0.11713,-0.22705,0.06589,-0.96451,288,0.959,0.003,0.216,-0.183,-1.099,-0.427,2.999,-77.432,-160.999,-30.133,-10.38,-2.54,32.5,0.14624,-0.61295,-0.12418,-0.76639,294
73,0.938,0.022,0.398,-0.122,-0.061,-0.122,3.625,-67.275,167.789,-26.0,-11.573,-13.107,29.55,0.07257,0.5535,-0.03336,0.82895,293,0.697,0.175,0.699,-0.122,-1.099,-0.244,14.167,-43.89,-130.748,-21.573,-11.747,-3.353,28.17,-0.42651,0.28769,0.25833,0.8176,291,0.46,-0.072,0.867,-0.671,-3.906,0.61,-4.922,-27.905,167.492,-13.513,-7.2,-32.12,32.17,-0.11713,-0.22705,0.06589,-0.96451,289,0.964,0.003,0.22,-0.244,-1.038,-0.183,3.016,-77.448,-161.016,-30.133,-10.38,-2.54,32.5,0.14624,-0.61295,-0.12418,-0.76639,295
74,0.945,0.025,0.397,0.061,-0.671,-0.122,3.631,-67.275,167.789,-26.0,-11.573,-13.107,29.55,0.07257,0.5535,-0.03336,0.82895,298,0.706,0.186,0.697,-0.427,-0.244,0.183,14.156,-43.896,-130.743,-21.573,-11.747,-3.353,28.17,-0.42651,0.28769,0.25833,0.8176,304,0.467,-0.084,0.865,-1.038,-1.831,0.61,-4.955,-27.938,167.492,-13.513,-7.2,-32.12,32.17,-0.116,-0.2352,0.06808,-0.96255,296,0.973,0.007,0.225,0.305,-0.793,-0.061,3.016,-77.465,-161.016,-30.133,-10.38,-2.54,32.5,0.14484,-0.61353,-0.12341,-0.76633,300
75,0.942,0.025,0.397,0.183,-1.16,-0.061,3.636,-67.291,167.783,-26.0,-11.573,-13.107,29.55,0.07257,0.5535,-0.03336,0.82895,299,0.701,0.179,0.698,-1.038,0.488,0.0,14.134,-43.885,-130.743,-21.573,-11.747,-3.353,28.17,-0.42651,0.28769,0.25833,0.8176,305,0.479,-0.067,0.87,-2.441,-1.526,0.061,-5.004,-27.96,167.487,-13.513,-7.2,-32.12,32.17,-0.116,-0.2352,0.06808,-0.96255,297,0.97,0.013,0.221,0.366,-0.61,0.0,3.016,-77.476,-160.988,-30.133,-10.38,-2.54,32.5,0.14484,-0.61353,-0.12341,-0.76633,301
76,0.942,0.024,0.395,0.183,-0.916,-0.122,3.647,-67.308,167.756,-26.0,-11.573,-13.107,29.55,0.07098,0.55341,-0.03259,0.82919,312,0.701,0.171,0.69,-0.122,0.977,-0.244,14.134,-43.863,-130.748,-21.567,-11.313,-2.893,28.17,-0.42651,0.28769,0.25833,0.8176,306,0.476,-0.063,0.869,-1.404,-1.099,0.671,-5.037,-27.982,167.498,-13.513,-7.2,-32.12,32.17,-0.116,-0.2352,0.06808,-0.96255,302,0.961,0.012,0.212,0.916,-0.305,0.183,3.01,-77.481,-160.961,-30.133,-10.38,-2.54,32.5,0.14484,-0.61353,-0.12341,-0.76633,308
77,0.948,0.027,0.392,0.244,-0.61,-0.244,3.658,-67.324,167.723,-26.0,-11.573,-13.107,29.55,0.07098,0.55341,-0.03259,0.82919,313,0.708,0.182,0.69,0.305,0.916,0.183,14.134,-43.852,-130.743,-21.567,-11.313,-2.893,28.17,-0.42651,0.28769,0.25833,0.8176,307,0.476,-0.089,0.871,-2.014,-0.549,0.0,-5.076,-27.988,167.481,-13.513,-7.2,-32.12,32.17,-0.116,-0.2352,0.06808,-0.96255,303,0.972,0.005,0.208,1.953,0.061,0.061,3.027,-77.481,-160.944,-30.133,-10.38,-2.54,32.5,0.14484,-0.61353,-0.12341,-0.76633,309
78,0.946,0.032,0.387,0.305,-0.61,0.0,3.669,-67.335,167.684,-26.0,-11.573,-13.107,29.55,0.07098,0.55341,-0.03259,0.82919,320,0.703,0.203,0.704,-0.244,1.282,0.427,14.117,-43.83,-130.732,-21.567,-11.313,-2.893,28.17,-0.42651,0.28769,0.25833,0.8176,316,0.487,-0.079,0.87,-6.226,-0.488,-1.343,-5.186,-28.004,167.421,-13.513,-7.2,-32.12,32.17,-0.116,-0.2352,0.06808,-0.96255,310,0.978,0.018,0.205,1.16,0.305,0.183,3.032,-77.476,-160.922,-30.133,-10.38,-2.54,32.5,0.14484,-0.61353,-0.12341,-0.76633,314
79,0.941,0.033,0.386,0.427,-0.549,0.183,3.68,-67.346,167.657,-26.0,-11.573,-13.107,29.55,0.07098,0.55341,-0.03259,0.82919,321,0.685,0.187,0.708,-1.16,1.221,0.122,14.095,-43.808,-130.732,-21.567,-11.313,-2.893,28.17,-0.42651,0.28769,0.25833,0.8176,317,0.481,-0.057,0.86,-3.418,-0.549,0.854,-5.262,-28.015,167.399,-13.513,-7.2,-32.12,32.17,-0.116,-0.2352,0.06808,-0.96255,311,0.961,0.028,0.206,0.671,0.244,0.305,3.021,-77.47,-160.889,-30.133,-10.38,-2.54,32.5,0.14484,-0.61353,-0.12341,-0.76633,315
80,0.937,0.032,0.385,0.427,-0.122,0.427,3.68,-67.352,167.635,-26.0,-11.573,-13.107,29.55,0.07098,0.55341,-0.03259,0.82919,324,0.678,0.176,0.706,-1.831,0.366,-0.305,14.068,-43.802,-130.748,-21.567,-11.313,-2.893,28.17,-0.42535,0.28909,0.25778,0.81787,328,0.47,-0.062,0.885,-0.916,-0.671,2.38,-5.301,-28.026,167.421,-13.513,-7.2,-32.12,32.17,-0.116,-0.2352,0.06808,-0.96255,318,0.948,0.022,0.208,0.122,0.061,0.244,3.01,-77.47,-160.873,-30.133,-10.38,-2.54,32.5,0.14484,-0.61353,-0.12341,-0.76633,322
81,0.943,0.029,0.384,0.061,0.122,0.305,3.675,-67.357,167.624,-26.0,-11.573,-13.107,29.55,0.07098,0.55341,-0.03259,0.82919,325,0.695,0.174,0.701,-1.526,-0.732,-0.366,14.052,-43.813,-130.765,-21.567,-11.313,-2.893,28.17,-0.42535,0.28909,0.25778,0.81787,329,0.448,-0.087,0.878,-2.625,0.549,2.686,-5.372,-28.015,167.459,-13.513,-7.2,-32.12,32.17,-0.116,-0.2352,0.06808,-0.96255,319,0.955,0.012,0.207,-1.404,0.0,0.122,2.988,-77.47,-160.884,-30.133,-10.38,-2.54,32.5,0.14484,-0.61353,-0.12341,-0.76633,323
82,0.938,0.029,0.387,-0.122,0.061,0.183,3.669,-67.357,167.591,-26.0,-11.573,-13.107,29.55,0.07098,0.55341,-0.03259,0.82919,330,0.701,0.169,0.706,-2.075,-0.793,-0.671,14.03,-43.824,-130.787,-21.567,-11.313,-2.893,28.17,-0.42535,0.28909,0.25778,0.81787,336,0.452,-0.086,0.882,-2.808,2.808,2.38,-5.449,-27.96,167.47,-13.513,-7.2,-32.12,32.17,-0.116,-0.2352,0.06808,-0.96255,326,0.969,0.01,0.21,-1.709,-0.122,0.061,2.961,-77.476,-160.884,-30.133,-10.38,-2.54,32.5,0.14484,-0.61353,-0.12341,-0.76633,332
83,0.933,0.024,0.393,-0.305,0.061,0.0,3.664,-67.357,167.531,-26.0,-11.573,-13.107,29.55,0.07098,0.55341,-0.03259,0.82919,331,0.683,0.158,0.706,-2.136,-0.488,-1.404,14.013,-43.824,-130.831,-21.567,-11.313,-2.893,28.17,-0.42535,0.28909,0.25778,0.81787,337,0.475,-0.083,0.873,-1.465,1.831,3.967,-5.51,-27.916,167.52,-13.513,-7.2,-32.12,32.17,-0.116,-0.2352,0.06808,-0.96255,327,0.958,0.011,0.211,-1.587,-0.671,-0.305,2.961,-77.487,-160.917,-30.133,-10.38,-2.54,32.5,0.14484,-0.61353,-0.12341,-0.76633,333
84,0.93,0.021,0.398,-0.305,0.366,0.0,3.664,-67.357,167.47,-26.0,-11.573,-13.107,29.55,0.07098,0.55341,-0.03259,0.82919,340,0.672,0.166,0.705,-1.038,-0.488,-1.282,14.019,-43.83,-130.875,-21.567,-11.313,-2.893,28.17,-0.42535,0.28909,0.25778,0.81787,342,0.464,-0.11,0.875,-1.648,-0.671,3.113,-5.576,-27.922,167.569,-13.513,-7.2,-32.12,32.17,-0.116,-0.2352,0.06808,-0.96255,334,0.946,0.003,0.212,-1.831,-1.038,-0.793,2.994,-77.509,-160.983,-30.133,-10.38,-2.54,32.5,0.14484,-0.61353,-0.12341,-0.76633,338
85,0.936,0.02,0.402,-0.305,0.854,0.0,3.658,-67.346,167.426,-26.0,-11.573,-13.107,29.55,0.07098,0.55341,-0.03259,0.82919,341,0.688,0.165,0.707,0.0,-1.282,-0.977,14.041,-43.846,-130.913,-21.567,-11.313,-2.893,28.17,-0.42535,0.28909,0.25778,0.81787,343,0.446,-0.105,0.875,-2.258,-0.854,-0.61,-5.614,-27.938,167.547,-13.513,-7.2,-32.12,32.17,-0.116,-0.2352,0.06808,-0.96255,335,0.952,0.003,0.216,-1.831,-0.854,-0.854,3.038,-77.525,-161.054,-30.133,-10.38,-2.54,32.5,0.14484,-0.61353,-0.12341,-0.76633,339
86,0.941,0.021,0.401,-0.244,0.244,0.0,3.647,-67.33,167.371,-26.0,-11.573,-13.107,29.55,0.07098,0.55341,-0.03259,0.82919,350,0.714,0.168,0.71,0.0,-0.916,-1.038,14.057,-43.857,-130.952,-21.567,-11.313,-2.893,28.17,-0.42535,0.28909,0.25778,0.81787,348,0.446,-0.092,0.867,0.488,-0.671,0.61,-5.614,-27.949,167.552,-13.513,-7.2,-32.12,32.17,-0.116,-0.2352,0.06808,-0.96255,344,0.98,0.0,0.224,-0.793,-0.732,-0.854,3.087,-77.536,-161.109,-30.133,-10.38,-2.54,32.5,0.14484,-0.61353,-0.12341,-0.76633,346
87,0.935,0.018,0.399,-0.183,-0.549,-0.305,3.647,-67.324,167.316,-26.0,-11.573,-13.107,29.55,0.07098,0.55341,-0.03259,0.82919,351,0.691,0.163,0.7,-0.854,0.671,-1.343,14.057,-43.835,-130.984,-21.567,-11.313,-2.893,28.17,-0.42535,0.28909,0.25778,0.81787,349,0.479,-0.092,0.862,0.122,2.808,-0.244,-5.609,-27.894,167.536,-13.513,-7.2,-32.12,32.17,-0.116,-0.2352,0.06808,-0.96255,345,0.97,-0.001,0.228,0.061,-0.854,-1.038,3.164,-77.552,-161.164,-30.133,-10.38,-2.54,32.5,0.14484,-0.61353,-0.12341,-0.76633,347
88,0.938,0.018,0.396,-0.061,-0.183,-0.549,3.664,-67.33,167.256,-26.0,-11.573,-13.107,29.55,0.07098,0.55341,-0.03259,0.82919,356,0.68,0.171,0.693,0.244,1.16,-0.793,14.062,-43.808,-131.006,-21.567,-11.313,-2.893,28.17,-0.42535,0.28909,0.25778,0.81787,358,0.475,-0.108,0.868,-1.526,3.418,-2.319,-5.614,-27.828,167.47,-13.813,-7.047,-32.133,32.17,-0.116,-0.2352,0.06808,-0.96255,352,0.946,0.0,0.215,0.61,-0.61,-0.977,3.246,-77.558,-161.219,-30.133,-10.38,-2.54,32.5,0.14484,-0.61353,-0.12341,-0.76633,354
89,0.948,0.021,0.395,0.0,0.793,-0.61,3.68,-67.324,167.201,-26.0,-11.573,-13.107,29.55,0.07098,0.55341,-0.03259,0.82919,357,0.699,0.175,0.687,1.587,0.427,-0.183,14.095,-43.797,-131.023,-21.567,-11.313,-2.893,28.17,-0.42535,0.28909,0.25778,0.81787,359,0.453,-0.091,0.868,-2.197,2.93,-4.7,-5.614,-27.784,167.333,-13.813,-7.047,-32.133,32.17,-0.116,-0.2352,0.06808,-0.96255,353,0.955,0.003,0.202,1.465,0.122,-0.793,3.329,-77.558,-161.285,-30.133,-10.38,-2.54,32.5,0.14484,-0.61353,-0.12341,-0.76633,355
90,0.946,0.024,0.391,0.0,1.099,-0.549,3.702,-67.308,167.157,-25.727,-11.427,-13.253,29.55,0.07098,0.55341,-0.03259,0.82919,364,0.688,0.189,0.688,2.014,-0.183,0.305,14.128,-43.802,-131.017,-21.567,-11.313,-2.893,28.17,-0.42535,0.28909,0.25778,0.81787,362,0.454,-0.074,0.868,-0.427,7.935,-0.916,-5.609,-27.631,167.261,-13.813,-7.047,-32.133,32.17,-0.11905,-0.23209,0.07367,-0.96252,360,0.965,0.008,0.206,2.258,0.916,-0.671,3.406,-77.542,-161.356,-30.267,-11.16,-2.647,32.5,0.14484,-0.61353,-0.12341,-0.76633,366
91,0.947,0.026,0.384,0.0,1.404,-0.366,3.719,-67.28,167.124,-25.727,-11.427,-13.253,29.55,0.07098,0.55341,-0.03259,0.82919,365,0.698,0.196,0.694,2.991,-1.587,2.869,14.145,-43.83,-130.968,-21.567,-11.313,-2.893,28.17,-0.42535,0.28909,0.25778,0.81787,363,0.471,-0.089,0.879,-3.052,7.08,-2.075,-5.641,-27.493,167.184,-13.813,-7.047,-32.133,32.17,-0.11905,-0.23209,0.07367,-0.96252,361,0.959,0.009,0.203,2.563,1.404,-0.183,3.45,-77.514,-161.389,-30.267,-11.16,-2.647,32.5,0.14484,-0.61353,-0.12341,-0.76633,367
92,0.948,0.031,0.381,0.0,1.831,-0.183,3.724,-67.247,167.102,-25.727,-11.427,-13.253,29.55,0.07098,0.55341,-0.03259,0.82919,372,0.707,0.189,0.699,2.319,-1.831,2.808,14.161,-43.879,-130.897,-21.567,-11.313,-2.893,28.17,-0.42535,0.28909,0.25778,0.81787,370,0.464,-0.05,0.881,0.122,1.892,-0.732,-5.63,-27.46,167.151,-13.813,-7.047,-32.133,32.17,-0.11905,-0.23209,0.07367,-0.96252,368,0.956,0.018,0.202,1.038,1.465,0.793,3.406,-77.487,-161.351,-30.267,-11.16,-2.647,32.5,0.14465,-0.61353,-0.12421,-0.76624,374
93,0.945,0.035,0.384,0.061,2.075,0.0,3.724,-67.214,167.075,-25.727,-11.427,-13.253,29.55,0.07098,0.55341,-0.03259,0.82919,373,0.703,0.166,0.706,0.183,-2.258,1.099,14.167,-43.929,-130.847,-21.567,-11.313,-2.893,28.17,-0.42535,0.28909,0.25778,0.81787,371,0.464,-0.055,0.879,1.953,1.526,2.93,-5.614,-27.433,167.19,-13.813,-7.047,-32.133,32.17,-0.11905,-0.23209,0.07367,-0.96252,369,0.964,0.023,0.199,0.732,1.221,1.709,3.274,-77.47,-161.29,-30.267,-11.16,-2.647,32.5,0.14465,-0.61353,-0.12421,-0.76624,375
94,0.94,0.035,0.388,0.122,1.77,0.061,3.719,-67.176,167.036,-25.727,-11.427,-13.253,29.55,0.07571,0.5528,-0.03531,0.82907,382,0.683,0.167,0.717,-1.404,-2.319,-0.427,14.167,-43.973,-130.847,-21.64,-11.32,-2.807,28.17,-0.42535,0.28909,0.25778,0.81787,384,0.461,-0.066,0.882,0.916,-1.038,4.639,-5.636,-27.449,167.278,-13.813,-7.047,-32.133,32.23,-0.11905,-0.23209,0.07367,-0.96252,376,0.975,0.031,0.201,0.427,1.343,1.16,3.17,-77.448,-161.285,-30.267,-11.16,-2.647,32.5,0.14465,-0.61353,-0.12421,-0.76624,380
95,0.939,0.033,0.39,0.061,1.343,0.061,3.719,-67.154,167.003,-25.727,-11.427,-13.253,29.55,0.07571,0.5528,-0.03531,0.82907,383,0.685,0.187,0.719,-0.122,-3.479,-0.061,14.161,-44.022,-130.875,-21.64,-11.32,-2.807,28.17,-0.42535,0.28909,0.25778,0.81787,385,0.467,-0.1,0.89,1.953,-3.845,3.54,-5.63,-27.521,167.333,-13.813,-7.047,-32.133,32.23,-0.11905,-0.23209,0.07367,-0.96252,377,0.968,0.024,0.213,0.61,1.343,-0.061,3.197,-77.426,-161.373,-30.267,-11.16,-2.647,32.5,0.14465,-0.61353,-0.12421,-0.76624,381
96,0.939,0.032,0.398,-0.366,1.282,0.061,3.713,-67.126,166.976,-25.727,-11.427,-13.253,29.55,0.07571,0.5528,-0.03531,0.82907,390,0.705,0.182,0.71,0.488,-3.784,0.305,14.183,-44.088,-130.902,-21.64,-11.32,-2.807,28.17,-0.42429,0.29111,0.25873,0.81741,388,0.452,-0.127,0.887,0.0,-4.517,0.854,-5.641,-27.609,167.344,-13.813,-7.047,-32.133,32.23,-0.11905,-0.23209,0.07367,-0.96252,378,0.956,0.014,0.217,-0.732,0.61,-0.488,3.235,-77.415,-161.472,-30.267,-11.16,-2.647,32.5,0.14465,-0.61353,-0.12421,-0.76624,386
97,0.931,0.031,0.404,-0.488,1.221,0.244,3.702,-67.11,166.954,-25.727,-11.427,-13.253,29.55,0.07571,0.5528,-0.03531,0.82907,391,0.703,0.169,0.704,-0.366,-3.235,-0.061,14.2,-44.154,-130.919,-21.64,-11.32,-2.807,28.17,-0.42429,0.29111,0.25873,0.81741,389,0.461,-0.091,0.904,0.549,-6.714,0.183,-5.641,-27.74,167.36,-13.813,-7.047,-32.133,32.23,-0.11905,-0.23209,0.07367,-0.96252,379,0.965,0.014,0.222,-1.343,0.0,0.0,3.219,-77.421,-161.516,-30.267,-11.16,-2.647,32.5,0.14465,-0.61353,-0.12421,-0.76624,387
98,0.925,0.026,0.406,-0.061,0.916,0.244,3.691,-67.088,166.954,-25.727,-11.427,-13.253,29.55,0.07571,0.5528,-0.03531,0.82907,394,0.687,0.168,0.7,-0.671,-2.075,-0.366,14.211,-44.203,-130.935,-21.64,-11.32,-2.807,28.17,-0.42429,0.29111,0.25873,0.81741,398,0.478,-0.09,0.876,2.136,-4.883,0.0,-5.609,-27.845,167.41,-13.813,-7.047,-32.133,32.23,-0.11905,-0.23209,0.07367,-0.96252,392,0.973,0.013,0.226,-0.061,-0.061,-0.183,3.241,-77.421,-161.537,-30.267,-11.16,-2.647,32.5,0.14465,-0.61353,-0.12421,-0.76624,396
99,0.929,0.021,0.407,0.0,0.488,0.305,3.68,-67.072,166.943,-25.727,-11.427,-13.253,29.55,0.07571,0.5528,-0.03531,0.82907,395,0.683,0.183,0.699,0.183,-2.197,0.305,14.211,-44.236,-130.946,-21.64,-11.32,-2.807,28.17,-0.42429,0.29111,0.25873,0.81741,399,0.464,-0.104,0.873,2.502,-7.751,0.061,-5.57,-27.949,167.415,-13.813,-7.047,-32.133,32.23,-0.11905,-0.23209,0.07367,-0.96252,393,0.963,0.008,0.226,0.244,-0.122,-0.732,3.318,-77.421,-161.62,-30.267,-11.16,-2.647,32.5,0.14465,-0.61353,-0.12421,-0.76624,397
100,0.935,0.021,0.405,-0.244,0.61,0.305,3.664,-67.061,166.921,-25.727,-11.427,-13.253,29.55,0.07571,0.5528,-0.03531,0.82907,402,0.693,0.184,0.696,0.732,-2.625,1.038,14.216,-44.275,-130.946,-21.64,-11.32,-2.807,28.17,-0.42429,0.29111,0.25873,0.81741,404,0.461,-0.086,0.88,2.014,-8.118,-0.122,-5.537,-28.098,167.415,-13.813,-7.047,-32.133,32.23,-0.11905,-0.23209,0.07367,-0.96252,400,0.952,0.0,0.222,0.0,-0.061,-0.61,3.373,-77.421,-161.691,-30.267,-11.16,-2.647,32.5,0.14465,-0.61353,-0.12421,-0.76624,406
101,0.936,0.022,0.403,0.0,0.488,0.488,3.642,-67.05,166.921,-25.727,-11.427,-13.253,29.55,0.07571,0.5528,-0.03531,0.82907,403,0.709,0.174,0.696,0.183,-2.319,0.916,14.222,-44.324,-130.924,-21.64,-11.32,-2.807,28.17,-0.42429,0.29111,0.25873,0.81741,405,0.461,-0.065,0.88,5.493,-9.583,1.648,-5.493,-28.262,167.437,-13.813,-7.047,-32.133,32.23,-0.11905,-0.23209,0.07367,-0.96252,401,0.952,0.004,0.222,0.122,-0.183,0.061,3.362,-77.421,-161.664,-30.267,-11.16,-2.647,32.5,0.14465,-0.61353,-0.12421,-0.76624,407
102,0.94,0.021,0.397,0.366,0.122,0.427,3.625,-67.039,166.943,-25.727,-11.427,-13.253,29.55,0.07571,0.5528,-0.03531,0.82907,412,0.707,0.177,0.701,-0.366,-1.587,0.488,14.222,-44.363,-130.919,-21.64,-11.32,-2.807,28.17,-0.42429,0.29111,0.25873,0.81741,410,0.48,-0.075,0.863,5.31,-9.705,2.136,-5.416,-28.438,167.503,-13.813,-7.047,-32.133,32.23,-0.11905,-0.23209,0.07367,-0.96252,408,0.969,0.011,0.225,1.221,0.305,0.366,3.345,-77.41,-161.603,-30.267,-11.16,-2.647,32.5,0.14465,-0.61353,-0.12421,-0.76624,414
103,0.941,0.024,0.394,0.305,-0.427,0.244,3.615,-67.039,166.97,-25.727,-11.427,-13.253,29.55,0.07571,0.5528,-0.03531,0.82907,413,0.697,0.176,0.697,0.244,-0.854,0.61,14.211,-44.385,-130.908,-21.64,-11.32,-2.807,28.17,-0.42429,0.29111,0.25873,0.81741,411,0.495,-0.091,0.859,3.113,-6.653,2.258,-5.356,-28.603,167.574,-13.813,-7.047,-32.133,32.23,-0.11905,-0.23209,0.07367,-0.96252,409,0.976,0.013,0.224,1.587,0.366,0.244,3.345,-77.399,-161.554,-30.267,-11.16,-2.647,32.5,0.14465,-0.61353,-0.12421,-0.76624,415
104,0.938,0.026,0.393,0.122,-0.732,0.244,3.609,-67.05,166.97,-25.727,-11.427,-13.253,29.55,0.07571,0.5528,-0.03531,0.82907,424,0.705,0.175,0.684,1.221,-0.671,0.916,14.216,-44.401,-130.891,-21.64,-11.32,-2.807,28.17,-0.42429,0.29111,0.25873,0.81741,420,0.481,-0.084,0.865,1.099,-3.662,0.61,-5.328,-28.707,167.635,-13.813,-7.047,-32.133,32.23,-0.11905,-0.23209,0.07367,-0.96252,416,0.959,0.013,0.22,1.587,-0.366,0.366,3.34,-77.404,-161.494,-30.267,-11.16,-2.647,32.5,0.14465,-0.61353,-0.12421,-0.76624,418
105,0.943,0.027,0.391,0.0,-0.549,0.122,3.604,-67.066,166.987,-25.727,-11.427,-13.253,29.55,0.07571,0.5528,-0.03531,0.82907,425,0.719,0.178,0.689,1.648,-0.793,0.671,14.227,-44.412,-130.875,-21.64,-11.32,-2.807,28.17,-0.42429,0.29111,0.25873,0.81741,421,0.48,-0.073,0.854,1.16,-2.502,1.038,-5.323,-28.768,167.673,-13.813,-7.047,-32.133,32.23,-0.11905,-0.23209,0.07367,-0.96252,417,0.955,0.009,0.211,0.977,-0.732,0.427,3.318,-77.415,-161.439,-30.267,-11.16,-2.647,32.5,0.14465,-0.61353,-0.12421,-0.76624,419
106,0.947,0.029,0.392,-0.061,-0.488,0.061,3.604,-67.072,166.981,-26.007,-11.72,-13.207,29.55,0.07571,0.5528,-0.03531,0.82907,430,0.716,0.182,0.699,0.977,-0.488,0.488,14.249,-44.429,-130.858,-21.64,-11.32,-2.807,28.17,-0.42429,0.29111,0.25873,0.81741,428,0.493,-0.079,0.856,2.136,-1.16,2.075,-5.312,-28.806,167.701,-13.813,-7.047,-32.133,32.23,-0.11905,-0.23209,0.07367,-0.96252,422,0.971,0.014,0.207,0.61,-0.366,0.427,3.29,-77.421,-161.389,-30.267,-11.16,-2.647,32.5,0.14465,-0.61353,-0.12421,-0.76624,426
107,0.944,0.029,0.396,-0.305,-0.549,0.0,3.604,-67.083,166.959,-26.007,-11.72,-13.207,29.55,0.07571,0.5528,-0.03531,0.82907,431,0.705,0.184,0.697,0.305,-0.244,0.671,14.26,-44.44,-130.858,-21.64,-11.32,-2.807,28.17,-0.42429,0.29111,0.25873,0.81741,429,0.499,-0.084,0.87,1.648,-2.502,1.221,-5.295,-28.828,167.712,-13.813,-7.047,-32.133,32.23,-0.11905,-0.23209,0.07367,-0.96252,423,0.98,0.016,0.21,1.465,0.0,0.305,3.29,-77.421,-161.362,-30.267,-11.16,-2.647,32.5,0.14465,-0.61353,-0.12421,-0.76624,427
108,0.939,0.027,0.399,-0.305,-0.549,0.0,3.604,-67.094,166.976,-26.007,-11.72,-13.207,29.55,0.07571,0.5528,-0.03531,0.82907,436,0.701,0.18,0.687,0.916,-0.488,0.854,14.26,-44.445,-130.853,-21.64,-11.32,-2.807,28.17,-0.42429,0.29111,0.25873,0.81741,434,0.488,-0.076,0.878,1.709,-3.479,0.732,-5.279,-28.878,167.701,-14.013,-7.02,-32.013,32.23,-0.11905,-0.23209,0.07367,-0.96252,432,0.97,0.011,0.212,0.366,-0.916,0.244,3.279,-77.443,-161.329,-30.613,-10.793,-2.6,32.5,0.14465,-0.61353,-0.12421,-0.76624,438
109,0.936,0.025,0.4,-0.183,-0.122,0.0,3.604,-67.104,166.998,-26.007,-11.72,-13.207,29.55,0.07571,0.5528,-0.03531,0.82907,437,0.706,0.173,0.68,1.587,-0.61,0.916,14.266,-44.462,-130.853,-21.64,-11.32,-2.807,28.17,-0.42429,0.29111,0.25873,0.81741,435,0.487,-0.073,0.871,2.563,-2.441,1.282,-5.251,-28.938,167.69,-14.013,-7.02,-32.013,32.23,-0.11905,-0.23209,0.07367,-0.96252,433,0.958,0.012,0.208,-0.366,-1.038,0.427,3.241,-77.465,-161.29,-30.613,-10.793,-2.6,32.5,0.14465,-0.61353,-0.12421,-0.76624,439
110,0.937,0.025,0.396,-0.061,0.0,0.061,3.598,-67.104,167.014,-26.007,-11.72,-13.207,29.55,0.07697,0.55182,-0.03647,0.82953,444,0.706,0.175,0.684,1.343,-0.122,0.732,14.288,-44.478,-130.842,-21.873,-11.647,-2.16,28.17,-0.42429,0.29111,0.25873,0.81741,442,0.492,-0.077,0.849,3.052,-0.793,1.892,-5.219,-28.976,167.668,-14.013,-7.02,-32.013,32.23,-0.11514,-0.24374,0.07065,-0.96033,440,0.957,0.013,0.211,-0.305,-0.366,0.61,3.186,-77.47,-161.23,-30.613,-10.793,-2.6,32.5,0.14429,-0.61356,-0.12335,-0.76642,446
111,0.938,0.023,0.394,-0.122,0.122,0.0,3.598,-67.099,167.031,-26.007,-11.72,-13.207,29.55,0.07697,0.55182,-0.03647,0.82953,445,0.698,0.175,0.685,1.16,0.244,1.038,14.299,-44.484,-130.836,-21.873,-11.647,-2.16,28.17,-0.42429,0.29111,0.25873,0.81741,443,0.491,-0.084,0.846,1.099,-0.122,0.183,-5.186,-28.987,167.646,-14.013,-7.02,-32.013,32.23,-0.11514,-0.24374,0.07065,-0.96033,441,0.961,0.01,0.21,0.183,0.244,0.366,3.153,-77.465,-161.18,-30.613,-10.793,-2.6,32.5,0.14429,-0.61356,-0.12335,-0.76642,447
112,0.937,0.024,0.393,-0.244,0.0,0.0,3.598,-67.099,167.031,-26.007,-11.72,-13.207,29.55,0.07697,0.55182,-0.03647,0.82953,454,0.703,0.168,0.687,2.319,0.0,1.16,14.31,-44.489,-130.82,-21.873,-11.647,-2.16,28.17,-0.42429,0.29111,0.25873,0.81741,450,0.482,-0.073,0.862,1.099,-2.319,-1.099,-5.164,-29.004,167.613,-14.013,-7.02,-32.013,32.23,-0.11514,-0.24374,0.07065,-0.96033,448,0.957,0.007,0.215,0.183,0.122,0.366,3.131,-77.465,-161.136,-30.613,-10.793,-2.6,32.5,0.14429,-0.61356,-0.12335,-0.76642,452
113,0.938,0.025,0.396,-0.122,-0.061,0.122,3.593,-67.099,167.031,-26.007,-11.72,-13.207,29.55,0.07697,0.55182,-0.03647,0.82953,455,0.708,0.167,0.683,2.991,0.61,0.916,14.337,-44.495,-130.787,-21.873,-11.647,-2.16,28.17,-0.42429,0.29111,0.25873,0.81741,451,0.484,-0.082,0.861,2.991,-4.089,0.366,-5.125,-29.064,167.558,-14.013,-7.02,-32.013,32.23,-0.11514,-0.24374,0.07065,-0.96033,449,0.962,0.01,0.215,0.366,0.183,0.366,3.104,-77.459,-161.087,-30.613,-10.793,-2.6,32.5,0.14429,-0.61356,-0.12335,-0.76642,453
114,0.94,0.025,0.397,-0.061,0.0,0.061,3.587,-67.099,167.025,-26.007,-11.72,-13.207,29.55,0.07697,0.55182,-0.03647,0.82953,460,0.71,0.182,0.689,3.113,1.038,1.221,14.37,-44.489,-130.748,-21.873,-11.647,-2.16,28.17,-0.42511,0.29352,0.26126,0.81534,468,0.493,-0.086,0.838,2.869,-0.427,1.282,-5.081,-29.13,167.542,-14.013,-7.02,-32.013,32.23,-0.11514,-0.24374,0.07065,-0.96033,456,0.969,0.005,0.214,1.038,0.244,0.244,3.076,-77.459,-161.06,-30.613,-10.793,-2.6,32.5,0.14429,-0.61356,-0.12335,-0.76642,458
115,0.942,0.025,0.399,-0.061,0.0,0.0,3.587,-67.099,167.02,-26.007,-11.72,-13.207,29.55,0.07697,0.55182,-0.03647,0.82953,461,0.707,0.186,0.692,2.319,1.221,1.404,14.403,-44.478,-130.699,-21.873,-11.647,-2.16,28.17,-0.42511,0.29352,0.26126,0.81534,469,0.495,-0.076,0.852,2.625,1.831,1.587,-5.043,-29.125,167.531,-14.013,-7.02,-32.013,32.23,-0.11514,-0.24374,0.07065,-0.96033,457,0.969,0.006,0.213,0.854,0.305,0.183,3.071,-77.454,-161.021,-30.613,-10.793,-2.6,32.5,0.14429,-0.61356,-0.12335,-0.76642,459
116,0.941,0.023,0.399,0.0,0.0,0.0,3.587,-67.099,167.014,-26.007,-11.72,-13.207,29.55,0.07697,0.55182,-0.03647,0.82953,464,0.702,0.179,0.694,2.136,0.671,1.465,14.414,-44.467,-130.655,-21.873,-11.647,-2.16,28.17,-0.42511,0.29352,0.26126,0.81534,470,0.488,-0.064,0.876,3.967,1.221,2.625,-5.004,-29.097,167.542,-14.013,-7.02,-32.013,32.23,-0.11514,-0.24374,0.07065,-0.96033,462,0.962,0.011,0.21,0.793,0.549,0.305,3.06,-77.448,-160.977,-30.613,-10.793,-2.6,32.5,0.14429,-0.61356,-0.12335,-0.76642,466
117,0.94,0.025,0.399,0.0,0.244,0.0,3.587,-67.099,167.025,-26.007,-11.72,-13.207,29.55,0.07697,0.55182,-0.03647,0.82953,465,0.703,0.176,0.691,1.77,0.366,1.404,14.425,-44.462,-130.622,-21.873,-11.647,-2.16,28.17,-0.42511,0.29352,0.26126,0.81534,471,0.483,-0.072,0.873,3.967,-0.122,2.991,-4.955,-29.075,167.574,-14.013,-7.02,-32.013,32.23,-0.11514,-0.24374,0.07065,-0.96033,463,0.962,0.009,0.209,1.038,1.16,0.305,3.038,-77.432,-160.961,-30.613,-10.793,-2.6,32.5,0.14429,-0.61356,-0.12335,-0.76642,467
118,0.939,0.027,0.396,0.0,0.366,-0.061,3.587,-67.088,167.031,-26.007,-11.72,-13.207,29.55,0.07697,0.55182,-0.03647,0.82953,474,0.704,0.183,0.694,1.587,0.427,1.465,14.431,-44.467,-130.6,-21.873,-11.647,-2.16,28.17,-0.42511,0.29352,0.26126,0.81534,478,0.488,-0.077,0.863,3.174,-0.244,3.235,-4.916,-29.081,167.624,-14.013,-7.02,-32.013,32.23,-0.11514,-0.24374,0.07065,-0.96033,472,0.965,0.011,0.214,0.671,1.404,0.305,3.016,-77.41,-160.961,-30.613,-10.793,-2.6,32.5,0.14429,-0.61356,-0.12335,-0.76642,476
119,0.94,0.026,0.393,0.0,0.427,-0.061,3.587,-67.083,167.02,-26.007,-11.72,-13.207,29.55,0.07697,0.55182,-0.03647,0.82953,475,0.699,0.189,0.697,1.038,0.549,1.709,14.431,-44.467,-130.562,-21.873,-11.647,-2.16,28.17,-0.42511,0.29352,0.26126,0.81534,479,0.491,-0.078,0.858,2.014,0.305,3.662,-4.9,-29.081,167.684,-14.013,-7.02,-32.013,32.23,-0.11514,-0.24374,0.07065,-0.96033,473,0.964,0.01,0.213,0.366,1.16,0.488,2.988,-77.388,-160.928,-30.613,-10.793,-2.6,32.5,0.14429,-0.61356,-0.12335,-0.76642,477
120,0.94,0.023,0.394,-0.122,0.244,-0.122,3.593,-67.077,167.014,-26.007,-11.72,-13.207,29.55,0.07697,0.55182,-0.03647,0.82953,482,0.697,0.175,0.694,0.732,0.732,1.404,14.414,-44.467,-130.518,-21.873,-11.647,-2.16,28.17,-0.42511,0.29352,0.26126,0.81534,484,0.482,-0.062,0.874,1.526,-0.732,3.235,-4.9,-29.075,167.745,-14.013,-7.02,-32.013,32.23,-0.11514,-0.24374,0.07065,-0.96033,480,0.958,0.013,0.214,0.854,1.282,0.488,2.944,-77.366,-160.878,-30.613,-10.793,-2.6,32.5,0.14429,-0.61356,-0.12335,-0.76642,486
121,0.938,0.024,0.394,0.0,0.488,-0.122,3.598,-67.066,167.003,-26.007,-11.72,-13.207,29.55,0.07697,0.55182,-0.03647,0.82953,483,0.696,0.173,0.696,0.61,0.366,1.099,14.403,-44.462,-130.496,-21.873,-11.647,-2.16,28.17,-0.42511,0.29352,0.26126,0.81534,485,0.479,-0.074,0.869,1.404,-1.77,2.686,-4.905,-29.092,167.794,-14.013,-7.02,-32.013,32.23,-0.11514,-0.24374,0.07065,-0.96033,481,0.957,0.012,0.213,1.16,1.221,0.244,2.917,-77.344,-160.845,-30.613,-10.793,-2.6,32.5,0.14429,-0.61356,-0.12335,-0.76642,487
122,0.936,0.026,0.396,0.0,0.671,-0.183,3.604,-67.055,166.976,-26.007,-11.72,-13.207,29.55,0.07697,0.55182,-0.03647,0.82953,496,0.698,0.185,0.698,0.732,0.0,1.526,14.392,-44.462,-130.479,-21.873,-11.647,-2.16,28.17,-0.42511,0.29352,0.26126,0.81534,490,0.48,-0.089,0.871,0.183,-4.089,-0.61,-4.911,-29.141,167.822,-15.0,-6.987,-31.813,32.23,-0.11514,-0.24374,0.07065,-0.96033,488,0.959,0.008,0.216,0.427,0.977,0.061,2.917,-77.322,-160.829,-30.613,-10.793,-2.6,32.5,0.14429,-0.61356,-0.12335,-0.76642,492
123,0.936,0.028,0.398,-0.183,0.366,-0.183,3.609,-67.05,166.954,-26.007,-11.72,-13.207,29.55,0.07697,0.55182,-0.03647,0.82953,497,0.698,0.185,0.696,0.916,-0.488,1.892,14.381,-44.473,-130.457,-21.873,-11.647,-2.16,28.17,-0.42511,0.29352,0.26126,0.81534,491,0.486,-0.066,0.867,1.099,-3.906,1.16,-4.905,-29.218,167.827,-15.0,-6.987,-31.813,32.23,-0.11514,-0.24374,0.07065,-0.96033,489,0.96,0.011,0.219,-0.183,0.671,0.366,2.9,-77.305,-160.801,-30.613,-10.793,-2.6,32.5,0.14429,-0.61356,-0.12335,-0.76642,493
124,0.938,0.026,0.4,-0.183,0.305,-0.183,3.615,-67.039,166.915,-26.253,-11.753,-13.653,29.55,0.07697,0.55182,-0.03647,0.82953,500,0.7,0.18,0.701,0.366,-0.671,1.831,14.359,-44.495,-130.424,-21.873,-11.647,-2.16,28.17,-0.42511,0.29352,0.26126,0.81534,498,0.485,-0.063,0.872,2.319,-4.028,3.418,-4.9,-29.295,167.871,-15.0,-6.987,-31.813,32.23,-0.11514,-0.24374,0.07065,-0.96033,494,0.964,0.01,0.219,0.366,0.793,0.671,2.856,-77.294,-160.757,-30.613,-10.793,-2.6,32.5,0.14429,-0.61356,-0.12335,-0.76642,502
125,0.938,0.027,0.401,0.0,0.183,-0.061,3.62,-67.039,166.888,-26.253,-11.753,-13.653,29.55,0.07697,0.55182,-0.03647,0.82953,501,0.701,0.176,0.703,-0.183,-0.671,1.465,14.337,-44.511,-130.397,-21.873,-11.647,-2.16,28.17,-0.42511,0.29352,0.26126,0.81534,499,0.483,-0.072,0.868,0.916,-4.822,2.686,-4.9,-29.372,167.948,-15.0,-6.987,-31.813,32.23,-0.11514,-0.24374,0.07065,-0.96033,495,0.966,0.01,0.226,0.549,0.793,0.61,2.802,-77.278,-160.714,-30.613,-10.793,-2.6,32.5,0.14429,-0.61356,-0.12335,-0.76642,503
126,0.936,0.027,0.4,0.061,0.122,0.122,3.62,-67.033,166.849,-26.253,-11.753,-13.653,29.55,0.07697,0.55182,-0.03647,0.82953,514,0.7,0.176,0.697,0.061,-0.793,1.038,14.315,-44.528,-130.369,-21.873,-11.647,-2.16,28.17,-0.42511,0.29352,0.26126,0.81534,508,0.487,-0.077,0.873,-0.305,-5.676,1.648,-4.916,-29.465,167.997,-15.0,-6.987,-31.813,32.23,-0.11249,-0.24719,0.06775,-0.95999,504,0.962,0.013,0.224,0.244,0.61,0.427,2.758,-77.261,-160.67,-30.447,-11.227,-2.593,32.5,0.14429,-0.61356,-0.12335,-0.76642,506
127,0.934,0.029,0.4,0.061,-0.122,0.122,3.615,-67.033,166.789,-26.253,-11.753,-13.653,29.55,0.07697,0.55182,-0.03647,0.82953,515,0.698,0.168,0.697,0.244,-0.793,0.61,14.31,-44.544,-130.358,-21.873,-11.647,-2.16,28.17,-0.42511,0.29352,0.26126,0.81534,509,0.496,-0.079,0.866,0.0,-5.371,1.953,-4.949,-29.564,168.03,-15.0,-6.987,-31.813,32.23,-0.11249,-0.24719,0.06775,-0.95999,505,0.958,0.015,0.226,0.0,0.305,0.488,2.725,-77.25,-160.615,-30.447,-11.227,-2.593,32.5,0.14429,-0.61356,-0.12335,-0.76642,507
128,0.933,0.029,0.398,0.122,-0.366,0.0,3.62,-67.039,166.745,-26.253,-11.753,-13.653,29.55,0.07858,0.55127,-0.03735,0.82971,518,0.699,0.171,0.693,0.305,-0.427,0.305,14.31,-44.555,-130.347,-21.953,-11.307,-2.287,28.17,-0.42511,0.29352,0.26126,0.81534,512,0.49,-0.083,0.854,1.038,-3.845,2.197,-4.966,-29.658,168.085,-15.0,-6.987,-31.813,32.23,-0.11249,-0.24719,0.06775,-0.95999,510,0.958,0.01,0.225,-0.366,0.0,0.244,2.686,-77.245,-160.554,-30.447,-11.227,-2.593,32.5,0.14429,-0.61356,-0.12335,-0.76642,516
129,0.937,0.03,0.399,-0.244,-0.61,0.0,3.625,-67.05,166.696,-26.253,-11.753,-13.653,29.55,0.07858,0.55127,-0.03735,0.82971,519,0.702,0.18,0.689,0.366,-0.244,0.244,14.31,-44.561,-130.353,-21.953,-11.307,-2.287,28.17,-0.42511,0.29352,0.26126,0.81534,513,0.491,-0.089,0.853,0.854,-2.808,1.404,-4.977,-29.718,168.151,-15.0,-6.987,-31.813,32.23,-0.11249,-0.24719,0.06775,-0.95999,511,0.96,0.009,0.226,-0.427,-0.61,0.122,2.664,-77.25,-160.505,-30.447,-11.227,-2.593,32.5,0.14429,-0.61356,-0.12335,-0.76642,517
130,0.938,0.027,0.4,-0.305,-0.732,0.0,3.625,-67.061,166.657,-26.253,-11.753,-13.653,29.55,0.07858,0.55127,-0.03735,0.82971,526,0.705,0.177,0.687,0.305,-0.061,-0.061,14.315,-44.561,-130.364,-21.953,-11.307,-2.287,28.17,-0.42511,0.29352,0.26126,0.81534,522,0.494,-0.072,0.854,0.427,-1.587,0.671,-4.982,-29.762,168.179,-15.0,-6.987,-31.813,32.23,-0.11249,-0.24719,0.06775,-0.95999,520,0.959,0.013,0.218,0.122,-0.61,0.0,2.653,-77.256,-160.455,-30.447,-11.227,-2.593,32.5,0.14651,-0.61194,-0.12357,-0.76727,528
131,0.94,0.025,0.4,-0.122,-0.549,0.0,3.625,-67.072,166.602,-26.253,-11.753,-13.653,29.55,0.07858,0.55127,-0.03735,0.82971,527,0.706,0.173,0.693,-0.122,-0.427,-0.305,14.321,-44.561,-130.386,-21.953,-11.307,-2.287,28.17,-0.42511,0.29352,0.26126,0.81534,523,0.497,-0.075,0.852,0.793,-0.854,0.427,-4.982,-29.784,168.173,-15.0,-6.987,-31.813,32.23,-0.11249,-0.24719,0.06775,-0.95999,521,0.962,0.013,0.217,0.488,-0.305,0.0,2.664,-77.261,-160.428,-30.447,-11.227,-2.593,32.5,0.14651,-0.61194,-0.12357,-0.76727,529
132,0.939,0.025,0.398,0.0,-0.488,0.305,3.62,-67.077,166.569,-26.253,-11.753,-13.653,29.55,0.07858,0.55127,-0.03735,0.82971,530,0.705,0.177,0.693,-0.366,-0.671,-0.122,14.326,-44.566,-130.402,-21.953,-11.307,-2.287,28.17,-0.42819,0.29303,0.26254,0.81348,536,0.499,-0.079,0.858,0.427,-0.549,0.061,-4.971,-29.795,168.151,-15.0,-6.987,-31.813,32.23,-0.11249,-0.24719,0.06775,-0.95999,524,0.962,0.007,0.217,0.916,0.0,-0.244,2.697,-77.261,-160.433,-30.447,-11.227,-2.593,32.5,0.14651,-0.61194,-0.12357,-0.76727,532
133,0.94,0.024,0.395,-0.061,-0.366,0.305,3.609,-67.083,166.536,-26.253,-11.753,-13.653,29.55,0.07858,0.55127,-0.03735,0.82971,531,0.709,0.183,0.691,-0.061,-0.61,-0.061,14.326,-44.577,-130.413,-21.953,-11.307,-2.287,28.17,-0.42819,0.29303,0.26254,0.81348,537,0.497,-0.077,0.861,0.549,-1.892,0.183,-4.966,-29.811,168.135,-15.0,-6.987,-31.813,32.23,-0.11249,-0.24719,0.06775,-0.95999,525,0.964,0.005,0.214,0.366,-0.244,-0.244,2.73,-77.267,-160.472,-30.447,-11.227,-2.593,32.5,0.14651,-0.61194,-0.12357,-0.76727,533
134,0.944,0.023,0.392,-0.122,-0.488,0.366,3.593,-67.094,166.509,-26.253,-11.753,-13.653,29.55,0.07858,0.55127,-0.03735,0.82971,542,0.714,0.178,0.688,0.244,-0.488,0.0,14.332,-44.588,-130.419,-21.953,-11.307,-2.287,28.17,-0.42819,0.29303,0.26254,0.81348,540,0.505,-0.071,0.861,0.0,-2.014,0.427,-4.966,-29.85,168.113,-15.0,-6.987,-31.813,32.23,-0.11249,-0.24719,0.06775,-0.95999,534,0.967,0.01,0.213,0.977,0.061,-0.061,2.758,-77.267,-160.488,-30.447,-11.227,-2.593,32.5,0.14651,-0.61194,-0.12357,-0.76727,538
135,0.947,0.023,0.393,0.183,-0.366,0.427,3.582,-67.099,166.487,-26.253,-11.753,-13.653,29.55,0.07858,0.55127,-0.03735,0.82971,543,0.713,0.178,0.69,0.244,-0.183,0.0,14.337,-44.594,-130.419,-21.953,-11.307,-2.287,28.17,-0.42819,0.29303,0.26254,0.81348,541,0.509,-0.07,0.856,0.366,-3.784,0.183,-4.971,-29.894,168.069,-15.0,-6.987,-31.813,32.23,-0.11249,-0.24719,0.06775,-0.95999,535,0.971,0.011,0.214,0.916,0.0,0.0,2.78,-77.261,-160.499,-30.447,-11.227,-2.593,32.5,0.14651,-0.61194,-0.12357,-0.76727,539
136,0.945,0.023,0.394,0.122,-0.244,0.305,3.571,-67.104,166.481,-26.253,-11.753,-13.653,29.55,0.07858,0.55127,-0.03735,0.82971,546,0.713,0.181,0.691,-0.061,-0.244,0.244,14.337,-44.599,-130.408,-21.953,-11.307,-2.287,28.17,-0.42819,0.29303,0.26254,0.81348,550,0.512,-0.074,0.849,0.671,-3.113,0.244,-4.971,-29.965,168.019,-15.0,-6.987,-31.813,32.23,-0.11249,-0.24719,0.06775,-0.95999,544,0.969,0.005,0.211,0.427,-0.061,0.122,2.785,-77.267,-160.499,-30.447,-11.227,-2.593,32.5,0.14651,-0.61194,-0.12357,-0.76727,548
137,0.941,0.025,0.393,0.061,-0.244,0.305,3.554,-67.11,166.487,-26.253,-11.753,-13.653,29.55,0.07858,0.55127,-0.03735,0.82971,547,0.71,0.187,0.694,-0.671,0.488,0.366,14.326,-44.599,-130.402,-21.953,-11.307,-2.287,28.17,-0.42819,0.29303,0.26254,0.81348,551,0.51,-0.073,0.857,0.122,-1.099,0.793,-4.966,-30.015,167.975,-15.0,-6.987,-31.813,32.23,-0.11249,-0.24719,0.06775,-0.95999,545,0.971,0.004,0.211,-0.488,-0.305,0.427,2.758,-77.267,-160.488,-30.447,-11.227,-2.593,32.5,0.14651,-0.61194,-0.12357,-0.76727,549
138,0.936,0.027,0.394,0.0,-0.305,0.122,3.549,-67.115,166.492,-26.253,-11.753,-13.653,29.55,0.07858,0.55127,-0.03735,0.82971,556,0.7,0.17,0.688,-1.526,0.854,-0.122,14.304,-44.588,-130.397,-21.953,-11.307,-2.287,28.17,-0.42819,0.29303,0.26254,0.81348,554,0.506,-0.066,0.86,-1.038,-1.587,0.732,-4.982,-30.042,167.943,-14.587,-7.1,-31.827,32.23,-0.11249,-0.24719,0.06775,-0.95999,552,0.962,0.009,0.217,-0.488,-0.549,0.427,2.703,-77.278,-160.455,-30.447,-11.227,-2.593,32.5,0.14651,-0.61194,-0.12357,-0.76727,558
139,0.938,0.025,0.396,0.122,-0.366,0.0,3.554,-67.126,166.492,-26.253,-11.753,-13.653,29.55,0.07858,0.55127,-0.03735,0.82971,557,0.7,0.163,0.688,-1.16,0.549,-0.427,14.277,-44.577,-130.408,-21.953,-11.307,-2.287,28.17,-0.42819,0.29303,0.26254,0.81348,555,0.501,-0.078,0.863,0.122,-4.456,0.122,-5.004,-30.086,167.91,-14.587,-7.1,-31.827,32.23,-0.11249,-0.24719,0.06775,-0.95999,553,0.954,0.012,0.217,-0.244,-0.366,0.061,2.675,-77.289,-160.433,-30.447,-11.227,-2.593,32.5,0.14651,-0.61194,-0.12357,-0.76727,559
140,0.937,0.025,0.396,0.061,-0.122,0.0,3.56,-67.132,166.481,-26.253,-11.753,-13.653,29.55,0.07858,0.55127,-0.03735,0.82971,564,0.702,0.167,0.688,-0.793,0.305,-0.366,14.266,-44.572,-130.43,-21.953,-11.307,-2.287,28.17,-0.42819,0.29303,0.26254,0.81348,562,0.499,-0.087,0.845,-0.061,-4.7,0.122,-5.004,-30.179,167.893,-14.587,-7.1,-31.827,32.23,-0.11301,-0.25418,0.06937,-0.95798,560,0.957,0.004,0.217,-0.549,-0.366,-0.183,2.67,-77.3,-160.461,-30.447,-11.227,-2.593,32.5,0.14651,-0.61194,-0.12357,-0.76727,566
141,0.936,0.025,0.397,-0.122,0.0,0.0,3.56,-67.132,166.459,-26.253,-11.753,-13.653,29.55,0.07858,0.55127,-0.03735,0.82971,565,0.706,0.177,0.687,-0.366,0.61,-0.061,14.255,-44.561,-130.446,-21.953,-11.307,-2.287,28.17,-0.42819,0.29303,0.26254,0.81348,563,0.504,-0.085,0.843,-0.671,-2.136,0.0,-5.015,-30.262,167.877,-14.587,-7.1,-31.827,32.23,-0.11301,-0.25418,0.06937,-0.95798,561,0.96,0.001,0.217,-1.099,-0.305,-0.244,2.67,-77.305,-160.488,-30.447,-11.227,-2.593,32.5,0.14651,-0.61194,-0.12357,-0.76727,567
142,0.937,0.025,0.398,-0.366,-0.061,-0.061,3.554,-67.132,166.443,-26.253,-11.753,-13.653,29.55,0.07858,0.55127,-0.03735,0.82971,576,0.705,0.178,0.692,-0.244,1.038,-0.061,14.244,-44.55,-130.457,-21.953,-11.307,-2.287,28.17,-0.42819,0.29303,0.26254,0.81348,574,0.509,-0.076,0.846,-0.732,-1.465,-0.061,-5.032,-30.3,167.86,-14.587,-7.1,-31.827,32.23,-0.11301,-0.25418,0.06937,-0.95798,568,0.964,0.006,0.22,-0.854,-0.061,-0.183,2.659,-77.311,-160.527,-30.447,-11.227,-2.593,32.5,0.14651,-0.61194,-0.12357,-0.76727,570
143,0.937,0.024,0.399,-0.244,-0.305,-0.061,3.554,-67.132,166.437,-26.253,-11.753,-13.653,29.55,0.07858,0.55127,-0.03735,0.82971,577,0.7,0.172,0.691,0.0,0.854,-0.366,14.238,-44.528,-130.463,-21.953,-11.307,-2.287,28.17,-0.42819,0.29303,0.26254,0.81348,575,0.505,-0.071,0.852,-0.122,-3.113,-0.122,-5.048,-30.339,167.833,-14.587,-7.1,-31.827,32.23,-0.11301,-0.25418,0.06937,-0.95798,569,0.961,0.009,0.22,-0.427,0.183,-0.366,2.659,-77.305,-160.571,-30.447,-11.227,-2.593,32.5,0.14651,-0.61194,-0.12357,-0.76727,571
144,0.938,0.021,0.398,0.061,-0.488,-0.122,3.56,-67.143,166.426,-26.013,-11.613,-12.587,29.55,0.07858,0.55127,-0.03735,0.82971,582,0.697,0.177,0.693,0.61,0.61,0.061,14.244,-44.517,-130.468,-21.84,-11.4,-1.973,28.17,-0.42819,0.29303,0.26254,0.81348,580,0.506,-0.085,0.85,-0.183,-3.174,-0.305,-5.054,-30.405,167.8,-14.587,-7.1,-31.827,32.23,-0.11301,-0.25418,0.06937,-0.95798,572,0.959,0.008,0.219,0.122,0.671,-0.488,2.686,-77.3,-160.604,-30.447,-11.227,-2.593,32.5,0.14651,-0.61194,-0.12357,-0.76727,578
145,0.938,0.021,0.397,0.0,-0.488,-0.183,3.571,-67.148,166.487,-26.013,-11.613,-12.587,29.55,0.07858,0.55127,-0.03735,0.82971,583,0.704,0.184,0.692,1.221,0.122,1.099,14.249,-44.517,-130.457,-21.84,-11.4,-1.973,28.17,-0.42819,0.29303,0.26254,0.81348,581,0.499,-0.072,0.853,-2.014,-2.136,-1.038,-5.065,-30.465,167.767,-14.587,-7.1,-31.827,32.23,-0.11301,-0.25418,0.06937,-0.95798,573,0.958,0.0,0.215,0.549,0.916,-0.183,2.708,-77.278,-160.626,-30.447,-11.227,-2.593,32.5,0.14651,-0.61194,-0.12357,-0.76727,579
146,0.942,0.024,0.396,-0.244,-0.427,-0.183,3.576,-67.159,166.531,-26.013,-11.613,-12.587,29.55,0.07858,0.55127,-0.03735,0.82971,588,0.709,0.179,0.695,0.854,0.488,1.526,14.244,-44.517,-130.43,-21.84,-11.4,-1.973,28.17,-0.42819,0.29303,0.26254,0.81348,586,0.512,-0.062,0.859,-1.953,-1.404,0.488,-5.103,-30.504,167.706,-14.587,-7.1,-31.827,32.23,-0.11301,-0.25418,0.06937,-0.95798,584,0.966,0.003,0.218,0.061,0.732,0.122,2.703,-77.261,-160.615,-30.4,-10.773,-2.7,32.5,0.14651,-0.61194,-0.12357,-0.76727,590
147,0.942,0.025,0.394,-0.061,-0.183,-0.061,3.576,-67.159,166.547,-26.013,-11.613,-12.587,29.55,0.07858,0.55127,-0.03735,0.82971,589,0.701,0.176,0.693,0.122,0.916,1.16,14.227,-44.511,-130.402,-21.84,-11.4,-1.973,28.17,-0.42819,0.29303,0.26254,0.81348,587,0.518,-0.069,0.849,-1.953,-2.014,1.526,-5.147,-30.531,167.684,-14.587,-7.1,-31.827,32.23,-0.11301,-0.25418,0.06937,-0.95798,585,0.967,0.011,0.215,-0.183,0.549,0.366,2.664,-77.25,-160.576,-30.4,-10.773,-2.7,32.5,0.14651,-0.61194,-0.12357,-0.76727,591
148,0.942,0.024,0.393,0.122,-0.122,-0.061,3.582,-67.159,166.547,-26.013,-11.613,-12.587,29.55,0.08032,0.55206,-0.03888,0.82895,596,0.7,0.174,0.692,0.122,0.854,0.916,14.211,-44.5,-130.38,-21.84,-11.4,-1.973,28.17,-0.42776,0.29306,0.26166,0.81396,594,0.509,-0.081,0.85,-2.563,-2.502,0.793,-5.208,-30.569,167.668,-14.587,-7.1,-31.827,32.23,-0.11301,-0.25418,0.06937,-0.95798,592,0.959,0.013,0.215,0.366,0.793,0.366,2.62,-77.239,-160.554,-30.4,-10.773,-2.7,32.5,0.14597,-0.61197,-0.12296,-0.76743,598
149,0.941,0.025,0.391,0.305,0.305,0.0,3.587,-67.159,166.553,-26.013,-11.613,-12.587,29.55,0.08032,0.55206,-0.03888,0.82895,597,0.707,0.177,0.694,0.488,0.793,0.793,14.194,-44.489,-130.364,-21.84,-11.4,-1.973,28.17,-0.42776,0.29306,0.26166,0.81396,595,0.507,-0.081,0.85,-1.587,-3.845,0.366,-5.262,-30.63,167.651,-14.587,-7.1,-31.827,32.23,-0.11301,-0.25418,0.06937,-0.95798,593,0.96,0.012,0.212,0.61,0.366,0.183,2.598,-77.228,-160.549,-30.4,-10.773,-2.7,32.5,0.14597,-0.61197,-0.12296,-0.76743,599
150,0.942,0.029,0.393,0.061,0.427,0.0,3.587,-67.148,166.558,-26.013,-11.613,-12.587,29.55,0.08032,0.55206,-0.03888,0.82895,608,0.705,0.175,0.698,-0.122,0.671,0.427,14.183,-44.478,-130.358,-21.84,-11.4,-1.973,28.17,-0.42776,0.29306,0.26166,0.81396,602,0.513,-0.079,0.843,-0.305,-3.784,1.709,-5.295,-30.701,167.624,-14.587,-7.1,-31.827,32.23,-0.11301,-0.25418,0.06937,-0.95798,600,0.968,0.013,0.216,0.671,0.061,0.122,2.593,-77.228,-160.549,-30.4,-10.773,-2.7,32.5,0.14597,-0.61197,-0.12296,-0.76743,604
151,0.94,0.032,0.393,0.0,0.122,0.0,3.587,-67.148,166.558,-26.013,-11.613,-12.587,29.55,0.08032,0.55206,-0.03888,0.82895,609,0.698,0.184,0.7,-0.427,0.488,0.183,14.172,-44.467,-130.358,-21.84,-11.4,-1.973,28.17,-0.42776,0.29306,0.26166,0.81396,603,0.515,-0.085,0.851,0.366,-4.211,1.892,-5.323,-30.778,167.618,-14.587,-7.1,-31.827,32.23,-0.11301,-0.25418,0.06937,-0.95798,601,0.967,0.013,0.22,-0.305,-0.183,0.0,2.587,-77.228,-160.554,-30.4,-10.773,-2.7,32.5,0.14597,-0.61197,-0.12296,-0.76743,605
152,0.938,0.03,0.394,-0.183,-0.061,0.0,3.587,-67.148,166.564,-26.013,-11.613,-12.587,29.55,0.08032,0.55206,-0.03888,0.82895,614,0.694,0.184,0.7,-0.549,0.488,0.0,14.161,-44.456,-130.369,-21.84,-11.4,-1.973,28.17,-0.42776,0.29306,0.26166,0.81396,612,0.509,-0.078,0.861,0.366,-5.554,1.465,-5.339,-30.866,167.596,-15.053,-7.193,-32.013,32.23,-0.11301,-0.25418,0.06937,-0.95798,606,0.961,0.016,0.219,-1.16,-0.61,0.0,2.576,-77.239,-160.576,-30.4,-10.773,-2.7,32.5,0.14597,-0.61197,-0.12296,-0.76743,610
153,0.936,0.026,0.396,-0.183,-0.061,0.0,3.593,-67.148,166.564,-26.013,-11.613,-12.587,29.55,0.08032,0.55206,-0.03888,0.82895,615,0.692,0.178,0.696,-0.244,0.0,-0.061,14.156,-44.451,-130.386,-21.84,-11.4,-1.973,28.17,-0.42776,0.29306,0.26166,0.81396,613,0.512,-0.074,0.859,0.854,-6.714,1.221,-5.35,-30.976,167.596,-15.053,-7.193,-32.013,32.23,-0.11301,-0.25418,0.06937,-0.95798,607,0.955,0.015,0.217,-0.854,-0.427,0.183,2.549,-77.25,-160.576,-30.4,-10.773,-2.7,32.5,0.14597,-0.61197,-0.12296,-0.76743,611
154,0.934,0.025,0.398,0.061,0.061,0.183,3.587,-67.148,166.575,-26.013,-11.613,-12.587,29.55,0.08032,0.55206,-0.03888,0.82895,618,0.7,0.175,0.692,0.0,-0.183,0.0,14.161,-44.451,-130.402,-21.84,-11.4,-1.973,28.17,-0.42776,0.29306,0.26166,0.81396,622,0.513,-0.078,0.847,0.977,-6.104,1.465,-5.356,-31.102,167.607,-15.053,-7.193,-32.013,32.23,-0.11301,-0.25418,0.06937,-0.95798,616,0.954,0.013,0.217,-0.854,-0.183,0.122,2.532,-77.256,-160.571,-30.4,-10.773,-2.7,32.5,0.14597,-0.61197,-0.12296,-0.76743,620
155,0.937,0.025,0.398,0.0,0.305,0.366,3.576,-67.143,166.597,-26.013,-11.613,-12.587,29.55,0.08032,0.55206,-0.03888,0.82895,619,0.705,0.181,0.693,0.244,0.0,0.244,14.161,-44.451,-130.408,-21.84,-11.4,-1.973,28.17,-0.42776,0.29306,0.26166,0.81396,623,0.517,-0.079,0.836,0.732,-3.662,1.16,-5.356,-31.201,167.624,-15.053,-7.193,-32.013,32.23,-0.11301,-0.25418,0.06937,-0.95798,617,0.963,0.008,0.218,-0.793,-0.061,0.122,2.51,-77.256,-160.56,-30.4,-10.773,-2.7,32.5,0.14597,-0.61197,-0.12296,-0.76743,621
156,0.938,0.026,0.399,-0.122,0.244,0.366,3.56,-67.137,166.619,-26.013,-11.613,-12.587,29.55,0.08032,0.55206,-0.03888,0.82895,626,0.699,0.178,0.693,0.0,0.183,0.427,14.161,-44.451,-130.402,-21.84,-11.4,-1.973,28.17,-0.42776,0.29306,0.26166,0.81396,630,0.523,-0.075,0.839,0.305,-2.93,0.305,-5.356,-31.267,167.635,-15.053,-7.193,-32.013,32.23,-0.11624,-0.26184,0.0737,-0.9552,624,0.966,0.005,0.222,-0.732,-0.183,0.183,2.488,-77.261,-160.532,-30.4,-10.773,-2.7,32.5,0.14597,-0.61197,-0.12296,-0.76743,628
157,0.939,0.025,0.398,-0.122,-0.061,0.305,3.543,-67.137,166.635,-26.013,-11.613,-12.587,29.55,0.08032,0.55206,-0.03888,0.82895,627,0.697,0.177,0.697,0.366,0.0,0.488,14.156,-44.451,-130.391,-21.84,-11.4,-1.973,28.17,-0.42776,0.29306,0.26166,0.81396,631,0.522,-0.072,0.845,0.549,-2.258,0.305,-5.356,-31.317,167.629,-15.053,-7.193,-32.013,32.23,-0.11624,-0.26184,0.0737,-0.9552,625,0.96,0.008,0.223,-0.122,0.061,0.366,2.455,-77.256,-160.488,-30.4,-10.773,-2.7,32.5,0.14597,-0.61197,-0.12296,-0.76743,629
158,0.938,0.024,0.397,0.183,0.0,0.427,3.532,-67.137,166.663,-26.013,-11.613,-12.587,29.55,0.08032,0.55206,-0.03888,0.82895,636,0.703,0.174,0.695,0.793,-0.183,0.366,14.167,-44.451,-130.391,-21.84,-11.4,-1.973,28.17,-0.42776,0.29306,0.26166,0.81396,634,0.514,-0.077,0.844,0.732,-1.343,0.671,-5.35,-31.355,167.64,-15.053,-7.193,-32.013,32.23,-0.11624,-0.26184,0.0737,-0.9552,632,0.958,0.012,0.217,-0.061,0.183,0.427,2.417,-77.256,-160.45,-30.4,-10.773,-2.7,32.5,0.14597,-0.61197,-0.12296,-0.76743,638
159,0.94,0.024,0.394,0.366,0.122,0.61,3.51,-67.137,166.696,-26.013,-11.613,-12.587,29.55,0.08032,0.55206,-0.03888,0.82895,637,0.713,0.172,0.693,1.038,0.0,0.427,14.183,-44.456,-130.386,-21.84,-11.4,-1.973,28.17,-0.42776,0.29306,0.26166,0.81396,635,0.522,-0.081,0.843,1.099,-0.61,0.854,-5.339,-31.377,167.646,-15.053,-7.193,-32.013,32.23,-0.11624,-0.26184,0.0737,-0.9552,633,0.963,0.008,0.218,0.244,0.183,0.427,2.39,-77.25,-160.4,-30.4,-10.773,-2.7,32.5,0.14597,-0.61197,-0.12296,-0.76743,639
160,0.944,0.025,0.393,0.183,0.0,0.549,3.494,-67.137,166.729,-26.013,-11.613,-12.587,29.55,0.08032,0.55206,-0.03888,0.82895,644,0.707,0.178,0.695,0.244,0.671,0.183,14.183,-44.445,-130.386,-21.84,-11.4,-1.973,28.17,-0.42776,0.29306,0.26166,0.81396,646,0.532,-0.083,0.832,0.854,0.244,0.488,-5.328,-31.382,167.646,-15.053,-7.193,-32.013,32.23,-0.11624,-0.26184,0.0737,-0.9552,640,0.973,0.004,0.219,0.183,0.122,0.366,2.362,-77.245,-160.345,-30.4,-10.773,-2.7,32.5,0.14597,-0.61197,-0.12296,-0.76743,642
161,0.938,0.026,0.393,0.0,-0.427,0.427,3.477,-67.143,166.75,-26.013,-11.613,-12.587,29.55,0.08032,0.55206,-0.03888,0.82895,645,0.696,0.17,0.691,0.061,0.854,0.0,14.183,-44.429,-130.397,-21.84,-11.4,-1.973,28.17,-0.42776,0.29306,0.26166,0.81396,647,0.528,-0.08,0.845,0.061,0.488,0.0,-5.317,-31.371,167.646,-15.053,-7.193,-32.013,32.23,-0.11624,-0.26184,0.0737,-0.9552,641,0.96,0.007,0.217,0.183,0.0,0.244,2.34,-77.245,-160.296,-30.4,-10.773,-2.7,32.5,0.14597,-0.61197,-0.12296,-0.76743,643
162,0.937,0.024,0.392,0.0,-0.244,0.305,3.466,-67.148,166.767,-26.013,-11.613,-12.587,29.55,0.08032,0.55206,-0.03888,0.82895,652,0.709,0.17,0.689,1.038,0.0,-0.122,14.2,-44.423,-130.413,-21.933,-11.627,-2.307,28.17,-0.42776,0.29306,0.26166,0.81396,656,0.516,-0.082,0.845,0.854,0.305,-0.305,-5.312,-31.366,167.64,-15.053,-7.193,-32.013,32.23,-0.11624,-0.26184,0.0737,-0.9552,648,0.953,0.007,0.212,0.0,0.0,0.0,2.335,-77.245,-160.269,-30.4,-10.773,-2.7,32.5,0.14597,-0.61197,-0.12296,-0.76743,650
163,0.946,0.023,0.394,-0.061,0.183,0.244,3.455,-67.148,166.783,-26.013,-11.613,-12.587,29.55,0.08032,0.55206,-0.03888,0.82895,653,0.721,0.174,0.694,1.038,-0.305,-0.122,14.222,-44.429,-130.435,-21.933,-11.627,-2.307,28.17,-0.42776,0.29306,0.26166,0.81396,657,0.523,-0.085,0.835,0.977,0.793,-0.183,-5.29,-31.36,167.624,-15.053,-7.193,-32.013,32.23,-0.11624,-0.26184,0.0737,-0.9552,649,0.969,0.005,0.208,-0.244,0.244,-0.061,2.329,-77.245,-160.241,-30.4,-10.773,-2.7,32.5,0.14597,-0.61197,-0.12296,-0.76743,651
164,0.946,0.024,0.396,-0.244,0.427,0.122,3.444,-67.137,166.794,-25.853,-11.46,-12.787,29.55,0.08032,0.55206,-0.03888,0.82895,658,0.711,0.177,0.699,0.0,0.244,-0.305,14.227,-44.429,-130.446,-21.933,-11.627,-2.307,28.17,-0.42746,0.29257,0.26132,0.81442,660,0.539,-0.083,0.839,1.343,0.366,-0.244,-5.268,-31.349,167.596,-15.053,-7.193,-32.013,32.23,-0.11624,-0.26184,0.0737,-0.9552,654,0.979,0.005,0.215,-0.549,0.305,-0.122,2.329,-77.239,-160.225,-30.593,-10.76,-1.953,32.5,0.14597,-0.61197,-0.12296,-0.76743,662
165,0.941,0.023,0.396,-0.183,0.183,0.0,3.444,-67.137,166.8,-25.853,-11.46,-12.787,29.55,0.08032,0.55206,-0.03888,0.82895,659,0.695,0.175,0.702,-0.549,0.244,-0.549,14.227,-44.423,-130.457,-21.933,-11.627,-2.307,28.17,-0.42746,0.29257,0.26132,0.81442,661,0.53,-0.081,0.848,1.221,0.122,-0.183,-5.24,-31.349,167.585,-15.053,-7.193,-32.013,32.23,-0.11624,-0.26184,0.0737,-0.9552,655,0.97,0.005,0.216,-0.61,0.427,-0.183,2.324,-77.234,-160.225,-30.593,-10.76,-1.953,32.5,0.14597,-0.61197,-0.12296,-0.76743,663
166,0.939,0.024,0.393,0.122,0.183,0.0,3.444,-67.132,166.8,-25.853,-11.46,-12.787,29.55,0.08032,0.55206,-0.03888,0.82895,666,0.691,0.175,0.701,-0.366,-0.061,-0.671,14.233,-44.423,-130.479,-21.933,-11.627,-2.307,28.17,-0.42746,0.29257,0.26132,0.81442,672,0.516,-0.083,0.858,1.221,-0.122,0.0,-5.219,-31.349,167.58,-15.053,-7.193,-32.013,32.23,-0.11624,-0.26184,0.0737,-0.9552,664,0.955,0.008,0.217,-0.183,0.671,-0.427,2.34,-77.223,-160.252,-30.593,-10.76,-1.953,32.5,0.14655,-0.61191,-0.12274,-0.7674,668
167,0.937,0.024,0.394,0.122,0.305,0.0,3.45,-67.126,166.805,-25.853,-11.46,-12.787,29.55,0.08032,0.55206,-0.03888,0.82895,667,0.691,0.172,0.698,-0.671,-0.305,-0.732,14.233,-44.423,-130.512,-21.933,-11.627,-2.307,28.17,-0.42746,0.29257,0.26132,0.81442,673,0.514,-0.08,0.854,1.831,-1.953,0.061,-5.197,-31.366,167.574,-15.053,-7.193,-32.013,32.23,-0.11624,-0.26184,0.0737,-0.9552,665,0.954,0.008,0.215,-0.305,0.671,-0.549,2.373,-77.206,-160.302,-30.593,-10.76,-1.953,32.5,0.14655,-0.61191,-0.12274,-0.7674,669
168,0.933,0.022,0.394,0.0,0.427,0.0,3.45,-67.121,166.811,-25.853,-11.46,-12.787,29.55,0.07913,0.55185,-0.03857,0.82922,676,0.685,0.175,0.695,-0.61,-0.488,-0.427,14.227,-44.429,-130.545,-21.933,-11.627,-2.307,28.17,-0.42746,0.29257,0.26132,0.81442,678,0.509,-0.08,0.84,1.16,-0.671,0.183,-5.175,-31.393,167.558,-15.407,-7.187,-30.927,32.23,-0.11624,-0.26184,0.0737,-0.9552,670,0.953,0.003,0.219,-0.549,0.183,-0.549,2.406,-77.206,-160.345,-30.593,-10.76,-1.953,32.5,0.14655,-0.61191,-0.12274,-0.7674,680
169,0.929,0.022,0.395,-0.183,0.305,-0.183,3.455,-67.115,166.8,-25.853,-11.46,-12.787,29.55,0.07913,0.55185,-0.03857,0.82922,677,0.685,0.172,0.695,0.0,-0.854,0.0,14.233,-44.44,-130.567,-21.933,-11.627,-2.307,28.17,-0.42746,0.29257,0.26132,0.81442,679,0.51,-0.077,0.845,0.732,-0.488,0.061,-5.158,-31.41,167.525,-15.407,-7.187,-30.927,32.23,-0.11624,-0.26184,0.0737,-0.9552,671,0.946,0.001,0.221,-0.671,-0.244,-0.305,2.411,-77.212,-160.356,-30.593,-10.76,-1.953,32.5,0.14655,-0.61191,-0.12274,-0.7674,681
170,0.935,0.022,0.396,-0.183,0.427,-0.244,3.461,-67.11,166.794,-25.853,-11.46,-12.787,29.55,0.07913,0.55185,-0.03857,0.82922,684,0.704,0.176,0.698,-0.122,-1.099,0.244,14.227,-44.456,-130.573,-21.933,-11.627,-2.307,28.17,-0.42746,0.29257,0.26132,0.81442,682,0.505,-0.072,0.84,0.793,-1.953,0.061,-5.153,-31.432,167.509,-15.407,-7.187,-30.927,32.23,-0.1167,-0.26437,0.07242,-0.95453,674,0.952,0.002,0.223,-0.305,-0.061,-0.183,2.411,-77.212,-160.362,-30.593,-10.76,-1.953,32.5,0.14655,-0.61191,-0.12274,-0.7674,686
171,0.939,0.024,0.397,-0.183,0.366,-0.183,3.466,-67.099,166.789,-25.853,-11.46,-12.787,29.55,0.07913,0.55185,-0.03857,0.82922,685,0.707,0.179,0.697,-0.671,-0.61,-0.122,14.222,-44.467,-130.578,-21.933,-11.627,-2.307,28.17,-0.42746,0.29257,0.26132,0.81442,683,0.517,-0.073,0.838,0.305,-0.244,0.305,-5.147,-31.454,167.503,-15.407,-7.187,-30.927,32.23,-0.1167,-0.26437,0.07242,-0.95453,675,0.971,0.007,0.226,-0.244,-0.183,-0.183,2.411,-77.212,-160.373,-30.593,-10.76,-1.953,32.5,0.14655,-0.61191,-0.12274,-0.7674,687
172,0.939,0.024,0.401,-0.061,-0.183,-0.061,3.466,-67.104,166.789,-25.853,-11.46,-12.787,29.55,0.07913,0.55185,-0.03857,0.82922,692,0.702,0.175,0.694,0.0,-0.244,-0.183,14.222,-44.467,-130.583,-21.933,-11.627,-2.307,28.17,-0.42746,0.29257,0.26132,0.81442,694,0.526,-0.077,0.851,0.305,-0.977,0.0,-5.142,-31.465,167.514,-15.407,-7.187,-30.927,32.23,-0.1167,-0.26437,0.07242,-0.95453,688,0.968,0.011,0.228,0.244,-0.549,-0.305,2.433,-77.223,-160.406,-30.593,-10.76,-1.953,32.5,0.14655,-0.61191,-0.12274,-0.7674,690
173,0.938,0.024,0.402,0.0,-0.366,-0.061,3.466,-67.11,166.783,-25.853,-11.46,-12.787,29.55,0.07913,0.55185,-0.03857,0.82922,693,0.706,0.178,0.691,0.732,-0.122,0.244,14.227,-44.467,-130.578,-21.933,-11.627,-2.307,28.17,-0.42746,0.29257,0.26132,0.81442,695,0.526,-0.078,0.84,0.671,-1.526,-0.549,-5.131,-31.487,167.525,-15.407,-7.187,-30.927,32.23,-0.1167,-0.26437,0.07242,-0.95453,689,0.961,0.008,0.224,0.549,-0.549,-0.122,2.45,-77.228,-160.411,-30.593,-10.76,-1.953,32.5,0.14655,-0.61191,-0.12274,-0.7674,691
174,0.941,0.023,0.404,-0.061,-0.305,-0.183,3.477,-67.115,166.778,-25.853,-11.46,-12.787,29.55,0.07913,0.55185,-0.03857,0.82922,698,0.713,0.184,0.689,0.671,0.061,0.366,14.238,-44.467,-130.567,-21.933,-11.627,-2.307,28.17,-0.42746,0.29257,0.26132,0.81442,702,0.524,-0.07,0.834,1.16,1.709,0.0,-5.114,-31.487,167.514,-15.407,-7.187,-30.927,32.23,-0.1167,-0.26437,0.07242,-0.95453,696,0.965,0.005,0.219,0.366,-0.488,0.122,2.439,-77.234,-160.384,-30.593,-10.76,-1.953,32.5,0.14655,-0.61191,-0.12274,-0.7674,700
175,0.942,0.027,0.399,0.0,-0.244,-0.122,3.483,-67.115,166.772,-25.853,-11.46,-12.787,29.55,0.07913,0.55185,-0.03857,0.82922,699,0.709,0.18,0.69,0.366,0.427,0.305,14.238,-44.462,-130.556,-21.933,-11.627,-2.307,28.17,-0.42746,0.29257,0.26132,0.81442,703,0.532,-0.068,0.846,1.16,2.319,0.061,-5.087,-31.448,167.509,-15.407,-7.187,-30.927,32.23,-0.1167,-0.26437,0.07242,-0.95453,697,0.97,0.01,0.219,0.854,-0.122,0.183,2.433,-77.239,-160.351,-30.593,-10.76,-1.953,32.5,0.14655,-0.61191,-0.12274,-0.7674,701
176,0.942,0.029,0.395,0.0,-0.305,0.0,3.483,-67.121,166.772,-25.853,-11.46,-12.787,29.55,0.07913,0.55185,-0.03857,0.82922,710,0.7,0.174,0.687,0.061,0.427,0.061,14.238,-44.456,-130.545,-21.933,-11.627,-2.307,28.17,-0.42746,0.29257,0.26132,0.81442,706,0.531,-0.072,0.841,1.465,0.977,-0.061,-5.059,-31.415,167.492,-15.407,-7.187,-30.927,32.23,-0.1167,-0.26437,0.07242,-0.95453,704,0.964,0.012,0.217,0.244,0.0,0.122,2.422,-77.234,-160.345,-30.593,-10.76,-1.953,32.5,0.14655,-0.61191,-0.12274,-0.7674,708
177,0.941,0.028,0.39,0.0,-0.488,0.0,3.488,-67.126,166.772,-25.853,-11.46,-12.787,29.55,0.07913,0.55185,-0.03857,0.82922,711,0.701,0.178,0.691,0.244,0.122,0.122,14.238,-44.451,-130.551,-21.933,-11.627,-2.307,28.17,-0.42746,0.29257,0.26132,0.81442,707,0.52,-0.077,0.841,0.793,0.122,-0.244,-5.032,-31.41,167.465,-15.407,-7.187,-30.927,32.23,-0.1167,-0.26437,0.07242,-0.95453,705,0.957,0.012,0.212,0.488,0.183,0.061,2.428,-77.228,-160.351,-30.593,-10.76,-1.953,32.5,0.14655,-0.61191,-0.12274,-0.7674,709
178,0.943,0.027,0.389,-0.244,-0.061,0.0,3.488,-67.132,166.778,-25.853,-11.46,-12.787,29.55,0.07913,0.55185,-0.03857,0.82922,718,0.706,0.182,0.692,0.061,-0.183,0.183,14.244,-44.456,-130.562,-21.933,-11.627,-2.307,28.17,-0.42746,0.29257,0.26132,0.81442,716,0.518,-0.071,0.84,0.916,0.61,0.183,-5.015,-31.404,167.459,-15.407,-7.187,-30.927,32.23,-0.1167,-0.26437,0.07242,-0.95453,712,0.96,0.011,0.208,0.183,0.061,0.0,2.428,-77.228,-160.367,-30.593,-10.76,-1.953,32.5,0.14655,-0.61191,-0.12274,-0.7674,720
179,0.94,0.027,0.389,-0.305,0.244,0.061,3.483,-67.126,166.783,-25.853,-11.46,-12.787,29.55,0.07913,0.55185,-0.03857,0.82922,719,0.699,0.174,0.687,-0.244,-0.122,0.061,14.238,-44.462,-130.573,-21.933,-11.627,-2.307,28.17,-0.42746,0.29257,0.26132,0.81442,717,0.525,-0.069,0.844,0.854,1.648,0.061,-4.999,-31.388,167.454,-15.407,-7.187,-30.927,32.23,-0.1167,-0.26437,0.07242,-0.95453,713,0.962,0.012,0.208,0.0,0.0,0.061,2.428,-77.228,-160.389,-30.593,-10.76,-1.953,32.5,0.14655,-0.61191,-0.12274,-0.7674,721
180,0.936,0.023,0.389,-0.122,0.427,0.183,3.472,-67.121,166.794,-25.987,-11.647,-13.587,29.55,0.07913,0.55185,-0.03857,0.82922,724,0.696,0.172,0.693,-0.183,-0.366,-0.244,14.244,-44.467,-130.594,-21.58,-11.433,-2.513,28.17,-0.42746,0.29257,0.26132,0.81442,722,0.515,-0.076,0.839,0.305,2.441,-0.549,-4.982,-31.355,167.421,-15.407,-7.187,-30.927,32.23,-0.1167,-0.26437,0.07242,-0.95453,714,0.956,0.008,0.211,0.183,0.0,0.0,2.433,-77.234,-160.411,-30.54,-10.94,-2.573,32.5,0.14655,-0.61191,-0.12274,-0.7674,726
181,0.938,0.022,0.392,0.0,0.549,0.244,3.461,-67.11,166.811,-25.987,-11.647,-13.587,29.55,0.07913,0.55185,-0.03857,0.82922,725,0.713,0.176,0.69,0.671,-0.732,-0.122,14.26,-44.478,-130.611,-21.58,-11.433,-2.513,28.17,-0.42746,0.29257,0.26132,0.81442,723,0.515,-0.081,0.846,-0.793,1.892,-0.732,-4.977,-31.317,167.377,-15.407,-7.187,-30.927,32.23,-0.1167,-0.26437,0.07242,-0.95453,715,0.956,0.011,0.215,-0.122,0.122,-0.183,2.444,-77.234,-160.439,-30.54,-10.94,-2.573,32.5,0.14655,-0.61191,-0.12274,-0.7674,727
182,0.943,0.024,0.397,-0.061,0.549,0.122,3.455,-67.099,166.822,-25.987,-11.647,-13.587,29.55,0.07913,0.55185,-0.03857,0.82922,732,0.712,0.177,0.693,0.0,-0.488,-0.061,14.266,-44.489,-130.616,-21.58,-11.433,-2.513,28.17,-0.42746,0.29257,0.26132,0.81442,730,0.527,-0.072,0.838,0.0,0.793,-0.549,-4.977,-31.295,167.338,-15.407,-7.187,-30.927,32.23,-0.1167,-0.26437,0.07242,-0.95453,728,0.974,0.006,0.218,-0.427,0.305,-0.061,2.444,-77.228,-160.455,-30.54,-10.94,-2.573,32.5,0.14655,-0.61191,-0.12274,-0.7674,734
183,0.939,0.025,0.4,0.0,0.244,0.061,3.455,-67.099,166.827,-25.987,-11.647,-13.587,29.55,0.07913,0.55185,-0.03857,0.82922,733,0.698,0.174,0.696,-0.366,0.0,-0.244,14.266,-44.495,-130.627,-21.58,-11.433,-2.513,28.17,-0.42746,0.29257,0.26132,0.81442,731,0.531,-0.071,0.845,0.366,0.671,-0.549,-4.966,-31.284,167.294,-15.407,-7.187,-30.927,32.23,-0.1167,-0.26437,0.07242,-0.95453,729,0.972,0.003,0.222,0.061,0.244,-0.122,2.45,-77.223,-160.466,-30.54,-10.94,-2.573,32.5,0.14655,-0.61191,-0.12274,-0.7674,735
184,0.936,0.023,0.403,0.061,0.183,0.0,3.455,-67.094,166.827,-25.987,-11.647,-13.587,29.55,0.07895,0.55161,-0.03833,0.82941,740,0.694,0.177,0.697,0.061,-0.061,0.0,14.266,-44.495,-130.633,-21.58,-11.433,-2.513,28.17,-0.42627,0.2933,0.26132,0.81479,744,0.518,-0.078,0.845,-0.183,0.732,-0.732,-4.96,-31.278,167.25,-15.54,-7.26,-31.013,32.23,-0.1167,-0.26437,0.07242,-0.95453,736,0.96,0.005,0.223,0.671,0.549,-0.244,2.477,-77.212,-160.494,-30.54,-10.94,-2.573,32.5,0.14563,-0.61194,-0.12231,-0.76761,738
185,0.935,0.022,0.398,0.0,0.488,0.0,3.455,-67.083,166.833,-25.987,-11.647,-13.587,29.55,0.07895,0.55161,-0.03833,0.82941,741,0.702,0.177,0.702,0.488,-0.427,0.305,14.271,-44.5,-130.638,-21.58,-11.433,-2.513,28.17,-0.42627,0.2933,0.26132,0.81479,745,0.514,-0.072,0.851,-0.183,0.671,-0.183,-4.955,-31.267,167.217,-15.54,-7.26,-31.013,32.23,-0.1167,-0.26437,0.07242,-0.95453,737,0.957,0.004,0.219,0.61,0.854,-0.122,2.494,-77.195,-160.51,-30.54,-10.94,-2.573,32.5,0.14563,-0.61194,-0.12231,-0.76761,739
186,0.938,0.022,0.397,-0.061,0.366,-0.061,3.461,-67.077,166.833,-25.987,-11.647,-13.587,29.55,0.07895,0.55161,-0.03833,0.82941,746,0.696,0.178,0.696,-0.366,-0.183,0.0,14.266,-44.506,-130.644,-21.58,-11.433,-2.513,28.17,-0.42627,0.2933,0.26132,0.81479,750,0.519,-0.074,0.85,0.061,-0.305,0.366,-4.96,-31.267,167.206,-15.54,-7.26,-31.013,32.23,-0.11874,-0.26291,0.07141,-0.95477,742,0.957,0.008,0.224,0.671,0.793,0.0,2.494,-77.179,-160.516,-30.54,-10.94,-2.573,32.5,0.14563,-0.61194,-0.12231,-0.76761,748
187,0.935,0.025,0.395,0.122,0.183,0.0,3.461,-67.072,166.833,-25.987,-11.647,-13.587,29.55,0.07895,0.55161,-0.03833,0.82941,747,0.694,0.173,0.696,-0.183,-0.305,-0.061,14.266,-44.511,-130.655,-21.58,-11.433,-2.513,28.17,-0.42627,0.2933,0.26132,0.81479,751,0.513,-0.074,0.852,-0.427,-1.953,-0.061,-4.966,-31.295,167.201,-15.54,-7.26,-31.013,32.23,-0.11874,-0.26291,0.07141,-0.95477,743,0.952,0.007,0.219,1.099,0.671,-0.244,2.521,-77.168,-160.532,-30.54,-10.94,-2.573,32.5,0.14563,-0.61194,-0.12231,-0.76761,749
188,0.937,0.024,0.394,-0.244,0.427,0.0,3.461,-67.066,166.838,-25.987,-11.647,-13.587,29.55,0.07895,0.55161,-0.03833,0.82941,758,0.695,0.172,0.691,0.366,-0.671,0.061,14.271,-44.522,-130.655,-21.58,-11.433,-2.513,28.17,-0.42627,0.2933,0.26132,0.81479,756,0.51,-0.077,0.844,-0.305,-2.441,0.061,-4.977,-31.339,167.179,-15.54,-7.26,-31.013,32.23,-0.11874,-0.26291,0.07141,-0.95477,754,0.952,0.005,0.215,0.854,0.732,-0.122,2.554,-77.151,-160.527,-30.54,-10.94,-2.573,32.5,0.14563,-0.61194,-0.12231,-0.76761,752
189,0.94,0.026,0.396,-0.183,0.427,0.0,3.461,-67.061,166.838,-25.987,-11.647,-13.587,29.55,0.07895,0.55161,-0.03833,0.82941,759,0.707,0.176,0.689,0.854,-0.671,0.122,14.288,-44.533,-130.66,-21.58,-11.433,-2.513,28.17,-0.42627,0.2933,0.26132,0.81479,757,0.515,-0.075,0.842,-0.427,-2.014,0.183,-4.988,-31.382,167.162,-15.54,-7.26,-31.013,32.23,-0.11874,-0.26291,0.07141,-0.95477,755,0.969,0.008,0.219,0.061,0.488,-0.122,2.565,-77.141,-160.505,-30.54,-10.94,-2.573,32.5,0.14563,-0.61194,-0.12231,-0.76761,753
190,0.944,0.027,0.401,0.0,0.122,0.0,3.455,-67.05,166.844,-25.987,-11.647,-13.587,29.55,0.07895,0.55161,-0.03833,0.82941,766,0.715,0.181,0.696,0.671,-0.061,0.0,14.304,-44.528,-130.671,-21.58,-11.433,-2.513,28.17,-0.42627,0.2933,0.26132,0.81479,764,0.526,-0.071,0.833,0.183,-1.221,0.793,-4.999,-31.415,167.146,-15.54,-7.26,-31.013,32.23,-0.11874,-0.26291,0.07141,-0.95477,760,0.977,0.014,0.224,0.61,0.427,-0.183,2.571,-77.13,-160.472,-30.54,-10.94,-2.573,32.5,0.14563,-0.61194,-0.12231,-0.76761,762
191,0.938,0.029,0.403,0.122,0.0,0.0,3.461,-67.05,166.844,-25.987,-11.647,-13.587,29.55,0.07895,0.55161,-0.03833,0.82941,767,0.704,0.18,0.697,0.61,0.244,-0.122,14.315,-44.522,-130.682,-21.58,-11.433,-2.513,28.17,-0.42627,0.2933,0.26132,0.81479,765,0.529,-0.072,0.838,0.305,-0.244,0.732,-5.004,-31.426,167.13,-15.54,-7.26,-31.013,32.23,-0.11874,-0.26291,0.07141,-0.95477,761,0.964,0.011,0.226,0.793,0.122,-0.244,2.598,-77.124,-160.444,-30.54,-10.94,-2.573,32.5,0.14563,-0.61194,-0.12231,-0.76761,763
192,0.938,0.028,0.4,-0.122,0.122,0.0,3.461,-67.05,166.849,-25.987,-11.647,-13.587,29.55,0.07895,0.55161,-0.03833,0.82941,772,0.7,0.185,0.694,1.404,0.183,0.122,14.343,-44.522,-130.688,-21.58,-11.433,-2.513,28.17,-0.42627,0.2933,0.26132,0.81479,774,0.522,-0.075,0.852,0.793,-0.244,0.427,-5.004,-31.432,167.102,-15.54,-7.26,-31.013,32.23,-0.11874,-0.26291,0.07141,-0.95477,768,0.958,0.009,0.221,0.122,0.061,-0.061,2.626,-77.119,-160.422,-30.54,-10.94,-2.573,32.5,0.14563,-0.61194,-0.12231,-0.76761,770
193,0.94,0.027,0.397,-0.244,0.183,0.0,3.466,-67.044,166.849,-25.987,-11.647,-13.587,29.55,0.07895,0.55161,-0.03833,0.82941,773,0.706,0.186,0.69,1.465,-0.061,0.305,14.37,-44.522,-130.693,-21.58,-11.433,-2.513,28.17,-0.42627,0.2933,0.26132,0.81479,775,0.52,-0.064,0.853,1.831,-0.549,0.854,-4.982,-31.443,167.075,-15.54,-7.26,-31.013,32.23,-0.11874,-0.26291,0.07141,-0.95477,769,0.962,0.013,0.218,-0.061,0.488,0.0,2.626,-77.113,-160.422,-30.54,-10.94,-2.573,32.5,0.14563,-0.61194,-0.12231,-0.76761,771
194,0.937,0.026,0.393,-0.183,0.244,0.0,3.461,-67.039,166.849,-25.987,-11.647,-13.587,29.55,0.07895,0.55161,-0.03833,0.82941,778,0.7,0.18,0.69,0.732,0.061,0.122,14.381,-44.522,-130.704,-21.58,-11.433,-2.513,28.17,-0.42627,0.2933,0.26132,0.81479,784,0.528,-0.065,0.842,1.221,-0.122,0.671,-4.96,-31.448,167.042,-15.54,-7.26,-31.013,32.23,-0.11874,-0.26291,0.07141,-0.95477,776,0.959,0.014,0.219,0.0,0.671,0.0,2.62,-77.102,-160.395,-30.54,-10.94,-2.573,32.5,0.14563,-0.61194,-0.12231,-0.76761,780
195,0.938,0.025,0.393,-0.183,0.244,0.0,3.461,-67.033,166.855,-25.987,-11.647,-13.587,29.55,0.07895,0.55161,-0.03833,0.82941,779,0.7,0.177,0.694,0.549,-0.061,0.0,14.398,-44.522,-130.715,-21.58,-11.433,-2.513,28.17,-0.42627,0.2933,0.26132,0.81479,785,0.52,-0.071,0.841,0.549,-0.183,-0.122,-4.944,-31.454,167.009,-15.54,-7.26,-31.013,32.23,-0.11874,-0.26291,0.07141,-0.95477,777,0.958,0.011,0.219,-0.793,0.305,-0.122,2.62,-77.091,-160.395,-30.54,-10.94,-2.573,32.5,0.14563,-0.61194,-0.12231,-0.76761,781
196,0.94,0.024,0.393,-0.244,0.061,0.0,3.461,-67.033,166.855,-25.987,-11.647,-13.587,29.55,0.07895,0.55161,-0.03833,0.82941,790,0.704,0.178,0.692,0.793,-0.488,0.0,14.414,-44.528,-130.732,-21.607,-11.553,-2.44,28.17,-0.42627,0.2933,0.26132,0.81479,788,0.517,-0.074,0.841,0.183,0.488,-0.183,-4.938,-31.454,166.987,-15.54,-7.26,-31.013,32.23,-0.11874,-0.26291,0.07141,-0.95477,782,0.961,0.009,0.221,-1.77,0.244,0.0,2.609,-77.086,-160.406,-30.54,-10.94,-2.573,32.5,0.14563,-0.61194,-0.12231,-0.76761,792
197,0.938,0.024,0.397,-0.305,0.0,0.0,3.461,-67.033,166.86,-25.987,-11.647,-13.587,29.55,0.07895,0.55161,-0.03833,0.82941,791,0.702,0.176,0.692,0.122,-0.488,-0.061,14.42,-44.539,-130.754,-21.607,-11.553,-2.44,28.17,-0.42627,0.2933,0.26132,0.81479,789,0.52,-0.073,0.848,0.305,0.671,-0.122,-4.927,-31.443,166.97,-15.54,-7.26,-31.013,32.23,-0.11874,-0.26291,0.07141,-0.95477,783,0.959,0.008,0.221,-1.587,0.122,0.0,2.576,-77.08,-160.4,-30.54,-10.94,-2.573,32.5,0.14563,-0.61194,-0.12231,-0.76761,793
198,0.939,0.023,0.399,-0.122,0.0,0.0,3.461,-67.033,166.86,-26.293,-11.833,-13.073,29.55,0.07895,0.55161,-0.03833,0.82941,794,0.699,0.175,0.693,-0.122,-0.366,-0.183,14.425,-44.544,-130.776,-21.607,-11.553,-2.44,28.17,-0.42627,0.2933,0.26132,0.81479,800,0.521,-0.077,0.847,0.122,-0.671,-0.366,-4.922,-31.448,166.943,-16.02,-7.313,-31.46,32.23,-0.11874,-0.26291,0.07141,-0.95477,786,0.958,0.007,0.221,-0.549,0.061,-0.305,2.554,-77.08,-160.422,-30.32,-11.053,-2.813,32.5,0.14563,-0.61194,-0.12231,-0.76761,796
199,0.937,0.021,0.4,-0.122,0.061,0.0,3.461,-67.033,166.86,-26.293,-11.833,-13.073,29.55,0.07895,0.55161,-0.03833,0.82941,795,0.704,0.175,0.694,0.244,-0.366,0.061,14.431,-44.55,-130.787,-21.607,-11.553,-2.44,28.17,-0.42627,0.2933,0.26132,0.81479,801,0.517,-0.076,0.841,-0.61,-0.366,-0.671,-4.916,-31.459,166.893,-16.02,-7.313,-31.46,32.23,-0.11874,-0.26291,0.07141,-0.95477,787,0.961,0.002,0.222,0.244,0.061,-0.305,2.571,-77.08,-160.461,-30.32,-11.053,-2.813,32.5,0.14563,-0.61194,-0.12231,-0.76761,797
200,0.938,0.021,0.4,0.0,0.0,0.0,3.455,-67.033,166.866,-26.293,-11.833,-13.073,29.55,0.07895,0.55161,-0.03833,0.82941,804,0.711,0.175,0.692,0.305,-0.427,0.122,14.436,-44.555,-130.792,-21.607,-11.553,-2.44,28.17,-0.42551,0.29352,0.26227,0.81479,802,0.521,-0.073,0.843,0.122,-0.183,-0.061,-4.922,-31.465,166.844,-16.02,-7.313,-31.46,32.23,-0.11874,-0.26291,0.07141,-0.95477,798,0.968,0.005,0.227,0.427,0.244,-0.183,2.598,-77.075,-160.494,-30.32,-11.053,-2.813,32.5,0.14563,-0.61194,-0.12231,-0.76761,808
201,0.941,0.021,0.399,0.0,-0.183,0.0,3.455,-67.033,166.866,-26.293,-11.833,-13.073,29.55,0.07895,0.55161,-0.03833,0.82941,805,0.711,0.176,0.689,0.61,0.0,0.244,14.442,-44.555,-130.798,-21.607,-11.553,-2.44,28.17,-0.42551,0.29352,0.26227,0.81479,803,0.53,-0.074,0.841,0.0,0.0,0.244,-4.922,-31.47,166.816,-16.02,-7.313,-31.46,32.23,-0.11874,-0.26291,0.07141,-0.95477,799,0.966,0.004,0.222,1.282,0.366,0.0,2.615,-77.069,-160.51,-30.32,-11.053,-2.813,32.5,0.14563,-0.61194,-0.12231,-0.76761,809
202,0.938,0.024,0.398,0.0,-0.183,0.0,3.455,-67.033,166.866,-26.293,-11.833,-13.073,29.55,0.0787,0.55115,-0.03809,0.82974,810,0.704,0.177,0.689,0.183,0.366,0.183,14.436,-44.55,-130.803,-21.607,-11.553,-2.44,28.17,-0.42551,0.29352,0.26227,0.81479,814,0.529,-0.075,0.841,0.122,-1.282,0.61,-4.927,-31.481,166.805,-16.02,-7.313,-31.46,32.23,-0.12183,-0.2644,0.07211,-0.95392,806,0.961,0.006,0.222,1.587,0.61,-0.061,2.631,-77.058,-160.488,-30.32,-11.053,-2.813,32.5,0.14645,-0.61075,-0.12311,-0.76828,812
203,0.939,0.026,0.398,0.0,-0.061,0.0,3.455,-67.039,166.866,-26.293,-11.833,-13.073,29.55,0.0787,0.55115,-0.03809,0.82974,811,0.703,0.18,0.689,0.183,0.549,0.244,14.431,-44.544,-130.798,-21.607,-11.553,-2.44,28.17,-0.42551,0.29352,0.26227,0.81479,815,0.526,-0.074,0.84,0.427,-1.587,0.61,-4.933,-31.509,166.772,-16.02,-7.313,-31.46,32.23,-0.12183,-0.2644,0.07211,-0.95392,807,0.959,0.009,0.221,0.977,0.488,-0.061,2.653,-77.047,-160.477,-30.32,-11.053,-2.813,32.5,0.14645,-0.61075,-0.12311,-0.76828,813
204,0.938,0.028,0.396,0.0,0.0,0.0,3.455,-67.039,166.871,-26.293,-11.833,-13.073,29.55,0.0787,0.55115,-0.03809,0.82974,818,0.704,0.178,0.69,0.732,0.427,0.305,14.442,-44.539,-130.787,-21.607,-11.553,-2.44,28.17,-0.42551,0.29352,0.26227,0.81479,822,0.523,-0.068,0.838,1.038,-1.709,0.977,-4.927,-31.547,166.745,-16.02,-7.313,-31.46,32.23,-0.12183,-0.2644,0.07211,-0.95392,816,0.961,0.013,0.218,0.61,0.671,0.061,2.664,-77.036,-160.466,-30.32,-11.053,-2.813,32.5,0.14645,-0.61075,-0.12311,-0.76828,820
205,0.938,0.028,0.395,0.0,0.0,0.0,3.461,-67.039,166.871,-26.293,-11.833,-13.073,29.55,0.0787,0.55115,-0.03809,0.82974,819,0.705,0.174,0.689,0.916,0.427,0.061,14.453,-44.533,-130.792,-21.607,-11.553,-2.44,28.17,-0.42551,0.29352,0.26227,0.81479,823,0.526,-0.074,0.839,0.366,-0.977,1.099,-4.927,-31.575,166.729,-16.02,-7.313,-31.46,32.23,-0.12183,-0.2644,0.07211,-0.95392,817,0.96,0.011,0.219,0.793,0.793,-0.122,2.67,-77.02,-160.455,-30.32,-11.053,-2.813,32.5,0.14645,-0.61075,-0.12311,-0.76828,821
206,0.938,0.027,0.395,-0.366,0.183,0.0,3.461,-67.033,166.871,-26.293,-11.833,-13.073,29.55,0.0787,0.55115,-0.03809,0.82974,828,0.701,0.174,0.688,1.16,0.61,0.061,14.474,-44.522,-130.798,-21.607,-11.553,-2.44,28.17,-0.42551,0.29352,0.26227,0.81479,826,0.523,-0.076,0.841,0.916,-2.075,1.648,-4.933,-31.602,166.712,-16.02,-7.313,-31.46,32.23,-0.12183,-0.2644,0.07211,-0.95392,824,0.956,0.007,0.219,0.366,0.732,-0.366,2.692,-77.009,-160.461,-30.32,-11.053,-2.813,32.5,0.14645,-0.61075,-0.12311,-0.76828,832
207,0.941,0.026,0.396,-0.366,0.488,0.0,3.455,-67.028,166.877,-26.293,-11.833,-13.073,29.55,0.0787,0.55115,-0.03809,0.82974,829,0.696,0.18,0.684,2.38,0.549,0.244,14.513,-44.511,-130.787,-21.607,-11.553,-2.44,28.17,-0.42551,0.29352,0.26227,0.81479,827,0.526,-0.075,0.836,1.587,-1.892,1.465,-4.933,-31.646,166.712,-16.02,-7.313,-31.46,32.23,-0.12183,-0.2644,0.07211,-0.95392,825,0.951,0.011,0.213,0.305,0.916,-0.488,2.73,-76.992,-160.499,-30.32,-11.053,-2.813,32.5,0.14645,-0.61075,-0.12311,-0.76828,833
208,0.94,0.026,0.396,0.0,0.671,0.427,3.444,-67.022,166.882,-26.293,-11.833,-13.073,29.55,0.0787,0.55115,-0.03809,0.82974,836,0.706,0.182,0.684,3.113,0.61,0.122,14.568,-44.506,-130.781,-21.607,-11.553,-2.44,28.17,-0.42551,0.29352,0.26227,0.81479,838,0.521,-0.071,0.833,2.319,-0.732,1.404,-4.916,-31.668,166.707,-16.02,-7.313,-31.46,32.23,-0.12183,-0.2644,0.07211,-0.95392,830,0.962,0.015,0.219,0.183,1.221,-0.61,2.774,-76.97,-160.565,-30.32,-11.053,-2.813,32.5,0.14645,-0.61075,-0.12311,-0.76828,834
209,0.945,0.024,0.396,0.122,0.549,0.488,3.428,-67.006,166.91,-26.293,-11.833,-13.073,29.55,0.0787,0.55115,-0.03809,0.82974,837,0.717,0.181,0.693,2.625,0.977,-0.061,14.617,-44.489,-130.77,-21.607,-11.553,-2.44,28.17,-0.42551,0.29352,0.26227,0.81479,839,0.526,-0.072,0.828,2.747,-0.61,0.977,-4.878,-31.685,166.718,-16.02,-7.313,-31.46,32.23,-0.12183,-0.2644,0.07211,-0.95392,831,0.979,0.013,0.224,1.099,1.587,-0.793,2.84,-76.943,-160.637,-30.32,-11.053,-2.813,32.5,0.14645,-0.61075,-0.12311,-0.76828,835
210,0.942,0.024,0.399,-0.122,0.366,0.244,3.411,-67.0,166.937,-26.293,-11.833,-13.073,29.55,0.0787,0.55115,-0.03809,0.82974,846,0.708,0.192,0.696,1.709,0.916,-0.122,14.645,-44.473,-130.765,-21.607,-11.553,-2.44,28.17,-0.42551,0.29352,0.26227,0.81479,844,0.539,-0.074,0.839,1.465,-1.221,0.427,-4.85,-31.707,166.723,-16.02,-7.313,-31.46,32.23,-0.12183,-0.2644,0.07211,-0.95392,840,0.971,0.014,0.226,0.488,0.671,-0.671,2.911,-76.921,-160.697,-30.32,-11.053,-2.813,32.5,0.14645,-0.61075,-0.12311,-0.76828,842
211,0.938,0.023,0.4,0.0,0.244,0.244,3.4,-66.995,166.948,-26.293,-11.833,-13.073,29.55,0.0787,0.55115,-0.03809,0.82974,847,0.697,0.194,0.695,1.526,0.854,0.0,14.678,-44.456,-130.754,-21.607,-11.553,-2.44,28.17,-0.42551,0.29352,0.26227,0.81479,845,0.536,-0.061,0.851,1.221,-0.671,0.061,-4.828,-31.723,166.729,-16.02,-7.313,-31.46,32.23,-0.12183,-0.2644,0.07211,-0.95392,841,0.96,0.014,0.223,0.0,0.488,-0.183,2.95,-76.91,-160.73,-30.32,-11.053,-2.813,32.5,0.14645,-0.61075,-0.12311,-0.76828,843
212,0.937,0.023,0.401,0.244,0.549,0.244,3.389,-66.989,166.965,-26.293,-11.833,-13.073,29.55,0.0787,0.55115,-0.03809,0.82974,850,0.703,0.189,0.698,1.282,0.671,0.061,14.7,-44.445,-130.743,-21.607,-11.553,-2.44,28.17,-0.42551,0.29352,0.26227,0.81479,856,0.52,-0.061,0.847,1.648,0.244,0.366,-4.801,-31.734,166.723,-16.02,-7.313,-31.46,32.23,-0.12183,-0.2644,0.07211,-0.95392,848,0.96,0.012,0.222,0.0,0.793,0.0,2.955,-76.899,-160.719,-30.32,-11.053,-2.813,32.5,0.14645,-0.61075,-0.12311,-0.76828,852
213,0.936,0.023,0.4,0.183,0.488,0.122,3.384,-66.978,166.981,-26.293,-11.833,-13.073,29.55,0.0787,0.55115,-0.03809,0.82974,851,0.705,0.18,0.696,0.549,0.549,0.122,14.705,-44.434,-130.737,-21.607,-11.553,-2.44,28.17,-0.42551,0.29352,0.26227,0.81479,857,0.528,-0.063,0.846,1.587,1.16,0.0,-4.768,-31.723,166.707,-16.02,-7.313,-31.46,32.23,-0.12183,-0.2644,0.07211,-0.95392,849,0.964,0.008,0.229,-0.427,0.671,0.061,2.944,-76.888,-160.686,-30.32,-11.053,-2.813,32.5,0.14645,-0.61075,-0.12311,-0.76828,853
214,0.937,0.022,0.399,0.0,0.244,0.061,3.384,-66.973,166.987,-26.293,-11.833,-13.073,29.55,0.0787,0.55115,-0.03809,0.82974,858,0.698,0.183,0.696,0.122,0.671,0.183,14.705,-44.423,-130.732,-21.953,-11.433,-2.407,28.17,-0.42551,0.29352,0.26227,0.81479,862,0.526,-0.072,0.843,0.549,1.221,-0.244,-4.746,-31.701,166.668,-15.58,-7.693,-31.393,32.23,-0.12183,-0.2644,0.07211,-0.95392,854,0.96,0.008,0.228,-0.61,0.549,0.0,2.928,-76.877,-160.67,-30.32,-11.053,-2.813,32.5,0.14645,-0.61075,-0.12311,-0.76828,860
215,0.934,0.023,0.398,-0.061,0.244,-0.061,3.384,-66.967,166.992,-26.293,-11.833,-13.073,29.55,0.0787,0.55115,-0.03809,0.82974,859,0.687,0.18,0.7,0.244,0.427,0.183,14.705,-44.418,-130.726,-21.953,-11.433,-2.407,28.17,-0.42551,0.29352,0.26227,0.81479,863,0.522,-0.068,0.848,0.122,0.977,-0.488,-4.735,-31.685,166.624,-15.58,-7.693,-31.393,32.23,-0.12183,-0.2644,0.07211,-0.95392,855,0.952,0.01,0.226,-0.732,0.549,0.122,2.906,-76.866,-160.653,-30.32,-11.053,-2.813,32.5,0.14645,-0.61075,-0.12311,-0.76828,861
216,0.93,0.023,0.398,0.0,0.488,-0.122,3.384,-66.962,166.987,-26.0,-11.253,-12.433,29.55,0.0787,0.55115,-0.03809,0.82974,868,0.689,0.184,0.696,-0.793,-0.549,-0.061,14.7,-44.418,-130.726,-21.953,-11.433,-2.407,28.17,-0.42551,0.29352,0.26227,0.81479,870,0.511,-0.074,0.845,0.183,1.221,-0.244,-4.724,-31.668,166.58,-15.58,-7.693,-31.393,32.23,-0.12344,-0.26608,0.07123,-0.95331,864,0.949,0.009,0.226,-0.671,0.488,0.0,2.884,-76.855,-160.637,-30.333,-10.727,-2.767,32.5,0.14645,-0.61075,-0.12311,-0.76828,876
217,0.936,0.024,0.397,-0.183,0.61,-0.122,3.389,-66.951,166.987,-26.0,-11.253,-12.433,29.55,0.0787,0.55115,-0.03809,0.82974,869,0.702,0.19,0.698,-1.709,-0.916,-0.122,14.689,-44.429,-130.732,-21.953,-11.433,-2.407,28.17,-0.42551,0.29352,0.26227,0.81479,871,0.505,-0.075,0.845,-0.122,1.343,-0.488,-4.719,-31.641,166.531,-15.58,-7.693,-31.393,32.23,-0.12344,-0.26608,0.07123,-0.95331,865,0.953,0.009,0.224,-2.38,0.244,0.0,2.845,-76.844,-160.615,-30.333,-10.727,-2.767,32.5,0.14645,-0.61075,-0.12311,-0.76828,877
218,0.942,0.024,0.402,-0.427,0.427,-0.244,3.389,-66.934,166.981,-26.0,-11.253,-12.433,29.55,0.07825,0.55048,-0.0379,0.83023,874,0.714,0.184,0.703,-2.258,-0.854,-0.183,14.656,-44.44,-130.737,-21.953,-11.433,-2.407,28.17,-0.42654,0.2916,0.26376,0.81445,872,0.51,-0.069,0.849,-1.587,1.465,-1.282,-4.724,-31.619,166.487,-15.58,-7.693,-31.393,32.23,-0.12344,-0.26608,0.07123,-0.95331,866,0.965,0.013,0.229,-3.662,0.244,0.183,2.774,-76.838,-160.587,-30.333,-10.727,-2.767,32.5,0.14679,-0.60916,-0.12332,-0.76947,880
219,0.942,0.023,0.401,-0.488,0.0,-0.427,3.395,-66.929,166.97,-26.0,-11.253,-12.433,29.55,0.07825,0.55048,-0.0379,0.83023,875,0.708,0.175,0.702,-2.93,-0.244,0.0,14.617,-44.445,-130.737,-21.953,-11.433,-2.407,28.17,-0.42654,0.2916,0.26376,0.81445,873,0.524,-0.063,0.847,-4.456,2.686,-2.808,-4.757,-31.58,166.415,-15.58,-7.693,-31.393,32.23,-0.12344,-0.26608,0.07123,-0.95331,867,0.976,0.007,0.235,-2.38,0.183,0.244,2.697,-76.833,-160.56,-30.333,-10.727,-2.767,32.5,0.14679,-0.60916,-0.12332,-0.76947,881
220,0.937,0.023,0.4,-0.305,-0.488,-0.427,3.406,-66.934,166.948,-26.0,-11.253,-12.433,29.55,0.07825,0.55048,-0.0379,0.83023,886,0.691,0.171,0.694,-2.014,0.061,0.0,14.562,-44.445,-130.726,-21.953,-11.433,-2.407,28.17,-0.42654,0.2916,0.26376,0.81445,882,0.531,-0.068,0.848,-5.676,2.747,-2.747,-4.818,-31.525,166.344,-15.58,-7.693,-31.393,32.23,-0.12344,-0.26608,0.07123,-0.95331,878,0.967,0.002,0.233,-1.77,-0.061,0.244,2.631,-76.833,-160.527,-30.333,-10.727,-2.767,32.5,0.14679,-0.60916,-0.12332,-0.76947,884
221,0.932,0.022,0.398,-0.122,-0.671,-0.488,3.428,-66.945,166.926,-26.0,-11.253,-12.433,29.55,0.07825,0.55048,-0.0379,0.83023,887,0.688,0.165,0.691,-0.793,0.0,-0.244,14.529,-44.445,-130.726,-21.953,-11.433,-2.407,28.17,-0.42654,0.2916,0.26376,0.81445,883,0.53,-0.075,0.856,-4.7,1.892,-2.014,-4.889,-31.487,166.262,-15.58,-7.693,-31.393,32.23,-0.12344,-0.26608,0.07123,-0.95331,879,0.949,0.006,0.227,-1.038,-0.183,0.244,2.576,-76.833,-160.483,-30.333,-10.727,-2.767,32.5,0.14679,-0.60916,-0.12332,-0.76947,885
222,0.934,0.024,0.397,0.0,-0.244,-0.366,3.444,-66.951,166.904,-26.0,-11.253,-12.433,29.55,0.07825,0.55048,-0.0379,0.83023,890,0.699,0.178,0.697,-0.183,-0.366,-0.305,14.524,-44.44,-130.732,-21.953,-11.433,-2.407,28.17,-0.42654,0.2916,0.26376,0.81445,892,0.512,-0.083,0.841,-2.563,0.549,-0.671,-4.944,-31.465,166.212,-15.58,-7.693,-31.393,32.23,-0.12344,-0.26608,0.07123,-0.95331,888,0.946,0.009,0.223,-1.038,-0.244,-0.061,2.543,-76.833,-160.455,-30.333,-10.727,-2.767,32.5,0.14679,-0.60916,-0.12332,-0.76947,894
223,0.939,0.026,0.396,-0.061,0.0,-0.366,3.461,-66.951,166.882,-26.0,-11.253,-12.433,29.55,0.07825,0.55048,-0.0379,0.83023,891,0.707,0.185,0.695,-0.244,-0.671,0.0,14.524,-44.445,-130.737,-21.953,-11.433,-2.407,28.17,-0.42654,0.2916,0.26376,0.81445,893,0.504,-0.089,0.834,-0.488,0.061,0.0,-4.966,-31.459,166.19,-15.58,-7.693,-31.393,32.23,-0.12344,-0.26608,0.07123,-0.95331,889,0.958,0.005,0.223,-0.916,-0.183,-0.366,2.538,-76.838,-160.455,-30.333,-10.727,-2.767,32.5,0.14679,-0.60916,-0.12332,-0.76947,895
224,0.94,0.028,0.397,-0.122,-0.122,-0.366,3.477,-66.951,166.866,-26.0,-11.253,-12.433,29.55,0.07825,0.55048,-0.0379,0.83023,896,0.704,0.186,0.692,-0.305,-0.732,0.244,14.518,-44.456,-130.732,-21.953,-11.433,-2.407,28.17,-0.42654,0.2916,0.26376,0.81445,898,0.516,-0.074,0.846,0.0,0.549,-0.427,-4.971,-31.454,166.163,-15.58,-7.693,-31.393,32.23,-0.12344,-0.26608,0.07123,-0.95331,902,0.966,0.007,0.225,-0.854,-0.366,-0.427,2.549,-76.844,-160.472,-30.333,-10.727,-2.767,32.5,0.14679,-0.60916,-0.12332,-0.76947,900
225,0.938,0.028,0.398,-0.244,-0.122,-0.244,3.494,-66.956,166.855,-26.0,-11.253,-12.433,29.55,0.07825,0.55048,-0.0379,0.83023,897,0.702,0.188,0.689,0.183,-0.61,0.305,14.513,-44.467,-130.726,-21.953,-11.433,-2.407,28.17,-0.42654,0.2916,0.26376,0.81445,899,0.522,-0.067,0.851,-0.671,0.427,-0.671,-4.971,-31.448,166.124,-15.58,-7.693,-31.393,32.23,-0.12344,-0.26608,0.07123,-0.95331,903,0.963,0.009,0.226,-0.793,-0.61,-0.244,2.554,-76.849,-160.477,-30.333,-10.727,-2.767,32.5,0.14679,-0.60916,-0.12332,-0.76947,901
226,0.94,0.028,0.4,-0.122,-0.061,-0.122,3.499,-66.956,166.844,-26.0,-11.253,-12.433,29.55,0.07825,0.55048,-0.0379,0.83023,908,0.707,0.183,0.688,0.671,-0.671,0.183,14.518,-44.478,-130.732,-21.953,-11.433,-2.407,28.17,-0.42654,0.2916,0.26376,0.81445,906,0.526,-0.067,0.848,-1.16,0.0,-0.732,-4.982,-31.443,166.086,-15.58,-7.693,-31.393,32.23,-0.12344,-0.26608,0.07123,-0.95331,904,0.959,0.016,0.223,-0.183,-0.61,-0.122,2.56,-76.86,-160.483,-30.333,-10.727,-2.767,32.5,0.14679,-0.60916,-0.12332,-0.76947,910
227,0.941,0.029,0.4,0.061,0.0,0.0,3.505,-66.956,166.844,-26.0,-11.253,-12.433,29.55,0.07825,0.55048,-0.0379,0.83023,909,0.711,0.182,0.687,1.038,-0.427,0.0,14.535,-44.489,-130.732,-21.953,-11.433,-2.407,28.17,-0.42654,0.2916,0.26376,0.81445,907,0.524,-0.067,0.842,-0.732,-0.671,-0.488,-4.993,-31.448,166.064,-15.58,-7.693,-31.393,32.23,-0.12344,-0.26608,0.07123,-0.95331,905,0.96,0.02,0.223,-0.122,-0.305,-0.122,2.571,-76.866,-160.516,-30.333,-10.727,-2.767,32.5,0.14679,-0.60916,-0.12332,-0.76947,911
228,0.94,0.028,0.398,0.0,0.183,0.183,3.505,-66.956,166.849,-26.0,-11.253,-12.433,29.55,0.07825,0.55048,-0.0379,0.83023,918,0.706,0.187,0.687,0.305,-0.061,-0.183,14.557,-44.495,-130.737,-21.953,-11.433,-2.407,28.17,-0.42654,0.2916,0.26376,0.81445,916,0.529,-0.072,0.834,0.0,-0.549,-0.183,-4.993,-31.465,166.042,-15.507,-7.733,-31.06,32.23,-0.12344,-0.26608,0.07123,-0.95331,912,0.967,0.015,0.222,0.0,-0.061,-0.244,2.593,-76.871,-160.527,-30.333,-10.727,-2.767,32.5,0.14679,-0.60916,-0.12332,-0.76947,914
229,0.938,0.028,0.398,-0.061,0.0,0.183,3.499,-66.951,166.86,-26.0,-11.253,-12.433,29.55,0.07825,0.55048,-0.0379,0.83023,919,0.7,0.188,0.687,0.183,0.122,-0.122,14.568,-44.495,-130.759,-21.953,-11.433,-2.407,28.17,-0.42654,0.2916,0.26376,0.81445,917,0.531,-0.071,0.833,0.549,0.488,-0.122,-4.988,-31.465,166.036,-15.507,-7.733,-31.06,32.23,-0.12344,-0.26608,0.07123,-0.95331,913,0.966,0.014,0.225,-0.854,-0.061,-0.183,2.604,-76.871,-160.538,-30.333,-10.727,-2.767,32.5,0.14679,-0.60916,-0.12332,-0.76947,915
230,0.938,0.026,0.396,-0.061,0.0,0.183,3.494,-66.951,166.871,-26.0,-11.253,-12.433,29.55,0.07825,0.55048,-0.0379,0.83023,930,0.703,0.189,0.689,0.549,0.0,0.244,14.579,-44.495,-130.77,-21.953,-11.433,-2.407,28.17,-0.42654,0.2916,0.26376,0.81445,924,0.525,-0.069,0.843,0.366,0.488,-0.488,-4.971,-31.459,166.009,-15.507,-7.733,-31.06,32.23,-0.12344,-0.26608,0.07123,-0.95331,920,0.959,0.012,0.223,-0.793,0.061,-0.061,2.604,-76.866,-160.543,-30.333,-10.727,-2.767,32.5,0.14679,-0.60916,-0.12332,-0.76947,922
231,0.94,0.027,0.398,-0.122,-0.122,0.244,3.488,-66.956,166.882,-26.0,-11.253,-12.433,29.55,0.07825,0.55048,-0.0379,0.83023,931,0.707,0.187,0.693,0.244,0.427,0.366,14.584,-44.495,-130.765,-21.953,-11.433,-2.407,28.17,-0.42654,0.2916,0.26376,0.81445,925,0.521,-0.063,0.842,0.488,-0.122,-0.366,-4.955,-31.459,165.97,-15.507,-7.733,-31.06,32.23,-0.12344,-0.26608,0.07123,-0.95331,921,0.961,0.01,0.223,-0.977,-0.061,0.183,2.582,-76.871,-160.51,-30.333,-10.727,-2.767,32.5,0.14679,-0.60916,-0.12332,-0.76947,923
232,0.94,0.026,0.397,-0.122,-0.244,0.366,3.477,-66.956,166.899,-25.887,-11.38,-13.413,29.55,0.07825,0.55048,-0.0379,0.83023,932,0.702,0.176,0.692,-0.061,0.732,0.244,14.584,-44.489,-130.754,-21.993,-11.507,-2.007,28.17,-0.42654,0.2916,0.26376,0.81445,936,0.524,-0.06,0.841,0.427,0.183,0.183,-4.944,-31.465,165.916,-15.507,-7.733,-31.06,32.23,-0.12888,-0.26373,0.0744,-0.953,926,0.966,0.012,0.228,-0.732,0.0,0.366,2.543,-76.871,-160.455,-30.333,-10.727,-2.767,32.5,0.14679,-0.60916,-0.12332,-0.76947,928
233,0.938,0.023,0.4,-0.061,-0.122,0.305,3.461,-66.962,166.915,-25.887,-11.38,-13.413,29.55,0.07825,0.55048,-0.0379,0.83023,933,0.7,0.178,0.692,-0.366,0.854,0.122,14.579,-44.473,-130.743,-21.993,-11.507,-2.007,28.17,-0.42654,0.2916,0.26376,0.81445,937,0.524,-0.066,0.842,-0.122,0.427,-0.061,-4.938,-31.465,165.844,-15.507,-7.733,-31.06,32.23,-0.12888,-0.26373,0.0744,-0.953,927,0.96,0.008,0.225,-0.61,-0.122,0.366,2.505,-76.871,-160.395,-30.333,-10.727,-2.767,32.5,0.14679,-0.60916,-0.12332,-0.76947,929
234,0.938,0.022,0.4,-0.061,0.122,0.183,3.455,-66.962,166.926,-25.887,-11.38,-13.413,29.55,0.07825,0.55048,-0.0379,0.83023,942,0.708,0.175,0.693,0.061,0.61,0.122,14.573,-44.462,-130.737,-21.993,-11.507,-2.007,28.17,-0.42624,0.29218,0.26309,0.81464,940,0.519,-0.077,0.838,-0.793,1.77,-0.366,-4.938,-31.448,165.762,-15.507,-7.733,-31.06,32.23,-0.12888,-0.26373,0.0744,-0.953,934,0.957,0.005,0.223,-1.282,-0.305,0.305,2.461,-76.877,-160.34,-30.333,-10.727,-2.767,32.5,0.14679,-0.60916,-0.12332,-0.76947,938
235,0.938,0.022,0.4,0.0,0.183,0.061,3.45,-66.962,166.937,-25.887,-11.38,-13.413,29.55,0.07825,0.55048,-0.0379,0.83023,943,0.709,0.179,0.694,0.244,0.488,0.183,14.568,-44.451,-130.732,-21.993,-11.507,-2.007,28.17,-0.42624,0.29218,0.26309,0.81464,941,0.516,-0.076,0.842,-0.61,2.441,-0.366,-4.944,-31.41,165.674,-15.507,-7.733,-31.06,32.23,-0.12888,-0.26373,0.0744,-0.953,935,0.965,0.006,0.223,-1.465,-0.122,0.244,2.417,-76.877,-160.296,-30.333,-10.727,-2.767,32.5,0.14679,-0.60916,-0.12332,-0.76947,939
236,0.938,0.022,0.399,0.061,-0.183,0.0,3.45,-66.962,166.937,-25.887,-11.38,-13.413,29.55,0.07828,0.55066,-0.03772,0.83014,948,0.696,0.178,0.694,-0.549,1.099,0.244,14.562,-44.44,-130.726,-21.993,-11.507,-2.007,28.17,-0.42624,0.29218,0.26309,0.81464,952,0.526,-0.082,0.844,-0.732,2.319,-0.122,-4.949,-31.366,165.608,-15.507,-7.733,-31.06,32.23,-0.12888,-0.26373,0.0744,-0.953,946,0.969,0.006,0.226,-1.16,0.183,0.305,2.368,-76.877,-160.263,-30.547,-10.7,-2.48,32.5,0.14679,-0.60916,-0.12332,-0.76947,944
