Index,L5_Acceleration X(g),L5_Acceleration Y(g),L5_Acceleration Z(g),L5_Angular velocity X(°/s),L5_Angular velocity Y(°/s),L5_Angular velocity Z(°/s),L5_Angle X(°),L5_Angle Y(°),L5_Angle Z(°),L5_Magnetic field X(ʯt),L5_Magnetic field Y(ʯt),L5_Magnetic field Z(ʯt),L5_Temperature(℃),L5_Quaternions 0(),L5_Quaternions 1(),L5_Quaternions 2(),L5_Quaternions 3(),L5___orig_idx,T4_Acceleration X(g),T4_Acceleration Y(g),T4_Acceleration Z(g),T4_Angular velocity X(°/s),T4_Angular velocity Y(°/s),T4_Angular velocity Z(°/s),T4_Angle X(°),T4_Angle Y(°),T4_Angle Z(°),T4_Magnetic field X(ʯt),T4_Magnetic field Y(ʯt),T4_Magnetic field Z(ʯt),T4_Temperature(℃),T4_Quaternions 0(),T4_Quaternions 1(),T4_Quaternions 2(),T4_Quaternions 3(),T4___orig_idx,C7_Acceleration X(g),C7_Acceleration Y(g),C7_Acceleration Z(g),C7_Angular velocity X(°/s),C7_Angular velocity Y(°/s),C7_Angular velocity Z(°/s),C7_Angle X(°),C7_Angle Y(°),C7_Angle Z(°),C7_Magnetic field X(ʯt),C7_Magnetic field Y(ʯt),C7_Magnetic field Z(ʯt),C7_Temperature(℃),C7_Quaternions 0(),C7_Quaternions 1(),C7_Quaternions 2(),C7_Quaternions 3(),C7___orig_idx,T12_Acceleration X(g),T12_Acceleration Y(g),T12_Acceleration Z(g),T12_Angular velocity X(°/s),T12_Angular velocity Y(°/s),T12_Angular velocity Z(°/s),T12_Angle X(°),T12_Angle Y(°),T12_Angle Z(°),T12_Magnetic field X(ʯt),T12_Magnetic field Y(ʯt),T12_Magnetic field Z(ʯt),T12_Temperature(℃),T12_Quaternions 0(),T12_Quaternions 1(),T12_Quaternions 2(),T12_Quaternions 3(),T12___orig_idx
0,0.896,-0.012,0.484,0.488,-0.183,0.0,-1.868,-61.37,-170.244,-23.947,-4.813,-12.3,25.88,0.06122,-0.50812,-0.02621,-0.85864,4,0.638,0.041,0.771,0.366,0.0,0.0,2.884,-39.337,-109.677,-21.507,-5.633,-1.933,22.91,-0.54816,0.26184,0.21292,0.7652,2,0.629,0.058,0.766,0.183,-0.122,-0.61,4.191,-39.034,165.35,-17.807,-8.493,-24.393,27.0,0.10818,0.33456,-0.00909,0.93604,0,0.837,0.148,0.502,0.366,-0.305,0.0,16.287,-57.925,-137.384,-26.967,-9.6,-6.013,28.54,0.3782,-0.40125,-0.28848,-0.78271,10
1,0.896,-0.013,0.484,0.366,-0.122,0.0,-1.857,-61.375,-170.266,-23.947,-4.813,-12.3,25.88,0.06122,-0.50812,-0.02621,-0.85864,5,0.638,0.04,0.772,0.305,-0.061,0.0,2.889,-39.337,-109.671,-21.507,-5.633,-1.933,22.91,-0.54816,0.26184,0.21292,0.7652,3,0.628,0.059,0.767,0.244,-0.671,-0.61,4.202,-39.04,165.333,-17.807,-8.493,-24.393,27.0,0.10818,0.33456,-0.00909,0.93604,1,0.838,0.148,0.502,0.244,-0.366,0.0,16.298,-57.931,-137.39,-26.967,-9.6,-6.013,28.54,0.3782,-0.40125,-0.28848,-0.78271,11
2,0.896,-0.012,0.485,0.244,-0.122,0.0,-1.846,-61.381,-170.321,-23.947,-4.813,-12.3,25.88,0.0643,-0.50964,-0.02921,-0.85742,12,0.639,0.042,0.772,0.183,0.0,0.0,2.895,-39.342,-109.666,-22.047,-5.54,-1.607,22.91,-0.54816,0.26184,0.21292,0.7652,8,0.632,0.061,0.768,0.061,-0.061,-0.488,4.219,-39.051,165.317,-17.807,-8.493,-24.393,27.0,0.10809,0.33569,-0.00824,0.93564,6,0.839,0.15,0.502,0.122,-0.305,0.0,16.309,-57.936,-137.373,-26.967,-9.6,-6.013,28.54,0.3782,-0.40125,-0.28848,-0.78271,18
3,0.897,-0.012,0.485,0.061,-0.061,0.0,-1.84,-61.381,-170.381,-23.947,-4.813,-12.3,25.88,0.0643,-0.50964,-0.02921,-0.85742,13,0.639,0.041,0.771,0.0,0.244,0.0,2.9,-39.342,-109.66,-22.047,-5.54,-1.607,22.91,-0.54816,0.26184,0.21292,0.7652,9,0.631,0.062,0.766,-0.061,0.061,-0.305,4.23,-39.056,165.339,-17.807,-8.493,-24.393,27.0,0.10809,0.33569,-0.00824,0.93564,7,0.839,0.15,0.502,-0.122,-0.244,0.0,16.309,-57.942,-137.357,-26.967,-9.6,-6.013,28.54,0.3782,-0.40125,-0.28848,-0.78271,19
4,0.898,-0.012,0.485,0.0,0.0,0.0,-1.835,-61.386,-170.475,-23.947,-4.813,-12.3,25.88,0.0643,-0.50964,-0.02921,-0.85742,22,0.639,0.04,0.773,0.0,0.488,0.0,2.9,-39.337,-109.655,-22.047,-5.54,-1.607,22.91,-0.54816,0.26184,0.21292,0.7652,16,0.63,0.059,0.767,0.0,0.0,0.0,4.235,-39.056,165.333,-17.807,-8.493,-24.393,27.0,0.10809,0.33569,-0.00824,0.93564,14,0.839,0.149,0.505,-0.122,-0.183,0.0,16.315,-57.942,-137.357,-26.967,-9.6,-6.013,28.54,0.3782,-0.40125,-0.28848,-0.78271,30
5,0.899,-0.014,0.487,-0.122,0.061,0.0,-1.829,-61.386,-170.519,-23.947,-4.813,-12.3,25.88,0.0643,-0.50964,-0.02921,-0.85742,23,0.639,0.038,0.774,0.0,0.61,0.0,2.9,-39.326,-109.649,-22.047,-5.54,-1.607,22.91,-0.54816,0.26184,0.21292,0.7652,17,0.632,0.056,0.769,0.061,0.488,0.0,4.235,-39.056,165.355,-17.807,-8.493,-24.393,27.0,0.10809,0.33569,-0.00824,0.93564,15,0.838,0.148,0.503,-0.122,-0.122,0.0,16.315,-57.947,-137.357,-26.967,-9.6,-6.013,28.54,0.3782,-0.40125,-0.28848,-0.78271,31
6,0.897,-0.016,0.487,-0.122,0.061,0.0,-1.829,-61.386,-170.497,-23.947,-4.813,-12.3,25.88,0.0643,-0.50964,-0.02921,-0.85742,24,0.641,0.037,0.774,0.122,0.671,0.0,2.9,-39.315,-109.638,-22.047,-5.54,-1.607,22.91,-0.54926,0.2612,0.21329,0.76453,26,0.622,0.055,0.769,0.061,0.732,-0.305,4.235,-39.045,165.366,-17.807,-8.493,-24.393,27.0,0.10809,0.33569,-0.00824,0.93564,20,0.836,0.149,0.504,-0.305,-0.244,0.0,16.315,-57.953,-137.357,-27.18,-9.853,-5.58,28.54,0.3782,-0.40125,-0.28848,-0.78271,34
7,0.895,-0.014,0.485,-0.061,0.183,0.0,-1.829,-61.386,-170.453,-23.947,-4.813,-12.3,25.88,0.0643,-0.50964,-0.02921,-0.85742,25,0.637,0.036,0.773,0.366,0.671,0.0,2.906,-39.304,-109.633,-22.047,-5.54,-1.607,22.91,-0.54926,0.2612,0.21329,0.76453,27,0.643,0.049,0.761,1.587,-0.549,-0.061,4.252,-39.04,165.355,-17.807,-8.493,-24.393,27.0,0.10809,0.33569,-0.00824,0.93564,21,0.836,0.149,0.505,-0.488,-0.366,0.0,16.309,-57.958,-137.34,-27.18,-9.853,-5.58,28.54,0.3782,-0.40125,-0.28848,-0.78271,35
8,0.894,-0.013,0.486,0.0,0.122,0.0,-1.829,-61.386,-170.387,-23.947,-4.813,-12.3,25.88,0.0643,-0.50964,-0.02921,-0.85742,36,0.633,0.035,0.774,0.671,0.61,-0.427,2.917,-39.293,-109.627,-22.047,-5.54,-1.607,22.91,-0.54926,0.2612,0.21329,0.76453,32,0.626,0.055,0.768,1.831,0.183,0.122,4.285,-39.051,165.372,-17.807,-8.493,-24.393,27.0,0.10809,0.33569,-0.00824,0.93564,28,0.837,0.147,0.505,-0.305,-0.305,0.0,16.309,-57.964,-137.324,-27.18,-9.853,-5.58,28.54,0.3782,-0.40125,-0.28848,-0.78271,42
9,0.895,-0.014,0.486,-0.061,0.061,0.0,-1.824,-61.386,-170.343,-23.947,-4.813,-12.3,25.88,0.0643,-0.50964,-0.02921,-0.85742,37,0.633,0.04,0.777,0.366,0.488,-0.854,2.933,-39.287,-109.638,-22.047,-5.54,-1.607,22.91,-0.54926,0.2612,0.21329,0.76453,33,0.624,0.057,0.772,1.099,-0.732,-0.427,4.318,-39.056,165.377,-17.807,-8.493,-24.393,27.0,0.10809,0.33569,-0.00824,0.93564,29,0.837,0.147,0.505,-0.244,-0.305,0.0,16.304,-57.969,-137.313,-27.18,-9.853,-5.58,28.54,0.3782,-0.40125,-0.28848,-0.78271,43
10,0.895,-0.014,0.486,-0.122,0.061,0.0,-1.824,-61.386,-170.288,-23.947,-4.813,-12.3,25.88,0.0643,-0.50964,-0.02921,-0.85742,44,0.633,0.042,0.777,0.244,0.427,-0.732,2.955,-39.276,-109.649,-22.047,-5.54,-1.607,22.91,-0.54926,0.2612,0.21329,0.76453,38,0.627,0.063,0.773,0.61,0.732,-0.732,4.34,-39.067,165.377,-17.807,-8.493,-24.393,27.0,0.10809,0.33569,-0.00824,0.93564,40,0.837,0.146,0.502,-0.244,-0.244,0.0,16.304,-57.969,-137.307,-27.18,-9.853,-5.58,28.54,0.37915,-0.40161,-0.29013,-0.78146,50
11,0.896,-0.014,0.486,0.0,0.183,0.0,-1.824,-61.386,-170.206,-23.947,-4.813,-12.3,25.88,0.0643,-0.50964,-0.02921,-0.85742,45,0.635,0.043,0.776,0.122,0.427,-0.549,2.966,-39.271,-109.66,-22.047,-5.54,-1.607,22.91,-0.54926,0.2612,0.21329,0.76453,39,0.626,0.064,0.771,0.244,0.549,-0.61,4.362,-39.051,165.388,-17.807,-8.493,-24.393,27.0,0.10809,0.33569,-0.00824,0.93564,41,0.837,0.146,0.503,0.0,-0.122,0.0,16.304,-57.975,-137.302,-27.18,-9.853,-5.58,28.54,0.37915,-0.40161,-0.29013,-0.78146,51
12,0.895,-0.015,0.486,0.122,0.305,0.0,-1.818,-61.381,-170.134,-23.947,-4.813,-12.3,25.88,0.0643,-0.50964,-0.02921,-0.85742,52,0.635,0.043,0.778,0.0,0.61,-0.244,2.977,-39.26,-109.666,-22.047,-5.54,-1.607,22.91,-0.54926,0.2612,0.21329,0.76453,46,0.627,0.065,0.771,-0.183,0.671,-0.549,4.373,-39.04,165.427,-17.807,-8.493,-24.393,27.0,0.10809,0.33569,-0.00824,0.93564,48,0.836,0.148,0.505,0.122,-0.244,0.0,16.309,-57.975,-137.285,-27.18,-9.853,-5.58,28.54,0.37915,-0.40161,-0.29013,-0.78146,58
13,0.895,-0.014,0.487,0.244,0.305,0.0,-1.813,-61.381,-170.101,-23.947,-4.813,-12.3,25.88,0.0643,-0.50964,-0.02921,-0.85742,53,0.635,0.044,0.779,-0.122,0.854,0.0,2.977,-39.249,-109.666,-22.047,-5.54,-1.607,22.91,-0.54926,0.2612,0.21329,0.76453,47,0.626,0.064,0.773,-0.488,0.732,-0.366,4.378,-39.029,165.46,-17.807,-8.493,-24.393,27.0,0.10809,0.33569,-0.00824,0.93564,49,0.836,0.151,0.504,0.244,-0.427,0.0,16.32,-57.98,-137.28,-27.18,-9.853,-5.58,28.54,0.37915,-0.40161,-0.29013,-0.78146,59
14,0.894,-0.012,0.486,0.305,0.183,0.0,-1.807,-61.375,-170.107,-23.9,-4.867,-11.747,25.88,0.0643,-0.50964,-0.02921,-0.85742,56,0.632,0.044,0.78,-0.244,0.854,0.305,2.972,-39.232,-109.655,-22.047,-5.54,-1.607,22.91,-0.54926,0.2612,0.21329,0.76453,54,0.628,0.066,0.775,-1.282,1.16,-0.366,4.367,-39.012,165.482,-17.807,-8.493,-24.393,27.0,0.10809,0.33569,-0.00824,0.93564,60,0.835,0.151,0.505,0.061,-0.427,0.0,16.326,-57.986,-137.28,-27.18,-9.853,-5.58,28.54,0.37915,-0.40161,-0.29013,-0.78146,64
15,0.894,-0.011,0.487,0.305,0.061,0.0,-1.796,-61.375,-170.096,-23.9,-4.867,-11.747,25.88,0.0643,-0.50964,-0.02921,-0.85742,57,0.628,0.042,0.778,0.0,0.854,0.488,2.966,-39.216,-109.644,-22.047,-5.54,-1.607,22.91,-0.54926,0.2612,0.21329,0.76453,55,0.599,0.062,0.771,-0.366,1.526,-0.183,4.356,-38.985,165.504,-17.807,-8.493,-24.393,27.0,0.10809,0.33569,-0.00824,0.93564,61,0.836,0.152,0.503,-0.122,-0.61,0.0,16.331,-57.997,-137.291,-27.18,-9.853,-5.58,28.54,0.37915,-0.40161,-0.29013,-0.78146,65
16,0.895,-0.01,0.486,0.244,0.0,0.0,-1.791,-61.375,-170.052,-23.9,-4.867,-11.747,25.88,0.0643,-0.50964,-0.02921,-0.85742,66,0.629,0.042,0.776,0.244,0.244,0.366,2.961,-39.199,-109.622,-22.047,-5.54,-1.607,22.91,-0.54926,0.2612,0.21329,0.76453,68,0.638,0.05,0.766,2.869,-6.714,0.122,4.367,-39.001,165.487,-17.287,-8.813,-24.107,27.0,0.10809,0.33569,-0.00824,0.93564,62,0.836,0.151,0.503,0.0,-0.732,0.0,16.337,-58.008,-137.291,-27.18,-9.853,-5.58,28.54,0.37915,-0.40161,-0.29013,-0.78146,72
17,0.893,-0.011,0.487,0.122,0.0,0.0,-1.78,-61.375,-170.008,-23.9,-4.867,-11.747,25.88,0.0643,-0.50964,-0.02921,-0.85742,67,0.633,0.042,0.783,0.122,0.305,0.061,2.961,-39.194,-109.611,-22.047,-5.54,-1.607,22.91,-0.54926,0.2612,0.21329,0.76453,69,0.626,0.067,0.776,-0.122,1.16,-0.122,4.417,-39.089,165.454,-17.287,-8.813,-24.107,27.0,0.10809,0.33569,-0.00824,0.93564,63,0.834,0.149,0.501,-0.122,-0.61,0.0,16.342,-58.019,-137.291,-27.18,-9.853,-5.58,28.54,0.37915,-0.40161,-0.29013,-0.78146,73
18,0.892,-0.01,0.487,0.0,0.122,0.0,-1.774,-61.375,-170.052,-23.9,-4.867,-11.747,25.88,0.06683,-0.50949,-0.03101,-0.85724,74,0.629,0.04,0.778,0.061,0.427,0.183,2.961,-39.188,-109.6,-21.253,-5.353,-1.46,22.91,-0.54926,0.2612,0.21329,0.76453,70,0.623,0.062,0.773,0.061,-0.061,-0.244,4.417,-39.073,165.427,-17.287,-8.813,-24.107,27.0,0.10809,0.33569,-0.00824,0.93564,76,0.833,0.153,0.501,-0.244,-0.366,0.0,16.348,-58.024,-137.285,-27.18,-9.853,-5.58,28.54,0.37915,-0.40161,-0.29013,-0.78146,78
19,0.894,-0.008,0.487,0.0,0.122,0.0,-1.769,-61.375,-170.079,-23.9,-4.867,-11.747,25.88,0.06683,-0.50949,-0.03101,-0.85724,75,0.63,0.042,0.776,-0.061,0.793,0.305,2.961,-39.177,-109.589,-21.253,-5.353,-1.46,22.91,-0.54926,0.2612,0.21329,0.76453,71,0.625,0.061,0.771,-0.854,0.977,0.122,4.417,-39.067,165.383,-17.287,-8.813,-24.107,27.0,0.10809,0.33569,-0.00824,0.93564,77,0.839,0.155,0.507,-0.244,-0.244,0.0,16.348,-58.03,-137.274,-27.18,-9.853,-5.58,28.54,0.37915,-0.40161,-0.29013,-0.78146,79
20,0.898,-0.01,0.489,-0.061,-0.183,0.0,-1.769,-61.375,-170.046,-23.9,-4.867,-11.747,25.88,0.06683,-0.50949,-0.03101,-0.85724,84,0.638,0.046,0.777,-0.427,0.854,0.061,2.955,-39.161,-109.578,-21.253,-5.353,-1.46,22.91,-0.54926,0.2612,0.21329,0.76453,80,0.613,0.064,0.769,-1.282,1.282,-0.732,4.4,-39.045,165.333,-17.287,-8.813,-24.107,27.0,0.1073,0.33588,-0.00662,0.9357,82,0.839,0.154,0.503,-0.916,-0.366,0.0,16.337,-58.03,-137.258,-27.18,-9.853,-5.58,28.54,0.37915,-0.40161,-0.29013,-0.78146,88
21,0.897,-0.008,0.486,-0.122,-0.366,0.0,-1.763,-61.375,-169.991,-23.9,-4.867,-11.747,25.88,0.06683,-0.50949,-0.03101,-0.85724,85,0.632,0.043,0.777,-0.122,0.183,-0.244,2.95,-39.144,-109.572,-21.253,-5.353,-1.46,22.91,-0.54926,0.2612,0.21329,0.76453,81,0.643,0.051,0.764,2.747,-3.052,-0.732,4.411,-39.04,165.256,-17.287,-8.813,-24.107,27.0,0.1073,0.33588,-0.00662,0.9357,83,0.835,0.15,0.5,-0.671,-0.305,0.0,16.331,-58.035,-137.236,-27.18,-9.853,-5.58,28.54,0.37915,-0.40161,-0.29013,-0.78146,89
22,0.894,-0.009,0.486,-0.244,-0.183,0.0,-1.758,-61.386,-169.975,-23.9,-4.867,-11.747,25.88,0.06683,-0.50949,-0.03101,-0.85724,92,0.627,0.037,0.779,0.61,0.0,-0.366,2.961,-39.139,-109.572,-21.253,-5.353,-1.46,22.91,-0.55014,0.25955,0.21292,0.76453,86,0.622,0.063,0.769,2.197,0.671,0.0,4.471,-39.078,165.218,-17.287,-8.813,-24.107,27.0,0.1073,0.33588,-0.00662,0.9357,90,0.837,0.149,0.505,-0.305,-0.366,0.0,16.331,-58.041,-137.214,-27.18,-9.853,-5.58,28.54,0.37915,-0.40161,-0.29013,-0.78146,104
23,0.894,-0.013,0.487,-0.427,-0.244,0.0,-1.758,-61.392,-170.008,-23.9,-4.867,-11.747,25.88,0.06683,-0.50949,-0.03101,-0.85724,93,0.626,0.039,0.783,0.793,0.427,-0.427,2.977,-39.139,-109.578,-21.253,-5.353,-1.46,22.91,-0.55014,0.25955,0.21292,0.76453,87,0.62,0.058,0.778,3.235,-1.404,1.099,4.515,-39.073,165.278,-17.287,-8.813,-24.107,27.0,0.1073,0.33588,-0.00662,0.9357,91,0.839,0.145,0.503,-0.244,-0.61,0.0,16.337,-58.052,-137.186,-27.18,-9.853,-5.58,28.54,0.37915,-0.40161,-0.29013,-0.78146,105
24,0.895,-0.016,0.486,-0.366,-0.366,0.0,-1.763,-61.397,-170.035,-23.9,-4.867,-11.747,25.88,0.06683,-0.50949,-0.03101,-0.85724,98,0.631,0.044,0.784,0.549,0.0,-0.427,2.999,-39.128,-109.583,-21.253,-5.353,-1.46,22.91,-0.55014,0.25955,0.21292,0.76453,94,0.625,0.066,0.781,1.404,0.061,0.305,4.559,-39.095,165.328,-17.287,-8.813,-24.107,27.0,0.1073,0.33588,-0.00662,0.9357,96,0.836,0.144,0.5,-0.122,-0.671,0.0,16.342,-58.063,-137.153,-27.28,-9.32,-5.627,28.54,0.37915,-0.40161,-0.29013,-0.78146,106
25,0.893,-0.017,0.484,-0.183,-0.305,0.0,-1.763,-61.403,-170.024,-23.9,-4.867,-11.747,25.88,0.06683,-0.50949,-0.03101,-0.85724,99,0.632,0.046,0.782,0.183,-0.122,-0.061,3.016,-39.128,-109.589,-21.253,-5.353,-1.46,22.91,-0.55014,0.25955,0.21292,0.76453,95,0.625,0.07,0.776,0.183,0.183,-0.427,4.576,-39.089,165.377,-17.287,-8.813,-24.107,27.0,0.1073,0.33588,-0.00662,0.9357,97,0.834,0.147,0.503,0.061,-0.854,0.0,16.353,-58.074,-137.126,-27.28,-9.32,-5.627,28.54,0.37915,-0.40161,-0.29013,-0.78146,107
26,0.892,-0.014,0.486,-0.061,-0.244,0.0,-1.763,-61.408,-169.975,-23.9,-4.867,-11.747,25.88,0.06683,-0.50949,-0.03101,-0.85724,108,0.629,0.047,0.783,-0.366,0.0,0.244,3.016,-39.128,-109.583,-21.253,-5.353,-1.46,22.91,-0.55014,0.25955,0.21292,0.76453,102,0.625,0.073,0.776,-1.16,0.427,-0.366,4.581,-39.084,165.41,-17.287,-8.813,-24.107,27.0,0.1073,0.33588,-0.00662,0.9357,100,0.835,0.148,0.503,0.244,-1.099,0.0,16.37,-58.096,-137.104,-27.28,-9.32,-5.627,28.54,0.37915,-0.40161,-0.29013,-0.78146,114
27,0.892,-0.013,0.485,0.0,-0.427,0.0,-1.763,-61.414,-169.92,-23.9,-4.867,-11.747,25.88,0.06683,-0.50949,-0.03101,-0.85724,109,0.629,0.046,0.782,-0.549,0.244,0.671,3.005,-39.122,-109.567,-21.253,-5.353,-1.46,22.91,-0.55014,0.25955,0.21292,0.76453,103,0.625,0.069,0.775,-1.404,1.404,-0.244,4.565,-39.067,165.438,-17.287,-8.813,-24.107,27.0,0.1073,0.33588,-0.00662,0.9357,101,0.838,0.148,0.504,0.427,-1.404,0.0,16.392,-58.118,-137.093,-27.28,-9.32,-5.627,28.54,0.37915,-0.40161,-0.29013,-0.78146,115
28,0.895,-0.014,0.487,0.0,-0.61,0.0,-1.758,-61.425,-169.865,-23.9,-4.867,-11.747,25.88,0.06683,-0.50949,-0.03101,-0.85724,116,0.631,0.042,0.784,-0.793,0.244,0.793,2.983,-39.117,-109.539,-21.253,-5.353,-1.46,22.91,-0.55014,0.25955,0.21292,0.76453,112,0.625,0.063,0.775,-1.77,1.099,-0.122,4.537,-39.034,165.465,-17.287,-8.813,-24.107,27.0,0.1073,0.33588,-0.00662,0.9357,110,0.84,0.147,0.502,0.305,-1.526,0.0,16.414,-58.145,-137.087,-27.28,-9.32,-5.627,28.54,0.38089,-0.40189,-0.29187,-0.77982,122
29,0.897,-0.015,0.487,0.0,-0.793,0.0,-1.758,-61.441,-169.832,-23.9,-4.867,-11.747,25.88,0.06683,-0.50949,-0.03101,-0.85724,117,0.632,0.042,0.781,-0.977,0.305,0.854,2.95,-39.106,-109.517,-21.253,-5.353,-1.46,22.91,-0.55014,0.25955,0.21292,0.76453,113,0.614,0.063,0.775,-1.709,1.465,0.061,4.51,-39.007,165.509,-17.287,-8.813,-24.107,27.0,0.1073,0.33588,-0.00662,0.9357,111,0.839,0.148,0.502,0.0,-1.465,0.305,16.414,-58.173,-137.071,-27.28,-9.32,-5.627,28.54,0.38089,-0.40189,-0.29187,-0.77982,123
30,0.896,-0.014,0.487,0.0,-0.793,0.0,-1.758,-61.452,-169.832,-24.233,-4.813,-12.02,25.88,0.06683,-0.50949,-0.03101,-0.85724,124,0.63,0.041,0.781,-1.038,0.244,0.854,2.922,-39.1,-109.49,-21.253,-5.353,-1.46,22.91,-0.55014,0.25955,0.21292,0.76453,118,0.648,0.058,0.769,-1.038,0.732,-0.366,4.477,-38.979,165.564,-17.287,-8.813,-24.107,27.0,0.1073,0.33588,-0.00662,0.9357,120,0.837,0.149,0.501,0.0,-1.404,0.366,16.419,-58.2,-137.054,-27.28,-9.32,-5.627,28.54,0.38089,-0.40189,-0.29187,-0.77982,130
31,0.894,-0.011,0.486,0.061,-0.732,0.0,-1.758,-61.469,-169.882,-24.233,-4.813,-12.02,25.88,0.06683,-0.50949,-0.03101,-0.85724,125,0.629,0.038,0.779,-0.977,-0.244,0.793,2.889,-39.095,-109.462,-21.253,-5.353,-1.46,22.91,-0.55014,0.25955,0.21292,0.76453,119,0.63,0.066,0.781,0.0,-3.235,0.061,4.471,-38.985,165.608,-17.287,-8.813,-24.107,27.0,0.1073,0.33588,-0.00662,0.9357,121,0.836,0.151,0.5,0.0,-1.343,0.366,16.419,-58.222,-137.043,-27.28,-9.32,-5.627,28.54,0.38089,-0.40189,-0.29187,-0.77982,131
32,0.893,-0.009,0.486,0.0,-0.793,0.0,-1.752,-61.485,-169.926,-24.233,-4.813,-12.02,25.88,0.06763,-0.51028,-0.03174,-0.85669,132,0.63,0.038,0.779,-0.671,0.0,0.793,2.862,-39.1,-109.435,-21.253,-5.353,-1.46,22.91,-0.55014,0.25955,0.21292,0.76453,126,0.624,0.06,0.768,-0.488,0.854,0.0,4.471,-39.023,165.668,-17.287,-8.813,-24.107,27.0,0.1073,0.33588,-0.00662,0.9357,128,0.837,0.153,0.497,-0.671,-1.16,0.183,16.419,-58.244,-137.032,-27.28,-9.32,-5.627,28.54,0.38089,-0.40189,-0.29187,-0.77982,136
33,0.892,-0.007,0.485,-0.122,-0.854,0.0,-1.752,-61.501,-169.926,-24.233,-4.813,-12.02,25.88,0.06763,-0.51028,-0.03174,-0.85669,133,0.628,0.035,0.775,-0.366,-0.122,0.549,2.845,-39.095,-109.413,-21.253,-5.353,-1.46,22.91,-0.55014,0.25955,0.21292,0.76453,127,0.628,0.054,0.768,-0.061,1.221,0.183,4.466,-39.007,165.674,-17.287,-8.813,-24.107,27.0,0.1073,0.33588,-0.00662,0.9357,129,0.841,0.148,0.497,-0.305,-1.099,0.061,16.419,-58.266,-137.016,-27.28,-9.32,-5.627,28.54,0.38089,-0.40189,-0.29187,-0.77982,137
34,0.895,-0.007,0.483,-0.183,-0.854,0.0,-1.752,-61.518,-169.942,-24.233,-4.813,-12.02,25.88,0.06763,-0.51028,-0.03174,-0.85669,138,0.627,0.035,0.773,0.183,-0.427,0.061,2.84,-39.1,-109.402,-21.253,-5.353,-1.46,22.91,-0.55014,0.25955,0.21292,0.76453,140,0.621,0.053,0.763,1.282,0.244,-0.122,4.471,-38.985,165.685,-17.287,-8.813,-24.107,27.0,0.1073,0.33588,-0.00662,0.9357,134,0.846,0.146,0.499,0.0,-1.038,0.0,16.425,-58.282,-137.01,-27.28,-9.32,-5.627,28.54,0.38089,-0.40189,-0.29187,-0.77982,146
35,0.898,-0.011,0.483,-0.244,-0.854,0.0,-1.752,-61.534,-169.958,-24.233,-4.813,-12.02,25.88,0.06763,-0.51028,-0.03174,-0.85669,139,0.628,0.037,0.777,0.244,-0.793,-0.427,2.845,-39.111,-109.407,-21.253,-5.353,-1.46,22.91,-0.55014,0.25955,0.21292,0.76453,141,0.618,0.059,0.772,1.77,-0.854,0.183,4.499,-38.99,165.701,-17.287,-8.813,-24.107,27.0,0.1073,0.33588,-0.00662,0.9357,135,0.845,0.148,0.495,0.427,-0.916,0.0,16.436,-58.299,-137.016,-27.28,-9.32,-5.627,28.54,0.38089,-0.40189,-0.29187,-0.77982,147
36,0.901,-0.013,0.483,-0.183,-0.732,0.0,-1.752,-61.551,-169.98,-24.233,-4.813,-12.02,25.88,0.06763,-0.51028,-0.03174,-0.85669,148,0.637,0.042,0.78,-0.366,-1.038,-0.61,2.856,-39.128,-109.413,-21.333,-5.587,-1.273,22.91,-0.55014,0.25955,0.21292,0.76453,144,0.629,0.068,0.777,0.0,0.427,-0.305,4.526,-38.996,165.685,-17.907,-8.44,-24.32,27.0,0.1073,0.33588,-0.00662,0.9357,142,0.842,0.15,0.496,0.549,-0.793,0.061,16.458,-58.315,-137.032,-27.28,-9.32,-5.627,28.54,0.38089,-0.40189,-0.29187,-0.77982,154
37,0.9,-0.013,0.482,0.061,-0.671,0.0,-1.747,-61.562,-170.013,-24.233,-4.813,-12.02,25.88,0.06763,-0.51028,-0.03174,-0.85669,149,0.639,0.043,0.779,-0.671,-0.732,0.0,2.851,-39.139,-109.418,-21.333,-5.587,-1.273,22.91,-0.55014,0.25955,0.21292,0.76453,145,0.634,0.072,0.773,-1.343,1.343,-0.732,4.526,-38.985,165.663,-17.907,-8.44,-24.32,27.0,0.1073,0.33588,-0.00662,0.9357,143,0.841,0.152,0.495,0.549,-0.61,0.244,16.474,-58.326,-137.043,-27.28,-9.32,-5.627,28.54,0.38089,-0.40189,-0.29187,-0.77982,155
38,0.899,-0.012,0.482,0.122,-0.61,0.0,-1.741,-61.578,-170.019,-24.233,-4.813,-12.02,25.88,0.06763,-0.51028,-0.03174,-0.85669,156,0.635,0.041,0.778,-0.427,-0.183,0.671,2.834,-39.15,-109.407,-21.333,-5.587,-1.273,22.91,-0.55014,0.25955,0.21292,0.76453,152,0.628,0.066,0.769,-1.038,0.793,-0.122,4.51,-38.958,165.674,-17.907,-8.44,-24.32,27.0,0.1073,0.33588,-0.00662,0.9357,150,0.842,0.151,0.493,0.366,-0.549,0.427,16.485,-58.343,-137.049,-27.28,-9.32,-5.627,28.54,0.38089,-0.40189,-0.29187,-0.77982,160
39,0.898,-0.013,0.482,0.122,-0.61,0.0,-1.736,-61.589,-170.013,-24.233,-4.813,-12.02,25.88,0.06763,-0.51028,-0.03174,-0.85669,157,0.635,0.041,0.775,-0.366,0.183,0.793,2.818,-39.15,-109.385,-21.333,-5.587,-1.273,22.91,-0.55014,0.25955,0.21292,0.76453,153,0.629,0.064,0.77,-1.465,0.427,0.0,4.488,-38.947,165.69,-17.907,-8.44,-24.32,27.0,0.1073,0.33588,-0.00662,0.9357,151,0.842,0.148,0.492,0.305,-0.488,0.488,16.485,-58.354,-137.054,-27.28,-9.32,-5.627,28.54,0.38089,-0.40189,-0.29187,-0.77982,161
40,0.898,-0.013,0.48,0.122,-0.671,0.427,-1.741,-61.6,-170.052,-24.233,-4.813,-12.02,25.88,0.06763,-0.51028,-0.03174,-0.85669,164,0.635,0.041,0.773,-0.122,0.122,0.732,2.802,-39.144,-109.358,-21.333,-5.587,-1.273,22.91,-0.55115,0.25992,0.21243,0.76382,158,0.631,0.062,0.768,-0.854,0.671,0.061,4.466,-38.936,165.74,-17.907,-8.44,-24.32,27.0,0.10437,0.33511,-0.00479,0.93631,162,0.842,0.148,0.492,0.122,-0.366,0.488,16.485,-58.365,-137.071,-27.28,-9.32,-5.627,28.54,0.38089,-0.40189,-0.29187,-0.77982,170
41,0.899,-0.014,0.479,0.183,-0.732,0.488,-1.752,-61.617,-170.129,-24.233,-4.813,-12.02,25.88,0.06763,-0.51028,-0.03174,-0.85669,165,0.638,0.038,0.773,0.061,-0.061,0.549,2.796,-39.144,-109.341,-21.333,-5.587,-1.273,22.91,-0.55115,0.25992,0.21243,0.76382,159,0.597,0.06,0.766,-0.061,0.061,0.061,4.455,-38.925,165.784,-17.907,-8.44,-24.32,27.0,0.10437,0.33511,-0.00479,0.93631,163,0.842,0.148,0.494,0.0,-0.122,0.488,16.479,-58.376,-137.076,-27.28,-9.32,-5.627,28.54,0.38089,-0.40189,-0.29187,-0.77982,171
42,0.898,-0.013,0.479,0.122,-0.671,0.427,-1.763,-61.633,-170.211,-24.233,-4.813,-12.02,25.88,0.06763,-0.51028,-0.03174,-0.85669,172,0.633,0.036,0.772,0.061,-0.488,0.305,2.791,-39.15,-109.325,-21.333,-5.587,-1.273,22.91,-0.55115,0.25992,0.21243,0.76382,166,0.649,0.051,0.76,2.563,-7.996,0.061,4.471,-38.969,165.806,-17.907,-8.44,-24.32,27.0,0.10437,0.33511,-0.00479,0.93631,168,0.841,0.149,0.494,0.0,-0.061,0.427,16.469,-58.376,-137.071,-27.393,-10.067,-5.52,28.54,0.38089,-0.40189,-0.29187,-0.77982,178
43,0.898,-0.012,0.48,0.061,-0.671,0.366,-1.774,-61.65,-170.316,-24.233,-4.813,-12.02,25.88,0.06763,-0.51028,-0.03174,-0.85669,173,0.636,0.035,0.774,0.061,-0.305,0.0,2.791,-39.161,-109.319,-21.333,-5.587,-1.273,22.91,-0.55115,0.25992,0.21243,0.76382,167,0.626,0.062,0.765,1.099,0.671,0.427,4.521,-39.084,165.817,-17.907,-8.44,-24.32,27.0,0.10437,0.33511,-0.00479,0.93631,169,0.842,0.148,0.496,-0.061,0.0,0.183,16.458,-58.381,-137.082,-27.393,-10.067,-5.52,28.54,0.38089,-0.40189,-0.29187,-0.77982,179
44,0.897,-0.011,0.48,0.0,-0.61,0.305,-1.78,-61.661,-170.392,-23.527,-4.66,-12.653,25.88,0.06763,-0.51028,-0.03174,-0.85669,180,0.634,0.036,0.773,0.0,-0.244,-0.122,2.791,-39.166,-109.314,-21.333,-5.587,-1.273,22.91,-0.55115,0.25992,0.21243,0.76382,176,0.63,0.059,0.768,0.488,-1.77,0.183,4.532,-39.084,165.866,-17.907,-8.44,-24.32,27.0,0.10437,0.33511,-0.00479,0.93631,174,0.844,0.147,0.496,0.122,0.061,0.0,16.458,-58.381,-137.093,-27.393,-10.067,-5.52,28.54,0.38089,-0.40189,-0.29187,-0.77982,186
45,0.898,-0.011,0.481,-0.122,-0.61,0.183,-1.791,-61.677,-170.453,-23.527,-4.66,-12.653,25.88,0.06763,-0.51028,-0.03174,-0.85669,181,0.635,0.033,0.776,0.122,-0.183,-0.061,2.796,-39.172,-109.314,-21.333,-5.587,-1.273,22.91,-0.55115,0.25992,0.21243,0.76382,177,0.63,0.057,0.767,0.183,0.366,-0.061,4.537,-39.111,165.888,-17.907,-8.44,-24.32,27.0,0.10437,0.33511,-0.00479,0.93631,175,0.846,0.146,0.496,0.244,0.183,-0.061,16.463,-58.381,-137.087,-27.393,-10.067,-5.52,28.54,0.38089,-0.40189,-0.29187,-0.77982,187
46,0.9,-0.013,0.482,-0.122,-0.61,0.061,-1.791,-61.688,-170.524,-23.527,-4.66,-12.653,25.88,0.06763,-0.51028,-0.03174,-0.85669,188,0.636,0.033,0.774,0.305,0.0,-0.183,2.802,-39.172,-109.314,-21.333,-5.587,-1.273,22.91,-0.55115,0.25992,0.21243,0.76382,182,0.631,0.056,0.766,0.061,-0.488,-0.122,4.543,-39.106,165.894,-17.907,-8.44,-24.32,27.0,0.10437,0.33511,-0.00479,0.93631,184,0.844,0.145,0.495,0.427,0.427,-0.061,16.474,-58.376,-137.076,-27.393,-10.067,-5.52,28.54,0.38101,-0.4035,-0.29291,-0.77853,194
47,0.902,-0.014,0.482,0.0,-0.427,0.122,-1.796,-61.699,-170.596,-23.527,-4.66,-12.653,25.88,0.06763,-0.51028,-0.03174,-0.85669,189,0.635,0.034,0.774,0.488,-0.061,-0.183,2.812,-39.177,-109.314,-21.333,-5.587,-1.273,22.91,-0.55115,0.25992,0.21243,0.76382,183,0.63,0.058,0.766,0.427,0.0,0.0,4.548,-39.117,165.894,-17.907,-8.44,-24.32,27.0,0.10437,0.33511,-0.00479,0.93631,185,0.843,0.146,0.495,0.671,0.671,-0.061,16.479,-58.37,-137.065,-27.393,-10.067,-5.52,28.54,0.38101,-0.4035,-0.29291,-0.77853,195
48,0.901,-0.015,0.481,0.061,-0.122,0.183,-1.796,-61.71,-170.662,-23.527,-4.66,-12.653,25.88,0.06259,-0.51205,-0.02875,-0.85611,196,0.635,0.039,0.775,0.427,0.122,-0.122,2.823,-39.177,-109.314,-21.333,-5.587,-1.273,22.91,-0.55115,0.25992,0.21243,0.76382,192,0.628,0.063,0.768,0.0,-0.244,0.0,4.554,-39.117,165.921,-17.907,-8.44,-24.32,27.0,0.10437,0.33511,-0.00479,0.93631,190,0.843,0.146,0.497,0.366,0.793,-0.061,16.49,-58.354,-137.043,-27.393,-10.067,-5.52,28.54,0.38101,-0.4035,-0.29291,-0.77853,202
49,0.901,-0.016,0.481,0.183,0.061,0.183,-1.796,-61.71,-170.728,-23.527,-4.66,-12.653,25.88,0.06259,-0.51205,-0.02875,-0.85611,197,0.638,0.042,0.778,0.122,0.244,0.183,2.823,-39.172,-109.308,-21.333,-5.587,-1.273,22.91,-0.55115,0.25992,0.21243,0.76382,193,0.633,0.07,0.772,-1.282,-0.122,-0.305,4.548,-39.128,165.965,-17.907,-8.44,-24.32,27.0,0.10437,0.33511,-0.00479,0.93631,191,0.842,0.146,0.498,0.0,0.793,-0.061,16.49,-58.343,-137.016,-27.393,-10.067,-5.52,28.54,0.38101,-0.4035,-0.29291,-0.77853,203
50,0.898,-0.016,0.481,0.122,0.183,0.122,-1.796,-61.71,-170.788,-23.527,-4.66,-12.653,25.88,0.06259,-0.51205,-0.02875,-0.85611,204,0.637,0.041,0.777,-0.061,0.549,0.61,2.818,-39.166,-109.297,-21.333,-5.587,-1.273,22.91,-0.55115,0.25992,0.21243,0.76382,198,0.634,0.066,0.769,-1.587,0.427,-0.244,4.526,-39.128,165.97,-17.907,-8.44,-24.32,27.0,0.10437,0.33511,-0.00479,0.93631,200,0.839,0.147,0.497,0.0,0.732,0.061,16.485,-58.326,-137.027,-27.393,-10.067,-5.52,28.54,0.38101,-0.4035,-0.29291,-0.77853,210
51,0.898,-0.016,0.479,0.061,0.122,0.0,-1.796,-61.71,-170.859,-23.527,-4.66,-12.653,25.88,0.06259,-0.51205,-0.02875,-0.85611,205,0.635,0.039,0.778,-0.061,0.488,0.793,2.807,-39.161,-109.276,-21.333,-5.587,-1.273,22.91,-0.55115,0.25992,0.21243,0.76382,199,0.63,0.062,0.77,-1.587,-0.061,0.183,4.493,-39.122,166.003,-17.907,-8.44,-24.32,27.0,0.10437,0.33511,-0.00479,0.93631,201,0.838,0.147,0.497,-0.122,0.488,0.122,16.474,-58.321,-137.038,-27.393,-10.067,-5.52,28.54,0.38101,-0.4035,-0.29291,-0.77853,211
52,0.895,-0.016,0.479,0.061,0.122,0.0,-1.796,-61.705,-170.931,-23.527,-4.66,-12.653,25.88,0.06259,-0.51205,-0.02875,-0.85611,212,0.631,0.037,0.778,0.0,0.366,0.732,2.791,-39.155,-109.248,-21.333,-5.587,-1.273,22.91,-0.55115,0.25992,0.21243,0.76382,206,0.628,0.058,0.769,-1.038,0.0,0.244,4.466,-39.122,166.053,-17.907,-8.44,-24.32,27.0,0.10437,0.33511,-0.00479,0.93631,208,0.841,0.149,0.499,-0.305,0.305,0.183,16.463,-58.315,-137.032,-27.393,-10.067,-5.52,28.54,0.38101,-0.4035,-0.29291,-0.77853,218
53,0.896,-0.014,0.478,0.0,0.0,-0.061,-1.791,-61.71,-170.997,-23.527,-4.66,-12.653,25.88,0.06259,-0.51205,-0.02875,-0.85611,213,0.63,0.034,0.777,0.061,0.366,0.488,2.78,-39.15,-109.232,-21.333,-5.587,-1.273,22.91,-0.55115,0.25992,0.21243,0.76382,207,0.626,0.054,0.769,-0.244,-0.366,0.732,4.444,-39.128,166.091,-17.907,-8.44,-24.32,27.0,0.10437,0.33511,-0.00479,0.93631,209,0.841,0.147,0.498,-0.244,0.305,0.061,16.452,-58.31,-137.027,-27.393,-10.067,-5.52,28.54,0.38101,-0.4035,-0.29291,-0.77853,219
54,0.898,-0.013,0.48,0.0,-0.122,0.0,-1.791,-61.71,-171.068,-23.527,-4.66,-12.653,25.88,0.06259,-0.51205,-0.02875,-0.85611,220,0.631,0.035,0.777,0.0,0.427,0.061,2.78,-39.139,-109.221,-21.333,-5.587,-1.273,22.91,-0.55115,0.25992,0.21243,0.76382,216,0.63,0.055,0.768,-0.061,-0.244,0.427,4.433,-39.139,166.13,-18.28,-8.387,-23.753,27.0,0.10437,0.33511,-0.00479,0.93631,214,0.839,0.148,0.497,-0.305,0.366,-0.183,16.447,-58.304,-137.005,-27.393,-10.067,-5.52,28.54,0.38101,-0.4035,-0.29291,-0.77853,226
55,0.897,-0.012,0.48,0.0,-0.183,0.0,-1.791,-61.716,-171.134,-23.527,-4.66,-12.653,25.88,0.06259,-0.51205,-0.02875,-0.85611,221,0.632,0.035,0.778,0.0,0.244,-0.244,2.78,-39.133,-109.215,-21.333,-5.587,-1.273,22.91,-0.55115,0.25992,0.21243,0.76382,217,0.63,0.056,0.768,0.0,0.061,-0.122,4.427,-39.144,166.157,-18.28,-8.387,-23.753,27.0,0.10437,0.33511,-0.00479,0.93631,215,0.842,0.15,0.497,-0.122,0.427,-0.366,16.447,-58.293,-136.994,-27.393,-10.067,-5.52,28.54,0.38101,-0.4035,-0.29291,-0.77853,227
56,0.899,-0.01,0.48,-0.061,-0.061,-0.122,-1.785,-61.721,-171.205,-23.527,-4.66,-12.653,25.88,0.06259,-0.51205,-0.02875,-0.85611,228,0.63,0.029,0.778,0.244,0.0,-0.244,2.785,-39.133,-109.221,-21.493,-5.707,-1.613,22.91,-0.55115,0.25992,0.21243,0.76382,222,0.625,0.05,0.768,0.427,-0.305,0.0,4.427,-39.144,166.185,-18.28,-8.387,-23.753,27.0,0.10437,0.33511,-0.00479,0.93631,224,0.846,0.15,0.501,0.0,0.366,-0.305,16.458,-58.282,-136.989,-27.393,-10.067,-5.52,28.54,0.38101,-0.4035,-0.29291,-0.77853,232
57,0.9,-0.01,0.482,-0.061,0.0,-0.244,-1.78,-61.721,-171.277,-23.527,-4.66,-12.653,25.88,0.06259,-0.51205,-0.02875,-0.85611,229,0.636,0.032,0.775,0.183,0.183,-0.488,2.791,-39.128,-109.226,-21.493,-5.707,-1.613,22.91,-0.55115,0.25992,0.21243,0.76382,223,0.632,0.055,0.768,-0.366,-0.122,-0.244,4.433,-39.15,166.234,-18.28,-8.387,-23.753,27.0,0.10437,0.33511,-0.00479,0.93631,225,0.845,0.149,0.501,0.305,0.427,-0.305,16.469,-58.277,-136.994,-27.393,-10.067,-5.52,28.54,0.38101,-0.4035,-0.29291,-0.77853,233
58,0.901,-0.01,0.484,-0.061,0.061,-0.183,-1.769,-61.721,-171.354,-23.527,-4.66,-12.653,25.88,0.06259,-0.51205,-0.02875,-0.85611,236,0.64,0.039,0.777,0.183,0.061,-0.671,2.802,-39.128,-109.237,-21.493,-5.707,-1.613,22.91,-0.55115,0.25992,0.21243,0.76382,230,0.638,0.061,0.768,-0.061,1.038,-0.793,4.433,-39.15,166.223,-18.28,-8.387,-23.753,27.0,0.1001,0.33673,-0.00397,0.93622,234,0.84,0.149,0.497,0.732,0.488,-0.305,16.485,-58.266,-137.0,-27.393,-10.067,-5.52,28.54,0.38101,-0.4035,-0.29291,-0.77853,244
59,0.901,-0.011,0.482,0.183,0.244,0.0,-1.763,-61.721,-171.42,-23.527,-4.66,-12.653,25.88,0.06259,-0.51205,-0.02875,-0.85611,237,0.635,0.042,0.78,0.488,0.0,-0.549,2.818,-39.128,-109.248,-21.493,-5.707,-1.613,22.91,-0.55115,0.25992,0.21243,0.76382,231,0.628,0.067,0.771,1.038,0.793,0.671,4.438,-39.128,166.185,-18.28,-8.387,-23.753,27.0,0.1001,0.33673,-0.00397,0.93622,235,0.837,0.15,0.499,0.671,0.427,-0.244,16.507,-58.255,-136.994,-27.393,-10.067,-5.52,28.54,0.38101,-0.4035,-0.29291,-0.77853,245
60,0.9,-0.011,0.481,0.305,0.305,0.061,-1.752,-61.716,-171.486,-23.987,-4.867,-11.853,25.88,0.06259,-0.51205,-0.02875,-0.85611,246,0.633,0.045,0.786,0.366,0.427,-0.122,2.829,-39.122,-109.254,-21.493,-5.707,-1.613,22.91,-0.55203,0.25955,0.21265,0.76328,240,0.627,0.07,0.778,0.854,0.305,0.916,4.444,-39.117,166.201,-18.28,-8.387,-23.753,27.0,0.1001,0.33673,-0.00397,0.93622,238,0.838,0.151,0.5,0.305,0.244,-0.183,16.518,-58.25,-136.989,-27.093,-9.727,-5.113,28.54,0.38101,-0.4035,-0.29291,-0.77853,250
61,0.897,-0.013,0.48,0.244,0.244,0.061,-1.747,-61.716,-171.546,-23.987,-4.867,-11.853,25.88,0.06259,-0.51205,-0.02875,-0.85611,247,0.631,0.044,0.782,0.0,1.038,0.122,2.829,-39.106,-109.248,-21.493,-5.707,-1.613,22.91,-0.55203,0.25955,0.21265,0.76328,241,0.63,0.067,0.775,0.183,1.77,1.221,4.438,-39.1,166.267,-18.28,-8.387,-23.753,27.0,0.1001,0.33673,-0.00397,0.93622,239,0.837,0.151,0.497,-0.183,0.0,0.0,16.523,-58.244,-136.978,-27.093,-9.727,-5.113,28.54,0.38101,-0.4035,-0.29291,-0.77853,251
62,0.897,-0.013,0.479,0.0,0.061,0.0,-1.741,-61.71,-171.606,-23.987,-4.867,-11.853,25.88,0.0549,-0.51239,-0.02441,-0.8566,252,0.626,0.044,0.781,-0.305,0.854,0.183,2.823,-39.084,-109.237,-21.493,-5.707,-1.613,22.91,-0.55203,0.25955,0.21265,0.76328,248,0.621,0.065,0.773,0.183,0.671,1.526,4.422,-39.078,166.339,-18.28,-8.387,-23.753,27.0,0.1001,0.33673,-0.00397,0.93622,242,0.835,0.151,0.496,-0.366,-0.061,0.0,16.523,-58.244,-136.972,-27.093,-9.727,-5.113,28.54,0.38101,-0.4035,-0.29291,-0.77853,258
63,0.896,-0.011,0.478,0.0,-0.061,0.0,-1.736,-61.716,-171.667,-23.987,-4.867,-11.853,25.88,0.0549,-0.51239,-0.02441,-0.8566,253,0.626,0.044,0.781,-0.366,0.366,0.122,2.812,-39.078,-109.232,-21.493,-5.707,-1.613,22.91,-0.55203,0.25955,0.21265,0.76328,249,0.623,0.063,0.776,0.0,-0.244,0.854,4.406,-39.078,166.41,-18.28,-8.387,-23.753,27.0,0.1001,0.33673,-0.00397,0.93622,243,0.835,0.15,0.496,-0.366,-0.244,0.122,16.518,-58.25,-136.989,-27.093,-9.727,-5.113,28.54,0.38101,-0.4035,-0.29291,-0.77853,259
64,0.894,-0.011,0.477,-0.061,-0.122,0.061,-1.736,-61.716,-171.727,-23.987,-4.867,-11.853,25.88,0.0549,-0.51239,-0.02441,-0.8566,260,0.627,0.04,0.78,-0.427,0.183,0.0,2.807,-39.067,-109.226,-21.493,-5.707,-1.613,22.91,-0.55203,0.25955,0.21265,0.76328,256,0.625,0.06,0.772,-0.061,0.0,0.122,4.4,-39.078,166.443,-18.28,-8.387,-23.753,27.0,0.1001,0.33673,-0.00397,0.93622,254,0.837,0.147,0.5,-0.183,-0.244,0.0,16.518,-58.255,-137.016,-27.093,-9.727,-5.113,28.54,0.38193,-0.40213,-0.2933,-0.77866,272
65,0.894,-0.013,0.48,-0.183,-0.183,0.0,-1.736,-61.721,-171.782,-23.987,-4.867,-11.853,25.88,0.0549,-0.51239,-0.02441,-0.8566,261,0.626,0.036,0.779,-0.305,0.0,-0.244,2.807,-39.067,-109.226,-21.493,-5.707,-1.613,22.91,-0.55203,0.25955,0.21265,0.76328,257,0.623,0.055,0.769,-0.488,-0.549,-0.61,4.4,-39.084,166.459,-18.28,-8.387,-23.753,27.0,0.1001,0.33673,-0.00397,0.93622,255,0.841,0.146,0.501,0.0,-0.061,-0.122,16.518,-58.255,-137.016,-27.093,-9.727,-5.113,28.54,0.38193,-0.40213,-0.2933,-0.77866,273
66,0.896,-0.012,0.482,-0.183,-0.305,0.0,-1.736,-61.732,-171.843,-23.987,-4.867,-11.853,25.88,0.0549,-0.51239,-0.02441,-0.8566,266,0.626,0.034,0.777,0.061,-0.183,-0.427,2.812,-39.067,-109.237,-21.493,-5.707,-1.613,22.91,-0.55203,0.25955,0.21265,0.76328,262,0.624,0.054,0.767,-0.061,-0.61,-0.977,4.411,-39.095,166.454,-18.28,-8.387,-23.753,27.0,0.1001,0.33673,-0.00397,0.93622,264,0.843,0.147,0.501,0.244,0.122,-0.183,16.529,-58.255,-137.01,-27.093,-9.727,-5.113,28.54,0.38193,-0.40213,-0.2933,-0.77866,276
67,0.899,-0.013,0.483,-0.122,-0.366,-0.061,-1.736,-61.738,-171.903,-23.987,-4.867,-11.853,25.88,0.0549,-0.51239,-0.02441,-0.8566,267,0.63,0.033,0.776,0.488,-0.549,-0.366,2.829,-39.073,-109.243,-21.493,-5.707,-1.613,22.91,-0.55203,0.25955,0.21265,0.76328,263,0.626,0.056,0.769,0.061,-0.793,-1.099,4.427,-39.106,166.454,-18.28,-8.387,-23.753,27.0,0.1001,0.33673,-0.00397,0.93622,265,0.843,0.148,0.5,0.427,0.183,-0.183,16.54,-58.25,-137.005,-27.093,-9.727,-5.113,28.54,0.38193,-0.40213,-0.2933,-0.77866,277
68,0.901,-0.013,0.485,0.0,-0.183,0.0,-1.736,-61.743,-171.958,-23.987,-4.867,-11.853,25.88,0.0549,-0.51239,-0.02441,-0.8566,274,0.637,0.038,0.779,0.305,-0.488,-0.305,2.84,-39.084,-109.248,-21.493,-5.707,-1.613,22.91,-0.55203,0.25955,0.21265,0.76328,268,0.632,0.062,0.773,-0.549,-0.122,-1.038,4.438,-39.111,166.454,-18.28,-8.387,-23.753,27.0,0.1001,0.33673,-0.00397,0.93622,270,0.841,0.149,0.5,0.671,0.183,-0.122,16.551,-58.244,-136.989,-27.093,-9.727,-5.113,28.54,0.38193,-0.40213,-0.2933,-0.77866,282
69,0.901,-0.014,0.482,0.061,0.061,0.0,-1.73,-61.743,-172.018,-23.987,-4.867,-11.853,25.88,0.0549,-0.51239,-0.02441,-0.8566,275,0.634,0.042,0.778,0.305,-0.183,0.061,2.845,-39.084,-109.248,-21.493,-5.707,-1.613,22.91,-0.55203,0.25955,0.21265,0.76328,269,0.631,0.068,0.77,-0.671,0.183,-0.732,4.444,-39.106,166.454,-18.28,-8.387,-23.753,27.0,0.1001,0.33673,-0.00397,0.93622,271,0.84,0.152,0.501,0.305,0.244,-0.061,16.562,-58.239,-136.967,-27.093,-9.727,-5.113,28.54,0.38193,-0.40213,-0.2933,-0.77866,283
70,0.899,-0.014,0.483,0.183,0.122,0.0,-1.725,-61.743,-172.073,-23.987,-4.867,-11.853,25.88,0.0549,-0.51239,-0.02441,-0.8566,286,0.633,0.04,0.782,0.183,0.244,0.427,2.845,-39.084,-109.237,-21.493,-5.707,-1.613,22.91,-0.55203,0.25955,0.21265,0.76328,278,0.63,0.062,0.772,-0.916,0.671,-0.244,4.433,-39.095,166.448,-18.28,-8.387,-23.753,27.0,0.1001,0.33673,-0.00397,0.93622,280,0.836,0.151,0.499,-0.183,0.122,0.122,16.562,-58.233,-136.939,-27.093,-9.727,-5.113,28.54,0.38193,-0.40213,-0.2933,-0.77866,290
71,0.898,-0.013,0.481,0.122,0.061,0.0,-1.719,-61.743,-172.128,-23.987,-4.867,-11.853,25.88,0.0549,-0.51239,-0.02441,-0.8566,287,0.632,0.042,0.779,0.0,0.305,0.366,2.84,-39.073,-109.221,-21.493,-5.707,-1.613,22.91,-0.55203,0.25955,0.21265,0.76328,279,0.628,0.064,0.771,-0.61,0.366,0.061,4.422,-39.084,166.47,-18.28,-8.387,-23.753,27.0,0.1001,0.33673,-0.00397,0.93622,281,0.834,0.149,0.497,-0.244,0.0,0.244,16.551,-58.233,-136.912,-27.093,-9.727,-5.113,28.54,0.38193,-0.40213,-0.2933,-0.77866,291
72,0.896,-0.012,0.479,0.061,0.061,0.0,-1.714,-61.743,-172.183,-23.987,-4.867,-11.853,25.88,0.0549,-0.51239,-0.02441,-0.8566,292,0.63,0.046,0.783,0.0,0.183,0.305,2.834,-39.067,-109.21,-21.493,-5.707,-1.613,22.91,-0.55203,0.25955,0.21265,0.76328,288,0.626,0.068,0.774,0.305,-0.122,0.549,4.417,-39.084,166.481,-17.447,-8.607,-23.24,27.0,0.1001,0.33673,-0.00397,0.93622,284,0.837,0.151,0.499,-0.427,-0.183,0.244,16.54,-58.239,-136.884,-27.093,-9.727,-5.113,28.54,0.38193,-0.40213,-0.2933,-0.77866,298
73,0.895,-0.013,0.478,0.0,-0.061,0.0,-1.714,-61.743,-172.238,-23.987,-4.867,-11.853,25.88,0.0549,-0.51239,-0.02441,-0.8566,293,0.626,0.041,0.782,-0.061,0.183,0.244,2.834,-39.067,-109.199,-21.493,-5.707,-1.613,22.91,-0.55203,0.25955,0.21265,0.76328,289,0.623,0.061,0.773,0.671,0.183,0.793,4.417,-39.084,166.487,-17.447,-8.607,-23.24,27.0,0.1001,0.33673,-0.00397,0.93622,285,0.837,0.151,0.497,-0.427,-0.305,0.244,16.529,-58.244,-136.851,-27.093,-9.727,-5.113,28.54,0.38193,-0.40213,-0.2933,-0.77866,299
74,0.896,-0.011,0.478,-0.061,-0.427,0.0,-1.714,-61.749,-172.293,-23.987,-4.867,-11.853,25.88,0.0549,-0.51239,-0.02441,-0.8566,300,0.63,0.041,0.779,-0.488,0.0,0.0,2.823,-39.062,-109.199,-22.007,-5.367,-1.193,22.91,-0.55203,0.25955,0.21265,0.76328,296,0.627,0.062,0.773,-0.244,-0.61,0.427,4.417,-39.089,166.514,-17.447,-8.607,-23.24,27.0,0.1001,0.33673,-0.00397,0.93622,294,0.838,0.151,0.497,-0.427,-0.366,0.244,16.518,-58.25,-136.824,-27.093,-9.727,-5.113,28.54,0.38193,-0.40213,-0.2933,-0.77866,310
75,0.896,-0.01,0.479,-0.122,-0.488,0.0,-1.714,-61.76,-172.348,-23.987,-4.867,-11.853,25.88,0.0549,-0.51239,-0.02441,-0.8566,301,0.629,0.039,0.776,-0.305,-0.244,0.061,2.818,-39.062,-109.193,-22.007,-5.367,-1.193,22.91,-0.55203,0.25955,0.21265,0.76328,297,0.627,0.06,0.767,0.0,0.0,0.061,4.411,-39.095,166.558,-17.447,-8.607,-23.24,27.0,0.1001,0.33673,-0.00397,0.93622,295,0.841,0.15,0.498,-0.305,-0.244,0.061,16.512,-58.255,-136.802,-27.093,-9.727,-5.113,28.54,0.38193,-0.40213,-0.2933,-0.77866,311
76,0.897,-0.009,0.48,-0.183,-0.488,0.0,-1.714,-61.771,-172.397,-24.34,-4.667,-12.427,25.88,0.0549,-0.51239,-0.02441,-0.8566,306,0.628,0.034,0.774,0.122,-0.244,0.0,2.823,-39.067,-109.188,-22.007,-5.367,-1.193,22.91,-0.55203,0.25955,0.21265,0.76328,302,0.625,0.054,0.764,0.854,-0.732,0.305,4.417,-39.1,166.635,-17.447,-8.607,-23.24,27.0,0.09756,0.33627,-0.00314,0.93665,304,0.844,0.149,0.498,0.0,-0.061,0.0,16.512,-58.255,-136.791,-27.453,-9.78,-5.567,28.54,0.38193,-0.40213,-0.2933,-0.77866,314
77,0.901,-0.01,0.48,-0.183,-0.427,0.0,-1.714,-61.782,-172.447,-24.34,-4.667,-12.427,25.88,0.0549,-0.51239,-0.02441,-0.8566,307,0.632,0.035,0.775,0.427,-0.305,-0.122,2.834,-39.073,-109.188,-22.007,-5.367,-1.193,22.91,-0.55203,0.25955,0.21265,0.76328,303,0.627,0.056,0.767,0.916,-0.549,0.061,4.433,-39.111,166.69,-17.447,-8.607,-23.24,27.0,0.09756,0.33627,-0.00314,0.93665,305,0.845,0.149,0.499,0.305,0.0,0.0,16.523,-58.255,-136.78,-27.453,-9.78,-5.567,28.54,0.38193,-0.40213,-0.2933,-0.77866,315
78,0.903,-0.011,0.481,0.0,-0.305,0.0,-1.708,-61.787,-172.502,-24.34,-4.667,-12.427,25.88,0.04843,-0.51312,-0.02075,-0.85663,316,0.637,0.037,0.779,0.366,-0.427,-0.305,2.845,-39.078,-109.193,-22.007,-5.367,-1.193,22.91,-0.55252,0.25897,0.21262,0.76312,312,0.633,0.061,0.771,0.488,-0.549,-0.122,4.449,-39.122,166.718,-17.447,-8.607,-23.24,27.0,0.09756,0.33627,-0.00314,0.93665,308,0.845,0.149,0.498,0.427,0.0,0.0,16.534,-58.255,-136.78,-27.453,-9.78,-5.567,28.54,0.38193,-0.40213,-0.2933,-0.77866,324
79,0.904,-0.013,0.481,0.061,-0.183,0.0,-1.703,-61.793,-172.551,-24.34,-4.667,-12.427,25.88,0.04843,-0.51312,-0.02075,-0.85663,317,0.637,0.042,0.779,0.244,-0.305,-0.122,2.851,-39.084,-109.199,-22.007,-5.367,-1.193,22.91,-0.55252,0.25897,0.21262,0.76312,313,0.633,0.066,0.771,0.0,0.183,-0.244,4.46,-39.128,166.729,-17.447,-8.607,-23.24,27.0,0.09756,0.33627,-0.00314,0.93665,309,0.842,0.15,0.498,0.244,0.0,0.0,16.54,-58.255,-136.796,-27.453,-9.78,-5.567,28.54,0.38193,-0.40213,-0.2933,-0.77866,325
80,0.902,-0.014,0.48,0.061,-0.061,0.0,-1.703,-61.798,-172.601,-24.34,-4.667,-12.427,25.88,0.04843,-0.51312,-0.02075,-0.85663,326,0.637,0.042,0.781,0.366,-0.183,0.122,2.856,-39.089,-109.193,-22.007,-5.367,-1.193,22.91,-0.55252,0.25897,0.21262,0.76312,318,0.633,0.065,0.771,0.061,0.122,-0.122,4.46,-39.122,166.723,-17.447,-8.607,-23.24,27.0,0.09756,0.33627,-0.00314,0.93665,320,0.84,0.149,0.499,0.061,0.0,0.122,16.54,-58.255,-136.796,-27.453,-9.78,-5.567,28.54,0.3833,-0.40158,-0.29416,-0.77792,330
81,0.899,-0.014,0.479,0.0,0.0,0.0,-1.697,-61.798,-172.65,-24.34,-4.667,-12.427,25.88,0.04843,-0.51312,-0.02075,-0.85663,327,0.636,0.041,0.781,0.244,-0.061,0.305,2.862,-39.089,-109.182,-22.007,-5.367,-1.193,22.91,-0.55252,0.25897,0.21262,0.76312,319,0.632,0.064,0.772,-0.061,0.0,0.183,4.466,-39.122,166.707,-17.447,-8.607,-23.24,27.0,0.09756,0.33627,-0.00314,0.93665,321,0.838,0.148,0.498,0.0,0.0,0.305,16.534,-58.255,-136.78,-27.453,-9.78,-5.567,28.54,0.3833,-0.40158,-0.29416,-0.77792,331
82,0.898,-0.014,0.479,0.0,0.0,0.0,-1.692,-61.798,-172.7,-24.34,-4.667,-12.427,25.88,0.04843,-0.51312,-0.02075,-0.85663,332,0.634,0.043,0.779,0.0,0.0,0.305,2.856,-39.089,-109.171,-22.007,-5.367,-1.193,22.91,-0.55252,0.25897,0.21262,0.76312,328,0.63,0.065,0.77,-0.244,0.061,0.305,4.46,-39.122,166.696,-17.447,-8.607,-23.24,27.0,0.09756,0.33627,-0.00314,0.93665,322,0.838,0.148,0.497,0.061,0.0,0.366,16.529,-58.255,-136.752,-27.453,-9.78,-5.567,28.54,0.3833,-0.40158,-0.29416,-0.77792,338
83,0.897,-0.014,0.477,0.061,0.0,0.305,-1.703,-61.798,-172.738,-24.34,-4.667,-12.427,25.88,0.04843,-0.51312,-0.02075,-0.85663,333,0.631,0.041,0.778,-0.061,0.183,0.244,2.856,-39.089,-109.166,-22.007,-5.367,-1.193,22.91,-0.55252,0.25897,0.21262,0.76312,329,0.625,0.062,0.77,-0.244,-0.305,0.305,4.449,-39.128,166.663,-17.447,-8.607,-23.24,27.0,0.09756,0.33627,-0.00314,0.93665,323,0.837,0.149,0.497,0.0,-0.061,0.366,16.518,-58.26,-136.73,-27.453,-9.78,-5.567,28.54,0.3833,-0.40158,-0.29416,-0.77792,339
84,0.896,-0.013,0.478,0.122,-0.061,0.305,-1.708,-61.804,-172.771,-24.34,-4.667,-12.427,25.88,0.04843,-0.51312,-0.02075,-0.85663,340,0.631,0.041,0.778,-0.549,0.061,0.183,2.845,-39.084,-109.155,-22.007,-5.367,-1.193,22.91,-0.55252,0.25897,0.21262,0.76312,334,0.63,0.063,0.771,-1.343,0.0,-0.122,4.438,-39.128,166.663,-17.447,-8.607,-23.24,27.0,0.09756,0.33627,-0.00314,0.93665,336,0.838,0.149,0.497,-0.244,0.0,0.305,16.507,-58.26,-136.708,-27.453,-9.78,-5.567,28.54,0.3833,-0.40158,-0.29416,-0.77792,346
85,0.896,-0.012,0.478,0.0,-0.183,0.244,-1.714,-61.809,-172.809,-24.34,-4.667,-12.427,25.88,0.04843,-0.51312,-0.02075,-0.85663,341,0.631,0.038,0.774,-0.549,0.061,0.183,2.834,-39.084,-109.149,-22.007,-5.367,-1.193,22.91,-0.55252,0.25897,0.21262,0.76312,335,0.629,0.056,0.765,-0.732,0.549,-0.061,4.422,-39.122,166.679,-17.447,-8.607,-23.24,27.0,0.09756,0.33627,-0.00314,0.93665,337,0.839,0.149,0.495,-0.488,0.0,0.061,16.501,-58.26,-136.697,-27.453,-9.78,-5.567,28.54,0.3833,-0.40158,-0.29416,-0.77792,347
86,0.897,-0.01,0.479,-0.122,-0.244,0.061,-1.719,-61.815,-172.848,-24.34,-4.667,-12.427,25.88,0.04843,-0.51312,-0.02075,-0.85663,348,0.629,0.032,0.774,-0.122,0.061,0.122,2.829,-39.084,-109.144,-22.007,-5.367,-1.193,22.91,-0.55252,0.25897,0.21262,0.76312,342,0.625,0.051,0.761,0.488,-0.549,0.366,4.417,-39.128,166.668,-17.447,-8.607,-23.24,27.0,0.09756,0.33627,-0.00314,0.93665,344,0.842,0.148,0.499,-0.549,-0.183,0.0,16.49,-58.266,-136.686,-27.453,-9.78,-5.567,28.54,0.3833,-0.40158,-0.29416,-0.77792,352
87,0.9,-0.011,0.479,-0.244,-0.244,0.0,-1.719,-61.82,-172.892,-24.34,-4.667,-12.427,25.88,0.04843,-0.51312,-0.02075,-0.85663,349,0.632,0.033,0.775,0.183,0.0,-0.061,2.829,-39.084,-109.144,-22.007,-5.367,-1.193,22.91,-0.55252,0.25897,0.21262,0.76312,343,0.629,0.053,0.767,0.977,-0.916,0.427,4.427,-39.144,166.657,-17.447,-8.607,-23.24,27.0,0.09756,0.33627,-0.00314,0.93665,345,0.845,0.146,0.498,-0.305,-0.061,0.0,16.485,-58.266,-136.681,-27.453,-9.78,-5.567,28.54,0.3833,-0.40158,-0.29416,-0.77792,353
88,0.901,-0.012,0.48,-0.244,-0.183,0.0,-1.725,-61.826,-172.941,-24.34,-4.667,-12.427,25.88,0.04843,-0.51312,-0.02075,-0.85663,356,0.634,0.035,0.779,0.244,-0.183,-0.366,2.84,-39.084,-109.149,-22.007,-5.367,-1.193,22.91,-0.55252,0.25897,0.21262,0.76312,350,0.63,0.058,0.769,0.916,-0.061,0.0,4.444,-39.155,166.624,-17.447,-8.607,-23.24,27.0,0.09756,0.33627,-0.00314,0.93665,354,0.843,0.147,0.5,0.122,0.061,-0.061,16.49,-58.266,-136.675,-27.453,-9.78,-5.567,28.54,0.3833,-0.40158,-0.29416,-0.77792,362
89,0.902,-0.014,0.481,-0.183,0.0,0.0,-1.725,-61.826,-172.985,-24.34,-4.667,-12.427,25.88,0.04843,-0.51312,-0.02075,-0.85663,357,0.634,0.039,0.779,0.244,-0.183,-0.427,2.851,-39.089,-109.155,-22.007,-5.367,-1.193,22.91,-0.55252,0.25897,0.21262,0.76312,351,0.63,0.062,0.771,0.366,-0.183,-0.122,4.455,-39.155,166.613,-17.447,-8.607,-23.24,27.0,0.09756,0.33627,-0.00314,0.93665,355,0.841,0.147,0.499,0.427,0.244,0.0,16.501,-58.26,-136.659,-27.453,-9.78,-5.567,28.54,0.3833,-0.40158,-0.29416,-0.77792,363
90,0.9,-0.015,0.481,0.0,0.061,0.061,-1.725,-61.826,-173.029,-24.193,-5.06,-11.173,25.88,0.04843,-0.51312,-0.02075,-0.85663,364,0.634,0.041,0.779,0.183,-0.122,-0.122,2.851,-39.089,-109.155,-22.007,-5.367,-1.193,22.91,-0.55252,0.25897,0.21262,0.76312,358,0.632,0.066,0.771,-0.122,0.183,-0.244,4.46,-39.155,166.586,-17.9,-8.367,-24.333,27.0,0.09756,0.33627,-0.00314,0.93665,360,0.841,0.149,0.501,0.366,0.183,0.061,16.507,-58.26,-136.648,-27.453,-9.78,-5.567,28.54,0.3833,-0.40158,-0.29416,-0.77792,370
91,0.9,-0.015,0.48,0.122,0.122,0.122,-1.725,-61.826,-173.068,-24.193,-5.06,-11.173,25.88,0.04843,-0.51312,-0.02075,-0.85663,365,0.635,0.041,0.78,0.305,0.122,0.244,2.856,-39.089,-109.149,-22.007,-5.367,-1.193,22.91,-0.55252,0.25897,0.21262,0.76312,359,0.631,0.064,0.77,0.183,0.366,0.0,4.46,-39.15,166.536,-17.9,-8.367,-24.333,27.0,0.09756,0.33627,-0.00314,0.93665,361,0.839,0.148,0.5,0.305,0.122,0.122,16.507,-58.255,-136.631,-27.453,-9.78,-5.567,28.54,0.3833,-0.40158,-0.29416,-0.77792,371
92,0.898,-0.014,0.48,0.183,0.061,0.183,-1.725,-61.826,-173.101,-24.193,-5.06,-11.173,25.88,0.04843,-0.51312,-0.02075,-0.85663,368,0.636,0.042,0.781,0.244,0.366,0.366,2.856,-39.084,-109.138,-21.707,-5.687,-1.46,22.91,-0.55252,0.25897,0.21262,0.76312,374,0.633,0.063,0.773,-0.427,0.244,0.183,4.46,-39.144,166.503,-17.9,-8.367,-24.333,27.0,0.09756,0.33627,-0.00314,0.93665,366,0.835,0.148,0.497,0.0,0.122,0.0,16.507,-58.255,-136.62,-27.453,-9.78,-5.567,28.54,0.3833,-0.40158,-0.29416,-0.77792,382
93,0.897,-0.013,0.478,0.061,0.0,0.122,-1.725,-61.826,-173.139,-24.193,-5.06,-11.173,25.88,0.04843,-0.51312,-0.02075,-0.85663,369,0.629,0.04,0.782,0.122,0.305,0.427,2.851,-39.078,-109.122,-21.707,-5.687,-1.46,22.91,-0.55252,0.25897,0.21262,0.76312,375,0.625,0.061,0.771,0.183,0.854,0.122,4.455,-39.139,166.531,-17.9,-8.367,-24.333,27.0,0.09756,0.33627,-0.00314,0.93665,367,0.837,0.148,0.497,-0.305,0.122,0.0,16.501,-58.25,-136.615,-27.453,-9.78,-5.567,28.54,0.3833,-0.40158,-0.29416,-0.77792,383
94,0.898,-0.012,0.477,0.0,0.0,0.0,-1.725,-61.826,-173.183,-24.193,-5.06,-11.173,25.88,0.0437,-0.51352,-0.01788,-0.85672,376,0.625,0.035,0.777,0.061,0.366,0.244,2.845,-39.067,-109.116,-21.707,-5.687,-1.46,22.91,-0.55307,0.25873,0.21289,0.76273,378,0.622,0.054,0.769,0.122,-0.244,0.671,4.449,-39.133,166.569,-17.9,-8.367,-24.333,27.0,0.09729,0.33661,-0.00278,0.93655,372,0.841,0.148,0.497,-0.244,0.0,0.122,16.49,-58.25,-136.599,-27.253,-9.873,-5.28,28.54,0.3833,-0.40158,-0.29416,-0.77792,386
95,0.898,-0.013,0.476,-0.061,0.0,0.0,-1.725,-61.831,-173.221,-24.193,-5.06,-11.173,25.88,0.0437,-0.51352,-0.01788,-0.85672,377,0.631,0.041,0.777,-0.427,0.244,-0.061,2.84,-39.062,-109.111,-21.707,-5.687,-1.46,22.91,-0.55307,0.25873,0.21289,0.76273,379,0.632,0.062,0.771,-0.916,-0.122,-0.244,4.438,-39.139,166.591,-17.9,-8.367,-24.333,27.0,0.09729,0.33661,-0.00278,0.93655,373,0.841,0.15,0.497,-0.244,-0.061,0.183,16.485,-58.255,-136.588,-27.253,-9.873,-5.28,28.54,0.3833,-0.40158,-0.29416,-0.77792,387
96,0.9,-0.012,0.478,-0.061,-0.061,0.0,-1.725,-61.831,-173.265,-24.193,-5.06,-11.173,25.88,0.0437,-0.51352,-0.01788,-0.85672,388,0.634,0.042,0.778,-0.61,0.061,-0.244,2.834,-39.062,-109.116,-21.707,-5.687,-1.46,22.91,-0.55307,0.25873,0.21289,0.76273,384,0.632,0.062,0.768,-0.488,0.732,-0.366,4.433,-39.128,166.591,-17.9,-8.367,-24.333,27.0,0.09729,0.33661,-0.00278,0.93655,380,0.839,0.15,0.498,-0.183,-0.122,0.061,16.485,-58.255,-136.577,-27.253,-9.873,-5.28,28.54,0.3833,-0.40158,-0.29416,-0.77792,394
97,0.9,-0.01,0.477,0.0,-0.122,0.061,-1.725,-61.837,-173.304,-24.193,-5.06,-11.173,25.88,0.0437,-0.51352,-0.01788,-0.85672,389,0.632,0.04,0.777,-0.305,-0.122,-0.061,2.829,-39.062,-109.116,-21.707,-5.687,-1.46,22.91,-0.55307,0.25873,0.21289,0.76273,385,0.628,0.061,0.767,0.366,-0.366,-0.122,4.438,-39.128,166.597,-17.9,-8.367,-24.333,27.0,0.09729,0.33661,-0.00278,0.93655,381,0.841,0.149,0.5,-0.122,-0.122,-0.061,16.485,-58.26,-136.571,-27.253,-9.873,-5.28,28.54,0.3833,-0.40158,-0.29416,-0.77792,395
98,0.899,-0.01,0.479,-0.061,-0.183,0.0,-1.725,-61.842,-173.342,-24.193,-5.06,-11.173,25.88,0.0437,-0.51352,-0.01788,-0.85672,396,0.63,0.032,0.778,0.305,0.0,0.122,2.834,-39.062,-109.111,-21.707,-5.687,-1.46,22.91,-0.55307,0.25873,0.21289,0.76273,392,0.628,0.052,0.767,1.709,-0.061,0.549,4.455,-39.133,166.597,-17.9,-8.367,-24.333,27.0,0.09729,0.33661,-0.00278,0.93655,390,0.844,0.148,0.5,-0.122,-0.183,-0.244,16.496,-58.26,-136.577,-27.253,-9.873,-5.28,28.54,0.38464,-0.40121,-0.29459,-0.77728,402
99,0.901,-0.012,0.48,-0.244,-0.305,-0.061,-1.725,-61.848,-173.381,-24.193,-5.06,-11.173,25.88,0.0437,-0.51352,-0.01788,-0.85672,397,0.631,0.032,0.779,0.488,0.061,-0.122,2.845,-39.062,-109.111,-21.707,-5.687,-1.46,22.91,-0.55307,0.25873,0.21289,0.76273,393,0.627,0.053,0.771,1.221,-0.61,0.549,4.477,-39.139,166.635,-17.9,-8.367,-24.333,27.0,0.09729,0.33661,-0.00278,0.93655,391,0.843,0.147,0.498,-0.061,-0.183,-0.244,16.501,-58.26,-136.577,-27.253,-9.873,-5.28,28.54,0.38464,-0.40121,-0.29459,-0.77728,403
100,0.901,-0.013,0.479,-0.244,-0.244,-0.061,-1.725,-61.853,-173.425,-24.193,-5.06,-11.173,25.88,0.0437,-0.51352,-0.01788,-0.85672,404,0.632,0.038,0.782,0.366,-0.183,-0.366,2.856,-39.062,-109.122,-21.707,-5.687,-1.46,22.91,-0.55307,0.25873,0.21289,0.76273,398,0.629,0.062,0.774,0.671,-0.305,-0.183,4.488,-39.15,166.701,-17.9,-8.367,-24.333,27.0,0.09729,0.33661,-0.00278,0.93655,400,0.84,0.147,0.499,0.366,0.0,-0.183,16.518,-58.26,-136.577,-27.253,-9.873,-5.28,28.54,0.38464,-0.40121,-0.29459,-0.77728,410
101,0.901,-0.013,0.479,-0.061,0.0,0.0,-1.719,-61.853,-173.463,-24.193,-5.06,-11.173,25.88,0.0437,-0.51352,-0.01788,-0.85672,405,0.634,0.041,0.782,0.305,-0.244,-0.305,2.867,-39.067,-109.127,-21.707,-5.687,-1.46,22.91,-0.55307,0.25873,0.21289,0.76273,399,0.629,0.065,0.774,0.183,-0.061,-0.488,4.504,-39.155,166.734,-17.9,-8.367,-24.333,27.0,0.09729,0.33661,-0.00278,0.93655,401,0.838,0.147,0.499,0.488,0.0,-0.122,16.529,-58.26,-136.571,-27.253,-9.873,-5.28,28.54,0.38464,-0.40121,-0.29459,-0.77728,411
102,0.898,-0.015,0.479,0.0,0.061,0.122,-1.725,-61.853,-173.496,-24.193,-5.06,-11.173,25.88,0.0437,-0.51352,-0.01788,-0.85672,412,0.633,0.043,0.782,0.0,-0.061,-0.122,2.867,-39.067,-109.127,-21.707,-5.687,-1.46,22.91,-0.55307,0.25873,0.21289,0.76273,408,0.63,0.068,0.774,-0.793,0.061,-0.549,4.504,-39.155,166.745,-17.9,-8.367,-24.333,27.0,0.09729,0.33661,-0.00278,0.93655,406,0.837,0.147,0.498,0.61,0.0,-0.061,16.545,-58.26,-136.566,-27.253,-9.873,-5.28,28.54,0.38464,-0.40121,-0.29459,-0.77728,418
103,0.896,-0.016,0.478,0.061,0.061,0.061,-1.725,-61.853,-173.535,-24.193,-5.06,-11.173,25.88,0.0437,-0.51352,-0.01788,-0.85672,413,0.631,0.044,0.781,-0.244,0.122,0.183,2.862,-39.062,-109.122,-21.707,-5.687,-1.46,22.91,-0.55307,0.25873,0.21289,0.76273,409,0.627,0.067,0.77,-1.038,0.427,-0.305,4.493,-39.144,166.75,-17.9,-8.367,-24.333,27.0,0.09729,0.33661,-0.00278,0.93655,407,0.838,0.147,0.499,0.305,-0.061,0.061,16.551,-58.26,-136.56,-27.253,-9.873,-5.28,28.54,0.38464,-0.40121,-0.29459,-0.77728,419
104,0.896,-0.015,0.479,0.061,-0.061,0.061,-1.725,-61.859,-173.568,-24.193,-5.06,-11.173,25.88,0.0437,-0.51352,-0.01788,-0.85672,420,0.628,0.042,0.777,-0.183,0.305,0.427,2.851,-39.056,-109.105,-21.707,-5.687,-1.46,22.91,-0.55307,0.25873,0.21289,0.76273,414,0.626,0.063,0.769,-1.16,0.183,-0.183,4.477,-39.139,166.729,-17.9,-8.367,-24.333,27.0,0.09729,0.33661,-0.00278,0.93655,416,0.839,0.147,0.499,0.061,-0.122,0.061,16.551,-58.26,-136.549,-27.253,-9.873,-5.28,28.54,0.38464,-0.40121,-0.29459,-0.77728,424
105,0.899,-0.015,0.478,0.061,-0.183,0.0,-1.719,-61.864,-173.606,-24.193,-5.06,-11.173,25.88,0.0437,-0.51352,-0.01788,-0.85672,421,0.629,0.04,0.777,-0.305,0.122,0.366,2.84,-39.056,-109.094,-21.707,-5.687,-1.46,22.91,-0.55307,0.25873,0.21289,0.76273,415,0.627,0.062,0.771,-1.343,0.122,-0.061,4.455,-39.139,166.729,-17.9,-8.367,-24.333,27.0,0.09729,0.33661,-0.00278,0.93655,417,0.839,0.15,0.498,0.0,-0.122,0.244,16.545,-58.266,-136.533,-27.253,-9.873,-5.28,28.54,0.38464,-0.40121,-0.29459,-0.77728,425
106,0.899,-0.015,0.477,0.061,-0.183,0.061,-1.725,-61.87,-173.639,-23.913,-4.707,-11.547,25.88,0.0437,-0.51352,-0.01788,-0.85672,428,0.63,0.042,0.779,-0.61,-0.061,0.305,2.823,-39.056,-109.089,-21.707,-5.687,-1.46,22.91,-0.55307,0.25873,0.21289,0.76273,422,0.627,0.064,0.771,-1.282,0.061,0.0,4.433,-39.133,166.8,-17.9,-8.367,-24.333,27.0,0.09729,0.33661,-0.00278,0.93655,426,0.841,0.151,0.5,0.0,-0.061,0.305,16.534,-58.271,-136.516,-27.253,-9.873,-5.28,28.54,0.38464,-0.40121,-0.29459,-0.77728,434
107,0.898,-0.012,0.478,0.122,-0.183,0.122,-1.725,-61.87,-173.666,-23.913,-4.707,-11.547,25.88,0.0437,-0.51352,-0.01788,-0.85672,429,0.628,0.041,0.779,-0.549,-0.061,0.549,2.807,-39.056,-109.072,-21.707,-5.687,-1.46,22.91,-0.55307,0.25873,0.21289,0.76273,423,0.626,0.062,0.769,-0.916,-0.183,0.305,4.411,-39.133,166.866,-17.9,-8.367,-24.333,27.0,0.09729,0.33661,-0.00278,0.93655,427,0.839,0.152,0.498,-0.061,-0.122,0.244,16.529,-58.271,-136.5,-27.253,-9.873,-5.28,28.54,0.38464,-0.40121,-0.29459,-0.77728,435
108,0.899,-0.011,0.48,0.122,-0.183,0.122,-1.725,-61.875,-173.699,-23.913,-4.707,-11.547,25.88,0.03937,-0.51398,-0.01532,-0.85669,436,0.632,0.039,0.778,-0.366,-0.061,0.549,2.791,-39.056,-109.056,-21.707,-5.687,-1.46,22.91,-0.55307,0.25873,0.21289,0.76273,430,0.632,0.059,0.768,-0.977,-0.183,0.366,4.389,-39.139,166.904,-17.633,-8.633,-23.307,27.0,0.09729,0.33661,-0.00278,0.93655,432,0.838,0.15,0.498,0.0,-0.183,0.122,16.523,-58.271,-136.489,-27.253,-9.873,-5.28,28.54,0.38464,-0.40121,-0.29459,-0.77728,444
109,0.9,-0.009,0.479,0.061,-0.305,0.183,-1.73,-61.886,-173.727,-23.913,-4.707,-11.547,25.88,0.03937,-0.51398,-0.01532,-0.85669,437,0.634,0.04,0.778,-0.427,-0.122,0.305,2.78,-39.056,-109.045,-21.707,-5.687,-1.46,22.91,-0.55307,0.25873,0.21289,0.76273,431,0.631,0.061,0.768,-0.854,-0.122,0.0,4.373,-39.139,166.915,-17.633,-8.633,-23.307,27.0,0.09729,0.33661,-0.00278,0.93655,433,0.838,0.152,0.5,-0.366,-0.427,0.0,16.523,-58.277,-136.478,-27.253,-9.873,-5.28,28.54,0.38464,-0.40121,-0.29459,-0.77728,445
110,0.9,-0.01,0.478,0.0,-0.244,0.0,-1.725,-61.891,-173.76,-23.913,-4.707,-11.547,25.88,0.03937,-0.51398,-0.01532,-0.85669,442,0.633,0.038,0.78,-0.183,-0.122,0.366,2.774,-39.062,-109.034,-21.707,-5.687,-1.46,22.91,-0.55307,0.25873,0.21289,0.76273,440,0.629,0.058,0.769,-0.183,-0.183,0.0,4.367,-39.144,166.888,-17.633,-8.633,-23.307,27.0,0.09729,0.33661,-0.00278,0.93655,438,0.838,0.152,0.499,-0.732,-0.427,-0.122,16.523,-58.282,-136.478,-27.253,-9.873,-5.28,28.54,0.38464,-0.40121,-0.29459,-0.77728,454
111,0.898,-0.011,0.479,-0.183,-0.183,0.0,-1.725,-61.891,-173.793,-23.913,-4.707,-11.547,25.88,0.03937,-0.51398,-0.01532,-0.85669,443,0.63,0.034,0.779,-0.061,0.0,0.183,2.769,-39.062,-109.028,-21.707,-5.687,-1.46,22.91,-0.55307,0.25873,0.21289,0.76273,441,0.628,0.054,0.77,-0.244,-0.122,0.061,4.362,-39.15,166.855,-17.633,-8.633,-23.307,27.0,0.09729,0.33661,-0.00278,0.93655,439,0.839,0.15,0.497,-0.793,-0.427,-0.122,16.518,-58.293,-136.478,-27.253,-9.873,-5.28,28.54,0.38464,-0.40121,-0.29459,-0.77728,455
112,0.897,-0.009,0.479,-0.366,-0.366,0.0,-1.73,-61.902,-173.831,-23.913,-4.707,-11.547,25.88,0.03937,-0.51398,-0.01532,-0.85669,450,0.628,0.033,0.78,0.0,-0.122,-0.061,2.769,-39.062,-109.028,-21.687,-5.52,-2.147,22.91,-0.55307,0.25873,0.21289,0.76273,446,0.627,0.052,0.769,0.549,-0.366,-0.305,4.367,-39.15,166.8,-17.633,-8.633,-23.307,27.0,0.09512,0.33667,-0.00269,0.93674,448,0.842,0.148,0.498,-0.427,-0.305,-0.122,16.518,-58.299,-136.483,-27.033,-9.993,-5.9,28.54,0.38464,-0.40121,-0.29459,-0.77728,458
113,0.897,-0.01,0.478,-0.427,-0.366,0.0,-1.736,-61.908,-173.864,-23.913,-4.707,-11.547,25.88,0.03937,-0.51398,-0.01532,-0.85669,451,0.627,0.033,0.779,0.122,-0.244,-0.488,2.78,-39.062,-109.039,-21.687,-5.52,-2.147,22.91,-0.55307,0.25873,0.21289,0.76273,447,0.622,0.053,0.768,1.16,-0.977,0.0,4.389,-39.166,166.75,-17.633,-8.633,-23.307,27.0,0.09512,0.33667,-0.00269,0.93674,449,0.845,0.145,0.497,0.122,-0.122,0.0,16.518,-58.299,-136.483,-27.033,-9.993,-5.9,28.54,0.38464,-0.40121,-0.29459,-0.77728,459
114,0.898,-0.012,0.478,-0.488,-0.244,0.0,-1.741,-61.913,-173.897,-23.913,-4.707,-11.547,25.88,0.03937,-0.51398,-0.01532,-0.85669,460,0.63,0.038,0.78,0.122,-0.366,-0.854,2.796,-39.067,-109.061,-21.687,-5.52,-2.147,22.91,-0.55307,0.25873,0.21289,0.76273,452,0.626,0.062,0.773,0.549,-1.282,-0.366,4.406,-39.188,166.712,-17.633,-8.633,-23.307,27.0,0.09512,0.33667,-0.00269,0.93674,456,0.844,0.146,0.497,0.61,0.0,0.244,16.523,-58.299,-136.472,-27.033,-9.993,-5.9,28.54,0.38464,-0.40121,-0.29459,-0.77728,466
115,0.902,-0.015,0.478,-0.244,-0.244,0.0,-1.741,-61.919,-173.93,-23.913,-4.707,-11.547,25.88,0.03937,-0.51398,-0.01532,-0.85669,461,0.635,0.044,0.779,-0.122,-0.549,-0.793,2.807,-39.078,-109.078,-21.687,-5.52,-2.147,22.91,-0.55307,0.25873,0.21289,0.76273,453,0.632,0.072,0.772,-0.427,-0.061,-0.732,4.417,-39.199,166.685,-17.633,-8.633,-23.307,27.0,0.09512,0.33667,-0.00269,0.93674,457,0.842,0.148,0.496,0.61,0.0,0.366,16.529,-58.299,-136.456,-27.033,-9.993,-5.9,28.54,0.38464,-0.40121,-0.29459,-0.77728,467
116,0.905,-0.017,0.478,0.061,-0.122,0.0,-1.736,-61.924,-173.958,-23.913,-4.707,-11.547,25.88,0.03937,-0.51398,-0.01532,-0.85669,468,0.637,0.047,0.778,-0.244,-0.427,-0.183,2.807,-39.084,-109.083,-21.687,-5.52,-2.147,22.91,-0.55325,0.25891,0.21274,0.76257,464,0.634,0.073,0.769,-0.977,0.183,-0.427,4.417,-39.194,166.679,-17.633,-8.633,-23.307,27.0,0.09512,0.33667,-0.00269,0.93674,462,0.842,0.15,0.498,0.183,0.0,0.488,16.529,-58.304,-136.434,-27.033,-9.993,-5.9,28.54,0.38562,-0.40106,-0.29541,-0.77655,474
117,0.905,-0.016,0.477,0.366,-0.061,0.366,-1.741,-61.924,-173.974,-23.913,-4.707,-11.547,25.88,0.03937,-0.51398,-0.01532,-0.85669,469,0.635,0.044,0.778,-0.183,-0.061,0.488,2.796,-39.084,-109.067,-21.687,-5.52,-2.147,22.91,-0.55325,0.25891,0.21274,0.76257,465,0.632,0.069,0.77,-1.282,0.305,-0.122,4.4,-39.188,166.674,-17.633,-8.633,-23.307,27.0,0.09512,0.33667,-0.00269,0.93674,463,0.84,0.149,0.497,-0.183,-0.244,0.427,16.518,-58.31,-136.412,-27.033,-9.993,-5.9,28.54,0.38562,-0.40106,-0.29541,-0.77655,475
118,0.902,-0.015,0.477,0.305,-0.061,0.366,-1.747,-61.93,-173.99,-23.913,-4.707,-11.547,25.88,0.03937,-0.51398,-0.01532,-0.85669,478,0.633,0.041,0.78,-0.366,-0.061,0.854,2.78,-39.084,-109.045,-21.687,-5.52,-2.147,22.91,-0.55325,0.25891,0.21274,0.76257,470,0.632,0.062,0.77,-0.916,0.061,0.305,4.384,-39.188,166.69,-17.633,-8.633,-23.307,27.0,0.09512,0.33667,-0.00269,0.93674,472,0.84,0.148,0.497,-0.427,-0.366,0.427,16.501,-58.315,-136.395,-27.033,-9.993,-5.9,28.54,0.38562,-0.40106,-0.29541,-0.77655,488
119,0.899,-0.013,0.476,0.061,-0.061,0.305,-1.758,-61.93,-174.012,-23.913,-4.707,-11.547,25.88,0.03937,-0.51398,-0.01532,-0.85669,479,0.633,0.036,0.779,-0.305,0.0,0.854,2.763,-39.084,-109.023,-21.687,-5.52,-2.147,22.91,-0.55325,0.25891,0.21274,0.76257,471,0.63,0.054,0.769,-0.122,-0.488,0.793,4.367,-39.188,166.74,-17.633,-8.633,-23.307,27.0,0.09512,0.33667,-0.00269,0.93674,473,0.841,0.146,0.497,-0.488,-0.244,0.244,16.485,-58.326,-136.379,-27.033,-9.993,-5.9,28.54,0.38562,-0.40106,-0.29541,-0.77655,489
120,0.898,-0.012,0.477,-0.061,-0.183,0.183,-1.763,-61.935,-174.034,-23.78,-4.493,-11.547,25.88,0.03937,-0.51398,-0.01532,-0.85669,482,0.634,0.034,0.778,-0.427,-0.427,0.061,2.752,-39.095,-109.012,-21.687,-5.52,-2.147,22.91,-0.55325,0.25891,0.21274,0.76257,480,0.632,0.054,0.77,-0.122,-1.099,0.61,4.356,-39.21,166.783,-17.633,-8.633,-23.307,27.0,0.09512,0.33667,-0.00269,0.93674,476,0.84,0.144,0.495,-0.305,-0.061,0.122,16.474,-58.326,-136.362,-27.033,-9.993,-5.9,28.54,0.38562,-0.40106,-0.29541,-0.77655,490
121,0.899,-0.013,0.476,-0.122,-0.305,0.122,-1.769,-61.941,-174.056,-23.78,-4.493,-11.547,25.88,0.03937,-0.51398,-0.01532,-0.85669,483,0.634,0.031,0.775,-0.244,-0.305,-0.061,2.747,-39.1,-109.006,-21.687,-5.52,-2.147,22.91,-0.55325,0.25891,0.21274,0.76257,481,0.634,0.053,0.766,-0.183,-0.61,0.183,4.351,-39.227,166.789,-17.633,-8.633,-23.307,27.0,0.09512,0.33667,-0.00269,0.93674,477,0.84,0.147,0.494,-0.244,0.0,0.244,16.463,-58.332,-136.351,-27.033,-9.993,-5.9,28.54,0.38562,-0.40106,-0.29541,-0.77655,491
122,0.9,-0.015,0.477,-0.061,-0.366,0.0,-1.769,-61.952,-174.089,-23.78,-4.493,-11.547,25.88,0.03937,-0.51398,-0.01532,-0.85669,492,0.63,0.032,0.773,0.061,-0.183,0.0,2.741,-39.106,-109.006,-21.687,-5.52,-2.147,22.91,-0.55325,0.25891,0.21274,0.76257,484,0.631,0.053,0.762,0.427,-0.488,0.305,4.351,-39.238,166.789,-17.633,-8.633,-23.307,27.0,0.09512,0.33667,-0.00269,0.93674,486,0.842,0.148,0.496,-0.122,0.183,0.183,16.452,-58.332,-136.34,-27.033,-9.993,-5.9,28.54,0.38562,-0.40106,-0.29541,-0.77655,498
123,0.899,-0.015,0.475,0.0,0.0,-0.061,-1.763,-61.952,-174.122,-23.78,-4.493,-11.547,25.88,0.03937,-0.51398,-0.01532,-0.85669,493,0.63,0.035,0.776,0.305,-0.305,0.061,2.741,-39.111,-109.006,-21.687,-5.52,-2.147,22.91,-0.55325,0.25891,0.21274,0.76257,485,0.627,0.055,0.764,0.549,-0.61,0.427,4.356,-39.249,166.8,-17.633,-8.633,-23.307,27.0,0.09512,0.33667,-0.00269,0.93674,487,0.844,0.148,0.496,0.0,0.244,0.183,16.447,-58.332,-136.324,-27.033,-9.993,-5.9,28.54,0.38562,-0.40106,-0.29541,-0.77655,499
124,0.9,-0.011,0.477,0.0,0.122,0.0,-1.763,-61.952,-174.15,-23.78,-4.493,-11.547,25.88,0.0361,-0.51462,-0.01321,-0.85651,500,0.635,0.039,0.776,0.183,-0.305,0.183,2.747,-39.117,-109.001,-21.687,-5.52,-2.147,22.91,-0.55325,0.25891,0.21274,0.76257,494,0.627,0.059,0.766,0.549,-0.732,0.427,4.356,-39.265,166.794,-17.633,-8.633,-23.307,27.0,0.09512,0.33667,-0.00269,0.93674,496,0.844,0.149,0.497,0.183,0.0,0.244,16.441,-58.326,-136.307,-27.033,-9.993,-5.9,28.54,0.38562,-0.40106,-0.29541,-0.77655,502
125,0.905,-0.012,0.476,0.122,0.183,0.0,-1.758,-61.952,-174.177,-23.78,-4.493,-11.547,25.88,0.0361,-0.51462,-0.01321,-0.85651,501,0.637,0.042,0.779,-0.061,-0.366,0.366,2.747,-39.122,-108.995,-21.687,-5.52,-2.147,22.91,-0.55325,0.25891,0.21274,0.76257,495,0.633,0.064,0.771,-0.793,-0.61,0.061,4.351,-39.282,166.789,-17.633,-8.633,-23.307,27.0,0.09512,0.33667,-0.00269,0.93674,497,0.843,0.151,0.499,-0.122,-0.122,0.244,16.436,-58.332,-136.296,-27.033,-9.993,-5.9,28.54,0.38562,-0.40106,-0.29541,-0.77655,503
126,0.903,-0.012,0.478,0.122,0.244,0.122,-1.758,-61.946,-174.205,-23.78,-4.493,-11.547,25.88,0.0361,-0.51462,-0.01321,-0.85651,508,0.636,0.041,0.78,-0.183,-0.305,0.549,2.736,-39.128,-108.984,-21.687,-5.52,-2.147,22.91,-0.55325,0.25891,0.21274,0.76257,506,0.637,0.065,0.771,-1.587,0.305,-0.305,4.329,-39.282,166.805,-17.633,-8.633,-23.307,27.0,0.09512,0.33667,-0.00269,0.93674,504,0.841,0.151,0.5,-0.61,-0.366,0.244,16.425,-58.337,-136.28,-27.033,-9.993,-5.9,28.54,0.38562,-0.40106,-0.29541,-0.77655,512
127,0.901,-0.011,0.479,-0.061,0.122,0.0,-1.758,-61.946,-174.227,-23.78,-4.493,-11.547,25.88,0.0361,-0.51462,-0.01321,-0.85651,509,0.636,0.038,0.781,-0.366,-0.366,0.427,2.725,-39.139,-108.968,-21.687,-5.52,-2.147,22.91,-0.55325,0.25891,0.21274,0.76257,507,0.634,0.061,0.77,-1.404,-0.244,-0.183,4.307,-39.282,166.855,-17.633,-8.633,-23.307,27.0,0.09512,0.33667,-0.00269,0.93674,505,0.839,0.149,0.496,-0.977,-0.427,0.183,16.408,-58.343,-136.274,-27.033,-9.993,-5.9,28.54,0.38562,-0.40106,-0.29541,-0.77655,513
128,0.897,-0.012,0.477,-0.305,0.122,-0.061,-1.758,-61.946,-174.26,-23.78,-4.493,-11.547,25.88,0.0361,-0.51462,-0.01321,-0.85651,514,0.634,0.036,0.78,-0.244,-0.366,0.061,2.714,-39.144,-108.962,-21.96,-5.927,-1.193,22.91,-0.55325,0.25891,0.21274,0.76257,510,0.634,0.057,0.77,-0.549,-0.671,0.061,4.29,-39.293,166.915,-18.187,-8.513,-23.22,27.0,0.09512,0.33667,-0.00269,0.93674,516,0.84,0.146,0.497,-1.038,-0.366,0.244,16.392,-58.354,-136.263,-27.033,-9.993,-5.9,28.54,0.38562,-0.40106,-0.29541,-0.77655,522
129,0.896,-0.012,0.478,-0.305,0.122,0.0,-1.758,-61.946,-174.287,-23.78,-4.493,-11.547,25.88,0.0361,-0.51462,-0.01321,-0.85651,515,0.633,0.037,0.777,-0.244,-0.305,-0.183,2.708,-39.15,-108.957,-21.96,-5.927,-1.193,22.91,-0.55325,0.25891,0.21274,0.76257,511,0.631,0.056,0.768,-0.122,-1.038,0.366,4.285,-39.309,166.976,-18.187,-8.513,-23.22,27.0,0.09512,0.33667,-0.00269,0.93674,517,0.838,0.142,0.496,-0.366,-0.061,0.183,16.375,-58.359,-136.252,-27.033,-9.993,-5.9,28.54,0.38562,-0.40106,-0.29541,-0.77655,523
130,0.896,-0.016,0.477,-0.183,0.122,0.061,-1.763,-61.941,-174.315,-23.78,-4.493,-11.547,25.88,0.0361,-0.51462,-0.01321,-0.85651,524,0.632,0.038,0.777,-0.244,-0.366,-0.427,2.708,-39.155,-108.962,-21.96,-5.927,-1.193,22.91,-0.55325,0.25891,0.21274,0.76257,518,0.63,0.057,0.767,0.366,-1.221,0.244,4.29,-39.337,167.014,-18.187,-8.513,-23.22,27.0,0.09381,0.3382,-0.00296,0.93631,520,0.84,0.145,0.496,-0.183,0.305,0.183,16.364,-58.359,-136.241,-27.033,-9.993,-5.9,28.54,0.38562,-0.40106,-0.29541,-0.77655,530
131,0.899,-0.015,0.476,0.0,0.183,0.061,-1.763,-61.941,-174.337,-23.78,-4.493,-11.547,25.88,0.0361,-0.51462,-0.01321,-0.85651,525,0.63,0.034,0.773,-0.183,-0.427,-0.244,2.714,-39.166,-108.973,-21.96,-5.927,-1.193,22.91,-0.55325,0.25891,0.21274,0.76257,519,0.629,0.06,0.767,0.183,-0.793,-0.122,4.296,-39.353,167.025,-18.187,-8.513,-23.22,27.0,0.09381,0.3382,-0.00296,0.93631,521,0.842,0.147,0.494,-0.183,0.488,0.305,16.353,-58.354,-136.219,-27.033,-9.993,-5.9,28.54,0.38562,-0.40106,-0.29541,-0.77655,531
132,0.902,-0.013,0.476,0.183,0.366,0.183,-1.763,-61.941,-174.364,-23.78,-4.493,-11.547,25.88,0.0361,-0.51462,-0.01321,-0.85651,532,0.634,0.037,0.772,-0.244,-0.061,0.061,2.714,-39.172,-108.979,-21.96,-5.927,-1.193,22.91,-0.55353,0.25977,0.2128,0.76205,526,0.63,0.058,0.761,0.122,-0.61,0.183,4.296,-39.37,167.036,-18.187,-8.513,-23.22,27.0,0.09381,0.3382,-0.00296,0.93631,528,0.847,0.147,0.499,-0.122,0.427,0.488,16.331,-58.343,-136.198,-27.26,-9.567,-5.52,28.54,0.38562,-0.40106,-0.29541,-0.77655,536
133,0.904,-0.013,0.478,0.122,0.488,0.183,-1.769,-61.93,-174.38,-23.78,-4.493,-11.547,25.88,0.0361,-0.51462,-0.01321,-0.85651,533,0.637,0.041,0.774,-0.244,-0.122,0.183,2.708,-39.172,-108.973,-21.96,-5.927,-1.193,22.91,-0.55353,0.25977,0.2128,0.76205,527,0.634,0.062,0.764,-0.61,-0.366,0.0,4.29,-39.375,167.036,-18.187,-8.513,-23.22,27.0,0.09381,0.3382,-0.00296,0.93631,529,0.846,0.148,0.5,-0.488,0.305,0.427,16.315,-58.343,-136.17,-27.26,-9.567,-5.52,28.54,0.38562,-0.40106,-0.29541,-0.77655,537
134,0.905,-0.012,0.479,0.122,0.366,0.305,-1.769,-61.924,-174.397,-23.78,-4.493,-11.547,25.88,0.0361,-0.51462,-0.01321,-0.85651,540,0.637,0.039,0.777,-0.183,-0.366,0.122,2.703,-39.177,-108.968,-21.96,-5.927,-1.193,22.91,-0.55353,0.25977,0.2128,0.76205,534,0.638,0.061,0.767,-0.732,-0.061,-0.366,4.285,-39.38,167.02,-18.187,-8.513,-23.22,27.0,0.09381,0.3382,-0.00296,0.93631,538,0.842,0.146,0.498,-0.061,0.183,0.366,16.293,-58.337,-136.148,-27.26,-9.567,-5.52,28.54,0.38562,-0.40106,-0.29541,-0.77655,546
135,0.902,-0.013,0.478,0.122,0.305,0.305,-1.774,-61.919,-174.413,-23.78,-4.493,-11.547,25.88,0.0361,-0.51462,-0.01321,-0.85651,541,0.638,0.036,0.78,0.061,-0.427,0.183,2.697,-39.183,-108.962,-21.96,-5.927,-1.193,22.91,-0.55353,0.25977,0.2128,0.76205,535,0.635,0.059,0.768,-0.244,0.0,-0.366,4.285,-39.38,166.97,-18.187,-8.513,-23.22,27.0,0.09381,0.3382,-0.00296,0.93631,539,0.841,0.146,0.5,0.0,0.0,0.183,16.287,-58.337,-136.132,-27.26,-9.567,-5.52,28.54,0.38562,-0.40106,-0.29541,-0.77655,547
136,0.9,-0.014,0.478,0.0,0.183,0.183,-1.78,-61.913,-174.424,-23.893,-5.193,-12.08,25.88,0.0361,-0.51462,-0.01321,-0.85651,548,0.635,0.033,0.782,0.061,-0.122,0.122,2.697,-39.194,-108.957,-21.96,-5.927,-1.193,22.91,-0.55353,0.25977,0.2128,0.76205,542,0.637,0.056,0.77,0.61,-0.488,0.122,4.296,-39.386,166.937,-18.187,-8.513,-23.22,27.0,0.09381,0.3382,-0.00296,0.93631,544,0.838,0.146,0.5,-0.244,-0.122,0.0,16.282,-58.343,-136.121,-27.26,-9.567,-5.52,28.54,0.38687,-0.40134,-0.29495,-0.77597,558
137,0.897,-0.013,0.478,-0.122,0.0,0.122,-1.785,-61.913,-174.446,-23.893,-5.193,-12.08,25.88,0.0361,-0.51462,-0.01321,-0.85651,549,0.634,0.034,0.781,-0.061,0.0,0.0,2.697,-39.194,-108.957,-21.96,-5.927,-1.193,22.91,-0.55353,0.25977,0.2128,0.76205,543,0.635,0.055,0.771,0.0,-0.183,0.488,4.29,-39.391,166.926,-18.187,-8.513,-23.22,27.0,0.09381,0.3382,-0.00296,0.93631,545,0.835,0.146,0.496,-0.366,-0.122,0.0,16.282,-58.343,-136.121,-27.26,-9.567,-5.52,28.54,0.38687,-0.40134,-0.29495,-0.77597,559
138,0.894,-0.013,0.477,-0.122,0.0,0.0,-1.791,-61.919,-174.468,-23.893,-5.193,-12.08,25.88,0.03326,-0.5144,-0.01138,-0.85678,554,0.631,0.033,0.775,0.183,-0.122,0.0,2.697,-39.194,-108.951,-21.96,-5.927,-1.193,22.91,-0.55353,0.25977,0.2128,0.76205,550,0.633,0.054,0.767,0.244,-0.366,0.0,4.296,-39.402,166.932,-18.187,-8.513,-23.22,27.0,0.09381,0.3382,-0.00296,0.93631,552,0.835,0.145,0.498,-0.305,-0.183,0.0,16.276,-58.348,-136.115,-27.26,-9.567,-5.52,28.54,0.38687,-0.40134,-0.29495,-0.77597,562
139,0.892,-0.013,0.478,-0.183,0.0,0.0,-1.791,-61.919,-174.49,-23.893,-5.193,-12.08,25.88,0.03326,-0.5144,-0.01138,-0.85678,555,0.629,0.032,0.774,0.366,-0.061,-0.183,2.703,-39.194,-108.951,-21.96,-5.927,-1.193,22.91,-0.55353,0.25977,0.2128,0.76205,551,0.629,0.052,0.763,0.854,-0.854,0.122,4.307,-39.419,166.943,-18.187,-8.513,-23.22,27.0,0.09381,0.3382,-0.00296,0.93631,553,0.838,0.144,0.5,-0.122,0.0,-0.061,16.276,-58.348,-136.115,-27.26,-9.567,-5.52,28.54,0.38687,-0.40134,-0.29495,-0.77597,563
140,0.893,-0.014,0.479,-0.122,0.0,0.0,-1.791,-61.919,-174.512,-23.893,-5.193,-12.08,25.88,0.03326,-0.5144,-0.01138,-0.85678,564,0.629,0.035,0.773,0.427,-0.061,-0.366,2.708,-39.199,-108.957,-21.96,-5.927,-1.193,22.91,-0.55353,0.25977,0.2128,0.76205,560,0.627,0.054,0.763,1.282,-0.549,0.061,4.329,-39.43,166.959,-18.187,-8.513,-23.22,27.0,0.09381,0.3382,-0.00296,0.93631,556,0.842,0.142,0.502,0.183,0.0,-0.122,16.276,-58.343,-136.11,-27.26,-9.567,-5.52,28.54,0.38687,-0.40134,-0.29495,-0.77597,570
141,0.898,-0.015,0.48,-0.061,-0.122,0.0,-1.791,-61.919,-174.54,-23.893,-5.193,-12.08,25.88,0.03326,-0.5144,-0.01138,-0.85678,565,0.633,0.037,0.772,0.427,-0.061,-0.427,2.725,-39.199,-108.968,-21.96,-5.927,-1.193,22.91,-0.55353,0.25977,0.2128,0.76205,561,0.628,0.058,0.762,1.038,-0.244,0.0,4.351,-39.435,166.992,-18.187,-8.513,-23.22,27.0,0.09381,0.3382,-0.00296,0.93631,557,0.845,0.142,0.5,0.488,0.122,-0.122,16.287,-58.343,-136.11,-27.26,-9.567,-5.52,28.54,0.38687,-0.40134,-0.29495,-0.77597,571
142,0.903,-0.016,0.481,0.0,-0.183,0.0,-1.791,-61.924,-174.562,-23.893,-5.193,-12.08,25.88,0.03326,-0.5144,-0.01138,-0.85678,572,0.637,0.038,0.776,-0.061,-0.061,-0.244,2.736,-39.199,-108.973,-21.96,-5.927,-1.193,22.91,-0.55353,0.25977,0.2128,0.76205,566,0.632,0.062,0.764,0.366,-0.244,-0.366,4.362,-39.441,167.047,-18.187,-8.513,-23.22,27.0,0.09381,0.3382,-0.00296,0.93631,568,0.844,0.145,0.501,0.366,0.183,-0.061,16.298,-58.337,-136.11,-27.26,-9.567,-5.52,28.54,0.38687,-0.40134,-0.29495,-0.77597,576
143,0.903,-0.016,0.482,0.061,-0.061,0.0,-1.791,-61.924,-174.584,-23.893,-5.193,-12.08,25.88,0.03326,-0.5144,-0.01138,-0.85678,573,0.637,0.039,0.779,-0.244,0.122,0.061,2.736,-39.199,-108.979,-21.96,-5.927,-1.193,22.91,-0.55353,0.25977,0.2128,0.76205,567,0.637,0.064,0.767,-0.61,0.732,-0.366,4.362,-39.43,167.113,-18.187,-8.513,-23.22,27.0,0.09381,0.3382,-0.00296,0.93631,569,0.84,0.145,0.5,0.122,0.183,0.0,16.298,-58.332,-136.104,-27.26,-9.567,-5.52,28.54,0.38687,-0.40134,-0.29495,-0.77597,577
144,0.899,-0.016,0.48,0.061,0.0,0.0,-1.785,-61.93,-174.611,-23.893,-5.193,-12.08,25.88,0.03326,-0.5144,-0.01138,-0.85678,580,0.634,0.036,0.779,0.0,0.488,0.488,2.725,-39.194,-108.973,-21.96,-5.927,-1.193,22.91,-0.55353,0.25977,0.2128,0.76205,578,0.636,0.063,0.768,-0.671,0.916,-0.061,4.351,-39.413,167.179,-18.187,-8.513,-23.22,27.0,0.09381,0.3382,-0.00296,0.93631,574,0.841,0.147,0.503,-0.061,0.061,0.0,16.298,-58.332,-136.099,-27.26,-9.567,-5.52,28.54,0.38687,-0.40134,-0.29495,-0.77597,584
145,0.898,-0.014,0.48,0.0,0.0,0.0,-1.785,-61.924,-174.633,-23.893,-5.193,-12.08,25.88,0.03326,-0.5144,-0.01138,-0.85678,581,0.634,0.034,0.779,0.061,0.488,0.366,2.719,-39.183,-108.962,-21.96,-5.927,-1.193,22.91,-0.55353,0.25977,0.2128,0.76205,579,0.633,0.057,0.768,-0.427,0.732,0.061,4.34,-39.402,167.217,-18.187,-8.513,-23.22,27.0,0.09381,0.3382,-0.00296,0.93631,575,0.839,0.147,0.494,-0.488,0.0,0.0,16.287,-58.326,-136.093,-27.26,-9.567,-5.52,28.54,0.38687,-0.40134,-0.29495,-0.77597,585
146,0.898,-0.012,0.477,0.0,-0.183,-0.061,-1.785,-61.93,-174.655,-23.893,-5.193,-12.08,25.88,0.03326,-0.5144,-0.01138,-0.85678,588,0.635,0.036,0.777,0.061,0.488,-0.061,2.714,-39.177,-108.951,-21.893,-5.767,-0.427,22.91,-0.55353,0.25977,0.2128,0.76205,582,0.635,0.053,0.766,0.0,0.427,0.427,4.329,-39.391,167.272,-18.353,-8.4,-23.353,27.0,0.09381,0.3382,-0.00296,0.93631,586,0.839,0.145,0.495,-0.183,-0.122,0.0,16.282,-58.332,-136.088,-27.26,-9.567,-5.52,28.54,0.38687,-0.40134,-0.29495,-0.77597,596
147,0.9,-0.012,0.474,0.0,-0.122,-0.061,-1.78,-61.93,-174.683,-23.893,-5.193,-12.08,25.88,0.03326,-0.5144,-0.01138,-0.85678,589,0.63,0.038,0.78,0.061,0.244,-0.305,2.719,-39.166,-108.951,-21.893,-5.767,-0.427,22.91,-0.55353,0.25977,0.2128,0.76205,583,0.63,0.058,0.766,0.244,0.183,0.0,4.334,-39.386,167.305,-18.353,-8.4,-23.353,27.0,0.09381,0.3382,-0.00296,0.93631,587,0.84,0.145,0.498,-0.122,-0.244,-0.061,16.282,-58.332,-136.088,-27.26,-9.567,-5.52,28.54,0.38687,-0.40134,-0.29495,-0.77597,597
148,0.9,-0.013,0.476,-0.061,-0.183,-0.122,-1.78,-61.935,-174.705,-23.893,-5.193,-12.08,25.88,0.03326,-0.5144,-0.01138,-0.85678,594,0.629,0.035,0.779,0.061,0.305,-0.244,2.725,-39.161,-108.957,-21.893,-5.767,-0.427,22.91,-0.55353,0.25977,0.2128,0.76205,590,0.629,0.059,0.769,0.793,0.244,-0.122,4.345,-39.386,167.289,-18.353,-8.4,-23.353,27.0,0.0914,0.33859,-0.00171,0.93643,592,0.841,0.146,0.496,0.0,-0.305,-0.183,16.293,-58.337,-136.093,-27.007,-9.8,-5.767,28.54,0.38687,-0.40134,-0.29495,-0.77597,602
149,0.9,-0.012,0.474,-0.122,-0.305,-0.183,-1.774,-61.941,-174.732,-23.893,-5.193,-12.08,25.88,0.03326,-0.5144,-0.01138,-0.85678,595,0.631,0.036,0.776,-0.061,0.183,-0.183,2.725,-39.155,-108.962,-21.893,-5.767,-0.427,22.91,-0.55353,0.25977,0.2128,0.76205,591,0.63,0.057,0.768,0.305,0.488,0.061,4.356,-39.375,167.294,-18.353,-8.4,-23.353,27.0,0.0914,0.33859,-0.00171,0.93643,593,0.841,0.146,0.497,0.244,-0.244,-0.244,16.304,-58.343,-136.099,-27.007,-9.8,-5.767,28.54,0.38687,-0.40134,-0.29495,-0.77597,603
150,0.9,-0.011,0.476,-0.122,-0.305,-0.061,-1.769,-61.946,-174.76,-23.893,-5.193,-12.08,25.88,0.03326,-0.5144,-0.01138,-0.85678,604,0.633,0.037,0.779,-0.061,0.061,-0.061,2.725,-39.15,-108.968,-21.893,-5.767,-0.427,22.91,-0.55365,0.25961,0.21286,0.76199,598,0.63,0.06,0.768,0.183,0.0,-0.183,4.362,-39.375,167.289,-18.353,-8.4,-23.353,27.0,0.0914,0.33859,-0.00171,0.93643,600,0.841,0.147,0.497,0.244,-0.305,-0.183,16.32,-58.343,-136.104,-27.007,-9.8,-5.767,28.54,0.38687,-0.40134,-0.29495,-0.77597,610
151,0.901,-0.012,0.476,-0.183,-0.305,-0.061,-1.769,-61.952,-174.781,-23.893,-5.193,-12.08,25.88,0.03326,-0.5144,-0.01138,-0.85678,605,0.634,0.037,0.776,-0.122,0.122,0.0,2.725,-39.15,-108.968,-21.893,-5.767,-0.427,22.91,-0.55365,0.25961,0.21286,0.76199,599,0.633,0.061,0.768,-0.061,0.183,-0.061,4.362,-39.375,167.283,-18.353,-8.4,-23.353,27.0,0.0914,0.33859,-0.00171,0.93643,601,0.843,0.148,0.497,0.183,-0.305,-0.183,16.331,-58.348,-136.11,-27.007,-9.8,-5.767,28.54,0.38687,-0.40134,-0.29495,-0.77597,611
152,0.902,-0.012,0.477,-0.183,-0.366,-0.061,-1.769,-61.963,-174.809,-23.973,-4.613,-11.62,25.88,0.03326,-0.5144,-0.01138,-0.85678,612,0.636,0.037,0.777,-0.122,0.244,0.0,2.719,-39.144,-108.962,-21.893,-5.767,-0.427,22.91,-0.55365,0.25961,0.21286,0.76199,608,0.635,0.06,0.767,-0.305,0.244,-0.061,4.356,-39.37,167.283,-18.353,-8.4,-23.353,27.0,0.0914,0.33859,-0.00171,0.93643,606,0.842,0.148,0.496,0.061,-0.305,-0.061,16.337,-58.354,-136.11,-27.007,-9.8,-5.767,28.54,0.38718,-0.40121,-0.29538,-0.77573,618
153,0.902,-0.013,0.478,-0.122,-0.366,0.0,-1.763,-61.968,-174.831,-23.973,-4.613,-11.62,25.88,0.03326,-0.5144,-0.01138,-0.85678,613,0.635,0.04,0.776,0.0,0.305,0.061,2.719,-39.139,-108.962,-21.893,-5.767,-0.427,22.91,-0.55365,0.25961,0.21286,0.76199,609,0.636,0.061,0.766,-0.427,0.488,0.0,4.351,-39.359,167.3,-18.353,-8.4,-23.353,27.0,0.0914,0.33859,-0.00171,0.93643,607,0.841,0.148,0.498,-0.122,-0.366,0.0,16.342,-58.359,-136.11,-27.007,-9.8,-5.767,28.54,0.38718,-0.40121,-0.29538,-0.77573,619
154,0.901,-0.013,0.478,-0.061,-0.183,0.0,-1.763,-61.979,-174.847,-23.973,-4.613,-11.62,25.88,0.03058,-0.51486,-0.00992,-0.8566,620,0.632,0.041,0.777,0.0,0.183,0.0,2.719,-39.133,-108.962,-21.893,-5.767,-0.427,22.91,-0.55365,0.25961,0.21286,0.76199,614,0.631,0.062,0.765,0.0,0.305,-0.061,4.351,-39.353,167.3,-18.353,-8.4,-23.353,27.0,0.0914,0.33859,-0.00171,0.93643,616,0.841,0.148,0.498,-0.366,-0.305,-0.061,16.342,-58.365,-136.115,-27.007,-9.8,-5.767,28.54,0.38718,-0.40121,-0.29538,-0.77573,626
155,0.899,-0.012,0.478,-0.122,-0.183,0.0,-1.763,-61.985,-174.869,-23.973,-4.613,-11.62,25.88,0.03058,-0.51486,-0.00992,-0.8566,621,0.633,0.039,0.78,-0.183,0.0,-0.183,2.719,-39.133,-108.962,-21.893,-5.767,-0.427,22.91,-0.55365,0.25961,0.21286,0.76199,615,0.631,0.061,0.77,-0.061,-0.061,-0.061,4.351,-39.353,167.261,-18.353,-8.4,-23.353,27.0,0.0914,0.33859,-0.00171,0.93643,617,0.84,0.147,0.497,-0.305,-0.305,0.0,16.342,-58.37,-136.115,-27.007,-9.8,-5.767,28.54,0.38718,-0.40121,-0.29538,-0.77573,627
156,0.898,-0.013,0.477,-0.244,-0.183,0.0,-1.763,-61.99,-174.891,-23.973,-4.613,-11.62,25.88,0.03058,-0.51486,-0.00992,-0.8566,630,0.633,0.038,0.778,-0.122,0.0,-0.305,2.719,-39.133,-108.968,-21.893,-5.767,-0.427,22.91,-0.55365,0.25961,0.21286,0.76199,622,0.632,0.059,0.768,0.183,0.427,-0.305,4.356,-39.348,167.212,-18.353,-8.4,-23.353,27.0,0.0914,0.33859,-0.00171,0.93643,624,0.84,0.145,0.499,-0.183,-0.427,0.0,16.342,-58.381,-136.115,-27.007,-9.8,-5.767,28.54,0.38718,-0.40121,-0.29538,-0.77573,634
157,0.898,-0.014,0.477,-0.183,-0.183,0.0,-1.769,-61.99,-174.908,-23.973,-4.613,-11.62,25.88,0.03058,-0.51486,-0.00992,-0.8566,631,0.632,0.04,0.779,-0.305,0.0,-0.305,2.725,-39.133,-108.973,-21.893,-5.767,-0.427,22.91,-0.55365,0.25961,0.21286,0.76199,623,0.63,0.061,0.769,0.0,-0.366,-0.122,4.362,-39.353,167.179,-18.353,-8.4,-23.353,27.0,0.0914,0.33859,-0.00171,0.93643,625,0.839,0.145,0.496,0.122,-0.305,0.061,16.348,-58.387,-136.11,-27.007,-9.8,-5.767,28.54,0.38718,-0.40121,-0.29538,-0.77573,635
158,0.899,-0.013,0.476,-0.122,-0.244,0.061,-1.769,-61.996,-174.93,-23.973,-4.613,-11.62,25.88,0.03058,-0.51486,-0.00992,-0.8566,636,0.631,0.039,0.778,-0.061,0.061,-0.061,2.725,-39.133,-108.979,-21.893,-5.767,-0.427,22.91,-0.55365,0.25961,0.21286,0.76199,632,0.631,0.064,0.769,0.183,0.061,0.0,4.367,-39.353,167.157,-18.353,-8.4,-23.353,27.0,0.0914,0.33859,-0.00171,0.93643,628,0.841,0.145,0.497,0.183,-0.244,0.061,16.353,-58.392,-136.11,-27.007,-9.8,-5.767,28.54,0.38718,-0.40121,-0.29538,-0.77573,644
159,0.9,-0.014,0.476,0.0,-0.305,0.061,-1.769,-62.001,-174.946,-23.973,-4.613,-11.62,25.88,0.03058,-0.51486,-0.00992,-0.8566,637,0.631,0.038,0.777,0.0,0.122,0.061,2.725,-39.128,-108.973,-21.893,-5.767,-0.427,22.91,-0.55365,0.25961,0.21286,0.76199,633,0.629,0.061,0.767,0.305,0.305,0.183,4.373,-39.348,167.151,-18.353,-8.4,-23.353,27.0,0.0914,0.33859,-0.00171,0.93643,629,0.841,0.146,0.496,0.122,-0.244,0.061,16.353,-58.392,-136.104,-27.007,-9.8,-5.767,28.54,0.38718,-0.40121,-0.29538,-0.77573,645
160,0.9,-0.014,0.476,0.0,-0.305,0.122,-1.769,-62.012,-174.957,-23.973,-4.613,-11.62,25.88,0.03058,-0.51486,-0.00992,-0.8566,642,0.632,0.038,0.777,-0.122,0.122,0.183,2.719,-39.128,-108.973,-21.893,-5.767,-0.427,22.91,-0.55365,0.25961,0.21286,0.76199,640,0.631,0.062,0.768,-0.183,0.061,0.061,4.373,-39.348,167.146,-18.353,-8.4,-23.353,27.0,0.0914,0.33859,-0.00171,0.93643,638,0.841,0.146,0.497,0.061,-0.244,0.0,16.359,-58.398,-136.104,-27.007,-9.8,-5.767,28.54,0.38718,-0.40121,-0.29538,-0.77573,650
161,0.9,-0.013,0.476,0.0,-0.244,0.0,-1.769,-62.018,-174.974,-23.973,-4.613,-11.62,25.88,0.03058,-0.51486,-0.00992,-0.8566,643,0.632,0.036,0.779,0.0,0.0,0.305,2.719,-39.122,-108.962,-21.893,-5.767,-0.427,22.91,-0.55365,0.25961,0.21286,0.76199,641,0.63,0.061,0.767,-0.122,0.366,0.061,4.373,-39.342,167.162,-18.353,-8.4,-23.353,27.0,0.0914,0.33859,-0.00171,0.93643,639,0.842,0.147,0.496,0.0,-0.244,0.0,16.364,-58.403,-136.099,-27.007,-9.8,-5.767,28.54,0.38718,-0.40121,-0.29538,-0.77573,651
162,0.901,-0.013,0.476,0.0,-0.244,0.0,-1.769,-62.023,-174.996,-23.973,-4.613,-11.62,25.88,0.03058,-0.51486,-0.00992,-0.8566,652,0.632,0.038,0.778,-0.061,0.0,0.305,2.714,-39.122,-108.957,-21.893,-5.767,-0.427,22.91,-0.55365,0.25961,0.21286,0.76199,646,0.63,0.059,0.768,-0.427,-0.122,0.122,4.362,-39.342,167.173,-18.353,-8.4,-23.353,27.0,0.0914,0.33859,-0.00171,0.93643,648,0.843,0.147,0.497,0.0,-0.244,0.0,16.364,-58.409,-136.099,-27.007,-9.8,-5.767,28.54,0.38718,-0.40121,-0.29538,-0.77573,656
163,0.904,-0.013,0.476,0.0,-0.244,0.0,-1.769,-62.029,-175.012,-23.973,-4.613,-11.62,25.88,0.03058,-0.51486,-0.00992,-0.8566,653,0.635,0.038,0.779,0.0,-0.061,0.244,2.708,-39.122,-108.946,-21.893,-5.767,-0.427,22.91,-0.55365,0.25961,0.21286,0.76199,647,0.633,0.061,0.769,-0.488,0.122,-0.122,4.356,-39.342,167.179,-18.353,-8.4,-23.353,27.0,0.0914,0.33859,-0.00171,0.93643,649,0.842,0.147,0.495,0.0,-0.305,0.0,16.37,-58.414,-136.099,-27.007,-9.8,-5.767,28.54,0.38718,-0.40121,-0.29538,-0.77573,657
164,0.902,-0.013,0.475,0.0,-0.305,0.0,-1.763,-62.034,-175.029,-23.973,-4.613,-11.62,25.88,0.03058,-0.51486,-0.00992,-0.8566,660,0.635,0.036,0.777,0.122,0.0,0.244,2.708,-39.122,-108.94,-21.893,-5.767,-0.427,22.91,-0.55365,0.25961,0.21286,0.76199,654,0.635,0.059,0.767,-0.122,0.122,0.0,4.356,-39.337,167.173,-17.787,-8.747,-23.473,27.0,0.0914,0.33859,-0.00171,0.93643,658,0.841,0.148,0.496,-0.122,-0.366,0.0,16.37,-58.42,-136.099,-27.007,-9.8,-5.767,28.54,0.38718,-0.40121,-0.29538,-0.77573,664
165,0.9,-0.012,0.475,-0.061,-0.244,0.0,-1.763,-62.04,-175.045,-23.973,-4.613,-11.62,25.88,0.03058,-0.51486,-0.00992,-0.8566,661,0.632,0.036,0.777,0.244,-0.061,0.244,2.708,-39.122,-108.935,-21.893,-5.767,-0.427,22.91,-0.55365,0.25961,0.21286,0.76199,655,0.635,0.06,0.767,0.061,0.0,0.061,4.356,-39.337,167.141,-17.787,-8.747,-23.473,27.0,0.0914,0.33859,-0.00171,0.93643,659,0.841,0.149,0.497,-0.488,-0.366,0.0,16.37,-58.425,-136.099,-27.007,-9.8,-5.767,28.54,0.38718,-0.40121,-0.29538,-0.77573,665
166,0.899,-0.011,0.476,-0.183,-0.366,0.0,-1.763,-62.051,-175.067,-24.34,-4.74,-11.433,25.88,0.03058,-0.51486,-0.00992,-0.8566,668,0.632,0.032,0.775,0.671,-0.061,0.122,2.714,-39.128,-108.929,-21.787,-5.133,-1.18,22.91,-0.55365,0.25961,0.21286,0.76199,666,0.632,0.055,0.764,1.038,-0.183,0.366,4.367,-39.342,167.119,-17.787,-8.747,-23.473,27.0,0.09277,0.33826,-0.00204,0.9364,662,0.842,0.144,0.495,-0.305,-0.305,0.0,16.364,-58.431,-136.099,-26.927,-9.587,-5.027,28.54,0.38718,-0.40121,-0.29538,-0.77573,686
167,0.898,-0.012,0.476,-0.244,-0.305,0.0,-1.763,-62.056,-175.084,-24.34,-4.74,-11.433,25.88,0.03058,-0.51486,-0.00992,-0.8566,669,0.634,0.033,0.775,0.671,-0.061,-0.305,2.73,-39.128,-108.929,-21.787,-5.133,-1.18,22.91,-0.55365,0.25961,0.21286,0.76199,667,0.631,0.05,0.763,1.77,-0.977,0.549,4.395,-39.359,167.08,-17.787,-8.747,-23.473,27.0,0.09277,0.33826,-0.00204,0.9364,663,0.841,0.142,0.493,0.0,-0.061,0.0,16.37,-58.431,-136.099,-26.927,-9.587,-5.027,28.54,0.38718,-0.40121,-0.29538,-0.77573,687
168,0.9,-0.014,0.474,-0.183,-0.183,0.0,-1.769,-62.062,-175.1,-24.34,-4.74,-11.433,25.88,0.02863,-0.51553,-0.00876,-0.85629,674,0.631,0.036,0.778,0.305,-0.183,-0.61,2.747,-39.128,-108.94,-21.787,-5.133,-1.18,22.91,-0.55389,0.25931,0.21292,0.7619,670,0.629,0.06,0.768,1.099,-0.732,0.0,4.417,-39.375,167.003,-17.787,-8.747,-23.473,27.0,0.09277,0.33826,-0.00204,0.9364,672,0.845,0.145,0.495,0.427,0.122,0.0,16.375,-58.431,-136.093,-26.927,-9.587,-5.027,28.54,0.38742,-0.40161,-0.2959,-0.77521,688
169,0.904,-0.015,0.475,0.0,-0.122,0.0,-1.769,-62.067,-175.117,-24.34,-4.74,-11.433,25.88,0.02863,-0.51553,-0.00876,-0.85629,675,0.636,0.038,0.775,-0.244,0.061,-0.366,2.752,-39.128,-108.951,-21.787,-5.133,-1.18,22.91,-0.55389,0.25931,0.21292,0.7619,671,0.628,0.061,0.769,0.244,-0.061,-0.427,4.427,-39.38,166.954,-17.787,-8.747,-23.473,27.0,0.09277,0.33826,-0.00204,0.9364,673,0.847,0.146,0.496,0.305,0.244,0.0,16.381,-58.425,-136.088,-26.927,-9.587,-5.027,28.54,0.38742,-0.40161,-0.2959,-0.77521,689
170,0.906,-0.014,0.476,0.061,-0.061,0.0,-1.763,-62.067,-175.133,-24.34,-4.74,-11.433,25.88,0.02863,-0.51553,-0.00876,-0.85629,680,0.64,0.046,0.774,-0.549,0.122,0.0,2.747,-39.128,-108.957,-21.787,-5.133,-1.18,22.91,-0.55389,0.25931,0.21292,0.7619,678,0.641,0.07,0.766,-1.526,0.488,-0.122,4.411,-39.375,166.926,-17.787,-8.747,-23.473,27.0,0.09277,0.33826,-0.00204,0.9364,676,0.849,0.146,0.498,0.122,0.061,0.0,16.381,-58.425,-136.082,-26.927,-9.587,-5.027,28.54,0.38742,-0.40161,-0.2959,-0.77521,696
171,0.909,-0.014,0.476,0.061,0.0,0.0,-1.763,-62.073,-175.15,-24.34,-4.74,-11.433,25.88,0.02863,-0.51553,-0.00876,-0.85629,681,0.638,0.04,0.779,-0.305,0.244,0.305,2.736,-39.122,-108.951,-21.787,-5.133,-1.18,22.91,-0.55389,0.25931,0.21292,0.7619,679,0.639,0.068,0.762,-1.038,1.648,-0.977,4.4,-39.348,166.893,-17.787,-8.747,-23.473,27.0,0.09277,0.33826,-0.00204,0.9364,677,0.844,0.148,0.495,0.122,0.061,0.0,16.386,-58.425,-136.077,-26.927,-9.587,-5.027,28.54,0.38742,-0.40161,-0.2959,-0.77521,697
172,0.906,-0.014,0.476,0.061,0.0,0.0,-1.758,-62.073,-175.166,-24.34,-4.74,-11.433,25.88,0.02863,-0.51553,-0.00876,-0.85629,690,0.634,0.036,0.781,-0.244,0.183,0.427,2.725,-39.122,-108.94,-21.787,-5.133,-1.18,22.91,-0.55389,0.25931,0.21292,0.7619,682,0.635,0.059,0.77,-0.854,0.305,0.0,4.389,-39.331,166.877,-17.787,-8.747,-23.473,27.0,0.09277,0.33826,-0.00204,0.9364,684,0.84,0.147,0.495,0.0,0.061,0.0,16.386,-58.425,-136.071,-26.927,-9.587,-5.027,28.54,0.38742,-0.40161,-0.2959,-0.77521,704
173,0.898,-0.014,0.474,0.0,0.122,0.0,-1.758,-62.073,-175.182,-24.34,-4.74,-11.433,25.88,0.02863,-0.51553,-0.00876,-0.85629,691,0.634,0.035,0.78,0.122,0.183,0.366,2.719,-39.122,-108.929,-21.787,-5.133,-1.18,22.91,-0.55389,0.25931,0.21292,0.7619,683,0.635,0.058,0.77,0.122,0.732,0.122,4.384,-39.326,166.833,-17.787,-8.747,-23.473,27.0,0.09277,0.33826,-0.00204,0.9364,685,0.838,0.144,0.496,-0.061,0.0,0.0,16.386,-58.425,-136.071,-26.927,-9.587,-5.027,28.54,0.38742,-0.40161,-0.2959,-0.77521,705
174,0.896,-0.015,0.473,-0.061,0.0,0.0,-1.758,-62.073,-175.199,-24.34,-4.74,-11.433,25.88,0.02863,-0.51553,-0.00876,-0.85629,698,0.631,0.031,0.778,0.305,0.183,0.061,2.719,-39.117,-108.924,-21.787,-5.133,-1.18,22.91,-0.55389,0.25931,0.21292,0.7619,692,0.631,0.053,0.768,0.916,-0.305,0.732,4.395,-39.326,166.767,-17.787,-8.747,-23.473,27.0,0.09277,0.33826,-0.00204,0.9364,694,0.838,0.144,0.491,-0.183,-0.122,0.0,16.381,-58.431,-136.071,-26.927,-9.587,-5.027,28.54,0.38742,-0.40161,-0.2959,-0.77521,710
175,0.898,-0.014,0.47,-0.061,0.0,0.0,-1.758,-62.078,-175.215,-24.34,-4.74,-11.433,25.88,0.02863,-0.51553,-0.00876,-0.85629,699,0.631,0.032,0.777,0.183,0.061,-0.244,2.725,-39.117,-108.924,-21.787,-5.133,-1.18,22.91,-0.55389,0.25931,0.21292,0.7619,693,0.628,0.052,0.768,0.977,-0.793,0.549,4.4,-39.342,166.668,-17.787,-8.747,-23.473,27.0,0.09277,0.33826,-0.00204,0.9364,695,0.839,0.145,0.493,0.061,-0.061,0.0,16.386,-58.431,-136.066,-26.927,-9.587,-5.027,28.54,0.38742,-0.40161,-0.2959,-0.77521,711
176,0.899,-0.012,0.473,-0.061,0.0,0.0,-1.758,-62.078,-175.232,-24.34,-4.74,-11.433,25.88,0.02863,-0.51553,-0.00876,-0.85629,706,0.632,0.035,0.775,0.183,0.061,-0.244,2.73,-39.117,-108.929,-21.787,-5.133,-1.18,22.91,-0.55389,0.25931,0.21292,0.7619,702,0.631,0.057,0.766,0.305,-0.305,-0.244,4.411,-39.353,166.597,-17.787,-8.747,-23.473,27.0,0.09277,0.33826,-0.00204,0.9364,700,0.842,0.145,0.496,0.305,0.0,0.0,16.392,-58.431,-136.066,-26.927,-9.587,-5.027,28.54,0.38742,-0.40161,-0.2959,-0.77521,714
177,0.901,-0.012,0.475,0.0,-0.061,0.0,-1.758,-62.078,-175.248,-24.34,-4.74,-11.433,25.88,0.02863,-0.51553,-0.00876,-0.85629,707,0.63,0.035,0.773,0.244,0.0,-0.122,2.736,-39.111,-108.935,-21.787,-5.133,-1.18,22.91,-0.55389,0.25931,0.21292,0.7619,703,0.63,0.059,0.763,0.183,0.122,-0.366,4.422,-39.353,166.586,-17.787,-8.747,-23.473,27.0,0.09277,0.33826,-0.00204,0.9364,701,0.844,0.145,0.497,0.427,0.061,0.0,16.397,-58.431,-136.06,-26.927,-9.587,-5.027,28.54,0.38742,-0.40161,-0.2959,-0.77521,715
178,0.902,-0.013,0.477,0.0,-0.061,0.0,-1.752,-62.084,-175.259,-24.34,-4.74,-11.433,25.88,0.02863,-0.51553,-0.00876,-0.85629,716,0.632,0.037,0.775,0.427,-0.061,0.061,2.741,-39.117,-108.935,-21.787,-5.133,-1.18,22.91,-0.55389,0.25931,0.21292,0.7619,712,0.63,0.06,0.764,0.0,0.183,-0.244,4.427,-39.353,166.591,-17.787,-8.747,-23.473,27.0,0.09277,0.33826,-0.00204,0.9364,708,0.844,0.146,0.498,0.488,0.183,0.0,16.403,-58.431,-136.055,-26.927,-9.587,-5.027,28.54,0.38742,-0.40161,-0.2959,-0.77521,722
179,0.903,-0.014,0.478,0.0,0.0,0.0,-1.752,-62.084,-175.276,-24.34,-4.74,-11.433,25.88,0.02863,-0.51553,-0.00876,-0.85629,717,0.633,0.037,0.778,0.305,0.061,0.061,2.747,-39.117,-108.929,-21.787,-5.133,-1.18,22.91,-0.55389,0.25931,0.21292,0.7619,713,0.631,0.06,0.765,0.0,0.244,-0.366,4.427,-39.348,166.624,-17.787,-8.747,-23.473,27.0,0.09277,0.33826,-0.00204,0.9364,709,0.841,0.148,0.499,0.366,0.244,0.0,16.408,-58.425,-136.049,-26.927,-9.587,-5.027,28.54,0.38742,-0.40161,-0.2959,-0.77521,723
180,0.902,-0.014,0.478,0.0,0.0,0.0,-1.752,-62.089,-175.292,-24.34,-4.74,-11.433,25.88,0.02863,-0.51553,-0.00876,-0.85629,724,0.635,0.038,0.781,0.0,0.061,0.0,2.747,-39.117,-108.929,-21.787,-5.133,-1.18,22.91,-0.55389,0.25931,0.21292,0.7619,720,0.633,0.061,0.77,-0.488,0.0,-0.244,4.427,-39.348,166.608,-17.787,-8.747,-23.473,27.0,0.09277,0.33826,-0.00204,0.9364,718,0.84,0.147,0.498,0.061,0.122,0.0,16.408,-58.42,-136.044,-26.927,-9.587,-5.027,28.54,0.38742,-0.40161,-0.2959,-0.77521,726
181,0.9,-0.014,0.477,0.0,0.0,0.0,-1.752,-62.089,-175.309,-24.34,-4.74,-11.433,25.88,0.02863,-0.51553,-0.00876,-0.85629,725,0.634,0.039,0.781,-0.061,0.122,0.0,2.747,-39.111,-108.929,-21.787,-5.133,-1.18,22.91,-0.55389,0.25931,0.21292,0.7619,721,0.634,0.062,0.772,-0.305,0.549,-0.183,4.422,-39.337,166.646,-17.787,-8.747,-23.473,27.0,0.09277,0.33826,-0.00204,0.9364,719,0.84,0.148,0.497,-0.122,0.061,0.0,16.408,-58.42,-136.038,-26.927,-9.587,-5.027,28.54,0.38742,-0.40161,-0.2959,-0.77521,727
182,0.9,-0.015,0.476,0.0,0.0,0.0,-1.752,-62.089,-175.32,-23.94,-4.607,-12.013,25.88,0.02863,-0.51553,-0.00876,-0.85629,732,0.632,0.037,0.782,0.061,0.183,0.0,2.747,-39.111,-108.929,-21.787,-5.133,-1.18,22.91,-0.55389,0.25931,0.21292,0.7619,728,0.63,0.06,0.769,-0.183,-0.061,0.0,4.422,-39.337,166.712,-17.92,-8.813,-23.447,27.0,0.09277,0.33826,-0.00204,0.9364,730,0.838,0.148,0.493,-0.244,0.061,0.0,16.408,-58.42,-136.038,-26.927,-9.587,-5.027,28.54,0.38742,-0.40161,-0.2959,-0.77521,738
183,0.9,-0.014,0.476,0.0,0.0,0.0,-1.747,-62.089,-175.336,-23.94,-4.607,-12.013,25.88,0.02863,-0.51553,-0.00876,-0.85629,733,0.633,0.04,0.778,-0.122,0.427,-0.122,2.747,-39.1,-108.929,-21.787,-5.133,-1.18,22.91,-0.55389,0.25931,0.21292,0.7619,729,0.632,0.059,0.769,-0.061,0.061,0.122,4.417,-39.337,166.761,-17.92,-8.813,-23.447,27.0,0.09277,0.33826,-0.00204,0.9364,731,0.839,0.146,0.497,0.0,0.122,0.0,16.403,-58.414,-136.033,-26.927,-9.587,-5.027,28.54,0.38742,-0.40161,-0.2959,-0.77521,739
184,0.898,-0.012,0.474,0.0,0.122,0.0,-1.747,-62.089,-175.353,-23.94,-4.607,-12.013,25.88,0.02686,-0.51575,-0.00781,-0.85623,740,0.632,0.043,0.777,-0.122,0.122,-0.183,2.747,-39.095,-108.929,-21.647,-5.433,-1.413,22.91,-0.55389,0.25931,0.21292,0.7619,734,0.631,0.066,0.768,-0.366,0.305,-0.305,4.417,-39.331,166.794,-17.92,-8.813,-23.447,27.0,0.09525,0.33823,-0.00259,0.93619,736,0.842,0.146,0.495,0.122,0.122,0.0,16.403,-58.414,-136.027,-26.927,-9.587,-5.027,28.54,0.38742,-0.40161,-0.2959,-0.77521,742
185,0.9,-0.012,0.474,0.0,0.122,0.0,-1.747,-62.089,-175.364,-23.94,-4.607,-12.013,25.88,0.02686,-0.51575,-0.00781,-0.85623,741,0.629,0.038,0.779,0.0,0.122,0.0,2.747,-39.095,-108.929,-21.647,-5.433,-1.413,22.91,-0.55389,0.25931,0.21292,0.7619,735,0.63,0.064,0.768,0.061,0.061,-0.366,4.422,-39.331,166.794,-17.92,-8.813,-23.447,27.0,0.09525,0.33823,-0.00259,0.93619,737,0.842,0.147,0.495,0.122,0.061,0.0,16.408,-58.409,-136.022,-26.927,-9.587,-5.027,28.54,0.38742,-0.40161,-0.2959,-0.77521,743
186,0.901,-0.013,0.474,0.0,0.0,0.0,-1.747,-62.089,-175.38,-23.94,-4.607,-12.013,25.88,0.02686,-0.51575,-0.00781,-0.85623,744,0.629,0.037,0.776,-0.183,0.183,0.0,2.747,-39.089,-108.929,-21.647,-5.433,-1.413,22.91,-0.55389,0.25931,0.21292,0.7619,746,0.627,0.06,0.766,-0.305,0.488,0.0,4.417,-39.32,166.8,-17.92,-8.813,-23.447,27.0,0.09525,0.33823,-0.00259,0.93619,748,0.844,0.148,0.496,0.122,0.0,0.0,16.408,-58.409,-136.022,-27.033,-9.367,-5.753,28.54,0.38742,-0.40161,-0.2959,-0.77521,758
187,0.902,-0.012,0.474,0.0,0.0,0.0,-1.741,-62.089,-175.391,-23.94,-4.607,-12.013,25.88,0.02686,-0.51575,-0.00781,-0.85623,745,0.632,0.039,0.779,-0.122,0.0,0.061,2.741,-39.089,-108.929,-21.647,-5.433,-1.413,22.91,-0.55389,0.25931,0.21292,0.7619,747,0.63,0.061,0.769,-0.61,-0.305,-0.244,4.411,-39.326,166.8,-17.92,-8.813,-23.447,27.0,0.09525,0.33823,-0.00259,0.93619,749,0.845,0.147,0.496,0.244,0.0,0.0,16.414,-58.409,-136.016,-27.033,-9.367,-5.753,28.54,0.38742,-0.40161,-0.2959,-0.77521,759
188,0.904,-0.011,0.474,0.0,-0.061,0.0,-1.741,-62.089,-175.408,-23.94,-4.607,-12.013,25.88,0.02686,-0.51575,-0.00781,-0.85623,754,0.633,0.04,0.779,-0.122,0.0,0.122,2.741,-39.089,-108.924,-21.647,-5.433,-1.413,22.91,-0.55402,0.25903,0.21274,0.76196,750,0.631,0.062,0.769,-0.854,0.366,-0.183,4.4,-39.32,166.805,-17.92,-8.813,-23.447,27.0,0.09525,0.33823,-0.00259,0.93619,752,0.843,0.148,0.497,0.366,0.0,0.0,16.419,-58.409,-136.016,-27.033,-9.367,-5.753,28.54,0.38809,-0.40109,-0.29642,-0.77493,764
189,0.904,-0.013,0.475,0.0,0.0,0.0,-1.736,-62.095,-175.419,-23.94,-4.607,-12.013,25.88,0.02686,-0.51575,-0.00781,-0.85623,755,0.636,0.038,0.78,-0.122,0.0,0.183,2.736,-39.089,-108.918,-21.647,-5.433,-1.413,22.91,-0.55402,0.25903,0.21274,0.76196,751,0.633,0.062,0.77,-0.793,0.0,-0.244,4.389,-39.315,166.805,-17.92,-8.813,-23.447,27.0,0.09525,0.33823,-0.00259,0.93619,753,0.841,0.151,0.496,0.183,0.061,0.0,16.43,-58.409,-136.011,-27.033,-9.367,-5.753,28.54,0.38809,-0.40109,-0.29642,-0.77493,765
190,0.903,-0.014,0.476,0.0,0.0,0.0,-1.736,-62.095,-175.435,-23.94,-4.607,-12.013,25.88,0.02686,-0.51575,-0.00781,-0.85623,762,0.636,0.04,0.78,-0.183,0.183,0.366,2.73,-39.084,-108.913,-21.647,-5.433,-1.413,22.91,-0.55402,0.25903,0.21274,0.76196,760,0.635,0.062,0.77,-1.282,0.305,0.0,4.373,-39.315,166.811,-17.92,-8.813,-23.447,27.0,0.09525,0.33823,-0.00259,0.93619,756,0.838,0.151,0.494,-0.061,0.0,0.0,16.436,-58.409,-136.011,-27.033,-9.367,-5.753,28.54,0.38809,-0.40109,-0.29642,-0.77493,776
191,0.901,-0.012,0.475,0.0,0.0,0.0,-1.736,-62.095,-175.446,-23.94,-4.607,-12.013,25.88,0.02686,-0.51575,-0.00781,-0.85623,763,0.633,0.041,0.778,-0.183,0.244,0.61,2.719,-39.078,-108.896,-21.647,-5.433,-1.413,22.91,-0.55402,0.25903,0.21274,0.76196,761,0.634,0.063,0.769,-1.343,0.427,-0.122,4.351,-39.304,166.805,-17.92,-8.813,-23.447,27.0,0.09525,0.33823,-0.00259,0.93619,757,0.837,0.152,0.497,-0.305,-0.122,0.0,16.436,-58.409,-136.005,-27.033,-9.367,-5.753,28.54,0.38809,-0.40109,-0.29642,-0.77493,777
192,0.9,-0.011,0.473,0.061,0.061,0.0,-1.73,-62.095,-175.457,-23.94,-4.607,-12.013,25.88,0.02686,-0.51575,-0.00781,-0.85623,770,0.631,0.04,0.777,-0.061,0.244,0.366,2.714,-39.078,-108.885,-21.647,-5.433,-1.413,22.91,-0.55402,0.25903,0.21274,0.76196,766,0.631,0.061,0.765,-0.854,0.183,0.0,4.334,-39.298,166.778,-17.92,-8.813,-23.447,27.0,0.09525,0.33823,-0.00259,0.93619,768,0.838,0.151,0.498,-0.732,-0.244,0.0,16.43,-58.414,-136.005,-27.033,-9.367,-5.753,28.54,0.38809,-0.40109,-0.29642,-0.77493,778
193,0.898,-0.01,0.475,0.0,0.0,0.0,-1.725,-62.095,-175.474,-23.94,-4.607,-12.013,25.88,0.02686,-0.51575,-0.00781,-0.85623,771,0.63,0.04,0.78,-0.122,0.122,0.122,2.708,-39.073,-108.88,-21.647,-5.433,-1.413,22.91,-0.55402,0.25903,0.21274,0.76196,767,0.63,0.06,0.768,-0.366,-0.122,0.0,4.323,-39.304,166.789,-17.92,-8.813,-23.447,27.0,0.09525,0.33823,-0.00259,0.93619,769,0.839,0.148,0.496,-1.099,-0.244,0.0,16.425,-58.414,-136.005,-27.033,-9.367,-5.753,28.54,0.38809,-0.40109,-0.29642,-0.77493,779
194,0.897,-0.009,0.475,-0.305,-0.183,0.0,-1.73,-62.1,-175.485,-23.94,-4.607,-12.013,25.88,0.02686,-0.51575,-0.00781,-0.85623,780,0.627,0.037,0.777,0.0,0.0,0.0,2.708,-39.073,-108.88,-21.647,-5.433,-1.413,22.91,-0.55402,0.25903,0.21274,0.76196,772,0.631,0.06,0.767,0.122,-0.061,0.061,4.329,-39.304,166.805,-17.92,-8.813,-23.447,27.0,0.09525,0.33823,-0.00259,0.93619,774,0.841,0.146,0.497,-1.038,-0.183,0.0,16.408,-58.42,-136.005,-27.033,-9.367,-5.753,28.54,0.38809,-0.40109,-0.29642,-0.77493,786
195,0.897,-0.01,0.475,-0.488,-0.305,0.0,-1.736,-62.106,-175.496,-23.94,-4.607,-12.013,25.88,0.02686,-0.51575,-0.00781,-0.85623,781,0.625,0.031,0.776,0.366,0.0,-0.427,2.719,-39.073,-108.885,-21.647,-5.433,-1.413,22.91,-0.55402,0.25903,0.21274,0.76196,773,0.626,0.05,0.762,1.953,-0.732,0.366,4.356,-39.315,166.844,-17.92,-8.813,-23.447,27.0,0.09525,0.33823,-0.00259,0.93619,775,0.843,0.144,0.498,-0.488,-0.122,0.0,16.392,-58.42,-136.005,-27.033,-9.367,-5.753,28.54,0.38809,-0.40109,-0.29642,-0.77493,787
196,0.9,-0.01,0.476,-0.549,-0.244,0.0,-1.741,-62.111,-175.507,-24.047,-4.207,-11.247,25.88,0.02686,-0.51575,-0.00781,-0.85623,788,0.628,0.034,0.779,0.061,-0.244,-1.16,2.741,-39.073,-108.902,-21.647,-5.433,-1.413,22.91,-0.55402,0.25903,0.21274,0.76196,784,0.621,0.05,0.768,2.136,-1.892,0.244,4.395,-39.348,166.893,-17.92,-8.813,-23.447,27.0,0.09525,0.33823,-0.00259,0.93619,782,0.845,0.143,0.499,0.061,-0.122,-0.366,16.392,-58.42,-136.005,-27.033,-9.367,-5.753,28.54,0.38809,-0.40109,-0.29642,-0.77493,792
197,0.903,-0.012,0.477,-0.427,-0.183,0.0,-1.747,-62.117,-175.523,-24.047,-4.207,-11.247,25.88,0.02686,-0.51575,-0.00781,-0.85623,789,0.631,0.039,0.781,-0.671,-0.427,-1.404,2.752,-39.078,-108.935,-21.647,-5.433,-1.413,22.91,-0.55402,0.25903,0.21274,0.76196,785,0.628,0.061,0.774,0.488,-1.221,-0.793,4.417,-39.37,166.899,-17.92,-8.813,-23.447,27.0,0.09525,0.33823,-0.00259,0.93619,783,0.843,0.144,0.499,0.366,-0.183,-0.366,16.408,-58.42,-136.022,-27.033,-9.367,-5.753,28.54,0.38809,-0.40109,-0.29642,-0.77493,793
198,0.904,-0.016,0.477,-0.244,-0.061,0.0,-1.747,-62.122,-175.534,-24.047,-4.207,-11.247,25.88,0.02686,-0.51575,-0.00781,-0.85623,796,0.634,0.041,0.783,-1.221,-0.427,-1.099,2.752,-39.084,-108.957,-21.647,-5.433,-1.413,22.91,-0.55402,0.25903,0.21274,0.76196,790,0.631,0.065,0.774,-1.16,0.0,-1.465,4.417,-39.37,166.915,-17.92,-8.813,-23.447,27.0,0.09525,0.33823,-0.00259,0.93619,794,0.841,0.146,0.5,0.0,-0.305,-0.244,16.43,-58.425,-136.033,-27.033,-9.367,-5.753,28.54,0.38809,-0.40109,-0.29642,-0.77493,802
199,0.903,-0.017,0.476,-0.183,-0.122,0.0,-1.747,-62.122,-175.545,-24.047,-4.207,-11.247,25.88,0.02686,-0.51575,-0.00781,-0.85623,797,0.635,0.04,0.784,-1.587,-0.305,-0.427,2.73,-39.089,-108.962,-21.647,-5.433,-1.413,22.91,-0.55402,0.25903,0.21274,0.76196,791,0.635,0.068,0.775,-2.808,0.0,-1.77,4.395,-39.364,166.948,-17.92,-8.813,-23.447,27.0,0.09525,0.33823,-0.00259,0.93619,795,0.839,0.146,0.497,-0.366,-0.366,-0.061,16.43,-58.425,-136.038,-27.033,-9.367,-5.753,28.54,0.38809,-0.40109,-0.29642,-0.77493,803
200,0.901,-0.017,0.477,-0.183,-0.244,0.0,-1.752,-62.128,-175.556,-24.047,-4.207,-11.247,25.88,0.02542,-0.51599,-0.00699,-0.85614,804,0.631,0.038,0.783,-1.465,-0.061,0.0,2.703,-39.089,-108.962,-21.647,-5.433,-1.413,22.91,-0.55402,0.25903,0.21274,0.76196,798,0.636,0.064,0.771,-2.625,0.427,-1.099,4.362,-39.348,167.003,-17.94,-8.467,-22.887,27.0,0.09525,0.33823,-0.00259,0.93619,800,0.839,0.145,0.498,-0.427,-0.549,0.183,16.425,-58.436,-136.038,-27.033,-9.367,-5.753,28.54,0.38809,-0.40109,-0.29642,-0.77493,810
201,0.899,-0.016,0.475,-0.244,-0.305,0.0,-1.752,-62.133,-175.567,-24.047,-4.207,-11.247,25.88,0.02542,-0.51599,-0.00699,-0.85614,805,0.629,0.037,0.781,-1.221,-0.061,0.0,2.681,-39.089,-108.962,-21.647,-5.433,-1.413,22.91,-0.55402,0.25903,0.21274,0.76196,799,0.627,0.058,0.768,-1.892,-0.061,-0.305,4.329,-39.348,167.091,-17.94,-8.467,-22.887,27.0,0.09525,0.33823,-0.00259,0.93619,801,0.839,0.144,0.497,-0.305,-0.61,0.244,16.414,-58.447,-136.033,-27.033,-9.367,-5.753,28.54,0.38809,-0.40109,-0.29642,-0.77493,811
202,0.898,-0.017,0.474,-0.244,-0.366,0.0,-1.758,-62.139,-175.578,-24.047,-4.207,-11.247,25.88,0.02542,-0.51599,-0.00699,-0.85614,812,0.629,0.038,0.784,-1.526,-0.427,-0.183,2.653,-39.089,-108.946,-21.647,-5.433,-1.413,22.91,-0.55402,0.25903,0.21274,0.76196,808,0.627,0.059,0.773,-1.831,-1.099,-0.122,4.301,-39.37,167.168,-17.94,-8.467,-22.887,27.0,0.09525,0.33823,-0.00259,0.93619,806,0.842,0.144,0.496,-0.122,-0.671,0.366,16.408,-58.458,-136.027,-27.033,-9.367,-5.753,28.54,0.38809,-0.40109,-0.29642,-0.77493,820
203,0.899,-0.018,0.474,-0.122,-0.488,0.0,-1.763,-62.15,-175.589,-24.047,-4.207,-11.247,25.88,0.02542,-0.51599,-0.00699,-0.85614,813,0.63,0.039,0.779,-1.709,-0.488,-0.244,2.626,-39.1,-108.929,-21.647,-5.433,-1.413,22.91,-0.55402,0.25903,0.21274,0.76196,809,0.63,0.062,0.77,-2.075,-0.244,-0.366,4.268,-39.37,167.168,-17.94,-8.467,-22.887,27.0,0.09525,0.33823,-0.00259,0.93619,807,0.841,0.143,0.494,0.183,-0.671,0.427,16.403,-58.475,-136.016,-27.033,-9.367,-5.753,28.54,0.38809,-0.40109,-0.29642,-0.77493,821
204,0.901,-0.015,0.474,0.0,-0.671,0.0,-1.769,-62.161,-175.6,-24.047,-4.207,-11.247,25.88,0.02542,-0.51599,-0.00699,-0.85614,818,0.631,0.036,0.778,-1.465,-0.671,0.0,2.598,-39.106,-108.913,-22.027,-4.993,-1.193,22.91,-0.55402,0.25903,0.21274,0.76196,814,0.632,0.06,0.766,-2.014,-0.61,-0.183,4.235,-39.38,167.162,-17.94,-8.467,-22.887,27.0,0.09262,0.33844,-0.00275,0.93637,816,0.84,0.147,0.491,-0.122,-0.549,0.183,16.397,-58.486,-136.011,-27.527,-9.68,-5.447,28.54,0.38809,-0.40109,-0.29642,-0.77493,828
205,0.901,-0.016,0.472,0.0,-0.732,0.0,-1.769,-62.177,-175.611,-24.047,-4.207,-11.247,25.88,0.02542,-0.51599,-0.00699,-0.85614,819,0.632,0.032,0.777,-0.61,-0.427,0.366,2.582,-39.117,-108.891,-22.027,-4.993,-1.193,22.91,-0.55402,0.25903,0.21274,0.76196,815,0.634,0.057,0.764,-1.099,-0.244,0.0,4.213,-39.386,167.151,-17.94,-8.467,-22.887,27.0,0.09262,0.33844,-0.00275,0.93637,817,0.844,0.149,0.494,-0.183,-0.427,0.183,16.392,-58.497,-136.011,-27.527,-9.68,-5.447,28.54,0.38809,-0.40109,-0.29642,-0.77493,829
206,0.901,-0.012,0.471,0.0,-0.488,0.0,-1.769,-62.188,-175.622,-24.047,-4.207,-11.247,25.88,0.02542,-0.51599,-0.00699,-0.85614,826,0.629,0.025,0.776,0.244,-0.305,0.732,2.571,-39.122,-108.875,-22.027,-4.993,-1.193,22.91,-0.55396,0.25998,0.21188,0.76193,822,0.63,0.051,0.762,0.61,-0.183,0.671,4.219,-39.386,167.13,-17.94,-8.467,-22.887,27.0,0.09262,0.33844,-0.00275,0.93637,824,0.849,0.148,0.495,0.183,-0.305,0.305,16.386,-58.502,-136.0,-27.527,-9.68,-5.447,28.54,0.38809,-0.40109,-0.29642,-0.77493,834
207,0.904,-0.01,0.473,0.0,-0.488,0.0,-1.769,-62.199,-175.633,-24.047,-4.207,-11.247,25.88,0.02542,-0.51599,-0.00699,-0.85614,827,0.635,0.031,0.771,0.549,-0.183,0.61,2.571,-39.122,-108.858,-22.027,-4.993,-1.193,22.91,-0.55396,0.25998,0.21188,0.76193,823,0.63,0.047,0.759,1.404,-0.916,1.526,4.224,-39.408,167.141,-17.94,-8.467,-22.887,27.0,0.09262,0.33844,-0.00275,0.93637,825,0.852,0.148,0.496,0.549,-0.244,0.244,16.392,-58.508,-135.989,-27.527,-9.68,-5.447,28.54,0.38809,-0.40109,-0.29642,-0.77493,835
208,0.909,-0.011,0.474,0.0,-0.427,0.0,-1.769,-62.21,-175.644,-24.047,-4.207,-11.247,25.88,0.02542,-0.51599,-0.00699,-0.85614,836,0.641,0.039,0.776,0.549,-0.61,0.305,2.576,-39.133,-108.842,-22.027,-4.993,-1.193,22.91,-0.55396,0.25998,0.21188,0.76193,832,0.64,0.06,0.765,0.793,-0.793,0.732,4.23,-39.424,167.141,-17.94,-8.467,-22.887,27.0,0.09262,0.33844,-0.00275,0.93637,830,0.847,0.147,0.491,0.916,-0.122,0.244,16.397,-58.513,-135.983,-27.527,-9.68,-5.447,28.54,0.38809,-0.40186,-0.29651,-0.77451,840
209,0.911,-0.012,0.474,0.305,-0.366,0.305,-1.774,-62.216,-175.644,-24.047,-4.207,-11.247,25.88,0.02542,-0.51599,-0.00699,-0.85614,837,0.642,0.039,0.779,0.488,-0.671,0.366,2.582,-39.144,-108.825,-22.027,-4.993,-1.193,22.91,-0.55396,0.25998,0.21188,0.76193,833,0.639,0.062,0.766,0.977,0.427,0.366,4.241,-39.419,167.157,-17.94,-8.467,-22.887,27.0,0.09262,0.33844,-0.00275,0.93637,831,0.846,0.15,0.497,1.038,-0.061,0.366,16.414,-58.519,-135.972,-27.527,-9.68,-5.447,28.54,0.38809,-0.40186,-0.29651,-0.77451,841
210,0.909,-0.013,0.472,0.488,-0.122,0.305,-1.774,-62.221,-175.638,-24.047,-4.207,-11.247,25.88,0.02542,-0.51599,-0.00699,-0.85614,844,0.64,0.039,0.782,0.549,-0.366,0.977,2.576,-39.155,-108.809,-22.027,-4.993,-1.193,22.91,-0.55396,0.25998,0.21188,0.76193,842,0.639,0.067,0.771,-0.061,0.122,0.427,4.235,-39.419,167.201,-17.94,-8.467,-22.887,27.0,0.09262,0.33844,-0.00275,0.93637,838,0.842,0.151,0.494,0.549,-0.183,0.427,16.419,-58.524,-135.956,-27.527,-9.68,-5.447,28.54,0.38809,-0.40186,-0.29651,-0.77451,850
211,0.905,-0.013,0.473,0.366,-0.061,0.305,-1.774,-62.227,-175.638,-24.047,-4.207,-11.247,25.88,0.02542,-0.51599,-0.00699,-0.85614,845,0.638,0.04,0.779,0.732,0.183,1.648,2.571,-39.155,-108.781,-22.027,-4.993,-1.193,22.91,-0.55396,0.25998,0.21188,0.76193,843,0.638,0.065,0.769,0.0,1.16,0.977,4.224,-39.397,167.25,-17.94,-8.467,-22.887,27.0,0.09262,0.33844,-0.00275,0.93637,839,0.837,0.151,0.489,0.0,-0.305,0.549,16.414,-58.53,-135.939,-27.527,-9.68,-5.447,28.54,0.38809,-0.40186,-0.29651,-0.77451,851
212,0.9,-0.012,0.471,0.305,-0.122,0.305,-1.78,-62.227,-175.633,-23.987,-4.64,-11.547,25.88,0.02542,-0.51599,-0.00699,-0.85614,852,0.636,0.039,0.778,0.671,0.061,1.648,2.56,-39.155,-108.748,-22.027,-4.993,-1.193,22.91,-0.55396,0.25998,0.21188,0.76193,846,0.637,0.062,0.767,-0.732,0.244,1.038,4.191,-39.397,167.283,-17.94,-8.467,-22.887,27.0,0.09262,0.33844,-0.00275,0.93637,848,0.837,0.15,0.491,-0.244,-0.366,0.549,16.403,-58.541,-135.917,-27.527,-9.68,-5.447,28.54,0.38809,-0.40186,-0.29651,-0.77451,856
213,0.898,-0.01,0.469,0.183,-0.061,0.366,-1.785,-62.232,-175.627,-23.987,-4.64,-11.547,25.88,0.02542,-0.51599,-0.00699,-0.85614,853,0.633,0.035,0.772,0.977,0.0,1.221,2.56,-39.161,-108.71,-22.027,-4.993,-1.193,22.91,-0.55396,0.25998,0.21188,0.76193,847,0.634,0.053,0.762,0.549,0.305,0.61,4.197,-39.391,167.278,-17.94,-8.467,-22.887,27.0,0.09262,0.33844,-0.00275,0.93637,849,0.841,0.147,0.491,-0.305,-0.305,0.488,16.386,-58.552,-135.901,-27.527,-9.68,-5.447,28.54,0.38809,-0.40186,-0.29651,-0.77451,857
214,0.898,-0.01,0.469,0.0,-0.183,0.427,-1.796,-62.238,-175.622,-23.987,-4.64,-11.547,25.88,0.02457,-0.51688,-0.00629,-0.85562,860,0.631,0.034,0.773,0.854,-0.061,0.549,2.571,-39.161,-108.693,-22.027,-4.993,-1.193,22.91,-0.55396,0.25998,0.21188,0.76193,854,0.627,0.052,0.761,1.099,-0.793,0.854,4.208,-39.413,167.267,-17.94,-8.467,-22.887,27.0,0.09262,0.33844,-0.00275,0.93637,858,0.844,0.146,0.493,-0.244,-0.244,0.488,16.375,-58.557,-135.884,-27.527,-9.68,-5.447,28.54,0.38809,-0.40186,-0.29651,-0.77451,866
215,0.901,-0.011,0.47,-0.122,-0.305,0.366,-1.807,-62.243,-175.616,-23.987,-4.64,-11.547,25.88,0.02457,-0.51688,-0.00629,-0.85562,861,0.631,0.04,0.773,0.305,-0.244,0.122,2.576,-39.166,-108.693,-22.027,-4.993,-1.193,22.91,-0.55396,0.25998,0.21188,0.76193,855,0.629,0.06,0.765,0.916,-0.549,0.854,4.219,-39.424,167.305,-17.94,-8.467,-22.887,27.0,0.09262,0.33844,-0.00275,0.93637,859,0.847,0.145,0.497,-0.366,-0.122,0.366,16.364,-58.563,-135.868,-27.527,-9.68,-5.447,28.54,0.38809,-0.40186,-0.29651,-0.77451,867
216,0.904,-0.012,0.473,-0.122,-0.305,0.366,-1.818,-62.254,-175.605,-23.987,-4.64,-11.547,25.88,0.02457,-0.51688,-0.00629,-0.85562,868,0.632,0.04,0.772,0.0,-0.305,0.244,2.576,-39.177,-108.704,-22.027,-4.993,-1.193,22.91,-0.55396,0.25998,0.21188,0.76193,864,0.632,0.064,0.763,0.305,0.061,0.366,4.219,-39.424,167.333,-17.94,-8.467,-22.887,27.0,0.09262,0.33844,-0.00275,0.93637,862,0.847,0.145,0.496,-0.366,0.0,0.305,16.348,-58.568,-135.857,-27.527,-9.68,-5.447,28.54,0.38809,-0.40186,-0.29651,-0.77451,874
217,0.906,-0.013,0.475,-0.244,-0.244,0.366,-1.835,-62.26,-175.6,-23.987,-4.64,-11.547,25.88,0.02457,-0.51688,-0.00629,-0.85562,869,0.636,0.034,0.774,-0.061,-0.183,0.366,2.571,-39.183,-108.715,-22.027,-4.993,-1.193,22.91,-0.55396,0.25998,0.21188,0.76193,865,0.634,0.058,0.762,0.061,-0.122,0.305,4.219,-39.43,167.36,-17.94,-8.467,-22.887,27.0,0.09262,0.33844,-0.00275,0.93637,863,0.845,0.144,0.496,-0.183,0.061,0.244,16.337,-58.568,-135.84,-27.527,-9.68,-5.447,28.54,0.38809,-0.40186,-0.29651,-0.77451,875
218,0.905,-0.015,0.475,-0.244,-0.122,0.366,-1.851,-62.26,-175.594,-23.987,-4.64,-11.547,25.88,0.02457,-0.51688,-0.00629,-0.85562,876,0.64,0.033,0.776,-0.183,-0.061,0.305,2.56,-39.183,-108.715,-22.027,-4.993,-1.193,22.91,-0.55396,0.25998,0.21188,0.76193,870,0.639,0.055,0.764,-0.488,0.0,0.244,4.208,-39.43,167.377,-17.9,-8.547,-23.407,27.0,0.09262,0.33844,-0.00275,0.93637,872,0.844,0.143,0.494,-0.061,0.122,0.122,16.331,-58.568,-135.835,-27.527,-9.68,-5.447,28.54,0.38809,-0.40186,-0.29651,-0.77451,882
219,0.904,-0.016,0.475,-0.183,0.0,0.244,-1.862,-62.265,-175.594,-23.987,-4.64,-11.547,25.88,0.02457,-0.51688,-0.00629,-0.85562,877,0.637,0.03,0.778,0.0,0.122,0.305,2.56,-39.183,-108.71,-22.027,-4.993,-1.193,22.91,-0.55396,0.25998,0.21188,0.76193,871,0.638,0.054,0.766,-0.305,0.122,0.0,4.202,-39.43,167.382,-17.9,-8.547,-23.407,27.0,0.09262,0.33844,-0.00275,0.93637,873,0.844,0.144,0.495,-0.427,0.183,0.0,16.326,-58.563,-135.829,-27.527,-9.68,-5.447,28.54,0.38809,-0.40186,-0.29651,-0.77451,883
220,0.903,-0.017,0.474,-0.122,0.061,0.122,-1.868,-62.265,-175.594,-23.987,-4.64,-11.547,25.88,0.02457,-0.51688,-0.00629,-0.85562,884,0.636,0.025,0.778,0.488,0.305,0.366,2.56,-39.177,-108.699,-22.027,-4.993,-1.193,22.91,-0.55396,0.25998,0.21188,0.76193,880,0.637,0.048,0.765,0.305,0.061,0.366,4.202,-39.435,167.388,-17.9,-8.547,-23.407,27.0,0.09262,0.33844,-0.00275,0.93637,878,0.84,0.143,0.493,-0.671,0.305,0.0,16.309,-58.557,-135.824,-27.527,-9.68,-5.447,28.54,0.38809,-0.40186,-0.29651,-0.77451,888
221,0.901,-0.016,0.474,-0.061,0.061,0.0,-1.868,-62.265,-175.605,-23.987,-4.64,-11.547,25.88,0.02457,-0.51688,-0.00629,-0.85562,885,0.636,0.025,0.774,0.854,0.427,0.0,2.576,-39.172,-108.704,-22.027,-4.993,-1.193,22.91,-0.55396,0.25998,0.21188,0.76193,881,0.637,0.042,0.763,1.099,0.244,0.61,4.213,-39.43,167.393,-17.9,-8.547,-23.407,27.0,0.09262,0.33844,-0.00275,0.93637,879,0.842,0.141,0.494,-0.244,0.305,0.0,16.298,-58.552,-135.818,-27.527,-9.68,-5.447,28.54,0.38809,-0.40186,-0.29651,-0.77451,889
222,0.899,-0.016,0.471,-0.061,0.244,0.0,-1.868,-62.26,-175.616,-23.987,-4.64,-11.547,25.88,0.02457,-0.51688,-0.00629,-0.85562,892,0.632,0.032,0.776,1.16,0.183,-0.244,2.598,-39.166,-108.715,-21.46,-5.32,-1.82,22.91,-0.55396,0.25998,0.21188,0.76193,886,0.63,0.052,0.763,1.526,-0.366,0.122,4.241,-39.441,167.377,-17.9,-8.547,-23.407,27.0,0.09091,0.3389,-0.00259,0.93637,890,0.846,0.14,0.493,0.0,0.244,0.0,16.298,-58.546,-135.813,-27.227,-9.993,-5.287,28.54,0.38809,-0.40186,-0.29651,-0.77451,898
223,0.901,-0.018,0.47,-0.061,0.244,0.061,-1.868,-62.254,-175.622,-23.987,-4.64,-11.547,25.88,0.02457,-0.51688,-0.00629,-0.85562,893,0.629,0.033,0.777,0.977,0.244,-0.305,2.62,-39.166,-108.721,-21.46,-5.32,-1.82,22.91,-0.55396,0.25998,0.21188,0.76193,887,0.629,0.056,0.767,1.587,0.0,0.0,4.268,-39.446,167.344,-17.9,-8.547,-23.407,27.0,0.09091,0.3389,-0.00259,0.93637,891,0.846,0.139,0.492,0.366,0.244,0.0,16.298,-58.546,-135.813,-27.227,-9.993,-5.287,28.54,0.38809,-0.40186,-0.29651,-0.77451,899
224,0.905,-0.018,0.469,0.0,0.061,0.0,-1.868,-62.254,-175.627,-23.987,-4.64,-11.547,25.88,0.02457,-0.51688,-0.00629,-0.85562,900,0.632,0.035,0.777,0.366,0.183,-0.366,2.631,-39.161,-108.726,-21.46,-5.32,-1.82,22.91,-0.55499,0.25967,0.21277,0.76102,894,0.629,0.057,0.769,0.366,0.244,-0.305,4.279,-39.441,167.294,-17.9,-8.547,-23.407,27.0,0.09091,0.3389,-0.00259,0.93637,896,0.846,0.142,0.493,0.732,0.244,0.0,16.304,-58.541,-135.807,-27.227,-9.993,-5.287,28.54,0.38809,-0.40186,-0.29651,-0.77451,906
225,0.907,-0.018,0.469,0.244,0.183,0.061,-1.868,-62.254,-175.638,-23.987,-4.64,-11.547,25.88,0.02457,-0.51688,-0.00629,-0.85562,901,0.635,0.036,0.779,0.0,0.061,-0.122,2.631,-39.161,-108.732,-21.46,-5.32,-1.82,22.91,-0.55499,0.25967,0.21277,0.76102,895,0.633,0.061,0.77,-0.916,0.488,-0.916,4.274,-39.43,167.212,-17.9,-8.547,-23.407,27.0,0.09091,0.3389,-0.00259,0.93637,897,0.846,0.145,0.493,0.61,0.122,0.0,16.315,-58.541,-135.802,-27.227,-9.993,-5.287,28.54,0.38809,-0.40186,-0.29651,-0.77451,907
226,0.907,-0.017,0.47,0.305,0.122,0.0,-1.862,-62.254,-175.644,-23.987,-4.64,-11.547,25.88,0.02457,-0.51688,-0.00629,-0.85562,908,0.635,0.037,0.78,-0.366,0.366,0.183,2.615,-39.155,-108.732,-21.46,-5.32,-1.82,22.91,-0.55499,0.25967,0.21277,0.76102,904,0.635,0.063,0.77,-1.587,0.793,-0.61,4.246,-39.413,167.173,-17.9,-8.547,-23.407,27.0,0.09091,0.3389,-0.00259,0.93637,902,0.844,0.147,0.495,0.427,0.0,0.0,16.32,-58.541,-135.802,-27.227,-9.993,-5.287,28.54,0.3891,-0.40186,-0.29675,-0.77393,920
227,0.905,-0.016,0.471,0.244,0.122,0.0,-1.857,-62.254,-175.655,-23.987,-4.64,-11.547,25.88,0.02457,-0.51688,-0.00629,-0.85562,909,0.634,0.036,0.778,-0.488,0.427,0.61,2.598,-39.144,-108.721,-21.46,-5.32,-1.82,22.91,-0.55499,0.25967,0.21277,0.76102,905,0.635,0.06,0.769,-1.587,1.16,0.0,4.213,-39.391,167.184,-17.9,-8.547,-23.407,27.0,0.09091,0.3389,-0.00259,0.93637,903,0.841,0.147,0.495,0.0,0.0,0.0,16.326,-58.541,-135.797,-27.227,-9.993,-5.287,28.54,0.3891,-0.40186,-0.29675,-0.77393,921
228,0.903,-0.013,0.472,0.183,0.122,-0.061,-1.851,-62.254,-175.666,-24.22,-4.513,-12.0,25.88,0.02457,-0.51688,-0.00629,-0.85562,914,0.634,0.034,0.779,-0.488,0.183,0.488,2.576,-39.144,-108.704,-21.46,-5.32,-1.82,22.91,-0.55499,0.25967,0.21277,0.76102,910,0.627,0.054,0.768,-1.404,0.427,0.122,4.186,-39.386,167.195,-17.9,-8.547,-23.407,27.0,0.09091,0.3389,-0.00259,0.93637,912,0.841,0.146,0.493,-0.183,0.0,-0.122,16.326,-58.541,-135.802,-27.227,-9.993,-5.287,28.54,0.3891,-0.40186,-0.29675,-0.77393,922
229,0.901,-0.011,0.473,0.0,0.061,-0.061,-1.851,-62.254,-175.677,-24.22,-4.513,-12.0,25.88,0.02457,-0.51688,-0.00629,-0.85562,915,0.635,0.032,0.78,-0.488,0.122,0.183,2.565,-39.139,-108.693,-21.46,-5.32,-1.82,22.91,-0.55499,0.25967,0.21277,0.76102,911,0.638,0.046,0.766,1.343,-1.648,0.0,4.213,-39.419,167.217,-17.9,-8.547,-23.407,27.0,0.09091,0.3389,-0.00259,0.93637,913,0.84,0.145,0.494,-0.366,0.183,-0.305,16.326,-58.541,-135.807,-27.227,-9.993,-5.287,28.54,0.3891,-0.40186,-0.29675,-0.77393,923
230,0.899,-0.012,0.473,-0.122,0.061,-0.183,-1.846,-62.254,-175.693,-24.22,-4.513,-12.0,25.88,0.02383,-0.51703,-0.00562,-0.85556,924,0.634,0.028,0.777,-0.305,0.183,-0.183,2.56,-39.139,-108.693,-21.46,-5.32,-1.82,22.91,-0.55499,0.25967,0.21277,0.76102,918,0.635,0.052,0.765,-0.488,0.305,-0.427,4.208,-39.413,167.261,-17.9,-8.547,-23.407,27.0,0.09091,0.3389,-0.00259,0.93637,916,0.838,0.145,0.493,-0.122,0.61,-0.427,16.331,-58.53,-135.813,-27.227,-9.993,-5.287,28.54,0.3891,-0.40186,-0.29675,-0.77393,930
231,0.898,-0.012,0.473,-0.183,0.061,-0.305,-1.835,-62.254,-175.715,-24.22,-4.513,-12.0,25.88,0.02383,-0.51703,-0.00562,-0.85556,925,0.629,0.026,0.774,0.122,0.183,-0.427,2.565,-39.133,-108.704,-21.46,-5.32,-1.82,22.91,-0.55499,0.25967,0.21277,0.76102,919,0.63,0.046,0.761,0.244,0.0,-0.244,4.213,-39.413,167.294,-17.9,-8.547,-23.407,27.0,0.09091,0.3389,-0.00259,0.93637,917,0.838,0.146,0.493,0.244,0.977,-0.427,16.337,-58.508,-135.818,-27.227,-9.993,-5.287,28.54,0.3891,-0.40186,-0.29675,-0.77393,931
232,0.899,-0.012,0.473,-0.244,0.061,-0.244,-1.829,-62.254,-175.732,-24.22,-4.513,-12.0,25.88,0.02383,-0.51703,-0.00562,-0.85556,932,0.626,0.031,0.774,0.488,0.122,-0.549,2.582,-39.128,-108.71,-21.46,-5.32,-1.82,22.91,-0.55499,0.25967,0.21277,0.76102,926,0.625,0.052,0.762,0.244,0.0,-0.366,4.224,-39.413,167.305,-17.9,-8.547,-23.407,27.0,0.09091,0.3389,-0.00259,0.93637,928,0.84,0.146,0.498,0.916,0.916,-0.488,16.359,-58.491,-135.824,-27.227,-9.993,-5.287,28.54,0.3891,-0.40186,-0.29675,-0.77393,938
233,0.9,-0.012,0.473,-0.122,0.183,-0.183,-1.824,-62.254,-175.748,-24.22,-4.513,-12.0,25.88,0.02383,-0.51703,-0.00562,-0.85556,933,0.622,0.037,0.778,0.549,0.0,-0.488,2.598,-39.128,-108.726,-21.46,-5.32,-1.82,22.91,-0.55499,0.25967,0.21277,0.76102,927,0.636,0.059,0.767,-0.061,0.122,-0.732,4.23,-39.413,167.283,-17.9,-8.547,-23.407,27.0,0.09091,0.3389,-0.00259,0.93637,929,0.843,0.147,0.498,1.465,0.916,-0.366,16.392,-58.469,-135.829,-27.227,-9.993,-5.287,28.54,0.3891,-0.40186,-0.29675,-0.77393,939
234,0.903,-0.012,0.473,0.0,0.183,0.0,-1.818,-62.249,-175.754,-24.22,-4.513,-12.0,25.88,0.02383,-0.51703,-0.00562,-0.85556,940,0.624,0.041,0.786,0.061,-0.061,-0.427,2.604,-39.128,-108.737,-21.46,-5.32,-1.82,22.91,-0.55499,0.25967,0.21277,0.76102,934,0.614,0.067,0.78,-1.953,2.808,-1.038,4.202,-39.353,167.239,-17.9,-8.547,-23.407,27.0,0.09091,0.3389,-0.00259,0.93637,936,0.846,0.149,0.501,1.343,0.549,-0.183,16.419,-58.458,-135.846,-27.227,-9.993,-5.287,28.54,0.3891,-0.40186,-0.29675,-0.77393,948
235,0.907,-0.014,0.474,0.061,0.0,0.0,-1.818,-62.254,-175.765,-24.22,-4.513,-12.0,25.88,0.02383,-0.51703,-0.00562,-0.85556,941,0.625,0.043,0.791,0.0,-0.183,0.183,2.604,-39.128,-108.726,-21.46,-5.32,-1.82,22.91,-0.55499,0.25967,0.21277,0.76102,935,0.631,0.067,0.782,-2.869,2.686,-0.854,4.158,-39.298,167.223,-17.9,-8.547,-23.407,27.0,0.09091,0.3389,-0.00259,0.93637,937,0.84,0.15,0.496,0.427,0.427,-0.061,16.43,-58.447,-135.862,-27.227,-9.993,-5.287,28.54,0.3891,-0.40186,-0.29675,-0.77393,949
236,0.903,-0.014,0.476,0.061,-0.305,0.0,-1.813,-62.26,-175.77,-24.22,-4.513,-12.0,25.88,0.02383,-0.51703,-0.00562,-0.85556,946,0.637,0.042,0.791,0.122,-0.305,0.671,2.593,-39.133,-108.704,-21.46,-5.32,-1.82,22.91,-0.55499,0.25967,0.21277,0.76102,944,0.637,0.066,0.784,-2.258,2.808,0.854,4.098,-39.243,167.267,-17.767,-8.16,-23.14,27.0,0.09091,0.3389,-0.00259,0.93637,942,0.84,0.15,0.496,-0.244,0.549,0.061,16.419,-58.436,-135.868,-27.227,-9.993,-5.287,28.54,0.3891,-0.40186,-0.29675,-0.77393,958
237,0.899,-0.014,0.474,-0.061,-0.305,0.0,-1.813,-62.265,-175.781,-24.22,-4.513,-12.0,25.88,0.02383,-0.51703,-0.00562,-0.85556,947,0.641,0.042,0.776,-0.061,-0.671,0.549,2.587,-39.139,-108.693,-21.46,-5.32,-1.82,22.91,-0.55499,0.25967,0.21277,0.76102,945,0.644,0.06,0.769,-1.282,1.892,2.441,4.037,-39.205,167.338,-17.767,-8.16,-23.14,27.0,0.09091,0.3389,-0.00259,0.93637,943,0.843,0.151,0.5,-0.549,0.732,0.305,16.397,-58.425,-135.857,-27.227,-9.993,-5.287,28.54,0.3891,-0.40186,-0.29675,-0.77393,959
