Index,L5_Acceleration X(g),L5_Acceleration Y(g),L5_Acceleration Z(g),L5_Angular velocity X(°/s),L5_Angular velocity Y(°/s),L5_Angular velocity Z(°/s),L5_Angle X(°),L5_Angle Y(°),L5_Angle Z(°),L5_Magnetic field X(ʯt),L5_Magnetic field Y(ʯt),L5_Magnetic field Z(ʯt),L5_Temperature(℃),L5_Quaternions 0(),L5_Quaternions 1(),L5_Quaternions 2(),L5_Quaternions 3(),L5___orig_idx,T4_Acceleration X(g),T4_Acceleration Y(g),T4_Acceleration Z(g),T4_Angular velocity X(°/s),T4_Angular velocity Y(°/s),T4_Angular velocity Z(°/s),T4_Angle X(°),T4_Angle Y(°),T4_Angle Z(°),T4_Magnetic field X(ʯt),T4_Magnetic field Y(ʯt),T4_Magnetic field Z(ʯt),T4_Temperature(℃),T4_Quaternions 0(),T4_Quaternions 1(),T4_Quaternions 2(),T4_Quaternions 3(),T4___orig_idx,C7_Acceleration X(g),C7_Acceleration Y(g),C7_Acceleration Z(g),C7_Angular velocity X(°/s),C7_Angular velocity Y(°/s),C7_Angular velocity Z(°/s),C7_Angle X(°),C7_Angle Y(°),C7_Angle Z(°),C7_Magnetic field X(ʯt),C7_Magnetic field Y(ʯt),C7_Magnetic field Z(ʯt),C7_Temperature(℃),C7_Quaternions 0(),C7_Quaternions 1(),C7_Quaternions 2(),C7_Quaternions 3(),C7___orig_idx,T12_Acceleration X(g),T12_Acceleration Y(g),T12_Acceleration Z(g),T12_Angular velocity X(°/s),T12_Angular velocity Y(°/s),T12_Angular velocity Z(°/s),T12_Angle X(°),T12_Angle Y(°),T12_Angle Z(°),T12_Magnetic field X(ʯt),T12_Magnetic field Y(ʯt),T12_Magnetic field Z(ʯt),T12_Temperature(℃),T12_Quaternions 0(),T12_Quaternions 1(),T12_Quaternions 2(),T12_Quaternions 3(),T12___orig_idx
0,0.933,-0.279,0.4,5.798,-2.686,-0.732,-36.909,-64.698,-149.31,-28.153,-5.4,-10.793,30.55,0.04504,-0.56433,0.12811,-0.81424,8,0.72,0.067,0.719,1.953,1.465,1.892,6.762,-43.923,-133.011,-22.093,-11.947,-2.113,27.11,-0.38663,0.28677,0.18106,0.85754,0,0.83,0.112,0.545,2.014,6.958,2.258,12.513,-54.536,157.363,-20.013,-13.76,-18.833,30.33,0.12543,0.44565,0.01163,0.88623,12,0.954,0.049,0.339,9.766,-4.211,-0.488,11.854,-72.274,-163.037,-29.22,-12.973,-3.187,32.76,0.17957,-0.56009,-0.17773,-0.78891,4
1,0.939,-0.264,0.367,6.958,-2.563,-0.61,-36.804,-64.731,-149.249,-28.153,-5.4,-10.793,30.55,0.04504,-0.56433,0.12811,-0.81424,9,0.717,0.071,0.712,1.221,3.784,1.16,6.74,-43.857,-132.935,-22.093,-11.947,-2.113,27.11,-0.38663,0.28677,0.18106,0.85754,1,0.83,0.117,0.554,2.319,4.517,2.563,12.453,-54.437,157.456,-20.013,-13.76,-18.833,30.33,0.12543,0.44565,0.01163,0.88623,13,0.956,0.046,0.333,9.644,-1.282,-0.427,12.063,-72.29,-163.037,-29.22,-12.973,-3.187,32.76,0.17957,-0.56009,-0.17773,-0.78891,5
2,0.933,-0.256,0.364,7.324,-1.221,-0.427,-36.678,-64.748,-149.216,-28.153,-5.4,-10.793,30.55,0.04504,-0.56433,0.12811,-0.81424,10,0.72,0.079,0.716,0.732,5.005,0.366,6.724,-43.764,-132.885,-22.093,-11.947,-2.113,27.11,-0.38663,0.28677,0.18106,0.85754,2,0.83,0.116,0.556,2.075,0.427,1.831,12.409,-54.399,157.538,-20.013,-13.76,-18.833,30.33,0.12543,0.44565,0.01163,0.88623,14,0.954,0.056,0.304,8.789,-0.061,-0.549,12.233,-72.279,-163.015,-29.22,-12.973,-3.187,32.76,0.17957,-0.56009,-0.17773,-0.78891,6
3,0.939,-0.264,0.367,6.958,-2.563,-0.61,-36.804,-64.731,-149.249,-28.153,-5.4,-10.793,30.55,0.04504,-0.56433,0.12811,-0.81424,11,0.717,0.071,0.712,1.221,3.784,1.16,6.74,-43.857,-132.935,-22.093,-11.947,-2.113,27.11,-0.38663,0.28677,0.18106,0.85754,3,0.83,0.117,0.554,2.319,4.517,2.563,12.453,-54.437,157.456,-20.013,-13.76,-18.833,30.33,0.12543,0.44565,0.01163,0.88623,15,0.956,0.046,0.333,9.644,-1.282,-0.427,12.063,-72.29,-163.037,-29.22,-12.973,-3.187,32.76,0.17957,-0.56009,-0.17773,-0.78891,7
4,0.93,-0.256,0.364,7.324,-1.221,-0.427,-36.678,-64.748,-149.216,-28.153,-5.4,-10.793,30.55,0.04504,-0.56433,0.12811,-0.81424,32,0.728,0.079,0.716,0.732,5.005,0.366,6.724,-43.764,-132.885,-22.093,-11.947,-2.113,27.11,-0.38983,0.32001,0.19885,0.84021,16,0.838,0.116,0.556,2.075,0.427,1.831,12.409,-54.399,157.538,-21.147,-13.793,-17.253,30.33,0.12543,0.44565,0.01163,0.88623,20,0.959,0.056,0.304,8.789,-0.061,-0.549,12.233,-72.279,-163.015,-29.22,-12.973,-3.187,32.76,0.17957,-0.56009,-0.17773,-0.78891,24
5,0.914,-0.25,0.377,6.653,-1.16,-0.488,-36.541,-64.759,-149.194,-28.153,-5.4,-10.793,30.55,0.04504,-0.56433,0.12811,-0.81424,33,0.726,0.074,0.705,-1.221,3.784,0.427,6.674,-43.704,-132.841,-22.093,-11.947,-2.113,27.11,-0.38983,0.32001,0.19885,0.84021,17,0.844,0.125,0.553,1.77,-3.418,0.854,12.404,-54.432,157.56,-21.147,-13.793,-17.253,30.33,0.12543,0.44565,0.01163,0.88623,21,0.955,0.069,0.286,9.033,0.854,-1.038,12.426,-72.246,-163.015,-29.22,-12.973,-3.187,32.76,0.17957,-0.56009,-0.17773,-0.78891,25
6,0.93,-0.256,0.382,5.249,-2.38,-0.549,-36.447,-64.786,-149.167,-28.153,-5.4,-10.793,30.55,0.04504,-0.56433,0.12811,-0.81424,34,0.728,0.084,0.71,-1.526,6.165,-0.061,6.619,-43.594,-132.797,-22.093,-11.947,-2.113,27.11,-0.38983,0.32001,0.19885,0.84021,18,0.838,0.126,0.534,1.831,-2.136,0.732,12.437,-54.514,157.527,-21.147,-13.793,-17.253,30.33,0.12543,0.44565,0.01163,0.88623,22,0.959,0.08,0.302,9.399,3.174,-0.854,12.601,-72.18,-162.993,-29.22,-12.973,-3.187,32.76,0.17957,-0.56009,-0.17773,-0.78891,26
7,0.914,-0.25,0.377,6.653,-1.16,-0.488,-36.541,-64.759,-149.194,-28.153,-5.4,-10.793,30.55,0.04504,-0.56433,0.12811,-0.81424,35,0.726,0.074,0.705,-1.221,3.784,0.427,6.674,-43.704,-132.841,-22.093,-11.947,-2.113,27.11,-0.38983,0.32001,0.19885,0.84021,19,0.844,0.125,0.553,1.77,-3.418,0.854,12.404,-54.432,157.56,-21.147,-13.793,-17.253,30.33,0.12543,0.44565,0.01163,0.88623,23,0.955,0.069,0.286,9.033,0.854,-1.038,12.426,-72.246,-163.015,-29.22,-12.973,-3.187,32.76,0.17957,-0.56009,-0.17773,-0.78891,27
8,0.929,-0.256,0.382,5.249,-2.38,-0.549,-36.447,-64.786,-149.167,-28.153,-5.4,-10.793,30.55,0.04504,-0.56433,0.12811,-0.81424,36,0.7,0.084,0.71,-1.526,6.165,-0.061,6.619,-43.594,-132.797,-22.093,-11.947,-2.113,27.11,-0.38983,0.32001,0.19885,0.84021,40,0.831,0.126,0.534,1.831,-2.136,0.732,12.437,-54.514,157.527,-21.147,-13.793,-17.253,30.33,0.12543,0.44565,0.01163,0.88623,48,0.941,0.08,0.302,9.399,3.174,-0.854,12.601,-72.18,-162.993,-29.22,-12.973,-3.187,32.76,0.1814,-0.56683,-0.17264,-0.78476,28
9,0.943,-0.263,0.322,4.456,-1.831,-0.427,-36.37,-64.808,-149.134,-28.153,-5.4,-10.793,30.55,0.04504,-0.56433,0.12811,-0.81424,37,0.712,0.089,0.707,-2.991,6.348,0.0,6.542,-43.484,-132.753,-22.093,-11.947,-2.113,27.11,-0.38983,0.32001,0.19885,0.84021,41,0.818,0.139,0.54,-1.16,0.244,0.549,12.448,-54.564,157.511,-21.147,-13.793,-17.253,30.33,0.12543,0.44565,0.01163,0.88623,49,0.948,0.066,0.321,9.766,3.723,-1.038,12.783,-72.098,-162.982,-29.22,-12.973,-3.187,32.76,0.1814,-0.56683,-0.17264,-0.78476,29
10,0.929,-0.257,0.311,4.883,-1.16,-0.488,-36.288,-64.83,-149.106,-28.153,-5.4,-10.793,30.55,0.04504,-0.56433,0.12811,-0.81424,38,0.7,0.064,0.704,-1.038,5.798,0.671,6.487,-43.385,-132.693,-22.093,-11.947,-2.113,27.11,-0.38983,0.32001,0.19885,0.84021,42,0.831,0.138,0.537,-0.488,1.892,0.0,12.415,-54.575,157.473,-21.147,-13.793,-17.253,30.33,0.12543,0.44565,0.01163,0.88623,50,0.941,0.056,0.278,8.545,2.258,-1.587,12.986,-72.032,-163.01,-29.22,-12.973,-3.187,32.76,0.1814,-0.56683,-0.17264,-0.78476,30
11,0.943,-0.263,0.322,4.456,-1.831,-0.427,-36.37,-64.808,-149.134,-28.153,-5.4,-10.793,30.55,0.04504,-0.56433,0.12811,-0.81424,39,0.712,0.089,0.707,-2.991,6.348,0.0,6.542,-43.484,-132.753,-22.093,-11.947,-2.113,27.11,-0.38983,0.32001,0.19885,0.84021,43,0.818,0.139,0.54,-1.16,0.244,0.549,12.448,-54.564,157.511,-21.147,-13.793,-17.253,30.33,0.12543,0.44565,0.01163,0.88623,51,0.948,0.066,0.321,9.766,3.723,-1.038,12.783,-72.098,-162.982,-29.22,-12.973,-3.187,32.76,0.1814,-0.56683,-0.17264,-0.78476,31
12,0.934,-0.257,0.311,4.883,-1.16,-0.488,-36.288,-64.83,-149.106,-28.153,-5.4,-10.793,30.55,0.04504,-0.56433,0.12811,-0.81424,56,0.683,0.064,0.704,-1.038,5.798,0.671,6.487,-43.385,-132.693,-22.093,-11.947,-2.113,27.11,-0.38983,0.32001,0.19885,0.84021,44,0.821,0.138,0.537,-0.488,1.892,0.0,12.415,-54.575,157.473,-21.147,-13.793,-17.253,30.33,0.12543,0.44565,0.01163,0.88623,60,0.947,0.056,0.278,8.545,2.258,-1.587,12.986,-72.032,-163.01,-29.22,-12.973,-3.187,32.76,0.1814,-0.56683,-0.17264,-0.78476,52
13,0.928,-0.244,0.32,4.456,0.244,-0.488,-36.183,-64.836,-149.101,-28.153,-5.4,-10.793,30.55,0.04504,-0.56433,0.12811,-0.81424,57,0.665,0.059,0.708,0.488,5.798,1.953,6.443,-43.292,-132.599,-22.093,-11.947,-2.113,27.11,-0.38983,0.32001,0.19885,0.84021,45,0.792,0.12,0.541,1.892,4.028,0.122,12.409,-54.542,157.423,-21.147,-13.793,-17.253,30.33,0.12543,0.44565,0.01163,0.88623,61,0.931,0.061,0.242,10.925,1.343,-2.075,13.26,-71.993,-163.092,-29.22,-12.973,-3.187,32.76,0.1814,-0.56683,-0.17264,-0.78476,53
14,0.934,-0.245,0.339,3.845,0.488,-0.427,-36.085,-64.836,-149.117,-28.153,-5.4,-10.793,30.55,0.04504,-0.56433,0.12811,-0.81424,58,0.683,0.074,0.716,0.854,6.104,3.113,6.383,-43.193,-132.462,-22.093,-11.947,-2.113,27.11,-0.38983,0.32001,0.19885,0.84021,46,0.821,0.122,0.557,2.075,1.465,2.136,12.415,-54.498,157.39,-21.147,-13.793,-17.253,30.33,0.12543,0.44565,0.01163,0.88623,62,0.947,0.074,0.25,8.911,1.343,-1.892,13.53,-71.96,-163.213,-29.22,-12.973,-3.187,32.76,0.1814,-0.56683,-0.17264,-0.78476,54
15,0.928,-0.244,0.32,4.456,0.244,-0.488,-36.183,-64.836,-149.101,-28.153,-5.4,-10.793,30.55,0.04504,-0.56433,0.12811,-0.81424,59,0.665,0.059,0.708,0.488,5.798,1.953,6.443,-43.292,-132.599,-22.093,-11.947,-2.113,27.11,-0.38983,0.32001,0.19885,0.84021,47,0.792,0.12,0.541,1.892,4.028,0.122,12.409,-54.542,157.423,-21.147,-13.793,-17.253,30.33,0.12543,0.44565,0.01163,0.88623,63,0.931,0.061,0.242,10.925,1.343,-2.075,13.26,-71.993,-163.092,-29.22,-12.973,-3.187,32.76,0.1814,-0.56683,-0.17264,-0.78476,55
16,0.926,-0.245,0.339,3.845,0.488,-0.427,-36.085,-64.836,-149.117,-27.74,-5.593,-10.82,30.55,0.04504,-0.56433,0.12811,-0.81424,76,0.68,0.074,0.716,0.854,6.104,3.113,6.383,-43.193,-132.462,-22.093,-11.947,-2.113,27.11,-0.38983,0.32001,0.19885,0.84021,64,0.79,0.122,0.557,2.075,1.465,2.136,12.415,-54.498,157.39,-21.147,-13.793,-17.253,30.33,0.12442,0.46542,0.00507,0.87622,68,0.933,0.074,0.25,8.911,1.343,-1.892,13.53,-71.96,-163.213,-29.22,-12.973,-3.187,32.76,0.1814,-0.56683,-0.17264,-0.78476,72
17,0.928,-0.247,0.357,4.639,-0.366,0.122,-36.002,-64.841,-149.101,-27.74,-5.593,-10.82,30.55,0.04504,-0.56433,0.12811,-0.81424,77,0.701,0.087,0.703,0.916,5.554,2.747,6.334,-43.105,-132.33,-22.093,-11.947,-2.113,27.11,-0.38983,0.32001,0.19885,0.84021,65,0.8,0.128,0.549,1.465,2.93,3.113,12.371,-54.481,157.423,-21.147,-13.793,-17.253,30.33,0.12442,0.46542,0.00507,0.87622,69,0.943,0.083,0.265,7.263,1.953,-1.343,13.733,-71.927,-163.306,-29.22,-12.973,-3.187,32.76,0.1814,-0.56683,-0.17264,-0.78476,73
18,0.926,-0.246,0.367,4.211,-1.526,0.793,-35.964,-64.852,-149.041,-27.74,-5.593,-10.82,30.55,0.04504,-0.56433,0.12811,-0.81424,78,0.68,0.083,0.7,2.502,5.737,1.892,6.334,-43.011,-132.22,-22.093,-11.947,-2.113,27.11,-0.38983,0.32001,0.19885,0.84021,66,0.79,0.133,0.535,0.793,6.653,2.441,12.299,-54.415,157.478,-21.147,-13.793,-17.253,30.33,0.12442,0.46542,0.00507,0.87622,70,0.933,0.083,0.294,8.85,2.625,-1.038,13.925,-71.884,-163.372,-29.22,-12.973,-3.187,32.76,0.1814,-0.56683,-0.17264,-0.78476,74
19,0.928,-0.247,0.357,4.639,-0.366,0.122,-36.002,-64.841,-149.101,-27.74,-5.593,-10.82,30.55,0.04504,-0.56433,0.12811,-0.81424,79,0.701,0.087,0.703,0.916,5.554,2.747,6.334,-43.105,-132.33,-22.093,-11.947,-2.113,27.11,-0.38983,0.32001,0.19885,0.84021,67,0.8,0.128,0.549,1.465,2.93,3.113,12.371,-54.481,157.423,-21.147,-13.793,-17.253,30.33,0.12442,0.46542,0.00507,0.87622,71,0.943,0.083,0.265,7.263,1.953,-1.343,13.733,-71.927,-163.306,-29.22,-12.973,-3.187,32.76,0.1814,-0.56683,-0.17264,-0.78476,75
20,0.934,-0.246,0.367,4.211,-1.526,0.793,-35.964,-64.852,-149.041,-27.74,-5.593,-10.82,30.55,0.05484,-0.5611,0.11487,-0.81784,92,0.715,0.083,0.7,2.502,5.737,1.892,6.334,-43.011,-132.22,-22.093,-11.947,-2.113,27.11,-0.38983,0.32001,0.19885,0.84021,80,0.821,0.133,0.535,0.793,6.653,2.441,12.299,-54.415,157.478,-21.147,-13.793,-17.253,30.33,0.12442,0.46542,0.00507,0.87622,84,0.951,0.083,0.294,8.85,2.625,-1.038,13.925,-71.884,-163.372,-29.22,-12.973,-3.187,32.76,0.1814,-0.56683,-0.17264,-0.78476,88
21,0.932,-0.25,0.386,3.113,-1.953,1.099,-35.975,-64.869,-148.947,-27.74,-5.593,-10.82,30.55,0.05484,-0.5611,0.11487,-0.81784,93,0.723,0.074,0.702,3.479,6.775,1.282,6.361,-42.896,-132.127,-22.093,-11.947,-2.113,27.11,-0.38983,0.32001,0.19885,0.84021,81,0.83,0.13,0.525,1.953,10.132,1.16,12.233,-54.272,157.533,-21.147,-13.793,-17.253,30.33,0.12442,0.46542,0.00507,0.87622,85,0.963,0.087,0.317,7.019,1.77,-0.977,14.101,-71.851,-163.427,-29.22,-12.973,-3.187,32.76,0.1814,-0.56683,-0.17264,-0.78476,89
22,0.934,-0.258,0.352,2.197,-1.648,0.305,-35.975,-64.891,-148.903,-27.74,-5.593,-10.82,30.55,0.05484,-0.5611,0.11487,-0.81784,94,0.715,0.086,0.716,2.563,9.705,0.854,6.378,-42.726,-132.05,-22.093,-11.947,-2.113,27.11,-0.38983,0.32001,0.19885,0.84021,82,0.821,0.125,0.527,2.991,12.512,0.671,12.206,-54.075,157.599,-21.147,-13.793,-17.253,30.33,0.12442,0.46542,0.00507,0.87622,86,0.951,0.087,0.316,6.042,0.854,-0.854,14.26,-71.834,-163.488,-29.22,-12.973,-3.187,32.76,0.1814,-0.56683,-0.17264,-0.78476,90
23,0.932,-0.25,0.386,3.113,-1.953,1.099,-35.975,-64.869,-148.947,-27.74,-5.593,-10.82,30.55,0.05484,-0.5611,0.11487,-0.81784,95,0.723,0.074,0.702,3.479,6.775,1.282,6.361,-42.896,-132.127,-22.093,-11.947,-2.113,27.11,-0.38983,0.32001,0.19885,0.84021,83,0.83,0.13,0.525,1.953,10.132,1.16,12.233,-54.272,157.533,-21.147,-13.793,-17.253,30.33,0.12442,0.46542,0.00507,0.87622,87,0.963,0.087,0.317,7.019,1.77,-0.977,14.101,-71.851,-163.427,-29.22,-12.973,-3.187,32.76,0.1814,-0.56683,-0.17264,-0.78476,91
24,0.929,-0.258,0.352,2.197,-1.648,0.305,-35.975,-64.891,-148.903,-27.74,-5.593,-10.82,30.55,0.05484,-0.5611,0.11487,-0.81784,108,0.717,0.086,0.716,2.563,9.705,0.854,6.378,-42.726,-132.05,-22.093,-11.947,-2.113,27.11,-0.38983,0.32001,0.19885,0.84021,96,0.838,0.125,0.527,2.991,12.512,0.671,12.206,-54.075,157.599,-21.147,-13.793,-17.253,30.33,0.12442,0.46542,0.00507,0.87622,100,0.959,0.087,0.316,6.042,0.854,-0.854,14.26,-71.834,-163.488,-29.22,-12.973,-3.187,32.76,0.1814,-0.56683,-0.17264,-0.78476,104
25,0.915,-0.258,0.356,1.892,0.366,-0.244,-35.931,-64.896,-148.925,-27.74,-5.593,-10.82,30.55,0.05484,-0.5611,0.11487,-0.81784,109,0.612,0.11,0.732,0.427,12.085,0.488,6.356,-42.512,-131.984,-22.093,-11.947,-2.113,27.11,-0.38983,0.32001,0.19885,0.84021,97,0.826,0.145,0.536,1.587,17.334,0.549,12.162,-53.811,157.681,-21.147,-13.793,-17.253,30.33,0.12442,0.46542,0.00507,0.87622,101,0.938,0.073,0.291,5.737,1.77,-0.854,14.398,-71.801,-163.548,-29.22,-12.973,-3.187,32.76,0.1814,-0.56683,-0.17264,-0.78476,105
26,0.929,-0.247,0.373,2.808,1.953,-0.244,-35.821,-64.869,-149.002,-27.74,-5.593,-10.82,30.55,0.05484,-0.5611,0.11487,-0.81784,110,0.717,0.063,0.757,2.075,7.812,2.563,6.323,-42.341,-131.896,-22.093,-11.947,-2.113,27.11,-0.38983,0.32001,0.19885,0.84021,98,0.838,0.166,0.58,0.183,19.958,0.183,12.079,-53.476,157.725,-21.147,-13.793,-17.253,30.33,0.12442,0.46542,0.00507,0.87622,102,0.959,0.074,0.28,4.211,2.93,-0.122,14.442,-71.752,-163.526,-29.22,-12.973,-3.187,32.76,0.1814,-0.56683,-0.17264,-0.78476,106
27,0.915,-0.258,0.356,1.892,0.366,-0.244,-35.931,-64.896,-148.925,-27.74,-5.593,-10.82,30.55,0.05484,-0.5611,0.11487,-0.81784,111,0.612,0.11,0.732,0.427,12.085,0.488,6.356,-42.512,-131.984,-22.093,-11.947,-2.113,27.11,-0.38983,0.32001,0.19885,0.84021,99,0.826,0.145,0.536,1.587,17.334,0.549,12.162,-53.811,157.681,-21.147,-13.793,-17.253,30.33,0.12442,0.46542,0.00507,0.87622,103,0.938,0.073,0.291,5.737,1.77,-0.854,14.398,-71.801,-163.548,-29.22,-12.973,-3.187,32.76,0.1814,-0.56683,-0.17264,-0.78476,107
28,0.917,-0.247,0.373,2.808,1.953,-0.244,-35.821,-64.869,-149.002,-27.74,-5.593,-10.82,30.55,0.05484,-0.5611,0.11487,-0.81784,128,0.647,0.063,0.757,2.075,7.812,2.563,6.323,-42.341,-131.896,-22.093,-11.947,-2.113,27.11,-0.38983,0.32001,0.19885,0.84021,116,0.768,0.166,0.58,0.183,19.958,0.183,12.079,-53.476,157.725,-21.147,-13.793,-17.253,30.33,0.12442,0.46542,0.00507,0.87622,112,0.922,0.074,0.28,4.211,2.93,-0.122,14.442,-71.752,-163.526,-29.22,-12.973,-3.187,32.76,0.1814,-0.56683,-0.17264,-0.78476,124
29,0.933,-0.229,0.369,3.235,1.038,-0.305,-35.706,-64.847,-149.073,-27.74,-5.593,-10.82,30.55,0.05484,-0.5611,0.11487,-0.81784,129,0.703,0.059,0.754,0.732,7.202,0.61,6.306,-42.209,-131.803,-22.093,-11.947,-2.113,27.11,-0.38983,0.32001,0.19885,0.84021,117,0.741,0.147,0.615,1.404,16.541,0.671,12.003,-53.152,157.747,-21.147,-13.793,-17.253,30.33,0.12442,0.46542,0.00507,0.87622,113,0.934,0.081,0.298,2.38,4.517,1.282,14.348,-71.675,-163.394,-29.22,-12.973,-3.187,32.76,0.1814,-0.56683,-0.17264,-0.78476,125
30,0.917,-0.214,0.375,1.404,-0.244,-0.61,-35.634,-64.852,-149.112,-27.74,-5.593,-10.82,30.55,0.05484,-0.5611,0.11487,-0.81784,130,0.647,0.091,0.738,-2.014,6.958,-1.709,6.29,-42.072,-131.754,-22.093,-11.947,-2.113,27.11,-0.38983,0.32001,0.19885,0.84021,118,0.768,0.097,0.632,4.089,10.803,1.282,11.975,-52.905,157.786,-21.147,-13.793,-17.253,30.33,0.12442,0.46542,0.00507,0.87622,114,0.922,0.093,0.316,0.305,6.409,1.16,14.2,-71.565,-163.257,-29.22,-12.973,-3.187,32.76,0.1814,-0.56683,-0.17264,-0.78476,126
31,0.933,-0.229,0.369,3.235,1.038,-0.305,-35.706,-64.847,-149.073,-27.74,-5.593,-10.82,30.55,0.05484,-0.5611,0.11487,-0.81784,131,0.703,0.059,0.754,0.732,7.202,0.61,6.306,-42.209,-131.803,-22.093,-11.947,-2.113,27.11,-0.38983,0.32001,0.19885,0.84021,119,0.741,0.147,0.615,1.404,16.541,0.671,12.003,-53.152,157.747,-21.147,-13.793,-17.253,30.33,0.12442,0.46542,0.00507,0.87622,115,0.934,0.081,0.298,2.38,4.517,1.282,14.348,-71.675,-163.394,-29.22,-12.973,-3.187,32.76,0.1814,-0.56683,-0.17264,-0.78476,127
32,0.929,-0.214,0.375,1.404,-0.244,-0.61,-35.634,-64.852,-149.112,-27.74,-5.593,-10.82,30.55,0.05484,-0.5611,0.11487,-0.81784,144,0.679,0.091,0.738,-2.014,6.958,-1.709,6.29,-42.072,-131.754,-22.007,-11.52,-2.967,27.11,-0.38983,0.32001,0.19885,0.84021,132,0.784,0.097,0.632,4.089,10.803,1.282,11.975,-52.905,157.786,-21.147,-13.793,-17.253,30.33,0.12442,0.46542,0.00507,0.87622,120,0.948,0.093,0.316,0.305,6.409,1.16,14.2,-71.565,-163.257,-29.22,-12.973,-3.187,32.76,0.1814,-0.56683,-0.17264,-0.78476,140
33,0.925,-0.221,0.391,-0.61,-0.671,-1.343,-35.579,-64.874,-149.156,-27.74,-5.593,-10.82,30.55,0.05484,-0.5611,0.11487,-0.81784,145,0.632,0.1,0.736,-4.089,8.972,-3.235,6.262,-41.929,-131.765,-22.007,-11.52,-2.967,27.11,-0.38983,0.32001,0.19885,0.84021,133,0.818,0.105,0.606,1.282,6.042,0.305,11.97,-52.756,157.852,-21.147,-13.793,-17.253,30.33,0.12442,0.46542,0.00507,0.87622,121,0.941,0.111,0.33,-2.075,5.981,0.183,14.073,-71.45,-163.185,-29.22,-12.973,-3.187,32.76,0.1814,-0.56683,-0.17264,-0.78476,141
34,0.929,-0.232,0.331,-1.465,1.16,-1.282,-35.513,-64.874,-149.26,-27.74,-5.593,-10.82,30.55,0.05484,-0.5611,0.11487,-0.81784,146,0.679,0.074,0.756,-3.235,10.437,-2.808,6.224,-41.748,-131.803,-22.007,-11.52,-2.967,27.11,-0.38983,0.32001,0.19885,0.84021,134,0.784,0.141,0.573,-4.089,6.897,-1.587,11.931,-52.635,157.879,-21.147,-13.793,-17.253,30.33,0.12442,0.46542,0.00507,0.87622,122,0.948,0.107,0.329,-2.747,3.174,-0.732,14.041,-71.384,-163.224,-29.22,-12.973,-3.187,32.76,0.1814,-0.56683,-0.17264,-0.78476,142
35,0.925,-0.221,0.391,-0.61,-0.671,-1.343,-35.579,-64.874,-149.156,-27.74,-5.593,-10.82,30.55,0.05484,-0.5611,0.11487,-0.81784,147,0.632,0.1,0.736,-4.089,8.972,-3.235,6.262,-41.929,-131.765,-22.007,-11.52,-2.967,27.11,-0.38983,0.32001,0.19885,0.84021,135,0.818,0.105,0.606,1.282,6.042,0.305,11.97,-52.756,157.852,-21.147,-13.793,-17.253,30.33,0.12442,0.46542,0.00507,0.87622,123,0.941,0.111,0.33,-2.075,5.981,0.183,14.073,-71.45,-163.185,-29.22,-12.973,-3.187,32.76,0.1814,-0.56683,-0.17264,-0.78476,143
36,0.917,-0.232,0.331,-1.465,1.16,-1.282,-35.513,-64.874,-149.26,-27.74,-5.593,-10.82,30.55,0.05484,-0.5611,0.11487,-0.81784,156,0.588,0.074,0.756,-3.235,10.437,-2.808,6.224,-41.748,-131.803,-22.007,-11.52,-2.967,27.11,-0.38983,0.32001,0.19885,0.84021,148,0.782,0.141,0.573,-4.089,6.897,-1.587,11.931,-52.635,157.879,-21.147,-13.793,-17.253,30.33,0.12442,0.46542,0.00507,0.87622,136,0.924,0.107,0.329,-2.747,3.174,-0.732,14.041,-71.384,-163.224,-29.247,-12.82,-3.7,32.76,0.1814,-0.56683,-0.17264,-0.78476,152
37,0.91,-0.233,0.304,0.183,3.662,-2.014,-35.354,-64.852,-149.447,-27.74,-5.593,-10.82,30.55,0.05484,-0.5611,0.11487,-0.81784,157,0.597,0.053,0.78,0.0,7.202,-1.77,6.207,-41.561,-131.836,-22.007,-11.52,-2.967,27.11,-0.38983,0.32001,0.19885,0.84021,149,0.748,0.147,0.578,-6.409,8.789,-2.747,11.849,-52.482,157.835,-21.147,-13.793,-17.253,30.33,0.12442,0.46542,0.00507,0.87622,137,0.888,0.082,0.282,-1.953,3.723,-1.648,14.068,-71.301,-163.295,-29.247,-12.82,-3.7,32.76,0.1814,-0.56683,-0.17264,-0.78476,153
38,0.917,-0.242,0.344,-0.427,5.127,-2.747,-35.14,-64.808,-149.722,-27.74,-5.593,-10.82,30.55,0.05484,-0.5611,0.11487,-0.81784,158,0.588,0.072,0.774,1.038,2.441,-1.343,6.224,-41.435,-131.841,-22.007,-11.52,-2.967,27.11,-0.38983,0.32001,0.19885,0.84021,150,0.782,0.12,0.636,-1.709,9.094,-2.686,11.799,-52.306,157.769,-21.147,-13.793,-17.253,30.33,0.12442,0.46542,0.00507,0.87622,138,0.924,0.071,0.264,-0.244,3.418,-2.319,14.167,-71.23,-163.427,-29.247,-12.82,-3.7,32.76,0.1814,-0.56683,-0.17264,-0.78476,154
39,0.91,-0.233,0.304,0.183,3.662,-2.014,-35.354,-64.852,-149.447,-27.74,-5.593,-10.82,30.55,0.05484,-0.5611,0.11487,-0.81784,159,0.597,0.053,0.78,0.0,7.202,-1.77,6.207,-41.561,-131.836,-22.007,-11.52,-2.967,27.11,-0.38983,0.32001,0.19885,0.84021,151,0.748,0.147,0.578,-6.409,8.789,-2.747,11.849,-52.482,157.835,-21.147,-13.793,-17.253,30.33,0.12442,0.46542,0.00507,0.87622,139,0.888,0.082,0.282,-1.953,3.723,-1.648,14.068,-71.301,-163.295,-29.247,-12.82,-3.7,32.76,0.1814,-0.56683,-0.17264,-0.78476,155
40,0.914,-0.242,0.344,-0.427,5.127,-2.747,-35.14,-64.808,-149.722,-27.74,-5.593,-10.82,30.55,0.05484,-0.5611,0.11487,-0.81784,176,0.631,0.072,0.774,1.038,2.441,-1.343,6.224,-41.435,-131.841,-22.007,-11.52,-2.967,27.11,-0.39844,0.30276,0.19077,0.84445,164,0.725,0.12,0.636,-1.709,9.094,-2.686,11.799,-52.306,157.769,-21.147,-13.793,-17.253,30.33,0.12442,0.46542,0.00507,0.87622,160,0.896,0.071,0.264,-0.244,3.418,-2.319,14.167,-71.23,-163.427,-29.247,-12.82,-3.7,32.76,0.1814,-0.56683,-0.17264,-0.78476,172
41,0.917,-0.251,0.358,-2.319,3.906,-2.38,-34.98,-64.775,-149.985,-27.74,-5.593,-10.82,30.55,0.05484,-0.5611,0.11487,-0.81784,177,0.654,0.09,0.761,1.526,-1.16,-0.488,6.262,-41.391,-131.841,-22.007,-11.52,-2.967,27.11,-0.39844,0.30276,0.19077,0.84445,165,0.736,0.104,0.669,4.211,5.249,-1.831,11.849,-52.163,157.725,-21.147,-13.793,-17.253,30.33,0.12442,0.46542,0.00507,0.87622,161,0.922,0.073,0.275,-1.648,1.648,-2.075,14.249,-71.197,-163.575,-29.247,-12.82,-3.7,32.76,0.1814,-0.56683,-0.17264,-0.78476,173
42,0.914,-0.248,0.327,-2.563,1.709,-2.197,-34.893,-64.77,-150.15,-27.74,-5.593,-10.82,30.55,0.05484,-0.5611,0.11487,-0.81784,178,0.631,0.086,0.756,1.465,-2.441,0.427,6.295,-41.407,-131.825,-22.007,-11.52,-2.967,27.11,-0.39844,0.30276,0.19077,0.84445,166,0.725,0.13,0.646,3.723,2.93,-1.221,11.942,-52.064,157.72,-21.147,-13.793,-17.253,30.33,0.12442,0.46542,0.00507,0.87622,162,0.896,0.072,0.306,-2.991,2.014,-1.892,14.282,-71.153,-163.696,-29.247,-12.82,-3.7,32.76,0.1814,-0.56683,-0.17264,-0.78476,174
43,0.917,-0.251,0.358,-2.319,3.906,-2.38,-34.98,-64.775,-149.985,-27.74,-5.593,-10.82,30.55,0.05484,-0.5611,0.11487,-0.81784,179,0.654,0.09,0.761,1.526,-1.16,-0.488,6.262,-41.391,-131.841,-22.007,-11.52,-2.967,27.11,-0.39844,0.30276,0.19077,0.84445,167,0.736,0.104,0.669,4.211,5.249,-1.831,11.849,-52.163,157.725,-21.147,-13.793,-17.253,30.33,0.12442,0.46542,0.00507,0.87622,163,0.922,0.073,0.275,-1.648,1.648,-2.075,14.249,-71.197,-163.575,-29.247,-12.82,-3.7,32.76,0.1814,-0.56683,-0.17264,-0.78476,175
44,0.913,-0.248,0.327,-2.563,1.709,-2.197,-34.893,-64.77,-150.15,-27.74,-5.593,-10.82,30.55,0.05484,-0.5611,0.11487,-0.81784,192,0.653,0.086,0.756,1.465,-2.441,0.427,6.295,-41.407,-131.825,-22.007,-11.52,-2.967,27.11,-0.39844,0.30276,0.19077,0.84445,180,0.764,0.13,0.646,3.723,2.93,-1.221,11.942,-52.064,157.72,-21.147,-13.793,-17.253,30.33,0.12442,0.46542,0.00507,0.87622,168,0.933,0.072,0.306,-2.991,2.014,-1.892,14.282,-71.153,-163.696,-29.247,-12.82,-3.7,32.76,0.18683,-0.55728,-0.18234,-0.78815,188
45,0.917,-0.242,0.32,-0.488,0.0,-2.075,-34.832,-64.792,-150.255,-27.74,-5.593,-10.82,30.55,0.05484,-0.5611,0.11487,-0.81784,193,0.643,0.086,0.769,0.0,-3.235,0.183,6.312,-41.451,-131.797,-22.007,-11.52,-2.967,27.11,-0.39844,0.30276,0.19077,0.84445,181,0.778,0.146,0.62,4.028,0.671,-0.549,12.03,-52.015,157.758,-21.147,-13.793,-17.253,30.33,0.12442,0.46542,0.00507,0.87622,169,0.922,0.074,0.3,-4.395,1.831,-1.892,14.282,-71.115,-163.812,-29.247,-12.82,-3.7,32.76,0.18683,-0.55728,-0.18234,-0.78815,189
46,0.913,-0.248,0.338,-1.709,-1.038,-1.587,-34.821,-64.836,-150.315,-27.74,-5.593,-10.82,30.55,0.05484,-0.5611,0.11487,-0.81784,194,0.653,0.088,0.764,-1.709,-4.761,-0.427,6.306,-41.512,-131.781,-22.007,-11.52,-2.967,27.11,-0.39844,0.30276,0.19077,0.84445,182,0.764,0.137,0.617,3.723,-0.061,0.244,12.107,-51.993,157.802,-21.147,-13.793,-17.253,30.33,0.12442,0.46542,0.00507,0.87622,170,0.933,0.079,0.279,-2.808,-0.366,-1.709,14.337,-71.12,-163.949,-29.247,-12.82,-3.7,32.76,0.18683,-0.55728,-0.18234,-0.78815,190
47,0.917,-0.242,0.32,-0.488,0.0,-2.075,-34.832,-64.792,-150.255,-27.74,-5.593,-10.82,30.55,0.05484,-0.5611,0.11487,-0.81784,195,0.643,0.086,0.769,0.0,-3.235,0.183,6.312,-41.451,-131.797,-22.007,-11.52,-2.967,27.11,-0.39844,0.30276,0.19077,0.84445,183,0.778,0.146,0.62,4.028,0.671,-0.549,12.03,-52.015,157.758,-21.147,-13.793,-17.253,30.33,0.12442,0.46542,0.00507,0.87622,171,0.922,0.074,0.3,-4.395,1.831,-1.892,14.282,-71.115,-163.812,-29.247,-12.82,-3.7,32.76,0.18683,-0.55728,-0.18234,-0.78815,191
48,0.923,-0.248,0.338,-1.709,-1.038,-1.587,-34.821,-64.836,-150.315,-27.733,-5.933,-11.433,30.55,0.05484,-0.5611,0.11487,-0.81784,204,0.646,0.088,0.764,-1.709,-4.761,-0.427,6.306,-41.512,-131.781,-22.007,-11.52,-2.967,27.11,-0.39844,0.30276,0.19077,0.84445,196,0.773,0.137,0.617,3.723,-0.061,0.244,12.107,-51.993,157.802,-21.147,-13.793,-17.253,30.33,0.12442,0.46542,0.00507,0.87622,184,0.922,0.079,0.279,-2.808,-0.366,-1.709,14.337,-71.12,-163.949,-29.247,-12.82,-3.7,32.76,0.18683,-0.55728,-0.18234,-0.78815,200
49,0.925,-0.252,0.343,-3.906,-2.38,-0.793,-34.915,-64.885,-150.304,-27.733,-5.933,-11.433,30.55,0.05484,-0.5611,0.11487,-0.81784,205,0.661,0.081,0.754,-2.014,-6.409,-0.244,6.284,-41.594,-131.786,-22.007,-11.52,-2.967,27.11,-0.39844,0.30276,0.19077,0.84445,197,0.766,0.136,0.638,1.282,-0.732,0.244,12.151,-51.987,157.841,-21.147,-13.793,-17.253,30.33,0.12442,0.46542,0.00507,0.87622,185,0.931,0.08,0.294,-2.197,-2.075,-1.099,14.398,-71.164,-164.07,-29.247,-12.82,-3.7,32.76,0.18683,-0.55728,-0.18234,-0.78815,201
50,0.923,-0.259,0.344,-4.028,-2.991,-0.122,-35.057,-64.94,-150.249,-27.733,-5.933,-11.433,30.55,0.05484,-0.5611,0.11487,-0.81784,206,0.646,0.074,0.747,-2.319,-7.385,-0.427,6.262,-41.71,-131.781,-22.007,-11.52,-2.967,27.11,-0.39844,0.30276,0.19077,0.84445,198,0.773,0.139,0.625,-1.038,-2.808,0.0,12.156,-52.009,157.885,-21.147,-13.793,-17.253,30.33,0.12442,0.46542,0.00507,0.87622,186,0.922,0.079,0.3,-3.967,-3.296,-0.427,14.398,-71.235,-164.163,-29.247,-12.82,-3.7,32.76,0.18683,-0.55728,-0.18234,-0.78815,202
51,0.925,-0.252,0.343,-3.906,-2.38,-0.793,-34.915,-64.885,-150.304,-27.733,-5.933,-11.433,30.55,0.05484,-0.5611,0.11487,-0.81784,207,0.661,0.081,0.754,-2.014,-6.409,-0.244,6.284,-41.594,-131.786,-22.007,-11.52,-2.967,27.11,-0.39844,0.30276,0.19077,0.84445,199,0.766,0.136,0.638,1.282,-0.732,0.244,12.151,-51.987,157.841,-21.147,-13.793,-17.253,30.33,0.12442,0.46542,0.00507,0.87622,187,0.931,0.08,0.294,-2.197,-2.075,-1.099,14.398,-71.164,-164.07,-29.247,-12.82,-3.7,32.76,0.18683,-0.55728,-0.18234,-0.78815,203
52,0.923,-0.259,0.344,-4.028,-2.991,-0.122,-35.057,-64.94,-150.249,-27.733,-5.933,-11.433,30.55,0.05484,-0.5611,0.11487,-0.81784,220,0.674,0.074,0.747,-2.319,-7.385,-0.427,6.262,-41.71,-131.781,-22.007,-11.52,-2.967,27.11,-0.39844,0.30276,0.19077,0.84445,208,0.771,0.139,0.625,-1.038,-2.808,0.0,12.156,-52.009,157.885,-20.84,-13.38,-18.907,30.33,0.12442,0.46542,0.00507,0.87622,212,0.937,0.079,0.3,-3.967,-3.296,-0.427,14.398,-71.235,-164.163,-29.247,-12.82,-3.7,32.76,0.18683,-0.55728,-0.18234,-0.78815,216
53,0.923,-0.264,0.356,-3.174,-3.54,0.122,-35.222,-65.001,-150.15,-27.733,-5.933,-11.433,30.55,0.05484,-0.5611,0.11487,-0.81784,221,0.683,0.077,0.74,-2.502,-7.263,-0.854,6.235,-41.841,-131.786,-22.007,-11.52,-2.967,27.11,-0.39844,0.30276,0.19077,0.84445,209,0.784,0.129,0.61,-1.709,-2.991,0.366,12.14,-52.048,157.934,-20.84,-13.38,-18.907,30.33,0.12442,0.46542,0.00507,0.87622,213,0.939,0.075,0.295,-3.906,-4.028,0.183,14.376,-71.318,-164.24,-29.247,-12.82,-3.7,32.76,0.18683,-0.55728,-0.18234,-0.78815,217
54,0.923,-0.265,0.358,-1.953,-3.906,0.305,-35.381,-65.061,-150.046,-27.733,-5.933,-11.433,30.55,0.05484,-0.5611,0.11487,-0.81784,222,0.674,0.081,0.735,-2.136,-6.226,-0.916,6.213,-41.962,-131.797,-22.007,-11.52,-2.967,27.11,-0.39844,0.30276,0.19077,0.84445,210,0.771,0.127,0.598,-1.831,-2.014,0.183,12.112,-52.081,157.989,-20.84,-13.38,-18.907,30.33,0.12442,0.46542,0.00507,0.87622,214,0.937,0.068,0.3,-3.845,-4.517,0.854,14.321,-71.417,-164.284,-29.247,-12.82,-3.7,32.76,0.18683,-0.55728,-0.18234,-0.78815,218
55,0.923,-0.264,0.356,-3.174,-3.54,0.122,-35.222,-65.001,-150.15,-27.733,-5.933,-11.433,30.55,0.05484,-0.5611,0.11487,-0.81784,223,0.683,0.077,0.74,-2.502,-7.263,-0.854,6.235,-41.841,-131.786,-22.007,-11.52,-2.967,27.11,-0.39844,0.30276,0.19077,0.84445,211,0.784,0.129,0.61,-1.709,-2.991,0.366,12.14,-52.048,157.934,-20.84,-13.38,-18.907,30.33,0.12442,0.46542,0.00507,0.87622,215,0.939,0.075,0.295,-3.906,-4.028,0.183,14.376,-71.318,-164.24,-29.247,-12.82,-3.7,32.76,0.18683,-0.55728,-0.18234,-0.78815,219
56,0.929,-0.265,0.358,-1.953,-3.906,0.305,-35.381,-65.061,-150.046,-27.733,-5.933,-11.433,30.55,0.05002,-0.56027,0.11444,-0.81879,236,0.686,0.081,0.735,-2.136,-6.226,-0.916,6.213,-41.962,-131.797,-22.007,-11.52,-2.967,27.11,-0.39844,0.30276,0.19077,0.84445,224,0.789,0.127,0.598,-1.831,-2.014,0.183,12.112,-52.081,157.989,-20.84,-13.38,-18.907,30.33,0.12506,0.44659,0.0097,0.88583,228,0.94,0.068,0.3,-3.845,-4.517,0.854,14.321,-71.417,-164.284,-29.247,-12.82,-3.7,32.76,0.18683,-0.55728,-0.18234,-0.78815,232
57,0.931,-0.261,0.354,-1.404,-3.479,0.427,-35.519,-65.11,-149.919,-27.733,-5.933,-11.433,30.55,0.05002,-0.56027,0.11444,-0.81879,237,0.685,0.075,0.728,-1.587,-5.493,0.0,6.196,-42.072,-131.803,-22.007,-11.52,-2.967,27.11,-0.39844,0.30276,0.19077,0.84445,225,0.792,0.134,0.589,-2.136,-0.61,-0.183,12.079,-52.092,158.016,-20.84,-13.38,-18.907,30.33,0.12506,0.44659,0.0097,0.88583,229,0.944,0.061,0.3,-3.174,-4.272,1.221,14.249,-71.51,-164.306,-29.247,-12.82,-3.7,32.76,0.18683,-0.55728,-0.18234,-0.78815,233
58,0.929,-0.253,0.359,-0.549,-2.625,0.488,-35.629,-65.149,-149.815,-27.733,-5.933,-11.433,30.55,0.05002,-0.56027,0.11444,-0.81879,238,0.686,0.067,0.72,-1.038,-5.127,1.16,6.169,-42.171,-131.776,-22.007,-11.52,-2.967,27.11,-0.39844,0.30276,0.19077,0.84445,226,0.789,0.139,0.582,-2.38,1.221,-0.183,12.036,-52.075,158.027,-20.84,-13.38,-18.907,30.33,0.12506,0.44659,0.0097,0.88583,230,0.94,0.066,0.292,-1.282,-3.418,1.038,14.183,-71.592,-164.301,-29.247,-12.82,-3.7,32.76,0.18683,-0.55728,-0.18234,-0.78815,234
59,0.931,-0.261,0.354,-1.404,-3.479,0.427,-35.519,-65.11,-149.919,-27.733,-5.933,-11.433,30.55,0.05002,-0.56027,0.11444,-0.81879,239,0.685,0.075,0.728,-1.587,-5.493,0.0,6.196,-42.072,-131.803,-22.007,-11.52,-2.967,27.11,-0.39844,0.30276,0.19077,0.84445,227,0.792,0.134,0.589,-2.136,-0.61,-0.183,12.079,-52.092,158.016,-20.84,-13.38,-18.907,30.33,0.12506,0.44659,0.0097,0.88583,231,0.944,0.061,0.3,-3.174,-4.272,1.221,14.249,-71.51,-164.306,-29.247,-12.82,-3.7,32.76,0.18683,-0.55728,-0.18234,-0.78815,235
60,0.934,-0.253,0.359,-0.549,-2.625,0.488,-35.629,-65.149,-149.815,-27.733,-5.933,-11.433,30.55,0.05002,-0.56027,0.11444,-0.81879,248,0.692,0.067,0.72,-1.038,-5.127,1.16,6.169,-42.171,-131.776,-22.007,-11.52,-2.967,27.11,-0.39844,0.30276,0.19077,0.84445,252,0.794,0.139,0.582,-2.38,1.221,-0.183,12.036,-52.075,158.027,-20.84,-13.38,-18.907,30.33,0.12506,0.44659,0.0097,0.88583,240,0.946,0.066,0.292,-1.282,-3.418,1.038,14.183,-71.592,-164.301,-29.247,-12.82,-3.7,32.76,0.18683,-0.55728,-0.18234,-0.78815,244
61,0.935,-0.247,0.364,-0.183,-1.404,0.427,-35.695,-65.171,-149.788,-27.733,-5.933,-11.433,30.55,0.05002,-0.56027,0.11444,-0.81879,249,0.702,0.063,0.71,-0.671,-3.54,1.465,6.136,-42.264,-131.732,-22.007,-11.52,-2.967,27.11,-0.39844,0.30276,0.19077,0.84445,253,0.789,0.134,0.582,-2.075,2.502,0.793,11.981,-52.031,158.049,-20.84,-13.38,-18.907,30.33,0.12506,0.44659,0.0097,0.88583,241,0.949,0.074,0.294,-1.282,-2.136,0.977,14.134,-71.658,-164.295,-29.247,-12.82,-3.7,32.76,0.18683,-0.55728,-0.18234,-0.78815,245
62,0.934,-0.246,0.356,0.61,-0.671,0.305,-35.717,-65.176,-149.777,-27.733,-5.933,-11.433,30.55,0.05002,-0.56027,0.11444,-0.81879,250,0.692,0.06,0.703,-0.732,-1.831,0.854,6.103,-42.33,-131.688,-22.007,-11.52,-2.967,27.11,-0.39844,0.30276,0.19077,0.84445,254,0.794,0.124,0.573,0.916,1.709,1.77,11.931,-51.998,158.088,-20.84,-13.38,-18.907,30.33,0.12506,0.44659,0.0097,0.88583,242,0.946,0.078,0.294,-1.282,-0.671,0.549,14.079,-71.702,-164.295,-29.247,-12.82,-3.7,32.76,0.18683,-0.55728,-0.18234,-0.78815,246
63,0.935,-0.247,0.364,-0.183,-1.404,0.427,-35.695,-65.171,-149.788,-27.733,-5.933,-11.433,30.55,0.05002,-0.56027,0.11444,-0.81879,251,0.702,0.063,0.71,-0.671,-3.54,1.465,6.136,-42.264,-131.732,-22.007,-11.52,-2.967,27.11,-0.39844,0.30276,0.19077,0.84445,255,0.789,0.134,0.582,-2.075,2.502,0.793,11.981,-52.031,158.049,-20.84,-13.38,-18.907,30.33,0.12506,0.44659,0.0097,0.88583,243,0.949,0.074,0.294,-1.282,-2.136,0.977,14.134,-71.658,-164.295,-29.247,-12.82,-3.7,32.76,0.18683,-0.55728,-0.18234,-0.78815,247
64,0.929,-0.246,0.356,0.61,-0.671,0.305,-35.717,-65.176,-149.777,-27.733,-5.933,-11.433,30.55,0.05002,-0.56027,0.11444,-0.81879,264,0.701,0.06,0.703,-0.732,-1.831,0.854,6.103,-42.33,-131.688,-21.547,-11.813,-3.04,27.11,-0.39844,0.30276,0.19077,0.84445,256,0.796,0.124,0.573,0.916,1.709,1.77,11.931,-51.998,158.088,-20.84,-13.38,-18.907,30.33,0.12506,0.44659,0.0097,0.88583,272,0.942,0.078,0.294,-1.282,-0.671,0.549,14.079,-71.702,-164.295,-29.247,-12.82,-3.7,32.76,0.18683,-0.55728,-0.18234,-0.78815,260
65,0.929,-0.242,0.344,0.61,0.0,0.122,-35.711,-65.176,-149.788,-27.733,-5.933,-11.433,30.55,0.05002,-0.56027,0.11444,-0.81879,265,0.694,0.065,0.708,-0.427,-0.183,0.061,6.075,-42.363,-131.671,-21.547,-11.813,-3.04,27.11,-0.39844,0.30276,0.19077,0.84445,257,0.801,0.117,0.559,0.305,0.854,1.77,11.898,-51.982,158.11,-20.84,-13.38,-18.907,30.33,0.12506,0.44659,0.0097,0.88583,273,0.936,0.077,0.289,-1.587,0.0,0.244,14.024,-71.719,-164.29,-29.247,-12.82,-3.7,32.76,0.18683,-0.55728,-0.18234,-0.78815,261
66,0.929,-0.237,0.347,0.183,0.244,0.244,-35.706,-65.165,-149.804,-27.733,-5.933,-11.433,30.55,0.05002,-0.56027,0.11444,-0.81879,266,0.701,0.077,0.709,-1.16,0.671,-0.488,6.059,-42.369,-131.666,-21.547,-11.813,-3.04,27.11,-0.39844,0.30276,0.19077,0.84445,258,0.796,0.113,0.557,0.427,-0.183,0.916,11.876,-51.987,158.088,-20.84,-13.38,-18.907,30.33,0.12506,0.44659,0.0097,0.88583,274,0.942,0.083,0.285,-1.404,-0.061,0.183,13.98,-71.724,-164.268,-29.247,-12.82,-3.7,32.76,0.18683,-0.55728,-0.18234,-0.78815,262
67,0.929,-0.242,0.344,0.61,0.0,0.122,-35.711,-65.176,-149.788,-27.733,-5.933,-11.433,30.55,0.05002,-0.56027,0.11444,-0.81879,267,0.694,0.065,0.708,-0.427,-0.183,0.061,6.075,-42.363,-131.671,-21.547,-11.813,-3.04,27.11,-0.39844,0.30276,0.19077,0.84445,259,0.801,0.117,0.559,0.305,0.854,1.77,11.898,-51.982,158.11,-20.84,-13.38,-18.907,30.33,0.12506,0.44659,0.0097,0.88583,275,0.936,0.077,0.289,-1.587,0.0,0.244,14.024,-71.719,-164.29,-29.247,-12.82,-3.7,32.76,0.18683,-0.55728,-0.18234,-0.78815,263
68,0.936,-0.237,0.347,0.183,0.244,0.244,-35.706,-65.165,-149.804,-27.733,-5.933,-11.433,30.55,0.05002,-0.56027,0.11444,-0.81879,280,0.692,0.077,0.709,-1.16,0.671,-0.488,6.059,-42.369,-131.666,-21.547,-11.813,-3.04,27.11,-0.39844,0.30276,0.19077,0.84445,268,0.8,0.113,0.557,0.427,-0.183,0.916,11.876,-51.987,158.088,-20.84,-13.38,-18.907,30.33,0.12506,0.44659,0.0097,0.88583,284,0.941,0.083,0.285,-1.404,-0.061,0.183,13.98,-71.724,-164.268,-29.247,-12.82,-3.7,32.76,0.18683,-0.55728,-0.18234,-0.78815,276
69,0.939,-0.236,0.341,-0.061,0.549,0.183,-35.695,-65.16,-149.843,-27.733,-5.933,-11.433,30.55,0.05002,-0.56027,0.11444,-0.81879,281,0.697,0.077,0.709,-1.404,1.343,-1.099,6.037,-42.363,-131.666,-21.547,-11.813,-3.04,27.11,-0.39844,0.30276,0.19077,0.84445,269,0.794,0.123,0.56,-0.427,1.404,0.305,11.865,-51.987,158.055,-20.84,-13.38,-18.907,30.33,0.12506,0.44659,0.0097,0.88583,285,0.946,0.086,0.281,-1.282,0.61,0.183,13.947,-71.73,-164.273,-29.247,-12.82,-3.7,32.76,0.18683,-0.55728,-0.18234,-0.78815,277
70,0.936,-0.244,0.333,-0.305,0.977,0.0,-35.673,-65.143,-149.903,-27.733,-5.933,-11.433,30.55,0.05002,-0.56027,0.11444,-0.81879,282,0.692,0.066,0.708,-0.549,1.953,-1.221,6.031,-42.347,-131.677,-21.547,-11.813,-3.04,27.11,-0.39844,0.30276,0.19077,0.84445,270,0.8,0.13,0.567,-1.831,3.235,-0.183,11.832,-51.96,158.033,-20.84,-13.38,-18.907,30.33,0.12506,0.44659,0.0097,0.88583,286,0.941,0.078,0.274,-1.587,1.221,-0.122,13.914,-71.724,-164.279,-29.247,-12.82,-3.7,32.76,0.18683,-0.55728,-0.18234,-0.78815,278
71,0.939,-0.236,0.341,-0.061,0.549,0.183,-35.695,-65.16,-149.843,-27.733,-5.933,-11.433,30.55,0.05002,-0.56027,0.11444,-0.81879,283,0.697,0.077,0.709,-1.404,1.343,-1.099,6.037,-42.363,-131.666,-21.547,-11.813,-3.04,27.11,-0.39844,0.30276,0.19077,0.84445,271,0.794,0.123,0.56,-0.427,1.404,0.305,11.865,-51.987,158.055,-20.84,-13.38,-18.907,30.33,0.12506,0.44659,0.0097,0.88583,287,0.946,0.086,0.281,-1.282,0.61,0.183,13.947,-71.73,-164.273,-29.247,-12.82,-3.7,32.76,0.18683,-0.55728,-0.18234,-0.78815,279
72,0.942,-0.244,0.333,-0.305,0.977,0.0,-35.673,-65.143,-149.903,-27.733,-5.933,-11.433,30.55,0.05002,-0.56027,0.11444,-0.81879,296,0.701,0.066,0.708,-0.549,1.953,-1.221,6.031,-42.347,-131.677,-21.547,-11.813,-3.04,27.11,-0.3985,0.30908,0.19247,0.84174,300,0.794,0.13,0.567,-1.831,3.235,-0.183,11.832,-51.96,158.033,-20.84,-13.38,-18.907,30.33,0.12506,0.44659,0.0097,0.88583,288,0.95,0.078,0.274,-1.587,1.221,-0.122,13.914,-71.724,-164.279,-29.24,-13.327,-2.74,32.76,0.18683,-0.55728,-0.18234,-0.78815,292
73,0.943,-0.249,0.33,0.0,1.404,-0.122,-35.629,-65.127,-149.985,-27.733,-5.933,-11.433,30.55,0.05002,-0.56027,0.11444,-0.81879,297,0.703,0.06,0.717,-0.122,2.319,-1.099,6.031,-42.319,-131.688,-21.547,-11.813,-3.04,27.11,-0.3985,0.30908,0.19247,0.84174,301,0.799,0.129,0.565,-2.258,4.333,-0.854,11.788,-51.899,157.994,-20.84,-13.38,-18.907,30.33,0.12506,0.44659,0.0097,0.88583,289,0.953,0.07,0.27,-1.526,1.709,-0.916,13.892,-71.702,-164.317,-29.24,-13.327,-2.74,32.76,0.18683,-0.55728,-0.18234,-0.78815,293
74,0.942,-0.25,0.333,0.244,1.648,-0.183,-35.579,-65.11,-150.073,-27.733,-5.933,-11.433,30.55,0.05002,-0.56027,0.11444,-0.81879,298,0.701,0.073,0.728,-0.427,2.38,-1.099,6.042,-42.286,-131.693,-21.547,-11.813,-3.04,27.11,-0.3985,0.30908,0.19247,0.84174,302,0.794,0.122,0.571,0.427,4.089,-0.793,11.777,-51.833,157.934,-20.84,-13.38,-18.907,30.33,0.12506,0.44659,0.0097,0.88583,290,0.95,0.073,0.272,-1.709,2.014,-1.465,13.909,-71.675,-164.405,-29.24,-13.327,-2.74,32.76,0.18683,-0.55728,-0.18234,-0.78815,294
75,0.943,-0.249,0.33,0.0,1.404,-0.122,-35.629,-65.127,-149.985,-27.733,-5.933,-11.433,30.55,0.05002,-0.56027,0.11444,-0.81879,299,0.703,0.06,0.717,-0.122,2.319,-1.099,6.031,-42.319,-131.688,-21.547,-11.813,-3.04,27.11,-0.3985,0.30908,0.19247,0.84174,303,0.799,0.129,0.565,-2.258,4.333,-0.854,11.788,-51.899,157.994,-20.84,-13.38,-18.907,30.33,0.12506,0.44659,0.0097,0.88583,291,0.953,0.07,0.27,-1.526,1.709,-0.916,13.892,-71.702,-164.317,-29.24,-13.327,-2.74,32.76,0.18683,-0.55728,-0.18234,-0.78815,295
76,0.942,-0.25,0.333,0.244,1.648,-0.183,-35.579,-65.11,-150.073,-27.733,-5.933,-11.433,30.55,0.05002,-0.56027,0.11444,-0.81879,320,0.697,0.073,0.728,-0.427,2.38,-1.099,6.042,-42.286,-131.693,-21.547,-11.813,-3.04,27.11,-0.3985,0.30908,0.19247,0.84174,308,0.804,0.122,0.571,0.427,4.089,-0.793,11.777,-51.833,157.934,-20.84,-13.38,-18.907,30.33,0.12506,0.44659,0.0097,0.88583,304,0.953,0.073,0.272,-1.709,2.014,-1.465,13.909,-71.675,-164.405,-29.24,-13.327,-2.74,32.76,0.18683,-0.55728,-0.18234,-0.78815,316
77,0.938,-0.251,0.335,0.244,1.831,-0.244,-35.524,-65.094,-150.156,-27.733,-5.933,-11.433,30.55,0.05002,-0.56027,0.11444,-0.81879,321,0.689,0.084,0.726,-0.732,2.075,-0.977,6.037,-42.253,-131.699,-21.547,-11.813,-3.04,27.11,-0.3985,0.30908,0.19247,0.84174,309,0.804,0.118,0.582,0.427,4.028,-0.916,11.788,-51.768,157.863,-20.84,-13.38,-18.907,30.33,0.12506,0.44659,0.0097,0.88583,305,0.949,0.076,0.276,-0.977,2.136,-1.465,13.947,-71.642,-164.515,-29.24,-13.327,-2.74,32.76,0.18683,-0.55728,-0.18234,-0.78815,317
78,0.942,-0.251,0.337,0.183,1.953,-0.183,-35.475,-65.072,-150.249,-27.733,-5.933,-11.433,30.55,0.05002,-0.56027,0.11444,-0.81879,322,0.697,0.077,0.725,-0.549,2.075,-0.61,6.037,-42.231,-131.688,-21.547,-11.813,-3.04,27.11,-0.3985,0.30908,0.19247,0.84174,310,0.804,0.137,0.594,-0.671,4.517,-0.977,11.794,-51.702,157.775,-20.84,-13.38,-18.907,30.33,0.12506,0.44659,0.0097,0.88583,306,0.953,0.074,0.277,-0.671,2.258,-1.221,13.991,-71.609,-164.619,-29.24,-13.327,-2.74,32.76,0.18683,-0.55728,-0.18234,-0.78815,318
79,0.938,-0.251,0.335,0.244,1.831,-0.244,-35.524,-65.094,-150.156,-27.733,-5.933,-11.433,30.55,0.05002,-0.56027,0.11444,-0.81879,323,0.689,0.084,0.726,-0.732,2.075,-0.977,6.037,-42.253,-131.699,-21.547,-11.813,-3.04,27.11,-0.3985,0.30908,0.19247,0.84174,311,0.804,0.118,0.582,0.427,4.028,-0.916,11.788,-51.768,157.863,-20.84,-13.38,-18.907,30.33,0.12506,0.44659,0.0097,0.88583,307,0.949,0.076,0.276,-0.977,2.136,-1.465,13.947,-71.642,-164.515,-29.24,-13.327,-2.74,32.76,0.18683,-0.55728,-0.18234,-0.78815,319
80,0.941,-0.251,0.337,0.183,1.953,-0.183,-35.475,-65.072,-150.249,-27.733,-5.933,-11.433,30.55,0.05002,-0.56027,0.11444,-0.81879,336,0.691,0.077,0.725,-0.549,2.075,-0.61,6.037,-42.231,-131.688,-21.547,-11.813,-3.04,27.11,-0.3985,0.30908,0.19247,0.84174,324,0.796,0.137,0.594,-0.671,4.517,-0.977,11.794,-51.702,157.775,-20.84,-13.38,-18.907,30.33,0.12506,0.44659,0.0097,0.88583,312,0.951,0.074,0.277,-0.671,2.258,-1.221,13.991,-71.609,-164.619,-29.24,-13.327,-2.74,32.76,0.17911,-0.56241,-0.17593,-0.78775,332
81,0.934,-0.253,0.335,0.366,2.38,-0.244,-35.409,-65.045,-150.331,-27.733,-5.933,-11.433,30.55,0.05002,-0.56027,0.11444,-0.81879,337,0.692,0.073,0.73,-0.427,2.319,-0.977,6.031,-42.204,-131.671,-21.547,-11.813,-3.04,27.11,-0.3985,0.30908,0.19247,0.84174,325,0.79,0.141,0.592,-1.16,3.113,-0.671,11.777,-51.647,157.681,-20.84,-13.38,-18.907,30.33,0.12506,0.44659,0.0097,0.88583,313,0.95,0.075,0.278,-0.916,2.747,-1.038,14.019,-71.576,-164.702,-29.24,-13.327,-2.74,32.76,0.17911,-0.56241,-0.17593,-0.78775,333
82,0.941,-0.257,0.338,0.244,2.93,-0.244,-35.338,-65.012,-150.425,-27.733,-5.933,-11.433,30.55,0.05002,-0.56027,0.11444,-0.81879,338,0.691,0.069,0.733,-0.427,2.014,-1.099,6.031,-42.177,-131.671,-21.547,-11.813,-3.04,27.11,-0.3985,0.30908,0.19247,0.84174,326,0.796,0.13,0.594,-0.549,1.038,-0.305,11.772,-51.619,157.571,-20.84,-13.38,-18.907,30.33,0.12506,0.44659,0.0097,0.88583,314,0.951,0.068,0.277,-0.427,3.113,-1.16,14.035,-71.532,-164.762,-29.24,-13.327,-2.74,32.76,0.17911,-0.56241,-0.17593,-0.78775,334
83,0.934,-0.253,0.335,0.366,2.38,-0.244,-35.409,-65.045,-150.331,-27.733,-5.933,-11.433,30.55,0.05002,-0.56027,0.11444,-0.81879,339,0.692,0.073,0.73,-0.427,2.319,-0.977,6.031,-42.204,-131.671,-21.547,-11.813,-3.04,27.11,-0.3985,0.30908,0.19247,0.84174,327,0.79,0.141,0.592,-1.16,3.113,-0.671,11.777,-51.647,157.681,-20.84,-13.38,-18.907,30.33,0.12506,0.44659,0.0097,0.88583,315,0.95,0.075,0.278,-0.916,2.747,-1.038,14.019,-71.576,-164.702,-29.24,-13.327,-2.74,32.76,0.17911,-0.56241,-0.17593,-0.78775,335
84,0.921,-0.257,0.338,0.244,2.93,-0.244,-35.338,-65.012,-150.425,-27.807,-5.807,-11.287,30.55,0.05002,-0.56027,0.11444,-0.81879,344,0.677,0.069,0.733,-0.427,2.014,-1.099,6.031,-42.177,-131.671,-21.547,-11.813,-3.04,27.11,-0.3985,0.30908,0.19247,0.84174,348,0.796,0.13,0.594,-0.549,1.038,-0.305,11.772,-51.619,157.571,-20.84,-13.38,-18.907,30.33,0.12506,0.44659,0.0097,0.88583,328,0.938,0.068,0.277,-0.427,3.113,-1.16,14.035,-71.532,-164.762,-29.24,-13.327,-2.74,32.76,0.17911,-0.56241,-0.17593,-0.78775,340
85,0.92,-0.254,0.346,-0.366,3.357,-0.305,-35.266,-64.968,-150.54,-27.807,-5.807,-11.287,30.55,0.05002,-0.56027,0.11444,-0.81879,345,0.664,0.072,0.729,-0.61,1.77,-0.305,6.031,-42.149,-131.666,-21.547,-11.813,-3.04,27.11,-0.3985,0.30908,0.19247,0.84174,349,0.793,0.126,0.597,0.366,1.465,-0.793,11.783,-51.614,157.489,-20.84,-13.38,-18.907,30.33,0.12506,0.44659,0.0097,0.88583,329,0.932,0.065,0.284,-1.038,3.418,-1.16,14.052,-71.483,-164.817,-29.24,-13.327,-2.74,32.76,0.17911,-0.56241,-0.17593,-0.78775,341
86,0.921,-0.253,0.348,-0.427,3.357,-0.061,-35.2,-64.918,-150.639,-27.807,-5.807,-11.287,30.55,0.05002,-0.56027,0.11444,-0.81879,346,0.677,0.069,0.736,0.427,1.709,0.183,6.021,-42.133,-131.644,-21.547,-11.813,-3.04,27.11,-0.3985,0.30908,0.19247,0.84174,350,0.796,0.13,0.597,0.061,1.953,-0.488,11.799,-51.592,157.39,-20.84,-13.38,-18.907,30.33,0.12506,0.44659,0.0097,0.88583,330,0.938,0.073,0.292,-1.343,3.723,-0.732,14.046,-71.428,-164.861,-29.24,-13.327,-2.74,32.76,0.17911,-0.56241,-0.17593,-0.78775,342
87,0.92,-0.254,0.346,-0.366,3.357,-0.305,-35.266,-64.968,-150.54,-27.807,-5.807,-11.287,30.55,0.05002,-0.56027,0.11444,-0.81879,347,0.664,0.072,0.729,-0.61,1.77,-0.305,6.031,-42.149,-131.666,-21.547,-11.813,-3.04,27.11,-0.3985,0.30908,0.19247,0.84174,351,0.793,0.126,0.597,0.366,1.465,-0.793,11.783,-51.614,157.489,-20.84,-13.38,-18.907,30.33,0.12506,0.44659,0.0097,0.88583,331,0.932,0.065,0.284,-1.038,3.418,-1.16,14.052,-71.483,-164.817,-29.24,-13.327,-2.74,32.76,0.17911,-0.56241,-0.17593,-0.78775,343
88,0.925,-0.253,0.348,-0.427,3.357,-0.061,-35.2,-64.918,-150.639,-27.807,-5.807,-11.287,30.55,0.05002,-0.56027,0.11444,-0.81879,360,0.673,0.069,0.736,0.427,1.709,0.183,6.021,-42.133,-131.644,-21.547,-11.813,-3.04,27.11,-0.3985,0.30908,0.19247,0.84174,356,0.774,0.13,0.597,0.061,1.953,-0.488,11.799,-51.592,157.39,-20.84,-13.38,-18.907,30.33,0.12506,0.44659,0.0097,0.88583,352,0.935,0.073,0.292,-1.343,3.723,-0.732,14.046,-71.428,-164.861,-29.24,-13.327,-2.74,32.76,0.17911,-0.56241,-0.17593,-0.78775,372
89,0.929,-0.254,0.355,0.061,3.174,0.122,-35.14,-64.874,-150.721,-27.807,-5.807,-11.287,30.55,0.05002,-0.56027,0.11444,-0.81879,361,0.672,0.062,0.738,1.404,1.282,-0.183,6.037,-42.116,-131.611,-21.547,-11.813,-3.04,27.11,-0.3985,0.30908,0.19247,0.84174,357,0.771,0.13,0.597,0.0,2.38,0.0,11.799,-51.564,157.313,-20.84,-13.38,-18.907,30.33,0.12506,0.44659,0.0097,0.88583,353,0.938,0.07,0.3,-0.916,3.54,-0.244,14.002,-71.373,-164.888,-29.24,-13.327,-2.74,32.76,0.17911,-0.56241,-0.17593,-0.78775,373
90,0.925,-0.242,0.355,0.488,3.296,0.244,-35.068,-64.819,-150.787,-27.807,-5.807,-11.287,30.55,0.05002,-0.56027,0.11444,-0.81879,362,0.673,0.069,0.743,0.854,0.305,-0.916,6.059,-42.105,-131.594,-21.547,-11.813,-3.04,27.11,-0.3985,0.30908,0.19247,0.84174,358,0.774,0.118,0.609,2.258,2.625,-0.061,11.816,-51.531,157.269,-20.84,-13.38,-18.907,30.33,0.12506,0.44659,0.0097,0.88583,354,0.935,0.079,0.302,-1.465,3.418,0.0,13.947,-71.318,-164.905,-29.24,-13.327,-2.74,32.76,0.17911,-0.56241,-0.17593,-0.78775,374
91,0.929,-0.254,0.355,0.061,3.174,0.122,-35.14,-64.874,-150.721,-27.807,-5.807,-11.287,30.55,0.05002,-0.56027,0.11444,-0.81879,363,0.672,0.062,0.738,1.404,1.282,-0.183,6.037,-42.116,-131.611,-21.547,-11.813,-3.04,27.11,-0.3985,0.30908,0.19247,0.84174,359,0.771,0.13,0.597,0.0,2.38,0.0,11.799,-51.564,157.313,-20.84,-13.38,-18.907,30.33,0.12506,0.44659,0.0097,0.88583,355,0.938,0.07,0.3,-0.916,3.54,-0.244,14.002,-71.373,-164.888,-29.24,-13.327,-2.74,32.76,0.17911,-0.56241,-0.17593,-0.78775,375
92,0.919,-0.242,0.355,0.488,3.296,0.244,-35.068,-64.819,-150.787,-27.807,-5.807,-11.287,30.55,0.04669,-0.55933,0.11725,-0.81921,380,0.66,0.069,0.743,0.854,0.305,-0.916,6.059,-42.105,-131.594,-21.547,-11.813,-3.04,27.11,-0.3985,0.30908,0.19247,0.84174,364,0.783,0.118,0.609,2.258,2.625,-0.061,11.816,-51.531,157.269,-20.84,-13.38,-18.907,30.33,0.12506,0.44659,0.0097,0.88583,368,0.932,0.079,0.302,-1.465,3.418,0.0,13.947,-71.318,-164.905,-29.24,-13.327,-2.74,32.76,0.17911,-0.56241,-0.17593,-0.78775,376
93,0.916,-0.239,0.357,-0.366,2.93,0.305,-35.024,-64.775,-150.842,-27.807,-5.807,-11.287,30.55,0.04669,-0.55933,0.11725,-0.81921,381,0.661,0.082,0.751,0.61,0.427,-1.099,6.086,-42.105,-131.589,-21.547,-11.813,-3.04,27.11,-0.3985,0.30908,0.19247,0.84174,365,0.773,0.116,0.61,3.967,2.319,-0.793,11.876,-51.487,157.22,-20.84,-13.38,-18.907,30.33,0.12506,0.44659,0.0097,0.88583,369,0.927,0.082,0.304,-1.404,3.113,0.061,13.87,-71.268,-164.883,-29.24,-13.327,-2.74,32.76,0.17911,-0.56241,-0.17593,-0.78775,377
94,0.919,-0.25,0.368,-0.916,2.319,0.061,-34.991,-64.742,-150.903,-27.807,-5.807,-11.287,30.55,0.04669,-0.55933,0.11725,-0.81921,382,0.66,0.07,0.748,1.221,0.244,-0.427,6.108,-42.105,-131.589,-21.547,-11.813,-3.04,27.11,-0.3985,0.30908,0.19247,0.84174,366,0.783,0.131,0.616,2.258,1.953,-1.404,11.953,-51.454,157.165,-20.84,-13.38,-18.907,30.33,0.12506,0.44659,0.0097,0.88583,370,0.932,0.07,0.313,-0.732,2.441,-0.549,13.826,-71.224,-164.866,-29.24,-13.327,-2.74,32.76,0.17911,-0.56241,-0.17593,-0.78775,378
95,0.916,-0.239,0.357,-0.366,2.93,0.305,-35.024,-64.775,-150.842,-27.807,-5.807,-11.287,30.55,0.04669,-0.55933,0.11725,-0.81921,383,0.661,0.082,0.751,0.61,0.427,-1.099,6.086,-42.105,-131.589,-21.547,-11.813,-3.04,27.11,-0.3985,0.30908,0.19247,0.84174,367,0.773,0.116,0.61,3.967,2.319,-0.793,11.876,-51.487,157.22,-20.84,-13.38,-18.907,30.33,0.12506,0.44659,0.0097,0.88583,371,0.927,0.082,0.304,-1.404,3.113,0.061,13.87,-71.268,-164.883,-29.24,-13.327,-2.74,32.76,0.17911,-0.56241,-0.17593,-0.78775,379
96,0.914,-0.25,0.368,-0.916,2.319,0.061,-34.991,-64.742,-150.903,-27.807,-5.807,-11.287,30.55,0.04669,-0.55933,0.11725,-0.81921,392,0.667,0.07,0.748,1.221,0.244,-0.427,6.108,-42.105,-131.589,-21.547,-11.813,-3.04,27.11,-0.3985,0.30908,0.19247,0.84174,396,0.765,0.131,0.616,2.258,1.953,-1.404,11.953,-51.454,157.165,-20.527,-13.367,-19.073,30.33,0.12506,0.44659,0.0097,0.88583,384,0.931,0.07,0.313,-0.732,2.441,-0.549,13.826,-71.224,-164.866,-29.24,-13.327,-2.74,32.76,0.17911,-0.56241,-0.17593,-0.78775,388
97,0.911,-0.254,0.367,-0.61,1.77,0.0,-34.964,-64.715,-150.947,-27.807,-5.807,-11.287,30.55,0.04669,-0.55933,0.11725,-0.81921,393,0.663,0.062,0.74,1.038,0.061,0.427,6.125,-42.1,-131.572,-21.547,-11.813,-3.04,27.11,-0.3985,0.30908,0.19247,0.84174,397,0.77,0.138,0.621,2.075,1.282,-1.16,12.019,-51.422,157.115,-20.527,-13.367,-19.073,30.33,0.12506,0.44659,0.0097,0.88583,385,0.925,0.064,0.318,-0.854,2.014,-1.099,13.832,-71.186,-164.899,-29.24,-13.327,-2.74,32.76,0.17911,-0.56241,-0.17593,-0.78775,389
98,0.914,-0.246,0.37,0.0,1.648,0.0,-34.926,-64.688,-150.98,-27.807,-5.807,-11.287,30.55,0.04669,-0.55933,0.11725,-0.81921,394,0.667,0.078,0.737,0.61,0.183,0.916,6.119,-42.105,-131.539,-21.547,-11.813,-3.04,27.11,-0.3985,0.30908,0.19247,0.84174,398,0.765,0.125,0.616,2.502,1.038,-0.366,12.079,-51.4,157.077,-20.527,-13.367,-19.073,30.33,0.12506,0.44659,0.0097,0.88583,386,0.931,0.072,0.316,-1.038,1.77,-1.099,13.843,-71.153,-164.938,-29.24,-13.327,-2.74,32.76,0.17911,-0.56241,-0.17593,-0.78775,390
99,0.911,-0.254,0.367,-0.61,1.77,0.0,-34.964,-64.715,-150.947,-27.807,-5.807,-11.287,30.55,0.04669,-0.55933,0.11725,-0.81921,395,0.663,0.062,0.74,1.038,0.061,0.427,6.125,-42.1,-131.572,-21.547,-11.813,-3.04,27.11,-0.3985,0.30908,0.19247,0.84174,399,0.77,0.138,0.621,2.075,1.282,-1.16,12.019,-51.422,157.115,-20.527,-13.367,-19.073,30.33,0.12506,0.44659,0.0097,0.88583,387,0.925,0.064,0.318,-0.854,2.014,-1.099,13.832,-71.186,-164.899,-29.24,-13.327,-2.74,32.76,0.17911,-0.56241,-0.17593,-0.78775,391
100,0.913,-0.246,0.37,0.0,1.648,0.0,-34.926,-64.688,-150.98,-27.807,-5.807,-11.287,30.55,0.04669,-0.55933,0.11725,-0.81921,416,0.663,0.078,0.737,0.61,0.183,0.916,6.119,-42.105,-131.539,-21.54,-11.627,-3.027,27.11,-0.3985,0.30908,0.19247,0.84174,404,0.77,0.125,0.616,2.502,1.038,-0.366,12.079,-51.4,157.077,-20.527,-13.367,-19.073,30.33,0.12506,0.44659,0.0097,0.88583,400,0.923,0.072,0.316,-1.038,1.77,-1.099,13.843,-71.153,-164.938,-29.24,-13.327,-2.74,32.76,0.17911,-0.56241,-0.17593,-0.78775,412
101,0.917,-0.245,0.368,0.061,1.404,-0.122,-34.882,-64.666,-151.013,-27.807,-5.807,-11.287,30.55,0.04669,-0.55933,0.11725,-0.81921,417,0.665,0.09,0.743,0.244,0.61,0.793,6.108,-42.094,-131.495,-21.54,-11.627,-3.027,27.11,-0.3985,0.30908,0.19247,0.84174,405,0.763,0.128,0.606,2.991,1.282,0.549,12.123,-51.378,157.099,-20.527,-13.367,-19.073,30.33,0.12506,0.44659,0.0097,0.88583,401,0.929,0.077,0.317,-1.099,1.892,-1.038,13.848,-71.115,-164.982,-29.24,-13.327,-2.74,32.76,0.17911,-0.56241,-0.17593,-0.78775,413
102,0.913,-0.25,0.37,0.244,0.977,0.061,-34.854,-64.649,-151.051,-27.807,-5.807,-11.287,30.55,0.04669,-0.55933,0.11725,-0.81921,418,0.663,0.084,0.742,0.0,0.61,0.549,6.092,-42.083,-131.451,-21.54,-11.627,-3.027,27.11,-0.3985,0.30908,0.19247,0.84174,406,0.77,0.143,0.606,2.441,2.38,1.16,12.145,-51.345,157.143,-20.527,-13.367,-19.073,30.33,0.12506,0.44659,0.0097,0.88583,402,0.923,0.078,0.319,-0.916,1.587,-0.671,13.848,-71.082,-165.015,-29.24,-13.327,-2.74,32.76,0.17911,-0.56241,-0.17593,-0.78775,414
103,0.917,-0.245,0.368,0.061,1.404,-0.122,-34.882,-64.666,-151.013,-27.807,-5.807,-11.287,30.55,0.04669,-0.55933,0.11725,-0.81921,419,0.665,0.09,0.743,0.244,0.61,0.793,6.108,-42.094,-131.495,-21.54,-11.627,-3.027,27.11,-0.3985,0.30908,0.19247,0.84174,407,0.763,0.128,0.606,2.991,1.282,0.549,12.123,-51.378,157.099,-20.527,-13.367,-19.073,30.33,0.12506,0.44659,0.0097,0.88583,403,0.929,0.077,0.317,-1.099,1.892,-1.038,13.848,-71.115,-164.982,-29.24,-13.327,-2.74,32.76,0.17911,-0.56241,-0.17593,-0.78775,415
104,0.922,-0.25,0.37,0.244,0.977,0.061,-34.854,-64.649,-151.051,-27.807,-5.807,-11.287,30.55,0.04669,-0.55933,0.11725,-0.81921,428,0.665,0.084,0.742,0.0,0.61,0.549,6.092,-42.083,-131.451,-21.54,-11.627,-3.027,27.11,-0.3985,0.30908,0.19247,0.84174,420,0.767,0.143,0.606,2.441,2.38,1.16,12.145,-51.345,157.143,-20.527,-13.367,-19.073,30.33,0.13263,0.44113,0.00809,0.88748,408,0.931,0.078,0.319,-0.916,1.587,-0.671,13.848,-71.082,-165.015,-29.24,-13.327,-2.74,32.76,0.17911,-0.56241,-0.17593,-0.78775,424
105,0.923,-0.248,0.368,0.732,0.916,0.488,-34.827,-64.627,-151.068,-27.807,-5.807,-11.287,30.55,0.04669,-0.55933,0.11725,-0.81921,429,0.675,0.072,0.738,0.61,0.732,0.793,6.081,-42.072,-131.413,-21.54,-11.627,-3.027,27.11,-0.3985,0.30908,0.19247,0.84174,421,0.765,0.145,0.613,0.488,3.723,0.977,12.134,-51.29,157.198,-20.527,-13.367,-19.073,30.33,0.13263,0.44113,0.00809,0.88748,409,0.932,0.075,0.314,-0.671,1.465,-0.427,13.837,-71.049,-165.037,-29.24,-13.327,-2.74,32.76,0.17911,-0.56241,-0.17593,-0.78775,425
106,0.922,-0.242,0.366,1.831,1.038,0.854,-34.788,-64.594,-151.095,-27.807,-5.807,-11.287,30.55,0.04669,-0.55933,0.11725,-0.81921,430,0.665,0.067,0.733,0.793,1.038,0.916,6.075,-42.056,-131.369,-21.54,-11.627,-3.027,27.11,-0.3985,0.30908,0.19247,0.84174,422,0.767,0.136,0.609,-0.122,3.906,0.671,12.101,-51.218,157.247,-20.527,-13.367,-19.073,30.33,0.13263,0.44113,0.00809,0.88748,410,0.931,0.079,0.309,1.038,1.892,-0.793,13.848,-71.016,-165.042,-29.24,-13.327,-2.74,32.76,0.17911,-0.56241,-0.17593,-0.78775,426
107,0.923,-0.248,0.368,0.732,0.916,0.488,-34.827,-64.627,-151.068,-27.807,-5.807,-11.287,30.55,0.04669,-0.55933,0.11725,-0.81921,431,0.675,0.072,0.738,0.61,0.732,0.793,6.081,-42.072,-131.413,-21.54,-11.627,-3.027,27.11,-0.3985,0.30908,0.19247,0.84174,423,0.765,0.145,0.613,0.488,3.723,0.977,12.134,-51.29,157.198,-20.527,-13.367,-19.073,30.33,0.13263,0.44113,0.00809,0.88748,411,0.932,0.075,0.314,-0.671,1.465,-0.427,13.837,-71.049,-165.037,-29.24,-13.327,-2.74,32.76,0.17911,-0.56241,-0.17593,-0.78775,427
108,0.921,-0.242,0.366,1.831,1.038,0.854,-34.788,-64.594,-151.095,-27.807,-5.807,-11.287,30.55,0.04669,-0.55933,0.11725,-0.81921,440,0.678,0.067,0.733,0.793,1.038,0.916,6.075,-42.056,-131.369,-21.54,-11.627,-3.027,27.11,-0.40085,0.30627,0.19263,0.84158,448,0.769,0.136,0.609,-0.122,3.906,0.671,12.101,-51.218,157.247,-20.527,-13.367,-19.073,30.33,0.13263,0.44113,0.00809,0.88748,432,0.934,0.079,0.309,1.038,1.892,-0.793,13.848,-71.016,-165.042,-28.633,-13.247,-3.213,32.76,0.17911,-0.56241,-0.17593,-0.78775,436
109,0.922,-0.24,0.367,0.305,0.977,0.549,-34.772,-64.572,-151.128,-27.807,-5.807,-11.287,30.55,0.04669,-0.55933,0.11725,-0.81921,441,0.678,0.075,0.73,1.16,1.282,0.977,6.075,-42.034,-131.331,-21.54,-11.627,-3.027,27.11,-0.40085,0.30627,0.19263,0.84158,449,0.777,0.128,0.605,0.671,4.578,0.732,12.068,-51.136,157.286,-20.527,-13.367,-19.073,30.33,0.13263,0.44113,0.00809,0.88748,433,0.933,0.083,0.319,0.549,1.77,-1.038,13.887,-70.977,-165.07,-28.633,-13.247,-3.213,32.76,0.17911,-0.56241,-0.17593,-0.78775,437
110,0.921,-0.248,0.359,0.244,0.488,0.488,-34.761,-64.561,-151.155,-27.807,-5.807,-11.287,30.55,0.04669,-0.55933,0.11725,-0.81921,442,0.678,0.089,0.737,1.953,1.648,0.977,6.081,-42.012,-131.292,-21.54,-11.627,-3.027,27.11,-0.40085,0.30627,0.19263,0.84158,450,0.769,0.128,0.6,2.136,5.432,1.038,12.052,-51.042,157.319,-20.527,-13.367,-19.073,30.33,0.13263,0.44113,0.00809,0.88748,434,0.934,0.081,0.311,-0.916,1.77,-1.038,13.92,-70.939,-165.108,-28.633,-13.247,-3.213,32.76,0.17911,-0.56241,-0.17593,-0.78775,438
111,0.922,-0.24,0.367,0.305,0.977,0.549,-34.772,-64.572,-151.128,-27.807,-5.807,-11.287,30.55,0.04669,-0.55933,0.11725,-0.81921,443,0.678,0.075,0.73,1.16,1.282,0.977,6.075,-42.034,-131.331,-21.54,-11.627,-3.027,27.11,-0.40085,0.30627,0.19263,0.84158,451,0.777,0.128,0.605,0.671,4.578,0.732,12.068,-51.136,157.286,-20.527,-13.367,-19.073,30.33,0.13263,0.44113,0.00809,0.88748,435,0.933,0.083,0.319,0.549,1.77,-1.038,13.887,-70.977,-165.07,-28.633,-13.247,-3.213,32.76,0.17911,-0.56241,-0.17593,-0.78775,439
112,0.929,-0.248,0.359,0.244,0.488,0.488,-34.761,-64.561,-151.155,-27.807,-5.807,-11.287,30.55,0.04669,-0.55933,0.11725,-0.81921,464,0.682,0.089,0.737,1.953,1.648,0.977,6.081,-42.012,-131.292,-21.54,-11.627,-3.027,27.11,-0.40085,0.30627,0.19263,0.84158,452,0.774,0.128,0.6,2.136,5.432,1.038,12.052,-51.042,157.319,-20.527,-13.367,-19.073,30.33,0.13263,0.44113,0.00809,0.88748,444,0.937,0.081,0.311,-0.916,1.77,-1.038,13.92,-70.939,-165.108,-28.633,-13.247,-3.213,32.76,0.17911,-0.56241,-0.17593,-0.78775,460
113,0.935,-0.252,0.362,0.549,0.427,0.793,-34.761,-64.545,-151.161,-27.807,-5.807,-11.287,30.55,0.04669,-0.55933,0.11725,-0.81921,465,0.675,0.086,0.737,1.404,1.587,0.305,6.097,-41.979,-131.265,-21.54,-11.627,-3.027,27.11,-0.40085,0.30627,0.19263,0.84158,453,0.776,0.143,0.602,3.479,6.104,1.709,12.052,-50.938,157.401,-20.527,-13.367,-19.073,30.33,0.13263,0.44113,0.00809,0.88748,445,0.942,0.078,0.309,0.0,1.648,-0.732,13.936,-70.9,-165.141,-28.633,-13.247,-3.213,32.76,0.17911,-0.56241,-0.17593,-0.78775,461
114,0.929,-0.245,0.354,0.549,0.671,0.854,-34.761,-64.523,-151.161,-27.807,-5.807,-11.287,30.55,0.04669,-0.55933,0.11725,-0.81921,466,0.682,0.079,0.737,1.282,0.977,0.305,6.119,-41.962,-131.243,-21.54,-11.627,-3.027,27.11,-0.40085,0.30627,0.19263,0.84158,454,0.774,0.145,0.612,3.845,6.958,1.465,12.057,-50.823,157.473,-20.527,-13.367,-19.073,30.33,0.13263,0.44113,0.00809,0.88748,446,0.937,0.084,0.303,-1.526,1.709,-0.122,13.92,-70.873,-165.152,-28.633,-13.247,-3.213,32.76,0.17911,-0.56241,-0.17593,-0.78775,462
115,0.935,-0.252,0.362,0.549,0.427,0.793,-34.761,-64.545,-151.161,-27.807,-5.807,-11.287,30.55,0.04669,-0.55933,0.11725,-0.81921,467,0.675,0.086,0.737,1.404,1.587,0.305,6.097,-41.979,-131.265,-21.54,-11.627,-3.027,27.11,-0.40085,0.30627,0.19263,0.84158,455,0.776,0.143,0.602,3.479,6.104,1.709,12.052,-50.938,157.401,-20.527,-13.367,-19.073,30.33,0.13263,0.44113,0.00809,0.88748,447,0.942,0.078,0.309,0.0,1.648,-0.732,13.936,-70.9,-165.141,-28.633,-13.247,-3.213,32.76,0.17911,-0.56241,-0.17593,-0.78775,463
116,0.934,-0.245,0.354,0.549,0.671,0.854,-34.761,-64.523,-151.161,-27.807,-5.807,-11.287,30.55,0.04669,-0.55933,0.11725,-0.81921,476,0.679,0.079,0.737,1.282,0.977,0.305,6.119,-41.962,-131.243,-21.54,-11.627,-3.027,27.11,-0.40085,0.30627,0.19263,0.84158,468,0.777,0.145,0.612,3.845,6.958,1.465,12.057,-50.823,157.473,-20.527,-13.367,-19.073,30.33,0.13263,0.44113,0.00809,0.88748,456,0.943,0.084,0.303,-1.526,1.709,-0.122,13.92,-70.873,-165.152,-28.633,-13.247,-3.213,32.76,0.17435,-0.55823,-0.17242,-0.79257,472
117,0.923,-0.251,0.355,0.366,1.282,0.61,-34.739,-64.495,-151.199,-27.807,-5.807,-11.287,30.55,0.04669,-0.55933,0.11725,-0.81921,477,0.678,0.076,0.74,1.648,1.831,0.366,6.136,-41.935,-131.21,-21.54,-11.627,-3.027,27.11,-0.40085,0.30627,0.19263,0.84158,469,0.77,0.141,0.615,2.625,7.202,0.61,12.068,-50.696,157.516,-20.527,-13.367,-19.073,30.33,0.13263,0.44113,0.00809,0.88748,457,0.942,0.082,0.297,-2.136,1.77,0.183,13.865,-70.84,-165.13,-28.633,-13.247,-3.213,32.76,0.17435,-0.55823,-0.17242,-0.79257,473
118,0.934,-0.258,0.358,0.488,0.977,0.671,-34.728,-64.479,-151.227,-27.807,-5.807,-11.287,30.55,0.04669,-0.55933,0.11725,-0.81921,478,0.679,0.077,0.742,1.587,1.953,0.488,6.158,-41.907,-131.182,-21.54,-11.627,-3.027,27.11,-0.40085,0.30627,0.19263,0.84158,470,0.777,0.136,0.617,1.282,5.127,0.61,12.068,-50.581,157.533,-20.527,-13.367,-19.073,30.33,0.13263,0.44113,0.00809,0.88748,458,0.943,0.071,0.303,-1.16,1.831,0.305,13.799,-70.812,-165.114,-28.633,-13.247,-3.213,32.76,0.17435,-0.55823,-0.17242,-0.79257,474
119,0.923,-0.251,0.355,0.366,1.282,0.61,-34.739,-64.495,-151.199,-27.807,-5.807,-11.287,30.55,0.04669,-0.55933,0.11725,-0.81921,479,0.678,0.076,0.74,1.648,1.831,0.366,6.136,-41.935,-131.21,-21.54,-11.627,-3.027,27.11,-0.40085,0.30627,0.19263,0.84158,471,0.77,0.141,0.615,2.625,7.202,0.61,12.068,-50.696,157.516,-20.527,-13.367,-19.073,30.33,0.13263,0.44113,0.00809,0.88748,459,0.942,0.082,0.297,-2.136,1.77,0.183,13.865,-70.84,-165.13,-28.633,-13.247,-3.213,32.76,0.17435,-0.55823,-0.17242,-0.79257,475
120,0.921,-0.258,0.358,0.488,0.977,0.671,-34.728,-64.479,-151.227,-27.627,-5.807,-12.193,30.55,0.04669,-0.55933,0.11725,-0.81921,496,0.673,0.077,0.742,1.587,1.953,0.488,6.158,-41.907,-131.182,-21.54,-11.627,-3.027,27.11,-0.40085,0.30627,0.19263,0.84158,488,0.776,0.136,0.617,1.282,5.127,0.61,12.068,-50.581,157.533,-20.527,-13.367,-19.073,30.33,0.13263,0.44113,0.00809,0.88748,480,0.933,0.071,0.303,-1.16,1.831,0.305,13.799,-70.812,-165.114,-28.633,-13.247,-3.213,32.76,0.17435,-0.55823,-0.17242,-0.79257,484
121,0.927,-0.25,0.356,0.61,0.793,0.854,-34.728,-64.457,-151.232,-27.627,-5.807,-12.193,30.55,0.04669,-0.55933,0.11725,-0.81921,497,0.669,0.075,0.74,1.77,1.831,1.038,6.174,-41.874,-131.138,-21.54,-11.627,-3.027,27.11,-0.40085,0.30627,0.19263,0.84158,489,0.771,0.136,0.616,-0.671,4.517,0.366,12.047,-50.499,157.511,-20.527,-13.367,-19.073,30.33,0.13263,0.44113,0.00809,0.88748,481,0.933,0.069,0.307,0.0,1.953,0.244,13.755,-70.785,-165.081,-28.633,-13.247,-3.213,32.76,0.17435,-0.55823,-0.17242,-0.79257,485
122,0.921,-0.243,0.353,0.854,0.854,0.732,-34.717,-64.435,-151.26,-27.627,-5.807,-12.193,30.55,0.04669,-0.55933,0.11725,-0.81921,498,0.673,0.069,0.741,2.38,1.465,1.465,6.185,-41.847,-131.078,-21.54,-11.627,-3.027,27.11,-0.40085,0.30627,0.19263,0.84158,490,0.776,0.137,0.62,-0.427,4.883,0.427,12.008,-50.411,157.478,-20.527,-13.367,-19.073,30.33,0.13263,0.44113,0.00809,0.88748,482,0.933,0.078,0.305,0.0,1.77,0.244,13.716,-70.757,-165.053,-28.633,-13.247,-3.213,32.76,0.17435,-0.55823,-0.17242,-0.79257,486
123,0.927,-0.25,0.356,0.61,0.793,0.854,-34.728,-64.457,-151.232,-27.627,-5.807,-12.193,30.55,0.04669,-0.55933,0.11725,-0.81921,499,0.669,0.075,0.74,1.77,1.831,1.038,6.174,-41.874,-131.138,-21.54,-11.627,-3.027,27.11,-0.40085,0.30627,0.19263,0.84158,491,0.771,0.136,0.616,-0.671,4.517,0.366,12.047,-50.499,157.511,-20.527,-13.367,-19.073,30.33,0.13263,0.44113,0.00809,0.88748,483,0.933,0.069,0.307,0.0,1.953,0.244,13.755,-70.785,-165.081,-28.633,-13.247,-3.213,32.76,0.17435,-0.55823,-0.17242,-0.79257,487
124,0.93,-0.243,0.353,0.854,0.854,0.732,-34.717,-64.435,-151.26,-27.627,-5.807,-12.193,30.55,0.0462,-0.55554,0.11826,-0.82169,512,0.679,0.069,0.741,2.38,1.465,1.465,6.185,-41.847,-131.078,-21.54,-11.627,-3.027,27.11,-0.40085,0.30627,0.19263,0.84158,500,0.763,0.137,0.62,-0.427,4.883,0.427,12.008,-50.411,157.478,-20.527,-13.367,-19.073,30.33,0.13263,0.44113,0.00809,0.88748,492,0.938,0.078,0.305,0.0,1.77,0.244,13.716,-70.757,-165.053,-28.633,-13.247,-3.213,32.76,0.17435,-0.55823,-0.17242,-0.79257,508
125,0.926,-0.246,0.354,0.732,1.038,0.427,-34.695,-64.418,-151.315,-27.627,-5.807,-12.193,30.55,0.0462,-0.55554,0.11826,-0.82169,513,0.674,0.073,0.738,2.441,1.221,1.099,6.207,-41.83,-131.006,-21.54,-11.627,-3.027,27.11,-0.40085,0.30627,0.19263,0.84158,501,0.768,0.132,0.626,0.793,4.883,0.366,11.981,-50.328,157.456,-20.527,-13.367,-19.073,30.33,0.13263,0.44113,0.00809,0.88748,493,0.939,0.082,0.302,-0.061,1.648,0.061,13.689,-70.73,-165.037,-28.633,-13.247,-3.213,32.76,0.17435,-0.55823,-0.17242,-0.79257,509
126,0.93,-0.252,0.357,0.488,1.099,0.366,-34.673,-64.402,-151.37,-27.627,-5.807,-12.193,30.55,0.0462,-0.55554,0.11826,-0.82169,514,0.679,0.08,0.743,1.709,1.16,0.61,6.224,-41.814,-130.952,-21.54,-11.627,-3.027,27.11,-0.40085,0.30627,0.19263,0.84158,502,0.763,0.125,0.625,3.662,3.418,0.671,11.997,-50.251,157.445,-20.527,-13.367,-19.073,30.33,0.13263,0.44113,0.00809,0.88748,494,0.938,0.076,0.305,-0.183,1.587,0.0,13.667,-70.708,-165.026,-28.633,-13.247,-3.213,32.76,0.17435,-0.55823,-0.17242,-0.79257,510
127,0.926,-0.246,0.354,0.732,1.038,0.427,-34.695,-64.418,-151.315,-27.627,-5.807,-12.193,30.55,0.0462,-0.55554,0.11826,-0.82169,515,0.674,0.073,0.738,2.441,1.221,1.099,6.207,-41.83,-131.006,-21.54,-11.627,-3.027,27.11,-0.40085,0.30627,0.19263,0.84158,503,0.768,0.132,0.626,0.793,4.883,0.366,11.981,-50.328,157.456,-20.527,-13.367,-19.073,30.33,0.13263,0.44113,0.00809,0.88748,495,0.939,0.082,0.302,-0.061,1.648,0.061,13.689,-70.73,-165.037,-28.633,-13.247,-3.213,32.76,0.17435,-0.55823,-0.17242,-0.79257,511
128,0.918,-0.252,0.357,0.488,1.099,0.366,-34.673,-64.402,-151.37,-27.627,-5.807,-12.193,30.55,0.0462,-0.55554,0.11826,-0.82169,540,0.666,0.08,0.743,1.709,1.16,0.61,6.224,-41.814,-130.952,-21.54,-11.627,-3.027,27.11,-0.40085,0.30627,0.19263,0.84158,516,0.771,0.125,0.625,3.662,3.418,0.671,11.997,-50.251,157.445,-20.527,-13.367,-19.073,30.33,0.13263,0.44113,0.00809,0.88748,504,0.934,0.076,0.305,-0.183,1.587,0.0,13.667,-70.708,-165.026,-28.633,-13.247,-3.213,32.76,0.17435,-0.55823,-0.17242,-0.79257,520
129,0.915,-0.249,0.363,0.122,0.793,0.488,-34.667,-64.391,-151.403,-27.627,-5.807,-12.193,30.55,0.0462,-0.55554,0.11826,-0.82169,541,0.661,0.076,0.746,0.854,1.221,0.183,6.235,-41.797,-130.902,-21.54,-11.627,-3.027,27.11,-0.40085,0.30627,0.19263,0.84158,517,0.764,0.134,0.623,2.38,2.869,0.549,12.03,-50.197,157.418,-20.527,-13.367,-19.073,30.33,0.13263,0.44113,0.00809,0.88748,505,0.926,0.076,0.311,-0.183,1.343,0.061,13.651,-70.686,-165.02,-28.633,-13.247,-3.213,32.76,0.17435,-0.55823,-0.17242,-0.79257,521
130,0.918,-0.247,0.365,-0.122,0.732,0.427,-34.667,-64.374,-151.408,-27.627,-5.807,-12.193,30.55,0.0462,-0.55554,0.11826,-0.82169,542,0.666,0.076,0.743,0.916,1.099,0.244,6.246,-41.776,-130.864,-21.54,-11.627,-3.027,27.11,-0.40085,0.30627,0.19263,0.84158,518,0.771,0.134,0.627,0.549,2.136,0.122,12.041,-50.158,157.412,-20.527,-13.367,-19.073,30.33,0.13263,0.44113,0.00809,0.88748,506,0.934,0.077,0.314,-0.488,1.16,0.244,13.623,-70.67,-165.02,-28.633,-13.247,-3.213,32.76,0.17435,-0.55823,-0.17242,-0.79257,522
131,0.915,-0.249,0.363,0.122,0.793,0.488,-34.667,-64.391,-151.403,-27.627,-5.807,-12.193,30.55,0.0462,-0.55554,0.11826,-0.82169,543,0.661,0.076,0.746,0.854,1.221,0.183,6.235,-41.797,-130.902,-21.54,-11.627,-3.027,27.11,-0.40085,0.30627,0.19263,0.84158,519,0.764,0.134,0.623,2.38,2.869,0.549,12.03,-50.197,157.418,-20.527,-13.367,-19.073,30.33,0.13263,0.44113,0.00809,0.88748,507,0.926,0.076,0.311,-0.183,1.343,0.061,13.651,-70.686,-165.02,-28.633,-13.247,-3.213,32.76,0.17435,-0.55823,-0.17242,-0.79257,523
132,0.916,-0.247,0.365,-0.122,0.732,0.427,-34.667,-64.374,-151.408,-27.627,-5.807,-12.193,30.55,0.0462,-0.55554,0.11826,-0.82169,544,0.662,0.076,0.743,0.916,1.099,0.244,6.246,-41.776,-130.864,-21.54,-11.627,-3.027,27.11,-0.40085,0.30627,0.19263,0.84158,532,0.755,0.134,0.627,0.549,2.136,0.122,12.041,-50.158,157.412,-20.527,-13.367,-19.073,30.33,0.13263,0.44113,0.00809,0.88748,524,0.926,0.077,0.314,-0.488,1.16,0.244,13.623,-70.67,-165.02,-28.633,-13.247,-3.213,32.76,0.17435,-0.55823,-0.17242,-0.79257,528
133,0.917,-0.252,0.366,-0.122,0.732,0.366,-34.667,-64.363,-151.408,-27.627,-5.807,-12.193,30.55,0.0462,-0.55554,0.11826,-0.82169,545,0.667,0.069,0.739,1.526,0.793,0.244,6.257,-41.759,-130.82,-21.54,-11.627,-3.027,27.11,-0.40085,0.30627,0.19263,0.84158,533,0.754,0.133,0.629,-0.122,2.319,-0.183,12.041,-50.12,157.39,-20.527,-13.367,-19.073,30.33,0.13263,0.44113,0.00809,0.88748,525,0.93,0.073,0.314,-0.61,1.16,0.183,13.59,-70.659,-165.026,-28.633,-13.247,-3.213,32.76,0.17435,-0.55823,-0.17242,-0.79257,529
134,0.916,-0.253,0.371,0.549,0.793,0.488,-34.656,-64.347,-151.403,-27.627,-5.807,-12.193,30.55,0.0462,-0.55554,0.11826,-0.82169,546,0.662,0.065,0.74,1.587,0.916,0.122,6.279,-41.748,-130.787,-21.54,-11.627,-3.027,27.11,-0.40085,0.30627,0.19263,0.84158,534,0.755,0.131,0.626,0.0,2.686,-0.183,12.03,-50.07,157.341,-20.527,-13.367,-19.073,30.33,0.13263,0.44113,0.00809,0.88748,526,0.926,0.069,0.313,-0.183,1.465,0.0,13.563,-70.637,-165.031,-28.633,-13.247,-3.213,32.76,0.17435,-0.55823,-0.17242,-0.79257,530
135,0.917,-0.252,0.366,-0.122,0.732,0.366,-34.667,-64.363,-151.408,-27.627,-5.807,-12.193,30.55,0.0462,-0.55554,0.11826,-0.82169,547,0.667,0.069,0.739,1.526,0.793,0.244,6.257,-41.759,-130.82,-21.54,-11.627,-3.027,27.11,-0.40085,0.30627,0.19263,0.84158,535,0.754,0.133,0.629,-0.122,2.319,-0.183,12.041,-50.12,157.39,-20.527,-13.367,-19.073,30.33,0.13263,0.44113,0.00809,0.88748,527,0.93,0.073,0.314,-0.61,1.16,0.183,13.59,-70.659,-165.026,-28.633,-13.247,-3.213,32.76,0.17435,-0.55823,-0.17242,-0.79257,531
136,0.918,-0.253,0.371,0.549,0.793,0.488,-34.656,-64.347,-151.403,-27.627,-5.807,-12.193,30.55,0.0462,-0.55554,0.11826,-0.82169,560,0.666,0.065,0.74,1.587,0.916,0.122,6.279,-41.748,-130.787,-21.567,-11.387,-2.333,27.11,-0.40085,0.30627,0.19263,0.84158,548,0.756,0.131,0.626,0.0,2.686,-0.183,12.03,-50.07,157.341,-20.38,-13.74,-19.9,30.33,0.13263,0.44113,0.00809,0.88748,536,0.931,0.069,0.313,-0.183,1.465,0.0,13.563,-70.637,-165.031,-28.633,-13.247,-3.213,32.76,0.17435,-0.55823,-0.17242,-0.79257,556
137,0.92,-0.251,0.373,0.549,0.671,0.549,-34.64,-64.325,-151.397,-27.627,-5.807,-12.193,30.55,0.0462,-0.55554,0.11826,-0.82169,561,0.664,0.075,0.746,0.916,1.038,0.244,6.29,-41.732,-130.759,-21.567,-11.387,-2.333,27.11,-0.40085,0.30627,0.19263,0.84158,549,0.759,0.124,0.623,0.793,2.258,-0.122,12.03,-50.021,157.291,-20.38,-13.74,-19.9,30.33,0.13263,0.44113,0.00809,0.88748,537,0.93,0.069,0.318,0.0,1.465,-0.122,13.552,-70.615,-165.031,-28.633,-13.247,-3.213,32.76,0.17435,-0.55823,-0.17242,-0.79257,557
138,0.918,-0.252,0.37,0.549,0.793,0.427,-34.629,-64.308,-151.403,-27.627,-5.807,-12.193,30.55,0.0462,-0.55554,0.11826,-0.82169,562,0.666,0.084,0.75,0.61,1.099,0.427,6.29,-41.71,-130.726,-21.567,-11.387,-2.333,27.11,-0.40085,0.30627,0.19263,0.84158,550,0.756,0.125,0.627,0.305,1.648,0.061,12.03,-49.988,157.264,-20.38,-13.74,-19.9,30.33,0.13263,0.44113,0.00809,0.88748,538,0.931,0.075,0.324,0.122,1.587,-0.061,13.53,-70.587,-165.031,-28.633,-13.247,-3.213,32.76,0.17435,-0.55823,-0.17242,-0.79257,558
139,0.92,-0.251,0.373,0.549,0.671,0.549,-34.64,-64.325,-151.397,-27.627,-5.807,-12.193,30.55,0.0462,-0.55554,0.11826,-0.82169,563,0.664,0.075,0.746,0.916,1.038,0.244,6.29,-41.732,-130.759,-21.567,-11.387,-2.333,27.11,-0.40085,0.30627,0.19263,0.84158,551,0.759,0.124,0.623,0.793,2.258,-0.122,12.03,-50.021,157.291,-20.38,-13.74,-19.9,30.33,0.13263,0.44113,0.00809,0.88748,539,0.93,0.069,0.318,0.0,1.465,-0.122,13.552,-70.615,-165.031,-28.633,-13.247,-3.213,32.76,0.17435,-0.55823,-0.17242,-0.79257,559
140,0.92,-0.252,0.37,0.549,0.793,0.427,-34.629,-64.308,-151.403,-27.627,-5.807,-12.193,30.55,0.0462,-0.55554,0.11826,-0.82169,572,0.666,0.084,0.75,0.61,1.099,0.427,6.29,-41.71,-130.726,-21.567,-11.387,-2.333,27.11,-0.40085,0.30627,0.19263,0.84158,564,0.756,0.125,0.627,0.305,1.648,0.061,12.03,-49.988,157.264,-20.38,-13.74,-19.9,30.33,0.13263,0.44113,0.00809,0.88748,552,0.932,0.075,0.324,0.122,1.587,-0.061,13.53,-70.587,-165.031,-28.633,-13.247,-3.213,32.76,0.17435,-0.55823,-0.17242,-0.79257,568
141,0.919,-0.254,0.367,0.61,0.793,0.244,-34.612,-64.292,-151.408,-27.627,-5.807,-12.193,30.55,0.0462,-0.55554,0.11826,-0.82169,573,0.666,0.077,0.747,1.221,0.854,0.549,6.29,-41.693,-130.693,-21.567,-11.387,-2.333,27.11,-0.40085,0.30627,0.19263,0.84158,565,0.757,0.139,0.633,-0.549,1.648,0.122,12.014,-49.955,157.253,-20.38,-13.74,-19.9,30.33,0.13263,0.44113,0.00809,0.88748,553,0.933,0.075,0.321,-0.183,1.465,0.0,13.508,-70.565,-165.009,-28.633,-13.247,-3.213,32.76,0.17435,-0.55823,-0.17242,-0.79257,569
142,0.92,-0.251,0.368,0.549,0.549,0.122,-34.59,-64.276,-151.425,-27.627,-5.807,-12.193,30.55,0.0462,-0.55554,0.11826,-0.82169,574,0.666,0.071,0.747,1.709,0.854,0.61,6.306,-41.677,-130.66,-21.567,-11.387,-2.333,27.11,-0.40085,0.30627,0.19263,0.84158,566,0.756,0.14,0.635,-0.366,1.526,0.061,11.997,-49.927,157.225,-20.38,-13.74,-19.9,30.33,0.13263,0.44113,0.00809,0.88748,554,0.932,0.071,0.321,-0.183,1.343,-0.061,13.486,-70.538,-164.971,-28.633,-13.247,-3.213,32.76,0.17435,-0.55823,-0.17242,-0.79257,570
143,0.919,-0.254,0.367,0.61,0.793,0.244,-34.612,-64.292,-151.408,-27.627,-5.807,-12.193,30.55,0.0462,-0.55554,0.11826,-0.82169,575,0.666,0.077,0.747,1.221,0.854,0.549,6.29,-41.693,-130.693,-21.567,-11.387,-2.333,27.11,-0.40085,0.30627,0.19263,0.84158,567,0.757,0.139,0.633,-0.549,1.648,0.122,12.014,-49.955,157.253,-20.38,-13.74,-19.9,30.33,0.13263,0.44113,0.00809,0.88748,555,0.933,0.075,0.321,-0.183,1.465,0.0,13.508,-70.565,-165.009,-28.633,-13.247,-3.213,32.76,0.17435,-0.55823,-0.17242,-0.79257,571
144,0.917,-0.251,0.368,0.549,0.549,0.122,-34.59,-64.276,-151.425,-27.627,-5.807,-12.193,30.55,0.0462,-0.55554,0.11826,-0.82169,592,0.667,0.071,0.747,1.709,0.854,0.61,6.306,-41.677,-130.66,-21.567,-11.387,-2.333,27.11,-0.40695,0.30154,0.19482,0.83987,580,0.758,0.14,0.635,-0.366,1.526,0.061,11.997,-49.927,157.225,-20.38,-13.74,-19.9,30.33,0.13446,0.43036,0.01016,0.89249,576,0.933,0.071,0.321,-0.183,1.343,-0.061,13.486,-70.538,-164.971,-29.053,-13.0,-3.62,32.76,0.17435,-0.55823,-0.17242,-0.79257,588
145,0.92,-0.246,0.367,0.122,0.305,0.061,-34.568,-64.265,-151.425,-27.627,-5.807,-12.193,30.55,0.0462,-0.55554,0.11826,-0.82169,593,0.663,0.075,0.746,1.16,1.099,0.488,6.312,-41.66,-130.633,-21.567,-11.387,-2.333,27.11,-0.40695,0.30154,0.19482,0.83987,581,0.76,0.131,0.634,0.977,0.854,0.183,11.992,-49.905,157.203,-20.38,-13.74,-19.9,30.33,0.13446,0.43036,0.01016,0.89249,577,0.929,0.072,0.32,-0.244,1.099,-0.183,13.469,-70.521,-164.943,-29.053,-13.0,-3.62,32.76,0.17435,-0.55823,-0.17242,-0.79257,589
146,0.917,-0.249,0.364,-0.305,0.122,0.122,-34.563,-64.259,-151.414,-27.627,-5.807,-12.193,30.55,0.0462,-0.55554,0.11826,-0.82169,594,0.667,0.084,0.746,0.366,1.221,0.244,6.312,-41.638,-130.616,-21.567,-11.387,-2.333,27.11,-0.40695,0.30154,0.19482,0.83987,582,0.758,0.129,0.63,1.831,0.0,0.488,12.008,-49.894,157.198,-20.38,-13.74,-19.9,30.33,0.13446,0.43036,0.01016,0.89249,578,0.933,0.077,0.322,-0.549,0.732,-0.122,13.453,-70.505,-164.943,-29.053,-13.0,-3.62,32.76,0.17435,-0.55823,-0.17242,-0.79257,590
147,0.92,-0.246,0.367,0.122,0.305,0.061,-34.568,-64.265,-151.425,-27.627,-5.807,-12.193,30.55,0.0462,-0.55554,0.11826,-0.82169,595,0.663,0.075,0.746,1.16,1.099,0.488,6.312,-41.66,-130.633,-21.567,-11.387,-2.333,27.11,-0.40695,0.30154,0.19482,0.83987,583,0.76,0.131,0.634,0.977,0.854,0.183,11.992,-49.905,157.203,-20.38,-13.74,-19.9,30.33,0.13446,0.43036,0.01016,0.89249,579,0.929,0.072,0.32,-0.244,1.099,-0.183,13.469,-70.521,-164.943,-29.053,-13.0,-3.62,32.76,0.17435,-0.55823,-0.17242,-0.79257,591
148,0.922,-0.249,0.364,-0.305,0.122,0.122,-34.563,-64.259,-151.414,-27.627,-5.807,-12.193,30.55,0.0462,-0.55554,0.11826,-0.82169,608,0.663,0.084,0.746,0.366,1.221,0.244,6.312,-41.638,-130.616,-21.567,-11.387,-2.333,27.11,-0.40695,0.30154,0.19482,0.83987,596,0.757,0.129,0.63,1.831,0.0,0.488,12.008,-49.894,157.198,-20.38,-13.74,-19.9,30.33,0.13446,0.43036,0.01016,0.89249,584,0.926,0.077,0.322,-0.549,0.732,-0.122,13.453,-70.505,-164.943,-29.053,-13.0,-3.62,32.76,0.17322,-0.55569,-0.16986,-0.79514,604
149,0.92,-0.253,0.365,-0.122,0.061,0.061,-34.568,-64.259,-151.397,-27.627,-5.807,-12.193,30.55,0.0462,-0.55554,0.11826,-0.82169,609,0.666,0.082,0.75,0.427,0.916,0.0,6.312,-41.622,-130.6,-21.567,-11.387,-2.333,27.11,-0.40695,0.30154,0.19482,0.83987,597,0.754,0.135,0.63,0.732,0.0,0.366,12.025,-49.894,157.187,-20.38,-13.74,-19.9,30.33,0.13446,0.43036,0.01016,0.89249,585,0.932,0.078,0.319,-1.099,0.366,0.061,13.425,-70.499,-164.954,-29.053,-13.0,-3.62,32.76,0.17322,-0.55569,-0.16986,-0.79514,605
150,0.922,-0.251,0.363,-0.122,0.122,-0.061,-34.568,-64.254,-151.392,-27.627,-5.807,-12.193,30.55,0.0462,-0.55554,0.11826,-0.82169,610,0.663,0.068,0.748,0.549,0.671,0.0,6.317,-41.605,-130.583,-21.567,-11.387,-2.333,27.11,-0.40695,0.30154,0.19482,0.83987,598,0.757,0.14,0.632,0.366,0.427,0.122,12.03,-49.889,157.148,-20.38,-13.74,-19.9,30.33,0.13446,0.43036,0.01016,0.89249,586,0.926,0.073,0.314,-0.366,0.244,0.0,13.409,-70.494,-164.976,-29.053,-13.0,-3.62,32.76,0.17322,-0.55569,-0.16986,-0.79514,606
151,0.92,-0.253,0.365,-0.122,0.061,0.061,-34.568,-64.259,-151.397,-27.627,-5.807,-12.193,30.55,0.0462,-0.55554,0.11826,-0.82169,611,0.666,0.082,0.75,0.427,0.916,0.0,6.312,-41.622,-130.6,-21.567,-11.387,-2.333,27.11,-0.40695,0.30154,0.19482,0.83987,599,0.754,0.135,0.63,0.732,0.0,0.366,12.025,-49.894,157.187,-20.38,-13.74,-19.9,30.33,0.13446,0.43036,0.01016,0.89249,587,0.932,0.078,0.319,-1.099,0.366,0.061,13.425,-70.499,-164.954,-29.053,-13.0,-3.62,32.76,0.17322,-0.55569,-0.16986,-0.79514,607
152,0.923,-0.251,0.363,-0.122,0.122,-0.061,-34.568,-64.254,-151.392,-27.627,-5.807,-12.193,30.55,0.0462,-0.55554,0.11826,-0.82169,620,0.663,0.068,0.748,0.549,0.671,0.0,6.317,-41.605,-130.583,-21.567,-11.387,-2.333,27.11,-0.40695,0.30154,0.19482,0.83987,612,0.758,0.14,0.632,0.366,0.427,0.122,12.03,-49.889,157.148,-20.38,-13.74,-19.9,30.33,0.13446,0.43036,0.01016,0.89249,600,0.931,0.073,0.314,-0.366,0.244,0.0,13.409,-70.494,-164.976,-29.053,-13.0,-3.62,32.76,0.17322,-0.55569,-0.16986,-0.79514,616
153,0.925,-0.249,0.365,0.061,0.183,0.0,-34.563,-64.254,-151.397,-27.627,-5.807,-12.193,30.55,0.0462,-0.55554,0.11826,-0.82169,621,0.668,0.075,0.745,-0.183,0.61,0.061,6.306,-41.594,-130.567,-21.567,-11.387,-2.333,27.11,-0.40695,0.30154,0.19482,0.83987,613,0.757,0.13,0.636,0.366,1.099,-0.061,12.03,-49.872,157.126,-20.38,-13.74,-19.9,30.33,0.13446,0.43036,0.01016,0.89249,601,0.932,0.071,0.316,-0.061,0.305,-0.122,13.403,-70.488,-164.987,-29.053,-13.0,-3.62,32.76,0.17322,-0.55569,-0.16986,-0.79514,617
154,0.923,-0.249,0.367,-0.061,0.366,0.122,-34.557,-64.248,-151.414,-27.627,-5.807,-12.193,30.55,0.0462,-0.55554,0.11826,-0.82169,622,0.663,0.082,0.738,-0.61,0.854,-0.488,6.295,-41.578,-130.556,-21.567,-11.387,-2.333,27.11,-0.40695,0.30154,0.19482,0.83987,614,0.758,0.128,0.634,-0.549,0.061,0.0,12.025,-49.861,157.121,-20.38,-13.74,-19.9,30.33,0.13446,0.43036,0.01016,0.89249,602,0.931,0.077,0.312,-0.732,0.549,-0.122,13.387,-70.483,-164.993,-29.053,-13.0,-3.62,32.76,0.17322,-0.55569,-0.16986,-0.79514,618
155,0.925,-0.249,0.365,0.061,0.183,0.0,-34.563,-64.254,-151.397,-27.627,-5.807,-12.193,30.55,0.0462,-0.55554,0.11826,-0.82169,623,0.668,0.075,0.745,-0.183,0.61,0.061,6.306,-41.594,-130.567,-21.567,-11.387,-2.333,27.11,-0.40695,0.30154,0.19482,0.83987,615,0.757,0.13,0.636,0.366,1.099,-0.061,12.03,-49.872,157.126,-20.38,-13.74,-19.9,30.33,0.13446,0.43036,0.01016,0.89249,603,0.932,0.071,0.316,-0.061,0.305,-0.122,13.403,-70.488,-164.987,-29.053,-13.0,-3.62,32.76,0.17322,-0.55569,-0.16986,-0.79514,619
156,0.926,-0.249,0.367,-0.061,0.366,0.122,-34.557,-64.248,-151.414,-27.627,-5.807,-12.193,30.55,0.0462,-0.55554,0.11826,-0.82169,636,0.674,0.082,0.738,-0.61,0.854,-0.488,6.295,-41.578,-130.556,-21.567,-11.387,-2.333,27.11,-0.40695,0.30154,0.19482,0.83987,628,0.757,0.128,0.634,-0.549,0.061,0.0,12.025,-49.861,157.121,-20.38,-13.74,-19.9,30.33,0.13446,0.43036,0.01016,0.89249,624,0.934,0.077,0.312,-0.732,0.549,-0.122,13.387,-70.483,-164.993,-29.053,-13.0,-3.62,32.76,0.17322,-0.55569,-0.16986,-0.79514,632
157,0.922,-0.251,0.361,-0.427,0.549,0.0,-34.552,-64.243,-151.463,-27.627,-5.807,-12.193,30.55,0.0462,-0.55554,0.11826,-0.82169,637,0.668,0.084,0.741,-0.854,0.977,-1.16,6.295,-41.556,-130.562,-21.567,-11.387,-2.333,27.11,-0.40695,0.30154,0.19482,0.83987,629,0.763,0.131,0.625,-1.16,-0.61,-0.244,12.008,-49.867,157.126,-20.38,-13.74,-19.9,30.33,0.13446,0.43036,0.01016,0.89249,625,0.936,0.08,0.316,-0.244,0.427,0.122,13.37,-70.477,-164.976,-29.053,-13.0,-3.62,32.76,0.17322,-0.55569,-0.16986,-0.79514,633
158,0.926,-0.251,0.363,-0.366,0.61,0.0,-34.547,-64.237,-151.507,-27.627,-5.807,-12.193,30.55,0.0462,-0.55554,0.11826,-0.82169,638,0.674,0.077,0.746,-0.244,0.61,-0.671,6.295,-41.545,-130.562,-21.567,-11.387,-2.333,27.11,-0.40695,0.30154,0.19482,0.83987,630,0.757,0.137,0.622,-2.136,-0.671,-1.038,11.992,-49.878,157.121,-20.38,-13.74,-19.9,30.33,0.13446,0.43036,0.01016,0.89249,626,0.934,0.075,0.314,-0.916,0.427,0.061,13.348,-70.472,-164.96,-29.053,-13.0,-3.62,32.76,0.17322,-0.55569,-0.16986,-0.79514,634
159,0.922,-0.251,0.361,-0.427,0.549,0.0,-34.552,-64.243,-151.463,-27.627,-5.807,-12.193,30.55,0.0462,-0.55554,0.11826,-0.82169,639,0.668,0.084,0.741,-0.854,0.977,-1.16,6.295,-41.556,-130.562,-21.567,-11.387,-2.333,27.11,-0.40695,0.30154,0.19482,0.83987,631,0.763,0.131,0.625,-1.16,-0.61,-0.244,12.008,-49.867,157.126,-20.38,-13.74,-19.9,30.33,0.13446,0.43036,0.01016,0.89249,627,0.936,0.08,0.316,-0.244,0.427,0.122,13.37,-70.477,-164.976,-29.053,-13.0,-3.62,32.76,0.17322,-0.55569,-0.16986,-0.79514,635
160,0.92,-0.251,0.363,-0.366,0.61,0.0,-34.547,-64.237,-151.507,-27.527,-5.427,-12.62,30.55,0.0462,-0.55554,0.11826,-0.82169,656,0.668,0.077,0.746,-0.244,0.61,-0.671,6.295,-41.545,-130.562,-21.567,-11.387,-2.333,27.11,-0.40695,0.30154,0.19482,0.83987,640,0.766,0.137,0.622,-2.136,-0.671,-1.038,11.992,-49.878,157.121,-20.38,-13.74,-19.9,30.33,0.13446,0.43036,0.01016,0.89249,644,0.935,0.075,0.314,-0.916,0.427,0.061,13.348,-70.472,-164.96,-29.053,-13.0,-3.62,32.76,0.17322,-0.55569,-0.16986,-0.79514,652
161,0.918,-0.25,0.365,-0.732,0.549,0.122,-34.541,-64.226,-151.54,-27.527,-5.427,-12.62,30.55,0.0462,-0.55554,0.11826,-0.82169,657,0.669,0.065,0.743,0.244,0.61,0.183,6.29,-41.534,-130.545,-21.567,-11.387,-2.333,27.11,-0.40695,0.30154,0.19482,0.83987,641,0.76,0.142,0.627,-2.014,-0.183,-1.221,11.981,-49.878,157.11,-20.38,-13.74,-19.9,30.33,0.13446,0.43036,0.01016,0.89249,645,0.932,0.071,0.31,-0.854,0.366,-0.122,13.332,-70.472,-164.971,-29.053,-13.0,-3.62,32.76,0.17322,-0.55569,-0.16986,-0.79514,653
162,0.92,-0.248,0.364,-0.366,0.366,0.061,-34.547,-64.221,-151.567,-27.527,-5.427,-12.62,30.55,0.0462,-0.55554,0.11826,-0.82169,658,0.668,0.076,0.737,0.244,0.244,0.488,6.284,-41.534,-130.512,-21.567,-11.387,-2.333,27.11,-0.40695,0.30154,0.19482,0.83987,642,0.766,0.129,0.628,-0.122,0.0,-0.305,11.981,-49.872,157.104,-20.38,-13.74,-19.9,30.33,0.13446,0.43036,0.01016,0.89249,646,0.935,0.074,0.314,-0.366,0.488,-0.366,13.332,-70.466,-165.009,-29.053,-13.0,-3.62,32.76,0.17322,-0.55569,-0.16986,-0.79514,654
163,0.918,-0.25,0.365,-0.732,0.549,0.122,-34.541,-64.226,-151.54,-27.527,-5.427,-12.62,30.55,0.0462,-0.55554,0.11826,-0.82169,659,0.669,0.065,0.743,0.244,0.61,0.183,6.29,-41.534,-130.545,-21.567,-11.387,-2.333,27.11,-0.40695,0.30154,0.19482,0.83987,643,0.76,0.142,0.627,-2.014,-0.183,-1.221,11.981,-49.878,157.11,-20.38,-13.74,-19.9,30.33,0.13446,0.43036,0.01016,0.89249,647,0.932,0.071,0.31,-0.854,0.366,-0.122,13.332,-70.472,-164.971,-29.053,-13.0,-3.62,32.76,0.17322,-0.55569,-0.16986,-0.79514,655
164,0.92,-0.248,0.364,-0.366,0.366,0.061,-34.547,-64.221,-151.567,-27.527,-5.427,-12.62,30.55,0.0462,-0.55554,0.11826,-0.82169,668,0.667,0.076,0.737,0.244,0.244,0.488,6.284,-41.534,-130.512,-21.567,-11.387,-2.333,27.11,-0.40695,0.30154,0.19482,0.83987,660,0.763,0.129,0.628,-0.122,0.0,-0.305,11.981,-49.872,157.104,-20.38,-13.74,-19.9,30.33,0.13446,0.43036,0.01016,0.89249,648,0.93,0.074,0.314,-0.366,0.488,-0.366,13.332,-70.466,-165.009,-29.053,-13.0,-3.62,32.76,0.17322,-0.55569,-0.16986,-0.79514,664
165,0.921,-0.248,0.364,0.061,0.427,0.061,-34.541,-64.215,-151.573,-27.527,-5.427,-12.62,30.55,0.0462,-0.55554,0.11826,-0.82169,669,0.667,0.084,0.743,0.244,0.549,0.244,6.279,-41.528,-130.485,-21.567,-11.387,-2.333,27.11,-0.40695,0.30154,0.19482,0.83987,661,0.758,0.128,0.624,0.366,-0.183,0.488,11.981,-49.878,157.11,-20.38,-13.74,-19.9,30.33,0.13446,0.43036,0.01016,0.89249,649,0.928,0.077,0.316,-0.427,0.61,-0.427,13.337,-70.455,-165.048,-29.053,-13.0,-3.62,32.76,0.17322,-0.55569,-0.16986,-0.79514,665
166,0.92,-0.25,0.368,-0.061,0.61,0.061,-34.53,-64.21,-151.573,-27.527,-5.427,-12.62,30.55,0.0462,-0.55554,0.11826,-0.82169,670,0.667,0.076,0.742,-0.061,0.671,-0.183,6.273,-41.517,-130.468,-21.567,-11.387,-2.333,27.11,-0.40695,0.30154,0.19482,0.83987,662,0.763,0.138,0.624,-0.122,-0.305,0.427,11.97,-49.883,157.148,-20.38,-13.74,-19.9,30.33,0.13446,0.43036,0.01016,0.89249,650,0.93,0.078,0.315,-0.061,0.549,-0.305,13.348,-70.45,-165.07,-29.053,-13.0,-3.62,32.76,0.17322,-0.55569,-0.16986,-0.79514,666
167,0.921,-0.248,0.364,0.061,0.427,0.061,-34.541,-64.215,-151.573,-27.527,-5.427,-12.62,30.55,0.0462,-0.55554,0.11826,-0.82169,671,0.667,0.084,0.743,0.244,0.549,0.244,6.279,-41.528,-130.485,-21.567,-11.387,-2.333,27.11,-0.40695,0.30154,0.19482,0.83987,663,0.758,0.128,0.624,0.366,-0.183,0.488,11.981,-49.878,157.11,-20.38,-13.74,-19.9,30.33,0.13446,0.43036,0.01016,0.89249,651,0.928,0.077,0.316,-0.427,0.61,-0.427,13.337,-70.455,-165.048,-29.053,-13.0,-3.62,32.76,0.17322,-0.55569,-0.16986,-0.79514,667
168,0.923,-0.25,0.368,-0.061,0.61,0.061,-34.53,-64.21,-151.573,-27.527,-5.427,-12.62,30.55,0.04562,-0.55374,0.11914,-0.82281,688,0.667,0.076,0.742,-0.061,0.671,-0.183,6.273,-41.517,-130.468,-21.567,-11.387,-2.333,27.11,-0.40695,0.30154,0.19482,0.83987,676,0.759,0.138,0.624,-0.122,-0.305,0.427,11.97,-49.883,157.148,-20.38,-13.74,-19.9,30.33,0.13446,0.43036,0.01016,0.89249,672,0.93,0.078,0.315,-0.061,0.549,-0.305,13.348,-70.45,-165.07,-29.053,-13.0,-3.62,32.76,0.17322,-0.55569,-0.16986,-0.79514,684
169,0.921,-0.253,0.37,-0.427,0.61,0.0,-34.519,-64.199,-151.573,-27.527,-5.427,-12.62,30.55,0.04562,-0.55374,0.11914,-0.82281,689,0.668,0.078,0.743,-0.427,0.488,-0.122,6.262,-41.512,-130.457,-21.567,-11.387,-2.333,27.11,-0.40695,0.30154,0.19482,0.83987,677,0.761,0.134,0.628,-1.038,-0.366,-0.183,11.959,-49.889,157.165,-20.38,-13.74,-19.9,30.33,0.13446,0.43036,0.01016,0.89249,673,0.933,0.078,0.316,-0.183,0.366,-0.305,13.359,-70.444,-165.103,-29.053,-13.0,-3.62,32.76,0.17322,-0.55569,-0.16986,-0.79514,685
170,0.923,-0.254,0.369,-0.244,0.488,0.0,-34.514,-64.193,-151.562,-27.527,-5.427,-12.62,30.55,0.04562,-0.55374,0.11914,-0.82281,690,0.667,0.079,0.747,-0.854,0.183,-0.427,6.251,-41.506,-130.446,-21.567,-11.387,-2.333,27.11,-0.40695,0.30154,0.19482,0.83987,678,0.759,0.132,0.625,-1.587,-0.671,-0.305,11.942,-49.9,157.176,-20.38,-13.74,-19.9,30.33,0.13446,0.43036,0.01016,0.89249,674,0.93,0.077,0.321,-0.916,0.244,-0.305,13.359,-70.439,-165.135,-29.053,-13.0,-3.62,32.76,0.17322,-0.55569,-0.16986,-0.79514,686
171,0.921,-0.253,0.37,-0.427,0.61,0.0,-34.519,-64.199,-151.573,-27.527,-5.427,-12.62,30.55,0.04562,-0.55374,0.11914,-0.82281,691,0.668,0.078,0.743,-0.427,0.488,-0.122,6.262,-41.512,-130.457,-21.567,-11.387,-2.333,27.11,-0.40695,0.30154,0.19482,0.83987,679,0.761,0.134,0.628,-1.038,-0.366,-0.183,11.959,-49.889,157.165,-20.38,-13.74,-19.9,30.33,0.13446,0.43036,0.01016,0.89249,675,0.933,0.078,0.316,-0.183,0.366,-0.305,13.359,-70.444,-165.103,-29.053,-13.0,-3.62,32.76,0.17322,-0.55569,-0.16986,-0.79514,687
172,0.918,-0.254,0.369,-0.244,0.488,0.0,-34.514,-64.193,-151.562,-27.527,-5.427,-12.62,30.55,0.04562,-0.55374,0.11914,-0.82281,704,0.665,0.079,0.747,-0.854,0.183,-0.427,6.251,-41.506,-130.446,-21.567,-11.467,-2.66,27.11,-0.40695,0.30154,0.19482,0.83987,692,0.763,0.132,0.625,-1.587,-0.671,-0.305,11.942,-49.9,157.176,-20.407,-13.58,-19.573,30.33,0.13446,0.43036,0.01016,0.89249,680,0.936,0.077,0.321,-0.916,0.244,-0.305,13.359,-70.439,-165.135,-29.053,-13.0,-3.62,32.76,0.17322,-0.55569,-0.16986,-0.79514,700
173,0.917,-0.252,0.371,-0.122,0.549,0.0,-34.503,-64.182,-151.556,-27.527,-5.427,-12.62,30.55,0.04562,-0.55374,0.11914,-0.82281,705,0.664,0.076,0.747,-0.732,0.305,-0.854,6.246,-41.501,-130.441,-21.567,-11.467,-2.66,27.11,-0.40695,0.30154,0.19482,0.83987,693,0.761,0.134,0.63,-1.77,-1.16,-0.122,11.915,-49.922,157.17,-20.407,-13.58,-19.573,30.33,0.13446,0.43036,0.01016,0.89249,681,0.932,0.073,0.319,-0.977,0.427,-0.244,13.348,-70.433,-165.168,-29.053,-13.0,-3.62,32.76,0.17322,-0.55569,-0.16986,-0.79514,701
174,0.918,-0.251,0.369,0.0,0.61,0.0,-34.492,-64.177,-151.545,-27.527,-5.427,-12.62,30.55,0.04562,-0.55374,0.11914,-0.82281,706,0.665,0.076,0.747,0.0,0.427,-0.61,6.246,-41.495,-130.435,-21.567,-11.467,-2.66,27.11,-0.40695,0.30154,0.19482,0.83987,694,0.763,0.129,0.629,-2.441,-1.526,-0.793,11.893,-49.944,157.154,-20.407,-13.58,-19.573,30.33,0.13446,0.43036,0.01016,0.89249,682,0.936,0.073,0.32,-0.549,0.793,-0.244,13.337,-70.422,-165.207,-29.053,-13.0,-3.62,32.76,0.17322,-0.55569,-0.16986,-0.79514,702
175,0.917,-0.252,0.371,-0.122,0.549,0.0,-34.503,-64.182,-151.556,-27.527,-5.427,-12.62,30.55,0.04562,-0.55374,0.11914,-0.82281,707,0.664,0.076,0.747,-0.732,0.305,-0.854,6.246,-41.501,-130.441,-21.567,-11.467,-2.66,27.11,-0.40695,0.30154,0.19482,0.83987,695,0.761,0.134,0.63,-1.77,-1.16,-0.122,11.915,-49.922,157.17,-20.407,-13.58,-19.573,30.33,0.13446,0.43036,0.01016,0.89249,683,0.932,0.073,0.319,-0.977,0.427,-0.244,13.348,-70.433,-165.168,-29.053,-13.0,-3.62,32.76,0.17322,-0.55569,-0.16986,-0.79514,703
176,0.917,-0.251,0.369,0.0,0.61,0.0,-34.492,-64.177,-151.545,-27.527,-5.427,-12.62,30.55,0.04562,-0.55374,0.11914,-0.82281,716,0.663,0.076,0.747,0.0,0.427,-0.61,6.246,-41.495,-130.435,-21.567,-11.467,-2.66,27.11,-0.40695,0.30154,0.19482,0.83987,708,0.759,0.129,0.629,-2.441,-1.526,-0.793,11.893,-49.944,157.154,-20.407,-13.58,-19.573,30.33,0.13446,0.43036,0.01016,0.89249,696,0.929,0.073,0.32,-0.549,0.793,-0.244,13.337,-70.422,-165.207,-28.9,-13.44,-4.427,32.76,0.17322,-0.55569,-0.16986,-0.79514,712
177,0.917,-0.252,0.372,0.0,0.427,0.061,-34.475,-64.166,-151.551,-27.527,-5.427,-12.62,30.55,0.04562,-0.55374,0.11914,-0.82281,717,0.664,0.079,0.749,0.183,0.305,-0.61,6.257,-41.49,-130.43,-21.567,-11.467,-2.66,27.11,-0.40695,0.30154,0.19482,0.83987,709,0.76,0.132,0.626,-1.709,-1.282,-0.854,11.882,-49.966,157.137,-20.407,-13.58,-19.573,30.33,0.13446,0.43036,0.01016,0.89249,697,0.928,0.076,0.319,-0.549,0.916,-0.183,13.326,-70.406,-165.245,-28.9,-13.44,-4.427,32.76,0.17322,-0.55569,-0.16986,-0.79514,713
178,0.917,-0.251,0.371,0.0,0.366,0.122,-34.47,-64.155,-151.54,-27.527,-5.427,-12.62,30.55,0.04562,-0.55374,0.11914,-0.82281,718,0.663,0.082,0.748,-0.427,0.305,-0.61,6.257,-41.484,-130.435,-21.567,-11.467,-2.66,27.11,-0.40695,0.30154,0.19482,0.83987,710,0.759,0.132,0.63,-0.793,-0.854,-0.793,11.887,-49.982,157.132,-20.407,-13.58,-19.573,30.33,0.13446,0.43036,0.01016,0.89249,698,0.929,0.076,0.324,-0.427,0.732,0.122,13.299,-70.395,-165.256,-28.9,-13.44,-4.427,32.76,0.17322,-0.55569,-0.16986,-0.79514,714
179,0.917,-0.252,0.372,0.0,0.427,0.061,-34.475,-64.166,-151.551,-27.527,-5.427,-12.62,30.55,0.04562,-0.55374,0.11914,-0.82281,719,0.664,0.079,0.749,0.183,0.305,-0.61,6.257,-41.49,-130.43,-21.567,-11.467,-2.66,27.11,-0.40695,0.30154,0.19482,0.83987,711,0.76,0.132,0.626,-1.709,-1.282,-0.854,11.882,-49.966,157.137,-20.407,-13.58,-19.573,30.33,0.13446,0.43036,0.01016,0.89249,699,0.928,0.076,0.319,-0.549,0.916,-0.183,13.326,-70.406,-165.245,-28.9,-13.44,-4.427,32.76,0.17322,-0.55569,-0.16986,-0.79514,715
180,0.917,-0.251,0.371,0.0,0.366,0.122,-34.47,-64.155,-151.54,-27.527,-5.427,-12.62,30.55,0.04562,-0.55374,0.11914,-0.82281,736,0.663,0.082,0.748,-0.427,0.305,-0.61,6.257,-41.484,-130.435,-21.567,-11.467,-2.66,27.11,-0.40897,0.29968,0.19461,0.83963,724,0.759,0.132,0.63,-0.793,-0.854,-0.793,11.887,-49.982,157.132,-20.407,-13.58,-19.573,30.33,0.13577,0.43039,0.0087,0.89227,720,0.929,0.076,0.324,-0.427,0.732,0.122,13.299,-70.395,-165.256,-28.9,-13.44,-4.427,32.76,0.17322,-0.55569,-0.16986,-0.79514,732
181,0.916,-0.25,0.37,-0.061,0.366,0.122,-34.459,-64.149,-151.534,-27.527,-5.427,-12.62,30.55,0.04562,-0.55374,0.11914,-0.82281,737,0.66,0.083,0.741,-0.549,0.549,-0.427,6.251,-41.473,-130.43,-21.567,-11.467,-2.66,27.11,-0.40897,0.29968,0.19461,0.83963,725,0.759,0.137,0.631,-1.709,-0.854,-0.671,11.876,-49.993,157.121,-20.407,-13.58,-19.573,30.33,0.13577,0.43039,0.0087,0.89227,721,0.929,0.072,0.324,-0.671,0.488,0.061,13.277,-70.389,-165.273,-28.9,-13.44,-4.427,32.76,0.17322,-0.55569,-0.16986,-0.79514,733
182,0.917,-0.253,0.372,0.0,0.122,0.061,-34.453,-64.144,-151.518,-27.527,-5.427,-12.62,30.55,0.04562,-0.55374,0.11914,-0.82281,738,0.663,0.076,0.743,0.244,0.366,0.061,6.251,-41.468,-130.435,-21.567,-11.467,-2.66,27.11,-0.40897,0.29968,0.19461,0.83963,726,0.759,0.138,0.625,-2.075,-1.282,-0.671,11.86,-50.01,157.104,-20.407,-13.58,-19.573,30.33,0.13577,0.43039,0.0087,0.89227,722,0.929,0.075,0.322,-1.038,0.488,0.061,13.244,-70.384,-165.289,-28.9,-13.44,-4.427,32.76,0.17322,-0.55569,-0.16986,-0.79514,734
183,0.916,-0.25,0.37,-0.061,0.366,0.122,-34.459,-64.149,-151.534,-27.527,-5.427,-12.62,30.55,0.04562,-0.55374,0.11914,-0.82281,739,0.66,0.083,0.741,-0.549,0.549,-0.427,6.251,-41.473,-130.43,-21.567,-11.467,-2.66,27.11,-0.40897,0.29968,0.19461,0.83963,727,0.759,0.137,0.631,-1.709,-0.854,-0.671,11.876,-49.993,157.121,-20.407,-13.58,-19.573,30.33,0.13577,0.43039,0.0087,0.89227,723,0.929,0.072,0.324,-0.671,0.488,0.061,13.277,-70.389,-165.273,-28.9,-13.44,-4.427,32.76,0.17322,-0.55569,-0.16986,-0.79514,735
184,0.919,-0.253,0.372,0.0,0.122,0.061,-34.453,-64.144,-151.518,-27.527,-5.427,-12.62,30.55,0.04562,-0.55374,0.11914,-0.82281,760,0.663,0.076,0.743,0.244,0.366,0.061,6.251,-41.468,-130.435,-21.567,-11.467,-2.66,27.11,-0.40897,0.29968,0.19461,0.83963,740,0.756,0.138,0.625,-2.075,-1.282,-0.671,11.86,-50.01,157.104,-20.407,-13.58,-19.573,30.33,0.13577,0.43039,0.0087,0.89227,728,0.928,0.075,0.322,-1.038,0.488,0.061,13.244,-70.384,-165.289,-28.9,-13.44,-4.427,32.76,0.17014,-0.55563,-0.16711,-0.79642,748
185,0.92,-0.253,0.371,-0.061,-0.122,0.122,-34.453,-64.138,-151.512,-27.527,-5.427,-12.62,30.55,0.04562,-0.55374,0.11914,-0.82281,761,0.667,0.077,0.748,0.427,0.61,0.183,6.251,-41.457,-130.43,-21.567,-11.467,-2.66,27.11,-0.40897,0.29968,0.19461,0.83963,741,0.758,0.136,0.624,-0.793,-1.282,-0.366,11.86,-50.032,157.088,-20.407,-13.58,-19.573,30.33,0.13577,0.43039,0.0087,0.89227,729,0.93,0.074,0.321,-0.427,0.488,0.061,13.228,-70.373,-165.284,-28.9,-13.44,-4.427,32.76,0.17014,-0.55563,-0.16711,-0.79642,749
186,0.919,-0.248,0.366,0.0,-0.122,0.244,-34.459,-64.138,-151.507,-27.527,-5.427,-12.62,30.55,0.04562,-0.55374,0.11914,-0.82281,762,0.663,0.08,0.743,0.183,0.488,0.061,6.251,-41.446,-130.413,-21.567,-11.467,-2.66,27.11,-0.40897,0.29968,0.19461,0.83963,742,0.756,0.131,0.625,0.427,-1.038,0.061,11.871,-50.048,157.099,-20.407,-13.58,-19.573,30.33,0.13577,0.43039,0.0087,0.89227,730,0.928,0.072,0.325,0.0,0.366,0.122,13.211,-70.367,-165.278,-28.9,-13.44,-4.427,32.76,0.17014,-0.55563,-0.16711,-0.79642,750
187,0.92,-0.253,0.371,-0.061,-0.122,0.122,-34.453,-64.138,-151.512,-27.527,-5.427,-12.62,30.55,0.04562,-0.55374,0.11914,-0.82281,763,0.667,0.077,0.748,0.427,0.61,0.183,6.251,-41.457,-130.43,-21.567,-11.467,-2.66,27.11,-0.40897,0.29968,0.19461,0.83963,743,0.758,0.136,0.624,-0.793,-1.282,-0.366,11.86,-50.032,157.088,-20.407,-13.58,-19.573,30.33,0.13577,0.43039,0.0087,0.89227,731,0.93,0.074,0.321,-0.427,0.488,0.061,13.228,-70.373,-165.284,-28.9,-13.44,-4.427,32.76,0.17014,-0.55563,-0.16711,-0.79642,751
188,0.921,-0.248,0.366,0.0,-0.122,0.244,-34.459,-64.138,-151.507,-27.527,-5.427,-12.62,30.55,0.04562,-0.55374,0.11914,-0.82281,764,0.664,0.08,0.743,0.183,0.488,0.061,6.251,-41.446,-130.413,-21.567,-11.467,-2.66,27.11,-0.40897,0.29968,0.19461,0.83963,752,0.763,0.131,0.625,0.427,-1.038,0.061,11.871,-50.048,157.099,-20.407,-13.58,-19.573,30.33,0.13577,0.43039,0.0087,0.89227,744,0.931,0.072,0.325,0.0,0.366,0.122,13.211,-70.367,-165.278,-28.9,-13.44,-4.427,32.76,0.17014,-0.55563,-0.16711,-0.79642,756
189,0.921,-0.247,0.369,0.0,0.0,0.244,-34.47,-64.133,-151.501,-27.527,-5.427,-12.62,30.55,0.04562,-0.55374,0.11914,-0.82281,765,0.663,0.078,0.745,0.305,0.61,0.305,6.246,-41.44,-130.402,-21.567,-11.467,-2.66,27.11,-0.40897,0.29968,0.19461,0.83963,753,0.762,0.133,0.625,0.0,-0.366,0.0,11.876,-50.059,157.099,-20.407,-13.58,-19.573,30.33,0.13577,0.43039,0.0087,0.89227,745,0.929,0.074,0.32,-0.244,0.366,0.183,13.189,-70.362,-165.267,-28.9,-13.44,-4.427,32.76,0.17014,-0.55563,-0.16711,-0.79642,757
190,0.921,-0.25,0.367,0.0,0.061,0.305,-34.47,-64.133,-151.529,-27.527,-5.427,-12.62,30.55,0.04562,-0.55374,0.11914,-0.82281,766,0.664,0.078,0.747,0.122,0.671,0.183,6.246,-41.429,-130.408,-21.567,-11.467,-2.66,27.11,-0.40897,0.29968,0.19461,0.83963,754,0.763,0.136,0.623,-0.244,0.122,0.061,11.876,-50.054,157.088,-20.407,-13.58,-19.573,30.33,0.13577,0.43039,0.0087,0.89227,746,0.931,0.077,0.317,0.0,0.488,0.183,13.173,-70.356,-165.24,-28.9,-13.44,-4.427,32.76,0.17014,-0.55563,-0.16711,-0.79642,758
191,0.921,-0.247,0.369,0.0,0.0,0.244,-34.47,-64.133,-151.501,-27.527,-5.427,-12.62,30.55,0.04562,-0.55374,0.11914,-0.82281,767,0.663,0.078,0.745,0.305,0.61,0.305,6.246,-41.44,-130.402,-21.567,-11.467,-2.66,27.11,-0.40897,0.29968,0.19461,0.83963,755,0.762,0.133,0.625,0.0,-0.366,0.0,11.876,-50.059,157.099,-20.407,-13.58,-19.573,30.33,0.13577,0.43039,0.0087,0.89227,747,0.929,0.074,0.32,-0.244,0.366,0.183,13.189,-70.362,-165.267,-28.9,-13.44,-4.427,32.76,0.17014,-0.55563,-0.16711,-0.79642,759
192,0.921,-0.25,0.367,0.0,0.061,0.305,-34.47,-64.133,-151.529,-27.527,-5.427,-12.62,30.55,0.04562,-0.55374,0.11914,-0.82281,780,0.665,0.078,0.747,0.122,0.671,0.183,6.246,-41.429,-130.408,-21.567,-11.467,-2.66,27.11,-0.40897,0.29968,0.19461,0.83963,784,0.76,0.136,0.623,-0.244,0.122,0.061,11.876,-50.054,157.088,-20.407,-13.58,-19.573,30.33,0.13577,0.43039,0.0087,0.89227,768,0.929,0.077,0.317,0.0,0.488,0.183,13.173,-70.356,-165.24,-28.9,-13.44,-4.427,32.76,0.17014,-0.55563,-0.16711,-0.79642,776
193,0.921,-0.252,0.367,-0.183,0.0,0.244,-34.475,-64.127,-151.54,-27.527,-5.427,-12.62,30.55,0.04562,-0.55374,0.11914,-0.82281,781,0.666,0.079,0.746,0.183,0.549,-0.061,6.246,-41.418,-130.408,-21.567,-11.467,-2.66,27.11,-0.40897,0.29968,0.19461,0.83963,785,0.762,0.13,0.626,-0.427,0.0,0.122,11.865,-50.054,157.11,-20.407,-13.58,-19.573,30.33,0.13577,0.43039,0.0087,0.89227,769,0.931,0.078,0.318,0.061,0.305,0.122,13.162,-70.351,-165.24,-28.9,-13.44,-4.427,32.76,0.17014,-0.55563,-0.16711,-0.79642,777
194,0.921,-0.254,0.37,-0.183,-0.122,0.183,-34.486,-64.127,-151.529,-27.527,-5.427,-12.62,30.55,0.04562,-0.55374,0.11914,-0.82281,782,0.665,0.078,0.745,0.122,0.305,-0.061,6.246,-41.413,-130.402,-21.567,-11.467,-2.66,27.11,-0.40897,0.29968,0.19461,0.83963,786,0.76,0.132,0.627,-0.183,0.244,-0.122,11.865,-50.048,157.121,-20.407,-13.58,-19.573,30.33,0.13577,0.43039,0.0087,0.89227,770,0.929,0.076,0.319,0.061,0.305,0.183,13.151,-70.351,-165.245,-28.9,-13.44,-4.427,32.76,0.17014,-0.55563,-0.16711,-0.79642,778
195,0.921,-0.252,0.367,-0.183,0.0,0.244,-34.475,-64.127,-151.54,-27.527,-5.427,-12.62,30.55,0.04562,-0.55374,0.11914,-0.82281,783,0.666,0.079,0.746,0.183,0.549,-0.061,6.246,-41.418,-130.408,-21.567,-11.467,-2.66,27.11,-0.40897,0.29968,0.19461,0.83963,787,0.762,0.13,0.626,-0.427,0.0,0.122,11.865,-50.054,157.11,-20.407,-13.58,-19.573,30.33,0.13577,0.43039,0.0087,0.89227,771,0.931,0.078,0.318,0.061,0.305,0.122,13.162,-70.351,-165.24,-28.9,-13.44,-4.427,32.76,0.17014,-0.55563,-0.16711,-0.79642,779
196,0.921,-0.254,0.37,-0.183,-0.122,0.183,-34.486,-64.127,-151.529,-27.553,-5.82,-12.407,30.55,0.04562,-0.55374,0.11914,-0.82281,812,0.667,0.078,0.745,0.122,0.305,-0.061,6.246,-41.413,-130.402,-21.567,-11.467,-2.66,27.11,-0.40897,0.29968,0.19461,0.83963,788,0.763,0.132,0.627,-0.183,0.244,-0.122,11.865,-50.048,157.121,-20.407,-13.58,-19.573,30.33,0.13577,0.43039,0.0087,0.89227,772,0.932,0.076,0.319,0.061,0.305,0.183,13.151,-70.351,-165.245,-28.9,-13.44,-4.427,32.76,0.17014,-0.55563,-0.16711,-0.79642,796
197,0.919,-0.253,0.368,0.0,-0.244,0.122,-34.497,-64.127,-151.518,-27.553,-5.82,-12.407,30.55,0.04562,-0.55374,0.11914,-0.82281,813,0.668,0.078,0.746,0.122,0.488,0.183,6.24,-41.407,-130.397,-21.567,-11.467,-2.66,27.11,-0.40897,0.29968,0.19461,0.83963,789,0.764,0.134,0.625,-0.061,0.488,-0.244,11.871,-50.037,157.121,-20.407,-13.58,-19.573,30.33,0.13577,0.43039,0.0087,0.89227,773,0.933,0.073,0.32,-0.061,0.122,0.061,13.145,-70.351,-165.256,-28.9,-13.44,-4.427,32.76,0.17014,-0.55563,-0.16711,-0.79642,797
198,0.921,-0.253,0.364,0.0,-0.122,0.061,-34.503,-64.127,-151.507,-27.553,-5.82,-12.407,30.55,0.04562,-0.55374,0.11914,-0.82281,814,0.667,0.074,0.745,0.305,0.671,0.183,6.24,-41.396,-130.397,-21.567,-11.467,-2.66,27.11,-0.40897,0.29968,0.19461,0.83963,790,0.763,0.134,0.624,-0.366,0.61,0.061,11.86,-50.026,157.121,-20.407,-13.58,-19.573,30.33,0.13577,0.43039,0.0087,0.89227,774,0.932,0.072,0.323,0.122,0.244,0.061,13.145,-70.345,-165.251,-28.9,-13.44,-4.427,32.76,0.17014,-0.55563,-0.16711,-0.79642,798
199,0.919,-0.253,0.368,0.0,-0.244,0.122,-34.497,-64.127,-151.518,-27.553,-5.82,-12.407,30.55,0.04562,-0.55374,0.11914,-0.82281,815,0.668,0.078,0.746,0.122,0.488,0.183,6.24,-41.407,-130.397,-21.567,-11.467,-2.66,27.11,-0.40897,0.29968,0.19461,0.83963,791,0.764,0.134,0.625,-0.061,0.488,-0.244,11.871,-50.037,157.121,-20.407,-13.58,-19.573,30.33,0.13577,0.43039,0.0087,0.89227,775,0.933,0.073,0.32,-0.061,0.122,0.061,13.145,-70.351,-165.256,-28.9,-13.44,-4.427,32.76,0.17014,-0.55563,-0.16711,-0.79642,799
200,0.918,-0.253,0.364,0.0,-0.122,0.061,-34.503,-64.127,-151.507,-27.553,-5.82,-12.407,30.55,0.04562,-0.55374,0.11914,-0.82281,824,0.669,0.074,0.745,0.305,0.671,0.183,6.24,-41.396,-130.397,-21.567,-11.467,-2.66,27.11,-0.40897,0.29968,0.19461,0.83963,804,0.764,0.134,0.624,-0.366,0.61,0.061,11.86,-50.026,157.121,-20.247,-13.66,-19.673,30.33,0.13577,0.43039,0.0087,0.89227,792,0.933,0.072,0.323,0.122,0.244,0.061,13.145,-70.345,-165.251,-28.9,-13.44,-4.427,32.76,0.17014,-0.55563,-0.16711,-0.79642,800
201,0.92,-0.25,0.368,0.061,0.0,0.122,-34.503,-64.127,-151.496,-27.553,-5.82,-12.407,30.55,0.04562,-0.55374,0.11914,-0.82281,825,0.664,0.073,0.74,0.61,0.854,0.244,6.24,-41.385,-130.391,-21.567,-11.467,-2.66,27.11,-0.40897,0.29968,0.19461,0.83963,805,0.766,0.13,0.624,-0.366,0.671,0.061,11.854,-50.01,157.115,-20.247,-13.66,-19.673,30.33,0.13577,0.43039,0.0087,0.89227,793,0.929,0.072,0.318,0.0,0.244,0.0,13.14,-70.345,-165.256,-28.9,-13.44,-4.427,32.76,0.17014,-0.55563,-0.16711,-0.79642,801
202,0.918,-0.252,0.368,0.0,0.122,0.183,-34.503,-64.127,-151.507,-27.553,-5.82,-12.407,30.55,0.04562,-0.55374,0.11914,-0.82281,826,0.669,0.077,0.741,0.366,0.916,0.183,6.24,-41.369,-130.391,-21.567,-11.467,-2.66,27.11,-0.40897,0.29968,0.19461,0.83963,806,0.764,0.129,0.62,0.183,0.549,0.122,11.849,-50.004,157.088,-20.247,-13.66,-19.673,30.33,0.13577,0.43039,0.0087,0.89227,794,0.933,0.073,0.315,0.0,0.244,-0.122,13.14,-70.345,-165.289,-28.9,-13.44,-4.427,32.76,0.17014,-0.55563,-0.16711,-0.79642,802
203,0.92,-0.25,0.368,0.061,0.0,0.122,-34.503,-64.127,-151.496,-27.553,-5.82,-12.407,30.55,0.04562,-0.55374,0.11914,-0.82281,827,0.664,0.073,0.74,0.61,0.854,0.244,6.24,-41.385,-130.391,-21.567,-11.467,-2.66,27.11,-0.40897,0.29968,0.19461,0.83963,807,0.766,0.13,0.624,-0.366,0.671,0.061,11.854,-50.01,157.115,-20.247,-13.66,-19.673,30.33,0.13577,0.43039,0.0087,0.89227,795,0.929,0.072,0.318,0.0,0.244,0.0,13.14,-70.345,-165.256,-28.9,-13.44,-4.427,32.76,0.17014,-0.55563,-0.16711,-0.79642,803
204,0.921,-0.252,0.368,0.0,0.122,0.183,-34.503,-64.127,-151.507,-27.553,-5.82,-12.407,30.55,0.04562,-0.55374,0.11914,-0.82281,828,0.664,0.077,0.741,0.366,0.916,0.183,6.24,-41.369,-130.391,-21.453,-11.4,-3.153,27.11,-0.40897,0.29968,0.19461,0.83963,832,0.763,0.129,0.62,0.183,0.549,0.122,11.849,-50.004,157.088,-20.247,-13.66,-19.673,30.33,0.13577,0.43039,0.0087,0.89227,808,0.929,0.073,0.315,0.0,0.244,-0.122,13.14,-70.345,-165.289,-28.9,-13.44,-4.427,32.76,0.17014,-0.55563,-0.16711,-0.79642,820
205,0.92,-0.254,0.368,0.0,0.183,0.183,-34.508,-64.122,-151.551,-27.553,-5.82,-12.407,30.55,0.04562,-0.55374,0.11914,-0.82281,829,0.667,0.078,0.745,0.305,0.916,0.0,6.24,-41.353,-130.386,-21.453,-11.4,-3.153,27.11,-0.40897,0.29968,0.19461,0.83963,833,0.76,0.13,0.618,0.0,1.16,0.183,11.843,-49.982,157.05,-20.247,-13.66,-19.673,30.33,0.13577,0.43039,0.0087,0.89227,809,0.933,0.076,0.318,0.244,0.427,-0.061,13.145,-70.34,-165.322,-28.9,-13.44,-4.427,32.76,0.17014,-0.55563,-0.16711,-0.79642,821
206,0.921,-0.252,0.368,0.0,0.305,0.122,-34.503,-64.116,-151.578,-27.553,-5.82,-12.407,30.55,0.04562,-0.55374,0.11914,-0.82281,830,0.664,0.075,0.744,0.366,0.916,-0.061,6.24,-41.342,-130.386,-21.453,-11.4,-3.153,27.11,-0.40897,0.29968,0.19461,0.83963,834,0.763,0.131,0.624,-0.488,1.648,0.0,11.827,-49.955,157.039,-20.247,-13.66,-19.673,30.33,0.13577,0.43039,0.0087,0.89227,810,0.929,0.072,0.32,0.0,0.61,-0.122,13.14,-70.329,-165.366,-28.9,-13.44,-4.427,32.76,0.17014,-0.55563,-0.16711,-0.79642,822
207,0.92,-0.254,0.368,0.0,0.183,0.183,-34.508,-64.122,-151.551,-27.553,-5.82,-12.407,30.55,0.04562,-0.55374,0.11914,-0.82281,831,0.667,0.078,0.745,0.305,0.916,0.0,6.24,-41.353,-130.386,-21.453,-11.4,-3.153,27.11,-0.40897,0.29968,0.19461,0.83963,835,0.76,0.13,0.618,0.0,1.16,0.183,11.843,-49.982,157.05,-20.247,-13.66,-19.673,30.33,0.13577,0.43039,0.0087,0.89227,811,0.933,0.076,0.318,0.244,0.427,-0.061,13.145,-70.34,-165.322,-28.9,-13.44,-4.427,32.76,0.17014,-0.55563,-0.16711,-0.79642,823
208,0.92,-0.252,0.368,0.0,0.305,0.122,-34.503,-64.116,-151.578,-27.553,-5.82,-12.407,30.55,0.0466,-0.55325,0.11877,-0.82312,848,0.666,0.075,0.744,0.366,0.916,-0.061,6.24,-41.342,-130.386,-21.453,-11.4,-3.153,27.11,-0.40897,0.29968,0.19461,0.83963,836,0.763,0.131,0.624,-0.488,1.648,0.0,11.827,-49.955,157.039,-20.247,-13.66,-19.673,30.33,0.13641,0.43051,0.00812,0.89212,816,0.932,0.072,0.32,0.0,0.61,-0.122,13.14,-70.329,-165.366,-28.9,-13.44,-4.427,32.76,0.17014,-0.55563,-0.16711,-0.79642,844
209,0.921,-0.251,0.367,0.061,0.366,0.122,-34.497,-64.111,-151.589,-27.553,-5.82,-12.407,30.55,0.0466,-0.55325,0.11877,-0.82312,849,0.663,0.076,0.747,0.122,1.038,0.0,6.24,-41.325,-130.386,-21.453,-11.4,-3.153,27.11,-0.40897,0.29968,0.19461,0.83963,837,0.763,0.131,0.624,-0.183,1.892,-0.183,11.821,-49.922,157.022,-20.247,-13.66,-19.673,30.33,0.13641,0.43051,0.00812,0.89212,817,0.931,0.076,0.321,-0.366,0.61,0.0,13.129,-70.318,-165.416,-28.9,-13.44,-4.427,32.76,0.17014,-0.55563,-0.16711,-0.79642,845
210,0.92,-0.251,0.369,-0.061,0.427,0.183,-34.497,-64.1,-151.606,-27.553,-5.82,-12.407,30.55,0.0466,-0.55325,0.11877,-0.82312,850,0.666,0.08,0.749,0.183,1.099,-0.183,6.24,-41.309,-130.391,-21.453,-11.4,-3.153,27.11,-0.40897,0.29968,0.19461,0.83963,838,0.763,0.128,0.625,-0.366,1.709,-0.183,11.81,-49.889,156.995,-20.247,-13.66,-19.673,30.33,0.13641,0.43051,0.00812,0.89212,818,0.932,0.076,0.32,-0.671,0.488,0.183,13.112,-70.312,-165.449,-28.9,-13.44,-4.427,32.76,0.17014,-0.55563,-0.16711,-0.79642,846
211,0.921,-0.251,0.367,0.061,0.366,0.122,-34.497,-64.111,-151.589,-27.553,-5.82,-12.407,30.55,0.0466,-0.55325,0.11877,-0.82312,851,0.663,0.076,0.747,0.122,1.038,0.0,6.24,-41.325,-130.386,-21.453,-11.4,-3.153,27.11,-0.40897,0.29968,0.19461,0.83963,839,0.763,0.131,0.624,-0.183,1.892,-0.183,11.821,-49.922,157.022,-20.247,-13.66,-19.673,30.33,0.13641,0.43051,0.00812,0.89212,819,0.931,0.076,0.321,-0.366,0.61,0.0,13.129,-70.318,-165.416,-28.9,-13.44,-4.427,32.76,0.17014,-0.55563,-0.16711,-0.79642,847
212,0.919,-0.251,0.369,-0.061,0.427,0.183,-34.497,-64.1,-151.606,-27.553,-5.82,-12.407,30.55,0.0466,-0.55325,0.11877,-0.82312,856,0.666,0.08,0.749,0.183,1.099,-0.183,6.24,-41.309,-130.391,-21.453,-11.4,-3.153,27.11,-0.40939,0.29843,0.19403,0.84,864,0.759,0.128,0.625,-0.366,1.709,-0.183,11.81,-49.889,156.995,-20.247,-13.66,-19.673,30.33,0.13641,0.43051,0.00812,0.89212,840,0.932,0.076,0.32,-0.671,0.488,0.183,13.112,-70.312,-165.449,-29.247,-13.607,-4.747,32.76,0.17014,-0.55563,-0.16711,-0.79642,852
213,0.92,-0.25,0.368,-0.061,0.366,0.244,-34.492,-64.094,-151.622,-27.553,-5.82,-12.407,30.55,0.0466,-0.55325,0.11877,-0.82312,857,0.661,0.081,0.745,0.366,0.916,-0.244,6.246,-41.292,-130.402,-21.453,-11.4,-3.153,27.11,-0.40939,0.29843,0.19403,0.84,865,0.761,0.131,0.629,-0.183,1.77,-0.244,11.805,-49.856,156.945,-20.247,-13.66,-19.673,30.33,0.13641,0.43051,0.00812,0.89212,841,0.929,0.074,0.318,-0.549,0.61,0.244,13.079,-70.307,-165.449,-29.247,-13.607,-4.747,32.76,0.17014,-0.55563,-0.16711,-0.79642,853
214,0.919,-0.25,0.368,0.0,0.427,0.183,-34.492,-64.083,-151.611,-27.553,-5.82,-12.407,30.55,0.0466,-0.55325,0.11877,-0.82312,858,0.666,0.074,0.747,0.488,0.854,-0.061,6.251,-41.276,-130.408,-21.453,-11.4,-3.153,27.11,-0.40939,0.29843,0.19403,0.84,866,0.759,0.136,0.627,0.0,1.831,-0.427,11.805,-49.823,156.907,-20.247,-13.66,-19.673,30.33,0.13641,0.43051,0.00812,0.89212,842,0.932,0.074,0.319,-0.122,0.61,0.0,13.057,-70.296,-165.449,-29.247,-13.607,-4.747,32.76,0.17014,-0.55563,-0.16711,-0.79642,854
215,0.92,-0.25,0.368,-0.061,0.366,0.244,-34.492,-64.094,-151.622,-27.553,-5.82,-12.407,30.55,0.0466,-0.55325,0.11877,-0.82312,859,0.661,0.081,0.745,0.366,0.916,-0.244,6.246,-41.292,-130.402,-21.453,-11.4,-3.153,27.11,-0.40939,0.29843,0.19403,0.84,867,0.761,0.131,0.629,-0.183,1.77,-0.244,11.805,-49.856,156.945,-20.247,-13.66,-19.673,30.33,0.13641,0.43051,0.00812,0.89212,843,0.929,0.074,0.318,-0.549,0.61,0.244,13.079,-70.307,-165.449,-29.247,-13.607,-4.747,32.76,0.17014,-0.55563,-0.16711,-0.79642,855
216,0.921,-0.25,0.368,0.0,0.427,0.183,-34.492,-64.083,-151.611,-27.553,-5.82,-12.407,30.55,0.0466,-0.55325,0.11877,-0.82312,892,0.662,0.074,0.747,0.488,0.854,-0.061,6.251,-41.276,-130.408,-21.453,-11.4,-3.153,27.11,-0.40939,0.29843,0.19403,0.84,868,0.759,0.136,0.627,0.0,1.831,-0.427,11.805,-49.823,156.907,-20.247,-13.66,-19.673,30.33,0.13641,0.43051,0.00812,0.89212,860,0.93,0.074,0.319,-0.122,0.61,0.0,13.057,-70.296,-165.449,-29.247,-13.607,-4.747,32.76,0.17014,-0.55563,-0.16711,-0.79642,876
217,0.916,-0.25,0.367,0.0,0.488,0.122,-34.481,-64.078,-151.606,-27.553,-5.82,-12.407,30.55,0.0466,-0.55325,0.11877,-0.82312,893,0.658,0.078,0.747,0.183,1.282,0.0,6.246,-41.254,-130.408,-21.453,-11.4,-3.153,27.11,-0.40939,0.29843,0.19403,0.84,869,0.757,0.131,0.628,0.244,1.709,-0.366,11.81,-49.79,156.857,-20.247,-13.66,-19.673,30.33,0.13641,0.43051,0.00812,0.89212,861,0.929,0.077,0.32,0.0,0.61,-0.183,13.046,-70.291,-165.465,-29.247,-13.607,-4.747,32.76,0.17014,-0.55563,-0.16711,-0.79642,877
218,0.921,-0.247,0.364,0.0,0.732,0.244,-34.475,-64.067,-151.6,-27.553,-5.82,-12.407,30.55,0.0466,-0.55325,0.11877,-0.82312,894,0.662,0.079,0.75,0.0,1.16,-0.122,6.24,-41.237,-130.408,-21.453,-11.4,-3.153,27.11,-0.40939,0.29843,0.19403,0.84,870,0.759,0.13,0.628,0.122,1.221,-0.122,11.81,-49.763,156.846,-20.247,-13.66,-19.673,30.33,0.13641,0.43051,0.00812,0.89212,862,0.93,0.078,0.316,0.61,0.793,-0.122,13.052,-70.28,-165.493,-29.247,-13.607,-4.747,32.76,0.17014,-0.55563,-0.16711,-0.79642,878
219,0.916,-0.25,0.367,0.0,0.488,0.122,-34.481,-64.078,-151.606,-27.553,-5.82,-12.407,30.55,0.0466,-0.55325,0.11877,-0.82312,895,0.658,0.078,0.747,0.183,1.282,0.0,6.246,-41.254,-130.408,-21.453,-11.4,-3.153,27.11,-0.40939,0.29843,0.19403,0.84,871,0.757,0.131,0.628,0.244,1.709,-0.366,11.81,-49.79,156.857,-20.247,-13.66,-19.673,30.33,0.13641,0.43051,0.00812,0.89212,863,0.929,0.077,0.32,0.0,0.61,-0.183,13.046,-70.291,-165.465,-29.247,-13.607,-4.747,32.76,0.17014,-0.55563,-0.16711,-0.79642,879
220,0.922,-0.247,0.364,0.0,0.732,0.244,-34.475,-64.067,-151.6,-27.553,-5.82,-12.407,30.55,0.0466,-0.55325,0.11877,-0.82312,896,0.654,0.079,0.75,0.0,1.16,-0.122,6.24,-41.237,-130.408,-21.453,-11.4,-3.153,27.11,-0.40939,0.29843,0.19403,0.84,900,0.757,0.13,0.628,0.122,1.221,-0.122,11.81,-49.763,156.846,-20.247,-13.66,-19.673,30.33,0.13641,0.43051,0.00812,0.89212,872,0.925,0.078,0.316,0.61,0.793,-0.122,13.052,-70.28,-165.493,-29.247,-13.607,-4.747,32.76,0.16769,-0.55557,-0.16455,-0.79752,884
221,0.923,-0.249,0.367,-0.61,1.099,0.244,-34.464,-64.05,-151.6,-27.553,-5.82,-12.407,30.55,0.0466,-0.55325,0.11877,-0.82312,897,0.664,0.076,0.754,-0.61,1.099,-0.305,6.229,-41.215,-130.419,-21.453,-11.4,-3.153,27.11,-0.40939,0.29843,0.19403,0.84,901,0.751,0.132,0.633,-0.366,0.977,-0.183,11.805,-49.746,156.846,-20.247,-13.66,-19.673,30.33,0.13641,0.43051,0.00812,0.89212,873,0.932,0.079,0.319,-0.549,0.366,0.0,13.057,-70.269,-165.498,-29.247,-13.607,-4.747,32.76,0.16769,-0.55557,-0.16455,-0.79752,885
222,0.922,-0.252,0.375,-0.183,0.732,0.244,-34.453,-64.034,-151.6,-27.553,-5.82,-12.407,30.55,0.0466,-0.55325,0.11877,-0.82312,898,0.654,0.078,0.749,-0.549,1.16,-0.793,6.229,-41.193,-130.43,-21.453,-11.4,-3.153,27.11,-0.40939,0.29843,0.19403,0.84,902,0.757,0.127,0.635,-1.648,0.671,-0.427,11.783,-49.73,156.824,-20.247,-13.66,-19.673,30.33,0.13641,0.43051,0.00812,0.89212,874,0.925,0.078,0.32,-0.61,0.244,0.0,13.046,-70.269,-165.493,-29.247,-13.607,-4.747,32.76,0.16769,-0.55557,-0.16455,-0.79752,886
223,0.923,-0.249,0.367,-0.61,1.099,0.244,-34.464,-64.05,-151.6,-27.553,-5.82,-12.407,30.55,0.0466,-0.55325,0.11877,-0.82312,899,0.664,0.076,0.754,-0.61,1.099,-0.305,6.229,-41.215,-130.419,-21.453,-11.4,-3.153,27.11,-0.40939,0.29843,0.19403,0.84,903,0.751,0.132,0.633,-0.366,0.977,-0.183,11.805,-49.746,156.846,-20.247,-13.66,-19.673,30.33,0.13641,0.43051,0.00812,0.89212,875,0.932,0.079,0.319,-0.549,0.366,0.0,13.057,-70.269,-165.498,-29.247,-13.607,-4.747,32.76,0.16769,-0.55557,-0.16455,-0.79752,887
224,0.923,-0.252,0.375,-0.183,0.732,0.244,-34.453,-64.034,-151.6,-27.553,-5.82,-12.407,30.55,0.0466,-0.55325,0.11877,-0.82312,912,0.667,0.078,0.749,-0.549,1.16,-0.793,6.229,-41.193,-130.43,-21.453,-11.4,-3.153,27.11,-0.40939,0.29843,0.19403,0.84,904,0.756,0.127,0.635,-1.648,0.671,-0.427,11.783,-49.73,156.824,-20.247,-13.66,-19.673,30.33,0.13641,0.43051,0.00812,0.89212,880,0.936,0.078,0.32,-0.61,0.244,0.0,13.046,-70.269,-165.493,-29.247,-13.607,-4.747,32.76,0.16769,-0.55557,-0.16455,-0.79752,888
225,0.917,-0.251,0.371,-0.183,0.488,0.244,-34.448,-64.023,-151.589,-27.553,-5.82,-12.407,30.55,0.0466,-0.55325,0.11877,-0.82312,913,0.661,0.076,0.75,-0.061,0.488,-1.099,6.24,-41.182,-130.452,-21.453,-11.4,-3.153,27.11,-0.40939,0.29843,0.19403,0.84,905,0.765,0.128,0.634,-2.197,0.854,-1.099,11.761,-49.708,156.769,-20.247,-13.66,-19.673,30.33,0.13641,0.43051,0.00812,0.89212,881,0.932,0.075,0.33,0.244,0.366,-0.305,13.046,-70.263,-165.476,-29.247,-13.607,-4.747,32.76,0.16769,-0.55557,-0.16455,-0.79752,889
226,0.923,-0.253,0.367,-0.366,0.427,0.061,-34.448,-64.017,-151.584,-27.553,-5.82,-12.407,30.55,0.0466,-0.55325,0.11877,-0.82312,914,0.667,0.08,0.754,-0.488,0.793,-1.526,6.251,-41.166,-130.49,-21.453,-11.4,-3.153,27.11,-0.40939,0.29843,0.19403,0.84,906,0.756,0.129,0.629,-1.648,0.427,-1.343,11.75,-49.697,156.725,-20.247,-13.66,-19.673,30.33,0.13641,0.43051,0.00812,0.89212,882,0.936,0.076,0.323,-0.488,0.305,-0.427,13.063,-70.258,-165.482,-29.247,-13.607,-4.747,32.76,0.16769,-0.55557,-0.16455,-0.79752,890
227,0.917,-0.251,0.371,-0.183,0.488,0.244,-34.448,-64.023,-151.589,-27.553,-5.82,-12.407,30.55,0.0466,-0.55325,0.11877,-0.82312,915,0.661,0.076,0.75,-0.061,0.488,-1.099,6.24,-41.182,-130.452,-21.453,-11.4,-3.153,27.11,-0.40939,0.29843,0.19403,0.84,907,0.765,0.128,0.634,-2.197,0.854,-1.099,11.761,-49.708,156.769,-20.247,-13.66,-19.673,30.33,0.13641,0.43051,0.00812,0.89212,883,0.932,0.075,0.33,0.244,0.366,-0.305,13.046,-70.263,-165.476,-29.247,-13.607,-4.747,32.76,0.16769,-0.55557,-0.16455,-0.79752,891
228,0.916,-0.253,0.367,-0.366,0.427,0.061,-34.448,-64.017,-151.584,-27.553,-5.82,-12.407,30.55,0.0466,-0.55325,0.11877,-0.82312,936,0.658,0.08,0.754,-0.488,0.793,-1.526,6.251,-41.166,-130.49,-21.453,-11.4,-3.153,27.11,-0.40939,0.29843,0.19403,0.84,916,0.76,0.129,0.629,-1.648,0.427,-1.343,11.75,-49.697,156.725,-20.247,-13.66,-19.673,30.33,0.13641,0.43051,0.00812,0.89212,908,0.927,0.076,0.323,-0.488,0.305,-0.427,13.063,-70.258,-165.482,-29.247,-13.607,-4.747,32.76,0.16769,-0.55557,-0.16455,-0.79752,924
229,0.916,-0.255,0.372,-0.488,0.183,0.061,-34.448,-64.012,-151.578,-27.553,-5.82,-12.407,30.55,0.0466,-0.55325,0.11877,-0.82312,937,0.66,0.079,0.752,-0.061,0.977,-1.16,6.262,-41.144,-130.523,-21.453,-11.4,-3.153,27.11,-0.40939,0.29843,0.19403,0.84,917,0.753,0.13,0.635,-2.197,0.061,-1.648,11.744,-49.686,156.665,-20.247,-13.66,-19.673,30.33,0.13641,0.43051,0.00812,0.89212,909,0.929,0.071,0.32,0.0,0.0,-0.305,13.079,-70.258,-165.504,-29.247,-13.607,-4.747,32.76,0.16769,-0.55557,-0.16455,-0.79752,925
230,0.916,-0.257,0.371,-0.671,0.0,0.122,-34.459,-64.012,-151.562,-27.553,-5.82,-12.407,30.55,0.0466,-0.55325,0.11877,-0.82312,938,0.658,0.08,0.752,0.0,0.427,-0.671,6.273,-41.133,-130.545,-21.453,-11.4,-3.153,27.11,-0.40939,0.29843,0.19403,0.84,918,0.76,0.137,0.633,-1.648,0.061,-1.526,11.744,-49.68,156.605,-20.247,-13.66,-19.673,30.33,0.13641,0.43051,0.00812,0.89212,910,0.927,0.071,0.324,0.305,0.061,-0.305,13.096,-70.258,-165.547,-29.247,-13.607,-4.747,32.76,0.16769,-0.55557,-0.16455,-0.79752,926
231,0.916,-0.255,0.372,-0.488,0.183,0.061,-34.448,-64.012,-151.578,-27.553,-5.82,-12.407,30.55,0.0466,-0.55325,0.11877,-0.82312,939,0.66,0.079,0.752,-0.061,0.977,-1.16,6.262,-41.144,-130.523,-21.453,-11.4,-3.153,27.11,-0.40939,0.29843,0.19403,0.84,919,0.753,0.13,0.635,-2.197,0.061,-1.648,11.744,-49.686,156.665,-20.247,-13.66,-19.673,30.33,0.13641,0.43051,0.00812,0.89212,911,0.929,0.071,0.32,0.0,0.0,-0.305,13.079,-70.258,-165.504,-29.247,-13.607,-4.747,32.76,0.16769,-0.55557,-0.16455,-0.79752,927
232,0.915,-0.257,0.371,-0.671,0.0,0.122,-34.459,-64.012,-151.562,-27.553,-5.82,-12.407,30.55,0.0466,-0.55325,0.11877,-0.82312,940,0.657,0.08,0.752,0.0,0.427,-0.671,6.273,-41.133,-130.545,-21.453,-11.4,-3.153,27.11,-0.40939,0.29843,0.19403,0.84,944,0.756,0.137,0.633,-1.648,0.061,-1.526,11.744,-49.68,156.605,-20.247,-13.66,-19.673,30.33,0.13641,0.43051,0.00812,0.89212,920,0.927,0.071,0.324,0.305,0.061,-0.305,13.096,-70.258,-165.547,-29.247,-13.607,-4.747,32.76,0.16769,-0.55557,-0.16455,-0.79752,932
233,0.916,-0.252,0.373,-0.366,0.0,0.122,-34.47,-64.006,-151.545,-27.553,-5.82,-12.407,30.55,0.0466,-0.55325,0.11877,-0.82312,941,0.654,0.08,0.75,0.061,0.0,-0.427,6.279,-41.133,-130.567,-21.453,-11.4,-3.153,27.11,-0.40939,0.29843,0.19403,0.84,945,0.756,0.134,0.638,-0.732,0.488,-0.916,11.75,-49.664,156.544,-20.247,-13.66,-19.673,30.33,0.13641,0.43051,0.00812,0.89212,921,0.926,0.072,0.324,0.061,0.0,-0.183,13.118,-70.258,-165.58,-29.247,-13.607,-4.747,32.76,0.16769,-0.55557,-0.16455,-0.79752,933
234,0.915,-0.252,0.373,-0.183,0.0,0.122,-34.481,-64.006,-151.523,-27.553,-5.82,-12.407,30.55,0.0466,-0.55325,0.11877,-0.82312,942,0.657,0.08,0.749,0.122,0.122,-0.366,6.284,-41.133,-130.578,-21.453,-11.4,-3.153,27.11,-0.40939,0.29843,0.19403,0.84,946,0.756,0.134,0.636,-0.61,0.0,-0.732,11.755,-49.658,156.484,-20.247,-13.66,-19.673,30.33,0.13641,0.43051,0.00812,0.89212,922,0.927,0.074,0.325,-0.122,0.0,-0.122,13.123,-70.258,-165.591,-29.247,-13.607,-4.747,32.76,0.16769,-0.55557,-0.16455,-0.79752,934
