Time,Device name,Chip Time(),Acceleration X(g),Acceleration Y(g),Acceleration Z(g),Angular velocity X(°/s),Angular velocity Y(°/s),Angular velocity Z(°/s),Angle X(°),Angle Y(°),Angle Z(°),Magnetic field X(ʯt),Magnetic field Y(ʯt),Magnetic field Z(ʯt),Temperature(℃),Quaternions 0(),Quaternions 1(),Quaternions 2(),Quaternions 3()
 14:57:37.993,ed:40:fe:65:30:6c, 2015-01-01 01:20:22.020, 0.598, 0.087, 0.799, 0.122, -0.366, 0.122, 6.312, -36.749, -133.314, -18.633, -11.353, -4.420, 27.09, -0.39157, 0.26807, 0.17258, 0.86307,
 14:57:37.993,ed:40:fe:65:30:6c, 2015-01-01 01:20:22.020, 0.599, 0.085, 0.798, 0, -0.549, 0.122, 6.306, -36.76, -133.319, -18.633, -11.353, -4.420, 27.09, -0.39157, 0.26807, 0.17258, 0.86307,
 14:57:37.999,e3:ca:2d:fd:e0:8c, 2015-01-01 01:20:11.465, 1, 0.001, 0.201, 0.244, 0, 0, 0.511, -78.635, 161.796, -26.633, -10.233, -8.553, 28.61, 0.12021, 0.62616, -0.09726, 0.76413,
 14:57:37.999,e3:ca:2d:fd:e0:8c, 2015-01-01 01:20:11.465, 1.001, 0.002, 0.2, 0.183, 0.061, 0, 0.511, -78.635, 161.807, -26.633, -10.233, -8.553, 28.61, 0.12021, 0.62616, -0.09726, 0.76413,
 14:57:38.005,f6:90:cc:01:6d:25, 2015-01-01 01:20:08.735, 0.941, 0.019, 0.298, -0.061, -0.122, 0, 3.972, -72.356, -161.153, -29.400, -10.967, -4.093, 31.48, -0.15222, 0.57736, 0.12418, 0.79242,
 14:57:38.005,f6:90:cc:01:6d:25, 2015-01-01 01:20:08.735, 0.939, 0.019, 0.298, 0, 0, 0, 3.966, -72.356, -161.153, -29.400, -10.967, -4.093, 31.48, -0.15222, 0.57736, 0.12418, 0.79242,
 14:57:38.005,f6:90:cc:01:6d:25, 2015-01-01 01:20:08.735, 0.938, 0.019, 0.297, 0.183, 0, 0, 3.972, -72.356, -161.153, -29.400, -10.967, -4.093, 31.48, -0.15222, 0.57736, 0.12418, 0.79242,
 14:57:38.005,f6:90:cc:01:6d:25, 2015-01-01 01:20:08.735, 0.94, 0.02, 0.299, 0.122, 0, 0, 3.972, -72.356, -161.158, -29.400, -10.967, -4.093, 31.48, -0.15222, 0.57736, 0.12418, 0.79242,
 14:57:38.005,f6:90:cc:01:6d:25, 2015-01-01 01:20:08.735, 0.94, 0.021, 0.298, 0, -0.122, 0, 3.966, -72.356, -161.158, -29.400, -10.967, -4.093, 31.48, -0.15222, 0.57736, 0.12418, 0.79242,
 14:57:38.005,f6:90:cc:01:6d:25, 2015-01-01 01:20:08.735, 0.941, 0.021, 0.298, -0.122, -0.183, 0, 3.966, -72.361, -161.158, -29.400, -10.967, -4.093, 31.48, -0.15222, 0.57736, 0.12418, 0.79242,
 14:57:38.025,ed:40:fe:65:30:6c, 2015-01-01 01:20:22.375, 0.599, 0.086, 0.798, -0.183, -0.549, 0.061, 6.301, -36.771, -133.33, -18.633, -11.353, -4.420, 27.09, -0.39157, 0.26807, 0.17258, 0.86307,
 14:57:38.025,ed:40:fe:65:30:6c, 2015-01-01 01:20:22.375, 0.599, 0.084, 0.796, -0.244, -0.61, 0, 6.295, -36.782, -133.336, -18.633, -11.353, -4.420, 27.09, -0.39157, 0.26807, 0.17258, 0.86307,
 14:57:38.031,ed:35:33:d3:6c:f8, 2015-01-01 01:20:10.240, 0.561, 0.092, 0.817, -0.366, -0.427, 0, 6.432, -34.299, 148.651, -14.533, -12.433, -29.753, 31.56, -0.23975, -0.29874, 0.02753, -0.92325,
 14:57:38.031,ed:35:33:d3:6c:f8, 2015-01-01 01:20:10.240, 0.56, 0.092, 0.816, -0.549, -0.427, -0.122, 6.427, -34.305, 148.64, -14.533, -12.433, -29.753, 31.56, -0.23975, -0.29874, 0.02753, -0.92325,
 14:57:38.055,ed:40:fe:65:30:6c, 2015-01-01 01:20:22.375, 0.601, 0.087, 0.795, 0, -0.61, 0, 6.295, -36.793, -133.347, -18.633, -11.353, -4.420, 27.09, -0.39157, 0.26807, 0.17258, 0.86307,
 14:57:38.055,ed:40:fe:65:30:6c, 2015-01-01 01:20:22.375, 0.6, 0.084, 0.795, 0, -0.732, 0, 6.295, -36.81, -133.358, -18.633, -11.353, -4.420, 27.09, -0.39157, 0.26807, 0.17258, 0.86307,
 14:57:38.059,e3:ca:2d:fd:e0:8c, 2015-01-01 01:20:11.465, 1.002, 0.002, 0.201, -0.061, 0, 0, 0.511, -78.635, 161.812, -26.260, -9.940, -9.187, 28.61, 0.12021, 0.62616, -0.09726, 0.76413,
 14:57:38.059,e3:ca:2d:fd:e0:8c, 2015-01-01 01:20:11.465, 1.001, 0.003, 0.201, -0.244, 0, 0, 0.505, -78.635, 161.823, -26.260, -9.940, -9.187, 28.61, 0.12021, 0.62616, -0.09726, 0.76413,
 14:57:38.061,ed:35:33:d3:6c:f8, 2015-01-01 01:20:10.240, 0.561, 0.093, 0.815, -0.61, -0.366, -0.122, 6.416, -34.31, 148.629, -14.533, -12.433, -29.753, 31.56, -0.24188, -0.29797, 0.02798, -0.92294,
 14:57:38.061,ed:35:33:d3:6c:f8, 2015-01-01 01:20:10.240, 0.562, 0.093, 0.815, -0.305, -0.244, -0.122, 6.416, -34.316, 148.623, -14.533, -12.433, -29.753, 31.56, -0.24188, -0.29797, 0.02798, -0.92294,
 14:57:38.065,f6:90:cc:01:6d:25, 2015-01-01 01:20:09.125, 0.942, 0.021, 0.299, -0.183, -0.122, 0, 3.961, -72.361, -161.158, -29.400, -10.967, -4.093, 31.48, -0.15222, 0.57736, 0.12418, 0.79242,
 14:57:38.065,f6:90:cc:01:6d:25, 2015-01-01 01:20:09.125, 0.94, 0.018, 0.298, -0.122, -0.122, 0, 3.961, -72.367, -161.164, -29.400, -10.967, -4.093, 31.48, -0.15222, 0.57736, 0.12418, 0.79242,
 14:57:38.089,e3:ca:2d:fd:e0:8c, 2015-01-01 01:20:11.465, 0.999, 0, 0.201, -0.366, 0, 0, 0.494, -78.635, 161.834, -26.260, -9.940, -9.187, 28.61, 0.12021, 0.62616, -0.09726, 0.76413,
 14:57:38.089,e3:ca:2d:fd:e0:8c, 2015-01-01 01:20:11.465, 1, -0.002, 0.201, -0.244, -0.061, 0, 0.489, -78.635, 161.84, -26.260, -9.940, -9.187, 28.61, 0.12021, 0.62616, -0.09726, 0.76413,
 14:57:38.091,ed:35:33:d3:6c:f8, 2015-01-01 01:20:10.240, 0.56, 0.09, 0.812, 0, -0.244, 0.061, 6.416, -34.321, 148.618, -14.533, -12.433, -29.753, 31.56, -0.24188, -0.29797, 0.02798, -0.92294,
 14:57:38.091,ed:35:33:d3:6c:f8, 2015-01-01 01:20:10.240, 0.564, 0.088, 0.812, 0, -0.122, 0.061, 6.416, -34.321, 148.618, -14.533, -12.433, -29.753, 31.56, -0.24188, -0.29797, 0.02798, -0.92294,
 14:57:38.095,f6:90:cc:01:6d:25, 2015-01-01 01:20:09.125, 0.939, 0.016, 0.298, -0.061, -0.061, 0, 3.955, -72.367, -161.164, -29.400, -10.967, -4.093, 31.48, -0.15222, 0.57736, 0.12418, 0.79242,
 14:57:38.095,f6:90:cc:01:6d:25, 2015-01-01 01:20:09.125, 0.94, 0.019, 0.297, -0.122, 0.061, 0, 3.95, -72.367, -161.164, -29.400, -10.967, -4.093, 31.48, -0.15222, 0.57736, 0.12418, 0.79242,
 14:57:38.115,ed:40:fe:65:30:6c, 2015-01-01 01:20:22.375, 0.6, 0.08, 0.792, 0.061, -0.671, 0.305, 6.29, -36.821, -133.358, -18.633, -11.353, -4.420, 27.09, -0.39157, 0.26807, 0.17258, 0.86307,
 14:57:38.115,ed:40:fe:65:30:6c, 2015-01-01 01:20:22.375, 0.603, 0.083, 0.795, 0.366, -0.549, 0.122, 6.29, -36.832, -133.363, -18.633, -11.353, -4.420, 27.09, -0.39157, 0.26807, 0.17258, 0.86307,
 14:57:38.117,e3:ca:2d:fd:e0:8c, 2015-01-01 01:20:11.465, 1.001, 0, 0.202, 0, 0, 0, 0.483, -78.635, 161.851, -26.260, -9.940, -9.187, 28.61, 0.11935, 0.62619, -0.09668, 0.76431,
 14:57:38.117,e3:ca:2d:fd:e0:8c, 2015-01-01 01:20:11.465, 1.001, 0.002, 0.202, -0.244, 0.122, 0, 0.478, -78.635, 161.862, -26.260, -9.940, -9.187, 28.61, 0.11935, 0.62619, -0.09668, 0.76431,
 14:57:38.120,ed:35:33:d3:6c:f8, 2015-01-01 01:20:10.630, 0.563, 0.093, 0.815, 0.183, 0.244, -0.061, 6.416, -34.321, 148.612, -14.533, -12.433, -29.753, 31.56, -0.24188, -0.29797, 0.02798, -0.92294,
 14:57:38.120,ed:35:33:d3:6c:f8, 2015-01-01 01:20:10.630, 0.563, 0.098, 0.82, 0.549, 0.366, 0, 6.432, -34.31, 148.607, -14.533, -12.433, -29.753, 31.56, -0.24188, -0.29797, 0.02798, -0.92294,
 14:57:38.144,ed:40:fe:65:30:6c, 2015-01-01 01:20:22.375, 0.603, 0.089, 0.801, 0.854, -0.061, 0.122, 6.306, -36.837, -133.369, -18.633, -11.353, -4.420, 27.09, -0.39157, 0.26807, 0.17258, 0.86307,
 14:57:38.144,ed:40:fe:65:30:6c, 2015-01-01 01:20:22.375, 0.602, 0.085, 0.801, 0.488, 0.061, 0.366, 6.317, -36.837, -133.374, -18.633, -11.353, -4.420, 27.09, -0.39157, 0.26807, 0.17258, 0.86307,
 14:57:38.174,ed:40:fe:65:30:6c, 2015-01-01 01:20:22.375, 0.601, 0.083, 0.799, 0.183, 0.122, 0.122, 6.317, -36.837, -133.369, -18.633, -11.353, -4.420, 27.09, -0.39157, 0.26807, 0.17258, 0.86307,
 14:57:38.174,ed:40:fe:65:30:6c, 2015-01-01 01:20:22.375, 0.6, 0.086, 0.797, 0.305, 0.122, 0, 6.317, -36.837, -133.374, -18.633, -11.353, -4.420, 27.09, -0.39157, 0.26807, 0.17258, 0.86307,
 14:57:38.178,e3:ca:2d:fd:e0:8c, 2015-01-01 01:20:11.465, 1.003, 0.003, 0.199, 0, 0.122, 0, 0.472, -78.635, 161.867, -26.260, -9.940, -9.187, 28.61, 0.11935, 0.62619, -0.09668, 0.76431,
 14:57:38.178,e3:ca:2d:fd:e0:8c, 2015-01-01 01:20:11.465, 1.003, 0, 0.202, -0.122, 0.122, 0, 0.472, -78.629, 161.878, -26.260, -9.940, -9.187, 28.61, 0.11935, 0.62619, -0.09668, 0.76431,
 14:57:38.182,ed:35:33:d3:6c:f8, 2015-01-01 01:20:10.630, 0.563, 0.094, 0.82, 0.549, 0.366, 0.183, 6.438, -34.305, 148.607, -14.533, -12.433, -29.753, 31.56, -0.24188, -0.29797, 0.02798, -0.92294,
 14:57:38.182,ed:35:33:d3:6c:f8, 2015-01-01 01:20:10.630, 0.561, 0.089, 0.82, 0, 0.183, 0, 6.438, -34.305, 148.607, -14.533, -12.433, -29.753, 31.56, -0.24188, -0.29797, 0.02798, -0.92294,
 14:57:38.183,f6:90:cc:01:6d:25, 2015-01-01 01:20:09.125, 0.941, 0.021, 0.298, -0.183, 0, 0, 3.944, -72.367, -161.164, -29.400, -10.967, -4.093, 31.48, -0.15222, 0.57736, 0.12418, 0.79242,
 14:57:38.183,f6:90:cc:01:6d:25, 2015-01-01 01:20:09.125, 0.943, 0.021, 0.298, -0.122, -0.061, 0, 3.944, -72.367, -161.164, -29.400, -10.967, -4.093, 31.48, -0.15222, 0.57736, 0.12418, 0.79242,
 14:57:38.186,f6:90:cc:01:6d:25, 2015-01-01 01:20:09.125, 0.943, 0.02, 0.297, 0, -0.122, 0, 3.939, -72.372, -161.164, -29.400, -10.967, -4.093, 31.48, -0.15222, 0.57736, 0.12418, 0.79242,
 14:57:38.186,f6:90:cc:01:6d:25, 2015-01-01 01:20:09.125, 0.942, 0.02, 0.298, -0.061, 0, 0, 3.939, -72.372, -161.164, -29.400, -10.967, -4.093, 31.48, -0.15222, 0.57736, 0.12418, 0.79242,
 14:57:38.209,e3:ca:2d:fd:e0:8c, 2015-01-01 01:20:11.825, 1.001, 0.001, 0.201, -0.122, 0.061, 0, 0.467, -78.629, 161.884, -26.260, -9.940, -9.187, 28.61, 0.11935, 0.62619, -0.09668, 0.76431,
 14:57:38.209,e3:ca:2d:fd:e0:8c, 2015-01-01 01:20:11.825, 0.999, 0.003, 0.199, -0.244, 0.061, 0, 0.461, -78.629, 161.895, -26.260, -9.940, -9.187, 28.61, 0.11935, 0.62619, -0.09668, 0.76431,
 14:57:38.209,ed:35:33:d3:6c:f8, 2015-01-01 01:20:10.630, 0.559, 0.093, 0.817, -0.305, 0.122, 0, 6.432, -34.299, 148.601, -14.533, -12.433, -29.753, 31.56, -0.24188, -0.29797, 0.02798, -0.92294,
 14:57:38.209,ed:35:33:d3:6c:f8, 2015-01-01 01:20:10.630, 0.559, 0.097, 0.818, -0.244, 0.122, 0, 6.427, -34.299, 148.596, -14.533, -12.433, -29.753, 31.56, -0.24188, -0.29797, 0.02798, -0.92294,
 14:57:38.234,ed:40:fe:65:30:6c, 2015-01-01 01:20:22.375, 0.599, 0.09, 0.797, 0.122, 0.061, 0.122, 6.317, -36.832, -133.38, -18.633, -11.353, -4.420, 27.09, -0.39157, 0.26807, 0.17258, 0.86307,
 14:57:38.234,ed:40:fe:65:30:6c, 2015-01-01 01:20:22.375, 0.599, 0.088, 0.794, -0.122, 0, 0.183, 6.317, -36.832, -133.385, -18.633, -11.353, -4.420, 27.09, -0.39157, 0.26807, 0.17258, 0.86307,
 14:57:38.238,e3:ca:2d:fd:e0:8c, 2015-01-01 01:20:11.825, 0.999, 0.002, 0.198, -0.305, -0.122, 0, 0.456, -78.629, 161.9, -26.260, -9.940, -9.187, 28.61, 0.11935, 0.62619, -0.09668, 0.76431,
 14:57:38.238,e3:ca:2d:fd:e0:8c, 2015-01-01 01:20:11.825, 0.998, 0, 0.199, -0.061, -0.305, 0, 0.45, -78.635, 161.911, -26.260, -9.940, -9.187, 28.61, 0.11935, 0.62619, -0.09668, 0.76431,
 14:57:38.240,ed:35:33:d3:6c:f8, 2015-01-01 01:20:10.630, 0.559, 0.096, 0.817, -0.366, 0.061, 0, 6.422, -34.299, 148.59, -14.533, -12.433, -29.753, 31.56, -0.24188, -0.29797, 0.02798, -0.92294,
 14:57:38.240,ed:35:33:d3:6c:f8, 2015-01-01 01:20:10.630, 0.559, 0.093, 0.814, -0.183, 0, 0, 6.422, -34.294, 148.59, -14.533, -12.433, -29.753, 31.56, -0.24188, -0.29797, 0.02798, -0.92294,
 14:57:38.244,f6:90:cc:01:6d:25, 2015-01-01 01:20:09.125, 0.939, 0.021, 0.298, -0.122, 0, 0, 3.933, -72.372, -161.169, -29.400, -10.967, -4.093, 31.48, -0.15222, 0.57736, 0.12418, 0.79242,
 14:57:38.244,f6:90:cc:01:6d:25, 2015-01-01 01:20:09.125, 0.938, 0.021, 0.296, -0.061, -0.244, 0, 3.933, -72.372, -161.169, -29.400, -10.967, -4.093, 31.48, -0.15222, 0.57736, 0.12418, 0.79242,
 14:57:38.246,f6:90:cc:01:6d:25, 2015-01-01 01:20:09.125, 0.938, 0.02, 0.295, 0.061, -0.305, 0, 3.933, -72.378, -161.169, -29.400, -10.967, -4.093, 31.48, -0.15222, 0.57736, 0.12418, 0.79242,
 14:57:38.246,f6:90:cc:01:6d:25, 2015-01-01 01:20:09.125, 0.939, 0.019, 0.296, 0, -0.305, 0, 3.933, -72.383, -161.175, -29.400, -10.967, -4.093, 31.48, -0.15222, 0.57736, 0.12418, 0.79242,
 14:57:38.264,ed:40:fe:65:30:6c, 2015-01-01 01:20:22.375, 0.598, 0.083, 0.793, 0, -0.061, 0.244, 6.306, -36.832, -133.385, -18.860, -11.713, -4.400, 27.09, -0.39157, 0.26807, 0.17258, 0.86307,
 14:57:38.264,ed:40:fe:65:30:6c, 2015-01-01 01:20:22.375, 0.6, 0.082, 0.795, 0.061, -0.122, 0.244, 6.306, -36.837, -133.385, -18.860, -11.713, -4.400, 27.09, -0.39157, 0.26807, 0.17258, 0.86307,
 14:57:38.267,e3:ca:2d:fd:e0:8c, 2015-01-01 01:20:11.825, 0.998, 0, 0.199, 0.061, -0.305, 0, 0.456, -78.64, 161.917, -26.260, -9.940, -9.187, 28.61, 0.11935, 0.62619, -0.09668, 0.76431,
 14:57:38.267,e3:ca:2d:fd:e0:8c, 2015-01-01 01:20:11.825, 1, 0, 0.2, 0.061, -0.183, 0, 0.456, -78.646, 161.922, -26.260, -9.940, -9.187, 28.61, 0.11935, 0.62619, -0.09668, 0.76431,
 14:57:38.296,ed:40:fe:65:30:6c, 2015-01-01 01:20:22.375, 0.601, 0.084, 0.795, 0.244, -0.183, 0.122, 6.301, -36.837, -133.385, -18.860, -11.713, -4.400, 27.09, -0.39157, 0.26807, 0.17258, 0.86307,
 14:57:38.296,ed:40:fe:65:30:6c, 2015-01-01 01:20:22.375, 0.602, 0.085, 0.795, 0.366, -0.244, 0.122, 6.301, -36.843, -133.391, -18.860, -11.713, -4.400, 27.09, -0.39157, 0.26807, 0.17258, 0.86307,
 14:57:38.300,ed:35:33:d3:6c:f8, 2015-01-01 01:20:10.630, 0.559, 0.089, 0.815, 0, 0, 0, 6.422, -34.294, 148.585, -14.533, -12.433, -29.753, 31.56, -0.24188, -0.29797, 0.02798, -0.92294,
 14:57:38.300,ed:35:33:d3:6c:f8, 2015-01-01 01:20:10.630, 0.56, 0.09, 0.815, 0, 0, 0.061, 6.422, -34.294, 148.579, -14.533, -12.433, -29.753, 31.56, -0.24188, -0.29797, 0.02798, -0.92294,
 14:57:38.304,f6:90:cc:01:6d:25, 2015-01-01 01:20:09.125, 0.941, 0.019, 0.297, 0, -0.183, 0, 3.933, -72.389, -161.175, -29.513, -10.793, -3.820, 31.48, -0.15222, 0.57736, 0.12418, 0.79242,
 14:57:38.304,f6:90:cc:01:6d:25, 2015-01-01 01:20:09.125, 0.942, 0.02, 0.298, -0.122, -0.183, 0, 3.933, -72.394, -161.175, -29.513, -10.793, -3.820, 31.48, -0.15222, 0.57736, 0.12418, 0.79242,
 14:57:38.328,e3:ca:2d:fd:e0:8c, 2015-01-01 01:20:11.825, 1.002, 0, 0.202, -0.122, -0.122, 0, 0.45, -78.651, 161.933, -26.260, -9.940, -9.187, 28.61, 0.11935, 0.62619, -0.09668, 0.76431,
 14:57:38.328,e3:ca:2d:fd:e0:8c, 2015-01-01 01:20:11.825, 1.002, 0, 0.202, -0.244, -0.061, 0, 0.445, -78.651, 161.938, -26.260, -9.940, -9.187, 28.61, 0.11935, 0.62619, -0.09668, 0.76431,
 14:57:38.331,ed:35:33:d3:6c:f8, 2015-01-01 01:20:10.630, 0.562, 0.092, 0.815, 0.122, 0, 0.061, 6.427, -34.294, 148.579, -13.807, -12.840, -30.093, 31.56, -0.24188, -0.29797, 0.02798, -0.92294,
 14:57:38.331,ed:35:33:d3:6c:f8, 2015-01-01 01:20:10.630, 0.561, 0.091, 0.816, 0.305, 0.061, 0, 6.432, -34.294, 148.574, -13.807, -12.840, -30.093, 31.56, -0.24188, -0.29797, 0.02798, -0.92294,
 14:57:38.333,f6:90:cc:01:6d:25, 2015-01-01 01:20:09.125, 0.942, 0.021, 0.298, -0.183, -0.061, 0, 3.928, -72.4, -161.175, -29.513, -10.793, -3.820, 31.48, -0.15182, 0.57776, 0.12381, 0.79227,
 14:57:38.333,f6:90:cc:01:6d:25, 2015-01-01 01:20:09.125, 0.943, 0.02, 0.299, -0.122, 0, 0, 3.928, -72.4, -161.18, -29.513, -10.793, -3.820, 31.48, -0.15182, 0.57776, 0.12381, 0.79227,
 14:57:38.358,e3:ca:2d:fd:e0:8c, 2015-01-01 01:20:11.825, 1.003, 0.002, 0.202, -0.244, -0.061, 0, 0.439, -78.651, 161.949, -26.260, -9.940, -9.187, 28.61, 0.11935, 0.62619, -0.09668, 0.76431,
 14:57:38.358,e3:ca:2d:fd:e0:8c, 2015-01-01 01:20:11.825, 1.002, 0, 0.202, -0.427, 0, 0, 0.428, -78.651, 161.955, -26.260, -9.940, -9.187, 28.61, 0.11935, 0.62619, -0.09668, 0.76431,
 14:57:38.364,f6:90:cc:01:6d:25, 2015-01-01 01:20:09.125, 0.942, 0.018, 0.298, 0, 0, 0, 3.922, -72.4, -161.18, -29.513, -10.793, -3.820, 31.48, -0.15182, 0.57776, 0.12381, 0.79227,
 14:57:38.364,f6:90:cc:01:6d:25, 2015-01-01 01:20:09.125, 0.94, 0.018, 0.296, 0, 0.122, 0, 3.922, -72.4, -161.18, -29.513, -10.793, -3.820, 31.48, -0.15182, 0.57776, 0.12381, 0.79227,
 14:57:38.384,ed:40:fe:65:30:6c, 2015-01-01 01:20:22.375, 0.602, 0.084, 0.795, 0.427, -0.305, 0.061, 6.306, -36.848, -133.396, -18.860, -11.713, -4.400, 27.09, -0.39069, 0.26917, 0.17273, 0.86313,
 14:57:38.384,ed:40:fe:65:30:6c, 2015-01-01 01:20:22.375, 0.603, 0.083, 0.796, 0.732, -0.122, 0, 6.312, -36.854, -133.401, -18.860, -11.713, -4.400, 27.09, -0.39069, 0.26917, 0.17273, 0.86313,
 14:57:38.385,ed:40:fe:65:30:6c, 2015-01-01 01:20:22.375, 0.602, 0.087, 0.799, 0.427, 0, -0.183, 6.323, -36.854, -133.407, -18.860, -11.713, -4.400, 27.09, -0.39069, 0.26917, 0.17273, 0.86313,
 14:57:38.385,ed:40:fe:65:30:6c, 2015-01-01 01:20:22.375, 0.601, 0.087, 0.798, 0.244, 0.122, -0.122, 6.334, -36.854, -133.418, -18.860, -11.713, -4.400, 27.09, -0.39069, 0.26917, 0.17273, 0.86313,
 14:57:38.414,ed:40:fe:65:30:6c, 2015-01-01 01:20:22.765, 0.603, 0.085, 0.795, 0, 0.183, 0, 6.334, -36.854, -133.429, -18.860, -11.713, -4.400, 27.09, -0.39069, 0.26917, 0.17273, 0.86313,
 14:57:38.414,ed:40:fe:65:30:6c, 2015-01-01 01:20:22.765, 0.6, 0.083, 0.796, 0, 0.244, 0.061, 6.328, -36.848, -133.429, -18.860, -11.713, -4.400, 27.09, -0.39069, 0.26917, 0.17273, 0.86313,
 14:57:38.418,e3:ca:2d:fd:e0:8c, 2015-01-01 01:20:11.825, 1.001, 0, 0.201, -0.244, 0, 0, 0.423, -78.651, 161.96, -26.260, -9.940, -9.187, 28.61, 0.11935, 0.62619, -0.09668, 0.76431,
 14:57:38.418,e3:ca:2d:fd:e0:8c, 2015-01-01 01:20:11.825, 1, 0, 0.2, 0, 0.183, 0, 0.417, -78.651, 161.971, -26.260, -9.940, -9.187, 28.61, 0.11935, 0.62619, -0.09668, 0.76431,
 14:57:38.421,ed:35:33:d3:6c:f8, 2015-01-01 01:20:10.630, 0.563, 0.09, 0.814, 0.366, 0.122, 0, 6.438, -34.294, 148.574, -13.807, -12.840, -30.093, 31.56, -0.24188, -0.29797, 0.02798, -0.92294,
 14:57:38.421,ed:35:33:d3:6c:f8, 2015-01-01 01:20:10.630, 0.562, 0.093, 0.818, 0.061, 0.305, -0.122, 6.438, -34.288, 148.568, -13.807, -12.840, -30.093, 31.56, -0.24188, -0.29797, 0.02798, -0.92294,
 14:57:38.421,ed:35:33:d3:6c:f8, 2015-01-01 01:20:10.630, 0.56, 0.096, 0.819, 0.122, 0.305, -0.244, 6.443, -34.283, 148.557, -13.807, -12.840, -30.093, 31.56, -0.24188, -0.29797, 0.02798, -0.92294,
 14:57:38.421,ed:35:33:d3:6c:f8, 2015-01-01 01:20:10.630, 0.562, 0.094, 0.816, -0.061, 0.305, 0, 6.449, -34.277, 148.552, -13.807, -12.840, -30.093, 31.56, -0.24188, -0.29797, 0.02798, -0.92294,
 14:57:38.427,f6:90:cc:01:6d:25, 2015-01-01 01:20:09.540, 0.94, 0.018, 0.297, -0.061, 0.061, 0, 3.917, -72.394, -161.18, -29.513, -10.793, -3.820, 31.48, -0.15182, 0.57776, 0.12381, 0.79227,
 14:57:38.427,f6:90:cc:01:6d:25, 2015-01-01 01:20:09.540, 0.941, 0.017, 0.296, 0, 0.122, 0, 3.917, -72.394, -161.18, -29.513, -10.793, -3.820, 31.48, -0.15182, 0.57776, 0.12381, 0.79227,
 14:57:38.448,e3:ca:2d:fd:e0:8c, 2015-01-01 01:20:11.825, 1, -0.001, 0.2, 0.061, 0.183, 0, 0.417, -78.646, 161.977, -26.753, -10.000, -8.780, 28.61, 0.11935, 0.62619, -0.09668, 0.76431,
 14:57:38.448,e3:ca:2d:fd:e0:8c, 2015-01-01 01:20:11.825, 1.001, 0, 0.201, 0, 0.122, 0, 0.412, -78.646, 161.982, -26.753, -10.000, -8.780, 28.61, 0.11935, 0.62619, -0.09668, 0.76431,
 14:57:38.450,ed:35:33:d3:6c:f8, 2015-01-01 01:20:10.630, 0.56, 0.091, 0.816, -0.183, 0.366, 0, 6.443, -34.266, 148.546, -13.807, -12.840, -30.093, 31.56, -0.24243, -0.29785, 0.02802, -0.92282,
 14:57:38.450,ed:35:33:d3:6c:f8, 2015-01-01 01:20:10.630, 0.56, 0.091, 0.817, -0.122, 0.366, 0, 6.438, -34.261, 148.546, -13.807, -12.840, -30.093, 31.56, -0.24243, -0.29785, 0.02802, -0.92282,
 14:57:38.453,f6:90:cc:01:6d:25, 2015-01-01 01:20:09.540, 0.94, 0.018, 0.297, 0, 0.183, 0, 3.911, -72.394, -161.18, -29.513, -10.793, -3.820, 31.48, -0.15182, 0.57776, 0.12381, 0.79227,
 14:57:38.453,f6:90:cc:01:6d:25, 2015-01-01 01:20:09.540, 0.94, 0.019, 0.296, 0, 0.122, 0, 3.906, -72.389, -161.18, -29.513, -10.793, -3.820, 31.48, -0.15182, 0.57776, 0.12381, 0.79227,
 14:57:38.474,ed:40:fe:65:30:6c, 2015-01-01 01:20:22.765, 0.6, 0.083, 0.796, 0.122, 0.244, 0.061, 6.328, -36.848, -133.434, -18.860, -11.713, -4.400, 27.09, -0.39069, 0.26917, 0.17273, 0.86313,
 14:57:38.474,ed:40:fe:65:30:6c, 2015-01-01 01:20:22.765, 0.601, 0.086, 0.797, 0.122, 0.244, 0.061, 6.328, -36.843, -133.44, -18.860, -11.713, -4.400, 27.09, -0.39069, 0.26917, 0.17273, 0.86313,
 14:57:38.478,e3:ca:2d:fd:e0:8c, 2015-01-01 01:20:11.825, 1, 0, 0.199, -0.061, 0.122, 0, 0.406, -78.64, 161.993, -26.753, -10.000, -8.780, 28.61, 0.11935, 0.62619, -0.09668, 0.76431,
 14:57:38.478,e3:ca:2d:fd:e0:8c, 2015-01-01 01:20:11.825, 1, 0.001, 0.197, -0.122, 0.061, 0, 0.401, -78.64, 161.999, -26.753, -10.000, -8.780, 28.61, 0.11935, 0.62619, -0.09668, 0.76431,
 14:57:38.484,f6:90:cc:01:6d:25, 2015-01-01 01:20:09.540, 0.941, 0.021, 0.295, 0, 0.122, 0, 3.9, -72.389, -161.18, -29.513, -10.793, -3.820, 31.48, -0.15182, 0.57776, 0.12381, 0.79227,
 14:57:38.484,f6:90:cc:01:6d:25, 2015-01-01 01:20:09.540, 0.941, 0.021, 0.295, -0.122, 0.061, 0, 3.9, -72.383, -161.18, -29.513, -10.793, -3.820, 31.48, -0.15182, 0.57776, 0.12381, 0.79227,
 14:57:38.504,ed:40:fe:65:30:6c, 2015-01-01 01:20:22.765, 0.6, 0.086, 0.797, 0.183, 0.122, 0, 6.323, -36.837, -133.44, -18.860, -11.713, -4.400, 27.09, -0.39069, 0.26917, 0.17273, 0.86313,
 14:57:38.504,ed:40:fe:65:30:6c, 2015-01-01 01:20:22.765, 0.601, 0.086, 0.797, 0.122, 0, -0.061, 6.323, -36.837, -133.445, -18.860, -11.713, -4.400, 27.09, -0.39069, 0.26917, 0.17273, 0.86313,
 14:57:38.512,ed:35:33:d3:6c:f8, 2015-01-01 01:20:10.630, 0.56, 0.092, 0.818, -0.061, 0.366, 0, 6.438, -34.255, 148.541, -13.807, -12.840, -30.093, 31.56, -0.24243, -0.29785, 0.02802, -0.92282,
 14:57:38.512,ed:35:33:d3:6c:f8, 2015-01-01 01:20:10.630, 0.56, 0.092, 0.819, -0.061, 0.305, 0, 6.438, -34.25, 148.541, -13.807, -12.840, -30.093, 31.56, -0.24243, -0.29785, 0.02802, -0.92282,
 14:57:38.537,e3:ca:2d:fd:e0:8c, 2015-01-01 01:20:11.825, 1, 0.002, 0.198, -0.244, 0, 0, 0.39, -78.64, 162.004, -26.753, -10.000, -8.780, 28.61, 0.1188, 0.62625, -0.09644, 0.76437,
 14:57:38.537,e3:ca:2d:fd:e0:8c, 2015-01-01 01:20:11.825, 1.001, 0.002, 0.198, -0.366, -0.061, 0, 0.385, -78.646, 162.01, -26.753, -10.000, -8.780, 28.61, 0.1188, 0.62625, -0.09644, 0.76437,
 14:57:38.540,ed:35:33:d3:6c:f8, 2015-01-01 01:20:11.015, 0.559, 0.093, 0.819, -0.122, 0.122, 0, 6.432, -34.244, 148.535, -13.807, -12.840, -30.093, 31.56, -0.24243, -0.29785, 0.02802, -0.92282,
 14:57:38.540,ed:35:33:d3:6c:f8, 2015-01-01 01:20:11.015, 0.56, 0.095, 0.819, -0.305, 0, -0.305, 6.432, -34.244, 148.524, -13.807, -12.840, -30.093, 31.56, -0.24243, -0.29785, 0.02802, -0.92282,
 14:57:38.543,f6:90:cc:01:6d:25, 2015-01-01 01:20:09.540, 0.942, 0.021, 0.295, -0.122, 0, 0, 3.895, -72.383, -161.18, -29.513, -10.793, -3.820, 31.48, -0.15182, 0.57776, 0.12381, 0.79227,
 14:57:38.543,f6:90:cc:01:6d:25, 2015-01-01 01:20:09.540, 0.942, 0.019, 0.296, -0.183, -0.183, 0, 3.889, -72.389, -161.18, -29.513, -10.793, -3.820, 31.48, -0.15182, 0.57776, 0.12381, 0.79227,
 14:57:38.563,ed:40:fe:65:30:6c, 2015-01-01 01:20:22.765, 0.602, 0.088, 0.796, 0, -0.183, 0, 6.328, -36.837, -133.456, -18.860, -11.713, -4.400, 27.09, -0.39069, 0.26917, 0.17273, 0.86313,
 14:57:38.563,ed:40:fe:65:30:6c, 2015-01-01 01:20:22.765, 0.602, 0.088, 0.796, -0.061, -0.366, 0, 6.323, -36.843, -133.462, -18.860, -11.713, -4.400, 27.09, -0.39069, 0.26917, 0.17273, 0.86313,
 14:57:38.569,e3:ca:2d:fd:e0:8c, 2015-01-01 01:20:11.825, 1.002, 0.001, 0.199, -0.427, -0.122, 0, 0.374, -78.646, 162.015, -26.753, -10.000, -8.780, 28.61, 0.1188, 0.62625, -0.09644, 0.76437,
 14:57:38.569,e3:ca:2d:fd:e0:8c, 2015-01-01 01:20:11.825, 1.001, 0, 0.2, -0.244, -0.122, 0, 0.368, -78.651, 162.026, -26.753, -10.000, -8.780, 28.61, 0.1188, 0.62625, -0.09644, 0.76437,
 14:57:38.571,ed:35:33:d3:6c:f8, 2015-01-01 01:20:11.015, 0.561, 0.096, 0.818, -0.244, -0.183, -0.183, 6.432, -34.25, 148.519, -13.807, -12.840, -30.093, 31.56, -0.24243, -0.29785, 0.02802, -0.92282,
 14:57:38.571,ed:35:33:d3:6c:f8, 2015-01-01 01:20:11.015, 0.562, 0.095, 0.819, -0.244, -0.183, 0, 6.427, -34.25, 148.513, -13.807, -12.840, -30.093, 31.56, -0.24243, -0.29785, 0.02802, -0.92282,
 14:57:38.575,f6:90:cc:01:6d:25, 2015-01-01 01:20:09.540, 0.942, 0.019, 0.296, -0.122, -0.183, 0, 3.884, -72.394, -161.18, -29.513, -10.793, -3.820, 31.48, -0.15182, 0.57776, 0.12381, 0.79227,
 14:57:38.575,f6:90:cc:01:6d:25, 2015-01-01 01:20:09.540, 0.941, 0.02, 0.296, -0.061, -0.183, 0, 3.884, -72.4, -161.18, -29.513, -10.793, -3.820, 31.48, -0.15182, 0.57776, 0.12381, 0.79227,
 14:57:38.595,ed:40:fe:65:30:6c, 2015-01-01 01:20:22.765, 0.604, 0.086, 0.798, -0.061, -0.366, 0.183, 6.323, -36.848, -133.467, -18.860, -11.713, -4.400, 27.09, -0.39069, 0.26917, 0.17273, 0.86313,
 14:57:38.595,ed:40:fe:65:30:6c, 2015-01-01 01:20:22.765, 0.602, 0.084, 0.797, 0.061, -0.427, 0.244, 6.317, -36.859, -133.467, -18.860, -11.713, -4.400, 27.09, -0.39069, 0.26917, 0.17273, 0.86313,
 14:57:38.599,e3:ca:2d:fd:e0:8c, 2015-01-01 01:20:11.825, 1.001, 0, 0.2, -0.061, -0.061, 0, 0.368, -78.651, 162.032, -26.753, -10.000, -8.780, 28.61, 0.1188, 0.62625, -0.09644, 0.76437,
 14:57:38.599,e3:ca:2d:fd:e0:8c, 2015-01-01 01:20:11.825, 1.001, 0, 0.2, 0, 0, 0, 0.363, -78.651, 162.037, -26.753, -10.000, -8.780, 28.61, 0.1188, 0.62625, -0.09644, 0.76437,
 14:57:38.605,f6:90:cc:01:6d:25, 2015-01-01 01:20:09.540, 0.941, 0.019, 0.297, 0, -0.061, 0, 3.878, -72.4, -161.186, -29.560, -11.173, -4.400, 31.48, -0.15182, 0.57776, 0.12381, 0.79227,
 14:57:38.605,f6:90:cc:01:6d:25, 2015-01-01 01:20:09.540, 0.94, 0.02, 0.298, 0, -0.061, 0, 3.878, -72.405, -161.186, -29.560, -11.173, -4.400, 31.48, -0.15182, 0.57776, 0.12381, 0.79227,
 14:57:38.624,ed:40:fe:65:30:6c, 2015-01-01 01:20:22.765, 0.601, 0.084, 0.796, 0.305, -0.305, 0.244, 6.312, -36.865, -133.467, -18.740, -11.920, -3.940, 27.09, -0.39069, 0.26917, 0.17273, 0.86313,
 14:57:38.624,ed:40:fe:65:30:6c, 2015-01-01 01:20:22.765, 0.6, 0.085, 0.793, 0.549, -0.366, 0.122, 6.317, -36.876, -133.467, -18.740, -11.920, -3.940, 27.09, -0.39069, 0.26917, 0.17273, 0.86313,
 14:57:38.628,e3:ca:2d:fd:e0:8c, 2015-01-01 01:20:11.825, 1, 0.001, 0.201, -0.122, 0.061, 0, 0.363, -78.651, 162.043, -26.753, -10.000, -8.780, 28.61, 0.1188, 0.62625, -0.09644, 0.76437,
 14:57:38.628,e3:ca:2d:fd:e0:8c, 2015-01-01 01:20:11.825, 1, 0.001, 0.203, -0.183, 0.122, 0, 0.357, -78.651, 162.048, -26.753, -10.000, -8.780, 28.61, 0.1188, 0.62625, -0.09644, 0.76437,
 14:57:38.630,ed:35:33:d3:6c:f8, 2015-01-01 01:20:11.015, 0.561, 0.092, 0.818, -0.122, -0.183, 0.122, 6.427, -34.255, 148.513, -13.807, -12.840, -30.093, 31.56, -0.24243, -0.29785, 0.02802, -0.92282,
 14:57:38.630,ed:35:33:d3:6c:f8, 2015-01-01 01:20:11.015, 0.56, 0.091, 0.817, 0.061, -0.244, 0.122, 6.427, -34.261, 148.513, -13.807, -12.840, -30.093, 31.56, -0.24243, -0.29785, 0.02802, -0.92282,
 14:57:38.654,ed:40:fe:65:30:6c, 2015-01-01 01:20:22.765, 0.599, 0.088, 0.793, 0.793, -0.244, 0.122, 6.323, -36.881, -133.473, -18.740, -11.920, -3.940, 27.09, -0.39069, 0.26917, 0.17273, 0.86313,
 14:57:38.654,ed:40:fe:65:30:6c, 2015-01-01 01:20:22.765, 0.6, 0.087, 0.797, 0.488, -0.122, 0, 6.339, -36.887, -133.478, -18.740, -11.920, -3.940, 27.09, -0.39069, 0.26917, 0.17273, 0.86313,
 14:57:38.665,f6:90:cc:01:6d:25, 2015-01-01 01:20:09.540, 0.939, 0.02, 0.298, -0.061, 0, 0, 3.878, -72.405, -161.186, -29.560, -11.173, -4.400, 31.48, -0.15182, 0.57776, 0.12381, 0.79227,
 14:57:38.665,f6:90:cc:01:6d:25, 2015-01-01 01:20:09.540, 0.938, 0.02, 0.297, 0, 0, 0, 3.878, -72.405, -161.186, -29.560, -11.173, -4.400, 31.48, -0.15182, 0.57776, 0.12381, 0.79227,
 14:57:38.689,e3:ca:2d:fd:e0:8c, 2015-01-01 01:20:11.825, 0.998, 0, 0.202, -0.061, 0.122, 0, 0.352, -78.646, 162.059, -26.753, -10.000, -8.780, 28.7, 0.1188, 0.62625, -0.09644, 0.76437,
 14:57:38.689,e3:ca:2d:fd:e0:8c, 2015-01-01 01:20:11.825, 0.999, 0, 0.201, 0, 0.122, 0, 0.352, -78.646, 162.065, -26.753, -10.000, -8.780, 28.7, 0.1188, 0.62625, -0.09644, 0.76437,
 14:57:38.691,ed:35:33:d3:6c:f8, 2015-01-01 01:20:11.015, 0.559, 0.094, 0.813, 0.488, -0.122, 0.183, 6.432, -34.266, 148.513, -13.807, -12.840, -30.093, 31.56, -0.24243, -0.29785, 0.02802, -0.92282,
 14:57:38.691,ed:35:33:d3:6c:f8, 2015-01-01 01:20:11.015, 0.56, 0.094, 0.816, 0.427, 0, 0.061, 6.443, -34.266, 148.513, -13.807, -12.840, -30.093, 31.56, -0.24243, -0.29785, 0.02802, -0.92282,
 14:57:38.691,ed:35:33:d3:6c:f8, 2015-01-01 01:20:11.015, 0.56, 0.093, 0.819, 0.061, 0.061, 0, 6.449, -34.266, 148.508, -13.807, -12.840, -30.093, 31.56, -0.24243, -0.29785, 0.02802, -0.92282,
 14:57:38.691,ed:35:33:d3:6c:f8, 2015-01-01 01:20:11.015, 0.56, 0.093, 0.819, -0.183, 0.061, 0.061, 6.449, -34.266, 148.508, -13.807, -12.840, -30.093, 31.56, -0.24243, -0.29785, 0.02802, -0.92282,
 14:57:38.693,f6:90:cc:01:6d:25, 2015-01-01 01:20:09.540, 0.939, 0.019, 0.299, -0.061, 0, 0, 3.873, -72.405, -161.186, -29.560, -11.173, -4.400, 31.48, -0.15149, 0.57788, 0.12338, 0.79233,
 14:57:38.693,f6:90:cc:01:6d:25, 2015-01-01 01:20:09.540, 0.94, 0.019, 0.298, -0.183, 0, 0, 3.873, -72.405, -161.186, -29.560, -11.173, -4.400, 31.48, -0.15149, 0.57788, 0.12338, 0.79233,
 14:57:38.718,e3:ca:2d:fd:e0:8c, 2015-01-01 01:20:12.360, 1, 0, 0.202, -0.061, 0.061, 0, 0.352, -78.646, 162.07, -26.753, -10.000, -8.780, 28.7, 0.1188, 0.62625, -0.09644, 0.76437,
 14:57:38.718,e3:ca:2d:fd:e0:8c, 2015-01-01 01:20:12.360, 1.001, 0.001, 0.201, -0.061, 0, 0, 0.346, -78.646, 162.076, -26.753, -10.000, -8.780, 28.7, 0.1188, 0.62625, -0.09644, 0.76437,
 14:57:38.749,e3:ca:2d:fd:e0:8c, 2015-01-01 01:20:12.360, 1.002, 0, 0.201, -0.244, 0, 0, 0.341, -78.646, 162.081, -26.753, -10.000, -8.780, 28.7, 0.1188, 0.62625, -0.09644, 0.76437,
 14:57:38.749,e3:ca:2d:fd:e0:8c, 2015-01-01 01:20:12.360, 1.003, 0, 0.201, -0.183, 0, 0, 0.335, -78.646, 162.087, -26.753, -10.000, -8.780, 28.7, 0.1188, 0.62625, -0.09644, 0.76437,
 14:57:38.755,f6:90:cc:01:6d:25, 2015-01-01 01:20:09.540, 0.942, 0.019, 0.297, -0.244, 0, 0, 3.867, -72.405, -161.186, -29.560, -11.173, -4.400, 31.48, -0.15149, 0.57788, 0.12338, 0.79233,
 14:57:38.755,f6:90:cc:01:6d:25, 2015-01-01 01:20:09.540, 0.942, 0.02, 0.297, -0.122, -0.061, 0, 3.862, -72.405, -161.186, -29.560, -11.173, -4.400, 31.48, -0.15149, 0.57788, 0.12338, 0.79233,
 14:57:38.775,ed:40:fe:65:30:6c, 2015-01-01 01:20:22.765, 0.601, 0.085, 0.798, 0.122, 0, 0, 6.345, -36.887, -133.478, -18.740, -11.920, -3.940, 27.09, -0.39011, 0.26947, 0.17291, 0.86325,
 14:57:38.775,ed:40:fe:65:30:6c, 2015-01-01 01:20:22.765, 0.601, 0.085, 0.798, 0, 0.244, 0, 6.345, -36.887, -133.484, -18.740, -11.920, -3.940, 27.09, -0.39011, 0.26947, 0.17291, 0.86325,
 14:57:38.775,ed:40:fe:65:30:6c, 2015-01-01 01:20:22.765, 0.602, 0.086, 0.794, 0, 0.183, 0, 6.339, -36.881, -133.489, -18.740, -11.920, -3.940, 27.09, -0.39011, 0.26947, 0.17291, 0.86325,
 14:57:38.775,ed:40:fe:65:30:6c, 2015-01-01 01:20:22.765, 0.602, 0.087, 0.795, 0.061, 0.061, 0, 6.339, -36.881, -133.495, -18.740, -11.920, -3.940, 27.09, -0.39011, 0.26947, 0.17291, 0.86325,
 14:57:38.775,ed:40:fe:65:30:6c, 2015-01-01 01:20:22.765, 0.602, 0.085, 0.797, 0.183, 0.122, 0, 6.339, -36.876, -133.5, -18.740, -11.920, -3.940, 27.09, -0.39011, 0.26947, 0.17291, 0.86325,
 14:57:38.775,ed:40:fe:65:30:6c, 2015-01-01 01:20:22.765, 0.6, 0.082, 0.796, 0.061, 0.122, 0, 6.339, -36.876, -133.506, -18.740, -11.920, -3.940, 27.09, -0.39011, 0.26947, 0.17291, 0.86325,
 14:57:38.779,ed:35:33:d3:6c:f8, 2015-01-01 01:20:11.015, 0.561, 0.094, 0.817, -0.244, 0, 0.183, 6.443, -34.266, 148.508, -13.807, -12.840, -30.093, 31.56, -0.24243, -0.29785, 0.02802, -0.92282,
 14:57:38.779,ed:35:33:d3:6c:f8, 2015-01-01 01:20:11.015, 0.561, 0.094, 0.814, -0.183, 0.122, 0.122, 6.438, -34.266, 148.508, -13.807, -12.840, -30.093, 31.56, -0.24243, -0.29785, 0.02802, -0.92282,
 14:57:38.781,ed:35:33:d3:6c:f8, 2015-01-01 01:20:11.015, 0.561, 0.092, 0.817, 0, 0.427, 0, 6.432, -34.261, 148.508, -14.013, -12.760, -30.253, 31.56, -0.24243, -0.29785, 0.02802, -0.92282,
 14:57:38.781,ed:35:33:d3:6c:f8, 2015-01-01 01:20:11.015, 0.558, 0.09, 0.819, -0.061, 0.305, -0.061, 6.432, -34.255, 148.502, -14.013, -12.760, -30.253, 31.56, -0.24243, -0.29785, 0.02802, -0.92282,
 14:57:38.784,f6:90:cc:01:6d:25, 2015-01-01 01:20:09.900, 0.942, 0.02, 0.297, 0, -0.061, 0, 3.856, -72.405, -161.191, -29.560, -11.173, -4.400, 31.48, -0.15149, 0.57788, 0.12338, 0.79233,
 14:57:38.784,f6:90:cc:01:6d:25, 2015-01-01 01:20:09.900, 0.94, 0.019, 0.296, -0.061, -0.061, 0, 3.856, -72.405, -161.191, -29.560, -11.173, -4.400, 31.48, -0.15149, 0.57788, 0.12338, 0.79233,
 14:57:38.809,e3:ca:2d:fd:e0:8c, 2015-01-01 01:20:12.360, 1, 0, 0.201, -0.061, 0, 0, 0.335, -78.646, 162.092, -26.753, -10.000, -8.780, 28.7, 0.1188, 0.62625, -0.09644, 0.76437,
 14:57:38.809,e3:ca:2d:fd:e0:8c, 2015-01-01 01:20:12.360, 0.999, 0, 0.2, 0, 0.061, 0, 0.33, -78.64, 162.098, -26.753, -10.000, -8.780, 28.7, 0.1188, 0.62625, -0.09644, 0.76437,
 14:57:38.812,ed:35:33:d3:6c:f8, 2015-01-01 01:20:11.015, 0.56, 0.092, 0.816, -0.122, 0.244, -0.061, 6.432, -34.25, 148.502, -14.013, -12.760, -30.253, 31.56, -0.24243, -0.29785, 0.02802, -0.92282,
 14:57:38.812,ed:35:33:d3:6c:f8, 2015-01-01 01:20:11.015, 0.56, 0.098, 0.818, 0.061, 0.366, -0.183, 6.432, -34.244, 148.497, -14.013, -12.760, -30.253, 31.56, -0.24243, -0.29785, 0.02802, -0.92282,
 14:57:38.814,f6:90:cc:01:6d:25, 2015-01-01 01:20:09.900, 0.941, 0.02, 0.296, -0.305, 0.061, 0, 3.851, -72.411, -161.191, -29.560, -11.173, -4.400, 31.48, -0.15149, 0.57788, 0.12338, 0.79233,
 14:57:38.814,f6:90:cc:01:6d:25, 2015-01-01 01:20:09.900, 0.941, 0.021, 0.296, -0.427, 0, 0, 3.84, -72.405, -161.191, -29.560, -11.173, -4.400, 31.48, -0.15149, 0.57788, 0.12338, 0.79233,
 14:57:38.834,ed:40:fe:65:30:6c, 2015-01-01 01:20:23.120, 0.603, 0.086, 0.795, 0.122, 0.061, 0, 6.339, -36.876, -133.506, -18.740, -11.920, -3.940, 27.09, -0.39011, 0.26947, 0.17291, 0.86325,
 14:57:38.834,ed:40:fe:65:30:6c, 2015-01-01 01:20:23.120, 0.603, 0.091, 0.797, 0.183, 0, 0, 6.339, -36.87, -133.511, -18.740, -11.920, -3.940, 27.09, -0.39011, 0.26947, 0.17291, 0.86325,
 14:57:38.838,e3:ca:2d:fd:e0:8c, 2015-01-01 01:20:12.360, 1.001, 0, 0.199, 0, 0.122, 0, 0.33, -78.64, 162.103, -26.753, -10.000, -8.780, 28.7, 0.1188, 0.62625, -0.09644, 0.76437,
 14:57:38.838,e3:ca:2d:fd:e0:8c, 2015-01-01 01:20:12.360, 1.001, 0.003, 0.201, -0.366, 0.122, 0, 0.324, -78.635, 162.109, -26.753, -10.000, -8.780, 28.7, 0.1188, 0.62625, -0.09644, 0.76437,
 14:57:38.863,ed:40:fe:65:30:6c, 2015-01-01 01:20:23.120, 0.602, 0.088, 0.798, 0.305, 0.061, 0, 6.339, -36.87, -133.517, -18.740, -11.920, -3.940, 27.09, -0.39011, 0.26947, 0.17291, 0.86325,
 14:57:38.863,ed:40:fe:65:30:6c, 2015-01-01 01:20:23.120, 0.602, 0.083, 0.798, 0.061, 0.122, 0, 6.345, -36.87, -133.522, -18.740, -11.920, -3.940, 27.09, -0.39011, 0.26947, 0.17291, 0.86325,
 14:57:38.870,ed:35:33:d3:6c:f8, 2015-01-01 01:20:11.015, 0.562, 0.097, 0.819, 0.305, 0.305, -0.183, 6.438, -34.233, 148.491, -14.013, -12.760, -30.253, 31.56, -0.24243, -0.29785, 0.02802, -0.92282,
 14:57:38.870,ed:35:33:d3:6c:f8, 2015-01-01 01:20:11.015, 0.56, 0.091, 0.819, 0, 0.305, -0.061, 6.449, -34.228, 148.486, -14.013, -12.760, -30.253, 31.56, -0.24243, -0.29785, 0.02802, -0.92282,
 14:57:38.874,f6:90:cc:01:6d:25, 2015-01-01 01:20:09.900, 0.943, 0.02, 0.297, -0.244, -0.122, 0, 3.834, -72.411, -161.191, -29.560, -11.173, -4.400, 31.48, -0.15149, 0.57788, 0.12338, 0.79233,
 14:57:38.874,f6:90:cc:01:6d:25, 2015-01-01 01:20:09.900, 0.943, 0.018, 0.296, 0, -0.183, 0, 3.834, -72.411, -161.191, -29.560, -11.173, -4.400, 31.48, -0.15149, 0.57788, 0.12338, 0.79233,
 14:57:38.895,ed:40:fe:65:30:6c, 2015-01-01 01:20:23.120, 0.599, 0.082, 0.799, 0, 0.305, 0, 6.339, -36.865, -133.522, -18.740, -11.920, -3.940, 27.09, -0.39011, 0.26947, 0.17291, 0.86325,
 14:57:38.895,ed:40:fe:65:30:6c, 2015-01-01 01:20:23.120, 0.6, 0.085, 0.797, 0.183, 0.244, 0, 6.339, -36.859, -133.528, -18.740, -11.920, -3.940, 27.09, -0.39011, 0.26947, 0.17291, 0.86325,
 14:57:38.898,e3:ca:2d:fd:e0:8c, 2015-01-01 01:20:12.360, 1.003, 0.002, 0.199, -0.305, 0, 0, 0.319, -78.64, 162.114, -26.753, -10.000, -8.780, 28.7, 0.1188, 0.62625, -0.09644, 0.76437,
 14:57:38.898,e3:ca:2d:fd:e0:8c, 2015-01-01 01:20:12.360, 1.002, 0, 0.2, -0.122, -0.061, 0, 0.313, -78.64, 162.12, -26.753, -10.000, -8.780, 28.7, 0.1188, 0.62625, -0.09644, 0.76437,
 14:57:38.900,ed:35:33:d3:6c:f8, 2015-01-01 01:20:11.015, 0.558, 0.089, 0.82, -0.183, 0.244, -0.061, 6.449, -34.222, 148.48, -14.013, -12.760, -30.253, 31.56, -0.24313, -0.29739, 0.02805, -0.92279,
 14:57:38.900,ed:35:33:d3:6c:f8, 2015-01-01 01:20:11.015, 0.558, 0.094, 0.82, -0.122, 0.061, 0, 6.443, -34.217, 148.475, -14.013, -12.760, -30.253, 31.56, -0.24313, -0.29739, 0.02805, -0.92279,
 14:57:38.904,f6:90:cc:01:6d:25, 2015-01-01 01:20:09.900, 0.941, 0.017, 0.297, 0, -0.061, 0, 3.834, -72.416, -161.191, -29.560, -11.173, -4.400, 31.48, -0.15149, 0.57788, 0.12338, 0.79233,
 14:57:38.904,f6:90:cc:01:6d:25, 2015-01-01 01:20:09.900, 0.94, 0.019, 0.296, 0, -0.061, 0, 3.834, -72.416, -161.191, -29.560, -11.173, -4.400, 31.48, -0.15149, 0.57788, 0.12338, 0.79233,
 14:57:38.928,e3:ca:2d:fd:e0:8c, 2015-01-01 01:20:12.360, 1, 0, 0.2, -0.122, -0.122, 0, 0.313, -78.64, 162.125, -26.800, -10.133, -8.580, 28.7, 0.1188, 0.62625, -0.09644, 0.76437,
 14:57:38.928,e3:ca:2d:fd:e0:8c, 2015-01-01 01:20:12.360, 0.999, 0.001, 0.199, -0.122, -0.122, 0, 0.308, -78.646, 162.131, -26.800, -10.133, -8.580, 28.7, 0.1188, 0.62625, -0.09644, 0.76437,
 14:57:38.932,ed:35:33:d3:6c:f8, 2015-01-01 01:20:11.015, 0.559, 0.096, 0.818, 0, 0, 0.061, 6.443, -34.217, 148.475, -14.013, -12.760, -30.253, 31.56, -0.24313, -0.29739, 0.02805, -0.92279,
 14:57:38.932,ed:35:33:d3:6c:f8, 2015-01-01 01:20:11.015, 0.558, 0.095, 0.816, 0.061, -0.061, 0, 6.443, -34.217, 148.475, -14.013, -12.760, -30.253, 31.56, -0.24313, -0.29739, 0.02805, -0.92279,
 14:57:38.934,f6:90:cc:01:6d:25, 2015-01-01 01:20:09.900, 0.94, 0.019, 0.296, 0, -0.183, 0, 3.829, -72.422, -161.197, -29.560, -11.173, -4.400, 31.48, -0.15149, 0.57788, 0.12338, 0.79233,
 14:57:38.934,f6:90:cc:01:6d:25, 2015-01-01 01:20:09.900, 0.939, 0.019, 0.294, 0, -0.244, 0, 3.829, -72.427, -161.197, -29.560, -11.173, -4.400, 31.48, -0.15149, 0.57788, 0.12338, 0.79233,
 14:57:38.954,ed:40:fe:65:30:6c, 2015-01-01 01:20:23.120, 0.601, 0.088, 0.796, 0.244, 0.061, 0, 6.339, -36.859, -133.533, -18.740, -11.920, -3.940, 27.09, -0.39011, 0.26947, 0.17291, 0.86325,
 14:57:38.954,ed:40:fe:65:30:6c, 2015-01-01 01:20:23.120, 0.601, 0.087, 0.794, 0.244, -0.061, 0, 6.345, -36.859, -133.539, -18.740, -11.920, -3.940, 27.09, -0.39011, 0.26947, 0.17291, 0.86325,
 14:57:38.958,e3:ca:2d:fd:e0:8c, 2015-01-01 01:20:12.360, 0.999, 0, 0.199, -0.244, -0.244, 0, 0.302, -78.651, 162.136, -26.800, -10.133, -8.580, 28.7, 0.1188, 0.62625, -0.09644, 0.76437,
 14:57:38.958,e3:ca:2d:fd:e0:8c, 2015-01-01 01:20:12.360, 1, 0, 0.199, -0.183, -0.183, 0, 0.297, -78.657, 162.142, -26.800, -10.133, -8.580, 28.7, 0.1188, 0.62625, -0.09644, 0.76437,
 14:57:38.985,ed:40:fe:65:30:6c, 2015-01-01 01:20:23.120, 0.6, 0.085, 0.794, 0.183, -0.305, 0, 6.345, -36.865, -133.544, -18.740, -11.920, -3.940, 27.09, -0.39011, 0.26947, 0.17291, 0.86325,
 14:57:38.985,ed:40:fe:65:30:6c, 2015-01-01 01:20:23.120, 0.601, 0.083, 0.795, 0.122, -0.366, 0, 6.35, -36.87, -133.544, -18.740, -11.920, -3.940, 27.09, -0.39011, 0.26947, 0.17291, 0.86325,
 14:57:38.991,ed:35:33:d3:6c:f8, 2015-01-01 01:20:11.465, 0.558, 0.092, 0.815, 0.061, -0.183, 0, 6.449, -34.217, 148.469, -14.013, -12.760, -30.253, 31.56, -0.24313, -0.29739, 0.02805, -0.92279,
 14:57:38.991,ed:35:33:d3:6c:f8, 2015-01-01 01:20:11.465, 0.56, 0.091, 0.816, 0, -0.244, 0, 6.449, -34.222, 148.469, -14.013, -12.760, -30.253, 31.56, -0.24313, -0.29739, 0.02805, -0.92279,
 14:57:38.994,f6:90:cc:01:6d:25, 2015-01-01 01:20:09.900, 0.94, 0.019, 0.295, 0, -0.305, 0, 3.829, -72.433, -161.197, -29.560, -11.173, -4.400, 31.48, -0.15149, 0.57788, 0.12338, 0.79233,
 14:57:38.994,f6:90:cc:01:6d:25, 2015-01-01 01:20:09.900, 0.941, 0.018, 0.295, 0, -0.305, 0, 3.829, -72.438, -161.197, -29.560, -11.173, -4.400, 31.48, -0.15149, 0.57788, 0.12338, 0.79233,
 14:57:39.015,ed:40:fe:65:30:6c, 2015-01-01 01:20:23.120, 0.602, 0.085, 0.795, 0.183, -0.305, 0, 6.35, -36.876, -133.55, -18.767, -11.927, -4.313, 27.09, -0.39011, 0.26947, 0.17291, 0.86325,
 14:57:39.015,ed:40:fe:65:30:6c, 2015-01-01 01:20:23.120, 0.603, 0.086, 0.795, 0.244, -0.183, 0, 6.35, -36.881, -133.555, -18.767, -11.927, -4.313, 27.09, -0.39011, 0.26947, 0.17291, 0.86325,
 14:57:39.018,e3:ca:2d:fd:e0:8c, 2015-01-01 01:20:12.360, 1, 0, 0.2, -0.183, -0.122, 0, 0.297, -78.657, 162.147, -26.800, -10.133, -8.580, 28.7, 0.11838, 0.62637, -0.09631, 0.76437,
 14:57:39.018,e3:ca:2d:fd:e0:8c, 2015-01-01 01:20:12.360, 1.001, 0, 0.201, -0.183, -0.061, 0, 0.291, -78.662, 162.153, -26.800, -10.133, -8.580, 28.7, 0.11838, 0.62637, -0.09631, 0.76437,
 14:57:39.021,ed:35:33:d3:6c:f8, 2015-01-01 01:20:11.465, 0.559, 0.093, 0.816, -0.061, -0.122, 0.061, 6.449, -34.228, 148.464, -14.013, -12.760, -30.253, 31.56, -0.24313, -0.29739, 0.02805, -0.92279,
 14:57:39.021,ed:35:33:d3:6c:f8, 2015-01-01 01:20:11.465, 0.56, 0.095, 0.816, 0.061, 0, 0.183, 6.449, -34.228, 148.464, -14.013, -12.760, -30.253, 31.56, -0.24313, -0.29739, 0.02805, -0.92279,
 14:57:39.025,f6:90:cc:01:6d:25, 2015-01-01 01:20:09.900, 0.941, 0.018, 0.296, 0, -0.122, 0, 3.829, -72.444, -161.202, -29.600, -10.953, -4.740, 31.48, -0.15149, 0.57788, 0.12338, 0.79233,
 14:57:39.025,f6:90:cc:01:6d:25, 2015-01-01 01:20:09.900, 0.942, 0.017, 0.296, -0.061, -0.061, 0, 3.823, -72.444, -161.202, -29.600, -10.953, -4.740, 31.48, -0.15149, 0.57788, 0.12338, 0.79233,
 14:57:39.075,ed:40:fe:65:30:6c, 2015-01-01 01:20:23.120, 0.604, 0.089, 0.796, 0.122, -0.183, 0.305, 6.35, -36.887, -133.555, -18.767, -11.927, -4.313, 27.09, -0.39011, 0.26947, 0.17291, 0.86325,
 14:57:39.075,ed:40:fe:65:30:6c, 2015-01-01 01:20:23.120, 0.604, 0.085, 0.797, 0.305, 0, 0.244, 6.35, -36.887, -133.555, -18.767, -11.927, -4.313, 27.09, -0.39011, 0.26947, 0.17291, 0.86325,
 14:57:39.077,e3:ca:2d:fd:e0:8c, 2015-01-01 01:20:12.685, 1.001, 0, 0.201, -0.183, -0.061, 0, 0.286, -78.662, 162.158, -26.800, -10.133, -8.580, 28.7, 0.11838, 0.62637, -0.09631, 0.76437,
 14:57:39.077,e3:ca:2d:fd:e0:8c, 2015-01-01 01:20:12.685, 1.002, -0.001, 0.202, -0.183, 0, 0, 0.28, -78.662, 162.164, -26.800, -10.133, -8.580, 28.7, 0.11838, 0.62637, -0.09631, 0.76437,
 14:57:39.081,ed:35:33:d3:6c:f8, 2015-01-01 01:20:11.465, 0.561, 0.096, 0.817, 0.061, 0.061, 0, 6.449, -34.228, 148.464, -14.013, -12.760, -30.253, 31.56, -0.24313, -0.29739, 0.02805, -0.92279,
 14:57:39.081,ed:35:33:d3:6c:f8, 2015-01-01 01:20:11.465, 0.562, 0.093, 0.817, 0.122, 0.122, 0, 6.449, -34.228, 148.464, -14.013, -12.760, -30.253, 31.56, -0.24313, -0.29739, 0.02805, -0.92279,
 14:57:39.085,f6:90:cc:01:6d:25, 2015-01-01 01:20:09.900, 0.942, 0.018, 0.297, 0, 0, 0, 3.823, -72.444, -161.202, -29.600, -10.953, -4.740, 31.48, -0.15149, 0.57788, 0.12338, 0.79233,
 14:57:39.085,f6:90:cc:01:6d:25, 2015-01-01 01:20:09.900, 0.943, 0.02, 0.296, 0.061, -0.061, 0, 3.818, -72.449, -161.202, -29.600, -10.953, -4.740, 31.48, -0.15149, 0.57788, 0.12338, 0.79233,
 14:57:39.105,ed:40:fe:65:30:6c, 2015-01-01 01:20:23.120, 0.603, 0.084, 0.796, 0.061, 0.122, 0.061, 6.35, -36.887, -133.555, -18.767, -11.927, -4.313, 27.09, -0.38953, 0.26959, 0.17282, 0.86349,
 14:57:39.105,ed:40:fe:65:30:6c, 2015-01-01 01:20:23.120, 0.601, 0.087, 0.795, 0.244, 0.305, 0, 6.35, -36.887, -133.555, -18.767, -11.927, -4.313, 27.09, -0.38953, 0.26959, 0.17282, 0.86349,
 14:57:39.107,e3:ca:2d:fd:e0:8c, 2015-01-01 01:20:12.685, 1.002, 0, 0.201, 0, 0, 0, 0.275, -78.662, 162.169, -26.800, -10.133, -8.580, 28.7, 0.11838, 0.62637, -0.09631, 0.76437,
 14:57:39.107,e3:ca:2d:fd:e0:8c, 2015-01-01 01:20:12.685, 1.002, 0, 0.202, -0.122, 0, 0, 0.275, -78.662, 162.169, -26.800, -10.133, -8.580, 28.7, 0.11838, 0.62637, -0.09631, 0.76437,
 14:57:39.111,ed:35:33:d3:6c:f8, 2015-01-01 01:20:11.465, 0.56, 0.09, 0.818, -0.183, 0.244, 0, 6.454, -34.222, 148.458, -14.013, -12.760, -30.253, 31.56, -0.24313, -0.29739, 0.02805, -0.92279,
 14:57:39.111,ed:35:33:d3:6c:f8, 2015-01-01 01:20:11.465, 0.56, 0.094, 0.816, -0.061, 0.244, 0, 6.449, -34.217, 148.458, -14.013, -12.760, -30.253, 31.56, -0.24313, -0.29739, 0.02805, -0.92279,
 14:57:39.115,f6:90:cc:01:6d:25, 2015-01-01 01:20:09.900, 0.942, 0.019, 0.296, 0.061, -0.061, 0, 3.818, -72.449, -161.202, -29.600, -10.953, -4.740, 31.48, -0.15106, 0.57828, 0.12296, 0.79218,
 14:57:39.115,f6:90:cc:01:6d:25, 2015-01-01 01:20:09.900, 0.942, 0.02, 0.296, 0, 0, 0, 3.818, -72.449, -161.202, -29.600, -10.953, -4.740, 31.48, -0.15106, 0.57828, 0.12296, 0.79218,
 14:57:39.136,ed:40:fe:65:30:6c, 2015-01-01 01:20:23.120, 0.602, 0.087, 0.793, 0.366, 0.305, 0.061, 6.35, -36.881, -133.561, -18.767, -11.927, -4.313, 27.09, -0.38953, 0.26959, 0.17282, 0.86349,
 14:57:39.136,ed:40:fe:65:30:6c, 2015-01-01 01:20:23.120, 0.603, 0.086, 0.795, 0.183, 0.305, 0.305, 6.35, -36.876, -133.555, -18.767, -11.927, -4.313, 27.09, -0.38953, 0.26959, 0.17282, 0.86349,
 14:57:39.138,e3:ca:2d:fd:e0:8c, 2015-01-01 01:20:12.685, 1.001, 0.001, 0.201, 0, 0, 0, 0.269, -78.662, 162.175, -26.800, -10.133, -8.580, 28.7, 0.11838, 0.62637, -0.09631, 0.76437,
 14:57:39.138,e3:ca:2d:fd:e0:8c, 2015-01-01 01:20:12.685, 1, 0.001, 0.2, 0, 0.122, 0, 0.269, -78.657, 162.18, -26.800, -10.133, -8.580, 28.7, 0.11838, 0.62637, -0.09631, 0.76437,
 14:57:39.142,ed:35:33:d3:6c:f8, 2015-01-01 01:20:11.465, 0.56, 0.097, 0.814, 0.122, 0.427, 0, 6.449, -34.211, 148.458, -14.013, -12.760, -30.253, 31.56, -0.24313, -0.29739, 0.02805, -0.92279,
 14:57:39.142,ed:35:33:d3:6c:f8, 2015-01-01 01:20:11.465, 0.561, 0.094, 0.817, 0.183, 0.549, 0, 6.454, -34.206, 148.453, -14.013, -12.760, -30.253, 31.56, -0.24313, -0.29739, 0.02805, -0.92279,
 14:57:39.146,f6:90:cc:01:6d:25, 2015-01-01 01:20:09.900, 0.941, 0.02, 0.295, 0, 0.061, 0, 3.818, -72.449, -161.202, -29.600, -10.953, -4.740, 31.48, -0.15106, 0.57828, 0.12296, 0.79218,
 14:57:39.146,f6:90:cc:01:6d:25, 2015-01-01 01:20:09.900, 0.941, 0.018, 0.295, 0, 0.183, 0, 3.812, -72.449, -161.202, -29.600, -10.953, -4.740, 31.48, -0.15106, 0.57828, 0.12296, 0.79218,
 14:57:39.168,e3:ca:2d:fd:e0:8c, 2015-01-01 01:20:12.685, 1, 0, 0.2, 0, 0.122, 0, 0.269, -78.657, 162.186, -26.800, -10.133, -8.580, 28.7, 0.11838, 0.62637, -0.09631, 0.76437,
 14:57:39.168,e3:ca:2d:fd:e0:8c, 2015-01-01 01:20:12.685, 1.001, -0.001, 0.199, -0.122, 0.183, 0, 0.264, -78.651, 162.191, -26.800, -10.133, -8.580, 28.7, 0.11838, 0.62637, -0.09631, 0.76437,
 14:57:39.174,f6:90:cc:01:6d:25, 2015-01-01 01:20:10.315, 0.942, 0.017, 0.294, 0, 0.183, 0, 3.812, -72.444, -161.202, -29.600, -10.953, -4.740, 31.48, -0.15106, 0.57828, 0.12296, 0.79218,
 14:57:39.174,f6:90:cc:01:6d:25, 2015-01-01 01:20:10.315, 0.941, 0.02, 0.295, -0.122, 0.183, 0, 3.807, -72.444, -161.202, -29.600, -10.953, -4.740, 31.48, -0.15106, 0.57828, 0.12296, 0.79218,
 14:57:39.193,ed:40:fe:65:30:6c, 2015-01-01 01:20:23.540, 0.601, 0.083, 0.798, 0, 0.488, 0.183, 6.345, -36.87, -133.555, -18.767, -11.927, -4.313, 27.09, -0.38953, 0.26959, 0.17282, 0.86349,
 14:57:39.193,ed:40:fe:65:30:6c, 2015-01-01 01:20:23.540, 0.601, 0.083, 0.798, 0.061, 0.549, 0, 6.345, -36.859, -133.555, -18.767, -11.927, -4.313, 27.09, -0.38953, 0.26959, 0.17282, 0.86349,
 14:57:39.197,e3:ca:2d:fd:e0:8c, 2015-01-01 01:20:12.685, 1.001, 0.001, 0.199, -0.122, 0.244, 0, 0.258, -78.646, 162.197, -26.800, -10.133, -8.580, 28.7, 0.11838, 0.62637, -0.09631, 0.76437,
 14:57:39.197,e3:ca:2d:fd:e0:8c, 2015-01-01 01:20:12.685, 1, 0.001, 0.199, -0.183, 0.183, 0, 0.253, -78.646, 162.202, -26.800, -10.133, -8.580, 28.7, 0.11838, 0.62637, -0.09631, 0.76437,
 14:57:39.200,ed:35:33:d3:6c:f8, 2015-01-01 01:20:11.465, 0.559, 0.089, 0.819, 0, 0.549, 0, 6.454, -34.195, 148.453, -14.653, -12.953, -29.273, 31.56, -0.24313, -0.29739, 0.02805, -0.92279,
 14:57:39.200,ed:35:33:d3:6c:f8, 2015-01-01 01:20:11.465, 0.559, 0.089, 0.82, -0.183, 0.488, 0, 6.454, -34.184, 148.453, -14.653, -12.953, -29.273, 31.56, -0.24313, -0.29739, 0.02805, -0.92279,
 14:57:39.225,ed:40:fe:65:30:6c, 2015-01-01 01:20:23.540, 0.601, 0.085, 0.796, 0.244, 0.427, -0.061, 6.345, -36.848, -133.555, -18.767, -11.927, -4.313, 27.09, -0.38953, 0.26959, 0.17282, 0.86349,
 14:57:39.225,ed:40:fe:65:30:6c, 2015-01-01 01:20:23.540, 0.601, 0.086, 0.795, 0.305, 0.244, 0, 6.345, -36.843, -133.561, -18.767, -11.927, -4.313, 27.09, -0.38953, 0.26959, 0.17282, 0.86349,
 14:57:39.231,ed:35:33:d3:6c:f8, 2015-01-01 01:20:11.465, 0.558, 0.092, 0.819, -0.122, 0.366, 0, 6.449, -34.178, 148.453, -14.653, -12.953, -29.273, 31.56, -0.24313, -0.29739, 0.02805, -0.92279,
 14:57:39.231,ed:35:33:d3:6c:f8, 2015-01-01 01:20:11.465, 0.558, 0.095, 0.818, 0, 0.244, 0, 6.449, -34.173, 148.453, -14.653, -12.953, -29.273, 31.56, -0.24313, -0.29739, 0.02805, -0.92279,
 14:57:39.235,f6:90:cc:01:6d:25, 2015-01-01 01:20:10.315, 0.942, 0.019, 0.295, -0.122, 0.183, 0, 3.801, -72.438, -161.202, -29.600, -10.953, -4.740, 31.48, -0.15106, 0.57828, 0.12296, 0.79218,
 14:57:39.235,f6:90:cc:01:6d:25, 2015-01-01 01:20:10.315, 0.941, 0.018, 0.294, -0.061, 0.122, 0, 3.796, -72.438, -161.202, -29.600, -10.953, -4.740, 31.48, -0.15106, 0.57828, 0.12296, 0.79218,
 14:57:39.254,ed:40:fe:65:30:6c, 2015-01-01 01:20:23.540, 0.6, 0.088, 0.796, 0.305, 0.183, 0.122, 6.345, -36.843, -133.561, -18.767, -11.927, -4.313, 27.09, -0.38953, 0.26959, 0.17282, 0.86349,
 14:57:39.254,ed:40:fe:65:30:6c, 2015-01-01 01:20:23.540, 0.6, 0.088, 0.799, 0.061, 0.061, 0.122, 6.345, -36.837, -133.561, -18.767, -11.927, -4.313, 27.09, -0.38953, 0.26959, 0.17282, 0.86349,
 14:57:39.259,e3:ca:2d:fd:e0:8c, 2015-01-01 01:20:12.685, 1.001, 0, 0.199, -0.122, 0.122, 0, 0.253, -78.64, 162.202, -26.800, -10.133, -8.580, 28.7, 0.11838, 0.62637, -0.09631, 0.76437,
 14:57:39.259,e3:ca:2d:fd:e0:8c, 2015-01-01 01:20:12.685, 1.001, 0, 0.2, 0, 0.061, 0, 0.247, -78.64, 162.208, -26.800, -10.133, -8.580, 28.7, 0.11838, 0.62637, -0.09631, 0.76437,
 14:57:39.261,ed:35:33:d3:6c:f8, 2015-01-01 01:20:11.465, 0.557, 0.095, 0.819, 0.122, 0.244, 0, 6.449, -34.167, 148.447, -14.653, -12.953, -29.273, 31.56, -0.2435, -0.29688, 0.02795, -0.92288,
 14:57:39.261,ed:35:33:d3:6c:f8, 2015-01-01 01:20:11.465, 0.557, 0.095, 0.821, -0.061, 0.183, 0, 6.449, -34.162, 148.447, -14.653, -12.953, -29.273, 31.56, -0.2435, -0.29688, 0.02795, -0.92288,
 14:57:39.264,f6:90:cc:01:6d:25, 2015-01-01 01:20:10.315, 0.941, 0.018, 0.295, 0, 0.122, 0, 3.796, -72.438, -161.202, -29.600, -10.953, -4.740, 31.48, -0.15106, 0.57828, 0.12296, 0.79218,
 14:57:39.264,f6:90:cc:01:6d:25, 2015-01-01 01:20:10.315, 0.941, 0.019, 0.295, 0, 0.122, 0, 3.79, -72.438, -161.202, -29.600, -10.953, -4.740, 31.48, -0.15106, 0.57828, 0.12296, 0.79218,
 14:57:39.289,e3:ca:2d:fd:e0:8c, 2015-01-01 01:20:12.685, 1.001, 0, 0.2, 0.061, 0.122, 0, 0.247, -78.64, 162.213, -26.667, -9.753, -8.547, 28.7, 0.11838, 0.62637, -0.09631, 0.76437,
 14:57:39.289,e3:ca:2d:fd:e0:8c, 2015-01-01 01:20:12.685, 1.002, 0.001, 0.201, 0, 0.122, 0, 0.247, -78.64, 162.219, -26.667, -9.753, -8.547, 28.7, 0.11838, 0.62637, -0.09631, 0.76437,
 14:57:39.291,ed:35:33:d3:6c:f8, 2015-01-01 01:20:11.465, 0.557, 0.095, 0.822, -0.427, 0, 0, 6.449, -34.156, 148.447, -14.653, -12.953, -29.273, 31.56, -0.2435, -0.29688, 0.02795, -0.92288,
 14:57:39.291,ed:35:33:d3:6c:f8, 2015-01-01 01:20:11.465, 0.558, 0.094, 0.82, -0.549, -0.122, 0, 6.443, -34.156, 148.442, -14.653, -12.953, -29.273, 31.56, -0.2435, -0.29688, 0.02795, -0.92288,
 14:57:39.295,f6:90:cc:01:6d:25, 2015-01-01 01:20:10.315, 0.941, 0.02, 0.295, -0.061, 0.122, 0, 3.79, -72.433, -161.202, -29.600, -10.953, -4.740, 31.48, -0.15106, 0.57828, 0.12296, 0.79218,
 14:57:39.295,f6:90:cc:01:6d:25, 2015-01-01 01:20:10.315, 0.942, 0.02, 0.297, -0.183, 0.183, 0, 3.785, -72.433, -161.202, -29.600, -10.953, -4.740, 31.48, -0.15106, 0.57828, 0.12296, 0.79218,
 14:57:39.315,ed:40:fe:65:30:6c, 2015-01-01 01:20:23.540, 0.599, 0.088, 0.799, -0.244, 0.061, 0.122, 6.339, -36.837, -133.561, -18.767, -11.927, -4.313, 27.09, -0.38953, 0.26959, 0.17282, 0.86349,
 14:57:39.315,ed:40:fe:65:30:6c, 2015-01-01 01:20:23.540, 0.601, 0.087, 0.797, -0.427, -0.061, 0, 6.334, -36.837, -133.566, -18.767, -11.927, -4.313, 27.09, -0.38953, 0.26959, 0.17282, 0.86349,
 14:57:39.318,e3:ca:2d:fd:e0:8c, 2015-01-01 01:20:12.685, 1.002, 0.001, 0.201, -0.061, 0.061, 0, 0.242, -78.635, 162.224, -26.667, -9.753, -8.547, 28.7, 0.11838, 0.62637, -0.09631, 0.76437,
 14:57:39.318,e3:ca:2d:fd:e0:8c, 2015-01-01 01:20:12.685, 1, 0, 0.201, -0.122, 0.061, 0, 0.242, -78.635, 162.224, -26.667, -9.753, -8.547, 28.7, 0.11838, 0.62637, -0.09631, 0.76437,
 14:57:39.353,ed:35:33:d3:6c:f8, 2015-01-01 01:20:11.820, 0.556, 0.094, 0.818, -0.61, -0.305, 0, 6.432, -34.162, 148.442, -14.653, -12.953, -29.273, 31.56, -0.2435, -0.29688, 0.02795, -0.92288,
 14:57:39.353,ed:35:33:d3:6c:f8, 2015-01-01 01:20:11.820, 0.558, 0.095, 0.82, -0.61, -0.305, 0, 6.422, -34.167, 148.436, -14.653, -12.953, -29.273, 31.56, -0.2435, -0.29688, 0.02795, -0.92288,
 14:57:39.375,ed:40:fe:65:30:6c, 2015-01-01 01:20:23.540, 0.599, 0.084, 0.796, -0.427, -0.122, 0, 6.323, -36.843, -133.566, -18.767, -11.927, -4.313, 27.09, -0.38953, 0.26959, 0.17282, 0.86349,
 14:57:39.375,ed:40:fe:65:30:6c, 2015-01-01 01:20:23.540, 0.599, 0.087, 0.798, -0.427, -0.183, 0.244, 6.312, -36.843, -133.572, -18.767, -11.927, -4.313, 27.09, -0.38953, 0.26959, 0.17282, 0.86349,
 14:57:39.381,ed:35:33:d3:6c:f8, 2015-01-01 01:20:11.820, 0.558, 0.092, 0.821, -0.793, -0.366, 0, 6.411, -34.173, 148.436, -14.653, -12.953, -29.273, 31.56, -0.2435, -0.29688, 0.02795, -0.92288,
 14:57:39.381,ed:35:33:d3:6c:f8, 2015-01-01 01:20:11.820, 0.558, 0.089, 0.819, -0.793, -0.488, 0, 6.394, -34.178, 148.431, -14.653, -12.953, -29.273, 31.56, -0.2435, -0.29688, 0.02795, -0.92288,
 14:57:39.384,f6:90:cc:01:6d:25, 2015-01-01 01:20:10.315, 0.942, 0.02, 0.296, -0.183, 0.122, 0, 3.779, -72.433, -161.202, -29.600, -10.953, -4.740, 31.48, -0.15106, 0.57828, 0.12296, 0.79218,
 14:57:39.384,f6:90:cc:01:6d:25, 2015-01-01 01:20:10.315, 0.941, 0.017, 0.296, -0.061, 0.061, 0, 3.774, -72.433, -161.202, -29.600, -10.953, -4.740, 31.48, -0.15106, 0.57828, 0.12296, 0.79218,
 14:57:39.405,ed:40:fe:65:30:6c, 2015-01-01 01:20:23.540, 0.6, 0.085, 0.8, -0.732, -0.183, 0.244, 6.295, -36.848, -133.566, -19.013, -11.753, -4.293, 27.09, -0.38953, 0.26959, 0.17282, 0.86349,
 14:57:39.405,ed:40:fe:65:30:6c, 2015-01-01 01:20:23.540, 0.6, 0.081, 0.798, -0.671, 0, 0.122, 6.279, -36.848, -133.566, -19.013, -11.753, -4.293, 27.09, -0.38953, 0.26959, 0.17282, 0.86349,
 14:57:39.407,e3:ca:2d:fd:e0:8c, 2015-01-01 01:20:12.685, 1, 0, 0.201, -0.061, 0.061, 0, 0.242, -78.635, 162.23, -26.667, -9.753, -8.547, 28.7, 0.11813, 0.62625, -0.09622, 0.7645,
 14:57:39.407,e3:ca:2d:fd:e0:8c, 2015-01-01 01:20:12.685, 1, 0, 0.202, 0, 0.061, 0, 0.236, -78.635, 162.235, -26.667, -9.753, -8.547, 28.7, 0.11813, 0.62625, -0.09622, 0.7645,
 14:57:39.411,ed:35:33:d3:6c:f8, 2015-01-01 01:20:11.820, 0.559, 0.089, 0.817, -0.549, -0.671, 0, 6.383, -34.189, 148.431, -14.653, -12.953, -29.273, 31.56, -0.2435, -0.29688, 0.02795, -0.92288,
 14:57:39.411,ed:35:33:d3:6c:f8, 2015-01-01 01:20:11.820, 0.56, 0.091, 0.813, 0, -0.671, 0.366, 6.378, -34.2, 148.425, -14.653, -12.953, -29.273, 31.56, -0.2435, -0.29688, 0.02795, -0.92288,
 14:57:39.415,f6:90:cc:01:6d:25, 2015-01-01 01:20:10.315, 0.94, 0.018, 0.297, 0, 0.061, 0, 3.774, -72.427, -161.202, -29.573, -10.787, -5.287, 31.48, -0.15106, 0.57828, 0.12296, 0.79218,
 14:57:39.415,f6:90:cc:01:6d:25, 2015-01-01 01:20:10.315, 0.94, 0.019, 0.298, 0, 0.061, 0, 3.774, -72.427, -161.202, -29.573, -10.787, -5.287, 31.48, -0.15106, 0.57828, 0.12296, 0.79218,
 14:57:39.415,f6:90:cc:01:6d:25, 2015-01-01 01:20:10.315, 0.941, 0.019, 0.298, -0.061, 0, 0, 3.768, -72.427, -161.202, -29.573, -10.787, -5.287, 31.48, -0.15106, 0.57828, 0.12296, 0.79218,
 14:57:39.415,f6:90:cc:01:6d:25, 2015-01-01 01:20:10.315, 0.94, 0.017, 0.296, 0, 0, 0, 3.768, -72.427, -161.202, -29.573, -10.787, -5.287, 31.48, -0.15106, 0.57828, 0.12296, 0.79218,
 14:57:39.435,ed:40:fe:65:30:6c, 2015-01-01 01:20:23.540, 0.601, 0.08, 0.795, -0.305, 0, 0.061, 6.268, -36.848, -133.566, -19.013, -11.753, -4.293, 27.09, -0.38953, 0.26959, 0.17282, 0.86349,
 14:57:39.435,ed:40:fe:65:30:6c, 2015-01-01 01:20:23.540, 0.601, 0.083, 0.794, 0.061, 0.061, 0.244, 6.262, -36.848, -133.566, -19.013, -11.753, -4.293, 27.09, -0.38953, 0.26959, 0.17282, 0.86349,
 14:57:39.438,e3:ca:2d:fd:e0:8c, 2015-01-01 01:20:12.685, 1, 0, 0.202, 0, 0.061, 0, 0.236, -78.635, 162.241, -26.667, -9.753, -8.547, 28.7, 0.11813, 0.62625, -0.09622, 0.7645,
 14:57:39.438,e3:ca:2d:fd:e0:8c, 2015-01-01 01:20:12.685, 1, 0, 0.202, 0, 0.061, 0, 0.236, -78.635, 162.241, -26.667, -9.753, -8.547, 28.7, 0.11813, 0.62625, -0.09622, 0.7645,
 14:57:39.465,ed:40:fe:65:30:6c, 2015-01-01 01:20:23.540, 0.601, 0.084, 0.794, 0.549, 0.061, 0.305, 6.262, -36.848, -133.561, -19.013, -11.753, -4.293, 27.09, -0.38928, 0.26959, 0.17203, 0.86377,
 14:57:39.465,ed:40:fe:65:30:6c, 2015-01-01 01:20:23.540, 0.601, 0.084, 0.796, 0.854, 0.122, 0.244, 6.268, -36.848, -133.555, -19.013, -11.753, -4.293, 27.09, -0.38928, 0.26959, 0.17203, 0.86377,
 14:57:39.467,e3:ca:2d:fd:e0:8c, 2015-01-01 01:20:12.685, 1, 0, 0.201, 0.061, 0.061, 0, 0.231, -78.629, 162.246, -26.667, -9.753, -8.547, 28.7, 0.11813, 0.62625, -0.09622, 0.7645,
 14:57:39.467,e3:ca:2d:fd:e0:8c, 2015-01-01 01:20:12.685, 1, 0, 0.201, 0.183, 0.122, 0, 0.231, -78.629, 162.252, -26.667, -9.753, -8.547, 28.7, 0.11813, 0.62625, -0.09622, 0.7645,
 14:57:39.470,ed:35:33:d3:6c:f8, 2015-01-01 01:20:11.820, 0.56, 0.092, 0.814, 0.549, -0.427, 0.488, 6.372, -34.211, 148.431, -14.653, -12.953, -29.273, 31.56, -0.2435, -0.29688, 0.02795, -0.92288,
 14:57:39.470,ed:35:33:d3:6c:f8, 2015-01-01 01:20:11.820, 0.56, 0.091, 0.816, 0.793, -0.244, 0.488, 6.383, -34.222, 148.442, -14.653, -12.953, -29.273, 31.56, -0.2435, -0.29688, 0.02795, -0.92288,
 14:57:39.474,f6:90:cc:01:6d:25, 2015-01-01 01:20:10.315, 0.941, 0.018, 0.296, 0.061, 0.061, 0, 3.763, -72.427, -161.202, -29.573, -10.787, -5.287, 31.48, -0.15106, 0.57828, 0.12296, 0.79218,
 14:57:39.474,f6:90:cc:01:6d:25, 2015-01-01 01:20:10.315, 0.94, 0.018, 0.296, 0.244, 0.183, 0, 3.768, -72.427, -161.202, -29.573, -10.787, -5.287, 31.48, -0.15106, 0.57828, 0.12296, 0.79218,
 14:57:39.498,e3:ca:2d:fd:e0:8c, 2015-01-01 01:20:13.105, 1, 0, 0.201, 0.122, 0.122, 0, 0.231, -78.629, 162.257, -26.667, -9.753, -8.547, 28.7, 0.11813, 0.62625, -0.09622, 0.7645,
 14:57:39.498,e3:ca:2d:fd:e0:8c, 2015-01-01 01:20:13.105, 1.001, 0, 0.201, 0.122, 0.122, 0, 0.231, -78.624, 162.257, -26.667, -9.753, -8.547, 28.7, 0.11813, 0.62625, -0.09622, 0.7645,
 14:57:39.501,ed:35:33:d3:6c:f8, 2015-01-01 01:20:11.820, 0.562, 0.09, 0.816, 0.732, -0.061, 0.366, 6.389, -34.222, 148.447, -14.653, -12.953, -29.273, 31.56, -0.2435, -0.29688, 0.02795, -0.92288,
 14:57:39.501,ed:35:33:d3:6c:f8, 2015-01-01 01:20:11.820, 0.562, 0.09, 0.818, 0.366, -0.122, 0.244, 6.4, -34.228, 148.458, -14.653, -12.953, -29.273, 31.56, -0.2435, -0.29688, 0.02795, -0.92288,
 14:57:39.504,f6:90:cc:01:6d:25, 2015-01-01 01:20:10.315, 0.941, 0.018, 0.296, 0.244, 0.244, 0, 3.768, -72.422, -161.202, -29.573, -10.787, -5.287, 31.48, -0.15082, 0.57822, 0.12259, 0.79233,
 14:57:39.504,f6:90:cc:01:6d:25, 2015-01-01 01:20:10.315, 0.942, 0.018, 0.296, 0.244, 0.244, 0, 3.768, -72.416, -161.197, -29.573, -10.787, -5.287, 31.48, -0.15082, 0.57822, 0.12259, 0.79233,
 14:57:39.525,ed:40:fe:65:30:6c, 2015-01-01 01:20:23.540, 0.603, 0.083, 0.796, 0.732, 0.183, 0.122, 6.279, -36.843, -133.555, -19.013, -11.753, -4.293, 27.09, -0.38928, 0.26959, 0.17203, 0.86377,
 14:57:39.525,ed:40:fe:65:30:6c, 2015-01-01 01:20:23.540, 0.603, 0.083, 0.797, 0.488, 0.244, 0.061, 6.284, -36.837, -133.555, -19.013, -11.753, -4.293, 27.09, -0.38928, 0.26959, 0.17203, 0.86377,
 14:57:39.527,e3:ca:2d:fd:e0:8c, 2015-01-01 01:20:13.105, 1.002, 0.001, 0.2, 0.122, 0.183, 0, 0.231, -78.624, 162.263, -26.667, -9.753, -8.547, 28.7, 0.11813, 0.62625, -0.09622, 0.7645,
 14:57:39.527,e3:ca:2d:fd:e0:8c, 2015-01-01 01:20:13.105, 1.003, 0.001, 0.2, 0.061, 0.244, 0, 0.231, -78.618, 162.268, -26.667, -9.753, -8.547, 28.7, 0.11813, 0.62625, -0.09622, 0.7645,
 14:57:39.531,ed:35:33:d3:6c:f8, 2015-01-01 01:20:11.820, 0.562, 0.092, 0.818, 0, -0.183, 0.122, 6.4, -34.228, 148.458, -14.307, -12.580, -30.120, 31.56, -0.2435, -0.29688, 0.02795, -0.92288,
 14:57:39.531,ed:35:33:d3:6c:f8, 2015-01-01 01:20:11.820, 0.562, 0.094, 0.817, -0.183, -0.183, 0.061, 6.4, -34.233, 148.458, -14.307, -12.580, -30.120, 31.56, -0.2435, -0.29688, 0.02795, -0.92288,
 14:57:39.535,f6:90:cc:01:6d:25, 2015-01-01 01:20:10.315, 0.943, 0.019, 0.295, 0.061, 0.244, 0, 3.768, -72.411, -161.197, -29.573, -10.787, -5.287, 31.48, -0.15082, 0.57822, 0.12259, 0.79233,
 14:57:39.535,f6:90:cc:01:6d:25, 2015-01-01 01:20:10.315, 0.943, 0.019, 0.296, 0, 0.244, 0, 3.763, -72.411, -161.197, -29.573, -10.787, -5.287, 31.48, -0.15082, 0.57822, 0.12259, 0.79233,
 14:57:39.554,ed:40:fe:65:30:6c, 2015-01-01 01:20:23.895, 0.603, 0.084, 0.796, 0.061, 0.305, 0, 6.284, -36.832, -133.561, -19.013, -11.753, -4.293, 27.09, -0.38928, 0.26959, 0.17203, 0.86377,
 14:57:39.554,ed:40:fe:65:30:6c, 2015-01-01 01:20:23.895, 0.604, 0.088, 0.797, 0.061, 0.305, 0, 6.284, -36.826, -133.561, -19.013, -11.753, -4.293, 27.09, -0.38928, 0.26959, 0.17203, 0.86377,
 14:57:39.558,e3:ca:2d:fd:e0:8c, 2015-01-01 01:20:13.105, 1.003, 0, 0.2, 0, 0.183, 0, 0.231, -78.613, 162.268, -26.667, -9.753, -8.547, 28.7, 0.11813, 0.62625, -0.09622, 0.7645,
 14:57:39.558,e3:ca:2d:fd:e0:8c, 2015-01-01 01:20:13.105, 1, 0, 0.2, -0.061, 0.122, 0, 0.231, -78.613, 162.274, -26.667, -9.753, -8.547, 28.7, 0.11813, 0.62625, -0.09622, 0.7645,
 14:57:39.591,ed:35:33:d3:6c:f8, 2015-01-01 01:20:11.820, 0.562, 0.095, 0.819, -0.183, -0.061, 0.061, 6.394, -34.239, 148.458, -14.307, -12.580, -30.120, 31.56, -0.2435, -0.29688, 0.02795, -0.92288,
 14:57:39.591,ed:35:33:d3:6c:f8, 2015-01-01 01:20:11.820, 0.56, 0.092, 0.816, -0.305, -0.061, 0.183, 6.389, -34.239, 148.458, -14.307, -12.580, -30.120, 31.56, -0.2435, -0.29688, 0.02795, -0.92288,
 14:57:39.596,f6:90:cc:01:6d:25, 2015-01-01 01:20:10.700, 0.944, 0.019, 0.295, -0.061, 0.244, 0, 3.757, -72.405, -161.197, -29.573, -10.787, -5.287, 31.48, -0.15082, 0.57822, 0.12259, 0.79233,
 14:57:39.596,f6:90:cc:01:6d:25, 2015-01-01 01:20:10.700, 0.94, 0.017, 0.294, 0.061, 0.244, 0, 3.757, -72.4, -161.197, -29.573, -10.787, -5.287, 31.48, -0.15082, 0.57822, 0.12259, 0.79233,
 14:57:39.619,e3:ca:2d:fd:e0:8c, 2015-01-01 01:20:13.105, 1, 0, 0.199, 0.122, 0.183, 0, 0.231, -78.607, 162.279, -26.667, -9.753, -8.547, 28.7, 0.11813, 0.62625, -0.09622, 0.7645,
 14:57:39.619,e3:ca:2d:fd:e0:8c, 2015-01-01 01:20:13.105, 1.001, 0, 0.2, 0.061, 0.183, 0, 0.231, -78.607, 162.279, -26.667, -9.753, -8.547, 28.7, 0.11813, 0.62625, -0.09622, 0.7645,
 14:57:39.621,ed:35:33:d3:6c:f8, 2015-01-01 01:20:11.820, 0.562, 0.091, 0.816, -0.549, 0, 0.061, 6.383, -34.239, 148.458, -14.307, -12.580, -30.120, 31.56, -0.2435, -0.29733, 0.02856, -0.9227,
 14:57:39.621,ed:35:33:d3:6c:f8, 2015-01-01 01:20:11.820, 0.562, 0.093, 0.817, -0.427, 0.122, -0.305, 6.372, -34.239, 148.458, -14.307, -12.580, -30.120, 31.56, -0.2435, -0.29733, 0.02856, -0.9227,
 14:57:39.624,f6:90:cc:01:6d:25, 2015-01-01 01:20:10.700, 0.941, 0.018, 0.294, 0.061, 0.427, 0, 3.752, -72.394, -161.197, -29.573, -10.787, -5.287, 31.48, -0.15082, 0.57822, 0.12259, 0.79233,
 14:57:39.624,f6:90:cc:01:6d:25, 2015-01-01 01:20:10.700, 0.941, 0.02, 0.295, -0.183, 0.427, 0, 3.746, -72.389, -161.191, -29.573, -10.787, -5.287, 31.48, -0.15082, 0.57822, 0.12259, 0.79233,
 14:57:39.645,ed:40:fe:65:30:6c, 2015-01-01 01:20:23.895, 0.604, 0.085, 0.799, 0, 0.427, 0, 6.279, -36.821, -133.561, -19.013, -11.753, -4.293, 27.09, -0.38928, 0.26959, 0.17203, 0.86377,
 14:57:39.645,ed:40:fe:65:30:6c, 2015-01-01 01:20:23.895, 0.601, 0.083, 0.793, -0.244, 0.244, 0.244, 6.273, -36.815, -133.561, -19.013, -11.753, -4.293, 27.09, -0.38928, 0.26959, 0.17203, 0.86377,
 14:57:39.645,ed:40:fe:65:30:6c, 2015-01-01 01:20:23.895, 0.603, 0.086, 0.797, -0.366, 0.366, 0.305, 6.257, -36.815, -133.555, -19.013, -11.753, -4.293, 27.09, -0.38928, 0.26959, 0.17203, 0.86377,
 14:57:39.645,ed:40:fe:65:30:6c, 2015-01-01 01:20:23.895, 0.603, 0.088, 0.797, -0.366, 0.244, -0.122, 6.246, -36.81, -133.555, -19.013, -11.753, -4.293, 27.09, -0.38928, 0.26959, 0.17203, 0.86377,
 14:57:39.651,ed:35:33:d3:6c:f8, 2015-01-01 01:20:11.820, 0.561, 0.094, 0.819, -0.122, 0.183, -0.183, 6.372, -34.239, 148.447, -14.307, -12.580, -30.120, 31.56, -0.2435, -0.29733, 0.02856, -0.9227,
 14:57:39.651,ed:35:33:d3:6c:f8, 2015-01-01 01:20:11.820, 0.559, 0.089, 0.82, -0.183, 0, 0, 6.372, -34.233, 148.442, -14.307, -12.580, -30.120, 31.56, -0.2435, -0.29733, 0.02856, -0.9227,
 14:57:39.655,f6:90:cc:01:6d:25, 2015-01-01 01:20:10.700, 0.942, 0.022, 0.296, -0.305, 0.305, 0, 3.741, -72.383, -161.191, -29.573, -10.787, -5.287, 31.48, -0.15082, 0.57822, 0.12259, 0.79233,
 14:57:39.655,f6:90:cc:01:6d:25, 2015-01-01 01:20:10.700, 0.942, 0.021, 0.296, -0.183, 0.061, 0, 3.735, -72.383, -161.191, -29.573, -10.787, -5.287, 31.48, -0.15082, 0.57822, 0.12259, 0.79233,
 14:57:39.674,ed:40:fe:65:30:6c, 2015-01-01 01:20:23.895, 0.601, 0.084, 0.799, -0.061, 0.366, -0.122, 6.246, -36.804, -133.561, -19.013, -11.753, -4.293, 27.09, -0.38928, 0.26959, 0.17203, 0.86377,
 14:57:39.674,ed:40:fe:65:30:6c, 2015-01-01 01:20:23.895, 0.599, 0.082, 0.8, -0.122, 0.488, 0, 6.24, -36.793, -133.566, -19.013, -11.753, -4.293, 27.09, -0.38928, 0.26959, 0.17203, 0.86377,
 14:57:39.678,e3:ca:2d:fd:e0:8c, 2015-01-01 01:20:13.105, 1.002, 0.002, 0.2, -0.183, 0.183, 0, 0.231, -78.607, 162.285, -26.667, -9.753, -8.547, 28.7, 0.11813, 0.62625, -0.09622, 0.7645,
 14:57:39.678,e3:ca:2d:fd:e0:8c, 2015-01-01 01:20:13.105, 1.002, 0.003, 0.2, -0.122, 0.244, 0, 0.225, -78.602, 162.29, -26.667, -9.753, -8.547, 28.7, 0.11813, 0.62625, -0.09622, 0.7645,
 14:57:39.709,e3:ca:2d:fd:e0:8c, 2015-01-01 01:20:13.105, 1.001, 0, 0.203, -0.183, 0.183, 0, 0.22, -78.596, 162.29, -26.667, -9.753, -8.547, 28.7, 0.11813, 0.62625, -0.09622, 0.7645,
 14:57:39.709,e3:ca:2d:fd:e0:8c, 2015-01-01 01:20:13.105, 1, 0.001, 0.201, -0.061, 0.183, 0, 0.22, -78.596, 162.296, -26.667, -9.753, -8.547, 28.7, 0.11813, 0.62625, -0.09622, 0.7645,
 14:57:39.713,f6:90:cc:01:6d:25, 2015-01-01 01:20:10.700, 0.94, 0.018, 0.297, -0.122, 0.183, 0, 3.73, -72.383, -161.191, -29.573, -10.787, -5.287, 31.48, -0.15082, 0.57822, 0.12259, 0.79233,
 14:57:39.713,f6:90:cc:01:6d:25, 2015-01-01 01:20:10.700, 0.939, 0.018, 0.297, -0.183, 0.244, 0, 3.73, -72.378, -161.191, -29.573, -10.787, -5.287, 31.48, -0.15082, 0.57822, 0.12259, 0.79233,
 14:57:39.736,ed:40:fe:65:30:6c, 2015-01-01 01:20:23.895, 0.599, 0.082, 0.799, -0.183, 0.427, -0.061, 6.235, -36.788, -133.566, -19.013, -11.753, -4.293, 27.09, -0.38928, 0.26959, 0.17203, 0.86377,
 14:57:39.736,ed:40:fe:65:30:6c, 2015-01-01 01:20:23.895, 0.599, 0.081, 0.796, 0.061, 0.305, -0.122, 6.235, -36.782, -133.572, -19.013, -11.753, -4.293, 27.09, -0.38928, 0.26959, 0.17203, 0.86377,
 14:57:39.740,ed:35:33:d3:6c:f8, 2015-01-01 01:20:12.180, 0.559, 0.088, 0.818, -0.183, -0.061, -0.061, 6.367, -34.239, 148.442, -14.307, -12.580, -30.120, 31.56, -0.2435, -0.29733, 0.02856, -0.9227,
 14:57:39.740,ed:35:33:d3:6c:f8, 2015-01-01 01:20:12.180, 0.559, 0.088, 0.816, -0.122, -0.122, -0.122, 6.367, -34.239, 148.436, -14.307, -12.580, -30.120, 31.56, -0.2435, -0.29733, 0.02856, -0.9227,
 14:57:39.740,ed:35:33:d3:6c:f8, 2015-01-01 01:20:12.180, 0.559, 0.093, 0.815, 0.061, -0.061, 0, 6.367, -34.239, 148.436, -14.307, -12.580, -30.120, 31.56, -0.2435, -0.29733, 0.02856, -0.9227,
 14:57:39.740,ed:35:33:d3:6c:f8, 2015-01-01 01:20:12.180, 0.558, 0.093, 0.816, 0.244, -0.061, 0.183, 6.367, -34.244, 148.436, -14.307, -12.580, -30.120, 31.56, -0.2435, -0.29733, 0.02856, -0.9227,
 14:57:39.746,f6:90:cc:01:6d:25, 2015-01-01 01:20:10.700, 0.939, 0.017, 0.297, 0, 0.122, 0, 3.724, -72.378, -161.191, -29.573, -10.787, -5.287, 31.48, -0.15082, 0.57822, 0.12259, 0.79233,
 14:57:39.746,f6:90:cc:01:6d:25, 2015-01-01 01:20:10.700, 0.939, 0.017, 0.298, 0.183, 0.122, 0, 3.724, -72.378, -161.191, -29.573, -10.787, -5.287, 31.48, -0.15082, 0.57822, 0.12259, 0.79233,
 14:57:39.765,ed:40:fe:65:30:6c, 2015-01-01 01:20:23.895, 0.599, 0.083, 0.796, 0.427, 0.305, -0.122, 6.24, -36.777, -133.577, -19.013, -11.753, -4.293, 27.09, -0.38928, 0.26959, 0.17203, 0.86377,
 14:57:39.765,ed:40:fe:65:30:6c, 2015-01-01 01:20:23.895, 0.598, 0.084, 0.796, 0.488, 0.305, 0.061, 6.246, -36.771, -133.577, -19.013, -11.753, -4.293, 27.09, -0.38928, 0.26959, 0.17203, 0.86377,
 14:57:39.774,f6:90:cc:01:6d:25, 2015-01-01 01:20:10.700, 0.94, 0.017, 0.298, 0.244, 0.122, 0, 3.724, -72.372, -161.191, -29.313, -10.947, -4.800, 31.48, -0.15082, 0.57822, 0.12259, 0.79233,
 14:57:39.774,f6:90:cc:01:6d:25, 2015-01-01 01:20:10.700, 0.941, 0.019, 0.298, 0.305, 0.183, 0, 3.724, -72.372, -161.191, -29.313, -10.947, -4.800, 31.48, -0.15082, 0.57822, 0.12259, 0.79233,
 14:57:39.798,e3:ca:2d:fd:e0:8c, 2015-01-01 01:20:13.105, 0.999, 0.001, 0.201, -0.122, 0.183, 0, 0.22, -78.591, 162.301, -26.547, -10.133, -9.140, 28.7, 0.11813, 0.62625, -0.09622, 0.7645,
 14:57:39.798,e3:ca:2d:fd:e0:8c, 2015-01-01 01:20:13.105, 0.999, 0, 0.201, -0.244, 0.061, 0, 0.214, -78.591, 162.301, -26.547, -10.133, -9.140, 28.7, 0.11813, 0.62625, -0.09622, 0.7645,
 14:57:39.800,ed:35:33:d3:6c:f8, 2015-01-01 01:20:12.180, 0.559, 0.092, 0.815, 0.427, -0.061, 0.305, 6.372, -34.244, 148.436, -14.307, -12.580, -30.120, 31.56, -0.2435, -0.29733, 0.02856, -0.9227,
 14:57:39.800,ed:35:33:d3:6c:f8, 2015-01-01 01:20:12.180, 0.56, 0.09, 0.816, 0.549, 0, 0.183, 6.378, -34.244, 148.442, -14.307, -12.580, -30.120, 31.56, -0.2435, -0.29733, 0.02856, -0.9227,
 14:57:39.828,e3:ca:2d:fd:e0:8c, 2015-01-01 01:20:13.105, 0.999, 0, 0.202, 0, 0.061, 0, 0.214, -78.591, 162.307, -26.547, -10.133, -9.140, 28.7, 0.11813, 0.62625, -0.09622, 0.7645,
 14:57:39.828,e3:ca:2d:fd:e0:8c, 2015-01-01 01:20:13.105, 1, -0.001, 0.203, 0.244, 0, 0, 0.214, -78.591, 162.307, -26.547, -10.133, -9.140, 28.7, 0.11813, 0.62625, -0.09622, 0.7645,
 14:57:39.831,ed:35:33:d3:6c:f8, 2015-01-01 01:20:12.180, 0.56, 0.092, 0.817, 0.427, 0.122, 0.061, 6.383, -34.244, 148.442, -14.307, -12.580, -30.120, 31.56, -0.2435, -0.29733, 0.02856, -0.9227,
 14:57:39.831,ed:35:33:d3:6c:f8, 2015-01-01 01:20:12.180, 0.56, 0.093, 0.817, 0.366, 0.183, 0, 6.394, -34.244, 148.442, -14.307, -12.580, -30.120, 31.56, -0.2435, -0.29733, 0.02856, -0.9227,
 14:57:39.835,f6:90:cc:01:6d:25, 2015-01-01 01:20:10.700, 0.942, 0.02, 0.298, 0.183, 0.305, 0, 3.73, -72.367, -161.191, -29.313, -10.947, -4.800, 31.48, -0.15082, 0.57822, 0.12259, 0.79233,
 14:57:39.835,f6:90:cc:01:6d:25, 2015-01-01 01:20:10.700, 0.941, 0.02, 0.299, 0, 0.305, 0, 3.724, -72.361, -161.186, -29.313, -10.947, -4.800, 31.48, -0.15082, 0.57822, 0.12259, 0.79233,
 14:57:39.855,ed:40:fe:65:30:6c, 2015-01-01 01:20:23.895, 0.598, 0.084, 0.796, 0.427, 0.244, 0.244, 6.246, -36.766, -133.577, -18.807, -11.247, -4.053, 27.09, -0.38928, 0.26959, 0.17203, 0.86377,
 14:57:39.855,ed:40:fe:65:30:6c, 2015-01-01 01:20:23.895, 0.599, 0.084, 0.797, 0.671, 0.366, 0.244, 6.251, -36.76, -133.572, -18.807, -11.247, -4.053, 27.09, -0.38928, 0.26959, 0.17203, 0.86377,
 14:57:39.859,e3:ca:2d:fd:e0:8c, 2015-01-01 01:20:13.105, 1.001, 0, 0.203, 0.244, 0, 0, 0.214, -78.591, 162.312, -26.547, -10.133, -9.140, 28.7, 0.11777, 0.62598, -0.09592, 0.76483,
 14:57:39.859,e3:ca:2d:fd:e0:8c, 2015-01-01 01:20:13.105, 1.001, 0, 0.203, 0.122, 0.183, 0, 0.214, -78.591, 162.318, -26.547, -10.133, -9.140, 28.7, 0.11777, 0.62598, -0.09592, 0.76483,
 14:57:39.861,ed:35:33:d3:6c:f8, 2015-01-01 01:20:12.180, 0.559, 0.092, 0.818, 0.183, 0.122, 0.122, 6.4, -34.239, 148.442, -14.307, -12.580, -30.120, 31.56, -0.2435, -0.29733, 0.02856, -0.9227,
 14:57:39.861,ed:35:33:d3:6c:f8, 2015-01-01 01:20:12.180, 0.559, 0.093, 0.818, 0, 0.122, 0.244, 6.4, -34.239, 148.447, -14.307, -12.580, -30.120, 31.56, -0.2435, -0.29733, 0.02856, -0.9227,
 14:57:39.865,f6:90:cc:01:6d:25, 2015-01-01 01:20:10.700, 0.941, 0.019, 0.299, 0, 0.305, 0, 3.724, -72.356, -161.186, -29.313, -10.947, -4.800, 31.48, -0.15076, 0.57782, 0.12231, 0.79266,
 14:57:39.865,f6:90:cc:01:6d:25, 2015-01-01 01:20:10.700, 0.941, 0.02, 0.299, 0, 0.305, 0, 3.719, -72.35, -161.186, -29.313, -10.947, -4.800, 31.48, -0.15076, 0.57782, 0.12231, 0.79266,
 14:57:39.885,ed:40:fe:65:30:6c, 2015-01-01 01:20:23.895, 0.599, 0.085, 0.797, 0.61, 0.366, 0.061, 6.257, -36.755, -133.572, -18.807, -11.247, -4.053, 27.09, -0.38928, 0.26959, 0.17203, 0.86377,
 14:57:39.885,ed:40:fe:65:30:6c, 2015-01-01 01:20:23.895, 0.6, 0.084, 0.798, 0.488, 0.488, 0, 6.268, -36.744, -133.572, -18.807, -11.247, -4.053, 27.09, -0.38928, 0.26959, 0.17203, 0.86377,
 14:57:39.885,ed:40:fe:65:30:6c, 2015-01-01 01:20:23.895, 0.599, 0.084, 0.799, 0.427, 0.488, 0.061, 6.268, -36.738, -133.572, -18.807, -11.247, -4.053, 27.09, -0.38928, 0.26959, 0.17203, 0.86377,
 14:57:39.885,ed:40:fe:65:30:6c, 2015-01-01 01:20:23.895, 0.599, 0.085, 0.798, 0.244, 0.488, 0.122, 6.273, -36.727, -133.572, -18.807, -11.247, -4.053, 27.09, -0.38928, 0.26959, 0.17203, 0.86377,
 14:57:39.889,e3:ca:2d:fd:e0:8c, 2015-01-01 01:20:13.105, 1.001, 0.001, 0.204, 0.122, 0.244, 0, 0.22, -78.585, 162.318, -26.547, -10.133, -9.140, 28.7, 0.11777, 0.62598, -0.09592, 0.76483,
 14:57:39.889,e3:ca:2d:fd:e0:8c, 2015-01-01 01:20:13.105, 1.001, 0, 0.204, 0, 0.244, 0, 0.214, -78.58, 162.323, -26.547, -10.133, -9.140, 28.7, 0.11777, 0.62598, -0.09592, 0.76483,
 14:57:39.894,f6:90:cc:01:6d:25, 2015-01-01 01:20:10.700, 0.94, 0.021, 0.297, 0, 0.366, 0, 3.719, -72.345, -161.186, -29.313, -10.947, -4.800, 31.48, -0.15076, 0.57782, 0.12231, 0.79266,
 14:57:39.894,f6:90:cc:01:6d:25, 2015-01-01 01:20:10.700, 0.939, 0.021, 0.296, 0, 0.427, 0, 3.719, -72.339, -161.186, -29.313, -10.947, -4.800, 31.48, -0.15076, 0.57782, 0.12231, 0.79266,
 14:57:39.915,ed:40:fe:65:30:6c, 2015-01-01 01:20:23.895, 0.598, 0.089, 0.796, -0.061, 0.427, 0, 6.268, -36.722, -133.572, -18.807, -11.247, -4.053, 27.09, -0.38931, 0.26877, 0.17172, 0.86404,
 14:57:39.915,ed:40:fe:65:30:6c, 2015-01-01 01:20:23.895, 0.599, 0.093, 0.799, -0.671, 0.244, -0.122, 6.257, -36.716, -133.572, -18.807, -11.247, -4.053, 27.09, -0.38931, 0.26877, 0.17172, 0.86404,
 14:57:39.919,e3:ca:2d:fd:e0:8c, 2015-01-01 01:20:13.105, 1, 0.002, 0.203, 0, 0.183, 0, 0.214, -78.574, 162.323, -26.547, -10.133, -9.140, 28.7, 0.11777, 0.62598, -0.09592, 0.76483,
 14:57:39.919,e3:ca:2d:fd:e0:8c, 2015-01-01 01:20:13.105, 1, 0.002, 0.201, 0, 0.244, 0, 0.214, -78.569, 162.328, -26.547, -10.133, -9.140, 28.7, 0.11777, 0.62598, -0.09592, 0.76483,
 14:57:39.921,ed:35:33:d3:6c:f8, 2015-01-01 01:20:12.180, 0.558, 0.095, 0.818, -0.549, 0.183, -0.061, 6.394, -34.233, 148.447, -14.340, -12.647, -29.727, 31.56, -0.2435, -0.29733, 0.02856, -0.9227,
 14:57:39.921,ed:35:33:d3:6c:f8, 2015-01-01 01:20:12.180, 0.561, 0.098, 0.818, -0.854, 0.183, -0.488, 6.383, -34.233, 148.442, -14.340, -12.647, -29.727, 31.56, -0.2435, -0.29733, 0.02856, -0.9227,
 14:57:39.944,ed:40:fe:65:30:6c, 2015-01-01 01:20:23.895, 0.599, 0.086, 0.798, -0.854, 0.183, 0, 6.24, -36.711, -133.577, -18.807, -11.247, -4.053, 27.09, -0.38931, 0.26877, 0.17172, 0.86404,
 14:57:39.944,ed:40:fe:65:30:6c, 2015-01-01 01:20:23.895, 0.599, 0.082, 0.8, -0.732, 0.366, 0.061, 6.224, -36.705, -133.577, -18.807, -11.247, -4.053, 27.09, -0.38931, 0.26877, 0.17172, 0.86404,
 14:57:39.948,e3:ca:2d:fd:e0:8c, 2015-01-01 01:20:13.550, 0.999, 0.002, 0.201, 0.122, 0.244, 0, 0.22, -78.569, 162.328, -26.547, -10.133, -9.140, 28.7, 0.11777, 0.62598, -0.09592, 0.76483,
 14:57:39.948,e3:ca:2d:fd:e0:8c, 2015-01-01 01:20:13.550, 1, 0.001, 0.201, 0, 0.244, 0, 0.22, -78.563, 162.334, -26.547, -10.133, -9.140, 28.7, 0.11777, 0.62598, -0.09592, 0.76483,
 14:57:39.953,f6:90:cc:01:6d:25, 2015-01-01 01:20:11.060, 0.94, 0.021, 0.298, -0.183, 0.305, 0, 3.713, -72.334, -161.18, -29.313, -10.947, -4.800, 31.48, -0.15076, 0.57782, 0.12231, 0.79266,
 14:57:39.953,f6:90:cc:01:6d:25, 2015-01-01 01:20:11.060, 0.941, 0.02, 0.298, -0.305, 0.122, 0, 3.713, -72.328, -161.18, -29.313, -10.947, -4.800, 31.48, -0.15076, 0.57782, 0.12231, 0.79266,
 14:57:39.980,e3:ca:2d:fd:e0:8c, 2015-01-01 01:20:13.550, 1.001, 0.001, 0.2, -0.122, 0.061, 0, 0.22, -78.558, 162.334, -26.547, -10.133, -9.140, 28.7, 0.11777, 0.62598, -0.09592, 0.76483,
 14:57:39.980,e3:ca:2d:fd:e0:8c, 2015-01-01 01:20:13.550, 1, 0.002, 0.201, -0.122, 0, 0, 0.22, -78.558, 162.339, -26.547, -10.133, -9.140, 28.7, 0.11777, 0.62598, -0.09592, 0.76483,
 14:57:39.980,ed:35:33:d3:6c:f8, 2015-01-01 01:20:12.180, 0.56, 0.095, 0.818, -0.793, 0.183, -0.305, 6.372, -34.228, 148.431, -14.340, -12.647, -29.727, 31.56, -0.2438, -0.29718, 0.02878, -0.92267,
 14:57:39.980,ed:35:33:d3:6c:f8, 2015-01-01 01:20:12.180, 0.56, 0.088, 0.819, -0.793, 0.061, -0.122, 6.367, -34.222, 148.425, -14.340, -12.647, -29.727, 31.56, -0.2438, -0.29718, 0.02878, -0.92267,
 14:57:39.980,ed:35:33:d3:6c:f8, 2015-01-01 01:20:12.180, 0.559, 0.087, 0.819, -0.61, 0, -0.061, 6.35, -34.222, 148.42, -14.340, -12.647, -29.727, 31.56, -0.2438, -0.29718, 0.02878, -0.92267,
 14:57:39.980,ed:35:33:d3:6c:f8, 2015-01-01 01:20:12.180, 0.559, 0.088, 0.817, -0.305, -0.061, 0, 6.345, -34.222, 148.42, -14.340, -12.647, -29.727, 31.56, -0.2438, -0.29718, 0.02878, -0.92267,
 14:57:39.984,f6:90:cc:01:6d:25, 2015-01-01 01:20:11.060, 0.94, 0.02, 0.297, -0.305, 0, 0, 3.708, -72.328, -161.18, -29.313, -10.947, -4.800, 31.48, -0.15076, 0.57782, 0.12231, 0.79266,
 14:57:39.984,f6:90:cc:01:6d:25, 2015-01-01 01:20:11.060, 0.94, 0.019, 0.297, -0.244, 0, 0, 3.702, -72.328, -161.18, -29.313, -10.947, -4.800, 31.48, -0.15076, 0.57782, 0.12231, 0.79266,
 14:57:40.008,e3:ca:2d:fd:e0:8c, 2015-01-01 01:20:13.550, 1, 0.001, 0.202, -0.244, 0, 0, 0.22, -78.558, 162.339, -26.547, -10.133, -9.140, 28.7, 0.11777, 0.62598, -0.09592, 0.76483,
 14:57:40.008,e3:ca:2d:fd:e0:8c, 2015-01-01 01:20:13.550, 1, 0, 0.202, -0.244, 0.061, 0, 0.22, -78.558, 162.345, -26.547, -10.133, -9.140, 28.7, 0.11777, 0.62598, -0.09592, 0.76483,
 14:57:40.013,f6:90:cc:01:6d:25, 2015-01-01 01:20:11.060, 0.94, 0.018, 0.297, -0.183, 0, 0, 3.697, -72.328, -161.18, -29.313, -10.947, -4.800, 31.48, -0.15076, 0.57782, 0.12231, 0.79266,
 14:57:40.013,f6:90:cc:01:6d:25, 2015-01-01 01:20:11.060, 0.94, 0.017, 0.297, 0, 0.122, 0, 3.697, -72.328, -161.18, -29.313, -10.947, -4.800, 31.48, -0.15076, 0.57782, 0.12231, 0.79266,
 14:57:40.036,ed:40:fe:65:30:6c, 2015-01-01 01:20:24.345, 0.598, 0.08, 0.8, -0.488, 0.366, 0, 6.207, -36.7, -133.577, -18.807, -11.247, -4.053, 27.09, -0.38931, 0.26877, 0.17172, 0.86404,
 14:57:40.036,ed:40:fe:65:30:6c, 2015-01-01 01:20:24.345, 0.598, 0.081, 0.797, -0.183, 0.305, -0.061, 6.202, -36.689, -133.583, -18.807, -11.247, -4.053, 27.09, -0.38931, 0.26877, 0.17172, 0.86404,
 14:57:40.036,ed:40:fe:65:30:6c, 2015-01-01 01:20:24.345, 0.598, 0.082, 0.796, 0.244, 0.122, -0.061, 6.202, -36.689, -133.583, -18.807, -11.247, -4.053, 27.09, -0.38931, 0.26877, 0.17172, 0.86404,
 14:57:40.036,ed:40:fe:65:30:6c, 2015-01-01 01:20:24.345, 0.598, 0.083, 0.797, 0.671, 0.061, 0, 6.213, -36.689, -133.588, -18.807, -11.247, -4.053, 27.09, -0.38931, 0.26877, 0.17172, 0.86404,
 14:57:40.037,e3:ca:2d:fd:e0:8c, 2015-01-01 01:20:13.550, 1, -0.001, 0.201, -0.183, 0.061, 0, 0.214, -78.558, 162.345, -26.547, -10.133, -9.140, 28.7, 0.11777, 0.62598, -0.09592, 0.76483,
 14:57:40.037,e3:ca:2d:fd:e0:8c, 2015-01-01 01:20:13.550, 1.001, 0, 0.202, 0, 0.122, 0, 0.214, -78.558, 162.35, -26.547, -10.133, -9.140, 28.7, 0.11777, 0.62598, -0.09592, 0.76483,
 14:57:40.064,ed:40:fe:65:30:6c, 2015-01-01 01:20:24.345, 0.6, 0.083, 0.799, 0.854, 0.061, 0, 6.229, -36.689, -133.588, -18.807, -11.247, -4.053, 27.09, -0.38931, 0.26877, 0.17172, 0.86404,
 14:57:40.064,ed:40:fe:65:30:6c, 2015-01-01 01:20:24.345, 0.599, 0.082, 0.798, 0.793, 0.061, 0.061, 6.24, -36.683, -133.588, -18.807, -11.247, -4.053, 27.09, -0.38931, 0.26877, 0.17172, 0.86404,
 14:57:40.070,ed:35:33:d3:6c:f8, 2015-01-01 01:20:12.180, 0.56, 0.09, 0.815, 0.122, -0.061, 0, 6.339, -34.222, 148.414, -14.340, -12.647, -29.727, 31.56, -0.2438, -0.29718, 0.02878, -0.92267,
 14:57:40.070,ed:35:33:d3:6c:f8, 2015-01-01 01:20:12.180, 0.56, 0.092, 0.816, 0.549, 0, 0.061, 6.345, -34.222, 148.414, -14.340, -12.647, -29.727, 31.56, -0.2438, -0.29718, 0.02878, -0.92267,
 14:57:40.070,ed:35:33:d3:6c:f8, 2015-01-01 01:20:12.180, 0.562, 0.091, 0.818, 0.793, -0.122, 0.061, 6.361, -34.222, 148.414, -14.340, -12.647, -29.727, 31.56, -0.2438, -0.29718, 0.02878, -0.92267,
 14:57:40.070,ed:35:33:d3:6c:f8, 2015-01-01 01:20:12.180, 0.562, 0.09, 0.817, 0.732, -0.183, 0.122, 6.372, -34.228, 148.414, -14.340, -12.647, -29.727, 31.56, -0.2438, -0.29718, 0.02878, -0.92267,
 14:57:40.075,f6:90:cc:01:6d:25, 2015-01-01 01:20:11.060, 0.941, 0.017, 0.297, 0.061, 0.122, 0, 3.691, -72.328, -161.18, -29.313, -10.947, -4.800, 31.48, -0.15076, 0.57782, 0.12231, 0.79266,
 14:57:40.075,f6:90:cc:01:6d:25, 2015-01-01 01:20:11.060, 0.942, 0.017, 0.298, 0.122, 0.183, 0, 3.691, -72.323, -161.18, -29.313, -10.947, -4.800, 31.48, -0.15076, 0.57782, 0.12231, 0.79266,
 14:57:40.097,e3:ca:2d:fd:e0:8c, 2015-01-01 01:20:13.550, 1.001, 0, 0.203, 0.122, 0.183, 0, 0.214, -78.552, 162.35, -26.547, -10.133, -9.140, 28.7, 0.11777, 0.62598, -0.09592, 0.76483,
 14:57:40.097,e3:ca:2d:fd:e0:8c, 2015-01-01 01:20:13.550, 1.002, 0, 0.203, 0.183, 0.122, 0, 0.214, -78.552, 162.356, -26.547, -10.133, -9.140, 28.7, 0.11777, 0.62598, -0.09592, 0.76483,
 14:57:40.101,ed:35:33:d3:6c:f8, 2015-01-01 01:20:12.535, 0.561, 0.091, 0.817, 0.671, -0.183, 0.183, 6.383, -34.233, 148.42, -14.340, -12.647, -29.727, 31.56, -0.2438, -0.29718, 0.02878, -0.92267,
 14:57:40.101,ed:35:33:d3:6c:f8, 2015-01-01 01:20:12.535, 0.561, 0.095, 0.817, 0.427, -0.061, 0.183, 6.394, -34.233, 148.42, -14.340, -12.647, -29.727, 31.56, -0.2438, -0.29718, 0.02878, -0.92267,
 14:57:40.105,f6:90:cc:01:6d:25, 2015-01-01 01:20:11.060, 0.942, 0.018, 0.298, 0.183, 0.244, 0, 3.691, -72.323, -161.18, -29.313, -10.947, -4.800, 31.48, -0.15076, 0.57782, 0.12231, 0.79266,
 14:57:40.105,f6:90:cc:01:6d:25, 2015-01-01 01:20:11.060, 0.942, 0.019, 0.299, 0.183, 0.305, 0, 3.691, -72.318, -161.18, -29.313, -10.947, -4.800, 31.48, -0.15076, 0.57782, 0.12231, 0.79266,
 14:57:40.124,ed:40:fe:65:30:6c, 2015-01-01 01:20:24.345, 0.599, 0.083, 0.798, 0.793, 0.183, 0.061, 6.251, -36.683, -133.588, -18.807, -11.247, -4.053, 27.09, -0.38931, 0.26877, 0.17172, 0.86404,
 14:57:40.124,ed:40:fe:65:30:6c, 2015-01-01 01:20:24.345, 0.6, 0.086, 0.798, 0.671, 0.122, 0.122, 6.257, -36.683, -133.588, -18.807, -11.247, -4.053, 27.09, -0.38931, 0.26877, 0.17172, 0.86404,
 14:57:40.128,e3:ca:2d:fd:e0:8c, 2015-01-01 01:20:13.550, 1.001, 0, 0.204, 0.305, 0.183, 0, 0.22, -78.552, 162.356, -26.547, -10.133, -9.140, 28.7, 0.11777, 0.62598, -0.09592, 0.76483,
 14:57:40.128,e3:ca:2d:fd:e0:8c, 2015-01-01 01:20:13.550, 1, 0, 0.202, 0.244, 0.244, 0, 0.22, -78.547, 162.361, -26.547, -10.133, -9.140, 28.7, 0.11777, 0.62598, -0.09592, 0.76483,
 14:57:40.135,f6:90:cc:01:6d:25, 2015-01-01 01:20:11.060, 0.941, 0.019, 0.298, 0.183, 0.366, 0, 3.691, -72.312, -161.18, -29.440, -10.773, -4.087, 31.48, -0.15076, 0.57782, 0.12231, 0.79266,
 14:57:40.135,f6:90:cc:01:6d:25, 2015-01-01 01:20:11.060, 0.94, 0.019, 0.298, 0.122, 0.427, 0, 3.691, -72.307, -161.175, -29.440, -10.773, -4.087, 31.48, -0.15076, 0.57782, 0.12231, 0.79266,
 14:57:40.155,ed:40:fe:65:30:6c, 2015-01-01 01:20:24.345, 0.598, 0.089, 0.799, 0.427, 0.061, 0, 6.262, -36.683, -133.588, -18.807, -11.247, -4.053, 27.09, -0.38931, 0.26877, 0.17172, 0.86404,
 14:57:40.155,ed:40:fe:65:30:6c, 2015-01-01 01:20:24.345, 0.599, 0.087, 0.799, 0, 0.061, 0, 6.262, -36.678, -133.594, -18.807, -11.247, -4.053, 27.09, -0.38931, 0.26877, 0.17172, 0.86404,
 14:57:40.157,e3:ca:2d:fd:e0:8c, 2015-01-01 01:20:13.550, 1, 0.001, 0.201, 0.183, 0.244, 0, 0.225, -78.541, 162.361, -26.307, -9.833, -9.327, 28.7, 0.11777, 0.62598, -0.09592, 0.76483,
 14:57:40.157,e3:ca:2d:fd:e0:8c, 2015-01-01 01:20:13.550, 0.998, 0, 0.202, 0.061, 0.305, 0, 0.225, -78.536, 162.367, -26.307, -9.833, -9.327, 28.7, 0.11777, 0.62598, -0.09592, 0.76483,
 14:57:40.159,ed:35:33:d3:6c:f8, 2015-01-01 01:20:12.535, 0.56, 0.095, 0.818, 0.122, -0.122, 0, 6.4, -34.239, 148.42, -14.340, -12.647, -29.727, 31.56, -0.2438, -0.29718, 0.02878, -0.92267,
 14:57:40.159,ed:35:33:d3:6c:f8, 2015-01-01 01:20:12.535, 0.561, 0.093, 0.817, -0.122, -0.061, 0, 6.4, -34.239, 148.42, -14.340, -12.647, -29.727, 31.56, -0.2438, -0.29718, 0.02878, -0.92267,
 14:57:40.184,ed:40:fe:65:30:6c, 2015-01-01 01:20:24.345, 0.598, 0.083, 0.798, 0, 0.122, 0, 6.262, -36.678, -133.594, -18.447, -11.827, -4.567, 27.09, -0.38931, 0.26877, 0.17172, 0.86404,
 14:57:40.184,ed:40:fe:65:30:6c, 2015-01-01 01:20:24.345, 0.597, 0.083, 0.798, 0.061, 0.122, 0, 6.257, -36.678, -133.594, -18.447, -11.827, -4.567, 27.09, -0.38931, 0.26877, 0.17172, 0.86404,
 14:57:40.219,e3:ca:2d:fd:e0:8c, 2015-01-01 01:20:13.550, 0.999, 0.002, 0.202, 0, 0.122, 0, 0.225, -78.53, 162.367, -26.307, -9.833, -9.327, 28.7, 0.11777, 0.62598, -0.09592, 0.76483,
 14:57:40.219,e3:ca:2d:fd:e0:8c, 2015-01-01 01:20:13.550, 1, 0.002, 0.202, -0.061, 0.122, 0, 0.225, -78.53, 162.372, -26.307, -9.833, -9.327, 28.7, 0.11777, 0.62598, -0.09592, 0.76483,
 14:57:40.220,ed:35:33:d3:6c:f8, 2015-01-01 01:20:12.535, 0.56, 0.091, 0.817, -0.122, -0.061, 0.061, 6.394, -34.239, 148.42, -14.340, -12.647, -29.727, 31.56, -0.2438, -0.29718, 0.02878, -0.92267,
 14:57:40.220,ed:35:33:d3:6c:f8, 2015-01-01 01:20:12.535, 0.559, 0.091, 0.817, -0.183, 0.061, 0.244, 6.394, -34.244, 148.42, -14.340, -12.647, -29.727, 31.56, -0.2438, -0.29718, 0.02878, -0.92267,
 14:57:40.220,ed:35:33:d3:6c:f8, 2015-01-01 01:20:12.535, 0.559, 0.092, 0.818, -0.427, 0.061, 0.061, 6.383, -34.239, 148.425, -14.340, -12.647, -29.727, 31.56, -0.2438, -0.29718, 0.02878, -0.92267,
 14:57:40.220,ed:35:33:d3:6c:f8, 2015-01-01 01:20:12.535, 0.56, 0.092, 0.817, -0.671, 0, -0.122, 6.372, -34.239, 148.42, -14.340, -12.647, -29.727, 31.56, -0.2438, -0.29718, 0.02878, -0.92267,
 14:57:40.223,f6:90:cc:01:6d:25, 2015-01-01 01:20:11.060, 0.938, 0.019, 0.299, 0.122, 0.305, 0, 3.691, -72.301, -161.175, -29.440, -10.773, -4.087, 31.48, -0.15076, 0.57782, 0.12231, 0.79266,
 14:57:40.223,f6:90:cc:01:6d:25, 2015-01-01 01:20:11.060, 0.938, 0.019, 0.299, 0.061, 0.244, 0, 3.691, -72.296, -161.175, -29.440, -10.773, -4.087, 31.48, -0.15076, 0.57782, 0.12231, 0.79266,
 14:57:40.225,f6:90:cc:01:6d:25, 2015-01-01 01:20:11.060, 0.939, 0.021, 0.298, -0.061, 0.122, 0, 3.691, -72.29, -161.175, -29.440, -10.773, -4.087, 31.48, -0.15073, 0.57736, 0.12207, 0.79306,
 14:57:40.225,f6:90:cc:01:6d:25, 2015-01-01 01:20:11.060, 0.94, 0.021, 0.298, -0.244, 0, 0, 3.686, -72.29, -161.175, -29.440, -10.773, -4.087, 31.48, -0.15073, 0.57736, 0.12207, 0.79306,
 14:57:40.245,ed:40:fe:65:30:6c, 2015-01-01 01:20:24.345, 0.598, 0.085, 0.798, -0.122, 0.061, 0, 6.251, -36.678, -133.599, -18.447, -11.827, -4.567, 27.09, -0.38931, 0.26877, 0.17172, 0.86404,
 14:57:40.245,ed:40:fe:65:30:6c, 2015-01-01 01:20:24.345, 0.598, 0.085, 0.799, -0.244, -0.122, 0, 6.246, -36.678, -133.599, -18.447, -11.827, -4.567, 27.09, -0.38931, 0.26877, 0.17172, 0.86404,
 14:57:40.247,e3:ca:2d:fd:e0:8c, 2015-01-01 01:20:13.550, 1, 0.002, 0.202, -0.366, 0.061, 0, 0.22, -78.53, 162.372, -26.307, -9.833, -9.327, 28.7, 0.11734, 0.62567, -0.09543, 0.76523,
 14:57:40.247,e3:ca:2d:fd:e0:8c, 2015-01-01 01:20:13.550, 1, 0.002, 0.202, -0.366, 0.122, 0, 0.214, -78.53, 162.378, -26.307, -9.833, -9.327, 28.7, 0.11734, 0.62567, -0.09543, 0.76523,
 14:57:40.276,ed:40:fe:65:30:6c, 2015-01-01 01:20:24.345, 0.599, 0.086, 0.797, -0.366, -0.183, 0, 6.235, -36.683, -133.599, -18.447, -11.827, -4.567, 27.09, -0.38913, 0.26837, 0.17133, 0.86435,
 14:57:40.276,ed:40:fe:65:30:6c, 2015-01-01 01:20:24.345, 0.597, 0.084, 0.798, -0.183, -0.183, 0, 6.229, -36.683, -133.605, -18.447, -11.827, -4.567, 27.09, -0.38913, 0.26837, 0.17133, 0.86435,
 14:57:40.281,ed:35:33:d3:6c:f8, 2015-01-01 01:20:12.535, 0.56, 0.092, 0.816, -0.793, 0.122, -0.366, 6.361, -34.239, 148.414, -14.340, -12.647, -29.727, 31.56, -0.2438, -0.29718, 0.02878, -0.92267,
 14:57:40.281,ed:35:33:d3:6c:f8, 2015-01-01 01:20:12.535, 0.558, 0.092, 0.817, -0.488, 0, -0.305, 6.356, -34.239, 148.403, -14.340, -12.647, -29.727, 31.56, -0.2438, -0.29718, 0.02878, -0.92267,
 14:57:40.285,f6:90:cc:01:6d:25, 2015-01-01 01:20:11.060, 0.94, 0.02, 0.298, -0.366, 0, 0, 3.68, -72.29, -161.175, -29.440, -10.773, -4.087, 31.48, -0.15073, 0.57736, 0.12207, 0.79306,
 14:57:40.285,f6:90:cc:01:6d:25, 2015-01-01 01:20:11.060, 0.938, 0.018, 0.299, -0.305, 0, 0, 3.675, -72.29, -161.175, -29.440, -10.773, -4.087, 31.48, -0.15073, 0.57736, 0.12207, 0.79306,
 14:57:40.306,ed:40:fe:65:30:6c, 2015-01-01 01:20:24.345, 0.596, 0.081, 0.797, -0.305, -0.244, 0, 6.224, -36.689, -133.605, -18.447, -11.827, -4.567, 27.09, -0.38913, 0.26837, 0.17133, 0.86435,
 14:57:40.306,ed:40:fe:65:30:6c, 2015-01-01 01:20:24.345, 0.6, 0.083, 0.797, -0.244, -0.122, 0, 6.218, -36.694, -133.61, -18.447, -11.827, -4.567, 27.09, -0.38913, 0.26837, 0.17133, 0.86435,
 14:57:40.308,e3:ca:2d:fd:e0:8c, 2015-01-01 01:20:13.550, 0.998, 0.001, 0.204, -0.671, 0.122, 0, 0.209, -78.525, 162.378, -26.307, -9.833, -9.327, 28.7, 0.11734, 0.62567, -0.09543, 0.76523,
 14:57:40.308,e3:ca:2d:fd:e0:8c, 2015-01-01 01:20:13.550, 0.999, -0.002, 0.204, -0.549, -0.061, 0, 0.198, -78.525, 162.383, -26.307, -9.833, -9.327, 28.7, 0.11734, 0.62567, -0.09543, 0.76523,
 14:57:40.310,ed:35:33:d3:6c:f8, 2015-01-01 01:20:12.535, 0.559, 0.091, 0.816, -0.488, 0, 0, 6.35, -34.239, 148.403, -14.700, -12.580, -29.607, 31.56, -0.2438, -0.29718, 0.02878, -0.92267,
 14:57:40.310,ed:35:33:d3:6c:f8, 2015-01-01 01:20:12.535, 0.563, 0.088, 0.814, -0.244, 0.061, 0, 6.345, -34.239, 148.398, -14.700, -12.580, -29.607, 31.56, -0.2438, -0.29718, 0.02878, -0.92267,
 14:57:40.314,f6:90:cc:01:6d:25, 2015-01-01 01:20:11.445, 0.939, 0.015, 0.3, -0.244, 0, 0, 3.669, -72.296, -161.175, -29.440, -10.773, -4.087, 31.48, -0.15073, 0.57736, 0.12207, 0.79306,
 14:57:40.314,f6:90:cc:01:6d:25, 2015-01-01 01:20:11.445, 0.941, 0.018, 0.3, -0.244, 0.061, 0, 3.664, -72.296, -161.175, -29.440, -10.773, -4.087, 31.48, -0.15073, 0.57736, 0.12207, 0.79306,
 14:57:40.338,e3:ca:2d:fd:e0:8c, 2015-01-01 01:20:13.940, 1.001, -0.002, 0.205, -0.244, 0, 0, 0.187, -78.525, 162.383, -26.307, -9.833, -9.327, 28.7, 0.11734, 0.62567, -0.09543, 0.76523,
 14:57:40.338,e3:ca:2d:fd:e0:8c, 2015-01-01 01:20:13.940, 1.001, 0.001, 0.204, -0.305, 0.061, 0, 0.181, -78.525, 162.383, -26.307, -9.833, -9.327, 28.7, 0.11734, 0.62567, -0.09543, 0.76523,
 14:57:40.342,ed:35:33:d3:6c:f8, 2015-01-01 01:20:12.535, 0.562, 0.089, 0.816, 0.183, 0.366, -0.061, 6.345, -34.233, 148.398, -14.700, -12.580, -29.607, 31.56, -0.2438, -0.29718, 0.02878, -0.92267,
 14:57:40.342,ed:35:33:d3:6c:f8, 2015-01-01 01:20:12.535, 0.561, 0.092, 0.818, 0.732, 0.61, 0.061, 6.35, -34.222, 148.398, -14.700, -12.580, -29.607, 31.56, -0.2438, -0.29718, 0.02878, -0.92267,
 14:57:40.344,f6:90:cc:01:6d:25, 2015-01-01 01:20:11.445, 0.941, 0.019, 0.3, -0.183, 0.122, 0, 3.658, -72.29, -161.175, -29.440, -10.773, -4.087, 31.48, -0.15073, 0.57736, 0.12207, 0.79306,
 14:57:40.344,f6:90:cc:01:6d:25, 2015-01-01 01:20:11.445, 0.941, 0.016, 0.3, 0, 0, 0, 3.653, -72.29, -161.175, -29.440, -10.773, -4.087, 31.48, -0.15073, 0.57736, 0.12207, 0.79306,
 14:57:40.364,ed:40:fe:65:30:6c, 2015-01-01 01:20:24.700, 0.6, 0.083, 0.798, 0.244, -0.061, 0, 6.218, -36.694, -133.61, -18.447, -11.827, -4.567, 27.09, -0.38913, 0.26837, 0.17133, 0.86435,
 14:57:40.364,ed:40:fe:65:30:6c, 2015-01-01 01:20:24.700, 0.6, 0.082, 0.801, 0.854, 0.061, 0, 6.235, -36.694, -133.61, -18.447, -11.827, -4.567, 27.09, -0.38913, 0.26837, 0.17133, 0.86435,
 14:57:40.368,e3:ca:2d:fd:e0:8c, 2015-01-01 01:20:13.940, 1.001, 0.001, 0.203, -0.183, 0.122, 0, 0.176, -78.525, 162.389, -26.307, -9.833, -9.327, 28.7, 0.11734, 0.62567, -0.09543, 0.76523,
 14:57:40.368,e3:ca:2d:fd:e0:8c, 2015-01-01 01:20:13.940, 1, -0.001, 0.204, -0.183, 0.061, 0, 0.17, -78.519, 162.389, -26.307, -9.833, -9.327, 28.7, 0.11734, 0.62567, -0.09543, 0.76523,
 14:57:40.394,ed:40:fe:65:30:6c, 2015-01-01 01:20:24.700, 0.599, 0.08, 0.8, 0.977, 0.122, 0.305, 6.246, -36.689, -133.605, -18.447, -11.827, -4.567, 27.09, -0.38913, 0.26837, 0.17133, 0.86435,
 14:57:40.394,ed:40:fe:65:30:6c, 2015-01-01 01:20:24.700, 0.598, 0.081, 0.801, 0.671, 0.122, 0.183, 6.251, -36.689, -133.605, -18.447, -11.827, -4.567, 27.09, -0.38913, 0.26837, 0.17133, 0.86435,
 14:57:40.424,ed:40:fe:65:30:6c, 2015-01-01 01:20:24.700, 0.598, 0.083, 0.799, 0.61, 0.122, 0, 6.257, -36.689, -133.605, -18.447, -11.827, -4.567, 27.09, -0.38913, 0.26837, 0.17133, 0.86435,
 14:57:40.424,ed:40:fe:65:30:6c, 2015-01-01 01:20:24.700, 0.597, 0.085, 0.796, 0.488, 0.183, 0.061, 6.262, -36.683, -133.605, -18.447, -11.827, -4.567, 27.09, -0.38913, 0.26837, 0.17133, 0.86435,
 14:57:40.428,e3:ca:2d:fd:e0:8c, 2015-01-01 01:20:13.940, 1, -0.001, 0.202, -0.244, 0.061, 0, 0.165, -78.519, 162.394, -26.307, -9.833, -9.327, 28.7, 0.11734, 0.62567, -0.09543, 0.76523,
 14:57:40.428,e3:ca:2d:fd:e0:8c, 2015-01-01 01:20:13.940, 0.999, 0, 0.201, -0.244, 0, 0, 0.159, -78.519, 162.394, -26.307, -9.833, -9.327, 28.7, 0.11734, 0.62567, -0.09543, 0.76523,
 14:57:40.434,f6:90:cc:01:6d:25, 2015-01-01 01:20:11.445, 0.941, 0.015, 0.298, 0.244, 0, 0, 3.653, -72.29, -161.175, -29.440, -10.773, -4.087, 31.48, -0.15073, 0.57736, 0.12207, 0.79306,
 14:57:40.434,f6:90:cc:01:6d:25, 2015-01-01 01:20:11.445, 0.94, 0.017, 0.299, 0.244, 0, 0, 3.658, -72.29, -161.175, -29.440, -10.773, -4.087, 31.48, -0.15073, 0.57736, 0.12207, 0.79306,
 14:57:40.434,f6:90:cc:01:6d:25, 2015-01-01 01:20:11.445, 0.939, 0.018, 0.298, 0.244, 0, 0, 3.658, -72.29, -161.175, -29.440, -10.773, -4.087, 31.48, -0.15073, 0.57736, 0.12207, 0.79306,
 14:57:40.434,f6:90:cc:01:6d:25, 2015-01-01 01:20:11.445, 0.938, 0.018, 0.298, 0.122, 0, 0, 3.658, -72.29, -161.175, -29.440, -10.773, -4.087, 31.48, -0.15073, 0.57736, 0.12207, 0.79306,
 14:57:40.459,e3:ca:2d:fd:e0:8c, 2015-01-01 01:20:13.940, 0.998, 0, 0.201, -0.244, -0.122, 0, 0.154, -78.519, 162.4, -26.307, -9.833, -9.327, 28.7, 0.11734, 0.62567, -0.09543, 0.76523,
 14:57:40.459,e3:ca:2d:fd:e0:8c, 2015-01-01 01:20:13.940, 0.997, 0, 0.2, -0.305, -0.122, 0, 0.143, -78.525, 162.4, -26.307, -9.833, -9.327, 28.7, 0.11734, 0.62567, -0.09543, 0.76523,
 14:57:40.461,ed:35:33:d3:6c:f8, 2015-01-01 01:20:12.535, 0.56, 0.088, 0.819, 0.61, 0.671, 0.183, 6.361, -34.211, 148.403, -14.700, -12.580, -29.607, 31.56, -0.24408, -0.29709, 0.02899, -0.92261,
 14:57:40.461,ed:35:33:d3:6c:f8, 2015-01-01 01:20:12.535, 0.559, 0.088, 0.82, 0.305, 0.671, 0, 6.367, -34.2, 148.403, -14.700, -12.580, -29.607, 31.56, -0.24408, -0.29709, 0.02899, -0.92261,
 14:57:40.463,ed:35:33:d3:6c:f8, 2015-01-01 01:20:12.535, 0.559, 0.092, 0.818, 0, 0.61, 0, 6.367, -34.189, 148.403, -14.700, -12.580, -29.607, 31.56, -0.24408, -0.29709, 0.02899, -0.92261,
 14:57:40.463,ed:35:33:d3:6c:f8, 2015-01-01 01:20:12.925, 0.558, 0.095, 0.817, 0, 0.427, 0.122, 6.367, -34.178, 148.409, -14.700, -12.580, -29.607, 31.56, -0.24408, -0.29709, 0.02899, -0.92261,
 14:57:40.463,ed:35:33:d3:6c:f8, 2015-01-01 01:20:12.925, 0.556, 0.096, 0.817, 0, 0.427, 0.183, 6.367, -34.173, 148.409, -14.700, -12.580, -29.607, 31.56, -0.24408, -0.29709, 0.02899, -0.92261,
 14:57:40.463,ed:35:33:d3:6c:f8, 2015-01-01 01:20:12.925, 0.556, 0.095, 0.817, -0.183, 0.488, 0.122, 6.361, -34.162, 148.414, -14.700, -12.580, -29.607, 31.56, -0.24408, -0.29709, 0.02899, -0.92261,
 14:57:40.465,f6:90:cc:01:6d:25, 2015-01-01 01:20:11.445, 0.938, 0.019, 0.297, 0.122, -0.061, 0, 3.658, -72.29, -161.175, -29.440, -10.773, -4.087, 31.48, -0.15073, 0.57736, 0.12207, 0.79306,
 14:57:40.465,f6:90:cc:01:6d:25, 2015-01-01 01:20:11.445, 0.938, 0.019, 0.297, 0.122, -0.183, 0, 3.658, -72.296, -161.175, -29.440, -10.773, -4.087, 31.48, -0.15073, 0.57736, 0.12207, 0.79306,
 14:57:40.484,ed:40:fe:65:30:6c, 2015-01-01 01:20:24.700, 0.596, 0.086, 0.797, 0.366, 0.183, 0.244, 6.262, -36.683, -133.599, -18.447, -11.827, -4.567, 27.09, -0.38913, 0.26837, 0.17133, 0.86435,
 14:57:40.484,ed:40:fe:65:30:6c, 2015-01-01 01:20:24.700, 0.595, 0.088, 0.796, 0.183, 0, 0.427, 6.257, -36.683, -133.588, -18.447, -11.827, -4.567, 27.09, -0.38913, 0.26837, 0.17133, 0.86435,
 14:57:40.488,e3:ca:2d:fd:e0:8c, 2015-01-01 01:20:13.940, 0.999, 0.001, 0.201, -0.244, -0.183, 0, 0.137, -78.525, 162.4, -26.307, -9.833, -9.327, 28.7, 0.11734, 0.62567, -0.09543, 0.76523,
 14:57:40.488,e3:ca:2d:fd:e0:8c, 2015-01-01 01:20:13.940, 1, 0.002, 0.203, -0.305, -0.183, 0, 0.132, -78.53, 162.405, -26.307, -9.833, -9.327, 28.7, 0.11734, 0.62567, -0.09543, 0.76523,
 14:57:40.515,ed:40:fe:65:30:6c, 2015-01-01 01:20:24.700, 0.597, 0.088, 0.797, -0.122, -0.244, 0.366, 6.246, -36.689, -133.583, -18.447, -11.827, -4.567, 27.09, -0.38913, 0.26837, 0.17133, 0.86435,
 14:57:40.515,ed:40:fe:65:30:6c, 2015-01-01 01:20:24.700, 0.598, 0.088, 0.797, -0.549, -0.488, 0, 6.235, -36.694, -133.588, -18.447, -11.827, -4.567, 27.09, -0.38913, 0.26837, 0.17133, 0.86435,
 14:57:40.520,ed:35:33:d3:6c:f8, 2015-01-01 01:20:12.925, 0.558, 0.093, 0.817, -0.549, 0.488, -0.122, 6.356, -34.151, 148.414, -14.700, -12.580, -29.607, 31.56, -0.24408, -0.29709, 0.02899, -0.92261,
 14:57:40.520,ed:35:33:d3:6c:f8, 2015-01-01 01:20:12.925, 0.558, 0.093, 0.817, -0.854, 0.61, -0.549, 6.345, -34.14, 148.409, -14.700, -12.580, -29.607, 31.56, -0.24408, -0.29709, 0.02899, -0.92261,
 14:57:40.524,f6:90:cc:01:6d:25, 2015-01-01 01:20:11.445, 0.94, 0.021, 0.299, 0, -0.305, 0, 3.658, -72.301, -161.175, -29.440, -10.773, -4.087, 31.48, -0.15073, 0.57736, 0.12207, 0.79306,
 14:57:40.524,f6:90:cc:01:6d:25, 2015-01-01 01:20:11.445, 0.941, 0.023, 0.298, -0.366, -0.366, 0, 3.653, -72.307, -161.18, -29.440, -10.773, -4.087, 31.48, -0.15073, 0.57736, 0.12207, 0.79306,
 14:57:40.544,ed:40:fe:65:30:6c, 2015-01-01 01:20:24.700, 0.599, 0.088, 0.799, -0.61, -0.61, -0.244, 6.229, -36.705, -133.599, -18.473, -11.587, -4.253, 27.09, -0.38913, 0.26837, 0.17133, 0.86435,
 14:57:40.544,ed:40:fe:65:30:6c, 2015-01-01 01:20:24.700, 0.599, 0.084, 0.801, -0.977, -0.61, -0.366, 6.213, -36.716, -133.61, -18.473, -11.587, -4.253, 27.09, -0.38913, 0.26837, 0.17133, 0.86435,
 14:57:40.548,e3:ca:2d:fd:e0:8c, 2015-01-01 01:20:13.940, 1.001, 0.003, 0.203, -0.549, -0.183, 0, 0.126, -78.536, 162.405, -26.307, -9.833, -9.327, 28.7, 0.11734, 0.62567, -0.09543, 0.76523,
 14:57:40.548,e3:ca:2d:fd:e0:8c, 2015-01-01 01:20:13.940, 1.001, 0.003, 0.203, -0.732, -0.061, 0, 0.115, -78.536, 162.405, -26.307, -9.833, -9.327, 28.7, 0.11734, 0.62567, -0.09543, 0.76523,
 14:57:40.550,ed:35:33:d3:6c:f8, 2015-01-01 01:20:12.925, 0.559, 0.094, 0.821, -0.977, 0.732, -0.732, 6.334, -34.129, 148.392, -14.700, -12.580, -29.607, 31.56, -0.24408, -0.29709, 0.02899, -0.92261,
 14:57:40.550,ed:35:33:d3:6c:f8, 2015-01-01 01:20:12.925, 0.557, 0.092, 0.823, -1.221, 0.549, -0.671, 6.323, -34.113, 148.381, -14.700, -12.580, -29.607, 31.56, -0.24408, -0.29709, 0.02899, -0.92261,
 14:57:40.554,f6:90:cc:01:6d:25, 2015-01-01 01:20:11.445, 0.941, 0.022, 0.299, -0.671, -0.366, 0, 3.647, -72.318, -161.18, -29.280, -10.960, -4.460, 31.48, -0.15073, 0.57736, 0.12207, 0.79306,
 14:57:40.554,f6:90:cc:01:6d:25, 2015-01-01 01:20:11.445, 0.941, 0.019, 0.3, -0.977, -0.366, 0, 3.631, -72.323, -161.18, -29.280, -10.960, -4.460, 31.48, -0.15073, 0.57736, 0.12207, 0.79306,
 14:57:40.577,e3:ca:2d:fd:e0:8c, 2015-01-01 01:20:13.940, 1.001, 0.001, 0.205, -0.916, -0.061, 0, 0.099, -78.536, 162.411, -26.747, -10.100, -9.007, 28.7, 0.11734, 0.62567, -0.09543, 0.76523,
 14:57:40.577,e3:ca:2d:fd:e0:8c, 2015-01-01 01:20:13.940, 1.002, -0.001, 0.205, -1.099, -0.122, 0, 0.082, -78.541, 162.411, -26.747, -10.100, -9.007, 28.7, 0.11734, 0.62567, -0.09543, 0.76523,
 14:57:40.581,ed:35:33:d3:6c:f8, 2015-01-01 01:20:12.925, 0.56, 0.085, 0.818, -1.465, 0.183, -0.305, 6.306, -34.107, 148.37, -14.700, -12.580, -29.607, 31.56, -0.24408, -0.29709, 0.02899, -0.92261,
 14:57:40.581,ed:35:33:d3:6c:f8, 2015-01-01 01:20:12.925, 0.56, 0.084, 0.817, -1.343, 0.061, -0.244, 6.279, -34.102, 148.381, -14.700, -12.580, -29.607, 31.56, -0.24408, -0.29709, 0.02899, -0.92261,
 14:57:40.585,f6:90:cc:01:6d:25, 2015-01-01 01:20:11.445, 0.941, 0.016, 0.3, -0.916, -0.366, 0, 3.615, -72.328, -161.186, -29.280, -10.960, -4.460, 31.48, -0.15073, 0.57736, 0.12207, 0.79306,
 14:57:40.585,f6:90:cc:01:6d:25, 2015-01-01 01:20:11.445, 0.942, 0.015, 0.298, -0.61, -0.183, 0, 3.604, -72.334, -161.186, -29.280, -10.960, -4.460, 31.48, -0.15073, 0.57736, 0.12207, 0.79306,
 14:57:40.634,ed:40:fe:65:30:6c, 2015-01-01 01:20:24.700, 0.6, 0.079, 0.8, -1.16, -0.427, -0.183, 6.191, -36.727, -133.621, -18.473, -11.587, -4.253, 27.09, -0.38913, 0.26837, 0.17133, 0.86435,
 14:57:40.634,ed:40:fe:65:30:6c, 2015-01-01 01:20:24.700, 0.601, 0.076, 0.796, -1.16, -0.427, -0.122, 6.169, -36.733, -133.627, -18.473, -11.587, -4.253, 27.09, -0.38913, 0.26837, 0.17133, 0.86435,
 14:57:40.634,ed:40:fe:65:30:6c, 2015-01-01 01:20:24.700, 0.598, 0.079, 0.797, -0.244, -0.122, -0.061, 6.163, -36.733, -133.632, -18.473, -11.587, -4.253, 27.09, -0.38913, 0.26837, 0.17133, 0.86435,
 14:57:40.634,ed:40:fe:65:30:6c, 2015-01-01 01:20:24.700, 0.6, 0.083, 0.796, 0.488, -0.061, 0.183, 6.163, -36.738, -133.638, -18.473, -11.587, -4.253, 27.09, -0.38913, 0.26837, 0.17133, 0.86435,
 14:57:40.639,e3:ca:2d:fd:e0:8c, 2015-01-01 01:20:13.940, 1.001, -0.002, 0.204, -0.854, -0.122, 0, 0.066, -78.541, 162.411, -26.747, -10.100, -9.007, 28.7, 0.11734, 0.62567, -0.09543, 0.76523,
 14:57:40.639,e3:ca:2d:fd:e0:8c, 2015-01-01 01:20:13.940, 1, -0.002, 0.204, -0.549, 0, 0, 0.055, -78.541, 162.416, -26.747, -10.100, -9.007, 28.7, 0.11734, 0.62567, -0.09543, 0.76523,
 14:57:40.641,ed:35:33:d3:6c:f8, 2015-01-01 01:20:12.925, 0.557, 0.091, 0.817, -0.305, 0.122, 0.061, 6.268, -34.102, 148.403, -14.700, -12.580, -29.607, 31.56, -0.24408, -0.29709, 0.02899, -0.92261,
 14:57:40.641,ed:35:33:d3:6c:f8, 2015-01-01 01:20:12.925, 0.558, 0.091, 0.818, 0.305, 0.244, 0.122, 6.262, -34.096, 148.425, -14.700, -12.580, -29.607, 31.56, -0.24408, -0.29709, 0.02899, -0.92261,
 14:57:40.645,f6:90:cc:01:6d:25, 2015-01-01 01:20:11.445, 0.941, 0.015, 0.297, -0.305, 0, 0, 3.598, -72.334, -161.186, -29.280, -10.960, -4.460, 31.48, -0.15015, 0.57776, 0.12143, 0.79297,
 14:57:40.645,f6:90:cc:01:6d:25, 2015-01-01 01:20:11.445, 0.94, 0.016, 0.297, 0, 0.061, 0, 3.593, -72.334, -161.186, -29.280, -10.960, -4.460, 31.48, -0.15015, 0.57776, 0.12143, 0.79297,
 14:57:40.665,ed:40:fe:65:30:6c, 2015-01-01 01:20:24.700, 0.599, 0.08, 0.798, 1.221, -0.061, 0.244, 6.174, -36.744, -133.638, -18.473, -11.587, -4.253, 27.09, -0.3887, 0.26904, 0.1709, 0.86441,
 14:57:40.665,ed:40:fe:65:30:6c, 2015-01-01 01:20:24.700, 0.6, 0.082, 0.797, 1.343, 0, 0.183, 6.196, -36.744, -133.632, -18.473, -11.587, -4.253, 27.09, -0.3887, 0.26904, 0.1709, 0.86441,
 14:57:40.667,e3:ca:2d:fd:e0:8c, 2015-01-01 01:20:13.940, 0.999, -0.004, 0.203, -0.183, 0.061, 0, 0.044, -78.541, 162.416, -26.747, -10.100, -9.007, 28.7, 0.11801, 0.62558, -0.09637, 0.76508,
 14:57:40.667,e3:ca:2d:fd:e0:8c, 2015-01-01 01:20:13.940, 1, -0.003, 0.202, 0, 0.061, 0, 0.038, -78.536, 162.422, -26.747, -10.100, -9.007, 28.7, 0.11801, 0.62558, -0.09637, 0.76508,
 14:57:40.672,ed:35:33:d3:6c:f8, 2015-01-01 01:20:12.925, 0.557, 0.089, 0.818, 0.671, 0.244, 0, 6.273, -34.096, 148.436, -14.700, -12.580, -29.607, 31.56, -0.24408, -0.29709, 0.02899, -0.92261,
 14:57:40.672,ed:35:33:d3:6c:f8, 2015-01-01 01:20:12.925, 0.557, 0.087, 0.818, 1.038, 0.305, 0.122, 6.29, -34.091, 148.464, -14.700, -12.580, -29.607, 31.56, -0.24408, -0.29709, 0.02899, -0.92261,
 14:57:40.699,e3:ca:2d:fd:e0:8c, 2015-01-01 01:20:13.940, 0.999, -0.002, 0.202, -0.061, 0, 0, 0.033, -78.536, 162.422, -26.747, -10.100, -9.007, 28.7, 0.11801, 0.62558, -0.09637, 0.76508,
 14:57:40.699,e3:ca:2d:fd:e0:8c, 2015-01-01 01:20:13.940, 0.999, 0, 0.201, 0, 0, 0, 0.027, -78.536, 162.422, -26.747, -10.100, -9.007, 28.7, 0.11801, 0.62558, -0.09637, 0.76508,
 14:57:40.701,ed:35:33:d3:6c:f8, 2015-01-01 01:20:12.925, 0.558, 0.089, 0.817, 1.099, 0.427, 0.183, 6.306, -34.085, 148.469, -14.393, -12.493, -29.967, 31.56, -0.24408, -0.29709, 0.02899, -0.92261,
 14:57:40.701,ed:35:33:d3:6c:f8, 2015-01-01 01:20:12.925, 0.557, 0.093, 0.819, 0.854, 0.549, 0.061, 6.323, -34.074, 148.469, -14.393, -12.493, -29.967, 31.56, -0.24408, -0.29709, 0.02899, -0.92261,
 14:57:40.705,f6:90:cc:01:6d:25, 2015-01-01 01:20:11.805, 0.94, 0.015, 0.297, 0.244, 0, 0, 3.593, -72.334, -161.186, -29.280, -10.960, -4.460, 31.48, -0.15015, 0.57776, 0.12143, 0.79297,
 14:57:40.705,f6:90:cc:01:6d:25, 2015-01-01 01:20:11.805, 0.939, 0.016, 0.298, 0.305, 0, 0, 3.593, -72.334, -161.186, -29.280, -10.960, -4.460, 31.48, -0.15015, 0.57776, 0.12143, 0.79297,
 14:57:40.705,f6:90:cc:01:6d:25, 2015-01-01 01:20:11.805, 0.939, 0.018, 0.297, 0.305, 0, 0, 3.593, -72.339, -161.186, -29.280, -10.960, -4.460, 31.48, -0.15015, 0.57776, 0.12143, 0.79297,
 14:57:40.705,f6:90:cc:01:6d:25, 2015-01-01 01:20:11.805, 0.939, 0.02, 0.297, 0.183, -0.061, 0, 3.598, -72.339, -161.186, -29.280, -10.960, -4.460, 31.48, -0.15015, 0.57776, 0.12143, 0.79297,
 14:57:40.725,ed:40:fe:65:30:6c, 2015-01-01 01:20:24.700, 0.6, 0.085, 0.797, 1.282, 0, 0.061, 6.213, -36.744, -133.632, -18.473, -11.587, -4.253, 27.09, -0.3887, 0.26904, 0.1709, 0.86441,
 14:57:40.725,ed:40:fe:65:30:6c, 2015-01-01 01:20:24.700, 0.6, 0.089, 0.799, 0.793, 0, 0, 6.235, -36.744, -133.632, -18.473, -11.587, -4.253, 27.09, -0.3887, 0.26904, 0.1709, 0.86441,
 14:57:40.729,e3:ca:2d:fd:e0:8c, 2015-01-01 01:20:14.355, 1, 0.002, 0.2, 0.061, 0, 0, 0.027, -78.536, 162.427, -26.747, -10.100, -9.007, 28.7, 0.11801, 0.62558, -0.09637, 0.76508,
 14:57:40.729,e3:ca:2d:fd:e0:8c, 2015-01-01 01:20:14.355, 1.001, 0.003, 0.202, -0.061, -0.183, 0, 0.027, -78.541, 162.427, -26.747, -10.100, -9.007, 28.7, 0.11801, 0.62558, -0.09637, 0.76508,
 14:57:40.754,ed:40:fe:65:30:6c, 2015-01-01 01:20:25.090, 0.601, 0.086, 0.799, 0.183, -0.061, -0.061, 6.246, -36.744, -133.627, -18.473, -11.587, -4.253, 27.09, -0.3887, 0.26904, 0.1709, 0.86441,
 14:57:40.754,ed:40:fe:65:30:6c, 2015-01-01 01:20:25.090, 0.602, 0.085, 0.799, -0.061, -0.061, -0.183, 6.246, -36.744, -133.621, -18.473, -11.587, -4.253, 27.09, -0.3887, 0.26904, 0.1709, 0.86441,
 14:57:40.760,ed:35:33:d3:6c:f8, 2015-01-01 01:20:12.925, 0.558, 0.095, 0.822, 0.366, 0.549, -0.061, 6.334, -34.063, 148.464, -14.393, -12.493, -29.967, 31.56, -0.24408, -0.29709, 0.02899, -0.92261,
 14:57:40.760,ed:35:33:d3:6c:f8, 2015-01-01 01:20:12.925, 0.558, 0.093, 0.822, -0.183, 0.305, -0.244, 6.339, -34.058, 148.458, -14.393, -12.493, -29.967, 31.56, -0.24408, -0.29709, 0.02899, -0.92261,
 14:57:40.764,f6:90:cc:01:6d:25, 2015-01-01 01:20:11.805, 0.941, 0.021, 0.296, 0.122, -0.183, 0, 3.598, -72.339, -161.186, -29.280, -10.960, -4.460, 31.48, -0.15015, 0.57776, 0.12143, 0.79297,
 14:57:40.764,f6:90:cc:01:6d:25, 2015-01-01 01:20:11.805, 0.943, 0.021, 0.297, 0, -0.244, 0, 3.598, -72.345, -161.186, -29.280, -10.960, -4.460, 31.48, -0.15015, 0.57776, 0.12143, 0.79297,
 14:57:40.789,e3:ca:2d:fd:e0:8c, 2015-01-01 01:20:14.355, 1.003, 0.003, 0.201, -0.183, -0.183, 0, 0.022, -78.547, 162.427, -26.747, -10.100, -9.007, 28.7, 0.11801, 0.62558, -0.09637, 0.76508,
 14:57:40.789,e3:ca:2d:fd:e0:8c, 2015-01-01 01:20:14.355, 1.004, 0.003, 0.202, -0.366, -0.122, 0, 0.022, -78.547, 162.433, -26.747, -10.100, -9.007, 28.7, 0.11801, 0.62558, -0.09637, 0.76508,
 14:57:40.791,ed:35:33:d3:6c:f8, 2015-01-01 01:20:12.925, 0.56, 0.094, 0.821, -0.549, 0.244, -0.305, 6.334, -34.052, 148.469, -14.393, -12.493, -29.967, 31.56, -0.24384, -0.29578, 0.02856, -0.92313,
 14:57:40.791,ed:35:33:d3:6c:f8, 2015-01-01 01:20:12.925, 0.558, 0.095, 0.819, -0.61, 0.122, -0.305, 6.328, -34.047, 148.486, -14.393, -12.493, -29.967, 31.56, -0.24384, -0.29578, 0.02856, -0.92313,
 14:57:40.795,f6:90:cc:01:6d:25, 2015-01-01 01:20:11.805, 0.944, 0.021, 0.296, -0.122, -0.305, 0, 3.598, -72.356, -161.191, -29.280, -10.960, -4.460, 31.48, -0.15015, 0.57776, 0.12143, 0.79297,
 14:57:40.795,f6:90:cc:01:6d:25, 2015-01-01 01:20:11.805, 0.943, 0.02, 0.296, -0.183, -0.244, 0, 3.598, -72.361, -161.191, -29.280, -10.960, -4.460, 31.48, -0.15015, 0.57776, 0.12143, 0.79297,
 14:57:40.819,e3:ca:2d:fd:e0:8c, 2015-01-01 01:20:14.355, 1.003, 0.002, 0.202, -0.366, -0.122, 0, 0.016, -78.552, 162.433, -26.747, -10.100, -9.007, 28.7, 0.11801, 0.62558, -0.09637, 0.76508,
 14:57:40.819,e3:ca:2d:fd:e0:8c, 2015-01-01 01:20:14.355, 1.002, 0.002, 0.202, -0.366, 0, 0, 0.016, -78.552, 162.433, -26.747, -10.100, -9.007, 28.7, 0.11801, 0.62558, -0.09637, 0.76508,
 14:57:40.821,ed:35:33:d3:6c:f8, 2015-01-01 01:20:12.925, 0.558, 0.094, 0.818, -0.366, 0.061, -0.305, 6.323, -34.041, 148.48, -14.393, -12.493, -29.967, 31.56, -0.24384, -0.29578, 0.02856, -0.92313,
 14:57:40.821,ed:35:33:d3:6c:f8, 2015-01-01 01:20:12.925, 0.555, 0.092, 0.82, -0.305, 0, -0.366, 6.323, -34.041, 148.458, -14.393, -12.493, -29.967, 31.56, -0.24384, -0.29578, 0.02856, -0.92313,
 14:57:40.825,f6:90:cc:01:6d:25, 2015-01-01 01:20:11.805, 0.942, 0.021, 0.295, -0.183, -0.122, 0, 3.598, -72.361, -161.191, -29.280, -10.960, -4.460, 31.48, -0.15015, 0.57776, 0.12143, 0.79297,
 14:57:40.825,f6:90:cc:01:6d:25, 2015-01-01 01:20:11.805, 0.941, 0.02, 0.296, -0.183, 0, 0, 3.593, -72.367, -161.191, -29.280, -10.960, -4.460, 31.48, -0.15015, 0.57776, 0.12143, 0.79297,
 14:57:40.847,ed:40:fe:65:30:6c, 2015-01-01 01:20:25.090, 0.602, 0.087, 0.798, -0.183, -0.244, -0.122, 6.246, -36.744, -133.621, -18.473, -11.587, -4.253, 27.09, -0.3887, 0.26904, 0.1709, 0.86441,
 14:57:40.847,ed:40:fe:65:30:6c, 2015-01-01 01:20:25.090, 0.601, 0.087, 0.796, -0.244, -0.244, -0.061, 6.24, -36.749, -133.627, -18.473, -11.587, -4.253, 27.09, -0.3887, 0.26904, 0.1709, 0.86441,
 14:57:40.847,ed:40:fe:65:30:6c, 2015-01-01 01:20:25.090, 0.599, 0.085, 0.797, -0.061, -0.305, -0.061, 6.235, -36.755, -133.627, -18.473, -11.587, -4.253, 27.09, -0.3887, 0.26904, 0.1709, 0.86441,
 14:57:40.847,ed:40:fe:65:30:6c, 2015-01-01 01:20:25.090, 0.598, 0.085, 0.797, 0, -0.488, -0.061, 6.235, -36.766, -133.616, -18.473, -11.587, -4.253, 27.09, -0.3887, 0.26904, 0.1709, 0.86441,
 14:57:40.849,e3:ca:2d:fd:e0:8c, 2015-01-01 01:20:14.355, 1, 0, 0.202, -0.427, 0, 0, 0.011, -78.552, 162.433, -26.747, -10.100, -9.007, 28.7, 0.11801, 0.62558, -0.09637, 0.76508,
 14:57:40.849,e3:ca:2d:fd:e0:8c, 2015-01-01 01:20:14.355, 0.998, -0.001, 0.202, -0.488, 0.061, 0, 0.005, -78.552, 162.438, -26.747, -10.100, -9.007, 28.7, 0.11801, 0.62558, -0.09637, 0.76508,
 14:57:40.874,ed:40:fe:65:30:6c, 2015-01-01 01:20:25.090, 0.6, 0.087, 0.799, -0.061, -0.61, -0.061, 6.235, -36.777, -133.621, -18.473, -11.587, -4.253, 27.09, -0.3887, 0.26904, 0.1709, 0.86441,
 14:57:40.874,ed:40:fe:65:30:6c, 2015-01-01 01:20:25.090, 0.6, 0.083, 0.798, -0.183, -0.549, 0, 6.235, -36.788, -133.627, -18.473, -11.587, -4.253, 27.09, -0.3887, 0.26904, 0.1709, 0.86441,
 14:57:40.880,ed:35:33:d3:6c:f8, 2015-01-01 01:20:13.340, 0.555, 0.094, 0.821, -0.305, 0.061, -0.549, 6.323, -34.041, 148.414, -14.393, -12.493, -29.967, 31.56, -0.24384, -0.29578, 0.02856, -0.92313,
 14:57:40.880,ed:35:33:d3:6c:f8, 2015-01-01 01:20:13.340, 0.557, 0.094, 0.822, -0.366, 0.061, -0.549, 6.328, -34.041, 148.359, -14.393, -12.493, -29.967, 31.56, -0.24384, -0.29578, 0.02856, -0.92313,
 14:57:40.884,f6:90:cc:01:6d:25, 2015-01-01 01:20:11.805, 0.939, 0.018, 0.297, -0.183, 0, 0, 3.593, -72.367, -161.191, -29.280, -10.960, -4.460, 31.48, -0.15015, 0.57776, 0.12143, 0.79297,
 14:57:40.884,f6:90:cc:01:6d:25, 2015-01-01 01:20:11.805, 0.94, 0.017, 0.296, -0.183, 0, 0, 3.593, -72.367, -161.191, -29.280, -10.960, -4.460, 31.48, -0.15015, 0.57776, 0.12143, 0.79297,
 14:57:40.911,ed:35:33:d3:6c:f8, 2015-01-01 01:20:13.340, 0.555, 0.091, 0.821, -0.488, -0.183, -0.366, 6.328, -34.041, 148.332, -14.393, -12.493, -29.967, 31.56, -0.24384, -0.29578, 0.02856, -0.92313,
 14:57:40.911,ed:35:33:d3:6c:f8, 2015-01-01 01:20:13.340, 0.557, 0.091, 0.817, -0.427, -0.305, 0.061, 6.323, -34.041, 148.315, -14.393, -12.493, -29.967, 31.56, -0.24384, -0.29578, 0.02856, -0.92313,
 14:57:40.914,f6:90:cc:01:6d:25, 2015-01-01 01:20:11.805, 0.94, 0.017, 0.298, -0.244, -0.061, 0, 3.587, -72.372, -161.191, -29.267, -10.807, -3.880, 31.48, -0.15015, 0.57776, 0.12143, 0.79297,
 14:57:40.914,f6:90:cc:01:6d:25, 2015-01-01 01:20:11.805, 0.941, 0.017, 0.297, -0.244, -0.061, 0, 3.582, -72.372, -161.191, -29.267, -10.807, -3.880, 31.48, -0.15015, 0.57776, 0.12143, 0.79297,
 14:57:40.934,ed:40:fe:65:30:6c, 2015-01-01 01:20:25.090, 0.598, 0.081, 0.797, -0.183, -0.427, 0.183, 6.229, -36.799, -133.632, -18.473, -11.587, -4.253, 27.09, -0.3887, 0.26904, 0.1709, 0.86441,
 14:57:40.934,ed:40:fe:65:30:6c, 2015-01-01 01:20:25.090, 0.601, 0.082, 0.795, 0.122, -0.305, 0.305, 6.224, -36.804, -133.632, -18.473, -11.587, -4.253, 27.09, -0.3887, 0.26904, 0.1709, 0.86441,
 14:57:40.938,e3:ca:2d:fd:e0:8c, 2015-01-01 01:20:14.355, 0.999, -0.001, 0.202, -0.488, 0.061, 0, 0, -78.552, 162.438, -26.747, -10.100, -9.007, 28.7, 0.11801, 0.62558, -0.09637, 0.76508,
 14:57:40.938,e3:ca:2d:fd:e0:8c, 2015-01-01 01:20:14.355, 1, -0.002, 0.202, -0.427, 0, 0, -0.005, -78.552, 162.438, -26.747, -10.100, -9.007, 28.7, 0.11801, 0.62558, -0.09637, 0.76508,
 14:57:40.941,ed:35:33:d3:6c:f8, 2015-01-01 01:20:13.340, 0.558, 0.091, 0.817, -0.061, -0.061, 0.305, 6.317, -34.047, 148.321, -14.393, -12.493, -29.967, 31.56, -0.24384, -0.29578, 0.02856, -0.92313,
 14:57:40.941,ed:35:33:d3:6c:f8, 2015-01-01 01:20:13.340, 0.558, 0.089, 0.817, 0.122, 0.122, 0.427, 6.312, -34.047, 148.343, -14.393, -12.493, -29.967, 31.56, -0.24384, -0.29578, 0.02856, -0.92313,
 14:57:40.945,f6:90:cc:01:6d:25, 2015-01-01 01:20:11.805, 0.941, 0.016, 0.297, -0.122, -0.122, 0, 3.576, -72.378, -161.191, -29.267, -10.807, -3.880, 31.48, -0.15015, 0.57776, 0.12143, 0.79297,
 14:57:40.945,f6:90:cc:01:6d:25, 2015-01-01 01:20:11.805, 0.941, 0.014, 0.297, 0.061, -0.122, 0, 3.576, -72.378, -161.197, -29.267, -10.807, -3.880, 31.48, -0.15015, 0.57776, 0.12143, 0.79297,
 14:57:40.964,ed:40:fe:65:30:6c, 2015-01-01 01:20:25.090, 0.602, 0.082, 0.796, 0.427, -0.244, 0.366, 6.218, -36.81, -133.616, -18.527, -11.253, -4.533, 27.09, -0.3887, 0.26904, 0.1709, 0.86441,
 14:57:40.964,ed:40:fe:65:30:6c, 2015-01-01 01:20:25.090, 0.601, 0.079, 0.795, 0.488, -0.061, 0.671, 6.218, -36.815, -133.605, -18.527, -11.253, -4.533, 27.09, -0.3887, 0.26904, 0.1709, 0.86441,
 14:57:40.969,e3:ca:2d:fd:e0:8c, 2015-01-01 01:20:14.355, 1, -0.002, 0.202, -0.305, 0, 0, -0.011, -78.552, 162.444, -26.807, -9.620, -8.807, 28.7, 0.11801, 0.62558, -0.09637, 0.76508,
 14:57:40.969,e3:ca:2d:fd:e0:8c, 2015-01-01 01:20:14.355, 1.001, -0.002, 0.203, -0.183, 0, 0, -0.016, -78.552, 162.444, -26.807, -9.620, -8.807, 28.7, 0.11801, 0.62558, -0.09637, 0.76508,
 14:57:40.995,ed:40:fe:65:30:6c, 2015-01-01 01:20:25.090, 0.603, 0.083, 0.795, 0.977, 0, 0.549, 6.218, -36.815, -133.588, -18.527, -11.253, -4.533, 27.09, -0.3887, 0.26904, 0.1709, 0.86441,
 14:57:40.995,ed:40:fe:65:30:6c, 2015-01-01 01:20:25.090, 0.603, 0.086, 0.798, 1.282, 0.183, 0.183, 6.229, -36.821, -133.577, -18.527, -11.253, -4.533, 27.09, -0.3887, 0.26904, 0.1709, 0.86441,
 14:57:40.997,e3:ca:2d:fd:e0:8c, 2015-01-01 01:20:14.355, 1, -0.003, 0.204, -0.061, 0, 0, -0.022, -78.552, 162.444, -26.807, -9.620, -8.807, 28.7, 0.11801, 0.62558, -0.09637, 0.76508,
 14:57:40.997,e3:ca:2d:fd:e0:8c, 2015-01-01 01:20:14.355, 1.001, -0.003, 0.203, 0.061, 0, 0, -0.027, -78.552, 162.449, -26.807, -9.620, -8.807, 28.7, 0.11801, 0.62558, -0.09637, 0.76508,
 14:57:41.001,ed:35:33:d3:6c:f8, 2015-01-01 01:20:13.340, 0.558, 0.088, 0.817, 0.488, 0.122, 0.671, 6.312, -34.047, 148.37, -14.393, -12.493, -29.967, 31.56, -0.24384, -0.29578, 0.02856, -0.92313,
 14:57:41.001,ed:35:33:d3:6c:f8, 2015-01-01 01:20:13.340, 0.56, 0.088, 0.816, 0.977, 0.427, 0.549, 6.317, -34.041, 148.398, -14.393, -12.493, -29.967, 31.56, -0.24384, -0.29578, 0.02856, -0.92313,
 14:57:41.005,f6:90:cc:01:6d:25, 2015-01-01 01:20:11.805, 0.942, 0.015, 0.297, 0.122, 0, 0, 3.576, -72.378, -161.197, -29.267, -10.807, -3.880, 31.48, -0.14993, 0.57812, 0.12125, 0.79279,
 14:57:41.005,f6:90:cc:01:6d:25, 2015-01-01 01:20:11.805, 0.943, 0.017, 0.297, 0.061, 0.122, 0, 3.571, -72.378, -161.191, -29.267, -10.807, -3.880, 31.48, -0.14993, 0.57812, 0.12125, 0.79279,
 14:57:41.028,e3:ca:2d:fd:e0:8c, 2015-01-01 01:20:14.355, 1.002, -0.002, 0.203, 0.122, 0.061, 0, -0.033, -78.552, 162.449, -26.807, -9.620, -8.807, 28.7, 0.11801, 0.62558, -0.09637, 0.76508,
 14:57:41.028,e3:ca:2d:fd:e0:8c, 2015-01-01 01:20:14.355, 1.002, 0, 0.203, -0.061, 0.183, 0, -0.038, -78.547, 162.449, -26.807, -9.620, -8.807, 28.7, 0.11801, 0.62558, -0.09637, 0.76508,
 14:57:41.030,ed:35:33:d3:6c:f8, 2015-01-01 01:20:13.340, 0.559, 0.092, 0.82, 1.16, 0.732, 0.122, 6.334, -34.03, 148.414, -14.393, -12.493, -29.967, 31.56, -0.24384, -0.29578, 0.02856, -0.92313,
 14:57:41.030,ed:35:33:d3:6c:f8, 2015-01-01 01:20:13.340, 0.559, 0.094, 0.824, 1.099, 0.854, 0.122, 6.356, -34.019, 148.447, -14.393, -12.493, -29.967, 31.56, -0.24384, -0.29578, 0.02856, -0.92313,
 14:57:41.055,ed:40:fe:65:30:6c, 2015-01-01 01:20:25.090, 0.602, 0.086, 0.8, 1.282, 0.427, 0.061, 6.246, -36.815, -133.566, -18.527, -11.253, -4.533, 27.09, -0.38916, 0.26947, 0.17169, 0.86392,
 14:57:41.055,ed:40:fe:65:30:6c, 2015-01-01 01:20:25.090, 0.602, 0.083, 0.8, 0.732, 0.488, 0.244, 6.268, -36.804, -133.555, -18.527, -11.253, -4.533, 27.09, -0.38916, 0.26947, 0.17169, 0.86392,
 14:57:41.057,e3:ca:2d:fd:e0:8c, 2015-01-01 01:20:14.355, 1.002, 0.001, 0.202, 0, 0.244, 0, -0.038, -78.541, 162.449, -26.807, -9.620, -8.807, 28.7, 0.11826, 0.62558, -0.0968, 0.76498,
 14:57:41.057,e3:ca:2d:fd:e0:8c, 2015-01-01 01:20:14.355, 1.003, -0.001, 0.202, 0.061, 0.122, 0, -0.038, -78.541, 162.455, -26.807, -9.620, -8.807, 28.7, 0.11826, 0.62558, -0.0968, 0.76498,
 14:57:41.061,ed:35:33:d3:6c:f8, 2015-01-01 01:20:13.340, 0.557, 0.09, 0.825, 0.183, 0.671, 0.183, 6.361, -34.003, 148.48, -14.593, -12.813, -29.773, 31.56, -0.24384, -0.29578, 0.02856, -0.92313,
 14:57:41.061,ed:35:33:d3:6c:f8, 2015-01-01 01:20:13.340, 0.555, 0.089, 0.823, -0.061, 0.366, 0.244, 6.361, -33.992, 148.513, -14.593, -12.813, -29.773, 31.56, -0.24384, -0.29578, 0.02856, -0.92313,
 14:57:41.063,f6:90:cc:01:6d:25, 2015-01-01 01:20:12.160, 0.942, 0.019, 0.297, 0, 0.183, 0.305, 3.549, -72.378, -161.175, -29.267, -10.807, -3.880, 31.48, -0.14993, 0.57812, 0.12125, 0.79279,
 14:57:41.063,f6:90:cc:01:6d:25, 2015-01-01 01:20:12.160, 0.942, 0.019, 0.298, 0.183, 0.061, 0.183, 3.538, -72.378, -161.158, -29.267, -10.807, -3.880, 31.48, -0.14993, 0.57812, 0.12125, 0.79279,
 14:57:41.065,f6:90:cc:01:6d:25, 2015-01-01 01:20:12.160, 0.943, 0.016, 0.297, 0.244, 0.122, 0, 3.543, -72.372, -161.158, -29.267, -10.807, -3.880, 31.48, -0.14993, 0.57812, 0.12125, 0.79279,
 14:57:41.065,f6:90:cc:01:6d:25, 2015-01-01 01:20:12.160, 0.942, 0.017, 0.297, 0.122, 0.122, 0, 3.538, -72.372, -161.158, -29.267, -10.807, -3.880, 31.48, -0.14993, 0.57812, 0.12125, 0.79279,
 14:57:41.085,ed:40:fe:65:30:6c, 2015-01-01 01:20:25.445, 0.6, 0.082, 0.801, 0.122, 0.671, 0.244, 6.268, -36.799, -133.55, -18.527, -11.253, -4.533, 27.09, -0.38916, 0.26947, 0.17169, 0.86392,
 14:57:41.085,ed:40:fe:65:30:6c, 2015-01-01 01:20:25.445, 0.6, 0.082, 0.796, 0.183, 0.61, 0.183, 6.262, -36.782, -133.544, -18.527, -11.253, -4.533, 27.09, -0.38916, 0.26947, 0.17169, 0.86392,
 14:57:41.089,e3:ca:2d:fd:e0:8c, 2015-01-01 01:20:14.355, 1.001, 0, 0.201, -0.061, 0.122, 0, -0.044, -78.536, 162.455, -26.807, -9.620, -8.807, 28.7, 0.11826, 0.62558, -0.0968, 0.76498,
 14:57:41.089,e3:ca:2d:fd:e0:8c, 2015-01-01 01:20:14.355, 0.999, 0, 0.2, -0.244, 0.122, 0, -0.049, -78.536, 162.455, -26.807, -9.620, -8.807, 28.7, 0.11826, 0.62558, -0.0968, 0.76498,
 14:57:41.115,ed:40:fe:65:30:6c, 2015-01-01 01:20:25.445, 0.599, 0.084, 0.794, 0.244, 0.244, 0.183, 6.262, -36.777, -133.539, -18.527, -11.253, -4.533, 27.09, -0.38916, 0.26947, 0.17169, 0.86392,
 14:57:41.115,ed:40:fe:65:30:6c, 2015-01-01 01:20:25.445, 0.598, 0.088, 0.795, 0.122, 0.061, 0.183, 6.257, -36.771, -133.533, -18.527, -11.253, -4.533, 27.09, -0.38916, 0.26947, 0.17169, 0.86392,
