Time,Device name,Chip Time(),Acceleration X(g),Acceleration Y(g),Acceleration Z(g),Angular velocity X(°/s),Angular velocity Y(°/s),Angular velocity Z(°/s),Angle X(°),Angle Y(°),Angle Z(°),Magnetic field X(ʯt),Magnetic field Y(ʯt),Magnetic field Z(ʯt),Temperature(℃),Quaternions 0(),Quaternions 1(),Quaternions 2(),Quaternions 3()
 15:53:00.377,ed:40:fe:65:30:6c, 2015-01-01 02:15:21.220, 0.604, -0.375, 0.718, 0.183, -0.061, 0.183, -27.213, -37.194, -101.843, -20.353, -0.180, -5.653, 24.7, -0.52176, 0.38168, 0.02301, 0.76251,
 15:53:00.377,ed:40:fe:65:30:6c, 2015-01-01 02:15:21.220, 0.607, -0.372, 0.715, 0.366, -0.366, 0.122, -27.213, -37.194, -101.854, -20.353, -0.180, -5.653, 24.7, -0.52176, 0.38168, 0.02301, 0.76251,
 15:53:00.377,ed:40:fe:65:30:6c, 2015-01-01 02:15:21.220, 0.604, -0.367, 0.713, 0.305, -0.244, 0.122, -27.213, -37.194, -101.854, -20.353, -0.180, -5.653, 24.7, -0.52176, 0.38168, 0.02301, 0.76251,
 15:53:00.377,ed:40:fe:65:30:6c, 2015-01-01 02:15:21.220, 0.607, -0.372, 0.715, 0.366, -0.366, 0.122, -27.213, -37.194, -101.854, -20.353, -0.180, -5.653, 24.7, -0.52176, 0.38168, 0.02301, 0.76251,
 15:53:00.381,ed:35:33:d3:6c:f8, 2015-01-01 02:15:09.310, 0.388, -0.405, 0.828, -0.427, -0.244, 0.122, -25.84, -23.67, 169.547, -10.707, -0.587, -33.153, 27.25, 0.13345, 0.17911, -0.23621, 0.94562,
 15:53:00.381,ed:35:33:d3:6c:f8, 2015-01-01 02:15:09.310, 0.395, -0.405, 0.823, 0, -0.61, 0.183, -25.845, -23.676, 169.59, -10.707, -0.587, -33.153, 27.25, 0.13345, 0.17911, -0.23621, 0.94562,
 15:53:00.381,ed:35:33:d3:6c:f8, 2015-01-01 02:15:09.310, 0.388, -0.4, 0.818, 0.305, -0.488, -0.061, -25.84, -23.681, 169.629, -10.707, -0.587, -33.153, 27.25, 0.13345, 0.17911, -0.23621, 0.94562,
 15:53:00.381,ed:35:33:d3:6c:f8, 2015-01-01 02:15:09.310, 0.395, -0.405, 0.823, 0, -0.61, 0.183, -25.845, -23.676, 169.59, -10.707, -0.587, -33.153, 27.25, 0.13345, 0.17911, -0.23621, 0.94562,
 15:53:00.385,f6:90:cc:01:6d:25, 2015-01-01 02:15:07.890, 0.927, -0.311, 0.132, 0.671, 0.366, 0, -65.852, -70.28, -112.72, -29.913, -3.347, -3.547, 29.84, 0.11932, -0.64853, 0.10278, -0.74463,
 15:53:00.385,f6:90:cc:01:6d:25, 2015-01-01 02:15:07.890, 0.926, -0.313, 0.135, 0.732, 0.427, 0, -65.819, -70.274, -112.764, -29.913, -3.347, -3.547, 29.84, 0.11932, -0.64853, 0.10278, -0.74463,
 15:53:00.385,f6:90:cc:01:6d:25, 2015-01-01 02:15:07.890, 0.927, -0.311, 0.136, 0.732, 0.427, -0.061, -65.792, -70.269, -112.802, -29.913, -3.347, -3.547, 29.84, 0.11932, -0.64853, 0.10278, -0.74463,
 15:53:00.385,f6:90:cc:01:6d:25, 2015-01-01 02:15:07.890, 0.926, -0.313, 0.135, 0.732, 0.427, 0, -65.819, -70.274, -112.764, -29.913, -3.347, -3.547, 29.84, 0.11932, -0.64853, 0.10278, -0.74463,
 15:53:00.385,f6:90:cc:01:6d:25, 2015-01-01 02:15:07.890, 0.93, -0.311, 0.136, 0.732, 0.427, -0.061, -65.792, -70.269, -112.802, -29.913, -3.347, -3.547, 29.84, 0.11932, -0.64853, 0.10278, -0.74463,
 15:53:00.385,f6:90:cc:01:6d:25, 2015-01-01 02:15:07.890, 0.93, -0.308, 0.141, 0.793, 0.427, -0.122, -65.753, -70.263, -112.83, -29.913, -3.347, -3.547, 29.84, 0.11932, -0.64853, 0.10278, -0.74463,
 15:53:00.386,f6:90:cc:01:6d:25, 2015-01-01 02:15:07.890, 0.93, -0.307, 0.14, 1.038, 0.427, -0.183, -65.715, -70.258, -112.857, -29.913, -3.347, -3.547, 29.84, 0.11932, -0.64853, 0.10278, -0.74463,
 15:53:00.386,f6:90:cc:01:6d:25, 2015-01-01 02:15:07.890, 0.93, -0.308, 0.141, 0.793, 0.427, -0.122, -65.753, -70.263, -112.83, -29.913, -3.347, -3.547, 29.84, 0.11932, -0.64853, 0.10278, -0.74463,
 15:53:00.405,ed:40:fe:65:30:6c, 2015-01-01 02:15:21.220, 0.605, -0.367, 0.713, 0.305, -0.244, 0.122, -27.213, -37.194, -101.854, -20.353, -0.180, -5.653, 24.7, -0.52234, 0.38116, 0.02225, 0.76242,
 15:53:00.405,ed:40:fe:65:30:6c, 2015-01-01 02:15:21.220, 0.601, -0.367, 0.714, 0.061, 0, 0.183, -27.213, -37.194, -101.854, -20.353, -0.180, -5.653, 24.7, -0.52234, 0.38116, 0.02225, 0.76242,
 15:53:00.405,ed:40:fe:65:30:6c, 2015-01-01 02:15:21.220, 0.605, -0.369, 0.715, 0, 0, 0.427, -27.219, -37.189, -101.86, -20.353, -0.180, -5.653, 24.7, -0.52234, 0.38116, 0.02225, 0.76242,
 15:53:00.405,ed:40:fe:65:30:6c, 2015-01-01 02:15:21.220, 0.601, -0.367, 0.714, 0.061, 0, 0.183, -27.213, -37.194, -101.854, -20.353, -0.180, -5.653, 24.7, -0.52234, 0.38116, 0.02225, 0.76242,
 15:53:00.411,ed:35:33:d3:6c:f8, 2015-01-01 02:15:09.725, 0.396, -0.4, 0.818, 0.305, -0.488, -0.061, -25.84, -23.681, 169.629, -10.707, -0.587, -33.153, 27.25, 0.13345, 0.17911, -0.23621, 0.94562,
 15:53:00.411,ed:35:33:d3:6c:f8, 2015-01-01 02:15:09.725, 0.391, -0.396, 0.818, 0, -0.305, 0, -25.845, -23.681, 169.651, -10.707, -0.587, -33.153, 27.25, 0.13345, 0.17911, -0.23621, 0.94562,
 15:53:00.411,ed:35:33:d3:6c:f8, 2015-01-01 02:15:09.725, 0.396, -0.397, 0.821, -0.61, -0.305, 0.183, -25.862, -23.681, 169.7, -10.707, -0.587, -33.153, 27.25, 0.13345, 0.17911, -0.23621, 0.94562,
 15:53:00.411,ed:35:33:d3:6c:f8, 2015-01-01 02:15:09.725, 0.391, -0.396, 0.818, 0, -0.305, 0, -25.845, -23.681, 169.651, -10.707, -0.587, -33.153, 27.25, 0.13345, 0.17911, -0.23621, 0.94562,
 15:53:00.415,f6:90:cc:01:6d:25, 2015-01-01 02:15:08.365, 0.926, -0.307, 0.14, 1.038, 0.427, -0.183, -65.715, -70.258, -112.857, -29.913, -3.347, -3.547, 29.84, 0.11932, -0.64853, 0.10278, -0.74463,
 15:53:00.415,f6:90:cc:01:6d:25, 2015-01-01 02:15:08.365, 0.925, -0.309, 0.141, 1.099, 0.61, -0.244, -65.66, -70.252, -112.879, -29.913, -3.347, -3.547, 29.84, 0.11932, -0.64853, 0.10278, -0.74463,
 15:53:00.415,f6:90:cc:01:6d:25, 2015-01-01 02:15:08.365, 0.926, -0.306, 0.14, 0.854, 0.671, -0.305, -65.605, -70.252, -112.917, -29.913, -3.347, -3.547, 29.84, 0.11932, -0.64853, 0.10278, -0.74463,
 15:53:00.415,f6:90:cc:01:6d:25, 2015-01-01 02:15:08.365, 0.925, -0.309, 0.141, 1.099, 0.61, -0.244, -65.66, -70.252, -112.879, -29.913, -3.347, -3.547, 29.84, 0.11932, -0.64853, 0.10278, -0.74463,
 15:53:00.440,e3:ca:2d:fd:e0:8c, 2015-01-01 02:15:10.290, 0.973, -0.312, 0.066, 0.793, 0, 0.061, -77.673, -72.103, -130.765, -27.020, -4.047, -7.227, 26.76, -0.07468, -0.62759, 0.27112, -0.72589,
 15:53:00.440,e3:ca:2d:fd:e0:8c, 2015-01-01 02:15:10.290, 0.976, -0.31, 0.067, 0.916, -0.061, 0, -77.662, -72.103, -130.726, -27.020, -4.047, -7.227, 26.76, -0.07468, -0.62759, 0.27112, -0.72589,
 15:53:00.440,e3:ca:2d:fd:e0:8c, 2015-01-01 02:15:10.290, 0.973, -0.307, 0.069, 1.038, -0.061, 0, -77.646, -72.103, -130.688, -27.020, -4.047, -7.227, 26.76, -0.07468, -0.62759, 0.27112, -0.72589,
 15:53:00.440,e3:ca:2d:fd:e0:8c, 2015-01-01 02:15:10.290, 0.976, -0.31, 0.067, 0.916, -0.061, 0, -77.662, -72.103, -130.726, -27.020, -4.047, -7.227, 26.76, -0.07468, -0.62759, 0.27112, -0.72589,
 15:53:00.442,ed:35:33:d3:6c:f8, 2015-01-01 02:15:09.725, 0.39, -0.397, 0.821, -0.61, -0.305, 0.183, -25.862, -23.681, 169.7, -10.707, -0.587, -33.153, 27.25, 0.13345, 0.17911, -0.23621, 0.94562,
 15:53:00.442,ed:35:33:d3:6c:f8, 2015-01-01 02:15:09.725, 0.393, -0.404, 0.82, -0.549, -0.488, 0.366, -25.878, -23.681, 169.744, -10.707, -0.587, -33.153, 27.25, 0.13345, 0.17911, -0.23621, 0.94562,
 15:53:00.442,ed:35:33:d3:6c:f8, 2015-01-01 02:15:09.725, 0.39, -0.402, 0.814, 0, -0.305, 0, -25.884, -23.681, 169.777, -10.707, -0.587, -33.153, 27.25, 0.13345, 0.17911, -0.23621, 0.94562,
 15:53:00.442,ed:35:33:d3:6c:f8, 2015-01-01 02:15:09.725, 0.393, -0.404, 0.82, -0.549, -0.488, 0.366, -25.878, -23.681, 169.744, -10.707, -0.587, -33.153, 27.25, 0.13345, 0.17911, -0.23621, 0.94562,
 15:53:00.466,ed:40:fe:65:30:6c, 2015-01-01 02:15:21.220, 0.602, -0.369, 0.715, 0, 0, 0.427, -27.219, -37.189, -101.86, -20.353, -0.180, -5.653, 24.7, -0.52234, 0.38116, 0.02225, 0.76242,
 15:53:00.466,ed:40:fe:65:30:6c, 2015-01-01 02:15:21.220, 0.606, -0.371, 0.712, 0.122, -0.122, 0.366, -27.224, -37.183, -101.854, -20.353, -0.180, -5.653, 24.7, -0.52234, 0.38116, 0.02225, 0.76242,
 15:53:00.466,ed:40:fe:65:30:6c, 2015-01-01 02:15:21.220, 0.602, -0.367, 0.713, 0.366, 0.061, 0.061, -27.224, -37.183, -101.838, -20.353, -0.180, -5.653, 24.7, -0.52234, 0.38116, 0.02225, 0.76242,
 15:53:00.466,ed:40:fe:65:30:6c, 2015-01-01 02:15:21.220, 0.606, -0.371, 0.712, 0.122, -0.122, 0.366, -27.224, -37.183, -101.854, -20.353, -0.180, -5.653, 24.7, -0.52234, 0.38116, 0.02225, 0.76242,
 15:53:00.470,e3:ca:2d:fd:e0:8c, 2015-01-01 02:15:10.290, 0.973, -0.307, 0.069, 1.038, -0.061, 0, -77.646, -72.103, -130.688, -27.020, -4.047, -7.227, 26.76, -0.07468, -0.62759, 0.27112, -0.72589,
 15:53:00.470,e3:ca:2d:fd:e0:8c, 2015-01-01 02:15:10.290, 0.97, -0.307, 0.069, 1.16, -0.183, 0.061, -77.635, -72.103, -130.66, -27.020, -4.047, -7.227, 26.76, -0.07468, -0.62759, 0.27112, -0.72589,
 15:53:00.470,e3:ca:2d:fd:e0:8c, 2015-01-01 02:15:10.290, 0.973, -0.306, 0.07, 1.099, -0.366, 0, -77.635, -72.103, -130.644, -27.020, -4.047, -7.227, 26.76, -0.07468, -0.62759, 0.27112, -0.72589,
 15:53:00.470,e3:ca:2d:fd:e0:8c, 2015-01-01 02:15:10.290, 0.97, -0.307, 0.069, 1.16, -0.183, 0.061, -77.635, -72.103, -130.66, -27.020, -4.047, -7.227, 26.76, -0.07468, -0.62759, 0.27112, -0.72589,
 15:53:00.502,ed:35:33:d3:6c:f8, 2015-01-01 02:15:09.725, 0.4, -0.402, 0.814, 0, -0.305, 0, -25.884, -23.681, 169.777, -10.707, -0.587, -33.153, 27.25, 0.13345, 0.17911, -0.23621, 0.94562,
 15:53:00.502,ed:35:33:d3:6c:f8, 2015-01-01 02:15:09.725, 0.397, -0.397, 0.819, 0.488, 0.305, -0.183, -25.873, -23.676, 169.799, -10.707, -0.587, -33.153, 27.25, 0.13345, 0.17911, -0.23621, 0.94562,
 15:53:00.502,ed:35:33:d3:6c:f8, 2015-01-01 02:15:09.725, 0.4, -0.396, 0.816, 0.549, 0.305, 0.366, -25.867, -23.665, 169.838, -10.707, -0.587, -33.153, 27.25, 0.13345, 0.17911, -0.23621, 0.94562,
 15:53:00.502,ed:35:33:d3:6c:f8, 2015-01-01 02:15:09.725, 0.397, -0.397, 0.819, 0.488, 0.305, -0.183, -25.873, -23.676, 169.799, -10.707, -0.587, -33.153, 27.25, 0.13345, 0.17911, -0.23621, 0.94562,
 15:53:00.504,f6:90:cc:01:6d:25, 2015-01-01 02:15:08.365, 0.928, -0.306, 0.14, 0.854, 0.671, -0.305, -65.605, -70.252, -112.917, -29.913, -3.347, -3.547, 29.84, 0.11932, -0.64853, 0.10278, -0.74463,
 15:53:00.504,f6:90:cc:01:6d:25, 2015-01-01 02:15:08.365, 0.931, -0.304, 0.144, 0.61, 0.61, -0.427, -65.55, -70.252, -112.945, -29.913, -3.347, -3.547, 29.84, 0.11932, -0.64853, 0.10278, -0.74463,
 15:53:00.504,f6:90:cc:01:6d:25, 2015-01-01 02:15:08.365, 0.928, -0.303, 0.143, 0.793, 0.549, -0.366, -65.5, -70.252, -112.972, -29.913, -3.347, -3.547, 29.84, 0.11932, -0.64853, 0.10278, -0.74463,
 15:53:00.504,f6:90:cc:01:6d:25, 2015-01-01 02:15:08.365, 0.931, -0.304, 0.144, 0.61, 0.61, -0.427, -65.55, -70.252, -112.945, -29.913, -3.347, -3.547, 29.84, 0.11932, -0.64853, 0.10278, -0.74463,
 15:53:00.506,f6:90:cc:01:6d:25, 2015-01-01 02:15:08.365, 0.931, -0.303, 0.143, 0.793, 0.549, -0.366, -65.5, -70.252, -112.972, -29.913, -3.347, -3.547, 29.84, 0.11932, -0.64853, 0.10278, -0.74463,
 15:53:00.506,f6:90:cc:01:6d:25, 2015-01-01 02:15:08.365, 0.926, -0.308, 0.141, 1.221, 0.671, -0.366, -65.435, -70.247, -113.005, -29.913, -3.347, -3.547, 29.84, 0.11932, -0.64853, 0.10278, -0.74463,
 15:53:00.506,f6:90:cc:01:6d:25, 2015-01-01 02:15:08.365, 0.931, -0.305, 0.138, 1.343, 0.732, -0.366, -65.363, -70.247, -113.044, -29.913, -3.347, -3.547, 29.84, 0.11932, -0.64853, 0.10278, -0.74463,
 15:53:00.506,f6:90:cc:01:6d:25, 2015-01-01 02:15:08.365, 0.926, -0.308, 0.141, 1.221, 0.671, -0.366, -65.435, -70.247, -113.005, -29.913, -3.347, -3.547, 29.84, 0.11932, -0.64853, 0.10278, -0.74463,
 15:53:00.528,e3:ca:2d:fd:e0:8c, 2015-01-01 02:15:10.290, 0.971, -0.306, 0.07, 1.099, -0.366, 0, -77.635, -72.103, -130.644, -27.020, -4.047, -7.227, 26.76, -0.07468, -0.62759, 0.27112, -0.72589,
 15:53:00.528,e3:ca:2d:fd:e0:8c, 2015-01-01 02:15:10.290, 0.975, -0.306, 0.069, 0.732, -0.366, -0.061, -77.635, -72.103, -130.616, -27.020, -4.047, -7.227, 26.76, -0.07468, -0.62759, 0.27112, -0.72589,
 15:53:00.528,e3:ca:2d:fd:e0:8c, 2015-01-01 02:15:10.290, 0.971, -0.305, 0.072, 0.61, -0.244, -0.122, -77.635, -72.103, -130.589, -27.020, -4.047, -7.227, 26.76, -0.07468, -0.62759, 0.27112, -0.72589,
 15:53:00.528,e3:ca:2d:fd:e0:8c, 2015-01-01 02:15:10.290, 0.975, -0.306, 0.069, 0.732, -0.366, -0.061, -77.635, -72.103, -130.616, -27.020, -4.047, -7.227, 26.76, -0.07468, -0.62759, 0.27112, -0.72589,
 15:53:00.532,ed:35:33:d3:6c:f8, 2015-01-01 02:15:09.725, 0.394, -0.396, 0.816, 0.549, 0.305, 0.366, -25.867, -23.665, 169.838, -10.707, -0.587, -33.153, 27.25, 0.13345, 0.17911, -0.23621, 0.94562,
 15:53:00.532,ed:35:33:d3:6c:f8, 2015-01-01 02:15:09.725, 0.387, -0.402, 0.822, 0.305, 0.488, 0.183, -25.862, -23.648, 169.871, -10.707, -0.587, -33.153, 27.25, 0.13345, 0.17911, -0.23621, 0.94562,
 15:53:00.532,ed:35:33:d3:6c:f8, 2015-01-01 02:15:09.725, 0.394, -0.401, 0.822, 0, 0.061, -0.183, -25.862, -23.648, 169.898, -10.707, -0.587, -33.153, 27.25, 0.13345, 0.17911, -0.23621, 0.94562,
 15:53:00.532,ed:35:33:d3:6c:f8, 2015-01-01 02:15:09.725, 0.387, -0.402, 0.822, 0.305, 0.488, 0.183, -25.862, -23.648, 169.871, -10.707, -0.587, -33.153, 27.25, 0.13345, 0.17911, -0.23621, 0.94562,
 15:53:00.588,e3:ca:2d:fd:e0:8c, 2015-01-01 02:15:10.290, 0.977, -0.305, 0.072, 0.61, -0.244, -0.122, -77.635, -72.103, -130.589, -27.020, -4.047, -7.227, 26.76, -0.07468, -0.62759, 0.27112, -0.72589,
 15:53:00.588,e3:ca:2d:fd:e0:8c, 2015-01-01 02:15:10.290, 0.975, -0.305, 0.07, 0.793, -0.366, 0, -77.64, -72.109, -130.562, -27.020, -4.047, -7.227, 26.76, -0.07468, -0.62759, 0.27112, -0.72589,
 15:53:00.588,e3:ca:2d:fd:e0:8c, 2015-01-01 02:15:10.290, 0.977, -0.308, 0.069, 0.916, -0.244, 0, -77.635, -72.109, -130.551, -27.020, -4.047, -7.227, 26.76, -0.07468, -0.62759, 0.27112, -0.72589,
 15:53:00.588,e3:ca:2d:fd:e0:8c, 2015-01-01 02:15:10.290, 0.975, -0.305, 0.07, 0.793, -0.366, 0, -77.64, -72.109, -130.562, -27.020, -4.047, -7.227, 26.76, -0.07468, -0.62759, 0.27112, -0.72589,
 15:53:00.592,ed:35:33:d3:6c:f8, 2015-01-01 02:15:09.725, 0.401, -0.401, 0.822, 0, 0.061, -0.183, -25.862, -23.648, 169.898, -10.707, -0.587, -33.153, 27.25, 0.13345, 0.17911, -0.23621, 0.94562,
 15:53:00.592,ed:35:33:d3:6c:f8, 2015-01-01 02:15:09.725, 0.397, -0.397, 0.819, 0.183, 0.244, -0.793, -25.851, -23.648, 169.909, -10.707, -0.587, -33.153, 27.25, 0.13345, 0.17911, -0.23621, 0.94562,
 15:53:00.592,ed:35:33:d3:6c:f8, 2015-01-01 02:15:09.725, 0.401, -0.394, 0.823, 1.099, 0.305, 0.122, -25.829, -23.637, 169.92, -10.707, -0.587, -33.153, 27.25, 0.13345, 0.17911, -0.23621, 0.94562,
 15:53:00.592,ed:35:33:d3:6c:f8, 2015-01-01 02:15:09.725, 0.397, -0.397, 0.819, 0.183, 0.244, -0.793, -25.851, -23.648, 169.909, -10.707, -0.587, -33.153, 27.25, 0.13345, 0.17911, -0.23621, 0.94562,
 15:53:00.596,f6:90:cc:01:6d:25, 2015-01-01 02:15:08.365, 0.925, -0.305, 0.138, 1.343, 0.732, -0.366, -65.363, -70.247, -113.044, -29.913, -3.347, -3.547, 29.84, 0.11932, -0.64853, 0.10278, -0.74463,
 15:53:00.596,f6:90:cc:01:6d:25, 2015-01-01 02:15:08.365, 0.932, -0.308, 0.14, 0.61, 0.793, -0.427, -65.303, -70.247, -113.11, -29.913, -3.347, -3.547, 29.84, 0.11932, -0.64853, 0.10278, -0.74463,
 15:53:00.596,f6:90:cc:01:6d:25, 2015-01-01 02:15:08.365, 0.925, -0.304, 0.142, 0.366, 0.488, -0.427, -65.259, -70.247, -113.176, -29.913, -3.347, -3.547, 29.84, 0.11932, -0.64853, 0.10278, -0.74463,
 15:53:00.596,f6:90:cc:01:6d:25, 2015-01-01 02:15:08.365, 0.932, -0.308, 0.14, 0.61, 0.793, -0.427, -65.303, -70.247, -113.11, -29.913, -3.347, -3.547, 29.84, 0.11932, -0.64853, 0.10278, -0.74463,
 15:53:00.596,f6:90:cc:01:6d:25, 2015-01-01 02:15:08.365, 0.932, -0.304, 0.142, 0.366, 0.488, -0.427, -65.259, -70.247, -113.176, -29.913, -3.347, -3.547, 29.84, 0.11932, -0.64853, 0.10278, -0.74463,
 15:53:00.596,f6:90:cc:01:6d:25, 2015-01-01 02:15:08.365, 0.93, -0.302, 0.139, 0.854, 0.366, -0.305, -65.22, -70.247, -113.22, -29.913, -3.347, -3.547, 29.84, 0.11932, -0.64853, 0.10278, -0.74463,
 15:53:00.596,f6:90:cc:01:6d:25, 2015-01-01 02:15:08.365, 0.932, -0.307, 0.14, 0.793, 0.305, -0.183, -65.187, -70.247, -113.253, -29.913, -3.347, -3.547, 29.84, 0.11932, -0.64853, 0.10278, -0.74463,
 15:53:00.596,f6:90:cc:01:6d:25, 2015-01-01 02:15:08.365, 0.93, -0.302, 0.139, 0.854, 0.366, -0.305, -65.22, -70.247, -113.22, -29.913, -3.347, -3.547, 29.84, 0.11932, -0.64853, 0.10278, -0.74463,
 15:53:00.618,e3:ca:2d:fd:e0:8c, 2015-01-01 02:15:10.290, 0.969, -0.308, 0.069, 0.916, -0.244, 0, -77.635, -72.109, -130.551, -27.020, -4.047, -7.227, 26.92, -0.07468, -0.62759, 0.27112, -0.72589,
 15:53:00.618,e3:ca:2d:fd:e0:8c, 2015-01-01 02:15:10.290, 0.973, -0.306, 0.068, 0.977, -0.305, 0, -77.629, -72.109, -130.534, -27.020, -4.047, -7.227, 26.92, -0.07468, -0.62759, 0.27112, -0.72589,
 15:53:00.618,e3:ca:2d:fd:e0:8c, 2015-01-01 02:15:10.290, 0.969, -0.309, 0.066, 0.671, -0.122, 0, -77.618, -72.109, -130.523, -27.020, -4.047, -7.227, 26.92, -0.07468, -0.62759, 0.27112, -0.72589,
 15:53:00.618,e3:ca:2d:fd:e0:8c, 2015-01-01 02:15:10.290, 0.973, -0.306, 0.068, 0.977, -0.305, 0, -77.629, -72.109, -130.534, -27.020, -4.047, -7.227, 26.92, -0.07468, -0.62759, 0.27112, -0.72589,
 15:53:00.622,ed:35:33:d3:6c:f8, 2015-01-01 02:15:09.725, 0.396, -0.394, 0.823, 1.099, 0.305, 0.122, -25.829, -23.637, 169.92, -10.707, -0.587, -33.153, 27.25, 0.13345, 0.17911, -0.23621, 0.94562,
 15:53:00.622,ed:35:33:d3:6c:f8, 2015-01-01 02:15:09.725, 0.394, -0.396, 0.828, 0.488, 0.244, 0, -25.823, -23.632, 169.926, -10.707, -0.587, -33.153, 27.25, 0.13345, 0.17911, -0.23621, 0.94562,
 15:53:00.622,ed:35:33:d3:6c:f8, 2015-01-01 02:15:09.725, 0.396, -0.398, 0.827, 0.488, -0.183, 0.305, -25.812, -23.626, 169.942, -10.707, -0.587, -33.153, 27.25, 0.13345, 0.17911, -0.23621, 0.94562,
 15:53:00.622,ed:35:33:d3:6c:f8, 2015-01-01 02:15:09.725, 0.394, -0.396, 0.828, 0.488, 0.244, 0, -25.823, -23.632, 169.926, -10.707, -0.587, -33.153, 27.25, 0.13345, 0.17911, -0.23621, 0.94562,
 15:53:00.626,f6:90:cc:01:6d:25, 2015-01-01 02:15:08.365, 0.932, -0.307, 0.14, 0.793, 0.305, -0.183, -65.187, -70.247, -113.253, -29.913, -3.347, -3.547, 29.84, 0.11932, -0.64853, 0.10278, -0.74463,
 15:53:00.626,f6:90:cc:01:6d:25, 2015-01-01 02:15:08.365, 0.931, -0.304, 0.142, 0.977, 0.244, -0.244, -65.154, -70.247, -113.269, -29.913, -3.347, -3.547, 29.84, 0.11932, -0.64853, 0.10278, -0.74463,
 15:53:00.626,f6:90:cc:01:6d:25, 2015-01-01 02:15:08.365, 0.932, -0.302, 0.14, 1.221, 0.122, -0.305, -65.121, -70.247, -113.269, -29.913, -3.347, -3.547, 29.84, 0.11932, -0.64853, 0.10278, -0.74463,
 15:53:00.626,f6:90:cc:01:6d:25, 2015-01-01 02:15:08.365, 0.931, -0.304, 0.142, 0.977, 0.244, -0.244, -65.154, -70.247, -113.269, -29.913, -3.347, -3.547, 29.84, 0.11932, -0.64853, 0.10278, -0.74463,
 15:53:00.648,e3:ca:2d:fd:e0:8c, 2015-01-01 02:15:10.290, 0.978, -0.309, 0.066, 0.671, -0.122, 0, -77.618, -72.109, -130.523, -27.020, -4.047, -7.227, 26.92, -0.07468, -0.62759, 0.27112, -0.72589,
 15:53:00.648,e3:ca:2d:fd:e0:8c, 2015-01-01 02:15:10.290, 0.976, -0.306, 0.069, 0.977, -0.244, 0, -77.613, -72.109, -130.512, -27.020, -4.047, -7.227, 26.92, -0.07468, -0.62759, 0.27112, -0.72589,
 15:53:00.648,e3:ca:2d:fd:e0:8c, 2015-01-01 02:15:10.290, 0.978, -0.307, 0.063, 1.465, -0.122, 0, -77.591, -72.109, -130.518, -27.020, -4.047, -7.227, 26.92, -0.07468, -0.62759, 0.27112, -0.72589,
 15:53:00.648,e3:ca:2d:fd:e0:8c, 2015-01-01 02:15:10.290, 0.976, -0.306, 0.069, 0.977, -0.244, 0, -77.613, -72.109, -130.512, -27.020, -4.047, -7.227, 26.92, -0.07468, -0.62759, 0.27112, -0.72589,
 15:53:00.648,e3:ca:2d:fd:e0:8c, 2015-01-01 02:15:10.290, 0.975, -0.307, 0.063, 1.465, -0.122, 0, -77.591, -72.109, -130.518, -27.020, -4.047, -7.227, 26.92, -0.07468, -0.62759, 0.27112, -0.72589,
 15:53:00.648,e3:ca:2d:fd:e0:8c, 2015-01-01 02:15:10.290, 0.976, -0.308, 0.064, 1.16, 0, 0, -77.569, -72.109, -130.512, -27.020, -4.047, -7.227, 26.92, -0.07468, -0.62759, 0.27112, -0.72589,
 15:53:00.648,e3:ca:2d:fd:e0:8c, 2015-01-01 02:15:10.290, 0.975, -0.308, 0.067, 1.038, -0.305, 0, -77.569, -72.114, -130.474, -27.020, -4.047, -7.227, 26.92, -0.07468, -0.62759, 0.27112, -0.72589,
 15:53:00.648,e3:ca:2d:fd:e0:8c, 2015-01-01 02:15:10.290, 0.976, -0.308, 0.064, 1.16, 0, 0, -77.569, -72.109, -130.512, -27.020, -4.047, -7.227, 26.92, -0.07468, -0.62759, 0.27112, -0.72589,
 15:53:00.654,f6:90:cc:01:6d:25, 2015-01-01 02:15:08.365, 0.929, -0.302, 0.14, 1.221, 0.122, -0.305, -65.121, -70.247, -113.269, -29.960, -4.147, -3.307, 29.84, 0.11932, -0.64853, 0.10278, -0.74463,
 15:53:00.654,f6:90:cc:01:6d:25, 2015-01-01 02:15:08.365, 0.927, -0.306, 0.142, 1.343, 0.061, -0.305, -65.089, -70.252, -113.258, -29.960, -4.147, -3.307, 29.84, 0.11932, -0.64853, 0.10278, -0.74463,
 15:53:00.654,f6:90:cc:01:6d:25, 2015-01-01 02:15:08.365, 0.929, -0.307, 0.143, 1.465, 0.183, -0.244, -65.05, -70.252, -113.231, -29.960, -4.147, -3.307, 29.84, 0.11932, -0.64853, 0.10278, -0.74463,
 15:53:00.654,f6:90:cc:01:6d:25, 2015-01-01 02:15:08.365, 0.927, -0.306, 0.142, 1.343, 0.061, -0.305, -65.089, -70.252, -113.258, -29.960, -4.147, -3.307, 29.84, 0.11932, -0.64853, 0.10278, -0.74463,
 15:53:00.676,ed:40:fe:65:30:6c, 2015-01-01 02:15:21.665, 0.609, -0.367, 0.713, 0.366, 0.061, 0.061, -27.224, -37.183, -101.838, -20.353, -0.180, -5.653, 24.7, -0.52234, 0.38116, 0.02225, 0.76242,
 15:53:00.676,ed:40:fe:65:30:6c, 2015-01-01 02:15:21.665, 0.607, -0.366, 0.712, 0.488, 0.305, 0, -27.213, -37.178, -101.832, -20.353, -0.180, -5.653, 24.7, -0.52234, 0.38116, 0.02225, 0.76242,
 15:53:00.676,ed:40:fe:65:30:6c, 2015-01-01 02:15:21.665, 0.609, -0.366, 0.711, 0.366, 0.488, 0.244, -27.208, -37.167, -101.821, -20.353, -0.180, -5.653, 24.7, -0.52234, 0.38116, 0.02225, 0.76242,
 15:53:00.676,ed:40:fe:65:30:6c, 2015-01-01 02:15:21.665, 0.607, -0.366, 0.712, 0.488, 0.305, 0, -27.213, -37.178, -101.832, -20.353, -0.180, -5.653, 24.7, -0.52234, 0.38116, 0.02225, 0.76242,
 15:53:00.676,ed:40:fe:65:30:6c, 2015-01-01 02:15:21.665, 0.602, -0.366, 0.711, 0.366, 0.488, 0.244, -27.208, -37.167, -101.821, -20.353, -0.180, -5.653, 24.7, -0.52234, 0.38116, 0.02225, 0.76242,
 15:53:00.676,ed:40:fe:65:30:6c, 2015-01-01 02:15:21.665, 0.604, -0.369, 0.716, 0.183, 0.427, 0.122, -27.202, -37.156, -101.832, -20.353, -0.180, -5.653, 24.7, -0.52234, 0.38116, 0.02225, 0.76242,
 15:53:00.676,ed:40:fe:65:30:6c, 2015-01-01 02:15:21.665, 0.602, -0.368, 0.716, 0.122, 0.305, -0.061, -27.197, -37.145, -101.849, -20.353, -0.180, -5.653, 24.7, -0.52234, 0.38116, 0.02225, 0.76242,
 15:53:00.676,ed:40:fe:65:30:6c, 2015-01-01 02:15:21.665, 0.604, -0.369, 0.716, 0.183, 0.427, 0.122, -27.202, -37.156, -101.832, -20.353, -0.180, -5.653, 24.7, -0.52234, 0.38116, 0.02225, 0.76242,
 15:53:00.676,ed:40:fe:65:30:6c, 2015-01-01 02:15:21.665, 0.611, -0.368, 0.716, 0.122, 0.305, -0.061, -27.197, -37.145, -101.849, -20.353, -0.180, -5.653, 24.7, -0.52234, 0.38116, 0.02225, 0.76242,
 15:53:00.676,ed:40:fe:65:30:6c, 2015-01-01 02:15:21.665, 0.607, -0.365, 0.714, 0.366, 0.427, -0.122, -27.191, -37.139, -101.854, -20.353, -0.180, -5.653, 24.7, -0.52234, 0.38116, 0.02225, 0.76242,
 15:53:00.676,ed:40:fe:65:30:6c, 2015-01-01 02:15:21.665, 0.611, -0.364, 0.716, 0.488, 0.488, 0, -27.18, -37.128, -101.854, -20.353, -0.180, -5.653, 24.7, -0.52234, 0.38116, 0.02225, 0.76242,
 15:53:00.676,ed:40:fe:65:30:6c, 2015-01-01 02:15:21.665, 0.607, -0.365, 0.714, 0.366, 0.427, -0.122, -27.191, -37.139, -101.854, -20.353, -0.180, -5.653, 24.7, -0.52234, 0.38116, 0.02225, 0.76242,
 15:53:00.682,ed:35:33:d3:6c:f8, 2015-01-01 02:15:09.725, 0.395, -0.398, 0.827, 0.488, -0.183, 0.305, -25.812, -23.626, 169.942, -10.193, -0.120, -33.033, 27.25, 0.13345, 0.17911, -0.23621, 0.94562,
 15:53:00.682,ed:35:33:d3:6c:f8, 2015-01-01 02:15:09.725, 0.398, -0.404, 0.821, 0.61, -0.61, -0.427, -25.801, -23.637, 169.948, -10.193, -0.120, -33.033, 27.25, 0.13345, 0.17911, -0.23621, 0.94562,
 15:53:00.682,ed:35:33:d3:6c:f8, 2015-01-01 02:15:09.725, 0.395, -0.4, 0.819, 0.732, -0.61, -0.793, -25.785, -23.654, 169.942, -10.193, -0.120, -33.033, 27.25, 0.13345, 0.17911, -0.23621, 0.94562,
 15:53:00.682,ed:35:33:d3:6c:f8, 2015-01-01 02:15:09.725, 0.398, -0.404, 0.821, 0.61, -0.61, -0.427, -25.801, -23.637, 169.948, -10.193, -0.120, -33.033, 27.25, 0.13345, 0.17911, -0.23621, 0.94562,
 15:53:00.682,ed:35:33:d3:6c:f8, 2015-01-01 02:15:09.725, 0.397, -0.4, 0.819, 0.732, -0.61, -0.793, -25.785, -23.654, 169.942, -10.193, -0.120, -33.033, 27.25, 0.13345, 0.17911, -0.23621, 0.94562,
 15:53:00.682,ed:35:33:d3:6c:f8, 2015-01-01 02:15:09.725, 0.393, -0.395, 0.819, 1.16, -0.488, -0.427, -25.763, -23.665, 169.942, -10.193, -0.120, -33.033, 27.25, 0.13345, 0.17911, -0.23621, 0.94562,
 15:53:00.682,ed:35:33:d3:6c:f8, 2015-01-01 02:15:09.725, 0.397, -0.393, 0.819, 1.465, -0.305, -0.061, -25.735, -23.67, 169.942, -10.193, -0.120, -33.033, 27.25, 0.13345, 0.17911, -0.23621, 0.94562,
 15:53:00.682,ed:35:33:d3:6c:f8, 2015-01-01 02:15:09.725, 0.393, -0.395, 0.819, 1.16, -0.488, -0.427, -25.763, -23.665, 169.942, -10.193, -0.120, -33.033, 27.25, 0.13345, 0.17911, -0.23621, 0.94562,
 15:53:00.706,ed:40:fe:65:30:6c, 2015-01-01 02:15:21.665, 0.607, -0.364, 0.716, 0.488, 0.488, 0, -27.18, -37.128, -101.854, -20.353, -0.180, -5.653, 24.7, -0.52234, 0.38116, 0.02225, 0.76242,
 15:53:00.706,ed:40:fe:65:30:6c, 2015-01-01 02:15:21.665, 0.606, -0.366, 0.718, 0.244, 0.244, 0.122, -27.169, -37.123, -101.838, -20.353, -0.180, -5.653, 24.7, -0.52234, 0.38116, 0.02225, 0.76242,
 15:53:00.706,ed:40:fe:65:30:6c, 2015-01-01 02:15:21.665, 0.607, -0.369, 0.717, 0.488, 0.061, 0.244, -27.164, -37.117, -101.805, -20.353, -0.180, -5.653, 24.7, -0.52234, 0.38116, 0.02225, 0.76242,
 15:53:00.706,ed:40:fe:65:30:6c, 2015-01-01 02:15:21.665, 0.606, -0.366, 0.718, 0.244, 0.244, 0.122, -27.169, -37.123, -101.838, -20.353, -0.180, -5.653, 24.7, -0.52234, 0.38116, 0.02225, 0.76242,
 15:53:00.706,ed:40:fe:65:30:6c, 2015-01-01 02:15:21.665, 0.608, -0.369, 0.717, 0.488, 0.061, 0.244, -27.164, -37.117, -101.805, -20.353, -0.180, -5.653, 24.7, -0.52234, 0.38116, 0.02225, 0.76242,
 15:53:00.706,ed:40:fe:65:30:6c, 2015-01-01 02:15:21.665, 0.607, -0.371, 0.712, 0.793, 0.122, 0, -27.153, -37.112, -101.788, -20.353, -0.180, -5.653, 24.7, -0.52234, 0.38116, 0.02225, 0.76242,
 15:53:00.706,ed:40:fe:65:30:6c, 2015-01-01 02:15:21.665, 0.608, -0.367, 0.714, 1.038, 0.183, -0.061, -27.131, -37.112, -101.777, -20.353, -0.180, -5.653, 24.7, -0.52234, 0.38116, 0.02225, 0.76242,
 15:53:00.706,ed:40:fe:65:30:6c, 2015-01-01 02:15:21.665, 0.607, -0.371, 0.712, 0.793, 0.122, 0, -27.153, -37.112, -101.788, -20.353, -0.180, -5.653, 24.7, -0.52234, 0.38116, 0.02225, 0.76242,
 15:53:00.706,ed:40:fe:65:30:6c, 2015-01-01 02:15:21.665, 0.605, -0.367, 0.714, 1.038, 0.183, -0.061, -27.131, -37.112, -101.777, -20.353, -0.180, -5.653, 24.7, -0.52234, 0.38116, 0.02225, 0.76242,
 15:53:00.706,ed:40:fe:65:30:6c, 2015-01-01 02:15:21.665, 0.602, -0.365, 0.714, 1.038, 0.305, 0, -27.109, -37.106, -101.755, -20.353, -0.180, -5.653, 24.7, -0.52234, 0.38116, 0.02225, 0.76242,
 15:53:00.706,ed:40:fe:65:30:6c, 2015-01-01 02:15:21.665, 0.605, -0.364, 0.715, 1.099, 0.244, 0.183, -27.087, -37.101, -101.733, -20.353, -0.180, -5.653, 24.7, -0.52234, 0.38116, 0.02225, 0.76242,
 15:53:00.706,ed:40:fe:65:30:6c, 2015-01-01 02:15:21.665, 0.602, -0.365, 0.714, 1.038, 0.305, 0, -27.109, -37.106, -101.755, -20.353, -0.180, -5.653, 24.7, -0.52234, 0.38116, 0.02225, 0.76242,
 15:53:00.714,f6:90:cc:01:6d:25, 2015-01-01 02:15:08.365, 0.925, -0.307, 0.143, 1.465, 0.183, -0.244, -65.05, -70.252, -113.231, -29.960, -4.147, -3.307, 29.84, 0.11932, -0.64853, 0.10278, -0.74463,
 15:53:00.714,f6:90:cc:01:6d:25, 2015-01-01 02:15:08.365, 0.928, -0.307, 0.144, 1.343, 0.305, -0.244, -65.006, -70.258, -113.209, -29.960, -4.147, -3.307, 29.84, 0.11932, -0.64853, 0.10278, -0.74463,
 15:53:00.714,f6:90:cc:01:6d:25, 2015-01-01 02:15:08.365, 0.925, -0.305, 0.143, 1.221, 0.244, -0.122, -64.968, -70.252, -113.192, -29.960, -4.147, -3.307, 29.84, 0.11932, -0.64853, 0.10278, -0.74463,
 15:53:00.714,f6:90:cc:01:6d:25, 2015-01-01 02:15:08.365, 0.928, -0.307, 0.144, 1.343, 0.305, -0.244, -65.006, -70.258, -113.209, -29.960, -4.147, -3.307, 29.84, 0.11932, -0.64853, 0.10278, -0.74463,
 15:53:00.735,ed:40:fe:65:30:6c, 2015-01-01 02:15:21.665, 0.603, -0.364, 0.715, 1.099, 0.244, 0.183, -27.087, -37.101, -101.733, -20.353, -0.180, -5.653, 24.7, -0.52234, 0.38116, 0.02225, 0.76242,
 15:53:00.735,ed:40:fe:65:30:6c, 2015-01-01 02:15:21.665, 0.607, -0.362, 0.714, 0.854, 0.183, 0.366, -27.07, -37.09, -101.7, -20.353, -0.180, -5.653, 24.7, -0.52234, 0.38116, 0.02225, 0.76242,
 15:53:00.735,ed:40:fe:65:30:6c, 2015-01-01 02:15:21.665, 0.603, -0.362, 0.712, 0.427, 0.366, 0.427, -27.065, -37.084, -101.656, -20.353, -0.180, -5.653, 24.7, -0.52234, 0.38116, 0.02225, 0.76242,
 15:53:00.735,ed:40:fe:65:30:6c, 2015-01-01 02:15:21.665, 0.607, -0.362, 0.714, 0.854, 0.183, 0.366, -27.07, -37.09, -101.7, -20.353, -0.180, -5.653, 24.7, -0.52234, 0.38116, 0.02225, 0.76242,
 15:53:00.745,f6:90:cc:01:6d:25, 2015-01-01 02:15:08.365, 0.931, -0.305, 0.143, 1.221, 0.244, -0.122, -64.968, -70.252, -113.192, -29.960, -4.147, -3.307, 29.84, 0.12134, -0.64703, 0.09995, -0.746,
 15:53:00.745,f6:90:cc:01:6d:25, 2015-01-01 02:15:08.365, 0.932, -0.304, 0.145, 1.099, 0.366, -0.061, -64.929, -70.252, -113.181, -29.960, -4.147, -3.307, 29.84, 0.12134, -0.64703, 0.09995, -0.746,
 15:53:00.745,f6:90:cc:01:6d:25, 2015-01-01 02:15:08.365, 0.931, -0.303, 0.144, 1.343, 0.732, -0.061, -64.88, -70.247, -113.192, -29.960, -4.147, -3.307, 29.84, 0.12134, -0.64703, 0.09995, -0.746,
 15:53:00.745,f6:90:cc:01:6d:25, 2015-01-01 02:15:08.365, 0.932, -0.304, 0.145, 1.099, 0.366, -0.061, -64.929, -70.252, -113.181, -29.960, -4.147, -3.307, 29.84, 0.12134, -0.64703, 0.09995, -0.746,
 15:53:00.765,ed:40:fe:65:30:6c, 2015-01-01 02:15:21.665, 0.608, -0.362, 0.712, 0.427, 0.366, 0.427, -27.065, -37.084, -101.656, -20.253, 0.087, -4.793, 24.7, -0.52234, 0.38116, 0.02225, 0.76242,
 15:53:00.765,ed:40:fe:65:30:6c, 2015-01-01 02:15:21.665, 0.602, -0.366, 0.716, 0.122, 0.488, 0.427, -27.059, -37.068, -101.613, -20.253, 0.087, -4.793, 24.7, -0.52234, 0.38116, 0.02225, 0.76242,
 15:53:00.765,ed:40:fe:65:30:6c, 2015-01-01 02:15:21.665, 0.608, -0.367, 0.718, 0.366, 0.488, 0.427, -27.059, -37.057, -101.591, -20.253, 0.087, -4.793, 24.7, -0.52234, 0.38116, 0.02225, 0.76242,
 15:53:00.765,ed:40:fe:65:30:6c, 2015-01-01 02:15:21.665, 0.602, -0.366, 0.716, 0.122, 0.488, 0.427, -27.059, -37.068, -101.613, -20.253, 0.087, -4.793, 24.7, -0.52234, 0.38116, 0.02225, 0.76242,
 15:53:00.768,e3:ca:2d:fd:e0:8c, 2015-01-01 02:15:10.290, 0.977, -0.308, 0.067, 1.038, -0.305, 0, -77.569, -72.114, -130.474, -27.020, -4.047, -7.227, 26.92, -0.07468, -0.62759, 0.27112, -0.72589,
 15:53:00.768,e3:ca:2d:fd:e0:8c, 2015-01-01 02:15:10.290, 0.975, -0.306, 0.065, 1.221, -0.366, 0, -77.563, -72.114, -130.424, -27.020, -4.047, -7.227, 26.92, -0.07468, -0.62759, 0.27112, -0.72589,
 15:53:00.768,e3:ca:2d:fd:e0:8c, 2015-01-01 02:15:10.290, 0.977, -0.306, 0.066, 1.16, -0.061, 0, -77.547, -72.114, -130.397, -27.020, -4.047, -7.227, 26.92, -0.07468, -0.62759, 0.27112, -0.72589,
 15:53:00.768,e3:ca:2d:fd:e0:8c, 2015-01-01 02:15:10.290, 0.975, -0.306, 0.065, 1.221, -0.366, 0, -77.563, -72.114, -130.424, -27.020, -4.047, -7.227, 26.92, -0.07468, -0.62759, 0.27112, -0.72589,
 15:53:00.772,ed:35:33:d3:6c:f8, 2015-01-01 02:15:09.725, 0.392, -0.393, 0.819, 1.465, -0.305, -0.061, -25.735, -23.67, 169.942, -10.193, -0.120, -33.033, 27.25, 0.12915, 0.17999, -0.2348, 0.94641,
 15:53:00.772,ed:35:33:d3:6c:f8, 2015-01-01 02:15:09.725, 0.396, -0.392, 0.82, 1.282, -0.305, 0.244, -25.714, -23.67, 169.969, -10.193, -0.120, -33.033, 27.25, 0.12915, 0.17999, -0.2348, 0.94641,
 15:53:00.772,ed:35:33:d3:6c:f8, 2015-01-01 02:15:09.725, 0.392, -0.393, 0.817, 0.427, -0.305, 0.122, -25.708, -23.67, 169.997, -10.193, -0.120, -33.033, 27.25, 0.12915, 0.17999, -0.2348, 0.94641,
 15:53:00.772,ed:35:33:d3:6c:f8, 2015-01-01 02:15:09.725, 0.396, -0.392, 0.82, 1.282, -0.305, 0.244, -25.714, -23.67, 169.969, -10.193, -0.120, -33.033, 27.25, 0.12915, 0.17999, -0.2348, 0.94641,
 15:53:00.772,ed:35:33:d3:6c:f8, 2015-01-01 02:15:09.725, 0.402, -0.393, 0.817, 0.427, -0.305, 0.122, -25.708, -23.67, 169.997, -10.193, -0.120, -33.033, 27.25, 0.12915, 0.17999, -0.2348, 0.94641,
 15:53:00.772,ed:35:33:d3:6c:f8, 2015-01-01 02:15:09.725, 0.395, -0.396, 0.82, -0.183, 0.061, 0.122, -25.714, -23.665, 170.013, -10.193, -0.120, -33.033, 27.25, 0.12915, 0.17999, -0.2348, 0.94641,
 15:53:00.772,ed:35:33:d3:6c:f8, 2015-01-01 02:15:09.725, 0.402, -0.397, 0.822, 0.244, 0, 0.366, -25.714, -23.659, 170.035, -10.193, -0.120, -33.033, 27.25, 0.12915, 0.17999, -0.2348, 0.94641,
 15:53:00.772,ed:35:33:d3:6c:f8, 2015-01-01 02:15:09.725, 0.395, -0.396, 0.82, -0.183, 0.061, 0.122, -25.714, -23.665, 170.013, -10.193, -0.120, -33.033, 27.25, 0.12915, 0.17999, -0.2348, 0.94641,
 15:53:00.776,f6:90:cc:01:6d:25, 2015-01-01 02:15:08.365, 0.926, -0.303, 0.144, 1.343, 0.732, -0.061, -64.88, -70.247, -113.192, -29.960, -4.147, -3.307, 29.84, 0.12134, -0.64703, 0.09995, -0.746,
 15:53:00.776,f6:90:cc:01:6d:25, 2015-01-01 02:15:08.365, 0.926, -0.304, 0.145, 1.404, 0.732, -0.061, -64.819, -70.241, -113.231, -29.960, -4.147, -3.307, 29.84, 0.12134, -0.64703, 0.09995, -0.746,
 15:53:00.776,f6:90:cc:01:6d:25, 2015-01-01 02:15:08.365, 0.926, -0.303, 0.145, 0.916, 0.427, 0, -64.759, -70.23, -113.264, -29.960, -4.147, -3.307, 29.84, 0.12134, -0.64703, 0.09995, -0.746,
 15:53:00.776,f6:90:cc:01:6d:25, 2015-01-01 02:15:08.365, 0.926, -0.304, 0.145, 1.404, 0.732, -0.061, -64.819, -70.241, -113.231, -29.960, -4.147, -3.307, 29.84, 0.12134, -0.64703, 0.09995, -0.746,
 15:53:00.795,ed:40:fe:65:30:6c, 2015-01-01 02:15:21.665, 0.596, -0.367, 0.718, 0.366, 0.488, 0.427, -27.059, -37.057, -101.591, -20.253, 0.087, -4.793, 24.7, -0.52234, 0.38116, 0.02225, 0.76242,
 15:53:00.795,ed:40:fe:65:30:6c, 2015-01-01 02:15:21.665, 0.601, -0.366, 0.723, 0.488, 0.183, 0.366, -27.054, -37.046, -101.563, -20.253, 0.087, -4.793, 24.7, -0.52234, 0.38116, 0.02225, 0.76242,
 15:53:00.795,ed:40:fe:65:30:6c, 2015-01-01 02:15:21.665, 0.596, -0.364, 0.721, 0.366, 0, 0.305, -27.048, -37.04, -101.547, -20.253, 0.087, -4.793, 24.7, -0.52234, 0.38116, 0.02225, 0.76242,
 15:53:00.795,ed:40:fe:65:30:6c, 2015-01-01 02:15:21.665, 0.601, -0.366, 0.723, 0.488, 0.183, 0.366, -27.054, -37.046, -101.563, -20.253, 0.087, -4.793, 24.7, -0.52234, 0.38116, 0.02225, 0.76242,
 15:53:00.829,e3:ca:2d:fd:e0:8c, 2015-01-01 02:15:11.155, 0.973, -0.306, 0.066, 1.16, -0.061, 0, -77.547, -72.114, -130.397, -27.020, -4.047, -7.227, 26.92, -0.07468, -0.62759, 0.27112, -0.72589,
 15:53:00.829,e3:ca:2d:fd:e0:8c, 2015-01-01 02:15:11.155, 0.971, -0.309, 0.069, 1.16, -0.061, 0, -77.531, -72.114, -130.375, -27.020, -4.047, -7.227, 26.92, -0.07468, -0.62759, 0.27112, -0.72589,
 15:53:00.829,e3:ca:2d:fd:e0:8c, 2015-01-01 02:15:11.155, 0.973, -0.309, 0.071, 1.343, -0.061, 0, -77.509, -72.114, -130.347, -27.020, -4.047, -7.227, 26.92, -0.07468, -0.62759, 0.27112, -0.72589,
 15:53:00.829,e3:ca:2d:fd:e0:8c, 2015-01-01 02:15:11.155, 0.971, -0.309, 0.069, 1.16, -0.061, 0, -77.531, -72.114, -130.375, -27.020, -4.047, -7.227, 26.92, -0.07468, -0.62759, 0.27112, -0.72589,
 15:53:00.829,e3:ca:2d:fd:e0:8c, 2015-01-01 02:15:11.155, 0.971, -0.309, 0.071, 1.343, -0.061, 0, -77.509, -72.114, -130.347, -27.020, -4.047, -7.227, 26.92, -0.07468, -0.62759, 0.27112, -0.72589,
 15:53:00.829,e3:ca:2d:fd:e0:8c, 2015-01-01 02:15:11.155, 0.974, -0.309, 0.07, 1.465, -0.183, 0, -77.487, -72.114, -130.331, -27.020, -4.047, -7.227, 26.92, -0.07468, -0.62759, 0.27112, -0.72589,
 15:53:00.829,e3:ca:2d:fd:e0:8c, 2015-01-01 02:15:11.155, 0.971, -0.308, 0.07, 1.404, -0.183, 0, -77.47, -72.114, -130.314, -27.020, -4.047, -7.227, 26.92, -0.07468, -0.62759, 0.27112, -0.72589,
 15:53:00.830,e3:ca:2d:fd:e0:8c, 2015-01-01 02:15:11.155, 0.974, -0.309, 0.07, 1.465, -0.183, 0, -77.487, -72.114, -130.331, -27.020, -4.047, -7.227, 26.92, -0.07468, -0.62759, 0.27112, -0.72589,
 15:53:00.831,ed:35:33:d3:6c:f8, 2015-01-01 02:15:10.085, 0.386, -0.397, 0.822, 0.244, 0, 0.366, -25.714, -23.659, 170.035, -10.193, -0.120, -33.033, 27.25, 0.12915, 0.17999, -0.2348, 0.94641,
 15:53:00.831,ed:35:33:d3:6c:f8, 2015-01-01 02:15:10.085, 0.389, -0.397, 0.828, 0.977, 0.122, 0.366, -25.697, -23.654, 170.052, -10.193, -0.120, -33.033, 27.25, 0.12915, 0.17999, -0.2348, 0.94641,
 15:53:00.831,ed:35:33:d3:6c:f8, 2015-01-01 02:15:10.085, 0.386, -0.396, 0.827, 0.916, -0.122, 0, -25.681, -23.648, 170.063, -10.193, -0.120, -33.033, 27.25, 0.12915, 0.17999, -0.2348, 0.94641,
 15:53:00.831,ed:35:33:d3:6c:f8, 2015-01-01 02:15:10.085, 0.389, -0.397, 0.828, 0.977, 0.122, 0.366, -25.697, -23.654, 170.052, -10.193, -0.120, -33.033, 27.25, 0.12915, 0.17999, -0.2348, 0.94641,
 15:53:00.834,f6:90:cc:01:6d:25, 2015-01-01 02:15:08.780, 0.929, -0.303, 0.145, 0.916, 0.427, 0, -64.759, -70.23, -113.264, -29.960, -4.147, -3.307, 29.84, 0.12134, -0.64703, 0.09995, -0.746,
 15:53:00.834,f6:90:cc:01:6d:25, 2015-01-01 02:15:08.780, 0.93, -0.302, 0.141, 0.549, 0, -0.061, -64.726, -70.23, -113.269, -29.960, -4.147, -3.307, 29.84, 0.12134, -0.64703, 0.09995, -0.746,
 15:53:00.834,f6:90:cc:01:6d:25, 2015-01-01 02:15:08.780, 0.929, -0.303, 0.142, 0.488, -0.366, 0, -64.72, -70.23, -113.253, -29.960, -4.147, -3.307, 29.84, 0.12134, -0.64703, 0.09995, -0.746,
 15:53:00.834,f6:90:cc:01:6d:25, 2015-01-01 02:15:08.780, 0.93, -0.302, 0.141, 0.549, 0, -0.061, -64.726, -70.23, -113.269, -29.960, -4.147, -3.307, 29.84, 0.12134, -0.64703, 0.09995, -0.746,
 15:53:00.856,ed:40:fe:65:30:6c, 2015-01-01 02:15:21.665, 0.607, -0.364, 0.721, 0.366, 0, 0.305, -27.048, -37.04, -101.547, -20.253, 0.087, -4.793, 24.7, -0.5253, 0.37952, 0.02347, 0.76117,
 15:53:00.856,ed:40:fe:65:30:6c, 2015-01-01 02:15:21.665, 0.607, -0.364, 0.715, 0.183, 0.122, 0.366, -27.048, -37.035, -101.525, -20.253, 0.087, -4.793, 24.7, -0.5253, 0.37952, 0.02347, 0.76117,
 15:53:00.856,ed:40:fe:65:30:6c, 2015-01-01 02:15:21.665, 0.607, -0.368, 0.715, -0.122, 0.122, 0.244, -27.048, -37.029, -101.514, -20.253, 0.087, -4.793, 24.7, -0.5253, 0.37952, 0.02347, 0.76117,
 15:53:00.856,ed:40:fe:65:30:6c, 2015-01-01 02:15:21.665, 0.607, -0.364, 0.715, 0.183, 0.122, 0.366, -27.048, -37.035, -101.525, -20.253, 0.087, -4.793, 24.7, -0.5253, 0.37952, 0.02347, 0.76117,
 15:53:00.859,e3:ca:2d:fd:e0:8c, 2015-01-01 02:15:11.155, 0.975, -0.308, 0.07, 1.404, -0.183, 0, -77.47, -72.114, -130.314, -27.020, -4.047, -7.227, 26.92, -0.07468, -0.62759, 0.27112, -0.72589,
 15:53:00.859,e3:ca:2d:fd:e0:8c, 2015-01-01 02:15:11.155, 0.974, -0.307, 0.071, 1.404, -0.061, 0, -77.448, -72.114, -130.32, -27.020, -4.047, -7.227, 26.92, -0.07468, -0.62759, 0.27112, -0.72589,
 15:53:00.859,e3:ca:2d:fd:e0:8c, 2015-01-01 02:15:11.155, 0.975, -0.306, 0.069, 1.709, -0.122, 0.366, -77.421, -72.109, -130.331, -27.020, -4.047, -7.227, 26.92, -0.07468, -0.62759, 0.27112, -0.72589,
 15:53:00.859,e3:ca:2d:fd:e0:8c, 2015-01-01 02:15:11.155, 0.974, -0.307, 0.071, 1.404, -0.061, 0, -77.448, -72.114, -130.32, -27.020, -4.047, -7.227, 26.92, -0.07468, -0.62759, 0.27112, -0.72589,
 15:53:00.859,e3:ca:2d:fd:e0:8c, 2015-01-01 02:15:11.155, 0.969, -0.306, 0.069, 1.709, -0.122, 0.366, -77.421, -72.109, -130.331, -27.020, -4.047, -7.227, 26.92, -0.07468, -0.62759, 0.27112, -0.72589,
 15:53:00.859,e3:ca:2d:fd:e0:8c, 2015-01-01 02:15:11.155, 0.974, -0.308, 0.07, 1.343, -0.183, 0.366, -77.41, -72.103, -130.342, -27.020, -4.047, -7.227, 26.92, -0.07468, -0.62759, 0.27112, -0.72589,
 15:53:00.859,e3:ca:2d:fd:e0:8c, 2015-01-01 02:15:11.155, 0.969, -0.307, 0.068, 0.977, -0.366, 0.305, -77.415, -72.098, -130.342, -27.020, -4.047, -7.227, 26.92, -0.07468, -0.62759, 0.27112, -0.72589,
 15:53:00.859,e3:ca:2d:fd:e0:8c, 2015-01-01 02:15:11.155, 0.974, -0.308, 0.07, 1.343, -0.183, 0.366, -77.41, -72.103, -130.342, -27.020, -4.047, -7.227, 26.92, -0.07468, -0.62759, 0.27112, -0.72589,
 15:53:00.861,ed:35:33:d3:6c:f8, 2015-01-01 02:15:10.085, 0.396, -0.396, 0.827, 0.916, -0.122, 0, -25.681, -23.648, 170.063, -10.193, -0.120, -33.033, 27.25, 0.12915, 0.17999, -0.2348, 0.94641,
 15:53:00.861,ed:35:33:d3:6c:f8, 2015-01-01 02:15:10.085, 0.4, -0.393, 0.821, 0.671, -0.244, 0.061, -25.664, -23.648, 170.063, -10.193, -0.120, -33.033, 27.25, 0.12915, 0.17999, -0.2348, 0.94641,
 15:53:00.861,ed:35:33:d3:6c:f8, 2015-01-01 02:15:10.085, 0.396, -0.397, 0.821, 0, -0.183, 0.366, -25.67, -23.648, 170.063, -10.193, -0.120, -33.033, 27.25, 0.12915, 0.17999, -0.2348, 0.94641,
 15:53:00.861,ed:35:33:d3:6c:f8, 2015-01-01 02:15:10.085, 0.4, -0.393, 0.821, 0.671, -0.244, 0.061, -25.664, -23.648, 170.063, -10.193, -0.120, -33.033, 27.25, 0.12915, 0.17999, -0.2348, 0.94641,
 15:53:00.866,f6:90:cc:01:6d:25, 2015-01-01 02:15:08.780, 0.93, -0.303, 0.142, 0.488, -0.366, 0, -64.72, -70.23, -113.253, -29.960, -4.147, -3.307, 29.84, 0.12134, -0.64703, 0.09995, -0.746,
 15:53:00.866,f6:90:cc:01:6d:25, 2015-01-01 02:15:08.780, 0.929, -0.304, 0.143, 0.427, -0.244, 0, -64.731, -70.23, -113.209, -29.960, -4.147, -3.307, 29.84, 0.12134, -0.64703, 0.09995, -0.746,
 15:53:00.866,f6:90:cc:01:6d:25, 2015-01-01 02:15:08.780, 0.93, -0.305, 0.143, 0.366, -0.061, -0.061, -64.731, -70.23, -113.165, -29.960, -4.147, -3.307, 29.84, 0.12134, -0.64703, 0.09995, -0.746,
 15:53:00.866,f6:90:cc:01:6d:25, 2015-01-01 02:15:08.780, 0.929, -0.304, 0.143, 0.427, -0.244, 0, -64.731, -70.23, -113.209, -29.960, -4.147, -3.307, 29.84, 0.12134, -0.64703, 0.09995, -0.746,
 15:53:00.885,ed:40:fe:65:30:6c, 2015-01-01 02:15:22.085, 0.604, -0.368, 0.715, -0.122, 0.122, 0.244, -27.048, -37.029, -101.514, -20.253, 0.087, -4.793, 24.7, -0.5253, 0.37952, 0.02347, 0.76117,
 15:53:00.885,ed:40:fe:65:30:6c, 2015-01-01 02:15:22.085, 0.602, -0.37, 0.719, -0.244, 0, 0.122, -27.054, -37.024, -101.514, -20.253, 0.087, -4.793, 24.7, -0.5253, 0.37952, 0.02347, 0.76117,
 15:53:00.885,ed:40:fe:65:30:6c, 2015-01-01 02:15:22.085, 0.604, -0.368, 0.716, 0, -0.122, 0, -27.059, -37.024, -101.503, -20.253, 0.087, -4.793, 24.7, -0.5253, 0.37952, 0.02347, 0.76117,
 15:53:00.885,ed:40:fe:65:30:6c, 2015-01-01 02:15:22.085, 0.602, -0.37, 0.719, -0.244, 0, 0.122, -27.054, -37.024, -101.514, -20.253, 0.087, -4.793, 24.7, -0.5253, 0.37952, 0.02347, 0.76117,
 15:53:00.888,e3:ca:2d:fd:e0:8c, 2015-01-01 02:15:11.155, 0.975, -0.307, 0.068, 0.977, -0.366, 0.305, -77.415, -72.098, -130.342, -27.020, -4.047, -7.227, 26.92, -0.07468, -0.62759, 0.27112, -0.72589,
 15:53:00.888,e3:ca:2d:fd:e0:8c, 2015-01-01 02:15:11.155, 0.974, -0.307, 0.065, 0.793, -0.061, 0.244, -77.41, -72.092, -130.364, -27.020, -4.047, -7.227, 26.92, -0.07468, -0.62759, 0.27112, -0.72589,
 15:53:00.888,e3:ca:2d:fd:e0:8c, 2015-01-01 02:15:11.155, 0.975, -0.307, 0.069, 0.549, 0.061, 0.244, -77.399, -72.087, -130.364, -27.020, -4.047, -7.227, 26.92, -0.07468, -0.62759, 0.27112, -0.72589,
 15:53:00.888,e3:ca:2d:fd:e0:8c, 2015-01-01 02:15:11.155, 0.974, -0.307, 0.065, 0.793, -0.061, 0.244, -77.41, -72.092, -130.364, -27.020, -4.047, -7.227, 26.92, -0.07468, -0.62759, 0.27112, -0.72589,
 15:53:00.890,e3:ca:2d:fd:e0:8c, 2015-01-01 02:15:11.155, 0.975, -0.307, 0.069, 0.549, 0.061, 0.244, -77.399, -72.087, -130.364, -27.020, -4.047, -7.227, 26.92, -0.07468, -0.62759, 0.27112, -0.72589,
 15:53:00.890,e3:ca:2d:fd:e0:8c, 2015-01-01 02:15:11.155, 0.973, -0.309, 0.069, 0.549, -0.122, 0.244, -77.399, -72.081, -130.353, -27.020, -4.047, -7.227, 26.92, -0.07468, -0.62759, 0.27112, -0.72589,
 15:53:00.890,e3:ca:2d:fd:e0:8c, 2015-01-01 02:15:11.155, 0.975, -0.309, 0.068, 0.427, -0.122, 0.183, -77.399, -72.076, -130.364, -27.020, -4.047, -7.227, 26.92, -0.07468, -0.62759, 0.27112, -0.72589,
 15:53:00.890,e3:ca:2d:fd:e0:8c, 2015-01-01 02:15:11.155, 0.973, -0.309, 0.069, 0.549, -0.122, 0.244, -77.399, -72.081, -130.353, -27.020, -4.047, -7.227, 26.92, -0.07468, -0.62759, 0.27112, -0.72589,
 15:53:00.891,ed:35:33:d3:6c:f8, 2015-01-01 02:15:10.085, 0.396, -0.397, 0.821, 0, -0.183, 0.366, -25.67, -23.648, 170.063, -10.193, -0.120, -33.033, 27.25, 0.12915, 0.17999, -0.2348, 0.94641,
 15:53:00.891,ed:35:33:d3:6c:f8, 2015-01-01 02:15:10.085, 0.391, -0.4, 0.824, -0.183, -0.244, 0.366, -25.681, -23.648, 170.068, -10.193, -0.120, -33.033, 27.25, 0.12915, 0.17999, -0.2348, 0.94641,
 15:53:00.891,ed:35:33:d3:6c:f8, 2015-01-01 02:15:10.085, 0.396, -0.399, 0.824, 0.244, -0.366, 0.244, -25.681, -23.648, 170.09, -10.193, -0.120, -33.033, 27.25, 0.12915, 0.17999, -0.2348, 0.94641,
 15:53:00.891,ed:35:33:d3:6c:f8, 2015-01-01 02:15:10.085, 0.391, -0.4, 0.824, -0.183, -0.244, 0.366, -25.681, -23.648, 170.068, -10.193, -0.120, -33.033, 27.25, 0.12915, 0.17999, -0.2348, 0.94641,
 15:53:00.895,f6:90:cc:01:6d:25, 2015-01-01 02:15:08.780, 0.929, -0.305, 0.143, 0.366, -0.061, -0.061, -64.731, -70.23, -113.165, -29.960, -4.147, -3.307, 29.84, 0.12134, -0.64703, 0.09995, -0.746,
 15:53:00.895,f6:90:cc:01:6d:25, 2015-01-01 02:15:08.780, 0.929, -0.303, 0.143, 0.305, -0.122, -0.061, -64.726, -70.23, -113.132, -29.960, -4.147, -3.307, 29.84, 0.12134, -0.64703, 0.09995, -0.746,
 15:53:00.895,f6:90:cc:01:6d:25, 2015-01-01 02:15:08.780, 0.929, -0.303, 0.144, 0.183, -0.366, -0.061, -64.731, -70.23, -113.104, -29.960, -4.147, -3.307, 29.84, 0.12134, -0.64703, 0.09995, -0.746,
 15:53:00.895,f6:90:cc:01:6d:25, 2015-01-01 02:15:08.780, 0.929, -0.303, 0.143, 0.305, -0.122, -0.061, -64.726, -70.23, -113.132, -29.960, -4.147, -3.307, 29.84, 0.12134, -0.64703, 0.09995, -0.746,
 15:53:00.918,e3:ca:2d:fd:e0:8c, 2015-01-01 02:15:11.155, 0.974, -0.309, 0.068, 0.427, -0.122, 0.183, -77.399, -72.076, -130.364, -27.020, -4.047, -7.227, 26.92, -0.07468, -0.62759, 0.27112, -0.72589,
 15:53:00.918,e3:ca:2d:fd:e0:8c, 2015-01-01 02:15:11.155, 0.973, -0.308, 0.068, 0.305, 0, 0.122, -77.393, -72.076, -130.397, -27.020, -4.047, -7.227, 26.92, -0.07468, -0.62759, 0.27112, -0.72589,
 15:53:00.918,e3:ca:2d:fd:e0:8c, 2015-01-01 02:15:11.155, 0.974, -0.309, 0.07, 0.305, 0.122, 0.244, -77.382, -72.07, -130.43, -27.020, -4.047, -7.227, 26.92, -0.07468, -0.62759, 0.27112, -0.72589,
 15:53:00.918,e3:ca:2d:fd:e0:8c, 2015-01-01 02:15:11.155, 0.973, -0.308, 0.068, 0.305, 0, 0.122, -77.393, -72.076, -130.397, -27.020, -4.047, -7.227, 26.92, -0.07468, -0.62759, 0.27112, -0.72589,
 15:53:00.921,ed:35:33:d3:6c:f8, 2015-01-01 02:15:10.085, 0.401, -0.399, 0.824, 0.244, -0.366, 0.244, -25.681, -23.648, 170.09, -10.193, -0.120, -33.033, 27.25, 0.12915, 0.17999, -0.2348, 0.94641,
 15:53:00.921,ed:35:33:d3:6c:f8, 2015-01-01 02:15:10.085, 0.398, -0.394, 0.814, 0.244, -0.061, -0.305, -25.67, -23.654, 170.118, -10.193, -0.120, -33.033, 27.25, 0.12915, 0.17999, -0.2348, 0.94641,
 15:53:00.921,ed:35:33:d3:6c:f8, 2015-01-01 02:15:10.085, 0.401, -0.395, 0.816, -0.183, 0.122, 0.061, -25.67, -23.654, 170.14, -10.193, -0.120, -33.033, 27.25, 0.12915, 0.17999, -0.2348, 0.94641,
 15:53:00.921,ed:35:33:d3:6c:f8, 2015-01-01 02:15:10.085, 0.398, -0.394, 0.814, 0.244, -0.061, -0.305, -25.67, -23.654, 170.118, -10.193, -0.120, -33.033, 27.25, 0.12915, 0.17999, -0.2348, 0.94641,
 15:53:00.945,ed:40:fe:65:30:6c, 2015-01-01 02:15:22.085, 0.605, -0.368, 0.716, 0, -0.122, 0, -27.059, -37.024, -101.503, -20.253, 0.087, -4.793, 24.7, -0.5253, 0.37952, 0.02347, 0.76117,
 15:53:00.945,ed:40:fe:65:30:6c, 2015-01-01 02:15:22.085, 0.606, -0.366, 0.712, 0, 0, 0, -27.059, -37.018, -101.508, -20.253, 0.087, -4.793, 24.7, -0.5253, 0.37952, 0.02347, 0.76117,
 15:53:00.945,ed:40:fe:65:30:6c, 2015-01-01 02:15:22.085, 0.605, -0.365, 0.71, 0, 0.244, 0, -27.059, -37.018, -101.53, -20.253, 0.087, -4.793, 24.7, -0.5253, 0.37952, 0.02347, 0.76117,
 15:53:00.945,ed:40:fe:65:30:6c, 2015-01-01 02:15:22.085, 0.606, -0.366, 0.712, 0, 0, 0, -27.059, -37.018, -101.508, -20.253, 0.087, -4.793, 24.7, -0.5253, 0.37952, 0.02347, 0.76117,
 15:53:00.955,f6:90:cc:01:6d:25, 2015-01-01 02:15:08.780, 0.929, -0.303, 0.144, 0.183, -0.366, -0.061, -64.731, -70.23, -113.104, -29.960, -4.147, -3.307, 29.84, 0.12134, -0.64703, 0.09995, -0.746,
 15:53:00.955,f6:90:cc:01:6d:25, 2015-01-01 02:15:08.780, 0.926, -0.305, 0.145, 0.366, -0.305, 0, -64.742, -70.236, -113.055, -29.960, -4.147, -3.307, 29.84, 0.12134, -0.64703, 0.09995, -0.746,
 15:53:00.955,f6:90:cc:01:6d:25, 2015-01-01 02:15:08.780, 0.929, -0.307, 0.143, 0.488, -0.122, 0, -64.748, -70.236, -113.027, -29.960, -4.147, -3.307, 29.84, 0.12134, -0.64703, 0.09995, -0.746,
 15:53:00.955,f6:90:cc:01:6d:25, 2015-01-01 02:15:08.780, 0.926, -0.305, 0.145, 0.366, -0.305, 0, -64.742, -70.236, -113.055, -29.960, -4.147, -3.307, 29.84, 0.12134, -0.64703, 0.09995, -0.746,
 15:53:00.981,ed:35:33:d3:6c:f8, 2015-01-01 02:15:10.085, 0.391, -0.395, 0.816, -0.183, 0.122, 0.061, -25.67, -23.654, 170.14, -10.193, -0.120, -33.033, 27.25, 0.12915, 0.17999, -0.2348, 0.94641,
 15:53:00.981,ed:35:33:d3:6c:f8, 2015-01-01 02:15:10.085, 0.392, -0.399, 0.821, 0.305, 0.244, 0.183, -25.67, -23.648, 170.162, -10.193, -0.120, -33.033, 27.25, 0.12915, 0.17999, -0.2348, 0.94641,
 15:53:00.981,ed:35:33:d3:6c:f8, 2015-01-01 02:15:10.085, 0.391, -0.397, 0.821, 0.61, 0, 0, -25.664, -23.643, 170.189, -10.193, -0.120, -33.033, 27.25, 0.12915, 0.17999, -0.2348, 0.94641,
 15:53:00.981,ed:35:33:d3:6c:f8, 2015-01-01 02:15:10.085, 0.392, -0.399, 0.821, 0.305, 0.244, 0.183, -25.67, -23.648, 170.162, -10.193, -0.120, -33.033, 27.25, 0.12915, 0.17999, -0.2348, 0.94641,
 15:53:00.985,f6:90:cc:01:6d:25, 2015-01-01 02:15:08.780, 0.926, -0.307, 0.143, 0.488, -0.122, 0, -64.748, -70.236, -113.027, -29.960, -4.147, -3.307, 29.84, 0.12134, -0.64703, 0.09995, -0.746,
 15:53:00.985,f6:90:cc:01:6d:25, 2015-01-01 02:15:08.780, 0.93, -0.306, 0.142, 0.244, -0.122, 0, -64.748, -70.236, -113.033, -29.960, -4.147, -3.307, 29.84, 0.12134, -0.64703, 0.09995, -0.746,
 15:53:00.985,f6:90:cc:01:6d:25, 2015-01-01 02:15:08.780, 0.926, -0.305, 0.143, 0, -0.305, 0, -64.753, -70.236, -113, -29.960, -4.147, -3.307, 29.84, 0.12134, -0.64703, 0.09995, -0.746,
 15:53:00.985,f6:90:cc:01:6d:25, 2015-01-01 02:15:08.780, 0.93, -0.306, 0.142, 0.244, -0.122, 0, -64.748, -70.236, -113.033, -29.960, -4.147, -3.307, 29.84, 0.12134, -0.64703, 0.09995, -0.746,
 15:53:01.005,ed:40:fe:65:30:6c, 2015-01-01 02:15:22.085, 0.602, -0.365, 0.71, 0, 0.244, 0, -27.059, -37.018, -101.53, -20.253, 0.087, -4.793, 24.7, -0.5253, 0.37952, 0.02347, 0.76117,
 15:53:01.005,ed:40:fe:65:30:6c, 2015-01-01 02:15:22.085, 0.6, -0.367, 0.713, -0.061, 0.488, 0, -27.059, -37.013, -101.558, -20.253, 0.087, -4.793, 24.7, -0.5253, 0.37952, 0.02347, 0.76117,
 15:53:01.005,ed:40:fe:65:30:6c, 2015-01-01 02:15:22.085, 0.602, -0.37, 0.716, 0.183, 0.366, 0.061, -27.054, -37.002, -101.591, -20.253, 0.087, -4.793, 24.7, -0.5253, 0.37952, 0.02347, 0.76117,
 15:53:01.005,ed:40:fe:65:30:6c, 2015-01-01 02:15:22.085, 0.6, -0.367, 0.713, -0.061, 0.488, 0, -27.059, -37.013, -101.558, -20.253, 0.087, -4.793, 24.7, -0.5253, 0.37952, 0.02347, 0.76117,
 15:53:01.007,ed:40:fe:65:30:6c, 2015-01-01 02:15:22.085, 0.603, -0.37, 0.716, 0.183, 0.366, 0.061, -27.054, -37.002, -101.591, -20.253, 0.087, -4.793, 24.7, -0.5253, 0.37952, 0.02347, 0.76117,
 15:53:01.007,ed:40:fe:65:30:6c, 2015-01-01 02:15:22.085, 0.607, -0.365, 0.716, 0.366, 0.122, 0, -27.048, -36.996, -101.613, -20.253, 0.087, -4.793, 24.7, -0.5253, 0.37952, 0.02347, 0.76117,
 15:53:01.007,ed:40:fe:65:30:6c, 2015-01-01 02:15:22.085, 0.603, -0.363, 0.715, 0.305, 0.183, 0.183, -27.043, -36.991, -101.635, -20.253, 0.087, -4.793, 24.7, -0.5253, 0.37952, 0.02347, 0.76117,
 15:53:01.007,ed:40:fe:65:30:6c, 2015-01-01 02:15:22.085, 0.607, -0.365, 0.716, 0.366, 0.122, 0, -27.048, -36.996, -101.613, -20.253, 0.087, -4.793, 24.7, -0.5253, 0.37952, 0.02347, 0.76117,
 15:53:01.008,e3:ca:2d:fd:e0:8c, 2015-01-01 02:15:11.155, 0.971, -0.309, 0.07, 0.305, 0.122, 0.244, -77.382, -72.07, -130.43, -27.020, -4.047, -7.227, 26.92, -0.07468, -0.62759, 0.27112, -0.72589,
 15:53:01.008,e3:ca:2d:fd:e0:8c, 2015-01-01 02:15:11.155, 0.97, -0.31, 0.07, 0.427, -0.061, 0.183, -77.382, -72.065, -130.463, -27.020, -4.047, -7.227, 26.92, -0.07468, -0.62759, 0.27112, -0.72589,
 15:53:01.008,e3:ca:2d:fd:e0:8c, 2015-01-01 02:15:11.155, 0.971, -0.31, 0.07, 0.427, -0.183, 0.122, -77.388, -72.065, -130.474, -27.020, -4.047, -7.227, 26.92, -0.07468, -0.62759, 0.27112, -0.72589,
 15:53:01.008,e3:ca:2d:fd:e0:8c, 2015-01-01 02:15:11.155, 0.97, -0.31, 0.07, 0.427, -0.061, 0.183, -77.382, -72.065, -130.463, -27.020, -4.047, -7.227, 26.92, -0.07468, -0.62759, 0.27112, -0.72589,
 15:53:01.012,ed:35:33:d3:6c:f8, 2015-01-01 02:15:10.085, 0.401, -0.397, 0.821, 0.61, 0, 0, -25.664, -23.643, 170.189, -10.493, -0.473, -32.853, 27.25, 0.12915, 0.17999, -0.2348, 0.94641,
 15:53:01.012,ed:35:33:d3:6c:f8, 2015-01-01 02:15:10.085, 0.401, -0.389, 0.82, 0.183, 0, -0.061, -25.659, -23.637, 170.211, -10.493, -0.473, -32.853, 27.25, 0.12915, 0.17999, -0.2348, 0.94641,
 15:53:01.012,ed:35:33:d3:6c:f8, 2015-01-01 02:15:10.085, 0.401, -0.395, 0.821, 0.122, 0.061, 0.61, -25.653, -23.637, 170.228, -10.493, -0.473, -32.853, 27.25, 0.12915, 0.17999, -0.2348, 0.94641,
 15:53:01.012,ed:35:33:d3:6c:f8, 2015-01-01 02:15:10.085, 0.401, -0.389, 0.82, 0.183, 0, -0.061, -25.659, -23.637, 170.211, -10.493, -0.473, -32.853, 27.25, 0.12915, 0.17999, -0.2348, 0.94641,
 15:53:01.016,f6:90:cc:01:6d:25, 2015-01-01 02:15:08.780, 0.932, -0.305, 0.143, 0, -0.305, 0, -64.753, -70.236, -113, -29.900, -3.973, -3.373, 29.84, 0.12134, -0.64703, 0.09995, -0.746,
 15:53:01.016,f6:90:cc:01:6d:25, 2015-01-01 02:15:08.780, 0.931, -0.304, 0.143, 0.122, -0.244, 0, -64.77, -70.236, -112.967, -29.900, -3.973, -3.373, 29.84, 0.12134, -0.64703, 0.09995, -0.746,
 15:53:01.016,f6:90:cc:01:6d:25, 2015-01-01 02:15:08.780, 0.932, -0.305, 0.142, 0.244, -0.061, 0.061, -64.775, -70.23, -112.945, -29.900, -3.973, -3.373, 29.84, 0.12134, -0.64703, 0.09995, -0.746,
 15:53:01.016,f6:90:cc:01:6d:25, 2015-01-01 02:15:08.780, 0.931, -0.304, 0.143, 0.122, -0.244, 0, -64.77, -70.236, -112.967, -29.900, -3.973, -3.373, 29.84, 0.12134, -0.64703, 0.09995, -0.746,
 15:53:01.035,ed:40:fe:65:30:6c, 2015-01-01 02:15:22.085, 0.606, -0.363, 0.715, 0.305, 0.183, 0.183, -27.043, -36.991, -101.635, -20.253, 0.087, -4.793, 24.7, -0.5253, 0.37952, 0.02347, 0.76117,
 15:53:01.035,ed:40:fe:65:30:6c, 2015-01-01 02:15:22.085, 0.603, -0.365, 0.716, 0.305, 0.366, 0.305, -27.037, -36.985, -101.646, -20.253, 0.087, -4.793, 24.7, -0.5253, 0.37952, 0.02347, 0.76117,
 15:53:01.035,ed:40:fe:65:30:6c, 2015-01-01 02:15:22.085, 0.606, -0.368, 0.718, 0.488, 0.244, 0.366, -27.037, -36.974, -101.646, -20.253, 0.087, -4.793, 24.7, -0.5253, 0.37952, 0.02347, 0.76117,
 15:53:01.035,ed:40:fe:65:30:6c, 2015-01-01 02:15:22.085, 0.603, -0.365, 0.716, 0.305, 0.366, 0.305, -27.037, -36.985, -101.646, -20.253, 0.087, -4.793, 24.7, -0.5253, 0.37952, 0.02347, 0.76117,
 15:53:01.039,e3:ca:2d:fd:e0:8c, 2015-01-01 02:15:11.155, 0.973, -0.31, 0.07, 0.427, -0.183, 0.122, -77.388, -72.065, -130.474, -26.633, -3.760, -8.380, 26.92, -0.07468, -0.62759, 0.27112, -0.72589,
 15:53:01.039,e3:ca:2d:fd:e0:8c, 2015-01-01 02:15:11.155, 0.976, -0.31, 0.07, 0.244, 0, 0, -77.382, -72.065, -130.496, -26.633, -3.760, -8.380, 26.92, -0.07468, -0.62759, 0.27112, -0.72589,
 15:53:01.039,e3:ca:2d:fd:e0:8c, 2015-01-01 02:15:11.155, 0.973, -0.309, 0.069, 0.244, 0.244, 0, -77.36, -72.059, -130.518, -26.633, -3.760, -8.380, 26.92, -0.07468, -0.62759, 0.27112, -0.72589,
 15:53:01.039,e3:ca:2d:fd:e0:8c, 2015-01-01 02:15:11.155, 0.976, -0.31, 0.07, 0.244, 0, 0, -77.382, -72.065, -130.496, -26.633, -3.760, -8.380, 26.92, -0.07468, -0.62759, 0.27112, -0.72589,
 15:53:01.042,ed:35:33:d3:6c:f8, 2015-01-01 02:15:10.085, 0.396, -0.395, 0.821, 0.122, 0.061, 0.61, -25.653, -23.637, 170.228, -10.493, -0.473, -32.853, 27.25, 0.12915, 0.17999, -0.2348, 0.94641,
 15:53:01.042,ed:35:33:d3:6c:f8, 2015-01-01 02:15:10.085, 0.392, -0.396, 0.824, 0.488, 0, 0.732, -25.659, -23.626, 170.255, -10.493, -0.473, -32.853, 27.25, 0.12915, 0.17999, -0.2348, 0.94641,
 15:53:01.042,ed:35:33:d3:6c:f8, 2015-01-01 02:15:10.085, 0.396, -0.4, 0.823, 0.183, -0.183, 0.549, -25.653, -23.621, 170.288, -10.493, -0.473, -32.853, 27.25, 0.12915, 0.17999, -0.2348, 0.94641,
 15:53:01.042,ed:35:33:d3:6c:f8, 2015-01-01 02:15:10.085, 0.392, -0.396, 0.824, 0.488, 0, 0.732, -25.659, -23.626, 170.255, -10.493, -0.473, -32.853, 27.25, 0.12915, 0.17999, -0.2348, 0.94641,
 15:53:01.068,e3:ca:2d:fd:e0:8c, 2015-01-01 02:15:11.155, 0.976, -0.309, 0.069, 0.244, 0.244, 0, -77.36, -72.059, -130.518, -26.633, -3.760, -8.380, 26.92, -0.07468, -0.62759, 0.27112, -0.72589,
 15:53:01.068,e3:ca:2d:fd:e0:8c, 2015-01-01 02:15:11.155, 0.973, -0.309, 0.07, 0.244, 0.122, 0.061, -77.349, -72.059, -130.523, -26.633, -3.760, -8.380, 26.92, -0.07468, -0.62759, 0.27112, -0.72589,
 15:53:01.068,e3:ca:2d:fd:e0:8c, 2015-01-01 02:15:11.155, 0.976, -0.31, 0.068, 0.122, 0, 0, -77.344, -72.054, -130.523, -26.633, -3.760, -8.380, 26.92, -0.07468, -0.62759, 0.27112, -0.72589,
 15:53:01.068,e3:ca:2d:fd:e0:8c, 2015-01-01 02:15:11.155, 0.973, -0.309, 0.07, 0.244, 0.122, 0.061, -77.349, -72.059, -130.523, -26.633, -3.760, -8.380, 26.92, -0.07468, -0.62759, 0.27112, -0.72589,
 15:53:01.095,ed:40:fe:65:30:6c, 2015-01-01 02:15:22.085, 0.602, -0.368, 0.718, 0.488, 0.244, 0.366, -27.037, -36.974, -101.646, -20.253, 0.087, -4.793, 24.7, -0.5253, 0.37952, 0.02347, 0.76117,
 15:53:01.095,ed:40:fe:65:30:6c, 2015-01-01 02:15:22.085, 0.606, -0.367, 0.716, 0.427, 0, 0.183, -27.032, -36.969, -101.667, -20.253, 0.087, -4.793, 24.7, -0.5253, 0.37952, 0.02347, 0.76117,
 15:53:01.095,ed:40:fe:65:30:6c, 2015-01-01 02:15:22.085, 0.602, -0.363, 0.714, 0.305, -0.061, 0.183, -27.026, -36.969, -101.678, -20.253, 0.087, -4.793, 24.7, -0.5253, 0.37952, 0.02347, 0.76117,
 15:53:01.095,ed:40:fe:65:30:6c, 2015-01-01 02:15:22.085, 0.606, -0.367, 0.716, 0.427, 0, 0.183, -27.032, -36.969, -101.667, -20.253, 0.087, -4.793, 24.7, -0.5253, 0.37952, 0.02347, 0.76117,
 15:53:01.100,e3:ca:2d:fd:e0:8c, 2015-01-01 02:15:11.155, 0.972, -0.31, 0.068, 0.122, 0, 0, -77.344, -72.054, -130.523, -26.633, -3.760, -8.380, 26.92, -0.07468, -0.62759, 0.27112, -0.72589,
 15:53:01.100,e3:ca:2d:fd:e0:8c, 2015-01-01 02:15:11.155, 0.974, -0.308, 0.067, -0.183, 0.244, -0.061, -77.333, -72.054, -130.529, -26.633, -3.760, -8.380, 26.92, -0.07468, -0.62759, 0.27112, -0.72589,
 15:53:01.100,e3:ca:2d:fd:e0:8c, 2015-01-01 02:15:11.155, 0.972, -0.307, 0.067, -0.549, 0.488, -0.122, -77.316, -72.054, -130.562, -26.633, -3.760, -8.380, 26.92, -0.07468, -0.62759, 0.27112, -0.72589,
 15:53:01.100,e3:ca:2d:fd:e0:8c, 2015-01-01 02:15:11.155, 0.974, -0.308, 0.067, -0.183, 0.244, -0.061, -77.333, -72.054, -130.529, -26.633, -3.760, -8.380, 26.92, -0.07468, -0.62759, 0.27112, -0.72589,
 15:53:01.103,ed:35:33:d3:6c:f8, 2015-01-01 02:15:10.085, 0.396, -0.4, 0.823, 0.183, -0.183, 0.549, -25.653, -23.621, 170.288, -10.493, -0.473, -32.853, 27.25, 0.12631, 0.18045, -0.23349, 0.94702,
 15:53:01.103,ed:35:33:d3:6c:f8, 2015-01-01 02:15:10.085, 0.399, -0.393, 0.82, -0.366, -0.427, 0.061, -25.659, -23.621, 170.31, -10.493, -0.473, -32.853, 27.25, 0.12631, 0.18045, -0.23349, 0.94702,
 15:53:01.103,ed:35:33:d3:6c:f8, 2015-01-01 02:15:10.085, 0.396, -0.393, 0.82, -0.549, -0.488, -0.183, -25.67, -23.626, 170.332, -10.493, -0.473, -32.853, 27.25, 0.12631, 0.18045, -0.23349, 0.94702,
 15:53:01.103,ed:35:33:d3:6c:f8, 2015-01-01 02:15:10.085, 0.399, -0.393, 0.82, -0.366, -0.427, 0.061, -25.659, -23.621, 170.31, -10.493, -0.473, -32.853, 27.25, 0.12631, 0.18045, -0.23349, 0.94702,
 15:53:01.105,f6:90:cc:01:6d:25, 2015-01-01 02:15:08.780, 0.928, -0.305, 0.142, 0.244, -0.061, 0.061, -64.775, -70.23, -112.945, -29.900, -3.973, -3.373, 29.84, 0.12134, -0.64703, 0.09995, -0.746,
 15:53:01.105,f6:90:cc:01:6d:25, 2015-01-01 02:15:08.780, 0.928, -0.305, 0.14, 0, -0.061, 0.061, -64.781, -70.23, -112.939, -29.900, -3.973, -3.373, 29.84, 0.12134, -0.64703, 0.09995, -0.746,
 15:53:01.105,f6:90:cc:01:6d:25, 2015-01-01 02:15:08.780, 0.928, -0.303, 0.139, -0.427, -0.305, 0, -64.797, -70.23, -112.934, -29.900, -3.973, -3.373, 29.84, 0.12134, -0.64703, 0.09995, -0.746,
 15:53:01.105,f6:90:cc:01:6d:25, 2015-01-01 02:15:08.780, 0.928, -0.305, 0.14, 0, -0.061, 0.061, -64.781, -70.23, -112.939, -29.900, -3.973, -3.373, 29.84, 0.12134, -0.64703, 0.09995, -0.746,
 15:53:01.105,f6:90:cc:01:6d:25, 2015-01-01 02:15:08.780, 0.931, -0.303, 0.139, -0.427, -0.305, 0, -64.797, -70.23, -112.934, -29.900, -3.973, -3.373, 29.84, 0.12134, -0.64703, 0.09995, -0.746,
 15:53:01.105,f6:90:cc:01:6d:25, 2015-01-01 02:15:08.780, 0.93, -0.303, 0.143, -0.61, -0.366, 0.061, -64.825, -70.23, -112.912, -29.900, -3.973, -3.373, 29.84, 0.12134, -0.64703, 0.09995, -0.746,
 15:53:01.105,f6:90:cc:01:6d:25, 2015-01-01 02:15:08.780, 0.931, -0.303, 0.143, -0.488, -0.305, 0.122, -64.858, -70.23, -112.874, -29.900, -3.973, -3.373, 29.84, 0.12134, -0.64703, 0.09995, -0.746,
 15:53:01.105,f6:90:cc:01:6d:25, 2015-01-01 02:15:08.780, 0.93, -0.303, 0.143, -0.61, -0.366, 0.061, -64.825, -70.23, -112.912, -29.900, -3.973, -3.373, 29.84, 0.12134, -0.64703, 0.09995, -0.746,
 15:53:01.126,ed:40:fe:65:30:6c, 2015-01-01 02:15:22.085, 0.606, -0.363, 0.714, 0.305, -0.061, 0.183, -27.026, -36.969, -101.678, -20.133, -0.727, -5.920, 24.7, -0.5253, 0.37952, 0.02347, 0.76117,
 15:53:01.126,ed:40:fe:65:30:6c, 2015-01-01 02:15:22.085, 0.604, -0.364, 0.716, 0.061, 0, 0.183, -27.026, -36.969, -101.678, -20.133, -0.727, -5.920, 24.7, -0.5253, 0.37952, 0.02347, 0.76117,
 15:53:01.126,ed:40:fe:65:30:6c, 2015-01-01 02:15:22.085, 0.606, -0.366, 0.715, 0.122, 0.061, 0.183, -27.026, -36.964, -101.667, -20.133, -0.727, -5.920, 24.7, -0.5253, 0.37952, 0.02347, 0.76117,
 15:53:01.126,ed:40:fe:65:30:6c, 2015-01-01 02:15:22.085, 0.604, -0.364, 0.716, 0.061, 0, 0.183, -27.026, -36.969, -101.678, -20.133, -0.727, -5.920, 24.7, -0.5253, 0.37952, 0.02347, 0.76117,
 15:53:01.129,e3:ca:2d:fd:e0:8c, 2015-01-01 02:15:11.155, 0.975, -0.307, 0.067, -0.549, 0.488, -0.122, -77.316, -72.054, -130.562, -26.633, -3.760, -8.380, 26.92, -0.06961, -0.62851, 0.26678, -0.72723,
 15:53:01.129,e3:ca:2d:fd:e0:8c, 2015-01-01 02:15:11.155, 0.974, -0.307, 0.07, -0.671, 0.488, -0.061, -77.3, -72.054, -130.594, -26.633, -3.760, -8.380, 26.92, -0.06961, -0.62851, 0.26678, -0.72723,
 15:53:01.129,e3:ca:2d:fd:e0:8c, 2015-01-01 02:15:11.155, 0.975, -0.308, 0.07, -0.549, 0.305, 0, -77.294, -72.054, -130.616, -26.633, -3.760, -8.380, 26.92, -0.06961, -0.62851, 0.26678, -0.72723,
 15:53:01.129,e3:ca:2d:fd:e0:8c, 2015-01-01 02:15:11.155, 0.974, -0.307, 0.07, -0.671, 0.488, -0.061, -77.3, -72.054, -130.594, -26.633, -3.760, -8.380, 26.92, -0.06961, -0.62851, 0.26678, -0.72723,
 15:53:01.131,ed:35:33:d3:6c:f8, 2015-01-01 02:15:10.440, 0.399, -0.393, 0.82, -0.549, -0.488, -0.183, -25.67, -23.626, 170.332, -10.493, -0.473, -32.853, 27.25, 0.12631, 0.18045, -0.23349, 0.94702,
 15:53:01.131,ed:35:33:d3:6c:f8, 2015-01-01 02:15:10.440, 0.392, -0.395, 0.82, -0.549, -0.305, 0.061, -25.681, -23.637, 170.354, -10.493, -0.473, -32.853, 27.25, 0.12631, 0.18045, -0.23349, 0.94702,
 15:53:01.131,ed:35:33:d3:6c:f8, 2015-01-01 02:15:10.440, 0.399, -0.4, 0.823, 0.305, -0.427, 0.488, -25.692, -23.637, 170.37, -10.493, -0.473, -32.853, 27.25, 0.12631, 0.18045, -0.23349, 0.94702,
 15:53:01.131,ed:35:33:d3:6c:f8, 2015-01-01 02:15:10.440, 0.392, -0.395, 0.82, -0.549, -0.305, 0.061, -25.681, -23.637, 170.354, -10.493, -0.473, -32.853, 27.25, 0.12631, 0.18045, -0.23349, 0.94702,
 15:53:01.156,ed:40:fe:65:30:6c, 2015-01-01 02:15:22.085, 0.6, -0.366, 0.715, 0.122, 0.061, 0.183, -27.026, -36.964, -101.667, -20.133, -0.727, -5.920, 24.7, -0.5253, 0.37952, 0.02347, 0.76117,
 15:53:01.156,ed:40:fe:65:30:6c, 2015-01-01 02:15:22.085, 0.603, -0.37, 0.717, 0.549, -0.122, 0.122, -27.021, -36.964, -101.667, -20.133, -0.727, -5.920, 24.7, -0.5253, 0.37952, 0.02347, 0.76117,
 15:53:01.156,ed:40:fe:65:30:6c, 2015-01-01 02:15:22.085, 0.6, -0.367, 0.716, 0.977, -0.366, 0, -27.01, -36.969, -101.678, -20.133, -0.727, -5.920, 24.7, -0.5253, 0.37952, 0.02347, 0.76117,
 15:53:01.156,ed:40:fe:65:30:6c, 2015-01-01 02:15:22.085, 0.603, -0.37, 0.717, 0.549, -0.122, 0.122, -27.021, -36.964, -101.667, -20.133, -0.727, -5.920, 24.7, -0.5253, 0.37952, 0.02347, 0.76117,
 15:53:01.160,e3:ca:2d:fd:e0:8c, 2015-01-01 02:15:11.155, 0.971, -0.308, 0.07, -0.549, 0.305, 0, -77.294, -72.054, -130.616, -26.633, -3.760, -8.380, 26.92, -0.06961, -0.62851, 0.26678, -0.72723,
 15:53:01.160,e3:ca:2d:fd:e0:8c, 2015-01-01 02:15:11.155, 0.975, -0.308, 0.07, -0.549, 0.366, 0, -77.283, -72.048, -130.638, -26.633, -3.760, -8.380, 26.92, -0.06961, -0.62851, 0.26678, -0.72723,
 15:53:01.160,e3:ca:2d:fd:e0:8c, 2015-01-01 02:15:11.155, 0.971, -0.308, 0.071, -0.732, 0.671, -0.122, -77.261, -72.048, -130.66, -26.633, -3.760, -8.380, 26.92, -0.06961, -0.62851, 0.26678, -0.72723,
 15:53:01.160,e3:ca:2d:fd:e0:8c, 2015-01-01 02:15:11.155, 0.975, -0.308, 0.07, -0.549, 0.366, 0, -77.283, -72.048, -130.638, -26.633, -3.760, -8.380, 26.92, -0.06961, -0.62851, 0.26678, -0.72723,
 15:53:01.162,ed:35:33:d3:6c:f8, 2015-01-01 02:15:10.440, 0.393, -0.4, 0.823, 0.305, -0.427, 0.488, -25.692, -23.637, 170.37, -10.493, -0.473, -32.853, 27.25, 0.12631, 0.18045, -0.23349, 0.94702,
 15:53:01.162,ed:35:33:d3:6c:f8, 2015-01-01 02:15:10.440, 0.399, -0.398, 0.82, 1.526, -0.671, 0.366, -25.686, -23.643, 170.398, -10.493, -0.473, -32.853, 27.25, 0.12631, 0.18045, -0.23349, 0.94702,
 15:53:01.162,ed:35:33:d3:6c:f8, 2015-01-01 02:15:10.440, 0.393, -0.391, 0.821, 0.549, -0.671, 0.183, -25.664, -23.648, 170.42, -10.493, -0.473, -32.853, 27.25, 0.12631, 0.18045, -0.23349, 0.94702,
 15:53:01.162,ed:35:33:d3:6c:f8, 2015-01-01 02:15:10.440, 0.399, -0.398, 0.82, 1.526, -0.671, 0.366, -25.686, -23.643, 170.398, -10.493, -0.473, -32.853, 27.25, 0.12631, 0.18045, -0.23349, 0.94702,
 15:53:01.166,f6:90:cc:01:6d:25, 2015-01-01 02:15:08.780, 0.927, -0.303, 0.143, -0.488, -0.305, 0.122, -64.858, -70.23, -112.874, -29.900, -3.973, -3.373, 29.84, 0.12466, -0.64691, 0.09692, -0.74597,
 15:53:01.166,f6:90:cc:01:6d:25, 2015-01-01 02:15:08.780, 0.926, -0.304, 0.142, -0.305, -0.122, 0.122, -64.88, -70.23, -112.841, -29.900, -3.973, -3.373, 29.84, 0.12466, -0.64691, 0.09692, -0.74597,
 15:53:01.166,f6:90:cc:01:6d:25, 2015-01-01 02:15:08.780, 0.927, -0.305, 0.141, -0.366, -0.061, 0, -64.896, -70.23, -112.819, -29.900, -3.973, -3.373, 29.84, 0.12466, -0.64691, 0.09692, -0.74597,
 15:53:01.166,f6:90:cc:01:6d:25, 2015-01-01 02:15:08.780, 0.926, -0.304, 0.142, -0.305, -0.122, 0.122, -64.88, -70.23, -112.841, -29.900, -3.973, -3.373, 29.84, 0.12466, -0.64691, 0.09692, -0.74597,
 15:53:01.196,f6:90:cc:01:6d:25, 2015-01-01 02:15:08.780, 0.928, -0.305, 0.141, -0.366, -0.061, 0, -64.896, -70.23, -112.819, -29.900, -3.973, -3.373, 29.84, 0.12466, -0.64691, 0.09692, -0.74597,
 15:53:01.196,f6:90:cc:01:6d:25, 2015-01-01 02:15:08.780, 0.931, -0.304, 0.143, -0.671, -0.061, 0, -64.907, -70.225, -112.824, -29.900, -3.973, -3.373, 29.84, 0.12466, -0.64691, 0.09692, -0.74597,
 15:53:01.196,f6:90:cc:01:6d:25, 2015-01-01 02:15:08.780, 0.928, -0.303, 0.143, -0.61, 0, 0, -64.924, -70.225, -112.83, -29.900, -3.973, -3.373, 29.84, 0.12466, -0.64691, 0.09692, -0.74597,
 15:53:01.196,f6:90:cc:01:6d:25, 2015-01-01 02:15:08.780, 0.931, -0.304, 0.143, -0.671, -0.061, 0, -64.907, -70.225, -112.824, -29.900, -3.973, -3.373, 29.84, 0.12466, -0.64691, 0.09692, -0.74597,
 15:53:01.219,ed:40:fe:65:30:6c, 2015-01-01 02:15:22.085, 0.606, -0.367, 0.716, 0.977, -0.366, 0, -27.01, -36.969, -101.678, -20.133, -0.727, -5.920, 24.7, -0.52493, 0.37894, 0.02286, 0.76172,
 15:53:01.219,ed:40:fe:65:30:6c, 2015-01-01 02:15:22.085, 0.604, -0.361, 0.716, 0.793, -0.244, 0.061, -26.993, -36.974, -101.7, -20.133, -0.727, -5.920, 24.7, -0.52493, 0.37894, 0.02286, 0.76172,
 15:53:01.219,ed:40:fe:65:30:6c, 2015-01-01 02:15:22.085, 0.606, -0.361, 0.717, 0.488, -0.061, 0.183, -26.988, -36.974, -101.706, -20.133, -0.727, -5.920, 24.7, -0.52493, 0.37894, 0.02286, 0.76172,
 15:53:01.219,ed:40:fe:65:30:6c, 2015-01-01 02:15:22.085, 0.604, -0.361, 0.716, 0.793, -0.244, 0.061, -26.993, -36.974, -101.7, -20.133, -0.727, -5.920, 24.7, -0.52493, 0.37894, 0.02286, 0.76172,
 15:53:01.219,e3:ca:2d:fd:e0:8c, 2015-01-01 02:15:11.660, 0.974, -0.308, 0.071, -0.732, 0.671, -0.122, -77.261, -72.048, -130.66, -26.633, -3.760, -8.380, 26.92, -0.06961, -0.62851, 0.26678, -0.72723,
 15:53:01.219,e3:ca:2d:fd:e0:8c, 2015-01-01 02:15:11.660, 0.973, -0.307, 0.07, -0.488, 0.305, -0.061, -77.234, -72.048, -130.693, -26.633, -3.760, -8.380, 26.92, -0.06961, -0.62851, 0.26678, -0.72723,
 15:53:01.219,e3:ca:2d:fd:e0:8c, 2015-01-01 02:15:11.660, 0.974, -0.308, 0.068, -0.549, 0.183, 0, -77.228, -72.048, -130.699, -26.633, -3.760, -8.380, 26.92, -0.06961, -0.62851, 0.26678, -0.72723,
 15:53:01.219,e3:ca:2d:fd:e0:8c, 2015-01-01 02:15:11.660, 0.973, -0.307, 0.07, -0.488, 0.305, -0.061, -77.234, -72.048, -130.693, -26.633, -3.760, -8.380, 26.92, -0.06961, -0.62851, 0.26678, -0.72723,
 15:53:01.222,ed:35:33:d3:6c:f8, 2015-01-01 02:15:10.440, 0.399, -0.391, 0.821, 0.549, -0.671, 0.183, -25.664, -23.648, 170.42, -10.493, -0.473, -32.853, 27.25, 0.12631, 0.18045, -0.23349, 0.94702,
 15:53:01.222,ed:35:33:d3:6c:f8, 2015-01-01 02:15:10.440, 0.395, -0.389, 0.821, -0.366, -0.488, 0.305, -25.664, -23.654, 170.436, -10.493, -0.473, -32.853, 27.25, 0.12631, 0.18045, -0.23349, 0.94702,
 15:53:01.222,ed:35:33:d3:6c:f8, 2015-01-01 02:15:10.440, 0.399, -0.398, 0.82, -0.183, -0.244, 0.488, -25.675, -23.659, 170.447, -10.493, -0.473, -32.853, 27.25, 0.12631, 0.18045, -0.23349, 0.94702,
 15:53:01.222,ed:35:33:d3:6c:f8, 2015-01-01 02:15:10.440, 0.395, -0.389, 0.821, -0.366, -0.488, 0.305, -25.664, -23.654, 170.436, -10.493, -0.473, -32.853, 27.25, 0.12631, 0.18045, -0.23349, 0.94702,
 15:53:01.224,f6:90:cc:01:6d:25, 2015-01-01 02:15:09.170, 0.929, -0.303, 0.143, -0.61, 0, 0, -64.924, -70.225, -112.83, -29.900, -3.973, -3.373, 29.84, 0.12466, -0.64691, 0.09692, -0.74597,
 15:53:01.224,f6:90:cc:01:6d:25, 2015-01-01 02:15:09.170, 0.927, -0.303, 0.141, -0.366, 0.061, 0, -64.929, -70.225, -112.857, -29.900, -3.973, -3.373, 29.84, 0.12466, -0.64691, 0.09692, -0.74597,
 15:53:01.224,f6:90:cc:01:6d:25, 2015-01-01 02:15:09.170, 0.929, -0.303, 0.142, -0.488, -0.061, 0, -64.94, -70.225, -112.879, -29.900, -3.973, -3.373, 29.84, 0.12466, -0.64691, 0.09692, -0.74597,
 15:53:01.224,f6:90:cc:01:6d:25, 2015-01-01 02:15:09.170, 0.927, -0.303, 0.141, -0.366, 0.061, 0, -64.929, -70.225, -112.857, -29.900, -3.973, -3.373, 29.84, 0.12466, -0.64691, 0.09692, -0.74597,
 15:53:01.249,e3:ca:2d:fd:e0:8c, 2015-01-01 02:15:11.660, 0.973, -0.308, 0.068, -0.549, 0.183, 0, -77.228, -72.048, -130.699, -26.633, -3.760, -8.380, 26.92, -0.06961, -0.62851, 0.26678, -0.72723,
 15:53:01.249,e3:ca:2d:fd:e0:8c, 2015-01-01 02:15:11.660, 0.976, -0.309, 0.07, -0.732, 0.305, 0, -77.228, -72.048, -130.704, -26.633, -3.760, -8.380, 26.92, -0.06961, -0.62851, 0.26678, -0.72723,
 15:53:01.249,e3:ca:2d:fd:e0:8c, 2015-01-01 02:15:11.660, 0.973, -0.309, 0.07, -0.61, 0.183, -0.122, -77.228, -72.043, -130.704, -26.633, -3.760, -8.380, 26.92, -0.06961, -0.62851, 0.26678, -0.72723,
 15:53:01.249,e3:ca:2d:fd:e0:8c, 2015-01-01 02:15:11.660, 0.976, -0.309, 0.07, -0.732, 0.305, 0, -77.228, -72.048, -130.704, -26.633, -3.760, -8.380, 26.92, -0.06961, -0.62851, 0.26678, -0.72723,
 15:53:01.251,ed:35:33:d3:6c:f8, 2015-01-01 02:15:10.440, 0.393, -0.398, 0.82, -0.183, -0.244, 0.488, -25.675, -23.659, 170.447, -10.493, -0.473, -32.853, 27.25, 0.12631, 0.18045, -0.23349, 0.94702,
 15:53:01.251,ed:35:33:d3:6c:f8, 2015-01-01 02:15:10.440, 0.398, -0.401, 0.819, 0.549, 0, 0.305, -25.681, -23.659, 170.464, -10.493, -0.473, -32.853, 27.25, 0.12631, 0.18045, -0.23349, 0.94702,
 15:53:01.251,ed:35:33:d3:6c:f8, 2015-01-01 02:15:10.440, 0.393, -0.395, 0.82, 0.732, 0.244, 0, -25.67, -23.654, 170.475, -10.493, -0.473, -32.853, 27.25, 0.12631, 0.18045, -0.23349, 0.94702,
 15:53:01.251,ed:35:33:d3:6c:f8, 2015-01-01 02:15:10.440, 0.398, -0.401, 0.819, 0.549, 0, 0.305, -25.681, -23.659, 170.464, -10.493, -0.473, -32.853, 27.25, 0.12631, 0.18045, -0.23349, 0.94702,
 15:53:01.255,f6:90:cc:01:6d:25, 2015-01-01 02:15:09.170, 0.93, -0.303, 0.142, -0.488, -0.061, 0, -64.94, -70.225, -112.879, -29.900, -3.973, -3.373, 29.84, 0.12466, -0.64691, 0.09692, -0.74597,
 15:53:01.255,f6:90:cc:01:6d:25, 2015-01-01 02:15:09.170, 0.932, -0.306, 0.143, -0.549, -0.366, 0, -64.962, -70.225, -112.874, -29.900, -3.973, -3.373, 29.84, 0.12466, -0.64691, 0.09692, -0.74597,
 15:53:01.255,f6:90:cc:01:6d:25, 2015-01-01 02:15:09.170, 0.93, -0.308, 0.142, -0.427, -0.183, 0, -64.984, -70.225, -112.863, -29.900, -3.973, -3.373, 29.84, 0.12466, -0.64691, 0.09692, -0.74597,
 15:53:01.255,f6:90:cc:01:6d:25, 2015-01-01 02:15:09.170, 0.932, -0.306, 0.143, -0.549, -0.366, 0, -64.962, -70.225, -112.874, -29.900, -3.973, -3.373, 29.84, 0.12466, -0.64691, 0.09692, -0.74597,
 15:53:01.276,ed:40:fe:65:30:6c, 2015-01-01 02:15:22.440, 0.602, -0.361, 0.717, 0.488, -0.061, 0.183, -26.988, -36.974, -101.706, -20.133, -0.727, -5.920, 24.7, -0.52493, 0.37894, 0.02286, 0.76172,
 15:53:01.276,ed:40:fe:65:30:6c, 2015-01-01 02:15:22.440, 0.602, -0.368, 0.718, 0.366, -0.061, 0.122, -26.982, -36.969, -101.717, -20.133, -0.727, -5.920, 24.7, -0.52493, 0.37894, 0.02286, 0.76172,
 15:53:01.276,ed:40:fe:65:30:6c, 2015-01-01 02:15:22.440, 0.602, -0.367, 0.718, 0.427, -0.061, -0.061, -26.971, -36.969, -101.722, -20.133, -0.727, -5.920, 24.7, -0.52493, 0.37894, 0.02286, 0.76172,
 15:53:01.276,ed:40:fe:65:30:6c, 2015-01-01 02:15:22.440, 0.602, -0.368, 0.718, 0.366, -0.061, 0.122, -26.982, -36.969, -101.717, -20.133, -0.727, -5.920, 24.7, -0.52493, 0.37894, 0.02286, 0.76172,
 15:53:01.276,ed:40:fe:65:30:6c, 2015-01-01 02:15:22.440, 0.607, -0.367, 0.718, 0.427, -0.061, -0.061, -26.971, -36.969, -101.722, -20.133, -0.727, -5.920, 24.7, -0.52493, 0.37894, 0.02286, 0.76172,
 15:53:01.276,ed:40:fe:65:30:6c, 2015-01-01 02:15:22.440, 0.607, -0.367, 0.715, 0.671, 0, -0.122, -26.96, -36.969, -101.733, -20.133, -0.727, -5.920, 24.7, -0.52493, 0.37894, 0.02286, 0.76172,
 15:53:01.276,ed:40:fe:65:30:6c, 2015-01-01 02:15:22.440, 0.607, -0.364, 0.712, 0.366, 0.183, 0.122, -26.955, -36.969, -101.739, -20.133, -0.727, -5.920, 24.7, -0.52493, 0.37894, 0.02286, 0.76172,
 15:53:01.276,ed:40:fe:65:30:6c, 2015-01-01 02:15:22.440, 0.607, -0.367, 0.715, 0.671, 0, -0.122, -26.96, -36.969, -101.733, -20.133, -0.727, -5.920, 24.7, -0.52493, 0.37894, 0.02286, 0.76172,
 15:53:01.279,e3:ca:2d:fd:e0:8c, 2015-01-01 02:15:11.660, 0.975, -0.309, 0.07, -0.61, 0.183, -0.122, -77.228, -72.043, -130.704, -26.633, -3.760, -8.380, 26.92, -0.06961, -0.62851, 0.26678, -0.72723,
 15:53:01.279,e3:ca:2d:fd:e0:8c, 2015-01-01 02:15:11.660, 0.969, -0.31, 0.071, -0.488, 0.305, -0.122, -77.223, -72.048, -130.721, -26.633, -3.760, -8.380, 26.92, -0.06961, -0.62851, 0.26678, -0.72723,
 15:53:01.279,e3:ca:2d:fd:e0:8c, 2015-01-01 02:15:11.660, 0.975, -0.307, 0.072, -0.305, 0.305, 0, -77.212, -72.048, -130.743, -26.633, -3.760, -8.380, 26.92, -0.06961, -0.62851, 0.26678, -0.72723,
 15:53:01.279,e3:ca:2d:fd:e0:8c, 2015-01-01 02:15:11.660, 0.969, -0.31, 0.071, -0.488, 0.305, -0.122, -77.223, -72.048, -130.721, -26.633, -3.760, -8.380, 26.92, -0.06961, -0.62851, 0.26678, -0.72723,
 15:53:01.281,ed:35:33:d3:6c:f8, 2015-01-01 02:15:10.440, 0.404, -0.395, 0.82, 0.732, 0.244, 0, -25.67, -23.654, 170.475, -10.493, -0.473, -32.853, 27.25, 0.12631, 0.18045, -0.23349, 0.94702,
 15:53:01.281,ed:35:33:d3:6c:f8, 2015-01-01 02:15:10.440, 0.393, -0.394, 0.814, 0.244, 0.183, 0.549, -25.659, -23.643, 170.486, -10.493, -0.473, -32.853, 27.25, 0.12631, 0.18045, -0.23349, 0.94702,
 15:53:01.281,ed:35:33:d3:6c:f8, 2015-01-01 02:15:10.440, 0.404, -0.395, 0.823, -0.305, 0.122, 0.427, -25.664, -23.637, 170.502, -10.493, -0.473, -32.853, 27.25, 0.12631, 0.18045, -0.23349, 0.94702,
 15:53:01.281,ed:35:33:d3:6c:f8, 2015-01-01 02:15:10.440, 0.393, -0.394, 0.814, 0.244, 0.183, 0.549, -25.659, -23.643, 170.486, -10.493, -0.473, -32.853, 27.25, 0.12631, 0.18045, -0.23349, 0.94702,
 15:53:01.315,f6:90:cc:01:6d:25, 2015-01-01 02:15:09.170, 0.928, -0.308, 0.142, -0.427, -0.183, 0, -64.984, -70.225, -112.863, -29.900, -3.973, -3.373, 29.84, 0.12466, -0.64691, 0.09692, -0.74597,
 15:53:01.315,f6:90:cc:01:6d:25, 2015-01-01 02:15:09.170, 0.924, -0.305, 0.141, -0.183, 0, 0, -64.995, -70.225, -112.863, -29.900, -3.973, -3.373, 29.84, 0.12466, -0.64691, 0.09692, -0.74597,
 15:53:01.315,f6:90:cc:01:6d:25, 2015-01-01 02:15:09.170, 0.928, -0.306, 0.141, -0.427, 0.488, 0, -64.99, -70.219, -112.879, -29.900, -3.973, -3.373, 29.84, 0.12466, -0.64691, 0.09692, -0.74597,
 15:53:01.315,f6:90:cc:01:6d:25, 2015-01-01 02:15:09.170, 0.924, -0.305, 0.141, -0.183, 0, 0, -64.995, -70.225, -112.863, -29.900, -3.973, -3.373, 29.84, 0.12466, -0.64691, 0.09692, -0.74597,
 15:53:01.335,ed:40:fe:65:30:6c, 2015-01-01 02:15:22.440, 0.6, -0.364, 0.712, 0.366, 0.183, 0.122, -26.955, -36.969, -101.739, -20.133, -0.727, -5.920, 24.7, -0.52493, 0.37894, 0.02286, 0.76172,
 15:53:01.335,ed:40:fe:65:30:6c, 2015-01-01 02:15:22.440, 0.599, -0.363, 0.718, 0.122, 0.244, 0.122, -26.949, -36.964, -101.75, -20.133, -0.727, -5.920, 24.7, -0.52493, 0.37894, 0.02286, 0.76172,
 15:53:01.335,ed:40:fe:65:30:6c, 2015-01-01 02:15:22.440, 0.6, -0.364, 0.722, 0.244, 0, 0, -26.944, -36.958, -101.761, -20.133, -0.727, -5.920, 24.7, -0.52493, 0.37894, 0.02286, 0.76172,
 15:53:01.335,ed:40:fe:65:30:6c, 2015-01-01 02:15:22.440, 0.599, -0.363, 0.718, 0.122, 0.244, 0.122, -26.949, -36.964, -101.75, -20.133, -0.727, -5.920, 24.7, -0.52493, 0.37894, 0.02286, 0.76172,
 15:53:01.339,e3:ca:2d:fd:e0:8c, 2015-01-01 02:15:11.660, 0.971, -0.307, 0.072, -0.305, 0.305, 0, -77.212, -72.048, -130.743, -26.633, -3.760, -8.380, 26.92, -0.06961, -0.62851, 0.26678, -0.72723,
 15:53:01.339,e3:ca:2d:fd:e0:8c, 2015-01-01 02:15:11.660, 0.978, -0.309, 0.071, -0.61, 0.305, 0, -77.201, -72.043, -130.754, -26.633, -3.760, -8.380, 26.92, -0.06961, -0.62851, 0.26678, -0.72723,
 15:53:01.339,e3:ca:2d:fd:e0:8c, 2015-01-01 02:15:11.660, 0.971, -0.308, 0.071, -0.488, 0.366, 0, -77.19, -72.043, -130.765, -26.633, -3.760, -8.380, 26.92, -0.06961, -0.62851, 0.26678, -0.72723,
 15:53:01.339,e3:ca:2d:fd:e0:8c, 2015-01-01 02:15:11.660, 0.978, -0.309, 0.071, -0.61, 0.305, 0, -77.201, -72.043, -130.754, -26.633, -3.760, -8.380, 26.92, -0.06961, -0.62851, 0.26678, -0.72723,
 15:53:01.341,ed:35:33:d3:6c:f8, 2015-01-01 02:15:10.440, 0.388, -0.395, 0.823, -0.305, 0.122, 0.427, -25.664, -23.637, 170.502, -10.493, -0.473, -32.853, 27.25, 0.12631, 0.18045, -0.23349, 0.94702,
 15:53:01.341,ed:35:33:d3:6c:f8, 2015-01-01 02:15:10.440, 0.397, -0.397, 0.825, 0.549, 0, 0.366, -25.67, -23.632, 170.524, -10.493, -0.473, -32.853, 27.25, 0.12631, 0.18045, -0.23349, 0.94702,
 15:53:01.341,ed:35:33:d3:6c:f8, 2015-01-01 02:15:10.440, 0.388, -0.394, 0.826, 1.038, 0.061, 0, -25.659, -23.626, 170.541, -10.493, -0.473, -32.853, 27.25, 0.12631, 0.18045, -0.23349, 0.94702,
 15:53:01.341,ed:35:33:d3:6c:f8, 2015-01-01 02:15:10.440, 0.397, -0.397, 0.825, 0.549, 0, 0.366, -25.67, -23.632, 170.524, -10.493, -0.473, -32.853, 27.25, 0.12631, 0.18045, -0.23349, 0.94702,
 15:53:01.345,f6:90:cc:01:6d:25, 2015-01-01 02:15:09.170, 0.929, -0.306, 0.141, -0.427, 0.488, 0, -64.99, -70.219, -112.879, -29.900, -3.973, -3.373, 29.84, 0.12466, -0.64691, 0.09692, -0.74597,
 15:53:01.345,f6:90:cc:01:6d:25, 2015-01-01 02:15:09.170, 0.934, -0.303, 0.143, -0.793, 0.061, 0, -64.995, -70.219, -112.874, -29.900, -3.973, -3.373, 29.84, 0.12466, -0.64691, 0.09692, -0.74597,
 15:53:01.345,f6:90:cc:01:6d:25, 2015-01-01 02:15:09.170, 0.929, -0.305, 0.143, -0.61, -0.122, 0, -65.012, -70.219, -112.874, -29.900, -3.973, -3.373, 29.84, 0.12466, -0.64691, 0.09692, -0.74597,
 15:53:01.345,f6:90:cc:01:6d:25, 2015-01-01 02:15:09.170, 0.934, -0.303, 0.143, -0.793, 0.061, 0, -64.995, -70.219, -112.874, -29.900, -3.973, -3.373, 29.84, 0.12466, -0.64691, 0.09692, -0.74597,
 15:53:01.366,ed:40:fe:65:30:6c, 2015-01-01 02:15:22.440, 0.606, -0.364, 0.722, 0.244, 0, 0, -26.944, -36.958, -101.761, -20.133, -0.727, -5.920, 24.7, -0.52493, 0.37894, 0.02286, 0.76172,
 15:53:01.366,ed:40:fe:65:30:6c, 2015-01-01 02:15:22.440, 0.608, -0.365, 0.722, 0.671, -0.061, 0, -26.933, -36.958, -101.772, -20.133, -0.727, -5.920, 24.7, -0.52493, 0.37894, 0.02286, 0.76172,
 15:53:01.366,ed:40:fe:65:30:6c, 2015-01-01 02:15:22.440, 0.606, -0.362, 0.721, 0.549, 0, 0.061, -26.922, -36.958, -101.777, -20.133, -0.727, -5.920, 24.7, -0.52493, 0.37894, 0.02286, 0.76172,
 15:53:01.366,ed:40:fe:65:30:6c, 2015-01-01 02:15:22.440, 0.608, -0.365, 0.722, 0.671, -0.061, 0, -26.933, -36.958, -101.772, -20.133, -0.727, -5.920, 24.7, -0.52493, 0.37894, 0.02286, 0.76172,
 15:53:01.372,ed:35:33:d3:6c:f8, 2015-01-01 02:15:10.440, 0.401, -0.394, 0.826, 1.038, 0.061, 0, -25.659, -23.626, 170.541, -10.307, -0.367, -32.313, 27.25, 0.12631, 0.18045, -0.23349, 0.94702,
 15:53:01.372,ed:35:33:d3:6c:f8, 2015-01-01 02:15:10.440, 0.397, -0.394, 0.826, 0.183, 0.061, 0.122, -25.642, -23.621, 170.546, -10.307, -0.367, -32.313, 27.25, 0.12631, 0.18045, -0.23349, 0.94702,
 15:53:01.372,ed:35:33:d3:6c:f8, 2015-01-01 02:15:10.440, 0.401, -0.394, 0.824, -0.122, 0, 0.183, -25.642, -23.621, 170.546, -10.307, -0.367, -32.313, 27.25, 0.12631, 0.18045, -0.23349, 0.94702,
 15:53:01.372,ed:35:33:d3:6c:f8, 2015-01-01 02:15:10.440, 0.397, -0.394, 0.826, 0.183, 0.061, 0.122, -25.642, -23.621, 170.546, -10.307, -0.367, -32.313, 27.25, 0.12631, 0.18045, -0.23349, 0.94702,
 15:53:01.378,f6:90:cc:01:6d:25, 2015-01-01 02:15:09.170, 0.932, -0.305, 0.143, -0.61, -0.122, 0, -65.012, -70.219, -112.874, -29.900, -3.973, -3.373, 29.84, 0.12466, -0.64691, 0.09692, -0.74597,
 15:53:01.378,f6:90:cc:01:6d:25, 2015-01-01 02:15:09.170, 0.929, -0.305, 0.14, -0.549, -0.183, 0, -65.034, -70.219, -112.879, -29.900, -3.973, -3.373, 29.84, 0.12466, -0.64691, 0.09692, -0.74597,
 15:53:01.378,f6:90:cc:01:6d:25, 2015-01-01 02:15:09.170, 0.932, -0.305, 0.139, -0.549, -0.183, 0, -65.05, -70.219, -112.874, -29.900, -3.973, -3.373, 29.84, 0.12466, -0.64691, 0.09692, -0.74597,
 15:53:01.378,f6:90:cc:01:6d:25, 2015-01-01 02:15:09.170, 0.929, -0.305, 0.14, -0.549, -0.183, 0, -65.034, -70.219, -112.879, -29.900, -3.973, -3.373, 29.84, 0.12466, -0.64691, 0.09692, -0.74597,
 15:53:01.396,ed:40:fe:65:30:6c, 2015-01-01 02:15:22.440, 0.604, -0.362, 0.721, 0.549, 0, 0.061, -26.922, -36.958, -101.777, -20.133, -0.727, -5.920, 24.7, -0.52493, 0.37894, 0.02286, 0.76172,
 15:53:01.396,ed:40:fe:65:30:6c, 2015-01-01 02:15:22.440, 0.602, -0.364, 0.718, 0.244, 0, 0.061, -26.917, -36.958, -101.788, -20.133, -0.727, -5.920, 24.7, -0.52493, 0.37894, 0.02286, 0.76172,
 15:53:01.396,ed:40:fe:65:30:6c, 2015-01-01 02:15:22.440, 0.604, -0.367, 0.718, 0.183, -0.244, 0.061, -26.917, -36.958, -101.794, -20.133, -0.727, -5.920, 24.7, -0.52493, 0.37894, 0.02286, 0.76172,
 15:53:01.396,ed:40:fe:65:30:6c, 2015-01-01 02:15:22.440, 0.602, -0.364, 0.718, 0.244, 0, 0.061, -26.917, -36.958, -101.788, -20.133, -0.727, -5.920, 24.7, -0.52493, 0.37894, 0.02286, 0.76172,
 15:53:01.399,e3:ca:2d:fd:e0:8c, 2015-01-01 02:15:11.660, 0.978, -0.308, 0.071, -0.488, 0.366, 0, -77.19, -72.043, -130.765, -26.633, -3.760, -8.380, 26.92, -0.06961, -0.62851, 0.26678, -0.72723,
 15:53:01.399,e3:ca:2d:fd:e0:8c, 2015-01-01 02:15:11.660, 0.975, -0.308, 0.068, -0.244, 0.244, 0, -77.179, -72.043, -130.77, -26.633, -3.760, -8.380, 26.92, -0.06961, -0.62851, 0.26678, -0.72723,
 15:53:01.399,e3:ca:2d:fd:e0:8c, 2015-01-01 02:15:11.660, 0.978, -0.309, 0.068, -0.549, 0.305, 0, -77.168, -72.037, -130.776, -26.633, -3.760, -8.380, 26.92, -0.06961, -0.62851, 0.26678, -0.72723,
 15:53:01.399,e3:ca:2d:fd:e0:8c, 2015-01-01 02:15:11.660, 0.975, -0.308, 0.068, -0.244, 0.244, 0, -77.179, -72.043, -130.77, -26.633, -3.760, -8.380, 26.92, -0.06961, -0.62851, 0.26678, -0.72723,
 15:53:01.402,ed:35:33:d3:6c:f8, 2015-01-01 02:15:10.440, 0.393, -0.394, 0.824, -0.122, 0, 0.183, -25.642, -23.621, 170.546, -10.307, -0.367, -32.313, 27.25, 0.12631, 0.18045, -0.23349, 0.94702,
 15:53:01.402,ed:35:33:d3:6c:f8, 2015-01-01 02:15:10.440, 0.395, -0.398, 0.824, 0, -0.366, 0.061, -25.642, -23.621, 170.546, -10.307, -0.367, -32.313, 27.25, 0.12631, 0.18045, -0.23349, 0.94702,
 15:53:01.402,ed:35:33:d3:6c:f8, 2015-01-01 02:15:10.440, 0.393, -0.397, 0.819, 0, -0.671, -0.244, -25.648, -23.626, 170.546, -10.307, -0.367, -32.313, 27.25, 0.12631, 0.18045, -0.23349, 0.94702,
 15:53:01.402,ed:35:33:d3:6c:f8, 2015-01-01 02:15:10.440, 0.395, -0.398, 0.824, 0, -0.366, 0.061, -25.642, -23.621, 170.546, -10.307, -0.367, -32.313, 27.25, 0.12631, 0.18045, -0.23349, 0.94702,
 15:53:01.429,e3:ca:2d:fd:e0:8c, 2015-01-01 02:15:11.660, 0.973, -0.309, 0.068, -0.549, 0.305, 0, -77.168, -72.037, -130.776, -26.940, -3.753, -7.760, 26.92, -0.06961, -0.62851, 0.26678, -0.72723,
 15:53:01.429,e3:ca:2d:fd:e0:8c, 2015-01-01 02:15:11.660, 0.973, -0.307, 0.068, -0.732, 0.122, 0, -77.168, -72.037, -130.754, -26.940, -3.753, -7.760, 26.92, -0.06961, -0.62851, 0.26678, -0.72723,
 15:53:01.429,e3:ca:2d:fd:e0:8c, 2015-01-01 02:15:11.660, 0.973, -0.308, 0.068, -0.671, 0.122, 0, -77.173, -72.037, -130.732, -26.940, -3.753, -7.760, 26.92, -0.06961, -0.62851, 0.26678, -0.72723,
 15:53:01.429,e3:ca:2d:fd:e0:8c, 2015-01-01 02:15:11.660, 0.973, -0.307, 0.068, -0.732, 0.122, 0, -77.168, -72.037, -130.754, -26.940, -3.753, -7.760, 26.92, -0.06961, -0.62851, 0.26678, -0.72723,
 15:53:01.437,f6:90:cc:01:6d:25, 2015-01-01 02:15:09.170, 0.928, -0.305, 0.139, -0.549, -0.183, 0, -65.05, -70.219, -112.874, -29.900, -3.973, -3.373, 29.84, 0.12466, -0.64691, 0.09692, -0.74597,
 15:53:01.437,f6:90:cc:01:6d:25, 2015-01-01 02:15:09.170, 0.929, -0.307, 0.138, -0.549, 0, 0, -65.067, -70.214, -112.868, -29.900, -3.973, -3.373, 29.84, 0.12466, -0.64691, 0.09692, -0.74597,
 15:53:01.437,f6:90:cc:01:6d:25, 2015-01-01 02:15:09.170, 0.928, -0.305, 0.139, -0.366, -0.122, 0, -65.083, -70.214, -112.846, -29.900, -3.973, -3.373, 29.84, 0.12466, -0.64691, 0.09692, -0.74597,
 15:53:01.437,f6:90:cc:01:6d:25, 2015-01-01 02:15:09.170, 0.929, -0.307, 0.138, -0.549, 0, 0, -65.067, -70.214, -112.868, -29.900, -3.973, -3.373, 29.84, 0.12466, -0.64691, 0.09692, -0.74597,
 15:53:01.456,ed:40:fe:65:30:6c, 2015-01-01 02:15:22.440, 0.604, -0.367, 0.718, 0.183, -0.244, 0.061, -26.917, -36.958, -101.794, -20.133, -0.727, -5.920, 24.7, -0.52493, 0.37894, 0.02286, 0.76172,
 15:53:01.456,ed:40:fe:65:30:6c, 2015-01-01 02:15:22.440, 0.606, -0.366, 0.715, 0.244, -0.305, 0, -26.917, -36.958, -101.799, -20.133, -0.727, -5.920, 24.7, -0.52493, 0.37894, 0.02286, 0.76172,
 15:53:01.456,ed:40:fe:65:30:6c, 2015-01-01 02:15:22.440, 0.604, -0.364, 0.714, 0.244, -0.061, 0, -26.911, -36.964, -101.805, -20.133, -0.727, -5.920, 24.7, -0.52493, 0.37894, 0.02286, 0.76172,
 15:53:01.456,ed:40:fe:65:30:6c, 2015-01-01 02:15:22.440, 0.606, -0.366, 0.715, 0.244, -0.305, 0, -26.917, -36.958, -101.799, -20.133, -0.727, -5.920, 24.7, -0.52493, 0.37894, 0.02286, 0.76172,
 15:53:01.460,e3:ca:2d:fd:e0:8c, 2015-01-01 02:15:11.660, 0.975, -0.308, 0.068, -0.671, 0.122, 0, -77.173, -72.037, -130.732, -26.940, -3.753, -7.760, 26.92, -0.06961, -0.62851, 0.26678, -0.72723,
 15:53:01.460,e3:ca:2d:fd:e0:8c, 2015-01-01 02:15:11.660, 0.973, -0.309, 0.069, -0.549, 0.305, 0, -77.179, -72.037, -130.71, -26.940, -3.753, -7.760, 26.92, -0.06961, -0.62851, 0.26678, -0.72723,
 15:53:01.460,e3:ca:2d:fd:e0:8c, 2015-01-01 02:15:11.660, 0.975, -0.309, 0.071, -0.488, 0.244, 0, -77.173, -72.037, -130.71, -26.940, -3.753, -7.760, 26.92, -0.06961, -0.62851, 0.26678, -0.72723,
 15:53:01.460,e3:ca:2d:fd:e0:8c, 2015-01-01 02:15:11.660, 0.973, -0.309, 0.069, -0.549, 0.305, 0, -77.179, -72.037, -130.71, -26.940, -3.753, -7.760, 26.92, -0.06961, -0.62851, 0.26678, -0.72723,
 15:53:01.462,ed:35:33:d3:6c:f8, 2015-01-01 02:15:10.440, 0.401, -0.397, 0.819, 0, -0.671, -0.244, -25.648, -23.626, 170.546, -10.307, -0.367, -32.313, 27.25, 0.12387, 0.18097, -0.23294, 0.94739,
 15:53:01.462,ed:35:33:d3:6c:f8, 2015-01-01 02:15:10.440, 0.399, -0.393, 0.817, -0.183, -0.549, -0.244, -25.648, -23.637, 170.563, -10.307, -0.367, -32.313, 27.25, 0.12387, 0.18097, -0.23294, 0.94739,
 15:53:01.462,ed:35:33:d3:6c:f8, 2015-01-01 02:15:10.440, 0.401, -0.395, 0.815, -0.183, -0.122, -0.061, -25.653, -23.643, 170.579, -10.307, -0.367, -32.313, 27.25, 0.12387, 0.18097, -0.23294, 0.94739,
 15:53:01.462,ed:35:33:d3:6c:f8, 2015-01-01 02:15:10.440, 0.399, -0.393, 0.817, -0.183, -0.549, -0.244, -25.648, -23.637, 170.563, -10.307, -0.367, -32.313, 27.25, 0.12387, 0.18097, -0.23294, 0.94739,
 15:53:01.466,f6:90:cc:01:6d:25, 2015-01-01 02:15:09.170, 0.93, -0.305, 0.139, -0.366, -0.122, 0, -65.083, -70.214, -112.846, -29.793, -3.507, -3.827, 29.84, 0.12466, -0.64691, 0.09692, -0.74597,
 15:53:01.466,f6:90:cc:01:6d:25, 2015-01-01 02:15:09.170, 0.928, -0.306, 0.142, -0.366, -0.122, 0, -65.094, -70.214, -112.819, -29.793, -3.507, -3.827, 29.84, 0.12466, -0.64691, 0.09692, -0.74597,
 15:53:01.466,f6:90:cc:01:6d:25, 2015-01-01 02:15:09.170, 0.93, -0.307, 0.14, -0.183, -0.061, 0, -65.105, -70.214, -112.797, -29.793, -3.507, -3.827, 29.84, 0.12466, -0.64691, 0.09692, -0.74597,
 15:53:01.466,f6:90:cc:01:6d:25, 2015-01-01 02:15:09.170, 0.928, -0.306, 0.142, -0.366, -0.122, 0, -65.094, -70.214, -112.819, -29.793, -3.507, -3.827, 29.84, 0.12466, -0.64691, 0.09692, -0.74597,
 15:53:01.485,ed:40:fe:65:30:6c, 2015-01-01 02:15:22.440, 0.605, -0.364, 0.714, 0.244, -0.061, 0, -26.911, -36.964, -101.805, -20.627, -0.253, -6.220, 24.7, -0.52493, 0.37894, 0.02286, 0.76172,
 15:53:01.485,ed:40:fe:65:30:6c, 2015-01-01 02:15:22.440, 0.602, -0.364, 0.713, 0.244, 0.183, 0.122, -26.906, -36.958, -101.816, -20.627, -0.253, -6.220, 24.7, -0.52493, 0.37894, 0.02286, 0.76172,
 15:53:01.485,ed:40:fe:65:30:6c, 2015-01-01 02:15:22.440, 0.605, -0.362, 0.714, 0.122, 0.305, 0.366, -26.906, -36.953, -101.821, -20.627, -0.253, -6.220, 24.7, -0.52493, 0.37894, 0.02286, 0.76172,
 15:53:01.485,ed:40:fe:65:30:6c, 2015-01-01 02:15:22.440, 0.602, -0.364, 0.713, 0.244, 0.183, 0.122, -26.906, -36.958, -101.816, -20.627, -0.253, -6.220, 24.7, -0.52493, 0.37894, 0.02286, 0.76172,
 15:53:01.489,e3:ca:2d:fd:e0:8c, 2015-01-01 02:15:11.660, 0.971, -0.309, 0.071, -0.488, 0.244, 0, -77.173, -72.037, -130.71, -26.940, -3.753, -7.760, 26.92, -0.0697, -0.62811, 0.26682, -0.72754,
 15:53:01.489,e3:ca:2d:fd:e0:8c, 2015-01-01 02:15:11.660, 0.972, -0.31, 0.072, -0.366, 0.061, 0, -77.168, -72.032, -130.71, -26.940, -3.753, -7.760, 26.92, -0.0697, -0.62811, 0.26682, -0.72754,
 15:53:01.489,e3:ca:2d:fd:e0:8c, 2015-01-01 02:15:11.660, 0.971, -0.311, 0.073, -0.244, 0.122, 0, -77.173, -72.032, -130.699, -26.940, -3.753, -7.760, 26.92, -0.0697, -0.62811, 0.26682, -0.72754,
 15:53:01.489,e3:ca:2d:fd:e0:8c, 2015-01-01 02:15:11.660, 0.972, -0.31, 0.072, -0.366, 0.061, 0, -77.168, -72.032, -130.71, -26.940, -3.753, -7.760, 26.92, -0.0697, -0.62811, 0.26682, -0.72754,
 15:53:01.491,ed:35:33:d3:6c:f8, 2015-01-01 02:15:10.800, 0.396, -0.395, 0.815, -0.183, -0.122, -0.061, -25.653, -23.643, 170.579, -10.307, -0.367, -32.313, 27.25, 0.12387, 0.18097, -0.23294, 0.94739,
 15:53:01.491,ed:35:33:d3:6c:f8, 2015-01-01 02:15:10.800, 0.397, -0.391, 0.816, -0.488, 0.061, -0.061, -25.659, -23.648, 170.59, -10.307, -0.367, -32.313, 27.25, 0.12387, 0.18097, -0.23294, 0.94739,
 15:53:01.491,ed:35:33:d3:6c:f8, 2015-01-01 02:15:10.800, 0.396, -0.394, 0.82, 0, 0.122, 0.488, -25.664, -23.643, 170.601, -10.307, -0.367, -32.313, 27.25, 0.12387, 0.18097, -0.23294, 0.94739,
 15:53:01.491,ed:35:33:d3:6c:f8, 2015-01-01 02:15:10.800, 0.397, -0.391, 0.816, -0.488, 0.061, -0.061, -25.659, -23.648, 170.59, -10.307, -0.367, -32.313, 27.25, 0.12387, 0.18097, -0.23294, 0.94739,
 15:53:01.516,ed:40:fe:65:30:6c, 2015-01-01 02:15:22.440, 0.603, -0.362, 0.714, 0.122, 0.305, 0.366, -26.906, -36.953, -101.821, -20.627, -0.253, -6.220, 24.7, -0.52493, 0.37894, 0.02286, 0.76172,
 15:53:01.516,ed:40:fe:65:30:6c, 2015-01-01 02:15:22.440, 0.603, -0.365, 0.717, 0.244, 0.305, 0.61, -26.911, -36.942, -101.821, -20.627, -0.253, -6.220, 24.7, -0.52493, 0.37894, 0.02286, 0.76172,
 15:53:01.516,ed:40:fe:65:30:6c, 2015-01-01 02:15:22.440, 0.603, -0.37, 0.72, 0.366, 0.305, 0.549, -26.906, -36.931, -101.821, -20.627, -0.253, -6.220, 24.7, -0.52493, 0.37894, 0.02286, 0.76172,
 15:53:01.516,ed:40:fe:65:30:6c, 2015-01-01 02:15:22.440, 0.603, -0.365, 0.717, 0.244, 0.305, 0.61, -26.911, -36.942, -101.821, -20.627, -0.253, -6.220, 24.7, -0.52493, 0.37894, 0.02286, 0.76172,
 15:53:01.525,f6:90:cc:01:6d:25, 2015-01-01 02:15:09.170, 0.926, -0.307, 0.14, -0.183, -0.061, 0, -65.105, -70.214, -112.797, -29.793, -3.507, -3.827, 29.84, 0.12466, -0.64691, 0.09692, -0.74597,
 15:53:01.525,f6:90:cc:01:6d:25, 2015-01-01 02:15:09.170, 0.928, -0.309, 0.141, -0.061, 0.122, 0, -65.105, -70.214, -112.786, -29.793, -3.507, -3.827, 29.84, 0.12466, -0.64691, 0.09692, -0.74597,
 15:53:01.525,f6:90:cc:01:6d:25, 2015-01-01 02:15:09.170, 0.926, -0.308, 0.142, -0.122, 0.122, 0, -65.105, -70.208, -112.775, -29.793, -3.507, -3.827, 29.84, 0.12466, -0.64691, 0.09692, -0.74597,
 15:53:01.525,f6:90:cc:01:6d:25, 2015-01-01 02:15:09.170, 0.928, -0.309, 0.141, -0.061, 0.122, 0, -65.105, -70.214, -112.786, -29.793, -3.507, -3.827, 29.84, 0.12466, -0.64691, 0.09692, -0.74597,
 15:53:01.549,e3:ca:2d:fd:e0:8c, 2015-01-01 02:15:11.660, 0.974, -0.311, 0.073, -0.244, 0.122, 0, -77.173, -72.032, -130.699, -26.940, -3.753, -7.760, 26.92, -0.0697, -0.62811, 0.26682, -0.72754,
 15:53:01.549,e3:ca:2d:fd:e0:8c, 2015-01-01 02:15:11.660, 0.976, -0.31, 0.072, -0.305, 0.122, 0, -77.168, -72.032, -130.704, -26.940, -3.753, -7.760, 26.92, -0.0697, -0.62811, 0.26682, -0.72754,
 15:53:01.549,e3:ca:2d:fd:e0:8c, 2015-01-01 02:15:11.660, 0.974, -0.308, 0.071, -0.427, 0.183, 0, -77.168, -72.032, -130.715, -26.940, -3.753, -7.760, 26.92, -0.0697, -0.62811, 0.26682, -0.72754,
 15:53:01.549,e3:ca:2d:fd:e0:8c, 2015-01-01 02:15:11.660, 0.976, -0.31, 0.072, -0.305, 0.122, 0, -77.168, -72.032, -130.704, -26.940, -3.753, -7.760, 26.92, -0.0697, -0.62811, 0.26682, -0.72754,
 15:53:01.551,ed:35:33:d3:6c:f8, 2015-01-01 02:15:10.800, 0.395, -0.394, 0.82, 0, 0.122, 0.488, -25.664, -23.643, 170.601, -10.307, -0.367, -32.313, 27.25, 0.12387, 0.18097, -0.23294, 0.94739,
 15:53:01.551,ed:35:33:d3:6c:f8, 2015-01-01 02:15:10.800, 0.398, -0.402, 0.824, 0, 0.183, 0.305, -25.67, -23.637, 170.623, -10.307, -0.367, -32.313, 27.25, 0.12387, 0.18097, -0.23294, 0.94739,
 15:53:01.551,ed:35:33:d3:6c:f8, 2015-01-01 02:15:10.800, 0.395, -0.404, 0.819, 0.122, 0, 0.061, -25.67, -23.632, 170.64, -10.307, -0.367, -32.313, 27.25, 0.12387, 0.18097, -0.23294, 0.94739,
 15:53:01.551,ed:35:33:d3:6c:f8, 2015-01-01 02:15:10.800, 0.398, -0.402, 0.824, 0, 0.183, 0.305, -25.67, -23.637, 170.623, -10.307, -0.367, -32.313, 27.25, 0.12387, 0.18097, -0.23294, 0.94739,
 15:53:01.556,f6:90:cc:01:6d:25, 2015-01-01 02:15:09.170, 0.93, -0.308, 0.142, -0.122, 0.122, 0, -65.105, -70.208, -112.775, -29.793, -3.507, -3.827, 29.84, 0.12384, -0.64734, 0.09833, -0.74554,
 15:53:01.556,f6:90:cc:01:6d:25, 2015-01-01 02:15:09.170, 0.931, -0.308, 0.142, -0.366, 0.122, 0, -65.11, -70.208, -112.764, -29.793, -3.507, -3.827, 29.84, 0.12384, -0.64734, 0.09833, -0.74554,
 15:53:01.556,f6:90:cc:01:6d:25, 2015-01-01 02:15:09.170, 0.93, -0.306, 0.143, -0.305, 0.061, 0, -65.11, -70.203, -112.747, -29.793, -3.507, -3.827, 29.84, 0.12384, -0.64734, 0.09833, -0.74554,
 15:53:01.556,f6:90:cc:01:6d:25, 2015-01-01 02:15:09.170, 0.931, -0.308, 0.142, -0.366, 0.122, 0, -65.11, -70.208, -112.764, -29.793, -3.507, -3.827, 29.84, 0.12384, -0.64734, 0.09833, -0.74554,
 15:53:01.577,ed:40:fe:65:30:6c, 2015-01-01 02:15:22.440, 0.604, -0.37, 0.72, 0.366, 0.305, 0.549, -26.906, -36.931, -101.821, -20.627, -0.253, -6.220, 24.7, -0.52438, 0.3783, 0.02298, 0.76242,
 15:53:01.577,ed:40:fe:65:30:6c, 2015-01-01 02:15:22.440, 0.603, -0.371, 0.717, 0.427, 0.305, 0.305, -26.906, -36.92, -101.821, -20.627, -0.253, -6.220, 24.7, -0.52438, 0.3783, 0.02298, 0.76242,
 15:53:01.577,ed:40:fe:65:30:6c, 2015-01-01 02:15:22.440, 0.604, -0.367, 0.715, 0.549, 0.488, 0.061, -26.895, -36.909, -101.832, -20.627, -0.253, -6.220, 24.7, -0.52438, 0.3783, 0.02298, 0.76242,
 15:53:01.577,ed:40:fe:65:30:6c, 2015-01-01 02:15:22.440, 0.603, -0.371, 0.717, 0.427, 0.305, 0.305, -26.906, -36.92, -101.821, -20.627, -0.253, -6.220, 24.7, -0.52438, 0.3783, 0.02298, 0.76242,
 15:53:01.579,e3:ca:2d:fd:e0:8c, 2015-01-01 02:15:12.015, 0.973, -0.308, 0.071, -0.427, 0.183, 0, -77.168, -72.032, -130.715, -26.940, -3.753, -7.760, 26.92, -0.0697, -0.62811, 0.26682, -0.72754,
 15:53:01.579,e3:ca:2d:fd:e0:8c, 2015-01-01 02:15:12.015, 0.972, -0.308, 0.071, -0.427, 0.122, 0, -77.162, -72.026, -130.726, -26.940, -3.753, -7.760, 26.92, -0.0697, -0.62811, 0.26682, -0.72754,
 15:53:01.579,e3:ca:2d:fd:e0:8c, 2015-01-01 02:15:12.015, 0.973, -0.307, 0.071, -0.366, 0, 0, -77.162, -72.026, -130.726, -26.940, -3.753, -7.760, 26.92, -0.0697, -0.62811, 0.26682, -0.72754,
 15:53:01.579,e3:ca:2d:fd:e0:8c, 2015-01-01 02:15:12.015, 0.972, -0.308, 0.071, -0.427, 0.122, 0, -77.162, -72.026, -130.726, -26.940, -3.753, -7.760, 26.92, -0.0697, -0.62811, 0.26682, -0.72754,
 15:53:01.605,ed:40:fe:65:30:6c, 2015-01-01 02:15:22.800, 0.602, -0.367, 0.715, 0.549, 0.488, 0.061, -26.895, -36.909, -101.832, -20.627, -0.253, -6.220, 24.7, -0.52438, 0.3783, 0.02298, 0.76242,
 15:53:01.605,ed:40:fe:65:30:6c, 2015-01-01 02:15:22.800, 0.601, -0.365, 0.721, 0.427, 0.488, 0, -26.884, -36.898, -101.849, -20.627, -0.253, -6.220, 24.7, -0.52438, 0.3783, 0.02298, 0.76242,
 15:53:01.605,ed:40:fe:65:30:6c, 2015-01-01 02:15:22.800, 0.602, -0.362, 0.721, 0.427, 0.183, 0, -26.873, -36.892, -101.86, -20.627, -0.253, -6.220, 24.7, -0.52438, 0.3783, 0.02298, 0.76242,
 15:53:01.605,ed:40:fe:65:30:6c, 2015-01-01 02:15:22.800, 0.601, -0.365, 0.721, 0.427, 0.488, 0, -26.884, -36.898, -101.849, -20.627, -0.253, -6.220, 24.7, -0.52438, 0.3783, 0.02298, 0.76242,
 15:53:01.609,e3:ca:2d:fd:e0:8c, 2015-01-01 02:15:12.015, 0.973, -0.307, 0.071, -0.366, 0, 0, -77.162, -72.026, -130.726, -26.940, -3.753, -7.760, 26.92, -0.0697, -0.62811, 0.26682, -0.72754,
 15:53:01.609,e3:ca:2d:fd:e0:8c, 2015-01-01 02:15:12.015, 0.974, -0.307, 0.068, -0.183, 0, 0, -77.168, -72.026, -130.726, -26.940, -3.753, -7.760, 26.92, -0.0697, -0.62811, 0.26682, -0.72754,
 15:53:01.609,e3:ca:2d:fd:e0:8c, 2015-01-01 02:15:12.015, 0.973, -0.306, 0.069, -0.427, 0.305, 0, -77.168, -72.026, -130.721, -26.940, -3.753, -7.760, 26.92, -0.0697, -0.62811, 0.26682, -0.72754,
 15:53:01.609,e3:ca:2d:fd:e0:8c, 2015-01-01 02:15:12.015, 0.974, -0.307, 0.068, -0.183, 0, 0, -77.168, -72.026, -130.726, -26.940, -3.753, -7.760, 26.92, -0.0697, -0.62811, 0.26682, -0.72754,
 15:53:01.611,ed:35:33:d3:6c:f8, 2015-01-01 02:15:10.800, 0.396, -0.404, 0.819, 0.122, 0, 0.061, -25.67, -23.632, 170.64, -10.307, -0.367, -32.313, 27.25, 0.12387, 0.18097, -0.23294, 0.94739,
 15:53:01.611,ed:35:33:d3:6c:f8, 2015-01-01 02:15:10.800, 0.396, -0.4, 0.817, 0.244, 0.305, -0.305, -25.67, -23.626, 170.651, -10.307, -0.367, -32.313, 27.25, 0.12387, 0.18097, -0.23294, 0.94739,
 15:53:01.611,ed:35:33:d3:6c:f8, 2015-01-01 02:15:10.800, 0.396, -0.398, 0.824, 0.305, 0.427, -0.488, -25.664, -23.626, 170.651, -10.307, -0.367, -32.313, 27.25, 0.12387, 0.18097, -0.23294, 0.94739,
 15:53:01.611,ed:35:33:d3:6c:f8, 2015-01-01 02:15:10.800, 0.396, -0.4, 0.817, 0.244, 0.305, -0.305, -25.67, -23.626, 170.651, -10.307, -0.367, -32.313, 27.25, 0.12387, 0.18097, -0.23294, 0.94739,
 15:53:01.611,ed:35:33:d3:6c:f8, 2015-01-01 02:15:10.800, 0.395, -0.398, 0.824, 0.305, 0.427, -0.488, -25.664, -23.626, 170.651, -10.307, -0.367, -32.313, 27.25, 0.12387, 0.18097, -0.23294, 0.94739,
 15:53:01.611,ed:35:33:d3:6c:f8, 2015-01-01 02:15:10.800, 0.394, -0.393, 0.827, 0.427, 0.305, -0.427, -25.653, -23.621, 170.656, -10.307, -0.367, -32.313, 27.25, 0.12387, 0.18097, -0.23294, 0.94739,
 15:53:01.611,ed:35:33:d3:6c:f8, 2015-01-01 02:15:10.800, 0.395, -0.393, 0.826, -0.366, 0.061, -0.427, -25.648, -23.615, 170.651, -10.307, -0.367, -32.313, 27.25, 0.12387, 0.18097, -0.23294, 0.94739,
 15:53:01.611,ed:35:33:d3:6c:f8, 2015-01-01 02:15:10.800, 0.394, -0.393, 0.827, 0.427, 0.305, -0.427, -25.653, -23.621, 170.656, -10.307, -0.367, -32.313, 27.25, 0.12387, 0.18097, -0.23294, 0.94739,
 15:53:01.617,f6:90:cc:01:6d:25, 2015-01-01 02:15:09.170, 0.927, -0.306, 0.143, -0.305, 0.061, 0, -65.11, -70.203, -112.747, -29.793, -3.507, -3.827, 29.84, 0.12384, -0.64734, 0.09833, -0.74554,
 15:53:01.617,f6:90:cc:01:6d:25, 2015-01-01 02:15:09.170, 0.927, -0.307, 0.141, -0.122, 0.244, 0, -65.105, -70.197, -112.736, -29.793, -3.507, -3.827, 29.84, 0.12384, -0.64734, 0.09833, -0.74554,
 15:53:01.617,f6:90:cc:01:6d:25, 2015-01-01 02:15:09.170, 0.927, -0.307, 0.139, 0.061, 0.366, 0, -65.094, -70.192, -112.731, -29.793, -3.507, -3.827, 29.84, 0.12384, -0.64734, 0.09833, -0.74554,
 15:53:01.617,f6:90:cc:01:6d:25, 2015-01-01 02:15:09.170, 0.927, -0.307, 0.141, -0.122, 0.244, 0, -65.105, -70.197, -112.736, -29.793, -3.507, -3.827, 29.84, 0.12384, -0.64734, 0.09833, -0.74554,
 15:53:01.636,ed:40:fe:65:30:6c, 2015-01-01 02:15:22.800, 0.602, -0.362, 0.721, 0.427, 0.183, 0, -26.873, -36.892, -101.86, -20.627, -0.253, -6.220, 24.7, -0.52438, 0.3783, 0.02298, 0.76242,
 15:53:01.636,ed:40:fe:65:30:6c, 2015-01-01 02:15:22.800, 0.604, -0.363, 0.721, 0.305, 0.061, 0.061, -26.867, -36.892, -101.865, -20.627, -0.253, -6.220, 24.7, -0.52438, 0.3783, 0.02298, 0.76242,
 15:53:01.636,ed:40:fe:65:30:6c, 2015-01-01 02:15:22.800, 0.602, -0.364, 0.721, 0.183, 0.122, 0.061, -26.867, -36.887, -101.876, -20.627, -0.253, -6.220, 24.7, -0.52438, 0.3783, 0.02298, 0.76242,
 15:53:01.636,ed:40:fe:65:30:6c, 2015-01-01 02:15:22.800, 0.604, -0.363, 0.721, 0.305, 0.061, 0.061, -26.867, -36.892, -101.865, -20.627, -0.253, -6.220, 24.7, -0.52438, 0.3783, 0.02298, 0.76242,
 15:53:01.642,ed:35:33:d3:6c:f8, 2015-01-01 02:15:10.800, 0.399, -0.393, 0.826, -0.366, 0.061, -0.427, -25.648, -23.615, 170.651, -10.307, -0.367, -32.313, 27.25, 0.12387, 0.18097, -0.23294, 0.94739,
 15:53:01.642,ed:35:33:d3:6c:f8, 2015-01-01 02:15:10.800, 0.396, -0.395, 0.822, -0.305, 0.244, -0.244, -25.653, -23.615, 170.656, -10.307, -0.367, -32.313, 27.25, 0.12387, 0.18097, -0.23294, 0.94739,
 15:53:01.642,ed:35:33:d3:6c:f8, 2015-01-01 02:15:10.800, 0.399, -0.396, 0.822, -0.122, 0.183, 0.061, -25.653, -23.61, 170.667, -10.307, -0.367, -32.313, 27.25, 0.12387, 0.18097, -0.23294, 0.94739,
 15:53:01.642,ed:35:33:d3:6c:f8, 2015-01-01 02:15:10.800, 0.396, -0.395, 0.822, -0.305, 0.244, -0.244, -25.653, -23.615, 170.656, -10.307, -0.367, -32.313, 27.25, 0.12387, 0.18097, -0.23294, 0.94739,
 15:53:01.646,f6:90:cc:01:6d:25, 2015-01-01 02:15:09.170, 0.928, -0.307, 0.139, 0.061, 0.366, 0, -65.094, -70.192, -112.731, -29.793, -3.507, -3.827, 29.84, 0.12384, -0.64734, 0.09833, -0.74554,
 15:53:01.646,f6:90:cc:01:6d:25, 2015-01-01 02:15:09.170, 0.93, -0.305, 0.139, 0, 0.244, 0, -65.083, -70.192, -112.725, -29.793, -3.507, -3.827, 29.84, 0.12384, -0.64734, 0.09833, -0.74554,
 15:53:01.646,f6:90:cc:01:6d:25, 2015-01-01 02:15:09.170, 0.928, -0.305, 0.143, -0.427, 0, 0, -65.089, -70.186, -112.698, -29.793, -3.507, -3.827, 29.84, 0.12384, -0.64734, 0.09833, -0.74554,
 15:53:01.646,f6:90:cc:01:6d:25, 2015-01-01 02:15:09.170, 0.93, -0.305, 0.139, 0, 0.244, 0, -65.083, -70.192, -112.725, -29.793, -3.507, -3.827, 29.84, 0.12384, -0.64734, 0.09833, -0.74554,
 15:53:01.668,e3:ca:2d:fd:e0:8c, 2015-01-01 02:15:12.015, 0.975, -0.306, 0.069, -0.427, 0.305, 0, -77.168, -72.026, -130.721, -26.940, -3.753, -7.760, 26.92, -0.0697, -0.62811, 0.26682, -0.72754,
 15:53:01.668,e3:ca:2d:fd:e0:8c, 2015-01-01 02:15:12.015, 0.975, -0.308, 0.07, -0.488, 0.244, 0, -77.162, -72.026, -130.748, -26.940, -3.753, -7.760, 26.92, -0.0697, -0.62811, 0.26682, -0.72754,
 15:53:01.668,e3:ca:2d:fd:e0:8c, 2015-01-01 02:15:12.015, 0.975, -0.308, 0.07, -0.305, 0, 0, -77.157, -72.021, -130.759, -26.940, -3.753, -7.760, 26.92, -0.0697, -0.62811, 0.26682, -0.72754,
 15:53:01.668,e3:ca:2d:fd:e0:8c, 2015-01-01 02:15:12.015, 0.975, -0.308, 0.07, -0.488, 0.244, 0, -77.162, -72.026, -130.748, -26.940, -3.753, -7.760, 26.92, -0.0697, -0.62811, 0.26682, -0.72754,
 15:53:01.674,f6:90:cc:01:6d:25, 2015-01-01 02:15:09.170, 0.932, -0.305, 0.143, -0.427, 0, 0, -65.089, -70.186, -112.698, -29.793, -3.507, -3.827, 29.84, 0.12384, -0.64734, 0.09833, -0.74554,
 15:53:01.674,f6:90:cc:01:6d:25, 2015-01-01 02:15:09.170, 0.93, -0.306, 0.142, -0.366, -0.061, 0, -65.099, -70.186, -112.676, -29.793, -3.507, -3.827, 29.84, 0.12384, -0.64734, 0.09833, -0.74554,
 15:53:01.674,f6:90:cc:01:6d:25, 2015-01-01 02:15:09.170, 0.932, -0.306, 0.141, -0.183, -0.061, 0, -65.105, -70.186, -112.648, -29.793, -3.507, -3.827, 29.84, 0.12384, -0.64734, 0.09833, -0.74554,
 15:53:01.674,f6:90:cc:01:6d:25, 2015-01-01 02:15:09.170, 0.93, -0.306, 0.142, -0.366, -0.061, 0, -65.099, -70.186, -112.676, -29.793, -3.507, -3.827, 29.84, 0.12384, -0.64734, 0.09833, -0.74554,
 15:53:01.696,ed:40:fe:65:30:6c, 2015-01-01 02:15:22.800, 0.603, -0.364, 0.721, 0.183, 0.122, 0.061, -26.867, -36.887, -101.876, -20.627, -0.253, -6.220, 24.7, -0.52438, 0.3783, 0.02298, 0.76242,
 15:53:01.696,ed:40:fe:65:30:6c, 2015-01-01 02:15:22.800, 0.603, -0.364, 0.72, 0.183, 0.244, 0, -26.862, -36.881, -101.887, -20.627, -0.253, -6.220, 24.7, -0.52438, 0.3783, 0.02298, 0.76242,
 15:53:01.696,ed:40:fe:65:30:6c, 2015-01-01 02:15:22.800, 0.603, -0.364, 0.718, 0.244, 0.244, -0.061, -26.856, -36.876, -101.898, -20.627, -0.253, -6.220, 24.7, -0.52438, 0.3783, 0.02298, 0.76242,
 15:53:01.696,ed:40:fe:65:30:6c, 2015-01-01 02:15:22.800, 0.603, -0.364, 0.72, 0.183, 0.244, 0, -26.862, -36.881, -101.887, -20.627, -0.253, -6.220, 24.7, -0.52438, 0.3783, 0.02298, 0.76242,
 15:53:01.699,e3:ca:2d:fd:e0:8c, 2015-01-01 02:15:12.015, 0.973, -0.308, 0.07, -0.305, 0, 0, -77.157, -72.021, -130.759, -26.940, -3.753, -7.760, 26.92, -0.0697, -0.62811, 0.26682, -0.72754,
 15:53:01.699,e3:ca:2d:fd:e0:8c, 2015-01-01 02:15:12.015, 0.972, -0.309, 0.069, -0.366, 0.061, 0, -77.162, -72.021, -130.754, -26.940, -3.753, -7.760, 26.92, -0.0697, -0.62811, 0.26682, -0.72754,
 15:53:01.699,e3:ca:2d:fd:e0:8c, 2015-01-01 02:15:12.015, 0.973, -0.309, 0.071, -0.427, 0.183, 0, -77.168, -72.021, -130.754, -26.940, -3.753, -7.760, 26.92, -0.0697, -0.62811, 0.26682, -0.72754,
 15:53:01.699,e3:ca:2d:fd:e0:8c, 2015-01-01 02:15:12.015, 0.972, -0.309, 0.069, -0.366, 0.061, 0, -77.162, -72.021, -130.754, -26.940, -3.753, -7.760, 26.92, -0.0697, -0.62811, 0.26682, -0.72754,
 15:53:01.700,ed:35:33:d3:6c:f8, 2015-01-01 02:15:10.800, 0.395, -0.396, 0.822, -0.122, 0.183, 0.061, -25.653, -23.61, 170.667, -10.307, -0.367, -32.313, 27.25, 0.12387, 0.18097, -0.23294, 0.94739,
 15:53:01.700,ed:35:33:d3:6c:f8, 2015-01-01 02:15:10.800, 0.398, -0.396, 0.821, 0, 0.366, -0.244, -25.659, -23.604, 170.662, -10.307, -0.367, -32.313, 27.25, 0.12387, 0.18097, -0.23294, 0.94739,
 15:53:01.700,ed:35:33:d3:6c:f8, 2015-01-01 02:15:10.800, 0.395, -0.396, 0.819, 0.427, 0.427, 0, -25.653, -23.599, 170.645, -10.307, -0.367, -32.313, 27.25, 0.12387, 0.18097, -0.23294, 0.94739,
 15:53:01.700,ed:35:33:d3:6c:f8, 2015-01-01 02:15:10.800, 0.398, -0.396, 0.821, 0, 0.366, -0.244, -25.659, -23.604, 170.662, -10.307, -0.367, -32.313, 27.25, 0.12387, 0.18097, -0.23294, 0.94739,
 15:53:01.705,f6:90:cc:01:6d:25, 2015-01-01 02:15:09.170, 0.927, -0.306, 0.141, -0.183, -0.061, 0, -65.105, -70.186, -112.648, -29.793, -3.507, -3.827, 29.84, 0.12384, -0.64734, 0.09833, -0.74554,
 15:53:01.705,f6:90:cc:01:6d:25, 2015-01-01 02:15:09.170, 0.928, -0.306, 0.139, -0.122, -0.244, 0, -65.121, -70.186, -112.621, -29.793, -3.507, -3.827, 29.84, 0.12384, -0.64734, 0.09833, -0.74554,
 15:53:01.705,f6:90:cc:01:6d:25, 2015-01-01 02:15:09.170, 0.927, -0.307, 0.141, -0.244, -0.183, 0, -65.138, -70.186, -112.593, -29.793, -3.507, -3.827, 29.84, 0.12384, -0.64734, 0.09833, -0.74554,
 15:53:01.705,f6:90:cc:01:6d:25, 2015-01-01 02:15:09.170, 0.928, -0.306, 0.139, -0.122, -0.244, 0, -65.121, -70.186, -112.621, -29.793, -3.507, -3.827, 29.84, 0.12384, -0.64734, 0.09833, -0.74554,
 15:53:01.726,ed:40:fe:65:30:6c, 2015-01-01 02:15:22.800, 0.603, -0.364, 0.718, 0.244, 0.244, -0.061, -26.856, -36.876, -101.898, -20.627, -0.253, -6.220, 24.7, -0.52438, 0.3783, 0.02298, 0.76242,
 15:53:01.726,ed:40:fe:65:30:6c, 2015-01-01 02:15:22.800, 0.604, -0.365, 0.716, 0.366, 0.244, -0.061, -26.845, -36.87, -101.909, -20.627, -0.253, -6.220, 24.7, -0.52438, 0.3783, 0.02298, 0.76242,
 15:53:01.726,ed:40:fe:65:30:6c, 2015-01-01 02:15:22.800, 0.603, -0.363, 0.716, 0.488, 0.183, -0.122, -26.834, -36.87, -101.92, -20.627, -0.253, -6.220, 24.7, -0.52438, 0.3783, 0.02298, 0.76242,
 15:53:01.726,ed:40:fe:65:30:6c, 2015-01-01 02:15:22.800, 0.604, -0.365, 0.716, 0.366, 0.244, -0.061, -26.845, -36.87, -101.909, -20.627, -0.253, -6.220, 24.7, -0.52438, 0.3783, 0.02298, 0.76242,
 15:53:01.728,e3:ca:2d:fd:e0:8c, 2015-01-01 02:15:12.015, 0.973, -0.309, 0.071, -0.427, 0.183, 0, -77.168, -72.021, -130.754, -26.940, -3.753, -7.760, 26.92, -0.0697, -0.62811, 0.26682, -0.72754,
 15:53:01.728,e3:ca:2d:fd:e0:8c, 2015-01-01 02:15:12.015, 0.973, -0.308, 0.071, -0.427, 0.183, 0, -77.162, -72.021, -130.754, -26.940, -3.753, -7.760, 26.92, -0.0697, -0.62811, 0.26682, -0.72754,
 15:53:01.728,e3:ca:2d:fd:e0:8c, 2015-01-01 02:15:12.015, 0.973, -0.307, 0.071, -0.366, 0.122, 0, -77.162, -72.021, -130.754, -26.940, -3.753, -7.760, 26.92, -0.0697, -0.62811, 0.26682, -0.72754,
 15:53:01.728,e3:ca:2d:fd:e0:8c, 2015-01-01 02:15:12.015, 0.973, -0.308, 0.071, -0.427, 0.183, 0, -77.162, -72.021, -130.754, -26.940, -3.753, -7.760, 26.92, -0.0697, -0.62811, 0.26682, -0.72754,
 15:53:01.732,ed:35:33:d3:6c:f8, 2015-01-01 02:15:10.800, 0.397, -0.396, 0.819, 0.427, 0.427, 0, -25.653, -23.599, 170.645, -10.327, -0.367, -33.247, 27.25, 0.12387, 0.18097, -0.23294, 0.94739,
 15:53:01.732,ed:35:33:d3:6c:f8, 2015-01-01 02:15:10.800, 0.396, -0.395, 0.82, 0.427, 0.427, -0.183, -25.642, -23.593, 170.629, -10.327, -0.367, -33.247, 27.25, 0.12387, 0.18097, -0.23294, 0.94739,
 15:53:01.732,ed:35:33:d3:6c:f8, 2015-01-01 02:15:10.800, 0.397, -0.388, 0.822, 0.183, 0.244, -0.244, -25.631, -23.582, 170.618, -10.327, -0.367, -33.247, 27.25, 0.12387, 0.18097, -0.23294, 0.94739,
 15:53:01.732,ed:35:33:d3:6c:f8, 2015-01-01 02:15:10.800, 0.396, -0.395, 0.82, 0.427, 0.427, -0.183, -25.642, -23.593, 170.629, -10.327, -0.367, -33.247, 27.25, 0.12387, 0.18097, -0.23294, 0.94739,
 15:53:01.755,ed:40:fe:65:30:6c, 2015-01-01 02:15:22.800, 0.603, -0.363, 0.716, 0.488, 0.183, -0.122, -26.834, -36.87, -101.92, -20.627, -0.253, -6.220, 24.7, -0.52438, 0.3783, 0.02298, 0.76242,
 15:53:01.755,ed:40:fe:65:30:6c, 2015-01-01 02:15:22.800, 0.604, -0.359, 0.718, 0.305, 0.244, 0, -26.829, -36.865, -101.931, -20.627, -0.253, -6.220, 24.7, -0.52438, 0.3783, 0.02298, 0.76242,
 15:53:01.755,ed:40:fe:65:30:6c, 2015-01-01 02:15:22.800, 0.603, -0.362, 0.719, 0.488, 0.366, 0.244, -26.818, -36.854, -101.937, -20.627, -0.253, -6.220, 24.7, -0.52438, 0.3783, 0.02298, 0.76242,
 15:53:01.755,ed:40:fe:65:30:6c, 2015-01-01 02:15:22.800, 0.604, -0.359, 0.718, 0.305, 0.244, 0, -26.829, -36.865, -101.931, -20.627, -0.253, -6.220, 24.7, -0.52438, 0.3783, 0.02298, 0.76242,
 15:53:01.765,f6:90:cc:01:6d:25, 2015-01-01 02:15:09.170, 0.929, -0.307, 0.141, -0.244, -0.183, 0, -65.138, -70.186, -112.593, -29.793, -3.507, -3.827, 29.84, 0.12384, -0.64734, 0.09833, -0.74554,
 15:53:01.765,f6:90:cc:01:6d:25, 2015-01-01 02:15:09.170, 0.929, -0.307, 0.141, -0.244, 0, 0, -65.143, -70.181, -112.593, -29.793, -3.507, -3.827, 29.84, 0.12384, -0.64734, 0.09833, -0.74554,
 15:53:01.765,f6:90:cc:01:6d:25, 2015-01-01 02:15:09.170, 0.929, -0.306, 0.141, -0.122, 0.061, 0, -65.143, -70.181, -112.593, -29.793, -3.507, -3.827, 29.84, 0.12384, -0.64734, 0.09833, -0.74554,
 15:53:01.765,f6:90:cc:01:6d:25, 2015-01-01 02:15:09.170, 0.929, -0.307, 0.141, -0.244, 0, 0, -65.143, -70.181, -112.593, -29.793, -3.507, -3.827, 29.84, 0.12384, -0.64734, 0.09833, -0.74554,
 15:53:01.789,e3:ca:2d:fd:e0:8c, 2015-01-01 02:15:12.015, 0.974, -0.307, 0.071, -0.366, 0.122, 0, -77.162, -72.021, -130.754, -26.940, -3.753, -7.760, 26.92, -0.0697, -0.62811, 0.26682, -0.72754,
 15:53:01.789,e3:ca:2d:fd:e0:8c, 2015-01-01 02:15:12.015, 0.974, -0.308, 0.07, -0.244, 0.061, 0, -77.162, -72.021, -130.743, -26.940, -3.753, -7.760, 26.92, -0.0697, -0.62811, 0.26682, -0.72754,
 15:53:01.789,e3:ca:2d:fd:e0:8c, 2015-01-01 02:15:12.015, 0.974, -0.308, 0.069, -0.183, 0.122, 0, -77.162, -72.021, -130.726, -26.940, -3.753, -7.760, 26.92, -0.0697, -0.62811, 0.26682, -0.72754,
 15:53:01.789,e3:ca:2d:fd:e0:8c, 2015-01-01 02:15:12.015, 0.974, -0.308, 0.07, -0.244, 0.061, 0, -77.162, -72.021, -130.743, -26.940, -3.753, -7.760, 26.92, -0.0697, -0.62811, 0.26682, -0.72754,
 15:53:01.795,f6:90:cc:01:6d:25, 2015-01-01 02:15:09.170, 0.929, -0.306, 0.141, -0.122, 0.061, 0, -65.143, -70.181, -112.593, -29.727, -3.713, -3.733, 29.84, 0.12384, -0.64734, 0.09833, -0.74554,
 15:53:01.795,f6:90:cc:01:6d:25, 2015-01-01 02:15:09.170, 0.929, -0.306, 0.14, -0.061, 0.183, 0, -65.138, -70.175, -112.599, -29.727, -3.713, -3.733, 29.84, 0.12384, -0.64734, 0.09833, -0.74554,
 15:53:01.795,f6:90:cc:01:6d:25, 2015-01-01 02:15:09.170, 0.929, -0.306, 0.14, 0, 0.061, 0, -65.138, -70.175, -112.604, -29.727, -3.713, -3.733, 29.84, 0.12384, -0.64734, 0.09833, -0.74554,
 15:53:01.795,f6:90:cc:01:6d:25, 2015-01-01 02:15:09.170, 0.929, -0.306, 0.14, -0.061, 0.183, 0, -65.138, -70.175, -112.599, -29.727, -3.713, -3.733, 29.84, 0.12384, -0.64734, 0.09833, -0.74554,
 15:53:01.819,e3:ca:2d:fd:e0:8c, 2015-01-01 02:15:12.015, 0.975, -0.308, 0.069, -0.183, 0.122, 0, -77.162, -72.021, -130.726, -26.853, -3.927, -7.880, 26.92, -0.0697, -0.62811, 0.26682, -0.72754,
 15:53:01.819,e3:ca:2d:fd:e0:8c, 2015-01-01 02:15:12.015, 0.975, -0.307, 0.07, -0.183, 0.183, 0, -77.157, -72.021, -130.721, -26.853, -3.927, -7.880, 26.92, -0.0697, -0.62811, 0.26682, -0.72754,
 15:53:01.819,e3:ca:2d:fd:e0:8c, 2015-01-01 02:15:12.015, 0.975, -0.308, 0.071, -0.183, 0.183, 0, -77.146, -72.021, -130.704, -26.853, -3.927, -7.880, 26.92, -0.0697, -0.62811, 0.26682, -0.72754,
 15:53:01.819,e3:ca:2d:fd:e0:8c, 2015-01-01 02:15:12.015, 0.975, -0.307, 0.07, -0.183, 0.183, 0, -77.157, -72.021, -130.721, -26.853, -3.927, -7.880, 26.92, -0.0697, -0.62811, 0.26682, -0.72754,
 15:53:01.821,ed:35:33:d3:6c:f8, 2015-01-01 02:15:10.800, 0.397, -0.388, 0.822, 0.183, 0.244, -0.244, -25.631, -23.582, 170.618, -10.327, -0.367, -33.247, 27.25, 0.12387, 0.18097, -0.23294, 0.94739,
 15:53:01.821,ed:35:33:d3:6c:f8, 2015-01-01 02:15:10.800, 0.396, -0.392, 0.822, 0.366, 0.183, 0, -25.626, -23.582, 170.618, -10.327, -0.367, -33.247, 27.25, 0.12387, 0.18097, -0.23294, 0.94739,
 15:53:01.821,ed:35:33:d3:6c:f8, 2015-01-01 02:15:10.800, 0.397, -0.402, 0.822, 1.099, 0.305, 0.305, -25.615, -23.577, 170.634, -10.327, -0.367, -33.247, 27.25, 0.12387, 0.18097, -0.23294, 0.94739,
 15:53:01.821,ed:35:33:d3:6c:f8, 2015-01-01 02:15:10.800, 0.396, -0.392, 0.822, 0.366, 0.183, 0, -25.626, -23.582, 170.618, -10.327, -0.367, -33.247, 27.25, 0.12387, 0.18097, -0.23294, 0.94739,
 15:53:01.844,ed:40:fe:65:30:6c, 2015-01-01 02:15:22.800, 0.602, -0.362, 0.719, 0.488, 0.366, 0.244, -26.818, -36.854, -101.937, -20.627, -0.253, -6.220, 24.7, -0.52438, 0.3783, 0.02298, 0.76242,
 15:53:01.844,ed:40:fe:65:30:6c, 2015-01-01 02:15:22.800, 0.602, -0.369, 0.72, 0.732, 0.366, 0.122, -26.801, -36.848, -101.948, -20.627, -0.253, -6.220, 24.7, -0.52438, 0.3783, 0.02298, 0.76242,
 15:53:01.844,ed:40:fe:65:30:6c, 2015-01-01 02:15:22.800, 0.602, -0.368, 0.72, 0.732, 0.305, -0.183, -26.785, -36.843, -101.959, -20.627, -0.253, -6.220, 24.7, -0.52438, 0.3783, 0.02298, 0.76242,
 15:53:01.844,ed:40:fe:65:30:6c, 2015-01-01 02:15:22.800, 0.602, -0.369, 0.72, 0.732, 0.366, 0.122, -26.801, -36.848, -101.948, -20.627, -0.253, -6.220, 24.7, -0.52438, 0.3783, 0.02298, 0.76242,
 15:53:01.848,e3:ca:2d:fd:e0:8c, 2015-01-01 02:15:12.015, 0.974, -0.308, 0.071, -0.183, 0.183, 0, -77.146, -72.021, -130.704, -26.853, -3.927, -7.880, 26.92, -0.0697, -0.62811, 0.26682, -0.72754,
 15:53:01.848,e3:ca:2d:fd:e0:8c, 2015-01-01 02:15:12.015, 0.972, -0.308, 0.071, -0.122, 0.122, 0, -77.141, -72.015, -130.688, -26.853, -3.927, -7.880, 26.92, -0.0697, -0.62811, 0.26682, -0.72754,
 15:53:01.848,e3:ca:2d:fd:e0:8c, 2015-01-01 02:15:12.015, 0.974, -0.308, 0.071, -0.122, 0.061, 0, -77.135, -72.015, -130.671, -26.853, -3.927, -7.880, 26.92, -0.0697, -0.62811, 0.26682, -0.72754,
 15:53:01.848,e3:ca:2d:fd:e0:8c, 2015-01-01 02:15:12.015, 0.972, -0.308, 0.071, -0.122, 0.122, 0, -77.141, -72.015, -130.688, -26.853, -3.927, -7.880, 26.92, -0.0697, -0.62811, 0.26682, -0.72754,
 15:53:01.855,f6:90:cc:01:6d:25, 2015-01-01 02:15:09.170, 0.93, -0.306, 0.14, 0, 0.061, 0, -65.138, -70.175, -112.604, -29.727, -3.713, -3.733, 29.84, 0.12384, -0.64734, 0.09833, -0.74554,
 15:53:01.855,f6:90:cc:01:6d:25, 2015-01-01 02:15:09.170, 0.931, -0.306, 0.141, -0.061, 0, 0, -65.143, -70.175, -112.61, -29.727, -3.713, -3.733, 29.84, 0.12384, -0.64734, 0.09833, -0.74554,
 15:53:01.855,f6:90:cc:01:6d:25, 2015-01-01 02:15:09.170, 0.93, -0.307, 0.142, -0.061, 0, 0, -65.143, -70.175, -112.615, -29.727, -3.713, -3.733, 29.84, 0.12384, -0.64734, 0.09833, -0.74554,
 15:53:01.855,f6:90:cc:01:6d:25, 2015-01-01 02:15:09.170, 0.931, -0.306, 0.141, -0.061, 0, 0, -65.143, -70.175, -112.61, -29.727, -3.713, -3.733, 29.84, 0.12384, -0.64734, 0.09833, -0.74554,
 15:53:01.874,ed:40:fe:65:30:6c, 2015-01-01 02:15:22.800, 0.604, -0.368, 0.72, 0.732, 0.305, -0.183, -26.785, -36.843, -101.959, -20.527, -0.367, -5.500, 24.7, -0.52438, 0.3783, 0.02298, 0.76242,
 15:53:01.874,ed:40:fe:65:30:6c, 2015-01-01 02:15:22.800, 0.602, -0.365, 0.717, 0.61, 0.366, -0.427, -26.768, -36.843, -101.981, -20.527, -0.367, -5.500, 24.7, -0.52438, 0.3783, 0.02298, 0.76242,
 15:53:01.874,ed:40:fe:65:30:6c, 2015-01-01 02:15:22.800, 0.604, -0.361, 0.721, 0.305, 0.427, -0.366, -26.752, -36.837, -102.003, -20.527, -0.367, -5.500, 24.7, -0.52438, 0.3783, 0.02298, 0.76242,
 15:53:01.874,ed:40:fe:65:30:6c, 2015-01-01 02:15:22.800, 0.602, -0.365, 0.717, 0.61, 0.366, -0.427, -26.768, -36.843, -101.981, -20.527, -0.367, -5.500, 24.7, -0.52438, 0.3783, 0.02298, 0.76242,
 15:53:01.882,ed:35:33:d3:6c:f8, 2015-01-01 02:15:10.800, 0.396, -0.402, 0.822, 1.099, 0.305, 0.305, -25.615, -23.577, 170.634, -10.327, -0.367, -33.247, 27.25, 0.12323, 0.18082, -0.2327, 0.94757,
 15:53:01.882,ed:35:33:d3:6c:f8, 2015-01-01 02:15:10.800, 0.397, -0.401, 0.822, 1.16, 0.366, 0, -25.593, -23.566, 170.651, -10.327, -0.367, -33.247, 27.25, 0.12323, 0.18082, -0.2327, 0.94757,
 15:53:01.882,ed:35:33:d3:6c:f8, 2015-01-01 02:15:10.800, 0.396, -0.397, 0.82, 0.977, 0.427, -0.427, -25.571, -23.56, 170.662, -10.327, -0.367, -33.247, 27.25, 0.12323, 0.18082, -0.2327, 0.94757,
 15:53:01.882,ed:35:33:d3:6c:f8, 2015-01-01 02:15:10.800, 0.397, -0.401, 0.822, 1.16, 0.366, 0, -25.593, -23.566, 170.651, -10.327, -0.367, -33.247, 27.25, 0.12323, 0.18082, -0.2327, 0.94757,
 15:53:01.882,ed:35:33:d3:6c:f8, 2015-01-01 02:15:10.800, 0.396, -0.397, 0.82, 0.977, 0.427, -0.427, -25.571, -23.56, 170.662, -10.327, -0.367, -33.247, 27.25, 0.12323, 0.18082, -0.2327, 0.94757,
 15:53:01.882,ed:35:33:d3:6c:f8, 2015-01-01 02:15:10.800, 0.392, -0.392, 0.824, 0.305, 0.305, -0.916, -25.554, -23.555, 170.651, -10.327, -0.367, -33.247, 27.25, 0.12323, 0.18082, -0.2327, 0.94757,
 15:53:01.882,ed:35:33:d3:6c:f8, 2015-01-01 02:15:10.800, 0.396, -0.394, 0.825, 0.549, 0.244, -0.427, -25.543, -23.56, 170.645, -10.327, -0.367, -33.247, 27.25, 0.12323, 0.18082, -0.2327, 0.94757,
 15:53:01.882,ed:35:33:d3:6c:f8, 2015-01-01 02:15:10.800, 0.392, -0.392, 0.824, 0.305, 0.305, -0.916, -25.554, -23.555, 170.651, -10.327, -0.367, -33.247, 27.25, 0.12323, 0.18082, -0.2327, 0.94757,
 15:53:01.905,ed:40:fe:65:30:6c, 2015-01-01 02:15:22.800, 0.599, -0.361, 0.721, 0.305, 0.427, -0.366, -26.752, -36.837, -102.003, -20.527, -0.367, -5.500, 24.7, -0.52438, 0.3783, 0.02298, 0.76242,
 15:53:01.905,ed:40:fe:65:30:6c, 2015-01-01 02:15:22.800, 0.6, -0.363, 0.722, 0.244, 0.366, -0.305, -26.746, -36.832, -102.019, -20.527, -0.367, -5.500, 24.7, -0.52438, 0.3783, 0.02298, 0.76242,
