Time,Device name,Chip Time(),Acceleration X(g),Acceleration Y(g),Acceleration Z(g),Angular velocity X(°/s),Angular velocity Y(°/s),Angular velocity Z(°/s),Angle X(°),Angle Y(°),Angle Z(°),Magnetic field X(ʯt),Magnetic field Y(ʯt),Magnetic field Z(ʯt),Temperature(℃),Quaternions 0(),Quaternions 1(),Quaternions 2(),Quaternions 3()
 14:09:19.802,f6:90:cc:01:6d:25, 2015-01-01 00:32:11.100, 0.86, 0.203, 0.45, 0, 0.061, -0.122, 24.093, -59.908, -173.76, -25.660, -14.760, -7.993, 32.38, -0.15057, 0.47757, 0.20746, 0.8403,
 14:09:19.802,f6:90:cc:01:6d:25, 2015-01-01 00:32:11.100, 0.855, 0.197, 0.444, -0.061, 0.183, -0.061, 24.099, -59.908, -173.776, -25.660, -14.760, -7.993, 32.38, -0.15057, 0.47757, 0.20746, 0.8403,
 14:09:19.823,e3:ca:2d:fd:e0:8c, 2015-01-01 00:32:13.440, 0.97, 0.062, 0.299, 0.122, 0.244, 0, 12.112, -72.087, 150.172, -25.147, -11.073, -11.213, 29.77, 0.14819, 0.58749, -0.06903, 0.79248,
 14:09:19.823,e3:ca:2d:fd:e0:8c, 2015-01-01 00:32:13.440, 0.972, 0.062, 0.3, 0.183, -0.061, 0.061, 12.107, -72.081, 150.178, -25.147, -11.073, -11.213, 29.77, 0.14819, 0.58749, -0.06903, 0.79248,
 14:09:19.826,ed:35:33:d3:6c:f8, 2015-01-01 00:32:12.390, 0.476, 0.016, 0.879, 0.671, 2.258, 0.366, 0.824, -28.729, 159.95, -13.120, -10.533, -30.480, 31, -0.1694, -0.24802, 0.0386, -0.953,
 14:09:19.826,ed:35:33:d3:6c:f8, 2015-01-01 00:32:12.390, 0.477, 0.016, 0.881, 1.16, 1.648, 0.671, 0.835, -28.691, 159.994, -13.120, -10.533, -30.480, 31, -0.1694, -0.24802, 0.0386, -0.953,
 14:09:19.829,f6:90:cc:01:6d:25, 2015-01-01 00:32:11.100, 0.856, 0.198, 0.444, -0.183, 0.061, 0, 24.093, -59.908, -173.787, -25.660, -14.760, -7.993, 32.38, -0.15057, 0.47757, 0.20746, 0.8403,
 14:09:19.829,f6:90:cc:01:6d:25, 2015-01-01 00:32:11.100, 0.856, 0.2, 0.446, -0.061, 0.061, 0.061, 24.088, -59.914, -173.798, -25.660, -14.760, -7.993, 32.38, -0.15057, 0.47757, 0.20746, 0.8403,
 14:09:19.850,ed:40:fe:65:30:6c, 2015-01-01 00:32:24.215, 0.387, -0.009, 0.929, 0.305, 0.549, 0.244, -0.385, -22.626, -136.615, -12.780, -8.480, -8.300, 26.21, -0.36078, 0.18469, 0.0697, 0.91147,
 14:09:19.850,ed:40:fe:65:30:6c, 2015-01-01 00:32:24.215, 0.389, -0.007, 0.925, 0.305, 0.305, 0.305, -0.385, -22.615, -136.604, -12.780, -8.480, -8.300, 26.21, -0.36078, 0.18469, 0.0697, 0.91147,
 14:09:19.854,e3:ca:2d:fd:e0:8c, 2015-01-01 00:32:13.440, 0.97, 0.064, 0.303, 0.183, 0, 0.183, 12.107, -72.087, 150.194, -25.147, -11.073, -11.213, 29.77, 0.14819, 0.58749, -0.06903, 0.79248,
 14:09:19.854,e3:ca:2d:fd:e0:8c, 2015-01-01 00:32:13.440, 0.97, 0.063, 0.305, 0.122, 0, 0.183, 12.101, -72.092, 150.222, -25.147, -11.073, -11.213, 29.77, 0.14819, 0.58749, -0.06903, 0.79248,
 14:09:19.856,ed:35:33:d3:6c:f8, 2015-01-01 00:32:12.390, 0.474, 0.018, 0.875, 0.916, 0.793, 0.549, 0.851, -28.669, 160.027, -13.173, -10.520, -30.787, 31, -0.1694, -0.24802, 0.0386, -0.953,
 14:09:19.856,ed:35:33:d3:6c:f8, 2015-01-01 00:32:12.390, 0.471, 0.011, 0.874, 1.587, 0.671, 1.099, 0.868, -28.652, 160.06, -13.173, -10.520, -30.787, 31, -0.1694, -0.24802, 0.0386, -0.953,
 14:09:19.880,ed:40:fe:65:30:6c, 2015-01-01 00:32:24.215, 0.386, -0.013, 0.921, 0.549, 0, 0.488, -0.385, -22.615, -136.588, -13.113, -8.833, -8.260, 26.21, -0.36078, 0.18469, 0.0697, 0.91147,
 14:09:19.880,ed:40:fe:65:30:6c, 2015-01-01 00:32:24.215, 0.387, -0.015, 0.923, 0.977, 0, 0.488, -0.379, -22.621, -136.566, -13.113, -8.833, -8.260, 26.21, -0.36078, 0.18469, 0.0697, 0.91147,
 14:09:19.890,f6:90:cc:01:6d:25, 2015-01-01 00:32:11.100, 0.856, 0.199, 0.448, -0.122, 0.061, 0.122, 24.088, -59.914, -173.809, -25.660, -14.760, -7.993, 32.38, -0.15057, 0.47757, 0.20746, 0.8403,
 14:09:19.890,f6:90:cc:01:6d:25, 2015-01-01 00:32:11.100, 0.856, 0.199, 0.448, -0.061, 0.061, 0.061, 24.082, -59.919, -173.815, -25.660, -14.760, -7.993, 32.38, -0.15057, 0.47757, 0.20746, 0.8403,
 14:09:19.911,ed:40:fe:65:30:6c, 2015-01-01 00:32:24.215, 0.385, -0.013, 0.924, 0.793, 0, 0.244, -0.368, -22.621, -136.555, -13.113, -8.833, -8.260, 26.21, -0.36078, 0.18469, 0.0697, 0.91147,
 14:09:19.911,ed:40:fe:65:30:6c, 2015-01-01 00:32:24.215, 0.385, -0.012, 0.925, 0.549, -0.061, 0.061, -0.357, -22.621, -136.544, -13.113, -8.833, -8.260, 26.21, -0.36078, 0.18469, 0.0697, 0.91147,
 14:09:19.915,e3:ca:2d:fd:e0:8c, 2015-01-01 00:32:13.440, 0.971, 0.065, 0.304, 0.122, 0, 0, 12.09, -72.092, 150.249, -25.147, -11.073, -11.213, 29.77, 0.14664, 0.58737, -0.06796, 0.79294,
 14:09:19.915,e3:ca:2d:fd:e0:8c, 2015-01-01 00:32:13.440, 0.97, 0.065, 0.306, 0.061, 0, -0.061, 12.096, -72.092, 150.26, -25.147, -11.073, -11.213, 29.77, 0.14664, 0.58737, -0.06796, 0.79294,
 14:09:19.921,f6:90:cc:01:6d:25, 2015-01-01 00:32:11.100, 0.856, 0.201, 0.45, -0.061, 0, -0.061, 24.077, -59.919, -173.831, -25.660, -14.760, -7.993, 32.38, -0.15057, 0.47757, 0.20746, 0.8403,
 14:09:19.921,f6:90:cc:01:6d:25, 2015-01-01 00:32:11.100, 0.856, 0.198, 0.45, -0.122, 0, -0.122, 24.077, -59.925, -173.848, -25.660, -14.760, -7.993, 32.38, -0.15057, 0.47757, 0.20746, 0.8403,
 14:09:19.944,e3:ca:2d:fd:e0:8c, 2015-01-01 00:32:13.800, 0.97, 0.063, 0.306, 0.061, 0, -0.061, 12.096, -72.098, 150.255, -25.147, -11.073, -11.213, 29.77, 0.14664, 0.58737, -0.06796, 0.79294,
 14:09:19.944,e3:ca:2d:fd:e0:8c, 2015-01-01 00:32:13.800, 0.97, 0.062, 0.307, 0.061, -0.061, 0, 12.101, -72.098, 150.255, -25.147, -11.073, -11.213, 29.77, 0.14664, 0.58737, -0.06796, 0.79294,
 14:09:19.946,ed:35:33:d3:6c:f8, 2015-01-01 00:32:12.390, 0.475, 0.009, 0.875, 1.831, 1.16, 1.221, 0.89, -28.636, 160.093, -13.173, -10.520, -30.787, 31, -0.1694, -0.24802, 0.0386, -0.953,
 14:09:19.946,ed:35:33:d3:6c:f8, 2015-01-01 00:32:12.390, 0.472, 0.011, 0.876, 1.343, 0.671, 0.549, 0.912, -28.619, 160.12, -13.173, -10.520, -30.787, 31, -0.1694, -0.24802, 0.0386, -0.953,
 14:09:19.946,ed:35:33:d3:6c:f8, 2015-01-01 00:32:12.390, 0.474, 0.012, 0.878, 0.732, -0.061, 0.549, 0.923, -28.614, 160.148, -13.173, -10.520, -30.787, 31, -0.1694, -0.24802, 0.0386, -0.953,
 14:09:19.946,ed:35:33:d3:6c:f8, 2015-01-01 00:32:12.390, 0.474, 0.015, 0.873, 0.366, -0.305, 0.244, 0.928, -28.614, 160.175, -13.173, -10.520, -30.787, 31, -0.1694, -0.24802, 0.0386, -0.953,
 14:09:19.970,ed:40:fe:65:30:6c, 2015-01-01 00:32:24.215, 0.386, -0.011, 0.924, 0.366, -0.122, 0, -0.352, -22.626, -136.533, -13.113, -8.833, -8.260, 26.21, -0.3624, 0.18335, 0.06973, 0.9111,
 14:09:19.970,ed:40:fe:65:30:6c, 2015-01-01 00:32:24.215, 0.384, -0.009, 0.921, 0.244, 0, 0.122, -0.352, -22.626, -136.527, -13.113, -8.833, -8.260, 26.21, -0.3624, 0.18335, 0.06973, 0.9111,
 14:09:19.973,e3:ca:2d:fd:e0:8c, 2015-01-01 00:32:13.800, 0.968, 0.062, 0.307, 0.183, 0, 0.061, 12.101, -72.098, 150.298, -25.147, -11.073, -11.213, 29.77, 0.14664, 0.58737, -0.06796, 0.79294,
 14:09:19.973,e3:ca:2d:fd:e0:8c, 2015-01-01 00:32:13.800, 0.971, 0.062, 0.306, 0.183, 0, 0.183, 12.096, -72.103, 150.375, -25.147, -11.073, -11.213, 29.77, 0.14664, 0.58737, -0.06796, 0.79294,
 14:09:19.975,ed:35:33:d3:6c:f8, 2015-01-01 00:32:12.390, 0.471, 0.018, 0.871, 0.183, 0, 0.244, 0.928, -28.619, 160.175, -13.173, -10.520, -30.787, 31, -0.16534, -0.24478, 0.0351, -0.95468,
 14:09:19.975,ed:35:33:d3:6c:f8, 2015-01-01 00:32:12.390, 0.47, 0.016, 0.873, 0.549, 0.366, 0.244, 0.934, -28.614, 160.186, -13.173, -10.520, -30.787, 31, -0.16534, -0.24478, 0.0351, -0.95468,
 14:09:19.979,f6:90:cc:01:6d:25, 2015-01-01 00:32:11.100, 0.855, 0.196, 0.45, -0.122, 0, -0.061, 24.077, -59.925, -173.864, -25.447, -14.913, -8.507, 32.38, -0.15057, 0.47757, 0.20746, 0.8403,
 14:09:19.979,f6:90:cc:01:6d:25, 2015-01-01 00:32:11.100, 0.854, 0.197, 0.451, -0.061, 0.061, 0.061, 24.077, -59.93, -173.875, -25.447, -14.913, -8.507, 32.38, -0.15057, 0.47757, 0.20746, 0.8403,
 14:09:20.000,ed:40:fe:65:30:6c, 2015-01-01 00:32:24.600, 0.383, -0.009, 0.922, 0.427, 0.122, 0.305, -0.352, -22.626, -136.516, -13.113, -8.833, -8.260, 26.21, -0.3624, 0.18335, 0.06973, 0.9111,
 14:09:20.000,ed:40:fe:65:30:6c, 2015-01-01 00:32:24.600, 0.385, -0.013, 0.926, 0.671, 0, 0.427, -0.346, -22.626, -136.5, -13.113, -8.833, -8.260, 26.21, -0.3624, 0.18335, 0.06973, 0.9111,
 14:09:20.009,f6:90:cc:01:6d:25, 2015-01-01 00:32:11.100, 0.855, 0.197, 0.45, 0, 0.122, 0.122, 24.066, -59.93, -173.881, -25.447, -14.913, -8.507, 32.38, -0.14917, 0.47818, 0.20639, 0.84048,
 14:09:20.009,f6:90:cc:01:6d:25, 2015-01-01 00:32:11.100, 0.856, 0.2, 0.451, 0.061, 0.061, 0.122, 24.06, -59.93, -173.886, -25.447, -14.913, -8.507, 32.38, -0.14917, 0.47818, 0.20639, 0.84048,
 14:09:20.030,ed:40:fe:65:30:6c, 2015-01-01 00:32:24.600, 0.388, -0.009, 0.923, 0.488, 0.244, 0.305, -0.341, -22.621, -136.483, -13.113, -8.833, -8.260, 26.21, -0.3624, 0.18335, 0.06973, 0.9111,
 14:09:20.030,ed:40:fe:65:30:6c, 2015-01-01 00:32:24.600, 0.389, -0.007, 0.921, 0.366, 0.244, 0.122, -0.341, -22.621, -136.472, -13.113, -8.833, -8.260, 26.21, -0.3624, 0.18335, 0.06973, 0.9111,
 14:09:20.034,e3:ca:2d:fd:e0:8c, 2015-01-01 00:32:13.800, 0.969, 0.065, 0.306, 0.244, -0.122, 0.122, 12.085, -72.103, 150.447, -25.147, -11.073, -11.213, 29.77, 0.14664, 0.58737, -0.06796, 0.79294,
 14:09:20.034,e3:ca:2d:fd:e0:8c, 2015-01-01 00:32:13.800, 0.973, 0.066, 0.305, 0.183, -0.122, 0.122, 12.079, -72.109, 150.485, -25.147, -11.073, -11.213, 29.77, 0.14664, 0.58737, -0.06796, 0.79294,
 14:09:20.036,ed:35:33:d3:6c:f8, 2015-01-01 00:32:12.390, 0.472, 0.014, 0.877, 0.854, 0.793, 0.61, 0.945, -28.597, 160.208, -13.173, -10.520, -30.787, 31, -0.16534, -0.24478, 0.0351, -0.95468,
 14:09:20.036,ed:35:33:d3:6c:f8, 2015-01-01 00:32:12.390, 0.474, 0.015, 0.872, 0.488, 0.244, 0.671, 0.95, -28.586, 160.247, -13.173, -10.520, -30.787, 31, -0.16534, -0.24478, 0.0351, -0.95468,
 14:09:20.040,f6:90:cc:01:6d:25, 2015-01-01 00:32:11.100, 0.856, 0.204, 0.45, 0.305, 0, 0.061, 24.06, -59.936, -173.897, -25.447, -14.913, -8.507, 32.38, -0.14917, 0.47818, 0.20639, 0.84048,
 14:09:20.040,f6:90:cc:01:6d:25, 2015-01-01 00:32:11.100, 0.859, 0.203, 0.448, 0.183, 0.122, 0, 24.06, -59.936, -173.908, -25.447, -14.913, -8.507, 32.38, -0.14917, 0.47818, 0.20639, 0.84048,
 14:09:20.064,e3:ca:2d:fd:e0:8c, 2015-01-01 00:32:13.800, 0.973, 0.066, 0.304, 0.122, -0.183, 0, 12.074, -72.109, 150.491, -25.147, -11.073, -11.213, 29.77, 0.14664, 0.58737, -0.06796, 0.79294,
 14:09:20.064,e3:ca:2d:fd:e0:8c, 2015-01-01 00:32:13.800, 0.972, 0.063, 0.303, 0, 0, 0.061, 12.079, -72.114, 150.496, -25.147, -11.073, -11.213, 29.77, 0.14664, 0.58737, -0.06796, 0.79294,
 14:09:20.065,ed:35:33:d3:6c:f8, 2015-01-01 00:32:12.775, 0.478, 0.015, 0.872, 0.427, 0.671, 0.61, 0.95, -28.575, 160.291, -13.173, -10.520, -30.787, 31, -0.16534, -0.24478, 0.0351, -0.95468,
 14:09:20.065,ed:35:33:d3:6c:f8, 2015-01-01 00:32:12.775, 0.476, 0.021, 0.872, 0, 1.404, 0.366, 0.95, -28.553, 160.329, -13.173, -10.520, -30.787, 31, -0.16534, -0.24478, 0.0351, -0.95468,
 14:09:20.089,ed:40:fe:65:30:6c, 2015-01-01 00:32:24.600, 0.388, -0.007, 0.923, 0.183, 0.183, 0, -0.341, -22.615, -136.467, -13.113, -8.833, -8.260, 26.21, -0.3624, 0.18335, 0.06973, 0.9111,
 14:09:20.089,ed:40:fe:65:30:6c, 2015-01-01 00:32:24.600, 0.389, -0.009, 0.922, 0.488, 0.366, 0.244, -0.335, -22.61, -136.456, -13.113, -8.833, -8.260, 26.21, -0.3624, 0.18335, 0.06973, 0.9111,
 14:09:20.096,ed:35:33:d3:6c:f8, 2015-01-01 00:32:12.775, 0.476, 0.013, 0.875, 0.427, 1.709, 0.977, 0.95, -28.526, 160.362, -13.173, -10.520, -30.787, 31, -0.16534, -0.24478, 0.0351, -0.95468,
 14:09:20.096,ed:35:33:d3:6c:f8, 2015-01-01 00:32:12.775, 0.474, 0.013, 0.878, 0.122, 1.16, 0.366, 0.945, -28.493, 160.389, -13.173, -10.520, -30.787, 31, -0.16534, -0.24478, 0.0351, -0.95468,
 14:09:20.099,f6:90:cc:01:6d:25, 2015-01-01 00:32:11.425, 0.857, 0.2, 0.447, 0.122, 0.122, 0.061, 24.06, -59.936, -173.914, -25.447, -14.913, -8.507, 32.38, -0.14917, 0.47818, 0.20639, 0.84048,
 14:09:20.099,f6:90:cc:01:6d:25, 2015-01-01 00:32:11.425, 0.859, 0.198, 0.446, 0.122, 0.183, 0.122, 24.055, -59.936, -173.919, -25.447, -14.913, -8.507, 32.38, -0.14917, 0.47818, 0.20639, 0.84048,
 14:09:20.121,ed:40:fe:65:30:6c, 2015-01-01 00:32:24.600, 0.389, -0.012, 0.925, 0.366, 0.366, 0.183, -0.335, -22.604, -136.445, -13.113, -8.833, -8.260, 26.21, -0.3624, 0.18335, 0.06973, 0.9111,
 14:09:20.121,ed:40:fe:65:30:6c, 2015-01-01 00:32:24.600, 0.39, -0.011, 0.926, 0.244, 0.122, 0.183, -0.335, -22.604, -136.434, -13.113, -8.833, -8.260, 26.21, -0.3624, 0.18335, 0.06973, 0.9111,
 14:09:20.125,e3:ca:2d:fd:e0:8c, 2015-01-01 00:32:13.800, 0.973, 0.063, 0.303, 0.061, 0, 0.183, 12.068, -72.114, 150.518, -25.147, -11.073, -11.213, 29.77, 0.14664, 0.58737, -0.06796, 0.79294,
 14:09:20.125,e3:ca:2d:fd:e0:8c, 2015-01-01 00:32:13.800, 0.974, 0.063, 0.301, 0.244, 0, 0, 12.068, -72.12, 150.54, -25.147, -11.073, -11.213, 29.77, 0.14664, 0.58737, -0.06796, 0.79294,
 14:09:20.129,f6:90:cc:01:6d:25, 2015-01-01 00:32:11.425, 0.859, 0.198, 0.447, 0.122, 0.183, 0.061, 24.055, -59.936, -173.925, -25.447, -14.913, -8.507, 32.38, -0.14917, 0.47818, 0.20639, 0.84048,
 14:09:20.129,f6:90:cc:01:6d:25, 2015-01-01 00:32:11.425, 0.858, 0.2, 0.446, 0.122, 0.183, 0, 24.049, -59.936, -173.936, -25.447, -14.913, -8.507, 32.38, -0.14917, 0.47818, 0.20639, 0.84048,
 14:09:20.151,ed:40:fe:65:30:6c, 2015-01-01 00:32:24.600, 0.388, -0.008, 0.923, 0.305, 0.061, 0.122, -0.33, -22.604, -136.428, -13.113, -8.833, -8.260, 26.21, -0.3624, 0.18335, 0.06973, 0.9111,
 14:09:20.151,ed:40:fe:65:30:6c, 2015-01-01 00:32:24.600, 0.386, -0.009, 0.924, 0.488, 0.061, 0.183, -0.33, -22.604, -136.417, -13.113, -8.833, -8.260, 26.21, -0.3624, 0.18335, 0.06973, 0.9111,
 14:09:20.153,e3:ca:2d:fd:e0:8c, 2015-01-01 00:32:13.800, 0.972, 0.065, 0.302, 0.244, 0, 0.061, 12.068, -72.12, 150.557, -25.367, -11.500, -11.033, 29.77, 0.14664, 0.58737, -0.06796, 0.79294,
 14:09:20.153,e3:ca:2d:fd:e0:8c, 2015-01-01 00:32:13.800, 0.971, 0.066, 0.301, 0.183, 0, 0.061, 12.068, -72.12, 150.562, -25.367, -11.500, -11.033, 29.77, 0.14664, 0.58737, -0.06796, 0.79294,
 14:09:20.161,ed:35:33:d3:6c:f8, 2015-01-01 00:32:12.775, 0.476, 0.014, 0.877, 0.122, 1.099, 0.183, 0.945, -28.471, 160.406, -13.173, -10.520, -30.787, 31, -0.16534, -0.24478, 0.0351, -0.95468,
 14:09:20.161,ed:35:33:d3:6c:f8, 2015-01-01 00:32:12.775, 0.471, 0.016, 0.875, 0.427, 1.16, 0.122, 0.95, -28.449, 160.428, -13.173, -10.520, -30.787, 31, -0.16534, -0.24478, 0.0351, -0.95468,
 14:09:20.163,f6:90:cc:01:6d:25, 2015-01-01 00:32:11.425, 0.857, 0.201, 0.446, 0, 0.244, 0, 24.049, -59.936, -173.941, -25.447, -14.913, -8.507, 32.38, -0.14917, 0.47818, 0.20639, 0.84048,
 14:09:20.163,f6:90:cc:01:6d:25, 2015-01-01 00:32:11.425, 0.856, 0.2, 0.447, 0, 0.122, 0, 24.049, -59.936, -173.952, -25.447, -14.913, -8.507, 32.38, -0.14917, 0.47818, 0.20639, 0.84048,
 14:09:20.186,ed:35:33:d3:6c:f8, 2015-01-01 00:32:12.775, 0.47, 0.017, 0.876, 0.427, 1.587, 0.305, 0.956, -28.422, 160.455, -13.173, -10.520, -30.787, 31, -0.16534, -0.24478, 0.0351, -0.95468,
 14:09:20.186,ed:35:33:d3:6c:f8, 2015-01-01 00:32:12.775, 0.469, 0.014, 0.875, 0.305, 1.038, 0.366, 0.961, -28.4, 160.461, -13.173, -10.520, -30.787, 31, -0.16534, -0.24478, 0.0351, -0.95468,
 14:09:20.186,e3:ca:2d:fd:e0:8c, 2015-01-01 00:32:13.800, 0.972, 0.064, 0.303, 0, 0, 0, 12.068, -72.125, 150.557, -25.367, -11.500, -11.033, 29.77, 0.14664, 0.58737, -0.06796, 0.79294,
 14:09:20.186,e3:ca:2d:fd:e0:8c, 2015-01-01 00:32:13.800, 0.971, 0.063, 0.305, 0, 0.061, 0, 12.068, -72.125, 150.551, -25.367, -11.500, -11.033, 29.77, 0.14664, 0.58737, -0.06796, 0.79294,
 14:09:20.216,ed:35:33:d3:6c:f8, 2015-01-01 00:32:12.775, 0.469, 0.018, 0.878, -0.061, 1.404, 0.122, 0.961, -28.372, 160.455, -13.173, -10.520, -30.787, 31, -0.16534, -0.24478, 0.0351, -0.95468,
 14:09:20.216,ed:35:33:d3:6c:f8, 2015-01-01 00:32:12.775, 0.469, 0.015, 0.877, -0.366, 1.038, 0, 0.956, -28.35, 160.461, -13.173, -10.520, -30.787, 31, -0.16534, -0.24478, 0.0351, -0.95468,
 14:09:20.221,f6:90:cc:01:6d:25, 2015-01-01 00:32:11.425, 0.856, 0.199, 0.449, 0, 0, 0, 24.044, -59.941, -173.963, -25.447, -14.913, -8.507, 32.38, -0.14917, 0.47818, 0.20639, 0.84048,
 14:09:20.221,f6:90:cc:01:6d:25, 2015-01-01 00:32:11.425, 0.857, 0.199, 0.45, 0, 0, 0.061, 24.044, -59.941, -173.969, -25.447, -14.913, -8.507, 32.38, -0.14917, 0.47818, 0.20639, 0.84048,
 14:09:20.240,ed:40:fe:65:30:6c, 2015-01-01 00:32:24.600, 0.385, -0.01, 0.924, 0.488, 0, 0.061, -0.319, -22.604, -136.406, -13.113, -8.833, -8.260, 26.21, -0.3624, 0.18335, 0.06973, 0.9111,
 14:09:20.240,ed:40:fe:65:30:6c, 2015-01-01 00:32:24.600, 0.385, -0.008, 0.925, 0.305, 0, 0.061, -0.319, -22.61, -136.401, -13.113, -8.833, -8.260, 26.21, -0.3624, 0.18335, 0.06973, 0.9111,
 14:09:20.240,ed:40:fe:65:30:6c, 2015-01-01 00:32:24.600, 0.386, -0.01, 0.926, 0.244, 0, 0.061, -0.319, -22.61, -136.395, -13.113, -8.833, -8.260, 26.21, -0.3624, 0.18335, 0.06973, 0.9111,
 14:09:20.240,ed:40:fe:65:30:6c, 2015-01-01 00:32:24.600, 0.385, -0.01, 0.923, 0.427, 0, 0.183, -0.313, -22.61, -136.384, -13.113, -8.833, -8.260, 26.21, -0.3624, 0.18335, 0.06973, 0.9111,
 14:09:20.244,e3:ca:2d:fd:e0:8c, 2015-01-01 00:32:13.800, 0.971, 0.063, 0.305, 0, 0, 0.061, 12.063, -72.125, 150.546, -25.367, -11.500, -11.033, 29.77, 0.14444, 0.58777, -0.06659, 0.79315,
 14:09:20.244,e3:ca:2d:fd:e0:8c, 2015-01-01 00:32:13.800, 0.972, 0.062, 0.305, 0.061, 0, 0.061, 12.057, -72.131, 150.546, -25.367, -11.500, -11.033, 29.77, 0.14444, 0.58777, -0.06659, 0.79315,
 14:09:20.250,f6:90:cc:01:6d:25, 2015-01-01 00:32:11.425, 0.857, 0.199, 0.449, 0, 0, 0.061, 24.044, -59.947, -173.979, -25.447, -14.913, -8.507, 32.38, -0.14917, 0.47818, 0.20639, 0.84048,
 14:09:20.250,f6:90:cc:01:6d:25, 2015-01-01 00:32:11.425, 0.857, 0.198, 0.45, 0, 0.061, 0.122, 24.038, -59.952, -173.985, -25.447, -14.913, -8.507, 32.38, -0.14917, 0.47818, 0.20639, 0.84048,
 14:09:20.270,ed:40:fe:65:30:6c, 2015-01-01 00:32:24.600, 0.384, -0.008, 0.925, 0.488, 0.061, 0.183, -0.308, -22.61, -136.373, -12.987, -9.053, -8.847, 26.21, -0.3624, 0.18335, 0.06973, 0.9111,
 14:09:20.270,ed:40:fe:65:30:6c, 2015-01-01 00:32:24.600, 0.383, -0.013, 0.924, 0.427, 0.122, 0.305, -0.308, -22.61, -136.362, -12.987, -9.053, -8.847, 26.21, -0.3624, 0.18335, 0.06973, 0.9111,
 14:09:20.274,e3:ca:2d:fd:e0:8c, 2015-01-01 00:32:14.125, 0.971, 0.063, 0.307, 0.061, 0, 0.061, 12.052, -72.131, 150.54, -25.367, -11.500, -11.033, 29.77, 0.14444, 0.58777, -0.06659, 0.79315,
 14:09:20.274,e3:ca:2d:fd:e0:8c, 2015-01-01 00:32:14.125, 0.969, 0.063, 0.306, 0.122, 0.061, 0, 12.052, -72.131, 150.54, -25.367, -11.500, -11.033, 29.77, 0.14444, 0.58777, -0.06659, 0.79315,
 14:09:20.276,ed:35:33:d3:6c:f8, 2015-01-01 00:32:12.775, 0.468, 0.016, 0.878, 0.366, 0.916, 0.366, 0.956, -28.328, 160.461, -13.173, -10.520, -30.787, 31, -0.16534, -0.24478, 0.0351, -0.95468,
 14:09:20.276,ed:35:33:d3:6c:f8, 2015-01-01 00:32:12.775, 0.467, 0.015, 0.875, 0.061, 1.465, 0.061, 0.956, -28.306, 160.466, -13.173, -10.520, -30.787, 31, -0.16534, -0.24478, 0.0351, -0.95468,
 14:09:20.280,f6:90:cc:01:6d:25, 2015-01-01 00:32:11.425, 0.855, 0.198, 0.451, 0.061, 0.122, 0, 24.033, -59.952, -173.99, -25.460, -14.767, -8.000, 32.38, -0.14917, 0.47818, 0.20639, 0.84048,
 14:09:20.280,f6:90:cc:01:6d:25, 2015-01-01 00:32:11.425, 0.854, 0.196, 0.45, 0.122, 0.122, 0, 24.033, -59.952, -174.001, -25.460, -14.767, -8.000, 32.38, -0.14917, 0.47818, 0.20639, 0.84048,
 14:09:20.303,e3:ca:2d:fd:e0:8c, 2015-01-01 00:32:14.125, 0.967, 0.063, 0.306, 0.061, 0, 0, 12.047, -72.131, 150.535, -25.367, -11.500, -11.033, 29.77, 0.14444, 0.58777, -0.06659, 0.79315,
 14:09:20.303,e3:ca:2d:fd:e0:8c, 2015-01-01 00:32:14.125, 0.969, 0.062, 0.305, 0.183, -0.122, 0, 12.047, -72.136, 150.529, -25.367, -11.500, -11.033, 29.77, 0.14444, 0.58777, -0.06659, 0.79315,
 14:09:20.306,ed:35:33:d3:6c:f8, 2015-01-01 00:32:12.775, 0.465, 0.013, 0.876, 0.061, 2.563, 0.122, 0.956, -28.262, 160.472, -12.873, -10.727, -31.147, 31, -0.16534, -0.24478, 0.0351, -0.95468,
 14:09:20.306,ed:35:33:d3:6c:f8, 2015-01-01 00:32:12.775, 0.459, 0.013, 0.879, -0.244, 2.625, 0.183, 0.95, -28.213, 160.477, -12.873, -10.727, -31.147, 31, -0.16534, -0.24478, 0.0351, -0.95468,
 14:09:20.330,ed:40:fe:65:30:6c, 2015-01-01 00:32:24.600, 0.381, -0.014, 0.925, 0.244, 0.183, 0.244, -0.308, -22.604, -136.351, -12.987, -9.053, -8.847, 26.21, -0.3624, 0.18335, 0.06973, 0.9111,
 14:09:20.330,ed:40:fe:65:30:6c, 2015-01-01 00:32:24.600, 0.384, -0.012, 0.925, 0.244, 0.122, 0.122, -0.308, -22.604, -136.34, -12.987, -9.053, -8.847, 26.21, -0.3624, 0.18335, 0.06973, 0.9111,
 14:09:20.341,f6:90:cc:01:6d:25, 2015-01-01 00:32:11.425, 0.853, 0.198, 0.45, 0, 0.061, 0, 24.033, -59.952, -174.007, -25.460, -14.767, -8.000, 32.38, -0.14917, 0.47818, 0.20639, 0.84048,
 14:09:20.341,f6:90:cc:01:6d:25, 2015-01-01 00:32:11.425, 0.858, 0.197, 0.45, 0, -0.061, 0, 24.027, -59.958, -174.018, -25.460, -14.767, -8.000, 32.38, -0.14917, 0.47818, 0.20639, 0.84048,
 14:09:20.360,ed:40:fe:65:30:6c, 2015-01-01 00:32:24.600, 0.392, -0.008, 0.924, 0.244, 0.122, 0.061, -0.308, -22.599, -136.335, -12.987, -9.053, -8.847, 26.21, -0.36404, 0.18292, 0.0704, 0.91046,
 14:09:20.360,ed:40:fe:65:30:6c, 2015-01-01 00:32:24.600, 0.388, -0.006, 0.922, 0.366, 0.427, 0.122, -0.308, -22.593, -136.329, -12.987, -9.053, -8.847, 26.21, -0.36404, 0.18292, 0.0704, 0.91046,
 14:09:20.363,e3:ca:2d:fd:e0:8c, 2015-01-01 00:32:14.125, 0.974, 0.063, 0.305, 0.061, -0.244, 0, 12.052, -72.142, 150.518, -25.367, -11.500, -11.033, 29.77, 0.14444, 0.58777, -0.06659, 0.79315,
 14:09:20.363,e3:ca:2d:fd:e0:8c, 2015-01-01 00:32:14.125, 0.977, 0.064, 0.305, 0.122, -0.183, 0, 12.052, -72.142, 150.513, -25.367, -11.500, -11.033, 29.77, 0.14444, 0.58777, -0.06659, 0.79315,
 14:09:20.366,ed:35:33:d3:6c:f8, 2015-01-01 00:32:12.775, 0.465, 0.013, 0.88, 0, 2.991, 0.305, 0.945, -28.152, 160.488, -12.873, -10.727, -31.147, 31, -0.16534, -0.24478, 0.0351, -0.95468,
 14:09:20.366,ed:35:33:d3:6c:f8, 2015-01-01 00:32:12.775, 0.473, 0.017, 0.876, -0.244, 2.747, 0.061, 0.945, -28.098, 160.499, -12.873, -10.727, -31.147, 31, -0.16534, -0.24478, 0.0351, -0.95468,
 14:09:20.370,f6:90:cc:01:6d:25, 2015-01-01 00:32:11.425, 0.862, 0.2, 0.45, 0.244, -0.122, 0, 24.033, -59.958, -174.029, -25.460, -14.767, -8.000, 32.38, -0.14807, 0.47864, 0.20557, 0.84061,
 14:09:20.370,f6:90:cc:01:6d:25, 2015-01-01 00:32:11.425, 0.857, 0.198, 0.449, 0.488, -0.061, 0, 24.038, -59.963, -174.04, -25.460, -14.767, -8.000, 32.38, -0.14807, 0.47864, 0.20557, 0.84061,
 14:09:20.394,e3:ca:2d:fd:e0:8c, 2015-01-01 00:32:14.125, 0.968, 0.062, 0.303, 0.244, -0.061, 0, 12.052, -72.147, 150.502, -25.367, -11.500, -11.033, 29.77, 0.14444, 0.58777, -0.06659, 0.79315,
 14:09:20.394,e3:ca:2d:fd:e0:8c, 2015-01-01 00:32:14.125, 0.969, 0.063, 0.303, 0.122, -0.061, 0, 12.052, -72.147, 150.496, -25.367, -11.500, -11.033, 29.77, 0.14444, 0.58777, -0.06659, 0.79315,
 14:09:20.396,ed:35:33:d3:6c:f8, 2015-01-01 00:32:12.775, 0.462, 0.018, 0.877, -0.305, 2.869, -0.122, 0.939, -28.043, 160.505, -12.873, -10.727, -31.147, 31, -0.16226, -0.24048, 0.0332, -0.95636,
 14:09:20.396,ed:35:33:d3:6c:f8, 2015-01-01 00:32:12.775, 0.458, 0.015, 0.882, 0.061, 2.869, 0.488, 0.934, -27.982, 160.521, -12.873, -10.727, -31.147, 31, -0.16226, -0.24048, 0.0332, -0.95636,
 14:09:20.400,f6:90:cc:01:6d:25, 2015-01-01 00:32:11.425, 0.852, 0.196, 0.446, 0.244, 0.122, 0, 24.038, -59.963, -174.051, -25.460, -14.767, -8.000, 32.38, -0.14807, 0.47864, 0.20557, 0.84061,
 14:09:20.400,f6:90:cc:01:6d:25, 2015-01-01 00:32:11.425, 0.858, 0.204, 0.45, 0, -0.061, 0, 24.038, -59.969, -174.062, -25.460, -14.767, -8.000, 32.38, -0.14807, 0.47864, 0.20557, 0.84061,
 14:09:20.420,ed:40:fe:65:30:6c, 2015-01-01 00:32:24.600, 0.38, -0.012, 0.925, 0.305, 0.488, 0.488, -0.308, -22.582, -136.313, -12.987, -9.053, -8.847, 26.21, -0.36404, 0.18292, 0.0704, 0.91046,
 14:09:20.420,ed:40:fe:65:30:6c, 2015-01-01 00:32:24.600, 0.387, -0.009, 0.925, 0.183, 0.122, 0.488, -0.308, -22.582, -136.296, -12.987, -9.053, -8.847, 26.21, -0.36404, 0.18292, 0.0704, 0.91046,
 14:09:20.424,e3:ca:2d:fd:e0:8c, 2015-01-01 00:32:14.125, 0.976, 0.066, 0.304, 0.061, -0.244, 0, 12.052, -72.153, 150.491, -25.367, -11.500, -11.033, 29.77, 0.14444, 0.58777, -0.06659, 0.79315,
 14:09:20.424,e3:ca:2d:fd:e0:8c, 2015-01-01 00:32:14.125, 0.975, 0.065, 0.304, 0, -0.183, 0, 12.052, -72.158, 150.48, -25.367, -11.500, -11.033, 29.77, 0.14444, 0.58777, -0.06659, 0.79315,
 14:09:20.426,ed:35:33:d3:6c:f8, 2015-01-01 00:32:12.775, 0.466, 0.014, 0.882, -0.122, 1.343, 0.61, 0.928, -27.944, 160.543, -12.873, -10.727, -31.147, 31, -0.16226, -0.24048, 0.0332, -0.95636,
 14:09:20.426,ed:35:33:d3:6c:f8, 2015-01-01 00:32:12.775, 0.466, 0.011, 0.881, 0.061, 2.136, -0.305, 0.923, -27.905, 160.565, -12.873, -10.727, -31.147, 31, -0.16226, -0.24048, 0.0332, -0.95636,
 14:09:20.450,ed:40:fe:65:30:6c, 2015-01-01 00:32:25.020, 0.391, -0.006, 0.922, 0.244, 0.305, 0, -0.308, -22.577, -136.291, -12.987, -9.053, -8.847, 26.21, -0.36404, 0.18292, 0.0704, 0.91046,
 14:09:20.450,ed:40:fe:65:30:6c, 2015-01-01 00:32:25.020, 0.384, -0.012, 0.927, 0.244, 0.305, -0.183, -0.308, -22.571, -136.285, -12.987, -9.053, -8.847, 26.21, -0.36404, 0.18292, 0.0704, 0.91046,
 14:09:20.456,ed:35:33:d3:6c:f8, 2015-01-01 00:32:13.190, 0.459, 0.015, 0.885, 0.61, 1.526, -1.099, 0.939, -27.872, 160.571, -12.873, -10.727, -31.147, 31, -0.16226, -0.24048, 0.0332, -0.95636,
 14:09:20.456,ed:35:33:d3:6c:f8, 2015-01-01 00:32:13.190, 0.464, 0.014, 0.888, 1.282, -0.122, 0, 0.961, -27.856, 160.576, -12.873, -10.727, -31.147, 31, -0.16226, -0.24048, 0.0332, -0.95636,
 14:09:20.459,f6:90:cc:01:6d:25, 2015-01-01 00:32:11.785, 0.863, 0.203, 0.448, 0.061, 0, 0, 24.038, -59.969, -174.073, -25.460, -14.767, -8.000, 32.38, -0.14807, 0.47864, 0.20557, 0.84061,
 14:09:20.459,f6:90:cc:01:6d:25, 2015-01-01 00:32:11.785, 0.858, 0.195, 0.449, 0.244, -0.061, 0, 24.044, -59.974, -174.078, -25.460, -14.767, -8.000, 32.38, -0.14807, 0.47864, 0.20557, 0.84061,
 14:09:20.480,ed:40:fe:65:30:6c, 2015-01-01 00:32:25.020, 0.386, -0.013, 0.93, 0.427, 0.244, 0.122, -0.302, -22.566, -136.28, -12.987, -9.053, -8.847, 26.21, -0.36404, 0.18292, 0.0704, 0.91046,
 14:09:20.480,ed:40:fe:65:30:6c, 2015-01-01 00:32:25.020, 0.389, -0.013, 0.927, 0.61, 0.305, 0.122, -0.297, -22.56, -136.274, -12.987, -9.053, -8.847, 26.21, -0.36404, 0.18292, 0.0704, 0.91046,
 14:09:20.487,e3:ca:2d:fd:e0:8c, 2015-01-01 00:32:14.125, 0.971, 0.06, 0.302, 0.183, -0.122, 0, 12.057, -72.164, 150.474, -25.367, -11.500, -11.033, 29.77, 0.14444, 0.58777, -0.06659, 0.79315,
 14:09:20.487,e3:ca:2d:fd:e0:8c, 2015-01-01 00:32:14.125, 0.974, 0.064, 0.3, 0.183, -0.244, 0, 12.057, -72.169, 150.469, -25.367, -11.500, -11.033, 29.77, 0.14444, 0.58777, -0.06659, 0.79315,
 14:09:20.491,f6:90:cc:01:6d:25, 2015-01-01 00:32:11.785, 0.858, 0.197, 0.446, 0, -0.122, 0, 24.044, -59.98, -174.089, -25.460, -14.767, -8.000, 32.38, -0.14807, 0.47864, 0.20557, 0.84061,
 14:09:20.491,f6:90:cc:01:6d:25, 2015-01-01 00:32:11.785, 0.859, 0.2, 0.446, 0, -0.122, 0, 24.044, -59.985, -174.1, -25.460, -14.767, -8.000, 32.38, -0.14807, 0.47864, 0.20557, 0.84061,
 14:09:20.514,e3:ca:2d:fd:e0:8c, 2015-01-01 00:32:14.125, 0.972, 0.065, 0.301, 0.244, -0.244, 0, 12.063, -72.175, 150.458, -25.067, -11.413, -11.373, 29.77, 0.14444, 0.58777, -0.06659, 0.79315,
 14:09:20.514,e3:ca:2d:fd:e0:8c, 2015-01-01 00:32:14.125, 0.969, 0.064, 0.302, 0.122, -0.183, -0.305, 12.079, -72.18, 150.441, -25.067, -11.413, -11.373, 29.77, 0.14444, 0.58777, -0.06659, 0.79315,
 14:09:20.516,ed:35:33:d3:6c:f8, 2015-01-01 00:32:13.190, 0.464, 0.008, 0.884, 0.732, -0.427, -0.122, 0.983, -27.861, 160.593, -12.873, -10.727, -31.147, 31, -0.16226, -0.24048, 0.0332, -0.95636,
 14:09:20.516,ed:35:33:d3:6c:f8, 2015-01-01 00:32:13.190, 0.462, 0.013, 0.883, 0.366, -0.61, -0.549, 0.994, -27.872, 160.587, -12.873, -10.727, -31.147, 31, -0.16226, -0.24048, 0.0332, -0.95636,
 14:09:20.519,f6:90:cc:01:6d:25, 2015-01-01 00:32:11.785, 0.857, 0.198, 0.446, 0, -0.122, -0.305, 24.049, -59.985, -174.122, -25.460, -14.767, -8.000, 32.38, -0.14807, 0.47864, 0.20557, 0.84061,
 14:09:20.519,f6:90:cc:01:6d:25, 2015-01-01 00:32:11.785, 0.854, 0.197, 0.447, -0.061, -0.183, -0.488, 24.066, -59.991, -174.15, -25.460, -14.767, -8.000, 32.38, -0.14807, 0.47864, 0.20557, 0.84061,
 14:09:20.540,ed:40:fe:65:30:6c, 2015-01-01 00:32:25.020, 0.387, -0.013, 0.925, 0.244, 0, -0.244, -0.297, -22.56, -136.269, -12.987, -9.053, -8.847, 26.21, -0.36404, 0.18292, 0.0704, 0.91046,
 14:09:20.540,ed:40:fe:65:30:6c, 2015-01-01 00:32:25.020, 0.381, -0.012, 0.923, 0.061, -0.183, -0.549, -0.291, -22.566, -136.274, -12.987, -9.053, -8.847, 26.21, -0.36404, 0.18292, 0.0704, 0.91046,
 14:09:20.544,e3:ca:2d:fd:e0:8c, 2015-01-01 00:32:14.125, 0.967, 0.063, 0.302, 0.061, -0.305, -0.366, 12.101, -72.186, 150.408, -25.067, -11.413, -11.373, 29.77, 0.14444, 0.58777, -0.06659, 0.79315,
 14:09:20.544,e3:ca:2d:fd:e0:8c, 2015-01-01 00:32:14.125, 0.969, 0.062, 0.303, 0.122, -0.549, -0.305, 12.129, -72.197, 150.375, -25.067, -11.413, -11.373, 29.77, 0.14444, 0.58777, -0.06659, 0.79315,
 14:09:20.546,ed:35:33:d3:6c:f8, 2015-01-01 00:32:13.190, 0.457, 0.012, 0.879, -0.488, -1.16, -0.916, 1, -27.889, 160.554, -12.873, -10.727, -31.147, 31, -0.16226, -0.24048, 0.0332, -0.95636,
 14:09:20.546,ed:35:33:d3:6c:f8, 2015-01-01 00:32:13.190, 0.457, 0.014, 0.883, 0.183, -1.77, -0.854, 1.005, -27.911, 160.543, -12.873, -10.727, -31.147, 31, -0.16226, -0.24048, 0.0332, -0.95636,
 14:09:20.571,ed:40:fe:65:30:6c, 2015-01-01 00:32:25.020, 0.38, -0.012, 0.924, 0.244, -0.122, -0.488, -0.291, -22.571, -136.28, -12.987, -9.053, -8.847, 26.21, -0.36404, 0.18292, 0.0704, 0.91046,
 14:09:20.571,ed:40:fe:65:30:6c, 2015-01-01 00:32:25.020, 0.382, -0.014, 0.924, 0.366, -0.122, -0.366, -0.286, -22.571, -136.285, -12.987, -9.053, -8.847, 26.21, -0.36404, 0.18292, 0.0704, 0.91046,
 14:09:20.577,ed:35:33:d3:6c:f8, 2015-01-01 00:32:13.190, 0.46, 0.013, 0.879, 1.892, -0.366, -0.549, 1.033, -27.933, 160.554, -12.873, -10.727, -31.147, 31, -0.16226, -0.24048, 0.0332, -0.95636,
 14:09:20.577,ed:35:33:d3:6c:f8, 2015-01-01 00:32:13.190, 0.46, 0.014, 0.883, 0.122, -0.427, -0.549, 1.055, -27.933, 160.565, -12.873, -10.727, -31.147, 31, -0.16226, -0.24048, 0.0332, -0.95636,
 14:09:20.581,f6:90:cc:01:6d:25, 2015-01-01 00:32:11.785, 0.854, 0.196, 0.449, -0.061, -0.244, -0.549, 24.082, -59.991, -174.183, -25.460, -14.767, -8.000, 32.38, -0.14807, 0.47864, 0.20557, 0.84061,
 14:09:20.581,f6:90:cc:01:6d:25, 2015-01-01 00:32:11.785, 0.855, 0.194, 0.45, 0, -0.244, -0.549, 24.099, -59.996, -174.216, -25.460, -14.767, -8.000, 32.38, -0.14807, 0.47864, 0.20557, 0.84061,
 14:09:20.600,ed:40:fe:65:30:6c, 2015-01-01 00:32:25.020, 0.383, -0.013, 0.926, 0.549, -0.366, -0.183, -0.28, -22.577, -136.285, -12.987, -9.053, -8.847, 26.21, -0.36404, 0.18292, 0.0704, 0.91046,
 14:09:20.600,ed:40:fe:65:30:6c, 2015-01-01 00:32:25.020, 0.384, -0.009, 0.925, 0.549, -0.427, -0.061, -0.275, -22.588, -136.28, -12.987, -9.053, -8.847, 26.21, -0.36404, 0.18292, 0.0704, 0.91046,
 14:09:20.604,e3:ca:2d:fd:e0:8c, 2015-01-01 00:32:14.125, 0.97, 0.06, 0.305, 0.183, -0.671, -0.366, 12.156, -72.208, 150.342, -25.067, -11.413, -11.373, 29.77, 0.14444, 0.58777, -0.06659, 0.79315,
 14:09:20.604,e3:ca:2d:fd:e0:8c, 2015-01-01 00:32:14.125, 0.972, 0.06, 0.307, 0.305, -0.549, -0.427, 12.184, -72.219, 150.304, -25.067, -11.413, -11.373, 29.77, 0.14444, 0.58777, -0.06659, 0.79315,
 14:09:20.611,f6:90:cc:01:6d:25, 2015-01-01 00:32:11.785, 0.855, 0.195, 0.451, 0.061, -0.183, -0.549, 24.115, -59.996, -174.249, -25.460, -14.767, -8.000, 32.38, -0.14807, 0.47864, 0.20557, 0.84061,
 14:09:20.611,f6:90:cc:01:6d:25, 2015-01-01 00:32:11.785, 0.857, 0.196, 0.452, 0.305, -0.122, -0.488, 24.131, -59.996, -174.276, -25.460, -14.767, -8.000, 32.38, -0.14807, 0.47864, 0.20557, 0.84061,
 14:09:20.633,e3:ca:2d:fd:e0:8c, 2015-01-01 00:32:14.125, 0.972, 0.061, 0.305, 0.549, -0.61, -0.305, 12.217, -72.23, 150.271, -25.067, -11.413, -11.373, 29.77, 0.14532, 0.58838, -0.06723, 0.79251,
 14:09:20.633,e3:ca:2d:fd:e0:8c, 2015-01-01 00:32:14.125, 0.974, 0.062, 0.304, 0.61, -0.61, -0.244, 12.244, -72.241, 150.238, -25.067, -11.413, -11.373, 29.77, 0.14532, 0.58838, -0.06723, 0.79251,
 14:09:20.637,ed:35:33:d3:6c:f8, 2015-01-01 00:32:13.190, 0.464, 0.02, 0.882, 0, -1.465, -0.671, 1.06, -27.949, 160.56, -12.873, -10.727, -31.147, 31, -0.16226, -0.24048, 0.0332, -0.95636,
 14:09:20.637,ed:35:33:d3:6c:f8, 2015-01-01 00:32:13.190, 0.463, 0.021, 0.879, 0, -1.282, -0.488, 1.066, -27.971, 160.56, -12.873, -10.727, -31.147, 31, -0.16226, -0.24048, 0.0332, -0.95636,
 14:09:20.639,f6:90:cc:01:6d:25, 2015-01-01 00:32:11.785, 0.858, 0.197, 0.451, 0.549, -0.183, -0.366, 24.153, -60.002, -174.298, -25.680, -15.180, -6.753, 32.38, -0.14807, 0.47864, 0.20557, 0.84061,
 14:09:20.639,f6:90:cc:01:6d:25, 2015-01-01 00:32:11.785, 0.856, 0.2, 0.45, 0.549, -0.122, -0.244, 24.17, -60.002, -174.32, -25.680, -15.180, -6.753, 32.38, -0.14807, 0.47864, 0.20557, 0.84061,
 14:09:20.660,ed:40:fe:65:30:6c, 2015-01-01 00:32:25.020, 0.384, -0.008, 0.925, 0.488, -0.244, 0.061, -0.269, -22.593, -136.274, -12.987, -9.053, -8.847, 26.21, -0.36404, 0.18292, 0.0704, 0.91046,
 14:09:20.660,ed:40:fe:65:30:6c, 2015-01-01 00:32:25.020, 0.385, -0.005, 0.926, 0.61, -0.244, 0.305, -0.264, -22.593, -136.263, -12.987, -9.053, -8.847, 26.21, -0.36404, 0.18292, 0.0704, 0.91046,
 14:09:20.665,e3:ca:2d:fd:e0:8c, 2015-01-01 00:32:14.125, 0.97, 0.065, 0.302, 0.61, -0.671, -0.061, 12.266, -72.252, 150.216, -25.067, -11.413, -11.373, 29.77, 0.14532, 0.58838, -0.06723, 0.79251,
 14:09:20.665,e3:ca:2d:fd:e0:8c, 2015-01-01 00:32:14.125, 0.969, 0.067, 0.302, 0.488, -0.549, 0.061, 12.277, -72.263, 150.2, -25.067, -11.413, -11.373, 29.77, 0.14532, 0.58838, -0.06723, 0.79251,
 14:09:20.667,ed:35:33:d3:6c:f8, 2015-01-01 00:32:13.190, 0.461, 0.023, 0.882, -0.183, -0.427, 0, 1.066, -27.982, 160.565, -12.927, -10.580, -31.633, 31, -0.16226, -0.24048, 0.0332, -0.95636,
 14:09:20.667,ed:35:33:d3:6c:f8, 2015-01-01 00:32:13.190, 0.465, 0.018, 0.877, 0.793, 0, -0.061, 1.077, -27.982, 160.571, -12.927, -10.580, -31.633, 31, -0.16226, -0.24048, 0.0332, -0.95636,
 14:09:20.690,ed:40:fe:65:30:6c, 2015-01-01 00:32:25.020, 0.383, -0.001, 0.923, 0.793, 0, 0.427, -0.253, -22.593, -136.252, -12.887, -9.000, -8.947, 26.21, -0.36404, 0.18292, 0.0704, 0.91046,
 14:09:20.690,ed:40:fe:65:30:6c, 2015-01-01 00:32:25.020, 0.387, -0.006, 0.923, 0.732, -0.061, 0.366, -0.247, -22.593, -136.236, -12.887, -9.000, -8.947, 26.21, -0.36404, 0.18292, 0.0704, 0.91046,
 14:09:20.696,ed:35:33:d3:6c:f8, 2015-01-01 00:32:13.190, 0.465, 0.023, 0.877, 1.526, 0.61, 0.244, 1.104, -27.966, 160.604, -12.927, -10.580, -31.633, 31, -0.16226, -0.24048, 0.0332, -0.95636,
 14:09:20.696,ed:35:33:d3:6c:f8, 2015-01-01 00:32:13.190, 0.463, 0.023, 0.876, 0, 0.549, -0.427, 1.115, -27.955, 160.648, -12.927, -10.580, -31.633, 31, -0.16226, -0.24048, 0.0332, -0.95636,
 14:09:20.700,f6:90:cc:01:6d:25, 2015-01-01 00:32:11.785, 0.853, 0.205, 0.448, 0.671, -0.122, -0.122, 24.181, -60.007, -174.337, -25.680, -15.180, -6.753, 32.38, -0.14807, 0.47864, 0.20557, 0.84061,
 14:09:20.700,f6:90:cc:01:6d:25, 2015-01-01 00:32:11.785, 0.856, 0.204, 0.445, 0.793, 0, 0, 24.197, -60.007, -174.342, -25.680, -15.180, -6.753, 32.38, -0.14807, 0.47864, 0.20557, 0.84061,
 14:09:20.721,ed:40:fe:65:30:6c, 2015-01-01 00:32:25.020, 0.384, -0.005, 0.921, 0.427, -0.122, 0, -0.242, -22.599, -136.236, -12.887, -9.000, -8.947, 26.21, -0.36404, 0.18292, 0.0704, 0.91046,
 14:09:20.721,ed:40:fe:65:30:6c, 2015-01-01 00:32:25.020, 0.389, -0.003, 0.923, 0.549, -0.183, 0.122, -0.231, -22.604, -136.225, -12.887, -9.000, -8.947, 26.21, -0.36404, 0.18292, 0.0704, 0.91046,
 14:09:20.723,e3:ca:2d:fd:e0:8c, 2015-01-01 00:32:14.545, 0.972, 0.067, 0.3, 0.488, -0.61, 0, 12.288, -72.279, 150.189, -25.067, -11.413, -11.373, 29.77, 0.14532, 0.58838, -0.06723, 0.79251,
 14:09:20.723,e3:ca:2d:fd:e0:8c, 2015-01-01 00:32:14.545, 0.972, 0.067, 0.301, 0.549, -0.488, -0.122, 12.31, -72.29, 150.172, -25.067, -11.413, -11.373, 29.77, 0.14532, 0.58838, -0.06723, 0.79251,
 14:09:20.730,f6:90:cc:01:6d:25, 2015-01-01 00:32:11.785, 0.854, 0.205, 0.447, 0.671, -0.183, 0, 24.208, -60.013, -174.353, -25.680, -15.180, -6.753, 32.38, -0.14642, 0.4794, 0.20535, 0.84052,
 14:09:20.730,f6:90:cc:01:6d:25, 2015-01-01 00:32:11.785, 0.86, 0.205, 0.446, 0.427, -0.244, 0, 24.225, -60.018, -174.364, -25.680, -15.180, -6.753, 32.38, -0.14642, 0.4794, 0.20535, 0.84052,
 14:09:20.754,e3:ca:2d:fd:e0:8c, 2015-01-01 00:32:14.545, 0.977, 0.07, 0.298, 0.427, -0.61, 0, 12.327, -72.301, 150.156, -25.067, -11.413, -11.373, 29.77, 0.14532, 0.58838, -0.06723, 0.79251,
 14:09:20.754,e3:ca:2d:fd:e0:8c, 2015-01-01 00:32:14.545, 0.977, 0.071, 0.297, 0.244, -0.61, 0, 12.338, -72.312, 150.145, -25.067, -11.413, -11.373, 29.77, 0.14532, 0.58838, -0.06723, 0.79251,
 14:09:20.756,ed:35:33:d3:6c:f8, 2015-01-01 00:32:13.190, 0.47, 0.022, 0.88, -0.305, 0.671, 0.061, 1.11, -27.938, 160.697, -12.927, -10.580, -31.633, 31, -0.16077, -0.23965, 0.03125, -0.95688,
 14:09:20.756,ed:35:33:d3:6c:f8, 2015-01-01 00:32:13.190, 0.473, 0.017, 0.88, -0.061, 0.549, -0.305, 1.115, -27.922, 160.73, -12.927, -10.580, -31.633, 31, -0.16077, -0.23965, 0.03125, -0.95688,
 14:09:20.760,f6:90:cc:01:6d:25, 2015-01-01 00:32:11.785, 0.862, 0.206, 0.444, 0.305, -0.305, 0, 24.236, -60.024, -174.38, -25.680, -15.180, -6.753, 32.38, -0.14642, 0.4794, 0.20535, 0.84052,
 14:09:20.760,f6:90:cc:01:6d:25, 2015-01-01 00:32:11.785, 0.861, 0.207, 0.443, 0.244, -0.366, -0.061, 24.247, -60.035, -174.397, -25.680, -15.180, -6.753, 32.38, -0.14642, 0.4794, 0.20535, 0.84052,
 14:09:20.780,ed:40:fe:65:30:6c, 2015-01-01 00:32:25.020, 0.394, -0.005, 0.924, 0.305, -0.061, 0.061, -0.231, -22.604, -136.219, -12.887, -9.000, -8.947, 26.21, -0.36514, 0.18259, 0.07117, 0.91003,
 14:09:20.780,ed:40:fe:65:30:6c, 2015-01-01 00:32:25.020, 0.392, -0.002, 0.922, 0.366, 0.122, -0.183, -0.225, -22.604, -136.219, -12.887, -9.000, -8.947, 26.21, -0.36514, 0.18259, 0.07117, 0.91003,
 14:09:20.784,e3:ca:2d:fd:e0:8c, 2015-01-01 00:32:14.545, 0.974, 0.07, 0.297, 0.122, -0.488, 0, 12.354, -72.323, 150.134, -25.067, -11.413, -11.373, 29.77, 0.14532, 0.58838, -0.06723, 0.79251,
 14:09:20.784,e3:ca:2d:fd:e0:8c, 2015-01-01 00:32:14.545, 0.971, 0.066, 0.297, 0.122, -0.366, -0.061, 12.365, -72.334, 150.123, -25.067, -11.413, -11.373, 29.77, 0.14532, 0.58838, -0.06723, 0.79251,
 14:09:20.786,ed:35:33:d3:6c:f8, 2015-01-01 00:32:13.520, 0.464, 0.018, 0.878, -0.427, 1.099, -1.221, 1.121, -27.905, 160.746, -12.927, -10.580, -31.633, 31, -0.16077, -0.23965, 0.03125, -0.95688,
 14:09:20.786,ed:35:33:d3:6c:f8, 2015-01-01 00:32:13.520, 0.466, 0.022, 0.882, 0, 0.61, -0.854, 1.126, -27.889, 160.768, -12.927, -10.580, -31.633, 31, -0.16077, -0.23965, 0.03125, -0.95688,
 14:09:20.819,f6:90:cc:01:6d:25, 2015-01-01 00:32:12.140, 0.857, 0.203, 0.442, 0.244, -0.244, -0.183, 24.263, -60.04, -174.413, -25.680, -15.180, -6.753, 32.38, -0.14642, 0.4794, 0.20535, 0.84052,
 14:09:20.819,f6:90:cc:01:6d:25, 2015-01-01 00:32:12.140, 0.856, 0.202, 0.442, 0.122, -0.183, -0.122, 24.28, -60.046, -174.43, -25.680, -15.180, -6.753, 32.38, -0.14642, 0.4794, 0.20535, 0.84052,
 14:09:20.839,ed:40:fe:65:30:6c, 2015-01-01 00:32:25.405, 0.388, -0.005, 0.925, 0.305, -0.061, -0.427, -0.214, -22.604, -136.225, -12.887, -9.000, -8.947, 26.21, -0.36514, 0.18259, 0.07117, 0.91003,
 14:09:20.839,ed:40:fe:65:30:6c, 2015-01-01 00:32:25.405, 0.385, -0.004, 0.923, 0.549, -0.061, -0.366, -0.203, -22.61, -136.23, -12.887, -9.000, -8.947, 26.21, -0.36514, 0.18259, 0.07117, 0.91003,
 14:09:20.841,ed:40:fe:65:30:6c, 2015-01-01 00:32:25.405, 0.386, -0.001, 0.924, 0.916, -0.183, -0.061, -0.187, -22.615, -136.225, -12.887, -9.000, -8.947, 26.21, -0.36514, 0.18259, 0.07117, 0.91003,
 14:09:20.841,ed:40:fe:65:30:6c, 2015-01-01 00:32:25.405, 0.385, -0.005, 0.922, 0.854, -0.183, 0.061, -0.17, -22.621, -136.219, -12.887, -9.000, -8.947, 26.21, -0.36514, 0.18259, 0.07117, 0.91003,
 14:09:20.843,e3:ca:2d:fd:e0:8c, 2015-01-01 00:32:14.545, 0.972, 0.066, 0.297, 0.183, -0.305, -0.061, 12.382, -72.339, 150.106, -25.067, -11.413, -11.373, 29.77, 0.14532, 0.58838, -0.06723, 0.79251,
 14:09:20.843,e3:ca:2d:fd:e0:8c, 2015-01-01 00:32:14.545, 0.971, 0.066, 0.299, 0.122, -0.305, 0.122, 12.387, -72.345, 150.106, -25.067, -11.413, -11.373, 29.77, 0.14532, 0.58838, -0.06723, 0.79251,
 14:09:20.845,ed:35:33:d3:6c:f8, 2015-01-01 00:32:13.520, 0.461, 0.031, 0.876, 4.028, 2.075, 0.671, 1.187, -27.856, 160.818, -12.927, -10.580, -31.633, 31, -0.16077, -0.23965, 0.03125, -0.95688,
 14:09:20.845,ed:35:33:d3:6c:f8, 2015-01-01 00:32:13.520, 0.461, 0.027, 0.88, 0.061, 0.122, -0.183, 1.208, -27.845, 160.867, -12.927, -10.580, -31.633, 31, -0.16077, -0.23965, 0.03125, -0.95688,
 14:09:20.849,f6:90:cc:01:6d:25, 2015-01-01 00:32:12.140, 0.857, 0.203, 0.445, 0, -0.183, -0.061, 24.285, -60.051, -174.441, -25.680, -15.180, -6.753, 32.38, -0.14642, 0.4794, 0.20535, 0.84052,
 14:09:20.849,f6:90:cc:01:6d:25, 2015-01-01 00:32:12.140, 0.857, 0.199, 0.445, 0.122, -0.122, 0, 24.291, -60.057, -174.452, -25.680, -15.180, -6.753, 32.38, -0.14642, 0.4794, 0.20535, 0.84052,
 14:09:20.874,e3:ca:2d:fd:e0:8c, 2015-01-01 00:32:14.545, 0.973, 0.062, 0.3, 0.183, -0.427, 0.061, 12.393, -72.356, 150.101, -25.067, -11.413, -11.373, 29.77, 0.14532, 0.58838, -0.06723, 0.79251,
 14:09:20.874,e3:ca:2d:fd:e0:8c, 2015-01-01 00:32:14.545, 0.974, 0.062, 0.3, 0.305, -0.427, 0, 12.404, -72.367, 150.09, -25.067, -11.413, -11.373, 29.77, 0.14532, 0.58838, -0.06723, 0.79251,
 14:09:20.875,ed:35:33:d3:6c:f8, 2015-01-01 00:32:13.520, 0.459, 0.019, 0.879, 0.793, 0.61, -0.916, 1.236, -27.834, 160.884, -12.927, -10.580, -31.633, 31, -0.16077, -0.23965, 0.03125, -0.95688,
 14:09:20.875,ed:35:33:d3:6c:f8, 2015-01-01 00:32:13.520, 0.461, 0.021, 0.885, 1.038, 0.122, -0.244, 1.258, -27.828, 160.889, -12.927, -10.580, -31.633, 31, -0.16077, -0.23965, 0.03125, -0.95688,
 14:09:20.880,f6:90:cc:01:6d:25, 2015-01-01 00:32:12.140, 0.858, 0.198, 0.446, 0.061, -0.122, 0.061, 24.291, -60.062, -174.457, -25.680, -15.180, -6.753, 32.38, -0.14642, 0.4794, 0.20535, 0.84052,
 14:09:20.880,f6:90:cc:01:6d:25, 2015-01-01 00:32:12.140, 0.859, 0.2, 0.447, 0.061, -0.122, 0.061, 24.296, -60.068, -174.463, -25.680, -15.180, -6.753, 32.38, -0.14642, 0.4794, 0.20535, 0.84052,
 14:09:20.900,ed:40:fe:65:30:6c, 2015-01-01 00:32:25.405, 0.386, -0.008, 0.924, 0.977, -0.244, 0.244, -0.154, -22.626, -136.214, -12.887, -9.000, -8.947, 26.21, -0.36514, 0.18259, 0.07117, 0.91003,
 14:09:20.900,ed:40:fe:65:30:6c, 2015-01-01 00:32:25.405, 0.387, -0.008, 0.926, 1.099, -0.183, 0.244, -0.137, -22.632, -136.203, -12.887, -9.000, -8.947, 26.21, -0.36514, 0.18259, 0.07117, 0.91003,
 14:09:20.904,e3:ca:2d:fd:e0:8c, 2015-01-01 00:32:14.545, 0.975, 0.063, 0.3, 0.244, -0.427, 0.061, 12.409, -72.378, 150.084, -24.907, -11.727, -11.707, 29.77, 0.14532, 0.58838, -0.06723, 0.79251,
 14:09:20.904,e3:ca:2d:fd:e0:8c, 2015-01-01 00:32:14.545, 0.974, 0.063, 0.301, 0.244, -0.488, 0.061, 12.415, -72.389, 150.079, -24.907, -11.727, -11.707, 29.77, 0.14532, 0.58838, -0.06723, 0.79251,
 14:09:20.907,ed:35:33:d3:6c:f8, 2015-01-01 00:32:13.520, 0.462, 0.019, 0.882, 1.099, 0, -0.122, 1.285, -27.828, 160.9, -12.927, -10.580, -31.633, 31, -0.16077, -0.23965, 0.03125, -0.95688,
 14:09:20.907,ed:35:33:d3:6c:f8, 2015-01-01 00:32:13.520, 0.46, 0.017, 0.878, 0.916, 0.671, -0.366, 1.307, -27.817, 160.928, -12.927, -10.580, -31.633, 31, -0.16077, -0.23965, 0.03125, -0.95688,
 14:09:20.929,ed:40:fe:65:30:6c, 2015-01-01 00:32:25.405, 0.389, -0.009, 0.925, 0.977, -0.244, 0.183, -0.121, -22.637, -136.192, -12.887, -9.000, -8.947, 26.21, -0.36514, 0.18259, 0.07117, 0.91003,
 14:09:20.929,ed:40:fe:65:30:6c, 2015-01-01 00:32:25.405, 0.385, -0.008, 0.924, 0.854, -0.183, 0.122, -0.11, -22.643, -136.187, -12.887, -9.000, -8.947, 26.21, -0.36514, 0.18259, 0.07117, 0.91003,
 14:09:20.936,ed:35:33:d3:6c:f8, 2015-01-01 00:32:13.520, 0.459, 0.022, 0.881, 0.61, 0.61, 0, 1.324, -27.801, 160.961, -12.927, -10.580, -31.633, 31, -0.16077, -0.23965, 0.03125, -0.95688,
 14:09:20.936,ed:35:33:d3:6c:f8, 2015-01-01 00:32:13.520, 0.457, 0.021, 0.881, 1.16, 0.916, 0.183, 1.34, -27.784, 161.01, -12.927, -10.580, -31.633, 31, -0.16077, -0.23965, 0.03125, -0.95688,
 14:09:20.940,f6:90:cc:01:6d:25, 2015-01-01 00:32:12.140, 0.861, 0.199, 0.447, 0.183, -0.122, 0.061, 24.296, -60.073, -174.474, -25.680, -15.180, -6.753, 32.38, -0.14642, 0.4794, 0.20535, 0.84052,
 14:09:20.940,f6:90:cc:01:6d:25, 2015-01-01 00:32:12.140, 0.857, 0.198, 0.448, 0.183, -0.122, 0, 24.302, -60.079, -174.479, -25.680, -15.180, -6.753, 32.38, -0.14642, 0.4794, 0.20535, 0.84052,
 14:09:20.960,ed:40:fe:65:30:6c, 2015-01-01 00:32:25.405, 0.383, -0.006, 0.923, 0.916, -0.061, 0.427, -0.099, -22.643, -136.176, -12.887, -9.000, -8.947, 26.21, -0.36514, 0.18259, 0.07117, 0.91003,
 14:09:20.960,ed:40:fe:65:30:6c, 2015-01-01 00:32:25.405, 0.384, -0.009, 0.923, 0.916, -0.122, 0.61, -0.088, -22.643, -136.159, -12.887, -9.000, -8.947, 26.21, -0.36514, 0.18259, 0.07117, 0.91003,
 14:09:20.964,e3:ca:2d:fd:e0:8c, 2015-01-01 00:32:14.545, 0.97, 0.062, 0.3, 0.244, -0.366, 0.122, 12.415, -72.4, 150.073, -24.907, -11.727, -11.707, 29.77, 0.14532, 0.58838, -0.06723, 0.79251,
 14:09:20.964,e3:ca:2d:fd:e0:8c, 2015-01-01 00:32:14.545, 0.969, 0.06, 0.299, 0.305, -0.366, 0.122, 12.409, -72.405, 150.073, -24.907, -11.727, -11.707, 29.77, 0.14532, 0.58838, -0.06723, 0.79251,
 14:09:20.969,f6:90:cc:01:6d:25, 2015-01-01 00:32:12.140, 0.857, 0.194, 0.447, 0.244, -0.122, 0.061, 24.302, -60.084, -174.49, -25.680, -15.180, -6.753, 32.38, -0.14642, 0.4794, 0.20535, 0.84052,
 14:09:20.969,f6:90:cc:01:6d:25, 2015-01-01 00:32:12.140, 0.861, 0.195, 0.446, 0.671, -0.061, 0.061, 24.307, -60.09, -174.49, -25.680, -15.180, -6.753, 32.38, -0.14642, 0.4794, 0.20535, 0.84052,
 14:09:20.994,e3:ca:2d:fd:e0:8c, 2015-01-01 00:32:14.545, 0.974, 0.061, 0.299, 0.488, -0.305, 0.061, 12.415, -72.416, 150.068, -24.907, -11.727, -11.707, 29.77, 0.14539, 0.58975, -0.06729, 0.79144,
 14:09:20.994,e3:ca:2d:fd:e0:8c, 2015-01-01 00:32:14.545, 0.974, 0.062, 0.298, 0.61, -0.488, 0, 12.426, -72.422, 150.062, -24.907, -11.727, -11.707, 29.77, 0.14539, 0.58975, -0.06729, 0.79144,
 14:09:20.996,ed:35:33:d3:6c:f8, 2015-01-01 00:32:13.520, 0.459, 0.018, 0.884, 0.732, 0.732, 0, 1.357, -27.768, 161.038, -12.927, -10.580, -31.633, 31, -0.16077, -0.23965, 0.03125, -0.95688,
 14:09:20.996,ed:35:33:d3:6c:f8, 2015-01-01 00:32:13.520, 0.46, 0.016, 0.884, 1.282, 0.305, 0, 1.379, -27.757, 161.076, -12.927, -10.580, -31.633, 31, -0.16077, -0.23965, 0.03125, -0.95688,
 14:09:21.000,f6:90:cc:01:6d:25, 2015-01-01 00:32:12.140, 0.855, 0.199, 0.449, 0.854, -0.122, 0, 24.318, -60.095, -174.501, -25.313, -14.560, -8.113, 32.38, -0.14642, 0.4794, 0.20535, 0.84052,
 14:09:21.000,f6:90:cc:01:6d:25, 2015-01-01 00:32:12.140, 0.854, 0.201, 0.443, 0.183, -0.061, -0.122, 24.329, -60.095, -174.507, -25.313, -14.560, -8.113, 32.38, -0.14642, 0.4794, 0.20535, 0.84052,
 14:09:21.019,ed:40:fe:65:30:6c, 2015-01-01 00:32:25.405, 0.388, -0.013, 0.924, 1.099, -0.183, 0.549, -0.077, -22.648, -136.143, -12.887, -9.000, -8.947, 26.21, -0.36514, 0.18259, 0.07117, 0.91003,
 14:09:21.019,ed:40:fe:65:30:6c, 2015-01-01 00:32:25.405, 0.388, -0.01, 0.927, 0.977, -0.244, 0.61, -0.071, -22.654, -136.126, -12.887, -9.000, -8.947, 26.21, -0.36514, 0.18259, 0.07117, 0.91003,
 14:09:21.023,e3:ca:2d:fd:e0:8c, 2015-01-01 00:32:14.545, 0.97, 0.066, 0.299, 0.488, -0.488, 0, 12.437, -72.433, 150.051, -24.907, -11.727, -11.707, 29.77, 0.14539, 0.58975, -0.06729, 0.79144,
 14:09:21.023,e3:ca:2d:fd:e0:8c, 2015-01-01 00:32:14.545, 0.969, 0.067, 0.298, 0.122, -0.366, 0, 12.442, -72.444, 150.04, -24.907, -11.727, -11.707, 29.77, 0.14539, 0.58975, -0.06729, 0.79144,
 14:09:21.025,ed:35:33:d3:6c:f8, 2015-01-01 00:32:13.520, 0.459, 0.021, 0.878, 1.16, 0.366, 0, 1.401, -27.746, 161.115, -12.960, -10.833, -30.473, 31, -0.16077, -0.23965, 0.03125, -0.95688,
 14:09:21.025,ed:35:33:d3:6c:f8, 2015-01-01 00:32:13.520, 0.456, 0.022, 0.878, -0.183, 0.427, -0.244, 1.406, -27.735, 161.142, -12.960, -10.833, -30.473, 31, -0.16077, -0.23965, 0.03125, -0.95688,
 14:09:21.049,ed:40:fe:65:30:6c, 2015-01-01 00:32:25.405, 0.384, -0.006, 0.919, 0.61, -0.366, 0.671, -0.066, -22.665, -136.104, -12.787, -9.060, -8.960, 26.21, -0.36514, 0.18259, 0.07117, 0.91003,
 14:09:21.049,ed:40:fe:65:30:6c, 2015-01-01 00:32:25.405, 0.386, 0.004, 0.92, -0.122, -0.122, 0, -0.077, -22.665, -136.104, -12.787, -9.060, -8.960, 26.21, -0.36514, 0.18259, 0.07117, 0.91003,
 14:09:21.057,ed:35:33:d3:6c:f8, 2015-01-01 00:32:13.520, 0.465, 0.017, 0.879, 1.099, 0.549, -0.366, 1.423, -27.724, 161.186, -12.960, -10.833, -30.473, 31, -0.16077, -0.23965, 0.03125, -0.95688,
 14:09:21.057,ed:35:33:d3:6c:f8, 2015-01-01 00:32:13.520, 0.462, 0.031, 0.88, 1.343, 0.488, -1.038, 1.456, -27.713, 161.224, -12.960, -10.833, -30.473, 31, -0.16077, -0.23965, 0.03125, -0.95688,
 14:09:21.059,f6:90:cc:01:6d:25, 2015-01-01 00:32:12.140, 0.857, 0.209, 0.445, 0.183, -0.122, 0, 24.329, -60.101, -174.518, -25.313, -14.560, -8.113, 32.38, -0.14642, 0.4794, 0.20535, 0.84052,
 14:09:21.059,f6:90:cc:01:6d:25, 2015-01-01 00:32:12.140, 0.863, 0.202, 0.444, 0.061, -0.061, 0.061, 24.335, -60.106, -174.529, -25.313, -14.560, -8.113, 32.38, -0.14642, 0.4794, 0.20535, 0.84052,
 14:09:21.081,ed:40:fe:65:30:6c, 2015-01-01 00:32:25.405, 0.391, -0.004, 0.923, 0.061, 0.122, 0, -0.077, -22.665, -136.099, -12.787, -9.060, -8.960, 26.21, -0.36514, 0.18259, 0.07117, 0.91003,
 14:09:21.081,ed:40:fe:65:30:6c, 2015-01-01 00:32:25.405, 0.39, -0.008, 0.927, 0.183, 0, 0.183, -0.077, -22.665, -136.093, -12.787, -9.060, -8.960, 26.21, -0.36514, 0.18259, 0.07117, 0.91003,
 14:09:21.083,e3:ca:2d:fd:e0:8c, 2015-01-01 00:32:14.900, 0.976, 0.068, 0.298, 0.122, -0.305, 0.122, 12.437, -72.449, 150.04, -24.907, -11.727, -11.707, 29.77, 0.14539, 0.58975, -0.06729, 0.79144,
 14:09:21.083,e3:ca:2d:fd:e0:8c, 2015-01-01 00:32:14.900, 0.978, 0.064, 0.298, 0.061, -0.305, 0.122, 12.437, -72.46, 150.04, -24.907, -11.727, -11.707, 29.77, 0.14539, 0.58975, -0.06729, 0.79144,
 14:09:21.089,f6:90:cc:01:6d:25, 2015-01-01 00:32:12.140, 0.862, 0.198, 0.445, 0.061, 0, 0.061, 24.335, -60.112, -174.534, -25.313, -14.560, -8.113, 32.38, -0.14581, 0.48026, 0.2056, 0.84006,
 14:09:21.089,f6:90:cc:01:6d:25, 2015-01-01 00:32:12.140, 0.862, 0.202, 0.443, 0.183, -0.061, 0.061, 24.335, -60.112, -174.54, -25.313, -14.560, -8.113, 32.38, -0.14581, 0.48026, 0.2056, 0.84006,
 14:09:21.114,e3:ca:2d:fd:e0:8c, 2015-01-01 00:32:14.900, 0.976, 0.063, 0.295, 0.305, -0.183, 0.061, 12.437, -72.466, 150.035, -24.907, -11.727, -11.707, 29.77, 0.14539, 0.58975, -0.06729, 0.79144,
 14:09:21.114,e3:ca:2d:fd:e0:8c, 2015-01-01 00:32:14.900, 0.977, 0.068, 0.294, 0.427, -0.183, 0.122, 12.437, -72.471, 150.035, -24.907, -11.727, -11.707, 29.77, 0.14539, 0.58975, -0.06729, 0.79144,
 14:09:21.118,ed:35:33:d3:6c:f8, 2015-01-01 00:32:13.520, 0.463, 0.028, 0.887, 0.854, 0.183, -0.122, 1.478, -27.708, 161.263, -12.960, -10.833, -30.473, 31, -0.1553, -0.23828, 0.02686, -0.95828,
 14:09:21.118,ed:35:33:d3:6c:f8, 2015-01-01 00:32:13.520, 0.462, 0.021, 0.887, 0.549, -0.244, 0, 1.494, -27.708, 161.301, -12.960, -10.833, -30.473, 31, -0.1553, -0.23828, 0.02686, -0.95828,
 14:09:21.121,f6:90:cc:01:6d:25, 2015-01-01 00:32:12.140, 0.861, 0.205, 0.443, 0.427, -0.122, 0, 24.335, -60.117, -174.545, -25.313, -14.560, -8.113, 32.38, -0.14581, 0.48026, 0.2056, 0.84006,
 14:09:21.121,f6:90:cc:01:6d:25, 2015-01-01 00:32:12.140, 0.854, 0.205, 0.442, 0.305, -0.122, 0, 24.346, -60.123, -174.551, -25.313, -14.560, -8.113, 32.38, -0.14581, 0.48026, 0.2056, 0.84006,
 14:09:21.142,ed:40:fe:65:30:6c, 2015-01-01 00:32:25.405, 0.392, -0.007, 0.928, 0.549, -0.244, 0.549, -0.077, -22.67, -136.077, -12.787, -9.060, -8.960, 26.21, -0.36642, 0.1825, 0.07281, 0.90939,
 14:09:21.142,ed:40:fe:65:30:6c, 2015-01-01 00:32:25.405, 0.393, -0.002, 0.926, 0.488, -0.244, 0.244, -0.071, -22.676, -136.066, -12.787, -9.060, -8.960, 26.21, -0.36642, 0.1825, 0.07281, 0.90939,
 14:09:21.144,e3:ca:2d:fd:e0:8c, 2015-01-01 00:32:14.900, 0.972, 0.068, 0.295, 0.305, 0, 0, 12.442, -72.471, 150.035, -24.907, -11.727, -11.707, 29.77, 0.14539, 0.58975, -0.06729, 0.79144,
 14:09:21.144,e3:ca:2d:fd:e0:8c, 2015-01-01 00:32:14.900, 0.967, 0.067, 0.295, 0, 0.061, 0, 12.442, -72.477, 150.035, -24.907, -11.727, -11.707, 29.77, 0.14539, 0.58975, -0.06729, 0.79144,
 14:09:21.146,ed:35:33:d3:6c:f8, 2015-01-01 00:32:13.880, 0.461, 0.023, 0.88, 0.916, 0, -0.122, 1.511, -27.708, 161.323, -12.960, -10.833, -30.473, 31, -0.1553, -0.23828, 0.02686, -0.95828,
 14:09:21.146,ed:35:33:d3:6c:f8, 2015-01-01 00:32:13.880, 0.455, 0.023, 0.88, 0.732, 0.244, -0.549, 1.527, -27.702, 161.334, -12.960, -10.833, -30.473, 31, -0.1553, -0.23828, 0.02686, -0.95828,
 14:09:21.171,ed:40:fe:65:30:6c, 2015-01-01 00:32:25.760, 0.384, -0.006, 0.922, 0.732, 0, 0, -0.06, -22.676, -136.066, -12.787, -9.060, -8.960, 26.21, -0.36642, 0.1825, 0.07281, 0.90939,
 14:09:21.171,ed:40:fe:65:30:6c, 2015-01-01 00:32:25.760, 0.382, -0.006, 0.921, 0.427, 0, -0.061, -0.055, -22.681, -136.06, -12.787, -9.060, -8.960, 26.21, -0.36642, 0.1825, 0.07281, 0.90939,
 14:09:21.179,f6:90:cc:01:6d:25, 2015-01-01 00:32:12.500, 0.853, 0.202, 0.443, 0, -0.183, 0, 24.357, -60.128, -174.562, -25.313, -14.560, -8.113, 32.38, -0.14581, 0.48026, 0.2056, 0.84006,
 14:09:21.179,f6:90:cc:01:6d:25, 2015-01-01 00:32:12.500, 0.858, 0.2, 0.444, -0.183, -0.366, 0, 24.357, -60.134, -174.573, -25.313, -14.560, -8.113, 32.38, -0.14581, 0.48026, 0.2056, 0.84006,
 14:09:21.199,ed:40:fe:65:30:6c, 2015-01-01 00:32:25.760, 0.387, -0.005, 0.923, 0.366, -0.183, -0.244, -0.049, -22.681, -136.066, -12.787, -9.060, -8.960, 26.21, -0.36642, 0.1825, 0.07281, 0.90939,
 14:09:21.199,ed:40:fe:65:30:6c, 2015-01-01 00:32:25.760, 0.387, -0.004, 0.923, 0, -0.244, -0.366, -0.049, -22.687, -136.066, -12.787, -9.060, -8.960, 26.21, -0.36642, 0.1825, 0.07281, 0.90939,
 14:09:21.204,e3:ca:2d:fd:e0:8c, 2015-01-01 00:32:14.900, 0.971, 0.067, 0.295, -0.183, 0, 0, 12.442, -72.477, 150.029, -24.907, -11.727, -11.707, 29.77, 0.14539, 0.58975, -0.06729, 0.79144,
 14:09:21.204,e3:ca:2d:fd:e0:8c, 2015-01-01 00:32:14.900, 0.973, 0.063, 0.298, -0.244, -0.122, 0, 12.442, -72.482, 150.024, -24.907, -11.727, -11.707, 29.77, 0.14539, 0.58975, -0.06729, 0.79144,
 14:09:21.205,ed:35:33:d3:6c:f8, 2015-01-01 00:32:13.880, 0.456, 0.025, 0.882, 0.916, -1.038, -0.183, 1.549, -27.713, 161.362, -12.960, -10.833, -30.473, 31, -0.1553, -0.23828, 0.02686, -0.95828,
 14:09:21.205,ed:35:33:d3:6c:f8, 2015-01-01 00:32:13.880, 0.462, 0.025, 0.882, 0.305, -0.854, -0.183, 1.56, -27.729, 161.367, -12.960, -10.833, -30.473, 31, -0.1553, -0.23828, 0.02686, -0.95828,
 14:09:21.210,f6:90:cc:01:6d:25, 2015-01-01 00:32:12.500, 0.858, 0.197, 0.446, -0.244, -0.366, -0.305, 24.362, -60.145, -174.584, -25.313, -14.560, -8.113, 32.38, -0.14581, 0.48026, 0.2056, 0.84006,
 14:09:21.210,f6:90:cc:01:6d:25, 2015-01-01 00:32:12.500, 0.857, 0.197, 0.446, 0, -0.183, -0.244, 24.373, -60.15, -174.606, -25.313, -14.560, -8.113, 32.38, -0.14581, 0.48026, 0.2056, 0.84006,
 14:09:21.236,ed:35:33:d3:6c:f8, 2015-01-01 00:32:13.880, 0.458, 0.028, 0.878, -0.122, -1.16, -0.671, 1.566, -27.751, 161.334, -12.960, -10.833, -30.473, 31, -0.1553, -0.23828, 0.02686, -0.95828,
 14:09:21.236,ed:35:33:d3:6c:f8, 2015-01-01 00:32:13.880, 0.46, 0.026, 0.88, 0.244, -1.587, -0.671, 1.577, -27.779, 161.301, -12.960, -10.833, -30.473, 31, -0.1553, -0.23828, 0.02686, -0.95828,
 14:09:21.241,f6:90:cc:01:6d:25, 2015-01-01 00:32:12.500, 0.857, 0.199, 0.446, 0.061, -0.061, -0.122, 24.379, -60.156, -174.622, -25.313, -14.560, -8.113, 32.38, -0.14581, 0.48026, 0.2056, 0.84006,
 14:09:21.241,f6:90:cc:01:6d:25, 2015-01-01 00:32:12.500, 0.858, 0.2, 0.446, 0.061, 0, 0, 24.384, -60.156, -174.633, -25.313, -14.560, -8.113, 32.38, -0.14581, 0.48026, 0.2056, 0.84006,
 14:09:21.260,ed:40:fe:65:30:6c, 2015-01-01 00:32:25.760, 0.385, -0.004, 0.92, 0, -0.183, -0.183, -0.049, -22.692, -136.071, -12.787, -9.060, -8.960, 26.21, -0.36642, 0.1825, 0.07281, 0.90939,
 14:09:21.260,ed:40:fe:65:30:6c, 2015-01-01 00:32:25.760, 0.385, -0.004, 0.923, 0.305, 0.183, 0.122, -0.049, -22.692, -136.066, -12.787, -9.060, -8.960, 26.21, -0.36642, 0.1825, 0.07281, 0.90939,
 14:09:21.264,e3:ca:2d:fd:e0:8c, 2015-01-01 00:32:14.900, 0.971, 0.061, 0.299, -0.061, -0.061, 0, 12.442, -72.482, 150.018, -24.907, -11.727, -11.707, 29.77, 0.14539, 0.58975, -0.06729, 0.79144,
 14:09:21.264,e3:ca:2d:fd:e0:8c, 2015-01-01 00:32:14.900, 0.973, 0.062, 0.299, 0.061, -0.122, 0, 12.442, -72.488, 150.018, -24.907, -11.727, -11.707, 29.77, 0.14539, 0.58975, -0.06729, 0.79144,
 14:09:21.264,e3:ca:2d:fd:e0:8c, 2015-01-01 00:32:14.900, 0.973, 0.062, 0.299, 0.061, -0.061, 0, 12.437, -72.488, 150.013, -24.907, -11.727, -11.707, 29.77, 0.14539, 0.58975, -0.06729, 0.79144,
 14:09:21.264,e3:ca:2d:fd:e0:8c, 2015-01-01 00:32:14.900, 0.974, 0.065, 0.298, 0, -0.061, 0, 12.437, -72.493, 150.007, -24.907, -11.727, -11.707, 29.77, 0.14539, 0.58975, -0.06729, 0.79144,
 14:09:21.291,ed:40:fe:65:30:6c, 2015-01-01 00:32:25.760, 0.387, -0.005, 0.925, 0.366, 0.061, 0.122, -0.049, -22.692, -136.06, -12.787, -9.060, -8.960, 26.21, -0.36642, 0.1825, 0.07281, 0.90939,
 14:09:21.291,ed:40:fe:65:30:6c, 2015-01-01 00:32:25.760, 0.389, -0.003, 0.922, 0.488, 0.061, 0, -0.044, -22.687, -136.055, -12.787, -9.060, -8.960, 26.21, -0.36642, 0.1825, 0.07281, 0.90939,
 14:09:21.297,ed:35:33:d3:6c:f8, 2015-01-01 00:32:13.880, 0.46, 0.029, 0.879, 0.61, -1.16, -0.488, 1.593, -27.801, 161.268, -12.960, -10.833, -30.473, 31, -0.1553, -0.23828, 0.02686, -0.95828,
 14:09:21.297,ed:35:33:d3:6c:f8, 2015-01-01 00:32:13.880, 0.46, 0.027, 0.881, 0.793, -1.221, -0.488, 1.615, -27.817, 161.213, -12.960, -10.833, -30.473, 31, -0.1553, -0.23828, 0.02686, -0.95828,
 14:09:21.300,f6:90:cc:01:6d:25, 2015-01-01 00:32:12.500, 0.858, 0.204, 0.446, 0, 0, 0.061, 24.384, -60.156, -174.639, -25.313, -14.560, -8.113, 32.38, -0.14581, 0.48026, 0.2056, 0.84006,
 14:09:21.300,f6:90:cc:01:6d:25, 2015-01-01 00:32:12.500, 0.858, 0.201, 0.445, 0.183, 0, 0, 24.379, -60.161, -174.644, -25.313, -14.560, -8.113, 32.38, -0.14581, 0.48026, 0.2056, 0.84006,
 14:09:21.320,ed:40:fe:65:30:6c, 2015-01-01 00:32:25.760, 0.387, -0.004, 0.921, 0.183, 0, 0, -0.038, -22.687, -136.049, -12.787, -9.060, -8.960, 26.21, -0.36642, 0.1825, 0.07281, 0.90939,
 14:09:21.320,ed:40:fe:65:30:6c, 2015-01-01 00:32:25.760, 0.389, -0.002, 0.924, 0.244, 0.061, 0.244, -0.038, -22.687, -136.049, -12.787, -9.060, -8.960, 26.21, -0.36642, 0.1825, 0.07281, 0.90939,
 14:09:21.324,e3:ca:2d:fd:e0:8c, 2015-01-01 00:32:14.900, 0.972, 0.066, 0.299, -0.061, -0.061, 0, 12.431, -72.493, 150.002, -25.353, -11.247, -10.947, 29.77, 0.14539, 0.58975, -0.06729, 0.79144,
 14:09:21.324,e3:ca:2d:fd:e0:8c, 2015-01-01 00:32:14.900, 0.974, 0.062, 0.296, 0.061, -0.061, 0, 12.431, -72.499, 150.002, -25.353, -11.247, -10.947, 29.77, 0.14539, 0.58975, -0.06729, 0.79144,
 14:09:21.326,ed:35:33:d3:6c:f8, 2015-01-01 00:32:13.880, 0.464, 0.026, 0.881, 0.183, -0.732, -0.427, 1.626, -27.834, 161.175, -12.960, -10.833, -30.473, 31, -0.1553, -0.23828, 0.02686, -0.95828,
 14:09:21.326,ed:35:33:d3:6c:f8, 2015-01-01 00:32:13.880, 0.464, 0.028, 0.876, -0.183, -0.366, -0.671, 1.631, -27.839, 161.131, -12.960, -10.833, -30.473, 31, -0.1553, -0.23828, 0.02686, -0.95828,
 14:09:21.329,f6:90:cc:01:6d:25, 2015-01-01 00:32:12.500, 0.859, 0.199, 0.444, 0.183, 0, 0, 24.384, -60.161, -174.65, -25.313, -14.560, -8.113, 32.38, -0.14581, 0.48026, 0.2056, 0.84006,
 14:09:21.329,f6:90:cc:01:6d:25, 2015-01-01 00:32:12.500, 0.858, 0.199, 0.444, 0.183, 0, 0.122, 24.384, -60.167, -174.655, -25.313, -14.560, -8.113, 32.38, -0.14581, 0.48026, 0.2056, 0.84006,
 14:09:21.353,e3:ca:2d:fd:e0:8c, 2015-01-01 00:32:14.900, 0.972, 0.062, 0.298, 0, -0.061, 0, 12.431, -72.499, 149.996, -25.353, -11.247, -10.947, 29.77, 0.14563, 0.59039, -0.06778, 0.79089,
 14:09:21.353,e3:ca:2d:fd:e0:8c, 2015-01-01 00:32:14.900, 0.975, 0.064, 0.294, 0.061, 0, 0, 12.426, -72.499, 149.991, -25.353, -11.247, -10.947, 29.77, 0.14563, 0.59039, -0.06778, 0.79089,
 14:09:21.355,ed:35:33:d3:6c:f8, 2015-01-01 00:32:13.880, 0.462, 0.029, 0.877, 0.244, -0.183, -0.122, 1.637, -27.839, 161.109, -12.460, -11.073, -31.013, 31, -0.1553, -0.23828, 0.02686, -0.95828,
 14:09:21.355,ed:35:33:d3:6c:f8, 2015-01-01 00:32:13.880, 0.464, 0.03, 0.877, 0, 0.305, 0, 1.642, -27.834, 161.109, -12.460, -11.073, -31.013, 31, -0.1553, -0.23828, 0.02686, -0.95828,
 14:09:21.381,ed:40:fe:65:30:6c, 2015-01-01 00:32:25.760, 0.392, -0.007, 0.922, 0.061, 0.122, 0.366, -0.038, -22.687, -136.038, -12.787, -9.060, -8.960, 26.21, -0.36642, 0.1825, 0.07281, 0.90939,
 14:09:21.381,ed:40:fe:65:30:6c, 2015-01-01 00:32:25.760, 0.391, -0.007, 0.925, 0.061, 0.183, 0.061, -0.044, -22.687, -136.027, -12.787, -9.060, -8.960, 26.21, -0.36642, 0.1825, 0.07281, 0.90939,
 14:09:21.384,e3:ca:2d:fd:e0:8c, 2015-01-01 00:32:14.900, 0.977, 0.067, 0.294, 0.183, -0.061, 0, 12.431, -72.504, 149.991, -25.353, -11.247, -10.947, 29.77, 0.14563, 0.59039, -0.06778, 0.79089,
 14:09:21.384,e3:ca:2d:fd:e0:8c, 2015-01-01 00:32:14.900, 0.975, 0.068, 0.293, 0.183, 0, 0, 12.431, -72.504, 149.985, -25.353, -11.247, -10.947, 29.77, 0.14563, 0.59039, -0.06778, 0.79089,
 14:09:21.387,ed:35:33:d3:6c:f8, 2015-01-01 00:32:13.880, 0.469, 0.021, 0.882, -0.244, 0.244, -0.122, 1.642, -27.828, 161.109, -12.460, -11.073, -31.013, 31, -0.1553, -0.23828, 0.02686, -0.95828,
 14:09:21.387,ed:35:33:d3:6c:f8, 2015-01-01 00:32:13.880, 0.462, 0.027, 0.882, -0.122, 0, -0.061, 1.637, -27.828, 161.115, -12.460, -11.073, -31.013, 31, -0.1553, -0.23828, 0.02686, -0.95828,
 14:09:21.391,f6:90:cc:01:6d:25, 2015-01-01 00:32:12.500, 0.862, 0.2, 0.442, 0.366, 0, 0.122, 24.384, -60.167, -174.655, -25.347, -15.000, -7.393, 32.38, -0.14581, 0.48026, 0.2056, 0.84006,
 14:09:21.391,f6:90:cc:01:6d:25, 2015-01-01 00:32:12.500, 0.861, 0.204, 0.439, 0.305, 0.061, 0, 24.384, -60.172, -174.655, -25.347, -15.000, -7.393, 32.38, -0.14581, 0.48026, 0.2056, 0.84006,
 14:09:21.410,ed:40:fe:65:30:6c, 2015-01-01 00:32:25.760, 0.388, -0.002, 0.923, 0.122, 0.061, 0, -0.044, -22.687, -136.022, -13.440, -9.000, -8.713, 26.21, -0.36642, 0.1825, 0.07281, 0.90939,
 14:09:21.410,ed:40:fe:65:30:6c, 2015-01-01 00:32:25.760, 0.389, -0.004, 0.923, 0.244, 0.061, -0.183, -0.044, -22.687, -136.022, -13.440, -9.000, -8.713, 26.21, -0.36642, 0.1825, 0.07281, 0.90939,
 14:09:21.420,f6:90:cc:01:6d:25, 2015-01-01 00:32:12.500, 0.859, 0.206, 0.44, 0, 0.061, 0, 24.39, -60.172, -174.661, -25.347, -15.000, -7.393, 32.38, -0.14514, 0.48096, 0.20538, 0.83984,
 14:09:21.420,f6:90:cc:01:6d:25, 2015-01-01 00:32:12.500, 0.859, 0.205, 0.442, -0.122, 0, -0.061, 24.39, -60.178, -174.666, -25.347, -15.000, -7.393, 32.38, -0.14514, 0.48096, 0.20538, 0.83984,
 14:09:21.441,ed:40:fe:65:30:6c, 2015-01-01 00:32:25.760, 0.388, -0.004, 0.923, 0.305, 0.183, -0.183, -0.044, -22.687, -136.022, -13.440, -9.000, -8.713, 26.21, -0.36642, 0.1825, 0.07281, 0.90939,
 14:09:21.441,ed:40:fe:65:30:6c, 2015-01-01 00:32:25.760, 0.387, -0.006, 0.922, 0.183, 0.183, -0.366, -0.038, -22.681, -136.027, -13.440, -9.000, -8.713, 26.21, -0.36642, 0.1825, 0.07281, 0.90939,
 14:09:21.443,e3:ca:2d:fd:e0:8c, 2015-01-01 00:32:15.260, 0.974, 0.068, 0.294, 0, 0, 0, 12.431, -72.51, 149.98, -25.353, -11.247, -10.947, 29.77, 0.14563, 0.59039, -0.06778, 0.79089,
 14:09:21.443,e3:ca:2d:fd:e0:8c, 2015-01-01 00:32:15.260, 0.973, 0.067, 0.296, -0.122, 0, 0, 12.431, -72.51, 149.98, -25.353, -11.247, -10.947, 29.77, 0.14563, 0.59039, -0.06778, 0.79089,
 14:09:21.447,ed:35:33:d3:6c:f8, 2015-01-01 00:32:13.880, 0.461, 0.026, 0.882, 0.244, -0.244, -0.305, 1.648, -27.828, 161.109, -12.460, -11.073, -31.013, 31, -0.15579, -0.23944, 0.02573, -0.95792,
 14:09:21.447,ed:35:33:d3:6c:f8, 2015-01-01 00:32:13.880, 0.462, 0.029, 0.881, 0.061, -0.671, 0, 1.648, -27.839, 161.115, -12.460, -11.073, -31.013, 31, -0.15579, -0.23944, 0.02573, -0.95792,
 14:09:21.450,f6:90:cc:01:6d:25, 2015-01-01 00:32:12.500, 0.858, 0.201, 0.443, -0.122, -0.061, -0.122, 24.395, -60.178, -174.677, -25.347, -15.000, -7.393, 32.38, -0.14514, 0.48096, 0.20538, 0.83984,
 14:09:21.450,f6:90:cc:01:6d:25, 2015-01-01 00:32:12.500, 0.858, 0.199, 0.443, -0.061, 0, -0.183, 24.395, -60.183, -174.688, -25.347, -15.000, -7.393, 32.38, -0.14514, 0.48096, 0.20538, 0.83984,
 14:09:21.474,e3:ca:2d:fd:e0:8c, 2015-01-01 00:32:15.260, 0.973, 0.064, 0.296, -0.122, 0.061, 0, 12.431, -72.51, 149.98, -25.353, -11.247, -10.947, 29.77, 0.14563, 0.59039, -0.06778, 0.79089,
 14:09:21.474,e3:ca:2d:fd:e0:8c, 2015-01-01 00:32:15.260, 0.973, 0.064, 0.297, -0.061, 0.061, 0, 12.426, -72.51, 149.974, -25.353, -11.247, -10.947, 29.77, 0.14563, 0.59039, -0.06778, 0.79089,
 14:09:21.477,ed:35:33:d3:6c:f8, 2015-01-01 00:32:14.205, 0.466, 0.023, 0.876, 0.305, -0.488, -0.305, 1.659, -27.85, 161.12, -12.460, -11.073, -31.013, 31, -0.15579, -0.23944, 0.02573, -0.95792,
 14:09:21.477,ed:35:33:d3:6c:f8, 2015-01-01 00:32:14.205, 0.463, 0.026, 0.879, -0.061, -0.488, -0.549, 1.664, -27.856, 161.115, -12.460, -11.073, -31.013, 31, -0.15579, -0.23944, 0.02573, -0.95792,
 14:09:21.501,ed:40:fe:65:30:6c, 2015-01-01 00:32:25.760, 0.387, -0.005, 0.923, 0, 0.183, -0.305, -0.033, -22.681, -136.033, -13.440, -9.000, -8.713, 26.21, -0.36697, 0.1825, 0.0733, 0.90915,
 14:09:21.501,ed:40:fe:65:30:6c, 2015-01-01 00:32:25.760, 0.39, -0.006, 0.926, 0.183, 0.122, -0.244, -0.033, -22.681, -136.033, -13.440, -9.000, -8.713, 26.21, -0.36697, 0.1825, 0.0733, 0.90915,
 14:09:21.505,ed:35:33:d3:6c:f8, 2015-01-01 00:32:14.205, 0.461, 0.028, 0.882, 0, -0.366, -0.61, 1.67, -27.861, 161.12, -12.460, -11.073, -31.013, 31, -0.15579, -0.23944, 0.02573, -0.95792,
 14:09:21.505,ed:35:33:d3:6c:f8, 2015-01-01 00:32:14.205, 0.465, 0.024, 0.881, 0, -0.305, -0.427, 1.675, -27.867, 161.115, -12.460, -11.073, -31.013, 31, -0.15579, -0.23944, 0.02573, -0.95792,
 14:09:21.509,f6:90:cc:01:6d:25, 2015-01-01 00:32:12.825, 0.859, 0.2, 0.445, -0.061, 0, -0.244, 24.406, -60.183, -174.699, -25.347, -15.000, -7.393, 32.38, -0.14514, 0.48096, 0.20538, 0.83984,
 14:09:21.509,f6:90:cc:01:6d:25, 2015-01-01 00:32:12.825, 0.862, 0.199, 0.445, -0.061, 0, -0.305, 24.412, -60.183, -174.716, -25.347, -15.000, -7.393, 32.38, -0.14514, 0.48096, 0.20538, 0.83984,
 14:09:21.531,ed:40:fe:65:30:6c, 2015-01-01 00:32:26.120, 0.389, -0.007, 0.923, 0.061, -0.122, -0.122, -0.033, -22.681, -136.038, -13.440, -9.000, -8.713, 26.21, -0.36697, 0.1825, 0.0733, 0.90915,
 14:09:21.531,ed:40:fe:65:30:6c, 2015-01-01 00:32:26.120, 0.383, 0.001, 0.921, 0.122, 0.122, 0, -0.033, -22.681, -136.033, -13.440, -9.000, -8.713, 26.21, -0.36697, 0.1825, 0.0733, 0.90915,
 14:09:21.534,e3:ca:2d:fd:e0:8c, 2015-01-01 00:32:15.260, 0.973, 0.064, 0.297, 0, 0, 0, 12.426, -72.515, 149.974, -25.353, -11.247, -10.947, 29.77, 0.14563, 0.59039, -0.06778, 0.79089,
 14:09:21.534,e3:ca:2d:fd:e0:8c, 2015-01-01 00:32:15.260, 0.975, 0.063, 0.298, 0, -0.061, 0, 12.426, -72.515, 149.969, -25.353, -11.247, -10.947, 29.77, 0.14563, 0.59039, -0.06778, 0.79089,
 14:09:21.539,f6:90:cc:01:6d:25, 2015-01-01 00:32:12.825, 0.859, 0.197, 0.443, 0, 0, -0.427, 24.423, -60.183, -174.732, -25.347, -15.000, -7.393, 32.38, -0.14514, 0.48096, 0.20538, 0.83984,
 14:09:21.539,f6:90:cc:01:6d:25, 2015-01-01 00:32:12.825, 0.856, 0.201, 0.444, 0, 0.183, -0.244, 24.428, -60.183, -174.749, -25.347, -15.000, -7.393, 32.38, -0.14514, 0.48096, 0.20538, 0.83984,
 14:09:21.560,ed:40:fe:65:30:6c, 2015-01-01 00:32:26.120, 0.384, -0.007, 0.925, 0.061, 0.061, 0.122, -0.033, -22.681, -136.033, -13.440, -9.000, -8.713, 26.21, -0.36697, 0.1825, 0.0733, 0.90915,
 14:09:21.560,ed:40:fe:65:30:6c, 2015-01-01 00:32:26.120, 0.392, -0.003, 0.921, -0.061, -0.061, 0.061, -0.038, -22.681, -136.027, -13.440, -9.000, -8.713, 26.21, -0.36697, 0.1825, 0.0733, 0.90915,
 14:09:21.565,e3:ca:2d:fd:e0:8c, 2015-01-01 00:32:15.260, 0.973, 0.063, 0.298, 0.061, 0, 0, 12.426, -72.521, 149.969, -25.353, -11.247, -10.947, 29.77, 0.14563, 0.59039, -0.06778, 0.79089,
 14:09:21.565,e3:ca:2d:fd:e0:8c, 2015-01-01 00:32:15.260, 0.968, 0.062, 0.296, 0, 0.061, 0, 12.426, -72.521, 149.963, -25.353, -11.247, -10.947, 29.77, 0.14563, 0.59039, -0.06778, 0.79089,
 14:09:21.566,ed:35:33:d3:6c:f8, 2015-01-01 00:32:14.205, 0.462, 0.036, 0.872, -0.793, 0.244, 0, 1.664, -27.861, 161.131, -12.460, -11.073, -31.013, 31, -0.15579, -0.23944, 0.02573, -0.95792,
 14:09:21.566,ed:35:33:d3:6c:f8, 2015-01-01 00:32:14.205, 0.461, 0.028, 0.884, 0, 0.366, -0.305, 1.67, -27.856, 161.136, -12.460, -11.073, -31.013, 31, -0.15579, -0.23944, 0.02573, -0.95792,
 14:09:21.570,f6:90:cc:01:6d:25, 2015-01-01 00:32:12.825, 0.856, 0.198, 0.443, 0, 0.122, -0.122, 24.434, -60.183, -174.76, -25.347, -15.000, -7.393, 32.38, -0.14514, 0.48096, 0.20538, 0.83984,
 14:09:21.570,f6:90:cc:01:6d:25, 2015-01-01 00:32:12.825, 0.863, 0.198, 0.445, 0.122, 0.061, -0.061, 24.434, -60.183, -174.765, -25.347, -15.000, -7.393, 32.38, -0.14514, 0.48096, 0.20538, 0.83984,
 14:09:21.595,ed:35:33:d3:6c:f8, 2015-01-01 00:32:14.205, 0.46, 0.027, 0.881, -1.038, 0.122, -0.366, 1.659, -27.85, 161.115, -12.460, -11.073, -31.013, 31, -0.15579, -0.23944, 0.02573, -0.95792,
 14:09:21.595,ed:35:33:d3:6c:f8, 2015-01-01 00:32:14.205, 0.466, 0.03, 0.876, -0.183, 0.183, 0, 1.653, -27.845, 161.104, -12.460, -11.073, -31.013, 31, -0.15579, -0.23944, 0.02573, -0.95792,
 14:09:21.595,e3:ca:2d:fd:e0:8c, 2015-01-01 00:32:15.260, 0.976, 0.06, 0.296, 0.122, 0, 0, 12.426, -72.521, 149.963, -25.353, -11.247, -10.947, 29.77, 0.14563, 0.59039, -0.06778, 0.79089,
 14:09:21.595,e3:ca:2d:fd:e0:8c, 2015-01-01 00:32:15.260, 0.979, 0.064, 0.296, 0.244, 0, 0, 12.426, -72.521, 149.958, -25.353, -11.247, -10.947, 29.77, 0.14563, 0.59039, -0.06778, 0.79089,
 14:09:21.621,ed:40:fe:65:30:6c, 2015-01-01 00:32:26.120, 0.391, -0.003, 0.925, 0.305, 0.183, 0.244, -0.044, -22.681, -136.022, -13.440, -9.000, -8.713, 26.21, -0.36697, 0.1825, 0.0733, 0.90915,
 14:09:21.621,ed:40:fe:65:30:6c, 2015-01-01 00:32:26.120, 0.382, -0.01, 0.924, 0.305, 0.366, 0.305, -0.038, -22.681, -136.011, -13.440, -9.000, -8.713, 26.21, -0.36697, 0.1825, 0.0733, 0.90915,
 14:09:21.627,ed:35:33:d3:6c:f8, 2015-01-01 00:32:14.205, 0.461, 0.024, 0.882, 0.366, -0.061, 0.183, 1.659, -27.845, 161.093, -12.460, -11.073, -31.013, 31, -0.15579, -0.23944, 0.02573, -0.95792,
 14:09:21.627,ed:35:33:d3:6c:f8, 2015-01-01 00:32:14.205, 0.459, 0.023, 0.885, -0.366, -0.061, 0.427, 1.653, -27.845, 161.109, -12.460, -11.073, -31.013, 31, -0.15579, -0.23944, 0.02573, -0.95792,
 14:09:21.631,f6:90:cc:01:6d:25, 2015-01-01 00:32:12.825, 0.863, 0.203, 0.443, 0.427, 0.122, 0, 24.434, -60.183, -174.771, -25.347, -15.000, -7.393, 32.38, -0.14514, 0.48096, 0.20538, 0.83984,
 14:09:21.631,f6:90:cc:01:6d:25, 2015-01-01 00:32:12.825, 0.854, 0.2, 0.442, 0.183, 0.305, -0.122, 24.439, -60.183, -174.776, -25.347, -15.000, -7.393, 32.38, -0.14514, 0.48096, 0.20538, 0.83984,
 14:09:21.650,ed:40:fe:65:30:6c, 2015-01-01 00:32:26.120, 0.386, -0.003, 0.924, -0.122, 0.122, -0.183, -0.044, -22.676, -136.005, -13.440, -9.000, -8.713, 26.21, -0.36697, 0.1825, 0.0733, 0.90915,
 14:09:21.650,ed:40:fe:65:30:6c, 2015-01-01 00:32:26.120, 0.393, -0.003, 0.921, -0.122, 0.183, -0.366, -0.044, -22.676, -136.011, -13.440, -9.000, -8.713, 26.21, -0.36697, 0.1825, 0.0733, 0.90915,
 14:09:21.654,e3:ca:2d:fd:e0:8c, 2015-01-01 00:32:15.260, 0.97, 0.067, 0.296, 0.183, 0, 0, 12.426, -72.526, 149.958, -25.240, -11.640, -10.993, 29.77, 0.14563, 0.59039, -0.06778, 0.79089,
 14:09:21.654,e3:ca:2d:fd:e0:8c, 2015-01-01 00:32:15.260, 0.968, 0.067, 0.294, 0.061, 0, 0, 12.426, -72.526, 149.952, -25.240, -11.640, -10.993, 29.77, 0.14563, 0.59039, -0.06778, 0.79089,
 14:09:21.660,f6:90:cc:01:6d:25, 2015-01-01 00:32:12.825, 0.854, 0.207, 0.443, -0.244, 0.122, -0.122, 24.439, -60.183, -174.781, -25.347, -15.000, -7.393, 32.38, -0.14514, 0.48096, 0.20538, 0.83984,
 14:09:21.660,f6:90:cc:01:6d:25, 2015-01-01 00:32:12.825, 0.864, 0.205, 0.442, -0.244, 0.061, -0.122, 24.434, -60.183, -174.787, -25.347, -15.000, -7.393, 32.38, -0.14514, 0.48096, 0.20538, 0.83984,
 14:09:21.680,ed:40:fe:65:30:6c, 2015-01-01 00:32:26.120, 0.389, -0.005, 0.923, -0.244, 0.427, -0.488, -0.049, -22.67, -136.016, -13.440, -9.000, -8.713, 26.21, -0.36697, 0.1825, 0.0733, 0.90915,
 14:09:21.680,ed:40:fe:65:30:6c, 2015-01-01 00:32:26.120, 0.389, -0.001, 0.929, 0, 0.549, -0.488, -0.049, -22.659, -136.022, -13.440, -9.000, -8.713, 26.21, -0.36697, 0.1825, 0.0733, 0.90915,
 14:09:21.683,e3:ca:2d:fd:e0:8c, 2015-01-01 00:32:15.260, 0.976, 0.069, 0.296, 0, -0.061, 0, 12.426, -72.532, 149.952, -25.240, -11.640, -10.993, 29.77, 0.1459, 0.59058, -0.06812, 0.79068,
 14:09:21.683,e3:ca:2d:fd:e0:8c, 2015-01-01 00:32:15.260, 0.98, 0.067, 0.296, -0.183, -0.122, 0, 12.426, -72.532, 149.947, -25.240, -11.640, -10.993, 29.77, 0.1459, 0.59058, -0.06812, 0.79068,
 14:09:21.686,ed:35:33:d3:6c:f8, 2015-01-01 00:32:14.205, 0.466, 0.029, 0.879, -0.732, -0.427, 0, 1.637, -27.85, 161.131, -12.460, -11.073, -31.013, 31, -0.15579, -0.23944, 0.02573, -0.95792,
 14:09:21.686,ed:35:33:d3:6c:f8, 2015-01-01 00:32:14.205, 0.463, 0.023, 0.875, -0.244, 0.183, -0.061, 1.631, -27.85, 161.169, -12.460, -11.073, -31.013, 31, -0.15579, -0.23944, 0.02573, -0.95792,
 14:09:21.690,f6:90:cc:01:6d:25, 2015-01-01 00:32:12.825, 0.863, 0.202, 0.444, -0.488, 0.061, -0.183, 24.434, -60.183, -174.798, -25.600, -15.140, -7.973, 32.38, -0.14514, 0.48096, 0.20538, 0.83984,
 14:09:21.690,f6:90:cc:01:6d:25, 2015-01-01 00:32:12.825, 0.86, 0.202, 0.441, -0.427, 0.122, -0.183, 24.428, -60.183, -174.803, -25.600, -15.140, -7.973, 32.38, -0.14514, 0.48096, 0.20538, 0.83984,
 14:09:21.717,ed:35:33:d3:6c:f8, 2015-01-01 00:32:14.205, 0.464, 0.032, 0.892, -0.488, -0.61, -0.122, 1.626, -27.856, 161.191, -12.707, -10.993, -29.813, 31, -0.15579, -0.23944, 0.02573, -0.95792,
 14:09:21.717,ed:35:33:d3:6c:f8, 2015-01-01 00:32:14.205, 0.459, 0.025, 0.89, -0.061, -2.441, -0.427, 1.631, -27.894, 161.197, -12.707, -10.993, -29.813, 31, -0.15579, -0.23944, 0.02573, -0.95792,
 14:09:21.741,ed:40:fe:65:30:6c, 2015-01-01 00:32:26.120, 0.386, -0.005, 0.929, 0.122, 0.244, -0.61, -0.049, -22.654, -136.033, -13.440, -9.000, -8.713, 26.21, -0.36697, 0.1825, 0.0733, 0.90915,
 14:09:21.741,ed:40:fe:65:30:6c, 2015-01-01 00:32:26.120, 0.384, -0.008, 0.925, 0, -0.061, -0.854, -0.044, -22.654, -136.044, -13.440, -9.000, -8.713, 26.21, -0.36697, 0.1825, 0.0733, 0.90915,
 14:09:21.743,e3:ca:2d:fd:e0:8c, 2015-01-01 00:32:15.260, 0.976, 0.065, 0.296, 0, 0.061, 0, 12.426, -72.537, 149.947, -25.240, -11.640, -10.993, 29.77, 0.1459, 0.59058, -0.06812, 0.79068,
 14:09:21.743,e3:ca:2d:fd:e0:8c, 2015-01-01 00:32:15.260, 0.975, 0.066, 0.292, 0, 0.122, 0, 12.426, -72.537, 149.947, -25.240, -11.640, -10.993, 29.77, 0.1459, 0.59058, -0.06812, 0.79068,
 14:09:21.747,ed:35:33:d3:6c:f8, 2015-01-01 00:32:14.205, 0.466, 0.018, 0.889, 3.906, -2.563, 1.099, 1.681, -27.938, 161.219, -12.707, -10.993, -29.813, 31, -0.15579, -0.23944, 0.02573, -0.95792,
 14:09:21.747,ed:35:33:d3:6c:f8, 2015-01-01 00:32:14.205, 0.46, 0.027, 0.869, -0.61, -2.075, -0.183, 1.692, -27.982, 161.213, -12.707, -10.993, -29.813, 31, -0.15579, -0.23944, 0.02573, -0.95792,
 14:09:21.771,ed:40:fe:65:30:6c, 2015-01-01 00:32:26.120, 0.385, -0.003, 0.921, 0.427, 0.122, -0.854, -0.038, -22.654, -136.06, -12.813, -9.040, -9.060, 26.21, -0.36697, 0.1825, 0.0733, 0.90915,
 14:09:21.771,ed:40:fe:65:30:6c, 2015-01-01 00:32:26.120, 0.38, -0.002, 0.92, 0.305, 0.183, -0.671, -0.027, -22.654, -136.077, -12.813, -9.040, -9.060, 26.21, -0.36697, 0.1825, 0.0733, 0.90915,
 14:09:21.773,e3:ca:2d:fd:e0:8c, 2015-01-01 00:32:15.585, 0.972, 0.068, 0.294, 0, 0.061, -0.305, 12.448, -72.537, 149.925, -25.240, -11.640, -10.993, 29.77, 0.1459, 0.59058, -0.06812, 0.79068,
 14:09:21.773,e3:ca:2d:fd:e0:8c, 2015-01-01 00:32:15.585, 0.97, 0.066, 0.297, -0.122, -0.122, -0.366, 12.469, -72.537, 149.897, -25.240, -11.640, -10.993, 29.77, 0.1459, 0.59058, -0.06812, 0.79068,
 14:09:21.780,f6:90:cc:01:6d:25, 2015-01-01 00:32:12.825, 0.86, 0.202, 0.44, -0.366, 0.183, -0.244, 24.428, -60.183, -174.814, -25.600, -15.140, -7.973, 32.38, -0.14514, 0.48096, 0.20538, 0.83984,
 14:09:21.780,f6:90:cc:01:6d:25, 2015-01-01 00:32:12.825, 0.856, 0.204, 0.445, -0.366, 0, -0.366, 24.428, -60.183, -174.831, -25.600, -15.140, -7.973, 32.38, -0.14514, 0.48096, 0.20538, 0.83984,
 14:09:21.780,f6:90:cc:01:6d:25, 2015-01-01 00:32:12.825, 0.855, 0.201, 0.445, -0.366, 0, -0.488, 24.439, -60.178, -174.853, -25.600, -15.140, -7.973, 32.38, -0.14514, 0.48096, 0.20538, 0.83984,
 14:09:21.780,f6:90:cc:01:6d:25, 2015-01-01 00:32:12.825, 0.855, 0.2, 0.444, -0.183, 0, -0.427, 24.45, -60.178, -174.875, -25.600, -15.140, -7.973, 32.38, -0.14514, 0.48096, 0.20538, 0.83984,
 14:09:21.808,ed:35:33:d3:6c:f8, 2015-01-01 00:32:14.205, 0.462, 0.029, 0.874, 0.061, -0.366, -0.61, 1.697, -27.993, 161.197, -12.707, -10.993, -29.813, 31, -0.15485, -0.24091, 0.02533, -0.95773,
 14:09:21.808,ed:35:33:d3:6c:f8, 2015-01-01 00:32:14.205, 0.462, 0.03, 0.876, 0, -0.732, -0.854, 1.703, -27.999, 161.175, -12.707, -10.993, -29.813, 31, -0.15485, -0.24091, 0.02533, -0.95773,
 14:09:21.810,f6:90:cc:01:6d:25, 2015-01-01 00:32:12.825, 0.852, 0.198, 0.446, -0.122, -0.122, -0.305, 24.456, -60.183, -174.891, -25.600, -15.140, -7.973, 32.38, -0.1441, 0.48123, 0.20496, 0.83994,
 14:09:21.810,f6:90:cc:01:6d:25, 2015-01-01 00:32:12.825, 0.86, 0.195, 0.446, 0, 0, -0.183, 24.461, -60.183, -174.902, -25.600, -15.140, -7.973, 32.38, -0.1441, 0.48123, 0.20496, 0.83994,
 14:09:21.831,ed:40:fe:65:30:6c, 2015-01-01 00:32:26.120, 0.38, -0.001, 0.923, -0.061, 0.061, -0.61, -0.022, -22.648, -136.088, -12.813, -9.040, -9.060, 26.21, -0.36697, 0.1825, 0.0733, 0.90915,
 14:09:21.831,ed:40:fe:65:30:6c, 2015-01-01 00:32:26.120, 0.391, -0.004, 0.922, -0.061, -0.244, -0.183, -0.022, -22.648, -136.093, -12.813, -9.040, -9.060, 26.21, -0.36697, 0.1825, 0.0733, 0.90915,
 14:09:21.833,e3:ca:2d:fd:e0:8c, 2015-01-01 00:32:15.585, 0.97, 0.064, 0.296, -0.061, -0.183, -0.366, 12.497, -72.543, 149.865, -25.240, -11.640, -10.993, 29.77, 0.1459, 0.59058, -0.06812, 0.79068,
 14:09:21.833,e3:ca:2d:fd:e0:8c, 2015-01-01 00:32:15.585, 0.966, 0.062, 0.299, -0.305, 0, -0.244, 12.508, -72.543, 149.848, -25.240, -11.640, -10.993, 29.77, 0.1459, 0.59058, -0.06812, 0.79068,
 14:09:21.835,e3:ca:2d:fd:e0:8c, 2015-01-01 00:32:15.585, 0.974, 0.061, 0.299, 0, 0.061, -0.122, 12.513, -72.543, 149.837, -25.240, -11.640, -10.993, 29.77, 0.1459, 0.59058, -0.06812, 0.79068,
 14:09:21.835,e3:ca:2d:fd:e0:8c, 2015-01-01 00:32:15.585, 0.98, 0.063, 0.3, 0.061, -0.122, -0.061, 12.513, -72.548, 149.832, -25.240, -11.640, -10.993, 29.77, 0.1459, 0.59058, -0.06812, 0.79068,
 14:09:21.835,ed:35:33:d3:6c:f8, 2015-01-01 00:32:14.565, 0.463, 0.033, 0.877, -0.916, -0.488, -1.16, 1.703, -28.01, 161.136, -12.707, -10.993, -29.813, 31, -0.15485, -0.24091, 0.02533, -0.95773,
 14:09:21.835,ed:35:33:d3:6c:f8, 2015-01-01 00:32:14.565, 0.471, 0.031, 0.873, -0.549, 0.488, -0.061, 1.697, -27.999, 161.12, -12.707, -10.993, -29.813, 31, -0.15485, -0.24091, 0.02533, -0.95773,
 14:09:21.859,ed:40:fe:65:30:6c, 2015-01-01 00:32:26.120, 0.389, -0.003, 0.923, 0.122, -0.061, 0.122, -0.022, -22.654, -136.093, -12.813, -9.040, -9.060, 26.21, -0.36646, 0.18222, 0.07321, 0.90942,
 14:09:21.859,ed:40:fe:65:30:6c, 2015-01-01 00:32:26.120, 0.382, 0, 0.927, 0.183, 0.122, 0.183, -0.022, -22.654, -136.088, -12.813, -9.040, -9.060, 26.21, -0.36646, 0.18222, 0.07321, 0.90942,
 14:09:21.865,ed:35:33:d3:6c:f8, 2015-01-01 00:32:14.565, 0.464, 0.029, 0.879, -0.244, 0.977, 0, 1.692, -27.982, 161.115, -12.707, -10.993, -29.813, 31, -0.15485, -0.24091, 0.02533, -0.95773,
 14:09:21.865,ed:35:33:d3:6c:f8, 2015-01-01 00:32:14.565, 0.461, 0.031, 0.886, -0.244, 0.732, -0.183, 1.692, -27.966, 161.087, -12.707, -10.993, -29.813, 31, -0.15485, -0.24091, 0.02533, -0.95773,
 14:09:21.869,f6:90:cc:01:6d:25, 2015-01-01 00:32:12.825, 0.864, 0.199, 0.446, 0.061, 0.122, -0.122, 24.461, -60.183, -174.913, -25.600, -15.140, -7.973, 32.38, -0.1441, 0.48123, 0.20496, 0.83994,
 14:09:21.869,f6:90:cc:01:6d:25, 2015-01-01 00:32:12.825, 0.858, 0.204, 0.448, 0.122, 0.244, -0.061, 24.461, -60.178, -174.913, -25.600, -15.140, -7.973, 32.38, -0.1441, 0.48123, 0.20496, 0.83994,
 14:09:21.891,ed:40:fe:65:30:6c, 2015-01-01 00:32:26.120, 0.387, -0.002, 0.929, 0.183, 0.122, 0.122, -0.022, -22.654, -136.082, -12.813, -9.040, -9.060, 26.21, -0.36646, 0.18222, 0.07321, 0.90942,
 14:09:21.891,ed:40:fe:65:30:6c, 2015-01-01 00:32:26.120, 0.389, -0.001, 0.917, 0, 0.183, 0.244, -0.022, -22.648, -136.077, -12.813, -9.040, -9.060, 26.21, -0.36646, 0.18222, 0.07321, 0.90942,
 14:09:21.893,e3:ca:2d:fd:e0:8c, 2015-01-01 00:32:15.585, 0.976, 0.065, 0.299, 0.183, 0, -0.061, 12.519, -72.548, 149.826, -25.240, -11.640, -10.993, 29.77, 0.1459, 0.59058, -0.06812, 0.79068,
 14:09:21.893,e3:ca:2d:fd:e0:8c, 2015-01-01 00:32:15.585, 0.971, 0.066, 0.299, 0, 0.183, 0, 12.513, -72.543, 149.826, -25.240, -11.640, -10.993, 29.77, 0.1459, 0.59058, -0.06812, 0.79068,
 14:09:21.899,f6:90:cc:01:6d:25, 2015-01-01 00:32:12.825, 0.855, 0.202, 0.446, 0.061, 0.183, 0, 24.456, -60.178, -174.913, -25.600, -15.140, -7.973, 32.38, -0.1441, 0.48123, 0.20496, 0.83994,
 14:09:21.899,f6:90:cc:01:6d:25, 2015-01-01 00:32:12.825, 0.857, 0.201, 0.445, 0.366, 0.122, 0.122, 24.456, -60.178, -174.913, -25.600, -15.140, -7.973, 32.38, -0.1441, 0.48123, 0.20496, 0.83994,
 14:09:21.923,e3:ca:2d:fd:e0:8c, 2015-01-01 00:32:15.585, 0.97, 0.064, 0.296, 0, 0.122, 0.122, 12.502, -72.543, 149.832, -25.240, -11.640, -10.993, 29.77, 0.1459, 0.59058, -0.06812, 0.79068,
 14:09:21.923,e3:ca:2d:fd:e0:8c, 2015-01-01 00:32:15.585, 0.974, 0.063, 0.293, 0.183, 0.122, 0.183, 12.491, -72.543, 149.843, -25.240, -11.640, -10.993, 29.77, 0.1459, 0.59058, -0.06812, 0.79068,
 14:09:21.927,ed:35:33:d3:6c:f8, 2015-01-01 00:32:14.565, 0.464, 0.032, 0.875, -0.732, 1.221, 0.061, 1.681, -27.938, 161.076, -12.707, -10.993, -29.813, 31, -0.15485, -0.24091, 0.02533, -0.95773,
 14:09:21.927,ed:35:33:d3:6c:f8, 2015-01-01 00:32:14.565, 0.464, 0.03, 0.872, -0.488, 1.892, 0.244, 1.67, -27.905, 161.071, -12.707, -10.993, -29.813, 31, -0.15485, -0.24091, 0.02533, -0.95773,
 14:09:21.931,f6:90:cc:01:6d:25, 2015-01-01 00:32:12.825, 0.858, 0.199, 0.439, 0.427, 0.427, 0.183, 24.45, -60.172, -174.908, -25.600, -15.140, -7.973, 32.38, -0.1441, 0.48123, 0.20496, 0.83994,
 14:09:21.931,f6:90:cc:01:6d:25, 2015-01-01 00:32:12.825, 0.853, 0.203, 0.442, 0.549, 0.366, 0.305, 24.445, -60.172, -174.891, -25.600, -15.140, -7.973, 32.38, -0.1441, 0.48123, 0.20496, 0.83994,
 14:09:21.950,ed:40:fe:65:30:6c, 2015-01-01 00:32:26.505, 0.384, -0.001, 0.919, 0.305, 0.244, 0.427, -0.027, -22.648, -136.071, -12.813, -9.040, -9.060, 26.21, -0.36646, 0.18222, 0.07321, 0.90942,
 14:09:21.950,ed:40:fe:65:30:6c, 2015-01-01 00:32:26.505, 0.382, -0.003, 0.925, 0.549, 0.488, 0.61, -0.022, -22.637, -136.055, -12.813, -9.040, -9.060, 26.21, -0.36646, 0.18222, 0.07321, 0.90942,
 14:09:21.953,e3:ca:2d:fd:e0:8c, 2015-01-01 00:32:15.585, 0.969, 0.065, 0.294, 0.305, 0.122, 0.183, 12.48, -72.543, 149.854, -25.240, -11.640, -10.993, 29.77, 0.1459, 0.59058, -0.06812, 0.79068,
 14:09:21.953,e3:ca:2d:fd:e0:8c, 2015-01-01 00:32:15.585, 0.974, 0.067, 0.294, 0.122, 0.122, 0.305, 12.464, -72.543, 149.875, -25.240, -11.640, -10.993, 29.77, 0.1459, 0.59058, -0.06812, 0.79068,
 14:09:21.955,ed:35:33:d3:6c:f8, 2015-01-01 00:32:14.565, 0.458, 0.03, 0.877, 0.366, 1.099, 0.183, 1.675, -27.878, 161.065, -12.707, -10.993, -29.813, 31, -0.15485, -0.24091, 0.02533, -0.95773,
 14:09:21.955,ed:35:33:d3:6c:f8, 2015-01-01 00:32:14.565, 0.47, 0.028, 0.883, 1.038, 1.038, 0.488, 1.692, -27.856, 161.076, -12.707, -10.993, -29.813, 31, -0.15485, -0.24091, 0.02533, -0.95773,
 14:09:21.981,ed:40:fe:65:30:6c, 2015-01-01 00:32:26.505, 0.395, -0.004, 0.924, 0.488, 0.305, 0.488, -0.022, -22.632, -136.044, -12.813, -9.040, -9.060, 26.21, -0.36646, 0.18222, 0.07321, 0.90942,
 14:09:21.981,ed:40:fe:65:30:6c, 2015-01-01 00:32:26.505, 0.398, -0.006, 0.924, 0.305, 0.061, 0.366, -0.016, -22.626, -136.027, -12.813, -9.040, -9.060, 26.21, -0.36646, 0.18222, 0.07321, 0.90942,
 14:09:21.985,ed:35:33:d3:6c:f8, 2015-01-01 00:32:14.565, 0.473, 0.025, 0.879, 0.244, 0.793, 0.732, 1.692, -27.839, 161.087, -12.707, -10.993, -29.813, 31, -0.15485, -0.24091, 0.02533, -0.95773,
 14:09:21.985,ed:35:33:d3:6c:f8, 2015-01-01 00:32:14.565, 0.464, 0.022, 0.877, 0.244, 1.831, 0.366, 1.697, -27.806, 161.098, -12.707, -10.993, -29.813, 31, -0.15485, -0.24091, 0.02533, -0.95773,
 14:09:21.992,f6:90:cc:01:6d:25, 2015-01-01 00:32:12.825, 0.863, 0.204, 0.442, 0.305, 0.244, 0.305, 24.439, -60.172, -174.88, -25.600, -15.140, -7.973, 32.41, -0.1441, 0.48123, 0.20496, 0.83994,
 14:09:21.992,f6:90:cc:01:6d:25, 2015-01-01 00:32:12.825, 0.869, 0.204, 0.441, 0.305, 0.244, 0.183, 24.434, -60.172, -174.875, -25.600, -15.140, -7.973, 32.41, -0.1441, 0.48123, 0.20496, 0.83994,
 14:09:22.010,ed:40:fe:65:30:6c, 2015-01-01 00:32:26.505, 0.386, -0.004, 0.925, 0.183, 0.061, 0.122, -0.016, -22.632, -136.022, -12.813, -9.040, -9.060, 26.21, -0.36646, 0.18222, 0.07321, 0.90942,
 14:09:22.010,ed:40:fe:65:30:6c, 2015-01-01 00:32:26.505, 0.38, -0.005, 0.928, 0.183, 0.488, 0.061, -0.016, -22.626, -136.016, -12.813, -9.040, -9.060, 26.21, -0.36646, 0.18222, 0.07321, 0.90942,
 14:09:22.014,e3:ca:2d:fd:e0:8c, 2015-01-01 00:32:15.585, 0.983, 0.068, 0.293, 0.244, 0, 0.183, 12.458, -72.543, 149.886, -24.847, -11.353, -11.113, 29.77, 0.1459, 0.59058, -0.06812, 0.79068,
 14:09:22.014,e3:ca:2d:fd:e0:8c, 2015-01-01 00:32:15.585, 0.98, 0.068, 0.293, 0.061, 0, 0, 12.458, -72.548, 149.881, -24.847, -11.353, -11.113, 29.77, 0.1459, 0.59058, -0.06812, 0.79068,
 14:09:22.020,f6:90:cc:01:6d:25, 2015-01-01 00:32:13.365, 0.862, 0.205, 0.442, 0.061, 0.305, 0, 24.434, -60.172, -174.869, -25.600, -15.140, -7.973, 32.41, -0.1441, 0.48123, 0.20496, 0.83994,
 14:09:22.020,f6:90:cc:01:6d:25, 2015-01-01 00:32:13.365, 0.851, 0.205, 0.44, -0.122, 0.366, 0, 24.428, -60.167, -174.869, -25.600, -15.140, -7.973, 32.41, -0.1441, 0.48123, 0.20496, 0.83994,
 14:09:22.044,e3:ca:2d:fd:e0:8c, 2015-01-01 00:32:15.585, 0.969, 0.067, 0.294, -0.061, 0.488, 0.061, 12.453, -72.543, 149.892, -24.847, -11.353, -11.113, 29.77, 0.14615, 0.59061, -0.06827, 0.79059,
 14:09:22.044,e3:ca:2d:fd:e0:8c, 2015-01-01 00:32:15.585, 0.973, 0.068, 0.294, -0.122, 0.061, -0.061, 12.448, -72.537, 149.897, -24.847, -11.353, -11.113, 29.77, 0.14615, 0.59061, -0.06827, 0.79059,
 14:09:22.046,ed:35:33:d3:6c:f8, 2015-01-01 00:32:14.565, 0.458, 0.028, 0.892, 1.099, 0.916, 0.366, 1.708, -27.79, 161.109, -12.707, -10.993, -29.813, 31, -0.15485, -0.24091, 0.02533, -0.95773,
 14:09:22.046,ed:35:33:d3:6c:f8, 2015-01-01 00:32:14.565, 0.46, 0.028, 0.886, 1.099, -1.038, 0.61, 1.725, -27.806, 161.104, -12.707, -10.993, -29.813, 31, -0.15485, -0.24091, 0.02533, -0.95773,
 14:09:22.050,f6:90:cc:01:6d:25, 2015-01-01 00:32:13.365, 0.854, 0.205, 0.438, -0.427, 0.305, 0, 24.423, -60.167, -174.869, -25.600, -15.140, -7.973, 32.41, -0.1441, 0.48123, 0.20496, 0.83994,
 14:09:22.050,f6:90:cc:01:6d:25, 2015-01-01 00:32:13.365, 0.859, 0.204, 0.443, -0.732, 0.122, -0.122, 24.412, -60.167, -174.869, -25.600, -15.140, -7.973, 32.41, -0.1441, 0.48123, 0.20496, 0.83994,
 14:09:22.071,ed:40:fe:65:30:6c, 2015-01-01 00:32:26.505, 0.386, -0.006, 0.924, -0.183, 0.183, -0.183, -0.016, -22.621, -136.016, -12.813, -9.040, -9.060, 26.21, -0.36646, 0.18222, 0.07321, 0.90942,
 14:09:22.071,ed:40:fe:65:30:6c, 2015-01-01 00:32:26.505, 0.391, -0.005, 0.918, -0.061, 0.122, -0.427, -0.022, -22.621, -136.022, -12.813, -9.040, -9.060, 26.21, -0.36646, 0.18222, 0.07321, 0.90942,
 14:09:22.073,e3:ca:2d:fd:e0:8c, 2015-01-01 00:32:15.585, 0.976, 0.065, 0.295, -0.183, 0.061, -0.244, 12.458, -72.537, 149.886, -24.847, -11.353, -11.113, 29.77, 0.14615, 0.59061, -0.06827, 0.79059,
 14:09:22.073,e3:ca:2d:fd:e0:8c, 2015-01-01 00:32:15.585, 0.966, 0.062, 0.299, -0.244, 0.183, -0.305, 12.469, -72.537, 149.87, -24.847, -11.353, -11.113, 29.77, 0.14615, 0.59061, -0.06827, 0.79059,
 14:09:22.075,ed:35:33:d3:6c:f8, 2015-01-01 00:32:14.565, 0.465, 0.026, 0.875, 0.977, -1.221, 0.671, 1.741, -27.834, 161.093, -12.667, -10.687, -31.367, 31, -0.15485, -0.24091, 0.02533, -0.95773,
 14:09:22.075,ed:35:33:d3:6c:f8, 2015-01-01 00:32:14.565, 0.458, 0.025, 0.87, 0.305, -0.061, 0.122, 1.747, -27.834, 161.06, -12.667, -10.687, -31.367, 31, -0.15485, -0.24091, 0.02533, -0.95773,
 14:09:22.101,ed:40:fe:65:30:6c, 2015-01-01 00:32:26.505, 0.381, -0.004, 0.918, 0, 0, -0.488, -0.022, -22.621, -136.033, -12.813, -9.040, -9.060, 26.21, -0.36646, 0.18222, 0.07321, 0.90942,
 14:09:22.101,ed:40:fe:65:30:6c, 2015-01-01 00:32:26.505, 0.374, -0.007, 0.932, 0.183, 0, -0.488, -0.016, -22.621, -136.038, -12.813, -9.040, -9.060, 26.21, -0.36646, 0.18222, 0.07321, 0.90942,
 14:09:22.107,ed:35:33:d3:6c:f8, 2015-01-01 00:32:14.565, 0.457, 0.024, 0.891, 1.404, -0.61, -0.061, 1.774, -27.845, 161.049, -12.667, -10.687, -31.367, 31, -0.15485, -0.24091, 0.02533, -0.95773,
 14:09:22.107,ed:35:33:d3:6c:f8, 2015-01-01 00:32:14.565, 0.461, 0.032, 0.885, 0.244, -2.014, -0.549, 1.785, -27.883, 161.021, -12.667, -10.687, -31.367, 31, -0.15485, -0.24091, 0.02533, -0.95773,
 14:09:22.110,f6:90:cc:01:6d:25, 2015-01-01 00:32:13.365, 0.86, 0.198, 0.443, -0.549, 0.366, -0.244, 24.406, -60.161, -174.88, -25.600, -15.140, -7.973, 32.41, -0.1441, 0.48123, 0.20496, 0.83994,
 14:09:22.110,f6:90:cc:01:6d:25, 2015-01-01 00:32:13.365, 0.849, 0.198, 0.445, -0.549, 0.488, -0.244, 24.395, -60.156, -174.88, -25.600, -15.140, -7.973, 32.41, -0.1441, 0.48123, 0.20496, 0.83994,
 14:09:22.130,ed:40:fe:65:30:6c, 2015-01-01 00:32:26.505, 0.387, -0.009, 0.924, 0, -0.427, -0.427, -0.016, -22.626, -136.049, -12.860, -8.640, -8.740, 26.21, -0.36646, 0.18222, 0.07321, 0.90942,
 14:09:22.130,ed:40:fe:65:30:6c, 2015-01-01 00:32:26.505, 0.386, -0.009, 0.919, 0.305, -0.488, 0, -0.016, -22.637, -136.049, -12.860, -8.640, -8.740, 26.21, -0.36646, 0.18222, 0.07321, 0.90942,
 14:09:22.134,e3:ca:2d:fd:e0:8c, 2015-01-01 00:32:15.945, 0.965, 0.063, 0.298, 0, 0.366, -0.305, 12.486, -72.532, 149.854, -24.847, -11.353, -11.113, 29.77, 0.14615, 0.59061, -0.06827, 0.79059,
 14:09:22.134,e3:ca:2d:fd:e0:8c, 2015-01-01 00:32:15.945, 0.975, 0.062, 0.297, 0, -0.183, -0.305, 12.502, -72.532, 149.832, -24.847, -11.353, -11.113, 29.77, 0.14615, 0.59061, -0.06827, 0.79059,
 14:09:22.142,f6:90:cc:01:6d:25, 2015-01-01 00:32:13.365, 0.854, 0.197, 0.446, -0.427, 0.366, -0.244, 24.39, -60.15, -174.886, -25.600, -15.140, -7.973, 32.41, -0.1441, 0.48123, 0.20496, 0.83994,
 14:09:22.142,f6:90:cc:01:6d:25, 2015-01-01 00:32:13.365, 0.859, 0.194, 0.447, -0.305, 0.427, -0.366, 24.39, -60.139, -174.897, -25.600, -15.140, -7.973, 32.41, -0.1441, 0.48123, 0.20496, 0.83994,
 14:09:22.164,e3:ca:2d:fd:e0:8c, 2015-01-01 00:32:15.945, 0.972, 0.062, 0.299, 0.305, -0.488, -0.427, 12.524, -72.537, 149.804, -24.847, -11.353, -11.113, 29.77, 0.14615, 0.59061, -0.06827, 0.79059,
 14:09:22.164,e3:ca:2d:fd:e0:8c, 2015-01-01 00:32:15.945, 0.972, 0.062, 0.299, 0.549, -0.549, -0.244, 12.563, -72.543, 149.771, -24.847, -11.353, -11.113, 29.77, 0.14615, 0.59061, -0.06827, 0.79059,
 14:09:22.168,ed:35:33:d3:6c:f8, 2015-01-01 00:32:14.565, 0.466, 0.029, 0.871, 0.061, -0.671, 0.671, 1.78, -27.894, 161.01, -12.667, -10.687, -31.367, 31, -0.15625, -0.24008, 0.02478, -0.95773,
 14:09:22.168,ed:35:33:d3:6c:f8, 2015-01-01 00:32:14.565, 0.458, 0.026, 0.877, 0.977, -0.366, 0.916, 1.791, -27.9, 161.005, -12.667, -10.687, -31.367, 31, -0.15625, -0.24008, 0.02478, -0.95773,
 14:09:22.170,f6:90:cc:01:6d:25, 2015-01-01 00:32:13.365, 0.857, 0.199, 0.447, 0, 0.732, -0.427, 24.39, -60.128, -174.908, -25.600, -15.140, -7.973, 32.41, -0.1441, 0.48123, 0.20496, 0.83994,
 14:09:22.170,f6:90:cc:01:6d:25, 2015-01-01 00:32:13.365, 0.856, 0.198, 0.449, 0.366, 0.854, -0.244, 24.39, -60.112, -174.902, -25.600, -15.140, -7.973, 32.41, -0.1441, 0.48123, 0.20496, 0.83994,
 14:09:22.192,ed:40:fe:65:30:6c, 2015-01-01 00:32:26.505, 0.382, 0, 0.921, 0.305, -0.427, -0.061, -0.016, -22.643, -136.049, -12.860, -8.640, -8.740, 26.21, -0.36646, 0.18222, 0.07321, 0.90942,
 14:09:22.192,ed:40:fe:65:30:6c, 2015-01-01 00:32:26.505, 0.383, 0, 0.922, 0.427, 0.122, -0.061, -0.011, -22.648, -136.049, -12.860, -8.640, -8.740, 26.21, -0.36646, 0.18222, 0.07321, 0.90942,
 14:09:22.193,e3:ca:2d:fd:e0:8c, 2015-01-01 00:32:15.945, 0.973, 0.063, 0.3, 0.549, -0.427, -0.061, 12.585, -72.554, 149.749, -24.847, -11.353, -11.113, 29.77, 0.14615, 0.59061, -0.06827, 0.79059,
 14:09:22.193,e3:ca:2d:fd:e0:8c, 2015-01-01 00:32:15.945, 0.97, 0.062, 0.297, 0.61, -0.305, 0, 12.601, -72.565, 149.738, -24.847, -11.353, -11.113, 29.77, 0.14615, 0.59061, -0.06827, 0.79059,
 14:09:22.197,ed:35:33:d3:6c:f8, 2015-01-01 00:32:14.920, 0.456, 0.032, 0.875, 0.671, -0.366, 0.122, 1.802, -27.905, 160.988, -12.667, -10.687, -31.367, 31, -0.15625, -0.24008, 0.02478, -0.95773,
 14:09:22.197,ed:35:33:d3:6c:f8, 2015-01-01 00:32:14.920, 0.463, 0.033, 0.884, 0.732, -1.038, -0.427, 1.824, -27.922, 160.977, -12.667, -10.687, -31.367, 31, -0.15625, -0.24008, 0.02478, -0.95773,
 14:09:22.219,ed:40:fe:65:30:6c, 2015-01-01 00:32:26.505, 0.385, -0.004, 0.926, 0.732, 0.488, 0.061, 0, -22.643, -136.044, -12.860, -8.640, -8.740, 26.21, -0.36685, 0.18213, 0.07336, 0.90927,
 14:09:22.219,ed:40:fe:65:30:6c, 2015-01-01 00:32:26.505, 0.385, -0.008, 0.924, 0.732, 0.244, 0.427, 0, -22.632, -136.038, -12.860, -8.640, -8.740, 26.21, -0.36685, 0.18213, 0.07336, 0.90927,
 14:09:22.226,ed:35:33:d3:6c:f8, 2015-01-01 00:32:14.920, 0.466, 0.03, 0.88, 0.854, -1.526, 0, 1.84, -27.949, 160.988, -12.667, -10.687, -31.367, 31, -0.15625, -0.24008, 0.02478, -0.95773,
 14:09:22.226,ed:35:33:d3:6c:f8, 2015-01-01 00:32:14.920, 0.47, 0.029, 0.874, 0.488, -1.587, 0.854, 1.846, -27.977, 161.032, -12.667, -10.687, -31.367, 31, -0.15625, -0.24008, 0.02478, -0.95773,
 14:09:22.230,f6:90:cc:01:6d:25, 2015-01-01 00:32:13.365, 0.857, 0.2, 0.448, 0.366, 0.854, 0, 24.379, -60.101, -174.891, -25.600, -15.140, -7.973, 32.41, -0.1441, 0.48123, 0.20496, 0.83994,
 14:09:22.230,f6:90:cc:01:6d:25, 2015-01-01 00:32:13.365, 0.854, 0.197, 0.449, 0.366, 0.671, 0.061, 24.373, -60.09, -174.88, -25.600, -15.140, -7.973, 32.41, -0.1441, 0.48123, 0.20496, 0.83994,
 14:09:22.250,ed:40:fe:65:30:6c, 2015-01-01 00:32:26.505, 0.39, -0.003, 0.923, 0.488, 0, 0.488, 0.005, -22.632, -136.027, -12.860, -8.640, -8.740, 26.21, -0.36685, 0.18213, 0.07336, 0.90927,
 14:09:22.250,ed:40:fe:65:30:6c, 2015-01-01 00:32:26.505, 0.393, 0.001, 0.922, 0.122, 0.671, 0.061, 0.005, -22.626, -136.022, -12.860, -8.640, -8.740, 26.21, -0.36685, 0.18213, 0.07336, 0.90927,
 14:09:22.256,e3:ca:2d:fd:e0:8c, 2015-01-01 00:32:15.945, 0.975, 0.066, 0.296, 0.61, -0.61, 0.122, 12.607, -72.57, 149.733, -24.847, -11.353, -11.113, 29.77, 0.14615, 0.59061, -0.06827, 0.79059,
 14:09:22.256,e3:ca:2d:fd:e0:8c, 2015-01-01 00:32:15.945, 0.979, 0.073, 0.296, 0.488, -0.671, 0, 12.618, -72.587, 149.727, -24.847, -11.353, -11.113, 29.77, 0.14615, 0.59061, -0.06827, 0.79059,
 14:09:22.260,f6:90:cc:01:6d:25, 2015-01-01 00:32:13.365, 0.858, 0.204, 0.447, -0.061, 0.732, 0.061, 24.357, -60.079, -174.869, -25.093, -14.940, -8.193, 32.41, -0.1441, 0.48123, 0.20496, 0.83994,
 14:09:22.260,f6:90:cc:01:6d:25, 2015-01-01 00:32:13.365, 0.864, 0.21, 0.447, 0.244, 0.549, 0, 24.351, -60.073, -174.864, -25.093, -14.940, -8.193, 32.41, -0.1441, 0.48123, 0.20496, 0.83994,
 14:09:22.284,e3:ca:2d:fd:e0:8c, 2015-01-01 00:32:15.945, 0.981, 0.069, 0.294, 0.366, -0.61, 0, 12.634, -72.598, 149.716, -24.847, -11.353, -11.113, 29.77, 0.14615, 0.59061, -0.06827, 0.79059,
 14:09:22.284,e3:ca:2d:fd:e0:8c, 2015-01-01 00:32:15.945, 0.975, 0.064, 0.295, 0.549, -0.305, 0, 12.651, -72.609, 149.711, -24.847, -11.353, -11.113, 29.77, 0.14615, 0.59061, -0.06827, 0.79059,
 14:09:22.286,ed:35:33:d3:6c:f8, 2015-01-01 00:32:14.920, 0.471, 0.032, 0.871, 0.122, 0.366, 0.854, 1.84, -27.966, 161.082, -12.667, -10.687, -31.367, 31, -0.15625, -0.24008, 0.02478, -0.95773,
 14:09:22.286,ed:35:33:d3:6c:f8, 2015-01-01 00:32:14.920, 0.469, 0.031, 0.877, 0.183, 1.16, -0.061, 1.846, -27.944, 161.104, -12.667, -10.687, -31.367, 31, -0.15625, -0.24008, 0.02478, -0.95773,
 14:09:22.290,f6:90:cc:01:6d:25, 2015-01-01 00:32:13.365, 0.864, 0.204, 0.446, 0.366, 0.549, -0.061, 24.351, -60.062, -174.864, -25.093, -14.940, -8.193, 32.41, -0.1441, 0.48123, 0.20496, 0.83994,
 14:09:22.290,f6:90:cc:01:6d:25, 2015-01-01 00:32:13.365, 0.858, 0.2, 0.444, 0.183, 0.671, 0, 24.346, -60.051, -174.853, -25.093, -14.940, -8.193, 32.41, -0.1441, 0.48123, 0.20496, 0.83994,
 14:09:22.310,ed:40:fe:65:30:6c, 2015-01-01 00:32:26.865, 0.389, 0.001, 0.926, 0, 0.854, -0.061, 0.005, -22.61, -136.016, -12.860, -8.640, -8.740, 26.21, -0.36685, 0.18213, 0.07336, 0.90927,
 14:09:22.310,ed:40:fe:65:30:6c, 2015-01-01 00:32:26.865, 0.389, 0, 0.929, 0.305, 0.916, 0.244, 0.005, -22.593, -136.016, -12.860, -8.640, -8.740, 26.21, -0.36685, 0.18213, 0.07336, 0.90927,
 14:09:22.314,e3:ca:2d:fd:e0:8c, 2015-01-01 00:32:15.945, 0.978, 0.065, 0.291, 0.488, -0.122, 0.183, 12.662, -72.614, 149.705, -25.413, -11.560, -10.187, 29.77, 0.14615, 0.59061, -0.06827, 0.79059,
 14:09:22.314,e3:ca:2d:fd:e0:8c, 2015-01-01 00:32:15.945, 0.979, 0.069, 0.292, 0.549, -0.061, 0.244, 12.656, -72.62, 149.716, -25.413, -11.560, -10.187, 29.77, 0.14615, 0.59061, -0.06827, 0.79059,
 14:09:22.316,ed:35:33:d3:6c:f8, 2015-01-01 00:32:14.920, 0.468, 0.037, 0.884, 0, 0.671, -0.122, 1.846, -27.933, 161.125, -12.667, -10.687, -31.367, 31, -0.15625, -0.24008, 0.02478, -0.95773,
 14:09:22.316,ed:35:33:d3:6c:f8, 2015-01-01 00:32:14.920, 0.47, 0.032, 0.886, 0.61, -0.305, 0.427, 1.857, -27.938, 161.153, -12.667, -10.687, -31.367, 31, -0.15625, -0.24008, 0.02478, -0.95773,
 14:09:22.340,ed:40:fe:65:30:6c, 2015-01-01 00:32:26.865, 0.392, -0.002, 0.927, 0.732, 0.366, 0.61, 0.011, -22.582, -136.005, -12.860, -8.640, -8.740, 26.21, -0.36685, 0.18213, 0.07336, 0.90927,
 14:09:22.340,ed:40:fe:65:30:6c, 2015-01-01 00:32:26.865, 0.388, -0.003, 0.925, 0.854, 0.244, 0.549, 0.022, -22.577, -135.989, -12.860, -8.640, -8.740, 26.21, -0.36685, 0.18213, 0.07336, 0.90927,
 14:09:22.346,ed:35:33:d3:6c:f8, 2015-01-01 00:32:14.920, 0.47, 0.028, 0.88, 1.16, -0.549, 0.366, 1.879, -27.949, 161.153, -12.667, -10.687, -31.367, 31, -0.15625, -0.24008, 0.02478, -0.95773,
 14:09:22.346,ed:35:33:d3:6c:f8, 2015-01-01 00:32:14.920, 0.465, 0.033, 0.878, 0.549, 0.122, 0.061, 1.89, -27.944, 161.147, -12.667, -10.687, -31.367, 31, -0.15625, -0.24008, 0.02478, -0.95773,
 14:09:22.351,f6:90:cc:01:6d:25, 2015-01-01 00:32:13.365, 0.862, 0.2, 0.441, 0, 0.61, 0.244, 24.329, -60.046, -174.836, -25.093, -14.940, -8.193, 32.41, -0.14337, 0.48047, 0.20432, 0.84067,
 14:09:22.351,f6:90:cc:01:6d:25, 2015-01-01 00:32:13.365, 0.862, 0.205, 0.444, 0, 0.671, 0.244, 24.313, -60.04, -174.82, -25.093, -14.940, -8.193, 32.41, -0.14337, 0.48047, 0.20432, 0.84067,
 14:09:22.369,ed:40:fe:65:30:6c, 2015-01-01 00:32:26.865, 0.381, 0, 0.925, 0.61, 0.427, 0.305, 0.027, -22.571, -135.978, -12.860, -8.640, -8.740, 26.21, -0.36685, 0.18213, 0.07336, 0.90927,
 14:09:22.369,ed:40:fe:65:30:6c, 2015-01-01 00:32:26.865, 0.381, -0.001, 0.923, 0.793, 0.427, 0.305, 0.038, -22.566, -135.967, -12.860, -8.640, -8.740, 26.21, -0.36685, 0.18213, 0.07336, 0.90927,
 14:09:22.373,e3:ca:2d:fd:e0:8c, 2015-01-01 00:32:15.945, 0.972, 0.07, 0.293, 0.305, 0.061, 0.122, 12.656, -72.625, 149.727, -25.413, -11.560, -10.187, 29.77, 0.14615, 0.59061, -0.06827, 0.79059,
 14:09:22.373,e3:ca:2d:fd:e0:8c, 2015-01-01 00:32:15.945, 0.968, 0.066, 0.292, 0.305, 0.183, 0.061, 12.656, -72.625, 149.733, -25.413, -11.560, -10.187, 29.77, 0.14615, 0.59061, -0.06827, 0.79059,
 14:09:22.380,f6:90:cc:01:6d:25, 2015-01-01 00:32:13.720, 0.854, 0.205, 0.448, 0.061, 0.61, 0.061, 24.307, -60.035, -174.814, -25.093, -14.940, -8.193, 32.41, -0.14337, 0.48047, 0.20432, 0.84067,
 14:09:22.380,f6:90:cc:01:6d:25, 2015-01-01 00:32:13.720, 0.852, 0.202, 0.446, 0.122, 0.61, 0.122, 24.296, -60.029, -174.798, -25.093, -14.940, -8.193, 32.41, -0.14337, 0.48047, 0.20432, 0.84067,
 14:09:22.403,e3:ca:2d:fd:e0:8c, 2015-01-01 00:32:15.945, 0.972, 0.065, 0.294, 0.244, -0.122, 0.122, 12.656, -72.625, 149.738, -25.413, -11.560, -10.187, 29.77, 0.14606, 0.59134, -0.0679, 0.7901,
 14:09:22.403,e3:ca:2d:fd:e0:8c, 2015-01-01 00:32:15.945, 0.972, 0.066, 0.296, 0.244, -0.244, 0.183, 12.656, -72.631, 149.744, -25.413, -11.560, -10.187, 29.77, 0.14606, 0.59134, -0.0679, 0.7901,
 14:09:22.406,ed:35:33:d3:6c:f8, 2015-01-01 00:32:14.920, 0.459, 0.034, 0.882, 0.732, -0.244, 0.305, 1.906, -27.949, 161.147, -12.667, -10.687, -31.367, 31, -0.15625, -0.24008, 0.02478, -0.95773,
 14:09:22.406,ed:35:33:d3:6c:f8, 2015-01-01 00:32:14.920, 0.463, 0.031, 0.88, 0.732, -0.732, 0.427, 1.917, -27.966, 161.147, -12.667, -10.687, -31.367, 31, -0.15625, -0.24008, 0.02478, -0.95773,
 14:09:22.410,f6:90:cc:01:6d:25, 2015-01-01 00:32:13.720, 0.855, 0.2, 0.448, 0.061, 0.366, 0.183, 24.291, -60.024, -174.792, -25.093, -14.940, -8.193, 32.41, -0.14337, 0.48047, 0.20432, 0.84067,
 14:09:22.410,f6:90:cc:01:6d:25, 2015-01-01 00:32:13.720, 0.855, 0.2, 0.449, -0.061, 0.244, 0.183, 24.28, -60.024, -174.781, -25.093, -14.940, -8.193, 32.41, -0.14337, 0.48047, 0.20432, 0.84067,
 14:09:22.431,ed:40:fe:65:30:6c, 2015-01-01 00:32:26.865, 0.384, -0.006, 0.926, 0.671, 0.122, 0.305, 0.049, -22.56, -135.961, -12.860, -8.640, -8.740, 26.21, -0.36685, 0.18213, 0.07336, 0.90927,
 14:09:22.431,ed:40:fe:65:30:6c, 2015-01-01 00:32:26.865, 0.381, -0.007, 0.921, 0.488, 0.305, 0.305, 0.055, -22.56, -135.95, -12.860, -8.640, -8.740, 26.21, -0.36685, 0.18213, 0.07336, 0.90927,
 14:09:22.438,ed:35:33:d3:6c:f8, 2015-01-01 00:32:14.920, 0.46, 0.028, 0.874, 1.099, 0.122, 0.916, 1.928, -27.96, 161.153, -12.540, -10.880, -30.827, 31, -0.15625, -0.24008, 0.02478, -0.95773,
 14:09:22.438,ed:35:33:d3:6c:f8, 2015-01-01 00:32:14.920, 0.461, 0.031, 0.883, 0.61, -0.366, 1.343, 1.928, -27.966, 161.169, -12.540, -10.880, -30.827, 31, -0.15625, -0.24008, 0.02478, -0.95773,
 14:09:22.439,e3:ca:2d:fd:e0:8c, 2015-01-01 00:32:15.945, 0.973, 0.065, 0.297, 0.183, -0.183, 0.122, 12.656, -72.636, 149.749, -25.413, -11.560, -10.187, 29.77, 0.14606, 0.59134, -0.0679, 0.7901,
 14:09:22.439,e3:ca:2d:fd:e0:8c, 2015-01-01 00:32:15.945, 0.975, 0.065, 0.297, 0.244, -0.122, 0, 12.656, -72.642, 149.755, -25.413, -11.560, -10.187, 29.77, 0.14606, 0.59134, -0.0679, 0.7901,
 14:09:22.468,ed:35:33:d3:6c:f8, 2015-01-01 00:32:14.920, 0.464, 0.03, 0.875, 0.488, -0.488, 0.61, 1.934, -27.977, 161.169, -12.540, -10.880, -30.827, 31, -0.15625, -0.24008, 0.02478, -0.95773,
 14:09:22.468,ed:35:33:d3:6c:f8, 2015-01-01 00:32:14.920, 0.461, 0.028, 0.881, 1.16, -0.977, 0.488, 1.95, -27.993, 161.175, -12.540, -10.880, -30.827, 31, -0.15625, -0.24008, 0.02478, -0.95773,
 14:09:22.470,f6:90:cc:01:6d:25, 2015-01-01 00:32:13.720, 0.858, 0.2, 0.449, -0.183, 0.305, 0.061, 24.269, -60.024, -174.781, -25.093, -14.940, -8.193, 32.41, -0.14337, 0.48047, 0.20432, 0.84067,
 14:09:22.470,f6:90:cc:01:6d:25, 2015-01-01 00:32:13.720, 0.856, 0.199, 0.449, -0.122, 0.671, 0.061, 24.258, -60.018, -174.771, -25.093, -14.940, -8.193, 32.41, -0.14337, 0.48047, 0.20432, 0.84067,
 14:09:22.492,ed:40:fe:65:30:6c, 2015-01-01 00:32:26.865, 0.386, -0.003, 0.926, 0.427, 0, 0.244, 0.06, -22.555, -135.945, -12.860, -8.640, -8.740, 26.21, -0.36685, 0.18213, 0.07336, 0.90927,
 14:09:22.492,ed:40:fe:65:30:6c, 2015-01-01 00:32:26.865, 0.385, -0.004, 0.92, 0.488, 0.305, 0.183, 0.06, -22.555, -135.939, -12.860, -8.640, -8.740, 26.21, -0.36685, 0.18213, 0.07336, 0.90927,
 14:09:22.492,ed:40:fe:65:30:6c, 2015-01-01 00:32:26.865, 0.38, -0.008, 0.926, 0.427, 0.549, 0.061, 0.066, -22.549, -135.934, -12.860, -8.640, -8.740, 26.21, -0.36685, 0.18213, 0.07336, 0.90927,
 14:09:22.492,ed:40:fe:65:30:6c, 2015-01-01 00:32:26.865, 0.378, -0.009, 0.929, 0.366, 0.732, -0.061, 0.071, -22.533, -135.934, -12.860, -8.640, -8.740, 26.21, -0.36685, 0.18213, 0.07336, 0.90927,
 14:09:22.494,e3:ca:2d:fd:e0:8c, 2015-01-01 00:32:16.300, 0.975, 0.064, 0.297, 0.366, 0, 0, 12.662, -72.642, 149.749, -25.413, -11.560, -10.187, 29.77, 0.14606, 0.59134, -0.0679, 0.7901,
 14:09:22.494,e3:ca:2d:fd:e0:8c, 2015-01-01 00:32:16.300, 0.97, 0.067, 0.297, 0.244, -0.061, 0.061, 12.667, -72.647, 149.749, -25.413, -11.560, -10.187, 29.77, 0.14606, 0.59134, -0.0679, 0.7901,
 14:09:22.500,f6:90:cc:01:6d:25, 2015-01-01 00:32:13.720, 0.853, 0.201, 0.451, -0.305, 0.549, 0, 24.241, -60.007, -174.765, -25.093, -14.940, -8.193, 32.41, -0.14337, 0.48047, 0.20432, 0.84067,
 14:09:22.500,f6:90:cc:01:6d:25, 2015-01-01 00:32:13.720, 0.858, 0.2, 0.449, -0.427, 0.366, -0.122, 24.23, -60.002, -174.76, -25.093, -14.940, -8.193, 32.41, -0.14337, 0.48047, 0.20432, 0.84067,
 14:09:22.524,e3:ca:2d:fd:e0:8c, 2015-01-01 00:32:16.300, 0.974, 0.067, 0.295, 0, 0, -0.122, 12.673, -72.647, 149.749, -25.413, -11.560, -10.187, 29.77, 0.14606, 0.59134, -0.0679, 0.7901,
 14:09:22.524,e3:ca:2d:fd:e0:8c, 2015-01-01 00:32:16.300, 0.977, 0.063, 0.292, 0, -0.305, -0.244, 12.684, -72.647, 149.733, -25.413, -11.560, -10.187, 29.77, 0.14606, 0.59134, -0.0679, 0.7901,
 14:09:22.526,ed:35:33:d3:6c:f8, 2015-01-01 00:32:14.920, 0.46, 0.027, 0.884, 1.831, -2.136, 0.977, 1.978, -28.032, 161.213, -12.540, -10.880, -30.827, 31, -0.15454, -0.24127, 0.02319, -0.95773,
 14:09:22.526,ed:35:33:d3:6c:f8, 2015-01-01 00:32:14.920, 0.468, 0.025, 0.887, 0.977, -2.93, 0.671, 1.994, -28.087, 161.235, -12.540, -10.880, -30.827, 31, -0.15454, -0.24127, 0.02319, -0.95773,
 14:09:22.529,f6:90:cc:01:6d:25, 2015-01-01 00:32:13.720, 0.86, 0.194, 0.448, -0.244, 0.244, -0.305, 24.219, -59.991, -174.76, -25.093, -14.940, -8.193, 32.41, -0.14337, 0.48047, 0.20432, 0.84067,
 14:09:22.529,f6:90:cc:01:6d:25, 2015-01-01 00:32:13.720, 0.855, 0.198, 0.447, 0.122, 0.427, -0.366, 24.219, -59.985, -174.771, -25.093, -14.940, -8.193, 32.41, -0.14337, 0.48047, 0.20432, 0.84067,
 14:09:22.551,ed:40:fe:65:30:6c, 2015-01-01 00:32:26.865, 0.391, -0.007, 0.927, 0.244, 0.488, -0.427, 0.071, -22.522, -135.939, -12.667, -9.080, -9.347, 26.21, -0.36685, 0.18213, 0.07336, 0.90927,
 14:09:22.551,ed:40:fe:65:30:6c, 2015-01-01 00:32:26.865, 0.387, -0.004, 0.921, 0.244, 0.488, -0.183, 0.077, -22.516, -135.945, -12.667, -9.080, -9.347, 26.21, -0.36685, 0.18213, 0.07336, 0.90927,
 14:09:22.553,e3:ca:2d:fd:e0:8c, 2015-01-01 00:32:16.300, 0.973, 0.062, 0.293, 0.061, -0.061, -0.305, 12.7, -72.653, 149.711, -25.413, -11.560, -10.187, 29.77, 0.14606, 0.59134, -0.0679, 0.7901,
 14:09:22.553,e3:ca:2d:fd:e0:8c, 2015-01-01 00:32:16.300, 0.974, 0.063, 0.291, 0.366, 0, -0.183, 12.717, -72.653, 149.694, -25.413, -11.560, -10.187, 29.77, 0.14606, 0.59134, -0.0679, 0.7901,
 14:09:22.557,ed:35:33:d3:6c:f8, 2015-01-01 00:32:15.280, 0.469, 0.034, 0.869, 0.061, -2.991, 0.183, 1.989, -28.147, 161.274, -12.540, -10.880, -30.827, 31, -0.15454, -0.24127, 0.02319, -0.95773,
 14:09:22.557,ed:35:33:d3:6c:f8, 2015-01-01 00:32:15.280, 0.472, 0.033, 0.873, 1.343, -2.441, 0.854, 2.01, -28.191, 161.351, -12.540, -10.880, -30.827, 31, -0.15454, -0.24127, 0.02319, -0.95773,
 14:09:22.579,ed:40:fe:65:30:6c, 2015-01-01 00:32:26.865, 0.383, 0, 0.922, 0.732, 0.61, 0, 0.082, -22.505, -135.945, -12.667, -9.080, -9.347, 26.21, -0.36795, 0.18057, 0.07388, 0.90909,
 14:09:22.579,ed:40:fe:65:30:6c, 2015-01-01 00:32:26.865, 0.386, 0, 0.922, 0.549, 0.854, -0.061, 0.093, -22.489, -135.939, -12.667, -9.080, -9.347, 26.21, -0.36795, 0.18057, 0.07388, 0.90909,
 14:09:22.589,f6:90:cc:01:6d:25, 2015-01-01 00:32:13.720, 0.856, 0.2, 0.443, 0.122, 0.549, -0.122, 24.225, -59.98, -174.776, -25.093, -14.940, -8.193, 32.41, -0.14337, 0.48047, 0.20432, 0.84067,
 14:09:22.589,f6:90:cc:01:6d:25, 2015-01-01 00:32:13.720, 0.859, 0.201, 0.445, -0.061, 0.61, -0.061, 24.219, -59.969, -174.776, -25.093, -14.940, -8.193, 32.41, -0.14337, 0.48047, 0.20432, 0.84067,
 14:09:22.610,ed:40:fe:65:30:6c, 2015-01-01 00:32:26.865, 0.39, -0.001, 0.928, 0.305, 0.427, -0.366, 0.099, -22.478, -135.945, -12.667, -9.080, -9.347, 26.21, -0.36795, 0.18057, 0.07388, 0.90909,
 14:09:22.610,ed:40:fe:65:30:6c, 2015-01-01 00:32:26.865, 0.385, -0.002, 0.92, 0.488, 0.61, -0.305, 0.104, -22.473, -135.95, -12.667, -9.080, -9.347, 26.21, -0.36795, 0.18057, 0.07388, 0.90909,
 14:09:22.614,e3:ca:2d:fd:e0:8c, 2015-01-01 00:32:16.300, 0.977, 0.065, 0.292, 0.366, -0.244, -0.122, 12.733, -72.658, 149.678, -25.413, -11.560, -10.187, 29.77, 0.14606, 0.59134, -0.0679, 0.7901,
 14:09:22.614,e3:ca:2d:fd:e0:8c, 2015-01-01 00:32:16.300, 0.974, 0.068, 0.291, 0.488, -0.061, -0.061, 12.75, -72.664, 149.667, -25.413, -11.560, -10.187, 29.77, 0.14606, 0.59134, -0.0679, 0.7901,
 14:09:22.616,ed:35:33:d3:6c:f8, 2015-01-01 00:32:15.280, 0.47, 0.032, 0.875, 1.16, -2.869, 0.671, 2.027, -28.246, 161.406, -12.540, -10.880, -30.827, 31, -0.15454, -0.24127, 0.02319, -0.95773,
 14:09:22.616,ed:35:33:d3:6c:f8, 2015-01-01 00:32:15.280, 0.475, 0.031, 0.88, 0.427, -4.272, -0.061, 2.038, -28.328, 161.45, -12.540, -10.880, -30.827, 31, -0.15454, -0.24127, 0.02319, -0.95773,
 14:09:22.620,f6:90:cc:01:6d:25, 2015-01-01 00:32:13.720, 0.856, 0.203, 0.446, -0.244, 0.793, -0.061, 24.208, -59.963, -174.771, -25.440, -15.213, -8.547, 32.41, -0.14337, 0.48047, 0.20432, 0.84067,
 14:09:22.620,f6:90:cc:01:6d:25, 2015-01-01 00:32:13.720, 0.854, 0.203, 0.446, -0.305, 0.977, -0.122, 24.192, -59.952, -174.76, -25.440, -15.213, -8.547, 32.41, -0.14337, 0.48047, 0.20432, 0.84067,
 14:09:22.645,e3:ca:2d:fd:e0:8c, 2015-01-01 00:32:16.300, 0.971, 0.069, 0.292, 0.366, -0.061, -0.061, 12.761, -72.664, 149.661, -25.413, -11.560, -10.187, 29.77, 0.14606, 0.59134, -0.0679, 0.7901,
 14:09:22.645,e3:ca:2d:fd:e0:8c, 2015-01-01 00:32:16.300, 0.974, 0.068, 0.292, 0.488, -0.122, -0.183, 12.777, -72.669, 149.65, -25.413, -11.560, -10.187, 29.77, 0.14606, 0.59134, -0.0679, 0.7901,
 14:09:22.647,ed:35:33:d3:6c:f8, 2015-01-01 00:32:15.280, 0.474, 0.032, 0.869, 0.122, -4.639, -0.732, 2.049, -28.416, 161.483, -12.540, -10.880, -30.827, 31, -0.15454, -0.24127, 0.02319, -0.95773,
 14:09:22.647,ed:35:33:d3:6c:f8, 2015-01-01 00:32:15.280, 0.47, 0.032, 0.869, 0.854, -5.188, -0.366, 2.071, -28.515, 161.494, -12.540, -10.880, -30.827, 31, -0.15454, -0.24127, 0.02319, -0.95773,
 14:09:22.651,f6:90:cc:01:6d:25, 2015-01-01 00:32:13.720, 0.856, 0.203, 0.446, -0.183, 1.221, -0.183, 24.175, -59.936, -174.754, -25.440, -15.213, -8.547, 32.41, -0.14337, 0.48047, 0.20432, 0.84067,
 14:09:22.651,f6:90:cc:01:6d:25, 2015-01-01 00:32:13.720, 0.859, 0.202, 0.451, -0.183, 1.038, -0.183, 24.164, -59.914, -174.754, -25.440, -15.213, -8.547, 32.41, -0.14337, 0.48047, 0.20432, 0.84067,
 14:09:22.670,ed:40:fe:65:30:6c, 2015-01-01 00:32:27.220, 0.38, -0.001, 0.921, 0.732, 0.61, -0.305, 0.121, -22.462, -135.956, -12.667, -9.080, -9.347, 26.21, -0.36795, 0.18057, 0.07388, 0.90909,
 14:09:22.670,ed:40:fe:65:30:6c, 2015-01-01 00:32:27.220, 0.381, 0.002, 0.927, 0.732, 0.732, -0.488, 0.132, -22.451, -135.967, -12.667, -9.080, -9.347, 26.21, -0.36795, 0.18057, 0.07388, 0.90909,
 14:09:22.674,e3:ca:2d:fd:e0:8c, 2015-01-01 00:32:16.300, 0.978, 0.067, 0.293, 0.366, -0.122, -0.244, 12.799, -72.675, 149.639, -25.153, -11.420, -11.487, 29.77, 0.14606, 0.59134, -0.0679, 0.7901,
 14:09:22.674,e3:ca:2d:fd:e0:8c, 2015-01-01 00:32:16.300, 0.977, 0.064, 0.295, 0.305, -0.061, -0.122, 12.821, -72.675, 149.623, -25.153, -11.420, -11.487, 29.77, 0.14606, 0.59134, -0.0679, 0.7901,
 14:09:22.676,ed:35:33:d3:6c:f8, 2015-01-01 00:32:15.280, 0.48, 0.037, 0.879, 1.16, -7.08, 0.122, 2.093, -28.652, 161.51, -12.540, -10.880, -30.827, 31, -0.15454, -0.24127, 0.02319, -0.95773,
 14:09:22.676,ed:35:33:d3:6c:f8, 2015-01-01 00:32:15.280, 0.478, 0.038, 0.875, 0.793, -7.507, -0.305, 2.12, -28.795, 161.521, -12.540, -10.880, -30.827, 31, -0.15454, -0.24127, 0.02319, -0.95773,
 14:09:22.700,ed:40:fe:65:30:6c, 2015-01-01 00:32:27.220, 0.385, 0.001, 0.929, 0.732, 0.427, -0.366, 0.148, -22.44, -135.972, -12.667, -9.080, -9.347, 26.21, -0.36795, 0.18057, 0.07388, 0.90909,
 14:09:22.700,ed:40:fe:65:30:6c, 2015-01-01 00:32:27.220, 0.386, 0.002, 0.926, 0.671, 0.549, 0, 0.159, -22.434, -135.972, -12.667, -9.080, -9.347, 26.21, -0.36795, 0.18057, 0.07388, 0.90909,
 14:09:22.710,f6:90:cc:01:6d:25, 2015-01-01 00:32:13.720, 0.859, 0.197, 0.452, -0.183, 0.854, -0.061, 24.153, -59.897, -174.743, -25.440, -15.213, -8.547, 32.41, -0.14316, 0.47949, 0.20349, 0.84149,
 14:09:22.710,f6:90:cc:01:6d:25, 2015-01-01 00:32:13.720, 0.856, 0.199, 0.449, -0.061, 0.916, 0.061, 24.137, -59.886, -174.743, -25.440, -15.213, -8.547, 32.41, -0.14316, 0.47949, 0.20349, 0.84149,
 14:09:22.730,ed:40:fe:65:30:6c, 2015-01-01 00:32:27.220, 0.384, 0.004, 0.926, 0.732, 0.671, 0.366, 0.17, -22.423, -135.967, -12.667, -9.080, -9.347, 26.21, -0.36795, 0.18057, 0.07388, 0.90909,
 14:09:22.730,ed:40:fe:65:30:6c, 2015-01-01 00:32:27.220, 0.39, 0.005, 0.924, 1.16, 0, 0.854, 0.181, -22.418, -135.95, -12.667, -9.080, -9.347, 26.21, -0.36795, 0.18057, 0.07388, 0.90909,
 14:09:22.734,e3:ca:2d:fd:e0:8c, 2015-01-01 00:32:16.300, 0.974, 0.065, 0.293, 0.305, 0.244, 0.061, 12.827, -72.675, 149.617, -25.153, -11.420, -11.487, 29.77, 0.14606, 0.59134, -0.0679, 0.7901,
 14:09:22.734,e3:ca:2d:fd:e0:8c, 2015-01-01 00:32:16.300, 0.976, 0.065, 0.292, 0.549, 0.244, 0.244, 12.816, -72.675, 149.634, -25.153, -11.420, -11.487, 29.77, 0.14606, 0.59134, -0.0679, 0.7901,
 14:09:22.736,ed:35:33:d3:6c:f8, 2015-01-01 00:32:15.280, 0.487, 0.041, 0.867, -0.061, -5.432, -0.244, 2.12, -28.9, 161.526, -12.540, -10.880, -30.827, 31, -0.15454, -0.24127, 0.02319, -0.95773,
 14:09:22.736,ed:35:33:d3:6c:f8, 2015-01-01 00:32:15.280, 0.49, 0.044, 0.871, -0.244, -4.517, 0.427, 2.12, -28.982, 161.537, -12.540, -10.880, -30.827, 31, -0.15454, -0.24127, 0.02319, -0.95773,
 14:09:22.740,f6:90:cc:01:6d:25, 2015-01-01 00:32:14.080, 0.857, 0.199, 0.45, 0.122, 1.16, 0.244, 24.12, -59.87, -174.743, -25.440, -15.213, -8.547, 32.41, -0.14316, 0.47949, 0.20349, 0.84149,
 14:09:22.740,f6:90:cc:01:6d:25, 2015-01-01 00:32:14.080, 0.858, 0.199, 0.445, 0.427, 1.465, 0.427, 24.099, -59.859, -174.705, -25.440, -15.213, -8.547, 32.41, -0.14316, 0.47949, 0.20349, 0.84149,
 14:09:22.764,e3:ca:2d:fd:e0:8c, 2015-01-01 00:32:16.300, 0.977, 0.066, 0.291, 0.671, 0.305, 0.488, 12.805, -72.675, 149.661, -25.153, -11.420, -11.487, 29.77, 0.14581, 0.59183, -0.06741, 0.78983,
 14:09:22.764,e3:ca:2d:fd:e0:8c, 2015-01-01 00:32:16.300, 0.97, 0.066, 0.293, 0.793, 0.122, 0.549, 12.783, -72.675, 149.694, -25.153, -11.420, -11.487, 29.77, 0.14581, 0.59183, -0.06741, 0.78983,
 14:09:22.766,ed:35:33:d3:6c:f8, 2015-01-01 00:32:15.280, 0.496, 0.04, 0.867, 1.038, -5.188, 0.977, 2.131, -29.081, 161.565, -13.527, -11.073, -30.613, 31, -0.15454, -0.24127, 0.02319, -0.95773,
 14:09:22.766,ed:35:33:d3:6c:f8, 2015-01-01 00:32:15.280, 0.485, 0.042, 0.853, 0.854, -1.587, 1.099, 2.142, -29.114, 161.581, -13.527, -11.073, -30.613, 31, -0.15454, -0.24127, 0.02319, -0.95773,
 14:09:22.790,ed:40:fe:65:30:6c, 2015-01-01 00:32:27.220, 0.386, 0.003, 0.92, 1.221, 0.061, 1.221, 0.198, -22.423, -135.923, -12.667, -9.080, -9.347, 26.21, -0.36795, 0.18057, 0.07388, 0.90909,
 14:09:22.790,ed:40:fe:65:30:6c, 2015-01-01 00:32:27.220, 0.37, 0.001, 0.924, 0.854, -0.122, 1.343, 0.203, -22.423, -135.89, -12.667, -9.080, -9.347, 26.21, -0.36795, 0.18057, 0.07388, 0.90909,
 14:09:22.794,e3:ca:2d:fd:e0:8c, 2015-01-01 00:32:16.300, 0.964, 0.068, 0.294, 0.916, 0.366, 0.427, 12.761, -72.675, 149.727, -25.153, -11.420, -11.487, 29.77, 0.14581, 0.59183, -0.06741, 0.78983,
 14:09:22.794,e3:ca:2d:fd:e0:8c, 2015-01-01 00:32:16.300, 0.977, 0.068, 0.293, 0.732, 0.183, 0.366, 12.75, -72.669, 149.76, -25.153, -11.420, -11.487, 29.77, 0.14581, 0.59183, -0.06741, 0.78983,
 14:09:22.796,ed:35:33:d3:6c:f8, 2015-01-01 00:32:15.280, 0.473, 0.039, 0.866, 0.977, 1.587, 2.258, 2.142, -29.081, 161.614, -13.527, -11.073, -30.613, 31, -0.15454, -0.24127, 0.02319, -0.95773,
 14:09:22.796,ed:35:33:d3:6c:f8, 2015-01-01 00:32:15.280, 0.478, 0.035, 0.874, 0.427, 0.305, 2.258, 2.131, -29.075, 161.658, -13.527, -11.073, -30.613, 31, -0.15454, -0.24127, 0.02319, -0.95773,
 14:09:22.800,f6:90:cc:01:6d:25, 2015-01-01 00:32:14.080, 0.85, 0.202, 0.449, 0.671, 1.77, 0.488, 24.071, -59.837, -174.655, -25.440, -15.213, -8.547, 32.41, -0.14316, 0.47949, 0.20349, 0.84149,
 14:09:22.800,f6:90:cc:01:6d:25, 2015-01-01 00:32:14.080, 0.843, 0.206, 0.452, 0.244, 1.77, 0.488, 24.044, -59.81, -174.595, -25.440, -15.213, -8.547, 32.41, -0.14316, 0.47949, 0.20349, 0.84149,
 14:09:22.821,ed:40:fe:65:30:6c, 2015-01-01 00:32:27.220, 0.377, 0, 0.928, 0.183, 0.305, 0.916, 0.203, -22.423, -135.868, -12.667, -9.080, -9.347, 26.21, -0.36795, 0.18057, 0.07388, 0.90909,
 14:09:22.821,ed:40:fe:65:30:6c, 2015-01-01 00:32:27.220, 0.383, -0.001, 0.923, -0.122, 0.122, 0.244, 0.198, -22.418, -135.868, -12.667, -9.080, -9.347, 26.21, -0.36795, 0.18057, 0.07388, 0.90909,
 14:09:22.829,f6:90:cc:01:6d:25, 2015-01-01 00:32:14.080, 0.856, 0.205, 0.452, -0.061, 1.465, 0.61, 24.005, -59.788, -174.529, -25.440, -15.213, -8.547, 32.41, -0.14316, 0.47949, 0.20349, 0.84149,
 14:09:22.829,f6:90:cc:01:6d:25, 2015-01-01 00:32:14.080, 0.858, 0.202, 0.458, -0.305, 1.038, 0.61, 23.967, -59.771, -174.479, -25.440, -15.213, -8.547, 32.41, -0.14316, 0.47949, 0.20349, 0.84149,
 14:09:22.852,ed:40:fe:65:30:6c, 2015-01-01 00:32:27.220, 0.376, -0.007, 0.932, -0.183, 0, -0.061, 0.192, -22.418, -135.901, -12.740, -9.540, -8.600, 26.21, -0.36795, 0.18057, 0.07388, 0.90909,
 14:09:22.852,ed:40:fe:65:30:6c, 2015-01-01 00:32:27.220, 0.379, -0.005, 0.935, 0.122, -0.427, 0.061, 0.187, -22.423, -135.934, -12.740, -9.540, -8.600, 26.21, -0.36795, 0.18057, 0.07388, 0.90909,
 14:09:22.854,e3:ca:2d:fd:e0:8c, 2015-01-01 00:32:16.660, 0.978, 0.068, 0.296, 0.549, -0.183, 0.305, 12.744, -72.675, 149.777, -25.153, -11.420, -11.487, 29.77, 0.14581, 0.59183, -0.06741, 0.78983,
 14:09:22.854,e3:ca:2d:fd:e0:8c, 2015-01-01 00:32:16.660, 0.973, 0.066, 0.296, 0.366, 0, 0.122, 12.744, -72.68, 149.788, -25.153, -11.420, -11.487, 29.77, 0.14581, 0.59183, -0.06741, 0.78983,
 14:09:22.857,ed:35:33:d3:6c:f8, 2015-01-01 00:32:15.280, 0.481, 0.029, 0.867, -0.427, 0.427, 1.648, 2.104, -29.064, 161.691, -13.527, -11.073, -30.613, 31, -0.14954, -0.25061, 0.02222, -0.95615,
 14:09:22.857,ed:35:33:d3:6c:f8, 2015-01-01 00:32:15.280, 0.475, 0.026, 0.877, 0.427, 1.038, 0.61, 2.109, -29.042, 161.713, -13.527, -11.073, -30.613, 31, -0.14954, -0.25061, 0.02222, -0.95615,
 14:09:22.859,f6:90:cc:01:6d:25, 2015-01-01 00:32:14.080, 0.853, 0.194, 0.454, -0.732, 1.038, 0.244, 23.934, -59.76, -174.43, -25.440, -15.213, -8.547, 32.41, -0.14316, 0.47949, 0.20349, 0.84149,
 14:09:22.859,f6:90:cc:01:6d:25, 2015-01-01 00:32:14.080, 0.855, 0.2, 0.456, -0.427, 0.854, 0.244, 23.901, -59.744, -174.419, -25.440, -15.213, -8.547, 32.41, -0.14316, 0.47949, 0.20349, 0.84149,
 14:09:22.883,e3:ca:2d:fd:e0:8c, 2015-01-01 00:32:16.660, 0.976, 0.066, 0.294, 0.366, -0.061, 0.122, 12.744, -72.68, 149.799, -25.153, -11.420, -11.487, 29.77, 0.14581, 0.59183, -0.06741, 0.78983,
 14:09:22.883,e3:ca:2d:fd:e0:8c, 2015-01-01 00:32:16.660, 0.977, 0.069, 0.296, 0.366, -0.244, 0.183, 12.744, -72.686, 149.804, -25.153, -11.420, -11.487, 29.77, 0.14581, 0.59183, -0.06741, 0.78983,
 14:09:22.885,ed:35:33:d3:6c:f8, 2015-01-01 00:32:15.605, 0.478, 0.034, 0.884, 0.488, 0.671, 0.671, 2.115, -29.026, 161.741, -13.527, -11.073, -30.613, 31, -0.14954, -0.25061, 0.02222, -0.95615,
 14:09:22.885,ed:35:33:d3:6c:f8, 2015-01-01 00:32:15.605, 0.483, 0.034, 0.875, 0.244, -0.305, 1.221, 2.109, -29.031, 161.79, -13.527, -11.073, -30.613, 31, -0.14954, -0.25061, 0.02222, -0.95615,
 14:09:22.909,ed:40:fe:65:30:6c, 2015-01-01 00:32:27.220, 0.383, 0, 0.928, 0.488, -0.183, 0.122, 0.192, -22.429, -135.945, -12.740, -9.540, -8.600, 26.21, -0.36795, 0.18057, 0.07388, 0.90909,
 14:09:22.909,ed:40:fe:65:30:6c, 2015-01-01 00:32:27.220, 0.384, -0.001, 0.927, 0.732, 0, 0, 0.203, -22.429, -135.967, -12.740, -9.540, -8.600, 26.21, -0.36795, 0.18057, 0.07388, 0.90909,
