Time,Device name,Chip Time(),Acceleration X(g),Acceleration Y(g),Acceleration Z(g),Angular velocity X(°/s),Angular velocity Y(°/s),Angular velocity Z(°/s),Angle X(°),Angle Y(°),Angle Z(°),Magnetic field X(ʯt),Magnetic field Y(ʯt),Magnetic field Z(ʯt),Temperature(℃),Quaternions 0(),Quaternions 1(),Quaternions 2(),Quaternions 3()
 15:01:05.128,ed:40:fe:65:30:6c, 2015-01-01 02:46:25.505, 0.935, 0.002, 0.364, -0.244, 0.061, -0.183, 0.258, -68.725, -123.651, -27.407, -9.267, 3.980, 31.08, 0.39084, -0.49667, -0.26813, -0.72702,
 15:01:05.129,ed:40:fe:65:30:6c, 2015-01-01 02:46:25.505, 0.935, 0.002, 0.363, -0.183, 0, -0.061, 0.258, -68.725, -123.662, -27.407, -9.267, 3.980, 31.08, 0.39084, -0.49667, -0.26813, -0.72702,
 15:01:05.129,e3:ca:2d:fd:e0:8c, 2015-01-01 02:46:26.455, 0.878, -0.115, 0.503, 0, 0.366, 0, -12.673, -59.518, 167.58, -21.580, -7.233, -17.247, 28.8, -0.1478, -0.48007, 0.14862, -0.85175,
 15:01:05.129,e3:ca:2d:fd:e0:8c, 2015-01-01 02:46:26.455, 0.878, -0.114, 0.503, 0, 0.244, 0, -12.673, -59.513, 167.591, -21.580, -7.233, -17.247, 28.8, -0.1478, -0.48007, 0.14862, -0.85175,
 15:01:05.152,ed:35:33:d3:6c:f8, 2015-01-01 02:46:25.920, 0.926, 0.076, 0.353, -0.427, -0.671, 0.183, 12.195, -68.725, 138.856, -25.007, -11.233, -14.927, 32.66, -0.23148, -0.55612, 0.11417, -0.78992,
 15:01:05.152,ed:35:33:d3:6c:f8, 2015-01-01 02:46:25.920, 0.927, 0.076, 0.352, -0.305, -0.671, 0.305, 12.178, -68.741, 138.889, -25.007, -11.233, -14.927, 32.66, -0.23148, -0.55612, 0.11417, -0.78992,
 15:01:05.153,f6:90:cc:01:6d:25, 2015-01-01 02:46:25.240, 0.982, -0.044, -0.052, -0.427, 0, -0.305, -139.208, -86.089, -46.291, -30.593, -8.893, 0.960, 33.7, 0.01636, 0.72339, -0.05005, 0.68835,
 15:01:05.153,f6:90:cc:01:6d:25, 2015-01-01 02:46:25.240, 0.984, -0.043, -0.052, -0.366, -0.061, -0.244, -139.296, -86.089, -46.214, -30.593, -8.893, 0.960, 33.7, 0.01636, 0.72339, -0.05005, 0.68835,
 15:01:05.173,e3:ca:2d:fd:e0:8c, 2015-01-01 02:46:26.455, 0.878, -0.113, 0.505, 0, 0.305, 0, -12.673, -59.507, 167.602, -21.580, -7.233, -17.247, 28.8, -0.1478, -0.48007, 0.14862, -0.85175,
 15:01:05.173,e3:ca:2d:fd:e0:8c, 2015-01-01 02:46:26.455, 0.878, -0.114, 0.504, 0, 0.305, 0, -12.673, -59.502, 167.607, -21.580, -7.233, -17.247, 28.8, -0.1478, -0.48007, 0.14862, -0.85175,
 15:01:05.176,f6:90:cc:01:6d:25, 2015-01-01 02:46:25.240, 0.983, -0.043, -0.053, -0.366, 0, -0.244, -139.367, -86.089, -46.132, -30.593, -8.893, 0.960, 33.7, 0.01636, 0.72339, -0.05005, 0.68835,
 15:01:05.176,f6:90:cc:01:6d:25, 2015-01-01 02:46:25.240, 0.983, -0.044, -0.052, -0.305, 0.061, -0.244, -139.433, -86.094, -46.06, -30.593, -8.893, 0.960, 33.7, 0.01636, 0.72339, -0.05005, 0.68835,
 15:01:05.196,ed:40:fe:65:30:6c, 2015-01-01 02:46:25.505, 0.936, 0.002, 0.363, -0.122, 0.061, 0, 0.258, -68.725, -123.668, -27.407, -9.267, 3.980, 31.08, 0.39084, -0.49667, -0.26813, -0.72702,
 15:01:05.196,ed:40:fe:65:30:6c, 2015-01-01 02:46:25.505, 0.935, 0.002, 0.363, 0, 0, 0, 0.258, -68.725, -123.662, -27.407, -9.267, 3.980, 31.08, 0.39084, -0.49667, -0.26813, -0.72702,
 15:01:05.197,ed:35:33:d3:6c:f8, 2015-01-01 02:46:25.920, 0.926, 0.076, 0.352, -0.183, -0.671, 0.183, 12.173, -68.752, 138.906, -25.007, -11.233, -14.927, 32.66, -0.23148, -0.55612, 0.11417, -0.78992,
 15:01:05.197,ed:35:33:d3:6c:f8, 2015-01-01 02:46:25.920, 0.925, 0.076, 0.353, -0.122, -0.793, 0.183, 12.173, -68.769, 138.911, -25.007, -11.233, -14.927, 32.66, -0.23148, -0.55612, 0.11417, -0.78992,
 15:01:05.218,e3:ca:2d:fd:e0:8c, 2015-01-01 02:46:26.815, 0.878, -0.115, 0.504, 0, 0.366, 0, -12.673, -59.496, 167.618, -21.580, -7.233, -17.247, 28.8, -0.1478, -0.48007, 0.14862, -0.85175,
 15:01:05.218,e3:ca:2d:fd:e0:8c, 2015-01-01 02:46:26.815, 0.878, -0.115, 0.504, 0, 0.366, 0, -12.667, -59.491, 167.624, -21.580, -7.233, -17.247, 28.8, -0.1478, -0.48007, 0.14862, -0.85175,
 15:01:05.219,ed:40:fe:65:30:6c, 2015-01-01 02:46:25.865, 0.934, 0.002, 0.364, -0.061, 0, 0, 0.258, -68.725, -123.657, -27.407, -9.267, 3.980, 31.08, 0.39084, -0.49667, -0.26813, -0.72702,
 15:01:05.219,ed:40:fe:65:30:6c, 2015-01-01 02:46:25.865, 0.935, 0.002, 0.363, 0, 0, 0, 0.258, -68.73, -123.651, -27.407, -9.267, 3.980, 31.08, 0.39084, -0.49667, -0.26813, -0.72702,
 15:01:05.221,f6:90:cc:01:6d:25, 2015-01-01 02:46:25.240, 0.983, -0.044, -0.051, -0.305, 0, -0.244, -139.493, -86.094, -46, -30.593, -8.893, 0.960, 33.7, 0.01636, 0.72339, -0.05005, 0.68835,
 15:01:05.221,f6:90:cc:01:6d:25, 2015-01-01 02:46:25.240, 0.983, -0.044, -0.052, -0.305, -0.061, -0.183, -139.554, -86.094, -45.928, -30.593, -8.893, 0.960, 33.7, 0.01636, 0.72339, -0.05005, 0.68835,
 15:01:05.241,ed:40:fe:65:30:6c, 2015-01-01 02:46:25.865, 0.936, 0.001, 0.363, 0, 0, 0, 0.258, -68.73, -123.646, -27.407, -9.267, 3.980, 31.08, 0.39084, -0.49667, -0.26813, -0.72702,
 15:01:05.241,ed:40:fe:65:30:6c, 2015-01-01 02:46:25.865, 0.935, 0.001, 0.362, 0, 0.061, 0.061, 0.258, -68.73, -123.646, -27.407, -9.267, 3.980, 31.08, 0.39084, -0.49667, -0.26813, -0.72702,
 15:01:05.242,ed:35:33:d3:6c:f8, 2015-01-01 02:46:25.920, 0.926, 0.076, 0.352, -0.061, -0.732, 0.366, 12.162, -68.785, 138.928, -25.007, -11.233, -14.927, 32.66, -0.23148, -0.55612, 0.11417, -0.78992,
 15:01:05.242,ed:35:33:d3:6c:f8, 2015-01-01 02:46:25.920, 0.926, 0.075, 0.351, 0, -0.793, 0.366, 12.151, -68.802, 138.933, -25.007, -11.233, -14.927, 32.66, -0.23148, -0.55612, 0.11417, -0.78992,
 15:01:05.263,e3:ca:2d:fd:e0:8c, 2015-01-01 02:46:26.815, 0.878, -0.114, 0.503, 0, 0.305, 0, -12.667, -59.485, 167.635, -21.580, -7.233, -17.247, 28.8, -0.1478, -0.48007, 0.14862, -0.85175,
 15:01:05.263,e3:ca:2d:fd:e0:8c, 2015-01-01 02:46:26.815, 0.879, -0.115, 0.503, 0, 0.183, 0, -12.667, -59.48, 167.64, -21.580, -7.233, -17.247, 28.8, -0.1478, -0.48007, 0.14862, -0.85175,
 15:01:05.265,ed:35:33:d3:6c:f8, 2015-01-01 02:46:25.920, 0.927, 0.075, 0.349, 0, -0.732, 0.183, 12.151, -68.813, 138.922, -24.693, -11.260, -15.140, 32.66, -0.23148, -0.55612, 0.11417, -0.78992,
 15:01:05.265,ed:35:33:d3:6c:f8, 2015-01-01 02:46:25.920, 0.93, 0.075, 0.348, -0.061, -0.366, 0.122, 12.145, -68.824, 138.917, -24.693, -11.260, -15.140, 32.66, -0.23148, -0.55612, 0.11417, -0.78992,
 15:01:05.266,f6:90:cc:01:6d:25, 2015-01-01 02:46:25.240, 0.984, -0.043, -0.054, -0.427, -0.122, -0.122, -139.62, -86.094, -45.906, -30.593, -8.893, 0.960, 33.7, 0.01636, 0.72339, -0.05005, 0.68835,
 15:01:05.266,f6:90:cc:01:6d:25, 2015-01-01 02:46:25.240, 0.985, -0.041, -0.053, -0.427, 0, -0.061, -139.664, -86.094, -45.901, -30.593, -8.893, 0.960, 33.7, 0.01636, 0.72339, -0.05005, 0.68835,
 15:01:05.285,e3:ca:2d:fd:e0:8c, 2015-01-01 02:46:26.815, 0.878, -0.115, 0.504, -0.061, 0, 0, -12.667, -59.48, 167.651, -21.580, -7.233, -17.247, 28.8, -0.1478, -0.48007, 0.14862, -0.85175,
 15:01:05.285,e3:ca:2d:fd:e0:8c, 2015-01-01 02:46:26.815, 0.878, -0.115, 0.504, -0.061, 0.061, 0, -12.673, -59.48, 167.662, -21.580, -7.233, -17.247, 28.8, -0.1478, -0.48007, 0.14862, -0.85175,
 15:01:05.286,ed:40:fe:65:30:6c, 2015-01-01 02:46:25.865, 0.939, 0.002, 0.362, 0, 0.122, 0, 0.258, -68.725, -123.64, -27.407, -9.267, 3.980, 31.08, 0.39084, -0.49667, -0.26813, -0.72702,
 15:01:05.286,ed:40:fe:65:30:6c, 2015-01-01 02:46:25.865, 0.935, 0.003, 0.362, 0.366, 0.305, 0, 0.264, -68.719, -123.629, -27.407, -9.267, 3.980, 31.08, 0.39084, -0.49667, -0.26813, -0.72702,
 15:01:05.310,ed:35:33:d3:6c:f8, 2015-01-01 02:46:25.920, 0.927, 0.077, 0.349, 0.183, -0.183, 0.061, 12.151, -68.824, 138.911, -24.693, -11.260, -15.140, 32.66, -0.23148, -0.55612, 0.11417, -0.78992,
 15:01:05.310,ed:35:33:d3:6c:f8, 2015-01-01 02:46:25.920, 0.924, 0.072, 0.349, -0.183, -0.427, 0.488, 12.123, -68.835, 138.944, -24.693, -11.260, -15.140, 32.66, -0.23148, -0.55612, 0.11417, -0.78992,
 15:01:05.311,f6:90:cc:01:6d:25, 2015-01-01 02:46:25.240, 0.983, -0.043, -0.054, -0.244, -0.122, -0.061, -139.702, -86.094, -45.906, -31.240, -9.200, 0.193, 33.7, 0.01636, 0.72339, -0.05005, 0.68835,
 15:01:05.311,f6:90:cc:01:6d:25, 2015-01-01 02:46:25.240, 0.981, -0.046, -0.057, -0.305, 0, -0.183, -139.757, -86.094, -45.873, -31.240, -9.200, 0.193, 33.7, 0.01636, 0.72339, -0.05005, 0.68835,
 15:01:05.329,e3:ca:2d:fd:e0:8c, 2015-01-01 02:46:26.815, 0.878, -0.115, 0.504, 0, 0.183, 0, -12.673, -59.48, 167.673, -21.580, -7.233, -17.247, 28.8, -0.1478, -0.48007, 0.14862, -0.85175,
 15:01:05.329,e3:ca:2d:fd:e0:8c, 2015-01-01 02:46:26.815, 0.88, -0.114, 0.504, 0, 0.366, 0, -12.673, -59.474, 167.684, -21.580, -7.233, -17.247, 28.8, -0.1478, -0.48007, 0.14862, -0.85175,
 15:01:05.331,ed:40:fe:65:30:6c, 2015-01-01 02:46:25.865, 0.933, 0, 0.362, 0.183, 0.122, 0.122, 0.264, -68.719, -123.618, -27.407, -9.267, 3.980, 31.08, 0.39084, -0.49667, -0.26813, -0.72702,
 15:01:05.331,ed:40:fe:65:30:6c, 2015-01-01 02:46:25.865, 0.936, 0.001, 0.36, -0.183, 0.366, 0.183, 0.253, -68.714, -123.602, -27.407, -9.267, 3.980, 31.08, 0.39084, -0.49667, -0.26813, -0.72702,
 15:01:05.334,f6:90:cc:01:6d:25, 2015-01-01 02:46:25.240, 0.983, -0.042, -0.055, -0.427, 0.122, -0.305, -139.823, -86.094, -45.818, -31.240, -9.200, 0.193, 33.7, 0.01636, 0.72339, -0.05005, 0.68835,
 15:01:05.334,f6:90:cc:01:6d:25, 2015-01-01 02:46:25.240, 0.988, -0.039, -0.056, -0.305, 0.244, -0.061, -139.85, -86.1, -45.813, -31.240, -9.200, 0.193, 33.7, 0.01636, 0.72339, -0.05005, 0.68835,
 15:01:05.353,ed:40:fe:65:30:6c, 2015-01-01 02:46:25.865, 0.942, 0.005, 0.361, -0.183, 0.244, 0, 0.247, -68.708, -123.602, -27.407, -9.267, 3.980, 31.08, 0.39084, -0.49667, -0.26813, -0.72702,
 15:01:05.353,ed:40:fe:65:30:6c, 2015-01-01 02:46:25.865, 0.941, 0.007, 0.362, 0, 0.244, -0.183, 0.258, -68.708, -123.607, -27.407, -9.267, 3.980, 31.08, 0.39084, -0.49667, -0.26813, -0.72702,
 15:01:05.375,e3:ca:2d:fd:e0:8c, 2015-01-01 02:46:26.815, 0.881, -0.115, 0.505, 0.061, 0.488, 0, -12.673, -59.469, 167.69, -21.580, -7.233, -17.247, 28.8, -0.1478, -0.48007, 0.14862, -0.85175,
 15:01:05.375,e3:ca:2d:fd:e0:8c, 2015-01-01 02:46:26.815, 0.881, -0.114, 0.505, 0, 0.671, 0, -12.673, -59.458, 167.695, -21.580, -7.233, -17.247, 28.8, -0.1478, -0.48007, 0.14862, -0.85175,
 15:01:05.377,ed:35:33:d3:6c:f8, 2015-01-01 02:46:25.920, 0.929, 0.074, 0.347, -0.061, -0.488, 0.183, 12.118, -68.846, 138.977, -24.693, -11.260, -15.140, 32.66, -0.23178, -0.55688, 0.11545, -0.78912,
 15:01:05.377,ed:35:33:d3:6c:f8, 2015-01-01 02:46:25.920, 0.936, 0.076, 0.347, 0, -0.427, -0.366, 12.145, -68.857, 138.939, -24.693, -11.260, -15.140, 32.66, -0.23178, -0.55688, 0.11545, -0.78912,
 15:01:05.378,f6:90:cc:01:6d:25, 2015-01-01 02:46:25.240, 0.988, -0.042, -0.055, -0.427, 0.122, 0.122, -139.839, -86.1, -45.846, -31.240, -9.200, 0.193, 33.7, 0.01855, 0.72339, -0.05136, 0.6882,
 15:01:05.378,f6:90:cc:01:6d:25, 2015-01-01 02:46:25.240, 0.982, -0.046, -0.057, -0.427, 0, -0.061, -139.85, -86.094, -45.835, -31.240, -9.200, 0.193, 33.7, 0.01855, 0.72339, -0.05136, 0.6882,
 15:01:05.399,ed:40:fe:65:30:6c, 2015-01-01 02:46:25.865, 0.933, 0, 0.363, 0.488, 0, 0.183, 0.264, -68.708, -123.591, -27.407, -9.267, 3.980, 31.08, 0.39084, -0.49667, -0.26813, -0.72702,
 15:01:05.399,ed:40:fe:65:30:6c, 2015-01-01 02:46:25.865, 0.933, -0.002, 0.364, 0.244, 0, 0.366, 0.253, -68.708, -123.563, -27.407, -9.267, 3.980, 31.08, 0.39084, -0.49667, -0.26813, -0.72702,
 15:01:05.400,ed:35:33:d3:6c:f8, 2015-01-01 02:46:26.280, 0.93, 0.082, 0.349, 0.305, -0.854, -0.122, 12.167, -68.873, 138.9, -24.693, -11.260, -15.140, 32.66, -0.23178, -0.55688, 0.11545, -0.78912,
 15:01:05.400,ed:35:33:d3:6c:f8, 2015-01-01 02:46:26.280, 0.924, 0.074, 0.35, 0.549, -1.099, 1.038, 12.14, -68.901, 138.939, -24.693, -11.260, -15.140, 32.66, -0.23178, -0.55688, 0.11545, -0.78912,
 15:01:05.424,f6:90:cc:01:6d:25, 2015-01-01 02:46:25.550, 0.98, -0.045, -0.054, -0.488, -0.061, -0.183, -139.916, -86.094, -45.786, -31.240, -9.200, 0.193, 33.7, 0.01855, 0.72339, -0.05136, 0.6882,
 15:01:05.424,f6:90:cc:01:6d:25, 2015-01-01 02:46:25.550, 0.982, -0.042, -0.053, -0.488, -0.122, -0.122, -139.999, -86.094, -45.714, -31.240, -9.200, 0.193, 33.7, 0.01855, 0.72339, -0.05136, 0.6882,
 15:01:05.444,e3:ca:2d:fd:e0:8c, 2015-01-01 02:46:26.815, 0.878, -0.115, 0.505, -0.061, 0.916, 0, -12.667, -59.447, 167.701, -21.680, -7.027, -16.827, 28.8, -0.1478, -0.48007, 0.14862, -0.85175,
 15:01:05.444,e3:ca:2d:fd:e0:8c, 2015-01-01 02:46:26.815, 0.876, -0.115, 0.504, 0, 0.977, 0, -12.662, -59.425, 167.701, -21.680, -7.027, -16.827, 28.8, -0.1478, -0.48007, 0.14862, -0.85175,
 15:01:05.446,ed:35:33:d3:6c:f8, 2015-01-01 02:46:26.280, 0.925, 0.069, 0.349, 0.366, -0.977, 0.671, 12.123, -68.923, 138.966, -24.693, -11.260, -15.140, 32.66, -0.23178, -0.55688, 0.11545, -0.78912,
 15:01:05.446,ed:35:33:d3:6c:f8, 2015-01-01 02:46:26.280, 0.926, 0.072, 0.347, 0.488, -0.671, -0.122, 12.145, -68.934, 138.961, -24.693, -11.260, -15.140, 32.66, -0.23178, -0.55688, 0.11545, -0.78912,
 15:01:05.465,e3:ca:2d:fd:e0:8c, 2015-01-01 02:46:26.815, 0.876, -0.115, 0.503, 0, 0.671, 0, -12.656, -59.409, 167.701, -21.680, -7.027, -16.827, 28.8, -0.14676, -0.4794, 0.14795, -0.85245,
 15:01:05.465,e3:ca:2d:fd:e0:8c, 2015-01-01 02:46:26.815, 0.877, -0.116, 0.504, 0.061, 0.366, 0, -12.656, -59.403, 167.706, -21.680, -7.027, -16.827, 28.8, -0.14676, -0.4794, 0.14795, -0.85245,
 15:01:05.466,ed:40:fe:65:30:6c, 2015-01-01 02:46:25.865, 0.934, 0.001, 0.362, 0.244, 0, 0.183, 0.247, -68.714, -123.558, -27.747, -8.847, 3.993, 31.08, 0.39084, -0.49667, -0.26813, -0.72702,
 15:01:05.466,ed:40:fe:65:30:6c, 2015-01-01 02:46:25.865, 0.934, 0, 0.361, 0.305, -0.122, 0.061, 0.247, -68.714, -123.563, -27.747, -8.847, 3.993, 31.08, 0.39084, -0.49667, -0.26813, -0.72702,
 15:01:05.467,ed:35:33:d3:6c:f8, 2015-01-01 02:46:26.280, 0.926, 0.074, 0.346, 0.244, -0.61, -0.061, 12.156, -68.945, 138.983, -24.693, -11.260, -15.140, 32.66, -0.23178, -0.55688, 0.11545, -0.78912,
 15:01:05.467,ed:35:33:d3:6c:f8, 2015-01-01 02:46:26.280, 0.926, 0.073, 0.347, 0.244, -0.61, 0.305, 12.151, -68.961, 139.032, -24.693, -11.260, -15.140, 32.66, -0.23178, -0.55688, 0.11545, -0.78912,
 15:01:05.470,f6:90:cc:01:6d:25, 2015-01-01 02:46:25.550, 0.981, -0.043, -0.054, -0.427, -0.122, -0.183, -140.087, -86.094, -45.621, -31.240, -9.200, 0.193, 33.7, 0.01855, 0.72339, -0.05136, 0.6882,
 15:01:05.470,f6:90:cc:01:6d:25, 2015-01-01 02:46:25.550, 0.982, -0.044, -0.054, -0.183, -0.061, -0.305, -140.186, -86.094, -45.5, -31.240, -9.200, 0.193, 33.7, 0.01855, 0.72339, -0.05136, 0.6882,
 15:01:05.489,ed:40:fe:65:30:6c, 2015-01-01 02:46:25.865, 0.934, 0, 0.362, 0.305, -0.061, 0.122, 0.247, -68.719, -123.574, -27.747, -8.847, 3.993, 31.08, 0.39133, -0.49646, -0.2684, -0.72681,
 15:01:05.489,ed:40:fe:65:30:6c, 2015-01-01 02:46:25.865, 0.935, 0.001, 0.363, 0.244, 0, 0.122, 0.247, -68.719, -123.585, -27.747, -8.847, 3.993, 31.08, 0.39133, -0.49646, -0.2684, -0.72681,
 15:01:05.511,e3:ca:2d:fd:e0:8c, 2015-01-01 02:46:26.815, 0.878, -0.115, 0.506, 0, 0.244, 0, -12.656, -59.398, 167.712, -21.680, -7.027, -16.827, 28.8, -0.14676, -0.4794, 0.14795, -0.85245,
 15:01:05.511,e3:ca:2d:fd:e0:8c, 2015-01-01 02:46:26.815, 0.877, -0.115, 0.507, 0, 0.305, 0, -12.656, -59.392, 167.723, -21.680, -7.027, -16.827, 28.8, -0.14676, -0.4794, 0.14795, -0.85245,
 15:01:05.512,ed:35:33:d3:6c:f8, 2015-01-01 02:46:26.280, 0.928, 0.073, 0.346, 0.122, -0.244, 0, 12.156, -68.967, 139.054, -24.693, -11.260, -15.140, 32.66, -0.23178, -0.55688, 0.11545, -0.78912,
 15:01:05.512,ed:35:33:d3:6c:f8, 2015-01-01 02:46:26.280, 0.929, 0.075, 0.347, 0.122, 0.061, -0.244, 12.167, -68.961, 139.054, -24.693, -11.260, -15.140, 32.66, -0.23178, -0.55688, 0.11545, -0.78912,
 15:01:05.513,f6:90:cc:01:6d:25, 2015-01-01 02:46:25.550, 0.983, -0.044, -0.053, -0.061, -0.122, -0.305, -140.284, -86.094, -45.368, -31.240, -9.200, 0.193, 33.7, 0.01855, 0.72339, -0.05136, 0.6882,
 15:01:05.513,f6:90:cc:01:6d:25, 2015-01-01 02:46:25.550, 0.985, -0.043, -0.053, 0, -0.183, -0.244, -140.389, -86.094, -45.247, -31.240, -9.200, 0.193, 33.7, 0.01855, 0.72339, -0.05136, 0.6882,
 15:01:05.532,e3:ca:2d:fd:e0:8c, 2015-01-01 02:46:27.150, 0.876, -0.114, 0.506, 0, 0.305, 0, -12.656, -59.387, 167.728, -21.680, -7.027, -16.827, 28.8, -0.14676, -0.4794, 0.14795, -0.85245,
 15:01:05.532,e3:ca:2d:fd:e0:8c, 2015-01-01 02:46:27.150, 0.875, -0.114, 0.506, 0, 0.061, 0, -12.656, -59.387, 167.734, -21.680, -7.027, -16.827, 28.8, -0.14676, -0.4794, 0.14795, -0.85245,
 15:01:05.534,ed:40:fe:65:30:6c, 2015-01-01 02:46:25.865, 0.937, 0.003, 0.362, 0.244, 0, 0.122, 0.247, -68.719, -123.596, -27.747, -8.847, 3.993, 31.08, 0.39133, -0.49646, -0.2684, -0.72681,
 15:01:05.534,ed:40:fe:65:30:6c, 2015-01-01 02:46:25.865, 0.937, 0.002, 0.364, 0.122, 0, 0.122, 0.242, -68.719, -123.607, -27.747, -8.847, 3.993, 31.08, 0.39133, -0.49646, -0.2684, -0.72681,
 15:01:05.538,f6:90:cc:01:6d:25, 2015-01-01 02:46:25.550, 0.984, -0.043, -0.052, -0.183, -0.061, -0.183, -140.46, -86.094, -45.137, -31.240, -9.200, 0.193, 33.7, 0.01855, 0.72339, -0.05136, 0.6882,
 15:01:05.538,f6:90:cc:01:6d:25, 2015-01-01 02:46:25.550, 0.982, -0.042, -0.054, -0.183, 0, -0.305, -140.532, -86.094, -45.027, -31.240, -9.200, 0.193, 33.7, 0.01855, 0.72339, -0.05136, 0.6882,
 15:01:05.557,ed:40:fe:65:30:6c, 2015-01-01 02:46:26.220, 0.931, 0, 0.363, 0, 0, 0.122, 0.236, -68.725, -123.613, -27.747, -8.847, 3.993, 31.08, 0.39133, -0.49646, -0.2684, -0.72681,
 15:01:05.557,ed:40:fe:65:30:6c, 2015-01-01 02:46:26.220, 0.938, 0, 0.363, 0, 0.061, 0.183, 0.225, -68.719, -123.618, -27.747, -8.847, 3.993, 31.08, 0.39133, -0.49646, -0.2684, -0.72681,
 15:01:05.578,e3:ca:2d:fd:e0:8c, 2015-01-01 02:46:27.150, 0.876, -0.115, 0.507, 0, 0.061, 0, -12.656, -59.381, 167.745, -21.680, -7.027, -16.827, 28.8, -0.14676, -0.4794, 0.14795, -0.85245,
 15:01:05.578,e3:ca:2d:fd:e0:8c, 2015-01-01 02:46:27.150, 0.877, -0.116, 0.506, 0, 0.061, 0, -12.662, -59.381, 167.756, -21.680, -7.027, -16.827, 28.8, -0.14676, -0.4794, 0.14795, -0.85245,
 15:01:05.581,ed:35:33:d3:6c:f8, 2015-01-01 02:46:26.280, 0.928, 0.076, 0.349, -0.061, 0.183, -0.305, 12.178, -68.961, 139.054, -24.693, -11.260, -15.140, 32.66, -0.23178, -0.55688, 0.11545, -0.78912,
 15:01:05.581,ed:35:33:d3:6c:f8, 2015-01-01 02:46:26.280, 0.924, 0.073, 0.347, -0.122, 0.061, -0.061, 12.178, -68.956, 139.059, -24.693, -11.260, -15.140, 32.66, -0.23178, -0.55688, 0.11545, -0.78912,
 15:01:05.601,ed:40:fe:65:30:6c, 2015-01-01 02:46:26.220, 0.938, 0.004, 0.363, -0.183, 0.183, -0.122, 0.231, -68.719, -123.629, -27.747, -8.847, 3.993, 31.08, 0.39133, -0.49646, -0.2684, -0.72681,
 15:01:05.601,ed:40:fe:65:30:6c, 2015-01-01 02:46:26.220, 0.934, 0.003, 0.361, 0.061, -0.244, -0.122, 0.236, -68.725, -123.629, -27.747, -8.847, 3.993, 31.08, 0.39133, -0.49646, -0.2684, -0.72681,
 15:01:05.602,ed:35:33:d3:6c:f8, 2015-01-01 02:46:26.280, 0.93, 0.071, 0.347, -0.366, 0.244, -0.061, 12.167, -68.956, 139.092, -24.620, -11.120, -14.047, 32.66, -0.23178, -0.55688, 0.11545, -0.78912,
 15:01:05.602,ed:35:33:d3:6c:f8, 2015-01-01 02:46:26.280, 0.926, 0.078, 0.347, 0.183, -0.183, -0.122, 12.195, -68.95, 139.065, -24.620, -11.120, -14.047, 32.66, -0.23178, -0.55688, 0.11545, -0.78912,
 15:01:05.604,f6:90:cc:01:6d:25, 2015-01-01 02:46:25.550, 0.983, -0.043, -0.053, -0.122, 0.061, -0.305, -140.603, -86.1, -44.945, -31.240, -9.200, 0.193, 33.7, 0.01855, 0.72339, -0.05136, 0.6882,
 15:01:05.604,f6:90:cc:01:6d:25, 2015-01-01 02:46:25.550, 0.985, -0.041, -0.054, 0.122, 0.122, 0, -140.603, -86.1, -44.934, -31.240, -9.200, 0.193, 33.7, 0.01855, 0.72339, -0.05136, 0.6882,
 15:01:05.623,e3:ca:2d:fd:e0:8c, 2015-01-01 02:46:27.150, 0.878, -0.115, 0.507, 0.061, 0.183, 0, -12.662, -59.381, 167.761, -21.680, -7.027, -16.827, 28.8, -0.14676, -0.4794, 0.14795, -0.85245,
 15:01:05.623,e3:ca:2d:fd:e0:8c, 2015-01-01 02:46:27.150, 0.877, -0.114, 0.506, 0.061, 0.427, 0, -12.662, -59.376, 167.767, -21.680, -7.027, -16.827, 28.8, -0.14676, -0.4794, 0.14795, -0.85245,
 15:01:05.626,f6:90:cc:01:6d:25, 2015-01-01 02:46:25.550, 0.984, -0.042, -0.057, 0, 0.183, 0, -140.581, -86.1, -44.934, -30.827, -8.627, 0.973, 33.7, 0.01855, 0.72339, -0.05136, 0.6882,
 15:01:05.626,f6:90:cc:01:6d:25, 2015-01-01 02:46:25.550, 0.984, -0.044, -0.053, -0.122, 0, -0.122, -140.609, -86.1, -44.879, -30.827, -8.627, 0.973, 33.7, 0.01855, 0.72339, -0.05136, 0.6882,
 15:01:05.645,e3:ca:2d:fd:e0:8c, 2015-01-01 02:46:27.150, 0.877, -0.115, 0.505, 0, 0.366, 0, -12.656, -59.365, 167.772, -21.680, -7.027, -16.827, 28.8, -0.14676, -0.4794, 0.14795, -0.85245,
 15:01:05.645,e3:ca:2d:fd:e0:8c, 2015-01-01 02:46:27.150, 0.876, -0.115, 0.504, 0, 0, 0, -12.656, -59.365, 167.783, -21.680, -7.027, -16.827, 28.8, -0.14676, -0.4794, 0.14795, -0.85245,
 15:01:05.647,ed:40:fe:65:30:6c, 2015-01-01 02:46:26.220, 0.937, 0, 0.363, 0.061, -0.061, 0.122, 0.231, -68.725, -123.607, -27.747, -8.847, 3.993, 31.08, 0.39133, -0.49646, -0.2684, -0.72681,
 15:01:05.647,ed:40:fe:65:30:6c, 2015-01-01 02:46:26.220, 0.937, 0.003, 0.361, -0.183, 0.061, 0, 0.231, -68.725, -123.613, -27.747, -8.847, 3.993, 31.08, 0.39133, -0.49646, -0.2684, -0.72681,
 15:01:05.647,ed:35:33:d3:6c:f8, 2015-01-01 02:46:26.280, 0.931, 0.073, 0.347, -0.061, -0.366, 0.122, 12.206, -68.956, 139.054, -24.620, -11.120, -14.047, 32.66, -0.23178, -0.55688, 0.11545, -0.78912,
 15:01:05.647,ed:35:33:d3:6c:f8, 2015-01-01 02:46:26.280, 0.927, 0.076, 0.344, -0.061, 0.061, -0.305, 12.2, -68.961, 139.043, -24.620, -11.120, -14.047, 32.66, -0.23178, -0.55688, 0.11545, -0.78912,
 15:01:05.670,ed:35:33:d3:6c:f8, 2015-01-01 02:46:26.280, 0.926, 0.077, 0.345, -0.183, 0.549, -0.488, 12.217, -68.956, 139.037, -24.620, -11.120, -14.047, 32.66, -0.23035, -0.55798, 0.11481, -0.78885,
 15:01:05.670,ed:35:33:d3:6c:f8, 2015-01-01 02:46:26.280, 0.926, 0.076, 0.347, -0.183, 0.732, -0.366, 12.228, -68.945, 139.037, -24.620, -11.120, -14.047, 32.66, -0.23035, -0.55798, 0.11481, -0.78885,
 15:01:05.672,f6:90:cc:01:6d:25, 2015-01-01 02:46:25.550, 0.983, -0.042, -0.053, 0, 0.183, 0, -140.603, -86.1, -44.874, -30.827, -8.627, 0.973, 33.7, 0.01855, 0.72339, -0.05136, 0.6882,
 15:01:05.672,f6:90:cc:01:6d:25, 2015-01-01 02:46:25.550, 0.98, -0.041, -0.055, 0.183, 0.244, 0.122, -140.554, -86.1, -44.923, -30.827, -8.627, 0.973, 33.7, 0.01855, 0.72339, -0.05136, 0.6882,
 15:01:05.692,ed:40:fe:65:30:6c, 2015-01-01 02:46:26.220, 0.933, 0.004, 0.361, 0, 0.122, -0.061, 0.236, -68.725, -123.629, -27.747, -8.847, 3.993, 31.08, 0.39133, -0.49646, -0.2684, -0.72681,
 15:01:05.692,ed:40:fe:65:30:6c, 2015-01-01 02:46:26.220, 0.934, 0.003, 0.362, 0, 0.183, -0.061, 0.242, -68.725, -123.64, -27.747, -8.847, 3.993, 31.08, 0.39133, -0.49646, -0.2684, -0.72681,
 15:01:05.713,e3:ca:2d:fd:e0:8c, 2015-01-01 02:46:27.150, 0.878, -0.115, 0.503, 0, -0.305, 0, -12.662, -59.37, 167.789, -21.680, -7.027, -16.827, 28.8, -0.14676, -0.4794, 0.14795, -0.85245,
 15:01:05.713,e3:ca:2d:fd:e0:8c, 2015-01-01 02:46:27.150, 0.879, -0.115, 0.504, 0, -0.305, 0, -12.667, -59.376, 167.8, -21.680, -7.027, -16.827, 28.8, -0.14676, -0.4794, 0.14795, -0.85245,
 15:01:05.717,f6:90:cc:01:6d:25, 2015-01-01 02:46:25.550, 0.98, -0.04, -0.057, 0.427, 0.366, 0.061, -140.488, -86.105, -44.995, -30.827, -8.627, 0.973, 33.7, 0.01764, 0.72366, -0.04993, 0.68805,
 15:01:05.717,f6:90:cc:01:6d:25, 2015-01-01 02:46:25.550, 0.983, -0.042, -0.055, 0.366, 0.183, 0.061, -140.444, -86.105, -45.038, -30.827, -8.627, 0.973, 33.7, 0.01764, 0.72366, -0.04993, 0.68805,
 15:01:05.735,e3:ca:2d:fd:e0:8c, 2015-01-01 02:46:27.150, 0.878, -0.114, 0.505, 0, -0.244, 0, -12.667, -59.381, 167.811, -21.687, -7.160, -17.720, 28.8, -0.14676, -0.4794, 0.14795, -0.85245,
 15:01:05.735,e3:ca:2d:fd:e0:8c, 2015-01-01 02:46:27.150, 0.877, -0.114, 0.505, 0, -0.305, 0, -12.673, -59.387, 167.822, -21.687, -7.160, -17.720, 28.8, -0.14676, -0.4794, 0.14795, -0.85245,
 15:01:05.737,ed:35:33:d3:6c:f8, 2015-01-01 02:46:26.280, 0.927, 0.076, 0.346, -0.061, 0.549, -0.305, 12.239, -68.934, 139.048, -24.620, -11.120, -14.047, 32.66, -0.23035, -0.55798, 0.11481, -0.78885,
 15:01:05.737,ed:35:33:d3:6c:f8, 2015-01-01 02:46:26.280, 0.928, 0.076, 0.347, 0.183, 0.61, -0.366, 12.25, -68.923, 139.026, -24.620, -11.120, -14.047, 32.66, -0.23035, -0.55798, 0.11481, -0.78885,
 15:01:05.739,f6:90:cc:01:6d:25, 2015-01-01 02:46:25.885, 0.985, -0.043, -0.054, 0.305, 0.122, 0.061, -140.427, -86.105, -45.066, -30.827, -8.627, 0.973, 33.7, 0.01764, 0.72366, -0.04993, 0.68805,
 15:01:05.739,f6:90:cc:01:6d:25, 2015-01-01 02:46:25.885, 0.985, -0.042, -0.055, 0.427, 0.183, 0.061, -140.394, -86.105, -45.099, -30.827, -8.627, 0.973, 33.7, 0.01764, 0.72366, -0.04993, 0.68805,
 15:01:05.758,ed:40:fe:65:30:6c, 2015-01-01 02:46:26.220, 0.935, 0.002, 0.361, 0.061, 0, -0.061, 0.247, -68.725, -123.64, -27.747, -8.847, 3.993, 31.08, 0.39133, -0.49646, -0.2684, -0.72681,
 15:01:05.758,ed:40:fe:65:30:6c, 2015-01-01 02:46:26.220, 0.936, 0.002, 0.361, 0.244, 0, 0, 0.253, -68.725, -123.629, -27.747, -8.847, 3.993, 31.08, 0.39133, -0.49646, -0.2684, -0.72681,
 15:01:05.760,ed:35:33:d3:6c:f8, 2015-01-01 02:46:26.615, 0.928, 0.076, 0.347, 0.061, 0.61, -0.427, 12.266, -68.906, 139.01, -24.620, -11.120, -14.047, 32.66, -0.23035, -0.55798, 0.11481, -0.78885,
 15:01:05.760,ed:35:33:d3:6c:f8, 2015-01-01 02:46:26.615, 0.929, 0.076, 0.348, 0, 0.793, -0.61, 12.283, -68.895, 138.983, -24.620, -11.120, -14.047, 32.66, -0.23035, -0.55798, 0.11481, -0.78885,
 15:01:05.781,ed:40:fe:65:30:6c, 2015-01-01 02:46:26.220, 0.937, 0.002, 0.362, 0.183, 0, 0, 0.258, -68.725, -123.613, -27.273, -8.827, 3.720, 31.08, 0.39133, -0.49646, -0.2684, -0.72681,
 15:01:05.781,ed:40:fe:65:30:6c, 2015-01-01 02:46:26.220, 0.937, 0.003, 0.362, 0.122, 0.061, 0, 0.264, -68.725, -123.602, -27.273, -8.827, 3.720, 31.08, 0.39133, -0.49646, -0.2684, -0.72681,
 15:01:05.781,e3:ca:2d:fd:e0:8c, 2015-01-01 02:46:27.150, 0.878, -0.115, 0.505, 0, -0.549, 0, -12.678, -59.398, 167.833, -21.687, -7.160, -17.720, 28.8, -0.14676, -0.4794, 0.14795, -0.85245,
 15:01:05.781,e3:ca:2d:fd:e0:8c, 2015-01-01 02:46:27.150, 0.879, -0.114, 0.506, 0, -0.549, 0, -12.684, -59.409, 167.849, -21.687, -7.160, -17.720, 28.8, -0.14676, -0.4794, 0.14795, -0.85245,
 15:01:05.784,f6:90:cc:01:6d:25, 2015-01-01 02:46:25.885, 0.984, -0.04, -0.054, 0.427, 0.305, 0.122, -140.334, -86.105, -45.165, -30.827, -8.627, 0.973, 33.7, 0.01764, 0.72366, -0.04993, 0.68805,
 15:01:05.784,f6:90:cc:01:6d:25, 2015-01-01 02:46:25.885, 0.984, -0.041, -0.055, 0.61, 0.366, 0.122, -140.257, -86.111, -45.247, -30.827, -8.627, 0.973, 33.7, 0.01764, 0.72366, -0.04993, 0.68805,
 15:01:05.805,ed:35:33:d3:6c:f8, 2015-01-01 02:46:26.615, 0.928, 0.077, 0.349, -0.061, 0.854, -0.366, 12.299, -68.879, 138.966, -24.620, -11.120, -14.047, 32.66, -0.23035, -0.55798, 0.11481, -0.78885,
 15:01:05.805,ed:35:33:d3:6c:f8, 2015-01-01 02:46:26.615, 0.927, 0.076, 0.35, -0.183, 0.916, -0.427, 12.31, -68.862, 138.939, -24.620, -11.120, -14.047, 32.66, -0.23035, -0.55798, 0.11481, -0.78885,
 15:01:05.826,ed:40:fe:65:30:6c, 2015-01-01 02:46:26.220, 0.937, 0.002, 0.362, 0.244, 0.061, -0.061, 0.275, -68.725, -123.591, -27.273, -8.827, 3.720, 31.08, 0.39133, -0.49646, -0.2684, -0.72681,
 15:01:05.826,ed:40:fe:65:30:6c, 2015-01-01 02:46:26.220, 0.936, 0.002, 0.362, 0.244, 0, 0, 0.28, -68.73, -123.574, -27.273, -8.827, 3.720, 31.08, 0.39133, -0.49646, -0.2684, -0.72681,
 15:01:05.827,ed:35:33:d3:6c:f8, 2015-01-01 02:46:26.615, 0.927, 0.077, 0.35, -0.061, 0.793, -0.305, 12.316, -68.846, 138.889, -24.620, -11.120, -14.047, 32.66, -0.23035, -0.55798, 0.11481, -0.78885,
 15:01:05.827,ed:35:33:d3:6c:f8, 2015-01-01 02:46:26.615, 0.926, 0.076, 0.35, 0, 0.671, -0.366, 12.321, -68.829, 138.851, -24.620, -11.120, -14.047, 32.66, -0.23035, -0.55798, 0.11481, -0.78885,
 15:01:05.829,f6:90:cc:01:6d:25, 2015-01-01 02:46:25.885, 0.984, -0.043, -0.055, 0.61, 0.488, 0.061, -140.169, -86.116, -45.341, -30.827, -8.627, 0.973, 33.7, 0.01764, 0.72366, -0.04993, 0.68805,
 15:01:05.829,f6:90:cc:01:6d:25, 2015-01-01 02:46:25.885, 0.983, -0.043, -0.054, 0.732, 0.305, 0.061, -140.109, -86.116, -45.401, -30.827, -8.627, 0.973, 33.7, 0.01764, 0.72366, -0.04993, 0.68805,
 15:01:05.848,ed:40:fe:65:30:6c, 2015-01-01 02:46:26.220, 0.935, 0.003, 0.362, 0.122, -0.061, 0, 0.28, -68.73, -123.558, -27.273, -8.827, 3.720, 31.08, 0.39148, -0.4964, -0.26868, -0.72665,
 15:01:05.848,ed:40:fe:65:30:6c, 2015-01-01 02:46:26.220, 0.935, 0.002, 0.364, 0.244, 0, 0.061, 0.286, -68.73, -123.541, -27.273, -8.827, 3.720, 31.08, 0.39148, -0.4964, -0.26868, -0.72665,
 15:01:05.848,e3:ca:2d:fd:e0:8c, 2015-01-01 02:46:27.150, 0.879, -0.115, 0.506, 0, -0.244, 0, -12.689, -59.414, 167.86, -21.687, -7.160, -17.720, 28.8, -0.14578, -0.47955, 0.14752, -0.8526,
 15:01:05.848,e3:ca:2d:fd:e0:8c, 2015-01-01 02:46:27.150, 0.877, -0.115, 0.507, 0.061, -0.061, 0, -12.689, -59.42, 167.871, -21.687, -7.160, -17.720, 28.8, -0.14578, -0.47955, 0.14752, -0.8526,
 15:01:05.871,e3:ca:2d:fd:e0:8c, 2015-01-01 02:46:27.485, 0.877, -0.115, 0.506, 0.061, 0, 0, -12.689, -59.42, 167.877, -21.687, -7.160, -17.720, 28.8, -0.14578, -0.47955, 0.14752, -0.8526,
 15:01:05.871,e3:ca:2d:fd:e0:8c, 2015-01-01 02:46:27.485, 0.876, -0.115, 0.505, 0.061, -0.122, 0, -12.689, -59.42, 167.888, -21.687, -7.160, -17.720, 28.8, -0.14578, -0.47955, 0.14752, -0.8526,
 15:01:05.873,ed:35:33:d3:6c:f8, 2015-01-01 02:46:26.615, 0.925, 0.076, 0.349, 0, 0.732, -0.305, 12.332, -68.818, 138.79, -24.620, -11.120, -14.047, 32.66, -0.23035, -0.55798, 0.11481, -0.78885,
 15:01:05.873,ed:35:33:d3:6c:f8, 2015-01-01 02:46:26.615, 0.928, 0.074, 0.349, -0.061, 0.916, -0.366, 12.343, -68.802, 138.746, -24.620, -11.120, -14.047, 32.66, -0.23035, -0.55798, 0.11481, -0.78885,
 15:01:05.874,f6:90:cc:01:6d:25, 2015-01-01 02:46:25.885, 0.983, -0.043, -0.052, 0.61, 0.305, 0.183, -140.021, -86.116, -45.489, -30.827, -8.627, 0.973, 33.7, 0.01764, 0.72366, -0.04993, 0.68805,
 15:01:05.874,f6:90:cc:01:6d:25, 2015-01-01 02:46:25.885, 0.982, -0.043, -0.052, 0.732, 0.244, 0.122, -139.949, -86.122, -45.555, -30.827, -8.627, 0.973, 33.7, 0.01764, 0.72366, -0.04993, 0.68805,
 15:01:05.892,e3:ca:2d:fd:e0:8c, 2015-01-01 02:46:27.485, 0.877, -0.115, 0.504, 0, -0.244, 0, -12.689, -59.425, 167.893, -21.687, -7.160, -17.720, 28.8, -0.14578, -0.47955, 0.14752, -0.8526,
 15:01:05.892,e3:ca:2d:fd:e0:8c, 2015-01-01 02:46:27.485, 0.878, -0.115, 0.505, 0, -0.366, 0, -12.695, -59.431, 167.904, -21.687, -7.160, -17.720, 28.8, -0.14578, -0.47955, 0.14752, -0.8526,
 15:01:05.893,ed:40:fe:65:30:6c, 2015-01-01 02:46:26.220, 0.935, 0.001, 0.363, 0.305, 0, 0.122, 0.286, -68.736, -123.525, -27.273, -8.827, 3.720, 31.08, 0.39148, -0.4964, -0.26868, -0.72665,
 15:01:05.893,ed:40:fe:65:30:6c, 2015-01-01 02:46:26.220, 0.934, 0.001, 0.362, 0.244, 0.061, 0.122, 0.286, -68.73, -123.503, -27.273, -8.827, 3.720, 31.08, 0.39148, -0.4964, -0.26868, -0.72665,
 15:01:05.919,f6:90:cc:01:6d:25, 2015-01-01 02:46:25.885, 0.984, -0.044, -0.053, 0.732, 0.366, 0.183, -139.839, -86.122, -45.654, -30.827, -8.627, 0.973, 33.7, 0.01764, 0.72366, -0.04993, 0.68805,
 15:01:05.919,f6:90:cc:01:6d:25, 2015-01-01 02:46:25.885, 0.986, -0.042, -0.051, 0.61, 0.244, 0.244, -139.741, -86.122, -45.747, -30.827, -8.627, 0.973, 33.7, 0.01764, 0.72366, -0.04993, 0.68805,
 15:01:05.919,ed:35:33:d3:6c:f8, 2015-01-01 02:46:26.615, 0.931, 0.076, 0.351, 0.183, 0.732, -0.366, 12.349, -68.785, 138.702, -24.620, -11.120, -14.047, 32.66, -0.23035, -0.55798, 0.11481, -0.78885,
 15:01:05.919,ed:35:33:d3:6c:f8, 2015-01-01 02:46:26.615, 0.924, 0.076, 0.353, 0.427, 0.427, 0, 12.36, -68.774, 138.653, -24.620, -11.120, -14.047, 32.66, -0.23035, -0.55798, 0.11481, -0.78885,
 15:01:05.937,e3:ca:2d:fd:e0:8c, 2015-01-01 02:46:27.485, 0.878, -0.115, 0.505, 0.061, -0.427, 0, -12.7, -59.436, 167.915, -21.687, -7.160, -17.720, 28.8, -0.14578, -0.47955, 0.14752, -0.8526,
 15:01:05.937,e3:ca:2d:fd:e0:8c, 2015-01-01 02:46:27.485, 0.878, -0.116, 0.506, 0.061, -0.488, 0, -12.7, -59.447, 167.926, -21.687, -7.160, -17.720, 28.8, -0.14578, -0.47955, 0.14752, -0.8526,
 15:01:05.938,ed:40:fe:65:30:6c, 2015-01-01 02:46:26.580, 0.935, 0.001, 0.363, 0.305, 0.122, 0, 0.291, -68.73, -123.486, -27.273, -8.827, 3.720, 31.08, 0.39148, -0.4964, -0.26868, -0.72665,
 15:01:05.938,ed:40:fe:65:30:6c, 2015-01-01 02:46:26.580, 0.934, -0.001, 0.364, 0.305, 0, 0, 0.302, -68.73, -123.47, -27.273, -8.827, 3.720, 31.08, 0.39148, -0.4964, -0.26868, -0.72665,
 15:01:05.942,f6:90:cc:01:6d:25, 2015-01-01 02:46:25.885, 0.983, -0.044, -0.053, 0.793, 0.366, 0.122, -139.642, -86.122, -45.829, -31.007, -8.953, 1.240, 33.7, 0.01764, 0.72366, -0.04993, 0.68805,
 15:01:05.942,f6:90:cc:01:6d:25, 2015-01-01 02:46:25.885, 0.982, -0.046, -0.055, 0.671, 0.427, 0, -139.559, -86.127, -45.906, -31.007, -8.953, 1.240, 33.7, 0.01764, 0.72366, -0.04993, 0.68805,
 15:01:05.961,ed:40:fe:65:30:6c, 2015-01-01 02:46:26.580, 0.937, 0.003, 0.362, 0.183, 0.183, 0, 0.308, -68.73, -123.459, -27.273, -8.827, 3.720, 31.08, 0.39148, -0.4964, -0.26868, -0.72665,
 15:01:05.961,ed:40:fe:65:30:6c, 2015-01-01 02:46:26.580, 0.941, 0.004, 0.363, 0.366, 0.183, 0, 0.313, -68.725, -123.448, -27.273, -8.827, 3.720, 31.08, 0.39148, -0.4964, -0.26868, -0.72665,
 15:01:05.962,ed:35:33:d3:6c:f8, 2015-01-01 02:46:26.615, 0.926, 0.072, 0.352, 0.244, 0, -0.122, 12.365, -68.769, 138.625, -24.620, -11.120, -14.047, 32.66, -0.23035, -0.55798, 0.11481, -0.78885,
 15:01:05.962,ed:35:33:d3:6c:f8, 2015-01-01 02:46:26.615, 0.93, 0.079, 0.351, 0.671, -0.244, -0.549, 12.382, -68.769, 138.587, -24.620, -11.120, -14.047, 32.66, -0.23035, -0.55798, 0.11481, -0.78885,
 15:01:05.983,e3:ca:2d:fd:e0:8c, 2015-01-01 02:46:27.485, 0.879, -0.116, 0.505, 0, -0.488, 0, -12.706, -59.453, 167.937, -21.687, -7.160, -17.720, 28.8, -0.14578, -0.47955, 0.14752, -0.8526,
 15:01:05.983,e3:ca:2d:fd:e0:8c, 2015-01-01 02:46:27.485, 0.88, -0.115, 0.504, 0.061, -0.122, 0, -12.711, -59.458, 167.948, -21.687, -7.160, -17.720, 28.8, -0.14578, -0.47955, 0.14752, -0.8526,
 15:01:05.988,f6:90:cc:01:6d:25, 2015-01-01 02:46:25.885, 0.983, -0.041, -0.054, 0.366, 0.427, 0.061, -139.471, -86.133, -45.989, -31.007, -8.953, 1.240, 33.7, 0.01764, 0.72366, -0.04993, 0.68805,
 15:01:05.988,f6:90:cc:01:6d:25, 2015-01-01 02:46:25.885, 0.987, -0.04, -0.053, 0.305, 0.244, 0.122, -139.417, -86.133, -46.055, -31.007, -8.953, 1.240, 33.7, 0.01764, 0.72366, -0.04993, 0.68805,
 15:01:06.006,ed:40:fe:65:30:6c, 2015-01-01 02:46:26.580, 0.938, 0.005, 0.363, 0.305, 0.122, 0, 0.319, -68.725, -123.431, -27.273, -8.827, 3.720, 31.08, 0.39148, -0.4964, -0.26868, -0.72665,
 15:01:06.006,ed:40:fe:65:30:6c, 2015-01-01 02:46:26.580, 0.931, 0.001, 0.367, 0.549, 0, 0, 0.324, -68.725, -123.42, -27.273, -8.827, 3.720, 31.08, 0.39148, -0.4964, -0.26868, -0.72665,
 15:01:06.030,ed:35:33:d3:6c:f8, 2015-01-01 02:46:26.615, 0.934, 0.079, 0.352, 0.916, -0.793, -0.305, 12.42, -68.774, 138.543, -24.413, -11.167, -15.287, 32.66, -0.23035, -0.55798, 0.11481, -0.78885,
 15:01:06.030,ed:35:33:d3:6c:f8, 2015-01-01 02:46:26.615, 0.926, 0.081, 0.354, 1.465, -1.953, -0.366, 12.469, -68.796, 138.505, -24.413, -11.167, -15.287, 32.66, -0.23035, -0.55798, 0.11481, -0.78885,
 15:01:06.032,f6:90:cc:01:6d:25, 2015-01-01 02:46:25.885, 0.987, -0.043, -0.052, 0.366, 0.061, 0.244, -139.362, -86.127, -46.11, -31.007, -8.953, 1.240, 33.7, 0.01736, 0.72321, -0.05005, 0.68851,
 15:01:06.032,f6:90:cc:01:6d:25, 2015-01-01 02:46:25.885, 0.981, -0.046, -0.052, 0.427, 0, 0.183, -139.329, -86.127, -46.143, -31.007, -8.953, 1.240, 33.7, 0.01736, 0.72321, -0.05005, 0.68851,
 15:01:06.050,e3:ca:2d:fd:e0:8c, 2015-01-01 02:46:27.485, 0.879, -0.114, 0.506, 0.122, 0.061, 0, -12.711, -59.464, 167.953, -21.687, -7.160, -17.720, 28.8, -0.14578, -0.47955, 0.14752, -0.8526,
 15:01:06.050,e3:ca:2d:fd:e0:8c, 2015-01-01 02:46:27.485, 0.879, -0.114, 0.504, 0.061, -0.061, 0, -12.711, -59.458, 167.964, -21.687, -7.160, -17.720, 28.8, -0.14578, -0.47955, 0.14752, -0.8526,
 15:01:06.051,ed:40:fe:65:30:6c, 2015-01-01 02:46:26.580, 0.932, 0, 0.369, 0.244, -0.183, 0.427, 0.33, -68.725, -123.398, -27.273, -8.827, 3.720, 31.08, 0.39148, -0.4964, -0.26868, -0.72665,
 15:01:06.051,ed:40:fe:65:30:6c, 2015-01-01 02:46:26.580, 0.934, 0.003, 0.365, 0, -0.427, 0.305, 0.313, -68.73, -123.365, -27.273, -8.827, 3.720, 31.08, 0.39148, -0.4964, -0.26868, -0.72665,
 15:01:06.053,ed:35:33:d3:6c:f8, 2015-01-01 02:46:26.615, 0.923, 0.077, 0.355, 1.77, -2.38, 0.305, 12.53, -68.835, 138.499, -24.413, -11.167, -15.287, 32.66, -0.23273, -0.5574, 0.11481, -0.78857,
 15:01:06.053,ed:35:33:d3:6c:f8, 2015-01-01 02:46:26.615, 0.924, 0.075, 0.353, 1.282, -2.197, 0.061, 12.574, -68.884, 138.505, -24.413, -11.167, -15.287, 32.66, -0.23273, -0.5574, 0.11481, -0.78857,
 15:01:06.073,e3:ca:2d:fd:e0:8c, 2015-01-01 02:46:27.485, 0.877, -0.115, 0.503, 0, -0.305, 0, -12.711, -59.464, 167.97, -21.673, -6.873, -17.667, 28.8, -0.14578, -0.47955, 0.14752, -0.8526,
 15:01:06.073,e3:ca:2d:fd:e0:8c, 2015-01-01 02:46:27.485, 0.877, -0.115, 0.504, 0.061, -0.427, 0, -12.717, -59.469, 167.981, -21.673, -6.873, -17.667, 28.8, -0.14578, -0.47955, 0.14752, -0.8526,
 15:01:06.077,f6:90:cc:01:6d:25, 2015-01-01 02:46:26.200, 0.98, -0.044, -0.051, 0.427, -0.244, 0.061, -139.367, -86.122, -46.099, -31.007, -8.953, 1.240, 33.7, 0.01736, 0.72321, -0.05005, 0.68851,
 15:01:06.077,f6:90:cc:01:6d:25, 2015-01-01 02:46:26.200, 0.983, -0.042, -0.051, 0.366, -0.244, 0.061, -139.406, -86.116, -46.055, -31.007, -8.953, 1.240, 33.7, 0.01736, 0.72321, -0.05005, 0.68851,
 15:01:06.098,ed:35:33:d3:6c:f8, 2015-01-01 02:46:26.615, 0.927, 0.079, 0.348, 0.916, -1.648, -0.366, 12.623, -68.923, 138.499, -24.413, -11.167, -15.287, 32.66, -0.23273, -0.5574, 0.11481, -0.78857,
 15:01:06.098,ed:35:33:d3:6c:f8, 2015-01-01 02:46:26.615, 0.93, 0.078, 0.344, 0.732, -0.916, -0.366, 12.673, -68.945, 138.483, -24.413, -11.167, -15.287, 32.66, -0.23273, -0.5574, 0.11481, -0.78857,
 15:01:06.099,f6:90:cc:01:6d:25, 2015-01-01 02:46:26.200, 0.985, -0.042, -0.05, 0.122, -0.366, 0, -139.482, -86.111, -45.978, -31.007, -8.953, 1.240, 33.7, 0.01736, 0.72321, -0.05005, 0.68851,
 15:01:06.099,f6:90:cc:01:6d:25, 2015-01-01 02:46:26.200, 0.985, -0.043, -0.051, 0, -0.366, 0, -139.565, -86.1, -45.895, -31.007, -8.953, 1.240, 33.7, 0.01736, 0.72321, -0.05005, 0.68851,
 15:01:06.117,e3:ca:2d:fd:e0:8c, 2015-01-01 02:46:27.485, 0.877, -0.115, 0.504, 0.061, -0.671, 0, -12.722, -59.48, 167.992, -21.673, -6.873, -17.667, 28.8, -0.14578, -0.47955, 0.14752, -0.8526,
 15:01:06.117,e3:ca:2d:fd:e0:8c, 2015-01-01 02:46:27.485, 0.877, -0.114, 0.505, 0, -0.732, 0, -12.728, -59.496, 168.003, -21.673, -6.873, -17.667, 28.8, -0.14578, -0.47955, 0.14752, -0.8526,
 15:01:06.119,ed:40:fe:65:30:6c, 2015-01-01 02:46:26.580, 0.937, 0.002, 0.361, 0.244, -0.732, 0.122, 0.302, -68.736, -123.338, -27.273, -8.827, 3.720, 31.08, 0.39148, -0.4964, -0.26868, -0.72665,
 15:01:06.119,ed:40:fe:65:30:6c, 2015-01-01 02:46:26.580, 0.938, 0.002, 0.36, 0.061, -0.366, 0.061, 0.302, -68.752, -123.322, -27.273, -8.827, 3.720, 31.08, 0.39148, -0.4964, -0.26868, -0.72665,
 15:01:06.120,ed:35:33:d3:6c:f8, 2015-01-01 02:46:26.995, 0.929, 0.079, 0.34, 0.305, 0, -0.488, 12.711, -68.956, 138.477, -24.413, -11.167, -15.287, 32.66, -0.23273, -0.5574, 0.11481, -0.78857,
 15:01:06.120,ed:35:33:d3:6c:f8, 2015-01-01 02:46:26.995, 0.927, 0.081, 0.343, 0.061, 0.61, -0.854, 12.739, -68.95, 138.466, -24.413, -11.167, -15.287, 32.66, -0.23273, -0.5574, 0.11481, -0.78857,
 15:01:06.140,e3:ca:2d:fd:e0:8c, 2015-01-01 02:46:27.485, 0.878, -0.115, 0.506, 0, -0.854, 0, -12.733, -59.513, 168.019, -21.673, -6.873, -17.667, 28.8, -0.14478, -0.48047, 0.14722, -0.85229,
 15:01:06.140,e3:ca:2d:fd:e0:8c, 2015-01-01 02:46:27.485, 0.878, -0.114, 0.507, 0, -0.732, 0, -12.739, -59.524, 168.03, -21.673, -6.873, -17.667, 28.8, -0.14478, -0.48047, 0.14722, -0.85229,
 15:01:06.141,ed:40:fe:65:30:6c, 2015-01-01 02:46:26.580, 0.936, 0.003, 0.359, 0.061, -0.122, 0, 0.302, -68.758, -123.305, -27.247, -9.060, 4.160, 31.08, 0.39148, -0.4964, -0.26868, -0.72665,
 15:01:06.141,ed:40:fe:65:30:6c, 2015-01-01 02:46:26.580, 0.937, 0.005, 0.359, 0.061, 0.061, 0, 0.302, -68.758, -123.294, -27.247, -9.060, 4.160, 31.08, 0.39148, -0.4964, -0.26868, -0.72665,
 15:01:06.143,f6:90:cc:01:6d:25, 2015-01-01 02:46:26.200, 0.984, -0.043, -0.053, 0, -0.122, 0, -139.598, -86.1, -45.862, -31.007, -8.953, 1.240, 33.7, 0.01736, 0.72321, -0.05005, 0.68851,
 15:01:06.143,f6:90:cc:01:6d:25, 2015-01-01 02:46:26.200, 0.984, -0.043, -0.053, 0, -0.061, 0.366, -139.537, -86.094, -45.923, -31.007, -8.953, 1.240, 33.7, 0.01736, 0.72321, -0.05005, 0.68851,
 15:01:06.165,ed:35:33:d3:6c:f8, 2015-01-01 02:46:26.995, 0.93, 0.083, 0.341, 0, 0.793, -0.732, 12.772, -68.934, 138.439, -24.413, -11.167, -15.287, 32.66, -0.23273, -0.5574, 0.11481, -0.78857,
 15:01:06.165,ed:35:33:d3:6c:f8, 2015-01-01 02:46:26.995, 0.926, 0.08, 0.344, 0.122, 1.16, -0.61, 12.799, -68.917, 138.428, -24.413, -11.167, -15.287, 32.66, -0.23273, -0.5574, 0.11481, -0.78857,
 15:01:06.187,e3:ca:2d:fd:e0:8c, 2015-01-01 02:46:27.485, 0.879, -0.113, 0.506, 0.061, -0.427, 0, -12.744, -59.535, 168.041, -21.673, -6.873, -17.667, 28.8, -0.14478, -0.48047, 0.14722, -0.85229,
 15:01:06.187,e3:ca:2d:fd:e0:8c, 2015-01-01 02:46:27.485, 0.88, -0.113, 0.505, 0.061, 0, 0, -12.744, -59.535, 168.052, -21.673, -6.873, -17.667, 28.8, -0.14478, -0.48047, 0.14722, -0.85229,
 15:01:06.188,ed:40:fe:65:30:6c, 2015-01-01 02:46:26.580, 0.937, 0.003, 0.358, 0.122, 0.183, 0.061, 0.308, -68.758, -123.283, -27.247, -9.060, 4.160, 31.08, 0.39148, -0.4964, -0.26868, -0.72665,
 15:01:06.188,ed:40:fe:65:30:6c, 2015-01-01 02:46:26.580, 0.936, 0.001, 0.356, 0.244, 0.122, 0.244, 0.308, -68.758, -123.267, -27.247, -9.060, 4.160, 31.08, 0.39148, -0.4964, -0.26868, -0.72665,
 15:01:06.188,f6:90:cc:01:6d:25, 2015-01-01 02:46:26.200, 0.983, -0.043, -0.056, 0, 0.427, 0.244, -139.427, -86.089, -46.038, -31.007, -8.953, 1.240, 33.7, 0.01736, 0.72321, -0.05005, 0.68851,
 15:01:06.188,f6:90:cc:01:6d:25, 2015-01-01 02:46:26.200, 0.986, -0.043, -0.057, 0, 0.549, 0.305, -139.307, -86.094, -46.176, -31.007, -8.953, 1.240, 33.7, 0.01736, 0.72321, -0.05005, 0.68851,
 15:01:06.209,ed:40:fe:65:30:6c, 2015-01-01 02:46:26.580, 0.942, 0.002, 0.359, 0.427, 0.183, 0.244, 0.302, -68.758, -123.239, -27.247, -9.060, 4.160, 31.08, 0.39349, -0.49576, -0.27026, -0.72543,
 15:01:06.209,ed:40:fe:65:30:6c, 2015-01-01 02:46:26.580, 0.94, 0.004, 0.356, 0, 0.183, -0.061, 0.302, -68.752, -123.217, -27.247, -9.060, 4.160, 31.08, 0.39349, -0.49576, -0.27026, -0.72543,
 15:01:06.210,ed:35:33:d3:6c:f8, 2015-01-01 02:46:26.995, 0.928, 0.078, 0.341, -0.305, 1.953, -0.549, 12.816, -68.89, 138.45, -24.413, -11.167, -15.287, 32.66, -0.23273, -0.5574, 0.11481, -0.78857,
 15:01:06.210,ed:35:33:d3:6c:f8, 2015-01-01 02:46:26.995, 0.936, 0.079, 0.344, -0.854, 1.892, -0.916, 12.816, -68.851, 138.461, -24.413, -11.167, -15.287, 32.66, -0.23273, -0.5574, 0.11481, -0.78857,
 15:01:06.230,e3:ca:2d:fd:e0:8c, 2015-01-01 02:46:27.820, 0.88, -0.114, 0.502, 0, 0.183, 0, -12.744, -59.535, 168.058, -21.673, -6.873, -17.667, 28.8, -0.14478, -0.48047, 0.14722, -0.85229,
 15:01:06.230,e3:ca:2d:fd:e0:8c, 2015-01-01 02:46:27.820, 0.882, -0.115, 0.504, 0, 0.061, 0, -12.744, -59.529, 168.063, -21.673, -6.873, -17.667, 28.8, -0.14478, -0.48047, 0.14722, -0.85229,
 15:01:06.233,ed:35:33:d3:6c:f8, 2015-01-01 02:46:26.995, 0.926, 0.083, 0.343, -0.793, 2.014, -0.671, 12.821, -68.813, 138.439, -24.413, -11.167, -15.287, 32.66, -0.23273, -0.5574, 0.11481, -0.78857,
 15:01:06.233,ed:35:33:d3:6c:f8, 2015-01-01 02:46:26.995, 0.926, 0.08, 0.346, -0.366, 2.014, 0, 12.816, -68.774, 138.406, -24.413, -11.167, -15.287, 32.66, -0.23273, -0.5574, 0.11481, -0.78857,
 15:01:06.234,f6:90:cc:01:6d:25, 2015-01-01 02:46:26.200, 0.988, -0.042, -0.058, 0.061, 0.732, 0.488, -139.136, -86.1, -46.357, -31.007, -8.953, 1.240, 33.7, 0.01736, 0.72321, -0.05005, 0.68851,
 15:01:06.234,f6:90:cc:01:6d:25, 2015-01-01 02:46:26.200, 0.984, -0.044, -0.059, 0.061, 0.732, 0.427, -138.928, -86.1, -46.593, -31.007, -8.953, 1.240, 33.7, 0.01736, 0.72321, -0.05005, 0.68851,
 15:01:06.252,e3:ca:2d:fd:e0:8c, 2015-01-01 02:46:27.820, 0.882, -0.114, 0.503, 0.061, 0.244, 0, -12.739, -59.524, 168.063, -21.673, -6.873, -17.667, 28.8, -0.14478, -0.48047, 0.14722, -0.85229,
 15:01:06.252,e3:ca:2d:fd:e0:8c, 2015-01-01 02:46:27.820, 0.88, -0.114, 0.503, 0.061, 0.549, 0, -12.739, -59.518, 168.069, -21.673, -6.873, -17.667, 28.8, -0.14478, -0.48047, 0.14722, -0.85229,
 15:01:06.254,ed:40:fe:65:30:6c, 2015-01-01 02:46:26.580, 0.937, 0.001, 0.359, 0.793, 0.183, 0.122, 0.308, -68.752, -123.212, -27.247, -9.060, 4.160, 31.08, 0.39349, -0.49576, -0.27026, -0.72543,
 15:01:06.254,ed:40:fe:65:30:6c, 2015-01-01 02:46:26.580, 0.937, 0, 0.359, 0.305, 0.488, 0.122, 0.319, -68.752, -123.19, -27.247, -9.060, 4.160, 31.08, 0.39349, -0.49576, -0.27026, -0.72543,
 15:01:06.278,f6:90:cc:01:6d:25, 2015-01-01 02:46:26.200, 0.982, -0.046, -0.056, 0.122, 0.61, 0.366, -138.735, -86.105, -46.813, -31.260, -8.733, 0.607, 33.7, 0.01736, 0.72321, -0.05005, 0.68851,
 15:01:06.278,f6:90:cc:01:6d:25, 2015-01-01 02:46:26.200, 0.982, -0.045, -0.057, 0.122, 0.732, 0.488, -138.56, -86.105, -47.016, -31.260, -8.733, 0.607, 33.7, 0.01736, 0.72321, -0.05005, 0.68851,
 15:01:06.298,e3:ca:2d:fd:e0:8c, 2015-01-01 02:46:27.820, 0.879, -0.115, 0.501, 0, 0.61, 0, -12.733, -59.507, 168.069, -21.673, -6.873, -17.667, 28.8, -0.14478, -0.48047, 0.14722, -0.85229,
 15:01:06.299,e3:ca:2d:fd:e0:8c, 2015-01-01 02:46:27.820, 0.878, -0.114, 0.501, 0, 0.427, 0, -12.728, -59.496, 168.069, -21.673, -6.873, -17.667, 28.8, -0.14478, -0.48047, 0.14722, -0.85229,
 15:01:06.301,f6:90:cc:01:6d:25, 2015-01-01 02:46:26.200, 0.983, -0.044, -0.055, 0, 0.793, 0.61, -138.34, -86.105, -47.263, -31.260, -8.733, 0.607, 33.7, 0.01779, 0.72293, -0.05145, 0.68869,
 15:01:06.301,f6:90:cc:01:6d:25, 2015-01-01 02:46:26.200, 0.984, -0.045, -0.054, 0.061, 0.854, 0.488, -138.098, -86.105, -47.538, -31.260, -8.733, 0.607, 33.7, 0.01779, 0.72293, -0.05145, 0.68869,
 15:01:06.301,ed:40:fe:65:30:6c, 2015-01-01 02:46:26.935, 0.935, 0.003, 0.358, 0.366, 0.671, 0.122, 0.319, -68.741, -123.173, -27.247, -9.060, 4.160, 31.08, 0.39349, -0.49576, -0.27026, -0.72543,
 15:01:06.301,ed:40:fe:65:30:6c, 2015-01-01 02:46:26.935, 0.936, 0.001, 0.359, 0.549, 0.732, 0.183, 0.319, -68.736, -123.157, -27.247, -9.060, 4.160, 31.08, 0.39349, -0.49576, -0.27026, -0.72543,
 15:01:06.301,ed:35:33:d3:6c:f8, 2015-01-01 02:46:26.995, 0.925, 0.079, 0.345, -1.099, 2.319, -0.122, 12.783, -68.741, 138.406, -24.413, -11.167, -15.287, 32.66, -0.23273, -0.5574, 0.11481, -0.78857,
 15:01:06.302,ed:35:33:d3:6c:f8, 2015-01-01 02:46:26.995, 0.926, 0.08, 0.347, -0.854, 2.441, 0.061, 12.744, -68.698, 138.389, -24.413, -11.167, -15.287, 32.66, -0.23273, -0.5574, 0.11481, -0.78857,
 15:01:06.321,ed:40:fe:65:30:6c, 2015-01-01 02:46:26.935, 0.936, 0, 0.36, 0.366, 0.732, 0.122, 0.324, -68.725, -123.135, -27.247, -9.060, 4.160, 31.08, 0.39349, -0.49576, -0.27026, -0.72543,
 15:01:06.321,ed:40:fe:65:30:6c, 2015-01-01 02:46:26.935, 0.933, 0, 0.365, 0.366, 0.61, 0.122, 0.324, -68.714, -123.118, -27.247, -9.060, 4.160, 31.08, 0.39349, -0.49576, -0.27026, -0.72543,
 15:01:06.322,ed:35:33:d3:6c:f8, 2015-01-01 02:46:26.995, 0.927, 0.078, 0.349, -0.732, 2.441, 0.122, 12.695, -68.654, 138.373, -24.993, -11.153, -15.727, 32.66, -0.23273, -0.5574, 0.11481, -0.78857,
 15:01:06.322,ed:35:33:d3:6c:f8, 2015-01-01 02:46:26.995, 0.925, 0.077, 0.354, -0.244, 2.075, 0.244, 12.651, -68.615, 138.351, -24.993, -11.153, -15.727, 32.66, -0.23273, -0.5574, 0.11481, -0.78857,
 15:01:06.343,e3:ca:2d:fd:e0:8c, 2015-01-01 02:46:27.820, 0.879, -0.115, 0.502, 0, 0.305, 0, -12.728, -59.491, 168.074, -21.673, -6.873, -17.667, 28.8, -0.14478, -0.48047, 0.14722, -0.85229,
 15:01:06.343,e3:ca:2d:fd:e0:8c, 2015-01-01 02:46:27.820, 0.88, -0.115, 0.503, 0, 0.183, 0, -12.728, -59.491, 168.08, -21.673, -6.873, -17.667, 28.8, -0.14478, -0.48047, 0.14722, -0.85229,
 15:01:06.347,f6:90:cc:01:6d:25, 2015-01-01 02:46:26.200, 0.983, -0.047, -0.051, 0.244, 0.916, 0.427, -137.862, -86.111, -47.807, -31.260, -8.733, 0.607, 33.7, 0.01779, 0.72293, -0.05145, 0.68869,
 15:01:06.347,f6:90:cc:01:6d:25, 2015-01-01 02:46:26.200, 0.983, -0.047, -0.05, 0.366, 0.671, 0.244, -137.642, -86.116, -48.049, -31.260, -8.733, 0.607, 33.7, 0.01779, 0.72293, -0.05145, 0.68869,
 15:01:06.366,ed:40:fe:65:30:6c, 2015-01-01 02:46:26.935, 0.931, 0, 0.366, 0.488, 0.488, 0.183, 0.324, -68.703, -123.102, -27.247, -9.060, 4.160, 31.08, 0.39349, -0.49576, -0.27026, -0.72543,
 15:01:06.366,ed:40:fe:65:30:6c, 2015-01-01 02:46:26.935, 0.934, 0, 0.367, 0.488, 0.549, 0.244, 0.324, -68.698, -123.08, -27.247, -9.060, 4.160, 31.08, 0.39349, -0.49576, -0.27026, -0.72543,
 15:01:06.368,ed:35:33:d3:6c:f8, 2015-01-01 02:46:26.995, 0.923, 0.078, 0.358, 0.061, 1.526, 0.488, 12.612, -68.582, 138.329, -24.993, -11.153, -15.727, 32.66, -0.23273, -0.5574, 0.11481, -0.78857,
 15:01:06.368,ed:35:33:d3:6c:f8, 2015-01-01 02:46:26.995, 0.922, 0.077, 0.358, 0.244, 1.16, 0.916, 12.574, -68.56, 138.318, -24.993, -11.153, -15.727, 32.66, -0.23273, -0.5574, 0.11481, -0.78857,
 15:01:06.391,f6:90:cc:01:6d:25, 2015-01-01 02:46:26.490, 0.983, -0.045, -0.049, 0.305, 0.488, 0.122, -137.494, -86.122, -48.208, -31.260, -8.733, 0.607, 33.7, 0.01779, 0.72293, -0.05145, 0.68869,
 15:01:06.391,f6:90:cc:01:6d:25, 2015-01-01 02:46:26.490, 0.982, -0.045, -0.049, 0.061, 0.427, 0.122, -137.395, -86.122, -48.318, -31.260, -8.733, 0.607, 33.7, 0.01779, 0.72293, -0.05145, 0.68869,
 15:01:06.391,ed:35:33:d3:6c:f8, 2015-01-01 02:46:26.995, 0.923, 0.077, 0.358, 0.061, 1.099, 0.732, 12.519, -68.549, 138.323, -24.993, -11.153, -15.727, 32.66, -0.23453, -0.55542, 0.11459, -0.78946,
 15:01:06.391,ed:35:33:d3:6c:f8, 2015-01-01 02:46:26.995, 0.922, 0.078, 0.358, -0.122, 1.038, 0.61, 12.475, -68.533, 138.345, -24.993, -11.153, -15.727, 32.66, -0.23453, -0.55542, 0.11459, -0.78946,
 15:01:06.410,e3:ca:2d:fd:e0:8c, 2015-01-01 02:46:27.820, 0.878, -0.115, 0.505, 0, 0.122, 0, -12.728, -59.491, 168.08, -21.673, -6.873, -17.667, 28.8, -0.14478, -0.48047, 0.14722, -0.85229,
 15:01:06.410,e3:ca:2d:fd:e0:8c, 2015-01-01 02:46:27.820, 0.877, -0.115, 0.506, 0.244, 0.122, 0, -12.728, -59.485, 168.085, -21.673, -6.873, -17.667, 28.8, -0.14478, -0.48047, 0.14722, -0.85229,
 15:01:06.412,ed:40:fe:65:30:6c, 2015-01-01 02:46:26.935, 0.933, 0.002, 0.367, 0.305, 0.488, 0.183, 0.319, -68.687, -123.052, -27.247, -9.060, 4.160, 31.08, 0.39349, -0.49576, -0.27026, -0.72543,
 15:01:06.412,ed:40:fe:65:30:6c, 2015-01-01 02:46:26.935, 0.934, 0.002, 0.367, 0.305, 0.366, 0.061, 0.319, -68.676, -123.036, -27.247, -9.060, 4.160, 31.08, 0.39349, -0.49576, -0.27026, -0.72543,
 15:01:06.434,e3:ca:2d:fd:e0:8c, 2015-01-01 02:46:27.820, 0.876, -0.115, 0.505, 0.305, 0.183, 0, -12.722, -59.485, 168.091, -21.540, -7.080, -17.427, 28.8, -0.14478, -0.48047, 0.14722, -0.85229,
 15:01:06.434,e3:ca:2d:fd:e0:8c, 2015-01-01 02:46:27.820, 0.875, -0.115, 0.506, 0.183, 0.061, 0, -12.717, -59.485, 168.096, -21.540, -7.080, -17.427, 28.8, -0.14478, -0.48047, 0.14722, -0.85229,
 15:01:06.435,ed:35:33:d3:6c:f8, 2015-01-01 02:46:26.995, 0.925, 0.077, 0.359, -0.183, 1.099, 0.366, 12.431, -68.516, 138.373, -24.993, -11.153, -15.727, 32.66, -0.23453, -0.55542, 0.11459, -0.78946,
 15:01:06.435,ed:35:33:d3:6c:f8, 2015-01-01 02:46:26.995, 0.923, 0.077, 0.359, -0.549, 1.16, 0.122, 12.398, -68.494, 138.389, -24.993, -11.153, -15.727, 32.66, -0.23453, -0.55542, 0.11459, -0.78946,
 15:01:06.436,f6:90:cc:01:6d:25, 2015-01-01 02:46:26.490, 0.983, -0.045, -0.047, -0.122, 0.366, 0.183, -137.302, -86.127, -48.422, -31.260, -8.733, 0.607, 33.7, 0.01779, 0.72293, -0.05145, 0.68869,
 15:01:06.436,f6:90:cc:01:6d:25, 2015-01-01 02:46:26.490, 0.983, -0.046, -0.047, -0.122, 0.366, 0.183, -137.208, -86.127, -48.527, -31.260, -8.733, 0.607, 33.7, 0.01779, 0.72293, -0.05145, 0.68869,
 15:01:06.458,ed:40:fe:65:30:6c, 2015-01-01 02:46:26.935, 0.933, 0.001, 0.368, 0.061, 0.244, 0, 0.319, -68.67, -123.025, -27.247, -9.060, 4.160, 31.08, 0.39349, -0.49576, -0.27026, -0.72543,
 15:01:06.458,ed:40:fe:65:30:6c, 2015-01-01 02:46:26.935, 0.932, 0.001, 0.368, 0, 0.183, 0, 0.319, -68.665, -123.014, -27.247, -9.060, 4.160, 31.08, 0.39349, -0.49576, -0.27026, -0.72543,
 15:01:06.479,e3:ca:2d:fd:e0:8c, 2015-01-01 02:46:27.820, 0.877, -0.115, 0.506, 0, 0.061, 0, -12.717, -59.485, 168.102, -21.540, -7.080, -17.427, 28.8, -0.14478, -0.48047, 0.14722, -0.85229,
 15:01:06.479,e3:ca:2d:fd:e0:8c, 2015-01-01 02:46:27.820, 0.877, -0.115, 0.506, -0.061, 0.183, 0, -12.717, -59.48, 168.102, -21.540, -7.080, -17.427, 28.8, -0.14478, -0.48047, 0.14722, -0.85229,
 15:01:06.481,f6:90:cc:01:6d:25, 2015-01-01 02:46:26.490, 0.982, -0.047, -0.048, -0.244, 0.244, 0.244, -137.115, -86.127, -48.625, -31.260, -8.733, 0.607, 33.7, 0.01779, 0.72293, -0.05145, 0.68869,
 15:01:06.481,f6:90:cc:01:6d:25, 2015-01-01 02:46:26.490, 0.982, -0.048, -0.047, -0.244, 0.061, 0.244, -137.032, -86.127, -48.713, -31.260, -8.733, 0.607, 33.7, 0.01779, 0.72293, -0.05145, 0.68869,
 15:01:06.481,ed:35:33:d3:6c:f8, 2015-01-01 02:46:27.330, 0.921, 0.076, 0.36, -0.488, 1.099, 0.122, 12.371, -68.472, 138.373, -24.993, -11.153, -15.727, 32.66, -0.23453, -0.55542, 0.11459, -0.78946,
 15:01:06.481,ed:35:33:d3:6c:f8, 2015-01-01 02:46:27.330, 0.923, 0.075, 0.359, -0.488, 0.916, 0, 12.343, -68.45, 138.345, -24.993, -11.153, -15.727, 32.66, -0.23453, -0.55542, 0.11459, -0.78946,
 15:01:06.501,e3:ca:2d:fd:e0:8c, 2015-01-01 02:46:27.820, 0.876, -0.115, 0.506, -0.061, 0.305, 0, -12.717, -59.474, 168.107, -21.540, -7.080, -17.427, 28.8, -0.14401, -0.48038, 0.14673, -0.85257,
 15:01:06.501,e3:ca:2d:fd:e0:8c, 2015-01-01 02:46:27.820, 0.876, -0.114, 0.505, 0, 0.305, 0, -12.717, -59.469, 168.113, -21.540, -7.080, -17.427, 28.8, -0.14401, -0.48038, 0.14673, -0.85257,
 15:01:06.503,f6:90:cc:01:6d:25, 2015-01-01 02:46:26.490, 0.985, -0.047, -0.047, -0.305, 0, 0.244, -136.978, -86.122, -48.763, -31.260, -8.733, 0.607, 33.7, 0.01779, 0.72293, -0.05145, 0.68869,
 15:01:06.503,f6:90:cc:01:6d:25, 2015-01-01 02:46:26.490, 0.986, -0.045, -0.046, -0.244, 0, 0.183, -136.928, -86.122, -48.807, -31.260, -8.733, 0.607, 33.7, 0.01779, 0.72293, -0.05145, 0.68869,
 15:01:06.527,ed:35:33:d3:6c:f8, 2015-01-01 02:46:27.330, 0.926, 0.074, 0.358, -0.427, 0.916, -0.061, 12.327, -68.434, 138.312, -24.993, -11.153, -15.727, 32.66, -0.23453, -0.55542, 0.11459, -0.78946,
 15:01:06.527,ed:35:33:d3:6c:f8, 2015-01-01 02:46:27.330, 0.925, 0.077, 0.358, -0.122, 0.916, -0.061, 12.31, -68.417, 138.274, -24.993, -11.153, -15.727, 32.66, -0.23453, -0.55542, 0.11459, -0.78946,
 15:01:06.529,ed:40:fe:65:30:6c, 2015-01-01 02:46:26.935, 0.932, 0.001, 0.368, 0, 0.122, 0, 0.319, -68.665, -123.003, -27.393, -9.040, 3.440, 31.08, 0.39349, -0.49576, -0.27026, -0.72543,
 15:01:06.529,ed:40:fe:65:30:6c, 2015-01-01 02:46:26.935, 0.935, 0, 0.366, -0.122, 0.183, 0, 0.313, -68.659, -122.992, -27.393, -9.040, 3.440, 31.08, 0.39349, -0.49576, -0.27026, -0.72543,
 15:01:06.545,e3:ca:2d:fd:e0:8c, 2015-01-01 02:46:27.820, 0.878, -0.114, 0.504, 0, 0.061, 0, -12.717, -59.464, 168.113, -21.540, -7.080, -17.427, 28.8, -0.14401, -0.48038, 0.14673, -0.85257,
 15:01:06.545,e3:ca:2d:fd:e0:8c, 2015-01-01 02:46:27.820, 0.879, -0.113, 0.504, -0.122, -0.244, 0, -12.722, -59.469, 168.118, -21.540, -7.080, -17.427, 28.8, -0.14401, -0.48038, 0.14673, -0.85257,
 15:01:06.546,ed:40:fe:65:30:6c, 2015-01-01 02:46:26.935, 0.938, 0, 0.367, 0.061, 0.183, 0, 0.313, -68.654, -122.986, -27.393, -9.040, 3.440, 31.08, 0.39548, -0.49445, -0.27112, -0.72491,
 15:01:06.546,ed:40:fe:65:30:6c, 2015-01-01 02:46:26.935, 0.932, 0, 0.366, 0.244, 0.183, -0.061, 0.313, -68.648, -122.975, -27.393, -9.040, 3.440, 31.08, 0.39548, -0.49445, -0.27112, -0.72491,
 15:01:06.549,f6:90:cc:01:6d:25, 2015-01-01 02:46:26.490, 0.982, -0.048, -0.049, -0.183, 0, 0, -136.901, -86.116, -48.823, -31.260, -8.733, 0.607, 33.7, 0.01779, 0.72293, -0.05145, 0.68869,
 15:01:06.549,f6:90:cc:01:6d:25, 2015-01-01 02:46:26.490, 0.98, -0.048, -0.054, -0.244, 0, -0.183, -136.917, -86.116, -48.796, -31.260, -8.733, 0.607, 33.7, 0.01779, 0.72293, -0.05145, 0.68869,
 15:01:06.570,ed:35:33:d3:6c:f8, 2015-01-01 02:46:27.330, 0.92, 0.072, 0.36, -0.183, 1.038, 0.122, 12.294, -68.401, 138.246, -24.993, -11.153, -15.727, 32.66, -0.23453, -0.55542, 0.11459, -0.78946,
 15:01:06.570,ed:35:33:d3:6c:f8, 2015-01-01 02:46:27.330, 0.922, 0.072, 0.356, -0.427, 0.916, -0.061, 12.272, -68.379, 138.263, -24.993, -11.153, -15.727, 32.66, -0.23453, -0.55542, 0.11459, -0.78946,
 15:01:06.591,ed:40:fe:65:30:6c, 2015-01-01 02:46:26.935, 0.933, -0.003, 0.366, 0.061, 0.061, 0, 0.319, -68.648, -122.97, -27.393, -9.040, 3.440, 31.08, 0.39548, -0.49445, -0.27112, -0.72491,
 15:01:06.591,ed:40:fe:65:30:6c, 2015-01-01 02:46:26.935, 0.936, 0.001, 0.361, 0, 0.061, 0, 0.313, -68.643, -122.959, -27.393, -9.040, 3.440, 31.08, 0.39548, -0.49445, -0.27112, -0.72491,
 15:01:06.593,f6:90:cc:01:6d:25, 2015-01-01 02:46:26.490, 0.983, -0.044, -0.053, -0.549, -0.061, -0.305, -136.983, -86.122, -48.73, -30.813, -8.860, 0.993, 33.7, 0.01779, 0.72293, -0.05145, 0.68869,
 15:01:06.593,f6:90:cc:01:6d:25, 2015-01-01 02:46:26.490, 0.989, -0.043, -0.051, -0.549, -0.061, -0.183, -137.06, -86.122, -48.653, -30.813, -8.860, 0.993, 33.7, 0.01779, 0.72293, -0.05145, 0.68869,
 15:01:06.593,ed:35:33:d3:6c:f8, 2015-01-01 02:46:27.330, 0.929, 0.077, 0.356, -0.61, 0.977, -0.732, 12.255, -68.362, 138.279, -24.993, -11.153, -15.727, 32.66, -0.23453, -0.55542, 0.11459, -0.78946,
 15:01:06.593,ed:35:33:d3:6c:f8, 2015-01-01 02:46:27.330, 0.932, 0.082, 0.356, -0.183, 0.671, -0.793, 12.272, -68.34, 138.285, -24.993, -11.153, -15.727, 32.66, -0.23453, -0.55542, 0.11459, -0.78946,
 15:01:06.614,ed:40:fe:65:30:6c, 2015-01-01 02:46:27.270, 0.943, 0.005, 0.363, -0.122, 0, -0.488, 0.324, -68.643, -122.964, -27.393, -9.040, 3.440, 31.08, 0.39548, -0.49445, -0.27112, -0.72491,
 15:01:06.614,ed:40:fe:65:30:6c, 2015-01-01 02:46:27.270, 0.939, 0.006, 0.363, 0.183, 0.122, -0.488, 0.346, -68.643, -122.981, -27.393, -9.040, 3.440, 31.08, 0.39548, -0.49445, -0.27112, -0.72491,
 15:01:06.614,e3:ca:2d:fd:e0:8c, 2015-01-01 02:46:27.820, 0.879, -0.115, 0.504, -0.122, -0.427, 0, -12.728, -59.474, 168.129, -21.540, -7.080, -17.427, 28.8, -0.14401, -0.48038, 0.14673, -0.85257,
 15:01:06.614,e3:ca:2d:fd:e0:8c, 2015-01-01 02:46:27.820, 0.878, -0.115, 0.504, 0, -0.244, 0, -12.728, -59.48, 168.135, -21.540, -7.080, -17.427, 28.8, -0.14401, -0.48038, 0.14673, -0.85257,
 15:01:06.635,e3:ca:2d:fd:e0:8c, 2015-01-01 02:46:27.820, 0.88, -0.115, 0.504, 0, -0.061, 0, -12.733, -59.485, 168.14, -21.540, -7.080, -17.427, 28.86, -0.14401, -0.48038, 0.14673, -0.85257,
 15:01:06.635,e3:ca:2d:fd:e0:8c, 2015-01-01 02:46:27.820, 0.881, -0.115, 0.505, 0.061, -0.061, 0, -12.733, -59.485, 168.146, -21.540, -7.080, -17.427, 28.86, -0.14401, -0.48038, 0.14673, -0.85257,
 15:01:06.639,f6:90:cc:01:6d:25, 2015-01-01 02:46:26.490, 0.989, -0.045, -0.05, -0.183, 0, 0, -137.104, -86.122, -48.62, -30.813, -8.860, 0.993, 33.7, 0.01816, 0.72247, -0.05243, 0.68909,
 15:01:06.639,f6:90:cc:01:6d:25, 2015-01-01 02:46:26.490, 0.984, -0.051, -0.052, 0, 0.061, -0.061, -137.115, -86.122, -48.615, -30.813, -8.860, 0.993, 33.7, 0.01816, 0.72247, -0.05243, 0.68909,
 15:01:06.659,ed:40:fe:65:30:6c, 2015-01-01 02:46:27.270, 0.934, 0, 0.365, 0.366, 0.244, 0.061, 0.363, -68.643, -122.986, -27.393, -9.040, 3.440, 31.08, 0.39548, -0.49445, -0.27112, -0.72491,
 15:01:06.659,ed:40:fe:65:30:6c, 2015-01-01 02:46:27.270, 0.932, 0.001, 0.366, 0, 0.427, 0.183, 0.363, -68.637, -122.97, -27.393, -9.040, 3.440, 31.08, 0.39548, -0.49445, -0.27112, -0.72491,
 15:01:06.660,ed:35:33:d3:6c:f8, 2015-01-01 02:46:27.330, 0.923, 0.083, 0.357, 0.488, 0.305, 0, 12.294, -68.329, 138.285, -24.993, -11.153, -15.727, 32.66, -0.23453, -0.55542, 0.11459, -0.78946,
 15:01:06.660,ed:35:33:d3:6c:f8, 2015-01-01 02:46:27.330, 0.921, 0.075, 0.36, 0.244, 0.244, 0.671, 12.288, -68.324, 138.329, -24.993, -11.153, -15.727, 32.66, -0.23453, -0.55542, 0.11459, -0.78946,
 15:01:06.681,e3:ca:2d:fd:e0:8c, 2015-01-01 02:46:27.820, 0.88, -0.115, 0.505, 0, -0.061, 0, -12.733, -59.485, 168.151, -21.540, -7.080, -17.427, 28.86, -0.14401, -0.48038, 0.14673, -0.85257,
 15:01:06.681,e3:ca:2d:fd:e0:8c, 2015-01-01 02:46:27.820, 0.878, -0.115, 0.505, 0.061, 0, 0, -12.733, -59.485, 168.157, -21.540, -7.080, -17.427, 28.86, -0.14401, -0.48038, 0.14673, -0.85257,
 15:01:06.682,ed:35:33:d3:6c:f8, 2015-01-01 02:46:27.330, 0.921, 0.076, 0.357, 0.122, 0.122, 0.122, 12.266, -68.324, 138.378, -24.347, -11.247, -14.427, 32.66, -0.23453, -0.55542, 0.11459, -0.78946,
 15:01:06.682,ed:35:33:d3:6c:f8, 2015-01-01 02:46:27.330, 0.923, 0.076, 0.355, 0.305, 0.061, -0.122, 12.261, -68.324, 138.378, -24.347, -11.247, -14.427, 32.66, -0.23453, -0.55542, 0.11459, -0.78946,
 15:01:06.684,f6:90:cc:01:6d:25, 2015-01-01 02:46:26.800, 0.98, -0.046, -0.051, -0.183, 0, -0.122, -137.131, -86.122, -48.593, -30.813, -8.860, 0.993, 33.7, 0.01816, 0.72247, -0.05243, 0.68909,
 15:01:06.684,f6:90:cc:01:6d:25, 2015-01-01 02:46:26.800, 0.982, -0.043, -0.052, -0.366, 0.122, 0, -137.142, -86.122, -48.582, -30.813, -8.860, 0.993, 33.7, 0.01816, 0.72247, -0.05243, 0.68909,
 15:01:06.703,e3:ca:2d:fd:e0:8c, 2015-01-01 02:46:28.310, 0.876, -0.114, 0.503, 0.183, 0, 0, -12.733, -59.485, 168.162, -21.540, -7.080, -17.427, 28.86, -0.14401, -0.48038, 0.14673, -0.85257,
 15:01:06.703,e3:ca:2d:fd:e0:8c, 2015-01-01 02:46:28.310, 0.878, -0.113, 0.502, 0.122, -0.244, 0, -12.733, -59.491, 168.168, -21.540, -7.080, -17.427, 28.86, -0.14401, -0.48038, 0.14673, -0.85257,
 15:01:06.704,ed:40:fe:65:30:6c, 2015-01-01 02:46:27.270, 0.933, 0.002, 0.363, 0.183, 0.244, -0.061, 0.357, -68.626, -122.959, -27.393, -9.040, 3.440, 31.08, 0.39548, -0.49445, -0.27112, -0.72491,
 15:01:06.704,ed:40:fe:65:30:6c, 2015-01-01 02:46:27.270, 0.935, 0, 0.363, 0.366, 0.122, -0.183, 0.368, -68.626, -122.953, -27.393, -9.040, 3.440, 31.08, 0.39548, -0.49445, -0.27112, -0.72491,
 15:01:06.706,f6:90:cc:01:6d:25, 2015-01-01 02:46:26.800, 0.983, -0.044, -0.051, -0.366, 0.183, -0.122, -137.142, -86.122, -48.593, -30.813, -8.860, 0.993, 33.7, 0.01816, 0.72247, -0.05243, 0.68909,
 15:01:06.706,f6:90:cc:01:6d:25, 2015-01-01 02:46:26.800, 0.984, -0.047, -0.051, -0.366, 0.122, -0.366, -137.186, -86.127, -48.56, -30.813, -8.860, 0.993, 33.7, 0.01816, 0.72247, -0.05243, 0.68909,
 15:01:06.727,ed:40:fe:65:30:6c, 2015-01-01 02:46:27.270, 0.935, 0, 0.363, 0.244, 0.183, -0.183, 0.385, -68.626, -122.959, -27.393, -9.040, 3.440, 31.08, 0.39548, -0.49445, -0.27112, -0.72491,
 15:01:06.727,ed:40:fe:65:30:6c, 2015-01-01 02:46:27.270, 0.934, 0.002, 0.363, 0.305, 0.244, -0.244, 0.401, -68.621, -122.959, -27.393, -9.040, 3.440, 31.08, 0.39548, -0.49445, -0.27112, -0.72491,
 15:01:06.728,ed:35:33:d3:6c:f8, 2015-01-01 02:46:27.330, 0.924, 0.075, 0.356, 0.122, 0, 0.122, 12.272, -68.324, 138.345, -24.347, -11.247, -14.427, 32.66, -0.23453, -0.55542, 0.11459, -0.78946,
 15:01:06.728,ed:35:33:d3:6c:f8, 2015-01-01 02:46:27.330, 0.924, 0.075, 0.356, 0.122, 0.122, 0.061, 12.266, -68.324, 138.329, -24.347, -11.247, -14.427, 32.66, -0.23453, -0.55542, 0.11459, -0.78946,
 15:01:06.747,e3:ca:2d:fd:e0:8c, 2015-01-01 02:46:28.310, 0.879, -0.114, 0.504, 0, -0.366, 0, -12.733, -59.496, 168.179, -21.540, -7.080, -17.427, 28.86, -0.14401, -0.48038, 0.14673, -0.85257,
 15:01:06.748,e3:ca:2d:fd:e0:8c, 2015-01-01 02:46:28.310, 0.878, -0.114, 0.505, -0.122, -0.244, 0, -12.739, -59.502, 168.184, -21.540, -7.080, -17.427, 28.86, -0.14401, -0.48038, 0.14673, -0.85257,
 15:01:06.751,f6:90:cc:01:6d:25, 2015-01-01 02:46:26.800, 0.983, -0.046, -0.051, -0.305, 0.305, -0.366, -137.241, -86.133, -48.516, -30.813, -8.860, 0.993, 33.7, 0.01816, 0.72247, -0.05243, 0.68909,
 15:01:06.751,f6:90:cc:01:6d:25, 2015-01-01 02:46:26.800, 0.984, -0.045, -0.051, -0.427, 0.366, -0.305, -137.263, -86.138, -48.499, -30.813, -8.860, 0.993, 33.7, 0.01816, 0.72247, -0.05243, 0.68909,
 15:01:06.771,ed:40:fe:65:30:6c, 2015-01-01 02:46:27.270, 0.935, 0.002, 0.363, 0.244, 0.305, -0.366, 0.417, -68.615, -122.97, -27.393, -9.040, 3.440, 31.08, 0.39548, -0.49445, -0.27112, -0.72491,
 15:01:06.771,ed:40:fe:65:30:6c, 2015-01-01 02:46:27.270, 0.935, 0.002, 0.364, 0.061, 0.305, -0.488, 0.439, -68.61, -122.986, -27.393, -9.040, 3.440, 31.08, 0.39548, -0.49445, -0.27112, -0.72491,
 15:01:06.793,e3:ca:2d:fd:e0:8c, 2015-01-01 02:46:28.310, 0.878, -0.114, 0.505, -0.061, -0.061, 0, -12.739, -59.502, 168.19, -21.540, -7.080, -17.427, 28.86, -0.14401, -0.48038, 0.14673, -0.85257,
 15:01:06.793,e3:ca:2d:fd:e0:8c, 2015-01-01 02:46:28.310, 0.878, -0.115, 0.505, 0, -0.061, 0, -12.744, -59.507, 168.195, -21.540, -7.080, -17.427, 28.86, -0.14401, -0.48038, 0.14673, -0.85257,
 15:01:06.796,ed:35:33:d3:6c:f8, 2015-01-01 02:46:27.330, 0.923, 0.075, 0.356, 0.183, 0.488, -0.549, 12.266, -68.318, 138.29, -24.347, -11.247, -14.427, 32.66, -0.23651, -0.55325, 0.11594, -0.79022,
 15:01:06.796,ed:35:33:d3:6c:f8, 2015-01-01 02:46:27.330, 0.925, 0.077, 0.358, -0.061, 0.61, -0.854, 12.294, -68.307, 138.219, -24.347, -11.247, -14.427, 32.66, -0.23651, -0.55325, 0.11594, -0.79022,
 15:01:06.798,f6:90:cc:01:6d:25, 2015-01-01 02:46:26.800, 0.985, -0.045, -0.05, -0.671, 0.427, -0.305, -137.269, -86.149, -48.505, -30.813, -8.860, 0.993, 33.7, 0.01816, 0.72247, -0.05243, 0.68909,
 15:01:06.798,f6:90:cc:01:6d:25, 2015-01-01 02:46:26.800, 0.984, -0.044, -0.052, -0.793, 0.61, -0.366, -137.263, -86.16, -48.532, -30.813, -8.860, 0.993, 33.7, 0.01816, 0.72247, -0.05243, 0.68909,
 15:01:06.815,e3:ca:2d:fd:e0:8c, 2015-01-01 02:46:28.310, 0.878, -0.114, 0.504, 0, -0.061, 0, -12.744, -59.507, 168.201, -21.540, -7.080, -17.427, 28.86, -0.14401, -0.48038, 0.14673, -0.85257,
 15:01:06.815,e3:ca:2d:fd:e0:8c, 2015-01-01 02:46:28.310, 0.879, -0.114, 0.503, 0, 0, 0, -12.744, -59.507, 168.201, -21.540, -7.080, -17.427, 28.86, -0.14401, -0.48038, 0.14673, -0.85257,
 15:01:06.817,ed:40:fe:65:30:6c, 2015-01-01 02:46:27.270, 0.935, 0.001, 0.362, 0.061, 0.244, -0.427, 0.461, -68.61, -123.003, -27.393, -9.040, 3.440, 31.08, 0.39548, -0.49445, -0.27112, -0.72491,
 15:01:06.817,ed:40:fe:65:30:6c, 2015-01-01 02:46:27.270, 0.939, 0.001, 0.364, 0.183, 0.244, -0.488, 0.489, -68.604, -123.019, -27.393, -9.040, 3.440, 31.08, 0.39548, -0.49445, -0.27112, -0.72491,
 15:01:06.817,ed:35:33:d3:6c:f8, 2015-01-01 02:46:27.685, 0.922, 0.078, 0.356, -0.122, 0.488, -0.793, 12.321, -68.297, 138.164, -24.347, -11.247, -14.427, 32.66, -0.23651, -0.55325, 0.11594, -0.79022,
 15:01:06.817,ed:35:33:d3:6c:f8, 2015-01-01 02:46:27.685, 0.926, 0.076, 0.355, -0.488, 0.732, -0.61, 12.349, -68.286, 138.148, -24.347, -11.247, -14.427, 32.66, -0.23651, -0.55325, 0.11594, -0.79022,
 15:01:06.841,f6:90:cc:01:6d:25, 2015-01-01 02:46:26.800, 0.985, -0.046, -0.05, -0.549, 0.61, -0.427, -137.252, -86.171, -48.56, -30.813, -8.860, 0.993, 33.7, 0.01816, 0.72247, -0.05243, 0.68909,
 15:01:06.841,f6:90:cc:01:6d:25, 2015-01-01 02:46:26.800, 0.986, -0.046, -0.052, -0.244, 0.61, -0.427, -137.241, -86.182, -48.582, -30.813, -8.860, 0.993, 33.7, 0.01816, 0.72247, -0.05243, 0.68909,
 15:01:06.841,ed:35:33:d3:6c:f8, 2015-01-01 02:46:27.685, 0.928, 0.077, 0.36, -0.732, 0.793, -1.282, 12.365, -68.269, 138.137, -24.347, -11.247, -14.427, 32.66, -0.23651, -0.55325, 0.11594, -0.79022,
 15:01:06.842,ed:35:33:d3:6c:f8, 2015-01-01 02:46:27.685, 0.921, 0.084, 0.358, -0.122, 0.854, -1.16, 12.398, -68.247, 138.087, -24.347, -11.247, -14.427, 32.66, -0.23651, -0.55325, 0.11594, -0.79022,
 15:01:06.864,f6:90:cc:01:6d:25, 2015-01-01 02:46:26.800, 0.985, -0.048, -0.052, -0.183, 0.61, -0.305, -137.214, -86.199, -48.62, -31.080, -9.127, 0.833, 33.7, 0.01816, 0.72247, -0.05243, 0.68909,
 15:01:06.864,f6:90:cc:01:6d:25, 2015-01-01 02:46:26.800, 0.984, -0.048, -0.05, 0, 0.549, -0.366, -137.181, -86.204, -48.653, -31.080, -9.127, 0.833, 33.7, 0.01816, 0.72247, -0.05243, 0.68909,
 15:01:06.884,ed:40:fe:65:30:6c, 2015-01-01 02:46:27.270, 0.937, 0.006, 0.364, -0.183, 0.305, -0.671, 0.511, -68.599, -123.041, -27.120, -9.387, 3.693, 31.08, 0.39548, -0.49445, -0.27112, -0.72491,
 15:01:06.884,ed:40:fe:65:30:6c, 2015-01-01 02:46:27.270, 0.935, 0.004, 0.365, 0.427, 0.244, -0.244, 0.538, -68.599, -123.058, -27.120, -9.387, 3.693, 31.08, 0.39548, -0.49445, -0.27112, -0.72491,
 15:01:06.884,ed:35:33:d3:6c:f8, 2015-01-01 02:46:27.685, 0.925, 0.079, 0.36, 0.122, 0.732, -0.305, 12.437, -68.231, 138.038, -24.347, -11.247, -14.427, 32.66, -0.23651, -0.55325, 0.11594, -0.79022,
 15:01:06.884,ed:35:33:d3:6c:f8, 2015-01-01 02:46:27.685, 0.923, 0.078, 0.359, -0.305, 0.732, -0.427, 12.442, -68.22, 138.01, -24.347, -11.247, -14.427, 32.66, -0.23651, -0.55325, 0.11594, -0.79022,
 15:01:06.906,e3:ca:2d:fd:e0:8c, 2015-01-01 02:46:28.310, 0.88, -0.116, 0.504, 0, 0, 0, -12.744, -59.507, 168.206, -21.540, -7.080, -17.427, 28.86, -0.14401, -0.48038, 0.14673, -0.85257,
 15:01:06.906,e3:ca:2d:fd:e0:8c, 2015-01-01 02:46:28.310, 0.88, -0.116, 0.505, 0.061, 0.122, 0, -12.744, -59.502, 168.212, -21.540, -7.080, -17.427, 28.86, -0.14401, -0.48038, 0.14673, -0.85257,
 15:01:06.908,ed:40:fe:65:30:6c, 2015-01-01 02:46:27.270, 0.936, 0.001, 0.365, 0.244, 0.488, 0, 0.549, -68.593, -123.058, -27.120, -9.387, 3.693, 31.08, 0.39618, -0.49338, -0.27209, -0.72488,
 15:01:06.908,ed:40:fe:65:30:6c, 2015-01-01 02:46:27.270, 0.933, 0.003, 0.364, 0.122, 0.549, -0.061, 0.555, -68.582, -123.052, -27.120, -9.387, 3.693, 31.08, 0.39618, -0.49338, -0.27209, -0.72488,
 15:01:06.910,f6:90:cc:01:6d:25, 2015-01-01 02:46:26.800, 0.984, -0.046, -0.049, -0.061, 0.61, -0.183, -137.131, -86.215, -48.708, -31.080, -9.127, 0.833, 33.7, 0.01816, 0.72247, -0.05243, 0.68909,
 15:01:06.910,f6:90:cc:01:6d:25, 2015-01-01 02:46:26.800, 0.98, -0.044, -0.049, -0.061, 0.793, -0.183, -137.032, -86.226, -48.801, -31.080, -9.127, 0.833, 33.7, 0.01816, 0.72247, -0.05243, 0.68909,
 15:01:06.928,e3:ca:2d:fd:e0:8c, 2015-01-01 02:46:28.310, 0.879, -0.116, 0.504, 0.122, 0.305, 0, -12.739, -59.496, 168.212, -21.680, -7.147, -17.087, 28.86, -0.14401, -0.48038, 0.14673, -0.85257,
 15:01:06.928,e3:ca:2d:fd:e0:8c, 2015-01-01 02:46:28.310, 0.878, -0.115, 0.503, 0.183, 0.305, 0, -12.739, -59.491, 168.212, -21.680, -7.147, -17.087, 28.86, -0.14401, -0.48038, 0.14673, -0.85257,
 15:01:06.929,ed:35:33:d3:6c:f8, 2015-01-01 02:46:27.685, 0.919, 0.079, 0.358, -0.183, 0.793, -0.305, 12.448, -68.203, 137.966, -24.347, -11.247, -14.427, 32.66, -0.23651, -0.55325, 0.11594, -0.79022,
 15:01:06.929,ed:35:33:d3:6c:f8, 2015-01-01 02:46:27.685, 0.92, 0.079, 0.359, -0.183, 0.977, -0.427, 12.448, -68.187, 137.939, -24.347, -11.247, -14.427, 32.66, -0.23651, -0.55325, 0.11594, -0.79022,
 15:01:06.952,ed:40:fe:65:30:6c, 2015-01-01 02:46:27.270, 0.932, 0.004, 0.364, 0.305, 0.61, -0.061, 0.56, -68.571, -123.047, -27.120, -9.387, 3.693, 31.08, 0.39618, -0.49338, -0.27209, -0.72488,
 15:01:06.952,ed:40:fe:65:30:6c, 2015-01-01 02:46:27.270, 0.933, 0.003, 0.365, 0.366, 0.61, -0.122, 0.571, -68.56, -123.047, -27.120, -9.387, 3.693, 31.08, 0.39618, -0.49338, -0.27209, -0.72488,
 15:01:06.954,f6:90:cc:01:6d:25, 2015-01-01 02:46:26.800, 0.98, -0.043, -0.05, -0.061, 0.732, -0.244, -136.939, -86.237, -48.9, -31.080, -9.127, 0.833, 33.7, 0.01929, 0.72202, -0.0527, 0.68954,
 15:01:06.954,f6:90:cc:01:6d:25, 2015-01-01 02:46:26.800, 0.984, -0.043, -0.049, 0.061, 0.671, -0.305, -136.873, -86.248, -48.972, -31.080, -9.127, 0.833, 33.7, 0.01929, 0.72202, -0.0527, 0.68954,
 15:01:06.975,e3:ca:2d:fd:e0:8c, 2015-01-01 02:46:28.310, 0.877, -0.114, 0.502, 0.061, 0, 0, -12.739, -59.491, 168.217, -21.680, -7.147, -17.087, 28.86, -0.14401, -0.48038, 0.14673, -0.85257,
 15:01:06.975,e3:ca:2d:fd:e0:8c, 2015-01-01 02:46:28.310, 0.878, -0.114, 0.503, 0, -0.061, 0, -12.739, -59.496, 168.223, -21.680, -7.147, -17.087, 28.86, -0.14401, -0.48038, 0.14673, -0.85257,
 15:01:06.975,ed:35:33:d3:6c:f8, 2015-01-01 02:46:27.685, 0.922, 0.079, 0.36, -0.122, 0.793, -0.183, 12.453, -68.17, 137.917, -24.347, -11.247, -14.427, 32.66, -0.23651, -0.55325, 0.11594, -0.79022,
 15:01:06.975,ed:35:33:d3:6c:f8, 2015-01-01 02:46:27.685, 0.923, 0.081, 0.36, 0.061, 0.671, 0.244, 12.442, -68.154, 137.906, -24.347, -11.247, -14.427, 32.66, -0.23651, -0.55325, 0.11594, -0.79022,
 15:01:06.975,ed:40:fe:65:30:6c, 2015-01-01 02:46:27.630, 0.935, 0.004, 0.364, 0.427, 0.488, -0.061, 0.582, -68.555, -123.041, -27.120, -9.387, 3.693, 31.08, 0.39618, -0.49338, -0.27209, -0.72488,
 15:01:06.976,ed:40:fe:65:30:6c, 2015-01-01 02:46:27.630, 0.937, 0.006, 0.366, 0.366, 0.366, -0.061, 0.593, -68.544, -123.036, -27.120, -9.387, 3.693, 31.08, 0.39618, -0.49338, -0.27209, -0.72488,
 15:01:06.995,e3:ca:2d:fd:e0:8c, 2015-01-01 02:46:28.310, 0.879, -0.114, 0.504, 0, 0.061, 0, -12.739, -59.491, 168.228, -21.680, -7.147, -17.087, 28.86, -0.14322, -0.48062, 0.14639, -0.85263,
 15:01:06.995,e3:ca:2d:fd:e0:8c, 2015-01-01 02:46:28.310, 0.878, -0.114, 0.504, 0, 0.122, 0, -12.739, -59.491, 168.228, -21.680, -7.147, -17.087, 28.86, -0.14322, -0.48062, 0.14639, -0.85263,
 15:01:06.999,f6:90:cc:01:6d:25, 2015-01-01 02:46:27.115, 0.986, -0.043, -0.048, 0, 0.671, -0.305, -136.813, -86.259, -49.032, -31.080, -9.127, 0.833, 33.7, 0.01929, 0.72202, -0.0527, 0.68954,
 15:01:06.999,f6:90:cc:01:6d:25, 2015-01-01 02:46:27.115, 0.986, -0.043, -0.048, -0.061, 0.671, -0.244, -136.747, -86.27, -49.109, -31.080, -9.127, 0.833, 33.7, 0.01929, 0.72202, -0.0527, 0.68954,
 15:01:07.018,ed:40:fe:65:30:6c, 2015-01-01 02:46:27.630, 0.936, 0.005, 0.365, 0.244, 0.61, -0.122, 0.604, -68.538, -123.036, -27.120, -9.387, 3.693, 31.08, 0.39618, -0.49338, -0.27209, -0.72488,
 15:01:07.018,ed:40:fe:65:30:6c, 2015-01-01 02:46:27.630, 0.936, 0.005, 0.366, 0.183, 0.732, -0.122, 0.615, -68.527, -123.036, -27.120, -9.387, 3.693, 31.08, 0.39618, -0.49338, -0.27209, -0.72488,
 15:01:07.021,ed:35:33:d3:6c:f8, 2015-01-01 02:46:27.685, 0.925, 0.081, 0.36, 0, 0.61, 0.061, 12.426, -68.143, 137.922, -24.347, -11.247, -14.427, 32.66, -0.23651, -0.55325, 0.11594, -0.79022,
 15:01:07.021,ed:35:33:d3:6c:f8, 2015-01-01 02:46:27.685, 0.923, 0.081, 0.36, 0, 0.671, 0, 12.42, -68.137, 137.922, -24.347, -11.247, -14.427, 32.66, -0.23651, -0.55325, 0.11594, -0.79022,
 15:01:07.042,e3:ca:2d:fd:e0:8c, 2015-01-01 02:46:28.310, 0.878, -0.114, 0.504, 0.061, 0, 0, -12.739, -59.491, 168.234, -21.680, -7.147, -17.087, 28.86, -0.14322, -0.48062, 0.14639, -0.85263,
 15:01:07.042,e3:ca:2d:fd:e0:8c, 2015-01-01 02:46:28.310, 0.879, -0.114, 0.504, 0, -0.122, 0, -12.739, -59.496, 168.239, -21.680, -7.147, -17.087, 28.86, -0.14322, -0.48062, 0.14639, -0.85263,
 15:01:07.042,ed:35:33:d3:6c:f8, 2015-01-01 02:46:27.685, 0.923, 0.08, 0.361, -0.183, 0.854, -0.061, 12.415, -68.121, 137.917, -24.400, -10.880, -15.093, 32.66, -0.23651, -0.55325, 0.11594, -0.79022,
 15:01:07.042,ed:35:33:d3:6c:f8, 2015-01-01 02:46:27.685, 0.92, 0.08, 0.361, -0.122, 0.977, -0.183, 12.404, -68.104, 137.9, -24.400, -10.880, -15.093, 32.66, -0.23651, -0.55325, 0.11594, -0.79022,
 15:01:07.043,f6:90:cc:01:6d:25, 2015-01-01 02:46:27.115, 0.985, -0.043, -0.049, -0.122, 0.854, -0.183, -136.637, -86.287, -49.23, -31.080, -9.127, 0.833, 33.7, 0.01929, 0.72202, -0.0527, 0.68954,
 15:01:07.043,f6:90:cc:01:6d:25, 2015-01-01 02:46:27.115, 0.984, -0.043, -0.048, -0.122, 0.916, -0.244, -136.522, -86.298, -49.362, -31.080, -9.127, 0.833, 33.7, 0.01929, 0.72202, -0.0527, 0.68954,
 15:01:07.063,ed:40:fe:65:30:6c, 2015-01-01 02:46:27.630, 0.934, 0.004, 0.367, 0.183, 0.793, -0.183, 0.626, -68.511, -123.036, -27.120, -9.387, 3.693, 31.08, 0.39618, -0.49338, -0.27209, -0.72488,
 15:01:07.063,ed:40:fe:65:30:6c, 2015-01-01 02:46:27.630, 0.932, 0.005, 0.367, 0.183, 0.732, -0.183, 0.637, -68.5, -123.036, -27.120, -9.387, 3.693, 31.08, 0.39618, -0.49338, -0.27209, -0.72488,
 15:01:07.064,e3:ca:2d:fd:e0:8c, 2015-01-01 02:46:28.670, 0.879, -0.113, 0.505, -0.061, 0, 0, -12.744, -59.496, 168.239, -21.680, -7.147, -17.087, 28.86, -0.14322, -0.48062, 0.14639, -0.85263,
 15:01:07.064,e3:ca:2d:fd:e0:8c, 2015-01-01 02:46:28.670, 0.878, -0.115, 0.505, -0.122, 0.122, 0, -12.744, -59.491, 168.245, -21.680, -7.147, -17.087, 28.86, -0.14322, -0.48062, 0.14639, -0.85263,
 15:01:07.066,f6:90:cc:01:6d:25, 2015-01-01 02:46:27.115, 0.982, -0.043, -0.046, 0, 0.793, -0.366, -136.439, -86.314, -49.455, -31.080, -9.127, 0.833, 33.7, 0.01929, 0.72202, -0.0527, 0.68954,
 15:01:07.066,f6:90:cc:01:6d:25, 2015-01-01 02:46:27.115, 0.983, -0.045, -0.047, 0.122, 0.793, -0.244, -136.346, -86.331, -49.554, -31.080, -9.127, 0.833, 33.7, 0.01929, 0.72202, -0.0527, 0.68954,
 15:01:07.087,ed:35:33:d3:6c:f8, 2015-01-01 02:46:27.685, 0.92, 0.081, 0.363, -0.183, 1.099, -0.061, 12.398, -68.082, 137.867, -24.400, -10.880, -15.093, 32.66, -0.23651, -0.55325, 0.11594, -0.79022,
 15:01:07.087,ed:35:33:d3:6c:f8, 2015-01-01 02:46:27.685, 0.921, 0.08, 0.363, -0.366, 0.977, 0.122, 12.382, -68.066, 137.856, -24.400, -10.880, -15.093, 32.66, -0.23651, -0.55325, 0.11594, -0.79022,
 15:01:07.108,e3:ca:2d:fd:e0:8c, 2015-01-01 02:46:28.670, 0.878, -0.115, 0.505, 0, 0.305, 0, -12.744, -59.485, 168.245, -21.680, -7.147, -17.087, 28.86, -0.14322, -0.48062, 0.14639, -0.85263,
 15:01:07.108,e3:ca:2d:fd:e0:8c, 2015-01-01 02:46:28.670, 0.877, -0.115, 0.504, 0.122, 0.244, 0, -12.739, -59.48, 168.245, -21.680, -7.147, -17.087, 28.86, -0.14322, -0.48062, 0.14639, -0.85263,
 15:01:07.109,ed:40:fe:65:30:6c, 2015-01-01 02:46:27.630, 0.933, 0.005, 0.368, 0.305, 0.732, -0.122, 0.654, -68.483, -123.041, -27.120, -9.387, 3.693, 31.08, 0.39618, -0.49338, -0.27209, -0.72488,
 15:01:07.109,ed:40:fe:65:30:6c, 2015-01-01 02:46:27.630, 0.933, 0.003, 0.367, 0.366, 0.793, 0, 0.665, -68.472, -123.036, -27.120, -9.387, 3.693, 31.08, 0.39618, -0.49338, -0.27209, -0.72488,
 15:01:07.112,f6:90:cc:01:6d:25, 2015-01-01 02:46:27.115, 0.984, -0.046, -0.044, 0.244, 0.671, -0.244, -136.258, -86.342, -49.642, -31.080, -9.127, 0.833, 33.7, 0.01929, 0.72202, -0.0527, 0.68954,
 15:01:07.112,f6:90:cc:01:6d:25, 2015-01-01 02:46:27.115, 0.986, -0.043, -0.044, 0.244, 0.793, -0.305, -136.165, -86.353, -49.735, -31.080, -9.127, 0.833, 33.7, 0.01929, 0.72202, -0.0527, 0.68954,
 15:01:07.131,ed:40:fe:65:30:6c, 2015-01-01 02:46:27.630, 0.936, 0.004, 0.367, 0.305, 0.916, 0.061, 0.67, -68.456, -123.025, -27.120, -9.387, 3.693, 31.08, 0.39618, -0.49338, -0.27209, -0.72488,
 15:01:07.131,ed:40:fe:65:30:6c, 2015-01-01 02:46:27.630, 0.935, 0.007, 0.368, 0.488, 1.099, -0.122, 0.676, -68.439, -123.019, -27.120, -9.387, 3.693, 31.08, 0.39618, -0.49338, -0.27209, -0.72488,
 15:01:07.152,e3:ca:2d:fd:e0:8c, 2015-01-01 02:46:28.670, 0.878, -0.115, 0.504, 0.061, 0.061, 0, -12.739, -59.48, 168.25, -21.680, -7.147, -17.087, 28.86, -0.14322, -0.48062, 0.14639, -0.85263,
 15:01:07.152,e3:ca:2d:fd:e0:8c, 2015-01-01 02:46:28.670, 0.879, -0.115, 0.504, 0, -0.061, 0, -12.739, -59.485, 168.256, -21.680, -7.147, -17.087, 28.86, -0.14322, -0.48062, 0.14639, -0.85263,
 15:01:07.156,ed:35:33:d3:6c:f8, 2015-01-01 02:46:27.685, 0.922, 0.077, 0.36, -0.549, 0.854, 0.366, 12.354, -68.049, 137.862, -24.400, -10.880, -15.093, 32.66, -0.23984, -0.55136, 0.11661, -0.79044,
 15:01:07.156,ed:35:33:d3:6c:f8, 2015-01-01 02:46:27.685, 0.93, 0.078, 0.362, -0.793, 1.526, -0.061, 12.321, -68.027, 137.851, -24.400, -10.880, -15.093, 32.66, -0.23984, -0.55136, 0.11661, -0.79044,
 15:01:07.156,f6:90:cc:01:6d:25, 2015-01-01 02:46:27.115, 0.985, -0.04, -0.047, 0.427, 0.977, -0.244, -136.022, -86.369, -49.872, -31.080, -9.127, 0.833, 33.7, 0.01929, 0.72202, -0.0527, 0.68954,
 15:01:07.156,f6:90:cc:01:6d:25, 2015-01-01 02:46:27.115, 0.982, -0.045, -0.045, 0.854, 0.977, -0.305, -135.873, -86.385, -50.015, -31.080, -9.127, 0.833, 33.7, 0.01929, 0.72202, -0.0527, 0.68954,
 15:01:07.175,e3:ca:2d:fd:e0:8c, 2015-01-01 02:46:28.670, 0.879, -0.115, 0.504, 0, 0.122, 0, -12.739, -59.48, 168.256, -21.680, -7.147, -17.087, 28.86, -0.14322, -0.48062, 0.14639, -0.85263,
 15:01:07.175,e3:ca:2d:fd:e0:8c, 2015-01-01 02:46:28.670, 0.879, -0.116, 0.504, 0.122, 0.244, 0, -12.739, -59.474, 168.256, -21.680, -7.147, -17.087, 28.86, -0.14322, -0.48062, 0.14639, -0.85263,
 15:01:07.177,ed:40:fe:65:30:6c, 2015-01-01 02:46:27.630, 0.929, 0.003, 0.369, 0.488, 0.671, -0.061, 0.692, -68.423, -123.019, -27.120, -9.387, 3.693, 31.08, 0.39618, -0.49338, -0.27209, -0.72488,
 15:01:07.177,ed:40:fe:65:30:6c, 2015-01-01 02:46:27.630, 0.931, 0.003, 0.372, 0, 0.793, -0.122, 0.703, -68.406, -123.019, -27.120, -9.387, 3.693, 31.08, 0.39618, -0.49338, -0.27209, -0.72488,
 15:01:07.177,ed:35:33:d3:6c:f8, 2015-01-01 02:46:28.045, 0.916, 0.081, 0.361, -2.075, 3.357, -0.549, 12.283, -67.983, 137.834, -24.400, -10.880, -15.093, 32.66, -0.23984, -0.55136, 0.11661, -0.79044,
 15:01:07.177,ed:35:33:d3:6c:f8, 2015-01-01 02:46:28.045, 0.917, 0.074, 0.373, -0.488, 0.854, -0.488, 12.261, -67.939, 137.818, -24.400, -10.880, -15.093, 32.66, -0.23984, -0.55136, 0.11661, -0.79044,
 15:01:07.200,ed:35:33:d3:6c:f8, 2015-01-01 02:46:28.045, 0.921, 0.078, 0.367, -0.549, 1.465, -0.549, 12.261, -67.917, 137.785, -24.400, -10.880, -15.093, 32.66, -0.23984, -0.55136, 0.11661, -0.79044,
 15:01:07.200,ed:35:33:d3:6c:f8, 2015-01-01 02:46:28.045, 0.926, 0.081, 0.367, -0.671, 1.404, -1.404, 12.277, -67.885, 137.719, -24.400, -10.880, -15.093, 32.66, -0.23984, -0.55136, 0.11661, -0.79044,
 15:01:07.201,f6:90:cc:01:6d:25, 2015-01-01 02:46:27.115, 0.982, -0.045, -0.048, 0.732, 0.977, -0.366, -135.731, -86.402, -50.142, -30.673, -8.540, 0.500, 33.7, 0.01929, 0.72202, -0.0527, 0.68954,
 15:01:07.201,f6:90:cc:01:6d:25, 2015-01-01 02:46:27.115, 0.985, -0.042, -0.046, 0.366, 0.854, -0.427, -135.637, -86.418, -50.235, -30.673, -8.540, 0.500, 33.7, 0.01929, 0.72202, -0.0527, 0.68954,
 15:01:07.220,e3:ca:2d:fd:e0:8c, 2015-01-01 02:46:28.670, 0.879, -0.114, 0.505, 0.183, 0.305, 0, -12.733, -59.469, 168.261, -21.680, -7.147, -17.087, 28.86, -0.14322, -0.48062, 0.14639, -0.85263,
 15:01:07.220,e3:ca:2d:fd:e0:8c, 2015-01-01 02:46:28.670, 0.88, -0.114, 0.506, 0.183, 0.183, 0, -12.728, -59.469, 168.261, -21.680, -7.147, -17.087, 28.86, -0.14322, -0.48062, 0.14639, -0.85263,
 15:01:07.243,ed:40:fe:65:30:6c, 2015-01-01 02:46:27.630, 0.936, 0.007, 0.37, -0.061, 0.61, -0.183, 0.709, -68.395, -123.019, -27.073, -9.273, 2.893, 31.08, 0.39618, -0.49338, -0.27209, -0.72488,
 15:01:07.243,ed:40:fe:65:30:6c, 2015-01-01 02:46:27.630, 0.936, 0.011, 0.371, -0.183, 0.61, -0.366, 0.72, -68.384, -123.03, -27.073, -9.273, 2.893, 31.08, 0.39618, -0.49338, -0.27209, -0.72488,
 15:01:07.245,ed:35:33:d3:6c:f8, 2015-01-01 02:46:28.045, 0.918, 0.088, 0.373, 0.183, 0.305, -0.732, 12.316, -67.868, 137.642, -24.400, -10.880, -15.093, 32.66, -0.23984, -0.55136, 0.11661, -0.79044,
 15:01:07.245,ed:35:33:d3:6c:f8, 2015-01-01 02:46:28.045, 0.916, 0.08, 0.373, 0.793, -0.916, 0.549, 12.338, -67.874, 137.615, -24.400, -10.880, -15.093, 32.66, -0.23984, -0.55136, 0.11661, -0.79044,
 15:01:07.247,f6:90:cc:01:6d:25, 2015-01-01 02:46:27.115, 0.989, -0.04, -0.044, 0.427, 0.671, -0.244, -135.555, -86.429, -50.323, -30.673, -8.540, 0.500, 33.7, 0.02005, 0.7207, -0.05243, 0.69089,
 15:01:07.247,f6:90:cc:01:6d:25, 2015-01-01 02:46:27.115, 0.985, -0.041, -0.045, 0.427, 0.549, -0.183, -135.478, -86.44, -50.4, -30.673, -8.540, 0.500, 33.7, 0.02005, 0.7207, -0.05243, 0.69089,
 15:01:07.266,e3:ca:2d:fd:e0:8c, 2015-01-01 02:46:28.670, 0.88, -0.113, 0.506, 0, 0.244, 0, -12.728, -59.464, 168.261, -21.680, -7.147, -17.087, 28.86, -0.14322, -0.48062, 0.14639, -0.85263,
 15:01:07.268,e3:ca:2d:fd:e0:8c, 2015-01-01 02:46:28.670, 0.878, -0.113, 0.506, 0, 0.366, 0, -12.728, -59.458, 168.261, -21.680, -7.147, -17.087, 28.86, -0.14322, -0.48062, 0.14639, -0.85263,
 15:01:07.269,ed:40:fe:65:30:6c, 2015-01-01 02:46:27.630, 0.929, 0.008, 0.373, 0.427, 0.549, 0, 0.736, -68.373, -123.03, -27.073, -9.273, 2.893, 31.08, 0.39764, -0.4913, -0.27264, -0.72528,
 15:01:07.269,ed:40:fe:65:30:6c, 2015-01-01 02:46:27.630, 0.928, 0.003, 0.374, 0.366, 0.366, 0.305, 0.731, -68.362, -123.008, -27.073, -9.273, 2.893, 31.08, 0.39764, -0.4913, -0.27264, -0.72528,
 15:01:07.269,f6:90:cc:01:6d:25, 2015-01-01 02:46:27.405, 0.98, -0.045, -0.043, 0.305, 0.244, -0.427, -135.505, -86.451, -50.383, -30.673, -8.540, 0.500, 33.7, 0.02005, 0.7207, -0.05243, 0.69089,
 15:01:07.269,f6:90:cc:01:6d:25, 2015-01-01 02:46:27.405, 0.98, -0.042, -0.042, 0.183, 0, -0.427, -135.593, -86.457, -50.29, -30.673, -8.540, 0.500, 33.7, 0.02005, 0.7207, -0.05243, 0.69089,
 15:01:07.291,ed:35:33:d3:6c:f8, 2015-01-01 02:46:28.045, 0.917, 0.076, 0.37, 0.122, -0.854, 0.793, 12.321, -67.89, 137.626, -24.400, -10.880, -15.093, 32.66, -0.23984, -0.55136, 0.11661, -0.79044,
 15:01:07.291,ed:35:33:d3:6c:f8, 2015-01-01 02:46:28.045, 0.919, 0.078, 0.37, 0, -0.671, 0.244, 12.305, -67.906, 137.615, -24.400, -10.880, -15.093, 32.66, -0.23984, -0.55136, 0.11661, -0.79044,
 15:01:07.310,e3:ca:2d:fd:e0:8c, 2015-01-01 02:46:28.670, 0.876, -0.114, 0.505, -0.061, 0.244, 0, -12.728, -59.453, 168.261, -21.680, -7.080, -17.947, 28.86, -0.14322, -0.48062, 0.14639, -0.85263,
 15:01:07.310,e3:ca:2d:fd:e0:8c, 2015-01-01 02:46:28.670, 0.876, -0.114, 0.502, 0, 0.061, 0, -12.728, -59.453, 168.267, -21.680, -7.080, -17.947, 28.86, -0.14322, -0.48062, 0.14639, -0.85263,
 15:01:07.313,ed:40:fe:65:30:6c, 2015-01-01 02:46:27.630, 0.929, 0.004, 0.373, 0, 0.183, 0.183, 0.725, -68.357, -122.992, -27.073, -9.273, 2.893, 31.08, 0.39764, -0.4913, -0.27264, -0.72528,
 15:01:07.313,ed:40:fe:65:30:6c, 2015-01-01 02:46:27.630, 0.931, 0.005, 0.372, 0.061, -0.122, 0, 0.725, -68.357, -122.981, -27.073, -9.273, 2.893, 31.08, 0.39764, -0.4913, -0.27264, -0.72528,
 15:01:07.314,f6:90:cc:01:6d:25, 2015-01-01 02:46:27.405, 0.982, -0.04, -0.042, 0, 0, -0.427, -135.703, -86.462, -50.18, -30.673, -8.540, 0.500, 33.7, 0.02005, 0.7207, -0.05243, 0.69089,
 15:01:07.314,f6:90:cc:01:6d:25, 2015-01-01 02:46:27.405, 0.984, -0.042, -0.043, -0.122, -0.122, -0.61, -135.879, -86.468, -50.004, -30.673, -8.540, 0.500, 33.7, 0.02005, 0.7207, -0.05243, 0.69089,
 15:01:07.334,ed:40:fe:65:30:6c, 2015-01-01 02:46:27.985, 0.932, 0.003, 0.371, 0.061, -0.183, 0, 0.731, -68.362, -122.975, -27.073, -9.273, 2.893, 31.08, 0.39764, -0.4913, -0.27264, -0.72528,
 15:01:07.334,ed:40:fe:65:30:6c, 2015-01-01 02:46:27.985, 0.932, 0.004, 0.371, 0, 0, 0.061, 0.725, -68.362, -122.97, -27.073, -9.273, 2.893, 31.08, 0.39764, -0.4913, -0.27264, -0.72528,
 15:01:07.335,ed:35:33:d3:6c:f8, 2015-01-01 02:46:28.045, 0.92, 0.079, 0.367, 0, -0.977, 0.671, 12.288, -67.923, 137.593, -24.400, -10.880, -15.093, 32.66, -0.23984, -0.55136, 0.11661, -0.79044,
 15:01:07.335,ed:35:33:d3:6c:f8, 2015-01-01 02:46:28.045, 0.919, 0.076, 0.366, 0, -1.343, 1.221, 12.255, -67.945, 137.593, -24.400, -10.880, -15.093, 32.66, -0.23984, -0.55136, 0.11661, -0.79044,
 15:01:07.360,f6:90:cc:01:6d:25, 2015-01-01 02:46:27.405, 0.984, -0.043, -0.042, -0.061, -0.183, -0.854, -136.121, -86.473, -49.757, -30.673, -8.540, 0.500, 33.7, 0.02005, 0.7207, -0.05243, 0.69089,
 15:01:07.360,f6:90:cc:01:6d:25, 2015-01-01 02:46:27.405, 0.985, -0.042, -0.042, -0.061, -0.183, -0.671, -136.313, -86.479, -49.548, -30.673, -8.540, 0.500, 33.7, 0.02005, 0.7207, -0.05243, 0.69089,
 15:01:07.379,ed:40:fe:65:30:6c, 2015-01-01 02:46:27.985, 0.933, 0.007, 0.371, 0, 0.244, 0, 0.725, -68.357, -122.964, -27.073, -9.273, 2.893, 31.08, 0.39764, -0.4913, -0.27264, -0.72528,
 15:01:07.379,ed:40:fe:65:30:6c, 2015-01-01 02:46:27.985, 0.934, 0.007, 0.372, -0.122, 0.305, 0, 0.725, -68.351, -122.959, -27.073, -9.273, 2.893, 31.08, 0.39764, -0.4913, -0.27264, -0.72528,
 15:01:07.380,ed:35:33:d3:6c:f8, 2015-01-01 02:46:28.045, 0.92, 0.078, 0.365, -0.122, -0.732, 0.732, 12.217, -67.967, 137.604, -24.400, -10.880, -15.093, 32.66, -0.23984, -0.55136, 0.11661, -0.79044,
 15:01:07.380,ed:35:33:d3:6c:f8, 2015-01-01 02:46:28.045, 0.923, 0.079, 0.365, -0.061, -0.427, 0.183, 12.2, -67.978, 137.587, -24.400, -10.880, -15.093, 32.66, -0.23984, -0.55136, 0.11661, -0.79044,
 15:01:07.400,e3:ca:2d:fd:e0:8c, 2015-01-01 02:46:28.670, 0.877, -0.114, 0.504, 0.061, -0.061, 0, -12.728, -59.453, 168.272, -21.680, -7.080, -17.947, 28.86, -0.14322, -0.48062, 0.14639, -0.85263,
 15:01:07.400,e3:ca:2d:fd:e0:8c, 2015-01-01 02:46:28.670, 0.878, -0.116, 0.507, 0, -0.183, 0, -12.728, -59.458, 168.272, -21.680, -7.080, -17.947, 28.86, -0.14322, -0.48062, 0.14639, -0.85263,
 15:01:07.402,ed:35:33:d3:6c:f8, 2015-01-01 02:46:28.045, 0.921, 0.078, 0.368, 0, -0.427, -0.122, 12.2, -67.983, 137.571, -24.647, -11.620, -16.340, 32.66, -0.23984, -0.55136, 0.11661, -0.79044,
 15:01:07.402,ed:35:33:d3:6c:f8, 2015-01-01 02:46:28.045, 0.918, 0.078, 0.364, 0, -0.549, -0.122, 12.211, -67.994, 137.565, -24.647, -11.620, -16.340, 32.66, -0.23984, -0.55136, 0.11661, -0.79044,
 15:01:07.404,f6:90:cc:01:6d:25, 2015-01-01 02:46:27.405, 0.985, -0.041, -0.042, -0.305, -0.244, -0.488, -136.478, -86.484, -49.373, -30.673, -8.540, 0.500, 33.7, 0.02005, 0.7207, -0.05243, 0.69089,
 15:01:07.404,f6:90:cc:01:6d:25, 2015-01-01 02:46:27.405, 0.983, -0.041, -0.044, -0.549, -0.122, -0.427, -136.609, -86.49, -49.235, -30.673, -8.540, 0.500, 33.7, 0.02005, 0.7207, -0.05243, 0.69089,
 15:01:07.424,ed:40:fe:65:30:6c, 2015-01-01 02:46:27.985, 0.93, 0.004, 0.371, -0.244, 0.244, 0, 0.725, -68.346, -122.948, -27.073, -9.273, 2.893, 31.08, 0.39764, -0.4913, -0.27264, -0.72528,
 15:01:07.424,ed:40:fe:65:30:6c, 2015-01-01 02:46:27.985, 0.933, 0.004, 0.37, -0.183, 0.061, 0.061, 0.72, -68.34, -122.943, -27.073, -9.273, 2.893, 31.08, 0.39764, -0.4913, -0.27264, -0.72528,
 15:01:07.445,e3:ca:2d:fd:e0:8c, 2015-01-01 02:46:28.670, 0.876, -0.115, 0.507, -0.122, -0.183, 0, -12.733, -59.458, 168.278, -21.680, -7.080, -17.947, 28.86, -0.14279, -0.48044, 0.14609, -0.85284,
 15:01:07.445,e3:ca:2d:fd:e0:8c, 2015-01-01 02:46:28.670, 0.878, -0.115, 0.506, 0, -0.183, 0, -12.733, -59.464, 168.283, -21.680, -7.080, -17.947, 28.86, -0.14279, -0.48044, 0.14609, -0.85284,
 15:01:07.448,f6:90:cc:01:6d:25, 2015-01-01 02:46:27.405, 0.983, -0.041, -0.045, -0.61, -0.122, -0.488, -136.758, -86.495, -49.087, -30.673, -8.540, 0.500, 33.7, 0.02005, 0.7207, -0.05243, 0.69089,
 15:01:07.448,f6:90:cc:01:6d:25, 2015-01-01 02:46:27.405, 0.985, -0.042, -0.044, -0.244, -0.183, -0.488, -136.917, -86.495, -48.922, -30.673, -8.540, 0.500, 33.7, 0.02005, 0.7207, -0.05243, 0.69089,
 15:01:07.448,ed:35:33:d3:6c:f8, 2015-01-01 02:46:28.045, 0.926, 0.076, 0.367, 0.122, -0.671, -0.427, 12.228, -68, 137.538, -24.647, -11.620, -16.340, 32.66, -0.23984, -0.55136, 0.11661, -0.79044,
 15:01:07.448,ed:35:33:d3:6c:f8, 2015-01-01 02:46:28.045, 0.924, 0.083, 0.362, 0.183, -1.16, -0.488, 12.261, -68.016, 137.488, -24.647, -11.620, -16.340, 32.66, -0.23984, -0.55136, 0.11661, -0.79044,
 15:01:07.467,e3:ca:2d:fd:e0:8c, 2015-01-01 02:46:28.670, 0.879, -0.115, 0.504, 0, -0.061, 0, -12.733, -59.464, 168.289, -21.680, -7.080, -17.947, 28.86, -0.14279, -0.48044, 0.14609, -0.85284,
 15:01:07.467,e3:ca:2d:fd:e0:8c, 2015-01-01 02:46:28.670, 0.879, -0.115, 0.506, 0, 0.122, 0, -12.739, -59.464, 168.294, -21.680, -7.080, -17.947, 28.86, -0.14279, -0.48044, 0.14609, -0.85284,
 15:01:07.469,ed:40:fe:65:30:6c, 2015-01-01 02:46:27.985, 0.937, 0.005, 0.371, -0.244, 0.122, -0.122, 0.72, -68.34, -122.943, -27.073, -9.273, 2.893, 31.08, 0.39764, -0.4913, -0.27264, -0.72528,
 15:01:07.469,ed:40:fe:65:30:6c, 2015-01-01 02:46:27.985, 0.934, 0.007, 0.369, -0.183, 0, -0.061, 0.72, -68.335, -122.943, -27.073, -9.273, 2.893, 31.08, 0.39764, -0.4913, -0.27264, -0.72528,
 15:01:07.472,f6:90:cc:01:6d:25, 2015-01-01 02:46:27.405, 0.988, -0.041, -0.045, 0, -0.122, -0.305, -137.01, -86.501, -48.818, -30.660, -8.707, 0.460, 33.7, 0.02005, 0.7207, -0.05243, 0.69089,
 15:01:07.472,f6:90:cc:01:6d:25, 2015-01-01 02:46:27.405, 0.984, -0.043, -0.045, -0.244, -0.122, -0.244, -137.098, -86.501, -48.724, -30.660, -8.707, 0.460, 33.7, 0.02005, 0.7207, -0.05243, 0.69089,
 15:01:07.491,ed:40:fe:65:30:6c, 2015-01-01 02:46:27.985, 0.933, 0.004, 0.37, 0.305, 0.122, 0.305, 0.714, -68.335, -122.921, -27.073, -9.273, 2.893, 31.08, 0.39764, -0.4913, -0.27264, -0.72528,
 15:01:07.491,ed:40:fe:65:30:6c, 2015-01-01 02:46:27.985, 0.932, 0.005, 0.37, -0.122, 0.305, 0.305, 0.703, -68.329, -122.899, -27.073, -9.273, 2.893, 31.08, 0.39764, -0.4913, -0.27264, -0.72528,
 15:01:07.513,e3:ca:2d:fd:e0:8c, 2015-01-01 02:46:28.670, 0.879, -0.116, 0.506, 0.061, 0.061, 0, -12.739, -59.464, 168.294, -21.680, -7.080, -17.947, 28.86, -0.14279, -0.48044, 0.14609, -0.85284,
 15:01:07.513,e3:ca:2d:fd:e0:8c, 2015-01-01 02:46:28.670, 0.879, -0.114, 0.504, 0.061, 0, 0, -12.733, -59.464, 168.294, -21.680, -7.080, -17.947, 28.86, -0.14279, -0.48044, 0.14609, -0.85284,
 15:01:07.518,f6:90:cc:01:6d:25, 2015-01-01 02:46:27.405, 0.982, -0.043, -0.047, -0.244, -0.244, -0.305, -137.225, -86.501, -48.593, -30.660, -8.707, 0.460, 33.7, 0.02005, 0.7207, -0.05243, 0.69089,
 15:01:07.518,f6:90:cc:01:6d:25, 2015-01-01 02:46:27.405, 0.982, -0.038, -0.047, -0.305, -0.244, -0.122, -137.313, -86.495, -48.499, -30.660, -8.707, 0.460, 33.7, 0.02005, 0.7207, -0.05243, 0.69089,
 15:01:07.536,e3:ca:2d:fd:e0:8c, 2015-01-01 02:46:29.095, 0.88, -0.115, 0.503, 0.061, 0, 0, -12.733, -59.464, 168.3, -21.680, -7.080, -17.947, 28.86, -0.14279, -0.48044, 0.14609, -0.85284,
 15:01:07.536,e3:ca:2d:fd:e0:8c, 2015-01-01 02:46:29.095, 0.878, -0.114, 0.503, 0, 0, 0, -12.733, -59.464, 168.3, -21.680, -7.080, -17.947, 28.86, -0.14279, -0.48044, 0.14609, -0.85284,
 15:01:07.536,ed:40:fe:65:30:6c, 2015-01-01 02:46:27.985, 0.931, 0.008, 0.368, -0.122, 0.244, 0.183, 0.692, -68.324, -122.882, -27.073, -9.273, 2.893, 31.08, 0.39764, -0.4913, -0.27264, -0.72528,
 15:01:07.536,ed:40:fe:65:30:6c, 2015-01-01 02:46:27.985, 0.932, 0.007, 0.368, -0.122, 0.244, 0.061, 0.687, -68.318, -122.871, -27.073, -9.273, 2.893, 31.08, 0.39764, -0.4913, -0.27264, -0.72528,
 15:01:07.537,ed:35:33:d3:6c:f8, 2015-01-01 02:46:28.045, 0.923, 0.083, 0.363, 0.488, -1.221, 0.793, 12.272, -68.038, 137.494, -24.647, -11.620, -16.340, 32.66, -0.24304, -0.55032, 0.11905, -0.78979,
 15:01:07.537,ed:35:33:d3:6c:f8, 2015-01-01 02:46:28.045, 0.921, 0.077, 0.362, 0, -1.282, 1.465, 12.233, -68.066, 137.598, -24.647, -11.620, -16.340, 32.66, -0.24304, -0.55032, 0.11905, -0.78979,
 15:01:07.558,e3:ca:2d:fd:e0:8c, 2015-01-01 02:46:29.095, 0.878, -0.114, 0.503, 0, -0.183, 0, -12.739, -59.464, 168.305, -21.680, -7.080, -17.947, 28.86, -0.14279, -0.48044, 0.14609, -0.85284,
 15:01:07.558,e3:ca:2d:fd:e0:8c, 2015-01-01 02:46:29.095, 0.879, -0.114, 0.502, -0.061, -0.427, 0, -12.739, -59.469, 168.311, -21.680, -7.080, -17.947, 28.86, -0.14279, -0.48044, 0.14609, -0.85284,
 15:01:07.560,ed:35:33:d3:6c:f8, 2015-01-01 02:46:28.400, 0.921, 0.077, 0.361, 0, -1.16, 0.977, 12.189, -68.093, 137.708, -24.647, -11.620, -16.340, 32.66, -0.24304, -0.55032, 0.11905, -0.78979,
 15:01:07.560,ed:35:33:d3:6c:f8, 2015-01-01 02:46:28.400, 0.922, 0.08, 0.358, 0.061, -1.221, 0.488, 12.167, -68.121, 137.769, -24.647, -11.620, -16.340, 32.66, -0.24304, -0.55032, 0.11905, -0.78979,
 15:01:07.561,f6:90:cc:01:6d:25, 2015-01-01 02:46:27.405, 0.982, -0.038, -0.047, -0.427, -0.244, 0.061, -137.368, -86.49, -48.455, -30.660, -8.707, 0.460, 33.7, 0.02042, 0.72092, -0.0513, 0.69073,
 15:01:07.561,f6:90:cc:01:6d:25, 2015-01-01 02:46:27.405, 0.983, -0.036, -0.048, -0.427, -0.183, 0, -137.428, -86.49, -48.406, -30.660, -8.707, 0.460, 33.7, 0.02042, 0.72092, -0.0513, 0.69073,
 15:01:07.580,e3:ca:2d:fd:e0:8c, 2015-01-01 02:46:29.095, 0.88, -0.114, 0.503, -0.183, -0.427, 0, -12.744, -59.48, 168.316, -21.680, -7.080, -17.947, 28.86, -0.14279, -0.48044, 0.14609, -0.85284,
 15:01:07.580,e3:ca:2d:fd:e0:8c, 2015-01-01 02:46:29.095, 0.878, -0.114, 0.505, -0.183, -0.244, 0, -12.75, -59.485, 168.322, -21.680, -7.080, -17.947, 28.86, -0.14279, -0.48044, 0.14609, -0.85284,
 15:01:07.583,ed:35:33:d3:6c:f8, 2015-01-01 02:46:28.400, 0.923, 0.079, 0.358, 0.183, -1.282, 0.61, 12.156, -68.143, 137.807, -24.647, -11.620, -16.340, 32.66, -0.24304, -0.55032, 0.11905, -0.78979,
 15:01:07.583,ed:35:33:d3:6c:f8, 2015-01-01 02:46:28.400, 0.923, 0.078, 0.358, 0.183, -1.099, 0.427, 12.151, -68.17, 137.818, -24.647, -11.620, -16.340, 32.66, -0.24304, -0.55032, 0.11905, -0.78979,
 15:01:07.606,ed:40:fe:65:30:6c, 2015-01-01 02:46:27.985, 0.933, 0.006, 0.367, -0.061, 0.183, 0, 0.687, -68.318, -122.866, -27.213, -8.807, 3.373, 31.08, 0.39764, -0.4913, -0.27264, -0.72528,
 15:01:07.606,ed:40:fe:65:30:6c, 2015-01-01 02:46:27.985, 0.933, 0.007, 0.369, 0, 0.122, 0, 0.692, -68.318, -122.86, -27.213, -8.807, 3.373, 31.08, 0.39764, -0.4913, -0.27264, -0.72528,
 15:01:07.606,ed:35:33:d3:6c:f8, 2015-01-01 02:46:28.400, 0.924, 0.079, 0.358, 0.244, -0.854, 0.244, 12.151, -68.187, 137.812, -24.647, -11.620, -16.340, 32.66, -0.24304, -0.55032, 0.11905, -0.78979,
 15:01:07.606,ed:35:33:d3:6c:f8, 2015-01-01 02:46:28.400, 0.924, 0.078, 0.358, 0.183, -0.854, 0.183, 12.156, -68.203, 137.812, -24.647, -11.620, -16.340, 32.66, -0.24304, -0.55032, 0.11905, -0.78979,
 15:01:07.607,f6:90:cc:01:6d:25, 2015-01-01 02:46:27.720, 0.984, -0.039, -0.048, -0.488, -0.305, 0, -137.527, -86.484, -48.334, -30.660, -8.707, 0.460, 33.7, 0.02042, 0.72092, -0.0513, 0.69073,
 15:01:07.607,f6:90:cc:01:6d:25, 2015-01-01 02:46:27.720, 0.985, -0.041, -0.047, -0.427, -0.244, 0, -137.609, -86.479, -48.274, -30.660, -8.707, 0.460, 33.7, 0.02042, 0.72092, -0.0513, 0.69073,
 15:01:07.625,e3:ca:2d:fd:e0:8c, 2015-01-01 02:46:29.095, 0.878, -0.115, 0.505, -0.122, 0, 0, -12.755, -59.491, 168.327, -21.680, -7.080, -17.947, 28.86, -0.14279, -0.48044, 0.14609, -0.85284,
 15:01:07.625,e3:ca:2d:fd:e0:8c, 2015-01-01 02:46:29.095, 0.878, -0.114, 0.505, 0, 0, 0, -12.761, -59.491, 168.333, -21.680, -7.080, -17.947, 28.86, -0.14279, -0.48044, 0.14609, -0.85284,
 15:01:07.626,ed:40:fe:65:30:6c, 2015-01-01 02:46:27.985, 0.934, 0.006, 0.368, 0, 0.122, 0, 0.692, -68.313, -122.86, -27.213, -8.807, 3.373, 31.08, 0.39868, -0.49066, -0.27292, -0.72504,
 15:01:07.626,ed:40:fe:65:30:6c, 2015-01-01 02:46:27.985, 0.934, 0.006, 0.368, 0, 0.183, 0.061, 0.692, -68.313, -122.849, -27.213, -8.807, 3.373, 31.08, 0.39868, -0.49066, -0.27292, -0.72504,
 15:01:07.628,f6:90:cc:01:6d:25, 2015-01-01 02:46:27.720, 0.985, -0.041, -0.049, -0.244, -0.183, 0, -137.681, -86.473, -48.23, -30.660, -8.707, 0.460, 33.7, 0.02042, 0.72092, -0.0513, 0.69073,
 15:01:07.628,f6:90:cc:01:6d:25, 2015-01-01 02:46:27.720, 0.985, -0.041, -0.05, -0.366, -0.061, 0.061, -137.708, -86.473, -48.224, -30.660, -8.707, 0.460, 33.7, 0.02042, 0.72092, -0.0513, 0.69073,
 15:01:07.670,e3:ca:2d:fd:e0:8c, 2015-01-01 02:46:29.095, 0.879, -0.114, 0.505, 0, 0.244, 0, -12.761, -59.491, 168.333, -21.680, -7.080, -17.947, 28.86, -0.14279, -0.48044, 0.14609, -0.85284,
 15:01:07.670,e3:ca:2d:fd:e0:8c, 2015-01-01 02:46:29.095, 0.878, -0.115, 0.505, 0, 0.488, 0, -12.755, -59.485, 168.333, -21.680, -7.080, -17.947, 28.86, -0.14279, -0.48044, 0.14609, -0.85284,
 15:01:07.671,ed:40:fe:65:30:6c, 2015-01-01 02:46:27.985, 0.934, 0.005, 0.369, 0.061, 0.305, 0.183, 0.692, -68.307, -122.838, -27.213, -8.807, 3.373, 31.08, 0.39868, -0.49066, -0.27292, -0.72504,
 15:01:07.671,ed:40:fe:65:30:6c, 2015-01-01 02:46:27.985, 0.933, 0.003, 0.368, 0.183, 0.183, 0.305, 0.681, -68.307, -122.816, -27.213, -8.807, 3.373, 31.08, 0.39868, -0.49066, -0.27292, -0.72504,
 15:01:07.672,ed:35:33:d3:6c:f8, 2015-01-01 02:46:28.400, 0.924, 0.078, 0.358, 0.183, -0.732, 0.244, 12.156, -68.22, 137.791, -24.647, -11.620, -16.340, 32.66, -0.24304, -0.55032, 0.11905, -0.78979,
 15:01:07.672,ed:35:33:d3:6c:f8, 2015-01-01 02:46:28.400, 0.924, 0.077, 0.357, 0.183, -0.793, 0.671, 12.151, -68.242, 137.78, -24.647, -11.620, -16.340, 32.66, -0.24304, -0.55032, 0.11905, -0.78979,
 15:01:07.675,f6:90:cc:01:6d:25, 2015-01-01 02:46:27.720, 0.984, -0.041, -0.048, -0.244, 0, 0, -137.736, -86.473, -48.219, -30.660, -8.707, 0.460, 33.7, 0.02042, 0.72092, -0.0513, 0.69073,
 15:01:07.675,f6:90:cc:01:6d:25, 2015-01-01 02:46:27.720, 0.984, -0.042, -0.047, -0.122, 0, 0, -137.774, -86.468, -48.203, -30.660, -8.707, 0.460, 33.7, 0.02042, 0.72092, -0.0513, 0.69073,
 15:01:07.695,ed:40:fe:65:30:6c, 2015-01-01 02:46:28.345, 0.933, 0.004, 0.369, 0.183, 0.122, 0.305, 0.676, -68.302, -122.794, -27.213, -8.807, 3.373, 31.08, 0.39868, -0.49066, -0.27292, -0.72504,
 15:01:07.695,ed:40:fe:65:30:6c, 2015-01-01 02:46:28.345, 0.933, 0.004, 0.369, 0.366, 0.122, 0.305, 0.665, -68.302, -122.772, -27.213, -8.807, 3.373, 31.08, 0.39868, -0.49066, -0.27292, -0.72504,
 15:01:07.695,ed:35:33:d3:6c:f8, 2015-01-01 02:46:28.400, 0.923, 0.076, 0.357, 0.244, -0.793, 0.671, 12.129, -68.258, 137.802, -24.647, -11.620, -16.340, 32.66, -0.24304, -0.55032, 0.11905, -0.78979,
 15:01:07.695,ed:35:33:d3:6c:f8, 2015-01-01 02:46:28.400, 0.924, 0.076, 0.357, 0.366, -0.732, 0.671, 12.112, -68.275, 137.851, -24.647, -11.620, -16.340, 32.66, -0.24304, -0.55032, 0.11905, -0.78979,
 15:01:07.721,f6:90:cc:01:6d:25, 2015-01-01 02:46:27.720, 0.985, -0.043, -0.045, 0, 0, 0, -137.796, -86.468, -48.197, -30.660, -8.707, 0.460, 33.7, 0.02042, 0.72092, -0.0513, 0.69073,
 15:01:07.721,f6:90:cc:01:6d:25, 2015-01-01 02:46:27.720, 0.984, -0.042, -0.047, 0.122, 0, 0, -137.812, -86.468, -48.192, -30.660, -8.707, 0.460, 33.7, 0.02042, 0.72092, -0.0513, 0.69073,
 15:01:07.738,e3:ca:2d:fd:e0:8c, 2015-01-01 02:46:29.095, 0.878, -0.115, 0.504, 0, 0.61, 0, -12.755, -59.474, 168.333, -21.680, -7.080, -17.947, 28.86, -0.14279, -0.48044, 0.14609, -0.85284,
 15:01:07.738,e3:ca:2d:fd:e0:8c, 2015-01-01 02:46:29.095, 0.877, -0.116, 0.504, 0, 0.488, 0, -12.75, -59.464, 168.327, -21.680, -7.080, -17.947, 28.86, -0.14279, -0.48044, 0.14609, -0.85284,
 15:01:07.740,ed:40:fe:65:30:6c, 2015-01-01 02:46:28.345, 0.932, 0.003, 0.369, 0.305, 0.305, 0.305, 0.659, -68.302, -122.75, -27.213, -8.807, 3.373, 31.08, 0.39868, -0.49066, -0.27292, -0.72504,
 15:01:07.740,ed:40:fe:65:30:6c, 2015-01-01 02:46:28.345, 0.934, 0.003, 0.369, 0.244, 0.488, 0.366, 0.648, -68.291, -122.728, -27.213, -8.807, 3.373, 31.08, 0.39868, -0.49066, -0.27292, -0.72504,
 15:01:07.760,e3:ca:2d:fd:e0:8c, 2015-01-01 02:46:29.095, 0.878, -0.115, 0.503, 0.061, 0.244, 0, -12.744, -59.453, 168.327, -21.933, -7.240, -17.107, 28.86, -0.14279, -0.48044, 0.14609, -0.85284,
 15:01:07.760,e3:ca:2d:fd:e0:8c, 2015-01-01 02:46:29.095, 0.879, -0.115, 0.504, 0.061, 0.061, 0, -12.744, -59.453, 168.327, -21.933, -7.240, -17.107, 28.86, -0.14279, -0.48044, 0.14609, -0.85284,
 15:01:07.762,ed:35:33:d3:6c:f8, 2015-01-01 02:46:28.400, 0.923, 0.075, 0.357, 0.427, -0.61, 0.671, 12.096, -68.291, 137.911, -24.647, -11.620, -16.340, 32.66, -0.24304, -0.55032, 0.11905, -0.78979,
 15:01:07.762,ed:35:33:d3:6c:f8, 2015-01-01 02:46:28.400, 0.924, 0.075, 0.356, 0.305, -0.549, 0.732, 12.074, -68.307, 137.939, -24.647, -11.620, -16.340, 32.66, -0.24304, -0.55032, 0.11905, -0.78979,
 15:01:07.764,f6:90:cc:01:6d:25, 2015-01-01 02:46:27.720, 0.984, -0.039, -0.046, 0.061, 0.183, 0.061, -137.807, -86.462, -48.197, -30.660, -8.707, 0.460, 33.7, 0.02042, 0.72092, -0.0513, 0.69073,
 15:01:07.764,f6:90:cc:01:6d:25, 2015-01-01 02:46:27.720, 0.982, -0.042, -0.048, 0.366, 0.244, 0, -137.763, -86.468, -48.246, -30.660, -8.707, 0.460, 33.7, 0.02042, 0.72092, -0.0513, 0.69073,
 15:01:07.783,ed:40:fe:65:30:6c, 2015-01-01 02:46:28.345, 0.932, 0.005, 0.371, 0.61, 0.488, 0.305, 0.643, -68.286, -122.706, -27.213, -8.807, 3.373, 31.08, 0.39868, -0.49066, -0.27292, -0.72504,
 15:01:07.783,ed:40:fe:65:30:6c, 2015-01-01 02:46:28.345, 0.929, 0.002, 0.372, 0.549, 0.183, 0.366, 0.637, -68.28, -122.684, -27.213, -8.807, 3.373, 31.08, 0.39868, -0.49066, -0.27292, -0.72504,
 15:01:07.785,ed:35:33:d3:6c:f8, 2015-01-01 02:46:28.400, 0.926, 0.076, 0.357, 0.366, -0.122, 0.488, 12.057, -68.318, 137.939, -24.780, -11.060, -15.553, 32.66, -0.24304, -0.55032, 0.11905, -0.78979,
 15:01:07.785,ed:35:33:d3:6c:f8, 2015-01-01 02:46:28.400, 0.921, 0.077, 0.361, 0.61, -0.183, 0.488, 12.047, -68.324, 137.95, -24.780, -11.060, -15.553, 32.66, -0.24304, -0.55032, 0.11905, -0.78979,
 15:01:07.805,e3:ca:2d:fd:e0:8c, 2015-01-01 02:46:29.095, 0.879, -0.116, 0.504, 0, 0.183, 0, -12.744, -59.453, 168.327, -21.933, -7.240, -17.107, 28.86, -0.14279, -0.48044, 0.14609, -0.85284,
 15:01:07.805,e3:ca:2d:fd:e0:8c, 2015-01-01 02:46:29.095, 0.878, -0.116, 0.505, 0, 0.488, 0, -12.744, -59.447, 168.327, -21.933, -7.240, -17.107, 28.86, -0.14279, -0.48044, 0.14609, -0.85284,
 15:01:07.810,f6:90:cc:01:6d:25, 2015-01-01 02:46:27.720, 0.982, -0.045, -0.049, 0.732, 0.183, -0.122, -137.73, -86.468, -48.285, -30.960, -9.000, 0.967, 33.7, 0.02042, 0.72092, -0.0513, 0.69073,
 15:01:07.810,f6:90:cc:01:6d:25, 2015-01-01 02:46:27.720, 0.984, -0.039, -0.047, 0.183, 0.183, 0, -137.714, -86.468, -48.296, -30.960, -9.000, 0.967, 33.7, 0.02042, 0.72092, -0.0513, 0.69073,
 15:01:07.829,ed:40:fe:65:30:6c, 2015-01-01 02:46:28.345, 0.93, 0.001, 0.372, 0.122, 0.122, 0.549, 0.615, -68.28, -122.651, -27.213, -8.807, 3.373, 31.08, 0.39868, -0.49066, -0.27292, -0.72504,
 15:01:07.829,ed:40:fe:65:30:6c, 2015-01-01 02:46:28.345, 0.937, 0.005, 0.369, 0.122, 0.183, 0.366, 0.599, -68.275, -122.624, -27.213, -8.807, 3.373, 31.08, 0.39868, -0.49066, -0.27292, -0.72504,
 15:01:07.829,e3:ca:2d:fd:e0:8c, 2015-01-01 02:46:29.095, 0.877, -0.115, 0.506, 0.061, 0.488, 0, -12.744, -59.436, 168.327, -21.933, -7.240, -17.107, 28.86, -0.14246, -0.48035, 0.14597, -0.85297,
 15:01:07.829,e3:ca:2d:fd:e0:8c, 2015-01-01 02:46:29.095, 0.878, -0.114, 0.506, 0.122, 0.366, 0, -12.739, -59.431, 168.327, -21.933, -7.240, -17.107, 28.86, -0.14246, -0.48035, 0.14597, -0.85297,
 15:01:07.831,ed:35:33:d3:6c:f8, 2015-01-01 02:46:28.400, 0.921, 0.071, 0.359, 0.183, -0.305, 0.732, 12.025, -68.329, 137.988, -24.780, -11.060, -15.553, 32.66, -0.24304, -0.55032, 0.11905, -0.78979,
 15:01:07.831,ed:35:33:d3:6c:f8, 2015-01-01 02:46:28.400, 0.927, 0.076, 0.355, 0.427, -0.732, 0.183, 12.014, -68.34, 137.988, -24.780, -11.060, -15.553, 32.66, -0.24304, -0.55032, 0.11905, -0.78979,
 15:01:07.831,f6:90:cc:01:6d:25, 2015-01-01 02:46:27.720, 0.989, -0.038, -0.045, 0.061, 0.183, 0.061, -137.681, -86.473, -48.334, -30.960, -9.000, 0.967, 33.7, 0.02167, 0.72104, -0.05261, 0.69046,
 15:01:07.831,f6:90:cc:01:6d:25, 2015-01-01 02:46:27.720, 0.988, -0.039, -0.044, 0, 0.183, 0.244, -137.637, -86.473, -48.395, -30.960, -9.000, 0.967, 33.7, 0.02167, 0.72104, -0.05261, 0.69046,
 15:01:07.853,ed:35:33:d3:6c:f8, 2015-01-01 02:46:28.400, 0.933, 0.077, 0.356, 0.427, -0.366, 0.061, 12.019, -68.351, 137.977, -24.780, -11.060, -15.553, 32.66, -0.24005, -0.55255, 0.11942, -0.78909,
 15:01:07.853,ed:35:33:d3:6c:f8, 2015-01-01 02:46:28.400, 0.924, 0.081, 0.359, 0.671, -0.671, 0.488, 12.025, -68.368, 137.999, -24.780, -11.060, -15.553, 32.66, -0.24005, -0.55255, 0.11942, -0.78909,
 15:01:07.873,e3:ca:2d:fd:e0:8c, 2015-01-01 02:46:29.095, 0.879, -0.114, 0.507, 0, 0.122, 0, -12.733, -59.425, 168.327, -21.933, -7.240, -17.107, 28.86, -0.14246, -0.48035, 0.14597, -0.85297,
 15:01:07.873,e3:ca:2d:fd:e0:8c, 2015-01-01 02:46:29.095, 0.877, -0.114, 0.506, -0.122, 0.244, 0, -12.733, -59.42, 168.327, -21.933, -7.240, -17.107, 28.86, -0.14246, -0.48035, 0.14597, -0.85297,
 15:01:07.873,ed:40:fe:65:30:6c, 2015-01-01 02:46:28.345, 0.938, 0.007, 0.371, 0.183, 0.244, 0.183, 0.588, -68.275, -122.607, -27.213, -8.807, 3.373, 31.08, 0.39868, -0.49066, -0.27292, -0.72504,
 15:01:07.873,ed:40:fe:65:30:6c, 2015-01-01 02:46:28.345, 0.93, 0.005, 0.372, 0.366, 0.122, 0.244, 0.588, -68.269, -122.591, -27.213, -8.807, 3.373, 31.08, 0.39868, -0.49066, -0.27292, -0.72504,
 15:01:07.879,f6:90:cc:01:6d:25, 2015-01-01 02:46:27.720, 0.981, -0.042, -0.048, 0, 0.122, 0.122, -137.565, -86.468, -48.477, -30.960, -9.000, 0.967, 33.7, 0.02167, 0.72104, -0.05261, 0.69046,
 15:01:07.879,f6:90:cc:01:6d:25, 2015-01-01 02:46:27.720, 0.98, -0.042, -0.046, 0, 0, -0.061, -137.543, -86.468, -48.51, -30.960, -9.000, 0.967, 33.7, 0.02167, 0.72104, -0.05261, 0.69046,
 15:01:07.897,ed:40:fe:65:30:6c, 2015-01-01 02:46:28.345, 0.927, 0, 0.375, 0.488, 0.061, 0.549, 0.571, -68.269, -122.558, -27.267, -9.260, 3.633, 31.08, 0.39868, -0.49066, -0.27292, -0.72504,
 15:01:07.897,ed:40:fe:65:30:6c, 2015-01-01 02:46:28.345, 0.928, 0.003, 0.373, 0.061, 0, 0.549, 0.544, -68.269, -122.525, -27.267, -9.260, 3.633, 31.08, 0.39868, -0.49066, -0.27292, -0.72504,
 15:01:07.899,ed:35:33:d3:6c:f8, 2015-01-01 02:46:28.400, 0.919, 0.074, 0.361, 0.549, -0.305, 1.282, 11.997, -68.379, 138.038, -24.780, -11.060, -15.553, 32.66, -0.24005, -0.55255, 0.11942, -0.78909,
 15:01:07.899,ed:35:33:d3:6c:f8, 2015-01-01 02:46:28.400, 0.921, 0.071, 0.36, 0.183, -0.122, 0.549, 11.964, -68.384, 138.082, -24.780, -11.060, -15.553, 32.66, -0.24005, -0.55255, 0.11942, -0.78909,
 15:01:07.918,e3:ca:2d:fd:e0:8c, 2015-01-01 02:46:29.495, 0.875, -0.115, 0.506, -0.122, 0.549, 0, -12.739, -59.414, 168.327, -21.933, -7.240, -17.107, 28.86, -0.14246, -0.48035, 0.14597, -0.85297,
 15:01:07.918,e3:ca:2d:fd:e0:8c, 2015-01-01 02:46:29.495, 0.874, -0.115, 0.504, 0, 0.549, 0, -12.733, -59.403, 168.322, -21.933, -7.240, -17.107, 28.86, -0.14246, -0.48035, 0.14597, -0.85297,
 15:01:07.922,f6:90:cc:01:6d:25, 2015-01-01 02:46:28.010, 0.981, -0.04, -0.045, 0, 0, 0, -137.571, -86.468, -48.494, -30.960, -9.000, 0.967, 33.7, 0.02167, 0.72104, -0.05261, 0.69046,
 15:01:07.922,f6:90:cc:01:6d:25, 2015-01-01 02:46:28.010, 0.982, -0.041, -0.043, -0.061, -0.061, 0.061, -137.582, -86.468, -48.494, -30.960, -9.000, 0.967, 33.7, 0.02167, 0.72104, -0.05261, 0.69046,
 15:01:07.940,e3:ca:2d:fd:e0:8c, 2015-01-01 02:46:29.495, 0.875, -0.114, 0.504, 0.061, 0.122, 0, -12.733, -59.398, 168.322, -21.933, -7.240, -17.107, 28.86, -0.14246, -0.48035, 0.14597, -0.85297,
 15:01:07.940,e3:ca:2d:fd:e0:8c, 2015-01-01 02:46:29.495, 0.878, -0.114, 0.505, 0, -0.244, 0, -12.733, -59.398, 168.322, -21.933, -7.240, -17.107, 28.86, -0.14246, -0.48035, 0.14597, -0.85297,
 15:01:07.941,ed:40:fe:65:30:6c, 2015-01-01 02:46:28.345, 0.929, 0.004, 0.369, 0.305, -0.122, 0.366, 0.533, -68.275, -122.498, -27.267, -9.260, 3.633, 31.08, 0.39868, -0.49066, -0.27292, -0.72504,
 15:01:07.941,ed:40:fe:65:30:6c, 2015-01-01 02:46:28.345, 0.929, 0.002, 0.372, 0.305, -0.183, 0.305, 0.527, -68.275, -122.481, -27.267, -9.260, 3.633, 31.08, 0.39868, -0.49066, -0.27292, -0.72504,
 15:01:07.942,ed:35:33:d3:6c:f8, 2015-01-01 02:46:28.780, 0.92, 0.075, 0.356, 0.488, -0.244, -0.061, 11.959, -68.39, 138.093, -24.780, -11.060, -15.553, 32.66, -0.24005, -0.55255, 0.11942, -0.78909,
 15:01:07.942,ed:35:33:d3:6c:f8, 2015-01-01 02:46:28.780, 0.92, 0.075, 0.357, 0.366, -0.366, 0.183, 11.964, -68.395, 138.087, -24.780, -11.060, -15.553, 32.66, -0.24005, -0.55255, 0.11942, -0.78909,
 15:01:07.965,ed:35:33:d3:6c:f8, 2015-01-01 02:46:28.780, 0.921, 0.075, 0.359, -0.488, 0.244, -0.122, 11.964, -68.395, 138.071, -24.780, -11.060, -15.553, 32.66, -0.24005, -0.55255, 0.11942, -0.78909,
 15:01:07.965,ed:35:33:d3:6c:f8, 2015-01-01 02:46:28.780, 0.928, 0.078, 0.362, -1.404, 0.977, -0.977, 11.964, -68.384, 138.043, -24.780, -11.060, -15.553, 32.66, -0.24005, -0.55255, 0.11942, -0.78909,
 15:01:07.967,f6:90:cc:01:6d:25, 2015-01-01 02:46:28.010, 0.983, -0.041, -0.044, 0.122, 0, 0, -137.593, -86.462, -48.488, -30.960, -9.000, 0.967, 33.7, 0.02167, 0.72104, -0.05261, 0.69046,
 15:01:07.967,f6:90:cc:01:6d:25, 2015-01-01 02:46:28.010, 0.984, -0.041, -0.044, 0.122, 0, 0, -137.598, -86.462, -48.483, -30.960, -9.000, 0.967, 33.7, 0.02167, 0.72104, -0.05261, 0.69046,
 15:01:07.985,e3:ca:2d:fd:e0:8c, 2015-01-01 02:46:29.495, 0.878, -0.114, 0.505, -0.183, -0.427, 0, -12.733, -59.403, 168.327, -21.933, -7.240, -17.107, 28.86, -0.14246, -0.48035, 0.14597, -0.85297,
 15:01:07.985,e3:ca:2d:fd:e0:8c, 2015-01-01 02:46:29.495, 0.876, -0.115, 0.507, -0.183, -0.427, 0, -12.744, -59.409, 168.333, -21.933, -7.240, -17.107, 28.86, -0.14246, -0.48035, 0.14597, -0.85297,
 15:01:08.008,ed:40:fe:65:30:6c, 2015-01-01 02:46:28.345, 0.931, 0.005, 0.375, -0.244, 0, 0.366, 0.505, -68.275, -122.454, -27.267, -9.260, 3.633, 31.08, 0.40042, -0.49011, -0.27332, -0.7243,
 15:01:08.008,ed:40:fe:65:30:6c, 2015-01-01 02:46:28.345, 0.937, 0.008, 0.375, -0.793, 0, 0.427, 0.467, -68.275, -122.426, -27.267, -9.260, 3.633, 31.08, 0.40042, -0.49011, -0.27332, -0.7243,
 15:01:08.010,ed:35:33:d3:6c:f8, 2015-01-01 02:46:28.780, 0.927, 0.079, 0.358, -1.099, 0.671, -0.916, 11.975, -68.362, 137.999, -24.780, -11.060, -15.553, 32.66, -0.24005, -0.55255, 0.11942, -0.78909,
 15:01:08.010,ed:35:33:d3:6c:f8, 2015-01-01 02:46:28.780, 0.918, 0.074, 0.361, -0.305, -0.183, 0.244, 11.975, -68.357, 137.966, -24.780, -11.060, -15.553, 32.66, -0.24005, -0.55255, 0.11942, -0.78909,
 15:01:08.011,f6:90:cc:01:6d:25, 2015-01-01 02:46:28.010, 0.985, -0.04, -0.045, 0, -0.244, 0.183, -137.604, -86.462, -48.477, -30.960, -9.000, 0.967, 33.7, 0.02167, 0.72104, -0.05261, 0.69046,
 15:01:08.011,f6:90:cc:01:6d:25, 2015-01-01 02:46:28.010, 0.983, -0.042, -0.045, -0.122, -0.244, 0.305, -137.609, -86.457, -48.466, -30.960, -9.000, 0.967, 33.7, 0.02167, 0.72104, -0.05261, 0.69046,
 15:01:08.030,e3:ca:2d:fd:e0:8c, 2015-01-01 02:46:29.495, 0.876, -0.115, 0.507, 0, -0.366, 0, -12.75, -59.42, 168.338, -21.933, -7.240, -17.107, 28.86, -0.14246, -0.48035, 0.14597, -0.85297,
 15:01:08.030,e3:ca:2d:fd:e0:8c, 2015-01-01 02:46:29.495, 0.877, -0.115, 0.505, 0, -0.549, 0, -12.75, -59.425, 168.344, -21.933, -7.240, -17.107, 28.86, -0.14246, -0.48035, 0.14597, -0.85297,
 15:01:08.034,f6:90:cc:01:6d:25, 2015-01-01 02:46:28.010, 0.982, -0.043, -0.047, -0.122, -0.183, 0.183, -137.604, -86.451, -48.477, -30.960, -9.000, 0.967, 33.7, 0.02167, 0.72104, -0.05261, 0.69046,
 15:01:08.034,f6:90:cc:01:6d:25, 2015-01-01 02:46:28.010, 0.983, -0.044, -0.048, 0.183, 0, 0.061, -137.604, -86.446, -48.483, -30.960, -9.000, 0.967, 33.7, 0.02167, 0.72104, -0.05261, 0.69046,
 15:01:08.055,ed:35:33:d3:6c:f8, 2015-01-01 02:46:28.780, 0.921, 0.072, 0.356, -0.549, -0.366, 0.977, 11.937, -68.362, 137.977, -24.780, -11.060, -15.553, 32.66, -0.24005, -0.55255, 0.11942, -0.78909,
 15:01:08.055,ed:35:33:d3:6c:f8, 2015-01-01 02:46:28.780, 0.933, 0.076, 0.355, -0.549, 0.061, 0.793, 11.882, -68.368, 138.038, -24.780, -11.060, -15.553, 32.66, -0.24005, -0.55255, 0.11942, -0.78909,
 15:01:08.055,ed:40:fe:65:30:6c, 2015-01-01 02:46:28.680, 0.933, 0.004, 0.371, -0.427, -0.061, 0.488, 0.439, -68.275, -122.399, -27.267, -9.260, 3.633, 31.08, 0.40042, -0.49011, -0.27332, -0.7243,
 15:01:08.056,ed:40:fe:65:30:6c, 2015-01-01 02:46:28.680, 0.927, -0.002, 0.371, 0, -0.488, 0.61, 0.412, -68.286, -122.36, -27.267, -9.260, 3.633, 31.08, 0.40042, -0.49011, -0.27332, -0.7243,
 15:01:08.075,e3:ca:2d:fd:e0:8c, 2015-01-01 02:46:29.495, 0.879, -0.115, 0.505, 0, -0.488, 0, -12.755, -59.436, 168.354, -21.933, -7.240, -17.107, 28.86, -0.14246, -0.48035, 0.14597, -0.85297,
 15:01:08.075,e3:ca:2d:fd:e0:8c, 2015-01-01 02:46:29.495, 0.881, -0.114, 0.507, 0.122, -0.244, 0, -12.761, -59.442, 168.36, -21.933, -7.240, -17.107, 28.86, -0.14246, -0.48035, 0.14597, -0.85297,
 15:01:08.077,ed:40:fe:65:30:6c, 2015-01-01 02:46:28.680, 0.932, -0.002, 0.37, -0.183, -0.366, 0.793, 0.368, -68.291, -122.316, -27.267, -9.260, 3.633, 31.08, 0.40042, -0.49011, -0.27332, -0.7243,
 15:01:08.077,ed:40:fe:65:30:6c, 2015-01-01 02:46:28.680, 0.939, 0.007, 0.369, 0, -0.122, 0.854, 0.324, -68.291, -122.267, -27.267, -9.260, 3.633, 31.08, 0.40042, -0.49011, -0.27332, -0.7243,
 15:01:08.081,f6:90:cc:01:6d:25, 2015-01-01 02:46:28.010, 0.986, -0.039, -0.049, 0.916, 0.122, 0.366, -137.532, -86.44, -48.543, -30.960, -9.000, 0.967, 33.7, 0.02167, 0.72104, -0.05261, 0.69046,
 15:01:08.081,f6:90:cc:01:6d:25, 2015-01-01 02:46:28.010, 0.985, -0.041, -0.05, 0.916, 0.244, 0.427, -137.395, -86.44, -48.669, -30.960, -9.000, 0.967, 33.7, 0.02167, 0.72104, -0.05261, 0.69046,
 15:01:08.099,ed:40:fe:65:30:6c, 2015-01-01 02:46:28.680, 0.935, 0.001, 0.36, 1.343, -0.366, 0.671, 0.324, -68.302, -122.256, -27.267, -9.260, 3.633, 31.08, 0.40042, -0.49011, -0.27332, -0.7243,
 15:01:08.099,ed:40:fe:65:30:6c, 2015-01-01 02:46:28.680, 0.932, -0.011, 0.364, 1.953, -0.549, 0.671, 0.324, -68.313, -122.25, -27.267, -9.260, 3.633, 31.08, 0.40042, -0.49011, -0.27332, -0.7243,
 15:01:08.123,ed:35:33:d3:6c:f8, 2015-01-01 02:46:28.780, 0.928, 0.078, 0.347, 1.038, -0.671, 0.854, 11.854, -68.379, 138.093, -24.780, -11.060, -15.553, 32.66, -0.24005, -0.55255, 0.11942, -0.78909,
 15:01:08.123,ed:35:33:d3:6c:f8, 2015-01-01 02:46:28.780, 0.923, 0.062, 0.348, 2.319, -1.038, 2.014, 11.827, -68.401, 138.153, -24.780, -11.060, -15.553, 32.66, -0.24005, -0.55255, 0.11942, -0.78909,
 15:01:08.124,f6:90:cc:01:6d:25, 2015-01-01 02:46:28.010, 0.982, -0.044, -0.049, 0.671, 0.366, 0, -137.28, -86.44, -48.785, -31.293, -9.180, 0.613, 33.7, 0.02167, 0.72104, -0.05261, 0.69046,
 15:01:08.124,f6:90:cc:01:6d:25, 2015-01-01 02:46:28.010, 0.982, -0.04, -0.048, 0.549, 0.244, -0.061, -137.225, -86.44, -48.84, -31.293, -9.180, 0.613, 33.7, 0.02167, 0.72104, -0.05261, 0.69046,
 15:01:08.143,ed:40:fe:65:30:6c, 2015-01-01 02:46:28.680, 0.933, -0.002, 0.37, 0.793, 0, 0.183, 0.33, -68.318, -122.272, -27.267, -9.260, 3.633, 31.08, 0.40042, -0.49011, -0.27332, -0.7243,
 15:01:08.143,ed:40:fe:65:30:6c, 2015-01-01 02:46:28.680, 0.932, 0.009, 0.368, 0.061, 0.122, -0.244, 0.341, -68.313, -122.311, -27.267, -9.260, 3.633, 31.08, 0.40042, -0.49011, -0.27332, -0.7243,
 15:01:08.143,e3:ca:2d:fd:e0:8c, 2015-01-01 02:46:29.495, 0.88, -0.114, 0.506, 0.122, 0.061, 0, -12.755, -59.447, 168.36, -21.593, -6.927, -17.093, 28.86, -0.14246, -0.48035, 0.14597, -0.85297,
 15:01:08.143,e3:ca:2d:fd:e0:8c, 2015-01-01 02:46:29.495, 0.878, -0.115, 0.503, 0.183, 0.244, 0, -12.755, -59.442, 168.36, -21.593, -6.927, -17.093, 28.86, -0.14246, -0.48035, 0.14597, -0.85297,
 15:01:08.165,e3:ca:2d:fd:e0:8c, 2015-01-01 02:46:29.495, 0.877, -0.114, 0.502, 0.061, 0.183, 0, -12.75, -59.436, 168.36, -21.593, -6.927, -17.093, 28.86, -0.14224, -0.48035, 0.14587, -0.85303,
 15:01:08.165,e3:ca:2d:fd:e0:8c, 2015-01-01 02:46:29.495, 0.879, -0.113, 0.503, 0, -0.122, 0, -12.75, -59.436, 168.365, -21.593, -6.927, -17.093, 28.86, -0.14224, -0.48035, 0.14587, -0.85303,
 15:01:08.167,ed:35:33:d3:6c:f8, 2015-01-01 02:46:28.780, 0.924, 0.062, 0.353, 1.038, -0.183, 0.61, 11.799, -68.423, 138.214, -24.647, -11.267, -15.127, 32.66, -0.24005, -0.55255, 0.11942, -0.78909,
 15:01:08.167,ed:35:33:d3:6c:f8, 2015-01-01 02:46:28.780, 0.922, 0.074, 0.354, 0.305, 1.038, -1.282, 11.816, -68.417, 138.219, -24.647, -11.267, -15.127, 32.66, -0.24005, -0.55255, 0.11942, -0.78909,
 15:01:08.168,f6:90:cc:01:6d:25, 2015-01-01 02:46:28.010, 0.984, -0.035, -0.048, 0.061, 0.366, 0.183, -137.164, -86.446, -48.917, -31.293, -9.180, 0.613, 33.7, 0.02173, 0.72101, -0.05319, 0.69046,
 15:01:08.168,f6:90:cc:01:6d:25, 2015-01-01 02:46:28.010, 0.985, -0.035, -0.048, -0.122, 0.244, 0.305, -137.076, -86.446, -49.032, -31.293, -9.180, 0.613, 33.7, 0.02173, 0.72101, -0.05319, 0.69046,
 15:01:08.210,e3:ca:2d:fd:e0:8c, 2015-01-01 02:46:29.495, 0.879, -0.112, 0.504, -0.061, -0.244, 0, -12.75, -59.442, 168.365, -21.593, -6.927, -17.093, 28.86, -0.14224, -0.48035, 0.14587, -0.85303,
 15:01:08.210,e3:ca:2d:fd:e0:8c, 2015-01-01 02:46:29.495, 0.879, -0.113, 0.505, -0.183, -0.305, 0, -12.755, -59.447, 168.371, -21.593, -6.927, -17.093, 28.86, -0.14224, -0.48035, 0.14587, -0.85303,
 15:01:08.211,ed:40:fe:65:30:6c, 2015-01-01 02:46:28.680, 0.933, 0.006, 0.37, -0.061, -0.061, -0.732, 0.374, -68.318, -122.377, -27.267, -9.260, 3.633, 31.08, 0.40042, -0.49011, -0.27332, -0.7243,
 15:01:08.211,ed:40:fe:65:30:6c, 2015-01-01 02:46:28.680, 0.936, 0.003, 0.373, -0.549, -0.366, -0.916, 0.412, -68.324, -122.454, -27.267, -9.260, 3.633, 31.08, 0.40042, -0.49011, -0.27332, -0.7243,
 15:01:08.213,ed:35:33:d3:6c:f8, 2015-01-01 02:46:28.780, 0.925, 0.079, 0.356, -0.183, 1.343, -2.319, 11.893, -68.39, 138.153, -24.647, -11.267, -15.127, 32.66, -0.24005, -0.55255, 0.11942, -0.78909,
 15:01:08.213,ed:35:33:d3:6c:f8, 2015-01-01 02:46:28.780, 0.926, 0.076, 0.363, -0.671, 1.038, -2.075, 11.975, -68.357, 138.038, -24.647, -11.267, -15.127, 32.66, -0.24005, -0.55255, 0.11942, -0.78909,
 15:01:08.216,f6:90:cc:01:6d:25, 2015-01-01 02:46:28.320, 0.988, -0.041, -0.046, -0.488, 0.183, 0.244, -137.016, -86.446, -49.142, -31.293, -9.180, 0.613, 33.7, 0.02173, 0.72101, -0.05319, 0.69046,
