Time,Device name,Chip Time(),Acceleration X(g),Acceleration Y(g),Acceleration Z(g),Angular velocity X(°/s),Angular velocity Y(°/s),Angular velocity Z(°/s),Angle X(°),Angle Y(°),Angle Z(°),Magnetic field X(ʯt),Magnetic field Y(ʯt),Magnetic field Z(ʯt),Temperature(℃),Quaternions 0(),Quaternions 1(),Quaternions 2(),Quaternions 3()
 12:27:34.251,e3:ca:2d:fd:e0:8c, 2015-01-01 00:14:00.000, 0.988, -0.036, 0.256, 0, -0.244, 0, -8.124, -75.3, 158.752, -24.913, -10.027, -13.127, 26.59, 0.18793, 0.58838, -0.16724, 0.7684,
 12:27:34.251,e3:ca:2d:fd:e0:8c, 2015-01-01 00:14:00.000, 0.989, -0.036, 0.257, 0, -0.122, 0, -8.124, -75.306, 158.752, -24.913, -10.027, -13.127, 26.59, 0.18793, 0.58838, -0.16724, 0.7684,
 12:27:34.253,ed:35:33:d3:6c:f8, 2015-01-01 00:13:59.325, 0.782, 0.035, 0.609, 4.7, 3.418, 1.709, 3.389, -51.608, 141.015, -21.027, -10.760, -25.627, 32.38, 0.28943, 0.42319, -0.12469, 0.8494,
 12:27:34.253,ed:35:33:d3:6c:f8, 2015-01-01 00:13:59.325, 0.776, 0.032, 0.613, 4.7, 3.357, 1.404, 3.439, -51.548, 141.064, -21.027, -10.760, -25.627, 32.38, 0.28943, 0.42319, -0.12469, 0.8494,
 12:27:34.254,f6:90:cc:01:6d:25, 2015-01-01 00:13:58.490, 0.923, 0.01, 0.35, 0.61, 0, 0, 1.577, -69.104, -169.827, -29.433, -11.253, -9.147, 30.8, 0.08075, -0.56384, -0.06155, -0.81955,
 12:27:34.254,f6:90:cc:01:6d:25, 2015-01-01 00:13:58.490, 0.923, 0.009, 0.351, 0.793, 0.244, 0, 1.593, -69.104, -169.827, -29.433, -11.253, -9.147, 30.8, 0.08075, -0.56384, -0.06155, -0.81955,
 12:27:34.274,e3:ca:2d:fd:e0:8c, 2015-01-01 00:14:00.000, 0.988, -0.036, 0.256, 0, 0, 0, -8.124, -75.306, 158.752, -24.913, -10.027, -13.127, 26.59, 0.18811, 0.58853, -0.16745, 0.76816,
 12:27:34.275,e3:ca:2d:fd:e0:8c, 2015-01-01 00:14:00.000, 0.989, -0.036, 0.255, 0, 0, 0, -8.124, -75.306, 158.752, -24.913, -10.027, -13.127, 26.59, 0.18811, 0.58853, -0.16745, 0.76816,
 12:27:34.275,ed:40:fe:65:30:6c, 2015-01-01 00:13:59.150, 0.633, 0.142, 0.761, 3.845, 1.221, -0.427, 10.591, -39.221, -137.038, -20.240, -12.713, -5.940, 27.39, 0.37109, -0.28192, -0.20142, -0.86145,
 12:27:34.275,ed:40:fe:65:30:6c, 2015-01-01 00:13:59.150, 0.633, 0.143, 0.762, 3.845, 1.404, -0.366, 10.673, -39.194, -137.054, -20.240, -12.713, -5.940, 27.39, 0.37109, -0.28192, -0.20142, -0.86145,
 12:27:34.276,ed:35:33:d3:6c:f8, 2015-01-01 00:13:59.325, 0.778, 0.037, 0.613, 5.066, 3.723, 1.16, 3.499, -51.487, 141.114, -21.027, -10.760, -25.627, 32.38, 0.28726, 0.41861, -0.11877, 0.85324,
 12:27:34.276,ed:35:33:d3:6c:f8, 2015-01-01 00:13:59.325, 0.775, 0.037, 0.616, 5.188, 2.991, 2.136, 3.56, -51.422, 141.169, -21.027, -10.760, -25.627, 32.38, 0.28726, 0.41861, -0.11877, 0.85324,
 12:27:34.300,f6:90:cc:01:6d:25, 2015-01-01 00:13:58.800, 0.923, 0.007, 0.35, 0.671, 0.488, -0.305, 1.615, -69.099, -169.832, -29.433, -11.253, -9.147, 30.8, 0.08075, -0.56384, -0.06155, -0.81955,
 12:27:34.300,f6:90:cc:01:6d:25, 2015-01-01 00:13:58.800, 0.924, 0.007, 0.35, 0.488, 0.732, -0.549, 1.642, -69.082, -169.86, -29.433, -11.253, -9.147, 30.8, 0.08075, -0.56384, -0.06155, -0.81955,
 12:27:34.319,e3:ca:2d:fd:e0:8c, 2015-01-01 00:14:00.000, 0.991, -0.038, 0.254, -0.061, 0, 0, -8.124, -75.306, 158.752, -24.913, -10.027, -13.127, 26.59, 0.18811, 0.58853, -0.16745, 0.76816,
 12:27:34.319,e3:ca:2d:fd:e0:8c, 2015-01-01 00:14:00.000, 0.991, -0.039, 0.253, 0, 0.061, 0, -8.13, -75.311, 158.747, -24.913, -10.027, -13.127, 26.59, 0.18811, 0.58853, -0.16745, 0.76816,
 12:27:34.321,ed:35:33:d3:6c:f8, 2015-01-01 00:13:59.325, 0.777, 0.037, 0.618, 3.601, 1.953, 2.014, 3.593, -51.378, 141.251, -21.027, -10.760, -25.627, 32.38, 0.28726, 0.41861, -0.11877, 0.85324,
 12:27:34.321,ed:35:33:d3:6c:f8, 2015-01-01 00:13:59.325, 0.776, 0.041, 0.622, 2.319, 2.197, 1.892, 3.604, -51.345, 141.323, -21.027, -10.760, -25.627, 32.38, 0.28726, 0.41861, -0.11877, 0.85324,
 12:27:34.322,f6:90:cc:01:6d:25, 2015-01-01 00:13:58.800, 0.924, 0.008, 0.35, 0.366, 0.793, -0.61, 1.681, -69.071, -169.893, -29.433, -11.253, -9.147, 30.8, 0.08075, -0.56384, -0.06155, -0.81955,
 12:27:34.322,f6:90:cc:01:6d:25, 2015-01-01 00:13:58.800, 0.923, 0.008, 0.349, 0.427, 0.732, -0.61, 1.719, -69.055, -169.926, -29.433, -11.253, -9.147, 30.8, 0.08075, -0.56384, -0.06155, -0.81955,
 12:27:34.342,ed:40:fe:65:30:6c, 2015-01-01 00:13:59.150, 0.631, 0.147, 0.762, 3.54, 1.648, -0.366, 10.75, -39.166, -137.065, -19.900, -12.587, -6.167, 27.39, 0.37109, -0.28192, -0.20142, -0.86145,
 12:27:34.342,ed:40:fe:65:30:6c, 2015-01-01 00:13:59.150, 0.629, 0.15, 0.765, 3.479, 1.282, -0.366, 10.822, -39.133, -137.071, -19.900, -12.587, -6.167, 27.39, 0.37109, -0.28192, -0.20142, -0.86145,
 12:27:34.364,e3:ca:2d:fd:e0:8c, 2015-01-01 00:14:00.335, 0.989, -0.04, 0.252, 0.061, 0.183, 0, -8.13, -75.306, 158.747, -24.913, -10.027, -13.127, 26.59, 0.18811, 0.58853, -0.16745, 0.76816,
 12:27:34.364,e3:ca:2d:fd:e0:8c, 2015-01-01 00:14:00.335, 0.989, -0.04, 0.252, 0.061, 0.183, 0, -8.13, -75.306, 158.741, -24.913, -10.027, -13.127, 26.59, 0.18811, 0.58853, -0.16745, 0.76816,
 12:27:34.364,ed:40:fe:65:30:6c, 2015-01-01 00:13:59.150, 0.63, 0.151, 0.766, 2.991, 1.099, -0.366, 10.887, -39.106, -137.093, -19.900, -12.587, -6.167, 27.39, 0.37262, -0.2774, -0.20508, -0.86142,
 12:27:34.364,ed:40:fe:65:30:6c, 2015-01-01 00:13:59.150, 0.628, 0.154, 0.765, 2.197, 1.16, -0.305, 10.942, -39.084, -137.109, -19.900, -12.587, -6.167, 27.39, 0.37262, -0.2774, -0.20508, -0.86142,
 12:27:34.365,ed:35:33:d3:6c:f8, 2015-01-01 00:13:59.660, 0.775, 0.039, 0.621, 2.258, 1.709, 1.16, 3.604, -51.306, 141.383, -21.027, -10.760, -25.627, 32.38, 0.28726, 0.41861, -0.11877, 0.85324,
 12:27:34.365,ed:35:33:d3:6c:f8, 2015-01-01 00:13:59.660, 0.771, 0.043, 0.622, 1.221, 1.892, 0.305, 3.615, -51.279, 141.422, -21.027, -10.760, -25.627, 32.38, 0.28726, 0.41861, -0.11877, 0.85324,
 12:27:34.367,f6:90:cc:01:6d:25, 2015-01-01 00:13:58.800, 0.922, 0.007, 0.349, 0.305, 0.793, -0.549, 1.747, -69.044, -169.958, -29.433, -11.253, -9.147, 30.8, 0.08075, -0.56384, -0.06155, -0.81955,
 12:27:34.367,f6:90:cc:01:6d:25, 2015-01-01 00:13:58.800, 0.923, 0.009, 0.352, 0.183, 0.854, -0.549, 1.78, -69.027, -169.991, -29.433, -11.253, -9.147, 30.8, 0.08075, -0.56384, -0.06155, -0.81955,
 12:27:34.388,ed:35:33:d3:6c:f8, 2015-01-01 00:13:59.660, 0.776, 0.05, 0.624, 0.488, 1.953, 0.305, 3.625, -51.246, 141.438, -21.027, -10.760, -25.627, 32.38, 0.28726, 0.41861, -0.11877, 0.85324,
 12:27:34.388,ed:35:33:d3:6c:f8, 2015-01-01 00:13:59.660, 0.779, 0.048, 0.623, 0.732, 1.892, -0.427, 3.631, -51.207, 141.438, -21.027, -10.760, -25.627, 32.38, 0.28726, 0.41861, -0.11877, 0.85324,
 12:27:34.408,e3:ca:2d:fd:e0:8c, 2015-01-01 00:14:00.335, 0.989, -0.04, 0.254, 0, 0.305, 0, -8.13, -75.3, 158.736, -24.913, -10.027, -13.127, 26.59, 0.18811, 0.58853, -0.16745, 0.76816,
 12:27:34.408,e3:ca:2d:fd:e0:8c, 2015-01-01 00:14:00.335, 0.989, -0.038, 0.254, 0.061, 0.305, 0, -8.13, -75.295, 158.73, -24.913, -10.027, -13.127, 26.59, 0.18811, 0.58853, -0.16745, 0.76816,
 12:27:34.410,ed:40:fe:65:30:6c, 2015-01-01 00:13:59.150, 0.629, 0.158, 0.767, 1.526, 0.671, 0, 10.986, -39.062, -137.126, -19.900, -12.587, -6.167, 27.39, 0.37262, -0.2774, -0.20508, -0.86142,
 12:27:34.410,ed:40:fe:65:30:6c, 2015-01-01 00:13:59.150, 0.629, 0.16, 0.765, 1.16, 0.244, 0.244, 11.014, -39.051, -137.142, -19.900, -12.587, -6.167, 27.39, 0.37262, -0.2774, -0.20508, -0.86142,
 12:27:34.412,f6:90:cc:01:6d:25, 2015-01-01 00:13:58.800, 0.924, 0.01, 0.352, 0.122, 0.793, -0.427, 1.802, -69.011, -170.019, -29.433, -11.253, -9.147, 30.8, 0.08075, -0.56384, -0.06155, -0.81955,
 12:27:34.412,f6:90:cc:01:6d:25, 2015-01-01 00:13:58.800, 0.922, 0.012, 0.352, 0.061, 0.916, -0.244, 1.813, -69, -170.035, -29.433, -11.253, -9.147, 30.8, 0.08075, -0.56384, -0.06155, -0.81955,
 12:27:34.431,e3:ca:2d:fd:e0:8c, 2015-01-01 00:14:00.335, 0.987, -0.037, 0.256, 0, 0.366, 0, -8.13, -75.289, 158.725, -24.913, -10.027, -13.127, 26.59, 0.18811, 0.58853, -0.16745, 0.76816,
 12:27:34.431,e3:ca:2d:fd:e0:8c, 2015-01-01 00:14:00.335, 0.985, -0.036, 0.256, 0, 0.427, 0, -8.13, -75.284, 158.719, -24.913, -10.027, -13.127, 26.59, 0.18811, 0.58853, -0.16745, 0.76816,
 12:27:34.432,ed:40:fe:65:30:6c, 2015-01-01 00:13:59.510, 0.629, 0.155, 0.764, 0.916, 0.183, 0.366, 11.03, -39.051, -137.17, -19.900, -12.587, -6.167, 27.39, 0.37262, -0.2774, -0.20508, -0.86142,
 12:27:34.432,ed:40:fe:65:30:6c, 2015-01-01 00:13:59.510, 0.626, 0.154, 0.761, 1.099, 0.183, 0.305, 11.047, -39.045, -137.197, -19.900, -12.587, -6.167, 27.39, 0.37262, -0.2774, -0.20508, -0.86142,
 12:27:34.433,ed:35:33:d3:6c:f8, 2015-01-01 00:13:59.660, 0.769, 0.043, 0.621, 0.122, 1.465, 0.305, 3.653, -51.174, 141.432, -21.027, -10.760, -25.627, 32.38, 0.28726, 0.41861, -0.11877, 0.85324,
 12:27:34.433,ed:35:33:d3:6c:f8, 2015-01-01 00:13:59.660, 0.772, 0.042, 0.621, 0.061, 0.427, -0.305, 3.653, -51.152, 141.443, -21.027, -10.760, -25.627, 32.38, 0.28726, 0.41861, -0.11877, 0.85324,
 12:27:34.457,f6:90:cc:01:6d:25, 2015-01-01 00:13:58.800, 0.92, 0.012, 0.354, 0.061, 0.854, -0.183, 1.824, -68.983, -170.046, -29.433, -11.253, -9.147, 30.8, 0.08075, -0.56384, -0.06155, -0.81955,
 12:27:34.457,f6:90:cc:01:6d:25, 2015-01-01 00:13:58.800, 0.918, 0.012, 0.355, 0, 0.793, -0.244, 1.829, -68.967, -170.057, -29.433, -11.253, -9.147, 30.8, 0.08075, -0.56384, -0.06155, -0.81955,
 12:27:34.476,e3:ca:2d:fd:e0:8c, 2015-01-01 00:14:00.335, 0.987, -0.036, 0.256, 0, 0.305, 0, -8.13, -75.278, 158.714, -24.913, -10.027, -13.127, 26.59, 0.18811, 0.58853, -0.16745, 0.76816,
 12:27:34.476,e3:ca:2d:fd:e0:8c, 2015-01-01 00:14:00.335, 0.986, -0.036, 0.256, 0, 0.183, 0, -8.13, -75.273, 158.714, -24.913, -10.027, -13.127, 26.59, 0.18811, 0.58853, -0.16745, 0.76816,
 12:27:34.476,ed:40:fe:65:30:6c, 2015-01-01 00:13:59.510, 0.625, 0.152, 0.762, 1.16, 0.183, 0.244, 11.069, -39.045, -137.214, -19.900, -12.587, -6.167, 27.39, 0.37262, -0.2774, -0.20508, -0.86142,
 12:27:34.476,ed:40:fe:65:30:6c, 2015-01-01 00:13:59.510, 0.627, 0.152, 0.763, 0.793, 0, 0.244, 11.085, -39.04, -137.23, -19.900, -12.587, -6.167, 27.39, 0.37262, -0.2774, -0.20508, -0.86142,
 12:27:34.478,ed:35:33:d3:6c:f8, 2015-01-01 00:13:59.660, 0.769, 0.042, 0.623, 0.183, 0.671, -0.183, 3.664, -51.141, 141.443, -21.027, -10.760, -25.627, 32.38, 0.28726, 0.41861, -0.11877, 0.85324,
 12:27:34.478,ed:35:33:d3:6c:f8, 2015-01-01 00:13:59.660, 0.77, 0.04, 0.623, 0, 0.183, -0.122, 3.669, -51.136, 141.432, -21.027, -10.760, -25.627, 32.38, 0.28726, 0.41861, -0.11877, 0.85324,
 12:27:34.503,f6:90:cc:01:6d:25, 2015-01-01 00:13:58.800, 0.918, 0.011, 0.354, 0, 0.854, -0.366, 1.846, -68.95, -170.074, -29.767, -10.860, -8.380, 30.8, 0.08075, -0.56384, -0.06155, -0.81955,
 12:27:34.503,f6:90:cc:01:6d:25, 2015-01-01 00:13:58.800, 0.921, 0.011, 0.357, -0.061, 0.793, -0.488, 1.862, -68.934, -170.101, -29.767, -10.860, -8.380, 30.8, 0.08075, -0.56384, -0.06155, -0.81955,
 12:27:34.522,e3:ca:2d:fd:e0:8c, 2015-01-01 00:14:00.335, 0.988, -0.037, 0.257, 0, 0.061, 0, -8.13, -75.273, 158.708, -24.913, -10.027, -13.127, 26.59, 0.18811, 0.58853, -0.16745, 0.76816,
 12:27:34.522,e3:ca:2d:fd:e0:8c, 2015-01-01 00:14:00.335, 0.988, -0.037, 0.258, -0.061, 0.061, 0, -8.13, -75.273, 158.708, -24.913, -10.027, -13.127, 26.59, 0.18811, 0.58853, -0.16745, 0.76816,
 12:27:34.522,ed:40:fe:65:30:6c, 2015-01-01 00:13:59.510, 0.63, 0.153, 0.764, 0.488, -0.183, 0.183, 11.102, -39.04, -137.241, -19.900, -12.587, -6.167, 27.39, 0.37262, -0.2774, -0.20508, -0.86142,
 12:27:34.522,ed:40:fe:65:30:6c, 2015-01-01 00:13:59.510, 0.628, 0.151, 0.766, 0.549, 0.427, 0, 11.113, -39.04, -137.258, -19.900, -12.587, -6.167, 27.39, 0.37262, -0.2774, -0.20508, -0.86142,
 12:27:34.525,f6:90:cc:01:6d:25, 2015-01-01 00:13:58.800, 0.925, 0.012, 0.357, 0, 0.671, -0.61, 1.89, -68.923, -170.134, -29.767, -10.860, -8.380, 30.8, 0.08014, -0.56247, -0.06219, -0.8205,
 12:27:34.525,f6:90:cc:01:6d:25, 2015-01-01 00:13:58.800, 0.919, 0.007, 0.356, 0.183, 0.61, -0.732, 1.923, -68.912, -170.173, -29.767, -10.860, -8.380, 30.8, 0.08014, -0.56247, -0.06219, -0.8205,
 12:27:34.546,ed:35:33:d3:6c:f8, 2015-01-01 00:13:59.660, 0.778, 0.039, 0.621, -0.732, 0.427, -0.793, 3.675, -51.13, 141.432, -21.027, -10.760, -25.627, 32.38, 0.28726, 0.41861, -0.11877, 0.85324,
 12:27:34.546,ed:35:33:d3:6c:f8, 2015-01-01 00:13:59.660, 0.776, 0.039, 0.621, 0, 0.183, -0.854, 3.686, -51.119, 141.411, -21.027, -10.760, -25.627, 32.38, 0.28726, 0.41861, -0.11877, 0.85324,
 12:27:34.567,ed:40:fe:65:30:6c, 2015-01-01 00:13:59.510, 0.623, 0.153, 0.766, 0.671, 0.854, 0, 11.124, -39.029, -137.269, -19.900, -12.587, -6.167, 27.39, 0.37262, -0.2774, -0.20508, -0.86142,
 12:27:34.567,ed:40:fe:65:30:6c, 2015-01-01 00:13:59.510, 0.626, 0.163, 0.765, 0.244, 0.732, 0, 11.135, -39.012, -137.285, -19.900, -12.587, -6.167, 27.39, 0.37262, -0.2774, -0.20508, -0.86142,
 12:27:34.568,ed:35:33:d3:6c:f8, 2015-01-01 00:13:59.660, 0.767, 0.042, 0.624, 0.366, -0.244, -0.122, 3.702, -51.119, 141.372, -20.773, -10.767, -25.460, 32.38, 0.28726, 0.41861, -0.11877, 0.85324,
 12:27:34.568,ed:35:33:d3:6c:f8, 2015-01-01 00:13:59.660, 0.777, 0.049, 0.623, -0.244, 0, -0.427, 3.713, -51.125, 141.356, -20.773, -10.767, -25.460, 32.38, 0.28726, 0.41861, -0.11877, 0.85324,
 12:27:34.570,f6:90:cc:01:6d:25, 2015-01-01 00:13:58.800, 0.917, 0.01, 0.356, -0.244, 0.793, -0.61, 1.95, -68.895, -170.206, -29.767, -10.860, -8.380, 30.8, 0.08014, -0.56247, -0.06219, -0.8205,
 12:27:34.570,f6:90:cc:01:6d:25, 2015-01-01 00:13:58.800, 0.925, 0.02, 0.355, -0.305, 0.916, -0.366, 1.961, -68.879, -170.233, -29.767, -10.860, -8.380, 30.8, 0.08014, -0.56247, -0.06219, -0.8205,
 12:27:34.590,ed:40:fe:65:30:6c, 2015-01-01 00:13:59.510, 0.63, 0.163, 0.766, 0.488, 0.854, -0.183, 11.14, -38.996, -137.307, -19.900, -12.587, -6.167, 27.39, 0.37262, -0.2774, -0.20508, -0.86142,
 12:27:34.590,ed:40:fe:65:30:6c, 2015-01-01 00:13:59.510, 0.624, 0.156, 0.773, 0.427, 1.343, -0.244, 11.157, -38.974, -137.329, -19.900, -12.587, -6.167, 27.39, 0.37262, -0.2774, -0.20508, -0.86142,
 12:27:34.590,e3:ca:2d:fd:e0:8c, 2015-01-01 00:14:00.335, 0.986, -0.038, 0.258, 0, 0.183, 0, -8.135, -75.273, 158.703, -25.160, -9.840, -12.440, 26.59, 0.18811, 0.58853, -0.16745, 0.76816,
 12:27:34.590,e3:ca:2d:fd:e0:8c, 2015-01-01 00:14:00.335, 0.986, -0.038, 0.257, 0, 0.244, -0.305, -8.119, -75.267, 158.687, -25.160, -9.840, -12.440, 26.59, 0.18811, 0.58853, -0.16745, 0.76816,
 12:27:34.613,ed:35:33:d3:6c:f8, 2015-01-01 00:13:59.660, 0.778, 0.049, 0.621, 0, -0.061, -1.16, 3.73, -51.125, 141.328, -20.773, -10.767, -25.460, 32.38, 0.28726, 0.41861, -0.11877, 0.85324,
 12:27:34.613,ed:35:33:d3:6c:f8, 2015-01-01 00:13:59.660, 0.774, 0.046, 0.627, 0.244, -0.183, -0.671, 3.757, -51.125, 141.284, -20.773, -10.767, -25.460, 32.38, 0.28726, 0.41861, -0.11877, 0.85324,
 12:27:34.616,f6:90:cc:01:6d:25, 2015-01-01 00:13:59.090, 0.926, 0.017, 0.36, 0.122, 0.793, -0.305, 1.978, -68.862, -170.25, -29.767, -10.860, -8.380, 30.8, 0.08014, -0.56247, -0.06219, -0.8205,
 12:27:34.616,f6:90:cc:01:6d:25, 2015-01-01 00:13:59.090, 0.916, 0.01, 0.357, 0.366, 0.671, -0.366, 2.005, -68.846, -170.266, -29.767, -10.860, -8.380, 30.8, 0.08014, -0.56247, -0.06219, -0.8205,
 12:27:34.634,e3:ca:2d:fd:e0:8c, 2015-01-01 00:14:00.335, 0.991, -0.035, 0.257, 0, 0.244, -0.183, -8.102, -75.262, 158.665, -25.160, -9.840, -12.440, 26.59, 0.1886, 0.58817, -0.16769, 0.76828,
 12:27:34.634,e3:ca:2d:fd:e0:8c, 2015-01-01 00:14:00.335, 0.988, -0.036, 0.258, 0.122, 0.244, -0.122, -8.086, -75.262, 158.648, -25.160, -9.840, -12.440, 26.59, 0.1886, 0.58817, -0.16769, 0.76828,
 12:27:34.635,ed:35:33:d3:6c:f8, 2015-01-01 00:13:59.660, 0.769, 0.046, 0.627, 0.61, -0.061, 0.122, 3.779, -51.13, 141.251, -20.773, -10.767, -25.460, 32.38, 0.28552, 0.41672, -0.11496, 0.85529,
 12:27:34.635,ed:35:33:d3:6c:f8, 2015-01-01 00:13:59.660, 0.772, 0.05, 0.632, -0.122, -0.427, -0.305, 3.796, -51.13, 141.251, -20.773, -10.767, -25.460, 32.38, 0.28552, 0.41672, -0.11496, 0.85529,
 12:27:34.635,ed:40:fe:65:30:6c, 2015-01-01 00:13:59.510, 0.62, 0.156, 0.77, 0.122, 1.831, -0.061, 11.168, -38.941, -137.357, -19.900, -12.587, -6.167, 27.39, 0.37262, -0.2774, -0.20508, -0.86142,
 12:27:34.635,ed:40:fe:65:30:6c, 2015-01-01 00:13:59.510, 0.623, 0.164, 0.768, 0.061, 0.977, 0, 11.168, -38.908, -137.368, -19.900, -12.587, -6.167, 27.39, 0.37262, -0.2774, -0.20508, -0.86142,
 12:27:34.659,f6:90:cc:01:6d:25, 2015-01-01 00:13:59.090, 0.919, 0.016, 0.356, 0, 0.488, -0.488, 2.027, -68.835, -170.294, -29.767, -10.860, -8.380, 30.8, 0.08014, -0.56247, -0.06219, -0.8205,
 12:27:34.659,f6:90:cc:01:6d:25, 2015-01-01 00:13:59.090, 0.921, 0.018, 0.355, 0, 0.244, -0.427, 2.049, -68.829, -170.316, -29.767, -10.860, -8.380, 30.8, 0.08014, -0.56247, -0.06219, -0.8205,
 12:27:34.680,e3:ca:2d:fd:e0:8c, 2015-01-01 00:14:00.335, 0.989, -0.035, 0.254, 0.122, 0.244, -0.061, -8.075, -75.256, 158.637, -25.160, -9.840, -12.440, 26.59, 0.1886, 0.58817, -0.16769, 0.76828,
 12:27:34.680,e3:ca:2d:fd:e0:8c, 2015-01-01 00:14:00.335, 0.988, -0.035, 0.253, -0.061, 0.183, -0.061, -8.069, -75.251, 158.632, -25.160, -9.840, -12.440, 26.59, 0.1886, 0.58817, -0.16769, 0.76828,
 12:27:34.682,ed:35:33:d3:6c:f8, 2015-01-01 00:13:59.660, 0.776, 0.054, 0.628, -1.282, 0.061, -0.977, 3.801, -51.136, 141.246, -20.773, -10.767, -25.460, 32.38, 0.28552, 0.41672, -0.11496, 0.85529,
 12:27:34.682,ed:35:33:d3:6c:f8, 2015-01-01 00:13:59.660, 0.769, 0.047, 0.622, -0.977, -0.61, -0.244, 3.801, -51.13, 141.207, -20.773, -10.767, -25.460, 32.38, 0.28552, 0.41672, -0.11496, 0.85529,
 12:27:34.701,ed:40:fe:65:30:6c, 2015-01-01 00:13:59.510, 0.626, 0.166, 0.771, -0.549, 0.122, 0.061, 11.168, -38.886, -137.373, -19.847, -13.247, -6.113, 27.39, 0.37262, -0.2774, -0.20508, -0.86142,
 12:27:34.701,ed:40:fe:65:30:6c, 2015-01-01 00:13:59.510, 0.622, 0.159, 0.766, -0.793, 0.183, 0, 11.162, -38.881, -137.384, -19.847, -13.247, -6.113, 27.39, 0.37262, -0.2774, -0.20508, -0.86142,
 12:27:34.701,e3:ca:2d:fd:e0:8c, 2015-01-01 00:14:00.670, 0.989, -0.034, 0.254, 0, 0.122, 0, -8.064, -75.251, 158.626, -25.160, -9.840, -12.440, 26.59, 0.1886, 0.58817, -0.16769, 0.76828,
 12:27:34.701,e3:ca:2d:fd:e0:8c, 2015-01-01 00:14:00.670, 0.986, -0.036, 0.255, 0, 0.122, 0, -8.064, -75.251, 158.621, -25.160, -9.840, -12.440, 26.59, 0.1886, 0.58817, -0.16769, 0.76828,
 12:27:34.706,f6:90:cc:01:6d:25, 2015-01-01 00:13:59.090, 0.92, 0.018, 0.355, 0, 0, -0.244, 2.071, -68.829, -170.338, -29.767, -10.860, -8.380, 30.8, 0.08014, -0.56247, -0.06219, -0.8205,
 12:27:34.706,f6:90:cc:01:6d:25, 2015-01-01 00:13:59.090, 0.917, 0.016, 0.358, 0.061, -0.061, -0.244, 2.087, -68.829, -170.349, -29.767, -10.860, -8.380, 30.8, 0.08014, -0.56247, -0.06219, -0.8205,
 12:27:34.724,ed:40:fe:65:30:6c, 2015-01-01 00:13:59.510, 0.62, 0.158, 0.764, -0.305, 0.061, 0, 11.157, -38.875, -137.39, -19.847, -13.247, -6.113, 27.39, 0.37106, -0.27527, -0.20572, -0.86261,
 12:27:34.724,ed:40:fe:65:30:6c, 2015-01-01 00:13:59.510, 0.62, 0.157, 0.764, 0, 0.061, 0, 11.157, -38.87, -137.406, -19.847, -13.247, -6.113, 27.39, 0.37106, -0.27527, -0.20572, -0.86261,
 12:27:34.724,e3:ca:2d:fd:e0:8c, 2015-01-01 00:14:00.670, 0.985, -0.036, 0.257, 0, 0.061, 0, -8.058, -75.251, 158.621, -25.160, -9.840, -12.440, 26.59, 0.1886, 0.58817, -0.16769, 0.76828,
 12:27:34.724,e3:ca:2d:fd:e0:8c, 2015-01-01 00:14:00.670, 0.984, -0.037, 0.258, 0, 0, 0.061, -8.058, -75.251, 158.621, -25.160, -9.840, -12.440, 26.59, 0.1886, 0.58817, -0.16769, 0.76828,
 12:27:34.726,ed:35:33:d3:6c:f8, 2015-01-01 00:14:00.020, 0.77, 0.046, 0.621, -0.61, -0.671, -0.305, 3.801, -51.141, 141.185, -20.773, -10.767, -25.460, 32.38, 0.28552, 0.41672, -0.11496, 0.85529,
 12:27:34.726,ed:35:33:d3:6c:f8, 2015-01-01 00:14:00.020, 0.769, 0.046, 0.62, -0.244, -0.732, -0.061, 3.801, -51.152, 141.185, -20.773, -10.767, -25.460, 32.38, 0.28552, 0.41672, -0.11496, 0.85529,
 12:27:34.728,f6:90:cc:01:6d:25, 2015-01-01 00:13:59.090, 0.916, 0.014, 0.358, 0.061, -0.122, -0.183, 2.104, -68.829, -170.359, -29.767, -10.860, -8.380, 30.8, 0.08014, -0.56247, -0.06219, -0.8205,
 12:27:34.728,f6:90:cc:01:6d:25, 2015-01-01 00:13:59.090, 0.917, 0.014, 0.358, 0, -0.122, 0, 2.109, -68.835, -170.365, -29.767, -10.860, -8.380, 30.8, 0.08014, -0.56247, -0.06219, -0.8205,
 12:27:34.749,ed:35:33:d3:6c:f8, 2015-01-01 00:14:00.020, 0.774, 0.045, 0.622, -0.122, -0.732, -0.061, 3.807, -51.169, 141.207, -20.773, -10.767, -25.460, 32.38, 0.28552, 0.41672, -0.11496, 0.85529,
 12:27:34.749,ed:35:33:d3:6c:f8, 2015-01-01 00:14:00.020, 0.781, 0.044, 0.624, -0.305, -0.854, -0.122, 3.812, -51.18, 141.246, -20.773, -10.767, -25.460, 32.38, 0.28552, 0.41672, -0.11496, 0.85529,
 12:27:34.768,e3:ca:2d:fd:e0:8c, 2015-01-01 00:14:00.670, 0.987, -0.037, 0.259, 0, 0, 0, -8.064, -75.251, 158.621, -25.160, -9.840, -12.440, 26.59, 0.1886, 0.58817, -0.16769, 0.76828,
 12:27:34.768,e3:ca:2d:fd:e0:8c, 2015-01-01 00:14:00.670, 0.99, -0.038, 0.259, 0.061, 0.061, 0, -8.064, -75.251, 158.621, -25.160, -9.840, -12.440, 26.59, 0.1886, 0.58817, -0.16769, 0.76828,
 12:27:34.769,ed:40:fe:65:30:6c, 2015-01-01 00:13:59.510, 0.625, 0.157, 0.764, 0.183, -0.122, 0.061, 11.162, -38.87, -137.428, -19.847, -13.247, -6.113, 27.39, 0.37106, -0.27527, -0.20572, -0.86261,
 12:27:34.769,ed:40:fe:65:30:6c, 2015-01-01 00:13:59.510, 0.629, 0.157, 0.768, 0.244, -0.244, 0.061, 11.173, -38.87, -137.45, -19.847, -13.247, -6.113, 27.39, 0.37106, -0.27527, -0.20572, -0.86261,
 12:27:34.773,f6:90:cc:01:6d:25, 2015-01-01 00:13:59.090, 0.923, 0.013, 0.356, 0, 0.061, 0, 2.109, -68.829, -170.365, -29.767, -10.860, -8.380, 30.8, 0.08014, -0.56247, -0.06219, -0.8205,
 12:27:34.773,f6:90:cc:01:6d:25, 2015-01-01 00:13:59.090, 0.925, 0.012, 0.355, 0.122, 0.183, -0.061, 2.115, -68.829, -170.37, -29.767, -10.860, -8.380, 30.8, 0.08014, -0.56247, -0.06219, -0.8205,
 12:27:34.792,ed:40:fe:65:30:6c, 2015-01-01 00:13:59.865, 0.631, 0.156, 0.768, 0.244, -0.244, 0.122, 11.184, -38.87, -137.472, -19.847, -13.247, -6.113, 27.39, 0.37106, -0.27527, -0.20572, -0.86261,
 12:27:34.792,ed:40:fe:65:30:6c, 2015-01-01 00:13:59.865, 0.628, 0.157, 0.765, 0.183, -0.244, 0.122, 11.195, -38.87, -137.494, -19.847, -13.247, -6.113, 27.39, 0.37106, -0.27527, -0.20572, -0.86261,
 12:27:34.794,ed:35:33:d3:6c:f8, 2015-01-01 00:14:00.020, 0.776, 0.044, 0.622, -0.244, -0.916, 0.244, 3.812, -51.196, 141.268, -20.773, -10.767, -25.460, 32.38, 0.28552, 0.41672, -0.11496, 0.85529,
 12:27:34.794,ed:35:33:d3:6c:f8, 2015-01-01 00:14:00.020, 0.781, 0.042, 0.623, -0.427, -1.587, 0.244, 3.807, -51.213, 141.306, -20.773, -10.767, -25.460, 32.38, 0.28552, 0.41672, -0.11496, 0.85529,
 12:27:34.814,e3:ca:2d:fd:e0:8c, 2015-01-01 00:14:00.670, 0.988, -0.037, 0.257, 0.183, 0.305, 0, -8.058, -75.245, 158.615, -25.160, -9.840, -12.440, 26.59, 0.1886, 0.58817, -0.16769, 0.76828,
 12:27:34.814,e3:ca:2d:fd:e0:8c, 2015-01-01 00:14:00.670, 0.99, -0.038, 0.256, 0.183, 0.549, 0, -8.053, -75.24, 158.61, -25.160, -9.840, -12.440, 26.59, 0.1886, 0.58817, -0.16769, 0.76828,
 12:27:34.819,f6:90:cc:01:6d:25, 2015-01-01 00:13:59.090, 0.923, 0.013, 0.356, 0.244, 0.183, 0, 2.12, -68.824, -170.37, -29.627, -11.100, -8.673, 30.8, 0.08014, -0.56247, -0.06219, -0.8205,
 12:27:34.819,f6:90:cc:01:6d:25, 2015-01-01 00:13:59.090, 0.925, 0.012, 0.349, 0.305, 0.427, 0, 2.131, -68.818, -170.37, -29.627, -11.100, -8.673, 30.8, 0.08014, -0.56247, -0.06219, -0.8205,
 12:27:34.835,e3:ca:2d:fd:e0:8c, 2015-01-01 00:14:00.670, 0.991, -0.037, 0.257, 0.122, 1.038, -0.122, -8.036, -75.223, 158.593, -25.160, -9.840, -12.440, 26.59, 0.1886, 0.58817, -0.16769, 0.76828,
 12:27:34.835,e3:ca:2d:fd:e0:8c, 2015-01-01 00:14:00.670, 0.987, -0.034, 0.256, 0, 1.038, -0.122, -8.015, -75.201, 158.571, -25.160, -9.840, -12.440, 26.59, 0.1886, 0.58817, -0.16769, 0.76828,
 12:27:34.836,ed:40:fe:65:30:6c, 2015-01-01 00:13:59.865, 0.63, 0.159, 0.763, 0.549, -0.366, 0.061, 11.206, -38.875, -137.516, -19.847, -13.247, -6.113, 27.39, 0.37106, -0.27527, -0.20572, -0.86261,
 12:27:34.836,ed:40:fe:65:30:6c, 2015-01-01 00:13:59.865, 0.626, 0.154, 0.76, 0.732, -0.549, 0.183, 11.223, -38.881, -137.543, -19.847, -13.247, -6.113, 27.39, 0.37106, -0.27527, -0.20572, -0.86261,
 12:27:34.838,ed:35:33:d3:6c:f8, 2015-01-01 00:14:00.020, 0.777, 0.045, 0.616, -0.671, -2.563, -0.427, 3.807, -51.251, 141.339, -20.773, -10.767, -25.460, 32.38, 0.28552, 0.41672, -0.11496, 0.85529,
 12:27:34.838,ed:35:33:d3:6c:f8, 2015-01-01 00:14:00.020, 0.775, 0.044, 0.616, 0.122, -2.563, 0.122, 3.812, -51.301, 141.339, -20.773, -10.767, -25.460, 32.38, 0.28552, 0.41672, -0.11496, 0.85529,
 12:27:34.862,f6:90:cc:01:6d:25, 2015-01-01 00:13:59.090, 0.922, 0.012, 0.355, 0.122, 0.793, 0.122, 2.126, -68.802, -170.365, -29.627, -11.100, -8.673, 30.8, 0.07968, -0.56161, -0.06268, -0.82111,
 12:27:34.862,f6:90:cc:01:6d:25, 2015-01-01 00:13:59.090, 0.918, 0.014, 0.35, -0.732, 1.282, 0.122, 2.109, -68.78, -170.354, -29.627, -11.100, -8.673, 30.8, 0.07968, -0.56161, -0.06268, -0.82111,
 12:27:34.881,e3:ca:2d:fd:e0:8c, 2015-01-01 00:14:00.670, 0.991, -0.035, 0.251, -0.427, 0.977, -0.122, -8.004, -75.185, 158.549, -25.160, -9.840, -12.440, 26.59, 0.1886, 0.58817, -0.16769, 0.76828,
 12:27:34.881,e3:ca:2d:fd:e0:8c, 2015-01-01 00:14:00.670, 0.994, -0.038, 0.252, -0.854, 1.282, -0.305, -7.987, -75.163, 158.527, -25.160, -9.840, -12.440, 26.59, 0.1886, 0.58817, -0.16769, 0.76828,
 12:27:34.882,ed:40:fe:65:30:6c, 2015-01-01 00:13:59.865, 0.627, 0.156, 0.758, 0.793, -0.549, 0.122, 11.245, -38.892, -137.565, -19.847, -13.247, -6.113, 27.39, 0.37106, -0.27527, -0.20572, -0.86261,
 12:27:34.882,ed:40:fe:65:30:6c, 2015-01-01 00:13:59.865, 0.634, 0.157, 0.757, 1.343, -1.343, 0, 11.272, -38.908, -137.593, -19.847, -13.247, -6.113, 27.39, 0.37106, -0.27527, -0.20572, -0.86261,
 12:27:34.883,ed:35:33:d3:6c:f8, 2015-01-01 00:14:00.020, 0.777, 0.041, 0.616, 0.244, -3.967, 0.549, 3.818, -51.356, 141.35, -20.773, -10.767, -25.460, 32.38, 0.28552, 0.41672, -0.11496, 0.85529,
 12:27:34.883,ed:35:33:d3:6c:f8, 2015-01-01 00:14:00.020, 0.786, 0.042, 0.614, -0.366, -4.883, -0.732, 3.823, -51.438, 141.361, -20.773, -10.767, -25.460, 32.38, 0.28552, 0.41672, -0.11496, 0.85529,
 12:27:34.908,f6:90:cc:01:6d:25, 2015-01-01 00:13:59.405, 0.922, 0.016, 0.346, -1.709, 1.77, 0.183, 2.065, -68.747, -170.327, -29.627, -11.100, -8.673, 30.8, 0.07968, -0.56161, -0.06268, -0.82111,
 12:27:34.908,f6:90:cc:01:6d:25, 2015-01-01 00:13:59.405, 0.926, 0.014, 0.352, -2.014, 1.831, 0.244, 2.01, -68.719, -170.31, -29.627, -11.100, -8.673, 30.8, 0.07968, -0.56161, -0.06268, -0.82111,
 12:27:34.927,ed:40:fe:65:30:6c, 2015-01-01 00:13:59.865, 0.634, 0.158, 0.763, 1.526, -1.77, -0.061, 11.31, -38.941, -137.615, -19.847, -13.247, -6.113, 27.39, 0.37106, -0.27527, -0.20572, -0.86261,
 12:27:34.927,ed:40:fe:65:30:6c, 2015-01-01 00:13:59.865, 0.629, 0.165, 0.768, 1.282, -1.099, -0.183, 11.349, -38.969, -137.642, -19.847, -13.247, -6.113, 27.39, 0.37106, -0.27527, -0.20572, -0.86261,
 12:27:34.930,f6:90:cc:01:6d:25, 2015-01-01 00:13:59.405, 0.924, 0.014, 0.359, -1.648, 1.831, 0.183, 1.967, -68.687, -170.294, -29.627, -11.100, -8.673, 30.8, 0.07968, -0.56161, -0.06268, -0.82111,
 12:27:34.930,f6:90:cc:01:6d:25, 2015-01-01 00:13:59.405, 0.923, 0.017, 0.358, -0.916, 1.404, 0.305, 1.934, -68.659, -170.272, -29.627, -11.100, -8.673, 30.8, 0.07968, -0.56161, -0.06268, -0.82111,
 12:27:34.948,e3:ca:2d:fd:e0:8c, 2015-01-01 00:14:00.670, 0.992, -0.038, 0.254, -0.793, 1.404, -0.305, -7.971, -75.141, 158.511, -24.833, -10.220, -12.520, 26.59, 0.1886, 0.58817, -0.16769, 0.76828,
 12:27:34.948,e3:ca:2d:fd:e0:8c, 2015-01-01 00:14:00.670, 0.991, -0.039, 0.252, -0.366, 1.404, -0.183, -7.954, -75.119, 158.494, -24.833, -10.220, -12.520, 26.59, 0.1886, 0.58817, -0.16769, 0.76828,
 12:27:34.951,ed:35:33:d3:6c:f8, 2015-01-01 00:14:00.020, 0.786, 0.044, 0.611, 0.244, -4.395, -0.732, 3.851, -51.531, 141.345, -20.700, -10.713, -25.013, 32.38, 0.28552, 0.41672, -0.11496, 0.85529,
 12:27:34.951,ed:35:33:d3:6c:f8, 2015-01-01 00:14:00.020, 0.786, 0.05, 0.612, -0.061, -4.15, -0.793, 3.878, -51.619, 141.345, -20.700, -10.713, -25.013, 32.38, 0.28552, 0.41672, -0.11496, 0.85529,
 12:27:34.971,e3:ca:2d:fd:e0:8c, 2015-01-01 00:14:00.670, 0.987, -0.036, 0.255, 0, 1.465, -0.061, -7.938, -75.092, 158.489, -24.833, -10.220, -12.520, 26.59, 0.18903, 0.58701, -0.16736, 0.76913,
 12:27:34.971,e3:ca:2d:fd:e0:8c, 2015-01-01 00:14:00.670, 0.985, -0.034, 0.258, 0.061, 1.465, 0, -7.921, -75.07, 158.483, -24.833, -10.220, -12.520, 26.59, 0.18903, 0.58701, -0.16736, 0.76913,
 12:27:34.971,ed:40:fe:65:30:6c, 2015-01-01 00:13:59.865, 0.627, 0.168, 0.77, 1.282, -0.549, -0.366, 11.382, -38.979, -137.67, -19.847, -13.247, -6.113, 27.39, 0.37106, -0.27527, -0.20572, -0.86261,
 12:27:34.971,ed:40:fe:65:30:6c, 2015-01-01 00:13:59.865, 0.625, 0.166, 0.769, 1.465, -0.427, -0.366, 11.426, -38.985, -137.692, -19.847, -13.247, -6.113, 27.39, 0.37106, -0.27527, -0.20572, -0.86261,
 12:27:34.974,ed:35:33:d3:6c:f8, 2015-01-01 00:14:00.020, 0.784, 0.052, 0.615, 0.427, -3.845, -0.793, 3.911, -51.696, 141.328, -20.700, -10.713, -25.013, 32.38, 0.28552, 0.41672, -0.11496, 0.85529,
 12:27:34.974,ed:35:33:d3:6c:f8, 2015-01-01 00:14:00.020, 0.781, 0.051, 0.618, -0.122, -3.418, -1.099, 3.95, -51.768, 141.301, -20.700, -10.713, -25.013, 32.38, 0.28552, 0.41672, -0.11496, 0.85529,
 12:27:34.975,f6:90:cc:01:6d:25, 2015-01-01 00:13:59.405, 0.919, 0.017, 0.361, -0.366, 0.854, 0.427, 1.912, -68.648, -170.25, -29.627, -11.100, -8.673, 30.8, 0.07968, -0.56161, -0.06268, -0.82111,
 12:27:34.975,f6:90:cc:01:6d:25, 2015-01-01 00:13:59.405, 0.917, 0.016, 0.367, -0.061, 0.305, 0.549, 1.89, -68.643, -170.211, -29.627, -11.100, -8.673, 30.8, 0.07968, -0.56161, -0.06268, -0.82111,
 12:27:34.995,ed:40:fe:65:30:6c, 2015-01-01 00:13:59.865, 0.62, 0.166, 0.77, 1.526, -0.549, -0.305, 11.464, -38.996, -137.703, -20.093, -13.120, -5.780, 27.39, 0.37106, -0.27527, -0.20572, -0.86261,
 12:27:34.995,ed:40:fe:65:30:6c, 2015-01-01 00:13:59.865, 0.621, 0.166, 0.768, 1.282, -0.61, -0.366, 11.508, -39.001, -137.719, -20.093, -13.120, -5.780, 27.39, 0.37106, -0.27527, -0.20572, -0.86261,
 12:27:34.997,ed:35:33:d3:6c:f8, 2015-01-01 00:14:00.020, 0.779, 0.051, 0.62, 0.488, -2.686, -0.854, 3.988, -51.828, 141.246, -20.700, -10.713, -25.013, 32.38, 0.28366, 0.42163, -0.11523, 0.85345,
 12:27:34.997,ed:35:33:d3:6c:f8, 2015-01-01 00:14:00.020, 0.778, 0.053, 0.617, -0.549, -2.563, -0.854, 4.026, -51.877, 141.207, -20.700, -10.713, -25.013, 32.38, 0.28366, 0.42163, -0.11523, 0.85345,
 12:27:35.016,e3:ca:2d:fd:e0:8c, 2015-01-01 00:14:00.670, 0.983, -0.034, 0.264, 0, 1.282, 0.061, -7.916, -75.048, 158.483, -24.833, -10.220, -12.520, 26.59, 0.18903, 0.58701, -0.16736, 0.76913,
 12:27:35.016,e3:ca:2d:fd:e0:8c, 2015-01-01 00:14:00.670, 0.981, -0.034, 0.264, 0, 1.16, 0.061, -7.905, -75.026, 158.472, -24.833, -10.220, -12.520, 26.59, 0.18903, 0.58701, -0.16736, 0.76913,
 12:27:35.020,f6:90:cc:01:6d:25, 2015-01-01 00:13:59.405, 0.916, 0.015, 0.365, -0.366, 0.183, 0.61, 1.857, -68.637, -170.178, -29.627, -11.100, -8.673, 30.8, 0.07968, -0.56161, -0.06268, -0.82111,
 12:27:35.020,f6:90:cc:01:6d:25, 2015-01-01 00:13:59.405, 0.914, 0.017, 0.365, -0.793, 0.183, 0.671, 1.813, -68.637, -170.151, -29.627, -11.100, -8.673, 30.8, 0.07968, -0.56161, -0.06268, -0.82111,
 12:27:35.039,e3:ca:2d:fd:e0:8c, 2015-01-01 00:14:01.025, 0.984, -0.035, 0.263, 0, 1.282, 0.183, -7.905, -75.004, 158.472, -24.833, -10.220, -12.520, 26.59, 0.18903, 0.58701, -0.16736, 0.76913,
 12:27:35.040,e3:ca:2d:fd:e0:8c, 2015-01-01 00:14:01.025, 0.983, -0.036, 0.27, 0, 1.465, 0.244, -7.905, -74.976, 158.472, -24.833, -10.220, -12.520, 26.59, 0.18903, 0.58701, -0.16736, 0.76913,
 12:27:35.041,ed:35:33:d3:6c:f8, 2015-01-01 00:14:00.020, 0.781, 0.05, 0.618, -0.427, -2.136, -1.16, 4.048, -51.921, 141.163, -20.700, -10.713, -25.013, 32.38, 0.28366, 0.42163, -0.11523, 0.85345,
 12:27:35.041,ed:35:33:d3:6c:f8, 2015-01-01 00:14:00.020, 0.776, 0.047, 0.612, -0.366, -2.136, -1.892, 4.081, -51.96, 141.125, -20.700, -10.713, -25.013, 32.38, 0.28366, 0.42163, -0.11523, 0.85345,
 12:27:35.041,ed:40:fe:65:30:6c, 2015-01-01 00:13:59.865, 0.622, 0.166, 0.766, 1.282, -0.916, -0.549, 11.547, -39.007, -137.73, -20.093, -13.120, -5.780, 27.39, 0.37106, -0.27527, -0.20572, -0.86261,
 12:27:35.041,ed:40:fe:65:30:6c, 2015-01-01 00:13:59.865, 0.62, 0.166, 0.766, 1.465, -0.916, -0.854, 11.596, -39.018, -137.758, -20.093, -13.120, -5.780, 27.39, 0.37106, -0.27527, -0.20572, -0.86261,
 12:27:35.065,f6:90:cc:01:6d:25, 2015-01-01 00:13:59.405, 0.917, 0.02, 0.363, -0.916, 0, 0.732, 1.769, -68.637, -170.118, -29.627, -11.100, -8.673, 30.8, 0.07968, -0.56161, -0.06268, -0.82111,
 12:27:35.065,f6:90:cc:01:6d:25, 2015-01-01 00:13:59.405, 0.917, 0.017, 0.371, -0.793, -0.061, 0.916, 1.714, -68.637, -170.079, -29.627, -11.100, -8.673, 30.8, 0.07968, -0.56161, -0.06268, -0.82111,
 12:27:35.086,ed:35:33:d3:6c:f8, 2015-01-01 00:14:00.375, 0.777, 0.054, 0.614, -1.465, -1.526, -2.258, 4.131, -51.987, 141.048, -20.700, -10.713, -25.013, 32.38, 0.28366, 0.42163, -0.11523, 0.85345,
 12:27:35.086,ed:35:33:d3:6c:f8, 2015-01-01 00:14:00.375, 0.78, 0.053, 0.613, -1.038, -0.854, -2.93, 4.175, -52.009, 140.949, -20.700, -10.713, -25.013, 32.38, 0.28366, 0.42163, -0.11523, 0.85345,
 12:27:35.089,f6:90:cc:01:6d:25, 2015-01-01 00:13:59.405, 0.914, 0.02, 0.368, -0.793, 0, 1.099, 1.653, -68.632, -170.03, -29.280, -11.447, -9.540, 30.8, 0.07968, -0.56161, -0.06268, -0.82111,
 12:27:35.089,f6:90:cc:01:6d:25, 2015-01-01 00:13:59.405, 0.916, 0.021, 0.367, -0.916, -0.183, 1.343, 1.582, -68.632, -169.948, -29.280, -11.447, -9.540, 30.8, 0.07968, -0.56161, -0.06268, -0.82111,
 12:27:35.106,e3:ca:2d:fd:e0:8c, 2015-01-01 00:14:01.025, 0.981, -0.032, 0.269, 0.061, 1.038, 0.427, -7.921, -74.954, 158.5, -24.833, -10.220, -12.520, 26.59, 0.18903, 0.58701, -0.16736, 0.76913,
 12:27:35.106,e3:ca:2d:fd:e0:8c, 2015-01-01 00:14:01.025, 0.984, -0.035, 0.265, -0.183, 0.488, 0.366, -7.938, -74.938, 158.555, -24.833, -10.220, -12.520, 26.59, 0.18903, 0.58701, -0.16736, 0.76913,
 12:27:35.107,ed:40:fe:65:30:6c, 2015-01-01 00:13:59.865, 0.619, 0.167, 0.768, 1.038, -0.977, -1.343, 11.646, -39.029, -137.785, -20.093, -13.120, -5.780, 27.39, 0.36938, -0.27563, -0.20847, -0.86258,
 12:27:35.107,ed:40:fe:65:30:6c, 2015-01-01 00:13:59.865, 0.62, 0.171, 0.767, 0.488, -0.793, -1.892, 11.695, -39.034, -137.823, -20.093, -13.120, -5.780, 27.39, 0.36938, -0.27563, -0.20847, -0.86258,
 12:27:35.108,ed:35:33:d3:6c:f8, 2015-01-01 00:14:00.375, 0.783, 0.06, 0.618, -1.343, -0.427, -3.662, 4.235, -52.015, 140.817, -20.700, -10.713, -25.013, 32.38, 0.28366, 0.42163, -0.11523, 0.85345,
 12:27:35.108,ed:35:33:d3:6c:f8, 2015-01-01 00:14:00.375, 0.78, 0.06, 0.615, -1.648, -0.305, -3.357, 4.307, -52.009, 140.691, -20.700, -10.713, -25.013, 32.38, 0.28366, 0.42163, -0.11523, 0.85345,
 12:27:35.129,e3:ca:2d:fd:e0:8c, 2015-01-01 00:14:01.025, 0.987, -0.038, 0.264, -0.305, 0.244, 0.183, -7.954, -74.932, 158.593, -24.833, -10.220, -12.520, 26.59, 0.18903, 0.58701, -0.16736, 0.76913,
 12:27:35.129,e3:ca:2d:fd:e0:8c, 2015-01-01 00:14:01.025, 0.986, -0.034, 0.264, -0.305, 0.122, 0.183, -7.971, -74.927, 158.621, -24.833, -10.220, -12.520, 26.59, 0.18903, 0.58701, -0.16736, 0.76913,
 12:27:35.130,ed:40:fe:65:30:6c, 2015-01-01 00:14:00.200, 0.62, 0.175, 0.768, 0.061, -0.793, -2.38, 11.744, -39.029, -137.878, -20.093, -13.120, -5.780, 27.39, 0.36938, -0.27563, -0.20847, -0.86258,
 12:27:35.130,ed:40:fe:65:30:6c, 2015-01-01 00:14:00.200, 0.62, 0.175, 0.77, -0.305, -0.793, -2.686, 11.794, -39.029, -137.939, -20.093, -13.120, -5.780, 27.39, 0.36938, -0.27563, -0.20847, -0.86258,
 12:27:35.132,f6:90:cc:01:6d:25, 2015-01-01 00:13:59.405, 0.917, 0.019, 0.367, -1.099, -0.671, 1.648, 1.494, -68.643, -169.832, -29.280, -11.447, -9.540, 30.8, 0.07968, -0.56161, -0.06268, -0.82111,
 12:27:35.132,f6:90:cc:01:6d:25, 2015-01-01 00:13:59.405, 0.917, 0.013, 0.368, -1.282, -1.343, 1.77, 1.395, -68.665, -169.711, -29.280, -11.447, -9.540, 30.8, 0.07968, -0.56161, -0.06268, -0.82111,
 12:27:35.152,ed:40:fe:65:30:6c, 2015-01-01 00:14:00.200, 0.624, 0.173, 0.77, -0.977, -0.854, -2.747, 11.832, -39.023, -138.005, -20.093, -13.120, -5.780, 27.39, 0.36938, -0.27563, -0.20847, -0.86258,
 12:27:35.152,ed:40:fe:65:30:6c, 2015-01-01 00:14:00.200, 0.625, 0.169, 0.767, -0.977, -0.916, -2.808, 11.865, -39.023, -138.065, -20.093, -13.120, -5.780, 27.39, 0.36938, -0.27563, -0.20847, -0.86258,
 12:27:35.154,ed:35:33:d3:6c:f8, 2015-01-01 00:14:00.375, 0.783, 0.059, 0.618, -1.648, 0, -2.991, 4.367, -52.009, 140.576, -20.700, -10.713, -25.013, 32.38, 0.28366, 0.42163, -0.11523, 0.85345,
 12:27:35.154,ed:35:33:d3:6c:f8, 2015-01-01 00:14:00.375, 0.782, 0.053, 0.612, -1.587, 0.732, -3.052, 4.417, -51.993, 140.455, -20.700, -10.713, -25.013, 32.38, 0.28366, 0.42163, -0.11523, 0.85345,
 12:27:35.174,e3:ca:2d:fd:e0:8c, 2015-01-01 00:14:01.025, 0.986, -0.032, 0.264, -0.366, -0.061, 0.305, -7.993, -74.927, 158.654, -24.833, -10.220, -12.520, 26.59, 0.18903, 0.58701, -0.16736, 0.76913,
 12:27:35.174,e3:ca:2d:fd:e0:8c, 2015-01-01 00:14:01.025, 0.984, -0.033, 0.266, -0.61, -0.366, 0.427, -8.026, -74.932, 158.681, -24.833, -10.220, -12.520, 26.59, 0.18903, 0.58701, -0.16736, 0.76913,
 12:27:35.177,f6:90:cc:01:6d:25, 2015-01-01 00:13:59.405, 0.918, 0.012, 0.367, -1.709, -1.648, 1.831, 1.285, -68.698, -169.585, -29.280, -11.447, -9.540, 30.8, 0.08066, -0.5607, -0.06061, -0.82178,
 12:27:35.177,f6:90:cc:01:6d:25, 2015-01-01 00:13:59.405, 0.918, 0.009, 0.365, -1.709, -1.953, 1.831, 1.17, -68.73, -169.453, -29.280, -11.447, -9.540, 30.8, 0.08066, -0.5607, -0.06061, -0.82178,
 12:27:35.197,ed:40:fe:65:30:6c, 2015-01-01 00:14:00.200, 0.625, 0.165, 0.766, -0.854, -0.977, -2.625, 11.904, -39.023, -138.131, -20.093, -13.120, -5.780, 27.39, 0.36938, -0.27563, -0.20847, -0.86258,
 12:27:35.197,ed:40:fe:65:30:6c, 2015-01-01 00:14:00.200, 0.624, 0.161, 0.765, -1.221, -0.916, -2.258, 11.931, -39.023, -138.186, -20.093, -13.120, -5.780, 27.39, 0.36938, -0.27563, -0.20847, -0.86258,
 12:27:35.198,ed:35:33:d3:6c:f8, 2015-01-01 00:14:00.375, 0.781, 0.053, 0.615, -2.441, 0.854, -2.563, 4.46, -51.971, 140.317, -20.700, -10.713, -25.013, 32.38, 0.28366, 0.42163, -0.11523, 0.85345,
 12:27:35.198,ed:35:33:d3:6c:f8, 2015-01-01 00:14:00.375, 0.778, 0.05, 0.609, -1.77, 0.488, -2.014, 4.482, -51.949, 140.208, -20.700, -10.713, -25.013, 32.38, 0.28366, 0.42163, -0.11523, 0.85345,
 12:27:35.219,e3:ca:2d:fd:e0:8c, 2015-01-01 00:14:01.025, 0.984, -0.037, 0.264, -0.549, -0.488, 0.488, -8.069, -74.938, 158.714, -24.833, -10.220, -12.520, 26.59, 0.18903, 0.58701, -0.16736, 0.76913,
 12:27:35.219,e3:ca:2d:fd:e0:8c, 2015-01-01 00:14:01.025, 0.985, -0.039, 0.264, -0.549, -0.427, 0.427, -8.113, -74.943, 158.752, -24.833, -10.220, -12.520, 26.59, 0.18903, 0.58701, -0.16736, 0.76913,
 12:27:35.222,f6:90:cc:01:6d:25, 2015-01-01 00:13:59.715, 0.917, 0.001, 0.361, -1.465, -2.136, 1.831, 1.06, -68.769, -169.316, -29.280, -11.447, -9.540, 30.8, 0.08066, -0.5607, -0.06061, -0.82178,
 12:27:35.222,f6:90:cc:01:6d:25, 2015-01-01 00:13:59.715, 0.92, -0.003, 0.358, -1.343, -2.258, 1.526, 0.967, -68.807, -169.189, -29.280, -11.447, -9.540, 30.8, 0.08066, -0.5607, -0.06061, -0.82178,
 12:27:35.241,e3:ca:2d:fd:e0:8c, 2015-01-01 00:14:01.025, 0.984, -0.037, 0.265, -0.488, -0.549, 0.427, -8.157, -74.954, 158.807, -24.860, -9.813, -12.593, 26.59, 0.18903, 0.58701, -0.16736, 0.76913,
 12:27:35.241,e3:ca:2d:fd:e0:8c, 2015-01-01 00:14:01.025, 0.986, -0.038, 0.263, -0.427, -0.488, 0.488, -8.201, -74.96, 158.862, -24.860, -9.813, -12.593, 26.59, 0.18903, 0.58701, -0.16736, 0.76913,
 12:27:35.243,ed:40:fe:65:30:6c, 2015-01-01 00:14:00.200, 0.629, 0.158, 0.756, -1.221, -1.038, -1.709, 11.942, -39.029, -138.246, -20.093, -13.120, -5.780, 27.39, 0.36938, -0.27563, -0.20847, -0.86258,
 12:27:35.243,ed:40:fe:65:30:6c, 2015-01-01 00:14:00.200, 0.635, 0.159, 0.755, -0.793, -1.587, -1.282, 11.953, -39.04, -138.301, -20.093, -13.120, -5.780, 27.39, 0.36938, -0.27563, -0.20847, -0.86258,
 12:27:35.245,ed:35:33:d3:6c:f8, 2015-01-01 00:14:00.375, 0.783, 0.045, 0.602, -2.502, 0.366, -0.977, 4.493, -51.932, 140.12, -20.700, -10.713, -25.013, 32.38, 0.28366, 0.42163, -0.11523, 0.85345,
 12:27:35.245,ed:35:33:d3:6c:f8, 2015-01-01 00:14:00.375, 0.787, 0.048, 0.606, -2.258, 0.488, -1.343, 4.477, -51.921, 140.076, -20.700, -10.713, -25.013, 32.38, 0.28366, 0.42163, -0.11523, 0.85345,
 12:27:35.267,f6:90:cc:01:6d:25, 2015-01-01 00:13:59.715, 0.924, -0.006, 0.351, -1.099, -1.587, 1.038, 0.879, -68.84, -169.074, -29.280, -11.447, -9.540, 30.8, 0.08066, -0.5607, -0.06061, -0.82178,
 12:27:35.267,f6:90:cc:01:6d:25, 2015-01-01 00:13:59.715, 0.92, -0.011, 0.351, -0.793, -1.282, 0.916, 0.807, -68.868, -168.964, -29.280, -11.447, -9.540, 30.8, 0.08066, -0.5607, -0.06061, -0.82178,
 12:27:35.286,e3:ca:2d:fd:e0:8c, 2015-01-01 00:14:01.025, 0.986, -0.044, 0.263, -0.244, -0.366, 0.549, -8.245, -74.965, 158.906, -24.860, -9.813, -12.593, 26.59, 0.18903, 0.58701, -0.16736, 0.76913,
 12:27:35.286,e3:ca:2d:fd:e0:8c, 2015-01-01 00:14:01.025, 0.985, -0.042, 0.26, -0.122, -0.427, 0.366, -8.284, -74.971, 158.945, -24.860, -9.813, -12.593, 26.59, 0.18903, 0.58701, -0.16736, 0.76913,
 12:27:35.290,f6:90:cc:01:6d:25, 2015-01-01 00:13:59.715, 0.921, -0.008, 0.348, -1.099, -0.793, 0.854, 0.742, -68.884, -168.871, -29.280, -11.447, -9.540, 30.8, 0.08066, -0.5607, -0.06061, -0.82178,
 12:27:35.290,f6:90:cc:01:6d:25, 2015-01-01 00:13:59.715, 0.932, -0.004, 0.349, -0.671, -0.61, 0.854, 0.67, -68.901, -168.777, -29.280, -11.447, -9.540, 30.8, 0.08066, -0.5607, -0.06061, -0.82178,
 12:27:35.310,ed:40:fe:65:30:6c, 2015-01-01 00:14:00.200, 0.635, 0.155, 0.753, -0.61, -1.648, -0.671, 11.964, -39.062, -138.351, -20.093, -13.120, -5.780, 27.39, 0.36938, -0.27563, -0.20847, -0.86258,
 12:27:35.310,ed:40:fe:65:30:6c, 2015-01-01 00:14:00.200, 0.636, 0.156, 0.751, -0.732, -1.526, -0.305, 11.964, -39.089, -138.395, -20.093, -13.120, -5.780, 27.39, 0.36938, -0.27563, -0.20847, -0.86258,
 12:27:35.311,ed:35:33:d3:6c:f8, 2015-01-01 00:14:00.375, 0.782, 0.042, 0.596, -1.343, -0.366, -0.305, 4.466, -51.916, 140.043, -21.007, -10.987, -25.187, 32.38, 0.28366, 0.42163, -0.11523, 0.85345,
 12:27:35.311,ed:35:33:d3:6c:f8, 2015-01-01 00:14:00.375, 0.787, 0.041, 0.598, -1.526, -0.671, 0, 4.449, -51.921, 140.021, -21.007, -10.987, -25.187, 32.38, 0.28366, 0.42163, -0.11523, 0.85345,
 12:27:35.333,ed:35:33:d3:6c:f8, 2015-01-01 00:14:00.375, 0.799, 0.044, 0.593, -2.319, -0.854, 0.427, 4.417, -51.938, 139.999, -21.007, -10.987, -25.187, 32.38, 0.29144, 0.42303, -0.11722, 0.84985,
 12:27:35.333,ed:35:33:d3:6c:f8, 2015-01-01 00:14:00.375, 0.797, 0.044, 0.605, -0.183, -0.488, 0.183, 4.373, -51.96, 139.982, -21.007, -10.987, -25.187, 32.38, 0.29144, 0.42303, -0.11722, 0.84985,
 12:27:35.333,ed:40:fe:65:30:6c, 2015-01-01 00:14:00.200, 0.644, 0.161, 0.749, -0.61, -0.916, -0.122, 11.959, -39.111, -138.428, -20.240, -13.433, -6.540, 27.39, 0.36938, -0.27563, -0.20847, -0.86258,
 12:27:35.333,ed:40:fe:65:30:6c, 2015-01-01 00:14:00.200, 0.644, 0.159, 0.756, -0.427, -1.404, 0, 11.953, -39.133, -138.45, -20.240, -13.433, -6.540, 27.39, 0.36938, -0.27563, -0.20847, -0.86258,
 12:27:35.335,f6:90:cc:01:6d:25, 2015-01-01 00:13:59.715, 0.93, -0.01, 0.351, -0.183, -0.549, 0.671, 0.604, -68.912, -168.668, -29.280, -11.447, -9.540, 30.8, 0.08066, -0.5607, -0.06061, -0.82178,
 12:27:35.335,f6:90:cc:01:6d:25, 2015-01-01 00:13:59.715, 0.925, -0.013, 0.344, 0.366, -0.793, 0.427, 0.566, -68.923, -168.602, -29.280, -11.447, -9.540, 30.8, 0.08066, -0.5607, -0.06061, -0.82178,
 12:27:35.354,e3:ca:2d:fd:e0:8c, 2015-01-01 00:14:01.025, 0.993, -0.043, 0.258, -0.244, -0.366, 0.244, -8.317, -74.976, 158.961, -24.860, -9.813, -12.593, 26.59, 0.18781, 0.58627, -0.16721, 0.77005,
 12:27:35.354,e3:ca:2d:fd:e0:8c, 2015-01-01 00:14:01.025, 0.996, -0.043, 0.26, -0.183, -0.122, 0.244, -8.344, -74.982, 158.989, -24.860, -9.813, -12.593, 26.59, 0.18781, 0.58627, -0.16721, 0.77005,
 12:27:35.377,e3:ca:2d:fd:e0:8c, 2015-01-01 00:14:01.360, 0.991, -0.042, 0.254, 0, 0.244, 0.183, -8.361, -74.976, 159.027, -24.860, -9.813, -12.593, 26.59, 0.18781, 0.58627, -0.16721, 0.77005,
 12:27:35.377,e3:ca:2d:fd:e0:8c, 2015-01-01 00:14:01.360, 0.988, -0.045, 0.256, -0.122, 0.671, -0.122, -8.361, -74.965, 159.033, -24.860, -9.813, -12.593, 26.59, 0.18781, 0.58627, -0.16721, 0.77005,
 12:27:35.377,ed:40:fe:65:30:6c, 2015-01-01 00:14:00.200, 0.64, 0.155, 0.761, -0.977, -1.038, 0.488, 11.942, -39.161, -138.461, -20.240, -13.433, -6.540, 27.39, 0.36938, -0.27563, -0.20847, -0.86258,
 12:27:35.377,ed:40:fe:65:30:6c, 2015-01-01 00:14:00.200, 0.639, 0.16, 0.756, -1.465, -1.282, 1.038, 11.909, -39.188, -138.455, -20.240, -13.433, -6.540, 27.39, 0.36938, -0.27563, -0.20847, -0.86258,
 12:27:35.378,ed:35:33:d3:6c:f8, 2015-01-01 00:14:00.375, 0.792, 0.043, 0.603, -2.014, -0.488, 2.808, 4.34, -51.976, 140.004, -21.007, -10.987, -25.187, 32.38, 0.29144, 0.42303, -0.11722, 0.84985,
 12:27:35.378,ed:35:33:d3:6c:f8, 2015-01-01 00:14:00.375, 0.788, 0.042, 0.601, -0.244, -0.488, 2.319, 4.241, -51.993, 140.081, -21.007, -10.987, -25.187, 32.38, 0.29144, 0.42303, -0.11722, 0.84985,
 12:27:35.380,f6:90:cc:01:6d:25, 2015-01-01 00:13:59.715, 0.925, -0.005, 0.345, 0, -0.488, 0.244, 0.533, -68.939, -168.552, -29.280, -11.447, -9.540, 30.8, 0.08066, -0.5607, -0.06061, -0.82178,
 12:27:35.380,f6:90:cc:01:6d:25, 2015-01-01 00:13:59.715, 0.923, -0.001, 0.347, -0.061, -0.488, 0.244, 0.505, -68.956, -168.514, -29.280, -11.447, -9.540, 30.8, 0.08066, -0.5607, -0.06061, -0.82178,
 12:27:35.398,e3:ca:2d:fd:e0:8c, 2015-01-01 00:14:01.360, 0.987, -0.043, 0.255, -0.183, 0.549, -0.366, -8.344, -74.96, 159.011, -24.860, -9.813, -12.593, 26.59, 0.18781, 0.58627, -0.16721, 0.77005,
 12:27:35.398,e3:ca:2d:fd:e0:8c, 2015-01-01 00:14:01.360, 0.985, -0.04, 0.258, -0.183, 0.549, -0.427, -8.322, -74.949, 158.961, -24.860, -9.813, -12.593, 26.59, 0.18781, 0.58627, -0.16721, 0.77005,
 12:27:35.399,ed:40:fe:65:30:6c, 2015-01-01 00:14:00.200, 0.638, 0.16, 0.754, -1.282, -1.465, 1.099, 11.871, -39.221, -138.45, -20.240, -13.433, -6.540, 27.39, 0.36478, -0.27737, -0.20956, -0.86368,
 12:27:35.399,ed:40:fe:65:30:6c, 2015-01-01 00:14:00.200, 0.634, 0.158, 0.753, -1.404, -0.793, 0.916, 11.832, -39.249, -138.444, -20.240, -13.433, -6.540, 27.39, 0.36478, -0.27737, -0.20956, -0.86368,
 12:27:35.400,ed:35:33:d3:6c:f8, 2015-01-01 00:14:00.710, 0.785, 0.039, 0.599, -0.366, -0.305, 2.075, 4.18, -52.015, 140.142, -21.007, -10.987, -25.187, 32.38, 0.29144, 0.42303, -0.11722, 0.84985,
 12:27:35.400,ed:35:33:d3:6c:f8, 2015-01-01 00:14:00.710, 0.784, 0.04, 0.596, -0.366, -0.061, 1.709, 4.125, -52.026, 140.186, -21.007, -10.987, -25.187, 32.38, 0.29144, 0.42303, -0.11722, 0.84985,
 12:27:35.424,f6:90:cc:01:6d:25, 2015-01-01 00:13:59.715, 0.921, -0.001, 0.35, -0.244, -0.305, 0.183, 0.478, -68.967, -168.492, -29.747, -11.280, -8.480, 30.8, 0.08066, -0.5607, -0.06061, -0.82178,
 12:27:35.424,f6:90:cc:01:6d:25, 2015-01-01 00:13:59.715, 0.921, 0.002, 0.351, -0.122, -0.061, 0, 0.456, -68.972, -168.475, -29.747, -11.280, -8.480, 30.8, 0.08066, -0.5607, -0.06061, -0.82178,
 12:27:35.444,e3:ca:2d:fd:e0:8c, 2015-01-01 00:14:01.360, 0.985, -0.039, 0.262, -0.244, 0.488, -0.488, -8.295, -74.943, 158.923, -24.860, -9.813, -12.593, 26.59, 0.18781, 0.58627, -0.16721, 0.77005,
 12:27:35.444,e3:ca:2d:fd:e0:8c, 2015-01-01 00:14:01.360, 0.983, -0.038, 0.266, -0.305, 0.549, -0.488, -8.267, -74.938, 158.879, -24.860, -9.813, -12.593, 26.59, 0.18781, 0.58627, -0.16721, 0.77005,
 12:27:35.446,ed:35:33:d3:6c:f8, 2015-01-01 00:14:00.710, 0.782, 0.041, 0.598, 0, 0.427, 1.465, 4.076, -52.037, 140.224, -21.007, -10.987, -25.187, 32.38, 0.29144, 0.42303, -0.11722, 0.84985,
 12:27:35.446,ed:35:33:d3:6c:f8, 2015-01-01 00:14:00.710, 0.784, 0.042, 0.602, -0.061, 0.977, 0.793, 4.043, -52.031, 140.229, -21.007, -10.987, -25.187, 32.38, 0.29144, 0.42303, -0.11722, 0.84985,
 12:27:35.446,ed:40:fe:65:30:6c, 2015-01-01 00:14:00.200, 0.632, 0.159, 0.752, -1.526, -0.305, 0.732, 11.794, -39.26, -138.45, -20.240, -13.433, -6.540, 27.39, 0.36478, -0.27737, -0.20956, -0.86368,
 12:27:35.446,ed:40:fe:65:30:6c, 2015-01-01 00:14:00.200, 0.632, 0.161, 0.755, -1.343, -0.122, 0.427, 11.761, -39.271, -138.461, -20.240, -13.433, -6.540, 27.39, 0.36478, -0.27737, -0.20956, -0.86368,
 12:27:35.447,f6:90:cc:01:6d:25, 2015-01-01 00:13:59.715, 0.921, 0, 0.354, 0.183, 0.061, 0.061, 0.445, -68.978, -168.492, -29.747, -11.280, -8.480, 30.8, 0.08478, -0.56305, -0.05994, -0.81979,
 12:27:35.447,f6:90:cc:01:6d:25, 2015-01-01 00:13:59.715, 0.923, 0, 0.353, 0.183, 0.244, 0, 0.434, -68.978, -168.492, -29.747, -11.280, -8.480, 30.8, 0.08478, -0.56305, -0.05994, -0.81979,
 12:27:35.489,ed:40:fe:65:30:6c, 2015-01-01 00:14:00.535, 0.633, 0.162, 0.758, -1.404, 0, 0.366, 11.728, -39.271, -138.477, -20.240, -13.433, -6.540, 27.39, 0.36478, -0.27737, -0.20956, -0.86368,
 12:27:35.489,ed:40:fe:65:30:6c, 2015-01-01 00:14:00.535, 0.633, 0.163, 0.758, -1.16, 0.366, 0.366, 11.7, -39.271, -138.499, -20.240, -13.433, -6.540, 27.39, 0.36478, -0.27737, -0.20956, -0.86368,
 12:27:35.489,e3:ca:2d:fd:e0:8c, 2015-01-01 00:14:01.360, 0.985, -0.037, 0.265, -0.183, 0.732, -0.549, -8.229, -74.927, 158.84, -24.860, -9.813, -12.593, 26.59, 0.18781, 0.58627, -0.16721, 0.77005,
 12:27:35.489,e3:ca:2d:fd:e0:8c, 2015-01-01 00:14:01.360, 0.987, -0.035, 0.267, -0.244, 0.977, -0.488, -8.196, -74.91, 158.802, -24.860, -9.813, -12.593, 26.59, 0.18781, 0.58627, -0.16721, 0.77005,
 12:27:35.490,ed:35:33:d3:6c:f8, 2015-01-01 00:14:00.710, 0.786, 0.044, 0.604, -0.366, 1.465, 0.549, 4.016, -52.015, 140.235, -21.007, -10.987, -25.187, 32.38, 0.29144, 0.42303, -0.11722, 0.84985,
 12:27:35.490,ed:35:33:d3:6c:f8, 2015-01-01 00:14:00.710, 0.786, 0.046, 0.607, -0.305, 1.709, 0.183, 3.999, -51.993, 140.257, -21.007, -10.987, -25.187, 32.38, 0.29144, 0.42303, -0.11722, 0.84985,
 12:27:35.492,f6:90:cc:01:6d:25, 2015-01-01 00:13:59.715, 0.924, 0.004, 0.354, 0.305, 0.488, 0, 0.434, -68.972, -168.475, -29.747, -11.280, -8.480, 30.8, 0.08478, -0.56305, -0.05994, -0.81979,
 12:27:35.492,f6:90:cc:01:6d:25, 2015-01-01 00:13:59.715, 0.921, 0.007, 0.356, -0.061, 0.793, 0, 0.428, -68.967, -168.47, -29.747, -11.280, -8.480, 30.8, 0.08478, -0.56305, -0.05994, -0.81979,
 12:27:35.512,ed:40:fe:65:30:6c, 2015-01-01 00:14:00.535, 0.63, 0.165, 0.759, -0.671, 0.427, 0.183, 11.684, -39.265, -138.521, -20.240, -13.433, -6.540, 27.39, 0.36478, -0.27737, -0.20956, -0.86368,
 12:27:35.512,ed:40:fe:65:30:6c, 2015-01-01 00:14:00.535, 0.628, 0.165, 0.759, -0.427, 0.427, 0.061, 11.673, -39.254, -138.549, -20.240, -13.433, -6.540, 27.39, 0.36478, -0.27737, -0.20956, -0.86368,
 12:27:35.513,ed:35:33:d3:6c:f8, 2015-01-01 00:14:00.710, 0.779, 0.046, 0.607, 0.183, 1.831, 0.122, 3.988, -51.965, 140.284, -21.007, -10.987, -25.187, 32.38, 0.29144, 0.42303, -0.11722, 0.84985,
 12:27:35.513,ed:35:33:d3:6c:f8, 2015-01-01 00:14:00.710, 0.78, 0.047, 0.607, 0.122, 2.563, -0.122, 3.988, -51.932, 140.295, -21.007, -10.987, -25.187, 32.38, 0.29144, 0.42303, -0.11722, 0.84985,
 12:27:35.537,f6:90:cc:01:6d:25, 2015-01-01 00:14:00.010, 0.917, 0.007, 0.357, -0.061, 0.854, 0, 0.423, -68.95, -168.464, -29.747, -11.280, -8.480, 30.8, 0.08478, -0.56305, -0.05994, -0.81979,
 12:27:35.537,f6:90:cc:01:6d:25, 2015-01-01 00:14:00.010, 0.918, 0.012, 0.355, -0.488, 0.916, 0, 0.423, -68.934, -168.459, -29.747, -11.280, -8.480, 30.8, 0.08478, -0.56305, -0.05994, -0.81979,
 12:27:35.556,e3:ca:2d:fd:e0:8c, 2015-01-01 00:14:01.360, 0.984, -0.033, 0.267, -0.305, 1.16, -0.427, -8.157, -74.888, 158.758, -24.860, -9.813, -12.593, 26.59, 0.18781, 0.58627, -0.16721, 0.77005,
 12:27:35.556,e3:ca:2d:fd:e0:8c, 2015-01-01 00:14:01.360, 0.982, -0.032, 0.266, -0.305, 1.099, -0.366, -8.124, -74.866, 158.719, -24.860, -9.813, -12.593, 26.59, 0.18781, 0.58627, -0.16721, 0.77005,
 12:27:35.556,ed:40:fe:65:30:6c, 2015-01-01 00:14:00.535, 0.625, 0.169, 0.757, -0.305, 0.854, -0.183, 11.673, -39.243, -138.571, -20.240, -13.433, -6.540, 27.39, 0.36478, -0.27737, -0.20956, -0.86368,
 12:27:35.556,ed:40:fe:65:30:6c, 2015-01-01 00:14:00.535, 0.625, 0.168, 0.76, -0.366, 0.793, -0.366, 11.673, -39.221, -138.593, -20.240, -13.433, -6.540, 27.39, 0.36478, -0.27737, -0.20956, -0.86368,
 12:27:35.579,e3:ca:2d:fd:e0:8c, 2015-01-01 00:14:01.360, 0.984, -0.031, 0.263, -0.427, 0.854, -0.244, -8.097, -74.85, 158.681, -24.667, -9.967, -13.113, 26.59, 0.18781, 0.58627, -0.16721, 0.77005,
 12:27:35.579,e3:ca:2d:fd:e0:8c, 2015-01-01 00:14:01.360, 0.987, -0.033, 0.262, -0.549, 0.793, -0.122, -8.086, -74.839, 158.637, -24.667, -9.967, -13.113, 26.59, 0.18781, 0.58627, -0.16721, 0.77005,
 12:27:35.581,ed:35:33:d3:6c:f8, 2015-01-01 00:14:00.710, 0.778, 0.052, 0.609, 0.061, 2.747, -0.671, 3.999, -51.883, 140.295, -21.007, -10.987, -25.187, 32.38, 0.29144, 0.42303, -0.11722, 0.84985,
 12:27:35.581,ed:35:33:d3:6c:f8, 2015-01-01 00:14:00.710, 0.78, 0.052, 0.614, 0.366, 2.808, -0.61, 4.021, -51.828, 140.29, -21.007, -10.987, -25.187, 32.38, 0.29144, 0.42303, -0.11722, 0.84985,
 12:27:35.582,f6:90:cc:01:6d:25, 2015-01-01 00:14:00.010, 0.919, 0.007, 0.354, -0.427, 0.61, 0, 0.412, -68.917, -168.453, -29.747, -11.280, -8.480, 30.8, 0.08478, -0.56305, -0.05994, -0.81979,
 12:27:35.582,f6:90:cc:01:6d:25, 2015-01-01 00:14:00.010, 0.924, 0.007, 0.35, -0.854, 0.549, 0, 0.406, -68.906, -168.431, -29.747, -11.280, -8.480, 30.8, 0.08478, -0.56305, -0.05994, -0.81979,
 12:27:35.602,ed:40:fe:65:30:6c, 2015-01-01 00:14:00.535, 0.629, 0.167, 0.762, -0.732, 0.549, -0.549, 11.673, -39.21, -138.615, -20.240, -13.433, -6.540, 27.39, 0.36478, -0.27737, -0.20956, -0.86368,
 12:27:35.602,ed:40:fe:65:30:6c, 2015-01-01 00:14:00.535, 0.634, 0.165, 0.761, -0.671, 0.183, -0.732, 11.678, -39.199, -138.653, -20.240, -13.433, -6.540, 27.39, 0.36478, -0.27737, -0.20956, -0.86368,
 12:27:35.603,ed:35:33:d3:6c:f8, 2015-01-01 00:14:00.710, 0.782, 0.05, 0.616, -0.427, 2.808, -0.61, 4.032, -51.779, 140.295, -21.293, -10.893, -24.640, 32.38, 0.29144, 0.42303, -0.11722, 0.84985,
 12:27:35.603,ed:35:33:d3:6c:f8, 2015-01-01 00:14:00.710, 0.783, 0.049, 0.614, -0.244, 2.747, -0.671, 4.043, -51.724, 140.273, -21.293, -10.893, -24.640, 32.38, 0.29144, 0.42303, -0.11722, 0.84985,
 12:27:35.625,e3:ca:2d:fd:e0:8c, 2015-01-01 00:14:01.360, 0.989, -0.035, 0.26, -0.549, 0.793, -0.061, -8.075, -74.822, 158.61, -24.667, -9.967, -13.113, 26.59, 0.18781, 0.58627, -0.16721, 0.77005,
 12:27:35.625,e3:ca:2d:fd:e0:8c, 2015-01-01 00:14:01.360, 0.988, -0.035, 0.262, -0.549, 0.854, 0.061, -8.075, -74.806, 158.593, -24.667, -9.967, -13.113, 26.59, 0.18781, 0.58627, -0.16721, 0.77005,
 12:27:35.627,f6:90:cc:01:6d:25, 2015-01-01 00:14:00.010, 0.925, 0.005, 0.354, -0.977, 0.61, 0, 0.396, -68.895, -168.409, -29.747, -11.280, -8.480, 30.8, 0.08478, -0.56305, -0.05994, -0.81979,
 12:27:35.627,f6:90:cc:01:6d:25, 2015-01-01 00:14:00.010, 0.921, 0.005, 0.355, -1.221, 0.671, -0.061, 0.379, -68.884, -168.393, -29.747, -11.280, -8.480, 30.8, 0.08478, -0.56305, -0.05994, -0.81979,
 12:27:35.646,e3:ca:2d:fd:e0:8c, 2015-01-01 00:14:01.360, 0.985, -0.033, 0.262, -0.671, 0.549, 0.183, -8.091, -74.8, 158.599, -24.667, -9.967, -13.113, 26.59, 0.18918, 0.58493, -0.16751, 0.77063,
 12:27:35.646,e3:ca:2d:fd:e0:8c, 2015-01-01 00:14:01.360, 0.983, -0.034, 0.264, -0.793, 0.427, 0.305, -8.119, -74.789, 158.588, -24.667, -9.967, -13.113, 26.59, 0.18918, 0.58493, -0.16751, 0.77063,
 12:27:35.647,ed:40:fe:65:30:6c, 2015-01-01 00:14:00.535, 0.631, 0.165, 0.762, -0.732, 0.061, -0.977, 11.684, -39.188, -138.708, -20.240, -13.433, -6.540, 27.39, 0.36478, -0.27737, -0.20956, -0.86368,
 12:27:35.647,ed:40:fe:65:30:6c, 2015-01-01 00:14:00.535, 0.628, 0.166, 0.76, -0.732, 0.183, -1.038, 11.695, -39.183, -138.746, -20.240, -13.433, -6.540, 27.39, 0.36478, -0.27737, -0.20956, -0.86368,
 12:27:35.649,ed:35:33:d3:6c:f8, 2015-01-01 00:14:00.710, 0.78, 0.047, 0.614, -0.61, 2.625, -1.038, 4.059, -51.674, 140.257, -21.293, -10.893, -24.640, 32.38, 0.29144, 0.42303, -0.11722, 0.84985,
 12:27:35.649,ed:35:33:d3:6c:f8, 2015-01-01 00:14:00.710, 0.775, 0.05, 0.612, -0.61, 2.319, -1.038, 4.07, -51.625, 140.224, -21.293, -10.893, -24.640, 32.38, 0.29144, 0.42303, -0.11722, 0.84985,
 12:27:35.651,f6:90:cc:01:6d:25, 2015-01-01 00:14:00.010, 0.918, 0.003, 0.354, -1.404, 0.732, -0.061, 0.363, -68.873, -168.387, -29.747, -11.280, -8.480, 30.8, 0.08478, -0.56305, -0.05994, -0.81979,
 12:27:35.651,f6:90:cc:01:6d:25, 2015-01-01 00:14:00.010, 0.917, 0.001, 0.355, -1.526, 0.793, -0.061, 0.341, -68.857, -168.382, -29.747, -11.280, -8.480, 30.8, 0.08478, -0.56305, -0.05994, -0.81979,
 12:27:35.691,e3:ca:2d:fd:e0:8c, 2015-01-01 00:14:01.360, 0.983, -0.038, 0.266, -0.732, 0.427, 0.244, -8.141, -74.784, 158.593, -24.667, -9.967, -13.113, 26.59, 0.18918, 0.58493, -0.16751, 0.77063,
 12:27:35.691,e3:ca:2d:fd:e0:8c, 2015-01-01 00:14:01.360, 0.983, -0.036, 0.269, -0.793, 0.488, 0.305, -8.168, -74.773, 158.621, -24.667, -9.967, -13.113, 26.59, 0.18918, 0.58493, -0.16751, 0.77063,
 12:27:35.695,f6:90:cc:01:6d:25, 2015-01-01 00:14:00.010, 0.92, 0.001, 0.357, -1.526, 0.977, -0.183, 0.319, -68.84, -168.371, -29.747, -11.280, -8.480, 30.8, 0.08478, -0.56305, -0.05994, -0.81979,
 12:27:35.695,f6:90:cc:01:6d:25, 2015-01-01 00:14:00.010, 0.923, 0.007, 0.361, -2.563, 1.221, -0.366, 0.297, -68.818, -168.376, -29.747, -11.280, -8.480, 30.8, 0.08478, -0.56305, -0.05994, -0.81979,
 12:27:35.715,ed:40:fe:65:30:6c, 2015-01-01 00:14:00.535, 0.627, 0.164, 0.759, -0.549, 0.305, -0.977, 11.7, -39.172, -138.785, -19.773, -13.300, -5.527, 27.39, 0.36478, -0.27737, -0.20956, -0.86368,
 12:27:35.715,ed:40:fe:65:30:6c, 2015-01-01 00:14:00.535, 0.628, 0.16, 0.758, -0.305, 0.244, -1.038, 11.717, -39.161, -138.812, -19.773, -13.300, -5.527, 27.39, 0.36478, -0.27737, -0.20956, -0.86368,
 12:27:35.716,ed:35:33:d3:6c:f8, 2015-01-01 00:14:00.710, 0.774, 0.047, 0.612, -0.183, 2.258, -0.916, 4.092, -51.581, 140.191, -21.293, -10.893, -24.640, 32.38, 0.29144, 0.42007, -0.11792, 0.85123,
 12:27:35.716,ed:35:33:d3:6c:f8, 2015-01-01 00:14:00.710, 0.779, 0.044, 0.614, -0.183, 1.953, -1.404, 4.114, -51.542, 140.158, -21.293, -10.893, -24.640, 32.38, 0.29144, 0.42007, -0.11792, 0.85123,
 12:27:35.736,e3:ca:2d:fd:e0:8c, 2015-01-01 00:14:01.695, 0.986, -0.034, 0.271, -1.404, 0.488, 0.488, -8.218, -74.762, 158.654, -24.667, -9.967, -13.113, 26.59, 0.18918, 0.58493, -0.16751, 0.77063,
 12:27:35.736,e3:ca:2d:fd:e0:8c, 2015-01-01 00:14:01.695, 0.984, -0.034, 0.273, -2.625, 0.427, 0.671, -8.306, -74.751, 158.708, -24.667, -9.967, -13.113, 26.59, 0.18918, 0.58493, -0.16751, 0.77063,
 12:27:35.737,ed:40:fe:65:30:6c, 2015-01-01 00:14:00.535, 0.629, 0.161, 0.76, 0.061, 0.183, -1.099, 11.739, -39.15, -138.829, -19.773, -13.300, -5.527, 27.39, 0.36157, -0.27811, -0.2074, -0.86533,
 12:27:35.737,ed:40:fe:65:30:6c, 2015-01-01 00:14:00.535, 0.631, 0.166, 0.762, 0.183, 0.122, -1.282, 11.766, -39.139, -138.851, -19.773, -13.300, -5.527, 27.39, 0.36157, -0.27811, -0.2074, -0.86533,
 12:27:35.739,ed:35:33:d3:6c:f8, 2015-01-01 00:14:01.045, 0.778, 0.046, 0.617, -0.183, 1.709, -1.648, 4.153, -51.509, 140.109, -21.293, -10.893, -24.640, 32.38, 0.29144, 0.42007, -0.11792, 0.85123,
 12:27:35.739,ed:35:33:d3:6c:f8, 2015-01-01 00:14:01.045, 0.78, 0.05, 0.619, -0.305, 1.526, -1.343, 4.186, -51.476, 140.054, -21.293, -10.893, -24.640, 32.38, 0.29144, 0.42007, -0.11792, 0.85123,
 12:27:35.740,f6:90:cc:01:6d:25, 2015-01-01 00:14:00.010, 0.924, 0.008, 0.362, -4.089, 1.587, -0.427, 0.253, -68.791, -168.371, -29.887, -10.880, -8.973, 30.8, 0.08478, -0.56305, -0.05994, -0.81979,
 12:27:35.740,f6:90:cc:01:6d:25, 2015-01-01 00:14:00.010, 0.921, -0.001, 0.361, -5.127, 1.648, -0.366, 0.187, -68.763, -168.36, -29.887, -10.880, -8.973, 30.8, 0.08478, -0.56305, -0.05994, -0.81979,
 12:27:35.759,e3:ca:2d:fd:e0:8c, 2015-01-01 00:14:01.695, 0.981, -0.039, 0.271, -3.479, 0.427, 0.671, -8.41, -74.74, 158.752, -24.667, -9.967, -13.113, 26.59, 0.18918, 0.58493, -0.16751, 0.77063,
 12:27:35.759,e3:ca:2d:fd:e0:8c, 2015-01-01 00:14:01.695, 0.981, -0.038, 0.27, -3.418, 0.427, 0.427, -8.492, -74.729, 158.769, -24.667, -9.967, -13.113, 26.59, 0.18918, 0.58493, -0.16751, 0.77063,
 12:27:35.760,ed:35:33:d3:6c:f8, 2015-01-01 00:14:01.045, 0.775, 0.051, 0.618, -1.038, 1.953, -1.404, 4.202, -51.443, 139.999, -21.293, -10.893, -24.640, 32.38, 0.29144, 0.42007, -0.11792, 0.85123,
 12:27:35.760,ed:35:33:d3:6c:f8, 2015-01-01 00:14:01.045, 0.772, 0.047, 0.617, -1.892, 1.831, -1.343, 4.208, -51.405, 139.96, -21.293, -10.893, -24.640, 32.38, 0.29144, 0.42007, -0.11792, 0.85123,
 12:27:35.783,ed:40:fe:65:30:6c, 2015-01-01 00:14:00.535, 0.63, 0.167, 0.764, -0.549, 0.061, -1.526, 11.788, -39.133, -138.884, -19.773, -13.300, -5.527, 27.39, 0.36157, -0.27811, -0.2074, -0.86533,
 12:27:35.783,ed:40:fe:65:30:6c, 2015-01-01 00:14:00.535, 0.626, 0.165, 0.764, -1.648, 0.366, -1.709, 11.788, -39.117, -138.928, -19.773, -13.300, -5.527, 27.39, 0.36157, -0.27811, -0.2074, -0.86533,
 12:27:35.785,f6:90:cc:01:6d:25, 2015-01-01 00:14:00.010, 0.917, -0.004, 0.36, -5.554, 1.709, -0.366, 0.104, -68.725, -168.36, -29.887, -10.880, -8.973, 30.8, 0.08432, -0.56149, -0.05817, -0.82104,
 12:27:35.785,f6:90:cc:01:6d:25, 2015-01-01 00:14:00.010, 0.914, -0.001, 0.36, -5.31, 1.892, -0.549, 0.027, -68.692, -168.371, -29.887, -10.880, -8.973, 30.8, 0.08432, -0.56149, -0.05817, -0.82104,
 12:27:35.803,e3:ca:2d:fd:e0:8c, 2015-01-01 00:14:01.695, 0.983, -0.037, 0.269, -3.174, 0.244, 0.305, -8.569, -74.724, 158.785, -24.667, -9.967, -13.113, 26.59, 0.18918, 0.58493, -0.16751, 0.77063,
 12:27:35.803,e3:ca:2d:fd:e0:8c, 2015-01-01 00:14:01.695, 0.986, -0.039, 0.265, -3.052, 0.122, 0.427, -8.646, -74.718, 158.818, -24.667, -9.967, -13.113, 26.59, 0.18918, 0.58493, -0.16751, 0.77063,
 12:27:35.804,ed:40:fe:65:30:6c, 2015-01-01 00:14:00.870, 0.624, 0.161, 0.76, -2.258, 0.793, -1.953, 11.777, -39.095, -138.977, -19.773, -13.300, -5.527, 27.39, 0.36157, -0.27811, -0.2074, -0.86533,
 12:27:35.804,ed:40:fe:65:30:6c, 2015-01-01 00:14:00.870, 0.624, 0.16, 0.76, -2.136, 0.916, -2.075, 11.772, -39.067, -139.026, -19.773, -13.300, -5.527, 27.39, 0.36157, -0.27811, -0.2074, -0.86533,
 12:27:35.806,ed:35:33:d3:6c:f8, 2015-01-01 00:14:01.045, 0.771, 0.044, 0.615, -2.441, 2.014, -1.892, 4.208, -51.367, 139.927, -21.293, -10.893, -24.640, 32.38, 0.29144, 0.42007, -0.11792, 0.85123,
 12:27:35.806,ed:35:33:d3:6c:f8, 2015-01-01 00:14:01.045, 0.775, 0.046, 0.617, -2.258, 2.136, -2.014, 4.208, -51.323, 139.894, -21.293, -10.893, -24.640, 32.38, 0.29144, 0.42007, -0.11792, 0.85123,
 12:27:35.830,f6:90:cc:01:6d:25, 2015-01-01 00:14:00.320, 0.916, 0, 0.359, -5.005, 1.404, -0.854, -0.033, -68.659, -168.393, -29.887, -10.880, -8.973, 30.8, 0.08432, -0.56149, -0.05817, -0.82104,
 12:27:35.831,f6:90:cc:01:6d:25, 2015-01-01 00:14:00.320, 0.92, -0.003, 0.359, -4.822, 1.282, -0.977, -0.082, -68.632, -168.431, -29.887, -10.880, -8.973, 30.8, 0.08432, -0.56149, -0.05817, -0.82104,
 12:27:35.849,e3:ca:2d:fd:e0:8c, 2015-01-01 00:14:01.695, 0.987, -0.043, 0.267, -3.052, 0.061, 0.427, -8.729, -74.713, 158.84, -24.667, -9.967, -13.113, 26.59, 0.18918, 0.58493, -0.16751, 0.77063,
 12:27:35.849,e3:ca:2d:fd:e0:8c, 2015-01-01 00:14:01.695, 0.99, -0.043, 0.265, -3.906, 0, 0.244, -8.822, -74.713, 158.851, -24.667, -9.967, -13.113, 26.59, 0.18918, 0.58493, -0.16751, 0.77063,
 12:27:35.849,ed:40:fe:65:30:6c, 2015-01-01 00:14:00.870, 0.629, 0.162, 0.761, -1.77, 0.854, -2.075, 11.766, -39.04, -139.092, -19.773, -13.300, -5.527, 27.39, 0.36157, -0.27811, -0.2074, -0.86533,
 12:27:35.849,ed:40:fe:65:30:6c, 2015-01-01 00:14:00.870, 0.631, 0.164, 0.762, -1.526, 0.671, -1.892, 11.766, -39.018, -139.147, -19.773, -13.300, -5.527, 27.39, 0.36157, -0.27811, -0.2074, -0.86533,
 12:27:35.850,ed:35:33:d3:6c:f8, 2015-01-01 00:14:01.045, 0.779, 0.05, 0.617, -1.953, 2.869, -1.831, 4.208, -51.273, 139.85, -21.293, -10.893, -24.640, 32.38, 0.29144, 0.42007, -0.11792, 0.85123,
 12:27:35.850,ed:35:33:d3:6c:f8, 2015-01-01 00:14:01.045, 0.781, 0.05, 0.621, -1.77, 2.93, -1.526, 4.213, -51.218, 139.807, -21.293, -10.893, -24.640, 32.38, 0.29144, 0.42007, -0.11792, 0.85123,
 12:27:35.851,f6:90:cc:01:6d:25, 2015-01-01 00:14:00.320, 0.922, 0.012, 0.361, -6.653, 1.343, -1.16, -0.137, -68.604, -168.481, -29.887, -10.880, -8.973, 30.8, 0.08432, -0.56149, -0.05817, -0.82104,
 12:27:35.851,f6:90:cc:01:6d:25, 2015-01-01 00:14:00.320, 0.929, -0.02, 0.349, -18.677, 1.099, -0.305, -0.346, -68.582, -168.508, -29.887, -10.880, -8.973, 30.8, 0.08432, -0.56149, -0.05817, -0.82104,
 12:27:35.873,ed:35:33:d3:6c:f8, 2015-01-01 00:14:01.045, 0.786, 0.051, 0.622, -2.014, 2.625, -2.075, 4.219, -51.163, 139.763, -21.293, -10.893, -24.640, 32.38, 0.29144, 0.42007, -0.11792, 0.85123,
 12:27:35.873,ed:35:33:d3:6c:f8, 2015-01-01 00:14:01.045, 0.779, 0.053, 0.62, -2.319, 1.892, -2.686, 4.23, -51.119, 139.708, -21.293, -10.893, -24.640, 32.38, 0.29144, 0.42007, -0.11792, 0.85123,
 12:27:35.894,e3:ca:2d:fd:e0:8c, 2015-01-01 00:14:01.695, 0.988, -0.04, 0.264, -4.639, 0.488, 0.183, -8.915, -74.702, 158.851, -24.667, -9.967, -13.113, 26.59, 0.18918, 0.58493, -0.16751, 0.77063,
 12:27:35.894,e3:ca:2d:fd:e0:8c, 2015-01-01 00:14:01.695, 0.986, -0.042, 0.266, -4.578, 0.977, 0.183, -9.003, -74.685, 158.851, -24.667, -9.967, -13.113, 26.59, 0.18918, 0.58493, -0.16751, 0.77063,
 12:27:35.894,ed:40:fe:65:30:6c, 2015-01-01 00:14:00.870, 0.637, 0.167, 0.764, -1.343, 0.549, -1.831, 11.772, -38.996, -139.202, -19.773, -13.300, -5.527, 27.39, 0.36157, -0.27811, -0.2074, -0.86533,
 12:27:35.894,ed:40:fe:65:30:6c, 2015-01-01 00:14:00.870, 0.637, 0.17, 0.762, -1.343, 0.366, -2.014, 11.777, -38.979, -139.246, -19.773, -13.300, -5.527, 27.39, 0.36157, -0.27811, -0.2074, -0.86533,
 12:27:35.896,f6:90:cc:01:6d:25, 2015-01-01 00:14:00.320, 0.926, 0, 0.362, -9.766, 1.16, -0.427, -0.61, -68.56, -168.503, -29.887, -10.880, -8.973, 30.8, 0.08432, -0.56149, -0.05817, -0.82104,
 12:27:35.896,f6:90:cc:01:6d:25, 2015-01-01 00:14:00.320, 0.918, -0.009, 0.36, -10.193, 1.282, -0.366, -0.78, -68.538, -168.514, -29.887, -10.880, -8.973, 30.8, 0.08432, -0.56149, -0.05817, -0.82104,
 12:27:35.918,ed:40:fe:65:30:6c, 2015-01-01 00:14:00.870, 0.63, 0.168, 0.761, -1.404, 0.427, -2.319, 11.794, -38.963, -139.307, -19.773, -13.300, -5.527, 27.39, 0.36157, -0.27811, -0.2074, -0.86533,
 12:27:35.918,ed:40:fe:65:30:6c, 2015-01-01 00:14:00.870, 0.626, 0.165, 0.761, -1.77, 0.488, -2.686, 11.805, -38.941, -139.378, -19.773, -13.300, -5.527, 27.39, 0.36157, -0.27811, -0.2074, -0.86533,
 12:27:35.919,ed:35:33:d3:6c:f8, 2015-01-01 00:14:01.045, 0.77, 0.05, 0.62, -2.014, 0.854, -2.441, 4.252, -51.092, 139.642, -21.293, -10.893, -24.640, 32.38, 0.29144, 0.42007, -0.11792, 0.85123,
 12:27:35.919,ed:35:33:d3:6c:f8, 2015-01-01 00:14:01.045, 0.775, 0.045, 0.619, -2.014, 0.916, -3.479, 4.29, -51.075, 139.548, -21.293, -10.893, -24.640, 32.38, 0.29144, 0.42007, -0.11792, 0.85123,
 12:27:35.939,e3:ca:2d:fd:e0:8c, 2015-01-01 00:14:01.695, 0.986, -0.045, 0.265, -4.15, 0.793, 0.122, -9.08, -74.669, 158.846, -24.833, -9.833, -13.180, 26.59, 0.18918, 0.58493, -0.16751, 0.77063,
 12:27:35.939,e3:ca:2d:fd:e0:8c, 2015-01-01 00:14:01.695, 0.986, -0.041, 0.265, -4.211, 0.671, 0.061, -9.157, -74.652, 158.829, -24.833, -9.833, -13.180, 26.59, 0.18918, 0.58493, -0.16751, 0.77063,
 12:27:35.941,f6:90:cc:01:6d:25, 2015-01-01 00:14:00.320, 0.914, -0.006, 0.363, -8.789, 1.526, -0.549, -0.945, -68.516, -168.541, -29.887, -10.880, -8.973, 30.8, 0.08432, -0.56149, -0.05817, -0.82104,
 12:27:35.941,f6:90:cc:01:6d:25, 2015-01-01 00:14:00.320, 0.919, 0.007, 0.359, -11.841, 1.465, -0.916, -1.104, -68.489, -168.585, -29.887, -10.880, -8.973, 30.8, 0.08432, -0.56149, -0.05817, -0.82104,
 12:27:35.961,e3:ca:2d:fd:e0:8c, 2015-01-01 00:14:01.695, 0.992, -0.036, 0.262, -5.371, 0.732, 0.183, -9.261, -74.641, 158.829, -24.833, -9.833, -13.180, 26.59, 0.18918, 0.58493, -0.16751, 0.77063,
 12:27:35.961,e3:ca:2d:fd:e0:8c, 2015-01-01 00:14:01.695, 0.992, -0.031, 0.261, -6.348, 1.831, 0.427, -9.382, -74.608, 158.835, -24.833, -9.833, -13.180, 26.59, 0.18918, 0.58493, -0.16751, 0.77063,
 12:27:35.962,ed:40:fe:65:30:6c, 2015-01-01 00:14:00.870, 0.628, 0.163, 0.762, -1.709, 0.061, -2.991, 11.821, -38.925, -139.46, -19.773, -13.300, -5.527, 27.39, 0.36157, -0.27811, -0.2074, -0.86533,
 12:27:35.962,ed:40:fe:65:30:6c, 2015-01-01 00:14:00.870, 0.628, 0.158, 0.76, -1.526, -0.488, -3.479, 11.849, -38.919, -139.554, -19.773, -13.300, -5.527, 27.39, 0.36157, -0.27811, -0.2074, -0.86533,
 12:27:35.963,ed:35:33:d3:6c:f8, 2015-01-01 00:14:01.045, 0.779, 0.045, 0.623, -1.953, 0.732, -4.028, 4.34, -51.053, 139.433, -21.513, -10.527, -25.547, 32.38, 0.29144, 0.42007, -0.11792, 0.85123,
 12:27:35.963,ed:35:33:d3:6c:f8, 2015-01-01 00:14:01.045, 0.772, 0.041, 0.62, -2.747, -0.977, -4.822, 4.406, -51.053, 139.307, -21.513, -10.527, -25.547, 32.38, 0.29144, 0.42007, -0.11792, 0.85123,
 12:27:35.988,f6:90:cc:01:6d:25, 2015-01-01 00:14:00.320, 0.927, 0.005, 0.353, -20.996, 1.038, -0.793, -1.373, -68.467, -168.624, -29.887, -10.880, -8.973, 30.8, 0.08432, -0.56149, -0.05817, -0.82104,
 12:27:35.988,f6:90:cc:01:6d:25, 2015-01-01 00:14:00.320, 0.924, 0.009, 0.363, -19.226, 1.16, -0.549, -1.719, -68.445, -168.657, -29.887, -10.880, -8.973, 30.8, 0.08432, -0.56149, -0.05817, -0.82104,
 12:27:36.006,e3:ca:2d:fd:e0:8c, 2015-01-01 00:14:01.695, 0.984, -0.03, 0.27, -6.836, 2.808, 1.221, -9.558, -74.548, 158.862, -24.833, -9.833, -13.180, 26.59, 0.18918, 0.58493, -0.16751, 0.77063,
 12:27:36.006,e3:ca:2d:fd:e0:8c, 2015-01-01 00:14:01.695, 0.986, -0.033, 0.274, -7.446, 2.686, 1.831, -9.783, -74.493, 158.934, -24.833, -9.833, -13.180, 26.59, 0.18918, 0.58493, -0.16751, 0.77063,
 12:27:36.007,ed:40:fe:65:30:6c, 2015-01-01 00:14:00.870, 0.624, 0.17, 0.758, -1.526, -0.122, -4.761, 11.893, -38.908, -139.669, -19.773, -13.300, -5.527, 27.39, 0.36157, -0.27811, -0.2074, -0.86533,
 12:27:36.008,ed:40:fe:65:30:6c, 2015-01-01 00:14:00.870, 0.621, 0.191, 0.765, -0.549, -0.244, -6.531, 11.992, -38.886, -139.839, -19.773, -13.300, -5.527, 27.39, 0.36157, -0.27811, -0.2074, -0.86533,
 12:27:36.010,ed:35:33:d3:6c:f8, 2015-01-01 00:14:01.045, 0.771, 0.05, 0.618, -6.104, -2.258, -5.798, 4.449, -51.081, 139.147, -21.513, -10.527, -25.547, 32.38, 0.29144, 0.42007, -0.11792, 0.85123,
 12:27:36.010,ed:35:33:d3:6c:f8, 2015-01-01 00:14:01.045, 0.771, 0.069, 0.623, -3.296, -1.038, -8.423, 4.537, -51.108, 138.928, -21.513, -10.527, -25.547, 32.38, 0.29144, 0.42007, -0.11792, 0.85123,
 12:27:36.032,f6:90:cc:01:6d:25, 2015-01-01 00:14:00.320, 0.925, 0.026, 0.373, -17.395, 1.953, -0.244, -2.032, -68.417, -168.69, -29.373, -10.280, -9.747, 30.8, 0.08432, -0.56149, -0.05817, -0.82104,
 12:27:36.032,f6:90:cc:01:6d:25, 2015-01-01 00:14:00.320, 0.918, 0.006, 0.372, -18.982, 2.441, -0.183, -2.351, -68.373, -168.75, -29.373, -10.280, -9.747, 30.8, 0.08432, -0.56149, -0.05817, -0.82104,
 12:27:36.055,f6:90:cc:01:6d:25, 2015-01-01 00:14:00.320, 0.913, -0.017, 0.358, -16.418, 2.991, -0.244, -2.637, -68.318, -168.805, -29.373, -10.280, -9.747, 30.8, 0.06738, -0.56046, -0.03522, -0.82465,
 12:27:36.055,f6:90:cc:01:6d:25, 2015-01-01 00:14:00.320, 0.919, -0.03, 0.36, -15.503, 2.747, -0.305, -2.895, -68.264, -168.865, -29.373, -10.280, -9.747, 30.8, 0.06738, -0.56046, -0.03522, -0.82465,
 12:27:36.075,ed:40:fe:65:30:6c, 2015-01-01 00:14:00.870, 0.618, 0.19, 0.772, -0.854, -0.488, -7.874, 12.107, -38.859, -140.037, -19.900, -13.427, -6.280, 27.39, 0.36157, -0.27811, -0.2074, -0.86533,
 12:27:36.075,ed:40:fe:65:30:6c, 2015-01-01 00:14:00.870, 0.621, 0.181, 0.769, -2.747, -0.366, -8.118, 12.189, -38.831, -140.246, -19.900, -13.427, -6.280, 27.39, 0.36157, -0.27811, -0.2074, -0.86533,
 12:27:36.076,ed:35:33:d3:6c:f8, 2015-01-01 00:14:01.045, 0.771, 0.071, 0.625, -3.235, -0.122, -9.766, 4.697, -51.103, 138.658, -21.513, -10.527, -25.547, 32.38, 0.3002, 0.41614, -0.11774, 0.85013,
 12:27:36.076,ed:35:33:d3:6c:f8, 2015-01-01 00:14:01.045, 0.778, 0.07, 0.624, -4.333, 1.099, -8.118, 4.845, -51.081, 138.384, -21.513, -10.527, -25.547, 32.38, 0.3002, 0.41614, -0.11774, 0.85013,
 12:27:36.095,e3:ca:2d:fd:e0:8c, 2015-01-01 00:14:01.695, 0.984, -0.042, 0.279, -7.935, 2.136, 2.075, -10.036, -74.449, 159.033, -24.833, -9.833, -13.180, 26.59, 0.19537, 0.58078, -0.17642, 0.77023,
 12:27:36.095,e3:ca:2d:fd:e0:8c, 2015-01-01 00:14:01.695, 0.981, -0.043, 0.271, -8.423, 1.831, 1.831, -10.283, -74.405, 159.12, -24.833, -9.833, -13.180, 26.59, 0.19537, 0.58078, -0.17642, 0.77023,
 12:27:36.096,ed:40:fe:65:30:6c, 2015-01-01 00:14:00.870, 0.623, 0.175, 0.769, -4.517, -0.549, -7.812, 12.233, -38.804, -140.449, -19.900, -13.427, -6.280, 27.39, 0.35059, -0.27682, -0.20633, -0.87051,
 12:27:36.096,ed:40:fe:65:30:6c, 2015-01-01 00:14:00.870, 0.616, 0.171, 0.766, -5.676, -0.244, -7.446, 12.244, -38.771, -140.636, -19.900, -13.427, -6.280, 27.39, 0.35059, -0.27682, -0.20633, -0.87051,
 12:27:36.098,ed:35:33:d3:6c:f8, 2015-01-01 00:14:01.405, 0.764, 0.063, 0.633, -4.395, 0.549, -7.507, 4.955, -51.053, 138.148, -21.513, -10.527, -25.547, 32.38, 0.3002, 0.41614, -0.11774, 0.85013,
 12:27:36.098,ed:35:33:d3:6c:f8, 2015-01-01 00:14:01.405, 0.762, 0.055, 0.625, -6.409, -0.427, -6.226, 5.021, -51.037, 137.933, -21.513, -10.527, -25.547, 32.38, 0.3002, 0.41614, -0.11774, 0.85013,
 12:27:36.099,f6:90:cc:01:6d:25, 2015-01-01 00:14:00.320, 0.915, -0.026, 0.371, -14.16, 2.808, -0.793, -3.12, -68.214, -168.931, -29.373, -10.280, -9.747, 30.8, 0.06738, -0.56046, -0.03522, -0.82465,
 12:27:36.099,f6:90:cc:01:6d:25, 2015-01-01 00:14:00.320, 0.908, -0.023, 0.381, -13.916, 2.747, -1.099, -3.318, -68.159, -169.003, -29.373, -10.280, -9.747, 30.8, 0.06738, -0.56046, -0.03522, -0.82465,
 12:27:36.118,e3:ca:2d:fd:e0:8c, 2015-01-01 00:14:02.075, 0.98, -0.041, 0.271, -8.301, 2.075, 1.099, -10.475, -74.366, 159.126, -24.833, -9.833, -13.180, 26.59, 0.19537, 0.58078, -0.17642, 0.77023,
 12:27:36.118,e3:ca:2d:fd:e0:8c, 2015-01-01 00:14:02.075, 0.979, -0.044, 0.275, -7.08, 2.319, 0.977, -10.624, -74.317, 159.137, -24.833, -9.833, -13.180, 26.59, 0.19537, 0.58078, -0.17642, 0.77023,
 12:27:36.121,ed:35:33:d3:6c:f8, 2015-01-01 00:14:01.405, 0.765, 0.052, 0.624, -6.104, 0.427, -7.568, 5.07, -51.026, 137.725, -21.513, -10.527, -25.547, 32.38, 0.3002, 0.41614, -0.11774, 0.85013,
 12:27:36.121,ed:35:33:d3:6c:f8, 2015-01-01 00:14:01.405, 0.77, 0.05, 0.623, -5.127, 1.404, -7.08, 5.136, -50.993, 137.521, -21.513, -10.527, -25.547, 32.38, 0.3002, 0.41614, -0.11774, 0.85013,
 12:27:36.141,e3:ca:2d:fd:e0:8c, 2015-01-01 00:14:02.075, 0.978, -0.045, 0.281, -6.775, 1.953, 1.587, -10.816, -74.273, 159.214, -24.833, -9.833, -13.180, 26.59, 0.19537, 0.58078, -0.17642, 0.77023,
 12:27:36.141,e3:ca:2d:fd:e0:8c, 2015-01-01 00:14:02.075, 0.977, -0.047, 0.281, -7.446, 1.099, 2.075, -11.069, -74.246, 159.313, -24.833, -9.833, -13.180, 26.59, 0.19537, 0.58078, -0.17642, 0.77023,
 12:27:36.142,ed:40:fe:65:30:6c, 2015-01-01 00:14:00.870, 0.616, 0.168, 0.767, -6.165, -0.061, -7.385, 12.244, -38.738, -140.812, -19.900, -13.427, -6.280, 27.39, 0.35059, -0.27682, -0.20633, -0.87051,
 12:27:36.142,ed:40:fe:65:30:6c, 2015-01-01 00:14:00.870, 0.619, 0.16, 0.765, -5.432, 0.244, -7.202, 12.25, -38.699, -140.982, -19.900, -13.427, -6.280, 27.39, 0.35059, -0.27682, -0.20633, -0.87051,
 12:27:36.144,f6:90:cc:01:6d:25, 2015-01-01 00:14:00.610, 0.909, -0.034, 0.381, -12.878, 2.991, -1.465, -3.488, -68.104, -169.08, -29.373, -10.280, -9.747, 30.8, 0.06738, -0.56046, -0.03522, -0.82465,
 12:27:36.144,f6:90:cc:01:6d:25, 2015-01-01 00:14:00.610, 0.911, -0.042, 0.377, -11.719, 2.686, -1.77, -3.625, -68.049, -169.156, -29.373, -10.280, -9.747, 30.8, 0.06738, -0.56046, -0.03522, -0.82465,
 12:27:36.165,ed:40:fe:65:30:6c, 2015-01-01 00:14:01.230, 0.619, 0.161, 0.769, -3.54, 0.61, -6.531, 12.283, -38.655, -141.136, -19.900, -13.427, -6.280, 27.39, 0.35059, -0.27682, -0.20633, -0.87051,
 12:27:36.165,ed:40:fe:65:30:6c, 2015-01-01 00:14:01.230, 0.617, 0.163, 0.771, -1.404, 1.099, -5.432, 12.338, -38.606, -141.246, -19.900, -13.427, -6.280, 27.39, 0.35059, -0.27682, -0.20633, -0.87051,
 12:27:36.165,e3:ca:2d:fd:e0:8c, 2015-01-01 00:14:02.075, 0.98, -0.05, 0.277, -7.568, 0.122, 1.587, -11.299, -74.235, 159.39, -24.833, -9.833, -13.180, 26.59, 0.19537, 0.58078, -0.17642, 0.77023,
 12:27:36.165,e3:ca:2d:fd:e0:8c, 2015-01-01 00:14:02.075, 0.984, -0.062, 0.271, -5.798, -0.183, 1.16, -11.475, -74.235, 159.445, -24.833, -9.833, -13.180, 26.59, 0.19537, 0.58078, -0.17642, 0.77023,
 12:27:36.166,ed:35:33:d3:6c:f8, 2015-01-01 00:14:01.405, 0.773, 0.058, 0.629, -3.479, 1.831, -6.897, 5.219, -50.949, 137.351, -21.513, -10.527, -25.547, 32.38, 0.3002, 0.41614, -0.11774, 0.85013,
 12:27:36.166,ed:35:33:d3:6c:f8, 2015-01-01 00:14:01.405, 0.771, 0.06, 0.635, -0.916, 0.977, -4.7, 5.312, -50.905, 137.225, -21.513, -10.527, -25.547, 32.38, 0.3002, 0.41614, -0.11774, 0.85013,
 12:27:36.190,f6:90:cc:01:6d:25, 2015-01-01 00:14:00.610, 0.915, -0.048, 0.375, -8.545, 1.892, -1.77, -3.713, -68.005, -169.217, -29.373, -10.280, -9.747, 30.8, 0.06738, -0.56046, -0.03522, -0.82465,
 12:27:36.190,f6:90:cc:01:6d:25, 2015-01-01 00:14:00.610, 0.915, -0.062, 0.373, -4.211, 1.77, -1.831, -3.73, -67.972, -169.277, -29.373, -10.280, -9.747, 30.8, 0.06738, -0.56046, -0.03522, -0.82465,
 12:27:36.209,e3:ca:2d:fd:e0:8c, 2015-01-01 00:14:02.075, 0.988, -0.073, 0.271, -2.38, -0.427, 1.221, -11.602, -74.235, 159.521, -24.833, -9.833, -13.180, 26.59, 0.19537, 0.58078, -0.17642, 0.77023,
 12:27:36.209,e3:ca:2d:fd:e0:8c, 2015-01-01 00:14:02.075, 0.984, -0.067, 0.268, -0.488, -0.671, 1.465, -11.717, -74.246, 159.626, -24.833, -9.833, -13.180, 26.59, 0.19537, 0.58078, -0.17642, 0.77023,
 12:27:36.210,ed:40:fe:65:30:6c, 2015-01-01 00:14:01.230, 0.623, 0.164, 0.776, -1.099, 0.854, -4.517, 12.382, -38.568, -141.339, -19.900, -13.427, -6.280, 27.39, 0.35059, -0.27682, -0.20633, -0.87051,
 12:27:36.210,ed:40:fe:65:30:6c, 2015-01-01 00:14:01.230, 0.619, 0.161, 0.776, -1.282, 0.61, -3.174, 12.398, -38.54, -141.416, -19.900, -13.427, -6.280, 27.39, 0.35059, -0.27682, -0.20633, -0.87051,
 12:27:36.212,ed:35:33:d3:6c:f8, 2015-01-01 00:14:01.405, 0.775, 0.062, 0.635, -1.648, 1.465, -4.578, 5.394, -50.872, 137.126, -21.513, -10.527, -25.547, 32.38, 0.3002, 0.41614, -0.11774, 0.85013,
 12:27:36.212,ed:35:33:d3:6c:f8, 2015-01-01 00:14:01.405, 0.771, 0.059, 0.627, -1.404, 2.197, -3.052, 5.449, -50.828, 137.071, -21.513, -10.527, -25.547, 32.38, 0.3002, 0.41614, -0.11774, 0.85013,
 12:27:36.234,f6:90:cc:01:6d:25, 2015-01-01 00:14:00.610, 0.912, -0.051, 0.372, -0.061, 1.77, -2.258, -3.658, -67.939, -169.332, -29.373, -10.280, -9.747, 30.8, 0.06738, -0.56046, -0.03522, -0.82465,
 12:27:36.234,f6:90:cc:01:6d:25, 2015-01-01 00:14:00.610, 0.91, -0.031, 0.36, 1.343, 0.427, -2.38, -3.543, -67.923, -169.398, -29.373, -10.280, -9.747, 30.8, 0.06738, -0.56046, -0.03522, -0.82465,
 12:27:36.253,e3:ca:2d:fd:e0:8c, 2015-01-01 00:14:02.075, 0.988, -0.064, 0.258, -1.038, -0.305, 1.526, -11.843, -74.246, 159.73, -24.833, -9.833, -13.180, 26.59, 0.19537, 0.58078, -0.17642, 0.77023,
 12:27:36.253,e3:ca:2d:fd:e0:8c, 2015-01-01 00:14:02.075, 0.988, -0.072, 0.267, -1.831, 0.183, 0.305, -11.942, -74.235, 159.78, -24.833, -9.833, -13.180, 26.59, 0.19537, 0.58078, -0.17642, 0.77023,
 12:27:36.254,ed:40:fe:65:30:6c, 2015-01-01 00:14:01.230, 0.618, 0.167, 0.766, 0, 1.16, -2.075, 12.426, -38.502, -141.46, -19.900, -13.427, -6.280, 27.39, 0.35059, -0.27682, -0.20633, -0.87051,
 12:27:36.254,ed:40:fe:65:30:6c, 2015-01-01 00:14:01.230, 0.625, 0.177, 0.76, 1.648, 0, -1.221, 12.475, -38.496, -141.493, -19.900, -13.427, -6.280, 27.39, 0.35059, -0.27682, -0.20633, -0.87051,
 12:27:36.257,f6:90:cc:01:6d:25, 2015-01-01 00:14:00.610, 0.918, -0.026, 0.356, 0.854, -0.061, -2.014, -3.444, -67.928, -169.481, -29.373, -10.280, -9.747, 30.8, 0.06738, -0.56046, -0.03522, -0.82465,
 12:27:36.257,f6:90:cc:01:6d:25, 2015-01-01 00:14:00.610, 0.927, -0.033, 0.36, 0, 0.305, -1.343, -3.384, -67.923, -169.525, -29.373, -10.280, -9.747, 30.8, 0.06738, -0.56046, -0.03522, -0.82465,
 12:27:36.279,ed:35:33:d3:6c:f8, 2015-01-01 00:14:01.405, 0.769, 0.064, 0.621, -3.113, 1.831, 0.427, 5.427, -50.784, 137.087, -21.513, -10.527, -25.547, 32.38, 0.3002, 0.41614, -0.11774, 0.85013,
 12:27:36.279,ed:35:33:d3:6c:f8, 2015-01-01 00:14:01.405, 0.781, 0.071, 0.622, 1.099, 1.465, -1.892, 5.422, -50.751, 137.137, -21.513, -10.527, -25.547, 32.38, 0.3002, 0.41614, -0.11774, 0.85013,
 12:27:36.299,ed:40:fe:65:30:6c, 2015-01-01 00:14:01.230, 0.637, 0.178, 0.758, 1.526, -0.793, -0.732, 12.519, -38.507, -141.509, -19.900, -13.427, -6.280, 27.39, 0.35059, -0.27682, -0.20633, -0.87051,
 12:27:36.299,ed:40:fe:65:30:6c, 2015-01-01 00:14:01.230, 0.637, 0.177, 0.761, 0.488, -0.61, -0.671, 12.541, -38.513, -141.52, -19.900, -13.427, -6.280, 27.39, 0.35059, -0.27682, -0.20633, -0.87051,
 12:27:36.299,e3:ca:2d:fd:e0:8c, 2015-01-01 00:14:02.075, 0.989, -0.066, 0.271, 0, -0.061, 0, -11.992, -74.235, 159.807, -24.833, -9.833, -13.180, 26.59, 0.19537, 0.58078, -0.17642, 0.77023,
 12:27:36.300,e3:ca:2d:fd:e0:8c, 2015-01-01 00:14:02.075, 0.987, -0.062, 0.269, 0.977, 0.122, 0.061, -12.003, -74.235, 159.835, -24.833, -9.833, -13.180, 26.59, 0.19537, 0.58078, -0.17642, 0.77023,
 12:27:36.302,ed:35:33:d3:6c:f8, 2015-01-01 00:14:01.405, 0.785, 0.066, 0.617, 0.916, 1.343, -0.244, 5.471, -50.718, 137.164, -21.307, -11.300, -25.513, 32.38, 0.3002, 0.41614, -0.11774, 0.85013,
 12:27:36.302,ed:35:33:d3:6c:f8, 2015-01-01 00:14:01.405, 0.779, 0.06, 0.617, -0.366, 0.427, -0.427, 5.482, -50.707, 137.192, -21.307, -11.300, -25.513, 32.38, 0.3002, 0.41614, -0.11774, 0.85013,
 12:27:36.302,f6:90:cc:01:6d:25, 2015-01-01 00:14:00.610, 0.927, -0.039, 0.366, 0.183, 1.221, -0.854, -3.356, -67.906, -169.53, -29.373, -10.280, -9.747, 30.8, 0.06738, -0.56046, -0.03522, -0.82465,
 12:27:36.302,f6:90:cc:01:6d:25, 2015-01-01 00:14:00.610, 0.916, -0.034, 0.364, 2.625, 1.709, -0.793, -3.296, -67.879, -169.536, -29.373, -10.280, -9.747, 30.8, 0.06738, -0.56046, -0.03522, -0.82465,
 12:27:36.345,ed:40:fe:65:30:6c, 2015-01-01 00:14:01.230, 0.627, 0.17, 0.765, -0.061, 0.366, -0.671, 12.552, -38.507, -141.537, -19.900, -13.427, -6.280, 27.39, 0.35059, -0.27682, -0.20633, -0.87051,
 12:27:36.345,ed:40:fe:65:30:6c, 2015-01-01 00:14:01.230, 0.617, 0.165, 0.761, 0.183, 0.793, -0.671, 12.563, -38.491, -141.537, -19.900, -13.427, -6.280, 27.39, 0.35059, -0.27682, -0.20633, -0.87051,
 12:27:36.346,ed:35:33:d3:6c:f8, 2015-01-01 00:14:01.405, 0.77, 0.053, 0.619, -0.366, 0, -0.366, 5.488, -50.702, 137.192, -21.307, -11.300, -25.513, 32.38, 0.3002, 0.41614, -0.11774, 0.85013,
 12:27:36.346,ed:35:33:d3:6c:f8, 2015-01-01 00:14:01.405, 0.765, 0.055, 0.622, -0.427, 0, -1.038, 5.499, -50.707, 137.192, -21.307, -11.300, -25.513, 32.38, 0.3002, 0.41614, -0.11774, 0.85013,
 12:27:36.347,f6:90:cc:01:6d:25, 2015-01-01 00:14:00.610, 0.907, -0.027, 0.364, 3.479, 1.343, -1.038, -3.203, -67.857, -169.568, -29.827, -9.853, -9.960, 30.8, 0.06738, -0.56046, -0.03522, -0.82465,
 12:27:36.347,f6:90:cc:01:6d:25, 2015-01-01 00:14:00.610, 0.902, -0.02, 0.361, 2.869, -0.061, -1.221, -3.104, -67.857, -169.612, -29.827, -9.853, -9.960, 30.8, 0.06738, -0.56046, -0.03522, -0.82465,
 12:27:36.366,e3:ca:2d:fd:e0:8c, 2015-01-01 00:14:02.075, 0.981, -0.057, 0.262, 0.244, 0.488, 0.183, -11.997, -74.235, 159.862, -24.733, -9.367, -13.600, 26.59, 0.19537, 0.58078, -0.17642, 0.77023,
 12:27:36.366,e3:ca:2d:fd:e0:8c, 2015-01-01 00:14:02.075, 0.98, -0.062, 0.257, -1.526, 0.793, 0.061, -12.014, -74.224, 159.884, -24.733, -9.367, -13.600, 26.59, 0.19537, 0.58078, -0.17642, 0.77023,
 12:27:36.367,ed:40:fe:65:30:6c, 2015-01-01 00:14:01.230, 0.611, 0.171, 0.76, 0.61, 0.122, -0.427, 12.579, -38.485, -141.537, -19.593, -13.780, -5.647, 27.39, 0.35059, -0.27682, -0.20633, -0.87051,
 12:27:36.367,ed:40:fe:65:30:6c, 2015-01-01 00:14:01.230, 0.611, 0.178, 0.76, 0.549, -0.366, -0.122, 12.596, -38.491, -141.537, -19.593, -13.780, -5.647, 27.39, 0.35059, -0.27682, -0.20633, -0.87051,
 12:27:36.368,ed:35:33:d3:6c:f8, 2015-01-01 00:14:01.405, 0.76, 0.066, 0.623, -0.122, 0.061, -0.488, 5.51, -50.713, 137.181, -21.307, -11.300, -25.513, 32.38, 0.31027, 0.41406, -0.11569, 0.84781,
 12:27:36.368,ed:35:33:d3:6c:f8, 2015-01-01 00:14:01.405, 0.765, 0.071, 0.626, 0.549, 0.366, -0.122, 5.521, -50.707, 137.192, -21.307, -11.300, -25.513, 32.38, 0.31027, 0.41406, -0.11569, 0.84781,
 12:27:36.389,e3:ca:2d:fd:e0:8c, 2015-01-01 00:14:02.075, 0.986, -0.065, 0.255, -2.991, 0.61, -0.366, -12.052, -74.213, 159.89, -24.733, -9.367, -13.600, 26.59, 0.20087, 0.57608, -0.18723, 0.76981,
 12:27:36.389,e3:ca:2d:fd:e0:8c, 2015-01-01 00:14:02.075, 0.98, -0.055, 0.267, -3.54, 0.61, -0.427, -12.09, -74.207, 159.884, -24.733, -9.367, -13.600, 26.59, 0.20087, 0.57608, -0.18723, 0.76981,
 12:27:36.392,f6:90:cc:01:6d:25, 2015-01-01 00:14:00.610, 0.907, -0.022, 0.36, 0.671, -0.305, -1.282, -3.049, -67.868, -169.656, -29.827, -9.853, -9.960, 30.8, 0.05991, -0.55777, -0.02826, -0.8273,
 12:27:36.392,f6:90:cc:01:6d:25, 2015-01-01 00:14:00.610, 0.914, -0.02, 0.365, 0.549, -0.854, -1.16, -2.999, -67.89, -169.706, -29.827, -9.853, -9.960, 30.8, 0.05991, -0.55777, -0.02826, -0.8273,
 12:27:36.413,ed:40:fe:65:30:6c, 2015-01-01 00:14:01.230, 0.616, 0.178, 0.762, 0.366, -1.099, 0, 12.607, -38.513, -141.526, -19.593, -13.780, -5.647, 27.39, 0.35059, -0.27682, -0.20633, -0.87051,
 12:27:36.413,ed:40:fe:65:30:6c, 2015-01-01 00:14:01.230, 0.625, 0.181, 0.768, -0.244, -1.465, -0.122, 12.612, -38.54, -141.52, -19.593, -13.780, -5.647, 27.39, 0.35059, -0.27682, -0.20633, -0.87051,
 12:27:36.416,f6:90:cc:01:6d:25, 2015-01-01 00:14:00.925, 0.916, -0.018, 0.38, -0.305, 0, -1.038, -2.972, -67.896, -169.728, -29.827, -9.853, -9.960, 30.8, 0.05991, -0.55777, -0.02826, -0.8273,
 12:27:36.416,f6:90:cc:01:6d:25, 2015-01-01 00:14:00.925, 0.917, -0.019, 0.382, -1.526, 0.61, -1.221, -2.95, -67.885, -169.761, -29.827, -9.853, -9.960, 30.8, 0.05991, -0.55777, -0.02826, -0.8273,
 12:27:36.416,ed:35:33:d3:6c:f8, 2015-01-01 00:14:01.405, 0.771, 0.066, 0.625, 0.61, 0.366, 0.549, 5.532, -50.702, 137.208, -21.307, -11.300, -25.513, 32.38, 0.31027, 0.41406, -0.11569, 0.84781,
 12:27:36.416,ed:35:33:d3:6c:f8, 2015-01-01 00:14:01.405, 0.772, 0.067, 0.626, -0.488, 1.343, 0.244, 5.521, -50.691, 137.23, -21.307, -11.300, -25.513, 32.38, 0.31027, 0.41406, -0.11569, 0.84781,
 12:27:36.434,e3:ca:2d:fd:e0:8c, 2015-01-01 00:14:02.075, 0.98, -0.065, 0.286, -4.028, 0.061, -0.549, -12.134, -74.207, 159.873, -24.733, -9.367, -13.600, 26.59, 0.20087, 0.57608, -0.18723, 0.76981,
 12:27:36.434,e3:ca:2d:fd:e0:8c, 2015-01-01 00:14:02.075, 0.983, -0.064, 0.28, -6.592, -0.244, -1.16, -12.189, -74.213, 159.868, -24.733, -9.367, -13.600, 26.59, 0.20087, 0.57608, -0.18723, 0.76981,
 12:27:36.456,e3:ca:2d:fd:e0:8c, 2015-01-01 00:14:02.435, 0.977, -0.054, 0.266, -8.789, -0.366, -1.526, -12.255, -74.224, 159.835, -24.733, -9.367, -13.600, 26.59, 0.20087, 0.57608, -0.18723, 0.76981,
 12:27:36.456,e3:ca:2d:fd:e0:8c, 2015-01-01 00:14:02.435, 0.971, -0.06, 0.271, -9.521, -0.122, -2.136, -12.332, -74.235, 159.758, -24.733, -9.367, -13.600, 26.59, 0.20087, 0.57608, -0.18723, 0.76981,
 12:27:36.458,ed:35:33:d3:6c:f8, 2015-01-01 00:14:01.740, 0.763, 0.062, 0.63, -0.854, 1.282, 0.671, 5.499, -50.663, 137.252, -21.307, -11.300, -25.513, 32.38, 0.31027, 0.41406, -0.11569, 0.84781,
 12:27:36.458,ed:35:33:d3:6c:f8, 2015-01-01 00:14:01.740, 0.761, 0.061, 0.638, -1.343, 1.282, 0.427, 5.466, -50.641, 137.263, -21.307, -11.300, -25.513, 32.38, 0.31027, 0.41406, -0.11569, 0.84781,
 12:27:36.459,f6:90:cc:01:6d:25, 2015-01-01 00:14:00.925, 0.91, -0.017, 0.373, -5.31, 0.061, -1.465, -2.994, -67.885, -169.805, -29.827, -9.853, -9.960, 30.8, 0.05991, -0.55777, -0.02826, -0.8273,
 12:27:36.459,f6:90:cc:01:6d:25, 2015-01-01 00:14:00.925, 0.906, -0.023, 0.37, -7.263, -0.793, -1.587, -3.065, -67.901, -169.865, -29.827, -9.853, -9.960, 30.8, 0.05991, -0.55777, -0.02826, -0.8273,
 12:27:36.480,ed:40:fe:65:30:6c, 2015-01-01 00:14:01.230, 0.621, 0.179, 0.771, -0.977, -1.038, -0.427, 12.607, -38.557, -141.52, -19.593, -13.780, -5.647, 27.39, 0.34338, -0.27548, -0.20596, -0.87387,
 12:27:36.480,ed:40:fe:65:30:6c, 2015-01-01 00:14:01.230, 0.611, 0.176, 0.771, -2.014, -0.183, -0.732, 12.585, -38.551, -141.515, -19.593, -13.780, -5.647, 27.39, 0.34338, -0.27548, -0.20596, -0.87387,
 12:27:36.481,ed:35:33:d3:6c:f8, 2015-01-01 00:14:01.740, 0.755, 0.062, 0.638, -2.808, 0.793, 0.305, 5.416, -50.625, 137.28, -21.307, -11.300, -25.513, 32.38, 0.31027, 0.41406, -0.11569, 0.84781,
 12:27:36.481,ed:35:33:d3:6c:f8, 2015-01-01 00:14:01.740, 0.756, 0.061, 0.632, -4.272, 0.671, 0.122, 5.339, -50.609, 137.296, -21.307, -11.300, -25.513, 32.38, 0.31027, 0.41406, -0.11569, 0.84781,
 12:27:36.501,e3:ca:2d:fd:e0:8c, 2015-01-01 00:14:02.435, 0.972, -0.062, 0.281, -9.399, 0.244, -2.136, -12.376, -74.246, 159.653, -24.733, -9.367, -13.600, 26.59, 0.20087, 0.57608, -0.18723, 0.76981,
 12:27:36.501,e3:ca:2d:fd:e0:8c, 2015-01-01 00:14:02.435, 0.98, -0.059, 0.281, -10.681, 0.549, -2.441, -12.415, -74.246, 159.532, -24.733, -9.367, -13.600, 26.59, 0.20087, 0.57608, -0.18723, 0.76981,
 12:27:36.502,ed:40:fe:65:30:6c, 2015-01-01 00:14:01.565, 0.607, 0.176, 0.771, -3.54, -0.549, -1.16, 12.535, -38.557, -141.526, -19.593, -13.780, -5.647, 27.39, 0.34338, -0.27548, -0.20596, -0.87387,
 12:27:36.502,ed:40:fe:65:30:6c, 2015-01-01 00:14:01.565, 0.608, 0.175, 0.771, -5.066, -1.099, -1.587, 12.469, -38.562, -141.564, -19.593, -13.780, -5.647, 27.39, 0.34338, -0.27548, -0.20596, -0.87387,
 12:27:36.504,f6:90:cc:01:6d:25, 2015-01-01 00:14:00.925, 0.902, -0.025, 0.375, -7.69, -0.427, -1.587, -3.148, -67.912, -169.931, -29.827, -9.853, -9.960, 30.8, 0.05991, -0.55777, -0.02826, -0.8273,
 12:27:36.504,f6:90:cc:01:6d:25, 2015-01-01 00:14:00.925, 0.903, -0.025, 0.376, -7.385, 0, -1.648, -3.224, -67.912, -169.991, -29.827, -9.853, -9.960, 30.8, 0.05991, -0.55777, -0.02826, -0.8273,
 12:27:36.523,e3:ca:2d:fd:e0:8c, 2015-01-01 00:14:02.435, 0.978, -0.056, 0.274, -11.23, 0.366, -2.869, -12.448, -74.246, 159.395, -24.733, -9.367, -13.600, 26.59, 0.20087, 0.57608, -0.18723, 0.76981,
 12:27:36.523,e3:ca:2d:fd:e0:8c, 2015-01-01 00:14:02.435, 0.98, -0.075, 0.264, -8.118, -0.061, -3.418, -12.442, -74.251, 159.214, -24.733, -9.367, -13.600, 26.59, 0.20087, 0.57608, -0.18723, 0.76981,
 12:27:36.525,ed:40:fe:65:30:6c, 2015-01-01 00:14:01.565, 0.611, 0.171, 0.766, -6.104, -1.282, -1.953, 12.387, -38.573, -141.619, -19.593, -13.780, -5.647, 27.39, 0.34338, -0.27548, -0.20596, -0.87387,
 12:27:36.525,ed:40:fe:65:30:6c, 2015-01-01 00:14:01.565, 0.62, 0.167, 0.766, -6.714, -1.282, -2.014, 12.294, -38.584, -141.669, -19.593, -13.780, -5.647, 27.39, 0.34338, -0.27548, -0.20596, -0.87387,
 12:27:36.527,ed:35:33:d3:6c:f8, 2015-01-01 00:14:01.740, 0.76, 0.059, 0.629, -5.127, 0.916, -0.061, 5.246, -50.587, 137.329, -21.307, -11.300, -25.513, 32.38, 0.31027, 0.41406, -0.11569, 0.84781,
 12:27:36.527,ed:35:33:d3:6c:f8, 2015-01-01 00:14:01.740, 0.767, 0.056, 0.629, -5.249, 0.732, 0.305, 5.147, -50.57, 137.368, -21.307, -11.300, -25.513, 32.38, 0.31027, 0.41406, -0.11569, 0.84781,
 12:27:36.550,f6:90:cc:01:6d:25, 2015-01-01 00:14:00.925, 0.914, -0.026, 0.375, -8.972, 0.122, -1.892, -3.312, -67.906, -170.063, -29.827, -9.853, -9.960, 30.8, 0.05991, -0.55777, -0.02826, -0.8273,
 12:27:36.550,f6:90:cc:01:6d:25, 2015-01-01 00:14:00.925, 0.913, -0.045, 0.374, -8.179, 0.488, -1.831, -3.395, -67.896, -170.118, -29.827, -9.853, -9.960, 30.8, 0.05991, -0.55777, -0.02826, -0.8273,
 12:27:36.570,e3:ca:2d:fd:e0:8c, 2015-01-01 00:14:02.435, 0.986, -0.075, 0.267, -5.066, -0.122, -3.296, -12.36, -74.262, 159.016, -24.733, -9.367, -13.600, 26.59, 0.20087, 0.57608, -0.18723, 0.76981,
 12:27:36.570,e3:ca:2d:fd:e0:8c, 2015-01-01 00:14:02.435, 0.988, -0.061, 0.267, -4.761, -0.122, -2.686, -12.261, -74.279, 158.829, -24.733, -9.367, -13.600, 26.59, 0.20087, 0.57608, -0.18723, 0.76981,
 12:27:36.570,ed:40:fe:65:30:6c, 2015-01-01 00:14:01.565, 0.622, 0.165, 0.771, -6.714, -1.343, -1.892, 12.195, -38.595, -141.718, -19.593, -13.780, -5.647, 27.39, 0.34338, -0.27548, -0.20596, -0.87387,
 12:27:36.570,ed:40:fe:65:30:6c, 2015-01-01 00:14:01.565, 0.613, 0.157, 0.774, -6.531, -0.305, -1.404, 12.096, -38.589, -141.729, -19.593, -13.780, -5.647, 27.39, 0.34338, -0.27548, -0.20596, -0.87387,
 12:27:36.571,ed:35:33:d3:6c:f8, 2015-01-01 00:14:01.740, 0.765, 0.053, 0.636, -5.371, 0.305, 0.061, 5.037, -50.559, 137.395, -21.307, -11.300, -25.513, 32.38, 0.31027, 0.41406, -0.11569, 0.84781,
 12:27:36.571,ed:35:33:d3:6c:f8, 2015-01-01 00:14:01.740, 0.764, 0.049, 0.633, -5.005, -0.732, 0.305, 4.933, -50.559, 137.444, -21.307, -11.300, -25.513, 32.38, 0.31027, 0.41406, -0.11569, 0.84781,
 12:27:36.595,f6:90:cc:01:6d:25, 2015-01-01 00:14:00.925, 0.909, -0.046, 0.372, -4.761, -0.122, -2.014, -3.406, -67.901, -170.195, -29.827, -9.853, -9.960, 30.8, 0.05991, -0.55777, -0.02826, -0.8273,
 12:27:36.595,f6:90:cc:01:6d:25, 2015-01-01 00:14:00.925, 0.912, -0.023, 0.37, -2.502, -0.61, -2.502, -3.351, -67.912, -170.272, -29.827, -9.853, -9.960, 30.8, 0.05991, -0.55777, -0.02826, -0.8273,
 12:27:36.614,ed:40:fe:65:30:6c, 2015-01-01 00:14:01.565, 0.615, 0.16, 0.769, -5.249, 0.305, -0.854, 12.003, -38.573, -141.724, -19.593, -13.780, -5.647, 27.39, 0.34338, -0.27548, -0.20596, -0.87387,
 12:27:36.614,ed:40:fe:65:30:6c, 2015-01-01 00:14:01.565, 0.625, 0.162, 0.765, -3.357, -0.977, -0.366, 11.948, -38.584, -141.718, -19.593, -13.780, -5.647, 27.39, 0.34338, -0.27548, -0.20596, -0.87387,
 12:27:36.617,f6:90:cc:01:6d:25, 2015-01-01 00:14:00.925, 0.918, -0.026, 0.373, -2.319, -0.916, -2.319, -3.301, -67.928, -170.332, -29.720, -10.447, -9.960, 30.8, 0.05991, -0.55777, -0.02826, -0.8273,
 12:27:36.617,f6:90:cc:01:6d:25, 2015-01-01 00:14:00.925, 0.918, -0.035, 0.372, -2.625, -0.977, -1.831, -3.285, -67.95, -170.37, -29.720, -10.447, -9.960, 30.8, 0.05991, -0.55777, -0.02826, -0.8273,
 12:27:36.636,e3:ca:2d:fd:e0:8c, 2015-01-01 00:14:02.435, 0.982, -0.068, 0.274, -5.554, 0, -2.563, -12.189, -74.29, 158.665, -24.733, -9.367, -13.600, 26.59, 0.20087, 0.57608, -0.18723, 0.76981,
 12:27:36.636,e3:ca:2d:fd:e0:8c, 2015-01-01 00:14:02.435, 0.98, -0.077, 0.271, -5.371, 0, -2.991, -12.129, -74.301, 158.5, -24.733, -9.367, -13.600, 26.59, 0.20087, 0.57608, -0.18723, 0.76981,
 12:27:36.638,ed:35:33:d3:6c:f8, 2015-01-01 00:14:01.740, 0.771, 0.052, 0.631, -4.089, -1.038, 0.183, 4.845, -50.576, 137.51, -21.307, -11.300, -25.513, 32.38, 0.31027, 0.41406, -0.11569, 0.84781,
 12:27:36.638,ed:35:33:d3:6c:f8, 2015-01-01 00:14:01.740, 0.774, 0.058, 0.627, -2.441, -0.549, 1.038, 4.768, -50.587, 137.571, -21.307, -11.300, -25.513, 32.38, 0.31027, 0.41406, -0.11569, 0.84781,
 12:27:36.660,e3:ca:2d:fd:e0:8c, 2015-01-01 00:14:02.435, 0.984, -0.073, 0.27, -4.578, -0.061, -3.174, -12.041, -74.312, 158.335, -24.787, -9.067, -13.447, 26.59, 0.20087, 0.57608, -0.18723, 0.76981,
 12:27:36.660,e3:ca:2d:fd:e0:8c, 2015-01-01 00:14:02.435, 0.986, -0.065, 0.266, -3.54, -0.061, -2.625, -11.948, -74.323, 158.187, -24.787, -9.067, -13.447, 26.59, 0.20087, 0.57608, -0.18723, 0.76981,
 12:27:36.662,ed:35:33:d3:6c:f8, 2015-01-01 00:14:01.740, 0.768, 0.061, 0.627, -2.38, -0.854, 1.526, 4.697, -50.603, 137.631, -20.380, -11.093, -25.420, 32.38, 0.31027, 0.41406, -0.11569, 0.84781,
 12:27:36.662,ed:35:33:d3:6c:f8, 2015-01-01 00:14:01.740, 0.768, 0.06, 0.627, -2.686, -1.465, 1.221, 4.62, -50.625, 137.697, -20.380, -11.093, -25.420, 32.38, 0.31027, 0.41406, -0.11569, 0.84781,
 12:27:36.662,f6:90:cc:01:6d:25, 2015-01-01 00:14:00.925, 0.915, -0.03, 0.368, -2.014, -0.793, -1.404, -3.274, -67.967, -170.387, -29.720, -10.447, -9.960, 30.8, 0.05991, -0.55777, -0.02826, -0.8273,
 12:27:36.662,f6:90:cc:01:6d:25, 2015-01-01 00:14:00.925, 0.913, -0.023, 0.368, -1.587, -0.793, -1.038, -3.274, -67.983, -170.398, -29.720, -10.447, -9.960, 30.8, 0.05991, -0.55777, -0.02826, -0.8273,
 12:27:36.683,ed:40:fe:65:30:6c, 2015-01-01 00:14:01.565, 0.622, 0.174, 0.767, -2.686, -1.038, 0.61, 11.904, -38.606, -141.696, -19.593, -13.780, -5.647, 27.39, 0.34338, -0.27548, -0.20596, -0.87387,
 12:27:36.683,ed:40:fe:65:30:6c, 2015-01-01 00:14:01.565, 0.621, 0.169, 0.765, -2.808, -0.854, 0.671, 11.843, -38.622, -141.669, -19.593, -13.780, -5.647, 27.39, 0.34338, -0.27548, -0.20596, -0.87387,
 12:27:36.704,e3:ca:2d:fd:e0:8c, 2015-01-01 00:14:02.435, 0.985, -0.069, 0.265, -1.831, 0, -2.014, -11.865, -74.333, 158.071, -24.787, -9.067, -13.447, 26.59, 0.20087, 0.57608, -0.18723, 0.76981,
 12:27:36.704,e3:ca:2d:fd:e0:8c, 2015-01-01 00:14:02.435, 0.979, -0.074, 0.267, 0.549, -0.122, -1.77, -11.783, -74.339, 158.016, -24.787, -9.067, -13.447, 26.59, 0.20087, 0.57608, -0.18723, 0.76981,
 12:27:36.705,ed:40:fe:65:30:6c, 2015-01-01 00:14:01.565, 0.621, 0.165, 0.766, -2.686, -0.977, 0.671, 11.788, -38.639, -141.636, -19.233, -13.587, -5.620, 27.39, 0.34338, -0.27548, -0.20596, -0.87387,
 12:27:36.705,ed:40:fe:65:30:6c, 2015-01-01 00:14:01.565, 0.621, 0.166, 0.765, -2.686, -0.854, 0.916, 11.733, -38.655, -141.608, -19.233, -13.587, -5.620, 27.39, 0.34338, -0.27548, -0.20596, -0.87387,
 12:27:36.707,f6:90:cc:01:6d:25, 2015-01-01 00:14:00.925, 0.915, -0.027, 0.368, 0.061, -1.221, -0.854, -3.246, -68.005, -170.398, -29.720, -10.447, -9.960, 30.8, 0.0535, -0.55878, -0.02316, -0.82721,
 12:27:36.707,f6:90:cc:01:6d:25, 2015-01-01 00:14:00.925, 0.909, -0.032, 0.371, 2.075, -0.977, -0.61, -3.192, -68.022, -170.387, -29.720, -10.447, -9.960, 30.8, 0.0535, -0.55878, -0.02316, -0.82721,
 12:27:36.707,ed:35:33:d3:6c:f8, 2015-01-01 00:14:01.740, 0.77, 0.055, 0.626, -2.441, -1.587, 0.916, 4.554, -50.652, 137.763, -20.380, -11.093, -25.420, 32.38, 0.31027, 0.41406, -0.11569, 0.84781,
 12:27:36.707,ed:35:33:d3:6c:f8, 2015-01-01 00:14:01.740, 0.77, 0.057, 0.623, -2.197, -1.587, 1.221, 4.493, -50.685, 137.807, -20.380, -11.093, -25.420, 32.38, 0.31027, 0.41406, -0.11569, 0.84781,
 12:27:36.726,e3:ca:2d:fd:e0:8c, 2015-01-01 00:14:02.435, 0.984, -0.073, 0.26, 1.648, 0, -1.648, -11.678, -74.35, 157.967, -24.787, -9.067, -13.447, 26.59, 0.21194, 0.57437, -0.19482, 0.76624,
 12:27:36.726,e3:ca:2d:fd:e0:8c, 2015-01-01 00:14:02.435, 0.986, -0.077, 0.26, 2.014, 0.977, -1.648, -11.558, -74.35, 157.912, -24.787, -9.067, -13.447, 26.59, 0.21194, 0.57437, -0.19482, 0.76624,
 12:27:36.728,ed:35:33:d3:6c:f8, 2015-01-01 00:14:01.740, 0.774, 0.058, 0.625, -1.526, -1.282, 1.892, 4.433, -50.718, 137.845, -20.380, -11.093, -25.420, 32.38, 0.30927, 0.41187, -0.12106, 0.84851,
 12:27:36.728,ed:35:33:d3:6c:f8, 2015-01-01 00:14:01.740, 0.782, 0.058, 0.626, -0.488, -1.16, 2.075, 4.373, -50.74, 137.889, -20.380, -11.093, -25.420, 32.38, 0.30927, 0.41187, -0.12106, 0.84851,
 12:27:36.751,ed:40:fe:65:30:6c, 2015-01-01 00:14:01.565, 0.623, 0.167, 0.767, -2.197, -0.671, 1.404, 11.678, -38.672, -141.57, -19.233, -13.587, -5.620, 27.39, 0.34338, -0.27548, -0.20596, -0.87387,
 12:27:36.751,ed:40:fe:65:30:6c, 2015-01-01 00:14:01.565, 0.627, 0.166, 0.766, -1.099, -0.916, 2.136, 11.624, -38.688, -141.52, -19.233, -13.587, -5.620, 27.39, 0.34338, -0.27548, -0.20596, -0.87387,
 12:27:36.752,f6:90:cc:01:6d:25, 2015-01-01 00:14:01.235, 0.922, -0.027, 0.367, 10.315, -2.136, 0, -3.071, -68.055, -170.332, -29.720, -10.447, -9.960, 30.8, 0.0535, -0.55878, -0.02316, -0.82721,
 12:27:36.752,f6:90:cc:01:6d:25, 2015-01-01 00:14:01.235, 0.919, -0.05, 0.355, 13.245, -2.686, 0.366, -2.878, -68.093, -170.272, -29.720, -10.447, -9.960, 30.8, 0.0535, -0.55878, -0.02316, -0.82721,
 12:27:36.771,e3:ca:2d:fd:e0:8c, 2015-01-01 00:14:02.435, 0.985, -0.076, 0.273, 2.625, 1.587, -2.38, -11.415, -74.333, 157.841, -24.787, -9.067, -13.447, 26.59, 0.21194, 0.57437, -0.19482, 0.76624,
 12:27:36.771,e3:ca:2d:fd:e0:8c, 2015-01-01 00:14:02.435, 0.984, -0.067, 0.277, 3.296, 1.221, -2.93, -11.206, -74.317, 157.736, -24.787, -9.067, -13.447, 26.59, 0.21194, 0.57437, -0.19482, 0.76624,
 12:27:36.772,ed:40:fe:65:30:6c, 2015-01-01 00:14:01.565, 0.625, 0.165, 0.767, -0.061, -1.587, 3.662, 11.58, -38.716, -141.449, -19.233, -13.587, -5.620, 27.39, 0.34113, -0.27972, -0.19873, -0.87509,
 12:27:36.772,ed:40:fe:65:30:6c, 2015-01-01 00:14:01.565, 0.631, 0.164, 0.765, 0.916, -0.916, 5.127, 11.53, -38.754, -141.339, -19.233, -13.587, -5.620, 27.39, 0.34113, -0.27972, -0.19873, -0.87509,
 12:27:36.773,ed:35:33:d3:6c:f8, 2015-01-01 00:14:01.740, 0.774, 0.064, 0.622, 0.793, -1.099, 3.784, 4.318, -50.768, 137.955, -20.380, -11.093, -25.420, 32.38, 0.30927, 0.41187, -0.12106, 0.84851,
 12:27:36.773,ed:35:33:d3:6c:f8, 2015-01-01 00:14:01.740, 0.77, 0.062, 0.622, 1.526, -1.648, 6.226, 4.235, -50.806, 138.065, -20.380, -11.093, -25.420, 32.38, 0.30927, 0.41187, -0.12106, 0.84851,
 12:27:36.798,f6:90:cc:01:6d:25, 2015-01-01 00:14:01.235, 0.92, -0.038, 0.362, 10.986, -2.258, 1.16, -2.686, -68.148, -170.184, -29.720, -10.447, -9.960, 30.8, 0.0535, -0.55878, -0.02316, -0.82721,
 12:27:36.798,f6:90:cc:01:6d:25, 2015-01-01 00:14:01.235, 0.927, -0.011, 0.374, 9.949, -1.831, 1.465, -2.571, -68.187, -170.063, -29.720, -10.447, -9.960, 30.8, 0.0535, -0.55878, -0.02316, -0.82721,
 12:27:36.816,e3:ca:2d:fd:e0:8c, 2015-01-01 00:14:02.770, 0.986, -0.056, 0.273, 2.991, 0.793, -2.625, -10.975, -74.306, 157.621, -24.787, -9.067, -13.447, 26.59, 0.21194, 0.57437, -0.19482, 0.76624,
 12:27:36.816,e3:ca:2d:fd:e0:8c, 2015-01-01 00:14:02.770, 0.982, -0.056, 0.274, 3.235, 0.732, -2.136, -10.767, -74.301, 157.538, -24.787, -9.067, -13.447, 26.59, 0.21194, 0.57437, -0.19482, 0.76624,
 12:27:36.817,ed:40:fe:65:30:6c, 2015-01-01 00:14:01.565, 0.634, 0.163, 0.763, 2.563, -0.671, 5.676, 11.486, -38.787, -141.185, -19.233, -13.587, -5.620, 27.39, 0.34113, -0.27972, -0.19873, -0.87509,
 12:27:36.817,ed:40:fe:65:30:6c, 2015-01-01 00:14:01.565, 0.627, 0.164, 0.768, 3.723, -0.793, 6.226, 11.464, -38.82, -141.031, -19.233, -13.587, -5.620, 27.39, 0.34113, -0.27972, -0.19873, -0.87509,
 12:27:36.818,ed:35:33:d3:6c:f8, 2015-01-01 00:14:02.095, 0.786, 0.05, 0.62, 1.953, -1.038, 5.371, 4.147, -50.839, 138.208, -20.380, -11.093, -25.420, 32.38, 0.30927, 0.41187, -0.12106, 0.84851,
 12:27:36.818,ed:35:33:d3:6c:f8, 2015-01-01 00:14:02.095, 0.779, 0.052, 0.624, 3.052, -0.61, 4.639, 4.087, -50.867, 138.362, -20.380, -11.093, -25.420, 32.38, 0.30927, 0.41187, -0.12106, 0.84851,
 12:27:36.821,f6:90:cc:01:6d:25, 2015-01-01 00:14:01.235, 0.923, -0.021, 0.37, 11.719, -2.625, 1.526, -2.466, -68.225, -169.931, -29.720, -10.447, -9.960, 30.8, 0.0535, -0.55878, -0.02316, -0.82721,
 12:27:36.821,f6:90:cc:01:6d:25, 2015-01-01 00:14:01.235, 0.916, -0.039, 0.37, 12.39, -2.563, 1.892, -2.34, -68.275, -169.799, -29.720, -10.447, -9.960, 30.8, 0.0535, -0.55878, -0.02316, -0.82721,
 12:27:36.841,ed:35:33:d3:6c:f8, 2015-01-01 00:14:02.095, 0.767, 0.058, 0.627, 4.15, -0.793, 6.592, 4.037, -50.889, 138.532, -20.380, -11.093, -25.420, 32.38, 0.30927, 0.41187, -0.12106, 0.84851,
 12:27:36.841,ed:35:33:d3:6c:f8, 2015-01-01 00:14:02.095, 0.763, 0.048, 0.631, 4.944, -0.793, 8.789, 3.955, -50.916, 138.752, -20.380, -11.093, -25.420, 32.38, 0.30927, 0.41187, -0.12106, 0.84851,
 12:27:36.861,e3:ca:2d:fd:e0:8c, 2015-01-01 00:14:02.770, 0.98, -0.062, 0.278, 4.089, 0.183, -2.319, -10.574, -74.295, 157.484, -24.787, -9.067, -13.447, 26.59, 0.21194, 0.57437, -0.19482, 0.76624,
 12:27:36.861,e3:ca:2d:fd:e0:8c, 2015-01-01 00:14:02.770, 0.98, -0.054, 0.276, 4.333, -0.671, -2.502, -10.366, -74.301, 157.412, -24.787, -9.067, -13.447, 26.59, 0.21194, 0.57437, -0.19482, 0.76624,
 12:27:36.862,ed:40:fe:65:30:6c, 2015-01-01 00:14:01.900, 0.618, 0.16, 0.772, 3.723, -0.183, 7.202, 11.448, -38.859, -140.861, -19.233, -13.587, -5.620, 27.39, 0.34113, -0.27972, -0.19873, -0.87509,
 12:27:36.862,ed:40:fe:65:30:6c, 2015-01-01 00:14:01.900, 0.616, 0.153, 0.768, 3.357, 0.183, 8.057, 11.409, -38.886, -140.68, -19.233, -13.587, -5.620, 27.39, 0.34113, -0.27972, -0.19873, -0.87509,
 12:27:36.866,f6:90:cc:01:6d:25, 2015-01-01 00:14:01.235, 0.911, -0.023, 0.366, 11.353, -2.197, 1.831, -2.225, -68.318, -169.673, -29.720, -10.447, -9.960, 30.8, 0.0535, -0.55878, -0.02316, -0.82721,
 12:27:36.866,f6:90:cc:01:6d:25, 2015-01-01 00:14:01.235, 0.913, -0.006, 0.364, 9.827, -1.709, 1.709, -2.126, -68.357, -169.541, -29.720, -10.447, -9.960, 30.8, 0.0535, -0.55878, -0.02316, -0.82721,
 12:27:36.886,ed:40:fe:65:30:6c, 2015-01-01 00:14:01.900, 0.622, 0.152, 0.762, 3.418, -0.61, 7.996, 11.36, -38.914, -140.477, -19.233, -13.587, -5.620, 27.39, 0.34113, -0.27972, -0.19873, -0.87509,
 12:27:36.886,ed:40:fe:65:30:6c, 2015-01-01 00:14:01.900, 0.626, 0.155, 0.759, 3.235, -1.343, 7.141, 11.31, -38.952, -140.268, -19.233, -13.587, -5.620, 27.39, 0.34113, -0.27972, -0.19873, -0.87509,
 12:27:36.888,ed:35:33:d3:6c:f8, 2015-01-01 00:14:02.095, 0.763, 0.037, 0.629, 3.967, -1.221, 8.362, 3.851, -50.949, 138.999, -20.380, -11.093, -25.420, 32.38, 0.30927, 0.41187, -0.12106, 0.84851,
 12:27:36.888,ed:35:33:d3:6c:f8, 2015-01-01 00:14:02.095, 0.765, 0.035, 0.622, 2.136, -1.404, 7.263, 3.73, -50.982, 139.23, -20.380, -11.093, -25.420, 32.38, 0.30927, 0.41187, -0.12106, 0.84851,
 12:27:36.905,e3:ca:2d:fd:e0:8c, 2015-01-01 00:14:02.770, 0.98, -0.037, 0.279, 3.662, -0.854, -2.197, -10.157, -74.323, 157.33, -24.787, -9.067, -13.447, 26.59, 0.21194, 0.57437, -0.19482, 0.76624,
 12:27:36.905,e3:ca:2d:fd:e0:8c, 2015-01-01 00:14:02.770, 0.979, -0.036, 0.275, 2.747, -1.16, -1.648, -9.998, -74.344, 157.253, -24.787, -9.067, -13.447, 26.59, 0.21194, 0.57437, -0.19482, 0.76624,
 12:27:36.910,f6:90:cc:01:6d:25, 2015-01-01 00:14:01.235, 0.914, 0.015, 0.371, 10.986, -0.977, 1.404, -2.032, -68.384, -169.387, -29.720, -10.447, -9.960, 30.8, 0.0535, -0.55878, -0.02316, -0.82721,
 12:27:36.910,f6:90:cc:01:6d:25, 2015-01-01 00:14:01.235, 0.915, 0, 0.361, 5.371, -1.77, 1.404, -1.928, -68.401, -169.25, -29.720, -10.447, -9.960, 30.8, 0.0535, -0.55878, -0.02316, -0.82721,
 12:27:36.930,e3:ca:2d:fd:e0:8c, 2015-01-01 00:14:02.770, 0.98, -0.043, 0.272, 1.953, -0.977, -1.648, -9.866, -74.372, 157.209, -24.787, -9.067, -13.447, 26.59, 0.21194, 0.57437, -0.19482, 0.76624,
 12:27:36.930,e3:ca:2d:fd:e0:8c, 2015-01-01 00:14:02.770, 0.98, -0.034, 0.28, 1.221, -0.793, -1.953, -9.728, -74.394, 157.159, -24.787, -9.067, -13.447, 26.59, 0.21194, 0.57437, -0.19482, 0.76624,
 12:27:36.930,ed:40:fe:65:30:6c, 2015-01-01 00:14:01.900, 0.627, 0.158, 0.761, 2.563, -1.038, 6.165, 11.272, -39.001, -140.092, -19.233, -13.587, -5.620, 27.39, 0.34113, -0.27972, -0.19873, -0.87509,
 12:27:36.930,ed:40:fe:65:30:6c, 2015-01-01 00:14:01.900, 0.629, 0.157, 0.761, 1.526, -0.366, 5.31, 11.234, -39.034, -139.938, -19.233, -13.587, -5.620, 27.39, 0.34113, -0.27972, -0.19873, -0.87509,
 12:27:36.931,ed:35:33:d3:6c:f8, 2015-01-01 00:14:02.095, 0.771, 0.037, 0.619, 1.404, -0.977, 5.859, 3.62, -51.01, 139.417, -20.380, -11.093, -25.420, 32.38, 0.30927, 0.41187, -0.12106, 0.84851,
 12:27:36.931,ed:35:33:d3:6c:f8, 2015-01-01 00:14:02.095, 0.769, 0.039, 0.619, 1.343, -1.099, 5.554, 3.516, -51.037, 139.587, -20.380, -11.093, -25.420, 32.38, 0.30927, 0.41187, -0.12106, 0.84851,
 12:27:36.954,f6:90:cc:01:6d:25, 2015-01-01 00:14:01.235, 0.92, -0.002, 0.365, 4.089, -1.77, 1.16, -1.901, -68.434, -169.118, -29.807, -10.393, -9.287, 30.8, 0.0535, -0.55878, -0.02316, -0.82721,
 12:27:36.954,f6:90:cc:01:6d:25, 2015-01-01 00:14:01.235, 0.923, 0.002, 0.372, 2.441, -0.671, 1.099, -1.89, -68.461, -169.003, -29.807, -10.393, -9.287, 30.8, 0.0535, -0.55878, -0.02316, -0.82721,
 12:27:36.973,e3:ca:2d:fd:e0:8c, 2015-01-01 00:14:02.770, 0.982, -0.025, 0.285, 1.343, -1.221, -2.075, -9.58, -74.416, 157.083, -24.787, -9.067, -13.447, 26.59, 0.21194, 0.57437, -0.19482, 0.76624,
 12:27:36.973,e3:ca:2d:fd:e0:8c, 2015-01-01 00:14:02.770, 0.986, -0.029, 0.276, 2.197, -1.587, -1.709, -9.426, -74.443, 157.006, -24.787, -9.067, -13.447, 26.59, 0.21194, 0.57437, -0.19482, 0.76624,
 12:27:36.975,ed:40:fe:65:30:6c, 2015-01-01 00:14:01.900, 0.633, 0.158, 0.759, 0.916, -0.183, 4.333, 11.19, -39.056, -139.801, -19.233, -13.587, -5.620, 27.39, 0.34113, -0.27972, -0.19873, -0.87509,
 12:27:36.975,ed:40:fe:65:30:6c, 2015-01-01 00:14:01.900, 0.632, 0.156, 0.765, 0.305, 0, 3.296, 11.146, -39.067, -139.686, -19.233, -13.587, -5.620, 27.39, 0.34113, -0.27972, -0.19873, -0.87509,
 12:27:36.975,ed:35:33:d3:6c:f8, 2015-01-01 00:14:02.095, 0.773, 0.035, 0.617, 1.099, -1.16, 5.066, 3.422, -51.064, 139.752, -20.380, -11.093, -25.420, 32.38, 0.30927, 0.41187, -0.12106, 0.84851,
 12:27:36.975,ed:35:33:d3:6c:f8, 2015-01-01 00:14:02.095, 0.778, 0.034, 0.622, 0.793, -1.038, 3.967, 3.34, -51.086, 139.889, -20.380, -11.093, -25.420, 32.38, 0.30927, 0.41187, -0.12106, 0.84851,
 12:27:37.000,f6:90:cc:01:6d:25, 2015-01-01 00:14:01.235, 0.922, -0.001, 0.373, 2.197, 0.122, 0.916, -1.89, -68.467, -168.915, -29.807, -10.393, -9.287, 30.8, 0.07059, -0.56116, -0.04071, -0.82364,
 12:27:37.000,f6:90:cc:01:6d:25, 2015-01-01 00:14:01.235, 0.92, 0.003, 0.365, 2.869, -0.183, 0.366, -1.873, -68.461, -168.843, -29.807, -10.393, -9.287, 30.8, 0.07059, -0.56116, -0.04071, -0.82364,
 12:27:37.019,ed:40:fe:65:30:6c, 2015-01-01 00:14:01.900, 0.631, 0.153, 0.765, 0, 0.488, 2.563, 11.107, -39.078, -139.592, -19.233, -13.587, -5.620, 27.39, 0.34113, -0.27972, -0.19873, -0.87509,
 12:27:37.019,ed:40:fe:65:30:6c, 2015-01-01 00:14:01.900, 0.631, 0.159, 0.761, 0.549, 0.488, 2.014, 11.074, -39.073, -139.515, -19.233, -13.587, -5.620, 27.39, 0.34113, -0.27972, -0.19873, -0.87509,
 12:27:37.023,f6:90:cc:01:6d:25, 2015-01-01 00:14:01.525, 0.922, 0.011, 0.364, 2.441, -0.549, -0.061, -1.824, -68.461, -168.794, -29.807, -10.393, -9.287, 30.8, 0.07059, -0.56116, -0.04071, -0.82364,
 12:27:37.023,f6:90:cc:01:6d:25, 2015-01-01 00:14:01.525, 0.921, 0.014, 0.362, 0.61, -0.488, -0.122, -1.763, -68.467, -168.794, -29.807, -10.393, -9.287, 30.8, 0.07059, -0.56116, -0.04071, -0.82364,
 12:27:37.042,ed:40:fe:65:30:6c, 2015-01-01 00:14:01.900, 0.629, 0.168, 0.759, 1.099, 0.061, 1.16, 11.069, -39.067, -139.444, -20.060, -12.973, -5.713, 27.39, 0.34113, -0.27972, -0.19873, -0.87509,
 12:27:37.042,ed:40:fe:65:30:6c, 2015-01-01 00:14:01.900, 0.629, 0.167, 0.76, 0.244, 0, 0.549, 11.08, -39.067, -139.4, -20.060, -12.973, -5.713, 27.39, 0.34113, -0.27972, -0.19873, -0.87509,
 12:27:37.043,ed:35:33:d3:6c:f8, 2015-01-01 00:14:02.095, 0.775, 0.033, 0.623, 0.366, -1.16, 3.296, 3.274, -51.114, 139.988, -20.687, -10.633, -25.880, 32.38, 0.30927, 0.41187, -0.12106, 0.84851,
 12:27:37.043,ed:35:33:d3:6c:f8, 2015-01-01 00:14:02.095, 0.78, 0.035, 0.621, 0.366, -1.282, 2.258, 3.224, -51.141, 140.076, -20.687, -10.633, -25.880, 32.38, 0.30927, 0.41187, -0.12106, 0.84851,
 12:27:37.063,e3:ca:2d:fd:e0:8c, 2015-01-01 00:14:02.770, 0.985, -0.029, 0.271, 2.197, -1.343, -0.916, -9.294, -74.471, 156.956, -24.667, -9.807, -13.007, 26.59, 0.21194, 0.57437, -0.19482, 0.76624,
 12:27:37.063,e3:ca:2d:fd:e0:8c, 2015-01-01 00:14:02.770, 0.985, -0.025, 0.272, 0.793, -0.977, -0.549, -9.218, -74.493, 156.934, -24.667, -9.807, -13.007, 26.59, 0.21194, 0.57437, -0.19482, 0.76624,
 12:27:37.067,f6:90:cc:01:6d:25, 2015-01-01 00:14:01.525, 0.916, 0.003, 0.359, -1.526, -0.122, 0, -1.736, -68.472, -168.816, -29.807, -10.393, -9.287, 30.8, 0.07059, -0.56116, -0.04071, -0.82364,
 12:27:37.067,f6:90:cc:01:6d:25, 2015-01-01 00:14:01.525, 0.916, 0.002, 0.352, -2.563, 0.122, 0.061, -1.752, -68.472, -168.849, -29.807, -10.393, -9.287, 30.8, 0.07059, -0.56116, -0.04071, -0.82364,
 12:27:37.067,ed:35:33:d3:6c:f8, 2015-01-01 00:14:02.095, 0.775, 0.042, 0.617, 1.282, -0.916, 1.587, 3.208, -51.163, 140.131, -20.687, -10.633, -25.880, 32.38, 0.29587, 0.41443, -0.12335, 0.85172,
 12:27:37.067,ed:35:33:d3:6c:f8, 2015-01-01 00:14:02.095, 0.773, 0.047, 0.615, 1.099, -0.916, 0.977, 3.208, -51.18, 140.18, -20.687, -10.633, -25.880, 32.38, 0.29587, 0.41443, -0.12335, 0.85172,
 12:27:37.086,e3:ca:2d:fd:e0:8c, 2015-01-01 00:14:02.770, 0.986, -0.028, 0.271, -1.099, -0.854, -0.61, -9.168, -74.509, 156.929, -24.667, -9.807, -13.007, 26.59, 0.20609, 0.57846, -0.18304, 0.76764,
 12:27:37.086,e3:ca:2d:fd:e0:8c, 2015-01-01 00:14:02.770, 0.986, -0.035, 0.264, -2.014, -1.038, -0.549, -9.152, -74.531, 156.912, -24.667, -9.807, -13.007, 26.59, 0.20609, 0.57846, -0.18304, 0.76764,
 12:27:37.087,ed:40:fe:65:30:6c, 2015-01-01 00:14:01.900, 0.629, 0.163, 0.757, -0.732, -0.183, 0.061, 11.08, -39.073, -139.373, -20.060, -12.973, -5.713, 27.39, 0.34113, -0.27972, -0.19873, -0.87509,
 12:27:37.087,ed:40:fe:65:30:6c, 2015-01-01 00:14:01.900, 0.631, 0.156, 0.759, -1.282, -0.488, -0.732, 11.08, -39.073, -139.362, -20.060, -12.973, -5.713, 27.39, 0.34113, -0.27972, -0.19873, -0.87509,
 12:27:37.112,ed:35:33:d3:6c:f8, 2015-01-01 00:14:02.095, 0.775, 0.044, 0.614, 0.122, -0.122, 0.61, 3.208, -51.191, 140.191, -20.687, -10.633, -25.880, 32.38, 0.29587, 0.41443, -0.12335, 0.85172,
 12:27:37.112,ed:35:33:d3:6c:f8, 2015-01-01 00:14:02.095, 0.774, 0.037, 0.615, -0.732, -0.488, -0.366, 3.208, -51.202, 140.175, -20.687, -10.633, -25.880, 32.38, 0.29587, 0.41443, -0.12335, 0.85172,
 12:27:37.112,f6:90:cc:01:6d:25, 2015-01-01 00:14:01.525, 0.917, -0.001, 0.352, -2.869, 0, 0.122, -1.78, -68.472, -168.854, -29.807, -10.393, -9.287, 30.8, 0.07059, -0.56116, -0.04071, -0.82364,
 12:27:37.112,f6:90:cc:01:6d:25, 2015-01-01 00:14:01.525, 0.921, -0.008, 0.354, -2.136, 0.122, -0.061, -1.813, -68.472, -168.838, -29.807, -10.393, -9.287, 30.8, 0.07059, -0.56116, -0.04071, -0.82364,
 12:27:37.131,e3:ca:2d:fd:e0:8c, 2015-01-01 00:14:02.770, 0.99, -0.037, 0.26, -1.892, -1.038, -0.244, -9.152, -74.548, 156.918, -24.667, -9.807, -13.007, 26.59, 0.20609, 0.57846, -0.18304, 0.76764,
 12:27:37.131,e3:ca:2d:fd:e0:8c, 2015-01-01 00:14:02.770, 0.989, -0.04, 0.258, -0.732, -0.793, 0.244, -9.168, -74.57, 156.945, -24.667, -9.807, -13.007, 26.59, 0.20609, 0.57846, -0.18304, 0.76764,
 12:27:37.133,ed:35:33:d3:6c:f8, 2015-01-01 00:14:02.430, 0.781, 0.034, 0.616, -1.282, -0.61, -1.099, 3.214, -51.213, 140.125, -20.687, -10.633, -25.880, 32.38, 0.29587, 0.41443, -0.12335, 0.85172,
 12:27:37.133,ed:35:33:d3:6c:f8, 2015-01-01 00:14:02.430, 0.786, 0.036, 0.616, -0.488, -0.916, -1.77, 3.246, -51.229, 140.048, -20.687, -10.633, -25.880, 32.38, 0.29587, 0.41443, -0.12335, 0.85172,
 12:27:37.155,ed:40:fe:65:30:6c, 2015-01-01 00:14:01.900, 0.635, 0.151, 0.76, -1.343, -0.977, -1.099, 11.08, -39.078, -139.373, -20.060, -12.973, -5.713, 27.39, 0.35596, -0.28052, -0.2009, -0.86841,
 12:27:37.155,ed:40:fe:65:30:6c, 2015-01-01 00:14:01.900, 0.637, 0.154, 0.757, 0.122, -1.099, -0.916, 11.085, -39.095, -139.389, -20.060, -12.973, -5.713, 27.39, 0.35596, -0.28052, -0.2009, -0.86841,
 12:27:37.155,e3:ca:2d:fd:e0:8c, 2015-01-01 00:14:03.125, 0.989, -0.041, 0.261, -0.122, -0.61, 0.671, -9.201, -74.581, 156.995, -24.667, -9.807, -13.007, 26.59, 0.20609, 0.57846, -0.18304, 0.76764,
 12:27:37.155,e3:ca:2d:fd:e0:8c, 2015-01-01 00:14:03.125, 0.988, -0.043, 0.266, 0, -0.427, 0.916, -9.25, -74.592, 157.066, -24.667, -9.807, -13.007, 26.59, 0.20609, 0.57846, -0.18304, 0.76764,
 12:27:37.158,f6:90:cc:01:6d:25, 2015-01-01 00:14:01.525, 0.927, -0.009, 0.355, -1.77, -0.183, -0.183, -1.824, -68.472, -168.816, -29.807, -10.393, -9.287, 30.8, 0.07059, -0.56116, -0.04071, -0.82364,
 12:27:37.158,f6:90:cc:01:6d:25, 2015-01-01 00:14:01.525, 0.925, -0.014, 0.363, -1.709, 0, 0, -1.835, -68.478, -168.805, -29.807, -10.393, -9.287, 30.8, 0.07059, -0.56116, -0.04071, -0.82364,
 12:27:37.176,e3:ca:2d:fd:e0:8c, 2015-01-01 00:14:03.125, 0.987, -0.046, 0.269, 0.244, -0.427, 0.854, -9.305, -74.597, 157.148, -24.667, -9.807, -13.007, 26.59, 0.20609, 0.57846, -0.18304, 0.76764,
 12:27:37.176,e3:ca:2d:fd:e0:8c, 2015-01-01 00:14:03.125, 0.986, -0.046, 0.268, 0.122, -0.61, 0.916, -9.36, -74.603, 157.253, -24.667, -9.807, -13.007, 26.59, 0.20609, 0.57846, -0.18304, 0.76764,
 12:27:37.179,ed:40:fe:65:30:6c, 2015-01-01 00:14:02.235, 0.636, 0.158, 0.762, 1.709, -0.916, -0.549, 11.118, -39.111, -139.406, -20.060, -12.973, -5.713, 27.39, 0.35596, -0.28052, -0.2009, -0.86841,
 12:27:37.179,ed:40:fe:65:30:6c, 2015-01-01 00:14:02.235, 0.632, 0.159, 0.767, 1.953, -0.732, -0.183, 11.173, -39.128, -139.417, -20.060, -12.973, -5.713, 27.39, 0.35596, -0.28052, -0.2009, -0.86841,
 12:27:37.179,ed:35:33:d3:6c:f8, 2015-01-01 00:14:02.430, 0.784, 0.042, 0.617, 1.465, -1.526, -0.916, 3.301, -51.257, 139.993, -20.687, -10.633, -25.880, 32.38, 0.29587, 0.41443, -0.12335, 0.85172,
 12:27:37.179,ed:35:33:d3:6c:f8, 2015-01-01 00:14:02.430, 0.781, 0.042, 0.62, 2.075, -1.831, -0.244, 3.356, -51.295, 139.966, -20.687, -10.633, -25.880, 32.38, 0.29587, 0.41443, -0.12335, 0.85172,
 12:27:37.180,f6:90:cc:01:6d:25, 2015-01-01 00:14:01.525, 0.922, -0.015, 0.364, -1.648, 0.061, 0.122, -1.862, -68.478, -168.777, -29.807, -10.393, -9.287, 30.8, 0.07059, -0.56116, -0.04071, -0.82364,
 12:27:37.180,f6:90:cc:01:6d:25, 2015-01-01 00:14:01.525, 0.918, -0.016, 0.365, -1.404, -0.061, 0.244, -1.89, -68.483, -168.728, -29.807, -10.393, -9.287, 30.8, 0.07059, -0.56116, -0.04071, -0.82364,
 12:27:37.222,ed:40:fe:65:30:6c, 2015-01-01 00:14:02.235, 0.627, 0.157, 0.767, 1.831, -0.61, 0.061, 11.223, -39.139, -139.422, -20.060, -12.973, -5.713, 27.39, 0.35596, -0.28052, -0.2009, -0.86841,
 12:27:37.222,ed:40:fe:65:30:6c, 2015-01-01 00:14:02.235, 0.626, 0.153, 0.764, 1.465, -0.61, 0.122, 11.261, -39.15, -139.422, -20.060, -12.973, -5.713, 27.39, 0.35596, -0.28052, -0.2009, -0.86841,
 12:27:37.222,e3:ca:2d:fd:e0:8c, 2015-01-01 00:14:03.125, 0.983, -0.046, 0.266, -0.061, -0.671, 0.977, -9.426, -74.614, 157.374, -24.667, -9.807, -13.007, 26.59, 0.20609, 0.57846, -0.18304, 0.76764,
 12:27:37.222,e3:ca:2d:fd:e0:8c, 2015-01-01 00:14:03.125, 0.982, -0.048, 0.264, -0.244, -0.671, 0.916, -9.503, -74.625, 157.5, -24.667, -9.807, -13.007, 26.59, 0.20609, 0.57846, -0.18304, 0.76764,
 12:27:37.225,ed:35:33:d3:6c:f8, 2015-01-01 00:14:02.430, 0.776, 0.042, 0.62, 1.709, -1.465, -0.244, 3.406, -51.328, 139.944, -20.687, -10.633, -25.880, 32.38, 0.29587, 0.41443, -0.12335, 0.85172,
 12:27:37.225,ed:35:33:d3:6c:f8, 2015-01-01 00:14:02.430, 0.776, 0.037, 0.621, 1.465, -0.854, -0.183, 3.444, -51.35, 139.905, -20.687, -10.633, -25.880, 32.38, 0.29587, 0.41443, -0.12335, 0.85172,
 12:27:37.227,f6:90:cc:01:6d:25, 2015-01-01 00:14:01.525, 0.914, -0.016, 0.36, -1.343, -0.244, 0.305, -1.923, -68.483, -168.662, -29.807, -10.280, -8.867, 30.8, 0.07059, -0.56116, -0.04071, -0.82364,
 12:27:37.227,f6:90:cc:01:6d:25, 2015-01-01 00:14:01.525, 0.914, -0.019, 0.356, -1.282, -0.61, 0.244, -1.961, -68.494, -168.607, -29.807, -10.280, -8.867, 30.8, 0.07059, -0.56116, -0.04071, -0.82364,
 12:27:37.246,ed:40:fe:65:30:6c, 2015-01-01 00:14:02.235, 0.627, 0.151, 0.761, 0.61, -0.793, 0.122, 11.294, -39.166, -139.417, -20.060, -12.973, -5.713, 27.39, 0.35596, -0.28052, -0.2009, -0.86841,
 12:27:37.246,ed:40:fe:65:30:6c, 2015-01-01 00:14:02.235, 0.629, 0.153, 0.757, 0, -0.916, 0, 11.305, -39.177, -139.406, -20.060, -12.973, -5.713, 27.39, 0.35596, -0.28052, -0.2009, -0.86841,
 12:27:37.246,ed:35:33:d3:6c:f8, 2015-01-01 00:14:02.430, 0.772, 0.036, 0.619, 0.61, -0.671, -0.183, 3.466, -51.361, 139.883, -20.687, -10.633, -25.880, 32.38, 0.29587, 0.41443, -0.12335, 0.85172,
 12:27:37.246,ed:35:33:d3:6c:f8, 2015-01-01 00:14:02.430, 0.772, 0.035, 0.616, -0.366, -0.549, -0.061, 3.472, -51.378, 139.883, -20.687, -10.633, -25.880, 32.38, 0.29587, 0.41443, -0.12335, 0.85172,
 12:27:37.267,e3:ca:2d:fd:e0:8c, 2015-01-01 00:14:03.125, 0.981, -0.049, 0.266, -0.488, -0.305, 0.732, -9.569, -74.636, 157.61, -24.667, -9.807, -13.007, 26.59, 0.20609, 0.57846, -0.18304, 0.76764,
 12:27:37.267,e3:ca:2d:fd:e0:8c, 2015-01-01 00:14:03.125, 0.981, -0.045, 0.265, -0.916, -0.122, 0.427, -9.624, -74.636, 157.72, -24.667, -9.807, -13.007, 26.59, 0.20609, 0.57846, -0.18304, 0.76764,
 12:27:37.270,f6:90:cc:01:6d:25, 2015-01-01 00:14:01.525, 0.914, -0.017, 0.356, -1.648, -0.488, 0.122, -2, -68.505, -168.569, -29.807, -10.280, -8.867, 30.8, 0.07248, -0.56134, -0.04172, -0.82327,
 12:27:37.270,f6:90:cc:01:6d:25, 2015-01-01 00:14:01.525, 0.914, -0.016, 0.359, -1.648, -0.366, 0, -2.032, -68.516, -168.552, -29.807, -10.280, -8.867, 30.8, 0.07248, -0.56134, -0.04172, -0.82327,
