Time,Device name,Chip Time(),Acceleration X(g),Acceleration Y(g),Acceleration Z(g),Angular velocity X(°/s),Angular velocity Y(°/s),Angular velocity Z(°/s),Angle X(°),Angle Y(°),Angle Z(°),Magnetic field X(ʯt),Magnetic field Y(ʯt),Magnetic field Z(ʯt),Temperature(℃),Quaternions 0(),Quaternions 1(),Quaternions 2(),Quaternions 3()
 14:25:24.055,e3:ca:2d:fd:e0:8c, 2015-01-01 02:11:00.505, 0.838, -0.035, 0.578, 0.122, 0, 0.183, -3.587, -55.563, 168.662, -20.933, -9.447, -16.860, 30.41, 0.10095, 0.46146, -0.073, 0.8783,
 14:25:24.056,e3:ca:2d:fd:e0:8c, 2015-01-01 02:11:00.505, 0.84, -0.038, 0.574, 0.061, 0, 0.122, -3.587, -55.563, 168.651, -20.933, -9.447, -16.860, 30.41, 0.10095, 0.46146, -0.073, 0.8783,
 14:25:24.058,f6:90:cc:01:6d:25, 2015-01-01 02:10:59.090, 0.979, 0.08, 0.051, 0, 1.221, 0.305, 56.904, -84.342, 122.52, -29.113, -12.113, -1.613, 32.35, -0.03455, -0.68796, -0.02463, -0.72443,
 14:25:24.058,f6:90:cc:01:6d:25, 2015-01-01 02:10:59.090, 0.982, 0.085, 0.053, 0.061, 1.221, 0.427, 56.673, -84.337, 122.805, -29.113, -12.113, -1.613, 32.35, -0.03455, -0.68796, -0.02463, -0.72443,
 14:25:24.079,ed:40:fe:65:30:6c, 2015-01-01 02:10:59.610, 0.859, 0.077, 0.506, -0.244, 1.526, 0.427, 8.569, -59.084, -134.429, -24.213, -11.427, 0.760, 28.5, 0.3688, -0.42929, -0.2511, -0.78519,
 14:25:24.079,ed:40:fe:65:30:6c, 2015-01-01 02:10:59.610, 0.862, 0.083, 0.505, -1.038, 2.014, 0.305, 8.531, -59.046, -134.412, -24.213, -11.427, 0.760, 28.5, 0.3688, -0.42929, -0.2511, -0.78519,
 14:25:24.100,e3:ca:2d:fd:e0:8c, 2015-01-01 02:11:00.505, 0.84, -0.039, 0.574, 0.122, 0.122, 0.122, -3.593, -55.563, 168.651, -20.933, -9.447, -16.860, 30.41, 0.10095, 0.46146, -0.073, 0.8783,
 14:25:24.100,e3:ca:2d:fd:e0:8c, 2015-01-01 02:11:00.505, 0.843, -0.038, 0.575, 0.305, 0.244, 0.183, -3.593, -55.558, 168.646, -20.933, -9.447, -16.860, 30.41, 0.10095, 0.46146, -0.073, 0.8783,
 14:25:24.102,ed:35:33:d3:6c:f8, 2015-01-01 02:10:59.585, 0.734, -0.012, 0.664, -0.732, 1.587, -0.183, -1.384, -47.796, 152.249, -19.547, -9.667, -25.427, 30.77, 0.22394, 0.39117, -0.10794, 0.88605,
 14:25:24.102,ed:35:33:d3:6c:f8, 2015-01-01 02:10:59.585, 0.739, -0.01, 0.664, -1.587, 2.197, -0.488, -1.395, -47.769, 152.232, -19.547, -9.667, -25.427, 30.77, 0.22394, 0.39117, -0.10794, 0.88605,
 14:25:24.102,ed:40:fe:65:30:6c, 2015-01-01 02:10:59.610, 0.859, 0.082, 0.51, -2.014, 1.892, -0.061, 8.487, -59.013, -134.407, -24.213, -11.427, 0.760, 28.5, 0.3688, -0.42929, -0.2511, -0.78519,
 14:25:24.102,ed:40:fe:65:30:6c, 2015-01-01 02:10:59.610, 0.855, 0.075, 0.514, -2.258, 1.221, -0.122, 8.443, -58.986, -134.412, -24.213, -11.427, 0.760, 28.5, 0.3688, -0.42929, -0.2511, -0.78519,
 14:25:24.103,f6:90:cc:01:6d:25, 2015-01-01 02:10:59.090, 0.985, 0.087, 0.052, -0.671, 1.404, 0.732, 56.415, -84.331, 123.085, -29.113, -12.113, -1.613, 32.35, -0.03455, -0.68796, -0.02463, -0.72443,
 14:25:24.103,f6:90:cc:01:6d:25, 2015-01-01 02:10:59.090, 0.983, 0.086, 0.053, -1.221, 1.038, 0.916, 56.113, -84.326, 123.382, -29.113, -12.113, -1.613, 32.35, -0.03455, -0.68796, -0.02463, -0.72443,
 14:25:24.123,e3:ca:2d:fd:e0:8c, 2015-01-01 02:11:00.505, 0.843, -0.037, 0.573, 0.183, 0.427, 0.061, -3.587, -55.552, 168.651, -20.940, -8.640, -17.453, 30.41, 0.10095, 0.46146, -0.073, 0.8783,
 14:25:24.123,e3:ca:2d:fd:e0:8c, 2015-01-01 02:11:00.505, 0.842, -0.037, 0.573, 0, 0.427, 0, -3.587, -55.541, 168.673, -20.940, -8.640, -17.453, 30.41, 0.10095, 0.46146, -0.073, 0.8783,
 14:25:24.125,ed:35:33:d3:6c:f8, 2015-01-01 02:10:59.965, 0.738, -0.011, 0.67, -2.502, 2.991, -1.404, -1.412, -47.719, 152.199, -19.547, -9.667, -25.427, 30.77, 0.22394, 0.39117, -0.10794, 0.88605,
 14:25:24.125,ed:35:33:d3:6c:f8, 2015-01-01 02:10:59.965, 0.734, -0.009, 0.677, -2.686, 2.563, -1.465, -1.428, -47.67, 152.139, -19.547, -9.667, -25.427, 30.77, 0.22394, 0.39117, -0.10794, 0.88605,
 14:25:24.126,f6:90:cc:01:6d:25, 2015-01-01 02:10:59.090, 0.978, 0.082, 0.054, -1.282, 0.732, 0.977, 55.849, -84.331, 123.635, -29.113, -12.113, -1.613, 32.35, -0.03455, -0.68796, -0.02463, -0.72443,
 14:25:24.126,f6:90:cc:01:6d:25, 2015-01-01 02:10:59.090, 0.977, 0.076, 0.055, -0.977, 0.732, 0.916, 55.618, -84.337, 123.86, -29.113, -12.113, -1.613, 32.35, -0.03455, -0.68796, -0.02463, -0.72443,
 14:25:24.147,ed:35:33:d3:6c:f8, 2015-01-01 02:10:59.965, 0.729, -0.015, 0.674, -2.686, 1.77, -0.916, -1.445, -47.626, 152.073, -19.547, -9.667, -25.427, 30.77, 0.22394, 0.39117, -0.10794, 0.88605,
 14:25:24.147,ed:35:33:d3:6c:f8, 2015-01-01 02:10:59.965, 0.729, -0.017, 0.671, -2.075, 0.854, -0.366, -1.472, -47.593, 152.029, -19.547, -9.667, -25.427, 30.77, 0.22394, 0.39117, -0.10794, 0.88605,
 14:25:24.169,e3:ca:2d:fd:e0:8c, 2015-01-01 02:11:00.505, 0.839, -0.038, 0.574, -0.061, 0.427, 0, -3.593, -55.536, 168.684, -20.940, -8.640, -17.453, 30.41, 0.10095, 0.46146, -0.073, 0.8783,
 14:25:24.169,e3:ca:2d:fd:e0:8c, 2015-01-01 02:11:00.505, 0.839, -0.04, 0.574, -0.122, 0.549, -0.061, -3.593, -55.525, 168.69, -20.940, -8.640, -17.453, 30.41, 0.10095, 0.46146, -0.073, 0.8783,
 14:25:24.169,ed:40:fe:65:30:6c, 2015-01-01 02:10:59.610, 0.854, 0.071, 0.512, -1.77, 1.038, 0, 8.405, -58.964, -134.396, -24.213, -11.427, 0.760, 28.5, 0.3688, -0.42929, -0.2511, -0.78519,
 14:25:24.169,ed:40:fe:65:30:6c, 2015-01-01 02:10:59.610, 0.854, 0.068, 0.511, -0.916, 0.977, 0.427, 8.366, -58.942, -134.374, -24.213, -11.427, 0.760, 28.5, 0.3688, -0.42929, -0.2511, -0.78519,
 14:25:24.170,ed:35:33:d3:6c:f8, 2015-01-01 02:10:59.965, 0.728, -0.019, 0.668, -1.16, 0.183, 0.366, -1.5, -47.582, 152.001, -19.547, -9.667, -25.427, 30.77, 0.22394, 0.39117, -0.10794, 0.88605,
 14:25:24.170,ed:35:33:d3:6c:f8, 2015-01-01 02:10:59.965, 0.733, -0.02, 0.668, -0.732, 0.183, 0.854, -1.527, -47.582, 152.001, -19.547, -9.667, -25.427, 30.77, 0.22394, 0.39117, -0.10794, 0.88605,
 14:25:24.171,f6:90:cc:01:6d:25, 2015-01-01 02:10:59.090, 0.979, 0.073, 0.053, -0.671, 0.732, 0.916, 55.393, -84.342, 124.069, -29.113, -12.113, -1.613, 32.35, -0.03455, -0.68796, -0.02463, -0.72443,
 14:25:24.171,f6:90:cc:01:6d:25, 2015-01-01 02:10:59.090, 0.981, 0.074, 0.055, -0.305, 0.671, 0.793, 55.179, -84.348, 124.277, -29.113, -12.113, -1.613, 32.35, -0.03455, -0.68796, -0.02463, -0.72443,
 14:25:24.191,ed:40:fe:65:30:6c, 2015-01-01 02:10:59.610, 0.857, 0.068, 0.511, -0.366, 0.854, 0.854, 8.328, -58.931, -134.346, -24.533, -11.260, 0.293, 28.5, 0.3688, -0.42929, -0.2511, -0.78519,
 14:25:24.191,ed:40:fe:65:30:6c, 2015-01-01 02:10:59.610, 0.859, 0.068, 0.511, 0.122, 0.854, 1.038, 8.289, -58.914, -134.302, -24.533, -11.260, 0.293, 28.5, 0.3688, -0.42929, -0.2511, -0.78519,
 14:25:24.216,f6:90:cc:01:6d:25, 2015-01-01 02:10:59.090, 0.983, 0.077, 0.057, 0.183, 0.732, 0.732, 54.987, -84.353, 124.453, -29.647, -12.240, -1.833, 32.35, -0.03455, -0.68796, -0.02463, -0.72443,
 14:25:24.216,f6:90:cc:01:6d:25, 2015-01-01 02:10:59.090, 0.983, 0.078, 0.057, 0.671, 0.916, 0.549, 54.789, -84.359, 124.629, -29.647, -12.240, -1.833, 32.35, -0.03455, -0.68796, -0.02463, -0.72443,
 14:25:24.216,ed:35:33:d3:6c:f8, 2015-01-01 02:10:59.965, 0.735, -0.021, 0.667, -0.305, 0.549, 1.099, -1.56, -47.576, 152.051, -19.547, -9.667, -25.427, 30.77, 0.22394, 0.39117, -0.10794, 0.88605,
 14:25:24.216,ed:35:33:d3:6c:f8, 2015-01-01 02:10:59.965, 0.735, -0.023, 0.668, 0.244, 0.671, 1.404, -1.588, -47.56, 152.089, -19.547, -9.667, -25.427, 30.77, 0.22394, 0.39117, -0.10794, 0.88605,
 14:25:24.235,e3:ca:2d:fd:e0:8c, 2015-01-01 02:11:00.505, 0.838, -0.04, 0.575, 0, 0.61, -0.061, -3.593, -55.514, 168.712, -20.940, -8.640, -17.453, 30.41, 0.10168, 0.4606, -0.07349, 0.87863,
 14:25:24.235,e3:ca:2d:fd:e0:8c, 2015-01-01 02:11:00.505, 0.838, -0.038, 0.576, 0.061, 0.732, 0, -3.593, -55.503, 168.739, -20.940, -8.640, -17.453, 30.41, 0.10168, 0.4606, -0.07349, 0.87863,
 14:25:24.236,ed:40:fe:65:30:6c, 2015-01-01 02:10:59.610, 0.859, 0.067, 0.512, 0.732, 0.793, 1.099, 8.256, -58.903, -134.242, -24.533, -11.260, 0.293, 28.5, 0.3688, -0.42929, -0.2511, -0.78519,
 14:25:24.236,ed:40:fe:65:30:6c, 2015-01-01 02:10:59.610, 0.859, 0.068, 0.514, 1.221, 0.793, 1.099, 8.229, -58.892, -134.182, -24.533, -11.260, 0.293, 28.5, 0.3688, -0.42929, -0.2511, -0.78519,
 14:25:24.258,e3:ca:2d:fd:e0:8c, 2015-01-01 02:11:00.840, 0.838, -0.036, 0.577, 0.122, 0.488, 0.061, -3.593, -55.492, 168.761, -20.940, -8.640, -17.453, 30.41, 0.10168, 0.4606, -0.07349, 0.87863,
 14:25:24.258,e3:ca:2d:fd:e0:8c, 2015-01-01 02:11:00.840, 0.838, -0.035, 0.576, 0.061, 0.305, 0.122, -3.593, -55.486, 168.761, -20.940, -8.640, -17.453, 30.41, 0.10168, 0.4606, -0.07349, 0.87863,
 14:25:24.262,ed:35:33:d3:6c:f8, 2015-01-01 02:10:59.965, 0.733, -0.022, 0.67, 0.854, 0.488, 1.648, -1.609, -47.549, 152.133, -19.547, -9.667, -25.427, 30.77, 0.22394, 0.39117, -0.10794, 0.88605,
 14:25:24.262,ed:35:33:d3:6c:f8, 2015-01-01 02:10:59.965, 0.731, -0.021, 0.671, 1.099, 0.366, 1.587, -1.626, -47.543, 152.177, -19.547, -9.667, -25.427, 30.77, 0.22394, 0.39117, -0.10794, 0.88605,
 14:25:24.262,ed:40:fe:65:30:6c, 2015-01-01 02:10:59.610, 0.858, 0.071, 0.514, 1.526, 0.854, 1.038, 8.212, -58.881, -134.132, -24.533, -11.260, 0.293, 28.5, 0.37057, -0.42731, -0.24844, -0.78629,
 14:25:24.263,ed:40:fe:65:30:6c, 2015-01-01 02:10:59.610, 0.856, 0.071, 0.513, 1.343, 0.916, 0.793, 8.201, -58.865, -134.105, -24.533, -11.260, 0.293, 28.5, 0.37057, -0.42731, -0.24844, -0.78629,
 14:25:24.264,f6:90:cc:01:6d:25, 2015-01-01 02:10:59.090, 0.982, 0.079, 0.058, 0.732, 0.977, 0.427, 54.597, -84.353, 124.816, -29.647, -12.240, -1.833, 32.35, -0.03204, -0.68622, -0.02487, -0.7262,
 14:25:24.264,f6:90:cc:01:6d:25, 2015-01-01 02:10:59.090, 0.982, 0.08, 0.058, 0.854, 1.038, 0.244, 54.41, -84.353, 125.019, -29.647, -12.240, -1.833, 32.35, -0.03204, -0.68622, -0.02487, -0.7262,
 14:25:24.280,e3:ca:2d:fd:e0:8c, 2015-01-01 02:11:00.840, 0.838, -0.035, 0.576, 0.061, 0.305, 0.244, -3.598, -55.481, 168.739, -20.940, -8.640, -17.453, 30.41, 0.10168, 0.4606, -0.07349, 0.87863,
 14:25:24.280,e3:ca:2d:fd:e0:8c, 2015-01-01 02:11:00.840, 0.838, -0.035, 0.577, 0, 0.244, 0.183, -3.604, -55.475, 168.745, -20.940, -8.640, -17.453, 30.41, 0.10168, 0.4606, -0.07349, 0.87863,
 14:25:24.305,ed:40:fe:65:30:6c, 2015-01-01 02:10:59.610, 0.854, 0.073, 0.517, 0.793, 0.793, 0.549, 8.196, -58.848, -134.094, -24.533, -11.260, 0.293, 28.5, 0.37057, -0.42731, -0.24844, -0.78629,
 14:25:24.305,ed:40:fe:65:30:6c, 2015-01-01 02:10:59.610, 0.854, 0.073, 0.518, 0.305, 0.732, 0.366, 8.185, -58.837, -134.099, -24.533, -11.260, 0.293, 28.5, 0.37057, -0.42731, -0.24844, -0.78629,
 14:25:24.305,ed:35:33:d3:6c:f8, 2015-01-01 02:10:59.965, 0.729, -0.021, 0.671, 1.038, 0.61, 1.099, -1.637, -47.532, 152.227, -19.547, -9.667, -25.427, 30.77, 0.22394, 0.39117, -0.10794, 0.88605,
 14:25:24.305,ed:35:33:d3:6c:f8, 2015-01-01 02:10:59.965, 0.727, -0.019, 0.676, 0.183, 1.099, 0.366, -1.637, -47.516, 152.281, -19.547, -9.667, -25.427, 30.77, 0.22394, 0.39117, -0.10794, 0.88605,
 14:25:24.306,f6:90:cc:01:6d:25, 2015-01-01 02:10:59.400, 0.981, 0.079, 0.06, 0.671, 1.099, 0.122, 54.234, -84.342, 125.206, -29.647, -12.240, -1.833, 32.35, -0.03204, -0.68622, -0.02487, -0.7262,
 14:25:24.306,f6:90:cc:01:6d:25, 2015-01-01 02:10:59.400, 0.979, 0.079, 0.061, 0.366, 1.038, 0, 54.069, -84.331, 125.387, -29.647, -12.240, -1.833, 32.35, -0.03204, -0.68622, -0.02487, -0.7262,
 14:25:24.325,e3:ca:2d:fd:e0:8c, 2015-01-01 02:11:00.840, 0.838, -0.036, 0.576, 0, 0.366, 0, -3.604, -55.47, 168.728, -20.940, -8.640, -17.453, 30.41, 0.10168, 0.4606, -0.07349, 0.87863,
 14:25:24.325,e3:ca:2d:fd:e0:8c, 2015-01-01 02:11:00.840, 0.838, -0.037, 0.575, 0.122, 0.427, 0, -3.604, -55.459, 168.728, -20.940, -8.640, -17.453, 30.41, 0.10168, 0.4606, -0.07349, 0.87863,
 14:25:24.328,f6:90:cc:01:6d:25, 2015-01-01 02:10:59.400, 0.979, 0.081, 0.06, 0.366, 0.793, 0, 53.926, -84.32, 125.524, -29.647, -12.240, -1.833, 32.35, -0.03204, -0.68622, -0.02487, -0.7262,
 14:25:24.328,f6:90:cc:01:6d:25, 2015-01-01 02:10:59.400, 0.98, 0.082, 0.059, 0.366, 0.793, 0, 53.811, -84.309, 125.64, -29.647, -12.240, -1.833, 32.35, -0.03204, -0.68622, -0.02487, -0.7262,
 14:25:24.328,ed:35:33:d3:6c:f8, 2015-01-01 02:10:59.965, 0.728, -0.02, 0.675, -0.244, 1.221, 0.061, -1.642, -47.494, 152.314, -20.287, -9.347, -25.160, 30.77, 0.22394, 0.39117, -0.10794, 0.88605,
 14:25:24.328,ed:35:33:d3:6c:f8, 2015-01-01 02:10:59.965, 0.729, -0.02, 0.673, -0.427, 1.221, -0.305, -1.648, -47.472, 152.303, -20.287, -9.347, -25.160, 30.77, 0.22394, 0.39117, -0.10794, 0.88605,
 14:25:24.349,ed:40:fe:65:30:6c, 2015-01-01 02:10:59.970, 0.856, 0.073, 0.516, 0.122, 0.732, 0.122, 8.174, -58.821, -134.105, -24.533, -11.260, 0.293, 28.5, 0.37057, -0.42731, -0.24844, -0.78629,
 14:25:24.349,ed:40:fe:65:30:6c, 2015-01-01 02:10:59.970, 0.855, 0.073, 0.517, -0.366, 0.671, 0, 8.168, -58.81, -134.116, -24.533, -11.260, 0.293, 28.5, 0.37057, -0.42731, -0.24844, -0.78629,
 14:25:24.370,e3:ca:2d:fd:e0:8c, 2015-01-01 02:11:00.840, 0.837, -0.037, 0.579, 0.183, 0.427, 0, -3.598, -55.453, 168.734, -20.940, -8.640, -17.453, 30.41, 0.10168, 0.4606, -0.07349, 0.87863,
 14:25:24.370,e3:ca:2d:fd:e0:8c, 2015-01-01 02:11:00.840, 0.837, -0.037, 0.58, 0.183, 0, 0, -3.598, -55.448, 168.739, -20.940, -8.640, -17.453, 30.41, 0.10168, 0.4606, -0.07349, 0.87863,
 14:25:24.374,ed:35:33:d3:6c:f8, 2015-01-01 02:10:59.965, 0.728, -0.017, 0.676, -0.854, 1.16, -0.61, -1.648, -47.444, 152.287, -20.287, -9.347, -25.160, 30.77, 0.22394, 0.39117, -0.10794, 0.88605,
 14:25:24.374,ed:35:33:d3:6c:f8, 2015-01-01 02:10:59.965, 0.728, -0.017, 0.677, -1.221, 1.282, -0.427, -1.653, -47.422, 152.26, -20.287, -9.347, -25.160, 30.77, 0.22394, 0.39117, -0.10794, 0.88605,
 14:25:24.374,f6:90:cc:01:6d:25, 2015-01-01 02:10:59.400, 0.982, 0.078, 0.063, -0.244, 0.671, -0.061, 53.696, -84.298, 125.722, -29.647, -12.240, -1.833, 32.35, -0.03204, -0.68622, -0.02487, -0.7262,
 14:25:24.374,f6:90:cc:01:6d:25, 2015-01-01 02:10:59.400, 0.979, 0.077, 0.061, -0.427, 0.854, 0, 53.569, -84.287, 125.788, -29.647, -12.240, -1.833, 32.35, -0.03204, -0.68622, -0.02487, -0.7262,
 14:25:24.395,ed:40:fe:65:30:6c, 2015-01-01 02:10:59.970, 0.855, 0.074, 0.52, -0.793, 0.671, 0.122, 8.152, -58.793, -134.11, -24.533, -11.260, 0.293, 28.5, 0.37057, -0.42731, -0.24844, -0.78629,
 14:25:24.395,ed:40:fe:65:30:6c, 2015-01-01 02:10:59.970, 0.854, 0.073, 0.518, -1.221, 0.61, 0, 8.124, -58.782, -134.099, -24.533, -11.260, 0.293, 28.5, 0.37057, -0.42731, -0.24844, -0.78629,
 14:25:24.419,f6:90:cc:01:6d:25, 2015-01-01 02:10:59.400, 0.979, 0.079, 0.062, -0.61, 0.427, 0.183, 53.443, -84.282, 125.804, -29.647, -12.240, -1.833, 32.35, -0.03204, -0.68622, -0.02487, -0.7262,
 14:25:24.419,f6:90:cc:01:6d:25, 2015-01-01 02:10:59.400, 0.98, 0.078, 0.063, -0.549, 0.244, 0.366, 53.339, -84.282, 125.804, -29.647, -12.240, -1.833, 32.35, -0.03204, -0.68622, -0.02487, -0.7262,
 14:25:24.439,e3:ca:2d:fd:e0:8c, 2015-01-01 02:11:00.840, 0.837, -0.039, 0.576, 0.061, 0, 0, -3.593, -55.448, 168.739, -20.940, -8.640, -17.453, 30.41, 0.10168, 0.4606, -0.07349, 0.87863,
 14:25:24.439,e3:ca:2d:fd:e0:8c, 2015-01-01 02:11:00.840, 0.838, -0.04, 0.577, 0, 0.122, 0, -3.598, -55.448, 168.734, -20.940, -8.640, -17.453, 30.41, 0.10168, 0.4606, -0.07349, 0.87863,
 14:25:24.439,ed:40:fe:65:30:6c, 2015-01-01 02:10:59.970, 0.854, 0.073, 0.519, -1.038, 0.366, 0.061, 8.097, -58.771, -134.105, -24.533, -11.260, 0.293, 28.5, 0.37057, -0.42731, -0.24844, -0.78629,
 14:25:24.439,ed:40:fe:65:30:6c, 2015-01-01 02:10:59.970, 0.854, 0.073, 0.517, -1.038, 0.305, 0.061, 8.075, -58.76, -134.11, -24.533, -11.260, 0.293, 28.5, 0.37057, -0.42731, -0.24844, -0.78629,
 14:25:24.441,ed:35:33:d3:6c:f8, 2015-01-01 02:10:59.965, 0.726, -0.018, 0.677, -1.709, 1.16, -0.488, -1.67, -47.395, 152.238, -20.287, -9.347, -25.160, 30.77, 0.22501, 0.38724, -0.10919, 0.88736,
 14:25:24.441,ed:35:33:d3:6c:f8, 2015-01-01 02:10:59.965, 0.728, -0.018, 0.676, -1.343, 0.977, -0.549, -1.692, -47.373, 152.21, -20.287, -9.347, -25.160, 30.77, 0.22501, 0.38724, -0.10919, 0.88736,
 14:25:24.460,ed:40:fe:65:30:6c, 2015-01-01 02:10:59.970, 0.854, 0.072, 0.517, -0.977, 0.061, 0.061, 8.053, -58.755, -134.11, -24.533, -11.260, 0.293, 28.5, 0.37057, -0.42731, -0.24844, -0.78629,
 14:25:24.460,ed:40:fe:65:30:6c, 2015-01-01 02:10:59.970, 0.857, 0.069, 0.517, -0.549, 0, 0, 8.031, -58.749, -134.105, -24.533, -11.260, 0.293, 28.5, 0.37057, -0.42731, -0.24844, -0.78629,
 14:25:24.460,e3:ca:2d:fd:e0:8c, 2015-01-01 02:11:00.840, 0.84, -0.039, 0.577, -0.122, 0.061, 0, -3.598, -55.443, 168.75, -20.620, -8.753, -16.627, 30.41, 0.10168, 0.4606, -0.07349, 0.87863,
 14:25:24.460,e3:ca:2d:fd:e0:8c, 2015-01-01 02:11:00.840, 0.839, -0.039, 0.576, -0.122, 0.183, 0, -3.604, -55.443, 168.783, -20.620, -8.753, -16.627, 30.41, 0.10168, 0.4606, -0.07349, 0.87863,
 14:25:24.462,ed:35:33:d3:6c:f8, 2015-01-01 02:11:00.325, 0.728, -0.017, 0.676, -1.282, 0.488, -0.427, -1.703, -47.351, 152.183, -20.287, -9.347, -25.160, 30.77, 0.22501, 0.38724, -0.10919, 0.88736,
 14:25:24.462,ed:35:33:d3:6c:f8, 2015-01-01 02:11:00.325, 0.727, -0.019, 0.675, -1.221, 0.244, -0.366, -1.719, -47.346, 152.15, -20.287, -9.347, -25.160, 30.77, 0.22501, 0.38724, -0.10919, 0.88736,
 14:25:24.463,f6:90:cc:01:6d:25, 2015-01-01 02:10:59.400, 0.979, 0.078, 0.062, -0.427, 0.122, 0.427, 53.24, -84.287, 125.843, -29.647, -12.240, -1.833, 32.35, -0.03204, -0.68622, -0.02487, -0.7262,
 14:25:24.463,f6:90:cc:01:6d:25, 2015-01-01 02:10:59.400, 0.98, 0.078, 0.061, -0.366, 0.122, 0.61, 53.141, -84.293, 125.936, -29.647, -12.240, -1.833, 32.35, -0.03204, -0.68622, -0.02487, -0.7262,
 14:25:24.485,ed:35:33:d3:6c:f8, 2015-01-01 02:11:00.325, 0.732, -0.022, 0.673, -0.977, 0.366, -0.366, -1.73, -47.335, 152.106, -20.287, -9.347, -25.160, 30.77, 0.22501, 0.38724, -0.10919, 0.88736,
 14:25:24.485,ed:35:33:d3:6c:f8, 2015-01-01 02:11:00.325, 0.733, -0.022, 0.672, -0.183, 0.305, -0.244, -1.736, -47.329, 152.078, -20.287, -9.347, -25.160, 30.77, 0.22501, 0.38724, -0.10919, 0.88736,
 14:25:24.505,e3:ca:2d:fd:e0:8c, 2015-01-01 02:11:00.840, 0.839, -0.038, 0.577, 0.122, 0.244, 0, -3.604, -55.437, 168.821, -20.620, -8.753, -16.627, 30.41, 0.10168, 0.4606, -0.07349, 0.87863,
 14:25:24.505,e3:ca:2d:fd:e0:8c, 2015-01-01 02:11:00.840, 0.839, -0.037, 0.576, 0.061, 0.305, 0, -3.604, -55.432, 168.838, -20.620, -8.753, -16.627, 30.41, 0.10168, 0.4606, -0.07349, 0.87863,
 14:25:24.509,f6:90:cc:01:6d:25, 2015-01-01 02:10:59.400, 0.979, 0.08, 0.062, 0, -0.061, 0.61, 53.047, -84.298, 126.041, -29.713, -11.793, -1.653, 32.35, -0.03204, -0.68622, -0.02487, -0.7262,
 14:25:24.509,f6:90:cc:01:6d:25, 2015-01-01 02:10:59.400, 0.981, 0.077, 0.06, 0.061, -0.183, 0.549, 52.993, -84.309, 126.123, -29.713, -11.793, -1.653, 32.35, -0.03204, -0.68622, -0.02487, -0.7262,
 14:25:24.528,e3:ca:2d:fd:e0:8c, 2015-01-01 02:11:00.840, 0.838, -0.036, 0.576, 0, 0.549, 0, -3.604, -55.421, 168.832, -20.620, -8.753, -16.627, 30.41, 0.10056, 0.4599, -0.07291, 0.87918,
 14:25:24.528,e3:ca:2d:fd:e0:8c, 2015-01-01 02:11:00.840, 0.838, -0.036, 0.578, -0.061, 0.549, 0, -3.604, -55.41, 168.81, -20.620, -8.753, -16.627, 30.41, 0.10056, 0.4599, -0.07291, 0.87918,
 14:25:24.528,ed:40:fe:65:30:6c, 2015-01-01 02:10:59.970, 0.859, 0.068, 0.514, 0.122, 0, 0, 8.02, -58.749, -134.11, -24.533, -11.260, 0.293, 28.5, 0.37057, -0.42731, -0.24844, -0.78629,
 14:25:24.528,ed:40:fe:65:30:6c, 2015-01-01 02:10:59.970, 0.857, 0.066, 0.514, 0.671, -0.061, 0.244, 8.026, -58.749, -134.11, -24.533, -11.260, 0.293, 28.5, 0.37057, -0.42731, -0.24844, -0.78629,
 14:25:24.529,ed:35:33:d3:6c:f8, 2015-01-01 02:11:00.325, 0.73, -0.022, 0.672, 0.427, -0.061, 0.427, -1.736, -47.324, 152.056, -20.287, -9.347, -25.160, 30.77, 0.22501, 0.38724, -0.10919, 0.88736,
 14:25:24.529,ed:35:33:d3:6c:f8, 2015-01-01 02:11:00.325, 0.728, -0.022, 0.673, 0.977, -0.366, 0.916, -1.736, -47.324, 152.045, -20.287, -9.347, -25.160, 30.77, 0.22501, 0.38724, -0.10919, 0.88736,
 14:25:24.532,f6:90:cc:01:6d:25, 2015-01-01 02:10:59.400, 0.982, 0.076, 0.057, 0.244, -0.183, 0.366, 52.96, -84.315, 126.172, -29.713, -11.793, -1.653, 32.35, -0.03339, -0.6853, -0.0228, -0.72708,
 14:25:24.532,f6:90:cc:01:6d:25, 2015-01-01 02:10:59.400, 0.981, 0.077, 0.06, 0.427, -0.122, 0.244, 52.943, -84.32, 126.205, -29.713, -11.793, -1.653, 32.35, -0.03339, -0.6853, -0.0228, -0.72708,
 14:25:24.553,ed:40:fe:65:30:6c, 2015-01-01 02:10:59.970, 0.855, 0.068, 0.516, 1.16, -0.122, 0.488, 8.026, -58.749, -134.11, -24.167, -11.540, 0.453, 28.5, 0.37057, -0.42731, -0.24844, -0.78629,
 14:25:24.553,ed:40:fe:65:30:6c, 2015-01-01 02:10:59.970, 0.854, 0.07, 0.515, 1.282, -0.061, 0.427, 8.031, -58.755, -134.105, -24.167, -11.540, 0.453, 28.5, 0.37057, -0.42731, -0.24844, -0.78629,
 14:25:24.572,e3:ca:2d:fd:e0:8c, 2015-01-01 02:11:00.840, 0.837, -0.036, 0.578, 0, 0.488, 0, -3.604, -55.399, 168.794, -20.620, -8.753, -16.627, 30.41, 0.10056, 0.4599, -0.07291, 0.87918,
 14:25:24.572,e3:ca:2d:fd:e0:8c, 2015-01-01 02:11:00.840, 0.836, -0.036, 0.578, 0, 0.305, 0, -3.604, -55.393, 168.788, -20.620, -8.753, -16.627, 30.41, 0.10056, 0.4599, -0.07291, 0.87918,
 14:25:24.575,ed:35:33:d3:6c:f8, 2015-01-01 02:11:00.325, 0.728, -0.02, 0.674, 1.038, -0.366, 0.916, -1.736, -47.329, 152.056, -20.287, -9.347, -25.160, 30.77, 0.22501, 0.38724, -0.10919, 0.88736,
 14:25:24.575,ed:35:33:d3:6c:f8, 2015-01-01 02:11:00.325, 0.73, -0.021, 0.67, 0.732, -0.305, 0.549, -1.736, -47.335, 152.073, -20.287, -9.347, -25.160, 30.77, 0.22501, 0.38724, -0.10919, 0.88736,
 14:25:24.576,f6:90:cc:01:6d:25, 2015-01-01 02:10:59.400, 0.98, 0.08, 0.059, 0.488, -0.183, 0.122, 52.949, -84.326, 126.233, -29.713, -11.793, -1.653, 32.35, -0.03339, -0.6853, -0.0228, -0.72708,
 14:25:24.576,f6:90:cc:01:6d:25, 2015-01-01 02:10:59.400, 0.979, 0.08, 0.059, 0.366, -0.061, 0, 52.965, -84.326, 126.238, -29.713, -11.793, -1.653, 32.35, -0.03339, -0.6853, -0.0228, -0.72708,
 14:25:24.597,ed:40:fe:65:30:6c, 2015-01-01 02:10:59.970, 0.857, 0.071, 0.512, 1.099, -0.061, 0.244, 8.042, -58.755, -134.11, -24.167, -11.540, 0.453, 28.5, 0.37057, -0.42731, -0.24844, -0.78629,
 14:25:24.597,ed:40:fe:65:30:6c, 2015-01-01 02:10:59.970, 0.858, 0.073, 0.514, 0.977, -0.122, -0.122, 8.053, -58.755, -134.132, -24.167, -11.540, 0.453, 28.5, 0.37057, -0.42731, -0.24844, -0.78629,
 14:25:24.618,e3:ca:2d:fd:e0:8c, 2015-01-01 02:11:01.180, 0.837, -0.036, 0.579, 0.183, 0.305, 0, -3.604, -55.388, 168.788, -20.620, -8.753, -16.627, 30.41, 0.10056, 0.4599, -0.07291, 0.87918,
 14:25:24.618,e3:ca:2d:fd:e0:8c, 2015-01-01 02:11:01.180, 0.837, -0.035, 0.578, 0.305, 0.244, 0.366, -3.604, -55.382, 168.799, -20.620, -8.753, -16.627, 30.41, 0.10056, 0.4599, -0.07291, 0.87918,
 14:25:24.620,ed:35:33:d3:6c:f8, 2015-01-01 02:11:00.325, 0.73, -0.021, 0.672, 0.854, 0, -0.061, -1.73, -47.34, 152.067, -20.287, -9.347, -25.160, 30.77, 0.22501, 0.38724, -0.10919, 0.88736,
 14:25:24.620,ed:35:33:d3:6c:f8, 2015-01-01 02:11:00.325, 0.731, -0.021, 0.672, 0.916, 0.061, -0.549, -1.708, -47.34, 152.056, -20.287, -9.347, -25.160, 30.77, 0.22501, 0.38724, -0.10919, 0.88736,
 14:25:24.621,f6:90:cc:01:6d:25, 2015-01-01 02:10:59.690, 0.982, 0.082, 0.062, 0.488, 0.122, 0, 52.965, -84.326, 126.255, -29.713, -11.793, -1.653, 32.35, -0.03339, -0.6853, -0.0228, -0.72708,
 14:25:24.621,f6:90:cc:01:6d:25, 2015-01-01 02:10:59.690, 0.983, 0.08, 0.06, 0.488, 0.183, 0.061, 52.943, -84.326, 126.288, -29.713, -11.793, -1.653, 32.35, -0.03339, -0.6853, -0.0228, -0.72708,
 14:25:24.643,e3:ca:2d:fd:e0:8c, 2015-01-01 02:11:01.180, 0.838, -0.035, 0.578, 0.366, 0.244, 0.488, -3.609, -55.377, 168.81, -20.620, -8.753, -16.627, 30.41, 0.10056, 0.4599, -0.07291, 0.87918,
 14:25:24.643,e3:ca:2d:fd:e0:8c, 2015-01-01 02:11:01.180, 0.837, -0.037, 0.577, 0.427, 0.305, 0.549, -3.615, -55.371, 168.827, -20.620, -8.753, -16.627, 30.41, 0.10056, 0.4599, -0.07291, 0.87918,
 14:25:24.665,f6:90:cc:01:6d:25, 2015-01-01 02:10:59.690, 0.981, 0.076, 0.057, 0.305, 0.427, 0, 52.899, -84.32, 126.348, -29.713, -11.793, -1.653, 32.35, -0.03339, -0.6853, -0.0228, -0.72708,
 14:25:24.665,f6:90:cc:01:6d:25, 2015-01-01 02:10:59.690, 0.984, 0.077, 0.061, 0.122, 0.366, -0.061, 52.844, -84.315, 126.414, -29.713, -11.793, -1.653, 32.35, -0.03339, -0.6853, -0.0228, -0.72708,
 14:25:24.665,ed:35:33:d3:6c:f8, 2015-01-01 02:11:00.325, 0.736, -0.021, 0.667, 0.61, 0.61, -0.916, -1.675, -47.335, 152.029, -20.287, -9.347, -25.160, 30.77, 0.22501, 0.38724, -0.10919, 0.88736,
 14:25:24.665,ed:35:33:d3:6c:f8, 2015-01-01 02:11:00.325, 0.735, -0.015, 0.672, 0, 1.221, -1.343, -1.648, -47.318, 152.007, -20.287, -9.347, -25.160, 30.77, 0.22501, 0.38724, -0.10919, 0.88736,
 14:25:24.685,e3:ca:2d:fd:e0:8c, 2015-01-01 02:11:01.180, 0.838, -0.038, 0.579, 0.427, 0.305, 0.488, -3.62, -55.36, 168.838, -20.620, -8.753, -16.627, 30.41, 0.10056, 0.4599, -0.07291, 0.87918,
 14:25:24.685,e3:ca:2d:fd:e0:8c, 2015-01-01 02:11:01.180, 0.838, -0.038, 0.579, 0.427, 0.244, 0.427, -3.625, -55.355, 168.854, -20.620, -8.753, -16.627, 30.41, 0.10056, 0.4599, -0.07291, 0.87918,
 14:25:24.687,ed:40:fe:65:30:6c, 2015-01-01 02:10:59.970, 0.858, 0.071, 0.513, 1.038, -0.244, -0.488, 8.08, -58.76, -134.154, -24.167, -11.540, 0.453, 28.5, 0.37042, -0.42682, -0.24707, -0.78705,
 14:25:24.687,ed:40:fe:65:30:6c, 2015-01-01 02:10:59.970, 0.861, 0.07, 0.511, 1.038, 0.244, -0.549, 8.113, -58.76, -134.176, -24.167, -11.540, 0.453, 28.5, 0.37042, -0.42682, -0.24707, -0.78705,
 14:25:24.687,ed:35:33:d3:6c:f8, 2015-01-01 02:11:00.325, 0.734, -0.015, 0.676, 0.183, 0.916, -0.916, -1.62, -47.302, 151.974, -19.920, -9.260, -25.233, 30.77, 0.22501, 0.38724, -0.10919, 0.88736,
 14:25:24.687,ed:35:33:d3:6c:f8, 2015-01-01 02:11:00.325, 0.729, -0.016, 0.676, 0.305, 0.549, -0.244, -1.599, -47.285, 151.946, -19.920, -9.260, -25.233, 30.77, 0.22501, 0.38724, -0.10919, 0.88736,
 14:25:24.709,ed:40:fe:65:30:6c, 2015-01-01 02:11:00.325, 0.862, 0.075, 0.513, 0.183, 0.61, -0.854, 8.146, -58.749, -134.193, -24.167, -11.540, 0.453, 28.5, 0.37042, -0.42682, -0.24707, -0.78705,
 14:25:24.709,ed:40:fe:65:30:6c, 2015-01-01 02:11:00.325, 0.861, 0.075, 0.515, 0, 0.732, -0.793, 8.174, -58.738, -134.225, -24.167, -11.540, 0.453, 28.5, 0.37042, -0.42682, -0.24707, -0.78705,
 14:25:24.712,f6:90:cc:01:6d:25, 2015-01-01 02:10:59.690, 0.985, 0.078, 0.06, -0.061, 0.366, 0, 52.784, -84.309, 126.469, -29.713, -11.793, -1.653, 32.35, -0.03339, -0.6853, -0.0228, -0.72708,
 14:25:24.712,f6:90:cc:01:6d:25, 2015-01-01 02:10:59.690, 0.981, 0.077, 0.06, -0.305, 0.244, 0, 52.734, -84.304, 126.508, -29.713, -11.793, -1.653, 32.35, -0.03339, -0.6853, -0.0228, -0.72708,
 14:25:24.731,ed:40:fe:65:30:6c, 2015-01-01 02:11:00.325, 0.856, 0.073, 0.516, 0.183, 0.61, -0.549, 8.19, -58.722, -134.264, -24.167, -11.540, 0.453, 28.5, 0.37042, -0.42682, -0.24707, -0.78705,
 14:25:24.731,ed:40:fe:65:30:6c, 2015-01-01 02:11:00.325, 0.854, 0.069, 0.514, 0.305, 0.61, -0.305, 8.207, -58.711, -134.297, -24.167, -11.540, 0.453, 28.5, 0.37042, -0.42682, -0.24707, -0.78705,
 14:25:24.732,ed:35:33:d3:6c:f8, 2015-01-01 02:11:00.325, 0.726, -0.021, 0.673, 0.366, 0.061, 0.183, -1.588, -47.28, 151.935, -19.920, -9.260, -25.233, 30.77, 0.22501, 0.38724, -0.10919, 0.88736,
 14:25:24.732,ed:35:33:d3:6c:f8, 2015-01-01 02:11:00.325, 0.726, -0.021, 0.67, 0.854, 0.061, 0.183, -1.582, -47.28, 151.952, -19.920, -9.260, -25.233, 30.77, 0.22501, 0.38724, -0.10919, 0.88736,
 14:25:24.733,f6:90:cc:01:6d:25, 2015-01-01 02:10:59.690, 0.978, 0.075, 0.059, -0.061, 0.183, 0.122, 52.685, -84.304, 126.562, -29.713, -11.793, -1.653, 32.35, -0.03339, -0.6853, -0.0228, -0.72708,
 14:25:24.733,f6:90:cc:01:6d:25, 2015-01-01 02:10:59.690, 0.979, 0.076, 0.057, 0.122, 0.183, 0.061, 52.646, -84.298, 126.634, -29.713, -11.793, -1.653, 32.35, -0.03339, -0.6853, -0.0228, -0.72708,
 14:25:24.753,e3:ca:2d:fd:e0:8c, 2015-01-01 02:11:01.180, 0.839, -0.039, 0.578, 0.183, 0.122, 0.244, -3.631, -55.355, 168.86, -20.620, -8.753, -16.627, 30.41, 0.10056, 0.4599, -0.07291, 0.87918,
 14:25:24.753,e3:ca:2d:fd:e0:8c, 2015-01-01 02:11:01.180, 0.838, -0.039, 0.578, 0.061, 0.183, 0.183, -3.636, -55.349, 168.865, -20.620, -8.753, -16.627, 30.41, 0.10056, 0.4599, -0.07291, 0.87918,
 14:25:24.753,ed:40:fe:65:30:6c, 2015-01-01 02:11:00.325, 0.854, 0.069, 0.513, 0.793, 0.427, -0.305, 8.218, -58.7, -134.319, -24.167, -11.540, 0.453, 28.5, 0.37042, -0.42682, -0.24707, -0.78705,
 14:25:24.753,ed:40:fe:65:30:6c, 2015-01-01 02:11:00.325, 0.856, 0.072, 0.512, 0.854, 0.427, -0.244, 8.24, -58.694, -134.341, -24.167, -11.540, 0.453, 28.5, 0.37042, -0.42682, -0.24707, -0.78705,
 14:25:24.779,f6:90:cc:01:6d:25, 2015-01-01 02:10:59.690, 0.98, 0.076, 0.057, 0.122, 0.244, -0.061, 52.614, -84.298, 126.694, -29.713, -11.793, -1.653, 32.35, -0.03339, -0.6853, -0.0228, -0.72708,
 14:25:24.779,f6:90:cc:01:6d:25, 2015-01-01 02:10:59.690, 0.982, 0.076, 0.059, 0, 0.366, 0, 52.564, -84.293, 126.749, -29.713, -11.793, -1.653, 32.35, -0.03339, -0.6853, -0.0228, -0.72708,
 14:25:24.799,ed:40:fe:65:30:6c, 2015-01-01 02:11:00.325, 0.859, 0.075, 0.514, 0.61, 0.366, -0.122, 8.251, -58.683, -134.352, -24.167, -11.540, 0.453, 28.5, 0.37042, -0.42682, -0.24707, -0.78705,
 14:25:24.799,ed:40:fe:65:30:6c, 2015-01-01 02:11:00.325, 0.859, 0.076, 0.516, 0.366, 0.366, -0.061, 8.262, -58.678, -134.352, -24.167, -11.540, 0.453, 28.5, 0.37042, -0.42682, -0.24707, -0.78705,
 14:25:24.799,e3:ca:2d:fd:e0:8c, 2015-01-01 02:11:01.180, 0.837, -0.039, 0.577, 0.122, 0.244, 0.183, -3.636, -55.344, 168.865, -20.620, -8.753, -16.627, 30.41, 0.10056, 0.4599, -0.07291, 0.87918,
 14:25:24.799,e3:ca:2d:fd:e0:8c, 2015-01-01 02:11:01.180, 0.838, -0.039, 0.578, 0.183, 0.366, 0.244, -3.642, -55.338, 168.871, -20.620, -8.753, -16.627, 30.41, 0.10056, 0.4599, -0.07291, 0.87918,
 14:25:24.800,ed:35:33:d3:6c:f8, 2015-01-01 02:11:00.325, 0.73, -0.018, 0.672, 0.854, 0.366, -0.122, -1.571, -47.274, 151.979, -19.920, -9.260, -25.233, 30.77, 0.22736, 0.38589, -0.10947, 0.8873,
 14:25:24.800,ed:35:33:d3:6c:f8, 2015-01-01 02:11:00.325, 0.732, -0.015, 0.673, 0.427, 0.977, -0.244, -1.555, -47.263, 151.979, -19.920, -9.260, -25.233, 30.77, 0.22736, 0.38589, -0.10947, 0.8873,
 14:25:24.820,e3:ca:2d:fd:e0:8c, 2015-01-01 02:11:01.180, 0.837, -0.039, 0.578, 0.244, 0.488, 0.122, -3.642, -55.327, 168.876, -20.860, -9.020, -17.867, 30.41, 0.10056, 0.4599, -0.07291, 0.87918,
 14:25:24.820,e3:ca:2d:fd:e0:8c, 2015-01-01 02:11:01.180, 0.837, -0.039, 0.579, 0.122, 0.549, 0, -3.642, -55.316, 168.871, -20.860, -9.020, -17.867, 30.41, 0.10056, 0.4599, -0.07291, 0.87918,
 14:25:24.821,ed:35:33:d3:6c:f8, 2015-01-01 02:11:00.680, 0.731, -0.014, 0.675, 0.061, 1.282, -0.244, -1.538, -47.247, 151.968, -19.920, -9.260, -25.233, 30.77, 0.22736, 0.38589, -0.10947, 0.8873,
 14:25:24.821,ed:35:33:d3:6c:f8, 2015-01-01 02:11:00.680, 0.729, -0.014, 0.677, -0.061, 1.16, 0, -1.533, -47.219, 151.952, -19.920, -9.260, -25.233, 30.77, 0.22736, 0.38589, -0.10947, 0.8873,
 14:25:24.823,f6:90:cc:01:6d:25, 2015-01-01 02:10:59.690, 0.983, 0.075, 0.061, -0.061, 0.305, 0.061, 52.504, -84.293, 126.793, -29.467, -11.640, -1.920, 32.35, -0.03339, -0.6853, -0.0228, -0.72708,
 14:25:24.823,f6:90:cc:01:6d:25, 2015-01-01 02:10:59.690, 0.982, 0.076, 0.061, 0, 0.183, 0.122, 52.454, -84.293, 126.826, -29.467, -11.640, -1.920, 32.35, -0.03339, -0.6853, -0.0228, -0.72708,
 14:25:24.843,ed:40:fe:65:30:6c, 2015-01-01 02:11:00.325, 0.857, 0.076, 0.518, 0.061, 0.427, 0, 8.262, -58.672, -134.357, -24.167, -11.540, 0.453, 28.5, 0.37042, -0.42682, -0.24707, -0.78705,
 14:25:24.843,ed:40:fe:65:30:6c, 2015-01-01 02:11:00.325, 0.856, 0.075, 0.518, 0, 0.488, 0.122, 8.256, -58.667, -134.363, -24.167, -11.540, 0.453, 28.5, 0.37042, -0.42682, -0.24707, -0.78705,
 14:25:24.844,ed:35:33:d3:6c:f8, 2015-01-01 02:11:00.680, 0.728, -0.016, 0.678, -0.183, 0.977, 0.122, -1.538, -47.203, 151.946, -19.920, -9.260, -25.233, 30.77, 0.22736, 0.38589, -0.10947, 0.8873,
 14:25:24.844,ed:35:33:d3:6c:f8, 2015-01-01 02:11:00.680, 0.725, -0.017, 0.678, -0.244, 0.732, 0.183, -1.538, -47.181, 151.935, -19.920, -9.260, -25.233, 30.77, 0.22736, 0.38589, -0.10947, 0.8873,
 14:25:24.865,e3:ca:2d:fd:e0:8c, 2015-01-01 02:11:01.180, 0.837, -0.038, 0.579, -0.061, 0.427, -0.244, -3.636, -55.311, 168.86, -20.860, -9.020, -17.867, 30.41, 0.10056, 0.4599, -0.07291, 0.87918,
 14:25:24.865,e3:ca:2d:fd:e0:8c, 2015-01-01 02:11:01.180, 0.836, -0.038, 0.579, -0.183, 0.366, -0.366, -3.631, -55.305, 168.849, -20.860, -9.020, -17.867, 30.41, 0.10056, 0.4599, -0.07291, 0.87918,
 14:25:24.866,ed:40:fe:65:30:6c, 2015-01-01 02:11:00.325, 0.854, 0.074, 0.517, 0, 0.366, 0.183, 8.251, -58.656, -134.368, -24.167, -11.540, 0.453, 28.5, 0.37042, -0.42682, -0.24707, -0.78705,
 14:25:24.866,ed:40:fe:65:30:6c, 2015-01-01 02:11:00.325, 0.854, 0.073, 0.518, -0.061, 0.366, 0.244, 8.24, -58.651, -134.368, -24.167, -11.540, 0.453, 28.5, 0.37042, -0.42682, -0.24707, -0.78705,
 14:25:24.868,f6:90:cc:01:6d:25, 2015-01-01 02:10:59.690, 0.981, 0.076, 0.062, -0.122, 0.122, 0.183, 52.405, -84.293, 126.876, -29.467, -11.640, -1.920, 32.35, -0.03241, -0.68488, -0.02359, -0.72748,
 14:25:24.868,f6:90:cc:01:6d:25, 2015-01-01 02:10:59.690, 0.98, 0.077, 0.061, -0.244, 0.122, 0.183, 52.35, -84.293, 126.931, -29.467, -11.640, -1.920, 32.35, -0.03241, -0.68488, -0.02359, -0.72748,
 14:25:24.888,e3:ca:2d:fd:e0:8c, 2015-01-01 02:11:01.180, 0.836, -0.038, 0.579, -0.183, 0.366, -0.366, -3.625, -55.294, 168.832, -20.860, -9.020, -17.867, 30.41, 0.10068, 0.45889, -0.073, 0.87967,
 14:25:24.888,e3:ca:2d:fd:e0:8c, 2015-01-01 02:11:01.180, 0.837, -0.038, 0.579, -0.183, 0.366, -0.366, -3.62, -55.289, 168.816, -20.860, -9.020, -17.867, 30.41, 0.10068, 0.45889, -0.073, 0.87967,
 14:25:24.890,ed:35:33:d3:6c:f8, 2015-01-01 02:11:00.680, 0.724, -0.018, 0.678, -0.244, 0.549, 0.183, -1.549, -47.17, 151.913, -19.920, -9.260, -25.233, 30.77, 0.22736, 0.38589, -0.10947, 0.8873,
 14:25:24.890,ed:35:33:d3:6c:f8, 2015-01-01 02:11:00.680, 0.725, -0.019, 0.679, -0.549, 0.488, 0.183, -1.555, -47.159, 151.897, -19.920, -9.260, -25.233, 30.77, 0.22736, 0.38589, -0.10947, 0.8873,
 14:25:24.891,f6:90:cc:01:6d:25, 2015-01-01 02:11:00.005, 0.98, 0.077, 0.059, -0.244, 0.061, 0.122, 52.311, -84.298, 126.964, -29.467, -11.640, -1.920, 32.35, -0.03241, -0.68488, -0.02359, -0.72748,
 14:25:24.891,f6:90:cc:01:6d:25, 2015-01-01 02:11:00.005, 0.981, 0.078, 0.062, -0.122, 0.061, 0.061, 52.284, -84.298, 126.974, -29.467, -11.640, -1.920, 32.35, -0.03241, -0.68488, -0.02359, -0.72748,
 14:25:24.912,ed:40:fe:65:30:6c, 2015-01-01 02:11:00.325, 0.854, 0.073, 0.518, -0.244, 0.244, 0.183, 8.229, -58.645, -134.357, -24.167, -11.540, 0.453, 28.5, 0.37042, -0.42682, -0.24707, -0.78705,
 14:25:24.912,ed:40:fe:65:30:6c, 2015-01-01 02:11:00.325, 0.855, 0.073, 0.516, -0.305, 0.122, 0.183, 8.212, -58.645, -134.352, -24.167, -11.540, 0.453, 28.5, 0.37042, -0.42682, -0.24707, -0.78705,
 14:25:24.932,e3:ca:2d:fd:e0:8c, 2015-01-01 02:11:01.180, 0.836, -0.037, 0.579, -0.061, 0.244, -0.244, -3.615, -55.283, 168.805, -20.860, -9.020, -17.867, 30.41, 0.10068, 0.45889, -0.073, 0.87967,
 14:25:24.932,e3:ca:2d:fd:e0:8c, 2015-01-01 02:11:01.180, 0.836, -0.038, 0.579, 0, 0.244, -0.244, -3.609, -55.278, 168.794, -20.860, -9.020, -17.867, 30.41, 0.10068, 0.45889, -0.073, 0.87967,
 14:25:24.935,f6:90:cc:01:6d:25, 2015-01-01 02:11:00.005, 0.98, 0.078, 0.063, -0.183, 0.183, 0.061, 52.245, -84.298, 127.013, -29.467, -11.640, -1.920, 32.35, -0.03241, -0.68488, -0.02359, -0.72748,
 14:25:24.935,f6:90:cc:01:6d:25, 2015-01-01 02:11:00.005, 0.98, 0.077, 0.061, 0, 0.305, 0.122, 52.18, -84.293, 127.057, -29.467, -11.640, -1.920, 32.35, -0.03241, -0.68488, -0.02359, -0.72748,
 14:25:24.935,ed:35:33:d3:6c:f8, 2015-01-01 02:11:00.680, 0.726, -0.018, 0.675, -0.732, 0.732, -0.061, -1.571, -47.148, 151.88, -19.920, -9.260, -25.233, 30.77, 0.22736, 0.38589, -0.10947, 0.8873,
 14:25:24.935,ed:35:33:d3:6c:f8, 2015-01-01 02:11:00.680, 0.725, -0.014, 0.677, -0.854, 1.099, -0.305, -1.582, -47.131, 151.848, -19.920, -9.260, -25.233, 30.77, 0.22736, 0.38589, -0.10947, 0.8873,
 14:25:24.977,e3:ca:2d:fd:e0:8c, 2015-01-01 02:11:01.535, 0.836, -0.037, 0.581, -0.061, 0.122, -0.305, -3.604, -55.278, 168.777, -20.860, -9.020, -17.867, 30.41, 0.10068, 0.45889, -0.073, 0.87967,
 14:25:24.977,e3:ca:2d:fd:e0:8c, 2015-01-01 02:11:01.535, 0.837, -0.036, 0.579, -0.061, 0.122, -0.244, -3.598, -55.278, 168.766, -20.860, -9.020, -17.867, 30.41, 0.10068, 0.45889, -0.073, 0.87967,
 14:25:24.980,ed:35:33:d3:6c:f8, 2015-01-01 02:11:00.680, 0.726, -0.014, 0.678, -0.61, 1.16, 0, -1.588, -47.109, 151.826, -19.920, -9.260, -25.233, 30.77, 0.22736, 0.38589, -0.10947, 0.8873,
 14:25:24.980,ed:35:33:d3:6c:f8, 2015-01-01 02:11:00.680, 0.724, -0.018, 0.678, -0.61, 0.916, 0.122, -1.599, -47.082, 151.837, -19.920, -9.260, -25.233, 30.77, 0.22736, 0.38589, -0.10947, 0.8873,
 14:25:24.982,f6:90:cc:01:6d:25, 2015-01-01 02:11:00.005, 0.98, 0.076, 0.06, -0.061, 0.122, 0, 52.141, -84.293, 127.084, -29.467, -11.640, -1.920, 32.35, -0.03241, -0.68488, -0.02359, -0.72748,
 14:25:24.982,f6:90:cc:01:6d:25, 2015-01-01 02:11:00.005, 0.979, 0.079, 0.059, 0.183, 0.122, 0, 52.119, -84.293, 127.123, -29.467, -11.640, -1.920, 32.35, -0.03241, -0.68488, -0.02359, -0.72748,
 14:25:25.001,ed:40:fe:65:30:6c, 2015-01-01 02:11:00.325, 0.854, 0.075, 0.516, -0.488, 0.244, 0.061, 8.201, -58.64, -134.352, -24.300, -11.340, 0.140, 28.5, 0.37042, -0.42682, -0.24707, -0.78705,
 14:25:25.001,ed:40:fe:65:30:6c, 2015-01-01 02:11:00.325, 0.854, 0.075, 0.517, -0.244, 0.305, 0.244, 8.185, -58.634, -134.33, -24.300, -11.340, 0.140, 28.5, 0.37042, -0.42682, -0.24707, -0.78705,
 14:25:25.024,ed:40:fe:65:30:6c, 2015-01-01 02:11:00.325, 0.854, 0.075, 0.517, -0.122, 0.122, 0.488, 8.168, -58.629, -134.308, -24.300, -11.340, 0.140, 28.5, 0.36978, -0.42593, -0.24686, -0.7879,
 14:25:25.024,ed:40:fe:65:30:6c, 2015-01-01 02:11:00.325, 0.854, 0.074, 0.517, -0.183, 0.061, 0.244, 8.152, -58.629, -134.291, -24.300, -11.340, 0.140, 28.5, 0.36978, -0.42593, -0.24686, -0.7879,
 14:25:25.024,e3:ca:2d:fd:e0:8c, 2015-01-01 02:11:01.535, 0.837, -0.036, 0.579, 0, 0.244, -0.183, -3.593, -55.272, 168.761, -20.860, -9.020, -17.867, 30.41, 0.10068, 0.45889, -0.073, 0.87967,
 14:25:25.024,e3:ca:2d:fd:e0:8c, 2015-01-01 02:11:01.535, 0.837, -0.035, 0.579, 0, 0.305, -0.061, -3.593, -55.267, 168.755, -20.860, -9.020, -17.867, 30.41, 0.10068, 0.45889, -0.073, 0.87967,
 14:25:25.026,f6:90:cc:01:6d:25, 2015-01-01 02:11:00.005, 0.98, 0.081, 0.061, 0.061, -0.183, 0.061, 52.136, -84.293, 127.134, -29.467, -11.640, -1.920, 32.35, -0.03241, -0.68488, -0.02359, -0.72748,
 14:25:25.026,f6:90:cc:01:6d:25, 2015-01-01 02:11:00.005, 0.981, 0.08, 0.062, -0.061, 0, 0.122, 52.125, -84.293, 127.134, -29.467, -11.640, -1.920, 32.35, -0.03241, -0.68488, -0.02359, -0.72748,
 14:25:25.026,ed:35:33:d3:6c:f8, 2015-01-01 02:11:00.680, 0.723, -0.018, 0.679, -0.671, 0.671, -0.122, -1.609, -47.065, 151.853, -19.920, -9.260, -25.233, 30.77, 0.22736, 0.38589, -0.10947, 0.8873,
 14:25:25.026,ed:35:33:d3:6c:f8, 2015-01-01 02:11:00.680, 0.727, -0.016, 0.68, -0.977, 0.549, -0.427, -1.615, -47.054, 151.842, -19.920, -9.260, -25.233, 30.77, 0.22736, 0.38589, -0.10947, 0.8873,
 14:25:25.045,e3:ca:2d:fd:e0:8c, 2015-01-01 02:11:01.535, 0.836, -0.036, 0.58, 0, 0.427, 0, -3.593, -55.256, 168.75, -20.860, -9.020, -17.867, 30.41, 0.10068, 0.45889, -0.073, 0.87967,
 14:25:25.045,e3:ca:2d:fd:e0:8c, 2015-01-01 02:11:01.535, 0.836, -0.038, 0.58, 0, 0.488, 0, -3.593, -55.245, 168.75, -20.860, -9.020, -17.867, 30.41, 0.10068, 0.45889, -0.073, 0.87967,
 14:25:25.048,ed:35:33:d3:6c:f8, 2015-01-01 02:11:00.680, 0.726, -0.016, 0.68, -1.282, 0.793, -0.61, -1.626, -47.038, 151.804, -19.907, -9.140, -26.267, 30.77, 0.22736, 0.38589, -0.10947, 0.8873,
 14:25:25.048,ed:35:33:d3:6c:f8, 2015-01-01 02:11:00.680, 0.725, -0.019, 0.679, -0.916, 0.427, -0.427, -1.637, -47.027, 151.738, -19.907, -9.140, -26.267, 30.77, 0.22736, 0.38589, -0.10947, 0.8873,
 14:25:25.070,ed:40:fe:65:30:6c, 2015-01-01 02:11:00.325, 0.856, 0.076, 0.518, -0.366, -0.061, 0.122, 8.141, -58.629, -134.28, -24.300, -11.340, 0.140, 28.5, 0.36978, -0.42593, -0.24686, -0.7879,
 14:25:25.070,ed:40:fe:65:30:6c, 2015-01-01 02:11:00.325, 0.856, 0.076, 0.517, -0.671, -0.061, 0, 8.13, -58.629, -134.28, -24.300, -11.340, 0.140, 28.5, 0.36978, -0.42593, -0.24686, -0.7879,
 14:25:25.071,f6:90:cc:01:6d:25, 2015-01-01 02:11:00.005, 0.982, 0.078, 0.063, 0, 0, 0, 52.119, -84.293, 127.145, -29.467, -11.640, -1.920, 32.35, -0.03241, -0.68488, -0.02359, -0.72748,
 14:25:25.071,f6:90:cc:01:6d:25, 2015-01-01 02:11:00.005, 0.981, 0.077, 0.062, 0, 0, 0, 52.119, -84.293, 127.134, -29.467, -11.640, -1.920, 32.35, -0.03241, -0.68488, -0.02359, -0.72748,
 14:25:25.090,e3:ca:2d:fd:e0:8c, 2015-01-01 02:11:01.535, 0.836, -0.038, 0.581, 0, 0.488, -0.061, -3.587, -55.239, 168.745, -20.860, -9.020, -17.867, 30.41, 0.10068, 0.45889, -0.073, 0.87967,
 14:25:25.090,e3:ca:2d:fd:e0:8c, 2015-01-01 02:11:01.535, 0.836, -0.038, 0.581, 0.061, 0.305, 0, -3.587, -55.228, 168.739, -20.860, -9.020, -17.867, 30.41, 0.10068, 0.45889, -0.073, 0.87967,
 14:25:25.094,f6:90:cc:01:6d:25, 2015-01-01 02:11:00.005, 0.98, 0.076, 0.06, 0, 0, 0, 52.114, -84.293, 127.139, -29.480, -11.573, -1.767, 32.35, -0.03241, -0.68488, -0.02359, -0.72748,
 14:25:25.094,f6:90:cc:01:6d:25, 2015-01-01 02:11:00.005, 0.979, 0.076, 0.06, 0, -0.061, 0, 52.119, -84.293, 127.139, -29.480, -11.573, -1.767, 32.35, -0.03241, -0.68488, -0.02359, -0.72748,
 14:25:25.094,ed:35:33:d3:6c:f8, 2015-01-01 02:11:00.680, 0.726, -0.021, 0.677, -0.427, 0.183, -0.183, -1.637, -47.016, 151.688, -19.907, -9.140, -26.267, 30.77, 0.22736, 0.38589, -0.10947, 0.8873,
 14:25:25.094,ed:35:33:d3:6c:f8, 2015-01-01 02:11:00.680, 0.728, -0.022, 0.675, 0, 0, 0.183, -1.642, -47.01, 151.655, -19.907, -9.140, -26.267, 30.77, 0.22736, 0.38589, -0.10947, 0.8873,
 14:25:25.114,ed:40:fe:65:30:6c, 2015-01-01 02:11:00.325, 0.855, 0.073, 0.517, -0.488, -0.183, 0.122, 8.119, -58.634, -134.28, -24.300, -11.340, 0.140, 28.5, 0.36978, -0.42593, -0.24686, -0.7879,
 14:25:25.114,ed:40:fe:65:30:6c, 2015-01-01 02:11:00.325, 0.855, 0.069, 0.517, 0, 0, 0.183, 8.113, -58.634, -134.297, -24.300, -11.340, 0.140, 28.5, 0.36978, -0.42593, -0.24686, -0.7879,
 14:25:25.135,e3:ca:2d:fd:e0:8c, 2015-01-01 02:11:01.535, 0.836, -0.038, 0.58, 0, 0.305, 0, -3.587, -55.223, 168.739, -20.860, -9.020, -17.867, 30.41, 0.10068, 0.45889, -0.073, 0.87967,
 14:25:25.135,e3:ca:2d:fd:e0:8c, 2015-01-01 02:11:01.535, 0.836, -0.037, 0.58, 0, 0.305, 0, -3.587, -55.217, 168.734, -20.860, -9.020, -17.867, 30.41, 0.10068, 0.45889, -0.073, 0.87967,
 14:25:25.136,ed:40:fe:65:30:6c, 2015-01-01 02:11:00.730, 0.857, 0.069, 0.516, 0.305, 0.061, 0.244, 8.108, -58.634, -134.313, -24.300, -11.340, 0.140, 28.5, 0.36978, -0.42593, -0.24686, -0.7879,
 14:25:25.136,ed:40:fe:65:30:6c, 2015-01-01 02:11:00.730, 0.858, 0.069, 0.514, 0.488, 0, 0.244, 8.108, -58.634, -134.308, -24.300, -11.340, 0.140, 28.5, 0.36978, -0.42593, -0.24686, -0.7879,
 14:25:25.139,f6:90:cc:01:6d:25, 2015-01-01 02:11:00.005, 0.981, 0.076, 0.062, 0.122, -0.061, 0, 52.125, -84.293, 127.128, -29.480, -11.573, -1.767, 32.35, -0.03241, -0.68488, -0.02359, -0.72748,
 14:25:25.139,f6:90:cc:01:6d:25, 2015-01-01 02:11:00.005, 0.982, 0.077, 0.061, 0.305, -0.061, 0, 52.136, -84.293, 127.183, -29.480, -11.573, -1.767, 32.35, -0.03241, -0.68488, -0.02359, -0.72748,
 14:25:25.160,ed:40:fe:65:30:6c, 2015-01-01 02:11:00.730, 0.856, 0.072, 0.517, 0.61, -0.122, 0.366, 8.108, -58.634, -134.297, -24.300, -11.340, 0.140, 28.5, 0.36978, -0.42593, -0.24686, -0.7879,
 14:25:25.160,ed:40:fe:65:30:6c, 2015-01-01 02:11:00.730, 0.856, 0.075, 0.515, 0.916, -0.244, 0.427, 8.108, -58.64, -134.28, -24.300, -11.340, 0.140, 28.5, 0.36978, -0.42593, -0.24686, -0.7879,
 14:25:25.160,ed:35:33:d3:6c:f8, 2015-01-01 02:11:00.680, 0.728, -0.021, 0.677, 0.122, 0.122, 0.305, -1.642, -47.01, 151.628, -19.907, -9.140, -26.267, 30.77, 0.22989, 0.38348, -0.11032, 0.8876,
 14:25:25.160,ed:35:33:d3:6c:f8, 2015-01-01 02:11:00.680, 0.726, -0.018, 0.679, 0.305, 0.244, 0.366, -1.648, -47.005, 151.628, -19.907, -9.140, -26.267, 30.77, 0.22989, 0.38348, -0.11032, 0.8876,
 14:25:25.182,ed:35:33:d3:6c:f8, 2015-01-01 02:11:01.040, 0.724, -0.015, 0.677, 0.61, 0.244, 0.488, -1.648, -47, 151.644, -19.907, -9.140, -26.267, 30.77, 0.22989, 0.38348, -0.11032, 0.8876,
 14:25:25.182,ed:35:33:d3:6c:f8, 2015-01-01 02:11:01.040, 0.723, -0.016, 0.679, 0.305, 0.488, 0.183, -1.642, -46.994, 151.666, -19.907, -9.140, -26.267, 30.77, 0.22989, 0.38348, -0.11032, 0.8876,
 14:25:25.184,f6:90:cc:01:6d:25, 2015-01-01 02:11:00.005, 0.981, 0.078, 0.06, 0.366, 0, 0, 52.136, -84.293, 127.249, -29.480, -11.573, -1.767, 32.35, -0.03229, -0.68475, -0.02353, -0.7276,
 14:25:25.184,f6:90:cc:01:6d:25, 2015-01-01 02:11:00.005, 0.98, 0.078, 0.06, 0.366, 0, 0, 52.141, -84.293, 127.315, -29.480, -11.573, -1.767, 32.35, -0.03229, -0.68475, -0.02353, -0.7276,
 14:25:25.203,e3:ca:2d:fd:e0:8c, 2015-01-01 02:11:01.535, 0.837, -0.037, 0.58, -0.061, 0.366, -0.061, -3.587, -55.212, 168.728, -21.133, -8.713, -17.173, 30.41, 0.10068, 0.45889, -0.073, 0.87967,
 14:25:25.203,e3:ca:2d:fd:e0:8c, 2015-01-01 02:11:01.535, 0.836, -0.038, 0.581, 0, 0.366, 0, -3.587, -55.206, 168.728, -21.133, -8.713, -17.173, 30.41, 0.10068, 0.45889, -0.073, 0.87967,
 14:25:25.203,ed:40:fe:65:30:6c, 2015-01-01 02:11:00.730, 0.854, 0.078, 0.516, 0.732, -0.183, 0.366, 8.113, -58.645, -134.269, -24.300, -11.340, 0.140, 28.5, 0.36978, -0.42593, -0.24686, -0.7879,
 14:25:25.203,ed:40:fe:65:30:6c, 2015-01-01 02:11:00.730, 0.856, 0.075, 0.517, 0.305, -0.244, 0.061, 8.113, -58.651, -134.258, -24.300, -11.340, 0.140, 28.5, 0.36978, -0.42593, -0.24686, -0.7879,
 14:25:25.225,e3:ca:2d:fd:e0:8c, 2015-01-01 02:11:01.535, 0.835, -0.037, 0.581, 0.244, 0.305, 0.122, -3.587, -55.195, 168.728, -21.133, -8.713, -17.173, 30.41, 0.10138, 0.45807, -0.07309, 0.88004,
 14:25:25.225,e3:ca:2d:fd:e0:8c, 2015-01-01 02:11:01.535, 0.835, -0.036, 0.581, 0.122, 0.244, 0.122, -3.593, -55.19, 168.734, -21.133, -8.713, -17.173, 30.41, 0.10138, 0.45807, -0.07309, 0.88004,
 14:25:25.226,ed:40:fe:65:30:6c, 2015-01-01 02:11:00.730, 0.855, 0.074, 0.518, 0, -0.305, 0, 8.119, -58.656, -134.269, -24.300, -11.340, 0.140, 28.5, 0.36978, -0.42593, -0.24686, -0.7879,
 14:25:25.226,ed:40:fe:65:30:6c, 2015-01-01 02:11:00.730, 0.855, 0.073, 0.518, -0.183, -0.244, 0.061, 8.119, -58.661, -134.275, -24.300, -11.340, 0.140, 28.5, 0.36978, -0.42593, -0.24686, -0.7879,
 14:25:25.228,ed:35:33:d3:6c:f8, 2015-01-01 02:11:01.040, 0.725, -0.018, 0.68, -0.122, 0.793, -0.427, -1.637, -46.983, 151.666, -19.907, -9.140, -26.267, 30.77, 0.22989, 0.38348, -0.11032, 0.8876,
 14:25:25.228,ed:35:33:d3:6c:f8, 2015-01-01 02:11:01.040, 0.724, -0.017, 0.682, -0.488, 0.549, -0.61, -1.631, -46.967, 151.644, -19.907, -9.140, -26.267, 30.77, 0.22989, 0.38348, -0.11032, 0.8876,
 14:25:25.228,f6:90:cc:01:6d:25, 2015-01-01 02:11:00.315, 0.98, 0.078, 0.061, 0.061, -0.061, 0.305, 52.114, -84.298, 127.414, -29.480, -11.573, -1.767, 32.35, -0.03229, -0.68475, -0.02353, -0.7276,
 14:25:25.228,f6:90:cc:01:6d:25, 2015-01-01 02:11:00.315, 0.981, 0.079, 0.061, -0.061, 0, 0.366, 52.064, -84.304, 127.524, -29.480, -11.573, -1.767, 32.35, -0.03229, -0.68475, -0.02353, -0.7276,
 14:25:25.248,e3:ca:2d:fd:e0:8c, 2015-01-01 02:11:01.535, 0.835, -0.036, 0.58, 0, 0.427, 0, -3.587, -55.184, 168.728, -21.133, -8.713, -17.173, 30.41, 0.10138, 0.45807, -0.07309, 0.88004,
 14:25:25.248,e3:ca:2d:fd:e0:8c, 2015-01-01 02:11:01.535, 0.835, -0.036, 0.581, 0, 0.488, 0, -3.587, -55.173, 168.728, -21.133, -8.713, -17.173, 30.41, 0.10138, 0.45807, -0.07309, 0.88004,
 14:25:25.250,ed:35:33:d3:6c:f8, 2015-01-01 02:11:01.040, 0.724, -0.018, 0.681, -0.671, 0.549, -0.488, -1.626, -46.956, 151.622, -19.907, -9.140, -26.267, 30.77, 0.22989, 0.38348, -0.11032, 0.8876,
 14:25:25.250,ed:35:33:d3:6c:f8, 2015-01-01 02:11:01.040, 0.723, -0.019, 0.68, -0.793, 0.305, -0.488, -1.626, -46.945, 151.617, -19.907, -9.140, -26.267, 30.77, 0.22989, 0.38348, -0.11032, 0.8876,
 14:25:25.271,ed:40:fe:65:30:6c, 2015-01-01 02:11:00.730, 0.855, 0.072, 0.517, -0.305, -0.366, 0, 8.113, -58.667, -134.286, -24.300, -11.340, 0.140, 28.5, 0.36978, -0.42593, -0.24686, -0.7879,
 14:25:25.271,ed:40:fe:65:30:6c, 2015-01-01 02:11:00.730, 0.857, 0.072, 0.515, -0.305, -0.305, -0.122, 8.113, -58.672, -134.302, -24.300, -11.340, 0.140, 28.5, 0.36978, -0.42593, -0.24686, -0.7879,
 14:25:25.274,f6:90:cc:01:6d:25, 2015-01-01 02:11:00.315, 0.981, 0.078, 0.062, -0.244, -0.122, 0.305, 52.037, -84.309, 127.606, -29.480, -11.573, -1.767, 32.35, -0.03229, -0.68475, -0.02353, -0.7276,
 14:25:25.274,f6:90:cc:01:6d:25, 2015-01-01 02:11:00.315, 0.981, 0.078, 0.062, -0.183, -0.244, 0.305, 52.031, -84.315, 127.672, -29.480, -11.573, -1.767, 32.35, -0.03229, -0.68475, -0.02353, -0.7276,
 14:25:25.293,e3:ca:2d:fd:e0:8c, 2015-01-01 02:11:01.535, 0.835, -0.036, 0.582, 0, 0.305, 0, -3.587, -55.168, 168.723, -21.133, -8.713, -17.173, 30.41, 0.10138, 0.45807, -0.07309, 0.88004,
 14:25:25.293,e3:ca:2d:fd:e0:8c, 2015-01-01 02:11:01.535, 0.835, -0.037, 0.582, 0.061, 0.305, 0.061, -3.587, -55.162, 168.723, -21.133, -8.713, -17.173, 30.41, 0.10138, 0.45807, -0.07309, 0.88004,
 14:25:25.294,ed:35:33:d3:6c:f8, 2015-01-01 02:11:01.040, 0.727, -0.019, 0.677, -0.732, 0.366, -0.549, -1.631, -46.939, 151.606, -19.907, -9.140, -26.267, 30.77, 0.22989, 0.38348, -0.11032, 0.8876,
 14:25:25.294,ed:35:33:d3:6c:f8, 2015-01-01 02:11:01.040, 0.729, -0.02, 0.677, -0.549, 0.427, -0.427, -1.631, -46.928, 151.584, -19.907, -9.140, -26.267, 30.77, 0.22989, 0.38348, -0.11032, 0.8876,
 14:25:25.296,f6:90:cc:01:6d:25, 2015-01-01 02:11:00.315, 0.98, 0.076, 0.062, -0.183, -0.061, 0.244, 52.004, -84.32, 127.755, -29.480, -11.573, -1.767, 32.35, -0.03229, -0.68475, -0.02353, -0.7276,
 14:25:25.296,f6:90:cc:01:6d:25, 2015-01-01 02:11:00.315, 0.982, 0.075, 0.061, -0.061, -0.061, 0.183, 51.982, -84.32, 127.831, -29.480, -11.573, -1.767, 32.35, -0.03229, -0.68475, -0.02353, -0.7276,
 14:25:25.340,ed:35:33:d3:6c:f8, 2015-01-01 02:11:01.040, 0.726, -0.018, 0.677, -0.122, 0.366, 0, -1.631, -46.923, 151.567, -19.907, -9.140, -26.267, 30.77, 0.22989, 0.38348, -0.11032, 0.8876,
 14:25:25.340,ed:35:33:d3:6c:f8, 2015-01-01 02:11:01.040, 0.728, -0.019, 0.677, 0.061, 0.488, 0.366, -1.637, -46.912, 151.562, -19.907, -9.140, -26.267, 30.77, 0.22989, 0.38348, -0.11032, 0.8876,
 14:25:25.340,ed:40:fe:65:30:6c, 2015-01-01 02:11:00.730, 0.86, 0.069, 0.514, -0.183, -0.122, 0, 8.108, -58.678, -134.319, -24.300, -11.340, 0.140, 28.5, 0.36978, -0.42593, -0.24686, -0.7879,
 14:25:25.340,ed:40:fe:65:30:6c, 2015-01-01 02:11:00.730, 0.858, 0.071, 0.513, 0.061, -0.061, 0.061, 8.108, -58.678, -134.33, -24.300, -11.340, 0.140, 28.5, 0.36978, -0.42593, -0.24686, -0.7879,
 14:25:25.340,e3:ca:2d:fd:e0:8c, 2015-01-01 02:11:01.895, 0.835, -0.037, 0.582, 0.122, 0.366, 0.122, -3.587, -55.151, 168.723, -21.133, -8.713, -17.173, 30.41, 0.10138, 0.45807, -0.07309, 0.88004,
 14:25:25.340,e3:ca:2d:fd:e0:8c, 2015-01-01 02:11:01.895, 0.835, -0.038, 0.582, 0.183, 0.427, 0.183, -3.593, -55.146, 168.728, -21.133, -8.713, -17.173, 30.41, 0.10138, 0.45807, -0.07309, 0.88004,
 14:25:25.341,f6:90:cc:01:6d:25, 2015-01-01 02:11:00.315, 0.983, 0.075, 0.061, -0.183, 0, 0.061, 51.965, -84.32, 127.897, -29.480, -11.573, -1.767, 32.35, -0.03229, -0.68475, -0.02353, -0.7276,
 14:25:25.341,f6:90:cc:01:6d:25, 2015-01-01 02:11:00.315, 0.982, 0.074, 0.061, 0, 0, 0.183, 51.932, -84.326, 127.985, -29.480, -11.573, -1.767, 32.35, -0.03229, -0.68475, -0.02353, -0.7276,
 14:25:25.361,ed:40:fe:65:30:6c, 2015-01-01 02:11:00.730, 0.857, 0.07, 0.514, 0.366, 0, 0.244, 8.102, -58.678, -134.341, -23.813, -11.487, 0.267, 28.5, 0.36978, -0.42593, -0.24686, -0.7879,
 14:25:25.362,ed:40:fe:65:30:6c, 2015-01-01 02:11:00.730, 0.858, 0.07, 0.515, 0.61, 0, 0.244, 8.102, -58.678, -134.346, -23.813, -11.487, 0.267, 28.5, 0.36978, -0.42593, -0.24686, -0.7879,
 14:25:25.382,e3:ca:2d:fd:e0:8c, 2015-01-01 02:11:01.895, 0.835, -0.038, 0.583, 0.061, 0.305, 0.061, -3.593, -55.14, 168.728, -21.133, -8.713, -17.173, 30.41, 0.10138, 0.45807, -0.07309, 0.88004,
 14:25:25.382,e3:ca:2d:fd:e0:8c, 2015-01-01 02:11:01.895, 0.834, -0.038, 0.583, 0, 0, 0, -3.593, -55.14, 168.728, -21.133, -8.713, -17.173, 30.41, 0.10138, 0.45807, -0.07309, 0.88004,
 14:25:25.385,ed:35:33:d3:6c:f8, 2015-01-01 02:11:01.040, 0.722, -0.021, 0.68, 0.366, 0.488, 0.427, -1.637, -46.906, 151.578, -19.907, -9.140, -26.267, 30.77, 0.22989, 0.38348, -0.11032, 0.8876,
 14:25:25.385,ed:35:33:d3:6c:f8, 2015-01-01 02:11:01.040, 0.72, -0.022, 0.68, 0.549, 0.549, 0.488, -1.637, -46.895, 151.595, -19.907, -9.140, -26.267, 30.77, 0.22989, 0.38348, -0.11032, 0.8876,
 14:25:25.386,f6:90:cc:01:6d:25, 2015-01-01 02:11:00.315, 0.982, 0.075, 0.061, 0.061, 0.061, 0.183, 51.894, -84.326, 128.079, -29.480, -11.573, -1.767, 32.35, -0.03229, -0.68475, -0.02353, -0.7276,
 14:25:25.386,f6:90:cc:01:6d:25, 2015-01-01 02:11:00.315, 0.978, 0.076, 0.062, 0.122, 0, 0.244, 51.855, -84.331, 128.167, -29.480, -11.573, -1.767, 32.35, -0.03229, -0.68475, -0.02353, -0.7276,
 14:25:25.405,e3:ca:2d:fd:e0:8c, 2015-01-01 02:11:01.895, 0.836, -0.038, 0.582, 0, -0.122, 0, -3.593, -55.14, 168.728, -21.133, -8.713, -17.173, 30.41, 0.10138, 0.45807, -0.07309, 0.88004,
 14:25:25.405,e3:ca:2d:fd:e0:8c, 2015-01-01 02:11:01.895, 0.835, -0.039, 0.58, 0, 0, 0.061, -3.598, -55.14, 168.728, -21.133, -8.713, -17.173, 30.41, 0.10138, 0.45807, -0.07309, 0.88004,
 14:25:25.406,ed:40:fe:65:30:6c, 2015-01-01 02:11:00.730, 0.854, 0.069, 0.516, 0.793, -0.366, 0.183, 8.113, -58.689, -134.357, -23.813, -11.487, 0.267, 28.5, 0.36978, -0.42593, -0.24686, -0.7879,
 14:25:25.406,ed:40:fe:65:30:6c, 2015-01-01 02:11:00.730, 0.856, 0.067, 0.513, 1.099, -0.061, 0.305, 8.119, -58.689, -134.352, -23.813, -11.487, 0.267, 28.5, 0.36978, -0.42593, -0.24686, -0.7879,
 14:25:25.407,ed:35:33:d3:6c:f8, 2015-01-01 02:11:01.040, 0.726, -0.022, 0.676, 0.488, 0.671, 0.427, -1.637, -46.879, 151.6, -19.507, -9.173, -25.900, 30.77, 0.22989, 0.38348, -0.11032, 0.8876,
 14:25:25.407,ed:35:33:d3:6c:f8, 2015-01-01 02:11:01.040, 0.728, -0.018, 0.681, 0.305, 0.916, 0.122, -1.637, -46.868, 151.578, -19.507, -9.173, -25.900, 30.77, 0.22989, 0.38348, -0.11032, 0.8876,
 14:25:25.429,ed:40:fe:65:30:6c, 2015-01-01 02:11:00.730, 0.86, 0.072, 0.515, 0.793, 0, 0.183, 8.124, -58.694, -134.341, -23.813, -11.487, 0.267, 28.5, 0.36926, -0.42661, -0.24655, -0.78787,
 14:25:25.429,ed:40:fe:65:30:6c, 2015-01-01 02:11:00.730, 0.862, 0.074, 0.516, 0.61, -0.061, 0.122, 8.13, -58.694, -134.346, -23.813, -11.487, 0.267, 28.5, 0.36926, -0.42661, -0.24655, -0.78787,
 14:25:25.431,f6:90:cc:01:6d:25, 2015-01-01 02:11:00.315, 0.981, 0.073, 0.061, 0.183, 0.183, 0, 51.806, -84.331, 128.265, -29.507, -11.340, -1.533, 32.35, -0.03229, -0.68475, -0.02353, -0.7276,
 14:25:25.431,f6:90:cc:01:6d:25, 2015-01-01 02:11:00.315, 0.984, 0.077, 0.06, 0.244, 0.122, 0, 51.779, -84.326, 128.348, -29.507, -11.340, -1.533, 32.35, -0.03229, -0.68475, -0.02353, -0.7276,
 14:25:25.449,e3:ca:2d:fd:e0:8c, 2015-01-01 02:11:01.895, 0.835, -0.038, 0.582, 0.061, 0.061, 0, -3.598, -55.14, 168.723, -21.133, -8.713, -17.173, 30.41, 0.10138, 0.45807, -0.07309, 0.88004,
 14:25:25.449,e3:ca:2d:fd:e0:8c, 2015-01-01 02:11:01.895, 0.836, -0.038, 0.581, 0.122, 0.183, 0, -3.598, -55.135, 168.723, -21.133, -8.713, -17.173, 30.41, 0.10138, 0.45807, -0.07309, 0.88004,
 14:25:25.453,ed:35:33:d3:6c:f8, 2015-01-01 02:11:01.040, 0.728, -0.017, 0.683, 0.488, 0.61, 0.244, -1.631, -46.851, 151.556, -19.507, -9.173, -25.900, 30.77, 0.22989, 0.38348, -0.11032, 0.8876,
 14:25:25.453,ed:35:33:d3:6c:f8, 2015-01-01 02:11:01.040, 0.723, -0.019, 0.682, 0.366, 0.305, 0.488, -1.631, -46.84, 151.562, -19.507, -9.173, -25.900, 30.77, 0.22989, 0.38348, -0.11032, 0.8876,
 14:25:25.474,ed:40:fe:65:30:6c, 2015-01-01 02:11:00.730, 0.858, 0.072, 0.516, 0.732, 0, 0.183, 8.141, -58.694, -134.357, -23.813, -11.487, 0.267, 28.5, 0.36926, -0.42661, -0.24655, -0.78787,
 14:25:25.474,ed:40:fe:65:30:6c, 2015-01-01 02:11:00.730, 0.854, 0.074, 0.516, 0.366, 0.122, 0, 8.141, -58.694, -134.368, -23.813, -11.487, 0.267, 28.5, 0.36926, -0.42661, -0.24655, -0.78787,
 14:25:25.476,f6:90:cc:01:6d:25, 2015-01-01 02:11:00.315, 0.983, 0.076, 0.059, 0, 0, 0.061, 51.757, -84.326, 128.425, -29.507, -11.340, -1.533, 32.35, -0.02628, -0.68451, -0.02856, -0.72791,
 14:25:25.476,f6:90:cc:01:6d:25, 2015-01-01 02:11:00.315, 0.98, 0.076, 0.062, -0.122, -0.061, 0.061, 51.746, -84.331, 128.485, -29.507, -11.340, -1.533, 32.35, -0.02628, -0.68451, -0.02856, -0.72791,
 14:25:25.495,e3:ca:2d:fd:e0:8c, 2015-01-01 02:11:01.895, 0.833, -0.036, 0.581, -0.061, 0.366, 0, -3.598, -55.124, 168.723, -21.133, -8.713, -17.173, 30.41, 0.10138, 0.45807, -0.07309, 0.88004,
 14:25:25.495,e3:ca:2d:fd:e0:8c, 2015-01-01 02:11:01.895, 0.834, -0.036, 0.582, -0.061, 0.427, 0, -3.598, -55.118, 168.717, -21.133, -8.713, -17.173, 30.41, 0.10138, 0.45807, -0.07309, 0.88004,
 14:25:25.499,f6:90:cc:01:6d:25, 2015-01-01 02:11:00.605, 0.978, 0.077, 0.061, -0.244, 0, 0.061, 51.74, -84.331, 128.54, -29.507, -11.340, -1.533, 32.35, -0.02628, -0.68451, -0.02856, -0.72791,
 14:25:25.499,f6:90:cc:01:6d:25, 2015-01-01 02:11:00.605, 0.979, 0.076, 0.059, -0.366, 0, 0.122, 51.718, -84.331, 128.606, -29.507, -11.340, -1.533, 32.35, -0.02628, -0.68451, -0.02856, -0.72791,
 14:25:25.519,ed:40:fe:65:30:6c, 2015-01-01 02:11:01.130, 0.853, 0.074, 0.514, 0.488, 0.183, 0, 8.152, -58.694, -134.39, -23.813, -11.487, 0.267, 28.5, 0.36926, -0.42661, -0.24655, -0.78787,
 14:25:25.519,ed:40:fe:65:30:6c, 2015-01-01 02:11:01.130, 0.856, 0.074, 0.515, 0.671, -0.061, 0, 8.163, -58.694, -134.418, -23.813, -11.487, 0.267, 28.5, 0.36926, -0.42661, -0.24655, -0.78787,
 14:25:25.541,ed:35:33:d3:6c:f8, 2015-01-01 02:11:01.040, 0.718, -0.018, 0.682, 0.122, 0.244, 0.427, -1.637, -46.835, 151.584, -19.507, -9.173, -25.900, 30.77, 0.23087, 0.38205, -0.11032, 0.88794,
 14:25:25.541,ed:35:33:d3:6c:f8, 2015-01-01 02:11:01.040, 0.72, -0.017, 0.681, 0.427, -0.061, 0.427, -1.642, -46.835, 151.595, -19.507, -9.173, -25.900, 30.77, 0.23087, 0.38205, -0.11032, 0.88794,
 14:25:25.543,f6:90:cc:01:6d:25, 2015-01-01 02:11:00.605, 0.98, 0.076, 0.061, -0.183, 0, 0.122, 51.696, -84.337, 128.677, -29.507, -11.340, -1.533, 32.35, -0.02628, -0.68451, -0.02856, -0.72791,
 14:25:25.543,f6:90:cc:01:6d:25, 2015-01-01 02:11:00.605, 0.98, 0.074, 0.062, -0.305, -0.061, 0.122, 51.674, -84.337, 128.743, -29.507, -11.340, -1.533, 32.35, -0.02628, -0.68451, -0.02856, -0.72791,
 14:25:25.564,e3:ca:2d:fd:e0:8c, 2015-01-01 02:11:01.895, 0.834, -0.036, 0.583, -0.061, 0.549, 0, -3.598, -55.107, 168.717, -20.720, -9.000, -17.027, 30.41, 0.10138, 0.45807, -0.07309, 0.88004,
 14:25:25.564,e3:ca:2d:fd:e0:8c, 2015-01-01 02:11:01.895, 0.834, -0.037, 0.583, -0.122, 0.549, 0, -3.604, -55.096, 168.712, -20.720, -9.000, -17.027, 30.41, 0.10138, 0.45807, -0.07309, 0.88004,
 14:25:25.564,ed:40:fe:65:30:6c, 2015-01-01 02:11:01.130, 0.854, 0.073, 0.514, 0.61, -0.183, 0, 8.174, -58.7, -134.44, -23.813, -11.487, 0.267, 28.5, 0.36926, -0.42661, -0.24655, -0.78787,
 14:25:25.565,ed:40:fe:65:30:6c, 2015-01-01 02:11:01.130, 0.855, 0.073, 0.515, 0.488, -0.122, 0, 8.179, -58.7, -134.462, -23.813, -11.487, 0.267, 28.5, 0.36926, -0.42661, -0.24655, -0.78787,
 14:25:25.565,ed:35:33:d3:6c:f8, 2015-01-01 02:11:01.395, 0.723, -0.018, 0.679, 0.488, -0.122, 0.305, -1.637, -46.835, 151.606, -19.507, -9.173, -25.900, 30.77, 0.23087, 0.38205, -0.11032, 0.88794,
 14:25:25.565,ed:35:33:d3:6c:f8, 2015-01-01 02:11:01.395, 0.72, -0.02, 0.679, 0.427, 0.244, 0.122, -1.631, -46.829, 151.622, -19.507, -9.173, -25.900, 30.77, 0.23087, 0.38205, -0.11032, 0.88794,
 14:25:25.586,e3:ca:2d:fd:e0:8c, 2015-01-01 02:11:01.895, 0.834, -0.038, 0.583, -0.061, 0.366, 0, -3.604, -55.091, 168.712, -20.720, -9.000, -17.027, 30.41, 0.10162, 0.45721, -0.07321, 0.88043,
 14:25:25.586,e3:ca:2d:fd:e0:8c, 2015-01-01 02:11:01.895, 0.834, -0.038, 0.583, 0, 0.244, 0, -3.604, -55.08, 168.706, -20.720, -9.000, -17.027, 30.41, 0.10162, 0.45721, -0.07321, 0.88043,
 14:25:25.589,f6:90:cc:01:6d:25, 2015-01-01 02:11:00.605, 0.981, 0.075, 0.064, 0, -0.061, 0.061, 51.663, -84.337, 128.798, -29.507, -11.340, -1.533, 32.35, -0.02628, -0.68451, -0.02856, -0.72791,
 14:25:25.589,f6:90:cc:01:6d:25, 2015-01-01 02:11:00.605, 0.981, 0.076, 0.064, 0, -0.122, 0.061, 51.658, -84.342, 128.848, -29.507, -11.340, -1.533, 32.35, -0.02628, -0.68451, -0.02856, -0.72791,
 14:25:25.609,ed:40:fe:65:30:6c, 2015-01-01 02:11:01.130, 0.858, 0.072, 0.516, 0.549, -0.061, 0, 8.19, -58.7, -134.484, -23.813, -11.487, 0.267, 28.5, 0.36926, -0.42661, -0.24655, -0.78787,
 14:25:25.609,ed:40:fe:65:30:6c, 2015-01-01 02:11:01.130, 0.857, 0.073, 0.517, 0.488, 0, 0, 8.201, -58.7, -134.506, -23.813, -11.487, 0.267, 28.5, 0.36926, -0.42661, -0.24655, -0.78787,
 14:25:25.610,ed:35:33:d3:6c:f8, 2015-01-01 02:11:01.395, 0.723, -0.019, 0.68, 0.305, 0.549, 0, -1.626, -46.824, 151.644, -19.507, -9.173, -25.900, 30.77, 0.23087, 0.38205, -0.11032, 0.88794,
 14:25:25.610,ed:35:33:d3:6c:f8, 2015-01-01 02:11:01.395, 0.724, -0.019, 0.682, 0.366, 0.549, 0.122, -1.62, -46.807, 151.666, -19.507, -9.173, -25.900, 30.77, 0.23087, 0.38205, -0.11032, 0.88794,
 14:25:25.631,ed:40:fe:65:30:6c, 2015-01-01 02:11:01.130, 0.855, 0.073, 0.516, 0.427, 0.061, 0, 8.207, -58.7, -134.533, -23.813, -11.487, 0.267, 28.5, 0.36926, -0.42661, -0.24655, -0.78787,
 14:25:25.631,ed:40:fe:65:30:6c, 2015-01-01 02:11:01.130, 0.855, 0.074, 0.517, 0.427, 0.061, 0, 8.212, -58.7, -134.555, -23.813, -11.487, 0.267, 28.5, 0.36926, -0.42661, -0.24655, -0.78787,
 14:25:25.631,e3:ca:2d:fd:e0:8c, 2015-01-01 02:11:01.895, 0.833, -0.038, 0.582, 0.122, 0.305, 0, -3.604, -55.074, 168.706, -20.720, -9.000, -17.027, 30.41, 0.10162, 0.45721, -0.07321, 0.88043,
 14:25:25.631,e3:ca:2d:fd:e0:8c, 2015-01-01 02:11:01.895, 0.834, -0.037, 0.583, 0.061, 0.366, 0, -3.604, -55.069, 168.701, -20.720, -9.000, -17.027, 30.41, 0.10162, 0.45721, -0.07321, 0.88043,
 14:25:25.633,ed:35:33:d3:6c:f8, 2015-01-01 02:11:01.395, 0.721, -0.018, 0.683, 0.427, 0.488, 0.305, -1.615, -46.796, 151.672, -19.507, -9.173, -25.900, 30.77, 0.23087, 0.38205, -0.11032, 0.88794,
 14:25:25.633,ed:35:33:d3:6c:f8, 2015-01-01 02:11:01.395, 0.72, -0.019, 0.684, 0.366, 0.305, 0.305, -1.615, -46.791, 151.666, -19.507, -9.173, -25.900, 30.77, 0.23087, 0.38205, -0.11032, 0.88794,
 14:25:25.635,f6:90:cc:01:6d:25, 2015-01-01 02:11:00.605, 0.981, 0.076, 0.062, -0.061, -0.061, 0, 51.652, -84.342, 128.892, -29.507, -11.340, -1.533, 32.35, -0.02628, -0.68451, -0.02856, -0.72791,
 14:25:25.635,f6:90:cc:01:6d:25, 2015-01-01 02:11:00.605, 0.982, 0.075, 0.062, -0.305, 0, 0.061, 51.647, -84.342, 128.936, -29.507, -11.340, -1.533, 32.35, -0.02628, -0.68451, -0.02856, -0.72791,
 14:25:25.652,e3:ca:2d:fd:e0:8c, 2015-01-01 02:11:02.230, 0.834, -0.037, 0.583, 0, 0.305, 0, -3.604, -55.063, 168.701, -20.720, -9.000, -17.027, 30.41, 0.10162, 0.45721, -0.07321, 0.88043,
 14:25:25.652,e3:ca:2d:fd:e0:8c, 2015-01-01 02:11:02.230, 0.833, -0.037, 0.582, 0, 0.366, 0, -3.604, -55.052, 168.701, -20.720, -9.000, -17.027, 30.41, 0.10162, 0.45721, -0.07321, 0.88043,
 14:25:25.655,ed:35:33:d3:6c:f8, 2015-01-01 02:11:01.395, 0.72, -0.019, 0.684, 0.366, 0.061, 0.183, -1.609, -46.785, 151.655, -19.507, -9.173, -25.900, 30.77, 0.23087, 0.38205, -0.11032, 0.88794,
 14:25:25.655,ed:35:33:d3:6c:f8, 2015-01-01 02:11:01.395, 0.721, -0.021, 0.682, 0.488, 0, 0.183, -1.604, -46.78, 151.639, -19.507, -9.173, -25.900, 30.77, 0.23087, 0.38205, -0.11032, 0.88794,
 14:25:25.656,f6:90:cc:01:6d:25, 2015-01-01 02:11:00.605, 0.98, 0.076, 0.061, -0.244, 0, 0, 51.619, -84.342, 128.99, -29.507, -11.340, -1.533, 32.35, -0.02628, -0.68451, -0.02856, -0.72791,
 14:25:25.656,f6:90:cc:01:6d:25, 2015-01-01 02:11:00.605, 0.982, 0.075, 0.061, -0.244, -0.122, -0.061, 51.614, -84.342, 129.034, -29.507, -11.340, -1.533, 32.35, -0.02628, -0.68451, -0.02856, -0.72791,
 14:25:25.699,ed:40:fe:65:30:6c, 2015-01-01 02:11:01.130, 0.855, 0.072, 0.517, 0.488, 0, 0, 8.218, -58.7, -134.583, -23.813, -11.487, 0.267, 28.5, 0.36926, -0.42661, -0.24655, -0.78787,
 14:25:25.699,ed:40:fe:65:30:6c, 2015-01-01 02:11:01.130, 0.857, 0.071, 0.513, 0.732, 0, -0.061, 8.234, -58.7, -134.604, -23.813, -11.487, 0.267, 28.5, 0.36926, -0.42661, -0.24655, -0.78787,
 14:25:25.700,e3:ca:2d:fd:e0:8c, 2015-01-01 02:11:02.230, 0.834, -0.037, 0.583, 0, 0.244, 0, -3.604, -55.047, 168.695, -20.720, -9.000, -17.027, 30.41, 0.10162, 0.45721, -0.07321, 0.88043,
 14:25:25.700,e3:ca:2d:fd:e0:8c, 2015-01-01 02:11:02.230, 0.834, -0.038, 0.583, 0.061, 0.183, 0, -3.598, -55.042, 168.695, -20.720, -9.000, -17.027, 30.41, 0.10162, 0.45721, -0.07321, 0.88043,
 14:25:25.700,ed:35:33:d3:6c:f8, 2015-01-01 02:11:01.395, 0.725, -0.02, 0.68, 0.427, 0.244, -0.122, -1.599, -46.78, 151.6, -19.507, -9.173, -25.900, 30.77, 0.23087, 0.38205, -0.11032, 0.88794,
 14:25:25.700,ed:35:33:d3:6c:f8, 2015-01-01 02:11:01.395, 0.725, -0.016, 0.682, 0.122, 0.671, -0.549, -1.588, -46.769, 151.551, -19.507, -9.173, -25.900, 30.77, 0.23087, 0.38205, -0.11032, 0.88794,
 14:25:25.702,f6:90:cc:01:6d:25, 2015-01-01 02:11:00.605, 0.982, 0.074, 0.06, -0.244, 0, 0, 51.619, -84.342, 129.067, -29.507, -11.340, -1.533, 32.35, -0.02628, -0.68451, -0.02856, -0.72791,
 14:25:25.702,f6:90:cc:01:6d:25, 2015-01-01 02:11:00.605, 0.981, 0.074, 0.06, 0, 0, -0.061, 51.603, -84.342, 129.111, -29.507, -11.340, -1.533, 32.35, -0.02628, -0.68451, -0.02856, -0.72791,
 14:25:25.722,ed:40:fe:65:30:6c, 2015-01-01 02:11:01.130, 0.858, 0.074, 0.513, 0.549, 0, -0.183, 8.245, -58.7, -134.637, -24.013, -11.433, -0.213, 28.5, 0.36926, -0.42661, -0.24655, -0.78787,
 14:25:25.722,ed:40:fe:65:30:6c, 2015-01-01 02:11:01.130, 0.859, 0.076, 0.514, 0.305, 0.061, -0.122, 8.256, -58.7, -134.665, -24.013, -11.433, -0.213, 28.5, 0.36926, -0.42661, -0.24655, -0.78787,
 14:25:25.745,e3:ca:2d:fd:e0:8c, 2015-01-01 02:11:02.230, 0.834, -0.039, 0.583, 0, 0.183, 0, -3.598, -55.042, 168.695, -20.720, -9.000, -17.027, 30.41, 0.10162, 0.45721, -0.07321, 0.88043,
 14:25:25.745,e3:ca:2d:fd:e0:8c, 2015-01-01 02:11:02.230, 0.834, -0.038, 0.582, 0, 0.183, 0, -3.604, -55.036, 168.69, -20.720, -9.000, -17.027, 30.41, 0.10162, 0.45721, -0.07321, 0.88043,
 14:25:25.747,f6:90:cc:01:6d:25, 2015-01-01 02:11:00.605, 0.982, 0.076, 0.06, 0.061, 0, -0.061, 51.603, -84.342, 129.155, -29.147, -11.787, -1.540, 32.35, -0.02628, -0.68451, -0.02856, -0.72791,
 14:25:25.747,f6:90:cc:01:6d:25, 2015-01-01 02:11:00.605, 0.982, 0.075, 0.06, 0, -0.061, 0.061, 51.603, -84.342, 129.194, -29.147, -11.787, -1.540, 32.35, -0.02628, -0.68451, -0.02856, -0.72791,
 14:25:25.766,ed:40:fe:65:30:6c, 2015-01-01 02:11:01.130, 0.858, 0.074, 0.515, 0.366, 0.061, -0.061, 8.267, -58.694, -134.692, -24.013, -11.433, -0.213, 28.5, 0.36926, -0.42661, -0.24655, -0.78787,
 14:25:25.766,ed:40:fe:65:30:6c, 2015-01-01 02:11:01.130, 0.857, 0.075, 0.514, 0.366, 0, 0, 8.273, -58.694, -134.714, -24.013, -11.433, -0.213, 28.5, 0.36926, -0.42661, -0.24655, -0.78787,
 14:25:25.768,ed:35:33:d3:6c:f8, 2015-01-01 02:11:01.395, 0.724, -0.015, 0.682, 0.061, 0.732, -0.488, -1.571, -46.752, 151.507, -19.507, -9.173, -25.900, 30.77, 0.23087, 0.38205, -0.11032, 0.88794,
 14:25:25.768,ed:35:33:d3:6c:f8, 2015-01-01 02:11:01.395, 0.724, -0.016, 0.683, 0.183, 0.549, -0.183, -1.56, -46.736, 151.485, -19.507, -9.173, -25.900, 30.77, 0.23087, 0.38205, -0.11032, 0.88794,
 14:25:25.787,e3:ca:2d:fd:e0:8c, 2015-01-01 02:11:02.230, 0.834, -0.038, 0.582, 0, 0.244, 0, -3.604, -55.031, 168.69, -20.720, -9.000, -17.027, 30.41, 0.10162, 0.45721, -0.07321, 0.88043,
 14:25:25.787,e3:ca:2d:fd:e0:8c, 2015-01-01 02:11:02.230, 0.834, -0.038, 0.583, -0.061, 0.244, 0, -3.604, -55.025, 168.69, -20.720, -9.000, -17.027, 30.41, 0.10162, 0.45721, -0.07321, 0.88043,
 14:25:25.788,ed:40:fe:65:30:6c, 2015-01-01 02:11:01.130, 0.856, 0.075, 0.514, 0.244, 0.061, 0.122, 8.273, -58.694, -134.731, -24.013, -11.433, -0.213, 28.5, 0.36728, -0.42694, -0.24622, -0.78873,
 14:25:25.788,ed:40:fe:65:30:6c, 2015-01-01 02:11:01.130, 0.856, 0.076, 0.513, 0, 0.244, 0.183, 8.267, -58.694, -134.747, -24.013, -11.433, -0.213, 28.5, 0.36728, -0.42694, -0.24622, -0.78873,
 14:25:25.790,ed:35:33:d3:6c:f8, 2015-01-01 02:11:01.395, 0.72, -0.016, 0.682, 0.183, 0.488, -0.122, -1.555, -46.725, 151.463, -19.740, -9.380, -26.527, 30.77, 0.23087, 0.38205, -0.11032, 0.88794,
 14:25:25.790,ed:35:33:d3:6c:f8, 2015-01-01 02:11:01.395, 0.721, -0.015, 0.682, -0.122, 0.427, -0.061, -1.549, -46.719, 151.447, -19.740, -9.380, -26.527, 30.77, 0.23087, 0.38205, -0.11032, 0.88794,
 14:25:25.791,f6:90:cc:01:6d:25, 2015-01-01 02:11:00.605, 0.982, 0.074, 0.059, -0.244, -0.061, 0, 51.597, -84.342, 129.238, -29.147, -11.787, -1.540, 32.35, -0.022, -0.68433, -0.03229, -0.72806,
 14:25:25.791,f6:90:cc:01:6d:25, 2015-01-01 02:11:00.605, 0.981, 0.074, 0.061, -0.244, -0.061, 0, 51.597, -84.342, 129.276, -29.147, -11.787, -1.540, 32.35, -0.022, -0.68433, -0.03229, -0.72806,
 14:25:25.811,e3:ca:2d:fd:e0:8c, 2015-01-01 02:11:02.230, 0.833, -0.038, 0.583, -0.061, 0.183, 0, -3.604, -55.02, 168.684, -20.720, -9.000, -17.027, 30.41, 0.10162, 0.45721, -0.07321, 0.88043,
 14:25:25.811,e3:ca:2d:fd:e0:8c, 2015-01-01 02:11:02.230, 0.834, -0.037, 0.583, -0.122, 0.244, 0, -3.609, -55.014, 168.684, -20.720, -9.000, -17.027, 30.41, 0.10162, 0.45721, -0.07321, 0.88043,
 14:25:25.834,ed:40:fe:65:30:6c, 2015-01-01 02:11:01.130, 0.858, 0.076, 0.513, -0.244, 0.305, 0.305, 8.251, -58.689, -134.758, -24.013, -11.433, -0.213, 28.5, 0.36728, -0.42694, -0.24622, -0.78873,
 14:25:25.834,ed:40:fe:65:30:6c, 2015-01-01 02:11:01.130, 0.856, 0.077, 0.514, -0.427, 0.366, 0.305, 8.234, -58.683, -134.764, -24.013, -11.433, -0.213, 28.5, 0.36728, -0.42694, -0.24622, -0.78873,
 14:25:25.835,ed:35:33:d3:6c:f8, 2015-01-01 02:11:01.395, 0.722, -0.015, 0.681, -0.366, 0.549, -0.061, -1.549, -46.708, 151.43, -19.740, -9.380, -26.527, 30.77, 0.23087, 0.38205, -0.11032, 0.88794,
 14:25:25.835,ed:35:33:d3:6c:f8, 2015-01-01 02:11:01.395, 0.723, -0.014, 0.682, -0.671, 0.671, 0, -1.56, -46.692, 151.403, -19.740, -9.380, -26.527, 30.77, 0.23087, 0.38205, -0.11032, 0.88794,
 14:25:25.836,f6:90:cc:01:6d:25, 2015-01-01 02:11:00.920, 0.98, 0.075, 0.059, -0.183, 0.061, 0, 51.586, -84.348, 129.32, -29.147, -11.787, -1.540, 32.35, -0.022, -0.68433, -0.03229, -0.72806,
 14:25:25.836,f6:90:cc:01:6d:25, 2015-01-01 02:11:00.920, 0.982, 0.076, 0.062, -0.183, 0.122, 0, 51.564, -84.342, 129.38, -29.147, -11.787, -1.540, 32.35, -0.022, -0.68433, -0.03229, -0.72806,
 14:25:25.855,e3:ca:2d:fd:e0:8c, 2015-01-01 02:11:02.230, 0.834, -0.037, 0.583, -0.122, 0.244, 0, -3.609, -55.014, 168.684, -20.720, -9.000, -17.027, 30.41, 0.10162, 0.45721, -0.07321, 0.88043,
 14:25:25.855,e3:ca:2d:fd:e0:8c, 2015-01-01 02:11:02.230, 0.835, -0.038, 0.583, -0.122, 0.305, -0.305, -3.615, -55.009, 168.679, -20.720, -9.000, -17.027, 30.41, 0.10162, 0.45721, -0.07321, 0.88043,
 14:25:25.859,f6:90:cc:01:6d:25, 2015-01-01 02:11:00.920, 0.981, 0.075, 0.061, -0.366, 0.122, 0.305, 51.515, -84.348, 129.463, -29.147, -11.787, -1.540, 32.35, -0.022, -0.68433, -0.03229, -0.72806,
 14:25:25.859,f6:90:cc:01:6d:25, 2015-01-01 02:11:00.920, 0.981, 0.073, 0.06, -0.183, 0, 0.305, 51.454, -84.348, 129.556, -29.147, -11.787, -1.540, 32.35, -0.022, -0.68433, -0.03229, -0.72806,
 14:25:25.879,ed:40:fe:65:30:6c, 2015-01-01 02:11:01.490, 0.856, 0.076, 0.515, -0.549, 0.305, 0.244, 8.218, -58.678, -134.775, -24.013, -11.433, -0.213, 28.5, 0.36728, -0.42694, -0.24622, -0.78873,
 14:25:25.879,ed:40:fe:65:30:6c, 2015-01-01 02:11:01.490, 0.857, 0.074, 0.515, -0.61, 0.427, 0.366, 8.19, -58.672, -134.78, -24.013, -11.433, -0.213, 28.5, 0.36728, -0.42694, -0.24622, -0.78873,
 14:25:25.880,ed:35:33:d3:6c:f8, 2015-01-01 02:11:01.395, 0.721, -0.016, 0.683, -0.854, 0.854, -0.122, -1.571, -46.681, 151.348, -19.740, -9.380, -26.527, 30.77, 0.23212, 0.3808, -0.11008, 0.88818,
 14:25:25.880,ed:35:33:d3:6c:f8, 2015-01-01 02:11:01.395, 0.721, -0.015, 0.684, -0.977, 0.977, -0.061, -1.582, -46.659, 151.265, -19.740, -9.380, -26.527, 30.77, 0.23212, 0.3808, -0.11008, 0.88818,
 14:25:25.903,f6:90:cc:01:6d:25, 2015-01-01 02:11:00.920, 0.981, 0.075, 0.062, 0, 0, 0.244, 51.416, -84.353, 129.639, -29.147, -11.787, -1.540, 32.35, -0.022, -0.68433, -0.03229, -0.72806,
 14:25:25.903,f6:90:cc:01:6d:25, 2015-01-01 02:11:00.920, 0.981, 0.076, 0.061, -0.061, 0, 0.244, 51.378, -84.359, 129.71, -29.147, -11.787, -1.540, 32.35, -0.022, -0.68433, -0.03229, -0.72806,
 14:25:25.922,e3:ca:2d:fd:e0:8c, 2015-01-01 02:11:02.230, 0.834, -0.038, 0.583, -0.061, 0.183, -0.244, -3.609, -55.003, 168.668, -20.720, -8.840, -17.733, 30.41, 0.10162, 0.45721, -0.07321, 0.88043,
 14:25:25.923,e3:ca:2d:fd:e0:8c, 2015-01-01 02:11:02.230, 0.833, -0.037, 0.583, -0.061, 0.183, -0.183, -3.604, -54.998, 168.657, -20.720, -8.840, -17.733, 30.41, 0.10162, 0.45721, -0.07321, 0.88043,
 14:25:25.924,ed:40:fe:65:30:6c, 2015-01-01 02:11:01.490, 0.856, 0.072, 0.516, -0.61, 0.366, 0.427, 8.168, -58.667, -134.786, -24.013, -11.433, -0.213, 28.5, 0.36728, -0.42694, -0.24622, -0.78873,
 14:25:25.924,ed:40:fe:65:30:6c, 2015-01-01 02:11:01.490, 0.854, 0.071, 0.516, -0.427, 0.366, 0.427, 8.141, -58.661, -134.786, -24.013, -11.433, -0.213, 28.5, 0.36728, -0.42694, -0.24622, -0.78873,
 14:25:25.924,ed:35:33:d3:6c:f8, 2015-01-01 02:11:01.395, 0.721, -0.018, 0.684, -0.977, 0.732, 0, -1.599, -46.642, 151.221, -19.740, -9.380, -26.527, 30.77, 0.23212, 0.3808, -0.11008, 0.88818,
 14:25:25.924,ed:35:33:d3:6c:f8, 2015-01-01 02:11:01.395, 0.718, -0.02, 0.683, -0.916, 0.61, 0.183, -1.615, -46.631, 151.205, -19.740, -9.380, -26.527, 30.77, 0.23212, 0.3808, -0.11008, 0.88818,
 14:25:25.945,e3:ca:2d:fd:e0:8c, 2015-01-01 02:11:02.230, 0.833, -0.036, 0.583, -0.061, 0.244, -0.183, -3.598, -54.992, 168.651, -20.720, -8.840, -17.733, 30.41, 0.10208, 0.45645, -0.07336, 0.88077,
 14:25:25.945,e3:ca:2d:fd:e0:8c, 2015-01-01 02:11:02.230, 0.833, -0.036, 0.584, -0.183, 0.305, -0.183, -3.598, -54.987, 168.64, -20.720, -8.840, -17.733, 30.41, 0.10208, 0.45645, -0.07336, 0.88077,
 14:25:25.947,ed:35:33:d3:6c:f8, 2015-01-01 02:11:01.775, 0.717, -0.022, 0.684, -0.549, 0.549, 0.183, -1.631, -46.615, 151.21, -19.740, -9.380, -26.527, 30.77, 0.23212, 0.3808, -0.11008, 0.88818,
 14:25:25.947,ed:35:33:d3:6c:f8, 2015-01-01 02:11:01.775, 0.72, -0.022, 0.684, -0.244, 0.732, 0, -1.637, -46.604, 151.216, -19.740, -9.380, -26.527, 30.77, 0.23212, 0.3808, -0.11008, 0.88818,
 14:25:25.949,f6:90:cc:01:6d:25, 2015-01-01 02:11:00.920, 0.981, 0.076, 0.061, -0.061, 0.061, 0.305, 51.334, -84.364, 129.792, -29.147, -11.787, -1.540, 32.35, -0.022, -0.68433, -0.03229, -0.72806,
 14:25:25.949,f6:90:cc:01:6d:25, 2015-01-01 02:11:00.920, 0.981, 0.075, 0.062, 0, 0, 0.244, 51.29, -84.37, 129.875, -29.147, -11.787, -1.540, 32.35, -0.022, -0.68433, -0.03229, -0.72806,
 14:25:25.968,ed:40:fe:65:30:6c, 2015-01-01 02:11:01.490, 0.855, 0.07, 0.516, -0.061, 0.183, 0.244, 8.13, -58.661, -134.797, -24.013, -11.433, -0.213, 28.5, 0.36728, -0.42694, -0.24622, -0.78873,
 14:25:25.968,ed:40:fe:65:30:6c, 2015-01-01 02:11:01.490, 0.856, 0.07, 0.516, 0, 0.183, 0.122, 8.124, -58.656, -134.808, -24.013, -11.433, -0.213, 28.5, 0.36728, -0.42694, -0.24622, -0.78873,
 14:25:25.989,e3:ca:2d:fd:e0:8c, 2015-01-01 02:11:02.230, 0.833, -0.037, 0.583, -0.061, 0.183, -0.122, -3.593, -54.981, 168.635, -20.720, -8.840, -17.733, 30.41, 0.10208, 0.45645, -0.07336, 0.88077,
 14:25:25.989,e3:ca:2d:fd:e0:8c, 2015-01-01 02:11:02.230, 0.833, -0.037, 0.584, 0.061, 0.122, 0, -3.593, -54.981, 168.629, -20.720, -8.840, -17.733, 30.41, 0.10208, 0.45645, -0.07336, 0.88077,
 14:25:25.991,ed:40:fe:65:30:6c, 2015-01-01 02:11:01.490, 0.856, 0.072, 0.517, 0, 0.122, 0.122, 8.119, -58.656, -134.824, -24.013, -11.433, -0.213, 28.5, 0.36728, -0.42694, -0.24622, -0.78873,
 14:25:25.991,ed:40:fe:65:30:6c, 2015-01-01 02:11:01.490, 0.855, 0.072, 0.516, 0.244, 0.183, 0.183, 8.113, -58.651, -134.835, -24.013, -11.433, -0.213, 28.5, 0.36728, -0.42694, -0.24622, -0.78873,
 14:25:25.992,ed:35:33:d3:6c:f8, 2015-01-01 02:11:01.775, 0.719, -0.021, 0.686, -0.366, 0.671, -0.122, -1.642, -46.588, 151.199, -19.740, -9.380, -26.527, 30.77, 0.23212, 0.3808, -0.11008, 0.88818,
 14:25:25.992,ed:35:33:d3:6c:f8, 2015-01-01 02:11:01.775, 0.72, -0.019, 0.686, -0.183, 0.427, -0.061, -1.648, -46.577, 151.183, -19.740, -9.380, -26.527, 30.77, 0.23212, 0.3808, -0.11008, 0.88818,
 14:25:25.993,f6:90:cc:01:6d:25, 2015-01-01 02:11:00.920, 0.982, 0.074, 0.061, 0.061, 0, 0.061, 51.268, -84.37, 129.935, -29.147, -11.787, -1.540, 32.35, -0.022, -0.68433, -0.03229, -0.72806,
 14:25:25.993,f6:90:cc:01:6d:25, 2015-01-01 02:11:00.920, 0.981, 0.075, 0.062, 0.061, 0, 0, 51.257, -84.37, 129.985, -29.147, -11.787, -1.540, 32.35, -0.022, -0.68433, -0.03229, -0.72806,
 14:25:26.012,e3:ca:2d:fd:e0:8c, 2015-01-01 02:11:02.585, 0.833, -0.036, 0.584, 0.122, 0.061, 0.061, -3.593, -54.976, 168.629, -20.720, -8.840, -17.733, 30.41, 0.10208, 0.45645, -0.07336, 0.88077,
 14:25:26.012,e3:ca:2d:fd:e0:8c, 2015-01-01 02:11:02.585, 0.833, -0.035, 0.584, 0.061, 0, 0, -3.593, -54.976, 168.629, -20.720, -8.840, -17.733, 30.41, 0.10208, 0.45645, -0.07336, 0.88077,
 14:25:26.015,ed:35:33:d3:6c:f8, 2015-01-01 02:11:01.775, 0.717, -0.02, 0.685, 0, 0.305, -0.122, -1.648, -46.566, 151.166, -19.740, -9.380, -26.527, 30.77, 0.23212, 0.3808, -0.11008, 0.88818,
 14:25:26.015,ed:35:33:d3:6c:f8, 2015-01-01 02:11:01.775, 0.717, -0.019, 0.686, 0, 0.427, -0.244, -1.642, -46.56, 151.144, -19.740, -9.380, -26.527, 30.77, 0.23212, 0.3808, -0.11008, 0.88818,
 14:25:26.038,f6:90:cc:01:6d:25, 2015-01-01 02:11:00.920, 0.98, 0.075, 0.062, -0.122, 0, 0, 51.251, -84.37, 130.023, -29.200, -11.887, -1.653, 32.35, -0.022, -0.68433, -0.03229, -0.72806,
 14:25:26.038,f6:90:cc:01:6d:25, 2015-01-01 02:11:00.920, 0.98, 0.076, 0.062, 0, 0, 0, 51.246, -84.37, 130.067, -29.200, -11.887, -1.653, 32.35, -0.022, -0.68433, -0.03229, -0.72806,
 14:25:26.058,e3:ca:2d:fd:e0:8c, 2015-01-01 02:11:02.585, 0.833, -0.036, 0.584, -0.061, 0.061, 0, -3.593, -54.976, 168.629, -20.720, -8.840, -17.733, 30.41, 0.10208, 0.45645, -0.07336, 0.88077,
 14:25:26.058,e3:ca:2d:fd:e0:8c, 2015-01-01 02:11:02.585, 0.833, -0.037, 0.583, 0, 0.122, 0.061, -3.593, -54.97, 168.624, -20.720, -8.840, -17.733, 30.41, 0.10208, 0.45645, -0.07336, 0.88077,
 14:25:26.059,ed:40:fe:65:30:6c, 2015-01-01 02:11:01.490, 0.855, 0.073, 0.517, 0.488, 0.122, 0.122, 8.119, -58.651, -134.852, -24.013, -11.433, -0.213, 28.5, 0.36728, -0.42694, -0.24622, -0.78873,
 14:25:26.059,ed:40:fe:65:30:6c, 2015-01-01 02:11:01.490, 0.856, 0.073, 0.516, 0.305, 0.061, 0.061, 8.119, -58.651, -134.868, -24.013, -11.433, -0.213, 28.5, 0.36728, -0.42694, -0.24622, -0.78873,
 14:25:26.059,ed:35:33:d3:6c:f8, 2015-01-01 02:11:01.775, 0.718, -0.018, 0.686, -0.183, 0.671, -0.305, -1.637, -46.549, 151.122, -19.740, -9.380, -26.527, 30.77, 0.23212, 0.3808, -0.11008, 0.88818,
 14:25:26.059,ed:35:33:d3:6c:f8, 2015-01-01 02:11:01.775, 0.719, -0.017, 0.685, -0.244, 0.549, -0.366, -1.631, -46.533, 151.106, -19.740, -9.380, -26.527, 30.77, 0.23212, 0.3808, -0.11008, 0.88818,
 14:25:26.061,f6:90:cc:01:6d:25, 2015-01-01 02:11:00.920, 0.98, 0.076, 0.061, 0, 0.061, 0, 51.229, -84.37, 130.111, -29.200, -11.887, -1.653, 32.35, -0.01843, -0.68411, -0.03516, -0.72824,
 14:25:26.061,f6:90:cc:01:6d:25, 2015-01-01 02:11:00.920, 0.981, 0.075, 0.062, 0.061, -0.061, 0, 51.224, -84.37, 130.15, -29.200, -11.887, -1.653, 32.35, -0.01843, -0.68411, -0.03516, -0.72824,
 14:25:26.082,ed:40:fe:65:30:6c, 2015-01-01 02:11:01.490, 0.855, 0.074, 0.516, 0.122, 0.061, 0.061, 8.119, -58.651, -134.885, -23.833, -11.293, 0.167, 28.5, 0.36728, -0.42694, -0.24622, -0.78873,
 14:25:26.082,ed:40:fe:65:30:6c, 2015-01-01 02:11:01.490, 0.857, 0.074, 0.517, 0.183, 0, 0, 8.124, -58.651, -134.901, -23.833, -11.293, 0.167, 28.5, 0.36728, -0.42694, -0.24622, -0.78873,
 14:25:26.103,e3:ca:2d:fd:e0:8c, 2015-01-01 02:11:02.585, 0.833, -0.038, 0.584, 0.122, 0.122, 0.183, -3.593, -54.97, 168.629, -20.720, -8.840, -17.733, 30.41, 0.10208, 0.45645, -0.07336, 0.88077,
 14:25:26.103,e3:ca:2d:fd:e0:8c, 2015-01-01 02:11:02.585, 0.833, -0.038, 0.584, 0.183, 0.122, 0.244, -3.598, -54.965, 168.635, -20.720, -8.840, -17.733, 30.41, 0.10208, 0.45645, -0.07336, 0.88077,
 14:25:26.106,f6:90:cc:01:6d:25, 2015-01-01 02:11:00.920, 0.982, 0.076, 0.062, 0.183, -0.061, 0.061, 51.229, -84.37, 130.182, -29.200, -11.887, -1.653, 32.35, -0.01843, -0.68411, -0.03516, -0.72824,
 14:25:26.106,f6:90:cc:01:6d:25, 2015-01-01 02:11:00.920, 0.981, 0.074, 0.062, 0, 0, 0.183, 51.213, -84.37, 130.232, -29.200, -11.887, -1.653, 32.35, -0.01843, -0.68411, -0.03516, -0.72824,
 14:25:26.128,ed:35:33:d3:6c:f8, 2015-01-01 02:11:01.775, 0.72, -0.018, 0.686, -0.061, 0.488, -0.305, -1.626, -46.522, 151.089, -19.740, -9.380, -26.527, 30.77, 0.23212, 0.3808, -0.11008, 0.88818,
 14:25:26.128,ed:35:33:d3:6c:f8, 2015-01-01 02:11:01.775, 0.719, -0.02, 0.685, 0.244, 0.183, -0.244, -1.62, -46.511, 151.078, -19.740, -9.380, -26.527, 30.77, 0.23212, 0.3808, -0.11008, 0.88818,
 14:25:26.128,ed:40:fe:65:30:6c, 2015-01-01 02:11:01.490, 0.856, 0.072, 0.516, 0.305, 0, -0.061, 8.13, -58.651, -134.923, -23.833, -11.293, 0.167, 28.5, 0.36728, -0.42694, -0.24622, -0.78873,
 14:25:26.128,ed:40:fe:65:30:6c, 2015-01-01 02:11:01.490, 0.856, 0.071, 0.516, 0.427, 0, -0.061, 8.141, -58.651, -134.945, -23.833, -11.293, 0.167, 28.5, 0.36728, -0.42694, -0.24622, -0.78873,
 14:25:26.147,e3:ca:2d:fd:e0:8c, 2015-01-01 02:11:02.585, 0.83, -0.038, 0.583, 0.183, 0, 0.183, -3.598, -54.965, 168.64, -20.720, -8.840, -17.733, 30.41, 0.10208, 0.45645, -0.07336, 0.88077,
 14:25:26.147,e3:ca:2d:fd:e0:8c, 2015-01-01 02:11:02.585, 0.862, -0.037, 0.58, 0, -0.305, 0.183, -3.604, -54.965, 168.646, -20.720, -8.840, -17.733, 30.41, 0.10208, 0.45645, -0.07336, 0.88077,
 14:25:26.150,ed:35:33:d3:6c:f8, 2015-01-01 02:11:01.775, 0.719, -0.02, 0.685, 0.244, 0.122, -0.244, -1.609, -46.511, 151.068, -19.873, -9.267, -26.847, 30.77, 0.23212, 0.3808, -0.11008, 0.88818,
 14:25:26.150,ed:35:33:d3:6c:f8, 2015-01-01 02:11:01.775, 0.719, -0.019, 0.686, 0.122, 0.366, -0.366, -1.599, -46.505, 151.051, -19.873, -9.267, -26.847, 30.77, 0.23212, 0.3808, -0.11008, 0.88818,
 14:25:26.151,f6:90:cc:01:6d:25, 2015-01-01 02:11:01.210, 0.981, 0.073, 0.061, -0.061, 0, 0.122, 51.185, -84.37, 130.292, -29.200, -11.887, -1.653, 32.35, -0.01843, -0.68411, -0.03516, -0.72824,
 14:25:26.151,f6:90:cc:01:6d:25, 2015-01-01 02:11:01.210, 0.982, 0.073, 0.06, -0.122, 0, 0.122, 51.163, -84.375, 130.342, -29.200, -11.887, -1.653, 32.35, -0.01843, -0.68411, -0.03516, -0.72824,
 14:25:26.193,e3:ca:2d:fd:e0:8c, 2015-01-01 02:11:02.585, 0.832, -0.037, 0.604, -0.732, -9.338, 0.671, -3.631, -55.063, 168.668, -20.720, -8.840, -17.733, 30.41, 0.10208, 0.45645, -0.07336, 0.88077,
 14:25:26.193,e3:ca:2d:fd:e0:8c, 2015-01-01 02:11:02.585, 0.837, -0.037, 0.587, 0.122, 0.854, 0.061, -3.653, -55.146, 168.679, -20.720, -8.840, -17.733, 30.41, 0.10208, 0.45645, -0.07336, 0.88077,
 14:25:26.195,ed:40:fe:65:30:6c, 2015-01-01 02:11:01.490, 0.856, 0.072, 0.515, 0.366, 0, -0.061, 8.146, -58.651, -134.962, -23.833, -11.293, 0.167, 28.5, 0.36526, -0.42752, -0.24432, -0.78995,
 14:25:26.195,ed:40:fe:65:30:6c, 2015-01-01 02:11:01.490, 0.856, 0.074, 0.516, 0.244, 0, -0.061, 8.152, -58.651, -134.984, -23.833, -11.293, 0.167, 28.5, 0.36526, -0.42752, -0.24432, -0.78995,
 14:25:26.195,ed:35:33:d3:6c:f8, 2015-01-01 02:11:01.775, 0.719, -0.018, 0.687, -0.122, 0.305, -0.488, -1.588, -46.494, 151.035, -19.873, -9.267, -26.847, 30.77, 0.23212, 0.3808, -0.11008, 0.88818,
 14:25:26.195,ed:35:33:d3:6c:f8, 2015-01-01 02:11:01.775, 0.718, -0.019, 0.686, -0.061, 0.427, -0.488, -1.582, -46.489, 151.013, -19.873, -9.267, -26.847, 30.77, 0.23212, 0.3808, -0.11008, 0.88818,
 14:25:26.198,f6:90:cc:01:6d:25, 2015-01-01 02:11:01.210, 0.979, 0.075, 0.06, 0, 0, 0.122, 51.141, -84.375, 130.397, -29.200, -11.887, -1.653, 32.35, -0.01843, -0.68411, -0.03516, -0.72824,
 14:25:26.198,f6:90:cc:01:6d:25, 2015-01-01 02:11:01.210, 0.982, 0.074, 0.06, 0, -0.183, 0.183, 51.136, -84.38, 130.435, -29.200, -11.887, -1.653, 32.35, -0.01843, -0.68411, -0.03516, -0.72824,
 14:25:26.217,ed:40:fe:65:30:6c, 2015-01-01 02:11:01.845, 0.856, 0.072, 0.516, 0.061, -0.061, -0.061, 8.157, -58.651, -135.005, -23.833, -11.293, 0.167, 28.5, 0.36526, -0.42752, -0.24432, -0.78995,
 14:25:26.217,ed:40:fe:65:30:6c, 2015-01-01 02:11:01.845, 0.854, 0.074, 0.517, 0.122, -0.061, -0.122, 8.157, -58.651, -135.027, -23.833, -11.293, 0.167, 28.5, 0.36526, -0.42752, -0.24432, -0.78995,
 14:25:26.217,e3:ca:2d:fd:e0:8c, 2015-01-01 02:11:02.585, 0.835, -0.039, 0.579, 0.122, 0.305, 0.122, -3.653, -55.129, 168.673, -20.500, -8.513, -17.613, 30.41, 0.10208, 0.45645, -0.07336, 0.88077,
 14:25:26.217,e3:ca:2d:fd:e0:8c, 2015-01-01 02:11:02.585, 0.834, -0.039, 0.582, 0.061, 0.122, 0, -3.653, -55.124, 168.679, -20.500, -8.513, -17.613, 30.41, 0.10208, 0.45645, -0.07336, 0.88077,
 14:25:26.218,ed:35:33:d3:6c:f8, 2015-01-01 02:11:01.775, 0.716, -0.017, 0.687, 0, 0.061, -0.427, -1.571, -46.478, 150.996, -19.873, -9.267, -26.847, 30.77, 0.23517, 0.37885, -0.11099, 0.88812,
 14:25:26.218,ed:35:33:d3:6c:f8, 2015-01-01 02:11:01.775, 0.72, -0.018, 0.686, 0, -0.244, -0.305, -1.566, -46.478, 150.98, -19.873, -9.267, -26.847, 30.77, 0.23517, 0.37885, -0.11099, 0.88812,
 14:25:26.238,ed:40:fe:65:30:6c, 2015-01-01 02:11:01.845, 0.855, 0.072, 0.516, 0.244, -0.183, 0, 8.163, -58.656, -135.044, -23.833, -11.293, 0.167, 28.5, 0.36526, -0.42752, -0.24432, -0.78995,
 14:25:26.238,ed:40:fe:65:30:6c, 2015-01-01 02:11:01.845, 0.858, 0.072, 0.516, 0.366, -0.244, 0, 8.168, -58.661, -135.066, -23.833, -11.293, 0.167, 28.5, 0.36526, -0.42752, -0.24432, -0.78995,
 14:25:26.241,f6:90:cc:01:6d:25, 2015-01-01 02:11:01.210, 0.981, 0.073, 0.06, -0.122, -0.183, 0.122, 51.141, -84.386, 130.457, -29.200, -11.887, -1.653, 32.35, -0.01843, -0.68411, -0.03516, -0.72824,
 14:25:26.241,f6:90:cc:01:6d:25, 2015-01-01 02:11:01.210, 0.98, 0.073, 0.06, -0.122, 0, 0.122, 51.125, -84.386, 130.501, -29.200, -11.887, -1.653, 32.35, -0.01843, -0.68411, -0.03516, -0.72824,
 14:25:26.263,ed:35:33:d3:6c:f8, 2015-01-01 02:11:01.775, 0.718, -0.02, 0.686, 0.244, -0.244, -0.366, -1.555, -46.483, 150.969, -19.873, -9.267, -26.847, 30.77, 0.23517, 0.37885, -0.11099, 0.88812,
 14:25:26.263,ed:35:33:d3:6c:f8, 2015-01-01 02:11:01.775, 0.719, -0.019, 0.686, 0.427, -0.122, -0.183, -1.544, -46.483, 150.958, -19.873, -9.267, -26.847, 30.77, 0.23517, 0.37885, -0.11099, 0.88812,
 14:25:26.263,f6:90:cc:01:6d:25, 2015-01-01 02:11:01.210, 0.983, 0.074, 0.063, -0.061, -0.183, 0.122, 51.125, -84.391, 130.529, -29.200, -11.887, -1.653, 32.35, -0.01843, -0.68411, -0.03516, -0.72824,
 14:25:26.263,f6:90:cc:01:6d:25, 2015-01-01 02:11:01.210, 0.981, 0.071, 0.063, 0, -0.122, 0.122, 51.119, -84.397, 130.562, -29.200, -11.887, -1.653, 32.35, -0.01843, -0.68411, -0.03516, -0.72824,
 14:25:26.283,ed:40:fe:65:30:6c, 2015-01-01 02:11:01.845, 0.855, 0.072, 0.517, 0.61, -0.427, 0, 8.185, -58.667, -135.082, -23.833, -11.293, 0.167, 28.5, 0.36526, -0.42752, -0.24432, -0.78995,
 14:25:26.283,ed:40:fe:65:30:6c, 2015-01-01 02:11:01.845, 0.858, 0.068, 0.514, 1.282, -0.183, 0.244, 8.201, -58.672, -135.093, -23.833, -11.293, 0.167, 28.5, 0.36526, -0.42752, -0.24432, -0.78995,
 14:25:26.283,e3:ca:2d:fd:e0:8c, 2015-01-01 02:11:02.585, 0.834, -0.038, 0.583, 0.061, 0.061, 0, -3.653, -55.118, 168.673, -20.500, -8.513, -17.613, 30.41, 0.10208, 0.45645, -0.07336, 0.88077,
 14:25:26.283,e3:ca:2d:fd:e0:8c, 2015-01-01 02:11:02.585, 0.834, -0.038, 0.583, 0, 0.061, 0, -3.653, -55.118, 168.668, -20.500, -8.513, -17.613, 30.41, 0.10208, 0.45645, -0.07336, 0.88077,
 14:25:26.305,e3:ca:2d:fd:e0:8c, 2015-01-01 02:11:02.585, 0.835, -0.038, 0.582, -0.122, 0, 0, -3.653, -55.113, 168.64, -20.500, -8.513, -17.613, 30.41, 0.10211, 0.45737, -0.07376, 0.88025,
 14:25:26.305,e3:ca:2d:fd:e0:8c, 2015-01-01 02:11:02.585, 0.835, -0.038, 0.582, 0, -0.061, 0, -3.658, -55.113, 168.657, -20.500, -8.513, -17.613, 30.41, 0.10211, 0.45737, -0.07376, 0.88025,
 14:25:26.307,ed:35:33:d3:6c:f8, 2015-01-01 02:11:02.130, 0.722, -0.019, 0.682, 0.854, 0.244, 0.244, -1.527, -46.483, 150.952, -19.873, -9.267, -26.847, 30.77, 0.23517, 0.37885, -0.11099, 0.88812,
 14:25:26.307,ed:35:33:d3:6c:f8, 2015-01-01 02:11:02.130, 0.719, -0.014, 0.686, 0.854, 0.427, 0.732, -1.522, -46.472, 150.963, -19.873, -9.267, -26.847, 30.77, 0.23517, 0.37885, -0.11099, 0.88812,
 14:25:26.309,f6:90:cc:01:6d:25, 2015-01-01 02:11:01.210, 0.98, 0.069, 0.059, 0.488, 0.061, -0.061, 51.114, -84.397, 130.594, -29.200, -11.887, -1.653, 32.35, -0.01843, -0.68411, -0.03516, -0.72824,
 14:25:26.309,f6:90:cc:01:6d:25, 2015-01-01 02:11:01.210, 0.983, 0.072, 0.063, 0.854, 0.061, -0.244, 51.13, -84.391, 130.611, -29.200, -11.887, -1.653, 32.35, -0.01843, -0.68411, -0.03516, -0.72824,
 14:25:26.328,ed:40:fe:65:30:6c, 2015-01-01 02:11:01.845, 0.858, 0.073, 0.514, 1.526, -0.061, 0.61, 8.207, -58.672, -135.088, -23.833, -11.293, 0.167, 28.5, 0.36526, -0.42752, -0.24432, -0.78995,
 14:25:26.328,ed:40:fe:65:30:6c, 2015-01-01 02:11:01.845, 0.858, 0.076, 0.515, 1.16, 0, 0.732, 8.201, -58.678, -135.071, -23.833, -11.293, 0.167, 28.5, 0.36526, -0.42752, -0.24432, -0.78995,
 14:25:26.350,e3:ca:2d:fd:e0:8c, 2015-01-01 02:11:02.585, 0.836, -0.039, 0.582, 0.183, 0, 0.122, -3.658, -55.113, 168.668, -20.500, -8.513, -17.613, 30.41, 0.10211, 0.45737, -0.07376, 0.88025,
 14:25:26.350,e3:ca:2d:fd:e0:8c, 2015-01-01 02:11:02.585, 0.836, -0.038, 0.58, 0.061, 0.183, 0, -3.658, -55.107, 168.668, -20.500, -8.513, -17.613, 30.41, 0.10211, 0.45737, -0.07376, 0.88025,
 14:25:26.352,ed:35:33:d3:6c:f8, 2015-01-01 02:11:02.130, 0.719, -0.015, 0.686, 0.854, 0.183, 0.916, -1.522, -46.467, 150.98, -19.873, -9.267, -26.847, 30.77, 0.23517, 0.37885, -0.11099, 0.88812,
 14:25:26.352,ed:35:33:d3:6c:f8, 2015-01-01 02:11:02.130, 0.717, -0.018, 0.686, 0.366, 0.122, 0.671, -1.527, -46.461, 150.996, -19.873, -9.267, -26.847, 30.77, 0.23517, 0.37885, -0.11099, 0.88812,
 14:25:26.353,f6:90:cc:01:6d:25, 2015-01-01 02:11:01.210, 0.981, 0.075, 0.059, 0.61, 0.122, -0.183, 51.141, -84.386, 130.638, -29.440, -11.773, -1.400, 32.35, -0.01843, -0.68411, -0.03516, -0.72824,
 14:25:26.353,f6:90:cc:01:6d:25, 2015-01-01 02:11:01.210, 0.98, 0.076, 0.059, 0.305, -0.061, 0, 51.147, -84.386, 130.66, -29.440, -11.773, -1.400, 32.35, -0.01843, -0.68411, -0.03516, -0.72824,
 14:25:26.374,ed:40:fe:65:30:6c, 2015-01-01 02:11:01.845, 0.856, 0.075, 0.515, 1.038, 0, 0.732, 8.201, -58.678, -135.049, -23.833, -11.293, 0.167, 28.5, 0.36526, -0.42752, -0.24432, -0.78995,
 14:25:26.374,ed:40:fe:65:30:6c, 2015-01-01 02:11:01.845, 0.855, 0.074, 0.514, 0.488, 0, 0.427, 8.196, -58.683, -135.038, -23.833, -11.293, 0.167, 28.5, 0.36526, -0.42752, -0.24432, -0.78995,
 14:25:26.374,e3:ca:2d:fd:e0:8c, 2015-01-01 02:11:02.945, 0.835, -0.037, 0.581, -0.122, 0.183, -0.061, -3.658, -55.107, 168.662, -20.500, -8.513, -17.613, 30.41, 0.10211, 0.45737, -0.07376, 0.88025,
 14:25:26.374,e3:ca:2d:fd:e0:8c, 2015-01-01 02:11:02.945, 0.836, -0.037, 0.58, -0.061, 0.305, 0, -3.658, -55.102, 168.64, -20.500, -8.513, -17.613, 30.41, 0.10211, 0.45737, -0.07376, 0.88025,
 14:25:26.375,ed:35:33:d3:6c:f8, 2015-01-01 02:11:02.130, 0.714, -0.018, 0.687, 0.061, 0, 0.366, -1.533, -46.461, 151.007, -19.873, -9.267, -26.847, 30.77, 0.23517, 0.37885, -0.11099, 0.88812,
 14:25:26.375,ed:35:33:d3:6c:f8, 2015-01-01 02:11:02.130, 0.718, -0.015, 0.69, -0.122, 0, 0, -1.538, -46.456, 151.013, -19.873, -9.267, -26.847, 30.77, 0.23517, 0.37885, -0.11099, 0.88812,
 14:25:26.399,f6:90:cc:01:6d:25, 2015-01-01 02:11:01.210, 0.981, 0.078, 0.061, 0.183, -0.061, 0, 51.152, -84.391, 130.688, -29.440, -11.773, -1.400, 32.35, -0.0152, -0.68402, -0.03793, -0.72824,
 14:25:26.399,f6:90:cc:01:6d:25, 2015-01-01 02:11:01.210, 0.981, 0.076, 0.06, -0.061, 0.061, 0, 51.141, -84.391, 130.721, -29.440, -11.773, -1.400, 32.35, -0.0152, -0.68402, -0.03793, -0.72824,
 14:25:26.417,e3:ca:2d:fd:e0:8c, 2015-01-01 02:11:02.945, 0.835, -0.037, 0.581, 0, 0.366, 0, -3.658, -55.096, 168.651, -20.500, -8.513, -17.613, 30.41, 0.10211, 0.45737, -0.07376, 0.88025,
 14:25:26.417,e3:ca:2d:fd:e0:8c, 2015-01-01 02:11:02.945, 0.835, -0.04, 0.582, 0, 0.427, 0, -3.658, -55.085, 168.646, -20.500, -8.513, -17.613, 30.41, 0.10211, 0.45737, -0.07376, 0.88025,
 14:25:26.418,ed:40:fe:65:30:6c, 2015-01-01 02:11:01.845, 0.855, 0.074, 0.517, 0.244, -0.061, 0.183, 8.19, -58.683, -135.027, -23.833, -11.293, 0.167, 28.5, 0.36526, -0.42752, -0.24432, -0.78995,
 14:25:26.418,ed:40:fe:65:30:6c, 2015-01-01 02:11:01.845, 0.858, 0.076, 0.517, 0.183, -0.244, 0.244, 8.19, -58.689, -135.011, -23.833, -11.293, 0.167, 28.5, 0.36526, -0.42752, -0.24432, -0.78995,
 14:25:26.419,ed:35:33:d3:6c:f8, 2015-01-01 02:11:02.130, 0.721, -0.014, 0.687, 0, -0.427, 0.183, -1.538, -46.461, 151.007, -19.873, -9.267, -26.847, 30.77, 0.23517, 0.37885, -0.11099, 0.88812,
 14:25:26.419,ed:35:33:d3:6c:f8, 2015-01-01 02:11:02.130, 0.72, -0.019, 0.682, 0.549, -0.549, 0.61, -1.538, -46.467, 151.018, -19.873, -9.267, -26.847, 30.77, 0.23517, 0.37885, -0.11099, 0.88812,
 14:25:26.420,f6:90:cc:01:6d:25, 2015-01-01 02:11:01.525, 0.981, 0.073, 0.06, 0, -0.061, -0.122, 51.158, -84.386, 130.737, -29.440, -11.773, -1.400, 32.35, -0.0152, -0.68402, -0.03793, -0.72824,
 14:25:26.420,f6:90:cc:01:6d:25, 2015-01-01 02:11:01.525, 0.982, 0.073, 0.059, 0.244, -0.122, -0.122, 51.191, -84.386, 130.737, -29.440, -11.773, -1.400, 32.35, -0.0152, -0.68402, -0.03793, -0.72824,
 14:25:26.441,ed:40:fe:65:30:6c, 2015-01-01 02:11:01.845, 0.858, 0.073, 0.513, 0.61, -0.244, 0.488, 8.185, -58.694, -134.995, -24.027, -11.160, 0.047, 28.5, 0.36526, -0.42752, -0.24432, -0.78995,
 14:25:26.441,ed:40:fe:65:30:6c, 2015-01-01 02:11:01.845, 0.857, 0.071, 0.512, 0.977, -0.183, 0.61, 8.185, -58.7, -134.973, -24.027, -11.160, 0.047, 28.5, 0.36526, -0.42752, -0.24432, -0.78995,
 14:25:26.463,e3:ca:2d:fd:e0:8c, 2015-01-01 02:11:02.945, 0.834, -0.039, 0.582, 0, 0.305, -0.061, -3.658, -55.08, 168.624, -20.500, -8.513, -17.613, 30.41, 0.10211, 0.45737, -0.07376, 0.88025,
 14:25:26.463,e3:ca:2d:fd:e0:8c, 2015-01-01 02:11:02.945, 0.834, -0.039, 0.583, 0.061, 0.183, 0.061, -3.658, -55.074, 168.602, -20.500, -8.513, -17.613, 30.41, 0.10211, 0.45737, -0.07376, 0.88025,
 14:25:26.466,f6:90:cc:01:6d:25, 2015-01-01 02:11:01.525, 0.982, 0.074, 0.058, 0.488, -0.061, 0, 51.213, -84.391, 130.754, -29.440, -11.773, -1.400, 32.35, -0.0152, -0.68402, -0.03793, -0.72824,
 14:25:26.466,f6:90:cc:01:6d:25, 2015-01-01 02:11:01.525, 0.981, 0.075, 0.061, 0.366, 0, 0, 51.218, -84.391, 130.781, -29.440, -11.773, -1.400, 32.35, -0.0152, -0.68402, -0.03793, -0.72824,
 14:25:26.488,ed:40:fe:65:30:6c, 2015-01-01 02:11:01.845, 0.858, 0.075, 0.513, 0.793, -0.183, 0.671, 8.179, -58.711, -134.94, -24.027, -11.160, 0.047, 28.5, 0.36526, -0.42752, -0.24432, -0.78995,
 14:25:26.488,ed:40:fe:65:30:6c, 2015-01-01 02:11:01.845, 0.859, 0.077, 0.513, 0.427, -0.122, 0.61, 8.168, -58.711, -134.912, -24.027, -11.160, 0.047, 28.5, 0.36526, -0.42752, -0.24432, -0.78995,
 14:25:26.489,ed:35:33:d3:6c:f8, 2015-01-01 02:11:02.130, 0.72, -0.018, 0.682, 0.488, -0.244, 0.61, -1.544, -46.472, 151.029, -19.873, -9.267, -26.847, 30.77, 0.23517, 0.37885, -0.11099, 0.88812,
 14:25:26.489,ed:35:33:d3:6c:f8, 2015-01-01 02:11:02.130, 0.722, -0.013, 0.685, 0.244, 0.061, 0.427, -1.544, -46.472, 151.04, -19.873, -9.267, -26.847, 30.77, 0.23517, 0.37885, -0.11099, 0.88812,
 14:25:26.508,e3:ca:2d:fd:e0:8c, 2015-01-01 02:11:02.945, 0.833, -0.038, 0.582, 0.122, 0.244, 0, -3.658, -55.069, 168.591, -20.500, -8.513, -17.613, 30.41, 0.10211, 0.45737, -0.07376, 0.88025,
 14:25:26.508,e3:ca:2d:fd:e0:8c, 2015-01-01 02:11:02.945, 0.834, -0.037, 0.583, 0.122, 0.305, 0, -3.658, -55.063, 168.602, -20.500, -8.513, -17.613, 30.41, 0.10211, 0.45737, -0.07376, 0.88025,
 14:25:26.510,ed:35:33:d3:6c:f8, 2015-01-01 02:11:02.130, 0.719, -0.015, 0.684, -0.183, 0.366, 0.305, -1.549, -46.467, 151.046, -19.780, -9.013, -26.527, 30.77, 0.23517, 0.37885, -0.11099, 0.88812,
 14:25:26.510,ed:35:33:d3:6c:f8, 2015-01-01 02:11:02.130, 0.721, -0.016, 0.685, -0.854, 0.793, 0, -1.56, -46.456, 151.046, -19.780, -9.013, -26.527, 30.77, 0.23517, 0.37885, -0.11099, 0.88812,
 14:25:26.511,f6:90:cc:01:6d:25, 2015-01-01 02:11:01.525, 0.982, 0.076, 0.062, 0, 0.122, 0, 51.207, -84.391, 130.825, -29.440, -11.773, -1.400, 32.35, -0.0152, -0.68402, -0.03793, -0.72824,
 14:25:26.511,f6:90:cc:01:6d:25, 2015-01-01 02:11:01.525, 0.983, 0.076, 0.061, -0.183, 0.061, 0, 51.185, -84.386, 130.869, -29.440, -11.773, -1.400, 32.35, -0.0152, -0.68402, -0.03793, -0.72824,
 14:25:26.554,ed:40:fe:65:30:6c, 2015-01-01 02:11:01.845, 0.858, 0.075, 0.513, -0.061, 0, 0.488, 8.152, -58.716, -134.89, -24.027, -11.160, 0.047, 28.5, 0.36548, -0.42783, -0.24481, -0.78952,
 14:25:26.554,ed:40:fe:65:30:6c, 2015-01-01 02:11:01.845, 0.861, 0.075, 0.513, -0.488, 0, 0.305, 8.135, -58.716, -134.879, -24.027, -11.160, 0.047, 28.5, 0.36548, -0.42783, -0.24481, -0.78952,
 14:25:26.555,f6:90:cc:01:6d:25, 2015-01-01 02:11:01.525, 0.983, 0.075, 0.06, -0.366, 0.061, 0.305, 51.13, -84.391, 130.946, -29.440, -11.773, -1.400, 32.35, -0.0152, -0.68402, -0.03793, -0.72824,
 14:25:26.555,f6:90:cc:01:6d:25, 2015-01-01 02:11:01.525, 0.98, 0.074, 0.061, -0.366, 0.244, 0.244, 51.053, -84.391, 131.05, -29.440, -11.773, -1.400, 32.35, -0.0152, -0.68402, -0.03793, -0.72824,
 14:25:26.555,ed:35:33:d3:6c:f8, 2015-01-01 02:11:02.130, 0.722, -0.018, 0.684, -0.977, 0.854, -0.305, -1.571, -46.439, 151.04, -19.780, -9.013, -26.527, 30.77, 0.23517, 0.37885, -0.11099, 0.88812,
 14:25:26.555,ed:35:33:d3:6c:f8, 2015-01-01 02:11:02.130, 0.719, -0.021, 0.682, -0.732, 0.671, -0.183, -1.582, -46.423, 151.029, -19.780, -9.013, -26.527, 30.77, 0.23517, 0.37885, -0.11099, 0.88812,
 14:25:26.577,ed:35:33:d3:6c:f8, 2015-01-01 02:11:02.130, 0.719, -0.021, 0.684, -1.16, 1.343, -0.305, -1.593, -46.406, 151.018, -19.780, -9.013, -26.527, 30.77, 0.23514, 0.37836, -0.11087, 0.88834,
 14:25:26.577,ed:35:33:d3:6c:f8, 2015-01-01 02:11:02.130, 0.714, -0.02, 0.689, -2.197, 2.319, -1.038, -1.609, -46.368, 150.996, -19.780, -9.013, -26.527, 30.77, 0.23514, 0.37836, -0.11087, 0.88834,
 14:25:26.577,e3:ca:2d:fd:e0:8c, 2015-01-01 02:11:02.945, 0.835, -0.037, 0.583, 0.061, 0.305, 0, -3.653, -55.058, 168.607, -20.500, -8.513, -17.613, 30.41, 0.10211, 0.45737, -0.07376, 0.88025,
 14:25:26.577,e3:ca:2d:fd:e0:8c, 2015-01-01 02:11:02.945, 0.834, -0.037, 0.582, 0, 0.183, -0.061, -3.653, -55.052, 168.602, -20.500, -8.513, -17.613, 30.41, 0.10211, 0.45737, -0.07376, 0.88025,
 14:25:26.578,ed:40:fe:65:30:6c, 2015-01-01 02:11:02.205, 0.86, 0.071, 0.511, -0.427, 0.122, 0.183, 8.119, -58.716, -134.868, -24.027, -11.160, 0.047, 28.5, 0.36548, -0.42783, -0.24481, -0.78952,
 14:25:26.578,ed:40:fe:65:30:6c, 2015-01-01 02:11:02.205, 0.859, 0.069, 0.512, -0.488, 0.366, 0.183, 8.102, -58.711, -134.863, -24.027, -11.160, 0.047, 28.5, 0.36548, -0.42783, -0.24481, -0.78952,
 14:25:26.600,e3:ca:2d:fd:e0:8c, 2015-01-01 02:11:02.945, 0.835, -0.038, 0.581, -0.061, 0.122, -0.122, -3.653, -55.052, 168.618, -20.773, -8.673, -17.187, 30.41, 0.10211, 0.45737, -0.07376, 0.88025,
 14:25:26.600,e3:ca:2d:fd:e0:8c, 2015-01-01 02:11:02.945, 0.836, -0.039, 0.582, 0, 0.244, -0.183, -3.647, -55.047, 168.629, -20.773, -8.673, -17.187, 30.41, 0.10211, 0.45737, -0.07376, 0.88025,
 14:25:26.602,f6:90:cc:01:6d:25, 2015-01-01 02:11:01.525, 0.98, 0.072, 0.062, -0.244, 0.122, 0.183, 51.004, -84.397, 131.122, -29.440, -11.773, -1.400, 32.35, -0.0152, -0.68402, -0.03793, -0.72824,
 14:25:26.602,f6:90:cc:01:6d:25, 2015-01-01 02:11:01.525, 0.981, 0.07, 0.061, -0.427, 0.244, 0, 50.949, -84.391, 131.188, -29.440, -11.773, -1.400, 32.35, -0.0152, -0.68402, -0.03793, -0.72824,
 14:25:26.621,ed:40:fe:65:30:6c, 2015-01-01 02:11:02.205, 0.858, 0.07, 0.513, -1.221, 0.549, 0.061, 8.075, -58.705, -134.846, -24.027, -11.160, 0.047, 28.5, 0.36548, -0.42783, -0.24481, -0.78952,
 14:25:26.621,ed:40:fe:65:30:6c, 2015-01-01 02:11:02.205, 0.854, 0.073, 0.518, -2.38, 0.427, 0, 8.026, -58.7, -134.835, -24.027, -11.160, 0.047, 28.5, 0.36548, -0.42783, -0.24481, -0.78952,
 14:25:26.622,ed:35:33:d3:6c:f8, 2015-01-01 02:11:02.130, 0.712, -0.018, 0.694, -3.296, 2.747, -1.587, -1.637, -46.318, 150.952, -19.780, -9.013, -26.527, 30.77, 0.23514, 0.37836, -0.11087, 0.88834,
 14:25:26.622,ed:35:33:d3:6c:f8, 2015-01-01 02:11:02.130, 0.714, -0.02, 0.696, -3.54, 1.648, -1.587, -1.67, -46.274, 150.903, -19.780, -9.013, -26.527, 30.77, 0.23514, 0.37836, -0.11087, 0.88834,
 14:25:26.624,f6:90:cc:01:6d:25, 2015-01-01 02:11:01.525, 0.982, 0.07, 0.062, -0.732, 0, -0.061, 50.933, -84.391, 131.21, -28.960, -12.153, -1.940, 32.35, -0.0152, -0.68402, -0.03793, -0.72824,
 14:25:26.624,f6:90:cc:01:6d:25, 2015-01-01 02:11:01.525, 0.982, 0.072, 0.061, -0.732, -0.305, 0.122, 50.944, -84.397, 131.204, -28.960, -12.153, -1.940, 32.35, -0.0152, -0.68402, -0.03793, -0.72824,
 14:25:26.644,ed:40:fe:65:30:6c, 2015-01-01 02:11:02.205, 0.855, 0.074, 0.521, -3.052, 0.305, -0.122, 7.971, -58.694, -134.83, -24.027, -11.160, 0.047, 28.5, 0.36548, -0.42783, -0.24481, -0.78952,
 14:25:26.644,ed:40:fe:65:30:6c, 2015-01-01 02:11:02.205, 0.854, 0.063, 0.518, -1.587, -0.061, 0, 7.927, -58.694, -134.83, -24.027, -11.160, 0.047, 28.5, 0.36548, -0.42783, -0.24481, -0.78952,
 14:25:26.666,e3:ca:2d:fd:e0:8c, 2015-01-01 02:11:02.945, 0.837, -0.041, 0.583, 0, 0.183, -0.305, -3.642, -55.042, 168.629, -20.773, -8.673, -17.187, 30.41, 0.10211, 0.45737, -0.07376, 0.88025,
 14:25:26.666,e3:ca:2d:fd:e0:8c, 2015-01-01 02:11:02.945, 0.835, -0.04, 0.582, 0, 0.244, -0.427, -3.636, -55.042, 168.596, -20.773, -8.673, -17.187, 30.41, 0.10211, 0.45737, -0.07376, 0.88025,
 14:25:26.667,ed:35:33:d3:6c:f8, 2015-01-01 02:11:02.490, 0.714, -0.023, 0.691, -2.258, 0.305, -1.038, -1.697, -46.258, 150.87, -19.780, -9.013, -26.527, 30.77, 0.23514, 0.37836, -0.11087, 0.88834,
 14:25:26.667,ed:35:33:d3:6c:f8, 2015-01-01 02:11:02.490, 0.713, -0.027, 0.687, -1.099, -0.427, -0.061, -1.719, -46.258, 150.853, -19.780, -9.013, -26.527, 30.77, 0.23514, 0.37836, -0.11087, 0.88834,
 14:25:26.668,f6:90:cc:01:6d:25, 2015-01-01 02:11:01.525, 0.98, 0.071, 0.062, -0.671, -0.61, 0.244, 50.982, -84.408, 131.166, -28.960, -12.153, -1.940, 32.35, -0.0152, -0.68402, -0.03793, -0.72824,
 14:25:26.668,f6:90:cc:01:6d:25, 2015-01-01 02:11:01.525, 0.979, 0.069, 0.062, -0.244, -0.427, 0, 51.026, -84.419, 131.127, -28.960, -12.153, -1.940, 32.35, -0.0152, -0.68402, -0.03793, -0.72824,
 14:25:26.688,e3:ca:2d:fd:e0:8c, 2015-01-01 02:11:02.945, 0.833, -0.038, 0.583, 0, 0.244, -0.61, -3.62, -55.036, 168.569, -20.773, -8.673, -17.187, 30.41, 0.10275, 0.4567, -0.07388, 0.88049,
 14:25:26.688,e3:ca:2d:fd:e0:8c, 2015-01-01 02:11:02.945, 0.831, -0.037, 0.583, -0.122, 0, -0.61, -3.609, -55.036, 168.552, -20.773, -8.673, -17.187, 30.41, 0.10275, 0.4567, -0.07388, 0.88049,
 14:25:26.688,ed:40:fe:65:30:6c, 2015-01-01 02:11:02.205, 0.855, 0.059, 0.516, -0.366, -0.061, 0.427, 7.894, -58.694, -134.808, -24.027, -11.160, 0.047, 28.5, 0.36548, -0.42783, -0.24481, -0.78952,
 14:25:26.688,ed:40:fe:65:30:6c, 2015-01-01 02:11:02.205, 0.858, 0.061, 0.514, 0.977, -0.122, 0.732, 7.877, -58.694, -134.786, -24.027, -11.160, 0.047, 28.5, 0.36548, -0.42783, -0.24481, -0.78952,
 14:25:26.712,ed:35:33:d3:6c:f8, 2015-01-01 02:11:02.490, 0.717, -0.028, 0.685, 0.183, -0.549, 0.916, -1.736, -46.263, 150.87, -19.780, -9.013, -26.527, 30.77, 0.23514, 0.37836, -0.11087, 0.88834,
 14:25:26.712,ed:35:33:d3:6c:f8, 2015-01-01 02:11:02.490, 0.719, -0.026, 0.682, 1.465, -0.793, 1.587, -1.747, -46.274, 150.93, -19.780, -9.013, -26.527, 30.77, 0.23514, 0.37836, -0.11087, 0.88834,
 14:25:26.714,f6:90:cc:01:6d:25, 2015-01-01 02:11:01.525, 0.981, 0.07, 0.063, 0.244, -0.122, -0.183, 51.053, -84.419, 131.111, -28.960, -12.153, -1.940, 32.35, -0.01306, -0.68393, -0.03961, -0.72827,
 14:25:26.714,f6:90:cc:01:6d:25, 2015-01-01 02:11:01.525, 0.982, 0.073, 0.064, 0.732, 0.183, -0.305, 51.053, -84.408, 131.127, -28.960, -12.153, -1.940, 32.35, -0.01306, -0.68393, -0.03961, -0.72827,
 14:25:26.732,e3:ca:2d:fd:e0:8c, 2015-01-01 02:11:02.945, 0.83, -0.037, 0.585, -0.427, -0.061, -0.549, -3.598, -55.036, 168.547, -20.773, -8.673, -17.187, 30.41, 0.10275, 0.4567, -0.07388, 0.88049,
 14:25:26.732,e3:ca:2d:fd:e0:8c, 2015-01-01 02:11:02.945, 0.831, -0.037, 0.587, -0.244, -0.244, -0.366, -3.593, -55.042, 168.525, -20.773, -8.673, -17.187, 30.41, 0.10275, 0.4567, -0.07388, 0.88049,
 14:25:26.733,ed:40:fe:65:30:6c, 2015-01-01 02:11:02.205, 0.858, 0.065, 0.511, 2.197, 0, 0.916, 7.872, -58.7, -134.764, -24.027, -11.160, 0.047, 28.5, 0.36548, -0.42783, -0.24481, -0.78952,
 14:25:26.733,ed:40:fe:65:30:6c, 2015-01-01 02:11:02.205, 0.856, 0.067, 0.511, 3.052, 0.366, 0.793, 7.883, -58.7, -134.736, -24.027, -11.160, 0.047, 28.5, 0.36548, -0.42783, -0.24481, -0.78952,
 14:25:26.755,e3:ca:2d:fd:e0:8c, 2015-01-01 02:11:03.325, 0.833, -0.036, 0.585, 0.061, -0.366, -0.122, -3.593, -55.047, 168.492, -20.773, -8.673, -17.187, 30.41, 0.10275, 0.4567, -0.07388, 0.88049,
 14:25:26.755,e3:ca:2d:fd:e0:8c, 2015-01-01 02:11:03.325, 0.835, -0.034, 0.584, 0.244, -0.671, 0.122, -3.587, -55.052, 168.475, -20.773, -8.673, -17.187, 30.41, 0.10275, 0.4567, -0.07388, 0.88049,
 14:25:26.757,ed:35:33:d3:6c:f8, 2015-01-01 02:11:02.490, 0.717, -0.023, 0.68, 2.502, -0.671, 1.77, -1.747, -46.291, 151.002, -19.780, -9.013, -26.527, 30.77, 0.23514, 0.37836, -0.11087, 0.88834,
 14:25:26.757,ed:35:33:d3:6c:f8, 2015-01-01 02:11:02.490, 0.716, -0.023, 0.682, 3.174, -0.061, 1.77, -1.73, -46.296, 151.051, -19.780, -9.013, -26.527, 30.77, 0.23514, 0.37836, -0.11087, 0.88834,
 14:25:26.759,f6:90:cc:01:6d:25, 2015-01-01 02:11:01.835, 0.981, 0.074, 0.062, 1.282, 0.671, -0.427, 51.004, -84.397, 131.171, -28.960, -12.153, -1.940, 32.35, -0.01306, -0.68393, -0.03961, -0.72827,
 14:25:26.759,f6:90:cc:01:6d:25, 2015-01-01 02:11:01.835, 0.98, 0.076, 0.062, 1.709, 0.916, -0.61, 50.955, -84.375, 131.21, -28.960, -12.153, -1.940, 32.35, -0.01306, -0.68393, -0.03961, -0.72827,
 14:25:26.777,e3:ca:2d:fd:e0:8c, 2015-01-01 02:11:03.325, 0.836, -0.032, 0.582, 0.183, -0.793, 0.366, -3.593, -55.063, 168.453, -20.773, -8.673, -17.187, 30.41, 0.10275, 0.4567, -0.07388, 0.88049,
 14:25:26.777,e3:ca:2d:fd:e0:8c, 2015-01-01 02:11:03.325, 0.837, -0.03, 0.581, 0.183, -0.854, 0.488, -3.604, -55.08, 168.453, -20.773, -8.673, -17.187, 30.41, 0.10275, 0.4567, -0.07388, 0.88049,
 14:25:26.778,ed:40:fe:65:30:6c, 2015-01-01 02:11:02.205, 0.858, 0.069, 0.512, 3.418, 0.549, 0.671, 7.916, -58.7, -134.709, -24.027, -11.160, 0.047, 28.5, 0.36548, -0.42783, -0.24481, -0.78952,
 14:25:26.778,ed:40:fe:65:30:6c, 2015-01-01 02:11:02.205, 0.859, 0.075, 0.513, 3.113, 0.488, 0.427, 7.954, -58.689, -134.687, -24.027, -11.160, 0.047, 28.5, 0.36548, -0.42783, -0.24481, -0.78952,
 14:25:26.780,ed:35:33:d3:6c:f8, 2015-01-01 02:11:02.490, 0.717, -0.02, 0.686, 3.052, 0.61, 1.221, -1.697, -46.285, 151.084, -19.780, -9.013, -26.527, 30.77, 0.23514, 0.37836, -0.11087, 0.88834,
 14:25:26.780,ed:35:33:d3:6c:f8, 2015-01-01 02:11:02.490, 0.717, -0.015, 0.691, 2.441, 1.099, 0.305, -1.659, -46.263, 151.095, -19.780, -9.013, -26.527, 30.77, 0.23514, 0.37836, -0.11087, 0.88834,
 14:25:26.802,ed:40:fe:65:30:6c, 2015-01-01 02:11:02.205, 0.859, 0.079, 0.515, 2.441, 0.305, 0.061, 7.993, -58.683, -134.681, -23.840, -10.880, -0.207, 28.5, 0.36548, -0.42783, -0.24481, -0.78952,
 14:25:26.803,ed:40:fe:65:30:6c, 2015-01-01 02:11:02.205, 0.858, 0.082, 0.518, 1.465, 0.244, -0.305, 8.036, -58.678, -134.687, -23.840, -10.880, -0.207, 28.5, 0.36548, -0.42783, -0.24481, -0.78952,
 14:25:26.805,f6:90:cc:01:6d:25, 2015-01-01 02:11:01.835, 0.981, 0.08, 0.06, 1.831, 1.16, -0.854, 50.905, -84.348, 131.281, -28.960, -12.153, -1.940, 32.35, -0.01306, -0.68393, -0.03961, -0.72827,
 14:25:26.805,f6:90:cc:01:6d:25, 2015-01-01 02:11:01.835, 0.984, 0.082, 0.061, 1.404, 1.099, -0.916, 50.878, -84.32, 131.331, -28.960, -12.153, -1.940, 32.35, -0.01306, -0.68393, -0.03961, -0.72827,
 14:25:26.823,e3:ca:2d:fd:e0:8c, 2015-01-01 02:11:03.325, 0.837, -0.031, 0.58, 0.244, -0.854, 0.61, -3.615, -55.096, 168.459, -20.773, -8.673, -17.187, 30.41, 0.10275, 0.4567, -0.07388, 0.88049,
 14:25:26.823,e3:ca:2d:fd:e0:8c, 2015-01-01 02:11:03.325, 0.837, -0.035, 0.581, 0.244, -0.916, 0.732, -3.631, -55.113, 168.475, -20.773, -8.673, -17.187, 30.41, 0.10275, 0.4567, -0.07388, 0.88049,
 14:25:26.825,ed:35:33:d3:6c:f8, 2015-01-01 02:11:02.490, 0.716, -0.013, 0.692, 1.465, 1.16, -0.488, -1.62, -46.241, 151.078, -19.780, -9.013, -26.527, 30.77, 0.23514, 0.37836, -0.11087, 0.88834,
 14:25:26.825,ed:35:33:d3:6c:f8, 2015-01-01 02:11:02.490, 0.715, -0.009, 0.694, 0.061, 0.977, -1.404, -1.588, -46.219, 151.013, -19.780, -9.013, -26.527, 30.77, 0.23514, 0.37836, -0.11087, 0.88834,
 14:25:26.826,f6:90:cc:01:6d:25, 2015-01-01 02:11:01.835, 0.984, 0.084, 0.061, 0.977, 1.221, -0.977, 50.834, -84.287, 131.342, -28.960, -12.153, -1.940, 32.35, -0.01306, -0.68393, -0.03961, -0.72827,
 14:25:26.826,f6:90:cc:01:6d:25, 2015-01-01 02:11:01.835, 0.981, 0.083, 0.062, 0.305, 1.099, -0.854, 50.79, -84.26, 131.336, -28.960, -12.153, -1.940, 32.35, -0.01306, -0.68393, -0.03961, -0.72827,
 14:25:26.869,ed:40:fe:65:30:6c, 2015-01-01 02:11:02.205, 0.856, 0.082, 0.517, 0.61, 0.305, -0.732, 8.075, -58.672, -134.709, -23.840, -10.880, -0.207, 28.5, 0.36548, -0.42783, -0.24481, -0.78952,
 14:25:26.869,ed:40:fe:65:30:6c, 2015-01-01 02:11:02.205, 0.856, 0.079, 0.517, 0.183, 0.366, -0.916, 8.108, -58.667, -134.753, -23.840, -10.880, -0.207, 28.5, 0.36548, -0.42783, -0.24481, -0.78952,
 14:25:26.869,e3:ca:2d:fd:e0:8c, 2015-01-01 02:11:03.325, 0.836, -0.038, 0.581, 0.427, -0.916, 0.732, -3.642, -55.129, 168.492, -20.773, -8.673, -17.187, 30.41, 0.10275, 0.4567, -0.07388, 0.88049,
 14:25:26.869,e3:ca:2d:fd:e0:8c, 2015-01-01 02:11:03.325, 0.835, -0.039, 0.58, 0.488, -0.854, 0.671, -3.653, -55.146, 168.508, -20.773, -8.673, -17.187, 30.41, 0.10275, 0.4567, -0.07388, 0.88049,
 14:25:26.871,f6:90:cc:01:6d:25, 2015-01-01 02:11:01.835, 0.98, 0.08, 0.062, -0.122, 0.977, -0.61, 50.729, -84.238, 131.358, -28.960, -12.153, -1.940, 32.35, -0.01306, -0.68393, -0.03961, -0.72827,
 14:25:26.871,f6:90:cc:01:6d:25, 2015-01-01 02:11:01.835, 0.979, 0.078, 0.062, -0.366, 0.732, -0.244, 50.652, -84.221, 131.407, -28.960, -12.153, -1.940, 32.35, -0.01306, -0.68393, -0.03961, -0.72827,
 14:25:26.891,ed:40:fe:65:30:6c, 2015-01-01 02:11:02.205, 0.855, 0.078, 0.515, -0.122, 0.305, -0.854, 8.141, -58.656, -134.819, -23.840, -10.880, -0.207, 28.5, 0.36649, -0.42737, -0.24484, -0.78928,
 14:25:26.891,ed:40:fe:65:30:6c, 2015-01-01 02:11:02.205, 0.855, 0.077, 0.515, -0.488, 0.244, -0.61, 8.163, -58.651, -134.89, -23.840, -10.880, -0.207, 28.5, 0.36649, -0.42737, -0.24484, -0.78928,
 14:25:26.893,ed:35:33:d3:6c:f8, 2015-01-01 02:11:02.490, 0.714, -0.01, 0.692, -0.183, 0.427, -1.587, -1.555, -46.208, 150.925, -19.133, -9.340, -26.927, 30.77, 0.23514, 0.37836, -0.11087, 0.88834,
 14:25:26.893,ed:35:33:d3:6c:f8, 2015-01-01 02:11:02.490, 0.714, -0.011, 0.69, -0.244, 0, -1.465, -1.522, -46.208, 150.842, -19.133, -9.340, -26.927, 30.77, 0.23514, 0.37836, -0.11087, 0.88834,
 14:25:26.915,ed:35:33:d3:6c:f8, 2015-01-01 02:11:02.490, 0.714, -0.011, 0.688, -0.61, -0.122, -1.221, -1.505, -46.208, 150.787, -19.133, -9.340, -26.927, 30.77, 0.23688, 0.37662, -0.11063, 0.88864,
 14:25:26.915,ed:35:33:d3:6c:f8, 2015-01-01 02:11:02.490, 0.715, -0.013, 0.688, -0.732, 0, -0.916, -1.494, -46.208, 150.743, -19.133, -9.340, -26.927, 30.77, 0.23688, 0.37662, -0.11063, 0.88864,
 14:25:26.917,f6:90:cc:01:6d:25, 2015-01-01 02:11:01.835, 0.979, 0.073, 0.064, -0.61, 0.488, 0.122, 50.57, -84.216, 131.495, -28.960, -12.153, -1.940, 32.35, -0.01306, -0.68393, -0.03961, -0.72827,
 14:25:26.917,f6:90:cc:01:6d:25, 2015-01-01 02:11:01.835, 0.98, 0.072, 0.063, -0.61, 0.427, 0.366, 50.471, -84.216, 131.611, -28.960, -12.153, -1.940, 32.35, -0.01306, -0.68393, -0.03961, -0.72827,
 14:25:26.935,e3:ca:2d:fd:e0:8c, 2015-01-01 02:11:03.325, 0.835, -0.041, 0.581, 0.488, -0.793, 0.61, -3.658, -55.162, 168.514, -20.773, -8.673, -17.187, 30.41, 0.10275, 0.4567, -0.07388, 0.88049,
 14:25:26.935,e3:ca:2d:fd:e0:8c, 2015-01-01 02:11:03.325, 0.834, -0.042, 0.58, 0.488, -0.61, 0.549, -3.669, -55.173, 168.552, -20.773, -8.673, -17.187, 30.41, 0.10275, 0.4567, -0.07388, 0.88049,
 14:25:26.936,ed:40:fe:65:30:6c, 2015-01-01 02:11:02.205, 0.854, 0.074, 0.515, -0.61, 0.244, -0.366, 8.174, -58.645, -134.934, -23.840, -10.880, -0.207, 28.5, 0.36649, -0.42737, -0.24484, -0.78928,
 14:25:26.936,ed:40:fe:65:30:6c, 2015-01-01 02:11:02.205, 0.854, 0.072, 0.514, -0.549, 0.305, -0.122, 8.174, -58.64, -134.967, -23.840, -10.880, -0.207, 28.5, 0.36649, -0.42737, -0.24484, -0.78928,
 14:25:26.957,e3:ca:2d:fd:e0:8c, 2015-01-01 02:11:03.325, 0.833, -0.042, 0.581, 0.366, -0.488, 0.427, -3.675, -55.179, 168.58, -20.700, -9.020, -17.307, 30.41, 0.10275, 0.4567, -0.07388, 0.88049,
 14:25:26.957,e3:ca:2d:fd:e0:8c, 2015-01-01 02:11:03.325, 0.833, -0.042, 0.583, 0.305, -0.427, 0.183, -3.675, -55.19, 168.607, -20.700, -9.020, -17.307, 30.41, 0.10275, 0.4567, -0.07388, 0.88049,
 14:25:26.958,ed:40:fe:65:30:6c, 2015-01-01 02:11:02.585, 0.857, 0.071, 0.516, -0.305, 0.244, 0.061, 8.163, -58.634, -134.978, -23.840, -10.880, -0.207, 28.5, 0.36649, -0.42737, -0.24484, -0.78928,
 14:25:26.958,ed:40:fe:65:30:6c, 2015-01-01 02:11:02.585, 0.855, 0.068, 0.52, -0.305, 0.366, 0.427, 8.152, -58.629, -134.978, -23.840, -10.880, -0.207, 28.5, 0.36649, -0.42737, -0.24484, -0.78928,
 14:25:26.983,ed:35:33:d3:6c:f8, 2015-01-01 02:11:02.490, 0.712, -0.017, 0.688, -0.732, 0.183, -0.671, -1.489, -46.203, 150.727, -19.133, -9.340, -26.927, 30.77, 0.23688, 0.37662, -0.11063, 0.88864,
 14:25:26.983,ed:35:33:d3:6c:f8, 2015-01-01 02:11:02.490, 0.715, -0.017, 0.688, -0.916, 0.183, -0.854, -1.489, -46.198, 150.71, -19.133, -9.340, -26.927, 30.77, 0.23688, 0.37662, -0.11063, 0.88864,
 14:25:26.983,f6:90:cc:01:6d:25, 2015-01-01 02:11:01.835, 0.981, 0.069, 0.063, -0.916, 0.488, 0.549, 50.339, -84.216, 131.754, -29.047, -11.873, -1.467, 32.35, -0.01306, -0.68393, -0.03961, -0.72827,
 14:25:26.983,f6:90:cc:01:6d:25, 2015-01-01 02:11:01.835, 0.984, 0.067, 0.067, -1.221, 0.61, 0.549, 50.169, -84.216, 131.902, -29.047, -11.873, -1.467, 32.35, -0.01306, -0.68393, -0.03961, -0.72827,
 14:25:27.003,e3:ca:2d:fd:e0:8c, 2015-01-01 02:11:03.325, 0.833, -0.041, 0.583, 0, -0.549, -0.122, -3.68, -55.195, 168.64, -20.700, -9.020, -17.307, 30.41, 0.10275, 0.4567, -0.07388, 0.88049,
 14:25:27.004,e3:ca:2d:fd:e0:8c, 2015-01-01 02:11:03.325, 0.836, -0.04, 0.582, -0.488, -0.732, -0.549, -3.675, -55.212, 168.646, -20.700, -9.020, -17.307, 30.41, 0.10275, 0.4567, -0.07388, 0.88049,
 14:25:27.005,ed:40:fe:65:30:6c, 2015-01-01 02:11:02.585, 0.854, 0.07, 0.525, -1.16, 0.366, 0.671, 8.124, -58.623, -134.978, -23.840, -10.880, -0.207, 28.5, 0.36649, -0.42737, -0.24484, -0.78928,
 14:25:27.005,ed:40:fe:65:30:6c, 2015-01-01 02:11:02.585, 0.854, 0.07, 0.525, -1.465, 0.366, 0.793, 8.075, -58.618, -134.962, -23.840, -10.880, -0.207, 28.5, 0.36649, -0.42737, -0.24484, -0.78928,
 14:25:27.005,ed:35:33:d3:6c:f8, 2015-01-01 02:11:02.825, 0.712, -0.019, 0.691, -0.977, 0.244, -0.854, -1.489, -46.192, 150.694, -19.133, -9.340, -26.927, 30.77, 0.23688, 0.37662, -0.11063, 0.88864,
 14:25:27.005,ed:35:33:d3:6c:f8, 2015-01-01 02:11:02.825, 0.71, -0.019, 0.697, -2.136, 0.854, -0.977, -1.505, -46.176, 150.677, -19.133, -9.340, -26.927, 30.77, 0.23688, 0.37662, -0.11063, 0.88864,
 14:25:27.006,f6:90:cc:01:6d:25, 2015-01-01 02:11:01.835, 0.983, 0.067, 0.069, -1.282, 0.793, 0.427, 49.966, -84.216, 132.083, -29.047, -11.873, -1.467, 32.35, -0.01419, -0.68265, -0.03952, -0.72946,
 14:25:27.006,f6:90:cc:01:6d:25, 2015-01-01 02:11:01.835, 0.981, 0.071, 0.07, -1.038, 0.671, 0.183, 49.763, -84.216, 132.275, -29.047, -11.873, -1.467, 32.35, -0.01419, -0.68265, -0.03952, -0.72946,
 14:25:27.027,e3:ca:2d:fd:e0:8c, 2015-01-01 02:11:03.325, 0.837, -0.037, 0.581, -0.671, -0.854, -0.732, -3.675, -55.223, 168.651, -20.700, -9.020, -17.307, 30.41, 0.10233, 0.4581, -0.07407, 0.87982,
 14:25:27.027,e3:ca:2d:fd:e0:8c, 2015-01-01 02:11:03.325, 0.838, -0.036, 0.58, -0.793, -1.038, -0.793, -3.669, -55.245, 168.657, -20.700, -9.020, -17.307, 30.41, 0.10233, 0.4581, -0.07407, 0.87982,
 14:25:27.029,ed:35:33:d3:6c:f8, 2015-01-01 02:11:02.825, 0.71, -0.02, 0.699, -2.808, 1.709, -1.343, -1.527, -46.143, 150.656, -19.133, -9.340, -26.927, 30.77, 0.23688, 0.37662, -0.11063, 0.88864,
 14:25:27.029,ed:35:33:d3:6c:f8, 2015-01-01 02:11:02.825, 0.711, -0.02, 0.694, -2.258, 1.099, -0.854, -1.555, -46.115, 150.634, -19.133, -9.340, -26.927, 30.77, 0.23688, 0.37662, -0.11063, 0.88864,
 14:25:27.031,f6:90:cc:01:6d:25, 2015-01-01 02:11:01.835, 0.979, 0.076, 0.068, -0.427, 0.366, 0, 49.614, -84.21, 132.407, -29.047, -11.873, -1.467, 32.35, -0.01419, -0.68265, -0.03952, -0.72946,
 14:25:27.031,f6:90:cc:01:6d:25, 2015-01-01 02:11:01.835, 0.976, 0.074, 0.066, -0.122, 0.244, -0.122, 49.537, -84.205, 132.468, -29.047, -11.873, -1.467, 32.35, -0.01419, -0.68265, -0.03952, -0.72946,
 14:25:27.050,ed:40:fe:65:30:6c, 2015-01-01 02:11:02.585, 0.852, 0.067, 0.52, -0.793, 0.366, 0.916, 8.02, -58.612, -134.934, -23.840, -10.880, -0.207, 28.5, 0.36649, -0.42737, -0.24484, -0.78928,
 14:25:27.050,ed:40:fe:65:30:6c, 2015-01-01 02:11:02.585, 0.852, 0.065, 0.517, -0.671, 0.244, 1.038, 7.971, -58.607, -134.896, -23.840, -10.880, -0.207, 28.5, 0.36649, -0.42737, -0.24484, -0.78928,
 14:25:27.071,e3:ca:2d:fd:e0:8c, 2015-01-01 02:11:03.325, 0.838, -0.037, 0.578, -0.671, -1.038, -0.671, -3.669, -55.261, 168.662, -20.700, -9.020, -17.307, 30.41, 0.10233, 0.4581, -0.07407, 0.87982,
 14:25:27.071,e3:ca:2d:fd:e0:8c, 2015-01-01 02:11:03.325, 0.839, -0.039, 0.578, -0.488, -0.916, -0.549, -3.664, -55.283, 168.695, -20.700, -9.020, -17.307, 30.41, 0.10233, 0.4581, -0.07407, 0.87982,
 14:25:27.072,ed:35:33:d3:6c:f8, 2015-01-01 02:11:02.825, 0.708, -0.021, 0.691, -1.526, 0.061, -0.061, -1.582, -46.104, 150.628, -19.133, -9.340, -26.927, 30.77, 0.23688, 0.37662, -0.11063, 0.88864,
 14:25:27.072,ed:35:33:d3:6c:f8, 2015-01-01 02:11:02.825, 0.713, -0.021, 0.69, -1.648, -0.122, 0.183, -1.615, -46.104, 150.628, -19.133, -9.340, -26.927, 30.77, 0.23688, 0.37662, -0.11063, 0.88864,
 14:25:27.074,f6:90:cc:01:6d:25, 2015-01-01 02:11:02.150, 0.977, 0.072, 0.063, 0.061, 0.183, -0.305, 49.504, -84.205, 132.501, -29.047, -11.873, -1.467, 32.35, -0.01419, -0.68265, -0.03952, -0.72946,
 14:25:27.074,f6:90:cc:01:6d:25, 2015-01-01 02:11:02.150, 0.982, 0.075, 0.068, 0.244, 0, -0.305, 49.504, -84.199, 132.523, -29.047, -11.873, -1.467, 32.35, -0.01419, -0.68265, -0.03952, -0.72946,
 14:25:27.094,ed:40:fe:65:30:6c, 2015-01-01 02:11:02.585, 0.856, 0.069, 0.518, -0.671, -0.122, 1.038, 7.921, -58.607, -134.857, -23.840, -10.880, -0.207, 28.5, 0.36649, -0.42737, -0.24484, -0.78928,
 14:25:27.094,ed:40:fe:65:30:6c, 2015-01-01 02:11:02.585, 0.855, 0.067, 0.517, -0.244, -0.427, 0.977, 7.872, -58.612, -134.819, -23.840, -10.880, -0.207, 28.5, 0.36649, -0.42737, -0.24484, -0.78928,
 14:25:27.117,ed:35:33:d3:6c:f8, 2015-01-01 02:11:02.825, 0.715, -0.02, 0.691, -1.404, -0.244, 0.061, -1.648, -46.104, 150.639, -19.133, -9.340, -26.927, 30.77, 0.23688, 0.37662, -0.11063, 0.88864,
 14:25:27.117,ed:35:33:d3:6c:f8, 2015-01-01 02:11:02.825, 0.716, -0.025, 0.682, -0.305, 0, 0.61, -1.664, -46.104, 150.667, -19.133, -9.340, -26.927, 30.77, 0.23688, 0.37662, -0.11063, 0.88864,
 14:25:27.119,f6:90:cc:01:6d:25, 2015-01-01 02:11:02.150, 0.979, 0.076, 0.063, 0.671, -0.061, -0.244, 49.532, -84.194, 132.495, -29.047, -11.873, -1.467, 32.35, -0.01419, -0.68265, -0.03952, -0.72946,
 14:25:27.119,f6:90:cc:01:6d:25, 2015-01-01 02:11:02.150, 0.979, 0.074, 0.062, 0.793, -0.244, -0.366, 49.581, -84.194, 132.429, -29.047, -11.873, -1.467, 32.35, -0.01419, -0.68265, -0.03952, -0.72946,
 14:25:27.137,e3:ca:2d:fd:e0:8c, 2015-01-01 02:11:03.660, 0.84, -0.04, 0.578, -0.305, -0.854, -0.488, -3.658, -55.3, 168.712, -20.700, -9.020, -17.307, 30.41, 0.10233, 0.4581, -0.07407, 0.87982,
