Time,Device name,Chip Time(),Acceleration X(g),Acceleration Y(g),Acceleration Z(g),Angular velocity X(°/s),Angular velocity Y(°/s),Angular velocity Z(°/s),Angle X(°),Angle Y(°),Angle Z(°),Magnetic field X(ʯt),Magnetic field Y(ʯt),Magnetic field Z(ʯt),Temperature(℃),Quaternions 0(),Quaternions 1(),Quaternions 2(),Quaternions 3()
 12:42:36.578,ed:40:fe:65:30:6c, 2015-01-01 00:55:13.210, 0.997, 0.083, -0.059, -3.906, 1.404, -0.061, 123.734, -84.589, 104.562, -27.060, -16.147, 17.593, 25.15, 0.26077, -0.6489, -0.32477, -0.63666,
 12:42:36.578,ed:40:fe:65:30:6c, 2015-01-01 00:55:13.210, 0.998, 0.085, -0.058, -3.906, 2.136, -0.305, 123.261, -84.6, 104.963, -27.060, -16.147, 17.593, 25.15, 0.26077, -0.6489, -0.32477, -0.63666,
 12:42:36.580,ed:35:33:d3:6c:f8, 2015-01-01 00:55:08.250, 0.899, 0.124, 0.403, 0.488, -2.258, 1.404, 16.946, -64.709, 133.187, -21.527, -15.907, -17.900, 26.48, -0.26044, -0.53256, 0.09659, -0.79944,
 12:42:36.580,ed:35:33:d3:6c:f8, 2015-01-01 00:55:08.250, 0.901, 0.124, 0.4, 2.319, -1.465, 0.732, 16.952, -64.753, 133.259, -21.527, -15.907, -17.900, 26.48, -0.26044, -0.53256, 0.09659, -0.79944,
 12:42:36.601,e3:ca:2d:fd:e0:8c, 2015-01-01 00:55:07.915, 0.757, -0.079, -0.662, -2.441, 0.122, -0.61, -173.106, -49.054, -39.842, -27.853, -11.800, 11.387, 24.93, 0.0853, 0.86319, -0.28351, 0.40881,
 12:42:36.601,e3:ca:2d:fd:e0:8c, 2015-01-01 00:55:07.915, 0.758, -0.074, -0.663, -2.075, -0.122, -0.549, -173.161, -49.054, -39.831, -27.853, -11.800, 11.387, 24.93, 0.0853, 0.86319, -0.28351, 0.40881,
 12:42:36.602,f6:90:cc:01:6d:25, 2015-01-01 00:55:08.310, 0.713, 0.012, -0.682, -5.737, 0.183, 1.343, 179.934, -46.703, -19.638, -26.920, -14.687, 17.093, 28.23, 0.06268, 0.9053, -0.15085, 0.39194,
 12:42:36.602,f6:90:cc:01:6d:25, 2015-01-01 00:55:08.310, 0.711, 0.012, -0.682, -4.456, 0.305, 1.038, 179.852, -46.697, -19.715, -26.920, -14.687, 17.093, 28.23, 0.06268, 0.9053, -0.15085, 0.39194,
 12:42:36.603,ed:35:33:d3:6c:f8, 2015-01-01 00:55:08.250, 0.9, 0.125, 0.402, 4.15, -0.732, 0, 17.007, -64.781, 133.308, -21.527, -15.907, -17.900, 26.48, -0.26044, -0.53256, 0.09659, -0.79944,
 12:42:36.603,ed:35:33:d3:6c:f8, 2015-01-01 00:55:08.250, 0.9, 0.131, 0.4, 6.104, -0.183, 0, 17.111, -64.786, 133.325, -21.527, -15.907, -17.900, 26.48, -0.26044, -0.53256, 0.09659, -0.79944,
 12:42:36.623,f6:90:cc:01:6d:25, 2015-01-01 00:55:08.310, 0.712, 0.01, -0.682, -3.052, 0.366, 0.732, 179.791, -46.703, -19.781, -26.920, -14.687, 17.093, 28.23, 0.06268, 0.9053, -0.15085, 0.39194,
 12:42:36.623,f6:90:cc:01:6d:25, 2015-01-01 00:55:08.310, 0.711, 0.005, -0.69, -2.991, 0.061, 0.549, 179.742, -46.703, -19.852, -26.920, -14.687, 17.093, 28.23, 0.06268, 0.9053, -0.15085, 0.39194,
 12:42:36.646,ed:40:fe:65:30:6c, 2015-01-01 00:55:13.210, 0.997, 0.085, -0.057, -3.235, 2.075, -0.549, 122.778, -84.611, 105.386, -27.060, -16.147, 17.593, 25.15, 0.26077, -0.6489, -0.32477, -0.63666,
 12:42:36.646,ed:40:fe:65:30:6c, 2015-01-01 00:55:13.210, 1, 0.089, -0.058, -3.174, 2.38, -0.977, 122.201, -84.617, 105.914, -27.060, -16.147, 17.593, 25.15, 0.26077, -0.6489, -0.32477, -0.63666,
 12:42:36.646,e3:ca:2d:fd:e0:8c, 2015-01-01 00:55:07.915, 0.759, -0.073, -0.661, -1.77, 0.183, -0.366, -173.205, -49.054, -39.836, -27.853, -11.800, 11.387, 24.93, 0.0853, 0.86319, -0.28351, 0.40881,
 12:42:36.646,e3:ca:2d:fd:e0:8c, 2015-01-01 00:55:07.915, 0.764, -0.073, -0.665, -1.831, 0, -0.122, -173.243, -49.048, -39.842, -27.853, -11.800, 11.387, 24.93, 0.0853, 0.86319, -0.28351, 0.40881,
 12:42:36.649,ed:35:33:d3:6c:f8, 2015-01-01 00:55:08.250, 0.898, 0.129, 0.41, 5.92, -1.221, -1.465, 17.254, -64.797, 133.325, -21.527, -15.907, -17.900, 26.48, -0.26044, -0.53256, 0.09659, -0.79944,
 12:42:36.649,ed:35:33:d3:6c:f8, 2015-01-01 00:55:08.250, 0.897, 0.126, 0.403, 4.822, -2.136, -1.77, 17.452, -64.814, 133.242, -21.527, -15.907, -17.900, 26.48, -0.26044, -0.53256, 0.09659, -0.79944,
 12:42:36.666,ed:40:fe:65:30:6c, 2015-01-01 00:55:13.210, 0.995, 0.086, -0.053, -2.747, 1.953, -0.854, 121.723, -84.617, 106.353, -26.887, -15.980, 17.493, 25.15, 0.26077, -0.6489, -0.32477, -0.63666,
 12:42:36.666,ed:40:fe:65:30:6c, 2015-01-01 00:55:13.210, 0.999, 0.084, -0.051, -3.296, 1.77, -1.099, 121.24, -84.611, 106.793, -26.887, -15.980, 17.493, 25.15, 0.26077, -0.6489, -0.32477, -0.63666,
 12:42:36.692,ed:35:33:d3:6c:f8, 2015-01-01 00:55:08.250, 0.902, 0.132, 0.4, 2.808, -1.16, -4.089, 17.661, -64.83, 133.11, -21.233, -15.407, -17.187, 26.48, -0.26044, -0.53256, 0.09659, -0.79944,
 12:42:36.692,ed:35:33:d3:6c:f8, 2015-01-01 00:55:08.250, 0.909, 0.13, 0.397, 0.427, -0.305, -5.005, 17.886, -64.825, 132.918, -21.233, -15.407, -17.187, 26.48, -0.26044, -0.53256, 0.09659, -0.79944,
 12:42:36.692,f6:90:cc:01:6d:25, 2015-01-01 00:55:08.310, 0.714, 0.003, -0.688, -2.258, 0, 0.488, 179.698, -46.697, -19.907, -26.920, -14.687, 17.093, 28.23, 0.06268, 0.9053, -0.15085, 0.39194,
 12:42:36.692,f6:90:cc:01:6d:25, 2015-01-01 00:55:08.310, 0.711, 0.009, -0.686, -2.686, -0.061, 0.61, 179.659, -46.692, -19.951, -26.920, -14.687, 17.093, 28.23, 0.06268, 0.9053, -0.15085, 0.39194,
 12:42:36.713,ed:40:fe:65:30:6c, 2015-01-01 00:55:13.210, 0.997, 0.089, -0.052, -3.357, 1.282, -1.038, 120.85, -84.6, 107.139, -26.887, -15.980, 17.493, 25.15, 0.26077, -0.6489, -0.32477, -0.63666,
 12:42:36.713,ed:40:fe:65:30:6c, 2015-01-01 00:55:13.210, 1.001, 0.087, -0.054, -3.54, 0.671, -1.038, 120.569, -84.584, 107.358, -26.887, -15.980, 17.493, 25.15, 0.26077, -0.6489, -0.32477, -0.63666,
 12:42:36.713,e3:ca:2d:fd:e0:8c, 2015-01-01 00:55:07.915, 0.762, -0.073, -0.668, -1.648, -0.061, 0.061, -173.276, -49.043, -39.864, -28.207, -12.027, 10.787, 24.93, 0.0853, 0.86319, -0.28351, 0.40881,
 12:42:36.713,e3:ca:2d:fd:e0:8c, 2015-01-01 00:55:07.915, 0.762, -0.075, -0.669, -1.526, -0.244, 0.061, -173.309, -49.037, -39.875, -28.207, -12.027, 10.787, 24.93, 0.0853, 0.86319, -0.28351, 0.40881,
 12:42:36.714,f6:90:cc:01:6d:25, 2015-01-01 00:55:08.310, 0.712, 0.01, -0.69, -1.831, -0.061, 0.488, 179.621, -46.681, -20.001, -27.227, -14.587, 17.593, 28.23, 0.06268, 0.9053, -0.15085, 0.39194,
 12:42:36.714,f6:90:cc:01:6d:25, 2015-01-01 00:55:08.310, 0.709, 0.008, -0.687, -1.831, -0.244, 0.183, 179.594, -46.675, -20.039, -27.227, -14.587, 17.593, 28.23, 0.06268, 0.9053, -0.15085, 0.39194,
 12:42:36.736,e3:ca:2d:fd:e0:8c, 2015-01-01 00:55:07.915, 0.759, -0.074, -0.668, -1.404, -0.183, 0.183, -173.337, -49.026, -39.902, -28.207, -12.027, 10.787, 24.93, 0.09171, 0.86197, -0.28732, 0.40732,
 12:42:36.736,e3:ca:2d:fd:e0:8c, 2015-01-01 00:55:07.915, 0.754, -0.074, -0.664, -1.221, 0.366, 0.183, -173.359, -49.026, -39.919, -28.207, -12.027, 10.787, 24.93, 0.09171, 0.86197, -0.28732, 0.40732,
 12:42:36.738,ed:35:33:d3:6c:f8, 2015-01-01 00:55:08.250, 0.903, 0.125, 0.394, 0.183, 0, -5.31, 18.1, -64.797, 132.709, -21.233, -15.407, -17.187, 26.48, -0.25717, -0.53796, 0.09052, -0.79761,
 12:42:36.738,ed:35:33:d3:6c:f8, 2015-01-01 00:55:08.250, 0.893, 0.143, 0.4, 0, -0.183, -5.981, 18.32, -64.764, 132.473, -21.233, -15.407, -17.187, 26.48, -0.25717, -0.53796, 0.09052, -0.79761,
 12:42:36.759,f6:90:cc:01:6d:25, 2015-01-01 00:55:08.310, 0.713, 0.005, -0.691, -1.221, 0, 0, 179.561, -46.664, -20.067, -27.227, -14.587, 17.593, 28.23, 0.06268, 0.9053, -0.15085, 0.39194,
 12:42:36.759,f6:90:cc:01:6d:25, 2015-01-01 00:55:08.310, 0.713, 0, -0.686, 0.366, 0.427, -0.061, 179.55, -46.659, -20.099, -27.227, -14.587, 17.593, 28.23, 0.06268, 0.9053, -0.15085, 0.39194,
 12:42:36.761,ed:35:33:d3:6c:f8, 2015-01-01 00:55:08.565, 0.875, 0.137, 0.409, -0.916, 1.038, -5.676, 18.545, -64.726, 132.226, -21.233, -15.407, -17.187, 26.48, -0.25717, -0.53796, 0.09052, -0.79761,
 12:42:36.761,ed:35:33:d3:6c:f8, 2015-01-01 00:55:08.565, 0.876, 0.159, 0.419, -2.197, 1.77, -6.958, 18.737, -64.666, 131.973, -21.233, -15.407, -17.187, 26.48, -0.25717, -0.53796, 0.09052, -0.79761,
 12:42:36.780,ed:40:fe:65:30:6c, 2015-01-01 00:55:13.210, 1.002, 0.085, -0.058, -4.089, 1.221, -1.526, 120.135, -84.562, 107.715, -26.887, -15.980, 17.493, 25.15, 0.25372, -0.64923, -0.32007, -0.64154,
 12:42:36.780,ed:40:fe:65:30:6c, 2015-01-01 00:55:13.210, 0.992, 0.083, -0.057, -3.174, 0.916, -1.526, 119.789, -84.54, 108.007, -26.887, -15.980, 17.493, 25.15, 0.25372, -0.64923, -0.32007, -0.64154,
 12:42:36.780,e3:ca:2d:fd:e0:8c, 2015-01-01 00:55:07.915, 0.759, -0.079, -0.664, -1.221, 0.122, 0.061, -173.381, -49.026, -39.93, -28.207, -12.027, 10.787, 24.93, 0.09171, 0.86197, -0.28732, 0.40732,
 12:42:36.780,e3:ca:2d:fd:e0:8c, 2015-01-01 00:55:07.915, 0.764, -0.079, -0.665, -1.221, 0.305, 0, -173.403, -49.026, -39.941, -28.207, -12.027, 10.787, 24.93, 0.09171, 0.86197, -0.28732, 0.40732,
 12:42:36.801,ed:40:fe:65:30:6c, 2015-01-01 00:55:13.565, 0.995, 0.078, -0.042, -3.052, 0.488, -1.465, 119.526, -84.518, 108.215, -26.887, -15.980, 17.493, 25.15, 0.25372, -0.64923, -0.32007, -0.64154,
 12:42:36.801,ed:40:fe:65:30:6c, 2015-01-01 00:55:13.565, 0.989, 0.094, -0.034, -2.502, -0.366, -0.854, 119.471, -84.496, 108.221, -26.887, -15.980, 17.493, 25.15, 0.25372, -0.64923, -0.32007, -0.64154,
 12:42:36.803,e3:ca:2d:fd:e0:8c, 2015-01-01 00:55:08.270, 0.758, -0.079, -0.667, -0.61, 0.732, 0, -173.419, -49.032, -39.946, -28.207, -12.027, 10.787, 24.93, 0.09171, 0.86197, -0.28732, 0.40732,
 12:42:36.803,e3:ca:2d:fd:e0:8c, 2015-01-01 00:55:08.270, 0.768, -0.074, -0.672, -0.549, 0.061, 0.122, -173.425, -49.032, -39.963, -28.207, -12.027, 10.787, 24.93, 0.09171, 0.86197, -0.28732, 0.40732,
 12:42:36.805,ed:35:33:d3:6c:f8, 2015-01-01 00:55:08.565, 0.88, 0.159, 0.427, -4.272, 1.892, -7.69, 18.94, -64.583, 131.666, -21.233, -15.407, -17.187, 26.48, -0.25717, -0.53796, 0.09052, -0.79761,
 12:42:36.805,ed:35:33:d3:6c:f8, 2015-01-01 00:55:08.565, 0.886, 0.161, 0.424, -2.747, 1.648, -3.601, 19.1, -64.501, 131.369, -21.233, -15.407, -17.187, 26.48, -0.25717, -0.53796, 0.09052, -0.79761,
 12:42:36.824,ed:40:fe:65:30:6c, 2015-01-01 00:55:13.565, 0.982, 0.092, -0.026, -0.549, -3.235, 0.244, 120.048, -84.468, 107.633, -26.887, -15.980, 17.493, 25.15, 0.25372, -0.64923, -0.32007, -0.64154,
 12:42:36.824,ed:40:fe:65:30:6c, 2015-01-01 00:55:13.565, 0.998, 0.092, -0.021, -1.526, -2.38, 0.549, 120.449, -84.452, 107.21, -26.887, -15.980, 17.493, 25.15, 0.25372, -0.64923, -0.32007, -0.64154,
 12:42:36.826,f6:90:cc:01:6d:25, 2015-01-01 00:55:08.310, 0.716, 0.009, -0.682, -1.099, -0.793, 0.061, 179.544, -46.648, -20.132, -27.227, -14.587, 17.593, 28.23, 0.07263, 0.90381, -0.16177, 0.38931,
 12:42:36.826,f6:90:cc:01:6d:25, 2015-01-01 00:55:08.310, 0.721, 0.005, -0.679, 0.916, -1.282, 0.122, 179.544, -46.62, -20.182, -27.227, -14.587, 17.593, 28.23, 0.07263, 0.90381, -0.16177, 0.38931,
 12:42:36.849,e3:ca:2d:fd:e0:8c, 2015-01-01 00:55:08.270, 0.769, -0.076, -0.659, 0, 0.549, 0.183, -173.425, -49.032, -39.979, -28.207, -12.027, 10.787, 24.93, 0.09171, 0.86197, -0.28732, 0.40732,
 12:42:36.849,e3:ca:2d:fd:e0:8c, 2015-01-01 00:55:08.270, 0.753, -0.076, -0.652, 0.427, -0.732, 0.671, -173.408, -49.021, -40.007, -28.207, -12.027, 10.787, 24.93, 0.09171, 0.86197, -0.28732, 0.40732,
 12:42:36.850,ed:35:33:d3:6c:f8, 2015-01-01 00:55:08.565, 0.889, 0.166, 0.41, -1.648, 0, -3.784, 19.182, -64.446, 131.21, -21.233, -15.407, -17.187, 26.48, -0.25717, -0.53796, 0.09052, -0.79761,
 12:42:36.850,ed:35:33:d3:6c:f8, 2015-01-01 00:55:08.565, 0.897, 0.157, 0.413, -3.296, -0.671, -3.662, 19.297, -64.418, 131.034, -21.233, -15.407, -17.187, 26.48, -0.25717, -0.53796, 0.09052, -0.79761,
 12:42:36.869,ed:40:fe:65:30:6c, 2015-01-01 00:55:13.565, 0.995, 0.105, -0.046, -0.793, -2.258, 1.221, 120.888, -84.446, 106.782, -26.887, -15.980, 17.493, 25.15, 0.25372, -0.64923, -0.32007, -0.64154,
 12:42:36.869,ed:40:fe:65:30:6c, 2015-01-01 00:55:13.565, 0.993, 0.095, -0.046, 0.61, -3.723, 1.587, 121.641, -84.435, 106.062, -26.887, -15.980, 17.493, 25.15, 0.25372, -0.64923, -0.32007, -0.64154,
 12:42:36.871,f6:90:cc:01:6d:25, 2015-01-01 00:55:08.645, 0.722, 0.009, -0.669, 1.831, -2.258, 0.366, 179.577, -46.582, -20.237, -27.227, -14.587, 17.593, 28.23, 0.07263, 0.90381, -0.16177, 0.38931,
 12:42:36.871,f6:90:cc:01:6d:25, 2015-01-01 00:55:08.645, 0.712, 0.021, -0.663, -1.465, -3.723, 0.916, 179.594, -46.522, -20.308, -27.227, -14.587, 17.593, 28.23, 0.07263, 0.90381, -0.16177, 0.38931,
 12:42:36.892,e3:ca:2d:fd:e0:8c, 2015-01-01 00:55:08.270, 0.76, -0.067, -0.654, 0.366, -1.77, 1.038, -173.381, -48.988, -40.04, -28.207, -12.027, 10.787, 24.93, 0.09171, 0.86197, -0.28732, 0.40732,
 12:42:36.892,e3:ca:2d:fd:e0:8c, 2015-01-01 00:55:08.270, 0.761, -0.075, -0.645, -0.488, 0.061, 0.854, -173.37, -48.977, -40.067, -28.207, -12.027, 10.787, 24.93, 0.09171, 0.86197, -0.28732, 0.40732,
 12:42:36.894,f6:90:cc:01:6d:25, 2015-01-01 00:55:08.645, 0.715, 0.01, -0.678, 0.671, -2.319, 1.099, 179.604, -46.461, -20.385, -27.227, -14.587, 17.593, 28.23, 0.07263, 0.90381, -0.16177, 0.38931,
 12:42:36.894,f6:90:cc:01:6d:25, 2015-01-01 00:55:08.645, 0.714, -0.004, -0.678, 2.686, -2.075, 1.099, 179.654, -46.417, -20.457, -27.227, -14.587, 17.593, 28.23, 0.07263, 0.90381, -0.16177, 0.38931,
 12:42:36.895,ed:35:33:d3:6c:f8, 2015-01-01 00:55:08.565, 0.914, 0.146, 0.402, -2.136, -1.343, -1.282, 19.38, -64.407, 130.88, -21.233, -15.407, -17.187, 26.48, -0.25717, -0.53796, 0.09052, -0.79761,
 12:42:36.895,ed:35:33:d3:6c:f8, 2015-01-01 00:55:08.565, 0.908, 0.141, 0.389, -0.183, -1.221, -0.854, 19.418, -64.418, 130.809, -21.233, -15.407, -17.187, 26.48, -0.25717, -0.53796, 0.09052, -0.79761,
 12:42:36.914,ed:40:fe:65:30:6c, 2015-01-01 00:55:13.565, 1.002, 0.079, -0.049, -0.061, -3.113, 1.465, 122.261, -84.424, 105.458, -26.887, -15.980, 17.493, 25.15, 0.25372, -0.64923, -0.32007, -0.64154,
 12:42:36.914,ed:40:fe:65:30:6c, 2015-01-01 00:55:13.565, 1.004, 0.075, -0.07, 2.808, -2.197, 1.526, 122.745, -84.424, 105.018, -26.887, -15.980, 17.493, 25.15, 0.25372, -0.64923, -0.32007, -0.64154,
 12:42:36.915,e3:ca:2d:fd:e0:8c, 2015-01-01 00:55:08.270, 0.755, -0.083, -0.658, 0.122, -1.16, 1.038, -173.353, -48.955, -40.106, -28.207, -12.027, 10.787, 24.93, 0.09171, 0.86197, -0.28732, 0.40732,
 12:42:36.915,e3:ca:2d:fd:e0:8c, 2015-01-01 00:55:08.270, 0.76, -0.077, -0.676, 0.61, -2.38, 0.977, -173.326, -48.911, -40.144, -28.207, -12.027, 10.787, 24.93, 0.09171, 0.86197, -0.28732, 0.40732,
 12:42:36.916,f6:90:cc:01:6d:25, 2015-01-01 00:55:08.645, 0.707, 0, -0.68, 0.183, -2.319, 1.221, 179.703, -46.373, -20.522, -27.227, -14.587, 17.593, 28.23, 0.07263, 0.90381, -0.16177, 0.38931,
 12:42:36.916,f6:90:cc:01:6d:25, 2015-01-01 00:55:08.645, 0.707, -0.003, -0.699, 1.953, -0.549, 1.343, 179.753, -46.346, -20.583, -27.227, -14.587, 17.593, 28.23, 0.07263, 0.90381, -0.16177, 0.38931,
 12:42:36.937,ed:40:fe:65:30:6c, 2015-01-01 00:55:13.565, 1.008, 0.072, -0.072, 4.395, -1.16, 1.343, 123.283, -84.43, 104.573, -26.887, -15.980, 17.493, 25.15, 0.25372, -0.64923, -0.32007, -0.64154,
 12:42:36.937,ed:40:fe:65:30:6c, 2015-01-01 00:55:13.565, 1.002, 0.073, -0.083, 6.104, -0.793, 1.16, 123.706, -84.435, 104.266, -26.887, -15.980, 17.493, 25.15, 0.25372, -0.64923, -0.32007, -0.64154,
 12:42:36.940,ed:35:33:d3:6c:f8, 2015-01-01 00:55:08.565, 0.92, 0.148, 0.392, 0.488, -0.793, 0.427, 19.462, -64.429, 130.765, -21.233, -15.407, -17.187, 26.48, -0.25717, -0.53796, 0.09052, -0.79761,
 12:42:36.940,ed:35:33:d3:6c:f8, 2015-01-01 00:55:08.565, 0.915, 0.141, 0.393, 4.211, 0.366, 5.127, 19.44, -64.451, 130.836, -21.233, -15.407, -17.187, 26.48, -0.25717, -0.53796, 0.09052, -0.79761,
 12:42:36.960,e3:ca:2d:fd:e0:8c, 2015-01-01 00:55:08.270, 0.755, -0.076, -0.673, 1.038, -0.183, 0.549, -173.293, -48.895, -40.177, -28.207, -12.027, 10.787, 24.93, 0.09171, 0.86197, -0.28732, 0.40732,
 12:42:36.960,e3:ca:2d:fd:e0:8c, 2015-01-01 00:55:08.270, 0.752, -0.082, -0.674, 1.709, 0.183, 0.366, -173.254, -48.889, -40.204, -28.207, -12.027, 10.787, 24.93, 0.09171, 0.86197, -0.28732, 0.40732,
 12:42:36.962,f6:90:cc:01:6d:25, 2015-01-01 00:55:08.645, 0.704, -0.006, -0.704, 4.15, -0.183, 0.732, 179.835, -46.34, -20.649, -27.227, -14.587, 17.593, 28.23, 0.07263, 0.90381, -0.16177, 0.38931,
 12:42:36.962,f6:90:cc:01:6d:25, 2015-01-01 00:55:08.645, 0.705, -0.006, -0.704, 4.089, -0.916, 0.366, 179.929, -46.324, -20.704, -27.227, -14.587, 17.593, 28.23, 0.07263, 0.90381, -0.16177, 0.38931,
 12:42:36.963,ed:35:33:d3:6c:f8, 2015-01-01 00:55:08.565, 0.902, 0.138, 0.386, 5.859, 0.488, 6.775, 19.319, -64.479, 131.089, -21.187, -15.960, -17.033, 26.48, -0.25717, -0.53796, 0.09052, -0.79761,
 12:42:36.963,ed:35:33:d3:6c:f8, 2015-01-01 00:55:08.565, 0.9, 0.151, 0.393, 7.263, 0.671, 7.507, 19.166, -64.517, 131.391, -21.187, -15.960, -17.033, 26.48, -0.25717, -0.53796, 0.09052, -0.79761,
 12:42:36.981,ed:40:fe:65:30:6c, 2015-01-01 00:55:13.565, 0.999, 0.079, -0.073, 7.141, -1.77, 1.16, 124.173, -84.441, 103.936, -26.887, -15.980, 17.493, 25.15, 0.25372, -0.64923, -0.32007, -0.64154,
 12:42:36.981,ed:40:fe:65:30:6c, 2015-01-01 00:55:13.565, 0.999, 0.099, -0.067, 8.118, -1.465, 1.587, 124.794, -84.441, 103.464, -26.887, -15.980, 17.493, 25.15, 0.25372, -0.64923, -0.32007, -0.64154,
 12:42:37.007,f6:90:cc:01:6d:25, 2015-01-01 00:55:08.645, 0.713, 0.001, -0.701, 5.493, 0.305, 0.305, -179.967, -46.313, -20.742, -27.227, -14.587, 17.593, 28.23, 0.07263, 0.90381, -0.16177, 0.38931,
 12:42:37.007,f6:90:cc:01:6d:25, 2015-01-01 00:55:08.645, 0.708, 0.019, -0.693, 6.653, 1.404, 0.244, -179.841, -46.324, -20.781, -27.227, -14.587, 17.593, 28.23, 0.07263, 0.90381, -0.16177, 0.38931,
 12:42:37.009,ed:35:33:d3:6c:f8, 2015-01-01 00:55:08.565, 0.895, 0.159, 0.396, 10.559, 0.916, 9.094, 19.017, -64.561, 131.715, -21.187, -15.960, -17.033, 26.48, -0.25717, -0.53796, 0.09052, -0.79761,
 12:42:37.009,ed:35:33:d3:6c:f8, 2015-01-01 00:55:08.565, 0.911, 0.15, 0.396, 10.132, 0.732, 7.385, 18.885, -64.605, 132.061, -21.187, -15.960, -17.033, 26.48, -0.25717, -0.53796, 0.09052, -0.79761,
 12:42:37.028,e3:ca:2d:fd:e0:8c, 2015-01-01 00:55:08.270, 0.755, -0.074, -0.673, 2.319, 0.122, 0.427, -173.205, -48.889, -40.232, -28.207, -12.027, 10.787, 24.93, 0.09171, 0.86197, -0.28732, 0.40732,
 12:42:37.028,e3:ca:2d:fd:e0:8c, 2015-01-01 00:55:08.270, 0.759, -0.071, -0.666, 3.052, 0.854, 0.366, -173.139, -48.895, -40.27, -28.207, -12.027, 10.787, 24.93, 0.09171, 0.86197, -0.28732, 0.40732,
 12:42:37.049,ed:40:fe:65:30:6c, 2015-01-01 00:55:13.565, 0.995, 0.107, -0.065, 8.301, -1.526, 1.282, 125.414, -84.441, 103.019, -27.033, -16.167, 17.513, 25.15, 0.25372, -0.64923, -0.32007, -0.64154,
 12:42:37.049,ed:40:fe:65:30:6c, 2015-01-01 00:55:13.565, 1.001, 0.088, -0.072, 7.385, -1.221, 1.099, 125.969, -84.435, 102.629, -27.033, -16.167, 17.513, 25.15, 0.25372, -0.64923, -0.32007, -0.64154,
 12:42:37.051,e3:ca:2d:fd:e0:8c, 2015-01-01 00:55:08.270, 0.763, -0.07, -0.67, 3.967, 0.122, 0.977, -173.051, -48.895, -40.32, -28.020, -11.653, 10.593, 24.93, 0.09171, 0.86197, -0.28732, 0.40732,
 12:42:37.051,e3:ca:2d:fd:e0:8c, 2015-01-01 00:55:08.270, 0.769, -0.07, -0.672, 4.7, 0.427, 1.648, -172.936, -48.895, -40.38, -28.020, -11.653, 10.593, 24.93, 0.09171, 0.86197, -0.28732, 0.40732,
 12:42:37.051,f6:90:cc:01:6d:25, 2015-01-01 00:55:08.645, 0.708, 0.021, -0.698, 7.69, 1.587, 0.488, -179.698, -46.346, -20.83, -27.227, -14.587, 17.593, 28.23, 0.07263, 0.90381, -0.16177, 0.38931,
 12:42:37.051,f6:90:cc:01:6d:25, 2015-01-01 00:55:08.645, 0.712, 0, -0.693, 9.033, 0.977, 0.427, -179.522, -46.362, -20.88, -27.227, -14.587, 17.593, 28.23, 0.07263, 0.90381, -0.16177, 0.38931,
 12:42:37.053,ed:35:33:d3:6c:f8, 2015-01-01 00:55:08.565, 0.926, 0.154, 0.38, 8.667, -0.183, 6.531, 18.809, -64.644, 132.341, -21.187, -15.960, -17.033, 26.48, -0.25946, -0.5379, 0.08768, -0.79721,
 12:42:37.053,ed:35:33:d3:6c:f8, 2015-01-01 00:55:08.565, 0.925, 0.158, 0.354, 9.521, -0.854, 8.118, 18.737, -64.698, 132.589, -21.187, -15.960, -17.033, 26.48, -0.25946, -0.5379, 0.08768, -0.79721,
 12:42:37.072,ed:40:fe:65:30:6c, 2015-01-01 00:55:13.565, 1.011, 0.071, -0.093, 10.132, 2.686, 1.953, 126.332, -84.446, 102.437, -27.033, -16.167, 17.513, 25.15, 0.25772, -0.65048, -0.32489, -0.63623,
 12:42:37.072,ed:40:fe:65:30:6c, 2015-01-01 00:55:13.565, 0.995, 0.082, -0.088, 11.047, 6.042, 2.686, 126.255, -84.512, 102.728, -27.033, -16.167, 17.513, 25.15, 0.25772, -0.65048, -0.32489, -0.63623,
 12:42:37.075,f6:90:cc:01:6d:25, 2015-01-01 00:55:08.645, 0.706, -0.007, -0.687, 7.629, 1.587, 0.366, -179.368, -46.379, -20.934, -26.900, -14.613, 17.287, 28.23, 0.07263, 0.90381, -0.16177, 0.38931,
 12:42:37.075,f6:90:cc:01:6d:25, 2015-01-01 00:55:08.645, 0.705, -0.011, -0.696, 9.827, 3.845, 0.427, -179.182, -46.439, -20.984, -26.900, -14.613, 17.287, 28.23, 0.07263, 0.90381, -0.16177, 0.38931,
 12:42:37.096,e3:ca:2d:fd:e0:8c, 2015-01-01 00:55:08.270, 0.755, -0.082, -0.659, 4.761, 0.977, 1.526, -172.809, -48.9, -40.441, -28.020, -11.653, 10.593, 24.93, 0.09171, 0.86197, -0.28732, 0.40732,
 12:42:37.096,e3:ca:2d:fd:e0:8c, 2015-01-01 00:55:08.270, 0.756, -0.086, -0.662, 3.845, 0.061, 1.404, -172.705, -48.9, -40.496, -28.020, -11.653, 10.593, 24.93, 0.09171, 0.86197, -0.28732, 0.40732,
 12:42:37.097,ed:35:33:d3:6c:f8, 2015-01-01 00:55:08.875, 0.913, 0.155, 0.378, 6.165, 1.099, 9.033, 18.611, -64.77, 132.88, -21.187, -15.960, -17.033, 26.48, -0.25946, -0.5379, 0.08768, -0.79721,
 12:42:37.097,ed:35:33:d3:6c:f8, 2015-01-01 00:55:08.875, 0.9, 0.182, 0.393, 2.991, 2.258, 8.301, 18.38, -64.808, 133.215, -21.187, -15.960, -17.033, 26.48, -0.25946, -0.5379, 0.08768, -0.79721,
 12:42:37.118,ed:40:fe:65:30:6c, 2015-01-01 00:55:13.565, 1, 0.1, -0.071, 9.766, 6.47, 4.15, 125.865, -84.622, 103.332, -27.033, -16.167, 17.513, 25.15, 0.25772, -0.65048, -0.32489, -0.63623,
 12:42:37.118,ed:40:fe:65:30:6c, 2015-01-01 00:55:13.565, 0.99, 0.095, -0.056, 9.155, 9.094, 5.188, 125.431, -84.765, 103.958, -27.033, -16.167, 17.513, 25.15, 0.25772, -0.65048, -0.32489, -0.63623,
 12:42:37.118,e3:ca:2d:fd:e0:8c, 2015-01-01 00:55:08.270, 0.762, -0.081, -0.664, 4.211, 1.526, 2.075, -172.584, -48.911, -40.567, -28.020, -11.653, 10.593, 24.93, 0.08847, 0.86139, -0.28973, 0.40759,
 12:42:37.118,e3:ca:2d:fd:e0:8c, 2015-01-01 00:55:08.270, 0.761, -0.083, -0.655, 7.385, 0.916, 2.869, -172.397, -48.922, -40.66, -28.020, -11.653, 10.593, 24.93, 0.08847, 0.86139, -0.28973, 0.40759,
 12:42:37.120,f6:90:cc:01:6d:25, 2015-01-01 00:55:08.645, 0.713, -0.016, -0.696, 13.367, 5.432, 0.549, -178.929, -46.527, -21.028, -26.900, -14.613, 17.287, 28.23, 0.07263, 0.90381, -0.16177, 0.38931,
 12:42:37.120,f6:90:cc:01:6d:25, 2015-01-01 00:55:08.645, 0.72, -0.009, -0.677, 11.353, 5.127, 1.038, -178.682, -46.62, -21.077, -26.900, -14.613, 17.287, 28.23, 0.07263, 0.90381, -0.16177, 0.38931,
 12:42:37.139,ed:40:fe:65:30:6c, 2015-01-01 00:55:13.900, 0.988, 0.087, -0.034, 9.338, 8.789, 6.165, 124.722, -84.941, 104.848, -27.033, -16.167, 17.513, 25.15, 0.25772, -0.65048, -0.32489, -0.63623,
 12:42:37.139,ed:40:fe:65:30:6c, 2015-01-01 00:55:13.900, 0.994, 0.08, -0.014, 8.728, 7.751, 6.836, 124.135, -85.128, 105.606, -27.033, -16.167, 17.513, 25.15, 0.25772, -0.65048, -0.32489, -0.63623,
 12:42:37.143,ed:35:33:d3:6c:f8, 2015-01-01 00:55:08.875, 0.874, 0.16, 0.399, 2.197, 4.639, 10.742, 18.083, -64.819, 133.561, -21.187, -15.960, -17.033, 26.48, -0.25946, -0.5379, 0.08768, -0.79721,
 12:42:37.143,ed:35:33:d3:6c:f8, 2015-01-01 00:55:08.875, 0.865, 0.147, 0.429, 2.808, 7.263, 11.414, 17.672, -64.792, 134.033, -21.187, -15.960, -17.033, 26.48, -0.25946, -0.5379, 0.08768, -0.79721,
 12:42:37.164,e3:ca:2d:fd:e0:8c, 2015-01-01 00:55:08.270, 0.765, -0.082, -0.666, 9.338, -1.709, 3.479, -172.161, -48.889, -40.754, -28.020, -11.653, 10.593, 24.93, 0.08847, 0.86139, -0.28973, 0.40759,
 12:42:37.164,e3:ca:2d:fd:e0:8c, 2015-01-01 00:55:08.270, 0.762, -0.083, -0.665, 7.446, -0.977, 3.418, -171.942, -48.856, -40.853, -28.020, -11.653, 10.593, 24.93, 0.08847, 0.86139, -0.28973, 0.40759,
 12:42:37.165,ed:35:33:d3:6c:f8, 2015-01-01 00:55:08.875, 0.883, 0.137, 0.438, 2.075, 3.784, 11.597, 17.227, -64.737, 134.555, -21.187, -15.960, -17.033, 26.48, -0.25946, -0.5379, 0.08768, -0.79721,
 12:42:37.165,ed:35:33:d3:6c:f8, 2015-01-01 00:55:08.875, 0.886, 0.12, 0.416, 1.587, -0.793, 9.338, 16.831, -64.748, 135, -21.187, -15.960, -17.033, 26.48, -0.25946, -0.5379, 0.08768, -0.79721,
 12:42:37.184,ed:40:fe:65:30:6c, 2015-01-01 00:55:13.900, 0.997, 0.07, -0.032, 6.958, 6.653, 7.385, 123.728, -85.309, 106.172, -27.033, -16.167, 17.513, 25.15, 0.25772, -0.65048, -0.32489, -0.63623,
 12:42:37.184,ed:40:fe:65:30:6c, 2015-01-01 00:55:13.900, 1, 0.069, -0.034, 4.272, 5.554, 7.812, 123.525, -85.496, 106.496, -27.033, -16.167, 17.513, 25.15, 0.25772, -0.65048, -0.32489, -0.63623,
 12:42:37.188,f6:90:cc:01:6d:25, 2015-01-01 00:55:08.645, 0.723, -0.004, -0.672, 8.606, 4.333, 1.953, -178.473, -46.697, -21.143, -26.900, -14.613, 17.287, 28.23, 0.06241, 0.90366, -0.16364, 0.39066,
 12:42:37.188,f6:90:cc:01:6d:25, 2015-01-01 00:55:08.645, 0.722, -0.007, -0.669, 7.446, 3.479, 2.014, -178.286, -46.763, -21.22, -26.900, -14.613, 17.287, 28.23, 0.06241, 0.90366, -0.16364, 0.39066,
 12:42:37.207,e3:ca:2d:fd:e0:8c, 2015-01-01 00:55:08.650, 0.755, -0.087, -0.657, 4.7, -0.183, 2.93, -171.777, -48.84, -40.941, -28.020, -11.653, 10.593, 24.93, 0.08847, 0.86139, -0.28973, 0.40759,
 12:42:37.207,e3:ca:2d:fd:e0:8c, 2015-01-01 00:55:08.650, 0.756, -0.094, -0.66, 3.235, -1.343, 2.869, -171.661, -48.807, -41.023, -28.020, -11.653, 10.593, 24.93, 0.08847, 0.86139, -0.28973, 0.40759,
 12:42:37.209,f6:90:cc:01:6d:25, 2015-01-01 00:55:09.005, 0.718, -0.01, -0.667, 6.104, 2.441, 1.16, -178.143, -46.813, -21.275, -26.900, -14.613, 17.287, 28.23, 0.06241, 0.90366, -0.16364, 0.39066,
 12:42:37.209,f6:90:cc:01:6d:25, 2015-01-01 00:55:09.005, 0.718, -0.013, -0.676, 3.296, 1.709, 0.366, -178.066, -46.846, -21.286, -26.900, -14.613, 17.287, 28.23, 0.06241, 0.90366, -0.16364, 0.39066,
 12:42:37.211,ed:35:33:d3:6c:f8, 2015-01-01 00:55:08.875, 0.895, 0.138, 0.418, -1.465, -2.686, 8.667, 16.534, -64.819, 135.319, -21.187, -15.960, -17.033, 26.48, -0.25946, -0.5379, 0.08768, -0.79721,
 12:42:37.211,ed:35:33:d3:6c:f8, 2015-01-01 00:55:08.875, 0.9, 0.127, 0.413, -6.531, -4.639, 9.338, 16.194, -64.924, 135.604, -21.187, -15.960, -17.033, 26.48, -0.25946, -0.5379, 0.08768, -0.79721,
 12:42:37.230,ed:40:fe:65:30:6c, 2015-01-01 00:55:13.900, 1.001, 0.075, -0.04, 2.869, 4.272, 9.216, 123.596, -85.677, 106.507, -27.033, -16.167, 17.513, 25.15, 0.25772, -0.65048, -0.32489, -0.63623,
 12:42:37.230,ed:40:fe:65:30:6c, 2015-01-01 00:55:13.900, 0.998, 0.058, -0.037, 1.343, 2.869, 9.216, 124.091, -85.858, 106.062, -27.033, -16.167, 17.513, 25.15, 0.25772, -0.65048, -0.32489, -0.63623,
 12:42:37.232,f6:90:cc:01:6d:25, 2015-01-01 00:55:09.005, 0.718, -0.024, -0.679, 0.549, 1.099, 0.488, -178.044, -46.862, -21.297, -26.900, -14.613, 17.287, 28.23, 0.06241, 0.90366, -0.16364, 0.39066,
 12:42:37.232,f6:90:cc:01:6d:25, 2015-01-01 00:55:09.005, 0.719, -0.037, -0.686, -0.305, 1.587, 1.16, -178.039, -46.89, -21.324, -26.900, -14.613, 17.287, 28.23, 0.06241, 0.90366, -0.16364, 0.39066,
 12:42:37.254,e3:ca:2d:fd:e0:8c, 2015-01-01 00:55:08.650, 0.758, -0.095, -0.663, 3.113, -1.099, 2.93, -171.546, -48.774, -41.111, -28.020, -11.653, 10.593, 24.93, 0.08847, 0.86139, -0.28973, 0.40759,
 12:42:37.254,e3:ca:2d:fd:e0:8c, 2015-01-01 00:55:08.650, 0.763, -0.107, -0.67, 3.052, -0.793, 2.502, -171.447, -48.752, -41.199, -28.020, -11.653, 10.593, 24.93, 0.08847, 0.86139, -0.28973, 0.40759,
 12:42:37.256,ed:35:33:d3:6c:f8, 2015-01-01 00:55:08.875, 0.898, 0.093, 0.419, -7.446, -3.723, 10.132, 15.76, -65.05, 135.945, -21.187, -15.960, -17.033, 26.48, -0.25946, -0.5379, 0.08768, -0.79721,
 12:42:37.256,ed:35:33:d3:6c:f8, 2015-01-01 00:55:08.875, 0.905, 0.09, 0.411, -5.981, -4.028, 9.888, 15.276, -65.165, 136.335, -21.187, -15.960, -17.033, 26.48, -0.25946, -0.5379, 0.08768, -0.79721,
 12:42:37.274,ed:40:fe:65:30:6c, 2015-01-01 00:55:13.900, 1.001, 0.044, -0.031, -0.122, 1.221, 8.362, 124.915, -86.023, 105.255, -27.033, -16.167, 17.513, 25.15, 0.25772, -0.65048, -0.32489, -0.63623,
 12:42:37.274,ed:40:fe:65:30:6c, 2015-01-01 00:55:13.900, 1.003, 0.03, -0.04, 0.61, 1.526, 7.996, 125.942, -86.16, 104.216, -27.033, -16.167, 17.513, 25.15, 0.25772, -0.65048, -0.32489, -0.63623,
 12:42:37.275,e3:ca:2d:fd:e0:8c, 2015-01-01 00:55:08.650, 0.764, -0.118, -0.675, 2.502, -0.244, 2.014, -171.359, -48.735, -41.27, -28.020, -11.653, 10.593, 24.93, 0.08847, 0.86139, -0.28973, 0.40759,
 12:42:37.275,e3:ca:2d:fd:e0:8c, 2015-01-01 00:55:08.650, 0.752, -0.119, -0.672, 1.343, 0.488, 1.404, -171.299, -48.735, -41.331, -28.020, -11.653, 10.593, 24.93, 0.08847, 0.86139, -0.28973, 0.40759,
 12:42:37.276,f6:90:cc:01:6d:25, 2015-01-01 00:55:09.005, 0.718, -0.037, -0.691, -1.282, 1.343, 1.648, -178.033, -46.912, -21.368, -26.900, -14.613, 17.287, 28.23, 0.06241, 0.90366, -0.16364, 0.39066,
 12:42:37.276,f6:90:cc:01:6d:25, 2015-01-01 00:55:09.005, 0.718, -0.04, -0.682, -1.526, -0.305, 1.465, -178.033, -46.906, -21.434, -26.900, -14.613, 17.287, 28.23, 0.06241, 0.90366, -0.16364, 0.39066,
 12:42:37.301,ed:35:33:d3:6c:f8, 2015-01-01 00:55:08.875, 0.916, 0.071, 0.394, -4.822, -3.296, 11.475, 14.799, -65.281, 136.769, -21.147, -15.587, -16.653, 26.48, -0.25946, -0.5379, 0.08768, -0.79721,
 12:42:37.301,ed:35:33:d3:6c:f8, 2015-01-01 00:55:08.875, 0.904, 0.042, 0.395, -1.709, -1.16, 12.512, 14.271, -65.385, 137.296, -21.147, -15.587, -16.653, 26.48, -0.25946, -0.5379, 0.08768, -0.79721,
 12:42:37.320,e3:ca:2d:fd:e0:8c, 2015-01-01 00:55:08.650, 0.75, -0.116, -0.666, 0.244, 0.854, 0.793, -171.277, -48.746, -41.375, -28.020, -11.653, 10.593, 24.93, 0.08847, 0.86139, -0.28973, 0.40759,
 12:42:37.320,e3:ca:2d:fd:e0:8c, 2015-01-01 00:55:08.650, 0.758, -0.115, -0.658, -0.061, 1.648, 0.366, -171.26, -48.774, -41.413, -28.020, -11.653, 10.593, 24.93, 0.08847, 0.86139, -0.28973, 0.40759,
 12:42:37.320,ed:40:fe:65:30:6c, 2015-01-01 00:55:13.900, 1.002, 0.019, -0.045, 1.465, 1.77, 6.348, 126.892, -86.298, 103.271, -27.033, -16.167, 17.513, 25.15, 0.25772, -0.65048, -0.32489, -0.63623,
 12:42:37.320,ed:40:fe:65:30:6c, 2015-01-01 00:55:13.900, 1, 0.021, -0.039, 0.671, 1.892, 4.028, 127.557, -86.407, 102.607, -27.033, -16.167, 17.513, 25.15, 0.25772, -0.65048, -0.32489, -0.63623,
 12:42:37.322,f6:90:cc:01:6d:25, 2015-01-01 00:55:09.005, 0.718, -0.049, -0.675, -0.732, -1.038, 0.854, -178.028, -46.879, -21.484, -26.900, -14.613, 17.287, 28.23, 0.06241, 0.90366, -0.16364, 0.39066,
 12:42:37.322,f6:90:cc:01:6d:25, 2015-01-01 00:55:09.005, 0.719, -0.048, -0.679, -1.282, -0.366, 0.61, -178.028, -46.868, -21.522, -26.900, -14.613, 17.287, 28.23, 0.06241, 0.90366, -0.16364, 0.39066,
 12:42:37.342,ed:40:fe:65:30:6c, 2015-01-01 00:55:13.900, 1, 0.037, -0.036, 0.305, 1.465, 3.357, 127.908, -86.484, 102.25, -27.487, -15.400, 17.013, 25.15, 0.25772, -0.65048, -0.32489, -0.63623,
 12:42:37.342,ed:40:fe:65:30:6c, 2015-01-01 00:55:13.900, 0.999, 0.042, -0.034, 0.854, 0.854, 2.38, 128.243, -86.55, 101.898, -27.487, -15.400, 17.013, 25.15, 0.25772, -0.65048, -0.32489, -0.63623,
 12:42:37.345,ed:35:33:d3:6c:f8, 2015-01-01 00:55:08.875, 0.903, 0.056, 0.404, 0, -0.366, 11.658, 13.733, -65.462, 137.889, -21.147, -15.587, -16.653, 26.48, -0.23965, -0.53708, 0.09894, -0.80261,
 12:42:37.345,ed:35:33:d3:6c:f8, 2015-01-01 00:55:08.875, 0.899, 0.072, 0.404, 1.465, -1.343, 9.216, 13.271, -65.522, 138.45, -21.147, -15.587, -16.653, 26.48, -0.23965, -0.53708, 0.09894, -0.80261,
 12:42:37.367,f6:90:cc:01:6d:25, 2015-01-01 00:55:09.005, 0.717, -0.04, -0.676, -2.38, -0.061, 0.61, -178.05, -46.857, -21.555, -26.900, -14.613, 17.287, 28.23, 0.06241, 0.90366, -0.16364, 0.39066,
 12:42:37.367,f6:90:cc:01:6d:25, 2015-01-01 00:55:09.005, 0.717, -0.03, -0.671, -2.686, 0.061, 0.916, -178.072, -46.857, -21.605, -26.900, -14.613, 17.287, 28.23, 0.06241, 0.90366, -0.16364, 0.39066,
 12:42:37.367,ed:35:33:d3:6c:f8, 2015-01-01 00:55:09.165, 0.901, 0.065, 0.407, 3.54, -1.282, 8.606, 12.931, -65.583, 138.9, -21.147, -15.587, -16.653, 26.48, -0.23965, -0.53708, 0.09894, -0.80261,
 12:42:37.367,ed:35:33:d3:6c:f8, 2015-01-01 00:55:09.165, 0.901, 0.06, 0.401, 4.944, -1.587, 6.897, 12.656, -65.643, 139.312, -21.147, -15.587, -16.653, 26.48, -0.23965, -0.53708, 0.09894, -0.80261,
 12:42:37.387,ed:40:fe:65:30:6c, 2015-01-01 00:55:13.900, 0.999, 0.04, -0.035, 1.282, -0.244, 0.427, 128.535, -86.589, 101.602, -27.487, -15.400, 17.013, 25.15, 0.25772, -0.65048, -0.32489, -0.63623,
 12:42:37.387,ed:40:fe:65:30:6c, 2015-01-01 00:55:13.900, 1, 0.035, -0.032, 1.343, -0.244, -0.488, 128.694, -86.589, 101.448, -27.487, -15.400, 17.013, 25.15, 0.25772, -0.65048, -0.32489, -0.63623,
 12:42:37.387,e3:ca:2d:fd:e0:8c, 2015-01-01 00:55:08.650, 0.758, -0.113, -0.651, -0.122, 1.221, 0.061, -171.255, -48.796, -41.435, -28.020, -11.653, 10.593, 24.93, 0.08847, 0.86139, -0.28973, 0.40759,
 12:42:37.387,e3:ca:2d:fd:e0:8c, 2015-01-01 00:55:08.650, 0.754, -0.11, -0.655, -0.793, -0.488, -0.427, -171.277, -48.785, -41.429, -28.020, -11.653, 10.593, 24.93, 0.08847, 0.86139, -0.28973, 0.40759,
 12:42:37.413,e3:ca:2d:fd:e0:8c, 2015-01-01 00:55:08.650, 0.756, -0.105, -0.665, -1.526, -0.977, -0.793, -171.321, -48.763, -41.407, -28.093, -11.240, 11.253, 24.93, 0.08847, 0.86139, -0.28973, 0.40759,
 12:42:37.413,e3:ca:2d:fd:e0:8c, 2015-01-01 00:55:08.650, 0.759, -0.1, -0.669, -1.709, 0.183, -0.793, -171.37, -48.763, -41.385, -28.093, -11.240, 11.253, 24.93, 0.08847, 0.86139, -0.28973, 0.40759,
 12:42:37.413,f6:90:cc:01:6d:25, 2015-01-01 00:55:09.005, 0.716, -0.024, -0.677, -1.709, 0.427, 1.099, -178.077, -46.857, -21.671, -26.900, -14.613, 17.287, 28.23, 0.06241, 0.90366, -0.16364, 0.39066,
 12:42:37.413,f6:90:cc:01:6d:25, 2015-01-01 00:55:09.005, 0.717, -0.026, -0.68, -0.366, 0, 0.671, -178.066, -46.857, -21.742, -26.900, -14.613, 17.287, 28.23, 0.06241, 0.90366, -0.16364, 0.39066,
 12:42:37.415,ed:35:33:d3:6c:f8, 2015-01-01 00:55:09.165, 0.899, 0.061, 0.404, 5.127, -1.587, 3.723, 12.491, -65.698, 139.614, -21.147, -15.587, -16.653, 26.48, -0.23965, -0.53708, 0.09894, -0.80261,
 12:42:37.415,ed:35:33:d3:6c:f8, 2015-01-01 00:55:09.165, 0.899, 0.069, 0.41, 3.479, -2.197, 0.732, 12.453, -65.742, 139.779, -21.147, -15.587, -16.653, 26.48, -0.23965, -0.53708, 0.09894, -0.80261,
 12:42:37.434,f6:90:cc:01:6d:25, 2015-01-01 00:55:09.005, 0.721, -0.026, -0.682, 0.305, -1.038, 0.122, -178.055, -46.829, -21.78, -27.480, -14.187, 16.873, 28.23, 0.06241, 0.90366, -0.16364, 0.39066,
 12:42:37.434,f6:90:cc:01:6d:25, 2015-01-01 00:55:09.005, 0.721, -0.023, -0.68, -0.122, -1.404, 0, -178.05, -46.802, -21.819, -27.480, -14.187, 16.873, 28.23, 0.06241, 0.90366, -0.16364, 0.39066,
 12:42:37.455,e3:ca:2d:fd:e0:8c, 2015-01-01 00:55:08.650, 0.761, -0.099, -0.668, -1.404, 0.732, -0.916, -171.409, -48.779, -41.358, -28.093, -11.240, 11.253, 24.93, 0.08847, 0.86139, -0.28973, 0.40759,
 12:42:37.455,e3:ca:2d:fd:e0:8c, 2015-01-01 00:55:08.650, 0.764, -0.099, -0.665, -1.953, 0.366, -1.038, -171.469, -48.785, -41.331, -28.093, -11.240, 11.253, 24.93, 0.08847, 0.86139, -0.28973, 0.40759,
 12:42:37.455,ed:40:fe:65:30:6c, 2015-01-01 00:55:13.900, 0.998, 0.04, -0.031, 0.366, -1.038, -1.16, 128.721, -86.572, 101.431, -27.487, -15.400, 17.013, 25.15, 0.27905, -0.64511, -0.31992, -0.63522,
 12:42:37.455,ed:40:fe:65:30:6c, 2015-01-01 00:55:13.900, 0.997, 0.049, -0.029, -1.038, -2.014, -1.831, 128.798, -86.539, 101.354, -27.487, -15.400, 17.013, 25.15, 0.27905, -0.64511, -0.31992, -0.63522,
 12:42:37.459,ed:35:33:d3:6c:f8, 2015-01-01 00:55:09.165, 0.901, 0.077, 0.408, 0.732, -3.052, -2.319, 12.513, -65.781, 139.796, -21.147, -15.587, -16.653, 26.48, -0.23965, -0.53708, 0.09894, -0.80261,
 12:42:37.459,ed:35:33:d3:6c:f8, 2015-01-01 00:55:09.165, 0.909, 0.09, 0.407, -1.831, -3.052, -5.371, 12.651, -65.825, 139.642, -21.147, -15.587, -16.653, 26.48, -0.23965, -0.53708, 0.09894, -0.80261,
 12:42:37.478,e3:ca:2d:fd:e0:8c, 2015-01-01 00:55:08.650, 0.762, -0.097, -0.66, -2.625, 0.244, -1.099, -171.541, -48.785, -41.303, -28.093, -11.240, 11.253, 24.93, 0.08197, 0.86057, -0.29178, 0.40921,
 12:42:37.478,e3:ca:2d:fd:e0:8c, 2015-01-01 00:55:08.650, 0.757, -0.096, -0.657, -2.808, 0.122, -1.404, -171.623, -48.79, -41.265, -28.093, -11.240, 11.253, 24.93, 0.08197, 0.86057, -0.29178, 0.40921,
 12:42:37.478,ed:40:fe:65:30:6c, 2015-01-01 00:55:14.235, 1, 0.056, -0.029, -2.686, -2.563, -2.319, 128.914, -86.484, 101.206, -27.487, -15.400, 17.013, 25.15, 0.27905, -0.64511, -0.31992, -0.63522,
 12:42:37.478,ed:40:fe:65:30:6c, 2015-01-01 00:55:14.235, 1, 0.053, -0.038, -3.174, -3.54, -2.441, 129.062, -86.418, 100.997, -27.487, -15.400, 17.013, 25.15, 0.27905, -0.64511, -0.31992, -0.63522,
 12:42:37.480,f6:90:cc:01:6d:25, 2015-01-01 00:55:09.005, 0.716, -0.019, -0.675, -1.282, -1.587, 0.244, -178.066, -46.769, -21.857, -27.480, -14.187, 16.873, 28.23, 0.06241, 0.90366, -0.16364, 0.39066,
 12:42:37.480,f6:90:cc:01:6d:25, 2015-01-01 00:55:09.005, 0.717, -0.02, -0.675, -2.441, -2.136, 0.305, -178.11, -46.725, -21.89, -27.480, -14.187, 16.873, 28.23, 0.06241, 0.90366, -0.16364, 0.39066,
 12:42:37.503,ed:35:33:d3:6c:f8, 2015-01-01 00:55:09.165, 0.916, 0.093, 0.402, -2.258, -2.625, -5.737, 12.854, -65.852, 139.373, -21.147, -15.587, -16.653, 26.48, -0.23965, -0.53708, 0.09894, -0.80261,
 12:42:37.503,ed:35:33:d3:6c:f8, 2015-01-01 00:55:09.165, 0.912, 0.087, 0.391, -1.831, -2.563, -5.31, 13.063, -65.869, 139.098, -21.147, -15.587, -16.653, 26.48, -0.23965, -0.53708, 0.09894, -0.80261,
 12:42:37.522,ed:40:fe:65:30:6c, 2015-01-01 00:55:14.235, 1.001, 0.047, -0.044, -3.113, -3.906, -2.563, 129.359, -86.336, 100.618, -27.487, -15.400, 17.013, 25.15, 0.27905, -0.64511, -0.31992, -0.63522,
 12:42:37.522,ed:40:fe:65:30:6c, 2015-01-01 00:55:14.235, 1.001, 0.049, -0.05, -3.357, -2.747, -2.808, 129.617, -86.254, 100.278, -27.487, -15.400, 17.013, 25.15, 0.27905, -0.64511, -0.31992, -0.63522,
 12:42:37.523,e3:ca:2d:fd:e0:8c, 2015-01-01 00:55:08.650, 0.758, -0.097, -0.657, -2.991, 0.061, -1.526, -171.716, -48.796, -41.215, -28.093, -11.240, 11.253, 24.93, 0.08197, 0.86057, -0.29178, 0.40921,
 12:42:37.523,e3:ca:2d:fd:e0:8c, 2015-01-01 00:55:08.650, 0.758, -0.097, -0.656, -3.113, -0.305, -1.526, -171.81, -48.79, -41.16, -28.093, -11.240, 11.253, 24.93, 0.08197, 0.86057, -0.29178, 0.40921,
 12:42:37.525,ed:35:33:d3:6c:f8, 2015-01-01 00:55:09.165, 0.905, 0.103, 0.388, -3.357, -2.502, -5.798, 13.26, -65.891, 138.834, -21.147, -15.587, -16.653, 26.48, -0.23965, -0.53708, 0.09894, -0.80261,
 12:42:37.525,ed:35:33:d3:6c:f8, 2015-01-01 00:55:09.165, 0.916, 0.11, 0.397, -2.319, -2.197, -5.31, 13.453, -65.912, 138.571, -21.147, -15.587, -16.653, 26.48, -0.23965, -0.53708, 0.09894, -0.80261,
 12:42:37.544,ed:40:fe:65:30:6c, 2015-01-01 00:55:14.235, 1, 0.064, -0.047, -2.808, -2.625, -2.136, 129.694, -86.182, 100.135, -27.487, -15.400, 17.013, 25.15, 0.27905, -0.64511, -0.31992, -0.63522,
 12:42:37.544,ed:40:fe:65:30:6c, 2015-01-01 00:55:14.235, 1.004, 0.066, -0.049, -1.831, -3.052, -1.892, 129.897, -86.122, 99.882, -27.487, -15.400, 17.013, 25.15, 0.27905, -0.64511, -0.31992, -0.63522,
 12:42:37.569,f6:90:cc:01:6d:25, 2015-01-01 00:55:09.005, 0.718, -0.021, -0.68, -2.93, -1.831, 0.122, -178.165, -46.686, -21.907, -27.480, -14.187, 16.873, 28.23, 0.06033, 0.90237, -0.16776, 0.39224,
 12:42:37.569,f6:90:cc:01:6d:25, 2015-01-01 00:55:09.005, 0.716, -0.021, -0.678, -2.93, -1.282, -0.061, -178.22, -46.659, -21.918, -27.480, -14.187, 16.873, 28.23, 0.06033, 0.90237, -0.16776, 0.39224,
 12:42:37.569,e3:ca:2d:fd:e0:8c, 2015-01-01 00:55:09.010, 0.76, -0.094, -0.665, -2.563, -1.221, -1.221, -171.887, -48.768, -41.122, -28.093, -11.240, 11.253, 24.93, 0.08197, 0.86057, -0.29178, 0.40921,
 12:42:37.569,e3:ca:2d:fd:e0:8c, 2015-01-01 00:55:09.010, 0.761, -0.09, -0.669, -1.77, -1.221, -0.977, -171.942, -48.746, -41.094, -28.093, -11.240, 11.253, 24.93, 0.08197, 0.86057, -0.29178, 0.40921,
 12:42:37.571,ed:35:33:d3:6c:f8, 2015-01-01 00:55:09.165, 0.92, 0.103, 0.387, -0.732, -1.77, -5.737, 13.661, -65.923, 138.318, -21.800, -15.067, -16.667, 26.48, -0.23965, -0.53708, 0.09894, -0.80261,
 12:42:37.571,ed:35:33:d3:6c:f8, 2015-01-01 00:55:09.165, 0.922, 0.105, 0.376, -2.258, -1.404, -6.409, 13.909, -65.923, 138.032, -21.800, -15.067, -16.667, 26.48, -0.23965, -0.53708, 0.09894, -0.80261,
 12:42:37.589,ed:40:fe:65:30:6c, 2015-01-01 00:55:14.235, 1.008, 0.059, -0.061, -1.648, -2.38, -1.953, 130.084, -86.056, 99.651, -27.487, -15.400, 17.013, 25.15, 0.27905, -0.64511, -0.31992, -0.63522,
 12:42:37.589,ed:40:fe:65:30:6c, 2015-01-01 00:55:14.235, 1.006, 0.055, -0.067, -2.258, -1.77, -1.648, 130.172, -86.001, 99.525, -27.487, -15.400, 17.013, 25.15, 0.27905, -0.64511, -0.31992, -0.63522,
 12:42:37.591,f6:90:cc:01:6d:25, 2015-01-01 00:55:09.360, 0.715, -0.02, -0.678, -2.625, -0.671, -0.183, -178.275, -46.642, -21.923, -27.480, -14.187, 16.873, 28.23, 0.06033, 0.90237, -0.16776, 0.39224,
 12:42:37.591,f6:90:cc:01:6d:25, 2015-01-01 00:55:09.360, 0.714, -0.013, -0.686, -2.075, 0.061, 0.183, -178.308, -46.642, -21.94, -27.480, -14.187, 16.873, 28.23, 0.06033, 0.90237, -0.16776, 0.39224,
 12:42:37.613,e3:ca:2d:fd:e0:8c, 2015-01-01 00:55:09.010, 0.755, -0.088, -0.669, -1.16, -1.282, -0.732, -171.985, -48.719, -41.067, -28.093, -11.240, 11.253, 24.93, 0.08197, 0.86057, -0.29178, 0.40921,
 12:42:37.613,e3:ca:2d:fd:e0:8c, 2015-01-01 00:55:09.010, 0.754, -0.086, -0.672, -0.977, -1.526, -0.549, -172.018, -48.686, -41.039, -28.093, -11.240, 11.253, 24.93, 0.08197, 0.86057, -0.29178, 0.40921,
 12:42:37.615,f6:90:cc:01:6d:25, 2015-01-01 00:55:09.360, 0.71, -0.011, -0.688, -1.099, 0.061, 0.366, -178.325, -46.642, -21.962, -27.480, -14.187, 16.873, 28.23, 0.06033, 0.90237, -0.16776, 0.39224,
 12:42:37.615,f6:90:cc:01:6d:25, 2015-01-01 00:55:09.360, 0.708, -0.016, -0.692, -0.305, 0, 0, -178.33, -46.642, -21.978, -27.480, -14.187, 16.873, 28.23, 0.06033, 0.90237, -0.16776, 0.39224,
 12:42:37.616,ed:35:33:d3:6c:f8, 2015-01-01 00:55:09.165, 0.918, 0.107, 0.382, -3.723, -1.404, -6.714, 14.145, -65.923, 137.714, -21.800, -15.067, -16.667, 26.48, -0.23718, -0.54074, 0.09839, -0.80096,
 12:42:37.616,ed:35:33:d3:6c:f8, 2015-01-01 00:55:09.165, 0.919, 0.115, 0.385, -4.578, -1.587, -6.775, 14.37, -65.918, 137.39, -21.800, -15.067, -16.667, 26.48, -0.23718, -0.54074, 0.09839, -0.80096,
 12:42:37.636,f6:90:cc:01:6d:25, 2015-01-01 00:55:09.360, 0.709, -0.016, -0.7, -0.854, 0.366, -0.244, -178.358, -46.642, -21.995, -27.480, -14.187, 16.873, 28.23, 0.06033, 0.90237, -0.16776, 0.39224,
 12:42:37.636,f6:90:cc:01:6d:25, 2015-01-01 00:55:09.360, 0.712, -0.013, -0.699, -1.465, 0.305, -0.244, -178.391, -46.642, -22.006, -27.480, -14.187, 16.873, 28.23, 0.06033, 0.90237, -0.16776, 0.39224,
 12:42:37.657,ed:40:fe:65:30:6c, 2015-01-01 00:55:14.235, 1.004, 0.062, -0.063, -2.441, -2.136, -1.282, 130.298, -85.952, 99.333, -27.487, -15.400, 17.013, 25.15, 0.27905, -0.64511, -0.31992, -0.63522,
 12:42:37.657,ed:40:fe:65:30:6c, 2015-01-01 00:55:14.235, 1.002, 0.067, -0.061, -1.953, -2.319, -1.038, 130.551, -85.897, 99.025, -27.487, -15.400, 17.013, 25.15, 0.27905, -0.64511, -0.31992, -0.63522,
 12:42:37.657,e3:ca:2d:fd:e0:8c, 2015-01-01 00:55:09.010, 0.759, -0.084, -0.674, -1.099, -0.61, -0.305, -172.051, -48.675, -41.028, -28.093, -11.240, 11.253, 24.93, 0.08197, 0.86057, -0.29178, 0.40921,
 12:42:37.657,e3:ca:2d:fd:e0:8c, 2015-01-01 00:55:09.010, 0.76, -0.085, -0.675, -0.793, 0.305, 0, -172.068, -48.675, -41.017, -28.093, -11.240, 11.253, 24.93, 0.08197, 0.86057, -0.29178, 0.40921,
 12:42:37.661,ed:35:33:d3:6c:f8, 2015-01-01 00:55:09.435, 0.909, 0.117, 0.386, -4.028, -0.916, -6.653, 14.59, -65.918, 137.071, -21.800, -15.067, -16.667, 26.48, -0.23718, -0.54074, 0.09839, -0.80096,
 12:42:37.661,ed:35:33:d3:6c:f8, 2015-01-01 00:55:09.435, 0.903, 0.111, 0.396, -1.892, -0.244, -5.981, 14.81, -65.901, 136.769, -21.800, -15.067, -16.667, 26.48, -0.23718, -0.54074, 0.09839, -0.80096,
 12:42:37.679,ed:40:fe:65:30:6c, 2015-01-01 00:55:14.235, 0.997, 0.062, -0.053, -1.16, -2.502, -0.977, 130.869, -85.847, 98.663, -27.533, -15.520, 17.353, 25.15, 0.27905, -0.64511, -0.31992, -0.63522,
 12:42:37.679,ed:40:fe:65:30:6c, 2015-01-01 00:55:14.235, 0.993, 0.06, -0.044, -0.549, -2.991, -0.793, 131.27, -85.792, 98.234, -27.533, -15.520, 17.353, 25.15, 0.27905, -0.64511, -0.31992, -0.63522,
 12:42:37.680,e3:ca:2d:fd:e0:8c, 2015-01-01 00:55:09.010, 0.761, -0.087, -0.677, -0.366, 0.488, 0, -172.079, -48.68, -41.006, -28.093, -11.240, 11.253, 24.93, 0.08197, 0.86057, -0.29178, 0.40921,
 12:42:37.680,e3:ca:2d:fd:e0:8c, 2015-01-01 00:55:09.010, 0.762, -0.09, -0.674, -0.122, 1.16, 0.122, -172.079, -48.697, -41.017, -28.093, -11.240, 11.253, 24.93, 0.08197, 0.86057, -0.29178, 0.40921,
 12:42:37.681,f6:90:cc:01:6d:25, 2015-01-01 00:55:09.360, 0.715, -0.012, -0.694, -1.038, -0.061, -0.183, -178.418, -46.631, -22.017, -27.480, -14.187, 16.873, 28.23, 0.06033, 0.90237, -0.16776, 0.39224,
 12:42:37.681,f6:90:cc:01:6d:25, 2015-01-01 00:55:09.360, 0.717, -0.014, -0.69, -0.366, -0.549, -0.366, -178.434, -46.615, -22.017, -27.480, -14.187, 16.873, 28.23, 0.06033, 0.90237, -0.16776, 0.39224,
 12:42:37.706,ed:35:33:d3:6c:f8, 2015-01-01 00:55:09.435, 0.893, 0.107, 0.397, 0.854, -0.61, -6.042, 15.051, -65.88, 136.478, -21.800, -15.067, -16.667, 26.48, -0.23718, -0.54074, 0.09839, -0.80096,
 12:42:37.706,ed:35:33:d3:6c:f8, 2015-01-01 00:55:09.435, 0.889, 0.115, 0.403, 0.61, -0.305, -5.554, 15.326, -65.863, 136.208, -21.800, -15.067, -16.667, 26.48, -0.23718, -0.54074, 0.09839, -0.80096,
 12:42:37.724,ed:40:fe:65:30:6c, 2015-01-01 00:55:14.235, 0.993, 0.058, -0.038, -0.122, -2.502, -0.671, 131.688, -85.743, 97.811, -27.533, -15.520, 17.353, 25.15, 0.27905, -0.64511, -0.31992, -0.63522,
 12:42:37.724,ed:40:fe:65:30:6c, 2015-01-01 00:55:14.235, 0.994, 0.06, -0.034, 0.549, -3.479, -0.366, 132.166, -85.693, 97.339, -27.533, -15.520, 17.353, 25.15, 0.27905, -0.64511, -0.31992, -0.63522,
 12:42:37.727,f6:90:cc:01:6d:25, 2015-01-01 00:55:09.360, 0.717, -0.017, -0.678, -0.122, -1.526, -0.61, -178.456, -46.577, -22.006, -27.480, -14.187, 16.873, 28.23, 0.06033, 0.90237, -0.16776, 0.39224,
 12:42:37.727,f6:90:cc:01:6d:25, 2015-01-01 00:55:09.360, 0.718, -0.019, -0.672, 0, -2.441, -0.793, -178.473, -46.522, -21.995, -27.480, -14.187, 16.873, 28.23, 0.06033, 0.90237, -0.16776, 0.39224,
 12:42:37.728,ed:35:33:d3:6c:f8, 2015-01-01 00:55:09.435, 0.888, 0.119, 0.415, 0.122, 0.305, -3.662, 15.551, -65.836, 136.005, -21.800, -15.067, -16.667, 26.48, -0.23718, -0.54074, 0.09839, -0.80096,
 12:42:37.728,ed:35:33:d3:6c:f8, 2015-01-01 00:55:09.435, 0.891, 0.112, 0.417, 1.587, 0.61, -2.258, 15.694, -65.808, 135.884, -21.800, -15.067, -16.667, 26.48, -0.23718, -0.54074, 0.09839, -0.80096,
 12:42:37.748,e3:ca:2d:fd:e0:8c, 2015-01-01 00:55:09.010, 0.758, -0.091, -0.665, 0.061, 1.587, 0.305, -172.068, -48.724, -41.039, -28.093, -11.240, 11.253, 24.93, 0.08197, 0.86057, -0.29178, 0.40921,
 12:42:37.748,e3:ca:2d:fd:e0:8c, 2015-01-01 00:55:09.010, 0.757, -0.092, -0.657, 0.244, 0.854, 0.427, -172.051, -48.735, -41.067, -28.093, -11.240, 11.253, 24.93, 0.08197, 0.86057, -0.29178, 0.40921,
 12:42:37.770,ed:40:fe:65:30:6c, 2015-01-01 00:55:14.235, 0.994, 0.06, -0.032, 0.977, -5.371, -0.061, 132.946, -85.633, 96.57, -27.533, -15.520, 17.353, 25.15, 0.27045, -0.64969, -0.32123, -0.63361,
 12:42:37.770,ed:40:fe:65:30:6c, 2015-01-01 00:55:14.235, 0.994, 0.062, -0.036, 0.549, -7.08, 0, 134.044, -85.551, 95.488, -27.533, -15.520, 17.353, 25.15, 0.27045, -0.64969, -0.32123, -0.63361,
 12:42:37.770,e3:ca:2d:fd:e0:8c, 2015-01-01 00:55:09.010, 0.762, -0.093, -0.656, 0.366, 0.488, 0.488, -172.035, -48.741, -41.094, -28.227, -11.353, 11.473, 24.93, 0.08197, 0.86057, -0.29178, 0.40921,
 12:42:37.770,e3:ca:2d:fd:e0:8c, 2015-01-01 00:55:09.010, 0.767, -0.094, -0.659, 0.793, 0.61, 0.732, -172.002, -48.752, -41.127, -28.227, -11.353, 11.473, 24.93, 0.08197, 0.86057, -0.29178, 0.40921,
 12:42:37.795,ed:35:33:d3:6c:f8, 2015-01-01 00:55:09.435, 0.895, 0.113, 0.409, 3.052, 0.183, -2.625, 15.826, -65.781, 135.818, -21.800, -15.067, -16.667, 26.48, -0.23718, -0.54074, 0.09839, -0.80096,
 12:42:37.795,ed:35:33:d3:6c:f8, 2015-01-01 00:55:09.435, 0.901, 0.12, 0.402, 2.625, -0.183, -3.296, 16.002, -65.753, 135.72, -21.800, -15.067, -16.667, 26.48, -0.23718, -0.54074, 0.09839, -0.80096,
 12:42:37.796,f6:90:cc:01:6d:25, 2015-01-01 00:55:09.360, 0.719, -0.019, -0.675, 0.793, -2.625, -0.61, -178.473, -46.467, -21.984, -27.480, -14.187, 16.873, 28.23, 0.06033, 0.90237, -0.16776, 0.39224,
 12:42:37.796,f6:90:cc:01:6d:25, 2015-01-01 00:55:09.360, 0.716, -0.017, -0.677, 0.977, -2.93, -0.366, -178.467, -46.412, -21.973, -27.480, -14.187, 16.873, 28.23, 0.06033, 0.90237, -0.16776, 0.39224,
 12:42:37.815,ed:40:fe:65:30:6c, 2015-01-01 00:55:14.235, 0.998, 0.064, -0.042, 0.366, -7.324, 0.061, 135.253, -85.452, 94.29, -27.533, -15.520, 17.353, 25.15, 0.27045, -0.64969, -0.32123, -0.63361,
 12:42:37.815,ed:40:fe:65:30:6c, 2015-01-01 00:55:14.235, 0.999, 0.06, -0.052, 0.549, -7.751, 0.244, 136.478, -85.353, 93.082, -27.533, -15.520, 17.353, 25.15, 0.27045, -0.64969, -0.32123, -0.63361,
 12:42:37.816,f6:90:cc:01:6d:25, 2015-01-01 00:55:09.360, 0.712, -0.014, -0.678, -0.916, -4.089, 0, -178.478, -46.335, -21.978, -27.133, -14.153, 17.560, 28.23, 0.06033, 0.90237, -0.16776, 0.39224,
 12:42:37.816,f6:90:cc:01:6d:25, 2015-01-01 00:55:09.360, 0.709, -0.017, -0.688, -0.366, -3.967, -0.061, -178.5, -46.258, -21.984, -27.133, -14.153, 17.560, 28.23, 0.06033, 0.90237, -0.16776, 0.39224,
 12:42:37.818,ed:35:33:d3:6c:f8, 2015-01-01 00:55:09.435, 0.907, 0.118, 0.4, 2.869, -0.732, -3.418, 16.199, -65.737, 135.599, -21.800, -15.067, -16.667, 26.48, -0.23718, -0.54074, 0.09839, -0.80096,
 12:42:37.818,ed:35:33:d3:6c:f8, 2015-01-01 00:55:09.435, 0.918, 0.115, 0.388, 3.357, -1.099, -3.296, 16.408, -65.726, 135.467, -21.800, -15.067, -16.667, 26.48, -0.23718, -0.54074, 0.09839, -0.80096,
 12:42:37.837,ed:40:fe:65:30:6c, 2015-01-01 00:55:14.570, 1.001, 0.056, -0.064, 0.427, -8.545, 0.488, 137.785, -85.243, 91.807, -27.533, -15.520, 17.353, 25.15, 0.27045, -0.64969, -0.32123, -0.63361,
 12:42:37.837,ed:40:fe:65:30:6c, 2015-01-01 00:55:14.570, 1.002, 0.054, -0.075, 0.183, -8.118, 0.549, 139.092, -85.133, 90.522, -27.533, -15.520, 17.353, 25.15, 0.27045, -0.64969, -0.32123, -0.63361,
 12:42:37.838,e3:ca:2d:fd:e0:8c, 2015-01-01 00:55:09.010, 0.763, -0.096, -0.662, 1.099, 0.366, 0.793, -171.964, -48.752, -41.149, -28.227, -11.353, 11.473, 24.93, 0.08197, 0.86057, -0.29178, 0.40921,
 12:42:37.838,e3:ca:2d:fd:e0:8c, 2015-01-01 00:55:09.010, 0.756, -0.094, -0.663, 0.671, 0.366, 0.549, -171.936, -48.757, -41.177, -28.227, -11.353, 11.473, 24.93, 0.08197, 0.86057, -0.29178, 0.40921,
 12:42:37.840,f6:90:cc:01:6d:25, 2015-01-01 00:55:09.360, 0.708, -0.021, -0.693, -0.793, -3.906, -0.183, -178.517, -46.181, -21.995, -27.133, -14.153, 17.560, 28.23, 0.06033, 0.90237, -0.16776, 0.39224,
 12:42:37.840,f6:90:cc:01:6d:25, 2015-01-01 00:55:09.360, 0.706, -0.023, -0.692, -1.221, -3.662, -0.061, -178.539, -46.104, -22.006, -27.133, -14.153, 17.560, 28.23, 0.06033, 0.90237, -0.16776, 0.39224,
 12:42:37.861,e3:ca:2d:fd:e0:8c, 2015-01-01 00:55:09.010, 0.757, -0.094, -0.662, 0, 0.977, 0.366, -171.925, -48.774, -41.199, -28.227, -11.353, 11.473, 24.93, 0.08484, 0.86072, -0.29233, 0.40796,
 12:42:37.861,e3:ca:2d:fd:e0:8c, 2015-01-01 00:55:09.010, 0.757, -0.095, -0.66, 0.061, 1.648, 0.427, -171.909, -48.801, -41.226, -28.227, -11.353, 11.473, 24.93, 0.08484, 0.86072, -0.29233, 0.40796,
 12:42:37.863,ed:35:33:d3:6c:f8, 2015-01-01 00:55:09.435, 0.918, 0.119, 0.379, 3.723, -1.404, -2.808, 16.617, -65.731, 135.352, -21.800, -15.067, -16.667, 26.48, -0.23718, -0.54074, 0.09839, -0.80096,
 12:42:37.863,ed:35:33:d3:6c:f8, 2015-01-01 00:55:09.435, 0.921, 0.128, 0.372, 2.869, -1.709, -2.075, 16.798, -65.742, 135.28, -21.800, -15.067, -16.667, 26.48, -0.23718, -0.54074, 0.09839, -0.80096,
 12:42:37.882,ed:40:fe:65:30:6c, 2015-01-01 00:55:14.570, 1.004, 0.055, -0.083, 0.549, -7.202, 0.732, 140.284, -85.029, 89.352, -27.533, -15.520, 17.353, 25.15, 0.27045, -0.64969, -0.32123, -0.63361,
 12:42:37.882,ed:40:fe:65:30:6c, 2015-01-01 00:55:14.570, 1, 0.053, -0.088, 1.282, -6.165, 0.977, 141.356, -84.935, 88.308, -27.533, -15.520, 17.353, 25.15, 0.27045, -0.64969, -0.32123, -0.63361,
 12:42:37.885,f6:90:cc:01:6d:25, 2015-01-01 00:55:09.360, 0.706, -0.025, -0.693, -0.793, -2.93, 0.061, -178.561, -46.033, -22.033, -27.133, -14.153, 17.560, 28.23, 0.06033, 0.90237, -0.16776, 0.39224,
 12:42:37.885,f6:90:cc:01:6d:25, 2015-01-01 00:55:09.360, 0.705, -0.026, -0.695, 0.061, -1.953, 0.061, -178.572, -45.983, -22.055, -27.133, -14.153, 17.560, 28.23, 0.06033, 0.90237, -0.16776, 0.39224,
 12:42:37.904,ed:40:fe:65:30:6c, 2015-01-01 00:55:14.570, 1, 0.054, -0.086, 1.404, -4.822, 0.854, 142.267, -84.864, 87.429, -27.533, -15.520, 17.353, 25.15, 0.27045, -0.64969, -0.32123, -0.63361,
 12:42:37.904,ed:40:fe:65:30:6c, 2015-01-01 00:55:14.570, 1, 0.052, -0.083, 1.465, -3.296, 0.732, 142.954, -84.809, 86.77, -27.533, -15.520, 17.353, 25.15, 0.27045, -0.64969, -0.32123, -0.63361,
 12:42:37.906,e3:ca:2d:fd:e0:8c, 2015-01-01 00:55:09.010, 0.756, -0.099, -0.664, 0.183, 0.732, 0.183, -171.892, -48.823, -41.248, -28.227, -11.353, 11.473, 24.93, 0.08484, 0.86072, -0.29233, 0.40796,
 12:42:37.906,e3:ca:2d:fd:e0:8c, 2015-01-01 00:55:09.010, 0.759, -0.099, -0.665, -0.061, 0.916, 0.061, -171.881, -48.834, -41.259, -28.227, -11.353, 11.473, 24.93, 0.08484, 0.86072, -0.29233, 0.40796,
 12:42:37.907,ed:35:33:d3:6c:f8, 2015-01-01 00:55:09.435, 0.919, 0.121, 0.372, 2.686, -1.221, -0.916, 16.935, -65.764, 135.236, -21.693, -14.993, -15.227, 26.48, -0.23718, -0.54074, 0.09839, -0.80096,
 12:42:37.907,ed:35:33:d3:6c:f8, 2015-01-01 00:55:09.435, 0.911, 0.119, 0.372, 4.456, -0.61, 0.61, 17.023, -65.781, 135.253, -21.693, -14.993, -15.227, 26.48, -0.23718, -0.54074, 0.09839, -0.80096,
 12:42:37.928,e3:ca:2d:fd:e0:8c, 2015-01-01 00:55:09.390, 0.757, -0.097, -0.663, -0.122, 0.732, 0.122, -171.876, -48.845, -41.254, -28.227, -11.353, 11.473, 24.93, 0.08484, 0.86072, -0.29233, 0.40796,
 12:42:37.928,e3:ca:2d:fd:e0:8c, 2015-01-01 00:55:09.390, 0.756, -0.097, -0.663, -0.305, 0, 0.183, -171.876, -48.856, -41.259, -28.227, -11.353, 11.473, 24.93, 0.08484, 0.86072, -0.29233, 0.40796,
 12:42:37.932,ed:35:33:d3:6c:f8, 2015-01-01 00:55:09.435, 0.913, 0.124, 0.378, 4.883, 0.244, 1.282, 17.078, -65.797, 135.313, -21.693, -14.993, -15.227, 26.48, -0.24081, -0.54425, 0.08868, -0.79865,
 12:42:37.932,ed:35:33:d3:6c:f8, 2015-01-01 00:55:09.435, 0.912, 0.119, 0.378, 4.028, 0.793, 2.136, 17.095, -65.803, 135.412, -21.693, -14.993, -15.227, 26.48, -0.24081, -0.54425, 0.08868, -0.79865,
 12:42:37.952,f6:90:cc:01:6d:25, 2015-01-01 00:55:09.360, 0.704, -0.021, -0.692, 0.122, -1.709, 0.183, -178.566, -45.945, -22.083, -27.133, -14.153, 17.560, 28.23, 0.06348, 0.90436, -0.17126, 0.38559,
 12:42:37.952,f6:90:cc:01:6d:25, 2015-01-01 00:55:09.360, 0.705, -0.022, -0.691, 0.122, -1.526, 0.122, -178.555, -45.906, -22.115, -27.133, -14.153, 17.560, 28.23, 0.06348, 0.90436, -0.17126, 0.38559,
 12:42:37.972,ed:40:fe:65:30:6c, 2015-01-01 00:55:14.570, 1, 0.052, -0.084, 1.465, -2.869, 0.732, 143.503, -84.771, 86.243, -27.533, -15.520, 17.353, 25.15, 0.27045, -0.64969, -0.32123, -0.63361,
 12:42:37.972,ed:40:fe:65:30:6c, 2015-01-01 00:55:14.570, 0.999, 0.056, -0.085, 0.977, -2.563, 0.61, 143.987, -84.738, 85.765, -27.533, -15.520, 17.353, 25.15, 0.27045, -0.64969, -0.32123, -0.63361,
 12:42:37.972,e3:ca:2d:fd:e0:8c, 2015-01-01 00:55:09.390, 0.759, -0.095, -0.662, -0.488, 0, 0.061, -171.876, -48.851, -41.276, -28.227, -11.353, 11.473, 24.93, 0.08484, 0.86072, -0.29233, 0.40796,
 12:42:37.972,e3:ca:2d:fd:e0:8c, 2015-01-01 00:55:09.390, 0.76, -0.092, -0.662, -0.732, 0.305, 0.061, -171.887, -48.845, -41.292, -28.227, -11.353, 11.473, 24.93, 0.08484, 0.86072, -0.29233, 0.40796,
 12:42:37.975,f6:90:cc:01:6d:25, 2015-01-01 00:55:09.765, 0.703, -0.02, -0.692, -0.366, -1.16, 0.244, -178.55, -45.879, -22.148, -27.133, -14.153, 17.560, 28.23, 0.06348, 0.90436, -0.17126, 0.38559,
 12:42:37.975,f6:90:cc:01:6d:25, 2015-01-01 00:55:09.765, 0.705, -0.013, -0.694, -1.099, -0.916, 0.427, -178.555, -45.857, -22.17, -27.133, -14.153, 17.560, 28.23, 0.06348, 0.90436, -0.17126, 0.38559,
 12:42:37.976,ed:35:33:d3:6c:f8, 2015-01-01 00:55:09.435, 0.909, 0.118, 0.379, 3.906, 1.831, 1.099, 17.089, -65.792, 135.5, -21.693, -14.993, -15.227, 26.48, -0.24081, -0.54425, 0.08868, -0.79865,
 12:42:37.976,ed:35:33:d3:6c:f8, 2015-01-01 00:55:09.435, 0.911, 0.118, 0.385, 3.357, 1.831, -0.061, 17.117, -65.764, 135.549, -21.693, -14.993, -15.227, 26.48, -0.24081, -0.54425, 0.08868, -0.79865,
 12:42:37.994,ed:40:fe:65:30:6c, 2015-01-01 00:55:14.570, 1.001, 0.057, -0.084, 0.549, -2.136, 0.305, 144.377, -84.699, 85.38, -27.533, -15.520, 17.353, 25.15, 0.27045, -0.64969, -0.32123, -0.63361,
 12:42:37.994,ed:40:fe:65:30:6c, 2015-01-01 00:55:14.570, 1.001, 0.056, -0.082, 0.366, -2.319, 0.122, 144.695, -84.666, 85.051, -27.533, -15.520, 17.353, 25.15, 0.27045, -0.64969, -0.32123, -0.63361,
 12:42:37.996,f6:90:cc:01:6d:25, 2015-01-01 00:55:09.765, 0.705, -0.01, -0.696, -1.709, -1.099, 0.366, -178.566, -45.835, -22.203, -27.133, -14.153, 17.560, 28.23, 0.06348, 0.90436, -0.17126, 0.38559,
 12:42:37.996,f6:90:cc:01:6d:25, 2015-01-01 00:55:09.765, 0.704, -0.015, -0.699, -1.709, -1.099, 0.122, -178.594, -45.807, -22.236, -27.133, -14.153, 17.560, 28.23, 0.06348, 0.90436, -0.17126, 0.38559,
 12:42:38.018,e3:ca:2d:fd:e0:8c, 2015-01-01 00:55:09.390, 0.762, -0.091, -0.666, -1.038, 0.305, 0, -171.898, -48.851, -41.309, -28.227, -11.353, 11.473, 24.93, 0.08484, 0.86072, -0.29233, 0.40796,
 12:42:38.018,e3:ca:2d:fd:e0:8c, 2015-01-01 00:55:09.390, 0.766, -0.091, -0.667, -1.404, 0.854, -0.061, -171.92, -48.856, -41.331, -28.227, -11.353, 11.473, 24.93, 0.08484, 0.86072, -0.29233, 0.40796,
 12:42:38.020,ed:35:33:d3:6c:f8, 2015-01-01 00:55:09.770, 0.912, 0.119, 0.39, 3.235, 2.197, -1.709, 17.194, -65.726, 135.527, -21.693, -14.993, -15.227, 26.48, -0.24081, -0.54425, 0.08868, -0.79865,
 12:42:38.020,ed:35:33:d3:6c:f8, 2015-01-01 00:55:09.770, 0.911, 0.119, 0.391, 3.235, 1.221, -2.319, 17.32, -65.687, 135.45, -21.693, -14.993, -15.227, 26.48, -0.24081, -0.54425, 0.08868, -0.79865,
 12:42:38.041,f6:90:cc:01:6d:25, 2015-01-01 00:55:09.765, 0.705, -0.019, -0.7, -1.953, -0.916, -0.122, -178.632, -45.786, -22.258, -27.133, -14.153, 17.560, 28.23, 0.06348, 0.90436, -0.17126, 0.38559,
 12:42:38.041,f6:90:cc:01:6d:25, 2015-01-01 00:55:09.765, 0.707, -0.016, -0.697, -2.747, -1.465, -0.366, -178.676, -45.758, -22.275, -27.133, -14.153, 17.560, 28.23, 0.06348, 0.90436, -0.17126, 0.38559,
 12:42:38.062,ed:40:fe:65:30:6c, 2015-01-01 00:55:14.570, 1, 0.051, -0.083, 0.183, -2.869, 0.061, 145.031, -84.622, 84.705, -27.533, -15.520, 17.353, 25.15, 0.27045, -0.64969, -0.32123, -0.63361,
 12:42:38.062,ed:40:fe:65:30:6c, 2015-01-01 00:55:14.570, 0.996, 0.05, -0.083, -0.549, -2.991, -0.061, 145.382, -84.573, 84.337, -27.533, -15.520, 17.353, 25.15, 0.27045, -0.64969, -0.32123, -0.63361,
 12:42:38.064,e3:ca:2d:fd:e0:8c, 2015-01-01 00:55:09.390, 0.766, -0.092, -0.666, -1.587, 1.648, -0.183, -171.947, -48.873, -41.358, -28.227, -11.353, 11.473, 24.93, 0.08484, 0.86072, -0.29233, 0.40796,
 12:42:38.064,e3:ca:2d:fd:e0:8c, 2015-01-01 00:55:09.390, 0.761, -0.091, -0.661, -1.343, 1.77, -0.122, -171.974, -48.9, -41.369, -28.227, -11.353, 11.473, 24.93, 0.08484, 0.86072, -0.29233, 0.40796,
 12:42:38.066,ed:35:33:d3:6c:f8, 2015-01-01 00:55:09.770, 0.9, 0.116, 0.392, 2.93, 0.366, -2.747, 17.474, -65.665, 135.346, -21.693, -14.993, -15.227, 26.48, -0.24081, -0.54425, 0.08868, -0.79865,
 12:42:38.066,ed:35:33:d3:6c:f8, 2015-01-01 00:55:09.770, 0.894, 0.12, 0.394, 2.563, 0.061, -4.211, 17.666, -65.643, 135.198, -21.693, -14.993, -15.227, 26.48, -0.24081, -0.54425, 0.08868, -0.79865,
 12:42:38.085,ed:40:fe:65:30:6c, 2015-01-01 00:55:14.570, 0.994, 0.054, -0.079, -1.16, -2.93, -0.366, 145.684, -84.523, 84.007, -27.360, -15.820, 18.347, 25.15, 0.27045, -0.64969, -0.32123, -0.63361,
 12:42:38.085,ed:40:fe:65:30:6c, 2015-01-01 00:55:14.570, 0.992, 0.056, -0.073, -1.343, -2.991, -0.671, 145.909, -84.468, 83.738, -27.360, -15.820, 18.347, 25.15, 0.27045, -0.64969, -0.32123, -0.63361,
 12:42:38.087,f6:90:cc:01:6d:25, 2015-01-01 00:55:09.765, 0.708, -0.014, -0.689, -3.296, -1.709, -0.427, -178.742, -45.725, -22.286, -27.133, -14.153, 17.560, 28.23, 0.06348, 0.90436, -0.17126, 0.38559,
 12:42:38.087,f6:90:cc:01:6d:25, 2015-01-01 00:55:09.765, 0.707, -0.016, -0.679, -2.686, -1.831, -0.488, -178.808, -45.687, -22.291, -27.133, -14.153, 17.560, 28.23, 0.06348, 0.90436, -0.17126, 0.38559,
 12:42:38.131,e3:ca:2d:fd:e0:8c, 2015-01-01 00:55:09.390, 0.758, -0.091, -0.655, -1.221, 1.343, -0.122, -171.996, -48.933, -41.385, -28.227, -11.353, 11.473, 24.93, 0.08484, 0.86072, -0.29233, 0.40796,
 12:42:38.131,e3:ca:2d:fd:e0:8c, 2015-01-01 00:55:09.390, 0.757, -0.092, -0.652, -1.648, 0.793, -0.244, -172.024, -48.955, -41.396, -28.227, -11.353, 11.473, 24.93, 0.08484, 0.86072, -0.29233, 0.40796,
 12:42:38.133,ed:35:33:d3:6c:f8, 2015-01-01 00:55:09.770, 0.897, 0.123, 0.394, 2.258, 0.122, -5.493, 17.908, -65.616, 134.984, -21.693, -14.993, -15.227, 26.48, -0.24081, -0.54425, 0.08868, -0.79865,
 12:42:38.133,ed:35:33:d3:6c:f8, 2015-01-01 00:55:09.770, 0.896, 0.131, 0.395, 4.517, 0.488, -6.042, 18.204, -65.577, 134.742, -21.693, -14.993, -15.227, 26.48, -0.24081, -0.54425, 0.08868, -0.79865,
 12:42:38.135,ed:35:33:d3:6c:f8, 2015-01-01 00:55:09.770, 0.905, 0.137, 0.394, 0.427, 0.061, -5.371, 18.474, -65.539, 134.478, -21.693, -14.993, -15.227, 26.48, -0.24081, -0.54425, 0.08868, -0.79865,
 12:42:38.135,ed:35:33:d3:6c:f8, 2015-01-01 00:55:09.770, 0.91, 0.136, 0.386, -0.305, -0.366, -4.761, 18.677, -65.506, 134.236, -21.693, -14.993, -15.227, 26.48, -0.24081, -0.54425, 0.08868, -0.79865,
 12:42:38.152,ed:40:fe:65:30:6c, 2015-01-01 00:55:14.570, 0.994, 0.056, -0.073, -1.709, -2.747, -0.854, 146.069, -84.413, 83.529, -27.360, -15.820, 18.347, 25.15, 0.27045, -0.64969, -0.32123, -0.63361,
 12:42:38.152,ed:40:fe:65:30:6c, 2015-01-01 00:55:14.570, 0.997, 0.056, -0.076, -1.648, -2.441, -0.854, 146.168, -84.364, 83.386, -27.360, -15.820, 18.347, 25.15, 0.27045, -0.64969, -0.32123, -0.63361,
 12:42:38.153,e3:ca:2d:fd:e0:8c, 2015-01-01 00:55:09.390, 0.759, -0.093, -0.651, -1.77, 0.061, -0.183, -172.062, -48.966, -41.402, -28.167, -11.180, 10.913, 24.93, 0.08484, 0.86072, -0.29233, 0.40796,
 12:42:38.153,e3:ca:2d:fd:e0:8c, 2015-01-01 00:55:09.390, 0.759, -0.094, -0.652, -1.282, -0.732, -0.122, -172.095, -48.961, -41.391, -28.167, -11.180, 10.913, 24.93, 0.08484, 0.86072, -0.29233, 0.40796,
 12:42:38.154,f6:90:cc:01:6d:25, 2015-01-01 00:55:09.765, 0.707, -0.014, -0.677, -2.319, -1.77, -0.488, -178.868, -45.654, -22.286, -27.133, -14.153, 17.560, 28.23, 0.06348, 0.90436, -0.17126, 0.38559,
 12:42:38.154,f6:90:cc:01:6d:25, 2015-01-01 00:55:09.765, 0.704, -0.015, -0.683, -2.014, -1.343, -0.427, -178.923, -45.621, -22.286, -27.133, -14.153, 17.560, 28.23, 0.06348, 0.90436, -0.17126, 0.38559,
 12:42:38.176,ed:40:fe:65:30:6c, 2015-01-01 00:55:14.570, 0.999, 0.055, -0.085, -1.16, -2.686, -0.732, 146.277, -84.315, 83.238, -27.360, -15.820, 18.347, 25.15, 0.2662, -0.65936, -0.32565, -0.62305,
 12:42:38.176,ed:40:fe:65:30:6c, 2015-01-01 00:55:14.570, 0.999, 0.056, -0.092, -0.916, -2.258, -0.61, 146.398, -84.271, 83.095, -27.360, -15.820, 18.347, 25.15, 0.2662, -0.65936, -0.32565, -0.62305,
 12:42:38.177,f6:90:cc:01:6d:25, 2015-01-01 00:55:09.765, 0.701, -0.016, -0.688, -1.16, -1.038, -0.305, -178.962, -45.599, -22.275, -27.133, -14.153, 17.560, 28.23, 0.06348, 0.90436, -0.17126, 0.38559,
 12:42:38.177,f6:90:cc:01:6d:25, 2015-01-01 00:55:09.765, 0.703, -0.014, -0.695, -0.549, -0.366, -0.183, -178.984, -45.582, -22.258, -27.133, -14.153, 17.560, 28.23, 0.06348, 0.90436, -0.17126, 0.38559,
 12:42:38.179,ed:35:33:d3:6c:f8, 2015-01-01 00:55:09.770, 0.91, 0.14, 0.381, -1.221, -1.099, -3.723, 18.842, -65.495, 134.039, -21.693, -14.993, -15.227, 26.48, -0.24081, -0.54425, 0.08868, -0.79865,
 12:42:38.179,ed:35:33:d3:6c:f8, 2015-01-01 00:55:09.770, 0.912, 0.146, 0.384, -1.221, -0.732, -3.296, 18.973, -65.495, 133.857, -21.693, -14.993, -15.227, 26.48, -0.24081, -0.54425, 0.08868, -0.79865,
 12:42:38.200,e3:ca:2d:fd:e0:8c, 2015-01-01 00:55:09.390, 0.761, -0.092, -0.655, -0.854, -1.221, -0.244, -172.123, -48.944, -41.375, -28.167, -11.180, 10.913, 24.93, 0.08484, 0.86072, -0.29233, 0.40796,
 12:42:38.200,e3:ca:2d:fd:e0:8c, 2015-01-01 00:55:09.390, 0.764, -0.092, -0.661, -0.671, -1.282, -0.183, -172.15, -48.917, -41.358, -28.167, -11.180, 10.913, 24.93, 0.08484, 0.86072, -0.29233, 0.40796,
 12:42:38.219,ed:40:fe:65:30:6c, 2015-01-01 00:55:14.570, 0.999, 0.061, -0.095, -0.61, -1.709, -0.427, 146.503, -84.232, 82.969, -27.360, -15.820, 18.347, 25.15, 0.2662, -0.65936, -0.32565, -0.62305,
 12:42:38.219,ed:40:fe:65:30:6c, 2015-01-01 00:55:14.570, 1, 0.061, -0.094, -0.305, -1.404, -0.183, 146.613, -84.205, 82.853, -27.360, -15.820, 18.347, 25.15, 0.2662, -0.65936, -0.32565, -0.62305,
 12:42:38.221,e3:ca:2d:fd:e0:8c, 2015-01-01 00:55:09.390, 0.763, -0.091, -0.666, -0.427, -0.977, -0.061, -172.167, -48.895, -41.353, -28.167, -11.180, 10.913, 24.93, 0.08762, 0.85965, -0.29425, 0.40823,
 12:42:38.221,e3:ca:2d:fd:e0:8c, 2015-01-01 00:55:09.390, 0.76, -0.09, -0.666, -0.305, -0.854, -0.122, -172.178, -48.873, -41.358, -28.167, -11.180, 10.913, 24.93, 0.08762, 0.85965, -0.29425, 0.40823,
 12:42:38.222,f6:90:cc:01:6d:25, 2015-01-01 00:55:09.765, 0.702, -0.012, -0.7, -0.183, -0.061, 0, -178.989, -45.582, -22.253, -27.133, -14.153, 17.560, 28.23, 0.06348, 0.90436, -0.17126, 0.38559,
 12:42:38.222,f6:90:cc:01:6d:25, 2015-01-01 00:55:09.765, 0.701, -0.01, -0.701, -0.122, 0, 0, -178.989, -45.582, -22.258, -27.133, -14.153, 17.560, 28.23, 0.06348, 0.90436, -0.17126, 0.38559,
 12:42:38.224,ed:35:33:d3:6c:f8, 2015-01-01 00:55:09.770, 0.913, 0.142, 0.383, -1.038, -0.122, -2.563, 19.072, -65.484, 133.704, -21.353, -15.547, -16.540, 26.48, -0.24081, -0.54425, 0.08868, -0.79865,
 12:42:38.224,ed:35:33:d3:6c:f8, 2015-01-01 00:55:09.770, 0.909, 0.141, 0.382, -0.671, 0, -2.014, 19.155, -65.473, 133.572, -21.353, -15.547, -16.540, 26.48, -0.24081, -0.54425, 0.08868, -0.79865,
 12:42:38.242,ed:40:fe:65:30:6c, 2015-01-01 00:55:14.995, 1, 0.059, -0.097, -0.061, -1.16, -0.183, 146.706, -84.183, 82.755, -27.360, -15.820, 18.347, 25.15, 0.2662, -0.65936, -0.32565, -0.62305,
 12:42:38.242,ed:40:fe:65:30:6c, 2015-01-01 00:55:14.995, 0.998, 0.06, -0.096, -0.122, -0.977, -0.183, 146.783, -84.161, 82.667, -27.360, -15.820, 18.347, 25.15, 0.2662, -0.65936, -0.32565, -0.62305,
 12:42:38.244,f6:90:cc:01:6d:25, 2015-01-01 00:55:09.765, 0.7, -0.009, -0.702, 0, 0.366, 0.122, -178.984, -45.582, -22.258, -26.527, -14.533, 17.840, 28.23, 0.06348, 0.90436, -0.17126, 0.38559,
 12:42:38.244,f6:90:cc:01:6d:25, 2015-01-01 00:55:09.765, 0.701, -0.009, -0.704, 0, 0.488, 0.061, -178.984, -45.588, -22.275, -26.527, -14.533, 17.840, 28.23, 0.06348, 0.90436, -0.17126, 0.38559,
 12:42:38.267,e3:ca:2d:fd:e0:8c, 2015-01-01 00:55:09.390, 0.76, -0.09, -0.667, -0.305, -0.61, -0.244, -172.183, -48.856, -41.358, -28.167, -11.180, 10.913, 24.93, 0.08762, 0.85965, -0.29425, 0.40823,
 12:42:38.267,e3:ca:2d:fd:e0:8c, 2015-01-01 00:55:09.390, 0.76, -0.087, -0.666, -0.366, 0.061, -0.183, -172.2, -48.845, -41.347, -28.167, -11.180, 10.913, 24.93, 0.08762, 0.85965, -0.29425, 0.40823,
 12:42:38.268,ed:35:33:d3:6c:f8, 2015-01-01 00:55:09.770, 0.906, 0.143, 0.386, 0.183, -0.183, -2.014, 19.237, -65.462, 133.429, -21.353, -15.547, -16.540, 26.48, -0.24481, -0.54523, 0.0816, -0.79752,
 12:42:38.268,ed:35:33:d3:6c:f8, 2015-01-01 00:55:09.770, 0.905, 0.14, 0.387, 0.366, -0.305, -2.075, 19.33, -65.457, 133.303, -21.353, -15.547, -16.540, 26.48, -0.24481, -0.54523, 0.0816, -0.79752,
 12:42:38.288,e3:ca:2d:fd:e0:8c, 2015-01-01 00:55:09.745, 0.758, -0.086, -0.666, -0.122, 0.366, -0.061, -172.205, -48.851, -41.342, -28.167, -11.180, 10.913, 24.93, 0.08762, 0.85965, -0.29425, 0.40823,
 12:42:38.288,e3:ca:2d:fd:e0:8c, 2015-01-01 00:55:09.745, 0.757, -0.086, -0.666, -0.122, 0.671, -0.061, -172.211, -48.856, -41.347, -28.167, -11.180, 10.913, 24.93, 0.08762, 0.85965, -0.29425, 0.40823,
 12:42:38.288,ed:40:fe:65:30:6c, 2015-01-01 00:55:14.995, 0.998, 0.061, -0.093, -0.305, -1.038, -0.183, 146.86, -84.139, 82.579, -27.360, -15.820, 18.347, 25.15, 0.2662, -0.65936, -0.32565, -0.62305,
 12:42:38.288,ed:40:fe:65:30:6c, 2015-01-01 00:55:14.995, 0.996, 0.06, -0.092, -0.488, -1.221, -0.244, 146.937, -84.111, 82.485, -27.360, -15.820, 18.347, 25.15, 0.2662, -0.65936, -0.32565, -0.62305,
 12:42:38.289,f6:90:cc:01:6d:25, 2015-01-01 00:55:09.765, 0.702, -0.008, -0.701, -0.61, 0.122, 0, -178.989, -45.588, -22.302, -26.527, -14.533, 17.840, 28.23, 0.06348, 0.90436, -0.17126, 0.38559,
 12:42:38.289,f6:90:cc:01:6d:25, 2015-01-01 00:55:09.765, 0.703, -0.007, -0.698, -0.854, -0.061, -0.061, -179.006, -45.588, -22.335, -26.527, -14.533, 17.840, 28.23, 0.06348, 0.90436, -0.17126, 0.38559,
 12:42:38.309,ed:40:fe:65:30:6c, 2015-01-01 00:55:14.995, 0.995, 0.06, -0.091, -0.427, -1.343, -0.305, 147.019, -84.084, 82.386, -27.360, -15.820, 18.347, 25.15, 0.2662, -0.65936, -0.32565, -0.62305,
 12:42:38.309,ed:40:fe:65:30:6c, 2015-01-01 00:55:14.995, 0.994, 0.06, -0.087, -0.488, -1.099, -0.366, 147.074, -84.056, 82.315, -27.360, -15.820, 18.347, 25.15, 0.2662, -0.65936, -0.32565, -0.62305,
 12:42:38.313,ed:35:33:d3:6c:f8, 2015-01-01 00:55:10.085, 0.901, 0.141, 0.387, 0.427, -0.244, -2.197, 19.435, -65.451, 133.171, -21.353, -15.547, -16.540, 26.48, -0.24481, -0.54523, 0.0816, -0.79752,
 12:42:38.313,ed:35:33:d3:6c:f8, 2015-01-01 00:55:10.085, 0.897, 0.142, 0.385, 0.244, -0.671, -2.319, 19.545, -65.451, 133.028, -21.353, -15.547, -16.540, 26.48, -0.24481, -0.54523, 0.0816, -0.79752,
 12:42:38.334,e3:ca:2d:fd:e0:8c, 2015-01-01 00:55:09.745, 0.758, -0.088, -0.664, -0.244, 1.282, 0, -172.211, -48.867, -41.358, -28.167, -11.180, 10.913, 24.93, 0.08762, 0.85965, -0.29425, 0.40823,
 12:42:38.334,e3:ca:2d:fd:e0:8c, 2015-01-01 00:55:09.745, 0.758, -0.088, -0.661, -0.122, 1.587, 0.061, -172.216, -48.895, -41.364, -28.167, -11.180, 10.913, 24.93, 0.08762, 0.85965, -0.29425, 0.40823,
 12:42:38.336,ed:35:33:d3:6c:f8, 2015-01-01 00:55:10.085, 0.901, 0.138, 0.388, 2.014, -0.671, -1.648, 19.66, -65.451, 132.907, -21.353, -15.547, -16.540, 26.48, -0.24481, -0.54523, 0.0816, -0.79752,
 12:42:38.336,ed:35:33:d3:6c:f8, 2015-01-01 00:55:10.085, 0.9, 0.15, 0.393, 1.038, -0.061, -1.831, 19.764, -65.446, 132.819, -21.353, -15.547, -16.540, 26.48, -0.24481, -0.54523, 0.0816, -0.79752,
 12:42:38.354,ed:40:fe:65:30:6c, 2015-01-01 00:55:14.995, 0.995, 0.062, -0.085, -0.305, -1.099, -0.183, 147.134, -84.034, 82.249, -27.360, -15.820, 18.347, 25.15, 0.2662, -0.65936, -0.32565, -0.62305,
 12:42:38.354,ed:40:fe:65:30:6c, 2015-01-01 00:55:14.995, 0.995, 0.062, -0.086, -0.061, -1.221, -0.061, 147.228, -84.012, 82.15, -27.360, -15.820, 18.347, 25.15, 0.2662, -0.65936, -0.32565, -0.62305,
 12:42:38.356,f6:90:cc:01:6d:25, 2015-01-01 00:55:09.765, 0.703, -0.009, -0.695, -0.671, -0.488, -0.244, -179.022, -45.577, -22.357, -26.527, -14.533, 17.840, 28.23, 0.06717, 0.90503, -0.17523, 0.38159,
 12:42:38.356,f6:90:cc:01:6d:25, 2015-01-01 00:55:09.765, 0.704, -0.009, -0.689, -0.732, -1.282, -0.244, -179.044, -45.555, -22.374, -26.527, -14.533, 17.840, 28.23, 0.06717, 0.90503, -0.17523, 0.38159,
 12:42:38.379,f6:90:cc:01:6d:25, 2015-01-01 00:55:10.165, 0.704, -0.008, -0.686, -0.61, -1.587, -0.122, -179.061, -45.522, -22.401, -26.527, -14.533, 17.840, 28.23, 0.06717, 0.90503, -0.17523, 0.38159,
 12:42:38.379,f6:90:cc:01:6d:25, 2015-01-01 00:55:10.165, 0.704, -0.009, -0.686, -0.366, -1.648, -0.122, -179.077, -45.489, -22.429, -26.527, -14.533, 17.840, 28.23, 0.06717, 0.90503, -0.17523, 0.38159,
 12:42:38.379,e3:ca:2d:fd:e0:8c, 2015-01-01 00:55:09.745, 0.759, -0.087, -0.656, 0.183, 1.404, 0.183, -172.211, -48.917, -41.369, -28.167, -11.180, 10.913, 24.93, 0.08762, 0.85965, -0.29425, 0.40823,
 12:42:38.379,e3:ca:2d:fd:e0:8c, 2015-01-01 00:55:09.745, 0.762, -0.089, -0.651, 0.366, 1.16, 0.305, -172.2, -48.944, -41.375, -28.167, -11.180, 10.913, 24.93, 0.08762, 0.85965, -0.29425, 0.40823,
 12:42:38.381,ed:35:33:d3:6c:f8, 2015-01-01 00:55:10.085, 0.903, 0.148, 0.39, 0.549, 0.427, -1.099, 19.841, -65.435, 132.77, -21.353, -15.547, -16.540, 26.48, -0.24481, -0.54523, 0.0816, -0.79752,
 12:42:38.381,ed:35:33:d3:6c:f8, 2015-01-01 00:55:10.085, 0.906, 0.148, 0.386, 0.183, -0.061, -0.732, 19.885, -65.424, 132.748, -21.353, -15.547, -16.540, 26.48, -0.24481, -0.54523, 0.0816, -0.79752,
 12:42:38.402,f6:90:cc:01:6d:25, 2015-01-01 00:55:10.165, 0.703, -0.01, -0.689, -0.305, -1.343, -0.122, -179.088, -45.456, -22.445, -26.527, -14.533, 17.840, 28.23, 0.06717, 0.90503, -0.17523, 0.38159,
 12:42:38.402,f6:90:cc:01:6d:25, 2015-01-01 00:55:10.165, 0.704, -0.012, -0.696, -0.366, -0.977, -0.061, -179.099, -45.434, -22.445, -26.527, -14.533, 17.840, 28.23, 0.06717, 0.90503, -0.17523, 0.38159,
 12:42:38.422,e3:ca:2d:fd:e0:8c, 2015-01-01 00:55:09.745, 0.766, -0.091, -0.653, 0.427, 0.793, 0.244, -172.183, -48.961, -41.391, -28.167, -11.180, 10.913, 24.93, 0.08762, 0.85965, -0.29425, 0.40823,
 12:42:38.422,e3:ca:2d:fd:e0:8c, 2015-01-01 00:55:09.745, 0.767, -0.093, -0.658, 0.244, 0.488, 0.122, -172.172, -48.972, -41.391, -28.167, -11.180, 10.913, 24.93, 0.08762, 0.85965, -0.29425, 0.40823,
 12:42:38.423,ed:40:fe:65:30:6c, 2015-01-01 00:55:14.995, 0.997, 0.061, -0.089, 0, -1.16, 0, 147.327, -83.99, 82.046, -27.360, -15.820, 18.347, 25.15, 0.2662, -0.65936, -0.32565, -0.62305,
 12:42:38.423,ed:40:fe:65:30:6c, 2015-01-01 00:55:14.995, 0.998, 0.059, -0.091, -0.061, -0.61, 0.061, 147.393, -83.974, 81.991, -27.360, -15.820, 18.347, 25.15, 0.2662, -0.65936, -0.32565, -0.62305,
 12:42:38.426,ed:35:33:d3:6c:f8, 2015-01-01 00:55:10.085, 0.906, 0.147, 0.388, 0, -0.549, -0.427, 19.924, -65.424, 132.737, -21.353, -15.547, -16.540, 26.48, -0.24481, -0.54523, 0.0816, -0.79752,
 12:42:38.426,ed:35:33:d3:6c:f8, 2015-01-01 00:55:10.085, 0.901, 0.145, 0.396, 0.366, -1.77, -0.488, 19.968, -65.446, 132.715, -21.353, -15.547, -16.540, 26.48, -0.24481, -0.54523, 0.0816, -0.79752,
 12:42:38.467,ed:40:fe:65:30:6c, 2015-01-01 00:55:14.995, 0.995, 0.058, -0.094, -0.122, -0.305, 0.122, 147.431, -83.969, 81.958, -27.000, -15.393, 18.940, 25.15, 0.2662, -0.65936, -0.32565, -0.62305,
 12:42:38.467,ed:40:fe:65:30:6c, 2015-01-01 00:55:14.995, 0.995, 0.06, -0.088, -0.061, -0.122, 0.183, 147.458, -83.969, 81.931, -27.000, -15.393, 18.940, 25.15, 0.2662, -0.65936, -0.32565, -0.62305,
 12:42:38.469,e3:ca:2d:fd:e0:8c, 2015-01-01 00:55:09.745, 0.767, -0.093, -0.664, 0.244, 0.61, 0.122, -172.161, -48.977, -41.396, -28.167, -11.180, 10.913, 24.93, 0.08762, 0.85965, -0.29425, 0.40823,
 12:42:38.469,e3:ca:2d:fd:e0:8c, 2015-01-01 00:55:09.745, 0.762, -0.09, -0.661, 0.305, 0.732, 0.122, -172.15, -48.988, -41.402, -28.167, -11.180, 10.913, 24.93, 0.08762, 0.85965, -0.29425, 0.40823,
 12:42:38.470,f6:90:cc:01:6d:25, 2015-01-01 00:55:10.165, 0.7, -0.011, -0.701, -0.305, -0.549, 0.061, -179.105, -45.417, -22.445, -26.527, -14.533, 17.840, 28.23, 0.06717, 0.90503, -0.17523, 0.38159,
 12:42:38.470,f6:90:cc:01:6d:25, 2015-01-01 00:55:10.165, 0.702, -0.012, -0.699, 0, -0.671, 0.122, -179.105, -45.406, -22.445, -26.527, -14.533, 17.840, 28.23, 0.06717, 0.90503, -0.17523, 0.38159,
 12:42:38.471,ed:35:33:d3:6c:f8, 2015-01-01 00:55:10.085, 0.901, 0.148, 0.389, 0.549, -2.319, 0.061, 20.023, -65.479, 132.665, -21.353, -15.547, -16.540, 26.48, -0.24481, -0.54523, 0.0816, -0.79752,
 12:42:38.471,ed:35:33:d3:6c:f8, 2015-01-01 00:55:10.085, 0.905, 0.147, 0.389, -0.305, -0.916, 0.916, 20.034, -65.511, 132.632, -21.353, -15.547, -16.540, 26.48, -0.24481, -0.54523, 0.0816, -0.79752,
 12:42:38.491,e3:ca:2d:fd:e0:8c, 2015-01-01 00:55:09.745, 0.759, -0.092, -0.66, 0.366, 0.183, 0.122, -172.139, -48.999, -41.402, -28.253, -11.647, 11.387, 24.93, 0.08762, 0.85965, -0.29425, 0.40823,
 12:42:38.491,e3:ca:2d:fd:e0:8c, 2015-01-01 00:55:09.745, 0.76, -0.092, -0.659, 0.366, -0.061, 0.183, -172.134, -48.999, -41.391, -28.253, -11.647, 11.387, 24.93, 0.08762, 0.85965, -0.29425, 0.40823,
 12:42:38.492,f6:90:cc:01:6d:25, 2015-01-01 00:55:10.165, 0.701, -0.014, -0.696, 0.244, -0.977, 0.122, -179.105, -45.39, -22.451, -26.527, -14.533, 17.840, 28.23, 0.06717, 0.90503, -0.17523, 0.38159,
 12:42:38.492,f6:90:cc:01:6d:25, 2015-01-01 00:55:10.165, 0.699, -0.015, -0.697, 0.122, -0.793, 0.183, -179.094, -45.368, -22.456, -26.527, -14.533, 17.840, 28.23, 0.06717, 0.90503, -0.17523, 0.38159,
 12:42:38.493,ed:35:33:d3:6c:f8, 2015-01-01 00:55:10.085, 0.908, 0.146, 0.384, -0.977, -0.305, 1.526, 19.984, -65.528, 132.649, -21.280, -15.933, -16.953, 26.48, -0.24481, -0.54523, 0.0816, -0.79752,
 12:42:38.493,ed:35:33:d3:6c:f8, 2015-01-01 00:55:10.085, 0.911, 0.143, 0.382, -1.16, -0.305, 1.77, 19.907, -65.544, 132.693, -21.280, -15.933, -16.953, 26.48, -0.24481, -0.54523, 0.0816, -0.79752,
 12:42:38.511,ed:40:fe:65:30:6c, 2015-01-01 00:55:14.995, 0.995, 0.058, -0.086, 0.061, -0.183, 0.305, 147.502, -83.963, 81.892, -27.000, -15.393, 18.940, 25.15, 0.2662, -0.65936, -0.32565, -0.62305,
 12:42:38.511,ed:40:fe:65:30:6c, 2015-01-01 00:55:14.995, 0.999, 0.057, -0.091, 0.061, -0.244, 0.427, 147.579, -83.963, 81.826, -27.000, -15.393, 18.940, 25.15, 0.2662, -0.65936, -0.32565, -0.62305,
 12:42:38.535,ed:40:fe:65:30:6c, 2015-01-01 00:55:14.995, 0.999, 0.058, -0.096, 0, -0.305, 0.549, 147.678, -83.963, 81.722, -27.000, -15.393, 18.940, 25.15, 0.26385, -0.66168, -0.32635, -0.62125,
 12:42:38.535,ed:40:fe:65:30:6c, 2015-01-01 00:55:14.995, 0.999, 0.058, -0.098, 0.061, -0.305, 0.488, 147.783, -83.963, 81.612, -27.000, -15.393, 18.940, 25.15, 0.26385, -0.66168, -0.32635, -0.62125,
 12:42:38.535,e3:ca:2d:fd:e0:8c, 2015-01-01 00:55:09.745, 0.763, -0.091, -0.661, 0.366, 0, 0.122, -172.123, -48.999, -41.38, -28.253, -11.647, 11.387, 24.93, 0.08762, 0.85965, -0.29425, 0.40823,
 12:42:38.535,e3:ca:2d:fd:e0:8c, 2015-01-01 00:55:09.745, 0.763, -0.091, -0.661, 0.122, 0.122, 0.061, -172.112, -48.999, -41.369, -28.253, -11.647, 11.387, 24.93, 0.08762, 0.85965, -0.29425, 0.40823,
 12:42:38.538,ed:35:33:d3:6c:f8, 2015-01-01 00:55:10.085, 0.912, 0.142, 0.38, -1.282, -0.122, 1.831, 19.819, -65.555, 132.77, -21.280, -15.933, -16.953, 26.48, -0.24481, -0.54523, 0.0816, -0.79752,
 12:42:38.538,ed:35:33:d3:6c:f8, 2015-01-01 00:55:10.085, 0.91, 0.138, 0.376, -1.892, 0.488, 1.709, 19.72, -65.566, 132.88, -21.280, -15.933, -16.953, 26.48, -0.24481, -0.54523, 0.0816, -0.79752,
 12:42:38.559,f6:90:cc:01:6d:25, 2015-01-01 00:55:10.165, 0.699, -0.012, -0.702, 0.244, -0.427, 0.305, -179.088, -45.357, -22.462, -26.527, -14.533, 17.840, 28.23, 0.06717, 0.90503, -0.17523, 0.38159,
 12:42:38.559,f6:90:cc:01:6d:25, 2015-01-01 00:55:10.165, 0.698, -0.01, -0.703, 0.183, -0.244, 0.305, -179.077, -45.346, -22.478, -26.527, -14.533, 17.840, 28.23, 0.06717, 0.90503, -0.17523, 0.38159,
 12:42:38.579,ed:40:fe:65:30:6c, 2015-01-01 00:55:14.995, 0.999, 0.056, -0.1, 0.061, -0.122, 0.427, 147.87, -83.958, 81.519, -27.000, -15.393, 18.940, 25.15, 0.26385, -0.66168, -0.32635, -0.62125,
 12:42:38.579,ed:40:fe:65:30:6c, 2015-01-01 00:55:14.995, 1, 0.054, -0.101, 0.061, 0.183, 0.244, 147.914, -83.963, 81.475, -27.000, -15.393, 18.940, 25.15, 0.26385, -0.66168, -0.32635, -0.62125,
 12:42:38.582,f6:90:cc:01:6d:25, 2015-01-01 00:55:10.165, 0.697, -0.012, -0.7, 0.183, -0.183, 0.244, -179.066, -45.341, -22.5, -26.787, -14.433, 18.307, 28.23, 0.06717, 0.90503, -0.17523, 0.38159,
 12:42:38.582,f6:90:cc:01:6d:25, 2015-01-01 00:55:10.165, 0.699, -0.012, -0.701, 0.122, 0.305, 0.122, -179.061, -45.341, -22.5, -26.787, -14.433, 18.307, 28.23, 0.06717, 0.90503, -0.17523, 0.38159,
 12:42:38.583,ed:35:33:d3:6c:f8, 2015-01-01 00:55:10.085, 0.912, 0.139, 0.379, -1.77, 0.671, 1.526, 19.616, -65.566, 132.968, -21.280, -15.933, -16.953, 26.48, -0.24615, -0.5466, 0.08109, -0.7962,
 12:42:38.583,ed:35:33:d3:6c:f8, 2015-01-01 00:55:10.085, 0.908, 0.14, 0.385, -1.038, 0.305, 1.038, 19.539, -65.566, 133.028, -21.280, -15.933, -16.953, 26.48, -0.24615, -0.5466, 0.08109, -0.7962,
 12:42:38.602,ed:40:fe:65:30:6c, 2015-01-01 00:55:15.355, 0.998, 0.057, -0.101, 0.305, 0.305, 0.244, 147.947, -83.963, 81.453, -27.000, -15.393, 18.940, 25.15, 0.26385, -0.66168, -0.32635, -0.62125,
 12:42:38.602,ed:40:fe:65:30:6c, 2015-01-01 00:55:15.355, 0.997, 0.06, -0.095, 0.427, 0.549, 0.244, 147.958, -83.969, 81.447, -27.000, -15.393, 18.940, 25.15, 0.26385, -0.66168, -0.32635, -0.62125,
 12:42:38.625,e3:ca:2d:fd:e0:8c, 2015-01-01 00:55:09.745, 0.759, -0.091, -0.661, -0.061, -0.061, 0, -172.112, -48.994, -41.358, -28.253, -11.647, 11.387, 24.93, 0.08762, 0.85931, -0.29398, 0.40909,
 12:42:38.625,e3:ca:2d:fd:e0:8c, 2015-01-01 00:55:09.745, 0.762, -0.09, -0.662, 0, -0.122, 0, -172.112, -48.994, -41.347, -28.253, -11.647, 11.387, 24.93, 0.08762, 0.85931, -0.29398, 0.40909,
 12:42:38.627,f6:90:cc:01:6d:25, 2015-01-01 00:55:10.165, 0.699, -0.01, -0.704, 0.549, 0.61, 0.122, -179.05, -45.352, -22.511, -26.787, -14.433, 18.307, 28.23, 0.06717, 0.90503, -0.17523, 0.38159,
 12:42:38.627,f6:90:cc:01:6d:25, 2015-01-01 00:55:10.165, 0.702, -0.012, -0.704, 0.549, 0.488, 0.183, -179.033, -45.357, -22.538, -26.787, -14.433, 18.307, 28.23, 0.06717, 0.90503, -0.17523, 0.38159,
 12:42:38.629,ed:35:33:d3:6c:f8, 2015-01-01 00:55:10.395, 0.904, 0.141, 0.389, 0.183, -0.122, 1.038, 19.495, -65.577, 133.055, -21.280, -15.933, -16.953, 26.48, -0.24615, -0.5466, 0.08109, -0.7962,
 12:42:38.629,ed:35:33:d3:6c:f8, 2015-01-01 00:55:10.395, 0.899, 0.137, 0.393, -0.366, 0.793, 0.671, 19.462, -65.577, 133.083, -21.280, -15.933, -16.953, 26.48, -0.24615, -0.5466, 0.08109, -0.7962,
 12:42:38.647,ed:40:fe:65:30:6c, 2015-01-01 00:55:15.355, 0.995, 0.059, -0.089, 0.183, 0.427, 0.183, 147.958, -83.974, 81.458, -27.000, -15.393, 18.940, 25.15, 0.26385, -0.66168, -0.32635, -0.62125,
 12:42:38.647,ed:40:fe:65:30:6c, 2015-01-01 00:55:15.355, 0.995, 0.057, -0.087, -0.061, 0.305, 0.061, 147.942, -83.979, 81.475, -27.000, -15.393, 18.940, 25.15, 0.26385, -0.66168, -0.32635, -0.62125,
 12:42:38.648,e3:ca:2d:fd:e0:8c, 2015-01-01 00:55:10.080, 0.768, -0.09, -0.662, 0.244, 0.366, 0, -172.112, -48.994, -41.342, -28.253, -11.647, 11.387, 24.93, 0.08762, 0.85931, -0.29398, 0.40909,
 12:42:38.648,e3:ca:2d:fd:e0:8c, 2015-01-01 00:55:10.080, 0.766, -0.091, -0.663, 0.183, 0.732, 0.061, -172.106, -48.999, -41.358, -28.253, -11.647, 11.387, 24.93, 0.08762, 0.85931, -0.29398, 0.40909,
 12:42:38.649,f6:90:cc:01:6d:25, 2015-01-01 00:55:10.165, 0.702, -0.009, -0.699, -0.122, 0, 0.244, -179.028, -45.352, -22.577, -26.787, -14.433, 18.307, 28.23, 0.06778, 0.9054, -0.17734, 0.37958,
 12:42:38.649,f6:90:cc:01:6d:25, 2015-01-01 00:55:10.165, 0.702, -0.009, -0.695, -0.488, -0.122, 0.122, -179.033, -45.346, -22.621, -26.787, -14.433, 18.307, 28.23, 0.06778, 0.9054, -0.17734, 0.37958,
 12:42:38.669,ed:40:fe:65:30:6c, 2015-01-01 00:55:15.355, 0.995, 0.057, -0.086, -0.183, 0.122, 0, 147.925, -83.979, 81.491, -27.000, -15.393, 18.940, 25.15, 0.26385, -0.66168, -0.32635, -0.62125,
 12:42:38.669,ed:40:fe:65:30:6c, 2015-01-01 00:55:15.355, 0.996, 0.057, -0.088, -0.183, 0.061, 0, 147.914, -83.979, 81.502, -27.000, -15.393, 18.940, 25.15, 0.26385, -0.66168, -0.32635, -0.62125,
 12:42:38.671,e3:ca:2d:fd:e0:8c, 2015-01-01 00:55:10.080, 0.761, -0.091, -0.662, 0.061, 0.427, 0, -172.101, -49.01, -41.358, -28.253, -11.647, 11.387, 24.93, 0.08762, 0.85931, -0.29398, 0.40909,
 12:42:38.671,e3:ca:2d:fd:e0:8c, 2015-01-01 00:55:10.080, 0.761, -0.089, -0.657, -0.244, 0.61, 0, -172.101, -49.016, -41.358, -28.253, -11.647, 11.387, 24.93, 0.08762, 0.85931, -0.29398, 0.40909,
 12:42:38.672,ed:35:33:d3:6c:f8, 2015-01-01 00:55:10.395, 0.902, 0.136, 0.392, -0.549, -0.061, -0.122, 19.446, -65.572, 133.088, -21.280, -15.933, -16.953, 26.48, -0.24615, -0.5466, 0.08109, -0.7962,
 12:42:38.672,ed:35:33:d3:6c:f8, 2015-01-01 00:55:10.395, 0.903, 0.137, 0.393, -0.549, -0.61, -0.61, 19.457, -65.577, 133.066, -21.280, -15.933, -16.953, 26.48, -0.24615, -0.5466, 0.08109, -0.7962,
 12:42:38.693,e3:ca:2d:fd:e0:8c, 2015-01-01 00:55:10.080, 0.763, -0.091, -0.656, -0.366, 0.854, 0, -172.106, -49.026, -41.358, -28.253, -11.647, 11.387, 24.93, 0.08762, 0.85931, -0.29398, 0.40909,
 12:42:38.693,e3:ca:2d:fd:e0:8c, 2015-01-01 00:55:10.080, 0.762, -0.092, -0.655, -0.061, 0.671, 0, -172.112, -49.043, -41.369, -28.253, -11.647, 11.387, 24.93, 0.08762, 0.85931, -0.29398, 0.40909,
 12:42:38.694,f6:90:cc:01:6d:25, 2015-01-01 00:55:10.165, 0.701, -0.01, -0.693, -0.183, -0.244, 0, -179.039, -45.341, -22.648, -26.787, -14.433, 18.307, 28.23, 0.06778, 0.9054, -0.17734, 0.37958,
 12:42:38.694,f6:90:cc:01:6d:25, 2015-01-01 00:55:10.165, 0.701, -0.013, -0.694, -0.061, -0.427, 0, -179.044, -45.33, -22.67, -26.787, -14.433, 18.307, 28.23, 0.06778, 0.9054, -0.17734, 0.37958,
 12:42:38.696,ed:35:33:d3:6c:f8, 2015-01-01 00:55:10.395, 0.905, 0.138, 0.388, -0.061, -0.977, -0.793, 19.495, -65.583, 133.006, -21.280, -15.933, -16.953, 26.48, -0.24615, -0.5466, 0.08109, -0.7962,
 12:42:38.696,ed:35:33:d3:6c:f8, 2015-01-01 00:55:10.395, 0.9, 0.139, 0.386, 1.465, -3.113, -0.732, 19.578, -65.616, 132.951, -21.280, -15.933, -16.953, 26.48, -0.24615, -0.5466, 0.08109, -0.7962,
 12:42:38.718,f6:90:cc:01:6d:25, 2015-01-01 00:55:10.500, 0.7, -0.014, -0.694, -0.305, -0.488, 0, -179.05, -45.319, -22.681, -26.787, -14.433, 18.307, 28.23, 0.06778, 0.9054, -0.17734, 0.37958,
 12:42:38.718,f6:90:cc:01:6d:25, 2015-01-01 00:55:10.500, 0.701, -0.013, -0.694, -0.305, -0.61, 0.061, -179.055, -45.302, -22.692, -26.787, -14.433, 18.307, 28.23, 0.06778, 0.9054, -0.17734, 0.37958,
 12:42:38.737,e3:ca:2d:fd:e0:8c, 2015-01-01 00:55:10.080, 0.763, -0.092, -0.657, 0.244, 0.366, 0, -172.106, -49.048, -41.38, -28.253, -11.647, 11.387, 24.93, 0.08762, 0.85931, -0.29398, 0.40909,
 12:42:38.737,e3:ca:2d:fd:e0:8c, 2015-01-01 00:55:10.080, 0.763, -0.09, -0.658, 0.183, 0.244, 0, -172.101, -49.054, -41.396, -28.253, -11.647, 11.387, 24.93, 0.08762, 0.85931, -0.29398, 0.40909,
 12:42:38.737,ed:40:fe:65:30:6c, 2015-01-01 00:55:15.355, 0.996, 0.056, -0.09, -0.427, 0.244, -0.061, 147.876, -83.979, 81.53, -27.000, -15.393, 18.940, 25.15, 0.26385, -0.66168, -0.32635, -0.62125,
 12:42:38.737,ed:40:fe:65:30:6c, 2015-01-01 00:55:15.355, 0.995, 0.058, -0.09, -0.549, 0.671, -0.061, 147.799, -83.985, 81.595, -27.000, -15.393, 18.940, 25.15, 0.26385, -0.66168, -0.32635, -0.62125,
 12:42:38.760,ed:40:fe:65:30:6c, 2015-01-01 00:55:15.355, 0.996, 0.058, -0.084, -0.244, 0.488, 0, 147.733, -83.99, 81.645, -27.000, -15.393, 18.940, 25.15, 0.26385, -0.66168, -0.32635, -0.62125,
 12:42:38.760,ed:40:fe:65:30:6c, 2015-01-01 00:55:15.355, 0.998, 0.053, -0.085, -0.061, 0, -0.305, 147.678, -83.99, 81.678, -27.000, -15.393, 18.940, 25.15, 0.26385, -0.66168, -0.32635, -0.62125,
 12:42:38.765,ed:35:33:d3:6c:f8, 2015-01-01 00:55:10.395, 0.9, 0.139, 0.387, 1.831, -2.869, -1.038, 19.693, -65.665, 132.88, -21.280, -15.933, -16.953, 26.48, -0.24615, -0.5466, 0.08109, -0.7962,
 12:42:38.765,ed:35:33:d3:6c:f8, 2015-01-01 00:55:10.395, 0.908, 0.121, 0.389, 1.221, -2.075, -3.967, 19.863, -65.693, 132.748, -21.280, -15.933, -16.953, 26.48, -0.24615, -0.5466, 0.08109, -0.7962,
 12:42:38.783,e3:ca:2d:fd:e0:8c, 2015-01-01 00:55:10.080, 0.764, -0.091, -0.657, 0, 0.366, 0, -172.101, -49.059, -41.391, -28.253, -11.647, 11.387, 24.93, 0.08762, 0.85931, -0.29398, 0.40909,
 12:42:38.783,e3:ca:2d:fd:e0:8c, 2015-01-01 00:55:10.080, 0.764, -0.092, -0.658, -0.122, 0.183, -0.061, -172.101, -49.065, -41.396, -28.253, -11.647, 11.387, 24.93, 0.08762, 0.85931, -0.29398, 0.40909,
 12:42:38.785,f6:90:cc:01:6d:25, 2015-01-01 00:55:10.500, 0.7, -0.011, -0.693, -0.122, -0.916, 0.061, -179.055, -45.286, -22.698, -26.787, -14.433, 18.307, 28.23, 0.06778, 0.9054, -0.17734, 0.37958,
 12:42:38.785,f6:90:cc:01:6d:25, 2015-01-01 00:55:10.500, 0.7, -0.012, -0.697, 0, -0.977, 0, -179.055, -45.264, -22.714, -26.787, -14.433, 18.307, 28.23, 0.06778, 0.9054, -0.17734, 0.37958,
 12:42:38.785,ed:35:33:d3:6c:f8, 2015-01-01 00:55:10.395, 0.912, 0.143, 0.387, 0.916, -1.343, -5.249, 20.094, -65.693, 132.523, -21.280, -15.933, -16.953, 26.48, -0.24615, -0.5466, 0.08109, -0.7962,
 12:42:38.785,ed:35:33:d3:6c:f8, 2015-01-01 00:55:10.395, 0.908, 0.141, 0.38, -0.244, 0.366, -2.869, 20.264, -65.671, 132.325, -21.280, -15.933, -16.953, 26.48, -0.24615, -0.5466, 0.08109, -0.7962,
 12:42:38.804,ed:40:fe:65:30:6c, 2015-01-01 00:55:15.355, 1, 0.05, -0.093, -0.183, -0.061, -0.61, 147.596, -83.985, 81.744, -27.000, -15.393, 18.940, 25.15, 0.26385, -0.66168, -0.32635, -0.62125,
 12:42:38.804,ed:40:fe:65:30:6c, 2015-01-01 00:55:15.355, 0.999, 0.055, -0.096, -0.366, 0, -0.732, 147.48, -83.974, 81.832, -27.000, -15.393, 18.940, 25.15, 0.26385, -0.66168, -0.32635, -0.62125,
 12:42:38.806,f6:90:cc:01:6d:25, 2015-01-01 00:55:10.500, 0.699, -0.014, -0.7, -0.183, -0.671, -0.305, -179.061, -45.247, -22.725, -26.787, -14.433, 18.307, 28.23, 0.06778, 0.9054, -0.17734, 0.37958,
 12:42:38.806,f6:90:cc:01:6d:25, 2015-01-01 00:55:10.500, 0.699, -0.013, -0.704, -0.244, -0.366, -0.366, -179.072, -45.236, -22.736, -26.787, -14.433, 18.307, 28.23, 0.06778, 0.9054, -0.17734, 0.37958,
 12:42:38.829,e3:ca:2d:fd:e0:8c, 2015-01-01 00:55:10.080, 0.764, -0.093, -0.658, -0.061, 0.122, -0.244, -172.106, -49.065, -41.402, -28.253, -11.647, 11.387, 24.93, 0.08762, 0.85931, -0.29398, 0.40909,
 12:42:38.829,e3:ca:2d:fd:e0:8c, 2015-01-01 00:55:10.080, 0.765, -0.091, -0.66, 0, 0.366, -0.366, -172.112, -49.07, -41.396, -28.253, -11.647, 11.387, 24.93, 0.08762, 0.85931, -0.29398, 0.40909,
 12:42:38.831,ed:35:33:d3:6c:f8, 2015-01-01 00:55:10.395, 0.906, 0.151, 0.382, 0.244, 0.366, -1.709, 20.347, -65.649, 132.226, -21.553, -15.820, -16.687, 26.48, -0.24615, -0.5466, 0.08109, -0.7962,
 12:42:38.831,ed:35:33:d3:6c:f8, 2015-01-01 00:55:10.395, 0.906, 0.157, 0.383, 0.183, -0.366, -1.831, 20.424, -65.638, 132.149, -21.553, -15.820, -16.687, 26.48, -0.24615, -0.5466, 0.08109, -0.7962,
 12:42:38.850,e3:ca:2d:fd:e0:8c, 2015-01-01 00:55:10.080, 0.765, -0.09, -0.661, 0, 0.671, -0.244, -172.117, -49.081, -41.396, -27.967, -11.407, 10.600, 24.93, 0.08762, 0.85931, -0.29398, 0.40909,
 12:42:38.850,e3:ca:2d:fd:e0:8c, 2015-01-01 00:55:10.080, 0.763, -0.089, -0.664, 0.183, 0.732, -0.122, -172.117, -49.092, -41.396, -27.967, -11.407, 10.600, 24.93, 0.08762, 0.85931, -0.29398, 0.40909,
 12:42:38.851,f6:90:cc:01:6d:25, 2015-01-01 00:55:10.500, 0.698, -0.01, -0.704, 0.122, 0, -0.183, -179.077, -45.236, -22.742, -26.787, -14.433, 18.307, 28.23, 0.06778, 0.9054, -0.17734, 0.37958,
 12:42:38.851,f6:90:cc:01:6d:25, 2015-01-01 00:55:10.500, 0.699, -0.009, -0.705, 0.183, -0.183, 0, -179.072, -45.231, -22.731, -26.787, -14.433, 18.307, 28.23, 0.06778, 0.9054, -0.17734, 0.37958,
 12:42:38.871,ed:40:fe:65:30:6c, 2015-01-01 00:55:15.355, 0.998, 0.064, -0.096, -0.183, -0.183, -0.549, 147.415, -83.969, 81.881, -27.260, -15.787, 18.313, 25.15, 0.26385, -0.66168, -0.32635, -0.62125,
 12:42:38.871,ed:40:fe:65:30:6c, 2015-01-01 00:55:15.355, 0.997, 0.066, -0.093, -0.061, -0.244, -0.305, 147.393, -83.958, 81.892, -27.260, -15.787, 18.313, 25.15, 0.26385, -0.66168, -0.32635, -0.62125,
 12:42:38.875,ed:35:33:d3:6c:f8, 2015-01-01 00:55:10.395, 0.905, 0.156, 0.384, -0.122, -0.61, -1.16, 20.49, -65.632, 132.078, -21.553, -15.820, -16.687, 26.48, -0.24768, -0.54807, 0.07993, -0.79486,
 12:42:38.875,ed:35:33:d3:6c:f8, 2015-01-01 00:55:10.395, 0.904, 0.153, 0.385, -0.732, -0.183, -0.183, 20.522, -65.638, 132.039, -21.553, -15.820, -16.687, 26.48, -0.24768, -0.54807, 0.07993, -0.79486,
 12:42:38.894,ed:40:fe:65:30:6c, 2015-01-01 00:55:15.355, 0.997, 0.062, -0.092, -0.061, -0.427, -0.183, 147.404, -83.947, 81.876, -27.260, -15.787, 18.313, 25.15, 0.26297, -0.66202, -0.32578, -0.62155,
 12:42:38.894,ed:40:fe:65:30:6c, 2015-01-01 00:55:15.355, 0.996, 0.06, -0.09, -0.122, -0.671, -0.061, 147.453, -83.93, 81.821, -27.260, -15.787, 18.313, 25.15, 0.26297, -0.66202, -0.32578, -0.62155,
 12:42:38.896,e3:ca:2d:fd:e0:8c, 2015-01-01 00:55:10.080, 0.763, -0.088, -0.662, 0.305, 1.038, 0, -172.112, -49.109, -41.407, -27.967, -11.407, 10.600, 24.93, 0.08762, 0.85931, -0.29398, 0.40909,
 12:42:38.896,e3:ca:2d:fd:e0:8c, 2015-01-01 00:55:10.080, 0.763, -0.089, -0.659, 0.244, 1.343, 0, -172.101, -49.125, -41.424, -27.967, -11.407, 10.600, 24.93, 0.08762, 0.85931, -0.29398, 0.40909,
 12:42:38.898,ed:35:33:d3:6c:f8, 2015-01-01 00:55:10.685, 0.903, 0.153, 0.386, -1.648, 0.244, 0.488, 20.495, -65.632, 132.045, -21.553, -15.820, -16.687, 26.48, -0.24768, -0.54807, 0.07993, -0.79486,
 12:42:38.898,ed:35:33:d3:6c:f8, 2015-01-01 00:55:10.685, 0.905, 0.154, 0.382, -1.892, 0.488, 0.854, 20.435, -65.632, 132.072, -21.553, -15.820, -16.687, 26.48, -0.24768, -0.54807, 0.07993, -0.79486,
 12:42:38.919,f6:90:cc:01:6d:25, 2015-01-01 00:55:10.500, 0.699, -0.01, -0.703, 0.061, -0.549, 0.122, -179.072, -45.22, -22.731, -26.787, -14.433, 18.307, 28.23, 0.06778, 0.9054, -0.17734, 0.37958,
 12:42:38.919,f6:90:cc:01:6d:25, 2015-01-01 00:55:10.500, 0.698, -0.01, -0.701, 0.061, -0.732, 0.183, -179.066, -45.198, -22.742, -26.787, -14.433, 18.307, 28.23, 0.06778, 0.9054, -0.17734, 0.37958,
 12:42:38.942,f6:90:cc:01:6d:25, 2015-01-01 00:55:10.500, 0.697, -0.009, -0.698, 0.305, -0.916, 0.183, -179.055, -45.181, -22.758, -26.433, -14.287, 18.147, 28.23, 0.06778, 0.9054, -0.17734, 0.37958,
 12:42:38.942,f6:90:cc:01:6d:25, 2015-01-01 00:55:10.500, 0.7, -0.01, -0.696, 0.61, -0.854, 0.305, -179.039, -45.159, -22.786, -26.433, -14.287, 18.147, 28.23, 0.06778, 0.9054, -0.17734, 0.37958,
 12:42:38.943,ed:35:33:d3:6c:f8, 2015-01-01 00:55:10.685, 0.907, 0.151, 0.381, -1.831, 0.61, 1.221, 20.358, -65.627, 132.105, -21.553, -15.820, -16.687, 26.48, -0.24768, -0.54807, 0.07993, -0.79486,
 12:42:38.943,ed:35:33:d3:6c:f8, 2015-01-01 00:55:10.685, 0.906, 0.147, 0.383, -1.709, 0.427, 1.465, 20.27, -65.627, 132.16, -21.553, -15.820, -16.687, 26.48, -0.24768, -0.54807, 0.07993, -0.79486,
 12:42:38.962,ed:40:fe:65:30:6c, 2015-01-01 00:55:15.355, 0.996, 0.063, -0.09, 0, -0.793, 0.122, 147.541, -83.914, 81.722, -27.260, -15.787, 18.313, 25.15, 0.26297, -0.66202, -0.32578, -0.62155,
 12:42:38.962,ed:40:fe:65:30:6c, 2015-01-01 00:55:15.355, 0.997, 0.065, -0.092, 0.061, -0.671, 0.244, 147.634, -83.903, 81.623, -27.260, -15.787, 18.313, 25.15, 0.26297, -0.66202, -0.32578, -0.62155,
 12:42:38.965,e3:ca:2d:fd:e0:8c, 2015-01-01 00:55:10.080, 0.762, -0.089, -0.654, 0.244, 1.16, 0.183, -172.09, -49.147, -41.446, -27.967, -11.407, 10.600, 24.93, 0.08807, 0.85883, -0.2941, 0.40997,
 12:42:38.965,e3:ca:2d:fd:e0:8c, 2015-01-01 00:55:10.080, 0.764, -0.089, -0.653, 0.427, 0.854, 0.244, -172.079, -49.164, -41.468, -27.967, -11.407, 10.600, 24.93, 0.08807, 0.85883, -0.2941, 0.40997,
 12:42:38.984,ed:40:fe:65:30:6c, 2015-01-01 00:55:15.710, 0.996, 0.061, -0.093, 0.183, -0.427, 0.427, 147.728, -83.897, 81.524, -27.260, -15.787, 18.313, 25.15, 0.26297, -0.66202, -0.32578, -0.62155,
 12:42:38.984,ed:40:fe:65:30:6c, 2015-01-01 00:55:15.710, 0.997, 0.059, -0.093, 0.305, -0.183, 0.488, 147.816, -83.897, 81.436, -27.260, -15.787, 18.313, 25.15, 0.26297, -0.66202, -0.32578, -0.62155,
 12:42:38.985,e3:ca:2d:fd:e0:8c, 2015-01-01 00:55:10.440, 0.767, -0.09, -0.653, 0.61, 0.916, 0.244, -172.062, -49.18, -41.495, -27.967, -11.407, 10.600, 24.93, 0.08807, 0.85883, -0.2941, 0.40997,
 12:42:38.985,e3:ca:2d:fd:e0:8c, 2015-01-01 00:55:10.440, 0.767, -0.091, -0.654, 0.305, 0.916, 0.183, -172.046, -49.197, -41.512, -27.967, -11.407, 10.600, 24.93, 0.08807, 0.85883, -0.2941, 0.40997,
 12:42:38.989,ed:35:33:d3:6c:f8, 2015-01-01 00:55:10.685, 0.907, 0.145, 0.384, -1.709, 0.305, 1.648, 20.176, -65.627, 132.209, -21.553, -15.820, -16.687, 26.48, -0.24768, -0.54807, 0.07993, -0.79486,
 12:42:38.989,ed:35:33:d3:6c:f8, 2015-01-01 00:55:10.685, 0.908, 0.145, 0.382, -1.831, 0.305, 1.404, 20.083, -65.632, 132.253, -21.553, -15.820, -16.687, 26.48, -0.24768, -0.54807, 0.07993, -0.79486,
 12:42:39.007,ed:40:fe:65:30:6c, 2015-01-01 00:55:15.710, 0.996, 0.06, -0.092, 0.183, 0, 0.488, 147.881, -83.903, 81.359, -27.260, -15.787, 18.313, 25.15, 0.26297, -0.66202, -0.32578, -0.62155,
 12:42:39.007,ed:40:fe:65:30:6c, 2015-01-01 00:55:15.710, 0.998, 0.061, -0.093, 0.122, 0.183, 0.488, 147.931, -83.908, 81.299, -27.260, -15.787, 18.313, 25.15, 0.26297, -0.66202, -0.32578, -0.62155,
 12:42:39.009,e3:ca:2d:fd:e0:8c, 2015-01-01 00:55:10.440, 0.766, -0.091, -0.656, 0.061, 0.671, 0.183, -172.035, -49.208, -41.528, -27.967, -11.407, 10.600, 24.93, 0.08807, 0.85883, -0.2941, 0.40997,
 12:42:39.009,e3:ca:2d:fd:e0:8c, 2015-01-01 00:55:10.440, 0.766, -0.091, -0.656, 0.244, 0.488, 0.244, -172.029, -49.219, -41.556, -27.967, -11.407, 10.600, 24.93, 0.08807, 0.85883, -0.2941, 0.40997,
 12:42:39.035,ed:35:33:d3:6c:f8, 2015-01-01 00:55:10.685, 0.909, 0.144, 0.383, -1.892, 0.549, 1.221, 20.001, -65.632, 132.297, -21.553, -15.820, -16.687, 26.48, -0.24768, -0.54807, 0.07993, -0.79486,
 12:42:39.035,ed:35:33:d3:6c:f8, 2015-01-01 00:55:10.685, 0.908, 0.142, 0.384, -1.709, 0.793, 0.977, 19.918, -65.627, 132.352, -21.553, -15.820, -16.687, 26.48, -0.24768, -0.54807, 0.07993, -0.79486,
 12:42:39.052,ed:40:fe:65:30:6c, 2015-01-01 00:55:15.710, 0.997, 0.059, -0.093, 0.122, 0.427, 0.427, 147.942, -83.914, 81.288, -27.260, -15.787, 18.313, 25.15, 0.26297, -0.66202, -0.32578, -0.62155,
 12:42:39.052,ed:40:fe:65:30:6c, 2015-01-01 00:55:15.710, 0.997, 0.057, -0.094, 0.061, 0.549, 0.427, 147.947, -83.925, 81.293, -27.260, -15.787, 18.313, 25.15, 0.26297, -0.66202, -0.32578, -0.62155,
 12:42:39.053,f6:90:cc:01:6d:25, 2015-01-01 00:55:10.500, 0.699, -0.01, -0.697, 0.549, -0.916, 0.366, -179.022, -45.137, -22.819, -26.433, -14.287, 18.147, 28.23, 0.06778, 0.9054, -0.17734, 0.37958,
 12:42:39.053,f6:90:cc:01:6d:25, 2015-01-01 00:55:10.500, 0.699, -0.01, -0.697, 0.305, -0.854, 0.244, -179.011, -45.121, -22.83, -26.433, -14.287, 18.147, 28.23, 0.06778, 0.9054, -0.17734, 0.37958,
 12:42:39.074,ed:40:fe:65:30:6c, 2015-01-01 00:55:15.710, 0.996, 0.056, -0.092, 0.122, 0.61, 0.305, 147.931, -83.936, 81.315, -27.260, -15.787, 18.313, 25.15, 0.26297, -0.66202, -0.32578, -0.62155,
 12:42:39.074,ed:40:fe:65:30:6c, 2015-01-01 00:55:15.710, 0.996, 0.056, -0.089, 0.061, 0.488, 0.244, 147.914, -83.947, 81.337, -27.260, -15.787, 18.313, 25.15, 0.26297, -0.66202, -0.32578, -0.62155,
 12:42:39.075,e3:ca:2d:fd:e0:8c, 2015-01-01 00:55:10.440, 0.767, -0.091, -0.656, 0.549, 0.488, 0.244, -172.018, -49.224, -41.594, -27.967, -11.407, 10.600, 24.93, 0.08807, 0.85883, -0.2941, 0.40997,
 12:42:39.075,e3:ca:2d:fd:e0:8c, 2015-01-01 00:55:10.440, 0.767, -0.093, -0.655, 0.488, 0.488, 0.183, -172.002, -49.235, -41.633, -27.967, -11.407, 10.600, 24.93, 0.08807, 0.85883, -0.2941, 0.40997,
 12:42:39.077,f6:90:cc:01:6d:25, 2015-01-01 00:55:10.500, 0.698, -0.01, -0.698, 0.244, -0.671, 0.244, -179.006, -45.104, -22.841, -26.433, -14.287, 18.147, 28.23, 0.06812, 0.90579, -0.17957, 0.37756,
 12:42:39.077,f6:90:cc:01:6d:25, 2015-01-01 00:55:10.500, 0.698, -0.01, -0.7, 0.244, -0.549, 0.244, -178.995, -45.093, -22.852, -26.433, -14.287, 18.147, 28.23, 0.06812, 0.90579, -0.17957, 0.37756,
 12:42:39.079,ed:35:33:d3:6c:f8, 2015-01-01 00:55:10.685, 0.906, 0.138, 0.384, -1.587, 0.793, 0.793, 19.852, -65.616, 132.385, -21.553, -15.820, -16.687, 26.48, -0.24768, -0.54807, 0.07993, -0.79486,
 12:42:39.079,ed:35:33:d3:6c:f8, 2015-01-01 00:55:10.685, 0.903, 0.137, 0.387, -1.526, 0.854, 0.427, 19.792, -65.605, 132.424, -21.553, -15.820, -16.687, 26.48, -0.24768, -0.54807, 0.07993, -0.79486,
 12:42:39.098,e3:ca:2d:fd:e0:8c, 2015-01-01 00:55:10.440, 0.767, -0.093, -0.656, 0.305, 0.427, 0.183, -171.985, -49.241, -41.66, -27.967, -11.407, 10.600, 24.93, 0.08807, 0.85883, -0.2941, 0.40997,
 12:42:39.098,e3:ca:2d:fd:e0:8c, 2015-01-01 00:55:10.440, 0.766, -0.093, -0.657, 0.305, 0.183, 0.183, -171.98, -49.246, -41.677, -27.967, -11.407, 10.600, 24.93, 0.08807, 0.85883, -0.2941, 0.40997,
 12:42:39.100,f6:90:cc:01:6d:25, 2015-01-01 00:55:10.500, 0.697, -0.011, -0.701, 0.122, -0.305, 0.244, -178.989, -45.088, -22.868, -26.433, -14.287, 18.147, 28.23, 0.06812, 0.90579, -0.17957, 0.37756,
 12:42:39.100,f6:90:cc:01:6d:25, 2015-01-01 00:55:10.500, 0.697, -0.013, -0.703, 0.061, -0.183, 0.122, -178.989, -45.082, -22.885, -26.433, -14.287, 18.147, 28.23, 0.06812, 0.90579, -0.17957, 0.37756,
 12:42:39.101,ed:35:33:d3:6c:f8, 2015-01-01 00:55:10.685, 0.901, 0.139, 0.392, -1.709, 1.282, 0.122, 19.737, -65.588, 132.457, -21.493, -15.993, -16.333, 26.48, -0.24768, -0.54807, 0.07993, -0.79486,
 12:42:39.101,ed:35:33:d3:6c:f8, 2015-01-01 00:55:10.685, 0.905, 0.14, 0.39, -1.648, 1.221, 0.183, 19.688, -65.566, 132.479, -21.493, -15.993, -16.333, 26.48, -0.24768, -0.54807, 0.07993, -0.79486,
 12:42:39.120,ed:40:fe:65:30:6c, 2015-01-01 00:55:15.710, 0.997, 0.057, -0.088, 0.427, 0.183, 0.305, 147.953, -83.947, 81.304, -27.260, -15.787, 18.313, 25.15, 0.26297, -0.66202, -0.32578, -0.62155,
 12:42:39.120,ed:40:fe:65:30:6c, 2015-01-01 00:55:15.710, 0.998, 0.058, -0.091, 0.916, 0, 0.305, 148.013, -83.952, 81.249, -27.260, -15.787, 18.313, 25.15, 0.26297, -0.66202, -0.32578, -0.62155,
 12:42:39.142,e3:ca:2d:fd:e0:8c, 2015-01-01 00:55:10.440, 0.765, -0.092, -0.656, 0.305, -0.061, 0.122, -171.969, -49.246, -41.688, -27.967, -11.407, 10.600, 24.93, 0.08807, 0.85883, -0.2941, 0.40997,
 12:42:39.142,e3:ca:2d:fd:e0:8c, 2015-01-01 00:55:10.440, 0.766, -0.093, -0.657, 0.305, -0.061, 0.122, -171.958, -49.241, -41.693, -27.967, -11.407, 10.600, 24.93, 0.08807, 0.85883, -0.2941, 0.40997,
 12:42:39.144,f6:90:cc:01:6d:25, 2015-01-01 00:55:10.500, 0.698, -0.014, -0.702, 0.061, -0.061, 0, -178.989, -45.077, -22.912, -26.433, -14.287, 18.147, 28.23, 0.06812, 0.90579, -0.17957, 0.37756,
 12:42:39.144,f6:90:cc:01:6d:25, 2015-01-01 00:55:10.500, 0.697, -0.015, -0.701, -0.061, 0, 0, -178.989, -45.077, -22.95, -26.433, -14.287, 18.147, 28.23, 0.06812, 0.90579, -0.17957, 0.37756,
 12:42:39.146,ed:35:33:d3:6c:f8, 2015-01-01 00:55:10.685, 0.911, 0.138, 0.387, -0.671, 0.732, 0.488, 19.644, -65.555, 132.506, -21.493, -15.993, -16.333, 26.48, -0.24768, -0.54807, 0.07993, -0.79486,
 12:42:39.146,ed:35:33:d3:6c:f8, 2015-01-01 00:55:10.685, 0.913, 0.134, 0.379, 0, 0, 0.549, 19.622, -65.555, 132.528, -21.493, -15.993, -16.333, 26.48, -0.24768, -0.54807, 0.07993, -0.79486,
 12:42:39.164,ed:40:fe:65:30:6c, 2015-01-01 00:55:15.710, 0.999, 0.055, -0.095, 1.099, -0.061, 0.305, 148.085, -83.952, 81.194, -27.260, -15.787, 18.313, 25.15, 0.26297, -0.66202, -0.32578, -0.62155,
 12:42:39.164,ed:40:fe:65:30:6c, 2015-01-01 00:55:15.710, 0.999, 0.053, -0.101, 0.977, 0.061, 0.122, 148.123, -83.952, 81.183, -27.260, -15.787, 18.313, 25.15, 0.26297, -0.66202, -0.32578, -0.62155,
 12:42:39.167,f6:90:cc:01:6d:25, 2015-01-01 00:55:10.925, 0.698, -0.014, -0.7, -0.244, -0.061, 0, -178.995, -45.071, -22.978, -26.433, -14.287, 18.147, 28.23, 0.06812, 0.90579, -0.17957, 0.37756,
 12:42:39.167,f6:90:cc:01:6d:25, 2015-01-01 00:55:10.925, 0.696, -0.014, -0.701, -0.061, -0.061, 0.061, -178.995, -45.066, -23, -26.433, -14.287, 18.147, 28.23, 0.06812, 0.90579, -0.17957, 0.37756,
 12:42:39.188,e3:ca:2d:fd:e0:8c, 2015-01-01 00:55:10.440, 0.764, -0.094, -0.657, 0.122, 0.183, 0, -171.958, -49.246, -41.699, -27.967, -11.407, 10.600, 24.93, 0.08807, 0.85883, -0.2941, 0.40997,
 12:42:39.188,e3:ca:2d:fd:e0:8c, 2015-01-01 00:55:10.440, 0.766, -0.093, -0.655, 0, 0.244, 0, -171.953, -49.246, -41.699, -27.967, -11.407, 10.600, 24.93, 0.08807, 0.85883, -0.2941, 0.40997,
 12:42:39.190,f6:90:cc:01:6d:25, 2015-01-01 00:55:10.925, 0.696, -0.014, -0.704, 0.244, -0.183, 0, -178.989, -45.06, -23.022, -26.433, -14.287, 18.147, 28.23, 0.06812, 0.90579, -0.17957, 0.37756,
 12:42:39.190,f6:90:cc:01:6d:25, 2015-01-01 00:55:10.925, 0.695, -0.014, -0.704, 0.549, 0, -0.061, -178.978, -45.06, -23.055, -26.433, -14.287, 18.147, 28.23, 0.06812, 0.90579, -0.17957, 0.37756,
 12:42:39.191,ed:35:33:d3:6c:f8, 2015-01-01 00:55:10.685, 0.91, 0.136, 0.38, 0, -0.122, 0.366, 19.611, -65.561, 132.523, -21.493, -15.993, -16.333, 26.48, -0.24902, -0.54599, 0.08353, -0.7955,
 12:42:39.191,ed:35:33:d3:6c:f8, 2015-01-01 00:55:10.685, 0.906, 0.141, 0.383, -0.671, 0.671, -0.061, 19.594, -65.555, 132.506, -21.493, -15.993, -16.333, 26.48, -0.24902, -0.54599, 0.08353, -0.7955,
 12:42:39.211,e3:ca:2d:fd:e0:8c, 2015-01-01 00:55:10.440, 0.769, -0.092, -0.658, 0.122, 0.366, 0.061, -171.953, -49.252, -41.699, -28.413, -11.393, 11.347, 24.93, 0.08807, 0.85883, -0.2941, 0.40997,
 12:42:39.211,e3:ca:2d:fd:e0:8c, 2015-01-01 00:55:10.440, 0.77, -0.092, -0.658, 0.427, 0.732, 0.061, -171.942, -49.263, -41.699, -28.413, -11.393, 11.347, 24.93, 0.08807, 0.85883, -0.2941, 0.40997,
 12:42:39.212,f6:90:cc:01:6d:25, 2015-01-01 00:55:10.925, 0.697, -0.012, -0.705, 0.305, 0.244, -0.122, -178.973, -45.06, -23.093, -26.433, -14.287, 18.147, 28.23, 0.06812, 0.90579, -0.17957, 0.37756,
 12:42:39.212,f6:90:cc:01:6d:25, 2015-01-01 00:55:10.925, 0.698, -0.011, -0.704, 0.183, 0.305, 0, -178.967, -45.06, -23.115, -26.433, -14.287, 18.147, 28.23, 0.06812, 0.90579, -0.17957, 0.37756,
 12:42:39.234,ed:40:fe:65:30:6c, 2015-01-01 00:55:15.710, 0.998, 0.057, -0.099, 0.549, 0.366, 0, 148.107, -83.952, 81.205, -27.227, -15.433, 18.933, 25.15, 0.26297, -0.66202, -0.32578, -0.62155,
 12:42:39.234,ed:40:fe:65:30:6c, 2015-01-01 00:55:15.710, 0.997, 0.062, -0.093, 0.366, 0.488, 0, 148.074, -83.958, 81.238, -27.227, -15.433, 18.933, 25.15, 0.26297, -0.66202, -0.32578, -0.62155,
 12:42:39.256,ed:40:fe:65:30:6c, 2015-01-01 00:55:15.710, 0.995, 0.062, -0.09, 0.061, 0.305, 0, 148.046, -83.958, 81.26, -27.227, -15.433, 18.933, 25.15, 0.26346, -0.6622, -0.32565, -0.62122,
 12:42:39.256,ed:40:fe:65:30:6c, 2015-01-01 00:55:15.710, 0.995, 0.058, -0.087, -0.122, 0.244, 0, 148.019, -83.963, 81.282, -27.227, -15.433, 18.933, 25.15, 0.26346, -0.6622, -0.32565, -0.62122,
 12:42:39.256,e3:ca:2d:fd:e0:8c, 2015-01-01 00:55:10.440, 0.767, -0.094, -0.656, 0.244, 0.671, 0, -171.931, -49.274, -41.693, -28.413, -11.393, 11.347, 24.93, 0.08807, 0.85883, -0.2941, 0.40997,
 12:42:39.256,e3:ca:2d:fd:e0:8c, 2015-01-01 00:55:10.440, 0.763, -0.093, -0.653, 0, 0.549, 0, -171.931, -49.285, -41.699, -28.413, -11.393, 11.347, 24.93, 0.08807, 0.85883, -0.2941, 0.40997,
 12:42:39.258,f6:90:cc:01:6d:25, 2015-01-01 00:55:10.925, 0.699, -0.012, -0.702, 0.061, 0.183, 0.061, -178.967, -45.06, -23.137, -26.433, -14.287, 18.147, 28.23, 0.06812, 0.90579, -0.17957, 0.37756,
 12:42:39.258,f6:90:cc:01:6d:25, 2015-01-01 00:55:10.925, 0.698, -0.013, -0.699, -0.427, -0.061, 0.122, -178.973, -45.06, -23.148, -26.433, -14.287, 18.147, 28.23, 0.06812, 0.90579, -0.17957, 0.37756,
 12:42:39.259,ed:35:33:d3:6c:f8, 2015-01-01 00:55:11.000, 0.903, 0.144, 0.392, -0.793, 1.404, -0.549, 19.583, -65.533, 132.484, -21.493, -15.993, -16.333, 26.48, -0.24902, -0.54599, 0.08353, -0.7955,
 12:42:39.259,ed:35:33:d3:6c:f8, 2015-01-01 00:55:11.000, 0.901, 0.143, 0.391, -0.977, 1.404, -0.061, 19.561, -65.506, 132.473, -21.493, -15.993, -16.333, 26.48, -0.24902, -0.54599, 0.08353, -0.7955,
 12:42:39.259,ed:35:33:d3:6c:f8, 2015-01-01 00:55:11.000, 0.898, 0.138, 0.392, -1.526, 1.221, 0, 19.517, -65.484, 132.484, -21.493, -15.993, -16.333, 26.48, -0.24902, -0.54599, 0.08353, -0.7955,
 12:42:39.259,ed:35:33:d3:6c:f8, 2015-01-01 00:55:11.000, 0.896, 0.137, 0.394, -1.77, 0.854, -0.122, 19.479, -65.462, 132.479, -21.493, -15.993, -16.333, 26.48, -0.24902, -0.54599, 0.08353, -0.7955,
 12:42:39.299,ed:40:fe:65:30:6c, 2015-01-01 00:55:15.710, 0.994, 0.055, -0.086, -0.305, 0.183, 0, 147.986, -83.963, 81.299, -27.227, -15.433, 18.933, 25.15, 0.26346, -0.6622, -0.32565, -0.62122,
 12:42:39.299,ed:40:fe:65:30:6c, 2015-01-01 00:55:15.710, 0.994, 0.058, -0.084, -0.305, 0.244, -0.061, 147.942, -83.963, 81.348, -27.227, -15.433, 18.933, 25.15, 0.26346, -0.6622, -0.32565, -0.62122,
 12:42:39.302,f6:90:cc:01:6d:25, 2015-01-01 00:55:10.925, 0.699, -0.012, -0.695, -0.305, -0.427, 0, -178.978, -45.049, -23.176, -26.433, -14.287, 18.147, 28.23, 0.06812, 0.90579, -0.17957, 0.37756,
 12:42:39.302,f6:90:cc:01:6d:25, 2015-01-01 00:55:10.925, 0.698, -0.014, -0.694, -0.305, -0.671, 0, -178.984, -45.038, -23.198, -26.433, -14.287, 18.147, 28.23, 0.06812, 0.90579, -0.17957, 0.37756,
 12:42:39.303,ed:35:33:d3:6c:f8, 2015-01-01 00:55:11.000, 0.898, 0.138, 0.395, -1.343, 0.427, -0.244, 19.457, -65.451, 132.462, -21.493, -15.993, -16.333, 26.48, -0.24902, -0.54599, 0.08353, -0.7955,
 12:42:39.303,ed:35:33:d3:6c:f8, 2015-01-01 00:55:11.000, 0.902, 0.139, 0.396, -0.793, -0.061, -0.183, 19.446, -65.446, 132.446, -21.493, -15.993, -16.333, 26.48, -0.24902, -0.54599, 0.08353, -0.7955,
 12:42:39.322,ed:40:fe:65:30:6c, 2015-01-01 00:55:16.070, 0.996, 0.059, -0.083, -0.122, 0.061, -0.061, 147.909, -83.963, 81.381, -27.227, -15.433, 18.933, 25.15, 0.26346, -0.6622, -0.32565, -0.62122,
 12:42:39.322,ed:40:fe:65:30:6c, 2015-01-01 00:55:16.070, 0.997, 0.057, -0.085, -0.061, -0.061, 0, 147.903, -83.963, 81.392, -27.227, -15.433, 18.933, 25.15, 0.26346, -0.6622, -0.32565, -0.62122,
 12:42:39.323,e3:ca:2d:fd:e0:8c, 2015-01-01 00:55:10.440, 0.764, -0.091, -0.652, -0.122, 0.488, 0, -171.931, -49.29, -41.704, -28.413, -11.393, 11.347, 24.93, 0.08826, 0.85773, -0.29526, 0.41141,
 12:42:39.323,e3:ca:2d:fd:e0:8c, 2015-01-01 00:55:10.440, 0.767, -0.093, -0.652, -0.183, 0.549, 0, -171.931, -49.301, -41.726, -28.413, -11.393, 11.347, 24.93, 0.08826, 0.85773, -0.29526, 0.41141,
 12:42:39.345,e3:ca:2d:fd:e0:8c, 2015-01-01 00:55:10.795, 0.768, -0.094, -0.652, 0.061, 0.244, 0, -171.931, -49.307, -41.748, -28.413, -11.393, 11.347, 24.93, 0.08826, 0.85773, -0.29526, 0.41141,
 12:42:39.345,e3:ca:2d:fd:e0:8c, 2015-01-01 00:55:10.795, 0.769, -0.093, -0.653, 0.305, -0.061, 0, -171.925, -49.307, -41.77, -28.413, -11.393, 11.347, 24.93, 0.08826, 0.85773, -0.29526, 0.41141,
 12:42:39.346,f6:90:cc:01:6d:25, 2015-01-01 00:55:10.925, 0.698, -0.015, -0.697, -0.061, -0.671, 0, -178.989, -45.022, -23.22, -26.433, -14.287, 18.147, 28.23, 0.06812, 0.90579, -0.17957, 0.37756,
 12:42:39.346,f6:90:cc:01:6d:25, 2015-01-01 00:55:10.925, 0.697, -0.013, -0.699, 0.183, -0.488, 0, -178.989, -45.011, -23.236, -26.433, -14.287, 18.147, 28.23, 0.06812, 0.90579, -0.17957, 0.37756,
 12:42:39.348,ed:35:33:d3:6c:f8, 2015-01-01 00:55:11.000, 0.904, 0.139, 0.391, -0.671, -0.549, 0.061, 19.44, -65.457, 132.462, -21.493, -15.993, -16.333, 26.48, -0.24902, -0.54599, 0.08353, -0.7955,
 12:42:39.348,ed:35:33:d3:6c:f8, 2015-01-01 00:55:11.000, 0.906, 0.141, 0.386, -1.038, -0.916, 0.183, 19.429, -65.468, 132.512, -21.493, -15.993, -16.333, 26.48, -0.24902, -0.54599, 0.08353, -0.7955,
 12:42:39.367,ed:40:fe:65:30:6c, 2015-01-01 00:55:16.070, 0.997, 0.056, -0.09, -0.122, -0.061, -0.061, 147.887, -83.963, 81.403, -27.227, -15.433, 18.933, 25.15, 0.26346, -0.6622, -0.32565, -0.62122,
 12:42:39.367,ed:40:fe:65:30:6c, 2015-01-01 00:55:16.070, 0.998, 0.061, -0.092, -0.183, 0.122, 0, 147.859, -83.963, 81.42, -27.227, -15.433, 18.933, 25.15, 0.26346, -0.6622, -0.32565, -0.62122,
 12:42:39.369,f6:90:cc:01:6d:25, 2015-01-01 00:55:10.925, 0.696, -0.011, -0.702, 0.122, -0.427, 0.061, -178.984, -45, -23.247, -26.820, -14.393, 17.673, 28.23, 0.06812, 0.90579, -0.17957, 0.37756,
 12:42:39.369,f6:90:cc:01:6d:25, 2015-01-01 00:55:10.925, 0.696, -0.013, -0.704, 0.305, -0.427, 0.183, -178.978, -44.989, -23.247, -26.820, -14.393, 17.673, 28.23, 0.06812, 0.90579, -0.17957, 0.37756,
 12:42:39.393,ed:35:33:d3:6c:f8, 2015-01-01 00:55:11.000, 0.908, 0.143, 0.388, -1.587, -0.427, 0.183, 19.402, -65.479, 132.539, -21.493, -15.993, -16.333, 26.48, -0.24902, -0.54599, 0.08353, -0.7955,
 12:42:39.393,ed:35:33:d3:6c:f8, 2015-01-01 00:55:11.000, 0.908, 0.142, 0.389, -1.587, 0.122, 0.366, 19.363, -65.479, 132.556, -21.493, -15.993, -16.333, 26.48, -0.24902, -0.54599, 0.08353, -0.7955,
 12:42:39.413,e3:ca:2d:fd:e0:8c, 2015-01-01 00:55:10.795, 0.769, -0.093, -0.653, 0.183, -0.122, 0, -171.92, -49.301, -41.781, -28.413, -11.393, 11.347, 24.93, 0.08826, 0.85773, -0.29526, 0.41141,
 12:42:39.413,e3:ca:2d:fd:e0:8c, 2015-01-01 00:55:10.795, 0.767, -0.093, -0.654, 0.061, 0.122, 0, -171.92, -49.307, -41.792, -28.413, -11.393, 11.347, 24.93, 0.08826, 0.85773, -0.29526, 0.41141,
 12:42:39.413,ed:40:fe:65:30:6c, 2015-01-01 00:55:16.070, 0.999, 0.062, -0.092, 0, 0.244, 0.122, 147.838, -83.969, 81.425, -27.227, -15.433, 18.933, 25.15, 0.26346, -0.6622, -0.32565, -0.62122,
 12:42:39.413,ed:40:fe:65:30:6c, 2015-01-01 00:55:16.070, 0.997, 0.055, -0.095, -0.183, 0.244, 0.061, 147.832, -83.969, 81.425, -27.227, -15.433, 18.933, 25.15, 0.26346, -0.6622, -0.32565, -0.62122,
 12:42:39.415,f6:90:cc:01:6d:25, 2015-01-01 00:55:10.925, 0.696, -0.014, -0.703, 0.305, -0.305, 0.244, -178.967, -44.984, -23.247, -26.820, -14.393, 17.673, 28.23, 0.06812, 0.90579, -0.17957, 0.37756,
 12:42:39.415,f6:90:cc:01:6d:25, 2015-01-01 00:55:10.925, 0.696, -0.014, -0.704, 0.183, -0.061, 0.244, -178.956, -44.973, -23.253, -26.820, -14.393, 17.673, 28.23, 0.06812, 0.90579, -0.17957, 0.37756,
 12:42:39.434,ed:40:fe:65:30:6c, 2015-01-01 00:55:16.070, 0.997, 0.059, -0.092, -0.122, 0.244, 0.122, 147.81, -83.969, 81.442, -27.227, -15.433, 18.933, 25.15, 0.26346, -0.6622, -0.32565, -0.62122,
 12:42:39.434,ed:40:fe:65:30:6c, 2015-01-01 00:55:16.070, 0.997, 0.06, -0.091, 0, 0.244, 0.122, 147.799, -83.974, 81.453, -27.227, -15.433, 18.933, 25.15, 0.26346, -0.6622, -0.32565, -0.62122,
 12:42:39.436,e3:ca:2d:fd:e0:8c, 2015-01-01 00:55:10.795, 0.766, -0.093, -0.655, 0.061, 0.244, 0, -171.92, -49.307, -41.803, -28.413, -11.393, 11.347, 24.93, 0.08826, 0.85773, -0.29526, 0.41141,
 12:42:39.436,e3:ca:2d:fd:e0:8c, 2015-01-01 00:55:10.795, 0.766, -0.093, -0.655, 0.244, 0.122, 0, -171.914, -49.312, -41.808, -28.413, -11.393, 11.347, 24.93, 0.08826, 0.85773, -0.29526, 0.41141,
 12:42:39.438,ed:35:33:d3:6c:f8, 2015-01-01 00:55:11.000, 0.905, 0.137, 0.387, -1.892, 0, 0.977, 19.297, -65.484, 132.583, -21.433, -16.087, -16.840, 26.48, -0.24902, -0.54599, 0.08353, -0.7955,
 12:42:39.438,ed:35:33:d3:6c:f8, 2015-01-01 00:55:11.000, 0.904, 0.136, 0.387, -1.892, -0.366, 0.916, 19.232, -65.495, 132.621, -21.433, -16.087, -16.840, 26.48, -0.24902, -0.54599, 0.08353, -0.7955,
 12:42:39.458,e3:ca:2d:fd:e0:8c, 2015-01-01 00:55:10.795, 0.768, -0.093, -0.656, 0.244, 0.183, 0, -171.909, -49.312, -41.797, -28.413, -11.393, 11.347, 24.93, 0.08826, 0.85773, -0.29526, 0.41141,
 12:42:39.458,e3:ca:2d:fd:e0:8c, 2015-01-01 00:55:10.795, 0.767, -0.092, -0.654, 0.244, 0.366, 0, -171.903, -49.318, -41.781, -28.413, -11.393, 11.347, 24.93, 0.08826, 0.85773, -0.29526, 0.41141,
 12:42:39.460,ed:35:33:d3:6c:f8, 2015-01-01 00:55:11.000, 0.904, 0.138, 0.388, -1.526, -0.244, 0.793, 19.177, -65.506, 132.654, -21.433, -16.087, -16.840, 26.48, -0.25037, -0.5448, 0.08591, -0.79562,
 12:42:39.460,ed:35:33:d3:6c:f8, 2015-01-01 00:55:11.000, 0.904, 0.138, 0.391, -0.977, 0.122, 0.977, 19.122, -65.511, 132.704, -21.433, -16.087, -16.840, 26.48, -0.25037, -0.5448, 0.08591, -0.79562,
 12:42:39.502,ed:40:fe:65:30:6c, 2015-01-01 00:55:16.070, 0.997, 0.058, -0.09, 0, 0.122, 0.122, 147.794, -83.974, 81.453, -27.227, -15.433, 18.933, 25.15, 0.26346, -0.6622, -0.32565, -0.62122,
 12:42:39.502,ed:40:fe:65:30:6c, 2015-01-01 00:55:16.070, 0.995, 0.057, -0.088, -0.061, 0, 0.122, 147.799, -83.979, 81.447, -27.227, -15.433, 18.933, 25.15, 0.26346, -0.6622, -0.32565, -0.62122,
 12:42:39.504,f6:90:cc:01:6d:25, 2015-01-01 00:55:10.925, 0.695, -0.013, -0.703, 0.427, 0.061, 0.183, -178.951, -44.973, -23.264, -26.820, -14.393, 17.673, 28.23, 0.06888, 0.90561, -0.1828, 0.37631,
 12:42:39.504,f6:90:cc:01:6d:25, 2015-01-01 00:55:10.925, 0.696, -0.013, -0.702, 0.305, 0, 0, -178.94, -44.973, -23.264, -26.820, -14.393, 17.673, 28.23, 0.06888, 0.90561, -0.1828, 0.37631,
 12:42:39.506,ed:35:33:d3:6c:f8, 2015-01-01 00:55:11.000, 0.901, 0.134, 0.392, -0.977, 0.183, 1.038, 19.061, -65.511, 132.764, -21.433, -16.087, -16.840, 26.48, -0.25037, -0.5448, 0.08591, -0.79562,
 12:42:39.506,ed:35:33:d3:6c:f8, 2015-01-01 00:55:11.000, 0.902, 0.134, 0.394, -1.099, 0.183, 0.549, 19.017, -65.511, 132.792, -21.433, -16.087, -16.840, 26.48, -0.25037, -0.5448, 0.08591, -0.79562,
 12:42:39.525,e3:ca:2d:fd:e0:8c, 2015-01-01 00:55:10.795, 0.768, -0.092, -0.655, 0.305, 0.183, 0, -171.898, -49.323, -41.776, -28.413, -11.393, 11.347, 24.93, 0.08826, 0.85773, -0.29526, 0.41141,
 12:42:39.525,e3:ca:2d:fd:e0:8c, 2015-01-01 00:55:10.795, 0.769, -0.091, -0.655, 0.183, 0.061, 0, -171.892, -49.323, -41.797, -28.413, -11.393, 11.347, 24.93, 0.08826, 0.85773, -0.29526, 0.41141,
 12:42:39.525,ed:40:fe:65:30:6c, 2015-01-01 00:55:16.070, 0.996, 0.059, -0.085, 0, -0.244, 0.061, 147.816, -83.974, 81.425, -26.960, -15.920, 18.253, 25.15, 0.26346, -0.6622, -0.32565, -0.62122,
 12:42:39.525,ed:40:fe:65:30:6c, 2015-01-01 00:55:16.070, 1, 0.06, -0.09, 0, -0.305, 0.061, 147.843, -83.969, 81.392, -26.960, -15.920, 18.253, 25.15, 0.26346, -0.6622, -0.32565, -0.62122,
 12:42:39.527,f6:90:cc:01:6d:25, 2015-01-01 00:55:11.285, 0.696, -0.013, -0.703, 0.122, -0.061, 0, -178.934, -44.967, -23.264, -26.820, -14.393, 17.673, 28.23, 0.06888, 0.90561, -0.1828, 0.37631,
 12:42:39.527,f6:90:cc:01:6d:25, 2015-01-01 00:55:11.285, 0.697, -0.012, -0.703, 0, 0, 0, -178.929, -44.967, -23.264, -26.820, -14.393, 17.673, 28.23, 0.06888, 0.90561, -0.1828, 0.37631,
 12:42:39.548,e3:ca:2d:fd:e0:8c, 2015-01-01 00:55:10.795, 0.77, -0.092, -0.655, 0, 0.183, 0, -171.892, -49.323, -41.808, -28.320, -11.513, 10.513, 24.93, 0.08826, 0.85773, -0.29526, 0.41141,
 12:42:39.548,e3:ca:2d:fd:e0:8c, 2015-01-01 00:55:10.795, 0.768, -0.092, -0.654, 0.122, 0.122, 0, -171.887, -49.329, -41.808, -28.320, -11.513, 10.513, 24.93, 0.08826, 0.85773, -0.29526, 0.41141,
 12:42:39.550,f6:90:cc:01:6d:25, 2015-01-01 00:55:11.285, 0.697, -0.012, -0.701, 0, -0.183, 0, -178.929, -44.962, -23.269, -26.820, -14.393, 17.673, 28.23, 0.06888, 0.90561, -0.1828, 0.37631,
 12:42:39.550,f6:90:cc:01:6d:25, 2015-01-01 00:55:11.285, 0.695, -0.012, -0.7, -0.122, -0.427, 0, -178.929, -44.956, -23.269, -26.820, -14.393, 17.673, 28.23, 0.06888, 0.90561, -0.1828, 0.37631,
 12:42:39.550,ed:35:33:d3:6c:f8, 2015-01-01 00:55:11.290, 0.907, 0.136, 0.391, -1.038, 1.282, 0.427, 18.968, -65.495, 132.825, -21.433, -16.087, -16.840, 26.48, -0.25037, -0.5448, 0.08591, -0.79562,
 12:42:39.550,ed:35:33:d3:6c:f8, 2015-01-01 00:55:11.290, 0.912, 0.14, 0.382, -1.648, 2.93, 0.732, 18.88, -65.451, 132.913, -21.433, -16.087, -16.840, 26.48, -0.25037, -0.5448, 0.08591, -0.79562,
 12:42:39.570,ed:40:fe:65:30:6c, 2015-01-01 00:55:16.070, 1, 0.059, -0.098, 0.122, 0, 0.122, 147.865, -83.963, 81.359, -26.960, -15.920, 18.253, 25.15, 0.26346, -0.6622, -0.32565, -0.62122,
 12:42:39.570,ed:40:fe:65:30:6c, 2015-01-01 00:55:16.070, 0.999, 0.06, -0.1, 0.244, 0.366, 0.244, 147.876, -83.969, 81.348, -26.960, -15.920, 18.253, 25.15, 0.26346, -0.6622, -0.32565, -0.62122,
 12:42:39.571,f6:90:cc:01:6d:25, 2015-01-01 00:55:11.285, 0.695, -0.013, -0.703, -0.061, -0.061, 0, -178.934, -44.945, -23.269, -26.820, -14.393, 17.673, 28.23, 0.06888, 0.90561, -0.1828, 0.37631,
 12:42:39.571,f6:90:cc:01:6d:25, 2015-01-01 00:55:11.285, 0.695, -0.013, -0.706, 0.183, 0.366, 0, -178.934, -44.945, -23.269, -26.820, -14.393, 17.673, 28.23, 0.06888, 0.90561, -0.1828, 0.37631,
 12:42:39.593,e3:ca:2d:fd:e0:8c, 2015-01-01 00:55:10.795, 0.765, -0.093, -0.652, 0.183, -0.122, 0, -171.887, -49.323, -41.808, -28.320, -11.513, 10.513, 24.93, 0.08826, 0.85773, -0.29526, 0.41141,
 12:42:39.593,e3:ca:2d:fd:e0:8c, 2015-01-01 00:55:10.795, 0.766, -0.092, -0.652, 0.122, -0.122, 0, -171.887, -49.323, -41.819, -28.320, -11.513, 10.513, 24.93, 0.08826, 0.85773, -0.29526, 0.41141,
 12:42:39.595,ed:35:33:d3:6c:f8, 2015-01-01 00:55:11.290, 0.91, 0.141, 0.38, -2.625, 4.456, 1.343, 18.732, -65.38, 133.061, -21.433, -16.087, -16.840, 26.48, -0.25037, -0.5448, 0.08591, -0.79562,
 12:42:39.595,ed:35:33:d3:6c:f8, 2015-01-01 00:55:11.290, 0.903, 0.133, 0.391, -2.869, 4.639, 1.343, 18.572, -65.308, 133.22, -21.433, -16.087, -16.840, 26.48, -0.25037, -0.5448, 0.08591, -0.79562,
