Time,Device name,Chip Time(),Acceleration X(g),Acceleration Y(g),Acceleration Z(g),Angular velocity X(°/s),Angular velocity Y(°/s),Angular velocity Z(°/s),Angle X(°),Angle Y(°),Angle Z(°),Magnetic field X(ʯt),Magnetic field Y(ʯt),Magnetic field Z(ʯt),Temperature(℃),Quaternions 0(),Quaternions 1(),Quaternions 2(),Quaternions 3()
 14:00:44.320,ed:40:fe:65:30:6c, 2015-01-01 02:12:48.220, 0.642, 0.229, 0.733, -0.61, 1.465, -2.747, 17.336, -39.749, -137.411, -20.573, -13.773, -2.833, 26.26, 0.39133, -0.26144, -0.25195, -0.84552,
 14:00:44.321,ed:40:fe:65:30:6c, 2015-01-01 02:12:48.220, 0.634, 0.231, 0.737, -1.099, 1.892, -1.892, 17.342, -39.705, -137.461, -20.573, -13.773, -2.833, 26.26, 0.39133, -0.26144, -0.25195, -0.84552,
 14:00:44.323,e3:ca:2d:fd:e0:8c, 2015-01-01 02:12:42.810, 0.98, -0.144, 0.267, -0.183, -1.526, -0.549, -27.224, -73.317, -169.239, -27.753, -8.787, -11.413, 28.67, -0.06842, -0.59521, 0.1337, -0.78934,
 14:00:44.323,e3:ca:2d:fd:e0:8c, 2015-01-01 02:12:42.810, 0.981, -0.134, 0.263, -0.488, -1.526, -0.549, -27.246, -73.345, -169.239, -27.753, -8.787, -11.413, 28.67, -0.06842, -0.59521, 0.1337, -0.78934,
 14:00:44.323,f6:90:cc:01:6d:25, 2015-01-01 02:12:43.360, 0.98, 0.116, 0.078, -1.221, 2.38, -0.244, 61.018, -80.854, 135.527, -29.747, -14.193, 1.020, 32.8, -0.05655, 0.66415, 0.14658, 0.73083,
 14:00:44.323,f6:90:cc:01:6d:25, 2015-01-01 02:12:43.360, 0.977, 0.115, 0.083, -0.916, 2.563, -0.427, 60.716, -80.826, 135.846, -29.747, -14.193, 1.020, 32.8, -0.05655, 0.66415, 0.14658, 0.73083,
 14:00:44.325,ed:35:33:d3:6c:f8, 2015-01-01 02:12:43.245, 0.335, 0.325, 0.879, -0.244, 3.723, -8.789, 19.633, -19.276, 163.85, -10.367, -16.380, -30.767, 31.45, -0.09158, -0.18823, -0.14401, -0.96713,
 14:00:44.327,ed:35:33:d3:6c:f8, 2015-01-01 02:12:43.245, 0.328, 0.327, 0.887, -1.953, 6.47, -10.559, 19.655, -19.111, 163.51, -10.367, -16.380, -30.767, 31.45, -0.09158, -0.18823, -0.14401, -0.96713,
 14:00:44.345,f6:90:cc:01:6d:25, 2015-01-01 02:12:43.360, 0.972, 0.117, 0.081, -0.427, 2.38, -0.305, 60.436, -80.804, 136.132, -29.747, -14.193, 1.020, 32.8, -0.05655, 0.66415, 0.14658, 0.73083,
 14:00:44.345,f6:90:cc:01:6d:25, 2015-01-01 02:12:43.360, 0.966, 0.122, 0.08, 0.305, 2.136, -0.061, 60.183, -80.793, 136.401, -29.747, -14.193, 1.020, 32.8, -0.05655, 0.66415, 0.14658, 0.73083,
 14:00:44.366,ed:40:fe:65:30:6c, 2015-01-01 02:12:48.220, 0.628, 0.234, 0.737, -1.404, 2.075, -1.099, 17.331, -39.661, -137.488, -20.573, -13.773, -2.833, 26.26, 0.39133, -0.26144, -0.25195, -0.84552,
 14:00:44.366,ed:40:fe:65:30:6c, 2015-01-01 02:12:48.220, 0.629, 0.234, 0.739, -1.221, 2.014, -0.427, 17.303, -39.622, -137.499, -20.573, -13.773, -2.833, 26.26, 0.39133, -0.26144, -0.25195, -0.84552,
 14:00:44.367,e3:ca:2d:fd:e0:8c, 2015-01-01 02:12:42.810, 0.98, -0.133, 0.255, -0.732, -1.892, -0.244, -27.301, -73.378, -169.211, -27.753, -8.787, -11.413, 28.67, -0.06842, -0.59521, 0.1337, -0.78934,
 14:00:44.367,e3:ca:2d:fd:e0:8c, 2015-01-01 02:12:42.810, 0.98, -0.136, 0.249, -0.671, -1.709, -0.061, -27.361, -73.405, -169.156, -27.753, -8.787, -11.413, 28.67, -0.06842, -0.59521, 0.1337, -0.78934,
 14:00:44.370,ed:35:33:d3:6c:f8, 2015-01-01 02:12:43.245, 0.316, 0.332, 0.888, -2.38, 7.629, -8.667, 19.649, -18.929, 163.224, -10.367, -16.380, -30.767, 31.45, -0.09158, -0.18823, -0.14401, -0.96713,
 14:00:44.370,ed:35:33:d3:6c:f8, 2015-01-01 02:12:43.245, 0.312, 0.329, 0.888, -2.38, 7.568, -8.118, 19.644, -18.743, 163.021, -10.367, -16.380, -30.767, 31.45, -0.09158, -0.18823, -0.14401, -0.96713,
 14:00:44.391,f6:90:cc:01:6d:25, 2015-01-01 02:12:43.360, 0.965, 0.128, 0.074, 0.366, 1.892, 0.183, 59.952, -80.782, 136.648, -29.747, -14.193, 1.020, 32.8, -0.05655, 0.66415, 0.14658, 0.73083,
 14:00:44.391,f6:90:cc:01:6d:25, 2015-01-01 02:12:43.360, 0.968, 0.13, 0.079, -0.366, 1.343, 0.305, 59.76, -80.782, 136.829, -29.747, -14.193, 1.020, 32.8, -0.05655, 0.66415, 0.14658, 0.73083,
 14:00:44.412,ed:40:fe:65:30:6c, 2015-01-01 02:12:48.220, 0.63, 0.231, 0.739, -0.977, 1.77, 0, 17.276, -39.589, -137.505, -20.573, -13.773, -2.833, 26.26, 0.39133, -0.26144, -0.25195, -0.84552,
 14:00:44.412,ed:40:fe:65:30:6c, 2015-01-01 02:12:48.220, 0.633, 0.228, 0.743, -0.671, 1.282, 0.427, 17.249, -39.562, -137.499, -20.573, -13.773, -2.833, 26.26, 0.39133, -0.26144, -0.25195, -0.84552,
 14:00:44.414,ed:35:33:d3:6c:f8, 2015-01-01 02:12:43.245, 0.313, 0.329, 0.889, -1.831, 7.935, -7.019, 19.638, -18.556, 162.828, -10.367, -16.380, -30.767, 31.45, -0.09158, -0.18823, -0.14401, -0.96713,
 14:00:44.414,ed:35:33:d3:6c:f8, 2015-01-01 02:12:43.245, 0.311, 0.326, 0.893, -1.648, 7.08, -6.042, 19.633, -18.386, 162.664, -10.367, -16.380, -30.767, 31.45, -0.09158, -0.18823, -0.14401, -0.96713,
 14:00:44.433,ed:40:fe:65:30:6c, 2015-01-01 02:12:48.220, 0.637, 0.228, 0.743, -0.549, 0.916, 0.916, 17.221, -39.54, -137.472, -20.227, -13.847, -2.987, 26.26, 0.39133, -0.26144, -0.25195, -0.84552,
 14:00:44.433,ed:40:fe:65:30:6c, 2015-01-01 02:12:48.220, 0.637, 0.224, 0.738, -0.427, 0.732, 1.16, 17.194, -39.534, -137.428, -20.227, -13.847, -2.987, 26.26, 0.39133, -0.26144, -0.25195, -0.84552,
 14:00:44.435,e3:ca:2d:fd:e0:8c, 2015-01-01 02:12:42.810, 0.981, -0.138, 0.25, -0.488, -1.221, 0, -27.411, -73.427, -169.107, -27.753, -8.787, -11.413, 28.67, -0.06714, -0.59601, 0.13391, -0.78882,
 14:00:44.435,e3:ca:2d:fd:e0:8c, 2015-01-01 02:12:42.810, 0.981, -0.134, 0.247, 0, -0.793, -0.061, -27.433, -73.444, -169.069, -27.753, -8.787, -11.413, 28.67, -0.06714, -0.59601, 0.13391, -0.78882,
 14:00:44.435,f6:90:cc:01:6d:25, 2015-01-01 02:12:43.360, 0.972, 0.128, 0.082, 0.427, 0.854, 0.122, 59.65, -80.782, 136.967, -29.747, -14.193, 1.020, 32.8, -0.05655, 0.66415, 0.14658, 0.73083,
 14:00:44.435,f6:90:cc:01:6d:25, 2015-01-01 02:12:43.360, 0.976, 0.125, 0.081, 1.282, 0.305, -0.061, 59.628, -80.782, 137.038, -29.747, -14.193, 1.020, 32.8, -0.05655, 0.66415, 0.14658, 0.73083,
 14:00:44.437,ed:35:33:d3:6c:f8, 2015-01-01 02:12:43.245, 0.306, 0.322, 0.899, -2.869, 7.202, -7.263, 19.611, -18.215, 162.493, -10.047, -16.533, -31.053, 31.45, -0.09158, -0.18823, -0.14401, -0.96713,
 14:00:44.437,ed:35:33:d3:6c:f8, 2015-01-01 02:12:43.245, 0.312, 0.322, 0.901, -3.235, 7.141, -7.446, 19.583, -18.04, 162.345, -10.047, -16.533, -31.053, 31.45, -0.09158, -0.18823, -0.14401, -0.96713,
 14:00:44.478,ed:40:fe:65:30:6c, 2015-01-01 02:12:48.220, 0.639, 0.221, 0.739, -0.183, 0.732, 0.916, 17.166, -39.523, -137.39, -20.227, -13.847, -2.987, 26.26, 0.39133, -0.26144, -0.25195, -0.84552,
 14:00:44.478,ed:40:fe:65:30:6c, 2015-01-01 02:12:48.220, 0.634, 0.227, 0.739, -0.183, 0.549, 0.366, 17.15, -39.512, -137.362, -20.227, -13.847, -2.987, 26.26, 0.39133, -0.26144, -0.25195, -0.84552,
 14:00:44.481,e3:ca:2d:fd:e0:8c, 2015-01-01 02:12:43.165, 0.983, -0.131, 0.253, 0.305, -0.183, -0.122, -27.433, -73.449, -169.047, -27.753, -8.787, -11.413, 28.67, -0.06714, -0.59601, 0.13391, -0.78882,
 14:00:44.481,e3:ca:2d:fd:e0:8c, 2015-01-01 02:12:43.165, 0.981, -0.129, 0.259, -0.244, 0.305, -0.244, -27.411, -73.449, -169.063, -27.753, -8.787, -11.413, 28.67, -0.06714, -0.59601, 0.13391, -0.78882,
 14:00:44.482,ed:35:33:d3:6c:f8, 2015-01-01 02:12:43.245, 0.309, 0.309, 0.895, -3.784, 5.188, -3.967, 19.534, -17.908, 162.213, -10.047, -16.533, -31.053, 31.45, -0.09158, -0.18823, -0.14401, -0.96713,
 14:00:44.482,ed:35:33:d3:6c:f8, 2015-01-01 02:12:43.245, 0.303, 0.308, 0.899, -5.066, 4.883, -5.676, 19.462, -17.792, 162.07, -10.047, -16.533, -31.053, 31.45, -0.09158, -0.18823, -0.14401, -0.96713,
 14:00:44.502,e3:ca:2d:fd:e0:8c, 2015-01-01 02:12:43.165, 0.98, -0.128, 0.26, -0.61, 0.061, -0.122, -27.4, -73.449, -169.091, -27.753, -8.787, -11.413, 28.67, -0.06714, -0.59601, 0.13391, -0.78882,
 14:00:44.502,e3:ca:2d:fd:e0:8c, 2015-01-01 02:12:43.165, 0.979, -0.131, 0.263, -0.488, -0.305, -0.183, -27.4, -73.449, -169.113, -27.753, -8.787, -11.413, 28.67, -0.06714, -0.59601, 0.13391, -0.78882,
 14:00:44.503,f6:90:cc:01:6d:25, 2015-01-01 02:12:43.360, 0.976, 0.132, 0.081, 1.892, 0, -0.244, 59.661, -80.782, 137.032, -29.747, -14.193, 1.020, 32.8, -0.05655, 0.66415, 0.14658, 0.73083,
 14:00:44.503,f6:90:cc:01:6d:25, 2015-01-01 02:12:43.360, 0.976, 0.138, 0.081, 2.014, 0.244, -0.366, 59.678, -80.777, 137.021, -29.747, -14.193, 1.020, 32.8, -0.05655, 0.66415, 0.14658, 0.73083,
 14:00:44.524,e3:ca:2d:fd:e0:8c, 2015-01-01 02:12:43.165, 0.979, -0.127, 0.261, -0.122, -0.122, -0.244, -27.4, -73.46, -169.151, -27.753, -8.787, -11.413, 28.67, -0.06714, -0.59601, 0.13391, -0.78882,
 14:00:44.524,e3:ca:2d:fd:e0:8c, 2015-01-01 02:12:43.165, 0.98, -0.127, 0.262, -0.366, -0.183, -0.244, -27.389, -73.466, -169.178, -27.753, -8.787, -11.413, 28.67, -0.06714, -0.59601, 0.13391, -0.78882,
 14:00:44.525,f6:90:cc:01:6d:25, 2015-01-01 02:12:43.360, 0.973, 0.139, 0.082, 2.014, 0.427, -0.671, 59.7, -80.766, 137.027, -29.500, -14.233, 0.680, 32.8, -0.05655, 0.66415, 0.14658, 0.73083,
 14:00:44.525,f6:90:cc:01:6d:25, 2015-01-01 02:12:43.360, 0.976, 0.138, 0.082, 1.16, 0.244, -0.854, 59.738, -80.75, 137.016, -29.500, -14.233, 0.680, 32.8, -0.05655, 0.66415, 0.14658, 0.73083,
 14:00:44.526,ed:35:33:d3:6c:f8, 2015-01-01 02:12:43.245, 0.303, 0.315, 0.897, -5.066, 0.488, -3.113, 19.38, -17.743, 161.911, -10.047, -16.533, -31.053, 31.45, -0.12506, -0.17703, -0.14154, -0.96585,
 14:00:44.526,ed:35:33:d3:6c:f8, 2015-01-01 02:12:43.245, 0.3, 0.308, 0.901, -3.418, 1.831, -3.723, 19.33, -17.693, 161.763, -10.047, -16.533, -31.053, 31.45, -0.12506, -0.17703, -0.14154, -0.96585,
 14:00:44.546,ed:40:fe:65:30:6c, 2015-01-01 02:12:48.220, 0.635, 0.227, 0.738, -0.061, 0.366, 0.061, 17.139, -39.507, -137.351, -20.227, -13.847, -2.987, 26.26, 0.38519, -0.26041, -0.25226, -0.84857,
 14:00:44.546,ed:40:fe:65:30:6c, 2015-01-01 02:12:48.220, 0.635, 0.223, 0.74, 0, 0.183, -0.183, 17.139, -39.501, -137.351, -20.227, -13.847, -2.987, 26.26, 0.38519, -0.26041, -0.25226, -0.84857,
 14:00:44.569,ed:40:fe:65:30:6c, 2015-01-01 02:12:48.555, 0.634, 0.22, 0.744, 0, 0, -0.427, 17.139, -39.496, -137.362, -20.227, -13.847, -2.987, 26.26, 0.38519, -0.26041, -0.25226, -0.84857,
 14:00:44.569,ed:40:fe:65:30:6c, 2015-01-01 02:12:48.555, 0.631, 0.224, 0.746, 0.122, -0.061, -0.671, 17.15, -39.496, -137.384, -20.227, -13.847, -2.987, 26.26, 0.38519, -0.26041, -0.25226, -0.84857,
 14:00:44.570,e3:ca:2d:fd:e0:8c, 2015-01-01 02:12:43.165, 0.983, -0.127, 0.259, -1.16, -0.916, -0.183, -27.389, -73.471, -169.178, -27.753, -8.787, -11.413, 28.67, -0.06714, -0.59601, 0.13391, -0.78882,
 14:00:44.570,e3:ca:2d:fd:e0:8c, 2015-01-01 02:12:43.165, 0.982, -0.131, 0.255, -1.16, -0.916, -0.244, -27.422, -73.493, -169.162, -27.753, -8.787, -11.413, 28.67, -0.06714, -0.59601, 0.13391, -0.78882,
 14:00:44.572,f6:90:cc:01:6d:25, 2015-01-01 02:12:43.360, 0.976, 0.135, 0.084, 0.488, 0.183, -1.099, 59.793, -80.733, 136.95, -29.500, -14.233, 0.680, 32.8, -0.05655, 0.66415, 0.14658, 0.73083,
 14:00:44.572,f6:90:cc:01:6d:25, 2015-01-01 02:12:43.360, 0.972, 0.137, 0.083, 0.122, 0.305, -1.282, 59.832, -80.717, 136.906, -29.500, -14.233, 0.680, 32.8, -0.05655, 0.66415, 0.14658, 0.73083,
 14:00:44.572,ed:35:33:d3:6c:f8, 2015-01-01 02:12:43.560, 0.3, 0.305, 0.902, -2.502, 2.197, -3.479, 19.297, -17.633, 161.642, -10.047, -16.533, -31.053, 31.45, -0.12506, -0.17703, -0.14154, -0.96585,
 14:00:44.572,ed:35:33:d3:6c:f8, 2015-01-01 02:12:43.560, 0.297, 0.307, 0.902, -2.075, 0.671, -2.441, 19.27, -17.611, 161.559, -10.047, -16.533, -31.053, 31.45, -0.12506, -0.17703, -0.14154, -0.96585,
 14:00:44.616,e3:ca:2d:fd:e0:8c, 2015-01-01 02:12:43.165, 0.977, -0.135, 0.256, -0.366, -0.549, -0.427, -27.438, -73.51, -169.173, -27.753, -8.787, -11.413, 28.67, -0.06714, -0.59601, 0.13391, -0.78882,
 14:00:44.616,e3:ca:2d:fd:e0:8c, 2015-01-01 02:12:43.165, 0.975, -0.134, 0.251, 0, -0.305, -0.488, -27.427, -73.521, -169.206, -27.753, -8.787, -11.413, 28.67, -0.06714, -0.59601, 0.13391, -0.78882,
 14:00:44.616,f6:90:cc:01:6d:25, 2015-01-01 02:12:43.360, 0.967, 0.135, 0.083, 0, 0, -1.587, 59.875, -80.689, 136.857, -29.500, -14.233, 0.680, 32.8, -0.05774, 0.66156, 0.14737, 0.73291,
 14:00:44.616,f6:90:cc:01:6d:25, 2015-01-01 02:12:43.360, 0.966, 0.131, 0.08, 0.427, -0.122, -2.075, 59.963, -80.662, 136.741, -29.500, -14.233, 0.680, 32.8, -0.05774, 0.66156, 0.14737, 0.73291,
 14:00:44.618,ed:35:33:d3:6c:f8, 2015-01-01 02:12:43.560, 0.297, 0.309, 0.903, 0.061, -0.977, -2.075, 19.281, -17.622, 161.488, -10.047, -16.533, -31.053, 31.45, -0.12506, -0.17703, -0.14154, -0.96585,
 14:00:44.618,ed:35:33:d3:6c:f8, 2015-01-01 02:12:43.560, 0.297, 0.297, 0.895, 0.305, -0.732, -1.831, 19.297, -17.622, 161.433, -10.047, -16.533, -31.053, 31.45, -0.12506, -0.17703, -0.14154, -0.96585,
 14:00:44.636,ed:40:fe:65:30:6c, 2015-01-01 02:12:48.555, 0.628, 0.218, 0.741, 0.366, -0.244, -0.793, 17.161, -39.49, -137.406, -20.227, -13.847, -2.987, 26.26, 0.38519, -0.26041, -0.25226, -0.84857,
 14:00:44.636,ed:40:fe:65:30:6c, 2015-01-01 02:12:48.555, 0.625, 0.211, 0.736, 0.549, -0.305, -0.916, 17.177, -39.49, -137.422, -20.227, -13.847, -2.987, 26.26, 0.38519, -0.26041, -0.25226, -0.84857,
 14:00:44.639,ed:35:33:d3:6c:f8, 2015-01-01 02:12:43.560, 0.292, 0.294, 0.891, -0.732, -0.671, -2.136, 19.292, -17.622, 161.378, -10.047, -16.533, -31.053, 31.45, -0.12506, -0.17703, -0.14154, -0.96585,
 14:00:44.639,ed:35:33:d3:6c:f8, 2015-01-01 02:12:43.560, 0.293, 0.297, 0.893, 0.549, -2.136, -2.93, 19.319, -17.644, 161.323, -10.047, -16.533, -31.053, 31.45, -0.12506, -0.17703, -0.14154, -0.96585,
 14:00:44.659,ed:40:fe:65:30:6c, 2015-01-01 02:12:48.555, 0.621, 0.215, 0.737, 0.61, -0.244, -1.221, 17.205, -39.485, -137.45, -20.227, -13.847, -2.987, 26.26, 0.38519, -0.26041, -0.25226, -0.84857,
 14:00:44.659,ed:40:fe:65:30:6c, 2015-01-01 02:12:48.555, 0.63, 0.215, 0.747, 1.343, -0.244, -1.526, 17.238, -39.479, -137.477, -20.227, -13.847, -2.987, 26.26, 0.38519, -0.26041, -0.25226, -0.84857,
 14:00:44.660,e3:ca:2d:fd:e0:8c, 2015-01-01 02:12:43.165, 0.976, -0.132, 0.25, -0.488, 0, -0.366, -27.405, -73.531, -169.233, -27.753, -8.787, -11.413, 28.67, -0.06714, -0.59601, 0.13391, -0.78882,
 14:00:44.660,e3:ca:2d:fd:e0:8c, 2015-01-01 02:12:43.165, 0.978, -0.134, 0.252, -0.732, 0.793, -0.183, -27.389, -73.531, -169.25, -27.753, -8.787, -11.413, 28.67, -0.06714, -0.59601, 0.13391, -0.78882,
 14:00:44.661,f6:90:cc:01:6d:25, 2015-01-01 02:12:43.360, 0.963, 0.133, 0.085, 0.732, -0.244, -2.441, 60.106, -80.629, 136.593, -29.500, -14.233, 0.680, 32.8, -0.05774, 0.66156, 0.14737, 0.73291,
 14:00:44.661,f6:90:cc:01:6d:25, 2015-01-01 02:12:43.360, 0.967, 0.136, 0.083, 0.671, -0.488, -2.441, 60.271, -80.596, 136.423, -29.500, -14.233, 0.680, 32.8, -0.05774, 0.66156, 0.14737, 0.73291,
 14:00:44.681,ed:40:fe:65:30:6c, 2015-01-01 02:12:48.555, 0.635, 0.224, 0.736, 1.648, -0.488, -1.77, 17.287, -39.474, -137.51, -20.227, -13.847, -2.987, 26.26, 0.38519, -0.26041, -0.25226, -0.84857,
 14:00:44.681,ed:40:fe:65:30:6c, 2015-01-01 02:12:48.555, 0.63, 0.227, 0.735, 1.16, -0.305, -2.014, 17.336, -39.468, -137.549, -20.227, -13.847, -2.987, 26.26, 0.38519, -0.26041, -0.25226, -0.84857,
 14:00:44.681,e3:ca:2d:fd:e0:8c, 2015-01-01 02:12:43.165, 0.978, -0.14, 0.257, 0, 1.099, -0.183, -27.361, -73.521, -169.294, -27.567, -9.173, -11.007, 28.67, -0.06714, -0.59601, 0.13391, -0.78882,
 14:00:44.681,e3:ca:2d:fd:e0:8c, 2015-01-01 02:12:43.165, 0.979, -0.139, 0.259, 0.977, 1.038, -0.244, -27.318, -73.504, -169.343, -27.567, -9.173, -11.007, 28.67, -0.06714, -0.59601, 0.13391, -0.78882,
 14:00:44.684,ed:35:33:d3:6c:f8, 2015-01-01 02:12:43.560, 0.305, 0.304, 0.901, 1.892, -4.333, -3.296, 19.38, -17.704, 161.263, -10.047, -16.533, -31.053, 31.45, -0.12506, -0.17703, -0.14154, -0.96585,
 14:00:44.684,ed:35:33:d3:6c:f8, 2015-01-01 02:12:43.560, 0.301, 0.312, 0.895, 2.747, -5.554, -3.479, 19.462, -17.787, 161.191, -10.047, -16.533, -31.053, 31.45, -0.12506, -0.17703, -0.14154, -0.96585,
 14:00:44.684,f6:90:cc:01:6d:25, 2015-01-01 02:12:43.360, 0.972, 0.134, 0.083, 0, -1.526, -2.441, 60.48, -80.563, 136.203, -29.500, -14.233, 0.680, 32.8, -0.05774, 0.66156, 0.14737, 0.73291,
 14:00:44.685,f6:90:cc:01:6d:25, 2015-01-01 02:12:43.360, 0.974, 0.139, 0.083, 0.183, -1.221, -2.563, 60.754, -80.535, 135.917, -29.500, -14.233, 0.680, 32.8, -0.05774, 0.66156, 0.14737, 0.73291,
 14:00:44.726,ed:40:fe:65:30:6c, 2015-01-01 02:12:48.555, 0.63, 0.232, 0.738, 0.977, -0.549, -2.747, 17.391, -39.463, -137.582, -20.227, -13.847, -2.987, 26.26, 0.38519, -0.26041, -0.25226, -0.84857,
 14:00:44.726,ed:40:fe:65:30:6c, 2015-01-01 02:12:48.555, 0.64, 0.237, 0.737, 0.305, -0.916, -3.784, 17.452, -39.452, -137.642, -20.227, -13.847, -2.987, 26.26, 0.38519, -0.26041, -0.25226, -0.84857,
 14:00:44.728,e3:ca:2d:fd:e0:8c, 2015-01-01 02:12:43.165, 0.98, -0.133, 0.261, 0.61, 0.61, -0.305, -27.257, -73.488, -169.404, -27.567, -9.173, -11.007, 28.67, -0.06714, -0.59601, 0.13391, -0.78882,
 14:00:44.728,e3:ca:2d:fd:e0:8c, 2015-01-01 02:12:43.165, 0.981, -0.132, 0.26, 0.061, 0, -0.488, -27.219, -73.482, -169.492, -27.567, -9.173, -11.007, 28.67, -0.06714, -0.59601, 0.13391, -0.78882,
 14:00:44.729,f6:90:cc:01:6d:25, 2015-01-01 02:12:43.360, 0.975, 0.148, 0.086, -1.404, -0.977, -2.319, 60.985, -80.508, 135.692, -29.500, -14.233, 0.680, 32.8, -0.05774, 0.66156, 0.14737, 0.73291,
 14:00:44.729,f6:90:cc:01:6d:25, 2015-01-01 02:12:43.360, 0.976, 0.152, 0.083, -3.479, -0.854, -1.526, 61.144, -80.48, 135.533, -29.500, -14.233, 0.680, 32.8, -0.05774, 0.66156, 0.14737, 0.73291,
 14:00:44.729,ed:35:33:d3:6c:f8, 2015-01-01 02:12:43.560, 0.294, 0.311, 0.895, 4.395, -5.615, -3.174, 19.572, -17.869, 161.147, -10.047, -16.533, -31.053, 31.45, -0.12506, -0.17703, -0.14154, -0.96585,
 14:00:44.729,ed:35:33:d3:6c:f8, 2015-01-01 02:12:43.560, 0.31, 0.312, 0.899, 4.7, -3.906, -3.784, 19.688, -17.913, 161.109, -10.047, -16.533, -31.053, 31.45, -0.12506, -0.17703, -0.14154, -0.96585,
 14:00:44.752,f6:90:cc:01:6d:25, 2015-01-01 02:12:43.360, 0.976, 0.146, 0.08, -4.333, -0.549, -1.038, 61.205, -80.464, 135.423, -29.500, -14.233, 0.680, 32.88, -0.05774, 0.66156, 0.14737, 0.73291,
 14:00:44.752,f6:90:cc:01:6d:25, 2015-01-01 02:12:43.360, 0.978, 0.14, 0.074, -3.357, -0.061, -1.282, 61.21, -80.447, 135.374, -29.500, -14.233, 0.680, 32.88, -0.05774, 0.66156, 0.14737, 0.73291,
 14:00:44.771,ed:40:fe:65:30:6c, 2015-01-01 02:12:48.555, 0.643, 0.238, 0.734, -0.244, -1.038, -4.395, 17.512, -39.446, -137.725, -20.227, -13.847, -2.987, 26.26, 0.38519, -0.26041, -0.25226, -0.84857,
 14:00:44.771,ed:40:fe:65:30:6c, 2015-01-01 02:12:48.555, 0.644, 0.237, 0.735, -0.854, -0.977, -4.395, 17.573, -39.435, -137.829, -20.227, -13.847, -2.987, 26.26, 0.38519, -0.26041, -0.25226, -0.84857,
 14:00:44.774,ed:35:33:d3:6c:f8, 2015-01-01 02:12:43.560, 0.315, 0.322, 0.894, 3.235, -1.343, -4.639, 19.775, -17.902, 161.087, -9.427, -16.540, -30.660, 31.45, -0.12506, -0.17703, -0.14154, -0.96585,
 14:00:44.774,ed:35:33:d3:6c:f8, 2015-01-01 02:12:43.560, 0.317, 0.327, 0.896, 1.282, -1.77, -5.188, 19.83, -17.902, 161.065, -9.427, -16.540, -30.660, 31.45, -0.12506, -0.17703, -0.14154, -0.96585,
 14:00:44.795,e3:ca:2d:fd:e0:8c, 2015-01-01 02:12:43.165, 0.983, -0.132, 0.259, 0.305, -0.305, -0.549, -27.191, -73.488, -169.541, -27.567, -9.173, -11.007, 28.67, -0.06876, -0.59622, 0.13449, -0.78842,
 14:00:44.795,e3:ca:2d:fd:e0:8c, 2015-01-01 02:12:43.165, 0.984, -0.13, 0.258, 0.488, -0.122, -0.671, -27.164, -73.499, -169.563, -27.567, -9.173, -11.007, 28.67, -0.06876, -0.59622, 0.13449, -0.78842,
 14:00:44.797,f6:90:cc:01:6d:25, 2015-01-01 02:12:43.360, 0.977, 0.137, 0.08, -2.441, 0.183, -1.709, 61.216, -80.425, 135.346, -29.500, -14.233, 0.680, 32.88, -0.05774, 0.66156, 0.14737, 0.73291,
 14:00:44.797,f6:90:cc:01:6d:25, 2015-01-01 02:12:43.360, 0.974, 0.138, 0.082, -1.709, 0.366, -1.892, 61.232, -80.392, 135.324, -29.500, -14.233, 0.680, 32.88, -0.05774, 0.66156, 0.14737, 0.73291,
 14:00:44.797,ed:35:33:d3:6c:f8, 2015-01-01 02:12:43.560, 0.316, 0.33, 0.89, 0.427, -1.038, -4.761, 19.863, -17.886, 161.043, -9.427, -16.540, -30.660, 31.45, -0.13376, -0.17911, -0.14291, -0.96411,
 14:00:44.797,ed:35:33:d3:6c:f8, 2015-01-01 02:12:43.560, 0.308, 0.336, 0.89, 0.366, -1.404, -3.967, 19.896, -17.886, 160.994, -9.427, -16.540, -30.660, 31.45, -0.13376, -0.17911, -0.14291, -0.96411,
 14:00:44.817,e3:ca:2d:fd:e0:8c, 2015-01-01 02:12:43.525, 0.983, -0.128, 0.26, -0.061, -0.305, -0.854, -27.12, -73.51, -169.596, -27.567, -9.173, -11.007, 28.67, -0.06876, -0.59622, 0.13449, -0.78842,
 14:00:44.817,e3:ca:2d:fd:e0:8c, 2015-01-01 02:12:43.525, 0.979, -0.129, 0.258, -0.549, -0.793, -0.977, -27.081, -73.526, -169.64, -27.567, -9.173, -11.007, 28.67, -0.06876, -0.59622, 0.13449, -0.78842,
 14:00:44.838,ed:40:fe:65:30:6c, 2015-01-01 02:12:48.555, 0.641, 0.238, 0.736, -1.221, -0.732, -3.967, 17.617, -39.424, -137.928, -19.987, -13.440, -2.473, 26.26, 0.38519, -0.26041, -0.25226, -0.84857,
 14:00:44.838,ed:40:fe:65:30:6c, 2015-01-01 02:12:48.555, 0.638, 0.243, 0.734, -1.282, -0.488, -3.54, 17.655, -39.413, -138.016, -19.987, -13.440, -2.473, 26.26, 0.38519, -0.26041, -0.25226, -0.84857,
 14:00:44.839,e3:ca:2d:fd:e0:8c, 2015-01-01 02:12:43.525, 0.979, -0.131, 0.254, -0.61, -0.916, -1.099, -27.059, -73.548, -169.673, -27.567, -9.173, -11.007, 28.67, -0.06876, -0.59622, 0.13449, -0.78842,
 14:00:44.839,e3:ca:2d:fd:e0:8c, 2015-01-01 02:12:43.525, 0.98, -0.132, 0.254, -0.366, -1.16, -1.099, -27.032, -73.575, -169.7, -27.567, -9.173, -11.007, 28.67, -0.06876, -0.59622, 0.13449, -0.78842,
 14:00:44.841,f6:90:cc:01:6d:25, 2015-01-01 02:12:43.850, 0.971, 0.141, 0.08, -1.587, 0.427, -1.709, 61.249, -80.359, 135.297, -29.500, -14.233, 0.680, 32.88, -0.05774, 0.66156, 0.14737, 0.73291,
 14:00:44.841,f6:90:cc:01:6d:25, 2015-01-01 02:12:43.850, 0.97, 0.142, 0.082, -1.526, 0.671, -1.648, 61.243, -80.327, 135.264, -29.500, -14.233, 0.680, 32.88, -0.05774, 0.66156, 0.14737, 0.73291,
 14:00:44.844,ed:35:33:d3:6c:f8, 2015-01-01 02:12:43.560, 0.317, 0.339, 0.885, 0.488, -1.526, -2.747, 19.924, -17.897, 160.928, -9.427, -16.540, -30.660, 31.45, -0.13376, -0.17911, -0.14291, -0.96411,
 14:00:44.844,ed:35:33:d3:6c:f8, 2015-01-01 02:12:43.560, 0.311, 0.338, 0.883, 0.916, -0.183, -1.587, 19.957, -17.891, 160.906, -9.427, -16.540, -30.660, 31.45, -0.13376, -0.17911, -0.14291, -0.96411,
 14:00:44.862,ed:40:fe:65:30:6c, 2015-01-01 02:12:48.555, 0.636, 0.243, 0.733, -1.099, -0.305, -2.93, 17.682, -39.402, -138.098, -19.987, -13.440, -2.473, 26.26, 0.38086, -0.25937, -0.25424, -0.85025,
 14:00:44.862,ed:40:fe:65:30:6c, 2015-01-01 02:12:48.555, 0.632, 0.243, 0.732, -0.549, -0.305, -2.441, 17.71, -39.397, -138.159, -19.987, -13.440, -2.473, 26.26, 0.38086, -0.25937, -0.25424, -0.85025,
 14:00:44.885,e3:ca:2d:fd:e0:8c, 2015-01-01 02:12:43.525, 0.979, -0.13, 0.254, -0.122, -1.099, -1.099, -27.01, -73.608, -169.711, -27.567, -9.173, -11.007, 28.67, -0.06876, -0.59622, 0.13449, -0.78842,
 14:00:44.885,e3:ca:2d:fd:e0:8c, 2015-01-01 02:12:43.525, 0.98, -0.129, 0.25, -0.061, -0.671, -0.854, -26.982, -73.63, -169.717, -27.567, -9.173, -11.007, 28.67, -0.06876, -0.59622, 0.13449, -0.78842,
 14:00:44.886,f6:90:cc:01:6d:25, 2015-01-01 02:12:43.850, 0.967, 0.145, 0.081, -0.854, 0.793, -1.587, 61.221, -80.294, 135.264, -29.500, -14.233, 0.680, 32.88, -0.05774, 0.66156, 0.14737, 0.73291,
 14:00:44.886,f6:90:cc:01:6d:25, 2015-01-01 02:12:43.850, 0.967, 0.145, 0.081, -0.427, 0.488, -1.343, 61.205, -80.266, 135.308, -29.500, -14.233, 0.680, 32.88, -0.05774, 0.66156, 0.14737, 0.73291,
 14:00:44.888,ed:35:33:d3:6c:f8, 2015-01-01 02:12:43.850, 0.302, 0.345, 0.887, 1.404, -0.916, -1.831, 20.001, -17.902, 160.851, -9.427, -16.540, -30.660, 31.45, -0.13376, -0.17911, -0.14291, -0.96411,
 14:00:44.888,ed:35:33:d3:6c:f8, 2015-01-01 02:12:43.850, 0.304, 0.354, 0.885, 1.831, -1.709, -1.587, 20.056, -17.924, 160.785, -9.427, -16.540, -30.660, 31.45, -0.13376, -0.17911, -0.14291, -0.96411,
 14:00:44.907,ed:40:fe:65:30:6c, 2015-01-01 02:12:48.555, 0.628, 0.251, 0.737, -0.061, -0.061, -1.953, 17.743, -39.386, -138.203, -19.987, -13.440, -2.473, 26.26, 0.38086, -0.25937, -0.25424, -0.85025,
 14:00:44.907,ed:40:fe:65:30:6c, 2015-01-01 02:12:48.555, 0.632, 0.255, 0.734, -0.061, 0, -1.16, 17.765, -39.38, -138.235, -19.987, -13.440, -2.473, 26.26, 0.38086, -0.25937, -0.25424, -0.85025,
 14:00:44.909,f6:90:cc:01:6d:25, 2015-01-01 02:12:43.850, 0.972, 0.146, 0.076, -0.122, 0.305, -0.732, 61.21, -80.244, 135.352, -29.500, -14.233, 0.680, 32.88, -0.05774, 0.66156, 0.14737, 0.73291,
 14:00:44.909,f6:90:cc:01:6d:25, 2015-01-01 02:12:43.850, 0.978, 0.146, 0.078, -0.122, 0.061, -0.305, 61.21, -80.233, 135.379, -29.500, -14.233, 0.680, 32.88, -0.05774, 0.66156, 0.14737, 0.73291,
 14:00:44.929,e3:ca:2d:fd:e0:8c, 2015-01-01 02:12:43.525, 0.986, -0.129, 0.25, 0, -0.061, -0.488, -26.955, -73.647, -169.717, -27.567, -9.173, -11.007, 28.67, -0.06876, -0.59622, 0.13449, -0.78842,
 14:00:44.929,e3:ca:2d:fd:e0:8c, 2015-01-01 02:12:43.525, 0.986, -0.127, 0.254, -0.061, 0.244, -0.122, -26.933, -73.652, -169.722, -27.567, -9.173, -11.007, 28.67, -0.06876, -0.59622, 0.13449, -0.78842,
 14:00:44.929,ed:40:fe:65:30:6c, 2015-01-01 02:12:48.915, 0.64, 0.255, 0.732, -0.305, -0.244, -0.488, 17.776, -39.375, -138.257, -19.987, -13.440, -2.473, 26.26, 0.38086, -0.25937, -0.25424, -0.85025,
 14:00:44.929,ed:40:fe:65:30:6c, 2015-01-01 02:12:48.915, 0.642, 0.251, 0.73, -0.427, -0.244, 0.061, 17.781, -39.38, -138.263, -19.987, -13.440, -2.473, 26.26, 0.38086, -0.25937, -0.25424, -0.85025,
 14:00:44.932,ed:35:33:d3:6c:f8, 2015-01-01 02:12:43.850, 0.313, 0.354, 0.888, 0.793, 0.122, -0.916, 20.083, -17.919, 160.746, -9.427, -16.540, -30.660, 31.45, -0.13376, -0.17911, -0.14291, -0.96411,
 14:00:44.932,ed:35:33:d3:6c:f8, 2015-01-01 02:12:43.850, 0.317, 0.35, 0.886, -0.244, 0, -0.244, 20.089, -17.913, 160.67, -9.427, -16.540, -30.660, 31.45, -0.13376, -0.17911, -0.14291, -0.96411,
 14:00:44.954,f6:90:cc:01:6d:25, 2015-01-01 02:12:43.850, 0.977, 0.148, 0.08, 0.244, 0.244, -0.061, 61.205, -80.228, 135.401, -29.500, -14.233, 0.680, 32.88, -0.05774, 0.66156, 0.14737, 0.73291,
 14:00:44.954,f6:90:cc:01:6d:25, 2015-01-01 02:12:43.850, 0.973, 0.15, 0.078, 0.61, 0.305, 0.061, 61.183, -80.228, 135.439, -29.500, -14.233, 0.680, 32.88, -0.05774, 0.66156, 0.14737, 0.73291,
 14:00:44.974,ed:40:fe:65:30:6c, 2015-01-01 02:12:48.915, 0.64, 0.25, 0.736, -0.244, -0.122, 0.427, 17.776, -39.386, -138.257, -19.987, -13.440, -2.473, 26.26, 0.38086, -0.25937, -0.25424, -0.85025,
 14:00:44.974,ed:40:fe:65:30:6c, 2015-01-01 02:12:48.915, 0.635, 0.25, 0.734, 0, 0, 0.732, 17.776, -39.391, -138.241, -19.987, -13.440, -2.473, 26.26, 0.38086, -0.25937, -0.25424, -0.85025,
 14:00:44.977,e3:ca:2d:fd:e0:8c, 2015-01-01 02:12:43.525, 0.984, -0.126, 0.255, -0.244, 0.122, 0.122, -26.927, -73.652, -169.717, -27.567, -9.173, -11.007, 28.67, -0.06876, -0.59622, 0.13449, -0.78842,
 14:00:44.978,e3:ca:2d:fd:e0:8c, 2015-01-01 02:12:43.525, 0.981, -0.125, 0.256, -0.305, -0.244, 0, -26.933, -73.652, -169.695, -27.567, -9.173, -11.007, 28.67, -0.06876, -0.59622, 0.13449, -0.78842,
 14:00:44.979,ed:35:33:d3:6c:f8, 2015-01-01 02:12:43.850, 0.315, 0.341, 0.886, -0.488, 0.427, 0, 20.089, -17.908, 160.587, -9.427, -16.540, -30.660, 31.45, -0.13376, -0.17911, -0.14291, -0.96411,
 14:00:44.979,ed:35:33:d3:6c:f8, 2015-01-01 02:12:43.850, 0.312, 0.343, 0.888, 0.061, 0.549, 0.061, 20.099, -17.902, 160.477, -9.427, -16.540, -30.660, 31.45, -0.13376, -0.17911, -0.14291, -0.96411,
 14:00:45.000,ed:35:33:d3:6c:f8, 2015-01-01 02:12:43.850, 0.303, 0.343, 0.886, 1.77, -0.061, 0.793, 20.143, -17.913, 160.422, -9.427, -16.540, -30.660, 31.45, -0.13376, -0.17911, -0.14291, -0.96411,
 14:00:45.000,ed:35:33:d3:6c:f8, 2015-01-01 02:12:43.850, 0.303, 0.337, 0.884, 3.174, -2.747, 1.404, 20.215, -17.979, 160.345, -9.427, -16.540, -30.660, 31.45, -0.13376, -0.17911, -0.14291, -0.96411,
 14:00:45.018,ed:40:fe:65:30:6c, 2015-01-01 02:12:48.915, 0.632, 0.251, 0.732, 0, 0.122, 0.916, 17.77, -39.397, -138.214, -19.987, -13.440, -2.473, 26.26, 0.38086, -0.25937, -0.25424, -0.85025,
 14:00:45.018,ed:40:fe:65:30:6c, 2015-01-01 02:12:48.915, 0.632, 0.247, 0.734, -0.427, 0.183, 0.793, 17.765, -39.397, -138.186, -19.987, -13.440, -2.473, 26.26, 0.38086, -0.25937, -0.25424, -0.85025,
 14:00:45.020,e3:ca:2d:fd:e0:8c, 2015-01-01 02:12:43.525, 0.98, -0.124, 0.258, 0, -0.366, -0.061, -26.944, -73.658, -169.695, -27.567, -9.173, -11.007, 28.67, -0.06876, -0.59622, 0.13449, -0.78842,
 14:00:45.020,e3:ca:2d:fd:e0:8c, 2015-01-01 02:12:43.525, 0.983, -0.119, 0.254, 0.183, -0.61, -0.061, -26.949, -73.669, -169.673, -27.567, -9.173, -11.007, 28.67, -0.06876, -0.59622, 0.13449, -0.78842,
 14:00:45.021,f6:90:cc:01:6d:25, 2015-01-01 02:12:43.850, 0.971, 0.154, 0.083, 0, 0.244, 0.366, 61.15, -80.233, 135.5, -29.500, -14.233, 0.680, 32.88, -0.05774, 0.66156, 0.14737, 0.73291,
 14:00:45.021,f6:90:cc:01:6d:25, 2015-01-01 02:12:43.850, 0.968, 0.158, 0.083, -0.671, 0.488, 0.549, 61.084, -80.233, 135.571, -29.500, -14.233, 0.680, 32.88, -0.05774, 0.66156, 0.14737, 0.73291,
 14:00:45.042,e3:ca:2d:fd:e0:8c, 2015-01-01 02:12:43.525, 0.984, -0.117, 0.255, 0.183, -0.488, 0, -26.955, -73.68, -169.645, -27.487, -8.980, -10.400, 28.67, -0.06876, -0.59622, 0.13449, -0.78842,
 14:00:45.042,e3:ca:2d:fd:e0:8c, 2015-01-01 02:12:43.525, 0.981, -0.12, 0.258, -0.122, -0.244, 0.122, -26.955, -73.691, -169.634, -27.487, -8.980, -10.400, 28.67, -0.06876, -0.59622, 0.13449, -0.78842,
 14:00:45.043,f6:90:cc:01:6d:25, 2015-01-01 02:12:43.850, 0.971, 0.156, 0.08, -1.16, 0.122, 0.488, 61.013, -80.239, 135.648, -29.360, -14.567, 0.840, 32.88, -0.05774, 0.66156, 0.14737, 0.73291,
 14:00:45.043,f6:90:cc:01:6d:25, 2015-01-01 02:12:43.850, 0.971, 0.154, 0.08, -1.038, 0.244, 0.488, 60.952, -80.244, 135.681, -29.360, -14.567, 0.840, 32.88, -0.05774, 0.66156, 0.14737, 0.73291,
 14:00:45.044,ed:35:33:d3:6c:f8, 2015-01-01 02:12:43.850, 0.302, 0.337, 0.891, 2.93, -2.869, 2.808, 20.27, -18.051, 160.318, -9.427, -16.540, -30.660, 31.45, -0.13376, -0.17911, -0.14291, -0.96411,
 14:00:45.044,ed:35:33:d3:6c:f8, 2015-01-01 02:12:43.850, 0.315, 0.335, 0.89, 4.944, -4.883, 2.502, 20.369, -18.155, 160.302, -9.427, -16.540, -30.660, 31.45, -0.13376, -0.17911, -0.14291, -0.96411,
 14:00:45.064,ed:40:fe:65:30:6c, 2015-01-01 02:12:48.915, 0.635, 0.247, 0.734, -0.732, 0.183, 0.549, 17.748, -39.397, -138.159, -19.987, -13.440, -2.473, 26.26, 0.38086, -0.25937, -0.25424, -0.85025,
 14:00:45.064,ed:40:fe:65:30:6c, 2015-01-01 02:12:48.915, 0.63, 0.242, 0.732, -0.732, 0.427, 0.427, 17.737, -39.391, -138.131, -19.987, -13.440, -2.473, 26.26, 0.38086, -0.25937, -0.25424, -0.85025,
 14:00:45.086,ed:40:fe:65:30:6c, 2015-01-01 02:12:48.915, 0.628, 0.237, 0.734, -0.244, 0.366, -0.305, 17.737, -39.38, -138.12, -19.987, -13.440, -2.473, 26.26, 0.38086, -0.25937, -0.25424, -0.85025,
 14:00:45.086,ed:40:fe:65:30:6c, 2015-01-01 02:12:48.915, 0.633, 0.245, 0.737, 0, 0.183, -0.916, 17.759, -39.375, -138.137, -19.987, -13.440, -2.473, 26.26, 0.38086, -0.25937, -0.25424, -0.85025,
 14:00:45.087,e3:ca:2d:fd:e0:8c, 2015-01-01 02:12:43.525, 0.98, -0.122, 0.257, -0.122, -0.244, 0.366, -26.966, -73.696, -169.623, -27.487, -8.980, -10.400, 28.67, -0.06876, -0.59622, 0.13449, -0.78842,
 14:00:45.087,e3:ca:2d:fd:e0:8c, 2015-01-01 02:12:43.525, 0.982, -0.125, 0.252, -0.122, -0.244, 0.488, -26.988, -73.696, -169.596, -27.487, -8.980, -10.400, 28.67, -0.06876, -0.59622, 0.13449, -0.78842,
 14:00:45.089,f6:90:cc:01:6d:25, 2015-01-01 02:12:43.850, 0.969, 0.154, 0.083, -1.648, 0.061, 0.61, 60.892, -80.25, 135.703, -29.360, -14.567, 0.840, 32.88, -0.05774, 0.66156, 0.14737, 0.73291,
 14:00:45.089,f6:90:cc:01:6d:25, 2015-01-01 02:12:43.850, 0.969, 0.151, 0.084, -1.465, 0.61, 0.671, 60.804, -80.255, 135.747, -29.360, -14.567, 0.840, 32.88, -0.05774, 0.66156, 0.14737, 0.73291,
 14:00:45.091,ed:35:33:d3:6c:f8, 2015-01-01 02:12:43.850, 0.318, 0.322, 0.882, 5.127, -8.484, 4.761, 20.468, -18.347, 160.323, -9.480, -16.553, -30.740, 31.45, -0.13376, -0.17911, -0.14291, -0.96411,
 14:00:45.091,ed:35:33:d3:6c:f8, 2015-01-01 02:12:43.850, 0.301, 0.337, 0.886, 1.221, -1.709, 0.671, 20.495, -18.38, 160.291, -9.480, -16.553, -30.740, 31.45, -0.13376, -0.17911, -0.14291, -0.96411,
 14:00:45.111,f6:90:cc:01:6d:25, 2015-01-01 02:12:43.850, 0.972, 0.15, 0.083, -1.038, 0.671, 0.854, 60.677, -80.255, 135.846, -29.360, -14.567, 0.840, 32.88, -0.05371, 0.66064, 0.14899, 0.73373,
 14:00:45.111,f6:90:cc:01:6d:25, 2015-01-01 02:12:43.850, 0.974, 0.147, 0.083, -1.221, 0.671, 0.732, 60.557, -80.261, 135.956, -29.360, -14.567, 0.840, 32.88, -0.05371, 0.66064, 0.14899, 0.73373,
 14:00:45.131,ed:40:fe:65:30:6c, 2015-01-01 02:12:48.915, 0.636, 0.244, 0.735, -0.061, -0.061, -0.61, 17.776, -39.37, -138.148, -19.987, -13.440, -2.473, 26.26, 0.38086, -0.25937, -0.25424, -0.85025,
 14:00:45.131,ed:40:fe:65:30:6c, 2015-01-01 02:12:48.915, 0.637, 0.239, 0.736, -0.061, -0.061, -0.244, 17.787, -39.364, -138.159, -19.987, -13.440, -2.473, 26.26, 0.38086, -0.25937, -0.25424, -0.85025,
 14:00:45.135,ed:35:33:d3:6c:f8, 2015-01-01 02:12:43.850, 0.33, 0.349, 0.888, 1.343, -2.991, 2.075, 20.522, -18.446, 160.285, -9.480, -16.553, -30.740, 31.45, -0.13815, -0.18533, -0.14621, -0.96182,
 14:00:45.135,ed:35:33:d3:6c:f8, 2015-01-01 02:12:43.850, 0.328, 0.343, 0.881, 1.282, -2.441, 4.456, 20.528, -18.517, 160.307, -9.480, -16.553, -30.740, 31.45, -0.13815, -0.18533, -0.14621, -0.96182,
 14:00:45.155,e3:ca:2d:fd:e0:8c, 2015-01-01 02:12:43.525, 0.985, -0.127, 0.252, -0.183, 0.122, 0.549, -27.01, -73.696, -169.563, -27.487, -8.980, -10.400, 28.67, -0.06885, -0.59766, 0.13309, -0.78757,
 14:00:45.155,e3:ca:2d:fd:e0:8c, 2015-01-01 02:12:43.525, 0.982, -0.129, 0.25, 0.183, 0, 0.61, -27.032, -73.691, -169.53, -27.487, -8.980, -10.400, 28.67, -0.06885, -0.59766, 0.13309, -0.78757,
 14:00:45.156,f6:90:cc:01:6d:25, 2015-01-01 02:12:43.850, 0.973, 0.144, 0.083, -1.526, 0.671, 0.61, 60.43, -80.261, 136.088, -29.360, -14.567, 0.840, 32.88, -0.05371, 0.66064, 0.14899, 0.73373,
 14:00:45.156,f6:90:cc:01:6d:25, 2015-01-01 02:12:43.850, 0.972, 0.139, 0.08, -1.709, 0.671, 0.732, 60.298, -80.266, 136.198, -29.360, -14.567, 0.840, 32.88, -0.05371, 0.66064, 0.14899, 0.73373,
 14:00:45.177,e3:ca:2d:fd:e0:8c, 2015-01-01 02:12:43.880, 0.981, -0.132, 0.25, 0.549, -0.305, 0.732, -27.059, -73.691, -169.481, -27.487, -8.980, -10.400, 28.67, -0.06885, -0.59766, 0.13309, -0.78757,
 14:00:45.177,e3:ca:2d:fd:e0:8c, 2015-01-01 02:12:43.880, 0.982, -0.134, 0.25, 0.427, -0.122, 0.61, -27.092, -73.691, -169.42, -27.487, -8.980, -10.400, 28.67, -0.06885, -0.59766, 0.13309, -0.78757,
 14:00:45.179,ed:35:33:d3:6c:f8, 2015-01-01 02:12:44.160, 0.323, 0.334, 0.879, 0.305, 0.488, 1.526, 20.528, -18.517, 160.274, -9.480, -16.553, -30.740, 31.45, -0.13815, -0.18533, -0.14621, -0.96182,
 14:00:45.179,ed:35:33:d3:6c:f8, 2015-01-01 02:12:44.160, 0.317, 0.343, 0.883, 0.366, 0.854, 1.465, 20.533, -18.512, 160.214, -9.480, -16.553, -30.740, 31.45, -0.13815, -0.18533, -0.14621, -0.96182,
 14:00:45.198,ed:40:fe:65:30:6c, 2015-01-01 02:12:48.915, 0.635, 0.236, 0.737, -0.244, -0.122, -0.122, 17.792, -39.364, -138.17, -19.613, -13.567, -2.887, 26.26, 0.38086, -0.25937, -0.25424, -0.85025,
 14:00:45.198,ed:40:fe:65:30:6c, 2015-01-01 02:12:48.915, 0.633, 0.244, 0.737, -0.061, -0.305, 0.183, 17.792, -39.37, -138.164, -19.613, -13.567, -2.887, 26.26, 0.38086, -0.25937, -0.25424, -0.85025,
 14:00:45.199,e3:ca:2d:fd:e0:8c, 2015-01-01 02:12:43.880, 0.98, -0.133, 0.252, 0.427, 0.244, 0.732, -27.12, -73.685, -169.382, -27.487, -8.980, -10.400, 28.67, -0.06885, -0.59766, 0.13309, -0.78757,
 14:00:45.199,e3:ca:2d:fd:e0:8c, 2015-01-01 02:12:43.880, 0.977, -0.133, 0.255, 0.732, 0.366, 0.793, -27.147, -73.68, -169.327, -27.487, -8.980, -10.400, 28.67, -0.06885, -0.59766, 0.13309, -0.78757,
 14:00:45.201,ed:35:33:d3:6c:f8, 2015-01-01 02:12:44.160, 0.325, 0.346, 0.889, 0.61, 0.244, 1.404, 20.539, -18.517, 160.142, -9.480, -16.553, -30.740, 31.45, -0.13815, -0.18533, -0.14621, -0.96182,
 14:00:45.201,ed:35:33:d3:6c:f8, 2015-01-01 02:12:44.160, 0.325, 0.329, 0.878, 0.366, 0.732, 2.136, 20.539, -18.523, 160.082, -9.480, -16.553, -30.740, 31.45, -0.13815, -0.18533, -0.14621, -0.96182,
 14:00:45.201,f6:90:cc:01:6d:25, 2015-01-01 02:12:44.210, 0.972, 0.138, 0.081, -0.977, 0.549, 1.099, 60.167, -80.272, 136.351, -29.360, -14.567, 0.840, 32.88, -0.05371, 0.66064, 0.14899, 0.73373,
 14:00:45.201,f6:90:cc:01:6d:25, 2015-01-01 02:12:44.210, 0.97, 0.134, 0.083, -0.305, 0.488, 1.16, 60.04, -80.288, 136.511, -29.360, -14.567, 0.840, 32.88, -0.05371, 0.66064, 0.14899, 0.73373,
 14:00:45.223,ed:40:fe:65:30:6c, 2015-01-01 02:12:48.915, 0.639, 0.239, 0.737, 0, -0.61, 0.732, 17.792, -39.386, -138.159, -19.613, -13.567, -2.887, 26.26, 0.3808, -0.259, -0.25488, -0.85019,
 14:00:45.223,ed:40:fe:65:30:6c, 2015-01-01 02:12:48.915, 0.637, 0.227, 0.729, 0.183, -0.671, 1.038, 17.787, -39.402, -138.148, -19.613, -13.567, -2.887, 26.26, 0.3808, -0.259, -0.25488, -0.85019,
 14:00:45.244,e3:ca:2d:fd:e0:8c, 2015-01-01 02:12:43.880, 0.978, -0.135, 0.254, 0.916, 0.732, 0.793, -27.158, -73.663, -169.288, -27.487, -8.980, -10.400, 28.67, -0.06885, -0.59766, 0.13309, -0.78757,
 14:00:45.244,e3:ca:2d:fd:e0:8c, 2015-01-01 02:12:43.880, 0.98, -0.134, 0.253, 0.732, 1.038, 0.732, -27.164, -73.641, -169.272, -27.487, -8.980, -10.400, 28.67, -0.06885, -0.59766, 0.13309, -0.78757,
 14:00:45.246,f6:90:cc:01:6d:25, 2015-01-01 02:12:44.210, 0.97, 0.129, 0.083, 0.061, 0.61, 0.977, 59.925, -80.299, 136.653, -29.360, -14.567, 0.840, 32.88, -0.05371, 0.66064, 0.14899, 0.73373,
 14:00:45.246,f6:90:cc:01:6d:25, 2015-01-01 02:12:44.210, 0.97, 0.134, 0.09, 0.854, 0.549, 0.977, 59.815, -80.316, 136.785, -29.360, -14.567, 0.840, 32.88, -0.05371, 0.66064, 0.14899, 0.73373,
 14:00:45.247,ed:35:33:d3:6c:f8, 2015-01-01 02:12:44.160, 0.315, 0.326, 0.879, -0.61, 0.977, 2.625, 20.511, -18.523, 160.027, -9.480, -16.553, -30.740, 31.45, -0.13815, -0.18533, -0.14621, -0.96182,
 14:00:45.247,ed:35:33:d3:6c:f8, 2015-01-01 02:12:44.160, 0.308, 0.338, 0.889, -1.16, 0.122, 2.075, 20.479, -18.539, 159.933, -9.480, -16.553, -30.740, 31.45, -0.13815, -0.18533, -0.14621, -0.96182,
 14:00:45.266,ed:40:fe:65:30:6c, 2015-01-01 02:12:48.915, 0.628, 0.231, 0.732, 0.488, -0.549, 1.16, 17.781, -39.419, -138.126, -19.613, -13.567, -2.887, 26.26, 0.3808, -0.259, -0.25488, -0.85019,
 14:00:45.266,ed:40:fe:65:30:6c, 2015-01-01 02:12:48.915, 0.629, 0.238, 0.749, 0.427, -0.427, 1.648, 17.77, -39.435, -138.093, -19.613, -13.567, -2.887, 26.26, 0.3808, -0.259, -0.25488, -0.85019,
 14:00:45.289,e3:ca:2d:fd:e0:8c, 2015-01-01 02:12:43.880, 0.981, -0.133, 0.256, 0.671, 0.671, 0.671, -27.169, -73.619, -169.244, -27.487, -8.980, -10.400, 28.67, -0.06885, -0.59766, 0.13309, -0.78757,
 14:00:45.289,e3:ca:2d:fd:e0:8c, 2015-01-01 02:12:43.880, 0.981, -0.132, 0.257, 0.549, 0.305, 0.488, -27.18, -73.608, -169.211, -27.487, -8.980, -10.400, 28.67, -0.06885, -0.59766, 0.13309, -0.78757,
 14:00:45.289,ed:40:fe:65:30:6c, 2015-01-01 02:12:49.270, 0.633, 0.237, 0.748, 0.122, -0.854, 2.319, 17.748, -39.463, -138.043, -19.613, -13.567, -2.887, 26.26, 0.3808, -0.259, -0.25488, -0.85019,
 14:00:45.289,ed:40:fe:65:30:6c, 2015-01-01 02:12:49.270, 0.632, 0.237, 0.746, -0.183, -1.16, 2.625, 17.715, -39.496, -137.994, -19.613, -13.567, -2.887, 26.26, 0.3808, -0.259, -0.25488, -0.85019,
 14:00:45.292,f6:90:cc:01:6d:25, 2015-01-01 02:12:44.210, 0.973, 0.135, 0.092, 1.404, 0.122, 0.854, 59.738, -80.327, 136.895, -29.360, -14.567, 0.840, 32.88, -0.05371, 0.66064, 0.14899, 0.73373,
 14:00:45.292,f6:90:cc:01:6d:25, 2015-01-01 02:12:44.210, 0.975, 0.133, 0.088, 1.221, -0.488, 0.854, 59.716, -80.349, 136.972, -29.360, -14.567, 0.840, 32.88, -0.05371, 0.66064, 0.14899, 0.73373,
 14:00:45.294,ed:35:33:d3:6c:f8, 2015-01-01 02:12:44.160, 0.314, 0.338, 0.895, -1.892, 1.465, 1.953, 20.429, -18.523, 159.868, -9.480, -16.553, -30.740, 31.45, -0.13815, -0.18533, -0.14621, -0.96182,
 14:00:45.294,ed:35:33:d3:6c:f8, 2015-01-01 02:12:44.160, 0.314, 0.332, 0.894, -2.991, 2.563, 1.77, 20.358, -18.49, 159.851, -9.480, -16.553, -30.740, 31.45, -0.13815, -0.18533, -0.14621, -0.96182,
 14:00:45.313,f6:90:cc:01:6d:25, 2015-01-01 02:12:44.210, 0.973, 0.138, 0.091, 1.343, -0.732, 0.916, 59.738, -80.37, 137.01, -29.360, -14.567, 0.840, 32.88, -0.05371, 0.66064, 0.14899, 0.73373,
 14:00:45.313,f6:90:cc:01:6d:25, 2015-01-01 02:12:44.210, 0.971, 0.142, 0.091, 0.916, -0.549, 1.038, 59.733, -80.392, 137.043, -29.360, -14.567, 0.840, 32.88, -0.05371, 0.66064, 0.14899, 0.73373,
 14:00:45.335,ed:40:fe:65:30:6c, 2015-01-01 02:12:49.270, 0.633, 0.23, 0.739, -0.061, -1.038, 2.686, 17.677, -39.529, -137.944, -19.613, -13.567, -2.887, 26.26, 0.3808, -0.259, -0.25488, -0.85019,
 14:00:45.335,ed:40:fe:65:30:6c, 2015-01-01 02:12:49.270, 0.636, 0.225, 0.735, 0.549, -0.854, 2.258, 17.65, -39.556, -137.895, -19.613, -13.567, -2.887, 26.26, 0.3808, -0.259, -0.25488, -0.85019,
 14:00:45.336,ed:35:33:d3:6c:f8, 2015-01-01 02:12:44.160, 0.313, 0.327, 0.887, -1.953, 1.16, 1.953, 20.308, -18.479, 159.813, -9.480, -16.553, -30.740, 31.45, -0.13815, -0.18533, -0.14621, -0.96182,
 14:00:45.336,ed:35:33:d3:6c:f8, 2015-01-01 02:12:44.160, 0.316, 0.314, 0.884, -1.77, 1.099, 1.831, 20.259, -18.474, 159.785, -9.480, -16.553, -30.740, 31.45, -0.13815, -0.18533, -0.14621, -0.96182,
 14:00:45.358,e3:ca:2d:fd:e0:8c, 2015-01-01 02:12:43.880, 0.98, -0.128, 0.259, 0.244, 0.061, 0.427, -27.197, -73.603, -169.173, -27.487, -8.980, -10.400, 28.67, -0.06885, -0.59766, 0.13309, -0.78757,
 14:00:45.358,e3:ca:2d:fd:e0:8c, 2015-01-01 02:12:43.880, 0.979, -0.126, 0.258, -0.122, -0.183, 0.366, -27.219, -73.603, -169.124, -27.487, -8.980, -10.400, 28.67, -0.06885, -0.59766, 0.13309, -0.78757,
 14:00:45.379,ed:40:fe:65:30:6c, 2015-01-01 02:12:49.270, 0.64, 0.223, 0.732, 0.671, -0.854, 1.831, 17.639, -39.578, -137.862, -19.613, -13.567, -2.887, 26.26, 0.3808, -0.259, -0.25488, -0.85019,
 14:00:45.379,ed:40:fe:65:30:6c, 2015-01-01 02:12:49.270, 0.643, 0.221, 0.726, 0.671, -0.549, 1.709, 17.622, -39.6, -137.823, -19.613, -13.567, -2.887, 26.26, 0.3808, -0.259, -0.25488, -0.85019,
 14:00:45.380,e3:ca:2d:fd:e0:8c, 2015-01-01 02:12:43.880, 0.979, -0.128, 0.256, -0.244, -0.427, 0.305, -27.252, -73.603, -169.085, -27.347, -8.880, -10.747, 28.67, -0.06885, -0.59766, 0.13309, -0.78757,
 14:00:45.380,e3:ca:2d:fd:e0:8c, 2015-01-01 02:12:43.880, 0.981, -0.13, 0.259, -0.061, -0.305, 0.244, -27.279, -73.608, -169.069, -27.347, -8.880, -10.747, 28.67, -0.06885, -0.59766, 0.13309, -0.78757,
 14:00:45.381,f6:90:cc:01:6d:25, 2015-01-01 02:12:44.210, 0.971, 0.141, 0.087, 0.732, -0.366, 0.977, 59.711, -80.414, 137.093, -29.360, -14.567, 0.840, 32.88, -0.05371, 0.66064, 0.14899, 0.73373,
 14:00:45.381,f6:90:cc:01:6d:25, 2015-01-01 02:12:44.210, 0.973, 0.137, 0.085, 0.61, -0.305, 0.549, 59.694, -80.431, 137.126, -29.360, -14.567, 0.840, 32.88, -0.05371, 0.66064, 0.14899, 0.73373,
 14:00:45.382,ed:35:33:d3:6c:f8, 2015-01-01 02:12:44.160, 0.321, 0.313, 0.887, -2.93, 1.831, 1.16, 20.193, -18.446, 159.763, -9.420, -16.627, -31.227, 31.45, -0.13815, -0.18533, -0.14621, -0.96182,
 14:00:45.382,ed:35:33:d3:6c:f8, 2015-01-01 02:12:44.160, 0.323, 0.316, 0.882, -2.38, 1.343, 1.038, 20.132, -18.43, 159.741, -9.420, -16.627, -31.227, 31.45, -0.13815, -0.18533, -0.14621, -0.96182,
 14:00:45.401,ed:40:fe:65:30:6c, 2015-01-01 02:12:49.270, 0.642, 0.214, 0.72, 0.732, 0.183, 1.221, 17.611, -39.606, -137.796, -19.613, -13.567, -2.887, 26.26, 0.3808, -0.259, -0.25488, -0.85019,
 14:00:45.401,ed:40:fe:65:30:6c, 2015-01-01 02:12:49.270, 0.637, 0.21, 0.726, 0.549, 0.854, 0.061, 17.611, -39.595, -137.796, -19.613, -13.567, -2.887, 26.26, 0.3808, -0.259, -0.25488, -0.85019,
 14:00:45.404,f6:90:cc:01:6d:25, 2015-01-01 02:12:44.210, 0.972, 0.137, 0.085, 0.854, 0, 0.183, 59.678, -80.436, 137.153, -29.613, -14.253, 0.260, 32.88, -0.05371, 0.66064, 0.14899, 0.73373,
 14:00:45.404,f6:90:cc:01:6d:25, 2015-01-01 02:12:44.210, 0.972, 0.135, 0.083, 0.854, 0.305, -0.183, 59.656, -80.431, 137.197, -29.613, -14.253, 0.260, 32.88, -0.05371, 0.66064, 0.14899, 0.73373,
 14:00:45.405,ed:35:33:d3:6c:f8, 2015-01-01 02:12:44.160, 0.329, 0.301, 0.88, -0.732, 0.061, 1.038, 20.11, -18.435, 159.747, -9.420, -16.627, -31.227, 31.45, -0.14331, -0.18558, -0.14194, -0.96164,
 14:00:45.405,ed:35:33:d3:6c:f8, 2015-01-01 02:12:44.160, 0.318, 0.284, 0.873, -0.061, 0.427, 0, 20.105, -18.435, 159.747, -9.420, -16.627, -31.227, 31.45, -0.14331, -0.18558, -0.14194, -0.96164,
 14:00:45.447,e3:ca:2d:fd:e0:8c, 2015-01-01 02:12:43.880, 0.979, -0.129, 0.257, 0, -0.122, 0.061, -27.29, -73.614, -169.069, -27.347, -8.880, -10.747, 28.67, -0.06885, -0.59766, 0.13309, -0.78757,
 14:00:45.447,e3:ca:2d:fd:e0:8c, 2015-01-01 02:12:43.880, 0.979, -0.127, 0.255, 0.122, -0.061, 0.061, -27.29, -73.614, -169.08, -27.347, -8.880, -10.747, 28.67, -0.06885, -0.59766, 0.13309, -0.78757,
 14:00:45.449,f6:90:cc:01:6d:25, 2015-01-01 02:12:44.210, 0.973, 0.136, 0.084, 0.793, 0.61, -0.732, 59.634, -80.42, 137.252, -29.613, -14.253, 0.260, 32.88, -0.05371, 0.66064, 0.14899, 0.73373,
 14:00:45.449,f6:90:cc:01:6d:25, 2015-01-01 02:12:44.210, 0.977, 0.141, 0.086, -0.122, 0.671, -0.916, 59.606, -80.398, 137.307, -29.613, -14.253, 0.260, 32.88, -0.05371, 0.66064, 0.14899, 0.73373,
 14:00:45.450,ed:35:33:d3:6c:f8, 2015-01-01 02:12:44.160, 0.31, 0.296, 0.888, -0.854, 1.465, -1.77, 20.089, -18.397, 159.736, -9.420, -16.627, -31.227, 31.45, -0.14331, -0.18558, -0.14194, -0.96164,
 14:00:45.450,ed:35:33:d3:6c:f8, 2015-01-01 02:12:44.160, 0.314, 0.321, 0.9, -0.305, 1.526, -2.075, 20.083, -18.358, 159.692, -9.420, -16.627, -31.227, 31.45, -0.14331, -0.18558, -0.14194, -0.96164,
 14:00:45.469,ed:40:fe:65:30:6c, 2015-01-01 02:12:49.270, 0.635, 0.218, 0.737, 0.244, 0.793, -0.977, 17.617, -39.578, -137.823, -19.613, -13.567, -2.887, 26.26, 0.3808, -0.259, -0.25488, -0.85019,
 14:00:45.469,ed:40:fe:65:30:6c, 2015-01-01 02:12:49.270, 0.639, 0.228, 0.742, 0.305, 0.671, -1.465, 17.633, -39.562, -137.867, -19.613, -13.567, -2.887, 26.26, 0.3808, -0.259, -0.25488, -0.85019,
 14:00:45.470,e3:ca:2d:fd:e0:8c, 2015-01-01 02:12:43.880, 0.982, -0.13, 0.256, 0.061, -0.305, 0.061, -27.29, -73.614, -169.085, -27.347, -8.880, -10.747, 28.67, -0.06674, -0.5975, 0.13269, -0.78793,
 14:00:45.470,e3:ca:2d:fd:e0:8c, 2015-01-01 02:12:43.880, 0.986, -0.134, 0.255, 0, -0.61, -0.122, -27.301, -73.625, -169.091, -27.347, -8.880, -10.747, 28.67, -0.06674, -0.5975, 0.13269, -0.78793,
 14:00:45.491,ed:40:fe:65:30:6c, 2015-01-01 02:12:49.270, 0.64, 0.232, 0.74, 0.671, 0.732, -1.465, 17.655, -39.54, -137.906, -20.087, -13.967, -3.340, 26.26, 0.3808, -0.259, -0.25488, -0.85019,
 14:00:45.491,ed:40:fe:65:30:6c, 2015-01-01 02:12:49.270, 0.635, 0.23, 0.739, 0.671, 0.671, -1.709, 17.688, -39.518, -137.95, -20.087, -13.967, -3.340, 26.26, 0.3808, -0.259, -0.25488, -0.85019,
 14:00:45.495,ed:35:33:d3:6c:f8, 2015-01-01 02:12:44.450, 0.318, 0.327, 0.898, 1.282, 0.793, -1.282, 20.105, -18.342, 159.642, -9.420, -16.627, -31.227, 31.45, -0.14331, -0.18558, -0.14194, -0.96164,
 14:00:45.495,ed:35:33:d3:6c:f8, 2015-01-01 02:12:44.450, 0.314, 0.32, 0.896, 1.77, -0.488, -1.465, 20.143, -18.342, 159.538, -9.420, -16.627, -31.227, 31.45, -0.14331, -0.18558, -0.14194, -0.96164,
 14:00:45.517,f6:90:cc:01:6d:25, 2015-01-01 02:12:44.210, 0.978, 0.141, 0.083, -0.916, 0.732, -0.916, 59.557, -80.376, 137.335, -29.613, -14.253, 0.260, 32.88, -0.05753, 0.65982, 0.14969, 0.73404,
 14:00:45.517,f6:90:cc:01:6d:25, 2015-01-01 02:12:44.210, 0.975, 0.14, 0.082, -1.465, 1.282, -0.977, 59.458, -80.349, 137.401, -29.613, -14.253, 0.260, 32.88, -0.05753, 0.65982, 0.14969, 0.73404,
 14:00:45.517,e3:ca:2d:fd:e0:8c, 2015-01-01 02:12:43.880, 0.986, -0.134, 0.255, 0.122, -0.732, -0.244, -27.307, -73.641, -169.091, -27.347, -8.880, -10.747, 28.67, -0.06674, -0.5975, 0.13269, -0.78793,
 14:00:45.517,e3:ca:2d:fd:e0:8c, 2015-01-01 02:12:43.880, 0.982, -0.131, 0.253, 0, -0.854, -0.244, -27.312, -73.658, -169.074, -27.347, -8.880, -10.747, 28.67, -0.06674, -0.5975, 0.13269, -0.78793,
 14:00:45.538,e3:ca:2d:fd:e0:8c, 2015-01-01 02:12:44.240, 0.98, -0.13, 0.251, -0.183, -0.793, -0.244, -27.323, -73.674, -169.069, -27.347, -8.880, -10.747, 28.67, -0.06674, -0.5975, 0.13269, -0.78793,
 14:00:45.538,e3:ca:2d:fd:e0:8c, 2015-01-01 02:12:44.240, 0.979, -0.134, 0.251, -0.122, -0.549, -0.305, -27.328, -73.685, -169.063, -27.347, -8.880, -10.747, 28.67, -0.06674, -0.5975, 0.13269, -0.78793,
 14:00:45.538,f6:90:cc:01:6d:25, 2015-01-01 02:12:44.565, 0.971, 0.14, 0.084, -1.831, 1.221, -0.977, 59.348, -80.321, 137.461, -29.613, -14.253, 0.260, 32.88, -0.05753, 0.65982, 0.14969, 0.73404,
 14:00:45.538,f6:90:cc:01:6d:25, 2015-01-01 02:12:44.565, 0.971, 0.134, 0.085, -2.136, 0.977, -0.977, 59.255, -80.299, 137.51, -29.613, -14.253, 0.260, 32.88, -0.05753, 0.65982, 0.14969, 0.73404,
 14:00:45.539,ed:40:fe:65:30:6c, 2015-01-01 02:12:49.270, 0.632, 0.23, 0.741, 0.427, 0.244, -1.953, 17.715, -39.501, -137.999, -20.087, -13.967, -3.340, 26.26, 0.3808, -0.259, -0.25488, -0.85019,
 14:00:45.539,ed:40:fe:65:30:6c, 2015-01-01 02:12:49.270, 0.631, 0.237, 0.741, 0.366, 0, -1.953, 17.748, -39.49, -138.06, -20.087, -13.967, -3.340, 26.26, 0.3808, -0.259, -0.25488, -0.85019,
 14:00:45.561,f6:90:cc:01:6d:25, 2015-01-01 02:12:44.565, 0.97, 0.132, 0.087, -1.831, 0.427, -0.854, 59.2, -80.277, 137.505, -29.613, -14.253, 0.260, 32.88, -0.05753, 0.65982, 0.14969, 0.73404,
 14:00:45.561,f6:90:cc:01:6d:25, 2015-01-01 02:12:44.565, 0.971, 0.136, 0.087, -0.305, 0.305, -0.61, 59.183, -80.266, 137.483, -29.613, -14.253, 0.260, 32.88, -0.05753, 0.65982, 0.14969, 0.73404,
 14:00:45.563,ed:35:33:d3:6c:f8, 2015-01-01 02:12:44.450, 0.308, 0.32, 0.895, 1.038, -0.305, -1.953, 20.171, -18.336, 159.434, -9.420, -16.627, -31.227, 31.45, -0.14331, -0.18558, -0.14194, -0.96164,
 14:00:45.563,ed:35:33:d3:6c:f8, 2015-01-01 02:12:44.450, 0.306, 0.327, 0.898, 0.916, -0.366, -2.258, 20.198, -18.325, 159.346, -9.420, -16.627, -31.227, 31.45, -0.14331, -0.18558, -0.14194, -0.96164,
 14:00:45.563,ed:35:33:d3:6c:f8, 2015-01-01 02:12:44.450, 0.313, 0.343, 0.896, 1.099, -0.61, -1.709, 20.226, -18.325, 159.269, -9.420, -16.627, -31.227, 31.45, -0.14331, -0.18558, -0.14194, -0.96164,
 14:00:45.563,ed:35:33:d3:6c:f8, 2015-01-01 02:12:44.450, 0.321, 0.338, 0.888, 2.808, -1.099, -0.366, 20.286, -18.342, 159.214, -9.420, -16.627, -31.227, 31.45, -0.14331, -0.18558, -0.14194, -0.96164,
 14:00:45.583,e3:ca:2d:fd:e0:8c, 2015-01-01 02:12:44.240, 0.981, -0.137, 0.249, -0.305, -0.183, -0.549, -27.318, -73.696, -169.069, -27.347, -8.880, -10.747, 28.67, -0.06674, -0.5975, 0.13269, -0.78793,
 14:00:45.583,e3:ca:2d:fd:e0:8c, 2015-01-01 02:12:44.240, 0.981, -0.134, 0.254, -0.488, -0.061, -0.671, -27.296, -73.707, -169.085, -27.347, -8.880, -10.747, 28.67, -0.06674, -0.5975, 0.13269, -0.78793,
 14:00:45.605,ed:40:fe:65:30:6c, 2015-01-01 02:12:49.270, 0.635, 0.243, 0.739, 0.305, -0.427, -1.587, 17.776, -39.485, -138.126, -20.087, -13.967, -3.340, 26.26, 0.38144, -0.2597, -0.25504, -0.84964,
 14:00:45.605,ed:40:fe:65:30:6c, 2015-01-01 02:12:49.270, 0.637, 0.237, 0.733, 0.549, -0.427, -0.793, 17.798, -39.49, -138.164, -20.087, -13.967, -3.340, 26.26, 0.38144, -0.2597, -0.25504, -0.84964,
 14:00:45.605,f6:90:cc:01:6d:25, 2015-01-01 02:12:44.565, 0.968, 0.14, 0.088, 0, -0.061, -0.488, 59.194, -80.261, 137.461, -29.613, -14.253, 0.260, 32.88, -0.05753, 0.65982, 0.14969, 0.73404,
 14:00:45.605,f6:90:cc:01:6d:25, 2015-01-01 02:12:44.565, 0.966, 0.142, 0.089, -0.183, 0, -0.916, 59.227, -80.25, 137.439, -29.613, -14.253, 0.260, 32.88, -0.05753, 0.65982, 0.14969, 0.73404,
 14:00:45.606,e3:ca:2d:fd:e0:8c, 2015-01-01 02:12:44.240, 0.978, -0.128, 0.255, -0.244, 0, -0.61, -27.268, -73.713, -169.113, -27.347, -8.880, -10.747, 28.67, -0.06674, -0.5975, 0.13269, -0.78793,
 14:00:45.608,e3:ca:2d:fd:e0:8c, 2015-01-01 02:12:44.240, 0.975, -0.125, 0.255, 0.366, 0.122, -0.366, -27.241, -73.718, -169.146, -27.347, -8.880, -10.747, 28.67, -0.06674, -0.5975, 0.13269, -0.78793,
 14:00:45.608,ed:35:33:d3:6c:f8, 2015-01-01 02:12:44.450, 0.314, 0.315, 0.877, 3.601, -2.319, -0.305, 20.363, -18.386, 159.12, -9.420, -16.627, -31.227, 31.45, -0.14331, -0.18558, -0.14194, -0.96164,
 14:00:45.608,ed:35:33:d3:6c:f8, 2015-01-01 02:12:44.450, 0.303, 0.305, 0.877, 2.197, -2.686, -1.587, 20.418, -18.424, 159, -9.420, -16.627, -31.227, 31.45, -0.14331, -0.18558, -0.14194, -0.96164,
 14:00:45.626,ed:40:fe:65:30:6c, 2015-01-01 02:12:49.605, 0.63, 0.226, 0.728, 0.427, 0, -0.854, 17.814, -39.485, -138.192, -20.087, -13.967, -3.340, 26.26, 0.38144, -0.2597, -0.25504, -0.84964,
 14:00:45.626,ed:40:fe:65:30:6c, 2015-01-01 02:12:49.605, 0.625, 0.223, 0.737, 0.183, 0.366, -1.526, 17.836, -39.468, -138.235, -20.087, -13.967, -3.340, 26.26, 0.38144, -0.2597, -0.25504, -0.84964,
 14:00:45.649,e3:ca:2d:fd:e0:8c, 2015-01-01 02:12:44.240, 0.978, -0.127, 0.259, 0.244, 0.122, -0.244, -27.213, -73.718, -169.167, -27.347, -8.880, -10.747, 28.67, -0.06674, -0.5975, 0.13269, -0.78793,
 14:00:45.649,e3:ca:2d:fd:e0:8c, 2015-01-01 02:12:44.240, 0.982, -0.129, 0.259, -0.549, 0.061, -0.305, -27.191, -73.718, -169.2, -27.347, -8.880, -10.747, 28.67, -0.06674, -0.5975, 0.13269, -0.78793,
 14:00:45.649,ed:40:fe:65:30:6c, 2015-01-01 02:12:49.605, 0.624, 0.243, 0.741, 0.305, 0.122, -1.709, 17.864, -39.452, -138.274, -20.087, -13.967, -3.340, 26.26, 0.38144, -0.2597, -0.25504, -0.84964,
 14:00:45.649,ed:40:fe:65:30:6c, 2015-01-01 02:12:49.605, 0.629, 0.255, 0.741, 0, 0, -0.977, 17.875, -39.446, -138.301, -20.087, -13.967, -3.340, 26.26, 0.38144, -0.2597, -0.25504, -0.84964,
 14:00:45.650,f6:90:cc:01:6d:25, 2015-01-01 02:12:44.565, 0.967, 0.141, 0.094, -0.061, -0.183, -1.343, 59.293, -80.233, 137.384, -29.613, -14.253, 0.260, 32.88, -0.05753, 0.65982, 0.14969, 0.73404,
 14:00:45.650,f6:90:cc:01:6d:25, 2015-01-01 02:12:44.565, 0.969, 0.143, 0.098, -0.305, -0.305, -1.282, 59.37, -80.217, 137.335, -29.613, -14.253, 0.260, 32.88, -0.05753, 0.65982, 0.14969, 0.73404,
 14:00:45.653,ed:35:33:d3:6c:f8, 2015-01-01 02:12:44.450, 0.301, 0.34, 0.893, 0.854, -0.916, -2.136, 20.446, -18.424, 158.917, -9.420, -16.627, -31.227, 31.45, -0.14331, -0.18558, -0.14194, -0.96164,
 14:00:45.653,ed:35:33:d3:6c:f8, 2015-01-01 02:12:44.450, 0.307, 0.361, 0.895, 1.404, -1.404, -0.549, 20.473, -18.446, 158.879, -9.420, -16.627, -31.227, 31.45, -0.14331, -0.18558, -0.14194, -0.96164,
 14:00:45.675,f6:90:cc:01:6d:25, 2015-01-01 02:12:44.565, 0.974, 0.146, 0.096, -0.061, -0.488, -0.732, 59.436, -80.206, 137.313, -29.613, -14.253, 0.260, 32.88, -0.05753, 0.65982, 0.14969, 0.73404,
 14:00:45.675,f6:90:cc:01:6d:25, 2015-01-01 02:12:44.565, 0.975, 0.146, 0.087, 0.671, -0.366, -0.305, 59.48, -80.206, 137.313, -29.613, -14.253, 0.260, 32.88, -0.05753, 0.65982, 0.14969, 0.73404,
 14:00:45.694,ed:40:fe:65:30:6c, 2015-01-01 02:12:49.605, 0.637, 0.256, 0.738, 0, -0.183, -0.366, 17.886, -39.441, -138.312, -20.087, -13.967, -3.340, 26.26, 0.38144, -0.2597, -0.25504, -0.84964,
 14:00:45.694,ed:40:fe:65:30:6c, 2015-01-01 02:12:49.605, 0.638, 0.247, 0.737, 0, -0.122, 0.061, 17.886, -39.441, -138.312, -20.087, -13.967, -3.340, 26.26, 0.38144, -0.2597, -0.25504, -0.84964,
 14:00:45.695,e3:ca:2d:fd:e0:8c, 2015-01-01 02:12:44.240, 0.985, -0.13, 0.255, -0.427, 0.061, -0.305, -27.18, -73.718, -169.222, -27.347, -8.880, -10.747, 28.67, -0.06674, -0.5975, 0.13269, -0.78793,
 14:00:45.695,e3:ca:2d:fd:e0:8c, 2015-01-01 02:12:44.240, 0.985, -0.128, 0.255, 0.183, -0.244, -0.366, -27.158, -73.724, -169.25, -27.347, -8.880, -10.747, 28.67, -0.06674, -0.5975, 0.13269, -0.78793,
 14:00:45.697,ed:35:33:d3:6c:f8, 2015-01-01 02:12:44.450, 0.319, 0.355, 0.886, 0.061, -0.916, 0.061, 20.479, -18.457, 158.846, -9.500, -16.947, -31.840, 31.45, -0.14331, -0.18558, -0.14194, -0.96164,
 14:00:45.697,ed:35:33:d3:6c:f8, 2015-01-01 02:12:44.450, 0.322, 0.349, 0.884, 0.122, -0.61, 0.916, 20.484, -18.474, 158.862, -9.500, -16.947, -31.840, 31.45, -0.14331, -0.18558, -0.14194, -0.96164,
 14:00:45.739,ed:40:fe:65:30:6c, 2015-01-01 02:12:49.605, 0.634, 0.239, 0.736, 0.427, 0.061, 0.488, 17.891, -39.441, -138.307, -20.087, -13.967, -3.340, 26.26, 0.38144, -0.2597, -0.25504, -0.84964,
 14:00:45.739,ed:40:fe:65:30:6c, 2015-01-01 02:12:49.605, 0.63, 0.237, 0.737, 0.854, 0.305, 0.549, 17.897, -39.435, -138.301, -20.087, -13.967, -3.340, 26.26, 0.38144, -0.2597, -0.25504, -0.84964,
 14:00:45.741,e3:ca:2d:fd:e0:8c, 2015-01-01 02:12:44.240, 0.982, -0.125, 0.253, 0.488, -0.305, -0.305, -27.142, -73.735, -169.272, -27.347, -8.880, -10.747, 28.67, -0.06674, -0.5975, 0.13269, -0.78793,
 14:00:45.741,e3:ca:2d:fd:e0:8c, 2015-01-01 02:12:44.240, 0.979, -0.124, 0.254, 0.244, -0.183, -0.061, -27.131, -73.74, -169.272, -27.347, -8.880, -10.747, 28.67, -0.06674, -0.5975, 0.13269, -0.78793,
 14:00:45.742,f6:90:cc:01:6d:25, 2015-01-01 02:12:44.565, 0.971, 0.144, 0.083, 0.977, -0.549, -0.183, 59.546, -80.206, 137.302, -29.613, -14.253, 0.260, 32.88, -0.05753, 0.65982, 0.14969, 0.73404,
 14:00:45.742,f6:90:cc:01:6d:25, 2015-01-01 02:12:44.565, 0.97, 0.144, 0.087, 1.404, -0.916, -0.427, 59.667, -80.211, 137.214, -29.613, -14.253, 0.260, 32.88, -0.05753, 0.65982, 0.14969, 0.73404,
 14:00:45.743,ed:35:33:d3:6c:f8, 2015-01-01 02:12:44.450, 0.316, 0.338, 0.881, 1.282, -1.77, 1.831, 20.506, -18.517, 158.84, -9.500, -16.947, -31.840, 31.45, -0.15012, -0.18787, -0.14362, -0.95993,
 14:00:45.743,ed:35:33:d3:6c:f8, 2015-01-01 02:12:44.450, 0.318, 0.33, 0.878, 1.038, -1.343, 3.113, 20.511, -18.561, 158.846, -9.500, -16.947, -31.840, 31.45, -0.15012, -0.18787, -0.14362, -0.95993,
 14:00:45.762,e3:ca:2d:fd:e0:8c, 2015-01-01 02:12:44.240, 0.979, -0.125, 0.251, -0.244, 0, 0, -27.125, -73.74, -169.255, -27.360, -8.880, -10.280, 28.67, -0.06674, -0.5975, 0.13269, -0.78793,
 14:00:45.762,e3:ca:2d:fd:e0:8c, 2015-01-01 02:12:44.240, 0.984, -0.127, 0.251, -0.244, 0.122, 0.061, -27.125, -73.74, -169.266, -27.360, -8.880, -10.280, 28.67, -0.06674, -0.5975, 0.13269, -0.78793,
 14:00:45.763,f6:90:cc:01:6d:25, 2015-01-01 02:12:44.565, 0.966, 0.144, 0.092, 1.343, -1.099, -0.671, 59.821, -80.206, 137.087, -29.560, -14.767, 0.313, 32.88, -0.05753, 0.65982, 0.14969, 0.73404,
 14:00:45.763,f6:90:cc:01:6d:25, 2015-01-01 02:12:44.565, 0.967, 0.149, 0.088, 1.77, -1.099, -0.549, 59.98, -80.211, 136.945, -29.560, -14.767, 0.313, 32.88, -0.05753, 0.65982, 0.14969, 0.73404,
 14:00:45.764,ed:35:33:d3:6c:f8, 2015-01-01 02:12:44.765, 0.314, 0.34, 0.879, 0.854, -0.122, 4.15, 20.506, -18.589, 158.895, -9.500, -16.947, -31.840, 31.45, -0.15012, -0.18787, -0.14362, -0.95993,
 14:00:45.764,ed:35:33:d3:6c:f8, 2015-01-01 02:12:44.765, 0.318, 0.35, 0.878, 1.77, -0.427, 4.395, 20.522, -18.627, 158.934, -9.500, -16.947, -31.840, 31.45, -0.15012, -0.18787, -0.14362, -0.95993,
 14:00:45.784,ed:40:fe:65:30:6c, 2015-01-01 02:12:49.605, 0.627, 0.243, 0.734, 1.282, 0.488, 0.732, 17.913, -39.43, -138.29, -20.087, -13.967, -3.340, 26.26, 0.38144, -0.2597, -0.25504, -0.84964,
 14:00:45.784,ed:40:fe:65:30:6c, 2015-01-01 02:12:49.605, 0.63, 0.251, 0.735, 1.404, 0.305, 1.038, 17.924, -39.424, -138.268, -20.087, -13.967, -3.340, 26.26, 0.38144, -0.2597, -0.25504, -0.84964,
 14:00:45.808,e3:ca:2d:fd:e0:8c, 2015-01-01 02:12:44.240, 0.981, -0.127, 0.25, 0.671, 0, 0.183, -27.12, -73.74, -169.272, -27.360, -8.880, -10.280, 28.67, -0.06674, -0.5975, 0.13269, -0.78793,
 14:00:45.808,e3:ca:2d:fd:e0:8c, 2015-01-01 02:12:44.240, 0.98, -0.126, 0.255, 1.282, -0.61, 0.549, -27.136, -73.746, -169.25, -27.360, -8.880, -10.280, 28.67, -0.06674, -0.5975, 0.13269, -0.78793,
 14:00:45.810,ed:35:33:d3:6c:f8, 2015-01-01 02:12:44.765, 0.321, 0.351, 0.88, 1.282, -0.122, 4.578, 20.528, -18.66, 158.945, -9.500, -16.947, -31.840, 31.45, -0.15012, -0.18787, -0.14362, -0.95993,
 14:00:45.810,ed:35:33:d3:6c:f8, 2015-01-01 02:12:44.765, 0.33, 0.349, 0.881, 1.892, 0, 3.601, 20.55, -18.682, 158.928, -9.500, -16.947, -31.840, 31.45, -0.15012, -0.18787, -0.14362, -0.95993,
 14:00:45.829,ed:40:fe:65:30:6c, 2015-01-01 02:12:49.605, 0.636, 0.256, 0.737, 1.709, 0, 1.343, 17.946, -39.43, -138.246, -20.087, -13.967, -3.340, 26.26, 0.38144, -0.2597, -0.25504, -0.84964,
 14:00:45.829,ed:40:fe:65:30:6c, 2015-01-01 02:12:49.605, 0.636, 0.254, 0.73, 1.343, -0.061, 1.404, 17.957, -39.435, -138.219, -20.087, -13.967, -3.340, 26.26, 0.38144, -0.2597, -0.25504, -0.84964,
 14:00:45.831,f6:90:cc:01:6d:25, 2015-01-01 02:12:44.565, 0.972, 0.155, 0.086, 2.136, -1.038, -0.305, 60.123, -80.211, 136.807, -29.560, -14.767, 0.313, 32.88, -0.05753, 0.65982, 0.14969, 0.73404,
 14:00:45.831,f6:90:cc:01:6d:25, 2015-01-01 02:12:44.565, 0.973, 0.157, 0.081, 1.892, -1.099, 0, 60.26, -80.222, 136.703, -29.560, -14.767, 0.313, 32.88, -0.05753, 0.65982, 0.14969, 0.73404,
 14:00:45.852,ed:40:fe:65:30:6c, 2015-01-01 02:12:49.605, 0.636, 0.251, 0.727, 1.16, 0, 1.465, 17.968, -39.446, -138.192, -19.713, -14.200, -2.393, 26.26, 0.38144, -0.2597, -0.25504, -0.84964,
 14:00:45.852,ed:40:fe:65:30:6c, 2015-01-01 02:12:49.605, 0.638, 0.26, 0.73, 1.038, 0.061, 1.648, 17.968, -39.452, -138.153, -19.713, -14.200, -2.393, 26.26, 0.38144, -0.2597, -0.25504, -0.84964,
 14:00:45.853,f6:90:cc:01:6d:25, 2015-01-01 02:12:44.565, 0.968, 0.154, 0.083, 1.587, -1.099, 0.305, 60.381, -80.233, 136.62, -29.560, -14.767, 0.313, 32.88, -0.05661, 0.65952, 0.15128, 0.73407,
 14:00:45.853,f6:90:cc:01:6d:25, 2015-01-01 02:12:44.565, 0.973, 0.15, 0.08, 1.404, -0.793, 0.549, 60.452, -80.244, 136.599, -29.560, -14.767, 0.313, 32.88, -0.05661, 0.65952, 0.15128, 0.73407,
 14:00:45.854,ed:35:33:d3:6c:f8, 2015-01-01 02:12:44.765, 0.328, 0.345, 0.87, 0.916, 0.732, 4.15, 20.55, -18.699, 158.934, -9.500, -16.947, -31.840, 31.45, -0.15012, -0.18787, -0.14362, -0.95993,
 14:00:45.854,ed:35:33:d3:6c:f8, 2015-01-01 02:12:44.765, 0.324, 0.352, 0.873, 0.305, 0.305, 3.174, 20.544, -18.715, 158.901, -9.500, -16.947, -31.840, 31.45, -0.15012, -0.18787, -0.14362, -0.95993,
 14:00:45.875,e3:ca:2d:fd:e0:8c, 2015-01-01 02:12:44.240, 0.985, -0.123, 0.25, 1.16, -1.77, 0.549, -27.186, -73.768, -169.184, -27.360, -8.880, -10.280, 28.67, -0.06738, -0.59824, 0.13223, -0.78738,
 14:00:45.875,e3:ca:2d:fd:e0:8c, 2015-01-01 02:12:44.240, 0.985, -0.123, 0.254, 0.793, 0, 0.977, -27.224, -73.768, -169.146, -27.360, -8.880, -10.280, 28.67, -0.06738, -0.59824, 0.13223, -0.78738,
 14:00:45.898,f6:90:cc:01:6d:25, 2015-01-01 02:12:44.565, 0.976, 0.152, 0.083, 1.282, -0.916, 0.854, 60.518, -80.266, 136.582, -29.560, -14.767, 0.313, 32.88, -0.05661, 0.65952, 0.15128, 0.73407,
 14:00:45.898,f6:90:cc:01:6d:25, 2015-01-01 02:12:44.565, 0.979, 0.152, 0.079, 1.587, -0.61, 1.282, 60.54, -80.288, 136.599, -29.560, -14.767, 0.313, 32.88, -0.05661, 0.65952, 0.15128, 0.73407,
 14:00:45.898,ed:40:fe:65:30:6c, 2015-01-01 02:12:49.605, 0.643, 0.259, 0.733, 0.61, 0.183, 2.014, 17.963, -39.457, -138.109, -19.713, -14.200, -2.393, 26.26, 0.38144, -0.2597, -0.25504, -0.84964,
 14:00:45.898,ed:40:fe:65:30:6c, 2015-01-01 02:12:49.605, 0.646, 0.249, 0.726, 0.793, 0, 1.953, 17.957, -39.468, -138.065, -19.713, -14.200, -2.393, 26.26, 0.38144, -0.2597, -0.25504, -0.84964,
 14:00:45.899,ed:35:33:d3:6c:f8, 2015-01-01 02:12:44.765, 0.334, 0.355, 0.879, 0.671, 0.244, 2.625, 20.55, -18.732, 158.829, -9.500, -16.947, -31.840, 31.45, -0.15012, -0.18787, -0.14362, -0.95993,
 14:00:45.899,ed:35:33:d3:6c:f8, 2015-01-01 02:12:44.765, 0.324, 0.331, 0.879, 0.061, 2.625, 2.38, 20.555, -18.71, 158.769, -9.500, -16.947, -31.840, 31.45, -0.15012, -0.18787, -0.14362, -0.95993,
 14:00:45.920,e3:ca:2d:fd:e0:8c, 2015-01-01 02:12:44.595, 0.985, -0.125, 0.252, 0.61, 0.793, 1.16, -27.252, -73.751, -169.118, -27.360, -8.880, -10.280, 28.67, -0.06738, -0.59824, 0.13223, -0.78738,
 14:00:45.920,e3:ca:2d:fd:e0:8c, 2015-01-01 02:12:44.595, 0.984, -0.128, 0.253, 0.916, -1.038, 1.16, -27.318, -73.751, -169.041, -27.360, -8.880, -10.280, 28.67, -0.06738, -0.59824, 0.13223, -0.78738,
 14:00:45.921,f6:90:cc:01:6d:25, 2015-01-01 02:12:44.945, 0.977, 0.146, 0.078, 0.916, -0.183, 1.77, 60.48, -80.321, 136.703, -29.560, -14.767, 0.313, 32.88, -0.05661, 0.65952, 0.15128, 0.73407,
 14:00:45.921,f6:90:cc:01:6d:25, 2015-01-01 02:12:44.945, 0.974, 0.14, 0.079, 0.793, 0.305, 1.953, 60.359, -80.349, 136.851, -29.560, -14.767, 0.313, 32.88, -0.05661, 0.65952, 0.15128, 0.73407,
 14:00:45.942,e3:ca:2d:fd:e0:8c, 2015-01-01 02:12:44.595, 0.981, -0.129, 0.252, 0.793, -1.282, 1.16, -27.4, -73.768, -168.942, -27.360, -8.880, -10.280, 28.67, -0.06738, -0.59824, 0.13223, -0.78738,
 14:00:45.942,e3:ca:2d:fd:e0:8c, 2015-01-01 02:12:44.595, 0.983, -0.129, 0.252, 0.427, -0.793, 1.038, -27.471, -73.773, -168.871, -27.360, -8.880, -10.280, 28.67, -0.06738, -0.59824, 0.13223, -0.78738,
 14:00:45.945,ed:35:33:d3:6c:f8, 2015-01-01 02:12:44.765, 0.322, 0.341, 0.885, -0.122, 2.869, 2.38, 20.544, -18.682, 158.703, -9.500, -16.947, -31.840, 31.45, -0.15012, -0.18787, -0.14362, -0.95993,
 14:00:45.945,ed:35:33:d3:6c:f8, 2015-01-01 02:12:44.765, 0.326, 0.351, 0.887, 0.671, 4.639, 3.418, 20.528, -18.638, 158.687, -9.500, -16.947, -31.840, 31.45, -0.15012, -0.18787, -0.14362, -0.95993,
 14:00:45.964,ed:40:fe:65:30:6c, 2015-01-01 02:12:49.605, 0.64, 0.239, 0.726, 0.977, 0.244, 1.587, 17.963, -39.474, -138.032, -19.713, -14.200, -2.393, 26.26, 0.38181, -0.25885, -0.2565, -0.8493,
 14:00:45.964,ed:40:fe:65:30:6c, 2015-01-01 02:12:49.605, 0.64, 0.244, 0.732, 1.831, 0.244, 1.587, 17.985, -39.479, -137.994, -19.713, -14.200, -2.393, 26.26, 0.38181, -0.25885, -0.2565, -0.8493,
 14:00:45.966,f6:90:cc:01:6d:25, 2015-01-01 02:12:44.945, 0.974, 0.137, 0.078, 1.587, 0.732, 2.014, 60.211, -80.37, 137.054, -29.560, -14.767, 0.313, 32.88, -0.05661, 0.65952, 0.15128, 0.73407,
 14:00:45.966,f6:90:cc:01:6d:25, 2015-01-01 02:12:44.945, 0.975, 0.144, 0.071, 0.183, 1.221, 2.014, 59.98, -80.392, 137.313, -29.560, -14.767, 0.313, 32.88, -0.05661, 0.65952, 0.15128, 0.73407,
 14:00:45.966,e3:ca:2d:fd:e0:8c, 2015-01-01 02:12:44.595, 0.986, -0.13, 0.249, 0.183, -0.916, 1.099, -27.554, -73.779, -168.805, -27.360, -8.880, -10.280, 28.67, -0.06738, -0.59824, 0.13223, -0.78738,
 14:00:45.966,e3:ca:2d:fd:e0:8c, 2015-01-01 02:12:44.595, 0.98, -0.13, 0.248, 0.122, -0.854, 1.099, -27.636, -73.79, -168.723, -27.360, -8.880, -10.280, 28.67, -0.06738, -0.59824, 0.13223, -0.78738,
 14:00:45.967,ed:35:33:d3:6c:f8, 2015-01-01 02:12:44.765, 0.326, 0.348, 0.884, 1.038, 4.578, 4.089, 20.517, -18.583, 158.708, -9.467, -16.687, -31.133, 31.45, -0.15012, -0.18787, -0.14362, -0.95993,
 14:00:45.967,ed:35:33:d3:6c:f8, 2015-01-01 02:12:44.765, 0.32, 0.34, 0.88, -0.366, 2.686, 3.784, 20.506, -18.539, 158.714, -9.467, -16.687, -31.133, 31.45, -0.15012, -0.18787, -0.14362, -0.95993,
 14:00:46.009,ed:40:fe:65:30:6c, 2015-01-01 02:12:49.965, 0.643, 0.248, 0.734, 2.014, 0.366, 2.136, 17.996, -39.49, -137.933, -19.713, -14.200, -2.393, 26.26, 0.38181, -0.25885, -0.2565, -0.8493,
 14:00:46.009,ed:40:fe:65:30:6c, 2015-01-01 02:12:49.965, 0.641, 0.252, 0.732, 1.526, 0.427, 2.563, 17.996, -39.496, -137.862, -19.713, -14.200, -2.393, 26.26, 0.38181, -0.25885, -0.2565, -0.8493,
 14:00:46.010,e3:ca:2d:fd:e0:8c, 2015-01-01 02:12:44.595, 0.979, -0.131, 0.245, 0.427, -1.16, 1.16, -27.729, -73.801, -168.618, -27.360, -8.880, -10.280, 28.67, -0.06738, -0.59824, 0.13223, -0.78738,
 14:00:46.010,e3:ca:2d:fd:e0:8c, 2015-01-01 02:12:44.595, 0.98, -0.13, 0.245, 0.427, -0.916, 1.343, -27.823, -73.806, -168.486, -27.360, -8.880, -10.280, 28.67, -0.06738, -0.59824, 0.13223, -0.78738,
 14:00:46.011,f6:90:cc:01:6d:25, 2015-01-01 02:12:44.945, 0.967, 0.146, 0.076, -2.136, 1.099, 2.441, 59.705, -80.425, 137.582, -29.560, -14.767, 0.313, 32.88, -0.05661, 0.65952, 0.15128, 0.73407,
 14:00:46.011,f6:90:cc:01:6d:25, 2015-01-01 02:12:44.945, 0.968, 0.14, 0.081, -0.977, 0.305, 2.869, 59.502, -80.469, 137.796, -29.560, -14.767, 0.313, 32.88, -0.05661, 0.65952, 0.15128, 0.73407,
 14:00:46.012,ed:35:33:d3:6c:f8, 2015-01-01 02:12:44.765, 0.313, 0.33, 0.881, -0.793, 0.854, 3.418, 20.479, -18.528, 158.714, -9.467, -16.687, -31.133, 31.45, -0.15012, -0.18787, -0.14362, -0.95993,
 14:00:46.012,ed:35:33:d3:6c:f8, 2015-01-01 02:12:44.765, 0.308, 0.323, 0.889, -2.014, 1.099, 2.747, 20.446, -18.539, 158.736, -9.467, -16.687, -31.133, 31.45, -0.15012, -0.18787, -0.14362, -0.95993,
 14:00:46.031,ed:40:fe:65:30:6c, 2015-01-01 02:12:49.965, 0.636, 0.248, 0.728, 0.916, 0.244, 2.747, 17.979, -39.512, -137.796, -19.713, -14.200, -2.393, 26.26, 0.38181, -0.25885, -0.2565, -0.8493,
 14:00:46.031,ed:40:fe:65:30:6c, 2015-01-01 02:12:49.965, 0.632, 0.24, 0.731, 0.122, 0.061, 2.93, 17.941, -39.529, -137.719, -19.713, -14.200, -2.393, 26.26, 0.38181, -0.25885, -0.2565, -0.8493,
 14:00:46.054,ed:40:fe:65:30:6c, 2015-01-01 02:12:49.965, 0.629, 0.232, 0.739, -0.61, 0, 2.93, 17.891, -39.545, -137.659, -19.713, -14.200, -2.393, 26.26, 0.38181, -0.25885, -0.2565, -0.8493,
 14:00:46.054,ed:40:fe:65:30:6c, 2015-01-01 02:12:49.965, 0.635, 0.229, 0.742, -1.038, -0.183, 2.747, 17.836, -39.567, -137.615, -19.713, -14.200, -2.393, 26.26, 0.38181, -0.25885, -0.2565, -0.8493,
 14:00:46.056,f6:90:cc:01:6d:25, 2015-01-01 02:12:44.945, 0.971, 0.136, 0.086, -0.732, -0.183, 2.625, 59.31, -80.513, 137.983, -29.560, -14.767, 0.313, 32.88, -0.05661, 0.65952, 0.15128, 0.73407,
 14:00:46.056,f6:90:cc:01:6d:25, 2015-01-01 02:12:44.945, 0.976, 0.137, 0.087, -0.244, -0.671, 2.38, 59.183, -80.563, 138.093, -29.560, -14.767, 0.313, 32.88, -0.05661, 0.65952, 0.15128, 0.73407,
 14:00:46.056,e3:ca:2d:fd:e0:8c, 2015-01-01 02:12:44.595, 0.982, -0.129, 0.246, -0.061, -0.061, 1.343, -27.911, -73.801, -168.387, -27.360, -8.880, -10.280, 28.67, -0.06738, -0.59824, 0.13223, -0.78738,
 14:00:46.056,e3:ca:2d:fd:e0:8c, 2015-01-01 02:12:44.595, 0.982, -0.133, 0.246, -0.183, 0.061, 1.465, -27.993, -73.79, -168.294, -27.360, -8.880, -10.280, 28.67, -0.06738, -0.59824, 0.13223, -0.78738,
 14:00:46.057,ed:35:33:d3:6c:f8, 2015-01-01 02:12:44.765, 0.316, 0.32, 0.896, -2.502, 1.77, 2.197, 20.385, -18.539, 158.763, -9.467, -16.687, -31.133, 31.45, -0.15112, -0.18811, -0.14304, -0.95981,
 14:00:46.057,ed:35:33:d3:6c:f8, 2015-01-01 02:12:44.765, 0.325, 0.321, 0.89, -2.441, 2.563, 1.282, 20.325, -18.517, 158.824, -9.467, -16.687, -31.133, 31.45, -0.15112, -0.18811, -0.14304, -0.95981,
 14:00:46.098,ed:40:fe:65:30:6c, 2015-01-01 02:12:49.965, 0.643, 0.232, 0.737, -0.977, -0.549, 2.441, 17.781, -39.589, -137.571, -19.713, -14.200, -2.393, 26.26, 0.38181, -0.25885, -0.2565, -0.8493,
 14:00:46.098,ed:40:fe:65:30:6c, 2015-01-01 02:12:49.965, 0.642, 0.218, 0.732, -1.282, 0.061, 2.319, 17.726, -39.611, -137.527, -19.713, -14.200, -2.393, 26.26, 0.38181, -0.25885, -0.2565, -0.8493,
 14:00:46.100,e3:ca:2d:fd:e0:8c, 2015-01-01 02:12:44.595, 0.982, -0.139, 0.252, 0, -0.61, 1.465, -28.092, -73.79, -168.19, -27.360, -8.880, -10.280, 28.67, -0.06738, -0.59824, 0.13223, -0.78738,
 14:00:46.100,e3:ca:2d:fd:e0:8c, 2015-01-01 02:12:44.595, 0.981, -0.14, 0.254, 0.427, -0.61, 1.221, -28.18, -73.79, -168.102, -27.360, -8.880, -10.280, 28.67, -0.06738, -0.59824, 0.13223, -0.78738,
 14:00:46.101,f6:90:cc:01:6d:25, 2015-01-01 02:12:44.945, 0.977, 0.132, 0.091, -0.061, -0.916, 2.502, 59.117, -80.607, 138.164, -29.560, -14.767, 0.313, 32.88, -0.05661, 0.65952, 0.15128, 0.73407,
 14:00:46.101,f6:90:cc:01:6d:25, 2015-01-01 02:12:44.945, 0.978, 0.123, 0.086, 0.427, -0.671, 2.38, 59.052, -80.656, 138.235, -29.560, -14.767, 0.313, 32.88, -0.05661, 0.65952, 0.15128, 0.73407,
 14:00:46.102,ed:35:33:d3:6c:f8, 2015-01-01 02:12:45.075, 0.323, 0.32, 0.887, -1.465, 1.77, -0.671, 20.275, -18.479, 158.857, -9.467, -16.687, -31.133, 31.45, -0.15112, -0.18811, -0.14304, -0.95981,
 14:00:46.102,ed:35:33:d3:6c:f8, 2015-01-01 02:12:45.075, 0.32, 0.31, 0.886, -0.61, 0, 0.061, 20.253, -18.452, 158.835, -9.467, -16.687, -31.133, 31.45, -0.15112, -0.18811, -0.14304, -0.95981,
 14:00:46.124,f6:90:cc:01:6d:25, 2015-01-01 02:12:44.945, 0.977, 0.121, 0.085, 0.732, -0.366, 2.075, 58.969, -80.706, 138.34, -29.867, -14.420, 0.660, 32.88, -0.05661, 0.65952, 0.15128, 0.73407,
 14:00:46.124,f6:90:cc:01:6d:25, 2015-01-01 02:12:44.945, 0.973, 0.122, 0.085, 0.854, 0, 1.77, 58.876, -80.739, 138.472, -29.867, -14.420, 0.660, 32.88, -0.05661, 0.65952, 0.15128, 0.73407,
 14:00:46.144,ed:40:fe:65:30:6c, 2015-01-01 02:12:49.965, 0.639, 0.215, 0.734, -1.16, 0.305, 2.075, 17.666, -39.622, -137.483, -19.713, -14.200, -2.393, 26.26, 0.38181, -0.25885, -0.2565, -0.8493,
 14:00:46.144,ed:40:fe:65:30:6c, 2015-01-01 02:12:49.965, 0.633, 0.219, 0.737, -0.854, 0.427, 1.953, 17.611, -39.628, -137.433, -19.713, -14.200, -2.393, 26.26, 0.38181, -0.25885, -0.2565, -0.8493,
 14:00:46.147,ed:35:33:d3:6c:f8, 2015-01-01 02:12:45.075, 0.317, 0.305, 0.889, -1.587, 3.357, -1.77, 20.237, -18.435, 158.785, -9.467, -16.687, -31.133, 31.45, -0.15112, -0.18811, -0.14304, -0.95981,
 14:00:46.147,ed:35:33:d3:6c:f8, 2015-01-01 02:12:45.075, 0.312, 0.313, 0.89, -2.197, 4.272, -2.991, 20.204, -18.358, 158.73, -9.467, -16.687, -31.133, 31.45, -0.15112, -0.18811, -0.14304, -0.95981,
 14:00:46.167,e3:ca:2d:fd:e0:8c, 2015-01-01 02:12:44.595, 0.98, -0.14, 0.256, 0.671, -0.427, 0.977, -28.246, -73.79, -168.047, -27.733, -8.867, -11.147, 28.67, -0.06738, -0.59824, 0.13223, -0.78738,
 14:00:46.167,e3:ca:2d:fd:e0:8c, 2015-01-01 02:12:44.595, 0.98, -0.14, 0.257, 0.122, -0.671, 0.671, -28.306, -73.795, -167.975, -27.733, -8.867, -11.147, 28.67, -0.06738, -0.59824, 0.13223, -0.78738,
 14:00:46.168,f6:90:cc:01:6d:25, 2015-01-01 02:12:44.945, 0.973, 0.124, 0.082, 1.404, 0.122, 1.404, 58.766, -80.771, 138.609, -29.867, -14.420, 0.660, 32.88, -0.05661, 0.65952, 0.15128, 0.73407,
 14:00:46.168,f6:90:cc:01:6d:25, 2015-01-01 02:12:44.945, 0.974, 0.129, 0.084, 1.587, 0.061, 1.221, 58.678, -80.793, 138.719, -29.867, -14.420, 0.660, 32.88, -0.05661, 0.65952, 0.15128, 0.73407,
 14:00:46.169,ed:35:33:d3:6c:f8, 2015-01-01 02:12:45.075, 0.302, 0.315, 0.89, -2.625, 4.761, -5.432, 20.165, -18.259, 158.643, -9.467, -16.687, -31.133, 31.45, -0.15112, -0.18811, -0.14304, -0.95981,
 14:00:46.169,ed:35:33:d3:6c:f8, 2015-01-01 02:12:45.075, 0.307, 0.314, 0.897, -2.136, 2.686, -5.005, 20.132, -18.144, 158.5, -9.467, -16.687, -31.133, 31.45, -0.15112, -0.18811, -0.14304, -0.95981,
 14:00:46.190,e3:ca:2d:fd:e0:8c, 2015-01-01 02:12:44.595, 0.981, -0.137, 0.251, -0.183, -0.61, 0.427, -28.356, -73.801, -167.926, -27.733, -8.867, -11.147, 28.67, -0.06473, -0.59949, 0.13361, -0.78641,
 14:00:46.190,e3:ca:2d:fd:e0:8c, 2015-01-01 02:12:44.595, 0.982, -0.135, 0.25, 0.244, -0.244, 0.366, -28.389, -73.801, -167.904, -27.733, -8.867, -11.147, 28.67, -0.06473, -0.59949, 0.13361, -0.78641,
 14:00:46.190,ed:40:fe:65:30:6c, 2015-01-01 02:12:49.965, 0.634, 0.222, 0.739, -0.366, 0.305, 2.014, 17.562, -39.633, -137.384, -19.713, -14.200, -2.393, 26.26, 0.38181, -0.25885, -0.2565, -0.8493,
 14:00:46.190,ed:40:fe:65:30:6c, 2015-01-01 02:12:49.965, 0.636, 0.22, 0.735, 0.122, 0.183, 1.77, 17.518, -39.639, -137.34, -19.713, -14.200, -2.393, 26.26, 0.38181, -0.25885, -0.2565, -0.8493,
 14:00:46.211,ed:40:fe:65:30:6c, 2015-01-01 02:12:49.965, 0.639, 0.217, 0.734, 0.549, 0.061, 1.343, 17.49, -39.644, -137.318, -19.740, -13.933, -2.280, 26.26, 0.38181, -0.25885, -0.2565, -0.8493,
 14:00:46.211,ed:40:fe:65:30:6c, 2015-01-01 02:12:49.965, 0.638, 0.217, 0.735, 0.732, 0.061, 0.977, 17.479, -39.65, -137.302, -19.740, -13.933, -2.280, 26.26, 0.38181, -0.25885, -0.2565, -0.8493,
 14:00:46.215,ed:35:33:d3:6c:f8, 2015-01-01 02:12:45.075, 0.313, 0.308, 0.891, -1.831, 1.77, -2.991, 20.11, -18.073, 158.368, -9.467, -16.687, -31.133, 31.45, -0.15112, -0.18811, -0.14304, -0.95981,
 14:00:46.215,ed:35:33:d3:6c:f8, 2015-01-01 02:12:45.075, 0.309, 0.307, 0.889, -4.272, 2.991, -4.333, 20.072, -18.018, 158.258, -9.467, -16.687, -31.133, 31.45, -0.15112, -0.18811, -0.14304, -0.95981,
 14:00:46.234,e3:ca:2d:fd:e0:8c, 2015-01-01 02:12:44.595, 0.982, -0.135, 0.25, 0.488, -0.427, 0.488, -28.416, -73.801, -167.877, -27.733, -8.867, -11.147, 28.67, -0.06473, -0.59949, 0.13361, -0.78641,
 14:00:46.234,e3:ca:2d:fd:e0:8c, 2015-01-01 02:12:44.595, 0.981, -0.134, 0.25, 0.366, -0.366, 0.488, -28.449, -73.806, -167.844, -27.733, -8.867, -11.147, 28.67, -0.06473, -0.59949, 0.13361, -0.78641,
 14:00:46.256,ed:40:fe:65:30:6c, 2015-01-01 02:12:49.965, 0.641, 0.218, 0.734, 0.977, 0, 0.732, 17.468, -39.655, -137.296, -19.740, -13.933, -2.280, 26.26, 0.38181, -0.25885, -0.2565, -0.8493,
 14:00:46.256,ed:40:fe:65:30:6c, 2015-01-01 02:12:49.965, 0.641, 0.22, 0.732, 1.099, 0.061, 0.61, 17.474, -39.661, -137.291, -19.740, -13.933, -2.280, 26.26, 0.38181, -0.25885, -0.2565, -0.8493,
 14:00:46.257,e3:ca:2d:fd:e0:8c, 2015-01-01 02:12:44.955, 0.982, -0.135, 0.247, 0.122, -0.366, 0.427, -28.488, -73.806, -167.811, -27.733, -8.867, -11.147, 28.67, -0.06473, -0.59949, 0.13361, -0.78641,
 14:00:46.257,e3:ca:2d:fd:e0:8c, 2015-01-01 02:12:44.955, 0.984, -0.135, 0.246, 0.061, -0.122, 0.244, -28.504, -73.806, -167.794, -27.733, -8.867, -11.147, 28.67, -0.06473, -0.59949, 0.13361, -0.78641,
 14:00:46.259,f6:90:cc:01:6d:25, 2015-01-01 02:12:44.945, 0.974, 0.131, 0.084, 1.221, 0.122, 1.099, 58.601, -80.815, 138.812, -29.867, -14.420, 0.660, 32.88, -0.06308, 0.66022, 0.15005, 0.73315,
 14:00:46.259,f6:90:cc:01:6d:25, 2015-01-01 02:12:44.945, 0.973, 0.128, 0.083, 0.916, 0.244, 0.977, 58.524, -80.832, 138.939, -29.867, -14.420, 0.660, 32.88, -0.06308, 0.66022, 0.15005, 0.73315,
 14:00:46.260,ed:35:33:d3:6c:f8, 2015-01-01 02:12:45.075, 0.302, 0.311, 0.896, -4.15, 2.991, -5.005, 20.001, -17.935, 158.137, -9.467, -16.687, -31.133, 31.45, -0.15112, -0.18811, -0.14304, -0.95981,
 14:00:46.260,ed:35:33:d3:6c:f8, 2015-01-01 02:12:45.075, 0.308, 0.314, 0.895, -2.747, 2.258, -2.625, 19.94, -17.858, 158.044, -9.467, -16.687, -31.133, 31.45, -0.15112, -0.18811, -0.14304, -0.95981,
 14:00:46.282,f6:90:cc:01:6d:25, 2015-01-01 02:12:45.280, 0.973, 0.125, 0.079, 0.244, 0.244, 0.671, 58.436, -80.848, 139.065, -29.867, -14.420, 0.660, 32.88, -0.06308, 0.66022, 0.15005, 0.73315,
 14:00:46.282,f6:90:cc:01:6d:25, 2015-01-01 02:12:45.280, 0.975, 0.124, 0.081, 0, 0.061, 0.305, 58.365, -80.859, 139.136, -29.867, -14.420, 0.660, 32.88, -0.06308, 0.66022, 0.15005, 0.73315,
 14:00:46.302,e3:ca:2d:fd:e0:8c, 2015-01-01 02:12:44.955, 0.985, -0.135, 0.246, -0.061, -0.061, 0.061, -28.515, -73.812, -167.783, -27.733, -8.867, -11.147, 28.67, -0.06473, -0.59949, 0.13361, -0.78641,
 14:00:46.302,e3:ca:2d:fd:e0:8c, 2015-01-01 02:12:44.955, 0.984, -0.133, 0.248, 0, 0.061, 0, -28.515, -73.812, -167.794, -27.733, -8.867, -11.147, 28.67, -0.06473, -0.59949, 0.13361, -0.78641,
 14:00:46.304,f6:90:cc:01:6d:25, 2015-01-01 02:12:45.280, 0.975, 0.127, 0.08, 0.183, 0.122, 0.122, 58.326, -80.865, 139.169, -29.867, -14.420, 0.660, 32.88, -0.06308, 0.66022, 0.15005, 0.73315,
 14:00:46.304,f6:90:cc:01:6d:25, 2015-01-01 02:12:45.280, 0.975, 0.131, 0.082, 0.061, 0, -0.061, 58.304, -80.87, 139.18, -29.867, -14.420, 0.660, 32.88, -0.06308, 0.66022, 0.15005, 0.73315,
 14:00:46.305,ed:35:33:d3:6c:f8, 2015-01-01 02:12:45.075, 0.313, 0.308, 0.893, -2.686, 1.404, -1.16, 19.885, -17.809, 158.005, -9.193, -16.693, -31.500, 31.45, -0.15112, -0.18811, -0.14304, -0.95981,
 14:00:46.305,ed:35:33:d3:6c:f8, 2015-01-01 02:12:45.075, 0.292, 0.305, 0.895, -1.221, 2.136, -2.258, 19.841, -17.77, 157.978, -9.193, -16.693, -31.500, 31.45, -0.15112, -0.18811, -0.14304, -0.95981,
 14:00:46.323,ed:40:fe:65:30:6c, 2015-01-01 02:12:49.965, 0.642, 0.22, 0.734, 0.916, 0.183, 0.366, 17.474, -39.661, -137.28, -19.740, -13.933, -2.280, 26.26, 0.38651, -0.26025, -0.25516, -0.84717,
 14:00:46.323,ed:40:fe:65:30:6c, 2015-01-01 02:12:49.965, 0.637, 0.221, 0.735, 0.793, 0.305, 0, 17.479, -39.661, -137.269, -19.740, -13.933, -2.280, 26.26, 0.38651, -0.26025, -0.25516, -0.84717,
 14:00:46.325,f6:90:cc:01:6d:25, 2015-01-01 02:12:45.280, 0.973, 0.132, 0.081, -0.305, 0.183, -0.305, 58.293, -80.87, 139.153, -29.867, -14.420, 0.660, 32.88, -0.06308, 0.66022, 0.15005, 0.73315,
 14:00:46.325,f6:90:cc:01:6d:25, 2015-01-01 02:12:45.280, 0.972, 0.132, 0.085, -1.099, 0.244, -0.366, 58.271, -80.865, 139.147, -29.867, -14.420, 0.660, 32.88, -0.06308, 0.66022, 0.15005, 0.73315,
 14:00:46.328,ed:35:33:d3:6c:f8, 2015-01-01 02:12:45.075, 0.296, 0.308, 0.898, -0.732, 1.038, -2.258, 19.819, -17.726, 157.917, -9.193, -16.693, -31.500, 31.45, -0.16043, -0.18149, -0.13782, -0.96033,
 14:00:46.328,ed:35:33:d3:6c:f8, 2015-01-01 02:12:45.075, 0.299, 0.313, 0.9, -0.183, 0.549, -1.648, 19.814, -17.699, 157.885, -9.193, -16.693, -31.500, 31.45, -0.16043, -0.18149, -0.13782, -0.96033,
 14:00:46.346,ed:40:fe:65:30:6c, 2015-01-01 02:12:50.320, 0.634, 0.223, 0.737, 0.366, 0.244, -0.549, 17.485, -39.655, -137.274, -19.740, -13.933, -2.280, 26.26, 0.38651, -0.26025, -0.25516, -0.84717,
 14:00:46.346,ed:40:fe:65:30:6c, 2015-01-01 02:12:50.320, 0.636, 0.227, 0.74, 0, 0.061, -1.099, 17.496, -39.65, -137.302, -19.740, -13.933, -2.280, 26.26, 0.38651, -0.26025, -0.25516, -0.84717,
 14:00:46.347,e3:ca:2d:fd:e0:8c, 2015-01-01 02:12:44.955, 0.982, -0.133, 0.249, 0, 0.061, 0, -28.515, -73.812, -167.811, -27.733, -8.867, -11.147, 28.67, -0.06473, -0.59949, 0.13361, -0.78641,
 14:00:46.347,e3:ca:2d:fd:e0:8c, 2015-01-01 02:12:44.955, 0.98, -0.134, 0.249, 0, 0, 0, -28.51, -73.812, -167.838, -27.733, -8.867, -11.147, 28.67, -0.06473, -0.59949, 0.13361, -0.78641,
 14:00:46.369,ed:40:fe:65:30:6c, 2015-01-01 02:12:50.320, 0.641, 0.227, 0.736, -0.427, -0.122, -1.343, 17.501, -39.644, -137.34, -19.740, -13.933, -2.280, 26.26, 0.38651, -0.26025, -0.25516, -0.84717,
 14:00:46.369,ed:40:fe:65:30:6c, 2015-01-01 02:12:50.320, 0.643, 0.229, 0.734, -0.488, -0.122, -1.221, 17.507, -39.639, -137.379, -19.740, -13.933, -2.280, 26.26, 0.38651, -0.26025, -0.25516, -0.84717,
 14:00:46.369,e3:ca:2d:fd:e0:8c, 2015-01-01 02:12:44.955, 0.98, -0.136, 0.25, 0, 0, 0, -28.51, -73.812, -167.855, -27.733, -8.867, -11.147, 28.67, -0.06473, -0.59949, 0.13361, -0.78641,
 14:00:46.369,e3:ca:2d:fd:e0:8c, 2015-01-01 02:12:44.955, 0.983, -0.139, 0.249, 0, 0, -0.183, -28.499, -73.817, -167.888, -27.733, -8.867, -11.147, 28.67, -0.06473, -0.59949, 0.13361, -0.78641,
 14:00:46.370,f6:90:cc:01:6d:25, 2015-01-01 02:12:45.280, 0.973, 0.13, 0.086, -2.075, 0.122, -0.366, 58.239, -80.854, 139.153, -29.867, -14.420, 0.660, 32.88, -0.06308, 0.66022, 0.15005, 0.73315,
 14:00:46.370,f6:90:cc:01:6d:25, 2015-01-01 02:12:45.280, 0.977, 0.125, 0.084, -2.686, 0.122, -0.305, 58.195, -80.848, 139.158, -29.867, -14.420, 0.660, 32.88, -0.06308, 0.66022, 0.15005, 0.73315,
 14:00:46.372,ed:35:33:d3:6c:f8, 2015-01-01 02:12:45.075, 0.306, 0.319, 0.9, -0.793, 0.061, -1.77, 19.808, -17.682, 157.874, -9.193, -16.693, -31.500, 31.45, -0.16043, -0.18149, -0.13782, -0.96033,
 14:00:46.372,ed:35:33:d3:6c:f8, 2015-01-01 02:12:45.075, 0.309, 0.322, 0.895, -0.854, 0.244, -1.16, 19.792, -17.672, 157.852, -9.193, -16.693, -31.500, 31.45, -0.16043, -0.18149, -0.13782, -0.96033,
 14:00:46.413,ed:40:fe:65:30:6c, 2015-01-01 02:12:50.320, 0.641, 0.228, 0.733, -0.427, 0, -0.793, 17.507, -39.633, -137.417, -19.740, -13.933, -2.280, 26.26, 0.38651, -0.26025, -0.25516, -0.84717,
 14:00:46.413,ed:40:fe:65:30:6c, 2015-01-01 02:12:50.320, 0.639, 0.225, 0.731, -0.244, 0.122, -0.427, 17.507, -39.628, -137.461, -19.740, -13.933, -2.280, 26.26, 0.38651, -0.26025, -0.25516, -0.84717,
 14:00:46.415,e3:ca:2d:fd:e0:8c, 2015-01-01 02:12:44.955, 0.983, -0.138, 0.251, 0, 0.122, -0.427, -28.471, -73.817, -167.937, -27.733, -8.867, -11.147, 28.67, -0.06473, -0.59949, 0.13361, -0.78641,
 14:00:46.415,e3:ca:2d:fd:e0:8c, 2015-01-01 02:12:44.955, 0.98, -0.136, 0.252, -0.183, 0.061, -0.61, -28.438, -73.823, -167.992, -27.733, -8.867, -11.147, 28.67, -0.06473, -0.59949, 0.13361, -0.78641,
 14:00:46.417,ed:35:33:d3:6c:f8, 2015-01-01 02:12:45.370, 0.307, 0.325, 0.895, -0.732, 0.244, -0.916, 19.775, -17.661, 157.714, -9.193, -16.693, -31.500, 31.45, -0.16043, -0.18149, -0.13782, -0.96033,
 14:00:46.417,ed:35:33:d3:6c:f8, 2015-01-01 02:12:45.370, 0.305, 0.313, 0.892, -0.061, 0.427, -0.732, 19.764, -17.65, 157.5, -9.193, -16.693, -31.500, 31.45, -0.16043, -0.18149, -0.13782, -0.96033,
 14:00:46.438,f6:90:cc:01:6d:25, 2015-01-01 02:12:45.280, 0.977, 0.122, 0.085, -2.563, 0.061, -0.305, 58.134, -80.848, 139.158, -29.867, -14.420, 0.660, 32.88, -0.06308, 0.66022, 0.15005, 0.73315,
 14:00:46.438,f6:90:cc:01:6d:25, 2015-01-01 02:12:45.280, 0.973, 0.119, 0.084, -1.465, 0.183, -0.427, 58.085, -80.843, 139.142, -29.867, -14.420, 0.660, 32.88, -0.06308, 0.66022, 0.15005, 0.73315,
 14:00:46.458,ed:40:fe:65:30:6c, 2015-01-01 02:12:50.320, 0.637, 0.229, 0.731, -0.183, 0.305, -0.488, 17.501, -39.628, -137.483, -19.740, -13.933, -2.280, 26.26, 0.38651, -0.26025, -0.25516, -0.84717,
 14:00:46.458,ed:40:fe:65:30:6c, 2015-01-01 02:12:50.320, 0.637, 0.233, 0.739, -0.244, 0.61, -0.549, 17.501, -39.617, -137.505, -19.740, -13.933, -2.280, 26.26, 0.38651, -0.26025, -0.25516, -0.84717,
 14:00:46.460,e3:ca:2d:fd:e0:8c, 2015-01-01 02:12:44.955, 0.98, -0.135, 0.25, -0.427, 0, -0.732, -28.405, -73.834, -168.036, -27.733, -8.867, -11.147, 28.67, -0.06473, -0.59949, 0.13361, -0.78641,
 14:00:46.460,e3:ca:2d:fd:e0:8c, 2015-01-01 02:12:44.955, 0.982, -0.134, 0.249, -0.793, 0.183, -0.671, -28.372, -73.834, -168.074, -27.733, -8.867, -11.147, 28.67, -0.06473, -0.59949, 0.13361, -0.78641,
 14:00:46.461,f6:90:cc:01:6d:25, 2015-01-01 02:12:45.280, 0.974, 0.122, 0.082, -0.427, 0.427, -0.61, 58.052, -80.837, 139.158, -29.867, -14.420, 0.660, 32.88, -0.06308, 0.66022, 0.15005, 0.73315,
 14:00:46.461,f6:90:cc:01:6d:25, 2015-01-01 02:12:45.280, 0.974, 0.129, 0.087, 0.244, 0.61, -0.732, 58.019, -80.821, 139.202, -29.867, -14.420, 0.660, 32.88, -0.06308, 0.66022, 0.15005, 0.73315,
 14:00:46.462,ed:35:33:d3:6c:f8, 2015-01-01 02:12:45.370, 0.302, 0.315, 0.889, -1.465, 1.038, -0.916, 19.759, -17.639, 157.258, -9.193, -16.693, -31.500, 31.45, -0.16043, -0.18149, -0.13782, -0.96033,
 14:00:46.462,ed:35:33:d3:6c:f8, 2015-01-01 02:12:45.370, 0.298, 0.326, 0.897, -0.366, 0.305, -1.404, 19.737, -17.617, 157.055, -9.193, -16.693, -31.500, 31.45, -0.16043, -0.18149, -0.13782, -0.96033,
 14:00:46.504,ed:40:fe:65:30:6c, 2015-01-01 02:12:50.320, 0.636, 0.228, 0.739, -0.122, 0.61, -0.244, 17.496, -39.606, -137.527, -19.740, -13.933, -2.280, 26.26, 0.38651, -0.26025, -0.25516, -0.84717,
 14:00:46.504,ed:40:fe:65:30:6c, 2015-01-01 02:12:50.320, 0.632, 0.224, 0.737, -0.183, 0.671, -0.244, 17.49, -39.589, -137.532, -19.740, -13.933, -2.280, 26.26, 0.38651, -0.26025, -0.25516, -0.84717,
 14:00:46.506,f6:90:cc:01:6d:25, 2015-01-01 02:12:45.280, 0.974, 0.13, 0.09, 0.549, 0.488, -0.916, 58.002, -80.804, 139.246, -29.867, -14.420, 0.660, 32.88, -0.06308, 0.66022, 0.15005, 0.73315,
 14:00:46.506,f6:90:cc:01:6d:25, 2015-01-01 02:12:45.280, 0.973, 0.125, 0.085, 1.038, 0.488, -1.099, 58.013, -80.788, 139.263, -29.867, -14.420, 0.660, 32.88, -0.06308, 0.66022, 0.15005, 0.73315,
 14:00:46.507,ed:35:33:d3:6c:f8, 2015-01-01 02:12:45.370, 0.3, 0.318, 0.899, 1.587, 0.916, -0.854, 19.742, -17.6, 156.945, -9.193, -16.693, -31.500, 31.45, -0.16043, -0.18149, -0.13782, -0.96033,
 14:00:46.507,ed:35:33:d3:6c:f8, 2015-01-01 02:12:45.370, 0.296, 0.313, 0.895, 1.404, 0.977, -0.61, 19.77, -17.578, 156.929, -9.193, -16.693, -31.500, 31.45, -0.16043, -0.18149, -0.13782, -0.96033,
 14:00:46.528,e3:ca:2d:fd:e0:8c, 2015-01-01 02:12:44.955, 0.983, -0.135, 0.251, -0.916, -0.305, -0.549, -28.372, -73.845, -168.096, -28.407, -8.620, -10.593, 28.67, -0.06473, -0.59949, 0.13361, -0.78641,
 14:00:46.528,e3:ca:2d:fd:e0:8c, 2015-01-01 02:12:44.955, 0.982, -0.136, 0.249, 0, -0.427, -0.427, -28.361, -73.856, -168.118, -28.407, -8.620, -10.593, 28.67, -0.06473, -0.59949, 0.13361, -0.78641,
 14:00:46.530,f6:90:cc:01:6d:25, 2015-01-01 02:12:45.280, 0.97, 0.126, 0.084, 0.793, 0.549, -1.282, 58.03, -80.766, 139.29, -29.727, -14.167, 0.647, 32.88, -0.06308, 0.66022, 0.15005, 0.73315,
 14:00:46.530,f6:90:cc:01:6d:25, 2015-01-01 02:12:45.280, 0.969, 0.133, 0.086, 0.122, 0.305, -1.16, 58.052, -80.744, 139.312, -29.727, -14.167, 0.647, 32.88, -0.06308, 0.66022, 0.15005, 0.73315,
 14:00:46.531,ed:35:33:d3:6c:f8, 2015-01-01 02:12:45.370, 0.293, 0.315, 0.895, 1.465, 0.305, -0.793, 19.797, -17.562, 156.973, -9.193, -16.693, -31.500, 31.45, -0.16043, -0.18149, -0.13782, -0.96033,
 14:00:46.531,ed:35:33:d3:6c:f8, 2015-01-01 02:12:45.370, 0.292, 0.315, 0.896, 0.977, 0.183, -0.916, 19.825, -17.551, 157.028, -9.193, -16.693, -31.500, 31.45, -0.16043, -0.18149, -0.13782, -0.96033,
 14:00:46.548,ed:40:fe:65:30:6c, 2015-01-01 02:12:50.320, 0.629, 0.224, 0.737, -0.244, 0.854, -0.366, 17.485, -39.578, -137.538, -19.740, -13.933, -2.280, 26.26, 0.38651, -0.26025, -0.25516, -0.84717,
 14:00:46.548,ed:40:fe:65:30:6c, 2015-01-01 02:12:50.320, 0.63, 0.226, 0.739, 0, 0.61, -0.549, 17.479, -39.562, -137.538, -19.740, -13.933, -2.280, 26.26, 0.38651, -0.26025, -0.25516, -0.84717,
 14:00:46.549,e3:ca:2d:fd:e0:8c, 2015-01-01 02:12:44.955, 0.981, -0.134, 0.248, 0.122, -0.305, -0.549, -28.334, -73.867, -168.157, -28.407, -8.620, -10.593, 28.67, -0.06641, -0.59967, 0.13452, -0.78598,
 14:00:46.549,e3:ca:2d:fd:e0:8c, 2015-01-01 02:12:44.955, 0.981, -0.13, 0.246, -0.793, 0, -0.61, -28.317, -73.872, -168.201, -28.407, -8.620, -10.593, 28.67, -0.06641, -0.59967, 0.13452, -0.78598,
 14:00:46.572,ed:40:fe:65:30:6c, 2015-01-01 02:12:50.320, 0.635, 0.23, 0.74, -0.061, 0.305, -0.793, 17.479, -39.545, -137.538, -20.220, -13.653, -2.533, 26.26, 0.38651, -0.26025, -0.25516, -0.84717,
 14:00:46.572,ed:40:fe:65:30:6c, 2015-01-01 02:12:50.320, 0.639, 0.234, 0.738, -0.183, 0.122, -0.854, 17.485, -39.534, -137.538, -20.220, -13.653, -2.533, 26.26, 0.38651, -0.26025, -0.25516, -0.84717,
 14:00:46.573,f6:90:cc:01:6d:25, 2015-01-01 02:12:45.280, 0.97, 0.136, 0.085, -0.427, 0.061, -1.221, 58.085, -80.728, 139.318, -29.727, -14.167, 0.647, 32.88, -0.06308, 0.66022, 0.15005, 0.73315,
 14:00:46.573,f6:90:cc:01:6d:25, 2015-01-01 02:12:45.280, 0.975, 0.133, 0.087, -1.282, -0.305, -1.221, 58.145, -80.706, 139.29, -29.727, -14.167, 0.647, 32.88, -0.06308, 0.66022, 0.15005, 0.73315,
 14:00:46.575,ed:35:33:d3:6c:f8, 2015-01-01 02:12:45.370, 0.297, 0.321, 0.899, -0.61, 0, -1.099, 19.841, -17.545, 157.115, -9.193, -16.693, -31.500, 31.45, -0.16043, -0.18149, -0.13782, -0.96033,
 14:00:46.575,ed:35:33:d3:6c:f8, 2015-01-01 02:12:45.370, 0.302, 0.327, 0.897, -1.526, 0.244, -0.671, 19.825, -17.534, 157.236, -9.193, -16.693, -31.500, 31.45, -0.16043, -0.18149, -0.13782, -0.96033,
 14:00:46.595,e3:ca:2d:fd:e0:8c, 2015-01-01 02:12:44.955, 0.982, -0.128, 0.245, -1.038, -0.061, -0.61, -28.301, -73.883, -168.234, -28.407, -8.620, -10.593, 28.67, -0.06641, -0.59967, 0.13452, -0.78598,
 14:00:46.595,e3:ca:2d:fd:e0:8c, 2015-01-01 02:12:44.955, 0.984, -0.132, 0.247, -0.671, 0, -0.61, -28.273, -73.889, -168.272, -28.407, -8.620, -10.593, 28.67, -0.06641, -0.59967, 0.13452, -0.78598,
 14:00:46.617,e3:ca:2d:fd:e0:8c, 2015-01-01 02:12:45.310, 0.984, -0.133, 0.248, -0.61, 0.427, -0.854, -28.218, -73.889, -168.338, -28.407, -8.620, -10.593, 28.67, -0.06641, -0.59967, 0.13452, -0.78598,
 14:00:46.617,e3:ca:2d:fd:e0:8c, 2015-01-01 02:12:45.310, 0.984, -0.133, 0.25, -0.854, 0.305, -0.916, -28.174, -73.894, -168.404, -28.407, -8.620, -10.593, 28.67, -0.06641, -0.59967, 0.13452, -0.78598,
 14:00:46.617,ed:40:fe:65:30:6c, 2015-01-01 02:12:50.320, 0.64, 0.238, 0.739, -0.305, 0.183, -0.549, 17.49, -39.523, -137.538, -20.220, -13.653, -2.533, 26.26, 0.38651, -0.26025, -0.25516, -0.84717,
 14:00:46.617,ed:40:fe:65:30:6c, 2015-01-01 02:12:50.320, 0.637, 0.239, 0.737, -0.488, 0.427, -0.122, 17.485, -39.518, -137.527, -20.220, -13.653, -2.533, 26.26, 0.38651, -0.26025, -0.25516, -0.84717,
 14:00:46.619,ed:35:33:d3:6c:f8, 2015-01-01 02:12:45.370, 0.304, 0.333, 0.899, -1.16, 0.122, -0.305, 19.797, -17.523, 157.374, -9.480, -16.180, -29.807, 31.45, -0.16043, -0.18149, -0.13782, -0.96033,
 14:00:46.619,ed:35:33:d3:6c:f8, 2015-01-01 02:12:45.370, 0.303, 0.333, 0.893, -0.122, 0.61, 0.183, 19.775, -17.518, 157.467, -9.480, -16.180, -29.807, 31.45, -0.16043, -0.18149, -0.13782, -0.96033,
 14:00:46.640,f6:90:cc:01:6d:25, 2015-01-01 02:12:45.280, 0.977, 0.132, 0.086, -1.221, -0.427, -1.282, 58.217, -80.695, 139.202, -29.727, -14.167, 0.647, 32.88, -0.06335, 0.65936, 0.15033, 0.73386,
 14:00:46.640,f6:90:cc:01:6d:25, 2015-01-01 02:12:45.280, 0.976, 0.131, 0.087, -0.732, -0.427, -1.343, 58.31, -80.678, 139.109, -29.727, -14.167, 0.647, 32.88, -0.06335, 0.65936, 0.15033, 0.73386,
 14:00:46.662,e3:ca:2d:fd:e0:8c, 2015-01-01 02:12:45.310, 0.981, -0.132, 0.249, -0.977, -0.427, -0.793, -28.158, -73.911, -168.437, -28.407, -8.620, -10.593, 28.67, -0.06641, -0.59967, 0.13452, -0.78598,
 14:00:46.662,e3:ca:2d:fd:e0:8c, 2015-01-01 02:12:45.310, 0.98, -0.132, 0.25, -0.793, -0.793, -0.732, -28.152, -73.932, -168.464, -28.407, -8.620, -10.593, 28.67, -0.06641, -0.59967, 0.13452, -0.78598,
 14:00:46.663,f6:90:cc:01:6d:25, 2015-01-01 02:12:45.685, 0.974, 0.131, 0.087, -0.61, -0.305, -1.282, 58.398, -80.662, 139.032, -29.727, -14.167, 0.647, 32.88, -0.06335, 0.65936, 0.15033, 0.73386,
 14:00:46.663,f6:90:cc:01:6d:25, 2015-01-01 02:12:45.685, 0.974, 0.134, 0.087, -0.732, -0.427, -1.099, 58.475, -80.645, 138.961, -29.727, -14.167, 0.647, 32.88, -0.06335, 0.65936, 0.15033, 0.73386,
 14:00:46.665,ed:35:33:d3:6c:f8, 2015-01-01 02:12:45.370, 0.3, 0.327, 0.89, 0.549, 1.099, 0.61, 19.775, -17.507, 157.549, -9.480, -16.180, -29.807, 31.45, -0.16403, -0.18015, -0.13724, -0.96005,
 14:00:46.665,ed:35:33:d3:6c:f8, 2015-01-01 02:12:45.370, 0.299, 0.326, 0.887, 0.244, 1.221, 0.61, 19.781, -17.49, 157.621, -9.480, -16.180, -29.807, 31.45, -0.16403, -0.18015, -0.13724, -0.96005,
 14:00:46.684,ed:40:fe:65:30:6c, 2015-01-01 02:12:50.320, 0.635, 0.236, 0.736, -0.549, 0.671, 0.183, 17.474, -39.507, -137.505, -20.220, -13.653, -2.533, 26.26, 0.38474, -0.25967, -0.25436, -0.84839,
 14:00:46.684,ed:40:fe:65:30:6c, 2015-01-01 02:12:50.320, 0.634, 0.236, 0.732, -0.549, 0.732, 0.244, 17.457, -39.496, -137.472, -20.220, -13.653, -2.533, 26.26, 0.38474, -0.25967, -0.25436, -0.84839,
 14:00:46.686,f6:90:cc:01:6d:25, 2015-01-01 02:12:45.685, 0.971, 0.135, 0.09, -1.587, -0.427, -0.671, 58.53, -80.64, 138.9, -29.727, -14.167, 0.647, 32.88, -0.06335, 0.65936, 0.15033, 0.73386,
 14:00:46.686,f6:90:cc:01:6d:25, 2015-01-01 02:12:45.685, 0.973, 0.131, 0.09, -2.014, -0.671, -0.488, 58.563, -80.634, 138.862, -29.727, -14.167, 0.647, 32.88, -0.06335, 0.65936, 0.15033, 0.73386,
 14:00:46.706,ed:40:fe:65:30:6c, 2015-01-01 02:12:50.680, 0.634, 0.239, 0.74, -0.671, 1.038, 0.427, 17.435, -39.479, -137.45, -20.220, -13.653, -2.533, 26.26, 0.38474, -0.25967, -0.25436, -0.84839,
 14:00:46.706,ed:40:fe:65:30:6c, 2015-01-01 02:12:50.680, 0.633, 0.241, 0.737, -1.038, 1.16, 1.038, 17.408, -39.463, -137.422, -20.220, -13.653, -2.533, 26.26, 0.38474, -0.25967, -0.25436, -0.84839,
 14:00:46.709,e3:ca:2d:fd:e0:8c, 2015-01-01 02:12:45.310, 0.979, -0.135, 0.25, -0.854, -0.916, -0.671, -28.158, -73.954, -168.481, -28.407, -8.620, -10.593, 28.67, -0.06641, -0.59967, 0.13452, -0.78598,
 14:00:46.709,e3:ca:2d:fd:e0:8c, 2015-01-01 02:12:45.310, 0.98, -0.137, 0.25, -1.038, -0.854, -0.793, -28.158, -73.976, -168.503, -28.407, -8.620, -10.593, 28.67, -0.06641, -0.59967, 0.13452, -0.78598,
 14:00:46.710,ed:35:33:d3:6c:f8, 2015-01-01 02:12:45.680, 0.295, 0.333, 0.895, -0.183, 1.343, 0.732, 19.781, -17.468, 157.692, -9.480, -16.180, -29.807, 31.45, -0.16403, -0.18015, -0.13724, -0.96005,
 14:00:46.710,ed:35:33:d3:6c:f8, 2015-01-01 02:12:45.680, 0.297, 0.34, 0.896, 1.16, 1.465, 1.709, 19.775, -17.452, 157.78, -9.480, -16.180, -29.807, 31.45, -0.16403, -0.18015, -0.13724, -0.96005,
 14:00:46.731,e3:ca:2d:fd:e0:8c, 2015-01-01 02:12:45.310, 0.981, -0.136, 0.251, -0.854, -0.671, -0.977, -28.141, -73.998, -168.552, -28.407, -8.620, -10.593, 28.67, -0.06641, -0.59967, 0.13452, -0.78598,
 14:00:46.731,e3:ca:2d:fd:e0:8c, 2015-01-01 02:12:45.310, 0.984, -0.133, 0.248, -0.671, -0.61, -1.099, -28.109, -74.015, -168.613, -28.407, -8.620, -10.593, 28.67, -0.06641, -0.59967, 0.13452, -0.78598,
 14:00:46.731,f6:90:cc:01:6d:25, 2015-01-01 02:12:45.685, 0.974, 0.127, 0.086, -1.709, -0.671, -0.305, 58.596, -80.64, 138.834, -29.727, -14.167, 0.647, 32.88, -0.06335, 0.65936, 0.15033, 0.73386,
 14:00:46.731,f6:90:cc:01:6d:25, 2015-01-01 02:12:45.685, 0.974, 0.129, 0.082, -0.366, -0.061, -0.061, 58.596, -80.64, 138.845, -29.727, -14.167, 0.647, 32.88, -0.06335, 0.65936, 0.15033, 0.73386,
 14:00:46.733,ed:35:33:d3:6c:f8, 2015-01-01 02:12:45.680, 0.299, 0.337, 0.897, 0.61, 1.587, 3.052, 19.786, -17.435, 157.89, -9.480, -16.180, -29.807, 31.45, -0.16403, -0.18015, -0.13724, -0.96005,
 14:00:46.733,ed:35:33:d3:6c:f8, 2015-01-01 02:12:45.680, 0.306, 0.329, 0.897, -0.183, 1.282, 3.235, 19.781, -17.43, 158.027, -9.480, -16.180, -29.807, 31.45, -0.16403, -0.18015, -0.13724, -0.96005,
 14:00:46.752,ed:40:fe:65:30:6c, 2015-01-01 02:12:50.680, 0.636, 0.237, 0.739, -0.977, 1.099, 1.953, 17.364, -39.452, -137.373, -20.220, -13.653, -2.533, 26.26, 0.38474, -0.25967, -0.25436, -0.84839,
 14:00:46.752,ed:40:fe:65:30:6c, 2015-01-01 02:12:50.680, 0.635, 0.235, 0.739, -1.038, 1.16, 2.502, 17.309, -39.441, -137.302, -20.220, -13.653, -2.533, 26.26, 0.38474, -0.25967, -0.25436, -0.84839,
 14:00:46.774,ed:40:fe:65:30:6c, 2015-01-01 02:12:50.680, 0.632, 0.229, 0.741, -0.916, 1.221, 2.686, 17.249, -39.43, -137.219, -20.220, -13.653, -2.533, 26.26, 0.38474, -0.25967, -0.25436, -0.84839,
 14:00:46.774,ed:40:fe:65:30:6c, 2015-01-01 02:12:50.680, 0.632, 0.227, 0.74, -0.732, 1.221, 2.502, 17.188, -39.424, -137.148, -20.220, -13.653, -2.533, 26.26, 0.38474, -0.25967, -0.25436, -0.84839,
 14:00:46.776,f6:90:cc:01:6d:25, 2015-01-01 02:12:45.685, 0.974, 0.133, 0.081, 0.366, -0.061, 0, 58.579, -80.645, 138.878, -29.727, -14.167, 0.647, 32.88, -0.06335, 0.65936, 0.15033, 0.73386,
 14:00:46.776,f6:90:cc:01:6d:25, 2015-01-01 02:12:45.685, 0.971, 0.137, 0.082, 1.343, 0, 0, 58.579, -80.645, 138.922, -29.727, -14.167, 0.647, 32.88, -0.06335, 0.65936, 0.15033, 0.73386,
 14:00:46.777,ed:35:33:d3:6c:f8, 2015-01-01 02:12:45.680, 0.298, 0.316, 0.895, 0.732, 1.404, 4.089, 19.764, -17.43, 158.176, -9.480, -16.180, -29.807, 31.45, -0.16403, -0.18015, -0.13724, -0.96005,
 14:00:46.777,ed:35:33:d3:6c:f8, 2015-01-01 02:12:45.680, 0.287, 0.319, 0.894, 3.052, 3.296, 5.249, 19.764, -17.424, 158.318, -9.480, -16.180, -29.807, 31.45, -0.16403, -0.18015, -0.13724, -0.96005,
 14:00:46.798,e3:ca:2d:fd:e0:8c, 2015-01-01 02:12:45.310, 0.984, -0.129, 0.246, -0.671, -0.549, -1.16, -28.07, -74.037, -168.668, -28.407, -8.620, -10.593, 28.67, -0.06641, -0.59967, 0.13452, -0.78598,
 14:00:46.798,e3:ca:2d:fd:e0:8c, 2015-01-01 02:12:45.310, 0.983, -0.127, 0.245, -0.61, -0.61, -1.099, -28.037, -74.059, -168.717, -28.407, -8.620, -10.593, 28.67, -0.06641, -0.59967, 0.13452, -0.78598,
 14:00:46.818,ed:40:fe:65:30:6c, 2015-01-01 02:12:50.680, 0.63, 0.228, 0.738, -0.366, 1.038, 2.319, 17.139, -39.413, -137.076, -20.220, -13.653, -2.533, 26.26, 0.38474, -0.25967, -0.25436, -0.84839,
 14:00:46.818,ed:40:fe:65:30:6c, 2015-01-01 02:12:50.680, 0.63, 0.23, 0.738, -0.061, 0.977, 2.197, 17.1, -39.408, -137.01, -20.220, -13.653, -2.533, 26.26, 0.38474, -0.25967, -0.25436, -0.84839,
 14:00:46.820,e3:ca:2d:fd:e0:8c, 2015-01-01 02:12:45.310, 0.987, -0.127, 0.242, -0.183, -1.16, -1.099, -28.01, -74.086, -168.761, -27.700, -8.620, -10.847, 28.67, -0.06641, -0.59967, 0.13452, -0.78598,
 14:00:46.820,e3:ca:2d:fd:e0:8c, 2015-01-01 02:12:45.310, 0.987, -0.129, 0.243, -0.244, -0.854, -0.61, -28.004, -74.108, -168.799, -27.700, -8.620, -10.847, 28.67, -0.06641, -0.59967, 0.13452, -0.78598,
 14:00:46.822,ed:35:33:d3:6c:f8, 2015-01-01 02:12:45.680, 0.308, 0.326, 0.896, -1.343, 1.221, 2.93, 19.775, -17.402, 158.467, -9.480, -16.180, -29.807, 31.45, -0.16403, -0.18015, -0.13724, -0.96005,
 14:00:46.822,ed:35:33:d3:6c:f8, 2015-01-01 02:12:45.680, 0.274, 0.32, 0.895, 1.465, 3.662, 4.028, 19.742, -17.391, 158.599, -9.480, -16.180, -29.807, 31.45, -0.16403, -0.18015, -0.13724, -0.96005,
 14:00:46.844,f6:90:cc:01:6d:25, 2015-01-01 02:12:45.685, 0.971, 0.139, 0.082, 1.404, -0.061, -0.061, 58.601, -80.651, 138.977, -29.727, -14.167, 0.647, 32.88, -0.06335, 0.65936, 0.15033, 0.73386,
 14:00:46.844,f6:90:cc:01:6d:25, 2015-01-01 02:12:45.685, 0.97, 0.141, 0.083, 1.221, -0.183, -0.122, 58.64, -80.651, 139.005, -29.727, -14.167, 0.647, 32.88, -0.06335, 0.65936, 0.15033, 0.73386,
 14:00:46.863,ed:40:fe:65:30:6c, 2015-01-01 02:12:50.680, 0.632, 0.227, 0.739, 0.183, 0.61, 2.075, 17.067, -39.402, -136.945, -20.220, -13.653, -2.533, 26.26, 0.38474, -0.25967, -0.25436, -0.84839,
 14:00:46.863,ed:40:fe:65:30:6c, 2015-01-01 02:12:50.680, 0.634, 0.229, 0.742, 0.183, 0.366, 1.953, 17.04, -39.402, -136.89, -20.220, -13.653, -2.533, 26.26, 0.38474, -0.25967, -0.25436, -0.84839,
 14:00:46.866,f6:90:cc:01:6d:25, 2015-01-01 02:12:45.685, 0.97, 0.141, 0.082, 0.916, -0.244, -0.122, 58.683, -80.651, 138.994, -30.013, -14.060, 0.420, 32.88, -0.06335, 0.65936, 0.15033, 0.73386,
 14:00:46.866,f6:90:cc:01:6d:25, 2015-01-01 02:12:45.685, 0.972, 0.14, 0.082, 1.282, -0.61, -0.061, 58.76, -80.656, 138.939, -30.013, -14.060, 0.420, 32.88, -0.06335, 0.65936, 0.15033, 0.73386,
 14:00:46.867,ed:35:33:d3:6c:f8, 2015-01-01 02:12:45.680, 0.295, 0.326, 0.9, 0.61, 1.038, 2.136, 19.742, -17.358, 158.741, -9.480, -16.180, -29.807, 31.45, -0.16403, -0.18015, -0.13724, -0.96005,
 14:00:46.867,ed:35:33:d3:6c:f8, 2015-01-01 02:12:45.680, 0.295, 0.325, 0.9, 0.122, 0.244, 2.197, 19.737, -17.353, 158.824, -9.480, -16.180, -29.807, 31.45, -0.16403, -0.18015, -0.13724, -0.96005,
 14:00:46.887,e3:ca:2d:fd:e0:8c, 2015-01-01 02:12:45.310, 0.983, -0.127, 0.243, -0.305, 0.122, -0.366, -27.982, -74.114, -168.854, -27.700, -8.620, -10.847, 28.67, -0.06641, -0.59967, 0.13452, -0.78598,
 14:00:46.887,e3:ca:2d:fd:e0:8c, 2015-01-01 02:12:45.310, 0.983, -0.125, 0.244, -0.061, 0.244, -0.305, -27.955, -74.108, -168.926, -27.700, -8.620, -10.847, 28.67, -0.06641, -0.59967, 0.13452, -0.78598,
 14:00:46.909,ed:40:fe:65:30:6c, 2015-01-01 02:12:50.680, 0.632, 0.23, 0.742, 0.244, 0.061, 2.136, 17.012, -39.408, -136.846, -20.220, -13.653, -2.533, 26.26, 0.38474, -0.25967, -0.25436, -0.84839,
 14:00:46.909,ed:40:fe:65:30:6c, 2015-01-01 02:12:50.680, 0.632, 0.236, 0.739, 0.366, -0.061, 2.136, 16.99, -39.419, -136.807, -20.220, -13.653, -2.533, 26.26, 0.38474, -0.25967, -0.25436, -0.84839,
 14:00:46.911,f6:90:cc:01:6d:25, 2015-01-01 02:12:45.685, 0.973, 0.139, 0.083, 0.793, -0.793, 0, 58.854, -80.662, 138.851, -30.013, -14.060, 0.420, 32.88, -0.06335, 0.65936, 0.15033, 0.73386,
 14:00:46.911,f6:90:cc:01:6d:25, 2015-01-01 02:12:45.685, 0.973, 0.141, 0.08, 1.16, -0.916, 0, 58.964, -80.673, 138.735, -30.013, -14.060, 0.420, 32.88, -0.06335, 0.65936, 0.15033, 0.73386,
 14:00:46.911,e3:ca:2d:fd:e0:8c, 2015-01-01 02:12:45.310, 0.985, -0.125, 0.246, 0, -0.122, -0.305, -27.938, -74.119, -168.97, -27.700, -8.620, -10.847, 28.67, -0.07016, -0.60059, 0.13544, -0.78479,
 14:00:46.911,e3:ca:2d:fd:e0:8c, 2015-01-01 02:12:45.310, 0.985, -0.124, 0.245, -0.122, 0.305, -0.305, -27.911, -74.119, -169.03, -27.700, -8.620, -10.847, 28.67, -0.07016, -0.60059, 0.13544, -0.78479,
 14:00:46.912,ed:35:33:d3:6c:f8, 2015-01-01 02:12:45.680, 0.294, 0.33, 0.901, 2.197, 0, 2.625, 19.737, -17.364, 158.884, -9.187, -16.420, -31.707, 31.45, -0.16403, -0.18015, -0.13724, -0.96005,
 14:00:46.912,ed:35:33:d3:6c:f8, 2015-01-01 02:12:45.680, 0.29, 0.329, 0.899, 5.554, -0.244, 4.272, 19.786, -17.386, 158.989, -9.187, -16.420, -31.707, 31.45, -0.16403, -0.18015, -0.13724, -0.96005,
 14:00:46.931,ed:40:fe:65:30:6c, 2015-01-01 02:12:50.680, 0.634, 0.232, 0.739, 0.122, -0.183, 1.892, 16.968, -39.43, -136.78, -19.627, -13.867, -3.200, 26.26, 0.38474, -0.25967, -0.25436, -0.84839,
 14:00:46.931,ed:40:fe:65:30:6c, 2015-01-01 02:12:50.680, 0.636, 0.236, 0.737, 0.183, -0.122, 1.16, 16.957, -39.441, -136.758, -19.627, -13.867, -3.200, 26.26, 0.38474, -0.25967, -0.25436, -0.84839,
 14:00:46.935,ed:35:33:d3:6c:f8, 2015-01-01 02:12:45.680, 0.297, 0.325, 0.9, 4.822, -0.854, 2.93, 19.869, -17.413, 159.104, -9.187, -16.420, -31.707, 31.45, -0.15048, -0.17761, -0.1409, -0.96222,
 14:00:46.935,ed:35:33:d3:6c:f8, 2015-01-01 02:12:45.680, 0.305, 0.327, 0.885, 1.526, -0.366, 3.113, 19.935, -17.446, 159.219, -9.187, -16.420, -31.707, 31.45, -0.15048, -0.17761, -0.1409, -0.96222,
 14:00:46.935,f6:90:cc:01:6d:25, 2015-01-01 02:12:45.685, 0.974, 0.146, 0.082, 1.526, -1.038, 0.244, 59.09, -80.684, 138.636, -30.013, -14.060, 0.420, 32.88, -0.06442, 0.65955, 0.15268, 0.73309,
 14:00:46.935,f6:90:cc:01:6d:25, 2015-01-01 02:12:45.685, 0.975, 0.15, 0.087, 1.038, -0.732, 0.244, 59.183, -80.695, 138.571, -30.013, -14.060, 0.420, 32.88, -0.06442, 0.65955, 0.15268, 0.73309,
 14:00:46.955,e3:ca:2d:fd:e0:8c, 2015-01-01 02:12:45.310, 0.985, -0.122, 0.249, -0.122, 0.305, -0.122, -27.889, -74.114, -169.085, -27.700, -8.620, -10.847, 28.67, -0.07016, -0.60059, 0.13544, -0.78479,
 14:00:46.955,e3:ca:2d:fd:e0:8c, 2015-01-01 02:12:45.310, 0.985, -0.122, 0.25, -0.122, -0.122, 0.061, -27.889, -74.119, -169.107, -27.700, -8.620, -10.847, 28.67, -0.07016, -0.60059, 0.13544, -0.78479,
 14:00:46.977,ed:40:fe:65:30:6c, 2015-01-01 02:12:50.680, 0.635, 0.228, 0.729, 0.977, 0, 0.793, 16.957, -39.446, -136.752, -19.627, -13.867, -3.200, 26.26, 0.38474, -0.25967, -0.25436, -0.84839,
 14:00:46.977,ed:40:fe:65:30:6c, 2015-01-01 02:12:50.680, 0.633, 0.225, 0.73, 1.038, 0.061, 0.244, 16.974, -39.446, -136.752, -19.627, -13.867, -3.200, 26.26, 0.38474, -0.25967, -0.25436, -0.84839,
 14:00:46.977,e3:ca:2d:fd:e0:8c, 2015-01-01 02:12:45.670, 0.982, -0.124, 0.249, 0, -0.183, 0.366, -27.905, -74.119, -169.091, -27.700, -8.620, -10.847, 28.67, -0.07016, -0.60059, 0.13544, -0.78479,
 14:00:46.977,e3:ca:2d:fd:e0:8c, 2015-01-01 02:12:45.670, 0.983, -0.124, 0.245, 0.183, -0.305, 0.488, -27.927, -74.125, -169.041, -27.700, -8.620, -10.847, 28.67, -0.07016, -0.60059, 0.13544, -0.78479,
 14:00:46.979,ed:35:33:d3:6c:f8, 2015-01-01 02:12:45.680, 0.304, 0.327, 0.884, 4.211, -1.77, 4.7, 19.962, -17.479, 159.296, -9.187, -16.420, -31.707, 31.45, -0.15048, -0.17761, -0.1409, -0.96222,
 14:00:46.979,ed:35:33:d3:6c:f8, 2015-01-01 02:12:45.680, 0.303, 0.316, 0.884, 4.517, -5.432, 6.531, 20.023, -17.562, 159.412, -9.187, -16.420, -31.707, 31.45, -0.15048, -0.17761, -0.1409, -0.96222,
 14:00:46.979,f6:90:cc:01:6d:25, 2015-01-01 02:12:45.685, 0.971, 0.148, 0.084, 0.916, -0.244, 0.305, 59.227, -80.7, 138.565, -30.013, -14.060, 0.420, 32.88, -0.06442, 0.65955, 0.15268, 0.73309,
 14:00:46.979,f6:90:cc:01:6d:25, 2015-01-01 02:12:45.685, 0.968, 0.147, 0.078, 0.427, 0.061, 0.366, 59.222, -80.7, 138.609, -30.013, -14.060, 0.420, 32.88, -0.06442, 0.65955, 0.15268, 0.73309,
 14:00:47.023,ed:40:fe:65:30:6c, 2015-01-01 02:12:50.680, 0.633, 0.224, 0.738, 0.549, -0.183, -0.366, 16.996, -39.446, -136.774, -19.627, -13.867, -3.200, 26.26, 0.38937, -0.25912, -0.25211, -0.84711,
 14:00:47.023,ed:40:fe:65:30:6c, 2015-01-01 02:12:50.680, 0.636, 0.228, 0.744, 0, -0.549, -0.671, 17.018, -39.452, -136.813, -19.627, -13.867, -3.200, 26.26, 0.38937, -0.25912, -0.25211, -0.84711,
 14:00:47.023,f6:90:cc:01:6d:25, 2015-01-01 02:12:46.020, 0.971, 0.148, 0.078, -0.305, 0.305, 0.366, 59.183, -80.7, 138.653, -30.013, -14.060, 0.420, 32.88, -0.06442, 0.65955, 0.15268, 0.73309,
 14:00:47.023,f6:90:cc:01:6d:25, 2015-01-01 02:12:46.020, 0.973, 0.143, 0.083, -1.282, 0.427, 0.305, 59.117, -80.695, 138.702, -30.013, -14.060, 0.420, 32.88, -0.06442, 0.65955, 0.15268, 0.73309,
 14:00:47.024,e3:ca:2d:fd:e0:8c, 2015-01-01 02:12:45.670, 0.985, -0.125, 0.245, 0.793, 0.305, 0.793, -27.949, -74.119, -168.992, -27.700, -8.620, -10.847, 28.67, -0.07016, -0.60059, 0.13544, -0.78479,
 14:00:47.024,e3:ca:2d:fd:e0:8c, 2015-01-01 02:12:45.670, 0.986, -0.127, 0.243, 0.732, 0.549, 0.854, -27.96, -74.108, -168.942, -27.700, -8.620, -10.847, 28.67, -0.07016, -0.60059, 0.13544, -0.78479,
 14:00:47.025,ed:35:33:d3:6c:f8, 2015-01-01 02:12:45.970, 0.3, 0.317, 0.892, 1.404, -3.601, 4.15, 20.072, -17.693, 159.516, -9.187, -16.420, -31.707, 31.45, -0.15048, -0.17761, -0.1409, -0.96222,
 14:00:47.025,ed:35:33:d3:6c:f8, 2015-01-01 02:12:45.970, 0.307, 0.335, 0.9, 0.061, -2.075, 3.601, 20.078, -17.776, 159.609, -9.187, -16.420, -31.707, 31.45, -0.15048, -0.17761, -0.1409, -0.96222,
 14:00:47.046,f6:90:cc:01:6d:25, 2015-01-01 02:12:46.020, 0.975, 0.136, 0.083, -1.587, 0.366, 0.305, 59.041, -80.695, 138.752, -30.013, -14.060, 0.420, 32.88, -0.06442, 0.65955, 0.15268, 0.73309,
 14:00:47.046,f6:90:cc:01:6d:25, 2015-01-01 02:12:46.020, 0.976, 0.128, 0.078, -0.61, 0.244, 0.183, 58.997, -80.689, 138.779, -30.013, -14.060, 0.420, 32.88, -0.06442, 0.65955, 0.15268, 0.73309,
 14:00:47.067,e3:ca:2d:fd:e0:8c, 2015-01-01 02:12:45.670, 0.985, -0.131, 0.242, 0.305, 0.61, 0.793, -27.971, -74.092, -168.915, -27.700, -8.620, -10.847, 28.67, -0.07016, -0.60059, 0.13544, -0.78479,
 14:00:47.067,e3:ca:2d:fd:e0:8c, 2015-01-01 02:12:45.670, 0.984, -0.135, 0.243, 0.183, 0.549, 0.61, -27.982, -74.081, -168.904, -27.700, -8.620, -10.847, 28.67, -0.07016, -0.60059, 0.13544, -0.78479,
 14:00:47.070,ed:35:33:d3:6c:f8, 2015-01-01 02:12:45.970, 0.31, 0.328, 0.892, -0.488, -0.977, 2.441, 20.056, -17.831, 159.725, -9.187, -16.420, -31.707, 31.45, -0.15048, -0.17761, -0.1409, -0.96222,
 14:00:47.070,ed:35:33:d3:6c:f8, 2015-01-01 02:12:45.970, 0.307, 0.328, 0.891, -1.892, 0.732, 1.099, 20.028, -17.853, 159.796, -9.187, -16.420, -31.707, 31.45, -0.15048, -0.17761, -0.1409, -0.96222,
 14:00:47.089,ed:40:fe:65:30:6c, 2015-01-01 02:12:50.680, 0.638, 0.225, 0.742, -0.366, -0.732, -0.244, 17.029, -39.457, -136.835, -19.627, -13.867, -3.200, 26.26, 0.38937, -0.25912, -0.25211, -0.84711,
 14:00:47.089,ed:40:fe:65:30:6c, 2015-01-01 02:12:50.680, 0.637, 0.227, 0.74, -0.488, -0.732, 0, 17.023, -39.474, -136.851, -19.627, -13.867, -3.200, 26.26, 0.38937, -0.25912, -0.25211, -0.84711,
 14:00:47.091,f6:90:cc:01:6d:25, 2015-01-01 02:12:46.020, 0.977, 0.127, 0.081, 0.061, -0.183, 0.244, 58.997, -80.695, 138.757, -30.013, -14.060, 0.420, 32.88, -0.06442, 0.65955, 0.15268, 0.73309,
 14:00:47.091,f6:90:cc:01:6d:25, 2015-01-01 02:12:46.020, 0.978, 0.126, 0.085, 0.732, -0.488, 0.244, 59.035, -80.7, 138.735, -30.013, -14.060, 0.420, 32.88, -0.06442, 0.65955, 0.15268, 0.73309,
 14:00:47.112,ed:40:fe:65:30:6c, 2015-01-01 02:12:51.080, 0.64, 0.228, 0.745, -0.366, -0.61, 0.366, 17.018, -39.485, -136.868, -19.627, -13.867, -3.200, 26.26, 0.38937, -0.25912, -0.25211, -0.84711,
 14:00:47.112,ed:40:fe:65:30:6c, 2015-01-01 02:12:51.080, 0.642, 0.225, 0.738, -0.061, -0.488, 0.916, 17.007, -39.496, -136.868, -19.627, -13.867, -3.200, 26.26, 0.38937, -0.25912, -0.25211, -0.84711,
 14:00:47.112,e3:ca:2d:fd:e0:8c, 2015-01-01 02:12:45.670, 0.984, -0.137, 0.243, 0.488, 0.305, 0.549, -27.993, -74.07, -168.904, -27.700, -8.620, -10.847, 28.67, -0.07016, -0.60059, 0.13544, -0.78479,
 14:00:47.112,e3:ca:2d:fd:e0:8c, 2015-01-01 02:12:45.670, 0.982, -0.14, 0.247, 0.793, 0.061, 0.488, -28.004, -74.064, -168.893, -27.700, -8.620, -10.847, 28.67, -0.07016, -0.60059, 0.13544, -0.78479,
 14:00:47.115,ed:35:33:d3:6c:f8, 2015-01-01 02:12:45.970, 0.312, 0.334, 0.894, -1.038, 0.366, 0.671, 19.99, -17.842, 159.835, -9.187, -16.420, -31.707, 31.45, -0.15048, -0.17761, -0.1409, -0.96222,
 14:00:47.115,ed:35:33:d3:6c:f8, 2015-01-01 02:12:45.970, 0.343, 0.324, 0.891, -0.122, 0.488, 0.977, 19.968, -17.836, 159.857, -9.187, -16.420, -31.707, 31.45, -0.15048, -0.17761, -0.1409, -0.96222,
 14:00:47.133,ed:40:fe:65:30:6c, 2015-01-01 02:12:51.080, 0.635, 0.22, 0.734, 0, -0.122, 1.099, 16.996, -39.507, -136.846, -19.627, -13.867, -3.200, 26.26, 0.38937, -0.25912, -0.25211, -0.84711,
 14:00:47.133,ed:40:fe:65:30:6c, 2015-01-01 02:12:51.080, 0.633, 0.218, 0.737, 0.061, 0.183, 1.038, 16.979, -39.512, -136.824, -19.627, -13.867, -3.200, 26.26, 0.38937, -0.25912, -0.25211, -0.84711,
 14:00:47.135,e3:ca:2d:fd:e0:8c, 2015-01-01 02:12:45.670, 0.979, -0.139, 0.25, 0.671, -0.305, 0.488, -28.026, -74.059, -168.865, -27.700, -8.620, -10.847, 28.67, -0.07016, -0.60059, 0.13544, -0.78479,
 14:00:47.135,e3:ca:2d:fd:e0:8c, 2015-01-01 02:12:45.670, 0.979, -0.135, 0.25, 0.488, -0.183, 0.488, -28.054, -74.059, -168.827, -27.700, -8.620, -10.847, 28.67, -0.07016, -0.60059, 0.13544, -0.78479,
 14:00:47.137,ed:35:33:d3:6c:f8, 2015-01-01 02:12:45.970, 0.302, 0.306, 0.881, 2.38, 2.197, 1.953, 19.973, -17.831, 159.922, -9.187, -16.420, -31.707, 31.45, -0.15048, -0.17761, -0.1409, -0.96222,
 14:00:47.137,ed:35:33:d3:6c:f8, 2015-01-01 02:12:45.970, 0.271, 0.32, 0.89, 1.953, 3.235, -1.343, 20.006, -17.792, 159.944, -9.187, -16.420, -31.707, 31.45, -0.15048, -0.17761, -0.1409, -0.96222,
 14:00:47.137,f6:90:cc:01:6d:25, 2015-01-01 02:12:46.020, 0.976, 0.123, 0.082, 1.282, -0.671, 0.305, 59.101, -80.717, 138.708, -30.013, -14.060, 0.420, 32.88, -0.06442, 0.65955, 0.15268, 0.73309,
 14:00:47.137,f6:90:cc:01:6d:25, 2015-01-01 02:12:46.020, 0.972, 0.123, 0.085, 1.404, -0.549, 0.427, 59.15, -80.728, 138.669, -30.013, -14.060, 0.420, 32.88, -0.06442, 0.65955, 0.15268, 0.73309,
 14:00:47.178,ed:40:fe:65:30:6c, 2015-01-01 02:12:51.080, 0.636, 0.219, 0.737, 0.427, 0.122, 1.038, 16.963, -39.518, -136.791, -19.627, -13.867, -3.200, 26.26, 0.38937, -0.25912, -0.25211, -0.84711,
 14:00:47.178,ed:40:fe:65:30:6c, 2015-01-01 02:12:51.080, 0.643, 0.222, 0.735, 0.916, 0, 1.221, 16.957, -39.523, -136.763, -19.627, -13.867, -3.200, 26.26, 0.38937, -0.25912, -0.25211, -0.84711,
 14:00:47.179,e3:ca:2d:fd:e0:8c, 2015-01-01 02:12:45.670, 0.981, -0.131, 0.249, 0.549, 0.061, 0.488, -28.087, -74.059, -168.783, -27.700, -8.620, -10.847, 28.67, -0.07016, -0.60059, 0.13544, -0.78479,
 14:00:47.179,e3:ca:2d:fd:e0:8c, 2015-01-01 02:12:45.670, 0.985, -0.131, 0.25, 0.549, 0.061, 0.366, -28.103, -74.053, -168.761, -27.700, -8.620, -10.847, 28.67, -0.07016, -0.60059, 0.13544, -0.78479,
 14:00:47.183,ed:35:33:d3:6c:f8, 2015-01-01 02:12:45.970, 0.323, 0.331, 0.897, -4.578, 1.587, -1.465, 20.012, -17.737, 159.922, -9.187, -16.420, -31.707, 31.45, -0.15048, -0.17761, -0.1409, -0.96222,
 14:00:47.183,ed:35:33:d3:6c:f8, 2015-01-01 02:12:45.970, 0.319, 0.324, 0.89, -6.836, 2.991, -0.977, 19.913, -17.693, 159.868, -9.187, -16.420, -31.707, 31.45, -0.15048, -0.17761, -0.1409, -0.96222,
 14:00:47.204,f6:90:cc:01:6d:25, 2015-01-01 02:12:46.020, 0.97, 0.128, 0.087, 1.221, -0.305, 0.427, 59.172, -80.744, 138.647, -30.013, -14.060, 0.420, 32.88, -0.06442, 0.65955, 0.15268, 0.73309,
 14:00:47.204,f6:90:cc:01:6d:25, 2015-01-01 02:12:46.020, 0.972, 0.132, 0.083, 0.977, 0, 0.61, 59.134, -80.755, 138.697, -30.013, -14.060, 0.420, 32.88, -0.06442, 0.65955, 0.15268, 0.73309,
 14:00:47.224,ed:40:fe:65:30:6c, 2015-01-01 02:12:51.080, 0.644, 0.217, 0.73, 1.099, 0.183, 1.404, 16.957, -39.529, -136.73, -19.627, -13.867, -3.200, 26.26, 0.38937, -0.25912, -0.25211, -0.84711,
 14:00:47.224,ed:40:fe:65:30:6c, 2015-01-01 02:12:51.080, 0.639, 0.212, 0.733, 0.916, 0.671, 0.977, 16.952, -39.529, -136.692, -19.627, -13.867, -3.200, 26.26, 0.38937, -0.25912, -0.25211, -0.84711,
 14:00:47.226,f6:90:cc:01:6d:25, 2015-01-01 02:12:46.020, 0.977, 0.132, 0.082, 0.671, 0.244, 0.793, 59.052, -80.766, 138.801, -29.840, -14.360, 0.827, 32.88, -0.06442, 0.65955, 0.15268, 0.73309,
 14:00:47.226,f6:90:cc:01:6d:25, 2015-01-01 02:12:46.020, 0.978, 0.131, 0.081, 0.61, 0.427, 0.732, 58.958, -80.777, 138.917, -29.840, -14.360, 0.827, 32.88, -0.06442, 0.65955, 0.15268, 0.73309,
 14:00:47.228,ed:35:33:d3:6c:f8, 2015-01-01 02:12:45.970, 0.293, 0.31, 0.886, -2.014, 4.395, -1.892, 19.803, -17.622, 159.802, -8.753, -16.380, -31.000, 31.45, -0.15048, -0.17761, -0.1409, -0.96222,
 14:00:47.228,ed:35:33:d3:6c:f8, 2015-01-01 02:12:45.970, 0.292, 0.298, 0.894, 0.305, 0, -0.549, 19.775, -17.556, 159.703, -8.753, -16.380, -31.000, 31.45, -0.15048, -0.17761, -0.1409, -0.96222,
 14:00:47.247,e3:ca:2d:fd:e0:8c, 2015-01-01 02:12:45.670, 0.987, -0.13, 0.25, 0.366, 0.061, 0.305, -28.114, -74.048, -168.745, -27.453, -8.893, -10.680, 28.67, -0.07016, -0.60059, 0.13544, -0.78479,
 14:00:47.247,e3:ca:2d:fd:e0:8c, 2015-01-01 02:12:45.670, 0.986, -0.129, 0.246, 0, 0, 0.122, -28.12, -74.048, -168.728, -27.453, -8.893, -10.680, 28.67, -0.07016, -0.60059, 0.13544, -0.78479,
 14:00:47.269,e3:ca:2d:fd:e0:8c, 2015-01-01 02:12:45.670, 0.984, -0.126, 0.245, -0.122, -0.244, 0, -28.13, -74.048, -168.706, -27.453, -8.893, -10.680, 28.67, -0.06946, -0.60034, 0.13562, -0.78503,
 14:00:47.269,e3:ca:2d:fd:e0:8c, 2015-01-01 02:12:45.670, 0.983, -0.126, 0.244, -0.061, -0.488, -0.122, -28.136, -74.053, -168.69, -27.453, -8.893, -10.680, 28.67, -0.06946, -0.60034, 0.13562, -0.78503,
 14:00:47.269,ed:40:fe:65:30:6c, 2015-01-01 02:12:51.080, 0.635, 0.213, 0.741, 0.244, 0.854, 0.183, 16.946, -39.523, -136.681, -19.627, -13.867, -3.200, 26.26, 0.38937, -0.25912, -0.25211, -0.84711,
 14:00:47.269,ed:40:fe:65:30:6c, 2015-01-01 02:12:51.080, 0.632, 0.214, 0.745, -0.549, 0.61, -0.305, 16.941, -39.507, -136.686, -19.627, -13.867, -3.200, 26.26, 0.38937, -0.25912, -0.25211, -0.84711,
 14:00:47.272,f6:90:cc:01:6d:25, 2015-01-01 02:12:46.020, 0.975, 0.131, 0.081, 0.488, 0.854, 0.488, 58.832, -80.782, 139.076, -29.840, -14.360, 0.827, 32.88, -0.06442, 0.65955, 0.15268, 0.73309,
 14:00:47.272,f6:90:cc:01:6d:25, 2015-01-01 02:12:46.020, 0.973, 0.131, 0.081, 0.061, 0.732, 0, 58.749, -80.777, 139.18, -29.840, -14.360, 0.827, 32.88, -0.06442, 0.65955, 0.15268, 0.73309,
 14:00:47.272,ed:35:33:d3:6c:f8, 2015-01-01 02:12:45.970, 0.302, 0.301, 0.902, -2.563, 1.16, -1.526, 19.77, -17.551, 159.648, -8.753, -16.380, -31.000, 31.45, -0.14618, -0.17792, -0.14044, -0.96289,
 14:00:47.272,ed:35:33:d3:6c:f8, 2015-01-01 02:12:45.970, 0.299, 0.31, 0.909, -4.15, 2.319, -2.197, 19.715, -17.518, 159.604, -8.753, -16.380, -31.000, 31.45, -0.14618, -0.17792, -0.14044, -0.96289,
 14:00:47.293,f6:90:cc:01:6d:25, 2015-01-01 02:12:46.020, 0.973, 0.132, 0.083, -0.183, 0.61, -0.366, 58.694, -80.766, 139.246, -29.840, -14.360, 0.827, 32.88, -0.06647, 0.65939, 0.15329, 0.73291,
 14:00:47.293,f6:90:cc:01:6d:25, 2015-01-01 02:12:46.020, 0.973, 0.134, 0.083, -0.244, 0.549, -0.671, 58.667, -80.75, 139.274, -29.840, -14.360, 0.827, 32.88, -0.06647, 0.65939, 0.15329, 0.73291,
 14:00:47.294,ed:35:33:d3:6c:f8, 2015-01-01 02:12:46.285, 0.278, 0.306, 0.899, -2.319, 5.249, -2.625, 19.644, -17.446, 159.587, -8.753, -16.380, -31.000, 31.45, -0.14618, -0.17792, -0.14044, -0.96289,
 14:00:47.294,ed:35:33:d3:6c:f8, 2015-01-01 02:12:46.285, 0.305, 0.308, 0.898, -2.197, 1.038, -1.77, 19.6, -17.375, 159.604, -8.753, -16.380, -31.000, 31.45, -0.14618, -0.17792, -0.14044, -0.96289,
 14:00:47.314,ed:40:fe:65:30:6c, 2015-01-01 02:12:51.080, 0.634, 0.214, 0.744, -0.671, 0.366, -0.61, 16.924, -39.496, -136.703, -19.627, -13.867, -3.200, 26.26, 0.38937, -0.25912, -0.25211, -0.84711,
 14:00:47.314,ed:40:fe:65:30:6c, 2015-01-01 02:12:51.080, 0.632, 0.215, 0.741, -0.305, 0.366, -1.038, 16.919, -39.485, -136.73, -19.627, -13.867, -3.200, 26.26, 0.38937, -0.25912, -0.25211, -0.84711,
 14:00:47.336,ed:40:fe:65:30:6c, 2015-01-01 02:12:51.080, 0.632, 0.217, 0.738, 0.183, 0.244, -1.343, 16.93, -39.474, -136.763, -19.887, -13.460, -3.300, 26.26, 0.38937, -0.25912, -0.25211, -0.84711,
 14:00:47.336,ed:40:fe:65:30:6c, 2015-01-01 02:12:51.080, 0.635, 0.213, 0.736, 0.671, 0.244, -1.587, 16.952, -39.463, -136.813, -19.887, -13.460, -3.300, 26.26, 0.38937, -0.25912, -0.25211, -0.84711,
 14:00:47.336,e3:ca:2d:fd:e0:8c, 2015-01-01 02:12:45.670, 0.984, -0.129, 0.244, -0.183, -0.488, -0.244, -28.141, -74.064, -168.657, -27.453, -8.893, -10.680, 28.67, -0.06946, -0.60034, 0.13562, -0.78503,
 14:00:47.336,e3:ca:2d:fd:e0:8c, 2015-01-01 02:12:45.670, 0.982, -0.131, 0.246, -0.366, -0.61, -0.305, -28.141, -74.081, -168.624, -27.453, -8.893, -10.680, 28.67, -0.06946, -0.60034, 0.13562, -0.78503,
 14:00:47.339,f6:90:cc:01:6d:25, 2015-01-01 02:12:46.020, 0.971, 0.135, 0.084, -0.732, 0.488, -0.732, 58.64, -80.733, 139.285, -29.840, -14.360, 0.827, 32.88, -0.06647, 0.65939, 0.15329, 0.73291,
 14:00:47.339,f6:90:cc:01:6d:25, 2015-01-01 02:12:46.020, 0.97, 0.132, 0.084, -0.793, 0.427, -0.916, 58.629, -80.717, 139.29, -29.840, -14.360, 0.827, 32.88, -0.06647, 0.65939, 0.15329, 0.73291,
