Time,Device name,Chip Time(),Acceleration X(g),Acceleration Y(g),Acceleration Z(g),Angular velocity X(°/s),Angular velocity Y(°/s),Angular velocity Z(°/s),Angle X(°),Angle Y(°),Angle Z(°),Magnetic field X(ʯt),Magnetic field Y(ʯt),Magnetic field Z(ʯt),Temperature(℃),Quaternions 0(),Quaternions 1(),Quaternions 2(),Quaternions 3()
 14:53:22.678,f6:90:cc:01:6d:25, 2015-01-01 00:24:08.210, 0.959, -0.204, 0.123, 0.183, 0, 0, -58.266, -76.031, -124.997, -32.340, -10.860, -4.740, 29.7, 0.05255, -0.65414, 0.091, -0.74896,
 14:53:22.678,f6:90:cc:01:6d:25, 2015-01-01 00:24:08.210, 0.959, -0.202, 0.123, 0.244, 0, 0, -58.266, -76.031, -125.008, -32.340, -10.860, -4.740, 29.7, 0.05255, -0.65414, 0.091, -0.74896,
 14:53:22.697,e3:ca:2d:fd:e0:8c, 2015-01-01 00:24:10.355, 0.988, -0.252, -0.088, 0.061, -0.122, 0, -109.622, -74.905, -95.658, -28.793, -9.233, -5.247, 27.49, 0.0614, 0.69489, -0.24551, 0.67303,
 14:53:22.697,e3:ca:2d:fd:e0:8c, 2015-01-01 00:24:10.355, 0.987, -0.252, -0.089, 0.061, -0.183, 0, -109.633, -74.905, -95.647, -28.793, -9.233, -5.247, 27.49, 0.0614, 0.69489, -0.24551, 0.67303,
 14:53:22.698,ed:40:fe:65:30:6c, 2015-01-01 00:24:09.730, 0.76, -0.182, 0.634, -0.183, 0, 0, -16.062, -49.037, -111.923, -24.427, -5.747, -2.827, 24.57, 0.4556, -0.41162, -0.12469, -0.77933,
 14:53:22.698,ed:40:fe:65:30:6c, 2015-01-01 00:24:09.730, 0.759, -0.182, 0.634, -0.244, -0.061, 0, -16.068, -49.037, -111.918, -24.427, -5.747, -2.827, 24.57, 0.4556, -0.41162, -0.12469, -0.77933,
 14:53:22.699,ed:35:33:d3:6c:f8, 2015-01-01 00:24:08.200, 0.008, -0.306, 0.952, -0.244, -0.549, 0.427, -17.985, -0.571, -170.024, -3.053, -3.040, -36.267, 26.67, 0.08423, -0.01794, 0.15521, -0.98407,
 14:53:22.699,ed:35:33:d3:6c:f8, 2015-01-01 00:24:08.200, 0.007, -0.306, 0.952, -0.366, -0.793, 0.549, -17.99, -0.582, -170.013, -3.053, -3.040, -36.267, 26.67, 0.08423, -0.01794, 0.15521, -0.98407,
 14:53:22.701,f6:90:cc:01:6d:25, 2015-01-01 00:24:08.210, 0.959, -0.203, 0.123, 0.122, 0, 0, -58.271, -76.031, -125.019, -32.340, -10.860, -4.740, 29.7, 0.05255, -0.65414, 0.091, -0.74896,
 14:53:22.701,f6:90:cc:01:6d:25, 2015-01-01 00:24:08.210, 0.958, -0.203, 0.124, 0.122, 0, 0, -58.277, -76.031, -125.03, -32.340, -10.860, -4.740, 29.7, 0.05255, -0.65414, 0.091, -0.74896,
 14:53:22.721,e3:ca:2d:fd:e0:8c, 2015-01-01 00:24:10.355, 0.988, -0.253, -0.09, 0.122, -0.183, 0, -109.638, -74.905, -95.636, -28.793, -9.233, -5.247, 27.49, 0.06119, 0.69528, -0.24554, 0.67264,
 14:53:22.721,e3:ca:2d:fd:e0:8c, 2015-01-01 00:24:10.355, 0.988, -0.252, -0.091, 0.305, -0.183, 0, -109.649, -74.899, -95.625, -28.793, -9.233, -5.247, 27.49, 0.06119, 0.69528, -0.24554, 0.67264,
 14:53:22.721,ed:40:fe:65:30:6c, 2015-01-01 00:24:09.730, 0.758, -0.184, 0.636, -0.122, -0.061, 0, -16.073, -49.037, -111.907, -24.427, -5.747, -2.827, 24.57, 0.45618, -0.41168, -0.12463, -0.77896,
 14:53:22.721,ed:40:fe:65:30:6c, 2015-01-01 00:24:09.730, 0.76, -0.182, 0.635, 0, 0, 0, -16.073, -49.043, -111.901, -24.427, -5.747, -2.827, 24.57, 0.45618, -0.41168, -0.12463, -0.77896,
 14:53:22.723,ed:35:33:d3:6c:f8, 2015-01-01 00:24:08.200, 0.008, -0.307, 0.95, -0.122, -0.732, 0.854, -17.99, -0.593, -169.991, -2.980, -3.333, -36.527, 26.67, 0.08423, -0.01794, 0.15521, -0.98407,
 14:53:22.723,ed:35:33:d3:6c:f8, 2015-01-01 00:24:08.200, 0.009, -0.306, 0.949, 0, -0.366, 0.61, -17.99, -0.599, -169.969, -2.980, -3.333, -36.527, 26.67, 0.08423, -0.01794, 0.15521, -0.98407,
 14:53:22.742,e3:ca:2d:fd:e0:8c, 2015-01-01 00:24:10.355, 0.988, -0.251, -0.09, 0.366, -0.183, 0, -109.655, -74.899, -95.609, -28.793, -9.233, -5.247, 27.49, 0.06119, 0.69528, -0.24554, 0.67264,
 14:53:22.742,e3:ca:2d:fd:e0:8c, 2015-01-01 00:24:10.355, 0.987, -0.25, -0.089, 0.305, -0.122, 0, -109.655, -74.899, -95.603, -28.793, -9.233, -5.247, 27.49, 0.06119, 0.69528, -0.24554, 0.67264,
 14:53:22.747,f6:90:cc:01:6d:25, 2015-01-01 00:24:08.210, 0.959, -0.205, 0.124, 0.061, -0.061, 0, -58.282, -76.031, -125.024, -32.340, -10.860, -4.740, 29.7, 0.05255, -0.65414, 0.091, -0.74896,
 14:53:22.747,f6:90:cc:01:6d:25, 2015-01-01 00:24:08.210, 0.959, -0.203, 0.124, 0.061, -0.183, 0, -58.293, -76.031, -125.019, -32.340, -10.860, -4.740, 29.7, 0.05255, -0.65414, 0.091, -0.74896,
 14:53:22.766,ed:40:fe:65:30:6c, 2015-01-01 00:24:09.730, 0.76, -0.182, 0.635, 0.061, 0, 0, -16.073, -49.037, -111.89, -24.427, -5.747, -2.827, 24.57, 0.45618, -0.41168, -0.12463, -0.77896,
 14:53:22.766,ed:40:fe:65:30:6c, 2015-01-01 00:24:09.730, 0.759, -0.183, 0.634, 0, -0.122, 0, -16.073, -49.043, -111.885, -24.427, -5.747, -2.827, 24.57, 0.45618, -0.41168, -0.12463, -0.77896,
 14:53:22.766,ed:35:33:d3:6c:f8, 2015-01-01 00:24:08.200, 0.009, -0.306, 0.952, 0.244, -0.122, 0.061, -17.99, -0.599, -169.948, -2.980, -3.333, -36.527, 26.67, 0.08423, -0.01794, 0.15521, -0.98407,
 14:53:22.766,ed:35:33:d3:6c:f8, 2015-01-01 00:24:08.200, 0.01, -0.303, 0.952, -0.122, -0.366, 0.061, -17.985, -0.604, -169.937, -2.980, -3.333, -36.527, 26.67, 0.08423, -0.01794, 0.15521, -0.98407,
 14:53:22.787,e3:ca:2d:fd:e0:8c, 2015-01-01 00:24:10.355, 0.988, -0.252, -0.089, 0, -0.122, 0, -109.66, -74.894, -95.592, -28.793, -9.233, -5.247, 27.49, 0.06119, 0.69528, -0.24554, 0.67264,
 14:53:22.787,e3:ca:2d:fd:e0:8c, 2015-01-01 00:24:10.355, 0.988, -0.252, -0.089, 0.061, -0.183, 0, -109.671, -74.894, -95.581, -28.793, -9.233, -5.247, 27.49, 0.06119, 0.69528, -0.24554, 0.67264,
 14:53:22.790,f6:90:cc:01:6d:25, 2015-01-01 00:24:08.210, 0.959, -0.203, 0.123, 0.183, -0.061, 0, -58.304, -76.031, -125.002, -32.127, -10.953, -5.107, 29.7, 0.05255, -0.65414, 0.091, -0.74896,
 14:53:22.790,f6:90:cc:01:6d:25, 2015-01-01 00:24:08.210, 0.958, -0.202, 0.125, 0.061, 0, 0, -58.315, -76.036, -125.002, -32.127, -10.953, -5.107, 29.7, 0.05255, -0.65414, 0.091, -0.74896,
 14:53:22.809,e3:ca:2d:fd:e0:8c, 2015-01-01 00:24:10.735, 0.986, -0.251, -0.09, 0.305, -0.244, 0, -109.682, -74.894, -95.565, -28.793, -9.233, -5.247, 27.49, 0.06119, 0.69528, -0.24554, 0.67264,
 14:53:22.809,e3:ca:2d:fd:e0:8c, 2015-01-01 00:24:10.735, 0.987, -0.251, -0.088, 0.366, -0.305, 0, -109.693, -74.888, -95.548, -28.793, -9.233, -5.247, 27.49, 0.06119, 0.69528, -0.24554, 0.67264,
 14:53:22.810,ed:40:fe:65:30:6c, 2015-01-01 00:24:10.090, 0.759, -0.179, 0.634, -0.244, -0.122, 0, -16.073, -49.043, -111.874, -24.427, -5.747, -2.827, 24.57, 0.45618, -0.41168, -0.12463, -0.77896,
 14:53:22.810,ed:40:fe:65:30:6c, 2015-01-01 00:24:10.090, 0.763, -0.179, 0.634, -0.305, 0, 0.305, -16.084, -49.043, -111.863, -24.427, -5.747, -2.827, 24.57, 0.45618, -0.41168, -0.12463, -0.77896,
 14:53:22.834,ed:35:33:d3:6c:f8, 2015-01-01 00:24:08.200, 0.011, -0.3, 0.949, -0.305, -0.122, 0, -17.985, -0.604, -169.937, -2.980, -3.333, -36.527, 26.67, 0.08569, -0.01886, 0.15527, -0.98392,
 14:53:22.834,ed:35:33:d3:6c:f8, 2015-01-01 00:24:08.200, 0.009, -0.306, 0.95, -0.366, 0, 0, -17.99, -0.604, -169.937, -2.980, -3.333, -36.527, 26.67, 0.08569, -0.01886, 0.15527, -0.98392,
 14:53:22.835,f6:90:cc:01:6d:25, 2015-01-01 00:24:08.210, 0.961, -0.202, 0.122, -0.244, -0.061, 0, -58.321, -76.036, -124.991, -32.127, -10.953, -5.107, 29.7, 0.05148, -0.6543, 0.0921, -0.74878,
 14:53:22.835,f6:90:cc:01:6d:25, 2015-01-01 00:24:08.210, 0.96, -0.206, 0.123, -0.183, -0.183, 0, -58.332, -76.036, -124.969, -32.127, -10.953, -5.107, 29.7, 0.05148, -0.6543, 0.0921, -0.74878,
 14:53:22.854,e3:ca:2d:fd:e0:8c, 2015-01-01 00:24:10.735, 0.988, -0.252, -0.09, 0.061, -0.244, 0, -109.709, -74.888, -95.532, -28.793, -9.233, -5.247, 27.49, 0.06119, 0.69528, -0.24554, 0.67264,
 14:53:22.854,e3:ca:2d:fd:e0:8c, 2015-01-01 00:24:10.735, 0.987, -0.253, -0.091, 0.061, -0.183, 0, -109.72, -74.888, -95.515, -28.793, -9.233, -5.247, 27.49, 0.06119, 0.69528, -0.24554, 0.67264,
 14:53:22.857,ed:40:fe:65:30:6c, 2015-01-01 00:24:10.090, 0.76, -0.184, 0.635, -0.183, 0.183, 0.183, -16.095, -49.037, -111.846, -24.427, -5.747, -2.827, 24.57, 0.45618, -0.41168, -0.12463, -0.77896,
 14:53:22.857,ed:40:fe:65:30:6c, 2015-01-01 00:24:10.090, 0.76, -0.188, 0.636, -0.183, 0, 0.244, -16.1, -49.037, -111.835, -24.427, -5.747, -2.827, 24.57, 0.45618, -0.41168, -0.12463, -0.77896,
 14:53:22.859,ed:35:33:d3:6c:f8, 2015-01-01 00:24:08.555, 0.007, -0.307, 0.955, 0.183, -0.305, 0.671, -17.99, -0.604, -169.942, -2.980, -3.333, -36.527, 26.67, 0.08569, -0.01886, 0.15527, -0.98392,
 14:53:22.859,ed:35:33:d3:6c:f8, 2015-01-01 00:24:08.555, 0.007, -0.31, 0.954, -0.061, -0.671, 1.282, -17.985, -0.61, -169.926, -2.980, -3.333, -36.527, 26.67, 0.08569, -0.01886, 0.15527, -0.98392,
 14:53:22.877,e3:ca:2d:fd:e0:8c, 2015-01-01 00:24:10.735, 0.987, -0.253, -0.091, 0.366, -0.183, 0, -109.726, -74.883, -95.504, -28.793, -9.233, -5.247, 27.49, 0.06119, 0.69528, -0.24554, 0.67264,
 14:53:22.877,e3:ca:2d:fd:e0:8c, 2015-01-01 00:24:10.735, 0.988, -0.253, -0.092, 0.305, -0.122, 0, -109.726, -74.883, -95.493, -28.793, -9.233, -5.247, 27.49, 0.06119, 0.69528, -0.24554, 0.67264,
 14:53:22.881,f6:90:cc:01:6d:25, 2015-01-01 00:24:08.520, 0.958, -0.206, 0.122, 0.183, -0.244, 0, -58.354, -76.036, -124.942, -32.127, -10.953, -5.107, 29.7, 0.05148, -0.6543, 0.0921, -0.74878,
 14:53:22.881,f6:90:cc:01:6d:25, 2015-01-01 00:24:08.520, 0.96, -0.206, 0.12, 0.305, -0.183, 0, -58.37, -76.042, -124.915, -32.127, -10.953, -5.107, 29.7, 0.05148, -0.6543, 0.0921, -0.74878,
 14:53:22.901,ed:40:fe:65:30:6c, 2015-01-01 00:24:10.090, 0.761, -0.189, 0.634, -0.122, -0.183, 0.244, -16.106, -49.037, -111.819, -24.427, -5.747, -2.827, 24.57, 0.45618, -0.41168, -0.12463, -0.77896,
 14:53:22.901,ed:40:fe:65:30:6c, 2015-01-01 00:24:10.090, 0.758, -0.183, 0.633, -0.122, -0.305, 0.244, -16.117, -49.037, -111.802, -24.427, -5.747, -2.827, 24.57, 0.45618, -0.41168, -0.12463, -0.77896,
 14:53:22.901,ed:35:33:d3:6c:f8, 2015-01-01 00:24:08.555, 0.011, -0.309, 0.953, -0.244, -0.793, 0.732, -17.99, -0.615, -169.898, -2.980, -3.333, -36.527, 26.67, 0.08569, -0.01886, 0.15527, -0.98392,
 14:53:22.901,ed:35:33:d3:6c:f8, 2015-01-01 00:24:08.555, 0.006, -0.308, 0.949, -0.244, -0.732, -0.183, -17.99, -0.626, -169.893, -2.980, -3.333, -36.527, 26.67, 0.08569, -0.01886, 0.15527, -0.98392,
 14:53:22.903,f6:90:cc:01:6d:25, 2015-01-01 00:24:08.520, 0.958, -0.203, 0.121, 0.183, -0.183, 0, -58.387, -76.042, -124.893, -32.127, -10.953, -5.107, 29.7, 0.05148, -0.6543, 0.0921, -0.74878,
 14:53:22.903,f6:90:cc:01:6d:25, 2015-01-01 00:24:08.520, 0.959, -0.202, 0.123, 0.061, -0.183, 0, -58.403, -76.047, -124.86, -32.127, -10.953, -5.107, 29.7, 0.05148, -0.6543, 0.0921, -0.74878,
 14:53:22.923,e3:ca:2d:fd:e0:8c, 2015-01-01 00:24:10.735, 0.987, -0.251, -0.092, 0.244, -0.122, 0, -109.731, -74.883, -95.488, -28.793, -9.233, -5.247, 27.49, 0.06119, 0.69528, -0.24554, 0.67264,
 14:53:22.923,e3:ca:2d:fd:e0:8c, 2015-01-01 00:24:10.735, 0.986, -0.251, -0.09, 0.061, -0.122, 0, -109.742, -74.877, -95.477, -28.793, -9.233, -5.247, 27.49, 0.06119, 0.69528, -0.24554, 0.67264,
 14:53:22.923,ed:40:fe:65:30:6c, 2015-01-01 00:24:10.090, 0.759, -0.185, 0.634, -0.122, -0.305, 0.061, -16.128, -49.043, -111.791, -24.427, -5.747, -2.827, 24.57, 0.45618, -0.41168, -0.12463, -0.77896,
 14:53:22.923,ed:40:fe:65:30:6c, 2015-01-01 00:24:10.090, 0.759, -0.185, 0.633, 0, -0.244, 0, -16.133, -49.048, -111.78, -24.427, -5.747, -2.827, 24.57, 0.45618, -0.41168, -0.12463, -0.77896,
 14:53:22.948,ed:35:33:d3:6c:f8, 2015-01-01 00:24:08.555, 0.013, -0.309, 0.949, -0.305, -0.732, -0.183, -17.996, -0.637, -169.904, -2.980, -3.333, -36.527, 26.67, 0.08569, -0.01886, 0.15527, -0.98392,
 14:53:22.948,ed:35:33:d3:6c:f8, 2015-01-01 00:24:08.555, 0.014, -0.301, 0.949, 0, -0.549, 0.549, -18.001, -0.648, -169.92, -2.980, -3.333, -36.527, 26.67, 0.08569, -0.01886, 0.15527, -0.98392,
 14:53:22.949,f6:90:cc:01:6d:25, 2015-01-01 00:24:08.520, 0.958, -0.205, 0.122, 0, -0.244, 0, -58.425, -76.047, -124.805, -32.127, -10.953, -5.107, 29.7, 0.05148, -0.6543, 0.0921, -0.74878,
 14:53:22.949,f6:90:cc:01:6d:25, 2015-01-01 00:24:08.520, 0.958, -0.203, 0.123, 0.061, -0.183, 0, -58.447, -76.053, -124.761, -32.127, -10.953, -5.107, 29.7, 0.05148, -0.6543, 0.0921, -0.74878,
 14:53:22.969,ed:35:33:d3:6c:f8, 2015-01-01 00:24:08.555, 0.012, -0.298, 0.949, -0.061, -0.305, 0.549, -17.996, -0.654, -169.931, -2.980, -3.333, -36.527, 26.67, 0.08569, -0.01886, 0.15527, -0.98392,
 14:53:22.969,ed:35:33:d3:6c:f8, 2015-01-01 00:24:08.555, 0.009, -0.302, 0.95, -0.366, -0.061, 0.061, -17.996, -0.654, -169.942, -2.980, -3.333, -36.527, 26.67, 0.08569, -0.01886, 0.15527, -0.98392,
 14:53:22.990,e3:ca:2d:fd:e0:8c, 2015-01-01 00:24:10.735, 0.987, -0.253, -0.09, -0.122, -0.122, 0, -109.748, -74.877, -95.471, -28.793, -9.233, -5.247, 27.49, 0.06119, 0.69528, -0.24554, 0.67264,
 14:53:22.990,e3:ca:2d:fd:e0:8c, 2015-01-01 00:24:10.735, 0.987, -0.254, -0.088, 0, -0.122, 0, -109.759, -74.877, -95.46, -28.793, -9.233, -5.247, 27.49, 0.06119, 0.69528, -0.24554, 0.67264,
 14:53:22.991,ed:40:fe:65:30:6c, 2015-01-01 00:24:10.090, 0.759, -0.18, 0.632, 0, -0.061, 0.183, -16.133, -49.048, -111.769, -24.427, -5.747, -2.827, 24.57, 0.45618, -0.41168, -0.12463, -0.77896,
 14:53:22.991,ed:40:fe:65:30:6c, 2015-01-01 00:24:10.090, 0.761, -0.178, 0.633, 0, 0.061, 0.488, -16.144, -49.048, -111.753, -24.427, -5.747, -2.827, 24.57, 0.45618, -0.41168, -0.12463, -0.77896,
 14:53:22.994,f6:90:cc:01:6d:25, 2015-01-01 00:24:08.520, 0.959, -0.203, 0.123, 0.244, -0.122, 0, -58.458, -76.053, -124.717, -32.127, -10.953, -5.107, 29.7, 0.05148, -0.6543, 0.0921, -0.74878,
 14:53:22.994,f6:90:cc:01:6d:25, 2015-01-01 00:24:08.520, 0.96, -0.204, 0.123, 0.183, -0.061, 0, -58.469, -76.053, -124.678, -32.127, -10.953, -5.107, 29.7, 0.05148, -0.6543, 0.0921, -0.74878,
 14:53:23.013,e3:ca:2d:fd:e0:8c, 2015-01-01 00:24:10.735, 0.987, -0.253, -0.088, 0.183, -0.122, 0, -109.764, -74.872, -95.455, -28.707, -9.367, -4.760, 27.49, 0.06119, 0.69528, -0.24554, 0.67264,
 14:53:23.013,e3:ca:2d:fd:e0:8c, 2015-01-01 00:24:10.735, 0.987, -0.253, -0.089, 0.305, -0.183, 0, -109.764, -74.872, -95.444, -28.707, -9.367, -4.760, 27.49, 0.06119, 0.69528, -0.24554, 0.67264,
 14:53:23.015,ed:35:33:d3:6c:f8, 2015-01-01 00:24:08.555, 0.007, -0.311, 0.953, -0.488, -0.183, 0.183, -18.001, -0.654, -169.964, -2.980, -3.333, -36.527, 26.67, 0.08569, -0.01886, 0.15527, -0.98392,
 14:53:23.015,ed:35:33:d3:6c:f8, 2015-01-01 00:24:08.555, 0.009, -0.312, 0.951, -0.549, -0.854, 0.732, -18.012, -0.659, -169.969, -2.980, -3.333, -36.527, 26.67, 0.08569, -0.01886, 0.15527, -0.98392,
 14:53:23.015,ed:40:fe:65:30:6c, 2015-01-01 00:24:10.090, 0.761, -0.185, 0.634, -0.122, 0.122, 0.488, -16.15, -49.043, -111.731, -24.453, -5.473, -2.767, 24.57, 0.45618, -0.41168, -0.12463, -0.77896,
 14:53:23.015,ed:40:fe:65:30:6c, 2015-01-01 00:24:10.090, 0.757, -0.189, 0.635, -0.244, -0.061, 0.305, -16.166, -49.043, -111.714, -24.453, -5.473, -2.767, 24.57, 0.45618, -0.41168, -0.12463, -0.77896,
 14:53:23.038,f6:90:cc:01:6d:25, 2015-01-01 00:24:08.520, 0.958, -0.205, 0.123, 0.061, 0, 0, -58.475, -76.053, -124.64, -32.127, -10.953, -5.107, 29.7, 0.05148, -0.6543, 0.0921, -0.74878,
 14:53:23.038,f6:90:cc:01:6d:25, 2015-01-01 00:24:08.520, 0.958, -0.205, 0.122, 0.061, 0, 0, -58.48, -76.053, -124.607, -32.127, -10.953, -5.107, 29.7, 0.05148, -0.6543, 0.0921, -0.74878,
 14:53:23.059,ed:40:fe:65:30:6c, 2015-01-01 00:24:10.090, 0.761, -0.188, 0.634, -0.061, -0.122, 0.122, -16.172, -49.043, -111.698, -24.453, -5.473, -2.767, 24.57, 0.45618, -0.41168, -0.12463, -0.77896,
 14:53:23.059,ed:40:fe:65:30:6c, 2015-01-01 00:24:10.090, 0.761, -0.187, 0.632, 0.061, 0, 0, -16.177, -49.043, -111.693, -24.453, -5.473, -2.767, 24.57, 0.45618, -0.41168, -0.12463, -0.77896,
 14:53:23.059,e3:ca:2d:fd:e0:8c, 2015-01-01 00:24:10.735, 0.987, -0.252, -0.089, 0.305, -0.183, 0, -109.77, -74.866, -95.433, -28.707, -9.367, -4.760, 27.49, 0.06119, 0.69528, -0.24554, 0.67264,
 14:53:23.059,e3:ca:2d:fd:e0:8c, 2015-01-01 00:24:10.735, 0.987, -0.252, -0.09, 0.061, -0.183, 0, -109.781, -74.866, -95.416, -28.707, -9.367, -4.760, 27.49, 0.06119, 0.69528, -0.24554, 0.67264,
 14:53:23.060,ed:35:33:d3:6c:f8, 2015-01-01 00:24:08.555, 0.015, -0.313, 0.947, -0.488, -0.61, 0.183, -18.018, -0.67, -169.953, -2.980, -3.333, -36.527, 26.67, 0.08569, -0.01886, 0.15527, -0.98392,
 14:53:23.060,ed:35:33:d3:6c:f8, 2015-01-01 00:24:08.555, 0.013, -0.309, 0.946, 0.244, -0.61, -0.122, -18.023, -0.681, -169.948, -2.980, -3.333, -36.527, 26.67, 0.08569, -0.01886, 0.15527, -0.98392,
 14:53:23.062,f6:90:cc:01:6d:25, 2015-01-01 00:24:08.520, 0.959, -0.205, 0.122, -0.061, 0, 0, -58.486, -76.053, -124.579, -32.040, -11.160, -4.853, 29.7, 0.05148, -0.6543, 0.0921, -0.74878,
 14:53:23.062,f6:90:cc:01:6d:25, 2015-01-01 00:24:08.520, 0.96, -0.202, 0.121, 0.122, 0.061, 0, -58.486, -76.053, -124.547, -32.040, -11.160, -4.853, 29.7, 0.05148, -0.6543, 0.0921, -0.74878,
 14:53:23.079,e3:ca:2d:fd:e0:8c, 2015-01-01 00:24:10.735, 0.987, -0.252, -0.091, -0.122, -0.122, 0, -109.786, -74.866, -95.411, -28.707, -9.367, -4.760, 27.49, 0.06055, 0.69568, -0.24527, 0.67239,
 14:53:23.079,e3:ca:2d:fd:e0:8c, 2015-01-01 00:24:10.735, 0.988, -0.253, -0.092, -0.061, -0.183, 0, -109.797, -74.861, -95.4, -28.707, -9.367, -4.760, 27.49, 0.06055, 0.69568, -0.24527, 0.67239,
 14:53:23.106,f6:90:cc:01:6d:25, 2015-01-01 00:24:08.520, 0.96, -0.203, 0.121, 0.061, 0, 0, -58.491, -76.053, -124.519, -32.040, -11.160, -4.853, 29.7, 0.05148, -0.6543, 0.0921, -0.74878,
 14:53:23.106,f6:90:cc:01:6d:25, 2015-01-01 00:24:08.520, 0.96, -0.201, 0.119, -0.122, 0, 0, -58.497, -76.053, -124.492, -32.040, -11.160, -4.853, 29.7, 0.05148, -0.6543, 0.0921, -0.74878,
 14:53:23.126,ed:40:fe:65:30:6c, 2015-01-01 00:24:10.090, 0.761, -0.184, 0.631, 0.061, 0.061, -0.061, -16.172, -49.037, -111.687, -24.453, -5.473, -2.767, 24.57, 0.45734, -0.4119, -0.12473, -0.77817,
 14:53:23.126,ed:40:fe:65:30:6c, 2015-01-01 00:24:10.090, 0.76, -0.185, 0.634, 0.061, 0.061, -0.061, -16.172, -49.037, -111.682, -24.453, -5.473, -2.767, 24.57, 0.45734, -0.4119, -0.12473, -0.77817,
 14:53:23.127,ed:35:33:d3:6c:f8, 2015-01-01 00:24:08.555, 0.011, -0.305, 0.951, 0.488, -0.427, 0, -18.018, -0.687, -169.948, -2.853, -3.147, -35.980, 26.67, 0.08569, -0.01886, 0.15527, -0.98392,
 14:53:23.127,ed:35:33:d3:6c:f8, 2015-01-01 00:24:08.555, 0.011, -0.304, 0.955, 0, -0.366, 0.854, -18.012, -0.698, -169.942, -2.853, -3.147, -35.980, 26.67, 0.08569, -0.01886, 0.15527, -0.98392,
 14:53:23.146,e3:ca:2d:fd:e0:8c, 2015-01-01 00:24:10.735, 0.989, -0.252, -0.093, 0, -0.061, 0, -109.803, -74.861, -95.394, -28.707, -9.367, -4.760, 27.49, 0.06055, 0.69568, -0.24527, 0.67239,
 14:53:23.146,e3:ca:2d:fd:e0:8c, 2015-01-01 00:24:10.735, 0.988, -0.252, -0.093, 0.061, 0, 0, -109.803, -74.861, -95.394, -28.707, -9.367, -4.760, 27.49, 0.06055, 0.69568, -0.24527, 0.67239,
 14:53:23.148,ed:40:fe:65:30:6c, 2015-01-01 00:24:10.445, 0.76, -0.181, 0.635, -0.122, 0, 0, -16.172, -49.037, -111.676, -24.453, -5.473, -2.767, 24.57, 0.45734, -0.4119, -0.12473, -0.77817,
 14:53:23.148,ed:40:fe:65:30:6c, 2015-01-01 00:24:10.445, 0.76, -0.181, 0.635, -0.183, -0.183, 0, -16.177, -49.043, -111.671, -24.453, -5.473, -2.767, 24.57, 0.45734, -0.4119, -0.12473, -0.77817,
 14:53:23.149,ed:35:33:d3:6c:f8, 2015-01-01 00:24:08.555, 0.01, -0.303, 0.955, -0.427, -0.671, 0.427, -18.012, -0.698, -169.915, -2.853, -3.147, -35.980, 26.67, 0.08588, -0.01981, 0.1554, -0.98386,
 14:53:23.149,ed:35:33:d3:6c:f8, 2015-01-01 00:24:08.555, 0.014, -0.305, 0.953, -0.793, -0.916, -0.061, -18.018, -0.709, -169.882, -2.853, -3.147, -35.980, 26.67, 0.08588, -0.01981, 0.1554, -0.98386,
 14:53:23.152,f6:90:cc:01:6d:25, 2015-01-01 00:24:08.520, 0.959, -0.202, 0.122, -0.305, -0.061, 0, -58.513, -76.053, -124.459, -32.040, -11.160, -4.853, 29.7, 0.05356, -0.65485, 0.09036, -0.74835,
 14:53:23.153,f6:90:cc:01:6d:25, 2015-01-01 00:24:08.520, 0.959, -0.203, 0.122, -0.183, -0.122, 0, -58.53, -76.058, -124.42, -32.040, -11.160, -4.853, 29.7, 0.05356, -0.65485, 0.09036, -0.74835,
 14:53:23.169,e3:ca:2d:fd:e0:8c, 2015-01-01 00:24:11.095, 0.987, -0.251, -0.092, 0.183, 0, 0, -109.797, -74.861, -95.394, -28.707, -9.367, -4.760, 27.49, 0.06055, 0.69568, -0.24527, 0.67239,
 14:53:23.169,e3:ca:2d:fd:e0:8c, 2015-01-01 00:24:11.095, 0.987, -0.252, -0.091, 0.122, 0, 0, -109.797, -74.861, -95.394, -28.707, -9.367, -4.760, 27.49, 0.06055, 0.69568, -0.24527, 0.67239,
 14:53:23.171,ed:40:fe:65:30:6c, 2015-01-01 00:24:10.445, 0.762, -0.184, 0.633, -0.183, -0.305, 0, -16.183, -49.043, -111.66, -24.453, -5.473, -2.767, 24.57, 0.45734, -0.4119, -0.12473, -0.77817,
 14:53:23.171,ed:40:fe:65:30:6c, 2015-01-01 00:24:10.445, 0.761, -0.186, 0.631, -0.061, -0.061, 0, -16.183, -49.048, -111.654, -24.453, -5.473, -2.767, 24.57, 0.45734, -0.4119, -0.12473, -0.77817,
 14:53:23.195,ed:35:33:d3:6c:f8, 2015-01-01 00:24:08.555, 0.016, -0.308, 0.949, -0.671, -0.732, -0.488, -18.034, -0.725, -169.871, -2.853, -3.147, -35.980, 26.67, 0.08588, -0.01981, 0.1554, -0.98386,
 14:53:23.195,ed:35:33:d3:6c:f8, 2015-01-01 00:24:08.555, 0.014, -0.311, 0.947, -0.305, -0.488, -0.427, -18.04, -0.742, -169.865, -2.853, -3.147, -35.980, 26.67, 0.08588, -0.01981, 0.1554, -0.98386,
 14:53:23.196,f6:90:cc:01:6d:25, 2015-01-01 00:24:08.835, 0.958, -0.204, 0.121, -0.183, -0.061, 0, -58.546, -76.058, -124.387, -32.040, -11.160, -4.853, 29.7, 0.05356, -0.65485, 0.09036, -0.74835,
 14:53:23.196,f6:90:cc:01:6d:25, 2015-01-01 00:24:08.835, 0.958, -0.206, 0.12, -0.061, 0, 0, -58.557, -76.058, -124.354, -32.040, -11.160, -4.853, 29.7, 0.05356, -0.65485, 0.09036, -0.74835,
 14:53:23.214,e3:ca:2d:fd:e0:8c, 2015-01-01 00:24:11.095, 0.986, -0.253, -0.091, 0, 0, 0, -109.797, -74.861, -95.4, -28.707, -9.367, -4.760, 27.49, 0.06055, 0.69568, -0.24527, 0.67239,
 14:53:23.214,e3:ca:2d:fd:e0:8c, 2015-01-01 00:24:11.095, 0.986, -0.254, -0.09, 0, 0, 0, -109.797, -74.855, -95.4, -28.707, -9.367, -4.760, 27.49, 0.06055, 0.69568, -0.24527, 0.67239,
 14:53:23.215,ed:40:fe:65:30:6c, 2015-01-01 00:24:10.445, 0.76, -0.188, 0.63, 0.061, 0, -0.061, -16.183, -49.048, -111.649, -24.453, -5.473, -2.767, 24.57, 0.45734, -0.4119, -0.12473, -0.77817,
 14:53:23.215,ed:40:fe:65:30:6c, 2015-01-01 00:24:10.445, 0.759, -0.187, 0.631, 0.244, 0.122, -0.061, -16.177, -49.048, -111.643, -24.453, -5.473, -2.767, 24.57, 0.45734, -0.4119, -0.12473, -0.77817,
 14:53:23.216,ed:35:33:d3:6c:f8, 2015-01-01 00:24:08.915, 0.013, -0.311, 0.946, 0, -0.183, 0, -18.045, -0.753, -169.86, -2.853, -3.147, -35.980, 26.67, 0.08588, -0.01981, 0.1554, -0.98386,
 14:53:23.216,ed:35:33:d3:6c:f8, 2015-01-01 00:24:08.915, 0.012, -0.308, 0.948, 0.366, 0.061, 0.305, -18.04, -0.753, -169.854, -2.853, -3.147, -35.980, 26.67, 0.08588, -0.01981, 0.1554, -0.98386,
 14:53:23.237,e3:ca:2d:fd:e0:8c, 2015-01-01 00:24:11.095, 0.987, -0.253, -0.09, 0, 0.061, 0, -109.797, -74.855, -95.405, -28.707, -9.367, -4.760, 27.49, 0.06055, 0.69568, -0.24527, 0.67239,
 14:53:23.237,e3:ca:2d:fd:e0:8c, 2015-01-01 00:24:11.095, 0.988, -0.253, -0.09, 0, 0.122, 0, -109.786, -74.855, -95.411, -28.707, -9.367, -4.760, 27.49, 0.06055, 0.69568, -0.24527, 0.67239,
 14:53:23.240,f6:90:cc:01:6d:25, 2015-01-01 00:24:08.835, 0.958, -0.206, 0.12, -0.061, 0.061, 0, -58.563, -76.058, -124.327, -32.040, -11.160, -4.853, 29.7, 0.05356, -0.65485, 0.09036, -0.74835,
 14:53:23.240,f6:90:cc:01:6d:25, 2015-01-01 00:24:08.835, 0.959, -0.204, 0.121, -0.061, 0.122, 0, -58.568, -76.058, -124.305, -32.040, -11.160, -4.853, 29.7, 0.05356, -0.65485, 0.09036, -0.74835,
 14:53:23.262,ed:35:33:d3:6c:f8, 2015-01-01 00:24:08.915, 0.011, -0.305, 0.95, 0.366, 0.183, 0.061, -18.034, -0.747, -169.849, -2.853, -3.147, -35.980, 26.67, 0.08588, -0.01981, 0.1554, -0.98386,
 14:53:23.262,ed:35:33:d3:6c:f8, 2015-01-01 00:24:08.915, 0.01, -0.304, 0.952, 0, 0.305, -0.183, -18.029, -0.742, -169.871, -2.853, -3.147, -35.980, 26.67, 0.08588, -0.01981, 0.1554, -0.98386,
 14:53:23.262,ed:40:fe:65:30:6c, 2015-01-01 00:24:10.445, 0.76, -0.183, 0.633, 0.244, 0.183, -0.061, -16.172, -49.043, -111.643, -24.453, -5.473, -2.767, 24.57, 0.45734, -0.4119, -0.12473, -0.77817,
 14:53:23.262,ed:40:fe:65:30:6c, 2015-01-01 00:24:10.445, 0.759, -0.182, 0.634, 0.122, 0.183, 0, -16.172, -49.043, -111.638, -24.453, -5.473, -2.767, 24.57, 0.45734, -0.4119, -0.12473, -0.77817,
 14:53:23.263,f6:90:cc:01:6d:25, 2015-01-01 00:24:08.835, 0.96, -0.203, 0.123, -0.061, 0.122, 0, -58.568, -76.058, -124.288, -32.040, -11.160, -4.853, 29.7, 0.05356, -0.65485, 0.09036, -0.74835,
 14:53:23.263,f6:90:cc:01:6d:25, 2015-01-01 00:24:08.835, 0.958, -0.204, 0.123, 0, 0.183, 0, -58.563, -76.058, -124.272, -32.040, -11.160, -4.853, 29.7, 0.05356, -0.65485, 0.09036, -0.74835,
 14:53:23.281,e3:ca:2d:fd:e0:8c, 2015-01-01 00:24:11.095, 0.987, -0.253, -0.09, 0, 0.122, 0, -109.775, -74.855, -95.422, -28.707, -9.367, -4.760, 27.49, 0.06055, 0.69568, -0.24527, 0.67239,
 14:53:23.281,e3:ca:2d:fd:e0:8c, 2015-01-01 00:24:11.095, 0.986, -0.253, -0.09, -0.122, 0.061, 0, -109.775, -74.855, -95.427, -28.707, -9.367, -4.760, 27.49, 0.06055, 0.69568, -0.24527, 0.67239,
 14:53:23.282,ed:40:fe:65:30:6c, 2015-01-01 00:24:10.445, 0.758, -0.183, 0.635, 0, 0.061, 0, -16.172, -49.037, -111.632, -24.453, -5.473, -2.767, 24.57, 0.45734, -0.4119, -0.12473, -0.77817,
 14:53:23.282,ed:40:fe:65:30:6c, 2015-01-01 00:24:10.445, 0.758, -0.184, 0.635, -0.061, 0, 0, -16.172, -49.037, -111.627, -24.453, -5.473, -2.767, 24.57, 0.45734, -0.4119, -0.12473, -0.77817,
 14:53:23.284,ed:35:33:d3:6c:f8, 2015-01-01 00:24:08.915, 0.009, -0.304, 0.953, -0.122, 0.122, 0, -18.029, -0.742, -169.887, -2.853, -3.147, -35.980, 26.67, 0.08588, -0.01981, 0.1554, -0.98386,
 14:53:23.284,ed:35:33:d3:6c:f8, 2015-01-01 00:24:08.915, 0.008, -0.305, 0.952, -0.366, -0.061, 0.061, -18.029, -0.736, -169.904, -2.853, -3.147, -35.980, 26.67, 0.08588, -0.01981, 0.1554, -0.98386,
 14:53:23.307,f6:90:cc:01:6d:25, 2015-01-01 00:24:08.835, 0.958, -0.204, 0.121, -0.183, 0.061, 0, -58.568, -76.058, -124.25, -32.040, -11.160, -4.853, 29.7, 0.05356, -0.65485, 0.09036, -0.74835,
 14:53:23.307,f6:90:cc:01:6d:25, 2015-01-01 00:24:08.835, 0.958, -0.205, 0.122, -0.122, -0.061, 0, -58.579, -76.058, -124.222, -32.040, -11.160, -4.853, 29.7, 0.05356, -0.65485, 0.09036, -0.74835,
 14:53:23.327,ed:40:fe:65:30:6c, 2015-01-01 00:24:10.445, 0.759, -0.184, 0.636, 0, 0, 0.061, -16.172, -49.037, -111.621, -24.453, -5.473, -2.767, 24.57, 0.45734, -0.4119, -0.12473, -0.77817,
 14:53:23.327,ed:40:fe:65:30:6c, 2015-01-01 00:24:10.445, 0.76, -0.185, 0.633, 0.183, -0.122, 0.061, -16.172, -49.037, -111.61, -24.453, -5.473, -2.767, 24.57, 0.45734, -0.4119, -0.12473, -0.77817,
 14:53:23.329,ed:35:33:d3:6c:f8, 2015-01-01 00:24:08.915, 0.014, -0.306, 0.952, -0.549, -0.061, -0.183, -18.034, -0.736, -169.904, -2.853, -3.147, -35.980, 26.67, 0.08588, -0.01981, 0.1554, -0.98386,
 14:53:23.329,ed:35:33:d3:6c:f8, 2015-01-01 00:24:08.915, 0.016, -0.308, 0.95, -0.366, -0.427, -0.305, -18.04, -0.742, -169.904, -2.853, -3.147, -35.980, 26.67, 0.08588, -0.01981, 0.1554, -0.98386,
 14:53:23.349,e3:ca:2d:fd:e0:8c, 2015-01-01 00:24:11.095, 0.987, -0.254, -0.091, -0.183, 0, 0, -109.781, -74.855, -95.427, -28.707, -9.367, -4.760, 27.49, 0.06055, 0.69568, -0.24527, 0.67239,
 14:53:23.349,e3:ca:2d:fd:e0:8c, 2015-01-01 00:24:11.095, 0.987, -0.253, -0.091, -0.183, 0, 0, -109.781, -74.855, -95.427, -28.707, -9.367, -4.760, 27.49, 0.06055, 0.69568, -0.24527, 0.67239,
 14:53:23.354,f6:90:cc:01:6d:25, 2015-01-01 00:24:08.835, 0.959, -0.205, 0.121, -0.061, -0.061, 0, -58.59, -76.058, -124.189, -32.040, -11.160, -4.853, 29.7, 0.05356, -0.65485, 0.09036, -0.74835,
 14:53:23.354,f6:90:cc:01:6d:25, 2015-01-01 00:24:08.835, 0.958, -0.204, 0.122, 0.061, 0.061, 0, -58.596, -76.058, -124.167, -32.040, -11.160, -4.853, 29.7, 0.05356, -0.65485, 0.09036, -0.74835,
 14:53:23.373,e3:ca:2d:fd:e0:8c, 2015-01-01 00:24:11.095, 0.986, -0.252, -0.09, 0, 0, 0, -109.781, -74.85, -95.427, -28.887, -9.233, -6.027, 27.49, 0.06055, 0.69568, -0.24527, 0.67239,
 14:53:23.373,e3:ca:2d:fd:e0:8c, 2015-01-01 00:24:11.095, 0.986, -0.252, -0.089, -0.061, 0.061, 0, -109.775, -74.85, -95.433, -28.887, -9.233, -6.027, 27.49, 0.06055, 0.69568, -0.24527, 0.67239,
 14:53:23.396,ed:40:fe:65:30:6c, 2015-01-01 00:24:10.445, 0.76, -0.188, 0.631, 0, 0, 0.122, -16.172, -49.037, -111.605, -24.640, -5.573, -2.320, 24.57, 0.45734, -0.4119, -0.12473, -0.77817,
 14:53:23.396,ed:40:fe:65:30:6c, 2015-01-01 00:24:10.445, 0.761, -0.184, 0.632, 0.122, 0.122, 0, -16.172, -49.037, -111.599, -24.640, -5.573, -2.320, 24.57, 0.45734, -0.4119, -0.12473, -0.77817,
 14:53:23.397,ed:35:33:d3:6c:f8, 2015-01-01 00:24:08.915, 0.014, -0.31, 0.945, -0.427, -0.061, 0, -18.045, -0.747, -169.915, -2.853, -3.147, -35.980, 26.67, 0.08588, -0.01981, 0.1554, -0.98386,
 14:53:23.397,ed:35:33:d3:6c:f8, 2015-01-01 00:24:08.915, 0.013, -0.308, 0.946, 0.183, 1.16, -0.122, -18.051, -0.742, -169.942, -2.853, -3.147, -35.980, 26.67, 0.08588, -0.01981, 0.1554, -0.98386,
 14:53:23.397,f6:90:cc:01:6d:25, 2015-01-01 00:24:08.835, 0.958, -0.204, 0.123, -0.183, 0.183, 0, -58.596, -76.058, -124.151, -31.847, -10.733, -4.600, 29.7, 0.05356, -0.65485, 0.09036, -0.74835,
 14:53:23.397,f6:90:cc:01:6d:25, 2015-01-01 00:24:08.835, 0.961, -0.202, 0.12, -0.488, 0.122, 0, -58.601, -76.058, -124.135, -31.847, -10.733, -4.600, 29.7, 0.05356, -0.65485, 0.09036, -0.74835,
 14:53:23.417,e3:ca:2d:fd:e0:8c, 2015-01-01 00:24:11.095, 0.987, -0.253, -0.089, -0.549, 0.061, 0, -109.781, -74.85, -95.438, -28.887, -9.233, -6.027, 27.49, 0.06055, 0.69568, -0.24527, 0.67239,
 14:53:23.417,e3:ca:2d:fd:e0:8c, 2015-01-01 00:24:11.095, 0.988, -0.254, -0.092, -0.549, 0.183, 0, -109.781, -74.85, -95.455, -28.887, -9.233, -6.027, 27.49, 0.06055, 0.69568, -0.24527, 0.67239,
 14:53:23.418,ed:40:fe:65:30:6c, 2015-01-01 00:24:10.445, 0.761, -0.181, 0.633, 0.122, 0.305, -0.122, -16.166, -49.032, -111.599, -24.640, -5.573, -2.320, 24.57, 0.45801, -0.41171, -0.12506, -0.7778,
 14:53:23.418,ed:40:fe:65:30:6c, 2015-01-01 00:24:10.445, 0.76, -0.183, 0.637, 0, 0.244, -0.061, -16.166, -49.026, -111.594, -24.640, -5.573, -2.320, 24.57, 0.45801, -0.41171, -0.12506, -0.7778,
 14:53:23.419,ed:35:33:d3:6c:f8, 2015-01-01 00:24:08.915, 0.006, -0.306, 0.955, 0.61, 0.977, -0.366, -18.045, -0.72, -169.964, -2.687, -3.073, -36.060, 26.67, 0.08588, -0.01981, 0.1554, -0.98386,
 14:53:23.419,ed:35:33:d3:6c:f8, 2015-01-01 00:24:08.915, 0.008, -0.303, 0.958, 0.671, 0.305, 0, -18.029, -0.709, -169.98, -2.687, -3.073, -36.060, 26.67, 0.08588, -0.01981, 0.1554, -0.98386,
 14:53:23.440,e3:ca:2d:fd:e0:8c, 2015-01-01 00:24:11.095, 0.988, -0.254, -0.092, 0, 0.122, 0, -109.77, -74.85, -95.466, -28.887, -9.233, -6.027, 27.49, 0.06064, 0.69559, -0.24557, 0.67236,
 14:53:23.440,e3:ca:2d:fd:e0:8c, 2015-01-01 00:24:11.095, 0.988, -0.252, -0.093, 0.061, 0.122, 0, -109.759, -74.85, -95.471, -28.887, -9.233, -6.027, 27.49, 0.06064, 0.69559, -0.24557, 0.67236,
 14:53:23.443,f6:90:cc:01:6d:25, 2015-01-01 00:24:08.835, 0.96, -0.206, 0.122, -0.244, 0, 0, -58.612, -76.058, -124.113, -31.847, -10.733, -4.600, 29.7, 0.05545, -0.65521, 0.08887, -0.74808,
 14:53:23.443,f6:90:cc:01:6d:25, 2015-01-01 00:24:08.835, 0.96, -0.204, 0.12, 0.122, 0, 0, -58.618, -76.058, -124.085, -31.847, -10.733, -4.600, 29.7, 0.05545, -0.65521, 0.08887, -0.74808,
 14:53:23.464,ed:40:fe:65:30:6c, 2015-01-01 00:24:10.445, 0.762, -0.186, 0.637, 0.122, 0, 0, -16.161, -49.026, -111.594, -24.640, -5.573, -2.320, 24.57, 0.45801, -0.41171, -0.12506, -0.7778,
 14:53:23.464,ed:40:fe:65:30:6c, 2015-01-01 00:24:10.445, 0.76, -0.185, 0.634, 0.122, -0.244, 0.122, -16.161, -49.026, -111.583, -24.640, -5.573, -2.320, 24.57, 0.45801, -0.41171, -0.12506, -0.7778,
 14:53:23.465,ed:35:33:d3:6c:f8, 2015-01-01 00:24:08.915, 0.012, -0.307, 0.957, -0.122, -0.61, 0, -18.018, -0.709, -169.991, -2.687, -3.073, -36.060, 26.67, 0.08588, -0.01981, 0.1554, -0.98386,
 14:53:23.465,ed:35:33:d3:6c:f8, 2015-01-01 00:24:08.915, 0.014, -0.307, 0.952, -0.61, -0.732, -0.366, -18.023, -0.72, -169.997, -2.687, -3.073, -36.060, 26.67, 0.08588, -0.01981, 0.1554, -0.98386,
 14:53:23.467,f6:90:cc:01:6d:25, 2015-01-01 00:24:09.125, 0.959, -0.205, 0.119, 0.183, 0, 0, -58.623, -76.058, -124.058, -31.847, -10.733, -4.600, 29.7, 0.05545, -0.65521, 0.08887, -0.74808,
 14:53:23.467,f6:90:cc:01:6d:25, 2015-01-01 00:24:09.125, 0.958, -0.202, 0.12, 0, -0.061, 0, -58.634, -76.058, -124.03, -31.847, -10.733, -4.600, 29.7, 0.05545, -0.65521, 0.08887, -0.74808,
 14:53:23.485,ed:40:fe:65:30:6c, 2015-01-01 00:24:10.780, 0.759, -0.183, 0.633, 0.122, -0.305, 0.061, -16.166, -49.032, -111.572, -24.640, -5.573, -2.320, 24.57, 0.45801, -0.41171, -0.12506, -0.7778,
 14:53:23.485,ed:40:fe:65:30:6c, 2015-01-01 00:24:10.780, 0.759, -0.184, 0.632, 0, -0.122, -0.061, -16.166, -49.037, -111.566, -24.640, -5.573, -2.320, 24.57, 0.45801, -0.41171, -0.12506, -0.7778,
 14:53:23.485,e3:ca:2d:fd:e0:8c, 2015-01-01 00:24:11.095, 0.987, -0.251, -0.093, -0.122, 0.122, 0, -109.753, -74.85, -95.482, -28.887, -9.233, -6.027, 27.49, 0.06064, 0.69559, -0.24557, 0.67236,
 14:53:23.485,e3:ca:2d:fd:e0:8c, 2015-01-01 00:24:11.095, 0.986, -0.251, -0.091, -0.244, 0.122, 0, -109.753, -74.85, -95.493, -28.887, -9.233, -6.027, 27.49, 0.06064, 0.69559, -0.24557, 0.67236,
 14:53:23.508,ed:35:33:d3:6c:f8, 2015-01-01 00:24:08.915, 0.014, -0.308, 0.947, -0.488, -0.488, -0.488, -18.029, -0.731, -170.002, -2.687, -3.073, -36.060, 26.67, 0.08508, -0.01984, 0.15549, -0.98392,
 14:53:23.508,ed:35:33:d3:6c:f8, 2015-01-01 00:24:08.915, 0.014, -0.309, 0.946, -0.183, 0, -0.366, -18.034, -0.742, -170.013, -2.687, -3.073, -36.060, 26.67, 0.08508, -0.01984, 0.15549, -0.98392,
 14:53:23.512,f6:90:cc:01:6d:25, 2015-01-01 00:24:09.125, 0.958, -0.202, 0.121, -0.183, -0.061, 0, -58.651, -76.058, -124.003, -31.847, -10.733, -4.600, 29.7, 0.05545, -0.65521, 0.08887, -0.74808,
 14:53:23.512,f6:90:cc:01:6d:25, 2015-01-01 00:24:09.125, 0.959, -0.203, 0.122, -0.305, -0.061, 0, -58.667, -76.064, -123.975, -31.847, -10.733, -4.600, 29.7, 0.05545, -0.65521, 0.08887, -0.74808,
 14:53:23.530,ed:40:fe:65:30:6c, 2015-01-01 00:24:10.780, 0.76, -0.184, 0.631, 0, 0, -0.183, -16.161, -49.037, -111.566, -24.640, -5.573, -2.320, 24.57, 0.45801, -0.41171, -0.12506, -0.7778,
 14:53:23.530,ed:40:fe:65:30:6c, 2015-01-01 00:24:10.780, 0.76, -0.186, 0.633, 0, 0.122, 0, -16.161, -49.037, -111.561, -24.640, -5.573, -2.320, 24.57, 0.45801, -0.41171, -0.12506, -0.7778,
 14:53:23.530,e3:ca:2d:fd:e0:8c, 2015-01-01 00:24:11.450, 0.986, -0.251, -0.091, -0.244, 0.183, 0, -109.748, -74.85, -95.504, -28.887, -9.233, -6.027, 27.49, 0.06064, 0.69559, -0.24557, 0.67236,
 14:53:23.530,e3:ca:2d:fd:e0:8c, 2015-01-01 00:24:11.450, 0.987, -0.253, -0.089, -0.244, 0.244, 0, -109.737, -74.85, -95.521, -28.887, -9.233, -6.027, 27.49, 0.06064, 0.69559, -0.24557, 0.67236,
 14:53:23.555,ed:35:33:d3:6c:f8, 2015-01-01 00:24:08.915, 0.012, -0.307, 0.948, 0.183, 0.427, -0.305, -18.034, -0.742, -170.035, -2.687, -3.073, -36.060, 26.67, 0.08508, -0.01984, 0.15549, -0.98392,
 14:53:23.555,ed:35:33:d3:6c:f8, 2015-01-01 00:24:08.915, 0.011, -0.307, 0.951, 0.183, 0.366, -0.183, -18.034, -0.736, -170.057, -2.687, -3.073, -36.060, 26.67, 0.08508, -0.01984, 0.15549, -0.98392,
 14:53:23.555,f6:90:cc:01:6d:25, 2015-01-01 00:24:09.125, 0.959, -0.206, 0.122, -0.244, 0, 0, -58.678, -76.064, -123.953, -31.847, -10.733, -4.600, 29.7, 0.05545, -0.65521, 0.08887, -0.74808,
 14:53:23.555,f6:90:cc:01:6d:25, 2015-01-01 00:24:09.125, 0.959, -0.207, 0.122, -0.122, 0.122, 0, -58.683, -76.064, -123.931, -31.847, -10.733, -4.600, 29.7, 0.05545, -0.65521, 0.08887, -0.74808,
 14:53:23.574,e3:ca:2d:fd:e0:8c, 2015-01-01 00:24:11.450, 0.987, -0.254, -0.089, -0.305, 0.244, 0, -109.726, -74.85, -95.543, -28.887, -9.233, -6.027, 27.49, 0.06064, 0.69559, -0.24557, 0.67236,
 14:53:23.574,e3:ca:2d:fd:e0:8c, 2015-01-01 00:24:11.450, 0.987, -0.255, -0.089, -0.305, 0.183, 0, -109.72, -74.85, -95.554, -28.887, -9.233, -6.027, 27.49, 0.06064, 0.69559, -0.24557, 0.67236,
 14:53:23.575,ed:40:fe:65:30:6c, 2015-01-01 00:24:10.780, 0.759, -0.186, 0.635, 0.183, 0.061, 0, -16.161, -49.037, -111.561, -24.640, -5.573, -2.320, 24.57, 0.45801, -0.41171, -0.12506, -0.7778,
 14:53:23.575,ed:40:fe:65:30:6c, 2015-01-01 00:24:10.780, 0.758, -0.184, 0.636, 0.244, 0, 0, -16.155, -49.037, -111.555, -24.640, -5.573, -2.320, 24.57, 0.45801, -0.41171, -0.12506, -0.7778,
 14:53:23.577,ed:35:33:d3:6c:f8, 2015-01-01 00:24:09.250, 0.01, -0.305, 0.953, 0.122, 0.305, 0, -18.029, -0.731, -170.074, -2.687, -3.073, -36.060, 26.67, 0.08508, -0.01984, 0.15549, -0.98392,
 14:53:23.577,ed:35:33:d3:6c:f8, 2015-01-01 00:24:09.250, 0.01, -0.305, 0.953, 0.061, 0, 0.183, -18.023, -0.725, -170.09, -2.687, -3.073, -36.060, 26.67, 0.08508, -0.01984, 0.15549, -0.98392,
 14:53:23.601,f6:90:cc:01:6d:25, 2015-01-01 00:24:09.125, 0.959, -0.206, 0.122, 0, 0.183, 0, -58.678, -76.058, -123.92, -31.847, -10.733, -4.600, 29.7, 0.05545, -0.65521, 0.08887, -0.74808,
 14:53:23.601,f6:90:cc:01:6d:25, 2015-01-01 00:24:09.125, 0.958, -0.204, 0.123, 0.061, 0.183, 0, -58.672, -76.058, -123.915, -31.847, -10.733, -4.600, 29.7, 0.05545, -0.65521, 0.08887, -0.74808,
 14:53:23.619,e3:ca:2d:fd:e0:8c, 2015-01-01 00:24:11.450, 0.987, -0.253, -0.089, -0.061, 0.122, 0, -109.715, -74.85, -95.565, -28.887, -9.233, -6.027, 27.49, 0.06064, 0.69559, -0.24557, 0.67236,
 14:53:23.619,e3:ca:2d:fd:e0:8c, 2015-01-01 00:24:11.450, 0.987, -0.253, -0.089, 0, 0.061, 0, -109.709, -74.85, -95.57, -28.887, -9.233, -6.027, 27.49, 0.06064, 0.69559, -0.24557, 0.67236,
 14:53:23.621,ed:40:fe:65:30:6c, 2015-01-01 00:24:10.780, 0.76, -0.182, 0.635, 0.061, -0.061, 0, -16.155, -49.037, -111.55, -24.640, -5.573, -2.320, 24.57, 0.45801, -0.41171, -0.12506, -0.7778,
 14:53:23.621,ed:40:fe:65:30:6c, 2015-01-01 00:24:10.780, 0.759, -0.181, 0.634, 0, -0.061, 0, -16.155, -49.037, -111.544, -24.640, -5.573, -2.320, 24.57, 0.45801, -0.41171, -0.12506, -0.7778,
 14:53:23.622,ed:35:33:d3:6c:f8, 2015-01-01 00:24:09.250, 0.011, -0.304, 0.951, -0.244, 0.061, 0.122, -18.023, -0.72, -170.096, -2.687, -3.073, -36.060, 26.67, 0.08508, -0.01984, 0.15549, -0.98392,
 14:53:23.622,ed:35:33:d3:6c:f8, 2015-01-01 00:24:09.250, 0.01, -0.306, 0.951, -0.549, 0.244, -0.427, -18.023, -0.72, -170.112, -2.687, -3.073, -36.060, 26.67, 0.08508, -0.01984, 0.15549, -0.98392,
 14:53:23.641,e3:ca:2d:fd:e0:8c, 2015-01-01 00:24:11.450, 0.988, -0.251, -0.09, -0.061, 0.122, 0, -109.698, -74.85, -95.581, -28.887, -9.233, -6.027, 27.49, 0.06064, 0.69559, -0.24557, 0.67236,
 14:53:23.641,e3:ca:2d:fd:e0:8c, 2015-01-01 00:24:11.450, 0.987, -0.252, -0.091, -0.122, 0.122, 0, -109.693, -74.85, -95.587, -28.887, -9.233, -6.027, 27.49, 0.06064, 0.69559, -0.24557, 0.67236,
 14:53:23.648,f6:90:cc:01:6d:25, 2015-01-01 00:24:09.125, 0.959, -0.202, 0.121, -0.122, 0.183, 0, -58.667, -76.058, -123.904, -31.847, -10.733, -4.600, 29.7, 0.05545, -0.65521, 0.08887, -0.74808,
 14:53:23.648,f6:90:cc:01:6d:25, 2015-01-01 00:24:09.125, 0.958, -0.204, 0.122, -0.244, 0.183, 0, -58.667, -76.053, -123.893, -31.847, -10.733, -4.600, 29.7, 0.05545, -0.65521, 0.08887, -0.74808,
 14:53:23.667,ed:40:fe:65:30:6c, 2015-01-01 00:24:10.780, 0.76, -0.182, 0.634, -0.061, -0.061, 0, -16.155, -49.037, -111.539, -24.640, -5.573, -2.320, 24.57, 0.45801, -0.41171, -0.12506, -0.7778,
 14:53:23.667,ed:40:fe:65:30:6c, 2015-01-01 00:24:10.780, 0.76, -0.184, 0.635, -0.061, -0.061, 0, -16.155, -49.037, -111.533, -24.640, -5.573, -2.320, 24.57, 0.45801, -0.41171, -0.12506, -0.7778,
 14:53:23.668,ed:35:33:d3:6c:f8, 2015-01-01 00:24:09.250, 0.011, -0.305, 0.95, -0.305, 0.488, -0.488, -18.034, -0.714, -170.118, -2.687, -3.073, -36.060, 26.67, 0.08508, -0.01984, 0.15549, -0.98392,
 14:53:23.668,ed:35:33:d3:6c:f8, 2015-01-01 00:24:09.250, 0.011, -0.307, 0.952, -0.305, 0.061, 0.061, -18.034, -0.709, -170.118, -2.687, -3.073, -36.060, 26.67, 0.08508, -0.01984, 0.15549, -0.98392,
 14:53:23.668,f6:90:cc:01:6d:25, 2015-01-01 00:24:09.125, 0.959, -0.204, 0.122, -0.122, 0.061, 0, -58.672, -76.053, -123.876, -32.160, -10.900, -4.807, 29.7, 0.05545, -0.65521, 0.08887, -0.74808,
 14:53:23.668,f6:90:cc:01:6d:25, 2015-01-01 00:24:09.125, 0.959, -0.205, 0.121, 0, 0.061, 0, -58.672, -76.053, -123.86, -32.160, -10.900, -4.807, 29.7, 0.05545, -0.65521, 0.08887, -0.74808,
 14:53:23.687,e3:ca:2d:fd:e0:8c, 2015-01-01 00:24:11.450, 0.987, -0.253, -0.091, -0.122, 0, 0, -109.693, -74.85, -95.592, -28.887, -9.233, -6.027, 27.49, 0.06064, 0.69559, -0.24557, 0.67236,
 14:53:23.687,e3:ca:2d:fd:e0:8c, 2015-01-01 00:24:11.450, 0.986, -0.253, -0.091, -0.183, 0.061, 0, -109.693, -74.85, -95.592, -28.887, -9.233, -6.027, 27.49, 0.06064, 0.69559, -0.24557, 0.67236,
 14:53:23.688,ed:40:fe:65:30:6c, 2015-01-01 00:24:10.780, 0.761, -0.186, 0.635, 0.061, -0.122, 0, -16.155, -49.037, -111.528, -24.527, -5.627, -2.560, 24.57, 0.45801, -0.41171, -0.12506, -0.7778,
 14:53:23.688,ed:40:fe:65:30:6c, 2015-01-01 00:24:10.780, 0.761, -0.185, 0.632, 0.122, -0.122, 0, -16.155, -49.043, -111.522, -24.527, -5.627, -2.560, 24.57, 0.45801, -0.41171, -0.12506, -0.7778,
 14:53:23.690,ed:35:33:d3:6c:f8, 2015-01-01 00:24:09.250, 0.012, -0.308, 0.951, -0.305, -0.061, 0.061, -18.04, -0.709, -170.112, -2.687, -3.073, -36.060, 26.67, 0.08508, -0.01984, 0.15549, -0.98392,
 14:53:23.690,ed:35:33:d3:6c:f8, 2015-01-01 00:24:09.250, 0.011, -0.308, 0.95, -0.244, 0.244, -0.122, -18.045, -0.709, -170.101, -2.687, -3.073, -36.060, 26.67, 0.08508, -0.01984, 0.15549, -0.98392,
 14:53:23.714,f6:90:cc:01:6d:25, 2015-01-01 00:24:09.125, 0.959, -0.205, 0.12, 0.061, 0.061, 0, -58.678, -76.053, -123.843, -32.160, -10.900, -4.807, 29.7, 0.05545, -0.65521, 0.08887, -0.74808,
 14:53:23.714,f6:90:cc:01:6d:25, 2015-01-01 00:24:09.125, 0.958, -0.204, 0.12, 0, 0.122, 0, -58.672, -76.053, -123.827, -32.160, -10.900, -4.807, 29.7, 0.05545, -0.65521, 0.08887, -0.74808,
 14:53:23.755,ed:40:fe:65:30:6c, 2015-01-01 00:24:10.780, 0.759, -0.183, 0.633, 0.061, -0.122, 0, -16.155, -49.043, -111.517, -24.527, -5.627, -2.560, 24.57, 0.45801, -0.41171, -0.12506, -0.7778,
 14:53:23.755,ed:40:fe:65:30:6c, 2015-01-01 00:24:10.780, 0.76, -0.182, 0.633, 0, -0.061, 0, -16.155, -49.043, -111.511, -24.527, -5.627, -2.560, 24.57, 0.45801, -0.41171, -0.12506, -0.7778,
 14:53:23.755,e3:ca:2d:fd:e0:8c, 2015-01-01 00:24:11.450, 0.987, -0.252, -0.09, -0.122, 0.122, 0, -109.693, -74.85, -95.598, -28.887, -9.233, -6.027, 27.49, 0.06064, 0.69559, -0.24557, 0.67236,
 14:53:23.755,e3:ca:2d:fd:e0:8c, 2015-01-01 00:24:11.450, 0.988, -0.252, -0.09, -0.122, 0.183, 0, -109.688, -74.85, -95.609, -28.887, -9.233, -6.027, 27.49, 0.06064, 0.69559, -0.24557, 0.67236,
 14:53:23.757,ed:35:33:d3:6c:f8, 2015-01-01 00:24:09.250, 0.011, -0.306, 0.95, -0.122, 0.305, -0.122, -18.045, -0.703, -170.079, -2.687, -3.073, -36.060, 26.67, 0.08508, -0.01984, 0.15549, -0.98392,
 14:53:23.757,ed:35:33:d3:6c:f8, 2015-01-01 00:24:09.250, 0.011, -0.306, 0.95, -0.061, 0, 0.061, -18.045, -0.698, -170.074, -2.687, -3.073, -36.060, 26.67, 0.08508, -0.01984, 0.15549, -0.98392,
 14:53:23.759,f6:90:cc:01:6d:25, 2015-01-01 00:24:09.125, 0.959, -0.203, 0.122, -0.122, 0.122, 0, -58.678, -76.053, -123.816, -32.160, -10.900, -4.807, 29.7, 0.05701, -0.65546, 0.08765, -0.74789,
 14:53:23.759,f6:90:cc:01:6d:25, 2015-01-01 00:24:09.125, 0.959, -0.205, 0.123, -0.244, 0.061, 0, -58.683, -76.053, -123.799, -32.160, -10.900, -4.807, 29.7, 0.05701, -0.65546, 0.08765, -0.74789,
 14:53:23.777,e3:ca:2d:fd:e0:8c, 2015-01-01 00:24:11.450, 0.987, -0.252, -0.089, -0.122, 0.122, 0, -109.677, -74.85, -95.625, -28.707, -8.920, -4.987, 27.49, 0.06064, 0.69559, -0.24557, 0.67236,
 14:53:23.777,e3:ca:2d:fd:e0:8c, 2015-01-01 00:24:11.450, 0.987, -0.253, -0.089, -0.183, 0.061, 0, -109.677, -74.85, -95.63, -28.707, -8.920, -4.987, 27.49, 0.06064, 0.69559, -0.24557, 0.67236,
 14:53:23.778,ed:40:fe:65:30:6c, 2015-01-01 00:24:10.780, 0.759, -0.183, 0.635, 0, 0, 0, -16.155, -49.043, -111.506, -24.527, -5.627, -2.560, 24.57, 0.45862, -0.41162, -0.12555, -0.7774,
 14:53:23.778,ed:40:fe:65:30:6c, 2015-01-01 00:24:10.780, 0.759, -0.184, 0.635, 0.122, 0, 0, -16.15, -49.043, -111.506, -24.527, -5.627, -2.560, 24.57, 0.45862, -0.41162, -0.12555, -0.7774,
 14:53:23.779,ed:35:33:d3:6c:f8, 2015-01-01 00:24:09.250, 0.009, -0.307, 0.951, -0.061, 0.122, 0.122, -18.045, -0.698, -170.068, -2.960, -3.393, -36.260, 26.67, 0.08508, -0.01984, 0.15549, -0.98392,
 14:53:23.779,ed:35:33:d3:6c:f8, 2015-01-01 00:24:09.250, 0.01, -0.308, 0.951, -0.122, 0.122, -0.122, -18.045, -0.692, -170.057, -2.960, -3.393, -36.260, 26.67, 0.08508, -0.01984, 0.15549, -0.98392,
 14:53:23.804,f6:90:cc:01:6d:25, 2015-01-01 00:24:09.440, 0.959, -0.205, 0.123, -0.183, 0, 0, -58.694, -76.053, -123.777, -32.160, -10.900, -4.807, 29.7, 0.05701, -0.65546, 0.08765, -0.74789,
 14:53:23.804,f6:90:cc:01:6d:25, 2015-01-01 00:24:09.440, 0.958, -0.205, 0.123, -0.122, 0, 0, -58.7, -76.053, -123.761, -32.160, -10.900, -4.807, 29.7, 0.05701, -0.65546, 0.08765, -0.74789,
 14:53:23.822,ed:40:fe:65:30:6c, 2015-01-01 00:24:10.780, 0.759, -0.184, 0.634, 0.183, 0, 0, -16.15, -49.043, -111.5, -24.527, -5.627, -2.560, 24.57, 0.45862, -0.41162, -0.12555, -0.7774,
 14:53:23.822,ed:40:fe:65:30:6c, 2015-01-01 00:24:10.780, 0.761, -0.183, 0.634, 0.061, 0, 0, -16.144, -49.043, -111.495, -24.527, -5.627, -2.560, 24.57, 0.45862, -0.41162, -0.12555, -0.7774,
 14:53:23.822,e3:ca:2d:fd:e0:8c, 2015-01-01 00:24:11.450, 0.987, -0.252, -0.089, -0.061, 0.061, 0, -109.671, -74.85, -95.636, -28.707, -8.920, -4.987, 27.49, 0.06064, 0.69559, -0.24557, 0.67236,
 14:53:23.822,e3:ca:2d:fd:e0:8c, 2015-01-01 00:24:11.450, 0.988, -0.252, -0.089, -0.061, 0.061, 0, -109.671, -74.85, -95.641, -28.707, -8.920, -4.987, 27.49, 0.06064, 0.69559, -0.24557, 0.67236,
 14:53:23.825,ed:35:33:d3:6c:f8, 2015-01-01 00:24:09.250, 0.01, -0.308, 0.951, -0.061, 0.061, -0.427, -18.045, -0.692, -170.046, -2.960, -3.393, -36.260, 26.67, 0.08508, -0.01984, 0.15549, -0.98392,
 14:53:23.825,ed:35:33:d3:6c:f8, 2015-01-01 00:24:09.250, 0.011, -0.306, 0.951, -0.061, 0, -0.366, -18.045, -0.692, -170.035, -2.960, -3.393, -36.260, 26.67, 0.08508, -0.01984, 0.15549, -0.98392,
 14:53:23.845,e3:ca:2d:fd:e0:8c, 2015-01-01 00:24:11.450, 0.988, -0.251, -0.09, 0, 0, 0, -109.666, -74.85, -95.647, -28.707, -8.920, -4.987, 27.49, 0.06107, 0.69525, -0.24606, 0.67249,
 14:53:23.845,e3:ca:2d:fd:e0:8c, 2015-01-01 00:24:11.450, 0.987, -0.251, -0.09, 0, 0, 0, -109.666, -74.85, -95.647, -28.707, -8.920, -4.987, 27.49, 0.06107, 0.69525, -0.24606, 0.67249,
 14:53:23.848,f6:90:cc:01:6d:25, 2015-01-01 00:24:09.440, 0.959, -0.204, 0.122, -0.061, 0, 0, -58.705, -76.053, -123.739, -32.160, -10.900, -4.807, 29.7, 0.05701, -0.65546, 0.08765, -0.74789,
 14:53:23.848,f6:90:cc:01:6d:25, 2015-01-01 00:24:09.440, 0.959, -0.203, 0.122, -0.122, 0, 0, -58.716, -76.053, -123.717, -32.160, -10.900, -4.807, 29.7, 0.05701, -0.65546, 0.08765, -0.74789,
 14:53:23.868,ed:40:fe:65:30:6c, 2015-01-01 00:24:11.140, 0.759, -0.182, 0.634, -0.061, -0.061, 0, -16.15, -49.043, -111.489, -24.527, -5.627, -2.560, 24.57, 0.45862, -0.41162, -0.12555, -0.7774,
 14:53:23.868,ed:40:fe:65:30:6c, 2015-01-01 00:24:11.140, 0.758, -0.181, 0.636, -0.183, -0.061, 0, -16.15, -49.043, -111.484, -24.527, -5.627, -2.560, 24.57, 0.45862, -0.41162, -0.12555, -0.7774,
 14:53:23.870,f6:90:cc:01:6d:25, 2015-01-01 00:24:09.440, 0.959, -0.203, 0.122, -0.122, 0.061, 0, -58.716, -76.053, -123.706, -32.160, -10.900, -4.807, 29.7, 0.05701, -0.65546, 0.08765, -0.74789,
 14:53:23.870,f6:90:cc:01:6d:25, 2015-01-01 00:24:09.440, 0.958, -0.203, 0.122, -0.122, 0, 0, -58.722, -76.053, -123.684, -32.160, -10.900, -4.807, 29.7, 0.05701, -0.65546, 0.08765, -0.74789,
 14:53:23.889,e3:ca:2d:fd:e0:8c, 2015-01-01 00:24:11.450, 0.987, -0.252, -0.09, -0.061, 0, 0, -109.666, -74.85, -95.647, -28.707, -8.920, -4.987, 27.49, 0.06107, 0.69525, -0.24606, 0.67249,
 14:53:23.889,e3:ca:2d:fd:e0:8c, 2015-01-01 00:24:11.450, 0.986, -0.252, -0.089, -0.122, 0, 0, -109.666, -74.85, -95.647, -28.707, -8.920, -4.987, 27.49, 0.06107, 0.69525, -0.24606, 0.67249,
 14:53:23.890,ed:40:fe:65:30:6c, 2015-01-01 00:24:11.140, 0.759, -0.183, 0.636, -0.183, -0.122, 0, -16.155, -49.048, -111.478, -24.527, -5.627, -2.560, 24.57, 0.45862, -0.41162, -0.12555, -0.7774,
 14:53:23.890,ed:40:fe:65:30:6c, 2015-01-01 00:24:11.140, 0.761, -0.184, 0.634, -0.122, -0.122, 0, -16.155, -49.048, -111.473, -24.527, -5.627, -2.560, 24.57, 0.45862, -0.41162, -0.12555, -0.7774,
 14:53:23.891,ed:35:33:d3:6c:f8, 2015-01-01 00:24:09.250, 0.009, -0.305, 0.952, 0.061, -0.061, -0.244, -18.04, -0.692, -170.03, -2.960, -3.393, -36.260, 26.67, 0.08478, -0.01956, 0.1557, -0.98392,
 14:53:23.891,ed:35:33:d3:6c:f8, 2015-01-01 00:24:09.250, 0.011, -0.305, 0.952, 0.061, -0.244, -0.427, -18.04, -0.698, -170.03, -2.960, -3.393, -36.260, 26.67, 0.08478, -0.01956, 0.1557, -0.98392,
 14:53:23.914,ed:35:33:d3:6c:f8, 2015-01-01 00:24:09.250, 0.011, -0.306, 0.949, -0.122, -0.244, -0.977, -18.034, -0.703, -170.03, -2.960, -3.393, -36.260, 26.67, 0.08478, -0.01956, 0.1557, -0.98392,
 14:53:23.914,ed:35:33:d3:6c:f8, 2015-01-01 00:24:09.250, 0.013, -0.31, 0.95, -0.488, 0.366, -1.282, -18.04, -0.709, -170.046, -2.960, -3.393, -36.260, 26.67, 0.08478, -0.01956, 0.1557, -0.98392,
 14:53:23.916,f6:90:cc:01:6d:25, 2015-01-01 00:24:09.440, 0.959, -0.206, 0.122, -0.122, -0.122, 0, -58.738, -76.053, -123.657, -32.160, -10.900, -4.807, 29.7, 0.05701, -0.65546, 0.08765, -0.74789,
 14:53:23.916,f6:90:cc:01:6d:25, 2015-01-01 00:24:09.440, 0.959, -0.205, 0.121, -0.183, -0.122, 0, -58.755, -76.058, -123.629, -32.160, -10.900, -4.807, 29.7, 0.05701, -0.65546, 0.08765, -0.74789,
 14:53:23.935,e3:ca:2d:fd:e0:8c, 2015-01-01 00:24:11.855, 0.987, -0.253, -0.089, -0.122, 0, 0, -109.671, -74.85, -95.647, -28.707, -8.920, -4.987, 27.49, 0.06107, 0.69525, -0.24606, 0.67249,
 14:53:23.935,e3:ca:2d:fd:e0:8c, 2015-01-01 00:24:11.855, 0.986, -0.253, -0.088, -0.061, 0, 0, -109.671, -74.85, -95.647, -28.707, -8.920, -4.987, 27.49, 0.06107, 0.69525, -0.24606, 0.67249,
 14:53:23.937,ed:40:fe:65:30:6c, 2015-01-01 00:24:11.140, 0.761, -0.186, 0.632, 0, -0.122, 0, -16.155, -49.048, -111.473, -24.527, -5.627, -2.560, 24.57, 0.45862, -0.41162, -0.12555, -0.7774,
 14:53:23.937,ed:40:fe:65:30:6c, 2015-01-01 00:24:11.140, 0.759, -0.189, 0.631, 0.061, -0.061, 0, -16.155, -49.048, -111.467, -24.527, -5.627, -2.560, 24.57, 0.45862, -0.41162, -0.12555, -0.7774,
 14:53:23.959,ed:35:33:d3:6c:f8, 2015-01-01 00:24:09.250, 0.012, -0.31, 0.95, 0, 0.305, -0.854, -18.04, -0.709, -170.074, -2.960, -3.393, -36.260, 26.67, 0.08478, -0.01956, 0.1557, -0.98392,
 14:53:23.959,ed:35:33:d3:6c:f8, 2015-01-01 00:24:09.250, 0.011, -0.311, 0.947, 0.305, 0, 0, -18.04, -0.709, -170.09, -2.960, -3.393, -36.260, 26.67, 0.08478, -0.01956, 0.1557, -0.98392,
 14:53:23.963,f6:90:cc:01:6d:25, 2015-01-01 00:24:09.440, 0.958, -0.205, 0.121, -0.122, 0, 0, -58.766, -76.058, -123.613, -32.160, -10.900, -4.807, 29.7, 0.05701, -0.65546, 0.08765, -0.74789,
 14:53:23.963,f6:90:cc:01:6d:25, 2015-01-01 00:24:09.440, 0.958, -0.205, 0.123, -0.122, 0.183, 0, -58.76, -76.053, -123.607, -32.160, -10.900, -4.807, 29.7, 0.05701, -0.65546, 0.08765, -0.74789,
 14:53:23.982,ed:35:33:d3:6c:f8, 2015-01-01 00:24:09.250, 0.013, -0.305, 0.95, 0.61, 0.732, 0, -18.029, -0.703, -170.09, -2.960, -3.393, -36.260, 26.73, 0.08478, -0.01956, 0.1557, -0.98392,
 14:53:23.982,ed:35:33:d3:6c:f8, 2015-01-01 00:24:09.250, 0.011, -0.301, 0.955, 0.183, 0.366, -0.244, -18.018, -0.692, -170.09, -2.960, -3.393, -36.260, 26.73, 0.08478, -0.01956, 0.1557, -0.98392,
 14:53:24.003,e3:ca:2d:fd:e0:8c, 2015-01-01 00:24:11.855, 0.987, -0.253, -0.088, -0.244, 0, 0, -109.671, -74.85, -95.647, -28.707, -8.920, -4.987, 27.49, 0.06107, 0.69525, -0.24606, 0.67249,
 14:53:24.003,e3:ca:2d:fd:e0:8c, 2015-01-01 00:24:11.855, 0.989, -0.254, -0.092, -0.427, 0.061, 0, -109.671, -74.844, -95.647, -28.707, -8.920, -4.987, 27.49, 0.06107, 0.69525, -0.24606, 0.67249,
 14:53:24.004,ed:40:fe:65:30:6c, 2015-01-01 00:24:11.140, 0.76, -0.185, 0.633, 0, 0.061, 0, -16.155, -49.048, -111.462, -24.527, -5.627, -2.560, 24.57, 0.45862, -0.41162, -0.12555, -0.7774,
 14:53:24.004,ed:40:fe:65:30:6c, 2015-01-01 00:24:11.140, 0.764, -0.18, 0.634, 0, 0.183, 0, -16.155, -49.043, -111.462, -24.527, -5.627, -2.560, 24.57, 0.45862, -0.41162, -0.12555, -0.7774,
 14:53:24.006,f6:90:cc:01:6d:25, 2015-01-01 00:24:09.440, 0.961, -0.204, 0.12, -0.366, 0.183, 0, -58.76, -76.053, -123.602, -32.193, -10.673, -5.087, 29.7, 0.05701, -0.65546, 0.08765, -0.74789,
 14:53:24.006,f6:90:cc:01:6d:25, 2015-01-01 00:24:09.440, 0.96, -0.206, 0.12, 0.488, 0, 0, -58.766, -76.053, -123.58, -32.193, -10.673, -5.087, 29.7, 0.05701, -0.65546, 0.08765, -0.74789,
 14:53:24.024,e3:ca:2d:fd:e0:8c, 2015-01-01 00:24:11.855, 0.988, -0.254, -0.092, -0.122, 0, 0, -109.677, -74.844, -95.652, -28.707, -8.920, -4.987, 27.49, 0.06107, 0.69525, -0.24606, 0.67249,
 14:53:24.024,e3:ca:2d:fd:e0:8c, 2015-01-01 00:24:11.855, 0.988, -0.253, -0.093, 0.061, 0, 0, -109.677, -74.844, -95.652, -28.707, -8.920, -4.987, 27.49, 0.06107, 0.69525, -0.24606, 0.67249,
 14:53:24.028,f6:90:cc:01:6d:25, 2015-01-01 00:24:09.440, 0.958, -0.206, 0.118, 0.793, 0, 0, -58.766, -76.053, -123.563, -32.193, -10.673, -5.087, 29.7, 0.0582, -0.6557, 0.0867, -0.74768,
 14:53:24.028,f6:90:cc:01:6d:25, 2015-01-01 00:24:09.440, 0.958, -0.202, 0.119, 0.61, 0, 0, -58.755, -76.053, -123.547, -32.193, -10.673, -5.087, 29.7, 0.0582, -0.6557, 0.0867, -0.74768,
 14:53:24.028,ed:35:33:d3:6c:f8, 2015-01-01 00:24:09.250, 0.011, -0.298, 0.958, 0.122, 0.488, 0.061, -18.012, -0.681, -170.096, -2.960, -3.393, -36.260, 26.73, 0.08478, -0.01956, 0.1557, -0.98392,
 14:53:24.028,ed:35:33:d3:6c:f8, 2015-01-01 00:24:09.250, 0.011, -0.301, 0.957, -0.61, -0.061, 0.366, -18.018, -0.676, -170.096, -2.960, -3.393, -36.260, 26.73, 0.08478, -0.01956, 0.1557, -0.98392,
 14:53:24.047,e3:ca:2d:fd:e0:8c, 2015-01-01 00:24:11.855, 0.987, -0.252, -0.092, 0.122, 0, 0, -109.677, -74.844, -95.652, -28.707, -8.920, -4.987, 27.49, 0.06107, 0.69525, -0.24606, 0.67249,
 14:53:24.047,e3:ca:2d:fd:e0:8c, 2015-01-01 00:24:11.855, 0.987, -0.25, -0.091, 0.061, 0.061, 0, -109.671, -74.844, -95.652, -28.707, -8.920, -4.987, 27.49, 0.06107, 0.69525, -0.24606, 0.67249,
 14:53:24.048,ed:40:fe:65:30:6c, 2015-01-01 00:24:11.140, 0.762, -0.181, 0.635, 0, 0.061, 0, -16.155, -49.043, -111.456, -24.527, -5.627, -2.560, 24.57, 0.45862, -0.41162, -0.12555, -0.7774,
 14:53:24.048,ed:40:fe:65:30:6c, 2015-01-01 00:24:11.140, 0.761, -0.183, 0.636, 0.183, 0, 0.488, -16.161, -49.043, -111.44, -24.527, -5.627, -2.560, 24.57, 0.45862, -0.41162, -0.12555, -0.7774,
 14:53:24.050,ed:35:33:d3:6c:f8, 2015-01-01 00:24:09.740, 0.009, -0.308, 0.951, -0.916, -0.61, 0.244, -18.029, -0.681, -170.096, -2.960, -3.393, -36.260, 26.73, 0.08478, -0.01956, 0.1557, -0.98392,
 14:53:24.050,ed:35:33:d3:6c:f8, 2015-01-01 00:24:09.740, 0.011, -0.314, 0.947, -0.549, -0.671, 0.488, -18.04, -0.692, -170.096, -2.960, -3.393, -36.260, 26.73, 0.08478, -0.01956, 0.1557, -0.98392,
 14:53:24.070,ed:40:fe:65:30:6c, 2015-01-01 00:24:11.140, 0.759, -0.182, 0.633, 0.305, -0.183, 0.854, -16.177, -49.037, -111.407, -23.767, -5.220, -2.540, 24.57, 0.45862, -0.41162, -0.12555, -0.7774,
 14:53:24.070,ed:40:fe:65:30:6c, 2015-01-01 00:24:11.140, 0.759, -0.184, 0.633, 0.183, -0.122, 0.732, -16.188, -49.037, -111.385, -23.767, -5.220, -2.540, 24.57, 0.45862, -0.41162, -0.12555, -0.7774,
 14:53:24.073,f6:90:cc:01:6d:25, 2015-01-01 00:24:09.440, 0.958, -0.203, 0.121, 0.061, -0.061, 0, -58.76, -76.053, -123.53, -32.193, -10.673, -5.087, 29.7, 0.0582, -0.6557, 0.0867, -0.74768,
 14:53:24.073,f6:90:cc:01:6d:25, 2015-01-01 00:24:09.440, 0.959, -0.203, 0.122, -0.183, -0.061, 0, -58.771, -76.053, -123.508, -32.193, -10.673, -5.087, 29.7, 0.0582, -0.6557, 0.0867, -0.74768,
 14:53:24.092,e3:ca:2d:fd:e0:8c, 2015-01-01 00:24:11.855, 0.988, -0.25, -0.09, -0.061, 0.061, 0, -109.671, -74.844, -95.658, -28.707, -8.920, -4.987, 27.49, 0.06107, 0.69525, -0.24606, 0.67249,
 14:53:24.092,e3:ca:2d:fd:e0:8c, 2015-01-01 00:24:11.855, 0.987, -0.251, -0.089, -0.183, 0.122, 0, -109.671, -74.844, -95.663, -28.707, -8.920, -4.987, 27.49, 0.06107, 0.69525, -0.24606, 0.67249,
 14:53:24.094,ed:35:33:d3:6c:f8, 2015-01-01 00:24:09.740, 0.012, -0.313, 0.946, -0.183, -0.244, 0.427, -18.045, -0.698, -170.096, -2.960, -3.393, -36.260, 26.73, 0.08478, -0.01956, 0.1557, -0.98392,
 14:53:24.094,ed:35:33:d3:6c:f8, 2015-01-01 00:24:09.740, 0.01, -0.31, 0.948, 0.122, 0.244, 0.061, -18.045, -0.692, -170.096, -2.960, -3.393, -36.260, 26.73, 0.08478, -0.01956, 0.1557, -0.98392,
 14:53:24.116,ed:40:fe:65:30:6c, 2015-01-01 00:24:11.140, 0.76, -0.188, 0.632, 0, -0.061, 0.305, -16.194, -49.037, -111.368, -23.767, -5.220, -2.540, 24.57, 0.45862, -0.41162, -0.12555, -0.7774,
 14:53:24.116,ed:40:fe:65:30:6c, 2015-01-01 00:24:11.140, 0.76, -0.186, 0.632, 0, 0, 0, -16.194, -49.037, -111.368, -23.767, -5.220, -2.540, 24.57, 0.45862, -0.41162, -0.12555, -0.7774,
 14:53:24.118,f6:90:cc:01:6d:25, 2015-01-01 00:24:09.730, 0.959, -0.205, 0.121, -0.122, 0, 0, -58.782, -76.058, -123.486, -32.193, -10.673, -5.087, 29.7, 0.0582, -0.6557, 0.0867, -0.74768,
 14:53:24.118,f6:90:cc:01:6d:25, 2015-01-01 00:24:09.730, 0.958, -0.205, 0.122, 0, 0.122, 0, -58.788, -76.058, -123.47, -32.193, -10.673, -5.087, 29.7, 0.0582, -0.6557, 0.0867, -0.74768,
 14:53:24.139,ed:35:33:d3:6c:f8, 2015-01-01 00:24:09.740, 0.008, -0.308, 0.95, 0.305, 0.305, -0.122, -18.04, -0.687, -170.112, -2.960, -3.393, -36.260, 26.73, 0.08478, -0.01956, 0.1557, -0.98392,
 14:53:24.139,ed:35:33:d3:6c:f8, 2015-01-01 00:24:09.740, 0.007, -0.307, 0.951, 0.305, 0.061, -0.122, -18.029, -0.687, -170.123, -2.960, -3.393, -36.260, 26.73, 0.08478, -0.01956, 0.1557, -0.98392,
 14:53:24.139,ed:40:fe:65:30:6c, 2015-01-01 00:24:11.140, 0.759, -0.185, 0.633, 0.061, 0, -0.061, -16.194, -49.037, -111.363, -23.767, -5.220, -2.540, 24.57, 0.45947, -0.41159, -0.12573, -0.77689,
 14:53:24.139,ed:40:fe:65:30:6c, 2015-01-01 00:24:11.140, 0.759, -0.185, 0.635, 0.183, 0.122, -0.061, -16.188, -49.037, -111.363, -23.767, -5.220, -2.540, 24.57, 0.45947, -0.41159, -0.12573, -0.77689,
 14:53:24.161,e3:ca:2d:fd:e0:8c, 2015-01-01 00:24:11.855, 0.987, -0.252, -0.088, -0.183, 0.061, 0, -109.666, -74.844, -95.674, -28.587, -9.093, -5.640, 27.49, 0.06107, 0.69525, -0.24606, 0.67249,
 14:53:24.161,e3:ca:2d:fd:e0:8c, 2015-01-01 00:24:11.855, 0.987, -0.252, -0.087, -0.061, 0.061, 0, -109.666, -74.844, -95.68, -28.587, -9.093, -5.640, 27.49, 0.06107, 0.69525, -0.24606, 0.67249,
 14:53:24.164,f6:90:cc:01:6d:25, 2015-01-01 00:24:09.730, 0.958, -0.206, 0.124, 0.061, 0.122, 0, -58.788, -76.053, -123.464, -32.193, -10.673, -5.087, 29.7, 0.0582, -0.6557, 0.0867, -0.74768,
 14:53:24.164,f6:90:cc:01:6d:25, 2015-01-01 00:24:09.730, 0.958, -0.204, 0.124, 0, 0.061, 0, -58.788, -76.053, -123.453, -32.193, -10.673, -5.087, 29.7, 0.0582, -0.6557, 0.0867, -0.74768,
 14:53:24.183,e3:ca:2d:fd:e0:8c, 2015-01-01 00:24:11.855, 0.987, -0.253, -0.087, 0, 0.061, 0, -109.66, -74.844, -95.685, -28.587, -9.093, -5.640, 27.49, 0.06125, 0.69516, -0.24634, 0.67245,
 14:53:24.183,e3:ca:2d:fd:e0:8c, 2015-01-01 00:24:11.855, 0.987, -0.252, -0.086, 0, 0, 0, -109.655, -74.844, -95.685, -28.587, -9.093, -5.640, 27.49, 0.06125, 0.69516, -0.24634, 0.67245,
 14:53:24.185,ed:40:fe:65:30:6c, 2015-01-01 00:24:11.140, 0.757, -0.184, 0.636, 0.244, 0, -0.061, -16.183, -49.037, -111.363, -23.767, -5.220, -2.540, 24.57, 0.45947, -0.41159, -0.12573, -0.77689,
 14:53:24.185,ed:40:fe:65:30:6c, 2015-01-01 00:24:11.140, 0.758, -0.181, 0.636, -0.061, 0, -0.061, -16.183, -49.037, -111.363, -23.767, -5.220, -2.540, 24.57, 0.45947, -0.41159, -0.12573, -0.77689,
 14:53:24.185,ed:35:33:d3:6c:f8, 2015-01-01 00:24:09.740, 0.008, -0.304, 0.954, 0.366, 0, 0.183, -18.023, -0.681, -170.14, -2.960, -3.393, -36.260, 26.73, 0.08478, -0.01956, 0.1557, -0.98392,
 14:53:24.185,ed:35:33:d3:6c:f8, 2015-01-01 00:24:09.740, 0.011, -0.307, 0.948, 0.244, -0.488, 0, -18.018, -0.687, -170.14, -2.960, -3.393, -36.260, 26.73, 0.08478, -0.01956, 0.1557, -0.98392,
 14:53:24.209,f6:90:cc:01:6d:25, 2015-01-01 00:24:09.730, 0.958, -0.202, 0.124, -0.244, 0.061, 0, -58.788, -76.053, -123.442, -32.193, -10.673, -5.087, 29.7, 0.0582, -0.6557, 0.0867, -0.74768,
 14:53:24.209,f6:90:cc:01:6d:25, 2015-01-01 00:24:09.730, 0.959, -0.204, 0.123, -0.427, 0.122, 0, -58.793, -76.053, -123.431, -32.193, -10.673, -5.087, 29.7, 0.0582, -0.6557, 0.0867, -0.74768,
 14:53:24.227,ed:40:fe:65:30:6c, 2015-01-01 00:24:11.495, 0.759, -0.183, 0.633, -0.061, 0, -0.244, -16.177, -49.037, -111.363, -23.767, -5.220, -2.540, 24.57, 0.45947, -0.41159, -0.12573, -0.77689,
 14:53:24.227,ed:40:fe:65:30:6c, 2015-01-01 00:24:11.495, 0.759, -0.182, 0.634, -0.183, 0, -0.305, -16.177, -49.037, -111.368, -23.767, -5.220, -2.540, 24.57, 0.45947, -0.41159, -0.12573, -0.77689,
 14:53:24.227,e3:ca:2d:fd:e0:8c, 2015-01-01 00:24:11.855, 0.987, -0.251, -0.088, 0, -0.061, 0, -109.655, -74.844, -95.685, -28.587, -9.093, -5.640, 27.49, 0.06125, 0.69516, -0.24634, 0.67245,
 14:53:24.227,e3:ca:2d:fd:e0:8c, 2015-01-01 00:24:11.855, 0.987, -0.251, -0.089, -0.122, -0.122, 0, -109.66, -74.844, -95.68, -28.587, -9.093, -5.640, 27.49, 0.06125, 0.69516, -0.24634, 0.67245,
 14:53:24.230,f6:90:cc:01:6d:25, 2015-01-01 00:24:09.730, 0.958, -0.205, 0.122, -0.366, 0.061, 0, -58.793, -76.053, -123.426, -32.193, -10.673, -5.087, 29.7, 0.0582, -0.6557, 0.0867, -0.74768,
 14:53:24.230,f6:90:cc:01:6d:25, 2015-01-01 00:24:09.730, 0.96, -0.207, 0.12, -0.244, 0, 0, -58.804, -76.053, -123.415, -32.193, -10.673, -5.087, 29.7, 0.0582, -0.6557, 0.0867, -0.74768,
 14:53:24.249,e3:ca:2d:fd:e0:8c, 2015-01-01 00:24:12.190, 0.987, -0.252, -0.09, -0.183, -0.122, 0, -109.666, -74.844, -95.674, -28.587, -9.093, -5.640, 27.49, 0.06125, 0.69516, -0.24634, 0.67245,
 14:53:24.249,e3:ca:2d:fd:e0:8c, 2015-01-01 00:24:12.190, 0.988, -0.254, -0.092, -0.305, -0.061, 0, -109.677, -74.844, -95.663, -28.587, -9.093, -5.640, 27.49, 0.06125, 0.69516, -0.24634, 0.67245,
 14:53:24.250,ed:40:fe:65:30:6c, 2015-01-01 00:24:11.495, 0.76, -0.182, 0.635, -0.366, 0.122, -0.244, -16.177, -49.037, -111.374, -23.767, -5.220, -2.540, 24.57, 0.45947, -0.41159, -0.12573, -0.77689,
 14:53:24.250,ed:40:fe:65:30:6c, 2015-01-01 00:24:11.495, 0.762, -0.187, 0.636, -0.305, 0, -0.061, -16.183, -49.037, -111.374, -23.767, -5.220, -2.540, 24.57, 0.45947, -0.41159, -0.12573, -0.77689,
 14:53:24.252,ed:35:33:d3:6c:f8, 2015-01-01 00:24:09.740, 0.012, -0.308, 0.947, -0.122, 0, -0.488, -18.012, -0.687, -170.145, -2.960, -3.393, -36.260, 26.73, 0.08478, -0.01956, 0.1557, -0.98392,
 14:53:24.252,ed:35:33:d3:6c:f8, 2015-01-01 00:24:09.740, 0.007, -0.304, 0.948, 0.183, 0.427, -0.793, -18.012, -0.687, -170.162, -2.960, -3.393, -36.260, 26.73, 0.08478, -0.01956, 0.1557, -0.98392,
 14:53:24.274,ed:35:33:d3:6c:f8, 2015-01-01 00:24:09.740, 0.007, -0.304, 0.956, -0.061, 0.183, -0.427, -18.007, -0.687, -170.173, -2.860, -3.147, -36.520, 26.73, 0.08478, -0.01956, 0.1557, -0.98392,
 14:53:24.274,ed:35:33:d3:6c:f8, 2015-01-01 00:24:09.740, 0.01, -0.308, 0.955, -0.488, -0.183, -0.366, -18.012, -0.687, -170.173, -2.860, -3.147, -36.520, 26.73, 0.08478, -0.01956, 0.1557, -0.98392,
 14:53:24.276,f6:90:cc:01:6d:25, 2015-01-01 00:24:09.730, 0.96, -0.207, 0.119, -0.061, 0, 0, -58.81, -76.053, -123.398, -32.193, -10.673, -5.087, 29.7, 0.0582, -0.6557, 0.0867, -0.74768,
 14:53:24.276,f6:90:cc:01:6d:25, 2015-01-01 00:24:09.730, 0.96, -0.207, 0.119, -0.061, -0.061, 0, -58.821, -76.053, -123.382, -32.193, -10.673, -5.087, 29.7, 0.0582, -0.6557, 0.0867, -0.74768,
 14:53:24.294,e3:ca:2d:fd:e0:8c, 2015-01-01 00:24:12.190, 0.988, -0.254, -0.092, -0.183, 0, 0, -109.682, -74.839, -95.663, -28.587, -9.093, -5.640, 27.49, 0.06125, 0.69516, -0.24634, 0.67245,
 14:53:24.294,e3:ca:2d:fd:e0:8c, 2015-01-01 00:24:12.190, 0.987, -0.253, -0.092, -0.122, -0.061, 0, -109.688, -74.839, -95.663, -28.587, -9.093, -5.640, 27.49, 0.06125, 0.69516, -0.24634, 0.67245,
 14:53:24.297,ed:40:fe:65:30:6c, 2015-01-01 00:24:11.495, 0.762, -0.186, 0.635, -0.244, -0.183, 0, -16.188, -49.037, -111.368, -23.767, -5.220, -2.540, 24.57, 0.45947, -0.41159, -0.12573, -0.77689,
 14:53:24.297,ed:40:fe:65:30:6c, 2015-01-01 00:24:11.495, 0.762, -0.187, 0.634, -0.061, -0.305, 0.061, -16.194, -49.043, -111.363, -23.767, -5.220, -2.540, 24.57, 0.45947, -0.41159, -0.12573, -0.77689,
 14:53:24.320,f6:90:cc:01:6d:25, 2015-01-01 00:24:09.730, 0.96, -0.204, 0.119, 0, -0.061, 0, -58.832, -76.053, -123.36, -32.027, -10.700, -5.200, 29.7, 0.0582, -0.6557, 0.0867, -0.74768,
 14:53:24.320,f6:90:cc:01:6d:25, 2015-01-01 00:24:09.730, 0.96, -0.204, 0.118, 0, 0, 0, -58.843, -76.053, -123.344, -32.027, -10.700, -5.200, 29.7, 0.0582, -0.6557, 0.0867, -0.74768,
 14:53:24.320,ed:35:33:d3:6c:f8, 2015-01-01 00:24:09.740, 0.014, -0.308, 0.954, -0.671, -0.488, -0.427, -18.023, -0.692, -170.178, -2.860, -3.147, -36.520, 26.73, 0.08478, -0.01956, 0.1557, -0.98392,
 14:53:24.320,ed:35:33:d3:6c:f8, 2015-01-01 00:24:09.740, 0.018, -0.309, 0.95, -0.366, -0.427, -0.244, -18.029, -0.703, -170.195, -2.860, -3.147, -36.520, 26.73, 0.08478, -0.01956, 0.1557, -0.98392,
 14:53:24.340,e3:ca:2d:fd:e0:8c, 2015-01-01 00:24:12.190, 0.987, -0.252, -0.092, -0.122, -0.061, 0, -109.693, -74.839, -95.658, -28.587, -9.093, -5.640, 27.49, 0.06125, 0.69516, -0.24634, 0.67245,
 14:53:24.340,e3:ca:2d:fd:e0:8c, 2015-01-01 00:24:12.190, 0.987, -0.253, -0.091, -0.183, 0, 0, -109.698, -74.839, -95.658, -28.587, -9.093, -5.640, 27.49, 0.06125, 0.69516, -0.24634, 0.67245,
 14:53:24.342,ed:40:fe:65:30:6c, 2015-01-01 00:24:11.495, 0.763, -0.184, 0.63, 0, -0.244, 0, -16.194, -49.048, -111.357, -23.767, -5.220, -2.540, 24.57, 0.45947, -0.41159, -0.12573, -0.77689,
 14:53:24.342,ed:40:fe:65:30:6c, 2015-01-01 00:24:11.495, 0.763, -0.184, 0.628, 0, 0, 0, -16.194, -49.048, -111.352, -23.767, -5.220, -2.540, 24.57, 0.45947, -0.41159, -0.12573, -0.77689,
 14:53:24.342,ed:35:33:d3:6c:f8, 2015-01-01 00:24:09.740, 0.019, -0.309, 0.946, -0.061, -0.488, -0.183, -18.034, -0.709, -170.206, -2.860, -3.147, -36.520, 26.73, 0.08334, -0.01944, 0.15564, -0.98404,
 14:53:24.342,ed:35:33:d3:6c:f8, 2015-01-01 00:24:09.740, 0.013, -0.308, 0.946, 0.122, -0.061, 0.122, -18.034, -0.714, -170.217, -2.860, -3.147, -36.520, 26.73, 0.08334, -0.01944, 0.15564, -0.98404,
 14:53:24.366,f6:90:cc:01:6d:25, 2015-01-01 00:24:09.730, 0.959, -0.205, 0.119, 0, 0.122, 0, -58.848, -76.053, -123.333, -32.027, -10.700, -5.200, 29.7, 0.05917, -0.65591, 0.086, -0.7475,
 14:53:24.366,f6:90:cc:01:6d:25, 2015-01-01 00:24:09.730, 0.959, -0.204, 0.119, -0.122, 0.183, 0, -58.848, -76.053, -123.327, -32.027, -10.700, -5.200, 29.7, 0.05917, -0.65591, 0.086, -0.7475,
 14:53:24.384,e3:ca:2d:fd:e0:8c, 2015-01-01 00:24:12.190, 0.987, -0.252, -0.09, -0.244, 0.122, 0, -109.698, -74.839, -95.663, -28.587, -9.093, -5.640, 27.49, 0.06125, 0.69516, -0.24634, 0.67245,
 14:53:24.384,e3:ca:2d:fd:e0:8c, 2015-01-01 00:24:12.190, 0.988, -0.252, -0.09, 0, 0.183, 0, -109.693, -74.839, -95.674, -28.587, -9.093, -5.640, 27.49, 0.06125, 0.69516, -0.24634, 0.67245,
 14:53:24.386,ed:35:33:d3:6c:f8, 2015-01-01 00:24:09.740, 0.01, -0.305, 0.951, 0.244, 0.488, 0.244, -18.029, -0.709, -170.239, -2.860, -3.147, -36.520, 26.73, 0.08334, -0.01944, 0.15564, -0.98404,
 14:53:24.386,ed:35:33:d3:6c:f8, 2015-01-01 00:24:09.740, 0.01, -0.301, 0.954, 0.122, 0.427, 0.183, -18.023, -0.703, -170.272, -2.860, -3.147, -36.520, 26.73, 0.08334, -0.01944, 0.15564, -0.98404,
 14:53:24.407,e3:ca:2d:fd:e0:8c, 2015-01-01 00:24:12.190, 0.989, -0.251, -0.089, 0.244, 0.122, 0, -109.682, -74.839, -95.685, -28.587, -9.093, -5.640, 27.49, 0.06125, 0.69516, -0.24634, 0.67245,
 14:53:24.407,e3:ca:2d:fd:e0:8c, 2015-01-01 00:24:12.190, 0.988, -0.25, -0.09, 0.366, 0.061, 0, -109.666, -74.839, -95.691, -28.587, -9.093, -5.640, 27.49, 0.06125, 0.69516, -0.24634, 0.67245,
 14:53:24.408,ed:40:fe:65:30:6c, 2015-01-01 00:24:11.495, 0.761, -0.184, 0.629, 0.061, 0.122, 0, -16.194, -49.043, -111.352, -23.767, -5.220, -2.540, 24.57, 0.45947, -0.41159, -0.12573, -0.77689,
 14:53:24.408,ed:40:fe:65:30:6c, 2015-01-01 00:24:11.495, 0.76, -0.183, 0.633, 0.244, 0.183, 0, -16.188, -49.043, -111.352, -23.767, -5.220, -2.540, 24.57, 0.45947, -0.41159, -0.12573, -0.77689,
 14:53:24.410,f6:90:cc:01:6d:25, 2015-01-01 00:24:10.040, 0.959, -0.204, 0.122, 0.061, 0.183, 0, -58.848, -76.047, -123.327, -32.027, -10.700, -5.200, 29.7, 0.05917, -0.65591, 0.086, -0.7475,
 14:53:24.410,f6:90:cc:01:6d:25, 2015-01-01 00:24:10.040, 0.959, -0.202, 0.123, 0.366, 0.244, 0, -58.837, -76.047, -123.327, -32.027, -10.700, -5.200, 29.7, 0.05917, -0.65591, 0.086, -0.7475,
 14:53:24.430,ed:40:fe:65:30:6c, 2015-01-01 00:24:11.495, 0.76, -0.175, 0.636, 0.183, 0, 0.427, -16.188, -49.043, -111.341, -24.627, -5.267, -2.447, 24.57, 0.45947, -0.41159, -0.12573, -0.77689,
 14:53:24.430,ed:40:fe:65:30:6c, 2015-01-01 00:24:11.495, 0.759, -0.18, 0.636, 0.061, -0.061, 0.488, -16.194, -49.037, -111.324, -24.627, -5.267, -2.447, 24.57, 0.45947, -0.41159, -0.12573, -0.77689,
 14:53:24.431,ed:35:33:d3:6c:f8, 2015-01-01 00:24:10.100, 0.011, -0.298, 0.956, -0.244, 0.122, 0.061, -18.023, -0.692, -170.283, -2.860, -3.147, -36.520, 26.73, 0.08334, -0.01944, 0.15564, -0.98404,
 14:53:24.431,ed:35:33:d3:6c:f8, 2015-01-01 00:24:10.100, 0.009, -0.301, 0.954, -0.61, -0.305, -0.122, -18.029, -0.698, -170.288, -2.860, -3.147, -36.520, 26.73, 0.08334, -0.01944, 0.15564, -0.98404,
 14:53:24.433,f6:90:cc:01:6d:25, 2015-01-01 00:24:10.040, 0.958, -0.2, 0.122, 0.366, 0.122, 0, -58.826, -76.047, -123.327, -32.027, -10.700, -5.200, 29.7, 0.05917, -0.65591, 0.086, -0.7475,
 14:53:24.433,f6:90:cc:01:6d:25, 2015-01-01 00:24:10.040, 0.958, -0.203, 0.122, 0.183, 0.061, 0, -58.815, -76.047, -123.322, -32.027, -10.700, -5.200, 29.7, 0.05917, -0.65591, 0.086, -0.7475,
 14:53:24.452,e3:ca:2d:fd:e0:8c, 2015-01-01 00:24:12.190, 0.987, -0.25, -0.09, 0.366, 0, 0, -109.66, -74.839, -95.691, -28.587, -9.093, -5.640, 27.49, 0.06125, 0.69516, -0.24634, 0.67245,
 14:53:24.452,e3:ca:2d:fd:e0:8c, 2015-01-01 00:24:12.190, 0.986, -0.25, -0.089, 0.122, 0, 0, -109.655, -74.839, -95.691, -28.587, -9.093, -5.640, 27.49, 0.06125, 0.69516, -0.24634, 0.67245,
 14:53:24.455,ed:35:33:d3:6c:f8, 2015-01-01 00:24:10.100, 0.01, -0.308, 0.95, -0.488, -0.61, 0.122, -18.034, -0.703, -170.283, -2.860, -3.147, -36.520, 26.73, 0.08334, -0.01944, 0.15564, -0.98404,
 14:53:24.455,ed:35:33:d3:6c:f8, 2015-01-01 00:24:10.100, 0.007, -0.311, 0.947, -0.427, -0.183, 0.61, -18.04, -0.709, -170.261, -2.860, -3.147, -36.520, 26.73, 0.08334, -0.01944, 0.15564, -0.98404,
 14:53:24.476,ed:40:fe:65:30:6c, 2015-01-01 00:24:11.495, 0.757, -0.187, 0.634, 0.061, 0, 0.366, -16.199, -49.037, -111.308, -24.627, -5.267, -2.447, 24.57, 0.45947, -0.41159, -0.12573, -0.77689,
 14:53:24.476,ed:40:fe:65:30:6c, 2015-01-01 00:24:11.495, 0.758, -0.184, 0.633, 0.061, 0, 0.183, -16.205, -49.037, -111.292, -24.627, -5.267, -2.447, 24.57, 0.45947, -0.41159, -0.12573, -0.77689,
 14:53:24.478,f6:90:cc:01:6d:25, 2015-01-01 00:24:10.040, 0.957, -0.204, 0.123, 0.122, 0.061, 0, -58.815, -76.047, -123.311, -32.027, -10.700, -5.200, 29.7, 0.05917, -0.65591, 0.086, -0.7475,
 14:53:24.478,f6:90:cc:01:6d:25, 2015-01-01 00:24:10.040, 0.958, -0.203, 0.123, 0, 0.061, 0, -58.815, -76.047, -123.3, -32.027, -10.700, -5.200, 29.7, 0.05917, -0.65591, 0.086, -0.7475,
 14:53:24.498,ed:40:fe:65:30:6c, 2015-01-01 00:24:11.495, 0.759, -0.187, 0.635, 0, 0.122, 0, -16.205, -49.037, -111.286, -24.627, -5.267, -2.447, 24.57, 0.45996, -0.41153, -0.12595, -0.77661,
 14:53:24.498,ed:40:fe:65:30:6c, 2015-01-01 00:24:11.495, 0.756, -0.186, 0.636, 0, -0.061, -0.061, -16.205, -49.032, -111.286, -24.627, -5.267, -2.447, 24.57, 0.45996, -0.41153, -0.12595, -0.77661,
 14:53:24.499,ed:35:33:d3:6c:f8, 2015-01-01 00:24:10.100, 0.007, -0.313, 0.948, 0, 0, 0.183, -18.04, -0.709, -170.233, -2.860, -3.147, -36.520, 26.73, 0.08334, -0.01944, 0.15564, -0.98404,
 14:53:24.499,ed:35:33:d3:6c:f8, 2015-01-01 00:24:10.100, 0.007, -0.31, 0.952, 0.305, 0.122, -0.061, -18.04, -0.703, -170.217, -2.860, -3.147, -36.520, 26.73, 0.08334, -0.01944, 0.15564, -0.98404,
 14:53:24.520,e3:ca:2d:fd:e0:8c, 2015-01-01 00:24:12.190, 0.986, -0.251, -0.088, 0, 0, 0, -109.655, -74.839, -95.696, -28.580, -8.827, -5.087, 27.49, 0.06125, 0.69516, -0.24634, 0.67245,
 14:53:24.520,e3:ca:2d:fd:e0:8c, 2015-01-01 00:24:12.190, 0.989, -0.253, -0.088, 0, 0, 0, -109.655, -74.839, -95.696, -28.580, -8.827, -5.087, 27.49, 0.06125, 0.69516, -0.24634, 0.67245,
 14:53:24.523,f6:90:cc:01:6d:25, 2015-01-01 00:24:10.040, 0.959, -0.206, 0.123, 0, 0, 0, -58.815, -76.047, -123.289, -32.027, -10.700, -5.200, 29.7, 0.05917, -0.65591, 0.086, -0.7475,
 14:53:24.523,f6:90:cc:01:6d:25, 2015-01-01 00:24:10.040, 0.958, -0.204, 0.125, 0, 0, 0, -58.821, -76.047, -123.278, -32.027, -10.700, -5.200, 29.7, 0.05917, -0.65591, 0.086, -0.7475,
 14:53:24.543,e3:ca:2d:fd:e0:8c, 2015-01-01 00:24:12.190, 0.987, -0.253, -0.088, 0.183, 0, 0, -109.649, -74.839, -95.696, -28.580, -8.827, -5.087, 27.49, 0.06122, 0.69513, -0.24634, 0.67249,
 14:53:24.543,e3:ca:2d:fd:e0:8c, 2015-01-01 00:24:12.190, 0.987, -0.252, -0.086, 0.183, -0.244, 0.305, -109.649, -74.839, -95.691, -28.580, -8.827, -5.087, 27.49, 0.06122, 0.69513, -0.24634, 0.67249,
 14:53:24.543,ed:40:fe:65:30:6c, 2015-01-01 00:24:11.495, 0.758, -0.182, 0.638, -0.305, -0.061, -0.305, -16.205, -49.032, -111.286, -24.627, -5.267, -2.447, 24.57, 0.45996, -0.41153, -0.12595, -0.77661,
 14:53:24.543,ed:40:fe:65:30:6c, 2015-01-01 00:24:11.495, 0.762, -0.179, 0.634, -0.183, 0, -0.122, -16.199, -49.037, -111.292, -24.627, -5.267, -2.447, 24.57, 0.45996, -0.41153, -0.12595, -0.77661,
 14:53:24.545,ed:35:33:d3:6c:f8, 2015-01-01 00:24:10.100, 0.008, -0.308, 0.95, 0.366, -0.305, -0.244, -18.029, -0.703, -170.217, -2.860, -3.147, -36.520, 26.73, 0.08334, -0.01944, 0.15564, -0.98404,
 14:53:24.545,ed:35:33:d3:6c:f8, 2015-01-01 00:24:10.100, 0.015, -0.299, 0.95, 0.916, 0, -0.671, -18.018, -0.709, -170.222, -2.860, -3.147, -36.520, 26.73, 0.08334, -0.01944, 0.15564, -0.98404,
 14:53:24.568,f6:90:cc:01:6d:25, 2015-01-01 00:24:10.040, 0.96, -0.205, 0.123, -0.244, 0, 0, -58.821, -76.047, -123.261, -32.027, -10.700, -5.200, 29.7, 0.05917, -0.65591, 0.086, -0.7475,
 14:53:24.568,f6:90:cc:01:6d:25, 2015-01-01 00:24:10.040, 0.96, -0.207, 0.121, -0.427, -0.122, 0, -58.837, -76.047, -123.245, -32.027, -10.700, -5.200, 29.7, 0.05917, -0.65591, 0.086, -0.7475,
 14:53:24.588,ed:40:fe:65:30:6c, 2015-01-01 00:24:11.855, 0.759, -0.175, 0.634, -0.061, 0.061, 0.366, -16.205, -49.032, -111.286, -24.627, -5.267, -2.447, 24.57, 0.45996, -0.41153, -0.12595, -0.77661,
 14:53:24.588,ed:40:fe:65:30:6c, 2015-01-01 00:24:11.855, 0.761, -0.183, 0.637, -0.366, 0.061, 0.854, -16.21, -49.032, -111.27, -24.627, -5.267, -2.447, 24.57, 0.45996, -0.41153, -0.12595, -0.77661,
 14:53:24.609,e3:ca:2d:fd:e0:8c, 2015-01-01 00:24:12.190, 0.989, -0.253, -0.088, -0.061, -0.244, 0.305, -109.655, -74.828, -95.68, -28.580, -8.827, -5.087, 27.49, 0.06122, 0.69513, -0.24634, 0.67249,
 14:53:24.609,e3:ca:2d:fd:e0:8c, 2015-01-01 00:24:12.190, 0.987, -0.255, -0.091, 0, -0.244, 0.183, -109.66, -74.822, -95.669, -28.580, -8.827, -5.087, 27.49, 0.06122, 0.69513, -0.24634, 0.67249,
 14:53:24.612,ed:35:33:d3:6c:f8, 2015-01-01 00:24:10.100, 0.01, -0.292, 0.953, -0.244, 0.122, -0.244, -18.007, -0.709, -170.244, -2.860, -3.147, -36.520, 26.73, 0.08334, -0.01944, 0.15564, -0.98404,
 14:53:24.612,ed:35:33:d3:6c:f8, 2015-01-01 00:24:10.100, 0.003, -0.296, 0.957, -0.366, 0.305, 0.244, -18.007, -0.703, -170.255, -2.860, -3.147, -36.520, 26.73, 0.08334, -0.01944, 0.15564, -0.98404,
 14:53:24.613,f6:90:cc:01:6d:25, 2015-01-01 00:24:10.040, 0.959, -0.206, 0.122, 0.122, -0.183, 0.366, -58.859, -76.047, -123.217, -32.207, -10.793, -4.767, 29.7, 0.05917, -0.65591, 0.086, -0.7475,
 14:53:24.613,f6:90:cc:01:6d:25, 2015-01-01 00:24:10.040, 0.96, -0.207, 0.12, 0.427, -0.305, 0.366, -58.892, -76.042, -123.168, -32.207, -10.793, -4.767, 29.7, 0.05917, -0.65591, 0.086, -0.7475,
 14:53:24.632,e3:ca:2d:fd:e0:8c, 2015-01-01 00:24:12.545, 0.987, -0.253, -0.091, 0.488, -0.305, 0.244, -109.671, -74.817, -95.658, -28.580, -8.827, -5.087, 27.49, 0.06122, 0.69513, -0.24634, 0.67249,
 14:53:24.632,e3:ca:2d:fd:e0:8c, 2015-01-01 00:24:12.545, 0.988, -0.252, -0.092, 0.366, -0.366, 0.183, -109.677, -74.811, -95.636, -28.580, -8.827, -5.087, 27.49, 0.06122, 0.69513, -0.24634, 0.67249,
 14:53:24.633,ed:40:fe:65:30:6c, 2015-01-01 00:24:11.855, 0.762, -0.192, 0.637, -0.488, -0.122, 0.732, -16.238, -49.026, -111.242, -24.627, -5.267, -2.447, 24.57, 0.45996, -0.41153, -0.12595, -0.77661,
 14:53:24.633,ed:40:fe:65:30:6c, 2015-01-01 00:24:11.855, 0.761, -0.191, 0.634, -0.427, -0.366, 0.366, -16.26, -49.021, -111.22, -24.627, -5.267, -2.447, 24.57, 0.45996, -0.41153, -0.12595, -0.77661,
 14:53:24.635,ed:35:33:d3:6c:f8, 2015-01-01 00:24:10.100, 0.008, -0.315, 0.956, -1.343, -0.854, 0.549, -18.023, -0.703, -170.255, -2.493, -3.193, -35.440, 26.73, 0.08334, -0.01944, 0.15564, -0.98404,
 14:53:24.635,ed:35:33:d3:6c:f8, 2015-01-01 00:24:10.100, 0.013, -0.318, 0.953, -1.221, -1.404, 0, -18.045, -0.72, -170.244, -2.493, -3.193, -35.440, 26.73, 0.08334, -0.01944, 0.15564, -0.98404,
 14:53:24.636,f6:90:cc:01:6d:25, 2015-01-01 00:24:10.040, 0.959, -0.207, 0.119, 0.366, -0.305, 0.122, -58.92, -76.042, -123.124, -32.207, -10.793, -4.767, 29.7, 0.06024, -0.65607, 0.08527, -0.74738,
 14:53:24.636,f6:90:cc:01:6d:25, 2015-01-01 00:24:10.040, 0.958, -0.206, 0.118, 0.183, -0.305, -0.061, -58.942, -76.042, -123.091, -32.207, -10.793, -4.767, 29.7, 0.06024, -0.65607, 0.08527, -0.74738,
 14:53:24.655,ed:40:fe:65:30:6c, 2015-01-01 00:24:11.855, 0.762, -0.192, 0.63, -0.305, -0.366, 0.061, -16.276, -49.026, -111.209, -24.627, -5.267, -2.447, 24.57, 0.45996, -0.41153, -0.12595, -0.77661,
 14:53:24.655,ed:40:fe:65:30:6c, 2015-01-01 00:24:11.855, 0.761, -0.188, 0.628, -0.061, -0.122, -0.122, -16.282, -49.032, -111.204, -24.627, -5.267, -2.447, 24.57, 0.45996, -0.41153, -0.12595, -0.77661,
 14:53:24.655,e3:ca:2d:fd:e0:8c, 2015-01-01 00:24:12.545, 0.987, -0.253, -0.092, 0.183, -0.366, 0.122, -109.693, -74.806, -95.614, -28.580, -8.827, -5.087, 27.49, 0.06122, 0.69513, -0.24634, 0.67249,
 14:53:24.655,e3:ca:2d:fd:e0:8c, 2015-01-01 00:24:12.545, 0.987, -0.252, -0.092, 0.061, -0.305, 0.061, -109.709, -74.8, -95.592, -28.580, -8.827, -5.087, 27.49, 0.06122, 0.69513, -0.24634, 0.67249,
 14:53:24.680,ed:35:33:d3:6c:f8, 2015-01-01 00:24:10.100, 0.016, -0.318, 0.946, -0.305, -1.404, 0, -18.056, -0.747, -170.239, -2.493, -3.193, -35.440, 26.73, 0.08334, -0.01944, 0.15564, -0.98404,
 14:53:24.680,ed:35:33:d3:6c:f8, 2015-01-01 00:24:10.100, 0.018, -0.314, 0.944, 0.244, -1.099, 0.183, -18.056, -0.769, -170.233, -2.493, -3.193, -35.440, 26.73, 0.08334, -0.01944, 0.15564, -0.98404,
 14:53:24.681,f6:90:cc:01:6d:25, 2015-01-01 00:24:10.040, 0.959, -0.206, 0.118, 0.122, -0.183, -0.305, -58.953, -76.047, -123.069, -32.207, -10.793, -4.767, 29.7, 0.06024, -0.65607, 0.08527, -0.74738,
 14:53:24.681,f6:90:cc:01:6d:25, 2015-01-01 00:24:10.040, 0.959, -0.206, 0.119, 0.061, -0.061, -0.366, -58.953, -76.058, -123.063, -32.207, -10.793, -4.767, 29.7, 0.06024, -0.65607, 0.08527, -0.74738,
 14:53:24.701,e3:ca:2d:fd:e0:8c, 2015-01-01 00:24:12.545, 0.987, -0.254, -0.091, -0.061, -0.183, 0, -109.726, -74.8, -95.576, -28.580, -8.827, -5.087, 27.49, 0.06122, 0.69513, -0.24634, 0.67249,
 14:53:24.701,e3:ca:2d:fd:e0:8c, 2015-01-01 00:24:12.545, 0.987, -0.254, -0.091, -0.061, -0.122, 0, -109.737, -74.795, -95.565, -28.580, -8.827, -5.087, 27.49, 0.06122, 0.69513, -0.24634, 0.67249,
 14:53:24.701,ed:40:fe:65:30:6c, 2015-01-01 00:24:11.855, 0.76, -0.186, 0.63, 0.122, 0, -0.061, -16.282, -49.032, -111.204, -24.627, -5.267, -2.447, 24.57, 0.45996, -0.41153, -0.12595, -0.77661,
 14:53:24.701,ed:40:fe:65:30:6c, 2015-01-01 00:24:11.855, 0.759, -0.183, 0.634, 0.183, 0.061, 0, -16.282, -49.037, -111.198, -24.627, -5.267, -2.447, 24.57, 0.45996, -0.41153, -0.12595, -0.77661,
 14:53:24.702,ed:35:33:d3:6c:f8, 2015-01-01 00:24:10.100, 0.014, -0.308, 0.946, 0.732, -0.366, 0.61, -18.051, -0.775, -170.217, -2.493, -3.193, -35.440, 26.73, 0.08304, -0.02005, 0.15576, -0.98404,
 14:53:24.702,ed:35:33:d3:6c:f8, 2015-01-01 00:24:10.100, 0.013, -0.304, 0.95, 0.671, 0.061, 0.61, -18.034, -0.775, -170.217, -2.493, -3.193, -35.440, 26.73, 0.08304, -0.02005, 0.15576, -0.98404,
 14:53:24.725,f6:90:cc:01:6d:25, 2015-01-01 00:24:10.330, 0.958, -0.207, 0.119, 0.061, 0, -0.305, -58.953, -76.064, -123.063, -32.207, -10.793, -4.767, 29.7, 0.06024, -0.65607, 0.08527, -0.74738,
 14:53:24.725,f6:90:cc:01:6d:25, 2015-01-01 00:24:10.330, 0.959, -0.205, 0.122, 0.122, 0, -0.244, -58.947, -76.064, -123.063, -32.207, -10.793, -4.767, 29.7, 0.06024, -0.65607, 0.08527, -0.74738,
 14:53:24.744,e3:ca:2d:fd:e0:8c, 2015-01-01 00:24:12.545, 0.987, -0.254, -0.089, 0, -0.122, 0, -109.748, -74.795, -95.559, -28.580, -8.827, -5.087, 27.49, 0.06122, 0.69513, -0.24634, 0.67249,
 14:53:24.744,e3:ca:2d:fd:e0:8c, 2015-01-01 00:24:12.545, 0.987, -0.254, -0.088, 0.244, -0.183, 0.061, -109.753, -74.795, -95.548, -28.580, -8.827, -5.087, 27.49, 0.06122, 0.69513, -0.24634, 0.67249,
 14:53:24.746,ed:35:33:d3:6c:f8, 2015-01-01 00:24:10.100, 0.009, -0.301, 0.954, 0.183, 0.061, 0.427, -18.023, -0.769, -170.217, -2.493, -3.193, -35.440, 26.73, 0.08304, -0.02005, 0.15576, -0.98404,
 14:53:24.746,ed:35:33:d3:6c:f8, 2015-01-01 00:24:10.100, 0.008, -0.301, 0.955, -0.549, -0.183, 0.427, -18.029, -0.769, -170.217, -2.493, -3.193, -35.440, 26.73, 0.08304, -0.02005, 0.15576, -0.98404,
 14:53:24.767,e3:ca:2d:fd:e0:8c, 2015-01-01 00:24:12.545, 0.987, -0.253, -0.089, 0.488, -0.305, 0.122, -109.759, -74.789, -95.532, -28.580, -8.827, -5.087, 27.49, 0.06122, 0.69513, -0.24634, 0.67249,
 14:53:24.767,e3:ca:2d:fd:e0:8c, 2015-01-01 00:24:12.545, 0.987, -0.252, -0.088, 0.366, -0.366, 0.183, -109.764, -74.784, -95.515, -28.580, -8.827, -5.087, 27.49, 0.06122, 0.69513, -0.24634, 0.67249,
 14:53:24.769,ed:40:fe:65:30:6c, 2015-01-01 00:24:11.855, 0.76, -0.179, 0.636, 0, 0, 0.183, -16.282, -49.032, -111.198, -24.627, -5.267, -2.447, 24.57, 0.45996, -0.41153, -0.12595, -0.77661,
 14:53:24.769,ed:40:fe:65:30:6c, 2015-01-01 00:24:11.855, 0.758, -0.182, 0.636, -0.366, -0.061, 0.244, -16.287, -49.032, -111.187, -24.627, -5.267, -2.447, 24.57, 0.45996, -0.41153, -0.12595, -0.77661,
 14:53:24.770,f6:90:cc:01:6d:25, 2015-01-01 00:24:10.330, 0.959, -0.204, 0.123, 0, -0.061, 0, -58.953, -76.069, -123.047, -32.207, -10.793, -4.767, 29.7, 0.06024, -0.65607, 0.08527, -0.74738,
 14:53:24.770,f6:90:cc:01:6d:25, 2015-01-01 00:24:10.330, 0.958, -0.204, 0.124, 0, 0, 0, -58.964, -76.069, -123.036, -32.207, -10.793, -4.767, 29.7, 0.06024, -0.65607, 0.08527, -0.74738,
 14:53:24.790,ed:40:fe:65:30:6c, 2015-01-01 00:24:11.855, 0.76, -0.187, 0.636, -0.305, -0.183, 0.244, -16.298, -49.032, -111.176, -24.313, -5.673, -2.680, 24.57, 0.45996, -0.41153, -0.12595, -0.77661,
 14:53:24.790,ed:40:fe:65:30:6c, 2015-01-01 00:24:11.855, 0.758, -0.188, 0.634, -0.305, -0.183, 0.061, -16.309, -49.037, -111.171, -24.313, -5.673, -2.680, 24.57, 0.45996, -0.41153, -0.12595, -0.77661,
 14:53:24.792,ed:35:33:d3:6c:f8, 2015-01-01 00:24:10.455, 0.014, -0.308, 0.951, -0.977, -0.977, 0.671, -18.04, -0.775, -170.206, -2.493, -3.193, -35.440, 26.73, 0.08304, -0.02005, 0.15576, -0.98404,
 14:53:24.792,ed:35:33:d3:6c:f8, 2015-01-01 00:24:10.455, 0.013, -0.312, 0.947, -1.282, -0.854, 0.671, -18.062, -0.786, -170.184, -2.493, -3.193, -35.440, 26.73, 0.08304, -0.02005, 0.15576, -0.98404,
 14:53:24.793,f6:90:cc:01:6d:25, 2015-01-01 00:24:10.330, 0.959, -0.205, 0.121, 0, 0, 0, -58.969, -76.069, -123.025, -32.207, -10.793, -4.767, 29.7, 0.06024, -0.65607, 0.08527, -0.74738,
 14:53:24.793,f6:90:cc:01:6d:25, 2015-01-01 00:24:10.330, 0.958, -0.207, 0.122, 0, -0.061, -0.061, -58.975, -76.069, -123.014, -32.207, -10.793, -4.767, 29.7, 0.06024, -0.65607, 0.08527, -0.74738,
 14:53:24.812,e3:ca:2d:fd:e0:8c, 2015-01-01 00:24:12.545, 0.987, -0.251, -0.09, 0.122, -0.366, 0.061, -109.781, -74.778, -95.493, -28.580, -8.827, -5.087, 27.49, 0.06122, 0.69513, -0.24634, 0.67249,
 14:53:24.812,e3:ca:2d:fd:e0:8c, 2015-01-01 00:24:12.545, 0.986, -0.252, -0.09, -0.061, -0.427, 0, -109.803, -74.778, -95.466, -28.580, -8.827, -5.087, 27.49, 0.06122, 0.69513, -0.24634, 0.67249,
 14:53:24.835,ed:40:fe:65:30:6c, 2015-01-01 00:24:11.855, 0.759, -0.188, 0.634, -0.183, 0, 0, -16.315, -49.037, -111.165, -24.313, -5.673, -2.680, 24.57, 0.45996, -0.41153, -0.12595, -0.77661,
 14:53:24.835,ed:40:fe:65:30:6c, 2015-01-01 00:24:11.855, 0.76, -0.187, 0.633, -0.122, 0.061, -0.061, -16.32, -49.037, -111.16, -24.313, -5.673, -2.680, 24.57, 0.45996, -0.41153, -0.12595, -0.77661,
 14:53:24.837,ed:35:33:d3:6c:f8, 2015-01-01 00:24:10.455, 0.009, -0.31, 0.947, -0.732, -0.305, 0.732, -18.078, -0.791, -170.162, -2.493, -3.193, -35.440, 26.73, 0.08304, -0.02005, 0.15576, -0.98404,
 14:53:24.837,ed:35:33:d3:6c:f8, 2015-01-01 00:24:10.455, 0.01, -0.311, 0.951, -0.061, 0.183, 0.977, -18.089, -0.786, -170.145, -2.493, -3.193, -35.440, 26.73, 0.08304, -0.02005, 0.15576, -0.98404,
 14:53:24.839,f6:90:cc:01:6d:25, 2015-01-01 00:24:10.330, 0.958, -0.204, 0.121, 0, -0.122, -0.183, -58.98, -76.069, -123.003, -32.207, -10.793, -4.767, 29.7, 0.06024, -0.65607, 0.08527, -0.74738,
 14:53:24.839,f6:90:cc:01:6d:25, 2015-01-01 00:24:10.330, 0.96, -0.204, 0.119, -0.122, -0.122, -0.244, -58.986, -76.075, -122.992, -32.207, -10.793, -4.767, 29.7, 0.06024, -0.65607, 0.08527, -0.74738,
 14:53:24.858,ed:40:fe:65:30:6c, 2015-01-01 00:24:11.855, 0.761, -0.185, 0.633, -0.122, 0, -0.183, -16.32, -49.032, -111.165, -24.313, -5.673, -2.680, 24.57, 0.46042, -0.41187, -0.12561, -0.77621,
 14:53:24.858,ed:40:fe:65:30:6c, 2015-01-01 00:24:11.855, 0.76, -0.184, 0.636, -0.244, -0.183, -0.305, -16.32, -49.037, -111.165, -24.313, -5.673, -2.680, 24.57, 0.46042, -0.41187, -0.12561, -0.77621,
 14:53:24.881,e3:ca:2d:fd:e0:8c, 2015-01-01 00:24:12.545, 0.988, -0.253, -0.092, -0.061, -0.366, 0, -109.83, -74.773, -95.433, -28.867, -9.420, -5.013, 27.49, 0.06122, 0.69513, -0.24634, 0.67249,
 14:53:24.881,e3:ca:2d:fd:e0:8c, 2015-01-01 00:24:12.545, 0.988, -0.253, -0.093, 0, -0.305, 0.061, -109.852, -74.767, -95.411, -28.867, -9.420, -5.013, 27.49, 0.06122, 0.69513, -0.24634, 0.67249,
 14:53:24.882,ed:35:33:d3:6c:f8, 2015-01-01 00:24:10.455, 0.01, -0.309, 0.952, 0.122, -0.122, 0.549, -18.083, -0.78, -170.129, -2.493, -3.193, -35.440, 26.73, 0.08304, -0.02005, 0.15576, -0.98404,
 14:53:24.882,ed:35:33:d3:6c:f8, 2015-01-01 00:24:10.455, 0.011, -0.309, 0.955, 0, -0.793, 0.183, -18.083, -0.786, -170.118, -2.493, -3.193, -35.440, 26.73, 0.08304, -0.02005, 0.15576, -0.98404,
 14:53:24.883,f6:90:cc:01:6d:25, 2015-01-01 00:24:10.330, 0.96, -0.203, 0.119, -0.244, -0.183, -0.244, -58.997, -76.08, -122.981, -32.207, -10.793, -4.767, 29.7, 0.06024, -0.65607, 0.08527, -0.74738,
 14:53:24.883,f6:90:cc:01:6d:25, 2015-01-01 00:24:10.330, 0.959, -0.203, 0.121, -0.366, -0.244, -0.244, -59.013, -76.086, -122.964, -32.207, -10.793, -4.767, 29.7, 0.06024, -0.65607, 0.08527, -0.74738,
 14:53:24.902,e3:ca:2d:fd:e0:8c, 2015-01-01 00:24:12.545, 0.987, -0.253, -0.092, 0, -0.366, 0.061, -109.869, -74.767, -95.389, -28.867, -9.420, -5.013, 27.49, 0.0603, 0.69568, -0.24622, 0.67206,
 14:53:24.902,e3:ca:2d:fd:e0:8c, 2015-01-01 00:24:12.545, 0.987, -0.253, -0.092, 0, -0.488, 0.183, -109.896, -74.762, -95.361, -28.867, -9.420, -5.013, 27.49, 0.0603, 0.69568, -0.24622, 0.67206,
 14:53:24.906,ed:35:33:d3:6c:f8, 2015-01-01 00:24:10.455, 0.015, -0.306, 0.952, 0, -0.916, -0.183, -18.083, -0.797, -170.112, -2.493, -3.193, -35.440, 26.73, 0.08304, -0.02005, 0.15576, -0.98404,
 14:53:24.906,ed:35:33:d3:6c:f8, 2015-01-01 00:24:10.455, 0.017, -0.303, 0.95, 0, -0.793, -0.244, -18.083, -0.813, -170.107, -2.493, -3.193, -35.440, 26.73, 0.08304, -0.02005, 0.15576, -0.98404,
 14:53:24.926,ed:40:fe:65:30:6c, 2015-01-01 00:24:11.855, 0.76, -0.183, 0.634, -0.366, -0.305, -0.366, -16.32, -49.043, -111.171, -24.313, -5.673, -2.680, 24.57, 0.46042, -0.41187, -0.12561, -0.77621,
 14:53:24.926,ed:40:fe:65:30:6c, 2015-01-01 00:24:11.855, 0.761, -0.183, 0.632, -0.244, -0.305, -0.244, -16.32, -49.048, -111.176, -24.313, -5.673, -2.680, 24.57, 0.46042, -0.41187, -0.12561, -0.77621,
 14:53:24.928,f6:90:cc:01:6d:25, 2015-01-01 00:24:10.330, 0.959, -0.204, 0.119, -0.366, -0.366, -0.183, -59.041, -76.097, -122.937, -31.960, -11.193, -4.893, 29.7, 0.06024, -0.65607, 0.08527, -0.74738,
 14:53:24.928,f6:90:cc:01:6d:25, 2015-01-01 00:24:10.330, 0.959, -0.205, 0.118, -0.244, -0.305, -0.122, -59.068, -76.102, -122.91, -31.960, -11.193, -4.893, 29.7, 0.06024, -0.65607, 0.08527, -0.74738,
 14:53:24.949,e3:ca:2d:fd:e0:8c, 2015-01-01 00:24:12.545, 0.986, -0.253, -0.092, 0, -0.427, 0.183, -109.924, -74.756, -95.334, -28.867, -9.420, -5.013, 27.49, 0.0603, 0.69568, -0.24622, 0.67206,
 14:53:24.949,e3:ca:2d:fd:e0:8c, 2015-01-01 00:24:12.545, 0.987, -0.254, -0.092, 0.122, -0.366, 0.122, -109.946, -74.751, -95.312, -28.867, -9.420, -5.013, 27.49, 0.0603, 0.69568, -0.24622, 0.67206,
 14:53:24.949,ed:40:fe:65:30:6c, 2015-01-01 00:24:12.210, 0.759, -0.183, 0.63, -0.183, -0.183, 0, -16.32, -49.054, -111.176, -24.313, -5.673, -2.680, 24.57, 0.46042, -0.41187, -0.12561, -0.77621,
 14:53:24.949,ed:40:fe:65:30:6c, 2015-01-01 00:24:12.210, 0.762, -0.182, 0.631, -0.183, -0.061, 0.305, -16.326, -49.054, -111.171, -24.313, -5.673, -2.680, 24.57, 0.46042, -0.41187, -0.12561, -0.77621,
 14:53:24.970,e3:ca:2d:fd:e0:8c, 2015-01-01 00:24:12.905, 0.986, -0.254, -0.091, 0.183, -0.305, 0.122, -109.957, -74.745, -95.29, -28.867, -9.420, -5.013, 27.49, 0.0603, 0.69568, -0.24622, 0.67206,
 14:53:24.970,e3:ca:2d:fd:e0:8c, 2015-01-01 00:24:12.905, 0.987, -0.254, -0.091, 0.305, -0.305, 0.183, -109.968, -74.74, -95.273, -28.867, -9.420, -5.013, 27.49, 0.0603, 0.69568, -0.24622, 0.67206,
 14:53:24.972,ed:35:33:d3:6c:f8, 2015-01-01 00:24:10.455, 0.016, -0.302, 0.949, -0.061, -0.61, 0, -18.078, -0.824, -170.101, -2.493, -3.193, -35.440, 26.73, 0.08304, -0.02005, 0.15576, -0.98404,
 14:53:24.972,ed:35:33:d3:6c:f8, 2015-01-01 00:24:10.455, 0.018, -0.299, 0.951, -0.549, -0.427, 0.244, -18.083, -0.835, -170.09, -2.493, -3.193, -35.440, 26.73, 0.08304, -0.02005, 0.15576, -0.98404,
 14:53:24.973,f6:90:cc:01:6d:25, 2015-01-01 00:24:10.330, 0.959, -0.205, 0.118, 0, -0.244, 0, -59.095, -76.102, -122.882, -31.960, -11.193, -4.893, 29.7, 0.06046, -0.65659, 0.08472, -0.74695,
 14:53:24.973,f6:90:cc:01:6d:25, 2015-01-01 00:24:10.330, 0.959, -0.204, 0.119, 0.244, -0.122, 0, -59.106, -76.108, -122.86, -31.960, -11.193, -4.893, 29.7, 0.06046, -0.65659, 0.08472, -0.74695,
 14:53:24.993,ed:40:fe:65:30:6c, 2015-01-01 00:24:12.210, 0.761, -0.184, 0.631, -0.061, 0, 0.488, -16.337, -49.054, -111.16, -24.313, -5.673, -2.680, 24.57, 0.46042, -0.41187, -0.12561, -0.77621,
 14:53:24.993,ed:40:fe:65:30:6c, 2015-01-01 00:24:12.210, 0.762, -0.185, 0.632, -0.061, 0, 0.488, -16.348, -49.054, -111.143, -24.313, -5.673, -2.680, 24.57, 0.46042, -0.41187, -0.12561, -0.77621,
 14:53:24.995,ed:35:33:d3:6c:f8, 2015-01-01 00:24:10.455, 0.015, -0.305, 0.948, -0.366, -0.366, 0.183, -18.089, -0.84, -170.09, -2.773, -3.273, -35.893, 26.73, 0.08304, -0.02005, 0.15576, -0.98404,
 14:53:24.995,ed:35:33:d3:6c:f8, 2015-01-01 00:24:10.455, 0.015, -0.308, 0.95, -0.366, -0.427, 0.183, -18.094, -0.846, -170.101, -2.773, -3.273, -35.893, 26.73, 0.08304, -0.02005, 0.15576, -0.98404,
 14:53:24.995,f6:90:cc:01:6d:25, 2015-01-01 00:24:10.645, 0.96, -0.204, 0.119, 0.366, -0.061, 0.122, -59.117, -76.108, -122.844, -31.960, -11.193, -4.893, 29.7, 0.06046, -0.65659, 0.08472, -0.74695,
 14:53:24.995,f6:90:cc:01:6d:25, 2015-01-01 00:24:10.645, 0.96, -0.204, 0.118, 0.366, 0, 0.183, -59.123, -76.102, -122.822, -31.960, -11.193, -4.893, 29.7, 0.06046, -0.65659, 0.08472, -0.74695,
 14:53:25.015,e3:ca:2d:fd:e0:8c, 2015-01-01 00:24:12.905, 0.987, -0.254, -0.092, 0.427, -0.244, 0.183, -109.973, -74.734, -95.262, -28.867, -9.420, -5.013, 27.49, 0.0603, 0.69568, -0.24622, 0.67206,
 14:53:25.015,e3:ca:2d:fd:e0:8c, 2015-01-01 00:24:12.905, 0.987, -0.254, -0.093, 0.488, -0.305, 0.183, -109.979, -74.729, -95.246, -28.867, -9.420, -5.013, 27.49, 0.0603, 0.69568, -0.24622, 0.67206,
 14:53:25.015,ed:40:fe:65:30:6c, 2015-01-01 00:24:12.210, 0.761, -0.187, 0.633, -0.061, 0, 0.488, -16.359, -49.048, -111.127, -24.313, -5.673, -2.680, 24.57, 0.46042, -0.41187, -0.12561, -0.77621,
 14:53:25.015,ed:40:fe:65:30:6c, 2015-01-01 00:24:12.210, 0.759, -0.188, 0.633, 0, 0, 0.427, -16.364, -49.048, -111.11, -24.313, -5.673, -2.680, 24.57, 0.46042, -0.41187, -0.12561, -0.77621,
 14:53:25.039,ed:35:33:d3:6c:f8, 2015-01-01 00:24:10.455, 0.014, -0.31, 0.951, -0.183, -0.427, 0.122, -18.094, -0.851, -170.112, -2.773, -3.273, -35.893, 26.73, 0.08304, -0.02005, 0.15576, -0.98404,
 14:53:25.039,ed:35:33:d3:6c:f8, 2015-01-01 00:24:10.455, 0.012, -0.31, 0.952, -0.244, -0.366, 0.244, -18.094, -0.857, -170.118, -2.773, -3.273, -35.893, 26.73, 0.08304, -0.02005, 0.15576, -0.98404,
 14:53:25.040,f6:90:cc:01:6d:25, 2015-01-01 00:24:10.645, 0.958, -0.205, 0.118, 0.305, 0, 0.183, -59.128, -76.102, -122.805, -31.960, -11.193, -4.893, 29.7, 0.06046, -0.65659, 0.08472, -0.74695,
 14:53:25.040,f6:90:cc:01:6d:25, 2015-01-01 00:24:10.645, 0.958, -0.205, 0.118, 0.305, 0, 0.061, -59.134, -76.102, -122.794, -31.960, -11.193, -4.893, 29.7, 0.06046, -0.65659, 0.08472, -0.74695,
 14:53:25.059,e3:ca:2d:fd:e0:8c, 2015-01-01 00:24:12.905, 0.986, -0.254, -0.093, 0.366, -0.183, 0.183, -109.979, -74.724, -95.235, -28.867, -9.420, -5.013, 27.49, 0.0603, 0.69568, -0.24622, 0.67206,
 14:53:25.059,e3:ca:2d:fd:e0:8c, 2015-01-01 00:24:12.905, 0.987, -0.254, -0.093, 0.244, -0.122, 0.061, -109.979, -74.718, -95.229, -28.867, -9.420, -5.013, 27.49, 0.0603, 0.69568, -0.24622, 0.67206,
 14:53:25.061,ed:40:fe:65:30:6c, 2015-01-01 00:24:12.210, 0.759, -0.188, 0.633, 0, 0, 0.366, -16.375, -49.048, -111.099, -24.313, -5.673, -2.680, 24.57, 0.46042, -0.41187, -0.12561, -0.77621,
 14:53:25.061,ed:40:fe:65:30:6c, 2015-01-01 00:24:12.210, 0.761, -0.186, 0.635, 0.183, 0, 0.305, -16.381, -49.043, -111.088, -24.313, -5.673, -2.680, 24.57, 0.46042, -0.41187, -0.12561, -0.77621,
 14:53:25.062,ed:35:33:d3:6c:f8, 2015-01-01 00:24:10.455, 0.012, -0.31, 0.951, -0.244, -0.549, 0.305, -18.1, -0.868, -170.129, -2.773, -3.273, -35.893, 26.73, 0.0838, -0.02094, 0.15607, -0.98392,
 14:53:25.062,ed:35:33:d3:6c:f8, 2015-01-01 00:24:10.455, 0.016, -0.309, 0.95, -0.183, -0.61, 0.244, -18.1, -0.873, -170.129, -2.773, -3.273, -35.893, 26.73, 0.0838, -0.02094, 0.15607, -0.98392,
 14:53:25.085,f6:90:cc:01:6d:25, 2015-01-01 00:24:10.645, 0.958, -0.206, 0.12, 0.366, -0.061, 0.061, -59.145, -76.102, -122.778, -31.960, -11.193, -4.893, 29.7, 0.06046, -0.65659, 0.08472, -0.74695,
 14:53:25.085,f6:90:cc:01:6d:25, 2015-01-01 00:24:10.645, 0.959, -0.205, 0.12, 0.244, -0.183, 0, -59.156, -76.102, -122.756, -31.960, -11.193, -4.893, 29.7, 0.06046, -0.65659, 0.08472, -0.74695,
 14:53:25.104,e3:ca:2d:fd:e0:8c, 2015-01-01 00:24:12.905, 0.986, -0.254, -0.092, 0.183, -0.183, 0, -109.984, -74.718, -95.219, -28.867, -9.420, -5.013, 27.49, 0.0603, 0.69568, -0.24622, 0.67206,
 14:53:25.104,e3:ca:2d:fd:e0:8c, 2015-01-01 00:24:12.905, 0.986, -0.254, -0.092, 0.305, -0.183, 0, -109.995, -74.718, -95.202, -28.867, -9.420, -5.013, 27.49, 0.0603, 0.69568, -0.24622, 0.67206,
 14:53:25.106,ed:40:fe:65:30:6c, 2015-01-01 00:24:12.210, 0.759, -0.187, 0.631, 0.244, 0, 0.305, -16.381, -49.043, -111.077, -24.313, -5.673, -2.680, 24.57, 0.46042, -0.41187, -0.12561, -0.77621,
 14:53:25.106,ed:40:fe:65:30:6c, 2015-01-01 00:24:12.210, 0.757, -0.187, 0.632, -0.061, 0, 0.183, -16.386, -49.043, -111.066, -24.313, -5.673, -2.680, 24.57, 0.46042, -0.41187, -0.12561, -0.77621,
 14:53:25.106,ed:35:33:d3:6c:f8, 2015-01-01 00:24:10.455, 0.016, -0.309, 0.948, 0.183, -0.549, 0.183, -18.1, -0.884, -170.123, -2.773, -3.273, -35.893, 26.73, 0.0838, -0.02094, 0.15607, -0.98392,
 14:53:25.106,ed:35:33:d3:6c:f8, 2015-01-01 00:24:10.455, 0.012, -0.311, 0.946, -0.244, -0.305, 0.366, -18.1, -0.89, -170.123, -2.773, -3.273, -35.893, 26.73, 0.0838, -0.02094, 0.15607, -0.98392,
 14:53:25.132,f6:90:cc:01:6d:25, 2015-01-01 00:24:10.645, 0.958, -0.205, 0.12, 0.244, -0.061, 0, -59.167, -76.102, -122.739, -31.960, -11.193, -4.893, 29.7, 0.06046, -0.65659, 0.08472, -0.74695,
 14:53:25.132,f6:90:cc:01:6d:25, 2015-01-01 00:24:10.645, 0.958, -0.204, 0.122, -0.061, 0, 0, -59.172, -76.102, -122.728, -31.960, -11.193, -4.893, 29.7, 0.06046, -0.65659, 0.08472, -0.74695,
 14:53:25.151,ed:40:fe:65:30:6c, 2015-01-01 00:24:12.210, 0.762, -0.181, 0.633, -0.183, 0.122, 0.122, -16.392, -49.037, -111.061, -24.313, -5.673, -2.680, 24.57, 0.46042, -0.41187, -0.12561, -0.77621,
 14:53:25.151,ed:40:fe:65:30:6c, 2015-01-01 00:24:12.210, 0.761, -0.183, 0.633, -0.122, 0.305, 0.061, -16.392, -49.037, -111.055, -24.313, -5.673, -2.680, 24.57, 0.46042, -0.41187, -0.12561, -0.77621,
 14:53:25.153,ed:35:33:d3:6c:f8, 2015-01-01 00:24:10.815, 0.018, -0.306, 0.945, 0.122, 0.305, 0, -18.1, -0.884, -170.129, -2.773, -3.273, -35.893, 26.73, 0.0838, -0.02094, 0.15607, -0.98392,
 14:53:25.153,ed:35:33:d3:6c:f8, 2015-01-01 00:24:10.815, 0.012, -0.306, 0.952, 0.366, 0.244, -0.183, -18.089, -0.879, -170.134, -2.773, -3.273, -35.893, 26.73, 0.0838, -0.02094, 0.15607, -0.98392,
 14:53:25.172,e3:ca:2d:fd:e0:8c, 2015-01-01 00:24:12.905, 0.985, -0.254, -0.089, 0.061, -0.244, 0, -110.006, -74.713, -95.186, -28.867, -9.420, -5.013, 27.49, 0.0603, 0.69568, -0.24622, 0.67206,
 14:53:25.172,e3:ca:2d:fd:e0:8c, 2015-01-01 00:24:12.905, 0.988, -0.254, -0.091, -0.183, -0.183, 0, -110.023, -74.713, -95.175, -28.867, -9.420, -5.013, 27.49, 0.0603, 0.69568, -0.24622, 0.67206,
 14:53:25.176,f6:90:cc:01:6d:25, 2015-01-01 00:24:10.645, 0.961, -0.202, 0.119, -0.671, -0.183, 0.183, -59.211, -76.102, -122.701, -31.960, -11.193, -4.893, 29.7, 0.06046, -0.65659, 0.08472, -0.74695,
 14:53:25.176,f6:90:cc:01:6d:25, 2015-01-01 00:24:10.645, 0.961, -0.206, 0.12, -0.122, -0.244, 0.305, -59.249, -76.097, -122.662, -31.960, -11.193, -4.893, 29.7, 0.06046, -0.65659, 0.08472, -0.74695,
 14:53:25.195,e3:ca:2d:fd:e0:8c, 2015-01-01 00:24:12.905, 0.988, -0.254, -0.093, 0.061, -0.183, 0, -110.034, -74.713, -95.164, -28.807, -9.100, -5.527, 27.49, 0.0603, 0.69568, -0.24622, 0.67206,
 14:53:25.195,e3:ca:2d:fd:e0:8c, 2015-01-01 00:24:12.905, 0.986, -0.254, -0.094, 0.488, -0.244, 0, -110.039, -74.707, -95.147, -28.807, -9.100, -5.527, 27.49, 0.0603, 0.69568, -0.24622, 0.67206,
 14:53:25.197,ed:35:33:d3:6c:f8, 2015-01-01 00:24:10.815, 0.012, -0.305, 0.955, 0.854, -0.061, 0.305, -18.073, -0.879, -170.134, -2.773, -3.273, -35.893, 26.73, 0.0838, -0.02094, 0.15607, -0.98392,
 14:53:25.197,ed:35:33:d3:6c:f8, 2015-01-01 00:24:10.815, 0.012, -0.312, 0.955, -0.244, -0.732, 0.793, -18.073, -0.884, -170.123, -2.773, -3.273, -35.893, 26.73, 0.0838, -0.02094, 0.15607, -0.98392,
 14:53:25.198,f6:90:cc:01:6d:25, 2015-01-01 00:24:10.645, 0.96, -0.207, 0.117, 0.183, -0.244, 0.244, -59.277, -76.097, -122.624, -31.893, -10.700, -4.500, 29.7, 0.06046, -0.65659, 0.08472, -0.74695,
 14:53:25.198,f6:90:cc:01:6d:25, 2015-01-01 00:24:10.645, 0.959, -0.207, 0.116, 0.183, -0.183, 0, -59.293, -76.097, -122.602, -31.893, -10.700, -4.500, 29.7, 0.06046, -0.65659, 0.08472, -0.74695,
 14:53:25.218,ed:40:fe:65:30:6c, 2015-01-01 00:24:12.210, 0.762, -0.188, 0.636, -0.122, 0.183, 0.244, -16.397, -49.032, -111.055, -24.480, -5.307, -2.513, 24.57, 0.46042, -0.41187, -0.12561, -0.77621,
 14:53:25.218,ed:40:fe:65:30:6c, 2015-01-01 00:24:12.210, 0.76, -0.194, 0.634, 0, -0.122, 0.244, -16.403, -49.026, -111.044, -24.480, -5.307, -2.513, 24.57, 0.46042, -0.41187, -0.12561, -0.77621,
 14:53:25.220,ed:35:33:d3:6c:f8, 2015-01-01 00:24:10.815, 0.015, -0.313, 0.951, -0.61, -0.916, 0.183, -18.083, -0.895, -170.107, -2.773, -3.273, -35.893, 26.73, 0.0838, -0.02094, 0.15607, -0.98392,
 14:53:25.220,ed:35:33:d3:6c:f8, 2015-01-01 00:24:10.815, 0.016, -0.31, 0.946, -0.366, -0.61, -0.366, -18.089, -0.906, -170.101, -2.773, -3.273, -35.893, 26.73, 0.0838, -0.02094, 0.15607, -0.98392,
 14:53:25.239,e3:ca:2d:fd:e0:8c, 2015-01-01 00:24:12.905, 0.987, -0.254, -0.094, 0.244, -0.183, 0, -110.045, -74.707, -95.131, -28.807, -9.100, -5.527, 27.49, 0.0603, 0.69568, -0.24622, 0.67206,
 14:53:25.239,e3:ca:2d:fd:e0:8c, 2015-01-01 00:24:12.905, 0.986, -0.254, -0.094, 0, -0.122, 0, -110.05, -74.707, -95.12, -28.807, -9.100, -5.527, 27.49, 0.0603, 0.69568, -0.24622, 0.67206,
 14:53:25.240,ed:40:fe:65:30:6c, 2015-01-01 00:24:12.210, 0.759, -0.189, 0.632, 0, -0.305, 0.122, -16.408, -49.032, -111.033, -24.480, -5.307, -2.513, 24.57, 0.46097, -0.41205, -0.12546, -0.77579,
 14:53:25.240,ed:40:fe:65:30:6c, 2015-01-01 00:24:12.210, 0.758, -0.187, 0.631, -0.061, -0.244, 0, -16.414, -49.037, -111.028, -24.480, -5.307, -2.513, 24.57, 0.46097, -0.41205, -0.12546, -0.77579,
 14:53:25.243,f6:90:cc:01:6d:25, 2015-01-01 00:24:10.645, 0.957, -0.204, 0.119, -0.061, -0.183, 0, -59.315, -76.102, -122.58, -31.893, -10.700, -4.500, 29.7, 0.06046, -0.65659, 0.08472, -0.74695,
 14:53:25.243,f6:90:cc:01:6d:25, 2015-01-01 00:24:10.645, 0.958, -0.204, 0.118, -0.061, -0.122, -0.061, -59.326, -76.102, -122.563, -31.893, -10.700, -4.500, 29.7, 0.06046, -0.65659, 0.08472, -0.74695,
 14:53:25.262,e3:ca:2d:fd:e0:8c, 2015-01-01 00:24:12.905, 0.986, -0.253, -0.094, -0.061, -0.183, 0, -110.067, -74.702, -95.109, -28.807, -9.100, -5.527, 27.49, 0.05945, 0.69617, -0.24603, 0.67169,
 14:53:25.262,e3:ca:2d:fd:e0:8c, 2015-01-01 00:24:12.905, 0.986, -0.255, -0.093, -0.122, -0.061, 0, -110.072, -74.702, -95.103, -28.807, -9.100, -5.527, 27.49, 0.05945, 0.69617, -0.24603, 0.67169,
 14:53:25.264,ed:35:33:d3:6c:f8, 2015-01-01 00:24:10.815, 0.017, -0.309, 0.946, -0.061, -0.244, -0.366, -18.089, -0.917, -170.107, -2.773, -3.273, -35.893, 26.73, 0.0838, -0.02094, 0.15607, -0.98392,
 14:53:25.264,ed:35:33:d3:6c:f8, 2015-01-01 00:24:10.815, 0.013, -0.309, 0.947, 0.244, -0.061, 0, -18.089, -0.917, -170.107, -2.773, -3.273, -35.893, 26.73, 0.0838, -0.02094, 0.15607, -0.98392,
 14:53:25.287,ed:40:fe:65:30:6c, 2015-01-01 00:24:12.210, 0.761, -0.187, 0.63, -0.183, -0.061, -0.061, -16.414, -49.037, -111.028, -24.480, -5.307, -2.513, 24.57, 0.46097, -0.41205, -0.12546, -0.77579,
 14:53:25.287,ed:40:fe:65:30:6c, 2015-01-01 00:24:12.210, 0.76, -0.189, 0.631, -0.122, 0.061, -0.061, -16.419, -49.037, -111.028, -24.480, -5.307, -2.513, 24.57, 0.46097, -0.41205, -0.12546, -0.77579,
 14:53:25.289,f6:90:cc:01:6d:25, 2015-01-01 00:24:10.645, 0.959, -0.205, 0.118, -0.061, -0.122, -0.122, -59.343, -76.108, -122.552, -31.893, -10.700, -4.500, 29.7, 0.06119, -0.65692, 0.08444, -0.74664,
 14:53:25.289,f6:90:cc:01:6d:25, 2015-01-01 00:24:10.645, 0.958, -0.208, 0.118, -0.061, -0.061, -0.122, -59.348, -76.108, -122.547, -31.893, -10.700, -4.500, 29.7, 0.06119, -0.65692, 0.08444, -0.74664,
 14:53:25.307,e3:ca:2d:fd:e0:8c, 2015-01-01 00:24:12.905, 0.986, -0.257, -0.092, -0.183, -0.061, 0, -110.083, -74.702, -95.098, -28.807, -9.100, -5.527, 27.49, 0.05945, 0.69617, -0.24603, 0.67169,
 14:53:25.307,e3:ca:2d:fd:e0:8c, 2015-01-01 00:24:12.905, 0.986, -0.257, -0.092, -0.122, 0, 0, -110.083, -74.702, -95.098, -28.807, -9.100, -5.527, 27.49, 0.05945, 0.69617, -0.24603, 0.67169,
 14:53:25.309,ed:40:fe:65:30:6c, 2015-01-01 00:24:12.590, 0.76, -0.189, 0.633, 0, 0.183, 0, -16.419, -49.037, -111.028, -24.480, -5.307, -2.513, 24.57, 0.46097, -0.41205, -0.12546, -0.77579,
 14:53:25.309,ed:40:fe:65:30:6c, 2015-01-01 00:24:12.590, 0.761, -0.189, 0.634, 0.122, 0.061, 0, -16.419, -49.037, -111.028, -24.480, -5.307, -2.513, 24.57, 0.46097, -0.41205, -0.12546, -0.77579,
 14:53:25.310,ed:35:33:d3:6c:f8, 2015-01-01 00:24:10.815, 0.014, -0.309, 0.949, 0.061, 0, 0.61, -18.083, -0.912, -170.096, -2.773, -3.273, -35.893, 26.73, 0.0838, -0.02094, 0.15607, -0.98392,
 14:53:25.310,ed:35:33:d3:6c:f8, 2015-01-01 00:24:10.815, 0.015, -0.31, 0.952, 0, 0, 0.488, -18.083, -0.912, -170.079, -2.773, -3.273, -35.893, 26.73, 0.0838, -0.02094, 0.15607, -0.98392,
 14:53:25.333,f6:90:cc:01:6d:25, 2015-01-01 00:24:10.955, 0.96, -0.208, 0.119, -0.061, -0.061, -0.122, -59.359, -76.113, -122.542, -31.893, -10.700, -4.500, 29.7, 0.06119, -0.65692, 0.08444, -0.74664,
 14:53:25.333,f6:90:cc:01:6d:25, 2015-01-01 00:24:10.955, 0.96, -0.208, 0.118, 0, 0, -0.122, -59.359, -76.113, -122.536, -31.893, -10.700, -4.500, 29.7, 0.06119, -0.65692, 0.08444, -0.74664,
 14:53:25.353,ed:40:fe:65:30:6c, 2015-01-01 00:24:12.590, 0.76, -0.188, 0.634, 0.061, 0, 0.061, -16.419, -49.032, -111.022, -24.480, -5.307, -2.513, 24.57, 0.46097, -0.41205, -0.12546, -0.77579,
 14:53:25.353,ed:40:fe:65:30:6c, 2015-01-01 00:24:12.590, 0.761, -0.186, 0.631, 0.061, -0.061, 0.122, -16.419, -49.032, -111.017, -24.480, -5.307, -2.513, 24.57, 0.46097, -0.41205, -0.12546, -0.77579,
 14:53:25.353,e3:ca:2d:fd:e0:8c, 2015-01-01 00:24:13.260, 0.987, -0.257, -0.092, 0, 0, 0, -110.083, -74.702, -95.098, -28.807, -9.100, -5.527, 27.49, 0.05945, 0.69617, -0.24603, 0.67169,
 14:53:25.353,e3:ca:2d:fd:e0:8c, 2015-01-01 00:24:13.260, 0.986, -0.255, -0.093, 0.061, 0, 0, -110.083, -74.696, -95.098, -28.807, -9.100, -5.527, 27.49, 0.05945, 0.69617, -0.24603, 0.67169,
 14:53:25.375,e3:ca:2d:fd:e0:8c, 2015-01-01 00:24:13.260, 0.987, -0.253, -0.092, 0, -0.061, 0, -110.083, -74.696, -95.098, -28.807, -9.100, -5.527, 27.49, 0.05945, 0.69617, -0.24603, 0.67169,
 14:53:25.375,e3:ca:2d:fd:e0:8c, 2015-01-01 00:24:13.260, 0.987, -0.253, -0.093, -0.183, 0, 0, -110.083, -74.696, -95.092, -28.807, -9.100, -5.527, 27.49, 0.05945, 0.69617, -0.24603, 0.67169,
 14:53:25.377,ed:35:33:d3:6c:f8, 2015-01-01 00:24:10.815, 0.017, -0.308, 0.953, -0.122, 0, 0.122, -18.083, -0.906, -170.057, -3.127, -3.100, -36.267, 26.73, 0.0838, -0.02094, 0.15607, -0.98392,
 14:53:25.377,ed:35:33:d3:6c:f8, 2015-01-01 00:24:10.815, 0.019, -0.309, 0.949, -0.183, -0.305, 0.061, -18.089, -0.912, -170.041, -3.127, -3.100, -36.267, 26.73, 0.0838, -0.02094, 0.15607, -0.98392,
 14:53:25.379,f6:90:cc:01:6d:25, 2015-01-01 00:24:10.955, 0.959, -0.205, 0.119, 0.122, 0, -0.061, -59.365, -76.113, -122.531, -31.893, -10.700, -4.500, 29.7, 0.06119, -0.65692, 0.08444, -0.74664,
 14:53:25.379,f6:90:cc:01:6d:25, 2015-01-01 00:24:10.955, 0.959, -0.203, 0.118, 0.061, 0.183, 0, -59.359, -76.113, -122.536, -31.893, -10.700, -4.500, 29.7, 0.06119, -0.65692, 0.08444, -0.74664,
 14:53:25.399,ed:40:fe:65:30:6c, 2015-01-01 00:24:12.590, 0.76, -0.185, 0.63, 0.061, 0.061, 0, -16.425, -49.032, -111.017, -24.480, -5.307, -2.513, 24.57, 0.46097, -0.41205, -0.12546, -0.77579,
 14:53:25.399,ed:40:fe:65:30:6c, 2015-01-01 00:24:12.590, 0.76, -0.181, 0.631, 0.061, 0.122, 0.122, -16.425, -49.032, -111.011, -24.480, -5.307, -2.513, 24.57, 0.46097, -0.41205, -0.12546, -0.77579,
 14:53:25.402,f6:90:cc:01:6d:25, 2015-01-01 00:24:10.955, 0.959, -0.203, 0.118, -0.061, 0.183, 0, -59.359, -76.113, -122.542, -31.893, -10.700, -4.500, 29.7, 0.06119, -0.65692, 0.08444, -0.74664,
 14:53:25.402,f6:90:cc:01:6d:25, 2015-01-01 00:24:10.955, 0.959, -0.203, 0.118, 0, 0.244, 0, -59.348, -76.108, -122.552, -31.893, -10.700, -4.500, 29.7, 0.06119, -0.65692, 0.08444, -0.74664,
 14:53:25.420,e3:ca:2d:fd:e0:8c, 2015-01-01 00:24:13.260, 0.986, -0.254, -0.094, -0.183, 0, 0, -110.089, -74.696, -95.098, -28.807, -9.100, -5.527, 27.49, 0.05945, 0.69617, -0.24603, 0.67169,
 14:53:25.420,e3:ca:2d:fd:e0:8c, 2015-01-01 00:24:13.260, 0.988, -0.253, -0.095, 0, 0.061, 0, -110.083, -74.696, -95.098, -28.807, -9.100, -5.527, 27.49, 0.05945, 0.69617, -0.24603, 0.67169,
 14:53:25.420,ed:40:fe:65:30:6c, 2015-01-01 00:24:12.590, 0.76, -0.182, 0.632, -0.061, 0.244, 0.305, -16.425, -49.026, -111.006, -24.480, -5.307, -2.513, 24.57, 0.46097, -0.41205, -0.12546, -0.77579,
 14:53:25.420,ed:40:fe:65:30:6c, 2015-01-01 00:24:12.590, 0.762, -0.189, 0.633, 0, 0.183, 0.305, -16.43, -49.021, -111, -24.480, -5.307, -2.513, 24.57, 0.46097, -0.41205, -0.12546, -0.77579,
 14:53:25.421,ed:35:33:d3:6c:f8, 2015-01-01 00:24:10.815, 0.019, -0.308, 0.947, -0.244, 0, -0.183, -18.094, -0.912, -170.035, -3.127, -3.100, -36.267, 26.73, 0.0845, -0.02151, 0.15594, -0.98386,
 14:53:25.421,ed:35:33:d3:6c:f8, 2015-01-01 00:24:10.815, 0.016, -0.301, 0.95, -0.244, 0.122, -0.244, -18.094, -0.912, -170.024, -3.127, -3.100, -36.267, 26.73, 0.0845, -0.02151, 0.15594, -0.98386,
 14:53:25.445,f6:90:cc:01:6d:25, 2015-01-01 00:24:10.955, 0.96, -0.203, 0.117, 0.061, 0.183, 0.122, -59.343, -76.108, -122.552, -31.893, -10.700, -4.500, 29.7, 0.06119, -0.65692, 0.08444, -0.74664,
 14:53:25.445,f6:90:cc:01:6d:25, 2015-01-01 00:24:10.955, 0.961, -0.205, 0.117, 0, 0.122, 0, -59.343, -76.108, -122.552, -31.893, -10.700, -4.500, 29.7, 0.06119, -0.65692, 0.08444, -0.74664,
 14:53:25.465,e3:ca:2d:fd:e0:8c, 2015-01-01 00:24:13.260, 0.987, -0.253, -0.094, 0.122, 0.183, 0, -110.072, -74.696, -95.109, -28.807, -9.100, -5.527, 27.49, 0.05945, 0.69617, -0.24603, 0.67169,
 14:53:25.465,e3:ca:2d:fd:e0:8c, 2015-01-01 00:24:13.260, 0.986, -0.253, -0.093, -0.061, 0.183, 0, -110.067, -74.696, -95.125, -28.807, -9.100, -5.527, 27.49, 0.05945, 0.69617, -0.24603, 0.67169,
 14:53:25.467,ed:35:33:d3:6c:f8, 2015-01-01 00:24:10.815, 0.012, -0.3, 0.953, -0.061, 0.366, 0.244, -18.094, -0.906, -170.013, -3.127, -3.100, -36.267, 26.73, 0.0845, -0.02151, 0.15594, -0.98386,
 14:53:25.467,ed:35:33:d3:6c:f8, 2015-01-01 00:24:10.815, 0.012, -0.312, 0.952, -0.366, -0.122, 0.305, -18.1, -0.906, -169.986, -3.127, -3.100, -36.267, 26.73, 0.0845, -0.02151, 0.15594, -0.98386,
 14:53:25.467,ed:40:fe:65:30:6c, 2015-01-01 00:24:12.590, 0.761, -0.192, 0.634, 0, 0, 0, -16.436, -49.021, -110.995, -24.480, -5.307, -2.513, 24.57, 0.46097, -0.41205, -0.12546, -0.77579,
 14:53:25.467,ed:40:fe:65:30:6c, 2015-01-01 00:24:12.590, 0.76, -0.19, 0.632, 0.061, -0.061, -0.244, -16.43, -49.021, -110.995, -24.480, -5.307, -2.513, 24.57, 0.46097, -0.41205, -0.12546, -0.77579,
 14:53:25.490,ed:35:33:d3:6c:f8, 2015-01-01 00:24:11.150, 0.016, -0.316, 0.952, -0.549, -0.427, -0.122, -18.105, -0.912, -169.975, -3.127, -3.100, -36.267, 26.73, 0.0845, -0.02151, 0.15594, -0.98386,
 14:53:25.490,ed:35:33:d3:6c:f8, 2015-01-01 00:24:11.150, 0.017, -0.315, 0.948, 0, -0.122, -0.305, -18.111, -0.917, -169.969, -3.127, -3.100, -36.267, 26.73, 0.0845, -0.02151, 0.15594, -0.98386,
 14:53:25.491,f6:90:cc:01:6d:25, 2015-01-01 00:24:10.955, 0.958, -0.206, 0.118, -0.122, 0.122, -0.061, -59.343, -76.108, -122.558, -31.893, -10.700, -4.500, 29.7, 0.06119, -0.65692, 0.08444, -0.74664,
 14:53:25.491,f6:90:cc:01:6d:25, 2015-01-01 00:24:10.955, 0.958, -0.204, 0.118, 0, 0.244, -0.122, -59.332, -76.108, -122.569, -31.893, -10.700, -4.500, 29.7, 0.06119, -0.65692, 0.08444, -0.74664,
 14:53:25.510,e3:ca:2d:fd:e0:8c, 2015-01-01 00:24:13.260, 0.986, -0.254, -0.093, -0.244, 0.122, 0, -110.061, -74.696, -95.131, -28.807, -9.100, -5.527, 27.49, 0.05945, 0.69617, -0.24603, 0.67169,
 14:53:25.510,e3:ca:2d:fd:e0:8c, 2015-01-01 00:24:13.260, 0.986, -0.256, -0.093, -0.183, 0.183, 0, -110.056, -74.696, -95.147, -28.807, -9.100, -5.527, 27.49, 0.05945, 0.69617, -0.24603, 0.67169,
 14:53:25.511,ed:40:fe:65:30:6c, 2015-01-01 00:24:12.590, 0.759, -0.186, 0.631, 0.244, 0, -0.305, -16.425, -49.026, -111, -24.480, -5.307, -2.513, 24.57, 0.46097, -0.41205, -0.12546, -0.77579,
 14:53:25.511,ed:40:fe:65:30:6c, 2015-01-01 00:24:12.590, 0.758, -0.184, 0.632, 0.244, 0.183, -0.366, -16.414, -49.026, -111.011, -24.480, -5.307, -2.513, 24.57, 0.46097, -0.41205, -0.12546, -0.77579,
 14:53:25.512,ed:35:33:d3:6c:f8, 2015-01-01 00:24:11.150, 0.018, -0.31, 0.948, 0.488, 0, -0.244, -18.1, -0.917, -169.98, -3.127, -3.100, -36.267, 26.73, 0.0845, -0.02151, 0.15594, -0.98386,
 14:53:25.512,ed:35:33:d3:6c:f8, 2015-01-01 00:24:11.150, 0.014, -0.306, 0.947, 1.038, 0.122, -0.061, -18.083, -0.917, -169.986, -3.127, -3.100, -36.267, 26.73, 0.0845, -0.02151, 0.15594, -0.98386,
 14:53:25.532,e3:ca:2d:fd:e0:8c, 2015-01-01 00:24:13.260, 0.986, -0.255, -0.092, 0, 0.183, 0, -110.045, -74.696, -95.158, -28.347, -8.540, -5.360, 27.49, 0.05945, 0.69617, -0.24603, 0.67169,
 14:53:25.532,e3:ca:2d:fd:e0:8c, 2015-01-01 00:24:13.260, 0.986, -0.254, -0.092, 0.122, 0.244, 0, -110.028, -74.696, -95.175, -28.347, -8.540, -5.360, 27.49, 0.05945, 0.69617, -0.24603, 0.67169,
 14:53:25.535,f6:90:cc:01:6d:25, 2015-01-01 00:24:10.955, 0.958, -0.204, 0.118, -0.122, 0.244, 0, -59.321, -76.108, -122.585, -32.093, -10.913, -4.367, 29.7, 0.06119, -0.65692, 0.08444, -0.74664,
 14:53:25.535,f6:90:cc:01:6d:25, 2015-01-01 00:24:10.955, 0.959, -0.204, 0.12, -0.244, 0.122, 0, -59.315, -76.108, -122.591, -32.093, -10.913, -4.367, 29.7, 0.06119, -0.65692, 0.08444, -0.74664,
 14:53:25.561,f6:90:cc:01:6d:25, 2015-01-01 00:24:10.955, 0.96, -0.205, 0.121, -0.305, 0.061, 0.183, -59.321, -76.102, -122.591, -32.093, -10.913, -4.367, 29.7, 0.06104, -0.65692, 0.08456, -0.74664,
 14:53:25.561,f6:90:cc:01:6d:25, 2015-01-01 00:24:10.955, 0.96, -0.206, 0.12, -0.061, 0.061, 0.183, -59.337, -76.102, -122.58, -32.093, -10.913, -4.367, 29.7, 0.06104, -0.65692, 0.08456, -0.74664,
 14:53:25.577,ed:40:fe:65:30:6c, 2015-01-01 00:24:12.590, 0.757, -0.181, 0.634, 0.122, 0.244, -0.305, -16.403, -49.026, -111.022, -24.520, -5.213, -1.680, 24.57, 0.46097, -0.41205, -0.12546, -0.77579,
 14:53:25.577,ed:40:fe:65:30:6c, 2015-01-01 00:24:12.590, 0.761, -0.183, 0.636, 0, 0.122, -0.183, -16.392, -49.021, -111.028, -24.520, -5.213, -1.680, 24.57, 0.46097, -0.41205, -0.12546, -0.77579,
 14:53:25.577,e3:ca:2d:fd:e0:8c, 2015-01-01 00:24:13.260, 0.987, -0.254, -0.091, 0.122, 0.244, 0, -110.006, -74.696, -95.191, -28.347, -8.540, -5.360, 27.49, 0.05945, 0.69617, -0.24603, 0.67169,
 14:53:25.577,e3:ca:2d:fd:e0:8c, 2015-01-01 00:24:13.260, 0.987, -0.253, -0.092, 0, 0.122, 0, -109.995, -74.702, -95.202, -28.347, -8.540, -5.360, 27.49, 0.05945, 0.69617, -0.24603, 0.67169,
 14:53:25.579,ed:35:33:d3:6c:f8, 2015-01-01 00:24:11.150, 0.01, -0.303, 0.949, 0.854, 0.244, -0.244, -18.062, -0.912, -169.991, -3.127, -3.100, -36.267, 26.73, 0.0845, -0.02151, 0.15594, -0.98386,
 14:53:25.579,ed:35:33:d3:6c:f8, 2015-01-01 00:24:11.150, 0.016, -0.3, 0.954, 0.122, 0.244, -0.854, -18.056, -0.912, -170.008, -3.127, -3.100, -36.267, 26.73, 0.0845, -0.02151, 0.15594, -0.98386,
 14:53:25.601,ed:40:fe:65:30:6c, 2015-01-01 00:24:12.590, 0.761, -0.183, 0.635, -0.122, 0, 0, -16.392, -49.021, -111.028, -24.520, -5.213, -1.680, 24.57, 0.46109, -0.4119, -0.12555, -0.77579,
 14:53:25.601,ed:40:fe:65:30:6c, 2015-01-01 00:24:12.590, 0.761, -0.184, 0.633, -0.122, 0, 0.244, -16.392, -49.021, -111.022, -24.520, -5.213, -1.680, 24.57, 0.46109, -0.4119, -0.12555, -0.77579,
 14:53:25.602,ed:35:33:d3:6c:f8, 2015-01-01 00:24:11.150, 0.018, -0.3, 0.955, -0.122, 0.061, -0.916, -18.056, -0.917, -170.03, -3.127, -3.100, -36.267, 26.73, 0.0845, -0.02151, 0.15594, -0.98386,
 14:53:25.602,ed:35:33:d3:6c:f8, 2015-01-01 00:24:11.150, 0.016, -0.302, 0.951, -0.488, 0.122, -0.916, -18.062, -0.917, -170.052, -3.127, -3.100, -36.267, 26.73, 0.0845, -0.02151, 0.15594, -0.98386,
 14:53:25.603,f6:90:cc:01:6d:25, 2015-01-01 00:24:10.955, 0.959, -0.206, 0.118, 0.183, 0.122, 0.244, -59.343, -76.097, -122.569, -32.093, -10.913, -4.367, 29.7, 0.06104, -0.65692, 0.08456, -0.74664,
 14:53:25.603,f6:90:cc:01:6d:25, 2015-01-01 00:24:10.955, 0.959, -0.207, 0.117, 0.366, 0.244, 0.183, -59.343, -76.091, -122.563, -32.093, -10.913, -4.367, 29.7, 0.06104, -0.65692, 0.08456, -0.74664,
 14:53:25.624,ed:35:33:d3:6c:f8, 2015-01-01 00:24:11.150, 0.015, -0.306, 0.95, -0.61, 0, -0.366, -18.067, -0.917, -170.068, -3.127, -3.100, -36.267, 26.73, 0.0845, -0.02151, 0.15594, -0.98386,
 14:53:25.624,ed:35:33:d3:6c:f8, 2015-01-01 00:24:11.150, 0.014, -0.312, 0.949, -0.671, 0, 0.061, -18.078, -0.917, -170.074, -3.127, -3.100, -36.267, 26.73, 0.0845, -0.02151, 0.15594, -0.98386,
 14:53:25.644,e3:ca:2d:fd:e0:8c, 2015-01-01 00:24:13.260, 0.987, -0.254, -0.093, 0.122, 0.061, 0, -109.99, -74.702, -95.208, -28.347, -8.540, -5.360, 27.49, 0.05957, 0.69601, -0.24622, 0.67178,
 14:53:25.644,e3:ca:2d:fd:e0:8c, 2015-01-01 00:24:13.260, 0.986, -0.254, -0.093, 0.122, 0.122, 0, -109.979, -74.702, -95.219, -28.347, -8.540, -5.360, 27.49, 0.05957, 0.69601, -0.24622, 0.67178,
 14:53:25.646,ed:40:fe:65:30:6c, 2015-01-01 00:24:12.590, 0.76, -0.188, 0.633, 0, 0, 0.427, -16.403, -49.021, -111.011, -24.520, -5.213, -1.680, 24.57, 0.46109, -0.4119, -0.12555, -0.77579,
 14:53:25.646,ed:40:fe:65:30:6c, 2015-01-01 00:24:12.590, 0.76, -0.191, 0.632, 0.183, 0, 0.427, -16.408, -49.016, -111, -24.520, -5.213, -1.680, 24.57, 0.46109, -0.4119, -0.12555, -0.77579,
 14:53:25.648,f6:90:cc:01:6d:25, 2015-01-01 00:24:11.250, 0.958, -0.209, 0.117, 0.427, 0.244, 0.122, -59.337, -76.086, -122.569, -32.093, -10.913, -4.367, 29.7, 0.06104, -0.65692, 0.08456, -0.74664,
 14:53:25.648,f6:90:cc:01:6d:25, 2015-01-01 00:24:11.250, 0.959, -0.207, 0.118, 0.305, 0.244, 0, -59.321, -76.08, -122.574, -32.093, -10.913, -4.367, 29.7, 0.06104, -0.65692, 0.08456, -0.74664,
 14:53:25.667,e3:ca:2d:fd:e0:8c, 2015-01-01 00:24:13.595, 0.987, -0.257, -0.093, -0.061, 0.183, 0, -109.968, -74.702, -95.229, -28.347, -8.540, -5.360, 27.49, 0.05957, 0.69601, -0.24622, 0.67178,
 14:53:25.667,e3:ca:2d:fd:e0:8c, 2015-01-01 00:24:13.595, 0.985, -0.256, -0.093, -0.122, 0.244, 0, -109.957, -74.702, -95.246, -28.347, -8.540, -5.360, 27.49, 0.05957, 0.69601, -0.24622, 0.67178,
 14:53:25.668,ed:40:fe:65:30:6c, 2015-01-01 00:24:12.590, 0.761, -0.192, 0.633, 0.549, 0.061, 0.305, -16.408, -49.016, -110.989, -24.520, -5.213, -1.680, 24.57, 0.46109, -0.4119, -0.12555, -0.77579,
 14:53:25.668,ed:40:fe:65:30:6c, 2015-01-01 00:24:12.590, 0.759, -0.192, 0.631, 0.671, 0.061, 0.122, -16.403, -49.01, -110.984, -24.520, -5.213, -1.680, 24.57, 0.46109, -0.4119, -0.12555, -0.77579,
 14:53:25.670,ed:35:33:d3:6c:f8, 2015-01-01 00:24:11.150, 0.016, -0.315, 0.948, -0.244, 0.366, 0.122, -18.083, -0.912, -170.074, -3.127, -3.100, -36.267, 26.73, 0.0845, -0.02151, 0.15594, -0.98386,
 14:53:25.670,ed:35:33:d3:6c:f8, 2015-01-01 00:24:11.150, 0.014, -0.314, 0.949, 0.488, 0.549, 0.427, -18.078, -0.901, -170.057, -3.127, -3.100, -36.267, 26.73, 0.0845, -0.02151, 0.15594, -0.98386,
 14:53:25.693,f6:90:cc:01:6d:25, 2015-01-01 00:24:11.250, 0.958, -0.205, 0.118, 0.366, 0.366, 0, -59.31, -76.08, -122.585, -32.093, -10.913, -4.367, 29.7, 0.06104, -0.65692, 0.08456, -0.74664,
 14:53:25.693,f6:90:cc:01:6d:25, 2015-01-01 00:24:11.250, 0.958, -0.205, 0.12, 0, 0.366, 0, -59.288, -76.075, -122.607, -32.093, -10.913, -4.367, 29.7, 0.06104, -0.65692, 0.08456, -0.74664,
 14:53:25.711,e3:ca:2d:fd:e0:8c, 2015-01-01 00:24:13.595, 0.986, -0.256, -0.093, -0.061, 0.305, 0, -109.935, -74.702, -95.268, -28.347, -8.540, -5.360, 27.49, 0.05957, 0.69601, -0.24622, 0.67178,
 14:53:25.711,e3:ca:2d:fd:e0:8c, 2015-01-01 00:24:13.595, 0.986, -0.255, -0.091, -0.061, 0.183, 0, -109.924, -74.702, -95.284, -28.347, -8.540, -5.360, 27.49, 0.05957, 0.69601, -0.24622, 0.67178,
 14:53:25.713,ed:40:fe:65:30:6c, 2015-01-01 00:24:12.590, 0.757, -0.186, 0.633, 0.244, 0.122, -0.061, -16.392, -49.01, -110.984, -24.520, -5.213, -1.680, 24.57, 0.46109, -0.4119, -0.12555, -0.77579,
 14:53:25.713,ed:40:fe:65:30:6c, 2015-01-01 00:24:12.590, 0.762, -0.181, 0.635, 0.061, 0.122, -0.122, -16.392, -49.01, -110.984, -24.520, -5.213, -1.680, 24.57, 0.46109, -0.4119, -0.12555, -0.77579,
 14:53:25.735,e3:ca:2d:fd:e0:8c, 2015-01-01 00:24:13.595, 0.987, -0.255, -0.093, -0.244, 0.305, 0, -109.913, -74.702, -95.306, -28.347, -8.540, -5.360, 27.49, 0.05957, 0.69601, -0.24622, 0.67178,
 14:53:25.735,e3:ca:2d:fd:e0:8c, 2015-01-01 00:24:13.595, 0.988, -0.254, -0.092, 0, 0.305, 0, -109.891, -74.702, -95.328, -28.347, -8.540, -5.360, 27.49, 0.05957, 0.69601, -0.24622, 0.67178,
 14:53:25.737,ed:35:33:d3:6c:f8, 2015-01-01 00:24:11.150, 0.012, -0.31, 0.949, 0.488, 0.244, 0.549, -18.067, -0.89, -170.041, -3.340, -3.347, -36.600, 26.73, 0.0845, -0.02151, 0.15594, -0.98386,
 14:53:25.737,ed:35:33:d3:6c:f8, 2015-01-01 00:24:11.150, 0.015, -0.303, 0.95, 0.61, 0.793, -0.061, -18.056, -0.879, -170.03, -3.340, -3.347, -36.600, 26.73, 0.0845, -0.02151, 0.15594, -0.98386,
 14:53:25.739,f6:90:cc:01:6d:25, 2015-01-01 00:24:11.250, 0.962, -0.203, 0.119, -0.427, 0.244, 0, -59.277, -76.075, -122.624, -32.093, -10.913, -4.367, 29.7, 0.06104, -0.65692, 0.08456, -0.74664,
