Time,Device name,Chip Time(),Acceleration X(g),Acceleration Y(g),Acceleration Z(g),Angular velocity X(°/s),Angular velocity Y(°/s),Angular velocity Z(°/s),Angle X(°),Angle Y(°),Angle Z(°),Magnetic field X(ʯt),Magnetic field Y(ʯt),Magnetic field Z(ʯt),Temperature(℃),Quaternions 0(),Quaternions 1(),Quaternions 2(),Quaternions 3()
 14:52:37.133,ed:40:fe:65:30:6c, 2015-01-01 00:23:24.640, 0.796, 0.296, 0.532, 0.366, 0, 0, 28.57, -52.734, -141.147, -26.293, -14.907, 1.920, 24.38, 0.392, -0.33289, -0.35126, -0.78232,
 14:52:37.133,ed:40:fe:65:30:6c, 2015-01-01 00:23:24.640, 0.795, 0.293, 0.535, 0.61, 0.061, 0.305, 28.581, -52.734, -141.141, -26.293, -14.907, 1.920, 24.38, 0.392, -0.33289, -0.35126, -0.78232,
 14:52:37.135,ed:35:33:d3:6c:f8, 2015-01-01 00:23:22.955, 0.067, 0.233, 0.97, 0.183, 0.916, 0, 12.969, -3.911, -173.743, -3.480, -13.487, -34.853, 26.54, 0.05231, -0.03, -0.11407, -0.99158,
 14:52:37.135,ed:35:33:d3:6c:f8, 2015-01-01 00:23:22.955, 0.062, 0.234, 0.973, 0.061, 1.038, -0.122, 12.975, -3.889, -173.688, -3.480, -13.487, -34.853, 26.54, 0.05231, -0.03, -0.11407, -0.99158,
 14:52:37.155,e3:ca:2d:fd:e0:8c, 2015-01-01 00:23:25.090, 0.98, 0.183, -0.202, 0.793, -0.061, 0, 137.362, -74.537, 18.226, -22.953, -17.553, -0.773, 27.06, 0.19635, 0.76672, -0.09995, 0.60287,
 14:52:37.155,e3:ca:2d:fd:e0:8c, 2015-01-01 00:23:25.090, 0.98, 0.183, -0.202, 0.732, 0, 0, 137.373, -74.537, 18.243, -22.953, -17.553, -0.773, 27.06, 0.19635, 0.76672, -0.09995, 0.60287,
 14:52:37.160,f6:90:cc:01:6d:25, 2015-01-01 00:23:23.075, 0.921, 0.349, 0.069, 0.305, 0, 0, 78.569, -68.813, 132.616, -25.527, -23.147, 5.400, 29.4, 0.07034, -0.61053, -0.30167, -0.72882,
 14:52:37.160,f6:90:cc:01:6d:25, 2015-01-01 00:23:23.075, 0.92, 0.349, 0.068, 0.61, 0, 0.122, 78.58, -68.813, 132.616, -25.527, -23.147, 5.400, 29.4, 0.07034, -0.61053, -0.30167, -0.72882,
 14:52:37.179,e3:ca:2d:fd:e0:8c, 2015-01-01 00:23:25.425, 0.979, 0.183, -0.201, 0.732, -0.061, 0, 137.395, -74.537, 18.248, -22.953, -17.553, -0.773, 27.06, 0.19635, 0.76672, -0.09995, 0.60287,
 14:52:37.179,e3:ca:2d:fd:e0:8c, 2015-01-01 00:23:25.425, 0.979, 0.184, -0.201, 0.793, -0.061, 0, 137.411, -74.531, 18.265, -22.953, -17.553, -0.773, 27.06, 0.19635, 0.76672, -0.09995, 0.60287,
 14:52:37.180,ed:35:33:d3:6c:f8, 2015-01-01 00:23:22.955, 0.062, 0.229, 0.975, 0, 0.671, -0.366, 12.98, -3.873, -173.655, -3.480, -13.487, -34.853, 26.54, 0.05231, -0.03, -0.11407, -0.99158,
 14:52:37.180,ed:35:33:d3:6c:f8, 2015-01-01 00:23:22.955, 0.06, 0.224, 0.974, 0.244, 0.183, -0.549, 12.986, -3.867, -173.644, -3.480, -13.487, -34.853, 26.54, 0.05231, -0.03, -0.11407, -0.99158,
 14:52:37.181,f6:90:cc:01:6d:25, 2015-01-01 00:23:23.075, 0.921, 0.35, 0.068, 0.793, 0, 0.244, 78.596, -68.818, 132.61, -25.527, -23.147, 5.400, 29.4, 0.07034, -0.61053, -0.30167, -0.72882,
 14:52:37.181,f6:90:cc:01:6d:25, 2015-01-01 00:23:23.075, 0.929, 0.355, 0.066, 0.488, 0.061, 0.366, 78.602, -68.824, 132.605, -25.527, -23.147, 5.400, 29.4, 0.07034, -0.61053, -0.30167, -0.72882,
 14:52:37.200,e3:ca:2d:fd:e0:8c, 2015-01-01 00:23:25.425, 0.98, 0.184, -0.202, 0.916, 0.061, 0, 137.428, -74.531, 18.287, -22.953, -17.553, -0.773, 27.06, 0.19635, 0.76672, -0.09995, 0.60287,
 14:52:37.200,e3:ca:2d:fd:e0:8c, 2015-01-01 00:23:25.425, 0.982, 0.184, -0.203, 0.916, 0.244, 0.305, 137.455, -74.537, 18.314, -22.953, -17.553, -0.773, 27.06, 0.19635, 0.76672, -0.09995, 0.60287,
 14:52:37.201,ed:40:fe:65:30:6c, 2015-01-01 00:23:24.640, 0.795, 0.293, 0.535, 0.61, 0.122, 0.427, 28.586, -52.74, -141.125, -26.293, -14.907, 1.920, 24.38, 0.392, -0.33289, -0.35126, -0.78232,
 14:52:37.201,ed:40:fe:65:30:6c, 2015-01-01 00:23:24.640, 0.805, 0.295, 0.536, 0.671, -0.366, 0.366, 28.597, -52.74, -141.114, -26.293, -14.907, 1.920, 24.38, 0.392, -0.33289, -0.35126, -0.78232,
 14:52:37.202,ed:35:33:d3:6c:f8, 2015-01-01 00:23:22.955, 0.077, 0.221, 0.976, 0.977, -0.183, -0.732, 13.008, -3.862, -173.655, -3.480, -13.487, -34.853, 26.54, 0.05881, -0.02719, -0.11472, -0.99124,
 14:52:37.202,ed:35:33:d3:6c:f8, 2015-01-01 00:23:22.955, 0.08, 0.218, 0.979, -0.122, 0.671, -2.075, 13.013, -3.845, -173.694, -3.480, -13.487, -34.853, 26.54, 0.05881, -0.02719, -0.11472, -0.99124,
 14:52:37.224,ed:40:fe:65:30:6c, 2015-01-01 00:23:24.640, 0.808, 0.303, 0.535, -0.488, -0.854, -0.244, 28.608, -52.751, -141.119, -26.580, -15.500, 1.773, 24.38, 0.392, -0.33289, -0.35126, -0.78232,
 14:52:37.224,ed:40:fe:65:30:6c, 2015-01-01 00:23:24.640, 0.796, 0.293, 0.528, -2.197, -1.587, -1.465, 28.619, -52.762, -141.158, -26.580, -15.500, 1.773, 24.38, 0.392, -0.33289, -0.35126, -0.78232,
 14:52:37.226,f6:90:cc:01:6d:25, 2015-01-01 00:23:23.075, 0.924, 0.362, 0.067, -0.366, 0.061, 0.916, 78.591, -68.84, 132.599, -25.527, -23.147, 5.400, 29.4, 0.07034, -0.61053, -0.30167, -0.72882,
 14:52:37.226,f6:90:cc:01:6d:25, 2015-01-01 00:23:23.075, 0.92, 0.351, 0.062, -1.282, 0.244, 1.038, 78.558, -68.857, 132.594, -25.527, -23.147, 5.400, 29.4, 0.07034, -0.61053, -0.30167, -0.72882,
 14:52:37.246,e3:ca:2d:fd:e0:8c, 2015-01-01 00:23:25.425, 0.979, 0.186, -0.205, 0.61, 0.305, 0.488, 137.477, -74.548, 18.336, -22.953, -17.553, -0.773, 27.06, 0.19635, 0.76672, -0.09995, 0.60287,
 14:52:37.246,e3:ca:2d:fd:e0:8c, 2015-01-01 00:23:25.425, 0.979, 0.184, -0.207, 0, 0.488, 0.488, 137.483, -74.559, 18.325, -22.953, -17.553, -0.773, 27.06, 0.19635, 0.76672, -0.09995, 0.60287,
 14:52:37.270,ed:35:33:d3:6c:f8, 2015-01-01 00:23:22.955, 0.072, 0.223, 0.966, -1.038, 1.709, -3.784, 13.002, -3.801, -173.771, -3.480, -13.487, -34.853, 26.54, 0.05881, -0.02719, -0.11472, -0.99124,
 14:52:37.270,ed:35:33:d3:6c:f8, 2015-01-01 00:23:22.955, 0.073, 0.237, 0.967, -1.465, 1.038, -3.845, 12.98, -3.763, -173.848, -3.480, -13.487, -34.853, 26.54, 0.05881, -0.02719, -0.11472, -0.99124,
 14:52:37.271,ed:40:fe:65:30:6c, 2015-01-01 00:23:24.640, 0.798, 0.279, 0.527, -2.502, -0.854, -1.648, 28.63, -52.773, -141.229, -26.580, -15.500, 1.773, 24.38, 0.392, -0.33289, -0.35126, -0.78232,
 14:52:37.271,ed:40:fe:65:30:6c, 2015-01-01 00:23:24.640, 0.804, 0.293, 0.523, -2.258, -0.244, -0.854, 28.625, -52.767, -141.29, -26.580, -15.500, 1.773, 24.38, 0.392, -0.33289, -0.35126, -0.78232,
 14:52:37.272,f6:90:cc:01:6d:25, 2015-01-01 00:23:23.075, 0.92, 0.341, 0.062, -1.16, 0.366, 0.61, 78.519, -68.868, 132.589, -25.527, -23.147, 5.400, 29.4, 0.07034, -0.61053, -0.30167, -0.72882,
 14:52:37.272,f6:90:cc:01:6d:25, 2015-01-01 00:23:23.075, 0.923, 0.34, 0.062, -0.549, 0.549, 0.427, 78.481, -68.879, 132.61, -25.527, -23.147, 5.400, 29.4, 0.07034, -0.61053, -0.30167, -0.72882,
 14:52:37.290,e3:ca:2d:fd:e0:8c, 2015-01-01 00:23:25.425, 0.98, 0.181, -0.204, -0.244, 0.732, 0.305, 137.466, -74.57, 18.336, -22.953, -17.553, -0.773, 27.06, 0.19635, 0.76672, -0.09995, 0.60287,
 14:52:37.290,e3:ca:2d:fd:e0:8c, 2015-01-01 00:23:25.425, 0.981, 0.178, -0.202, -0.427, 1.038, 0.122, 137.417, -74.586, 18.364, -22.953, -17.553, -0.773, 27.06, 0.19635, 0.76672, -0.09995, 0.60287,
 14:52:37.291,ed:40:fe:65:30:6c, 2015-01-01 00:23:24.640, 0.801, 0.283, 0.519, -2.625, 0.366, -0.305, 28.597, -52.767, -141.323, -26.580, -15.500, 1.773, 24.38, 0.39114, -0.33295, -0.35153, -0.78262,
 14:52:37.291,ed:40:fe:65:30:6c, 2015-01-01 00:23:24.640, 0.802, 0.283, 0.527, -2.197, 0.916, 0, 28.553, -52.756, -141.328, -26.580, -15.500, 1.773, 24.38, 0.39114, -0.33295, -0.35153, -0.78262,
 14:52:37.292,ed:35:33:d3:6c:f8, 2015-01-01 00:23:23.290, 0.077, 0.235, 0.967, -2.502, 0.916, -3.54, 12.942, -3.735, -173.941, -3.480, -13.487, -34.853, 26.54, 0.05881, -0.02719, -0.11472, -0.99124,
 14:52:37.292,ed:35:33:d3:6c:f8, 2015-01-01 00:23:23.290, 0.065, 0.228, 0.965, -3.54, 1.282, -2.686, 12.887, -3.702, -174.018, -3.480, -13.487, -34.853, 26.54, 0.05881, -0.02719, -0.11472, -0.99124,
 14:52:37.316,f6:90:cc:01:6d:25, 2015-01-01 00:23:23.075, 0.923, 0.338, 0.064, -0.427, 0.977, 0.244, 78.437, -68.879, 132.649, -25.573, -22.980, 5.593, 29.4, 0.07034, -0.61053, -0.30167, -0.72882,
 14:52:37.316,f6:90:cc:01:6d:25, 2015-01-01 00:23:23.075, 0.926, 0.339, 0.067, -0.305, 1.038, 0, 78.387, -68.879, 132.693, -25.573, -22.980, 5.593, 29.4, 0.07034, -0.61053, -0.30167, -0.72882,
 14:52:37.337,ed:40:fe:65:30:6c, 2015-01-01 00:23:24.640, 0.798, 0.289, 0.532, -0.61, 0.977, 0.427, 28.504, -52.745, -141.312, -26.580, -15.500, 1.773, 24.38, 0.39114, -0.33295, -0.35153, -0.78262,
 14:52:37.337,ed:40:fe:65:30:6c, 2015-01-01 00:23:24.640, 0.79, 0.288, 0.539, 1.77, 0.671, 1.099, 28.482, -52.74, -141.284, -26.580, -15.500, 1.773, 24.38, 0.39114, -0.33295, -0.35153, -0.78262,
 14:52:37.339,ed:35:33:d3:6c:f8, 2015-01-01 00:23:23.290, 0.063, 0.228, 0.975, -2.625, 1.77, -1.404, 12.832, -3.669, -174.073, -3.480, -13.487, -34.853, 26.54, 0.05881, -0.02719, -0.11472, -0.99124,
 14:52:37.339,ed:35:33:d3:6c:f8, 2015-01-01 00:23:23.290, 0.048, 0.235, 0.978, -1.465, 1.404, 0.061, 12.805, -3.642, -174.089, -3.480, -13.487, -34.853, 26.54, 0.05881, -0.02719, -0.11472, -0.99124,
 14:52:37.358,e3:ca:2d:fd:e0:8c, 2015-01-01 00:23:25.425, 0.982, 0.177, -0.201, -0.854, 1.221, 0, 137.351, -74.603, 18.424, -22.953, -17.553, -0.773, 27.06, 0.19635, 0.76672, -0.09995, 0.60287,
 14:52:37.358,e3:ca:2d:fd:e0:8c, 2015-01-01 00:23:25.425, 0.982, 0.178, -0.201, -1.038, 1.221, -0.244, 137.263, -74.614, 18.495, -22.953, -17.553, -0.773, 27.06, 0.19635, 0.76672, -0.09995, 0.60287,
 14:52:37.361,f6:90:cc:01:6d:25, 2015-01-01 00:23:23.075, 0.922, 0.341, 0.071, -0.183, 1.099, 0, 78.338, -68.879, 132.753, -25.573, -22.980, 5.593, 29.4, 0.07108, -0.61041, -0.30154, -0.72891,
 14:52:37.361,f6:90:cc:01:6d:25, 2015-01-01 00:23:23.075, 0.919, 0.341, 0.077, 0.122, 0.977, -0.122, 78.294, -68.879, 132.803, -25.573, -22.980, 5.593, 29.4, 0.07108, -0.61041, -0.30154, -0.72891,
 14:52:37.381,e3:ca:2d:fd:e0:8c, 2015-01-01 00:23:25.425, 0.979, 0.18, -0.197, -1.282, 0.977, -0.366, 137.181, -74.625, 18.539, -23.040, -17.493, -1.113, 27.06, 0.19635, 0.76672, -0.09995, 0.60287,
 14:52:37.381,e3:ca:2d:fd:e0:8c, 2015-01-01 00:23:25.425, 0.978, 0.181, -0.194, -1.099, 0.671, -0.488, 137.109, -74.625, 18.589, -23.040, -17.493, -1.113, 27.06, 0.19635, 0.76672, -0.09995, 0.60287,
 14:52:37.381,ed:40:fe:65:30:6c, 2015-01-01 00:23:24.980, 0.787, 0.288, 0.547, 3.723, 0.183, 1.77, 28.493, -52.745, -141.246, -26.580, -15.500, 1.773, 24.38, 0.39114, -0.33295, -0.35153, -0.78262,
 14:52:37.381,ed:40:fe:65:30:6c, 2015-01-01 00:23:24.980, 0.784, 0.29, 0.547, 4.211, -0.305, 2.014, 28.526, -52.762, -141.191, -26.580, -15.500, 1.773, 24.38, 0.39114, -0.33295, -0.35153, -0.78262,
 14:52:37.383,ed:35:33:d3:6c:f8, 2015-01-01 00:23:23.290, 0.042, 0.233, 0.981, -0.183, 1.038, 2.747, 12.799, -3.631, -174.062, -3.480, -13.487, -34.853, 26.54, 0.05881, -0.02719, -0.11472, -0.99124,
 14:52:37.383,ed:35:33:d3:6c:f8, 2015-01-01 00:23:23.290, 0.042, 0.221, 0.98, 0.183, 0.366, 4.272, 12.799, -3.636, -173.969, -3.480, -13.487, -34.853, 26.54, 0.05881, -0.02719, -0.11472, -0.99124,
 14:52:37.384,f6:90:cc:01:6d:25, 2015-01-01 00:23:23.365, 0.915, 0.343, 0.082, 1.099, 0.61, -0.061, 78.283, -68.879, 132.841, -25.573, -22.980, 5.593, 29.4, 0.07108, -0.61041, -0.30154, -0.72891,
 14:52:37.384,f6:90:cc:01:6d:25, 2015-01-01 00:23:23.365, 0.914, 0.348, 0.083, 1.831, 0.305, 0.061, 78.3, -68.879, 132.88, -25.573, -22.980, 5.593, 29.4, 0.07108, -0.61041, -0.30154, -0.72891,
 14:52:37.404,ed:40:fe:65:30:6c, 2015-01-01 00:23:24.980, 0.78, 0.296, 0.544, 3.784, -0.366, 1.77, 28.564, -52.784, -141.141, -26.580, -15.500, 1.773, 24.38, 0.39114, -0.33295, -0.35153, -0.78262,
 14:52:37.404,ed:40:fe:65:30:6c, 2015-01-01 00:23:24.980, 0.788, 0.296, 0.541, 2.38, 0.244, 1.465, 28.592, -52.795, -141.092, -26.580, -15.500, 1.773, 24.38, 0.39114, -0.33295, -0.35153, -0.78262,
 14:52:37.405,ed:35:33:d3:6c:f8, 2015-01-01 00:23:23.290, 0.047, 0.218, 0.973, 0.183, 0.366, 3.296, 12.805, -3.642, -173.875, -3.480, -13.487, -34.853, 26.54, 0.05881, -0.02719, -0.11472, -0.99124,
 14:52:37.405,ed:35:33:d3:6c:f8, 2015-01-01 00:23:23.290, 0.049, 0.221, 0.966, -0.061, 0.122, 1.892, 12.805, -3.647, -173.804, -3.480, -13.487, -34.853, 26.54, 0.05881, -0.02719, -0.11472, -0.99124,
 14:52:37.426,e3:ca:2d:fd:e0:8c, 2015-01-01 00:23:25.425, 0.978, 0.183, -0.188, -0.549, 0.305, -0.488, 137.065, -74.625, 18.627, -23.040, -17.493, -1.113, 27.06, 0.19635, 0.76672, -0.09995, 0.60287,
 14:52:37.426,e3:ca:2d:fd:e0:8c, 2015-01-01 00:23:25.425, 0.976, 0.185, -0.188, 0.122, 0, -0.305, 137.054, -74.619, 18.655, -23.040, -17.493, -1.113, 27.06, 0.19635, 0.76672, -0.09995, 0.60287,
 14:52:37.429,f6:90:cc:01:6d:25, 2015-01-01 00:23:23.365, 0.911, 0.354, 0.083, 1.709, 0.244, 0.305, 78.316, -68.884, 132.913, -25.573, -22.980, 5.593, 29.4, 0.07108, -0.61041, -0.30154, -0.72891,
 14:52:37.429,f6:90:cc:01:6d:25, 2015-01-01 00:23:23.365, 0.916, 0.354, 0.08, 1.099, 0.061, 0.488, 78.322, -68.895, 132.957, -25.573, -22.980, 5.593, 29.4, 0.07108, -0.61041, -0.30154, -0.72891,
 14:52:37.449,ed:40:fe:65:30:6c, 2015-01-01 00:23:24.980, 0.792, 0.299, 0.536, 0.427, 0.61, 1.038, 28.581, -52.795, -141.048, -26.580, -15.500, 1.773, 24.38, 0.39114, -0.33295, -0.35153, -0.78262,
 14:52:37.449,ed:40:fe:65:30:6c, 2015-01-01 00:23:24.980, 0.793, 0.296, 0.537, -0.427, 0.427, 0.549, 28.559, -52.789, -141.004, -26.580, -15.500, 1.773, 24.38, 0.39114, -0.33295, -0.35153, -0.78262,
 14:52:37.449,e3:ca:2d:fd:e0:8c, 2015-01-01 00:23:25.425, 0.977, 0.188, -0.189, 0.732, -0.122, -0.122, 137.065, -74.619, 18.66, -23.040, -17.493, -1.113, 27.06, 0.19571, 0.76633, -0.09885, 0.60379,
 14:52:37.449,e3:ca:2d:fd:e0:8c, 2015-01-01 00:23:25.425, 0.978, 0.19, -0.194, 1.038, -0.183, 0.061, 137.093, -74.619, 18.655, -23.040, -17.493, -1.113, 27.06, 0.19571, 0.76633, -0.09885, 0.60379,
 14:52:37.451,ed:35:33:d3:6c:f8, 2015-01-01 00:23:23.290, 0.053, 0.222, 0.965, -0.732, 0.061, 0, 12.794, -3.642, -173.732, -3.480, -13.487, -34.853, 26.54, 0.05881, -0.02719, -0.11472, -0.99124,
 14:52:37.451,ed:35:33:d3:6c:f8, 2015-01-01 00:23:23.290, 0.052, 0.223, 0.97, -0.977, 0.305, -0.854, 12.777, -3.625, -173.677, -3.480, -13.487, -34.853, 26.54, 0.05881, -0.02719, -0.11472, -0.99124,
 14:52:37.474,f6:90:cc:01:6d:25, 2015-01-01 00:23:23.365, 0.919, 0.356, 0.076, 0.366, 0, 0.61, 78.316, -68.906, 133, -25.573, -22.980, 5.593, 29.4, 0.07108, -0.61041, -0.30154, -0.72891,
 14:52:37.474,f6:90:cc:01:6d:25, 2015-01-01 00:23:23.365, 0.92, 0.354, 0.073, -0.122, -0.061, 0.671, 78.3, -68.917, 133.028, -25.573, -22.980, 5.593, 29.4, 0.07108, -0.61041, -0.30154, -0.72891,
 14:52:37.493,e3:ca:2d:fd:e0:8c, 2015-01-01 00:23:25.425, 0.979, 0.189, -0.198, 1.099, -0.305, 0.305, 137.137, -74.619, 18.633, -23.040, -17.493, -1.113, 27.06, 0.19571, 0.76633, -0.09885, 0.60379,
 14:52:37.493,e3:ca:2d:fd:e0:8c, 2015-01-01 00:23:25.425, 0.98, 0.189, -0.201, 1.16, -0.427, 0.427, 137.197, -74.614, 18.589, -23.040, -17.493, -1.113, 27.06, 0.19571, 0.76633, -0.09885, 0.60379,
 14:52:37.495,ed:35:33:d3:6c:f8, 2015-01-01 00:23:23.290, 0.054, 0.22, 0.975, -0.671, 0.549, -1.16, 12.766, -3.609, -173.628, -3.480, -13.487, -34.853, 26.54, 0.05881, -0.02719, -0.11472, -0.99124,
 14:52:37.495,ed:35:33:d3:6c:f8, 2015-01-01 00:23:23.290, 0.056, 0.223, 0.978, -0.183, 0.244, -0.488, 12.766, -3.593, -173.573, -3.480, -13.487, -34.853, 26.54, 0.05881, -0.02719, -0.11472, -0.99124,
 14:52:37.517,ed:40:fe:65:30:6c, 2015-01-01 00:23:24.980, 0.796, 0.291, 0.537, -0.732, 0.183, 0.183, 28.537, -52.778, -140.977, -26.580, -15.500, 1.773, 24.38, 0.39114, -0.33295, -0.35153, -0.78262,
 14:52:37.517,ed:40:fe:65:30:6c, 2015-01-01 00:23:24.980, 0.798, 0.289, 0.536, -0.427, -0.122, 0.061, 28.521, -52.773, -140.966, -26.580, -15.500, 1.773, 24.38, 0.39114, -0.33295, -0.35153, -0.78262,
 14:52:37.518,f6:90:cc:01:6d:25, 2015-01-01 00:23:23.365, 0.921, 0.35, 0.069, 0, -0.366, 0.549, 78.311, -68.923, 133.022, -25.573, -22.980, 5.593, 29.4, 0.07108, -0.61041, -0.30154, -0.72891,
 14:52:37.518,f6:90:cc:01:6d:25, 2015-01-01 00:23:23.365, 0.923, 0.347, 0.066, 0.366, -0.671, 0.305, 78.344, -68.928, 133.022, -25.573, -22.980, 5.593, 29.4, 0.07108, -0.61041, -0.30154, -0.72891,
 14:52:37.538,e3:ca:2d:fd:e0:8c, 2015-01-01 00:23:25.780, 0.982, 0.188, -0.205, 1.099, -0.488, 0.549, 137.269, -74.614, 18.534, -23.040, -17.493, -1.113, 27.06, 0.19571, 0.76633, -0.09885, 0.60379,
 14:52:37.538,e3:ca:2d:fd:e0:8c, 2015-01-01 00:23:25.780, 0.98, 0.185, -0.205, 1.16, -0.427, 0.549, 137.335, -74.614, 18.463, -23.040, -17.493, -1.113, 27.06, 0.19571, 0.76633, -0.09885, 0.60379,
 14:52:37.561,ed:40:fe:65:30:6c, 2015-01-01 00:23:24.980, 0.803, 0.29, 0.532, 0.122, -0.305, 0.122, 28.521, -52.773, -140.96, -26.580, -15.500, 1.773, 24.38, 0.39114, -0.33295, -0.35153, -0.78262,
 14:52:37.561,ed:40:fe:65:30:6c, 2015-01-01 00:23:24.980, 0.802, 0.292, 0.53, 0.366, -0.305, 0.183, 28.526, -52.778, -140.96, -26.580, -15.500, 1.773, 24.38, 0.39114, -0.33295, -0.35153, -0.78262,
 14:52:37.561,e3:ca:2d:fd:e0:8c, 2015-01-01 00:23:25.780, 0.981, 0.181, -0.205, 1.099, -0.305, 0.488, 137.395, -74.614, 18.413, -23.040, -17.493, -1.113, 27.06, 0.19571, 0.76633, -0.09885, 0.60379,
 14:52:37.561,e3:ca:2d:fd:e0:8c, 2015-01-01 00:23:25.780, 0.979, 0.18, -0.202, 1.099, -0.244, 0.488, 137.455, -74.614, 18.364, -23.040, -17.493, -1.113, 27.06, 0.19571, 0.76633, -0.09885, 0.60379,
 14:52:37.562,ed:35:33:d3:6c:f8, 2015-01-01 00:23:23.290, 0.063, 0.223, 0.979, 0.549, -0.549, 0.549, 12.772, -3.593, -173.513, -3.140, -13.360, -34.307, 26.54, 0.05881, -0.02719, -0.11472, -0.99124,
 14:52:37.562,ed:35:33:d3:6c:f8, 2015-01-01 00:23:23.290, 0.068, 0.224, 0.975, 0.854, -1.099, 0.793, 12.788, -3.609, -173.447, -3.140, -13.360, -34.307, 26.54, 0.05881, -0.02719, -0.11472, -0.99124,
 14:52:37.563,f6:90:cc:01:6d:25, 2015-01-01 00:23:23.365, 0.925, 0.347, 0.065, 0.61, -0.732, 0.183, 78.393, -68.934, 133.033, -25.573, -22.980, 5.593, 29.4, 0.07108, -0.61041, -0.30154, -0.72891,
 14:52:37.563,f6:90:cc:01:6d:25, 2015-01-01 00:23:23.365, 0.923, 0.346, 0.066, 0.732, -0.732, 0.244, 78.442, -68.939, 133.022, -25.573, -22.980, 5.593, 29.4, 0.07108, -0.61041, -0.30154, -0.72891,
 14:52:37.585,ed:40:fe:65:30:6c, 2015-01-01 00:23:24.980, 0.801, 0.294, 0.527, 0.061, -0.183, 0.305, 28.526, -52.778, -140.96, -26.407, -15.187, 1.833, 24.38, 0.39114, -0.33295, -0.35153, -0.78262,
 14:52:37.585,ed:40:fe:65:30:6c, 2015-01-01 00:23:24.980, 0.8, 0.292, 0.528, 0.244, 0, 0.671, 28.521, -52.784, -140.944, -26.407, -15.187, 1.833, 24.38, 0.39114, -0.33295, -0.35153, -0.78262,
 14:52:37.585,ed:35:33:d3:6c:f8, 2015-01-01 00:23:23.290, 0.067, 0.231, 0.972, 0.977, -1.038, 0.732, 12.81, -3.631, -173.381, -3.140, -13.360, -34.307, 26.54, 0.06085, -0.02499, -0.11313, -0.99136,
 14:52:37.585,ed:35:33:d3:6c:f8, 2015-01-01 00:23:23.290, 0.067, 0.232, 0.973, 0.793, -0.549, 0.61, 12.827, -3.636, -173.282, -3.140, -13.360, -34.307, 26.54, 0.06085, -0.02499, -0.11313, -0.99136,
 14:52:37.587,f6:90:cc:01:6d:25, 2015-01-01 00:23:23.365, 0.923, 0.345, 0.065, 0.732, -0.549, 0.366, 78.486, -68.95, 133.017, -25.553, -23.027, 6.127, 29.4, 0.07108, -0.61041, -0.30154, -0.72891,
 14:52:37.587,f6:90:cc:01:6d:25, 2015-01-01 00:23:23.365, 0.924, 0.344, 0.066, 0.61, -0.305, 0.549, 78.508, -68.961, 133.022, -25.553, -23.027, 6.127, 29.4, 0.07108, -0.61041, -0.30154, -0.72891,
 14:52:37.607,e3:ca:2d:fd:e0:8c, 2015-01-01 00:23:25.780, 0.98, 0.179, -0.201, 1.038, 0, 0.488, 137.505, -74.619, 18.331, -23.040, -17.493, -1.113, 27.06, 0.19571, 0.76633, -0.09885, 0.60379,
 14:52:37.607,e3:ca:2d:fd:e0:8c, 2015-01-01 00:23:25.780, 0.981, 0.179, -0.199, 0.916, 0.122, 0.427, 137.538, -74.625, 18.303, -23.040, -17.493, -1.113, 27.06, 0.19571, 0.76633, -0.09885, 0.60379,
 14:52:37.629,ed:40:fe:65:30:6c, 2015-01-01 00:23:24.980, 0.802, 0.29, 0.53, 0.244, 0, 0.793, 28.515, -52.789, -140.922, -26.407, -15.187, 1.833, 24.38, 0.39114, -0.33295, -0.35153, -0.78262,
 14:52:37.629,ed:40:fe:65:30:6c, 2015-01-01 00:23:24.980, 0.802, 0.285, 0.53, -0.061, 0.244, 0.671, 28.499, -52.795, -140.9, -26.407, -15.187, 1.833, 24.38, 0.39114, -0.33295, -0.35153, -0.78262,
 14:52:37.630,ed:35:33:d3:6c:f8, 2015-01-01 00:23:23.290, 0.066, 0.224, 0.972, 0.122, -0.427, 0.488, 12.832, -3.647, -173.188, -3.140, -13.360, -34.307, 26.54, 0.06085, -0.02499, -0.11313, -0.99136,
 14:52:37.630,ed:35:33:d3:6c:f8, 2015-01-01 00:23:23.290, 0.07, 0.219, 0.973, -0.122, -0.122, 0.305, 12.832, -3.647, -173.128, -3.140, -13.360, -34.307, 26.54, 0.06085, -0.02499, -0.11313, -0.99136,
 14:52:37.632,f6:90:cc:01:6d:25, 2015-01-01 00:23:23.365, 0.924, 0.344, 0.068, 0.488, -0.122, 0.61, 78.525, -68.978, 133.028, -25.553, -23.027, 6.127, 29.4, 0.07108, -0.61041, -0.30154, -0.72891,
 14:52:37.632,f6:90:cc:01:6d:25, 2015-01-01 00:23:23.365, 0.924, 0.341, 0.067, 0.305, 0, 0.549, 78.525, -68.989, 133.028, -25.553, -23.027, 6.127, 29.4, 0.07108, -0.61041, -0.30154, -0.72891,
 14:52:37.650,e3:ca:2d:fd:e0:8c, 2015-01-01 00:23:25.780, 0.98, 0.178, -0.2, 0.854, 0.183, 0.366, 137.571, -74.63, 18.281, -23.040, -17.493, -1.113, 27.06, 0.19571, 0.76633, -0.09885, 0.60379,
 14:52:37.653,e3:ca:2d:fd:e0:8c, 2015-01-01 00:23:25.780, 0.981, 0.178, -0.201, 0.549, 0.244, 0.244, 137.587, -74.641, 18.243, -23.040, -17.493, -1.113, 27.06, 0.19571, 0.76633, -0.09885, 0.60379,
 14:52:37.653,ed:35:33:d3:6c:f8, 2015-01-01 00:23:23.670, 0.067, 0.213, 0.97, -0.488, 0.732, 0.061, 12.821, -3.636, -173.101, -3.140, -13.360, -34.307, 26.54, 0.06085, -0.02499, -0.11313, -0.99136,
 14:52:37.653,ed:35:33:d3:6c:f8, 2015-01-01 00:23:23.670, 0.063, 0.212, 0.972, -0.671, 1.16, -0.305, 12.81, -3.615, -173.057, -3.140, -13.360, -34.307, 26.54, 0.06085, -0.02499, -0.11313, -0.99136,
 14:52:37.655,ed:40:fe:65:30:6c, 2015-01-01 00:23:24.980, 0.8, 0.282, 0.529, -0.488, 0.305, 0.244, 28.482, -52.795, -140.883, -26.407, -15.187, 1.833, 24.38, 0.39365, -0.33231, -0.35193, -0.78143,
 14:52:37.655,ed:40:fe:65:30:6c, 2015-01-01 00:23:24.980, 0.799, 0.28, 0.531, -0.549, 0.305, 0, 28.466, -52.795, -140.878, -26.407, -15.187, 1.833, 24.38, 0.39365, -0.33231, -0.35193, -0.78143,
 14:52:37.676,f6:90:cc:01:6d:25, 2015-01-01 00:23:23.365, 0.924, 0.34, 0.066, 0, 0.244, 0.488, 78.514, -69, 133.044, -25.553, -23.027, 6.127, 29.4, 0.07443, -0.60995, -0.30368, -0.72806,
 14:52:37.676,f6:90:cc:01:6d:25, 2015-01-01 00:23:23.365, 0.924, 0.338, 0.065, 0.061, 0.305, 0.244, 78.497, -69.005, 133.039, -25.553, -23.027, 6.127, 29.4, 0.07443, -0.60995, -0.30368, -0.72806,
 14:52:37.695,e3:ca:2d:fd:e0:8c, 2015-01-01 00:23:25.780, 0.981, 0.178, -0.202, 0.366, 0.305, 0.122, 137.587, -74.647, 18.204, -23.040, -17.493, -1.113, 27.06, 0.19571, 0.76633, -0.09885, 0.60379,
 14:52:37.695,e3:ca:2d:fd:e0:8c, 2015-01-01 00:23:25.780, 0.98, 0.178, -0.201, 0, 0.183, -0.122, 137.582, -74.647, 18.188, -23.040, -17.493, -1.113, 27.06, 0.19571, 0.76633, -0.09885, 0.60379,
 14:52:37.696,ed:40:fe:65:30:6c, 2015-01-01 00:23:24.980, 0.798, 0.281, 0.534, -0.122, 0.244, 0, 28.455, -52.789, -140.872, -26.407, -15.187, 1.833, 24.38, 0.39365, -0.33231, -0.35193, -0.78143,
 14:52:37.696,ed:40:fe:65:30:6c, 2015-01-01 00:23:24.980, 0.797, 0.284, 0.537, 0, 0.183, 0.061, 28.449, -52.789, -140.872, -26.407, -15.187, 1.833, 24.38, 0.39365, -0.33231, -0.35193, -0.78143,
 14:52:37.698,ed:35:33:d3:6c:f8, 2015-01-01 00:23:23.670, 0.058, 0.217, 0.975, -0.488, 1.038, -0.366, 12.799, -3.593, -173.018, -3.140, -13.360, -34.307, 26.54, 0.06085, -0.02499, -0.11313, -0.99136,
 14:52:37.698,ed:35:33:d3:6c:f8, 2015-01-01 00:23:23.670, 0.058, 0.218, 0.977, -0.061, 0.61, -0.305, 12.799, -3.576, -172.985, -3.140, -13.360, -34.307, 26.54, 0.06085, -0.02499, -0.11313, -0.99136,
 14:52:37.717,e3:ca:2d:fd:e0:8c, 2015-01-01 00:23:25.780, 0.98, 0.18, -0.201, 0.122, 0.122, -0.183, 137.576, -74.647, 18.177, -22.993, -17.180, -1.187, 27.06, 0.19571, 0.76633, -0.09885, 0.60379,
 14:52:37.717,e3:ca:2d:fd:e0:8c, 2015-01-01 00:23:25.780, 0.979, 0.181, -0.201, 0.061, 0.061, -0.244, 137.571, -74.647, 18.171, -22.993, -17.180, -1.187, 27.06, 0.19571, 0.76633, -0.09885, 0.60379,
 14:52:37.721,f6:90:cc:01:6d:25, 2015-01-01 00:23:23.680, 0.924, 0.339, 0.067, 0.305, 0.183, 0.061, 78.497, -69.005, 133.028, -25.553, -23.027, 6.127, 29.4, 0.07443, -0.60995, -0.30368, -0.72806,
 14:52:37.721,f6:90:cc:01:6d:25, 2015-01-01 00:23:23.680, 0.921, 0.341, 0.068, 0.549, 0.061, -0.061, 78.514, -69.011, 133.011, -25.553, -23.027, 6.127, 29.4, 0.07443, -0.60995, -0.30368, -0.72806,
 14:52:37.741,ed:40:fe:65:30:6c, 2015-01-01 00:23:25.335, 0.796, 0.287, 0.536, 0, 0.122, 0.122, 28.438, -52.784, -140.856, -26.407, -15.187, 1.833, 24.38, 0.39365, -0.33231, -0.35193, -0.78143,
 14:52:37.741,ed:40:fe:65:30:6c, 2015-01-01 00:23:25.335, 0.795, 0.286, 0.535, 0.183, -0.122, 0, 28.438, -52.789, -140.845, -26.407, -15.187, 1.833, 24.38, 0.39365, -0.33231, -0.35193, -0.78143,
 14:52:37.742,ed:35:33:d3:6c:f8, 2015-01-01 00:23:23.670, 0.057, 0.221, 0.977, 0, 0.183, -0.122, 12.799, -3.576, -172.969, -3.140, -13.360, -34.307, 26.54, 0.06085, -0.02499, -0.11313, -0.99136,
 14:52:37.742,ed:35:33:d3:6c:f8, 2015-01-01 00:23:23.670, 0.06, 0.221, 0.974, 0.244, -0.122, 0, 12.799, -3.576, -172.952, -3.140, -13.360, -34.307, 26.54, 0.06085, -0.02499, -0.11313, -0.99136,
 14:52:37.766,f6:90:cc:01:6d:25, 2015-01-01 00:23:23.680, 0.92, 0.345, 0.069, 0.61, 0, -0.244, 78.53, -69.011, 133, -25.553, -23.027, 6.127, 29.4, 0.07443, -0.60995, -0.30368, -0.72806,
 14:52:37.766,f6:90:cc:01:6d:25, 2015-01-01 00:23:23.680, 0.92, 0.344, 0.069, 0.61, 0, -0.366, 78.547, -69.005, 132.995, -25.553, -23.027, 6.127, 29.4, 0.07443, -0.60995, -0.30368, -0.72806,
 14:52:37.785,e3:ca:2d:fd:e0:8c, 2015-01-01 00:23:25.780, 0.979, 0.183, -0.198, 0, 0, -0.244, 137.56, -74.641, 18.144, -22.993, -17.180, -1.187, 27.06, 0.19571, 0.76633, -0.09885, 0.60379,
 14:52:37.785,e3:ca:2d:fd:e0:8c, 2015-01-01 00:23:25.780, 0.979, 0.183, -0.198, -0.122, 0, -0.244, 137.554, -74.641, 18.138, -22.993, -17.180, -1.187, 27.06, 0.19571, 0.76633, -0.09885, 0.60379,
 14:52:37.787,ed:40:fe:65:30:6c, 2015-01-01 00:23:25.335, 0.795, 0.286, 0.534, 0.305, -0.061, 0, 28.444, -52.789, -140.845, -26.407, -15.187, 1.833, 24.38, 0.39365, -0.33231, -0.35193, -0.78143,
 14:52:37.787,ed:40:fe:65:30:6c, 2015-01-01 00:23:25.335, 0.793, 0.289, 0.533, 0.305, -0.061, 0, 28.444, -52.789, -140.85, -26.407, -15.187, 1.833, 24.38, 0.39365, -0.33231, -0.35193, -0.78143,
 14:52:37.788,ed:35:33:d3:6c:f8, 2015-01-01 00:23:23.670, 0.058, 0.221, 0.971, 0.061, 0, 0.183, 12.799, -3.576, -172.936, -3.140, -13.360, -34.307, 26.54, 0.06085, -0.02499, -0.11313, -0.99136,
 14:52:37.788,ed:35:33:d3:6c:f8, 2015-01-01 00:23:23.670, 0.058, 0.222, 0.971, 0, 0.244, 0.244, 12.799, -3.571, -172.903, -3.140, -13.360, -34.307, 26.54, 0.06085, -0.02499, -0.11313, -0.99136,
 14:52:37.790,f6:90:cc:01:6d:25, 2015-01-01 00:23:23.680, 0.92, 0.344, 0.07, 0.732, 0, -0.427, 78.563, -69, 133, -25.553, -23.027, 6.127, 29.4, 0.07443, -0.60995, -0.30368, -0.72806,
 14:52:37.790,f6:90:cc:01:6d:25, 2015-01-01 00:23:23.680, 0.92, 0.346, 0.071, 0.793, 0, -0.427, 78.585, -68.994, 133, -25.553, -23.027, 6.127, 29.4, 0.07443, -0.60995, -0.30368, -0.72806,
 14:52:37.809,e3:ca:2d:fd:e0:8c, 2015-01-01 00:23:25.780, 0.979, 0.183, -0.198, -0.061, 0, -0.244, 137.543, -74.636, 18.138, -22.993, -17.180, -1.187, 27.06, 0.19513, 0.7666, -0.09982, 0.60345,
 14:52:37.809,e3:ca:2d:fd:e0:8c, 2015-01-01 00:23:25.780, 0.979, 0.183, -0.198, 0, 0, -0.244, 137.527, -74.63, 18.133, -22.993, -17.180, -1.187, 27.06, 0.19513, 0.7666, -0.09982, 0.60345,
 14:52:37.809,ed:40:fe:65:30:6c, 2015-01-01 00:23:25.335, 0.793, 0.289, 0.536, 0.427, 0, 0.061, 28.449, -52.789, -140.856, -26.407, -15.187, 1.833, 24.38, 0.39365, -0.33231, -0.35193, -0.78143,
 14:52:37.809,ed:40:fe:65:30:6c, 2015-01-01 00:23:25.335, 0.793, 0.292, 0.537, 0.488, 0, 0.183, 28.455, -52.789, -140.85, -26.407, -15.187, 1.833, 24.38, 0.39365, -0.33231, -0.35193, -0.78143,
 14:52:37.833,ed:35:33:d3:6c:f8, 2015-01-01 00:23:23.670, 0.054, 0.225, 0.972, -0.122, 0.183, 0.366, 12.799, -3.565, -172.848, -3.140, -13.360, -34.307, 26.54, 0.06085, -0.02499, -0.11313, -0.99136,
 14:52:37.833,ed:35:33:d3:6c:f8, 2015-01-01 00:23:23.670, 0.053, 0.226, 0.974, 0.183, -0.183, 0.427, 12.799, -3.571, -172.798, -3.140, -13.360, -34.307, 26.54, 0.06085, -0.02499, -0.11313, -0.99136,
 14:52:37.834,f6:90:cc:01:6d:25, 2015-01-01 00:23:23.680, 0.92, 0.348, 0.072, 0.732, -0.122, -0.366, 78.607, -68.989, 132.995, -25.553, -23.027, 6.127, 29.4, 0.07443, -0.60995, -0.30368, -0.72806,
 14:52:37.834,f6:90:cc:01:6d:25, 2015-01-01 00:23:23.680, 0.919, 0.35, 0.073, 0.793, -0.244, -0.183, 78.635, -68.983, 132.99, -25.553, -23.027, 6.127, 29.4, 0.07443, -0.60995, -0.30368, -0.72806,
 14:52:37.854,e3:ca:2d:fd:e0:8c, 2015-01-01 00:23:25.780, 0.979, 0.184, -0.198, 0.061, -0.183, -0.122, 137.521, -74.63, 18.116, -22.993, -17.180, -1.187, 27.06, 0.19513, 0.7666, -0.09982, 0.60345,
 14:52:37.854,e3:ca:2d:fd:e0:8c, 2015-01-01 00:23:25.780, 0.979, 0.185, -0.198, 0.427, -0.244, 0, 137.532, -74.625, 18.1, -22.993, -17.180, -1.187, 27.06, 0.19513, 0.7666, -0.09982, 0.60345,
 14:52:37.854,ed:40:fe:65:30:6c, 2015-01-01 00:23:25.335, 0.794, 0.296, 0.538, 0.488, -0.122, 0.244, 28.46, -52.795, -140.845, -26.407, -15.187, 1.833, 24.38, 0.39365, -0.33231, -0.35193, -0.78143,
 14:52:37.854,ed:40:fe:65:30:6c, 2015-01-01 00:23:25.335, 0.792, 0.292, 0.534, 0.488, -0.122, 0.244, 28.466, -52.795, -140.834, -26.407, -15.187, 1.833, 24.38, 0.39365, -0.33231, -0.35193, -0.78143,
 14:52:37.855,ed:35:33:d3:6c:f8, 2015-01-01 00:23:23.670, 0.058, 0.229, 0.974, 0.122, -0.488, 0.366, 12.805, -3.576, -172.749, -3.200, -13.487, -34.180, 26.54, 0.06085, -0.02499, -0.11313, -0.99136,
 14:52:37.855,ed:35:33:d3:6c:f8, 2015-01-01 00:23:23.670, 0.057, 0.229, 0.971, 0.122, -0.183, 0.183, 12.81, -3.582, -172.705, -3.200, -13.487, -34.180, 26.54, 0.06085, -0.02499, -0.11313, -0.99136,
 14:52:37.878,f6:90:cc:01:6d:25, 2015-01-01 00:23:23.680, 0.919, 0.348, 0.069, 0.732, -0.244, -0.122, 78.662, -68.983, 132.984, -25.553, -23.027, 6.127, 29.4, 0.07443, -0.60995, -0.30368, -0.72806,
 14:52:37.878,f6:90:cc:01:6d:25, 2015-01-01 00:23:23.680, 0.92, 0.348, 0.069, 0.671, -0.244, -0.183, 78.69, -68.983, 132.99, -25.553, -23.027, 6.127, 29.4, 0.07443, -0.60995, -0.30368, -0.72806,
 14:52:37.898,e3:ca:2d:fd:e0:8c, 2015-01-01 00:23:26.140, 0.979, 0.184, -0.199, 0.427, -0.183, 0, 137.549, -74.619, 18.073, -22.993, -17.180, -1.187, 27.06, 0.19513, 0.7666, -0.09982, 0.60345,
 14:52:37.898,e3:ca:2d:fd:e0:8c, 2015-01-01 00:23:26.140, 0.979, 0.185, -0.199, 0.427, -0.244, 0, 137.565, -74.614, 18.056, -22.993, -17.180, -1.187, 27.06, 0.19513, 0.7666, -0.09982, 0.60345,
 14:52:37.900,ed:35:33:d3:6c:f8, 2015-01-01 00:23:23.670, 0.056, 0.225, 0.971, 0.488, 0, 0.793, 12.821, -3.582, -172.656, -3.200, -13.487, -34.180, 26.54, 0.06085, -0.02499, -0.11313, -0.99136,
 14:52:37.900,ed:35:33:d3:6c:f8, 2015-01-01 00:23:23.670, 0.06, 0.222, 0.973, 0.427, -0.244, 0.854, 12.827, -3.587, -172.573, -3.200, -13.487, -34.180, 26.54, 0.06085, -0.02499, -0.11313, -0.99136,
 14:52:37.920,e3:ca:2d:fd:e0:8c, 2015-01-01 00:23:26.140, 0.981, 0.185, -0.201, 0.488, -0.183, 0.122, 137.587, -74.614, 18.034, -22.993, -17.180, -1.187, 27.06, 0.19513, 0.7666, -0.09982, 0.60345,
 14:52:37.920,e3:ca:2d:fd:e0:8c, 2015-01-01 00:23:26.140, 0.98, 0.184, -0.203, 0.549, -0.122, 0.183, 137.609, -74.608, 18.001, -22.993, -17.180, -1.187, 27.06, 0.19513, 0.7666, -0.09982, 0.60345,
 14:52:37.922,ed:40:fe:65:30:6c, 2015-01-01 00:23:25.335, 0.795, 0.288, 0.534, 0.488, -0.183, 0.244, 28.471, -52.795, -140.823, -26.407, -15.187, 1.833, 24.38, 0.39365, -0.33231, -0.35193, -0.78143,
 14:52:37.922,ed:40:fe:65:30:6c, 2015-01-01 00:23:25.335, 0.797, 0.292, 0.535, 0.671, -0.244, 0.122, 28.477, -52.8, -140.812, -26.407, -15.187, 1.833, 24.38, 0.39365, -0.33231, -0.35193, -0.78143,
 14:52:37.924,f6:90:cc:01:6d:25, 2015-01-01 00:23:23.680, 0.922, 0.349, 0.068, 0.488, -0.305, -0.122, 78.712, -68.978, 132.99, -25.480, -22.873, 6.193, 29.4, 0.07443, -0.60995, -0.30368, -0.72806,
 14:52:37.924,f6:90:cc:01:6d:25, 2015-01-01 00:23:23.680, 0.925, 0.351, 0.066, 0.671, -0.366, -0.061, 78.739, -68.978, 132.99, -25.480, -22.873, 6.193, 29.4, 0.07443, -0.60995, -0.30368, -0.72806,
 14:52:37.944,ed:40:fe:65:30:6c, 2015-01-01 00:23:25.335, 0.801, 0.296, 0.533, 0.732, -0.183, 0.061, 28.493, -52.8, -140.801, -26.580, -14.847, 2.080, 24.38, 0.39365, -0.33231, -0.35193, -0.78143,
 14:52:37.944,ed:40:fe:65:30:6c, 2015-01-01 00:23:25.335, 0.798, 0.297, 0.534, 0.427, -0.366, 0.183, 28.51, -52.806, -140.795, -26.580, -14.847, 2.080, 24.38, 0.39365, -0.33231, -0.35193, -0.78143,
 14:52:37.946,f6:90:cc:01:6d:25, 2015-01-01 00:23:23.680, 0.923, 0.35, 0.066, 0.732, -0.549, 0, 78.777, -68.978, 132.973, -25.480, -22.873, 6.193, 29.4, 0.07541, -0.60995, -0.30502, -0.72742,
 14:52:37.946,f6:90:cc:01:6d:25, 2015-01-01 00:23:23.680, 0.923, 0.347, 0.065, 0.732, -0.61, 0.122, 78.821, -68.983, 132.946, -25.480, -22.873, 6.193, 29.4, 0.07541, -0.60995, -0.30502, -0.72742,
 14:52:37.967,e3:ca:2d:fd:e0:8c, 2015-01-01 00:23:26.140, 0.981, 0.182, -0.203, 0.549, -0.122, 0.244, 137.631, -74.608, 17.968, -22.993, -17.180, -1.187, 27.06, 0.19513, 0.7666, -0.09982, 0.60345,
 14:52:37.967,e3:ca:2d:fd:e0:8c, 2015-01-01 00:23:26.140, 0.98, 0.18, -0.202, 0.488, -0.122, 0.183, 137.659, -74.608, 17.952, -22.993, -17.180, -1.187, 27.06, 0.19513, 0.7666, -0.09982, 0.60345,
 14:52:37.967,ed:35:33:d3:6c:f8, 2015-01-01 00:23:23.670, 0.062, 0.228, 0.973, 0.977, 0, 0.671, 12.849, -3.582, -172.485, -3.200, -13.487, -34.180, 26.54, 0.06757, -0.0238, -0.11343, -0.99091,
 14:52:37.967,ed:35:33:d3:6c:f8, 2015-01-01 00:23:23.670, 0.062, 0.233, 0.976, 0.916, -0.61, 0.366, 12.87, -3.593, -172.403, -3.200, -13.487, -34.180, 26.54, 0.06757, -0.0238, -0.11343, -0.99091,
 14:52:37.990,ed:35:33:d3:6c:f8, 2015-01-01 00:23:24.005, 0.062, 0.23, 0.977, 0.671, -0.549, 0.671, 12.887, -3.604, -172.321, -3.200, -13.487, -34.180, 26.54, 0.06757, -0.0238, -0.11343, -0.99091,
 14:52:37.990,ed:35:33:d3:6c:f8, 2015-01-01 00:23:24.005, 0.064, 0.223, 0.975, 0.122, -0.488, 0, 12.887, -3.615, -172.244, -3.200, -13.487, -34.180, 26.54, 0.06757, -0.0238, -0.11343, -0.99091,
 14:52:37.990,ed:40:fe:65:30:6c, 2015-01-01 00:23:25.335, 0.8, 0.293, 0.534, 0.427, -0.366, 0.305, 28.515, -52.811, -140.79, -26.580, -14.847, 2.080, 24.38, 0.39365, -0.33231, -0.35193, -0.78143,
 14:52:37.990,ed:40:fe:65:30:6c, 2015-01-01 00:23:25.335, 0.799, 0.287, 0.531, 0, -0.366, 0.244, 28.521, -52.817, -140.79, -26.580, -14.847, 2.080, 24.38, 0.39365, -0.33231, -0.35193, -0.78143,
 14:52:37.991,f6:90:cc:01:6d:25, 2015-01-01 00:23:23.680, 0.922, 0.346, 0.064, 0.671, -0.488, 0.061, 78.865, -68.983, 132.913, -25.480, -22.873, 6.193, 29.4, 0.07541, -0.60995, -0.30502, -0.72742,
 14:52:37.991,f6:90:cc:01:6d:25, 2015-01-01 00:23:23.680, 0.923, 0.344, 0.062, 0.427, -0.366, 0.061, 78.898, -68.989, 132.885, -25.480, -22.873, 6.193, 29.4, 0.07541, -0.60995, -0.30502, -0.72742,
 14:52:38.010,e3:ca:2d:fd:e0:8c, 2015-01-01 00:23:26.140, 0.98, 0.179, -0.202, 0.488, -0.061, 0.183, 137.686, -74.608, 17.93, -22.993, -17.180, -1.187, 27.06, 0.19513, 0.7666, -0.09982, 0.60345,
 14:52:38.010,e3:ca:2d:fd:e0:8c, 2015-01-01 00:23:26.140, 0.981, 0.178, -0.203, 0.549, 0, 0.122, 137.708, -74.608, 17.897, -22.993, -17.180, -1.187, 27.06, 0.19513, 0.7666, -0.09982, 0.60345,
 14:52:38.012,ed:40:fe:65:30:6c, 2015-01-01 00:23:25.335, 0.8, 0.286, 0.528, 0.061, -0.244, 0, 28.526, -52.822, -140.801, -26.580, -14.847, 2.080, 24.38, 0.39441, -0.33206, -0.35245, -0.78091,
 14:52:38.012,ed:40:fe:65:30:6c, 2015-01-01 00:23:25.335, 0.803, 0.286, 0.527, 0.183, -0.122, -0.183, 28.531, -52.822, -140.806, -26.580, -14.847, 2.080, 24.38, 0.39441, -0.33206, -0.35245, -0.78091,
 14:52:38.014,ed:35:33:d3:6c:f8, 2015-01-01 00:23:24.005, 0.067, 0.22, 0.972, 0.061, -0.427, -0.061, 12.892, -3.62, -172.2, -3.200, -13.487, -34.180, 26.54, 0.06757, -0.0238, -0.11343, -0.99091,
 14:52:38.014,ed:35:33:d3:6c:f8, 2015-01-01 00:23:24.005, 0.07, 0.22, 0.97, 0.122, -0.305, 0.183, 12.898, -3.625, -172.172, -3.200, -13.487, -34.180, 26.54, 0.06757, -0.0238, -0.11343, -0.99091,
 14:52:38.036,f6:90:cc:01:6d:25, 2015-01-01 00:23:23.970, 0.924, 0.342, 0.062, 0.305, -0.244, -0.061, 78.926, -68.989, 132.863, -25.480, -22.873, 6.193, 29.4, 0.07541, -0.60995, -0.30502, -0.72742,
 14:52:38.036,f6:90:cc:01:6d:25, 2015-01-01 00:23:23.970, 0.925, 0.345, 0.062, 0.183, 0, -0.061, 78.948, -68.989, 132.847, -25.480, -22.873, 6.193, 29.4, 0.07541, -0.60995, -0.30502, -0.72742,
 14:52:38.056,ed:40:fe:65:30:6c, 2015-01-01 00:23:25.335, 0.803, 0.29, 0.526, -0.122, 0, -0.183, 28.537, -52.822, -140.812, -26.580, -14.847, 2.080, 24.38, 0.39441, -0.33206, -0.35245, -0.78091,
 14:52:38.056,ed:40:fe:65:30:6c, 2015-01-01 00:23:25.335, 0.801, 0.292, 0.528, -0.366, 0.061, -0.183, 28.537, -52.822, -140.823, -26.580, -14.847, 2.080, 24.38, 0.39441, -0.33206, -0.35245, -0.78091,
 14:52:38.058,ed:35:33:d3:6c:f8, 2015-01-01 00:23:24.005, 0.069, 0.224, 0.972, 0.061, 0.122, 0, 12.898, -3.62, -172.156, -3.200, -13.487, -34.180, 26.54, 0.06757, -0.0238, -0.11343, -0.99091,
 14:52:38.058,ed:35:33:d3:6c:f8, 2015-01-01 00:23:24.005, 0.065, 0.227, 0.972, -0.305, 0.488, -0.549, 12.892, -3.609, -172.161, -3.200, -13.487, -34.180, 26.54, 0.06757, -0.0238, -0.11343, -0.99091,
 14:52:38.078,e3:ca:2d:fd:e0:8c, 2015-01-01 00:23:26.140, 0.981, 0.179, -0.203, 0.488, 0.061, 0.061, 137.73, -74.608, 17.869, -22.993, -17.180, -1.187, 27.06, 0.19513, 0.7666, -0.09982, 0.60345,
 14:52:38.078,e3:ca:2d:fd:e0:8c, 2015-01-01 00:23:26.140, 0.981, 0.18, -0.203, 0.244, 0.122, 0, 137.741, -74.614, 17.847, -22.993, -17.180, -1.187, 27.06, 0.19513, 0.7666, -0.09982, 0.60345,
 14:52:38.081,f6:90:cc:01:6d:25, 2015-01-01 00:23:23.970, 0.924, 0.346, 0.063, -0.061, 0.122, 0, 78.953, -68.994, 132.836, -25.480, -22.873, 6.193, 29.4, 0.07541, -0.60995, -0.30502, -0.72742,
 14:52:38.081,f6:90:cc:01:6d:25, 2015-01-01 00:23:23.970, 0.924, 0.346, 0.063, -0.366, 0.305, 0, 78.948, -68.994, 132.83, -25.480, -22.873, 6.193, 29.4, 0.07541, -0.60995, -0.30502, -0.72742,
 14:52:38.100,e3:ca:2d:fd:e0:8c, 2015-01-01 00:23:26.140, 0.981, 0.18, -0.202, -0.061, 0.244, 0, 137.741, -74.614, 17.836, -23.340, -17.440, -1.173, 27.06, 0.19513, 0.7666, -0.09982, 0.60345,
 14:52:38.100,e3:ca:2d:fd:e0:8c, 2015-01-01 00:23:26.140, 0.98, 0.181, -0.203, -0.305, 0.366, 0, 137.73, -74.614, 17.825, -23.340, -17.440, -1.173, 27.06, 0.19513, 0.7666, -0.09982, 0.60345,
 14:52:38.102,ed:40:fe:65:30:6c, 2015-01-01 00:23:25.695, 0.799, 0.29, 0.531, -0.366, 0.122, -0.183, 28.531, -52.817, -140.834, -26.580, -14.847, 2.080, 24.38, 0.39441, -0.33206, -0.35245, -0.78091,
 14:52:38.102,ed:40:fe:65:30:6c, 2015-01-01 00:23:25.695, 0.805, 0.294, 0.531, -0.305, 0, -0.122, 28.531, -52.817, -140.845, -26.580, -14.847, 2.080, 24.38, 0.39441, -0.33206, -0.35245, -0.78091,
 14:52:38.103,ed:35:33:d3:6c:f8, 2015-01-01 00:23:24.005, 0.061, 0.227, 0.974, -0.427, 0.671, -0.854, 12.887, -3.593, -172.2, -3.200, -13.487, -34.180, 26.54, 0.06757, -0.0238, -0.11343, -0.99091,
 14:52:38.103,ed:35:33:d3:6c:f8, 2015-01-01 00:23:24.005, 0.065, 0.228, 0.976, -0.427, 0.366, -0.61, 12.881, -3.587, -172.227, -3.200, -13.487, -34.180, 26.54, 0.06757, -0.0238, -0.11343, -0.99091,
 14:52:38.126,f6:90:cc:01:6d:25, 2015-01-01 00:23:23.970, 0.926, 0.352, 0.061, -0.793, 0.671, 0.122, 78.92, -68.994, 132.836, -25.480, -22.873, 6.193, 29.4, 0.07541, -0.60995, -0.30502, -0.72742,
 14:52:38.126,f6:90:cc:01:6d:25, 2015-01-01 00:23:23.970, 0.928, 0.35, 0.061, -0.854, 1.038, 0.488, 78.865, -69, 132.863, -25.480, -22.873, 6.193, 29.4, 0.07541, -0.60995, -0.30502, -0.72742,
 14:52:38.145,e3:ca:2d:fd:e0:8c, 2015-01-01 00:23:26.140, 0.981, 0.182, -0.205, -0.366, 0.671, 0, 137.708, -74.619, 17.836, -23.340, -17.440, -1.173, 27.06, 0.19513, 0.7666, -0.09982, 0.60345,
 14:52:38.145,e3:ca:2d:fd:e0:8c, 2015-01-01 00:23:26.140, 0.98, 0.184, -0.204, -0.549, 0.854, 0, 137.675, -74.63, 17.858, -23.340, -17.440, -1.173, 27.06, 0.19513, 0.7666, -0.09982, 0.60345,
 14:52:38.146,ed:40:fe:65:30:6c, 2015-01-01 00:23:25.695, 0.806, 0.292, 0.529, 0.061, 0.244, -0.488, 28.542, -52.811, -140.861, -26.580, -14.847, 2.080, 24.38, 0.39441, -0.33206, -0.35245, -0.78091,
 14:52:38.146,ed:40:fe:65:30:6c, 2015-01-01 00:23:25.695, 0.808, 0.293, 0.532, 0.366, -1.709, -0.793, 28.581, -52.828, -140.9, -26.580, -14.847, 2.080, 24.38, 0.39441, -0.33206, -0.35245, -0.78091,
 14:52:38.150,f6:90:cc:01:6d:25, 2015-01-01 00:23:23.970, 0.924, 0.35, 0.062, -0.488, 1.16, 0.427, 78.805, -69.005, 132.907, -25.480, -22.873, 6.193, 29.4, 0.07541, -0.60995, -0.30502, -0.72742,
 14:52:38.150,f6:90:cc:01:6d:25, 2015-01-01 00:23:23.970, 0.923, 0.341, 0.053, 0.061, 1.404, 0.366, 78.739, -69.005, 132.957, -25.480, -22.873, 6.193, 29.4, 0.07541, -0.60995, -0.30502, -0.72742,
 14:52:38.168,ed:40:fe:65:30:6c, 2015-01-01 00:23:25.695, 0.808, 0.296, 0.529, 0.854, -3.662, -0.305, 28.647, -52.883, -140.955, -26.580, -14.847, 2.080, 24.38, 0.39441, -0.33206, -0.35245, -0.78091,
 14:52:38.168,ed:40:fe:65:30:6c, 2015-01-01 00:23:25.695, 0.811, 0.275, 0.512, -2.197, -3.296, -0.793, 28.68, -52.938, -141.021, -26.580, -14.847, 2.080, 24.38, 0.39441, -0.33206, -0.35245, -0.78091,
 14:52:38.168,e3:ca:2d:fd:e0:8c, 2015-01-01 00:23:26.140, 0.979, 0.184, -0.206, -0.488, 0.977, 0, 137.626, -74.641, 17.908, -23.340, -17.440, -1.173, 27.06, 0.19586, 0.76657, -0.10101, 0.60309,
 14:52:38.168,e3:ca:2d:fd:e0:8c, 2015-01-01 00:23:26.140, 0.985, 0.18, -0.212, -1.099, 1.587, 0, 137.565, -74.658, 17.957, -23.340, -17.440, -1.173, 27.06, 0.19586, 0.76657, -0.10101, 0.60309,
 14:52:38.170,ed:35:33:d3:6c:f8, 2015-01-01 00:23:24.005, 0.065, 0.224, 0.974, -0.061, 0.122, -0.977, 12.881, -3.582, -172.238, -3.200, -13.487, -34.180, 26.54, 0.06757, -0.0238, -0.11343, -0.99091,
 14:52:38.170,ed:35:33:d3:6c:f8, 2015-01-01 00:23:24.005, 0.06, 0.221, 0.976, -0.732, 0, -1.587, 12.87, -3.576, -172.266, -3.200, -13.487, -34.180, 26.54, 0.06757, -0.0238, -0.11343, -0.99091,
 14:52:38.193,ed:35:33:d3:6c:f8, 2015-01-01 00:23:24.005, 0.082, 0.232, 0.983, -1.648, 0, -3.235, 12.843, -3.56, -172.315, -3.240, -13.933, -34.093, 26.54, 0.06757, -0.0238, -0.11343, -0.99091,
 14:52:38.193,ed:35:33:d3:6c:f8, 2015-01-01 00:23:24.005, 0.084, 0.215, 0.973, -4.822, 0.671, -4.822, 12.755, -3.527, -172.403, -3.240, -13.933, -34.093, 26.54, 0.06757, -0.0238, -0.11343, -0.99091,
 14:52:38.195,f6:90:cc:01:6d:25, 2015-01-01 00:23:23.970, 0.929, 0.336, 0.054, -0.427, 1.343, -0.061, 78.679, -69.005, 133.017, -25.480, -22.873, 6.193, 29.4, 0.07541, -0.60995, -0.30502, -0.72742,
 14:52:38.195,f6:90:cc:01:6d:25, 2015-01-01 00:23:23.970, 0.926, 0.34, 0.06, -1.221, 1.221, -0.732, 78.618, -69, 133.066, -25.480, -22.873, 6.193, 29.4, 0.07541, -0.60995, -0.30502, -0.72742,
 14:52:38.214,e3:ca:2d:fd:e0:8c, 2015-01-01 00:23:26.140, 0.985, 0.177, -0.208, -2.197, 1.831, -0.488, 137.461, -74.674, 18.029, -23.340, -17.440, -1.173, 27.06, 0.19586, 0.76657, -0.10101, 0.60309,
 14:52:38.214,e3:ca:2d:fd:e0:8c, 2015-01-01 00:23:26.140, 0.978, 0.178, -0.206, -2.991, 1.77, -0.61, 137.313, -74.691, 18.127, -23.340, -17.440, -1.173, 27.06, 0.19586, 0.76657, -0.10101, 0.60309,
 14:52:38.214,ed:40:fe:65:30:6c, 2015-01-01 00:23:25.695, 0.807, 0.275, 0.518, -4.272, -1.282, -1.343, 28.652, -52.96, -141.075, -26.580, -14.847, 2.080, 24.38, 0.39441, -0.33206, -0.35245, -0.78091,
 14:52:38.214,ed:40:fe:65:30:6c, 2015-01-01 00:23:25.695, 0.797, 0.281, 0.523, -3.357, 0.061, -1.343, 28.619, -52.954, -141.114, -26.580, -14.847, 2.080, 24.38, 0.39441, -0.33206, -0.35245, -0.78091,
 14:52:38.239,f6:90:cc:01:6d:25, 2015-01-01 00:23:23.970, 0.918, 0.339, 0.064, -1.587, 0.977, -1.038, 78.563, -68.978, 133.083, -25.520, -22.940, 6.193, 29.4, 0.07541, -0.60995, -0.30502, -0.72742,
 14:52:38.239,f6:90:cc:01:6d:25, 2015-01-01 00:23:23.970, 0.916, 0.339, 0.07, -1.343, 0.977, -1.282, 78.514, -68.956, 133.088, -25.520, -22.940, 6.193, 29.4, 0.07541, -0.60995, -0.30502, -0.72742,
 14:52:38.259,e3:ca:2d:fd:e0:8c, 2015-01-01 00:23:26.495, 0.977, 0.184, -0.197, -4.028, 1.648, -0.793, 137.142, -74.707, 18.232, -23.340, -17.440, -1.173, 27.06, 0.19586, 0.76657, -0.10101, 0.60309,
 14:52:38.259,e3:ca:2d:fd:e0:8c, 2015-01-01 00:23:26.495, 0.977, 0.188, -0.188, -5.005, 1.465, -0.916, 136.956, -74.713, 18.331, -23.340, -17.440, -1.173, 27.06, 0.19586, 0.76657, -0.10101, 0.60309,
 14:52:38.261,ed:35:33:d3:6c:f8, 2015-01-01 00:23:24.005, 0.078, 0.204, 0.964, -6.226, 1.343, -5.859, 12.64, -3.483, -172.518, -3.240, -13.933, -34.093, 26.54, 0.06757, -0.0238, -0.11343, -0.99091,
 14:52:38.261,ed:35:33:d3:6c:f8, 2015-01-01 00:23:24.005, 0.065, 0.218, 0.972, -4.578, 1.282, -5.432, 12.557, -3.439, -172.65, -3.240, -13.933, -34.093, 26.54, 0.06757, -0.0238, -0.11343, -0.99091,
 14:52:38.281,ed:40:fe:65:30:6c, 2015-01-01 00:23:25.695, 0.792, 0.284, 0.525, -1.343, 0.977, -0.549, 28.586, -52.943, -141.119, -26.580, -14.847, 2.080, 24.38, 0.39441, -0.33206, -0.35245, -0.78091,
 14:52:38.281,ed:40:fe:65:30:6c, 2015-01-01 00:23:25.695, 0.79, 0.293, 0.526, 0.061, 1.404, 0.244, 28.564, -52.921, -141.097, -26.580, -14.847, 2.080, 24.38, 0.39441, -0.33206, -0.35245, -0.78091,
 14:52:38.282,ed:35:33:d3:6c:f8, 2015-01-01 00:23:24.005, 0.055, 0.229, 0.97, -2.869, 1.221, -3.235, 12.502, -3.411, -172.755, -3.240, -13.933, -34.093, 26.54, 0.06644, -0.02274, -0.11075, -0.9913,
 14:52:38.282,ed:35:33:d3:6c:f8, 2015-01-01 00:23:24.005, 0.052, 0.232, 0.97, -1.892, 0.732, -1.16, 12.475, -3.4, -172.82, -3.240, -13.933, -34.093, 26.54, 0.06644, -0.02274, -0.11075, -0.9913,
 14:52:38.284,f6:90:cc:01:6d:25, 2015-01-01 00:23:23.970, 0.914, 0.344, 0.076, -0.61, 1.221, -1.343, 78.464, -68.934, 133.094, -25.520, -22.940, 6.193, 29.4, 0.07431, -0.60965, -0.30392, -0.72821,
 14:52:38.284,f6:90:cc:01:6d:25, 2015-01-01 00:23:23.970, 0.912, 0.345, 0.083, 0.061, 1.587, -1.038, 78.409, -68.906, 133.121, -25.520, -22.940, 6.193, 29.4, 0.07431, -0.60965, -0.30392, -0.72821,
 14:52:38.305,ed:40:fe:65:30:6c, 2015-01-01 00:23:25.695, 0.783, 0.299, 0.529, 0.732, 1.953, 1.038, 28.537, -52.905, -141.053, -26.133, -15.187, 2.187, 24.38, 0.39441, -0.33206, -0.35245, -0.78091,
 14:52:38.305,ed:40:fe:65:30:6c, 2015-01-01 00:23:25.695, 0.779, 0.297, 0.538, 0.732, 2.38, 1.77, 28.488, -52.877, -140.971, -26.133, -15.187, 2.187, 24.38, 0.39441, -0.33206, -0.35245, -0.78091,
 14:52:38.329,f6:90:cc:01:6d:25, 2015-01-01 00:23:24.280, 0.911, 0.346, 0.089, 0.732, 1.831, -0.793, 78.338, -68.884, 133.198, -25.520, -22.940, 6.193, 29.4, 0.07431, -0.60965, -0.30392, -0.72821,
 14:52:38.329,f6:90:cc:01:6d:25, 2015-01-01 00:23:24.280, 0.91, 0.345, 0.095, 1.404, 1.77, -0.366, 78.272, -68.868, 133.292, -25.520, -22.940, 6.193, 29.4, 0.07431, -0.60965, -0.30392, -0.72821,
 14:52:38.329,ed:35:33:d3:6c:f8, 2015-01-01 00:23:24.005, 0.043, 0.234, 0.969, -1.526, 0.671, -0.488, 12.448, -3.389, -172.87, -3.240, -13.933, -34.093, 26.54, 0.06644, -0.02274, -0.11075, -0.9913,
 14:52:38.329,ed:35:33:d3:6c:f8, 2015-01-01 00:23:24.005, 0.033, 0.235, 0.969, -1.831, 1.099, -0.549, 12.42, -3.367, -172.925, -3.240, -13.933, -34.093, 26.54, 0.06644, -0.02274, -0.11075, -0.9913,
 14:52:38.349,ed:40:fe:65:30:6c, 2015-01-01 00:23:25.695, 0.772, 0.298, 0.547, 1.221, 2.625, 2.686, 28.427, -52.855, -140.85, -26.133, -15.187, 2.187, 24.38, 0.39441, -0.33206, -0.35245, -0.78091,
 14:52:38.349,ed:40:fe:65:30:6c, 2015-01-01 00:23:25.695, 0.771, 0.3, 0.559, 2.38, 2.625, 3.845, 28.356, -52.839, -140.691, -26.133, -15.187, 2.187, 24.38, 0.39441, -0.33206, -0.35245, -0.78091,
 14:52:38.349,e3:ca:2d:fd:e0:8c, 2015-01-01 00:23:26.495, 0.977, 0.186, -0.183, -4.7, 1.404, -0.977, 136.747, -74.718, 18.457, -23.340, -17.440, -1.173, 27.06, 0.19586, 0.76657, -0.10101, 0.60309,
 14:52:38.349,e3:ca:2d:fd:e0:8c, 2015-01-01 00:23:26.495, 0.977, 0.184, -0.178, -3.662, 1.221, -0.854, 136.544, -74.724, 18.594, -23.340, -17.440, -1.173, 27.06, 0.19586, 0.76657, -0.10101, 0.60309,
 14:52:38.350,ed:35:33:d3:6c:f8, 2015-01-01 00:23:24.360, 0.021, 0.237, 0.97, -2.319, 0.671, -0.122, 12.387, -3.351, -172.936, -3.240, -13.933, -34.093, 26.54, 0.06644, -0.02274, -0.11075, -0.9913,
 14:52:38.350,ed:35:33:d3:6c:f8, 2015-01-01 00:23:24.360, 0.013, 0.239, 0.975, -2.258, 0.916, 1.282, 12.349, -3.334, -172.881, -3.240, -13.933, -34.093, 26.54, 0.06644, -0.02274, -0.11075, -0.9913,
 14:52:38.351,f6:90:cc:01:6d:25, 2015-01-01 00:23:24.280, 0.909, 0.35, 0.096, 2.563, 1.343, 0, 78.228, -68.862, 133.391, -25.520, -22.940, 6.193, 29.4, 0.07431, -0.60965, -0.30392, -0.72821,
 14:52:38.351,f6:90:cc:01:6d:25, 2015-01-01 00:23:24.280, 0.91, 0.356, 0.095, 2.93, 0.671, 0.549, 78.212, -68.862, 133.489, -25.520, -22.940, 6.193, 29.4, 0.07431, -0.60965, -0.30392, -0.72821,
 14:52:38.372,ed:40:fe:65:30:6c, 2015-01-01 00:23:25.695, 0.773, 0.304, 0.56, 3.906, 2.075, 4.761, 28.295, -52.833, -140.515, -26.133, -15.187, 2.187, 24.38, 0.39487, -0.33237, -0.35165, -0.78091,
 14:52:38.372,ed:40:fe:65:30:6c, 2015-01-01 00:23:25.695, 0.781, 0.306, 0.562, 5.005, 0.977, 5.066, 28.262, -52.844, -140.345, -26.133, -15.187, 2.187, 24.38, 0.39487, -0.33237, -0.35165, -0.78091,
 14:52:38.372,e3:ca:2d:fd:e0:8c, 2015-01-01 00:23:26.495, 0.977, 0.185, -0.176, -2.319, 0.916, -0.671, 136.384, -74.729, 18.726, -23.340, -17.440, -1.173, 27.06, 0.19586, 0.76657, -0.10101, 0.60309,
 14:52:38.372,e3:ca:2d:fd:e0:8c, 2015-01-01 00:23:26.495, 0.978, 0.188, -0.175, -0.916, 0.366, -0.427, 136.285, -74.734, 18.825, -23.340, -17.440, -1.173, 27.06, 0.19586, 0.76657, -0.10101, 0.60309,
 14:52:38.374,ed:35:33:d3:6c:f8, 2015-01-01 00:23:24.360, 0.013, 0.238, 0.979, -1.953, 0.366, 2.869, 12.321, -3.329, -172.776, -3.240, -13.933, -34.093, 26.54, 0.06644, -0.02274, -0.11075, -0.9913,
 14:52:38.374,ed:35:33:d3:6c:f8, 2015-01-01 00:23:24.360, 0.02, 0.229, 0.982, -1.892, -0.244, 3.357, 12.294, -3.334, -172.656, -3.240, -13.933, -34.093, 26.54, 0.06644, -0.02274, -0.11075, -0.9913,
 14:52:38.393,e3:ca:2d:fd:e0:8c, 2015-01-01 00:23:26.495, 0.978, 0.188, -0.179, 0.671, -0.244, -0.122, 136.258, -74.734, 18.869, -23.340, -17.440, -1.173, 27.06, 0.19586, 0.76657, -0.10101, 0.60309,
 14:52:38.393,e3:ca:2d:fd:e0:8c, 2015-01-01 00:23:26.495, 0.979, 0.188, -0.185, 2.808, -0.732, 0.305, 136.313, -74.729, 18.858, -23.340, -17.440, -1.173, 27.06, 0.19586, 0.76657, -0.10101, 0.60309,
 14:52:38.397,f6:90:cc:01:6d:25, 2015-01-01 00:23:24.280, 0.915, 0.36, 0.088, 3.235, -0.183, 1.343, 78.228, -68.879, 133.566, -25.520, -22.940, 6.193, 29.4, 0.07431, -0.60965, -0.30392, -0.72821,
 14:52:38.397,f6:90:cc:01:6d:25, 2015-01-01 00:23:24.280, 0.917, 0.363, 0.083, 3.784, -0.977, 2.136, 78.289, -68.912, 133.61, -25.520, -22.940, 6.193, 29.4, 0.07431, -0.60965, -0.30392, -0.72821,
 14:52:38.418,ed:35:33:d3:6c:f8, 2015-01-01 00:23:24.360, 0.034, 0.222, 0.979, -1.587, -0.488, 2.441, 12.266, -3.34, -172.513, -3.240, -13.933, -34.093, 26.54, 0.06644, -0.02274, -0.11075, -0.9913,
 14:52:38.418,ed:35:33:d3:6c:f8, 2015-01-01 00:23:24.360, 0.043, 0.224, 0.975, -1.648, -0.61, 2.38, 12.244, -3.345, -172.386, -3.240, -13.933, -34.093, 26.54, 0.06644, -0.02274, -0.11075, -0.9913,
 14:52:38.439,ed:40:fe:65:30:6c, 2015-01-01 00:23:25.695, 0.787, 0.305, 0.555, 4.333, 0, 4.822, 28.24, -52.872, -140.186, -26.133, -15.187, 2.187, 24.38, 0.39487, -0.33237, -0.35165, -0.78091,
 14:52:38.439,ed:40:fe:65:30:6c, 2015-01-01 00:23:25.695, 0.796, 0.308, 0.544, 2.441, -0.61, 4.578, 28.202, -52.91, -140.037, -26.133, -15.187, 2.187, 24.38, 0.39487, -0.33237, -0.35165, -0.78091,
 14:52:38.440,e3:ca:2d:fd:e0:8c, 2015-01-01 00:23:26.495, 0.979, 0.19, -0.189, 4.761, -1.16, 0.671, 136.445, -74.724, 18.82, -23.340, -17.440, -1.173, 27.06, 0.19586, 0.76657, -0.10101, 0.60309,
 14:52:38.440,e3:ca:2d:fd:e0:8c, 2015-01-01 00:23:26.495, 0.978, 0.188, -0.196, 6.287, -1.404, 1.221, 136.653, -74.724, 18.743, -23.340, -17.440, -1.173, 27.06, 0.19586, 0.76657, -0.10101, 0.60309,
 14:52:38.441,f6:90:cc:01:6d:25, 2015-01-01 00:23:24.280, 0.919, 0.362, 0.071, 3.662, -1.343, 2.869, 78.376, -68.956, 133.632, -25.520, -22.940, 6.193, 29.4, 0.07431, -0.60965, -0.30392, -0.72821,
 14:52:38.441,f6:90:cc:01:6d:25, 2015-01-01 00:23:24.280, 0.923, 0.366, 0.062, 2.93, -1.587, 3.662, 78.464, -69.022, 133.649, -25.520, -22.940, 6.193, 29.4, 0.07431, -0.60965, -0.30392, -0.72821,
 14:52:38.462,ed:35:33:d3:6c:f8, 2015-01-01 00:23:24.360, 0.06, 0.227, 0.981, -2.075, -1.648, 1.465, 12.211, -3.367, -172.271, -3.240, -13.933, -34.093, 26.54, 0.06644, -0.02274, -0.11075, -0.9913,
 14:52:38.462,ed:35:33:d3:6c:f8, 2015-01-01 00:23:24.360, 0.073, 0.218, 0.979, -2.625, -2.319, 0, 12.167, -3.395, -172.178, -3.240, -13.933, -34.093, 26.54, 0.06644, -0.02274, -0.11075, -0.9913,
 14:52:38.462,e3:ca:2d:fd:e0:8c, 2015-01-01 00:23:26.495, 0.981, 0.187, -0.205, 7.385, -1.099, 1.77, 136.917, -74.724, 18.627, -22.687, -17.653, -0.867, 27.06, 0.19586, 0.76657, -0.10101, 0.60309,
 14:52:38.462,e3:ca:2d:fd:e0:8c, 2015-01-01 00:23:26.495, 0.983, 0.189, -0.21, 7.568, -0.854, 2.319, 137.208, -74.74, 18.495, -22.687, -17.653, -0.867, 27.06, 0.19586, 0.76657, -0.10101, 0.60309,
 14:52:38.463,ed:40:fe:65:30:6c, 2015-01-01 00:23:26.050, 0.802, 0.311, 0.535, 0.488, -0.61, 4.272, 28.141, -52.943, -139.905, -26.133, -15.187, 2.187, 24.38, 0.39487, -0.33237, -0.35165, -0.78091,
 14:52:38.463,ed:40:fe:65:30:6c, 2015-01-01 00:23:26.050, 0.814, 0.296, 0.528, -0.732, -1.16, 3.662, 28.065, -52.982, -139.796, -26.133, -15.187, 2.187, 24.38, 0.39487, -0.33237, -0.35165, -0.78091,
 14:52:38.486,f6:90:cc:01:6d:25, 2015-01-01 00:23:24.280, 0.93, 0.357, 0.058, 1.831, -1.77, 4.089, 78.552, -69.093, 133.643, -25.520, -22.940, 6.193, 29.4, 0.07431, -0.60965, -0.30392, -0.72821,
 14:52:38.486,f6:90:cc:01:6d:25, 2015-01-01 00:23:24.280, 0.931, 0.347, 0.055, 1.282, -1.892, 3.967, 78.629, -69.17, 133.621, -25.520, -22.940, 6.193, 29.4, 0.07431, -0.60965, -0.30392, -0.72821,
 14:52:38.505,e3:ca:2d:fd:e0:8c, 2015-01-01 00:23:26.495, 0.984, 0.185, -0.213, 7.568, -0.427, 2.502, 137.505, -74.756, 18.336, -22.687, -17.653, -0.867, 27.06, 0.19586, 0.76657, -0.10101, 0.60309,
 14:52:38.505,e3:ca:2d:fd:e0:8c, 2015-01-01 00:23:26.495, 0.983, 0.18, -0.212, 7.019, -0.549, 2.563, 137.802, -74.784, 18.177, -22.687, -17.653, -0.867, 27.06, 0.19586, 0.76657, -0.10101, 0.60309,
 14:52:38.506,ed:40:fe:65:30:6c, 2015-01-01 00:23:26.050, 0.817, 0.289, 0.524, -1.038, -0.977, 3.296, 27.993, -53.02, -139.708, -26.133, -15.187, 2.187, 24.38, 0.39487, -0.33237, -0.35165, -0.78091,
 14:52:38.506,ed:40:fe:65:30:6c, 2015-01-01 00:23:26.050, 0.821, 0.277, 0.519, -1.282, -0.977, 3.174, 27.916, -53.058, -139.625, -26.133, -15.187, 2.187, 24.38, 0.39487, -0.33237, -0.35165, -0.78091,
 14:52:38.508,ed:35:33:d3:6c:f8, 2015-01-01 00:23:24.360, 0.08, 0.216, 0.978, -2.563, -1.587, -1.343, 12.129, -3.411, -172.128, -3.240, -13.933, -34.093, 26.54, 0.06644, -0.02274, -0.11075, -0.9913,
 14:52:38.508,ed:35:33:d3:6c:f8, 2015-01-01 00:23:24.360, 0.081, 0.208, 0.978, -2.93, -0.488, -0.977, 12.079, -3.411, -172.073, -3.240, -13.933, -34.093, 26.54, 0.06644, -0.02274, -0.11075, -0.9913,
 14:52:38.528,e3:ca:2d:fd:e0:8c, 2015-01-01 00:23:26.495, 0.983, 0.177, -0.21, 6.165, -0.183, 2.38, 138.082, -74.806, 18.012, -22.687, -17.653, -0.867, 27.06, 0.19257, 0.76648, -0.09863, 0.60461,
 14:52:38.528,e3:ca:2d:fd:e0:8c, 2015-01-01 00:23:26.495, 0.985, 0.175, -0.211, 5.127, 0.549, 2.258, 138.307, -74.833, 17.88, -22.687, -17.653, -0.867, 27.06, 0.19257, 0.76648, -0.09863, 0.60461,
 14:52:38.531,f6:90:cc:01:6d:25, 2015-01-01 00:23:24.280, 0.934, 0.341, 0.051, 1.221, -1.77, 3.662, 78.712, -69.241, 133.588, -26.033, -22.567, 6.087, 29.4, 0.07431, -0.60965, -0.30392, -0.72821,
 14:52:38.531,f6:90:cc:01:6d:25, 2015-01-01 00:23:24.280, 0.935, 0.341, 0.048, 0.916, -1.282, 3.418, 78.772, -69.307, 133.561, -26.033, -22.567, 6.087, 29.4, 0.07431, -0.60965, -0.30392, -0.72821,
 14:52:38.552,ed:40:fe:65:30:6c, 2015-01-01 00:23:26.050, 0.824, 0.278, 0.516, -2.258, -1.16, 2.808, 27.834, -53.102, -139.565, -26.133, -15.187, 2.187, 24.38, 0.39487, -0.33237, -0.35165, -0.78091,
 14:52:38.552,ed:40:fe:65:30:6c, 2015-01-01 00:23:26.050, 0.826, 0.273, 0.512, -2.625, -0.916, 1.953, 27.757, -53.135, -139.521, -26.133, -15.187, 2.187, 24.38, 0.39487, -0.33237, -0.35165, -0.78091,
 14:52:38.554,ed:35:33:d3:6c:f8, 2015-01-01 00:23:24.360, 0.09, 0.203, 0.977, -3.418, -0.488, -0.61, 12.019, -3.411, -172.04, -3.240, -13.933, -34.093, 26.54, 0.06644, -0.02274, -0.11075, -0.9913,
 14:52:38.554,ed:35:33:d3:6c:f8, 2015-01-01 00:23:24.360, 0.094, 0.192, 0.979, -3.296, 0.061, -0.671, 11.959, -3.411, -172.068, -3.240, -13.933, -34.093, 26.54, 0.06644, -0.02274, -0.11075, -0.9913,
 14:52:38.554,f6:90:cc:01:6d:25, 2015-01-01 00:23:24.280, 0.939, 0.34, 0.047, 0.183, -0.61, 3.296, 78.799, -69.373, 133.555, -26.033, -22.567, 6.087, 29.4, 0.08154, -0.60995, -0.30618, -0.72626,
 14:52:38.554,f6:90:cc:01:6d:25, 2015-01-01 00:23:24.280, 0.938, 0.331, 0.05, -0.549, 0, 2.808, 78.788, -69.428, 133.577, -26.033, -22.567, 6.087, 29.4, 0.08154, -0.60995, -0.30618, -0.72626,
 14:52:38.574,ed:40:fe:65:30:6c, 2015-01-01 00:23:26.050, 0.822, 0.262, 0.515, -2.319, -0.427, 1.099, 27.697, -53.163, -139.51, -26.133, -15.187, 2.187, 24.38, 0.39487, -0.33237, -0.35165, -0.78091,
 14:52:38.574,ed:40:fe:65:30:6c, 2015-01-01 00:23:26.050, 0.817, 0.256, 0.518, -1.77, 0.122, 0.732, 27.647, -53.174, -139.504, -26.133, -15.187, 2.187, 24.38, 0.39487, -0.33237, -0.35165, -0.78091,
 14:52:38.575,ed:35:33:d3:6c:f8, 2015-01-01 00:23:24.360, 0.09, 0.188, 0.976, -2.319, 0.427, -1.16, 11.92, -3.406, -172.128, -2.867, -13.340, -33.947, 26.54, 0.06644, -0.02274, -0.11075, -0.9913,
 14:52:38.575,ed:35:33:d3:6c:f8, 2015-01-01 00:23:24.360, 0.082, 0.187, 0.978, -1.526, 1.099, -0.549, 11.887, -3.389, -172.183, -2.867, -13.340, -33.947, 26.54, 0.06644, -0.02274, -0.11075, -0.9913,
 14:52:38.595,e3:ca:2d:fd:e0:8c, 2015-01-01 00:23:26.495, 0.985, 0.173, -0.209, 3.479, 0.977, 2.075, 138.472, -74.866, 17.781, -22.687, -17.653, -0.867, 27.06, 0.19257, 0.76648, -0.09863, 0.60461,
 14:52:38.595,e3:ca:2d:fd:e0:8c, 2015-01-01 00:23:26.495, 0.985, 0.167, -0.206, 1.953, 1.343, 1.587, 138.576, -74.905, 17.715, -22.687, -17.653, -0.867, 27.06, 0.19257, 0.76648, -0.09863, 0.60461,
 14:52:38.599,f6:90:cc:01:6d:25, 2015-01-01 00:23:24.280, 0.935, 0.322, 0.055, -0.732, 0.488, 2.197, 78.75, -69.472, 133.616, -26.033, -22.567, 6.087, 29.4, 0.08154, -0.60995, -0.30618, -0.72626,
 14:52:38.599,f6:90:cc:01:6d:25, 2015-01-01 00:23:24.280, 0.931, 0.32, 0.057, -0.61, 0.916, 1.587, 78.695, -69.505, 133.654, -26.033, -22.567, 6.087, 29.4, 0.08154, -0.60995, -0.30618, -0.72626,
 14:52:38.617,e3:ca:2d:fd:e0:8c, 2015-01-01 00:23:26.855, 0.983, 0.164, -0.203, 0.732, 1.404, 0.977, 138.609, -74.938, 17.699, -22.687, -17.653, -0.867, 27.06, 0.19257, 0.76648, -0.09863, 0.60461,
 14:52:38.617,e3:ca:2d:fd:e0:8c, 2015-01-01 00:23:26.855, 0.983, 0.162, -0.201, -0.122, 1.648, 0.488, 138.593, -74.965, 17.721, -22.687, -17.653, -0.867, 27.06, 0.19257, 0.76648, -0.09863, 0.60461,
 14:52:38.619,ed:40:fe:65:30:6c, 2015-01-01 00:23:26.050, 0.812, 0.253, 0.521, -1.648, 0.549, 0.427, 27.598, -53.179, -139.493, -26.133, -15.187, 2.187, 24.38, 0.39487, -0.33237, -0.35165, -0.78091,
 14:52:38.619,ed:40:fe:65:30:6c, 2015-01-01 00:23:26.050, 0.806, 0.254, 0.522, -1.892, 1.099, 0, 27.543, -53.174, -139.493, -26.133, -15.187, 2.187, 24.38, 0.39487, -0.33237, -0.35165, -0.78091,
 14:52:38.621,ed:35:33:d3:6c:f8, 2015-01-01 00:23:24.360, 0.076, 0.18, 0.976, -1.099, 1.831, -0.977, 11.865, -3.356, -172.266, -2.867, -13.340, -33.947, 26.54, 0.06644, -0.02274, -0.11075, -0.9913,
 14:52:38.621,ed:35:33:d3:6c:f8, 2015-01-01 00:23:24.360, 0.066, 0.179, 0.975, -0.977, 2.136, -1.343, 11.838, -3.323, -172.354, -2.867, -13.340, -33.947, 26.54, 0.06644, -0.02274, -0.11075, -0.9913,
 14:52:38.644,f6:90:cc:01:6d:25, 2015-01-01 00:23:24.570, 0.929, 0.32, 0.057, -0.549, 1.343, 1.16, 78.624, -69.532, 133.698, -26.033, -22.567, 6.087, 29.4, 0.08154, -0.60995, -0.30618, -0.72626,
 14:52:38.644,f6:90:cc:01:6d:25, 2015-01-01 00:23:24.570, 0.927, 0.32, 0.062, -0.732, 1.587, 0.671, 78.536, -69.543, 133.759, -26.033, -22.567, 6.087, 29.4, 0.08154, -0.60995, -0.30618, -0.72626,
 14:52:38.665,e3:ca:2d:fd:e0:8c, 2015-01-01 00:23:26.855, 0.983, 0.165, -0.2, -0.732, 1.831, 0.061, 138.527, -74.993, 17.77, -22.687, -17.653, -0.867, 27.06, 0.19257, 0.76648, -0.09863, 0.60461,
 14:52:38.665,e3:ca:2d:fd:e0:8c, 2015-01-01 00:23:26.855, 0.983, 0.168, -0.198, -1.465, 1.77, -0.244, 138.428, -75.02, 17.836, -22.687, -17.653, -0.867, 27.06, 0.19257, 0.76648, -0.09863, 0.60461,
 14:52:38.665,ed:40:fe:65:30:6c, 2015-01-01 00:23:26.050, 0.802, 0.252, 0.528, -1.77, 1.343, -0.488, 27.499, -53.163, -139.504, -26.133, -15.187, 2.187, 24.38, 0.39487, -0.33237, -0.35165, -0.78091,
 14:52:38.665,ed:40:fe:65:30:6c, 2015-01-01 00:23:26.050, 0.797, 0.254, 0.534, -1.282, 1.343, -0.671, 27.46, -53.141, -139.521, -26.133, -15.187, 2.187, 24.38, 0.39487, -0.33237, -0.35165, -0.78091,
 14:52:38.686,e3:ca:2d:fd:e0:8c, 2015-01-01 00:23:26.855, 0.981, 0.17, -0.193, -2.197, 1.587, -0.671, 138.301, -75.037, 17.913, -22.687, -17.653, -0.867, 27.06, 0.19257, 0.76648, -0.09863, 0.60461,
 14:52:38.686,e3:ca:2d:fd:e0:8c, 2015-01-01 00:23:26.855, 0.98, 0.172, -0.19, -2.686, 1.099, -1.038, 138.153, -75.042, 18.012, -22.687, -17.653, -0.867, 27.06, 0.19257, 0.76648, -0.09863, 0.60461,
 14:52:38.688,ed:35:33:d3:6c:f8, 2015-01-01 00:23:24.360, 0.059, 0.18, 0.974, -0.366, 2.136, -1.16, 11.827, -3.285, -172.441, -2.867, -13.340, -33.947, 26.54, 0.06967, -0.022, -0.10492, -0.99173,
 14:52:38.688,ed:35:33:d3:6c:f8, 2015-01-01 00:23:24.360, 0.051, 0.184, 0.975, 0, 2.319, -0.244, 11.816, -3.252, -172.496, -2.867, -13.340, -33.947, 26.54, 0.06967, -0.022, -0.10492, -0.99173,
 14:52:38.688,f6:90:cc:01:6d:25, 2015-01-01 00:23:24.570, 0.925, 0.32, 0.066, -0.732, 1.587, 0, 78.453, -69.549, 133.813, -26.033, -22.567, 6.087, 29.4, 0.08154, -0.60995, -0.30618, -0.72626,
 14:52:38.688,f6:90:cc:01:6d:25, 2015-01-01 00:23:24.570, 0.923, 0.321, 0.073, -0.854, 1.465, -0.488, 78.376, -69.543, 133.841, -26.033, -22.567, 6.087, 29.4, 0.08154, -0.60995, -0.30618, -0.72626,
 14:52:38.709,ed:40:fe:65:30:6c, 2015-01-01 00:23:26.050, 0.793, 0.26, 0.539, -0.671, 1.282, -0.61, 27.433, -53.124, -139.543, -26.340, -15.127, 2.293, 24.38, 0.39487, -0.33237, -0.35165, -0.78091,
 14:52:38.709,ed:40:fe:65:30:6c, 2015-01-01 00:23:26.050, 0.792, 0.267, 0.544, -0.305, 1.099, -0.244, 27.411, -53.108, -139.559, -26.340, -15.127, 2.293, 24.38, 0.39487, -0.33237, -0.35165, -0.78091,
 14:52:38.712,f6:90:cc:01:6d:25, 2015-01-01 00:23:24.570, 0.922, 0.325, 0.077, -0.549, 1.343, -0.916, 78.305, -69.532, 133.885, -26.033, -22.567, 6.087, 29.4, 0.08154, -0.60995, -0.30618, -0.72626,
 14:52:38.712,f6:90:cc:01:6d:25, 2015-01-01 00:23:24.570, 0.921, 0.333, 0.077, -0.122, 1.038, -1.038, 78.256, -69.516, 133.918, -26.033, -22.567, 6.087, 29.4, 0.08154, -0.60995, -0.30618, -0.72626,
 14:52:38.731,e3:ca:2d:fd:e0:8c, 2015-01-01 00:23:26.855, 0.98, 0.173, -0.19, -2.563, 0.732, -1.16, 138.01, -75.042, 18.116, -22.687, -17.653, -0.867, 27.06, 0.19257, 0.76648, -0.09863, 0.60461,
 14:52:38.731,e3:ca:2d:fd:e0:8c, 2015-01-01 00:23:26.855, 0.979, 0.176, -0.188, -2.258, 0.488, -1.099, 137.878, -75.037, 18.221, -22.687, -17.653, -0.867, 27.06, 0.19257, 0.76648, -0.09863, 0.60461,
 14:52:38.732,ed:35:33:d3:6c:f8, 2015-01-01 00:23:24.720, 0.039, 0.193, 0.978, 0.061, 2.136, 0.061, 11.81, -3.219, -172.546, -2.867, -13.340, -33.947, 26.54, 0.06967, -0.022, -0.10492, -0.99173,
 14:52:38.732,ed:35:33:d3:6c:f8, 2015-01-01 00:23:24.720, 0.034, 0.199, 0.98, -0.122, 1.648, 0.244, 11.799, -3.192, -172.568, -2.867, -13.340, -33.947, 26.54, 0.06967, -0.022, -0.10492, -0.99173,
 14:52:38.754,ed:40:fe:65:30:6c, 2015-01-01 00:23:26.050, 0.79, 0.273, 0.546, -0.244, 0.671, -0.061, 27.389, -53.097, -139.565, -26.340, -15.127, 2.293, 24.38, 0.39487, -0.33237, -0.35165, -0.78091,
 14:52:38.754,ed:40:fe:65:30:6c, 2015-01-01 00:23:26.050, 0.788, 0.273, 0.545, -0.366, 0.366, -0.244, 27.372, -53.091, -139.576, -26.340, -15.127, 2.293, 24.38, 0.39487, -0.33237, -0.35165, -0.78091,
 14:52:38.755,ed:35:33:d3:6c:f8, 2015-01-01 00:23:24.720, 0.039, 0.199, 0.981, -0.305, 1.038, 0.488, 11.783, -3.175, -172.562, -2.867, -13.340, -33.947, 26.54, 0.06967, -0.022, -0.10492, -0.99173,
 14:52:38.755,ed:35:33:d3:6c:f8, 2015-01-01 00:23:24.720, 0.033, 0.198, 0.977, -0.671, 0.854, 0.305, 11.761, -3.159, -172.562, -2.867, -13.340, -33.947, 26.54, 0.06967, -0.022, -0.10492, -0.99173,
 14:52:38.756,f6:90:cc:01:6d:25, 2015-01-01 00:23:24.570, 0.918, 0.337, 0.078, -0.122, 0.793, -0.977, 78.223, -69.5, 133.934, -26.033, -22.567, 6.087, 29.4, 0.08154, -0.60995, -0.30618, -0.72626,
 14:52:38.756,f6:90:cc:01:6d:25, 2015-01-01 00:23:24.570, 0.919, 0.337, 0.079, -0.122, 0.549, -1.038, 78.195, -69.483, 133.962, -26.033, -22.567, 6.087, 29.4, 0.08154, -0.60995, -0.30618, -0.72626,
 14:52:38.776,ed:40:fe:65:30:6c, 2015-01-01 00:23:26.050, 0.788, 0.275, 0.548, -0.183, 0, -0.488, 27.372, -53.086, -139.598, -26.340, -15.127, 2.293, 24.38, 0.39944, -0.33438, -0.3486, -0.77911,
 14:52:38.776,ed:40:fe:65:30:6c, 2015-01-01 00:23:26.050, 0.788, 0.278, 0.55, 0, -0.366, -0.549, 27.378, -53.086, -139.614, -26.340, -15.127, 2.293, 24.38, 0.39944, -0.33438, -0.3486, -0.77911,
 14:52:38.777,ed:35:33:d3:6c:f8, 2015-01-01 00:23:24.720, 0.032, 0.196, 0.978, 0.122, 0.122, 0.427, 11.761, -3.159, -172.551, -2.867, -13.340, -33.947, 26.54, 0.06967, -0.022, -0.10492, -0.99173,
 14:52:38.777,ed:35:33:d3:6c:f8, 2015-01-01 00:23:24.720, 0.031, 0.203, 0.979, 0.488, -0.549, 0.61, 11.761, -3.164, -172.529, -2.867, -13.340, -33.947, 26.54, 0.06967, -0.022, -0.10492, -0.99173,
 14:52:38.798,e3:ca:2d:fd:e0:8c, 2015-01-01 00:23:26.855, 0.98, 0.18, -0.189, -1.953, 0.244, -0.977, 137.769, -75.031, 18.325, -22.687, -17.653, -0.867, 27.06, 0.19257, 0.76648, -0.09863, 0.60461,
 14:52:38.798,e3:ca:2d:fd:e0:8c, 2015-01-01 00:23:26.855, 0.98, 0.182, -0.188, -1.77, 0.061, -0.854, 137.681, -75.02, 18.419, -22.687, -17.653, -0.867, 27.06, 0.19257, 0.76648, -0.09863, 0.60461,
 14:52:38.803,f6:90:cc:01:6d:25, 2015-01-01 00:23:24.570, 0.919, 0.34, 0.081, -0.122, 0.122, -1.099, 78.19, -69.467, 133.978, -26.033, -22.567, 6.087, 29.4, 0.08154, -0.60995, -0.30618, -0.72626,
 14:52:38.803,f6:90:cc:01:6d:25, 2015-01-01 00:23:24.570, 0.919, 0.34, 0.079, -0.061, -0.183, -1.16, 78.201, -69.445, 133.973, -26.033, -22.567, 6.087, 29.4, 0.08154, -0.60995, -0.30618, -0.72626,
 14:52:38.821,ed:40:fe:65:30:6c, 2015-01-01 00:23:26.050, 0.789, 0.279, 0.548, 0.427, -0.61, -0.549, 27.4, -53.086, -139.642, -26.340, -15.127, 2.293, 24.38, 0.39944, -0.33438, -0.3486, -0.77911,
 14:52:38.821,ed:40:fe:65:30:6c, 2015-01-01 00:23:26.050, 0.789, 0.278, 0.545, 0.732, -0.793, -0.549, 27.427, -53.091, -139.669, -26.340, -15.127, 2.293, 24.38, 0.39944, -0.33438, -0.3486, -0.77911,
 14:52:38.821,e3:ca:2d:fd:e0:8c, 2015-01-01 00:23:26.855, 0.979, 0.184, -0.19, -1.587, -0.305, -0.732, 137.609, -75.009, 18.479, -23.293, -17.367, -0.720, 27.06, 0.19257, 0.76648, -0.09863, 0.60461,
 14:52:38.821,e3:ca:2d:fd:e0:8c, 2015-01-01 00:23:26.855, 0.979, 0.184, -0.191, -1.221, -0.671, -0.61, 137.565, -74.993, 18.506, -23.293, -17.367, -0.720, 27.06, 0.19257, 0.76648, -0.09863, 0.60461,
 14:52:38.825,ed:35:33:d3:6c:f8, 2015-01-01 00:23:24.720, 0.036, 0.208, 0.981, 0.916, -1.343, 0.854, 11.777, -3.186, -172.452, -2.867, -13.340, -33.947, 26.54, 0.06967, -0.022, -0.10492, -0.99173,
 14:52:38.825,ed:35:33:d3:6c:f8, 2015-01-01 00:23:24.720, 0.04, 0.204, 0.977, 0.977, -1.16, 0.916, 11.794, -3.203, -172.354, -2.867, -13.340, -33.947, 26.54, 0.06967, -0.022, -0.10492, -0.99173,
 14:52:38.846,f6:90:cc:01:6d:25, 2015-01-01 00:23:24.570, 0.917, 0.342, 0.078, 0.244, -0.61, -1.221, 78.234, -69.428, 133.945, -25.713, -22.667, 5.860, 29.4, 0.08154, -0.60995, -0.30618, -0.72626,
 14:52:38.846,f6:90:cc:01:6d:25, 2015-01-01 00:23:24.570, 0.918, 0.343, 0.075, 0.549, -0.977, -1.343, 78.294, -69.406, 133.896, -25.713, -22.667, 5.860, 29.4, 0.08154, -0.60995, -0.30618, -0.72626,
 14:52:38.865,e3:ca:2d:fd:e0:8c, 2015-01-01 00:23:26.855, 0.979, 0.185, -0.192, -0.671, -0.916, -0.427, 137.554, -74.976, 18.49, -23.293, -17.367, -0.720, 27.06, 0.19257, 0.76648, -0.09863, 0.60461,
 14:52:38.865,e3:ca:2d:fd:e0:8c, 2015-01-01 00:23:26.855, 0.98, 0.184, -0.194, -0.061, -1.038, -0.244, 137.571, -74.954, 18.452, -23.293, -17.367, -0.720, 27.06, 0.19257, 0.76648, -0.09863, 0.60461,
 14:52:38.866,ed:40:fe:65:30:6c, 2015-01-01 00:23:26.450, 0.791, 0.281, 0.542, 1.221, -0.977, -0.549, 27.471, -53.097, -139.697, -26.340, -15.127, 2.293, 24.38, 0.39944, -0.33438, -0.3486, -0.77911,
 14:52:38.866,ed:40:fe:65:30:6c, 2015-01-01 00:23:26.450, 0.799, 0.287, 0.54, 1.282, -1.282, -0.549, 27.515, -53.108, -139.741, -26.340, -15.127, 2.293, 24.38, 0.39944, -0.33438, -0.3486, -0.77911,
 14:52:38.868,ed:35:33:d3:6c:f8, 2015-01-01 00:23:24.720, 0.038, 0.21, 0.974, 1.343, -1.221, 1.16, 11.816, -3.224, -172.244, -2.867, -13.340, -33.947, 26.54, 0.06967, -0.022, -0.10492, -0.99173,
 14:52:38.868,ed:35:33:d3:6c:f8, 2015-01-01 00:23:24.720, 0.05, 0.21, 0.976, 1.77, -1.587, 1.526, 11.849, -3.252, -172.139, -2.867, -13.340, -33.947, 26.54, 0.06967, -0.022, -0.10492, -0.99173,
 14:52:38.888,e3:ca:2d:fd:e0:8c, 2015-01-01 00:23:26.855, 0.981, 0.183, -0.197, 0.427, -1.038, 0, 137.609, -74.938, 18.413, -23.293, -17.367, -0.720, 27.06, 0.19247, 0.7655, -0.09869, 0.60587,
 14:52:38.888,e3:ca:2d:fd:e0:8c, 2015-01-01 00:23:26.855, 0.981, 0.183, -0.198, 0.61, -1.038, 0.183, 137.67, -74.927, 18.353, -23.293, -17.367, -0.720, 27.06, 0.19247, 0.7655, -0.09869, 0.60587,
 14:52:38.892,f6:90:cc:01:6d:25, 2015-01-01 00:23:24.570, 0.922, 0.347, 0.071, 0.793, -1.16, -1.16, 78.365, -69.384, 133.819, -25.713, -22.667, 5.860, 29.4, 0.0809, -0.60953, -0.30484, -0.72723,
 14:52:38.892,f6:90:cc:01:6d:25, 2015-01-01 00:23:24.570, 0.925, 0.351, 0.07, 0.549, -1.282, -0.916, 78.448, -69.373, 133.726, -25.713, -22.667, 5.860, 29.4, 0.0809, -0.60953, -0.30484, -0.72723,
 14:52:38.911,ed:40:fe:65:30:6c, 2015-01-01 00:23:26.450, 0.802, 0.289, 0.535, 0.854, -1.343, -0.977, 27.57, -53.113, -139.796, -26.340, -15.127, 2.293, 24.38, 0.39944, -0.33438, -0.3486, -0.77911,
 14:52:38.911,ed:40:fe:65:30:6c, 2015-01-01 00:23:26.450, 0.803, 0.287, 0.532, 0.366, -1.221, -1.282, 27.62, -53.119, -139.856, -26.340, -15.127, 2.293, 24.38, 0.39944, -0.33438, -0.3486, -0.77911,
 14:52:38.912,ed:35:33:d3:6c:f8, 2015-01-01 00:23:24.720, 0.062, 0.21, 0.976, 1.831, -1.587, 0.977, 11.882, -3.274, -172.068, -2.867, -13.340, -33.947, 26.54, 0.06967, -0.022, -0.10492, -0.99173,
 14:52:38.912,ed:35:33:d3:6c:f8, 2015-01-01 00:23:24.720, 0.059, 0.218, 0.976, 1.831, -0.671, 0.061, 11.92, -3.285, -172.013, -2.867, -13.340, -33.947, 26.54, 0.06967, -0.022, -0.10492, -0.99173,
 14:52:38.913,f6:90:cc:01:6d:25, 2015-01-01 00:23:24.885, 0.925, 0.348, 0.067, 0.061, -1.282, -0.793, 78.519, -69.362, 133.616, -25.713, -22.667, 5.860, 29.4, 0.0809, -0.60953, -0.30484, -0.72723,
 14:52:38.913,f6:90:cc:01:6d:25, 2015-01-01 00:23:24.885, 0.924, 0.343, 0.064, -0.122, -1.221, -0.671, 78.58, -69.351, 133.528, -25.713, -22.667, 5.860, 29.4, 0.0809, -0.60953, -0.30484, -0.72723,
 14:52:38.933,e3:ca:2d:fd:e0:8c, 2015-01-01 00:23:26.855, 0.981, 0.182, -0.199, 0.488, -1.038, 0.244, 137.736, -74.91, 18.314, -23.293, -17.367, -0.720, 27.06, 0.19247, 0.7655, -0.09869, 0.60587,
 14:52:38.933,e3:ca:2d:fd:e0:8c, 2015-01-01 00:23:26.855, 0.982, 0.179, -0.199, 0.305, -0.916, 0.244, 137.796, -74.899, 18.292, -23.293, -17.367, -0.720, 27.06, 0.19247, 0.7655, -0.09869, 0.60587,
 14:52:38.935,ed:35:33:d3:6c:f8, 2015-01-01 00:23:24.720, 0.059, 0.22, 0.977, 1.648, -0.549, 0.244, 11.959, -3.29, -171.991, -2.947, -13.220, -35.520, 26.54, 0.06967, -0.022, -0.10492, -0.99173,
 14:52:38.935,ed:35:33:d3:6c:f8, 2015-01-01 00:23:24.720, 0.064, 0.217, 0.977, 1.648, -0.793, 0.793, 11.992, -3.301, -171.969, -2.947, -13.220, -35.520, 26.54, 0.06967, -0.022, -0.10492, -0.99173,
 14:52:38.935,ed:40:fe:65:30:6c, 2015-01-01 00:23:26.450, 0.802, 0.285, 0.529, 0.183, -1.038, -1.221, 27.664, -53.119, -139.905, -26.340, -15.127, 2.293, 24.38, 0.39944, -0.33438, -0.3486, -0.77911,
 14:52:38.935,ed:40:fe:65:30:6c, 2015-01-01 00:23:26.450, 0.804, 0.283, 0.529, 0.305, -0.793, -0.854, 27.702, -53.119, -139.938, -26.340, -15.127, 2.293, 24.38, 0.39944, -0.33438, -0.3486, -0.77911,
 14:52:38.959,f6:90:cc:01:6d:25, 2015-01-01 00:23:24.885, 0.926, 0.34, 0.063, 0, -1.16, -0.61, 78.646, -69.34, 133.434, -25.713, -22.667, 5.860, 29.4, 0.0809, -0.60953, -0.30484, -0.72723,
 14:52:38.959,f6:90:cc:01:6d:25, 2015-01-01 00:23:24.885, 0.927, 0.34, 0.062, 0.366, -1.099, -0.488, 78.712, -69.335, 133.341, -25.713, -22.667, 5.860, 29.4, 0.0809, -0.60953, -0.30484, -0.72723,
 14:52:38.977,e3:ca:2d:fd:e0:8c, 2015-01-01 00:23:27.210, 0.982, 0.176, -0.199, 0.427, -0.793, 0.305, 137.856, -74.888, 18.254, -23.293, -17.367, -0.720, 27.06, 0.19247, 0.7655, -0.09869, 0.60587,
 14:52:38.977,e3:ca:2d:fd:e0:8c, 2015-01-01 00:23:27.210, 0.982, 0.174, -0.2, 0.671, -0.671, 0.305, 137.917, -74.883, 18.226, -23.293, -17.367, -0.720, 27.06, 0.19247, 0.7655, -0.09869, 0.60587,
 14:52:38.978,ed:40:fe:65:30:6c, 2015-01-01 00:23:26.450, 0.807, 0.284, 0.53, 0.793, -0.61, -0.549, 27.74, -53.124, -139.966, -26.340, -15.127, 2.293, 24.38, 0.39944, -0.33438, -0.3486, -0.77911,
 14:52:38.978,ed:40:fe:65:30:6c, 2015-01-01 00:23:26.450, 0.806, 0.281, 0.528, 0.916, -0.488, -0.427, 27.773, -53.124, -139.993, -26.340, -15.127, 2.293, 24.38, 0.39944, -0.33438, -0.3486, -0.77911,
 14:52:38.980,ed:35:33:d3:6c:f8, 2015-01-01 00:23:24.720, 0.067, 0.214, 0.976, 1.465, -0.671, 1.038, 12.025, -3.312, -171.914, -2.947, -13.220, -35.520, 26.54, 0.06967, -0.022, -0.10492, -0.99173,
 14:52:38.980,ed:35:33:d3:6c:f8, 2015-01-01 00:23:24.720, 0.065, 0.212, 0.975, 1.221, -0.305, 0.793, 12.057, -3.329, -171.865, -2.947, -13.220, -35.520, 26.54, 0.06967, -0.022, -0.10492, -0.99173,
 14:52:39.004,f6:90:cc:01:6d:25, 2015-01-01 00:23:24.885, 0.926, 0.339, 0.063, 0.549, -0.977, -0.366, 78.777, -69.335, 133.259, -25.713, -22.667, 5.860, 29.4, 0.0809, -0.60953, -0.30484, -0.72723,
 14:52:39.004,f6:90:cc:01:6d:25, 2015-01-01 00:23:24.885, 0.927, 0.338, 0.062, 0.427, -0.793, -0.244, 78.832, -69.329, 133.204, -25.713, -22.667, 5.860, 29.4, 0.0809, -0.60953, -0.30484, -0.72723,
 14:52:39.022,e3:ca:2d:fd:e0:8c, 2015-01-01 00:23:27.210, 0.981, 0.174, -0.2, 0.732, -0.61, 0.244, 137.977, -74.872, 18.215, -23.293, -17.367, -0.720, 27.06, 0.19247, 0.7655, -0.09869, 0.60587,
 14:52:39.022,e3:ca:2d:fd:e0:8c, 2015-01-01 00:23:27.210, 0.982, 0.174, -0.2, 0.488, -0.427, 0.183, 138.021, -74.866, 18.193, -23.293, -17.367, -0.720, 27.06, 0.19247, 0.7655, -0.09869, 0.60587,
 14:52:39.047,ed:40:fe:65:30:6c, 2015-01-01 00:23:26.450, 0.806, 0.28, 0.526, 0.732, -0.366, -0.366, 27.801, -53.124, -140.021, -26.340, -15.127, 2.293, 24.38, 0.39944, -0.33438, -0.3486, -0.77911,
 14:52:39.047,ed:40:fe:65:30:6c, 2015-01-01 00:23:26.450, 0.808, 0.282, 0.526, 0.427, -0.183, -0.244, 27.823, -53.13, -140.043, -26.340, -15.127, 2.293, 24.38, 0.39944, -0.33438, -0.3486, -0.77911,
 14:52:39.048,ed:35:33:d3:6c:f8, 2015-01-01 00:23:24.720, 0.066, 0.214, 0.976, 0.854, -0.061, 0.366, 12.079, -3.334, -171.837, -2.947, -13.220, -35.520, 26.54, 0.0733, -0.02133, -0.10663, -0.9913,
 14:52:39.048,ed:35:33:d3:6c:f8, 2015-01-01 00:23:24.720, 0.064, 0.218, 0.979, 0.427, 0.061, 0.183, 12.096, -3.334, -171.793, -2.947, -13.220, -35.520, 26.54, 0.0733, -0.02133, -0.10663, -0.9913,
 14:52:39.049,f6:90:cc:01:6d:25, 2015-01-01 00:23:24.885, 0.928, 0.338, 0.06, 0.183, -0.61, -0.183, 78.871, -69.335, 133.143, -25.713, -22.667, 5.860, 29.4, 0.0809, -0.60953, -0.30484, -0.72723,
 14:52:39.049,f6:90:cc:01:6d:25, 2015-01-01 00:23:24.885, 0.928, 0.336, 0.06, 0.122, -0.366, -0.122, 78.898, -69.335, 133.083, -25.713, -22.667, 5.860, 29.4, 0.0809, -0.60953, -0.30484, -0.72723,
 14:52:39.068,e3:ca:2d:fd:e0:8c, 2015-01-01 00:23:27.210, 0.982, 0.174, -0.201, 0.183, -0.244, 0, 138.043, -74.866, 18.177, -23.293, -17.367, -0.720, 27.06, 0.19247, 0.7655, -0.09869, 0.60587,
 14:52:39.068,e3:ca:2d:fd:e0:8c, 2015-01-01 00:23:27.210, 0.981, 0.174, -0.202, 0, -0.122, 0, 138.06, -74.861, 18.182, -23.293, -17.367, -0.720, 27.06, 0.19247, 0.7655, -0.09869, 0.60587,
 14:52:39.069,ed:35:33:d3:6c:f8, 2015-01-01 00:23:25.075, 0.062, 0.216, 0.978, 0.122, -0.061, 0.305, 12.107, -3.334, -171.766, -2.947, -13.220, -35.520, 26.54, 0.0733, -0.02133, -0.10663, -0.9913,
 14:52:39.069,ed:35:33:d3:6c:f8, 2015-01-01 00:23:25.075, 0.063, 0.213, 0.978, -0.122, -0.122, 0.305, 12.107, -3.34, -171.755, -2.947, -13.220, -35.520, 26.54, 0.0733, -0.02133, -0.10663, -0.9913,
 14:52:39.069,ed:40:fe:65:30:6c, 2015-01-01 00:23:26.450, 0.808, 0.282, 0.526, 0.366, -0.061, 0, 27.834, -53.13, -140.048, -26.480, -14.940, 2.227, 24.38, 0.39944, -0.33438, -0.3486, -0.77911,
 14:52:39.069,ed:40:fe:65:30:6c, 2015-01-01 00:23:26.450, 0.806, 0.282, 0.527, 0.244, 0, 0.122, 27.834, -53.13, -140.048, -26.480, -14.940, 2.227, 24.38, 0.39944, -0.33438, -0.3486, -0.77911,
 14:52:39.094,f6:90:cc:01:6d:25, 2015-01-01 00:23:24.885, 0.927, 0.339, 0.06, 0.183, -0.122, -0.061, 78.915, -69.335, 133.028, -25.713, -22.667, 5.860, 29.4, 0.0809, -0.60953, -0.30484, -0.72723,
 14:52:39.094,f6:90:cc:01:6d:25, 2015-01-01 00:23:24.885, 0.927, 0.339, 0.06, 0.305, 0, -0.061, 78.931, -69.335, 132.979, -25.713, -22.667, 5.860, 29.4, 0.0809, -0.60953, -0.30484, -0.72723,
 14:52:39.114,e3:ca:2d:fd:e0:8c, 2015-01-01 00:23:27.210, 0.982, 0.175, -0.202, 0, -0.061, -0.061, 138.065, -74.861, 18.182, -23.293, -17.367, -0.720, 27.06, 0.19247, 0.7655, -0.09869, 0.60587,
 14:52:39.114,e3:ca:2d:fd:e0:8c, 2015-01-01 00:23:27.210, 0.982, 0.176, -0.202, 0, 0.061, -0.122, 138.065, -74.861, 18.193, -23.293, -17.367, -0.720, 27.06, 0.19247, 0.7655, -0.09869, 0.60587,
 14:52:39.115,ed:40:fe:65:30:6c, 2015-01-01 00:23:26.450, 0.806, 0.28, 0.527, 0.366, -0.183, 0.305, 27.839, -53.141, -140.043, -26.480, -14.940, 2.227, 24.38, 0.39944, -0.33438, -0.3486, -0.77911,
 14:52:39.115,ed:40:fe:65:30:6c, 2015-01-01 00:23:26.450, 0.805, 0.282, 0.528, 0.244, -0.305, 0.122, 27.85, -53.146, -140.054, -26.480, -14.940, 2.227, 24.38, 0.39944, -0.33438, -0.3486, -0.77911,
 14:52:39.115,ed:35:33:d3:6c:f8, 2015-01-01 00:23:25.075, 0.064, 0.211, 0.976, -0.305, -0.549, 0.305, 12.107, -3.351, -171.749, -2.947, -13.220, -35.520, 26.54, 0.0733, -0.02133, -0.10663, -0.9913,
 14:52:39.115,ed:35:33:d3:6c:f8, 2015-01-01 00:23:25.075, 0.061, 0.209, 0.976, -0.183, 0, 0.244, 12.107, -3.362, -171.689, -2.947, -13.220, -35.520, 26.54, 0.0733, -0.02133, -0.10663, -0.9913,
 14:52:39.118,f6:90:cc:01:6d:25, 2015-01-01 00:23:24.885, 0.925, 0.341, 0.061, 0.305, 0, 0, 78.942, -69.34, 132.935, -25.460, -22.873, 5.093, 29.4, 0.0809, -0.60953, -0.30484, -0.72723,
 14:52:39.118,f6:90:cc:01:6d:25, 2015-01-01 00:23:24.885, 0.924, 0.339, 0.062, 0.061, 0.122, 0, 78.942, -69.34, 132.907, -25.460, -22.873, 5.093, 29.4, 0.0809, -0.60953, -0.30484, -0.72723,
 14:52:39.138,ed:40:fe:65:30:6c, 2015-01-01 00:23:26.450, 0.801, 0.278, 0.528, 0.183, -0.183, 0, 27.856, -53.152, -140.065, -26.480, -14.940, 2.227, 24.38, 0.39764, -0.33459, -0.35059, -0.77902,
 14:52:39.138,ed:40:fe:65:30:6c, 2015-01-01 00:23:26.450, 0.802, 0.278, 0.53, 0.122, -0.122, 0, 27.861, -53.157, -140.07, -26.480, -14.940, 2.227, 24.38, 0.39764, -0.33459, -0.35059, -0.77902,
 14:52:39.138,ed:35:33:d3:6c:f8, 2015-01-01 00:23:25.075, 0.058, 0.209, 0.974, -0.122, -0.122, 0.366, 12.101, -3.362, -171.612, -2.947, -13.220, -35.520, 26.54, 0.0733, -0.02133, -0.10663, -0.9913,
 14:52:39.138,ed:35:33:d3:6c:f8, 2015-01-01 00:23:25.075, 0.056, 0.212, 0.975, -0.244, 0.122, -0.305, 12.101, -3.367, -171.573, -2.947, -13.220, -35.520, 26.54, 0.0733, -0.02133, -0.10663, -0.9913,
 14:52:39.158,e3:ca:2d:fd:e0:8c, 2015-01-01 00:23:27.210, 0.98, 0.177, -0.2, 0, 0.122, -0.122, 138.06, -74.855, 18.199, -23.293, -17.367, -0.720, 27.06, 0.19247, 0.7655, -0.09869, 0.60587,
 14:52:39.158,e3:ca:2d:fd:e0:8c, 2015-01-01 00:23:27.210, 0.98, 0.177, -0.2, -0.366, 0.183, -0.183, 138.043, -74.855, 18.193, -23.293, -17.367, -0.720, 27.06, 0.19247, 0.7655, -0.09869, 0.60587,
 14:52:39.161,f6:90:cc:01:6d:25, 2015-01-01 00:23:24.885, 0.924, 0.34, 0.063, -0.183, 0.244, -0.122, 78.937, -69.34, 132.891, -25.460, -22.873, 5.093, 29.4, 0.0809, -0.60953, -0.30484, -0.72723,
 14:52:39.161,f6:90:cc:01:6d:25, 2015-01-01 00:23:24.885, 0.924, 0.341, 0.064, -0.244, 0.244, -0.122, 78.926, -69.34, 132.852, -25.460, -22.873, 5.093, 29.4, 0.0809, -0.60953, -0.30484, -0.72723,
 14:52:39.181,e3:ca:2d:fd:e0:8c, 2015-01-01 00:23:27.210, 0.981, 0.179, -0.199, -0.366, 0.183, -0.183, 138.021, -74.855, 18.193, -22.847, -17.053, -1.240, 27.06, 0.19247, 0.7655, -0.09869, 0.60587,
 14:52:39.181,e3:ca:2d:fd:e0:8c, 2015-01-01 00:23:27.210, 0.982, 0.181, -0.2, -0.183, 0.305, -0.122, 138.005, -74.855, 18.171, -22.847, -17.053, -1.240, 27.06, 0.19247, 0.7655, -0.09869, 0.60587,
 14:52:39.182,ed:40:fe:65:30:6c, 2015-01-01 00:23:26.450, 0.802, 0.286, 0.53, -0.183, 0.061, -0.061, 27.861, -53.157, -140.07, -26.480, -14.940, 2.227, 24.38, 0.39764, -0.33459, -0.35059, -0.77902,
 14:52:39.182,ed:40:fe:65:30:6c, 2015-01-01 00:23:26.450, 0.805, 0.287, 0.53, -0.366, 0.061, -0.061, 27.856, -53.157, -140.065, -26.480, -14.940, 2.227, 24.38, 0.39764, -0.33459, -0.35059, -0.77902,
 14:52:39.182,ed:35:33:d3:6c:f8, 2015-01-01 00:23:25.075, 0.06, 0.216, 0.977, -0.061, 0.183, -0.549, 12.101, -3.362, -171.546, -2.947, -13.220, -35.520, 26.54, 0.0733, -0.02133, -0.10663, -0.9913,
 14:52:39.182,ed:35:33:d3:6c:f8, 2015-01-01 00:23:25.075, 0.051, 0.218, 0.979, -0.122, 0.244, -0.061, 12.101, -3.362, -171.535, -2.947, -13.220, -35.520, 26.54, 0.0733, -0.02133, -0.10663, -0.9913,
 14:52:39.206,f6:90:cc:01:6d:25, 2015-01-01 00:23:24.885, 0.926, 0.346, 0.062, -0.061, 0.366, 0, 78.915, -69.34, 132.83, -25.460, -22.873, 5.093, 29.4, 0.07764, -0.61148, -0.30362, -0.72647,
 14:52:39.206,f6:90:cc:01:6d:25, 2015-01-01 00:23:24.885, 0.922, 0.345, 0.064, 0, 0.366, 0.061, 78.904, -69.34, 132.83, -25.460, -22.873, 5.093, 29.4, 0.07764, -0.61148, -0.30362, -0.72647,
 14:52:39.226,e3:ca:2d:fd:e0:8c, 2015-01-01 00:23:27.210, 0.981, 0.181, -0.2, -0.244, 0.427, 0, 137.983, -74.861, 18.16, -22.847, -17.053, -1.240, 27.06, 0.19247, 0.7655, -0.09869, 0.60587,
 14:52:39.226,e3:ca:2d:fd:e0:8c, 2015-01-01 00:23:27.210, 0.98, 0.179, -0.198, -0.427, 0.366, 0, 137.955, -74.866, 18.149, -22.847, -17.053, -1.240, 27.06, 0.19247, 0.7655, -0.09869, 0.60587,
 14:52:39.226,ed:40:fe:65:30:6c, 2015-01-01 00:23:26.810, 0.8, 0.285, 0.533, -0.549, -0.061, -0.183, 27.85, -53.157, -140.076, -26.480, -14.940, 2.227, 24.38, 0.39764, -0.33459, -0.35059, -0.77902,
 14:52:39.226,ed:40:fe:65:30:6c, 2015-01-01 00:23:26.810, 0.798, 0.28, 0.536, -0.305, -0.244, -0.061, 27.85, -53.163, -140.087, -26.480, -14.940, 2.227, 24.38, 0.39764, -0.33459, -0.35059, -0.77902,
 14:52:39.227,ed:35:33:d3:6c:f8, 2015-01-01 00:23:25.075, 0.052, 0.213, 0.979, -0.305, 0, 0.427, 12.101, -3.356, -171.524, -2.947, -13.220, -35.520, 26.54, 0.0733, -0.02133, -0.10663, -0.9913,
 14:52:39.227,ed:35:33:d3:6c:f8, 2015-01-01 00:23:25.075, 0.053, 0.213, 0.977, -0.427, -0.244, 0.183, 12.096, -3.362, -171.491, -2.947, -13.220, -35.520, 26.54, 0.0733, -0.02133, -0.10663, -0.9913,
 14:52:39.249,e3:ca:2d:fd:e0:8c, 2015-01-01 00:23:27.210, 0.98, 0.178, -0.197, -0.488, 0.244, 0, 137.939, -74.866, 18.144, -22.847, -17.053, -1.240, 27.06, 0.19171, 0.7663, -0.09833, 0.60519,
 14:52:39.249,e3:ca:2d:fd:e0:8c, 2015-01-01 00:23:27.210, 0.98, 0.178, -0.197, -0.183, 0.305, 0, 137.922, -74.872, 18.116, -22.847, -17.053, -1.240, 27.06, 0.19171, 0.7663, -0.09833, 0.60519,
 14:52:39.251,f6:90:cc:01:6d:25, 2015-01-01 00:23:25.200, 0.92, 0.341, 0.066, -0.244, 0.122, 0, 78.887, -69.34, 132.836, -25.460, -22.873, 5.093, 29.4, 0.07764, -0.61148, -0.30362, -0.72647,
 14:52:39.251,f6:90:cc:01:6d:25, 2015-01-01 00:23:25.200, 0.92, 0.342, 0.066, -0.122, 0.122, 0.061, 78.882, -69.34, 132.863, -25.460, -22.873, 5.093, 29.4, 0.07764, -0.61148, -0.30362, -0.72647,
 14:52:39.271,ed:40:fe:65:30:6c, 2015-01-01 00:23:26.810, 0.796, 0.282, 0.534, -0.488, -0.122, 0, 27.845, -53.163, -140.092, -26.480, -14.940, 2.227, 24.38, 0.39764, -0.33459, -0.35059, -0.77902,
 14:52:39.271,ed:40:fe:65:30:6c, 2015-01-01 00:23:26.810, 0.796, 0.282, 0.532, -0.366, 0, 0, 27.839, -53.163, -140.098, -26.480, -14.940, 2.227, 24.38, 0.39764, -0.33459, -0.35059, -0.77902,
 14:52:39.293,e3:ca:2d:fd:e0:8c, 2015-01-01 00:23:27.210, 0.98, 0.179, -0.197, 0.122, 0.244, 0, 137.911, -74.872, 18.111, -22.847, -17.053, -1.240, 27.06, 0.19171, 0.7663, -0.09833, 0.60519,
 14:52:39.293,e3:ca:2d:fd:e0:8c, 2015-01-01 00:23:27.210, 0.981, 0.179, -0.196, 0.122, 0.061, 0.061, 137.911, -74.872, 18.105, -22.847, -17.053, -1.240, 27.06, 0.19171, 0.7663, -0.09833, 0.60519,
 14:52:39.294,ed:35:33:d3:6c:f8, 2015-01-01 00:23:25.075, 0.053, 0.211, 0.973, -0.488, -0.427, -0.183, 12.09, -3.367, -171.486, -2.947, -13.220, -35.520, 26.54, 0.0733, -0.02133, -0.10663, -0.9913,
 14:52:39.294,ed:35:33:d3:6c:f8, 2015-01-01 00:23:25.075, 0.053, 0.209, 0.973, -0.183, -0.305, 0, 12.085, -3.373, -171.447, -2.947, -13.220, -35.520, 26.54, 0.0733, -0.02133, -0.10663, -0.9913,
 14:52:39.297,f6:90:cc:01:6d:25, 2015-01-01 00:23:25.200, 0.922, 0.339, 0.067, 0, 0.061, 0, 78.882, -69.34, 132.902, -25.460, -22.873, 5.093, 29.4, 0.07764, -0.61148, -0.30362, -0.72647,
 14:52:39.297,f6:90:cc:01:6d:25, 2015-01-01 00:23:25.200, 0.924, 0.338, 0.068, -0.061, 0, -0.061, 78.882, -69.34, 132.935, -25.460, -22.873, 5.093, 29.4, 0.07764, -0.61148, -0.30362, -0.72647,
 14:52:39.318,ed:40:fe:65:30:6c, 2015-01-01 00:23:26.810, 0.8, 0.278, 0.533, -0.244, 0.061, 0, 27.834, -53.163, -140.103, -26.480, -14.940, 2.227, 24.38, 0.39764, -0.33459, -0.35059, -0.77902,
 14:52:39.318,ed:40:fe:65:30:6c, 2015-01-01 00:23:26.810, 0.799, 0.279, 0.534, 0, 0, 0, 27.834, -53.157, -140.114, -26.480, -14.940, 2.227, 24.38, 0.39764, -0.33459, -0.35059, -0.77902,
 14:52:39.318,ed:35:33:d3:6c:f8, 2015-01-01 00:23:25.075, 0.056, 0.208, 0.975, 0, -0.183, 0.122, 12.085, -3.373, -171.403, -3.420, -13.233, -34.107, 26.54, 0.0733, -0.02133, -0.10663, -0.9913,
 14:52:39.318,ed:35:33:d3:6c:f8, 2015-01-01 00:23:25.075, 0.052, 0.21, 0.976, -0.061, 0.183, 0.061, 12.085, -3.373, -171.37, -3.420, -13.233, -34.107, 26.54, 0.0733, -0.02133, -0.10663, -0.9913,
 14:52:39.319,f6:90:cc:01:6d:25, 2015-01-01 00:23:25.200, 0.923, 0.339, 0.068, -0.305, -0.061, -0.122, 78.882, -69.34, 132.946, -25.460, -22.873, 5.093, 29.4, 0.07764, -0.61148, -0.30362, -0.72647,
 14:52:39.319,f6:90:cc:01:6d:25, 2015-01-01 00:23:25.200, 0.923, 0.339, 0.068, -0.183, -0.061, -0.122, 78.882, -69.34, 132.946, -25.460, -22.873, 5.093, 29.4, 0.07764, -0.61148, -0.30362, -0.72647,
 14:52:39.339,ed:40:fe:65:30:6c, 2015-01-01 00:23:26.810, 0.799, 0.28, 0.535, 0.183, 0, 0, 27.834, -53.157, -140.114, -26.480, -14.940, 2.227, 24.38, 0.39764, -0.33459, -0.35059, -0.77902,
 14:52:39.339,ed:40:fe:65:30:6c, 2015-01-01 00:23:26.810, 0.8, 0.282, 0.534, 0.305, -0.061, 0.122, 27.839, -53.157, -140.114, -26.480, -14.940, 2.227, 24.38, 0.39764, -0.33459, -0.35059, -0.77902,
 14:52:39.339,e3:ca:2d:fd:e0:8c, 2015-01-01 00:23:27.570, 0.98, 0.178, -0.195, -0.061, -0.061, 0, 137.917, -74.872, 18.105, -22.847, -17.053, -1.240, 27.06, 0.19171, 0.7663, -0.09833, 0.60519,
 14:52:39.339,e3:ca:2d:fd:e0:8c, 2015-01-01 00:23:27.570, 0.981, 0.177, -0.195, -0.061, -0.122, 0, 137.917, -74.872, 18.094, -22.847, -17.053, -1.240, 27.06, 0.19171, 0.7663, -0.09833, 0.60519,
 14:52:39.365,ed:35:33:d3:6c:f8, 2015-01-01 00:23:25.075, 0.053, 0.213, 0.978, 0, 0.122, 0.366, 12.085, -3.367, -171.354, -3.420, -13.233, -34.107, 26.54, 0.0733, -0.02133, -0.10663, -0.9913,
 14:52:39.365,ed:35:33:d3:6c:f8, 2015-01-01 00:23:25.075, 0.054, 0.212, 0.977, 0.122, 0, 0.61, 12.09, -3.367, -171.348, -3.420, -13.233, -34.107, 26.54, 0.0733, -0.02133, -0.10663, -0.9913,
 14:52:39.365,f6:90:cc:01:6d:25, 2015-01-01 00:23:25.200, 0.922, 0.341, 0.068, 0, -0.122, -0.061, 78.887, -69.34, 132.951, -25.460, -22.873, 5.093, 29.4, 0.07764, -0.61148, -0.30362, -0.72647,
 14:52:39.365,f6:90:cc:01:6d:25, 2015-01-01 00:23:25.200, 0.924, 0.34, 0.067, 0.061, -0.061, 0, 78.893, -69.34, 132.968, -25.460, -22.873, 5.093, 29.4, 0.07764, -0.61148, -0.30362, -0.72647,
 14:52:39.383,e3:ca:2d:fd:e0:8c, 2015-01-01 00:23:27.570, 0.98, 0.178, -0.195, 0, -0.122, 0, 137.922, -74.866, 18.078, -22.847, -17.053, -1.240, 27.06, 0.19171, 0.7663, -0.09833, 0.60519,
 14:52:39.383,e3:ca:2d:fd:e0:8c, 2015-01-01 00:23:27.570, 0.981, 0.179, -0.196, 0.061, -0.122, 0.061, 137.933, -74.866, 18.067, -22.847, -17.053, -1.240, 27.06, 0.19171, 0.7663, -0.09833, 0.60519,
 14:52:39.386,ed:35:33:d3:6c:f8, 2015-01-01 00:23:25.075, 0.058, 0.209, 0.975, 0.122, -0.244, 0.549, 12.09, -3.367, -171.31, -3.420, -13.233, -34.107, 26.54, 0.07819, -0.02118, -0.10718, -0.99088,
 14:52:39.386,ed:35:33:d3:6c:f8, 2015-01-01 00:23:25.075, 0.059, 0.212, 0.975, 0.366, -0.549, 0.244, 12.096, -3.373, -171.288, -3.420, -13.233, -34.107, 26.54, 0.07819, -0.02118, -0.10718, -0.99088,
 14:52:39.406,ed:40:fe:65:30:6c, 2015-01-01 00:23:26.810, 0.802, 0.282, 0.533, 0.488, -0.122, 0.122, 27.845, -53.157, -140.12, -26.480, -14.940, 2.227, 24.38, 0.39764, -0.33459, -0.35059, -0.77902,
 14:52:39.406,ed:40:fe:65:30:6c, 2015-01-01 00:23:26.810, 0.802, 0.281, 0.532, 0.427, -0.183, 0, 27.85, -53.157, -140.125, -26.480, -14.940, 2.227, 24.38, 0.39764, -0.33459, -0.35059, -0.77902,
 14:52:39.410,f6:90:cc:01:6d:25, 2015-01-01 00:23:25.200, 0.924, 0.341, 0.067, 0.061, 0, -0.061, 78.898, -69.34, 132.979, -25.460, -22.873, 5.093, 29.4, 0.07764, -0.61148, -0.30362, -0.72647,
 14:52:39.410,f6:90:cc:01:6d:25, 2015-01-01 00:23:25.200, 0.924, 0.339, 0.064, 0.061, 0, -0.061, 78.898, -69.34, 132.99, -25.460, -22.873, 5.093, 29.4, 0.07764, -0.61148, -0.30362, -0.72647,
 14:52:39.428,e3:ca:2d:fd:e0:8c, 2015-01-01 00:23:27.570, 0.981, 0.179, -0.197, 0, -0.122, 0.061, 137.939, -74.866, 18.073, -22.847, -17.053, -1.240, 27.06, 0.19171, 0.7663, -0.09833, 0.60519,
 14:52:39.428,e3:ca:2d:fd:e0:8c, 2015-01-01 00:23:27.570, 0.981, 0.178, -0.199, 0, -0.183, 0, 137.95, -74.861, 18.078, -22.847, -17.053, -1.240, 27.06, 0.19171, 0.7663, -0.09833, 0.60519,
 14:52:39.429,ed:40:fe:65:30:6c, 2015-01-01 00:23:26.810, 0.802, 0.282, 0.531, 0.427, -0.122, 0.061, 27.861, -53.157, -140.125, -26.527, -15.047, 2.273, 24.38, 0.39764, -0.33459, -0.35059, -0.77902,
 14:52:39.429,ed:40:fe:65:30:6c, 2015-01-01 00:23:26.810, 0.806, 0.281, 0.531, 0.183, -0.122, 0.244, 27.867, -53.163, -140.125, -26.527, -15.047, 2.273, 24.38, 0.39764, -0.33459, -0.35059, -0.77902,
 14:52:39.430,ed:35:33:d3:6c:f8, 2015-01-01 00:23:25.075, 0.057, 0.214, 0.976, 0.244, 0.061, 0.366, 12.107, -3.378, -171.288, -3.420, -13.233, -34.107, 26.54, 0.07819, -0.02118, -0.10718, -0.99088,
 14:52:39.430,ed:35:33:d3:6c:f8, 2015-01-01 00:23:25.075, 0.062, 0.212, 0.977, -0.183, -0.061, 0.671, 12.112, -3.378, -171.299, -3.420, -13.233, -34.107, 26.54, 0.07819, -0.02118, -0.10718, -0.99088,
 14:52:39.450,e3:ca:2d:fd:e0:8c, 2015-01-01 00:23:27.570, 0.982, 0.177, -0.201, 0, -0.183, 0, 137.955, -74.861, 18.073, -22.847, -17.053, -1.240, 27.06, 0.19171, 0.7663, -0.09833, 0.60519,
 14:52:39.450,e3:ca:2d:fd:e0:8c, 2015-01-01 00:23:27.570, 0.982, 0.178, -0.202, 0.122, -0.122, 0, 137.966, -74.855, 18.056, -22.847, -17.053, -1.240, 27.06, 0.19171, 0.7663, -0.09833, 0.60519,
 14:52:39.453,f6:90:cc:01:6d:25, 2015-01-01 00:23:25.200, 0.927, 0.339, 0.063, 0.183, 0, -0.061, 78.898, -69.34, 132.995, -25.520, -22.520, 5.867, 29.4, 0.07764, -0.61148, -0.30362, -0.72647,
 14:52:39.453,f6:90:cc:01:6d:25, 2015-01-01 00:23:25.200, 0.926, 0.344, 0.062, 0.183, -0.122, 0, 78.909, -69.34, 133, -25.520, -22.520, 5.867, 29.4, 0.07764, -0.61148, -0.30362, -0.72647,
 14:52:39.474,ed:40:fe:65:30:6c, 2015-01-01 00:23:26.810, 0.804, 0.284, 0.529, -0.244, -0.183, 0.061, 27.867, -53.163, -140.12, -26.527, -15.047, 2.273, 24.38, 0.39764, -0.33459, -0.35059, -0.77902,
 14:52:39.474,ed:40:fe:65:30:6c, 2015-01-01 00:23:26.810, 0.802, 0.282, 0.53, -0.244, -0.183, -0.183, 27.867, -53.168, -140.114, -26.527, -15.047, 2.273, 24.38, 0.39764, -0.33459, -0.35059, -0.77902,
 14:52:39.476,ed:35:33:d3:6c:f8, 2015-01-01 00:23:25.455, 0.059, 0.21, 0.979, -0.244, 0, 0.366, 12.107, -3.378, -171.321, -3.420, -13.233, -34.107, 26.54, 0.07819, -0.02118, -0.10718, -0.99088,
 14:52:39.476,ed:35:33:d3:6c:f8, 2015-01-01 00:23:25.455, 0.059, 0.209, 0.978, 0.122, 0, 0, 12.107, -3.378, -171.348, -3.420, -13.233, -34.107, 26.54, 0.07819, -0.02118, -0.10718, -0.99088,
 14:52:39.478,f6:90:cc:01:6d:25, 2015-01-01 00:23:25.200, 0.924, 0.343, 0.062, -0.244, -0.061, 0.122, 78.915, -69.34, 133, -25.520, -22.520, 5.867, 29.4, 0.07834, -0.61118, -0.30417, -0.72644,
 14:52:39.478,f6:90:cc:01:6d:25, 2015-01-01 00:23:25.200, 0.925, 0.339, 0.061, -0.427, -0.061, 0, 78.915, -69.346, 132.984, -25.520, -22.520, 5.867, 29.4, 0.07834, -0.61118, -0.30417, -0.72644,
 14:52:39.495,e3:ca:2d:fd:e0:8c, 2015-01-01 00:23:27.570, 0.981, 0.179, -0.203, 0.061, -0.061, 0.122, 137.977, -74.855, 18.029, -22.847, -17.053, -1.240, 27.06, 0.19171, 0.7663, -0.09833, 0.60519,
 14:52:39.495,e3:ca:2d:fd:e0:8c, 2015-01-01 00:23:27.570, 0.981, 0.179, -0.202, -0.061, 0, 0, 137.983, -74.855, 18.018, -22.847, -17.053, -1.240, 27.06, 0.19171, 0.7663, -0.09833, 0.60519,
 14:52:39.498,ed:35:33:d3:6c:f8, 2015-01-01 00:23:25.455, 0.062, 0.212, 0.976, 0.305, -0.427, 0, 12.112, -3.378, -171.365, -3.420, -13.233, -34.107, 26.54, 0.07819, -0.02118, -0.10718, -0.99088,
 14:52:39.498,ed:35:33:d3:6c:f8, 2015-01-01 00:23:25.455, 0.061, 0.215, 0.976, 0.122, -0.427, 0, 12.118, -3.389, -171.398, -3.420, -13.233, -34.107, 26.54, 0.07819, -0.02118, -0.10718, -0.99088,
 14:52:39.521,f6:90:cc:01:6d:25, 2015-01-01 00:23:25.200, 0.924, 0.338, 0.062, -0.305, -0.061, 0, 78.92, -69.346, 132.957, -25.520, -22.520, 5.867, 29.4, 0.07834, -0.61118, -0.30417, -0.72644,
 14:52:39.521,f6:90:cc:01:6d:25, 2015-01-01 00:23:25.200, 0.926, 0.338, 0.062, 0.061, 0, 0, 78.92, -69.346, 132.935, -25.520, -22.520, 5.867, 29.4, 0.07834, -0.61118, -0.30417, -0.72644,
 14:52:39.541,ed:40:fe:65:30:6c, 2015-01-01 00:23:26.810, 0.803, 0.279, 0.529, 0, -0.305, -0.244, 27.867, -53.168, -140.125, -26.527, -15.047, 2.273, 24.38, 0.39731, -0.33484, -0.35052, -0.77914,
 14:52:39.541,ed:40:fe:65:30:6c, 2015-01-01 00:23:26.810, 0.803, 0.28, 0.528, 0.366, -0.244, -0.061, 27.878, -53.168, -140.142, -26.527, -15.047, 2.273, 24.38, 0.39731, -0.33484, -0.35052, -0.77914,
 14:52:39.543,ed:35:33:d3:6c:f8, 2015-01-01 00:23:25.455, 0.062, 0.215, 0.974, 0, -0.366, 0.183, 12.123, -3.395, -171.442, -3.420, -13.233, -34.107, 26.54, 0.07819, -0.02118, -0.10718, -0.99088,
 14:52:39.543,ed:35:33:d3:6c:f8, 2015-01-01 00:23:25.455, 0.06, 0.214, 0.976, -0.305, 0.061, 0.183, 12.123, -3.4, -171.491, -3.420, -13.233, -34.107, 26.54, 0.07819, -0.02118, -0.10718, -0.99088,
 14:52:39.564,ed:40:fe:65:30:6c, 2015-01-01 00:23:27.165, 0.805, 0.281, 0.529, 0.244, 0, 0.122, 27.889, -53.174, -140.142, -26.527, -15.047, 2.273, 24.38, 0.39731, -0.33484, -0.35052, -0.77914,
 14:52:39.564,ed:40:fe:65:30:6c, 2015-01-01 00:23:27.165, 0.804, 0.285, 0.529, 0.061, 0.061, 0.183, 27.889, -53.174, -140.142, -26.527, -15.047, 2.273, 24.38, 0.39731, -0.33484, -0.35052, -0.77914,
 14:52:39.566,f6:90:cc:01:6d:25, 2015-01-01 00:23:25.490, 0.925, 0.341, 0.063, 0.183, 0.061, 0, 78.931, -69.346, 132.918, -25.520, -22.520, 5.867, 29.4, 0.07834, -0.61118, -0.30417, -0.72644,
 14:52:39.566,f6:90:cc:01:6d:25, 2015-01-01 00:23:25.490, 0.924, 0.342, 0.065, 0, 0.122, 0, 78.931, -69.351, 132.918, -25.520, -22.520, 5.867, 29.4, 0.07834, -0.61118, -0.30417, -0.72644,
 14:52:39.585,e3:ca:2d:fd:e0:8c, 2015-01-01 00:23:27.570, 0.981, 0.178, -0.201, -0.183, 0, 0, 137.983, -74.855, 18.001, -23.227, -17.533, -1.240, 27.06, 0.19171, 0.7663, -0.09833, 0.60519,
 14:52:39.585,e3:ca:2d:fd:e0:8c, 2015-01-01 00:23:27.570, 0.981, 0.176, -0.2, 0, 0, 0, 137.983, -74.85, 17.979, -23.227, -17.533, -1.240, 27.06, 0.19171, 0.7663, -0.09833, 0.60519,
 14:52:39.586,ed:40:fe:65:30:6c, 2015-01-01 00:23:27.165, 0.802, 0.283, 0.531, -0.122, 0.183, 0.061, 27.889, -53.174, -140.131, -26.527, -15.047, 2.273, 24.38, 0.39731, -0.33484, -0.35052, -0.77914,
 14:52:39.586,ed:40:fe:65:30:6c, 2015-01-01 00:23:27.165, 0.801, 0.282, 0.531, -0.244, 0.122, 0, 27.883, -53.174, -140.12, -26.527, -15.047, 2.273, 24.38, 0.39731, -0.33484, -0.35052, -0.77914,
 14:52:39.588,ed:35:33:d3:6c:f8, 2015-01-01 00:23:25.455, 0.057, 0.212, 0.977, -0.183, 0.305, 0, 12.118, -3.4, -171.519, -3.420, -13.233, -34.107, 26.54, 0.07819, -0.02118, -0.10718, -0.99088,
 14:52:39.588,ed:35:33:d3:6c:f8, 2015-01-01 00:23:25.455, 0.058, 0.212, 0.977, -0.366, 0.061, -0.305, 12.118, -3.395, -171.541, -3.420, -13.233, -34.107, 26.54, 0.07819, -0.02118, -0.10718, -0.99088,
 14:52:39.608,e3:ca:2d:fd:e0:8c, 2015-01-01 00:23:27.570, 0.981, 0.175, -0.199, 0.061, 0.122, 0, 137.988, -74.85, 17.979, -23.227, -17.533, -1.240, 27.06, 0.19247, 0.76627, -0.0993, 0.60486,
 14:52:39.608,e3:ca:2d:fd:e0:8c, 2015-01-01 00:23:27.570, 0.98, 0.177, -0.198, 0.122, 0.244, 0, 137.983, -74.855, 17.99, -23.227, -17.533, -1.240, 27.06, 0.19247, 0.76627, -0.0993, 0.60486,
 14:52:39.611,f6:90:cc:01:6d:25, 2015-01-01 00:23:25.490, 0.923, 0.341, 0.065, -0.183, 0.183, 0, 78.931, -69.351, 132.935, -25.520, -22.520, 5.867, 29.4, 0.07834, -0.61118, -0.30417, -0.72644,
 14:52:39.611,f6:90:cc:01:6d:25, 2015-01-01 00:23:25.490, 0.923, 0.34, 0.065, -0.244, 0.244, 0, 78.92, -69.351, 132.946, -25.520, -22.520, 5.867, 29.4, 0.07834, -0.61118, -0.30417, -0.72644,
 14:52:39.631,ed:40:fe:65:30:6c, 2015-01-01 00:23:27.165, 0.8, 0.281, 0.532, -0.183, -0.061, 0, 27.878, -53.174, -140.114, -26.527, -15.047, 2.273, 24.38, 0.39731, -0.33484, -0.35052, -0.77914,
 14:52:39.631,ed:40:fe:65:30:6c, 2015-01-01 00:23:27.165, 0.801, 0.278, 0.533, -0.183, 0, 0, 27.878, -53.174, -140.114, -26.527, -15.047, 2.273, 24.38, 0.39731, -0.33484, -0.35052, -0.77914,
 14:52:39.633,ed:35:33:d3:6c:f8, 2015-01-01 00:23:25.455, 0.056, 0.21, 0.976, -0.549, 0.061, -0.366, 12.112, -3.389, -171.541, -3.420, -13.233, -34.107, 26.54, 0.07819, -0.02118, -0.10718, -0.99088,
 14:52:39.633,ed:35:33:d3:6c:f8, 2015-01-01 00:23:25.455, 0.056, 0.208, 0.975, -0.61, 0.427, -0.183, 12.101, -3.389, -171.573, -3.420, -13.233, -34.107, 26.54, 0.07819, -0.02118, -0.10718, -0.99088,
 14:52:39.652,e3:ca:2d:fd:e0:8c, 2015-01-01 00:23:27.570, 0.981, 0.179, -0.197, -0.061, 0.183, 0, 137.977, -74.855, 18.001, -23.227, -17.533, -1.240, 27.06, 0.19247, 0.76627, -0.0993, 0.60486,
 14:52:39.652,e3:ca:2d:fd:e0:8c, 2015-01-01 00:23:27.570, 0.981, 0.178, -0.198, -0.244, 0.244, 0, 137.961, -74.861, 18.018, -23.227, -17.533, -1.240, 27.06, 0.19247, 0.76627, -0.0993, 0.60486,
 14:52:39.656,f6:90:cc:01:6d:25, 2015-01-01 00:23:25.490, 0.924, 0.34, 0.066, -0.122, 0.305, 0, 78.909, -69.351, 132.957, -25.520, -22.520, 5.867, 29.4, 0.07834, -0.61118, -0.30417, -0.72644,
 14:52:39.656,f6:90:cc:01:6d:25, 2015-01-01 00:23:25.490, 0.923, 0.339, 0.065, 0, 0.244, 0, 78.898, -69.351, 132.979, -25.520, -22.520, 5.867, 29.4, 0.07834, -0.61118, -0.30417, -0.72644,
 14:52:39.675,e3:ca:2d:fd:e0:8c, 2015-01-01 00:23:27.925, 0.981, 0.177, -0.198, -0.183, 0.183, 0, 137.955, -74.861, 18.04, -23.227, -17.533, -1.240, 27.06, 0.19247, 0.76627, -0.0993, 0.60486,
 14:52:39.675,e3:ca:2d:fd:e0:8c, 2015-01-01 00:23:27.925, 0.98, 0.177, -0.198, 0, 0.122, 0, 137.95, -74.861, 18.034, -23.227, -17.533, -1.240, 27.06, 0.19247, 0.76627, -0.0993, 0.60486,
 14:52:39.677,ed:40:fe:65:30:6c, 2015-01-01 00:23:27.165, 0.799, 0.278, 0.532, -0.305, 0, 0, 27.872, -53.174, -140.109, -26.527, -15.047, 2.273, 24.38, 0.39731, -0.33484, -0.35052, -0.77914,
 14:52:39.677,ed:40:fe:65:30:6c, 2015-01-01 00:23:27.165, 0.798, 0.279, 0.533, 0, 0, 0, 27.867, -53.174, -140.109, -26.527, -15.047, 2.273, 24.38, 0.39731, -0.33484, -0.35052, -0.77914,
 14:52:39.679,f6:90:cc:01:6d:25, 2015-01-01 00:23:25.490, 0.922, 0.339, 0.065, 0, 0.122, 0, 78.893, -69.351, 133, -25.520, -22.520, 5.867, 29.4, 0.07834, -0.61118, -0.30417, -0.72644,
 14:52:39.679,f6:90:cc:01:6d:25, 2015-01-01 00:23:25.490, 0.922, 0.339, 0.066, 0.061, 0.122, 0, 78.887, -69.351, 133.028, -25.520, -22.520, 5.867, 29.4, 0.07834, -0.61118, -0.30417, -0.72644,
 14:52:39.697,e3:ca:2d:fd:e0:8c, 2015-01-01 00:23:27.925, 0.98, 0.178, -0.199, 0, 0.061, 0, 137.95, -74.861, 18.007, -23.227, -17.533, -1.240, 27.06, 0.19247, 0.76627, -0.0993, 0.60486,
 14:52:39.697,e3:ca:2d:fd:e0:8c, 2015-01-01 00:23:27.925, 0.98, 0.179, -0.198, -0.122, 0.061, 0, 137.95, -74.861, 17.985, -23.227, -17.533, -1.240, 27.06, 0.19247, 0.76627, -0.0993, 0.60486,
 14:52:39.699,ed:40:fe:65:30:6c, 2015-01-01 00:23:27.165, 0.8, 0.281, 0.534, 0.488, 0, 0, 27.867, -53.174, -140.109, -26.527, -15.047, 2.273, 24.38, 0.39731, -0.33484, -0.35052, -0.77914,
 14:52:39.699,ed:40:fe:65:30:6c, 2015-01-01 00:23:27.165, 0.802, 0.284, 0.532, 0.366, 0, 0.305, 27.878, -53.174, -140.092, -26.527, -15.047, 2.273, 24.38, 0.39731, -0.33484, -0.35052, -0.77914,
 14:52:39.722,ed:35:33:d3:6c:f8, 2015-01-01 00:23:25.455, 0.054, 0.209, 0.976, -0.366, 0.366, 0, 12.09, -3.378, -171.606, -2.820, -13.080, -34.567, 26.54, 0.07819, -0.02118, -0.10718, -0.99088,
 14:52:39.722,ed:35:33:d3:6c:f8, 2015-01-01 00:23:25.455, 0.052, 0.212, 0.977, -0.061, 0.122, 0, 12.085, -3.373, -171.628, -2.820, -13.080, -34.567, 26.54, 0.07819, -0.02118, -0.10718, -0.99088,
 14:52:39.724,f6:90:cc:01:6d:25, 2015-01-01 00:23:25.490, 0.924, 0.34, 0.067, 0.244, 0, 0, 78.893, -69.351, 133.044, -25.520, -22.520, 5.867, 29.4, 0.07834, -0.61118, -0.30417, -0.72644,
 14:52:39.724,f6:90:cc:01:6d:25, 2015-01-01 00:23:25.490, 0.924, 0.343, 0.066, 0.366, 0, 0, 78.898, -69.351, 133.044, -25.520, -22.520, 5.867, 29.4, 0.07834, -0.61118, -0.30417, -0.72644,
 14:52:39.743,e3:ca:2d:fd:e0:8c, 2015-01-01 00:23:27.925, 0.981, 0.179, -0.197, -0.061, 0, 0, 137.95, -74.861, 17.957, -23.227, -17.533, -1.240, 27.06, 0.19247, 0.76627, -0.0993, 0.60486,
 14:52:39.743,e3:ca:2d:fd:e0:8c, 2015-01-01 00:23:27.925, 0.98, 0.178, -0.197, 0.183, 0, 0, 137.955, -74.861, 17.952, -23.227, -17.533, -1.240, 27.06, 0.19247, 0.76627, -0.0993, 0.60486,
 14:52:39.744,ed:40:fe:65:30:6c, 2015-01-01 00:23:27.165, 0.802, 0.281, 0.531, 0.305, 0.061, 0.122, 27.878, -53.174, -140.087, -26.527, -15.047, 2.273, 24.38, 0.39731, -0.33484, -0.35052, -0.77914,
 14:52:39.744,ed:40:fe:65:30:6c, 2015-01-01 00:23:27.165, 0.8, 0.28, 0.531, 0, 0, 0, 27.878, -53.174, -140.081, -26.527, -15.047, 2.273, 24.38, 0.39731, -0.33484, -0.35052, -0.77914,
 14:52:39.745,ed:35:33:d3:6c:f8, 2015-01-01 00:23:25.455, 0.056, 0.214, 0.976, 0, -0.244, 0.183, 12.09, -3.373, -171.639, -2.820, -13.080, -34.567, 26.54, 0.0755, -0.02151, -0.10712, -0.99109,
 14:52:39.745,ed:35:33:d3:6c:f8, 2015-01-01 00:23:25.455, 0.058, 0.213, 0.974, -0.244, -0.366, 0.244, 12.09, -3.373, -171.645, -2.820, -13.080, -34.567, 26.54, 0.0755, -0.02151, -0.10712, -0.99109,
 14:52:39.768,ed:35:33:d3:6c:f8, 2015-01-01 00:23:25.455, 0.058, 0.208, 0.976, -0.183, 0.366, 0.061, 12.085, -3.378, -171.645, -2.820, -13.080, -34.567, 26.54, 0.0755, -0.02151, -0.10712, -0.99109,
 14:52:39.768,ed:35:33:d3:6c:f8, 2015-01-01 00:23:25.455, 0.054, 0.211, 0.975, -0.366, 0.183, 0.366, 12.085, -3.373, -171.634, -2.820, -13.080, -34.567, 26.54, 0.0755, -0.02151, -0.10712, -0.99109,
 14:52:39.769,f6:90:cc:01:6d:25, 2015-01-01 00:23:25.490, 0.924, 0.341, 0.064, 0.122, 0.061, 0, 78.904, -69.357, 133.044, -25.647, -22.560, 5.893, 29.4, 0.07834, -0.61118, -0.30417, -0.72644,
 14:52:39.769,f6:90:cc:01:6d:25, 2015-01-01 00:23:25.490, 0.923, 0.342, 0.068, -0.305, 0.122, 0, 78.898, -69.357, 133.044, -25.647, -22.560, 5.893, 29.4, 0.07834, -0.61118, -0.30417, -0.72644,
 14:52:39.787,e3:ca:2d:fd:e0:8c, 2015-01-01 00:23:27.925, 0.981, 0.178, -0.197, 0.061, 0, 0, 137.955, -74.861, 17.941, -23.227, -17.533, -1.240, 27.06, 0.19247, 0.76627, -0.0993, 0.60486,
 14:52:39.787,e3:ca:2d:fd:e0:8c, 2015-01-01 00:23:27.925, 0.98, 0.18, -0.197, -0.061, 0, 0, 137.955, -74.861, 17.946, -23.227, -17.533, -1.240, 27.06, 0.19247, 0.76627, -0.0993, 0.60486,
 14:52:39.812,ed:40:fe:65:30:6c, 2015-01-01 00:23:27.165, 0.801, 0.286, 0.533, -0.061, 0, 0.061, 27.878, -53.168, -140.076, -26.427, -14.907, 1.900, 24.38, 0.39731, -0.33484, -0.35052, -0.77914,
 14:52:39.812,ed:40:fe:65:30:6c, 2015-01-01 00:23:27.165, 0.804, 0.287, 0.531, 0.061, 0.122, 0.366, 27.872, -53.168, -140.076, -26.427, -14.907, 1.900, 24.38, 0.39731, -0.33484, -0.35052, -0.77914,
 14:52:39.812,ed:35:33:d3:6c:f8, 2015-01-01 00:23:25.455, 0.056, 0.218, 0.976, -0.183, 0.122, 0, 12.079, -3.367, -171.617, -2.820, -13.080, -34.567, 26.54, 0.0755, -0.02151, -0.10712, -0.99109,
 14:52:39.812,ed:35:33:d3:6c:f8, 2015-01-01 00:23:25.455, 0.059, 0.219, 0.978, 0.061, 0, 0, 12.079, -3.362, -171.606, -2.820, -13.080, -34.567, 26.54, 0.0755, -0.02151, -0.10712, -0.99109,
 14:52:39.814,f6:90:cc:01:6d:25, 2015-01-01 00:23:25.490, 0.926, 0.343, 0.063, -0.122, 0.122, 0, 78.893, -69.357, 133.061, -25.647, -22.560, 5.893, 29.4, 0.07867, -0.61108, -0.30426, -0.72644,
 14:52:39.817,f6:90:cc:01:6d:25, 2015-01-01 00:23:25.490, 0.926, 0.341, 0.063, 0.244, 0.061, 0, 78.893, -69.357, 133.077, -25.647, -22.560, 5.893, 29.4, 0.07867, -0.61108, -0.30426, -0.72644,
 14:52:39.835,ed:35:33:d3:6c:f8, 2015-01-01 00:23:25.815, 0.056, 0.221, 0.978, -0.122, -0.305, 0.366, 12.079, -3.362, -171.612, -2.820, -13.080, -34.567, 26.54, 0.0755, -0.02151, -0.10712, -0.99109,
 14:52:39.835,ed:35:33:d3:6c:f8, 2015-01-01 00:23:25.815, 0.062, 0.208, 0.979, -0.854, -0.183, 0.305, 12.079, -3.367, -171.634, -2.820, -13.080, -34.567, 26.54, 0.0755, -0.02151, -0.10712, -0.99109,
 14:52:39.835,ed:40:fe:65:30:6c, 2015-01-01 00:23:27.165, 0.804, 0.286, 0.532, 0.122, 0.061, 0.61, 27.867, -53.168, -140.065, -26.427, -14.907, 1.900, 24.38, 0.39761, -0.33472, -0.35071, -0.77893,
 14:52:39.835,ed:40:fe:65:30:6c, 2015-01-01 00:23:27.165, 0.805, 0.283, 0.532, 0.305, 0, 0.732, 27.856, -53.174, -140.043, -26.427, -14.907, 1.900, 24.38, 0.39761, -0.33472, -0.35071, -0.77893,
 14:52:39.855,e3:ca:2d:fd:e0:8c, 2015-01-01 00:23:27.925, 0.982, 0.179, -0.2, 0, 0, 0, 137.955, -74.855, 17.946, -23.227, -17.533, -1.240, 27.06, 0.19247, 0.76627, -0.0993, 0.60486,
 14:52:39.855,e3:ca:2d:fd:e0:8c, 2015-01-01 00:23:27.925, 0.982, 0.178, -0.2, 0.183, 0.061, 0, 137.955, -74.855, 17.957, -23.227, -17.533, -1.240, 27.06, 0.19247, 0.76627, -0.0993, 0.60486,
 14:52:39.858,f6:90:cc:01:6d:25, 2015-01-01 00:23:25.800, 0.926, 0.341, 0.064, 0.305, 0, 0, 78.898, -69.357, 133.094, -25.647, -22.560, 5.893, 29.4, 0.07867, -0.61108, -0.30426, -0.72644,
 14:52:39.858,f6:90:cc:01:6d:25, 2015-01-01 00:23:25.800, 0.923, 0.34, 0.063, 0.244, -0.061, 0.305, 78.909, -69.357, 133.116, -25.647, -22.560, 5.893, 29.4, 0.07867, -0.61108, -0.30426, -0.72644,
 14:52:39.879,e3:ca:2d:fd:e0:8c, 2015-01-01 00:23:27.925, 0.982, 0.178, -0.201, 0.244, 0.061, 0, 137.961, -74.855, 17.963, -22.753, -17.247, -1.407, 27.06, 0.19247, 0.76627, -0.0993, 0.60486,
 14:52:39.879,e3:ca:2d:fd:e0:8c, 2015-01-01 00:23:27.925, 0.98, 0.177, -0.2, 0.305, 0.061, 0, 137.961, -74.855, 17.968, -22.753, -17.247, -1.407, 27.06, 0.19247, 0.76627, -0.0993, 0.60486,
 14:52:39.880,ed:35:33:d3:6c:f8, 2015-01-01 00:23:25.815, 0.057, 0.2, 0.976, -0.977, 0.244, -0.244, 12.063, -3.373, -171.667, -2.820, -13.080, -34.567, 26.54, 0.0755, -0.02151, -0.10712, -0.99109,
 14:52:39.880,ed:35:33:d3:6c:f8, 2015-01-01 00:23:25.815, 0.06, 0.2, 0.976, -0.122, 0.061, -0.061, 12.052, -3.367, -171.716, -2.820, -13.080, -34.567, 26.54, 0.0755, -0.02151, -0.10712, -0.99109,
 14:52:39.881,f6:90:cc:01:6d:25, 2015-01-01 00:23:25.800, 0.924, 0.34, 0.062, 0.061, 0, 0.183, 78.915, -69.362, 133.132, -25.647, -22.560, 5.893, 29.4, 0.07867, -0.61108, -0.30426, -0.72644,
 14:52:39.881,f6:90:cc:01:6d:25, 2015-01-01 00:23:25.800, 0.923, 0.336, 0.063, -0.061, 0.061, 0, 78.915, -69.368, 133.149, -25.647, -22.560, 5.893, 29.4, 0.07867, -0.61108, -0.30426, -0.72644,
 14:52:39.902,ed:35:33:d3:6c:f8, 2015-01-01 00:23:25.815, 0.054, 0.204, 0.974, 0.305, 0, 0.366, 12.052, -3.362, -171.766, -2.820, -13.080, -34.567, 26.54, 0.0755, -0.02151, -0.10712, -0.99109,
 14:52:39.902,ed:35:33:d3:6c:f8, 2015-01-01 00:23:25.815, 0.055, 0.208, 0.977, 0.61, -0.061, 0.305, 12.057, -3.367, -171.788, -2.820, -13.080, -34.567, 26.54, 0.0755, -0.02151, -0.10712, -0.99109,
 14:52:39.902,ed:40:fe:65:30:6c, 2015-01-01 00:23:27.165, 0.8, 0.277, 0.529, -0.244, 0, 0.366, 27.845, -53.179, -140.026, -26.427, -14.907, 1.900, 24.38, 0.39761, -0.33472, -0.35071, -0.77893,
 14:52:39.902,ed:40:fe:65:30:6c, 2015-01-01 00:23:27.165, 0.802, 0.272, 0.53, -0.183, 0, -0.061, 27.839, -53.179, -140.015, -26.427, -14.907, 1.900, 24.38, 0.39761, -0.33472, -0.35071, -0.77893,
 14:52:39.923,e3:ca:2d:fd:e0:8c, 2015-01-01 00:23:27.925, 0.981, 0.178, -0.2, 0.061, 0.122, 0, 137.961, -74.855, 17.979, -22.753, -17.247, -1.407, 27.06, 0.19247, 0.76627, -0.0993, 0.60486,
 14:52:39.923,e3:ca:2d:fd:e0:8c, 2015-01-01 00:23:27.925, 0.981, 0.177, -0.199, -0.061, 0.122, 0, 137.955, -74.855, 17.99, -22.753, -17.247, -1.407, 27.06, 0.19247, 0.76627, -0.0993, 0.60486,
 14:52:39.923,ed:40:fe:65:30:6c, 2015-01-01 00:23:27.500, 0.799, 0.273, 0.53, 0.122, -0.244, -0.305, 27.839, -53.179, -140.032, -26.427, -14.907, 1.900, 24.38, 0.39761, -0.33472, -0.35071, -0.77893,
 14:52:39.923,ed:40:fe:65:30:6c, 2015-01-01 00:23:27.500, 0.799, 0.275, 0.532, 0.366, -0.061, -0.183, 27.85, -53.179, -140.054, -26.427, -14.907, 1.900, 24.38, 0.39761, -0.33472, -0.35071, -0.77893,
 14:52:39.927,f6:90:cc:01:6d:25, 2015-01-01 00:23:25.800, 0.923, 0.335, 0.063, 0, 0.061, -0.183, 78.915, -69.368, 133.154, -25.647, -22.560, 5.893, 29.4, 0.07867, -0.61108, -0.30426, -0.72644,
 14:52:39.927,f6:90:cc:01:6d:25, 2015-01-01 00:23:25.800, 0.923, 0.338, 0.066, 0.122, 0, -0.305, 78.92, -69.362, 133.149, -25.647, -22.560, 5.893, 29.4, 0.07867, -0.61108, -0.30426, -0.72644,
 14:52:39.946,e3:ca:2d:fd:e0:8c, 2015-01-01 00:23:27.925, 0.981, 0.176, -0.199, -0.061, 0.061, 0, 137.955, -74.855, 18.001, -22.753, -17.247, -1.407, 27.06, 0.19257, 0.76617, -0.09937, 0.60489,
 14:52:39.946,e3:ca:2d:fd:e0:8c, 2015-01-01 00:23:27.925, 0.98, 0.176, -0.198, 0, 0.061, 0, 137.955, -74.855, 18.007, -22.753, -17.247, -1.407, 27.06, 0.19257, 0.76617, -0.09937, 0.60489,
 14:52:39.946,ed:40:fe:65:30:6c, 2015-01-01 00:23:27.500, 0.801, 0.282, 0.533, 0.61, 0.061, 0, 27.861, -53.179, -140.076, -26.427, -14.907, 1.900, 24.38, 0.39761, -0.33472, -0.35071, -0.77893,
 14:52:39.946,ed:40:fe:65:30:6c, 2015-01-01 00:23:27.500, 0.802, 0.285, 0.534, 0.549, 0.122, 0, 27.867, -53.179, -140.092, -26.427, -14.907, 1.900, 24.38, 0.39761, -0.33472, -0.35071, -0.77893,
 14:52:39.947,ed:35:33:d3:6c:f8, 2015-01-01 00:23:25.815, 0.055, 0.214, 0.977, 0.854, -0.366, 0.122, 12.074, -3.367, -171.777, -2.820, -13.080, -34.567, 26.54, 0.0755, -0.02151, -0.10712, -0.99109,
 14:52:39.947,ed:35:33:d3:6c:f8, 2015-01-01 00:23:25.815, 0.057, 0.213, 0.976, 0.488, -0.305, 0.061, 12.085, -3.373, -171.738, -2.820, -13.080, -34.567, 26.54, 0.0755, -0.02151, -0.10712, -0.99109,
 14:52:39.972,f6:90:cc:01:6d:25, 2015-01-01 00:23:25.800, 0.924, 0.341, 0.068, 0.244, -0.061, -0.183, 78.931, -69.357, 133.154, -25.647, -22.560, 5.893, 29.4, 0.07867, -0.61108, -0.30426, -0.72644,
 14:52:39.972,f6:90:cc:01:6d:25, 2015-01-01 00:23:25.800, 0.923, 0.343, 0.067, 0.122, -0.061, 0, 78.942, -69.357, 133.16, -25.647, -22.560, 5.893, 29.4, 0.07867, -0.61108, -0.30426, -0.72644,
 14:52:39.991,ed:40:fe:65:30:6c, 2015-01-01 00:23:27.500, 0.8, 0.284, 0.532, -0.122, 0, -0.061, 27.872, -53.174, -140.114, -26.427, -14.907, 1.900, 24.38, 0.39761, -0.33472, -0.35071, -0.77893,
 14:52:39.991,ed:40:fe:65:30:6c, 2015-01-01 00:23:27.500, 0.801, 0.282, 0.529, -0.366, 0, -0.183, 27.872, -53.174, -140.142, -26.427, -14.907, 1.900, 24.38, 0.39761, -0.33472, -0.35071, -0.77893,
 14:52:39.991,e3:ca:2d:fd:e0:8c, 2015-01-01 00:23:27.925, 0.98, 0.178, -0.196, 0.122, 0, 0, 137.961, -74.855, 18.012, -22.753, -17.247, -1.407, 27.06, 0.19257, 0.76617, -0.09937, 0.60489,
 14:52:39.991,e3:ca:2d:fd:e0:8c, 2015-01-01 00:23:27.925, 0.98, 0.179, -0.196, 0.183, -0.061, 0, 137.972, -74.855, 18.012, -22.753, -17.247, -1.407, 27.06, 0.19257, 0.76617, -0.09937, 0.60489,
 14:52:40.016,ed:35:33:d3:6c:f8, 2015-01-01 00:23:25.815, 0.057, 0.213, 0.976, 0.122, 0.061, 0, 12.096, -3.378, -171.711, -2.820, -13.080, -34.567, 26.54, 0.0755, -0.02151, -0.10712, -0.99109,
 14:52:40.016,ed:35:33:d3:6c:f8, 2015-01-01 00:23:25.815, 0.056, 0.213, 0.974, -0.183, 0.061, -0.122, 12.096, -3.373, -171.683, -2.820, -13.080, -34.567, 26.54, 0.0755, -0.02151, -0.10712, -0.99109,
 14:52:40.017,f6:90:cc:01:6d:25, 2015-01-01 00:23:25.800, 0.923, 0.342, 0.067, -0.183, 0.061, 0, 78.942, -69.357, 133.176, -25.647, -22.560, 5.893, 29.4, 0.07867, -0.61108, -0.30426, -0.72644,
 14:52:40.017,f6:90:cc:01:6d:25, 2015-01-01 00:23:25.800, 0.924, 0.339, 0.065, -0.366, 0.183, 0, 78.926, -69.357, 133.193, -25.647, -22.560, 5.893, 29.4, 0.07867, -0.61108, -0.30426, -0.72644,
 14:52:40.035,e3:ca:2d:fd:e0:8c, 2015-01-01 00:23:28.260, 0.98, 0.18, -0.196, 0, 0, 0, 137.972, -74.855, 18.018, -22.753, -17.247, -1.407, 27.06, 0.19257, 0.76617, -0.09937, 0.60489,
 14:52:40.035,e3:ca:2d:fd:e0:8c, 2015-01-01 00:23:28.260, 0.981, 0.179, -0.196, -0.183, 0, 0, 137.966, -74.855, 18.018, -22.753, -17.247, -1.407, 27.06, 0.19257, 0.76617, -0.09937, 0.60489,
 14:52:40.037,ed:40:fe:65:30:6c, 2015-01-01 00:23:27.500, 0.802, 0.28, 0.532, -0.061, -0.122, -0.061, 27.867, -53.174, -140.164, -26.427, -14.907, 1.900, 24.38, 0.39761, -0.33472, -0.35071, -0.77893,
 14:52:40.037,ed:40:fe:65:30:6c, 2015-01-01 00:23:27.500, 0.802, 0.282, 0.532, -0.061, -0.122, 0, 27.872, -53.174, -140.186, -26.427, -14.907, 1.900, 24.38, 0.39761, -0.33472, -0.35071, -0.77893,
 14:52:40.037,ed:35:33:d3:6c:f8, 2015-01-01 00:23:25.815, 0.058, 0.213, 0.976, -0.061, -0.061, -0.244, 12.096, -3.373, -171.639, -3.400, -13.327, -33.953, 26.54, 0.0755, -0.02151, -0.10712, -0.99109,
 14:52:40.037,ed:35:33:d3:6c:f8, 2015-01-01 00:23:25.815, 0.056, 0.212, 0.977, -0.122, 0.366, 0, 12.096, -3.367, -171.601, -3.400, -13.327, -33.953, 26.54, 0.0755, -0.02151, -0.10712, -0.99109,
 14:52:40.057,e3:ca:2d:fd:e0:8c, 2015-01-01 00:23:28.260, 0.982, 0.177, -0.198, -0.244, 0, 0, 137.961, -74.855, 18.023, -22.753, -17.247, -1.407, 27.06, 0.19257, 0.76617, -0.09937, 0.60489,
 14:52:40.057,e3:ca:2d:fd:e0:8c, 2015-01-01 00:23:28.260, 0.982, 0.177, -0.2, -0.061, 0, 0, 137.961, -74.855, 18.029, -22.753, -17.247, -1.407, 27.06, 0.19257, 0.76617, -0.09937, 0.60489,
 14:52:40.062,f6:90:cc:01:6d:25, 2015-01-01 00:23:25.800, 0.925, 0.339, 0.066, -0.122, 0.122, 0, 78.92, -69.362, 133.215, -25.647, -23.253, 5.740, 29.4, 0.07867, -0.61108, -0.30426, -0.72644,
 14:52:40.062,f6:90:cc:01:6d:25, 2015-01-01 00:23:25.800, 0.925, 0.338, 0.064, 0, 0.061, -0.061, 78.915, -69.362, 133.231, -25.647, -23.253, 5.740, 29.4, 0.07867, -0.61108, -0.30426, -0.72644,
 14:52:40.082,ed:40:fe:65:30:6c, 2015-01-01 00:23:27.500, 0.801, 0.276, 0.534, 0.122, -0.061, 0.061, 27.872, -53.174, -140.208, -26.427, -14.907, 1.900, 24.38, 0.39761, -0.33472, -0.35071, -0.77893,
 14:52:40.082,ed:40:fe:65:30:6c, 2015-01-01 00:23:27.500, 0.799, 0.275, 0.536, 0.366, -0.244, 0, 27.878, -53.179, -140.229, -26.427, -14.907, 1.900, 24.38, 0.39761, -0.33472, -0.35071, -0.77893,
 14:52:40.083,ed:35:33:d3:6c:f8, 2015-01-01 00:23:25.815, 0.055, 0.206, 0.978, 0.061, 0, 0.305, 12.096, -3.362, -171.552, -3.400, -13.327, -33.953, 26.54, 0.0755, -0.02151, -0.10712, -0.99109,
 14:52:40.083,ed:35:33:d3:6c:f8, 2015-01-01 00:23:25.815, 0.053, 0.205, 0.978, 0.549, -0.122, 0.244, 12.101, -3.362, -171.508, -3.400, -13.327, -33.953, 26.54, 0.0755, -0.02151, -0.10712, -0.99109,
 14:52:40.084,f6:90:cc:01:6d:25, 2015-01-01 00:23:25.800, 0.924, 0.338, 0.065, 0.183, -0.061, -0.183, 78.926, -69.357, 133.237, -25.647, -23.253, 5.740, 29.4, 0.08002, -0.6106, -0.30542, -0.72623,
 14:52:40.084,f6:90:cc:01:6d:25, 2015-01-01 00:23:25.800, 0.921, 0.339, 0.065, 0, -0.183, -0.305, 78.937, -69.357, 133.237, -25.647, -23.253, 5.740, 29.4, 0.08002, -0.6106, -0.30542, -0.72623,
 14:52:40.103,e3:ca:2d:fd:e0:8c, 2015-01-01 00:23:28.260, 0.981, 0.178, -0.199, -0.061, -0.061, 0, 137.966, -74.85, 18.029, -22.753, -17.247, -1.407, 27.06, 0.19257, 0.76617, -0.09937, 0.60489,
 14:52:40.103,e3:ca:2d:fd:e0:8c, 2015-01-01 00:23:28.260, 0.979, 0.178, -0.199, -0.122, -0.244, 0, 137.977, -74.85, 18.018, -22.753, -17.247, -1.407, 27.06, 0.19257, 0.76617, -0.09937, 0.60489,
 14:52:40.105,ed:35:33:d3:6c:f8, 2015-01-01 00:23:25.815, 0.055, 0.208, 0.977, 0.732, -0.427, 0.122, 12.112, -3.367, -171.464, -3.400, -13.327, -33.953, 26.54, 0.07675, -0.0213, -0.10727, -0.991,
 14:52:40.105,ed:35:33:d3:6c:f8, 2015-01-01 00:23:25.815, 0.062, 0.212, 0.974, 0.549, -0.61, 0.183, 12.123, -3.373, -171.42, -3.400, -13.327, -33.953, 26.54, 0.07675, -0.0213, -0.10727, -0.991,
 14:52:40.127,ed:40:fe:65:30:6c, 2015-01-01 00:23:27.500, 0.8, 0.278, 0.534, 0.549, -0.305, -0.122, 27.889, -53.179, -140.257, -26.427, -14.907, 1.900, 24.38, 0.39761, -0.33472, -0.35071, -0.77893,
 14:52:40.127,ed:40:fe:65:30:6c, 2015-01-01 00:23:27.500, 0.804, 0.283, 0.529, 0.488, -0.427, -0.244, 27.905, -53.185, -140.284, -26.427, -14.907, 1.900, 24.38, 0.39761, -0.33472, -0.35071, -0.77893,
 14:52:40.130,f6:90:cc:01:6d:25, 2015-01-01 00:23:25.800, 0.923, 0.34, 0.063, -0.061, -0.244, -0.366, 78.953, -69.351, 133.231, -25.647, -23.253, 5.740, 29.4, 0.08002, -0.6106, -0.30542, -0.72623,
 14:52:40.130,f6:90:cc:01:6d:25, 2015-01-01 00:23:25.800, 0.924, 0.342, 0.062, 0, -0.183, -0.305, 78.97, -69.346, 133.226, -25.647, -23.253, 5.740, 29.4, 0.08002, -0.6106, -0.30542, -0.72623,
 14:52:40.149,ed:40:fe:65:30:6c, 2015-01-01 00:23:27.500, 0.805, 0.285, 0.526, 0.061, -0.244, -0.366, 27.922, -53.185, -140.317, -26.493, -15.133, 2.507, 24.38, 0.39761, -0.33472, -0.35071, -0.77893,
 14:52:40.149,ed:40:fe:65:30:6c, 2015-01-01 00:23:27.500, 0.805, 0.284, 0.528, -0.244, -0.061, -0.305, 27.927, -53.185, -140.35, -26.493, -15.133, 2.507, 24.38, 0.39761, -0.33472, -0.35071, -0.77893,
 14:52:40.171,e3:ca:2d:fd:e0:8c, 2015-01-01 00:23:28.260, 0.98, 0.177, -0.199, 0, -0.244, 0, 137.994, -74.844, 18.012, -22.753, -17.247, -1.407, 27.06, 0.19257, 0.76617, -0.09937, 0.60489,
 14:52:40.171,e3:ca:2d:fd:e0:8c, 2015-01-01 00:23:28.260, 0.981, 0.178, -0.199, 0.061, -0.122, 0, 137.999, -74.839, 18.007, -22.753, -17.247, -1.407, 27.06, 0.19257, 0.76617, -0.09937, 0.60489,
 14:52:40.172,ed:35:33:d3:6c:f8, 2015-01-01 00:23:25.815, 0.062, 0.215, 0.974, 0.244, -0.366, 0, 12.134, -3.384, -171.381, -3.400, -13.327, -33.953, 26.54, 0.07675, -0.0213, -0.10727, -0.991,
 14:52:40.172,ed:35:33:d3:6c:f8, 2015-01-01 00:23:25.815, 0.061, 0.216, 0.976, 0.061, 0, -0.244, 12.14, -3.384, -171.343, -3.400, -13.327, -33.953, 26.54, 0.07675, -0.0213, -0.10727, -0.991,
 14:52:40.174,f6:90:cc:01:6d:25, 2015-01-01 00:23:26.090, 0.926, 0.343, 0.062, -0.122, -0.061, -0.183, 78.975, -69.346, 133.231, -25.647, -23.253, 5.740, 29.4, 0.08002, -0.6106, -0.30542, -0.72623,
 14:52:40.174,f6:90:cc:01:6d:25, 2015-01-01 00:23:26.090, 0.925, 0.342, 0.063, -0.244, 0, -0.122, 78.981, -69.34, 133.237, -25.647, -23.253, 5.740, 29.4, 0.08002, -0.6106, -0.30542, -0.72623,
 14:52:40.195,ed:40:fe:65:30:6c, 2015-01-01 00:23:27.500, 0.802, 0.283, 0.53, -0.366, 0, -0.244, 27.927, -53.179, -140.378, -26.493, -15.133, 2.507, 24.38, 0.39761, -0.33472, -0.35071, -0.77893,
 14:52:40.195,ed:40:fe:65:30:6c, 2015-01-01 00:23:27.500, 0.802, 0.283, 0.531, 0, -0.061, -0.061, 27.927, -53.179, -140.4, -26.493, -15.133, 2.507, 24.38, 0.39761, -0.33472, -0.35071, -0.77893,
 14:52:40.195,ed:35:33:d3:6c:f8, 2015-01-01 00:23:26.170, 0.057, 0.216, 0.976, 0.061, 0.183, -0.244, 12.14, -3.384, -171.31, -3.400, -13.327, -33.953, 26.54, 0.07675, -0.0213, -0.10727, -0.991,
 14:52:40.195,ed:35:33:d3:6c:f8, 2015-01-01 00:23:26.170, 0.06, 0.216, 0.977, 0.183, -0.061, 0.122, 12.145, -3.378, -171.271, -3.400, -13.327, -33.953, 26.54, 0.07675, -0.0213, -0.10727, -0.991,
 14:52:40.215,e3:ca:2d:fd:e0:8c, 2015-01-01 00:23:28.260, 0.982, 0.178, -0.2, 0, 0, 0, 138.005, -74.839, 18.012, -22.753, -17.247, -1.407, 27.06, 0.19257, 0.76617, -0.09937, 0.60489,
