Time,Device name,Chip Time(),Acceleration X(g),Acceleration Y(g),Acceleration Z(g),Angular velocity X(°/s),Angular velocity Y(°/s),Angular velocity Z(°/s),Angle X(°),Angle Y(°),Angle Z(°),Magnetic field X(ʯt),Magnetic field Y(ʯt),Magnetic field Z(ʯt),Temperature(℃),Quaternions 0(),Quaternions 1(),Quaternions 2(),Quaternions 3()
 13:28:55.934,ed:35:33:d3:6c:f8, 2015-01-01 01:41:08.165, 0.433, -0.28, 0.862, 0.427, 2.869, -2.991, -17.38, -26.461, 171.31, -12.687, -4.147, -31.460, 27.63, 0.10541, 0.21878, -0.16699, 0.95554,
 13:28:55.934,ed:35:33:d3:6c:f8, 2015-01-01 01:41:08.165, 0.437, -0.271, 0.858, 0.244, 1.587, -3.113, -17.347, -26.428, 171.26, -12.687, -4.147, -31.460, 27.63, 0.10541, 0.21878, -0.16699, 0.95554,
 13:28:55.955,e3:ca:2d:fd:e0:8c, 2015-01-01 01:41:08.000, 0.975, -0.18, 0.246, 0.61, 2.625, 0.061, -36.502, -72.493, -158.467, -27.980, -9.273, -10.127, 25.69, -0.039, -0.5997, 0.14362, -0.78619,
 13:28:55.955,e3:ca:2d:fd:e0:8c, 2015-01-01 01:41:08.000, 0.975, -0.181, 0.25, 0.244, 1.831, 0, -36.414, -72.46, -158.544, -27.980, -9.273, -10.127, 25.69, -0.039, -0.5997, 0.14362, -0.78619,
 13:28:55.976,ed:40:fe:65:30:6c, 2015-01-01 01:41:13.240, 0.581, -0.194, 0.799, -0.305, -0.793, -1.099, -13.288, -35.184, -120.526, -18.540, -4.473, -7.967, 25.66, 0.43909, -0.31543, -0.05319, -0.83951,
 13:28:55.976,ed:40:fe:65:30:6c, 2015-01-01 01:41:13.240, 0.576, -0.191, 0.793, -0.488, -0.244, -0.793, -13.288, -35.195, -120.547, -18.540, -4.473, -7.967, 25.66, 0.43909, -0.31543, -0.05319, -0.83951,
 13:28:55.976,e3:ca:2d:fd:e0:8c, 2015-01-01 01:41:08.000, 0.972, -0.182, 0.249, 0, 1.465, -0.183, -36.354, -72.433, -158.604, -27.980, -9.273, -10.127, 25.69, -0.039, -0.5997, 0.14362, -0.78619,
 13:28:55.976,e3:ca:2d:fd:e0:8c, 2015-01-01 01:41:08.000, 0.973, -0.184, 0.249, 0, 1.343, -0.305, -36.293, -72.416, -158.659, -27.980, -9.273, -10.127, 25.69, -0.039, -0.5997, 0.14362, -0.78619,
 13:28:55.977,f6:90:cc:01:6d:25, 2015-01-01 01:41:08.330, 0.9, -0.115, 0.404, 0.916, -2.319, 0.61, -15.551, -65.737, -158.412, -28.733, -9.773, -9.947, 30.04, 0.08093, -0.54825, 0.01202, -0.83224,
 13:28:55.977,f6:90:cc:01:6d:25, 2015-01-01 01:41:08.330, 0.896, -0.112, 0.397, 0.854, -1.526, 0.427, -15.579, -65.764, -158.324, -28.733, -9.773, -9.947, 30.04, 0.08093, -0.54825, 0.01202, -0.83224,
 13:28:55.981,ed:35:33:d3:6c:f8, 2015-01-01 01:41:08.165, 0.442, -0.266, 0.851, 0.61, 1.343, -2.747, -17.314, -26.411, 171.222, -12.687, -4.147, -31.460, 27.63, 0.10541, 0.21878, -0.16699, 0.95554,
 13:28:55.981,ed:35:33:d3:6c:f8, 2015-01-01 01:41:08.165, 0.438, -0.265, 0.847, 0.671, 1.526, -1.892, -17.276, -26.395, 171.194, -12.687, -4.147, -31.460, 27.63, 0.10541, 0.21878, -0.16699, 0.95554,
 13:28:56.002,ed:35:33:d3:6c:f8, 2015-01-01 01:41:08.165, 0.437, -0.26, 0.845, 0.488, 1.526, -1.404, -17.249, -26.378, 171.183, -12.467, -3.867, -30.707, 27.63, 0.10541, 0.21878, -0.16699, 0.95554,
 13:28:56.002,ed:35:33:d3:6c:f8, 2015-01-01 01:41:08.165, 0.436, -0.264, 0.847, 0.732, 1.709, -1.404, -17.227, -26.351, 171.194, -12.467, -3.867, -30.707, 27.63, 0.10541, 0.21878, -0.16699, 0.95554,
 13:28:56.021,e3:ca:2d:fd:e0:8c, 2015-01-01 01:41:08.000, 0.973, -0.182, 0.25, 0.122, 1.282, -0.122, -36.238, -72.4, -158.698, -27.980, -9.273, -10.127, 25.69, -0.039, -0.5997, 0.14362, -0.78619,
 13:28:56.021,e3:ca:2d:fd:e0:8c, 2015-01-01 01:41:08.000, 0.974, -0.183, 0.25, 0.183, 1.282, -0.122, -36.189, -72.383, -158.725, -27.980, -9.273, -10.127, 25.69, -0.039, -0.5997, 0.14362, -0.78619,
 13:28:56.021,ed:40:fe:65:30:6c, 2015-01-01 01:41:13.240, 0.578, -0.187, 0.791, -0.427, -0.061, -0.671, -13.288, -35.2, -120.569, -18.540, -4.473, -7.967, 25.66, 0.43909, -0.31543, -0.05319, -0.83951,
 13:28:56.022,ed:40:fe:65:30:6c, 2015-01-01 01:41:13.240, 0.578, -0.191, 0.792, -0.183, 0, -0.488, -13.293, -35.206, -120.575, -18.540, -4.473, -7.967, 25.66, 0.43909, -0.31543, -0.05319, -0.83951,
 13:28:56.023,f6:90:cc:01:6d:25, 2015-01-01 01:41:08.330, 0.896, -0.112, 0.396, 0.549, -0.916, 0.488, -15.601, -65.775, -158.231, -28.733, -9.773, -9.947, 30.04, 0.08093, -0.54825, 0.01202, -0.83224,
 13:28:56.023,f6:90:cc:01:6d:25, 2015-01-01 01:41:08.330, 0.896, -0.113, 0.395, 0.61, -0.549, 0.427, -15.617, -65.781, -158.143, -28.733, -9.773, -9.947, 30.04, 0.08093, -0.54825, 0.01202, -0.83224,
 13:28:56.046,f6:90:cc:01:6d:25, 2015-01-01 01:41:08.330, 0.898, -0.111, 0.396, 0.671, -0.305, 0.488, -15.628, -65.781, -158.049, -28.733, -9.773, -9.947, 30.04, 0.08093, -0.54825, 0.01202, -0.83224,
 13:28:56.046,f6:90:cc:01:6d:25, 2015-01-01 01:41:08.330, 0.898, -0.11, 0.396, 0.549, -0.183, 0.366, -15.639, -65.775, -157.956, -28.733, -9.773, -9.947, 30.04, 0.08093, -0.54825, 0.01202, -0.83224,
 13:28:56.047,ed:35:33:d3:6c:f8, 2015-01-01 01:41:08.165, 0.438, -0.268, 0.847, 1.465, 1.831, -1.282, -17.194, -26.323, 171.216, -12.467, -3.867, -30.707, 27.63, 0.10541, 0.21878, -0.16699, 0.95554,
 13:28:56.047,ed:35:33:d3:6c:f8, 2015-01-01 01:41:08.165, 0.435, -0.269, 0.848, 1.953, 2.319, -1.465, -17.144, -26.296, 171.238, -12.467, -3.867, -30.707, 27.63, 0.10541, 0.21878, -0.16699, 0.95554,
 13:28:56.066,ed:40:fe:65:30:6c, 2015-01-01 01:41:13.240, 0.58, -0.195, 0.793, 0.244, 0.366, -0.549, -13.288, -35.2, -120.591, -18.540, -4.473, -7.967, 25.66, 0.43909, -0.31543, -0.05319, -0.83951,
 13:28:56.066,ed:40:fe:65:30:6c, 2015-01-01 01:41:13.240, 0.579, -0.194, 0.795, 0.61, 0.793, -0.671, -13.271, -35.195, -120.619, -18.540, -4.473, -7.967, 25.66, 0.43909, -0.31543, -0.05319, -0.83951,
 13:28:56.067,e3:ca:2d:fd:e0:8c, 2015-01-01 01:41:08.000, 0.973, -0.182, 0.251, 0, 1.099, -0.122, -36.14, -72.367, -158.763, -27.980, -9.273, -10.127, 25.69, -0.039, -0.5997, 0.14362, -0.78619,
 13:28:56.067,e3:ca:2d:fd:e0:8c, 2015-01-01 01:41:08.000, 0.973, -0.183, 0.25, 0, 0.977, 0, -36.101, -72.35, -158.796, -27.980, -9.273, -10.127, 25.69, -0.039, -0.5997, 0.14362, -0.78619,
 13:28:56.091,f6:90:cc:01:6d:25, 2015-01-01 01:41:08.330, 0.896, -0.111, 0.397, 0.244, -0.122, 0.305, -15.65, -65.77, -157.879, -28.733, -9.773, -9.947, 30.04, 0.08093, -0.54825, 0.01202, -0.83224,
 13:28:56.091,f6:90:cc:01:6d:25, 2015-01-01 01:41:08.330, 0.896, -0.114, 0.403, -0.305, 0, 0.061, -15.661, -65.764, -157.819, -28.733, -9.773, -9.947, 30.04, 0.08093, -0.54825, 0.01202, -0.83224,
 13:28:56.093,ed:35:33:d3:6c:f8, 2015-01-01 01:41:08.165, 0.425, -0.264, 0.852, 1.831, 3.174, -1.648, -17.089, -26.257, 171.244, -12.467, -3.867, -30.707, 27.63, 0.10745, 0.21329, -0.16214, 0.95737,
 13:28:56.093,ed:35:33:d3:6c:f8, 2015-01-01 01:41:08.165, 0.425, -0.261, 0.867, 1.892, 2.686, -1.709, -17.034, -26.208, 171.233, -12.467, -3.867, -30.707, 27.63, 0.10745, 0.21329, -0.16214, 0.95737,
 13:28:56.111,ed:40:fe:65:30:6c, 2015-01-01 01:41:13.240, 0.569, -0.193, 0.798, 0.366, 0.854, -0.793, -13.255, -35.178, -120.641, -18.540, -4.473, -7.967, 25.66, 0.43909, -0.31543, -0.05319, -0.83951,
 13:28:56.111,ed:40:fe:65:30:6c, 2015-01-01 01:41:13.240, 0.568, -0.193, 0.808, 0.732, 0.793, -0.488, -13.239, -35.167, -120.657, -18.540, -4.473, -7.967, 25.66, 0.43909, -0.31543, -0.05319, -0.83951,
 13:28:56.112,e3:ca:2d:fd:e0:8c, 2015-01-01 01:41:08.000, 0.973, -0.183, 0.251, 0, 0.793, 0.061, -36.074, -72.339, -158.807, -27.980, -9.273, -10.127, 25.69, -0.039, -0.5997, 0.14362, -0.78619,
 13:28:56.112,e3:ca:2d:fd:e0:8c, 2015-01-01 01:41:08.000, 0.972, -0.185, 0.252, -0.061, 0.366, 0, -36.052, -72.328, -158.807, -27.980, -9.273, -10.127, 25.69, -0.039, -0.5997, 0.14362, -0.78619,
 13:28:56.134,ed:40:fe:65:30:6c, 2015-01-01 01:41:13.240, 0.573, -0.191, 0.805, 0.671, 0.61, -0.305, -13.222, -35.151, -120.663, -18.400, -4.787, -7.987, 25.66, 0.43909, -0.31543, -0.05319, -0.83951,
 13:28:56.134,ed:40:fe:65:30:6c, 2015-01-01 01:41:13.240, 0.572, -0.191, 0.803, 0.671, 0.305, -0.122, -13.206, -35.14, -120.657, -18.400, -4.787, -7.987, 25.66, 0.43909, -0.31543, -0.05319, -0.83951,
 13:28:56.136,ed:35:33:d3:6c:f8, 2015-01-01 01:41:08.475, 0.428, -0.26, 0.863, 1.343, 1.831, -1.16, -16.985, -26.164, 171.249, -12.467, -3.867, -30.707, 27.63, 0.10745, 0.21329, -0.16214, 0.95737,
 13:28:56.136,ed:35:33:d3:6c:f8, 2015-01-01 01:41:08.475, 0.428, -0.26, 0.86, 1.038, 1.343, -0.793, -16.946, -26.136, 171.282, -12.467, -3.867, -30.707, 27.63, 0.10745, 0.21329, -0.16214, 0.95737,
 13:28:56.158,f6:90:cc:01:6d:25, 2015-01-01 01:41:08.330, 0.895, -0.116, 0.399, -0.488, 0.122, -0.122, -15.667, -65.759, -157.78, -28.733, -9.773, -9.947, 30.04, 0.08093, -0.54825, 0.01202, -0.83224,
 13:28:56.158,f6:90:cc:01:6d:25, 2015-01-01 01:41:08.330, 0.896, -0.116, 0.398, -0.305, 0.244, -0.183, -15.667, -65.748, -157.736, -28.733, -9.773, -9.947, 30.04, 0.08093, -0.54825, 0.01202, -0.83224,
 13:28:56.179,e3:ca:2d:fd:e0:8c, 2015-01-01 01:41:08.000, 0.973, -0.185, 0.25, -0.061, 0.122, 0, -36.046, -72.323, -158.807, -27.980, -9.273, -10.127, 25.69, -0.039, -0.5997, 0.14362, -0.78619,
 13:28:56.179,e3:ca:2d:fd:e0:8c, 2015-01-01 01:41:08.000, 0.974, -0.185, 0.25, 0, -0.061, 0, -36.046, -72.323, -158.796, -27.980, -9.273, -10.127, 25.69, -0.039, -0.5997, 0.14362, -0.78619,
 13:28:56.179,ed:40:fe:65:30:6c, 2015-01-01 01:41:13.240, 0.577, -0.188, 0.802, 0.366, 0.122, -0.061, -13.2, -35.134, -120.663, -18.400, -4.787, -7.987, 25.66, 0.43909, -0.31543, -0.05319, -0.83951,
 13:28:56.179,ed:40:fe:65:30:6c, 2015-01-01 01:41:13.240, 0.576, -0.188, 0.801, 0.122, 0, 0, -13.195, -35.134, -120.663, -18.400, -4.787, -7.987, 25.66, 0.43909, -0.31543, -0.05319, -0.83951,
 13:28:56.180,f6:90:cc:01:6d:25, 2015-01-01 01:41:08.330, 0.897, -0.115, 0.397, -0.305, 0.122, -0.183, -15.667, -65.742, -157.703, -28.527, -9.880, -9.760, 30.04, 0.08093, -0.54825, 0.01202, -0.83224,
 13:28:56.180,f6:90:cc:01:6d:25, 2015-01-01 01:41:08.330, 0.898, -0.113, 0.396, -0.488, 0.061, -0.183, -15.672, -65.731, -157.681, -28.527, -9.880, -9.760, 30.04, 0.08093, -0.54825, 0.01202, -0.83224,
 13:28:56.181,ed:35:33:d3:6c:f8, 2015-01-01 01:41:08.475, 0.433, -0.257, 0.859, 0.549, 0.671, -0.366, -16.919, -26.115, 171.315, -12.467, -3.867, -30.707, 27.63, 0.10745, 0.21329, -0.16214, 0.95737,
 13:28:56.181,ed:35:33:d3:6c:f8, 2015-01-01 01:41:08.475, 0.431, -0.256, 0.857, 0.183, 0.305, 0, -16.908, -26.098, 171.348, -12.467, -3.867, -30.707, 27.63, 0.10745, 0.21329, -0.16214, 0.95737,
 13:28:56.202,e3:ca:2d:fd:e0:8c, 2015-01-01 01:41:08.000, 0.974, -0.185, 0.249, -0.061, -0.183, 0, -36.057, -72.323, -158.774, -28.593, -9.307, -10.720, 25.69, -0.039, -0.5997, 0.14362, -0.78619,
 13:28:56.202,e3:ca:2d:fd:e0:8c, 2015-01-01 01:41:08.000, 0.974, -0.185, 0.251, -0.244, -0.244, -0.122, -36.068, -72.328, -158.763, -28.593, -9.307, -10.720, 25.69, -0.039, -0.5997, 0.14362, -0.78619,
 13:28:56.205,ed:35:33:d3:6c:f8, 2015-01-01 01:41:08.475, 0.432, -0.261, 0.858, 0.427, 0.183, 0.305, -16.908, -26.093, 171.365, -12.467, -3.867, -30.707, 27.63, 0.10745, 0.21329, -0.16214, 0.95737,
 13:28:56.205,ed:35:33:d3:6c:f8, 2015-01-01 01:41:08.475, 0.435, -0.263, 0.854, 0.549, 0, 0.427, -16.902, -26.082, 171.392, -12.467, -3.867, -30.707, 27.63, 0.10745, 0.21329, -0.16214, 0.95737,
 13:28:56.226,f6:90:cc:01:6d:25, 2015-01-01 01:41:08.330, 0.898, -0.114, 0.397, -0.671, 0, -0.061, -15.683, -65.726, -157.648, -28.527, -9.880, -9.760, 30.04, 0.08093, -0.54825, 0.01202, -0.83224,
 13:28:56.226,f6:90:cc:01:6d:25, 2015-01-01 01:41:08.330, 0.898, -0.114, 0.396, -0.793, 0, 0, -15.705, -65.72, -157.593, -28.527, -9.880, -9.760, 30.04, 0.08093, -0.54825, 0.01202, -0.83224,
 13:28:56.247,e3:ca:2d:fd:e0:8c, 2015-01-01 01:41:08.000, 0.975, -0.185, 0.248, -0.366, -0.305, -0.122, -36.079, -72.334, -158.758, -28.593, -9.307, -10.720, 25.69, -0.039, -0.5997, 0.14362, -0.78619,
 13:28:56.247,e3:ca:2d:fd:e0:8c, 2015-01-01 01:41:08.000, 0.975, -0.184, 0.249, -0.305, -0.366, -0.122, -36.096, -72.339, -158.747, -28.593, -9.307, -10.720, 25.69, -0.039, -0.5997, 0.14362, -0.78619,
 13:28:56.247,ed:40:fe:65:30:6c, 2015-01-01 01:41:13.240, 0.577, -0.192, 0.8, 0.427, 0.305, 0.244, -13.195, -35.123, -120.646, -18.400, -4.787, -7.987, 25.66, 0.43857, -0.31473, -0.05319, -0.84003,
 13:28:56.247,ed:40:fe:65:30:6c, 2015-01-01 01:41:13.240, 0.579, -0.192, 0.797, 0.61, 0.488, 0.183, -13.189, -35.112, -120.635, -18.400, -4.787, -7.987, 25.66, 0.43857, -0.31473, -0.05319, -0.84003,
 13:28:56.249,f6:90:cc:01:6d:25, 2015-01-01 01:41:08.330, 0.9, -0.113, 0.396, -0.916, 0, 0.061, -15.727, -65.715, -157.538, -28.527, -9.880, -9.760, 30.04, 0.0889, -0.54956, 0.00815, -0.8306,
 13:28:56.249,f6:90:cc:01:6d:25, 2015-01-01 01:41:08.330, 0.899, -0.114, 0.393, -0.793, 0, 0.061, -15.749, -65.709, -157.484, -28.527, -9.880, -9.760, 30.04, 0.0889, -0.54956, 0.00815, -0.8306,
 13:28:56.249,ed:35:33:d3:6c:f8, 2015-01-01 01:41:08.475, 0.432, -0.263, 0.855, 0.977, 0, 0.305, -16.891, -26.076, 171.431, -12.467, -3.867, -30.707, 27.63, 0.10745, 0.21329, -0.16214, 0.95737,
 13:28:56.249,ed:35:33:d3:6c:f8, 2015-01-01 01:41:08.475, 0.431, -0.263, 0.854, 0.916, 0.183, 0.122, -16.875, -26.071, 171.464, -12.467, -3.867, -30.707, 27.63, 0.10745, 0.21329, -0.16214, 0.95737,
 13:28:56.270,e3:ca:2d:fd:e0:8c, 2015-01-01 01:41:08.000, 0.977, -0.184, 0.247, -0.244, -0.366, -0.061, -36.118, -72.345, -158.736, -28.593, -9.307, -10.720, 25.69, -0.03824, -0.59766, 0.1424, -0.78802,
 13:28:56.270,e3:ca:2d:fd:e0:8c, 2015-01-01 01:41:08.000, 0.976, -0.183, 0.249, -0.061, -0.244, 0, -36.134, -72.35, -158.714, -28.593, -9.307, -10.720, 25.69, -0.03824, -0.59766, 0.1424, -0.78802,
 13:28:56.290,ed:40:fe:65:30:6c, 2015-01-01 01:41:13.600, 0.576, -0.191, 0.797, 1.038, 0.671, 0.183, -13.178, -35.101, -120.624, -18.400, -4.787, -7.987, 25.66, 0.43857, -0.31473, -0.05319, -0.84003,
 13:28:56.290,ed:40:fe:65:30:6c, 2015-01-01 01:41:13.600, 0.575, -0.193, 0.799, 0.916, 0.488, 0.061, -13.162, -35.09, -120.619, -18.400, -4.787, -7.987, 25.66, 0.43857, -0.31473, -0.05319, -0.84003,
 13:28:56.292,f6:90:cc:01:6d:25, 2015-01-01 01:41:08.330, 0.897, -0.113, 0.394, -0.366, 0, 0.061, -15.765, -65.709, -157.434, -28.527, -9.880, -9.760, 30.04, 0.0889, -0.54956, 0.00815, -0.8306,
 13:28:56.292,f6:90:cc:01:6d:25, 2015-01-01 01:41:08.330, 0.897, -0.109, 0.393, -0.244, 0.366, -0.061, -15.765, -65.698, -157.401, -28.527, -9.880, -9.760, 30.04, 0.0889, -0.54956, 0.00815, -0.8306,
 13:28:56.296,ed:35:33:d3:6c:f8, 2015-01-01 01:41:08.475, 0.433, -0.262, 0.856, 0, 0.427, 0.061, -16.864, -26.06, 171.491, -12.467, -3.867, -30.707, 27.63, 0.10745, 0.21329, -0.16214, 0.95737,
 13:28:56.296,ed:35:33:d3:6c:f8, 2015-01-01 01:41:08.475, 0.436, -0.26, 0.85, -0.122, 0.793, -0.549, -16.87, -26.049, 171.513, -12.467, -3.867, -30.707, 27.63, 0.10745, 0.21329, -0.16214, 0.95737,
 13:28:56.313,ed:40:fe:65:30:6c, 2015-01-01 01:41:13.600, 0.577, -0.189, 0.798, 0, 0.305, 0, -13.156, -35.079, -120.63, -18.400, -4.787, -7.987, 25.66, 0.43857, -0.31473, -0.05319, -0.84003,
 13:28:56.313,ed:40:fe:65:30:6c, 2015-01-01 01:41:13.600, 0.581, -0.187, 0.794, -0.183, 0.61, -0.305, -13.156, -35.068, -120.646, -18.400, -4.787, -7.987, 25.66, 0.43857, -0.31473, -0.05319, -0.84003,
 13:28:56.314,e3:ca:2d:fd:e0:8c, 2015-01-01 01:41:08.000, 0.975, -0.182, 0.247, 0, -0.122, 0, -36.145, -72.356, -158.698, -28.593, -9.307, -10.720, 25.69, -0.03824, -0.59766, 0.1424, -0.78802,
 13:28:56.314,e3:ca:2d:fd:e0:8c, 2015-01-01 01:41:08.000, 0.977, -0.182, 0.246, 0, 0, 0, -36.156, -72.356, -158.676, -28.593, -9.307, -10.720, 25.69, -0.03824, -0.59766, 0.1424, -0.78802,
 13:28:56.336,ed:40:fe:65:30:6c, 2015-01-01 01:41:13.600, 0.581, -0.19, 0.794, 0, 0.671, -0.427, -13.156, -35.057, -120.657, -18.400, -4.787, -7.987, 25.66, 0.43857, -0.31473, -0.05319, -0.84003,
 13:28:56.336,ed:40:fe:65:30:6c, 2015-01-01 01:41:13.600, 0.575, -0.192, 0.797, 0.488, 0.916, 0, -13.151, -35.046, -120.674, -18.400, -4.787, -7.987, 25.66, 0.43857, -0.31473, -0.05319, -0.84003,
 13:28:56.338,f6:90:cc:01:6d:25, 2015-01-01 01:41:08.690, 0.901, -0.11, 0.392, -0.244, 0.305, 0, -15.765, -65.687, -157.374, -28.527, -9.880, -9.760, 30.04, 0.0889, -0.54956, 0.00815, -0.8306,
 13:28:56.338,f6:90:cc:01:6d:25, 2015-01-01 01:41:08.690, 0.901, -0.114, 0.395, 0.427, 0.122, 0, -15.76, -65.682, -157.346, -28.527, -9.880, -9.760, 30.04, 0.0889, -0.54956, 0.00815, -0.8306,
 13:28:56.338,e3:ca:2d:fd:e0:8c, 2015-01-01 01:41:08.380, 0.977, -0.183, 0.246, 0, 0.122, 0, -36.156, -72.356, -158.67, -28.593, -9.307, -10.720, 25.69, -0.03824, -0.59766, 0.1424, -0.78802,
 13:28:56.338,e3:ca:2d:fd:e0:8c, 2015-01-01 01:41:08.380, 0.972, -0.185, 0.247, 0.122, 0.183, 0, -36.156, -72.356, -158.698, -28.593, -9.307, -10.720, 25.69, -0.03824, -0.59766, 0.1424, -0.78802,
 13:28:56.339,ed:35:33:d3:6c:f8, 2015-01-01 01:41:08.475, 0.436, -0.26, 0.852, 0.427, 0.977, -0.977, -16.859, -26.032, 171.508, -12.193, -4.427, -31.840, 27.63, 0.10745, 0.21329, -0.16214, 0.95737,
 13:28:56.339,ed:35:33:d3:6c:f8, 2015-01-01 01:41:08.475, 0.43, -0.259, 0.853, 1.221, 1.099, -0.61, -16.837, -26.016, 171.491, -12.193, -4.427, -31.840, 27.63, 0.10745, 0.21329, -0.16214, 0.95737,
 13:28:56.381,ed:40:fe:65:30:6c, 2015-01-01 01:41:13.600, 0.574, -0.199, 0.802, 0.793, 1.099, 0.183, -13.14, -35.03, -120.685, -18.400, -4.787, -7.987, 25.66, 0.43857, -0.31473, -0.05319, -0.84003,
 13:28:56.381,ed:40:fe:65:30:6c, 2015-01-01 01:41:13.600, 0.574, -0.199, 0.805, 0.793, 1.038, -0.183, -13.123, -35.008, -120.712, -18.400, -4.787, -7.987, 25.66, 0.43857, -0.31473, -0.05319, -0.84003,
 13:28:56.383,e3:ca:2d:fd:e0:8c, 2015-01-01 01:41:08.380, 0.976, -0.186, 0.247, 0.122, 0.183, 0, -36.151, -72.356, -158.725, -28.593, -9.307, -10.720, 25.69, -0.03824, -0.59766, 0.1424, -0.78802,
 13:28:56.383,e3:ca:2d:fd:e0:8c, 2015-01-01 01:41:08.380, 0.974, -0.185, 0.247, 0.122, 0, -0.061, -36.151, -72.356, -158.758, -28.593, -9.307, -10.720, 25.69, -0.03824, -0.59766, 0.1424, -0.78802,
 13:28:56.383,f6:90:cc:01:6d:25, 2015-01-01 01:41:08.690, 0.898, -0.118, 0.394, 1.16, 0.061, -0.061, -15.738, -65.676, -157.319, -28.527, -9.880, -9.760, 30.04, 0.0889, -0.54956, 0.00815, -0.8306,
 13:28:56.383,f6:90:cc:01:6d:25, 2015-01-01 01:41:08.690, 0.898, -0.117, 0.396, 1.282, 0, -0.305, -15.705, -65.676, -157.302, -28.527, -9.880, -9.760, 30.04, 0.0889, -0.54956, 0.00815, -0.8306,
 13:28:56.384,ed:35:33:d3:6c:f8, 2015-01-01 01:41:08.475, 0.428, -0.268, 0.859, 1.709, 1.404, -0.183, -16.804, -25.994, 171.48, -12.193, -4.427, -31.840, 27.63, 0.10434, 0.2113, -0.15851, 0.95877,
 13:28:56.384,ed:35:33:d3:6c:f8, 2015-01-01 01:41:08.475, 0.429, -0.271, 0.865, 1.709, 1.221, 0, -16.771, -25.966, 171.475, -12.193, -4.427, -31.840, 27.63, 0.10434, 0.2113, -0.15851, 0.95877,
 13:28:56.407,ed:35:33:d3:6c:f8, 2015-01-01 01:41:08.765, 0.424, -0.267, 0.863, 1.465, 0.427, -0.854, -16.738, -25.95, 171.475, -12.193, -4.427, -31.840, 27.63, 0.10434, 0.2113, -0.15851, 0.95877,
 13:28:56.407,ed:35:33:d3:6c:f8, 2015-01-01 01:41:08.765, 0.424, -0.26, 0.862, 1.221, -0.122, -1.526, -16.705, -25.944, 171.464, -12.193, -4.427, -31.840, 27.63, 0.10434, 0.2113, -0.15851, 0.95877,
 13:28:56.427,ed:40:fe:65:30:6c, 2015-01-01 01:41:13.600, 0.57, -0.194, 0.803, 0.793, 0.61, -0.793, -13.107, -34.991, -120.723, -18.400, -4.787, -7.987, 25.66, 0.43857, -0.31473, -0.05319, -0.84003,
 13:28:56.427,ed:40:fe:65:30:6c, 2015-01-01 01:41:13.600, 0.568, -0.192, 0.804, 0.854, 0.244, -0.916, -13.079, -34.991, -120.734, -18.400, -4.787, -7.987, 25.66, 0.43857, -0.31473, -0.05319, -0.84003,
 13:28:56.427,e3:ca:2d:fd:e0:8c, 2015-01-01 01:41:08.380, 0.973, -0.183, 0.247, 0, 0, -0.061, -36.151, -72.356, -158.78, -28.593, -9.307, -10.720, 25.69, -0.03824, -0.59766, 0.1424, -0.78802,
 13:28:56.427,e3:ca:2d:fd:e0:8c, 2015-01-01 01:41:08.380, 0.974, -0.184, 0.248, -0.061, 0, 0, -36.156, -72.356, -158.796, -28.593, -9.307, -10.720, 25.69, -0.03824, -0.59766, 0.1424, -0.78802,
 13:28:56.428,f6:90:cc:01:6d:25, 2015-01-01 01:41:08.690, 0.897, -0.112, 0.396, 0.977, -0.183, -0.305, -15.677, -65.682, -157.275, -28.527, -9.880, -9.760, 30.04, 0.0889, -0.54956, 0.00815, -0.8306,
 13:28:56.428,f6:90:cc:01:6d:25, 2015-01-01 01:41:08.690, 0.895, -0.113, 0.395, 0.549, -0.244, -0.488, -15.656, -65.682, -157.258, -28.527, -9.880, -9.760, 30.04, 0.0889, -0.54956, 0.00815, -0.8306,
 13:28:56.451,f6:90:cc:01:6d:25, 2015-01-01 01:41:08.690, 0.896, -0.116, 0.395, 0.427, -0.366, -0.671, -15.628, -65.693, -157.253, -28.527, -9.880, -9.760, 30.04, 0.0889, -0.54956, 0.00815, -0.8306,
 13:28:56.451,f6:90:cc:01:6d:25, 2015-01-01 01:41:08.690, 0.897, -0.118, 0.395, 0.61, -0.305, -0.793, -15.59, -65.698, -157.242, -28.527, -9.880, -9.760, 30.04, 0.0889, -0.54956, 0.00815, -0.8306,
 13:28:56.452,ed:35:33:d3:6c:f8, 2015-01-01 01:41:08.765, 0.428, -0.255, 0.863, 0.549, -0.488, -1.709, -16.672, -25.955, 171.447, -12.193, -4.427, -31.840, 27.63, 0.10434, 0.2113, -0.15851, 0.95877,
 13:28:56.452,ed:35:33:d3:6c:f8, 2015-01-01 01:41:08.765, 0.43, -0.252, 0.857, 0, -0.549, -1.099, -16.655, -25.966, 171.436, -12.193, -4.427, -31.840, 27.63, 0.10434, 0.2113, -0.15851, 0.95877,
 13:28:56.470,ed:40:fe:65:30:6c, 2015-01-01 01:41:13.600, 0.571, -0.188, 0.805, 0.427, -0.061, -0.732, -13.063, -34.991, -120.745, -18.400, -4.787, -7.987, 25.66, 0.43857, -0.31473, -0.05319, -0.84003,
 13:28:56.470,ed:40:fe:65:30:6c, 2015-01-01 01:41:13.600, 0.574, -0.188, 0.8, 0.183, -0.244, -0.427, -13.057, -34.991, -120.756, -18.400, -4.787, -7.987, 25.66, 0.43857, -0.31473, -0.05319, -0.84003,
 13:28:56.472,e3:ca:2d:fd:e0:8c, 2015-01-01 01:41:08.380, 0.974, -0.185, 0.248, 0, 0, 0, -36.161, -72.361, -158.807, -28.593, -9.307, -10.720, 25.69, -0.03824, -0.59766, 0.1424, -0.78802,
 13:28:56.472,e3:ca:2d:fd:e0:8c, 2015-01-01 01:41:08.380, 0.973, -0.186, 0.25, 0, -0.061, -0.122, -36.167, -72.361, -158.807, -28.593, -9.307, -10.720, 25.69, -0.03824, -0.59766, 0.1424, -0.78802,
 13:28:56.494,ed:40:fe:65:30:6c, 2015-01-01 01:41:13.600, 0.576, -0.188, 0.801, 0.305, -0.122, -0.122, -13.052, -34.997, -120.751, -18.507, -4.747, -8.327, 25.66, 0.43857, -0.31473, -0.05319, -0.84003,
 13:28:56.494,ed:40:fe:65:30:6c, 2015-01-01 01:41:13.600, 0.576, -0.184, 0.801, 0.244, 0.061, 0.061, -13.052, -34.997, -120.729, -18.507, -4.747, -8.327, 25.66, 0.43857, -0.31473, -0.05319, -0.84003,
 13:28:56.495,f6:90:cc:01:6d:25, 2015-01-01 01:41:08.690, 0.898, -0.117, 0.396, 0.671, -0.305, -0.732, -15.562, -65.704, -157.209, -28.527, -9.880, -9.760, 30.04, 0.0889, -0.54956, 0.00815, -0.8306,
 13:28:56.495,f6:90:cc:01:6d:25, 2015-01-01 01:41:08.690, 0.899, -0.114, 0.398, 0.488, -0.366, -0.671, -15.535, -65.709, -157.181, -28.527, -9.880, -9.760, 30.04, 0.0889, -0.54956, 0.00815, -0.8306,
 13:28:56.496,ed:35:33:d3:6c:f8, 2015-01-01 01:41:08.765, 0.432, -0.255, 0.857, 0.244, -0.122, -0.305, -16.65, -25.977, 171.442, -12.193, -4.427, -31.840, 27.63, 0.10434, 0.2113, -0.15851, 0.95877,
 13:28:56.496,ed:35:33:d3:6c:f8, 2015-01-01 01:41:08.765, 0.433, -0.251, 0.858, 0.244, 0.122, 0.061, -16.644, -25.972, 171.469, -12.193, -4.427, -31.840, 27.63, 0.10434, 0.2113, -0.15851, 0.95877,
 13:28:56.538,ed:40:fe:65:30:6c, 2015-01-01 01:41:13.600, 0.576, -0.185, 0.801, 0.183, 0, 0.305, -13.052, -34.991, -120.701, -18.507, -4.747, -8.327, 25.66, 0.43857, -0.31473, -0.05319, -0.84003,
 13:28:56.538,ed:40:fe:65:30:6c, 2015-01-01 01:41:13.600, 0.578, -0.188, 0.798, 0, 0.183, 0.122, -13.052, -34.991, -120.685, -18.507, -4.747, -8.327, 25.66, 0.43857, -0.31473, -0.05319, -0.84003,
 13:28:56.540,e3:ca:2d:fd:e0:8c, 2015-01-01 01:41:08.380, 0.974, -0.187, 0.25, 0, -0.122, -0.244, -36.167, -72.367, -158.791, -28.593, -9.307, -10.720, 25.69, -0.03824, -0.59766, 0.1424, -0.78802,
 13:28:56.540,e3:ca:2d:fd:e0:8c, 2015-01-01 01:41:08.380, 0.975, -0.186, 0.25, 0, -0.244, 0, -36.172, -72.367, -158.769, -28.593, -9.307, -10.720, 25.69, -0.03824, -0.59766, 0.1424, -0.78802,
 13:28:56.542,ed:35:33:d3:6c:f8, 2015-01-01 01:41:08.765, 0.432, -0.252, 0.859, 0.183, 0.183, 0.305, -16.644, -25.966, 171.497, -12.193, -4.427, -31.840, 27.63, 0.10434, 0.2113, -0.15851, 0.95877,
 13:28:56.542,ed:35:33:d3:6c:f8, 2015-01-01 01:41:08.765, 0.434, -0.257, 0.856, 0.122, 0, 0.488, -16.644, -25.955, 171.524, -12.193, -4.427, -31.840, 27.63, 0.10434, 0.2113, -0.15851, 0.95877,
 13:28:56.562,e3:ca:2d:fd:e0:8c, 2015-01-01 01:41:08.380, 0.976, -0.184, 0.249, -0.061, -0.183, 0, -36.183, -72.372, -158.763, -28.127, -8.887, -11.227, 25.69, -0.03824, -0.59766, 0.1424, -0.78802,
 13:28:56.562,e3:ca:2d:fd:e0:8c, 2015-01-01 01:41:08.380, 0.976, -0.183, 0.248, -0.122, -0.122, 0, -36.2, -72.372, -158.774, -28.127, -8.887, -11.227, 25.69, -0.03824, -0.59766, 0.1424, -0.78802,
 13:28:56.585,f6:90:cc:01:6d:25, 2015-01-01 01:41:08.690, 0.9, -0.108, 0.396, 0.122, -0.061, -0.183, -15.524, -65.709, -157.159, -28.760, -9.853, -9.420, 30.04, 0.0889, -0.54956, 0.00815, -0.8306,
 13:28:56.585,f6:90:cc:01:6d:25, 2015-01-01 01:41:08.690, 0.9, -0.108, 0.393, -0.549, 0.061, -0.122, -15.524, -65.709, -157.132, -28.760, -9.853, -9.420, 30.04, 0.0889, -0.54956, 0.00815, -0.8306,
 13:28:56.588,ed:35:33:d3:6c:f8, 2015-01-01 01:41:08.765, 0.434, -0.251, 0.856, 0.122, -0.183, 0.244, -16.644, -25.95, 171.557, -12.193, -4.427, -31.840, 27.63, 0.10434, 0.2113, -0.15851, 0.95877,
 13:28:56.588,ed:35:33:d3:6c:f8, 2015-01-01 01:41:08.765, 0.431, -0.254, 0.857, 0.366, 0, 0.061, -16.644, -25.95, 171.579, -12.193, -4.427, -31.840, 27.63, 0.10434, 0.2113, -0.15851, 0.95877,
 13:28:56.606,e3:ca:2d:fd:e0:8c, 2015-01-01 01:41:08.380, 0.976, -0.182, 0.247, -0.244, 0, 0, -36.205, -72.372, -158.78, -28.127, -8.887, -11.227, 25.69, -0.03824, -0.59766, 0.1424, -0.78802,
 13:28:56.606,e3:ca:2d:fd:e0:8c, 2015-01-01 01:41:08.380, 0.975, -0.183, 0.245, -0.305, 0, 0, -36.216, -72.372, -158.802, -28.127, -8.887, -11.227, 25.69, -0.03824, -0.59766, 0.1424, -0.78802,
 13:28:56.607,f6:90:cc:01:6d:25, 2015-01-01 01:41:08.690, 0.899, -0.11, 0.393, -0.732, 0.183, -0.122, -15.535, -65.704, -157.104, -28.760, -9.853, -9.420, 30.04, 0.09323, -0.54932, 0.00464, -0.83032,
 13:28:56.607,f6:90:cc:01:6d:25, 2015-01-01 01:41:08.690, 0.898, -0.111, 0.394, -1.038, 0.122, 0, -15.546, -65.698, -157.083, -28.760, -9.853, -9.420, 30.04, 0.09323, -0.54932, 0.00464, -0.83032,
 13:28:56.610,ed:35:33:d3:6c:f8, 2015-01-01 01:41:08.765, 0.434, -0.258, 0.857, 0.305, 0, 0.427, -16.639, -25.944, 171.601, -12.387, -4.580, -31.907, 27.63, 0.10434, 0.2113, -0.15851, 0.95877,
 13:28:56.610,ed:35:33:d3:6c:f8, 2015-01-01 01:41:08.765, 0.431, -0.257, 0.859, 0.549, 0.305, 0.488, -16.633, -25.939, 171.606, -12.387, -4.580, -31.907, 27.63, 0.10434, 0.2113, -0.15851, 0.95877,
 13:28:56.628,ed:40:fe:65:30:6c, 2015-01-01 01:41:13.600, 0.578, -0.183, 0.798, 0, 0.244, 0, -13.057, -34.986, -120.668, -18.507, -4.747, -8.327, 25.66, 0.43906, -0.3132, -0.05353, -0.84033,
 13:28:56.628,ed:40:fe:65:30:6c, 2015-01-01 01:41:13.600, 0.574, -0.188, 0.799, 0.244, 0.427, 0.305, -13.057, -34.975, -120.635, -18.507, -4.747, -8.327, 25.66, 0.43906, -0.3132, -0.05353, -0.84033,
 13:28:56.630,e3:ca:2d:fd:e0:8c, 2015-01-01 01:41:08.380, 0.975, -0.182, 0.245, -0.488, 0, 0, -36.227, -72.378, -158.807, -28.127, -8.887, -11.227, 25.69, -0.0394, -0.59772, 0.14343, -0.78772,
 13:28:56.630,e3:ca:2d:fd:e0:8c, 2015-01-01 01:41:08.380, 0.975, -0.181, 0.245, -0.488, -0.122, 0, -36.244, -72.378, -158.802, -28.127, -8.887, -11.227, 25.69, -0.0394, -0.59772, 0.14343, -0.78772,
 13:28:56.652,ed:40:fe:65:30:6c, 2015-01-01 01:41:13.955, 0.578, -0.19, 0.801, 0.183, 0.549, 0.244, -13.057, -34.964, -120.591, -18.507, -4.747, -8.327, 25.66, 0.43906, -0.3132, -0.05353, -0.84033,
 13:28:56.652,ed:40:fe:65:30:6c, 2015-01-01 01:41:13.955, 0.575, -0.188, 0.802, 0.488, 0.61, 0.183, -13.052, -34.953, -120.553, -18.507, -4.747, -8.327, 25.66, 0.43906, -0.3132, -0.05353, -0.84033,
 13:28:56.653,f6:90:cc:01:6d:25, 2015-01-01 01:41:08.690, 0.9, -0.111, 0.393, -1.526, -0.061, -0.183, -15.573, -65.693, -157.055, -28.760, -9.853, -9.420, 30.04, 0.09323, -0.54932, 0.00464, -0.83032,
 13:28:56.653,f6:90:cc:01:6d:25, 2015-01-01 01:41:08.690, 0.899, -0.108, 0.395, -1.648, -0.122, -0.305, -15.595, -65.693, -157.028, -28.760, -9.853, -9.420, 30.04, 0.09323, -0.54932, 0.00464, -0.83032,
 13:28:56.654,ed:35:33:d3:6c:f8, 2015-01-01 01:41:08.765, 0.431, -0.258, 0.862, 0.549, 0.549, 0.488, -16.628, -25.928, 171.612, -12.387, -4.580, -31.907, 27.63, 0.10434, 0.2113, -0.15851, 0.95877,
 13:28:56.654,ed:35:33:d3:6c:f8, 2015-01-01 01:41:08.765, 0.429, -0.257, 0.862, 0.183, 0.732, 0.305, -16.622, -25.911, 171.617, -12.387, -4.580, -31.907, 27.63, 0.10434, 0.2113, -0.15851, 0.95877,
 13:28:56.673,ed:40:fe:65:30:6c, 2015-01-01 01:41:13.955, 0.575, -0.189, 0.804, 0.549, 0.61, 0.122, -13.046, -34.942, -120.531, -18.507, -4.747, -8.327, 25.66, 0.43906, -0.3132, -0.05353, -0.84033,
 13:28:56.673,ed:40:fe:65:30:6c, 2015-01-01 01:41:13.955, 0.574, -0.187, 0.803, 0.305, 0.366, -0.061, -13.041, -34.937, -120.52, -18.507, -4.747, -8.327, 25.66, 0.43906, -0.3132, -0.05353, -0.84033,
 13:28:56.675,e3:ca:2d:fd:e0:8c, 2015-01-01 01:41:08.380, 0.975, -0.18, 0.245, -0.61, -0.122, 0, -36.266, -72.383, -158.791, -28.127, -8.887, -11.227, 25.69, -0.0394, -0.59772, 0.14343, -0.78772,
 13:28:56.675,e3:ca:2d:fd:e0:8c, 2015-01-01 01:41:08.380, 0.975, -0.181, 0.247, -0.671, -0.122, 0, -36.282, -72.383, -158.78, -28.127, -8.887, -11.227, 25.69, -0.0394, -0.59772, 0.14343, -0.78772,
 13:28:56.675,f6:90:cc:01:6d:25, 2015-01-01 01:41:09.045, 0.9, -0.107, 0.394, -1.526, -0.244, -0.244, -15.623, -65.693, -157.006, -28.760, -9.853, -9.420, 30.04, 0.09323, -0.54932, 0.00464, -0.83032,
 13:28:56.675,f6:90:cc:01:6d:25, 2015-01-01 01:41:09.045, 0.899, -0.108, 0.394, -1.221, -0.305, -0.183, -15.645, -65.698, -156.973, -28.760, -9.853, -9.420, 30.04, 0.09323, -0.54932, 0.00464, -0.83032,
 13:28:56.695,ed:40:fe:65:30:6c, 2015-01-01 01:41:13.955, 0.572, -0.188, 0.803, -0.061, 0.305, -0.366, -13.035, -34.931, -120.531, -18.507, -4.747, -8.327, 25.66, 0.43906, -0.3132, -0.05353, -0.84033,
 13:28:56.695,ed:40:fe:65:30:6c, 2015-01-01 01:41:13.955, 0.574, -0.185, 0.802, -0.671, 0.244, -0.488, -13.041, -34.926, -120.542, -18.507, -4.747, -8.327, 25.66, 0.43906, -0.3132, -0.05353, -0.84033,
 13:28:56.698,f6:90:cc:01:6d:25, 2015-01-01 01:41:09.045, 0.899, -0.11, 0.395, -1.038, -0.183, -0.183, -15.661, -65.704, -156.94, -28.760, -9.853, -9.420, 30.04, 0.09323, -0.54932, 0.00464, -0.83032,
 13:28:56.698,f6:90:cc:01:6d:25, 2015-01-01 01:41:09.045, 0.899, -0.112, 0.396, -1.282, -0.244, -0.244, -15.677, -65.704, -156.923, -28.760, -9.853, -9.420, 30.04, 0.09323, -0.54932, 0.00464, -0.83032,
 13:28:56.719,e3:ca:2d:fd:e0:8c, 2015-01-01 01:41:08.740, 0.976, -0.182, 0.248, -0.671, -0.122, 0, -36.304, -72.389, -158.763, -28.127, -8.887, -11.227, 25.69, -0.0394, -0.59772, 0.14343, -0.78772,
 13:28:56.719,e3:ca:2d:fd:e0:8c, 2015-01-01 01:41:08.740, 0.974, -0.183, 0.249, -0.793, -0.122, 0, -36.326, -72.394, -158.769, -28.127, -8.887, -11.227, 25.69, -0.0394, -0.59772, 0.14343, -0.78772,
 13:28:56.722,ed:35:33:d3:6c:f8, 2015-01-01 01:41:08.765, 0.427, -0.258, 0.86, -0.305, 0.732, 0.366, -16.622, -25.895, 171.617, -12.387, -4.580, -31.907, 27.63, 0.10278, 0.21103, -0.15671, 0.95929,
 13:28:56.722,ed:35:33:d3:6c:f8, 2015-01-01 01:41:08.765, 0.428, -0.253, 0.859, -0.916, 0.488, 0.183, -16.628, -25.878, 171.623, -12.387, -4.580, -31.907, 27.63, 0.10278, 0.21103, -0.15671, 0.95929,
 13:28:56.741,ed:40:fe:65:30:6c, 2015-01-01 01:41:13.955, 0.57, -0.189, 0.804, -0.488, 0.305, -0.366, -13.046, -34.926, -120.547, -18.507, -4.747, -8.327, 25.66, 0.43906, -0.3132, -0.05353, -0.84033,
 13:28:56.741,ed:40:fe:65:30:6c, 2015-01-01 01:41:13.955, 0.569, -0.196, 0.806, -0.671, 0.244, -0.427, -13.052, -34.92, -120.553, -18.507, -4.747, -8.327, 25.66, 0.43906, -0.3132, -0.05353, -0.84033,
 13:28:56.742,e3:ca:2d:fd:e0:8c, 2015-01-01 01:41:08.740, 0.974, -0.186, 0.249, -0.732, -0.061, -0.305, -36.337, -72.4, -158.774, -28.127, -8.887, -11.227, 25.69, -0.0394, -0.59772, 0.14343, -0.78772,
 13:28:56.742,e3:ca:2d:fd:e0:8c, 2015-01-01 01:41:08.740, 0.975, -0.185, 0.248, -0.671, -0.183, -0.366, -36.337, -72.405, -158.774, -28.127, -8.887, -11.227, 25.69, -0.0394, -0.59772, 0.14343, -0.78772,
 13:28:56.743,f6:90:cc:01:6d:25, 2015-01-01 01:41:09.045, 0.897, -0.116, 0.396, -1.282, -0.183, -0.305, -15.694, -65.709, -156.907, -28.760, -9.853, -9.420, 30.04, 0.09323, -0.54932, 0.00464, -0.83032,
 13:28:56.743,f6:90:cc:01:6d:25, 2015-01-01 01:41:09.045, 0.897, -0.115, 0.397, -0.793, 0, -0.244, -15.705, -65.709, -156.879, -28.760, -9.853, -9.420, 30.04, 0.09323, -0.54932, 0.00464, -0.83032,
 13:28:56.745,ed:35:33:d3:6c:f8, 2015-01-01 01:41:09.080, 0.425, -0.256, 0.862, -0.732, 0.183, 0.061, -16.65, -25.867, 171.628, -12.387, -4.580, -31.907, 27.63, 0.10278, 0.21103, -0.15671, 0.95929,
 13:28:56.745,ed:35:33:d3:6c:f8, 2015-01-01 01:41:09.080, 0.423, -0.264, 0.866, -1.038, -0.122, 0.61, -16.666, -25.862, 171.623, -12.387, -4.580, -31.907, 27.63, 0.10278, 0.21103, -0.15671, 0.95929,
 13:28:56.786,ed:40:fe:65:30:6c, 2015-01-01 01:41:13.955, 0.57, -0.187, 0.805, -1.282, -0.244, -0.549, -13.074, -34.92, -120.58, -18.507, -4.747, -8.327, 25.66, 0.43906, -0.3132, -0.05353, -0.84033,
 13:28:56.786,ed:40:fe:65:30:6c, 2015-01-01 01:41:13.955, 0.575, -0.187, 0.803, -1.587, -0.61, -0.488, -13.101, -34.931, -120.602, -18.507, -4.747, -8.327, 25.66, 0.43906, -0.3132, -0.05353, -0.84033,
 13:28:56.787,e3:ca:2d:fd:e0:8c, 2015-01-01 01:41:08.740, 0.974, -0.185, 0.248, -0.61, -0.488, -0.305, -36.348, -72.416, -158.758, -28.127, -8.887, -11.227, 25.69, -0.0394, -0.59772, 0.14343, -0.78772,
 13:28:56.787,e3:ca:2d:fd:e0:8c, 2015-01-01 01:41:08.740, 0.975, -0.185, 0.247, -0.732, -0.488, -0.366, -36.37, -72.427, -158.747, -28.127, -8.887, -11.227, 25.69, -0.0394, -0.59772, 0.14343, -0.78772,
 13:28:56.788,f6:90:cc:01:6d:25, 2015-01-01 01:41:09.045, 0.897, -0.114, 0.396, -0.549, -0.061, -0.305, -15.71, -65.709, -156.83, -28.760, -9.853, -9.420, 30.04, 0.09323, -0.54932, 0.00464, -0.83032,
 13:28:56.788,f6:90:cc:01:6d:25, 2015-01-01 01:41:09.045, 0.898, -0.114, 0.395, -0.671, -0.183, -0.244, -15.716, -65.709, -156.797, -28.760, -9.853, -9.420, 30.04, 0.09323, -0.54932, 0.00464, -0.83032,
 13:28:56.788,ed:35:33:d3:6c:f8, 2015-01-01 01:41:09.080, 0.425, -0.256, 0.864, -1.953, -0.488, 0.671, -16.694, -25.856, 171.634, -12.387, -4.580, -31.907, 27.63, 0.10278, 0.21103, -0.15671, 0.95929,
 13:28:56.788,ed:35:33:d3:6c:f8, 2015-01-01 01:41:09.080, 0.43, -0.257, 0.859, -2.319, -0.61, 0, -16.743, -25.856, 171.656, -12.387, -4.580, -31.907, 27.63, 0.10278, 0.21103, -0.15671, 0.95929,
 13:28:56.811,f6:90:cc:01:6d:25, 2015-01-01 01:41:09.045, 0.897, -0.115, 0.394, -1.038, -0.183, -0.305, -15.727, -65.709, -156.78, -28.760, -9.853, -9.420, 30.04, 0.09323, -0.54932, 0.00464, -0.83032,
 13:28:56.811,f6:90:cc:01:6d:25, 2015-01-01 01:41:09.045, 0.898, -0.115, 0.394, -1.221, -0.122, -0.244, -15.738, -65.709, -156.775, -28.760, -9.853, -9.420, 30.04, 0.09323, -0.54932, 0.00464, -0.83032,
 13:28:56.812,ed:35:33:d3:6c:f8, 2015-01-01 01:41:09.080, 0.43, -0.265, 0.856, -2.136, -0.549, 0, -16.787, -25.867, 171.656, -12.387, -4.580, -31.907, 27.63, 0.10278, 0.21103, -0.15671, 0.95929,
 13:28:56.812,ed:35:33:d3:6c:f8, 2015-01-01 01:41:09.080, 0.431, -0.263, 0.852, -1.343, -0.671, 0.061, -16.826, -25.873, 171.667, -12.387, -4.580, -31.907, 27.63, 0.10278, 0.21103, -0.15671, 0.95929,
 13:28:56.830,ed:40:fe:65:30:6c, 2015-01-01 01:41:13.955, 0.575, -0.195, 0.799, -1.404, -0.61, -0.549, -13.123, -34.942, -120.619, -18.507, -4.747, -8.327, 25.66, 0.43906, -0.3132, -0.05353, -0.84033,
 13:28:56.830,ed:40:fe:65:30:6c, 2015-01-01 01:41:13.955, 0.575, -0.193, 0.796, -0.854, -0.427, -0.549, -13.14, -34.953, -120.63, -18.507, -4.747, -8.327, 25.66, 0.43906, -0.3132, -0.05353, -0.84033,
 13:28:56.853,ed:40:fe:65:30:6c, 2015-01-01 01:41:13.955, 0.578, -0.191, 0.795, -0.244, -0.183, -0.488, -13.145, -34.958, -120.641, -17.953, -4.780, -7.747, 25.66, 0.43906, -0.3132, -0.05353, -0.84033,
 13:28:56.853,ed:40:fe:65:30:6c, 2015-01-01 01:41:13.955, 0.577, -0.192, 0.795, 0.061, 0, -0.244, -13.145, -34.964, -120.652, -17.953, -4.780, -7.747, 25.66, 0.43906, -0.3132, -0.05353, -0.84033,
 13:28:56.855,e3:ca:2d:fd:e0:8c, 2015-01-01 01:41:08.740, 0.975, -0.186, 0.247, -0.671, -0.488, -0.366, -36.387, -72.438, -158.741, -28.127, -8.887, -11.227, 25.69, -0.0394, -0.59772, 0.14343, -0.78772,
 13:28:56.855,e3:ca:2d:fd:e0:8c, 2015-01-01 01:41:08.740, 0.974, -0.186, 0.246, -0.549, -0.549, -0.366, -36.403, -72.449, -158.736, -28.127, -8.887, -11.227, 25.69, -0.0394, -0.59772, 0.14343, -0.78772,
 13:28:56.857,ed:35:33:d3:6c:f8, 2015-01-01 01:41:09.080, 0.433, -0.261, 0.851, -0.671, -0.488, 0, -16.853, -25.878, 171.683, -12.387, -4.580, -31.907, 27.63, 0.10278, 0.21103, -0.15671, 0.95929,
 13:28:56.857,ed:35:33:d3:6c:f8, 2015-01-01 01:41:09.080, 0.432, -0.262, 0.851, -0.366, 0, 0.061, -16.864, -25.884, 171.705, -12.387, -4.580, -31.907, 27.63, 0.10278, 0.21103, -0.15671, 0.95929,
 13:28:56.878,f6:90:cc:01:6d:25, 2015-01-01 01:41:09.045, 0.899, -0.115, 0.393, -1.221, -0.061, -0.244, -15.76, -65.709, -156.775, -28.760, -9.853, -9.420, 30.04, 0.09323, -0.54932, 0.00464, -0.83032,
 13:28:56.878,f6:90:cc:01:6d:25, 2015-01-01 01:41:09.045, 0.9, -0.116, 0.393, -1.099, 0, -0.244, -15.776, -65.709, -156.758, -28.760, -9.853, -9.420, 30.04, 0.09323, -0.54932, 0.00464, -0.83032,
 13:28:56.898,ed:40:fe:65:30:6c, 2015-01-01 01:41:13.955, 0.578, -0.19, 0.796, 0.122, 0.183, -0.061, -13.145, -34.958, -120.657, -17.953, -4.780, -7.747, 25.66, 0.43906, -0.3132, -0.05353, -0.84033,
 13:28:56.898,ed:40:fe:65:30:6c, 2015-01-01 01:41:13.955, 0.581, -0.186, 0.797, 0.122, 0.488, 0, -13.145, -34.953, -120.657, -17.953, -4.780, -7.747, 25.66, 0.43906, -0.3132, -0.05353, -0.84033,
 13:28:56.900,e3:ca:2d:fd:e0:8c, 2015-01-01 01:41:08.740, 0.975, -0.185, 0.246, -0.427, -0.549, -0.366, -36.42, -72.466, -158.725, -28.127, -8.887, -11.227, 25.69, -0.0394, -0.59772, 0.14343, -0.78772,
 13:28:56.900,e3:ca:2d:fd:e0:8c, 2015-01-01 01:41:08.740, 0.977, -0.184, 0.246, -0.305, -0.488, -0.244, -36.431, -72.477, -158.725, -28.127, -8.887, -11.227, 25.69, -0.0394, -0.59772, 0.14343, -0.78772,
 13:28:56.900,f6:90:cc:01:6d:25, 2015-01-01 01:41:09.045, 0.901, -0.114, 0.393, -0.793, 0.061, -0.305, -15.787, -65.709, -156.736, -28.827, -10.280, -9.640, 30.04, 0.09323, -0.54932, 0.00464, -0.83032,
 13:28:56.900,f6:90:cc:01:6d:25, 2015-01-01 01:41:09.045, 0.904, -0.11, 0.393, -0.671, 0.244, -0.305, -15.793, -65.704, -156.725, -28.827, -10.280, -9.640, 30.04, 0.09323, -0.54932, 0.00464, -0.83032,
 13:28:56.901,ed:35:33:d3:6c:f8, 2015-01-01 01:41:09.080, 0.434, -0.26, 0.852, -0.122, 0.427, 0, -16.875, -25.878, 171.727, -12.387, -4.580, -31.907, 27.63, 0.10278, 0.21103, -0.15671, 0.95929,
 13:28:56.901,ed:35:33:d3:6c:f8, 2015-01-01 01:41:09.080, 0.436, -0.256, 0.854, -0.122, 0.793, 0, -16.875, -25.867, 171.755, -12.387, -4.580, -31.907, 27.63, 0.10278, 0.21103, -0.15671, 0.95929,
 13:28:56.922,e3:ca:2d:fd:e0:8c, 2015-01-01 01:41:08.740, 0.976, -0.182, 0.245, -0.122, -0.427, -0.183, -36.447, -72.488, -158.73, -27.693, -9.133, -11.020, 25.69, -0.0394, -0.59772, 0.14343, -0.78772,
 13:28:56.922,e3:ca:2d:fd:e0:8c, 2015-01-01 01:41:08.740, 0.979, -0.181, 0.245, -0.061, -0.366, -0.183, -36.458, -72.493, -158.719, -27.693, -9.133, -11.020, 25.69, -0.0394, -0.59772, 0.14343, -0.78772,
 13:28:56.945,f6:90:cc:01:6d:25, 2015-01-01 01:41:09.045, 0.902, -0.109, 0.391, -0.549, 0.305, -0.183, -15.798, -65.698, -156.714, -28.827, -10.280, -9.640, 30.04, 0.09323, -0.54932, 0.00464, -0.83032,
 13:28:56.945,f6:90:cc:01:6d:25, 2015-01-01 01:41:09.045, 0.899, -0.11, 0.392, -0.488, 0.427, -0.305, -15.793, -65.687, -156.725, -28.827, -10.280, -9.640, 30.04, 0.09323, -0.54932, 0.00464, -0.83032,
 13:28:56.947,ed:35:33:d3:6c:f8, 2015-01-01 01:41:09.080, 0.437, -0.259, 0.858, 0.61, 1.038, -0.427, -16.87, -25.845, 171.76, -12.367, -4.467, -32.173, 27.63, 0.10278, 0.21103, -0.15671, 0.95929,
 13:28:56.947,ed:35:33:d3:6c:f8, 2015-01-01 01:41:09.080, 0.431, -0.268, 0.854, 1.221, 0.854, -0.122, -16.848, -25.829, 171.749, -12.367, -4.467, -32.173, 27.63, 0.10278, 0.21103, -0.15671, 0.95929,
 13:28:56.965,ed:40:fe:65:30:6c, 2015-01-01 01:41:13.955, 0.582, -0.187, 0.8, 0.793, 0.671, 0, -13.134, -34.942, -120.652, -17.953, -4.780, -7.747, 25.66, 0.43915, -0.31329, -0.05283, -0.8403,
 13:28:56.965,ed:40:fe:65:30:6c, 2015-01-01 01:41:13.955, 0.577, -0.196, 0.795, 1.282, 0.916, 0, -13.107, -34.926, -120.641, -17.953, -4.780, -7.747, 25.66, 0.43915, -0.31329, -0.05283, -0.8403,
 13:28:56.970,ed:35:33:d3:6c:f8, 2015-01-01 01:41:09.080, 0.427, -0.262, 0.859, 1.587, 0.61, 0.183, -16.82, -25.812, 171.738, -12.367, -4.467, -32.173, 27.63, 0.10199, 0.21011, -0.15805, 0.95935,
 13:28:56.970,ed:35:33:d3:6c:f8, 2015-01-01 01:41:09.080, 0.431, -0.251, 0.861, 0.671, 1.038, -0.305, -16.793, -25.801, 171.738, -12.367, -4.467, -32.173, 27.63, 0.10199, 0.21011, -0.15805, 0.95935,
 13:28:56.989,e3:ca:2d:fd:e0:8c, 2015-01-01 01:41:08.740, 0.981, -0.18, 0.243, -0.122, -0.244, -0.183, -36.464, -72.499, -158.698, -27.693, -9.133, -11.020, 25.69, -0.0394, -0.59772, 0.14343, -0.78772,
 13:28:56.989,e3:ca:2d:fd:e0:8c, 2015-01-01 01:41:08.740, 0.976, -0.18, 0.243, -0.061, 0, -0.061, -36.469, -72.504, -158.681, -27.693, -9.133, -11.020, 25.69, -0.0394, -0.59772, 0.14343, -0.78772,
 13:28:56.989,ed:40:fe:65:30:6c, 2015-01-01 01:41:14.315, 0.572, -0.191, 0.801, 1.77, 0.732, -0.244, -13.074, -34.915, -120.635, -17.953, -4.780, -7.747, 25.66, 0.43915, -0.31329, -0.05283, -0.8403,
 13:28:56.989,ed:40:fe:65:30:6c, 2015-01-01 01:41:14.315, 0.578, -0.18, 0.804, 0.977, 0.488, -0.427, -13.046, -34.909, -120.646, -17.953, -4.780, -7.747, 25.66, 0.43915, -0.31329, -0.05283, -0.8403,
 13:28:57.012,e3:ca:2d:fd:e0:8c, 2015-01-01 01:41:08.740, 0.976, -0.181, 0.243, -0.061, -0.122, -0.061, -36.469, -72.51, -158.665, -27.693, -9.133, -11.020, 25.69, -0.04013, -0.59863, 0.14404, -0.78687,
 13:28:57.012,e3:ca:2d:fd:e0:8c, 2015-01-01 01:41:08.740, 0.98, -0.182, 0.241, -0.061, -0.061, 0, -36.475, -72.515, -158.659, -27.693, -9.133, -11.020, 25.69, -0.04013, -0.59863, 0.14404, -0.78687,
 13:28:57.014,f6:90:cc:01:6d:25, 2015-01-01 01:41:09.045, 0.898, -0.111, 0.393, -0.61, 0.549, -0.488, -15.782, -65.682, -156.742, -28.827, -10.280, -9.640, 30.04, 0.09485, -0.54947, 0.00467, -0.83005,
 13:28:57.014,f6:90:cc:01:6d:25, 2015-01-01 01:41:09.045, 0.903, -0.111, 0.392, -0.61, 0.366, -0.488, -15.771, -65.676, -156.758, -28.827, -10.280, -9.640, 30.04, 0.09485, -0.54947, 0.00467, -0.83005,
 13:28:57.015,ed:35:33:d3:6c:f8, 2015-01-01 01:41:09.080, 0.429, -0.253, 0.864, 0.305, 0.671, -0.549, -16.776, -25.785, 171.738, -12.367, -4.467, -32.173, 27.63, 0.10199, 0.21011, -0.15805, 0.95935,
 13:28:57.015,ed:35:33:d3:6c:f8, 2015-01-01 01:41:09.080, 0.429, -0.261, 0.868, 0, -0.122, -0.488, -16.765, -25.779, 171.744, -12.367, -4.467, -32.173, 27.63, 0.10199, 0.21011, -0.15805, 0.95935,
 13:28:57.033,ed:40:fe:65:30:6c, 2015-01-01 01:41:14.315, 0.577, -0.182, 0.804, 0.671, 0.427, -0.366, -13.03, -34.904, -120.657, -17.953, -4.780, -7.747, 25.66, 0.43915, -0.31329, -0.05283, -0.8403,
 13:28:57.033,ed:40:fe:65:30:6c, 2015-01-01 01:41:14.315, 0.572, -0.187, 0.808, 0.427, 0.122, -0.183, -13.019, -34.904, -120.657, -17.953, -4.780, -7.747, 25.66, 0.43915, -0.31329, -0.05283, -0.8403,
 13:28:57.035,f6:90:cc:01:6d:25, 2015-01-01 01:41:09.405, 0.902, -0.111, 0.39, -0.122, 0.244, -0.366, -15.76, -65.671, -156.78, -28.827, -10.280, -9.640, 30.04, 0.09485, -0.54947, 0.00467, -0.83005,
 13:28:57.035,f6:90:cc:01:6d:25, 2015-01-01 01:41:09.405, 0.898, -0.113, 0.386, 0.488, 0.366, -0.122, -15.743, -65.665, -156.802, -28.827, -10.280, -9.640, 30.04, 0.09485, -0.54947, 0.00467, -0.83005,
 13:28:57.057,ed:40:fe:65:30:6c, 2015-01-01 01:41:14.315, 0.573, -0.194, 0.805, 1.038, -0.244, -0.61, -12.997, -34.909, -120.663, -17.953, -4.780, -7.747, 25.66, 0.43915, -0.31329, -0.05283, -0.8403,
 13:28:57.057,ed:40:fe:65:30:6c, 2015-01-01 01:41:14.315, 0.574, -0.192, 0.806, 1.526, -0.549, -1.099, -12.958, -34.92, -120.679, -17.953, -4.780, -7.747, 25.66, 0.43915, -0.31329, -0.05283, -0.8403,
 13:28:57.058,f6:90:cc:01:6d:25, 2015-01-01 01:41:09.405, 0.899, -0.11, 0.396, 0.061, 0.122, 0, -15.732, -65.66, -156.802, -28.827, -10.280, -9.640, 30.04, 0.09485, -0.54947, 0.00467, -0.83005,
 13:28:57.058,f6:90:cc:01:6d:25, 2015-01-01 01:41:09.405, 0.899, -0.111, 0.397, -0.61, -0.488, 0, -15.743, -65.665, -156.786, -28.827, -10.280, -9.640, 30.04, 0.09485, -0.54947, 0.00467, -0.83005,
 13:28:57.060,ed:35:33:d3:6c:f8, 2015-01-01 01:41:09.370, 0.429, -0.267, 0.865, 0.244, -1.526, -0.488, -16.765, -25.785, 171.755, -12.367, -4.467, -32.173, 27.63, 0.10199, 0.21011, -0.15805, 0.95935,
 13:28:57.060,ed:35:33:d3:6c:f8, 2015-01-01 01:41:09.370, 0.429, -0.265, 0.865, 0.244, -1.892, -0.244, -16.76, -25.818, 171.771, -12.367, -4.467, -32.173, 27.63, 0.10199, 0.21011, -0.15805, 0.95935,
 13:28:57.080,e3:ca:2d:fd:e0:8c, 2015-01-01 01:41:08.740, 0.976, -0.184, 0.243, 0, 0.061, -0.061, -36.48, -72.515, -158.659, -27.693, -9.133, -11.020, 25.69, -0.04013, -0.59863, 0.14404, -0.78687,
 13:28:57.080,e3:ca:2d:fd:e0:8c, 2015-01-01 01:41:08.740, 0.977, -0.185, 0.241, 0, 0.488, -0.122, -36.469, -72.515, -158.676, -27.693, -9.133, -11.020, 25.69, -0.04013, -0.59863, 0.14404, -0.78687,
 13:28:57.102,e3:ca:2d:fd:e0:8c, 2015-01-01 01:41:09.120, 0.977, -0.185, 0.238, 0, 0.488, 0, -36.453, -72.51, -158.687, -27.693, -9.133, -11.020, 25.69, -0.04013, -0.59863, 0.14404, -0.78687,
 13:28:57.102,e3:ca:2d:fd:e0:8c, 2015-01-01 01:41:09.120, 0.975, -0.186, 0.24, 0.305, 0.732, 0.061, -36.436, -72.499, -158.698, -27.693, -9.133, -11.020, 25.69, -0.04013, -0.59863, 0.14404, -0.78687,
 13:28:57.102,ed:40:fe:65:30:6c, 2015-01-01 01:41:14.315, 0.58, -0.184, 0.808, 0.854, -1.099, -1.404, -12.925, -34.948, -120.712, -17.953, -4.780, -7.747, 25.66, 0.43915, -0.31329, -0.05283, -0.8403,
 13:28:57.102,ed:40:fe:65:30:6c, 2015-01-01 01:41:14.315, 0.586, -0.185, 0.804, 0.183, -1.16, -0.977, -12.914, -34.969, -120.734, -17.953, -4.780, -7.747, 25.66, 0.43915, -0.31329, -0.05283, -0.8403,
 13:28:57.103,f6:90:cc:01:6d:25, 2015-01-01 01:41:09.405, 0.903, -0.112, 0.394, -0.916, -0.732, 0, -15.765, -65.676, -156.758, -28.827, -10.280, -9.640, 30.04, 0.09485, -0.54947, 0.00467, -0.83005,
 13:28:57.103,f6:90:cc:01:6d:25, 2015-01-01 01:41:09.405, 0.904, -0.115, 0.395, -0.488, -0.61, -0.061, -15.787, -65.687, -156.725, -28.827, -10.280, -9.640, 30.04, 0.09485, -0.54947, 0.00467, -0.83005,
 13:28:57.105,ed:35:33:d3:6c:f8, 2015-01-01 01:41:09.370, 0.434, -0.255, 0.864, -0.549, -1.282, -0.61, -16.76, -25.851, 171.782, -12.367, -4.467, -32.173, 27.63, 0.10199, 0.21011, -0.15805, 0.95935,
 13:28:57.105,ed:35:33:d3:6c:f8, 2015-01-01 01:41:09.370, 0.439, -0.256, 0.858, -1.282, -0.671, -0.671, -16.776, -25.867, 171.777, -12.367, -4.467, -32.173, 27.63, 0.10199, 0.21011, -0.15805, 0.95935,
 13:28:57.125,e3:ca:2d:fd:e0:8c, 2015-01-01 01:41:09.120, 0.977, -0.182, 0.244, 0.427, 0.61, 0.122, -36.414, -72.493, -158.703, -27.693, -9.133, -11.020, 25.69, -0.04013, -0.59863, 0.14404, -0.78687,
 13:28:57.125,e3:ca:2d:fd:e0:8c, 2015-01-01 01:41:09.120, 0.975, -0.182, 0.246, 0.122, 0.366, 0.061, -36.403, -72.488, -158.708, -27.693, -9.133, -11.020, 25.69, -0.04013, -0.59863, 0.14404, -0.78687,
 13:28:57.147,e3:ca:2d:fd:e0:8c, 2015-01-01 01:41:09.120, 0.974, -0.185, 0.245, 0, 0.305, 0, -36.403, -72.482, -158.703, -27.693, -9.133, -11.020, 25.69, -0.04013, -0.59863, 0.14404, -0.78687,
 13:28:57.147,e3:ca:2d:fd:e0:8c, 2015-01-01 01:41:09.120, 0.975, -0.186, 0.245, 0, 0.183, -0.122, -36.398, -72.482, -158.703, -27.693, -9.133, -11.020, 25.69, -0.04013, -0.59863, 0.14404, -0.78687,
 13:28:57.150,ed:35:33:d3:6c:f8, 2015-01-01 01:41:09.370, 0.432, -0.263, 0.85, -0.61, -0.427, -0.305, -16.793, -25.878, 171.782, -12.367, -4.467, -32.173, 27.63, 0.10199, 0.21011, -0.15805, 0.95935,
 13:28:57.150,ed:35:33:d3:6c:f8, 2015-01-01 01:41:09.370, 0.429, -0.266, 0.848, -0.061, -0.488, 0.61, -16.804, -25.884, 171.799, -12.367, -4.467, -32.173, 27.63, 0.10199, 0.21011, -0.15805, 0.95935,
 13:28:57.168,ed:40:fe:65:30:6c, 2015-01-01 01:41:14.315, 0.577, -0.191, 0.794, 0.732, -0.61, -0.244, -12.898, -34.986, -120.734, -17.953, -4.780, -7.747, 25.66, 0.43915, -0.31329, -0.05283, -0.8403,
 13:28:57.168,ed:40:fe:65:30:6c, 2015-01-01 01:41:14.315, 0.572, -0.194, 0.792, 1.099, -0.244, 0.061, -12.887, -34.997, -120.74, -17.953, -4.780, -7.747, 25.66, 0.43915, -0.31329, -0.05283, -0.8403,
 13:28:57.170,f6:90:cc:01:6d:25, 2015-01-01 01:41:09.405, 0.897, -0.121, 0.392, 0, -0.305, -0.122, -15.798, -65.693, -156.693, -28.827, -10.280, -9.640, 30.04, 0.09485, -0.54947, 0.00467, -0.83005,
 13:28:57.170,f6:90:cc:01:6d:25, 2015-01-01 01:41:09.405, 0.896, -0.12, 0.391, 0.61, -0.183, -0.244, -15.793, -65.698, -156.654, -28.827, -10.280, -9.640, 30.04, 0.09485, -0.54947, 0.00467, -0.83005,
 13:28:57.171,ed:35:33:d3:6c:f8, 2015-01-01 01:41:09.370, 0.438, -0.257, 0.847, -0.793, -0.183, 1.099, -16.826, -25.884, 171.837, -12.367, -4.467, -32.173, 27.63, 0.10199, 0.21011, -0.15805, 0.95935,
 13:28:57.171,ed:35:33:d3:6c:f8, 2015-01-01 01:41:09.370, 0.438, -0.252, 0.847, -0.916, 0.427, 0.061, -16.848, -25.878, 171.848, -12.367, -4.467, -32.173, 27.63, 0.10199, 0.21011, -0.15805, 0.95935,
 13:28:57.190,ed:40:fe:65:30:6c, 2015-01-01 01:41:14.315, 0.582, -0.184, 0.794, -0.061, 0.122, -0.122, -12.887, -34.997, -120.756, -17.953, -5.120, -8.113, 25.66, 0.43915, -0.31329, -0.05283, -0.8403,
 13:28:57.190,ed:40:fe:65:30:6c, 2015-01-01 01:41:14.315, 0.584, -0.177, 0.792, -0.977, 0.671, 0, -12.903, -34.986, -120.789, -17.953, -5.120, -8.113, 25.66, 0.43915, -0.31329, -0.05283, -0.8403,
 13:28:57.191,e3:ca:2d:fd:e0:8c, 2015-01-01 01:41:09.120, 0.977, -0.183, 0.249, 0.061, -0.427, -0.061, -36.409, -72.488, -158.687, -27.693, -9.133, -11.020, 25.69, -0.04013, -0.59863, 0.14404, -0.78687,
 13:28:57.191,e3:ca:2d:fd:e0:8c, 2015-01-01 01:41:09.120, 0.979, -0.182, 0.25, 0, 0, -0.183, -36.409, -72.493, -158.676, -27.693, -9.133, -11.020, 25.69, -0.04013, -0.59863, 0.14404, -0.78687,
 13:28:57.194,f6:90:cc:01:6d:25, 2015-01-01 01:41:09.405, 0.903, -0.111, 0.394, 1.282, -0.244, -0.122, -15.776, -65.698, -156.616, -28.827, -10.280, -9.640, 30.04, 0.09485, -0.54947, 0.00467, -0.83005,
 13:28:57.194,f6:90:cc:01:6d:25, 2015-01-01 01:41:09.405, 0.905, -0.111, 0.39, 0.977, 0.183, -0.061, -15.754, -65.698, -156.583, -28.827, -10.280, -9.640, 30.04, 0.09485, -0.54947, 0.00467, -0.83005,
 13:28:57.217,ed:35:33:d3:6c:f8, 2015-01-01 01:41:09.370, 0.427, -0.266, 0.851, -0.854, 0.122, 0.305, -16.864, -25.873, 171.848, -12.367, -4.467, -32.173, 27.63, 0.10199, 0.21011, -0.15805, 0.95935,
 13:28:57.217,ed:35:33:d3:6c:f8, 2015-01-01 01:41:09.370, 0.42, -0.262, 0.858, -1.526, -0.122, 1.099, -16.897, -25.867, 171.876, -12.367, -4.467, -32.173, 27.63, 0.10199, 0.21011, -0.15805, 0.95935,
 13:28:57.235,ed:40:fe:65:30:6c, 2015-01-01 01:41:14.315, 0.571, -0.192, 0.792, -0.916, 0.916, 0.61, -12.925, -34.969, -120.811, -17.953, -5.120, -8.113, 25.66, 0.43915, -0.31329, -0.05283, -0.8403,
 13:28:57.235,ed:40:fe:65:30:6c, 2015-01-01 01:41:14.315, 0.564, -0.188, 0.801, -1.831, 0.671, 0.366, -12.964, -34.958, -120.833, -17.953, -5.120, -8.113, 25.66, 0.43915, -0.31329, -0.05283, -0.8403,
 13:28:57.237,e3:ca:2d:fd:e0:8c, 2015-01-01 01:41:09.120, 0.977, -0.184, 0.247, -0.122, 0.549, -0.122, -36.392, -72.488, -158.687, -27.693, -9.133, -11.020, 25.69, -0.04013, -0.59863, 0.14404, -0.78687,
 13:28:57.237,e3:ca:2d:fd:e0:8c, 2015-01-01 01:41:09.120, 0.974, -0.185, 0.248, -0.061, 0.854, -0.244, -36.359, -72.482, -158.714, -27.693, -9.133, -11.020, 25.69, -0.04013, -0.59863, 0.14404, -0.78687,
 13:28:57.239,f6:90:cc:01:6d:25, 2015-01-01 01:41:09.405, 0.897, -0.117, 0.387, 0.305, 1.099, -0.549, -15.727, -65.687, -156.561, -28.827, -10.280, -9.640, 30.04, 0.09485, -0.54947, 0.00467, -0.83005,
 13:28:57.239,f6:90:cc:01:6d:25, 2015-01-01 01:41:09.405, 0.895, -0.113, 0.394, 0.061, 1.282, -0.732, -15.688, -65.671, -156.577, -28.827, -10.280, -9.640, 30.04, 0.09485, -0.54947, 0.00467, -0.83005,
 13:28:57.259,ed:40:fe:65:30:6c, 2015-01-01 01:41:14.315, 0.571, -0.179, 0.809, -2.38, 0.244, -0.305, -13.008, -34.953, -120.844, -17.953, -5.120, -8.113, 25.66, 0.43829, -0.31271, -0.05353, -0.84091,
 13:28:57.259,ed:40:fe:65:30:6c, 2015-01-01 01:41:14.315, 0.574, -0.191, 0.802, -1.16, 0.793, -0.183, -13.035, -34.942, -120.855, -17.953, -5.120, -8.113, 25.66, 0.43829, -0.31271, -0.05353, -0.84091,
 13:28:57.262,f6:90:cc:01:6d:25, 2015-01-01 01:41:09.405, 0.894, -0.109, 0.401, -0.61, 1.16, -0.549, -15.661, -65.649, -156.599, -28.673, -10.060, -9.860, 30.04, 0.09485, -0.54947, 0.00467, -0.83005,
 13:28:57.262,f6:90:cc:01:6d:25, 2015-01-01 01:41:09.405, 0.895, -0.113, 0.4, -1.038, 1.099, -0.427, -15.645, -65.627, -156.605, -28.673, -10.060, -9.860, 30.04, 0.09485, -0.54947, 0.00467, -0.83005,
 13:28:57.262,ed:35:33:d3:6c:f8, 2015-01-01 01:41:09.370, 0.425, -0.254, 0.864, -2.136, -0.244, 0.61, -16.941, -25.867, 171.909, -12.420, -4.620, -32.113, 27.63, 0.10199, 0.21011, -0.15805, 0.95935,
 13:28:57.262,ed:35:33:d3:6c:f8, 2015-01-01 01:41:09.370, 0.427, -0.266, 0.855, -1.038, -0.305, 0, -16.979, -25.867, 171.942, -12.420, -4.620, -32.113, 27.63, 0.10199, 0.21011, -0.15805, 0.95935,
 13:28:57.304,e3:ca:2d:fd:e0:8c, 2015-01-01 01:41:09.120, 0.972, -0.182, 0.25, 0, 0.61, -0.305, -36.326, -72.471, -158.747, -27.693, -9.133, -11.020, 25.69, -0.04013, -0.59863, 0.14404, -0.78687,
 13:28:57.304,e3:ca:2d:fd:e0:8c, 2015-01-01 01:41:09.120, 0.972, -0.182, 0.251, -0.061, 0.244, -0.305, -36.299, -72.471, -158.763, -27.693, -9.133, -11.020, 25.69, -0.04013, -0.59863, 0.14404, -0.78687,
 13:28:57.304,ed:40:fe:65:30:6c, 2015-01-01 01:41:14.315, 0.568, -0.205, 0.797, 0.488, 1.282, 0.183, -13.03, -34.915, -120.85, -17.953, -5.120, -8.113, 25.66, 0.43829, -0.31271, -0.05353, -0.84091,
 13:28:57.304,ed:40:fe:65:30:6c, 2015-01-01 01:41:14.315, 0.564, -0.191, 0.805, 0.977, 1.099, 0.488, -13.013, -34.893, -120.839, -17.953, -5.120, -8.113, 25.66, 0.43829, -0.31271, -0.05353, -0.84091,
 13:28:57.306,f6:90:cc:01:6d:25, 2015-01-01 01:41:09.405, 0.894, -0.12, 0.398, -0.977, 1.038, -0.977, -15.623, -65.61, -156.638, -28.673, -10.060, -9.860, 30.04, 0.09485, -0.54947, 0.00467, -0.83005,
 13:28:57.306,f6:90:cc:01:6d:25, 2015-01-01 01:41:09.405, 0.894, -0.117, 0.397, 0, 1.099, -1.282, -15.573, -65.594, -156.698, -28.673, -10.060, -9.860, 30.04, 0.09485, -0.54947, 0.00467, -0.83005,
 13:28:57.307,ed:35:33:d3:6c:f8, 2015-01-01 01:41:09.370, 0.423, -0.273, 0.852, 0.549, -0.916, 1.16, -16.99, -25.873, 171.98, -12.420, -4.620, -32.113, 27.63, 0.10046, 0.21078, -0.15912, 0.9592,
 13:28:57.307,ed:35:33:d3:6c:f8, 2015-01-01 01:41:09.370, 0.423, -0.261, 0.862, 0.916, -0.793, 1.587, -16.99, -25.878, 172.04, -12.420, -4.620, -32.113, 27.63, 0.10046, 0.21078, -0.15912, 0.9592,
 13:28:57.327,e3:ca:2d:fd:e0:8c, 2015-01-01 01:41:09.120, 0.972, -0.183, 0.249, -0.122, 0, -0.244, -36.288, -72.471, -158.769, -28.373, -9.380, -10.820, 25.69, -0.04013, -0.59863, 0.14404, -0.78687,
 13:28:57.327,e3:ca:2d:fd:e0:8c, 2015-01-01 01:41:09.120, 0.976, -0.183, 0.248, 0.183, 0, -0.122, -36.282, -72.477, -158.763, -28.373, -9.380, -10.820, 25.69, -0.04013, -0.59863, 0.14404, -0.78687,
 13:28:57.348,ed:40:fe:65:30:6c, 2015-01-01 01:41:14.650, 0.576, -0.177, 0.807, 0.549, 0.61, 0.366, -13.008, -34.876, -120.822, -17.953, -5.120, -8.113, 25.66, 0.43829, -0.31271, -0.05353, -0.84091,
 13:28:57.348,ed:40:fe:65:30:6c, 2015-01-01 01:41:14.650, 0.579, -0.185, 0.799, 1.099, 0.61, 0.183, -12.991, -34.865, -120.806, -17.953, -5.120, -8.113, 25.66, 0.43829, -0.31271, -0.05353, -0.84091,
 13:28:57.351,ed:35:33:d3:6c:f8, 2015-01-01 01:41:09.680, 0.435, -0.253, 0.859, 0.427, -0.488, 0.793, -16.99, -25.878, 172.09, -12.420, -4.620, -32.113, 27.63, 0.10046, 0.21078, -0.15912, 0.9592,
 13:28:57.351,ed:35:33:d3:6c:f8, 2015-01-01 01:41:09.680, 0.435, -0.264, 0.854, 1.038, -0.61, 0, -16.979, -25.884, 172.134, -12.420, -4.620, -32.113, 27.63, 0.10046, 0.21078, -0.15912, 0.9592,
 13:28:57.372,e3:ca:2d:fd:e0:8c, 2015-01-01 01:41:09.120, 0.977, -0.179, 0.247, 0.427, -0.061, -0.122, -36.271, -72.477, -158.758, -28.373, -9.380, -10.820, 25.69, -0.04013, -0.59863, 0.14404, -0.78687,
 13:28:57.372,e3:ca:2d:fd:e0:8c, 2015-01-01 01:41:09.120, 0.976, -0.178, 0.248, 0.244, -0.183, -0.061, -36.266, -72.482, -158.741, -28.373, -9.380, -10.820, 25.69, -0.04013, -0.59863, 0.14404, -0.78687,
 13:28:57.373,f6:90:cc:01:6d:25, 2015-01-01 01:41:09.405, 0.898, -0.107, 0.397, 0.61, 1.038, -1.221, -15.507, -65.572, -156.753, -28.673, -10.060, -9.860, 30.04, 0.09628, -0.54861, 0.0032, -0.83044,
 13:28:57.373,f6:90:cc:01:6d:25, 2015-01-01 01:41:09.405, 0.9, -0.103, 0.397, 0.366, 0.916, -1.038, -15.447, -65.561, -156.791, -28.673, -10.060, -9.860, 30.04, 0.09628, -0.54861, 0.0032, -0.83044,
 13:28:57.375,ed:35:33:d3:6c:f8, 2015-01-01 01:41:09.680, 0.434, -0.262, 0.854, 0.977, -0.916, 0.122, -16.963, -25.895, 172.167, -12.420, -4.620, -32.113, 27.63, 0.10046, 0.21078, -0.15912, 0.9592,
 13:28:57.375,ed:35:33:d3:6c:f8, 2015-01-01 01:41:09.680, 0.432, -0.256, 0.855, 1.099, -0.305, -0.366, -16.946, -25.9, 172.194, -12.420, -4.620, -32.113, 27.63, 0.10046, 0.21078, -0.15912, 0.9592,
 13:28:57.393,ed:40:fe:65:30:6c, 2015-01-01 01:41:14.650, 0.575, -0.187, 0.799, 0.977, 0.793, -0.183, -12.969, -34.849, -120.8, -17.953, -5.120, -8.113, 25.66, 0.43829, -0.31271, -0.05353, -0.84091,
 13:28:57.393,ed:40:fe:65:30:6c, 2015-01-01 01:41:14.650, 0.571, -0.179, 0.803, 0.732, 1.221, -0.549, -12.942, -34.827, -120.817, -17.953, -5.120, -8.113, 25.66, 0.43829, -0.31271, -0.05353, -0.84091,
 13:28:57.394,e3:ca:2d:fd:e0:8c, 2015-01-01 01:41:09.120, 0.976, -0.179, 0.245, 0, -0.183, 0, -36.271, -72.482, -158.725, -28.373, -9.380, -10.820, 25.69, -0.03943, -0.59848, 0.14304, -0.7872,
 13:28:57.394,e3:ca:2d:fd:e0:8c, 2015-01-01 01:41:09.120, 0.976, -0.18, 0.244, -0.122, -0.183, 0, -36.277, -72.488, -158.708, -28.373, -9.380, -10.820, 25.69, -0.03943, -0.59848, 0.14304, -0.7872,
 13:28:57.395,f6:90:cc:01:6d:25, 2015-01-01 01:41:09.760, 0.898, -0.104, 0.395, -0.183, 1.038, -1.038, -15.392, -65.544, -156.819, -28.673, -10.060, -9.860, 30.04, 0.09628, -0.54861, 0.0032, -0.83044,
 13:28:57.395,f6:90:cc:01:6d:25, 2015-01-01 01:41:09.760, 0.896, -0.103, 0.396, -0.854, 1.038, -0.854, -15.359, -65.528, -156.852, -28.673, -10.060, -9.860, 30.04, 0.09628, -0.54861, 0.0032, -0.83044,
 13:28:57.417,f6:90:cc:01:6d:25, 2015-01-01 01:41:09.760, 0.899, -0.103, 0.398, -1.404, 0.671, -0.671, -15.342, -65.511, -156.879, -28.673, -10.060, -9.860, 30.04, 0.09628, -0.54861, 0.0032, -0.83044,
 13:28:57.417,f6:90:cc:01:6d:25, 2015-01-01 01:41:09.760, 0.898, -0.106, 0.397, -1.709, 0.427, -0.549, -15.342, -65.506, -156.907, -28.673, -10.060, -9.860, 30.04, 0.09628, -0.54861, 0.0032, -0.83044,
 13:28:57.420,ed:35:33:d3:6c:f8, 2015-01-01 01:41:09.680, 0.43, -0.254, 0.863, 0.305, 0.549, -0.916, -16.924, -25.9, 172.205, -12.420, -4.620, -32.113, 27.63, 0.10046, 0.21078, -0.15912, 0.9592,
 13:28:57.420,ed:35:33:d3:6c:f8, 2015-01-01 01:41:09.680, 0.43, -0.257, 0.864, -0.183, 0.732, -1.343, -16.908, -25.895, 172.2, -12.420, -4.620, -32.113, 27.63, 0.10046, 0.21078, -0.15912, 0.9592,
 13:28:57.439,ed:40:fe:65:30:6c, 2015-01-01 01:41:14.650, 0.572, -0.178, 0.808, 0.122, 1.16, -0.977, -12.925, -34.81, -120.844, -17.953, -5.120, -8.113, 25.66, 0.43829, -0.31271, -0.05353, -0.84091,
 13:28:57.439,ed:40:fe:65:30:6c, 2015-01-01 01:41:14.650, 0.572, -0.181, 0.809, -0.305, 0.793, -1.099, -12.914, -34.799, -120.866, -17.953, -5.120, -8.113, 25.66, 0.43829, -0.31271, -0.05353, -0.84091,
 13:28:57.441,e3:ca:2d:fd:e0:8c, 2015-01-01 01:41:09.120, 0.977, -0.179, 0.245, -0.122, -0.305, -0.061, -36.288, -72.493, -158.687, -28.373, -9.380, -10.820, 25.69, -0.03943, -0.59848, 0.14304, -0.7872,
 13:28:57.441,e3:ca:2d:fd:e0:8c, 2015-01-01 01:41:09.120, 0.976, -0.18, 0.244, -0.183, -0.305, -0.061, -36.299, -72.499, -158.665, -28.373, -9.380, -10.820, 25.69, -0.03943, -0.59848, 0.14304, -0.7872,
 13:28:57.460,ed:40:fe:65:30:6c, 2015-01-01 01:41:14.650, 0.572, -0.187, 0.807, 0, 0.671, -0.977, -12.898, -34.794, -120.888, -17.953, -5.120, -8.113, 25.66, 0.43829, -0.31271, -0.05353, -0.84091,
 13:28:57.460,ed:40:fe:65:30:6c, 2015-01-01 01:41:14.650, 0.568, -0.191, 0.805, 0.366, 0.61, -0.793, -12.881, -34.783, -120.91, -17.953, -5.120, -8.113, 25.66, 0.43829, -0.31271, -0.05353, -0.84091,
 13:28:57.463,f6:90:cc:01:6d:25, 2015-01-01 01:41:09.760, 0.898, -0.112, 0.396, -1.587, 0.366, -0.488, -15.348, -65.5, -156.912, -28.673, -10.060, -9.860, 30.04, 0.09628, -0.54861, 0.0032, -0.83044,
 13:28:57.463,f6:90:cc:01:6d:25, 2015-01-01 01:41:09.760, 0.897, -0.113, 0.396, -1.16, 0.305, -0.549, -15.348, -65.495, -156.901, -28.673, -10.060, -9.860, 30.04, 0.09628, -0.54861, 0.0032, -0.83044,
 13:28:57.464,ed:35:33:d3:6c:f8, 2015-01-01 01:41:09.680, 0.431, -0.261, 0.86, 0.122, 0.061, -1.221, -16.897, -25.889, 172.183, -12.420, -4.620, -32.113, 27.63, 0.10046, 0.21078, -0.15912, 0.9592,
 13:28:57.464,ed:35:33:d3:6c:f8, 2015-01-01 01:41:09.680, 0.429, -0.261, 0.86, 0.427, -0.793, -0.244, -16.886, -25.9, 172.172, -12.420, -4.620, -32.113, 27.63, 0.10046, 0.21078, -0.15912, 0.9592,
 13:28:57.485,e3:ca:2d:fd:e0:8c, 2015-01-01 01:41:09.500, 0.975, -0.182, 0.245, -0.244, -0.305, 0, -36.315, -72.51, -158.643, -28.373, -9.380, -10.820, 25.69, -0.03943, -0.59848, 0.14304, -0.7872,
 13:28:57.485,e3:ca:2d:fd:e0:8c, 2015-01-01 01:41:09.500, 0.975, -0.183, 0.245, -0.183, -0.305, 0.061, -36.332, -72.515, -158.621, -28.373, -9.380, -10.820, 25.69, -0.03943, -0.59848, 0.14304, -0.7872,
 13:28:57.506,e3:ca:2d:fd:e0:8c, 2015-01-01 01:41:09.500, 0.975, -0.184, 0.244, 0, -0.305, 0.061, -36.348, -72.521, -158.593, -28.373, -9.380, -10.820, 25.69, -0.03943, -0.59848, 0.14304, -0.7872,
 13:28:57.506,e3:ca:2d:fd:e0:8c, 2015-01-01 01:41:09.500, 0.976, -0.184, 0.243, 0, -0.305, 0.061, -36.365, -72.526, -158.566, -28.373, -9.380, -10.820, 25.69, -0.03943, -0.59848, 0.14304, -0.7872,
 13:28:57.509,f6:90:cc:01:6d:25, 2015-01-01 01:41:09.760, 0.897, -0.114, 0.395, -0.366, 0.427, -0.549, -15.331, -65.49, -156.89, -28.673, -10.060, -9.860, 30.04, 0.09628, -0.54861, 0.0032, -0.83044,
 13:28:57.509,f6:90:cc:01:6d:25, 2015-01-01 01:41:09.760, 0.898, -0.112, 0.396, 0.244, 0.366, -0.549, -15.304, -65.484, -156.896, -28.673, -10.060, -9.860, 30.04, 0.09628, -0.54861, 0.0032, -0.83044,
 13:28:57.509,ed:35:33:d3:6c:f8, 2015-01-01 01:41:09.680, 0.432, -0.251, 0.86, -0.183, -1.526, 0.488, -16.886, -25.917, 172.205, -12.420, -4.620, -32.113, 27.63, 0.10046, 0.21078, -0.15912, 0.9592,
 13:28:57.509,ed:35:33:d3:6c:f8, 2015-01-01 01:41:09.680, 0.437, -0.255, 0.856, -0.61, -1.343, 0.427, -16.897, -25.939, 172.255, -12.420, -4.620, -32.113, 27.63, 0.10046, 0.21078, -0.15912, 0.9592,
 13:28:57.529,ed:40:fe:65:30:6c, 2015-01-01 01:41:14.650, 0.571, -0.182, 0.805, 0.244, 0.427, -0.488, -12.87, -34.777, -120.916, -17.953, -5.120, -8.113, 25.66, 0.43829, -0.31271, -0.05353, -0.84091,
 13:28:57.529,ed:40:fe:65:30:6c, 2015-01-01 01:41:14.650, 0.576, -0.18, 0.804, -0.122, 0, -0.122, -12.87, -34.777, -120.916, -17.953, -5.120, -8.113, 25.66, 0.43829, -0.31271, -0.05353, -0.84091,
 13:28:57.533,ed:35:33:d3:6c:f8, 2015-01-01 01:41:09.680, 0.436, -0.262, 0.853, -0.793, -1.038, 0.488, -16.919, -25.955, 172.304, -12.673, -4.387, -31.867, 27.63, 0.10046, 0.21078, -0.15912, 0.9592,
 13:28:57.533,ed:35:33:d3:6c:f8, 2015-01-01 01:41:09.680, 0.434, -0.263, 0.853, -0.427, -0.671, 0.061, -16.935, -25.966, 172.343, -12.673, -4.387, -31.867, 27.63, 0.10046, 0.21078, -0.15912, 0.9592,
 13:28:57.551,ed:40:fe:65:30:6c, 2015-01-01 01:41:14.650, 0.576, -0.186, 0.8, -0.427, 0, 0, -12.876, -34.777, -120.916, -18.153, -5.020, -7.853, 25.66, 0.43829, -0.31271, -0.05353, -0.84091,
 13:28:57.551,ed:40:fe:65:30:6c, 2015-01-01 01:41:14.650, 0.576, -0.186, 0.8, -0.366, 0, -0.061, -12.887, -34.777, -120.921, -18.153, -5.020, -7.853, 25.66, 0.43829, -0.31271, -0.05353, -0.84091,
 13:28:57.551,e3:ca:2d:fd:e0:8c, 2015-01-01 01:41:09.500, 0.975, -0.184, 0.245, 0, -0.244, 0, -36.381, -72.532, -158.544, -28.373, -9.380, -10.820, 25.69, -0.03943, -0.59848, 0.14304, -0.7872,
 13:28:57.551,e3:ca:2d:fd:e0:8c, 2015-01-01 01:41:09.500, 0.974, -0.184, 0.244, -0.244, -0.183, 0, -36.398, -72.532, -158.527, -28.373, -9.380, -10.820, 25.69, -0.03943, -0.59848, 0.14304, -0.7872,
 13:28:57.553,f6:90:cc:01:6d:25, 2015-01-01 01:41:09.760, 0.899, -0.108, 0.396, 0, 0.244, -0.427, -15.282, -65.479, -156.896, -28.673, -10.060, -9.860, 30.04, 0.09628, -0.54861, 0.0032, -0.83044,
 13:28:57.553,f6:90:cc:01:6d:25, 2015-01-01 01:41:09.760, 0.898, -0.109, 0.395, -0.183, 0.244, -0.244, -15.276, -65.479, -156.885, -28.673, -10.060, -9.860, 30.04, 0.09628, -0.54861, 0.0032, -0.83044,
 13:28:57.577,ed:35:33:d3:6c:f8, 2015-01-01 01:41:09.680, 0.43, -0.268, 0.853, 0.061, -0.427, -0.122, -16.935, -25.977, 172.381, -12.673, -4.387, -31.867, 27.63, 0.10046, 0.21078, -0.15912, 0.9592,
 13:28:57.577,ed:35:33:d3:6c:f8, 2015-01-01 01:41:09.680, 0.429, -0.264, 0.857, -0.244, -0.61, -0.122, -16.941, -25.983, 172.419, -12.673, -4.387, -31.867, 27.63, 0.10046, 0.21078, -0.15912, 0.9592,
 13:28:57.597,e3:ca:2d:fd:e0:8c, 2015-01-01 01:41:09.500, 0.972, -0.185, 0.245, -0.305, -0.122, 0, -36.409, -72.537, -158.511, -28.373, -9.380, -10.820, 25.69, -0.03943, -0.59848, 0.14304, -0.7872,
 13:28:57.597,e3:ca:2d:fd:e0:8c, 2015-01-01 01:41:09.500, 0.974, -0.183, 0.244, -0.366, -0.122, 0, -36.425, -72.537, -158.494, -28.373, -9.380, -10.820, 25.69, -0.03943, -0.59848, 0.14304, -0.7872,
 13:28:57.599,f6:90:cc:01:6d:25, 2015-01-01 01:41:09.760, 0.896, -0.113, 0.397, 0.122, 0.305, -0.061, -15.271, -65.473, -156.852, -28.673, -10.060, -9.860, 30.04, 0.09628, -0.54861, 0.0032, -0.83044,
 13:28:57.599,f6:90:cc:01:6d:25, 2015-01-01 01:41:09.760, 0.896, -0.112, 0.397, 1.343, 0.305, 0, -15.249, -65.462, -156.835, -28.673, -10.060, -9.860, 30.04, 0.09628, -0.54861, 0.0032, -0.83044,
 13:28:57.618,ed:40:fe:65:30:6c, 2015-01-01 01:41:14.650, 0.571, -0.191, 0.8, -0.122, 0.244, -0.183, -12.887, -34.772, -120.932, -18.153, -5.020, -7.853, 25.66, 0.43829, -0.31271, -0.05353, -0.84091,
 13:28:57.618,ed:40:fe:65:30:6c, 2015-01-01 01:41:14.650, 0.567, -0.191, 0.803, -0.488, 0.366, -0.244, -12.892, -34.766, -120.948, -18.153, -5.020, -7.853, 25.66, 0.43829, -0.31271, -0.05353, -0.84091,
 13:28:57.622,ed:35:33:d3:6c:f8, 2015-01-01 01:41:09.680, 0.431, -0.257, 0.859, -0.793, -0.366, -0.732, -16.946, -25.994, 172.458, -12.673, -4.387, -31.867, 27.63, 0.09683, 0.21231, -0.1579, 0.95944,
 13:28:57.622,ed:35:33:d3:6c:f8, 2015-01-01 01:41:09.680, 0.431, -0.263, 0.855, -0.488, -0.244, -0.854, -16.952, -25.999, 172.485, -12.673, -4.387, -31.867, 27.63, 0.09683, 0.21231, -0.1579, 0.95944,
 13:28:57.641,ed:40:fe:65:30:6c, 2015-01-01 01:41:14.650, 0.571, -0.182, 0.808, -1.099, 0, -0.244, -12.914, -34.766, -120.981, -18.153, -5.020, -7.853, 25.66, 0.43808, -0.31113, -0.05304, -0.84164,
 13:28:57.641,ed:40:fe:65:30:6c, 2015-01-01 01:41:14.650, 0.572, -0.188, 0.804, -0.793, -0.061, -0.061, -12.931, -34.772, -120.998, -18.153, -5.020, -7.853, 25.66, 0.43808, -0.31113, -0.05304, -0.84164,
 13:28:57.642,f6:90:cc:01:6d:25, 2015-01-01 01:41:09.760, 0.897, -0.109, 0.399, 1.587, 0, 0, -15.222, -65.462, -156.813, -28.247, -9.900, -9.727, 30.04, 0.09628, -0.54861, 0.0032, -0.83044,
 13:28:57.642,f6:90:cc:01:6d:25, 2015-01-01 01:41:09.760, 0.895, -0.113, 0.399, 1.343, -0.305, 0, -15.2, -65.462, -156.808, -28.247, -9.900, -9.727, 30.04, 0.09628, -0.54861, 0.0032, -0.83044,
 13:28:57.664,e3:ca:2d:fd:e0:8c, 2015-01-01 01:41:09.500, 0.973, -0.183, 0.245, -0.549, -0.122, -0.061, -36.442, -72.543, -158.483, -28.373, -9.380, -10.820, 25.69, -0.03943, -0.59848, 0.14304, -0.7872,
 13:28:57.664,e3:ca:2d:fd:e0:8c, 2015-01-01 01:41:09.500, 0.972, -0.182, 0.246, -0.916, -0.244, -0.183, -36.464, -72.548, -158.472, -28.373, -9.380, -10.820, 25.69, -0.03943, -0.59848, 0.14304, -0.7872,
 13:28:57.666,ed:35:33:d3:6c:f8, 2015-01-01 01:41:09.995, 0.435, -0.264, 0.854, 0, -0.305, -0.366, -16.952, -26.005, 172.502, -12.673, -4.387, -31.867, 27.63, 0.09683, 0.21231, -0.1579, 0.95944,
 13:28:57.666,ed:35:33:d3:6c:f8, 2015-01-01 01:41:09.995, 0.433, -0.263, 0.851, 0.488, -0.244, -0.183, -16.946, -26.01, 172.529, -12.673, -4.387, -31.867, 27.63, 0.09683, 0.21231, -0.1579, 0.95944,
 13:28:57.686,ed:40:fe:65:30:6c, 2015-01-01 01:41:14.650, 0.573, -0.192, 0.802, -0.488, 0, 0.061, -12.942, -34.766, -120.998, -18.153, -5.020, -7.853, 25.66, 0.43808, -0.31113, -0.05304, -0.84164,
 13:28:57.686,ed:40:fe:65:30:6c, 2015-01-01 01:41:14.650, 0.571, -0.19, 0.801, 0, 0.183, 0.244, -12.947, -34.766, -120.998, -18.153, -5.020, -7.853, 25.66, 0.43808, -0.31113, -0.05304, -0.84164,
 13:28:57.687,e3:ca:2d:fd:e0:8c, 2015-01-01 01:41:09.500, 0.975, -0.183, 0.247, -0.916, -0.427, -0.122, -36.491, -72.554, -158.456, -27.620, -8.973, -9.527, 25.69, -0.03943, -0.59848, 0.14304, -0.7872,
 13:28:57.687,e3:ca:2d:fd:e0:8c, 2015-01-01 01:41:09.500, 0.974, -0.181, 0.246, -0.916, -0.488, -0.183, -36.524, -72.565, -158.439, -27.620, -8.973, -9.527, 25.69, -0.03943, -0.59848, 0.14304, -0.7872,
 13:28:57.708,ed:40:fe:65:30:6c, 2015-01-01 01:41:15.030, 0.569, -0.186, 0.798, -0.366, 0.366, 0.305, -12.964, -34.755, -120.992, -18.153, -5.020, -7.853, 25.66, 0.43808, -0.31113, -0.05304, -0.84164,
 13:28:57.708,ed:40:fe:65:30:6c, 2015-01-01 01:41:15.030, 0.577, -0.18, 0.799, -0.549, 0.366, 0.305, -12.975, -34.744, -120.987, -18.153, -5.020, -7.853, 25.66, 0.43808, -0.31113, -0.05304, -0.84164,
 13:28:57.710,f6:90:cc:01:6d:25, 2015-01-01 01:41:09.760, 0.897, -0.112, 0.4, 1.221, -0.549, -0.061, -15.183, -65.473, -156.802, -28.247, -9.900, -9.727, 30.04, 0.09628, -0.54861, 0.0032, -0.83044,
 13:28:57.710,f6:90:cc:01:6d:25, 2015-01-01 01:41:09.760, 0.896, -0.11, 0.398, 0.854, -0.61, -0.122, -15.172, -65.479, -156.791, -28.247, -9.900, -9.727, 30.04, 0.09628, -0.54861, 0.0032, -0.83044,
 13:28:57.712,ed:35:33:d3:6c:f8, 2015-01-01 01:41:09.995, 0.433, -0.258, 0.851, -0.061, 0, 0.061, -16.946, -26.01, 172.573, -12.673, -4.387, -31.867, 27.63, 0.09683, 0.21231, -0.1579, 0.95944,
 13:28:57.712,ed:35:33:d3:6c:f8, 2015-01-01 01:41:09.995, 0.44, -0.255, 0.85, 0, 0.244, -0.549, -16.941, -26.005, 172.606, -12.673, -4.387, -31.867, 27.63, 0.09683, 0.21231, -0.1579, 0.95944,
 13:28:57.734,f6:90:cc:01:6d:25, 2015-01-01 01:41:09.760, 0.897, -0.111, 0.398, 0.671, -0.366, -0.427, -15.15, -65.49, -156.797, -28.247, -9.900, -9.727, 30.04, 0.09766, -0.54742, 0.00104, -0.83105,
 13:28:57.734,f6:90:cc:01:6d:25, 2015-01-01 01:41:09.760, 0.899, -0.105, 0.396, 0.122, -0.183, -0.427, -15.139, -65.49, -156.797, -28.247, -9.900, -9.727, 30.04, 0.09766, -0.54742, 0.00104, -0.83105,
 13:28:57.735,ed:35:33:d3:6c:f8, 2015-01-01 01:41:09.995, 0.441, -0.256, 0.852, 0.244, 0.305, -0.854, -16.935, -26.005, 172.623, -12.673, -4.387, -31.867, 27.63, 0.09683, 0.21231, -0.1579, 0.95944,
 13:28:57.735,ed:35:33:d3:6c:f8, 2015-01-01 01:41:09.995, 0.437, -0.259, 0.856, 1.221, 0.61, -0.61, -16.908, -25.999, 172.645, -12.673, -4.387, -31.867, 27.63, 0.09683, 0.21231, -0.1579, 0.95944,
 13:28:57.753,ed:40:fe:65:30:6c, 2015-01-01 01:41:15.030, 0.581, -0.182, 0.798, -0.244, 0.61, 0.061, -12.98, -34.733, -120.987, -18.153, -5.020, -7.853, 25.66, 0.43808, -0.31113, -0.05304, -0.84164,
 13:28:57.753,ed:40:fe:65:30:6c, 2015-01-01 01:41:15.030, 0.576, -0.187, 0.804, 0.549, 0.732, 0.244, -12.975, -34.722, -120.981, -18.153, -5.020, -7.853, 25.66, 0.43808, -0.31113, -0.05304, -0.84164,
 13:28:57.755,e3:ca:2d:fd:e0:8c, 2015-01-01 01:41:09.500, 0.975, -0.18, 0.247, -0.977, -0.549, -0.183, -36.552, -72.576, -158.417, -27.620, -8.973, -9.527, 25.69, -0.03943, -0.59848, 0.14304, -0.7872,
 13:28:57.755,e3:ca:2d:fd:e0:8c, 2015-01-01 01:41:09.500, 0.976, -0.181, 0.246, -1.038, -0.488, -0.244, -36.579, -72.587, -158.401, -27.620, -8.973, -9.527, 25.69, -0.03943, -0.59848, 0.14304, -0.7872,
 13:28:57.779,f6:90:cc:01:6d:25, 2015-01-01 01:41:09.760, 0.903, -0.105, 0.395, -0.488, 0, -0.122, -15.145, -65.49, -156.758, -28.247, -9.900, -9.727, 30.04, 0.09766, -0.54742, 0.00104, -0.83105,
 13:28:57.779,f6:90:cc:01:6d:25, 2015-01-01 01:41:09.760, 0.903, -0.107, 0.396, -0.366, 0, 0, -15.156, -65.49, -156.714, -28.247, -9.900, -9.727, 30.04, 0.09766, -0.54742, 0.00104, -0.83105,
 13:28:57.779,e3:ca:2d:fd:e0:8c, 2015-01-01 01:41:09.500, 0.982, -0.181, 0.242, -1.221, -0.305, -0.305, -36.601, -72.598, -158.379, -27.620, -8.973, -9.527, 25.69, -0.03912, -0.59949, 0.14319, -0.78644,
 13:28:57.779,e3:ca:2d:fd:e0:8c, 2015-01-01 01:41:09.500, 0.979, -0.181, 0.242, -1.038, -0.183, -0.244, -36.617, -72.603, -158.34, -27.620, -8.973, -9.527, 25.69, -0.03912, -0.59949, 0.14319, -0.78644,
 13:28:57.781,ed:35:33:d3:6c:f8, 2015-01-01 01:41:09.995, 0.435, -0.264, 0.86, 1.526, 0.671, 0.183, -16.88, -25.988, 172.683, -12.673, -4.387, -31.867, 27.63, 0.09683, 0.21231, -0.1579, 0.95944,
 13:28:57.781,ed:35:33:d3:6c:f8, 2015-01-01 01:41:09.995, 0.437, -0.259, 0.859, 1.038, 0.549, 0.549, -16.853, -25.972, 172.727, -12.673, -4.387, -31.867, 27.63, 0.09683, 0.21231, -0.1579, 0.95944,
 13:28:57.798,ed:40:fe:65:30:6c, 2015-01-01 01:41:15.030, 0.573, -0.192, 0.806, 1.16, 0.916, 0.61, -12.958, -34.706, -120.965, -18.153, -5.020, -7.853, 25.66, 0.43808, -0.31113, -0.05304, -0.84164,
 13:28:57.798,ed:40:fe:65:30:6c, 2015-01-01 01:41:15.030, 0.574, -0.188, 0.806, 1.038, 0.671, 0.427, -12.942, -34.689, -120.959, -18.153, -5.020, -7.853, 25.66, 0.43808, -0.31113, -0.05304, -0.84164,
 13:28:57.800,f6:90:cc:01:6d:25, 2015-01-01 01:41:10.165, 0.899, -0.11, 0.393, 0, 0.122, -0.122, -15.15, -65.484, -156.676, -28.247, -9.900, -9.727, 30.04, 0.09766, -0.54742, 0.00104, -0.83105,
 13:28:57.800,f6:90:cc:01:6d:25, 2015-01-01 01:41:10.165, 0.899, -0.106, 0.393, 0.183, 0.122, -0.305, -15.139, -65.484, -156.643, -28.247, -9.900, -9.727, 30.04, 0.09766, -0.54742, 0.00104, -0.83105,
 13:28:57.825,ed:35:33:d3:6c:f8, 2015-01-01 01:41:09.995, 0.438, -0.256, 0.857, 1.038, 0.488, 0.183, -16.837, -25.961, 172.76, -12.673, -4.387, -31.867, 27.63, 0.09683, 0.21231, -0.1579, 0.95944,
 13:28:57.825,ed:35:33:d3:6c:f8, 2015-01-01 01:41:09.995, 0.434, -0.257, 0.857, 1.221, 0.732, 0.244, -16.815, -25.95, 172.782, -12.673, -4.387, -31.867, 27.63, 0.09683, 0.21231, -0.1579, 0.95944,
 13:28:57.825,f6:90:cc:01:6d:25, 2015-01-01 01:41:10.165, 0.9, -0.102, 0.395, 0, -0.061, -0.305, -15.128, -65.49, -156.621, -28.247, -9.900, -9.727, 30.04, 0.09766, -0.54742, 0.00104, -0.83105,
 13:28:57.825,f6:90:cc:01:6d:25, 2015-01-01 01:41:10.165, 0.899, -0.103, 0.395, -0.366, -0.061, -0.305, -15.123, -65.49, -156.599, -28.247, -9.900, -9.727, 30.04, 0.09766, -0.54742, 0.00104, -0.83105,
 13:28:57.843,ed:40:fe:65:30:6c, 2015-01-01 01:41:15.030, 0.576, -0.182, 0.804, 1.099, 0.366, 0.183, -12.92, -34.684, -120.954, -18.153, -5.020, -7.853, 25.66, 0.43808, -0.31113, -0.05304, -0.84164,
 13:28:57.843,ed:40:fe:65:30:6c, 2015-01-01 01:41:15.030, 0.574, -0.184, 0.804, 1.038, 0.305, 0, -12.903, -34.678, -120.943, -18.153, -5.020, -7.853, 25.66, 0.43808, -0.31113, -0.05304, -0.84164,
 13:28:57.845,e3:ca:2d:fd:e0:8c, 2015-01-01 01:41:09.500, 0.977, -0.182, 0.238, -0.854, 0, -0.183, -36.628, -72.603, -158.313, -27.620, -8.973, -9.527, 25.69, -0.03912, -0.59949, 0.14319, -0.78644,
 13:28:57.845,e3:ca:2d:fd:e0:8c, 2015-01-01 01:41:09.500, 0.979, -0.182, 0.238, -0.61, 0, -0.122, -36.634, -72.609, -158.302, -27.620, -8.973, -9.527, 25.69, -0.03912, -0.59949, 0.14319, -0.78644,
 13:28:57.866,ed:40:fe:65:30:6c, 2015-01-01 01:41:15.030, 0.57, -0.188, 0.805, 1.343, 0.427, -0.061, -12.876, -34.673, -120.943, -18.153, -5.020, -7.853, 25.66, 0.43808, -0.31113, -0.05304, -0.84164,
 13:28:57.866,ed:40:fe:65:30:6c, 2015-01-01 01:41:15.030, 0.571, -0.186, 0.805, 1.16, 0.427, -0.183, -12.849, -34.667, -120.932, -18.153, -5.020, -7.853, 25.66, 0.43808, -0.31113, -0.05304, -0.84164,
 13:28:57.867,e3:ca:2d:fd:e0:8c, 2015-01-01 01:41:09.500, 0.977, -0.179, 0.239, -0.549, -0.061, -0.122, -36.645, -72.614, -158.302, -27.620, -8.973, -9.527, 25.69, -0.03912, -0.59949, 0.14319, -0.78644,
 13:28:57.867,e3:ca:2d:fd:e0:8c, 2015-01-01 01:41:09.500, 0.977, -0.18, 0.239, -0.671, -0.122, -0.122, -36.661, -72.62, -158.307, -27.620, -8.973, -9.527, 25.69, -0.03912, -0.59949, 0.14319, -0.78644,
 13:28:57.868,f6:90:cc:01:6d:25, 2015-01-01 01:41:10.165, 0.899, -0.106, 0.396, -0.549, 0, -0.305, -15.117, -65.49, -156.605, -28.247, -9.900, -9.727, 30.04, 0.09766, -0.54742, 0.00104, -0.83105,
 13:28:57.868,f6:90:cc:01:6d:25, 2015-01-01 01:41:10.165, 0.899, -0.109, 0.396, -0.549, 0.122, -0.244, -15.117, -65.49, -156.599, -28.247, -9.900, -9.727, 30.04, 0.09766, -0.54742, 0.00104, -0.83105,
 13:28:57.870,ed:35:33:d3:6c:f8, 2015-01-01 01:41:09.995, 0.431, -0.262, 0.858, 1.526, 1.099, 0.732, -16.793, -25.928, 172.804, -12.493, -4.307, -31.147, 27.63, 0.09683, 0.21231, -0.1579, 0.95944,
 13:28:57.870,ed:35:33:d3:6c:f8, 2015-01-01 01:41:09.995, 0.433, -0.256, 0.859, 1.282, 0.671, 1.099, -16.771, -25.906, 172.826, -12.493, -4.307, -31.147, 27.63, 0.09683, 0.21231, -0.1579, 0.95944,
 13:28:57.891,e3:ca:2d:fd:e0:8c, 2015-01-01 01:41:09.500, 0.977, -0.182, 0.241, -0.671, -0.183, -0.061, -36.678, -72.625, -158.307, -27.620, -8.973, -9.527, 25.69, -0.03912, -0.59949, 0.14319, -0.78644,
 13:28:57.891,e3:ca:2d:fd:e0:8c, 2015-01-01 01:41:09.500, 0.978, -0.185, 0.241, -0.61, -0.122, -0.122, -36.694, -72.631, -158.313, -27.620, -8.973, -9.527, 25.69, -0.03912, -0.59949, 0.14319, -0.78644,
 13:28:57.911,ed:40:fe:65:30:6c, 2015-01-01 01:41:15.030, 0.571, -0.183, 0.804, 0.854, 0.244, -0.183, -12.832, -34.667, -120.932, -18.153, -5.020, -7.853, 25.66, 0.43808, -0.31113, -0.05304, -0.84164,
 13:28:57.911,ed:40:fe:65:30:6c, 2015-01-01 01:41:15.030, 0.567, -0.188, 0.804, 0.671, 0.244, 0, -12.821, -34.662, -120.927, -18.153, -5.020, -7.853, 25.66, 0.43808, -0.31113, -0.05304, -0.84164,
 13:28:57.913,f6:90:cc:01:6d:25, 2015-01-01 01:41:10.165, 0.899, -0.11, 0.396, -0.366, 0.122, -0.305, -15.112, -65.49, -156.588, -28.247, -9.900, -9.727, 30.04, 0.09766, -0.54742, 0.00104, -0.83105,
 13:28:57.913,f6:90:cc:01:6d:25, 2015-01-01 01:41:10.165, 0.899, -0.108, 0.397, -0.122, 0.061, -0.061, -15.112, -65.49, -156.561, -28.247, -9.900, -9.727, 30.04, 0.09766, -0.54742, 0.00104, -0.83105,
 13:28:57.915,ed:35:33:d3:6c:f8, 2015-01-01 01:41:09.995, 0.435, -0.255, 0.856, 1.221, 0.244, 0.977, -16.754, -25.895, 172.859, -12.493, -4.307, -31.147, 27.63, 0.09262, 0.21237, -0.15552, 0.96024,
 13:28:57.915,ed:35:33:d3:6c:f8, 2015-01-01 01:41:09.995, 0.431, -0.256, 0.856, 0.977, 0.366, 0.61, -16.738, -25.884, 172.886, -12.493, -4.307, -31.147, 27.63, 0.09262, 0.21237, -0.15552, 0.96024,
 13:28:57.935,e3:ca:2d:fd:e0:8c, 2015-01-01 01:41:09.500, 0.977, -0.186, 0.243, -0.488, 0, -0.122, -36.7, -72.636, -158.313, -27.620, -8.973, -9.527, 25.69, -0.03912, -0.59949, 0.14319, -0.78644,
 13:28:57.935,e3:ca:2d:fd:e0:8c, 2015-01-01 01:41:09.500, 0.976, -0.185, 0.244, -0.305, 0.183, -0.122, -36.7, -72.636, -158.318, -27.620, -8.973, -9.527, 25.69, -0.03912, -0.59949, 0.14319, -0.78644,
 13:28:57.937,ed:35:33:d3:6c:f8, 2015-01-01 01:41:10.285, 0.427, -0.262, 0.858, 1.038, 0.305, 0.427, -16.721, -25.873, 172.903, -12.493, -4.307, -31.147, 27.63, 0.09262, 0.21237, -0.15552, 0.96024,
 13:28:57.937,ed:35:33:d3:6c:f8, 2015-01-01 01:41:10.285, 0.428, -0.265, 0.857, 0.671, 0.305, 0.671, -16.71, -25.862, 172.908, -12.493, -4.307, -31.147, 27.63, 0.09262, 0.21237, -0.15552, 0.96024,
 13:28:57.956,ed:40:fe:65:30:6c, 2015-01-01 01:41:15.030, 0.567, -0.193, 0.805, 0.671, 0.183, 0, -12.81, -34.662, -120.916, -18.393, -5.000, -7.847, 25.66, 0.43808, -0.31113, -0.05304, -0.84164,
 13:28:57.956,ed:40:fe:65:30:6c, 2015-01-01 01:41:15.030, 0.568, -0.186, 0.804, 0.183, 0, -0.244, -12.799, -34.656, -120.916, -18.393, -5.000, -7.847, 25.66, 0.43808, -0.31113, -0.05304, -0.84164,
 13:28:57.957,e3:ca:2d:fd:e0:8c, 2015-01-01 01:41:09.500, 0.975, -0.186, 0.243, -0.427, 0.183, -0.061, -36.705, -72.631, -158.329, -27.620, -8.973, -9.527, 25.8, -0.03912, -0.59949, 0.14319, -0.78644,
 13:28:57.957,e3:ca:2d:fd:e0:8c, 2015-01-01 01:41:09.500, 0.975, -0.187, 0.243, -0.305, 0.122, -0.061, -36.705, -72.631, -158.351, -27.620, -8.973, -9.527, 25.8, -0.03912, -0.59949, 0.14319, -0.78644,
 13:28:57.958,f6:90:cc:01:6d:25, 2015-01-01 01:41:10.165, 0.896, -0.112, 0.397, -0.305, 0.244, -0.061, -15.117, -65.484, -156.539, -28.247, -9.900, -9.727, 30.04, 0.09766, -0.54742, 0.00104, -0.83105,
 13:28:57.958,f6:90:cc:01:6d:25, 2015-01-01 01:41:10.165, 0.896, -0.114, 0.398, -0.305, 0.305, -0.183, -15.112, -65.479, -156.522, -28.247, -9.900, -9.727, 30.04, 0.09766, -0.54742, 0.00104, -0.83105,
 13:28:57.983,ed:35:33:d3:6c:f8, 2015-01-01 01:41:10.285, 0.431, -0.256, 0.857, 0.122, 0.244, 0.427, -16.71, -25.856, 172.925, -12.493, -4.307, -31.147, 27.63, 0.09262, 0.21237, -0.15552, 0.96024,
 13:28:57.983,ed:35:33:d3:6c:f8, 2015-01-01 01:41:10.285, 0.432, -0.253, 0.854, 0.183, 0.244, 0, -16.71, -25.845, 172.93, -12.493, -4.307, -31.147, 27.63, 0.09262, 0.21237, -0.15552, 0.96024,
 13:28:58.000,ed:40:fe:65:30:6c, 2015-01-01 01:41:15.030, 0.573, -0.181, 0.802, 0.061, -0.122, -0.122, -12.799, -34.662, -120.927, -18.393, -5.000, -7.847, 25.66, 0.43808, -0.31113, -0.05304, -0.84164,
 13:28:58.000,ed:40:fe:65:30:6c, 2015-01-01 01:41:15.030, 0.571, -0.186, 0.803, 0.122, 0.183, 0.244, -12.799, -34.662, -120.916, -18.393, -5.000, -7.847, 25.66, 0.43808, -0.31113, -0.05304, -0.84164,
 13:28:58.002,e3:ca:2d:fd:e0:8c, 2015-01-01 01:41:09.500, 0.976, -0.186, 0.242, -0.183, 0.061, -0.122, -36.711, -72.631, -158.368, -27.620, -8.973, -9.527, 25.8, -0.03912, -0.59949, 0.14319, -0.78644,
 13:28:58.002,e3:ca:2d:fd:e0:8c, 2015-01-01 01:41:09.500, 0.976, -0.185, 0.242, 0, 0.061, -0.183, -36.705, -72.636, -158.401, -27.620, -8.973, -9.527, 25.8, -0.03912, -0.59949, 0.14319, -0.78644,
 13:28:58.004,f6:90:cc:01:6d:25, 2015-01-01 01:41:10.165, 0.896, -0.112, 0.396, -0.61, 0.305, -0.305, -15.112, -65.473, -156.511, -28.247, -9.900, -9.727, 30.04, 0.09766, -0.54742, 0.00104, -0.83105,
 13:28:58.004,f6:90:cc:01:6d:25, 2015-01-01 01:41:10.165, 0.898, -0.111, 0.397, -0.488, 0.183, -0.305, -15.112, -65.473, -156.495, -28.247, -9.900, -9.727, 30.04, 0.09766, -0.54742, 0.00104, -0.83105,
 13:28:58.023,ed:40:fe:65:30:6c, 2015-01-01 01:41:15.030, 0.57, -0.187, 0.804, 0, 0.305, 0.305, -12.805, -34.656, -120.91, -18.393, -5.000, -7.847, 25.66, 0.43881, -0.31, -0.05334, -0.84164,
 13:28:58.023,ed:40:fe:65:30:6c, 2015-01-01 01:41:15.030, 0.571, -0.187, 0.805, 0.061, 0.183, 0.244, -12.81, -34.651, -120.905, -18.393, -5.000, -7.847, 25.66, 0.43881, -0.31, -0.05334, -0.84164,
 13:28:58.026,f6:90:cc:01:6d:25, 2015-01-01 01:41:10.165, 0.898, -0.112, 0.398, -0.183, 0.183, -0.122, -15.117, -65.468, -156.473, -28.553, -9.900, -9.727, 30.04, 0.09766, -0.54742, 0.00104, -0.83105,
 13:28:58.026,f6:90:cc:01:6d:25, 2015-01-01 01:41:10.165, 0.898, -0.11, 0.397, -0.061, 0.183, -0.061, -15.117, -65.462, -156.44, -28.553, -9.900, -9.727, 30.04, 0.09766, -0.54742, 0.00104, -0.83105,
 13:28:58.027,ed:35:33:d3:6c:f8, 2015-01-01 01:41:10.285, 0.43, -0.259, 0.856, 0.244, 0.671, 0.183, -16.705, -25.84, 172.93, -12.493, -4.307, -31.147, 27.63, 0.09262, 0.21237, -0.15552, 0.96024,
 13:28:58.027,ed:35:33:d3:6c:f8, 2015-01-01 01:41:10.285, 0.43, -0.259, 0.859, 0.061, 0.549, 0.183, -16.705, -25.823, 172.93, -12.493, -4.307, -31.147, 27.63, 0.09262, 0.21237, -0.15552, 0.96024,
 13:28:58.048,e3:ca:2d:fd:e0:8c, 2015-01-01 01:41:10.055, 0.977, -0.185, 0.242, 0, 0.061, -0.183, -36.7, -72.636, -158.412, -27.620, -8.973, -9.527, 25.8, -0.03912, -0.59949, 0.14319, -0.78644,
 13:28:58.048,e3:ca:2d:fd:e0:8c, 2015-01-01 01:41:10.055, 0.977, -0.184, 0.243, 0.061, 0, -0.183, -36.694, -72.636, -158.406, -27.620, -8.973, -9.527, 25.8, -0.03912, -0.59949, 0.14319, -0.78644,
 13:28:58.068,ed:40:fe:65:30:6c, 2015-01-01 01:41:15.030, 0.572, -0.186, 0.805, 0, 0.061, 0.122, -12.81, -34.645, -120.905, -18.393, -5.000, -7.847, 25.66, 0.43881, -0.31, -0.05334, -0.84164,
 13:28:58.068,ed:40:fe:65:30:6c, 2015-01-01 01:41:15.030, 0.573, -0.185, 0.805, -0.061, 0.061, 0.183, -12.816, -34.645, -120.91, -18.393, -5.000, -7.847, 25.66, 0.43881, -0.31, -0.05334, -0.84164,
 13:28:58.070,e3:ca:2d:fd:e0:8c, 2015-01-01 01:41:10.055, 0.977, -0.184, 0.242, 0, 0.061, -0.244, -36.689, -72.642, -158.417, -27.620, -8.973, -9.527, 25.8, -0.03912, -0.59949, 0.14319, -0.78644,
 13:28:58.070,e3:ca:2d:fd:e0:8c, 2015-01-01 01:41:10.055, 0.976, -0.182, 0.242, 0.061, 0.061, -0.183, -36.683, -72.642, -158.412, -27.620, -8.973, -9.527, 25.8, -0.03912, -0.59949, 0.14319, -0.78644,
 13:28:58.071,f6:90:cc:01:6d:25, 2015-01-01 01:41:10.165, 0.898, -0.106, 0.397, 0, 0.061, -0.061, -15.117, -65.457, -156.412, -28.553, -9.900, -9.727, 30.04, 0.09766, -0.54742, 0.00104, -0.83105,
 13:28:58.071,f6:90:cc:01:6d:25, 2015-01-01 01:41:10.165, 0.898, -0.106, 0.396, -0.061, 0.122, -0.122, -15.117, -65.457, -156.412, -28.553, -9.900, -9.727, 30.04, 0.09766, -0.54742, 0.00104, -0.83105,
 13:28:58.073,ed:35:33:d3:6c:f8, 2015-01-01 01:41:10.285, 0.431, -0.26, 0.86, -0.061, 0.366, 0.122, -16.705, -25.812, 172.936, -12.493, -4.307, -31.147, 27.63, 0.09262, 0.21237, -0.15552, 0.96024,
 13:28:58.073,ed:35:33:d3:6c:f8, 2015-01-01 01:41:10.285, 0.432, -0.257, 0.859, -0.122, 0.061, 0.244, -16.71, -25.807, 172.936, -12.493, -4.307, -31.147, 27.63, 0.09262, 0.21237, -0.15552, 0.96024,
 13:28:58.113,ed:40:fe:65:30:6c, 2015-01-01 01:41:15.410, 0.573, -0.184, 0.804, -0.183, 0.122, 0.061, -12.821, -34.645, -120.905, -18.393, -5.000, -7.847, 25.66, 0.43881, -0.31, -0.05334, -0.84164,
 13:28:58.113,ed:40:fe:65:30:6c, 2015-01-01 01:41:15.410, 0.573, -0.185, 0.804, -0.122, 0.122, 0, -12.832, -34.64, -120.899, -18.393, -5.000, -7.847, 25.66, 0.43881, -0.31, -0.05334, -0.84164,
 13:28:58.114,e3:ca:2d:fd:e0:8c, 2015-01-01 01:41:10.055, 0.976, -0.181, 0.241, 0.061, 0.061, -0.183, -36.672, -72.647, -158.39, -27.620, -8.973, -9.527, 25.8, -0.03912, -0.59949, 0.14319, -0.78644,
 13:28:58.114,e3:ca:2d:fd:e0:8c, 2015-01-01 01:41:10.055, 0.978, -0.18, 0.241, 0, 0, -0.183, -36.667, -72.647, -158.373, -27.620, -8.973, -9.527, 25.8, -0.03912, -0.59949, 0.14319, -0.78644,
 13:28:58.117,ed:35:33:d3:6c:f8, 2015-01-01 01:41:10.285, 0.433, -0.257, 0.857, -0.122, 0.183, 0.244, -16.716, -25.801, 172.936, -12.493, -4.307, -31.147, 27.63, 0.09262, 0.21237, -0.15552, 0.96024,
 13:28:58.117,ed:35:33:d3:6c:f8, 2015-01-01 01:41:10.285, 0.433, -0.258, 0.858, -0.183, 0.366, 0.183, -16.716, -25.796, 172.925, -12.493, -4.307, -31.147, 27.63, 0.09262, 0.21237, -0.15552, 0.96024,
 13:28:58.140,ed:35:33:d3:6c:f8, 2015-01-01 01:41:10.285, 0.432, -0.258, 0.858, -0.061, 0.427, 0.061, -16.721, -25.785, 172.919, -12.200, -4.493, -32.420, 27.63, 0.09262, 0.21237, -0.15552, 0.96024,
 13:28:58.140,ed:35:33:d3:6c:f8, 2015-01-01 01:41:10.285, 0.432, -0.258, 0.858, -0.061, 0.488, 0.122, -16.721, -25.774, 172.908, -12.200, -4.493, -32.420, 27.63, 0.09262, 0.21237, -0.15552, 0.96024,
 13:28:58.159,e3:ca:2d:fd:e0:8c, 2015-01-01 01:41:10.055, 0.978, -0.18, 0.242, -0.061, 0.061, -0.183, -36.661, -72.653, -158.379, -27.620, -8.973, -9.527, 25.8, -0.03912, -0.59949, 0.14319, -0.78644,
 13:28:58.159,e3:ca:2d:fd:e0:8c, 2015-01-01 01:41:10.055, 0.977, -0.18, 0.241, -0.061, 0.061, -0.183, -36.656, -72.653, -158.395, -27.620, -8.973, -9.527, 25.8, -0.03912, -0.59949, 0.14319, -0.78644,
 13:28:58.159,ed:40:fe:65:30:6c, 2015-01-01 01:41:15.410, 0.572, -0.185, 0.805, 0, 0.183, -0.061, -12.832, -34.64, -120.905, -18.393, -5.000, -7.847, 25.66, 0.43881, -0.31, -0.05334, -0.84164,
 13:28:58.159,ed:40:fe:65:30:6c, 2015-01-01 01:41:15.410, 0.571, -0.184, 0.803, 0.061, 0.183, -0.061, -12.832, -34.64, -120.905, -18.393, -5.000, -7.847, 25.66, 0.43881, -0.31, -0.05334, -0.84164,
 13:28:58.160,f6:90:cc:01:6d:25, 2015-01-01 01:41:10.165, 0.899, -0.106, 0.397, -0.061, 0.122, -0.183, -15.117, -65.451, -156.418, -28.553, -9.900, -9.727, 30.04, 0.1008, -0.54724, -0.00119, -0.83081,
 13:28:58.160,f6:90:cc:01:6d:25, 2015-01-01 01:41:10.165, 0.898, -0.106, 0.396, -0.305, 0.122, -0.183, -15.112, -65.451, -156.44, -28.553, -9.900, -9.727, 30.04, 0.1008, -0.54724, -0.00119, -0.83081,
 13:28:58.183,f6:90:cc:01:6d:25, 2015-01-01 01:41:10.520, 0.898, -0.107, 0.397, -0.305, 0.061, -0.183, -15.112, -65.451, -156.467, -28.553, -9.900, -9.727, 30.04, 0.1008, -0.54724, -0.00119, -0.83081,
 13:28:58.183,f6:90:cc:01:6d:25, 2015-01-01 01:41:10.520, 0.898, -0.107, 0.397, -0.122, 0, -0.244, -15.112, -65.446, -156.456, -28.553, -9.900, -9.727, 30.04, 0.1008, -0.54724, -0.00119, -0.83081,
 13:28:58.184,ed:35:33:d3:6c:f8, 2015-01-01 01:41:10.285, 0.432, -0.256, 0.856, -0.061, 0.427, 0.244, -16.727, -25.763, 172.892, -12.200, -4.493, -32.420, 27.63, 0.09262, 0.21237, -0.15552, 0.96024,
 13:28:58.184,ed:35:33:d3:6c:f8, 2015-01-01 01:41:10.285, 0.431, -0.255, 0.857, -0.122, 0.488, 0.549, -16.727, -25.752, 172.886, -12.200, -4.493, -32.420, 27.63, 0.09262, 0.21237, -0.15552, 0.96024,
 13:28:58.203,ed:40:fe:65:30:6c, 2015-01-01 01:41:15.410, 0.571, -0.183, 0.803, 0.061, 0.183, 0, -12.832, -34.634, -120.91, -18.393, -5.000, -7.847, 25.66, 0.43881, -0.31, -0.05334, -0.84164,
 13:28:58.203,ed:40:fe:65:30:6c, 2015-01-01 01:41:15.410, 0.572, -0.185, 0.804, 0.122, 0.244, 0.122, -12.832, -34.634, -120.905, -18.393, -5.000, -7.847, 25.66, 0.43881, -0.31, -0.05334, -0.84164,
 13:28:58.205,f6:90:cc:01:6d:25, 2015-01-01 01:41:10.520, 0.898, -0.108, 0.397, 0, 0.061, -0.305, -15.101, -65.446, -156.434, -28.553, -9.900, -9.727, 30.04, 0.1008, -0.54724, -0.00119, -0.83081,
 13:28:58.205,f6:90:cc:01:6d:25, 2015-01-01 01:41:10.520, 0.898, -0.108, 0.397, 0.061, 0.183, -0.305, -15.09, -65.446, -156.418, -28.553, -9.900, -9.727, 30.04, 0.1008, -0.54724, -0.00119, -0.83081,
 13:28:58.226,ed:40:fe:65:30:6c, 2015-01-01 01:41:15.410, 0.572, -0.185, 0.802, 0.244, 0.427, 0, -12.832, -34.629, -120.899, -18.393, -5.000, -7.847, 25.66, 0.43881, -0.31, -0.05334, -0.84164,
 13:28:58.226,ed:40:fe:65:30:6c, 2015-01-01 01:41:15.410, 0.571, -0.183, 0.801, 0.366, 0.61, 0, -12.827, -34.618, -120.905, -18.393, -5.000, -7.847, 25.66, 0.43881, -0.31, -0.05334, -0.84164,
 13:28:58.227,e3:ca:2d:fd:e0:8c, 2015-01-01 01:41:10.055, 0.976, -0.181, 0.242, -0.061, 0.061, -0.183, -36.65, -72.658, -158.412, -27.620, -8.973, -9.527, 25.8, -0.03912, -0.59949, 0.14319, -0.78644,
 13:28:58.227,e3:ca:2d:fd:e0:8c, 2015-01-01 01:41:10.055, 0.977, -0.182, 0.243, 0, 0.122, -0.122, -36.639, -72.658, -158.417, -27.620, -8.973, -9.527, 25.8, -0.03912, -0.59949, 0.14319, -0.78644,
 13:28:58.228,f6:90:cc:01:6d:25, 2015-01-01 01:41:10.520, 0.898, -0.106, 0.398, 0, 0.183, -0.183, -15.073, -65.446, -156.407, -28.553, -9.900, -9.727, 30.04, 0.1008, -0.54724, -0.00119, -0.83081,
 13:28:58.228,f6:90:cc:01:6d:25, 2015-01-01 01:41:10.520, 0.899, -0.106, 0.398, -0.183, 0.244, -0.122, -15.068, -65.44, -156.396, -28.553, -9.900, -9.727, 30.04, 0.1008, -0.54724, -0.00119, -0.83081,
 13:28:58.230,ed:35:33:d3:6c:f8, 2015-01-01 01:41:10.285, 0.432, -0.259, 0.856, 0, 0.61, 0.488, -16.732, -25.741, 172.886, -12.200, -4.493, -32.420, 27.63, 0.09216, 0.2113, -0.15518, 0.96054,
 13:28:58.230,ed:35:33:d3:6c:f8, 2015-01-01 01:41:10.285, 0.43, -0.257, 0.855, 0.183, 0.61, 0.427, -16.732, -25.724, 172.897, -12.200, -4.493, -32.420, 27.63, 0.09216, 0.2113, -0.15518, 0.96054,
 13:28:58.250,e3:ca:2d:fd:e0:8c, 2015-01-01 01:41:10.055, 0.976, -0.183, 0.243, 0, 0.061, -0.061, -36.639, -72.658, -158.412, -27.807, -9.353, -10.360, 25.8, -0.03912, -0.59949, 0.14319, -0.78644,
 13:28:58.250,e3:ca:2d:fd:e0:8c, 2015-01-01 01:41:10.055, 0.976, -0.182, 0.243, 0, 0.061, 0, -36.639, -72.658, -158.412, -27.807, -9.353, -10.360, 25.8, -0.03912, -0.59949, 0.14319, -0.78644,
 13:28:58.272,ed:40:fe:65:30:6c, 2015-01-01 01:41:15.410, 0.571, -0.187, 0.803, 0.488, 0.732, 0.061, -12.816, -34.607, -120.91, -18.393, -5.000, -7.847, 25.66, 0.43881, -0.31, -0.05334, -0.84164,
 13:28:58.272,ed:40:fe:65:30:6c, 2015-01-01 01:41:15.410, 0.573, -0.186, 0.802, 0.366, 0.671, 0, -12.81, -34.596, -120.916, -18.393, -5.000, -7.847, 25.66, 0.43881, -0.31, -0.05334, -0.84164,
 13:28:58.274,ed:35:33:d3:6c:f8, 2015-01-01 01:41:10.600, 0.429, -0.257, 0.855, 0.305, 0.488, 0.122, -16.732, -25.714, 172.897, -12.200, -4.493, -32.420, 27.63, 0.09216, 0.2113, -0.15518, 0.96054,
 13:28:58.274,ed:35:33:d3:6c:f8, 2015-01-01 01:41:10.600, 0.43, -0.26, 0.858, 0.305, 0.183, 0.244, -16.727, -25.708, 172.903, -12.200, -4.493, -32.420, 27.63, 0.09216, 0.2113, -0.15518, 0.96054,
 13:28:58.274,f6:90:cc:01:6d:25, 2015-01-01 01:41:10.520, 0.898, -0.109, 0.396, -0.183, 0.488, -0.122, -15.062, -65.435, -156.39, -28.553, -9.900, -9.727, 30.04, 0.1008, -0.54724, -0.00119, -0.83081,
 13:28:58.274,f6:90:cc:01:6d:25, 2015-01-01 01:41:10.520, 0.899, -0.109, 0.395, 0, 0.793, -0.183, -15.057, -65.424, -156.39, -28.553, -9.900, -9.727, 30.04, 0.1008, -0.54724, -0.00119, -0.83081,
 13:28:58.294,e3:ca:2d:fd:e0:8c, 2015-01-01 01:41:10.055, 0.976, -0.182, 0.243, 0, 0.061, 0, -36.639, -72.658, -158.434, -27.807, -9.353, -10.360, 25.8, -0.03912, -0.59949, 0.14319, -0.78644,
 13:28:58.294,e3:ca:2d:fd:e0:8c, 2015-01-01 01:41:10.055, 0.977, -0.184, 0.244, 0, 0.183, 0, -36.639, -72.658, -158.456, -27.807, -9.353, -10.360, 25.8, -0.03912, -0.59949, 0.14319, -0.78644,
 13:28:58.317,e3:ca:2d:fd:e0:8c, 2015-01-01 01:41:10.055, 0.977, -0.183, 0.243, 0.061, 0.305, 0, -36.628, -72.653, -158.461, -27.807, -9.353, -10.360, 25.8, -0.04001, -0.59976, 0.14365, -0.7861,
 13:28:58.317,e3:ca:2d:fd:e0:8c, 2015-01-01 01:41:10.055, 0.977, -0.184, 0.242, 0.122, 0.488, 0, -36.612, -72.647, -158.489, -27.807, -9.353, -10.360, 25.8, -0.04001, -0.59976, 0.14365, -0.7861,
 13:28:58.319,f6:90:cc:01:6d:25, 2015-01-01 01:41:10.520, 0.898, -0.111, 0.396, -0.183, 0.916, -0.122, -15.04, -65.407, -156.401, -28.553, -9.900, -9.727, 30.04, 0.1008, -0.54724, -0.00119, -0.83081,
 13:28:58.319,f6:90:cc:01:6d:25, 2015-01-01 01:41:10.520, 0.897, -0.111, 0.397, 0, 1.038, -0.122, -15.029, -65.391, -156.396, -28.553, -9.900, -9.727, 30.04, 0.1008, -0.54724, -0.00119, -0.83081,
 13:28:58.319,ed:35:33:d3:6c:f8, 2015-01-01 01:41:10.600, 0.433, -0.258, 0.857, 0.061, -0.549, 0.122, -16.721, -25.708, 172.914, -12.200, -4.493, -32.420, 27.63, 0.09216, 0.2113, -0.15518, 0.96054,
 13:28:58.319,ed:35:33:d3:6c:f8, 2015-01-01 01:41:10.600, 0.43, -0.259, 0.855, 0.183, -0.61, 0, -16.721, -25.719, 172.919, -12.200, -4.493, -32.420, 27.63, 0.09216, 0.2113, -0.15518, 0.96054,
 13:28:58.339,ed:40:fe:65:30:6c, 2015-01-01 01:41:15.410, 0.571, -0.186, 0.802, 0.427, 0.732, 0, -12.799, -34.585, -120.932, -18.007, -4.813, -8.213, 25.66, 0.43881, -0.31, -0.05334, -0.84164,
 13:28:58.339,ed:40:fe:65:30:6c, 2015-01-01 01:41:15.410, 0.569, -0.188, 0.803, 0.488, 0.854, 0.122, -12.794, -34.574, -120.943, -18.007, -4.813, -8.213, 25.66, 0.43881, -0.31, -0.05334, -0.84164,
 13:28:58.343,ed:35:33:d3:6c:f8, 2015-01-01 01:41:10.600, 0.429, -0.26, 0.856, 0.122, -0.427, 0.305, -16.727, -25.73, 172.914, -12.200, -4.493, -32.420, 27.63, 0.09216, 0.2113, -0.15518, 0.96054,
 13:28:58.343,ed:35:33:d3:6c:f8, 2015-01-01 01:41:10.600, 0.428, -0.257, 0.86, -0.183, -0.183, 0.244, -16.727, -25.735, 172.919, -12.200, -4.493, -32.420, 27.63, 0.09216, 0.2113, -0.15518, 0.96054,
 13:28:58.362,ed:40:fe:65:30:6c, 2015-01-01 01:41:15.410, 0.569, -0.185, 0.805, 0.122, 0.854, 0.244, -12.788, -34.557, -120.959, -18.007, -4.813, -8.213, 25.66, 0.43872, -0.30923, -0.05289, -0.84201,
 13:28:58.362,ed:40:fe:65:30:6c, 2015-01-01 01:41:15.410, 0.569, -0.181, 0.805, -0.244, 0.793, 0.122, -12.788, -34.541, -120.976, -18.007, -4.813, -8.213, 25.66, 0.43872, -0.30923, -0.05289, -0.84201,
 13:28:58.362,e3:ca:2d:fd:e0:8c, 2015-01-01 01:41:10.055, 0.977, -0.184, 0.241, 0.183, 0.488, 0, -36.595, -72.636, -158.511, -27.807, -9.353, -10.360, 25.8, -0.04001, -0.59976, 0.14365, -0.7861,
 13:28:58.362,e3:ca:2d:fd:e0:8c, 2015-01-01 01:41:10.055, 0.975, -0.183, 0.241, 0.244, 0.366, 0, -36.579, -72.631, -158.516, -27.807, -9.353, -10.360, 25.8, -0.04001, -0.59976, 0.14365, -0.7861,
 13:28:58.364,f6:90:cc:01:6d:25, 2015-01-01 01:41:10.520, 0.898, -0.109, 0.399, 0.366, 0.854, -0.183, -15.018, -65.374, -156.379, -28.553, -9.900, -9.727, 30.04, 0.1008, -0.54724, -0.00119, -0.83081,
 13:28:58.364,f6:90:cc:01:6d:25, 2015-01-01 01:41:10.520, 0.898, -0.108, 0.396, 0.427, 0.916, -0.244, -14.996, -65.358, -156.374, -28.553, -9.900, -9.727, 30.04, 0.1008, -0.54724, -0.00119, -0.83081,
 13:28:58.386,f6:90:cc:01:6d:25, 2015-01-01 01:41:10.520, 0.897, -0.108, 0.398, 0.366, 0.916, -0.183, -14.974, -65.341, -156.363, -28.867, -10.140, -9.553, 30.04, 0.1008, -0.54724, -0.00119, -0.83081,
 13:28:58.386,f6:90:cc:01:6d:25, 2015-01-01 01:41:10.520, 0.899, -0.111, 0.399, 0.61, 1.038, -0.061, -14.952, -65.325, -156.341, -28.867, -10.140, -9.553, 30.04, 0.1008, -0.54724, -0.00119, -0.83081,
 13:28:58.388,ed:35:33:d3:6c:f8, 2015-01-01 01:41:10.600, 0.433, -0.253, 0.857, -1.038, -0.488, 0, -16.743, -25.735, 172.925, -12.200, -4.493, -32.420, 27.63, 0.09216, 0.2113, -0.15518, 0.96054,
 13:28:58.388,ed:35:33:d3:6c:f8, 2015-01-01 01:41:10.600, 0.433, -0.253, 0.858, -1.282, -0.671, 0, -16.765, -25.746, 172.93, -12.200, -4.493, -32.420, 27.63, 0.09216, 0.2113, -0.15518, 0.96054,
 13:28:58.406,ed:40:fe:65:30:6c, 2015-01-01 01:41:15.410, 0.573, -0.18, 0.805, -0.549, 0.916, 0.366, -12.799, -34.525, -121.003, -18.007, -4.813, -8.213, 25.66, 0.43872, -0.30923, -0.05289, -0.84201,
 13:28:58.406,ed:40:fe:65:30:6c, 2015-01-01 01:41:15.410, 0.57, -0.192, 0.807, 0.183, 0.916, 0.854, -12.81, -34.508, -121.02, -18.007, -4.813, -8.213, 25.66, 0.43872, -0.30923, -0.05289, -0.84201,
 13:28:58.408,e3:ca:2d:fd:e0:8c, 2015-01-01 01:41:10.415, 0.977, -0.182, 0.242, 0.183, 0.366, 0, -36.568, -72.631, -158.516, -27.807, -9.353, -10.360, 25.8, -0.04001, -0.59976, 0.14365, -0.7861,
 13:28:58.408,e3:ca:2d:fd:e0:8c, 2015-01-01 01:41:10.415, 0.979, -0.183, 0.242, 0.122, 0.366, 0, -36.557, -72.625, -158.527, -27.807, -9.353, -10.360, 25.8, -0.04001, -0.59976, 0.14365, -0.7861,
 13:28:58.428,ed:40:fe:65:30:6c, 2015-01-01 01:41:15.745, 0.565, -0.194, 0.807, 0.183, 0.977, 0.732, -12.816, -34.492, -121.031, -18.007, -4.813, -8.213, 25.66, 0.43872, -0.30923, -0.05289, -0.84201,
 13:28:58.428,ed:40:fe:65:30:6c, 2015-01-01 01:41:15.745, 0.566, -0.179, 0.811, 0.183, 0.671, 0.549, -12.821, -34.47, -121.031, -18.007, -4.813, -8.213, 25.66, 0.43872, -0.30923, -0.05289, -0.84201,
 13:28:58.430,f6:90:cc:01:6d:25, 2015-01-01 01:41:10.520, 0.896, -0.108, 0.4, 0.671, 1.038, -0.122, -14.925, -65.303, -156.324, -28.867, -10.140, -9.553, 30.04, 0.1008, -0.54724, -0.00119, -0.83081,
 13:28:58.430,f6:90:cc:01:6d:25, 2015-01-01 01:41:10.520, 0.895, -0.104, 0.402, 0.61, 1.16, -0.305, -14.897, -65.281, -156.324, -28.867, -10.140, -9.553, 30.04, 0.1008, -0.54724, -0.00119, -0.83081,
 13:28:58.432,ed:35:33:d3:6c:f8, 2015-01-01 01:41:10.600, 0.43, -0.269, 0.861, -0.366, -1.282, 1.221, -16.793, -25.763, 172.941, -12.200, -4.493, -32.420, 27.63, 0.09216, 0.2113, -0.15518, 0.96054,
 13:28:58.432,ed:35:33:d3:6c:f8, 2015-01-01 01:41:10.600, 0.428, -0.263, 0.861, -0.549, -1.526, 2.136, -16.82, -25.779, 172.974, -12.200, -4.493, -32.420, 27.63, 0.09216, 0.2113, -0.15518, 0.96054,
 13:28:58.452,e3:ca:2d:fd:e0:8c, 2015-01-01 01:41:10.415, 0.977, -0.182, 0.244, 0.244, 0.366, 0, -36.546, -72.62, -158.538, -27.807, -9.353, -10.360, 25.8, -0.04001, -0.59976, 0.14365, -0.7861,
 13:28:58.452,e3:ca:2d:fd:e0:8c, 2015-01-01 01:41:10.415, 0.975, -0.181, 0.244, 0.244, 0.366, 0, -36.535, -72.614, -158.533, -27.807, -9.353, -10.360, 25.8, -0.04001, -0.59976, 0.14365, -0.7861,
 13:28:58.473,ed:40:fe:65:30:6c, 2015-01-01 01:41:15.745, 0.568, -0.179, 0.81, 0, 0.61, 0.488, -12.827, -34.459, -121.031, -18.007, -4.813, -8.213, 25.66, 0.43872, -0.30923, -0.05289, -0.84201,
 13:28:58.473,ed:40:fe:65:30:6c, 2015-01-01 01:41:15.745, 0.565, -0.184, 0.813, 0, 0.427, 0.61, -12.832, -34.442, -121.025, -18.007, -4.813, -8.213, 25.66, 0.43872, -0.30923, -0.05289, -0.84201,
 13:28:58.475,e3:ca:2d:fd:e0:8c, 2015-01-01 01:41:10.415, 0.978, -0.18, 0.243, 0.061, 0.305, 0, -36.524, -72.609, -158.538, -27.807, -9.353, -10.360, 25.8, -0.04001, -0.59976, 0.14365, -0.7861,
 13:28:58.475,e3:ca:2d:fd:e0:8c, 2015-01-01 01:41:10.415, 0.978, -0.18, 0.244, 0.183, 0.244, 0, -36.513, -72.609, -158.538, -27.807, -9.353, -10.360, 25.8, -0.04001, -0.59976, 0.14365, -0.7861,
 13:28:58.499,ed:35:33:d3:6c:f8, 2015-01-01 01:41:10.600, 0.431, -0.252, 0.86, -0.366, -0.854, 1.404, -16.848, -25.79, 173.018, -12.133, -4.473, -31.900, 27.63, 0.09216, 0.2113, -0.15518, 0.96054,
 13:28:58.499,ed:35:33:d3:6c:f8, 2015-01-01 01:41:10.600, 0.429, -0.254, 0.862, -0.793, -0.122, 1.099, -16.87, -25.785, 173.057, -12.133, -4.473, -31.900, 27.63, 0.09216, 0.2113, -0.15518, 0.96054,
 13:28:58.499,f6:90:cc:01:6d:25, 2015-01-01 01:41:10.520, 0.896, -0.104, 0.402, 0.183, 1.038, -0.183, -14.87, -65.264, -156.319, -28.867, -10.140, -9.553, 30.04, 0.10269, -0.54593, -0.00275, -0.83145,
 13:28:58.499,f6:90:cc:01:6d:25, 2015-01-01 01:41:10.520, 0.897, -0.107, 0.404, 0.488, 0.854, -0.122, -14.848, -65.248, -156.308, -28.867, -10.140, -9.553, 30.04, 0.10269, -0.54593, -0.00275, -0.83145,
 13:28:58.501,ed:35:33:d3:6c:f8, 2015-01-01 01:41:10.600, 0.424, -0.261, 0.865, -0.488, -0.061, 1.221, -16.891, -25.779, 173.073, -12.133, -4.473, -31.900, 27.63, 0.09088, 0.21158, -0.15628, 0.96045,
 13:28:58.501,ed:35:33:d3:6c:f8, 2015-01-01 01:41:10.600, 0.427, -0.267, 0.867, -0.183, -0.488, 1.404, -16.908, -25.774, 173.095, -12.133, -4.473, -31.900, 27.63, 0.09088, 0.21158, -0.15628, 0.96045,
 13:28:58.518,ed:40:fe:65:30:6c, 2015-01-01 01:41:15.745, 0.563, -0.19, 0.814, 0.183, 0.305, 0.671, -12.838, -34.431, -121.02, -18.007, -4.813, -8.213, 25.66, 0.43872, -0.30923, -0.05289, -0.84201,
 13:28:58.518,ed:40:fe:65:30:6c, 2015-01-01 01:41:15.745, 0.567, -0.189, 0.813, 0.122, 0, 0.183, -12.843, -34.426, -121.02, -18.007, -4.813, -8.213, 25.66, 0.43872, -0.30923, -0.05289, -0.84201,
 13:28:58.519,e3:ca:2d:fd:e0:8c, 2015-01-01 01:41:10.415, 0.975, -0.181, 0.243, 0.122, 0.305, 0, -36.502, -72.603, -158.549, -27.807, -9.353, -10.360, 25.8, -0.04001, -0.59976, 0.14365, -0.7861,
 13:28:58.519,e3:ca:2d:fd:e0:8c, 2015-01-01 01:41:10.415, 0.977, -0.179, 0.243, -0.061, 0.183, 0, -36.497, -72.603, -158.571, -27.807, -9.353, -10.360, 25.8, -0.04001, -0.59976, 0.14365, -0.7861,
 13:28:58.521,f6:90:cc:01:6d:25, 2015-01-01 01:41:10.880, 0.895, -0.105, 0.403, 0.732, 0.671, -0.122, -14.826, -65.231, -156.292, -28.867, -10.140, -9.553, 30.04, 0.10269, -0.54593, -0.00275, -0.83145,
 13:28:58.521,f6:90:cc:01:6d:25, 2015-01-01 01:41:10.880, 0.895, -0.103, 0.402, 0.366, 0.427, -0.244, -14.804, -65.22, -156.281, -28.867, -10.140, -9.553, 30.04, 0.10269, -0.54593, -0.00275, -0.83145,
 13:28:58.543,f6:90:cc:01:6d:25, 2015-01-01 01:41:10.880, 0.896, -0.101, 0.404, -0.122, 0.244, -0.305, -14.788, -65.215, -156.275, -28.867, -10.140, -9.553, 30.04, 0.10269, -0.54593, -0.00275, -0.83145,
 13:28:58.543,f6:90:cc:01:6d:25, 2015-01-01 01:41:10.880, 0.895, -0.103, 0.401, -0.427, 0.366, -0.427, -14.771, -65.209, -156.275, -28.867, -10.140, -9.553, 30.04, 0.10269, -0.54593, -0.00275, -0.83145,
 13:28:58.545,ed:35:33:d3:6c:f8, 2015-01-01 01:41:10.600, 0.429, -0.265, 0.863, -0.427, -0.977, 1.099, -16.93, -25.779, 173.117, -12.133, -4.473, -31.900, 27.63, 0.09088, 0.21158, -0.15628, 0.96045,
 13:28:58.545,ed:35:33:d3:6c:f8, 2015-01-01 01:41:10.600, 0.432, -0.261, 0.858, -0.488, -1.77, 0.244, -16.946, -25.807, 173.134, -12.133, -4.473, -31.900, 27.63, 0.09088, 0.21158, -0.15628, 0.96045,
 13:28:58.563,ed:40:fe:65:30:6c, 2015-01-01 01:41:15.745, 0.567, -0.185, 0.807, 0.122, -0.244, -0.183, -12.843, -34.426, -121.025, -18.007, -4.813, -8.213, 25.66, 0.43872, -0.30923, -0.05289, -0.84201,
 13:28:58.563,ed:40:fe:65:30:6c, 2015-01-01 01:41:15.745, 0.568, -0.185, 0.805, 0.122, -0.305, -0.305, -12.838, -34.431, -121.047, -18.007, -4.813, -8.213, 25.66, 0.43872, -0.30923, -0.05289, -0.84201,
 13:28:58.587,e3:ca:2d:fd:e0:8c, 2015-01-01 01:41:10.415, 0.976, -0.179, 0.244, -0.061, 0.122, 0, -36.491, -72.603, -158.599, -27.807, -9.353, -10.360, 25.8, -0.04001, -0.59976, 0.14365, -0.7861,
 13:28:58.587,e3:ca:2d:fd:e0:8c, 2015-01-01 01:41:10.415, 0.976, -0.179, 0.244, -0.061, 0.061, 0, -36.491, -72.603, -158.654, -27.807, -9.353, -10.360, 25.8, -0.04001, -0.59976, 0.14365, -0.7861,
 13:28:58.588,f6:90:cc:01:6d:25, 2015-01-01 01:41:10.880, 0.896, -0.106, 0.401, -0.61, 0.61, -0.549, -14.755, -65.204, -156.292, -28.867, -10.140, -9.553, 30.04, 0.10269, -0.54593, -0.00275, -0.83145,
 13:28:58.588,f6:90:cc:01:6d:25, 2015-01-01 01:41:10.880, 0.896, -0.108, 0.403, -0.305, 0.854, -0.61, -14.733, -65.187, -156.308, -28.867, -10.140, -9.553, 30.04, 0.10269, -0.54593, -0.00275, -0.83145,
 13:28:58.590,ed:35:33:d3:6c:f8, 2015-01-01 01:41:10.910, 0.434, -0.261, 0.853, -0.671, -2.075, 0.122, -16.963, -25.84, 173.156, -12.133, -4.473, -31.900, 27.63, 0.09088, 0.21158, -0.15628, 0.96045,
 13:28:58.590,ed:35:33:d3:6c:f8, 2015-01-01 01:41:10.910, 0.434, -0.258, 0.85, -0.488, -1.77, 0.305, -16.979, -25.867, 173.183, -12.133, -4.473, -31.900, 27.63, 0.09088, 0.21158, -0.15628, 0.96045,
 13:28:58.608,ed:40:fe:65:30:6c, 2015-01-01 01:41:15.745, 0.569, -0.185, 0.801, -0.061, -0.061, -0.244, -12.832, -34.437, -121.075, -18.007, -4.813, -8.213, 25.66, 0.43872, -0.30923, -0.05289, -0.84201,
 13:28:58.608,ed:40:fe:65:30:6c, 2015-01-01 01:41:15.745, 0.567, -0.184, 0.802, -0.061, 0.244, -0.061, -12.832, -34.437, -121.086, -18.007, -4.813, -8.213, 25.66, 0.43872, -0.30923, -0.05289, -0.84201,
 13:28:58.610,e3:ca:2d:fd:e0:8c, 2015-01-01 01:41:10.415, 0.976, -0.181, 0.245, 0, 0.061, 0, -36.491, -72.603, -158.687, -27.740, -9.573, -11.140, 25.8, -0.04001, -0.59976, 0.14365, -0.7861,
 13:28:58.610,e3:ca:2d:fd:e0:8c, 2015-01-01 01:41:10.415, 0.975, -0.183, 0.246, 0.183, 0.122, 0, -36.486, -72.603, -158.698, -27.740, -9.573, -11.140, 25.8, -0.04001, -0.59976, 0.14365, -0.7861,
 13:28:58.632,ed:40:fe:65:30:6c, 2015-01-01 01:41:15.745, 0.568, -0.184, 0.803, -0.122, 0.305, 0, -12.838, -34.431, -121.08, -18.313, -4.987, -7.973, 25.66, 0.43872, -0.30923, -0.05289, -0.84201,
 13:28:58.632,ed:40:fe:65:30:6c, 2015-01-01 01:41:15.745, 0.569, -0.184, 0.804, -0.183, 0.366, 0.244, -12.838, -34.426, -121.091, -18.313, -4.987, -7.973, 25.66, 0.43872, -0.30923, -0.05289, -0.84201,
 13:28:58.634,f6:90:cc:01:6d:25, 2015-01-01 01:41:10.880, 0.896, -0.109, 0.403, -0.122, 0.977, -0.549, -14.705, -65.176, -156.313, -28.867, -10.140, -9.553, 30.04, 0.10269, -0.54593, -0.00275, -0.83145,
 13:28:58.634,f6:90:cc:01:6d:25, 2015-01-01 01:41:10.880, 0.898, -0.108, 0.403, 0, 1.099, -0.549, -14.672, -65.154, -156.33, -28.867, -10.140, -9.553, 30.04, 0.10269, -0.54593, -0.00275, -0.83145,
 13:28:58.634,ed:35:33:d3:6c:f8, 2015-01-01 01:41:10.910, 0.431, -0.259, 0.851, -0.305, -1.16, 0.244, -16.99, -25.889, 173.199, -12.133, -4.473, -31.900, 27.63, 0.09088, 0.21158, -0.15628, 0.96045,
 13:28:58.634,ed:35:33:d3:6c:f8, 2015-01-01 01:41:10.910, 0.434, -0.259, 0.852, -0.366, -1.099, 0.244, -17.007, -25.906, 173.21, -12.133, -4.473, -31.900, 27.63, 0.09088, 0.21158, -0.15628, 0.96045,
 13:28:58.654,e3:ca:2d:fd:e0:8c, 2015-01-01 01:41:10.415, 0.977, -0.184, 0.246, 0.244, 0, 0, -36.48, -72.603, -158.708, -27.740, -9.573, -11.140, 25.8, -0.04001, -0.59976, 0.14365, -0.7861,
 13:28:58.654,e3:ca:2d:fd:e0:8c, 2015-01-01 01:41:10.415, 0.977, -0.184, 0.246, 0.305, 0.061, 0, -36.475, -72.603, -158.714, -27.740, -9.573, -11.140, 25.8, -0.04001, -0.59976, 0.14365, -0.7861,
 13:28:58.676,ed:40:fe:65:30:6c, 2015-01-01 01:41:15.745, 0.567, -0.185, 0.806, -0.366, 0.366, 0.488, -12.849, -34.415, -121.091, -18.313, -4.987, -7.973, 25.66, 0.43872, -0.30923, -0.05289, -0.84201,
 13:28:58.676,ed:40:fe:65:30:6c, 2015-01-01 01:41:15.745, 0.568, -0.185, 0.808, -0.61, 0.244, 0.671, -12.865, -34.409, -121.08, -18.313, -4.987, -7.973, 25.66, 0.43872, -0.30923, -0.05289, -0.84201,
 13:28:58.678,e3:ca:2d:fd:e0:8c, 2015-01-01 01:41:10.415, 0.978, -0.185, 0.243, 0.488, 0.183, 0, -36.469, -72.603, -158.725, -27.740, -9.573, -11.140, 25.8, -0.04077, -0.59918, 0.14404, -0.78644,
 13:28:58.678,e3:ca:2d:fd:e0:8c, 2015-01-01 01:41:10.415, 0.977, -0.184, 0.244, 0.671, 0.122, 0, -36.453, -72.598, -158.741, -27.740, -9.573, -11.140, 25.8, -0.04077, -0.59918, 0.14404, -0.78644,
 13:28:58.678,f6:90:cc:01:6d:25, 2015-01-01 01:41:10.880, 0.898, -0.109, 0.402, 0.061, 1.343, -0.427, -14.639, -65.132, -156.352, -28.867, -10.140, -9.553, 30.04, 0.10269, -0.54593, -0.00275, -0.83145,
 13:28:58.678,f6:90:cc:01:6d:25, 2015-01-01 01:41:10.880, 0.901, -0.108, 0.403, 0.244, 1.709, -0.366, -14.606, -65.105, -156.368, -28.867, -10.140, -9.553, 30.04, 0.10269, -0.54593, -0.00275, -0.83145,
 13:28:58.680,ed:35:33:d3:6c:f8, 2015-01-01 01:41:10.910, 0.434, -0.259, 0.854, -0.488, -1.16, 0.122, -17.018, -25.928, 173.216, -12.133, -4.473, -31.900, 27.63, 0.09088, 0.21158, -0.15628, 0.96045,
 13:28:58.680,ed:35:33:d3:6c:f8, 2015-01-01 01:41:10.910, 0.435, -0.259, 0.857, -0.854, -2.014, 0.244, -17.04, -25.955, 173.221, -12.133, -4.473, -31.900, 27.63, 0.09088, 0.21158, -0.15628, 0.96045,
 13:28:58.702,ed:35:33:d3:6c:f8, 2015-01-01 01:41:10.910, 0.434, -0.26, 0.855, -1.343, -2.441, 0.427, -17.067, -25.999, 173.238, -12.133, -4.473, -31.900, 27.63, 0.09088, 0.21158, -0.15628, 0.96045,
 13:28:58.702,ed:35:33:d3:6c:f8, 2015-01-01 01:41:10.910, 0.444, -0.256, 0.853, -1.526, -3.845, 0.366, -17.111, -26.06, 173.276, -12.133, -4.473, -31.900, 27.63, 0.09088, 0.21158, -0.15628, 0.96045,
 13:28:58.722,e3:ca:2d:fd:e0:8c, 2015-01-01 01:41:10.415, 0.976, -0.184, 0.244, 0.793, 0.061, 0, -36.442, -72.598, -158.752, -27.740, -9.573, -11.140, 25.8, -0.04077, -0.59918, 0.14404, -0.78644,
 13:28:58.722,e3:ca:2d:fd:e0:8c, 2015-01-01 01:41:10.415, 0.977, -0.184, 0.243, 1.038, 0.061, 0, -36.425, -72.598, -158.752, -27.740, -9.573, -11.140, 25.8, -0.04077, -0.59918, 0.14404, -0.78644,
 13:28:58.724,f6:90:cc:01:6d:25, 2015-01-01 01:41:10.880, 0.897, -0.105, 0.403, -0.427, 2.319, -0.183, -14.579, -65.067, -156.39, -28.867, -10.140, -9.553, 30.04, 0.10269, -0.54593, -0.00275, -0.83145,
 13:28:58.724,f6:90:cc:01:6d:25, 2015-01-01 01:41:10.880, 0.897, -0.11, 0.402, -1.282, 3.113, -0.061, -14.568, -65.017, -156.39, -28.867, -10.140, -9.553, 30.04, 0.10269, -0.54593, -0.00275, -0.83145,
 13:28:58.744,ed:40:fe:65:30:6c, 2015-01-01 01:41:15.745, 0.568, -0.181, 0.805, -0.732, 0.61, 0.732, -12.887, -34.398, -121.047, -18.313, -4.987, -7.973, 25.66, 0.4379, -0.30856, -0.05136, -0.84277,
 13:28:58.744,ed:40:fe:65:30:6c, 2015-01-01 01:41:15.745, 0.574, -0.18, 0.803, -1.16, 1.099, 0.793, -12.914, -34.382, -121.009, -18.313, -4.987, -7.973, 25.66, 0.4379, -0.30856, -0.05136, -0.84277,
 13:28:58.745,f6:90:cc:01:6d:25, 2015-01-01 01:41:10.880, 0.897, -0.106, 0.4, -1.16, 3.357, 0.061, -14.562, -64.957, -156.385, -28.520, -9.560, -9.427, 30.04, 0.10269, -0.54593, -0.00275, -0.83145,
 13:28:58.745,f6:90:cc:01:6d:25, 2015-01-01 01:41:10.880, 0.898, -0.103, 0.398, -1.648, 3.784, 0.183, -14.562, -64.891, -156.396, -28.520, -9.560, -9.427, 30.04, 0.10269, -0.54593, -0.00275, -0.83145,
 13:28:58.746,ed:35:33:d3:6c:f8, 2015-01-01 01:41:10.910, 0.445, -0.252, 0.844, -2.686, -4.089, -0.488, -17.166, -26.136, 173.315, -12.133, -4.473, -31.900, 27.63, 0.09088, 0.21158, -0.15628, 0.96045,
 13:28:58.746,ed:35:33:d3:6c:f8, 2015-01-01 01:41:10.910, 0.444, -0.261, 0.842, -3.662, -4.272, -0.854, -17.232, -26.219, 173.331, -12.133, -4.473, -31.900, 27.63, 0.09088, 0.21158, -0.15628, 0.96045,
 13:28:58.767,ed:40:fe:65:30:6c, 2015-01-01 01:41:16.080, 0.571, -0.177, 0.795, -2.38, 1.282, 1.099, -12.958, -34.354, -120.97, -18.313, -4.987, -7.973, 25.66, 0.4379, -0.30856, -0.05136, -0.84277,
 13:28:58.767,ed:40:fe:65:30:6c, 2015-01-01 01:41:16.080, 0.568, -0.186, 0.796, -3.235, 1.16, 0.916, -13.019, -34.332, -120.938, -18.313, -4.987, -7.973, 25.66, 0.4379, -0.30856, -0.05136, -0.84277,
 13:28:58.767,e3:ca:2d:fd:e0:8c, 2015-01-01 01:41:10.770, 0.979, -0.18, 0.246, 1.282, 0.427, 0, -36.403, -72.598, -158.752, -27.740, -9.573, -11.140, 25.8, -0.04077, -0.59918, 0.14404, -0.78644,
 13:28:58.767,e3:ca:2d:fd:e0:8c, 2015-01-01 01:41:10.770, 0.983, -0.179, 0.239, 1.099, 0.854, -0.549, -36.354, -72.592, -158.774, -27.740, -9.573, -11.140, 25.8, -0.04077, -0.59918, 0.14404, -0.78644,
 13:28:58.788,ed:40:fe:65:30:6c, 2015-01-01 01:41:16.080, 0.57, -0.183, 0.804, -3.601, 0.793, 1.038, -13.096, -34.31, -120.91, -18.313, -4.987, -7.973, 25.66, 0.4379, -0.30856, -0.05136, -0.84277,
 13:28:58.788,ed:40:fe:65:30:6c, 2015-01-01 01:41:16.080, 0.576, -0.188, 0.806, -2.747, 0.183, 1.343, -13.173, -34.299, -120.866, -18.313, -4.987, -7.973, 25.66, 0.4379, -0.30856, -0.05136, -0.84277,
 13:28:58.792,ed:35:33:d3:6c:f8, 2015-01-01 01:41:10.910, 0.446, -0.26, 0.848, -4.822, -5.493, -0.549, -17.331, -26.323, 173.337, -12.460, -3.900, -32.233, 27.63, 0.09088, 0.21158, -0.15628, 0.96045,
 13:28:58.792,ed:35:33:d3:6c:f8, 2015-01-01 01:41:10.910, 0.45, -0.26, 0.85, -5.127, -5.737, -0.122, -17.441, -26.428, 173.359, -12.460, -3.900, -32.233, 27.63, 0.09088, 0.21158, -0.15628, 0.96045,
 13:28:58.792,f6:90:cc:01:6d:25, 2015-01-01 01:41:10.880, 0.901, -0.108, 0.388, -2.502, 4.211, 0.183, -14.573, -64.814, -156.401, -28.520, -9.560, -9.427, 30.04, 0.10269, -0.54593, -0.00275, -0.83145,
 13:28:58.792,f6:90:cc:01:6d:25, 2015-01-01 01:41:10.880, 0.904, -0.106, 0.392, -0.671, 4.15, 0.305, -14.568, -64.737, -156.412, -28.520, -9.560, -9.427, 30.04, 0.10269, -0.54593, -0.00275, -0.83145,
 13:28:58.812,e3:ca:2d:fd:e0:8c, 2015-01-01 01:41:10.770, 0.985, -0.18, 0.237, 1.038, 2.38, -0.671, -36.26, -72.576, -158.84, -27.740, -9.573, -11.140, 25.8, -0.04077, -0.59918, 0.14404, -0.78644,
 13:28:58.812,e3:ca:2d:fd:e0:8c, 2015-01-01 01:41:10.770, 0.983, -0.179, 0.24, 1.038, 3.296, -0.427, -36.123, -72.548, -158.972, -27.740, -9.573, -11.140, 25.8, -0.04077, -0.59918, 0.14404, -0.78644,
 13:28:58.833,ed:40:fe:65:30:6c, 2015-01-01 01:41:16.080, 0.582, -0.19, 0.804, -2.38, -0.061, 1.16, -13.233, -34.299, -120.811, -18.313, -4.987, -7.973, 25.66, 0.4379, -0.30856, -0.05136, -0.84277,
 13:28:58.833,ed:40:fe:65:30:6c, 2015-01-01 01:41:16.080, 0.579, -0.184, 0.798, -2.075, -0.061, 1.343, -13.293, -34.299, -120.745, -18.313, -4.987, -7.973, 25.66, 0.4379, -0.30856, -0.05136, -0.84277,
 13:28:58.837,e3:ca:2d:fd:e0:8c, 2015-01-01 01:41:10.770, 0.977, -0.182, 0.237, 1.221, 3.662, -0.183, -35.964, -72.499, -159.12, -27.740, -9.573, -11.140, 25.8, -0.04077, -0.59918, 0.14404, -0.78644,
 13:28:58.837,e3:ca:2d:fd:e0:8c, 2015-01-01 01:41:10.770, 0.972, -0.184, 0.241, 1.587, 3.601, -0.183, -35.804, -72.449, -159.274, -27.740, -9.573, -11.140, 25.8, -0.04077, -0.59918, 0.14404, -0.78644,
 13:28:58.837,ed:35:33:d3:6c:f8, 2015-01-01 01:41:10.910, 0.456, -0.269, 0.851, -4.089, -5.859, -0.061, -17.534, -26.537, 173.397, -12.460, -3.900, -32.233, 27.63, 0.0903, 0.21771, -0.16101, 0.95834,
 13:28:58.837,ed:35:33:d3:6c:f8, 2015-01-01 01:41:10.910, 0.463, -0.265, 0.841, -3.723, -6.653, 0.305, -17.628, -26.658, 173.447, -12.460, -3.900, -32.233, 27.63, 0.0903, 0.21771, -0.16101, 0.95834,
 13:28:58.861,f6:90:cc:01:6d:25, 2015-01-01 01:41:10.880, 0.899, -0.105, 0.401, 0.061, 4.578, 0.305, -14.54, -64.66, -156.429, -28.520, -9.560, -9.427, 30.04, 0.10464, -0.54199, -0.00372, -0.83377,
 13:28:58.861,f6:90:cc:01:6d:25, 2015-01-01 01:41:10.880, 0.896, -0.105, 0.407, 0.549, 4.578, 0.183, -14.496, -64.578, -156.484, -28.520, -9.560, -9.427, 30.04, 0.10464, -0.54199, -0.00372, -0.83377,
 13:28:58.879,ed:40:fe:65:30:6c, 2015-01-01 01:41:16.080, 0.572, -0.183, 0.791, -1.77, -0.061, 1.587, -13.343, -34.299, -120.69, -18.313, -4.987, -7.973, 25.66, 0.4379, -0.30856, -0.05136, -0.84277,
 13:28:58.879,ed:40:fe:65:30:6c, 2015-01-01 01:41:16.080, 0.572, -0.179, 0.793, -2.136, 0.183, 2.136, -13.403, -34.299, -120.624, -18.313, -4.987, -7.973, 25.66, 0.4379, -0.30856, -0.05136, -0.84277,
 13:28:58.879,e3:ca:2d:fd:e0:8c, 2015-01-01 01:41:10.770, 0.97, -0.18, 0.247, 1.709, 3.235, -0.305, -35.645, -72.4, -159.434, -27.740, -9.573, -11.140, 25.8, -0.04077, -0.59918, 0.14404, -0.78644,
 13:28:58.879,e3:ca:2d:fd:e0:8c, 2015-01-01 01:41:10.770, 0.972, -0.176, 0.251, 1.343, 2.808, -0.305, -35.502, -72.356, -159.576, -27.740, -9.573, -11.140, 25.8, -0.04077, -0.59918, 0.14404, -0.78644,
 13:28:58.880,f6:90:cc:01:6d:25, 2015-01-01 01:41:11.235, 0.89, -0.104, 0.412, 0.732, 4.456, 0.549, -14.458, -64.495, -156.555, -28.520, -9.560, -9.427, 30.04, 0.10464, -0.54199, -0.00372, -0.83377,
 13:28:58.880,f6:90:cc:01:6d:25, 2015-01-01 01:41:11.235, 0.891, -0.101, 0.415, 0, 4.456, 0.977, -14.447, -64.413, -156.599, -28.520, -9.560, -9.427, 30.04, 0.10464, -0.54199, -0.00372, -0.83377,
 13:28:58.882,ed:35:33:d3:6c:f8, 2015-01-01 01:41:10.910, 0.459, -0.261, 0.834, -2.441, -5.737, 0.244, -17.699, -26.768, 173.48, -12.460, -3.900, -32.233, 27.63, 0.0903, 0.21771, -0.16101, 0.95834,
 13:28:58.882,ed:35:33:d3:6c:f8, 2015-01-01 01:41:10.910, 0.457, -0.258, 0.829, -2.502, -7.08, 0.549, -17.765, -26.895, 173.518, -12.460, -3.900, -32.233, 27.63, 0.0903, 0.21771, -0.16101, 0.95834,
 13:28:58.906,ed:35:33:d3:6c:f8, 2015-01-01 01:41:10.910, 0.457, -0.246, 0.825, -3.113, -5.31, 1.77, -17.847, -26.999, 173.568, -12.460, -3.900, -32.233, 27.8, 0.0903, 0.21771, -0.16101, 0.95834,
 13:28:58.906,ed:35:33:d3:6c:f8, 2015-01-01 01:41:10.910, 0.458, -0.242, 0.823, -3.479, -5.554, 1.221, -17.935, -27.098, 173.606, -12.460, -3.900, -32.233, 27.8, 0.0903, 0.21771, -0.16101, 0.95834,
 13:28:58.925,f6:90:cc:01:6d:25, 2015-01-01 01:41:11.235, 0.893, -0.101, 0.417, -1.099, 4.7, 1.282, -14.469, -64.325, -156.621, -28.520, -9.560, -9.427, 30.04, 0.10464, -0.54199, -0.00372, -0.83377,
 13:28:58.925,f6:90:cc:01:6d:25, 2015-01-01 01:41:11.235, 0.891, -0.107, 0.419, -2.38, 5.554, 1.526, -14.507, -64.221, -156.632, -28.520, -9.560, -9.427, 30.04, 0.10464, -0.54199, -0.00372, -0.83377,
 13:28:58.946,ed:40:fe:65:30:6c, 2015-01-01 01:41:16.080, 0.569, -0.17, 0.793, -2.747, 1.221, 3.235, -13.48, -34.277, -120.542, -18.313, -4.987, -7.973, 25.66, 0.4379, -0.30856, -0.05136, -0.84277,
 13:28:58.946,ed:40:fe:65:30:6c, 2015-01-01 01:41:16.080, 0.571, -0.166, 0.787, -3.906, 2.258, 4.578, -13.585, -34.233, -120.449, -18.313, -4.987, -7.973, 25.66, 0.4379, -0.30856, -0.05136, -0.84277,
 13:28:58.948,e3:ca:2d:fd:e0:8c, 2015-01-01 01:41:10.770, 0.974, -0.177, 0.255, 0.916, 2.441, -0.244, -35.376, -72.323, -159.697, -27.740, -9.573, -11.140, 25.8, -0.04077, -0.59918, 0.14404, -0.78644,
 13:28:58.948,e3:ca:2d:fd:e0:8c, 2015-01-01 01:41:10.770, 0.972, -0.178, 0.259, 0.793, 2.441, -0.244, -35.266, -72.29, -159.78, -27.740, -9.573, -11.140, 25.8, -0.04077, -0.59918, 0.14404, -0.78644,
 13:28:58.948,f6:90:cc:01:6d:25, 2015-01-01 01:41:11.235, 0.89, -0.109, 0.419, -2.991, 6.531, 1.953, -14.573, -64.1, -156.627, -28.520, -9.560, -9.427, 30.04, 0.10464, -0.54199, -0.00372, -0.83377,
 13:28:58.948,f6:90:cc:01:6d:25, 2015-01-01 01:41:11.235, 0.886, -0.105, 0.42, -2.808, 7.507, 2.747, -14.656, -63.951, -156.599, -28.520, -9.560, -9.427, 30.04, 0.10464, -0.54199, -0.00372, -0.83377,
 13:28:58.951,ed:35:33:d3:6c:f8, 2015-01-01 01:41:10.910, 0.471, -0.233, 0.814, -5.249, -7.08, -0.122, -18.045, -27.224, 173.633, -12.460, -3.900, -32.233, 27.8, 0.0903, 0.21771, -0.16101, 0.95834,
 13:28:58.951,ed:35:33:d3:6c:f8, 2015-01-01 01:41:10.910, 0.473, -0.223, 0.808, -7.202, -8.118, -0.793, -18.177, -27.383, 173.644, -12.460, -3.900, -32.233, 27.8, 0.0903, 0.21771, -0.16101, 0.95834,
 13:28:58.970,ed:40:fe:65:30:6c, 2015-01-01 01:41:16.080, 0.571, -0.157, 0.782, -6.287, 3.296, 6.348, -13.733, -34.167, -120.317, -18.140, -4.340, -8.080, 25.66, 0.4379, -0.30856, -0.05136, -0.84277,
 13:28:58.970,ed:40:fe:65:30:6c, 2015-01-01 01:41:16.080, 0.571, -0.154, 0.782, -7.812, 4.211, 7.996, -13.942, -34.074, -120.152, -18.140, -4.340, -8.080, 25.66, 0.4379, -0.30856, -0.05136, -0.84277,
 13:28:58.970,e3:ca:2d:fd:e0:8c, 2015-01-01 01:41:10.770, 0.969, -0.178, 0.261, 0.854, 2.625, -0.488, -35.151, -72.257, -159.879, -27.793, -9.500, -10.760, 25.8, -0.04077, -0.59918, 0.14404, -0.78644,
 13:28:58.970,e3:ca:2d:fd:e0:8c, 2015-01-01 01:41:10.770, 0.971, -0.178, 0.259, 0.732, 2.686, -0.732, -35.019, -72.219, -160.016, -27.793, -9.500, -10.760, 25.8, -0.04077, -0.59918, 0.14404, -0.78644,
