Time,Device name,Chip Time(),Acceleration X(g),Acceleration Y(g),Acceleration Z(g),Angular velocity X(°/s),Angular velocity Y(°/s),Angular velocity Z(°/s),Angle X(°),Angle Y(°),Angle Z(°),Magnetic field X(ʯt),Magnetic field Y(ʯt),Magnetic field Z(ʯt),Temperature(℃),Quaternions 0(),Quaternions 1(),Quaternions 2(),Quaternions 3()
 12:05:48.565,e3:ca:2d:fd:e0:8c, 2015-01-01 01:35:44.140, 0.924, -0.1, -0.408, 0.305, -0.122, 0.061, -166.317, -65.374, -49.603, -26.560, -8.807, 3.287, 25.01, 0.13412, 0.78549, -0.29239, 0.52859,
 12:05:48.565,e3:ca:2d:fd:e0:8c, 2015-01-01 01:35:44.140, 0.926, -0.101, -0.414, 0.244, 0, 0, -166.311, -65.374, -49.603, -26.560, -8.807, 3.287, 25.01, 0.13412, 0.78549, -0.29239, 0.52859,
 12:05:48.571,ed:35:33:d3:6c:f8, 2015-01-01 01:35:43.505, 0.887, 0.138, 0.44, -0.671, -1.953, 2.258, 15.623, -61.452, 133.621, -21.453, -11.900, -17.880, 27.06, 0.27328, 0.50833, -0.09204, 0.81137,
 12:05:48.571,ed:35:33:d3:6c:f8, 2015-01-01 01:35:43.505, 0.883, 0.127, 0.437, 1.221, 4.395, 1.77, 15.551, -61.469, 133.654, -21.453, -11.900, -17.880, 27.06, 0.27328, 0.50833, -0.09204, 0.81137,
 12:05:48.574,ed:40:fe:65:30:6c, 2015-01-01 01:35:43.045, 0.885, 0.053, 0.481, 0.793, 0.732, 0.61, 6.356, -60.419, -121.718, -25.660, -9.053, 4.307, 22.39, -0.44556, 0.41589, 0.28793, 0.73859,
 12:05:48.574,ed:40:fe:65:30:6c, 2015-01-01 01:35:43.045, 0.878, 0.054, 0.488, 1.038, 0.549, 0.61, 6.35, -60.408, -121.696, -25.660, -9.053, 4.307, 22.39, -0.44556, 0.41589, 0.28793, 0.73859,
 12:05:48.597,f6:90:cc:01:6d:25, 2015-01-01 01:35:44.060, 0.937, 0.085, -0.312, 0.305, 0.916, 0.061, 163.976, -71.12, 15.623, -28.693, -14.200, 9.427, 27.14, -0.03308, -0.80905, -0.03003, -0.58594,
 12:05:48.597,f6:90:cc:01:6d:25, 2015-01-01 01:35:44.060, 0.937, 0.086, -0.317, 0.427, 1.282, 0, 163.965, -71.142, 15.623, -28.693, -14.200, 9.427, 27.14, -0.03308, -0.80905, -0.03003, -0.58594,
 12:05:48.599,ed:35:33:d3:6c:f8, 2015-01-01 01:35:43.505, 0.881, 0.128, 0.448, 1.099, 7.202, 1.343, 15.474, -61.381, 133.726, -21.453, -11.900, -17.880, 27.06, 0.27328, 0.50833, -0.09204, 0.81137,
 12:05:48.599,ed:35:33:d3:6c:f8, 2015-01-01 01:35:43.505, 0.873, 0.126, 0.459, -0.916, 6.836, 3.967, 15.359, -61.26, 133.819, -21.453, -11.900, -17.880, 27.06, 0.27328, 0.50833, -0.09204, 0.81137,
 12:05:48.625,e3:ca:2d:fd:e0:8c, 2015-01-01 01:35:44.140, 0.925, -0.101, -0.42, 0.244, 0.183, 0, -166.306, -65.38, -49.609, -26.560, -8.807, 3.287, 25.01, 0.13412, 0.78549, -0.29239, 0.52859,
 12:05:48.625,e3:ca:2d:fd:e0:8c, 2015-01-01 01:35:44.140, 0.925, -0.1, -0.425, 0.305, 0.427, 0, -166.3, -65.385, -49.614, -26.560, -8.807, 3.287, 25.01, 0.13412, 0.78549, -0.29239, 0.52859,
 12:05:48.627,f6:90:cc:01:6d:25, 2015-01-01 01:35:44.060, 0.937, 0.088, -0.316, 0.366, 1.343, 0, 163.954, -71.169, 15.617, -28.693, -14.200, 9.427, 27.14, -0.03308, -0.80905, -0.03003, -0.58594,
 12:05:48.627,f6:90:cc:01:6d:25, 2015-01-01 01:35:44.060, 0.937, 0.088, -0.316, 0.061, 1.221, 0, 163.943, -71.191, 15.623, -28.693, -14.200, 9.427, 27.14, -0.03308, -0.80905, -0.03003, -0.58594,
 12:05:48.630,ed:35:33:d3:6c:f8, 2015-01-01 01:35:43.505, 0.857, 0.123, 0.469, 1.038, 8.057, 0.977, 15.178, -61.15, 133.984, -21.453, -11.900, -17.880, 27.06, 0.27328, 0.50833, -0.09204, 0.81137,
 12:05:48.630,ed:35:33:d3:6c:f8, 2015-01-01 01:35:43.505, 0.867, 0.131, 0.481, -4.272, 2.686, 5.798, 14.985, -61.068, 134.193, -21.453, -11.900, -17.880, 27.06, 0.27328, 0.50833, -0.09204, 0.81137,
 12:05:48.633,ed:40:fe:65:30:6c, 2015-01-01 01:35:43.045, 0.875, 0.057, 0.492, 1.038, 0.366, 0.793, 6.35, -60.403, -121.663, -25.660, -9.053, 4.307, 22.39, -0.44464, 0.41537, 0.2865, 0.73999,
 12:05:48.633,ed:40:fe:65:30:6c, 2015-01-01 01:35:43.045, 0.864, 0.053, 0.498, 0.916, 0.427, 0.61, 6.345, -60.403, -121.619, -25.660, -9.053, 4.307, 22.39, -0.44464, 0.41537, 0.2865, 0.73999,
 12:05:48.656,e3:ca:2d:fd:e0:8c, 2015-01-01 01:35:44.140, 0.925, -0.1, -0.426, 0.122, 0.549, 0, -166.295, -65.396, -49.636, -26.560, -8.807, 3.287, 25.01, 0.13412, 0.78549, -0.29239, 0.52859,
 12:05:48.656,e3:ca:2d:fd:e0:8c, 2015-01-01 01:35:44.140, 0.925, -0.1, -0.428, 0.122, 0.671, 0, -166.289, -65.407, -49.647, -26.560, -8.807, 3.287, 25.01, 0.13412, 0.78549, -0.29239, 0.52859,
 12:05:48.657,f6:90:cc:01:6d:25, 2015-01-01 01:35:44.060, 0.936, 0.088, -0.315, 0.122, 0.916, 0, 163.927, -71.208, 15.617, -29.113, -14.020, 9.293, 27.14, -0.03308, -0.80905, -0.03003, -0.58594,
 12:05:48.657,f6:90:cc:01:6d:25, 2015-01-01 01:35:44.060, 0.934, 0.086, -0.311, -0.122, 0.305, 0, 163.922, -71.219, 15.623, -29.113, -14.020, 9.293, 27.14, -0.03308, -0.80905, -0.03003, -0.58594,
 12:05:48.663,ed:40:fe:65:30:6c, 2015-01-01 01:35:43.400, 0.862, 0.053, 0.505, 1.038, 0, 0.671, 6.339, -60.403, -121.586, -25.660, -9.053, 4.307, 22.39, -0.44464, 0.41537, 0.2865, 0.73999,
 12:05:48.663,ed:40:fe:65:30:6c, 2015-01-01 01:35:43.400, 0.857, 0.052, 0.51, 1.099, -0.244, 0.671, 6.339, -60.403, -121.553, -25.660, -9.053, 4.307, 22.39, -0.44464, 0.41537, 0.2865, 0.73999,
 12:05:48.685,e3:ca:2d:fd:e0:8c, 2015-01-01 01:35:44.140, 0.924, -0.101, -0.425, 0.122, 0.671, 0, -166.284, -65.413, -49.658, -27.067, -8.353, 3.027, 25.01, 0.13412, 0.78549, -0.29239, 0.52859,
 12:05:48.685,e3:ca:2d:fd:e0:8c, 2015-01-01 01:35:44.140, 0.923, -0.102, -0.418, 0.061, 0.427, 0, -166.278, -65.418, -49.669, -27.067, -8.353, 3.027, 25.01, 0.13412, 0.78549, -0.29239, 0.52859,
 12:05:48.689,ed:35:33:d3:6c:f8, 2015-01-01 01:35:43.505, 0.854, 0.113, 0.49, 1.892, 3.235, 1.77, 14.81, -61.035, 134.39, -21.453, -11.900, -17.880, 27.06, 0.27328, 0.50833, -0.09204, 0.81137,
 12:05:48.689,ed:35:33:d3:6c:f8, 2015-01-01 01:35:43.505, 0.835, 0.119, 0.49, 1.099, -0.061, 1.221, 14.782, -61.007, 134.467, -21.453, -11.900, -17.880, 27.06, 0.27328, 0.50833, -0.09204, 0.81137,
 12:05:48.717,f6:90:cc:01:6d:25, 2015-01-01 01:35:44.060, 0.933, 0.084, -0.305, -0.244, -0.122, 0, 163.922, -71.219, 15.628, -29.113, -14.020, 9.293, 27.14, -0.03308, -0.80905, -0.03003, -0.58594,
 12:05:48.717,f6:90:cc:01:6d:25, 2015-01-01 01:35:44.060, 0.934, 0.087, -0.302, -0.183, -0.549, 0, 163.927, -71.208, 15.634, -29.113, -14.020, 9.293, 27.14, -0.03308, -0.80905, -0.03003, -0.58594,
 12:05:48.721,ed:35:33:d3:6c:f8, 2015-01-01 01:35:43.505, 0.861, 0.126, 0.492, -2.502, -4.395, 2.38, 14.727, -61.057, 134.533, -21.453, -11.900, -17.880, 27.06, 0.27328, 0.50833, -0.09204, 0.81137,
 12:05:48.721,ed:35:33:d3:6c:f8, 2015-01-01 01:35:43.505, 0.859, 0.119, 0.481, 1.526, -3.662, 1.892, 14.678, -61.139, 134.577, -21.453, -11.900, -17.880, 27.06, 0.27328, 0.50833, -0.09204, 0.81137,
 12:05:48.723,ed:40:fe:65:30:6c, 2015-01-01 01:35:43.400, 0.849, 0.052, 0.511, 0.305, -0.488, 0.244, 6.339, -60.408, -121.525, -25.660, -9.053, 4.307, 22.39, -0.44464, 0.41537, 0.2865, 0.73999,
 12:05:48.723,ed:40:fe:65:30:6c, 2015-01-01 01:35:43.400, 0.859, 0.057, 0.512, 0, -0.183, 0, 6.334, -60.414, -121.503, -25.660, -9.053, 4.307, 22.39, -0.44464, 0.41537, 0.2865, 0.73999,
 12:05:48.745,e3:ca:2d:fd:e0:8c, 2015-01-01 01:35:44.140, 0.925, -0.1, -0.414, 0.122, 0.244, 0, -166.278, -65.418, -49.675, -27.067, -8.353, 3.027, 25.01, 0.13412, 0.78549, -0.29239, 0.52859,
 12:05:48.745,e3:ca:2d:fd:e0:8c, 2015-01-01 01:35:44.140, 0.924, -0.099, -0.413, 0, 0.061, 0, -166.278, -65.413, -49.691, -27.067, -8.353, 3.027, 25.01, 0.13412, 0.78549, -0.29239, 0.52859,
 12:05:48.747,f6:90:cc:01:6d:25, 2015-01-01 01:35:44.060, 0.933, 0.088, -0.301, -0.366, -0.854, 0, 163.938, -71.191, 15.601, -29.113, -14.020, 9.293, 27.14, -0.03415, -0.80856, -0.02887, -0.58661,
 12:05:48.747,f6:90:cc:01:6d:25, 2015-01-01 01:35:44.060, 0.933, 0.087, -0.298, -0.183, -1.221, 0, 163.954, -71.169, 15.557, -29.113, -14.020, 9.293, 27.14, -0.03415, -0.80856, -0.02887, -0.58661,
 12:05:48.749,ed:35:33:d3:6c:f8, 2015-01-01 01:35:43.505, 0.861, 0.123, 0.479, 1.77, -5.737, 0, 14.722, -61.221, 134.566, -21.347, -11.613, -17.760, 27.06, 0.27328, 0.50833, -0.09204, 0.81137,
 12:05:48.749,ed:35:33:d3:6c:f8, 2015-01-01 01:35:43.505, 0.842, 0.126, 0.479, 2.686, -6.47, 2.747, 14.771, -61.337, 134.555, -21.347, -11.613, -17.760, 27.06, 0.27328, 0.50833, -0.09204, 0.81137,
 12:05:48.754,ed:40:fe:65:30:6c, 2015-01-01 01:35:43.400, 0.862, 0.055, 0.507, 0.183, 0.549, 0.244, 6.334, -60.403, -121.481, -25.660, -9.053, 4.307, 22.39, -0.44464, 0.41537, 0.2865, 0.73999,
 12:05:48.754,ed:40:fe:65:30:6c, 2015-01-01 01:35:43.400, 0.861, 0.052, 0.504, 0.366, 0.244, 0.61, 6.323, -60.386, -121.454, -25.660, -9.053, 4.307, 22.39, -0.44464, 0.41537, 0.2865, 0.73999,
 12:05:48.775,e3:ca:2d:fd:e0:8c, 2015-01-01 01:35:44.140, 0.924, -0.098, -0.409, 0, -0.122, 0, -166.284, -65.407, -49.719, -27.067, -8.353, 3.027, 25.01, 0.13419, 0.78519, -0.29239, 0.52905,
 12:05:48.775,e3:ca:2d:fd:e0:8c, 2015-01-01 01:35:44.140, 0.923, -0.101, -0.405, 0, -0.305, 0, -166.289, -65.402, -49.741, -27.067, -8.353, 3.027, 25.01, 0.13419, 0.78519, -0.29239, 0.52905,
 12:05:48.778,f6:90:cc:01:6d:25, 2015-01-01 01:35:44.060, 0.932, 0.085, -0.292, -0.61, -1.709, 0, 163.971, -71.142, 15.518, -29.113, -14.020, 9.293, 27.14, -0.03415, -0.80856, -0.02887, -0.58661,
 12:05:48.778,f6:90:cc:01:6d:25, 2015-01-01 01:35:44.060, 0.93, 0.084, -0.29, -0.916, -2.136, 0, 163.987, -71.109, 15.507, -29.113, -14.020, 9.293, 27.14, -0.03415, -0.80856, -0.02887, -0.58661,
 12:05:48.784,ed:40:fe:65:30:6c, 2015-01-01 01:35:43.400, 0.852, 0.055, 0.507, 0.916, -0.549, 1.282, 6.301, -60.381, -121.404, -25.660, -9.053, 4.307, 22.39, -0.44464, 0.41537, 0.2865, 0.73999,
 12:05:48.784,ed:40:fe:65:30:6c, 2015-01-01 01:35:43.400, 0.865, 0.054, 0.506, 0.671, -1.099, 1.404, 6.273, -60.386, -121.349, -25.660, -9.053, 4.307, 22.39, -0.44464, 0.41537, 0.2865, 0.73999,
 12:05:48.806,e3:ca:2d:fd:e0:8c, 2015-01-01 01:35:44.140, 0.923, -0.099, -0.397, 0.061, -0.916, 0, -166.295, -65.385, -49.752, -27.067, -8.353, 3.027, 25.01, 0.13419, 0.78519, -0.29239, 0.52905,
 12:05:48.806,e3:ca:2d:fd:e0:8c, 2015-01-01 01:35:44.140, 0.922, -0.097, -0.397, 0, -1.221, 0, -166.306, -65.369, -49.746, -27.067, -8.353, 3.027, 25.01, 0.13419, 0.78519, -0.29239, 0.52905,
 12:05:48.810,ed:35:33:d3:6c:f8, 2015-01-01 01:35:43.505, 0.877, 0.128, 0.479, -2.075, -11.108, 4.089, 14.738, -61.507, 134.599, -21.347, -11.613, -17.760, 27.06, 0.27328, 0.50833, -0.09204, 0.81137,
 12:05:48.810,ed:35:33:d3:6c:f8, 2015-01-01 01:35:43.505, 0.872, 0.111, 0.461, 1.709, -7.019, 3.296, 14.689, -61.683, 134.659, -21.347, -11.613, -17.760, 27.06, 0.27328, 0.50833, -0.09204, 0.81137,
 12:05:48.812,ed:40:fe:65:30:6c, 2015-01-01 01:35:43.400, 0.87, 0.054, 0.498, 0.61, -0.61, 1.404, 6.24, -60.397, -121.295, -25.660, -9.053, 4.307, 22.39, -0.44464, 0.41537, 0.2865, 0.73999,
 12:05:48.812,ed:40:fe:65:30:6c, 2015-01-01 01:35:43.400, 0.875, 0.053, 0.488, 1.038, -1.099, 1.282, 6.207, -60.408, -121.245, -25.660, -9.053, 4.307, 22.39, -0.44464, 0.41537, 0.2865, 0.73999,
 12:05:48.837,f6:90:cc:01:6d:25, 2015-01-01 01:35:44.420, 0.93, 0.087, -0.29, -0.671, -2.319, 0, 164.009, -71.071, 15.502, -29.113, -14.020, 9.293, 27.14, -0.03415, -0.80856, -0.02887, -0.58661,
 12:05:48.837,f6:90:cc:01:6d:25, 2015-01-01 01:35:44.420, 0.93, 0.089, -0.291, -0.549, -2.258, 0, 164.031, -71.032, 15.535, -29.113, -14.020, 9.293, 27.14, -0.03415, -0.80856, -0.02887, -0.58661,
 12:05:48.840,ed:35:33:d3:6c:f8, 2015-01-01 01:35:43.505, 0.88, 0.119, 0.449, 0.977, -7.019, 1.404, 14.694, -61.815, 134.687, -21.347, -11.613, -17.760, 27.06, 0.26788, 0.51126, -0.0946, 0.81104,
 12:05:48.840,ed:35:33:d3:6c:f8, 2015-01-01 01:35:43.505, 0.881, 0.115, 0.443, 1.831, -5.066, 1.282, 14.727, -61.924, 134.67, -21.347, -11.613, -17.760, 27.06, 0.26788, 0.51126, -0.0946, 0.81104,
 12:05:48.865,e3:ca:2d:fd:e0:8c, 2015-01-01 01:35:44.500, 0.922, -0.098, -0.399, 0, -1.465, 0, -166.317, -65.347, -49.73, -27.067, -8.353, 3.027, 25.01, 0.13419, 0.78519, -0.29239, 0.52905,
 12:05:48.865,e3:ca:2d:fd:e0:8c, 2015-01-01 01:35:44.500, 0.922, -0.098, -0.402, 0, -1.587, 0, -166.333, -65.319, -49.708, -27.067, -8.353, 3.027, 25.01, 0.13419, 0.78519, -0.29239, 0.52905,
 12:05:48.867,f6:90:cc:01:6d:25, 2015-01-01 01:35:44.420, 0.93, 0.089, -0.294, -0.427, -2.075, 0, 164.053, -70.999, 15.557, -29.113, -14.020, 9.293, 27.14, -0.03415, -0.80856, -0.02887, -0.58661,
 12:05:48.867,f6:90:cc:01:6d:25, 2015-01-01 01:35:44.420, 0.931, 0.089, -0.296, -0.305, -2.014, 0, 164.07, -70.966, 15.557, -29.113, -14.020, 9.293, 27.14, -0.03415, -0.80856, -0.02887, -0.58661,
 12:05:48.874,ed:40:fe:65:30:6c, 2015-01-01 01:35:43.400, 0.875, 0.053, 0.49, 1.282, -1.648, 0.916, 6.196, -60.425, -121.207, -25.660, -9.053, 4.307, 22.39, -0.44464, 0.41537, 0.2865, 0.73999,
 12:05:48.874,ed:40:fe:65:30:6c, 2015-01-01 01:35:43.400, 0.876, 0.054, 0.488, 1.282, -2.014, 0.488, 6.196, -60.458, -121.19, -25.660, -9.053, 4.307, 22.39, -0.44464, 0.41537, 0.2865, 0.73999,
 12:05:48.896,e3:ca:2d:fd:e0:8c, 2015-01-01 01:35:44.500, 0.923, -0.098, -0.406, 0.061, -1.709, 0, -166.349, -65.297, -49.691, -27.067, -8.353, 3.027, 25.01, 0.13419, 0.78519, -0.29239, 0.52905,
 12:05:48.896,e3:ca:2d:fd:e0:8c, 2015-01-01 01:35:44.500, 0.923, -0.098, -0.411, 0.122, -1.77, 0, -166.366, -65.264, -49.68, -27.067, -8.353, 3.027, 25.01, 0.13419, 0.78519, -0.29239, 0.52905,
 12:05:48.900,ed:35:33:d3:6c:f8, 2015-01-01 01:35:43.505, 0.879, 0.117, 0.444, 1.709, -3.662, 1.038, 14.76, -62.007, 134.681, -21.347, -11.613, -17.760, 27.06, 0.26788, 0.51126, -0.0946, 0.81104,
 12:05:48.900,ed:35:33:d3:6c:f8, 2015-01-01 01:35:43.505, 0.883, 0.118, 0.439, 1.953, -1.831, 0.916, 14.788, -62.056, 134.698, -21.347, -11.613, -17.760, 27.06, 0.26788, 0.51126, -0.0946, 0.81104,
 12:05:48.902,ed:40:fe:65:30:6c, 2015-01-01 01:35:43.400, 0.879, 0.056, 0.488, 0.977, -1.831, 0.122, 6.218, -60.491, -121.185, -25.833, -9.047, 3.640, 22.39, -0.44464, 0.41537, 0.2865, 0.73999,
 12:05:48.902,ed:40:fe:65:30:6c, 2015-01-01 01:35:43.400, 0.882, 0.057, 0.484, 0.549, -1.526, -0.122, 6.24, -60.524, -121.207, -25.833, -9.047, 3.640, 22.39, -0.44464, 0.41537, 0.2865, 0.73999,
 12:05:48.929,f6:90:cc:01:6d:25, 2015-01-01 01:35:44.420, 0.931, 0.089, -0.301, -0.183, -1.892, 0, 164.092, -70.939, 15.568, -29.113, -14.020, 9.293, 27.14, -0.03415, -0.80856, -0.02887, -0.58661,
 12:05:48.929,f6:90:cc:01:6d:25, 2015-01-01 01:35:44.420, 0.932, 0.09, -0.306, 0.122, -1.709, 0, 164.114, -70.911, 15.579, -29.113, -14.020, 9.293, 27.14, -0.03415, -0.80856, -0.02887, -0.58661,
 12:05:48.931,ed:35:33:d3:6c:f8, 2015-01-01 01:35:43.860, 0.884, 0.119, 0.441, 0.977, -0.793, 0.183, 14.804, -62.078, 134.703, -21.347, -11.613, -17.760, 27.06, 0.26788, 0.51126, -0.0946, 0.81104,
 12:05:48.931,ed:35:33:d3:6c:f8, 2015-01-01 01:35:43.860, 0.889, 0.122, 0.435, 0.61, 0.793, -0.061, 14.821, -62.073, 134.72, -21.347, -11.613, -17.760, 27.06, 0.26788, 0.51126, -0.0946, 0.81104,
 12:05:48.933,ed:40:fe:65:30:6c, 2015-01-01 01:35:43.400, 0.886, 0.056, 0.482, 0.427, -1.282, -0.305, 6.262, -60.546, -121.223, -25.833, -9.047, 3.640, 22.39, -0.44464, 0.41537, 0.2865, 0.73999,
 12:05:48.933,ed:40:fe:65:30:6c, 2015-01-01 01:35:43.400, 0.891, 0.057, 0.481, -0.061, -0.793, -0.854, 6.29, -60.568, -121.256, -25.833, -9.047, 3.640, 22.39, -0.44464, 0.41537, 0.2865, 0.73999,
 12:05:48.955,e3:ca:2d:fd:e0:8c, 2015-01-01 01:35:44.500, 0.923, -0.097, -0.416, 0.122, -1.831, 0, -166.382, -65.237, -49.669, -27.067, -8.353, 3.027, 25.01, 0.13419, 0.78519, -0.29239, 0.52905,
 12:05:48.955,e3:ca:2d:fd:e0:8c, 2015-01-01 01:35:44.500, 0.924, -0.099, -0.422, 0.122, -1.709, 0, -166.399, -65.204, -49.653, -27.067, -8.353, 3.027, 25.01, 0.13419, 0.78519, -0.29239, 0.52905,
 12:05:48.957,f6:90:cc:01:6d:25, 2015-01-01 01:35:44.420, 0.933, 0.09, -0.312, 0.061, -1.465, 0, 164.136, -70.889, 15.59, -29.113, -14.020, 9.293, 27.14, -0.03415, -0.80856, -0.02887, -0.58661,
 12:05:48.957,f6:90:cc:01:6d:25, 2015-01-01 01:35:44.420, 0.934, 0.09, -0.318, 0, -1.221, 0, 164.147, -70.867, 15.606, -29.113, -14.020, 9.293, 27.14, -0.03415, -0.80856, -0.02887, -0.58661,
 12:05:48.961,ed:35:33:d3:6c:f8, 2015-01-01 01:35:43.860, 0.893, 0.115, 0.438, -0.061, 0.977, -0.732, 14.832, -62.051, 134.714, -21.347, -11.613, -17.760, 27.06, 0.26788, 0.51126, -0.0946, 0.81104,
 12:05:48.961,ed:35:33:d3:6c:f8, 2015-01-01 01:35:43.860, 0.896, 0.125, 0.437, -1.038, 1.16, -1.587, 14.854, -62.029, 134.67, -21.347, -11.613, -17.760, 27.06, 0.26788, 0.51126, -0.0946, 0.81104,
 12:05:48.985,e3:ca:2d:fd:e0:8c, 2015-01-01 01:35:44.500, 0.924, -0.098, -0.427, 0.122, -1.465, 0, -166.41, -65.176, -49.642, -27.067, -8.353, 3.027, 25.01, 0.13419, 0.78519, -0.29239, 0.52905,
 12:05:48.985,e3:ca:2d:fd:e0:8c, 2015-01-01 01:35:44.500, 0.923, -0.1, -0.43, 0.122, -1.282, 0, -166.426, -65.149, -49.631, -27.067, -8.353, 3.027, 25.01, 0.13419, 0.78519, -0.29239, 0.52905,
 12:05:48.988,f6:90:cc:01:6d:25, 2015-01-01 01:35:44.420, 0.935, 0.089, -0.324, 0.305, -1.099, 0, 164.163, -70.851, 15.617, -29.113, -14.020, 9.293, 27.14, -0.03415, -0.80856, -0.02887, -0.58661,
 12:05:48.988,f6:90:cc:01:6d:25, 2015-01-01 01:35:44.420, 0.935, 0.088, -0.324, 0, -1.038, 0, 164.18, -70.829, 15.612, -29.113, -14.020, 9.293, 27.14, -0.03415, -0.80856, -0.02887, -0.58661,
 12:05:48.990,ed:35:33:d3:6c:f8, 2015-01-01 01:35:43.860, 0.892, 0.121, 0.437, 0.183, 0.793, -0.61, 14.875, -62.007, 134.599, -21.347, -11.613, -17.760, 27.06, 0.26788, 0.51126, -0.0946, 0.81104,
 12:05:48.990,ed:35:33:d3:6c:f8, 2015-01-01 01:35:43.860, 0.895, 0.117, 0.437, -0.61, 1.038, -1.16, 14.897, -61.99, 134.561, -21.347, -11.613, -17.760, 27.06, 0.26788, 0.51126, -0.0946, 0.81104,
 12:05:48.994,ed:40:fe:65:30:6c, 2015-01-01 01:35:43.400, 0.891, 0.056, 0.478, 0.061, -0.732, -0.671, 6.323, -60.584, -121.295, -25.833, -9.047, 3.640, 22.39, -0.44699, 0.41556, 0.28824, 0.73779,
 12:05:48.994,ed:40:fe:65:30:6c, 2015-01-01 01:35:43.400, 0.89, 0.055, 0.48, 0.061, -0.977, -0.671, 6.35, -60.601, -121.344, -25.833, -9.047, 3.640, 22.39, -0.44699, 0.41556, 0.28824, 0.73779,
 12:05:49.015,e3:ca:2d:fd:e0:8c, 2015-01-01 01:35:44.500, 0.923, -0.102, -0.43, 0.122, -1.038, 0, -166.437, -65.127, -49.625, -27.067, -8.353, 3.027, 25.01, 0.13419, 0.78519, -0.29239, 0.52905,
 12:05:49.015,e3:ca:2d:fd:e0:8c, 2015-01-01 01:35:44.500, 0.923, -0.101, -0.428, 0.122, -0.732, 0, -166.448, -65.105, -49.614, -27.067, -8.353, 3.027, 25.01, 0.13419, 0.78519, -0.29239, 0.52905,
 12:05:49.017,f6:90:cc:01:6d:25, 2015-01-01 01:35:44.420, 0.935, 0.086, -0.327, -0.183, -1.038, 0, 164.196, -70.812, 15.59, -28.780, -14.460, 9.687, 27.14, -0.03415, -0.80856, -0.02887, -0.58661,
 12:05:49.017,f6:90:cc:01:6d:25, 2015-01-01 01:35:44.420, 0.936, 0.085, -0.331, -0.122, -0.549, 0, 164.202, -70.796, 15.568, -28.780, -14.460, 9.687, 27.14, -0.03415, -0.80856, -0.02887, -0.58661,
 12:05:49.023,ed:40:fe:65:30:6c, 2015-01-01 01:35:43.760, 0.892, 0.053, 0.479, -0.183, -0.549, -0.916, 6.383, -60.617, -121.393, -25.833, -9.047, 3.640, 22.39, -0.44699, 0.41556, 0.28824, 0.73779,
 12:05:49.023,ed:40:fe:65:30:6c, 2015-01-01 01:35:43.760, 0.895, 0.052, 0.476, 0, -0.122, -0.793, 6.416, -60.628, -121.448, -25.833, -9.047, 3.640, 22.39, -0.44699, 0.41556, 0.28824, 0.73779,
 12:05:49.050,ed:35:33:d3:6c:f8, 2015-01-01 01:35:43.860, 0.894, 0.12, 0.435, -0.549, 0.916, -1.221, 14.925, -61.974, 134.506, -21.347, -11.613, -17.760, 27.06, 0.26788, 0.51126, -0.0946, 0.81104,
 12:05:49.050,ed:35:33:d3:6c:f8, 2015-01-01 01:35:43.860, 0.898, 0.119, 0.434, -0.061, 1.282, -0.977, 14.947, -61.957, 134.462, -21.347, -11.613, -17.760, 27.06, 0.26788, 0.51126, -0.0946, 0.81104,
 12:05:49.053,ed:40:fe:65:30:6c, 2015-01-01 01:35:43.760, 0.897, 0.053, 0.474, 0.122, 0.488, -0.61, 6.443, -60.634, -121.487, -25.833, -9.047, 3.640, 22.39, -0.44699, 0.41556, 0.28824, 0.73779,
 12:05:49.053,ed:40:fe:65:30:6c, 2015-01-01 01:35:43.760, 0.894, 0.054, 0.473, 0.366, 0.732, -0.427, 6.465, -60.634, -121.514, -25.833, -9.047, 3.640, 22.39, -0.44699, 0.41556, 0.28824, 0.73779,
 12:05:49.076,e3:ca:2d:fd:e0:8c, 2015-01-01 01:35:44.500, 0.923, -0.102, -0.432, 0.183, -0.305, 0, -166.454, -65.094, -49.598, -26.753, -8.447, 3.200, 25.01, 0.13419, 0.78519, -0.29239, 0.52905,
 12:05:49.076,e3:ca:2d:fd:e0:8c, 2015-01-01 01:35:44.500, 0.923, -0.102, -0.431, 0.183, 0.061, 0, -166.454, -65.083, -49.581, -26.753, -8.447, 3.200, 25.01, 0.13419, 0.78519, -0.29239, 0.52905,
 12:05:49.078,f6:90:cc:01:6d:25, 2015-01-01 01:35:44.420, 0.936, 0.086, -0.333, -0.183, -0.061, 0, 164.207, -70.79, 15.557, -28.780, -14.460, 9.687, 27.14, -0.03415, -0.80856, -0.02887, -0.58661,
 12:05:49.078,f6:90:cc:01:6d:25, 2015-01-01 01:35:44.420, 0.936, 0.087, -0.332, -0.244, 0.366, 0, 164.207, -70.79, 15.546, -28.780, -14.460, 9.687, 27.14, -0.03415, -0.80856, -0.02887, -0.58661,
 12:05:49.080,ed:35:33:d3:6c:f8, 2015-01-01 01:35:43.860, 0.896, 0.121, 0.432, 0, 1.953, -0.732, 14.969, -61.93, 134.445, -21.347, -11.613, -17.760, 27.06, 0.26788, 0.51126, -0.0946, 0.81104,
 12:05:49.080,ed:35:33:d3:6c:f8, 2015-01-01 01:35:43.860, 0.891, 0.122, 0.437, -0.183, 1.831, -0.061, 14.963, -61.908, 134.462, -21.347, -11.613, -17.760, 27.06, 0.26788, 0.51126, -0.0946, 0.81104,
 12:05:49.106,e3:ca:2d:fd:e0:8c, 2015-01-01 01:35:44.500, 0.924, -0.101, -0.431, 0.244, 0.549, 0, -166.454, -65.083, -49.576, -26.753, -8.447, 3.200, 25.01, 0.1337, 0.78653, -0.29333, 0.52661,
 12:05:49.106,e3:ca:2d:fd:e0:8c, 2015-01-01 01:35:44.500, 0.924, -0.1, -0.429, 0.183, 0.977, 0, -166.443, -65.089, -49.576, -26.753, -8.447, 3.200, 25.01, 0.1337, 0.78653, -0.29333, 0.52661,
 12:05:49.108,f6:90:cc:01:6d:25, 2015-01-01 01:35:44.420, 0.935, 0.087, -0.331, -0.305, 0.793, 0, 164.196, -70.796, 15.54, -28.780, -14.460, 9.687, 27.14, -0.03329, -0.81073, -0.0304, -0.58356,
 12:05:49.108,f6:90:cc:01:6d:25, 2015-01-01 01:35:44.420, 0.935, 0.088, -0.327, -0.427, 1.16, 0, 164.18, -70.812, 15.551, -28.780, -14.460, 9.687, 27.14, -0.03329, -0.81073, -0.0304, -0.58356,
 12:05:49.110,ed:35:33:d3:6c:f8, 2015-01-01 01:35:43.860, 0.891, 0.121, 0.437, 0.244, 3.235, -0.366, 14.952, -61.87, 134.484, -21.347, -11.613, -17.760, 27.06, 0.26788, 0.51126, -0.0946, 0.81104,
 12:05:49.110,ed:35:33:d3:6c:f8, 2015-01-01 01:35:43.860, 0.886, 0.125, 0.441, -0.671, 4.089, 0, 14.925, -61.809, 134.5, -21.347, -11.613, -17.760, 27.06, 0.26788, 0.51126, -0.0946, 0.81104,
 12:05:49.112,ed:40:fe:65:30:6c, 2015-01-01 01:35:43.760, 0.891, 0.055, 0.477, 0.61, 0.61, -0.244, 6.482, -60.628, -121.553, -25.833, -9.047, 3.640, 22.39, -0.44699, 0.41556, 0.28824, 0.73779,
 12:05:49.112,ed:40:fe:65:30:6c, 2015-01-01 01:35:43.760, 0.891, 0.057, 0.478, 0.671, 1.099, -0.122, 6.498, -60.623, -121.569, -25.833, -9.047, 3.640, 22.39, -0.44699, 0.41556, 0.28824, 0.73779,
 12:05:49.136,e3:ca:2d:fd:e0:8c, 2015-01-01 01:35:44.500, 0.924, -0.1, -0.425, 0.183, 1.343, 0, -166.432, -65.105, -49.587, -26.753, -8.447, 3.200, 25.01, 0.1337, 0.78653, -0.29333, 0.52661,
 12:05:49.136,e3:ca:2d:fd:e0:8c, 2015-01-01 01:35:44.500, 0.923, -0.099, -0.426, 0.183, 1.648, 0, -166.421, -65.127, -49.598, -26.753, -8.447, 3.200, 25.01, 0.1337, 0.78653, -0.29333, 0.52661,
 12:05:49.142,ed:40:fe:65:30:6c, 2015-01-01 01:35:43.760, 0.883, 0.059, 0.48, 0.549, 1.282, -0.183, 6.509, -60.612, -121.58, -25.833, -9.047, 3.640, 22.39, -0.44699, 0.41556, 0.28824, 0.73779,
 12:05:49.142,ed:40:fe:65:30:6c, 2015-01-01 01:35:43.760, 0.877, 0.06, 0.487, 0.427, 1.282, -0.183, 6.526, -60.595, -121.591, -25.833, -9.047, 3.640, 22.39, -0.44699, 0.41556, 0.28824, 0.73779,
 12:05:49.168,f6:90:cc:01:6d:25, 2015-01-01 01:35:44.420, 0.935, 0.089, -0.326, -0.427, 1.648, 0, 164.152, -70.834, 15.546, -28.780, -14.460, 9.687, 27.14, -0.03329, -0.81073, -0.0304, -0.58356,
 12:05:49.168,f6:90:cc:01:6d:25, 2015-01-01 01:35:44.420, 0.934, 0.09, -0.322, -0.366, 1.953, 0, 164.125, -70.867, 15.568, -28.780, -14.460, 9.687, 27.14, -0.03329, -0.81073, -0.0304, -0.58356,
 12:05:49.170,ed:35:33:d3:6c:f8, 2015-01-01 01:35:43.860, 0.878, 0.124, 0.45, 0.061, 4.15, -0.244, 14.892, -61.743, 134.5, -21.607, -11.793, -16.807, 27.06, 0.26788, 0.51126, -0.0946, 0.81104,
 12:05:49.170,ed:35:33:d3:6c:f8, 2015-01-01 01:35:43.860, 0.873, 0.126, 0.455, 0, 4.211, -0.244, 14.865, -61.677, 134.5, -21.607, -11.793, -16.807, 27.06, 0.26788, 0.51126, -0.0946, 0.81104,
 12:05:49.172,ed:40:fe:65:30:6c, 2015-01-01 01:35:43.760, 0.872, 0.06, 0.491, 0.122, 1.587, -0.183, 6.531, -60.579, -121.602, -25.833, -9.047, 3.640, 22.39, -0.44699, 0.41556, 0.28824, 0.73779,
 12:05:49.172,ed:40:fe:65:30:6c, 2015-01-01 01:35:43.760, 0.867, 0.061, 0.499, 0.061, 1.709, -0.061, 6.537, -60.551, -121.613, -25.833, -9.047, 3.640, 22.39, -0.44699, 0.41556, 0.28824, 0.73779,
 12:05:49.195,e3:ca:2d:fd:e0:8c, 2015-01-01 01:35:44.825, 0.923, -0.1, -0.422, 0.183, 1.77, 0, -166.404, -65.154, -49.614, -26.753, -8.447, 3.200, 25.01, 0.1337, 0.78653, -0.29333, 0.52661,
 12:05:49.195,e3:ca:2d:fd:e0:8c, 2015-01-01 01:35:44.825, 0.924, -0.099, -0.419, 0.305, 1.953, 0, -166.382, -65.182, -49.625, -26.753, -8.447, 3.200, 25.01, 0.1337, 0.78653, -0.29333, 0.52661,
 12:05:49.201,ed:35:33:d3:6c:f8, 2015-01-01 01:35:43.860, 0.868, 0.125, 0.465, -1.648, 2.808, 0.977, 14.81, -61.622, 134.5, -21.607, -11.793, -16.807, 27.06, 0.26846, 0.5112, -0.09433, 0.81091,
 12:05:49.201,ed:35:33:d3:6c:f8, 2015-01-01 01:35:43.860, 0.862, 0.125, 0.471, 0.244, 3.235, -0.122, 14.755, -61.573, 134.522, -21.607, -11.793, -16.807, 27.06, 0.26846, 0.5112, -0.09433, 0.81091,
 12:05:49.225,e3:ca:2d:fd:e0:8c, 2015-01-01 01:35:44.825, 0.922, -0.099, -0.417, 0.244, 1.892, 0, -166.366, -65.215, -49.658, -26.753, -8.447, 3.200, 25.01, 0.1337, 0.78653, -0.29333, 0.52661,
 12:05:49.225,e3:ca:2d:fd:e0:8c, 2015-01-01 01:35:44.825, 0.922, -0.1, -0.41, 0.305, 1.648, 0, -166.344, -65.248, -49.686, -26.753, -8.447, 3.200, 25.01, 0.1337, 0.78653, -0.29333, 0.52661,
 12:05:49.227,f6:90:cc:01:6d:25, 2015-01-01 01:35:44.775, 0.934, 0.089, -0.316, -0.427, 2.014, 0, 164.092, -70.895, 15.579, -28.780, -14.460, 9.687, 27.14, -0.03329, -0.81073, -0.0304, -0.58356,
 12:05:49.227,f6:90:cc:01:6d:25, 2015-01-01 01:35:44.775, 0.934, 0.089, -0.313, -0.244, 2.075, 0, 164.059, -70.928, 15.584, -28.780, -14.460, 9.687, 27.14, -0.03329, -0.81073, -0.0304, -0.58356,
 12:05:49.230,ed:35:33:d3:6c:f8, 2015-01-01 01:35:43.860, 0.852, 0.122, 0.472, 0.916, 2.808, 0.671, 14.738, -61.523, 134.561, -21.607, -11.793, -16.807, 27.06, 0.26846, 0.5112, -0.09433, 0.81091,
 12:05:49.230,ed:35:33:d3:6c:f8, 2015-01-01 01:35:43.860, 0.861, 0.123, 0.474, -0.427, 2.136, 0.854, 14.694, -61.479, 134.648, -21.607, -11.793, -16.807, 27.06, 0.26846, 0.5112, -0.09433, 0.81091,
 12:05:49.234,ed:40:fe:65:30:6c, 2015-01-01 01:35:43.760, 0.861, 0.059, 0.5, 0.366, 1.404, 0.122, 6.537, -60.529, -121.613, -25.833, -9.047, 3.640, 22.39, -0.44699, 0.41556, 0.28824, 0.73779,
 12:05:49.234,ed:40:fe:65:30:6c, 2015-01-01 01:35:43.760, 0.855, 0.055, 0.502, 0.366, 1.038, 0.366, 6.531, -60.507, -121.608, -25.833, -9.047, 3.640, 22.39, -0.44699, 0.41556, 0.28824, 0.73779,
 12:05:49.255,e3:ca:2d:fd:e0:8c, 2015-01-01 01:35:44.825, 0.923, -0.098, -0.405, 0.366, 1.343, 0, -166.328, -65.27, -49.691, -26.753, -8.447, 3.200, 25.01, 0.1337, 0.78653, -0.29333, 0.52661,
 12:05:49.255,e3:ca:2d:fd:e0:8c, 2015-01-01 01:35:44.825, 0.923, -0.097, -0.406, 0.366, 1.099, 0, -166.311, -65.292, -49.686, -26.753, -8.447, 3.200, 25.01, 0.1337, 0.78653, -0.29333, 0.52661,
 12:05:49.257,f6:90:cc:01:6d:25, 2015-01-01 01:35:44.775, 0.932, 0.089, -0.307, -0.183, 1.77, 0, 164.031, -70.955, 15.579, -28.780, -14.460, 9.687, 27.14, -0.03329, -0.81073, -0.0304, -0.58356,
 12:05:49.257,f6:90:cc:01:6d:25, 2015-01-01 01:35:44.775, 0.93, 0.089, -0.3, -0.305, 1.404, 0, 164.009, -70.983, 15.568, -28.780, -14.460, 9.687, 27.14, -0.03329, -0.81073, -0.0304, -0.58356,
 12:05:49.263,ed:40:fe:65:30:6c, 2015-01-01 01:35:43.760, 0.86, 0.062, 0.505, 0.061, 1.099, 0.061, 6.526, -60.491, -121.597, -25.927, -9.033, 4.120, 22.39, -0.44699, 0.41556, 0.28824, 0.73779,
 12:05:49.263,ed:40:fe:65:30:6c, 2015-01-01 01:35:43.760, 0.863, 0.066, 0.504, -0.183, 1.77, 0.183, 6.52, -60.458, -121.58, -25.927, -9.033, 4.120, 22.39, -0.44699, 0.41556, 0.28824, 0.73779,
 12:05:49.287,f6:90:cc:01:6d:25, 2015-01-01 01:35:44.775, 0.93, 0.09, -0.296, 0, 1.282, 0, 163.987, -71.005, 15.557, -28.780, -14.460, 9.687, 27.14, -0.03329, -0.81073, -0.0304, -0.58356,
 12:05:49.287,f6:90:cc:01:6d:25, 2015-01-01 01:35:44.775, 0.931, 0.092, -0.295, -0.061, 1.099, 0, 163.971, -71.021, 15.546, -28.780, -14.460, 9.687, 27.14, -0.03329, -0.81073, -0.0304, -0.58356,
 12:05:49.289,ed:35:33:d3:6c:f8, 2015-01-01 01:35:44.220, 0.861, 0.125, 0.471, -1.099, 1.404, 1.77, 14.623, -61.452, 134.747, -21.607, -11.793, -16.807, 27.06, 0.26846, 0.5112, -0.09433, 0.81091,
 12:05:49.289,ed:35:33:d3:6c:f8, 2015-01-01 01:35:44.220, 0.862, 0.13, 0.473, 0.122, 0.793, 0.305, 14.568, -61.436, 134.819, -21.607, -11.793, -16.807, 27.06, 0.26846, 0.5112, -0.09433, 0.81091,
 12:05:49.315,e3:ca:2d:fd:e0:8c, 2015-01-01 01:35:44.825, 0.923, -0.096, -0.406, 0.366, 0.793, 0, -166.295, -65.314, -49.686, -26.753, -8.447, 3.200, 25.01, 0.1337, 0.78653, -0.29333, 0.52661,
 12:05:49.315,e3:ca:2d:fd:e0:8c, 2015-01-01 01:35:44.825, 0.922, -0.099, -0.404, 0.305, 0.488, 0, -166.284, -65.325, -49.68, -26.753, -8.447, 3.200, 25.01, 0.1337, 0.78653, -0.29333, 0.52661,
 12:05:49.317,f6:90:cc:01:6d:25, 2015-01-01 01:35:44.775, 0.931, 0.092, -0.294, 0.305, 0.854, 0, 163.96, -71.038, 15.518, -28.780, -14.460, 9.687, 27.14, -0.03329, -0.81073, -0.0304, -0.58356,
 12:05:49.317,f6:90:cc:01:6d:25, 2015-01-01 01:35:44.775, 0.93, 0.088, -0.292, 0.122, 0.366, 0, 163.949, -71.049, 15.485, -28.780, -14.460, 9.687, 27.14, -0.03329, -0.81073, -0.0304, -0.58356,
 12:05:49.322,ed:40:fe:65:30:6c, 2015-01-01 01:35:43.760, 0.859, 0.062, 0.502, 0, 1.282, 0.61, 6.498, -60.425, -121.564, -25.927, -9.033, 4.120, 22.39, -0.44699, 0.41556, 0.28824, 0.73779,
 12:05:49.322,ed:40:fe:65:30:6c, 2015-01-01 01:35:43.760, 0.855, 0.056, 0.507, 0.305, 0.549, 1.099, 6.476, -60.408, -121.531, -25.927, -9.033, 4.120, 22.39, -0.44699, 0.41556, 0.28824, 0.73779,
 12:05:49.345,e3:ca:2d:fd:e0:8c, 2015-01-01 01:35:44.825, 0.923, -0.102, -0.401, 0.305, 0.183, 0, -166.278, -65.336, -49.686, -26.753, -8.447, 3.200, 25.01, 0.1337, 0.78653, -0.29333, 0.52661,
 12:05:49.345,e3:ca:2d:fd:e0:8c, 2015-01-01 01:35:44.825, 0.923, -0.099, -0.401, 0.305, -0.061, 0, -166.273, -65.336, -49.68, -26.753, -8.447, 3.200, 25.01, 0.1337, 0.78653, -0.29333, 0.52661,
 12:05:49.347,f6:90:cc:01:6d:25, 2015-01-01 01:35:44.775, 0.931, 0.086, -0.291, -0.061, 0, 0, 163.943, -71.054, 15.48, -28.780, -14.460, 9.687, 27.14, -0.03329, -0.81073, -0.0304, -0.58356,
 12:05:49.347,f6:90:cc:01:6d:25, 2015-01-01 01:35:44.775, 0.931, 0.088, -0.292, 0.122, -0.183, 0, 163.943, -71.054, 15.452, -28.780, -14.460, 9.687, 27.14, -0.03329, -0.81073, -0.0304, -0.58356,
 12:05:49.351,ed:35:33:d3:6c:f8, 2015-01-01 01:35:44.220, 0.856, 0.124, 0.476, 1.343, 0.427, 1.709, 14.546, -61.425, 134.901, -21.607, -11.793, -16.807, 27.06, 0.26846, 0.5112, -0.09433, 0.81091,
 12:05:49.351,ed:35:33:d3:6c:f8, 2015-01-01 01:35:44.220, 0.858, 0.115, 0.477, 0.366, 0.244, 1.343, 14.513, -61.419, 134.978, -21.607, -11.793, -16.807, 27.06, 0.26846, 0.5112, -0.09433, 0.81091,
 12:05:49.351,ed:35:33:d3:6c:f8, 2015-01-01 01:35:44.220, 0.862, 0.116, 0.472, 0.244, 0.122, 1.099, 14.474, -61.414, 135.06, -21.607, -11.793, -16.807, 27.06, 0.26846, 0.5112, -0.09433, 0.81091,
 12:05:49.351,ed:35:33:d3:6c:f8, 2015-01-01 01:35:44.220, 0.863, 0.114, 0.471, 0.366, 0.305, 0.793, 14.447, -61.403, 135.148, -21.607, -11.793, -16.807, 27.06, 0.26846, 0.5112, -0.09433, 0.81091,
 12:05:49.352,ed:40:fe:65:30:6c, 2015-01-01 01:35:43.760, 0.859, 0.055, 0.507, 0.061, 0.366, 0.977, 6.443, -60.392, -121.503, -25.927, -9.033, 4.120, 22.39, -0.44611, 0.41446, 0.2879, 0.73904,
 12:05:49.352,ed:40:fe:65:30:6c, 2015-01-01 01:35:43.760, 0.862, 0.054, 0.503, 0.061, 0.366, 0.854, 6.416, -60.381, -121.476, -25.927, -9.033, 4.120, 22.39, -0.44611, 0.41446, 0.2879, 0.73904,
 12:05:49.375,e3:ca:2d:fd:e0:8c, 2015-01-01 01:35:44.825, 0.923, -0.098, -0.403, 0.244, -0.366, 0, -166.267, -65.336, -49.664, -26.953, -8.367, 3.527, 25.01, 0.1337, 0.78653, -0.29333, 0.52661,
 12:05:49.375,e3:ca:2d:fd:e0:8c, 2015-01-01 01:35:44.825, 0.922, -0.099, -0.405, 0.183, -0.61, 0, -166.267, -65.33, -49.653, -26.953, -8.367, 3.527, 25.01, 0.1337, 0.78653, -0.29333, 0.52661,
 12:05:49.383,ed:40:fe:65:30:6c, 2015-01-01 01:35:43.760, 0.863, 0.054, 0.502, 0.122, 0, 0.549, 6.394, -60.37, -121.448, -25.927, -9.033, 4.120, 22.39, -0.44611, 0.41446, 0.2879, 0.73904,
 12:05:49.383,ed:40:fe:65:30:6c, 2015-01-01 01:35:43.760, 0.865, 0.057, 0.5, 0.183, -0.122, 0.366, 6.383, -60.364, -121.432, -25.927, -9.033, 4.120, 22.39, -0.44611, 0.41446, 0.2879, 0.73904,
 12:05:49.408,f6:90:cc:01:6d:25, 2015-01-01 01:35:44.775, 0.931, 0.09, -0.293, 0.244, -0.305, 0, 163.943, -71.054, 15.425, -28.780, -14.460, 9.687, 27.14, -0.03329, -0.81073, -0.0304, -0.58356,
 12:05:49.408,f6:90:cc:01:6d:25, 2015-01-01 01:35:44.775, 0.931, 0.089, -0.295, 0.122, -0.549, 0, 163.949, -71.049, 15.425, -28.780, -14.460, 9.687, 27.14, -0.03329, -0.81073, -0.0304, -0.58356,
 12:05:49.410,ed:35:33:d3:6c:f8, 2015-01-01 01:35:44.220, 0.864, 0.118, 0.469, 0.427, 0.488, 0.549, 14.425, -61.392, 135.253, -21.607, -11.793, -16.807, 27.06, 0.26846, 0.5112, -0.09433, 0.81091,
 12:05:49.410,ed:35:33:d3:6c:f8, 2015-01-01 01:35:44.220, 0.867, 0.121, 0.468, 0.549, 0.549, 0.61, 14.409, -61.381, 135.352, -21.607, -11.793, -16.807, 27.06, 0.26846, 0.5112, -0.09433, 0.81091,
 12:05:49.435,e3:ca:2d:fd:e0:8c, 2015-01-01 01:35:44.825, 0.923, -0.1, -0.407, 0.061, -0.793, 0, -166.273, -65.319, -49.647, -26.953, -8.367, 3.527, 25.01, 0.1337, 0.78653, -0.29333, 0.52661,
 12:05:49.435,e3:ca:2d:fd:e0:8c, 2015-01-01 01:35:44.825, 0.923, -0.1, -0.411, 0.061, -0.977, 0, -166.284, -65.308, -49.658, -26.953, -8.367, 3.527, 25.01, 0.1337, 0.78653, -0.29333, 0.52661,
 12:05:49.437,f6:90:cc:01:6d:25, 2015-01-01 01:35:44.775, 0.932, 0.087, -0.298, 0.183, -0.61, 0, 163.954, -71.043, 15.414, -28.587, -14.340, 9.153, 27.14, -0.03329, -0.81073, -0.0304, -0.58356,
 12:05:49.437,f6:90:cc:01:6d:25, 2015-01-01 01:35:44.775, 0.933, 0.086, -0.302, 0.122, -0.732, 0, 163.96, -71.032, 15.408, -28.587, -14.340, 9.153, 27.14, -0.03329, -0.81073, -0.0304, -0.58356,
 12:05:49.441,ed:35:33:d3:6c:f8, 2015-01-01 01:35:44.220, 0.869, 0.118, 0.466, 0.549, 0.671, 0.793, 14.387, -61.364, 135.456, -21.607, -11.793, -16.807, 27.06, 0.26846, 0.5112, -0.09433, 0.81091,
 12:05:49.441,ed:35:33:d3:6c:f8, 2015-01-01 01:35:44.220, 0.871, 0.118, 0.469, -0.183, 0.061, 0.549, 14.365, -61.353, 135.533, -21.607, -11.793, -16.807, 27.06, 0.26846, 0.5112, -0.09433, 0.81091,
 12:05:49.444,ed:40:fe:65:30:6c, 2015-01-01 01:35:44.145, 0.868, 0.057, 0.5, 0.244, -0.244, 0.488, 6.372, -60.364, -121.404, -25.927, -9.033, 4.120, 22.39, -0.44611, 0.41446, 0.2879, 0.73904,
 12:05:49.444,ed:40:fe:65:30:6c, 2015-01-01 01:35:44.145, 0.87, 0.056, 0.498, 0, -0.244, 0.549, 6.361, -60.359, -121.371, -25.927, -9.033, 4.120, 22.39, -0.44611, 0.41446, 0.2879, 0.73904,
 12:05:49.465,e3:ca:2d:fd:e0:8c, 2015-01-01 01:35:44.825, 0.923, -0.1, -0.416, 0.061, -0.977, 0, -166.289, -65.292, -49.658, -26.953, -8.367, 3.527, 25.01, 0.1337, 0.78564, -0.29248, 0.52841,
 12:05:49.465,e3:ca:2d:fd:e0:8c, 2015-01-01 01:35:44.825, 0.924, -0.1, -0.417, 0, -1.038, 0, -166.3, -65.275, -49.675, -26.953, -8.367, 3.527, 25.01, 0.1337, 0.78564, -0.29248, 0.52841,
 12:05:49.467,f6:90:cc:01:6d:25, 2015-01-01 01:35:44.775, 0.934, 0.087, -0.306, 0.122, -0.793, 0, 163.971, -71.021, 15.397, -28.587, -14.340, 9.153, 27.14, -0.03329, -0.81073, -0.0304, -0.58356,
 12:05:49.467,f6:90:cc:01:6d:25, 2015-01-01 01:35:44.775, 0.934, 0.087, -0.311, -0.061, -0.977, 0, 163.987, -71.01, 15.381, -28.587, -14.340, 9.153, 27.14, -0.03329, -0.81073, -0.0304, -0.58356,
 12:05:49.470,ed:35:33:d3:6c:f8, 2015-01-01 01:35:44.220, 0.875, 0.119, 0.463, 0.122, 0.061, 0.671, 14.337, -61.348, 135.615, -21.800, -11.807, -16.813, 27.06, 0.26846, 0.5112, -0.09433, 0.81091,
 12:05:49.470,ed:35:33:d3:6c:f8, 2015-01-01 01:35:44.220, 0.875, 0.111, 0.463, -0.061, 0.183, 0.671, 14.315, -61.342, 135.703, -21.800, -11.807, -16.813, 27.06, 0.26846, 0.5112, -0.09433, 0.81091,
 12:05:49.472,ed:40:fe:65:30:6c, 2015-01-01 01:35:44.145, 0.872, 0.056, 0.499, -0.244, -0.183, 0.488, 6.345, -60.359, -121.344, -25.927, -9.033, 4.120, 22.39, -0.44611, 0.41446, 0.2879, 0.73904,
 12:05:49.472,ed:40:fe:65:30:6c, 2015-01-01 01:35:44.145, 0.875, 0.053, 0.493, -0.061, -0.305, 0.61, 6.323, -60.359, -121.317, -25.927, -9.033, 4.120, 22.39, -0.44611, 0.41446, 0.2879, 0.73904,
 12:05:49.495,e3:ca:2d:fd:e0:8c, 2015-01-01 01:35:44.825, 0.923, -0.101, -0.417, 0, -1.038, 0, -166.311, -65.253, -49.686, -26.953, -8.367, 3.527, 25.01, 0.1337, 0.78564, -0.29248, 0.52841,
 12:05:49.495,e3:ca:2d:fd:e0:8c, 2015-01-01 01:35:44.825, 0.924, -0.101, -0.42, 0, -0.977, 0, -166.322, -65.237, -49.697, -26.953, -8.367, 3.527, 25.01, 0.1337, 0.78564, -0.29248, 0.52841,
 12:05:49.503,ed:40:fe:65:30:6c, 2015-01-01 01:35:44.145, 0.877, 0.053, 0.494, -0.305, -0.305, 0.244, 6.306, -60.359, -121.3, -25.927, -9.033, 4.120, 22.39, -0.44611, 0.41446, 0.2879, 0.73904,
 12:05:49.503,ed:40:fe:65:30:6c, 2015-01-01 01:35:44.145, 0.88, 0.055, 0.491, -0.244, 0, 0.244, 6.295, -60.359, -121.284, -25.927, -9.033, 4.120, 22.39, -0.44611, 0.41446, 0.2879, 0.73904,
 12:05:49.529,f6:90:cc:01:6d:25, 2015-01-01 01:35:44.775, 0.935, 0.088, -0.314, 0.244, -0.916, 0, 163.998, -70.994, 15.392, -28.587, -14.340, 9.153, 27.14, -0.03534, -0.80966, -0.02774, -0.58508,
 12:05:49.529,f6:90:cc:01:6d:25, 2015-01-01 01:35:44.775, 0.935, 0.087, -0.315, 0, -0.854, 0, 164.015, -70.983, 15.408, -28.587, -14.340, 9.153, 27.14, -0.03534, -0.80966, -0.02774, -0.58508,
 12:05:49.531,ed:35:33:d3:6c:f8, 2015-01-01 01:35:44.220, 0.88, 0.121, 0.458, -0.732, 0.061, -0.061, 14.293, -61.337, 135.747, -21.800, -11.807, -16.813, 27.06, 0.26846, 0.5112, -0.09433, 0.81091,
 12:05:49.531,ed:35:33:d3:6c:f8, 2015-01-01 01:35:44.220, 0.879, 0.114, 0.458, 1.038, 0.488, 1.16, 14.271, -61.331, 135.797, -21.800, -11.807, -16.813, 27.06, 0.26846, 0.5112, -0.09433, 0.81091,
 12:05:49.556,e3:ca:2d:fd:e0:8c, 2015-01-01 01:35:45.185, 0.923, -0.101, -0.422, 0, -0.854, 0, -166.333, -65.22, -49.686, -26.953, -8.367, 3.527, 25.01, 0.1337, 0.78564, -0.29248, 0.52841,
 12:05:49.556,e3:ca:2d:fd:e0:8c, 2015-01-01 01:35:45.185, 0.923, -0.102, -0.423, 0, -0.671, 0, -166.344, -65.204, -49.691, -26.953, -8.367, 3.527, 25.01, 0.1337, 0.78564, -0.29248, 0.52841,
 12:05:49.558,f6:90:cc:01:6d:25, 2015-01-01 01:35:45.165, 0.935, 0.086, -0.316, -0.122, -0.854, 0, 164.026, -70.966, 15.414, -28.587, -14.340, 9.153, 27.14, -0.03534, -0.80966, -0.02774, -0.58508,
 12:05:49.558,f6:90:cc:01:6d:25, 2015-01-01 01:35:45.165, 0.934, 0.086, -0.318, -0.244, -0.854, 0, 164.042, -70.95, 15.419, -28.587, -14.340, 9.153, 27.14, -0.03534, -0.80966, -0.02774, -0.58508,
 12:05:49.560,ed:35:33:d3:6c:f8, 2015-01-01 01:35:44.220, 0.881, 0.108, 0.458, -0.183, 0.183, 0.427, 14.249, -61.326, 135.84, -21.800, -11.807, -16.813, 27.06, 0.26257, 0.50912, -0.09146, 0.81448,
 12:05:49.560,ed:35:33:d3:6c:f8, 2015-01-01 01:35:44.220, 0.875, 0.116, 0.455, 0, 0.122, 0.244, 14.233, -61.326, 135.868, -21.800, -11.807, -16.813, 27.06, 0.26257, 0.50912, -0.09146, 0.81448,
 12:05:49.562,ed:40:fe:65:30:6c, 2015-01-01 01:35:44.145, 0.88, 0.049, 0.489, 0, -0.122, 0.488, 6.279, -60.359, -121.262, -25.927, -9.033, 4.120, 22.39, -0.44611, 0.41446, 0.2879, 0.73904,
 12:05:49.562,ed:40:fe:65:30:6c, 2015-01-01 01:35:44.145, 0.883, 0.051, 0.49, -0.366, -0.122, 0, 6.268, -60.364, -121.245, -25.927, -9.033, 4.120, 22.39, -0.44611, 0.41446, 0.2879, 0.73904,
 12:05:49.586,e3:ca:2d:fd:e0:8c, 2015-01-01 01:35:45.185, 0.923, -0.101, -0.422, 0, -0.488, 0, -166.349, -65.193, -49.686, -26.953, -8.367, 3.527, 25.01, 0.1337, 0.78564, -0.29248, 0.52841,
 12:05:49.586,e3:ca:2d:fd:e0:8c, 2015-01-01 01:35:45.185, 0.923, -0.099, -0.423, 0, -0.244, 0, -166.355, -65.182, -49.691, -26.953, -8.367, 3.527, 25.01, 0.1337, 0.78564, -0.29248, 0.52841,
 12:05:49.588,f6:90:cc:01:6d:25, 2015-01-01 01:35:45.165, 0.934, 0.089, -0.318, -0.244, -0.61, 0, 164.048, -70.933, 15.386, -28.587, -14.340, 9.153, 27.14, -0.03534, -0.80966, -0.02774, -0.58508,
 12:05:49.588,f6:90:cc:01:6d:25, 2015-01-01 01:35:45.165, 0.934, 0.089, -0.318, -0.366, -0.427, 0, 164.053, -70.922, 15.359, -28.587, -14.340, 9.153, 27.14, -0.03534, -0.80966, -0.02774, -0.58508,
 12:05:49.592,ed:40:fe:65:30:6c, 2015-01-01 01:35:44.145, 0.88, 0.052, 0.486, -0.122, 0.061, 0, 6.262, -60.364, -121.24, -25.927, -9.033, 4.120, 22.39, -0.44611, 0.41446, 0.2879, 0.73904,
 12:05:49.592,ed:40:fe:65:30:6c, 2015-01-01 01:35:44.145, 0.882, 0.051, 0.488, -0.244, 0, -0.366, 6.262, -60.364, -121.24, -25.927, -9.033, 4.120, 22.39, -0.44611, 0.41446, 0.2879, 0.73904,
 12:05:49.616,e3:ca:2d:fd:e0:8c, 2015-01-01 01:35:45.185, 0.923, -0.099, -0.423, 0, -0.061, 0, -166.355, -65.176, -49.697, -26.953, -8.367, 3.527, 25.01, 0.1337, 0.78564, -0.29248, 0.52841,
 12:05:49.616,e3:ca:2d:fd:e0:8c, 2015-01-01 01:35:45.185, 0.924, -0.099, -0.421, 0, 0, 0, -166.36, -65.176, -49.691, -26.953, -8.367, 3.527, 25.01, 0.1337, 0.78564, -0.29248, 0.52841,
 12:05:49.620,ed:35:33:d3:6c:f8, 2015-01-01 01:35:44.220, 0.885, 0.116, 0.456, -3.052, -1.526, 2.197, 14.167, -61.348, 135.906, -21.800, -11.807, -16.813, 27.06, 0.26257, 0.50912, -0.09146, 0.81448,
 12:05:49.620,ed:35:33:d3:6c:f8, 2015-01-01 01:35:44.220, 0.885, 0.108, 0.454, -0.305, 0.122, 0.122, 14.095, -61.37, 135.945, -21.800, -11.807, -16.813, 27.06, 0.26257, 0.50912, -0.09146, 0.81448,
 12:05:49.624,ed:40:fe:65:30:6c, 2015-01-01 01:35:44.145, 0.884, 0.055, 0.486, -0.244, 0.427, -0.549, 6.273, -60.359, -121.251, -26.260, -8.787, 4.053, 22.39, -0.44611, 0.41446, 0.2879, 0.73904,
 12:05:49.624,ed:40:fe:65:30:6c, 2015-01-01 01:35:44.145, 0.88, 0.054, 0.484, 0, 0.488, -0.549, 6.29, -60.353, -121.262, -26.260, -8.787, 4.053, 22.39, -0.44611, 0.41446, 0.2879, 0.73904,
 12:05:49.648,f6:90:cc:01:6d:25, 2015-01-01 01:35:45.165, 0.934, 0.089, -0.316, -0.366, -0.366, 0, 164.059, -70.917, 15.326, -28.587, -14.340, 9.153, 27.14, -0.03534, -0.80966, -0.02774, -0.58508,
 12:05:49.648,f6:90:cc:01:6d:25, 2015-01-01 01:35:45.165, 0.935, 0.089, -0.316, -0.366, -0.183, 0, 164.059, -70.906, 15.298, -28.587, -14.340, 9.153, 27.14, -0.03534, -0.80966, -0.02774, -0.58508,
 12:05:49.650,ed:35:33:d3:6c:f8, 2015-01-01 01:35:44.575, 0.879, 0.12, 0.451, 0.061, -0.122, -0.549, 14.101, -61.37, 135.95, -21.800, -11.807, -16.813, 27.06, 0.26257, 0.50912, -0.09146, 0.81448,
 12:05:49.650,ed:35:33:d3:6c:f8, 2015-01-01 01:35:44.575, 0.875, 0.111, 0.456, 0.183, 0.305, -0.427, 14.117, -61.37, 135.956, -21.800, -11.807, -16.813, 27.06, 0.26257, 0.50912, -0.09146, 0.81448,
 12:05:49.676,e3:ca:2d:fd:e0:8c, 2015-01-01 01:35:45.185, 0.923, -0.1, -0.42, 0, 0.061, 0, -166.36, -65.171, -49.68, -26.953, -8.367, 3.527, 25.01, 0.1337, 0.78564, -0.29248, 0.52841,
 12:05:49.676,e3:ca:2d:fd:e0:8c, 2015-01-01 01:35:45.185, 0.923, -0.1, -0.42, 0.061, 0.244, 0, -166.36, -65.171, -49.675, -26.953, -8.367, 3.527, 25.01, 0.1337, 0.78564, -0.29248, 0.52841,
 12:05:49.678,f6:90:cc:01:6d:25, 2015-01-01 01:35:45.165, 0.934, 0.088, -0.315, -0.366, 0, 0, 164.053, -70.9, 15.271, -28.587, -14.340, 9.153, 27.14, -0.03534, -0.80966, -0.02774, -0.58508,
 12:05:49.678,f6:90:cc:01:6d:25, 2015-01-01 01:35:45.165, 0.934, 0.088, -0.314, -0.305, 0.122, 0, 164.053, -70.9, 15.26, -28.587, -14.340, 9.153, 27.14, -0.03534, -0.80966, -0.02774, -0.58508,
 12:05:49.680,ed:35:33:d3:6c:f8, 2015-01-01 01:35:44.575, 0.88, 0.115, 0.458, -3.967, -0.549, 0.366, 14.084, -61.381, 135.961, -21.800, -11.807, -16.813, 27.06, 0.26257, 0.50912, -0.09146, 0.81448,
 12:05:49.680,ed:35:33:d3:6c:f8, 2015-01-01 01:35:44.575, 0.875, 0.112, 0.46, -0.977, 1.587, -1.526, 14.052, -61.37, 135.939, -21.800, -11.807, -16.813, 27.06, 0.26257, 0.50912, -0.09146, 0.81448,
 12:05:49.682,ed:40:fe:65:30:6c, 2015-01-01 01:35:44.145, 0.877, 0.054, 0.49, 0, 0.427, -0.671, 6.306, -60.348, -121.284, -26.260, -8.787, 4.053, 22.39, -0.44611, 0.41446, 0.2879, 0.73904,
 12:05:49.682,ed:40:fe:65:30:6c, 2015-01-01 01:35:44.145, 0.879, 0.054, 0.492, -0.244, 0.61, -0.977, 6.328, -60.342, -121.311, -26.260, -8.787, 4.053, 22.39, -0.44611, 0.41446, 0.2879, 0.73904,
 12:05:49.706,e3:ca:2d:fd:e0:8c, 2015-01-01 01:35:45.185, 0.923, -0.1, -0.418, 0.061, 0.366, 0, -166.36, -65.176, -49.642, -26.953, -8.367, 3.527, 25.01, 0.1337, 0.78564, -0.29248, 0.52841,
 12:05:49.706,e3:ca:2d:fd:e0:8c, 2015-01-01 01:35:45.185, 0.923, -0.101, -0.417, 0.061, 0.488, 0, -166.36, -65.182, -49.62, -26.953, -8.367, 3.527, 25.01, 0.1337, 0.78564, -0.29248, 0.52841,
 12:05:49.708,f6:90:cc:01:6d:25, 2015-01-01 01:35:45.165, 0.933, 0.088, -0.314, -0.366, 0.305, 0, 164.042, -70.9, 15.233, -28.587, -14.340, 9.153, 27.14, -0.03534, -0.80966, -0.02774, -0.58508,
 12:05:49.708,f6:90:cc:01:6d:25, 2015-01-01 01:35:45.165, 0.933, 0.087, -0.312, -0.366, 0.488, 0, 164.037, -70.906, 15.216, -28.587, -14.340, 9.153, 27.14, -0.03534, -0.80966, -0.02774, -0.58508,
 12:05:49.712,ed:40:fe:65:30:6c, 2015-01-01 01:35:44.145, 0.879, 0.055, 0.491, -0.183, 0.671, -0.916, 6.356, -60.331, -121.349, -26.260, -8.787, 4.053, 22.39, -0.44717, 0.41403, 0.28751, 0.7388,
 12:05:49.712,ed:40:fe:65:30:6c, 2015-01-01 01:35:44.145, 0.874, 0.056, 0.492, -0.305, 0.427, -0.854, 6.378, -60.32, -121.377, -26.260, -8.787, 4.053, 22.39, -0.44717, 0.41403, 0.28751, 0.7388,
 12:05:49.736,e3:ca:2d:fd:e0:8c, 2015-01-01 01:35:45.185, 0.923, -0.101, -0.415, 0.244, 0.671, 0, -166.349, -65.193, -49.609, -26.593, -8.347, 3.480, 25.01, 0.1337, 0.78564, -0.29248, 0.52841,
 12:05:49.736,e3:ca:2d:fd:e0:8c, 2015-01-01 01:35:45.185, 0.925, -0.1, -0.414, 0.305, 0.793, 0, -166.339, -65.204, -49.592, -26.593, -8.347, 3.480, 25.01, 0.1337, 0.78564, -0.29248, 0.52841,
 12:05:49.740,ed:35:33:d3:6c:f8, 2015-01-01 01:35:44.575, 0.871, 0.116, 0.459, -1.099, 1.465, -2.441, 14.084, -61.337, 135.868, -21.800, -11.807, -16.813, 27.06, 0.26257, 0.50912, -0.09146, 0.81448,
 12:05:49.740,ed:35:33:d3:6c:f8, 2015-01-01 01:35:44.575, 0.877, 0.126, 0.469, -2.319, -0.549, -1.282, 14.112, -61.32, 135.813, -21.800, -11.807, -16.813, 27.06, 0.26257, 0.50912, -0.09146, 0.81448,
 12:05:49.742,ed:40:fe:65:30:6c, 2015-01-01 01:35:44.145, 0.883, 0.06, 0.498, -0.244, 0.305, -0.732, 6.4, -60.315, -121.41, -26.260, -8.787, 4.053, 22.39, -0.44717, 0.41403, 0.28751, 0.7388,
 12:05:49.742,ed:40:fe:65:30:6c, 2015-01-01 01:35:44.145, 0.876, 0.066, 0.499, -0.916, 0.183, -0.916, 6.416, -60.315, -121.443, -26.260, -8.787, 4.053, 22.39, -0.44717, 0.41403, 0.28751, 0.7388,
 12:05:49.770,ed:35:33:d3:6c:f8, 2015-01-01 01:35:44.575, 0.883, 0.121, 0.471, -2.319, 0.305, -0.305, 14.101, -61.32, 135.78, -21.800, -11.807, -16.813, 27.06, 0.26257, 0.50912, -0.09146, 0.81448,
 12:05:49.770,ed:35:33:d3:6c:f8, 2015-01-01 01:35:44.575, 0.868, 0.124, 0.479, -4.395, 0.305, -1.465, 14.062, -61.315, 135.747, -21.800, -11.807, -16.813, 27.06, 0.26257, 0.50912, -0.09146, 0.81448,
 12:05:49.796,e3:ca:2d:fd:e0:8c, 2015-01-01 01:35:45.185, 0.921, -0.101, -0.407, 0.122, 0.854, 0, -166.328, -65.22, -49.576, -26.593, -8.347, 3.480, 25.01, 0.1337, 0.78564, -0.29248, 0.52841,
 12:05:49.796,e3:ca:2d:fd:e0:8c, 2015-01-01 01:35:45.185, 0.923, -0.101, -0.399, 0, 0.671, 0, -166.322, -65.231, -49.581, -26.593, -8.347, 3.480, 25.01, 0.1337, 0.78564, -0.29248, 0.52841,
 12:05:49.798,f6:90:cc:01:6d:25, 2015-01-01 01:35:45.165, 0.934, 0.088, -0.309, 0, 0.732, 0, 164.026, -70.917, 15.2, -28.587, -14.340, 9.153, 27.14, -0.03534, -0.80966, -0.02774, -0.58508,
 12:05:49.798,f6:90:cc:01:6d:25, 2015-01-01 01:35:45.165, 0.93, 0.087, -0.305, -0.549, 0.793, 0, 164.015, -70.928, 15.172, -28.587, -14.340, 9.153, 27.14, -0.03534, -0.80966, -0.02774, -0.58508,
 12:05:49.800,ed:35:33:d3:6c:f8, 2015-01-01 01:35:44.575, 0.859, 0.116, 0.5, -5.554, 2.014, -1.526, 14.008, -61.282, 135.725, -21.800, -11.807, -16.813, 27.06, 0.26257, 0.50912, -0.09146, 0.81448,
 12:05:49.800,ed:35:33:d3:6c:f8, 2015-01-01 01:35:44.575, 0.848, 0.121, 0.472, -6.653, 0.549, -5.92, 14.008, -61.238, 135.615, -21.800, -11.807, -16.813, 27.06, 0.26257, 0.50912, -0.09146, 0.81448,
 12:05:49.802,ed:40:fe:65:30:6c, 2015-01-01 01:35:44.505, 0.876, 0.062, 0.515, -2.38, -0.488, -1.282, 6.422, -60.315, -121.492, -26.260, -8.787, 4.053, 22.39, -0.44717, 0.41403, 0.28751, 0.7388,
 12:05:49.802,ed:40:fe:65:30:6c, 2015-01-01 01:35:44.505, 0.865, 0.063, 0.518, -4.15, -0.916, -1.892, 6.416, -60.326, -121.569, -26.260, -8.787, 4.053, 22.39, -0.44717, 0.41403, 0.28751, 0.7388,
 12:05:49.826,e3:ca:2d:fd:e0:8c, 2015-01-01 01:35:45.185, 0.923, -0.097, -0.405, 0.366, 0.488, 0, -166.311, -65.242, -49.598, -26.593, -8.347, 3.480, 25.01, 0.13333, 0.78613, -0.29242, 0.52783,
 12:05:49.826,e3:ca:2d:fd:e0:8c, 2015-01-01 01:35:45.185, 0.924, -0.096, -0.417, 0.183, 0.305, 0, -166.306, -65.253, -49.62, -26.593, -8.347, 3.480, 25.01, 0.13333, 0.78613, -0.29242, 0.52783,
 12:05:49.827,f6:90:cc:01:6d:25, 2015-01-01 01:35:45.165, 0.93, 0.088, -0.293, -0.488, 1.099, 0, 163.993, -70.944, 15.145, -28.213, -14.440, 8.813, 27.14, -0.03534, -0.80966, -0.02774, -0.58508,
 12:05:49.827,f6:90:cc:01:6d:25, 2015-01-01 01:35:45.165, 0.932, 0.091, -0.297, 0.427, 1.343, 0, 163.965, -70.966, 15.15, -28.213, -14.440, 8.813, 27.14, -0.03534, -0.80966, -0.02774, -0.58508,
 12:05:49.834,ed:40:fe:65:30:6c, 2015-01-01 01:35:44.505, 0.877, 0.067, 0.49, -5.31, -0.977, -1.892, 6.4, -60.337, -121.668, -26.260, -8.787, 4.053, 22.39, -0.44717, 0.41403, 0.28751, 0.7388,
 12:05:49.834,ed:40:fe:65:30:6c, 2015-01-01 01:35:44.505, 0.88, 0.066, 0.49, -4.822, -1.465, -1.282, 6.361, -60.359, -121.745, -26.260, -8.787, 4.053, 22.39, -0.44717, 0.41403, 0.28751, 0.7388,
 12:05:49.855,e3:ca:2d:fd:e0:8c, 2015-01-01 01:35:45.185, 0.922, -0.101, -0.419, 0.061, 0.305, 0, -166.3, -65.259, -49.625, -26.593, -8.347, 3.480, 25.01, 0.13333, 0.78613, -0.29242, 0.52783,
 12:05:49.855,e3:ca:2d:fd:e0:8c, 2015-01-01 01:35:45.185, 0.924, -0.101, -0.428, 0.061, 0.671, 0, -166.295, -65.27, -49.625, -26.593, -8.347, 3.480, 25.01, 0.13333, 0.78613, -0.29242, 0.52783,
 12:05:49.857,f6:90:cc:01:6d:25, 2015-01-01 01:35:45.165, 0.936, 0.093, -0.306, 1.648, 1.282, 0, 163.96, -70.994, 15.167, -28.213, -14.440, 8.813, 27.14, -0.03534, -0.80966, -0.02774, -0.58508,
 12:05:49.857,f6:90:cc:01:6d:25, 2015-01-01 01:35:45.165, 0.934, 0.09, -0.312, 1.16, 1.282, 0, 163.965, -71.021, 15.189, -28.213, -14.440, 8.813, 27.14, -0.03534, -0.80966, -0.02774, -0.58508,
 12:05:49.861,ed:35:33:d3:6c:f8, 2015-01-01 01:35:44.575, 0.889, 0.139, 0.453, -7.08, 0.427, -5.432, 14.068, -61.194, 135.412, -21.800, -11.807, -16.813, 27.06, 0.26257, 0.50912, -0.09146, 0.81448,
 12:05:49.861,ed:35:33:d3:6c:f8, 2015-01-01 01:35:44.575, 0.866, 0.129, 0.475, -5.859, 2.502, -2.319, 14.073, -61.144, 135.269, -21.800, -11.807, -16.813, 27.06, 0.26257, 0.50912, -0.09146, 0.81448,
 12:05:49.863,ed:40:fe:65:30:6c, 2015-01-01 01:35:44.505, 0.869, 0.055, 0.503, -4.089, -2.686, -0.61, 6.317, -60.403, -121.794, -26.260, -8.787, 4.053, 22.39, -0.44717, 0.41403, 0.28751, 0.7388,
 12:05:49.863,ed:40:fe:65:30:6c, 2015-01-01 01:35:44.505, 0.858, 0.045, 0.494, -3.357, -4.089, 0.244, 6.268, -60.474, -121.811, -26.260, -8.787, 4.053, 22.39, -0.44717, 0.41403, 0.28751, 0.7388,
 12:05:49.891,ed:35:33:d3:6c:f8, 2015-01-01 01:35:44.575, 0.854, 0.11, 0.479, -5.432, 2.869, -1.587, 14.013, -61.078, 135.236, -21.527, -12.207, -17.840, 27.06, 0.26257, 0.50912, -0.09146, 0.81448,
 12:05:49.891,ed:35:33:d3:6c:f8, 2015-01-01 01:35:44.575, 0.859, 0.115, 0.465, -5.493, 2.625, -1.099, 13.931, -61.018, 135.242, -21.527, -12.207, -17.840, 27.06, 0.26257, 0.50912, -0.09146, 0.81448,
 12:05:49.920,ed:35:33:d3:6c:f8, 2015-01-01 01:35:44.575, 0.882, 0.11, 0.472, -5.371, 0.488, 0.305, 13.826, -60.98, 135.297, -21.527, -12.207, -17.840, 27.06, 0.26257, 0.50912, -0.09146, 0.81448,
 12:05:49.920,ed:35:33:d3:6c:f8, 2015-01-01 01:35:44.575, 0.851, 0.098, 0.485, -1.953, 0.549, -1.404, 13.771, -60.969, 135.33, -21.527, -12.207, -17.840, 27.06, 0.26257, 0.50912, -0.09146, 0.81448,
 12:05:49.944,e3:ca:2d:fd:e0:8c, 2015-01-01 01:35:45.540, 0.924, -0.101, -0.424, 0, 0.732, 0, -166.289, -65.281, -49.647, -26.593, -8.347, 3.480, 25.01, 0.13333, 0.78613, -0.29242, 0.52783,
 12:05:49.944,e3:ca:2d:fd:e0:8c, 2015-01-01 01:35:45.540, 0.923, -0.1, -0.424, 0.061, 0.732, 0, -166.284, -65.292, -49.68, -26.593, -8.347, 3.480, 25.01, 0.13333, 0.78613, -0.29242, 0.52783,
 12:05:49.946,e3:ca:2d:fd:e0:8c, 2015-01-01 01:35:45.540, 0.923, -0.099, -0.421, 0.061, 0.366, 0, -166.284, -65.297, -49.708, -26.593, -8.347, 3.480, 25.01, 0.13333, 0.78613, -0.29242, 0.52783,
 12:05:49.946,e3:ca:2d:fd:e0:8c, 2015-01-01 01:35:45.540, 0.922, -0.099, -0.419, 0.061, 0.122, 0, -166.284, -65.297, -49.724, -26.593, -8.347, 3.480, 25.01, 0.13333, 0.78613, -0.29242, 0.52783,
 12:05:49.948,f6:90:cc:01:6d:25, 2015-01-01 01:35:45.165, 0.935, 0.087, -0.316, 1.465, 0.793, 0, 163.971, -71.038, 15.222, -28.213, -14.440, 8.813, 27.14, -0.03534, -0.80966, -0.02774, -0.58508,
 12:05:49.948,f6:90:cc:01:6d:25, 2015-01-01 01:35:45.165, 0.936, 0.086, -0.316, 1.587, 0.061, 0, 163.993, -71.049, 15.255, -28.213, -14.440, 8.813, 27.14, -0.03534, -0.80966, -0.02774, -0.58508,
 12:05:49.952,ed:40:fe:65:30:6c, 2015-01-01 01:35:44.505, 0.856, 0.048, 0.49, -2.258, -4.883, 1.16, 6.207, -60.562, -121.783, -26.260, -8.787, 4.053, 22.39, -0.44717, 0.41403, 0.28751, 0.7388,
 12:05:49.952,ed:40:fe:65:30:6c, 2015-01-01 01:35:44.505, 0.867, 0.048, 0.497, -2.014, -6.592, 1.831, 6.13, -60.683, -121.729, -26.260, -8.787, 4.053, 22.39, -0.44717, 0.41403, 0.28751, 0.7388,
 12:05:49.952,ed:40:fe:65:30:6c, 2015-01-01 01:35:44.505, 0.852, 0.045, 0.498, -0.977, -4.211, 0.793, 6.086, -60.776, -121.701, -26.260, -8.787, 4.053, 22.39, -0.44717, 0.41403, 0.28751, 0.7388,
 12:05:49.952,ed:40:fe:65:30:6c, 2015-01-01 01:35:44.505, 0.85, 0.044, 0.494, -0.732, -4.333, 0.061, 6.081, -60.853, -121.707, -26.260, -8.787, 4.053, 22.39, -0.44717, 0.41403, 0.28751, 0.7388,
 12:05:49.976,e3:ca:2d:fd:e0:8c, 2015-01-01 01:35:45.540, 0.922, -0.099, -0.415, -0.061, 0, 0, -166.284, -65.297, -49.735, -26.593, -8.347, 3.480, 25.01, 0.13333, 0.78613, -0.29242, 0.52783,
 12:05:49.976,e3:ca:2d:fd:e0:8c, 2015-01-01 01:35:45.540, 0.922, -0.101, -0.413, 0, -0.183, 0, -166.289, -65.292, -49.735, -26.593, -8.347, 3.480, 25.01, 0.13333, 0.78613, -0.29242, 0.52783,
 12:05:49.978,f6:90:cc:01:6d:25, 2015-01-01 01:35:45.165, 0.934, 0.087, -0.312, 1.16, -0.122, 0, 164.026, -71.043, 15.26, -28.213, -14.440, 8.813, 27.14, -0.03607, -0.80951, -0.02664, -0.5853,
 12:05:49.978,f6:90:cc:01:6d:25, 2015-01-01 01:35:45.165, 0.933, 0.088, -0.305, 0.732, -0.793, 0, 164.048, -71.032, 15.255, -28.213, -14.440, 8.813, 27.14, -0.03607, -0.80951, -0.02664, -0.5853,
 12:05:49.980,ed:35:33:d3:6c:f8, 2015-01-01 01:35:44.575, 0.842, 0.105, 0.478, -1.709, -2.258, -1.404, 13.788, -60.974, 135.33, -21.527, -12.207, -17.840, 27.06, 0.2688, 0.50507, -0.09576, 0.81448,
 12:05:49.980,ed:35:33:d3:6c:f8, 2015-01-01 01:35:44.575, 0.85, 0.104, 0.468, -0.305, -2.319, -0.854, 13.821, -61.007, 135.335, -21.527, -12.207, -17.840, 27.06, 0.2688, 0.50507, -0.09576, 0.81448,
 12:05:49.982,ed:40:fe:65:30:6c, 2015-01-01 01:35:44.505, 0.858, 0.042, 0.491, 0.183, -3.113, -0.061, 6.086, -60.908, -121.718, -26.260, -8.787, 4.053, 22.39, -0.44717, 0.41403, 0.28751, 0.7388,
 12:05:49.982,ed:40:fe:65:30:6c, 2015-01-01 01:35:44.505, 0.867, 0.042, 0.484, 0.977, -1.648, -0.305, 6.114, -60.936, -121.729, -26.260, -8.787, 4.053, 22.39, -0.44717, 0.41403, 0.28751, 0.7388,
 12:05:50.008,f6:90:cc:01:6d:25, 2015-01-01 01:35:45.165, 0.932, 0.088, -0.309, 0.488, -1.343, 0, 164.081, -71.01, 15.233, -28.213, -14.440, 8.813, 27.14, -0.03607, -0.80951, -0.02664, -0.5853,
 12:05:50.008,f6:90:cc:01:6d:25, 2015-01-01 01:35:45.165, 0.931, 0.088, -0.305, 0.183, -1.77, 0, 164.108, -70.983, 15.2, -28.213, -14.440, 8.813, 27.14, -0.03607, -0.80951, -0.02664, -0.5853,
 12:05:50.010,ed:35:33:d3:6c:f8, 2015-01-01 01:35:44.965, 0.861, 0.104, 0.459, 0.977, -1.892, -0.61, 13.865, -61.04, 135.374, -21.527, -12.207, -17.840, 27.06, 0.2688, 0.50507, -0.09576, 0.81448,
 12:05:50.010,ed:35:33:d3:6c:f8, 2015-01-01 01:35:44.965, 0.866, 0.107, 0.452, 2.869, -3.296, -0.244, 13.942, -61.089, 135.412, -21.527, -12.207, -17.840, 27.06, 0.2688, 0.50507, -0.09576, 0.81448,
 12:05:50.036,e3:ca:2d:fd:e0:8c, 2015-01-01 01:35:45.540, 0.924, -0.101, -0.409, 0, -0.488, 0, -166.3, -65.281, -49.735, -26.593, -8.347, 3.480, 25.01, 0.13333, 0.78613, -0.29242, 0.52783,
 12:05:50.036,e3:ca:2d:fd:e0:8c, 2015-01-01 01:35:45.540, 0.924, -0.101, -0.407, -0.061, -0.549, 0, -166.306, -65.27, -49.752, -26.593, -8.347, 3.480, 25.01, 0.13333, 0.78613, -0.29242, 0.52783,
 12:05:50.038,f6:90:cc:01:6d:25, 2015-01-01 01:35:45.165, 0.931, 0.084, -0.304, 0, -2.075, 0, 164.141, -70.944, 15.167, -28.213, -14.440, 8.813, 27.14, -0.03607, -0.80951, -0.02664, -0.5853,
 12:05:50.038,f6:90:cc:01:6d:25, 2015-01-01 01:35:45.165, 0.931, 0.086, -0.304, -0.061, -2.136, 0, 164.174, -70.906, 15.134, -28.213, -14.440, 8.813, 27.14, -0.03607, -0.80951, -0.02664, -0.5853,
 12:05:50.040,ed:35:33:d3:6c:f8, 2015-01-01 01:35:44.965, 0.868, 0.108, 0.454, 4.578, -4.517, 0, 14.052, -61.172, 135.439, -21.527, -12.207, -17.840, 27.06, 0.2688, 0.50507, -0.09576, 0.81448,
 12:05:50.040,ed:35:33:d3:6c:f8, 2015-01-01 01:35:44.965, 0.874, 0.112, 0.45, 4.578, -5.737, -0.671, 14.2, -61.271, 135.401, -21.527, -12.207, -17.840, 27.06, 0.2688, 0.50507, -0.09576, 0.81448,
 12:05:50.042,ed:40:fe:65:30:6c, 2015-01-01 01:35:44.505, 0.871, 0.047, 0.479, 1.465, -0.244, -0.671, 6.158, -60.941, -121.745, -26.053, -9.053, 4.253, 22.39, -0.44717, 0.41403, 0.28751, 0.7388,
 12:05:50.042,ed:40:fe:65:30:6c, 2015-01-01 01:35:44.505, 0.873, 0.049, 0.484, 1.526, 1.16, -1.343, 6.218, -60.914, -121.783, -26.053, -9.053, 4.253, 22.39, -0.44717, 0.41403, 0.28751, 0.7388,
 12:05:50.066,e3:ca:2d:fd:e0:8c, 2015-01-01 01:35:45.540, 0.923, -0.1, -0.406, -0.061, -0.244, 0, -166.311, -65.264, -49.763, -26.593, -8.347, 3.480, 25.01, 0.13333, 0.78613, -0.29242, 0.52783,
 12:05:50.066,e3:ca:2d:fd:e0:8c, 2015-01-01 01:35:45.540, 0.921, -0.097, -0.402, 0.061, 0, 0, -166.311, -65.259, -49.779, -26.593, -8.347, 3.480, 25.01, 0.13333, 0.78613, -0.29242, 0.52783,
 12:05:50.068,f6:90:cc:01:6d:25, 2015-01-01 01:35:45.640, 0.933, 0.086, -0.308, -0.366, -1.831, 0, 164.202, -70.873, 15.128, -28.213, -14.440, 8.813, 27.14, -0.03607, -0.80951, -0.02664, -0.5853,
 12:05:50.068,f6:90:cc:01:6d:25, 2015-01-01 01:35:45.640, 0.932, 0.088, -0.311, -0.549, -1.221, 0, 164.213, -70.845, 15.134, -28.213, -14.440, 8.813, 27.14, -0.03607, -0.80951, -0.02664, -0.5853,
 12:05:50.068,f6:90:cc:01:6d:25, 2015-01-01 01:35:45.640, 0.928, 0.091, -0.307, -0.122, -0.488, 0, 164.218, -70.829, 15.156, -28.213, -14.440, 8.813, 27.14, -0.03607, -0.80951, -0.02664, -0.5853,
 12:05:50.068,f6:90:cc:01:6d:25, 2015-01-01 01:35:45.640, 0.929, 0.096, -0.296, 0.977, -0.183, 0, 164.229, -70.829, 15.178, -28.213, -14.440, 8.813, 27.14, -0.03607, -0.80951, -0.02664, -0.5853,
 12:05:50.072,ed:40:fe:65:30:6c, 2015-01-01 01:35:44.505, 0.878, 0.052, 0.484, 0.977, 2.869, -2.014, 6.29, -60.853, -121.855, -26.053, -9.053, 4.253, 22.39, -0.4426, 0.41898, 0.28708, 0.73895,
 12:05:50.072,ed:40:fe:65:30:6c, 2015-01-01 01:35:44.505, 0.88, 0.056, 0.495, 0.427, 4.333, -2.014, 6.35, -60.765, -121.921, -26.053, -9.053, 4.253, 22.39, -0.4426, 0.41898, 0.28708, 0.73895,
 12:05:50.094,e3:ca:2d:fd:e0:8c, 2015-01-01 01:35:45.540, 0.923, -0.094, -0.4, -0.061, 0, 0, -166.317, -65.264, -49.785, -26.667, -8.147, 2.767, 25.01, 0.13333, 0.78613, -0.29242, 0.52783,
 12:05:50.094,e3:ca:2d:fd:e0:8c, 2015-01-01 01:35:45.540, 0.924, -0.1, -0.408, -0.244, -0.366, 0, -166.322, -65.259, -49.785, -26.667, -8.147, 2.767, 25.01, 0.13333, 0.78613, -0.29242, 0.52783,
 12:05:50.100,ed:35:33:d3:6c:f8, 2015-01-01 01:35:44.965, 0.87, 0.122, 0.464, 4.761, -3.723, -0.183, 14.332, -61.348, 135.374, -21.527, -12.207, -17.840, 27.06, 0.2688, 0.50507, -0.09576, 0.81448,
 12:05:50.100,ed:35:33:d3:6c:f8, 2015-01-01 01:35:44.965, 0.88, 0.121, 0.477, 0.61, -1.099, -1.282, 14.409, -61.375, 135.324, -21.527, -12.207, -17.840, 27.06, 0.2688, 0.50507, -0.09576, 0.81448,
 12:05:50.102,ed:40:fe:65:30:6c, 2015-01-01 01:35:44.505, 0.889, 0.057, 0.489, 0.244, 2.319, -1.709, 6.405, -60.705, -121.981, -26.053, -9.053, 4.253, 22.39, -0.4426, 0.41898, 0.28708, 0.73895,
 12:05:50.102,ed:40:fe:65:30:6c, 2015-01-01 01:35:44.505, 0.891, 0.065, 0.487, 1.709, 0.366, -0.061, 6.443, -60.683, -121.987, -26.053, -9.053, 4.253, 22.39, -0.4426, 0.41898, 0.28708, 0.73895,
 12:05:50.130,ed:35:33:d3:6c:f8, 2015-01-01 01:35:44.965, 0.89, 0.143, 0.469, -0.977, 1.953, -1.16, 14.425, -61.342, 135.302, -21.527, -12.207, -17.840, 27.06, 0.2688, 0.50507, -0.09576, 0.81448,
 12:05:50.130,ed:35:33:d3:6c:f8, 2015-01-01 01:35:44.965, 0.875, 0.134, 0.473, 1.16, -0.183, 1.038, 14.414, -61.337, 135.302, -21.527, -12.207, -17.840, 27.06, 0.2688, 0.50507, -0.09576, 0.81448,
 12:05:50.156,e3:ca:2d:fd:e0:8c, 2015-01-01 01:35:45.540, 0.923, -0.105, -0.419, 0, -0.488, 0, -166.328, -65.253, -49.785, -26.667, -8.147, 2.767, 25.01, 0.13333, 0.78613, -0.29242, 0.52783,
 12:05:50.156,e3:ca:2d:fd:e0:8c, 2015-01-01 01:35:45.540, 0.924, -0.102, -0.418, 0.122, -0.549, 0, -166.333, -65.242, -49.785, -26.667, -8.147, 2.767, 25.01, 0.13333, 0.78613, -0.29242, 0.52783,
 12:05:50.158,f6:90:cc:01:6d:25, 2015-01-01 01:35:45.640, 0.934, 0.089, -0.296, 0.793, -0.244, 0, 164.246, -70.829, 15.194, -28.213, -14.440, 8.813, 27.14, -0.03607, -0.80951, -0.02664, -0.5853,
 12:05:50.158,f6:90:cc:01:6d:25, 2015-01-01 01:35:45.640, 0.934, 0.082, -0.31, 0.122, -0.427, 0, 164.251, -70.823, 15.211, -28.213, -14.440, 8.813, 27.14, -0.03607, -0.80951, -0.02664, -0.5853,
 12:05:50.158,f6:90:cc:01:6d:25, 2015-01-01 01:35:45.640, 0.933, 0.083, -0.313, 0.061, -0.854, 0, 164.262, -70.818, 15.222, -28.213, -14.440, 8.813, 27.14, -0.03607, -0.80951, -0.02664, -0.5853,
 12:05:50.158,f6:90:cc:01:6d:25, 2015-01-01 01:35:45.640, 0.931, 0.088, -0.311, -0.183, -1.038, 0, 164.273, -70.801, 15.227, -28.213, -14.440, 8.813, 27.14, -0.03607, -0.80951, -0.02664, -0.5853,
 12:05:50.160,ed:35:33:d3:6c:f8, 2015-01-01 01:35:44.965, 0.874, 0.123, 0.468, 0.854, -3.479, 1.465, 14.414, -61.386, 135.275, -21.527, -12.207, -17.840, 27.06, 0.2688, 0.50507, -0.09576, 0.81448,
 12:05:50.160,ed:35:33:d3:6c:f8, 2015-01-01 01:35:44.965, 0.883, 0.124, 0.47, 0.793, -3.113, 2.014, 14.398, -61.452, 135.269, -21.527, -12.207, -17.840, 27.06, 0.2688, 0.50507, -0.09576, 0.81448,
 12:05:50.162,ed:40:fe:65:30:6c, 2015-01-01 01:35:44.860, 0.877, 0.063, 0.493, 1.709, -0.793, 1.038, 6.449, -60.694, -121.943, -26.053, -9.053, 4.253, 22.39, -0.4426, 0.41898, 0.28708, 0.73895,
 12:05:50.162,ed:40:fe:65:30:6c, 2015-01-01 01:35:44.860, 0.88, 0.057, 0.495, 0.916, -1.221, 1.221, 6.438, -60.721, -121.893, -26.053, -9.053, 4.253, 22.39, -0.4426, 0.41898, 0.28708, 0.73895,
 12:05:50.186,e3:ca:2d:fd:e0:8c, 2015-01-01 01:35:45.540, 0.923, -0.099, -0.415, -0.061, -0.549, 0, -166.339, -65.231, -49.785, -26.667, -8.147, 2.767, 25.01, 0.13443, 0.78549, -0.29379, 0.52771,
 12:05:50.186,e3:ca:2d:fd:e0:8c, 2015-01-01 01:35:45.540, 0.925, -0.098, -0.419, -0.244, -0.427, 0, -166.349, -65.226, -49.774, -26.667, -8.147, 2.767, 25.01, 0.13443, 0.78549, -0.29379, 0.52771,
 12:05:50.188,f6:90:cc:01:6d:25, 2015-01-01 01:35:45.640, 0.933, 0.09, -0.314, -0.183, -1.099, 0, 164.284, -70.785, 15.227, -28.213, -14.440, 8.813, 27.14, -0.03607, -0.80951, -0.02664, -0.5853,
 12:05:50.188,f6:90:cc:01:6d:25, 2015-01-01 01:35:45.640, 0.934, 0.089, -0.319, -0.061, -1.099, 0, 164.295, -70.763, 15.227, -28.213, -14.440, 8.813, 27.14, -0.03607, -0.80951, -0.02664, -0.5853,
 12:05:50.192,ed:40:fe:65:30:6c, 2015-01-01 01:35:44.860, 0.888, 0.06, 0.494, 0.488, -1.282, 1.221, 6.411, -60.743, -121.838, -26.053, -9.053, 4.253, 22.39, -0.4426, 0.41898, 0.28708, 0.73895,
 12:05:50.192,ed:40:fe:65:30:6c, 2015-01-01 01:35:44.860, 0.886, 0.06, 0.48, -0.061, -1.709, 0.732, 6.394, -60.776, -121.811, -26.053, -9.053, 4.253, 22.39, -0.4426, 0.41898, 0.28708, 0.73895,
 12:05:50.220,ed:35:33:d3:6c:f8, 2015-01-01 01:35:44.965, 0.884, 0.118, 0.457, 0.366, -2.136, 1.282, 14.376, -61.501, 135.264, -21.527, -12.207, -17.840, 27.06, 0.2688, 0.50507, -0.09576, 0.81448,
 12:05:50.220,ed:35:33:d3:6c:f8, 2015-01-01 01:35:44.965, 0.88, 0.117, 0.452, -0.244, -2.808, 0.427, 14.381, -61.556, 135.236, -21.527, -12.207, -17.840, 27.06, 0.2688, 0.50507, -0.09576, 0.81448,
 12:05:50.222,ed:40:fe:65:30:6c, 2015-01-01 01:35:44.860, 0.882, 0.057, 0.481, -0.916, -1.587, -0.061, 6.383, -60.809, -121.811, -26.053, -9.053, 4.253, 22.39, -0.4426, 0.41898, 0.28708, 0.73895,
 12:05:50.222,ed:40:fe:65:30:6c, 2015-01-01 01:35:44.860, 0.879, 0.055, 0.482, -1.282, -1.038, -0.427, 6.378, -60.831, -121.827, -26.053, -9.053, 4.253, 22.39, -0.4426, 0.41898, 0.28708, 0.73895,
 12:05:50.244,e3:ca:2d:fd:e0:8c, 2015-01-01 01:35:45.540, 0.924, -0.099, -0.423, -0.305, -0.366, 0, -166.36, -65.215, -49.774, -26.667, -8.147, 2.767, 25.01, 0.13443, 0.78549, -0.29379, 0.52771,
 12:05:50.244,e3:ca:2d:fd:e0:8c, 2015-01-01 01:35:45.540, 0.923, -0.099, -0.429, -0.305, -0.183, 0, -166.366, -65.209, -49.757, -26.667, -8.147, 2.767, 25.01, 0.13443, 0.78549, -0.29379, 0.52771,
 12:05:50.248,f6:90:cc:01:6d:25, 2015-01-01 01:35:45.640, 0.933, 0.089, -0.328, 0, -0.977, 0, 164.312, -70.746, 15.216, -28.213, -14.440, 8.813, 27.14, -0.03607, -0.80951, -0.02664, -0.5853,
 12:05:50.248,f6:90:cc:01:6d:25, 2015-01-01 01:35:45.640, 0.932, 0.09, -0.324, 0.122, -1.038, 0, 164.328, -70.724, 15.2, -28.213, -14.440, 8.813, 27.14, -0.03607, -0.80951, -0.02664, -0.5853,
 12:05:50.250,ed:35:33:d3:6c:f8, 2015-01-01 01:35:44.965, 0.877, 0.119, 0.452, -0.122, -4.761, 0.427, 14.403, -61.639, 135.198, -22.193, -11.580, -17.867, 27.06, 0.2688, 0.50507, -0.09576, 0.81448,
 12:05:50.250,ed:35:33:d3:6c:f8, 2015-01-01 01:35:44.965, 0.875, 0.119, 0.448, -0.061, -5.554, 0.488, 14.436, -61.738, 135.148, -22.193, -11.580, -17.867, 27.06, 0.2688, 0.50507, -0.09576, 0.81448,
 12:05:50.275,e3:ca:2d:fd:e0:8c, 2015-01-01 01:35:45.900, 0.922, -0.098, -0.427, -0.244, -0.061, 0, -166.377, -65.209, -49.757, -26.667, -8.147, 2.767, 25.01, 0.13443, 0.78549, -0.29379, 0.52771,
 12:05:50.275,e3:ca:2d:fd:e0:8c, 2015-01-01 01:35:45.900, 0.923, -0.098, -0.422, -0.244, 0, 0, -166.388, -65.204, -49.757, -26.667, -8.147, 2.767, 25.01, 0.13443, 0.78549, -0.29379, 0.52771,
 12:05:50.277,f6:90:cc:01:6d:25, 2015-01-01 01:35:45.640, 0.932, 0.089, -0.321, 0, -1.038, 0, 164.344, -70.708, 15.167, -28.920, -13.987, 9.620, 27.14, -0.03607, -0.80951, -0.02664, -0.5853,
 12:05:50.277,f6:90:cc:01:6d:25, 2015-01-01 01:35:45.640, 0.932, 0.089, -0.32, 0, -1.038, 0, 164.361, -70.686, 15.134, -28.920, -13.987, 9.620, 27.14, -0.03607, -0.80951, -0.02664, -0.5853,
 12:05:50.281,ed:35:33:d3:6c:f8, 2015-01-01 01:35:44.965, 0.876, 0.117, 0.444, 0.244, -5.188, 0.549, 14.474, -61.842, 135.126, -22.193, -11.580, -17.867, 27.06, 0.2688, 0.50507, -0.09576, 0.81448,
 12:05:50.281,ed:35:33:d3:6c:f8, 2015-01-01 01:35:44.965, 0.882, 0.115, 0.444, 0.488, -4.028, 0.488, 14.507, -61.93, 135.132, -22.193, -11.580, -17.867, 27.06, 0.2688, 0.50507, -0.09576, 0.81448,
 12:05:50.283,ed:40:fe:65:30:6c, 2015-01-01 01:35:44.860, 0.876, 0.056, 0.481, -1.526, -0.488, -0.427, 6.372, -60.848, -121.838, -26.053, -9.053, 4.253, 22.39, -0.4426, 0.41898, 0.28708, 0.73895,
 12:05:50.283,ed:40:fe:65:30:6c, 2015-01-01 01:35:44.860, 0.878, 0.054, 0.48, -1.343, 0.366, -0.366, 6.361, -60.842, -121.849, -26.053, -9.053, 4.253, 22.39, -0.4426, 0.41898, 0.28708, 0.73895,
 12:05:50.305,e3:ca:2d:fd:e0:8c, 2015-01-01 01:35:45.900, 0.924, -0.099, -0.421, 0, 0.061, 0, -166.393, -65.204, -49.757, -26.667, -8.147, 2.767, 25.01, 0.13443, 0.78549, -0.29379, 0.52771,
 12:05:50.305,e3:ca:2d:fd:e0:8c, 2015-01-01 01:35:45.900, 0.924, -0.099, -0.421, 0.244, 0.061, 0, -166.393, -65.198, -49.763, -26.667, -8.147, 2.767, 25.01, 0.13443, 0.78549, -0.29379, 0.52771,
 12:05:50.307,f6:90:cc:01:6d:25, 2015-01-01 01:35:45.640, 0.933, 0.088, -0.319, 0.122, -0.854, 0, 164.377, -70.664, 15.101, -28.920, -13.987, 9.620, 27.14, -0.03607, -0.80951, -0.02664, -0.5853,
 12:05:50.307,f6:90:cc:01:6d:25, 2015-01-01 01:35:45.640, 0.931, 0.087, -0.318, -0.122, -0.854, 0, 164.388, -70.648, 15.062, -28.920, -13.987, 9.620, 27.14, -0.03607, -0.80951, -0.02664, -0.5853,
 12:05:50.313,ed:40:fe:65:30:6c, 2015-01-01 01:35:44.860, 0.881, 0.052, 0.48, -0.793, 1.099, -0.305, 6.35, -60.826, -121.855, -26.053, -9.053, 4.253, 22.39, -0.4426, 0.41898, 0.28708, 0.73895,
 12:05:50.313,ed:40:fe:65:30:6c, 2015-01-01 01:35:44.860, 0.88, 0.053, 0.479, 0.244, 1.221, 0.061, 6.35, -60.804, -121.849, -26.053, -9.053, 4.253, 22.39, -0.4426, 0.41898, 0.28708, 0.73895,
 12:05:50.343,ed:40:fe:65:30:6c, 2015-01-01 01:35:44.860, 0.874, 0.047, 0.484, 1.038, 1.038, 0.427, 6.35, -60.787, -121.827, -26.073, -8.920, 4.260, 22.39, -0.4426, 0.41898, 0.28708, 0.73895,
 12:05:50.343,ed:40:fe:65:30:6c, 2015-01-01 01:35:44.860, 0.875, 0.051, 0.489, 1.099, 0.793, 0.305, 6.356, -60.776, -121.811, -26.073, -8.920, 4.260, 22.39, -0.4426, 0.41898, 0.28708, 0.73895,
 12:05:50.366,e3:ca:2d:fd:e0:8c, 2015-01-01 01:35:45.900, 0.923, -0.101, -0.416, 0.366, 0.061, 0, -166.388, -65.198, -49.763, -26.667, -8.147, 2.767, 25.01, 0.13443, 0.78549, -0.29379, 0.52771,
 12:05:50.366,e3:ca:2d:fd:e0:8c, 2015-01-01 01:35:45.900, 0.924, -0.1, -0.412, 0.427, 0.122, 0, -166.382, -65.198, -49.768, -26.667, -8.147, 2.767, 25.01, 0.13443, 0.78549, -0.29379, 0.52771,
 12:05:50.368,f6:90:cc:01:6d:25, 2015-01-01 01:35:45.640, 0.931, 0.086, -0.316, 0, -0.549, 0, 164.399, -70.631, 15.046, -28.920, -13.987, 9.620, 27.14, -0.03473, -0.81161, -0.02811, -0.5824,
 12:05:50.368,f6:90:cc:01:6d:25, 2015-01-01 01:35:45.640, 0.932, 0.088, -0.318, 0.244, -0.122, 0, 164.405, -70.626, 15.068, -28.920, -13.987, 9.620, 27.14, -0.03473, -0.81161, -0.02811, -0.5824,
 12:05:50.370,ed:35:33:d3:6c:f8, 2015-01-01 01:35:44.965, 0.882, 0.12, 0.442, 1.404, -3.174, 0.549, 14.546, -61.996, 135.17, -22.193, -11.580, -17.867, 27.06, 0.2645, 0.51306, -0.09467, 0.811,
 12:05:50.370,ed:35:33:d3:6c:f8, 2015-01-01 01:35:44.965, 0.876, 0.113, 0.447, 2.869, -2.625, 1.526, 14.573, -62.056, 135.247, -22.193, -11.580, -17.867, 27.06, 0.2645, 0.51306, -0.09467, 0.811,
 12:05:50.370,ed:35:33:d3:6c:f8, 2015-01-01 01:35:44.965, 0.876, 0.111, 0.452, 2.319, -3.052, 1.343, 14.601, -62.117, 135.313, -22.193, -11.580, -17.867, 27.06, 0.2645, 0.51306, -0.09467, 0.811,
 12:05:50.370,ed:35:33:d3:6c:f8, 2015-01-01 01:35:44.965, 0.88, 0.119, 0.454, 2.075, -3.662, 0.854, 14.639, -62.188, 135.363, -22.193, -11.580, -17.867, 27.06, 0.2645, 0.51306, -0.09467, 0.811,
 12:05:50.395,e3:ca:2d:fd:e0:8c, 2015-01-01 01:35:45.900, 0.924, -0.099, -0.414, 0.366, 0.427, 0, -166.371, -65.204, -49.774, -26.667, -8.147, 2.767, 25.01, 0.13443, 0.78549, -0.29379, 0.52771,
 12:05:50.395,e3:ca:2d:fd:e0:8c, 2015-01-01 01:35:45.900, 0.924, -0.098, -0.417, 0.183, 0.671, 0, -166.366, -65.215, -49.779, -26.667, -8.147, 2.767, 25.01, 0.13443, 0.78549, -0.29379, 0.52771,
 12:05:50.397,f6:90:cc:01:6d:25, 2015-01-01 01:35:46.000, 0.931, 0.09, -0.317, 0.366, 0, 0, 164.416, -70.626, 15.09, -28.920, -13.987, 9.620, 27.14, -0.03473, -0.81161, -0.02811, -0.5824,
 12:05:50.397,f6:90:cc:01:6d:25, 2015-01-01 01:35:46.000, 0.931, 0.09, -0.314, 0.366, -0.061, 0, 164.421, -70.626, 15.106, -28.920, -13.987, 9.620, 27.14, -0.03473, -0.81161, -0.02811, -0.5824,
 12:05:50.401,ed:35:33:d3:6c:f8, 2015-01-01 01:35:45.320, 0.887, 0.125, 0.446, 2.075, -3.174, 1.038, 14.678, -62.254, 135.423, -22.193, -11.580, -17.867, 27.06, 0.2645, 0.51306, -0.09467, 0.811,
 12:05:50.401,ed:35:33:d3:6c:f8, 2015-01-01 01:35:45.320, 0.883, 0.119, 0.448, 2.808, -1.831, 1.709, 14.694, -62.303, 135.478, -22.193, -11.580, -17.867, 27.06, 0.2645, 0.51306, -0.09467, 0.811,
 12:05:50.403,ed:40:fe:65:30:6c, 2015-01-01 01:35:44.860, 0.878, 0.058, 0.494, 0.977, 1.038, 0.061, 6.367, -60.76, -121.789, -26.073, -8.920, 4.260, 22.39, -0.4426, 0.41898, 0.28708, 0.73895,
 12:05:50.403,ed:40:fe:65:30:6c, 2015-01-01 01:35:44.860, 0.883, 0.059, 0.487, 1.221, 1.099, 0.427, 6.378, -60.738, -121.75, -26.073, -8.920, 4.260, 22.39, -0.4426, 0.41898, 0.28708, 0.73895,
 12:05:50.426,e3:ca:2d:fd:e0:8c, 2015-01-01 01:35:45.900, 0.923, -0.099, -0.416, 0.183, 0.732, 0, -166.355, -65.226, -49.79, -26.667, -8.147, 2.767, 25.01, 0.13443, 0.78549, -0.29379, 0.52771,
 12:05:50.426,e3:ca:2d:fd:e0:8c, 2015-01-01 01:35:45.900, 0.923, -0.102, -0.413, 0.061, 0.61, 0, -166.349, -65.237, -49.801, -26.667, -8.147, 2.767, 25.01, 0.13443, 0.78549, -0.29379, 0.52771,
 12:05:50.428,f6:90:cc:01:6d:25, 2015-01-01 01:35:46.000, 0.93, 0.086, -0.309, 0, -0.366, 0, 164.427, -70.62, 15.123, -28.920, -13.987, 9.620, 27.14, -0.03473, -0.81161, -0.02811, -0.5824,
 12:05:50.428,f6:90:cc:01:6d:25, 2015-01-01 01:35:46.000, 0.93, 0.084, -0.31, -0.061, -0.61, 0, 164.432, -70.609, 15.134, -28.920, -13.987, 9.620, 27.14, -0.03473, -0.81161, -0.02811, -0.5824,
 12:05:50.433,ed:40:fe:65:30:6c, 2015-01-01 01:35:44.860, 0.878, 0.053, 0.486, 1.648, 0.183, 0.854, 6.378, -60.732, -121.707, -26.073, -8.920, 4.260, 22.39, -0.44363, 0.41772, 0.28754, 0.73883,
 12:05:50.433,ed:40:fe:65:30:6c, 2015-01-01 01:35:44.860, 0.874, 0.056, 0.49, 1.221, -0.671, 0.854, 6.378, -60.743, -121.674, -26.073, -8.920, 4.260, 22.39, -0.44363, 0.41772, 0.28754, 0.73883,
 12:05:50.461,ed:35:33:d3:6c:f8, 2015-01-01 01:35:45.320, 0.877, 0.117, 0.453, 1.221, -1.099, 1.404, 14.683, -62.331, 135.527, -22.193, -11.580, -17.867, 27.06, 0.2645, 0.51306, -0.09467, 0.811,
 12:05:50.461,ed:35:33:d3:6c:f8, 2015-01-01 01:35:45.320, 0.877, 0.119, 0.453, 0, -1.465, 0.854, 14.667, -62.364, 135.549, -22.193, -11.580, -17.867, 27.06, 0.2645, 0.51306, -0.09467, 0.811,
 12:05:50.463,ed:40:fe:65:30:6c, 2015-01-01 01:35:44.860, 0.872, 0.059, 0.496, 0.549, -0.854, 0.671, 6.372, -60.765, -121.641, -26.073, -8.920, 4.260, 22.39, -0.44363, 0.41772, 0.28754, 0.73883,
 12:05:50.463,ed:40:fe:65:30:6c, 2015-01-01 01:35:44.860, 0.87, 0.059, 0.5, -0.366, -0.854, 0, 6.367, -60.782, -121.641, -26.073, -8.920, 4.260, 22.39, -0.44363, 0.41772, 0.28754, 0.73883,
 12:05:50.485,e3:ca:2d:fd:e0:8c, 2015-01-01 01:35:45.900, 0.923, -0.102, -0.41, 0.061, 0.427, 0, -166.349, -65.242, -49.807, -26.667, -8.147, 2.767, 25.01, 0.13443, 0.78549, -0.29379, 0.52771,
 12:05:50.485,e3:ca:2d:fd:e0:8c, 2015-01-01 01:35:45.900, 0.923, -0.1, -0.41, 0.061, 0.122, 0, -166.344, -65.248, -49.812, -26.667, -8.147, 2.767, 25.01, 0.13443, 0.78549, -0.29379, 0.52771,
 12:05:50.487,f6:90:cc:01:6d:25, 2015-01-01 01:35:46.000, 0.928, 0.087, -0.307, 0, -0.549, 0, 164.443, -70.598, 15.134, -28.920, -13.987, 9.620, 27.14, -0.03473, -0.81161, -0.02811, -0.5824,
 12:05:50.487,f6:90:cc:01:6d:25, 2015-01-01 01:35:46.000, 0.93, 0.09, -0.307, 0.549, -0.732, 0, 164.46, -70.587, 15.117, -28.920, -13.987, 9.620, 27.14, -0.03473, -0.81161, -0.02811, -0.5824,
 12:05:50.491,ed:35:33:d3:6c:f8, 2015-01-01 01:35:45.320, 0.873, 0.114, 0.462, -1.465, -1.77, 0, 14.656, -62.391, 135.533, -22.193, -11.580, -17.867, 27.06, 0.2645, 0.51306, -0.09467, 0.811,
 12:05:50.491,ed:35:33:d3:6c:f8, 2015-01-01 01:35:45.320, 0.879, 0.118, 0.453, -2.93, -2.441, -1.465, 14.667, -62.424, 135.472, -22.193, -11.580, -17.867, 27.06, 0.2645, 0.51306, -0.09467, 0.811,
 12:05:50.516,e3:ca:2d:fd:e0:8c, 2015-01-01 01:35:45.900, 0.923, -0.097, -0.41, -0.244, -0.061, 0, -166.349, -65.248, -49.812, -26.980, -8.453, 3.173, 25.01, 0.13443, 0.78549, -0.29379, 0.52771,
 12:05:50.516,e3:ca:2d:fd:e0:8c, 2015-01-01 01:35:45.900, 0.922, -0.098, -0.417, -0.244, 0.061, 0, -166.355, -65.248, -49.812, -26.980, -8.453, 3.173, 25.01, 0.13443, 0.78549, -0.29379, 0.52771,
 12:05:50.518,f6:90:cc:01:6d:25, 2015-01-01 01:35:46.000, 0.93, 0.09, -0.317, 0.793, -0.671, 0, 164.482, -70.576, 15.128, -28.920, -13.987, 9.620, 27.14, -0.03473, -0.81161, -0.02811, -0.5824,
 12:05:50.518,f6:90:cc:01:6d:25, 2015-01-01 01:35:46.000, 0.931, 0.087, -0.316, 0.61, -0.732, 0, 164.504, -70.565, 15.145, -28.920, -13.987, 9.620, 27.14, -0.03473, -0.81161, -0.02811, -0.5824,
 12:05:50.520,ed:35:33:d3:6c:f8, 2015-01-01 01:35:45.320, 0.881, 0.122, 0.445, -2.258, -2.869, -1.709, 14.705, -62.463, 135.363, -22.193, -11.580, -17.867, 27.06, 0.2645, 0.51306, -0.09467, 0.811,
 12:05:50.520,ed:35:33:d3:6c:f8, 2015-01-01 01:35:45.320, 0.883, 0.114, 0.449, -1.465, -3.113, -1.038, 14.749, -62.512, 135.258, -22.193, -11.580, -17.867, 27.06, 0.2645, 0.51306, -0.09467, 0.811,
 12:05:50.522,ed:40:fe:65:30:6c, 2015-01-01 01:35:45.220, 0.875, 0.062, 0.492, -1.526, -0.854, -0.977, 6.378, -60.793, -121.685, -26.073, -8.920, 4.260, 22.39, -0.44363, 0.41772, 0.28754, 0.73883,
 12:05:50.522,ed:40:fe:65:30:6c, 2015-01-01 01:35:45.220, 0.875, 0.057, 0.488, -1.892, -0.122, -1.282, 6.389, -60.787, -121.734, -26.073, -8.920, 4.260, 22.39, -0.44363, 0.41772, 0.28754, 0.73883,
 12:05:50.546,e3:ca:2d:fd:e0:8c, 2015-01-01 01:35:45.900, 0.923, -0.1, -0.418, -0.122, 0, 0, -166.36, -65.248, -49.818, -26.980, -8.453, 3.173, 25.01, 0.13443, 0.78549, -0.29379, 0.52771,
 12:05:50.546,e3:ca:2d:fd:e0:8c, 2015-01-01 01:35:45.900, 0.922, -0.102, -0.417, 0, -0.061, 0, -166.36, -65.248, -49.818, -26.980, -8.453, 3.173, 25.01, 0.13443, 0.78549, -0.29379, 0.52771,
 12:05:50.552,ed:40:fe:65:30:6c, 2015-01-01 01:35:45.220, 0.876, 0.048, 0.489, -1.526, -0.427, -1.099, 6.4, -60.793, -121.783, -26.073, -8.920, 4.260, 22.39, -0.44363, 0.41772, 0.28754, 0.73883,
 12:05:50.552,ed:40:fe:65:30:6c, 2015-01-01 01:35:45.220, 0.877, 0.046, 0.491, -0.793, -1.831, -0.671, 6.416, -60.826, -121.827, -26.073, -8.920, 4.260, 22.39, -0.44363, 0.41772, 0.28754, 0.73883,
 12:05:50.581,ed:35:33:d3:6c:f8, 2015-01-01 01:35:45.320, 0.884, 0.113, 0.453, -1.282, -2.991, -0.488, 14.771, -62.562, 135.181, -22.193, -11.580, -17.867, 27.06, 0.2645, 0.51306, -0.09467, 0.811,
 12:05:50.581,ed:35:33:d3:6c:f8, 2015-01-01 01:35:45.320, 0.877, 0.112, 0.453, -0.244, -3.418, 0, 14.793, -62.617, 135.165, -22.193, -11.580, -17.867, 27.06, 0.2645, 0.51306, -0.09467, 0.811,
 12:05:50.582,ed:40:fe:65:30:6c, 2015-01-01 01:35:45.220, 0.872, 0.049, 0.49, -0.244, -3.052, -0.366, 6.432, -60.881, -121.849, -26.073, -8.920, 4.260, 22.39, -0.44363, 0.41772, 0.28754, 0.73883,
 12:05:50.582,ed:40:fe:65:30:6c, 2015-01-01 01:35:45.220, 0.865, 0.054, 0.497, -0.61, -3.784, -0.671, 6.46, -60.952, -121.888, -26.073, -8.920, 4.260, 22.39, -0.44363, 0.41772, 0.28754, 0.73883,
 12:05:50.605,e3:ca:2d:fd:e0:8c, 2015-01-01 01:35:45.900, 0.923, -0.103, -0.411, 0.122, -0.366, 0, -166.366, -65.242, -49.818, -26.980, -8.453, 3.173, 25.01, 0.1348, 0.78537, -0.29416, 0.52759,
 12:05:50.605,e3:ca:2d:fd:e0:8c, 2015-01-01 01:35:45.900, 0.923, -0.104, -0.413, 0.183, 0, 0, -166.36, -65.237, -49.818, -26.980, -8.453, 3.173, 25.01, 0.1348, 0.78537, -0.29416, 0.52759,
 12:05:50.607,f6:90:cc:01:6d:25, 2015-01-01 01:35:46.000, 0.932, 0.085, -0.318, 0.427, -0.916, 0, 164.52, -70.549, 15.172, -28.920, -13.987, 9.620, 27.14, -0.03473, -0.81161, -0.02811, -0.5824,
 12:05:50.607,f6:90:cc:01:6d:25, 2015-01-01 01:35:46.000, 0.931, 0.083, -0.317, 0.488, -0.916, 0, 164.542, -70.532, 15.178, -28.920, -13.987, 9.620, 27.14, -0.03473, -0.81161, -0.02811, -0.5824,
 12:05:50.610,ed:35:33:d3:6c:f8, 2015-01-01 01:35:45.320, 0.868, 0.11, 0.456, -0.916, -4.639, -0.366, 14.826, -62.693, 135.154, -21.840, -11.967, -16.447, 27.06, 0.2645, 0.51306, -0.09467, 0.811,
 12:05:50.610,ed:35:33:d3:6c:f8, 2015-01-01 01:35:45.320, 0.88, 0.116, 0.451, -0.366, -4.822, -1.282, 14.897, -62.77, 135.088, -21.840, -11.967, -16.447, 27.06, 0.2645, 0.51306, -0.09467, 0.811,
 12:05:50.635,e3:ca:2d:fd:e0:8c, 2015-01-01 01:35:46.285, 0.924, -0.1, -0.421, 0.122, 0.427, 0, -166.355, -65.242, -49.823, -26.980, -8.453, 3.173, 25.01, 0.1348, 0.78537, -0.29416, 0.52759,
 12:05:50.635,e3:ca:2d:fd:e0:8c, 2015-01-01 01:35:46.285, 0.925, -0.097, -0.419, -0.244, 0.244, 0, -166.355, -65.248, -49.828, -26.980, -8.453, 3.173, 25.01, 0.1348, 0.78537, -0.29416, 0.52759,
 12:05:50.637,f6:90:cc:01:6d:25, 2015-01-01 01:35:46.000, 0.932, 0.082, -0.321, 0, -0.549, 0, 164.559, -70.521, 15.167, -28.513, -14.080, 9.600, 27.14, -0.03473, -0.81161, -0.02811, -0.5824,
 12:05:50.637,f6:90:cc:01:6d:25, 2015-01-01 01:35:46.000, 0.93, 0.085, -0.321, 0, -0.549, 0, 164.57, -70.51, 15.139, -28.513, -14.080, 9.600, 27.14, -0.03473, -0.81161, -0.02811, -0.5824,
 12:05:50.642,ed:35:33:d3:6c:f8, 2015-01-01 01:35:45.320, 0.891, 0.113, 0.452, 0.549, -3.418, -0.732, 14.963, -62.831, 135.06, -21.840, -11.967, -16.447, 27.06, 0.2645, 0.51306, -0.09467, 0.811,
 12:05:50.642,ed:35:33:d3:6c:f8, 2015-01-01 01:35:45.320, 0.886, 0.122, 0.445, 1.038, -4.395, -0.916, 15.046, -62.897, 135.016, -21.840, -11.967, -16.447, 27.06, 0.2645, 0.51306, -0.09467, 0.811,
 12:05:50.642,ed:40:fe:65:30:6c, 2015-01-01 01:35:45.220, 0.875, 0.055, 0.496, -0.977, -2.869, -1.099, 6.487, -61.002, -121.937, -26.073, -8.920, 4.260, 22.39, -0.44363, 0.41772, 0.28754, 0.73883,
 12:05:50.642,ed:40:fe:65:30:6c, 2015-01-01 01:35:45.220, 0.883, 0.052, 0.49, -0.305, -3.052, -1.221, 6.531, -61.051, -122.009, -26.073, -8.920, 4.260, 22.39, -0.44363, 0.41772, 0.28754, 0.73883,
 12:05:50.666,e3:ca:2d:fd:e0:8c, 2015-01-01 01:35:46.285, 0.923, -0.098, -0.416, -0.732, -0.061, 0, -166.371, -65.248, -49.828, -26.980, -8.453, 3.173, 25.01, 0.1348, 0.78537, -0.29416, 0.52759,
 12:05:50.666,e3:ca:2d:fd:e0:8c, 2015-01-01 01:35:46.285, 0.923, -0.1, -0.416, -0.671, -0.244, 0, -166.388, -65.242, -49.828, -26.980, -8.453, 3.173, 25.01, 0.1348, 0.78537, -0.29416, 0.52759,
 12:05:50.668,f6:90:cc:01:6d:25, 2015-01-01 01:35:46.000, 0.931, 0.09, -0.312, -0.244, -1.404, 0, 164.586, -70.488, 15.106, -28.513, -14.080, 9.600, 27.14, -0.03473, -0.81161, -0.02811, -0.5824,
 12:05:50.668,f6:90:cc:01:6d:25, 2015-01-01 01:35:46.000, 0.93, 0.091, -0.312, -0.671, -2.38, 0, 164.608, -70.444, 15.09, -28.513, -14.080, 9.600, 27.14, -0.03473, -0.81161, -0.02811, -0.5824,
 12:05:50.674,ed:40:fe:65:30:6c, 2015-01-01 01:35:45.220, 0.88, 0.056, 0.48, 0.305, -4.883, -1.221, 6.597, -61.139, -122.086, -26.073, -8.920, 4.260, 22.39, -0.44363, 0.41772, 0.28754, 0.73883,
 12:05:50.674,ed:40:fe:65:30:6c, 2015-01-01 01:35:45.220, 0.874, 0.058, 0.482, 0.793, -6.042, -0.61, 6.658, -61.249, -122.146, -26.073, -8.920, 4.260, 22.39, -0.44363, 0.41772, 0.28754, 0.73883,
 12:05:50.698,f6:90:cc:01:6d:25, 2015-01-01 01:35:46.000, 0.929, 0.087, -0.315, -0.671, -2.686, 0, 164.636, -70.395, 15.057, -28.513, -14.080, 9.600, 27.14, -0.03473, -0.81161, -0.02811, -0.5824,
 12:05:50.698,f6:90:cc:01:6d:25, 2015-01-01 01:35:46.000, 0.928, 0.086, -0.318, -0.793, -2.625, 0, 164.658, -70.345, 15.035, -28.513, -14.080, 9.600, 27.14, -0.03473, -0.81161, -0.02811, -0.5824,
 12:05:50.700,ed:35:33:d3:6c:f8, 2015-01-01 01:35:45.320, 0.877, 0.125, 0.439, 2.014, -5.92, 0, 15.139, -62.996, 134.995, -21.840, -11.967, -16.447, 27.06, 0.26035, 0.52063, -0.0946, 0.80753,
 12:05:50.700,ed:35:33:d3:6c:f8, 2015-01-01 01:35:45.320, 0.886, 0.121, 0.425, 1.77, -7.141, 0.244, 15.238, -63.116, 134.989, -21.840, -11.967, -16.447, 27.06, 0.26035, 0.52063, -0.0946, 0.80753,
 12:05:50.728,e3:ca:2d:fd:e0:8c, 2015-01-01 01:35:46.285, 0.922, -0.099, -0.417, -0.366, -0.244, 0, -166.399, -65.237, -49.828, -26.980, -8.453, 3.173, 25.01, 0.1348, 0.78537, -0.29416, 0.52759,
 12:05:50.728,e3:ca:2d:fd:e0:8c, 2015-01-01 01:35:46.285, 0.923, -0.097, -0.417, -0.183, -0.366, 0, -166.41, -65.226, -49.823, -26.980, -8.453, 3.173, 25.01, 0.1348, 0.78537, -0.29416, 0.52759,
 12:05:50.728,f6:90:cc:01:6d:25, 2015-01-01 01:35:46.000, 0.928, 0.088, -0.321, -0.427, -2.441, 0, 164.685, -70.302, 15.024, -28.513, -14.080, 9.600, 27.14, -0.03345, -0.81308, -0.02972, -0.58032,
 12:05:50.728,f6:90:cc:01:6d:25, 2015-01-01 01:35:46.000, 0.928, 0.089, -0.323, -0.427, -2.258, 0, 164.707, -70.258, 15.013, -28.513, -14.080, 9.600, 27.14, -0.03345, -0.81308, -0.02972, -0.58032,
 12:05:50.732,ed:40:fe:65:30:6c, 2015-01-01 01:35:45.220, 0.882, 0.058, 0.475, 0.549, -5.249, -0.366, 6.702, -61.348, -122.19, -25.833, -9.033, 3.633, 22.39, -0.44363, 0.41772, 0.28754, 0.73883,
 12:05:50.732,ed:40:fe:65:30:6c, 2015-01-01 01:35:45.220, 0.891, 0.058, 0.473, 0.488, -3.967, -0.122, 6.729, -61.419, -122.228, -25.833, -9.033, 3.633, 22.39, -0.44363, 0.41772, 0.28754, 0.73883,
 12:05:50.755,e3:ca:2d:fd:e0:8c, 2015-01-01 01:35:46.285, 0.924, -0.098, -0.419, 0.061, -0.366, 0, -166.415, -65.22, -49.823, -26.980, -8.453, 3.173, 25.01, 0.1348, 0.78537, -0.29416, 0.52759,
 12:05:50.755,e3:ca:2d:fd:e0:8c, 2015-01-01 01:35:46.285, 0.924, -0.099, -0.419, 0.305, -0.366, 0, -166.415, -65.209, -49.818, -26.980, -8.453, 3.173, 25.01, 0.1348, 0.78537, -0.29416, 0.52759,
 12:05:50.762,ed:35:33:d3:6c:f8, 2015-01-01 01:35:45.680, 0.895, 0.124, 0.423, 1.343, -7.263, 0.366, 15.32, -63.248, 134.978, -21.840, -11.967, -16.447, 27.06, 0.26035, 0.52063, -0.0946, 0.80753,
 12:05:50.762,ed:35:33:d3:6c:f8, 2015-01-01 01:35:45.680, 0.905, 0.124, 0.414, 1.038, -7.385, 0.854, 15.392, -63.391, 134.973, -21.840, -11.967, -16.447, 27.06, 0.26035, 0.52063, -0.0946, 0.80753,
 12:05:50.768,ed:35:33:d3:6c:f8, 2015-01-01 01:35:45.680, 0.907, 0.124, 0.41, 0.244, -6.958, 1.343, 15.43, -63.528, 135, -21.840, -11.967, -16.447, 27.06, 0.26035, 0.52063, -0.0946, 0.80753,
 12:05:50.768,ed:35:33:d3:6c:f8, 2015-01-01 01:35:45.680, 0.907, 0.125, 0.403, -0.305, -6.958, 0.977, 15.463, -63.666, 134.989, -21.840, -11.967, -16.447, 27.06, 0.26035, 0.52063, -0.0946, 0.80753,
 12:05:50.768,f6:90:cc:01:6d:25, 2015-01-01 01:35:46.000, 0.929, 0.089, -0.325, -0.427, -2.014, 0, 164.724, -70.225, 14.991, -28.513, -14.080, 9.600, 27.14, -0.03345, -0.81308, -0.02972, -0.58032,
 12:05:50.768,f6:90:cc:01:6d:25, 2015-01-01 01:35:46.000, 0.929, 0.088, -0.328, -0.488, -1.648, 0, 164.74, -70.192, 14.974, -28.513, -14.080, 9.600, 27.14, -0.03345, -0.81308, -0.02972, -0.58032,
 12:05:50.770,ed:40:fe:65:30:6c, 2015-01-01 01:35:45.220, 0.899, 0.058, 0.464, 0.427, -3.052, 0.061, 6.751, -61.474, -122.256, -25.833, -9.033, 3.633, 22.39, -0.44058, 0.42245, 0.29071, 0.73676,
 12:05:50.770,ed:40:fe:65:30:6c, 2015-01-01 01:35:45.220, 0.902, 0.06, 0.462, 0.305, -2.563, 0.305, 6.757, -61.523, -122.272, -25.833, -9.033, 3.633, 22.39, -0.44058, 0.42245, 0.29071, 0.73676,
 12:05:50.787,e3:ca:2d:fd:e0:8c, 2015-01-01 01:35:46.285, 0.924, -0.1, -0.419, 0.122, -0.122, 0, -166.415, -65.204, -49.818, -26.980, -8.453, 3.173, 25.01, 0.1348, 0.78537, -0.29416, 0.52759,
 12:05:50.787,e3:ca:2d:fd:e0:8c, 2015-01-01 01:35:46.285, 0.924, -0.097, -0.419, 0.183, -0.061, 0, -166.415, -65.204, -49.818, -26.980, -8.453, 3.173, 25.01, 0.1348, 0.78537, -0.29416, 0.52759,
 12:05:50.792,ed:40:fe:65:30:6c, 2015-01-01 01:35:45.220, 0.899, 0.063, 0.458, 0, -2.319, 0.244, 6.757, -61.573, -122.283, -25.833, -9.033, 3.633, 22.39, -0.44058, 0.42245, 0.29071, 0.73676,
 12:05:50.792,ed:40:fe:65:30:6c, 2015-01-01 01:35:45.220, 0.9, 0.06, 0.457, -0.122, -1.587, 0.183, 6.762, -61.611, -122.289, -25.833, -9.033, 3.633, 22.39, -0.44058, 0.42245, 0.29071, 0.73676,
 12:05:50.818,f6:90:cc:01:6d:25, 2015-01-01 01:35:46.385, 0.929, 0.09, -0.326, -0.305, -1.404, 0, 164.751, -70.164, 14.952, -28.513, -14.080, 9.600, 27.14, -0.03345, -0.81308, -0.02972, -0.58032,
 12:05:50.818,f6:90:cc:01:6d:25, 2015-01-01 01:35:46.385, 0.929, 0.094, -0.326, 0.122, -1.038, 0, 164.767, -70.148, 14.941, -28.513, -14.080, 9.600, 27.14, -0.03345, -0.81308, -0.02972, -0.58032,
 12:05:50.821,ed:35:33:d3:6c:f8, 2015-01-01 01:35:45.680, 0.913, 0.122, 0.395, -0.61, -5.737, 0.427, 15.502, -63.781, 134.967, -21.840, -11.967, -16.447, 27.06, 0.26035, 0.52063, -0.0946, 0.80753,
 12:05:50.821,ed:35:33:d3:6c:f8, 2015-01-01 01:35:45.680, 0.915, 0.111, 0.393, 0.305, -4.456, 0.793, 15.535, -63.88, 134.94, -21.840, -11.967, -16.447, 27.06, 0.26035, 0.52063, -0.0946, 0.80753,
 12:05:50.846,e3:ca:2d:fd:e0:8c, 2015-01-01 01:35:46.285, 0.924, -0.094, -0.417, 0.549, -0.305, 0, -166.41, -65.193, -49.818, -26.980, -8.453, 3.173, 25.01, 0.1348, 0.78537, -0.29416, 0.52759,
 12:05:50.846,e3:ca:2d:fd:e0:8c, 2015-01-01 01:35:46.285, 0.924, -0.1, -0.413, 0.61, -0.305, 0, -166.404, -65.187, -49.818, -26.980, -8.453, 3.173, 25.01, 0.1348, 0.78537, -0.29416, 0.52759,
 12:05:50.850,ed:35:33:d3:6c:f8, 2015-01-01 01:35:45.680, 0.906, 0.114, 0.392, 0.61, -2.502, 0.488, 15.568, -63.951, 134.918, -21.840, -11.967, -16.447, 27.06, 0.26035, 0.52063, -0.0946, 0.80753,
 12:05:50.850,ed:35:33:d3:6c:f8, 2015-01-01 01:35:45.680, 0.891, 0.125, 0.4, 1.831, -0.183, 0.916, 15.579, -63.973, 134.918, -21.840, -11.967, -16.447, 27.06, 0.26035, 0.52063, -0.0946, 0.80753,
 12:05:50.856,ed:40:fe:65:30:6c, 2015-01-01 01:35:45.545, 0.901, 0.05, 0.454, 0.61, -1.587, 0.183, 6.773, -61.644, -122.294, -25.833, -9.033, 3.633, 22.39, -0.44058, 0.42245, 0.29071, 0.73676,
 12:05:50.856,ed:40:fe:65:30:6c, 2015-01-01 01:35:45.545, 0.895, 0.053, 0.457, 1.709, -2.563, 0.122, 6.817, -61.705, -122.3, -25.833, -9.033, 3.633, 22.39, -0.44058, 0.42245, 0.29071, 0.73676,
 12:05:50.877,f6:90:cc:01:6d:25, 2015-01-01 01:35:46.385, 0.929, 0.09, -0.325, 0.061, -0.671, 0, 164.773, -70.131, 14.93, -28.513, -14.080, 9.600, 27.14, -0.03345, -0.81308, -0.02972, -0.58032,
 12:05:50.877,f6:90:cc:01:6d:25, 2015-01-01 01:35:46.385, 0.928, 0.084, -0.325, 0.244, -0.244, 0, 164.778, -70.131, 14.903, -28.513, -14.080, 9.600, 27.14, -0.03345, -0.81308, -0.02972, -0.58032,
 12:05:50.879,f6:90:cc:01:6d:25, 2015-01-01 01:35:46.385, 0.926, 0.083, -0.322, 0.183, 0.122, 0, 164.784, -70.131, 14.881, -28.513, -14.080, 9.600, 27.14, -0.03345, -0.81308, -0.02972, -0.58032,
 12:05:50.879,f6:90:cc:01:6d:25, 2015-01-01 01:35:46.385, 0.925, 0.085, -0.318, 0.305, 0.549, 0, 164.784, -70.142, 14.854, -28.513, -14.080, 9.600, 27.14, -0.03345, -0.81308, -0.02972, -0.58032,
 12:05:50.880,ed:35:33:d3:6c:f8, 2015-01-01 01:35:45.680, 0.882, 0.117, 0.404, 2.38, 2.014, 1.709, 15.557, -63.968, 134.934, -21.840, -11.967, -16.447, 27.06, 0.26035, 0.52063, -0.0946, 0.80753,
 12:05:50.880,ed:35:33:d3:6c:f8, 2015-01-01 01:35:45.680, 0.883, 0.119, 0.414, 0.854, 4.089, 1.038, 15.502, -63.913, 134.962, -21.840, -11.967, -16.447, 27.06, 0.26035, 0.52063, -0.0946, 0.80753,
 12:05:50.905,e3:ca:2d:fd:e0:8c, 2015-01-01 01:35:46.285, 0.922, -0.104, -0.409, 0.427, -0.183, 0, -166.404, -65.182, -49.812, -26.993, -8.453, 3.220, 25.01, 0.1348, 0.78537, -0.29416, 0.52759,
 12:05:50.905,e3:ca:2d:fd:e0:8c, 2015-01-01 01:35:46.285, 0.921, -0.103, -0.405, 0.244, 0.061, 0, -166.399, -65.187, -49.818, -26.993, -8.453, 3.220, 25.01, 0.1348, 0.78537, -0.29416, 0.52759,
 12:05:50.914,ed:40:fe:65:30:6c, 2015-01-01 01:35:45.545, 0.88, 0.059, 0.464, 2.197, -2.747, 0.488, 6.855, -61.765, -122.305, -25.833, -9.033, 3.633, 22.39, -0.44058, 0.42245, 0.29071, 0.73676,
 12:05:50.914,ed:40:fe:65:30:6c, 2015-01-01 01:35:45.545, 0.875, 0.057, 0.469, 1.892, -1.77, 0.916, 6.872, -61.809, -122.283, -25.833, -9.033, 3.633, 22.39, -0.44058, 0.42245, 0.29071, 0.73676,
 12:05:50.914,ed:40:fe:65:30:6c, 2015-01-01 01:35:45.545, 0.875, 0.061, 0.472, 0.916, -0.305, 0.732, 6.861, -61.82, -122.261, -25.833, -9.033, 3.633, 22.39, -0.44058, 0.42245, 0.29071, 0.73676,
 12:05:50.914,ed:40:fe:65:30:6c, 2015-01-01 01:35:45.545, 0.878, 0.064, 0.475, 0.61, 1.038, 0.793, 6.844, -61.804, -122.228, -25.833, -9.033, 3.633, 22.39, -0.44058, 0.42245, 0.29071, 0.73676,
 12:05:50.936,e3:ca:2d:fd:e0:8c, 2015-01-01 01:35:46.285, 0.922, -0.099, -0.403, 0.244, 0.244, 0, -166.388, -65.193, -49.823, -26.993, -8.453, 3.220, 25.01, 0.1348, 0.78537, -0.29416, 0.52759,
 12:05:50.936,e3:ca:2d:fd:e0:8c, 2015-01-01 01:35:46.285, 0.923, -0.098, -0.406, 0.244, 0.183, 0, -166.382, -65.198, -49.823, -26.993, -8.453, 3.220, 25.01, 0.1348, 0.78537, -0.29416, 0.52759,
 12:05:50.938,f6:90:cc:01:6d:25, 2015-01-01 01:35:46.385, 0.927, 0.089, -0.314, 0.366, 0.977, 0, 164.773, -70.164, 14.843, -28.513, -14.080, 9.600, 27.14, -0.03345, -0.81308, -0.02972, -0.58032,
 12:05:50.938,f6:90:cc:01:6d:25, 2015-01-01 01:35:46.385, 0.927, 0.09, -0.32, 0.183, 1.282, 0, 164.756, -70.192, 14.826, -28.513, -14.080, 9.600, 27.14, -0.03345, -0.81308, -0.02972, -0.58032,
 12:05:50.940,ed:35:33:d3:6c:f8, 2015-01-01 01:35:45.680, 0.886, 0.126, 0.42, 0.549, 3.723, 0.854, 15.447, -63.853, 134.995, -21.840, -11.967, -16.447, 27.06, 0.26035, 0.52063, -0.0946, 0.80753,
 12:05:50.940,ed:35:33:d3:6c:f8, 2015-01-01 01:35:45.680, 0.888, 0.12, 0.424, 0.854, 2.869, 1.282, 15.392, -63.803, 135.038, -21.840, -11.967, -16.447, 27.06, 0.26035, 0.52063, -0.0946, 0.80753,
 12:05:50.965,e3:ca:2d:fd:e0:8c, 2015-01-01 01:35:46.285, 0.922, -0.099, -0.415, 0.305, 0.183, 0, -166.377, -65.204, -49.828, -26.993, -8.453, 3.220, 25.01, 0.13477, 0.78552, -0.29443, 0.52725,
 12:05:50.965,e3:ca:2d:fd:e0:8c, 2015-01-01 01:35:46.285, 0.923, -0.101, -0.416, 0.122, 0.122, 0, -166.371, -65.209, -49.828, -26.993, -8.453, 3.220, 25.01, 0.13477, 0.78552, -0.29443, 0.52725,
 12:05:50.971,ed:35:33:d3:6c:f8, 2015-01-01 01:35:45.680, 0.885, 0.117, 0.427, 1.221, 2.93, 1.77, 15.331, -63.759, 135.088, -21.767, -11.893, -16.460, 27.06, 0.26035, 0.52063, -0.0946, 0.80753,
 12:05:50.971,ed:35:33:d3:6c:f8, 2015-01-01 01:35:45.680, 0.886, 0.109, 0.428, 0.793, 2.869, 1.709, 15.26, -63.721, 135.143, -21.767, -11.893, -16.460, 27.06, 0.26035, 0.52063, -0.0946, 0.80753,
 12:05:50.995,e3:ca:2d:fd:e0:8c, 2015-01-01 01:35:46.285, 0.922, -0.102, -0.417, 0, -0.061, 0, -166.371, -65.209, -49.828, -26.993, -8.453, 3.220, 25.01, 0.13477, 0.78552, -0.29443, 0.52725,
 12:05:50.995,e3:ca:2d:fd:e0:8c, 2015-01-01 01:35:46.285, 0.923, -0.102, -0.417, -0.061, -0.244, 0, -166.377, -65.204, -49.828, -26.993, -8.453, 3.220, 25.01, 0.13477, 0.78552, -0.29443, 0.52725,
 12:05:51.004,ed:40:fe:65:30:6c, 2015-01-01 01:35:45.545, 0.879, 0.059, 0.476, 0.305, 1.648, 0.977, 6.812, -61.776, -122.179, -25.833, -9.033, 3.633, 22.39, -0.44058, 0.42245, 0.29071, 0.73676,
 12:05:51.004,ed:40:fe:65:30:6c, 2015-01-01 01:35:45.545, 0.877, 0.054, 0.476, 0.61, 1.526, 1.282, 6.773, -61.749, -122.108, -25.833, -9.033, 3.633, 22.39, -0.44058, 0.42245, 0.29071, 0.73676,
 12:05:51.004,ed:40:fe:65:30:6c, 2015-01-01 01:35:45.545, 0.878, 0.052, 0.479, 0.732, 1.465, 1.404, 6.729, -61.721, -122.031, -25.833, -9.033, 3.633, 22.39, -0.44058, 0.42245, 0.29071, 0.73676,
 12:05:51.004,ed:40:fe:65:30:6c, 2015-01-01 01:35:45.545, 0.89, 0.049, 0.475, 0.427, 2.075, 0.916, 6.696, -61.683, -121.965, -25.833, -9.033, 3.633, 22.39, -0.44058, 0.42245, 0.29071, 0.73676,
 12:05:51.028,f6:90:cc:01:6d:25, 2015-01-01 01:35:46.385, 0.928, 0.088, -0.319, 0.305, 1.16, 0, 164.745, -70.214, 14.799, -28.513, -14.080, 9.600, 27.14, -0.03345, -0.81308, -0.02972, -0.58032,
 12:05:51.028,f6:90:cc:01:6d:25, 2015-01-01 01:35:46.385, 0.929, 0.084, -0.318, -0.061, 0.488, 0, 164.734, -70.23, 14.799, -28.513, -14.080, 9.600, 27.14, -0.03345, -0.81308, -0.02972, -0.58032,
 12:05:51.032,ed:40:fe:65:30:6c, 2015-01-01 01:35:45.545, 0.894, 0.049, 0.466, 0.916, 2.441, 0.549, 6.685, -61.633, -121.921, -25.833, -9.033, 3.633, 22.39, -0.44058, 0.42245, 0.29071, 0.73676,
 12:05:51.032,ed:40:fe:65:30:6c, 2015-01-01 01:35:45.545, 0.891, 0.054, 0.466, 1.404, 1.831, 0.183, 6.696, -61.6, -121.882, -25.833, -9.033, 3.633, 22.39, -0.44058, 0.42245, 0.29071, 0.73676,
 12:05:51.055,e3:ca:2d:fd:e0:8c, 2015-01-01 01:35:46.675, 0.924, -0.099, -0.419, 0, -0.305, 0, -166.377, -65.198, -49.828, -26.993, -8.453, 3.220, 25.01, 0.13477, 0.78552, -0.29443, 0.52725,
 12:05:51.055,e3:ca:2d:fd:e0:8c, 2015-01-01 01:35:46.675, 0.924, -0.098, -0.421, 0, -0.305, 0, -166.382, -65.187, -49.823, -26.993, -8.453, 3.220, 25.01, 0.13477, 0.78552, -0.29443, 0.52725,
 12:05:51.057,f6:90:cc:01:6d:25, 2015-01-01 01:35:46.385, 0.929, 0.087, -0.323, -0.122, 0.305, 0, 164.729, -70.236, 14.782, -28.153, -14.587, 9.567, 27.14, -0.03345, -0.81308, -0.02972, -0.58032,
 12:05:51.057,f6:90:cc:01:6d:25, 2015-01-01 01:35:46.385, 0.93, 0.089, -0.328, -0.061, 0.488, 0, 164.724, -70.247, 14.782, -28.153, -14.587, 9.567, 27.14, -0.03345, -0.81308, -0.02972, -0.58032,
 12:05:51.085,e3:ca:2d:fd:e0:8c, 2015-01-01 01:35:46.675, 0.924, -0.099, -0.42, 0, -0.122, 0, -166.388, -65.187, -49.823, -26.993, -8.453, 3.220, 25.01, 0.13477, 0.78552, -0.29443, 0.52725,
 12:05:51.085,e3:ca:2d:fd:e0:8c, 2015-01-01 01:35:46.675, 0.924, -0.099, -0.419, 0.122, 0, 0, -166.388, -65.187, -49.828, -26.993, -8.453, 3.220, 25.01, 0.13477, 0.78552, -0.29443, 0.52725,
 12:05:51.087,f6:90:cc:01:6d:25, 2015-01-01 01:35:46.385, 0.93, 0.089, -0.328, -0.122, 0.732, 0, 164.713, -70.258, 14.793, -28.153, -14.587, 9.567, 27.14, -0.03345, -0.81308, -0.02972, -0.58032,
 12:05:51.087,f6:90:cc:01:6d:25, 2015-01-01 01:35:46.385, 0.93, 0.089, -0.327, -0.183, 0.916, 0, 164.702, -70.269, 14.81, -28.153, -14.587, 9.567, 27.14, -0.03345, -0.81308, -0.02972, -0.58032,
 12:05:51.090,ed:35:33:d3:6c:f8, 2015-01-01 01:35:45.680, 0.896, 0.106, 0.424, -0.122, 3.601, 0.671, 15.194, -63.66, 135.187, -21.767, -11.893, -16.460, 27.06, 0.26035, 0.52063, -0.0946, 0.80753,
 12:05:51.090,ed:35:33:d3:6c:f8, 2015-01-01 01:35:45.680, 0.899, 0.107, 0.421, 0.244, 3.723, 0.305, 15.145, -63.594, 135.225, -21.767, -11.893, -16.460, 27.06, 0.26035, 0.52063, -0.0946, 0.80753,
 12:05:51.115,e3:ca:2d:fd:e0:8c, 2015-01-01 01:35:46.675, 0.924, -0.1, -0.42, 0.244, 0.122, 0, -166.382, -65.187, -49.828, -26.993, -8.453, 3.220, 25.01, 0.13477, 0.78552, -0.29443, 0.52725,
 12:05:51.115,e3:ca:2d:fd:e0:8c, 2015-01-01 01:35:46.675, 0.925, -0.099, -0.419, 0.305, 0.244, 0, -166.377, -65.187, -49.834, -26.993, -8.453, 3.220, 25.01, 0.13477, 0.78552, -0.29443, 0.52725,
 12:05:51.117,f6:90:cc:01:6d:25, 2015-01-01 01:35:46.385, 0.93, 0.088, -0.327, -0.305, 1.16, 0, 164.68, -70.285, 14.826, -28.153, -14.587, 9.567, 27.14, -0.03345, -0.81308, -0.02972, -0.58032,
 12:05:51.117,f6:90:cc:01:6d:25, 2015-01-01 01:35:46.385, 0.931, 0.089, -0.327, -0.122, 1.465, 0, 164.658, -70.307, 14.821, -28.153, -14.587, 9.567, 27.14, -0.03345, -0.81308, -0.02972, -0.58032,
 12:05:51.124,ed:40:fe:65:30:6c, 2015-01-01 01:35:45.545, 0.891, 0.057, 0.469, 1.343, 1.709, -0.305, 6.718, -61.573, -121.871, -26.367, -9.047, 4.807, 22.39, -0.44058, 0.42245, 0.29071, 0.73676,
 12:05:51.124,ed:40:fe:65:30:6c, 2015-01-01 01:35:45.545, 0.891, 0.058, 0.471, 1.16, 1.892, -0.427, 6.751, -61.54, -121.871, -26.367, -9.047, 4.807, 22.39, -0.44058, 0.42245, 0.29071, 0.73676,
 12:05:51.124,ed:40:fe:65:30:6c, 2015-01-01 01:35:45.545, 0.889, 0.058, 0.47, 1.343, 1.648, -0.244, 6.779, -61.507, -121.877, -26.367, -9.047, 4.807, 22.39, -0.44058, 0.42245, 0.29071, 0.73676,
 12:05:51.124,ed:40:fe:65:30:6c, 2015-01-01 01:35:45.545, 0.886, 0.06, 0.478, 1.099, 1.221, -0.488, 6.812, -61.479, -121.888, -26.367, -9.047, 4.807, 22.39, -0.44058, 0.42245, 0.29071, 0.73676,
 12:05:51.145,e3:ca:2d:fd:e0:8c, 2015-01-01 01:35:46.675, 0.924, -0.1, -0.42, 0.427, 0.488, 0, -166.366, -65.198, -49.839, -26.993, -8.453, 3.220, 25.01, 0.13477, 0.78552, -0.29443, 0.52725,
 12:05:51.145,e3:ca:2d:fd:e0:8c, 2015-01-01 01:35:46.675, 0.925, -0.1, -0.42, 0.427, 0.61, 0, -166.355, -65.204, -49.845, -26.993, -8.453, 3.220, 25.01, 0.13477, 0.78552, -0.29443, 0.52725,
 12:05:51.147,f6:90:cc:01:6d:25, 2015-01-01 01:35:46.385, 0.931, 0.088, -0.327, -0.305, 1.587, 0, 164.636, -70.334, 14.815, -28.153, -14.587, 9.567, 27.14, -0.0347, -0.81329, -0.02814, -0.58005,
 12:05:51.147,f6:90:cc:01:6d:25, 2015-01-01 01:35:46.385, 0.931, 0.088, -0.326, -0.305, 1.587, 0, 164.608, -70.362, 14.821, -28.153, -14.587, 9.567, 27.14, -0.0347, -0.81329, -0.02814, -0.58005,
 12:05:51.180,ed:35:33:d3:6c:f8, 2015-01-01 01:35:45.680, 0.897, 0.112, 0.422, 0.732, 2.808, -0.122, 15.123, -63.545, 135.258, -21.767, -11.893, -16.460, 27.06, 0.25659, 0.52573, -0.09537, 0.80533,
 12:05:51.180,ed:35:33:d3:6c:f8, 2015-01-01 01:35:45.680, 0.896, 0.117, 0.422, 0.916, 2.38, -0.427, 15.128, -63.501, 135.275, -21.767, -11.893, -16.460, 27.06, 0.25659, 0.52573, -0.09537, 0.80533,
 12:05:51.182,ed:40:fe:65:30:6c, 2015-01-01 01:35:45.545, 0.885, 0.062, 0.476, 0.854, 1.16, -0.427, 6.844, -61.463, -121.91, -26.367, -9.047, 4.807, 22.39, -0.44315, 0.42142, 0.29239, 0.73514,
 12:05:51.182,ed:40:fe:65:30:6c, 2015-01-01 01:35:45.545, 0.879, 0.058, 0.477, 1.221, 0.671, -0.183, 6.872, -61.441, -121.932, -26.367, -9.047, 4.807, 22.39, -0.44315, 0.42142, 0.29239, 0.73514,
 12:05:51.208,f6:90:cc:01:6d:25, 2015-01-01 01:35:46.385, 0.93, 0.089, -0.322, -0.122, 1.587, 0, 164.581, -70.389, 14.832, -28.153, -14.587, 9.567, 27.14, -0.0347, -0.81329, -0.02814, -0.58005,
 12:05:51.208,f6:90:cc:01:6d:25, 2015-01-01 01:35:46.385, 0.93, 0.089, -0.318, -0.244, 1.526, 0, 164.559, -70.417, 14.821, -28.153, -14.587, 9.567, 27.14, -0.0347, -0.81329, -0.02814, -0.58005,
 12:05:51.210,ed:35:33:d3:6c:f8, 2015-01-01 01:35:45.680, 0.896, 0.116, 0.421, 0.671, 2.563, -0.671, 15.145, -63.452, 135.286, -21.767, -11.893, -16.460, 27.06, 0.25659, 0.52573, -0.09537, 0.80533,
 12:05:51.210,ed:35:33:d3:6c:f8, 2015-01-01 01:35:45.680, 0.896, 0.119, 0.423, 0.244, 2.808, -0.916, 15.156, -63.402, 135.286, -21.767, -11.893, -16.460, 27.06, 0.25659, 0.52573, -0.09537, 0.80533,
 12:05:51.212,ed:40:fe:65:30:6c, 2015-01-01 01:35:45.545, 0.878, 0.058, 0.481, 0.977, 0.305, -0.427, 6.905, -61.436, -121.954, -26.367, -9.047, 4.807, 22.39, -0.44315, 0.42142, 0.29239, 0.73514,
 12:05:51.212,ed:40:fe:65:30:6c, 2015-01-01 01:35:45.545, 0.875, 0.058, 0.48, 0.854, 0.488, -0.427, 6.938, -61.43, -121.976, -26.367, -9.047, 4.807, 22.39, -0.44315, 0.42142, 0.29239, 0.73514,
 12:05:51.236,e3:ca:2d:fd:e0:8c, 2015-01-01 01:35:46.675, 0.923, -0.099, -0.417, 0.305, 0.671, 0, -166.344, -65.215, -49.856, -26.993, -8.453, 3.220, 25.01, 0.13477, 0.78552, -0.29443, 0.52725,
 12:05:51.236,e3:ca:2d:fd:e0:8c, 2015-01-01 01:35:46.675, 0.923, -0.101, -0.416, 0.305, 0.671, 0, -166.333, -65.226, -49.867, -26.993, -8.453, 3.220, 25.01, 0.13477, 0.78552, -0.29443, 0.52725,
 12:05:51.238,f6:90:cc:01:6d:25, 2015-01-01 01:35:46.805, 0.929, 0.087, -0.316, -0.244, 1.343, 0, 164.531, -70.439, 14.821, -28.153, -14.587, 9.567, 27.14, -0.0347, -0.81329, -0.02814, -0.58005,
 12:05:51.238,f6:90:cc:01:6d:25, 2015-01-01 01:35:46.805, 0.928, 0.085, -0.313, -0.244, 1.221, 0, 164.509, -70.461, 14.815, -28.153, -14.587, 9.567, 27.14, -0.0347, -0.81329, -0.02814, -0.58005,
 12:05:51.238,f6:90:cc:01:6d:25, 2015-01-01 01:35:46.805, 0.929, 0.087, -0.312, -0.183, 1.16, 0, 164.487, -70.483, 14.837, -28.153, -14.587, 9.567, 27.14, -0.0347, -0.81329, -0.02814, -0.58005,
 12:05:51.238,f6:90:cc:01:6d:25, 2015-01-01 01:35:46.805, 0.929, 0.088, -0.311, -0.061, 1.038, 0, 164.471, -70.505, 14.859, -28.153, -14.587, 9.567, 27.14, -0.0347, -0.81329, -0.02814, -0.58005,
 12:05:51.242,ed:40:fe:65:30:6c, 2015-01-01 01:35:45.935, 0.876, 0.057, 0.482, 0.549, 0.793, -0.671, 6.965, -61.419, -122.003, -26.367, -9.047, 4.807, 22.39, -0.44315, 0.42142, 0.29239, 0.73514,
 12:05:51.242,ed:40:fe:65:30:6c, 2015-01-01 01:35:45.935, 0.875, 0.059, 0.482, 0.427, 0.977, -0.793, 6.998, -61.403, -122.036, -26.367, -9.047, 4.807, 22.39, -0.44315, 0.42142, 0.29239, 0.73514,
 12:05:51.295,e3:ca:2d:fd:e0:8c, 2015-01-01 01:35:46.675, 0.922, -0.101, -0.413, 0.305, 0.671, 0, -166.322, -65.237, -49.872, -26.653, -7.907, 3.613, 25.01, 0.13477, 0.78552, -0.29443, 0.52725,
 12:05:51.295,e3:ca:2d:fd:e0:8c, 2015-01-01 01:35:46.675, 0.923, -0.101, -0.412, 0.305, 0.61, 0, -166.317, -65.248, -49.883, -26.653, -7.907, 3.613, 25.01, 0.13477, 0.78552, -0.29443, 0.52725,
 12:05:51.299,f6:90:cc:01:6d:25, 2015-01-01 01:35:46.805, 0.93, 0.088, -0.31, -0.122, 0.916, 0, 164.454, -70.521, 14.875, -28.153, -14.587, 9.567, 27.14, -0.0347, -0.81329, -0.02814, -0.58005,
 12:05:51.299,f6:90:cc:01:6d:25, 2015-01-01 01:35:46.805, 0.93, 0.087, -0.312, -0.122, 0.793, 0, 164.438, -70.538, 14.875, -28.153, -14.587, 9.567, 27.14, -0.0347, -0.81329, -0.02814, -0.58005,
 12:05:51.302,ed:35:33:d3:6c:f8, 2015-01-01 01:35:45.680, 0.894, 0.118, 0.428, 0.61, 3.296, -0.671, 15.161, -63.342, 135.286, -21.767, -11.893, -16.460, 27.06, 0.25659, 0.52573, -0.09537, 0.80533,
 12:05:51.302,ed:35:33:d3:6c:f8, 2015-01-01 01:35:45.680, 0.892, 0.119, 0.433, 0.061, 2.686, -1.038, 15.178, -63.292, 135.28, -21.767, -11.893, -16.460, 27.06, 0.25659, 0.52573, -0.09537, 0.80533,
 12:05:51.302,ed:40:fe:65:30:6c, 2015-01-01 01:35:45.935, 0.875, 0.058, 0.481, 0.427, 0.732, -0.854, 7.031, -61.381, -122.069, -26.367, -9.047, 4.807, 22.39, -0.44315, 0.42142, 0.29239, 0.73514,
 12:05:51.302,ed:40:fe:65:30:6c, 2015-01-01 01:35:45.935, 0.877, 0.057, 0.483, 0.427, 0.61, -0.916, 7.064, -61.364, -122.102, -26.367, -9.047, 4.807, 22.39, -0.44315, 0.42142, 0.29239, 0.73514,
 12:05:51.331,ed:35:33:d3:6c:f8, 2015-01-01 01:35:46.125, 0.891, 0.125, 0.432, 0.305, 2.441, -0.916, 15.194, -63.243, 135.258, -21.767, -11.893, -16.460, 27.06, 0.25659, 0.52573, -0.09537, 0.80533,
 12:05:51.331,ed:35:33:d3:6c:f8, 2015-01-01 01:35:46.125, 0.884, 0.117, 0.434, 0.977, 2.319, -0.244, 15.205, -63.204, 135.225, -21.767, -11.893, -16.460, 27.06, 0.25659, 0.52573, -0.09537, 0.80533,
 12:05:51.331,ed:35:33:d3:6c:f8, 2015-01-01 01:35:46.125, 0.883, 0.117, 0.436, 0.183, 2.502, -0.854, 15.216, -63.155, 135.192, -21.767, -11.893, -16.460, 27.06, 0.25659, 0.52573, -0.09537, 0.80533,
 12:05:51.331,ed:35:33:d3:6c:f8, 2015-01-01 01:35:46.125, 0.879, 0.117, 0.436, 0.427, 2.38, -0.671, 15.227, -63.111, 135.165, -21.767, -11.893, -16.460, 27.06, 0.25659, 0.52573, -0.09537, 0.80533,
 12:05:51.361,ed:35:33:d3:6c:f8, 2015-01-01 01:35:46.125, 0.881, 0.116, 0.438, 0, 2.197, -0.977, 15.238, -63.062, 135.143, -21.767, -11.893, -16.460, 27.06, 0.25659, 0.52573, -0.09537, 0.80533,
 12:05:51.361,ed:35:33:d3:6c:f8, 2015-01-01 01:35:46.125, 0.879, 0.119, 0.44, 0.061, 1.892, -0.916, 15.255, -63.023, 135.115, -21.767, -11.893, -16.460, 27.06, 0.25659, 0.52573, -0.09537, 0.80533,
 12:05:51.363,ed:35:33:d3:6c:f8, 2015-01-01 01:35:46.125, 0.879, 0.117, 0.44, 0.061, 1.709, -0.977, 15.276, -62.985, 135.088, -21.767, -11.893, -16.460, 27.06, 0.25659, 0.52573, -0.09537, 0.80533,
 12:05:51.363,ed:35:33:d3:6c:f8, 2015-01-01 01:35:46.125, 0.882, 0.118, 0.441, -0.183, 1.77, -1.099, 15.293, -62.946, 135.049, -21.767, -11.893, -16.460, 27.06, 0.25659, 0.52573, -0.09537, 0.80533,
 12:05:51.364,ed:40:fe:65:30:6c, 2015-01-01 01:35:45.935, 0.877, 0.058, 0.482, 0.549, 0.427, -0.854, 7.103, -61.348, -122.135, -26.367, -9.047, 4.807, 22.39, -0.44315, 0.42142, 0.29239, 0.73514,
 12:05:51.364,ed:40:fe:65:30:6c, 2015-01-01 01:35:45.935, 0.879, 0.061, 0.484, 0.488, 0.183, -0.854, 7.141, -61.337, -122.162, -26.367, -9.047, 4.807, 22.39, -0.44315, 0.42142, 0.29239, 0.73514,
 12:05:51.364,ed:40:fe:65:30:6c, 2015-01-01 01:35:45.935, 0.881, 0.062, 0.482, 0.427, 0.183, -0.671, 7.174, -61.331, -122.184, -26.367, -9.047, 4.807, 22.39, -0.44315, 0.42142, 0.29239, 0.73514,
 12:05:51.364,ed:40:fe:65:30:6c, 2015-01-01 01:35:45.935, 0.883, 0.063, 0.481, 0.427, -0.061, -0.549, 7.202, -61.32, -122.195, -26.367, -9.047, 4.807, 22.39, -0.44315, 0.42142, 0.29239, 0.73514,
 12:05:51.385,e3:ca:2d:fd:e0:8c, 2015-01-01 01:35:46.675, 0.922, -0.1, -0.412, 0.244, 0.488, 0, -166.306, -65.259, -49.889, -26.653, -7.907, 3.613, 25.01, 0.13477, 0.78552, -0.29443, 0.52725,
 12:05:51.385,e3:ca:2d:fd:e0:8c, 2015-01-01 01:35:46.675, 0.923, -0.099, -0.411, 0.183, 0.305, 0, -166.3, -65.264, -49.894, -26.653, -7.907, 3.613, 25.01, 0.13477, 0.78552, -0.29443, 0.52725,
 12:05:51.387,f6:90:cc:01:6d:25, 2015-01-01 01:35:46.805, 0.931, 0.086, -0.313, -0.122, 0.671, 0, 164.427, -70.554, 14.881, -28.153, -14.587, 9.567, 27.14, -0.0347, -0.81329, -0.02814, -0.58005,
 12:05:51.387,f6:90:cc:01:6d:25, 2015-01-01 01:35:46.805, 0.931, 0.087, -0.314, -0.122, 0.427, 0, 164.416, -70.571, 14.87, -28.153, -14.587, 9.567, 27.14, -0.0347, -0.81329, -0.02814, -0.58005,
 12:05:51.416,e3:ca:2d:fd:e0:8c, 2015-01-01 01:35:46.675, 0.923, -0.1, -0.411, 0.244, 0.244, 0, -166.295, -65.264, -49.894, -26.653, -7.907, 3.613, 25.01, 0.13477, 0.78552, -0.29443, 0.52725,
 12:05:51.416,e3:ca:2d:fd:e0:8c, 2015-01-01 01:35:46.675, 0.923, -0.102, -0.412, 0.183, 0.122, 0, -166.289, -65.27, -49.9, -26.653, -7.907, 3.613, 25.01, 0.13477, 0.78552, -0.29443, 0.52725,
 12:05:51.418,f6:90:cc:01:6d:25, 2015-01-01 01:35:46.805, 0.931, 0.087, -0.314, -0.183, 0.244, 0, 164.405, -70.576, 14.848, -28.153, -14.587, 9.567, 27.14, -0.0347, -0.81329, -0.02814, -0.58005,
 12:05:51.418,f6:90:cc:01:6d:25, 2015-01-01 01:35:46.805, 0.931, 0.088, -0.315, -0.183, 0.122, 0, 164.399, -70.582, 14.815, -28.153, -14.587, 9.567, 27.14, -0.0347, -0.81329, -0.02814, -0.58005,
 12:05:51.424,ed:40:fe:65:30:6c, 2015-01-01 01:35:45.935, 0.884, 0.065, 0.48, 0.427, -0.061, -0.427, 7.229, -61.32, -122.201, -26.367, -9.047, 4.807, 22.39, -0.44315, 0.42142, 0.29239, 0.73514,
 12:05:51.424,ed:40:fe:65:30:6c, 2015-01-01 01:35:45.935, 0.878, 0.063, 0.478, 0.549, -0.427, -0.183, 7.251, -61.32, -122.206, -26.367, -9.047, 4.807, 22.39, -0.44315, 0.42142, 0.29239, 0.73514,
 12:05:51.445,e3:ca:2d:fd:e0:8c, 2015-01-01 01:35:46.675, 0.924, -0.101, -0.415, 0.244, 0.061, 0, -166.284, -65.27, -49.9, -26.653, -7.907, 3.613, 25.01, 0.13474, 0.78519, -0.29434, 0.5278,
 12:05:51.445,e3:ca:2d:fd:e0:8c, 2015-01-01 01:35:46.675, 0.924, -0.1, -0.415, 0.122, 0, 0, -166.284, -65.27, -49.9, -26.653, -7.907, 3.613, 25.01, 0.13474, 0.78519, -0.29434, 0.5278,
 12:05:51.447,f6:90:cc:01:6d:25, 2015-01-01 01:35:46.805, 0.931, 0.089, -0.316, -0.061, 0, 0, 164.399, -70.582, 14.804, -28.153, -14.587, 9.567, 27.14, -0.0347, -0.81329, -0.02814, -0.58005,
 12:05:51.447,f6:90:cc:01:6d:25, 2015-01-01 01:35:46.805, 0.93, 0.089, -0.315, -0.244, -0.122, 0, 164.394, -70.582, 14.804, -28.153, -14.587, 9.567, 27.14, -0.0347, -0.81329, -0.02814, -0.58005,
 12:05:51.449,ed:35:33:d3:6c:f8, 2015-01-01 01:35:46.125, 0.882, 0.119, 0.443, -0.244, 1.587, -1.099, 15.309, -62.908, 135.038, -21.767, -11.893, -16.460, 27.06, 0.25659, 0.52573, -0.09537, 0.80533,
 12:05:51.449,ed:35:33:d3:6c:f8, 2015-01-01 01:35:46.125, 0.883, 0.122, 0.444, -0.305, 1.282, -1.099, 15.331, -62.875, 135.027, -21.767, -11.893, -16.460, 27.06, 0.25659, 0.52573, -0.09537, 0.80533,
 12:05:51.451,ed:35:33:d3:6c:f8, 2015-01-01 01:35:46.125, 0.884, 0.123, 0.441, -0.061, 1.099, -0.854, 15.348, -62.853, 135, -21.767, -11.893, -16.460, 27.06, 0.25659, 0.52573, -0.09537, 0.80533,
 12:05:51.451,ed:35:33:d3:6c:f8, 2015-01-01 01:35:46.125, 0.886, 0.124, 0.442, -0.305, 1.038, -0.732, 15.359, -62.825, 135, -21.767, -11.893, -16.460, 27.06, 0.25659, 0.52573, -0.09537, 0.80533,
 12:05:51.454,ed:40:fe:65:30:6c, 2015-01-01 01:35:45.935, 0.879, 0.063, 0.479, 0.061, -0.671, -0.366, 7.273, -61.326, -122.217, -26.367, -9.047, 4.807, 22.39, -0.44315, 0.42142, 0.29239, 0.73514,
 12:05:51.454,ed:40:fe:65:30:6c, 2015-01-01 01:35:45.935, 0.887, 0.069, 0.481, -0.305, 0.183, -0.549, 7.289, -61.331, -122.234, -26.367, -9.047, 4.807, 22.39, -0.44315, 0.42142, 0.29239, 0.73514,
 12:05:51.475,e3:ca:2d:fd:e0:8c, 2015-01-01 01:35:46.675, 0.924, -0.1, -0.416, 0.122, 0, 0, -166.278, -65.27, -49.905, -26.653, -7.907, 3.613, 25.01, 0.13474, 0.78519, -0.29434, 0.5278,
 12:05:51.475,e3:ca:2d:fd:e0:8c, 2015-01-01 01:35:46.675, 0.923, -0.1, -0.416, 0, 0, 0, -166.278, -65.27, -49.905, -26.653, -7.907, 3.613, 25.01, 0.13474, 0.78519, -0.29434, 0.5278,
 12:05:51.477,f6:90:cc:01:6d:25, 2015-01-01 01:35:46.805, 0.931, 0.089, -0.315, -0.122, 0, 0, 164.394, -70.582, 14.81, -28.153, -14.587, 9.567, 27.14, -0.0347, -0.81329, -0.02814, -0.58005,
 12:05:51.477,f6:90:cc:01:6d:25, 2015-01-01 01:35:46.805, 0.932, 0.09, -0.318, -0.183, 0.061, 0, 164.388, -70.582, 14.815, -28.153, -14.587, 9.567, 27.14, -0.0347, -0.81329, -0.02814, -0.58005,
 12:05:51.481,ed:35:33:d3:6c:f8, 2015-01-01 01:35:46.125, 0.887, 0.126, 0.439, -0.366, 1.16, -0.793, 15.37, -62.798, 134.995, -21.767, -11.893, -16.460, 27.06, 0.25659, 0.52573, -0.09537, 0.80533,
 12:05:51.481,ed:35:33:d3:6c:f8, 2015-01-01 01:35:46.125, 0.879, 0.124, 0.439, -0.183, 0.916, -0.244, 15.364, -62.776, 134.989, -21.767, -11.893, -16.460, 27.06, 0.25659, 0.52573, -0.09537, 0.80533,
 12:05:51.482,ed:40:fe:65:30:6c, 2015-01-01 01:35:45.935, 0.884, 0.069, 0.477, -0.366, 0.427, -0.183, 7.3, -61.326, -122.25, -26.073, -9.027, 4.540, 22.39, -0.44315, 0.42142, 0.29239, 0.73514,
 12:05:51.482,ed:40:fe:65:30:6c, 2015-01-01 01:35:45.935, 0.881, 0.064, 0.479, -0.061, 0, 0.549, 7.295, -61.32, -122.245, -26.073, -9.027, 4.540, 22.39, -0.44315, 0.42142, 0.29239, 0.73514,
 12:05:51.505,e3:ca:2d:fd:e0:8c, 2015-01-01 01:35:46.675, 0.924, -0.099, -0.413, 0, -0.061, 0, -166.284, -65.27, -49.905, -26.653, -7.907, 3.613, 25.01, 0.13474, 0.78519, -0.29434, 0.5278,
 12:05:51.505,e3:ca:2d:fd:e0:8c, 2015-01-01 01:35:46.675, 0.924, -0.099, -0.416, 0.061, 0, 0, -166.284, -65.264, -49.905, -26.653, -7.907, 3.613, 25.01, 0.13474, 0.78519, -0.29434, 0.5278,
 12:05:51.507,f6:90:cc:01:6d:25, 2015-01-01 01:35:46.805, 0.933, 0.09, -0.319, 0, 0.122, 0, 164.383, -70.582, 14.804, -28.613, -14.387, 9.553, 27.14, -0.0347, -0.81329, -0.02814, -0.58005,
 12:05:51.507,f6:90:cc:01:6d:25, 2015-01-01 01:35:46.805, 0.931, 0.088, -0.318, 0, 0, 0, 164.383, -70.582, 14.771, -28.613, -14.387, 9.553, 27.14, -0.0347, -0.81329, -0.02814, -0.58005,
 12:05:51.509,ed:35:33:d3:6c:f8, 2015-01-01 01:35:46.125, 0.881, 0.121, 0.44, -0.854, 1.16, -0.488, 15.353, -62.754, 134.934, -21.767, -11.893, -16.460, 27.06, 0.25659, 0.52573, -0.09537, 0.80533,
 12:05:51.509,ed:35:33:d3:6c:f8, 2015-01-01 01:35:46.125, 0.888, 0.129, 0.44, -1.221, 0.793, -0.916, 15.359, -62.732, 134.852, -21.767, -11.893, -16.460, 27.06, 0.25659, 0.52573, -0.09537, 0.80533,
 12:05:51.513,ed:40:fe:65:30:6c, 2015-01-01 01:35:45.935, 0.878, 0.062, 0.481, -0.244, -0.061, 0.732, 7.278, -61.32, -122.223, -26.073, -9.027, 4.540, 22.39, -0.44315, 0.42142, 0.29239, 0.73514,
 12:05:51.513,ed:40:fe:65:30:6c, 2015-01-01 01:35:45.935, 0.88, 0.062, 0.48, -0.671, 0, 0.671, 7.245, -61.32, -122.195, -26.073, -9.027, 4.540, 22.39, -0.44315, 0.42142, 0.29239, 0.73514,
 12:05:51.534,e3:ca:2d:fd:e0:8c, 2015-01-01 01:35:46.675, 0.924, -0.1, -0.419, 0, 0.061, 0, -166.284, -65.264, -49.905, -26.653, -7.907, 3.613, 25.01, 0.13474, 0.78519, -0.29434, 0.5278,
 12:05:51.534,e3:ca:2d:fd:e0:8c, 2015-01-01 01:35:46.675, 0.925, -0.099, -0.419, 0, 0.122, 0, -166.284, -65.264, -49.905, -26.653, -7.907, 3.613, 25.01, 0.13474, 0.78519, -0.29434, 0.5278,
 12:05:51.538,f6:90:cc:01:6d:25, 2015-01-01 01:35:46.805, 0.931, 0.086, -0.316, -0.366, -0.244, 0, 164.377, -70.582, 14.738, -28.613, -14.387, 9.553, 27.14, -0.0347, -0.81329, -0.02814, -0.58005,
 12:05:51.538,f6:90:cc:01:6d:25, 2015-01-01 01:35:46.805, 0.93, 0.088, -0.316, -0.244, -0.366, 0, 164.377, -70.576, 14.711, -28.613, -14.387, 9.553, 27.14, -0.0347, -0.81329, -0.02814, -0.58005,
 12:05:51.540,ed:35:33:d3:6c:f8, 2015-01-01 01:35:46.125, 0.886, 0.134, 0.439, -0.793, 0.366, -0.183, 15.353, -62.721, 134.786, -21.767, -11.893, -16.460, 27.06, 0.25659, 0.52573, -0.09537, 0.80533,
 12:05:51.540,ed:35:33:d3:6c:f8, 2015-01-01 01:35:46.125, 0.882, 0.128, 0.441, 0, 0.488, 0.916, 15.32, -62.715, 134.764, -21.767, -11.893, -16.460, 27.06, 0.25659, 0.52573, -0.09537, 0.80533,
 12:05:51.565,e3:ca:2d:fd:e0:8c, 2015-01-01 01:35:47.150, 0.924, -0.101, -0.418, 0, 0.122, 0, -166.289, -65.27, -49.911, -26.653, -7.907, 3.613, 25.01, 0.13474, 0.78519, -0.29434, 0.5278,
 12:05:51.565,e3:ca:2d:fd:e0:8c, 2015-01-01 01:35:47.150, 0.924, -0.101, -0.416, 0, 0.061, 0, -166.289, -65.27, -49.911, -26.653, -7.907, 3.613, 25.01, 0.13474, 0.78519, -0.29434, 0.5278,
 12:05:51.565,e3:ca:2d:fd:e0:8c, 2015-01-01 01:35:47.150, 0.924, -0.099, -0.415, 0, 0.061, 0, -166.289, -65.27, -49.916, -26.653, -7.907, 3.613, 25.01, 0.13474, 0.78519, -0.29434, 0.5278,
 12:05:51.565,e3:ca:2d:fd:e0:8c, 2015-01-01 01:35:47.150, 0.924, -0.098, -0.414, 0, 0.061, 0, -166.295, -65.27, -49.916, -26.653, -7.907, 3.613, 25.01, 0.13474, 0.78519, -0.29434, 0.5278,
 12:05:51.567,f6:90:cc:01:6d:25, 2015-01-01 01:35:46.805, 0.93, 0.091, -0.316, -0.122, -0.244, 0, 164.377, -70.571, 14.705, -28.613, -14.387, 9.553, 27.14, -0.03671, -0.81207, -0.02567, -0.58176,
 12:05:51.567,f6:90:cc:01:6d:25, 2015-01-01 01:35:46.805, 0.93, 0.091, -0.315, -0.122, -0.183, 0, 164.377, -70.565, 14.705, -28.613, -14.387, 9.553, 27.14, -0.03671, -0.81207, -0.02567, -0.58176,
 12:05:51.569,ed:35:33:d3:6c:f8, 2015-01-01 01:35:46.125, 0.881, 0.12, 0.444, -0.793, 0.427, 0.916, 15.271, -62.715, 134.747, -21.440, -11.773, -17.253, 27.06, 0.25659, 0.52573, -0.09537, 0.80533,
 12:05:51.569,ed:35:33:d3:6c:f8, 2015-01-01 01:35:46.125, 0.882, 0.121, 0.442, -1.16, 0, 0.732, 15.227, -62.715, 134.731, -21.440, -11.773, -17.253, 27.06, 0.25659, 0.52573, -0.09537, 0.80533,
 12:05:51.573,ed:40:fe:65:30:6c, 2015-01-01 01:35:45.935, 0.88, 0.06, 0.478, -0.427, 0.183, 0.61, 7.213, -61.32, -122.157, -26.073, -9.027, 4.540, 22.39, -0.44312, 0.41925, 0.29358, 0.73593,
 12:05:51.573,ed:40:fe:65:30:6c, 2015-01-01 01:35:45.935, 0.881, 0.061, 0.476, -0.122, 0.183, 0.366, 7.191, -61.315, -122.119, -26.073, -9.027, 4.540, 22.39, -0.44312, 0.41925, 0.29358, 0.73593,
 12:05:51.594,e3:ca:2d:fd:e0:8c, 2015-01-01 01:35:47.150, 0.923, -0.099, -0.413, 0, 0.061, 0, -166.295, -65.27, -49.916, -26.653, -7.907, 3.613, 25.01, 0.13474, 0.78519, -0.29434, 0.5278,
 12:05:51.594,e3:ca:2d:fd:e0:8c, 2015-01-01 01:35:47.150, 0.924, -0.1, -0.412, 0.061, 0.061, 0, -166.295, -65.27, -49.916, -26.653, -7.907, 3.613, 25.01, 0.13474, 0.78519, -0.29434, 0.5278,
 12:05:51.598,f6:90:cc:01:6d:25, 2015-01-01 01:35:46.805, 0.931, 0.089, -0.313, 0, -0.061, 0, 164.377, -70.56, 14.705, -28.613, -14.387, 9.553, 27.14, -0.03671, -0.81207, -0.02567, -0.58176,
 12:05:51.598,f6:90:cc:01:6d:25, 2015-01-01 01:35:46.805, 0.931, 0.088, -0.314, 0, 0, 0, 164.377, -70.56, 14.689, -28.613, -14.387, 9.553, 27.14, -0.03671, -0.81207, -0.02567, -0.58176,
 12:05:51.600,ed:35:33:d3:6c:f8, 2015-01-01 01:35:46.125, 0.883, 0.118, 0.439, -0.366, -0.183, 0.916, 15.194, -62.721, 134.714, -21.440, -11.773, -17.253, 27.06, 0.25659, 0.52573, -0.09537, 0.80533,
 12:05:51.600,ed:35:33:d3:6c:f8, 2015-01-01 01:35:46.125, 0.883, 0.119, 0.436, 0, -0.122, 0.671, 15.178, -62.726, 134.698, -21.440, -11.773, -17.253, 27.06, 0.25659, 0.52573, -0.09537, 0.80533,
 12:05:51.624,e3:ca:2d:fd:e0:8c, 2015-01-01 01:35:47.150, 0.923, -0.101, -0.414, 0.122, 0.061, 0, -166.295, -65.27, -49.922, -26.653, -7.907, 3.613, 25.01, 0.13474, 0.78519, -0.29434, 0.5278,
 12:05:51.624,e3:ca:2d:fd:e0:8c, 2015-01-01 01:35:47.150, 0.924, -0.1, -0.414, 0.183, 0.061, 0, -166.295, -65.27, -49.922, -26.653, -7.907, 3.613, 25.01, 0.13474, 0.78519, -0.29434, 0.5278,
 12:05:51.631,ed:35:33:d3:6c:f8, 2015-01-01 01:35:46.125, 0.884, 0.119, 0.437, 0.916, 0.183, 0.854, 15.161, -62.726, 134.687, -21.440, -11.773, -17.253, 27.06, 0.25659, 0.52573, -0.09537, 0.80533,
 12:05:51.631,ed:35:33:d3:6c:f8, 2015-01-01 01:35:46.125, 0.883, 0.117, 0.438, 1.221, 0.427, 0.854, 15.156, -62.726, 134.692, -21.440, -11.773, -17.253, 27.06, 0.25659, 0.52573, -0.09537, 0.80533,
 12:05:51.632,ed:40:fe:65:30:6c, 2015-01-01 01:35:46.320, 0.88, 0.06, 0.476, 0.244, 0.427, 0.305, 7.18, -61.309, -122.091, -26.073, -9.027, 4.540, 22.39, -0.44312, 0.41925, 0.29358, 0.73593,
 12:05:51.632,ed:40:fe:65:30:6c, 2015-01-01 01:35:46.320, 0.881, 0.059, 0.476, 0.671, 0.427, 0.366, 7.174, -61.304, -122.08, -26.073, -9.027, 4.540, 22.39, -0.44312, 0.41925, 0.29358, 0.73593,
 12:05:51.634,ed:40:fe:65:30:6c, 2015-01-01 01:35:46.320, 0.881, 0.062, 0.48, 0.305, 0.671, 0.305, 7.174, -61.293, -122.075, -26.073, -9.027, 4.540, 22.39, -0.44312, 0.41925, 0.29358, 0.73593,
 12:05:51.634,ed:40:fe:65:30:6c, 2015-01-01 01:35:46.320, 0.882, 0.063, 0.48, 0.122, 0.671, 0.305, 7.169, -61.282, -122.069, -26.073, -9.027, 4.540, 22.39, -0.44312, 0.41925, 0.29358, 0.73593,
 12:05:51.657,f6:90:cc:01:6d:25, 2015-01-01 01:35:47.220, 0.931, 0.087, -0.314, 0, 0, 0, 164.377, -70.56, 14.661, -28.613, -14.387, 9.553, 27.14, -0.03671, -0.81207, -0.02567, -0.58176,
 12:05:51.657,f6:90:cc:01:6d:25, 2015-01-01 01:35:47.220, 0.93, 0.09, -0.315, 0.244, 0.061, 0, 164.377, -70.565, 14.639, -28.613, -14.387, 9.553, 27.14, -0.03671, -0.81207, -0.02567, -0.58176,
 12:05:51.661,ed:35:33:d3:6c:f8, 2015-01-01 01:35:46.125, 0.884, 0.122, 0.441, 0.671, 0.427, 0.671, 15.139, -62.721, 134.72, -21.440, -11.773, -17.253, 27.06, 0.26263, 0.51947, -0.09476, 0.80753,
