Time,Device name,Chip Time(),Acceleration X(g),Acceleration Y(g),Acceleration Z(g),Angular velocity X(°/s),Angular velocity Y(°/s),Angular velocity Z(°/s),Angle X(°),Angle Y(°),Angle Z(°),Magnetic field X(ʯt),Magnetic field Y(ʯt),Magnetic field Z(ʯt),Temperature(℃),Quaternions 0(),Quaternions 1(),Quaternions 2(),Quaternions 3()
 11:55:16.292,ed:40:fe:65:30:6c, 2015-01-01 00:08:12.580, 0.603, 0.084, 0.793, -0.916, -0.061, -0.366, 5.543, -37.084, -137.455, -18.567, -12.440, -4.627, 25.15, 0.35812, -0.27939, -0.15829, -0.87665,
 11:55:16.292,ed:40:fe:65:30:6c, 2015-01-01 00:08:12.580, 0.61, 0.088, 0.796, -1.038, -0.244, -0.183, 5.537, -37.079, -137.466, -18.567, -12.440, -4.627, 25.15, 0.35812, -0.27939, -0.15829, -0.87665,
 11:55:16.295,ed:35:33:d3:6c:f8, 2015-01-01 00:08:07.880, 0.33, 0.026, 0.938, -0.427, -1.16, -0.732, 1.45, -18.759, 162.361, -8.213, -11.433, -32.507, 29.7, 0.14877, 0.16409, -0.01312, 0.97504,
 11:55:16.295,ed:35:33:d3:6c:f8, 2015-01-01 00:08:07.880, 0.334, 0.032, 0.934, -0.61, 0.061, -0.854, 1.45, -18.765, 162.356, -8.213, -11.433, -32.507, 29.7, 0.14877, 0.16409, -0.01312, 0.97504,
 11:55:16.337,ed:40:fe:65:30:6c, 2015-01-01 00:08:12.940, 0.606, 0.084, 0.79, -0.61, -0.122, 0.183, 5.526, -37.079, -137.466, -18.567, -12.440, -4.627, 25.15, 0.35812, -0.27939, -0.15829, -0.87665,
 11:55:16.337,ed:40:fe:65:30:6c, 2015-01-01 00:08:12.940, 0.601, 0.076, 0.795, -0.244, 0.244, 0.427, 5.526, -37.079, -137.461, -18.567, -12.440, -4.627, 25.15, 0.35812, -0.27939, -0.15829, -0.87665,
 11:55:16.339,e3:ca:2d:fd:e0:8c, 2015-01-01 00:08:07.340, 1.014, -0.116, 0.093, -0.122, -1.221, 0, -48.79, -81.947, -147.816, -30.273, -11.000, -7.240, 24.49, 0.06961, 0.65994, -0.13394, 0.73593,
 11:55:16.339,e3:ca:2d:fd:e0:8c, 2015-01-01 00:08:07.340, 1.018, -0.117, 0.093, 0.061, -0.61, 0, -48.884, -81.953, -147.755, -30.273, -11.000, -7.240, 24.49, 0.06961, 0.65994, -0.13394, 0.73593,
 11:55:16.339,f6:90:cc:01:6d:25, 2015-01-01 00:08:07.625, 0.962, -0.036, 0.238, -0.244, -0.61, 0.366, -7.723, -75.767, -155.089, -31.300, -11.707, -4.347, 28.72, 0.12936, -0.60965, -0.0802, -0.77786,
 11:55:16.339,f6:90:cc:01:6d:25, 2015-01-01 00:08:07.625, 0.961, -0.037, 0.237, 0.183, -0.793, 0.427, -7.767, -75.784, -155.05, -31.300, -11.707, -4.347, 28.72, 0.12936, -0.60965, -0.0802, -0.77786,
 11:55:16.341,ed:35:33:d3:6c:f8, 2015-01-01 00:08:07.880, 0.328, 0.027, 0.928, -0.61, 2.747, -0.427, 1.445, -18.726, 162.356, -8.213, -11.433, -32.507, 29.7, 0.14877, 0.16409, -0.01312, 0.97504,
 11:55:16.341,ed:35:33:d3:6c:f8, 2015-01-01 00:08:07.880, 0.323, 0.021, 0.942, -0.671, 1.648, 0.488, 1.428, -18.699, 162.378, -8.213, -11.433, -32.507, 29.7, 0.14877, 0.16409, -0.01312, 0.97504,
 11:55:16.359,ed:40:fe:65:30:6c, 2015-01-01 00:08:12.940, 0.596, 0.077, 0.799, -0.183, 0.427, 0.732, 5.515, -37.068, -137.444, -18.567, -12.440, -4.627, 25.15, 0.35812, -0.27939, -0.15829, -0.87665,
 11:55:16.359,ed:40:fe:65:30:6c, 2015-01-01 00:08:12.940, 0.597, 0.083, 0.803, -0.244, 0, 0.732, 5.504, -37.062, -137.422, -18.567, -12.440, -4.627, 25.15, 0.35812, -0.27939, -0.15829, -0.87665,
 11:55:16.360,e3:ca:2d:fd:e0:8c, 2015-01-01 00:08:07.675, 1.011, -0.118, 0.096, 0.549, -0.427, 0, -48.95, -81.953, -147.711, -30.273, -11.000, -7.240, 24.49, 0.06961, 0.65994, -0.13394, 0.73593,
 11:55:16.360,e3:ca:2d:fd:e0:8c, 2015-01-01 00:08:07.675, 1.007, -0.117, 0.097, 0.549, 0, -0.244, -48.939, -81.953, -147.728, -30.273, -11.000, -7.240, 24.49, 0.06961, 0.65994, -0.13394, 0.73593,
 11:55:16.361,f6:90:cc:01:6d:25, 2015-01-01 00:08:08.005, 0.957, -0.04, 0.239, 0.366, -0.122, 0.244, -7.795, -75.789, -155.017, -31.300, -11.707, -4.347, 28.72, 0.12936, -0.60965, -0.0802, -0.77786,
 11:55:16.361,f6:90:cc:01:6d:25, 2015-01-01 00:08:08.005, 0.954, -0.04, 0.242, 0.122, 0.427, -0.061, -7.8, -75.789, -155.012, -31.300, -11.707, -4.347, 28.72, 0.12936, -0.60965, -0.0802, -0.77786,
 11:55:16.384,f6:90:cc:01:6d:25, 2015-01-01 00:08:08.005, 0.957, -0.035, 0.242, -0.122, 0.427, -0.122, -7.8, -75.778, -155.023, -31.300, -11.707, -4.347, 28.72, 0.12936, -0.60965, -0.0802, -0.77786,
 11:55:16.384,f6:90:cc:01:6d:25, 2015-01-01 00:08:08.005, 0.959, -0.031, 0.242, -0.244, -0.061, -0.122, -7.8, -75.773, -155.034, -31.300, -11.707, -4.347, 28.72, 0.12936, -0.60965, -0.0802, -0.77786,
 11:55:16.385,ed:35:33:d3:6c:f8, 2015-01-01 00:08:07.880, 0.319, 0.02, 0.947, -0.732, 0.488, 1.221, 1.406, -18.693, 162.405, -8.213, -11.433, -32.507, 29.7, 0.14877, 0.16409, -0.01312, 0.97504,
 11:55:16.385,ed:35:33:d3:6c:f8, 2015-01-01 00:08:07.880, 0.316, 0.022, 0.948, -0.549, 0.305, 1.16, 1.39, -18.688, 162.438, -8.213, -11.433, -32.507, 29.7, 0.14877, 0.16409, -0.01312, 0.97504,
 11:55:16.428,ed:40:fe:65:30:6c, 2015-01-01 00:08:12.940, 0.597, 0.086, 0.797, -0.061, -0.122, 0.61, 5.499, -37.062, -137.401, -18.567, -12.440, -4.627, 25.15, 0.35812, -0.27939, -0.15829, -0.87665,
 11:55:16.428,ed:40:fe:65:30:6c, 2015-01-01 00:08:12.940, 0.601, 0.086, 0.796, 0.061, 0, 0.549, 5.499, -37.062, -137.395, -18.567, -12.440, -4.627, 25.15, 0.35812, -0.27939, -0.15829, -0.87665,
 11:55:16.428,e3:ca:2d:fd:e0:8c, 2015-01-01 00:08:07.675, 1.009, -0.116, 0.095, 0.183, -0.122, -0.427, -48.933, -81.958, -147.739, -30.273, -11.000, -7.240, 24.49, 0.06961, 0.65994, -0.13394, 0.73593,
 11:55:16.428,e3:ca:2d:fd:e0:8c, 2015-01-01 00:08:07.675, 1.014, -0.114, 0.091, -0.122, -0.488, -0.427, -48.977, -81.964, -147.7, -30.273, -11.000, -7.240, 24.49, 0.06961, 0.65994, -0.13394, 0.73593,
 11:55:16.430,f6:90:cc:01:6d:25, 2015-01-01 00:08:08.005, 0.961, -0.031, 0.241, -0.244, -0.305, -0.122, -7.8, -75.778, -155.039, -31.300, -11.707, -4.347, 28.72, 0.12936, -0.60965, -0.0802, -0.77786,
 11:55:16.430,f6:90:cc:01:6d:25, 2015-01-01 00:08:08.005, 0.959, -0.032, 0.239, -0.122, -0.061, -0.122, -7.8, -75.784, -155.045, -31.300, -11.707, -4.347, 28.72, 0.12936, -0.60965, -0.0802, -0.77786,
 11:55:16.430,ed:35:33:d3:6c:f8, 2015-01-01 00:08:07.880, 0.32, 0.024, 0.942, -0.244, 0.366, 0.793, 1.379, -18.682, 162.466, -7.833, -11.480, -33.033, 29.7, 0.14877, 0.16409, -0.01312, 0.97504,
 11:55:16.430,ed:35:33:d3:6c:f8, 2015-01-01 00:08:07.880, 0.323, 0.025, 0.933, 0.061, 0.305, 0.916, 1.379, -18.682, 162.471, -7.833, -11.480, -33.033, 29.7, 0.14877, 0.16409, -0.01312, 0.97504,
 11:55:16.474,e3:ca:2d:fd:e0:8c, 2015-01-01 00:08:07.675, 1.017, -0.113, 0.091, -0.122, -0.671, -0.366, -49.043, -81.974, -147.645, -30.273, -11.000, -7.240, 24.49, 0.06961, 0.65994, -0.13394, 0.73593,
 11:55:16.474,e3:ca:2d:fd:e0:8c, 2015-01-01 00:08:07.675, 1.015, -0.114, 0.094, 0, -0.305, -0.366, -49.065, -81.98, -147.629, -30.273, -11.000, -7.240, 24.49, 0.06961, 0.65994, -0.13394, 0.73593,
 11:55:16.495,ed:40:fe:65:30:6c, 2015-01-01 00:08:12.940, 0.599, 0.084, 0.794, 0, 0.427, 0.244, 5.499, -37.057, -137.395, -18.567, -12.440, -4.627, 25.15, 0.35812, -0.27939, -0.15829, -0.87665,
 11:55:16.495,ed:40:fe:65:30:6c, 2015-01-01 00:08:12.940, 0.593, 0.084, 0.797, -0.305, 0.366, -0.122, 5.499, -37.046, -137.411, -18.567, -12.440, -4.627, 25.15, 0.35812, -0.27939, -0.15829, -0.87665,
 11:55:16.496,e3:ca:2d:fd:e0:8c, 2015-01-01 00:08:07.675, 1.008, -0.115, 0.096, 0.244, 0.305, -0.366, -49.016, -81.98, -147.662, -30.273, -11.000, -7.240, 24.49, 0.06961, 0.65994, -0.13394, 0.73593,
 11:55:16.496,e3:ca:2d:fd:e0:8c, 2015-01-01 00:08:07.675, 1.008, -0.113, 0.094, 0.366, 0.977, -0.427, -48.884, -81.969, -147.772, -30.273, -11.000, -7.240, 24.49, 0.06961, 0.65994, -0.13394, 0.73593,
 11:55:16.497,f6:90:cc:01:6d:25, 2015-01-01 00:08:08.005, 0.955, -0.032, 0.239, 0, 0.244, -0.183, -7.795, -75.778, -155.061, -31.300, -11.707, -4.347, 28.72, 0.12936, -0.60965, -0.0802, -0.77786,
 11:55:16.497,f6:90:cc:01:6d:25, 2015-01-01 00:08:08.005, 0.953, -0.032, 0.243, 0, 0.671, -0.244, -7.773, -75.773, -155.083, -31.300, -11.707, -4.347, 28.72, 0.12936, -0.60965, -0.0802, -0.77786,
 11:55:16.500,ed:35:33:d3:6c:f8, 2015-01-01 00:08:07.880, 0.316, 0.021, 0.936, -0.183, 2.014, 0.732, 1.368, -18.644, 162.482, -7.833, -11.480, -33.033, 29.7, 0.14835, 0.1618, -0.01297, 0.97546,
 11:55:16.500,ed:35:33:d3:6c:f8, 2015-01-01 00:08:07.880, 0.311, 0.023, 0.949, 0, 1.831, 0.366, 1.368, -18.611, 162.488, -7.833, -11.480, -33.033, 29.7, 0.14835, 0.1618, -0.01297, 0.97546,
 11:55:16.500,ed:35:33:d3:6c:f8, 2015-01-01 00:08:07.880, 0.312, 0.025, 0.941, -0.305, 3.174, 0.122, 1.362, -18.55, 162.482, -7.833, -11.480, -33.033, 29.7, 0.14835, 0.1618, -0.01297, 0.97546,
 11:55:16.500,ed:35:33:d3:6c:f8, 2015-01-01 00:08:07.880, 0.312, 0.022, 0.944, -0.61, 3.052, 0.061, 1.351, -18.49, 162.466, -7.833, -11.480, -33.033, 29.7, 0.14835, 0.1618, -0.01297, 0.97546,
 11:55:16.518,e3:ca:2d:fd:e0:8c, 2015-01-01 00:08:07.675, 1.009, -0.113, 0.09, 0.366, 0.732, -0.427, -48.785, -81.964, -147.849, -30.273, -11.000, -7.240, 24.49, 0.06961, 0.65994, -0.13394, 0.73593,
 11:55:16.518,e3:ca:2d:fd:e0:8c, 2015-01-01 00:08:07.675, 1.011, -0.113, 0.091, 0.305, 0.305, -0.366, -48.735, -81.964, -147.87, -30.273, -11.000, -7.240, 24.49, 0.06961, 0.65994, -0.13394, 0.73593,
 11:55:16.520,f6:90:cc:01:6d:25, 2015-01-01 00:08:08.005, 0.955, -0.032, 0.239, -0.122, 0.305, -0.183, -7.751, -75.762, -155.105, -31.300, -11.707, -4.347, 28.72, 0.12936, -0.60965, -0.0802, -0.77786,
 11:55:16.520,f6:90:cc:01:6d:25, 2015-01-01 00:08:08.005, 0.957, -0.034, 0.239, -0.122, 0.122, -0.183, -7.74, -75.762, -155.121, -31.300, -11.707, -4.347, 28.72, 0.12936, -0.60965, -0.0802, -0.77786,
 11:55:16.539,ed:40:fe:65:30:6c, 2015-01-01 00:08:12.940, 0.594, 0.087, 0.804, -0.61, 0.244, -0.244, 5.499, -37.035, -137.428, -18.567, -12.440, -4.627, 25.15, 0.35812, -0.27939, -0.15829, -0.87665,
 11:55:16.539,ed:40:fe:65:30:6c, 2015-01-01 00:08:12.940, 0.595, 0.084, 0.798, -0.427, -0.183, -0.244, 5.499, -37.029, -137.444, -18.567, -12.440, -4.627, 25.15, 0.35812, -0.27939, -0.15829, -0.87665,
 11:55:16.562,ed:40:fe:65:30:6c, 2015-01-01 00:08:12.940, 0.598, 0.084, 0.801, -0.305, -0.305, -0.183, 5.504, -37.029, -137.461, -18.260, -12.693, -4.847, 25.15, 0.35812, -0.27939, -0.15829, -0.87665,
 11:55:16.562,ed:40:fe:65:30:6c, 2015-01-01 00:08:12.940, 0.595, 0.087, 0.804, -0.183, -0.488, 0, 5.504, -37.035, -137.461, -18.260, -12.693, -4.847, 25.15, 0.35812, -0.27939, -0.15829, -0.87665,
 11:55:16.562,e3:ca:2d:fd:e0:8c, 2015-01-01 00:08:07.675, 1.013, -0.115, 0.088, 0.061, 0, -0.366, -48.73, -81.964, -147.865, -30.273, -11.000, -7.240, 24.49, 0.06961, 0.65994, -0.13394, 0.73593,
 11:55:16.562,e3:ca:2d:fd:e0:8c, 2015-01-01 00:08:07.675, 1.012, -0.115, 0.09, 0.122, -0.549, -0.305, -48.785, -81.974, -147.805, -30.273, -11.000, -7.240, 24.49, 0.06961, 0.65994, -0.13394, 0.73593,
 11:55:16.566,ed:35:33:d3:6c:f8, 2015-01-01 00:08:08.170, 0.315, 0.025, 0.952, -0.854, 0.916, 0.366, 1.329, -18.474, 162.471, -7.833, -11.480, -33.033, 29.7, 0.14835, 0.1618, -0.01297, 0.97546,
 11:55:16.566,ed:35:33:d3:6c:f8, 2015-01-01 00:08:08.170, 0.311, 0.027, 0.953, -0.549, -0.183, 0.305, 1.318, -18.479, 162.482, -7.833, -11.480, -33.033, 29.7, 0.14835, 0.1618, -0.01297, 0.97546,
 11:55:16.584,ed:40:fe:65:30:6c, 2015-01-01 00:08:12.940, 0.6, 0.088, 0.803, 0.122, -0.977, 0.183, 5.51, -37.04, -137.461, -18.260, -12.693, -4.847, 25.15, 0.35812, -0.27939, -0.15829, -0.87665,
 11:55:16.584,ed:40:fe:65:30:6c, 2015-01-01 00:08:12.940, 0.599, 0.091, 0.798, 0.61, -1.343, 0.366, 5.526, -37.062, -137.461, -18.260, -12.693, -4.847, 25.15, 0.35812, -0.27939, -0.15829, -0.87665,
 11:55:16.586,f6:90:cc:01:6d:25, 2015-01-01 00:08:08.005, 0.958, -0.034, 0.24, 0.183, 0.061, -0.183, -7.729, -75.756, -155.132, -31.300, -11.707, -4.347, 28.72, 0.12936, -0.60965, -0.0802, -0.77786,
 11:55:16.586,f6:90:cc:01:6d:25, 2015-01-01 00:08:08.005, 0.959, -0.033, 0.245, 0.244, -0.366, -0.183, -7.712, -75.762, -155.149, -31.300, -11.707, -4.347, 28.72, 0.12936, -0.60965, -0.0802, -0.77786,
 11:55:16.588,ed:35:33:d3:6c:f8, 2015-01-01 00:08:08.170, 0.32, 0.026, 0.954, 0.122, -1.038, 0.305, 1.324, -18.495, 162.488, -7.833, -11.480, -33.033, 29.7, 0.14835, 0.1618, -0.01297, 0.97546,
 11:55:16.589,ed:35:33:d3:6c:f8, 2015-01-01 00:08:08.170, 0.316, 0.03, 0.947, 0.854, -2.319, 0, 1.34, -18.545, 162.488, -7.833, -11.480, -33.033, 29.7, 0.14835, 0.1618, -0.01297, 0.97546,
 11:55:16.609,f6:90:cc:01:6d:25, 2015-01-01 00:08:08.005, 0.956, -0.032, 0.24, 0.305, -0.183, -0.122, -7.701, -75.767, -155.154, -30.753, -12.487, -4.220, 28.72, 0.12936, -0.60965, -0.0802, -0.77786,
 11:55:16.609,f6:90:cc:01:6d:25, 2015-01-01 00:08:08.005, 0.952, -0.031, 0.24, 0.061, -0.061, 0, -7.696, -75.767, -155.154, -30.753, -12.487, -4.220, 28.72, 0.12936, -0.60965, -0.0802, -0.77786,
 11:55:16.630,ed:40:fe:65:30:6c, 2015-01-01 00:08:12.940, 0.594, 0.091, 0.796, 0.549, -1.648, 0.244, 5.543, -37.084, -137.472, -18.260, -12.693, -4.847, 25.15, 0.35812, -0.27939, -0.15829, -0.87665,
 11:55:16.630,ed:40:fe:65:30:6c, 2015-01-01 00:08:12.940, 0.599, 0.085, 0.793, 0.122, -1.038, 0.183, 5.554, -37.106, -137.483, -18.260, -12.693, -4.847, 25.15, 0.35812, -0.27939, -0.15829, -0.87665,
 11:55:16.631,e3:ca:2d:fd:e0:8c, 2015-01-01 00:08:07.675, 1.012, -0.116, 0.091, 0.244, -0.854, -0.244, -48.884, -81.985, -147.711, -30.427, -11.200, -7.120, 24.49, 0.06961, 0.65994, -0.13394, 0.73593,
 11:55:16.631,e3:ca:2d:fd:e0:8c, 2015-01-01 00:08:07.675, 1.007, -0.114, 0.097, 0.183, -0.916, -0.183, -48.988, -81.996, -147.618, -30.427, -11.200, -7.120, 24.49, 0.06961, 0.65994, -0.13394, 0.73593,
 11:55:16.652,ed:40:fe:65:30:6c, 2015-01-01 00:08:12.940, 0.601, 0.088, 0.797, -0.305, -0.427, 0.122, 5.559, -37.117, -137.483, -18.260, -12.693, -4.847, 25.15, 0.3577, -0.27948, -0.15802, -0.87686,
 11:55:16.652,ed:40:fe:65:30:6c, 2015-01-01 00:08:12.940, 0.603, 0.091, 0.789, -0.61, -0.061, 0.061, 5.559, -37.117, -137.483, -18.260, -12.693, -4.847, 25.15, 0.3577, -0.27948, -0.15802, -0.87686,
 11:55:16.653,e3:ca:2d:fd:e0:8c, 2015-01-01 00:08:07.675, 1.005, -0.112, 0.096, -0.366, -0.183, -0.122, -49.026, -81.996, -147.618, -30.427, -11.200, -7.120, 24.49, 0.06998, 0.66052, -0.13431, 0.73529,
 11:55:16.653,e3:ca:2d:fd:e0:8c, 2015-01-01 00:08:07.675, 1.013, -0.111, 0.092, -0.488, -0.549, -0.183, -49.098, -82.002, -147.579, -30.427, -11.200, -7.120, 24.49, 0.06998, 0.66052, -0.13431, 0.73529,
 11:55:16.656,ed:35:33:d3:6c:f8, 2015-01-01 00:08:08.170, 0.319, 0.027, 0.935, 0.916, -2.258, -0.244, 1.368, -18.589, 162.499, -7.833, -11.480, -33.033, 29.7, 0.14835, 0.1618, -0.01297, 0.97546,
 11:55:16.656,ed:35:33:d3:6c:f8, 2015-01-01 00:08:08.170, 0.323, 0.025, 0.93, 0.244, -1.526, -0.122, 1.373, -18.616, 162.521, -7.833, -11.480, -33.033, 29.7, 0.14835, 0.1618, -0.01297, 0.97546,
 11:55:16.656,ed:35:33:d3:6c:f8, 2015-01-01 00:08:08.170, 0.321, 0.027, 0.944, -0.488, -0.732, -0.488, 1.368, -18.633, 162.532, -7.833, -11.480, -33.033, 29.7, 0.14835, 0.1618, -0.01297, 0.97546,
 11:55:16.656,ed:35:33:d3:6c:f8, 2015-01-01 00:08:08.170, 0.328, 0.033, 0.924, -0.854, 0.061, -0.305, 1.357, -18.633, 162.532, -7.833, -11.480, -33.033, 29.7, 0.14835, 0.1618, -0.01297, 0.97546,
 11:55:16.677,f6:90:cc:01:6d:25, 2015-01-01 00:08:08.005, 0.952, -0.032, 0.242, -0.366, -0.244, 0.122, -7.712, -75.773, -155.143, -30.753, -12.487, -4.220, 28.72, 0.12936, -0.60965, -0.0802, -0.77786,
 11:55:16.677,f6:90:cc:01:6d:25, 2015-01-01 00:08:08.005, 0.956, -0.03, 0.239, -0.854, -0.061, 0.122, -7.734, -75.773, -155.132, -30.753, -12.487, -4.220, 28.72, 0.12936, -0.60965, -0.0802, -0.77786,
 11:55:16.699,e3:ca:2d:fd:e0:8c, 2015-01-01 00:08:07.675, 1.019, -0.113, 0.093, -0.244, -1.099, -0.122, -49.23, -82.018, -147.469, -30.427, -11.200, -7.120, 24.49, 0.06998, 0.66052, -0.13431, 0.73529,
 11:55:16.699,e3:ca:2d:fd:e0:8c, 2015-01-01 00:08:07.675, 1.016, -0.115, 0.095, 0.061, -0.61, -0.061, -49.345, -82.029, -147.371, -30.427, -11.200, -7.120, 24.49, 0.06998, 0.66052, -0.13431, 0.73529,
 11:55:16.700,f6:90:cc:01:6d:25, 2015-01-01 00:08:08.005, 0.958, -0.03, 0.243, -0.793, -0.61, 0.183, -7.767, -75.784, -155.116, -30.753, -12.487, -4.220, 28.72, 0.12897, -0.60986, -0.07977, -0.7778,
 11:55:16.700,f6:90:cc:01:6d:25, 2015-01-01 00:08:08.005, 0.965, -0.031, 0.233, -0.488, -0.488, 0.244, -7.8, -75.789, -155.089, -30.753, -12.487, -4.220, 28.72, 0.12897, -0.60986, -0.07977, -0.7778,
 11:55:16.700,ed:35:33:d3:6c:f8, 2015-01-01 00:08:08.170, 0.322, 0.027, 0.948, -1.587, 1.587, 0, 1.329, -18.6, 162.543, -7.833, -11.480, -33.033, 29.7, 0.14835, 0.1618, -0.01297, 0.97546,
 11:55:16.700,ed:35:33:d3:6c:f8, 2015-01-01 00:08:08.170, 0.322, 0.021, 0.941, -1.221, 0.977, 0.122, 1.307, -18.583, 162.559, -7.833, -11.480, -33.033, 29.7, 0.14835, 0.1618, -0.01297, 0.97546,
 11:55:16.718,ed:40:fe:65:30:6c, 2015-01-01 00:08:12.940, 0.606, 0.088, 0.799, -0.549, 0.244, 0.244, 5.554, -37.112, -137.488, -18.260, -12.693, -4.847, 25.15, 0.3577, -0.27948, -0.15802, -0.87686,
 11:55:16.718,ed:40:fe:65:30:6c, 2015-01-01 00:08:12.940, 0.604, 0.084, 0.791, -0.671, 0.488, 0.305, 5.548, -37.101, -137.499, -18.260, -12.693, -4.847, 25.15, 0.3577, -0.27948, -0.15802, -0.87686,
 11:55:16.721,e3:ca:2d:fd:e0:8c, 2015-01-01 00:08:08.035, 1.012, -0.115, 0.094, 0.305, 0.305, -0.061, -49.395, -82.029, -147.327, -30.427, -11.200, -7.120, 24.49, 0.06998, 0.66052, -0.13431, 0.73529,
 11:55:16.721,e3:ca:2d:fd:e0:8c, 2015-01-01 00:08:08.035, 1.007, -0.114, 0.088, 0.122, 0.244, -0.122, -49.367, -82.024, -147.365, -30.427, -11.200, -7.120, 24.49, 0.06998, 0.66052, -0.13431, 0.73529,
 11:55:16.722,f6:90:cc:01:6d:25, 2015-01-01 00:08:08.005, 0.961, -0.034, 0.246, -0.183, -0.732, 0.244, -7.828, -75.806, -155.061, -30.753, -12.487, -4.220, 28.72, 0.12897, -0.60986, -0.07977, -0.7778,
 11:55:16.722,f6:90:cc:01:6d:25, 2015-01-01 00:08:08.005, 0.956, -0.035, 0.229, 0.061, 0.732, 0.061, -7.833, -75.795, -155.056, -30.753, -12.487, -4.220, 28.72, 0.12897, -0.60986, -0.07977, -0.7778,
 11:55:16.743,ed:40:fe:65:30:6c, 2015-01-01 00:08:13.340, 0.595, 0.081, 0.8, -0.549, 0.793, 0.244, 5.537, -37.084, -137.51, -18.260, -12.693, -4.847, 25.15, 0.3577, -0.27948, -0.15802, -0.87686,
 11:55:16.743,ed:40:fe:65:30:6c, 2015-01-01 00:08:13.340, 0.6, 0.084, 0.801, -0.427, 0.854, 0.061, 5.532, -37.062, -137.51, -18.260, -12.693, -4.847, 25.15, 0.3577, -0.27948, -0.15802, -0.87686,
 11:55:16.747,ed:35:33:d3:6c:f8, 2015-01-01 00:08:08.170, 0.315, 0.02, 0.944, -0.793, 0.854, 0.366, 1.296, -18.572, 162.576, -8.020, -11.680, -32.673, 29.7, 0.14835, 0.1618, -0.01297, 0.97546,
 11:55:16.747,ed:35:33:d3:6c:f8, 2015-01-01 00:08:08.170, 0.322, 0.021, 0.949, -0.366, 1.282, 0.244, 1.285, -18.545, 162.587, -8.020, -11.680, -32.673, 29.7, 0.14835, 0.1618, -0.01297, 0.97546,
 11:55:16.765,ed:40:fe:65:30:6c, 2015-01-01 00:08:13.340, 0.603, 0.086, 0.8, -0.244, 0.61, 0.061, 5.532, -37.046, -137.505, -18.260, -12.693, -4.847, 25.15, 0.3577, -0.27948, -0.15802, -0.87686,
 11:55:16.765,ed:40:fe:65:30:6c, 2015-01-01 00:08:13.340, 0.598, 0.086, 0.8, -0.427, 0.366, 0.183, 5.532, -37.035, -137.494, -18.260, -12.693, -4.847, 25.15, 0.3577, -0.27948, -0.15802, -0.87686,
 11:55:16.765,e3:ca:2d:fd:e0:8c, 2015-01-01 00:08:08.035, 1.012, -0.115, 0.08, -0.183, 0.061, -0.122, -49.356, -82.024, -147.387, -30.427, -11.200, -7.120, 24.49, 0.06998, 0.66052, -0.13431, 0.73529,
 11:55:16.765,e3:ca:2d:fd:e0:8c, 2015-01-01 00:08:08.035, 1.015, -0.115, 0.084, -0.122, -1.648, -0.183, -49.411, -82.024, -147.338, -30.427, -11.200, -7.120, 24.49, 0.06998, 0.66052, -0.13431, 0.73529,
 11:55:16.788,e3:ca:2d:fd:e0:8c, 2015-01-01 00:08:08.035, 1.018, -0.116, 0.09, -0.122, -1.526, -0.122, -49.603, -82.046, -147.145, -30.427, -11.200, -7.120, 24.49, 0.06998, 0.66052, -0.13431, 0.73529,
 11:55:16.788,e3:ca:2d:fd:e0:8c, 2015-01-01 00:08:08.035, 1.018, -0.117, 0.094, 0.305, -0.305, -0.122, -49.757, -82.062, -146.992, -30.427, -11.200, -7.120, 24.49, 0.06998, 0.66052, -0.13431, 0.73529,
 11:55:16.790,f6:90:cc:01:6d:25, 2015-01-01 00:08:08.005, 0.957, -0.034, 0.235, -0.305, 0.671, 0.061, -7.833, -75.784, -155.056, -30.753, -12.487, -4.220, 28.72, 0.12897, -0.60986, -0.07977, -0.7778,
 11:55:16.790,f6:90:cc:01:6d:25, 2015-01-01 00:08:08.005, 0.958, -0.035, 0.242, -0.488, -0.305, 0.122, -7.855, -75.784, -155.05, -30.753, -12.487, -4.220, 28.72, 0.12897, -0.60986, -0.07977, -0.7778,
 11:55:16.792,ed:35:33:d3:6c:f8, 2015-01-01 00:08:08.170, 0.319, 0.024, 0.948, 0, 0.793, 0.244, 1.285, -18.534, 162.603, -8.020, -11.680, -32.673, 29.7, 0.14746, 0.16089, -0.01337, 0.97577,
 11:55:16.792,ed:35:33:d3:6c:f8, 2015-01-01 00:08:08.170, 0.315, 0.025, 0.942, 0.122, 0.366, 0.183, 1.291, -18.528, 162.614, -8.020, -11.680, -32.673, 29.7, 0.14746, 0.16089, -0.01337, 0.97577,
 11:55:16.809,ed:40:fe:65:30:6c, 2015-01-01 00:08:13.340, 0.6, 0.088, 0.8, -0.183, 0.061, 0.244, 5.532, -37.029, -137.488, -18.260, -12.693, -4.847, 25.15, 0.3577, -0.27948, -0.15802, -0.87686,
 11:55:16.809,ed:40:fe:65:30:6c, 2015-01-01 00:08:13.340, 0.599, 0.086, 0.804, 0, -0.061, 0.183, 5.532, -37.024, -137.483, -18.260, -12.693, -4.847, 25.15, 0.3577, -0.27948, -0.15802, -0.87686,
 11:55:16.811,f6:90:cc:01:6d:25, 2015-01-01 00:08:08.430, 0.958, -0.034, 0.236, -0.427, -0.671, 0.061, -7.877, -75.795, -155.034, -30.753, -12.487, -4.220, 28.72, 0.12897, -0.60986, -0.07977, -0.7778,
 11:55:16.811,f6:90:cc:01:6d:25, 2015-01-01 00:08:08.430, 0.96, -0.034, 0.237, -0.122, -0.549, 0.122, -7.894, -75.811, -155.017, -30.753, -12.487, -4.220, 28.72, 0.12897, -0.60986, -0.07977, -0.7778,
 11:55:16.833,e3:ca:2d:fd:e0:8c, 2015-01-01 00:08:08.035, 1.014, -0.117, 0.098, 0.916, 0.916, -0.061, -49.768, -82.062, -146.981, -30.427, -11.200, -7.120, 24.49, 0.06998, 0.66052, -0.13431, 0.73529,
 11:55:16.833,e3:ca:2d:fd:e0:8c, 2015-01-01 00:08:08.035, 1.009, -0.117, 0.099, 1.404, 1.587, -0.183, -49.642, -82.046, -147.085, -30.427, -11.200, -7.120, 24.49, 0.06998, 0.66052, -0.13431, 0.73529,
 11:55:16.834,f6:90:cc:01:6d:25, 2015-01-01 00:08:08.430, 0.96, -0.033, 0.243, 0.183, -0.244, 0.183, -7.91, -75.817, -155.001, -30.753, -12.487, -4.220, 28.72, 0.12897, -0.60986, -0.07977, -0.7778,
 11:55:16.834,f6:90:cc:01:6d:25, 2015-01-01 00:08:08.430, 0.957, -0.035, 0.248, 0.549, 0.549, 0, -7.905, -75.811, -155.001, -30.753, -12.487, -4.220, 28.72, 0.12897, -0.60986, -0.07977, -0.7778,
 11:55:16.835,ed:35:33:d3:6c:f8, 2015-01-01 00:08:08.170, 0.318, 0.025, 0.943, 0.061, 0.793, 0.244, 1.291, -18.517, 162.614, -8.020, -11.680, -32.673, 29.7, 0.14746, 0.16089, -0.01337, 0.97577,
 11:55:16.835,ed:35:33:d3:6c:f8, 2015-01-01 00:08:08.170, 0.313, 0.021, 0.951, -0.122, 0.916, 0.244, 1.291, -18.501, 162.631, -8.020, -11.680, -32.673, 29.7, 0.14746, 0.16089, -0.01337, 0.97577,
 11:55:16.854,ed:40:fe:65:30:6c, 2015-01-01 00:08:13.340, 0.594, 0.083, 0.803, 0.244, -0.427, 0.183, 5.543, -37.029, -137.472, -18.260, -12.693, -4.847, 25.15, 0.3577, -0.27948, -0.15802, -0.87686,
 11:55:16.854,ed:40:fe:65:30:6c, 2015-01-01 00:08:13.340, 0.595, 0.084, 0.802, 0.061, -0.305, 0.122, 5.548, -37.029, -137.455, -18.260, -12.693, -4.847, 25.15, 0.3577, -0.27948, -0.15802, -0.87686,
 11:55:16.859,ed:35:33:d3:6c:f8, 2015-01-01 00:08:08.505, 0.312, 0.02, 0.947, 0.061, -0.732, 0.305, 1.291, -18.517, 162.653, -8.020, -11.680, -32.673, 29.7, 0.14746, 0.16089, -0.01337, 0.97577,
 11:55:16.859,ed:35:33:d3:6c:f8, 2015-01-01 00:08:08.505, 0.319, 0.02, 0.941, 0.122, -1.282, 0.122, 1.296, -18.539, 162.664, -8.020, -11.680, -32.673, 29.7, 0.14746, 0.16089, -0.01337, 0.97577,
 11:55:16.900,e3:ca:2d:fd:e0:8c, 2015-01-01 00:08:08.035, 1.009, -0.114, 0.096, 1.099, 2.136, -0.183, -49.433, -82.018, -147.272, -30.427, -11.200, -7.120, 24.49, 0.06998, 0.66052, -0.13431, 0.73529,
 11:55:16.900,e3:ca:2d:fd:e0:8c, 2015-01-01 00:08:08.035, 1.013, -0.112, 0.09, 0.61, 1.892, -0.183, -49.197, -81.991, -147.491, -30.427, -11.200, -7.120, 24.49, 0.06998, 0.66052, -0.13431, 0.73529,
 11:55:16.902,f6:90:cc:01:6d:25, 2015-01-01 00:08:08.430, 0.955, -0.037, 0.246, 0.305, 1.465, 0, -7.883, -75.784, -155.045, -30.753, -12.487, -4.220, 28.72, 0.12897, -0.60986, -0.07977, -0.7778,
 11:55:16.902,f6:90:cc:01:6d:25, 2015-01-01 00:08:08.430, 0.956, -0.034, 0.242, 0, 2.075, 0, -7.866, -75.745, -155.094, -30.753, -12.487, -4.220, 28.72, 0.12897, -0.60986, -0.07977, -0.7778,
 11:55:16.904,ed:35:33:d3:6c:f8, 2015-01-01 00:08:08.505, 0.326, 0.021, 0.944, -0.061, -1.221, 0, 1.296, -18.567, 162.675, -8.020, -11.680, -32.673, 29.7, 0.14746, 0.16089, -0.01337, 0.97577,
 11:55:16.904,ed:35:33:d3:6c:f8, 2015-01-01 00:08:08.505, 0.321, 0.024, 0.949, -0.183, -1.282, -0.122, 1.291, -18.594, 162.686, -8.020, -11.680, -32.673, 29.7, 0.14746, 0.16089, -0.01337, 0.97577,
 11:55:16.921,ed:40:fe:65:30:6c, 2015-01-01 00:08:13.340, 0.603, 0.084, 0.799, -0.061, 0, 0, 5.554, -37.029, -137.444, -18.260, -12.693, -4.847, 25.15, 0.3577, -0.27948, -0.15802, -0.87686,
 11:55:16.921,ed:40:fe:65:30:6c, 2015-01-01 00:08:13.340, 0.603, 0.087, 0.801, 0, -0.305, -0.244, 5.565, -37.029, -137.45, -18.260, -12.693, -4.847, 25.15, 0.3577, -0.27948, -0.15802, -0.87686,
 11:55:16.923,e3:ca:2d:fd:e0:8c, 2015-01-01 00:08:08.035, 1.019, -0.112, 0.086, 0.61, 1.16, -0.183, -49.005, -81.969, -147.706, -30.740, -10.673, -7.713, 24.49, 0.06998, 0.66052, -0.13431, 0.73529,
 11:55:16.923,e3:ca:2d:fd:e0:8c, 2015-01-01 00:08:08.035, 1.019, -0.115, 0.093, 0.793, 1.282, -0.305, -48.873, -81.953, -147.843, -30.740, -10.673, -7.713, 24.49, 0.06998, 0.66052, -0.13431, 0.73529,
 11:55:16.925,f6:90:cc:01:6d:25, 2015-01-01 00:08:08.430, 0.959, -0.03, 0.242, -0.427, 1.404, 0, -7.855, -75.712, -155.138, -30.753, -12.487, -4.220, 28.72, 0.12897, -0.60986, -0.07977, -0.7778,
 11:55:16.925,f6:90:cc:01:6d:25, 2015-01-01 00:08:08.430, 0.964, -0.033, 0.241, -0.793, 0.854, 0, -7.861, -75.696, -155.16, -30.753, -12.487, -4.220, 28.72, 0.12897, -0.60986, -0.07977, -0.7778,
 11:55:16.945,ed:40:fe:65:30:6c, 2015-01-01 00:08:13.340, 0.602, 0.087, 0.803, -0.183, -0.793, -0.305, 5.576, -37.035, -137.466, -18.053, -12.413, -5.253, 25.15, 0.3577, -0.27948, -0.15802, -0.87686,
 11:55:16.945,ed:40:fe:65:30:6c, 2015-01-01 00:08:13.340, 0.599, 0.086, 0.803, 0, -1.404, -0.305, 5.587, -37.057, -137.488, -18.053, -12.413, -5.253, 25.15, 0.3577, -0.27948, -0.15802, -0.87686,
 11:55:16.947,f6:90:cc:01:6d:25, 2015-01-01 00:08:08.430, 0.962, -0.033, 0.239, -0.916, 0.854, 0, -7.866, -75.679, -155.182, -30.753, -12.487, -4.220, 28.72, 0.12897, -0.60986, -0.07977, -0.7778,
 11:55:16.947,f6:90:cc:01:6d:25, 2015-01-01 00:08:08.430, 0.957, -0.033, 0.244, -0.671, 1.343, -0.305, -7.844, -75.652, -155.226, -30.753, -12.487, -4.220, 28.72, 0.12897, -0.60986, -0.07977, -0.7778,
 11:55:16.948,ed:35:33:d3:6c:f8, 2015-01-01 00:08:08.505, 0.319, 0.024, 0.953, -0.183, -1.526, -0.061, 1.291, -18.622, 162.702, -8.020, -11.680, -32.673, 29.7, 0.14746, 0.16089, -0.01337, 0.97577,
 11:55:16.948,ed:35:33:d3:6c:f8, 2015-01-01 00:08:08.505, 0.314, 0.018, 0.957, 0, -1.953, 0, 1.291, -18.66, 162.708, -8.020, -11.680, -32.673, 29.7, 0.14746, 0.16089, -0.01337, 0.97577,
 11:55:16.968,e3:ca:2d:fd:e0:8c, 2015-01-01 00:08:08.035, 1.011, -0.115, 0.097, 0.732, 2.38, -0.183, -48.697, -81.936, -148.019, -30.740, -10.673, -7.713, 24.49, 0.06998, 0.66052, -0.13431, 0.73529,
 11:55:16.968,e3:ca:2d:fd:e0:8c, 2015-01-01 00:08:08.035, 1.007, -0.115, 0.094, 0.366, 2.625, -0.183, -48.439, -81.903, -148.271, -30.740, -10.673, -7.713, 24.49, 0.06998, 0.66052, -0.13431, 0.73529,
 11:55:16.990,e3:ca:2d:fd:e0:8c, 2015-01-01 00:08:08.035, 1.009, -0.116, 0.09, 0.183, 1.77, -0.183, -48.197, -81.87, -148.519, -30.740, -10.673, -7.713, 24.49, 0.07037, 0.65964, -0.13464, 0.73599,
 11:55:16.990,e3:ca:2d:fd:e0:8c, 2015-01-01 00:08:08.035, 1.012, -0.116, 0.093, 0.183, 1.099, -0.244, -48.043, -81.854, -148.672, -30.740, -10.673, -7.713, 24.49, 0.07037, 0.65964, -0.13464, 0.73599,
 11:55:16.990,ed:40:fe:65:30:6c, 2015-01-01 00:08:13.340, 0.594, 0.085, 0.807, 0.488, -2.502, -0.671, 5.614, -37.095, -137.521, -18.053, -12.413, -5.253, 25.15, 0.3577, -0.27948, -0.15802, -0.87686,
 11:55:16.990,ed:40:fe:65:30:6c, 2015-01-01 00:08:13.340, 0.599, 0.084, 0.805, 0.305, -2.197, -0.854, 5.641, -37.134, -137.56, -18.053, -12.413, -5.253, 25.15, 0.3577, -0.27948, -0.15802, -0.87686,
 11:55:16.993,ed:35:33:d3:6c:f8, 2015-01-01 00:08:08.505, 0.316, 0.018, 0.951, 0.488, -2.625, -0.305, 1.302, -18.71, 162.691, -8.020, -11.680, -32.673, 29.7, 0.14746, 0.16089, -0.01337, 0.97577,
 11:55:16.993,ed:35:33:d3:6c:f8, 2015-01-01 00:08:08.505, 0.324, 0.021, 0.942, 0.549, -2.502, -0.671, 1.318, -18.759, 162.669, -8.020, -11.680, -32.673, 29.7, 0.14746, 0.16089, -0.01337, 0.97577,
 11:55:17.012,ed:40:fe:65:30:6c, 2015-01-01 00:08:13.340, 0.602, 0.087, 0.797, 0.122, -2.075, -0.793, 5.663, -37.167, -137.604, -18.053, -12.413, -5.253, 25.15, 0.35712, -0.27966, -0.15869, -0.87689,
 11:55:17.012,ed:40:fe:65:30:6c, 2015-01-01 00:08:13.340, 0.601, 0.089, 0.793, -0.183, -2.319, -0.671, 5.68, -37.2, -137.648, -18.053, -12.413, -5.253, 25.15, 0.35712, -0.27966, -0.15869, -0.87689,
 11:55:17.014,f6:90:cc:01:6d:25, 2015-01-01 00:08:08.430, 0.955, -0.035, 0.249, -0.732, 0.793, -0.244, -7.833, -75.635, -155.259, -30.753, -12.487, -4.220, 28.72, 0.12897, -0.60986, -0.07977, -0.7778,
 11:55:17.014,f6:90:cc:01:6d:25, 2015-01-01 00:08:08.430, 0.955, -0.036, 0.241, -1.465, 0.549, -0.305, -7.833, -75.63, -155.292, -30.753, -12.487, -4.220, 28.72, 0.12897, -0.60986, -0.07977, -0.7778,
 11:55:17.036,f6:90:cc:01:6d:25, 2015-01-01 00:08:08.430, 0.955, -0.035, 0.239, -1.648, 0.488, -0.183, -7.85, -75.619, -155.292, -31.140, -11.953, -3.267, 28.72, 0.12897, -0.60986, -0.07977, -0.7778,
 11:55:17.036,f6:90:cc:01:6d:25, 2015-01-01 00:08:08.430, 0.957, -0.036, 0.24, -1.282, 0.122, -0.183, -7.861, -75.619, -155.303, -31.140, -11.953, -3.267, 28.72, 0.12897, -0.60986, -0.07977, -0.7778,
 11:55:17.038,ed:35:33:d3:6c:f8, 2015-01-01 00:08:08.505, 0.325, 0.026, 0.943, 0.488, -2.563, -0.793, 1.335, -18.809, 162.636, -8.020, -11.680, -32.673, 29.7, 0.14746, 0.16089, -0.01337, 0.97577,
 11:55:17.038,ed:35:33:d3:6c:f8, 2015-01-01 00:08:08.505, 0.324, 0.025, 0.938, 0.122, -3.418, -1.038, 1.346, -18.875, 162.592, -8.020, -11.680, -32.673, 29.7, 0.14746, 0.16089, -0.01337, 0.97577,
 11:55:17.057,ed:40:fe:65:30:6c, 2015-01-01 00:08:13.340, 0.602, 0.086, 0.794, -0.549, -2.136, -0.549, 5.691, -37.238, -137.686, -18.053, -12.413, -5.253, 25.15, 0.35712, -0.27966, -0.15869, -0.87689,
 11:55:17.057,ed:40:fe:65:30:6c, 2015-01-01 00:08:13.340, 0.602, 0.085, 0.794, -0.549, -2.075, -0.366, 5.696, -37.271, -137.719, -18.053, -12.413, -5.253, 25.15, 0.35712, -0.27966, -0.15869, -0.87689,
 11:55:17.057,e3:ca:2d:fd:e0:8c, 2015-01-01 00:08:08.035, 1.011, -0.115, 0.095, 0.061, 1.526, -0.244, -47.933, -81.837, -148.777, -30.740, -10.673, -7.713, 24.49, 0.07037, 0.65964, -0.13464, 0.73599,
 11:55:17.057,e3:ca:2d:fd:e0:8c, 2015-01-01 00:08:08.035, 1.01, -0.116, 0.096, 0.244, 2.075, -0.305, -47.774, -81.815, -148.914, -30.740, -10.673, -7.713, 24.49, 0.07037, 0.65964, -0.13464, 0.73599,
 11:55:17.061,ed:35:33:d3:6c:f8, 2015-01-01 00:08:08.505, 0.326, 0.025, 0.938, -0.244, -3.662, -1.282, 1.351, -18.946, 162.559, -7.853, -11.280, -33.493, 29.7, 0.14746, 0.16089, -0.01337, 0.97577,
 11:55:17.061,ed:35:33:d3:6c:f8, 2015-01-01 00:08:08.505, 0.329, 0.025, 0.936, -0.549, -3.54, -0.732, 1.346, -19.012, 162.537, -7.853, -11.280, -33.493, 29.7, 0.14746, 0.16089, -0.01337, 0.97577,
 11:55:17.081,e3:ca:2d:fd:e0:8c, 2015-01-01 00:08:08.370, 1.009, -0.116, 0.096, 0.488, 2.014, -0.427, -47.565, -81.793, -149.095, -30.740, -10.673, -7.713, 24.49, 0.07037, 0.65964, -0.13464, 0.73599,
 11:55:17.081,e3:ca:2d:fd:e0:8c, 2015-01-01 00:08:08.370, 1.008, -0.116, 0.097, 0.549, 1.587, -0.549, -47.357, -81.771, -149.277, -30.740, -10.673, -7.713, 24.49, 0.07037, 0.65964, -0.13464, 0.73599,
 11:55:17.083,f6:90:cc:01:6d:25, 2015-01-01 00:08:08.430, 0.956, -0.038, 0.239, -1.282, 0.122, -0.183, -7.877, -75.619, -155.314, -31.140, -11.953, -3.267, 28.72, 0.12897, -0.60986, -0.07977, -0.7778,
 11:55:17.083,f6:90:cc:01:6d:25, 2015-01-01 00:08:08.430, 0.956, -0.037, 0.241, -1.16, 0.305, -0.366, -7.877, -75.613, -155.341, -31.140, -11.953, -3.267, 28.72, 0.12897, -0.60986, -0.07977, -0.7778,
 11:55:17.102,ed:40:fe:65:30:6c, 2015-01-01 00:08:13.695, 0.604, 0.085, 0.79, -0.671, -1.709, -0.122, 5.691, -37.304, -137.741, -18.053, -12.413, -5.253, 25.15, 0.35712, -0.27966, -0.15869, -0.87689,
 11:55:17.102,ed:40:fe:65:30:6c, 2015-01-01 00:08:13.695, 0.605, 0.086, 0.788, -1.099, -1.099, -0.183, 5.685, -37.321, -137.758, -18.053, -12.413, -5.253, 25.15, 0.35712, -0.27966, -0.15869, -0.87689,
 11:55:17.104,f6:90:cc:01:6d:25, 2015-01-01 00:08:08.430, 0.955, -0.037, 0.24, -0.61, 0.61, -0.427, -7.855, -75.602, -155.402, -31.140, -11.953, -3.267, 28.72, 0.12704, -0.60901, -0.07748, -0.77899,
 11:55:17.104,f6:90:cc:01:6d:25, 2015-01-01 00:08:08.430, 0.957, -0.036, 0.236, -0.061, 0.732, -0.427, -7.822, -75.591, -155.462, -31.140, -11.953, -3.267, 28.72, 0.12704, -0.60901, -0.07748, -0.77899,
 11:55:17.106,ed:35:33:d3:6c:f8, 2015-01-01 00:08:08.505, 0.333, 0.023, 0.933, -1.038, -3.723, -0.488, 1.329, -19.083, 162.537, -7.853, -11.280, -33.493, 29.7, 0.14746, 0.16089, -0.01337, 0.97577,
 11:55:17.106,ed:35:33:d3:6c:f8, 2015-01-01 00:08:08.505, 0.334, 0.02, 0.931, -1.282, -3.784, -0.977, 1.313, -19.16, 162.521, -7.853, -11.280, -33.493, 29.7, 0.14746, 0.16089, -0.01337, 0.97577,
 11:55:17.125,ed:40:fe:65:30:6c, 2015-01-01 00:08:13.695, 0.607, 0.085, 0.79, -1.404, -0.671, -0.427, 5.669, -37.332, -137.769, -18.053, -12.413, -5.253, 25.15, 0.35712, -0.27966, -0.15869, -0.87689,
 11:55:17.125,ed:40:fe:65:30:6c, 2015-01-01 00:08:13.695, 0.605, 0.086, 0.793, -1.343, -0.61, -0.427, 5.658, -37.337, -137.785, -18.053, -12.413, -5.253, 25.15, 0.35712, -0.27966, -0.15869, -0.87689,
 11:55:17.126,e3:ca:2d:fd:e0:8c, 2015-01-01 00:08:08.370, 1.009, -0.116, 0.095, 0.488, 1.282, -0.549, -47.186, -81.76, -149.42, -30.740, -10.673, -7.713, 24.49, 0.07037, 0.65964, -0.13464, 0.73599,
 11:55:17.126,e3:ca:2d:fd:e0:8c, 2015-01-01 00:08:08.370, 1.01, -0.115, 0.092, 0.488, 0.977, -0.549, -47.043, -81.749, -149.524, -30.740, -10.673, -7.713, 24.49, 0.07037, 0.65964, -0.13464, 0.73599,
 11:55:17.150,f6:90:cc:01:6d:25, 2015-01-01 00:08:08.430, 0.958, -0.035, 0.236, -0.122, 0.488, -0.366, -7.8, -75.586, -155.495, -31.140, -11.953, -3.267, 28.72, 0.12704, -0.60901, -0.07748, -0.77899,
 11:55:17.150,f6:90:cc:01:6d:25, 2015-01-01 00:08:08.430, 0.958, -0.035, 0.24, -0.244, 0.305, -0.366, -7.784, -75.58, -155.533, -31.140, -11.953, -3.267, 28.72, 0.12704, -0.60901, -0.07748, -0.77899,
 11:55:17.152,ed:35:33:d3:6c:f8, 2015-01-01 00:08:08.505, 0.336, 0.022, 0.937, -1.648, -2.563, -1.282, 1.291, -19.21, 162.493, -7.853, -11.280, -33.493, 29.7, 0.1478, 0.16589, -0.01395, 0.97485,
 11:55:17.152,ed:35:33:d3:6c:f8, 2015-01-01 00:08:08.505, 0.334, 0.023, 0.94, -1.343, -1.77, -1.099, 1.274, -19.243, 162.455, -7.853, -11.280, -33.493, 29.7, 0.1478, 0.16589, -0.01395, 0.97485,
 11:55:17.170,ed:40:fe:65:30:6c, 2015-01-01 00:08:13.695, 0.605, 0.086, 0.792, -1.038, -0.488, -0.366, 5.647, -37.348, -137.796, -18.053, -12.413, -5.253, 25.15, 0.35712, -0.27966, -0.15869, -0.87689,
 11:55:17.170,ed:40:fe:65:30:6c, 2015-01-01 00:08:13.695, 0.606, 0.086, 0.79, -1.038, 0, -0.244, 5.636, -37.343, -137.791, -18.053, -12.413, -5.253, 25.15, 0.35712, -0.27966, -0.15869, -0.87689,
 11:55:17.171,e3:ca:2d:fd:e0:8c, 2015-01-01 00:08:08.370, 1.013, -0.114, 0.094, 0.244, 0.488, -0.488, -46.95, -81.744, -149.579, -30.740, -10.673, -7.713, 24.49, 0.07037, 0.65964, -0.13464, 0.73599,
 11:55:17.171,e3:ca:2d:fd:e0:8c, 2015-01-01 00:08:08.370, 1.013, -0.114, 0.096, 0.122, 0.183, -0.549, -46.901, -81.744, -149.584, -30.740, -10.673, -7.713, 24.49, 0.07037, 0.65964, -0.13464, 0.73599,
 11:55:17.193,e3:ca:2d:fd:e0:8c, 2015-01-01 00:08:08.370, 1.011, -0.113, 0.1, 0.183, 0.244, -0.61, -46.868, -81.749, -149.584, -30.740, -10.673, -7.713, 24.49, 0.07037, 0.65964, -0.13464, 0.73599,
 11:55:17.193,e3:ca:2d:fd:e0:8c, 2015-01-01 00:08:08.370, 1.007, -0.112, 0.098, 0.244, 0.305, -0.549, -46.824, -81.749, -149.617, -30.740, -10.673, -7.713, 24.49, 0.07037, 0.65964, -0.13464, 0.73599,
 11:55:17.194,f6:90:cc:01:6d:25, 2015-01-01 00:08:08.810, 0.959, -0.035, 0.239, -0.061, 0.427, -0.427, -7.756, -75.58, -155.572, -31.140, -11.953, -3.267, 28.72, 0.12704, -0.60901, -0.07748, -0.77899,
 11:55:17.194,f6:90:cc:01:6d:25, 2015-01-01 00:08:08.810, 0.957, -0.033, 0.241, 0.488, 0.61, -0.427, -7.712, -75.569, -155.605, -31.140, -11.953, -3.267, 28.72, 0.12704, -0.60901, -0.07748, -0.77899,
 11:55:17.195,ed:35:33:d3:6c:f8, 2015-01-01 00:08:08.840, 0.338, 0.024, 0.938, -1.282, -1.038, -1.038, 1.258, -19.265, 162.416, -7.853, -11.280, -33.493, 29.7, 0.1478, 0.16589, -0.01395, 0.97485,
 11:55:17.195,ed:35:33:d3:6c:f8, 2015-01-01 00:08:08.840, 0.336, 0.024, 0.937, -1.16, -0.122, -0.916, 1.241, -19.27, 162.383, -7.853, -11.280, -33.493, 29.7, 0.1478, 0.16589, -0.01395, 0.97485,
 11:55:17.215,ed:40:fe:65:30:6c, 2015-01-01 00:08:13.695, 0.602, 0.087, 0.79, -1.221, 0.427, -0.305, 5.625, -37.337, -137.796, -18.053, -12.413, -5.253, 25.15, 0.35712, -0.27966, -0.15869, -0.87689,
 11:55:17.215,ed:40:fe:65:30:6c, 2015-01-01 00:08:13.695, 0.6, 0.09, 0.793, -1.465, 0.671, -0.549, 5.609, -37.321, -137.812, -18.053, -12.413, -5.253, 25.15, 0.35712, -0.27966, -0.15869, -0.87689,
 11:55:17.219,ed:35:33:d3:6c:f8, 2015-01-01 00:08:08.840, 0.329, 0.023, 0.933, -1.343, 0.916, -1.343, 1.225, -19.254, 162.356, -7.853, -11.280, -33.493, 29.7, 0.1478, 0.16589, -0.01395, 0.97485,
 11:55:17.219,ed:35:33:d3:6c:f8, 2015-01-01 00:08:08.840, 0.328, 0.028, 0.936, -0.916, 1.648, -1.16, 1.219, -19.226, 162.328, -7.853, -11.280, -33.493, 29.7, 0.1478, 0.16589, -0.01395, 0.97485,
 11:55:17.239,f6:90:cc:01:6d:25, 2015-01-01 00:08:08.810, 0.954, -0.03, 0.242, 1.038, 0.244, -0.366, -7.668, -75.569, -155.643, -31.140, -11.953, -3.267, 28.72, 0.12704, -0.60901, -0.07748, -0.77899,
 11:55:17.239,f6:90:cc:01:6d:25, 2015-01-01 00:08:08.810, 0.954, -0.031, 0.242, 1.038, 0, -0.244, -7.635, -75.569, -155.665, -31.140, -11.953, -3.267, 28.72, 0.12704, -0.60901, -0.07748, -0.77899,
 11:55:17.259,ed:40:fe:65:30:6c, 2015-01-01 00:08:13.695, 0.603, 0.093, 0.796, -1.16, 0.732, -0.366, 5.598, -37.304, -137.823, -18.053, -12.413, -5.253, 25.15, 0.35712, -0.27966, -0.15869, -0.87689,
 11:55:17.259,ed:40:fe:65:30:6c, 2015-01-01 00:08:13.695, 0.591, 0.092, 0.793, -0.977, 0.427, 0, 5.592, -37.288, -137.829, -18.053, -12.413, -5.253, 25.15, 0.35712, -0.27966, -0.15869, -0.87689,
 11:55:17.260,e3:ca:2d:fd:e0:8c, 2015-01-01 00:08:08.370, 1.007, -0.112, 0.098, 0.305, 0, -0.366, -46.791, -81.755, -149.672, -30.740, -10.673, -7.713, 24.49, 0.07037, 0.65964, -0.13464, 0.73599,
 11:55:17.260,e3:ca:2d:fd:e0:8c, 2015-01-01 00:08:08.370, 1.004, -0.113, 0.1, 0.427, -0.244, -0.366, -46.791, -81.76, -149.694, -30.740, -10.673, -7.713, 24.49, 0.07037, 0.65964, -0.13464, 0.73599,
 11:55:17.264,ed:35:33:d3:6c:f8, 2015-01-01 00:08:08.840, 0.327, 0.032, 0.939, 0, 1.343, -0.549, 1.225, -19.199, 162.312, -7.853, -11.280, -33.493, 29.7, 0.1478, 0.16589, -0.01395, 0.97485,
 11:55:17.264,ed:35:33:d3:6c:f8, 2015-01-01 00:08:08.840, 0.307, 0.023, 0.943, 0.854, -1.038, -0.854, 1.252, -19.221, 162.285, -7.853, -11.280, -33.493, 29.7, 0.1478, 0.16589, -0.01395, 0.97485,
 11:55:17.284,e3:ca:2d:fd:e0:8c, 2015-01-01 00:08:08.370, 1.001, -0.112, 0.102, 0.061, 0, -0.305, -46.802, -81.766, -149.689, -30.020, -10.967, -7.247, 24.49, 0.07037, 0.65964, -0.13464, 0.73599,
 11:55:17.284,e3:ca:2d:fd:e0:8c, 2015-01-01 00:08:08.370, 1.007, -0.111, 0.101, -0.183, -0.305, -0.244, -46.818, -81.766, -149.672, -30.020, -10.967, -7.247, 24.49, 0.07037, 0.65964, -0.13464, 0.73599,
 11:55:17.286,f6:90:cc:01:6d:25, 2015-01-01 00:08:08.810, 0.949, -0.032, 0.242, 0.732, -0.122, -0.122, -7.614, -75.575, -155.665, -31.140, -11.953, -3.267, 28.72, 0.12704, -0.60901, -0.07748, -0.77899,
 11:55:17.286,f6:90:cc:01:6d:25, 2015-01-01 00:08:08.810, 0.944, -0.031, 0.248, 0.244, 0, -0.061, -7.608, -75.575, -155.682, -31.140, -11.953, -3.267, 28.72, 0.12704, -0.60901, -0.07748, -0.77899,
 11:55:17.307,f6:90:cc:01:6d:25, 2015-01-01 00:08:08.810, 0.958, -0.032, 0.256, -0.122, -0.244, -0.061, -7.608, -75.58, -155.671, -31.140, -11.953, -3.267, 28.72, 0.12704, -0.60901, -0.07748, -0.77899,
 11:55:17.307,f6:90:cc:01:6d:25, 2015-01-01 00:08:08.810, 0.96, -0.03, 0.245, -0.244, -0.854, -0.183, -7.608, -75.591, -155.671, -31.140, -11.953, -3.267, 28.72, 0.12704, -0.60901, -0.07748, -0.77899,
 11:55:17.309,ed:35:33:d3:6c:f8, 2015-01-01 00:08:08.840, 0.327, 0.02, 0.955, 1.526, -2.075, -0.488, 1.291, -19.265, 162.279, -7.853, -11.280, -33.493, 29.7, 0.1478, 0.16589, -0.01395, 0.97485,
 11:55:17.309,ed:35:33:d3:6c:f8, 2015-01-01 00:08:08.840, 0.336, 0.022, 0.947, 1.831, -3.113, -0.244, 1.329, -19.325, 162.279, -7.853, -11.280, -33.493, 29.7, 0.1478, 0.16589, -0.01395, 0.97485,
 11:55:17.328,ed:40:fe:65:30:6c, 2015-01-01 00:08:13.695, 0.583, 0.086, 0.803, -0.549, 0, 0, 5.587, -37.282, -137.834, -18.087, -12.587, -4.753, 25.15, 0.35712, -0.27966, -0.15869, -0.87689,
 11:55:17.328,ed:40:fe:65:30:6c, 2015-01-01 00:08:13.695, 0.603, 0.084, 0.806, -0.183, -0.549, 0, 5.592, -37.288, -137.84, -18.087, -12.587, -4.753, 25.15, 0.35712, -0.27966, -0.15869, -0.87689,
 11:55:17.328,e3:ca:2d:fd:e0:8c, 2015-01-01 00:08:08.370, 1.014, -0.111, 0.1, -0.122, -1.587, -0.244, -46.923, -81.782, -149.557, -30.020, -10.967, -7.247, 24.49, 0.07037, 0.65964, -0.13464, 0.73599,
 11:55:17.328,e3:ca:2d:fd:e0:8c, 2015-01-01 00:08:08.370, 1.018, -0.112, 0.1, -0.427, -2.014, -0.183, -47.115, -81.804, -149.354, -30.020, -10.967, -7.247, 24.49, 0.07037, 0.65964, -0.13464, 0.73599,
 11:55:17.350,ed:40:fe:65:30:6c, 2015-01-01 00:08:13.695, 0.603, 0.087, 0.795, -0.183, -0.61, 0, 5.598, -37.293, -137.84, -18.087, -12.587, -4.753, 25.15, 0.35489, -0.28134, -0.15802, -0.87741,
 11:55:17.350,ed:40:fe:65:30:6c, 2015-01-01 00:08:13.695, 0.605, 0.091, 0.796, -0.427, -0.244, -0.061, 5.598, -37.293, -137.845, -18.087, -12.587, -4.753, 25.15, 0.35489, -0.28134, -0.15802, -0.87741,
 11:55:17.354,ed:35:33:d3:6c:f8, 2015-01-01 00:08:08.840, 0.34, 0.027, 0.937, 1.709, -4.15, -0.244, 1.368, -19.402, 162.268, -7.853, -11.280, -33.493, 29.7, 0.1478, 0.16589, -0.01395, 0.97485,
 11:55:17.354,ed:35:33:d3:6c:f8, 2015-01-01 00:08:08.840, 0.333, 0.032, 0.922, 1.099, -1.892, -0.793, 1.401, -19.44, 162.23, -7.853, -11.280, -33.493, 29.7, 0.1478, 0.16589, -0.01395, 0.97485,
 11:55:17.375,f6:90:cc:01:6d:25, 2015-01-01 00:08:08.810, 0.958, -0.027, 0.245, -0.488, -1.343, 0, -7.614, -75.613, -155.682, -31.140, -11.953, -3.267, 28.72, 0.12704, -0.60901, -0.07748, -0.77899,
 11:55:17.375,f6:90:cc:01:6d:25, 2015-01-01 00:08:08.810, 0.954, -0.03, 0.249, -0.61, -0.916, 0.122, -7.635, -75.635, -155.698, -31.140, -11.953, -3.267, 28.72, 0.12704, -0.60901, -0.07748, -0.77899,
 11:55:17.395,e3:ca:2d:fd:e0:8c, 2015-01-01 00:08:08.370, 1.013, -0.111, 0.102, -0.549, -1.343, -0.061, -47.302, -81.826, -149.194, -30.020, -10.967, -7.247, 24.49, 0.06931, 0.65866, -0.13272, 0.7373,
 11:55:17.395,e3:ca:2d:fd:e0:8c, 2015-01-01 00:08:08.370, 1.006, -0.112, 0.107, -0.427, -0.549, -0.061, -47.411, -81.837, -149.128, -30.020, -10.967, -7.247, 24.49, 0.06931, 0.65866, -0.13272, 0.7373,
 11:55:17.396,ed:40:fe:65:30:6c, 2015-01-01 00:08:13.695, 0.601, 0.093, 0.792, -0.61, 0.61, -0.244, 5.598, -37.271, -137.845, -18.087, -12.587, -4.753, 25.15, 0.35489, -0.28134, -0.15802, -0.87741,
 11:55:17.396,ed:40:fe:65:30:6c, 2015-01-01 00:08:13.695, 0.603, 0.09, 0.793, -0.488, 1.099, -0.244, 5.598, -37.244, -137.84, -18.087, -12.587, -4.753, 25.15, 0.35489, -0.28134, -0.15802, -0.87741,
 11:55:17.398,f6:90:cc:01:6d:25, 2015-01-01 00:08:08.810, 0.954, -0.033, 0.244, -0.549, -0.305, 0.183, -7.657, -75.646, -155.709, -31.200, -11.973, -4.560, 28.72, 0.12704, -0.60901, -0.07748, -0.77899,
 11:55:17.398,f6:90:cc:01:6d:25, 2015-01-01 00:08:08.810, 0.956, -0.034, 0.24, -0.488, 0, 0.183, -7.679, -75.646, -155.72, -31.200, -11.973, -4.560, 28.72, 0.12704, -0.60901, -0.07748, -0.77899,
 11:55:17.398,ed:35:33:d3:6c:f8, 2015-01-01 00:08:08.840, 0.335, 0.032, 0.921, 0.061, 3.357, -0.671, 1.406, -19.374, 162.202, -8.247, -11.287, -33.967, 29.7, 0.1478, 0.16589, -0.01395, 0.97485,
 11:55:17.398,ed:35:33:d3:6c:f8, 2015-01-01 00:08:08.840, 0.331, 0.034, 0.937, 0.244, 4.028, -0.183, 1.417, -19.292, 162.191, -8.247, -11.287, -33.967, 29.7, 0.1478, 0.16589, -0.01395, 0.97485,
 11:55:17.417,ed:40:fe:65:30:6c, 2015-01-01 00:08:14.030, 0.6, 0.089, 0.791, -0.488, 1.221, 0, 5.598, -37.216, -137.829, -18.087, -12.587, -4.753, 25.15, 0.35489, -0.28134, -0.15802, -0.87741,
 11:55:17.417,ed:40:fe:65:30:6c, 2015-01-01 00:08:14.030, 0.6, 0.087, 0.792, -0.671, 0.916, 0.244, 5.587, -37.194, -137.812, -18.087, -12.587, -4.753, 25.15, 0.35489, -0.28134, -0.15802, -0.87741,
 11:55:17.419,e3:ca:2d:fd:e0:8c, 2015-01-01 00:08:08.725, 1.007, -0.113, 0.104, -0.305, -0.183, -0.061, -47.461, -81.837, -149.117, -30.020, -10.967, -7.247, 24.49, 0.06931, 0.65866, -0.13272, 0.7373,
 11:55:17.419,e3:ca:2d:fd:e0:8c, 2015-01-01 00:08:08.725, 1.011, -0.115, 0.099, -0.122, 0.122, 0, -47.472, -81.837, -149.128, -30.020, -10.967, -7.247, 24.49, 0.06931, 0.65866, -0.13272, 0.7373,
 11:55:17.421,ed:35:33:d3:6c:f8, 2015-01-01 00:08:08.840, 0.33, 0.03, 0.936, 0, 3.601, 0.305, 1.417, -19.226, 162.191, -8.247, -11.287, -33.967, 29.7, 0.15051, 0.16672, -0.01373, 0.9743,
 11:55:17.421,ed:35:33:d3:6c:f8, 2015-01-01 00:08:08.840, 0.329, 0.026, 0.936, -0.122, 3.418, 0.366, 1.417, -19.16, 162.191, -8.247, -11.287, -33.967, 29.7, 0.15051, 0.16672, -0.01373, 0.9743,
 11:55:17.441,e3:ca:2d:fd:e0:8c, 2015-01-01 00:08:08.725, 1.014, -0.114, 0.093, -0.183, 0.244, 0, -47.466, -81.826, -149.15, -30.020, -10.967, -7.247, 24.49, 0.06931, 0.65866, -0.13272, 0.7373,
 11:55:17.441,e3:ca:2d:fd:e0:8c, 2015-01-01 00:08:08.725, 1.014, -0.116, 0.089, -0.244, -0.244, 0, -47.483, -81.826, -149.128, -30.020, -10.967, -7.247, 24.49, 0.06931, 0.65866, -0.13272, 0.7373,
 11:55:17.443,f6:90:cc:01:6d:25, 2015-01-01 00:08:08.810, 0.959, -0.033, 0.237, -0.366, 0.122, 0.183, -7.701, -75.646, -155.748, -31.200, -11.973, -4.560, 28.72, 0.12704, -0.60901, -0.07748, -0.77899,
 11:55:17.443,f6:90:cc:01:6d:25, 2015-01-01 00:08:08.810, 0.96, -0.035, 0.242, -0.183, -0.305, 0.244, -7.723, -75.646, -155.759, -31.200, -11.973, -4.560, 28.72, 0.12704, -0.60901, -0.07748, -0.77899,
 11:55:17.462,ed:40:fe:65:30:6c, 2015-01-01 00:08:14.030, 0.603, 0.085, 0.798, -0.793, 0.854, 0.183, 5.581, -37.178, -137.796, -18.087, -12.587, -4.753, 25.15, 0.35489, -0.28134, -0.15802, -0.87741,
 11:55:17.462,ed:40:fe:65:30:6c, 2015-01-01 00:08:14.030, 0.602, 0.085, 0.8, -0.671, 0.61, 0.183, 5.57, -37.161, -137.791, -18.087, -12.587, -4.753, 25.15, 0.35489, -0.28134, -0.15802, -0.87741,
 11:55:17.464,f6:90:cc:01:6d:25, 2015-01-01 00:08:08.810, 0.958, -0.037, 0.24, -0.244, -0.61, 0.183, -7.745, -75.652, -155.737, -31.200, -11.973, -4.560, 28.72, 0.12506, -0.60934, -0.07642, -0.77917,
 11:55:17.464,f6:90:cc:01:6d:25, 2015-01-01 00:08:08.810, 0.956, -0.037, 0.239, -0.488, -0.671, 0.122, -7.773, -75.663, -155.693, -31.200, -11.973, -4.560, 28.72, 0.12506, -0.60934, -0.07642, -0.77917,
 11:55:17.466,ed:35:33:d3:6c:f8, 2015-01-01 00:08:08.840, 0.329, 0.023, 0.943, -0.061, 3.235, 0.366, 1.417, -19.1, 162.191, -8.247, -11.287, -33.967, 29.7, 0.15051, 0.16672, -0.01373, 0.9743,
 11:55:17.466,ed:35:33:d3:6c:f8, 2015-01-01 00:08:08.840, 0.326, 0.023, 0.946, 0.183, 3.235, 0.366, 1.417, -19.039, 162.202, -8.247, -11.287, -33.967, 29.7, 0.15051, 0.16672, -0.01373, 0.9743,
 11:55:17.485,e3:ca:2d:fd:e0:8c, 2015-01-01 00:08:08.725, 1.012, -0.117, 0.09, -0.244, -0.732, 0, -47.565, -81.826, -149.052, -30.020, -10.967, -7.247, 24.49, 0.06931, 0.65866, -0.13272, 0.7373,
 11:55:17.485,e3:ca:2d:fd:e0:8c, 2015-01-01 00:08:08.725, 1.011, -0.117, 0.092, -0.305, -0.916, -0.061, -47.681, -81.837, -148.942, -30.020, -10.967, -7.247, 24.49, 0.06931, 0.65866, -0.13272, 0.7373,
 11:55:17.508,ed:40:fe:65:30:6c, 2015-01-01 00:08:14.030, 0.598, 0.082, 0.803, -0.549, 0.488, 0.244, 5.565, -37.15, -137.78, -18.087, -12.587, -4.753, 25.15, 0.35489, -0.28134, -0.15802, -0.87741,
 11:55:17.508,ed:40:fe:65:30:6c, 2015-01-01 00:08:14.030, 0.596, 0.08, 0.801, -0.61, 0.366, 0.122, 5.554, -37.139, -137.769, -18.087, -12.587, -4.753, 25.15, 0.35489, -0.28134, -0.15802, -0.87741,
 11:55:17.510,f6:90:cc:01:6d:25, 2015-01-01 00:08:08.810, 0.958, -0.036, 0.242, -0.427, -0.854, 0, -7.8, -75.674, -155.649, -31.200, -11.973, -4.560, 28.72, 0.12506, -0.60934, -0.07642, -0.77917,
 11:55:17.510,f6:90:cc:01:6d:25, 2015-01-01 00:08:08.810, 0.958, -0.036, 0.238, -0.549, -0.732, 0, -7.822, -75.69, -155.638, -31.200, -11.973, -4.560, 28.72, 0.12506, -0.60934, -0.07642, -0.77917,
 11:55:17.512,ed:35:33:d3:6c:f8, 2015-01-01 00:08:09.130, 0.318, 0.02, 0.947, 0.244, 1.831, 0.427, 1.423, -19.006, 162.224, -8.247, -11.287, -33.967, 29.7, 0.15051, 0.16672, -0.01373, 0.9743,
 11:55:17.512,ed:35:33:d3:6c:f8, 2015-01-01 00:08:09.130, 0.323, 0.019, 0.948, -0.183, 0.732, 0.366, 1.417, -18.995, 162.241, -8.247, -11.287, -33.967, 29.7, 0.15051, 0.16672, -0.01373, 0.9743,
 11:55:17.530,ed:40:fe:65:30:6c, 2015-01-01 00:08:14.030, 0.601, 0.084, 0.801, -0.671, -0.061, 0.061, 5.548, -37.134, -137.763, -18.087, -12.587, -4.753, 25.15, 0.35489, -0.28134, -0.15802, -0.87741,
 11:55:17.530,ed:40:fe:65:30:6c, 2015-01-01 00:08:14.030, 0.6, 0.088, 0.797, -0.61, -0.427, 0.244, 5.537, -37.139, -137.758, -18.087, -12.587, -4.753, 25.15, 0.35489, -0.28134, -0.15802, -0.87741,
 11:55:17.532,e3:ca:2d:fd:e0:8c, 2015-01-01 00:08:08.725, 1.012, -0.116, 0.09, -0.671, -0.732, -0.122, -47.796, -81.848, -148.832, -30.020, -10.967, -7.247, 24.49, 0.06931, 0.65866, -0.13272, 0.7373,
 11:55:17.532,e3:ca:2d:fd:e0:8c, 2015-01-01 00:08:08.725, 1.013, -0.116, 0.091, -0.916, -1.099, -0.244, -47.922, -81.859, -148.711, -30.020, -10.967, -7.247, 24.49, 0.06931, 0.65866, -0.13272, 0.7373,
 11:55:17.554,f6:90:cc:01:6d:25, 2015-01-01 00:08:09.170, 0.957, -0.035, 0.239, -0.61, -0.671, 0, -7.844, -75.707, -155.632, -31.200, -11.973, -4.560, 28.72, 0.12506, -0.60934, -0.07642, -0.77917,
 11:55:17.554,f6:90:cc:01:6d:25, 2015-01-01 00:08:09.170, 0.956, -0.035, 0.239, -0.427, -0.488, 0, -7.866, -75.718, -155.621, -31.200, -11.973, -4.560, 28.72, 0.12506, -0.60934, -0.07642, -0.77917,
 11:55:17.554,e3:ca:2d:fd:e0:8c, 2015-01-01 00:08:08.725, 1.012, -0.115, 0.093, -0.732, -1.038, -0.305, -48.06, -81.876, -148.59, -30.020, -10.967, -7.247, 24.49, 0.06931, 0.65866, -0.13272, 0.7373,
 11:55:17.554,e3:ca:2d:fd:e0:8c, 2015-01-01 00:08:08.725, 1.009, -0.115, 0.095, -0.366, -0.549, -0.366, -48.153, -81.887, -148.491, -30.020, -10.967, -7.247, 24.49, 0.06931, 0.65866, -0.13272, 0.7373,
 11:55:17.555,ed:35:33:d3:6c:f8, 2015-01-01 00:08:09.130, 0.324, 0.027, 0.942, -0.549, 0.244, 0.366, 1.401, -18.99, 162.252, -8.247, -11.287, -33.967, 29.7, 0.15051, 0.16672, -0.01373, 0.9743,
 11:55:17.555,ed:35:33:d3:6c:f8, 2015-01-01 00:08:09.130, 0.326, 0.032, 0.937, -0.732, 0.061, 0.793, 1.384, -18.995, 162.268, -8.247, -11.287, -33.967, 29.7, 0.15051, 0.16672, -0.01373, 0.9743,
 11:55:17.574,ed:40:fe:65:30:6c, 2015-01-01 00:08:14.030, 0.6, 0.089, 0.796, -0.671, -0.305, 0.549, 5.526, -37.139, -137.73, -18.087, -12.587, -4.753, 25.15, 0.35489, -0.28134, -0.15802, -0.87741,
 11:55:17.574,ed:40:fe:65:30:6c, 2015-01-01 00:08:14.030, 0.601, 0.087, 0.793, -0.793, -0.183, 0.793, 5.504, -37.145, -137.714, -18.087, -12.587, -4.753, 25.15, 0.35489, -0.28134, -0.15802, -0.87741,
 11:55:17.598,e3:ca:2d:fd:e0:8c, 2015-01-01 00:08:08.725, 1.009, -0.116, 0.096, 0, -0.305, -0.366, -48.197, -81.892, -148.453, -30.020, -10.967, -7.247, 24.49, 0.06931, 0.65866, -0.13272, 0.7373,
 11:55:17.598,e3:ca:2d:fd:e0:8c, 2015-01-01 00:08:08.725, 1.012, -0.115, 0.095, 0.061, -0.427, -0.305, -48.235, -81.903, -148.403, -30.020, -10.967, -7.247, 24.49, 0.06931, 0.65866, -0.13272, 0.7373,
 11:55:17.599,f6:90:cc:01:6d:25, 2015-01-01 00:08:09.170, 0.957, -0.034, 0.239, -0.183, -0.366, 0, -7.883, -75.729, -155.61, -31.200, -11.973, -4.560, 28.72, 0.12506, -0.60934, -0.07642, -0.77917,
 11:55:17.599,f6:90:cc:01:6d:25, 2015-01-01 00:08:09.170, 0.957, -0.035, 0.24, -0.122, -0.244, 0.061, -7.899, -75.734, -155.616, -31.200, -11.973, -4.560, 28.72, 0.12506, -0.60934, -0.07642, -0.77917,
 11:55:17.601,ed:35:33:d3:6c:f8, 2015-01-01 00:08:09.130, 0.328, 0.028, 0.938, -1.221, 0.061, 0.854, 1.357, -18.995, 162.274, -8.247, -11.287, -33.967, 29.7, 0.15051, 0.16672, -0.01373, 0.9743,
 11:55:17.601,ed:35:33:d3:6c:f8, 2015-01-01 00:08:09.130, 0.328, 0.024, 0.939, -1.099, -0.061, 0.732, 1.335, -18.995, 162.279, -8.247, -11.287, -33.967, 29.7, 0.15051, 0.16672, -0.01373, 0.9743,
 11:55:17.620,ed:40:fe:65:30:6c, 2015-01-01 00:08:14.030, 0.6, 0.085, 0.796, -0.916, -0.305, 0.671, 5.488, -37.145, -137.708, -18.087, -12.587, -4.753, 25.15, 0.35489, -0.28134, -0.15802, -0.87741,
 11:55:17.620,ed:40:fe:65:30:6c, 2015-01-01 00:08:14.030, 0.603, 0.083, 0.798, -0.916, -0.305, 0.61, 5.466, -37.15, -137.697, -18.087, -12.587, -4.753, 25.15, 0.35489, -0.28134, -0.15802, -0.87741,
 11:55:17.623,ed:35:33:d3:6c:f8, 2015-01-01 00:08:09.130, 0.33, 0.021, 0.94, -0.427, -0.244, 0.427, 1.324, -19.006, 162.268, -8.247, -11.287, -33.967, 29.7, 0.15051, 0.16672, -0.01373, 0.9743,
 11:55:17.623,ed:35:33:d3:6c:f8, 2015-01-01 00:08:09.130, 0.324, 0.024, 0.939, -0.732, 0.122, 0.488, 1.307, -19.006, 162.274, -8.247, -11.287, -33.967, 29.7, 0.15051, 0.16672, -0.01373, 0.9743,
 11:55:17.644,f6:90:cc:01:6d:25, 2015-01-01 00:08:09.170, 0.959, -0.035, 0.241, -0.061, -0.366, 0.061, -7.91, -75.74, -155.616, -31.200, -11.973, -4.560, 28.72, 0.12506, -0.60934, -0.07642, -0.77917,
 11:55:17.644,f6:90:cc:01:6d:25, 2015-01-01 00:08:09.170, 0.96, -0.035, 0.246, 0.183, -0.427, 0.061, -7.927, -75.751, -155.605, -31.200, -11.973, -4.560, 28.72, 0.12506, -0.60934, -0.07642, -0.77917,
 11:55:17.665,e3:ca:2d:fd:e0:8c, 2015-01-01 00:08:08.725, 1.015, -0.115, 0.096, 0.183, -0.671, -0.305, -48.29, -81.909, -148.348, -30.340, -10.793, -6.740, 24.49, 0.06931, 0.65866, -0.13272, 0.7373,
 11:55:17.665,e3:ca:2d:fd:e0:8c, 2015-01-01 00:08:08.725, 1.013, -0.114, 0.101, 0.305, -0.244, -0.244, -48.334, -81.914, -148.293, -30.340, -10.793, -6.740, 24.49, 0.06931, 0.65866, -0.13272, 0.7373,
 11:55:17.666,f6:90:cc:01:6d:25, 2015-01-01 00:08:09.170, 0.958, -0.034, 0.238, 0.488, 0.183, 0.061, -7.932, -75.751, -155.588, -31.200, -11.973, -4.560, 28.72, 0.12506, -0.60934, -0.07642, -0.77917,
 11:55:17.666,f6:90:cc:01:6d:25, 2015-01-01 00:08:09.170, 0.957, -0.033, 0.237, 0.427, 0.122, 0.061, -7.927, -75.751, -155.572, -31.200, -11.973, -4.560, 28.72, 0.12506, -0.60934, -0.07642, -0.77917,
 11:55:17.668,ed:35:33:d3:6c:f8, 2015-01-01 00:08:09.130, 0.333, 0.027, 0.939, -0.793, 0, 0.854, 1.291, -19.006, 162.29, -8.247, -11.287, -33.967, 29.7, 0.15051, 0.16672, -0.01373, 0.9743,
 11:55:17.668,ed:35:33:d3:6c:f8, 2015-01-01 00:08:09.130, 0.33, 0.026, 0.936, -0.183, 0.305, 1.221, 1.28, -19.006, 162.301, -8.247, -11.287, -33.967, 29.7, 0.15051, 0.16672, -0.01373, 0.9743,
 11:55:17.688,e3:ca:2d:fd:e0:8c, 2015-01-01 00:08:08.725, 1.012, -0.114, 0.1, 0.244, 0.244, -0.183, -48.334, -81.914, -148.299, -30.340, -10.793, -6.740, 24.49, 0.06995, 0.65973, -0.13403, 0.73605,
 11:55:17.688,e3:ca:2d:fd:e0:8c, 2015-01-01 00:08:08.725, 1.009, -0.113, 0.093, 0.366, 0.793, -0.183, -48.274, -81.909, -148.354, -30.340, -10.793, -6.740, 24.49, 0.06995, 0.65973, -0.13403, 0.73605,
 11:55:17.710,ed:40:fe:65:30:6c, 2015-01-01 00:08:14.030, 0.601, 0.085, 0.794, -0.916, -0.244, 0.671, 5.449, -37.15, -137.681, -18.087, -12.633, -5.027, 25.15, 0.35489, -0.28134, -0.15802, -0.87741,
 11:55:17.710,ed:40:fe:65:30:6c, 2015-01-01 00:08:14.030, 0.606, 0.086, 0.793, -0.366, 0.183, 0.854, 5.438, -37.145, -137.664, -18.087, -12.633, -5.027, 25.15, 0.35489, -0.28134, -0.15802, -0.87741,
 11:55:17.713,ed:35:33:d3:6c:f8, 2015-01-01 00:08:09.130, 0.325, 0.021, 0.935, 0.244, 0.793, 1.465, 1.28, -18.99, 162.318, -8.140, -11.640, -33.927, 29.7, 0.15051, 0.16672, -0.01373, 0.9743,
 11:55:17.713,ed:35:33:d3:6c:f8, 2015-01-01 00:08:09.130, 0.32, 0.024, 0.948, 0, 1.221, 0.427, 1.274, -18.973, 162.323, -8.140, -11.640, -33.927, 29.7, 0.15051, 0.16672, -0.01373, 0.9743,
 11:55:17.733,ed:40:fe:65:30:6c, 2015-01-01 00:08:14.030, 0.6, 0.084, 0.793, 0.183, 0.427, 0.916, 5.433, -37.134, -137.648, -18.087, -12.633, -5.027, 25.15, 0.35611, -0.28033, -0.1568, -0.87744,
 11:55:17.733,ed:40:fe:65:30:6c, 2015-01-01 00:08:14.030, 0.599, 0.083, 0.799, 0.061, 0.671, 0.732, 5.433, -37.123, -137.642, -18.087, -12.633, -5.027, 25.15, 0.35611, -0.28033, -0.1568, -0.87744,
 11:55:17.735,f6:90:cc:01:6d:25, 2015-01-01 00:08:09.170, 0.956, -0.032, 0.244, 0.122, 0, 0.061, -7.932, -75.751, -155.555, -31.200, -11.973, -4.560, 28.72, 0.12506, -0.60934, -0.07642, -0.77917,
 11:55:17.735,f6:90:cc:01:6d:25, 2015-01-01 00:08:09.170, 0.955, -0.031, 0.243, 0.061, -0.061, 0, -7.932, -75.751, -155.55, -31.200, -11.973, -4.560, 28.72, 0.12506, -0.60934, -0.07642, -0.77917,
 11:55:17.735,e3:ca:2d:fd:e0:8c, 2015-01-01 00:08:08.725, 1.01, -0.112, 0.092, 0.366, 0.244, -0.183, -48.219, -81.898, -148.403, -30.340, -10.793, -6.740, 24.49, 0.06995, 0.65973, -0.13403, 0.73605,
 11:55:17.735,e3:ca:2d:fd:e0:8c, 2015-01-01 00:08:08.725, 1.01, -0.111, 0.094, 0.305, -0.366, -0.183, -48.224, -81.898, -148.387, -30.340, -10.793, -6.740, 24.49, 0.06995, 0.65973, -0.13403, 0.73605,
 11:55:17.755,ed:40:fe:65:30:6c, 2015-01-01 00:08:14.030, 0.598, 0.087, 0.801, -0.305, 0.488, 0.488, 5.427, -37.112, -137.648, -18.087, -12.633, -5.027, 25.15, 0.35611, -0.28033, -0.1568, -0.87744,
 11:55:17.755,ed:40:fe:65:30:6c, 2015-01-01 00:08:14.030, 0.594, 0.087, 0.799, -0.488, 0.183, 0.366, 5.422, -37.106, -137.648, -18.087, -12.633, -5.027, 25.15, 0.35611, -0.28033, -0.1568, -0.87744,
 11:55:17.757,f6:90:cc:01:6d:25, 2015-01-01 00:08:09.170, 0.957, -0.032, 0.24, -0.061, 0.061, 0, -7.932, -75.751, -155.555, -30.947, -12.000, -3.767, 28.72, 0.12506, -0.60934, -0.07642, -0.77917,
 11:55:17.757,f6:90:cc:01:6d:25, 2015-01-01 00:08:09.170, 0.959, -0.033, 0.238, -0.183, -0.122, 0, -7.932, -75.751, -155.555, -30.947, -12.000, -3.767, 28.72, 0.12506, -0.60934, -0.07642, -0.77917,
 11:55:17.757,e3:ca:2d:fd:e0:8c, 2015-01-01 00:08:09.060, 1.013, -0.112, 0.096, 0.122, -0.244, -0.122, -48.257, -81.903, -148.332, -30.340, -10.793, -6.740, 24.49, 0.06995, 0.65973, -0.13403, 0.73605,
 11:55:17.757,e3:ca:2d:fd:e0:8c, 2015-01-01 00:08:09.060, 1.014, -0.114, 0.091, 0.122, 0.183, -0.183, -48.268, -81.903, -148.321, -30.340, -10.793, -6.740, 24.49, 0.06995, 0.65973, -0.13403, 0.73605,
 11:55:17.759,ed:35:33:d3:6c:f8, 2015-01-01 00:08:09.130, 0.322, 0.023, 0.94, 0.366, 0.732, 0.183, 1.274, -18.951, 162.312, -8.140, -11.640, -33.927, 29.7, 0.14978, 0.16437, -0.01443, 0.97479,
 11:55:17.759,ed:35:33:d3:6c:f8, 2015-01-01 00:08:09.130, 0.327, 0.022, 0.938, 0.244, 0.977, 0, 1.285, -18.94, 162.301, -8.140, -11.640, -33.927, 29.7, 0.14978, 0.16437, -0.01443, 0.97479,
 11:55:17.801,ed:40:fe:65:30:6c, 2015-01-01 00:08:14.030, 0.6, 0.083, 0.798, -0.427, 0.244, 0.183, 5.416, -37.095, -137.653, -18.087, -12.633, -5.027, 25.15, 0.35611, -0.28033, -0.1568, -0.87744,
 11:55:17.801,ed:40:fe:65:30:6c, 2015-01-01 00:08:14.030, 0.602, 0.083, 0.798, -0.305, 0.305, 0.061, 5.416, -37.084, -137.653, -18.087, -12.633, -5.027, 25.15, 0.35611, -0.28033, -0.1568, -0.87744,
 11:55:17.802,f6:90:cc:01:6d:25, 2015-01-01 00:08:09.170, 0.958, -0.033, 0.24, -0.061, -0.183, 0, -7.938, -75.751, -155.539, -30.947, -12.000, -3.767, 28.72, 0.12506, -0.60934, -0.07642, -0.77917,
 11:55:17.802,f6:90:cc:01:6d:25, 2015-01-01 00:08:09.170, 0.956, -0.035, 0.24, 0, -0.305, 0, -7.938, -75.756, -155.522, -30.947, -12.000, -3.767, 28.72, 0.12506, -0.60934, -0.07642, -0.77917,
 11:55:17.802,e3:ca:2d:fd:e0:8c, 2015-01-01 00:08:09.060, 1.012, -0.113, 0.088, 0.244, -0.183, -0.122, -48.274, -81.903, -148.321, -30.340, -10.793, -6.740, 24.49, 0.06995, 0.65973, -0.13403, 0.73605,
 11:55:17.802,e3:ca:2d:fd:e0:8c, 2015-01-01 00:08:09.060, 1.009, -0.115, 0.091, 0.427, -0.427, 0, -48.318, -81.903, -148.277, -30.340, -10.793, -6.740, 24.49, 0.06995, 0.65973, -0.13403, 0.73605,
 11:55:17.803,ed:35:33:d3:6c:f8, 2015-01-01 00:08:09.440, 0.324, 0.023, 0.944, 0.488, 0.977, 0.244, 1.291, -18.924, 162.296, -8.140, -11.640, -33.927, 29.7, 0.14978, 0.16437, -0.01443, 0.97479,
 11:55:17.803,ed:35:33:d3:6c:f8, 2015-01-01 00:08:09.440, 0.324, 0.023, 0.939, 0.916, 0.793, 0.488, 1.302, -18.907, 162.274, -8.140, -11.640, -33.927, 29.7, 0.14978, 0.16437, -0.01443, 0.97479,
 11:55:17.822,ed:40:fe:65:30:6c, 2015-01-01 00:08:14.410, 0.599, 0.084, 0.801, 0, 0.061, 0.061, 5.422, -37.079, -137.664, -18.087, -12.633, -5.027, 25.15, 0.35611, -0.28033, -0.1568, -0.87744,
 11:55:17.822,ed:40:fe:65:30:6c, 2015-01-01 00:08:14.410, 0.599, 0.083, 0.796, 0.488, 0.061, 0.122, 5.438, -37.073, -137.664, -18.087, -12.633, -5.027, 25.15, 0.35611, -0.28033, -0.1568, -0.87744,
 11:55:17.825,ed:35:33:d3:6c:f8, 2015-01-01 00:08:09.440, 0.322, 0.021, 0.94, 1.16, 0.732, 0.61, 1.318, -18.891, 162.274, -8.140, -11.640, -33.927, 29.7, 0.14978, 0.16437, -0.01443, 0.97479,
 11:55:17.825,ed:35:33:d3:6c:f8, 2015-01-01 00:08:09.440, 0.322, 0.023, 0.941, 1.709, -0.061, 0.977, 1.34, -18.885, 162.279, -8.140, -11.640, -33.927, 29.7, 0.14978, 0.16437, -0.01443, 0.97479,
 11:55:17.847,e3:ca:2d:fd:e0:8c, 2015-01-01 00:08:09.060, 1.008, -0.115, 0.092, 0.732, -0.427, -0.061, -48.378, -81.909, -148.2, -30.340, -10.793, -6.740, 24.49, 0.06995, 0.65973, -0.13403, 0.73605,
 11:55:17.848,e3:ca:2d:fd:e0:8c, 2015-01-01 00:08:09.060, 1.011, -0.114, 0.09, 1.16, -0.305, -0.183, -48.417, -81.914, -148.145, -30.340, -10.793, -6.740, 24.49, 0.06995, 0.65973, -0.13403, 0.73605,
 11:55:17.867,ed:40:fe:65:30:6c, 2015-01-01 00:08:14.410, 0.595, 0.081, 0.797, 1.038, 0, 0.183, 5.466, -37.073, -137.659, -18.087, -12.633, -5.027, 25.15, 0.35611, -0.28033, -0.1568, -0.87744,
 11:55:17.867,ed:40:fe:65:30:6c, 2015-01-01 00:08:14.410, 0.597, 0.083, 0.798, 1.404, -0.122, 0.305, 5.493, -37.073, -137.659, -18.087, -12.633, -5.027, 25.15, 0.35611, -0.28033, -0.1568, -0.87744,
 11:55:17.871,ed:35:33:d3:6c:f8, 2015-01-01 00:08:09.440, 0.324, 0.024, 0.938, 1.587, 0.549, 0.977, 1.368, -18.885, 162.29, -8.140, -11.640, -33.927, 29.7, 0.14978, 0.16437, -0.01443, 0.97479,
 11:55:17.871,ed:35:33:d3:6c:f8, 2015-01-01 00:08:09.440, 0.325, 0.027, 0.944, 1.282, 0.244, 0.671, 1.395, -18.88, 162.301, -8.140, -11.640, -33.927, 29.7, 0.14978, 0.16437, -0.01443, 0.97479,
 11:55:17.889,ed:40:fe:65:30:6c, 2015-01-01 00:08:14.410, 0.6, 0.085, 0.797, 1.221, 0, 0.366, 5.521, -37.068, -137.664, -18.087, -12.633, -5.027, 25.15, 0.35611, -0.28033, -0.1568, -0.87744,
 11:55:17.889,ed:40:fe:65:30:6c, 2015-01-01 00:08:14.410, 0.603, 0.089, 0.799, 1.099, 0, 0.305, 5.543, -37.062, -137.675, -18.087, -12.633, -5.027, 25.15, 0.35611, -0.28033, -0.1568, -0.87744,
 11:55:17.890,e3:ca:2d:fd:e0:8c, 2015-01-01 00:08:09.060, 1.013, -0.113, 0.092, 2.014, -0.122, -0.305, -48.417, -81.92, -148.123, -30.340, -10.793, -6.740, 24.49, 0.06995, 0.65973, -0.13403, 0.73605,
 11:55:17.890,e3:ca:2d:fd:e0:8c, 2015-01-01 00:08:09.060, 1.013, -0.116, 0.096, 2.258, 0.061, -0.305, -48.378, -81.92, -148.118, -30.340, -10.793, -6.740, 24.49, 0.06995, 0.65973, -0.13403, 0.73605,
 11:55:17.892,f6:90:cc:01:6d:25, 2015-01-01 00:08:09.170, 0.953, -0.037, 0.236, 0.305, -0.244, 0, -7.938, -75.762, -155.517, -30.947, -12.000, -3.767, 28.72, 0.12531, -0.61017, -0.07639, -0.7785,
 11:55:17.892,f6:90:cc:01:6d:25, 2015-01-01 00:08:09.170, 0.955, -0.037, 0.236, 0.732, -0.244, 0, -7.932, -75.767, -155.517, -30.947, -12.000, -3.767, 28.72, 0.12531, -0.61017, -0.07639, -0.7785,
 11:55:17.914,f6:90:cc:01:6d:25, 2015-01-01 00:08:09.525, 0.958, -0.036, 0.236, 1.16, -0.122, -0.305, -7.91, -75.773, -155.533, -30.947, -12.000, -3.767, 28.72, 0.12531, -0.61017, -0.07639, -0.7785,
 11:55:17.914,f6:90:cc:01:6d:25, 2015-01-01 00:08:09.525, 0.96, -0.033, 0.239, 1.77, 0, -0.427, -7.855, -75.773, -155.583, -30.947, -12.000, -3.767, 28.72, 0.12531, -0.61017, -0.07639, -0.7785,
 11:55:17.915,ed:35:33:d3:6c:f8, 2015-01-01 00:08:09.440, 0.328, 0.031, 0.941, 1.221, 0.488, 0.61, 1.417, -18.875, 162.312, -8.140, -11.640, -33.927, 29.7, 0.14978, 0.16437, -0.01443, 0.97479,
 11:55:17.915,ed:35:33:d3:6c:f8, 2015-01-01 00:08:09.440, 0.324, 0.032, 0.944, 0.977, 0.671, 0.549, 1.434, -18.864, 162.312, -8.140, -11.640, -33.927, 29.7, 0.14978, 0.16437, -0.01443, 0.97479,
 11:55:17.935,ed:40:fe:65:30:6c, 2015-01-01 00:08:14.410, 0.602, 0.091, 0.8, 0.977, -0.061, 0.305, 5.565, -37.062, -137.692, -18.087, -12.633, -5.027, 25.15, 0.35611, -0.28033, -0.1568, -0.87744,
 11:55:17.935,ed:40:fe:65:30:6c, 2015-01-01 00:08:14.410, 0.6, 0.091, 0.801, 0.549, 0, 0.427, 5.576, -37.062, -137.692, -18.087, -12.633, -5.027, 25.15, 0.35611, -0.28033, -0.1568, -0.87744,
 11:55:17.936,f6:90:cc:01:6d:25, 2015-01-01 00:08:09.525, 0.961, -0.032, 0.24, 1.892, 0, -0.305, -7.795, -75.778, -155.621, -30.947, -12.000, -3.767, 28.72, 0.12531, -0.61017, -0.07639, -0.7785,
 11:55:17.936,f6:90:cc:01:6d:25, 2015-01-01 00:08:09.525, 0.96, -0.032, 0.241, 1.465, -0.122, 0, -7.756, -75.778, -155.649, -30.947, -12.000, -3.767, 28.72, 0.12531, -0.61017, -0.07639, -0.7785,
 11:55:17.959,f6:90:cc:01:6d:25, 2015-01-01 00:08:09.525, 0.959, -0.032, 0.242, 0.61, 0, 0.122, -7.745, -75.784, -155.643, -30.947, -12.000, -3.767, 28.72, 0.12531, -0.61017, -0.07639, -0.7785,
 11:55:17.959,f6:90:cc:01:6d:25, 2015-01-01 00:08:09.525, 0.957, -0.031, 0.24, -0.061, 0.122, 0.244, -7.756, -75.778, -155.638, -30.947, -12.000, -3.767, 28.72, 0.12531, -0.61017, -0.07639, -0.7785,
 11:55:17.959,e3:ca:2d:fd:e0:8c, 2015-01-01 00:08:09.060, 1.015, -0.115, 0.095, 1.77, 0.244, -0.183, -48.329, -81.92, -148.112, -30.340, -10.793, -6.740, 24.49, 0.06995, 0.65973, -0.13403, 0.73605,
 11:55:17.959,e3:ca:2d:fd:e0:8c, 2015-01-01 00:08:09.060, 1.014, -0.115, 0.095, 1.038, 0.244, 0.061, -48.312, -81.914, -148.101, -30.340, -10.793, -6.740, 24.49, 0.06995, 0.65973, -0.13403, 0.73605,
 11:55:17.961,ed:35:33:d3:6c:f8, 2015-01-01 00:08:09.440, 0.325, 0.031, 0.944, 0.549, 0.61, 0.549, 1.45, -18.853, 162.301, -8.140, -11.640, -33.927, 29.7, 0.14978, 0.16437, -0.01443, 0.97479,
 11:55:17.961,ed:35:33:d3:6c:f8, 2015-01-01 00:08:09.440, 0.323, 0.028, 0.942, 0.183, 0.854, 0.671, 1.461, -18.842, 162.279, -8.140, -11.640, -33.927, 29.7, 0.14978, 0.16437, -0.01443, 0.97479,
 11:55:17.980,e3:ca:2d:fd:e0:8c, 2015-01-01 00:08:09.060, 1.012, -0.114, 0.097, 0.488, 0, 0, -48.323, -81.909, -148.068, -30.333, -11.207, -7.273, 24.49, 0.06995, 0.65973, -0.13403, 0.73605,
 11:55:17.980,e3:ca:2d:fd:e0:8c, 2015-01-01 00:08:09.060, 1.01, -0.114, 0.097, 0.244, 0.061, 0, -48.334, -81.909, -148.068, -30.333, -11.207, -7.273, 24.49, 0.06995, 0.65973, -0.13403, 0.73605,
 11:55:17.984,ed:35:33:d3:6c:f8, 2015-01-01 00:08:09.440, 0.321, 0.025, 0.944, -0.305, 0.732, 0.183, 1.461, -18.831, 162.246, -7.447, -11.313, -33.893, 29.7, 0.14978, 0.16437, -0.01443, 0.97479,
 11:55:17.984,ed:35:33:d3:6c:f8, 2015-01-01 00:08:09.440, 0.32, 0.027, 0.944, -0.61, 0.305, 0, 1.45, -18.82, 162.191, -7.447, -11.313, -33.893, 29.7, 0.14978, 0.16437, -0.01443, 0.97479,
 11:55:18.002,ed:40:fe:65:30:6c, 2015-01-01 00:08:14.410, 0.598, 0.089, 0.8, 0, 0, 0.305, 5.581, -37.057, -137.692, -18.087, -12.633, -5.027, 25.15, 0.35611, -0.28033, -0.1568, -0.87744,
 11:55:18.002,ed:40:fe:65:30:6c, 2015-01-01 00:08:14.410, 0.597, 0.086, 0.8, -0.549, -0.061, 0.122, 5.587, -37.057, -137.686, -18.087, -12.633, -5.027, 25.15, 0.35611, -0.28033, -0.1568, -0.87744,
 11:55:18.004,f6:90:cc:01:6d:25, 2015-01-01 00:08:09.525, 0.957, -0.033, 0.24, -0.305, 0.122, 0.244, -7.778, -75.778, -155.643, -30.947, -12.000, -3.767, 28.72, 0.12531, -0.61017, -0.07639, -0.7785,
 11:55:18.004,f6:90:cc:01:6d:25, 2015-01-01 00:08:09.525, 0.955, -0.034, 0.241, -0.183, 0.244, 0.183, -7.795, -75.773, -155.643, -30.947, -12.000, -3.767, 28.72, 0.12531, -0.61017, -0.07639, -0.7785,
 11:55:18.024,ed:40:fe:65:30:6c, 2015-01-01 00:08:14.410, 0.595, 0.086, 0.799, -0.793, -0.122, 0.183, 5.581, -37.051, -137.686, -18.247, -12.687, -4.827, 25.15, 0.35611, -0.28033, -0.1568, -0.87744,
 11:55:18.024,ed:40:fe:65:30:6c, 2015-01-01 00:08:14.410, 0.598, 0.084, 0.798, -0.549, -0.122, 0.366, 5.57, -37.051, -137.692, -18.247, -12.687, -4.827, 25.15, 0.35611, -0.28033, -0.1568, -0.87744,
 11:55:18.028,ed:35:33:d3:6c:f8, 2015-01-01 00:08:09.440, 0.322, 0.025, 0.942, -0.488, -0.061, 0.122, 1.445, -18.814, 162.153, -7.447, -11.313, -33.893, 29.7, 0.14978, 0.16437, -0.01443, 0.97479,
 11:55:18.028,ed:35:33:d3:6c:f8, 2015-01-01 00:08:09.440, 0.322, 0.024, 0.934, -0.427, 0.244, 0.488, 1.434, -18.82, 162.12, -7.447, -11.313, -33.893, 29.7, 0.14978, 0.16437, -0.01443, 0.97479,
 11:55:18.048,e3:ca:2d:fd:e0:8c, 2015-01-01 00:08:09.060, 1.009, -0.115, 0.098, 0, 0.244, 0, -48.34, -81.903, -148.085, -30.333, -11.207, -7.273, 24.49, 0.06995, 0.65973, -0.13403, 0.73605,
 11:55:18.048,e3:ca:2d:fd:e0:8c, 2015-01-01 00:08:09.060, 1.009, -0.116, 0.096, 0.305, 0.183, -0.061, -48.334, -81.898, -148.079, -30.333, -11.207, -7.273, 24.49, 0.06995, 0.65973, -0.13403, 0.73605,
 11:55:18.049,f6:90:cc:01:6d:25, 2015-01-01 00:08:09.525, 0.955, -0.037, 0.243, -0.183, 0.183, 0.244, -7.817, -75.767, -155.643, -30.947, -12.000, -3.767, 28.72, 0.12531, -0.61017, -0.07639, -0.7785,
 11:55:18.049,f6:90:cc:01:6d:25, 2015-01-01 00:08:09.525, 0.957, -0.037, 0.24, 0.122, 0.061, 0.244, -7.839, -75.767, -155.632, -30.947, -12.000, -3.767, 28.72, 0.12531, -0.61017, -0.07639, -0.7785,
 11:55:18.070,e3:ca:2d:fd:e0:8c, 2015-01-01 00:08:09.060, 1.01, -0.116, 0.094, 0.671, -0.061, 0, -48.345, -81.892, -148.074, -30.333, -11.207, -7.273, 24.49, 0.06848, 0.65988, -0.13287, 0.73627,
 11:55:18.070,e3:ca:2d:fd:e0:8c, 2015-01-01 00:08:09.060, 1.011, -0.117, 0.091, 0.671, -0.183, 0, -48.373, -81.892, -148.052, -30.333, -11.207, -7.273, 24.49, 0.06848, 0.65988, -0.13287, 0.73627,
 11:55:18.070,ed:40:fe:65:30:6c, 2015-01-01 00:08:14.410, 0.596, 0.082, 0.794, -0.061, -0.061, 0.549, 5.565, -37.051, -137.686, -18.247, -12.687, -4.827, 25.15, 0.35611, -0.28033, -0.1568, -0.87744,
 11:55:18.070,ed:40:fe:65:30:6c, 2015-01-01 00:08:14.410, 0.594, 0.081, 0.8, 0.244, 0.122, 0.549, 5.559, -37.046, -137.67, -18.247, -12.687, -4.827, 25.15, 0.35611, -0.28033, -0.1568, -0.87744,
 11:55:18.073,ed:35:33:d3:6c:f8, 2015-01-01 00:08:09.440, 0.319, 0.021, 0.939, -0.427, 0.916, 0.793, 1.423, -18.809, 162.12, -7.447, -11.313, -33.893, 29.7, 0.15112, 0.16342, -0.01309, 0.97476,
 11:55:18.073,ed:35:33:d3:6c:f8, 2015-01-01 00:08:09.440, 0.32, 0.02, 0.95, 0.061, -0.122, 0.732, 1.417, -18.798, 162.125, -7.447, -11.313, -33.893, 29.7, 0.15112, 0.16342, -0.01309, 0.97476,
 11:55:18.092,ed:40:fe:65:30:6c, 2015-01-01 00:08:14.410, 0.596, 0.083, 0.801, 0.305, -0.061, 0.549, 5.565, -37.04, -137.648, -18.247, -12.687, -4.827, 25.15, 0.35629, -0.27927, -0.15747, -0.87759,
 11:55:18.092,ed:40:fe:65:30:6c, 2015-01-01 00:08:14.410, 0.597, 0.086, 0.799, 0.305, -0.305, 0.305, 5.57, -37.04, -137.62, -18.247, -12.687, -4.827, 25.15, 0.35629, -0.27927, -0.15747, -0.87759,
 11:55:18.094,f6:90:cc:01:6d:25, 2015-01-01 00:08:09.525, 0.955, -0.037, 0.238, 0.427, 0, 0.122, -7.844, -75.767, -155.638, -30.947, -12.000, -3.767, 28.72, 0.12531, -0.61017, -0.07639, -0.7785,
 11:55:18.094,f6:90:cc:01:6d:25, 2015-01-01 00:08:09.525, 0.955, -0.036, 0.242, 0.305, 0.122, 0, -7.844, -75.762, -155.66, -30.947, -12.000, -3.767, 28.72, 0.12531, -0.61017, -0.07639, -0.7785,
 11:55:18.115,e3:ca:2d:fd:e0:8c, 2015-01-01 00:08:09.060, 1.009, -0.115, 0.093, 0.427, 0.061, -0.061, -48.384, -81.887, -148.068, -30.333, -11.207, -7.273, 24.49, 0.06848, 0.65988, -0.13287, 0.73627,
 11:55:18.115,e3:ca:2d:fd:e0:8c, 2015-01-01 00:08:09.060, 1.009, -0.114, 0.092, 0.305, 0.305, -0.183, -48.367, -81.881, -148.112, -30.333, -11.207, -7.273, 24.49, 0.06848, 0.65988, -0.13287, 0.73627,
 11:55:18.117,ed:35:33:d3:6c:f8, 2015-01-01 00:08:09.755, 0.32, 0.021, 0.94, 0.244, 0, 0.732, 1.412, -18.803, 162.147, -7.447, -11.313, -33.893, 29.7, 0.15112, 0.16342, -0.01309, 0.97476,
 11:55:18.117,ed:35:33:d3:6c:f8, 2015-01-01 00:08:09.755, 0.322, 0.027, 0.941, 0.244, -0.183, 0.427, 1.412, -18.803, 162.169, -7.447, -11.313, -33.893, 29.7, 0.15112, 0.16342, -0.01309, 0.97476,
 11:55:18.117,f6:90:cc:01:6d:25, 2015-01-01 00:08:09.525, 0.956, -0.035, 0.241, 0.366, 0, -0.122, -7.839, -75.762, -155.665, -30.887, -12.120, -3.813, 28.72, 0.12531, -0.61017, -0.07639, -0.7785,
 11:55:18.117,f6:90:cc:01:6d:25, 2015-01-01 00:08:09.525, 0.958, -0.034, 0.24, 0.305, -0.122, -0.122, -7.828, -75.762, -155.66, -30.887, -12.120, -3.813, 28.72, 0.12531, -0.61017, -0.07639, -0.7785,
 11:55:18.139,e3:ca:2d:fd:e0:8c, 2015-01-01 00:08:09.440, 1.011, -0.114, 0.093, 0.305, -0.122, -0.305, -48.367, -81.887, -148.129, -30.333, -11.207, -7.273, 24.49, 0.06848, 0.65988, -0.13287, 0.73627,
 11:55:18.139,e3:ca:2d:fd:e0:8c, 2015-01-01 00:08:09.440, 1.012, -0.115, 0.094, 0.305, -0.305, -0.244, -48.395, -81.887, -148.107, -30.333, -11.207, -7.273, 24.49, 0.06848, 0.65988, -0.13287, 0.73627,
 11:55:18.160,ed:40:fe:65:30:6c, 2015-01-01 00:08:14.410, 0.6, 0.088, 0.8, 0.061, -0.244, 0.244, 5.576, -37.04, -137.582, -18.247, -12.687, -4.827, 25.15, 0.35629, -0.27927, -0.15747, -0.87759,
 11:55:18.160,ed:40:fe:65:30:6c, 2015-01-01 00:08:14.410, 0.599, 0.088, 0.8, -0.061, -0.305, 0.366, 5.581, -37.04, -137.554, -18.247, -12.687, -4.827, 25.15, 0.35629, -0.27927, -0.15747, -0.87759,
 11:55:18.162,f6:90:cc:01:6d:25, 2015-01-01 00:08:09.525, 0.958, -0.034, 0.239, 0.183, -0.244, -0.061, -7.822, -75.767, -155.671, -30.887, -12.120, -3.813, 28.72, 0.12531, -0.61017, -0.07639, -0.7785,
 11:55:18.162,f6:90:cc:01:6d:25, 2015-01-01 00:08:09.525, 0.959, -0.034, 0.24, 0.183, -0.305, -0.061, -7.822, -75.773, -155.676, -30.887, -12.120, -3.813, 28.72, 0.12531, -0.61017, -0.07639, -0.7785,
 11:55:18.164,ed:35:33:d3:6c:f8, 2015-01-01 00:08:09.755, 0.324, 0.029, 0.941, -0.061, 0.122, 0.488, 1.417, -18.809, 162.169, -7.447, -11.313, -33.893, 29.7, 0.15112, 0.16342, -0.01309, 0.97476,
 11:55:18.164,ed:35:33:d3:6c:f8, 2015-01-01 00:08:09.755, 0.323, 0.025, 0.948, -0.122, 0, 0.427, 1.412, -18.809, 162.158, -7.447, -11.313, -33.893, 29.7, 0.15112, 0.16342, -0.01309, 0.97476,
 11:55:18.183,ed:40:fe:65:30:6c, 2015-01-01 00:08:14.770, 0.599, 0.087, 0.8, -0.122, -0.305, 0.366, 5.581, -37.04, -137.532, -18.247, -12.687, -4.827, 25.15, 0.35629, -0.27927, -0.15747, -0.87759,
 11:55:18.183,ed:40:fe:65:30:6c, 2015-01-01 00:08:14.770, 0.601, 0.085, 0.798, -0.061, -0.366, 0.244, 5.581, -37.046, -137.527, -18.247, -12.687, -4.827, 25.15, 0.35629, -0.27927, -0.15747, -0.87759,
 11:55:18.183,e3:ca:2d:fd:e0:8c, 2015-01-01 00:08:09.440, 1.013, -0.116, 0.093, 0.488, -0.244, -0.305, -48.417, -81.892, -148.085, -30.333, -11.207, -7.273, 24.49, 0.06848, 0.65988, -0.13287, 0.73627,
 11:55:18.183,e3:ca:2d:fd:e0:8c, 2015-01-01 00:08:09.440, 1.014, -0.115, 0.093, 0.671, -0.427, -0.244, -48.45, -81.898, -148.052, -30.333, -11.207, -7.273, 24.49, 0.06848, 0.65988, -0.13287, 0.73627,
 11:55:18.187,ed:35:33:d3:6c:f8, 2015-01-01 00:08:09.755, 0.325, 0.024, 0.943, 0.244, -0.671, 0.122, 1.412, -18.809, 162.131, -7.447, -11.313, -33.893, 29.7, 0.15112, 0.16342, -0.01309, 0.97476,
 11:55:18.187,ed:35:33:d3:6c:f8, 2015-01-01 00:08:09.755, 0.328, 0.021, 0.938, 0.61, -0.671, -0.183, 1.417, -18.825, 162.109, -7.447, -11.313, -33.893, 29.7, 0.15112, 0.16342, -0.01309, 0.97476,
 11:55:18.205,e3:ca:2d:fd:e0:8c, 2015-01-01 00:08:09.440, 1.013, -0.116, 0.095, 0.854, -0.427, -0.183, -48.488, -81.903, -147.997, -30.333, -11.207, -7.273, 24.49, 0.06848, 0.65988, -0.13287, 0.73627,
 11:55:18.205,e3:ca:2d:fd:e0:8c, 2015-01-01 00:08:09.440, 1.011, -0.116, 0.095, 1.038, -0.427, -0.183, -48.521, -81.909, -147.942, -30.333, -11.207, -7.273, 24.49, 0.06848, 0.65988, -0.13287, 0.73627,
 11:55:18.226,ed:40:fe:65:30:6c, 2015-01-01 00:08:14.770, 0.602, 0.083, 0.795, 0.183, -0.122, 0.061, 5.587, -37.046, -137.532, -18.247, -12.687, -4.827, 25.15, 0.35629, -0.27927, -0.15747, -0.87759,
 11:55:18.226,ed:40:fe:65:30:6c, 2015-01-01 00:08:14.770, 0.6, 0.084, 0.794, 0.305, -0.061, 0, 5.592, -37.046, -137.543, -18.247, -12.687, -4.827, 25.15, 0.35629, -0.27927, -0.15747, -0.87759,
 11:55:18.230,ed:35:33:d3:6c:f8, 2015-01-01 00:08:09.755, 0.326, 0.024, 0.933, 0.61, -0.122, -0.061, 1.434, -18.836, 162.103, -7.447, -11.313, -33.893, 29.7, 0.15112, 0.16342, -0.01309, 0.97476,
 11:55:18.230,ed:35:33:d3:6c:f8, 2015-01-01 00:08:09.755, 0.327, 0.027, 0.938, 0.427, 0.183, 0.244, 1.445, -18.836, 162.098, -7.447, -11.313, -33.893, 29.7, 0.15112, 0.16342, -0.01309, 0.97476,
 11:55:18.230,f6:90:cc:01:6d:25, 2015-01-01 00:08:09.525, 0.959, -0.033, 0.241, 0.366, -0.366, 0, -7.822, -75.778, -155.665, -30.887, -12.120, -3.813, 28.72, 0.12488, -0.61023, -0.07639, -0.7785,
 11:55:18.230,f6:90:cc:01:6d:25, 2015-01-01 00:08:09.525, 0.959, -0.035, 0.239, 0.793, -0.183, -0.061, -7.811, -75.784, -155.671, -30.887, -12.120, -3.813, 28.72, 0.12488, -0.61023, -0.07639, -0.7785,
 11:55:18.251,e3:ca:2d:fd:e0:8c, 2015-01-01 00:08:09.440, 1.009, -0.116, 0.097, 0.977, 0, -0.183, -48.527, -81.909, -147.931, -30.333, -11.207, -7.273, 24.49, 0.06848, 0.65988, -0.13287, 0.73627,
 11:55:18.251,e3:ca:2d:fd:e0:8c, 2015-01-01 00:08:09.440, 1.011, -0.115, 0.096, 0.793, 0.244, -0.244, -48.494, -81.909, -147.947, -30.333, -11.207, -7.273, 24.49, 0.06848, 0.65988, -0.13287, 0.73627,
 11:55:18.253,f6:90:cc:01:6d:25, 2015-01-01 00:08:09.885, 0.957, -0.037, 0.237, 0.671, -0.061, -0.061, -7.8, -75.789, -155.687, -30.887, -12.120, -3.813, 28.72, 0.12488, -0.61023, -0.07639, -0.7785,
 11:55:18.253,f6:90:cc:01:6d:25, 2015-01-01 00:08:09.885, 0.957, -0.034, 0.237, 0.488, 0.061, -0.061, -7.789, -75.784, -155.704, -30.887, -12.120, -3.813, 28.72, 0.12488, -0.61023, -0.07639, -0.7785,
 11:55:18.273,ed:40:fe:65:30:6c, 2015-01-01 00:08:14.770, 0.601, 0.088, 0.795, 0.305, 0, 0.061, 5.609, -37.04, -137.549, -18.247, -12.687, -4.827, 25.15, 0.35629, -0.27927, -0.15747, -0.87759,
 11:55:18.273,ed:40:fe:65:30:6c, 2015-01-01 00:08:14.770, 0.602, 0.089, 0.796, 0.244, -0.244, 0.122, 5.62, -37.04, -137.56, -18.247, -12.687, -4.827, 25.15, 0.35629, -0.27927, -0.15747, -0.87759,
 11:55:18.275,ed:35:33:d3:6c:f8, 2015-01-01 00:08:09.755, 0.323, 0.03, 0.943, 0.427, 0, 0.305, 1.45, -18.836, 162.103, -7.447, -11.313, -33.893, 29.7, 0.15112, 0.16342, -0.01309, 0.97476,
 11:55:18.275,ed:35:33:d3:6c:f8, 2015-01-01 00:08:09.755, 0.329, 0.03, 0.936, 0.122, 0.366, 0.61, 1.456, -18.836, 162.098, -7.447, -11.313, -33.893, 29.7, 0.15112, 0.16342, -0.01309, 0.97476,
 11:55:18.275,f6:90:cc:01:6d:25, 2015-01-01 00:08:09.885, 0.958, -0.032, 0.236, 0.488, 0.183, -0.061, -7.784, -75.784, -155.72, -30.887, -12.120, -3.813, 28.72, 0.12488, -0.61023, -0.07639, -0.7785,
 11:55:18.275,f6:90:cc:01:6d:25, 2015-01-01 00:08:09.885, 0.96, -0.032, 0.235, 0.549, 0.427, -0.122, -7.762, -75.778, -155.748, -30.887, -12.120, -3.813, 28.72, 0.12488, -0.61023, -0.07639, -0.7785,
 11:55:18.296,ed:40:fe:65:30:6c, 2015-01-01 00:08:14.770, 0.607, 0.089, 0.795, 0.183, -0.366, 0.305, 5.625, -37.04, -137.571, -18.247, -12.687, -4.827, 25.15, 0.35629, -0.27927, -0.15747, -0.87759,
 11:55:18.296,ed:40:fe:65:30:6c, 2015-01-01 00:08:14.770, 0.599, 0.088, 0.798, 0.061, -0.549, 0.366, 5.63, -37.046, -137.576, -18.247, -12.687, -4.827, 25.15, 0.35629, -0.27927, -0.15747, -0.87759,
 11:55:18.319,e3:ca:2d:fd:e0:8c, 2015-01-01 00:08:09.440, 1.014, -0.113, 0.093, 0.488, 0.366, -0.244, -48.45, -81.903, -147.975, -30.333, -11.207, -7.273, 24.49, 0.06848, 0.65988, -0.13287, 0.73627,
 11:55:18.319,e3:ca:2d:fd:e0:8c, 2015-01-01 00:08:09.440, 1.015, -0.113, 0.093, 0.549, 0.61, -0.305, -48.384, -81.898, -148.046, -30.333, -11.207, -7.273, 24.49, 0.06848, 0.65988, -0.13287, 0.73627,
 11:55:18.319,f6:90:cc:01:6d:25, 2015-01-01 00:08:09.885, 0.962, -0.033, 0.232, 0.854, 0.854, -0.183, -7.734, -75.767, -155.775, -30.887, -12.120, -3.813, 28.72, 0.12488, -0.61023, -0.07639, -0.7785,
 11:55:18.319,f6:90:cc:01:6d:25, 2015-01-01 00:08:09.885, 0.959, -0.034, 0.237, 0.671, 0.977, -0.183, -7.696, -75.751, -155.792, -30.887, -12.120, -3.813, 28.72, 0.12488, -0.61023, -0.07639, -0.7785,
 11:55:18.321,ed:35:33:d3:6c:f8, 2015-01-01 00:08:09.755, 0.324, 0.028, 0.942, -0.488, 0.793, 0.854, 1.456, -18.831, 162.12, -7.927, -11.687, -33.680, 29.7, 0.15112, 0.16342, -0.01309, 0.97476,
 11:55:18.321,ed:35:33:d3:6c:f8, 2015-01-01 00:08:09.755, 0.315, 0.029, 0.958, -1.282, -1.099, 0.671, 1.439, -18.831, 162.153, -7.927, -11.687, -33.680, 29.7, 0.15112, 0.16342, -0.01309, 0.97476,
 11:55:18.341,e3:ca:2d:fd:e0:8c, 2015-01-01 00:08:09.440, 1.015, -0.114, 0.092, 0.61, 0.977, -0.244, -48.279, -81.887, -148.14, -30.220, -11.233, -7.127, 24.49, 0.06848, 0.65988, -0.13287, 0.73627,
 11:55:18.341,e3:ca:2d:fd:e0:8c, 2015-01-01 00:08:09.440, 1.014, -0.115, 0.09, 0.488, 1.038, -0.305, -48.17, -81.876, -148.255, -30.220, -11.233, -7.127, 24.49, 0.06848, 0.65988, -0.13287, 0.73627,
 11:55:18.363,ed:40:fe:65:30:6c, 2015-01-01 00:08:14.770, 0.592, 0.09, 0.811, -0.244, -1.221, 0.549, 5.636, -37.062, -137.571, -18.247, -12.687, -4.827, 25.15, 0.35629, -0.27927, -0.15747, -0.87759,
 11:55:18.363,ed:40:fe:65:30:6c, 2015-01-01 00:08:14.770, 0.587, 0.088, 0.811, -0.305, -1.526, 0.793, 5.63, -37.084, -137.565, -18.247, -12.687, -4.827, 25.15, 0.35629, -0.27927, -0.15747, -0.87759,
 11:55:18.364,f6:90:cc:01:6d:25, 2015-01-01 00:08:09.885, 0.956, -0.033, 0.245, 0.427, 0.793, -0.122, -7.674, -75.734, -155.803, -30.887, -12.120, -3.813, 28.72, 0.12488, -0.61023, -0.07639, -0.7785,
 11:55:18.364,f6:90:cc:01:6d:25, 2015-01-01 00:08:09.885, 0.95, -0.033, 0.247, 0.244, 0.61, -0.183, -7.652, -75.723, -155.841, -30.887, -12.120, -3.813, 28.72, 0.12488, -0.61023, -0.07639, -0.7785,
 11:55:18.366,ed:35:33:d3:6c:f8, 2015-01-01 00:08:09.755, 0.312, 0.027, 0.959, -1.526, -3.418, 0.977, 1.406, -18.864, 162.186, -7.927, -11.687, -33.680, 29.7, 0.1507, 0.16379, -0.01337, 0.97476,
 11:55:18.366,ed:35:33:d3:6c:f8, 2015-01-01 00:08:09.755, 0.321, 0.021, 0.953, -1.526, -3.418, 0.977, 1.373, -18.935, 162.219, -7.927, -11.687, -33.680, 29.7, 0.1507, 0.16379, -0.01337, 0.97476,
 11:55:18.385,ed:40:fe:65:30:6c, 2015-01-01 00:08:14.770, 0.594, 0.086, 0.806, -0.427, -1.526, 0.61, 5.62, -37.112, -137.56, -18.060, -12.907, -4.987, 25.15, 0.35629, -0.27927, -0.15747, -0.87759,
 11:55:18.385,ed:40:fe:65:30:6c, 2015-01-01 00:08:14.770, 0.599, 0.086, 0.797, -0.061, -1.648, 0.671, 5.614, -37.134, -137.565, -18.060, -12.907, -4.987, 25.15, 0.35629, -0.27927, -0.15747, -0.87759,
 11:55:18.386,e3:ca:2d:fd:e0:8c, 2015-01-01 00:08:09.440, 1.008, -0.116, 0.09, 0.366, 0.427, -0.305, -48.104, -81.87, -148.332, -30.220, -11.233, -7.127, 24.49, 0.06848, 0.65988, -0.13287, 0.73627,
 11:55:18.386,e3:ca:2d:fd:e0:8c, 2015-01-01 00:08:09.440, 1.003, -0.116, 0.093, 0.244, -0.366, -0.305, -48.126, -81.876, -148.321, -30.220, -11.233, -7.127, 24.49, 0.06848, 0.65988, -0.13287, 0.73627,
 11:55:18.388,ed:35:33:d3:6c:f8, 2015-01-01 00:08:10.045, 0.328, 0.023, 0.951, -0.427, -4.761, 0.427, 1.346, -19.006, 162.263, -7.927, -11.687, -33.680, 29.7, 0.1507, 0.16379, -0.01337, 0.97476,
 11:55:18.388,ed:35:33:d3:6c:f8, 2015-01-01 00:08:10.045, 0.328, 0.026, 0.93, 0.488, -4.517, 0.916, 1.346, -19.094, 162.296, -7.927, -11.687, -33.680, 29.7, 0.1507, 0.16379, -0.01337, 0.97476,
 11:55:18.408,e3:ca:2d:fd:e0:8c, 2015-01-01 00:08:09.440, 1.008, -0.115, 0.092, 0, -0.854, -0.305, -48.208, -81.887, -148.25, -30.220, -11.233, -7.127, 24.49, 0.06882, 0.65967, -0.13306, 0.73642,
 11:55:18.408,e3:ca:2d:fd:e0:8c, 2015-01-01 00:08:09.440, 1.012, -0.114, 0.096, 0.122, -1.16, -0.244, -48.329, -81.903, -148.123, -30.220, -11.233, -7.127, 24.49, 0.06882, 0.65967, -0.13306, 0.73642,
 11:55:18.430,ed:40:fe:65:30:6c, 2015-01-01 00:08:14.770, 0.602, 0.086, 0.792, -0.305, -1.953, 0.854, 5.614, -37.161, -137.576, -18.060, -12.907, -4.987, 25.15, 0.35629, -0.27927, -0.15747, -0.87759,
 11:55:18.430,ed:40:fe:65:30:6c, 2015-01-01 00:08:14.770, 0.605, 0.085, 0.791, -0.366, -1.587, 0.916, 5.603, -37.194, -137.582, -18.060, -12.907, -4.987, 25.15, 0.35629, -0.27927, -0.15747, -0.87759,
 11:55:18.432,f6:90:cc:01:6d:25, 2015-01-01 00:08:09.885, 0.952, -0.033, 0.246, 0.305, 0.122, -0.061, -7.641, -75.723, -155.869, -30.887, -12.120, -3.813, 28.72, 0.12488, -0.61023, -0.07639, -0.7785,
 11:55:18.432,f6:90:cc:01:6d:25, 2015-01-01 00:08:09.885, 0.955, -0.034, 0.237, 0.488, -0.61, -0.061, -7.635, -75.729, -155.874, -30.887, -12.120, -3.813, 28.72, 0.12488, -0.61023, -0.07639, -0.7785,
 11:55:18.434,ed:35:33:d3:6c:f8, 2015-01-01 00:08:10.045, 0.336, 0.022, 0.932, 0.244, -3.235, 0.732, 1.351, -19.177, 162.339, -7.927, -11.687, -33.680, 29.7, 0.1507, 0.16379, -0.01337, 0.97476,
 11:55:18.434,ed:35:33:d3:6c:f8, 2015-01-01 00:08:10.045, 0.337, 0.033, 0.928, 0.61, -3.479, 0.732, 1.351, -19.237, 162.383, -7.927, -11.687, -33.680, 29.7, 0.1507, 0.16379, -0.01337, 0.97476,
 11:55:18.453,e3:ca:2d:fd:e0:8c, 2015-01-01 00:08:09.440, 1.014, -0.115, 0.1, 0.244, -0.366, -0.305, -48.389, -81.909, -148.063, -30.220, -11.233, -7.127, 24.49, 0.06882, 0.65967, -0.13306, 0.73642,
 11:55:18.453,e3:ca:2d:fd:e0:8c, 2015-01-01 00:08:09.440, 1.01, -0.117, 0.101, 0.305, 0.671, -0.366, -48.334, -81.909, -148.112, -30.220, -11.233, -7.127, 24.49, 0.06882, 0.65967, -0.13306, 0.73642,
 11:55:18.455,f6:90:cc:01:6d:25, 2015-01-01 00:08:09.885, 0.958, -0.034, 0.235, 0.977, -0.793, 0, -7.63, -75.745, -155.88, -31.087, -11.927, -4.220, 28.72, 0.12488, -0.61023, -0.07639, -0.7785,
 11:55:18.455,f6:90:cc:01:6d:25, 2015-01-01 00:08:09.885, 0.959, -0.035, 0.236, 0.916, -0.305, 0, -7.619, -75.751, -155.901, -31.087, -11.927, -4.220, 28.72, 0.12488, -0.61023, -0.07639, -0.7785,
 11:55:18.478,ed:35:33:d3:6c:f8, 2015-01-01 00:08:10.045, 0.338, 0.03, 0.933, 1.038, -2.319, 1.587, 1.362, -19.303, 162.438, -7.927, -11.687, -33.680, 29.7, 0.1507, 0.16379, -0.01337, 0.97476,
 11:55:18.478,ed:35:33:d3:6c:f8, 2015-01-01 00:08:10.045, 0.334, 0.028, 0.933, 1.587, -1.282, 1.648, 1.379, -19.341, 162.482, -7.927, -11.687, -33.680, 29.7, 0.1507, 0.16379, -0.01337, 0.97476,
 11:55:18.498,ed:40:fe:65:30:6c, 2015-01-01 00:08:14.770, 0.606, 0.09, 0.788, -0.305, -1.099, 1.16, 5.592, -37.222, -137.571, -18.060, -12.907, -4.987, 25.15, 0.35696, -0.28018, -0.15842, -0.87683,
 11:55:18.498,ed:40:fe:65:30:6c, 2015-01-01 00:08:14.770, 0.606, 0.089, 0.794, -0.061, -0.732, 1.587, 5.576, -37.238, -137.554, -18.060, -12.907, -4.987, 25.15, 0.35696, -0.28018, -0.15842, -0.87683,
 11:55:18.500,f6:90:cc:01:6d:25, 2015-01-01 00:08:09.885, 0.958, -0.036, 0.235, 1.099, 0.183, 0, -7.603, -75.751, -155.918, -31.087, -11.927, -4.220, 28.72, 0.12488, -0.61023, -0.07639, -0.7785,
 11:55:18.500,f6:90:cc:01:6d:25, 2015-01-01 00:08:09.885, 0.959, -0.035, 0.245, 0.916, 0, 0, -7.592, -75.751, -155.934, -31.087, -11.927, -4.220, 28.72, 0.12488, -0.61023, -0.07639, -0.7785,
 11:55:18.519,ed:40:fe:65:30:6c, 2015-01-01 00:08:15.125, 0.604, 0.087, 0.793, 0, -0.732, 1.709, 5.559, -37.249, -137.527, -18.060, -12.907, -4.987, 25.15, 0.35696, -0.28018, -0.15842, -0.87683,
 11:55:18.519,ed:40:fe:65:30:6c, 2015-01-01 00:08:15.125, 0.604, 0.084, 0.792, 0.244, -0.366, 1.77, 5.548, -37.26, -137.488, -18.060, -12.907, -4.987, 25.15, 0.35696, -0.28018, -0.15842, -0.87683,
 11:55:18.521,e3:ca:2d:fd:e0:8c, 2015-01-01 00:08:09.775, 1.01, -0.116, 0.098, 0.183, 1.343, -0.427, -48.197, -81.892, -148.222, -30.220, -11.233, -7.127, 24.49, 0.06882, 0.65967, -0.13306, 0.73642,
 11:55:18.521,e3:ca:2d:fd:e0:8c, 2015-01-01 00:08:09.775, 1.012, -0.117, 0.092, 0.366, 0.854, -0.427, -48.076, -81.881, -148.332, -30.220, -11.233, -7.127, 24.49, 0.06882, 0.65967, -0.13306, 0.73642,
 11:55:18.522,f6:90:cc:01:6d:25, 2015-01-01 00:08:09.885, 0.959, -0.034, 0.246, 1.038, -0.366, 0, -7.581, -75.756, -155.951, -31.087, -11.927, -4.220, 28.72, 0.12439, -0.61005, -0.07657, -0.77872,
 11:55:18.522,f6:90:cc:01:6d:25, 2015-01-01 00:08:09.885, 0.957, -0.034, 0.239, 1.221, -0.061, 0, -7.564, -75.756, -155.951, -31.087, -11.927, -4.220, 28.72, 0.12439, -0.61005, -0.07657, -0.77872,
 11:55:18.524,ed:35:33:d3:6c:f8, 2015-01-01 00:08:10.045, 0.333, 0.026, 0.924, 1.648, 0.305, 2.075, 1.406, -19.358, 162.515, -7.927, -11.687, -33.680, 29.7, 0.1507, 0.16379, -0.01337, 0.97476,
 11:55:18.524,ed:35:33:d3:6c:f8, 2015-01-01 00:08:10.045, 0.331, 0.023, 0.935, 0, 1.221, 2.197, 1.417, -19.352, 162.532, -7.927, -11.687, -33.680, 29.7, 0.1507, 0.16379, -0.01337, 0.97476,
 11:55:18.542,ed:40:fe:65:30:6c, 2015-01-01 00:08:15.125, 0.601, 0.084, 0.796, 0.244, -0.183, 1.709, 5.532, -37.266, -137.45, -18.060, -12.907, -4.987, 25.15, 0.35696, -0.28018, -0.15842, -0.87683,
 11:55:18.542,ed:40:fe:65:30:6c, 2015-01-01 00:08:15.125, 0.6, 0.087, 0.804, 0, -0.61, 1.587, 5.521, -37.277, -137.417, -18.060, -12.907, -4.987, 25.15, 0.35696, -0.28018, -0.15842, -0.87683,
 11:55:18.545,e3:ca:2d:fd:e0:8c, 2015-01-01 00:08:09.775, 1.013, -0.116, 0.094, 0.61, 0, -0.427, -48.032, -81.881, -148.365, -30.220, -11.233, -7.127, 24.49, 0.06882, 0.65967, -0.13306, 0.73642,
 11:55:18.545,e3:ca:2d:fd:e0:8c, 2015-01-01 00:08:09.775, 1.012, -0.114, 0.098, 0.671, 0, -0.366, -48.016, -81.887, -148.376, -30.220, -11.233, -7.127, 24.49, 0.06882, 0.65967, -0.13306, 0.73642,
 11:55:18.566,e3:ca:2d:fd:e0:8c, 2015-01-01 00:08:09.775, 1.012, -0.115, 0.096, 0.671, 0.549, -0.305, -47.955, -81.881, -148.414, -30.220, -11.233, -7.127, 24.49, 0.06882, 0.65967, -0.13306, 0.73642,
 11:55:18.566,e3:ca:2d:fd:e0:8c, 2015-01-01 00:08:09.775, 1.01, -0.113, 0.094, 0.61, 0.671, -0.244, -47.884, -81.87, -148.475, -30.220, -11.233, -7.127, 24.49, 0.06882, 0.65967, -0.13306, 0.73642,
 11:55:18.567,f6:90:cc:01:6d:25, 2015-01-01 00:08:09.885, 0.958, -0.033, 0.239, 1.099, 0.305, 0, -7.548, -75.751, -155.951, -31.087, -11.927, -4.220, 28.72, 0.12439, -0.61005, -0.07657, -0.77872,
 11:55:18.567,f6:90:cc:01:6d:25, 2015-01-01 00:08:09.885, 0.956, -0.03, 0.246, 0.61, 0.122, 0, -7.537, -75.751, -155.956, -31.087, -11.927, -4.220, 28.72, 0.12439, -0.61005, -0.07657, -0.77872,
 11:55:18.568,ed:35:33:d3:6c:f8, 2015-01-01 00:08:10.045, 0.329, 0.024, 0.949, -0.671, 0.854, 1.892, 1.401, -19.33, 162.532, -7.927, -11.687, -33.680, 29.7, 0.1507, 0.16379, -0.01337, 0.97476,
 11:55:18.568,ed:35:33:d3:6c:f8, 2015-01-01 00:08:10.045, 0.323, 0.024, 0.949, -0.61, -0.244, 1.892, 1.379, -19.325, 162.526, -7.927, -11.687, -33.680, 29.7, 0.1507, 0.16379, -0.01337, 0.97476,
 11:55:18.586,ed:40:fe:65:30:6c, 2015-01-01 00:08:15.125, 0.594, 0.087, 0.802, -0.122, -0.916, 1.404, 5.504, -37.288, -137.373, -18.060, -12.907, -4.987, 25.15, 0.35696, -0.28018, -0.15842, -0.87683,
 11:55:18.586,ed:40:fe:65:30:6c, 2015-01-01 00:08:15.125, 0.598, 0.087, 0.798, -0.366, -0.854, 1.221, 5.493, -37.299, -137.335, -18.060, -12.907, -4.987, 25.15, 0.35696, -0.28018, -0.15842, -0.87683,
 11:55:18.592,ed:35:33:d3:6c:f8, 2015-01-01 00:08:10.045, 0.329, 0.024, 0.943, -0.732, -1.404, 1.526, 1.357, -19.336, 162.543, -8.247, -11.240, -34.120, 29.7, 0.1507, 0.16379, -0.01337, 0.97476,
 11:55:18.592,ed:35:33:d3:6c:f8, 2015-01-01 00:08:10.045, 0.333, 0.022, 0.936, -0.854, -0.854, 0.977, 1.335, -19.363, 162.57, -8.247, -11.240, -34.120, 29.7, 0.1507, 0.16379, -0.01337, 0.97476,
 11:55:18.611,e3:ca:2d:fd:e0:8c, 2015-01-01 00:08:09.775, 1.009, -0.112, 0.092, 0.183, -0.061, -0.244, -47.895, -81.87, -148.475, -30.220, -11.233, -7.127, 24.49, 0.06882, 0.65967, -0.13306, 0.73642,
 11:55:18.611,e3:ca:2d:fd:e0:8c, 2015-01-01 00:08:09.775, 1.009, -0.111, 0.092, -0.122, -0.488, -0.183, -47.955, -81.881, -148.42, -30.220, -11.233, -7.127, 24.49, 0.06882, 0.65967, -0.13306, 0.73642,
 11:55:18.611,f6:90:cc:01:6d:25, 2015-01-01 00:08:10.220, 0.954, -0.029, 0.244, 0.122, 0.366, 0, -7.531, -75.74, -155.956, -31.087, -11.927, -4.220, 28.72, 0.12439, -0.61005, -0.07657, -0.77872,
 11:55:18.611,f6:90:cc:01:6d:25, 2015-01-01 00:08:10.220, 0.954, -0.029, 0.244, -0.183, 0, 0, -7.537, -75.74, -155.951, -31.087, -11.927, -4.220, 28.72, 0.12439, -0.61005, -0.07657, -0.77872,
 11:55:18.633,ed:40:fe:65:30:6c, 2015-01-01 00:08:15.125, 0.602, 0.086, 0.796, -0.61, -0.61, 0.854, 5.477, -37.31, -137.307, -18.060, -12.907, -4.987, 25.15, 0.35696, -0.28018, -0.15842, -0.87683,
 11:55:18.633,ed:40:fe:65:30:6c, 2015-01-01 00:08:15.125, 0.605, 0.084, 0.791, -0.732, -0.488, 0.549, 5.46, -37.321, -137.296, -18.060, -12.907, -4.987, 25.15, 0.35696, -0.28018, -0.15842, -0.87683,
 11:55:18.634,f6:90:cc:01:6d:25, 2015-01-01 00:08:10.220, 0.956, -0.028, 0.241, -0.427, -0.366, 0, -7.548, -75.745, -155.945, -31.087, -11.927, -4.220, 28.72, 0.12439, -0.61005, -0.07657, -0.77872,
 11:55:18.634,f6:90:cc:01:6d:25, 2015-01-01 00:08:10.220, 0.958, -0.029, 0.239, -0.488, -0.488, 0, -7.559, -75.756, -155.951, -31.087, -11.927, -4.220, 28.72, 0.12439, -0.61005, -0.07657, -0.77872,
 11:55:18.636,ed:35:33:d3:6c:f8, 2015-01-01 00:08:10.045, 0.337, 0.023, 0.926, -0.916, 0.183, 0.732, 1.313, -19.374, 162.592, -8.247, -11.240, -34.120, 29.7, 0.1507, 0.16379, -0.01337, 0.97476,
 11:55:18.636,ed:35:33:d3:6c:f8, 2015-01-01 00:08:10.045, 0.334, 0.022, 0.937, -0.793, 0.854, 0.427, 1.291, -19.369, 162.625, -8.247, -11.240, -34.120, 29.7, 0.1507, 0.16379, -0.01337, 0.97476,
 11:55:18.654,ed:40:fe:65:30:6c, 2015-01-01 00:08:15.125, 0.604, 0.084, 0.792, -0.732, -0.244, 0.244, 5.449, -37.321, -137.291, -18.060, -12.907, -4.987, 25.15, 0.35696, -0.28018, -0.15842, -0.87683,
 11:55:18.654,ed:40:fe:65:30:6c, 2015-01-01 00:08:15.125, 0.604, 0.083, 0.795, -0.61, -0.183, 0.183, 5.444, -37.321, -137.296, -18.060, -12.907, -4.987, 25.15, 0.35696, -0.28018, -0.15842, -0.87683,
 11:55:18.656,e3:ca:2d:fd:e0:8c, 2015-01-01 00:08:09.775, 1.011, -0.11, 0.095, -0.244, -0.793, -0.244, -48.049, -81.892, -148.337, -30.220, -11.233, -7.127, 24.49, 0.06882, 0.65967, -0.13306, 0.73642,
 11:55:18.656,e3:ca:2d:fd:e0:8c, 2015-01-01 00:08:09.775, 1.012, -0.112, 0.095, -0.122, -0.61, -0.305, -48.115, -81.903, -148.293, -30.220, -11.233, -7.127, 24.49, 0.06882, 0.65967, -0.13306, 0.73642,
 11:55:18.680,ed:35:33:d3:6c:f8, 2015-01-01 00:08:10.045, 0.333, 0.022, 0.937, -0.305, 0.549, 0.183, 1.28, -19.352, 162.647, -8.247, -11.240, -34.120, 29.7, 0.14709, 0.168, -0.01434, 0.97458,
 11:55:18.680,ed:35:33:d3:6c:f8, 2015-01-01 00:08:10.045, 0.332, 0.021, 0.937, 0, 0.488, 0.244, 1.274, -19.341, 162.664, -8.247, -11.240, -34.120, 29.7, 0.14709, 0.168, -0.01434, 0.97458,
 11:55:18.680,f6:90:cc:01:6d:25, 2015-01-01 00:08:10.220, 0.957, -0.031, 0.241, -0.366, -0.244, 0, -7.564, -75.762, -155.945, -31.087, -11.927, -4.220, 28.72, 0.12439, -0.61005, -0.07657, -0.77872,
 11:55:18.680,f6:90:cc:01:6d:25, 2015-01-01 00:08:10.220, 0.957, -0.032, 0.243, -0.244, -0.122, 0, -7.57, -75.762, -155.934, -31.087, -11.927, -4.220, 28.72, 0.12439, -0.61005, -0.07657, -0.77872,
 11:55:18.723,ed:40:fe:65:30:6c, 2015-01-01 00:08:15.125, 0.602, 0.081, 0.794, -0.427, -0.061, 0.061, 5.438, -37.321, -137.296, -18.060, -12.907, -4.987, 25.15, 0.35696, -0.28018, -0.15842, -0.87683,
 11:55:18.723,ed:40:fe:65:30:6c, 2015-01-01 00:08:15.125, 0.605, 0.083, 0.796, -0.366, -0.061, 0, 5.438, -37.315, -137.296, -18.060, -12.907, -4.987, 25.15, 0.35696, -0.28018, -0.15842, -0.87683,
 11:55:18.723,e3:ca:2d:fd:e0:8c, 2015-01-01 00:08:09.775, 1.011, -0.113, 0.098, -0.061, -0.366, -0.183, -48.159, -81.909, -148.271, -30.413, -11.173, -7.313, 24.49, 0.06882, 0.65967, -0.13306, 0.73642,
 11:55:18.723,e3:ca:2d:fd:e0:8c, 2015-01-01 00:08:09.775, 1.009, -0.114, 0.1, 0, -0.061, -0.122, -48.17, -81.903, -148.277, -30.413, -11.173, -7.313, 24.49, 0.06882, 0.65967, -0.13306, 0.73642,
 11:55:18.724,f6:90:cc:01:6d:25, 2015-01-01 00:08:10.220, 0.957, -0.034, 0.243, -0.244, 0, 0, -7.57, -75.762, -155.918, -31.087, -11.927, -4.220, 28.72, 0.12439, -0.61005, -0.07657, -0.77872,
 11:55:18.724,f6:90:cc:01:6d:25, 2015-01-01 00:08:10.220, 0.961, -0.034, 0.242, -0.244, -0.122, 0, -7.575, -75.762, -155.907, -31.087, -11.927, -4.220, 28.72, 0.12439, -0.61005, -0.07657, -0.77872,
 11:55:18.725,ed:35:33:d3:6c:f8, 2015-01-01 00:08:10.360, 0.333, 0.021, 0.937, 0.122, 0.671, 0.183, 1.274, -19.336, 162.669, -8.247, -11.240, -34.120, 29.7, 0.14709, 0.168, -0.01434, 0.97458,
 11:55:18.725,ed:35:33:d3:6c:f8, 2015-01-01 00:08:10.360, 0.334, 0.024, 0.937, 0.366, 0.854, 0.244, 1.28, -19.325, 162.669, -8.247, -11.240, -34.120, 29.7, 0.14709, 0.168, -0.01434, 0.97458,
 11:55:18.746,ed:40:fe:65:30:6c, 2015-01-01 00:08:15.125, 0.607, 0.085, 0.794, -0.183, 0, 0, 5.438, -37.315, -137.285, -18.533, -12.493, -4.553, 25.15, 0.35696, -0.28018, -0.15842, -0.87683,
 11:55:18.746,ed:40:fe:65:30:6c, 2015-01-01 00:08:15.125, 0.606, 0.084, 0.795, -0.183, 0.183, 0, 5.444, -37.31, -137.274, -18.533, -12.493, -4.553, 25.15, 0.35696, -0.28018, -0.15842, -0.87683,
 11:55:18.746,e3:ca:2d:fd:e0:8c, 2015-01-01 00:08:09.775, 1.013, -0.115, 0.097, 0, -0.122, -0.183, -48.186, -81.909, -148.288, -30.413, -11.173, -7.313, 24.49, 0.06906, 0.65979, -0.13312, 0.73627,
 11:55:18.746,e3:ca:2d:fd:e0:8c, 2015-01-01 00:08:09.775, 1.016, -0.115, 0.094, 0.122, -0.366, -0.183, -48.224, -81.909, -148.26, -30.413, -11.173, -7.313, 24.49, 0.06906, 0.65979, -0.13312, 0.73627,
 11:55:18.748,ed:35:33:d3:6c:f8, 2015-01-01 00:08:10.360, 0.335, 0.023, 0.938, 0.122, 0.732, 0.122, 1.285, -19.308, 162.664, -8.247, -11.240, -34.120, 29.7, 0.14709, 0.168, -0.01434, 0.97458,
 11:55:18.748,ed:35:33:d3:6c:f8, 2015-01-01 00:08:10.360, 0.333, 0.022, 0.943, 0.305, 0.61, 0.122, 1.291, -19.297, 162.647, -8.247, -11.240, -34.120, 29.7, 0.14709, 0.168, -0.01434, 0.97458,
 11:55:18.791,ed:40:fe:65:30:6c, 2015-01-01 00:08:15.125, 0.603, 0.082, 0.797, -0.122, 0.122, 0, 5.449, -37.304, -137.258, -18.533, -12.493, -4.553, 25.15, 0.35696, -0.28018, -0.15842, -0.87683,
 11:55:18.791,ed:40:fe:65:30:6c, 2015-01-01 00:08:15.125, 0.6, 0.084, 0.796, -0.122, 0.122, 0.061, 5.449, -37.299, -137.247, -18.533, -12.493, -4.553, 25.15, 0.35696, -0.28018, -0.15842, -0.87683,
 11:55:18.792,f6:90:cc:01:6d:25, 2015-01-01 00:08:10.220, 0.962, -0.032, 0.241, 0, -0.244, 0, -7.581, -75.767, -155.901, -31.087, -11.927, -4.220, 28.72, 0.12439, -0.61005, -0.07657, -0.77872,
 11:55:18.792,f6:90:cc:01:6d:25, 2015-01-01 00:08:10.220, 0.959, -0.034, 0.237, 0.305, 0.183, 0, -7.575, -75.762, -155.901, -31.087, -11.927, -4.220, 28.72, 0.12439, -0.61005, -0.07657, -0.77872,
 11:55:18.792,e3:ca:2d:fd:e0:8c, 2015-01-01 00:08:09.775, 1.016, -0.115, 0.097, 0.244, -0.183, -0.183, -48.241, -81.914, -148.26, -30.413, -11.173, -7.313, 24.49, 0.06906, 0.65979, -0.13312, 0.73627,
 11:55:18.792,e3:ca:2d:fd:e0:8c, 2015-01-01 00:08:09.775, 1.012, -0.116, 0.096, 0.366, 0.244, -0.122, -48.219, -81.909, -148.299, -30.413, -11.173, -7.313, 24.49, 0.06906, 0.65979, -0.13312, 0.73627,
 11:55:18.793,ed:35:33:d3:6c:f8, 2015-01-01 00:08:10.360, 0.328, 0.023, 0.943, 0.305, -0.122, 0.244, 1.296, -19.292, 162.62, -8.247, -11.240, -34.120, 29.7, 0.14709, 0.168, -0.01434, 0.97458,
 11:55:18.793,ed:35:33:d3:6c:f8, 2015-01-01 00:08:10.360, 0.331, 0.027, 0.939, 0, -0.183, 0.366, 1.296, -19.297, 162.609, -8.247, -11.240, -34.120, 29.7, 0.14709, 0.168, -0.01434, 0.97458,
 11:55:18.813,e3:ca:2d:fd:e0:8c, 2015-01-01 00:08:10.110, 1.008, -0.117, 0.092, 0.305, 0.732, -0.183, -48.142, -81.898, -148.387, -30.413, -11.173, -7.313, 24.49, 0.06906, 0.65979, -0.13312, 0.73627,
 11:55:18.813,e3:ca:2d:fd:e0:8c, 2015-01-01 00:08:10.110, 1.009, -0.116, 0.089, 0.183, 0.122, -0.183, -48.142, -81.892, -148.414, -30.413, -11.173, -7.313, 24.49, 0.06906, 0.65979, -0.13312, 0.73627,
 11:55:18.815,f6:90:cc:01:6d:25, 2015-01-01 00:08:10.220, 0.955, -0.036, 0.239, 0.122, 0.427, 0, -7.57, -75.756, -155.901, -31.380, -12.080, -3.867, 28.72, 0.12439, -0.61005, -0.07657, -0.77872,
 11:55:18.815,f6:90:cc:01:6d:25, 2015-01-01 00:08:10.220, 0.957, -0.032, 0.239, 0, 0.183, 0, -7.57, -75.745, -155.907, -31.380, -12.080, -3.867, 28.72, 0.12439, -0.61005, -0.07657, -0.77872,
 11:55:18.840,ed:35:33:d3:6c:f8, 2015-01-01 00:08:10.360, 0.333, 0.027, 0.936, -0.122, 0.244, 0.427, 1.296, -19.303, 162.598, -8.247, -11.240, -34.120, 29.7, 0.14709, 0.168, -0.01434, 0.97458,
 11:55:18.840,ed:35:33:d3:6c:f8, 2015-01-01 00:08:10.360, 0.327, 0.025, 0.936, -0.427, 0.427, 0.305, 1.291, -19.297, 162.581, -8.247, -11.240, -34.120, 29.7, 0.14709, 0.168, -0.01434, 0.97458,
 11:55:18.858,ed:40:fe:65:30:6c, 2015-01-01 00:08:15.125, 0.603, 0.087, 0.796, -0.244, 0, 0.244, 5.455, -37.293, -137.225, -18.533, -12.493, -4.553, 25.15, 0.3591, -0.28098, -0.15839, -0.87573,
 11:55:18.858,ed:40:fe:65:30:6c, 2015-01-01 00:08:15.125, 0.604, 0.087, 0.793, -0.244, -0.061, 0.366, 5.449, -37.288, -137.203, -18.533, -12.493, -4.553, 25.15, 0.3591, -0.28098, -0.15839, -0.87573,
 11:55:18.858,e3:ca:2d:fd:e0:8c, 2015-01-01 00:08:10.110, 1.012, -0.115, 0.089, 0.122, -0.488, -0.244, -48.203, -81.903, -148.376, -30.413, -11.173, -7.313, 24.49, 0.06906, 0.65979, -0.13312, 0.73627,
 11:55:18.858,e3:ca:2d:fd:e0:8c, 2015-01-01 00:08:10.110, 1.012, -0.115, 0.092, 0.244, -0.427, -0.244, -48.252, -81.909, -148.343, -30.413, -11.173, -7.313, 24.49, 0.06906, 0.65979, -0.13312, 0.73627,
 11:55:18.860,f6:90:cc:01:6d:25, 2015-01-01 00:08:10.220, 0.957, -0.033, 0.236, 0.122, 0, 0, -7.57, -75.745, -155.891, -31.380, -12.080, -3.867, 28.72, 0.12439, -0.61005, -0.07657, -0.77872,
 11:55:18.860,f6:90:cc:01:6d:25, 2015-01-01 00:08:10.220, 0.954, -0.033, 0.24, 0.061, 0, 0, -7.575, -75.745, -155.852, -31.380, -12.080, -3.867, 28.72, 0.12439, -0.61005, -0.07657, -0.77872,
 11:55:18.880,ed:40:fe:65:30:6c, 2015-01-01 00:08:15.485, 0.598, 0.084, 0.796, -0.427, -0.122, 0.366, 5.444, -37.288, -137.181, -18.533, -12.493, -4.553, 25.15, 0.3591, -0.28098, -0.15839, -0.87573,
 11:55:18.880,ed:40:fe:65:30:6c, 2015-01-01 00:08:15.485, 0.594, 0.084, 0.8, -0.427, -0.122, 0.427, 5.438, -37.288, -137.164, -18.533, -12.493, -4.553, 25.15, 0.3591, -0.28098, -0.15839, -0.87573,
 11:55:18.882,f6:90:cc:01:6d:25, 2015-01-01 00:08:10.220, 0.953, -0.033, 0.246, 0, 0.183, 0, -7.575, -75.745, -155.841, -31.380, -12.080, -3.867, 28.72, 0.12509, -0.60992, -0.07715, -0.77866,
 11:55:18.882,f6:90:cc:01:6d:25, 2015-01-01 00:08:10.220, 0.954, -0.033, 0.244, 0, 0.061, 0, -7.575, -75.745, -155.841, -31.380, -12.080, -3.867, 28.72, 0.12509, -0.60992, -0.07715, -0.77866,
 11:55:18.884,ed:35:33:d3:6c:f8, 2015-01-01 00:08:10.360, 0.322, 0.022, 0.949, -0.366, -0.549, 0.122, 1.285, -19.297, 162.565, -8.247, -11.240, -34.120, 29.7, 0.14709, 0.168, -0.01434, 0.97458,
 11:55:18.884,ed:35:33:d3:6c:f8, 2015-01-01 00:08:10.360, 0.327, 0.021, 0.942, 0.061, -1.038, 0.061, 1.28, -19.314, 162.548, -8.247, -11.240, -34.120, 29.7, 0.14709, 0.168, -0.01434, 0.97458,
 11:55:18.901,ed:40:fe:65:30:6c, 2015-01-01 00:08:15.485, 0.597, 0.084, 0.799, -0.427, -0.366, 0.366, 5.433, -37.288, -137.148, -18.533, -12.493, -4.553, 25.15, 0.3591, -0.28098, -0.15839, -0.87573,
 11:55:18.901,ed:40:fe:65:30:6c, 2015-01-01 00:08:15.485, 0.605, 0.083, 0.794, -0.305, -0.305, 0.366, 5.427, -37.293, -137.148, -18.533, -12.493, -4.553, 25.15, 0.3591, -0.28098, -0.15839, -0.87573,
 11:55:18.904,e3:ca:2d:fd:e0:8c, 2015-01-01 00:08:10.110, 1.007, -0.115, 0.095, 0.305, -0.061, -0.183, -48.268, -81.909, -148.326, -30.413, -11.173, -7.313, 24.49, 0.06906, 0.65979, -0.13312, 0.73627,
 11:55:18.904,e3:ca:2d:fd:e0:8c, 2015-01-01 00:08:10.110, 1.007, -0.114, 0.095, 0.122, -0.305, -0.183, -48.312, -81.914, -148.277, -30.413, -11.173, -7.313, 24.49, 0.06906, 0.65979, -0.13312, 0.73627,
 11:55:18.927,e3:ca:2d:fd:e0:8c, 2015-01-01 00:08:10.110, 1.009, -0.113, 0.097, 0.061, -0.61, -0.244, -48.384, -81.92, -148.217, -30.413, -11.173, -7.313, 24.49, 0.06906, 0.65979, -0.13312, 0.73627,
 11:55:18.927,e3:ca:2d:fd:e0:8c, 2015-01-01 00:08:10.110, 1.014, -0.113, 0.097, -0.061, -0.427, -0.305, -48.422, -81.925, -148.189, -30.413, -11.173, -7.313, 24.49, 0.06906, 0.65979, -0.13312, 0.73627,
 11:55:18.927,f6:90:cc:01:6d:25, 2015-01-01 00:08:10.220, 0.957, -0.032, 0.241, 0, 0.061, 0, -7.581, -75.74, -155.83, -31.380, -12.080, -3.867, 28.72, 0.12509, -0.60992, -0.07715, -0.77866,
 11:55:18.927,f6:90:cc:01:6d:25, 2015-01-01 00:08:10.220, 0.961, -0.034, 0.239, -0.183, 0, 0, -7.581, -75.74, -155.852, -31.380, -12.080, -3.867, 28.72, 0.12509, -0.60992, -0.07715, -0.77866,
 11:55:18.928,ed:35:33:d3:6c:f8, 2015-01-01 00:08:10.360, 0.337, 0.021, 0.934, 0.122, -0.488, 0, 1.285, -19.33, 162.554, -8.040, -11.380, -33.413, 29.7, 0.14709, 0.168, -0.01434, 0.97458,
 11:55:18.928,ed:35:33:d3:6c:f8, 2015-01-01 00:08:10.360, 0.338, 0.021, 0.937, 0, -0.977, 0, 1.285, -19.341, 162.565, -8.040, -11.380, -33.413, 29.7, 0.14709, 0.168, -0.01434, 0.97458,
 11:55:18.946,ed:40:fe:65:30:6c, 2015-01-01 00:08:15.485, 0.606, 0.081, 0.793, -0.488, -0.183, 0.183, 5.422, -37.293, -137.142, -18.533, -12.493, -4.553, 25.15, 0.3591, -0.28098, -0.15839, -0.87573,
 11:55:18.946,ed:40:fe:65:30:6c, 2015-01-01 00:08:15.485, 0.609, 0.083, 0.793, -0.549, -0.122, 0.122, 5.422, -37.293, -137.148, -18.533, -12.493, -4.553, 25.15, 0.3591, -0.28098, -0.15839, -0.87573,
 11:55:18.952,ed:35:33:d3:6c:f8, 2015-01-01 00:08:10.360, 0.339, 0.022, 0.934, -0.305, -0.793, 0.061, 1.285, -19.363, 162.576, -8.040, -11.380, -33.413, 29.7, 0.14737, 0.16794, -0.0145, 0.97455,
 11:55:18.952,ed:35:33:d3:6c:f8, 2015-01-01 00:08:10.360, 0.34, 0.025, 0.935, -0.732, 0.793, 0.183, 1.28, -19.369, 162.581, -8.040, -11.380, -33.413, 29.7, 0.14737, 0.16794, -0.0145, 0.97455,
 11:55:18.972,f6:90:cc:01:6d:25, 2015-01-01 00:08:10.575, 0.963, -0.032, 0.241, -0.305, -0.122, 0, -7.592, -75.74, -155.885, -31.380, -12.080, -3.867, 28.72, 0.12509, -0.60992, -0.07715, -0.77866,
 11:55:18.972,f6:90:cc:01:6d:25, 2015-01-01 00:08:10.575, 0.961, -0.031, 0.24, -0.122, 0.061, 0, -7.597, -75.74, -155.907, -31.380, -12.080, -3.867, 28.72, 0.12509, -0.60992, -0.07715, -0.77866,
 11:55:18.992,ed:40:fe:65:30:6c, 2015-01-01 00:08:15.485, 0.609, 0.086, 0.795, -0.427, 0.122, 0, 5.416, -37.288, -137.164, -18.533, -12.493, -4.553, 25.15, 0.3591, -0.28098, -0.15839, -0.87573,
 11:55:18.992,ed:40:fe:65:30:6c, 2015-01-01 00:08:15.485, 0.604, 0.086, 0.794, -0.549, 0.305, -0.061, 5.416, -37.282, -137.186, -18.533, -12.493, -4.553, 25.15, 0.3591, -0.28098, -0.15839, -0.87573,
 11:55:18.995,f6:90:cc:01:6d:25, 2015-01-01 00:08:10.575, 0.958, -0.033, 0.24, -0.122, 0.366, 0, -7.603, -75.74, -155.934, -31.380, -12.080, -3.867, 28.72, 0.12509, -0.60992, -0.07715, -0.77866,
 11:55:18.995,f6:90:cc:01:6d:25, 2015-01-01 00:08:10.575, 0.956, -0.032, 0.24, -0.122, 0.549, 0, -7.603, -75.734, -155.967, -31.380, -12.080, -3.867, 28.72, 0.12509, -0.60992, -0.07715, -0.77866,
 11:55:18.996,ed:35:33:d3:6c:f8, 2015-01-01 00:08:10.360, 0.333, 0.026, 0.938, -0.732, 1.465, 0, 1.269, -19.352, 162.587, -8.040, -11.380, -33.413, 29.7, 0.14737, 0.16794, -0.0145, 0.97455,
 11:55:18.996,ed:35:33:d3:6c:f8, 2015-01-01 00:08:10.360, 0.328, 0.026, 0.942, -0.366, 1.099, 0, 1.258, -19.33, 162.587, -8.040, -11.380, -33.413, 29.7, 0.14737, 0.16794, -0.0145, 0.97455,
 11:55:19.016,e3:ca:2d:fd:e0:8c, 2015-01-01 00:08:10.110, 1.017, -0.114, 0.095, -0.061, -0.244, -0.366, -48.439, -81.931, -148.173, -30.413, -11.173, -7.313, 24.49, 0.06906, 0.65979, -0.13312, 0.73627,
 11:55:19.016,e3:ca:2d:fd:e0:8c, 2015-01-01 00:08:10.110, 1.015, -0.114, 0.095, 0, -0.061, -0.244, -48.444, -81.936, -148.162, -30.413, -11.173, -7.313, 24.49, 0.06906, 0.65979, -0.13312, 0.73627,
 11:55:19.038,e3:ca:2d:fd:e0:8c, 2015-01-01 00:08:10.110, 1.013, -0.114, 0.097, 0.122, 0, -0.244, -48.444, -81.936, -148.167, -30.720, -11.147, -7.013, 24.49, 0.06906, 0.65979, -0.13312, 0.73627,
 11:55:19.038,e3:ca:2d:fd:e0:8c, 2015-01-01 00:08:10.110, 1.01, -0.116, 0.095, 0.488, 0.366, -0.183, -48.4, -81.931, -148.195, -30.720, -11.147, -7.013, 24.49, 0.06906, 0.65979, -0.13312, 0.73627,
 11:55:19.039,f6:90:cc:01:6d:25, 2015-01-01 00:08:10.575, 0.955, -0.033, 0.238, -0.061, 0.61, 0, -7.597, -75.723, -156, -31.380, -12.080, -3.867, 28.72, 0.12509, -0.60992, -0.07715, -0.77866,
 11:55:19.039,f6:90:cc:01:6d:25, 2015-01-01 00:08:10.575, 0.955, -0.035, 0.237, -0.122, 0.244, 0, -7.597, -75.712, -156.033, -31.380, -12.080, -3.867, 28.72, 0.12509, -0.60992, -0.07715, -0.77866,
 11:55:19.041,ed:35:33:d3:6c:f8, 2015-01-01 00:08:10.650, 0.329, 0.024, 0.938, -0.061, 0.793, 0.183, 1.252, -19.314, 162.587, -8.040, -11.380, -33.413, 29.7, 0.14737, 0.16794, -0.0145, 0.97455,
 11:55:19.041,ed:35:33:d3:6c:f8, 2015-01-01 00:08:10.650, 0.329, 0.021, 0.939, 0.061, 0.549, 0, 1.252, -19.303, 162.598, -8.040, -11.380, -33.413, 29.7, 0.14737, 0.16794, -0.0145, 0.97455,
 11:55:19.061,ed:40:fe:65:30:6c, 2015-01-01 00:08:15.485, 0.6, 0.086, 0.797, -0.61, 0.244, 0, 5.411, -37.271, -137.203, -18.533, -12.493, -4.553, 25.15, 0.3591, -0.28098, -0.15839, -0.87573,
 11:55:19.061,ed:40:fe:65:30:6c, 2015-01-01 00:08:15.485, 0.6, 0.085, 0.796, -0.427, 0.244, 0.061, 5.405, -37.266, -137.225, -18.533, -12.493, -4.553, 25.15, 0.3591, -0.28098, -0.15839, -0.87573,
 11:55:19.083,ed:40:fe:65:30:6c, 2015-01-01 00:08:15.485, 0.601, 0.083, 0.796, -0.244, 0, 0, 5.405, -37.26, -137.241, -18.227, -12.420, -5.307, 25.15, 0.3591, -0.28098, -0.15839, -0.87573,
 11:55:19.083,ed:40:fe:65:30:6c, 2015-01-01 00:08:15.485, 0.599, 0.081, 0.795, -0.122, 0, 0, 5.411, -37.255, -137.252, -18.227, -12.420, -5.307, 25.15, 0.3591, -0.28098, -0.15839, -0.87573,
 11:55:19.084,e3:ca:2d:fd:e0:8c, 2015-01-01 00:08:10.110, 1.009, -0.115, 0.093, 0.488, 0.549, -0.183, -48.34, -81.92, -148.239, -30.720, -11.147, -7.013, 24.49, 0.06906, 0.65979, -0.13312, 0.73627,
 11:55:19.084,e3:ca:2d:fd:e0:8c, 2015-01-01 00:08:10.110, 1.01, -0.114, 0.089, 0.305, 0.488, -0.122, -48.296, -81.914, -148.277, -30.720, -11.147, -7.013, 24.49, 0.06906, 0.65979, -0.13312, 0.73627,
 11:55:19.085,ed:35:33:d3:6c:f8, 2015-01-01 00:08:10.650, 0.33, 0.021, 0.936, -0.183, 0.488, -0.061, 1.252, -19.292, 162.603, -8.040, -11.380, -33.413, 29.7, 0.14737, 0.16794, -0.0145, 0.97455,
 11:55:19.085,ed:35:33:d3:6c:f8, 2015-01-01 00:08:10.650, 0.329, 0.025, 0.946, 0, -0.427, 0.244, 1.252, -19.292, 162.614, -8.040, -11.380, -33.413, 29.7, 0.14737, 0.16794, -0.0145, 0.97455,
 11:55:19.085,f6:90:cc:01:6d:25, 2015-01-01 00:08:10.575, 0.954, -0.035, 0.238, -0.061, -0.122, 0, -7.597, -75.712, -156.066, -31.380, -12.080, -3.867, 28.72, 0.12509, -0.60992, -0.07715, -0.77866,
 11:55:19.085,f6:90:cc:01:6d:25, 2015-01-01 00:08:10.575, 0.955, -0.034, 0.238, 0, -0.183, 0, -7.603, -75.712, -156.083, -31.380, -12.080, -3.867, 28.72, 0.12509, -0.60992, -0.07715, -0.77866,
 11:55:19.106,e3:ca:2d:fd:e0:8c, 2015-01-01 00:08:10.110, 1.01, -0.114, 0.087, 0.061, 0.061, -0.122, -48.312, -81.909, -148.266, -30.720, -11.147, -7.013, 24.49, 0.06964, 0.65976, -0.13376, 0.73611,
 11:55:19.106,e3:ca:2d:fd:e0:8c, 2015-01-01 00:08:10.110, 1.008, -0.114, 0.088, 0.122, -0.183, -0.183, -48.345, -81.914, -148.217, -30.720, -11.147, -7.013, 24.49, 0.06964, 0.65976, -0.13376, 0.73611,
 11:55:19.130,f6:90:cc:01:6d:25, 2015-01-01 00:08:10.575, 0.958, -0.031, 0.238, 0, -0.427, 0, -7.614, -75.718, -156.072, -31.380, -12.080, -3.867, 28.72, 0.12509, -0.60992, -0.07715, -0.77866,
 11:55:19.130,f6:90:cc:01:6d:25, 2015-01-01 00:08:10.575, 0.959, -0.031, 0.238, 0, -0.61, 0, -7.619, -75.729, -156.072, -31.380, -12.080, -3.867, 28.72, 0.12509, -0.60992, -0.07715, -0.77866,
 11:55:19.131,ed:35:33:d3:6c:f8, 2015-01-01 00:08:10.650, 0.337, 0.024, 0.936, 0.977, -0.549, 0.244, 1.263, -19.308, 162.625, -8.040, -11.380, -33.413, 29.7, 0.14737, 0.16794, -0.0145, 0.97455,
 11:55:19.131,ed:35:33:d3:6c:f8, 2015-01-01 00:08:10.650, 0.337, 0.022, 0.93, 0.427, 0.061, -0.122, 1.28, -19.314, 162.625, -8.040, -11.380, -33.413, 29.7, 0.14737, 0.16794, -0.0145, 0.97455,
 11:55:19.149,ed:40:fe:65:30:6c, 2015-01-01 00:08:15.485, 0.6, 0.085, 0.795, 0, 0, 0.183, 5.416, -37.255, -137.263, -18.227, -12.420, -5.307, 25.15, 0.3591, -0.28098, -0.15839, -0.87573,
 11:55:19.149,ed:40:fe:65:30:6c, 2015-01-01 00:08:15.485, 0.604, 0.086, 0.794, 0.061, -0.061, 0.244, 5.422, -37.249, -137.274, -18.227, -12.420, -5.307, 25.15, 0.3591, -0.28098, -0.15839, -0.87573,
 11:55:19.151,e3:ca:2d:fd:e0:8c, 2015-01-01 00:08:10.110, 1.01, -0.115, 0.09, 0.183, -0.671, -0.183, -48.433, -81.925, -148.123, -30.720, -11.147, -7.013, 24.49, 0.06964, 0.65976, -0.13376, 0.73611,
 11:55:19.151,e3:ca:2d:fd:e0:8c, 2015-01-01 00:08:10.110, 1.012, -0.112, 0.093, 0, -0.916, -0.183, -48.549, -81.936, -148.008, -30.720, -11.147, -7.013, 24.49, 0.06964, 0.65976, -0.13376, 0.73611,
 11:55:19.153,ed:35:33:d3:6c:f8, 2015-01-01 00:08:10.650, 0.333, 0.022, 0.938, -0.122, 0.61, -0.244, 1.285, -19.308, 162.609, -8.040, -11.380, -33.413, 29.7, 0.14737, 0.16794, -0.0145, 0.97455,
 11:55:19.153,ed:35:33:d3:6c:f8, 2015-01-01 00:08:10.650, 0.328, 0.024, 0.944, 0, 0.366, 0, 1.285, -19.303, 162.592, -8.040, -11.380, -33.413, 29.7, 0.14737, 0.16794, -0.0145, 0.97455,
 11:55:19.173,ed:40:fe:65:30:6c, 2015-01-01 00:08:15.485, 0.607, 0.083, 0.793, -0.061, 0.061, 0.061, 5.427, -37.249, -137.302, -18.227, -12.420, -5.307, 25.15, 0.3587, -0.28076, -0.15793, -0.87604,
 11:55:19.173,ed:40:fe:65:30:6c, 2015-01-01 00:08:15.485, 0.604, 0.082, 0.796, -0.305, 0, -0.183, 5.433, -37.244, -137.324, -18.227, -12.420, -5.307, 25.15, 0.3587, -0.28076, -0.15793, -0.87604,
 11:55:19.174,e3:ca:2d:fd:e0:8c, 2015-01-01 00:08:10.470, 1.017, -0.113, 0.096, 0.061, -0.854, -0.122, -48.653, -81.947, -147.892, -30.720, -11.147, -7.013, 24.49, 0.06964, 0.65976, -0.13376, 0.73611,
 11:55:19.174,e3:ca:2d:fd:e0:8c, 2015-01-01 00:08:10.470, 1.015, -0.115, 0.097, 0.061, -0.061, -0.122, -48.702, -81.947, -147.849, -30.720, -11.147, -7.013, 24.49, 0.06964, 0.65976, -0.13376, 0.73611,
 11:55:19.198,ed:35:33:d3:6c:f8, 2015-01-01 00:08:10.650, 0.33, 0.022, 0.942, 0.061, 0.183, -0.305, 1.291, -19.297, 162.565, -8.040, -11.380, -33.413, 29.7, 0.14737, 0.16794, -0.0145, 0.97455,
 11:55:19.198,ed:35:33:d3:6c:f8, 2015-01-01 00:08:10.650, 0.329, 0.027, 0.935, -0.549, 1.709, 0, 1.291, -19.281, 162.537, -8.040, -11.380, -33.413, 29.7, 0.14737, 0.16794, -0.0145, 0.97455,
 11:55:19.198,f6:90:cc:01:6d:25, 2015-01-01 00:08:10.575, 0.961, -0.032, 0.239, 0, -0.488, 0, -7.63, -75.745, -156.05, -31.240, -12.567, -3.733, 28.72, 0.12509, -0.60992, -0.07715, -0.77866,
 11:55:19.198,f6:90:cc:01:6d:25, 2015-01-01 00:08:10.575, 0.961, -0.032, 0.243, -0.183, -0.061, 0, -7.635, -75.751, -156.017, -31.240, -12.567, -3.733, 28.72, 0.12509, -0.60992, -0.07715, -0.77866,
 11:55:19.218,e3:ca:2d:fd:e0:8c, 2015-01-01 00:08:10.470, 1.013, -0.116, 0.096, 0, 0.305, -0.061, -48.708, -81.947, -147.843, -30.720, -11.147, -7.013, 24.49, 0.06964, 0.65976, -0.13376, 0.73611,
 11:55:19.218,e3:ca:2d:fd:e0:8c, 2015-01-01 00:08:10.470, 1.009, -0.116, 0.094, 0.122, 0.549, -0.061, -48.686, -81.942, -147.881, -30.720, -11.147, -7.013, 24.49, 0.06964, 0.65976, -0.13376, 0.73611,
 11:55:19.218,ed:40:fe:65:30:6c, 2015-01-01 00:08:15.485, 0.601, 0.085, 0.8, -0.366, -0.122, -0.061, 5.433, -37.244, -137.346, -18.227, -12.420, -5.307, 25.15, 0.3587, -0.28076, -0.15793, -0.87604,
 11:55:19.218,ed:40:fe:65:30:6c, 2015-01-01 00:08:15.485, 0.602, 0.085, 0.8, -0.488, -0.183, -0.183, 5.433, -37.244, -137.384, -18.227, -12.420, -5.307, 25.15, 0.3587, -0.28076, -0.15793, -0.87604,
 11:55:19.221,f6:90:cc:01:6d:25, 2015-01-01 00:08:10.575, 0.961, -0.033, 0.243, 0, 0.122, 0, -7.635, -75.751, -155.995, -31.240, -12.567, -3.733, 28.72, 0.12378, -0.61011, -0.07596, -0.77884,
 11:55:19.221,f6:90:cc:01:6d:25, 2015-01-01 00:08:10.575, 0.958, -0.033, 0.241, 0.122, 0.366, 0, -7.635, -75.745, -155.978, -31.240, -12.567, -3.733, 28.72, 0.12378, -0.61011, -0.07596, -0.77884,
 11:55:19.240,ed:40:fe:65:30:6c, 2015-01-01 00:08:15.840, 0.602, 0.086, 0.799, -0.427, -0.183, -0.122, 5.438, -37.244, -137.417, -18.227, -12.420, -5.307, 25.15, 0.3587, -0.28076, -0.15793, -0.87604,
 11:55:19.240,ed:40:fe:65:30:6c, 2015-01-01 00:08:15.840, 0.592, 0.086, 0.796, -0.305, 0, 0.061, 5.438, -37.238, -137.422, -18.227, -12.420, -5.307, 25.15, 0.3587, -0.28076, -0.15793, -0.87604,
 11:55:19.243,ed:35:33:d3:6c:f8, 2015-01-01 00:08:10.650, 0.317, 0.027, 0.935, -0.916, 3.54, 0.549, 1.274, -19.232, 162.537, -7.767, -11.340, -33.540, 29.7, 0.14737, 0.16794, -0.0145, 0.97455,
 11:55:19.243,ed:35:33:d3:6c:f8, 2015-01-01 00:08:10.650, 0.331, 0.021, 0.943, -1.16, 3.479, 0.549, 1.252, -19.166, 162.543, -7.767, -11.340, -33.540, 29.7, 0.14737, 0.16794, -0.0145, 0.97455,
 11:55:19.262,ed:40:fe:65:30:6c, 2015-01-01 00:08:15.840, 0.603, 0.084, 0.801, -0.366, -0.122, 0.122, 5.438, -37.238, -137.411, -18.227, -12.420, -5.307, 25.15, 0.3587, -0.28076, -0.15793, -0.87604,
 11:55:19.262,ed:40:fe:65:30:6c, 2015-01-01 00:08:15.840, 0.604, 0.083, 0.794, -0.244, -0.366, 0.061, 5.438, -37.238, -137.411, -18.227, -12.420, -5.307, 25.15, 0.3587, -0.28076, -0.15793, -0.87604,
 11:55:19.263,e3:ca:2d:fd:e0:8c, 2015-01-01 00:08:10.470, 1.005, -0.116, 0.094, 0.183, 0.916, 0, -48.636, -81.931, -147.925, -30.720, -11.147, -7.013, 24.49, 0.06964, 0.65976, -0.13376, 0.73611,
 11:55:19.263,e3:ca:2d:fd:e0:8c, 2015-01-01 00:08:10.470, 1.01, -0.116, 0.089, 0.122, 0.366, -0.061, -48.576, -81.914, -147.969, -30.720, -11.147, -7.013, 24.49, 0.06964, 0.65976, -0.13376, 0.73611,
 11:55:19.264,f6:90:cc:01:6d:25, 2015-01-01 00:08:10.575, 0.952, -0.034, 0.24, 0.061, 0.488, 0, -7.63, -75.74, -155.973, -31.240, -12.567, -3.733, 28.72, 0.12378, -0.61011, -0.07596, -0.77884,
 11:55:19.264,f6:90:cc:01:6d:25, 2015-01-01 00:08:10.575, 0.955, -0.034, 0.242, 0.061, 0.549, 0, -7.625, -75.729, -155.973, -31.240, -12.567, -3.733, 28.72, 0.12378, -0.61011, -0.07596, -0.77884,
 11:55:19.286,f6:90:cc:01:6d:25, 2015-01-01 00:08:10.910, 0.956, -0.035, 0.237, 0.305, 0.183, 0, -7.625, -75.723, -155.967, -31.240, -12.567, -3.733, 28.72, 0.12378, -0.61011, -0.07596, -0.77884,
 11:55:19.286,f6:90:cc:01:6d:25, 2015-01-01 00:08:10.910, 0.953, -0.035, 0.24, 0.305, -0.427, 0, -7.625, -75.723, -155.956, -31.240, -12.567, -3.733, 28.72, 0.12378, -0.61011, -0.07596, -0.77884,
 11:55:19.286,e3:ca:2d:fd:e0:8c, 2015-01-01 00:08:10.470, 1.012, -0.116, 0.088, 0.183, -0.488, -0.061, -48.582, -81.914, -147.942, -30.720, -11.147, -7.013, 24.49, 0.06964, 0.65976, -0.13376, 0.73611,
 11:55:19.286,e3:ca:2d:fd:e0:8c, 2015-01-01 00:08:10.470, 1.009, -0.117, 0.091, 0.061, -0.488, -0.122, -48.653, -81.914, -147.854, -30.720, -11.147, -7.013, 24.49, 0.06964, 0.65976, -0.13376, 0.73611,
 11:55:19.288,ed:35:33:d3:6c:f8, 2015-01-01 00:08:10.650, 0.33, 0.021, 0.943, -1.16, 1.465, 0.305, 1.23, -19.116, 162.526, -7.767, -11.340, -33.540, 29.7, 0.14789, 0.1658, -0.01468, 0.97485,
 11:55:19.288,ed:35:33:d3:6c:f8, 2015-01-01 00:08:10.650, 0.315, 0.024, 0.945, -1.526, 1.038, 0.244, 1.203, -19.094, 162.499, -7.767, -11.340, -33.540, 29.7, 0.14789, 0.1658, -0.01468, 0.97485,
 11:55:19.307,ed:40:fe:65:30:6c, 2015-01-01 00:08:15.840, 0.593, 0.084, 0.8, -0.488, -1.221, 0.183, 5.433, -37.255, -137.422, -18.227, -12.420, -5.307, 25.15, 0.3587, -0.28076, -0.15793, -0.87604,
 11:55:19.307,ed:40:fe:65:30:6c, 2015-01-01 00:08:15.840, 0.594, 0.085, 0.807, -0.122, -1.282, 0.61, 5.433, -37.277, -137.428, -18.227, -12.420, -5.307, 25.15, 0.3587, -0.28076, -0.15793, -0.87604,
 11:55:19.332,f6:90:cc:01:6d:25, 2015-01-01 00:08:10.910, 0.953, -0.037, 0.244, 0, -0.366, 0, -7.63, -75.734, -155.951, -31.240, -12.567, -3.733, 28.72, 0.12378, -0.61011, -0.07596, -0.77884,
 11:55:19.332,f6:90:cc:01:6d:25, 2015-01-01 00:08:10.910, 0.953, -0.035, 0.246, -0.122, -0.183, 0, -7.641, -75.74, -155.956, -31.240, -12.567, -3.733, 28.72, 0.12378, -0.61011, -0.07596, -0.77884,
 11:55:19.333,ed:35:33:d3:6c:f8, 2015-01-01 00:08:10.960, 0.32, 0.024, 0.954, -0.732, -0.977, 0.793, 1.181, -19.094, 162.455, -7.767, -11.340, -33.540, 29.7, 0.14789, 0.1658, -0.01468, 0.97485,
 11:55:19.333,ed:35:33:d3:6c:f8, 2015-01-01 00:08:10.960, 0.33, 0.022, 0.95, 0, -3.113, 0.977, 1.17, -19.138, 162.427, -7.767, -11.340, -33.540, 29.7, 0.14789, 0.1658, -0.01468, 0.97485,
 11:55:19.353,e3:ca:2d:fd:e0:8c, 2015-01-01 00:08:10.470, 1.008, -0.117, 0.094, 0, -0.488, -0.244, -48.724, -81.925, -147.788, -30.720, -11.147, -7.013, 24.49, 0.06964, 0.65976, -0.13376, 0.73611,
 11:55:19.353,e3:ca:2d:fd:e0:8c, 2015-01-01 00:08:10.470, 1.008, -0.115, 0.096, 0, -0.61, -0.305, -48.79, -81.931, -147.728, -30.720, -11.147, -7.013, 24.49, 0.06964, 0.65976, -0.13376, 0.73611,
