Time,Device name,Chip Time(),Acceleration X(g),Acceleration Y(g),Acceleration Z(g),Angular velocity X(°/s),Angular velocity Y(°/s),Angular velocity Z(°/s),Angle X(°),Angle Y(°),Angle Z(°),Magnetic field X(ʯt),Magnetic field Y(ʯt),Magnetic field Z(ʯt),Temperature(℃),Quaternions 0(),Quaternions 1(),Quaternions 2(),Quaternions 3()
 12:02:10.982,ed:40:fe:65:30:6c, 2015-01-01 00:15:04.640, 0.826, 0.08, 0.557, -0.549, -0.732, -2.319, 7.394, -56.393, -134.517, -24.007, -12.867, 1.320, 26.57, 0.36758, -0.41376, -0.23407, -0.79922,
 12:02:10.982,ed:40:fe:65:30:6c, 2015-01-01 00:15:04.640, 0.826, 0.083, 0.556, -1.038, -0.61, -2.625, 7.46, -56.393, -134.61, -24.007, -12.867, 1.320, 26.57, 0.36758, -0.41376, -0.23407, -0.79922,
 12:02:10.984,e3:ca:2d:fd:e0:8c, 2015-01-01 00:14:59.315, 0.994, -0.185, 0.106, 0.305, 1.16, -0.061, -59.557, -78.283, -136.143, -30.693, -9.373, -7.760, 25.78, 0.03793, 0.65308, -0.15182, 0.74088,
 12:02:10.984,e3:ca:2d:fd:e0:8c, 2015-01-01 00:14:59.315, 0.996, -0.186, 0.109, 0.61, 0.671, 0.122, -59.491, -78.272, -136.219, -30.693, -9.373, -7.760, 25.78, 0.03793, 0.65308, -0.15182, 0.74088,
 12:02:10.985,f6:90:cc:01:6d:25, 2015-01-01 00:14:59.485, 0.969, -0.078, 0.135, -0.916, -1.648, -0.061, -32.311, -81.178, -136.362, -31.820, -11.960, -1.380, 30.09, 0.10483, -0.65836, -0.03598, -0.74445,
 12:02:10.985,f6:90:cc:01:6d:25, 2015-01-01 00:14:59.485, 0.971, -0.077, 0.134, -0.916, -1.77, 0.061, -32.432, -81.205, -136.241, -31.820, -11.960, -1.380, 30.09, 0.10483, -0.65836, -0.03598, -0.74445,
 12:02:11.006,e3:ca:2d:fd:e0:8c, 2015-01-01 00:14:59.315, 0.997, -0.187, 0.109, 0.732, 0.427, 0.183, -59.458, -78.261, -136.258, -30.693, -9.373, -7.760, 25.78, 0.03793, 0.65308, -0.15182, 0.74088,
 12:02:11.006,e3:ca:2d:fd:e0:8c, 2015-01-01 00:14:59.315, 0.999, -0.188, 0.109, 0.732, 0.305, 0.122, -59.436, -78.25, -136.269, -30.693, -9.373, -7.760, 25.78, 0.03793, 0.65308, -0.15182, 0.74088,
 12:02:11.009,f6:90:cc:01:6d:25, 2015-01-01 00:14:59.485, 0.974, -0.079, 0.133, -1.099, -1.77, 0.244, -32.574, -81.233, -136.099, -31.820, -11.960, -1.380, 30.09, 0.103, -0.65906, -0.0361, -0.74405,
 12:02:11.009,f6:90:cc:01:6d:25, 2015-01-01 00:14:59.485, 0.973, -0.083, 0.132, -0.854, -1.404, 0.305, -32.712, -81.255, -135.972, -31.820, -11.960, -1.380, 30.09, 0.103, -0.65906, -0.0361, -0.74405,
 12:02:11.010,ed:35:33:d3:6c:f8, 2015-01-01 00:14:59.690, 0.662, 0.114, 0.725, -0.366, 1.099, -2.808, 8.262, -42.22, 144.382, -16.627, -13.887, -26.220, 31.4, 0.25769, 0.3627, -0.04636, 0.89429,
 12:02:11.010,ed:35:33:d3:6c:f8, 2015-01-01 00:14:59.690, 0.663, 0.118, 0.728, 0, 2.197, -2.747, 8.306, -42.182, 144.294, -16.627, -13.887, -26.220, 31.4, 0.25769, 0.3627, -0.04636, 0.89429,
 12:02:11.051,ed:40:fe:65:30:6c, 2015-01-01 00:15:04.640, 0.827, 0.081, 0.558, -0.366, -0.244, -2.136, 7.526, -56.393, -134.703, -24.007, -12.867, 1.320, 26.57, 0.36758, -0.41376, -0.23407, -0.79922,
 12:02:11.051,ed:40:fe:65:30:6c, 2015-01-01 00:15:04.640, 0.83, 0.078, 0.557, -0.061, 0, -1.587, 7.592, -56.387, -134.775, -24.007, -12.867, 1.320, 26.57, 0.36758, -0.41376, -0.23407, -0.79922,
 12:02:11.053,f6:90:cc:01:6d:25, 2015-01-01 00:14:59.485, 0.976, -0.086, 0.129, -0.366, -1.16, 0.244, -32.827, -81.271, -135.862, -31.820, -11.960, -1.380, 30.09, 0.103, -0.65906, -0.0361, -0.74405,
 12:02:11.053,f6:90:cc:01:6d:25, 2015-01-01 00:14:59.485, 0.975, -0.087, 0.125, 0.244, -0.732, 0.122, -32.899, -81.282, -135.797, -31.820, -11.960, -1.380, 30.09, 0.103, -0.65906, -0.0361, -0.74405,
 12:02:11.055,ed:35:33:d3:6c:f8, 2015-01-01 00:14:59.690, 0.664, 0.116, 0.731, 0.671, 1.709, -1.709, 8.355, -42.133, 144.24, -16.627, -13.887, -26.220, 31.4, 0.25769, 0.3627, -0.04636, 0.89429,
 12:02:11.055,ed:35:33:d3:6c:f8, 2015-01-01 00:14:59.690, 0.667, 0.113, 0.734, 0.854, 0.732, -1.038, 8.399, -42.1, 144.207, -16.627, -13.887, -26.220, 31.4, 0.25769, 0.3627, -0.04636, 0.89429,
 12:02:11.074,e3:ca:2d:fd:e0:8c, 2015-01-01 00:14:59.315, 1, -0.19, 0.106, 0.732, 0.122, 0.061, -59.425, -78.245, -136.269, -30.693, -9.373, -7.760, 25.78, 0.03793, 0.65308, -0.15182, 0.74088,
 12:02:11.074,e3:ca:2d:fd:e0:8c, 2015-01-01 00:14:59.315, 1.001, -0.189, 0.104, 0.793, 0.183, 0, -59.414, -78.234, -136.269, -30.693, -9.373, -7.760, 25.78, 0.03793, 0.65308, -0.15182, 0.74088,
 12:02:11.075,f6:90:cc:01:6d:25, 2015-01-01 00:14:59.825, 0.975, -0.085, 0.124, 0.061, -0.793, 0, -32.948, -81.293, -135.747, -31.820, -11.960, -1.380, 30.09, 0.103, -0.65906, -0.0361, -0.74405,
 12:02:11.075,f6:90:cc:01:6d:25, 2015-01-01 00:14:59.825, 0.975, -0.082, 0.126, -0.183, -1.16, 0.061, -33.019, -81.304, -135.681, -31.820, -11.960, -1.380, 30.09, 0.103, -0.65906, -0.0361, -0.74405,
 12:02:11.077,ed:35:33:d3:6c:f8, 2015-01-01 00:14:59.690, 0.667, 0.114, 0.734, 0.671, -0.305, -1.099, 8.432, -42.089, 144.163, -16.627, -13.887, -26.220, 31.4, 0.25769, 0.3627, -0.04636, 0.89429,
 12:02:11.077,ed:35:33:d3:6c:f8, 2015-01-01 00:14:59.690, 0.664, 0.116, 0.732, 0.549, -0.61, -1.099, 8.47, -42.094, 144.113, -16.627, -13.887, -26.220, 31.4, 0.25769, 0.3627, -0.04636, 0.89429,
 12:02:11.095,ed:40:fe:65:30:6c, 2015-01-01 00:15:04.640, 0.831, 0.08, 0.561, -0.427, -0.122, -1.282, 7.641, -56.376, -134.835, -24.007, -12.867, 1.320, 26.57, 0.36758, -0.41376, -0.23407, -0.79922,
 12:02:11.095,ed:40:fe:65:30:6c, 2015-01-01 00:15:04.640, 0.831, 0.081, 0.558, -0.732, -0.183, -1.282, 7.674, -56.371, -134.896, -24.007, -12.867, 1.320, 26.57, 0.36758, -0.41376, -0.23407, -0.79922,
 12:02:11.096,e3:ca:2d:fd:e0:8c, 2015-01-01 00:14:59.315, 1, -0.188, 0.103, 0.793, 0.244, 0, -59.392, -78.228, -136.291, -30.587, -9.633, -7.707, 25.78, 0.03793, 0.65308, -0.15182, 0.74088,
 12:02:11.096,e3:ca:2d:fd:e0:8c, 2015-01-01 00:14:59.315, 1, -0.187, 0.104, 0.427, 0.305, 0, -59.376, -78.223, -136.318, -30.587, -9.633, -7.707, 25.78, 0.03793, 0.65308, -0.15182, 0.74088,
 12:02:11.117,ed:40:fe:65:30:6c, 2015-01-01 00:15:04.640, 0.829, 0.085, 0.557, -0.549, -0.488, -1.282, 7.707, -56.365, -134.967, -23.873, -13.873, 0.853, 26.57, 0.36758, -0.41376, -0.23407, -0.79922,
 12:02:11.117,ed:40:fe:65:30:6c, 2015-01-01 00:15:04.640, 0.829, 0.087, 0.561, -0.671, -0.427, -1.16, 7.74, -56.365, -135.044, -23.873, -13.873, 0.853, 26.57, 0.36758, -0.41376, -0.23407, -0.79922,
 12:02:11.119,f6:90:cc:01:6d:25, 2015-01-01 00:14:59.825, 0.975, -0.08, 0.128, -0.305, -1.404, 0.183, -33.124, -81.321, -135.588, -31.820, -11.960, -1.380, 30.09, 0.103, -0.65906, -0.0361, -0.74405,
 12:02:11.119,f6:90:cc:01:6d:25, 2015-01-01 00:14:59.825, 0.974, -0.083, 0.127, -0.427, -1.404, 0.183, -33.245, -81.343, -135.483, -31.820, -11.960, -1.380, 30.09, 0.103, -0.65906, -0.0361, -0.74405,
 12:02:11.141,e3:ca:2d:fd:e0:8c, 2015-01-01 00:14:59.315, 0.999, -0.187, 0.104, 0, 0.122, -0.122, -59.37, -78.217, -136.346, -30.587, -9.633, -7.707, 25.78, 0.03793, 0.65308, -0.15182, 0.74088,
 12:02:11.141,e3:ca:2d:fd:e0:8c, 2015-01-01 00:14:59.315, 1, -0.188, 0.104, 0, -0.183, -0.244, -59.381, -78.217, -136.34, -30.587, -9.633, -7.707, 25.78, 0.03793, 0.65308, -0.15182, 0.74088,
 12:02:11.145,ed:35:33:d3:6c:f8, 2015-01-01 00:14:59.690, 0.662, 0.12, 0.732, 0.366, -0.305, -1.16, 8.509, -42.1, 144.064, -16.627, -13.887, -26.220, 31.4, 0.25769, 0.3627, -0.04636, 0.89429,
 12:02:11.145,ed:35:33:d3:6c:f8, 2015-01-01 00:14:59.690, 0.666, 0.122, 0.732, 0.244, -0.671, -1.343, 8.542, -42.105, 143.998, -16.627, -13.887, -26.220, 31.4, 0.25769, 0.3627, -0.04636, 0.89429,
 12:02:11.162,ed:40:fe:65:30:6c, 2015-01-01 00:15:04.640, 0.829, 0.09, 0.557, -1.343, -0.244, -1.099, 7.767, -56.36, -135.082, -23.873, -13.873, 0.853, 26.57, 0.36758, -0.41376, -0.23407, -0.79922,
 12:02:11.162,ed:40:fe:65:30:6c, 2015-01-01 00:15:04.640, 0.826, 0.091, 0.552, -2.075, -0.305, -1.038, 7.778, -56.354, -135.126, -23.873, -13.873, 0.853, 26.57, 0.36758, -0.41376, -0.23407, -0.79922,
 12:02:11.164,e3:ca:2d:fd:e0:8c, 2015-01-01 00:14:59.315, 1, -0.188, 0.105, 0, -0.061, -0.305, -59.398, -78.217, -136.34, -30.587, -9.633, -7.707, 25.78, 0.03943, 0.65158, -0.15302, 0.74188,
 12:02:11.164,e3:ca:2d:fd:e0:8c, 2015-01-01 00:14:59.315, 0.999, -0.187, 0.105, 0.061, 0.122, -0.183, -59.398, -78.217, -136.362, -30.587, -9.633, -7.707, 25.78, 0.03943, 0.65158, -0.15302, 0.74188,
 12:02:11.165,f6:90:cc:01:6d:25, 2015-01-01 00:14:59.825, 0.974, -0.083, 0.123, -0.732, -0.916, 0.183, -33.349, -81.354, -135.385, -31.820, -11.960, -1.380, 30.09, 0.103, -0.65906, -0.0361, -0.74405,
 12:02:11.165,f6:90:cc:01:6d:25, 2015-01-01 00:14:59.825, 0.972, -0.08, 0.122, -0.732, -0.671, 0.305, -33.442, -81.365, -135.286, -31.820, -11.960, -1.380, 30.09, 0.103, -0.65906, -0.0361, -0.74405,
 12:02:11.166,ed:35:33:d3:6c:f8, 2015-01-01 00:14:59.690, 0.665, 0.125, 0.727, -0.122, -1.465, -1.709, 8.58, -42.116, 143.937, -16.553, -14.067, -27.920, 31.4, 0.25769, 0.3627, -0.04636, 0.89429,
 12:02:11.166,ed:35:33:d3:6c:f8, 2015-01-01 00:14:59.690, 0.663, 0.123, 0.724, -0.122, -1.831, -2.136, 8.624, -42.144, 143.844, -16.553, -14.067, -27.920, 31.4, 0.25769, 0.3627, -0.04636, 0.89429,
 12:02:11.185,ed:40:fe:65:30:6c, 2015-01-01 00:15:04.640, 0.824, 0.088, 0.551, -2.441, -0.427, -1.038, 7.778, -56.354, -135.17, -23.873, -13.873, 0.853, 26.57, 0.36508, -0.41266, -0.23499, -0.80069,
 12:02:11.185,ed:40:fe:65:30:6c, 2015-01-01 00:15:04.640, 0.825, 0.081, 0.556, -1.648, -0.671, -0.793, 7.773, -56.354, -135.214, -23.873, -13.873, 0.853, 26.57, 0.36508, -0.41266, -0.23499, -0.80069,
 12:02:11.210,f6:90:cc:01:6d:25, 2015-01-01 00:14:59.825, 0.972, -0.08, 0.126, -0.488, -0.793, 0.671, -33.563, -81.37, -135.176, -31.820, -11.960, -1.380, 30.09, 0.103, -0.65906, -0.0361, -0.74405,
 12:02:11.210,f6:90:cc:01:6d:25, 2015-01-01 00:14:59.825, 0.975, -0.083, 0.127, -0.183, -0.977, 0.977, -33.728, -81.37, -135.027, -31.820, -11.960, -1.380, 30.09, 0.103, -0.65906, -0.0361, -0.74405,
 12:02:11.212,ed:35:33:d3:6c:f8, 2015-01-01 00:14:59.690, 0.661, 0.12, 0.729, 0.244, -1.648, -2.136, 8.674, -42.171, 143.756, -16.553, -14.067, -27.920, 31.4, 0.25769, 0.3627, -0.04636, 0.89429,
 12:02:11.212,ed:35:33:d3:6c:f8, 2015-01-01 00:14:59.690, 0.671, 0.112, 0.726, 0.671, -1.526, -1.465, 8.723, -42.193, 143.685, -16.553, -14.067, -27.920, 31.4, 0.25769, 0.3627, -0.04636, 0.89429,
 12:02:11.230,ed:40:fe:65:30:6c, 2015-01-01 00:15:04.640, 0.837, 0.075, 0.552, -1.404, -1.099, -0.549, 7.778, -56.36, -135.247, -23.873, -13.873, 0.853, 26.57, 0.36508, -0.41266, -0.23499, -0.80069,
 12:02:11.230,ed:40:fe:65:30:6c, 2015-01-01 00:15:04.640, 0.839, 0.08, 0.559, -2.38, -1.221, -1.038, 7.778, -56.376, -135.269, -23.873, -13.873, 0.853, 26.57, 0.36508, -0.41266, -0.23499, -0.80069,
 12:02:11.232,e3:ca:2d:fd:e0:8c, 2015-01-01 00:14:59.315, 0.999, -0.185, 0.106, 0, 0.244, -0.122, -59.392, -78.217, -136.384, -30.587, -9.633, -7.707, 25.78, 0.03943, 0.65158, -0.15302, 0.74188,
 12:02:11.232,e3:ca:2d:fd:e0:8c, 2015-01-01 00:14:59.315, 0.997, -0.186, 0.105, -0.061, 0.305, -0.122, -59.381, -78.212, -136.417, -30.587, -9.633, -7.707, 25.78, 0.03943, 0.65158, -0.15302, 0.74188,
 12:02:11.236,ed:35:33:d3:6c:f8, 2015-01-01 00:14:59.690, 0.674, 0.111, 0.726, -0.122, -0.977, -1.587, 8.767, -42.209, 143.624, -16.553, -14.067, -27.920, 31.4, 0.26382, 0.36316, -0.04437, 0.89243,
 12:02:11.236,ed:35:33:d3:6c:f8, 2015-01-01 00:14:59.690, 0.676, 0.118, 0.732, -1.404, 0.488, -2.258, 8.789, -42.209, 143.569, -16.553, -14.067, -27.920, 31.4, 0.26382, 0.36316, -0.04437, 0.89243,
 12:02:11.256,f6:90:cc:01:6d:25, 2015-01-01 00:14:59.825, 0.979, -0.088, 0.123, -0.122, -0.854, 0.732, -33.871, -81.376, -134.879, -31.820, -11.960, -1.380, 30.09, 0.103, -0.65906, -0.0361, -0.74405,
 12:02:11.256,f6:90:cc:01:6d:25, 2015-01-01 00:14:59.825, 0.979, -0.085, 0.12, -0.732, -0.671, 0.366, -33.981, -81.381, -134.769, -31.820, -11.960, -1.380, 30.09, 0.103, -0.65906, -0.0361, -0.74405,
 12:02:11.275,ed:40:fe:65:30:6c, 2015-01-01 00:15:04.975, 0.841, 0.086, 0.56, -2.869, -1.282, -1.465, 7.778, -56.387, -135.319, -23.873, -13.873, 0.853, 26.57, 0.36508, -0.41266, -0.23499, -0.80069,
 12:02:11.275,ed:40:fe:65:30:6c, 2015-01-01 00:15:04.975, 0.838, 0.086, 0.558, -2.502, -1.038, -1.587, 7.778, -56.404, -135.374, -23.873, -13.873, 0.853, 26.57, 0.36508, -0.41266, -0.23499, -0.80069,
 12:02:11.277,e3:ca:2d:fd:e0:8c, 2015-01-01 00:14:59.650, 0.999, -0.188, 0.106, -0.183, 0.244, -0.244, -59.365, -78.206, -136.461, -30.587, -9.633, -7.707, 25.78, 0.03943, 0.65158, -0.15302, 0.74188,
 12:02:11.277,e3:ca:2d:fd:e0:8c, 2015-01-01 00:14:59.650, 1, -0.188, 0.105, 0, 0, -0.305, -59.359, -78.206, -136.511, -30.587, -9.633, -7.707, 25.78, 0.03943, 0.65158, -0.15302, 0.74188,
 12:02:11.279,ed:35:33:d3:6c:f8, 2015-01-01 00:14:59.690, 0.676, 0.124, 0.732, -0.977, 1.221, -2.319, 8.811, -42.182, 143.509, -16.553, -14.067, -27.920, 31.4, 0.26382, 0.36316, -0.04437, 0.89243,
 12:02:11.279,ed:35:33:d3:6c:f8, 2015-01-01 00:14:59.690, 0.673, 0.121, 0.729, -0.854, 0.427, -2.136, 8.833, -42.16, 143.47, -16.553, -14.067, -27.920, 31.4, 0.26382, 0.36316, -0.04437, 0.89243,
 12:02:11.279,f6:90:cc:01:6d:25, 2015-01-01 00:14:59.825, 0.979, -0.081, 0.123, -1.221, -0.305, 0.244, -34.058, -81.381, -134.72, -31.873, -11.933, -1.033, 30.09, 0.103, -0.65906, -0.0361, -0.74405,
 12:02:11.279,f6:90:cc:01:6d:25, 2015-01-01 00:14:59.825, 0.978, -0.081, 0.126, -0.916, -0.549, 0.244, -34.135, -81.387, -134.654, -31.873, -11.933, -1.033, 30.09, 0.103, -0.65906, -0.0361, -0.74405,
 12:02:11.300,e3:ca:2d:fd:e0:8c, 2015-01-01 00:14:59.650, 1.003, -0.186, 0.106, 0.183, -0.305, -0.305, -59.37, -78.212, -136.549, -30.587, -9.633, -7.707, 25.78, 0.03943, 0.65158, -0.15302, 0.74188,
 12:02:11.300,e3:ca:2d:fd:e0:8c, 2015-01-01 00:14:59.650, 1.006, -0.184, 0.105, 0, -0.671, -0.244, -59.409, -78.217, -136.56, -30.587, -9.633, -7.707, 25.78, 0.03943, 0.65158, -0.15302, 0.74188,
 12:02:11.321,ed:40:fe:65:30:6c, 2015-01-01 00:15:04.975, 0.833, 0.078, 0.554, -2.075, -0.977, -1.343, 7.789, -56.415, -135.428, -23.873, -13.873, 0.853, 26.57, 0.36508, -0.41266, -0.23499, -0.80069,
 12:02:11.321,ed:40:fe:65:30:6c, 2015-01-01 00:15:04.975, 0.829, 0.074, 0.549, -1.709, -0.427, -0.854, 7.8, -56.42, -135.467, -23.873, -13.873, 0.853, 26.57, 0.36508, -0.41266, -0.23499, -0.80069,
 12:02:11.325,ed:35:33:d3:6c:f8, 2015-01-01 00:15:00.050, 0.67, 0.116, 0.72, -0.854, -0.305, -1.587, 8.855, -42.155, 143.427, -16.553, -14.067, -27.920, 31.4, 0.26382, 0.36316, -0.04437, 0.89243,
 12:02:11.325,ed:35:33:d3:6c:f8, 2015-01-01 00:15:00.050, 0.667, 0.115, 0.717, -0.305, -1.343, -1.221, 8.877, -42.166, 143.388, -16.553, -14.067, -27.920, 31.4, 0.26382, 0.36316, -0.04437, 0.89243,
 12:02:11.325,f6:90:cc:01:6d:25, 2015-01-01 00:14:59.825, 0.978, -0.083, 0.124, -0.488, -0.671, 0.183, -34.211, -81.392, -134.577, -31.873, -11.933, -1.033, 30.09, 0.103, -0.65906, -0.0361, -0.74405,
 12:02:11.325,f6:90:cc:01:6d:25, 2015-01-01 00:14:59.825, 0.975, -0.085, 0.119, -0.61, -0.305, -0.183, -34.239, -81.398, -134.544, -31.873, -11.933, -1.033, 30.09, 0.103, -0.65906, -0.0361, -0.74405,
 12:02:11.342,ed:40:fe:65:30:6c, 2015-01-01 00:15:04.975, 0.826, 0.079, 0.546, -1.404, 0.061, -0.732, 7.8, -56.42, -135.505, -23.873, -13.873, 0.853, 26.57, 0.36508, -0.41266, -0.23499, -0.80069,
 12:02:11.342,ed:40:fe:65:30:6c, 2015-01-01 00:15:04.975, 0.824, 0.085, 0.551, -1.465, 0.366, -1.038, 7.8, -56.409, -135.533, -23.873, -13.873, 0.853, 26.57, 0.36508, -0.41266, -0.23499, -0.80069,
 12:02:11.343,e3:ca:2d:fd:e0:8c, 2015-01-01 00:14:59.650, 1.004, -0.184, 0.104, -0.244, -0.488, -0.183, -59.458, -78.223, -136.544, -30.587, -9.633, -7.707, 25.78, 0.03943, 0.65158, -0.15302, 0.74188,
 12:02:11.343,e3:ca:2d:fd:e0:8c, 2015-01-01 00:14:59.650, 1, -0.187, 0.1, -0.244, -0.244, -0.244, -59.496, -78.223, -136.538, -30.587, -9.633, -7.707, 25.78, 0.03943, 0.65158, -0.15302, 0.74188,
 12:02:11.367,e3:ca:2d:fd:e0:8c, 2015-01-01 00:14:59.650, 1, -0.188, 0.099, 0, -0.244, -0.122, -59.524, -78.228, -136.538, -30.587, -9.633, -7.707, 25.78, 0.03943, 0.65158, -0.15302, 0.74188,
 12:02:11.367,e3:ca:2d:fd:e0:8c, 2015-01-01 00:14:59.650, 1.001, -0.189, 0.1, 0.427, 0.305, -0.183, -59.529, -78.228, -136.555, -30.587, -9.633, -7.707, 25.78, 0.03943, 0.65158, -0.15302, 0.74188,
 12:02:11.370,ed:35:33:d3:6c:f8, 2015-01-01 00:15:00.050, 0.662, 0.12, 0.717, -0.244, -1.343, -1.282, 8.899, -42.193, 143.333, -16.553, -14.067, -27.920, 31.4, 0.26382, 0.36316, -0.04437, 0.89243,
 12:02:11.370,ed:35:33:d3:6c:f8, 2015-01-01 00:15:00.050, 0.665, 0.121, 0.723, -0.366, -0.854, -1.465, 8.926, -42.209, 143.295, -16.553, -14.067, -27.920, 31.4, 0.26382, 0.36316, -0.04437, 0.89243,
 12:02:11.388,ed:40:fe:65:30:6c, 2015-01-01 00:15:04.975, 0.829, 0.085, 0.553, -1.16, 0.366, -1.343, 7.817, -56.398, -135.571, -23.873, -13.873, 0.853, 26.57, 0.36508, -0.41266, -0.23499, -0.80069,
 12:02:11.388,ed:40:fe:65:30:6c, 2015-01-01 00:15:04.975, 0.835, 0.081, 0.555, -0.488, 0.061, -1.343, 7.844, -56.382, -135.604, -23.873, -13.873, 0.853, 26.57, 0.36508, -0.41266, -0.23499, -0.80069,
 12:02:11.390,f6:90:cc:01:6d:25, 2015-01-01 00:14:59.825, 0.974, -0.083, 0.115, -1.099, 0, -0.488, -34.217, -81.403, -134.572, -31.873, -11.933, -1.033, 30.09, 0.10281, -0.66101, -0.03488, -0.74243,
 12:02:11.390,f6:90:cc:01:6d:25, 2015-01-01 00:14:59.825, 0.973, -0.081, 0.116, -1.282, -0.122, -0.427, -34.2, -81.414, -134.599, -31.873, -11.933, -1.033, 30.09, 0.10281, -0.66101, -0.03488, -0.74243,
 12:02:11.412,e3:ca:2d:fd:e0:8c, 2015-01-01 00:14:59.650, 1.004, -0.188, 0.1, 0.305, 0.488, -0.305, -59.496, -78.223, -136.609, -30.587, -9.633, -7.707, 25.78, 0.03943, 0.65158, -0.15302, 0.74188,
 12:02:11.412,e3:ca:2d:fd:e0:8c, 2015-01-01 00:14:59.650, 1.003, -0.187, 0.099, 0.061, 0.305, -0.366, -59.469, -78.223, -136.664, -30.587, -9.633, -7.707, 25.78, 0.03943, 0.65158, -0.15302, 0.74188,
 12:02:11.413,f6:90:cc:01:6d:25, 2015-01-01 00:15:00.160, 0.977, -0.083, 0.117, -0.977, -0.427, -0.183, -34.222, -81.42, -134.577, -31.873, -11.933, -1.033, 30.09, 0.10281, -0.66101, -0.03488, -0.74243,
 12:02:11.413,f6:90:cc:01:6d:25, 2015-01-01 00:15:00.160, 0.979, -0.087, 0.118, -0.61, -0.732, -0.061, -34.283, -81.431, -134.517, -31.873, -11.933, -1.033, 30.09, 0.10281, -0.66101, -0.03488, -0.74243,
 12:02:11.413,ed:35:33:d3:6c:f8, 2015-01-01 00:15:00.050, 0.672, 0.119, 0.729, 0, -0.671, -1.404, 8.954, -42.226, 143.251, -16.553, -14.067, -27.920, 31.4, 0.26382, 0.36316, -0.04437, 0.89243,
 12:02:11.413,ed:35:33:d3:6c:f8, 2015-01-01 00:15:00.050, 0.677, 0.116, 0.729, 0.427, -0.977, -1.221, 8.987, -42.237, 143.207, -16.553, -14.067, -27.920, 31.4, 0.26382, 0.36316, -0.04437, 0.89243,
 12:02:11.433,ed:40:fe:65:30:6c, 2015-01-01 00:15:04.975, 0.839, 0.075, 0.553, -0.305, -0.305, -1.221, 7.883, -56.376, -135.637, -23.873, -13.873, 0.853, 26.57, 0.36508, -0.41266, -0.23499, -0.80069,
 12:02:11.433,ed:40:fe:65:30:6c, 2015-01-01 00:15:04.975, 0.838, 0.079, 0.554, -0.366, -0.549, -1.099, 7.916, -56.382, -135.67, -23.873, -13.873, 0.853, 26.57, 0.36508, -0.41266, -0.23499, -0.80069,
 12:02:11.437,ed:35:33:d3:6c:f8, 2015-01-01 00:15:00.050, 0.677, 0.118, 0.724, 0.854, -1.343, -0.916, 9.025, -42.259, 143.174, -16.553, -14.067, -27.920, 31.4, 0.26382, 0.36316, -0.04437, 0.89243,
 12:02:11.437,ed:35:33:d3:6c:f8, 2015-01-01 00:15:00.050, 0.671, 0.123, 0.724, 0, -1.221, -1.099, 9.058, -42.281, 143.13, -16.553, -14.067, -27.920, 31.4, 0.26382, 0.36316, -0.04437, 0.89243,
 12:02:11.457,e3:ca:2d:fd:e0:8c, 2015-01-01 00:14:59.650, 0.999, -0.187, 0.1, 0, 0.183, -0.427, -59.458, -78.223, -136.686, -30.587, -9.633, -7.707, 25.78, 0.03943, 0.65158, -0.15302, 0.74188,
 12:02:11.457,e3:ca:2d:fd:e0:8c, 2015-01-01 00:14:59.650, 1, -0.188, 0.102, -0.122, -0.122, -0.549, -59.464, -78.234, -136.686, -30.587, -9.633, -7.707, 25.78, 0.03943, 0.65158, -0.15302, 0.74188,
 12:02:11.459,f6:90:cc:01:6d:25, 2015-01-01 00:15:00.160, 0.979, -0.089, 0.119, -0.549, -0.732, -0.244, -34.338, -81.447, -134.451, -31.873, -11.933, -1.033, 30.09, 0.10281, -0.66101, -0.03488, -0.74243,
 12:02:11.459,f6:90:cc:01:6d:25, 2015-01-01 00:15:00.160, 0.979, -0.087, 0.117, -0.305, -0.549, -0.549, -34.349, -81.464, -134.429, -31.873, -11.933, -1.033, 30.09, 0.10281, -0.66101, -0.03488, -0.74243,
 12:02:11.480,f6:90:cc:01:6d:25, 2015-01-01 00:15:00.160, 0.978, -0.086, 0.117, -0.183, -0.427, -0.671, -34.332, -81.48, -134.429, -31.873, -11.933, -1.033, 30.09, 0.10281, -0.66101, -0.03488, -0.74243,
 12:02:11.480,f6:90:cc:01:6d:25, 2015-01-01 00:15:00.160, 0.978, -0.087, 0.119, 0.061, -0.183, -0.671, -34.294, -81.491, -134.445, -31.873, -11.933, -1.033, 30.09, 0.10281, -0.66101, -0.03488, -0.74243,
 12:02:11.482,ed:35:33:d3:6c:f8, 2015-01-01 00:15:00.050, 0.675, 0.126, 0.726, 0.366, 0, -0.793, 9.086, -42.292, 143.097, -16.553, -14.067, -27.920, 31.4, 0.26382, 0.36316, -0.04437, 0.89243,
 12:02:11.482,ed:35:33:d3:6c:f8, 2015-01-01 00:15:00.050, 0.677, 0.125, 0.723, 1.16, 0.549, 0.244, 9.108, -42.286, 143.08, -16.553, -14.067, -27.920, 31.4, 0.26382, 0.36316, -0.04437, 0.89243,
 12:02:11.500,ed:40:fe:65:30:6c, 2015-01-01 00:15:04.975, 0.834, 0.084, 0.556, -0.732, -0.183, -1.099, 7.943, -56.382, -135.703, -24.000, -12.933, 1.613, 26.57, 0.36508, -0.41266, -0.23499, -0.80069,
 12:02:11.500,ed:40:fe:65:30:6c, 2015-01-01 00:15:04.975, 0.838, 0.083, 0.552, 0.244, -0.305, -0.61, 7.971, -56.382, -135.725, -24.000, -12.933, 1.613, 26.57, 0.36508, -0.41266, -0.23499, -0.80069,
 12:02:11.524,ed:40:fe:65:30:6c, 2015-01-01 00:15:04.975, 0.837, 0.082, 0.55, 0.977, -0.366, 0, 7.998, -56.382, -135.742, -24.000, -12.933, 1.613, 26.57, 0.36172, -0.41336, -0.23453, -0.80197,
 12:02:11.524,ed:40:fe:65:30:6c, 2015-01-01 00:15:04.975, 0.832, 0.085, 0.551, 0.854, -0.61, 0.122, 8.02, -56.393, -135.742, -24.000, -12.933, 1.613, 26.57, 0.36172, -0.41336, -0.23453, -0.80197,
 12:02:11.525,e3:ca:2d:fd:e0:8c, 2015-01-01 00:14:59.650, 1, -0.191, 0.105, -0.244, -0.244, -0.671, -59.474, -78.239, -136.681, -30.367, -9.380, -7.380, 25.78, 0.03943, 0.65158, -0.15302, 0.74188,
 12:02:11.525,e3:ca:2d:fd:e0:8c, 2015-01-01 00:14:59.650, 1.001, -0.19, 0.107, -0.305, 0.122, -0.732, -59.469, -78.25, -136.708, -30.367, -9.380, -7.380, 25.78, 0.03943, 0.65158, -0.15302, 0.74188,
 12:02:11.526,ed:35:33:d3:6c:f8, 2015-01-01 00:15:00.050, 0.673, 0.123, 0.721, 0.854, 0.854, 0.916, 9.119, -42.275, 143.08, -16.733, -14.340, -27.460, 31.4, 0.26382, 0.36316, -0.04437, 0.89243,
 12:02:11.526,ed:35:33:d3:6c:f8, 2015-01-01 00:15:00.050, 0.672, 0.125, 0.721, 0.244, 1.465, 0.427, 9.119, -42.259, 143.08, -16.733, -14.340, -27.460, 31.4, 0.26382, 0.36316, -0.04437, 0.89243,
 12:02:11.526,f6:90:cc:01:6d:25, 2015-01-01 00:15:00.160, 0.979, -0.086, 0.12, 0.305, 0.244, -0.671, -34.222, -81.497, -134.5, -31.873, -11.933, -1.033, 30.09, 0.10281, -0.66101, -0.03488, -0.74243,
 12:02:11.526,f6:90:cc:01:6d:25, 2015-01-01 00:15:00.160, 0.978, -0.083, 0.12, 0.305, 0.427, -0.793, -34.124, -81.497, -134.588, -31.873, -11.933, -1.033, 30.09, 0.10281, -0.66101, -0.03488, -0.74243,
 12:02:11.546,e3:ca:2d:fd:e0:8c, 2015-01-01 00:14:59.650, 1.001, -0.187, 0.106, -0.122, 0.427, -0.732, -59.431, -78.256, -136.763, -30.367, -9.380, -7.380, 25.78, 0.0426, 0.65115, -0.15555, 0.74155,
 12:02:11.546,e3:ca:2d:fd:e0:8c, 2015-01-01 00:14:59.650, 1, -0.185, 0.104, 0, 0.183, -0.671, -59.398, -78.261, -136.796, -30.367, -9.380, -7.380, 25.78, 0.0426, 0.65115, -0.15555, 0.74155,
 12:02:11.568,ed:40:fe:65:30:6c, 2015-01-01 00:15:04.975, 0.834, 0.092, 0.553, 0.366, -0.183, -0.183, 8.042, -56.393, -135.753, -24.000, -12.933, 1.613, 26.57, 0.36172, -0.41336, -0.23453, -0.80197,
 12:02:11.568,ed:40:fe:65:30:6c, 2015-01-01 00:15:04.975, 0.835, 0.094, 0.543, 0.61, 0.183, -0.061, 8.064, -56.393, -135.753, -24.000, -12.933, 1.613, 26.57, 0.36172, -0.41336, -0.23453, -0.80197,
 12:02:11.574,ed:35:33:d3:6c:f8, 2015-01-01 00:15:00.050, 0.674, 0.136, 0.716, 0.061, 1.709, -0.061, 9.124, -42.231, 143.075, -16.733, -14.340, -27.460, 31.4, 0.26721, 0.3642, -0.04333, 0.89105,
 12:02:11.574,ed:35:33:d3:6c:f8, 2015-01-01 00:15:00.050, 0.673, 0.135, 0.716, 0.366, 2.258, 0.671, 9.124, -42.198, 143.064, -16.733, -14.340, -27.460, 31.4, 0.26721, 0.3642, -0.04333, 0.89105,
 12:02:11.590,ed:40:fe:65:30:6c, 2015-01-01 00:15:05.310, 0.834, 0.09, 0.548, 1.648, 0.305, 0.488, 8.086, -56.387, -135.736, -24.000, -12.933, 1.613, 26.57, 0.36172, -0.41336, -0.23453, -0.80197,
 12:02:11.590,ed:40:fe:65:30:6c, 2015-01-01 00:15:05.310, 0.83, 0.086, 0.549, 1.831, 1.038, 0.732, 8.113, -56.371, -135.709, -24.000, -12.933, 1.613, 26.57, 0.36172, -0.41336, -0.23453, -0.80197,
 12:02:11.592,e3:ca:2d:fd:e0:8c, 2015-01-01 00:14:59.650, 1, -0.184, 0.105, -0.061, 0.061, -0.549, -59.381, -78.261, -136.813, -30.367, -9.380, -7.380, 25.78, 0.0426, 0.65115, -0.15555, 0.74155,
 12:02:11.592,e3:ca:2d:fd:e0:8c, 2015-01-01 00:14:59.650, 1, -0.184, 0.103, -0.427, 0.183, -0.488, -59.37, -78.267, -136.818, -30.367, -9.380, -7.380, 25.78, 0.0426, 0.65115, -0.15555, 0.74155,
 12:02:11.592,f6:90:cc:01:6d:25, 2015-01-01 00:15:00.160, 0.976, -0.078, 0.119, 0.061, 1.038, -0.732, -33.986, -81.491, -134.703, -31.873, -11.933, -1.033, 30.09, 0.10281, -0.66101, -0.03488, -0.74243,
 12:02:11.592,f6:90:cc:01:6d:25, 2015-01-01 00:15:00.160, 0.975, -0.077, 0.12, -0.122, 0.793, -0.488, -33.893, -81.486, -134.797, -31.873, -11.933, -1.033, 30.09, 0.10281, -0.66101, -0.03488, -0.74243,
 12:02:11.615,f6:90:cc:01:6d:25, 2015-01-01 00:15:00.160, 0.975, -0.081, 0.123, 0, 0.671, -0.366, -33.81, -81.475, -134.868, -32.013, -12.000, -0.660, 30.09, 0.10281, -0.66101, -0.03488, -0.74243,
 12:02:11.615,f6:90:cc:01:6d:25, 2015-01-01 00:15:00.160, 0.975, -0.084, 0.122, 0.305, 0.549, -0.488, -33.717, -81.475, -134.951, -32.013, -12.000, -0.660, 30.09, 0.10281, -0.66101, -0.03488, -0.74243,
 12:02:11.615,e3:ca:2d:fd:e0:8c, 2015-01-01 00:15:00.030, 1, -0.186, 0.103, -0.427, 0.244, -0.488, -59.354, -78.272, -136.829, -30.367, -9.380, -7.380, 25.78, 0.0426, 0.65115, -0.15555, 0.74155,
 12:02:11.615,e3:ca:2d:fd:e0:8c, 2015-01-01 00:15:00.030, 1, -0.186, 0.104, -0.122, 0.305, -0.549, -59.326, -78.272, -136.846, -30.367, -9.380, -7.380, 25.78, 0.0426, 0.65115, -0.15555, 0.74155,
 12:02:11.616,ed:35:33:d3:6c:f8, 2015-01-01 00:15:00.360, 0.669, 0.127, 0.719, 0.549, 2.991, 1.465, 9.119, -42.155, 143.086, -16.733, -14.340, -27.460, 31.4, 0.26721, 0.3642, -0.04333, 0.89105,
 12:02:11.616,ed:35:33:d3:6c:f8, 2015-01-01 00:15:00.360, 0.659, 0.125, 0.724, -0.183, 2.38, 1.038, 9.102, -42.111, 143.119, -16.733, -14.340, -27.460, 31.4, 0.26721, 0.3642, -0.04333, 0.89105,
 12:02:11.636,ed:40:fe:65:30:6c, 2015-01-01 00:15:05.310, 0.822, 0.09, 0.555, 0.488, 1.404, 0.549, 8.119, -56.349, -135.681, -24.000, -12.933, 1.613, 26.57, 0.36172, -0.41336, -0.23453, -0.80197,
 12:02:11.636,ed:40:fe:65:30:6c, 2015-01-01 00:15:05.310, 0.826, 0.093, 0.556, -0.061, 1.526, 0.549, 8.113, -56.321, -135.648, -24.000, -12.933, 1.613, 26.57, 0.36172, -0.41336, -0.23453, -0.80197,
 12:02:11.639,ed:35:33:d3:6c:f8, 2015-01-01 00:15:00.360, 0.66, 0.128, 0.727, -1.099, 2.319, 0.427, 9.08, -42.072, 143.113, -16.733, -14.340, -27.460, 31.4, 0.26721, 0.3642, -0.04333, 0.89105,
 12:02:11.639,ed:35:33:d3:6c:f8, 2015-01-01 00:15:00.360, 0.669, 0.13, 0.729, -0.366, 2.686, 1.16, 9.053, -42.028, 143.102, -16.733, -14.340, -27.460, 31.4, 0.26721, 0.3642, -0.04333, 0.89105,
 12:02:11.659,e3:ca:2d:fd:e0:8c, 2015-01-01 00:15:00.030, 1, -0.185, 0.104, 0.061, 0.305, -0.549, -59.293, -78.272, -136.873, -30.367, -9.380, -7.380, 25.78, 0.0426, 0.65115, -0.15555, 0.74155,
 12:02:11.659,e3:ca:2d:fd:e0:8c, 2015-01-01 00:15:00.030, 1, -0.187, 0.105, 0, 0.427, -0.488, -59.255, -78.278, -136.906, -30.367, -9.380, -7.380, 25.78, 0.0426, 0.65115, -0.15555, 0.74155,
 12:02:11.661,f6:90:cc:01:6d:25, 2015-01-01 00:15:00.160, 0.975, -0.081, 0.121, 0.366, 0.671, -0.549, -33.613, -81.469, -135.049, -32.013, -12.000, -0.660, 30.09, 0.10281, -0.66101, -0.03488, -0.74243,
 12:02:11.661,f6:90:cc:01:6d:25, 2015-01-01 00:15:00.160, 0.976, -0.078, 0.122, 0.183, 0.854, -0.366, -33.514, -81.458, -135.154, -32.013, -12.000, -0.660, 30.09, 0.10281, -0.66101, -0.03488, -0.74243,
 12:02:11.681,ed:40:fe:65:30:6c, 2015-01-01 00:15:05.310, 0.835, 0.088, 0.555, 1.282, 1.465, 1.099, 8.108, -56.288, -135.61, -24.000, -12.933, 1.613, 26.57, 0.36172, -0.41336, -0.23453, -0.80197,
 12:02:11.681,ed:40:fe:65:30:6c, 2015-01-01 00:15:05.310, 0.834, 0.084, 0.555, 2.197, 0.977, 1.404, 8.108, -56.266, -135.555, -24.000, -12.933, 1.613, 26.57, 0.36172, -0.41336, -0.23453, -0.80197,
 12:02:11.683,f6:90:cc:01:6d:25, 2015-01-01 00:15:00.160, 0.978, -0.082, 0.123, 0.366, 0.916, -0.122, -33.431, -81.447, -135.231, -32.013, -12.000, -0.660, 30.09, 0.10284, -0.66083, -0.03632, -0.74249,
 12:02:11.683,f6:90:cc:01:6d:25, 2015-01-01 00:15:00.160, 0.977, -0.083, 0.126, 0.671, 1.099, -0.244, -33.316, -81.431, -135.324, -32.013, -12.000, -0.660, 30.09, 0.10284, -0.66083, -0.03632, -0.74249,
 12:02:11.684,ed:35:33:d3:6c:f8, 2015-01-01 00:15:00.360, 0.672, 0.122, 0.731, 1.038, 2.563, 2.686, 9.031, -41.99, 143.152, -16.733, -14.340, -27.460, 31.4, 0.26721, 0.3642, -0.04333, 0.89105,
 12:02:11.684,ed:35:33:d3:6c:f8, 2015-01-01 00:15:00.360, 0.667, 0.11, 0.732, 0.732, 2.319, 2.38, 9.003, -41.951, 143.223, -16.733, -14.340, -27.460, 31.4, 0.26721, 0.3642, -0.04333, 0.89105,
 12:02:11.702,ed:40:fe:65:30:6c, 2015-01-01 00:15:05.310, 0.831, 0.082, 0.561, 1.16, 0.916, 0.732, 8.119, -56.25, -135.505, -24.000, -12.933, 1.613, 26.57, 0.36172, -0.41336, -0.23453, -0.80197,
 12:02:11.702,ed:40:fe:65:30:6c, 2015-01-01 00:15:05.310, 0.832, 0.09, 0.563, -0.793, 1.465, -0.305, 8.119, -56.223, -135.489, -24.000, -12.933, 1.613, 26.57, 0.36172, -0.41336, -0.23453, -0.80197,
 12:02:11.704,e3:ca:2d:fd:e0:8c, 2015-01-01 00:15:00.030, 1, -0.186, 0.106, -0.061, 0.366, -0.488, -59.216, -78.278, -136.917, -30.367, -9.380, -7.380, 25.78, 0.0426, 0.65115, -0.15555, 0.74155,
 12:02:11.704,e3:ca:2d:fd:e0:8c, 2015-01-01 00:15:00.030, 1.001, -0.185, 0.106, 0, 0.366, -0.549, -59.178, -78.278, -136.923, -30.367, -9.380, -7.380, 25.78, 0.0426, 0.65115, -0.15555, 0.74155,
 12:02:11.729,f6:90:cc:01:6d:25, 2015-01-01 00:15:00.160, 0.98, -0.081, 0.124, 0.671, 0.977, -0.427, -33.195, -81.42, -135.428, -32.013, -12.000, -0.660, 30.09, 0.10284, -0.66083, -0.03632, -0.74249,
 12:02:11.729,f6:90:cc:01:6d:25, 2015-01-01 00:15:00.160, 0.978, -0.078, 0.123, 0.122, 1.343, -0.61, -33.03, -81.403, -135.577, -32.013, -12.000, -0.660, 30.09, 0.10284, -0.66083, -0.03632, -0.74249,
 12:02:11.729,ed:35:33:d3:6c:f8, 2015-01-01 00:15:00.360, 0.665, 0.115, 0.731, -1.099, 2.014, 0.488, 8.976, -41.918, 143.262, -16.733, -14.340, -27.460, 31.4, 0.26721, 0.3642, -0.04333, 0.89105,
 12:02:11.729,ed:35:33:d3:6c:f8, 2015-01-01 00:15:00.360, 0.669, 0.127, 0.729, -1.953, 2.991, -0.977, 8.948, -41.869, 143.251, -16.733, -14.340, -27.460, 31.4, 0.26721, 0.3642, -0.04333, 0.89105,
 12:02:11.749,e3:ca:2d:fd:e0:8c, 2015-01-01 00:15:00.030, 1, -0.183, 0.107, 0.244, -0.061, -0.427, -59.167, -78.283, -136.906, -30.367, -9.380, -7.380, 25.78, 0.0426, 0.65115, -0.15555, 0.74155,
 12:02:11.749,e3:ca:2d:fd:e0:8c, 2015-01-01 00:15:00.030, 1, -0.182, 0.106, 0, -0.427, -0.366, -59.189, -78.289, -136.873, -30.367, -9.380, -7.380, 25.78, 0.0426, 0.65115, -0.15555, 0.74155,
 12:02:11.771,ed:40:fe:65:30:6c, 2015-01-01 00:15:05.310, 0.835, 0.095, 0.554, -0.977, 1.892, -0.793, 8.119, -56.184, -135.494, -24.000, -12.933, 1.613, 26.57, 0.36172, -0.41336, -0.23453, -0.80197,
 12:02:11.771,ed:40:fe:65:30:6c, 2015-01-01 00:15:05.310, 0.829, 0.093, 0.556, -0.305, 1.709, -0.061, 8.124, -56.146, -135.494, -24.000, -12.933, 1.613, 26.57, 0.36172, -0.41336, -0.23453, -0.80197,
 12:02:11.771,e3:ca:2d:fd:e0:8c, 2015-01-01 00:15:00.030, 1, -0.183, 0.105, -0.244, -0.488, -0.427, -59.222, -78.294, -136.835, -30.367, -9.380, -7.380, 25.78, 0.0426, 0.65115, -0.15555, 0.74155,
 12:02:11.771,e3:ca:2d:fd:e0:8c, 2015-01-01 00:15:00.030, 1, -0.184, 0.104, -0.366, -0.366, -0.427, -59.255, -78.305, -136.807, -30.367, -9.380, -7.380, 25.78, 0.0426, 0.65115, -0.15555, 0.74155,
 12:02:11.773,f6:90:cc:01:6d:25, 2015-01-01 00:15:00.495, 0.977, -0.078, 0.122, -0.732, 1.526, -0.671, -32.866, -81.387, -135.753, -32.013, -12.000, -0.660, 30.09, 0.10284, -0.66083, -0.03632, -0.74249,
 12:02:11.774,f6:90:cc:01:6d:25, 2015-01-01 00:15:00.495, 0.975, -0.081, 0.125, -0.427, 1.343, -0.732, -32.706, -81.37, -135.912, -32.013, -12.000, -0.660, 30.09, 0.10284, -0.66083, -0.03632, -0.74249,
 12:02:11.775,ed:35:33:d3:6c:f8, 2015-01-01 00:15:00.360, 0.662, 0.135, 0.731, -1.587, 3.479, -0.549, 8.926, -41.808, 143.223, -16.733, -14.340, -27.460, 31.4, 0.26721, 0.3642, -0.04333, 0.89105,
 12:02:11.775,ed:35:33:d3:6c:f8, 2015-01-01 00:15:00.360, 0.657, 0.13, 0.734, -1.343, 3.601, 0.61, 8.899, -41.743, 143.223, -16.733, -14.340, -27.460, 31.4, 0.26721, 0.3642, -0.04333, 0.89105,
 12:02:11.793,ed:40:fe:65:30:6c, 2015-01-01 00:15:05.310, 0.822, 0.089, 0.562, -0.122, 1.648, 0.916, 8.113, -56.107, -135.478, -23.720, -13.147, 1.533, 26.57, 0.36172, -0.41336, -0.23453, -0.80197,
 12:02:11.793,ed:40:fe:65:30:6c, 2015-01-01 00:15:05.310, 0.815, 0.09, 0.562, -0.183, 1.831, 1.282, 8.08, -56.074, -135.439, -23.720, -13.147, 1.533, 26.57, 0.36172, -0.41336, -0.23453, -0.80197,
 12:02:11.816,e3:ca:2d:fd:e0:8c, 2015-01-01 00:15:00.030, 1, -0.185, 0.103, 0, -0.305, -0.366, -59.277, -78.311, -136.796, -30.367, -9.380, -7.380, 25.78, 0.0426, 0.65115, -0.15555, 0.74155,
 12:02:11.816,e3:ca:2d:fd:e0:8c, 2015-01-01 00:15:00.030, 0.999, -0.187, 0.103, 0.244, -0.366, -0.244, -59.304, -78.316, -136.78, -30.367, -9.380, -7.380, 25.78, 0.0426, 0.65115, -0.15555, 0.74155,
 12:02:11.817,f6:90:cc:01:6d:25, 2015-01-01 00:15:00.495, 0.972, -0.082, 0.127, 0.061, 1.282, -0.732, -32.542, -81.359, -136.055, -32.013, -12.000, -0.660, 30.09, 0.10284, -0.66083, -0.03632, -0.74249,
 12:02:11.817,f6:90:cc:01:6d:25, 2015-01-01 00:15:00.495, 0.972, -0.079, 0.128, 0.183, 1.038, -0.61, -32.399, -81.348, -136.165, -32.013, -12.000, -0.660, 30.09, 0.10284, -0.66083, -0.03632, -0.74249,
 12:02:11.819,ed:35:33:d3:6c:f8, 2015-01-01 00:15:00.360, 0.647, 0.124, 0.734, -1.16, 3.845, 1.587, 8.855, -41.677, 143.262, -16.867, -14.160, -27.387, 31.4, 0.26721, 0.3642, -0.04333, 0.89105,
 12:02:11.819,ed:35:33:d3:6c:f8, 2015-01-01 00:15:00.360, 0.648, 0.124, 0.737, -2.075, 3.54, 1.343, 8.8, -41.611, 143.295, -16.867, -14.160, -27.387, 31.4, 0.26721, 0.3642, -0.04333, 0.89105,
 12:02:11.837,ed:40:fe:65:30:6c, 2015-01-01 00:15:05.310, 0.815, 0.096, 0.562, -1.16, 1.587, 1.099, 8.042, -56.041, -135.396, -23.720, -13.147, 1.533, 26.57, 0.36172, -0.41336, -0.23453, -0.80197,
 12:02:11.837,ed:40:fe:65:30:6c, 2015-01-01 00:15:05.310, 0.824, 0.095, 0.558, -0.916, 1.892, 0.671, 8.004, -56.003, -135.357, -23.720, -13.147, 1.533, 26.57, 0.36172, -0.41336, -0.23453, -0.80197,
 12:02:11.839,f6:90:cc:01:6d:25, 2015-01-01 00:15:00.495, 0.972, -0.076, 0.127, -0.061, 1.099, -0.305, -32.294, -81.332, -136.247, -32.013, -12.000, -0.660, 30.09, 0.10284, -0.66083, -0.03632, -0.74249,
 12:02:11.839,f6:90:cc:01:6d:25, 2015-01-01 00:15:00.495, 0.973, -0.074, 0.125, -0.061, 1.282, 0.122, -32.223, -81.31, -136.313, -32.013, -12.000, -0.660, 30.09, 0.10284, -0.66083, -0.03632, -0.74249,
 12:02:11.841,ed:35:33:d3:6c:f8, 2015-01-01 00:15:00.360, 0.657, 0.124, 0.733, -2.075, 3.113, 0.61, 8.74, -41.55, 143.322, -16.867, -14.160, -27.387, 31.4, 0.26761, 0.35797, -0.04364, 0.89343,
 12:02:11.841,ed:35:33:d3:6c:f8, 2015-01-01 00:15:00.360, 0.662, 0.115, 0.727, 0.122, 1.282, 0.916, 8.712, -41.506, 143.344, -16.867, -14.160, -27.387, 31.4, 0.26761, 0.35797, -0.04364, 0.89343,
 12:02:11.884,e3:ca:2d:fd:e0:8c, 2015-01-01 00:15:00.030, 0.999, -0.185, 0.105, 0.305, -0.244, -0.183, -59.326, -78.316, -136.763, -31.007, -9.300, -7.613, 25.78, 0.0426, 0.65115, -0.15555, 0.74155,
 12:02:11.884,e3:ca:2d:fd:e0:8c, 2015-01-01 00:15:00.030, 1, -0.183, 0.104, 0.427, -0.183, -0.061, -59.343, -78.316, -136.741, -31.007, -9.300, -7.613, 25.78, 0.0426, 0.65115, -0.15555, 0.74155,
 12:02:11.886,f6:90:cc:01:6d:25, 2015-01-01 00:15:00.495, 0.975, -0.077, 0.127, 0.244, 1.465, 0.244, -32.141, -81.282, -136.39, -32.013, -12.000, -0.660, 30.09, 0.10284, -0.66083, -0.03632, -0.74249,
 12:02:11.886,f6:90:cc:01:6d:25, 2015-01-01 00:15:00.495, 0.979, -0.08, 0.131, 0.671, 1.587, 0.061, -32.025, -81.255, -136.489, -32.013, -12.000, -0.660, 30.09, 0.10284, -0.66083, -0.03632, -0.74249,
 12:02:11.888,ed:35:33:d3:6c:f8, 2015-01-01 00:15:00.360, 0.665, 0.104, 0.734, 0.366, 1.892, 0.671, 8.712, -41.479, 143.372, -16.867, -14.160, -27.387, 31.4, 0.26761, 0.35797, -0.04364, 0.89343,
 12:02:11.888,ed:35:33:d3:6c:f8, 2015-01-01 00:15:00.360, 0.667, 0.111, 0.737, -0.122, 1.587, -0.305, 8.712, -41.451, 143.383, -16.867, -14.160, -27.387, 31.4, 0.26761, 0.35797, -0.04364, 0.89343,
 12:02:11.905,ed:40:fe:65:30:6c, 2015-01-01 00:15:05.310, 0.827, 0.081, 0.551, 0.793, 2.136, 0.61, 7.987, -55.959, -135.319, -23.720, -13.147, 1.533, 26.57, 0.36481, -0.40985, -0.23486, -0.80228,
 12:02:11.905,ed:40:fe:65:30:6c, 2015-01-01 00:15:05.310, 0.833, 0.076, 0.564, 0.671, 1.77, 0.061, 7.998, -55.92, -135.286, -23.720, -13.147, 1.533, 26.57, 0.36481, -0.40985, -0.23486, -0.80228,
 12:02:11.907,e3:ca:2d:fd:e0:8c, 2015-01-01 00:15:00.030, 1, -0.183, 0.106, 0.549, 0, -0.061, -59.348, -78.316, -136.73, -31.007, -9.300, -7.613, 25.78, 0.04224, 0.65149, -0.15457, 0.74146,
 12:02:11.907,e3:ca:2d:fd:e0:8c, 2015-01-01 00:15:00.030, 1, -0.184, 0.106, 0.61, 0, -0.122, -59.343, -78.316, -136.73, -31.007, -9.300, -7.613, 25.78, 0.04224, 0.65149, -0.15457, 0.74146,
 12:02:11.927,ed:40:fe:65:30:6c, 2015-01-01 00:15:05.645, 0.836, 0.083, 0.565, -0.244, 1.953, -0.61, 8.015, -55.876, -135.275, -23.720, -13.147, 1.533, 26.57, 0.36481, -0.40985, -0.23486, -0.80228,
 12:02:11.927,ed:40:fe:65:30:6c, 2015-01-01 00:15:05.645, 0.833, 0.086, 0.558, 0.366, 2.075, -0.305, 8.031, -55.833, -135.275, -23.720, -13.147, 1.533, 26.57, 0.36481, -0.40985, -0.23486, -0.80228,
 12:02:11.930,f6:90:cc:01:6d:25, 2015-01-01 00:15:00.495, 0.984, -0.078, 0.13, 0.488, 1.77, -0.122, -31.877, -81.227, -136.62, -32.013, -12.000, -0.660, 30.09, 0.10284, -0.66083, -0.03632, -0.74249,
 12:02:11.930,f6:90:cc:01:6d:25, 2015-01-01 00:15:00.495, 0.982, -0.08, 0.125, 0.305, 2.38, -0.305, -31.707, -81.194, -136.791, -32.013, -12.000, -0.660, 30.09, 0.10284, -0.66083, -0.03632, -0.74249,
 12:02:11.932,ed:35:33:d3:6c:f8, 2015-01-01 00:15:00.650, 0.666, 0.121, 0.733, 0.305, 1.648, 0, 8.718, -41.418, 143.388, -16.867, -14.160, -27.387, 31.4, 0.26761, 0.35797, -0.04364, 0.89343,
 12:02:11.932,ed:35:33:d3:6c:f8, 2015-01-01 00:15:00.650, 0.663, 0.123, 0.733, 0.916, 2.93, 0.549, 8.723, -41.38, 143.388, -16.867, -14.160, -27.387, 31.4, 0.26761, 0.35797, -0.04364, 0.89343,
 12:02:11.950,ed:40:fe:65:30:6c, 2015-01-01 00:15:05.645, 0.831, 0.087, 0.566, 0.977, 2.563, 0, 8.047, -55.783, -135.264, -23.720, -13.147, 1.533, 26.57, 0.36481, -0.40985, -0.23486, -0.80228,
 12:02:11.950,ed:40:fe:65:30:6c, 2015-01-01 00:15:05.645, 0.831, 0.082, 0.562, 1.709, 3.296, -0.061, 8.069, -55.728, -135.253, -23.720, -13.147, 1.533, 26.57, 0.36481, -0.40985, -0.23486, -0.80228,
 12:02:11.975,e3:ca:2d:fd:e0:8c, 2015-01-01 00:15:00.030, 1.004, -0.187, 0.104, 0.244, 0.122, -0.183, -59.332, -78.311, -136.73, -31.007, -9.300, -7.613, 25.78, 0.04224, 0.65149, -0.15457, 0.74146,
 12:02:11.975,e3:ca:2d:fd:e0:8c, 2015-01-01 00:15:00.030, 1.002, -0.185, 0.104, 0.183, -0.793, 0, -59.387, -78.316, -136.675, -31.007, -9.300, -7.613, 25.78, 0.04224, 0.65149, -0.15457, 0.74146,
 12:02:11.977,ed:35:33:d3:6c:f8, 2015-01-01 00:15:00.650, 0.663, 0.111, 0.738, 1.831, 4.15, 0.916, 8.734, -41.32, 143.388, -16.867, -14.160, -27.387, 31.4, 0.26761, 0.35797, -0.04364, 0.89343,
 12:02:11.977,ed:35:33:d3:6c:f8, 2015-01-01 00:15:00.650, 0.656, 0.113, 0.745, 0.854, 4.761, -0.244, 8.751, -41.237, 143.377, -16.867, -14.160, -27.387, 31.4, 0.26761, 0.35797, -0.04364, 0.89343,
 12:02:11.996,e3:ca:2d:fd:e0:8c, 2015-01-01 00:15:00.385, 1.004, -0.186, 0.102, 0.244, -1.282, 0, -59.491, -78.322, -136.571, -31.007, -9.300, -7.613, 25.78, 0.04224, 0.65149, -0.15457, 0.74146,
 12:02:11.996,e3:ca:2d:fd:e0:8c, 2015-01-01 00:15:00.385, 1.003, -0.185, 0.101, 0.671, -1.343, 0.061, -59.606, -78.333, -136.428, -31.007, -9.300, -7.613, 25.78, 0.04224, 0.65149, -0.15457, 0.74146,
 12:02:11.996,ed:40:fe:65:30:6c, 2015-01-01 00:15:05.645, 0.827, 0.09, 0.567, 0.732, 2.625, -0.854, 8.102, -55.662, -135.264, -23.720, -13.147, 1.533, 26.57, 0.36481, -0.40985, -0.23486, -0.80228,
 12:02:11.996,ed:40:fe:65:30:6c, 2015-01-01 00:15:05.645, 0.825, 0.098, 0.569, -0.244, 1.953, -1.465, 8.141, -55.618, -135.324, -23.720, -13.147, 1.533, 26.57, 0.36481, -0.40985, -0.23486, -0.80228,
 12:02:11.999,f6:90:cc:01:6d:25, 2015-01-01 00:15:00.495, 0.981, -0.079, 0.126, 0.916, 2.869, -0.61, -31.487, -81.161, -136.994, -31.953, -11.753, -1.220, 30.09, 0.10284, -0.66083, -0.03632, -0.74249,
 12:02:11.999,f6:90:cc:01:6d:25, 2015-01-01 00:15:00.495, 0.978, -0.076, 0.123, 0.916, 3.357, -0.61, -31.212, -81.118, -137.241, -31.953, -11.753, -1.220, 30.09, 0.10284, -0.66083, -0.03632, -0.74249,
 12:02:12.020,e3:ca:2d:fd:e0:8c, 2015-01-01 00:15:00.385, 1.003, -0.187, 0.098, 0.671, -1.526, 0.183, -59.738, -78.344, -136.247, -31.007, -9.300, -7.613, 25.78, 0.04224, 0.65149, -0.15457, 0.74146,
 12:02:12.020,e3:ca:2d:fd:e0:8c, 2015-01-01 00:15:00.385, 1.003, -0.186, 0.096, 0.427, -1.282, 0.305, -59.87, -78.349, -136.082, -31.007, -9.300, -7.613, 25.78, 0.04224, 0.65149, -0.15457, 0.74146,
 12:02:12.021,ed:35:33:d3:6c:f8, 2015-01-01 00:15:00.650, 0.653, 0.127, 0.75, -0.183, 3.845, -1.77, 8.767, -41.155, 143.344, -16.867, -14.160, -27.387, 31.4, 0.26761, 0.35797, -0.04364, 0.89343,
 12:02:12.021,ed:35:33:d3:6c:f8, 2015-01-01 00:15:00.650, 0.651, 0.133, 0.751, 0.122, 2.258, -1.587, 8.789, -41.089, 143.317, -16.867, -14.160, -27.387, 31.4, 0.26761, 0.35797, -0.04364, 0.89343,
 12:02:12.021,f6:90:cc:01:6d:25, 2015-01-01 00:15:00.495, 0.977, -0.076, 0.126, 0.061, 3.296, -0.305, -30.932, -81.068, -137.505, -31.953, -11.753, -1.220, 30.09, 0.10388, -0.65723, -0.03806, -0.74545,
 12:02:12.021,f6:90:cc:01:6d:25, 2015-01-01 00:15:00.495, 0.972, -0.079, 0.128, 0.122, 3.235, 0, -30.701, -81.019, -137.736, -31.953, -11.753, -1.220, 30.09, 0.10388, -0.65723, -0.03806, -0.74545,
 12:02:12.039,ed:40:fe:65:30:6c, 2015-01-01 00:15:05.645, 0.821, 0.096, 0.569, 0, 1.099, -0.854, 8.174, -55.585, -135.374, -23.720, -13.147, 1.533, 26.57, 0.36481, -0.40985, -0.23486, -0.80228,
 12:02:12.039,ed:40:fe:65:30:6c, 2015-01-01 00:15:05.645, 0.818, 0.091, 0.562, 0.671, 0.183, 0, 8.201, -55.574, -135.396, -23.720, -13.147, 1.533, 26.57, 0.36481, -0.40985, -0.23486, -0.80228,
 12:02:12.044,ed:35:33:d3:6c:f8, 2015-01-01 00:15:00.650, 0.647, 0.129, 0.746, 0.977, 0.671, 0, 8.817, -41.061, 143.311, -16.867, -14.160, -27.387, 31.4, 0.26761, 0.35797, -0.04364, 0.89343,
 12:02:12.044,ed:35:33:d3:6c:f8, 2015-01-01 00:15:00.650, 0.652, 0.124, 0.738, 0.671, 0.244, 1.221, 8.828, -41.056, 143.322, -16.867, -14.160, -27.387, 31.4, 0.26761, 0.35797, -0.04364, 0.89343,
 12:02:12.064,e3:ca:2d:fd:e0:8c, 2015-01-01 00:15:00.385, 1.002, -0.186, 0.096, 0.244, -1.038, 0.366, -59.991, -78.349, -135.956, -31.007, -9.300, -7.613, 25.78, 0.04224, 0.65149, -0.15457, 0.74146,
 12:02:12.064,e3:ca:2d:fd:e0:8c, 2015-01-01 00:15:00.385, 1.003, -0.187, 0.096, 0.366, -0.427, 0.244, -60.051, -78.344, -135.895, -31.007, -9.300, -7.613, 25.78, 0.04224, 0.65149, -0.15457, 0.74146,
 12:02:12.088,f6:90:cc:01:6d:25, 2015-01-01 00:15:00.495, 0.973, -0.082, 0.128, 0.488, 2.747, 0.183, -30.52, -80.969, -137.922, -31.953, -11.753, -1.220, 30.09, 0.10388, -0.65723, -0.03806, -0.74545,
 12:02:12.088,f6:90:cc:01:6d:25, 2015-01-01 00:15:00.495, 0.973, -0.086, 0.13, 0.793, 2.625, 0.183, -30.372, -80.925, -138.082, -31.953, -11.753, -1.220, 30.09, 0.10388, -0.65723, -0.03806, -0.74545,
 12:02:12.089,ed:35:33:d3:6c:f8, 2015-01-01 00:15:00.650, 0.647, 0.123, 0.736, -0.183, 0, 1.709, 8.817, -41.061, 143.355, -16.867, -14.160, -27.387, 31.4, 0.26761, 0.35797, -0.04364, 0.89343,
 12:02:12.089,ed:35:33:d3:6c:f8, 2015-01-01 00:15:00.650, 0.649, 0.119, 0.739, 0, -0.793, 2.625, 8.784, -41.078, 143.394, -16.867, -14.160, -27.387, 31.4, 0.26761, 0.35797, -0.04364, 0.89343,
 12:02:12.108,ed:40:fe:65:30:6c, 2015-01-01 00:15:05.645, 0.821, 0.088, 0.563, 0.793, -0.366, 0.61, 8.212, -55.58, -135.39, -23.720, -13.147, 1.533, 26.57, 0.36481, -0.40985, -0.23486, -0.80228,
 12:02:12.108,ed:40:fe:65:30:6c, 2015-01-01 00:15:05.645, 0.818, 0.086, 0.563, 0.305, -0.122, 1.16, 8.201, -55.585, -135.352, -23.720, -13.147, 1.533, 26.57, 0.36481, -0.40985, -0.23486, -0.80228,
 12:02:12.108,e3:ca:2d:fd:e0:8c, 2015-01-01 00:15:00.385, 1.003, -0.189, 0.1, 0.549, 0.122, 0.061, -60.051, -78.338, -135.879, -31.007, -9.300, -7.613, 25.78, 0.04224, 0.65149, -0.15457, 0.74146,
 12:02:12.108,e3:ca:2d:fd:e0:8c, 2015-01-01 00:15:00.385, 1.001, -0.189, 0.101, 0.854, 0.854, -0.061, -59.985, -78.333, -135.928, -31.007, -9.300, -7.613, 25.78, 0.04224, 0.65149, -0.15457, 0.74146,
 12:02:12.110,f6:90:cc:01:6d:25, 2015-01-01 00:15:00.830, 0.975, -0.087, 0.133, 0.977, 2.625, -0.122, -30.223, -80.881, -138.224, -31.953, -11.753, -1.220, 30.09, 0.10388, -0.65723, -0.03806, -0.74545,
 12:02:12.110,f6:90:cc:01:6d:25, 2015-01-01 00:15:00.830, 0.974, -0.083, 0.137, 1.221, 2.93, -0.427, -30.042, -80.843, -138.395, -31.953, -11.753, -1.220, 30.09, 0.10388, -0.65723, -0.03806, -0.74545,
 12:02:12.131,ed:40:fe:65:30:6c, 2015-01-01 00:15:05.645, 0.817, 0.085, 0.567, 0.488, 0.122, 1.77, 8.174, -55.585, -135.297, -23.620, -13.147, 1.400, 26.57, 0.36481, -0.40985, -0.23486, -0.80228,
 12:02:12.131,ed:40:fe:65:30:6c, 2015-01-01 00:15:05.645, 0.821, 0.085, 0.564, 0.244, 0.488, 1.77, 8.135, -55.574, -135.236, -23.620, -13.147, 1.400, 26.57, 0.36481, -0.40985, -0.23486, -0.80228,
 12:02:12.131,e3:ca:2d:fd:e0:8c, 2015-01-01 00:15:00.385, 0.999, -0.188, 0.102, 0.977, 0.488, -0.122, -59.941, -78.322, -135.939, -31.007, -9.300, -7.613, 25.78, 0.04224, 0.65149, -0.15457, 0.74146,
 12:02:12.131,e3:ca:2d:fd:e0:8c, 2015-01-01 00:15:00.385, 0.998, -0.186, 0.103, 0.854, 0.488, -0.122, -59.897, -78.316, -135.95, -31.007, -9.300, -7.613, 25.78, 0.04224, 0.65149, -0.15457, 0.74146,
 12:02:12.134,f6:90:cc:01:6d:25, 2015-01-01 00:15:00.830, 0.974, -0.077, 0.138, 1.221, 3.296, -0.488, -29.811, -80.793, -138.604, -31.953, -11.753, -1.220, 30.09, 0.10388, -0.65723, -0.03806, -0.74545,
 12:02:12.134,f6:90:cc:01:6d:25, 2015-01-01 00:15:00.830, 0.974, -0.075, 0.141, 0.793, 3.174, -0.366, -29.564, -80.744, -138.851, -31.953, -11.753, -1.220, 30.09, 0.10388, -0.65723, -0.03806, -0.74545,
 12:02:12.158,ed:35:33:d3:6c:f8, 2015-01-01 00:15:00.650, 0.654, 0.112, 0.736, -0.305, -0.183, 2.93, 8.745, -41.094, 143.427, -16.407, -13.907, -27.813, 31.4, 0.26761, 0.35797, -0.04364, 0.89343,
 12:02:12.158,ed:35:33:d3:6c:f8, 2015-01-01 00:15:00.650, 0.661, 0.107, 0.737, -0.854, 0.244, 2.014, 8.696, -41.1, 143.459, -16.407, -13.907, -27.813, 31.4, 0.26761, 0.35797, -0.04364, 0.89343,
 12:02:12.176,ed:40:fe:65:30:6c, 2015-01-01 00:15:05.645, 0.829, 0.084, 0.565, 0.122, 0.183, 1.038, 8.113, -55.569, -135.192, -23.620, -13.147, 1.400, 26.57, 0.36481, -0.40985, -0.23486, -0.80228,
 12:02:12.176,ed:40:fe:65:30:6c, 2015-01-01 00:15:05.645, 0.829, 0.086, 0.563, -0.122, 0, 0.122, 8.108, -55.563, -135.181, -23.620, -13.147, 1.400, 26.57, 0.36481, -0.40985, -0.23486, -0.80228,
 12:02:12.178,f6:90:cc:01:6d:25, 2015-01-01 00:15:00.830, 0.975, -0.077, 0.14, 0, 2.991, -0.366, -29.344, -80.7, -139.076, -31.953, -11.753, -1.220, 30.09, 0.10388, -0.65723, -0.03806, -0.74545,
 12:02:12.179,f6:90:cc:01:6d:25, 2015-01-01 00:15:00.830, 0.975, -0.081, 0.142, -0.793, 2.808, -0.61, -29.147, -80.656, -139.29, -31.953, -11.753, -1.220, 30.09, 0.10388, -0.65723, -0.03806, -0.74545,
 12:02:12.180,ed:35:33:d3:6c:f8, 2015-01-01 00:15:00.650, 0.66, 0.109, 0.736, -0.916, 0.61, 0.671, 8.657, -41.094, 143.476, -16.407, -13.907, -27.813, 31.4, 0.2674, 0.35452, -0.04251, 0.89493,
 12:02:12.180,ed:35:33:d3:6c:f8, 2015-01-01 00:15:00.650, 0.657, 0.116, 0.737, -1.892, 0.854, -0.061, 8.63, -41.083, 143.47, -16.407, -13.907, -27.813, 31.4, 0.2674, 0.35452, -0.04251, 0.89493,
 12:02:12.198,ed:40:fe:65:30:6c, 2015-01-01 00:15:05.645, 0.827, 0.084, 0.566, -0.977, 0.183, -0.183, 8.102, -55.558, -135.192, -23.620, -13.147, 1.400, 26.57, 0.36679, -0.40598, -0.23502, -0.80328,
 12:02:12.198,ed:40:fe:65:30:6c, 2015-01-01 00:15:05.645, 0.824, 0.091, 0.569, -1.648, 0.916, -0.061, 8.08, -55.541, -135.198, -23.620, -13.147, 1.400, 26.57, 0.36679, -0.40598, -0.23502, -0.80328,
 12:02:12.199,e3:ca:2d:fd:e0:8c, 2015-01-01 00:15:00.385, 1, -0.184, 0.105, 0.61, 0.427, -0.183, -59.865, -78.311, -135.961, -31.007, -9.300, -7.613, 25.78, 0.04224, 0.65149, -0.15457, 0.74146,
 12:02:12.199,e3:ca:2d:fd:e0:8c, 2015-01-01 00:15:00.385, 1, -0.185, 0.104, 0.183, 0.732, -0.305, -59.799, -78.305, -136.005, -31.007, -9.300, -7.613, 25.78, 0.04224, 0.65149, -0.15457, 0.74146,
 12:02:12.221,e3:ca:2d:fd:e0:8c, 2015-01-01 00:15:00.385, 1.003, -0.188, 0.106, 0.061, 1.282, -0.427, -59.689, -78.3, -136.137, -30.773, -9.227, -7.687, 25.78, 0.04224, 0.65149, -0.15457, 0.74146,
 12:02:12.222,e3:ca:2d:fd:e0:8c, 2015-01-01 00:15:00.385, 0.998, -0.189, 0.105, 0.183, 0.671, -0.427, -59.623, -78.294, -136.208, -30.773, -9.227, -7.687, 25.78, 0.04224, 0.65149, -0.15457, 0.74146,
 12:02:12.223,f6:90:cc:01:6d:25, 2015-01-01 00:15:00.830, 0.977, -0.081, 0.146, -0.854, 3.052, -0.916, -28.932, -80.612, -139.51, -31.953, -11.753, -1.220, 30.09, 0.10388, -0.65723, -0.03806, -0.74545,
 12:02:12.223,f6:90:cc:01:6d:25, 2015-01-01 00:15:00.830, 0.975, -0.077, 0.145, -0.61, 3.174, -0.793, -28.691, -80.568, -139.757, -31.953, -11.753, -1.220, 30.09, 0.10388, -0.65723, -0.03806, -0.74545,
 12:02:12.225,ed:35:33:d3:6c:f8, 2015-01-01 00:15:00.650, 0.654, 0.12, 0.739, -2.808, 1.77, -0.122, 8.58, -41.061, 143.465, -16.407, -13.907, -27.813, 31.4, 0.2674, 0.35452, -0.04251, 0.89493,
 12:02:12.225,ed:35:33:d3:6c:f8, 2015-01-01 00:15:00.650, 0.654, 0.121, 0.745, -2.625, 1.953, -0.183, 8.531, -41.028, 143.438, -16.407, -13.907, -27.813, 31.4, 0.2674, 0.35452, -0.04251, 0.89493,
 12:02:12.242,ed:40:fe:65:30:6c, 2015-01-01 00:15:05.645, 0.823, 0.093, 0.571, -1.465, 1.465, 0, 8.058, -55.514, -135.192, -23.620, -13.147, 1.400, 26.57, 0.36679, -0.40598, -0.23502, -0.80328,
 12:02:12.242,ed:40:fe:65:30:6c, 2015-01-01 00:15:05.645, 0.824, 0.089, 0.57, -0.61, 1.221, 0.183, 8.042, -55.481, -135.192, -23.620, -13.147, 1.400, 26.57, 0.36679, -0.40598, -0.23502, -0.80328,
 12:02:12.245,f6:90:cc:01:6d:25, 2015-01-01 00:15:00.830, 0.974, -0.078, 0.137, 0.061, 3.174, -0.427, -28.46, -80.519, -139.982, -31.953, -11.753, -1.220, 30.09, 0.10388, -0.65723, -0.03806, -0.74545,
 12:02:12.245,f6:90:cc:01:6d:25, 2015-01-01 00:15:00.830, 0.969, -0.082, 0.142, 0.916, 3.967, -0.427, -28.235, -80.469, -140.175, -31.953, -11.753, -1.220, 30.09, 0.10388, -0.65723, -0.03806, -0.74545,
 12:02:12.246,ed:35:33:d3:6c:f8, 2015-01-01 00:15:00.985, 0.656, 0.117, 0.747, -1.282, 1.831, 0, 8.498, -40.99, 143.41, -16.407, -13.907, -27.813, 31.4, 0.2674, 0.35452, -0.04251, 0.89493,
 12:02:12.246,ed:35:33:d3:6c:f8, 2015-01-01 00:15:00.985, 0.644, 0.118, 0.743, -0.854, 0.916, 0.366, 8.476, -40.968, 143.394, -16.407, -13.907, -27.813, 31.4, 0.2674, 0.35452, -0.04251, 0.89493,
 12:02:12.266,e3:ca:2d:fd:e0:8c, 2015-01-01 00:15:00.385, 1.006, -0.186, 0.104, 0.61, 0.854, -0.244, -59.546, -78.289, -136.307, -30.773, -9.227, -7.687, 25.78, 0.04224, 0.65149, -0.15457, 0.74146,
 12:02:12.266,e3:ca:2d:fd:e0:8c, 2015-01-01 00:15:00.385, 0.995, -0.188, 0.105, 0.793, 1.282, -0.061, -59.442, -78.272, -136.428, -30.773, -9.227, -7.687, 25.78, 0.04224, 0.65149, -0.15457, 0.74146,
 12:02:12.289,ed:40:fe:65:30:6c, 2015-01-01 00:15:05.980, 0.815, 0.086, 0.572, -0.427, 1.404, 0.122, 8.031, -55.453, -135.198, -23.620, -13.147, 1.400, 26.57, 0.36679, -0.40598, -0.23502, -0.80328,
 12:02:12.289,ed:40:fe:65:30:6c, 2015-01-01 00:15:05.980, 0.814, 0.081, 0.575, 0, 1.587, 0.549, 8.02, -55.421, -135.192, -23.620, -13.147, 1.400, 26.57, 0.36679, -0.40598, -0.23502, -0.80328,
 12:02:12.291,f6:90:cc:01:6d:25, 2015-01-01 00:15:00.830, 0.967, -0.084, 0.15, 1.282, 4.028, -0.977, -27.949, -80.409, -140.411, -31.953, -11.753, -1.220, 30.09, 0.10388, -0.65723, -0.03806, -0.74545,
 12:02:12.291,f6:90:cc:01:6d:25, 2015-01-01 00:15:00.830, 0.966, -0.08, 0.16, 1.282, 3.174, -1.343, -27.625, -80.349, -140.707, -31.953, -11.753, -1.220, 30.09, 0.10388, -0.65723, -0.03806, -0.74545,
 12:02:12.293,ed:35:33:d3:6c:f8, 2015-01-01 00:15:00.985, 0.644, 0.113, 0.744, -0.671, 1.709, 1.16, 8.448, -40.946, 143.399, -16.407, -13.907, -27.813, 31.4, 0.2674, 0.35452, -0.04251, 0.89493,
 12:02:12.293,ed:35:33:d3:6c:f8, 2015-01-01 00:15:00.985, 0.646, 0.104, 0.742, 0.122, 4.395, 2.014, 8.416, -40.891, 143.448, -16.407, -13.907, -27.813, 31.4, 0.2674, 0.35452, -0.04251, 0.89493,
 12:02:12.311,ed:40:fe:65:30:6c, 2015-01-01 00:15:05.980, 0.816, 0.079, 0.571, -0.061, 2.319, 0.732, 7.998, -55.371, -135.176, -23.620, -13.147, 1.400, 26.57, 0.36679, -0.40598, -0.23502, -0.80328,
 12:02:12.311,ed:40:fe:65:30:6c, 2015-01-01 00:15:05.980, 0.812, 0.081, 0.57, -0.61, 2.38, 0.061, 7.982, -55.322, -135.17, -23.620, -13.147, 1.400, 26.57, 0.36679, -0.40598, -0.23502, -0.80328,
 12:02:12.335,e3:ca:2d:fd:e0:8c, 2015-01-01 00:15:00.385, 0.999, -0.184, 0.104, 0.305, 1.038, -0.244, -59.354, -78.261, -136.549, -30.773, -9.227, -7.687, 25.78, 0.04056, 0.65167, -0.15363, 0.74161,
 12:02:12.335,e3:ca:2d:fd:e0:8c, 2015-01-01 00:15:00.385, 0.992, -0.188, 0.105, 0.122, 0.916, -0.488, -59.271, -78.256, -136.67, -30.773, -9.227, -7.687, 25.78, 0.04056, 0.65167, -0.15363, 0.74161,
 12:02:12.338,ed:35:33:d3:6c:f8, 2015-01-01 00:15:00.985, 0.643, 0.098, 0.745, -0.977, 5.92, 0.977, 8.372, -40.792, 143.52, -16.407, -13.907, -27.813, 31.4, 0.2674, 0.35452, -0.04251, 0.89493,
 12:02:12.338,ed:35:33:d3:6c:f8, 2015-01-01 00:15:00.985, 0.64, 0.105, 0.751, -2.319, 5.92, -0.793, 8.328, -40.677, 143.547, -16.407, -13.907, -27.813, 31.4, 0.2674, 0.35452, -0.04251, 0.89493,
 12:02:12.355,ed:40:fe:65:30:6c, 2015-01-01 00:15:05.980, 0.812, 0.084, 0.576, -1.404, 2.197, -0.61, 7.965, -55.272, -135.187, -23.620, -13.147, 1.400, 26.57, 0.36679, -0.40598, -0.23502, -0.80328,
 12:02:12.355,ed:40:fe:65:30:6c, 2015-01-01 00:15:05.980, 0.815, 0.086, 0.573, -1.587, 2.136, -0.732, 7.954, -55.223, -135.192, -23.620, -13.147, 1.400, 26.57, 0.36679, -0.40598, -0.23502, -0.80328,
 12:02:12.357,e3:ca:2d:fd:e0:8c, 2015-01-01 00:15:00.765, 0.999, -0.186, 0.105, 0.488, 1.587, -0.366, -59.128, -78.239, -136.835, -30.773, -9.227, -7.687, 25.78, 0.04056, 0.65167, -0.15363, 0.74161,
 12:02:12.357,e3:ca:2d:fd:e0:8c, 2015-01-01 00:15:00.765, 0.999, -0.187, 0.105, 0, -0.244, -0.549, -59.145, -78.25, -136.857, -30.773, -9.227, -7.687, 25.78, 0.04056, 0.65167, -0.15363, 0.74161,
 12:02:12.358,f6:90:cc:01:6d:25, 2015-01-01 00:15:00.830, 0.968, -0.076, 0.16, 0.61, 1.587, -1.343, -27.356, -80.321, -140.949, -31.960, -11.833, -1.353, 30.09, 0.10388, -0.65723, -0.03806, -0.74545,
 12:02:12.358,f6:90:cc:01:6d:25, 2015-01-01 00:15:00.830, 0.97, -0.074, 0.155, -0.427, 0.61, -1.282, -27.175, -80.316, -141.125, -31.960, -11.833, -1.353, 30.09, 0.10388, -0.65723, -0.03806, -0.74545,
 12:02:12.379,e3:ca:2d:fd:e0:8c, 2015-01-01 00:15:00.765, 1, -0.185, 0.105, -0.244, -0.549, -0.671, -59.178, -78.261, -136.851, -30.773, -9.227, -7.687, 25.78, 0.04056, 0.65167, -0.15363, 0.74161,
 12:02:12.379,e3:ca:2d:fd:e0:8c, 2015-01-01 00:15:00.765, 1, -0.183, 0.104, -0.305, -0.427, -0.671, -59.205, -78.272, -136.846, -30.773, -9.227, -7.687, 25.78, 0.04056, 0.65167, -0.15363, 0.74161,
 12:02:12.381,ed:35:33:d3:6c:f8, 2015-01-01 00:15:00.985, 0.644, 0.11, 0.755, -1.892, 4.15, -1.587, 8.295, -40.578, 143.525, -16.407, -13.907, -27.813, 31.4, 0.2674, 0.35452, -0.04251, 0.89493,
 12:02:12.381,ed:35:33:d3:6c:f8, 2015-01-01 00:15:00.985, 0.646, 0.108, 0.753, -0.427, 1.953, -1.587, 8.289, -40.512, 143.476, -16.407, -13.907, -27.813, 31.4, 0.2674, 0.35452, -0.04251, 0.89493,
 12:02:12.381,f6:90:cc:01:6d:25, 2015-01-01 00:15:00.830, 0.967, -0.075, 0.149, -0.671, 0.977, -1.221, -27.021, -80.31, -141.284, -31.960, -11.833, -1.353, 30.09, 0.10416, -0.65073, -0.03934, -0.75104,
 12:02:12.381,f6:90:cc:01:6d:25, 2015-01-01 00:15:00.830, 0.969, -0.072, 0.152, -0.122, 0.549, -1.16, -26.873, -80.305, -141.422, -31.960, -11.833, -1.353, 30.09, 0.10416, -0.65073, -0.03934, -0.75104,
 12:02:12.401,ed:40:fe:65:30:6c, 2015-01-01 00:15:05.980, 0.816, 0.084, 0.575, -0.916, 1.831, -0.549, 7.943, -55.173, -135.203, -23.620, -13.147, 1.400, 26.57, 0.36679, -0.40598, -0.23502, -0.80328,
 12:02:12.401,ed:40:fe:65:30:6c, 2015-01-01 00:15:05.980, 0.812, 0.083, 0.568, -0.366, 1.648, -0.671, 7.954, -55.135, -135.22, -23.620, -13.147, 1.400, 26.57, 0.36679, -0.40598, -0.23502, -0.80328,
 12:02:12.404,ed:35:33:d3:6c:f8, 2015-01-01 00:15:00.985, 0.642, 0.11, 0.745, 0.244, 0.366, -1.099, 8.311, -40.49, 143.432, -16.407, -13.907, -27.813, 31.4, 0.2674, 0.35452, -0.04251, 0.89493,
 12:02:12.404,ed:35:33:d3:6c:f8, 2015-01-01 00:15:00.985, 0.636, 0.115, 0.741, 0.183, -0.427, -0.793, 8.328, -40.485, 143.394, -16.407, -13.907, -27.813, 31.4, 0.2674, 0.35452, -0.04251, 0.89493,
 12:02:12.424,e3:ca:2d:fd:e0:8c, 2015-01-01 00:15:00.765, 1, -0.182, 0.103, 0, -0.305, -0.61, -59.216, -78.283, -136.846, -30.773, -9.227, -7.687, 25.78, 0.04056, 0.65167, -0.15363, 0.74161,
 12:02:12.424,e3:ca:2d:fd:e0:8c, 2015-01-01 00:15:00.765, 1, -0.185, 0.103, 0, -0.122, -0.549, -59.216, -78.289, -136.868, -30.773, -9.227, -7.687, 25.78, 0.04056, 0.65167, -0.15363, 0.74161,
 12:02:12.445,ed:40:fe:65:30:6c, 2015-01-01 00:15:05.980, 0.809, 0.089, 0.569, -0.549, 1.77, -0.977, 7.965, -55.091, -135.236, -23.620, -13.147, 1.400, 26.57, 0.36679, -0.40598, -0.23502, -0.80328,
 12:02:12.445,ed:40:fe:65:30:6c, 2015-01-01 00:15:05.980, 0.809, 0.093, 0.571, -0.488, 2.136, -0.854, 7.982, -55.047, -135.253, -23.620, -13.147, 1.400, 26.57, 0.36679, -0.40598, -0.23502, -0.80328,
 12:02:12.447,f6:90:cc:01:6d:25, 2015-01-01 00:15:00.830, 0.969, -0.073, 0.152, 0, -0.183, -1.099, -26.752, -80.31, -141.531, -31.960, -11.833, -1.353, 30.09, 0.10416, -0.65073, -0.03934, -0.75104,
 12:02:12.447,f6:90:cc:01:6d:25, 2015-01-01 00:15:00.830, 0.968, -0.075, 0.149, 0, -0.671, -0.916, -26.669, -80.327, -141.597, -31.960, -11.833, -1.353, 30.09, 0.10416, -0.65073, -0.03934, -0.75104,
 12:02:12.448,ed:35:33:d3:6c:f8, 2015-01-01 00:15:00.985, 0.636, 0.12, 0.742, 0, 0.488, -0.671, 8.344, -40.485, 143.355, -16.407, -13.907, -27.813, 31.4, 0.2674, 0.35452, -0.04251, 0.89493,
 12:02:12.448,ed:35:33:d3:6c:f8, 2015-01-01 00:15:00.985, 0.637, 0.127, 0.746, 0, 1.587, -0.244, 8.355, -40.463, 143.333, -16.407, -13.907, -27.813, 31.4, 0.2674, 0.35452, -0.04251, 0.89493,
 12:02:12.469,e3:ca:2d:fd:e0:8c, 2015-01-01 00:15:00.765, 0.998, -0.187, 0.104, -0.305, 0.061, -0.549, -59.205, -78.294, -136.895, -30.773, -9.227, -7.687, 25.78, 0.04056, 0.65167, -0.15363, 0.74161,
 12:02:12.469,e3:ca:2d:fd:e0:8c, 2015-01-01 00:15:00.765, 0.998, -0.187, 0.104, -0.244, 0.305, -0.61, -59.172, -78.3, -136.939, -30.773, -9.227, -7.687, 25.78, 0.04056, 0.65167, -0.15363, 0.74161,
 12:02:12.469,ed:40:fe:65:30:6c, 2015-01-01 00:15:05.980, 0.809, 0.096, 0.571, -0.366, 1.831, -0.183, 7.982, -55.003, -135.258, -23.493, -12.807, 1.007, 26.57, 0.36679, -0.40598, -0.23502, -0.80328,
 12:02:12.469,ed:40:fe:65:30:6c, 2015-01-01 00:15:05.980, 0.812, 0.092, 0.574, 0.183, 1.709, 0.488, 7.982, -54.965, -135.236, -23.493, -12.807, 1.007, 26.57, 0.36679, -0.40598, -0.23502, -0.80328,
 12:02:12.471,f6:90:cc:01:6d:25, 2015-01-01 00:15:01.185, 0.967, -0.076, 0.149, 0.366, -0.977, -0.793, -26.625, -80.343, -141.625, -31.960, -11.833, -1.353, 30.09, 0.10416, -0.65073, -0.03934, -0.75104,
 12:02:12.471,f6:90:cc:01:6d:25, 2015-01-01 00:15:01.185, 0.97, -0.075, 0.15, 0.732, -0.977, -0.488, -26.598, -80.365, -141.619, -31.960, -11.833, -1.353, 30.09, 0.10416, -0.65073, -0.03934, -0.75104,
 12:02:12.493,f6:90:cc:01:6d:25, 2015-01-01 00:15:01.185, 0.973, -0.072, 0.152, 0.732, -0.977, -0.244, -26.598, -80.381, -141.57, -31.960, -11.833, -1.353, 30.09, 0.10416, -0.65073, -0.03934, -0.75104,
 12:02:12.493,f6:90:cc:01:6d:25, 2015-01-01 00:15:01.185, 0.976, -0.072, 0.152, 0.854, -0.977, -0.061, -26.62, -80.398, -141.504, -31.960, -11.833, -1.353, 30.09, 0.10416, -0.65073, -0.03934, -0.75104,
 12:02:12.494,ed:35:33:d3:6c:f8, 2015-01-01 00:15:00.985, 0.639, 0.122, 0.748, 0.671, 0.916, 0.732, 8.361, -40.441, 143.333, -15.740, -13.873, -28.207, 31.4, 0.2674, 0.35452, -0.04251, 0.89493,
 12:02:12.494,ed:35:33:d3:6c:f8, 2015-01-01 00:15:00.985, 0.639, 0.12, 0.751, 0.427, 0.427, 0.977, 8.361, -40.43, 143.35, -15.740, -13.873, -28.207, 31.4, 0.2674, 0.35452, -0.04251, 0.89493,
 12:02:12.513,ed:40:fe:65:30:6c, 2015-01-01 00:15:05.980, 0.814, 0.092, 0.577, 0.122, 1.282, 0.793, 7.965, -54.932, -135.203, -23.493, -12.807, 1.007, 26.57, 0.36679, -0.40598, -0.23502, -0.80328,
 12:02:12.513,ed:40:fe:65:30:6c, 2015-01-01 00:15:05.980, 0.812, 0.092, 0.578, -0.305, 1.282, 1.038, 7.943, -54.904, -135.159, -23.493, -12.807, 1.007, 26.57, 0.36679, -0.40598, -0.23502, -0.80328,
 12:02:12.514,e3:ca:2d:fd:e0:8c, 2015-01-01 00:15:00.765, 0.999, -0.185, 0.108, 0.122, 0.244, -0.488, -59.145, -78.3, -136.972, -30.773, -9.227, -7.687, 25.78, 0.04056, 0.65167, -0.15363, 0.74161,
 12:02:12.514,e3:ca:2d:fd:e0:8c, 2015-01-01 00:15:00.765, 1, -0.184, 0.107, 0.183, 0, -0.427, -59.134, -78.305, -136.994, -30.773, -9.227, -7.687, 25.78, 0.04056, 0.65167, -0.15363, 0.74161,
 12:02:12.538,f6:90:cc:01:6d:25, 2015-01-01 00:15:01.185, 0.974, -0.073, 0.143, 0.671, -0.488, 0, -26.636, -80.409, -141.438, -31.960, -11.833, -1.353, 30.09, 0.10416, -0.65073, -0.03934, -0.75104,
 12:02:12.538,f6:90:cc:01:6d:25, 2015-01-01 00:15:01.185, 0.975, -0.075, 0.144, 0.305, -0.366, -0.183, -26.636, -80.414, -141.389, -31.960, -11.833, -1.353, 30.09, 0.10416, -0.65073, -0.03934, -0.75104,
 12:02:12.539,ed:35:33:d3:6c:f8, 2015-01-01 00:15:00.985, 0.638, 0.122, 0.755, 0.122, -0.305, 1.038, 8.355, -40.435, 143.383, -15.740, -13.873, -28.207, 31.4, 0.27011, 0.34866, -0.04337, 0.89636,
 12:02:12.539,ed:35:33:d3:6c:f8, 2015-01-01 00:15:00.985, 0.649, 0.12, 0.757, 0.732, -0.183, 2.014, 8.344, -40.441, 143.443, -15.740, -13.873, -28.207, 31.4, 0.27011, 0.34866, -0.04337, 0.89636,
 12:02:12.559,e3:ca:2d:fd:e0:8c, 2015-01-01 00:15:00.765, 1.002, -0.184, 0.104, -0.122, -0.183, -0.305, -59.15, -78.311, -137.01, -30.773, -9.227, -7.687, 25.78, 0.04056, 0.65167, -0.15363, 0.74161,
 12:02:12.559,e3:ca:2d:fd:e0:8c, 2015-01-01 00:15:00.765, 1.003, -0.185, 0.102, -0.122, -0.183, -0.366, -59.167, -78.311, -137.01, -30.773, -9.227, -7.687, 25.78, 0.04056, 0.65167, -0.15363, 0.74161,
 12:02:12.580,ed:40:fe:65:30:6c, 2015-01-01 00:15:05.980, 0.82, 0.093, 0.584, -0.427, 1.038, 1.282, 7.91, -54.882, -135.115, -23.493, -12.807, 1.007, 26.57, 0.36697, -0.40179, -0.23227, -0.80612,
 12:02:12.580,ed:40:fe:65:30:6c, 2015-01-01 00:15:05.980, 0.827, 0.092, 0.586, -0.61, 1.16, 1.099, 7.872, -54.855, -135.071, -23.493, -12.807, 1.007, 26.57, 0.36697, -0.40179, -0.23227, -0.80612,
 12:02:12.582,f6:90:cc:01:6d:25, 2015-01-01 00:15:01.185, 0.976, -0.069, 0.157, 0.244, -0.732, -0.122, -26.642, -80.425, -141.356, -31.960, -11.833, -1.353, 30.09, 0.10416, -0.65073, -0.03934, -0.75104,
 12:02:12.582,f6:90:cc:01:6d:25, 2015-01-01 00:15:01.185, 0.972, -0.064, 0.154, 0, -0.977, 0, -26.675, -80.442, -141.301, -31.960, -11.833, -1.353, 30.09, 0.10416, -0.65073, -0.03934, -0.75104,
 12:02:12.582,e3:ca:2d:fd:e0:8c, 2015-01-01 00:15:00.765, 1.003, -0.186, 0.102, 0.061, -0.061, -0.427, -59.167, -78.316, -137.027, -30.513, -9.653, -7.827, 25.78, 0.04056, 0.65167, -0.15363, 0.74161,
 12:02:12.582,e3:ca:2d:fd:e0:8c, 2015-01-01 00:15:00.765, 1, -0.184, 0.106, 0.305, -0.366, -0.305, -59.194, -78.322, -137, -30.513, -9.653, -7.827, 25.78, 0.04056, 0.65167, -0.15363, 0.74161,
 12:02:12.584,ed:35:33:d3:6c:f8, 2015-01-01 00:15:00.985, 0.66, 0.112, 0.754, 0.732, -0.122, 1.953, 8.333, -40.446, 143.498, -15.740, -13.873, -28.207, 31.4, 0.27011, 0.34866, -0.04337, 0.89636,
 12:02:12.584,ed:35:33:d3:6c:f8, 2015-01-01 00:15:00.985, 0.642, 0.102, 0.736, -0.427, 2.136, 0.183, 8.322, -40.413, 143.531, -15.740, -13.873, -28.207, 31.4, 0.27011, 0.34866, -0.04337, 0.89636,
 12:02:12.602,ed:40:fe:65:30:6c, 2015-01-01 00:15:06.315, 0.81, 0.086, 0.572, -1.343, 1.709, 0.122, 7.844, -54.822, -135.055, -23.493, -12.807, 1.007, 26.57, 0.36697, -0.40179, -0.23227, -0.80612,
 12:02:12.602,ed:40:fe:65:30:6c, 2015-01-01 00:15:06.315, 0.793, 0.091, 0.575, -2.686, 1.953, -1.282, 7.833, -54.778, -135.077, -23.493, -12.807, 1.007, 26.57, 0.36697, -0.40179, -0.23227, -0.80612,
 12:02:12.605,f6:90:cc:01:6d:25, 2015-01-01 00:15:01.185, 0.97, -0.065, 0.147, -0.122, -1.282, 0.122, -26.724, -80.458, -141.218, -31.960, -11.833, -1.353, 30.09, 0.10416, -0.65073, -0.03934, -0.75104,
 12:02:12.605,f6:90:cc:01:6d:25, 2015-01-01 00:15:01.185, 0.975, -0.069, 0.144, -0.366, -0.671, 0.183, -26.779, -80.469, -141.141, -31.960, -11.833, -1.353, 30.09, 0.10416, -0.65073, -0.03934, -0.75104,
 12:02:12.607,ed:35:33:d3:6c:f8, 2015-01-01 00:15:00.985, 0.622, 0.111, 0.741, -2.686, 4.15, -2.075, 8.3, -40.336, 143.536, -15.740, -13.873, -28.207, 31.41, 0.27011, 0.34866, -0.04337, 0.89636,
 12:02:12.607,ed:35:33:d3:6c:f8, 2015-01-01 00:15:00.985, 0.635, 0.119, 0.75, -2.991, 3.235, -2.502, 8.278, -40.265, 143.509, -15.740, -13.873, -28.207, 31.41, 0.27011, 0.34866, -0.04337, 0.89636,
 12:02:12.627,e3:ca:2d:fd:e0:8c, 2015-01-01 00:15:00.765, 0.998, -0.181, 0.11, 0.549, -0.854, -0.061, -59.266, -78.327, -136.912, -30.513, -9.653, -7.827, 25.78, 0.04056, 0.65167, -0.15363, 0.74161,
 12:02:12.627,e3:ca:2d:fd:e0:8c, 2015-01-01 00:15:00.765, 1, -0.179, 0.106, 0.244, -1.038, 0, -59.354, -78.333, -136.802, -30.513, -9.653, -7.827, 25.78, 0.04056, 0.65167, -0.15363, 0.74161,
 12:02:12.649,ed:40:fe:65:30:6c, 2015-01-01 00:15:06.315, 0.808, 0.091, 0.58, -2.441, 2.747, -1.526, 7.828, -54.717, -135.115, -23.493, -12.807, 1.007, 26.57, 0.36697, -0.40179, -0.23227, -0.80612,
 12:02:12.649,ed:40:fe:65:30:6c, 2015-01-01 00:15:06.315, 0.827, 0.082, 0.573, -0.244, 2.197, -0.732, 7.844, -54.668, -135.137, -23.493, -12.807, 1.007, 26.57, 0.36697, -0.40179, -0.23227, -0.80612,
 12:02:12.651,ed:35:33:d3:6c:f8, 2015-01-01 00:15:00.985, 0.655, 0.115, 0.755, -0.061, 3.357, -0.854, 8.278, -40.193, 143.52, -15.740, -13.873, -28.207, 31.41, 0.27011, 0.34866, -0.04337, 0.89636,
 12:02:12.651,ed:35:33:d3:6c:f8, 2015-01-01 00:15:00.985, 0.653, 0.11, 0.755, 1.038, 2.197, 0.427, 8.289, -40.144, 143.553, -15.740, -13.873, -28.207, 31.41, 0.27011, 0.34866, -0.04337, 0.89636,
 12:02:12.651,f6:90:cc:01:6d:25, 2015-01-01 00:15:01.185, 0.979, -0.075, 0.141, -0.61, 0, 0, -26.796, -80.475, -141.114, -31.960, -11.833, -1.353, 30.09, 0.10416, -0.65073, -0.03934, -0.75104,
 12:02:12.651,f6:90:cc:01:6d:25, 2015-01-01 00:15:01.185, 0.979, -0.075, 0.14, 0.061, 0.366, -0.061, -26.779, -80.469, -141.136, -31.960, -11.833, -1.353, 30.09, 0.10416, -0.65073, -0.03934, -0.75104,
 12:02:12.671,ed:40:fe:65:30:6c, 2015-01-01 00:15:06.315, 0.827, 0.08, 0.575, 0.671, 1.099, -0.183, 7.866, -54.641, -135.154, -23.493, -12.807, 1.007, 26.57, 0.36697, -0.40179, -0.23227, -0.80612,
 12:02:12.671,ed:40:fe:65:30:6c, 2015-01-01 00:15:06.315, 0.823, 0.087, 0.583, 0.366, 0.61, -0.305, 7.894, -54.624, -135.17, -23.493, -12.807, 1.007, 26.57, 0.36697, -0.40179, -0.23227, -0.80612,
 12:02:12.697,ed:35:33:d3:6c:f8, 2015-01-01 00:15:01.410, 0.651, 0.113, 0.756, 1.221, -0.122, 0.061, 8.317, -40.139, 143.591, -15.740, -13.873, -28.207, 31.41, 0.27011, 0.34866, -0.04337, 0.89636,
 12:02:12.697,ed:35:33:d3:6c:f8, 2015-01-01 00:15:01.410, 0.645, 0.112, 0.755, 1.099, -1.282, -0.854, 8.355, -40.161, 143.597, -15.740, -13.873, -28.207, 31.41, 0.27011, 0.34866, -0.04337, 0.89636,
 12:02:12.715,ed:40:fe:65:30:6c, 2015-01-01 00:15:06.315, 0.816, 0.089, 0.581, -0.732, 0.854, -0.671, 7.899, -54.602, -135.192, -23.493, -12.807, 1.007, 26.57, 0.36697, -0.40179, -0.23227, -0.80612,
 12:02:12.715,ed:40:fe:65:30:6c, 2015-01-01 00:15:06.315, 0.806, 0.087, 0.581, -1.404, 0.305, -1.404, 7.921, -54.591, -135.242, -23.493, -12.807, 1.007, 26.57, 0.36697, -0.40179, -0.23227, -0.80612,
 12:02:12.716,e3:ca:2d:fd:e0:8c, 2015-01-01 00:15:00.765, 1.002, -0.182, 0.104, -0.305, -0.916, 0, -59.447, -78.344, -136.714, -30.513, -9.653, -7.827, 25.78, 0.04285, 0.65146, -0.15491, 0.74139,
 12:02:12.716,e3:ca:2d:fd:e0:8c, 2015-01-01 00:15:00.765, 1.003, -0.186, 0.102, -0.244, -0.854, -0.061, -59.529, -78.349, -136.631, -30.513, -9.653, -7.827, 25.78, 0.04285, 0.65146, -0.15491, 0.74139,
 12:02:12.718,f6:90:cc:01:6d:25, 2015-01-01 00:15:01.185, 0.977, -0.078, 0.14, 1.099, 0.854, -0.183, -26.702, -80.458, -141.191, -32.173, -12.160, -1.667, 30.09, 0.10416, -0.65073, -0.03934, -0.75104,
 12:02:12.718,f6:90:cc:01:6d:25, 2015-01-01 00:15:01.185, 0.974, -0.077, 0.14, 0.549, 0.671, -0.122, -26.636, -80.447, -141.224, -32.173, -12.160, -1.667, 30.09, 0.10416, -0.65073, -0.03934, -0.75104,
 12:02:12.739,e3:ca:2d:fd:e0:8c, 2015-01-01 00:15:01.125, 1.003, -0.191, 0.097, 0.854, -0.732, 0, -59.595, -78.354, -136.549, -30.513, -9.653, -7.827, 25.78, 0.04285, 0.65146, -0.15491, 0.74139,
 12:02:12.739,e3:ca:2d:fd:e0:8c, 2015-01-01 00:15:01.125, 1.001, -0.187, 0.096, 0.854, -0.366, 0.061, -59.65, -78.354, -136.478, -30.513, -9.653, -7.827, 25.78, 0.04285, 0.65146, -0.15491, 0.74139,
 12:02:12.740,f6:90:cc:01:6d:25, 2015-01-01 00:15:01.185, 0.971, -0.075, 0.142, -0.427, -0.244, 0, -26.642, -80.453, -141.196, -32.173, -12.160, -1.667, 30.09, 0.10635, -0.65115, -0.04276, -0.75015,
 12:02:12.740,f6:90:cc:01:6d:25, 2015-01-01 00:15:01.185, 0.969, -0.075, 0.141, -0.854, -0.61, -0.061, -26.686, -80.464, -141.141, -32.173, -12.160, -1.667, 30.09, 0.10635, -0.65115, -0.04276, -0.75015,
 12:02:12.742,ed:35:33:d3:6c:f8, 2015-01-01 00:15:01.410, 0.636, 0.109, 0.75, 0.305, -0.854, -1.953, 8.399, -40.177, 143.575, -15.740, -13.873, -28.207, 31.41, 0.27011, 0.34866, -0.04337, 0.89636,
 12:02:12.742,ed:35:33:d3:6c:f8, 2015-01-01 00:15:01.410, 0.631, 0.113, 0.746, -0.488, 2.014, -1.892, 8.421, -40.144, 143.542, -15.740, -13.873, -28.207, 31.41, 0.27011, 0.34866, -0.04337, 0.89636,
 12:02:12.761,e3:ca:2d:fd:e0:8c, 2015-01-01 00:15:01.125, 1.002, -0.183, 0.099, 0.305, 0.183, 0, -59.678, -78.354, -136.434, -30.513, -9.653, -7.827, 25.78, 0.04285, 0.65146, -0.15491, 0.74139,
 12:02:12.761,e3:ca:2d:fd:e0:8c, 2015-01-01 00:15:01.125, 1.001, -0.182, 0.099, -0.244, 0.793, -0.183, -59.667, -78.349, -136.439, -30.513, -9.653, -7.827, 25.78, 0.04285, 0.65146, -0.15491, 0.74139,
 12:02:12.784,e3:ca:2d:fd:e0:8c, 2015-01-01 00:15:01.125, 1, -0.186, 0.1, -0.244, 1.16, -0.305, -59.612, -78.338, -136.5, -30.513, -9.653, -7.827, 25.78, 0.04285, 0.65146, -0.15491, 0.74139,
 12:02:12.784,e3:ca:2d:fd:e0:8c, 2015-01-01 00:15:01.125, 1, -0.19, 0.101, 0.122, 1.221, -0.305, -59.524, -78.333, -136.599, -30.513, -9.653, -7.827, 25.78, 0.04285, 0.65146, -0.15491, 0.74139,
 12:02:12.784,ed:40:fe:65:30:6c, 2015-01-01 00:15:06.315, 0.801, 0.083, 0.577, -1.282, 0.122, -1.526, 7.943, -54.586, -135.291, -23.493, -12.807, 1.007, 26.57, 0.36697, -0.40179, -0.23227, -0.80612,
 12:02:12.784,ed:40:fe:65:30:6c, 2015-01-01 00:15:06.315, 0.799, 0.082, 0.58, -0.427, 0.366, -0.977, 7.965, -54.569, -135.319, -23.493, -12.807, 1.007, 26.57, 0.36697, -0.40179, -0.23227, -0.80612,
 12:02:12.785,f6:90:cc:01:6d:25, 2015-01-01 00:15:01.185, 0.968, -0.075, 0.145, -1.343, -0.671, -0.061, -26.746, -80.475, -141.081, -32.173, -12.160, -1.667, 30.09, 0.10635, -0.65115, -0.04276, -0.75015,
 12:02:12.785,f6:90:cc:01:6d:25, 2015-01-01 00:15:01.185, 0.97, -0.076, 0.148, -1.282, -0.549, -0.183, -26.796, -80.491, -141.042, -32.173, -12.160, -1.667, 30.09, 0.10635, -0.65115, -0.04276, -0.75015,
 12:02:12.786,ed:35:33:d3:6c:f8, 2015-01-01 00:15:01.410, 0.628, 0.115, 0.752, 0.916, 0.366, -0.732, 8.448, -40.128, 143.52, -15.740, -13.873, -28.207, 31.41, 0.27011, 0.34866, -0.04337, 0.89636,
 12:02:12.786,ed:35:33:d3:6c:f8, 2015-01-01 00:15:01.410, 0.638, 0.111, 0.749, 0.61, 1.526, 0, 8.465, -40.106, 143.542, -15.740, -13.873, -28.207, 31.41, 0.27011, 0.34866, -0.04337, 0.89636,
 12:02:12.805,ed:40:fe:65:30:6c, 2015-01-01 00:15:06.315, 0.807, 0.084, 0.582, 0.122, -0.122, -0.366, 7.987, -54.569, -135.335, -23.487, -13.080, 0.840, 26.57, 0.36697, -0.40179, -0.23227, -0.80612,
 12:02:12.805,ed:40:fe:65:30:6c, 2015-01-01 00:15:06.315, 0.813, 0.091, 0.583, -0.305, 0.122, -0.488, 7.998, -54.558, -135.352, -23.487, -13.080, 0.840, 26.57, 0.36697, -0.40179, -0.23227, -0.80612,
 12:02:12.807,f6:90:cc:01:6d:25, 2015-01-01 00:15:01.545, 0.975, -0.073, 0.148, -1.282, -0.549, -0.061, -26.845, -80.502, -141.015, -32.173, -12.160, -1.667, 30.09, 0.10635, -0.65115, -0.04276, -0.75015,
 12:02:12.807,f6:90:cc:01:6d:25, 2015-01-01 00:15:01.545, 0.976, -0.074, 0.148, -0.977, -0.854, 0.183, -26.922, -80.513, -140.955, -32.173, -12.160, -1.667, 30.09, 0.10635, -0.65115, -0.04276, -0.75015,
 12:02:12.810,ed:35:33:d3:6c:f8, 2015-01-01 00:15:01.410, 0.641, 0.115, 0.754, 0.427, 1.221, -0.549, 8.476, -40.078, 143.547, -15.740, -13.873, -28.207, 31.41, 0.27011, 0.34866, -0.04337, 0.89636,
 12:02:12.810,ed:35:33:d3:6c:f8, 2015-01-01 00:15:01.410, 0.643, 0.114, 0.758, 1.831, -1.099, -0.488, 8.52, -40.089, 143.542, -15.740, -13.873, -28.207, 31.41, 0.27011, 0.34866, -0.04337, 0.89636,
 12:02:12.829,e3:ca:2d:fd:e0:8c, 2015-01-01 00:15:01.125, 1.001, -0.191, 0.103, 0.488, 1.099, -0.305, -59.431, -78.322, -136.714, -30.513, -9.653, -7.827, 25.78, 0.04285, 0.65146, -0.15491, 0.74139,
 12:02:12.829,e3:ca:2d:fd:e0:8c, 2015-01-01 00:15:01.125, 1, -0.188, 0.105, 0.366, 0.732, -0.305, -59.348, -78.311, -136.802, -30.513, -9.653, -7.827, 25.78, 0.04285, 0.65146, -0.15491, 0.74139,
 12:02:12.850,ed:40:fe:65:30:6c, 2015-01-01 00:15:06.315, 0.813, 0.086, 0.584, 0.549, 0.427, -0.671, 8.031, -54.542, -135.379, -23.487, -13.080, 0.840, 26.57, 0.36697, -0.40179, -0.23227, -0.80612,
 12:02:12.850,ed:40:fe:65:30:6c, 2015-01-01 00:15:06.315, 0.808, 0.084, 0.593, 0.488, 0.488, -0.793, 8.064, -54.525, -135.417, -23.487, -13.080, 0.840, 26.57, 0.36697, -0.40179, -0.23227, -0.80612,
 12:02:12.852,f6:90:cc:01:6d:25, 2015-01-01 00:15:01.545, 0.974, -0.079, 0.148, -0.916, -0.854, 0.122, -27.004, -80.524, -140.867, -32.173, -12.160, -1.667, 30.09, 0.10635, -0.65115, -0.04276, -0.75015,
 12:02:12.852,f6:90:cc:01:6d:25, 2015-01-01 00:15:01.545, 0.971, -0.081, 0.146, -1.404, -0.793, -0.305, -27.059, -80.541, -140.812, -32.173, -12.160, -1.667, 30.09, 0.10635, -0.65115, -0.04276, -0.75015,
 12:02:12.853,ed:35:33:d3:6c:f8, 2015-01-01 00:15:01.410, 0.634, 0.11, 0.76, 1.831, -1.465, -0.183, 8.564, -40.111, 143.547, -15.740, -13.873, -28.207, 31.41, 0.27011, 0.34866, -0.04337, 0.89636,
 12:02:12.853,ed:35:33:d3:6c:f8, 2015-01-01 00:15:01.410, 0.63, 0.108, 0.763, 1.221, -1.282, -1.282, 8.608, -40.133, 143.542, -15.740, -13.873, -28.207, 31.41, 0.27011, 0.34866, -0.04337, 0.89636,
 12:02:12.874,ed:40:fe:65:30:6c, 2015-01-01 00:15:06.315, 0.801, 0.085, 0.593, -0.977, 0.488, -1.221, 8.08, -54.503, -135.467, -23.487, -13.080, 0.840, 26.57, 0.36606, -0.39902, -0.23114, -0.80823,
 12:02:12.874,ed:40:fe:65:30:6c, 2015-01-01 00:15:06.315, 0.81, 0.087, 0.586, -1.892, 0.122, -1.343, 8.086, -54.492, -135.527, -23.487, -13.080, 0.840, 26.57, 0.36606, -0.39902, -0.23114, -0.80823,
 12:02:12.874,e3:ca:2d:fd:e0:8c, 2015-01-01 00:15:01.125, 0.999, -0.184, 0.105, 0, 0.671, -0.488, -59.293, -78.305, -136.873, -30.513, -9.653, -7.827, 25.78, 0.04285, 0.65146, -0.15491, 0.74139,
 12:02:12.874,e3:ca:2d:fd:e0:8c, 2015-01-01 00:15:01.125, 0.996, -0.182, 0.107, -0.244, 0.793, -0.732, -59.233, -78.305, -136.961, -30.513, -9.653, -7.827, 25.78, 0.04285, 0.65146, -0.15491, 0.74139,
 12:02:12.897,f6:90:cc:01:6d:25, 2015-01-01 00:15:01.545, 0.971, -0.074, 0.149, -1.77, -0.916, -0.732, -27.076, -80.557, -140.806, -32.173, -12.160, -1.667, 30.09, 0.10635, -0.65115, -0.04276, -0.75015,
 12:02:12.897,f6:90:cc:01:6d:25, 2015-01-01 00:15:01.545, 0.974, -0.071, 0.148, -1.404, -0.916, -0.732, -27.081, -80.579, -140.828, -32.173, -12.160, -1.667, 30.09, 0.10635, -0.65115, -0.04276, -0.75015,
 12:02:12.898,ed:35:33:d3:6c:f8, 2015-01-01 00:15:01.410, 0.64, 0.113, 0.754, -0.244, -1.221, -2.258, 8.646, -40.15, 143.514, -16.200, -13.960, -27.700, 31.41, 0.27011, 0.34866, -0.04337, 0.89636,
 12:02:12.898,ed:35:33:d3:6c:f8, 2015-01-01 00:15:01.410, 0.644, 0.118, 0.75, -0.854, -1.221, -2.441, 8.674, -40.161, 143.47, -16.200, -13.960, -27.700, 31.41, 0.27011, 0.34866, -0.04337, 0.89636,
 12:02:12.918,e3:ca:2d:fd:e0:8c, 2015-01-01 00:15:01.125, 0.997, -0.182, 0.109, -0.549, 0.732, -0.854, -59.161, -78.305, -137.071, -30.513, -9.653, -7.827, 25.78, 0.04285, 0.65146, -0.15491, 0.74139,
 12:02:12.918,e3:ca:2d:fd:e0:8c, 2015-01-01 00:15:01.125, 0.997, -0.185, 0.11, -0.488, 0.427, -0.793, -59.09, -78.311, -137.181, -30.513, -9.653, -7.827, 25.78, 0.04285, 0.65146, -0.15491, 0.74139,
 12:02:12.940,ed:40:fe:65:30:6c, 2015-01-01 00:15:06.315, 0.815, 0.089, 0.582, -1.709, 0.061, -1.282, 8.091, -54.476, -135.577, -23.487, -13.080, 0.840, 26.57, 0.36606, -0.39902, -0.23114, -0.80823,
 12:02:12.940,ed:40:fe:65:30:6c, 2015-01-01 00:15:06.315, 0.82, 0.09, 0.579, -0.549, -0.549, -0.977, 8.113, -54.476, -135.621, -23.487, -13.080, 0.840, 26.57, 0.36606, -0.39902, -0.23114, -0.80823,
 12:02:12.942,f6:90:cc:01:6d:25, 2015-01-01 00:15:01.545, 0.974, -0.073, 0.15, -1.16, -0.793, -0.671, -27.076, -80.596, -140.856, -32.173, -12.160, -1.667, 30.09, 0.10635, -0.65115, -0.04276, -0.75015,
 12:02:12.942,f6:90:cc:01:6d:25, 2015-01-01 00:15:01.545, 0.975, -0.075, 0.145, -0.916, -0.366, -0.732, -27.043, -80.607, -140.905, -32.173, -12.160, -1.667, 30.09, 0.10635, -0.65115, -0.04276, -0.75015,
 12:02:12.942,e3:ca:2d:fd:e0:8c, 2015-01-01 00:15:01.125, 0.999, -0.186, 0.11, -0.366, 0, -0.732, -59.052, -78.316, -137.252, -30.873, -9.373, -8.273, 25.78, 0.04285, 0.65146, -0.15491, 0.74139,
 12:02:12.942,e3:ca:2d:fd:e0:8c, 2015-01-01 00:15:01.125, 0.999, -0.186, 0.109, -0.183, -0.366, -0.732, -59.041, -78.327, -137.28, -30.873, -9.373, -8.273, 25.78, 0.04285, 0.65146, -0.15491, 0.74139,
 12:02:12.962,ed:40:fe:65:30:6c, 2015-01-01 00:15:06.650, 0.819, 0.093, 0.58, -0.366, -0.427, -0.854, 8.135, -54.476, -135.654, -23.487, -13.080, 0.840, 26.57, 0.36606, -0.39902, -0.23114, -0.80823,
 12:02:12.962,ed:40:fe:65:30:6c, 2015-01-01 00:15:06.650, 0.809, 0.097, 0.574, -1.038, 0.122, -0.793, 8.146, -54.47, -135.676, -23.487, -13.080, 0.840, 26.57, 0.36606, -0.39902, -0.23114, -0.80823,
 12:02:12.966,ed:35:33:d3:6c:f8, 2015-01-01 00:15:01.410, 0.652, 0.12, 0.75, -0.244, 0.916, -2.014, 8.701, -40.144, 143.454, -16.200, -13.960, -27.700, 31.41, 0.26889, 0.34732, -0.03964, 0.89743,
 12:02:12.966,ed:35:33:d3:6c:f8, 2015-01-01 00:15:01.410, 0.648, 0.127, 0.749, 0, 1.404, -1.709, 8.723, -40.117, 143.427, -16.200, -13.960, -27.700, 31.41, 0.26889, 0.34732, -0.03964, 0.89743,
 12:02:12.966,ed:35:33:d3:6c:f8, 2015-01-01 00:15:01.410, 0.638, 0.13, 0.746, 0.305, 0, -0.916, 8.751, -40.106, 143.421, -16.200, -13.960, -27.700, 31.41, 0.26889, 0.34732, -0.03964, 0.89743,
 12:02:12.966,ed:35:33:d3:6c:f8, 2015-01-01 00:15:01.410, 0.633, 0.124, 0.746, 0.977, -0.305, -0.183, 8.773, -40.111, 143.432, -16.200, -13.960, -27.700, 31.41, 0.26889, 0.34732, -0.03964, 0.89743,
 12:02:12.987,f6:90:cc:01:6d:25, 2015-01-01 00:15:01.545, 0.973, -0.073, 0.143, -0.671, 0, -0.671, -26.988, -80.612, -140.977, -32.173, -12.160, -1.667, 30.09, 0.10635, -0.65115, -0.04276, -0.75015,
 12:02:12.987,f6:90:cc:01:6d:25, 2015-01-01 00:15:01.545, 0.969, -0.069, 0.144, -0.183, 0.549, -0.488, -26.911, -80.607, -141.059, -32.173, -12.160, -1.667, 30.09, 0.10635, -0.65115, -0.04276, -0.75015,
 12:02:12.987,e3:ca:2d:fd:e0:8c, 2015-01-01 00:15:01.125, 1, -0.182, 0.107, 0, -0.488, -0.549, -59.057, -78.338, -137.285, -30.873, -9.373, -8.273, 25.78, 0.04285, 0.65146, -0.15491, 0.74139,
 12:02:12.987,e3:ca:2d:fd:e0:8c, 2015-01-01 00:15:01.125, 1, -0.179, 0.104, 0.061, -0.488, -0.427, -59.079, -78.344, -137.291, -30.873, -9.373, -8.273, 25.78, 0.04285, 0.65146, -0.15491, 0.74139,
 12:02:13.007,ed:40:fe:65:30:6c, 2015-01-01 00:15:06.650, 0.802, 0.096, 0.578, -0.61, 0, -0.732, 8.163, -54.465, -135.698, -23.487, -13.080, 0.840, 26.57, 0.36606, -0.39902, -0.23114, -0.80823,
 12:02:13.007,ed:40:fe:65:30:6c, 2015-01-01 00:15:06.650, 0.805, 0.093, 0.579, -0.366, 0, -1.16, 8.196, -54.454, -135.736, -23.487, -13.080, 0.840, 26.57, 0.36606, -0.39902, -0.23114, -0.80823,
 12:02:13.010,f6:90:cc:01:6d:25, 2015-01-01 00:15:01.545, 0.969, -0.068, 0.143, 0, 0.427, -0.305, -26.851, -80.601, -141.141, -32.153, -11.800, -2.047, 30.09, 0.10635, -0.65115, -0.04276, -0.75015,
 12:02:13.010,f6:90:cc:01:6d:25, 2015-01-01 00:15:01.545, 0.972, -0.069, 0.142, -0.122, 0, -0.183, -26.818, -80.601, -141.191, -32.153, -11.800, -2.047, 30.09, 0.10635, -0.65115, -0.04276, -0.75015,
 12:02:13.011,ed:35:33:d3:6c:f8, 2015-01-01 00:15:01.725, 0.637, 0.118, 0.746, 1.16, 0.305, -0.427, 8.806, -40.106, 143.448, -16.200, -13.960, -27.700, 31.41, 0.26889, 0.34732, -0.03964, 0.89743,
 12:02:13.011,ed:35:33:d3:6c:f8, 2015-01-01 00:15:01.725, 0.635, 0.119, 0.747, 0.671, 0.549, -1.221, 8.844, -40.095, 143.448, -16.200, -13.960, -27.700, 31.41, 0.26889, 0.34732, -0.03964, 0.89743,
 12:02:13.052,ed:40:fe:65:30:6c, 2015-01-01 00:15:06.650, 0.805, 0.092, 0.579, -0.61, 0, -1.465, 8.234, -54.448, -135.78, -23.487, -13.080, 0.840, 26.57, 0.36606, -0.39902, -0.23114, -0.80823,
 12:02:13.052,ed:40:fe:65:30:6c, 2015-01-01 00:15:06.650, 0.805, 0.088, 0.584, -0.427, 0, -1.343, 8.273, -54.437, -135.818, -23.487, -13.080, 0.840, 26.57, 0.36606, -0.39902, -0.23114, -0.80823,
 12:02:13.054,e3:ca:2d:fd:e0:8c, 2015-01-01 00:15:01.125, 1.002, -0.18, 0.101, 0, 0, -0.305, -59.101, -78.354, -137.307, -30.873, -9.373, -8.273, 25.78, 0.04443, 0.65097, -0.15585, 0.74155,
 12:02:13.054,e3:ca:2d:fd:e0:8c, 2015-01-01 00:15:01.125, 1.003, -0.182, 0.1, 0, 0.366, -0.244, -59.09, -78.354, -137.335, -30.873, -9.373, -8.273, 25.78, 0.04443, 0.65097, -0.15585, 0.74155,
 12:02:13.056,ed:35:33:d3:6c:f8, 2015-01-01 00:15:01.725, 0.633, 0.118, 0.752, 0.854, 0.244, -1.587, 8.882, -40.084, 143.438, -16.200, -13.960, -27.700, 31.41, 0.26889, 0.34732, -0.03964, 0.89743,
 12:02:13.056,ed:35:33:d3:6c:f8, 2015-01-01 00:15:01.725, 0.632, 0.118, 0.758, 1.038, -0.671, -1.465, 8.932, -40.084, 143.427, -16.200, -13.960, -27.700, 31.41, 0.26889, 0.34732, -0.03964, 0.89743,
 12:02:13.056,f6:90:cc:01:6d:25, 2015-01-01 00:15:01.545, 0.973, -0.07, 0.144, -0.122, -0.61, -0.122, -26.823, -80.612, -141.207, -32.153, -11.800, -2.047, 30.09, 0.10635, -0.65115, -0.04276, -0.75015,
 12:02:13.056,f6:90:cc:01:6d:25, 2015-01-01 00:15:01.545, 0.974, -0.072, 0.145, -0.305, -1.16, -0.244, -26.862, -80.634, -141.196, -32.153, -11.800, -2.047, 30.09, 0.10635, -0.65115, -0.04276, -0.75015,
 12:02:13.075,ed:40:fe:65:30:6c, 2015-01-01 00:15:06.650, 0.804, 0.088, 0.587, 0, -0.061, -1.221, 8.311, -54.426, -135.851, -23.487, -13.080, 0.840, 26.57, 0.36606, -0.39902, -0.23114, -0.80823,
 12:02:13.075,ed:40:fe:65:30:6c, 2015-01-01 00:15:06.650, 0.81, 0.092, 0.588, -0.488, -0.366, -1.343, 8.35, -54.426, -135.89, -23.487, -13.080, 0.840, 26.57, 0.36606, -0.39902, -0.23114, -0.80823,
 12:02:13.077,e3:ca:2d:fd:e0:8c, 2015-01-01 00:15:01.480, 1.003, -0.185, 0.1, 0.183, 0.549, -0.122, -59.057, -78.349, -137.373, -30.873, -9.373, -8.273, 25.78, 0.04443, 0.65097, -0.15585, 0.74155,
 12:02:13.077,e3:ca:2d:fd:e0:8c, 2015-01-01 00:15:01.480, 1.002, -0.186, 0.102, 0.427, 0.61, -0.122, -59.019, -78.344, -137.411, -30.873, -9.373, -8.273, 25.78, 0.04443, 0.65097, -0.15585, 0.74155,
 12:02:13.098,e3:ca:2d:fd:e0:8c, 2015-01-01 00:15:01.480, 1.002, -0.186, 0.102, 0.244, 0.732, -0.305, -58.969, -78.338, -137.461, -30.873, -9.373, -8.273, 25.78, 0.04443, 0.65097, -0.15585, 0.74155,
 12:02:13.098,e3:ca:2d:fd:e0:8c, 2015-01-01 00:15:01.480, 1.001, -0.186, 0.104, 0, 0.732, -0.366, -58.909, -78.333, -137.505, -30.873, -9.373, -8.273, 25.78, 0.04443, 0.65097, -0.15585, 0.74155,
 12:02:13.101,ed:35:33:d3:6c:f8, 2015-01-01 00:15:01.725, 0.64, 0.122, 0.756, 0.61, -1.77, -1.587, 8.976, -40.111, 143.421, -16.200, -13.960, -27.700, 31.41, 0.26889, 0.34732, -0.03964, 0.89743,
 12:02:13.101,ed:35:33:d3:6c:f8, 2015-01-01 00:15:01.725, 0.643, 0.128, 0.756, 0.061, -1.709, -1.404, 9.009, -40.133, 143.416, -16.200, -13.960, -27.700, 31.41, 0.26889, 0.34732, -0.03964, 0.89743,
 12:02:13.124,f6:90:cc:01:6d:25, 2015-01-01 00:15:01.545, 0.974, -0.075, 0.144, -0.793, -1.465, -0.366, -26.917, -80.662, -141.158, -32.153, -11.800, -2.047, 30.09, 0.10464, -0.65231, -0.04199, -0.74945,
 12:02:13.124,f6:90:cc:01:6d:25, 2015-01-01 00:15:01.545, 0.976, -0.076, 0.14, -0.977, -1.465, -0.427, -26.966, -80.689, -141.119, -32.153, -11.800, -2.047, 30.09, 0.10464, -0.65231, -0.04199, -0.74945,
 12:02:13.143,e3:ca:2d:fd:e0:8c, 2015-01-01 00:15:01.480, 0.998, -0.186, 0.106, 0.122, 0.671, -0.427, -58.854, -78.327, -137.549, -30.873, -9.373, -8.273, 25.78, 0.04443, 0.65097, -0.15585, 0.74155,
 12:02:13.143,e3:ca:2d:fd:e0:8c, 2015-01-01 00:15:01.480, 0.999, -0.187, 0.106, 0.183, 0.732, -0.427, -58.793, -78.327, -137.598, -30.873, -9.373, -8.273, 25.78, 0.04443, 0.65097, -0.15585, 0.74155,
 12:02:13.143,ed:40:fe:65:30:6c, 2015-01-01 00:15:06.650, 0.813, 0.095, 0.587, -0.854, -0.488, -1.221, 8.372, -54.421, -135.934, -23.487, -13.080, 0.840, 26.57, 0.36606, -0.39902, -0.23114, -0.80823,
 12:02:13.143,ed:40:fe:65:30:6c, 2015-01-01 00:15:06.650, 0.814, 0.096, 0.585, -0.427, -0.61, -0.61, 8.394, -54.426, -135.956, -23.487, -13.080, 0.840, 26.57, 0.36606, -0.39902, -0.23114, -0.80823,
 12:02:13.144,f6:90:cc:01:6d:25, 2015-01-01 00:15:01.880, 0.976, -0.076, 0.142, -0.671, -1.465, -0.427, -27.015, -80.717, -141.07, -32.153, -11.800, -2.047, 30.09, 0.10464, -0.65231, -0.04199, -0.74945,
 12:02:13.144,f6:90:cc:01:6d:25, 2015-01-01 00:15:01.880, 0.976, -0.073, 0.14, 0, -1.587, -0.244, -27.081, -80.75, -140.993, -32.153, -11.800, -2.047, 30.09, 0.10464, -0.65231, -0.04199, -0.74945,
 12:02:13.146,ed:35:33:d3:6c:f8, 2015-01-01 00:15:01.725, 0.645, 0.132, 0.752, 0.671, -1.465, -0.427, 9.036, -40.161, 143.416, -16.200, -13.960, -27.700, 31.41, 0.26889, 0.34732, -0.03964, 0.89743,
 12:02:13.146,ed:35:33:d3:6c:f8, 2015-01-01 00:15:01.725, 0.644, 0.128, 0.749, 1.465, -1.587, 0.427, 9.069, -40.188, 143.432, -16.200, -13.960, -27.700, 31.41, 0.26889, 0.34732, -0.03964, 0.89743,
 12:02:13.166,ed:40:fe:65:30:6c, 2015-01-01 00:15:06.650, 0.812, 0.094, 0.576, 0.122, -0.793, 0, 8.405, -54.437, -135.961, -23.213, -13.300, 0.927, 26.57, 0.36606, -0.39902, -0.23114, -0.80823,
 12:02:13.166,ed:40:fe:65:30:6c, 2015-01-01 00:15:06.650, 0.81, 0.1, 0.585, 0.488, -0.916, 0.183, 8.421, -54.448, -135.961, -23.213, -13.300, 0.927, 26.57, 0.36606, -0.39902, -0.23114, -0.80823,
 12:02:13.169,ed:35:33:d3:6c:f8, 2015-01-01 00:15:01.725, 0.64, 0.133, 0.751, 1.038, -2.563, 0.61, 9.091, -40.232, 143.432, -16.033, -14.040, -27.813, 31.41, 0.26889, 0.34732, -0.03964, 0.89743,
 12:02:13.169,ed:35:33:d3:6c:f8, 2015-01-01 00:15:01.725, 0.646, 0.133, 0.751, 0.732, -2.441, 0.427, 9.113, -40.281, 143.438, -16.033, -14.040, -27.813, 31.41, 0.26889, 0.34732, -0.03964, 0.89743,
 12:02:13.189,e3:ca:2d:fd:e0:8c, 2015-01-01 00:15:01.480, 1.001, -0.187, 0.106, 0.366, 0.793, -0.305, -58.733, -78.322, -137.67, -30.873, -9.373, -8.273, 25.78, 0.04443, 0.65097, -0.15585, 0.74155,
 12:02:13.189,e3:ca:2d:fd:e0:8c, 2015-01-01 00:15:01.480, 1.003, -0.183, 0.106, 0.61, 0.793, -0.122, -58.667, -78.311, -137.741, -30.873, -9.373, -8.273, 25.78, 0.04443, 0.65097, -0.15585, 0.74155,
 12:02:13.191,f6:90:cc:01:6d:25, 2015-01-01 00:15:01.880, 0.974, -0.074, 0.135, 1.038, -1.404, -0.061, -27.136, -80.771, -140.9, -32.153, -11.800, -2.047, 30.09, 0.10464, -0.65231, -0.04199, -0.74945,
 12:02:13.191,f6:90:cc:01:6d:25, 2015-01-01 00:15:01.880, 0.976, -0.073, 0.135, 1.282, -1.587, 0.183, -27.224, -80.799, -140.768, -32.153, -11.800, -2.047, 30.09, 0.10464, -0.65231, -0.04199, -0.74945,
 12:02:13.210,ed:40:fe:65:30:6c, 2015-01-01 00:15:06.650, 0.813, 0.103, 0.582, -0.183, -0.793, 0.305, 8.421, -54.459, -135.956, -23.213, -13.300, 0.927, 26.57, 0.36606, -0.39902, -0.23114, -0.80823,
 12:02:13.210,ed:40:fe:65:30:6c, 2015-01-01 00:15:06.650, 0.821, 0.099, 0.579, 0.183, -1.221, 0.793, 8.421, -54.476, -135.928, -23.213, -13.300, 0.927, 26.57, 0.36606, -0.39902, -0.23114, -0.80823,
 12:02:13.214,f6:90:cc:01:6d:25, 2015-01-01 00:15:01.880, 0.977, -0.072, 0.138, 1.099, -0.977, 0.305, -27.296, -80.81, -140.652, -32.153, -11.800, -2.047, 30.09, 0.10464, -0.65231, -0.04199, -0.74945,
 12:02:13.214,f6:90:cc:01:6d:25, 2015-01-01 00:15:01.880, 0.977, -0.07, 0.14, 0.671, -0.916, 0.366, -27.378, -80.826, -140.548, -32.153, -11.800, -2.047, 30.09, 0.10464, -0.65231, -0.04199, -0.74945,
 12:02:13.214,ed:35:33:d3:6c:f8, 2015-01-01 00:15:01.725, 0.654, 0.131, 0.747, 0.916, -2.136, 0.427, 9.135, -40.325, 143.443, -16.033, -14.040, -27.813, 31.41, 0.26889, 0.34732, -0.03964, 0.89743,
 12:02:13.214,ed:35:33:d3:6c:f8, 2015-01-01 00:15:01.725, 0.647, 0.134, 0.742, 0.549, -1.953, 0.793, 9.146, -40.364, 143.465, -16.033, -14.040, -27.813, 31.41, 0.26889, 0.34732, -0.03964, 0.89743,
 12:02:13.233,ed:40:fe:65:30:6c, 2015-01-01 00:15:06.650, 0.807, 0.098, 0.575, 0.305, -1.16, 1.221, 8.41, -54.498, -135.895, -23.213, -13.300, 0.927, 26.57, 0.3638, -0.39862, -0.23178, -0.80927,
 12:02:13.233,ed:40:fe:65:30:6c, 2015-01-01 00:15:06.650, 0.807, 0.095, 0.583, 0, -0.549, 1.526, 8.388, -54.514, -135.846, -23.213, -13.300, 0.927, 26.57, 0.3638, -0.39862, -0.23178, -0.80927,
 12:02:13.258,e3:ca:2d:fd:e0:8c, 2015-01-01 00:15:01.480, 1.003, -0.18, 0.104, 0.427, 0.61, -0.122, -58.612, -78.305, -137.802, -30.873, -9.373, -8.273, 25.78, 0.04443, 0.65097, -0.15585, 0.74155,
 12:02:13.258,e3:ca:2d:fd:e0:8c, 2015-01-01 00:15:01.480, 1.002, -0.179, 0.104, 0, 0.61, -0.122, -58.568, -78.294, -137.845, -30.873, -9.373, -8.273, 25.78, 0.04443, 0.65097, -0.15585, 0.74155,
 12:02:13.258,f6:90:cc:01:6d:25, 2015-01-01 00:15:01.880, 0.974, -0.069, 0.142, 0.183, -0.854, 0.305, -27.455, -80.837, -140.438, -32.153, -11.800, -2.047, 30.09, 0.10464, -0.65231, -0.04199, -0.74945,
 12:02:13.258,f6:90:cc:01:6d:25, 2015-01-01 00:15:01.880, 0.972, -0.07, 0.142, 0, -1.099, 0.183, -27.537, -80.854, -140.334, -32.153, -11.800, -2.047, 30.09, 0.10464, -0.65231, -0.04199, -0.74945,
 12:02:13.277,ed:40:fe:65:30:6c, 2015-01-01 00:15:06.650, 0.81, 0.091, 0.575, 0.305, -0.61, 1.221, 8.366, -54.525, -135.807, -23.213, -13.300, 0.927, 26.57, 0.3638, -0.39862, -0.23178, -0.80927,
 12:02:13.277,ed:40:fe:65:30:6c, 2015-01-01 00:15:06.650, 0.809, 0.091, 0.575, 0.549, -0.671, 0.671, 8.355, -54.536, -135.769, -23.213, -13.300, 0.927, 26.57, 0.3638, -0.39862, -0.23178, -0.80927,
 12:02:13.278,e3:ca:2d:fd:e0:8c, 2015-01-01 00:15:01.480, 1, -0.181, 0.104, -0.122, 0.427, -0.061, -58.541, -78.289, -137.895, -30.727, -9.680, -7.973, 25.78, 0.04443, 0.65097, -0.15585, 0.74155,
 12:02:13.278,e3:ca:2d:fd:e0:8c, 2015-01-01 00:15:01.480, 1, -0.183, 0.106, 0, 0.244, -0.122, -58.53, -78.283, -137.933, -30.727, -9.680, -7.973, 25.78, 0.04443, 0.65097, -0.15585, 0.74155,
 12:02:13.282,ed:35:33:d3:6c:f8, 2015-01-01 00:15:01.725, 0.639, 0.132, 0.746, 0, -0.671, 1.099, 9.141, -40.386, 143.531, -16.033, -14.040, -27.813, 31.41, 0.26727, 0.34985, -0.03671, 0.89706,
 12:02:13.282,ed:35:33:d3:6c:f8, 2015-01-01 00:15:01.725, 0.643, 0.125, 0.747, -0.122, 0.61, 1.465, 9.124, -40.38, 143.641, -16.033, -14.040, -27.813, 31.41, 0.26727, 0.34985, -0.03671, 0.89706,
 12:02:13.303,ed:35:33:d3:6c:f8, 2015-01-01 00:15:02.035, 0.645, 0.119, 0.743, 0.427, 0.122, 1.526, 9.113, -40.38, 143.778, -16.033, -14.040, -27.813, 31.41, 0.26727, 0.34985, -0.03671, 0.89706,
 12:02:13.303,ed:35:33:d3:6c:f8, 2015-01-01 00:15:02.035, 0.644, 0.119, 0.742, 0.732, -0.671, 1.16, 9.113, -40.391, 143.893, -16.033, -14.040, -27.813, 31.41, 0.26727, 0.34985, -0.03671, 0.89706,
 12:02:13.322,ed:40:fe:65:30:6c, 2015-01-01 00:15:07.010, 0.813, 0.092, 0.579, 0.244, -0.793, 0.122, 8.366, -54.547, -135.742, -23.213, -13.300, 0.927, 26.57, 0.3638, -0.39862, -0.23178, -0.80927,
 12:02:13.322,ed:40:fe:65:30:6c, 2015-01-01 00:15:07.010, 0.816, 0.094, 0.579, -0.427, -0.549, -0.488, 8.383, -54.553, -135.736, -23.213, -13.300, 0.927, 26.57, 0.3638, -0.39862, -0.23178, -0.80927,
 12:02:13.324,e3:ca:2d:fd:e0:8c, 2015-01-01 00:15:01.480, 1, -0.183, 0.107, 0.183, 0.366, -0.061, -58.519, -78.283, -137.961, -30.727, -9.680, -7.973, 25.78, 0.04443, 0.65097, -0.15585, 0.74155,
 12:02:13.324,e3:ca:2d:fd:e0:8c, 2015-01-01 00:15:01.480, 1.001, -0.182, 0.108, 0.488, 0.427, 0.061, -58.502, -78.278, -138.005, -30.727, -9.680, -7.973, 25.78, 0.04443, 0.65097, -0.15585, 0.74155,
 12:02:13.325,f6:90:cc:01:6d:25, 2015-01-01 00:15:01.880, 0.972, -0.069, 0.139, -0.488, -1.038, 0.183, -27.62, -80.87, -140.251, -32.153, -11.800, -2.047, 30.09, 0.10464, -0.65231, -0.04199, -0.74945,
 12:02:13.325,f6:90:cc:01:6d:25, 2015-01-01 00:15:01.880, 0.973, -0.068, 0.136, -0.366, -0.977, 0.366, -27.713, -80.887, -140.158, -32.153, -11.800, -2.047, 30.09, 0.10464, -0.65231, -0.04199, -0.74945,
 12:02:13.347,e3:ca:2d:fd:e0:8c, 2015-01-01 00:15:01.480, 1, -0.181, 0.108, 0.671, 0.549, 0.122, -58.469, -78.267, -138.038, -30.727, -9.680, -7.973, 25.78, 0.04547, 0.64987, -0.15649, 0.74228,
 12:02:13.347,e3:ca:2d:fd:e0:8c, 2015-01-01 00:15:01.480, 0.999, -0.183, 0.11, 0.793, 0.366, 0.122, -58.442, -78.256, -138.071, -30.727, -9.680, -7.973, 25.78, 0.04547, 0.64987, -0.15649, 0.74228,
 12:02:13.348,f6:90:cc:01:6d:25, 2015-01-01 00:15:01.880, 0.975, -0.069, 0.138, -0.061, -0.977, 0.427, -27.806, -80.898, -140.065, -32.000, -12.020, -1.393, 30.09, 0.10464, -0.65231, -0.04199, -0.74945,
 12:02:13.348,f6:90:cc:01:6d:25, 2015-01-01 00:15:01.880, 0.975, -0.07, 0.138, -0.244, -0.732, 0.366, -27.883, -80.909, -139.999, -32.000, -12.020, -1.393, 30.09, 0.10464, -0.65231, -0.04199, -0.74945,
 12:02:13.349,ed:35:33:d3:6c:f8, 2015-01-01 00:15:02.035, 0.648, 0.119, 0.743, 0.488, -0.183, 0.488, 9.119, -40.402, 143.976, -16.033, -14.040, -27.813, 31.41, 0.26727, 0.34985, -0.03671, 0.89706,
 12:02:13.349,ed:35:33:d3:6c:f8, 2015-01-01 00:15:02.035, 0.648, 0.122, 0.743, -0.122, -0.122, -0.427, 9.124, -40.402, 144.042, -16.033, -14.040, -27.813, 31.41, 0.26727, 0.34985, -0.03671, 0.89706,
 12:02:13.373,ed:35:33:d3:6c:f8, 2015-01-01 00:15:02.035, 0.649, 0.13, 0.743, -0.305, 0.61, -0.732, 9.135, -40.391, 144.064, -16.033, -14.040, -27.813, 31.41, 0.26727, 0.34985, -0.03671, 0.89706,
 12:02:13.373,ed:35:33:d3:6c:f8, 2015-01-01 00:15:02.035, 0.651, 0.131, 0.744, -0.854, 1.709, -0.488, 9.13, -40.364, 144.086, -16.033, -14.040, -27.813, 31.41, 0.26727, 0.34985, -0.03671, 0.89706,
 12:02:13.390,ed:40:fe:65:30:6c, 2015-01-01 00:15:07.010, 0.817, 0.096, 0.576, -0.61, -0.427, -0.793, 8.399, -54.558, -135.758, -23.213, -13.300, 0.927, 26.57, 0.3638, -0.39862, -0.23178, -0.80927,
 12:02:13.390,ed:40:fe:65:30:6c, 2015-01-01 00:15:07.010, 0.819, 0.097, 0.582, -0.61, -0.122, -0.61, 8.421, -54.558, -135.786, -23.213, -13.300, 0.927, 26.57, 0.3638, -0.39862, -0.23178, -0.80927,
 12:02:13.391,e3:ca:2d:fd:e0:8c, 2015-01-01 00:15:01.480, 0.998, -0.185, 0.111, 0.61, 0.061, 0.122, -58.431, -78.25, -138.093, -30.727, -9.680, -7.973, 25.78, 0.04547, 0.64987, -0.15649, 0.74228,
 12:02:13.391,e3:ca:2d:fd:e0:8c, 2015-01-01 00:15:01.480, 0.998, -0.187, 0.111, 0.366, -0.183, 0.122, -58.442, -78.245, -138.104, -30.727, -9.680, -7.973, 25.78, 0.04547, 0.64987, -0.15649, 0.74228,
 12:02:13.393,f6:90:cc:01:6d:25, 2015-01-01 00:15:01.880, 0.978, -0.07, 0.143, -0.549, -0.977, 0.427, -27.988, -80.92, -139.883, -32.000, -12.020, -1.393, 30.09, 0.10464, -0.65231, -0.04199, -0.74945,
 12:02:13.393,f6:90:cc:01:6d:25, 2015-01-01 00:15:01.880, 0.977, -0.074, 0.141, -0.427, -0.793, 0.427, -28.076, -80.931, -139.768, -32.000, -12.020, -1.393, 30.09, 0.10464, -0.65231, -0.04199, -0.74945,
 12:02:13.414,ed:40:fe:65:30:6c, 2015-01-01 00:15:07.010, 0.813, 0.094, 0.576, -0.488, 0.366, -0.305, 8.432, -54.553, -135.813, -23.213, -13.300, 0.927, 26.57, 0.3638, -0.39862, -0.23178, -0.80927,
 12:02:13.414,ed:40:fe:65:30:6c, 2015-01-01 00:15:07.010, 0.81, 0.092, 0.582, -0.244, 0, -0.183, 8.443, -54.542, -135.835, -23.213, -13.300, 0.927, 26.57, 0.3638, -0.39862, -0.23178, -0.80927,
 12:02:13.415,f6:90:cc:01:6d:25, 2015-01-01 00:15:01.880, 0.973, -0.077, 0.138, -0.244, -0.427, 0.488, -28.147, -80.931, -139.658, -32.000, -12.020, -1.393, 30.09, 0.10605, -0.65463, -0.04324, -0.74713,
 12:02:13.415,f6:90:cc:01:6d:25, 2015-01-01 00:15:01.880, 0.975, -0.074, 0.136, -0.244, -0.183, 0.549, -28.202, -80.931, -139.57, -32.000, -12.020, -1.393, 30.09, 0.10605, -0.65463, -0.04324, -0.74713,
 12:02:13.416,ed:35:33:d3:6c:f8, 2015-01-01 00:15:02.035, 0.644, 0.125, 0.748, -0.366, 2.258, -0.366, 9.13, -40.325, 144.102, -16.033, -14.040, -27.813, 31.41, 0.26727, 0.34985, -0.03671, 0.89706,
 12:02:13.416,ed:35:33:d3:6c:f8, 2015-01-01 00:15:02.035, 0.641, 0.123, 0.75, -0.305, 2.136, -0.305, 9.13, -40.281, 144.124, -16.033, -14.040, -27.813, 31.41, 0.26727, 0.34985, -0.03671, 0.89706,
 12:02:13.436,e3:ca:2d:fd:e0:8c, 2015-01-01 00:15:01.815, 0.999, -0.187, 0.11, 0.488, -0.305, 0.122, -58.475, -78.245, -138.093, -30.727, -9.680, -7.973, 25.78, 0.04547, 0.64987, -0.15649, 0.74228,
 12:02:13.436,e3:ca:2d:fd:e0:8c, 2015-01-01 00:15:01.815, 1, -0.186, 0.109, 0.671, -0.366, 0.183, -58.508, -78.239, -138.054, -30.727, -9.680, -7.973, 25.78, 0.04547, 0.64987, -0.15649, 0.74228,
 12:02:13.459,ed:40:fe:65:30:6c, 2015-01-01 00:15:07.010, 0.812, 0.092, 0.584, -0.61, 0, -0.427, 8.454, -54.536, -135.857, -23.213, -13.300, 0.927, 26.57, 0.3638, -0.39862, -0.23178, -0.80927,
 12:02:13.459,ed:40:fe:65:30:6c, 2015-01-01 00:15:07.010, 0.813, 0.092, 0.583, -0.671, 0, -0.549, 8.459, -54.531, -135.89, -23.213, -13.300, 0.927, 26.57, 0.3638, -0.39862, -0.23178, -0.80927,
 12:02:13.459,e3:ca:2d:fd:e0:8c, 2015-01-01 00:15:01.815, 1.002, -0.184, 0.107, 0.488, -0.305, 0.183, -58.546, -78.239, -137.988, -30.727, -9.680, -7.973, 25.78, 0.04547, 0.64987, -0.15649, 0.74228,
 12:02:13.459,e3:ca:2d:fd:e0:8c, 2015-01-01 00:15:01.815, 1.002, -0.184, 0.105, 0.305, -0.305, 0.061, -58.585, -78.234, -137.939, -30.727, -9.680, -7.973, 25.78, 0.04547, 0.64987, -0.15649, 0.74228,
 12:02:13.461,f6:90:cc:01:6d:25, 2015-01-01 00:15:01.880, 0.974, -0.076, 0.139, -0.549, -0.122, 0.488, -28.273, -80.925, -139.488, -32.000, -12.020, -1.393, 30.09, 0.10605, -0.65463, -0.04324, -0.74713,
 12:02:13.461,f6:90:cc:01:6d:25, 2015-01-01 00:15:01.880, 0.975, -0.078, 0.139, -0.671, -0.305, 0.366, -28.339, -80.925, -139.417, -32.000, -12.020, -1.393, 30.09, 0.10605, -0.65463, -0.04324, -0.74713,
 12:02:13.484,ed:35:33:d3:6c:f8, 2015-01-01 00:15:02.035, 0.644, 0.122, 0.753, -0.427, 1.404, -0.427, 9.124, -40.254, 144.152, -16.033, -14.040, -27.813, 31.41, 0.26727, 0.34985, -0.03671, 0.89706,
 12:02:13.484,ed:35:33:d3:6c:f8, 2015-01-01 00:15:02.035, 0.644, 0.125, 0.75, -0.305, 0.549, -0.305, 9.13, -40.237, 144.163, -16.033, -14.040, -27.813, 31.41, 0.26727, 0.34985, -0.03671, 0.89706,
 12:02:13.504,ed:40:fe:65:30:6c, 2015-01-01 00:15:07.010, 0.812, 0.091, 0.579, -0.732, 0, -0.244, 8.47, -54.525, -135.912, -23.213, -13.300, 0.927, 26.57, 0.3638, -0.39862, -0.23178, -0.80927,
 12:02:13.504,ed:40:fe:65:30:6c, 2015-01-01 00:15:07.010, 0.811, 0.092, 0.583, -0.732, 0.122, -0.122, 8.47, -54.52, -135.917, -23.213, -13.300, 0.927, 26.57, 0.3638, -0.39862, -0.23178, -0.80927,
 12:02:13.504,e3:ca:2d:fd:e0:8c, 2015-01-01 00:15:01.815, 1.002, -0.186, 0.104, 0.183, -0.244, 0.061, -58.618, -78.234, -137.889, -30.727, -9.680, -7.973, 25.78, 0.04547, 0.64987, -0.15649, 0.74228,
 12:02:13.504,e3:ca:2d:fd:e0:8c, 2015-01-01 00:15:01.815, 1.001, -0.187, 0.104, 0.122, -0.244, 0, -58.651, -78.234, -137.845, -30.727, -9.680, -7.973, 25.78, 0.04547, 0.64987, -0.15649, 0.74228,
 12:02:13.506,f6:90:cc:01:6d:25, 2015-01-01 00:15:02.215, 0.975, -0.078, 0.137, -0.427, -0.488, 0.244, -28.405, -80.925, -139.356, -32.000, -12.020, -1.393, 30.09, 0.10605, -0.65463, -0.04324, -0.74713,
 12:02:13.506,f6:90:cc:01:6d:25, 2015-01-01 00:15:02.215, 0.975, -0.078, 0.135, 0, -0.61, 0.244, -28.471, -80.931, -139.274, -32.000, -12.020, -1.393, 30.09, 0.10605, -0.65463, -0.04324, -0.74713,
 12:02:13.508,ed:35:33:d3:6c:f8, 2015-01-01 00:15:02.035, 0.643, 0.123, 0.749, 0.122, -0.061, -0.061, 9.135, -40.237, 144.152, -16.047, -14.107, -27.673, 31.41, 0.26727, 0.34985, -0.03671, 0.89706,
 12:02:13.508,ed:35:33:d3:6c:f8, 2015-01-01 00:15:02.035, 0.641, 0.124, 0.75, -0.427, 0.244, -0.183, 9.135, -40.237, 144.152, -16.047, -14.107, -27.673, 31.41, 0.26727, 0.34985, -0.03671, 0.89706,
 12:02:13.526,ed:40:fe:65:30:6c, 2015-01-01 00:15:07.010, 0.809, 0.096, 0.581, -1.099, 0.305, -0.061, 8.465, -54.509, -135.917, -23.653, -13.333, 1.007, 26.57, 0.3638, -0.39862, -0.23178, -0.80927,
 12:02:13.526,ed:40:fe:65:30:6c, 2015-01-01 00:15:07.010, 0.809, 0.092, 0.582, -0.244, 0.122, 0.488, 8.448, -54.498, -135.912, -23.653, -13.333, 1.007, 26.57, 0.3638, -0.39862, -0.23178, -0.80927,
 12:02:13.550,f6:90:cc:01:6d:25, 2015-01-01 00:15:02.215, 0.975, -0.079, 0.133, 0.122, -0.61, 0.244, -28.537, -80.936, -139.197, -32.000, -12.020, -1.393, 30.09, 0.10605, -0.65463, -0.04324, -0.74713,
 12:02:13.550,f6:90:cc:01:6d:25, 2015-01-01 00:15:02.215, 0.974, -0.077, 0.13, 0.244, -0.427, 0.305, -28.603, -80.947, -139.114, -32.000, -12.020, -1.393, 30.09, 0.10605, -0.65463, -0.04324, -0.74713,
 12:02:13.550,e3:ca:2d:fd:e0:8c, 2015-01-01 00:15:01.815, 1, -0.188, 0.105, 0.122, -0.244, -0.122, -58.683, -78.234, -137.834, -30.727, -9.680, -7.973, 25.78, 0.04547, 0.64987, -0.15649, 0.74228,
 12:02:13.550,e3:ca:2d:fd:e0:8c, 2015-01-01 00:15:01.815, 1, -0.187, 0.106, 0.183, 0, -0.061, -58.705, -78.228, -137.84, -30.727, -9.680, -7.973, 25.78, 0.04547, 0.64987, -0.15649, 0.74228,
 12:02:13.552,ed:35:33:d3:6c:f8, 2015-01-01 00:15:02.035, 0.639, 0.129, 0.75, -0.427, 0.244, -0.305, 9.135, -40.232, 144.141, -16.047, -14.107, -27.673, 31.41, 0.26727, 0.34985, -0.03671, 0.89706,
 12:02:13.552,ed:35:33:d3:6c:f8, 2015-01-01 00:15:02.035, 0.642, 0.128, 0.748, 0.244, -0.183, 0.427, 9.135, -40.237, 144.13, -16.047, -14.107, -27.673, 31.41, 0.26727, 0.34985, -0.03671, 0.89706,
 12:02:13.570,ed:40:fe:65:30:6c, 2015-01-01 00:15:07.010, 0.808, 0.09, 0.576, -0.122, 0, 0.854, 8.438, -54.492, -135.89, -23.653, -13.333, 1.007, 26.57, 0.3638, -0.39862, -0.23178, -0.80927,
 12:02:13.570,ed:40:fe:65:30:6c, 2015-01-01 00:15:07.010, 0.813, 0.09, 0.581, -0.366, -0.061, 0.854, 8.421, -54.492, -135.857, -23.653, -13.333, 1.007, 26.57, 0.3638, -0.39862, -0.23178, -0.80927,
 12:02:13.572,f6:90:cc:01:6d:25, 2015-01-01 00:15:02.215, 0.974, -0.077, 0.131, 0.366, -0.305, 0.305, -28.663, -80.947, -139.054, -32.000, -12.020, -1.393, 30.09, 0.10605, -0.65463, -0.04324, -0.74713,
 12:02:13.572,f6:90:cc:01:6d:25, 2015-01-01 00:15:02.215, 0.977, -0.078, 0.137, -0.061, -0.122, 0.244, -28.713, -80.953, -138.988, -32.000, -12.020, -1.393, 30.09, 0.10605, -0.65463, -0.04324, -0.74713,
 12:02:13.575,ed:35:33:d3:6c:f8, 2015-01-01 00:15:02.035, 0.64, 0.123, 0.744, 0, -0.305, 0.916, 9.13, -40.243, 144.135, -16.047, -14.107, -27.673, 31.41, 0.26212, 0.34924, -0.03439, 0.8989,
 12:02:13.575,ed:35:33:d3:6c:f8, 2015-01-01 00:15:02.035, 0.646, 0.122, 0.748, -0.305, -0.427, 0.732, 9.119, -40.254, 144.135, -16.047, -14.107, -27.673, 31.41, 0.26212, 0.34924, -0.03439, 0.8989,
 12:02:13.595,e3:ca:2d:fd:e0:8c, 2015-01-01 00:15:01.815, 1, -0.186, 0.106, 0.305, 0.305, -0.122, -58.7, -78.228, -137.867, -30.727, -9.680, -7.973, 25.78, 0.04547, 0.64987, -0.15649, 0.74228,
 12:02:13.595,e3:ca:2d:fd:e0:8c, 2015-01-01 00:15:01.815, 1, -0.186, 0.107, 0.183, 0.366, -0.183, -58.678, -78.223, -137.889, -30.727, -9.680, -7.973, 25.78, 0.04547, 0.64987, -0.15649, 0.74228,
 12:02:13.618,f6:90:cc:01:6d:25, 2015-01-01 00:15:02.215, 0.977, -0.076, 0.137, -0.061, -0.183, 0.183, -28.757, -80.953, -138.928, -32.000, -12.020, -1.393, 30.09, 0.10605, -0.65463, -0.04324, -0.74713,
 12:02:13.618,f6:90:cc:01:6d:25, 2015-01-01 00:15:02.215, 0.974, -0.079, 0.135, 0.244, -0.061, 0.061, -28.79, -80.953, -138.895, -32.000, -12.020, -1.393, 30.09, 0.10605, -0.65463, -0.04324, -0.74713,
 12:02:13.620,ed:35:33:d3:6c:f8, 2015-01-01 00:15:02.035, 0.648, 0.121, 0.75, -0.122, 0.061, 0.61, 9.108, -40.259, 144.135, -16.047, -14.107, -27.673, 31.41, 0.26212, 0.34924, -0.03439, 0.8989,
 12:02:13.620,ed:35:33:d3:6c:f8, 2015-01-01 00:15:02.035, 0.647, 0.118, 0.745, -0.061, -0.549, 0.732, 9.097, -40.27, 144.141, -16.047, -14.107, -27.673, 31.41, 0.26212, 0.34924, -0.03439, 0.8989,
 12:02:13.638,ed:40:fe:65:30:6c, 2015-01-01 00:15:07.010, 0.814, 0.091, 0.582, -0.122, -0.244, 0.732, 8.399, -54.492, -135.829, -23.653, -13.333, 1.007, 26.57, 0.36429, -0.39859, -0.23206, -0.80899,
 12:02:13.638,ed:40:fe:65:30:6c, 2015-01-01 00:15:07.010, 0.817, 0.086, 0.578, -0.061, -0.183, 0.671, 8.383, -54.492, -135.813, -23.653, -13.333, 1.007, 26.57, 0.36429, -0.39859, -0.23206, -0.80899,
 12:02:13.662,ed:40:fe:65:30:6c, 2015-01-01 00:15:07.365, 0.813, 0.09, 0.58, 0.061, -0.183, 0.488, 8.372, -54.492, -135.802, -23.653, -13.333, 1.007, 26.57, 0.36429, -0.39859, -0.23206, -0.80899,
 12:02:13.662,ed:40:fe:65:30:6c, 2015-01-01 00:15:07.365, 0.814, 0.095, 0.585, -0.244, -0.061, 0.183, 8.372, -54.492, -135.802, -23.653, -13.333, 1.007, 26.57, 0.36429, -0.39859, -0.23206, -0.80899,
 12:02:13.662,f6:90:cc:01:6d:25, 2015-01-01 00:15:02.215, 0.975, -0.075, 0.134, 0, 0.122, -0.061, -28.801, -80.953, -138.884, -32.000, -12.020, -1.393, 30.09, 0.10605, -0.65463, -0.04324, -0.74713,
 12:02:13.662,f6:90:cc:01:6d:25, 2015-01-01 00:15:02.215, 0.975, -0.075, 0.136, 0, 0, -0.061, -28.801, -80.947, -138.884, -32.000, -12.020, -1.393, 30.09, 0.10605, -0.65463, -0.04324, -0.74713,
 12:02:13.665,ed:35:33:d3:6c:f8, 2015-01-01 00:15:02.370, 0.644, 0.122, 0.748, -0.122, 0, 0.854, 9.086, -40.276, 144.157, -16.047, -14.107, -27.673, 31.41, 0.26212, 0.34924, -0.03439, 0.8989,
 12:02:13.665,ed:35:33:d3:6c:f8, 2015-01-01 00:15:02.370, 0.647, 0.124, 0.751, -0.549, 0.732, 0.366, 9.069, -40.27, 144.179, -16.047, -14.107, -27.673, 31.41, 0.26212, 0.34924, -0.03439, 0.8989,
 12:02:13.683,ed:40:fe:65:30:6c, 2015-01-01 00:15:07.365, 0.815, 0.094, 0.581, -0.244, -0.183, 0.061, 8.366, -54.492, -135.807, -23.653, -13.333, 1.007, 26.57, 0.36429, -0.39859, -0.23206, -0.80899,
 12:02:13.683,ed:40:fe:65:30:6c, 2015-01-01 00:15:07.365, 0.81, 0.092, 0.578, -0.061, -0.244, 0.122, 8.372, -54.492, -135.824, -23.653, -13.333, 1.007, 26.57, 0.36429, -0.39859, -0.23206, -0.80899,
 12:02:13.683,e3:ca:2d:fd:e0:8c, 2015-01-01 00:15:01.815, 1, -0.186, 0.107, 0, 0.305, -0.305, -58.656, -78.217, -137.922, -30.413, -9.767, -7.793, 25.78, 0.04547, 0.64987, -0.15649, 0.74228,
 12:02:13.683,e3:ca:2d:fd:e0:8c, 2015-01-01 00:15:01.815, 0.999, -0.186, 0.108, 0, 0.183, -0.366, -58.64, -78.217, -137.939, -30.413, -9.767, -7.793, 25.78, 0.04547, 0.64987, -0.15649, 0.74228,
 12:02:13.707,e3:ca:2d:fd:e0:8c, 2015-01-01 00:15:01.815, 1, -0.185, 0.108, 0, 0.122, -0.366, -58.623, -78.217, -137.961, -30.413, -9.767, -7.793, 25.78, 0.04565, 0.64966, -0.15732, 0.74228,
 12:02:13.707,e3:ca:2d:fd:e0:8c, 2015-01-01 00:15:01.815, 1.001, -0.184, 0.107, 0.122, 0.122, -0.366, -58.612, -78.223, -137.972, -30.413, -9.767, -7.793, 25.78, 0.04565, 0.64966, -0.15732, 0.74228,
 12:02:13.708,ed:35:33:d3:6c:f8, 2015-01-01 00:15:02.370, 0.647, 0.125, 0.75, 0.122, 0.122, 0.122, 9.069, -40.265, 144.201, -16.047, -14.107, -27.673, 31.41, 0.26212, 0.34924, -0.03439, 0.8989,
 12:02:13.708,ed:35:33:d3:6c:f8, 2015-01-01 00:15:02.370, 0.642, 0.123, 0.746, 0.305, -0.671, 0.122, 9.075, -40.276, 144.201, -16.047, -14.107, -27.673, 31.41, 0.26212, 0.34924, -0.03439, 0.8989,
 12:02:13.728,ed:40:fe:65:30:6c, 2015-01-01 00:15:07.365, 0.808, 0.09, 0.582, -0.305, -0.122, 0.061, 8.377, -54.492, -135.829, -23.653, -13.333, 1.007, 26.57, 0.36429, -0.39859, -0.23206, -0.80899,
 12:02:13.728,ed:40:fe:65:30:6c, 2015-01-01 00:15:07.365, 0.808, 0.092, 0.581, -0.549, 0.061, -0.061, 8.372, -54.487, -135.829, -23.653, -13.333, 1.007, 26.57, 0.36429, -0.39859, -0.23206, -0.80899,
 12:02:13.730,e3:ca:2d:fd:e0:8c, 2015-01-01 00:15:01.815, 1, -0.182, 0.108, 0.183, 0, -0.305, -58.601, -78.223, -137.988, -30.413, -9.767, -7.793, 25.78, 0.04565, 0.64966, -0.15732, 0.74228,
 12:02:13.730,e3:ca:2d:fd:e0:8c, 2015-01-01 00:15:01.815, 1, -0.184, 0.107, 0.183, 0.061, -0.305, -58.596, -78.223, -137.999, -30.413, -9.767, -7.793, 25.78, 0.04565, 0.64966, -0.15732, 0.74228,
 12:02:13.731,ed:35:33:d3:6c:f8, 2015-01-01 00:15:02.370, 0.641, 0.121, 0.746, -0.183, -0.183, -0.061, 9.08, -40.281, 144.179, -16.047, -14.107, -27.673, 31.41, 0.26212, 0.34924, -0.03439, 0.8989,
 12:02:13.731,ed:35:33:d3:6c:f8, 2015-01-01 00:15:02.370, 0.64, 0.125, 0.747, -0.488, 0.122, -0.061, 9.075, -40.281, 144.152, -16.047, -14.107, -27.673, 31.41, 0.26212, 0.34924, -0.03439, 0.8989,
 12:02:13.752,e3:ca:2d:fd:e0:8c, 2015-01-01 00:15:01.815, 0.999, -0.185, 0.107, 0.061, 0, -0.244, -58.596, -78.223, -138.01, -30.413, -9.767, -7.793, 25.78, 0.04565, 0.64966, -0.15732, 0.74228,
 12:02:13.752,e3:ca:2d:fd:e0:8c, 2015-01-01 00:15:01.815, 1, -0.186, 0.108, 0, 0.061, -0.244, -58.59, -78.223, -138.021, -30.413, -9.767, -7.793, 25.78, 0.04565, 0.64966, -0.15732, 0.74228,
 12:02:13.752,f6:90:cc:01:6d:25, 2015-01-01 00:15:02.215, 0.976, -0.074, 0.135, 0, 0, -0.061, -28.801, -80.947, -138.873, -32.107, -11.933, -1.193, 30.09, 0.10605, -0.65463, -0.04324, -0.74713,
 12:02:13.752,f6:90:cc:01:6d:25, 2015-01-01 00:15:02.215, 0.973, -0.075, 0.134, -0.061, 0.061, -0.122, -28.795, -80.953, -138.878, -32.107, -11.933, -1.193, 30.09, 0.10605, -0.65463, -0.04324, -0.74713,
 12:02:13.773,ed:40:fe:65:30:6c, 2015-01-01 00:15:07.365, 0.81, 0.092, 0.58, -0.366, 0.061, 0.061, 8.372, -54.481, -135.824, -23.653, -13.333, 1.007, 26.57, 0.36429, -0.39859, -0.23206, -0.80899,
 12:02:13.773,ed:40:fe:65:30:6c, 2015-01-01 00:15:07.365, 0.812, 0.092, 0.581, 0, 0.061, 0.122, 8.372, -54.476, -135.824, -23.653, -13.333, 1.007, 26.57, 0.36429, -0.39859, -0.23206, -0.80899,
 12:02:13.775,f6:90:cc:01:6d:25, 2015-01-01 00:15:02.215, 0.973, -0.076, 0.135, -0.305, 0.183, -0.244, -28.784, -80.953, -138.895, -32.107, -11.933, -1.193, 30.09, 0.10754, -0.65509, -0.04364, -0.74652,
 12:02:13.775,f6:90:cc:01:6d:25, 2015-01-01 00:15:02.215, 0.973, -0.076, 0.136, -0.61, 0.061, -0.244, -28.762, -80.947, -138.911, -32.107, -11.933, -1.193, 30.09, 0.10754, -0.65509, -0.04364, -0.74652,
 12:02:13.778,ed:35:33:d3:6c:f8, 2015-01-01 00:15:02.370, 0.643, 0.125, 0.748, -0.427, 0.366, 0.305, 9.069, -40.276, 144.124, -16.047, -14.107, -27.673, 31.41, 0.26212, 0.34924, -0.03439, 0.8989,
 12:02:13.778,ed:35:33:d3:6c:f8, 2015-01-01 00:15:02.370, 0.645, 0.119, 0.75, 0.305, 0, 0.549, 9.064, -40.281, 144.13, -16.047, -14.107, -27.673, 31.41, 0.26212, 0.34924, -0.03439, 0.8989,
 12:02:13.796,e3:ca:2d:fd:e0:8c, 2015-01-01 00:15:01.815, 1.001, -0.186, 0.106, 0, 0.183, -0.244, -58.585, -78.223, -138.027, -30.413, -9.767, -7.793, 25.78, 0.04565, 0.64966, -0.15732, 0.74228,
 12:02:13.796,e3:ca:2d:fd:e0:8c, 2015-01-01 00:15:01.815, 1.001, -0.185, 0.106, 0.183, 0.244, -0.183, -58.574, -78.223, -138.071, -30.413, -9.767, -7.793, 25.78, 0.04565, 0.64966, -0.15732, 0.74228,
 12:02:13.798,f6:90:cc:01:6d:25, 2015-01-01 00:15:02.215, 0.976, -0.075, 0.135, -0.366, -0.244, -0.183, -28.751, -80.953, -138.928, -32.107, -11.933, -1.193, 30.09, 0.10754, -0.65509, -0.04364, -0.74652,
 12:02:13.798,f6:90:cc:01:6d:25, 2015-01-01 00:15:02.215, 0.976, -0.075, 0.132, -0.122, -0.244, -0.061, -28.762, -80.958, -138.933, -32.107, -11.933, -1.193, 30.09, 0.10754, -0.65509, -0.04364, -0.74652,
 12:02:13.822,ed:35:33:d3:6c:f8, 2015-01-01 00:15:02.370, 0.643, 0.116, 0.75, 0.671, -0.732, 0.183, 9.075, -40.292, 144.119, -16.047, -14.107, -27.673, 31.41, 0.26212, 0.34924, -0.03439, 0.8989,
 12:02:13.822,ed:35:33:d3:6c:f8, 2015-01-01 00:15:02.370, 0.64, 0.123, 0.75, 0.488, -1.892, -0.244, 9.097, -40.32, 144.102, -16.047, -14.107, -27.673, 31.41, 0.26212, 0.34924, -0.03439, 0.8989,
 12:02:13.840,ed:40:fe:65:30:6c, 2015-01-01 00:15:07.365, 0.812, 0.089, 0.581, 0.244, -0.244, -0.061, 8.377, -54.47, -135.813, -23.653, -13.333, 1.007, 26.57, 0.36429, -0.39859, -0.23206, -0.80899,
 12:02:13.840,ed:40:fe:65:30:6c, 2015-01-01 00:15:07.365, 0.808, 0.091, 0.583, -0.122, -0.244, -0.488, 8.394, -54.47, -135.818, -23.653, -13.333, 1.007, 26.57, 0.36429, -0.39859, -0.23206, -0.80899,
 12:02:13.841,e3:ca:2d:fd:e0:8c, 2015-01-01 00:15:02.220, 1.001, -0.185, 0.106, 0.366, 0.244, -0.183, -58.552, -78.217, -138.126, -30.413, -9.767, -7.793, 25.78, 0.04565, 0.64966, -0.15732, 0.74228,
 12:02:13.841,e3:ca:2d:fd:e0:8c, 2015-01-01 00:15:02.220, 1, -0.186, 0.105, 0.427, 0.183, -0.305, -58.53, -78.217, -138.181, -30.413, -9.767, -7.793, 25.78, 0.04565, 0.64966, -0.15732, 0.74228,
 12:02:13.843,f6:90:cc:01:6d:25, 2015-01-01 00:15:02.215, 0.975, -0.078, 0.134, 0, -0.183, -0.122, -28.773, -80.964, -138.928, -32.107, -11.933, -1.193, 30.09, 0.10754, -0.65509, -0.04364, -0.74652,
 12:02:13.843,f6:90:cc:01:6d:25, 2015-01-01 00:15:02.215, 0.976, -0.076, 0.138, -0.183, -0.244, -0.244, -28.773, -80.969, -138.928, -32.107, -11.933, -1.193, 30.09, 0.10754, -0.65509, -0.04364, -0.74652,
 12:02:13.865,f6:90:cc:01:6d:25, 2015-01-01 00:15:02.570, 0.976, -0.075, 0.136, 0.061, -0.305, -0.122, -28.779, -80.975, -138.911, -32.107, -11.933, -1.193, 30.09, 0.10754, -0.65509, -0.04364, -0.74652,
 12:02:13.865,f6:90:cc:01:6d:25, 2015-01-01 00:15:02.570, 0.976, -0.076, 0.131, 0.549, -0.122, -0.061, -28.779, -80.98, -138.895, -32.107, -11.933, -1.193, 30.09, 0.10754, -0.65509, -0.04364, -0.74652,
 12:02:13.865,e3:ca:2d:fd:e0:8c, 2015-01-01 00:15:02.220, 1, -0.185, 0.107, 0.305, 0.122, -0.183, -58.519, -78.217, -138.224, -30.413, -9.767, -7.793, 25.78, 0.04565, 0.64966, -0.15732, 0.74228,
 12:02:13.865,e3:ca:2d:fd:e0:8c, 2015-01-01 00:15:02.220, 1, -0.185, 0.109, 0.305, 0.122, -0.244, -58.508, -78.212, -138.268, -30.413, -9.767, -7.793, 25.78, 0.04565, 0.64966, -0.15732, 0.74228,
 12:02:13.867,ed:35:33:d3:6c:f8, 2015-01-01 00:15:02.370, 0.647, 0.127, 0.746, 0.732, -1.709, 0, 9.113, -40.358, 144.108, -15.867, -13.800, -27.400, 31.41, 0.26212, 0.34924, -0.03439, 0.8989,
 12:02:13.867,ed:35:33:d3:6c:f8, 2015-01-01 00:15:02.370, 0.648, 0.127, 0.744, 0.122, -0.61, -0.183, 9.13, -40.375, 144.113, -15.867, -13.800, -27.400, 31.41, 0.26212, 0.34924, -0.03439, 0.8989,
 12:02:13.885,ed:40:fe:65:30:6c, 2015-01-01 00:15:07.365, 0.814, 0.093, 0.58, -0.244, -0.305, -0.427, 8.41, -54.47, -135.835, -23.693, -13.353, 0.960, 26.57, 0.36429, -0.39859, -0.23206, -0.80899,
 12:02:13.885,ed:40:fe:65:30:6c, 2015-01-01 00:15:07.365, 0.817, 0.097, 0.581, 0, -0.305, -0.183, 8.427, -54.47, -135.846, -23.693, -13.353, 0.960, 26.57, 0.36429, -0.39859, -0.23206, -0.80899,
 12:02:13.909,e3:ca:2d:fd:e0:8c, 2015-01-01 00:15:02.220, 0.999, -0.186, 0.109, 0.244, 0.244, -0.305, -58.491, -78.212, -138.323, -30.413, -9.767, -7.793, 25.78, 0.04565, 0.64966, -0.15732, 0.74228,
 12:02:13.909,e3:ca:2d:fd:e0:8c, 2015-01-01 00:15:02.220, 1, -0.186, 0.107, 0.244, 0.183, -0.305, -58.469, -78.212, -138.378, -30.413, -9.767, -7.793, 25.78, 0.04565, 0.64966, -0.15732, 0.74228,
 12:02:13.910,f6:90:cc:01:6d:25, 2015-01-01 00:15:02.570, 0.975, -0.078, 0.133, 0.488, 0, -0.061, -28.773, -80.98, -138.895, -32.107, -11.933, -1.193, 30.09, 0.10754, -0.65509, -0.04364, -0.74652,
 12:02:13.910,f6:90:cc:01:6d:25, 2015-01-01 00:15:02.570, 0.975, -0.075, 0.132, 0.671, 0.427, -0.061, -28.757, -80.98, -138.911, -32.107, -11.933, -1.193, 30.09, 0.10754, -0.65509, -0.04364, -0.74652,
 12:02:13.914,ed:35:33:d3:6c:f8, 2015-01-01 00:15:02.370, 0.645, 0.129, 0.744, -0.244, 0.122, -0.366, 9.135, -40.375, 144.124, -15.867, -13.800, -27.400, 31.41, 0.26196, 0.35028, -0.03479, 0.89853,
 12:02:13.914,ed:35:33:d3:6c:f8, 2015-01-01 00:15:02.370, 0.645, 0.13, 0.747, 0, 0.61, 0.122, 9.135, -40.364, 144.146, -15.867, -13.800, -27.400, 31.41, 0.26196, 0.35028, -0.03479, 0.89853,
 12:02:13.935,ed:35:33:d3:6c:f8, 2015-01-01 00:15:02.685, 0.646, 0.126, 0.751, 0.183, 0.061, 0.732, 9.13, -40.364, 144.19, -15.867, -13.800, -27.400, 31.41, 0.26196, 0.35028, -0.03479, 0.89853,
 12:02:13.935,ed:35:33:d3:6c:f8, 2015-01-01 00:15:02.685, 0.645, 0.126, 0.75, 0.061, -1.526, 0.488, 9.135, -40.397, 144.207, -15.867, -13.800, -27.400, 31.41, 0.26196, 0.35028, -0.03479, 0.89853,
 12:02:13.954,e3:ca:2d:fd:e0:8c, 2015-01-01 00:15:02.220, 1.001, -0.186, 0.107, 0.366, 0.244, -0.244, -58.447, -78.212, -138.433, -30.413, -9.767, -7.793, 25.78, 0.04565, 0.64966, -0.15732, 0.74228,
 12:02:13.954,e3:ca:2d:fd:e0:8c, 2015-01-01 00:15:02.220, 1.001, -0.185, 0.107, 0.183, 0.183, -0.244, -58.431, -78.212, -138.483, -30.413, -9.767, -7.793, 25.78, 0.04565, 0.64966, -0.15732, 0.74228,
 12:02:13.956,f6:90:cc:01:6d:25, 2015-01-01 00:15:02.570, 0.976, -0.075, 0.133, 0.671, 0.305, -0.061, -28.724, -80.975, -138.928, -32.107, -11.933, -1.193, 30.09, 0.10754, -0.65509, -0.04364, -0.74652,
 12:02:13.956,f6:90:cc:01:6d:25, 2015-01-01 00:15:02.570, 0.977, -0.075, 0.136, 0.305, 0.366, -0.061, -28.696, -80.969, -138.911, -32.107, -11.933, -1.193, 30.09, 0.10754, -0.65509, -0.04364, -0.74652,
 12:02:13.975,ed:40:fe:65:30:6c, 2015-01-01 00:15:07.365, 0.813, 0.097, 0.577, -0.183, -0.061, -0.122, 8.438, -54.47, -135.846, -23.693, -13.353, 0.960, 26.57, 0.36429, -0.39859, -0.23206, -0.80899,
 12:02:13.975,ed:40:fe:65:30:6c, 2015-01-01 00:15:07.365, 0.812, 0.095, 0.579, 0.183, -0.244, 0.244, 8.448, -54.465, -135.84, -23.693, -13.353, 0.960, 26.57, 0.36429, -0.39859, -0.23206, -0.80899,
 12:02:13.979,f6:90:cc:01:6d:25, 2015-01-01 00:15:02.570, 0.976, -0.074, 0.134, 0, 0.244, 0, -28.68, -80.964, -138.917, -32.107, -11.933, -1.193, 30.09, 0.10754, -0.65509, -0.04364, -0.74652,
 12:02:13.979,f6:90:cc:01:6d:25, 2015-01-01 00:15:02.570, 0.975, -0.073, 0.13, 0.183, 0.427, 0, -28.663, -80.958, -138.928, -32.107, -11.933, -1.193, 30.09, 0.10754, -0.65509, -0.04364, -0.74652,
 12:02:13.979,ed:35:33:d3:6c:f8, 2015-01-01 00:15:02.685, 0.648, 0.126, 0.745, -0.183, -1.709, 0.183, 9.135, -40.43, 144.207, -15.867, -13.800, -27.400, 31.41, 0.26196, 0.35028, -0.03479, 0.89853,
 12:02:13.979,ed:35:33:d3:6c:f8, 2015-01-01 00:15:02.685, 0.645, 0.127, 0.743, -0.61, -0.61, 0.305, 9.124, -40.441, 144.207, -15.867, -13.800, -27.400, 31.41, 0.26196, 0.35028, -0.03479, 0.89853,
 12:02:13.999,ed:40:fe:65:30:6c, 2015-01-01 00:15:07.365, 0.813, 0.094, 0.581, 0.305, -0.183, 0.61, 8.448, -54.47, -135.824, -23.693, -13.353, 0.960, 26.57, 0.36459, -0.39825, -0.23227, -0.80893,
 12:02:13.999,ed:40:fe:65:30:6c, 2015-01-01 00:15:07.365, 0.812, 0.096, 0.582, 0, -0.549, 0.61, 8.443, -54.47, -135.802, -23.693, -13.353, 0.960, 26.57, 0.36459, -0.39825, -0.23227, -0.80893,
 12:02:14.000,e3:ca:2d:fd:e0:8c, 2015-01-01 00:15:02.220, 1.001, -0.184, 0.106, 0.122, 0.122, -0.244, -58.425, -78.206, -138.527, -30.413, -9.767, -7.793, 25.78, 0.04565, 0.64966, -0.15732, 0.74228,
 12:02:14.000,e3:ca:2d:fd:e0:8c, 2015-01-01 00:15:02.220, 1, -0.184, 0.106, 0.183, 0.244, -0.183, -58.409, -78.206, -138.576, -30.413, -9.767, -7.793, 25.78, 0.04565, 0.64966, -0.15732, 0.74228,
 12:02:14.021,ed:40:fe:65:30:6c, 2015-01-01 00:15:07.365, 0.813, 0.097, 0.581, -0.366, -0.488, 0.427, 8.438, -54.481, -135.775, -23.693, -13.353, 0.960, 26.57, 0.36459, -0.39825, -0.23227, -0.80893,
 12:02:14.021,ed:40:fe:65:30:6c, 2015-01-01 00:15:07.365, 0.813, 0.094, 0.578, -0.366, -0.366, 0.427, 8.432, -54.487, -135.753, -23.693, -13.353, 0.960, 26.57, 0.36459, -0.39825, -0.23227, -0.80893,
 12:02:14.023,f6:90:cc:01:6d:25, 2015-01-01 00:15:02.570, 0.974, -0.074, 0.136, 0.061, 0.183, 0.061, -28.658, -80.953, -138.939, -32.107, -11.933, -1.193, 30.09, 0.10754, -0.65509, -0.04364, -0.74652,
 12:02:14.023,f6:90:cc:01:6d:25, 2015-01-01 00:15:02.570, 0.973, -0.075, 0.136, 0, 0.305, 0.061, -28.652, -80.947, -138.95, -32.107, -11.933, -1.193, 30.09, 0.10754, -0.65509, -0.04364, -0.74652,
