Time,Device name,Chip Time(),Acceleration X(g),Acceleration Y(g),Acceleration Z(g),Angular velocity X(°/s),Angular velocity Y(°/s),Angular velocity Z(°/s),Angle X(°),Angle Y(°),Angle Z(°),Magnetic field X(ʯt),Magnetic field Y(ʯt),Magnetic field Z(ʯt),Temperature(℃),Quaternions 0(),Quaternions 1(),Quaternions 2(),Quaternions 3()
 17:36:01.630,e3:ca:2d:fd:e0:8c, 2015-01-01 03:57:11.600, 0.968, 0.025, 0.318, 0, -0.061, 0, 4.158, -71.823, 152.682, -24.613, -10.613, -12.387, 26.15, -0.1705, -0.57657, 0.10995, -0.79138,
 17:36:01.631,e3:ca:2d:fd:e0:8c, 2015-01-01 03:57:11.600, 0.968, 0.026, 0.318, 0, -0.061, 0, 4.158, -71.829, 152.682, -24.613, -10.613, -12.387, 26.15, -0.1705, -0.57657, 0.10995, -0.79138,
 17:36:01.631,e3:ca:2d:fd:e0:8c, 2015-01-01 03:57:11.600, 0.968, 0.027, 0.319, -0.122, -0.061, 0, 4.164, -71.829, 152.682, -24.613, -10.613, -12.387, 26.15, -0.1705, -0.57657, 0.10995, -0.79138,
 17:36:01.631,e3:ca:2d:fd:e0:8c, 2015-01-01 03:57:11.600, 0.968, 0.026, 0.318, 0, -0.061, 0, 4.158, -71.829, 152.682, -24.613, -10.613, -12.387, 26.15, -0.1705, -0.57657, 0.10995, -0.79138,
 17:36:01.631,e3:ca:2d:fd:e0:8c, 2015-01-01 03:57:11.600, 0.968, 0.027, 0.319, -0.122, -0.061, 0, 4.164, -71.829, 152.682, -24.613, -10.613, -12.387, 26.15, -0.1705, -0.57657, 0.10995, -0.79138,
 17:36:01.631,e3:ca:2d:fd:e0:8c, 2015-01-01 03:57:11.600, 0.968, 0.026, 0.318, 0, -0.061, 0, 4.158, -71.829, 152.682, -24.613, -10.613, -12.387, 26.15, -0.1705, -0.57657, 0.10995, -0.79138,
 17:36:01.634,ed:40:fe:65:30:6c, 2015-01-01 03:57:16.865, 0.461, 0.116, 0.879, 0, 0.061, 0.122, 7.278, -27.559, -136.939, -15.393, -11.067, -7.873, 25.41, -0.36938, 0.19846, 0.14459, 0.89618,
 17:36:01.634,ed:40:fe:65:30:6c, 2015-01-01 03:57:16.865, 0.461, 0.112, 0.881, 0.305, 0.122, 0.427, 7.278, -27.554, -136.917, -15.393, -11.067, -7.873, 25.41, -0.36938, 0.19846, 0.14459, 0.89618,
 17:36:01.634,ed:40:fe:65:30:6c, 2015-01-01 03:57:16.865, 0.461, 0.111, 0.881, 0.061, 0, 0.427, 7.278, -27.554, -136.895, -15.393, -11.067, -7.873, 25.41, -0.36938, 0.19846, 0.14459, 0.89618,
 17:36:01.634,ed:40:fe:65:30:6c, 2015-01-01 03:57:16.865, 0.461, 0.112, 0.881, 0.305, 0.122, 0.427, 7.278, -27.554, -136.917, -15.393, -11.067, -7.873, 25.41, -0.36938, 0.19846, 0.14459, 0.89618,
 17:36:01.634,ed:40:fe:65:30:6c, 2015-01-01 03:57:16.865, 0.461, 0.111, 0.881, 0.061, 0, 0.427, 7.278, -27.554, -136.895, -15.393, -11.067, -7.873, 25.41, -0.36938, 0.19846, 0.14459, 0.89618,
 17:36:01.634,ed:40:fe:65:30:6c, 2015-01-01 03:57:16.865, 0.461, 0.112, 0.881, 0.305, 0.122, 0.427, 7.278, -27.554, -136.917, -15.393, -11.067, -7.873, 25.41, -0.36938, 0.19846, 0.14459, 0.89618,
 17:36:01.641,f6:90:cc:01:6d:25, 2015-01-01 03:57:03.245, 0.887, -0.069, 0.431, 0.061, -0.183, 0, -8.756, -63.781, -146.689, -28.740, -9.107, -8.060, 29.16, 0.20444, -0.5231, -0.08899, -0.82251,
 17:36:01.641,f6:90:cc:01:6d:25, 2015-01-01 03:57:03.245, 0.886, -0.069, 0.43, 0.305, -0.244, 0, -8.751, -63.787, -146.7, -28.740, -9.107, -8.060, 29.16, 0.20444, -0.5231, -0.08899, -0.82251,
 17:36:01.641,f6:90:cc:01:6d:25, 2015-01-01 03:57:03.245, 0.887, -0.065, 0.432, 0.183, 0.122, 0, -8.745, -63.787, -146.717, -28.740, -9.107, -8.060, 29.16, 0.20444, -0.5231, -0.08899, -0.82251,
 17:36:01.641,f6:90:cc:01:6d:25, 2015-01-01 03:57:03.245, 0.886, -0.069, 0.43, 0.305, -0.244, 0, -8.751, -63.787, -146.7, -28.740, -9.107, -8.060, 29.16, 0.20444, -0.5231, -0.08899, -0.82251,
 17:36:01.641,f6:90:cc:01:6d:25, 2015-01-01 03:57:03.245, 0.887, -0.065, 0.432, 0.183, 0.122, 0, -8.745, -63.787, -146.717, -28.740, -9.107, -8.060, 29.16, 0.20444, -0.5231, -0.08899, -0.82251,
 17:36:01.641,f6:90:cc:01:6d:25, 2015-01-01 03:57:03.245, 0.886, -0.069, 0.43, 0.305, -0.244, 0, -8.751, -63.787, -146.7, -28.740, -9.107, -8.060, 29.16, 0.20444, -0.5231, -0.08899, -0.82251,
 17:36:01.661,e3:ca:2d:fd:e0:8c, 2015-01-01 03:57:11.600, 0.969, 0.027, 0.319, -0.122, -0.061, 0, 4.164, -71.829, 152.682, -24.613, -10.613, -12.387, 26.15, -0.1705, -0.57657, 0.10995, -0.79138,
 17:36:01.661,e3:ca:2d:fd:e0:8c, 2015-01-01 03:57:11.600, 0.97, 0.025, 0.317, -0.244, 0, 0, 4.164, -71.829, 152.682, -24.613, -10.613, -12.387, 26.15, -0.1705, -0.57657, 0.10995, -0.79138,
 17:36:01.661,e3:ca:2d:fd:e0:8c, 2015-01-01 03:57:11.600, 0.969, 0.026, 0.318, -0.305, 0, 0, 4.164, -71.823, 152.682, -24.613, -10.613, -12.387, 26.15, -0.1705, -0.57657, 0.10995, -0.79138,
 17:36:01.661,e3:ca:2d:fd:e0:8c, 2015-01-01 03:57:11.600, 0.97, 0.025, 0.317, -0.244, 0, 0, 4.164, -71.829, 152.682, -24.613, -10.613, -12.387, 26.15, -0.1705, -0.57657, 0.10995, -0.79138,
 17:36:01.661,e3:ca:2d:fd:e0:8c, 2015-01-01 03:57:11.600, 0.969, 0.026, 0.318, -0.305, 0, 0, 4.164, -71.823, 152.682, -24.613, -10.613, -12.387, 26.15, -0.1705, -0.57657, 0.10995, -0.79138,
 17:36:01.661,e3:ca:2d:fd:e0:8c, 2015-01-01 03:57:11.600, 0.97, 0.025, 0.317, -0.244, 0, 0, 4.164, -71.829, 152.682, -24.613, -10.613, -12.387, 26.15, -0.1705, -0.57657, 0.10995, -0.79138,
 17:36:01.668,ed:35:33:d3:6c:f8, 2015-01-01 03:56:52.465, 0.279, 0.189, 0.938, -0.244, 0.244, -0.61, 11.041, -16.375, 158.687, -6.840, -14.133, -32.573, 24.63, 0.16885, 0.1571, 0.0675, 0.97064,
 17:36:01.668,ed:35:33:d3:6c:f8, 2015-01-01 03:56:52.465, 0.279, 0.188, 0.942, 0.916, 0.122, 0.61, 11.052, -16.37, 158.714, -6.840, -14.133, -32.573, 24.63, 0.16885, 0.1571, 0.0675, 0.97064,
 17:36:01.668,ed:35:33:d3:6c:f8, 2015-01-01 03:56:52.465, 0.279, 0.18, 0.942, -0.061, 0.183, 0.977, 11.052, -16.37, 158.752, -6.840, -14.133, -32.573, 24.63, 0.16885, 0.1571, 0.0675, 0.97064,
 17:36:01.668,ed:35:33:d3:6c:f8, 2015-01-01 03:56:52.465, 0.279, 0.188, 0.942, 0.916, 0.122, 0.61, 11.052, -16.37, 158.714, -6.840, -14.133, -32.573, 24.63, 0.16885, 0.1571, 0.0675, 0.97064,
 17:36:01.668,ed:35:33:d3:6c:f8, 2015-01-01 03:56:52.465, 0.279, 0.18, 0.942, -0.061, 0.183, 0.977, 11.052, -16.37, 158.752, -6.840, -14.133, -32.573, 24.63, 0.16885, 0.1571, 0.0675, 0.97064,
 17:36:01.668,ed:35:33:d3:6c:f8, 2015-01-01 03:56:52.465, 0.279, 0.188, 0.942, 0.916, 0.122, 0.61, 11.052, -16.37, 158.714, -6.840, -14.133, -32.573, 24.63, 0.16885, 0.1571, 0.0675, 0.97064,
 17:36:01.671,f6:90:cc:01:6d:25, 2015-01-01 03:57:03.245, 0.886, -0.065, 0.432, 0.183, 0.122, 0, -8.745, -63.787, -146.717, -28.740, -9.107, -8.060, 29.16, 0.20444, -0.5231, -0.08899, -0.82251,
 17:36:01.671,f6:90:cc:01:6d:25, 2015-01-01 03:57:03.245, 0.887, -0.066, 0.431, 0.122, 0.061, -0.061, -8.745, -63.781, -146.728, -28.740, -9.107, -8.060, 29.16, 0.20444, -0.5231, -0.08899, -0.82251,
 17:36:01.671,f6:90:cc:01:6d:25, 2015-01-01 03:57:03.245, 0.886, -0.065, 0.431, -0.061, 0.061, 0, -8.74, -63.781, -146.744, -28.740, -9.107, -8.060, 29.16, 0.20444, -0.5231, -0.08899, -0.82251,
 17:36:01.671,f6:90:cc:01:6d:25, 2015-01-01 03:57:03.245, 0.887, -0.066, 0.431, 0.122, 0.061, -0.061, -8.745, -63.781, -146.728, -28.740, -9.107, -8.060, 29.16, 0.20444, -0.5231, -0.08899, -0.82251,
 17:36:01.671,f6:90:cc:01:6d:25, 2015-01-01 03:57:03.245, 0.886, -0.065, 0.431, -0.061, 0.061, 0, -8.74, -63.781, -146.744, -28.740, -9.107, -8.060, 29.16, 0.20444, -0.5231, -0.08899, -0.82251,
 17:36:01.671,f6:90:cc:01:6d:25, 2015-01-01 03:57:03.245, 0.887, -0.066, 0.431, 0.122, 0.061, -0.061, -8.745, -63.781, -146.728, -28.740, -9.107, -8.060, 29.16, 0.20444, -0.5231, -0.08899, -0.82251,
 17:36:01.671,f6:90:cc:01:6d:25, 2015-01-01 03:57:03.245, 0.889, -0.065, 0.431, -0.061, 0.061, 0, -8.74, -63.781, -146.744, -28.740, -9.107, -8.060, 29.16, 0.20444, -0.5231, -0.08899, -0.82251,
 17:36:01.671,f6:90:cc:01:6d:25, 2015-01-01 03:57:03.245, 0.889, -0.062, 0.432, -0.122, 0.122, 0, -8.74, -63.781, -146.755, -28.740, -9.107, -8.060, 29.16, 0.20444, -0.5231, -0.08899, -0.82251,
 17:36:01.671,f6:90:cc:01:6d:25, 2015-01-01 03:57:03.245, 0.889, -0.063, 0.43, -0.244, 0.183, 0, -8.745, -63.776, -146.772, -28.740, -9.107, -8.060, 29.16, 0.20444, -0.5231, -0.08899, -0.82251,
 17:36:01.671,f6:90:cc:01:6d:25, 2015-01-01 03:57:03.245, 0.889, -0.062, 0.432, -0.122, 0.122, 0, -8.74, -63.781, -146.755, -28.740, -9.107, -8.060, 29.16, 0.20444, -0.5231, -0.08899, -0.82251,
 17:36:01.671,f6:90:cc:01:6d:25, 2015-01-01 03:57:03.245, 0.889, -0.063, 0.43, -0.244, 0.183, 0, -8.745, -63.776, -146.772, -28.740, -9.107, -8.060, 29.16, 0.20444, -0.5231, -0.08899, -0.82251,
 17:36:01.671,f6:90:cc:01:6d:25, 2015-01-01 03:57:03.245, 0.889, -0.062, 0.432, -0.122, 0.122, 0, -8.74, -63.781, -146.755, -28.740, -9.107, -8.060, 29.16, 0.20444, -0.5231, -0.08899, -0.82251,
 17:36:01.690,e3:ca:2d:fd:e0:8c, 2015-01-01 03:57:11.600, 0.971, 0.026, 0.318, -0.305, 0, 0, 4.164, -71.823, 152.682, -24.613, -10.613, -12.387, 26.15, -0.1705, -0.57657, 0.10995, -0.79138,
 17:36:01.690,e3:ca:2d:fd:e0:8c, 2015-01-01 03:57:11.600, 0.971, 0.028, 0.317, -0.244, -0.061, 0, 4.164, -71.829, 152.688, -24.613, -10.613, -12.387, 26.15, -0.1705, -0.57657, 0.10995, -0.79138,
 17:36:01.690,e3:ca:2d:fd:e0:8c, 2015-01-01 03:57:11.600, 0.971, 0.027, 0.316, -0.183, -0.061, 0, 4.169, -71.829, 152.688, -24.613, -10.613, -12.387, 26.15, -0.1705, -0.57657, 0.10995, -0.79138,
 17:36:01.690,e3:ca:2d:fd:e0:8c, 2015-01-01 03:57:11.600, 0.971, 0.028, 0.317, -0.244, -0.061, 0, 4.164, -71.829, 152.688, -24.613, -10.613, -12.387, 26.15, -0.1705, -0.57657, 0.10995, -0.79138,
 17:36:01.690,e3:ca:2d:fd:e0:8c, 2015-01-01 03:57:11.600, 0.971, 0.027, 0.316, -0.183, -0.061, 0, 4.169, -71.829, 152.688, -24.613, -10.613, -12.387, 26.15, -0.1705, -0.57657, 0.10995, -0.79138,
 17:36:01.690,e3:ca:2d:fd:e0:8c, 2015-01-01 03:57:11.600, 0.971, 0.028, 0.317, -0.244, -0.061, 0, 4.164, -71.829, 152.688, -24.613, -10.613, -12.387, 26.15, -0.1705, -0.57657, 0.10995, -0.79138,
 17:36:01.694,ed:40:fe:65:30:6c, 2015-01-01 03:57:16.865, 0.463, 0.111, 0.881, 0.061, 0, 0.427, 7.278, -27.554, -136.895, -15.393, -11.067, -7.873, 25.41, -0.36938, 0.19846, 0.14459, 0.89618,
 17:36:01.694,ed:40:fe:65:30:6c, 2015-01-01 03:57:16.865, 0.464, 0.114, 0.881, 0, -0.061, 0.061, 7.273, -27.554, -136.879, -15.393, -11.067, -7.873, 25.41, -0.36938, 0.19846, 0.14459, 0.89618,
 17:36:01.694,ed:40:fe:65:30:6c, 2015-01-01 03:57:16.865, 0.463, 0.114, 0.881, 0, 0, -0.061, 7.273, -27.554, -136.873, -15.393, -11.067, -7.873, 25.41, -0.36938, 0.19846, 0.14459, 0.89618,
 17:36:01.694,ed:40:fe:65:30:6c, 2015-01-01 03:57:16.865, 0.464, 0.114, 0.881, 0, -0.061, 0.061, 7.273, -27.554, -136.879, -15.393, -11.067, -7.873, 25.41, -0.36938, 0.19846, 0.14459, 0.89618,
 17:36:01.694,ed:40:fe:65:30:6c, 2015-01-01 03:57:16.865, 0.463, 0.114, 0.881, 0, 0, -0.061, 7.273, -27.554, -136.873, -15.393, -11.067, -7.873, 25.41, -0.36938, 0.19846, 0.14459, 0.89618,
 17:36:01.694,ed:40:fe:65:30:6c, 2015-01-01 03:57:16.865, 0.464, 0.114, 0.881, 0, -0.061, 0.061, 7.273, -27.554, -136.879, -15.393, -11.067, -7.873, 25.41, -0.36938, 0.19846, 0.14459, 0.89618,
 17:36:01.700,ed:35:33:d3:6c:f8, 2015-01-01 03:56:52.465, 0.28, 0.18, 0.942, -0.061, 0.183, 0.977, 11.052, -16.37, 158.752, -6.840, -14.133, -32.573, 24.63, 0.16885, 0.1571, 0.0675, 0.97064,
 17:36:01.700,ed:35:33:d3:6c:f8, 2015-01-01 03:56:52.465, 0.283, 0.182, 0.939, -0.977, -0.122, -0.61, 11.041, -16.37, 158.774, -6.840, -14.133, -32.573, 24.63, 0.16885, 0.1571, 0.0675, 0.97064,
 17:36:01.700,ed:35:33:d3:6c:f8, 2015-01-01 03:56:52.465, 0.28, 0.189, 0.939, -0.122, -0.977, -0.427, 11.036, -16.386, 158.78, -6.840, -14.133, -32.573, 24.63, 0.16885, 0.1571, 0.0675, 0.97064,
 17:36:01.700,ed:35:33:d3:6c:f8, 2015-01-01 03:56:52.465, 0.283, 0.182, 0.939, -0.977, -0.122, -0.61, 11.041, -16.37, 158.774, -6.840, -14.133, -32.573, 24.63, 0.16885, 0.1571, 0.0675, 0.97064,
 17:36:01.700,ed:35:33:d3:6c:f8, 2015-01-01 03:56:52.465, 0.28, 0.189, 0.939, -0.122, -0.977, -0.427, 11.036, -16.386, 158.78, -6.840, -14.133, -32.573, 24.63, 0.16885, 0.1571, 0.0675, 0.97064,
 17:36:01.700,ed:35:33:d3:6c:f8, 2015-01-01 03:56:52.465, 0.283, 0.182, 0.939, -0.977, -0.122, -0.61, 11.041, -16.37, 158.774, -6.840, -14.133, -32.573, 24.63, 0.16885, 0.1571, 0.0675, 0.97064,
 17:36:01.725,ed:40:fe:65:30:6c, 2015-01-01 03:57:16.865, 0.463, 0.114, 0.881, 0, 0, -0.061, 7.273, -27.554, -136.873, -15.393, -11.067, -7.873, 25.41, -0.36938, 0.19846, 0.14459, 0.89618,
 17:36:01.725,ed:40:fe:65:30:6c, 2015-01-01 03:57:16.865, 0.461, 0.112, 0.88, 0, -0.061, 0, 7.278, -27.554, -136.868, -15.393, -11.067, -7.873, 25.41, -0.36938, 0.19846, 0.14459, 0.89618,
 17:36:01.725,ed:40:fe:65:30:6c, 2015-01-01 03:57:16.865, 0.463, 0.11, 0.88, -0.061, -0.122, 0, 7.278, -27.554, -136.857, -15.393, -11.067, -7.873, 25.41, -0.36938, 0.19846, 0.14459, 0.89618,
 17:36:01.725,ed:40:fe:65:30:6c, 2015-01-01 03:57:16.865, 0.461, 0.112, 0.88, 0, -0.061, 0, 7.278, -27.554, -136.868, -15.393, -11.067, -7.873, 25.41, -0.36938, 0.19846, 0.14459, 0.89618,
 17:36:01.725,ed:40:fe:65:30:6c, 2015-01-01 03:57:16.865, 0.463, 0.11, 0.88, -0.061, -0.122, 0, 7.278, -27.554, -136.857, -15.393, -11.067, -7.873, 25.41, -0.36938, 0.19846, 0.14459, 0.89618,
 17:36:01.725,ed:40:fe:65:30:6c, 2015-01-01 03:57:16.865, 0.461, 0.112, 0.88, 0, -0.061, 0, 7.278, -27.554, -136.868, -15.393, -11.067, -7.873, 25.41, -0.36938, 0.19846, 0.14459, 0.89618,
 17:36:01.728,ed:35:33:d3:6c:f8, 2015-01-01 03:56:52.465, 0.282, 0.189, 0.939, -0.122, -0.977, -0.427, 11.036, -16.386, 158.78, -7.280, -14.187, -32.160, 24.63, 0.16885, 0.1571, 0.0675, 0.97064,
 17:36:01.728,ed:35:33:d3:6c:f8, 2015-01-01 03:56:52.465, 0.28, 0.184, 0.939, 0.488, 0.122, 0.244, 11.047, -16.386, 158.791, -7.280, -14.187, -32.160, 24.63, 0.16885, 0.1571, 0.0675, 0.97064,
 17:36:01.728,ed:35:33:d3:6c:f8, 2015-01-01 03:56:52.465, 0.282, 0.182, 0.938, 0.183, 0.122, 0, 11.052, -16.386, 158.807, -7.280, -14.187, -32.160, 24.63, 0.16885, 0.1571, 0.0675, 0.97064,
 17:36:01.728,ed:35:33:d3:6c:f8, 2015-01-01 03:56:52.465, 0.28, 0.184, 0.939, 0.488, 0.122, 0.244, 11.047, -16.386, 158.791, -7.280, -14.187, -32.160, 24.63, 0.16885, 0.1571, 0.0675, 0.97064,
 17:36:01.728,ed:35:33:d3:6c:f8, 2015-01-01 03:56:52.465, 0.282, 0.182, 0.938, 0.183, 0.122, 0, 11.052, -16.386, 158.807, -7.280, -14.187, -32.160, 24.63, 0.16885, 0.1571, 0.0675, 0.97064,
 17:36:01.728,ed:35:33:d3:6c:f8, 2015-01-01 03:56:52.465, 0.28, 0.184, 0.939, 0.488, 0.122, 0.244, 11.047, -16.386, 158.791, -7.280, -14.187, -32.160, 24.63, 0.16885, 0.1571, 0.0675, 0.97064,
 17:36:01.731,f6:90:cc:01:6d:25, 2015-01-01 03:57:03.245, 0.887, -0.063, 0.43, -0.244, 0.183, 0, -8.745, -63.776, -146.772, -28.740, -9.107, -8.060, 29.16, 0.20444, -0.5231, -0.08899, -0.82251,
 17:36:01.731,f6:90:cc:01:6d:25, 2015-01-01 03:57:03.245, 0.885, -0.066, 0.429, -0.122, 0.122, 0, -8.745, -63.776, -146.783, -28.740, -9.107, -8.060, 29.16, 0.20444, -0.5231, -0.08899, -0.82251,
 17:36:01.731,f6:90:cc:01:6d:25, 2015-01-01 03:57:03.245, 0.887, -0.067, 0.429, -0.061, 0.061, 0, -8.745, -63.77, -146.794, -28.740, -9.107, -8.060, 29.16, 0.20444, -0.5231, -0.08899, -0.82251,
 17:36:01.731,f6:90:cc:01:6d:25, 2015-01-01 03:57:03.245, 0.885, -0.066, 0.429, -0.122, 0.122, 0, -8.745, -63.776, -146.783, -28.740, -9.107, -8.060, 29.16, 0.20444, -0.5231, -0.08899, -0.82251,
 17:36:01.731,f6:90:cc:01:6d:25, 2015-01-01 03:57:03.245, 0.887, -0.067, 0.429, -0.061, 0.061, 0, -8.745, -63.77, -146.794, -28.740, -9.107, -8.060, 29.16, 0.20444, -0.5231, -0.08899, -0.82251,
 17:36:01.731,f6:90:cc:01:6d:25, 2015-01-01 03:57:03.245, 0.885, -0.066, 0.429, -0.122, 0.122, 0, -8.745, -63.776, -146.783, -28.740, -9.107, -8.060, 29.16, 0.20444, -0.5231, -0.08899, -0.82251,
 17:36:01.749,e3:ca:2d:fd:e0:8c, 2015-01-01 03:57:11.600, 0.968, 0.027, 0.316, -0.183, -0.061, 0, 4.169, -71.829, 152.688, -24.613, -10.613, -12.387, 26.15, -0.1705, -0.57657, 0.10995, -0.79138,
 17:36:01.749,e3:ca:2d:fd:e0:8c, 2015-01-01 03:57:11.600, 0.966, 0.024, 0.315, -0.244, 0, 0, 4.169, -71.829, 152.688, -24.613, -10.613, -12.387, 26.15, -0.1705, -0.57657, 0.10995, -0.79138,
 17:36:01.749,e3:ca:2d:fd:e0:8c, 2015-01-01 03:57:11.600, 0.968, 0.025, 0.315, -0.244, 0, 0, 4.175, -71.829, 152.688, -24.613, -10.613, -12.387, 26.15, -0.1705, -0.57657, 0.10995, -0.79138,
 17:36:01.749,e3:ca:2d:fd:e0:8c, 2015-01-01 03:57:11.600, 0.966, 0.024, 0.315, -0.244, 0, 0, 4.169, -71.829, 152.688, -24.613, -10.613, -12.387, 26.15, -0.1705, -0.57657, 0.10995, -0.79138,
 17:36:01.749,e3:ca:2d:fd:e0:8c, 2015-01-01 03:57:11.600, 0.968, 0.025, 0.315, -0.244, 0, 0, 4.175, -71.829, 152.688, -24.613, -10.613, -12.387, 26.15, -0.1705, -0.57657, 0.10995, -0.79138,
 17:36:01.749,e3:ca:2d:fd:e0:8c, 2015-01-01 03:57:11.600, 0.966, 0.024, 0.315, -0.244, 0, 0, 4.169, -71.829, 152.688, -24.613, -10.613, -12.387, 26.15, -0.1705, -0.57657, 0.10995, -0.79138,
 17:36:01.755,ed:40:fe:65:30:6c, 2015-01-01 03:57:16.865, 0.461, 0.11, 0.88, -0.061, -0.122, 0, 7.278, -27.554, -136.857, -15.773, -11.447, -6.827, 25.41, -0.36938, 0.19846, 0.14459, 0.89618,
 17:36:01.755,ed:40:fe:65:30:6c, 2015-01-01 03:57:16.865, 0.46, 0.11, 0.878, -0.061, -0.122, 0, 7.273, -27.559, -136.846, -15.773, -11.447, -6.827, 25.41, -0.36938, 0.19846, 0.14459, 0.89618,
 17:36:01.755,ed:40:fe:65:30:6c, 2015-01-01 03:57:16.865, 0.461, 0.111, 0.88, -0.122, -0.244, -0.061, 7.273, -27.559, -136.84, -15.773, -11.447, -6.827, 25.41, -0.36938, 0.19846, 0.14459, 0.89618,
 17:36:01.755,ed:40:fe:65:30:6c, 2015-01-01 03:57:16.865, 0.46, 0.11, 0.878, -0.061, -0.122, 0, 7.273, -27.559, -136.846, -15.773, -11.447, -6.827, 25.41, -0.36938, 0.19846, 0.14459, 0.89618,
 17:36:01.755,ed:40:fe:65:30:6c, 2015-01-01 03:57:16.865, 0.461, 0.111, 0.88, -0.122, -0.244, -0.061, 7.273, -27.559, -136.84, -15.773, -11.447, -6.827, 25.41, -0.36938, 0.19846, 0.14459, 0.89618,
 17:36:01.755,ed:40:fe:65:30:6c, 2015-01-01 03:57:16.865, 0.46, 0.11, 0.878, -0.061, -0.122, 0, 7.273, -27.559, -136.846, -15.773, -11.447, -6.827, 25.41, -0.36938, 0.19846, 0.14459, 0.89618,
 17:36:01.761,f6:90:cc:01:6d:25, 2015-01-01 03:57:03.245, 0.884, -0.067, 0.429, -0.061, 0.061, 0, -8.745, -63.77, -146.794, -28.827, -9.093, -8.867, 29.16, 0.20444, -0.5231, -0.08899, -0.82251,
 17:36:01.761,f6:90:cc:01:6d:25, 2015-01-01 03:57:03.245, 0.885, -0.065, 0.431, -0.061, 0, 0, -8.745, -63.77, -146.81, -28.827, -9.093, -8.867, 29.16, 0.20444, -0.5231, -0.08899, -0.82251,
 17:36:01.761,f6:90:cc:01:6d:25, 2015-01-01 03:57:03.245, 0.884, -0.066, 0.432, -0.183, 0, 0, -8.745, -63.776, -146.821, -28.827, -9.093, -8.867, 29.16, 0.20444, -0.5231, -0.08899, -0.82251,
 17:36:01.761,f6:90:cc:01:6d:25, 2015-01-01 03:57:03.245, 0.885, -0.065, 0.431, -0.061, 0, 0, -8.745, -63.77, -146.81, -28.827, -9.093, -8.867, 29.16, 0.20444, -0.5231, -0.08899, -0.82251,
 17:36:01.761,f6:90:cc:01:6d:25, 2015-01-01 03:57:03.245, 0.884, -0.066, 0.432, -0.183, 0, 0, -8.745, -63.776, -146.821, -28.827, -9.093, -8.867, 29.16, 0.20444, -0.5231, -0.08899, -0.82251,
 17:36:01.761,f6:90:cc:01:6d:25, 2015-01-01 03:57:03.245, 0.885, -0.065, 0.431, -0.061, 0, 0, -8.745, -63.77, -146.81, -28.827, -9.093, -8.867, 29.16, 0.20444, -0.5231, -0.08899, -0.82251,
 17:36:01.780,e3:ca:2d:fd:e0:8c, 2015-01-01 03:57:11.600, 0.967, 0.025, 0.315, -0.244, 0, 0, 4.175, -71.829, 152.688, -25.133, -10.073, -12.707, 26.15, -0.1705, -0.57657, 0.10995, -0.79138,
 17:36:01.780,e3:ca:2d:fd:e0:8c, 2015-01-01 03:57:11.600, 0.969, 0.026, 0.317, -0.366, -0.122, 0, 4.175, -71.829, 152.688, -25.133, -10.073, -12.707, 26.15, -0.1705, -0.57657, 0.10995, -0.79138,
 17:36:01.780,e3:ca:2d:fd:e0:8c, 2015-01-01 03:57:11.600, 0.967, 0.025, 0.318, -0.366, -0.183, 0, 4.169, -71.834, 152.688, -25.133, -10.073, -12.707, 26.15, -0.1705, -0.57657, 0.10995, -0.79138,
 17:36:01.780,e3:ca:2d:fd:e0:8c, 2015-01-01 03:57:11.600, 0.969, 0.026, 0.317, -0.366, -0.122, 0, 4.175, -71.829, 152.688, -25.133, -10.073, -12.707, 26.15, -0.1705, -0.57657, 0.10995, -0.79138,
 17:36:01.780,e3:ca:2d:fd:e0:8c, 2015-01-01 03:57:11.600, 0.967, 0.025, 0.318, -0.366, -0.183, 0, 4.169, -71.834, 152.688, -25.133, -10.073, -12.707, 26.15, -0.1705, -0.57657, 0.10995, -0.79138,
 17:36:01.780,e3:ca:2d:fd:e0:8c, 2015-01-01 03:57:11.600, 0.969, 0.026, 0.317, -0.366, -0.122, 0, 4.175, -71.829, 152.688, -25.133, -10.073, -12.707, 26.15, -0.1705, -0.57657, 0.10995, -0.79138,
 17:36:01.812,e3:ca:2d:fd:e0:8c, 2015-01-01 03:57:11.600, 0.97, 0.025, 0.318, -0.366, -0.183, 0, 4.169, -71.834, 152.688, -25.133, -10.073, -12.707, 26.15, -0.1705, -0.57657, 0.10995, -0.79138,
 17:36:01.812,e3:ca:2d:fd:e0:8c, 2015-01-01 03:57:11.600, 0.97, 0.025, 0.317, -0.305, -0.244, 0, 4.169, -71.834, 152.688, -25.133, -10.073, -12.707, 26.15, -0.1705, -0.57657, 0.10995, -0.79138,
 17:36:01.812,e3:ca:2d:fd:e0:8c, 2015-01-01 03:57:11.600, 0.97, 0.024, 0.319, -0.366, -0.122, 0, 4.169, -71.84, 152.693, -25.133, -10.073, -12.707, 26.15, -0.1705, -0.57657, 0.10995, -0.79138,
 17:36:01.812,e3:ca:2d:fd:e0:8c, 2015-01-01 03:57:11.600, 0.97, 0.025, 0.317, -0.305, -0.244, 0, 4.169, -71.834, 152.688, -25.133, -10.073, -12.707, 26.15, -0.1705, -0.57657, 0.10995, -0.79138,
 17:36:01.812,e3:ca:2d:fd:e0:8c, 2015-01-01 03:57:11.600, 0.97, 0.024, 0.319, -0.366, -0.122, 0, 4.169, -71.84, 152.693, -25.133, -10.073, -12.707, 26.15, -0.1705, -0.57657, 0.10995, -0.79138,
 17:36:01.812,e3:ca:2d:fd:e0:8c, 2015-01-01 03:57:11.600, 0.97, 0.025, 0.317, -0.305, -0.244, 0, 4.169, -71.834, 152.688, -25.133, -10.073, -12.707, 26.15, -0.1705, -0.57657, 0.10995, -0.79138,
 17:36:01.814,ed:40:fe:65:30:6c, 2015-01-01 03:57:16.865, 0.462, 0.111, 0.88, -0.122, -0.244, -0.061, 7.273, -27.559, -136.84, -15.773, -11.447, -6.827, 25.41, -0.36938, 0.19846, 0.14459, 0.89618,
 17:36:01.814,ed:40:fe:65:30:6c, 2015-01-01 03:57:16.865, 0.462, 0.11, 0.879, -0.183, -0.183, -0.122, 7.273, -27.565, -136.829, -15.773, -11.447, -6.827, 25.41, -0.36938, 0.19846, 0.14459, 0.89618,
 17:36:01.814,ed:40:fe:65:30:6c, 2015-01-01 03:57:16.865, 0.462, 0.112, 0.88, 0.061, -0.183, -0.122, 7.267, -27.565, -136.824, -15.773, -11.447, -6.827, 25.41, -0.36938, 0.19846, 0.14459, 0.89618,
 17:36:01.814,ed:40:fe:65:30:6c, 2015-01-01 03:57:16.865, 0.462, 0.11, 0.879, -0.183, -0.183, -0.122, 7.273, -27.565, -136.829, -15.773, -11.447, -6.827, 25.41, -0.36938, 0.19846, 0.14459, 0.89618,
 17:36:01.814,ed:40:fe:65:30:6c, 2015-01-01 03:57:16.865, 0.462, 0.112, 0.88, 0.061, -0.183, -0.122, 7.267, -27.565, -136.824, -15.773, -11.447, -6.827, 25.41, -0.36938, 0.19846, 0.14459, 0.89618,
 17:36:01.814,ed:40:fe:65:30:6c, 2015-01-01 03:57:16.865, 0.462, 0.11, 0.879, -0.183, -0.183, -0.122, 7.273, -27.565, -136.829, -15.773, -11.447, -6.827, 25.41, -0.36938, 0.19846, 0.14459, 0.89618,
 17:36:01.818,ed:35:33:d3:6c:f8, 2015-01-01 03:56:52.465, 0.28, 0.182, 0.938, 0.183, 0.122, 0, 11.052, -16.386, 158.807, -7.280, -14.187, -32.160, 24.63, 0.16885, 0.1571, 0.0675, 0.97064,
 17:36:01.818,ed:35:33:d3:6c:f8, 2015-01-01 03:56:52.465, 0.28, 0.183, 0.938, -0.122, 0.183, -0.061, 11.052, -16.381, 158.824, -7.280, -14.187, -32.160, 24.63, 0.16885, 0.1571, 0.0675, 0.97064,
 17:36:01.818,ed:35:33:d3:6c:f8, 2015-01-01 03:56:52.465, 0.28, 0.182, 0.938, 0, 0.122, -0.244, 11.052, -16.375, 158.846, -7.280, -14.187, -32.160, 24.63, 0.16885, 0.1571, 0.0675, 0.97064,
 17:36:01.818,ed:35:33:d3:6c:f8, 2015-01-01 03:56:52.465, 0.28, 0.183, 0.938, -0.122, 0.183, -0.061, 11.052, -16.381, 158.824, -7.280, -14.187, -32.160, 24.63, 0.16885, 0.1571, 0.0675, 0.97064,
 17:36:01.818,ed:35:33:d3:6c:f8, 2015-01-01 03:56:52.465, 0.28, 0.182, 0.938, 0, 0.122, -0.244, 11.052, -16.375, 158.846, -7.280, -14.187, -32.160, 24.63, 0.16885, 0.1571, 0.0675, 0.97064,
 17:36:01.818,ed:35:33:d3:6c:f8, 2015-01-01 03:56:52.465, 0.28, 0.183, 0.938, -0.122, 0.183, -0.061, 11.052, -16.381, 158.824, -7.280, -14.187, -32.160, 24.63, 0.16757, 0.15692, 0.0676, 0.97089,
 17:36:01.818,ed:35:33:d3:6c:f8, 2015-01-01 03:56:52.465, 0.281, 0.182, 0.938, 0, 0.122, -0.244, 11.052, -16.375, 158.846, -7.280, -14.187, -32.160, 24.63, 0.16757, 0.15692, 0.0676, 0.97089,
 17:36:01.818,ed:35:33:d3:6c:f8, 2015-01-01 03:56:52.465, 0.283, 0.182, 0.938, -0.427, 0.061, -0.427, 11.047, -16.375, 158.868, -7.280, -14.187, -32.160, 24.63, 0.16757, 0.15692, 0.0676, 0.97089,
 17:36:01.818,ed:35:33:d3:6c:f8, 2015-01-01 03:56:52.465, 0.281, 0.185, 0.937, 0.061, 0.549, -0.122, 11.047, -16.364, 158.89, -7.280, -14.187, -32.160, 24.63, 0.16757, 0.15692, 0.0676, 0.97089,
 17:36:01.818,ed:35:33:d3:6c:f8, 2015-01-01 03:56:52.465, 0.283, 0.182, 0.938, -0.427, 0.061, -0.427, 11.047, -16.375, 158.868, -7.280, -14.187, -32.160, 24.63, 0.16757, 0.15692, 0.0676, 0.97089,
 17:36:01.818,ed:35:33:d3:6c:f8, 2015-01-01 03:56:52.465, 0.281, 0.185, 0.937, 0.061, 0.549, -0.122, 11.047, -16.364, 158.89, -7.280, -14.187, -32.160, 24.63, 0.16757, 0.15692, 0.0676, 0.97089,
 17:36:01.818,ed:35:33:d3:6c:f8, 2015-01-01 03:56:52.465, 0.283, 0.182, 0.938, -0.427, 0.061, -0.427, 11.047, -16.375, 158.868, -7.280, -14.187, -32.160, 24.63, 0.16757, 0.15692, 0.0676, 0.97089,
 17:36:01.821,f6:90:cc:01:6d:25, 2015-01-01 03:57:03.245, 0.887, -0.066, 0.432, -0.183, 0, 0, -8.745, -63.776, -146.821, -28.827, -9.093, -8.867, 29.16, 0.20444, -0.5231, -0.08899, -0.82251,
 17:36:01.821,f6:90:cc:01:6d:25, 2015-01-01 03:57:03.245, 0.888, -0.066, 0.431, -0.061, 0, 0, -8.751, -63.776, -146.832, -28.827, -9.093, -8.867, 29.16, 0.20444, -0.5231, -0.08899, -0.82251,
 17:36:01.821,f6:90:cc:01:6d:25, 2015-01-01 03:57:03.245, 0.887, -0.066, 0.432, -0.122, 0, 0, -8.751, -63.776, -146.843, -28.827, -9.093, -8.867, 29.16, 0.20444, -0.5231, -0.08899, -0.82251,
 17:36:01.821,f6:90:cc:01:6d:25, 2015-01-01 03:57:03.245, 0.888, -0.066, 0.431, -0.061, 0, 0, -8.751, -63.776, -146.832, -28.827, -9.093, -8.867, 29.16, 0.20444, -0.5231, -0.08899, -0.82251,
 17:36:01.821,f6:90:cc:01:6d:25, 2015-01-01 03:57:03.245, 0.887, -0.066, 0.432, -0.122, 0, 0, -8.751, -63.776, -146.843, -28.827, -9.093, -8.867, 29.16, 0.20444, -0.5231, -0.08899, -0.82251,
 17:36:01.821,f6:90:cc:01:6d:25, 2015-01-01 03:57:03.245, 0.888, -0.066, 0.431, -0.061, 0, 0, -8.751, -63.776, -146.832, -28.827, -9.093, -8.867, 29.16, 0.20297, -0.5231, -0.08899, -0.82251,
 17:36:01.844,ed:40:fe:65:30:6c, 2015-01-01 03:57:16.865, 0.465, 0.112, 0.88, 0.061, -0.183, -0.122, 7.267, -27.565, -136.824, -15.773, -11.447, -6.827, 25.41, -0.37054, 0.19839, 0.14474, 0.89569,
 17:36:01.844,ed:40:fe:65:30:6c, 2015-01-01 03:57:16.865, 0.463, 0.111, 0.879, 0.244, -0.244, -0.122, 7.273, -27.57, -136.818, -15.773, -11.447, -6.827, 25.41, -0.37054, 0.19839, 0.14474, 0.89569,
 17:36:01.844,ed:40:fe:65:30:6c, 2015-01-01 03:57:16.865, 0.465, 0.112, 0.88, -0.183, -0.061, -0.122, 7.278, -27.57, -136.813, -15.773, -11.447, -6.827, 25.41, -0.37054, 0.19839, 0.14474, 0.89569,
 17:36:01.844,ed:40:fe:65:30:6c, 2015-01-01 03:57:16.865, 0.463, 0.111, 0.879, 0.244, -0.244, -0.122, 7.273, -27.57, -136.818, -15.773, -11.447, -6.827, 25.41, -0.37054, 0.19839, 0.14474, 0.89569,
 17:36:01.844,ed:40:fe:65:30:6c, 2015-01-01 03:57:16.865, 0.465, 0.112, 0.88, -0.183, -0.061, -0.122, 7.278, -27.57, -136.813, -15.773, -11.447, -6.827, 25.41, -0.37054, 0.19839, 0.14474, 0.89569,
 17:36:01.844,ed:40:fe:65:30:6c, 2015-01-01 03:57:16.865, 0.463, 0.111, 0.879, 0.244, -0.244, -0.122, 7.273, -27.57, -136.818, -15.773, -11.447, -6.827, 25.41, -0.37054, 0.19839, 0.14474, 0.89569,
 17:36:01.848,ed:35:33:d3:6c:f8, 2015-01-01 03:56:52.465, 0.282, 0.185, 0.937, 0.061, 0.549, -0.122, 11.047, -16.364, 158.89, -7.280, -14.187, -32.160, 24.63, 0.16757, 0.15692, 0.0676, 0.97089,
 17:36:01.848,ed:35:33:d3:6c:f8, 2015-01-01 03:56:52.465, 0.281, 0.183, 0.941, 0.244, 0.61, -0.061, 11.052, -16.353, 158.895, -7.280, -14.187, -32.160, 24.63, 0.16757, 0.15692, 0.0676, 0.97089,
 17:36:01.848,ed:35:33:d3:6c:f8, 2015-01-01 03:56:52.465, 0.282, 0.183, 0.938, -0.244, 0.549, -1.038, 11.052, -16.342, 158.89, -7.280, -14.187, -32.160, 24.63, 0.16757, 0.15692, 0.0676, 0.97089,
 17:36:01.848,ed:35:33:d3:6c:f8, 2015-01-01 03:56:52.465, 0.281, 0.183, 0.941, 0.244, 0.61, -0.061, 11.052, -16.353, 158.895, -7.280, -14.187, -32.160, 24.63, 0.16757, 0.15692, 0.0676, 0.97089,
 17:36:01.848,ed:35:33:d3:6c:f8, 2015-01-01 03:56:52.465, 0.282, 0.183, 0.938, -0.244, 0.549, -1.038, 11.052, -16.342, 158.89, -7.280, -14.187, -32.160, 24.63, 0.16757, 0.15692, 0.0676, 0.97089,
 17:36:01.848,ed:35:33:d3:6c:f8, 2015-01-01 03:56:52.465, 0.281, 0.183, 0.941, 0.244, 0.61, -0.061, 11.052, -16.353, 158.895, -7.280, -14.187, -32.160, 24.63, 0.16757, 0.15692, 0.0676, 0.97089,
 17:36:01.850,f6:90:cc:01:6d:25, 2015-01-01 03:57:03.245, 0.888, -0.066, 0.432, -0.122, 0, 0, -8.751, -63.776, -146.843, -28.827, -9.093, -8.867, 29.16, 0.20297, -0.52328, -0.08823, -0.82285,
 17:36:01.850,f6:90:cc:01:6d:25, 2015-01-01 03:57:03.245, 0.888, -0.067, 0.433, -0.122, 0, 0, -8.751, -63.776, -146.854, -28.827, -9.093, -8.867, 29.16, 0.20297, -0.52328, -0.08823, -0.82285,
 17:36:01.850,f6:90:cc:01:6d:25, 2015-01-01 03:57:03.245, 0.888, -0.067, 0.431, 0.122, 0.122, 0, -8.751, -63.776, -146.865, -28.827, -9.093, -8.867, 29.16, 0.20297, -0.52328, -0.08823, -0.82285,
 17:36:01.850,f6:90:cc:01:6d:25, 2015-01-01 03:57:03.245, 0.888, -0.067, 0.433, -0.122, 0, 0, -8.751, -63.776, -146.854, -28.827, -9.093, -8.867, 29.16, 0.20297, -0.52328, -0.08823, -0.82285,
 17:36:01.850,f6:90:cc:01:6d:25, 2015-01-01 03:57:03.245, 0.888, -0.067, 0.431, 0.122, 0.122, 0, -8.751, -63.776, -146.865, -28.827, -9.093, -8.867, 29.16, 0.20297, -0.52328, -0.08823, -0.82285,
 17:36:01.850,f6:90:cc:01:6d:25, 2015-01-01 03:57:03.245, 0.888, -0.067, 0.433, -0.122, 0, 0, -8.751, -63.776, -146.854, -28.827, -9.093, -8.867, 29.16, 0.20297, -0.52328, -0.08823, -0.82285,
 17:36:01.870,e3:ca:2d:fd:e0:8c, 2015-01-01 03:57:11.600, 0.97, 0.024, 0.319, -0.366, -0.122, 0, 4.169, -71.84, 152.693, -25.133, -10.073, -12.707, 26.15, -0.17026, -0.57663, 0.10971, -0.79144,
 17:36:01.870,e3:ca:2d:fd:e0:8c, 2015-01-01 03:57:11.600, 0.969, 0.022, 0.318, -0.244, -0.122, 0, 4.169, -71.84, 152.693, -25.133, -10.073, -12.707, 26.15, -0.17026, -0.57663, 0.10971, -0.79144,
 17:36:01.870,e3:ca:2d:fd:e0:8c, 2015-01-01 03:57:11.600, 0.97, 0.023, 0.318, -0.122, 0, 0, 4.169, -71.84, 152.693, -25.133, -10.073, -12.707, 26.15, -0.17026, -0.57663, 0.10971, -0.79144,
 17:36:01.870,e3:ca:2d:fd:e0:8c, 2015-01-01 03:57:11.600, 0.969, 0.022, 0.318, -0.244, -0.122, 0, 4.169, -71.84, 152.693, -25.133, -10.073, -12.707, 26.15, -0.17026, -0.57663, 0.10971, -0.79144,
 17:36:01.870,e3:ca:2d:fd:e0:8c, 2015-01-01 03:57:11.600, 0.97, 0.023, 0.318, -0.122, 0, 0, 4.169, -71.84, 152.693, -25.133, -10.073, -12.707, 26.15, -0.17026, -0.57663, 0.10971, -0.79144,
 17:36:01.870,e3:ca:2d:fd:e0:8c, 2015-01-01 03:57:11.600, 0.969, 0.022, 0.318, -0.244, -0.122, 0, 4.169, -71.84, 152.693, -25.133, -10.073, -12.707, 26.15, -0.17026, -0.57663, 0.10971, -0.79144,
 17:36:01.874,ed:40:fe:65:30:6c, 2015-01-01 03:57:16.865, 0.463, 0.112, 0.88, -0.183, -0.061, -0.122, 7.278, -27.57, -136.813, -15.773, -11.447, -6.827, 25.41, -0.37054, 0.19839, 0.14474, 0.89569,
 17:36:01.874,ed:40:fe:65:30:6c, 2015-01-01 03:57:16.865, 0.463, 0.113, 0.88, -0.183, 0, -0.122, 7.273, -27.57, -136.807, -15.773, -11.447, -6.827, 25.41, -0.37054, 0.19839, 0.14474, 0.89569,
 17:36:01.874,ed:40:fe:65:30:6c, 2015-01-01 03:57:16.865, 0.463, 0.114, 0.88, 0, -0.122, 0, 7.273, -27.57, -136.796, -15.773, -11.447, -6.827, 25.41, -0.37054, 0.19839, 0.14474, 0.89569,
 17:36:01.874,ed:40:fe:65:30:6c, 2015-01-01 03:57:16.865, 0.463, 0.113, 0.88, -0.183, 0, -0.122, 7.273, -27.57, -136.807, -15.773, -11.447, -6.827, 25.41, -0.37054, 0.19839, 0.14474, 0.89569,
 17:36:01.874,ed:40:fe:65:30:6c, 2015-01-01 03:57:16.865, 0.463, 0.114, 0.88, 0, -0.122, 0, 7.273, -27.57, -136.796, -15.773, -11.447, -6.827, 25.41, -0.37054, 0.19839, 0.14474, 0.89569,
 17:36:01.874,ed:40:fe:65:30:6c, 2015-01-01 03:57:16.865, 0.463, 0.113, 0.88, -0.183, 0, -0.122, 7.273, -27.57, -136.807, -15.773, -11.447, -6.827, 25.41, -0.37054, 0.19839, 0.14474, 0.89569,
 17:36:01.881,f6:90:cc:01:6d:25, 2015-01-01 03:57:03.245, 0.887, -0.067, 0.431, 0.122, 0.122, 0, -8.751, -63.776, -146.865, -28.827, -9.093, -8.867, 29.16, 0.20297, -0.52328, -0.08823, -0.82285,
 17:36:01.881,f6:90:cc:01:6d:25, 2015-01-01 03:57:03.245, 0.887, -0.066, 0.431, 0.122, 0.244, 0, -8.751, -63.77, -146.876, -28.827, -9.093, -8.867, 29.16, 0.20297, -0.52328, -0.08823, -0.82285,
 17:36:01.881,f6:90:cc:01:6d:25, 2015-01-01 03:57:03.245, 0.887, -0.067, 0.43, 0, 0.244, 0, -8.745, -63.765, -146.893, -28.827, -9.093, -8.867, 29.16, 0.20297, -0.52328, -0.08823, -0.82285,
 17:36:01.881,f6:90:cc:01:6d:25, 2015-01-01 03:57:03.245, 0.887, -0.066, 0.431, 0.122, 0.244, 0, -8.751, -63.77, -146.876, -28.827, -9.093, -8.867, 29.16, 0.20297, -0.52328, -0.08823, -0.82285,
 17:36:01.881,f6:90:cc:01:6d:25, 2015-01-01 03:57:03.245, 0.887, -0.067, 0.43, 0, 0.244, 0, -8.745, -63.765, -146.893, -28.827, -9.093, -8.867, 29.16, 0.20297, -0.52328, -0.08823, -0.82285,
 17:36:01.881,f6:90:cc:01:6d:25, 2015-01-01 03:57:03.245, 0.887, -0.066, 0.431, 0.122, 0.244, 0, -8.751, -63.77, -146.876, -28.827, -9.093, -8.867, 29.16, 0.20297, -0.52328, -0.08823, -0.82285,
 17:36:01.900,e3:ca:2d:fd:e0:8c, 2015-01-01 03:57:11.960, 0.969, 0.023, 0.318, -0.122, 0, 0, 4.169, -71.84, 152.693, -25.133, -10.073, -12.707, 26.15, -0.17026, -0.57663, 0.10971, -0.79144,
 17:36:01.900,e3:ca:2d:fd:e0:8c, 2015-01-01 03:57:11.960, 0.97, 0.024, 0.316, -0.122, 0, 0, 4.169, -71.84, 152.693, -25.133, -10.073, -12.707, 26.15, -0.17026, -0.57663, 0.10971, -0.79144,
 17:36:01.900,e3:ca:2d:fd:e0:8c, 2015-01-01 03:57:11.960, 0.969, 0.024, 0.316, -0.061, 0.122, 0, 4.175, -71.84, 152.693, -25.133, -10.073, -12.707, 26.15, -0.17026, -0.57663, 0.10971, -0.79144,
 17:36:01.900,e3:ca:2d:fd:e0:8c, 2015-01-01 03:57:11.960, 0.97, 0.024, 0.316, -0.122, 0, 0, 4.169, -71.84, 152.693, -25.133, -10.073, -12.707, 26.15, -0.17026, -0.57663, 0.10971, -0.79144,
 17:36:01.900,e3:ca:2d:fd:e0:8c, 2015-01-01 03:57:11.960, 0.969, 0.024, 0.316, -0.061, 0.122, 0, 4.175, -71.84, 152.693, -25.133, -10.073, -12.707, 26.15, -0.17026, -0.57663, 0.10971, -0.79144,
 17:36:01.900,e3:ca:2d:fd:e0:8c, 2015-01-01 03:57:11.960, 0.97, 0.024, 0.316, -0.122, 0, 0, 4.169, -71.84, 152.693, -25.133, -10.073, -12.707, 26.15, -0.17026, -0.57663, 0.10971, -0.79144,
 17:36:01.908,ed:35:33:d3:6c:f8, 2015-01-01 03:56:52.465, 0.281, 0.183, 0.938, -0.244, 0.549, -1.038, 11.052, -16.342, 158.89, -7.280, -14.187, -32.160, 24.63, 0.16757, 0.15692, 0.0676, 0.97089,
 17:36:01.908,ed:35:33:d3:6c:f8, 2015-01-01 03:56:52.465, 0.282, 0.188, 0.938, -0.244, 0.305, -0.488, 11.052, -16.331, 158.89, -7.280, -14.187, -32.160, 24.63, 0.16757, 0.15692, 0.0676, 0.97089,
 17:36:01.908,ed:35:33:d3:6c:f8, 2015-01-01 03:56:52.465, 0.281, 0.186, 0.938, 0.549, 0.366, -0.061, 11.058, -16.326, 158.89, -7.280, -14.187, -32.160, 24.63, 0.16757, 0.15692, 0.0676, 0.97089,
 17:36:01.908,ed:35:33:d3:6c:f8, 2015-01-01 03:56:52.465, 0.282, 0.188, 0.938, -0.244, 0.305, -0.488, 11.052, -16.331, 158.89, -7.280, -14.187, -32.160, 24.63, 0.16757, 0.15692, 0.0676, 0.97089,
 17:36:01.908,ed:35:33:d3:6c:f8, 2015-01-01 03:56:52.465, 0.281, 0.186, 0.938, 0.549, 0.366, -0.061, 11.058, -16.326, 158.89, -7.280, -14.187, -32.160, 24.63, 0.16757, 0.15692, 0.0676, 0.97089,
 17:36:01.908,ed:35:33:d3:6c:f8, 2015-01-01 03:56:52.465, 0.282, 0.188, 0.938, -0.244, 0.305, -0.488, 11.052, -16.331, 158.89, -7.280, -14.187, -32.160, 24.63, 0.16757, 0.15692, 0.0676, 0.97089,
 17:36:01.910,f6:90:cc:01:6d:25, 2015-01-01 03:57:03.245, 0.887, -0.067, 0.43, 0, 0.244, 0, -8.745, -63.765, -146.893, -28.827, -9.093, -8.867, 29.16, 0.20297, -0.52328, -0.08823, -0.82285,
 17:36:01.910,f6:90:cc:01:6d:25, 2015-01-01 03:57:03.245, 0.886, -0.066, 0.43, 0, 0.305, 0, -8.745, -63.765, -146.904, -28.827, -9.093, -8.867, 29.16, 0.20297, -0.52328, -0.08823, -0.82285,
 17:36:01.910,f6:90:cc:01:6d:25, 2015-01-01 03:57:03.245, 0.887, -0.067, 0.43, 0, 0.305, 0, -8.74, -63.759, -146.915, -28.827, -9.093, -8.867, 29.16, 0.20297, -0.52328, -0.08823, -0.82285,
 17:36:01.910,f6:90:cc:01:6d:25, 2015-01-01 03:57:03.245, 0.886, -0.066, 0.43, 0, 0.305, 0, -8.745, -63.765, -146.904, -28.827, -9.093, -8.867, 29.16, 0.20297, -0.52328, -0.08823, -0.82285,
 17:36:01.910,f6:90:cc:01:6d:25, 2015-01-01 03:57:03.245, 0.887, -0.067, 0.43, 0, 0.305, 0, -8.74, -63.759, -146.915, -28.827, -9.093, -8.867, 29.16, 0.20297, -0.52328, -0.08823, -0.82285,
 17:36:01.910,f6:90:cc:01:6d:25, 2015-01-01 03:57:03.245, 0.886, -0.066, 0.43, 0, 0.305, 0, -8.745, -63.765, -146.904, -28.827, -9.093, -8.867, 29.16, 0.20297, -0.52328, -0.08823, -0.82285,
 17:36:01.931,e3:ca:2d:fd:e0:8c, 2015-01-01 03:57:11.960, 0.968, 0.024, 0.316, -0.061, 0.122, 0, 4.175, -71.84, 152.693, -25.133, -10.073, -12.707, 26.15, -0.17026, -0.57663, 0.10971, -0.79144,
 17:36:01.931,e3:ca:2d:fd:e0:8c, 2015-01-01 03:57:11.960, 0.969, 0.025, 0.315, -0.061, 0.122, 0, 4.175, -71.834, 152.699, -25.133, -10.073, -12.707, 26.15, -0.17026, -0.57663, 0.10971, -0.79144,
 17:36:01.931,e3:ca:2d:fd:e0:8c, 2015-01-01 03:57:11.960, 0.968, 0.025, 0.315, -0.061, 0.061, 0, 4.175, -71.834, 152.699, -25.133, -10.073, -12.707, 26.15, -0.17026, -0.57663, 0.10971, -0.79144,
 17:36:01.931,e3:ca:2d:fd:e0:8c, 2015-01-01 03:57:11.960, 0.969, 0.025, 0.315, -0.061, 0.122, 0, 4.175, -71.834, 152.699, -25.133, -10.073, -12.707, 26.15, -0.17026, -0.57663, 0.10971, -0.79144,
 17:36:01.931,e3:ca:2d:fd:e0:8c, 2015-01-01 03:57:11.960, 0.968, 0.025, 0.315, -0.061, 0.061, 0, 4.175, -71.834, 152.699, -25.133, -10.073, -12.707, 26.15, -0.17026, -0.57663, 0.10971, -0.79144,
 17:36:01.931,e3:ca:2d:fd:e0:8c, 2015-01-01 03:57:11.960, 0.969, 0.025, 0.315, -0.061, 0.122, 0, 4.175, -71.834, 152.699, -25.133, -10.073, -12.707, 26.15, -0.17026, -0.57663, 0.10971, -0.79144,
 17:36:01.935,ed:40:fe:65:30:6c, 2015-01-01 03:57:17.220, 0.463, 0.114, 0.88, 0, -0.122, 0, 7.273, -27.57, -136.796, -15.773, -11.447, -6.827, 25.41, -0.37054, 0.19839, 0.14474, 0.89569,
 17:36:01.935,ed:40:fe:65:30:6c, 2015-01-01 03:57:17.220, 0.462, 0.112, 0.879, 0, -0.183, 0, 7.273, -27.576, -136.791, -15.773, -11.447, -6.827, 25.41, -0.37054, 0.19839, 0.14474, 0.89569,
 17:36:01.935,ed:40:fe:65:30:6c, 2015-01-01 03:57:17.220, 0.463, 0.112, 0.88, 0, -0.061, 0, 7.273, -27.576, -136.78, -15.773, -11.447, -6.827, 25.41, -0.37054, 0.19839, 0.14474, 0.89569,
 17:36:01.935,ed:40:fe:65:30:6c, 2015-01-01 03:57:17.220, 0.462, 0.112, 0.879, 0, -0.183, 0, 7.273, -27.576, -136.791, -15.773, -11.447, -6.827, 25.41, -0.37054, 0.19839, 0.14474, 0.89569,
 17:36:01.935,ed:40:fe:65:30:6c, 2015-01-01 03:57:17.220, 0.463, 0.112, 0.88, 0, -0.061, 0, 7.273, -27.576, -136.78, -15.773, -11.447, -6.827, 25.41, -0.37054, 0.19839, 0.14474, 0.89569,
 17:36:01.935,ed:40:fe:65:30:6c, 2015-01-01 03:57:17.220, 0.462, 0.112, 0.879, 0, -0.183, 0, 7.273, -27.576, -136.791, -15.773, -11.447, -6.827, 25.41, -0.37054, 0.19839, 0.14474, 0.89569,
 17:36:01.938,ed:35:33:d3:6c:f8, 2015-01-01 03:56:52.465, 0.282, 0.186, 0.938, 0.549, 0.366, -0.061, 11.058, -16.326, 158.89, -7.280, -14.187, -32.160, 24.63, 0.16757, 0.15692, 0.0676, 0.97089,
 17:36:01.938,ed:35:33:d3:6c:f8, 2015-01-01 03:56:52.465, 0.279, 0.184, 0.939, 0.305, 0.671, -0.488, 11.069, -16.315, 158.873, -7.280, -14.187, -32.160, 24.63, 0.16757, 0.15692, 0.0676, 0.97089,
 17:36:01.938,ed:35:33:d3:6c:f8, 2015-01-01 03:56:52.465, 0.282, 0.186, 0.94, 0, 0.061, 0, 11.069, -16.309, 158.851, -7.280, -14.187, -32.160, 24.63, 0.16757, 0.15692, 0.0676, 0.97089,
 17:36:01.938,ed:35:33:d3:6c:f8, 2015-01-01 03:56:52.465, 0.279, 0.184, 0.939, 0.305, 0.671, -0.488, 11.069, -16.315, 158.873, -7.280, -14.187, -32.160, 24.63, 0.16757, 0.15692, 0.0676, 0.97089,
 17:36:01.938,ed:35:33:d3:6c:f8, 2015-01-01 03:56:52.465, 0.282, 0.186, 0.94, 0, 0.061, 0, 11.069, -16.309, 158.851, -7.280, -14.187, -32.160, 24.63, 0.16757, 0.15692, 0.0676, 0.97089,
 17:36:01.938,ed:35:33:d3:6c:f8, 2015-01-01 03:56:52.465, 0.279, 0.184, 0.939, 0.305, 0.671, -0.488, 11.069, -16.315, 158.873, -7.280, -14.187, -32.160, 24.63, 0.16757, 0.15692, 0.0676, 0.97089,
 17:36:01.964,ed:40:fe:65:30:6c, 2015-01-01 03:57:17.220, 0.462, 0.112, 0.88, 0, -0.061, 0, 7.273, -27.576, -136.78, -15.773, -11.447, -6.827, 25.41, -0.37054, 0.19839, 0.14474, 0.89569,
 17:36:01.964,ed:40:fe:65:30:6c, 2015-01-01 03:57:17.220, 0.463, 0.112, 0.88, 0, -0.122, 0, 7.273, -27.581, -136.769, -15.773, -11.447, -6.827, 25.41, -0.37054, 0.19839, 0.14474, 0.89569,
 17:36:01.964,ed:40:fe:65:30:6c, 2015-01-01 03:57:17.220, 0.462, 0.111, 0.88, 0, -0.305, 0, 7.273, -27.581, -136.763, -15.773, -11.447, -6.827, 25.41, -0.37054, 0.19839, 0.14474, 0.89569,
 17:36:01.964,ed:40:fe:65:30:6c, 2015-01-01 03:57:17.220, 0.463, 0.112, 0.88, 0, -0.122, 0, 7.273, -27.581, -136.769, -15.773, -11.447, -6.827, 25.41, -0.37054, 0.19839, 0.14474, 0.89569,
 17:36:01.964,ed:40:fe:65:30:6c, 2015-01-01 03:57:17.220, 0.462, 0.111, 0.88, 0, -0.305, 0, 7.273, -27.581, -136.763, -15.773, -11.447, -6.827, 25.41, -0.37054, 0.19839, 0.14474, 0.89569,
 17:36:01.964,ed:40:fe:65:30:6c, 2015-01-01 03:57:17.220, 0.463, 0.112, 0.88, 0, -0.122, 0, 7.273, -27.581, -136.769, -15.773, -11.447, -6.827, 25.41, -0.37054, 0.19839, 0.14474, 0.89569,
 17:36:01.968,ed:35:33:d3:6c:f8, 2015-01-01 03:56:52.465, 0.279, 0.186, 0.94, 0, 0.061, 0, 11.069, -16.309, 158.851, -7.280, -14.187, -32.160, 24.63, 0.16757, 0.15692, 0.0676, 0.97089,
 17:36:01.968,ed:35:33:d3:6c:f8, 2015-01-01 03:56:52.465, 0.281, 0.185, 0.94, 0.183, 0.427, 0.122, 11.074, -16.304, 158.84, -7.280, -14.187, -32.160, 24.63, 0.16757, 0.15692, 0.0676, 0.97089,
 17:36:01.968,ed:35:33:d3:6c:f8, 2015-01-01 03:56:52.465, 0.279, 0.184, 0.939, 0.366, 0.61, 0.061, 11.08, -16.293, 158.813, -7.280, -14.187, -32.160, 24.63, 0.16757, 0.15692, 0.0676, 0.97089,
 17:36:01.968,ed:35:33:d3:6c:f8, 2015-01-01 03:56:52.465, 0.281, 0.185, 0.94, 0.183, 0.427, 0.122, 11.074, -16.304, 158.84, -7.280, -14.187, -32.160, 24.63, 0.16757, 0.15692, 0.0676, 0.97089,
 17:36:01.968,ed:35:33:d3:6c:f8, 2015-01-01 03:56:52.465, 0.279, 0.184, 0.939, 0.366, 0.61, 0.061, 11.08, -16.293, 158.813, -7.280, -14.187, -32.160, 24.63, 0.16757, 0.15692, 0.0676, 0.97089,
 17:36:01.968,ed:35:33:d3:6c:f8, 2015-01-01 03:56:52.465, 0.281, 0.185, 0.94, 0.183, 0.427, 0.122, 11.074, -16.304, 158.84, -7.280, -14.187, -32.160, 24.63, 0.16757, 0.15692, 0.0676, 0.97089,
 17:36:01.970,f6:90:cc:01:6d:25, 2015-01-01 03:57:03.245, 0.886, -0.067, 0.43, 0, 0.305, 0, -8.74, -63.759, -146.915, -28.827, -9.093, -8.867, 29.16, 0.20297, -0.52328, -0.08823, -0.82285,
 17:36:01.970,f6:90:cc:01:6d:25, 2015-01-01 03:57:03.245, 0.887, -0.065, 0.43, -0.122, 0.244, 0, -8.74, -63.754, -146.926, -28.827, -9.093, -8.867, 29.16, 0.20297, -0.52328, -0.08823, -0.82285,
 17:36:01.970,f6:90:cc:01:6d:25, 2015-01-01 03:57:03.245, 0.886, -0.066, 0.431, -0.061, 0.183, 0, -8.745, -63.748, -146.942, -28.827, -9.093, -8.867, 29.16, 0.20297, -0.52328, -0.08823, -0.82285,
 17:36:01.970,f6:90:cc:01:6d:25, 2015-01-01 03:57:03.245, 0.887, -0.065, 0.43, -0.122, 0.244, 0, -8.74, -63.754, -146.926, -28.827, -9.093, -8.867, 29.16, 0.20297, -0.52328, -0.08823, -0.82285,
 17:36:01.970,f6:90:cc:01:6d:25, 2015-01-01 03:57:03.245, 0.886, -0.066, 0.431, -0.061, 0.183, 0, -8.745, -63.748, -146.942, -28.827, -9.093, -8.867, 29.16, 0.20297, -0.52328, -0.08823, -0.82285,
 17:36:01.970,f6:90:cc:01:6d:25, 2015-01-01 03:57:03.245, 0.887, -0.065, 0.43, -0.122, 0.244, 0, -8.74, -63.754, -146.926, -28.827, -9.093, -8.867, 29.16, 0.20297, -0.52328, -0.08823, -0.82285,
 17:36:01.991,e3:ca:2d:fd:e0:8c, 2015-01-01 03:57:11.960, 0.969, 0.025, 0.315, -0.061, 0.061, 0, 4.175, -71.834, 152.699, -25.133, -10.073, -12.707, 26.15, -0.17026, -0.57663, 0.10971, -0.79144,
 17:36:01.991,e3:ca:2d:fd:e0:8c, 2015-01-01 03:57:11.960, 0.97, 0.025, 0.315, -0.061, 0, 0, 4.18, -71.834, 152.699, -25.133, -10.073, -12.707, 26.15, -0.17026, -0.57663, 0.10971, -0.79144,
 17:36:01.991,e3:ca:2d:fd:e0:8c, 2015-01-01 03:57:11.960, 0.969, 0.025, 0.314, -0.061, -0.061, 0, 4.18, -71.834, 152.699, -25.133, -10.073, -12.707, 26.15, -0.17026, -0.57663, 0.10971, -0.79144,
 17:36:01.991,e3:ca:2d:fd:e0:8c, 2015-01-01 03:57:11.960, 0.97, 0.025, 0.315, -0.061, 0, 0, 4.18, -71.834, 152.699, -25.133, -10.073, -12.707, 26.15, -0.17026, -0.57663, 0.10971, -0.79144,
 17:36:01.991,e3:ca:2d:fd:e0:8c, 2015-01-01 03:57:11.960, 0.969, 0.025, 0.314, -0.061, -0.061, 0, 4.18, -71.834, 152.699, -25.133, -10.073, -12.707, 26.15, -0.17026, -0.57663, 0.10971, -0.79144,
 17:36:01.991,e3:ca:2d:fd:e0:8c, 2015-01-01 03:57:11.960, 0.97, 0.025, 0.315, -0.061, 0, 0, 4.18, -71.834, 152.699, -25.133, -10.073, -12.707, 26.15, -0.17026, -0.57663, 0.10971, -0.79144,
 17:36:01.995,ed:40:fe:65:30:6c, 2015-01-01 03:57:17.220, 0.463, 0.111, 0.88, 0, -0.305, 0, 7.273, -27.581, -136.763, -15.773, -11.447, -6.827, 25.41, -0.37054, 0.19839, 0.14474, 0.89569,
 17:36:01.995,ed:40:fe:65:30:6c, 2015-01-01 03:57:17.220, 0.464, 0.11, 0.879, 0, -0.183, 0, 7.273, -27.587, -136.752, -15.773, -11.447, -6.827, 25.41, -0.37054, 0.19839, 0.14474, 0.89569,
 17:36:01.995,ed:40:fe:65:30:6c, 2015-01-01 03:57:17.220, 0.463, 0.112, 0.881, 0, 0, 0, 7.273, -27.587, -136.747, -15.773, -11.447, -6.827, 25.41, -0.37054, 0.19839, 0.14474, 0.89569,
 17:36:01.995,ed:40:fe:65:30:6c, 2015-01-01 03:57:17.220, 0.464, 0.11, 0.879, 0, -0.183, 0, 7.273, -27.587, -136.752, -15.773, -11.447, -6.827, 25.41, -0.37054, 0.19839, 0.14474, 0.89569,
 17:36:01.995,ed:40:fe:65:30:6c, 2015-01-01 03:57:17.220, 0.463, 0.112, 0.881, 0, 0, 0, 7.273, -27.587, -136.747, -15.773, -11.447, -6.827, 25.41, -0.37054, 0.19839, 0.14474, 0.89569,
 17:36:01.995,ed:40:fe:65:30:6c, 2015-01-01 03:57:17.220, 0.464, 0.11, 0.879, 0, -0.183, 0, 7.273, -27.587, -136.752, -15.773, -11.447, -6.827, 25.41, -0.37054, 0.19839, 0.14474, 0.89569,
 17:36:02.001,f6:90:cc:01:6d:25, 2015-01-01 03:57:03.245, 0.887, -0.066, 0.431, -0.061, 0.183, 0, -8.745, -63.748, -146.942, -28.827, -9.093, -8.867, 29.16, 0.20297, -0.52328, -0.08823, -0.82285,
 17:36:02.001,f6:90:cc:01:6d:25, 2015-01-01 03:57:03.245, 0.888, -0.067, 0.43, 0, 0.122, 0, -8.745, -63.748, -146.953, -28.827, -9.093, -8.867, 29.16, 0.20297, -0.52328, -0.08823, -0.82285,
 17:36:02.001,f6:90:cc:01:6d:25, 2015-01-01 03:57:03.245, 0.887, -0.066, 0.43, 0, 0.061, 0, -8.745, -63.748, -146.964, -28.827, -9.093, -8.867, 29.16, 0.20297, -0.52328, -0.08823, -0.82285,
 17:36:02.001,f6:90:cc:01:6d:25, 2015-01-01 03:57:03.245, 0.888, -0.067, 0.43, 0, 0.122, 0, -8.745, -63.748, -146.953, -28.827, -9.093, -8.867, 29.16, 0.20297, -0.52328, -0.08823, -0.82285,
 17:36:02.001,f6:90:cc:01:6d:25, 2015-01-01 03:57:03.245, 0.887, -0.066, 0.43, 0, 0.061, 0, -8.745, -63.748, -146.964, -28.827, -9.093, -8.867, 29.16, 0.20297, -0.52328, -0.08823, -0.82285,
 17:36:02.001,f6:90:cc:01:6d:25, 2015-01-01 03:57:03.245, 0.888, -0.067, 0.43, 0, 0.122, 0, -8.745, -63.748, -146.953, -28.827, -9.093, -8.867, 29.16, 0.20297, -0.52328, -0.08823, -0.82285,
 17:36:02.021,e3:ca:2d:fd:e0:8c, 2015-01-01 03:57:11.960, 0.969, 0.025, 0.314, -0.061, -0.061, 0, 4.18, -71.834, 152.699, -25.133, -10.073, -12.707, 26.15, -0.17026, -0.57663, 0.10971, -0.79144,
 17:36:02.021,e3:ca:2d:fd:e0:8c, 2015-01-01 03:57:11.960, 0.97, 0.025, 0.316, -0.183, 0, 0, 4.186, -71.834, 152.699, -25.133, -10.073, -12.707, 26.15, -0.17026, -0.57663, 0.10971, -0.79144,
 17:36:02.021,e3:ca:2d:fd:e0:8c, 2015-01-01 03:57:11.960, 0.969, 0.026, 0.316, -0.244, 0, 0, 4.186, -71.834, 152.704, -25.133, -10.073, -12.707, 26.15, -0.17026, -0.57663, 0.10971, -0.79144,
 17:36:02.021,e3:ca:2d:fd:e0:8c, 2015-01-01 03:57:11.960, 0.97, 0.025, 0.316, -0.183, 0, 0, 4.186, -71.834, 152.699, -25.133, -10.073, -12.707, 26.15, -0.17026, -0.57663, 0.10971, -0.79144,
 17:36:02.021,e3:ca:2d:fd:e0:8c, 2015-01-01 03:57:11.960, 0.969, 0.026, 0.316, -0.244, 0, 0, 4.186, -71.834, 152.704, -25.133, -10.073, -12.707, 26.15, -0.17026, -0.57663, 0.10971, -0.79144,
 17:36:02.021,e3:ca:2d:fd:e0:8c, 2015-01-01 03:57:11.960, 0.97, 0.025, 0.316, -0.183, 0, 0, 4.186, -71.834, 152.699, -25.133, -10.073, -12.707, 26.15, -0.17026, -0.57663, 0.10971, -0.79144,
 17:36:02.029,ed:35:33:d3:6c:f8, 2015-01-01 03:56:52.465, 0.28, 0.184, 0.939, 0.366, 0.61, 0.061, 11.08, -16.293, 158.813, -7.280, -14.187, -32.160, 24.63, 0.16757, 0.15692, 0.0676, 0.97089,
 17:36:02.029,ed:35:33:d3:6c:f8, 2015-01-01 03:56:52.465, 0.278, 0.184, 0.939, 0, 0.671, -0.061, 11.08, -16.282, 158.796, -7.280, -14.187, -32.160, 24.63, 0.16757, 0.15692, 0.0676, 0.97089,
 17:36:02.029,ed:35:33:d3:6c:f8, 2015-01-01 03:56:52.465, 0.28, 0.185, 0.941, -0.305, 0, 0.122, 11.074, -16.282, 158.785, -7.280, -14.187, -32.160, 24.63, 0.16757, 0.15692, 0.0676, 0.97089,
 17:36:02.029,ed:35:33:d3:6c:f8, 2015-01-01 03:56:52.465, 0.278, 0.184, 0.939, 0, 0.671, -0.061, 11.08, -16.282, 158.796, -7.280, -14.187, -32.160, 24.63, 0.16757, 0.15692, 0.0676, 0.97089,
 17:36:02.029,ed:35:33:d3:6c:f8, 2015-01-01 03:56:52.465, 0.28, 0.185, 0.941, -0.305, 0, 0.122, 11.074, -16.282, 158.785, -7.280, -14.187, -32.160, 24.63, 0.16757, 0.15692, 0.0676, 0.97089,
 17:36:02.029,ed:35:33:d3:6c:f8, 2015-01-01 03:56:52.465, 0.278, 0.184, 0.939, 0, 0.671, -0.061, 11.08, -16.282, 158.796, -7.280, -14.187, -32.160, 24.63, 0.16757, 0.15692, 0.0676, 0.97089,
 17:36:02.030,f6:90:cc:01:6d:25, 2015-01-01 03:57:03.245, 0.887, -0.066, 0.43, 0, 0.061, 0, -8.745, -63.748, -146.964, -28.827, -9.093, -8.867, 29.16, 0.20297, -0.52328, -0.08823, -0.82285,
 17:36:02.030,f6:90:cc:01:6d:25, 2015-01-01 03:57:03.245, 0.887, -0.065, 0.431, -0.122, 0.061, 0, -8.745, -63.743, -146.975, -28.827, -9.093, -8.867, 29.16, 0.20297, -0.52328, -0.08823, -0.82285,
 17:36:02.030,f6:90:cc:01:6d:25, 2015-01-01 03:57:03.245, 0.887, -0.066, 0.432, -0.183, 0.061, 0, -8.745, -63.743, -146.981, -28.827, -9.093, -8.867, 29.16, 0.20297, -0.52328, -0.08823, -0.82285,
 17:36:02.030,f6:90:cc:01:6d:25, 2015-01-01 03:57:03.245, 0.887, -0.065, 0.431, -0.122, 0.061, 0, -8.745, -63.743, -146.975, -28.827, -9.093, -8.867, 29.16, 0.20297, -0.52328, -0.08823, -0.82285,
 17:36:02.030,f6:90:cc:01:6d:25, 2015-01-01 03:57:03.245, 0.887, -0.066, 0.432, -0.183, 0.061, 0, -8.745, -63.743, -146.981, -28.827, -9.093, -8.867, 29.16, 0.20297, -0.52328, -0.08823, -0.82285,
 17:36:02.030,f6:90:cc:01:6d:25, 2015-01-01 03:57:03.245, 0.887, -0.065, 0.431, -0.122, 0.061, 0, -8.745, -63.743, -146.975, -28.827, -9.093, -8.867, 29.16, 0.20297, -0.52328, -0.08823, -0.82285,
 17:36:02.051,e3:ca:2d:fd:e0:8c, 2015-01-01 03:57:11.960, 0.97, 0.026, 0.316, -0.244, 0, 0, 4.186, -71.834, 152.704, -25.133, -10.073, -12.707, 26.15, -0.17026, -0.57663, 0.10971, -0.79144,
 17:36:02.051,e3:ca:2d:fd:e0:8c, 2015-01-01 03:57:11.960, 0.97, 0.025, 0.317, -0.183, 0, 0, 4.186, -71.84, 152.704, -25.133, -10.073, -12.707, 26.15, -0.17026, -0.57663, 0.10971, -0.79144,
 17:36:02.051,e3:ca:2d:fd:e0:8c, 2015-01-01 03:57:11.960, 0.97, 0.025, 0.318, -0.183, 0, 0, 4.186, -71.84, 152.704, -25.133, -10.073, -12.707, 26.15, -0.17026, -0.57663, 0.10971, -0.79144,
 17:36:02.051,e3:ca:2d:fd:e0:8c, 2015-01-01 03:57:11.960, 0.97, 0.025, 0.317, -0.183, 0, 0, 4.186, -71.84, 152.704, -25.133, -10.073, -12.707, 26.15, -0.17026, -0.57663, 0.10971, -0.79144,
 17:36:02.051,e3:ca:2d:fd:e0:8c, 2015-01-01 03:57:11.960, 0.97, 0.025, 0.318, -0.183, 0, 0, 4.186, -71.84, 152.704, -25.133, -10.073, -12.707, 26.15, -0.17026, -0.57663, 0.10971, -0.79144,
 17:36:02.051,e3:ca:2d:fd:e0:8c, 2015-01-01 03:57:11.960, 0.97, 0.025, 0.317, -0.183, 0, 0, 4.186, -71.84, 152.704, -25.133, -10.073, -12.707, 26.15, -0.17026, -0.57663, 0.10971, -0.79144,
 17:36:02.055,ed:40:fe:65:30:6c, 2015-01-01 03:57:17.220, 0.463, 0.112, 0.881, 0, 0, 0, 7.273, -27.587, -136.747, -15.773, -11.447, -6.827, 25.41, -0.37054, 0.19839, 0.14474, 0.89569,
 17:36:02.055,ed:40:fe:65:30:6c, 2015-01-01 03:57:17.220, 0.464, 0.114, 0.881, 0, 0, 0, 7.273, -27.587, -136.736, -15.773, -11.447, -6.827, 25.41, -0.37054, 0.19839, 0.14474, 0.89569,
 17:36:02.055,ed:40:fe:65:30:6c, 2015-01-01 03:57:17.220, 0.463, 0.114, 0.88, 0.122, -0.122, 0, 7.273, -27.587, -136.73, -15.773, -11.447, -6.827, 25.41, -0.37054, 0.19839, 0.14474, 0.89569,
 17:36:02.055,ed:40:fe:65:30:6c, 2015-01-01 03:57:17.220, 0.464, 0.114, 0.881, 0, 0, 0, 7.273, -27.587, -136.736, -15.773, -11.447, -6.827, 25.41, -0.37054, 0.19839, 0.14474, 0.89569,
 17:36:02.055,ed:40:fe:65:30:6c, 2015-01-01 03:57:17.220, 0.463, 0.114, 0.88, 0.122, -0.122, 0, 7.273, -27.587, -136.73, -15.773, -11.447, -6.827, 25.41, -0.37054, 0.19839, 0.14474, 0.89569,
 17:36:02.055,ed:40:fe:65:30:6c, 2015-01-01 03:57:17.220, 0.464, 0.114, 0.881, 0, 0, 0, 7.273, -27.587, -136.736, -15.773, -11.447, -6.827, 25.41, -0.37054, 0.19839, 0.14474, 0.89569,
 17:36:02.057,ed:35:33:d3:6c:f8, 2015-01-01 03:56:52.465, 0.279, 0.185, 0.941, -0.305, 0, 0.122, 11.074, -16.282, 158.785, -6.860, -13.913, -32.627, 24.63, 0.16757, 0.15692, 0.0676, 0.97089,
 17:36:02.057,ed:35:33:d3:6c:f8, 2015-01-01 03:56:52.465, 0.28, 0.187, 0.939, -0.061, -0.061, 0.183, 11.069, -16.282, 158.763, -6.860, -13.913, -32.627, 24.63, 0.16757, 0.15692, 0.0676, 0.97089,
 17:36:02.057,ed:35:33:d3:6c:f8, 2015-01-01 03:56:52.465, 0.279, 0.185, 0.94, 0.183, 0.061, 0, 11.074, -16.282, 158.752, -6.860, -13.913, -32.627, 24.63, 0.16757, 0.15692, 0.0676, 0.97089,
 17:36:02.057,ed:35:33:d3:6c:f8, 2015-01-01 03:56:52.465, 0.28, 0.187, 0.939, -0.061, -0.061, 0.183, 11.069, -16.282, 158.763, -6.860, -13.913, -32.627, 24.63, 0.16757, 0.15692, 0.0676, 0.97089,
 17:36:02.057,ed:35:33:d3:6c:f8, 2015-01-01 03:56:52.465, 0.279, 0.185, 0.94, 0.183, 0.061, 0, 11.074, -16.282, 158.752, -6.860, -13.913, -32.627, 24.63, 0.16757, 0.15692, 0.0676, 0.97089,
 17:36:02.057,ed:35:33:d3:6c:f8, 2015-01-01 03:56:52.465, 0.28, 0.187, 0.939, -0.061, -0.061, 0.183, 11.069, -16.282, 158.763, -6.860, -13.913, -32.627, 24.63, 0.16757, 0.15692, 0.0676, 0.97089,
 17:36:02.086,ed:40:fe:65:30:6c, 2015-01-01 03:57:17.220, 0.464, 0.114, 0.88, 0.122, -0.122, 0, 7.273, -27.587, -136.73, -15.773, -11.447, -6.827, 25.41, -0.37054, 0.19839, 0.14474, 0.89569,
 17:36:02.086,ed:40:fe:65:30:6c, 2015-01-01 03:57:17.220, 0.463, 0.113, 0.879, 0.061, -0.183, 0, 7.278, -27.592, -136.719, -15.773, -11.447, -6.827, 25.41, -0.37054, 0.19839, 0.14474, 0.89569,
 17:36:02.086,ed:40:fe:65:30:6c, 2015-01-01 03:57:17.220, 0.464, 0.112, 0.879, 0, -0.183, 0, 7.278, -27.598, -136.714, -15.773, -11.447, -6.827, 25.41, -0.37054, 0.19839, 0.14474, 0.89569,
 17:36:02.086,ed:40:fe:65:30:6c, 2015-01-01 03:57:17.220, 0.463, 0.113, 0.879, 0.061, -0.183, 0, 7.278, -27.592, -136.719, -15.773, -11.447, -6.827, 25.41, -0.37054, 0.19839, 0.14474, 0.89569,
 17:36:02.086,ed:40:fe:65:30:6c, 2015-01-01 03:57:17.220, 0.464, 0.112, 0.879, 0, -0.183, 0, 7.278, -27.598, -136.714, -15.773, -11.447, -6.827, 25.41, -0.37054, 0.19839, 0.14474, 0.89569,
 17:36:02.086,ed:40:fe:65:30:6c, 2015-01-01 03:57:17.220, 0.463, 0.113, 0.879, 0.061, -0.183, 0, 7.278, -27.592, -136.719, -15.773, -11.447, -6.827, 25.41, -0.37054, 0.19839, 0.14474, 0.89569,
 17:36:02.089,ed:35:33:d3:6c:f8, 2015-01-01 03:56:52.465, 0.282, 0.185, 0.94, 0.183, 0.061, 0, 11.074, -16.282, 158.752, -6.860, -13.913, -32.627, 24.63, 0.16757, 0.15692, 0.0676, 0.97089,
 17:36:02.089,ed:35:33:d3:6c:f8, 2015-01-01 03:56:52.465, 0.28, 0.184, 0.938, 0.183, 0.427, -0.366, 11.08, -16.271, 158.741, -6.860, -13.913, -32.627, 24.63, 0.16757, 0.15692, 0.0676, 0.97089,
 17:36:02.089,ed:35:33:d3:6c:f8, 2015-01-01 03:56:52.465, 0.282, 0.185, 0.938, 0, 0.671, -0.305, 11.085, -16.26, 158.714, -6.860, -13.913, -32.627, 24.63, 0.16757, 0.15692, 0.0676, 0.97089,
 17:36:02.089,ed:35:33:d3:6c:f8, 2015-01-01 03:56:52.465, 0.28, 0.184, 0.938, 0.183, 0.427, -0.366, 11.08, -16.271, 158.741, -6.860, -13.913, -32.627, 24.63, 0.16757, 0.15692, 0.0676, 0.97089,
 17:36:02.089,ed:35:33:d3:6c:f8, 2015-01-01 03:56:52.465, 0.282, 0.185, 0.938, 0, 0.671, -0.305, 11.085, -16.26, 158.714, -6.860, -13.913, -32.627, 24.63, 0.16757, 0.15692, 0.0676, 0.97089,
 17:36:02.089,ed:35:33:d3:6c:f8, 2015-01-01 03:56:52.465, 0.28, 0.184, 0.938, 0.183, 0.427, -0.366, 11.08, -16.271, 158.741, -6.860, -13.913, -32.627, 24.63, 0.16757, 0.15692, 0.0676, 0.97089,
 17:36:02.092,f6:90:cc:01:6d:25, 2015-01-01 03:57:03.245, 0.887, -0.066, 0.432, -0.183, 0.061, 0, -8.745, -63.743, -146.981, -28.853, -9.113, -7.473, 29.16, 0.20297, -0.52328, -0.08823, -0.82285,
 17:36:02.092,f6:90:cc:01:6d:25, 2015-01-01 03:57:03.245, 0.886, -0.066, 0.433, -0.122, 0.122, 0, -8.751, -63.743, -146.992, -28.853, -9.113, -7.473, 29.16, 0.20297, -0.52328, -0.08823, -0.82285,
 17:36:02.092,f6:90:cc:01:6d:25, 2015-01-01 03:57:03.245, 0.887, -0.067, 0.432, 0.061, 0.183, 0, -8.751, -63.743, -147.003, -28.853, -9.113, -7.473, 29.16, 0.20297, -0.52328, -0.08823, -0.82285,
 17:36:02.092,f6:90:cc:01:6d:25, 2015-01-01 03:57:03.245, 0.886, -0.066, 0.433, -0.122, 0.122, 0, -8.751, -63.743, -146.992, -28.853, -9.113, -7.473, 29.16, 0.20297, -0.52328, -0.08823, -0.82285,
 17:36:02.092,f6:90:cc:01:6d:25, 2015-01-01 03:57:03.245, 0.887, -0.067, 0.432, 0.061, 0.183, 0, -8.751, -63.743, -147.003, -28.853, -9.113, -7.473, 29.16, 0.20178, -0.52319, -0.08737, -0.8233,
 17:36:02.092,f6:90:cc:01:6d:25, 2015-01-01 03:57:03.245, 0.886, -0.066, 0.433, -0.122, 0.122, 0, -8.751, -63.743, -146.992, -28.853, -9.113, -7.473, 29.16, 0.20178, -0.52319, -0.08737, -0.8233,
 17:36:02.110,e3:ca:2d:fd:e0:8c, 2015-01-01 03:57:11.960, 0.97, 0.025, 0.318, -0.183, 0, 0, 4.186, -71.84, 152.704, -25.133, -10.073, -12.707, 26.15, -0.17026, -0.57663, 0.10971, -0.79144,
 17:36:02.110,e3:ca:2d:fd:e0:8c, 2015-01-01 03:57:11.960, 0.969, 0.024, 0.318, -0.061, 0, 0, 4.186, -71.84, 152.704, -25.133, -10.073, -12.707, 26.15, -0.17026, -0.57663, 0.10971, -0.79144,
 17:36:02.110,e3:ca:2d:fd:e0:8c, 2015-01-01 03:57:11.960, 0.97, 0.025, 0.317, -0.122, 0, 0, 4.191, -71.84, 152.704, -25.133, -10.073, -12.707, 26.15, -0.17026, -0.57663, 0.10971, -0.79144,
 17:36:02.110,e3:ca:2d:fd:e0:8c, 2015-01-01 03:57:11.960, 0.969, 0.024, 0.318, -0.061, 0, 0, 4.186, -71.84, 152.704, -25.133, -10.073, -12.707, 26.15, -0.17026, -0.57663, 0.10971, -0.79144,
 17:36:02.110,e3:ca:2d:fd:e0:8c, 2015-01-01 03:57:11.960, 0.97, 0.025, 0.317, -0.122, 0, 0, 4.191, -71.84, 152.704, -25.133, -10.073, -12.707, 26.15, -0.17026, -0.57663, 0.10971, -0.79144,
 17:36:02.110,e3:ca:2d:fd:e0:8c, 2015-01-01 03:57:11.960, 0.969, 0.024, 0.318, -0.061, 0, 0, 4.186, -71.84, 152.704, -25.133, -10.073, -12.707, 26.15, -0.17026, -0.57663, 0.10971, -0.79144,
 17:36:02.115,ed:40:fe:65:30:6c, 2015-01-01 03:57:17.220, 0.462, 0.112, 0.879, 0, -0.183, 0, 7.278, -27.598, -136.714, -15.200, -11.660, -7.240, 25.41, -0.37054, 0.19839, 0.14474, 0.89569,
 17:36:02.115,ed:40:fe:65:30:6c, 2015-01-01 03:57:17.220, 0.46, 0.112, 0.88, 0.061, 0, 0, 7.278, -27.598, -136.703, -15.200, -11.660, -7.240, 25.41, -0.37054, 0.19839, 0.14474, 0.89569,
 17:36:02.115,ed:40:fe:65:30:6c, 2015-01-01 03:57:17.220, 0.462, 0.111, 0.88, 0, 0, 0, 7.278, -27.598, -136.697, -15.200, -11.660, -7.240, 25.41, -0.37054, 0.19839, 0.14474, 0.89569,
 17:36:02.115,ed:40:fe:65:30:6c, 2015-01-01 03:57:17.220, 0.46, 0.112, 0.88, 0.061, 0, 0, 7.278, -27.598, -136.703, -15.200, -11.660, -7.240, 25.41, -0.37054, 0.19839, 0.14474, 0.89569,
 17:36:02.115,ed:40:fe:65:30:6c, 2015-01-01 03:57:17.220, 0.462, 0.111, 0.88, 0, 0, 0, 7.278, -27.598, -136.697, -15.200, -11.660, -7.240, 25.41, -0.37054, 0.19839, 0.14474, 0.89569,
 17:36:02.115,ed:40:fe:65:30:6c, 2015-01-01 03:57:17.220, 0.46, 0.112, 0.88, 0.061, 0, 0, 7.278, -27.598, -136.703, -15.200, -11.660, -7.240, 25.41, -0.37054, 0.19839, 0.14474, 0.89569,
 17:36:02.141,e3:ca:2d:fd:e0:8c, 2015-01-01 03:57:11.960, 0.967, 0.025, 0.317, -0.122, 0, 0, 4.191, -71.84, 152.704, -24.907, -11.033, -12.573, 26.15, -0.17026, -0.57663, 0.10971, -0.79144,
 17:36:02.141,e3:ca:2d:fd:e0:8c, 2015-01-01 03:57:11.960, 0.967, 0.025, 0.318, -0.183, 0.061, 0, 4.191, -71.834, 152.71, -24.907, -11.033, -12.573, 26.15, -0.17026, -0.57663, 0.10971, -0.79144,
 17:36:02.141,e3:ca:2d:fd:e0:8c, 2015-01-01 03:57:11.960, 0.967, 0.025, 0.318, -0.183, 0, 0, 4.191, -71.834, 152.71, -24.907, -11.033, -12.573, 26.15, -0.17026, -0.57663, 0.10971, -0.79144,
 17:36:02.141,e3:ca:2d:fd:e0:8c, 2015-01-01 03:57:11.960, 0.967, 0.025, 0.318, -0.183, 0.061, 0, 4.191, -71.834, 152.71, -24.907, -11.033, -12.573, 26.15, -0.17026, -0.57663, 0.10971, -0.79144,
 17:36:02.141,e3:ca:2d:fd:e0:8c, 2015-01-01 03:57:11.960, 0.967, 0.025, 0.318, -0.183, 0, 0, 4.191, -71.834, 152.71, -24.907, -11.033, -12.573, 26.15, -0.17026, -0.57663, 0.10971, -0.79144,
 17:36:02.141,e3:ca:2d:fd:e0:8c, 2015-01-01 03:57:11.960, 0.967, 0.025, 0.318, -0.183, 0.061, 0, 4.191, -71.834, 152.71, -24.907, -11.033, -12.573, 26.15, -0.17026, -0.57663, 0.10971, -0.79144,
 17:36:02.150,ed:35:33:d3:6c:f8, 2015-01-01 03:56:52.465, 0.278, 0.185, 0.938, 0, 0.671, -0.305, 11.085, -16.26, 158.714, -6.860, -13.913, -32.627, 24.63, 0.16827, 0.1561, 0.06796, 0.97089,
 17:36:02.150,ed:35:33:d3:6c:f8, 2015-01-01 03:56:52.465, 0.277, 0.184, 0.938, -0.061, 0.244, -0.183, 11.085, -16.254, 158.681, -6.860, -13.913, -32.627, 24.63, 0.16827, 0.1561, 0.06796, 0.97089,
 17:36:02.150,ed:35:33:d3:6c:f8, 2015-01-01 03:56:52.465, 0.278, 0.184, 0.94, 0, 0.122, 0.061, 11.085, -16.254, 158.676, -6.860, -13.913, -32.627, 24.63, 0.16827, 0.1561, 0.06796, 0.97089,
 17:36:02.150,ed:35:33:d3:6c:f8, 2015-01-01 03:56:52.465, 0.277, 0.184, 0.938, -0.061, 0.244, -0.183, 11.085, -16.254, 158.681, -6.860, -13.913, -32.627, 24.63, 0.16827, 0.1561, 0.06796, 0.97089,
 17:36:02.150,ed:35:33:d3:6c:f8, 2015-01-01 03:56:52.465, 0.278, 0.184, 0.94, 0, 0.122, 0.061, 11.085, -16.254, 158.676, -6.860, -13.913, -32.627, 24.63, 0.16827, 0.1561, 0.06796, 0.97089,
 17:36:02.150,ed:35:33:d3:6c:f8, 2015-01-01 03:56:52.465, 0.277, 0.184, 0.938, -0.061, 0.244, -0.183, 11.085, -16.254, 158.681, -6.860, -13.913, -32.627, 24.63, 0.16827, 0.1561, 0.06796, 0.97089,
 17:36:02.152,f6:90:cc:01:6d:25, 2015-01-01 03:57:03.245, 0.885, -0.067, 0.432, 0.061, 0.183, 0, -8.751, -63.743, -147.003, -28.853, -9.113, -7.473, 29.16, 0.20178, -0.52319, -0.08737, -0.8233,
 17:36:02.152,f6:90:cc:01:6d:25, 2015-01-01 03:57:03.245, 0.884, -0.065, 0.432, 0.122, 0.183, 0, -8.745, -63.737, -147.014, -28.853, -9.113, -7.473, 29.16, 0.20178, -0.52319, -0.08737, -0.8233,
 17:36:02.152,f6:90:cc:01:6d:25, 2015-01-01 03:57:03.245, 0.885, -0.064, 0.432, 0, 0.183, 0, -8.745, -63.737, -147.025, -28.853, -9.113, -7.473, 29.16, 0.20178, -0.52319, -0.08737, -0.8233,
 17:36:02.152,f6:90:cc:01:6d:25, 2015-01-01 03:57:03.245, 0.884, -0.065, 0.432, 0.122, 0.183, 0, -8.745, -63.737, -147.014, -28.853, -9.113, -7.473, 29.16, 0.20178, -0.52319, -0.08737, -0.8233,
 17:36:02.152,f6:90:cc:01:6d:25, 2015-01-01 03:57:03.245, 0.885, -0.064, 0.432, 0, 0.183, 0, -8.745, -63.737, -147.025, -28.853, -9.113, -7.473, 29.16, 0.20178, -0.52319, -0.08737, -0.8233,
 17:36:02.152,f6:90:cc:01:6d:25, 2015-01-01 03:57:03.245, 0.884, -0.065, 0.432, 0.122, 0.183, 0, -8.745, -63.737, -147.014, -28.853, -9.113, -7.473, 29.16, 0.20178, -0.52319, -0.08737, -0.8233,
 17:36:02.152,f6:90:cc:01:6d:25, 2015-01-01 03:57:03.245, 0.885, -0.064, 0.432, 0, 0.183, 0, -8.745, -63.737, -147.025, -28.853, -9.113, -7.473, 29.16, 0.20178, -0.52319, -0.08737, -0.8233,
 17:36:02.152,f6:90:cc:01:6d:25, 2015-01-01 03:57:03.245, 0.885, -0.066, 0.432, 0, 0.183, 0, -8.74, -63.732, -147.036, -28.853, -9.113, -7.473, 29.16, 0.20178, -0.52319, -0.08737, -0.8233,
 17:36:02.152,f6:90:cc:01:6d:25, 2015-01-01 03:57:03.245, 0.885, -0.066, 0.432, 0, 0.122, 0, -8.74, -63.732, -147.047, -28.853, -9.113, -7.473, 29.16, 0.20178, -0.52319, -0.08737, -0.8233,
 17:36:02.152,f6:90:cc:01:6d:25, 2015-01-01 03:57:03.245, 0.885, -0.066, 0.432, 0, 0.183, 0, -8.74, -63.732, -147.036, -28.853, -9.113, -7.473, 29.16, 0.20178, -0.52319, -0.08737, -0.8233,
 17:36:02.152,f6:90:cc:01:6d:25, 2015-01-01 03:57:03.245, 0.885, -0.066, 0.432, 0, 0.122, 0, -8.74, -63.732, -147.047, -28.853, -9.113, -7.473, 29.16, 0.20178, -0.52319, -0.08737, -0.8233,
 17:36:02.152,f6:90:cc:01:6d:25, 2015-01-01 03:57:03.245, 0.885, -0.066, 0.432, 0, 0.183, 0, -8.74, -63.732, -147.036, -28.853, -9.113, -7.473, 29.16, 0.20178, -0.52319, -0.08737, -0.8233,
 17:36:02.174,ed:40:fe:65:30:6c, 2015-01-01 03:57:17.220, 0.461, 0.111, 0.88, 0, 0, 0, 7.278, -27.598, -136.697, -15.200, -11.660, -7.240, 25.41, -0.37054, 0.19839, 0.14474, 0.89569,
 17:36:02.174,ed:40:fe:65:30:6c, 2015-01-01 03:57:17.220, 0.463, 0.112, 0.88, 0, -0.183, 0, 7.278, -27.598, -136.692, -15.200, -11.660, -7.240, 25.41, -0.37054, 0.19839, 0.14474, 0.89569,
 17:36:02.174,ed:40:fe:65:30:6c, 2015-01-01 03:57:17.220, 0.461, 0.112, 0.878, 0, -0.244, 0, 7.278, -27.603, -136.681, -15.200, -11.660, -7.240, 25.41, -0.37054, 0.19839, 0.14474, 0.89569,
 17:36:02.174,ed:40:fe:65:30:6c, 2015-01-01 03:57:17.220, 0.463, 0.112, 0.88, 0, -0.183, 0, 7.278, -27.598, -136.692, -15.200, -11.660, -7.240, 25.41, -0.37054, 0.19839, 0.14474, 0.89569,
 17:36:02.174,ed:40:fe:65:30:6c, 2015-01-01 03:57:17.220, 0.461, 0.112, 0.878, 0, -0.244, 0, 7.278, -27.603, -136.681, -15.200, -11.660, -7.240, 25.41, -0.37054, 0.19839, 0.14474, 0.89569,
 17:36:02.174,ed:40:fe:65:30:6c, 2015-01-01 03:57:17.220, 0.463, 0.112, 0.88, 0, -0.183, 0, 7.278, -27.598, -136.692, -15.200, -11.660, -7.240, 25.41, -0.37054, 0.19839, 0.14474, 0.89569,
 17:36:02.177,ed:35:33:d3:6c:f8, 2015-01-01 03:56:53.120, 0.277, 0.184, 0.94, 0, 0.122, 0.061, 11.085, -16.254, 158.676, -6.860, -13.913, -32.627, 24.63, 0.16827, 0.1561, 0.06796, 0.97089,
 17:36:02.177,ed:35:33:d3:6c:f8, 2015-01-01 03:56:53.120, 0.278, 0.184, 0.938, -0.122, 0.61, 0.122, 11.08, -16.243, 158.708, -6.860, -13.913, -32.627, 24.63, 0.16827, 0.1561, 0.06796, 0.97089,
 17:36:02.177,ed:35:33:d3:6c:f8, 2015-01-01 03:56:53.120, 0.277, 0.184, 0.939, 0.183, 0.732, -0.183, 11.085, -16.227, 158.73, -6.860, -13.913, -32.627, 24.63, 0.16827, 0.1561, 0.06796, 0.97089,
 17:36:02.177,ed:35:33:d3:6c:f8, 2015-01-01 03:56:53.120, 0.278, 0.184, 0.938, -0.122, 0.61, 0.122, 11.08, -16.243, 158.708, -6.860, -13.913, -32.627, 24.63, 0.16827, 0.1561, 0.06796, 0.97089,
 17:36:02.177,ed:35:33:d3:6c:f8, 2015-01-01 03:56:53.120, 0.277, 0.184, 0.939, 0.183, 0.732, -0.183, 11.085, -16.227, 158.73, -6.860, -13.913, -32.627, 24.63, 0.16827, 0.1561, 0.06796, 0.97089,
 17:36:02.177,ed:35:33:d3:6c:f8, 2015-01-01 03:56:53.120, 0.278, 0.184, 0.938, -0.122, 0.61, 0.122, 11.08, -16.243, 158.708, -6.860, -13.913, -32.627, 24.63, 0.16827, 0.1561, 0.06796, 0.97089,
 17:36:02.201,e3:ca:2d:fd:e0:8c, 2015-01-01 03:57:11.960, 0.967, 0.025, 0.318, -0.183, 0, 0, 4.191, -71.834, 152.71, -24.907, -11.033, -12.573, 26.15, -0.17026, -0.57663, 0.10971, -0.79144,
 17:36:02.201,e3:ca:2d:fd:e0:8c, 2015-01-01 03:57:11.960, 0.969, 0.025, 0.316, -0.061, -0.061, 0, 4.191, -71.84, 152.71, -24.907, -11.033, -12.573, 26.15, -0.17026, -0.57663, 0.10971, -0.79144,
 17:36:02.201,e3:ca:2d:fd:e0:8c, 2015-01-01 03:57:11.960, 0.967, 0.026, 0.317, -0.122, 0, 0, 4.197, -71.834, 152.71, -24.907, -11.033, -12.573, 26.15, -0.17026, -0.57663, 0.10971, -0.79144,
 17:36:02.201,e3:ca:2d:fd:e0:8c, 2015-01-01 03:57:11.960, 0.969, 0.025, 0.316, -0.061, -0.061, 0, 4.191, -71.84, 152.71, -24.907, -11.033, -12.573, 26.15, -0.17026, -0.57663, 0.10971, -0.79144,
 17:36:02.201,e3:ca:2d:fd:e0:8c, 2015-01-01 03:57:11.960, 0.967, 0.026, 0.317, -0.122, 0, 0, 4.197, -71.834, 152.71, -24.907, -11.033, -12.573, 26.15, -0.17026, -0.57663, 0.10971, -0.79144,
 17:36:02.201,e3:ca:2d:fd:e0:8c, 2015-01-01 03:57:11.960, 0.969, 0.025, 0.316, -0.061, -0.061, 0, 4.191, -71.84, 152.71, -24.907, -11.033, -12.573, 26.15, -0.17026, -0.57663, 0.10971, -0.79144,
 17:36:02.205,ed:40:fe:65:30:6c, 2015-01-01 03:57:17.220, 0.464, 0.112, 0.878, 0, -0.244, 0, 7.278, -27.603, -136.681, -15.200, -11.660, -7.240, 25.41, -0.37164, 0.19846, 0.14514, 0.89517,
 17:36:02.205,ed:40:fe:65:30:6c, 2015-01-01 03:57:17.220, 0.463, 0.112, 0.879, 0.061, -0.183, 0, 7.278, -27.603, -136.675, -15.200, -11.660, -7.240, 25.41, -0.37164, 0.19846, 0.14514, 0.89517,
 17:36:02.205,ed:40:fe:65:30:6c, 2015-01-01 03:57:17.220, 0.464, 0.112, 0.882, 0.122, -0.183, 0, 7.284, -27.609, -136.67, -15.200, -11.660, -7.240, 25.41, -0.37164, 0.19846, 0.14514, 0.89517,
 17:36:02.205,ed:40:fe:65:30:6c, 2015-01-01 03:57:17.220, 0.463, 0.112, 0.879, 0.061, -0.183, 0, 7.278, -27.603, -136.675, -15.200, -11.660, -7.240, 25.41, -0.37164, 0.19846, 0.14514, 0.89517,
 17:36:02.205,ed:40:fe:65:30:6c, 2015-01-01 03:57:17.220, 0.464, 0.112, 0.882, 0.122, -0.183, 0, 7.284, -27.609, -136.67, -15.200, -11.660, -7.240, 25.41, -0.37164, 0.19846, 0.14514, 0.89517,
 17:36:02.205,ed:40:fe:65:30:6c, 2015-01-01 03:57:17.220, 0.463, 0.112, 0.879, 0.061, -0.183, 0, 7.278, -27.603, -136.675, -15.200, -11.660, -7.240, 25.41, -0.37164, 0.19846, 0.14514, 0.89517,
 17:36:02.208,ed:35:33:d3:6c:f8, 2015-01-01 03:56:53.120, 0.279, 0.184, 0.939, 0.183, 0.732, -0.183, 11.085, -16.227, 158.73, -6.860, -13.913, -32.627, 24.63, 0.16827, 0.1561, 0.06796, 0.97089,
 17:36:02.208,ed:35:33:d3:6c:f8, 2015-01-01 03:56:53.120, 0.274, 0.185, 0.941, 0.183, 0.916, -0.061, 11.085, -16.21, 158.763, -6.860, -13.913, -32.627, 24.63, 0.16827, 0.1561, 0.06796, 0.97089,
 17:36:02.208,ed:35:33:d3:6c:f8, 2015-01-01 03:56:53.120, 0.279, 0.184, 0.942, -0.122, 0.183, -0.061, 11.085, -16.205, 158.763, -6.860, -13.913, -32.627, 24.63, 0.16827, 0.1561, 0.06796, 0.97089,
 17:36:02.208,ed:35:33:d3:6c:f8, 2015-01-01 03:56:53.120, 0.274, 0.185, 0.941, 0.183, 0.916, -0.061, 11.085, -16.21, 158.763, -6.860, -13.913, -32.627, 24.63, 0.16827, 0.1561, 0.06796, 0.97089,
 17:36:02.208,ed:35:33:d3:6c:f8, 2015-01-01 03:56:53.120, 0.279, 0.184, 0.942, -0.122, 0.183, -0.061, 11.085, -16.205, 158.763, -6.860, -13.913, -32.627, 24.63, 0.16827, 0.1561, 0.06796, 0.97089,
 17:36:02.208,ed:35:33:d3:6c:f8, 2015-01-01 03:56:53.120, 0.274, 0.185, 0.941, 0.183, 0.916, -0.061, 11.085, -16.21, 158.763, -6.860, -13.913, -32.627, 24.63, 0.16827, 0.1561, 0.06796, 0.97089,
 17:36:02.211,f6:90:cc:01:6d:25, 2015-01-01 03:57:03.245, 0.886, -0.066, 0.432, 0, 0.122, 0, -8.74, -63.732, -147.047, -28.853, -9.113, -7.473, 29.16, 0.20178, -0.52319, -0.08737, -0.8233,
 17:36:02.211,f6:90:cc:01:6d:25, 2015-01-01 03:57:03.245, 0.887, -0.065, 0.431, -0.061, 0.061, 0, -8.74, -63.726, -147.057, -28.853, -9.113, -7.473, 29.16, 0.20178, -0.52319, -0.08737, -0.8233,
 17:36:02.211,f6:90:cc:01:6d:25, 2015-01-01 03:57:03.245, 0.886, -0.065, 0.431, -0.122, 0.183, 0, -8.74, -63.726, -147.063, -28.853, -9.113, -7.473, 29.16, 0.20178, -0.52319, -0.08737, -0.8233,
 17:36:02.211,f6:90:cc:01:6d:25, 2015-01-01 03:57:03.245, 0.887, -0.065, 0.431, -0.061, 0.061, 0, -8.74, -63.726, -147.057, -28.853, -9.113, -7.473, 29.16, 0.20178, -0.52319, -0.08737, -0.8233,
 17:36:02.211,f6:90:cc:01:6d:25, 2015-01-01 03:57:03.245, 0.886, -0.065, 0.431, -0.122, 0.183, 0, -8.74, -63.726, -147.063, -28.853, -9.113, -7.473, 29.16, 0.20178, -0.52319, -0.08737, -0.8233,
 17:36:02.211,f6:90:cc:01:6d:25, 2015-01-01 03:57:03.245, 0.887, -0.065, 0.431, -0.061, 0.061, 0, -8.74, -63.726, -147.057, -28.853, -9.113, -7.473, 29.16, 0.20178, -0.52319, -0.08737, -0.8233,
 17:36:02.231,e3:ca:2d:fd:e0:8c, 2015-01-01 03:57:11.960, 0.97, 0.026, 0.317, -0.122, 0, 0, 4.197, -71.834, 152.71, -24.907, -11.033, -12.573, 26.15, -0.17001, -0.57666, 0.10947, -0.79147,
 17:36:02.231,e3:ca:2d:fd:e0:8c, 2015-01-01 03:57:11.960, 0.97, 0.026, 0.317, -0.183, -0.061, 0, 4.197, -71.84, 152.71, -24.907, -11.033, -12.573, 26.15, -0.17001, -0.57666, 0.10947, -0.79147,
 17:36:02.231,e3:ca:2d:fd:e0:8c, 2015-01-01 03:57:11.960, 0.97, 0.025, 0.315, -0.183, 0, 0, 4.197, -71.84, 152.71, -24.907, -11.033, -12.573, 26.15, -0.17001, -0.57666, 0.10947, -0.79147,
 17:36:02.231,e3:ca:2d:fd:e0:8c, 2015-01-01 03:57:11.960, 0.97, 0.026, 0.317, -0.183, -0.061, 0, 4.197, -71.84, 152.71, -24.907, -11.033, -12.573, 26.15, -0.17001, -0.57666, 0.10947, -0.79147,
 17:36:02.231,e3:ca:2d:fd:e0:8c, 2015-01-01 03:57:11.960, 0.97, 0.025, 0.315, -0.183, 0, 0, 4.197, -71.84, 152.71, -24.907, -11.033, -12.573, 26.15, -0.17001, -0.57666, 0.10947, -0.79147,
 17:36:02.231,e3:ca:2d:fd:e0:8c, 2015-01-01 03:57:11.960, 0.97, 0.026, 0.317, -0.183, -0.061, 0, 4.197, -71.84, 152.71, -24.907, -11.033, -12.573, 26.15, -0.17001, -0.57666, 0.10947, -0.79147,
 17:36:02.235,ed:40:fe:65:30:6c, 2015-01-01 03:57:17.220, 0.464, 0.112, 0.882, 0.122, -0.183, 0, 7.284, -27.609, -136.67, -15.200, -11.660, -7.240, 25.41, -0.37164, 0.19846, 0.14514, 0.89517,
 17:36:02.235,ed:40:fe:65:30:6c, 2015-01-01 03:57:17.220, 0.464, 0.11, 0.88, 0, 0, 0, 7.284, -27.609, -136.659, -15.200, -11.660, -7.240, 25.41, -0.37164, 0.19846, 0.14514, 0.89517,
 17:36:02.235,ed:40:fe:65:30:6c, 2015-01-01 03:57:17.220, 0.464, 0.11, 0.879, -0.183, 0, 0, 7.284, -27.609, -136.653, -15.200, -11.660, -7.240, 25.41, -0.37164, 0.19846, 0.14514, 0.89517,
 17:36:02.235,ed:40:fe:65:30:6c, 2015-01-01 03:57:17.220, 0.464, 0.11, 0.88, 0, 0, 0, 7.284, -27.609, -136.659, -15.200, -11.660, -7.240, 25.41, -0.37164, 0.19846, 0.14514, 0.89517,
 17:36:02.235,ed:40:fe:65:30:6c, 2015-01-01 03:57:17.220, 0.464, 0.11, 0.879, -0.183, 0, 0, 7.284, -27.609, -136.653, -15.200, -11.660, -7.240, 25.41, -0.37164, 0.19846, 0.14514, 0.89517,
 17:36:02.235,ed:40:fe:65:30:6c, 2015-01-01 03:57:17.220, 0.464, 0.11, 0.88, 0, 0, 0, 7.284, -27.609, -136.659, -15.200, -11.660, -7.240, 25.41, -0.37164, 0.19846, 0.14514, 0.89517,
 17:36:02.241,f6:90:cc:01:6d:25, 2015-01-01 03:57:03.245, 0.887, -0.065, 0.431, -0.122, 0.183, 0, -8.74, -63.726, -147.063, -28.853, -9.113, -7.473, 29.16, 0.20178, -0.52319, -0.08737, -0.8233,
 17:36:02.241,f6:90:cc:01:6d:25, 2015-01-01 03:57:03.245, 0.887, -0.067, 0.432, -0.122, 0.122, 0, -8.74, -63.721, -147.074, -28.853, -9.113, -7.473, 29.16, 0.20178, -0.52319, -0.08737, -0.8233,
 17:36:02.241,f6:90:cc:01:6d:25, 2015-01-01 03:57:03.245, 0.887, -0.067, 0.432, -0.061, -0.122, 0, -8.74, -63.726, -147.085, -28.853, -9.113, -7.473, 29.16, 0.20178, -0.52319, -0.08737, -0.8233,
 17:36:02.241,f6:90:cc:01:6d:25, 2015-01-01 03:57:03.245, 0.887, -0.067, 0.432, -0.122, 0.122, 0, -8.74, -63.721, -147.074, -28.853, -9.113, -7.473, 29.16, 0.20178, -0.52319, -0.08737, -0.8233,
 17:36:02.241,f6:90:cc:01:6d:25, 2015-01-01 03:57:03.245, 0.887, -0.067, 0.432, -0.061, -0.122, 0, -8.74, -63.726, -147.085, -28.853, -9.113, -7.473, 29.16, 0.20178, -0.52319, -0.08737, -0.8233,
 17:36:02.241,f6:90:cc:01:6d:25, 2015-01-01 03:57:03.245, 0.887, -0.067, 0.432, -0.122, 0.122, 0, -8.74, -63.721, -147.074, -28.853, -9.113, -7.473, 29.16, 0.20178, -0.52319, -0.08737, -0.8233,
 17:36:02.261,e3:ca:2d:fd:e0:8c, 2015-01-01 03:57:11.960, 0.969, 0.025, 0.315, -0.183, 0, 0, 4.197, -71.84, 152.71, -24.907, -11.033, -12.573, 26.15, -0.17001, -0.57666, 0.10947, -0.79147,
 17:36:02.261,e3:ca:2d:fd:e0:8c, 2015-01-01 03:57:11.960, 0.969, 0.025, 0.315, -0.549, 0, 0, 4.191, -71.84, 152.715, -24.907, -11.033, -12.573, 26.15, -0.17001, -0.57666, 0.10947, -0.79147,
 17:36:02.261,e3:ca:2d:fd:e0:8c, 2015-01-01 03:57:11.960, 0.969, 0.024, 0.317, -0.366, 0, 0, 4.191, -71.84, 152.715, -24.907, -11.033, -12.573, 26.15, -0.17001, -0.57666, 0.10947, -0.79147,
 17:36:02.261,e3:ca:2d:fd:e0:8c, 2015-01-01 03:57:11.960, 0.969, 0.025, 0.315, -0.549, 0, 0, 4.191, -71.84, 152.715, -24.907, -11.033, -12.573, 26.15, -0.17001, -0.57666, 0.10947, -0.79147,
 17:36:02.261,e3:ca:2d:fd:e0:8c, 2015-01-01 03:57:11.960, 0.969, 0.024, 0.317, -0.366, 0, 0, 4.191, -71.84, 152.715, -24.907, -11.033, -12.573, 26.15, -0.17001, -0.57666, 0.10947, -0.79147,
 17:36:02.261,e3:ca:2d:fd:e0:8c, 2015-01-01 03:57:11.960, 0.969, 0.025, 0.315, -0.549, 0, 0, 4.191, -71.84, 152.715, -24.907, -11.033, -12.573, 26.15, -0.17001, -0.57666, 0.10947, -0.79147,
 17:36:02.269,ed:35:33:d3:6c:f8, 2015-01-01 03:56:53.120, 0.279, 0.184, 0.942, -0.122, 0.183, -0.061, 11.085, -16.205, 158.763, -6.860, -13.913, -32.627, 24.63, 0.16827, 0.1561, 0.06796, 0.97089,
 17:36:02.269,ed:35:33:d3:6c:f8, 2015-01-01 03:56:53.120, 0.281, 0.185, 0.939, -0.244, -0.488, -0.183, 11.08, -16.216, 158.758, -6.860, -13.913, -32.627, 24.63, 0.16827, 0.1561, 0.06796, 0.97089,
 17:36:02.269,ed:35:33:d3:6c:f8, 2015-01-01 03:56:53.120, 0.279, 0.18, 0.938, 0, 0, -0.183, 11.085, -16.216, 158.758, -6.860, -13.913, -32.627, 24.63, 0.16827, 0.1561, 0.06796, 0.97089,
 17:36:02.269,ed:35:33:d3:6c:f8, 2015-01-01 03:56:53.120, 0.281, 0.185, 0.939, -0.244, -0.488, -0.183, 11.08, -16.216, 158.758, -6.860, -13.913, -32.627, 24.63, 0.16827, 0.1561, 0.06796, 0.97089,
 17:36:02.269,ed:35:33:d3:6c:f8, 2015-01-01 03:56:53.120, 0.279, 0.18, 0.938, 0, 0, -0.183, 11.085, -16.216, 158.758, -6.860, -13.913, -32.627, 24.63, 0.16827, 0.1561, 0.06796, 0.97089,
 17:36:02.269,ed:35:33:d3:6c:f8, 2015-01-01 03:56:53.120, 0.281, 0.185, 0.939, -0.244, -0.488, -0.183, 11.08, -16.216, 158.758, -6.860, -13.913, -32.627, 24.63, 0.16827, 0.1561, 0.06796, 0.97089,
 17:36:02.271,f6:90:cc:01:6d:25, 2015-01-01 03:57:03.245, 0.887, -0.067, 0.432, -0.061, -0.122, 0, -8.74, -63.726, -147.085, -28.853, -9.113, -7.473, 29.16, 0.20178, -0.52319, -0.08737, -0.8233,
 17:36:02.271,f6:90:cc:01:6d:25, 2015-01-01 03:57:03.245, 0.887, -0.065, 0.433, 0.061, -0.061, 0, -8.74, -63.726, -147.09, -28.853, -9.113, -7.473, 29.16, 0.20178, -0.52319, -0.08737, -0.8233,
 17:36:02.271,f6:90:cc:01:6d:25, 2015-01-01 03:57:03.245, 0.887, -0.068, 0.432, 0.244, 0.061, 0, -8.74, -63.726, -147.101, -28.853, -9.113, -7.473, 29.16, 0.20178, -0.52319, -0.08737, -0.8233,
 17:36:02.271,f6:90:cc:01:6d:25, 2015-01-01 03:57:03.245, 0.887, -0.065, 0.433, 0.061, -0.061, 0, -8.74, -63.726, -147.09, -28.853, -9.113, -7.473, 29.16, 0.20178, -0.52319, -0.08737, -0.8233,
 17:36:02.271,f6:90:cc:01:6d:25, 2015-01-01 03:57:03.245, 0.887, -0.068, 0.432, 0.244, 0.061, 0, -8.74, -63.726, -147.101, -28.853, -9.113, -7.473, 29.16, 0.20178, -0.52319, -0.08737, -0.8233,
 17:36:02.271,f6:90:cc:01:6d:25, 2015-01-01 03:57:03.245, 0.887, -0.065, 0.433, 0.061, -0.061, 0, -8.74, -63.726, -147.09, -28.853, -9.113, -7.473, 29.16, 0.20178, -0.52319, -0.08737, -0.8233,
 17:36:02.295,ed:40:fe:65:30:6c, 2015-01-01 03:57:17.580, 0.465, 0.11, 0.879, -0.183, 0, 0, 7.284, -27.609, -136.653, -15.200, -11.660, -7.240, 25.41, -0.37164, 0.19846, 0.14514, 0.89517,
 17:36:02.295,ed:40:fe:65:30:6c, 2015-01-01 03:57:17.580, 0.464, 0.114, 0.879, -0.061, 0, -0.305, 7.278, -27.609, -136.648, -15.200, -11.660, -7.240, 25.41, -0.37164, 0.19846, 0.14514, 0.89517,
 17:36:02.295,ed:40:fe:65:30:6c, 2015-01-01 03:57:17.580, 0.465, 0.114, 0.88, 0.061, 0.061, -0.122, 7.284, -27.609, -136.648, -15.200, -11.660, -7.240, 25.41, -0.37164, 0.19846, 0.14514, 0.89517,
 17:36:02.295,ed:40:fe:65:30:6c, 2015-01-01 03:57:17.580, 0.464, 0.114, 0.879, -0.061, 0, -0.305, 7.278, -27.609, -136.648, -15.200, -11.660, -7.240, 25.41, -0.37164, 0.19846, 0.14514, 0.89517,
 17:36:02.295,ed:40:fe:65:30:6c, 2015-01-01 03:57:17.580, 0.465, 0.114, 0.88, 0.061, 0.061, -0.122, 7.284, -27.609, -136.648, -15.200, -11.660, -7.240, 25.41, -0.37164, 0.19846, 0.14514, 0.89517,
 17:36:02.295,ed:40:fe:65:30:6c, 2015-01-01 03:57:17.580, 0.464, 0.114, 0.879, -0.061, 0, -0.305, 7.278, -27.609, -136.648, -15.200, -11.660, -7.240, 25.41, -0.37164, 0.19846, 0.14514, 0.89517,
 17:36:02.299,ed:35:33:d3:6c:f8, 2015-01-01 03:56:53.120, 0.28, 0.18, 0.938, 0, 0, -0.183, 11.085, -16.216, 158.758, -6.860, -13.913, -32.627, 24.63, 0.16827, 0.1561, 0.06796, 0.97089,
 17:36:02.299,ed:35:33:d3:6c:f8, 2015-01-01 03:56:53.120, 0.28, 0.185, 0.938, -0.671, 0.183, -1.282, 11.074, -16.205, 158.73, -6.860, -13.913, -32.627, 24.63, 0.16827, 0.1561, 0.06796, 0.97089,
 17:36:02.299,ed:35:33:d3:6c:f8, 2015-01-01 03:56:53.120, 0.28, 0.193, 0.941, 0.427, 0.183, -0.488, 11.091, -16.199, 158.736, -6.860, -13.913, -32.627, 24.63, 0.16827, 0.1561, 0.06796, 0.97089,
 17:36:02.299,ed:35:33:d3:6c:f8, 2015-01-01 03:56:53.120, 0.28, 0.185, 0.938, -0.671, 0.183, -1.282, 11.074, -16.205, 158.73, -6.860, -13.913, -32.627, 24.63, 0.16827, 0.1561, 0.06796, 0.97089,
 17:36:02.299,ed:35:33:d3:6c:f8, 2015-01-01 03:56:53.120, 0.28, 0.193, 0.941, 0.427, 0.183, -0.488, 11.091, -16.199, 158.736, -6.860, -13.913, -32.627, 24.63, 0.16827, 0.1561, 0.06796, 0.97089,
 17:36:02.299,ed:35:33:d3:6c:f8, 2015-01-01 03:56:53.120, 0.28, 0.185, 0.938, -0.671, 0.183, -1.282, 11.074, -16.205, 158.73, -6.860, -13.913, -32.627, 24.63, 0.16827, 0.1561, 0.06796, 0.97089,
 17:36:02.321,e3:ca:2d:fd:e0:8c, 2015-01-01 03:57:12.345, 0.97, 0.024, 0.317, -0.366, 0, 0, 4.191, -71.84, 152.715, -24.907, -11.033, -12.573, 26.15, -0.17001, -0.57666, 0.10947, -0.79147,
 17:36:02.321,e3:ca:2d:fd:e0:8c, 2015-01-01 03:57:12.345, 0.969, 0.025, 0.317, 0, 0, 0, 4.191, -71.84, 152.715, -24.907, -11.033, -12.573, 26.15, -0.17001, -0.57666, 0.10947, -0.79147,
 17:36:02.321,e3:ca:2d:fd:e0:8c, 2015-01-01 03:57:12.345, 0.97, 0.023, 0.316, 0.061, 0.061, 0, 4.197, -71.834, 152.715, -24.907, -11.033, -12.573, 26.15, -0.17001, -0.57666, 0.10947, -0.79147,
 17:36:02.321,e3:ca:2d:fd:e0:8c, 2015-01-01 03:57:12.345, 0.969, 0.025, 0.317, 0, 0, 0, 4.191, -71.84, 152.715, -24.907, -11.033, -12.573, 26.15, -0.17001, -0.57666, 0.10947, -0.79147,
 17:36:02.321,e3:ca:2d:fd:e0:8c, 2015-01-01 03:57:12.345, 0.97, 0.023, 0.316, 0.061, 0.061, 0, 4.197, -71.834, 152.715, -24.907, -11.033, -12.573, 26.15, -0.17001, -0.57666, 0.10947, -0.79147,
 17:36:02.321,e3:ca:2d:fd:e0:8c, 2015-01-01 03:57:12.345, 0.969, 0.025, 0.317, 0, 0, 0, 4.191, -71.84, 152.715, -24.907, -11.033, -12.573, 26.15, -0.17001, -0.57666, 0.10947, -0.79147,
 17:36:02.351,e3:ca:2d:fd:e0:8c, 2015-01-01 03:57:12.345, 0.969, 0.023, 0.316, 0.061, 0.061, 0, 4.197, -71.834, 152.715, -24.907, -11.033, -12.573, 26.15, -0.17001, -0.57666, 0.10947, -0.79147,
 17:36:02.351,e3:ca:2d:fd:e0:8c, 2015-01-01 03:57:12.345, 0.97, 0.024, 0.315, -0.122, 0.122, 0, 4.197, -71.834, 152.715, -24.907, -11.033, -12.573, 26.15, -0.17001, -0.57666, 0.10947, -0.79147,
 17:36:02.351,e3:ca:2d:fd:e0:8c, 2015-01-01 03:57:12.345, 0.969, 0.025, 0.317, -0.183, 0, 0, 4.197, -71.834, 152.721, -24.907, -11.033, -12.573, 26.15, -0.17001, -0.57666, 0.10947, -0.79147,
 17:36:02.351,e3:ca:2d:fd:e0:8c, 2015-01-01 03:57:12.345, 0.97, 0.024, 0.315, -0.122, 0.122, 0, 4.197, -71.834, 152.715, -24.907, -11.033, -12.573, 26.15, -0.17001, -0.57666, 0.10947, -0.79147,
 17:36:02.351,e3:ca:2d:fd:e0:8c, 2015-01-01 03:57:12.345, 0.969, 0.025, 0.317, -0.183, 0, 0, 4.197, -71.834, 152.721, -24.907, -11.033, -12.573, 26.15, -0.17001, -0.57666, 0.10947, -0.79147,
 17:36:02.351,e3:ca:2d:fd:e0:8c, 2015-01-01 03:57:12.345, 0.97, 0.024, 0.315, -0.122, 0.122, 0, 4.197, -71.834, 152.715, -24.907, -11.033, -12.573, 26.15, -0.17001, -0.57666, 0.10947, -0.79147,
 17:36:02.355,ed:40:fe:65:30:6c, 2015-01-01 03:57:17.580, 0.462, 0.114, 0.88, 0.061, 0.061, -0.122, 7.284, -27.609, -136.648, -15.200, -11.660, -7.240, 25.41, -0.37164, 0.19846, 0.14514, 0.89517,
 17:36:02.355,ed:40:fe:65:30:6c, 2015-01-01 03:57:17.580, 0.462, 0.112, 0.882, 0.061, 0.122, 0.183, 7.284, -27.603, -136.637, -15.200, -11.660, -7.240, 25.41, -0.37164, 0.19846, 0.14514, 0.89517,
 17:36:02.355,ed:40:fe:65:30:6c, 2015-01-01 03:57:17.580, 0.462, 0.113, 0.881, -0.122, 0.061, 0.061, 7.284, -27.603, -136.626, -15.200, -11.660, -7.240, 25.41, -0.37164, 0.19846, 0.14514, 0.89517,
 17:36:02.355,ed:40:fe:65:30:6c, 2015-01-01 03:57:17.580, 0.462, 0.112, 0.882, 0.061, 0.122, 0.183, 7.284, -27.603, -136.637, -15.200, -11.660, -7.240, 25.41, -0.37164, 0.19846, 0.14514, 0.89517,
 17:36:02.355,ed:40:fe:65:30:6c, 2015-01-01 03:57:17.580, 0.462, 0.113, 0.881, -0.122, 0.061, 0.061, 7.284, -27.603, -136.626, -15.200, -11.660, -7.240, 25.41, -0.37164, 0.19846, 0.14514, 0.89517,
 17:36:02.355,ed:40:fe:65:30:6c, 2015-01-01 03:57:17.580, 0.462, 0.112, 0.882, 0.061, 0.122, 0.183, 7.284, -27.603, -136.637, -15.200, -11.660, -7.240, 25.41, -0.37164, 0.19846, 0.14514, 0.89517,
 17:36:02.355,ed:40:fe:65:30:6c, 2015-01-01 03:57:17.580, 0.465, 0.113, 0.881, -0.122, 0.061, 0.061, 7.284, -27.603, -136.626, -15.200, -11.660, -7.240, 25.41, -0.37164, 0.19846, 0.14514, 0.89517,
 17:36:02.355,ed:40:fe:65:30:6c, 2015-01-01 03:57:17.580, 0.465, 0.113, 0.88, 0.122, 0.061, 0, 7.278, -27.603, -136.62, -15.200, -11.660, -7.240, 25.41, -0.37164, 0.19846, 0.14514, 0.89517,
 17:36:02.355,ed:40:fe:65:30:6c, 2015-01-01 03:57:17.580, 0.465, 0.112, 0.88, 0.488, 0.244, 0.183, 7.284, -27.598, -136.609, -15.200, -11.660, -7.240, 25.41, -0.37164, 0.19846, 0.14514, 0.89517,
 17:36:02.355,ed:40:fe:65:30:6c, 2015-01-01 03:57:17.580, 0.465, 0.113, 0.88, 0.122, 0.061, 0, 7.278, -27.603, -136.62, -15.200, -11.660, -7.240, 25.41, -0.37164, 0.19846, 0.14514, 0.89517,
 17:36:02.355,ed:40:fe:65:30:6c, 2015-01-01 03:57:17.580, 0.465, 0.112, 0.88, 0.488, 0.244, 0.183, 7.284, -27.598, -136.609, -15.200, -11.660, -7.240, 25.41, -0.37164, 0.19846, 0.14514, 0.89517,
 17:36:02.355,ed:40:fe:65:30:6c, 2015-01-01 03:57:17.580, 0.465, 0.113, 0.88, 0.122, 0.061, 0, 7.278, -27.603, -136.62, -15.200, -11.660, -7.240, 25.41, -0.37164, 0.19846, 0.14514, 0.89517,
 17:36:02.359,ed:35:33:d3:6c:f8, 2015-01-01 03:56:53.120, 0.274, 0.193, 0.941, 0.427, 0.183, -0.488, 11.091, -16.199, 158.736, -6.860, -13.913, -32.627, 24.63, 0.16827, 0.1561, 0.06796, 0.97089,
 17:36:02.359,ed:35:33:d3:6c:f8, 2015-01-01 03:56:53.120, 0.277, 0.184, 0.944, 0.488, -0.244, 0.793, 11.096, -16.21, 158.747, -6.860, -13.913, -32.627, 24.63, 0.16827, 0.1561, 0.06796, 0.97089,
 17:36:02.359,ed:35:33:d3:6c:f8, 2015-01-01 03:56:53.120, 0.274, 0.181, 0.939, -0.793, -0.549, -0.427, 11.08, -16.216, 158.719, -6.860, -13.913, -32.627, 24.63, 0.16827, 0.1561, 0.06796, 0.97089,
 17:36:02.359,ed:35:33:d3:6c:f8, 2015-01-01 03:56:53.120, 0.277, 0.184, 0.944, 0.488, -0.244, 0.793, 11.096, -16.21, 158.747, -6.860, -13.913, -32.627, 24.63, 0.16827, 0.1561, 0.06796, 0.97089,
 17:36:02.359,ed:35:33:d3:6c:f8, 2015-01-01 03:56:53.120, 0.274, 0.181, 0.939, -0.793, -0.549, -0.427, 11.08, -16.216, 158.719, -6.860, -13.913, -32.627, 24.63, 0.16827, 0.1561, 0.06796, 0.97089,
 17:36:02.359,ed:35:33:d3:6c:f8, 2015-01-01 03:56:53.120, 0.277, 0.184, 0.944, 0.488, -0.244, 0.793, 11.096, -16.21, 158.747, -6.860, -13.913, -32.627, 24.63, 0.16827, 0.1561, 0.06796, 0.97089,
 17:36:02.361,f6:90:cc:01:6d:25, 2015-01-01 03:57:03.245, 0.886, -0.068, 0.432, 0.244, 0.061, 0, -8.74, -63.726, -147.101, -28.853, -9.113, -7.473, 29.16, 0.20178, -0.52319, -0.08737, -0.8233,
 17:36:02.361,f6:90:cc:01:6d:25, 2015-01-01 03:57:03.245, 0.886, -0.068, 0.431, 0.061, 0.061, 0, -8.734, -63.726, -147.112, -28.853, -9.113, -7.473, 29.16, 0.20178, -0.52319, -0.08737, -0.8233,
 17:36:02.361,f6:90:cc:01:6d:25, 2015-01-01 03:57:03.245, 0.886, -0.065, 0.431, -0.122, 0.122, 0, -8.734, -63.726, -147.118, -28.853, -9.113, -7.473, 29.16, 0.20178, -0.52319, -0.08737, -0.8233,
 17:36:02.361,f6:90:cc:01:6d:25, 2015-01-01 03:57:03.245, 0.886, -0.068, 0.431, 0.061, 0.061, 0, -8.734, -63.726, -147.112, -28.853, -9.113, -7.473, 29.16, 0.20178, -0.52319, -0.08737, -0.8233,
 17:36:02.361,f6:90:cc:01:6d:25, 2015-01-01 03:57:03.245, 0.886, -0.065, 0.431, -0.122, 0.122, 0, -8.734, -63.726, -147.118, -28.853, -9.113, -7.473, 29.16, 0.20178, -0.52319, -0.08737, -0.8233,
 17:36:02.361,f6:90:cc:01:6d:25, 2015-01-01 03:57:03.245, 0.886, -0.068, 0.431, 0.061, 0.061, 0, -8.734, -63.726, -147.112, -28.853, -9.113, -7.473, 29.16, 0.20178, -0.52319, -0.08737, -0.8233,
 17:36:02.361,f6:90:cc:01:6d:25, 2015-01-01 03:57:03.245, 0.888, -0.065, 0.431, -0.122, 0.122, 0, -8.734, -63.726, -147.118, -28.853, -9.113, -7.473, 29.16, 0.20178, -0.52319, -0.08737, -0.8233,
 17:36:02.361,f6:90:cc:01:6d:25, 2015-01-01 03:57:03.245, 0.888, -0.063, 0.432, -0.305, 0.183, 0, -8.74, -63.721, -147.129, -28.853, -9.113, -7.473, 29.16, 0.20178, -0.52319, -0.08737, -0.8233,
 17:36:02.361,f6:90:cc:01:6d:25, 2015-01-01 03:57:03.245, 0.888, -0.068, 0.429, -0.366, 0.305, 0, -8.745, -63.715, -147.14, -28.853, -9.113, -7.473, 29.16, 0.20178, -0.52319, -0.08737, -0.8233,
 17:36:02.361,f6:90:cc:01:6d:25, 2015-01-01 03:57:03.245, 0.888, -0.063, 0.432, -0.305, 0.183, 0, -8.74, -63.721, -147.129, -28.853, -9.113, -7.473, 29.16, 0.20178, -0.52319, -0.08737, -0.8233,
 17:36:02.361,f6:90:cc:01:6d:25, 2015-01-01 03:57:03.245, 0.888, -0.068, 0.429, -0.366, 0.305, 0, -8.745, -63.715, -147.14, -28.853, -9.113, -7.473, 29.16, 0.20178, -0.52319, -0.08737, -0.8233,
 17:36:02.361,f6:90:cc:01:6d:25, 2015-01-01 03:57:03.245, 0.888, -0.063, 0.432, -0.305, 0.183, 0, -8.74, -63.721, -147.129, -28.853, -9.113, -7.473, 29.16, 0.20178, -0.52319, -0.08737, -0.8233,
 17:36:02.384,e3:ca:2d:fd:e0:8c, 2015-01-01 03:57:12.345, 0.971, 0.025, 0.317, -0.183, 0, 0, 4.197, -71.834, 152.721, -24.907, -11.033, -12.573, 26.15, -0.17001, -0.57666, 0.10947, -0.79147,
 17:36:02.384,e3:ca:2d:fd:e0:8c, 2015-01-01 03:57:12.345, 0.97, 0.026, 0.316, -0.061, -0.061, 0, 4.202, -71.834, 152.721, -24.907, -11.033, -12.573, 26.15, -0.17001, -0.57666, 0.10947, -0.79147,
 17:36:02.384,e3:ca:2d:fd:e0:8c, 2015-01-01 03:57:12.345, 0.971, 0.026, 0.314, -0.488, -0.122, 0, 4.197, -71.84, 152.721, -24.907, -11.033, -12.573, 26.15, -0.17001, -0.57666, 0.10947, -0.79147,
 17:36:02.384,e3:ca:2d:fd:e0:8c, 2015-01-01 03:57:12.345, 0.97, 0.026, 0.316, -0.061, -0.061, 0, 4.202, -71.834, 152.721, -24.907, -11.033, -12.573, 26.15, -0.17001, -0.57666, 0.10947, -0.79147,
 17:36:02.384,e3:ca:2d:fd:e0:8c, 2015-01-01 03:57:12.345, 0.971, 0.026, 0.314, -0.488, -0.122, 0, 4.197, -71.84, 152.721, -24.907, -11.033, -12.573, 26.15, -0.17001, -0.57666, 0.10947, -0.79147,
 17:36:02.384,e3:ca:2d:fd:e0:8c, 2015-01-01 03:57:12.345, 0.97, 0.026, 0.316, -0.061, -0.061, 0, 4.202, -71.834, 152.721, -24.907, -11.033, -12.573, 26.15, -0.17001, -0.57666, 0.10947, -0.79147,
 17:36:02.388,ed:35:33:d3:6c:f8, 2015-01-01 03:56:53.120, 0.28, 0.181, 0.939, -0.793, -0.549, -0.427, 11.08, -16.216, 158.719, -6.860, -13.913, -32.627, 24.63, 0.16827, 0.1561, 0.06796, 0.97089,
 17:36:02.388,ed:35:33:d3:6c:f8, 2015-01-01 03:56:53.120, 0.28, 0.19, 0.938, -0.916, -1.038, -0.366, 11.069, -16.238, 158.692, -6.860, -13.913, -32.627, 24.63, 0.16827, 0.1561, 0.06796, 0.97089,
 17:36:02.388,ed:35:33:d3:6c:f8, 2015-01-01 03:56:53.120, 0.28, 0.189, 0.939, -0.366, -0.671, 1.526, 11.052, -16.254, 158.703, -6.860, -13.913, -32.627, 24.63, 0.16827, 0.1561, 0.06796, 0.97089,
 17:36:02.388,ed:35:33:d3:6c:f8, 2015-01-01 03:56:53.120, 0.28, 0.19, 0.938, -0.916, -1.038, -0.366, 11.069, -16.238, 158.692, -6.860, -13.913, -32.627, 24.63, 0.16827, 0.1561, 0.06796, 0.97089,
 17:36:02.388,ed:35:33:d3:6c:f8, 2015-01-01 03:56:53.120, 0.28, 0.189, 0.939, -0.366, -0.671, 1.526, 11.052, -16.254, 158.703, -6.860, -13.913, -32.627, 24.63, 0.16827, 0.1561, 0.06796, 0.97089,
 17:36:02.388,ed:35:33:d3:6c:f8, 2015-01-01 03:56:53.120, 0.28, 0.19, 0.938, -0.916, -1.038, -0.366, 11.069, -16.238, 158.692, -6.860, -13.913, -32.627, 24.63, 0.16827, 0.1561, 0.06796, 0.97089,
 17:36:02.414,ed:40:fe:65:30:6c, 2015-01-01 03:57:17.580, 0.464, 0.112, 0.88, 0.488, 0.244, 0.183, 7.284, -27.598, -136.609, -15.200, -11.660, -7.240, 25.41, -0.37164, 0.19846, 0.14514, 0.89517,
 17:36:02.414,ed:40:fe:65:30:6c, 2015-01-01 03:57:17.580, 0.464, 0.108, 0.881, 0.793, 0.183, 0.671, 7.295, -27.592, -136.593, -15.200, -11.660, -7.240, 25.41, -0.37164, 0.19846, 0.14514, 0.89517,
 17:36:02.414,ed:40:fe:65:30:6c, 2015-01-01 03:57:17.580, 0.464, 0.107, 0.879, 0.671, 0.305, 0.854, 7.3, -27.592, -136.571, -15.200, -11.660, -7.240, 25.41, -0.37164, 0.19846, 0.14514, 0.89517,
 17:36:02.414,ed:40:fe:65:30:6c, 2015-01-01 03:57:17.580, 0.464, 0.108, 0.881, 0.793, 0.183, 0.671, 7.295, -27.592, -136.593, -15.200, -11.660, -7.240, 25.41, -0.37164, 0.19846, 0.14514, 0.89517,
 17:36:02.414,ed:40:fe:65:30:6c, 2015-01-01 03:57:17.580, 0.464, 0.107, 0.879, 0.671, 0.305, 0.854, 7.3, -27.592, -136.571, -15.200, -11.660, -7.240, 25.41, -0.37164, 0.19846, 0.14514, 0.89517,
 17:36:02.414,ed:40:fe:65:30:6c, 2015-01-01 03:57:17.580, 0.464, 0.108, 0.881, 0.793, 0.183, 0.671, 7.295, -27.592, -136.593, -15.200, -11.660, -7.240, 25.41, -0.37164, 0.19846, 0.14514, 0.89517,
 17:36:02.418,ed:35:33:d3:6c:f8, 2015-01-01 03:56:53.120, 0.281, 0.189, 0.939, -0.366, -0.671, 1.526, 11.052, -16.254, 158.703, -6.853, -14.140, -32.833, 24.63, 0.16827, 0.1561, 0.06796, 0.97089,
 17:36:02.418,ed:35:33:d3:6c:f8, 2015-01-01 03:56:53.120, 0.28, 0.18, 0.94, -0.061, 0.305, 1.892, 11.041, -16.254, 158.719, -6.853, -14.140, -32.833, 24.63, 0.16827, 0.1561, 0.06796, 0.97089,
 17:36:02.418,ed:35:33:d3:6c:f8, 2015-01-01 03:56:53.120, 0.281, 0.178, 0.94, -0.854, -0.366, 1.404, 11.019, -16.265, 158.725, -6.853, -14.140, -32.833, 24.63, 0.16827, 0.1561, 0.06796, 0.97089,
 17:36:02.418,ed:35:33:d3:6c:f8, 2015-01-01 03:56:53.120, 0.28, 0.18, 0.94, -0.061, 0.305, 1.892, 11.041, -16.254, 158.719, -6.853, -14.140, -32.833, 24.63, 0.16827, 0.1561, 0.06796, 0.97089,
 17:36:02.418,ed:35:33:d3:6c:f8, 2015-01-01 03:56:53.120, 0.281, 0.178, 0.94, -0.854, -0.366, 1.404, 11.019, -16.265, 158.725, -6.853, -14.140, -32.833, 24.63, 0.16827, 0.1561, 0.06796, 0.97089,
 17:36:02.418,ed:35:33:d3:6c:f8, 2015-01-01 03:56:53.120, 0.28, 0.18, 0.94, -0.061, 0.305, 1.892, 11.041, -16.254, 158.719, -6.853, -14.140, -32.833, 24.63, 0.16827, 0.1561, 0.06796, 0.97089,
 17:36:02.442,e3:ca:2d:fd:e0:8c, 2015-01-01 03:57:12.345, 0.969, 0.026, 0.314, -0.488, -0.122, 0, 4.197, -71.84, 152.721, -24.907, -11.033, -12.573, 26.15, -0.17001, -0.57666, 0.10947, -0.79147,
 17:36:02.442,e3:ca:2d:fd:e0:8c, 2015-01-01 03:57:12.345, 0.969, 0.026, 0.316, -0.305, -0.244, 0, 4.197, -71.845, 152.721, -24.907, -11.033, -12.573, 26.15, -0.17001, -0.57666, 0.10947, -0.79147,
 17:36:02.442,e3:ca:2d:fd:e0:8c, 2015-01-01 03:57:12.345, 0.969, 0.027, 0.318, 0, 0, 0, 4.202, -71.845, 152.721, -24.907, -11.033, -12.573, 26.15, -0.17001, -0.57666, 0.10947, -0.79147,
 17:36:02.442,e3:ca:2d:fd:e0:8c, 2015-01-01 03:57:12.345, 0.969, 0.026, 0.316, -0.305, -0.244, 0, 4.197, -71.845, 152.721, -24.907, -11.033, -12.573, 26.15, -0.17001, -0.57666, 0.10947, -0.79147,
 17:36:02.442,e3:ca:2d:fd:e0:8c, 2015-01-01 03:57:12.345, 0.969, 0.027, 0.318, 0, 0, 0, 4.202, -71.845, 152.721, -24.907, -11.033, -12.573, 26.15, -0.17001, -0.57666, 0.10947, -0.79147,
 17:36:02.442,e3:ca:2d:fd:e0:8c, 2015-01-01 03:57:12.345, 0.969, 0.026, 0.316, -0.305, -0.244, 0, 4.197, -71.845, 152.721, -24.907, -11.033, -12.573, 26.15, -0.17001, -0.57666, 0.10947, -0.79147,
 17:36:02.446,ed:40:fe:65:30:6c, 2015-01-01 03:57:17.580, 0.464, 0.107, 0.879, 0.671, 0.305, 0.854, 7.3, -27.592, -136.571, -15.200, -11.660, -7.240, 25.41, -0.37164, 0.19846, 0.14514, 0.89517,
 17:36:02.446,ed:40:fe:65:30:6c, 2015-01-01 03:57:17.580, 0.462, 0.11, 0.878, 0.549, 0.427, 0.671, 7.3, -27.587, -136.544, -15.200, -11.660, -7.240, 25.41, -0.37164, 0.19846, 0.14514, 0.89517,
 17:36:02.446,ed:40:fe:65:30:6c, 2015-01-01 03:57:17.580, 0.464, 0.112, 0.878, 0.488, 0.549, 0.488, 7.306, -27.581, -136.522, -15.200, -11.660, -7.240, 25.41, -0.37164, 0.19846, 0.14514, 0.89517,
 17:36:02.446,ed:40:fe:65:30:6c, 2015-01-01 03:57:17.580, 0.462, 0.11, 0.878, 0.549, 0.427, 0.671, 7.3, -27.587, -136.544, -15.200, -11.660, -7.240, 25.41, -0.37164, 0.19846, 0.14514, 0.89517,
 17:36:02.446,ed:40:fe:65:30:6c, 2015-01-01 03:57:17.580, 0.464, 0.112, 0.878, 0.488, 0.549, 0.488, 7.306, -27.581, -136.522, -15.200, -11.660, -7.240, 25.41, -0.37164, 0.19846, 0.14514, 0.89517,
 17:36:02.446,ed:40:fe:65:30:6c, 2015-01-01 03:57:17.580, 0.462, 0.11, 0.878, 0.549, 0.427, 0.671, 7.3, -27.587, -136.544, -15.200, -11.660, -7.240, 25.41, -0.37164, 0.19846, 0.14514, 0.89517,
 17:36:02.450,f6:90:cc:01:6d:25, 2015-01-01 03:57:03.245, 0.886, -0.068, 0.429, -0.366, 0.305, 0, -8.745, -63.715, -147.14, -28.860, -9.140, -8.113, 29.16, 0.20178, -0.52319, -0.08737, -0.8233,
 17:36:02.450,f6:90:cc:01:6d:25, 2015-01-01 03:57:03.245, 0.886, -0.072, 0.432, 0.305, 0, -0.305, -8.734, -63.715, -147.156, -28.860, -9.140, -8.113, 29.16, 0.20178, -0.52319, -0.08737, -0.8233,
 17:36:02.450,f6:90:cc:01:6d:25, 2015-01-01 03:57:03.245, 0.886, -0.069, 0.432, 0.854, -0.122, -0.549, -8.701, -63.721, -147.184, -28.860, -9.140, -8.113, 29.16, 0.20178, -0.52319, -0.08737, -0.8233,
 17:36:02.450,f6:90:cc:01:6d:25, 2015-01-01 03:57:03.245, 0.886, -0.072, 0.432, 0.305, 0, -0.305, -8.734, -63.715, -147.156, -28.860, -9.140, -8.113, 29.16, 0.20178, -0.52319, -0.08737, -0.8233,
 17:36:02.450,f6:90:cc:01:6d:25, 2015-01-01 03:57:03.245, 0.886, -0.069, 0.432, 0.854, -0.122, -0.549, -8.701, -63.721, -147.184, -28.860, -9.140, -8.113, 29.16, 0.20178, -0.52319, -0.08737, -0.8233,
 17:36:02.450,f6:90:cc:01:6d:25, 2015-01-01 03:57:03.245, 0.886, -0.072, 0.432, 0.305, 0, -0.305, -8.734, -63.715, -147.156, -28.860, -9.140, -8.113, 29.16, 0.20178, -0.52319, -0.08737, -0.8233,
 17:36:02.471,e3:ca:2d:fd:e0:8c, 2015-01-01 03:57:12.345, 0.969, 0.027, 0.318, 0, 0, 0, 4.202, -71.845, 152.721, -24.907, -11.033, -12.573, 26.15, -0.17001, -0.57666, 0.10947, -0.79147,
 17:36:02.471,e3:ca:2d:fd:e0:8c, 2015-01-01 03:57:12.345, 0.968, 0.022, 0.318, 0.427, 0.061, 0, 4.219, -71.845, 152.721, -24.907, -11.033, -12.573, 26.15, -0.17001, -0.57666, 0.10947, -0.79147,
 17:36:02.471,e3:ca:2d:fd:e0:8c, 2015-01-01 03:57:12.345, 0.969, 0.023, 0.318, 0.366, 0.122, -0.305, 4.246, -71.84, 152.704, -24.907, -11.033, -12.573, 26.15, -0.17001, -0.57666, 0.10947, -0.79147,
 17:36:02.471,e3:ca:2d:fd:e0:8c, 2015-01-01 03:57:12.345, 0.968, 0.022, 0.318, 0.427, 0.061, 0, 4.219, -71.845, 152.721, -24.907, -11.033, -12.573, 26.15, -0.17001, -0.57666, 0.10947, -0.79147,
 17:36:02.471,e3:ca:2d:fd:e0:8c, 2015-01-01 03:57:12.345, 0.969, 0.023, 0.318, 0.366, 0.122, -0.305, 4.246, -71.84, 152.704, -24.907, -11.033, -12.573, 26.15, -0.17001, -0.57666, 0.10947, -0.79147,
 17:36:02.471,e3:ca:2d:fd:e0:8c, 2015-01-01 03:57:12.345, 0.968, 0.022, 0.318, 0.427, 0.061, 0, 4.219, -71.845, 152.721, -24.907, -11.033, -12.573, 26.15, -0.17001, -0.57666, 0.10947, -0.79147,
 17:36:02.478,ed:35:33:d3:6c:f8, 2015-01-01 03:56:53.120, 0.28, 0.178, 0.94, -0.854, -0.366, 1.404, 11.019, -16.265, 158.725, -6.853, -14.140, -32.833, 24.63, 0.16827, 0.1561, 0.06796, 0.97089,
 17:36:02.478,ed:35:33:d3:6c:f8, 2015-01-01 03:56:53.120, 0.278, 0.178, 0.938, -0.61, -0.366, 1.038, 11.003, -16.276, 158.73, -6.853, -14.140, -32.833, 24.63, 0.16827, 0.1561, 0.06796, 0.97089,
 17:36:02.478,ed:35:33:d3:6c:f8, 2015-01-01 03:56:53.120, 0.28, 0.181, 0.938, -0.488, 0.183, 0.244, 10.992, -16.276, 158.73, -6.853, -14.140, -32.833, 24.63, 0.16827, 0.1561, 0.06796, 0.97089,
 17:36:02.478,ed:35:33:d3:6c:f8, 2015-01-01 03:56:53.120, 0.278, 0.178, 0.938, -0.61, -0.366, 1.038, 11.003, -16.276, 158.73, -6.853, -14.140, -32.833, 24.63, 0.16827, 0.1561, 0.06796, 0.97089,
 17:36:02.478,ed:35:33:d3:6c:f8, 2015-01-01 03:56:53.120, 0.28, 0.181, 0.938, -0.488, 0.183, 0.244, 10.992, -16.276, 158.73, -6.853, -14.140, -32.833, 24.63, 0.16827, 0.1561, 0.06796, 0.97089,
 17:36:02.478,ed:35:33:d3:6c:f8, 2015-01-01 03:56:53.120, 0.278, 0.178, 0.938, -0.61, -0.366, 1.038, 11.003, -16.276, 158.73, -6.853, -14.140, -32.833, 24.63, 0.16827, 0.1561, 0.06796, 0.97089,
 17:36:02.480,f6:90:cc:01:6d:25, 2015-01-01 03:57:03.245, 0.886, -0.069, 0.432, 0.854, -0.122, -0.549, -8.701, -63.721, -147.184, -28.860, -9.140, -8.113, 29.16, 0.20071, -0.5231, -0.08682, -0.82367,
 17:36:02.480,f6:90:cc:01:6d:25, 2015-01-01 03:57:03.245, 0.886, -0.066, 0.433, 0.977, -0.061, -0.671, -8.663, -63.726, -147.222, -28.860, -9.140, -8.113, 29.16, 0.20071, -0.5231, -0.08682, -0.82367,
 17:36:02.480,f6:90:cc:01:6d:25, 2015-01-01 03:57:03.245, 0.886, -0.066, 0.433, 0.977, 0.122, -0.671, -8.619, -63.726, -147.261, -28.860, -9.140, -8.113, 29.16, 0.20071, -0.5231, -0.08682, -0.82367,
 17:36:02.480,f6:90:cc:01:6d:25, 2015-01-01 03:57:03.245, 0.886, -0.066, 0.433, 0.977, -0.061, -0.671, -8.663, -63.726, -147.222, -28.860, -9.140, -8.113, 29.16, 0.20071, -0.5231, -0.08682, -0.82367,
 17:36:02.480,f6:90:cc:01:6d:25, 2015-01-01 03:57:03.245, 0.886, -0.066, 0.433, 0.977, 0.122, -0.671, -8.619, -63.726, -147.261, -28.860, -9.140, -8.113, 29.16, 0.20071, -0.5231, -0.08682, -0.82367,
 17:36:02.480,f6:90:cc:01:6d:25, 2015-01-01 03:57:03.245, 0.886, -0.066, 0.433, 0.977, -0.061, -0.671, -8.663, -63.726, -147.222, -28.860, -9.140, -8.113, 29.16, 0.20071, -0.5231, -0.08682, -0.82367,
 17:36:02.480,f6:90:cc:01:6d:25, 2015-01-01 03:57:03.245, 0.886, -0.066, 0.433, 0.977, 0.122, -0.671, -8.619, -63.726, -147.261, -28.860, -9.140, -8.113, 29.16, 0.20071, -0.5231, -0.08682, -0.82367,
 17:36:02.480,f6:90:cc:01:6d:25, 2015-01-01 03:57:03.245, 0.886, -0.064, 0.432, 0.793, 0.183, -0.671, -8.575, -63.726, -147.299, -28.860, -9.140, -8.113, 29.16, 0.20071, -0.5231, -0.08682, -0.82367,
 17:36:02.480,f6:90:cc:01:6d:25, 2015-01-01 03:57:03.245, 0.886, -0.06, 0.432, 0.549, 0.305, -0.549, -8.542, -63.721, -147.332, -28.860, -9.140, -8.113, 29.16, 0.20071, -0.5231, -0.08682, -0.82367,
 17:36:02.480,f6:90:cc:01:6d:25, 2015-01-01 03:57:03.245, 0.886, -0.064, 0.432, 0.793, 0.183, -0.671, -8.575, -63.726, -147.299, -28.860, -9.140, -8.113, 29.16, 0.20071, -0.5231, -0.08682, -0.82367,
 17:36:02.480,f6:90:cc:01:6d:25, 2015-01-01 03:57:03.245, 0.886, -0.06, 0.432, 0.549, 0.305, -0.549, -8.542, -63.721, -147.332, -28.860, -9.140, -8.113, 29.16, 0.20071, -0.5231, -0.08682, -0.82367,
 17:36:02.480,f6:90:cc:01:6d:25, 2015-01-01 03:57:03.245, 0.886, -0.064, 0.432, 0.793, 0.183, -0.671, -8.575, -63.726, -147.299, -28.860, -9.140, -8.113, 29.16, 0.20071, -0.5231, -0.08682, -0.82367,
 17:36:02.500,e3:ca:2d:fd:e0:8c, 2015-01-01 03:57:12.345, 0.969, 0.023, 0.318, 0.366, 0.122, -0.305, 4.246, -71.84, 152.704, -24.860, -10.653, -12.187, 26.15, -0.17001, -0.57666, 0.10947, -0.79147,
 17:36:02.500,e3:ca:2d:fd:e0:8c, 2015-01-01 03:57:12.345, 0.968, 0.026, 0.317, 0.366, 0.244, -0.244, 4.268, -71.834, 152.688, -24.860, -10.653, -12.187, 26.15, -0.17001, -0.57666, 0.10947, -0.79147,
 17:36:02.500,e3:ca:2d:fd:e0:8c, 2015-01-01 03:57:12.345, 0.969, 0.024, 0.317, 0.305, 0.366, -0.244, 4.29, -71.829, 152.677, -24.860, -10.653, -12.187, 26.15, -0.17001, -0.57666, 0.10947, -0.79147,
 17:36:02.500,e3:ca:2d:fd:e0:8c, 2015-01-01 03:57:12.345, 0.968, 0.026, 0.317, 0.366, 0.244, -0.244, 4.268, -71.834, 152.688, -24.860, -10.653, -12.187, 26.15, -0.17001, -0.57666, 0.10947, -0.79147,
 17:36:02.500,e3:ca:2d:fd:e0:8c, 2015-01-01 03:57:12.345, 0.969, 0.024, 0.317, 0.305, 0.366, -0.244, 4.29, -71.829, 152.677, -24.860, -10.653, -12.187, 26.15, -0.17001, -0.57666, 0.10947, -0.79147,
 17:36:02.500,e3:ca:2d:fd:e0:8c, 2015-01-01 03:57:12.345, 0.968, 0.026, 0.317, 0.366, 0.244, -0.244, 4.268, -71.834, 152.688, -24.860, -10.653, -12.187, 26.15, -0.17001, -0.57666, 0.10947, -0.79147,
 17:36:02.507,ed:35:33:d3:6c:f8, 2015-01-01 03:56:53.120, 0.281, 0.181, 0.938, -0.488, 0.183, 0.244, 10.992, -16.276, 158.73, -6.853, -14.140, -32.833, 24.63, 0.16852, 0.15601, 0.06714, 0.97092,
 17:36:02.507,ed:35:33:d3:6c:f8, 2015-01-01 03:56:53.120, 0.28, 0.185, 0.937, -0.854, -0.366, 0.427, 10.97, -16.287, 158.719, -6.853, -14.140, -32.833, 24.63, 0.16852, 0.15601, 0.06714, 0.97092,
 17:36:02.507,ed:35:33:d3:6c:f8, 2015-01-01 03:56:53.120, 0.281, 0.182, 0.94, -0.244, -0.305, 0.549, 10.964, -16.293, 158.708, -6.853, -14.140, -32.833, 24.63, 0.16852, 0.15601, 0.06714, 0.97092,
 17:36:02.507,ed:35:33:d3:6c:f8, 2015-01-01 03:56:53.120, 0.28, 0.185, 0.937, -0.854, -0.366, 0.427, 10.97, -16.287, 158.719, -6.853, -14.140, -32.833, 24.63, 0.16852, 0.15601, 0.06714, 0.97092,
 17:36:02.507,ed:35:33:d3:6c:f8, 2015-01-01 03:56:53.120, 0.281, 0.182, 0.94, -0.244, -0.305, 0.549, 10.964, -16.293, 158.708, -6.853, -14.140, -32.833, 24.63, 0.16852, 0.15601, 0.06714, 0.97092,
 17:36:02.507,ed:35:33:d3:6c:f8, 2015-01-01 03:56:53.120, 0.28, 0.185, 0.937, -0.854, -0.366, 0.427, 10.97, -16.287, 158.719, -6.853, -14.140, -32.833, 24.63, 0.16852, 0.15601, 0.06714, 0.97092,
 17:36:02.507,ed:40:fe:65:30:6c, 2015-01-01 03:57:17.580, 0.463, 0.112, 0.878, 0.488, 0.549, 0.488, 7.306, -27.581, -136.522, -15.200, -11.660, -7.240, 25.41, -0.37164, 0.19846, 0.14514, 0.89517,
 17:36:02.507,ed:40:fe:65:30:6c, 2015-01-01 03:57:17.580, 0.462, 0.112, 0.878, 0.244, 0.671, 0.366, 7.306, -27.57, -136.505, -15.200, -11.660, -7.240, 25.41, -0.37164, 0.19846, 0.14514, 0.89517,
 17:36:02.508,ed:40:fe:65:30:6c, 2015-01-01 03:57:17.580, 0.463, 0.116, 0.878, 0.305, 0.549, 0.183, 7.306, -27.559, -136.489, -15.200, -11.660, -7.240, 25.41, -0.37164, 0.19846, 0.14514, 0.89517,
 17:36:02.508,ed:40:fe:65:30:6c, 2015-01-01 03:57:17.580, 0.462, 0.112, 0.878, 0.244, 0.671, 0.366, 7.306, -27.57, -136.505, -15.200, -11.660, -7.240, 25.41, -0.37164, 0.19846, 0.14514, 0.89517,
 17:36:02.508,ed:40:fe:65:30:6c, 2015-01-01 03:57:17.580, 0.463, 0.116, 0.878, 0.305, 0.549, 0.183, 7.306, -27.559, -136.489, -15.200, -11.660, -7.240, 25.41, -0.37164, 0.19846, 0.14514, 0.89517,
 17:36:02.508,ed:40:fe:65:30:6c, 2015-01-01 03:57:17.580, 0.462, 0.112, 0.878, 0.244, 0.671, 0.366, 7.306, -27.57, -136.505, -15.200, -11.660, -7.240, 25.41, -0.37164, 0.19846, 0.14514, 0.89517,
 17:36:02.534,ed:40:fe:65:30:6c, 2015-01-01 03:57:17.580, 0.462, 0.116, 0.878, 0.305, 0.549, 0.183, 7.306, -27.559, -136.489, -15.640, -11.287, -6.900, 25.41, -0.37164, 0.19846, 0.14514, 0.89517,
 17:36:02.534,ed:40:fe:65:30:6c, 2015-01-01 03:57:17.580, 0.462, 0.117, 0.879, 0.061, 0.244, -0.061, 7.306, -27.554, -136.483, -15.640, -11.287, -6.900, 25.41, -0.37164, 0.19846, 0.14514, 0.89517,
 17:36:02.534,ed:40:fe:65:30:6c, 2015-01-01 03:57:17.580, 0.462, 0.117, 0.877, -0.305, 0.122, -0.305, 7.306, -27.548, -136.483, -15.640, -11.287, -6.900, 25.41, -0.37164, 0.19846, 0.14514, 0.89517,
 17:36:02.534,ed:40:fe:65:30:6c, 2015-01-01 03:57:17.580, 0.462, 0.117, 0.879, 0.061, 0.244, -0.061, 7.306, -27.554, -136.483, -15.640, -11.287, -6.900, 25.41, -0.37164, 0.19846, 0.14514, 0.89517,
 17:36:02.534,ed:40:fe:65:30:6c, 2015-01-01 03:57:17.580, 0.462, 0.117, 0.877, -0.305, 0.122, -0.305, 7.306, -27.548, -136.483, -15.640, -11.287, -6.900, 25.41, -0.37164, 0.19846, 0.14514, 0.89517,
 17:36:02.534,ed:40:fe:65:30:6c, 2015-01-01 03:57:17.580, 0.462, 0.117, 0.879, 0.061, 0.244, -0.061, 7.306, -27.554, -136.483, -15.640, -11.287, -6.900, 25.41, -0.37164, 0.19846, 0.14514, 0.89517,
 17:36:02.538,ed:35:33:d3:6c:f8, 2015-01-01 03:56:53.120, 0.278, 0.182, 0.94, -0.244, -0.305, 0.549, 10.964, -16.293, 158.708, -6.853, -14.140, -32.833, 24.63, 0.16852, 0.15601, 0.06714, 0.97092,
 17:36:02.538,ed:35:33:d3:6c:f8, 2015-01-01 03:56:53.120, 0.281, 0.183, 0.938, 0, 0, -0.732, 10.97, -16.293, 158.692, -6.853, -14.140, -32.833, 24.63, 0.16852, 0.15601, 0.06714, 0.97092,
 17:36:02.538,ed:35:33:d3:6c:f8, 2015-01-01 03:56:53.120, 0.278, 0.186, 0.938, 0.122, 0.488, -1.587, 10.981, -16.276, 158.659, -6.853, -14.140, -32.833, 24.63, 0.16852, 0.15601, 0.06714, 0.97092,
 17:36:02.538,ed:35:33:d3:6c:f8, 2015-01-01 03:56:53.120, 0.281, 0.183, 0.938, 0, 0, -0.732, 10.97, -16.293, 158.692, -6.853, -14.140, -32.833, 24.63, 0.16852, 0.15601, 0.06714, 0.97092,
 17:36:02.538,ed:35:33:d3:6c:f8, 2015-01-01 03:56:53.120, 0.278, 0.186, 0.938, 0.122, 0.488, -1.587, 10.981, -16.276, 158.659, -6.853, -14.140, -32.833, 24.63, 0.16852, 0.15601, 0.06714, 0.97092,
 17:36:02.538,ed:35:33:d3:6c:f8, 2015-01-01 03:56:53.120, 0.281, 0.183, 0.938, 0, 0, -0.732, 10.97, -16.293, 158.692, -6.853, -14.140, -32.833, 24.63, 0.16852, 0.15601, 0.06714, 0.97092,
 17:36:02.540,f6:90:cc:01:6d:25, 2015-01-01 03:57:03.245, 0.886, -0.06, 0.432, 0.549, 0.305, -0.549, -8.542, -63.721, -147.332, -28.860, -9.140, -8.113, 29.16, 0.20071, -0.5231, -0.08682, -0.82367,
 17:36:02.540,f6:90:cc:01:6d:25, 2015-01-01 03:57:03.245, 0.886, -0.062, 0.433, 0.183, 0.366, -0.305, -8.52, -63.715, -147.36, -28.860, -9.140, -8.113, 29.16, 0.20071, -0.5231, -0.08682, -0.82367,
 17:36:02.540,f6:90:cc:01:6d:25, 2015-01-01 03:57:03.245, 0.886, -0.062, 0.432, -0.061, 0.488, -0.122, -8.509, -63.71, -147.382, -28.860, -9.140, -8.113, 29.16, 0.20071, -0.5231, -0.08682, -0.82367,
 17:36:02.540,f6:90:cc:01:6d:25, 2015-01-01 03:57:03.245, 0.886, -0.062, 0.433, 0.183, 0.366, -0.305, -8.52, -63.715, -147.36, -28.860, -9.140, -8.113, 29.16, 0.20071, -0.5231, -0.08682, -0.82367,
 17:36:02.540,f6:90:cc:01:6d:25, 2015-01-01 03:57:03.245, 0.886, -0.062, 0.432, -0.061, 0.488, -0.122, -8.509, -63.71, -147.382, -28.860, -9.140, -8.113, 29.16, 0.20071, -0.5231, -0.08682, -0.82367,
 17:36:02.540,f6:90:cc:01:6d:25, 2015-01-01 03:57:03.245, 0.886, -0.062, 0.433, 0.183, 0.366, -0.305, -8.52, -63.715, -147.36, -28.860, -9.140, -8.113, 29.16, 0.20071, -0.5231, -0.08682, -0.82367,
 17:36:02.563,e3:ca:2d:fd:e0:8c, 2015-01-01 03:57:12.345, 0.969, 0.024, 0.317, 0.305, 0.366, -0.244, 4.29, -71.829, 152.677, -24.860, -10.653, -12.187, 26.15, -0.17001, -0.57666, 0.10947, -0.79147,
 17:36:02.563,e3:ca:2d:fd:e0:8c, 2015-01-01 03:57:12.345, 0.968, 0.022, 0.317, 0.305, 0.427, -0.061, 4.301, -71.818, 152.677, -24.860, -10.653, -12.187, 26.15, -0.17001, -0.57666, 0.10947, -0.79147,
 17:36:02.563,e3:ca:2d:fd:e0:8c, 2015-01-01 03:57:12.345, 0.969, 0.023, 0.316, 0.183, 0.366, 0.061, 4.301, -71.812, 152.682, -24.860, -10.653, -12.187, 26.15, -0.17001, -0.57666, 0.10947, -0.79147,
 17:36:02.563,e3:ca:2d:fd:e0:8c, 2015-01-01 03:57:12.345, 0.968, 0.022, 0.317, 0.305, 0.427, -0.061, 4.301, -71.818, 152.677, -24.860, -10.653, -12.187, 26.15, -0.17001, -0.57666, 0.10947, -0.79147,
 17:36:02.563,e3:ca:2d:fd:e0:8c, 2015-01-01 03:57:12.345, 0.969, 0.023, 0.316, 0.183, 0.366, 0.061, 4.301, -71.812, 152.682, -24.860, -10.653, -12.187, 26.15, -0.17001, -0.57666, 0.10947, -0.79147,
 17:36:02.563,e3:ca:2d:fd:e0:8c, 2015-01-01 03:57:12.345, 0.968, 0.022, 0.317, 0.305, 0.427, -0.061, 4.301, -71.818, 152.677, -24.860, -10.653, -12.187, 26.15, -0.17001, -0.57666, 0.10947, -0.79147,
 17:36:02.565,ed:40:fe:65:30:6c, 2015-01-01 03:57:17.580, 0.461, 0.117, 0.877, -0.305, 0.122, -0.305, 7.306, -27.548, -136.483, -15.640, -11.287, -6.900, 25.41, -0.37164, 0.19846, 0.14514, 0.89517,
 17:36:02.565,ed:40:fe:65:30:6c, 2015-01-01 03:57:17.580, 0.461, 0.117, 0.881, -0.366, 0.061, -0.305, 7.3, -27.548, -136.483, -15.640, -11.287, -6.900, 25.41, -0.37164, 0.19846, 0.14514, 0.89517,
 17:36:02.565,ed:40:fe:65:30:6c, 2015-01-01 03:57:17.580, 0.461, 0.115, 0.884, -0.549, 0.122, -0.183, 7.295, -27.543, -136.483, -15.640, -11.287, -6.900, 25.41, -0.37164, 0.19846, 0.14514, 0.89517,
 17:36:02.565,ed:40:fe:65:30:6c, 2015-01-01 03:57:17.580, 0.461, 0.117, 0.881, -0.366, 0.061, -0.305, 7.3, -27.548, -136.483, -15.640, -11.287, -6.900, 25.41, -0.37164, 0.19846, 0.14514, 0.89517,
 17:36:02.565,ed:40:fe:65:30:6c, 2015-01-01 03:57:17.580, 0.461, 0.115, 0.884, -0.549, 0.122, -0.183, 7.295, -27.543, -136.483, -15.640, -11.287, -6.900, 25.41, -0.37164, 0.19846, 0.14514, 0.89517,
 17:36:02.565,ed:40:fe:65:30:6c, 2015-01-01 03:57:17.580, 0.461, 0.117, 0.881, -0.366, 0.061, -0.305, 7.3, -27.548, -136.483, -15.640, -11.287, -6.900, 25.41, -0.37164, 0.19846, 0.14514, 0.89517,
 17:36:02.570,f6:90:cc:01:6d:25, 2015-01-01 03:57:04.255, 0.885, -0.062, 0.432, -0.061, 0.488, -0.122, -8.509, -63.71, -147.382, -28.860, -9.140, -8.113, 29.16, 0.20071, -0.5231, -0.08682, -0.82367,
 17:36:02.570,f6:90:cc:01:6d:25, 2015-01-01 03:57:04.255, 0.886, -0.063, 0.433, -0.366, 0.549, 0.061, -8.514, -63.699, -147.387, -28.860, -9.140, -8.113, 29.16, 0.20071, -0.5231, -0.08682, -0.82367,
 17:36:02.570,f6:90:cc:01:6d:25, 2015-01-01 03:57:04.255, 0.885, -0.066, 0.433, -0.366, 0.366, 0.122, -8.52, -63.688, -147.393, -28.860, -9.140, -8.113, 29.16, 0.20071, -0.5231, -0.08682, -0.82367,
 17:36:02.570,f6:90:cc:01:6d:25, 2015-01-01 03:57:04.255, 0.886, -0.063, 0.433, -0.366, 0.549, 0.061, -8.514, -63.699, -147.387, -28.860, -9.140, -8.113, 29.16, 0.20071, -0.5231, -0.08682, -0.82367,
 17:36:02.570,f6:90:cc:01:6d:25, 2015-01-01 03:57:04.255, 0.885, -0.066, 0.433, -0.366, 0.366, 0.122, -8.52, -63.688, -147.393, -28.860, -9.140, -8.113, 29.16, 0.20071, -0.5231, -0.08682, -0.82367,
 17:36:02.570,f6:90:cc:01:6d:25, 2015-01-01 03:57:04.255, 0.886, -0.063, 0.433, -0.366, 0.549, 0.061, -8.514, -63.699, -147.387, -28.860, -9.140, -8.113, 29.16, 0.20071, -0.5231, -0.08682, -0.82367,
 17:36:02.592,e3:ca:2d:fd:e0:8c, 2015-01-01 03:57:12.345, 0.969, 0.023, 0.316, 0.183, 0.366, 0.061, 4.301, -71.812, 152.682, -24.860, -10.653, -12.187, 26.15, -0.16974, -0.57669, 0.10889, -0.79163,
 17:36:02.592,e3:ca:2d:fd:e0:8c, 2015-01-01 03:57:12.345, 0.971, 0.024, 0.316, 0.122, 0.183, 0.061, 4.301, -71.807, 152.688, -24.860, -10.653, -12.187, 26.15, -0.16974, -0.57669, 0.10889, -0.79163,
 17:36:02.592,e3:ca:2d:fd:e0:8c, 2015-01-01 03:57:12.345, 0.969, 0.025, 0.317, 0.061, 0.061, 0, 4.301, -71.807, 152.688, -24.860, -10.653, -12.187, 26.15, -0.16974, -0.57669, 0.10889, -0.79163,
 17:36:02.592,e3:ca:2d:fd:e0:8c, 2015-01-01 03:57:12.345, 0.971, 0.024, 0.316, 0.122, 0.183, 0.061, 4.301, -71.807, 152.688, -24.860, -10.653, -12.187, 26.15, -0.16974, -0.57669, 0.10889, -0.79163,
 17:36:02.592,e3:ca:2d:fd:e0:8c, 2015-01-01 03:57:12.345, 0.969, 0.025, 0.317, 0.061, 0.061, 0, 4.301, -71.807, 152.688, -24.860, -10.653, -12.187, 26.15, -0.16974, -0.57669, 0.10889, -0.79163,
 17:36:02.592,e3:ca:2d:fd:e0:8c, 2015-01-01 03:57:12.345, 0.971, 0.024, 0.316, 0.122, 0.183, 0.061, 4.301, -71.807, 152.688, -24.860, -10.653, -12.187, 26.15, -0.16974, -0.57669, 0.10889, -0.79163,
 17:36:02.597,ed:35:33:d3:6c:f8, 2015-01-01 03:56:53.505, 0.278, 0.186, 0.938, 0.122, 0.488, -1.587, 10.981, -16.276, 158.659, -6.853, -14.140, -32.833, 24.63, 0.16852, 0.15601, 0.06714, 0.97092,
 17:36:02.597,ed:35:33:d3:6c:f8, 2015-01-01 03:56:53.505, 0.277, 0.188, 0.942, 0, 0, -0.793, 10.986, -16.271, 158.621, -6.853, -14.140, -32.833, 24.63, 0.16852, 0.15601, 0.06714, 0.97092,
 17:36:02.597,ed:35:33:d3:6c:f8, 2015-01-01 03:56:53.505, 0.278, 0.185, 0.944, 0.061, -0.061, -0.732, 10.992, -16.271, 158.577, -6.853, -14.140, -32.833, 24.63, 0.16852, 0.15601, 0.06714, 0.97092,
 17:36:02.597,ed:35:33:d3:6c:f8, 2015-01-01 03:56:53.505, 0.277, 0.188, 0.942, 0, 0, -0.793, 10.986, -16.271, 158.621, -6.853, -14.140, -32.833, 24.63, 0.16852, 0.15601, 0.06714, 0.97092,
 17:36:02.597,ed:35:33:d3:6c:f8, 2015-01-01 03:56:53.505, 0.278, 0.185, 0.944, 0.061, -0.061, -0.732, 10.992, -16.271, 158.577, -6.853, -14.140, -32.833, 24.63, 0.16852, 0.15601, 0.06714, 0.97092,
 17:36:02.597,ed:35:33:d3:6c:f8, 2015-01-01 03:56:53.505, 0.277, 0.188, 0.942, 0, 0, -0.793, 10.986, -16.271, 158.621, -6.853, -14.140, -32.833, 24.63, 0.16852, 0.15601, 0.06714, 0.97092,
 17:36:02.621,e3:ca:2d:fd:e0:8c, 2015-01-01 03:57:12.345, 0.97, 0.025, 0.317, 0.061, 0.061, 0, 4.301, -71.807, 152.688, -24.860, -10.653, -12.187, 26.15, -0.16974, -0.57669, 0.10889, -0.79163,
 17:36:02.621,e3:ca:2d:fd:e0:8c, 2015-01-01 03:57:12.345, 0.971, 0.026, 0.322, 0.061, 0, -0.061, 4.312, -71.807, 152.682, -24.860, -10.653, -12.187, 26.15, -0.16974, -0.57669, 0.10889, -0.79163,
 17:36:02.621,e3:ca:2d:fd:e0:8c, 2015-01-01 03:57:12.345, 0.97, 0.03, 0.332, -0.977, -0.183, -0.122, 4.301, -71.807, 152.677, -24.860, -10.653, -12.187, 26.15, -0.16974, -0.57669, 0.10889, -0.79163,
 17:36:02.621,e3:ca:2d:fd:e0:8c, 2015-01-01 03:57:12.345, 0.971, 0.026, 0.322, 0.061, 0, -0.061, 4.312, -71.807, 152.682, -24.860, -10.653, -12.187, 26.15, -0.16974, -0.57669, 0.10889, -0.79163,
 17:36:02.621,e3:ca:2d:fd:e0:8c, 2015-01-01 03:57:12.345, 0.97, 0.03, 0.332, -0.977, -0.183, -0.122, 4.301, -71.807, 152.677, -24.860, -10.653, -12.187, 26.15, -0.16974, -0.57669, 0.10889, -0.79163,
 17:36:02.621,e3:ca:2d:fd:e0:8c, 2015-01-01 03:57:12.345, 0.971, 0.026, 0.322, 0.061, 0, -0.061, 4.312, -71.807, 152.682, -24.860, -10.653, -12.187, 26.15, -0.16974, -0.57669, 0.10889, -0.79163,
 17:36:02.626,ed:40:fe:65:30:6c, 2015-01-01 03:57:17.580, 0.461, 0.115, 0.884, -0.549, 0.122, -0.183, 7.295, -27.543, -136.483, -15.640, -11.287, -6.900, 25.41, -0.37335, 0.19772, 0.14551, 0.89456,
 17:36:02.626,ed:40:fe:65:30:6c, 2015-01-01 03:57:17.580, 0.459, 0.111, 0.886, -0.793, 0.122, 0, 7.284, -27.543, -136.478, -15.640, -11.287, -6.900, 25.41, -0.37335, 0.19772, 0.14551, 0.89456,
 17:36:02.626,ed:40:fe:65:30:6c, 2015-01-01 03:57:17.580, 0.461, 0.112, 0.884, -1.16, 0.061, 0, 7.262, -27.537, -136.478, -15.640, -11.287, -6.900, 25.41, -0.37335, 0.19772, 0.14551, 0.89456,
 17:36:02.626,ed:40:fe:65:30:6c, 2015-01-01 03:57:17.580, 0.459, 0.111, 0.886, -0.793, 0.122, 0, 7.284, -27.543, -136.478, -15.640, -11.287, -6.900, 25.41, -0.37335, 0.19772, 0.14551, 0.89456,
 17:36:02.626,ed:40:fe:65:30:6c, 2015-01-01 03:57:17.580, 0.461, 0.112, 0.884, -1.16, 0.061, 0, 7.262, -27.537, -136.478, -15.640, -11.287, -6.900, 25.41, -0.37335, 0.19772, 0.14551, 0.89456,
 17:36:02.626,ed:40:fe:65:30:6c, 2015-01-01 03:57:17.580, 0.459, 0.111, 0.886, -0.793, 0.122, 0, 7.284, -27.543, -136.478, -15.640, -11.287, -6.900, 25.41, -0.37335, 0.19772, 0.14551, 0.89456,
 17:36:02.627,ed:35:33:d3:6c:f8, 2015-01-01 03:56:53.505, 0.279, 0.185, 0.944, 0.061, -0.061, -0.732, 10.992, -16.271, 158.577, -6.853, -14.140, -32.833, 24.63, 0.16852, 0.15601, 0.06714, 0.97092,
 17:36:02.627,ed:35:33:d3:6c:f8, 2015-01-01 03:56:53.505, 0.273, 0.184, 0.945, -0.183, -0.305, -0.732, 10.997, -16.271, 158.527, -6.853, -14.140, -32.833, 24.63, 0.16852, 0.15601, 0.06714, 0.97092,
 17:36:02.627,ed:35:33:d3:6c:f8, 2015-01-01 03:56:53.505, 0.279, 0.188, 0.945, -2.136, -1.465, -0.61, 10.959, -16.298, 158.5, -6.853, -14.140, -32.833, 24.63, 0.16852, 0.15601, 0.06714, 0.97092,
 17:36:02.627,ed:35:33:d3:6c:f8, 2015-01-01 03:56:53.505, 0.273, 0.184, 0.945, -0.183, -0.305, -0.732, 10.997, -16.271, 158.527, -6.853, -14.140, -32.833, 24.63, 0.16852, 0.15601, 0.06714, 0.97092,
 17:36:02.627,ed:35:33:d3:6c:f8, 2015-01-01 03:56:53.505, 0.279, 0.188, 0.945, -2.136, -1.465, -0.61, 10.959, -16.298, 158.5, -6.853, -14.140, -32.833, 24.63, 0.16852, 0.15601, 0.06714, 0.97092,
 17:36:02.627,ed:35:33:d3:6c:f8, 2015-01-01 03:56:53.505, 0.273, 0.184, 0.945, -0.183, -0.305, -0.732, 10.997, -16.271, 158.527, -6.853, -14.140, -32.833, 24.63, 0.16852, 0.15601, 0.06714, 0.97092,
 17:36:02.630,f6:90:cc:01:6d:25, 2015-01-01 03:57:04.255, 0.887, -0.066, 0.433, -0.366, 0.366, 0.122, -8.52, -63.688, -147.393, -28.860, -9.140, -8.113, 29.16, 0.20071, -0.5231, -0.08682, -0.82367,
 17:36:02.630,f6:90:cc:01:6d:25, 2015-01-01 03:57:04.255, 0.888, -0.066, 0.434, -0.183, 0.122, 0.122, -8.531, -63.688, -147.398, -28.860, -9.140, -8.113, 29.16, 0.20071, -0.5231, -0.08682, -0.82367,
 17:36:02.630,f6:90:cc:01:6d:25, 2015-01-01 03:57:04.255, 0.887, -0.065, 0.438, 0.061, 0.061, 0.061, -8.531, -63.682, -147.404, -28.860, -9.140, -8.113, 29.16, 0.20071, -0.5231, -0.08682, -0.82367,
 17:36:02.630,f6:90:cc:01:6d:25, 2015-01-01 03:57:04.255, 0.888, -0.066, 0.434, -0.183, 0.122, 0.122, -8.531, -63.688, -147.398, -28.860, -9.140, -8.113, 29.16, 0.20071, -0.5231, -0.08682, -0.82367,
 17:36:02.630,f6:90:cc:01:6d:25, 2015-01-01 03:57:04.255, 0.887, -0.065, 0.438, 0.061, 0.061, 0.061, -8.531, -63.682, -147.404, -28.860, -9.140, -8.113, 29.16, 0.20071, -0.5231, -0.08682, -0.82367,
 17:36:02.630,f6:90:cc:01:6d:25, 2015-01-01 03:57:04.255, 0.888, -0.066, 0.434, -0.183, 0.122, 0.122, -8.531, -63.688, -147.398, -28.860, -9.140, -8.113, 29.16, 0.20071, -0.5231, -0.08682, -0.82367,
 17:36:02.655,ed:40:fe:65:30:6c, 2015-01-01 03:57:17.965, 0.465, 0.112, 0.884, -1.16, 0.061, 0, 7.262, -27.537, -136.478, -15.640, -11.287, -6.900, 25.41, -0.37335, 0.19772, 0.14551, 0.89456,
 17:36:02.655,ed:40:fe:65:30:6c, 2015-01-01 03:57:17.965, 0.47, 0.118, 0.889, -2.258, 0, 0.916, 7.218, -27.537, -136.478, -15.640, -11.287, -6.900, 25.41, -0.37335, 0.19772, 0.14551, 0.89456,
 17:36:02.655,ed:40:fe:65:30:6c, 2015-01-01 03:57:17.965, 0.465, 0.079, 0.878, -3.296, 2.441, 3.052, 7.13, -27.51, -136.434, -15.640, -11.287, -6.900, 25.41, -0.37335, 0.19772, 0.14551, 0.89456,
 17:36:02.655,ed:40:fe:65:30:6c, 2015-01-01 03:57:17.965, 0.47, 0.118, 0.889, -2.258, 0, 0.916, 7.218, -27.537, -136.478, -15.640, -11.287, -6.900, 25.41, -0.37335, 0.19772, 0.14551, 0.89456,
 17:36:02.655,ed:40:fe:65:30:6c, 2015-01-01 03:57:17.965, 0.465, 0.079, 0.878, -3.296, 2.441, 3.052, 7.13, -27.51, -136.434, -15.640, -11.287, -6.900, 25.41, -0.37335, 0.19772, 0.14551, 0.89456,
 17:36:02.655,ed:40:fe:65:30:6c, 2015-01-01 03:57:17.965, 0.47, 0.118, 0.889, -2.258, 0, 0.916, 7.218, -27.537, -136.478, -15.640, -11.287, -6.900, 25.41, -0.37335, 0.19772, 0.14551, 0.89456,
 17:36:02.659,ed:35:33:d3:6c:f8, 2015-01-01 03:56:53.505, 0.271, 0.188, 0.945, -2.136, -1.465, -0.61, 10.959, -16.298, 158.5, -6.853, -14.140, -32.833, 24.63, 0.16852, 0.15601, 0.06714, 0.97092,
