Index,L5_Acceleration X(g),L5_Acceleration Y(g),L5_Acceleration Z(g),L5_Angular velocity X(°/s),L5_Angular velocity Y(°/s),L5_Angular velocity Z(°/s),L5_Angle X(°),L5_Angle Y(°),L5_Angle Z(°),L5_Magnetic field X(ʯt),L5_Magnetic field Y(ʯt),L5_Magnetic field Z(ʯt),L5_Temperature(℃),L5_Quaternions 0(),L5_Quaternions 1(),L5_Quaternions 2(),L5_Quaternions 3(),L5___orig_idx,T4_Acceleration X(g),T4_Acceleration Y(g),T4_Acceleration Z(g),T4_Angular velocity X(°/s),T4_Angular velocity Y(°/s),T4_Angular velocity Z(°/s),T4_Angle X(°),T4_Angle Y(°),T4_Angle Z(°),T4_Magnetic field X(ʯt),T4_Magnetic field Y(ʯt),T4_Magnetic field Z(ʯt),T4_Temperature(℃),T4_Quaternions 0(),T4_Quaternions 1(),T4_Quaternions 2(),T4_Quaternions 3(),T4___orig_idx,C7_Acceleration X(g),C7_Acceleration Y(g),C7_Acceleration Z(g),C7_Angular velocity X(°/s),C7_Angular velocity Y(°/s),C7_Angular velocity Z(°/s),C7_Angle X(°),C7_Angle Y(°),C7_Angle Z(°),C7_Magnetic field X(ʯt),C7_Magnetic field Y(ʯt),C7_Magnetic field Z(ʯt),C7_Temperature(℃),C7_Quaternions 0(),C7_Quaternions 1(),C7_Quaternions 2(),C7_Quaternions 3(),C7___orig_idx,T12_Acceleration X(g),T12_Acceleration Y(g),T12_Acceleration Z(g),T12_Angular velocity X(°/s),T12_Angular velocity Y(°/s),T12_Angular velocity Z(°/s),T12_Angle X(°),T12_Angle Y(°),T12_Angle Z(°),T12_Magnetic field X(ʯt),T12_Magnetic field Y(ʯt),T12_Magnetic field Z(ʯt),T12_Temperature(℃),T12_Quaternions 0(),T12_Quaternions 1(),T12_Quaternions 2(),T12_Quaternions 3(),T12___orig_idx
0,1.01,-0.12,-0.052,0.0,-0.061,-0.244,-112.698,-82.798,-100.602,-25.38,-5.107,-3.473,23.42,-0.15753,-0.68085,0.24594,-0.6716,4,0.895,0.042,0.45,-0.244,-0.488,1.221,5.46,-63.353,-116.34,-26.473,-8.007,5.213,25.07,0.46912,-0.42361,-0.31195,-0.70926,2,0.837,-0.036,0.536,-0.488,0.061,1.404,-3.51,-57.667,-165.174,-23.56,-8.407,-12.34,30.25,-0.09641,0.48145,0.03616,0.87036,0,0.984,-0.053,-0.019,0.244,-0.793,-0.305,-108.737,-86.715,-47.318,-28.387,-7.12,4.353,29.21,0.16202,-0.7019,-0.12726,-0.68176,6
1,1.014,-0.117,-0.045,0.183,-0.061,-0.183,-112.709,-82.804,-100.596,-25.38,-5.107,-3.473,23.42,-0.15753,-0.68085,0.24594,-0.6716,5,0.896,0.041,0.446,0.0,-0.793,0.732,5.433,-63.364,-116.301,-26.473,-8.007,5.213,25.07,0.46912,-0.42361,-0.31195,-0.70926,3,0.839,-0.037,0.529,0.061,-0.732,1.099,-3.543,-57.678,-165.135,-23.56,-8.407,-12.34,30.25,-0.09641,0.48145,0.03616,0.87036,1,0.984,-0.051,-0.022,0.061,-0.671,-0.244,-109.034,-86.715,-46.989,-28.387,-7.12,4.353,29.21,0.16202,-0.7019,-0.12726,-0.68176,7
2,1.014,-0.119,-0.049,0.0,-0.366,-0.061,-112.747,-82.798,-100.563,-25.38,-5.107,-3.473,23.42,-0.15753,-0.68085,0.24594,-0.6716,14,0.896,0.043,0.447,0.061,-0.854,0.366,5.427,-63.38,-116.285,-26.473,-8.007,5.213,25.07,0.46912,-0.42361,-0.31195,-0.70926,12,0.838,-0.036,0.526,0.427,-0.916,0.671,-3.554,-57.695,-165.119,-23.56,-8.407,-12.34,30.25,-0.09641,0.48145,0.03616,0.87036,8,0.985,-0.054,-0.021,0.122,-0.732,-0.061,-109.303,-86.715,-46.686,-28.387,-7.12,4.353,29.21,0.16418,-0.70181,-0.12955,-0.68088,10
3,1.013,-0.119,-0.047,0.0,-0.488,-0.122,-112.813,-82.798,-100.503,-25.38,-5.107,-3.473,23.42,-0.15753,-0.68085,0.24594,-0.6716,15,0.897,0.045,0.449,0.427,-0.793,0.244,5.427,-63.391,-116.279,-26.473,-8.007,5.213,25.07,0.46912,-0.42361,-0.31195,-0.70926,13,0.84,-0.032,0.527,0.488,-0.549,0.488,-3.565,-57.7,-165.075,-23.56,-8.407,-12.34,30.25,-0.09641,0.48145,0.03616,0.87036,9,0.982,-0.054,-0.02,0.061,-0.793,0.0,-109.578,-86.71,-46.373,-28.387,-7.12,4.353,29.21,0.16418,-0.70181,-0.12955,-0.68088,11
4,1.009,-0.118,-0.049,0.0,-0.671,-0.122,-112.901,-82.798,-100.421,-25.38,-5.107,-3.473,23.42,-0.15753,-0.68085,0.24594,-0.6716,18,0.895,0.046,0.451,0.671,-0.793,0.244,5.438,-63.408,-116.274,-26.473,-8.007,5.213,25.07,0.46912,-0.42361,-0.31195,-0.70926,26,0.837,-0.029,0.532,0.61,-0.183,0.488,-3.565,-57.706,-165.009,-23.34,-8.173,-12.133,30.25,-0.09641,0.48145,0.03616,0.87036,16,0.982,-0.054,-0.028,0.0,-0.916,0.0,-109.874,-86.699,-46.038,-28.387,-7.12,4.353,29.21,0.16418,-0.70181,-0.12955,-0.68088,20
5,1.013,-0.116,-0.048,0.0,-0.488,-0.122,-112.978,-82.793,-100.349,-25.38,-5.107,-3.473,23.42,-0.15753,-0.68085,0.24594,-0.6716,19,0.9,0.047,0.45,0.488,-0.793,0.305,5.438,-63.419,-116.268,-26.473,-8.007,5.213,25.07,0.46912,-0.42361,-0.31195,-0.70926,27,0.841,-0.03,0.533,0.488,0.0,0.488,-3.571,-57.7,-164.965,-23.34,-8.173,-12.133,30.25,-0.09641,0.48145,0.03616,0.87036,17,0.988,-0.051,-0.021,-0.061,-0.732,0.0,-110.171,-86.693,-45.72,-28.387,-7.12,4.353,29.21,0.16418,-0.70181,-0.12955,-0.68088,21
6,1.016,-0.117,-0.046,-0.122,-0.549,-0.061,-113.055,-82.793,-100.278,-25.38,-5.107,-3.473,23.42,-0.15753,-0.68085,0.24594,-0.6716,24,0.9,0.049,0.447,0.244,-0.732,0.244,5.444,-63.435,-116.257,-26.527,-7.527,5.46,25.07,0.46912,-0.42361,-0.31195,-0.70926,30,0.843,-0.028,0.531,0.488,-0.305,0.305,-3.571,-57.706,-164.982,-23.34,-8.173,-12.133,30.25,-0.09641,0.48145,0.03616,0.87036,22,0.988,-0.051,-0.023,-0.183,-0.427,-0.061,-110.391,-86.688,-45.472,-28.387,-7.12,4.353,29.21,0.16418,-0.70181,-0.12955,-0.68088,28
7,1.016,-0.116,-0.047,-0.183,-0.488,0.0,-113.115,-82.787,-100.223,-25.38,-5.107,-3.473,23.42,-0.15753,-0.68085,0.24594,-0.6716,25,0.901,0.046,0.447,0.183,-0.549,0.305,5.438,-63.441,-116.246,-26.527,-7.527,5.46,25.07,0.46912,-0.42361,-0.31195,-0.70926,31,0.844,-0.029,0.529,0.61,-0.61,0.244,-3.565,-57.717,-164.987,-23.34,-8.173,-12.133,30.25,-0.09641,0.48145,0.03616,0.87036,23,0.985,-0.051,-0.025,-0.305,-0.244,0.0,-110.533,-86.688,-45.308,-28.387,-7.12,4.353,29.21,0.16418,-0.70181,-0.12955,-0.68088,29
8,1.012,-0.117,-0.051,-0.305,-0.427,0.0,-113.176,-82.787,-100.173,-25.12,-5.26,-3.847,23.42,-0.15753,-0.68085,0.24594,-0.6716,32,0.901,0.046,0.445,0.122,-0.549,0.183,5.444,-63.452,-116.246,-26.527,-7.527,5.46,25.07,0.46912,-0.42361,-0.31195,-0.70926,42,0.845,-0.031,0.528,0.305,-0.671,0.244,-3.565,-57.728,-164.993,-23.34,-8.173,-12.133,30.25,-0.09943,0.48178,0.03595,0.86984,34,0.985,-0.054,-0.028,-0.244,-0.305,0.0,-110.665,-86.682,-45.17,-28.387,-7.12,4.353,29.21,0.16418,-0.70181,-0.12955,-0.68088,36
9,1.012,-0.118,-0.051,-0.305,-0.244,0.061,-113.203,-82.782,-100.151,-25.12,-5.26,-3.847,23.42,-0.15753,-0.68085,0.24594,-0.6716,33,0.901,0.045,0.443,0.061,-0.427,0.061,5.449,-63.457,-116.263,-26.527,-7.527,5.46,25.07,0.46912,-0.42361,-0.31195,-0.70926,43,0.845,-0.031,0.525,0.244,-0.549,0.0,-3.554,-57.739,-165.02,-23.34,-8.173,-12.133,30.25,-0.09943,0.48178,0.03595,0.86984,35,0.987,-0.054,-0.028,-0.305,-0.244,-0.061,-110.803,-86.682,-45.027,-28.387,-7.12,4.353,29.21,0.16418,-0.70181,-0.12955,-0.68088,37
10,1.015,-0.119,-0.049,-0.244,0.0,0.061,-113.198,-82.782,-100.173,-25.12,-5.26,-3.847,23.42,-0.15842,-0.681,0.24683,-0.6709,44,0.903,0.047,0.439,0.0,-0.427,0.244,5.444,-63.468,-116.268,-26.527,-7.527,5.46,25.07,0.4697,-0.4248,-0.31168,-0.70828,46,0.846,-0.029,0.523,0.183,-0.488,0.061,-3.554,-57.75,-165.031,-23.34,-8.173,-12.133,30.25,-0.09943,0.48178,0.03595,0.86984,38,0.988,-0.053,-0.027,-0.366,0.244,0.0,-110.819,-86.682,-45.016,-28.387,-7.12,4.353,29.21,0.16418,-0.70181,-0.12955,-0.68088,40
11,1.016,-0.121,-0.05,-0.244,0.061,0.061,-113.187,-82.782,-100.195,-25.12,-5.26,-3.847,23.42,-0.15842,-0.681,0.24683,-0.6709,45,0.901,0.048,0.44,-0.122,-0.488,0.244,5.438,-63.479,-116.268,-26.527,-7.527,5.46,25.07,0.4697,-0.4248,-0.31168,-0.70828,47,0.847,-0.027,0.523,0.0,-0.488,0.122,-3.554,-57.761,-165.042,-23.34,-8.173,-12.133,30.25,-0.09943,0.48178,0.03595,0.86984,39,0.986,-0.051,-0.029,-0.244,0.61,0.244,-110.693,-86.682,-45.154,-28.387,-7.12,4.353,29.21,0.16418,-0.70181,-0.12955,-0.68088,41
12,1.017,-0.12,-0.054,-0.427,0.061,0.122,-113.17,-82.782,-100.228,-25.12,-5.26,-3.847,23.42,-0.15842,-0.681,0.24683,-0.6709,52,0.901,0.047,0.443,0.0,-0.427,0.122,5.444,-63.49,-116.279,-26.527,-7.527,5.46,25.07,0.4697,-0.4248,-0.31168,-0.70828,56,0.844,-0.029,0.524,0.0,-0.427,0.0,-3.554,-57.772,-165.064,-23.34,-8.173,-12.133,30.25,-0.09943,0.48178,0.03595,0.86984,48,0.986,-0.055,-0.026,-0.671,0.671,0.427,-110.511,-86.677,-45.368,-28.387,-7.12,4.353,29.21,0.16418,-0.70181,-0.12955,-0.68088,50
13,1.015,-0.119,-0.052,-0.732,0.122,0.061,-113.165,-82.782,-100.261,-25.12,-5.26,-3.847,23.42,-0.15842,-0.681,0.24683,-0.6709,53,0.9,0.044,0.444,0.0,-0.305,0.244,5.444,-63.495,-116.279,-26.527,-7.527,5.46,25.07,0.4697,-0.4248,-0.31168,-0.70828,57,0.844,-0.028,0.524,0.0,-0.427,0.183,-3.554,-57.783,-165.042,-23.34,-8.173,-12.133,30.25,-0.09943,0.48178,0.03595,0.86984,49,0.984,-0.055,-0.026,-0.854,0.61,0.488,-110.341,-86.671,-45.577,-28.387,-7.12,4.353,29.21,0.16418,-0.70181,-0.12955,-0.68088,51
14,1.014,-0.119,-0.056,-0.671,0.0,0.0,-113.181,-82.776,-100.278,-25.12,-5.26,-3.847,23.42,-0.15842,-0.681,0.24683,-0.6709,58,0.9,0.044,0.444,-0.061,-0.122,0.305,5.433,-63.501,-116.274,-26.527,-7.527,5.46,25.07,0.4697,-0.4248,-0.31168,-0.70828,60,0.844,-0.032,0.524,-0.061,-0.305,0.305,-3.565,-57.788,-165.015,-23.34,-8.173,-12.133,30.25,-0.09943,0.48178,0.03595,0.86984,54,0.984,-0.055,-0.032,-0.427,0.427,0.366,-110.226,-86.666,-45.725,-28.387,-7.12,4.353,29.21,0.16418,-0.70181,-0.12955,-0.68088,72
15,1.016,-0.118,-0.056,-0.549,0.0,-0.122,-113.203,-82.782,-100.283,-25.12,-5.26,-3.847,23.42,-0.15842,-0.681,0.24683,-0.6709,59,0.901,0.042,0.442,-0.122,0.0,0.366,5.422,-63.501,-116.263,-26.527,-7.527,5.46,25.07,0.4697,-0.4248,-0.31168,-0.70828,61,0.844,-0.033,0.524,-0.244,-0.183,0.305,-3.576,-57.799,-165.026,-23.34,-8.173,-12.133,30.25,-0.09943,0.48178,0.03595,0.86984,55,0.987,-0.056,-0.026,-0.183,0.305,0.122,-110.182,-86.666,-45.807,-28.387,-7.12,4.353,29.21,0.16418,-0.70181,-0.12955,-0.68088,73
16,1.017,-0.117,-0.053,-0.427,0.0,0.0,-113.22,-82.782,-100.294,-25.12,-5.26,-3.847,23.42,-0.15842,-0.681,0.24683,-0.6709,66,0.902,0.042,0.444,-0.061,0.061,0.366,5.411,-63.501,-116.252,-26.527,-7.527,5.46,25.07,0.4697,-0.4248,-0.31168,-0.70828,64,0.844,-0.035,0.524,-0.183,-0.122,0.305,-3.587,-57.799,-165.064,-23.34,-8.173,-12.133,30.25,-0.09943,0.48178,0.03595,0.86984,62,0.988,-0.053,-0.028,-0.122,0.305,0.0,-110.16,-86.66,-45.857,-28.287,-6.667,4.46,29.21,0.16418,-0.70181,-0.12955,-0.68088,76
17,1.015,-0.117,-0.051,-0.427,0.061,-0.122,-113.236,-82.782,-100.311,-25.12,-5.26,-3.847,23.42,-0.15842,-0.681,0.24683,-0.6709,67,0.903,0.043,0.445,-0.061,0.244,0.305,5.4,-63.501,-116.241,-26.527,-7.527,5.46,25.07,0.4697,-0.4248,-0.31168,-0.70828,65,0.847,-0.034,0.526,-0.366,0.183,0.366,-3.604,-57.799,-165.097,-23.34,-8.173,-12.133,30.25,-0.09943,0.48178,0.03595,0.86984,63,0.986,-0.058,-0.025,-0.305,0.427,0.0,-110.116,-86.666,-45.939,-28.287,-6.667,4.46,29.21,0.16418,-0.70181,-0.12955,-0.68088,77
18,1.012,-0.123,-0.049,-0.183,0.366,-0.305,-113.214,-82.787,-100.355,-25.12,-5.26,-3.847,23.42,-0.15842,-0.681,0.24683,-0.6709,74,0.901,0.041,0.445,0.122,0.488,0.305,5.389,-63.49,-116.235,-26.527,-7.527,5.46,25.07,0.4697,-0.4248,-0.31168,-0.70828,70,0.844,-0.035,0.525,-0.244,0.427,0.366,-3.62,-57.794,-165.108,-23.34,-8.173,-12.133,30.25,-0.09943,0.48178,0.03595,0.86984,68,0.986,-0.059,-0.032,0.061,0.488,0.061,-110.039,-86.666,-46.049,-28.287,-6.667,4.46,29.21,0.16418,-0.70181,-0.12955,-0.68088,80
19,1.018,-0.119,-0.055,0.122,0.61,-0.183,-113.137,-82.798,-100.448,-25.12,-5.26,-3.847,23.42,-0.15842,-0.681,0.24683,-0.6709,75,0.906,0.042,0.446,0.305,0.671,0.305,5.383,-63.479,-116.219,-26.527,-7.527,5.46,25.07,0.4697,-0.4248,-0.31168,-0.70828,71,0.849,-0.037,0.527,-0.183,0.671,0.488,-3.636,-57.783,-165.086,-23.34,-8.173,-12.133,30.25,-0.09943,0.48178,0.03595,0.86984,69,0.993,-0.054,-0.024,0.549,0.244,0.0,-110.012,-86.66,-46.099,-28.287,-6.667,4.46,29.21,0.16418,-0.70181,-0.12955,-0.68088,81
20,1.02,-0.117,-0.044,0.305,1.038,0.061,-112.983,-82.804,-100.613,-25.12,-5.26,-3.847,23.42,-0.15842,-0.681,0.24683,-0.6709,84,0.901,0.042,0.444,0.854,0.61,0.366,5.389,-63.474,-116.208,-26.527,-7.527,5.46,25.07,0.4697,-0.4248,-0.31168,-0.70828,82,0.846,-0.033,0.526,0.244,0.549,0.488,-3.642,-57.777,-165.075,-23.34,-8.173,-12.133,30.25,-0.09943,0.48178,0.03595,0.86984,78,0.988,-0.058,-0.022,0.305,0.61,-0.122,-109.924,-86.666,-46.208,-28.287,-6.667,4.46,29.21,0.16418,-0.70181,-0.12955,-0.68088,86
21,1.014,-0.124,-0.048,0.0,1.038,0.122,-112.824,-82.809,-100.789,-25.12,-5.26,-3.847,23.42,-0.15842,-0.681,0.24683,-0.6709,85,0.899,0.038,0.448,0.61,0.793,0.488,5.378,-63.457,-116.18,-26.527,-7.527,5.46,25.07,0.4697,-0.4248,-0.31168,-0.70828,83,0.843,-0.038,0.528,0.122,0.61,0.671,-3.664,-57.766,-165.059,-23.34,-8.173,-12.133,30.25,-0.09943,0.48178,0.03595,0.86984,79,0.985,-0.059,-0.022,0.305,0.916,-0.061,-109.715,-86.671,-46.423,-28.287,-6.667,4.46,29.21,0.16418,-0.70181,-0.12955,-0.68088,87
22,1.011,-0.119,-0.049,-0.244,0.427,0.244,-112.753,-82.804,-100.876,-25.46,-5.513,-4.673,23.42,-0.15842,-0.681,0.24683,-0.6709,88,0.899,0.044,0.444,0.244,0.854,0.244,5.372,-63.446,-116.169,-26.527,-7.527,5.46,25.07,0.4697,-0.4248,-0.31168,-0.70828,90,0.843,-0.037,0.527,0.244,0.732,0.61,-3.675,-57.755,-165.031,-22.973,-8.48,-11.793,30.25,-0.09943,0.48178,0.03595,0.86984,92,0.984,-0.052,-0.021,0.0,1.038,0.122,-109.44,-86.671,-46.714,-28.287,-6.667,4.46,29.21,0.16418,-0.70181,-0.12955,-0.68088,94
23,1.01,-0.116,-0.049,-0.305,-0.061,0.0,-112.764,-82.804,-100.882,-25.46,-5.513,-4.673,23.42,-0.15842,-0.681,0.24683,-0.6709,89,0.892,0.052,0.45,0.549,0.854,-0.183,5.389,-63.43,-116.18,-26.527,-7.527,5.46,25.07,0.4697,-0.4248,-0.31168,-0.70828,91,0.836,-0.029,0.529,0.671,0.671,0.0,-3.664,-57.744,-165.037,-22.973,-8.48,-11.793,30.25,-0.09943,0.48178,0.03595,0.86984,93,0.978,-0.054,-0.028,-0.305,1.099,0.244,-109.133,-86.671,-47.043,-28.287,-6.667,4.46,29.21,0.16418,-0.70181,-0.12955,-0.68088,95
24,1.01,-0.117,-0.054,-0.061,0.0,-0.061,-112.775,-82.804,-100.887,-25.46,-5.513,-4.673,23.42,-0.16025,-0.67999,0.24847,-0.67087,96,0.895,0.042,0.452,0.305,0.427,0.0,5.394,-63.419,-116.186,-26.527,-7.527,5.46,25.07,0.4697,-0.4248,-0.31168,-0.70828,100,0.838,-0.029,0.536,0.366,0.854,-0.183,-3.647,-57.728,-165.081,-22.973,-8.48,-11.793,30.25,-0.0983,0.48203,0.03491,0.86987,102,0.984,-0.059,-0.033,0.0,1.221,0.061,-108.814,-86.677,-47.384,-28.287,-6.667,4.46,29.21,0.16345,-0.70215,-0.12833,-0.68094,98
25,1.018,-0.117,-0.047,0.427,0.793,0.0,-112.654,-82.809,-101.014,-25.46,-5.513,-4.673,23.42,-0.16025,-0.67999,0.24847,-0.67087,97,0.895,0.042,0.446,0.0,0.0,0.305,5.383,-63.419,-116.175,-26.527,-7.527,5.46,25.07,0.4697,-0.4248,-0.31168,-0.70828,101,0.837,-0.035,0.53,0.0,0.0,0.122,-3.647,-57.728,-165.108,-22.973,-8.48,-11.793,30.25,-0.0983,0.48203,0.03491,0.86987,103,0.988,-0.058,-0.02,0.366,1.404,0.0,-108.446,-86.682,-47.763,-28.287,-6.667,4.46,29.21,0.16345,-0.70215,-0.12833,-0.68094,99
26,1.014,-0.121,-0.045,0.671,0.977,-0.122,-112.505,-82.82,-101.162,-25.46,-5.513,-4.673,23.42,-0.16025,-0.67999,0.24847,-0.67087,106,0.896,0.04,0.45,0.183,-0.061,0.366,5.378,-63.424,-116.164,-26.793,-7.487,5.14,25.07,0.4697,-0.4248,-0.31168,-0.70828,104,0.839,-0.035,0.529,0.122,-0.671,0.0,-3.647,-57.744,-165.114,-22.973,-8.48,-11.793,30.25,-0.0983,0.48203,0.03491,0.86987,110,0.982,-0.057,-0.02,0.549,1.526,-0.122,-108.029,-86.688,-48.181,-28.287,-6.667,4.46,29.21,0.16345,-0.70215,-0.12833,-0.68094,108
27,1.011,-0.119,-0.048,0.61,0.793,0.0,-112.379,-82.826,-101.294,-25.46,-5.513,-4.673,23.42,-0.16025,-0.67999,0.24847,-0.67087,107,0.892,0.039,0.452,0.244,0.122,0.366,5.367,-63.419,-116.142,-26.793,-7.487,5.14,25.07,0.4697,-0.4248,-0.31168,-0.70828,105,0.835,-0.037,0.53,0.122,-0.366,0.244,-3.653,-57.75,-165.108,-22.973,-8.48,-11.793,30.25,-0.0983,0.48203,0.03491,0.86987,111,0.98,-0.056,-0.016,0.366,1.343,-0.183,-107.65,-86.699,-48.543,-28.287,-6.667,4.46,29.21,0.16345,-0.70215,-0.12833,-0.68094,109
28,1.006,-0.119,-0.042,0.0,0.732,0.0,-112.269,-82.826,-101.415,-25.46,-5.513,-4.673,23.42,-0.16025,-0.67999,0.24847,-0.67087,114,0.892,0.04,0.452,0.244,0.305,0.244,5.361,-63.413,-116.142,-26.793,-7.487,5.14,25.07,0.4697,-0.4248,-0.31168,-0.70828,116,0.835,-0.038,0.531,0.122,0.122,0.366,-3.664,-57.75,-165.059,-22.973,-8.48,-11.793,30.25,-0.0983,0.48203,0.03491,0.86987,118,0.979,-0.055,-0.015,0.122,1.16,-0.122,-107.325,-86.704,-48.867,-28.287,-6.667,4.46,29.21,0.16345,-0.70215,-0.12833,-0.68094,112
29,1.006,-0.118,-0.043,-0.244,0.61,-0.061,-112.181,-82.831,-101.508,-25.46,-5.513,-4.673,23.42,-0.16025,-0.67999,0.24847,-0.67087,115,0.891,0.043,0.453,0.061,0.305,0.0,5.356,-63.408,-116.142,-26.793,-7.487,5.14,25.07,0.4697,-0.4248,-0.31168,-0.70828,117,0.835,-0.036,0.531,0.183,0.244,0.366,-3.675,-57.744,-165.009,-22.973,-8.48,-11.793,30.25,-0.0983,0.48203,0.03491,0.86987,119,0.981,-0.055,-0.014,0.0,1.038,-0.122,-107.034,-86.71,-49.175,-28.287,-6.667,4.46,29.21,0.16345,-0.70215,-0.12833,-0.68094,113
30,1.01,-0.117,-0.04,0.0,0.488,-0.061,-112.104,-82.837,-101.591,-25.46,-5.513,-4.673,23.42,-0.16025,-0.67999,0.24847,-0.67087,124,0.893,0.042,0.454,0.0,0.305,0.0,5.356,-63.397,-116.147,-26.793,-7.487,5.14,25.07,0.47028,-0.42447,-0.3114,-0.70822,126,0.834,-0.034,0.533,0.061,0.183,0.061,-3.675,-57.739,-164.965,-22.973,-8.48,-11.793,30.25,-0.0983,0.48203,0.03491,0.86987,120,0.981,-0.056,-0.012,0.122,1.099,-0.183,-106.71,-86.721,-49.532,-28.287,-6.667,4.46,29.21,0.16345,-0.70215,-0.12833,-0.68094,122
31,1.012,-0.12,-0.04,0.244,0.305,-0.061,-112.039,-82.842,-101.64,-25.46,-5.513,-4.673,23.42,-0.16025,-0.67999,0.24847,-0.67087,125,0.894,0.045,0.458,0.0,0.488,0.0,5.356,-63.386,-116.164,-26.793,-7.487,5.14,25.07,0.47028,-0.42447,-0.3114,-0.70822,127,0.835,-0.033,0.534,0.061,0.244,0.0,-3.675,-57.728,-164.932,-22.973,-8.48,-11.793,30.25,-0.0983,0.48203,0.03491,0.86987,121,0.984,-0.056,-0.011,0.366,0.916,-0.183,-106.43,-86.726,-49.861,-28.287,-6.667,4.46,29.21,0.16345,-0.70215,-0.12833,-0.68094,123
32,1.012,-0.121,-0.042,0.305,0.183,-0.061,-111.995,-82.842,-101.678,-25.46,-5.513,-4.673,23.42,-0.16025,-0.67999,0.24847,-0.67087,132,0.894,0.046,0.456,0.122,0.305,0.0,5.356,-63.375,-116.169,-26.793,-7.487,5.14,25.07,0.47028,-0.42447,-0.3114,-0.70822,136,0.836,-0.032,0.536,0.0,0.427,0.0,-3.675,-57.717,-164.899,-22.973,-8.48,-11.793,30.25,-0.0983,0.48203,0.03491,0.86987,128,0.984,-0.054,-0.014,0.671,0.488,-0.183,-106.276,-86.732,-50.015,-28.287,-6.667,4.46,29.21,0.16345,-0.70215,-0.12833,-0.68094,130
33,1.011,-0.117,-0.041,0.061,0.183,0.122,-111.934,-82.842,-101.722,-25.46,-5.513,-4.673,23.42,-0.16025,-0.67999,0.24847,-0.67087,133,0.893,0.048,0.456,-0.061,0.366,-0.244,5.361,-63.364,-116.169,-26.793,-7.487,5.14,25.07,0.47028,-0.42447,-0.3114,-0.70822,137,0.837,-0.031,0.537,0.122,0.549,0.0,-3.669,-57.706,-164.866,-22.973,-8.48,-11.793,30.25,-0.0983,0.48203,0.03491,0.86987,129,0.983,-0.051,-0.011,0.244,0.488,0.0,-106.106,-86.732,-50.213,-28.287,-6.667,4.46,29.21,0.16345,-0.70215,-0.12833,-0.68094,131
34,1.013,-0.115,-0.043,-0.427,0.0,0.244,-111.912,-82.837,-101.744,-25.46,-5.513,-4.673,23.42,-0.16025,-0.67999,0.24847,-0.67087,138,0.894,0.047,0.453,-0.244,0.244,-0.488,5.372,-63.353,-116.186,-26.793,-7.487,5.14,25.07,0.47028,-0.42447,-0.3114,-0.70822,142,0.835,-0.032,0.538,0.061,0.427,-0.122,-3.664,-57.695,-164.85,-22.973,-8.48,-11.793,30.25,-0.0983,0.48203,0.03491,0.86987,134,0.983,-0.051,-0.019,-0.427,0.427,0.244,-105.952,-86.732,-50.405,-28.287,-6.667,4.46,29.21,0.16345,-0.70215,-0.12833,-0.68094,140
35,1.013,-0.117,-0.049,-1.038,-0.488,0.061,-111.984,-82.837,-101.689,-25.46,-5.513,-4.673,23.42,-0.16025,-0.67999,0.24847,-0.67087,139,0.894,0.046,0.453,-0.732,0.061,-0.549,5.383,-63.342,-116.213,-26.793,-7.487,5.14,25.07,0.47028,-0.42447,-0.3114,-0.70822,143,0.837,-0.03,0.536,-0.122,0.366,-0.427,-3.647,-57.684,-164.866,-22.973,-8.48,-11.793,30.25,-0.0983,0.48203,0.03491,0.86987,135,0.983,-0.053,-0.019,-0.793,0.122,0.244,-105.919,-86.726,-50.477,-28.287,-6.667,4.46,29.21,0.16345,-0.70215,-0.12833,-0.68094,141
36,1.013,-0.117,-0.047,-1.16,-0.427,-0.122,-112.066,-82.837,-101.646,-25.46,-5.513,-4.673,23.42,-0.16025,-0.67999,0.24847,-0.67087,148,0.896,0.045,0.449,-0.916,-0.061,-0.427,5.394,-63.336,-116.241,-26.793,-7.487,5.14,25.07,0.47028,-0.42447,-0.3114,-0.70822,146,0.838,-0.031,0.534,-0.305,0.183,-0.671,-3.631,-57.678,-164.888,-22.973,-8.48,-11.793,30.25,-0.0983,0.48203,0.03491,0.86987,144,0.983,-0.055,-0.021,-0.854,0.0,0.061,-105.952,-86.726,-50.455,-28.287,-6.667,4.46,29.21,0.16345,-0.70215,-0.12833,-0.68094,150
37,1.013,-0.119,-0.044,-1.099,-0.183,-0.244,-112.132,-82.837,-101.607,-25.46,-5.513,-4.673,23.42,-0.16025,-0.67999,0.24847,-0.67087,149,0.9,0.044,0.445,-0.854,-0.305,-0.305,5.394,-63.336,-116.263,-26.793,-7.487,5.14,25.07,0.47028,-0.42447,-0.3114,-0.70822,147,0.84,-0.031,0.531,-0.488,0.0,-0.671,-3.62,-57.678,-164.894,-22.973,-8.48,-11.793,30.25,-0.0983,0.48203,0.03491,0.86987,145,0.986,-0.056,-0.022,-0.916,-0.183,0.0,-106.062,-86.721,-50.35,-28.287,-6.667,4.46,29.21,0.16345,-0.70215,-0.12833,-0.68094,151
38,1.012,-0.122,-0.041,-0.916,-0.366,-0.183,-112.187,-82.842,-101.552,-25.393,-5.087,-4.48,23.42,-0.16025,-0.67999,0.24847,-0.67087,156,0.897,0.043,0.445,-0.793,-0.183,-0.122,5.394,-63.336,-116.279,-26.793,-7.487,5.14,25.07,0.47028,-0.42447,-0.3114,-0.70822,154,0.843,-0.031,0.527,-0.549,-0.183,-0.488,-3.615,-57.678,-164.883,-22.973,-8.48,-11.793,30.25,-0.0983,0.48203,0.03491,0.86987,152,0.987,-0.058,-0.016,-0.977,0.122,0.061,-106.062,-86.721,-50.356,-28.247,-6.933,4.707,29.21,0.16345,-0.70215,-0.12833,-0.68094,158
39,1.007,-0.121,-0.041,-0.488,-0.488,-0.122,-112.258,-82.842,-101.47,-25.393,-5.087,-4.48,23.42,-0.16025,-0.67999,0.24847,-0.67087,157,0.896,0.043,0.446,-0.854,0.061,0.0,5.383,-63.336,-116.285,-26.793,-7.487,5.14,25.07,0.47028,-0.42447,-0.3114,-0.70822,155,0.842,-0.032,0.525,-0.549,-0.061,-0.366,-3.609,-57.678,-164.899,-22.973,-8.48,-11.793,30.25,-0.0983,0.48203,0.03491,0.86987,153,0.984,-0.058,-0.014,-0.61,0.61,0.122,-105.875,-86.721,-50.532,-28.247,-6.933,4.707,29.21,0.16345,-0.70215,-0.12833,-0.68094,159
40,1.006,-0.12,-0.04,-0.061,-0.366,0.0,-112.313,-82.842,-101.376,-25.393,-5.087,-4.48,23.42,-0.16058,-0.6796,0.24844,-0.6712,160,0.897,0.043,0.445,-0.549,0.122,0.0,5.372,-63.336,-116.285,-26.793,-7.487,5.14,25.07,0.47028,-0.42447,-0.3114,-0.70822,166,0.84,-0.032,0.524,-0.732,0.366,-0.061,-3.62,-57.673,-164.927,-23.2,-8.567,-12.387,30.25,-0.0983,0.48203,0.03491,0.86987,162,0.982,-0.058,-0.022,-0.244,1.16,0.0,-105.518,-86.726,-50.883,-28.247,-6.933,4.707,29.21,0.16345,-0.70215,-0.12833,-0.68094,164
41,1.012,-0.12,-0.044,0.244,-0.183,-0.061,-112.335,-82.837,-101.316,-25.393,-5.087,-4.48,23.42,-0.16058,-0.6796,0.24844,-0.6712,161,0.899,0.044,0.444,-0.244,0.244,0.244,5.361,-63.331,-116.285,-26.793,-7.487,5.14,25.07,0.47028,-0.42447,-0.3114,-0.70822,167,0.842,-0.032,0.526,-0.61,0.549,0.0,-3.631,-57.662,-164.943,-23.2,-8.567,-12.387,30.25,-0.0983,0.48203,0.03491,0.86987,163,0.984,-0.059,-0.019,0.183,1.648,0.427,-104.952,-86.726,-51.416,-28.247,-6.933,4.707,29.21,0.16345,-0.70215,-0.12833,-0.68094,165
42,1.018,-0.118,-0.039,0.732,-0.122,-0.061,-112.324,-82.837,-101.294,-25.393,-5.087,-4.48,23.42,-0.16058,-0.6796,0.24844,-0.6712,172,0.898,0.041,0.449,-0.244,0.488,0.671,5.345,-63.325,-116.274,-26.793,-7.487,5.14,25.07,0.47028,-0.42447,-0.3114,-0.70822,174,0.843,-0.03,0.525,-0.244,0.122,0.122,-3.636,-57.662,-164.943,-23.2,-8.567,-12.387,30.25,-0.09955,0.48145,0.03555,0.87003,168,0.99,-0.061,-0.014,0.549,1.892,0.488,-104.293,-86.721,-52.048,-28.247,-6.933,4.707,29.21,0.16293,-0.70074,-0.12668,-0.68283,170
43,1.016,-0.115,-0.046,1.16,-0.427,0.0,-112.313,-82.837,-101.283,-25.393,-5.087,-4.48,23.42,-0.16058,-0.6796,0.24844,-0.6712,173,0.895,0.039,0.452,0.0,0.854,0.793,5.317,-63.314,-116.257,-26.793,-7.487,5.14,25.07,0.47028,-0.42447,-0.3114,-0.70822,175,0.841,-0.033,0.527,-0.427,0.244,0.671,-3.664,-57.656,-164.894,-23.2,-8.567,-12.387,30.25,-0.09955,0.48145,0.03555,0.87003,169,0.987,-0.059,-0.012,0.793,2.441,0.305,-103.458,-86.726,-52.839,-28.247,-6.933,4.707,29.21,0.16293,-0.70074,-0.12668,-0.68283,171
44,1.011,-0.114,-0.049,1.16,-1.038,0.0,-112.346,-82.831,-101.223,-25.393,-5.087,-4.48,23.42,-0.16058,-0.6796,0.24844,-0.6712,176,0.893,0.041,0.455,0.305,1.221,0.732,5.284,-63.298,-116.23,-26.527,-7.88,5.227,25.07,0.47028,-0.42447,-0.3114,-0.70822,182,0.838,-0.037,0.531,-0.366,0.671,1.038,-3.702,-57.64,-164.833,-23.2,-8.567,-12.387,30.25,-0.09955,0.48145,0.03555,0.87003,178,0.982,-0.055,-0.014,1.221,2.441,0.061,-102.634,-86.732,-53.608,-28.247,-6.933,4.707,29.21,0.16293,-0.70074,-0.12668,-0.68283,180
45,1.012,-0.113,-0.055,1.038,-1.038,0.305,-112.451,-82.826,-101.096,-25.393,-5.087,-4.48,23.42,-0.16058,-0.6796,0.24844,-0.6712,177,0.895,0.044,0.455,0.916,1.16,0.366,5.268,-63.276,-116.202,-26.527,-7.88,5.227,25.07,0.47028,-0.42447,-0.3114,-0.70822,183,0.835,-0.038,0.533,0.0,1.099,1.099,-3.73,-57.623,-164.756,-23.2,-8.567,-12.387,30.25,-0.09955,0.48145,0.03555,0.87003,179,0.983,-0.051,-0.021,1.404,2.319,0.0,-101.865,-86.743,-54.322,-28.247,-6.933,4.707,29.21,0.16293,-0.70074,-0.12668,-0.68283,181
46,1.018,-0.116,-0.052,0.732,-0.793,0.427,-112.544,-82.815,-101.003,-25.393,-5.087,-4.48,23.42,-0.16058,-0.6796,0.24844,-0.6712,186,0.895,0.042,0.451,1.221,0.854,0.305,5.268,-63.254,-116.18,-26.527,-7.88,5.227,25.07,0.47028,-0.42447,-0.3114,-0.70822,192,0.839,-0.034,0.537,0.488,1.221,0.732,-3.741,-57.596,-164.691,-23.2,-8.567,-12.387,30.25,-0.09955,0.48145,0.03555,0.87003,184,0.988,-0.055,-0.014,0.977,1.587,-0.244,-101.272,-86.748,-54.866,-28.247,-6.933,4.707,29.21,0.16293,-0.70074,-0.12668,-0.68283,188
47,1.019,-0.12,-0.048,0.244,-0.61,0.549,-112.61,-82.798,-100.959,-25.393,-5.087,-4.48,23.42,-0.16058,-0.6796,0.24844,-0.6712,187,0.901,0.048,0.453,0.977,0.732,0.0,5.284,-63.237,-116.175,-26.527,-7.88,5.227,25.07,0.47028,-0.42447,-0.3114,-0.70822,193,0.837,-0.035,0.534,1.16,0.488,0.671,-3.735,-57.585,-164.636,-23.2,-8.567,-12.387,30.25,-0.09955,0.48145,0.03555,0.87003,185,0.992,-0.052,-0.017,0.488,2.014,0.0,-100.756,-86.759,-55.344,-28.247,-6.933,4.707,29.21,0.16293,-0.70074,-0.12668,-0.68283,189
48,1.019,-0.12,-0.049,-0.183,-0.61,0.549,-112.654,-82.787,-100.926,-25.393,-5.087,-4.48,23.42,-0.16058,-0.6796,0.24844,-0.6712,194,0.904,0.057,0.453,0.916,0.427,-0.366,5.306,-63.221,-116.18,-26.527,-7.88,5.227,25.07,0.47018,-0.42371,-0.31018,-0.70929,198,0.844,-0.033,0.534,1.221,0.305,0.305,-3.719,-57.579,-164.608,-23.2,-8.567,-12.387,30.25,-0.09955,0.48145,0.03555,0.87003,196,0.99,-0.051,-0.017,-0.061,2.075,0.366,-100.118,-86.765,-55.964,-28.247,-6.933,4.707,29.21,0.16293,-0.70074,-0.12668,-0.68283,190
49,1.015,-0.122,-0.052,-0.732,-0.305,0.488,-112.698,-82.771,-100.909,-25.393,-5.087,-4.48,23.42,-0.16058,-0.6796,0.24844,-0.6712,195,0.899,0.053,0.459,0.549,0.488,-0.183,5.339,-63.21,-116.208,-26.527,-7.88,5.227,25.07,0.47018,-0.42371,-0.31018,-0.70929,199,0.847,-0.024,0.536,1.282,0.305,-0.366,-3.68,-57.574,-164.575,-23.2,-8.567,-12.387,30.25,-0.09955,0.48145,0.03555,0.87003,197,0.988,-0.055,-0.03,-1.038,2.258,0.854,-99.448,-86.759,-56.646,-28.247,-6.933,4.707,29.21,0.16293,-0.70074,-0.12668,-0.68283,191
50,1.015,-0.121,-0.048,-0.854,0.549,0.305,-112.698,-82.766,-100.942,-25.393,-5.087,-4.48,23.42,-0.16058,-0.6796,0.24844,-0.6712,204,0.896,0.053,0.456,-0.671,0.549,0.0,5.356,-63.199,-116.219,-26.527,-7.88,5.227,25.07,0.47018,-0.42371,-0.31018,-0.70929,212,0.843,-0.021,0.537,0.854,0.549,-0.366,-3.647,-57.563,-164.57,-23.2,-8.567,-12.387,30.25,-0.09955,0.48145,0.03555,0.87003,200,0.986,-0.059,-0.011,-1.892,1.892,1.404,-98.789,-86.748,-57.349,-28.247,-6.933,4.707,29.21,0.16293,-0.70074,-0.12668,-0.68283,202
51,1.013,-0.127,-0.047,-0.366,0.977,0.244,-112.593,-82.766,-101.08,-25.393,-5.087,-4.48,23.42,-0.16058,-0.6796,0.24844,-0.6712,205,0.889,0.047,0.454,-1.16,0.366,0.0,5.345,-63.188,-116.23,-26.527,-7.88,5.227,25.07,0.47018,-0.42371,-0.31018,-0.70929,213,0.841,-0.024,0.54,-0.305,0.916,-0.183,-3.642,-57.546,-164.586,-23.2,-8.567,-12.387,30.25,-0.09955,0.48145,0.03555,0.87003,201,0.979,-0.062,-0.006,-1.465,1.831,1.709,-98.212,-86.721,-57.98,-28.247,-6.933,4.707,29.21,0.16293,-0.70074,-0.12668,-0.68283,203
52,1.012,-0.125,-0.05,-0.366,0.488,0.244,-112.456,-82.766,-101.228,-25.26,-5.12,-4.073,23.42,-0.16058,-0.6796,0.24844,-0.6712,206,0.882,0.042,0.452,-1.709,0.305,0.061,5.328,-63.182,-116.23,-26.527,-7.88,5.227,25.07,0.47018,-0.42371,-0.31018,-0.70929,216,0.833,-0.028,0.535,-0.732,0.183,-0.488,-3.631,-57.541,-164.597,-23.2,-8.567,-12.387,30.25,-0.09955,0.48145,0.03555,0.87003,208,0.974,-0.058,-0.003,-1.16,1.587,1.709,-97.646,-86.693,-58.59,-28.247,-6.933,4.707,29.21,0.16293,-0.70074,-0.12668,-0.68283,210
53,1.002,-0.117,-0.05,-1.343,-0.244,0.183,-112.401,-82.76,-101.299,-25.26,-5.12,-4.073,23.42,-0.16058,-0.6796,0.24844,-0.6712,207,0.883,0.041,0.452,-1.831,0.427,0.061,5.295,-63.171,-116.235,-26.527,-7.88,5.227,25.07,0.47018,-0.42371,-0.31018,-0.70929,217,0.826,-0.032,0.532,-1.404,-0.122,-0.305,-3.647,-57.546,-164.614,-23.2,-8.567,-12.387,30.25,-0.09955,0.48145,0.03555,0.87003,209,0.973,-0.054,-0.003,-1.465,1.16,1.587,-97.169,-86.66,-59.117,-28.247,-6.933,4.707,29.21,0.16293,-0.70074,-0.12668,-0.68283,211
54,1.006,-0.114,-0.051,-2.136,-0.61,0.122,-112.467,-82.755,-101.272,-25.26,-5.12,-4.073,23.42,-0.16058,-0.6796,0.24844,-0.6712,218,0.893,0.039,0.453,-1.648,0.427,0.0,5.262,-63.16,-116.246,-26.527,-7.88,5.227,25.07,0.47018,-0.42371,-0.31018,-0.70929,220,0.826,-0.034,0.529,-1.831,0.061,-0.061,-3.675,-57.541,-164.625,-23.2,-8.567,-12.387,30.25,-0.09955,0.48145,0.03555,0.87003,214,0.982,-0.06,-0.008,-1.77,0.732,1.404,-96.839,-86.633,-59.496,-28.247,-6.933,4.707,29.21,0.16293,-0.70074,-0.12668,-0.68283,228
55,1.019,-0.111,-0.05,-1.77,-0.549,0.244,-112.582,-82.749,-101.217,-25.26,-5.12,-4.073,23.42,-0.16058,-0.6796,0.24844,-0.6712,219,0.896,0.038,0.454,-1.282,0.183,0.061,5.235,-63.155,-116.263,-26.527,-7.88,5.227,25.07,0.47018,-0.42371,-0.31018,-0.70929,221,0.834,-0.037,0.53,-1.953,0.61,0.0,-3.708,-57.53,-164.63,-23.2,-8.567,-12.387,30.25,-0.09955,0.48145,0.03555,0.87003,215,0.99,-0.059,-0.006,-1.343,0.061,0.916,-96.685,-86.611,-59.705,-28.247,-6.933,4.707,29.21,0.16293,-0.70074,-0.12668,-0.68283,229
56,1.02,-0.113,-0.048,-1.099,-0.427,0.427,-112.676,-82.738,-101.184,-25.26,-5.12,-4.073,23.42,-0.16052,-0.67963,0.24945,-0.67084,224,0.9,0.039,0.457,-0.977,0.061,0.122,5.213,-63.149,-116.279,-26.527,-7.88,5.227,25.07,0.47018,-0.42371,-0.31018,-0.70929,222,0.839,-0.038,0.533,-1.648,0.488,0.0,-3.735,-57.519,-164.625,-23.2,-8.567,-12.387,30.25,-0.09955,0.48145,0.03555,0.87003,226,0.992,-0.055,-0.01,-0.488,-0.183,0.305,-96.718,-86.594,-59.705,-28.287,-6.9,3.913,29.21,0.16293,-0.70074,-0.12668,-0.68283,232
57,1.02,-0.117,-0.049,-0.549,-0.427,0.61,-112.731,-82.727,-101.179,-25.26,-5.12,-4.073,23.42,-0.16052,-0.67963,0.24945,-0.67084,225,0.904,0.038,0.455,-0.732,0.122,0.061,5.191,-63.144,-116.285,-26.527,-7.88,5.227,25.07,0.47018,-0.42371,-0.31018,-0.70929,223,0.842,-0.038,0.536,-1.343,0.305,0.061,-3.763,-57.513,-164.619,-23.2,-8.567,-12.387,30.25,-0.09955,0.48145,0.03555,0.87003,227,0.992,-0.06,-0.007,-0.183,0.244,0.122,-96.779,-86.589,-59.65,-28.287,-6.9,3.913,29.21,0.16293,-0.70074,-0.12668,-0.68283,233
58,1.016,-0.12,-0.047,0.0,-0.549,0.488,-112.769,-82.716,-101.184,-25.26,-5.12,-4.073,23.42,-0.16052,-0.67963,0.24945,-0.67084,234,0.9,0.04,0.456,-0.061,0.183,-0.122,5.18,-63.138,-116.296,-26.527,-7.88,5.227,25.07,0.47018,-0.42371,-0.31018,-0.70929,238,0.849,-0.04,0.534,-1.099,0.366,0.305,-3.796,-57.502,-164.603,-23.48,-8.16,-12.587,30.25,-0.09955,0.48145,0.03555,0.87003,230,0.99,-0.062,-0.011,0.427,0.061,-0.061,-96.746,-86.589,-59.689,-28.287,-6.9,3.913,29.21,0.16293,-0.70074,-0.12668,-0.68283,236
59,1.012,-0.122,-0.048,0.366,-0.183,0.61,-112.802,-82.705,-101.201,-25.26,-5.12,-4.073,23.42,-0.16052,-0.67963,0.24945,-0.67084,235,0.898,0.042,0.453,0.671,0.0,-0.061,5.186,-63.133,-116.312,-26.527,-7.88,5.227,25.07,0.47018,-0.42371,-0.31018,-0.70929,239,0.843,-0.04,0.536,-0.488,0.366,0.0,-3.801,-57.497,-164.608,-23.48,-8.16,-12.587,30.25,-0.09955,0.48145,0.03555,0.87003,231,0.984,-0.062,-0.013,0.61,0.244,0.0,-96.74,-86.589,-59.705,-28.287,-6.9,3.913,29.21,0.16293,-0.70074,-0.12668,-0.68283,237
60,1.015,-0.128,-0.051,0.366,-0.061,0.793,-112.769,-82.694,-101.239,-25.26,-5.12,-4.073,23.42,-0.16052,-0.67963,0.24945,-0.67084,242,0.893,0.041,0.452,0.854,0.0,0.0,5.208,-63.133,-116.323,-26.527,-7.88,5.227,25.07,0.47018,-0.42371,-0.31018,-0.70929,240,0.836,-0.036,0.533,0.61,0.0,0.061,-3.796,-57.491,-164.603,-23.48,-8.16,-12.587,30.25,-0.09955,0.48145,0.03555,0.87003,244,0.982,-0.067,-0.018,0.488,0.488,0.305,-96.663,-86.589,-59.76,-28.287,-6.9,3.913,29.21,0.16293,-0.70074,-0.12668,-0.68283,246
61,1.016,-0.133,-0.055,0.183,0.0,0.854,-112.72,-82.678,-101.299,-25.26,-5.12,-4.073,23.42,-0.16052,-0.67963,0.24945,-0.67084,243,0.892,0.039,0.451,0.977,-0.305,0.183,5.219,-63.133,-116.323,-26.527,-7.88,5.227,25.07,0.47018,-0.42371,-0.31018,-0.70929,241,0.836,-0.037,0.532,0.793,-0.061,0.244,-3.785,-57.491,-164.603,-23.48,-8.16,-12.587,30.25,-0.09955,0.48145,0.03555,0.87003,245,0.983,-0.069,-0.011,0.549,0.427,0.549,-96.537,-86.583,-59.865,-28.287,-6.9,3.913,29.21,0.16293,-0.70074,-0.12668,-0.68283,247
62,1.014,-0.125,-0.057,0.183,-0.061,0.671,-112.665,-82.661,-101.343,-25.26,-5.12,-4.073,23.42,-0.16052,-0.67963,0.24945,-0.67084,248,0.89,0.041,0.451,0.732,-0.366,0.244,5.229,-63.144,-116.323,-26.527,-7.88,5.227,25.07,0.47018,-0.42371,-0.31018,-0.70929,254,0.833,-0.036,0.53,0.793,-0.183,0.305,-3.779,-57.491,-164.603,-23.48,-8.16,-12.587,30.25,-0.10156,0.48019,0.03564,0.87045,250,0.979,-0.064,-0.013,0.671,0.183,0.488,-96.443,-86.567,-59.952,-28.287,-6.9,3.913,29.21,0.16443,-0.69846,-0.12448,-0.68521,252
63,1.011,-0.12,-0.059,0.061,-0.61,0.366,-112.654,-82.645,-101.327,-25.26,-5.12,-4.073,23.42,-0.16052,-0.67963,0.24945,-0.67084,249,0.892,0.038,0.451,0.366,-0.305,0.305,5.229,-63.149,-116.318,-26.527,-7.88,5.227,25.07,0.47018,-0.42371,-0.31018,-0.70929,255,0.834,-0.038,0.531,0.305,0.0,0.427,-3.779,-57.497,-164.575,-23.48,-8.16,-12.587,30.25,-0.10156,0.48019,0.03564,0.87045,251,0.979,-0.059,-0.017,0.61,0.061,0.305,-96.422,-86.556,-59.963,-28.287,-6.9,3.913,29.21,0.16443,-0.69846,-0.12448,-0.68521,253
64,1.011,-0.116,-0.058,0.122,-0.671,0.183,-112.731,-82.634,-101.239,-25.26,-5.12,-4.073,23.42,-0.16052,-0.67963,0.24945,-0.67084,256,0.896,0.039,0.451,0.122,-0.427,0.305,5.224,-63.155,-116.318,-26.793,-7.767,5.04,25.07,0.47018,-0.42371,-0.31018,-0.70929,260,0.84,-0.04,0.532,0.0,-0.122,0.488,-3.79,-57.497,-164.548,-23.48,-8.16,-12.587,30.25,-0.10156,0.48019,0.03564,0.87045,262,0.985,-0.06,-0.016,0.305,0.061,0.0,-96.454,-86.55,-59.925,-28.287,-6.9,3.913,29.21,0.16443,-0.69846,-0.12448,-0.68521,258
65,1.014,-0.118,-0.046,0.549,-0.122,0.183,-112.802,-82.628,-101.173,-25.26,-5.12,-4.073,23.42,-0.16052,-0.67963,0.24945,-0.67084,257,0.9,0.039,0.45,-0.061,-0.671,0.183,5.213,-63.166,-116.307,-26.793,-7.767,5.04,25.07,0.47018,-0.42371,-0.31018,-0.70929,261,0.843,-0.04,0.531,-0.061,-0.61,0.366,-3.807,-57.502,-164.531,-23.48,-8.16,-12.587,30.25,-0.10156,0.48019,0.03564,0.87045,263,0.993,-0.062,-0.007,0.305,0.244,-0.122,-96.476,-86.55,-59.886,-28.287,-6.9,3.913,29.21,0.16443,-0.69846,-0.12448,-0.68521,259
66,1.014,-0.125,-0.041,0.549,0.0,0.183,-112.802,-82.623,-101.19,-25.26,-5.12,-4.073,23.42,-0.16052,-0.67963,0.24945,-0.67084,266,0.901,0.041,0.451,0.0,-0.61,0.0,5.213,-63.177,-116.307,-26.793,-7.767,5.04,25.07,0.47018,-0.42371,-0.31018,-0.70929,270,0.845,-0.039,0.53,-0.122,-0.61,0.244,-3.823,-57.513,-164.537,-23.48,-8.16,-12.587,30.25,-0.10156,0.48019,0.03564,0.87045,268,0.991,-0.064,-0.002,0.305,0.793,-0.122,-96.361,-86.55,-59.98,-28.287,-6.9,3.913,29.21,0.16443,-0.69846,-0.12448,-0.68521,264
67,1.012,-0.125,-0.04,0.183,-0.122,0.061,-112.786,-82.617,-101.212,-25.26,-5.12,-4.073,23.42,-0.16052,-0.67963,0.24945,-0.67084,267,0.901,0.039,0.453,0.061,-0.183,0.0,5.213,-63.182,-116.307,-26.793,-7.767,5.04,25.07,0.47018,-0.42371,-0.31018,-0.70929,271,0.843,-0.037,0.531,-0.122,0.0,0.183,-3.834,-57.519,-164.553,-23.48,-8.16,-12.587,30.25,-0.10156,0.48019,0.03564,0.87045,269,0.988,-0.063,-0.003,0.427,0.977,-0.244,-96.108,-86.556,-60.227,-28.287,-6.9,3.913,29.21,0.16443,-0.69846,-0.12448,-0.68521,265
68,1.007,-0.123,-0.039,-0.061,-0.122,0.061,-112.786,-82.617,-101.223,-25.347,-4.847,-4.12,23.42,-0.16052,-0.67963,0.24945,-0.67084,278,0.896,0.041,0.457,0.244,0.183,0.061,5.213,-63.182,-116.312,-26.793,-7.767,5.04,25.07,0.46915,-0.4241,-0.30902,-0.71024,276,0.838,-0.038,0.534,0.0,0.549,0.366,-3.845,-57.519,-164.575,-23.48,-8.16,-12.587,30.25,-0.10156,0.48019,0.03564,0.87045,272,0.981,-0.062,-0.004,0.488,1.221,-0.305,-95.773,-86.561,-60.529,-28.287,-6.9,3.913,29.21,0.16443,-0.69846,-0.12448,-0.68521,274
69,1.008,-0.118,-0.045,-0.183,0.305,0.061,-112.753,-82.617,-101.266,-25.347,-4.847,-4.12,23.42,-0.16052,-0.67963,0.24945,-0.67084,279,0.896,0.042,0.458,0.183,0.427,0.122,5.208,-63.177,-116.307,-26.793,-7.767,5.04,25.07,0.46915,-0.4241,-0.30902,-0.71024,277,0.839,-0.037,0.538,0.0,0.977,0.366,-3.862,-57.508,-164.592,-23.48,-8.16,-12.587,30.25,-0.10156,0.48019,0.03564,0.87045,273,0.983,-0.06,-0.009,0.427,0.916,-0.488,-95.449,-86.567,-60.815,-28.287,-6.9,3.913,29.21,0.16443,-0.69846,-0.12448,-0.68521,275
70,1.014,-0.121,-0.043,-0.366,0.671,0.061,-112.659,-82.617,-101.349,-25.347,-4.847,-4.12,23.42,-0.1611,-0.67923,0.25165,-0.67026,286,0.895,0.042,0.452,0.183,0.305,0.0,5.208,-63.166,-116.301,-26.793,-7.767,5.04,25.07,0.46915,-0.4241,-0.30902,-0.71024,284,0.838,-0.038,0.533,0.427,0.305,0.183,-3.867,-57.491,-164.625,-23.48,-8.16,-12.587,30.25,-0.10156,0.48019,0.03564,0.87045,280,0.985,-0.059,-0.001,0.427,0.916,-0.427,-95.18,-86.578,-61.035,-28.287,-6.9,3.913,29.21,0.16443,-0.69846,-0.12448,-0.68521,282
71,1.016,-0.125,-0.05,-0.183,0.366,0.0,-112.571,-82.623,-101.42,-25.347,-4.847,-4.12,23.42,-0.1611,-0.67923,0.25165,-0.67026,287,0.893,0.048,0.455,0.305,0.61,-0.244,5.219,-63.16,-116.301,-26.793,-7.767,5.04,25.07,0.46915,-0.4241,-0.30902,-0.71024,285,0.836,-0.032,0.534,0.549,0.427,-0.183,-3.862,-57.486,-164.641,-23.48,-8.16,-12.587,30.25,-0.10156,0.48019,0.03564,0.87045,281,0.981,-0.06,-0.007,0.549,0.671,-0.183,-94.933,-86.583,-61.243,-28.287,-6.9,3.913,29.21,0.16443,-0.69846,-0.12448,-0.68521,283
72,1.011,-0.127,-0.055,0.0,-0.061,0.183,-112.527,-82.623,-101.437,-25.347,-4.847,-4.12,23.42,-0.1611,-0.67923,0.25165,-0.67026,290,0.889,0.041,0.451,0.366,0.854,-0.122,5.229,-63.144,-116.301,-26.793,-7.767,5.04,25.07,0.46915,-0.4241,-0.30902,-0.71024,292,0.832,-0.036,0.53,0.427,0.732,0.0,-3.845,-57.475,-164.647,-23.48,-8.16,-12.587,30.25,-0.10156,0.48019,0.03564,0.87045,288,0.979,-0.065,-0.011,0.549,0.732,0.0,-94.713,-86.583,-61.43,-28.287,-6.9,3.913,29.21,0.16443,-0.69846,-0.12448,-0.68521,296
73,1.011,-0.125,-0.055,0.244,-0.366,0.244,-112.533,-82.617,-101.409,-25.347,-4.847,-4.12,23.42,-0.1611,-0.67923,0.25165,-0.67026,291,0.895,0.043,0.453,0.122,0.977,-0.183,5.235,-63.122,-116.301,-26.793,-7.767,5.04,25.07,0.46915,-0.4241,-0.30902,-0.71024,293,0.838,-0.036,0.533,0.305,0.977,-0.061,-3.84,-57.458,-164.669,-23.48,-8.16,-12.587,30.25,-0.10156,0.48019,0.03564,0.87045,289,0.984,-0.062,-0.015,0.244,0.61,0.061,-94.515,-86.583,-61.622,-28.287,-6.9,3.913,29.21,0.16443,-0.69846,-0.12448,-0.68521,297
74,1.018,-0.119,-0.052,-0.183,-0.061,0.061,-112.544,-82.612,-101.404,-25.347,-4.847,-4.12,23.42,-0.1611,-0.67923,0.25165,-0.67026,300,0.9,0.05,0.45,0.244,0.61,-0.366,5.251,-63.105,-116.318,-26.793,-7.767,5.04,25.07,0.46915,-0.4241,-0.30902,-0.71024,298,0.843,-0.029,0.533,0.732,0.549,-0.427,-3.823,-57.442,-164.669,-23.48,-8.16,-12.587,30.25,-0.10156,0.48019,0.03564,0.87045,294,0.99,-0.054,-0.013,0.0,0.366,0.122,-94.4,-86.578,-61.743,-28.287,-6.9,3.913,29.21,0.16443,-0.69846,-0.12448,-0.68521,304
75,1.021,-0.114,-0.051,-0.732,0.122,-0.122,-112.549,-82.612,-101.437,-25.347,-4.847,-4.12,23.42,-0.1611,-0.67923,0.25165,-0.67026,301,0.9,0.048,0.45,0.427,0.244,-0.061,5.268,-63.094,-116.323,-26.793,-7.767,5.04,25.07,0.46915,-0.4241,-0.30902,-0.71024,299,0.844,-0.027,0.531,0.61,0.122,-0.244,-3.796,-57.437,-164.68,-23.48,-8.16,-12.587,30.25,-0.10156,0.48019,0.03564,0.87045,295,0.992,-0.057,-0.011,-0.366,0.671,0.061,-94.29,-86.578,-61.864,-28.287,-6.9,3.913,29.21,0.16443,-0.69846,-0.12448,-0.68521,305
76,1.018,-0.121,-0.047,-1.099,0.305,-0.244,-112.544,-82.617,-101.475,-25.347,-4.847,-4.12,23.42,-0.1611,-0.67923,0.25165,-0.67026,306,0.899,0.043,0.451,-0.366,0.366,0.122,5.268,-63.089,-116.323,-26.793,-7.767,5.04,25.07,0.46915,-0.4241,-0.30902,-0.71024,302,0.842,-0.035,0.532,-0.305,0.366,0.061,-3.785,-57.431,-164.685,-23.48,-8.16,-12.587,30.25,-0.10156,0.48019,0.03564,0.87045,308,0.991,-0.061,-0.009,-0.244,1.16,-0.183,-94.059,-86.578,-62.095,-28.22,-6.787,3.933,29.21,0.16443,-0.69846,-0.12448,-0.68521,310
77,1.011,-0.123,-0.045,-1.16,0.793,-0.183,-112.5,-82.623,-101.569,-25.347,-4.847,-4.12,23.42,-0.1611,-0.67923,0.25165,-0.67026,307,0.896,0.042,0.45,-0.244,0.488,0.0,5.262,-63.083,-116.318,-26.793,-7.767,5.04,25.07,0.46915,-0.4241,-0.30902,-0.71024,303,0.84,-0.038,0.529,-0.183,0.488,0.0,-3.785,-57.426,-164.696,-23.48,-8.16,-12.587,30.25,-0.10156,0.48019,0.03564,0.87045,309,0.986,-0.058,-0.002,0.061,1.526,-0.244,-93.686,-86.583,-62.474,-28.22,-6.787,3.933,29.21,0.16443,-0.69846,-0.12448,-0.68521,311
78,1.007,-0.12,-0.045,-1.16,0.671,0.0,-112.418,-82.634,-101.706,-25.347,-4.847,-4.12,23.42,-0.1611,-0.67923,0.25165,-0.67026,316,0.89,0.044,0.453,-0.305,0.732,-0.183,5.262,-63.073,-116.312,-26.793,-7.767,5.04,25.07,0.46915,-0.4241,-0.30902,-0.71024,314,0.834,-0.035,0.531,-0.244,0.916,0.0,-3.79,-57.415,-164.68,-23.347,-7.987,-12.12,30.25,-0.10156,0.48019,0.03564,0.87045,312,0.98,-0.058,-0.002,-0.061,1.831,-0.244,-93.181,-86.589,-62.946,-28.22,-6.787,3.933,29.21,0.16443,-0.69846,-0.12448,-0.68521,318
79,1.004,-0.119,-0.043,-1.404,0.183,0.061,-112.374,-82.634,-101.799,-25.347,-4.847,-4.12,23.42,-0.1611,-0.67923,0.25165,-0.67026,317,0.891,0.046,0.455,-0.366,0.854,-0.305,5.268,-63.056,-116.323,-26.793,-7.767,5.04,25.07,0.46915,-0.4241,-0.30902,-0.71024,315,0.833,-0.033,0.535,-0.488,1.221,-0.061,-3.79,-57.398,-164.669,-23.347,-7.987,-12.12,30.25,-0.10156,0.48019,0.03564,0.87045,313,0.98,-0.056,-0.006,-0.305,2.014,-0.061,-92.593,-86.594,-63.523,-28.22,-6.787,3.933,29.21,0.16443,-0.69846,-0.12448,-0.68521,319
80,1.011,-0.12,-0.042,-1.465,0.427,0.183,-112.341,-82.639,-101.893,-25.347,-4.847,-4.12,23.42,-0.1611,-0.67923,0.25165,-0.67026,324,0.89,0.047,0.457,-0.061,0.854,-0.549,5.279,-63.04,-116.345,-26.793,-7.767,5.04,25.07,0.46915,-0.4241,-0.30902,-0.71024,332,0.833,-0.032,0.536,-0.244,1.16,-0.244,-3.79,-57.376,-164.658,-23.347,-7.987,-12.12,30.25,-0.10156,0.48019,0.03564,0.87045,320,0.981,-0.056,0.0,-0.244,1.892,0.0,-92.0,-86.594,-64.133,-28.22,-6.787,3.933,29.21,0.16647,-0.69659,-0.12576,-0.68637,322
81,1.012,-0.122,-0.048,-1.282,0.732,0.366,-112.258,-82.639,-102.041,-25.347,-4.847,-4.12,23.42,-0.1611,-0.67923,0.25165,-0.67026,325,0.896,0.048,0.461,-0.122,0.977,-0.671,5.301,-63.018,-116.367,-26.793,-7.767,5.04,25.07,0.46915,-0.4241,-0.30902,-0.71024,333,0.839,-0.031,0.541,0.0,1.099,-0.61,-3.779,-57.354,-164.652,-23.347,-7.987,-12.12,30.25,-0.10156,0.48019,0.03564,0.87045,321,0.986,-0.063,-0.009,-0.366,1.648,0.122,-91.461,-86.594,-64.688,-28.22,-6.787,3.933,29.21,0.16647,-0.69659,-0.12576,-0.68637,323
82,1.018,-0.122,-0.046,-1.282,0.977,0.427,-112.126,-82.639,-102.211,-25.293,-5.233,-4.493,23.42,-0.1611,-0.67923,0.25165,-0.67026,328,0.896,0.048,0.461,-0.305,0.854,-0.427,5.323,-62.996,-116.378,-26.42,-7.3,5.407,25.07,0.46915,-0.4241,-0.30902,-0.71024,336,0.837,-0.03,0.543,0.0,0.977,-0.488,-3.757,-57.338,-164.663,-23.347,-7.987,-12.12,30.25,-0.10135,0.47916,0.03534,0.87109,326,0.99,-0.059,0.001,-0.244,1.343,0.061,-91.022,-86.594,-65.154,-28.22,-6.787,3.933,29.21,0.16647,-0.69659,-0.12576,-0.68637,330
83,1.018,-0.122,-0.05,-1.221,0.916,0.427,-111.978,-82.634,-102.387,-25.293,-5.233,-4.493,23.42,-0.1611,-0.67923,0.25165,-0.67026,329,0.892,0.049,0.46,-0.305,0.854,-0.305,5.334,-62.979,-116.384,-26.42,-7.3,5.407,25.07,0.46915,-0.4241,-0.30902,-0.71024,337,0.835,-0.03,0.541,0.0,0.549,-0.488,-3.741,-57.321,-164.674,-23.347,-7.987,-12.12,30.25,-0.10135,0.47916,0.03534,0.87109,327,0.984,-0.058,0.0,-0.427,1.038,0.183,-90.703,-86.589,-65.506,-28.22,-6.787,3.933,29.21,0.16647,-0.69659,-0.12576,-0.68637,331
84,1.015,-0.123,-0.058,-0.916,0.366,0.244,-111.885,-82.634,-102.513,-25.293,-5.233,-4.493,23.42,-0.1611,-0.67923,0.25165,-0.67026,338,0.889,0.046,0.46,-0.61,0.854,-0.427,5.339,-62.957,-116.389,-26.42,-7.3,5.407,25.07,0.46915,-0.4241,-0.30902,-0.71024,342,0.832,-0.034,0.542,-0.549,0.793,-0.488,-3.724,-57.31,-164.691,-23.347,-7.987,-12.12,30.25,-0.10135,0.47916,0.03534,0.87109,334,0.981,-0.061,-0.007,-0.122,0.793,0.305,-90.467,-86.583,-65.803,-28.22,-6.787,3.933,29.21,0.16647,-0.69659,-0.12576,-0.68637,340
85,1.01,-0.122,-0.06,-0.305,-0.061,0.305,-111.863,-82.628,-102.579,-25.293,-5.233,-4.493,23.42,-0.1611,-0.67923,0.25165,-0.67026,339,0.89,0.047,0.457,-0.244,0.488,-0.366,5.35,-62.941,-116.389,-26.42,-7.3,5.407,25.07,0.46915,-0.4241,-0.30902,-0.71024,343,0.834,-0.03,0.538,-0.183,0.366,-0.549,-3.713,-57.294,-164.718,-23.347,-7.987,-12.12,30.25,-0.10135,0.47916,0.03534,0.87109,335,0.98,-0.063,-0.017,-0.244,0.366,0.305,-90.374,-86.578,-65.951,-28.22,-6.787,3.933,29.21,0.16647,-0.69659,-0.12576,-0.68637,341
86,1.024,-0.126,-0.051,0.0,0.305,0.305,-111.841,-82.623,-102.662,-25.293,-5.233,-4.493,23.42,-0.16351,-0.6777,0.25403,-0.67032,348,0.897,0.042,0.453,-0.244,0.0,0.0,5.356,-62.935,-116.389,-26.42,-7.3,5.407,25.07,0.46915,-0.4241,-0.30902,-0.71024,354,0.842,-0.033,0.536,-0.305,0.0,-0.122,-3.697,-57.288,-164.784,-23.347,-7.987,-12.12,30.25,-0.10135,0.47916,0.03534,0.87109,346,0.993,-0.064,-0.006,0.0,0.244,0.427,-90.363,-86.567,-66.011,-28.22,-6.787,3.933,29.21,0.16647,-0.69659,-0.12576,-0.68637,344
87,1.05,-0.123,-0.039,-0.244,0.61,0.305,-111.769,-82.623,-102.788,-25.293,-5.233,-4.493,23.42,-0.16351,-0.6777,0.25403,-0.67032,349,0.908,0.042,0.452,-0.244,-0.305,0.061,5.356,-62.935,-116.378,-26.42,-7.3,5.407,25.07,0.46915,-0.4241,-0.30902,-0.71024,355,0.846,-0.037,0.531,-0.183,-0.488,0.0,-3.697,-57.288,-164.844,-23.347,-7.987,-12.12,30.25,-0.10135,0.47916,0.03534,0.87109,347,1.003,-0.059,0.005,0.0,0.61,0.427,-90.258,-86.556,-66.121,-28.22,-6.787,3.933,29.21,0.16647,-0.69659,-0.12576,-0.68637,345
88,0.965,-0.123,-0.047,-0.488,0.0,-1.526,-111.769,-82.634,-102.843,-25.293,-5.233,-4.493,23.42,-0.16351,-0.6777,0.25403,-0.67032,356,0.88,0.046,0.459,-0.244,0.366,-0.183,5.356,-62.935,-116.378,-26.42,-7.3,5.407,25.07,0.46976,-0.42212,-0.30872,-0.71115,362,0.826,-0.036,0.538,-0.488,0.977,0.0,-3.702,-57.294,-164.866,-23.347,-7.987,-12.12,30.25,-0.10135,0.47916,0.03534,0.87109,350,0.962,-0.053,-0.009,0.244,1.16,0.0,-89.973,-86.556,-66.396,-28.22,-6.787,3.933,29.21,0.16647,-0.69659,-0.12576,-0.68637,352
89,1.022,-0.128,-0.034,1.16,0.977,0.061,-111.731,-82.65,-102.914,-25.293,-5.233,-4.493,23.42,-0.16351,-0.6777,0.25403,-0.67032,357,0.884,0.042,0.454,-0.183,0.671,-0.488,5.367,-62.924,-116.395,-26.42,-7.3,5.407,25.07,0.46976,-0.42212,-0.30872,-0.71115,363,0.827,-0.032,0.53,-0.244,1.038,-0.366,-3.702,-57.272,-164.888,-23.347,-7.987,-12.12,30.25,-0.10135,0.47916,0.03534,0.87109,351,0.976,-0.08,0.013,1.343,1.099,0.244,-89.632,-86.55,-66.714,-28.22,-6.787,3.933,29.21,0.16647,-0.69659,-0.12576,-0.68637,353
90,1.001,-0.146,-0.053,3.54,-0.183,1.343,-111.572,-82.639,-103.068,-25.293,-5.233,-4.493,23.42,-0.16351,-0.6777,0.25403,-0.67032,360,0.879,0.041,0.458,-0.061,0.61,0.61,5.361,-62.908,-116.4,-26.42,-7.3,5.407,25.07,0.46976,-0.42212,-0.30872,-0.71115,370,0.823,-0.035,0.54,-0.183,1.16,0.61,-3.702,-57.255,-164.872,-23.347,-7.987,-12.12,30.25,-0.10135,0.47916,0.03534,0.87109,358,0.971,-0.08,-0.008,2.869,0.854,0.305,-89.313,-86.539,-66.989,-28.22,-6.787,3.933,29.21,0.16647,-0.69659,-0.12576,-0.68637,364
91,1.022,-0.105,-0.049,2.014,-0.61,1.282,-111.489,-82.612,-103.134,-25.293,-5.233,-4.493,23.42,-0.16351,-0.6777,0.25403,-0.67032,361,0.89,0.047,0.46,0.732,0.427,0.671,5.345,-62.897,-116.373,-26.42,-7.3,5.407,25.07,0.46976,-0.42212,-0.30872,-0.71115,371,0.832,-0.03,0.54,0.977,0.183,0.549,-3.713,-57.233,-164.833,-23.347,-7.987,-12.12,30.25,-0.10135,0.47916,0.03534,0.87109,359,0.988,-0.05,0.002,1.709,0.549,1.221,-89.116,-86.517,-67.176,-28.22,-6.787,3.933,29.21,0.16647,-0.69659,-0.12576,-0.68637,365
92,1.008,-0.104,-0.043,1.404,-0.061,0.549,-111.445,-82.59,-103.162,-25.293,-5.233,-4.493,23.42,-0.16351,-0.6777,0.25403,-0.67032,368,0.901,0.049,0.464,1.038,0.244,0.793,5.334,-62.891,-116.345,-26.42,-7.3,5.407,25.07,0.46976,-0.42212,-0.30872,-0.71115,372,0.842,-0.03,0.545,1.038,0.305,0.854,-3.713,-57.228,-164.8,-23.347,-7.987,-12.12,30.25,-0.10135,0.47916,0.03534,0.87109,366,0.992,-0.05,0.002,0.0,0.732,1.099,-88.923,-86.495,-67.346,-28.22,-6.787,3.933,29.21,0.16647,-0.69659,-0.12576,-0.68637,376
93,1.02,-0.12,-0.052,1.16,-0.977,0.183,-111.473,-82.579,-103.134,-25.293,-5.233,-4.493,23.42,-0.16351,-0.6777,0.25403,-0.67032,369,0.895,0.038,0.463,1.465,0.183,1.038,5.328,-62.886,-116.312,-26.42,-7.3,5.407,25.07,0.46976,-0.42212,-0.30872,-0.71115,373,0.836,-0.038,0.544,1.404,0.305,1.16,-3.713,-57.217,-164.751,-23.347,-7.987,-12.12,30.25,-0.10135,0.47916,0.03534,0.87109,367,0.987,-0.071,-0.006,0.305,0.366,0.183,-88.802,-86.484,-67.44,-28.22,-6.787,3.933,29.21,0.16647,-0.69659,-0.12576,-0.68637,377
94,1.006,-0.141,-0.042,1.343,0.061,0.244,-111.5,-82.573,-103.085,-25.293,-5.233,-4.493,23.42,-0.16351,-0.6777,0.25403,-0.67032,380,0.891,0.033,0.462,0.916,0.305,1.709,5.29,-62.88,-116.257,-26.42,-7.3,5.407,25.07,0.46976,-0.42212,-0.30872,-0.71115,374,0.833,-0.043,0.542,0.732,0.244,1.709,-3.724,-57.211,-164.713,-23.347,-7.987,-12.12,30.25,-0.10135,0.47916,0.03534,0.87109,378,0.982,-0.077,0.002,2.075,-0.305,-0.671,-88.852,-86.49,-67.363,-28.447,-6.72,3.487,29.21,0.16647,-0.69659,-0.12576,-0.68637,382
95,1.018,-0.133,-0.045,0.549,-0.183,0.183,-111.473,-82.573,-103.101,-25.293,-5.233,-4.493,23.42,-0.16351,-0.6777,0.25403,-0.67032,381,0.889,0.04,0.462,0.244,0.122,1.709,5.229,-62.88,-116.191,-26.42,-7.3,5.407,25.07,0.46976,-0.42212,-0.30872,-0.71115,375,0.832,-0.042,0.542,0.305,0.244,1.709,-3.768,-57.2,-164.663,-23.347,-7.987,-12.12,30.25,-0.10135,0.47916,0.03534,0.87109,379,0.987,-0.06,-0.003,1.587,-0.549,-0.427,-89.006,-86.495,-67.187,-28.447,-6.72,3.487,29.21,0.16647,-0.69659,-0.12576,-0.68637,383
96,1.017,-0.117,-0.046,0.061,-0.061,0.0,-111.467,-82.568,-103.107,-25.293,-5.233,-4.493,23.42,-0.16351,-0.6777,0.25403,-0.67032,386,0.896,0.049,0.46,0.305,-0.244,0.732,5.197,-62.88,-116.164,-26.42,-7.3,5.407,25.07,0.46976,-0.42212,-0.30872,-0.71115,384,0.839,-0.034,0.543,0.488,-0.366,0.854,-3.807,-57.195,-164.608,-23.427,-8.02,-13.013,30.25,-0.10135,0.47916,0.03534,0.87109,390,0.99,-0.057,0.001,0.061,-0.305,0.427,-89.149,-86.49,-67.033,-28.447,-6.72,3.487,29.21,0.16647,-0.69659,-0.12576,-0.68637,388
97,1.011,-0.107,-0.043,0.488,-0.427,0.0,-111.484,-82.568,-103.107,-25.293,-5.233,-4.493,23.42,-0.16351,-0.6777,0.25403,-0.67032,387,0.895,0.052,0.463,0.122,-0.183,0.244,5.191,-62.88,-116.158,-26.42,-7.3,5.407,25.07,0.46976,-0.42212,-0.30872,-0.71115,385,0.837,-0.028,0.543,0.244,-0.183,0.244,-3.818,-57.195,-164.603,-23.427,-8.02,-13.013,30.25,-0.10135,0.47916,0.03534,0.87109,391,0.984,-0.052,0.003,-0.488,-0.183,0.305,-89.242,-86.484,-66.951,-28.447,-6.72,3.487,29.21,0.16647,-0.69659,-0.12576,-0.68637,389
98,1.007,-0.124,-0.046,0.183,0.0,0.183,-111.495,-82.562,-103.107,-25.253,-5.18,-4.627,23.42,-0.16351,-0.6777,0.25403,-0.67032,396,0.89,0.042,0.456,0.0,-0.122,0.366,5.186,-62.88,-116.147,-26.42,-7.3,5.407,25.07,0.46976,-0.42212,-0.30872,-0.71115,392,0.833,-0.035,0.536,0.0,-0.183,0.366,-3.823,-57.2,-164.625,-23.427,-8.02,-13.013,30.25,-0.1015,0.47803,0.03491,0.8717,398,0.981,-0.061,-0.004,-0.427,-0.244,0.0,-89.346,-86.484,-66.841,-28.447,-6.72,3.487,29.21,0.16699,-0.69577,-0.12445,-0.68735,394
99,1.014,-0.136,-0.048,-0.61,0.366,0.061,-111.456,-82.562,-103.145,-25.253,-5.18,-4.627,23.42,-0.16351,-0.6777,0.25403,-0.67032,397,0.896,0.042,0.454,-0.488,-0.244,0.488,5.164,-62.88,-116.12,-26.42,-7.3,5.407,25.07,0.46976,-0.42212,-0.30872,-0.71115,393,0.84,-0.038,0.536,-0.305,0.0,0.427,-3.834,-57.2,-164.641,-23.427,-8.02,-13.013,30.25,-0.1015,0.47803,0.03491,0.8717,399,0.986,-0.068,-0.009,-0.488,-0.244,0.0,-89.462,-86.479,-66.731,-28.447,-6.72,3.487,29.21,0.16699,-0.69577,-0.12445,-0.68735,395
100,1.02,-0.134,-0.049,-0.549,0.488,-0.244,-111.401,-82.568,-103.217,-25.253,-5.18,-4.627,23.42,-0.16431,-0.67688,0.25568,-0.67035,400,0.9,0.049,0.452,-0.488,-0.671,0.305,5.147,-62.891,-116.098,-26.42,-7.3,5.407,25.07,0.46976,-0.42212,-0.30872,-0.71115,406,0.843,-0.029,0.533,-0.122,-0.671,-0.061,-3.851,-57.2,-164.685,-23.427,-8.02,-13.013,30.25,-0.1015,0.47803,0.03491,0.8717,404,0.99,-0.068,-0.005,-0.977,0.0,0.61,-89.539,-86.468,-66.687,-28.447,-6.72,3.487,29.21,0.16699,-0.69577,-0.12445,-0.68735,402
101,1.021,-0.119,-0.05,-0.244,0.305,-0.183,-111.363,-82.573,-103.271,-25.253,-5.18,-4.627,23.42,-0.16431,-0.67688,0.25568,-0.67035,401,0.898,0.044,0.455,-0.488,-0.671,0.793,5.12,-62.908,-116.065,-26.42,-7.3,5.407,25.07,0.46976,-0.42212,-0.30872,-0.71115,407,0.84,-0.03,0.535,-0.61,-0.488,0.488,-3.856,-57.211,-164.724,-23.427,-8.02,-13.013,30.25,-0.1015,0.47803,0.03491,0.8717,405,0.99,-0.063,-0.005,-0.671,0.122,0.671,-89.572,-86.457,-66.654,-28.447,-6.72,3.487,29.21,0.16699,-0.69577,-0.12445,-0.68735,403
102,1.018,-0.114,-0.052,-0.183,0.061,0.061,-111.346,-82.573,-103.288,-25.253,-5.18,-4.627,23.42,-0.16431,-0.67688,0.25568,-0.67035,408,0.895,0.04,0.456,-0.977,-0.488,1.343,5.065,-62.919,-115.999,-26.42,-7.3,5.407,25.07,0.46976,-0.42212,-0.30872,-0.71115,418,0.837,-0.038,0.535,-1.404,-0.061,1.099,-3.889,-57.217,-164.724,-23.427,-8.02,-13.013,30.25,-0.1015,0.47803,0.03491,0.8717,412,0.987,-0.061,-0.006,-0.61,0.183,0.305,-89.577,-86.446,-66.638,-28.447,-6.72,3.487,29.21,0.16699,-0.69577,-0.12445,-0.68735,410
103,1.01,-0.125,-0.049,-0.183,0.305,-0.061,-111.324,-82.579,-103.299,-25.253,-5.18,-4.627,23.42,-0.16431,-0.67688,0.25568,-0.67035,409,0.892,0.035,0.453,-0.488,-0.488,1.282,5.004,-62.93,-115.928,-26.42,-7.3,5.407,25.07,0.46976,-0.42212,-0.30872,-0.71115,419,0.834,-0.044,0.533,-1.038,-0.183,1.16,-3.944,-57.217,-164.685,-23.427,-8.02,-13.013,30.25,-0.1015,0.47803,0.03491,0.8717,413,0.981,-0.063,-0.005,-0.244,0.122,0.0,-89.594,-86.446,-66.61,-28.447,-6.72,3.487,29.21,0.16699,-0.69577,-0.12445,-0.68735,411
104,1.009,-0.129,-0.049,0.0,0.61,-0.122,-111.253,-82.584,-103.365,-25.253,-5.18,-4.627,23.42,-0.16431,-0.67688,0.25568,-0.67035,420,0.894,0.033,0.453,-0.122,-0.549,1.099,4.96,-62.941,-115.878,-26.447,-7.233,5.453,25.07,0.46976,-0.42212,-0.30872,-0.71115,422,0.836,-0.045,0.533,-0.488,-0.366,1.099,-3.999,-57.222,-164.652,-23.427,-8.02,-13.013,30.25,-0.1015,0.47803,0.03491,0.8717,414,0.982,-0.068,-0.007,0.122,0.061,-0.122,-89.632,-86.446,-66.55,-28.447,-6.72,3.487,29.21,0.16699,-0.69577,-0.12445,-0.68735,416
105,1.011,-0.125,-0.043,0.183,0.366,-0.061,-111.198,-82.59,-103.414,-25.253,-5.18,-4.627,23.42,-0.16431,-0.67688,0.25568,-0.67035,421,0.892,0.036,0.452,0.183,-0.671,0.793,4.933,-62.957,-115.84,-26.447,-7.233,5.453,25.07,0.46976,-0.42212,-0.30872,-0.71115,423,0.833,-0.044,0.53,0.061,-0.61,0.732,-4.037,-57.233,-164.592,-23.427,-8.02,-13.013,30.25,-0.1015,0.47803,0.03491,0.8717,415,0.982,-0.066,0.0,0.244,0.061,-0.061,-89.659,-86.446,-66.5,-28.447,-6.72,3.487,29.21,0.16699,-0.69577,-0.12445,-0.68735,417
106,1.014,-0.123,-0.043,0.244,0.0,0.061,-111.176,-82.584,-103.431,-25.253,-5.18,-4.627,23.42,-0.16431,-0.67688,0.25568,-0.67035,428,0.893,0.037,0.454,0.366,-0.488,0.305,4.927,-62.968,-115.818,-26.447,-7.233,5.453,25.07,0.46976,-0.42212,-0.30872,-0.71115,434,0.835,-0.043,0.533,0.427,-0.244,0.305,-4.054,-57.244,-164.531,-23.427,-8.02,-13.013,30.25,-0.1015,0.47803,0.03491,0.8717,424,0.983,-0.062,0.0,0.183,0.366,0.061,-89.583,-86.446,-66.572,-28.447,-6.72,3.487,29.21,0.16699,-0.69577,-0.12445,-0.68735,426
107,1.011,-0.118,-0.042,0.366,0.183,-0.488,-111.16,-82.595,-103.442,-25.253,-5.18,-4.627,23.42,-0.16431,-0.67688,0.25568,-0.67035,429,0.893,0.038,0.455,0.732,-0.183,0.0,4.938,-62.968,-115.807,-26.447,-7.233,5.453,25.07,0.46976,-0.42212,-0.30872,-0.71115,435,0.835,-0.041,0.535,0.793,0.061,0.061,-4.054,-57.244,-164.482,-23.427,-8.02,-13.013,30.25,-0.1015,0.47803,0.03491,0.8717,425,0.98,-0.061,0.001,0.244,0.366,-0.061,-89.495,-86.446,-66.671,-28.447,-6.72,3.487,29.21,0.16699,-0.69577,-0.12445,-0.68735,427
108,1.016,-0.121,-0.044,1.038,0.244,0.305,-111.099,-82.595,-103.491,-25.253,-5.18,-4.627,23.42,-0.16431,-0.67688,0.25568,-0.67035,436,0.894,0.038,0.458,0.854,0.0,0.0,4.955,-62.974,-115.796,-26.447,-7.233,5.453,25.07,0.4718,-0.42245,-0.30847,-0.70972,440,0.836,-0.04,0.539,1.038,0.183,0.061,-4.043,-57.244,-164.465,-23.427,-8.02,-13.013,30.25,-0.1015,0.47803,0.03491,0.8717,432,0.987,-0.062,-0.001,0.793,0.183,-0.366,-89.451,-86.451,-66.709,-28.447,-6.72,3.487,29.21,0.16699,-0.69577,-0.12445,-0.68735,430
109,1.005,-0.119,-0.037,0.854,0.122,0.732,-111.017,-82.584,-103.563,-25.253,-5.18,-4.627,23.42,-0.16431,-0.67688,0.25568,-0.67035,437,0.895,0.041,0.456,0.977,0.0,0.0,4.971,-62.968,-115.785,-26.447,-7.233,5.453,25.07,0.4718,-0.42245,-0.30847,-0.70972,441,0.837,-0.038,0.534,1.282,-0.122,0.061,-4.026,-57.244,-164.416,-23.427,-8.02,-13.013,30.25,-0.1015,0.47803,0.03491,0.8717,433,0.985,-0.059,0.004,0.305,0.305,-0.61,-89.368,-86.462,-66.808,-28.447,-6.72,3.487,29.21,0.16699,-0.69577,-0.12445,-0.68735,431
110,1.013,-0.136,-0.042,-0.305,0.122,0.305,-110.956,-82.579,-103.64,-25.253,-5.18,-4.627,23.42,-0.16431,-0.67688,0.25568,-0.67035,442,0.894,0.045,0.457,0.793,0.366,-0.183,4.993,-62.963,-115.785,-26.447,-7.233,5.453,25.07,0.4718,-0.42245,-0.30847,-0.70972,448,0.838,-0.034,0.537,0.977,0.122,-0.061,-4.005,-57.244,-164.372,-23.427,-8.02,-13.013,30.25,-0.1015,0.47803,0.03491,0.8717,438,0.986,-0.064,0.0,-0.122,0.549,-0.183,-89.209,-86.462,-66.978,-28.447,-6.72,3.487,29.21,0.16699,-0.69577,-0.12445,-0.68735,444
111,1.012,-0.125,-0.042,-0.366,0.122,-0.183,-110.934,-82.579,-103.705,-25.253,-5.18,-4.627,23.42,-0.16431,-0.67688,0.25568,-0.67035,443,0.895,0.048,0.457,1.099,0.427,0.0,5.015,-62.952,-115.779,-26.447,-7.233,5.453,25.07,0.4718,-0.42245,-0.30847,-0.70972,449,0.838,-0.028,0.537,1.282,0.122,0.0,-3.983,-57.244,-164.355,-23.427,-8.02,-13.013,30.25,-0.1015,0.47803,0.03491,0.8717,439,0.986,-0.065,0.0,-0.366,0.61,0.122,-89.039,-86.457,-67.148,-28.447,-6.72,3.487,29.21,0.16699,-0.69577,-0.12445,-0.68735,445
112,1.015,-0.118,-0.043,0.183,0.0,-0.183,-110.918,-82.584,-103.744,-25.253,-5.18,-4.627,23.42,-0.16431,-0.67688,0.25568,-0.67035,450,0.894,0.043,0.458,0.732,0.61,0.488,5.021,-62.941,-115.763,-26.447,-7.233,5.453,25.07,0.4718,-0.42245,-0.30847,-0.70972,452,0.836,-0.034,0.537,0.549,0.488,0.366,-3.966,-57.239,-164.344,-23.427,-8.02,-13.013,30.25,-0.1015,0.47803,0.03491,0.8717,446,0.986,-0.064,-0.001,-0.305,0.671,0.122,-88.852,-86.451,-67.319,-28.707,-6.573,3.92,29.21,0.16699,-0.69577,-0.12445,-0.68735,456
113,1.012,-0.124,-0.043,-0.183,0.0,0.0,-110.901,-82.584,-103.777,-25.253,-5.18,-4.627,23.42,-0.16431,-0.67688,0.25568,-0.67035,451,0.893,0.038,0.457,0.366,0.732,0.671,5.004,-62.93,-115.735,-26.447,-7.233,5.453,25.07,0.4718,-0.42245,-0.30847,-0.70972,453,0.834,-0.041,0.537,0.305,0.549,0.61,-3.966,-57.228,-164.323,-23.427,-8.02,-13.013,30.25,-0.1015,0.47803,0.03491,0.8717,447,0.983,-0.061,-0.001,-0.122,0.732,-0.122,-88.643,-86.457,-67.489,-28.707,-6.573,3.92,29.21,0.16699,-0.69577,-0.12445,-0.68735,457
114,1.012,-0.13,-0.046,-0.671,0.183,-0.061,-110.88,-82.584,-103.832,-25.053,-5.027,-4.72,23.42,-0.16431,-0.67688,0.25568,-0.67035,460,0.891,0.042,0.457,0.427,0.671,0.305,4.999,-62.913,-115.719,-26.447,-7.233,5.453,25.07,0.4718,-0.42245,-0.30847,-0.70972,458,0.833,-0.039,0.539,0.427,0.61,0.305,-3.972,-57.217,-164.323,-23.427,-8.02,-13.013,30.25,-0.1015,0.47803,0.03491,0.8717,454,0.982,-0.062,-0.005,-0.305,0.732,0.0,-88.445,-86.451,-67.676,-28.707,-6.573,3.92,29.21,0.16772,-0.69537,-0.12466,-0.6875,462
115,1.011,-0.125,-0.049,-0.244,0.305,-0.244,-110.841,-82.59,-103.898,-25.053,-5.027,-4.72,23.42,-0.16431,-0.67688,0.25568,-0.67035,461,0.892,0.042,0.457,0.427,0.549,0.0,5.004,-62.902,-115.724,-26.447,-7.233,5.453,25.07,0.4718,-0.42245,-0.30847,-0.70972,459,0.834,-0.037,0.537,0.61,0.305,0.0,-3.972,-57.206,-164.328,-23.427,-8.02,-13.013,30.25,-0.1015,0.47803,0.03491,0.8717,455,0.982,-0.065,-0.003,-0.488,0.61,0.305,-88.297,-86.446,-67.819,-28.707,-6.573,3.92,29.21,0.16772,-0.69537,-0.12466,-0.6875,463
116,1.014,-0.119,-0.045,0.0,0.305,-0.061,-110.792,-82.595,-103.942,-25.053,-5.027,-4.72,23.42,-0.16507,-0.67615,0.2562,-0.67068,464,0.892,0.042,0.456,0.305,0.488,-0.061,5.01,-62.891,-115.741,-26.447,-7.233,5.453,25.07,0.4718,-0.42245,-0.30847,-0.70972,466,0.834,-0.037,0.537,0.61,0.183,0.0,-3.961,-57.206,-164.328,-23.407,-8.227,-12.753,30.25,-0.1015,0.47803,0.03491,0.8717,468,0.984,-0.061,-0.001,-0.488,0.549,0.183,-88.176,-86.44,-67.956,-28.707,-6.573,3.92,29.21,0.16772,-0.69537,-0.12466,-0.6875,470
117,1.016,-0.121,-0.045,-0.427,0.244,-0.061,-110.753,-82.601,-103.98,-25.053,-5.027,-4.72,23.42,-0.16507,-0.67615,0.2562,-0.67068,465,0.893,0.042,0.458,0.244,0.366,-0.183,5.026,-62.88,-115.768,-26.447,-7.233,5.453,25.07,0.4718,-0.42245,-0.30847,-0.70972,467,0.835,-0.037,0.538,0.549,0.244,-0.183,-3.944,-57.2,-164.317,-23.407,-8.227,-12.753,30.25,-0.1015,0.47803,0.03491,0.8717,469,0.985,-0.06,0.0,-0.61,0.488,0.0,-88.077,-86.44,-68.082,-28.707,-6.573,3.92,29.21,0.16772,-0.69537,-0.12466,-0.6875,471
118,1.014,-0.123,-0.046,-0.732,0.0,-0.122,-110.759,-82.601,-104.002,-25.053,-5.027,-4.72,23.42,-0.16507,-0.67615,0.2562,-0.67068,476,0.894,0.04,0.458,0.122,0.427,-0.305,5.037,-62.875,-115.796,-26.447,-7.233,5.453,25.07,0.4718,-0.42245,-0.30847,-0.70972,474,0.835,-0.039,0.538,0.244,0.488,-0.244,-3.928,-57.195,-164.333,-23.407,-8.227,-12.753,30.25,-0.10324,0.47797,0.03531,0.87152,472,0.986,-0.063,0.0,-0.549,0.427,0.0,-87.99,-86.435,-68.159,-28.707,-6.573,3.92,29.21,0.16772,-0.69537,-0.12466,-0.6875,478
119,1.011,-0.122,-0.045,-0.488,-0.061,-0.061,-110.77,-82.601,-104.035,-25.053,-5.027,-4.72,23.42,-0.16507,-0.67615,0.2562,-0.67068,477,0.894,0.04,0.457,0.0,0.366,-0.305,5.054,-62.864,-115.818,-26.447,-7.233,5.453,25.07,0.4718,-0.42245,-0.30847,-0.70972,475,0.836,-0.037,0.539,0.122,0.427,-0.244,-3.917,-57.184,-164.372,-23.407,-8.227,-12.753,30.25,-0.10324,0.47797,0.03531,0.87152,473,0.984,-0.064,-0.003,-0.488,0.305,-0.183,-87.935,-86.44,-68.203,-28.707,-6.573,3.92,29.21,0.16772,-0.69537,-0.12466,-0.6875,479
120,1.012,-0.124,-0.043,-0.427,0.183,0.0,-110.759,-82.601,-104.112,-25.053,-5.027,-4.72,23.42,-0.16507,-0.67615,0.2562,-0.67068,480,0.893,0.042,0.456,-0.061,0.244,-0.244,5.059,-62.858,-115.829,-26.447,-7.233,5.453,25.07,0.4718,-0.42245,-0.30847,-0.70972,486,0.835,-0.035,0.536,0.0,0.244,-0.183,-3.906,-57.178,-164.421,-23.407,-8.227,-12.753,30.25,-0.10324,0.47797,0.03531,0.87152,484,0.983,-0.064,0.0,-0.488,0.305,-0.305,-87.885,-86.446,-68.247,-28.707,-6.573,3.92,29.21,0.16772,-0.69537,-0.12466,-0.6875,482
121,1.014,-0.126,-0.043,-0.61,0.305,-0.061,-110.72,-82.606,-104.194,-25.053,-5.027,-4.72,23.42,-0.16507,-0.67615,0.2562,-0.67068,481,0.89,0.043,0.459,-0.305,0.366,-0.305,5.07,-62.847,-115.834,-26.447,-7.233,5.453,25.07,0.4718,-0.42245,-0.30847,-0.70972,487,0.833,-0.037,0.54,-0.244,0.427,-0.366,-3.9,-57.173,-164.432,-23.407,-8.227,-12.753,30.25,-0.10324,0.47797,0.03531,0.87152,485,0.983,-0.066,0.0,-0.488,0.366,-0.183,-87.83,-86.451,-68.302,-28.707,-6.573,3.92,29.21,0.16772,-0.69537,-0.12466,-0.6875,483
122,1.011,-0.125,-0.044,-0.549,0.122,0.0,-110.698,-82.606,-104.266,-25.053,-5.027,-4.72,23.42,-0.16507,-0.67615,0.2562,-0.67068,488,0.891,0.037,0.458,-0.549,0.244,-0.244,5.07,-62.842,-115.845,-26.413,-7.54,5.927,25.07,0.4718,-0.42245,-0.30847,-0.70972,494,0.833,-0.04,0.537,-0.488,0.366,-0.244,-3.9,-57.167,-164.427,-23.407,-8.227,-12.753,30.25,-0.10324,0.47797,0.03531,0.87152,490,0.982,-0.062,0.0,-0.549,0.305,-0.244,-87.764,-86.451,-68.362,-28.707,-6.573,3.92,29.21,0.16772,-0.69537,-0.12466,-0.6875,492
123,1.01,-0.123,-0.044,-0.427,0.0,-0.122,-110.693,-82.612,-104.299,-25.053,-5.027,-4.72,23.42,-0.16507,-0.67615,0.2562,-0.67068,489,0.89,0.043,0.462,-0.549,0.366,-0.305,5.07,-62.836,-115.856,-26.413,-7.54,5.927,25.07,0.4718,-0.42245,-0.30847,-0.70972,495,0.833,-0.036,0.542,-0.488,0.732,-0.305,-3.9,-57.156,-164.432,-23.407,-8.227,-12.753,30.25,-0.10324,0.47797,0.03531,0.87152,491,0.981,-0.063,0.001,-0.61,0.183,-0.305,-87.72,-86.457,-68.373,-28.707,-6.573,3.92,29.21,0.16772,-0.69537,-0.12466,-0.6875,493
124,1.01,-0.124,-0.042,-0.61,0.0,-0.244,-110.704,-82.612,-104.337,-25.053,-5.027,-4.72,23.42,-0.16507,-0.67615,0.2562,-0.67068,500,0.888,0.039,0.459,-0.427,0.366,-0.305,5.07,-62.825,-115.878,-26.413,-7.54,5.927,25.07,0.4718,-0.42245,-0.30847,-0.70972,502,0.83,-0.039,0.539,-0.305,0.366,-0.305,-3.9,-57.145,-164.427,-23.407,-8.227,-12.753,30.25,-0.10324,0.47797,0.03531,0.87152,496,0.983,-0.068,0.0,-0.793,0.366,-0.366,-87.687,-86.457,-68.362,-28.707,-6.573,3.92,29.21,0.16772,-0.69537,-0.12466,-0.6875,498
125,1.011,-0.126,-0.043,-0.61,0.122,-0.244,-110.704,-82.617,-104.376,-25.053,-5.027,-4.72,23.42,-0.16507,-0.67615,0.2562,-0.67068,501,0.892,0.036,0.461,-0.488,0.366,-0.305,5.07,-62.814,-115.9,-26.413,-7.54,5.927,25.07,0.4718,-0.42245,-0.30847,-0.70972,503,0.835,-0.043,0.539,-0.244,0.244,-0.305,-3.895,-57.134,-164.421,-23.407,-8.227,-12.753,30.25,-0.10324,0.47797,0.03531,0.87152,497,0.989,-0.063,0.003,-0.732,0.427,-0.366,-87.61,-86.462,-68.395,-28.707,-6.573,3.92,29.21,0.16772,-0.69537,-0.12466,-0.6875,499
126,1.016,-0.125,-0.042,-0.549,-0.061,-0.427,-110.72,-82.623,-104.403,-25.053,-5.027,-4.72,23.42,-0.16507,-0.67615,0.2562,-0.67068,510,0.896,0.043,0.461,-0.366,0.366,-0.61,5.087,-62.803,-115.922,-26.413,-7.54,5.927,25.07,0.47192,-0.42117,-0.30826,-0.71048,508,0.838,-0.035,0.543,0.122,0.183,-0.793,-3.889,-57.134,-164.416,-23.407,-8.227,-12.753,30.25,-0.10324,0.47797,0.03531,0.87152,504,0.989,-0.061,0.0,-0.488,0.427,-0.305,-87.512,-86.468,-68.489,-28.707,-6.573,3.92,29.21,0.16772,-0.69537,-0.12466,-0.6875,506
127,1.018,-0.124,-0.044,-0.488,-0.305,-0.427,-110.775,-82.628,-104.387,-25.053,-5.027,-4.72,23.42,-0.16507,-0.67615,0.2562,-0.67068,511,0.896,0.047,0.462,0.122,0.122,-0.427,5.109,-62.798,-115.933,-26.413,-7.54,5.927,25.07,0.47192,-0.42117,-0.30826,-0.71048,509,0.838,-0.03,0.544,0.305,0.244,-0.549,-3.862,-57.129,-164.438,-23.407,-8.227,-12.753,30.25,-0.10324,0.47797,0.03531,0.87152,505,0.985,-0.064,-0.002,-0.488,0.366,-0.366,-87.413,-86.473,-68.582,-28.707,-6.573,3.92,29.21,0.16772,-0.69537,-0.12466,-0.6875,507
128,1.016,-0.123,-0.047,-0.366,-0.183,-0.305,-110.814,-82.634,-104.376,-25.24,-4.827,-5.067,23.42,-0.16507,-0.67615,0.2562,-0.67068,514,0.891,0.042,0.462,0.0,0.122,0.0,5.109,-62.798,-115.928,-26.413,-7.54,5.927,25.07,0.47192,-0.42117,-0.30826,-0.71048,520,0.834,-0.036,0.542,-0.061,0.244,-0.061,-3.845,-57.123,-164.443,-23.407,-8.227,-12.753,30.25,-0.10324,0.47797,0.03531,0.87152,512,0.982,-0.066,-0.004,-0.305,0.183,-0.366,-87.347,-86.479,-68.626,-28.707,-6.573,3.92,29.21,0.16772,-0.69537,-0.12466,-0.6875,516
129,1.011,-0.125,-0.047,-0.427,0.0,-0.244,-110.83,-82.639,-104.381,-25.24,-4.827,-5.067,23.42,-0.16507,-0.67615,0.2562,-0.67068,515,0.889,0.04,0.459,0.0,0.0,0.183,5.103,-62.792,-115.911,-26.413,-7.54,5.927,25.07,0.47192,-0.42117,-0.30826,-0.71048,521,0.831,-0.037,0.539,0.061,-0.061,0.0,-3.845,-57.118,-164.438,-23.407,-8.227,-12.753,30.25,-0.10324,0.47797,0.03531,0.87152,513,0.98,-0.066,0.0,0.0,0.122,-0.488,-87.33,-86.484,-68.615,-28.707,-6.573,3.92,29.21,0.16772,-0.69537,-0.12466,-0.6875,517
130,1.011,-0.123,-0.045,-0.305,0.0,-0.305,-110.841,-82.645,-104.37,-25.24,-4.827,-5.067,23.42,-0.16507,-0.67615,0.2562,-0.67068,522,0.888,0.039,0.458,0.305,-0.183,0.366,5.092,-62.798,-115.895,-26.413,-7.54,5.927,25.07,0.47192,-0.42117,-0.30826,-0.71048,524,0.832,-0.038,0.538,0.244,-0.427,0.305,-3.845,-57.123,-164.416,-23.407,-8.227,-12.753,30.25,-0.10324,0.47797,0.03531,0.87152,518,0.982,-0.063,-0.001,0.122,0.061,-0.732,-87.336,-86.49,-68.571,-28.773,-6.46,4.187,29.21,0.16772,-0.69537,-0.12466,-0.6875,526
131,1.011,-0.123,-0.045,-0.305,0.0,-0.305,-110.852,-82.65,-104.354,-25.24,-4.827,-5.067,23.42,-0.16507,-0.67615,0.2562,-0.67068,523,0.89,0.04,0.458,0.366,-0.244,0.549,5.081,-62.798,-115.873,-26.413,-7.54,5.927,25.07,0.47192,-0.42117,-0.30826,-0.71048,525,0.833,-0.038,0.537,0.244,-0.427,0.488,-3.856,-57.129,-164.372,-23.407,-8.227,-12.753,30.25,-0.10324,0.47797,0.03531,0.87152,519,0.984,-0.062,0.002,0.366,0.061,-0.732,-87.347,-86.501,-68.522,-28.773,-6.46,4.187,29.21,0.16772,-0.69537,-0.12466,-0.6875,527
132,1.012,-0.123,-0.043,-0.244,0.0,-0.305,-110.863,-82.65,-104.348,-25.24,-4.827,-5.067,23.42,-0.16818,-0.67511,0.2587,-0.66998,530,0.892,0.041,0.456,0.61,-0.305,0.366,5.081,-62.803,-115.856,-26.413,-7.54,5.927,25.07,0.47192,-0.42117,-0.30826,-0.71048,528,0.835,-0.038,0.535,0.427,-0.366,0.366,-3.867,-57.134,-164.366,-23.407,-8.227,-12.753,30.25,-0.10324,0.47797,0.03531,0.87152,532,0.985,-0.062,0.001,0.366,0.122,-0.732,-87.341,-86.512,-68.478,-28.773,-6.46,4.187,29.21,0.16922,-0.69458,-0.12686,-0.68753,534
133,1.012,-0.124,-0.044,0.0,-0.122,-0.305,-110.885,-82.656,-104.326,-25.24,-4.827,-5.067,23.42,-0.16818,-0.67511,0.2587,-0.66998,531,0.893,0.042,0.457,0.549,-0.183,0.244,5.081,-62.809,-115.845,-26.413,-7.54,5.927,25.07,0.47192,-0.42117,-0.30826,-0.71048,529,0.836,-0.035,0.536,0.244,0.0,0.366,-3.873,-57.14,-164.355,-23.407,-8.227,-12.753,30.25,-0.10324,0.47797,0.03531,0.87152,533,0.987,-0.06,-0.001,0.549,0.183,-0.732,-87.314,-86.528,-68.456,-28.773,-6.46,4.187,29.21,0.16922,-0.69458,-0.12686,-0.68753,535
134,1.015,-0.122,-0.044,0.122,-0.122,-0.244,-110.907,-82.661,-104.299,-25.24,-4.827,-5.067,23.42,-0.16818,-0.67511,0.2587,-0.66998,538,0.894,0.045,0.459,0.366,-0.061,0.183,5.087,-62.809,-115.834,-26.413,-7.54,5.927,25.07,0.47192,-0.42117,-0.30826,-0.71048,536,0.836,-0.033,0.539,0.183,0.244,0.244,-3.878,-57.134,-164.35,-23.3,-8.007,-12.767,30.25,-0.10324,0.47797,0.03531,0.87152,540,0.985,-0.057,-0.001,0.183,0.183,-0.671,-87.275,-86.539,-68.467,-28.773,-6.46,4.187,29.21,0.16922,-0.69458,-0.12686,-0.68753,542
135,1.013,-0.119,-0.044,0.061,-0.061,-0.244,-110.912,-82.661,-104.293,-25.24,-4.827,-5.067,23.42,-0.16818,-0.67511,0.2587,-0.66998,539,0.892,0.046,0.459,0.427,-0.122,0.122,5.092,-62.809,-115.829,-26.413,-7.54,5.927,25.07,0.47192,-0.42117,-0.30826,-0.71048,537,0.836,-0.032,0.539,0.183,0.183,0.305,-3.878,-57.129,-164.361,-23.3,-8.007,-12.767,30.25,-0.10324,0.47797,0.03531,0.87152,541,0.987,-0.059,0.001,0.0,0.183,-0.549,-87.237,-86.55,-68.472,-28.773,-6.46,4.187,29.21,0.16922,-0.69458,-0.12686,-0.68753,543
136,1.015,-0.121,-0.042,-0.061,0.061,-0.244,-110.907,-82.667,-104.299,-25.24,-4.827,-5.067,23.42,-0.16818,-0.67511,0.2587,-0.66998,548,0.895,0.046,0.458,0.183,-0.061,0.0,5.098,-62.809,-115.845,-26.413,-7.54,5.927,25.07,0.47192,-0.42117,-0.30826,-0.71048,546,0.839,-0.033,0.54,0.244,-0.122,0.061,-3.878,-57.129,-164.355,-23.3,-8.007,-12.767,30.25,-0.10324,0.47797,0.03531,0.87152,550,0.988,-0.058,0.001,0.0,0.183,-0.366,-87.204,-86.556,-68.494,-28.773,-6.46,4.187,29.21,0.16922,-0.69458,-0.12686,-0.68753,544
137,1.015,-0.121,-0.044,0.0,0.0,-0.183,-110.907,-82.672,-104.277,-25.24,-4.827,-5.067,23.42,-0.16818,-0.67511,0.2587,-0.66998,549,0.896,0.048,0.457,0.427,-0.061,-0.244,5.12,-62.809,-115.873,-26.413,-7.54,5.927,25.07,0.47192,-0.42117,-0.30826,-0.71048,547,0.838,-0.03,0.537,0.732,-0.366,-0.244,-3.867,-57.134,-164.361,-23.3,-8.007,-12.767,30.25,-0.10324,0.47797,0.03531,0.87152,551,0.986,-0.06,-0.003,0.061,0.183,-0.488,-87.171,-86.561,-68.516,-28.773,-6.46,4.187,29.21,0.16922,-0.69458,-0.12686,-0.68753,545
138,1.015,-0.12,-0.045,0.0,0.0,-0.122,-110.901,-82.672,-104.249,-25.24,-4.827,-5.067,23.42,-0.16818,-0.67511,0.2587,-0.66998,552,0.895,0.045,0.458,0.366,0.061,0.0,5.131,-62.809,-115.878,-26.413,-7.54,5.927,25.07,0.47192,-0.42117,-0.30826,-0.71048,558,0.836,-0.033,0.538,0.366,0.0,0.0,-3.851,-57.14,-164.361,-23.3,-8.007,-12.767,30.25,-0.10352,0.47751,0.0358,0.8717,554,0.986,-0.058,-0.005,0.244,0.183,-0.549,-87.138,-86.572,-68.566,-28.773,-6.46,4.187,29.21,0.16922,-0.69458,-0.12686,-0.68753,556
139,1.014,-0.12,-0.046,-0.061,0.183,0.0,-110.869,-82.678,-104.26,-25.24,-4.827,-5.067,23.42,-0.16818,-0.67511,0.2587,-0.66998,553,0.895,0.044,0.458,0.244,0.061,0.122,5.136,-62.803,-115.878,-26.413,-7.54,5.927,25.07,0.47192,-0.42117,-0.30826,-0.71048,559,0.838,-0.035,0.539,0.305,0.122,0.122,-3.84,-57.14,-164.339,-23.3,-8.007,-12.767,30.25,-0.10352,0.47751,0.0358,0.8717,555,0.984,-0.058,-0.004,0.061,0.122,-0.427,-87.122,-86.583,-68.654,-28.773,-6.46,4.187,29.21,0.16922,-0.69458,-0.12686,-0.68753,557
140,1.012,-0.122,-0.046,0.0,0.488,0.061,-110.786,-82.678,-104.315,-25.24,-4.827,-5.067,23.42,-0.16818,-0.67511,0.2587,-0.66998,560,0.892,0.045,0.456,0.427,0.0,-0.122,5.158,-62.803,-115.878,-26.213,-7.367,5.447,25.07,0.47192,-0.42117,-0.30826,-0.71048,566,0.835,-0.034,0.535,0.488,0.0,-0.061,-3.834,-57.134,-164.317,-23.3,-8.007,-12.767,30.25,-0.10352,0.47751,0.0358,0.8717,562,0.983,-0.06,-0.001,-0.061,0.244,-0.305,-87.111,-86.589,-68.758,-28.773,-6.46,4.187,29.21,0.16922,-0.69458,-0.12686,-0.68753,564
141,1.013,-0.124,-0.046,0.0,0.549,0.061,-110.698,-82.683,-104.392,-25.24,-4.827,-5.067,23.42,-0.16818,-0.67511,0.2587,-0.66998,561,0.891,0.046,0.456,0.366,0.0,-0.183,5.175,-62.803,-115.895,-26.213,-7.367,5.447,25.07,0.47192,-0.42117,-0.30826,-0.71048,567,0.834,-0.031,0.536,0.488,0.0,-0.122,-3.818,-57.14,-164.301,-23.3,-8.007,-12.767,30.25,-0.10352,0.47751,0.0358,0.8717,563,0.984,-0.06,0.0,-0.122,0.305,-0.244,-87.067,-86.594,-68.868,-28.773,-6.46,4.187,29.21,0.16922,-0.69458,-0.12686,-0.68753,565
142,1.013,-0.123,-0.045,-0.122,0.244,0.0,-110.66,-82.683,-104.425,-25.24,-4.827,-5.067,23.42,-0.16818,-0.67511,0.2587,-0.66998,572,0.892,0.046,0.457,0.305,0.0,0.0,5.186,-62.803,-115.911,-26.213,-7.367,5.447,25.07,0.47192,-0.42117,-0.30826,-0.71048,574,0.834,-0.031,0.537,0.366,0.0,0.0,-3.801,-57.14,-164.301,-23.3,-8.007,-12.767,30.25,-0.10352,0.47751,0.0358,0.8717,570,0.983,-0.059,0.0,-0.305,0.305,-0.122,-87.012,-86.594,-68.95,-28.773,-6.46,4.187,29.21,0.16922,-0.69458,-0.12686,-0.68753,568
143,1.012,-0.123,-0.045,-0.122,0.061,0.0,-110.649,-82.683,-104.431,-25.24,-4.827,-5.067,23.42,-0.16818,-0.67511,0.2587,-0.66998,573,0.891,0.047,0.458,0.122,0.061,0.061,5.191,-62.803,-115.917,-26.213,-7.367,5.447,25.07,0.47192,-0.42117,-0.30826,-0.71048,575,0.835,-0.03,0.537,0.244,0.061,0.122,-3.796,-57.14,-164.295,-23.3,-8.007,-12.767,30.25,-0.10352,0.47751,0.0358,0.8717,571,0.984,-0.061,0.0,-0.366,0.305,0.0,-86.968,-86.594,-69.044,-28.773,-6.46,4.187,29.21,0.16922,-0.69458,-0.12686,-0.68753,569
144,1.012,-0.123,-0.045,-0.122,0.0,0.061,-110.649,-82.683,-104.436,-25.147,-5.393,-4.84,23.42,-0.16818,-0.67511,0.2587,-0.66998,582,0.893,0.045,0.458,0.0,0.061,0.183,5.191,-62.798,-115.911,-26.213,-7.367,5.447,25.07,0.47235,-0.42065,-0.3089,-0.71021,580,0.836,-0.033,0.537,0.0,0.183,0.244,-3.796,-57.14,-164.273,-23.3,-8.007,-12.767,30.25,-0.10352,0.47751,0.0358,0.8717,576,0.985,-0.061,0.0,-0.244,0.305,0.0,-86.918,-86.594,-69.104,-28.773,-6.46,4.187,29.21,0.16922,-0.69458,-0.12686,-0.68753,578
145,1.013,-0.123,-0.042,-0.061,0.0,0.061,-110.638,-82.683,-104.442,-25.147,-5.393,-4.84,23.42,-0.16818,-0.67511,0.2587,-0.66998,583,0.893,0.042,0.457,-0.061,0.183,0.305,5.186,-62.798,-115.9,-26.213,-7.367,5.447,25.07,0.47235,-0.42065,-0.3089,-0.71021,581,0.836,-0.036,0.537,0.061,0.122,0.305,-3.801,-57.134,-164.257,-23.3,-8.007,-12.767,30.25,-0.10352,0.47751,0.0358,0.8717,577,0.986,-0.059,0.0,-0.061,0.366,0.0,-86.852,-86.594,-69.148,-28.773,-6.46,4.187,29.21,0.16922,-0.69458,-0.12686,-0.68753,579
146,1.014,-0.122,-0.042,-0.061,0.0,0.0,-110.632,-82.683,-104.442,-25.147,-5.393,-4.84,23.42,-0.16757,-0.67526,0.25769,-0.67038,588,0.893,0.043,0.458,0.183,0.122,0.183,5.186,-62.792,-115.9,-26.213,-7.367,5.447,25.07,0.47235,-0.42065,-0.3089,-0.71021,592,0.835,-0.035,0.538,0.366,0.061,0.244,-3.801,-57.134,-164.257,-23.3,-8.007,-12.767,30.25,-0.10352,0.47751,0.0358,0.8717,584,0.985,-0.061,0.001,0.0,0.366,0.0,-86.776,-86.589,-69.197,-28.773,-6.46,4.187,29.21,0.16922,-0.69458,-0.12686,-0.68753,586
147,1.012,-0.123,-0.042,-0.061,0.0,0.0,-110.621,-82.683,-104.442,-25.147,-5.393,-4.84,23.42,-0.16757,-0.67526,0.25769,-0.67038,589,0.892,0.044,0.458,0.427,0.183,0.122,5.191,-62.787,-115.906,-26.213,-7.367,5.447,25.07,0.47235,-0.42065,-0.3089,-0.71021,593,0.835,-0.034,0.538,0.549,0.183,0.244,-3.796,-57.134,-164.229,-23.3,-8.007,-12.767,30.25,-0.10352,0.47751,0.0358,0.8717,585,0.984,-0.062,0.0,-0.183,0.427,0.0,-86.682,-86.589,-69.252,-28.773,-6.46,4.187,29.21,0.16922,-0.69458,-0.12686,-0.68753,587
148,1.011,-0.123,-0.042,-0.183,0.061,0.061,-110.599,-82.678,-104.453,-25.147,-5.393,-4.84,23.42,-0.16757,-0.67526,0.25769,-0.67038,594,0.892,0.043,0.46,0.366,0.305,0.183,5.197,-62.781,-115.911,-26.213,-7.367,5.447,25.07,0.47235,-0.42065,-0.3089,-0.71021,596,0.836,-0.035,0.54,0.488,0.427,0.366,-3.79,-57.129,-164.218,-23.3,-8.007,-12.767,30.25,-0.10352,0.47751,0.0358,0.8717,590,0.982,-0.061,0.0,-0.427,0.549,0.0,-86.572,-86.589,-69.34,-28.6,-6.38,4.267,29.21,0.16922,-0.69458,-0.12686,-0.68753,598
149,1.012,-0.122,-0.044,-0.427,0.061,0.0,-110.588,-82.683,-104.464,-25.147,-5.393,-4.84,23.42,-0.16757,-0.67526,0.25769,-0.67038,595,0.891,0.042,0.458,0.366,0.305,0.305,5.197,-62.776,-115.911,-26.213,-7.367,5.447,25.07,0.47235,-0.42065,-0.3089,-0.71021,597,0.832,-0.037,0.538,0.427,0.671,0.427,-3.79,-57.118,-164.202,-23.3,-8.007,-12.767,30.25,-0.10352,0.47751,0.0358,0.8717,591,0.984,-0.058,0.001,-0.305,0.488,0.0,-86.446,-86.589,-69.439,-28.6,-6.38,4.267,29.21,0.16922,-0.69458,-0.12686,-0.68753,599
150,1.014,-0.121,-0.044,-0.305,0.061,-0.122,-110.583,-82.683,-104.464,-25.147,-5.393,-4.84,23.42,-0.16757,-0.67526,0.25769,-0.67038,602,0.89,0.044,0.46,0.427,0.366,0.183,5.197,-62.77,-115.911,-26.213,-7.367,5.447,25.07,0.47235,-0.42065,-0.3089,-0.71021,600,0.834,-0.033,0.542,0.916,0.0,0.244,-3.785,-57.107,-164.207,-23.3,-8.007,-12.767,30.25,-0.10352,0.47751,0.0358,0.8717,604,0.983,-0.06,0.0,-0.122,0.244,0.0,-86.369,-86.583,-69.489,-28.6,-6.38,4.267,29.21,0.16855,-0.69424,-0.12689,-0.68805,606
151,1.012,-0.123,-0.043,-0.061,0.0,-0.122,-110.577,-82.683,-104.458,-25.147,-5.393,-4.84,23.42,-0.16757,-0.67526,0.25769,-0.67038,603,0.889,0.045,0.461,0.854,0.305,0.244,5.208,-62.759,-115.911,-26.213,-7.367,5.447,25.07,0.47235,-0.42065,-0.3089,-0.71021,601,0.83,-0.032,0.538,0.793,0.244,0.549,-3.779,-57.107,-164.213,-23.3,-8.007,-12.767,30.25,-0.10352,0.47751,0.0358,0.8717,605,0.982,-0.065,0.001,0.0,0.183,-0.122,-86.342,-86.583,-69.494,-28.6,-6.38,4.267,29.21,0.16855,-0.69424,-0.12689,-0.68805,607
152,1.009,-0.125,-0.042,0.061,0.0,0.0,-110.566,-82.683,-104.458,-25.147,-5.393,-4.84,23.42,-0.16757,-0.67526,0.25769,-0.67038,612,0.89,0.039,0.459,0.488,0.366,0.671,5.191,-62.754,-115.895,-26.213,-7.367,5.447,25.07,0.47235,-0.42065,-0.3089,-0.71021,610,0.834,-0.04,0.54,0.366,0.183,0.793,-3.785,-57.101,-164.185,-23.36,-8.293,-12.4,30.25,-0.10352,0.47751,0.0358,0.8717,608,0.986,-0.059,0.0,-0.061,0.122,-0.183,-86.331,-86.589,-69.472,-28.6,-6.38,4.267,29.21,0.16855,-0.69424,-0.12689,-0.68805,614
153,1.014,-0.124,-0.042,-0.061,0.0,-0.061,-110.555,-82.689,-104.453,-25.147,-5.393,-4.84,23.42,-0.16757,-0.67526,0.25769,-0.67038,613,0.895,0.045,0.457,0.0,0.427,0.305,5.186,-62.743,-115.895,-26.213,-7.367,5.447,25.07,0.47235,-0.42065,-0.3089,-0.71021,611,0.838,-0.035,0.537,0.366,0.183,0.244,-3.796,-57.096,-164.163,-23.36,-8.293,-12.4,30.25,-0.10352,0.47751,0.0358,0.8717,609,0.99,-0.055,0.002,-0.366,0.244,0.061,-86.309,-86.589,-69.467,-28.6,-6.38,4.267,29.21,0.16855,-0.69424,-0.12689,-0.68805,615
154,1.017,-0.121,-0.043,-0.305,-0.183,-0.122,-110.583,-82.689,-104.42,-25.147,-5.393,-4.84,23.42,-0.16757,-0.67526,0.25769,-0.67038,622,0.892,0.042,0.462,0.183,0.305,0.183,5.191,-62.737,-115.911,-26.213,-7.367,5.447,25.07,0.47235,-0.42065,-0.3089,-0.71021,616,0.837,-0.028,0.542,0.549,0.305,-0.122,-3.785,-57.09,-164.169,-23.36,-8.293,-12.4,30.25,-0.10352,0.47751,0.0358,0.8717,618,0.985,-0.06,-0.003,-0.549,0.183,0.061,-86.287,-86.583,-69.467,-28.6,-6.38,4.267,29.21,0.16855,-0.69424,-0.12689,-0.68805,620
155,1.015,-0.121,-0.045,-0.366,0.0,-0.122,-110.583,-82.689,-104.414,-25.147,-5.393,-4.84,23.42,-0.16757,-0.67526,0.25769,-0.67038,623,0.89,0.041,0.459,0.061,0.183,0.183,5.191,-62.732,-115.922,-26.213,-7.367,5.447,25.07,0.47235,-0.42065,-0.3089,-0.71021,617,0.834,-0.037,0.542,0.0,0.488,0.366,-3.779,-57.085,-164.185,-23.36,-8.293,-12.4,30.25,-0.10352,0.47751,0.0358,0.8717,619,0.985,-0.06,-0.001,-0.244,0.244,0.0,-86.265,-86.583,-69.467,-28.6,-6.38,4.267,29.21,0.16855,-0.69424,-0.12689,-0.68805,621
156,1.014,-0.122,-0.044,-0.244,0.061,-0.061,-110.572,-82.689,-104.42,-25.147,-5.393,-4.84,23.42,-0.16757,-0.67526,0.25769,-0.67038,626,0.887,0.042,0.46,0.488,0.0,0.0,5.191,-62.726,-115.928,-26.213,-7.367,5.447,25.07,0.47235,-0.42065,-0.3089,-0.71021,628,0.831,-0.04,0.539,0.366,0.122,0.122,-3.785,-57.079,-164.224,-23.36,-8.293,-12.4,30.25,-0.1051,0.47699,0.03693,0.87177,632,0.98,-0.059,0.002,0.0,0.183,-0.061,-86.243,-86.583,-69.472,-28.6,-6.38,4.267,29.21,0.16855,-0.69424,-0.12689,-0.68805,624
157,1.01,-0.121,-0.043,0.0,0.0,0.0,-110.566,-82.689,-104.42,-25.147,-5.393,-4.84,23.42,-0.16757,-0.67526,0.25769,-0.67038,627,0.888,0.042,0.458,0.305,0.0,0.0,5.202,-62.726,-115.944,-26.213,-7.367,5.447,25.07,0.47235,-0.42065,-0.3089,-0.71021,629,0.831,-0.037,0.54,0.549,0.0,0.0,-3.774,-57.079,-164.279,-23.36,-8.293,-12.4,30.25,-0.1051,0.47699,0.03693,0.87177,633,0.981,-0.062,-0.001,0.061,0.061,-0.244,-86.248,-86.589,-69.439,-28.6,-6.38,4.267,29.21,0.16855,-0.69424,-0.12689,-0.68805,625
158,1.011,-0.123,-0.044,-0.061,0.0,0.0,-110.555,-82.689,-104.42,-25.22,-4.707,-5.107,23.42,-0.16757,-0.67526,0.25769,-0.67038,630,0.89,0.043,0.459,0.183,0.0,0.0,5.208,-62.726,-115.961,-26.273,-7.493,5.273,25.07,0.47235,-0.42065,-0.3089,-0.71021,636,0.832,-0.037,0.538,0.244,-0.061,0.122,-3.768,-57.079,-164.312,-23.36,-8.293,-12.4,30.25,-0.1051,0.47699,0.03693,0.87177,638,0.983,-0.061,0.003,0.061,0.061,-0.122,-86.265,-86.589,-69.401,-28.6,-6.38,4.267,29.21,0.16855,-0.69424,-0.12689,-0.68805,634
159,1.012,-0.123,-0.042,-0.183,-0.122,0.0,-110.566,-82.689,-104.403,-25.22,-4.707,-5.107,23.42,-0.16757,-0.67526,0.25769,-0.67038,631,0.89,0.042,0.46,0.122,0.0,0.0,5.213,-62.726,-115.977,-26.273,-7.493,5.273,25.07,0.47235,-0.42065,-0.3089,-0.71021,637,0.833,-0.036,0.538,0.183,-0.061,0.0,-3.768,-57.079,-164.372,-23.36,-8.293,-12.4,30.25,-0.1051,0.47699,0.03693,0.87177,639,0.983,-0.062,0.001,0.0,0.122,-0.122,-86.265,-86.589,-69.368,-28.6,-6.38,4.267,29.21,0.16855,-0.69424,-0.12689,-0.68805,635
160,1.012,-0.125,-0.043,-0.061,-0.427,0.0,-110.621,-82.689,-104.337,-25.22,-4.707,-5.107,23.42,-0.16757,-0.67526,0.25769,-0.67038,640,0.893,0.042,0.46,0.122,0.061,0.061,5.219,-62.721,-115.988,-26.273,-7.493,5.273,25.07,0.47235,-0.42065,-0.3089,-0.71021,646,0.833,-0.036,0.54,0.0,0.122,0.0,-3.768,-57.079,-164.399,-23.36,-8.293,-12.4,30.25,-0.1051,0.47699,0.03693,0.87177,642,0.985,-0.064,-0.001,0.061,0.0,-0.122,-86.287,-86.589,-69.318,-28.6,-6.38,4.267,29.21,0.16855,-0.69424,-0.12689,-0.68805,644
161,1.013,-0.124,-0.043,0.0,-0.366,0.0,-110.66,-82.683,-104.288,-25.22,-4.707,-5.107,23.42,-0.16757,-0.67526,0.25769,-0.67038,641,0.893,0.042,0.461,0.305,0.0,0.244,5.219,-62.721,-115.999,-26.273,-7.493,5.273,25.07,0.47235,-0.42065,-0.3089,-0.71021,647,0.836,-0.036,0.54,0.122,0.0,0.061,-3.768,-57.074,-164.416,-23.36,-8.293,-12.4,30.25,-0.1051,0.47699,0.03693,0.87177,643,0.987,-0.061,0.0,0.244,0.061,-0.305,-86.303,-86.594,-69.274,-28.6,-6.38,4.267,29.21,0.16855,-0.69424,-0.12689,-0.68805,645
162,1.012,-0.122,-0.041,0.122,-0.122,0.0,-110.676,-82.683,-104.255,-25.22,-4.707,-5.107,23.42,-0.1669,-0.67554,0.25696,-0.67056,652,0.892,0.043,0.459,0.244,-0.061,0.305,5.213,-62.721,-116.005,-26.273,-7.493,5.273,25.07,0.47208,-0.42029,-0.30841,-0.71082,650,0.834,-0.035,0.541,0.244,-0.183,0.244,-3.768,-57.074,-164.416,-23.36,-8.293,-12.4,30.25,-0.1051,0.47699,0.03693,0.87177,648,0.985,-0.058,0.002,0.366,0.183,-0.366,-86.276,-86.6,-69.269,-28.6,-6.38,4.267,29.21,0.16855,-0.69424,-0.12689,-0.68805,656
163,1.014,-0.124,-0.043,0.122,-0.305,0.0,-110.682,-82.683,-104.233,-25.22,-4.707,-5.107,23.42,-0.1669,-0.67554,0.25696,-0.67056,653,0.893,0.044,0.46,0.305,0.061,0.061,5.213,-62.721,-116.01,-26.273,-7.493,5.273,25.07,0.47208,-0.42029,-0.30841,-0.71082,651,0.836,-0.036,0.537,0.122,-0.244,0.305,-3.774,-57.079,-164.416,-23.36,-8.293,-12.4,30.25,-0.1051,0.47699,0.03693,0.87177,649,0.986,-0.061,0.002,0.244,0.366,-0.183,-86.193,-86.6,-69.318,-28.6,-6.38,4.267,29.21,0.16855,-0.69424,-0.12689,-0.68805,657
164,1.013,-0.122,-0.044,0.122,-0.427,0.0,-110.709,-82.678,-104.183,-25.22,-4.707,-5.107,23.42,-0.1669,-0.67554,0.25696,-0.67056,660,0.893,0.046,0.46,0.671,0.061,0.061,5.219,-62.715,-116.021,-26.273,-7.493,5.273,25.07,0.47208,-0.42029,-0.30841,-0.71082,658,0.834,-0.035,0.539,0.305,-0.061,0.061,-3.774,-57.079,-164.416,-23.36,-8.293,-12.4,30.25,-0.1051,0.47699,0.03693,0.87177,654,0.985,-0.06,0.002,0.427,0.244,-0.244,-86.127,-86.605,-69.351,-28.42,-6.64,4.387,29.21,0.16855,-0.69424,-0.12689,-0.68805,666
165,1.012,-0.122,-0.043,0.0,-0.244,0.0,-110.748,-82.678,-104.123,-25.22,-4.707,-5.107,23.42,-0.1669,-0.67554,0.25696,-0.67056,661,0.892,0.045,0.459,0.488,0.122,0.122,5.229,-62.715,-116.032,-26.273,-7.493,5.273,25.07,0.47208,-0.42029,-0.30841,-0.71082,659,0.835,-0.031,0.539,0.549,0.061,0.122,-3.768,-57.079,-164.421,-23.36,-8.293,-12.4,30.25,-0.1051,0.47699,0.03693,0.87177,655,0.984,-0.059,0.0,0.061,0.183,-0.183,-86.083,-86.605,-69.362,-28.42,-6.64,4.387,29.21,0.16855,-0.69424,-0.12689,-0.68805,667
166,1.014,-0.123,-0.045,-0.122,-0.183,0.0,-110.77,-82.672,-104.09,-25.22,-4.707,-5.107,23.42,-0.1669,-0.67554,0.25696,-0.67056,664,0.891,0.042,0.46,0.244,0.122,0.0,5.24,-62.71,-116.038,-26.273,-7.493,5.273,25.07,0.47208,-0.42029,-0.30841,-0.71082,668,0.835,-0.036,0.539,0.244,0.244,0.122,-3.763,-57.079,-164.427,-23.36,-8.293,-12.4,30.25,-0.1051,0.47699,0.03693,0.87177,662,0.984,-0.059,-0.001,0.0,0.244,-0.183,-86.045,-86.611,-69.379,-28.42,-6.64,4.387,29.21,0.16855,-0.69424,-0.12689,-0.68805,672
167,1.015,-0.121,-0.046,-0.061,-0.122,0.0,-110.781,-82.672,-104.068,-25.22,-4.707,-5.107,23.42,-0.1669,-0.67554,0.25696,-0.67056,665,0.893,0.043,0.461,0.061,0.0,-0.244,5.246,-62.704,-116.054,-26.273,-7.493,5.273,25.07,0.47208,-0.42029,-0.30841,-0.71082,669,0.833,-0.038,0.541,0.305,0.061,-0.122,-3.757,-57.074,-164.432,-23.36,-8.293,-12.4,30.25,-0.1051,0.47699,0.03693,0.87177,663,0.985,-0.058,-0.001,0.0,0.183,-0.183,-86.017,-86.611,-69.39,-28.42,-6.64,4.387,29.21,0.16855,-0.69424,-0.12689,-0.68805,673
168,1.013,-0.121,-0.044,-0.122,-0.061,0.0,-110.786,-82.672,-104.052,-25.22,-4.707,-5.107,23.42,-0.1669,-0.67554,0.25696,-0.67056,676,0.892,0.046,0.458,-0.061,-0.061,-0.244,5.257,-62.704,-116.082,-26.273,-7.493,5.273,25.07,0.47208,-0.42029,-0.30841,-0.71082,674,0.836,-0.034,0.54,0.122,-0.122,-0.305,-3.746,-57.074,-164.449,-23.36,-8.293,-12.4,30.25,-0.1051,0.47699,0.03693,0.87177,670,0.986,-0.057,0.0,0.0,0.122,-0.305,-86.012,-86.616,-69.384,-28.42,-6.64,4.387,29.21,0.16855,-0.69424,-0.12689,-0.68805,678
169,1.013,-0.122,-0.044,-0.305,-0.183,0.0,-110.797,-82.672,-104.041,-25.22,-4.707,-5.107,23.42,-0.1669,-0.67554,0.25696,-0.67056,677,0.892,0.044,0.458,0.061,0.0,-0.183,5.268,-62.704,-116.104,-26.273,-7.493,5.273,25.07,0.47208,-0.42029,-0.30841,-0.71082,675,0.835,-0.034,0.538,0.061,-0.122,-0.244,-3.735,-57.079,-164.465,-23.36,-8.293,-12.4,30.25,-0.1051,0.47699,0.03693,0.87177,671,0.985,-0.059,0.001,-0.183,0.183,-0.244,-86.001,-86.622,-69.39,-28.42,-6.64,4.387,29.21,0.16855,-0.69424,-0.12689,-0.68805,679
170,1.013,-0.123,-0.044,-0.183,-0.305,0.0,-110.819,-82.672,-104.008,-25.22,-4.707,-5.107,23.42,-0.1669,-0.67554,0.25696,-0.67056,684,0.891,0.046,0.458,0.0,0.0,-0.061,5.279,-62.704,-116.125,-26.273,-7.493,5.273,25.07,0.47208,-0.42029,-0.30841,-0.71082,682,0.834,-0.032,0.537,0.0,0.122,-0.061,-3.73,-57.079,-164.482,-23.36,-8.293,-12.4,30.25,-0.1051,0.47699,0.03693,0.87177,680,0.984,-0.06,0.0,-0.061,0.122,-0.305,-85.99,-86.627,-69.384,-28.42,-6.64,4.387,29.21,0.16855,-0.69424,-0.12689,-0.68805,686
171,1.013,-0.122,-0.045,0.0,-0.183,0.0,-110.852,-82.667,-103.969,-25.22,-4.707,-5.107,23.42,-0.1669,-0.67554,0.25696,-0.67056,685,0.891,0.048,0.46,-0.061,0.0,-0.061,5.284,-62.699,-116.142,-26.273,-7.493,5.273,25.07,0.47208,-0.42029,-0.30841,-0.71082,683,0.835,-0.031,0.538,-0.122,0.305,-0.061,-3.73,-57.074,-164.493,-23.36,-8.293,-12.4,30.25,-0.1051,0.47699,0.03693,0.87177,681,0.984,-0.058,-0.001,0.0,0.122,-0.244,-85.99,-86.627,-69.373,-28.42,-6.64,4.387,29.21,0.16855,-0.69424,-0.12689,-0.68805,687
172,1.014,-0.123,-0.044,0.061,0.0,0.0,-110.863,-82.667,-103.947,-25.22,-4.707,-5.107,23.42,-0.1669,-0.67554,0.25696,-0.67056,690,0.894,0.047,0.46,-0.122,0.0,0.0,5.29,-62.699,-116.153,-26.273,-7.493,5.273,25.07,0.47208,-0.42029,-0.30841,-0.71082,688,0.835,-0.03,0.541,-0.244,0.305,-0.122,-3.73,-57.068,-164.504,-23.207,-7.907,-12.467,30.25,-0.1051,0.47699,0.03693,0.87177,692,0.986,-0.059,-0.001,0.061,0.183,-0.122,-85.974,-86.633,-69.379,-28.42,-6.64,4.387,29.21,0.17133,-0.69348,-0.13022,-0.6875,694
173,1.015,-0.123,-0.043,0.061,0.0,0.0,-110.852,-82.667,-103.947,-25.22,-4.707,-5.107,23.42,-0.1669,-0.67554,0.25696,-0.67056,691,0.894,0.042,0.459,0.0,0.0,0.366,5.284,-62.699,-116.164,-26.273,-7.493,5.273,25.07,0.47208,-0.42029,-0.30841,-0.71082,689,0.837,-0.031,0.54,0.0,-0.244,0.0,-3.724,-57.068,-164.515,-23.207,-7.907,-12.467,30.25,-0.1051,0.47699,0.03693,0.87177,693,0.986,-0.062,0.001,0.183,0.122,-0.061,-85.974,-86.633,-69.368,-28.42,-6.64,4.387,29.21,0.17133,-0.69348,-0.13022,-0.6875,695
174,1.015,-0.122,-0.045,0.061,0.0,0.0,-110.841,-82.667,-103.947,-25.22,-5.033,-4.867,23.42,-0.1669,-0.67554,0.25696,-0.67056,700,0.894,0.04,0.458,0.244,0.0,0.427,5.279,-62.699,-116.158,-26.273,-7.493,5.273,25.07,0.47208,-0.42029,-0.30841,-0.71082,698,0.838,-0.037,0.538,-0.061,0.0,0.305,-3.73,-57.074,-164.515,-23.207,-7.907,-12.467,30.25,-0.10284,0.47696,0.03595,0.8721,696,0.987,-0.062,0.001,0.427,0.305,-0.183,-85.919,-86.633,-69.406,-28.42,-6.64,4.387,29.21,0.17133,-0.69348,-0.13022,-0.6875,702
175,1.013,-0.122,-0.044,0.183,-0.122,0.0,-110.836,-82.667,-103.942,-25.22,-5.033,-4.867,23.42,-0.1669,-0.67554,0.25696,-0.67056,701,0.892,0.042,0.457,0.61,0.183,0.305,5.273,-62.699,-116.153,-26.273,-7.493,5.273,25.07,0.47208,-0.42029,-0.30841,-0.71082,699,0.835,-0.039,0.535,0.183,0.122,0.488,-3.741,-57.068,-164.509,-23.207,-7.907,-12.467,30.25,-0.10284,0.47696,0.03595,0.8721,697,0.985,-0.059,0.002,0.549,0.305,-0.244,-85.842,-86.633,-69.456,-28.42,-6.64,4.387,29.21,0.17133,-0.69348,-0.13022,-0.6875,703
176,1.011,-0.121,-0.044,0.244,-0.122,0.0,-110.836,-82.667,-103.925,-25.22,-5.033,-4.867,23.42,-0.16568,-0.67612,0.25592,-0.67068,704,0.891,0.044,0.458,0.732,0.244,0.061,5.279,-62.693,-116.158,-26.84,-7.453,5.44,25.07,0.47208,-0.42029,-0.30841,-0.71082,712,0.834,-0.036,0.536,0.427,0.61,0.427,-3.746,-57.063,-164.498,-23.207,-7.907,-12.467,30.25,-0.10284,0.47696,0.03595,0.8721,706,0.983,-0.057,0.0,0.488,0.305,-0.305,-85.765,-86.638,-69.516,-28.42,-6.64,4.387,29.21,0.17133,-0.69348,-0.13022,-0.6875,708
177,1.012,-0.121,-0.044,0.061,0.0,0.0,-110.836,-82.667,-103.909,-25.22,-5.033,-4.867,23.42,-0.16568,-0.67612,0.25592,-0.67068,705,0.891,0.046,0.46,0.61,0.366,-0.061,5.29,-62.688,-116.164,-26.84,-7.453,5.44,25.07,0.47208,-0.42029,-0.30841,-0.71082,713,0.833,-0.035,0.539,0.427,0.854,0.305,-3.746,-57.052,-164.493,-23.207,-7.907,-12.467,30.25,-0.10284,0.47696,0.03595,0.8721,707,0.983,-0.057,-0.002,0.488,0.244,-0.305,-85.715,-86.644,-69.549,-28.42,-6.64,4.387,29.21,0.17133,-0.69348,-0.13022,-0.6875,709
178,1.014,-0.122,-0.043,-0.061,0.122,0.0,-110.825,-82.667,-103.914,-25.22,-5.033,-4.867,23.42,-0.16568,-0.67612,0.25592,-0.67068,714,0.893,0.047,0.458,0.427,0.366,-0.061,5.306,-62.682,-116.18,-26.84,-7.453,5.44,25.07,0.47137,-0.42014,-0.3082,-0.71149,718,0.834,-0.032,0.54,0.488,0.671,0.122,-3.741,-57.036,-164.493,-23.207,-7.907,-12.467,30.25,-0.10284,0.47696,0.03595,0.8721,710,0.986,-0.057,0.001,0.122,0.183,-0.244,-85.693,-86.649,-69.565,-28.42,-6.64,4.387,29.21,0.17133,-0.69348,-0.13022,-0.6875,716
179,1.014,-0.123,-0.043,-0.122,0.0,0.0,-110.803,-82.667,-103.931,-25.22,-5.033,-4.867,23.42,-0.16568,-0.67612,0.25592,-0.67068,715,0.891,0.049,0.461,0.488,0.427,-0.122,5.317,-62.672,-116.191,-26.84,-7.453,5.44,25.07,0.47137,-0.42014,-0.3082,-0.71149,719,0.835,-0.03,0.54,0.61,0.427,0.0,-3.73,-57.025,-164.504,-23.207,-7.907,-12.467,30.25,-0.10284,0.47696,0.03595,0.8721,711,0.987,-0.058,0.003,0.0,0.305,-0.122,-85.633,-86.649,-69.62,-28.42,-6.64,4.387,29.21,0.17133,-0.69348,-0.13022,-0.6875,717
180,1.011,-0.122,-0.045,-0.061,-0.122,0.0,-110.797,-82.667,-103.925,-25.22,-5.033,-4.867,23.42,-0.16568,-0.67612,0.25592,-0.67068,724,0.891,0.041,0.458,0.244,0.671,0.183,5.334,-62.661,-116.202,-26.84,-7.453,5.44,25.07,0.47137,-0.42014,-0.3082,-0.71149,726,0.833,-0.031,0.539,0.366,0.793,0.0,-3.719,-57.014,-164.509,-23.207,-7.907,-12.467,30.25,-0.10284,0.47696,0.03595,0.8721,720,0.983,-0.06,0.002,0.0,0.488,0.0,-85.507,-86.649,-69.736,-28.42,-6.64,4.387,29.21,0.17133,-0.69348,-0.13022,-0.6875,722
181,1.013,-0.122,-0.043,0.0,0.0,0.0,-110.803,-82.667,-103.909,-25.22,-5.033,-4.867,23.42,-0.16568,-0.67612,0.25592,-0.67068,725,0.895,0.043,0.46,0.061,0.732,0.244,5.328,-62.65,-116.202,-26.84,-7.453,5.44,25.07,0.47137,-0.42014,-0.3082,-0.71149,727,0.836,-0.039,0.539,-0.061,0.916,0.549,-3.719,-56.997,-164.509,-23.207,-7.907,-12.467,30.25,-0.10284,0.47696,0.03595,0.8721,721,0.986,-0.062,0.0,0.061,0.61,-0.183,-85.336,-86.649,-69.895,-28.42,-6.64,4.387,29.21,0.17133,-0.69348,-0.13022,-0.6875,723
182,1.017,-0.123,-0.044,-0.122,0.0,0.0,-110.792,-82.667,-103.909,-25.22,-5.033,-4.867,23.42,-0.16568,-0.67612,0.25592,-0.67068,734,0.895,0.051,0.462,0.122,0.732,-0.244,5.323,-62.633,-116.208,-26.84,-7.453,5.44,25.07,0.47137,-0.42014,-0.3082,-0.71149,732,0.838,-0.037,0.541,0.122,0.916,0.244,-3.73,-56.981,-164.504,-23.207,-7.907,-12.467,30.25,-0.10284,0.47696,0.03595,0.8721,728,0.988,-0.055,0.001,0.0,0.488,-0.122,-85.215,-86.649,-70.016,-28.42,-6.64,4.387,29.21,0.17133,-0.69348,-0.13022,-0.6875,730
183,1.016,-0.122,-0.044,-0.305,0.183,0.0,-110.775,-82.667,-103.92,-25.22,-5.033,-4.867,23.42,-0.16568,-0.67612,0.25592,-0.67068,735,0.894,0.049,0.462,0.488,0.549,0.0,5.339,-62.622,-116.224,-26.84,-7.453,5.44,25.07,0.47137,-0.42014,-0.3082,-0.71149,733,0.838,-0.026,0.544,0.671,0.793,-0.244,-3.719,-56.964,-164.509,-23.207,-7.907,-12.467,30.25,-0.10284,0.47696,0.03595,0.8721,729,0.989,-0.058,-0.002,-0.305,0.427,0.0,-85.122,-86.649,-70.109,-28.42,-6.64,4.387,29.21,0.17133,-0.69348,-0.13022,-0.6875,731
184,1.015,-0.122,-0.045,-0.183,0.244,0.0,-110.742,-82.672,-103.947,-25.22,-5.033,-4.867,23.42,-0.16568,-0.67612,0.25592,-0.67068,742,0.889,0.045,0.462,0.061,0.671,0.366,5.345,-62.611,-116.23,-26.84,-7.453,5.44,25.07,0.47137,-0.42014,-0.3082,-0.71149,740,0.833,-0.03,0.543,0.305,0.916,0.122,-3.702,-56.953,-164.52,-23.207,-7.907,-12.467,30.25,-0.10284,0.47696,0.03595,0.8721,736,0.985,-0.061,0.0,-0.061,0.549,0.061,-84.996,-86.649,-70.247,-28.42,-6.64,4.387,29.21,0.17133,-0.69348,-0.13022,-0.6875,738
185,1.01,-0.122,-0.045,0.0,0.183,0.0,-110.704,-82.672,-103.98,-25.22,-5.033,-4.867,23.42,-0.16568,-0.67612,0.25592,-0.67068,743,0.888,0.043,0.461,0.366,0.61,0.305,5.339,-62.595,-116.224,-26.84,-7.453,5.44,25.07,0.47137,-0.42014,-0.3082,-0.71149,741,0.831,-0.035,0.542,0.244,0.671,0.305,-3.697,-56.937,-164.52,-23.207,-7.907,-12.467,30.25,-0.10284,0.47696,0.03595,0.8721,737,0.982,-0.059,0.001,0.122,0.549,0.061,-84.858,-86.644,-70.384,-28.42,-6.64,4.387,29.21,0.17133,-0.69348,-0.13022,-0.6875,739
186,1.011,-0.121,-0.045,0.061,0.122,0.0,-110.671,-82.672,-104.008,-25.22,-5.033,-4.867,23.42,-0.16568,-0.67612,0.25592,-0.67068,746,0.887,0.042,0.461,0.366,0.61,0.366,5.334,-62.584,-116.219,-26.84,-7.453,5.44,25.07,0.47137,-0.42014,-0.3082,-0.71149,750,0.83,-0.036,0.541,0.549,0.427,0.183,-3.697,-56.926,-164.52,-23.207,-7.907,-12.467,30.25,-0.10284,0.47696,0.03595,0.8721,744,0.981,-0.059,0.001,0.244,0.366,0.0,-84.781,-86.644,-70.455,-28.42,-6.64,4.387,29.21,0.17133,-0.69348,-0.13022,-0.6875,748
187,1.012,-0.122,-0.044,0.0,0.122,0.0,-110.643,-82.672,-104.024,-25.22,-5.033,-4.867,23.42,-0.16568,-0.67612,0.25592,-0.67068,747,0.887,0.043,0.461,0.366,0.488,0.366,5.328,-62.573,-116.208,-26.84,-7.453,5.44,25.07,0.47137,-0.42014,-0.3082,-0.71149,751,0.829,-0.036,0.541,0.305,0.427,0.366,-3.691,-56.92,-164.52,-23.207,-7.907,-12.467,30.25,-0.10284,0.47696,0.03595,0.8721,745,0.981,-0.059,0.0,0.183,0.427,-0.122,-84.688,-86.644,-70.56,-28.42,-6.64,4.387,29.21,0.17133,-0.69348,-0.13022,-0.6875,749
188,1.012,-0.122,-0.044,-0.122,0.0,0.0,-110.627,-82.678,-104.035,-25.22,-5.033,-4.867,23.42,-0.16568,-0.67612,0.25592,-0.67068,756,0.886,0.043,0.463,0.61,0.427,0.244,5.328,-62.567,-116.208,-26.84,-7.453,5.44,25.07,0.47137,-0.42014,-0.3082,-0.71149,754,0.829,-0.036,0.542,0.366,0.427,0.488,-3.697,-56.909,-164.509,-23.207,-7.907,-12.467,30.25,-0.10284,0.47696,0.03595,0.8721,752,0.983,-0.058,0.002,0.122,0.488,-0.122,-84.567,-86.644,-70.681,-28.46,-6.92,3.58,29.21,0.17133,-0.69348,-0.13022,-0.6875,758
189,1.013,-0.123,-0.044,0.0,-0.122,0.0,-110.627,-82.678,-104.035,-25.22,-5.033,-4.867,23.42,-0.16568,-0.67612,0.25592,-0.67068,757,0.887,0.043,0.468,0.793,0.488,0.244,5.334,-62.556,-116.202,-26.84,-7.453,5.44,25.07,0.47137,-0.42014,-0.3082,-0.71149,755,0.829,-0.037,0.544,0.61,0.488,0.427,-3.702,-56.898,-164.498,-23.207,-7.907,-12.467,30.25,-0.10284,0.47696,0.03595,0.8721,753,0.983,-0.061,0.005,0.244,0.427,-0.183,-84.457,-86.644,-70.785,-28.46,-6.92,3.58,29.21,0.17133,-0.69348,-0.13022,-0.6875,759
190,1.014,-0.123,-0.043,0.183,-0.183,0.0,-110.638,-82.672,-104.013,-25.293,-5.54,-4.453,23.42,-0.16568,-0.67612,0.25592,-0.67068,760,0.888,0.046,0.47,1.038,0.366,0.061,5.345,-62.545,-116.208,-26.84,-7.453,5.44,25.07,0.47137,-0.42014,-0.3082,-0.71149,766,0.83,-0.035,0.548,0.916,0.549,0.366,-3.697,-56.887,-164.493,-23.013,-8.187,-12.76,30.25,-0.10284,0.47696,0.03595,0.8721,762,0.984,-0.059,0.004,0.366,0.244,-0.183,-84.402,-86.649,-70.829,-28.46,-6.92,3.58,29.21,0.17209,-0.69278,-0.13104,-0.68787,764
191,1.012,-0.123,-0.042,0.305,-0.244,0.0,-110.654,-82.672,-103.986,-25.293,-5.54,-4.453,23.42,-0.16568,-0.67612,0.25592,-0.67068,761,0.886,0.047,0.469,1.038,0.122,0.0,5.367,-62.54,-116.213,-26.84,-7.453,5.44,25.07,0.47137,-0.42014,-0.3082,-0.71149,767,0.831,-0.034,0.551,1.343,0.183,0.183,-3.68,-56.882,-164.509,-23.013,-8.187,-12.76,30.25,-0.10284,0.47696,0.03595,0.8721,763,0.986,-0.059,0.004,0.366,-0.061,-0.122,-84.452,-86.649,-70.763,-28.46,-6.92,3.58,29.21,0.17209,-0.69278,-0.13104,-0.68787,765
192,1.011,-0.122,-0.041,0.183,-0.122,0.0,-110.671,-82.672,-103.953,-25.293,-5.54,-4.453,23.42,-0.16492,-0.6763,0.2551,-0.67099,768,0.887,0.046,0.465,0.793,0.0,0.0,5.383,-62.534,-116.224,-26.38,-7.693,5.087,25.07,0.47137,-0.42014,-0.3082,-0.71149,774,0.828,-0.032,0.547,1.404,-0.183,0.061,-3.658,-56.876,-164.553,-23.013,-8.187,-12.76,30.25,-0.10303,0.47543,0.03613,0.87289,772,0.983,-0.058,0.004,0.183,-0.244,-0.061,-84.562,-86.649,-70.637,-28.46,-6.92,3.58,29.21,0.17209,-0.69278,-0.13104,-0.68787,770
193,1.011,-0.121,-0.04,0.122,-0.244,0.0,-110.676,-82.672,-103.931,-25.293,-5.54,-4.453,23.42,-0.16492,-0.6763,0.2551,-0.67099,769,0.888,0.048,0.463,0.305,-0.061,-0.122,5.4,-62.529,-116.235,-26.38,-7.693,5.087,25.07,0.47137,-0.42014,-0.3082,-0.71149,775,0.832,-0.034,0.543,0.732,-0.183,0.0,-3.636,-56.882,-164.559,-23.013,-8.187,-12.76,30.25,-0.10303,0.47543,0.03613,0.87289,773,0.984,-0.058,0.005,0.122,-0.122,0.0,-84.628,-86.649,-70.549,-28.46,-6.92,3.58,29.21,0.17209,-0.69278,-0.13104,-0.68787,771
194,1.012,-0.12,-0.042,0.183,-0.244,0.0,-110.693,-82.672,-103.892,-25.293,-5.54,-4.453,23.42,-0.16492,-0.6763,0.2551,-0.67099,778,0.889,0.05,0.462,0.183,-0.122,-0.183,5.416,-62.529,-116.252,-26.38,-7.693,5.087,25.07,0.47137,-0.42014,-0.3082,-0.71149,788,0.83,-0.029,0.542,0.488,-0.183,-0.183,-3.62,-56.882,-164.581,-23.013,-8.187,-12.76,30.25,-0.10303,0.47543,0.03613,0.87289,780,0.984,-0.058,0.004,0.061,-0.061,0.0,-84.65,-86.649,-70.499,-28.46,-6.92,3.58,29.21,0.17209,-0.69278,-0.13104,-0.68787,776
195,1.014,-0.121,-0.043,0.0,-0.366,0.0,-110.715,-82.667,-103.848,-25.293,-5.54,-4.453,23.42,-0.16492,-0.6763,0.2551,-0.67099,779,0.889,0.047,0.464,-0.366,-0.061,0.244,5.416,-62.529,-116.263,-26.38,-7.693,5.087,25.07,0.47137,-0.42014,-0.3082,-0.71149,789,0.831,-0.028,0.542,0.0,0.122,0.0,-3.615,-56.882,-164.592,-23.013,-8.187,-12.76,30.25,-0.10303,0.47543,0.03613,0.87289,781,0.985,-0.058,0.0,-0.061,-0.122,0.0,-84.694,-86.649,-70.428,-28.46,-6.92,3.58,29.21,0.17209,-0.69278,-0.13104,-0.68787,777
196,1.014,-0.123,-0.047,-0.183,-0.366,0.0,-110.759,-82.667,-103.793,-25.293,-5.54,-4.453,23.42,-0.16492,-0.6763,0.2551,-0.67099,782,0.89,0.044,0.464,-0.61,-0.183,0.305,5.4,-62.529,-116.263,-26.38,-7.693,5.087,25.07,0.47153,-0.41898,-0.30789,-0.71216,792,0.832,-0.032,0.544,-0.854,0.427,0.305,-3.62,-56.871,-164.614,-23.013,-8.187,-12.76,30.25,-0.10303,0.47543,0.03613,0.87289,786,0.984,-0.058,0.0,0.0,-0.244,0.0,-84.771,-86.649,-70.334,-28.46,-6.92,3.58,29.21,0.17209,-0.69278,-0.13104,-0.68787,784
197,1.013,-0.123,-0.046,-0.122,-0.305,0.0,-110.797,-82.667,-103.749,-25.293,-5.54,-4.453,23.42,-0.16492,-0.6763,0.2551,-0.67099,783,0.888,0.046,0.464,-0.549,-0.427,0.122,5.389,-62.529,-116.263,-26.38,-7.693,5.087,25.07,0.47153,-0.41898,-0.30789,-0.71216,793,0.831,-0.036,0.544,-0.793,0.183,0.244,-3.642,-56.865,-164.652,-23.013,-8.187,-12.76,30.25,-0.10303,0.47543,0.03613,0.87289,787,0.983,-0.058,0.0,-0.183,-0.244,0.061,-84.886,-86.649,-70.208,-28.46,-6.92,3.58,29.21,0.17209,-0.69278,-0.13104,-0.68787,785
198,1.013,-0.122,-0.046,0.0,-0.244,0.0,-110.825,-82.661,-103.705,-25.293,-5.54,-4.453,23.42,-0.16492,-0.6763,0.2551,-0.67099,794,0.891,0.044,0.463,-0.427,-0.488,-0.061,5.383,-62.54,-116.274,-26.38,-7.693,5.087,25.07,0.47153,-0.41898,-0.30789,-0.71216,798,0.831,-0.034,0.544,-0.61,-0.122,0.0,-3.658,-56.865,-164.68,-23.013,-8.187,-12.76,30.25,-0.10303,0.47543,0.03613,0.87289,790,0.986,-0.058,0.001,-0.061,-0.183,0.0,-85.001,-86.644,-70.087,-28.46,-6.92,3.58,29.21,0.17209,-0.69278,-0.13104,-0.68787,796
199,1.014,-0.122,-0.045,0.0,-0.305,0.0,-110.858,-82.661,-103.667,-25.293,-5.54,-4.453,23.42,-0.16492,-0.6763,0.2551,-0.67099,795,0.891,0.044,0.461,-0.244,-0.671,-0.122,5.383,-62.545,-116.29,-26.38,-7.693,5.087,25.07,0.47153,-0.41898,-0.30789,-0.71216,799,0.833,-0.036,0.542,-0.366,-0.488,-0.061,-3.664,-56.871,-164.702,-23.013,-8.187,-12.76,30.25,-0.10303,0.47543,0.03613,0.87289,791,0.985,-0.06,0.001,-0.061,-0.122,0.0,-85.095,-86.644,-69.988,-28.46,-6.92,3.58,29.21,0.17209,-0.69278,-0.13104,-0.68787,797
200,1.014,-0.123,-0.046,0.0,-0.427,0.0,-110.901,-82.661,-103.612,-25.293,-5.54,-4.453,23.42,-0.16492,-0.6763,0.2551,-0.67099,804,0.892,0.044,0.462,0.0,-0.671,-0.122,5.389,-62.556,-116.307,-26.38,-7.693,5.087,25.07,0.47153,-0.41898,-0.30789,-0.71216,808,0.833,-0.035,0.542,-0.122,-0.549,-0.183,-3.664,-56.882,-164.713,-23.013,-8.187,-12.76,30.25,-0.10303,0.47543,0.03613,0.87289,800,0.985,-0.06,0.0,0.0,-0.244,0.0,-85.182,-86.644,-69.895,-28.46,-6.92,3.58,29.21,0.17209,-0.69278,-0.13104,-0.68787,802
201,1.013,-0.123,-0.044,0.0,-0.427,0.0,-110.956,-82.656,-103.552,-25.293,-5.54,-4.453,23.42,-0.16492,-0.6763,0.2551,-0.67099,805,0.891,0.044,0.461,0.061,-0.671,-0.122,5.4,-62.567,-116.323,-26.38,-7.693,5.087,25.07,0.47153,-0.41898,-0.30789,-0.71216,809,0.834,-0.035,0.541,0.0,-0.366,-0.183,-3.658,-56.887,-164.734,-23.013,-8.187,-12.76,30.25,-0.10303,0.47543,0.03613,0.87289,801,0.985,-0.061,0.0,-0.061,-0.244,-0.061,-85.303,-86.644,-69.774,-28.46,-6.92,3.58,29.21,0.17209,-0.69278,-0.13104,-0.68787,803
202,1.013,-0.123,-0.045,0.0,-0.366,0.0,-111.0,-82.656,-103.491,-25.293,-5.54,-4.453,23.42,-0.16492,-0.6763,0.2551,-0.67099,810,0.893,0.043,0.461,0.122,-0.61,0.0,5.411,-62.578,-116.34,-26.38,-7.693,5.087,25.07,0.47153,-0.41898,-0.30789,-0.71216,816,0.834,-0.035,0.541,0.0,-0.244,-0.061,-3.653,-56.893,-164.767,-23.013,-8.187,-12.76,30.25,-0.10303,0.47543,0.03613,0.87289,806,0.986,-0.06,-0.001,0.061,-0.244,0.0,-85.424,-86.644,-69.648,-28.46,-6.92,3.58,29.21,0.17209,-0.69278,-0.13104,-0.68787,814
203,1.014,-0.122,-0.045,0.0,-0.183,0.0,-111.033,-82.65,-103.453,-25.293,-5.54,-4.453,23.42,-0.16492,-0.6763,0.2551,-0.67099,811,0.893,0.044,0.459,0.122,-0.61,0.0,5.416,-62.589,-116.351,-26.38,-7.693,5.087,25.07,0.47153,-0.41898,-0.30789,-0.71216,817,0.835,-0.036,0.54,0.0,-0.305,0.061,-3.653,-56.898,-164.8,-23.013,-8.187,-12.76,30.25,-0.10303,0.47543,0.03613,0.87289,807,0.985,-0.059,0.0,0.122,-0.183,0.0,-85.545,-86.644,-69.532,-28.46,-6.92,3.58,29.21,0.17209,-0.69278,-0.13104,-0.68787,815
204,1.014,-0.123,-0.045,0.061,0.0,0.0,-111.033,-82.65,-103.436,-25.14,-5.353,-4.38,23.42,-0.16492,-0.6763,0.2551,-0.67099,818,0.892,0.045,0.46,0.061,-0.671,0.122,5.416,-62.6,-116.356,-26.38,-7.693,5.087,25.07,0.47153,-0.41898,-0.30789,-0.71216,828,0.835,-0.034,0.54,0.0,-0.366,0.122,-3.658,-56.904,-164.833,-23.013,-8.187,-12.76,30.25,-0.10303,0.47543,0.03613,0.87289,812,0.986,-0.06,0.0,0.122,-0.061,-0.305,-85.633,-86.649,-69.439,-28.633,-6.487,3.92,29.21,0.17209,-0.69278,-0.13104,-0.68787,820
205,1.013,-0.122,-0.045,0.061,-0.061,0.0,-111.028,-82.65,-103.436,-25.14,-5.353,-4.38,23.42,-0.16492,-0.6763,0.2551,-0.67099,819,0.892,0.046,0.459,0.061,-0.549,0.122,5.422,-62.611,-116.367,-26.38,-7.693,5.087,25.07,0.47153,-0.41898,-0.30789,-0.71216,829,0.835,-0.033,0.54,-0.122,-0.366,0.183,-3.664,-56.909,-164.844,-23.013,-8.187,-12.76,30.25,-0.10303,0.47543,0.03613,0.87289,813,0.985,-0.058,0.001,0.122,0.061,-0.244,-85.677,-86.649,-69.401,-28.633,-6.487,3.92,29.21,0.17209,-0.69278,-0.13104,-0.68787,821
206,1.012,-0.123,-0.046,0.061,-0.122,0.0,-111.033,-82.65,-103.42,-25.14,-5.353,-4.38,23.42,-0.16492,-0.6763,0.2551,-0.67099,824,0.893,0.047,0.46,0.122,-0.427,0.061,5.422,-62.622,-116.373,-26.38,-7.693,5.087,25.07,0.47153,-0.41898,-0.30789,-0.71216,834,0.834,-0.033,0.54,0.0,-0.244,0.183,-3.675,-56.915,-164.844,-23.013,-8.187,-12.76,30.25,-0.10303,0.47543,0.03613,0.87289,822,0.984,-0.06,0.001,0.061,0.122,-0.122,-85.688,-86.655,-69.39,-28.633,-6.487,3.92,29.21,0.17209,-0.69278,-0.13104,-0.68787,826
207,1.012,-0.124,-0.045,0.122,-0.244,0.0,-111.044,-82.65,-103.392,-25.14,-5.353,-4.38,23.42,-0.16492,-0.6763,0.2551,-0.67099,825,0.892,0.046,0.46,0.183,-0.305,0.122,5.427,-62.628,-116.378,-26.38,-7.693,5.087,25.07,0.47153,-0.41898,-0.30789,-0.71216,835,0.834,-0.032,0.541,0.061,0.0,0.183,-3.675,-56.92,-164.828,-23.013,-8.187,-12.76,30.25,-0.10303,0.47543,0.03613,0.87289,823,0.984,-0.06,0.001,0.183,0.0,-0.061,-85.693,-86.655,-69.384,-28.633,-6.487,3.92,29.21,0.17209,-0.69278,-0.13104,-0.68787,827
208,1.013,-0.122,-0.045,0.122,-0.305,0.0,-111.077,-82.645,-103.354,-25.14,-5.353,-4.38,23.42,-0.16376,-0.67697,0.25415,-0.67096,830,0.891,0.046,0.46,0.061,-0.122,0.061,5.427,-62.628,-116.384,-26.38,-7.693,5.087,25.07,0.47153,-0.41898,-0.30789,-0.71216,840,0.833,-0.034,0.54,0.061,0.0,0.183,-3.68,-56.92,-164.806,-22.9,-7.707,-12.52,30.25,-0.10303,0.47543,0.03613,0.87289,832,0.984,-0.058,-0.001,0.122,-0.122,-0.122,-85.737,-86.655,-69.34,-28.633,-6.487,3.92,29.21,0.17285,-0.69305,-0.13205,-0.68719,836
209,1.013,-0.121,-0.045,0.0,-0.183,0.0,-111.099,-82.645,-103.321,-25.14,-5.353,-4.38,23.42,-0.16376,-0.67697,0.25415,-0.67096,831,0.893,0.045,0.457,0.0,0.0,0.122,5.427,-62.628,-116.389,-26.38,-7.693,5.087,25.07,0.47153,-0.41898,-0.30789,-0.71216,841,0.834,-0.034,0.54,0.0,-0.061,0.122,-3.68,-56.92,-164.806,-22.9,-7.707,-12.52,30.25,-0.10303,0.47543,0.03613,0.87289,833,0.987,-0.057,0.0,0.0,0.061,-0.183,-85.803,-86.655,-69.28,-28.633,-6.487,3.92,29.21,0.17285,-0.69305,-0.13205,-0.68719,837
210,1.015,-0.121,-0.044,-0.061,0.061,0.0,-111.099,-82.645,-103.31,-25.14,-5.353,-4.38,23.42,-0.16376,-0.67697,0.25415,-0.67096,842,0.893,0.048,0.461,0.0,0.0,0.122,5.427,-62.628,-116.389,-26.38,-7.693,5.087,25.07,0.47153,-0.41898,-0.30789,-0.71216,846,0.836,-0.033,0.539,0.0,-0.183,0.183,-3.686,-56.926,-164.817,-22.9,-7.707,-12.52,30.25,-0.10083,0.47586,0.03485,0.87296,838,0.986,-0.057,0.002,-0.122,0.122,0.0,-85.82,-86.66,-69.274,-28.633,-6.487,3.92,29.21,0.17285,-0.69305,-0.13205,-0.68719,844
211,1.013,-0.123,-0.044,-0.122,0.0,0.0,-111.088,-82.645,-103.315,-25.14,-5.353,-4.38,23.42,-0.16376,-0.67697,0.25415,-0.67096,843,0.89,0.046,0.458,0.0,0.183,0.122,5.427,-62.628,-116.395,-26.38,-7.693,5.087,25.07,0.47153,-0.41898,-0.30789,-0.71216,847,0.834,-0.03,0.541,0.0,0.0,0.061,-3.691,-56.926,-164.844,-22.9,-7.707,-12.52,30.25,-0.10083,0.47586,0.03485,0.87296,839,0.984,-0.062,0.001,0.0,0.244,-0.061,-85.809,-86.66,-69.291,-28.633,-6.487,3.92,29.21,0.17285,-0.69305,-0.13205,-0.68719,845
212,1.011,-0.122,-0.045,0.0,-0.061,0.0,-111.083,-82.645,-103.31,-25.14,-5.353,-4.38,23.42,-0.16376,-0.67697,0.25415,-0.67096,852,0.893,0.042,0.459,-0.061,0.305,0.427,5.416,-62.622,-116.389,-26.38,-7.693,5.087,25.07,0.47153,-0.41898,-0.30789,-0.71216,856,0.832,-0.036,0.537,-0.122,0.244,0.366,-3.697,-56.926,-164.872,-22.9,-7.707,-12.52,30.25,-0.10083,0.47586,0.03485,0.87296,850,0.986,-0.058,0.0,0.122,0.244,-0.244,-85.759,-86.66,-69.34,-28.633,-6.487,3.92,29.21,0.17285,-0.69305,-0.13205,-0.68719,848
213,1.016,-0.12,-0.046,0.0,-0.122,0.0,-111.088,-82.645,-103.293,-25.14,-5.353,-4.38,23.42,-0.16376,-0.67697,0.25415,-0.67096,853,0.895,0.049,0.462,-0.183,0.427,0.0,5.405,-62.617,-116.384,-26.38,-7.693,5.087,25.07,0.47153,-0.41898,-0.30789,-0.71216,857,0.837,-0.037,0.542,-0.244,0.488,0.366,-3.713,-56.915,-164.894,-22.9,-7.707,-12.52,30.25,-0.10083,0.47586,0.03485,0.87296,851,0.988,-0.053,0.0,0.0,0.183,-0.061,-85.726,-86.66,-69.384,-28.633,-6.487,3.92,29.21,0.17285,-0.69305,-0.13205,-0.68719,849
214,1.016,-0.121,-0.046,-0.061,-0.122,0.0,-111.099,-82.645,-103.277,-25.14,-5.353,-4.38,23.42,-0.16376,-0.67697,0.25415,-0.67096,858,0.895,0.053,0.46,0.244,0.305,-0.183,5.416,-62.606,-116.395,-26.593,-7.66,5.753,25.07,0.47153,-0.41898,-0.30789,-0.71216,862,0.836,-0.029,0.543,0.366,0.366,-0.305,-3.702,-56.909,-164.91,-22.9,-7.707,-12.52,30.25,-0.10083,0.47586,0.03485,0.87296,854,0.987,-0.056,-0.005,-0.061,0.183,0.0,-85.704,-86.66,-69.412,-28.633,-6.487,3.92,29.21,0.17285,-0.69305,-0.13205,-0.68719,860
215,1.016,-0.12,-0.047,0.0,0.183,0.0,-111.088,-82.645,-103.282,-25.14,-5.353,-4.38,23.42,-0.16376,-0.67697,0.25415,-0.67096,859,0.891,0.046,0.461,0.061,0.366,0.183,5.422,-62.6,-116.4,-26.593,-7.66,5.753,25.07,0.47153,-0.41898,-0.30789,-0.71216,863,0.835,-0.029,0.542,0.305,0.183,-0.061,-3.686,-56.904,-164.905,-22.9,-7.707,-12.52,30.25,-0.10083,0.47586,0.03485,0.87296,855,0.986,-0.061,-0.001,0.061,0.244,0.0,-85.688,-86.66,-69.45,-28.633,-6.487,3.92,29.21,0.17285,-0.69305,-0.13205,-0.68719,861
216,1.013,-0.122,-0.046,0.061,0.244,0.0,-111.05,-82.65,-103.315,-25.14,-5.353,-4.38,23.42,-0.16376,-0.67697,0.25415,-0.67096,864,0.889,0.044,0.46,0.122,0.305,0.305,5.416,-62.595,-116.4,-26.593,-7.66,5.753,25.07,0.47153,-0.41898,-0.30789,-0.71216,870,0.833,-0.035,0.542,0.0,0.183,0.122,-3.686,-56.904,-164.905,-22.9,-7.707,-12.52,30.25,-0.10083,0.47586,0.03485,0.87296,868,0.984,-0.058,0.0,0.427,0.244,-0.122,-85.655,-86.66,-69.5,-28.633,-6.487,3.92,29.21,0.17285,-0.69305,-0.13205,-0.68719,866
217,1.01,-0.121,-0.046,0.122,0.122,0.0,-111.017,-82.65,-103.343,-25.14,-5.353,-4.38,23.42,-0.16376,-0.67697,0.25415,-0.67096,865,0.887,0.046,0.461,0.183,0.244,0.244,5.416,-62.589,-116.395,-26.593,-7.66,5.753,25.07,0.47153,-0.41898,-0.30789,-0.71216,871,0.831,-0.034,0.541,0.244,0.061,0.183,-3.686,-56.904,-164.905,-22.9,-7.707,-12.52,30.25,-0.10083,0.47586,0.03485,0.87296,869,0.981,-0.057,0.001,0.427,0.366,-0.183,-85.589,-86.666,-69.576,-28.633,-6.487,3.92,29.21,0.17285,-0.69305,-0.13205,-0.68719,867
218,1.01,-0.121,-0.046,0.0,0.0,0.0,-111.006,-82.65,-103.348,-25.14,-5.353,-4.38,23.42,-0.16376,-0.67697,0.25415,-0.67096,878,0.886,0.046,0.461,0.122,0.183,0.244,5.411,-62.584,-116.389,-26.593,-7.66,5.753,25.07,0.47064,-0.41968,-0.30774,-0.71243,876,0.83,-0.033,0.541,0.122,0.061,0.244,-3.686,-56.904,-164.866,-22.9,-7.707,-12.52,30.25,-0.10083,0.47586,0.03485,0.87296,872,0.981,-0.058,0.001,0.061,0.427,-0.122,-85.496,-86.666,-69.681,-28.633,-6.487,3.92,29.21,0.17285,-0.69305,-0.13205,-0.68719,874
219,1.011,-0.124,-0.046,0.0,-0.183,0.0,-111.017,-82.65,-103.337,-25.14,-5.353,-4.38,23.42,-0.16376,-0.67697,0.25415,-0.67096,879,0.887,0.045,0.463,0.061,0.183,0.244,5.405,-62.584,-116.384,-26.593,-7.66,5.753,25.07,0.47064,-0.41968,-0.30774,-0.71243,877,0.83,-0.035,0.542,0.122,0.122,0.305,-3.691,-56.898,-164.828,-22.9,-7.707,-12.52,30.25,-0.10083,0.47586,0.03485,0.87296,873,0.983,-0.061,0.0,0.0,0.244,-0.061,-85.43,-86.666,-69.769,-28.633,-6.487,3.92,29.21,0.17285,-0.69305,-0.13205,-0.68719,875
220,1.012,-0.125,-0.043,0.0,-0.061,0.0,-111.028,-82.65,-103.315,-25.513,-4.84,-5.033,23.42,-0.16376,-0.67697,0.25415,-0.67096,886,0.89,0.045,0.461,0.0,0.061,0.122,5.405,-62.578,-116.384,-26.593,-7.66,5.753,25.07,0.47064,-0.41968,-0.30774,-0.71243,882,0.832,-0.037,0.542,0.122,0.061,0.244,-3.697,-56.898,-164.789,-22.9,-7.707,-12.52,30.25,-0.10083,0.47586,0.03485,0.87296,880,0.985,-0.059,0.003,0.061,0.122,0.0,-85.413,-86.666,-69.796,-28.633,-6.487,3.92,29.21,0.17285,-0.69305,-0.13205,-0.68719,884
221,1.014,-0.123,-0.043,0.0,0.0,0.0,-111.028,-82.65,-103.315,-25.513,-4.84,-5.033,23.42,-0.16376,-0.67697,0.25415,-0.67096,887,0.89,0.046,0.463,0.061,0.061,0.0,5.411,-62.578,-116.389,-26.593,-7.66,5.753,25.07,0.47064,-0.41968,-0.30774,-0.71243,883,0.833,-0.035,0.542,0.244,0.0,0.061,-3.691,-56.898,-164.767,-22.9,-7.707,-12.52,30.25,-0.10083,0.47586,0.03485,0.87296,881,0.986,-0.057,0.004,-0.061,0.061,0.0,-85.424,-86.666,-69.796,-28.633,-6.487,3.92,29.21,0.17285,-0.69305,-0.13205,-0.68719,885
222,1.013,-0.123,-0.042,0.0,-0.122,0.0,-111.028,-82.65,-103.304,-25.513,-4.84,-5.033,23.42,-0.16306,-0.67722,0.25348,-0.67111,888,0.891,0.047,0.465,0.0,0.122,0.0,5.411,-62.573,-116.4,-26.593,-7.66,5.753,25.07,0.47064,-0.41968,-0.30774,-0.71243,894,0.833,-0.032,0.543,0.122,0.183,0.061,-3.691,-56.893,-164.74,-22.9,-7.707,-12.52,30.25,-0.10083,0.47586,0.03485,0.87296,890,0.986,-0.059,0.002,-0.244,0.061,0.122,-85.446,-86.666,-69.785,-28.98,-6.92,3.64,29.21,0.17285,-0.69305,-0.13205,-0.68719,892
223,1.012,-0.123,-0.044,-0.061,-0.244,0.0,-111.044,-82.65,-103.277,-25.513,-4.84,-5.033,23.42,-0.16306,-0.67722,0.25348,-0.67111,889,0.889,0.045,0.464,-0.061,0.0,0.061,5.411,-62.573,-116.4,-26.593,-7.66,5.753,25.07,0.47064,-0.41968,-0.30774,-0.71243,895,0.832,-0.033,0.546,0.0,0.244,0.122,-3.691,-56.893,-164.707,-22.9,-7.707,-12.52,30.25,-0.10083,0.47586,0.03485,0.87296,891,0.984,-0.061,0.001,-0.305,0.061,0.0,-85.463,-86.66,-69.769,-28.98,-6.92,3.64,29.21,0.17285,-0.69305,-0.13205,-0.68719,893
224,1.012,-0.121,-0.042,-0.061,0.0,0.0,-111.05,-82.645,-103.26,-25.513,-4.84,-5.033,23.42,-0.16306,-0.67722,0.25348,-0.67111,896,0.89,0.043,0.462,-0.183,0.0,0.244,5.405,-62.567,-116.4,-26.593,-7.66,5.753,25.07,0.47064,-0.41968,-0.30774,-0.71243,902,0.832,-0.034,0.542,-0.061,0.0,0.183,-3.697,-56.887,-164.702,-23.293,-7.807,-13.26,30.25,-0.10083,0.47586,0.03485,0.87296,898,0.984,-0.059,0.001,-0.183,0.244,0.0,-85.452,-86.66,-69.791,-28.98,-6.92,3.64,29.21,0.17184,-0.69315,-0.13107,-0.68753,900
225,1.013,-0.122,-0.043,-0.122,0.061,0.0,-111.033,-82.645,-103.266,-25.513,-4.84,-5.033,23.42,-0.16306,-0.67722,0.25348,-0.67111,897,0.891,0.044,0.462,0.0,0.0,0.183,5.4,-62.567,-116.4,-26.593,-7.66,5.753,25.07,0.47064,-0.41968,-0.30774,-0.71243,903,0.833,-0.037,0.542,-0.061,-0.061,0.244,-3.702,-56.887,-164.724,-23.293,-7.807,-13.26,30.25,-0.10083,0.47586,0.03485,0.87296,899,0.985,-0.057,0.001,0.0,0.244,-0.122,-85.408,-86.66,-69.846,-28.98,-6.92,3.64,29.21,0.17184,-0.69315,-0.13107,-0.68753,901
226,1.014,-0.122,-0.045,-0.061,-0.061,0.0,-111.022,-82.65,-103.26,-25.513,-4.84,-5.033,23.42,-0.16306,-0.67722,0.25348,-0.67111,906,0.892,0.045,0.461,0.244,-0.061,0.183,5.4,-62.567,-116.4,-26.593,-7.66,5.753,25.07,0.47064,-0.41968,-0.30774,-0.71243,904,0.834,-0.034,0.542,0.244,-0.183,0.183,-3.702,-56.893,-164.751,-23.293,-7.807,-13.26,30.25,-0.10083,0.47586,0.03485,0.87296,908,0.984,-0.059,0.0,0.061,0.305,-0.122,-85.347,-86.66,-69.911,-28.98,-6.92,3.64,29.21,0.17184,-0.69315,-0.13107,-0.68753,910
227,1.015,-0.123,-0.047,0.0,-0.183,0.0,-111.033,-82.645,-103.239,-25.513,-4.84,-5.033,23.42,-0.16306,-0.67722,0.25348,-0.67111,907,0.891,0.044,0.46,0.061,0.0,0.244,5.394,-62.567,-116.395,-26.593,-7.66,5.753,25.07,0.47064,-0.41968,-0.30774,-0.71243,905,0.833,-0.035,0.542,0.061,0.0,0.244,-3.708,-56.893,-164.745,-23.293,-7.807,-13.26,30.25,-0.10083,0.47586,0.03485,0.87296,909,0.985,-0.059,0.0,0.122,0.122,-0.122,-85.309,-86.666,-69.961,-28.98,-6.92,3.64,29.21,0.17184,-0.69315,-0.13107,-0.68753,911
228,1.013,-0.123,-0.048,0.0,-0.122,0.0,-111.044,-82.645,-103.222,-25.513,-4.84,-5.033,23.42,-0.16306,-0.67722,0.25348,-0.67111,918,0.89,0.045,0.461,0.061,0.0,0.244,5.389,-62.567,-116.389,-26.593,-7.66,5.753,25.07,0.47064,-0.41968,-0.30774,-0.71243,916,0.832,-0.036,0.541,0.0,0.122,0.305,-3.719,-56.887,-164.707,-23.293,-7.807,-13.26,30.25,-0.10147,0.47562,0.035,0.87302,912,0.984,-0.057,-0.001,0.0,0.061,-0.122,-85.314,-86.666,-69.966,-28.98,-6.92,3.64,29.21,0.17184,-0.69315,-0.13107,-0.68753,914
229,1.013,-0.122,-0.048,0.0,0.0,0.0,-111.044,-82.645,-103.217,-25.513,-4.84,-5.033,23.42,-0.16306,-0.67722,0.25348,-0.67111,919,0.891,0.047,0.461,0.122,-0.061,0.244,5.383,-62.567,-116.389,-26.593,-7.66,5.753,25.07,0.47064,-0.41968,-0.30774,-0.71243,917,0.833,-0.034,0.542,0.0,0.061,0.244,-3.724,-56.887,-164.669,-23.293,-7.807,-13.26,30.25,-0.10147,0.47562,0.035,0.87302,913,0.984,-0.058,0.0,0.0,0.061,-0.061,-85.342,-86.666,-69.955,-28.98,-6.92,3.64,29.21,0.17184,-0.69315,-0.13107,-0.68753,915
230,1.014,-0.122,-0.047,-0.061,-0.061,0.0,-111.044,-82.645,-103.211,-25.513,-4.84,-5.033,23.42,-0.16306,-0.67722,0.25348,-0.67111,924,0.892,0.045,0.46,0.122,-0.183,0.305,5.383,-62.567,-116.384,-26.593,-7.66,5.753,25.07,0.47064,-0.41968,-0.30774,-0.71243,926,0.833,-0.034,0.54,0.061,-0.122,0.244,-3.73,-56.887,-164.608,-23.293,-7.807,-13.26,30.25,-0.10147,0.47562,0.035,0.87302,920,0.986,-0.06,0.0,0.0,0.183,0.0,-85.347,-86.666,-69.972,-28.98,-6.92,3.64,29.21,0.17184,-0.69315,-0.13107,-0.68753,922
231,1.014,-0.123,-0.045,0.0,-0.061,0.0,-111.05,-82.645,-103.2,-25.513,-4.84,-5.033,23.42,-0.16306,-0.67722,0.25348,-0.67111,925,0.893,0.043,0.46,0.244,-0.122,0.427,5.372,-62.573,-116.373,-26.593,-7.66,5.753,25.07,0.47064,-0.41968,-0.30774,-0.71243,927,0.835,-0.035,0.54,0.061,-0.061,0.427,-3.741,-56.887,-164.531,-23.293,-7.807,-13.26,30.25,-0.10147,0.47562,0.035,0.87302,921,0.987,-0.059,0.0,0.244,0.244,0.0,-85.32,-86.666,-70.021,-28.98,-6.92,3.64,29.21,0.17184,-0.69315,-0.13107,-0.68753,923
232,1.014,-0.123,-0.046,0.183,0.0,0.0,-111.044,-82.645,-103.2,-25.513,-4.84,-5.033,23.42,-0.16306,-0.67722,0.25348,-0.67111,934,0.892,0.044,0.462,0.183,0.0,0.305,5.367,-62.573,-116.362,-26.547,-7.62,5.007,25.07,0.47064,-0.41968,-0.30774,-0.71243,932,0.834,-0.037,0.541,0.0,0.061,0.427,-3.752,-56.887,-164.482,-23.293,-7.807,-13.26,30.25,-0.10147,0.47562,0.035,0.87302,930,0.986,-0.057,0.001,0.244,0.244,0.0,-85.281,-86.66,-70.076,-28.98,-6.92,3.64,29.21,0.17184,-0.69315,-0.13107,-0.68753,928
233,1.013,-0.122,-0.045,0.183,0.0,0.0,-111.039,-82.645,-103.2,-25.513,-4.84,-5.033,23.42,-0.16306,-0.67722,0.25348,-0.67111,935,0.892,0.043,0.461,0.183,0.061,0.0,5.372,-62.573,-116.367,-26.547,-7.62,5.007,25.07,0.47064,-0.41968,-0.30774,-0.71243,933,0.834,-0.037,0.541,0.061,0.244,0.183,-3.757,-56.887,-164.454,-23.293,-7.807,-13.26,30.25,-0.10147,0.47562,0.035,0.87302,931,0.985,-0.057,0.0,0.244,0.183,0.0,-85.259,-86.66,-70.115,-28.98,-6.92,3.64,29.21,0.17184,-0.69315,-0.13107,-0.68753,929
234,1.013,-0.122,-0.044,0.061,0.0,0.0,-111.028,-82.645,-103.2,-25.487,-5.02,-6.167,23.42,-0.16306,-0.67722,0.25348,-0.67111,938,0.891,0.044,0.461,0.244,0.0,-0.061,5.378,-62.567,-116.373,-26.547,-7.62,5.007,25.07,0.47064,-0.41968,-0.30774,-0.71243,942,0.833,-0.038,0.541,0.183,0.183,0.0,-3.752,-56.882,-164.399,-23.293,-7.807,-13.26,30.25,-0.10147,0.47562,0.035,0.87302,936,0.985,-0.057,0.001,0.061,0.244,0.0,-85.226,-86.66,-70.164,-28.98,-6.92,3.64,29.21,0.17184,-0.69315,-0.13107,-0.68753,940
