Index,L5_Acceleration X(g),L5_Acceleration Y(g),L5_Acceleration Z(g),L5_Angular velocity X(°/s),L5_Angular velocity Y(°/s),L5_Angular velocity Z(°/s),L5_Angle X(°),L5_Angle Y(°),L5_Angle Z(°),L5_Magnetic field X(ʯt),L5_Magnetic field Y(ʯt),L5_Magnetic field Z(ʯt),L5_Temperature(℃),L5_Quaternions 0(),L5_Quaternions 1(),L5_Quaternions 2(),L5_Quaternions 3(),L5___orig_idx,T4_Acceleration X(g),T4_Acceleration Y(g),T4_Acceleration Z(g),T4_Angular velocity X(°/s),T4_Angular velocity Y(°/s),T4_Angular velocity Z(°/s),T4_Angle X(°),T4_Angle Y(°),T4_Angle Z(°),T4_Magnetic field X(ʯt),T4_Magnetic field Y(ʯt),T4_Magnetic field Z(ʯt),T4_Temperature(℃),T4_Quaternions 0(),T4_Quaternions 1(),T4_Quaternions 2(),T4_Quaternions 3(),T4___orig_idx,C7_Acceleration X(g),C7_Acceleration Y(g),C7_Acceleration Z(g),C7_Angular velocity X(°/s),C7_Angular velocity Y(°/s),C7_Angular velocity Z(°/s),C7_Angle X(°),C7_Angle Y(°),C7_Angle Z(°),C7_Magnetic field X(ʯt),C7_Magnetic field Y(ʯt),C7_Magnetic field Z(ʯt),C7_Temperature(℃),C7_Quaternions 0(),C7_Quaternions 1(),C7_Quaternions 2(),C7_Quaternions 3(),C7___orig_idx,T12_Acceleration X(g),T12_Acceleration Y(g),T12_Acceleration Z(g),T12_Angular velocity X(°/s),T12_Angular velocity Y(°/s),T12_Angular velocity Z(°/s),T12_Angle X(°),T12_Angle Y(°),T12_Angle Z(°),T12_Magnetic field X(ʯt),T12_Magnetic field Y(ʯt),T12_Magnetic field Z(ʯt),T12_Temperature(℃),T12_Quaternions 0(),T12_Quaternions 1(),T12_Quaternions 2(),T12_Quaternions 3(),T12___orig_idx
0,0.941,-0.073,0.388,0.0,0.427,0.0,-10.92,-67.385,-176.171,-26.473,-8.527,-12.273,26.79,0.02487,0.55505,-0.06149,0.8291,0,0.911,-0.021,0.423,0.488,1.953,-0.488,-3.351,-64.951,-122.454,-26.013,-10.013,4.507,25.82,0.39035,-0.48587,-0.23694,-0.74518,4,0.415,-0.055,0.909,0.854,1.953,-0.183,-3.598,-24.516,165.454,-11.12,-9.58,-31.053,26.67,0.13,0.21054,-0.05771,0.96713,6,0.988,0.038,-0.014,-0.366,1.526,-0.427,107.617,-87.737,81.81,-30.307,-12.353,2.407,29.06,-0.04605,0.70987,0.07269,0.69897,2
1,0.942,-0.075,0.386,0.0,0.61,-0.122,-10.915,-67.374,-176.188,-26.473,-8.527,-12.273,26.79,0.02487,0.55505,-0.06149,0.8291,1,0.912,-0.021,0.425,0.244,2.014,-0.61,-3.312,-64.913,-122.487,-26.013,-10.013,4.507,25.82,0.39035,-0.48587,-0.23694,-0.74518,5,0.413,-0.055,0.909,0.854,1.526,-0.122,-3.582,-24.483,165.449,-11.12,-9.58,-31.053,26.67,0.13,0.21054,-0.05771,0.96713,7,0.991,0.036,-0.01,-0.183,1.831,-0.183,106.793,-87.742,82.623,-30.307,-12.353,2.407,29.06,-0.04605,0.70987,0.07269,0.69897,3
2,0.943,-0.077,0.387,-0.122,0.61,-0.244,-10.898,-67.363,-176.215,-26.473,-8.527,-12.273,26.79,0.02515,0.5545,-0.0607,0.82953,10,0.91,-0.023,0.425,0.366,2.014,-0.549,-3.279,-64.874,-122.514,-25.967,-9.88,4.047,25.82,0.39035,-0.48587,-0.23694,-0.74518,12,0.412,-0.057,0.909,0.0,1.221,-0.305,-3.571,-24.456,165.443,-11.12,-9.58,-31.053,26.67,0.13,0.21054,-0.05771,0.96713,16,0.988,0.035,-0.01,0.061,2.014,-0.122,105.87,-87.753,83.551,-30.307,-12.353,2.407,29.06,-0.04605,0.70987,0.07269,0.69897,8
3,0.943,-0.076,0.387,-0.122,0.427,-0.305,-10.887,-67.357,-176.226,-26.473,-8.527,-12.273,26.79,0.02515,0.5545,-0.0607,0.82953,11,0.909,-0.025,0.426,0.0,2.136,-0.549,-3.252,-64.836,-122.547,-25.967,-9.88,4.047,25.82,0.39035,-0.48587,-0.23694,-0.74518,13,0.411,-0.058,0.904,0.061,1.16,-0.305,-3.565,-24.434,165.454,-11.12,-9.58,-31.053,26.67,0.13,0.21054,-0.05771,0.96713,17,0.986,0.035,-0.009,0.0,1.892,-0.183,104.93,-87.759,84.485,-30.307,-12.353,2.407,29.06,-0.04605,0.70987,0.07269,0.69897,9
4,0.943,-0.075,0.389,0.0,0.305,-0.305,-10.871,-67.346,-176.21,-26.473,-8.527,-12.273,26.79,0.02515,0.5545,-0.0607,0.82953,14,0.907,-0.025,0.426,-0.183,2.014,-0.549,-3.224,-64.797,-122.569,-25.967,-9.88,4.047,25.82,0.39035,-0.48587,-0.23694,-0.74518,22,0.411,-0.058,0.903,0.488,0.793,-0.366,-3.554,-24.417,165.471,-11.18,-9.893,-31.833,26.67,0.13,0.21054,-0.05771,0.96713,24,0.985,0.034,-0.009,-0.488,1.892,-0.183,104.013,-87.764,85.375,-30.307,-12.353,2.407,29.06,-0.04449,0.70709,0.07169,0.70197,18
5,0.938,-0.076,0.389,0.061,0.61,-0.427,-10.849,-67.341,-176.226,-26.473,-8.527,-12.273,26.79,0.02515,0.5545,-0.0607,0.82953,15,0.906,-0.024,0.427,-0.305,2.197,-0.549,-3.203,-64.759,-122.585,-25.967,-9.88,4.047,25.82,0.39035,-0.48587,-0.23694,-0.74518,23,0.411,-0.058,0.905,0.854,1.343,-0.366,-3.538,-24.401,165.471,-11.18,-9.893,-31.833,26.67,0.13,0.21054,-0.05771,0.96713,25,0.983,0.034,-0.004,-0.732,1.77,-0.061,103.129,-87.77,86.226,-30.307,-12.353,2.407,29.06,-0.04449,0.70709,0.07169,0.70197,19
6,0.937,-0.075,0.388,0.0,0.793,-0.488,-10.822,-67.33,-176.248,-26.473,-8.527,-12.273,26.79,0.02515,0.5545,-0.0607,0.82953,20,0.907,-0.024,0.429,-0.427,2.319,-0.488,-3.186,-64.715,-122.602,-25.967,-9.88,4.047,25.82,0.39236,-0.48062,-0.2363,-0.74774,26,0.408,-0.056,0.907,0.427,2.075,-0.305,-3.527,-24.362,165.498,-11.18,-9.893,-31.833,26.67,0.13,0.21054,-0.05771,0.96713,32,0.983,0.035,-0.002,-0.61,1.77,0.0,102.25,-87.781,87.072,-30.307,-12.353,2.407,29.06,-0.04449,0.70709,0.07169,0.70197,28
7,0.94,-0.074,0.389,-0.183,0.488,-0.488,-10.794,-67.313,-176.265,-26.473,-8.527,-12.273,26.79,0.02515,0.5545,-0.0607,0.82953,21,0.906,-0.025,0.428,-0.305,2.258,-0.427,-3.17,-64.671,-122.613,-25.967,-9.88,4.047,25.82,0.39236,-0.48062,-0.2363,-0.74774,27,0.407,-0.058,0.906,-0.183,1.892,-0.244,-3.521,-24.329,165.531,-11.18,-9.893,-31.833,26.67,0.13,0.21054,-0.05771,0.96713,33,0.985,0.035,0.0,-0.366,1.892,-0.061,101.305,-87.786,88.006,-30.307,-12.353,2.407,29.06,-0.04449,0.70709,0.07169,0.70197,29
8,0.942,-0.073,0.389,-0.244,0.122,-0.366,-10.778,-67.308,-176.281,-26.473,-8.527,-12.273,26.79,0.02515,0.5545,-0.0607,0.82953,30,0.904,-0.027,0.43,-0.183,2.197,-0.244,-3.164,-64.633,-122.618,-25.967,-9.88,4.047,25.82,0.39236,-0.48062,-0.2363,-0.74774,34,0.407,-0.059,0.907,-0.732,2.197,-0.061,-3.532,-24.285,165.553,-11.18,-9.893,-31.833,26.67,0.12936,0.20508,-0.05634,0.96848,36,0.986,0.032,-0.005,-0.305,2.014,-0.305,100.272,-87.792,89.011,-30.307,-12.353,2.407,29.06,-0.04449,0.70709,0.07169,0.70197,38
9,0.942,-0.076,0.389,-0.061,0.061,-0.366,-10.767,-67.308,-176.303,-26.473,-8.527,-12.273,26.79,0.02515,0.5545,-0.0607,0.82953,31,0.905,-0.028,0.433,-0.122,2.441,-0.183,-3.153,-64.583,-122.613,-25.967,-9.88,4.047,25.82,0.39236,-0.48062,-0.2363,-0.74774,35,0.411,-0.061,0.908,-0.244,2.686,0.244,-3.543,-24.236,165.569,-11.18,-9.893,-31.833,26.67,0.12936,0.20508,-0.05634,0.96848,37,0.986,0.031,-0.008,-0.488,1.831,-0.427,99.283,-87.792,89.989,-30.307,-12.353,2.407,29.06,-0.04449,0.70709,0.07169,0.70197,39
10,0.941,-0.076,0.391,0.0,0.366,-0.427,-10.75,-67.302,-176.347,-26.473,-8.527,-12.273,26.79,0.02515,0.5545,-0.0607,0.82953,40,0.908,-0.027,0.433,0.0,2.502,-0.061,-3.148,-64.534,-122.596,-25.967,-9.88,4.047,25.82,0.39236,-0.48062,-0.2363,-0.74774,44,0.412,-0.059,0.908,0.366,2.502,0.549,-3.543,-24.186,165.575,-11.18,-9.893,-31.833,26.67,0.12936,0.20508,-0.05634,0.96848,46,0.986,0.033,-0.002,-0.061,1.831,-0.427,98.328,-87.792,90.95,-30.307,-12.353,2.407,29.06,-0.04449,0.70709,0.07169,0.70197,42
11,0.938,-0.075,0.39,0.0,0.732,-0.427,-10.728,-67.291,-176.385,-26.473,-8.527,-12.273,26.79,0.02515,0.5545,-0.0607,0.82953,41,0.909,-0.025,0.431,0.061,2.625,0.0,-3.148,-64.484,-122.585,-25.967,-9.88,4.047,25.82,0.39236,-0.48062,-0.2363,-0.74774,45,0.41,-0.062,0.907,0.793,2.441,0.61,-3.538,-24.137,165.586,-11.18,-9.893,-31.833,26.67,0.12936,0.20508,-0.05634,0.96848,47,0.986,0.036,0.002,0.122,1.526,-0.427,97.493,-87.792,91.774,-30.307,-12.353,2.407,29.06,-0.04449,0.70709,0.07169,0.70197,43
12,0.938,-0.074,0.389,-0.183,0.366,-0.427,-10.706,-67.286,-176.402,-26.473,-8.527,-12.273,26.79,0.02515,0.5545,-0.0607,0.82953,50,0.908,-0.026,0.431,0.305,2.563,0.0,-3.137,-64.435,-122.585,-25.967,-9.88,4.047,25.82,0.39236,-0.48062,-0.2363,-0.74774,48,0.406,-0.059,0.906,1.221,2.686,0.488,-3.521,-24.088,165.591,-11.18,-9.893,-31.833,26.67,0.12936,0.20508,-0.05634,0.96848,54,0.985,0.037,0.002,0.61,1.831,-0.427,96.57,-87.792,92.686,-30.307,-12.353,2.407,29.06,-0.04449,0.70709,0.07169,0.70197,52
13,0.941,-0.074,0.388,-0.122,-0.122,-0.305,-10.69,-67.28,-176.407,-26.473,-8.527,-12.273,26.79,0.02515,0.5545,-0.0607,0.82953,51,0.904,-0.026,0.433,0.427,2.808,-0.244,-3.12,-64.38,-122.585,-25.967,-9.88,4.047,25.82,0.39236,-0.48062,-0.2363,-0.74774,49,0.405,-0.059,0.907,1.16,2.869,0.549,-3.499,-24.033,165.608,-11.18,-9.893,-31.833,26.67,0.12936,0.20508,-0.05634,0.96848,55,0.986,0.038,-0.003,0.793,2.014,-0.366,95.537,-87.786,93.686,-30.307,-12.353,2.407,29.06,-0.04449,0.70709,0.07169,0.70197,53
14,0.943,-0.073,0.39,0.061,0.0,-0.183,-10.684,-67.28,-176.402,-26.473,-8.527,-12.273,26.79,0.02515,0.5545,-0.0607,0.82953,60,0.904,-0.025,0.434,0.549,3.113,-0.305,-3.093,-64.325,-122.591,-25.967,-9.88,4.047,25.82,0.39236,-0.48062,-0.2363,-0.74774,56,0.405,-0.055,0.911,1.099,3.296,0.305,-3.483,-23.972,165.619,-11.18,-9.893,-31.833,26.67,0.12936,0.20508,-0.05634,0.96848,62,0.989,0.035,-0.004,0.732,1.831,-0.366,94.57,-87.786,94.625,-30.307,-12.353,2.407,29.06,-0.04449,0.70709,0.07169,0.70197,58
15,0.943,-0.072,0.392,0.244,0.244,-0.183,-10.673,-67.28,-176.429,-26.473,-8.527,-12.273,26.79,0.02515,0.5545,-0.0607,0.82953,61,0.907,-0.022,0.434,0.427,2.991,-0.305,-3.065,-64.265,-122.596,-25.967,-9.88,4.047,25.82,0.39236,-0.48062,-0.2363,-0.74774,57,0.406,-0.056,0.912,0.793,3.296,-0.122,-3.466,-23.912,165.624,-11.18,-9.893,-31.833,26.67,0.12936,0.20508,-0.05634,0.96848,63,0.988,0.036,-0.003,0.427,2.014,-0.488,93.565,-87.781,95.625,-30.307,-12.353,2.407,29.06,-0.04449,0.70709,0.07169,0.70197,59
16,0.942,-0.071,0.391,0.122,0.549,-0.305,-10.657,-67.269,-176.479,-26.44,-8.973,-12.873,26.79,0.02515,0.5545,-0.0607,0.82953,66,0.905,-0.022,0.435,0.061,2.563,-0.61,-3.043,-64.215,-122.607,-25.967,-9.88,4.047,25.82,0.39236,-0.48062,-0.2363,-0.74774,64,0.404,-0.055,0.91,0.671,2.808,-0.183,-3.45,-23.857,165.619,-11.18,-9.893,-31.833,26.67,0.12936,0.20508,-0.05634,0.96848,68,0.987,0.041,0.0,0.427,2.258,-0.305,92.455,-87.781,96.713,-30.533,-12.3,1.42,29.06,-0.04449,0.70709,0.07169,0.70197,70
17,0.941,-0.07,0.389,0.0,0.793,-0.366,-10.635,-67.258,-176.539,-26.44,-8.973,-12.873,26.79,0.02515,0.5545,-0.0607,0.82953,67,0.902,-0.022,0.437,0.244,2.93,-0.732,-3.01,-64.166,-122.629,-25.967,-9.88,4.047,25.82,0.39236,-0.48062,-0.2363,-0.74774,65,0.401,-0.054,0.908,0.793,2.258,-0.061,-3.439,-23.813,165.63,-11.18,-9.893,-31.833,26.67,0.12936,0.20508,-0.05634,0.96848,69,0.986,0.041,0.001,0.427,2.075,-0.244,91.395,-87.775,97.751,-30.533,-12.3,1.42,29.06,-0.04449,0.70709,0.07169,0.70197,71
18,0.942,-0.07,0.386,0.0,0.549,-0.366,-10.613,-67.242,-176.578,-26.44,-8.973,-12.873,26.79,0.02515,0.5545,-0.0607,0.82953,74,0.899,-0.023,0.438,0.244,3.174,-0.732,-2.972,-64.111,-122.662,-25.967,-9.88,4.047,25.82,0.39236,-0.48062,-0.2363,-0.74774,80,0.399,-0.056,0.908,0.854,2.625,0.061,-3.422,-23.763,165.641,-11.18,-9.893,-31.833,26.67,0.12936,0.20508,-0.05634,0.96848,76,0.984,0.038,0.0,0.244,1.77,-0.366,90.472,-87.77,98.674,-30.533,-12.3,1.42,29.06,-0.04266,0.70364,0.07007,0.70572,72
19,0.942,-0.071,0.386,0.061,0.366,-0.244,-10.591,-67.236,-176.605,-26.44,-8.973,-12.873,26.79,0.02515,0.5545,-0.0607,0.82953,75,0.899,-0.022,0.438,0.061,2.991,-0.61,-2.933,-64.056,-122.701,-25.967,-9.88,4.047,25.82,0.39236,-0.48062,-0.2363,-0.74774,81,0.396,-0.054,0.911,0.793,3.235,0.0,-3.406,-23.703,165.635,-11.18,-9.893,-31.833,26.67,0.12936,0.20508,-0.05634,0.96848,77,0.984,0.037,0.0,-0.061,1.648,-0.488,89.637,-87.764,99.503,-30.533,-12.3,1.42,29.06,-0.04266,0.70364,0.07007,0.70572,73
20,0.942,-0.071,0.389,0.122,0.366,-0.244,-10.574,-67.231,-176.644,-26.44,-8.973,-12.873,26.79,0.02667,0.55325,-0.06055,0.83032,78,0.898,-0.02,0.441,0.0,2.747,-0.549,-2.906,-64.001,-122.728,-25.953,-9.7,3.92,25.82,0.39236,-0.48062,-0.2363,-0.74774,84,0.394,-0.053,0.913,0.61,3.418,-0.122,-3.389,-23.643,165.635,-11.18,-9.893,-31.833,26.67,0.12936,0.20508,-0.05634,0.96848,86,0.985,0.038,-0.001,-0.061,1.831,-0.61,88.764,-87.748,100.393,-30.533,-12.3,1.42,29.06,-0.04266,0.70364,0.07007,0.70572,82
21,0.941,-0.071,0.391,0.0,0.793,-0.244,-10.558,-67.22,-176.682,-26.44,-8.973,-12.873,26.79,0.02667,0.55325,-0.06055,0.83032,79,0.898,-0.019,0.443,-0.122,2.563,-0.671,-2.878,-63.946,-122.745,-25.953,-9.7,3.92,25.82,0.39236,-0.48062,-0.2363,-0.74774,85,0.394,-0.053,0.913,0.732,3.601,-0.488,-3.373,-23.571,165.641,-11.18,-9.893,-31.833,26.67,0.12936,0.20508,-0.05634,0.96848,87,0.985,0.04,0.004,-0.061,1.709,-0.549,87.924,-87.737,101.245,-30.533,-12.3,1.42,29.06,-0.04266,0.70364,0.07007,0.70572,83
22,0.94,-0.072,0.39,-0.061,1.038,-0.366,-10.536,-67.203,-176.726,-26.44,-8.973,-12.873,26.79,0.02667,0.55325,-0.06055,0.83032,88,0.898,-0.021,0.444,-0.122,2.441,-0.732,-2.845,-63.902,-122.761,-25.953,-9.7,3.92,25.82,0.39236,-0.48062,-0.2363,-0.74774,92,0.392,-0.054,0.915,0.244,3.54,-0.488,-3.362,-23.505,165.646,-10.8,-9.68,-31.707,26.67,0.12936,0.20508,-0.05634,0.96848,98,0.986,0.038,0.004,-0.061,1.77,-0.427,87.072,-87.731,102.101,-30.533,-12.3,1.42,29.06,-0.04266,0.70364,0.07007,0.70572,90
23,0.941,-0.074,0.389,-0.061,0.854,-0.488,-10.508,-67.187,-176.759,-26.44,-8.973,-12.873,26.79,0.02667,0.55325,-0.06055,0.83032,89,0.898,-0.023,0.444,-0.183,2.38,-0.671,-2.818,-63.853,-122.789,-25.953,-9.7,3.92,25.82,0.39236,-0.48062,-0.2363,-0.74774,93,0.391,-0.056,0.914,-0.244,3.418,-0.427,-3.356,-23.439,165.646,-10.8,-9.68,-31.707,26.67,0.12936,0.20508,-0.05634,0.96848,99,0.985,0.036,0.004,-0.366,1.648,-0.488,86.259,-87.72,102.898,-30.533,-12.3,1.42,29.06,-0.04266,0.70364,0.07007,0.70572,91
24,0.94,-0.074,0.39,-0.061,0.671,-0.488,-10.481,-67.17,-176.797,-26.44,-8.973,-12.873,26.79,0.02667,0.55325,-0.06055,0.83032,96,0.899,-0.022,0.444,-0.122,2.38,-0.671,-2.791,-63.809,-122.805,-25.953,-9.7,3.92,25.82,0.39481,-0.47397,-0.23474,-0.75116,94,0.391,-0.056,0.913,0.0,2.502,-0.305,-3.356,-23.39,165.635,-10.8,-9.68,-31.707,26.67,0.12827,0.19742,-0.0538,0.97034,104,0.984,0.036,0.005,-0.549,1.526,-0.488,85.523,-87.709,103.601,-30.533,-12.3,1.42,29.06,-0.04266,0.70364,0.07007,0.70572,100
25,0.939,-0.073,0.392,-0.122,0.549,-0.549,-10.453,-67.159,-176.819,-26.44,-8.973,-12.873,26.79,0.02667,0.55325,-0.06055,0.83032,97,0.9,-0.023,0.445,0.0,2.319,-0.671,-2.763,-63.765,-122.838,-25.953,-9.7,3.92,25.82,0.39481,-0.47397,-0.23474,-0.75116,95,0.392,-0.057,0.914,0.732,2.319,-0.061,-3.345,-23.34,165.624,-10.8,-9.68,-31.707,26.67,0.12827,0.19742,-0.0538,0.97034,105,0.986,0.037,0.005,-0.732,1.282,-0.427,84.902,-87.698,104.189,-30.533,-12.3,1.42,29.06,-0.04266,0.70364,0.07007,0.70572,101
26,0.938,-0.072,0.394,-0.122,0.793,-0.61,-10.426,-67.148,-176.841,-26.44,-8.973,-12.873,26.79,0.02667,0.55325,-0.06055,0.83032,102,0.9,-0.023,0.446,0.183,2.197,-0.549,-2.73,-63.721,-122.866,-25.953,-9.7,3.92,25.82,0.39481,-0.47397,-0.23474,-0.75116,106,0.392,-0.054,0.914,0.977,2.441,0.0,-3.329,-23.297,165.63,-10.8,-9.68,-31.707,26.67,0.12827,0.19742,-0.0538,0.97034,112,0.987,0.037,0.008,-0.916,1.282,-0.427,84.276,-87.687,104.788,-30.533,-12.3,1.42,29.06,-0.04266,0.70364,0.07007,0.70572,108
27,0.938,-0.073,0.395,-0.122,0.854,-0.671,-10.393,-67.137,-176.819,-26.44,-8.973,-12.873,26.79,0.02667,0.55325,-0.06055,0.83032,103,0.897,-0.024,0.447,0.427,2.136,-0.183,-2.708,-63.677,-122.877,-25.953,-9.7,3.92,25.82,0.39481,-0.47397,-0.23474,-0.75116,107,0.389,-0.053,0.915,1.038,2.38,0.366,-3.312,-23.247,165.646,-10.8,-9.68,-31.707,26.67,0.12827,0.19742,-0.0538,0.97034,113,0.988,0.035,0.007,-1.099,1.343,-0.488,83.622,-87.676,105.414,-30.533,-12.3,1.42,29.06,-0.04266,0.70364,0.07007,0.70572,109
28,0.939,-0.074,0.393,-0.122,0.549,-0.61,-10.36,-67.126,-176.781,-26.44,-8.973,-12.873,26.79,0.02667,0.55325,-0.06055,0.83032,110,0.894,-0.025,0.448,0.793,2.38,0.061,-2.692,-63.638,-122.877,-25.953,-9.7,3.92,25.82,0.39481,-0.47397,-0.23474,-0.75116,116,0.384,-0.056,0.916,0.549,2.258,0.793,-3.301,-23.203,165.657,-10.8,-9.68,-31.707,26.67,0.12827,0.19742,-0.0538,0.97034,118,0.988,0.034,0.009,-0.854,1.709,-0.549,82.793,-87.665,106.216,-30.533,-12.3,1.42,29.06,-0.04266,0.70364,0.07007,0.70572,114
29,0.94,-0.073,0.391,-0.183,0.183,-0.549,-10.338,-67.115,-176.737,-26.44,-8.973,-12.873,26.79,0.02667,0.55325,-0.06055,0.83032,111,0.892,-0.021,0.451,0.549,2.502,0.122,-2.675,-63.589,-122.86,-25.953,-9.7,3.92,25.82,0.39481,-0.47397,-0.23474,-0.75116,117,0.383,-0.056,0.915,0.305,2.136,0.732,-3.301,-23.159,165.696,-10.8,-9.68,-31.707,26.67,0.12827,0.19742,-0.0538,0.97034,119,0.983,0.034,0.006,-0.122,2.075,-0.549,81.815,-87.649,107.194,-30.533,-12.3,1.42,29.06,-0.04266,0.70364,0.07007,0.70572,115
30,0.939,-0.072,0.392,-0.244,0.061,-0.488,-10.316,-67.115,-176.693,-26.44,-8.973,-12.873,26.79,0.02667,0.55325,-0.06055,0.83032,120,0.893,-0.018,0.452,0.244,2.197,0.0,-2.67,-63.539,-122.844,-25.953,-9.7,3.92,25.82,0.39481,-0.47397,-0.23474,-0.75116,122,0.382,-0.053,0.919,0.305,2.197,0.366,-3.301,-23.115,165.756,-10.8,-9.68,-31.707,26.67,0.12827,0.19742,-0.0538,0.97034,126,0.981,0.038,0.008,0.244,2.075,-0.549,80.859,-87.638,108.177,-30.533,-12.3,1.42,29.06,-0.04266,0.70364,0.07007,0.70572,124
31,0.938,-0.072,0.394,-0.244,0.183,-0.427,-10.305,-67.115,-176.644,-26.44,-8.973,-12.873,26.79,0.02667,0.55325,-0.06055,0.83032,121,0.892,-0.019,0.453,0.244,2.014,-0.122,-2.664,-63.495,-122.822,-25.953,-9.7,3.92,25.82,0.39481,-0.47397,-0.23474,-0.75116,123,0.38,-0.053,0.92,0.488,1.892,0.244,-3.296,-23.077,165.795,-10.8,-9.68,-31.707,26.67,0.12827,0.19742,-0.0538,0.97034,127,0.983,0.04,0.012,0.0,1.892,-0.549,79.997,-87.621,109.072,-30.533,-12.3,1.42,29.06,-0.04266,0.70364,0.07007,0.70572,125
32,0.939,-0.071,0.392,-0.122,0.366,-0.427,-10.289,-67.11,-176.594,-26.44,-8.973,-12.873,26.79,0.02667,0.55325,-0.06055,0.83032,132,0.892,-0.021,0.454,0.305,1.831,-0.244,-2.648,-63.457,-122.816,-25.953,-9.7,3.92,25.82,0.39481,-0.47397,-0.23474,-0.75116,128,0.38,-0.054,0.918,0.305,1.648,0.183,-3.29,-23.038,165.844,-10.8,-9.68,-31.707,26.67,0.12827,0.19742,-0.0538,0.97034,134,0.983,0.04,0.012,-0.488,1.465,-0.427,79.316,-87.61,109.77,-30.473,-12.413,2.193,29.06,-0.04266,0.70364,0.07007,0.70572,130
33,0.94,-0.071,0.391,-0.183,0.244,-0.549,-10.267,-67.104,-176.556,-26.44,-8.973,-12.873,26.79,0.02667,0.55325,-0.06055,0.83032,133,0.892,-0.021,0.453,0.122,1.526,-0.183,-2.631,-63.424,-122.827,-25.953,-9.7,3.92,25.82,0.39481,-0.47397,-0.23474,-0.75116,129,0.382,-0.055,0.917,0.366,1.77,0.183,-3.285,-23.0,165.888,-10.8,-9.68,-31.707,26.67,0.12827,0.19742,-0.0538,0.97034,135,0.983,0.039,0.013,-0.916,1.16,-0.488,78.777,-87.599,110.325,-30.473,-12.413,2.193,29.06,-0.04266,0.70364,0.07007,0.70572,131
34,0.941,-0.069,0.39,-0.305,0.0,-0.61,-10.245,-67.104,-176.512,-25.967,-9.267,-11.907,26.79,0.02667,0.55325,-0.06055,0.83032,136,0.894,-0.022,0.452,0.305,1.404,-0.183,-2.62,-63.391,-122.833,-25.953,-9.7,3.92,25.82,0.39481,-0.47397,-0.23474,-0.75116,138,0.383,-0.057,0.916,0.793,1.526,0.488,-3.279,-22.967,165.954,-10.8,-9.68,-31.707,26.67,0.12827,0.19742,-0.0538,0.97034,142,0.983,0.04,0.01,-0.793,0.854,-0.549,78.393,-87.583,110.72,-30.473,-12.413,2.193,29.06,-0.04187,0.70056,0.07043,0.7088,140
35,0.939,-0.067,0.391,-0.244,0.183,-0.488,-10.228,-67.104,-176.473,-25.967,-9.267,-11.907,26.79,0.02667,0.55325,-0.06055,0.83032,137,0.896,-0.021,0.452,0.61,1.221,-0.244,-2.604,-63.364,-122.844,-25.953,-9.7,3.92,25.82,0.39481,-0.47397,-0.23474,-0.75116,139,0.386,-0.054,0.915,1.16,0.916,0.549,-3.263,-22.945,166.003,-10.8,-9.68,-31.707,26.67,0.12827,0.19742,-0.0538,0.97034,143,0.984,0.042,0.011,-0.183,0.732,-0.732,78.102,-87.567,111.044,-30.473,-12.413,2.193,29.06,-0.04187,0.70056,0.07043,0.7088,141
36,0.938,-0.067,0.396,-0.061,0.244,-0.366,-10.212,-67.099,-176.424,-25.967,-9.267,-11.907,26.79,0.02667,0.55325,-0.06055,0.83032,146,0.897,-0.018,0.451,0.366,1.221,-0.366,-2.582,-63.336,-122.86,-25.953,-9.7,3.92,25.82,0.39481,-0.47397,-0.23474,-0.75116,144,0.389,-0.052,0.915,0.916,0.732,0.244,-3.246,-22.928,166.042,-10.8,-9.68,-31.707,26.67,0.12827,0.19742,-0.0538,0.97034,152,0.985,0.042,0.007,0.427,0.732,-0.854,77.844,-87.55,111.33,-30.473,-12.413,2.193,29.06,-0.04187,0.70056,0.07043,0.7088,148
37,0.937,-0.07,0.395,0.061,0.732,-0.366,-10.184,-67.088,-176.38,-25.967,-9.267,-11.907,26.79,0.02667,0.55325,-0.06055,0.83032,147,0.898,-0.018,0.45,0.244,1.221,-0.549,-2.554,-63.314,-122.877,-25.953,-9.7,3.92,25.82,0.39481,-0.47397,-0.23474,-0.75116,145,0.387,-0.053,0.916,1.099,0.854,0.0,-3.23,-22.906,166.08,-10.8,-9.68,-31.707,26.67,0.12827,0.19742,-0.0538,0.97034,153,0.986,0.04,0.015,0.305,0.671,-0.916,77.613,-87.528,111.55,-30.473,-12.413,2.193,29.06,-0.04187,0.70056,0.07043,0.7088,149
38,0.938,-0.071,0.395,0.183,0.732,-0.366,-10.162,-67.072,-176.342,-25.967,-9.267,-11.907,26.79,0.02261,0.5524,-0.0564,0.8313,150,0.899,-0.018,0.456,0.488,1.221,-0.671,-2.527,-63.287,-122.91,-25.867,-10.213,3.84,25.82,0.39481,-0.47397,-0.23474,-0.75116,160,0.386,-0.051,0.922,1.77,1.343,0.061,-3.197,-22.885,166.113,-10.867,-9.64,-32.12,26.67,0.12827,0.19742,-0.0538,0.97034,156,0.987,0.041,0.014,0.0,0.854,-0.854,77.283,-87.512,111.852,-30.473,-12.413,2.193,29.06,-0.04187,0.70056,0.07043,0.7088,154
39,0.941,-0.071,0.394,0.061,0.488,-0.366,-10.135,-67.061,-176.298,-25.967,-9.267,-11.907,26.79,0.02261,0.5524,-0.0564,0.8313,151,0.896,-0.015,0.454,0.549,0.854,-0.793,-2.488,-63.265,-122.948,-25.867,-10.213,3.84,25.82,0.39481,-0.47397,-0.23474,-0.75116,161,0.383,-0.048,0.925,1.709,1.404,0.0,-3.164,-22.852,166.146,-10.867,-9.64,-32.12,26.67,0.12827,0.19742,-0.0538,0.97034,157,0.988,0.044,0.012,-0.305,0.854,-0.549,76.921,-87.495,112.187,-30.473,-12.413,2.193,29.06,-0.04187,0.70056,0.07043,0.7088,155
40,0.941,-0.069,0.391,0.0,0.061,-0.366,-10.118,-67.061,-176.248,-25.967,-9.267,-11.907,26.79,0.02261,0.5524,-0.0564,0.8313,158,0.892,-0.017,0.456,0.61,0.854,-0.916,-2.439,-63.248,-123.003,-25.867,-10.213,3.84,25.82,0.39627,-0.46933,-0.23416,-0.75351,164,0.38,-0.049,0.921,0.977,0.793,-0.183,-3.142,-22.835,166.168,-10.867,-9.64,-32.12,26.67,0.12827,0.19742,-0.0538,0.97034,166,0.985,0.045,0.014,-0.366,0.916,-0.244,76.503,-87.49,112.571,-30.473,-12.413,2.193,29.06,-0.04187,0.70056,0.07043,0.7088,162
41,0.941,-0.066,0.388,0.0,-0.122,-0.244,-10.107,-67.061,-176.199,-25.967,-9.267,-11.907,26.79,0.02261,0.5524,-0.0564,0.8313,159,0.89,-0.02,0.455,0.671,0.916,-0.854,-2.39,-63.232,-123.063,-25.867,-10.213,3.84,25.82,0.39627,-0.46933,-0.23416,-0.75351,165,0.379,-0.05,0.918,0.366,0.732,0.0,-3.131,-22.819,166.19,-10.867,-9.64,-32.12,26.67,0.12827,0.19742,-0.0538,0.97034,167,0.983,0.041,0.008,0.061,0.244,-0.488,76.295,-87.479,112.753,-30.473,-12.413,2.193,29.06,-0.04187,0.70056,0.07043,0.7088,163
42,0.94,-0.067,0.389,0.0,-0.122,-0.122,-10.102,-67.061,-176.144,-25.967,-9.267,-11.907,26.79,0.02261,0.5524,-0.0564,0.8313,168,0.888,-0.02,0.454,0.671,0.793,-0.671,-2.346,-63.215,-123.107,-25.867,-10.213,3.84,25.82,0.39627,-0.46933,-0.23416,-0.75351,174,0.378,-0.052,0.915,0.366,0.427,0.0,-3.126,-22.808,166.218,-10.867,-9.64,-32.12,26.67,0.1232,0.19312,-0.05038,0.97205,176,0.981,0.038,0.012,0.0,0.183,-0.671,76.24,-87.468,112.819,-30.473,-12.413,2.193,29.06,-0.04187,0.70056,0.07043,0.7088,170
43,0.938,-0.069,0.392,0.244,-0.122,0.0,-10.096,-67.066,-176.078,-25.967,-9.267,-11.907,26.79,0.02261,0.5524,-0.0564,0.8313,169,0.889,-0.017,0.454,0.488,0.61,-0.549,-2.307,-63.199,-123.14,-25.867,-10.213,3.84,25.82,0.39627,-0.46933,-0.23416,-0.75351,175,0.379,-0.049,0.917,1.343,0.183,0.061,-3.104,-22.797,166.245,-10.867,-9.64,-32.12,26.67,0.1232,0.19312,-0.05038,0.97205,177,0.98,0.042,0.014,0.0,0.183,-0.671,76.218,-87.457,112.863,-30.473,-12.413,2.193,29.06,-0.04187,0.70056,0.07043,0.7088,171
44,0.936,-0.071,0.392,0.244,0.0,-0.061,-10.085,-67.066,-176.017,-25.967,-9.267,-11.907,26.79,0.02261,0.5524,-0.0564,0.8313,172,0.889,-0.014,0.455,0.427,0.183,-0.549,-2.274,-63.188,-123.168,-25.867,-10.213,3.84,25.82,0.39627,-0.46933,-0.23416,-0.75351,178,0.378,-0.047,0.918,1.099,0.61,-0.061,-3.082,-22.786,166.256,-10.867,-9.64,-32.12,26.67,0.1232,0.19312,-0.05038,0.97205,184,0.981,0.044,0.016,-0.061,0.0,-0.488,76.201,-87.446,112.912,-30.473,-12.413,2.193,29.06,-0.04187,0.70056,0.07043,0.7088,180
45,0.938,-0.07,0.392,-0.061,0.0,-0.122,-10.085,-67.066,-175.963,-25.967,-9.267,-11.907,26.79,0.02261,0.5524,-0.0564,0.8313,173,0.892,-0.013,0.455,0.427,-0.061,-0.61,-2.241,-63.182,-123.201,-25.867,-10.213,3.84,25.82,0.39627,-0.46933,-0.23416,-0.75351,179,0.38,-0.046,0.918,0.916,0.305,-0.122,-3.06,-22.775,166.284,-10.867,-9.64,-32.12,26.67,0.1232,0.19312,-0.05038,0.97205,185,0.983,0.044,0.014,-0.061,-0.122,-0.427,76.229,-87.435,112.923,-30.473,-12.413,2.193,29.06,-0.04187,0.70056,0.07043,0.7088,181
46,0.94,-0.069,0.393,-0.305,-0.122,-0.183,-10.08,-67.066,-175.908,-25.967,-9.267,-11.907,26.79,0.02261,0.5524,-0.0564,0.8313,182,0.893,-0.014,0.456,0.183,-0.305,-0.61,-2.208,-63.182,-123.234,-25.867,-10.213,3.84,25.82,0.39627,-0.46933,-0.23416,-0.75351,186,0.381,-0.047,0.919,0.793,0.244,-0.305,-3.043,-22.769,166.295,-10.867,-9.64,-32.12,26.67,0.1232,0.19312,-0.05038,0.97205,188,0.985,0.042,0.014,-0.305,-0.488,-0.305,76.322,-87.429,112.863,-30.533,-12.247,1.98,29.06,-0.04187,0.70056,0.07043,0.7088,190
47,0.939,-0.07,0.393,0.0,-0.061,0.0,-10.08,-67.072,-175.853,-25.967,-9.267,-11.907,26.79,0.02261,0.5524,-0.0564,0.8313,183,0.895,-0.017,0.456,0.122,-0.183,-0.61,-2.181,-63.188,-123.267,-25.867,-10.213,3.84,25.82,0.39627,-0.46933,-0.23416,-0.75351,187,0.384,-0.048,0.917,0.793,-0.244,-0.183,-3.027,-22.769,166.311,-10.867,-9.64,-32.12,26.67,0.1232,0.19312,-0.05038,0.97205,189,0.986,0.041,0.013,-0.549,-0.732,-0.244,76.536,-87.424,112.648,-30.533,-12.247,1.98,29.06,-0.04187,0.70056,0.07043,0.7088,191
48,0.938,-0.07,0.393,0.244,-0.122,0.0,-10.08,-67.072,-175.792,-25.967,-9.267,-11.907,26.79,0.02261,0.5524,-0.0564,0.8313,192,0.896,-0.016,0.456,0.183,-0.122,-0.427,-2.159,-63.188,-123.289,-25.867,-10.213,3.84,25.82,0.39627,-0.46933,-0.23416,-0.75351,196,0.384,-0.047,0.92,0.671,-0.061,0.0,-3.01,-22.769,166.317,-10.867,-9.64,-32.12,26.67,0.1232,0.19312,-0.05038,0.97205,198,0.986,0.041,0.013,-0.488,-0.732,-0.122,76.816,-87.424,112.374,-30.533,-12.247,1.98,29.06,-0.04153,0.6998,0.07178,0.70944,194
49,0.938,-0.07,0.396,0.0,-0.244,0.0,-10.08,-67.072,-175.732,-25.967,-9.267,-11.907,26.79,0.02261,0.5524,-0.0564,0.8313,193,0.896,-0.015,0.455,0.061,-0.122,-0.244,-2.142,-63.188,-123.311,-25.867,-10.213,3.84,25.82,0.39627,-0.46933,-0.23416,-0.75351,197,0.384,-0.046,0.92,0.671,0.122,0.122,-2.999,-22.764,166.322,-10.867,-9.64,-32.12,26.67,0.1232,0.19312,-0.05038,0.97205,199,0.986,0.041,0.016,-0.244,-0.732,-0.122,77.086,-87.424,112.115,-30.533,-12.247,1.98,29.06,-0.04153,0.6998,0.07178,0.70944,195
50,0.937,-0.069,0.396,-0.305,-0.244,-0.183,-10.08,-67.077,-175.677,-25.967,-9.267,-11.907,26.79,0.02261,0.5524,-0.0564,0.8313,200,0.896,-0.016,0.455,0.0,-0.305,-0.183,-2.131,-63.193,-123.333,-25.867,-10.213,3.84,25.82,0.39627,-0.46933,-0.23416,-0.75351,202,0.385,-0.045,0.92,0.305,0.244,0.0,-2.994,-22.758,166.317,-10.867,-9.64,-32.12,26.67,0.1232,0.19312,-0.05038,0.97205,206,0.986,0.043,0.016,0.0,-0.671,-0.122,77.338,-87.429,111.885,-30.533,-12.247,1.98,29.06,-0.04153,0.6998,0.07178,0.70944,204
51,0.938,-0.069,0.395,-0.305,-0.366,-0.122,-10.08,-67.083,-175.622,-25.967,-9.267,-11.907,26.79,0.02261,0.5524,-0.0564,0.8313,201,0.893,-0.015,0.453,0.0,-0.183,-0.122,-2.126,-63.193,-123.349,-25.867,-10.213,3.84,25.82,0.39627,-0.46933,-0.23416,-0.75351,203,0.382,-0.046,0.916,-0.244,0.183,0.061,-2.994,-22.747,166.322,-10.867,-9.64,-32.12,26.67,0.1232,0.19312,-0.05038,0.97205,207,0.984,0.043,0.013,0.183,-0.488,-0.122,77.547,-87.429,111.709,-30.533,-12.247,1.98,29.06,-0.04153,0.6998,0.07178,0.70944,205
52,0.94,-0.068,0.394,0.0,-0.488,0.0,-10.085,-67.088,-175.562,-25.947,-8.86,-12.693,26.79,0.02261,0.5524,-0.0564,0.8313,212,0.894,-0.014,0.452,0.244,0.0,0.0,-2.12,-63.193,-123.354,-25.867,-10.213,3.84,25.82,0.39627,-0.46933,-0.23416,-0.75351,208,0.384,-0.045,0.917,-0.366,0.0,0.549,-3.005,-22.747,166.328,-10.867,-9.64,-32.12,26.67,0.1232,0.19312,-0.05038,0.97205,218,0.983,0.044,0.007,0.0,-0.61,-0.122,77.717,-87.429,111.566,-30.533,-12.247,1.98,29.06,-0.04153,0.6998,0.07178,0.70944,210
53,0.939,-0.069,0.393,0.061,-0.549,0.0,-10.091,-67.099,-175.501,-25.947,-8.86,-12.693,26.79,0.02261,0.5524,-0.0564,0.8313,213,0.896,-0.016,0.451,0.305,0.0,0.0,-2.109,-63.193,-123.349,-25.867,-10.213,3.84,25.82,0.39627,-0.46933,-0.23416,-0.75351,209,0.386,-0.051,0.915,0.488,-0.793,0.732,-3.005,-22.758,166.355,-10.867,-9.64,-32.12,26.67,0.1232,0.19312,-0.05038,0.97205,219,0.984,0.044,0.012,-0.305,-0.732,-0.061,77.948,-87.429,111.374,-30.533,-12.247,1.98,29.06,-0.04153,0.6998,0.07178,0.70944,211
54,0.938,-0.069,0.395,0.0,-0.427,0.0,-10.091,-67.104,-175.441,-25.947,-8.86,-12.693,26.79,0.01547,0.55304,-0.0513,0.83136,214,0.896,-0.017,0.452,0.305,-0.183,-0.122,-2.104,-63.193,-123.344,-25.867,-10.213,3.84,25.82,0.39627,-0.46933,-0.23416,-0.75351,216,0.386,-0.048,0.919,0.427,-0.61,0.488,-2.999,-22.769,166.371,-10.567,-9.84,-32.74,26.67,0.1232,0.19312,-0.05038,0.97205,222,0.986,0.042,0.015,-0.61,-0.549,0.0,78.184,-87.429,111.132,-30.533,-12.247,1.98,29.06,-0.04153,0.6998,0.07178,0.70944,220
55,0.938,-0.068,0.394,-0.061,-0.305,0.0,-10.091,-67.11,-175.386,-25.947,-8.86,-12.693,26.79,0.01547,0.55304,-0.0513,0.83136,215,0.895,-0.015,0.453,0.183,-0.244,0.0,-2.093,-63.193,-123.344,-25.867,-10.213,3.84,25.82,0.39627,-0.46933,-0.23416,-0.75351,217,0.383,-0.045,0.918,0.916,-0.488,0.488,-2.988,-22.775,166.388,-10.567,-9.84,-32.74,26.67,0.1232,0.19312,-0.05038,0.97205,223,0.986,0.042,0.012,-0.488,-0.488,-0.061,78.344,-87.429,110.967,-30.533,-12.247,1.98,29.06,-0.04153,0.6998,0.07178,0.70944,221
56,0.941,-0.068,0.391,-0.122,-0.427,-0.061,-10.096,-67.115,-175.331,-25.947,-8.86,-12.693,26.79,0.01547,0.55304,-0.0513,0.83136,224,0.893,-0.015,0.452,0.305,0.0,0.122,-2.087,-63.199,-123.344,-25.68,-10.287,3.8,25.82,0.39627,-0.46933,-0.23416,-0.75351,232,0.385,-0.047,0.917,0.488,0.0,0.488,-2.983,-22.775,166.415,-10.567,-9.84,-32.74,26.67,0.1232,0.19312,-0.05038,0.97205,230,0.985,0.042,0.003,-0.183,-0.427,-0.183,78.492,-87.429,110.836,-30.533,-12.247,1.98,29.06,-0.04153,0.6998,0.07178,0.70944,226
57,0.945,-0.068,0.388,-0.183,-0.61,0.0,-10.102,-67.126,-175.27,-25.947,-8.86,-12.693,26.79,0.01547,0.55304,-0.0513,0.83136,225,0.896,-0.015,0.45,0.488,0.0,0.244,-2.087,-63.199,-123.338,-25.68,-10.287,3.8,25.82,0.39627,-0.46933,-0.23416,-0.75351,233,0.388,-0.046,0.916,0.793,-0.61,0.671,-2.972,-22.786,166.443,-10.567,-9.84,-32.74,26.67,0.1232,0.19312,-0.05038,0.97205,231,0.984,0.044,0.002,0.0,-0.427,-0.244,78.651,-87.429,110.665,-30.533,-12.247,1.98,29.06,-0.04153,0.6998,0.07178,0.70944,227
58,0.943,-0.068,0.39,0.0,-0.427,0.122,-10.107,-67.132,-175.21,-25.947,-8.86,-12.693,26.79,0.01547,0.55304,-0.0513,0.83136,228,0.9,-0.014,0.448,0.488,-0.305,0.122,-2.082,-63.199,-123.327,-25.68,-10.287,3.8,25.82,0.39578,-0.46848,-0.23502,-0.75403,236,0.392,-0.046,0.916,0.793,-1.831,0.61,-2.961,-22.813,166.47,-10.567,-9.84,-32.74,26.67,0.12057,0.19318,-0.04849,0.97247,238,0.987,0.046,0.007,0.305,-0.488,-0.122,78.843,-87.424,110.457,-30.533,-12.247,1.98,29.06,-0.04153,0.6998,0.07178,0.70944,234
59,0.939,-0.068,0.392,0.122,0.0,0.183,-10.113,-67.132,-175.15,-25.947,-8.86,-12.693,26.79,0.01547,0.55304,-0.0513,0.83136,229,0.902,-0.013,0.451,0.549,-0.549,0.0,-2.076,-63.204,-123.316,-25.68,-10.287,3.8,25.82,0.39578,-0.46848,-0.23502,-0.75403,237,0.394,-0.047,0.917,0.549,-2.502,0.671,-2.955,-22.857,166.492,-10.567,-9.84,-32.74,26.67,0.12057,0.19318,-0.04849,0.97247,239,0.989,0.044,0.013,0.244,-0.427,-0.061,79.052,-87.424,110.253,-30.533,-12.247,1.98,29.06,-0.04153,0.6998,0.07178,0.70944,235
60,0.937,-0.069,0.392,0.183,0.366,0.183,-10.113,-67.126,-175.089,-25.947,-8.86,-12.693,26.79,0.01547,0.55304,-0.0513,0.83136,240,0.899,-0.013,0.451,0.427,-0.366,0.183,-2.065,-63.215,-123.3,-25.68,-10.287,3.8,25.82,0.39578,-0.46848,-0.23502,-0.75403,244,0.397,-0.041,0.917,-0.244,-2.747,0.61,-2.961,-22.906,166.503,-10.567,-9.84,-32.74,26.67,0.12057,0.19318,-0.04849,0.97247,246,0.989,0.042,0.015,-0.366,-0.244,0.0,79.178,-87.424,110.127,-30.533,-12.247,1.98,29.06,-0.04153,0.6998,0.07178,0.70944,242
61,0.939,-0.07,0.392,-0.061,0.0,0.122,-10.118,-67.126,-175.034,-25.947,-8.86,-12.693,26.79,0.01547,0.55304,-0.0513,0.83136,241,0.9,-0.012,0.448,0.183,0.0,0.305,-2.071,-63.221,-123.278,-25.68,-10.287,3.8,25.82,0.39578,-0.46848,-0.23502,-0.75403,245,0.401,-0.042,0.915,-0.183,-1.099,0.671,-2.972,-22.939,166.514,-10.567,-9.84,-32.74,26.67,0.12057,0.19318,-0.04849,0.97247,247,0.986,0.042,0.007,-0.427,-0.061,0.122,79.2,-87.429,110.105,-30.533,-12.247,1.98,29.06,-0.04153,0.6998,0.07178,0.70944,243
62,0.942,-0.07,0.391,-0.305,-0.549,0.061,-10.129,-67.132,-174.974,-25.947,-8.86,-12.693,26.79,0.01547,0.55304,-0.0513,0.83136,250,0.9,-0.014,0.444,0.122,0.0,0.549,-2.082,-63.221,-123.256,-25.68,-10.287,3.8,25.82,0.39578,-0.46848,-0.23502,-0.75403,248,0.391,-0.043,0.913,-1.343,3.235,0.549,-2.994,-22.896,166.509,-10.567,-9.84,-32.74,26.67,0.12057,0.19318,-0.04849,0.97247,256,0.985,0.044,0.004,-0.061,0.0,0.244,79.173,-87.429,110.165,-30.32,-12.607,1.553,29.06,-0.04153,0.6998,0.07178,0.70944,252
63,0.942,-0.069,0.394,-0.305,-0.427,0.061,-10.14,-67.137,-174.919,-25.947,-8.86,-12.693,26.79,0.01547,0.55304,-0.0513,0.83136,251,0.899,-0.013,0.446,0.183,0.061,0.549,-2.093,-63.221,-123.228,-25.68,-10.287,3.8,25.82,0.39578,-0.46848,-0.23502,-0.75403,249,0.388,-0.05,0.914,-0.793,2.747,0.61,-3.016,-22.841,166.514,-10.567,-9.84,-32.74,26.67,0.12057,0.19318,-0.04849,0.97247,257,0.987,0.044,0.006,0.0,0.122,0.244,79.118,-87.435,110.27,-30.32,-12.607,1.553,29.06,-0.04153,0.6998,0.07178,0.70944,253
64,0.939,-0.068,0.392,-0.061,0.244,0.061,-10.14,-67.137,-174.864,-25.947,-8.86,-12.693,26.79,0.01547,0.55304,-0.0513,0.83136,254,0.897,-0.016,0.449,0.122,0.244,0.488,-2.109,-63.221,-123.195,-25.68,-10.287,3.8,25.82,0.39578,-0.46848,-0.23502,-0.75403,258,0.387,-0.051,0.916,0.061,0.793,0.549,-3.021,-22.819,166.509,-10.567,-9.84,-32.74,26.67,0.12057,0.19318,-0.04849,0.97247,260,0.987,0.044,0.011,-0.488,0.366,0.305,78.981,-87.44,110.457,-30.32,-12.607,1.553,29.06,-0.04297,0.70023,0.07333,0.70877,262
65,0.938,-0.068,0.393,0.0,0.366,0.0,-10.135,-67.126,-174.82,-25.947,-8.86,-12.693,26.79,0.01547,0.55304,-0.0513,0.83136,255,0.895,-0.016,0.452,0.0,0.427,0.366,-2.12,-63.215,-123.168,-25.68,-10.287,3.8,25.82,0.39578,-0.46848,-0.23502,-0.75403,259,0.385,-0.049,0.918,0.549,0.183,0.549,-3.016,-22.813,166.503,-10.567,-9.84,-32.74,26.67,0.12057,0.19318,-0.04849,0.97247,261,0.985,0.043,0.012,-0.61,0.671,0.366,78.706,-87.446,110.781,-30.32,-12.607,1.553,29.06,-0.04297,0.70023,0.07333,0.70877,263
66,0.94,-0.07,0.393,-0.122,0.061,0.0,-10.14,-67.126,-174.771,-25.947,-8.86,-12.693,26.79,0.01547,0.55304,-0.0513,0.83136,266,0.894,-0.017,0.453,0.0,0.61,0.305,-2.131,-63.21,-123.157,-25.68,-10.287,3.8,25.82,0.39578,-0.46848,-0.23502,-0.75403,268,0.382,-0.047,0.919,0.183,0.854,0.732,-3.016,-22.802,166.481,-10.567,-9.84,-32.74,26.67,0.12057,0.19318,-0.04849,0.97247,270,0.984,0.042,0.011,-0.732,0.732,0.427,78.338,-87.451,111.16,-30.32,-12.607,1.553,29.06,-0.04297,0.70023,0.07333,0.70877,264
67,0.942,-0.071,0.392,-0.366,-0.061,0.0,-10.146,-67.126,-174.727,-25.947,-8.86,-12.693,26.79,0.01547,0.55304,-0.0513,0.83136,267,0.893,-0.017,0.453,0.061,0.549,0.488,-2.142,-63.199,-123.14,-25.68,-10.287,3.8,25.82,0.39578,-0.46848,-0.23502,-0.75403,269,0.381,-0.046,0.918,-0.732,0.854,0.793,-3.032,-22.786,166.448,-10.567,-9.84,-32.74,26.67,0.12057,0.19318,-0.04849,0.97247,271,0.985,0.041,0.008,-0.488,0.549,0.305,77.997,-87.451,111.473,-30.32,-12.607,1.553,29.06,-0.04297,0.70023,0.07333,0.70877,265
68,0.942,-0.07,0.39,-0.305,0.0,0.0,-10.151,-67.126,-174.677,-25.793,-8.92,-11.973,26.79,0.01547,0.55304,-0.0513,0.83136,272,0.894,-0.015,0.456,-0.183,0.305,0.671,-2.164,-63.188,-123.118,-25.68,-10.287,3.8,25.82,0.39578,-0.46848,-0.23502,-0.75403,274,0.383,-0.047,0.921,-0.916,0.61,0.671,-3.054,-22.775,166.432,-10.567,-9.84,-32.74,26.67,0.12057,0.19318,-0.04849,0.97247,278,0.985,0.042,0.008,-0.305,0.427,0.244,77.745,-87.457,111.693,-30.32,-12.607,1.553,29.06,-0.04297,0.70023,0.07333,0.70877,276
69,0.94,-0.069,0.39,-0.122,0.183,0.0,-10.151,-67.121,-174.633,-25.793,-8.92,-11.973,26.79,0.01547,0.55304,-0.0513,0.83136,273,0.895,-0.014,0.455,-0.305,0.061,0.793,-2.192,-63.188,-123.074,-25.68,-10.287,3.8,25.82,0.39578,-0.46848,-0.23502,-0.75403,275,0.381,-0.049,0.922,-0.183,0.61,0.549,-3.065,-22.764,166.432,-10.567,-9.84,-32.74,26.67,0.12057,0.19318,-0.04849,0.97247,279,0.987,0.042,0.013,-0.183,0.427,0.244,77.531,-87.457,111.901,-30.32,-12.607,1.553,29.06,-0.04297,0.70023,0.07333,0.70877,277
70,0.938,-0.069,0.392,0.0,0.305,0.0,-10.146,-67.115,-174.589,-25.793,-8.92,-11.973,26.79,0.01547,0.55304,-0.0513,0.83136,280,0.894,-0.017,0.458,0.0,0.0,0.732,-2.225,-63.188,-123.047,-25.68,-10.287,3.8,25.82,0.39578,-0.46848,-0.23502,-0.75403,286,0.382,-0.048,0.919,0.0,0.122,0.671,-3.071,-22.753,166.443,-10.567,-9.84,-32.74,26.67,0.12057,0.19318,-0.04849,0.97247,288,0.986,0.042,0.016,-0.122,0.122,0.366,77.366,-87.462,112.066,-30.32,-12.607,1.553,29.14,-0.04297,0.70023,0.07333,0.70877,282
71,0.938,-0.071,0.396,-0.122,0.183,0.0,-10.146,-67.11,-174.545,-25.793,-8.92,-11.973,26.79,0.01547,0.55304,-0.0513,0.83136,281,0.892,-0.019,0.454,0.061,0.366,0.732,-2.247,-63.182,-123.03,-25.68,-10.287,3.8,25.82,0.39578,-0.46848,-0.23502,-0.75403,287,0.383,-0.05,0.915,-0.916,-0.122,0.854,-3.087,-22.753,166.47,-10.567,-9.84,-32.74,26.67,0.12057,0.19318,-0.04849,0.97247,289,0.982,0.04,0.013,-0.366,-0.122,0.427,77.3,-87.473,112.143,-30.32,-12.607,1.553,29.14,-0.04297,0.70023,0.07333,0.70877,283
72,0.937,-0.072,0.394,-0.183,0.122,0.0,-10.151,-67.104,-174.501,-25.793,-8.92,-11.973,26.79,0.00937,0.55344,-0.04742,0.83142,284,0.894,-0.018,0.451,0.0,0.427,0.854,-2.274,-63.171,-122.997,-25.267,-10.047,3.827,25.82,0.39578,-0.46848,-0.23502,-0.75403,290,0.385,-0.049,0.915,-0.732,0.183,0.977,-3.109,-22.753,166.492,-10.327,-9.42,-31.753,26.67,0.12057,0.19318,-0.04849,0.97247,298,0.982,0.039,0.016,-0.549,0.0,0.427,77.245,-87.479,112.192,-30.32,-12.607,1.553,29.14,-0.04297,0.70023,0.07333,0.70877,292
73,0.937,-0.071,0.396,-0.244,0.0,0.0,-10.151,-67.104,-174.457,-25.793,-8.92,-11.973,26.79,0.00937,0.55344,-0.04742,0.83142,285,0.897,-0.017,0.456,0.0,0.427,1.099,-2.313,-63.16,-122.959,-25.267,-10.047,3.827,25.82,0.39578,-0.46848,-0.23502,-0.75403,291,0.385,-0.049,0.92,-0.427,0.916,1.099,-3.126,-22.736,166.531,-10.327,-9.42,-31.753,26.67,0.12057,0.19318,-0.04849,0.97247,299,0.985,0.04,0.014,-0.61,0.366,0.427,77.064,-87.484,112.401,-30.32,-12.607,1.553,29.14,-0.04297,0.70023,0.07333,0.70877,293
74,0.938,-0.071,0.395,-0.183,0.0,0.0,-10.157,-67.104,-174.413,-25.793,-8.92,-11.973,26.79,0.00937,0.55344,-0.04742,0.83142,294,0.897,-0.017,0.455,0.183,0.427,1.221,-2.351,-63.149,-122.91,-25.267,-10.047,3.827,25.82,0.39578,-0.46848,-0.23502,-0.75403,296,0.381,-0.048,0.923,-0.671,1.038,1.343,-3.148,-22.714,166.564,-10.327,-9.42,-31.753,26.67,0.1199,0.19229,-0.04984,0.97266,306,0.988,0.042,0.016,-0.854,0.122,0.427,76.849,-87.495,112.632,-30.32,-12.607,1.553,29.14,-0.04297,0.70023,0.07333,0.70877,300
75,0.939,-0.069,0.395,-0.183,0.061,0.0,-10.162,-67.099,-174.375,-25.793,-8.92,-11.973,26.79,0.00937,0.55344,-0.04742,0.83142,295,0.894,-0.019,0.457,0.61,0.488,1.282,-2.39,-63.138,-122.855,-25.267,-10.047,3.827,25.82,0.39578,-0.46848,-0.23502,-0.75403,297,0.38,-0.053,0.92,-1.038,0.488,1.526,-3.181,-22.703,166.608,-10.327,-9.42,-31.753,26.67,0.1199,0.19229,-0.04984,0.97266,307,0.989,0.043,0.013,-1.465,-0.061,0.427,76.712,-87.501,112.78,-30.32,-12.607,1.553,29.14,-0.04297,0.70023,0.07333,0.70877,301
76,0.939,-0.069,0.395,-0.244,-0.122,0.0,-10.168,-67.099,-174.331,-25.793,-8.92,-11.973,26.79,0.00937,0.55344,-0.04742,0.83142,302,0.893,-0.02,0.457,0.793,0.671,1.221,-2.422,-63.127,-122.8,-25.267,-10.047,3.827,25.82,0.39774,-0.46817,-0.23468,-0.75327,310,0.379,-0.053,0.919,-0.732,0.671,1.526,-3.208,-22.687,166.646,-10.327,-9.42,-31.753,26.67,0.1199,0.19229,-0.04984,0.97266,312,0.986,0.042,0.008,-1.892,-0.061,0.488,76.613,-87.512,112.874,-30.32,-12.607,1.553,29.14,-0.04297,0.70023,0.07333,0.70877,304
77,0.94,-0.07,0.396,-0.305,-0.183,0.0,-10.173,-67.099,-174.287,-25.793,-8.92,-11.973,26.79,0.00937,0.55344,-0.04742,0.83142,303,0.892,-0.015,0.455,0.305,0.549,1.221,-2.455,-63.111,-122.745,-25.267,-10.047,3.827,25.82,0.39774,-0.46817,-0.23468,-0.75327,311,0.38,-0.054,0.914,1.282,0.732,1.282,-3.192,-22.67,166.696,-10.327,-9.42,-31.753,26.67,0.1199,0.19229,-0.04984,0.97266,313,0.983,0.04,0.013,-1.038,0.061,0.61,76.487,-87.523,112.95,-30.32,-12.607,1.553,29.14,-0.04297,0.70023,0.07333,0.70877,305
78,0.939,-0.07,0.393,-0.305,-0.061,0.0,-10.179,-67.099,-174.243,-25.793,-8.92,-11.973,26.79,0.00937,0.55344,-0.04742,0.83142,308,0.892,-0.016,0.454,0.0,0.305,1.038,-2.488,-63.1,-122.701,-25.267,-10.047,3.827,25.82,0.39774,-0.46817,-0.23468,-0.75327,316,0.377,-0.049,0.918,2.747,-0.122,0.977,-3.148,-22.67,166.75,-10.327,-9.42,-31.753,26.67,0.1199,0.19229,-0.04984,0.97266,318,0.983,0.042,0.018,-0.793,-0.061,0.732,76.355,-87.534,113.066,-30.32,-12.607,1.553,29.14,-0.04297,0.70023,0.07333,0.70877,314
79,0.938,-0.069,0.393,-0.305,0.061,0.0,-10.184,-67.099,-174.205,-25.793,-8.92,-11.973,26.79,0.00937,0.55344,-0.04742,0.83142,309,0.89,-0.016,0.457,-0.244,0.0,1.099,-2.532,-63.1,-122.651,-25.267,-10.047,3.827,25.82,0.39774,-0.46817,-0.23468,-0.75327,317,0.375,-0.046,0.921,2.441,0.0,0.671,-3.104,-22.665,166.8,-10.327,-9.42,-31.753,26.67,0.1199,0.19229,-0.04984,0.97266,319,0.984,0.041,0.012,-0.732,0.0,0.61,76.229,-87.545,113.187,-30.32,-12.607,1.553,29.14,-0.04297,0.70023,0.07333,0.70877,315
80,0.939,-0.069,0.393,-0.244,0.0,0.0,-10.184,-67.094,-174.161,-25.793,-8.92,-11.973,26.79,0.00937,0.55344,-0.04742,0.83142,322,0.891,-0.02,0.457,-0.488,0.0,1.16,-2.582,-63.094,-122.602,-25.267,-10.047,3.827,25.82,0.39774,-0.46817,-0.23468,-0.75327,320,0.382,-0.051,0.917,1.587,-0.977,0.671,-3.076,-22.681,166.833,-10.327,-9.42,-31.753,26.67,0.1199,0.19229,-0.04984,0.97266,326,0.984,0.039,0.011,-0.549,0.0,0.671,76.102,-87.556,113.307,-30.32,-12.607,1.553,29.14,-0.04297,0.70023,0.07333,0.70877,324
81,0.941,-0.071,0.39,-0.061,0.0,0.0,-10.184,-67.094,-174.122,-25.793,-8.92,-11.973,26.79,0.00937,0.55344,-0.04742,0.83142,323,0.894,-0.025,0.452,-0.122,-0.122,1.16,-2.626,-63.094,-122.563,-25.267,-10.047,3.827,25.82,0.39774,-0.46817,-0.23468,-0.75327,321,0.384,-0.055,0.914,1.343,-1.831,0.977,-3.06,-22.714,166.866,-10.327,-9.42,-31.753,26.67,0.1199,0.19229,-0.04984,0.97266,327,0.985,0.039,0.012,-0.122,-0.122,0.854,76.009,-87.572,113.384,-30.32,-12.607,1.553,29.14,-0.04297,0.70023,0.07333,0.70877,325
82,0.942,-0.072,0.391,-0.061,-0.122,0.0,-10.19,-67.094,-174.084,-25.793,-8.92,-11.973,26.79,0.00937,0.55344,-0.04742,0.83142,328,0.896,-0.025,0.454,-0.122,-0.244,1.099,-2.67,-63.1,-122.514,-25.267,-10.047,3.827,25.82,0.39774,-0.46817,-0.23468,-0.75327,330,0.385,-0.056,0.916,2.319,-1.221,0.916,-3.027,-22.736,166.904,-10.327,-9.42,-31.753,26.67,0.1199,0.19229,-0.04984,0.97266,334,0.986,0.037,0.009,0.427,0.0,0.793,75.905,-87.589,113.478,-30.3,-12.373,1.2,29.14,-0.04297,0.70023,0.07333,0.70877,332
83,0.941,-0.071,0.391,-0.061,-0.122,0.0,-10.19,-67.094,-174.04,-25.793,-8.92,-11.973,26.79,0.00937,0.55344,-0.04742,0.83142,329,0.894,-0.025,0.452,0.0,-0.427,1.038,-2.714,-63.105,-122.47,-25.267,-10.047,3.827,25.82,0.39774,-0.46817,-0.23468,-0.75327,331,0.383,-0.059,0.917,5.31,-1.282,1.16,-2.933,-22.758,166.937,-10.327,-9.42,-31.753,26.67,0.1199,0.19229,-0.04984,0.97266,335,0.986,0.038,0.01,0.183,-0.061,0.671,75.817,-87.599,113.555,-30.3,-12.373,1.2,29.14,-0.04297,0.70023,0.07333,0.70877,333
84,0.942,-0.071,0.389,-0.122,0.0,0.305,-10.206,-67.094,-173.985,-25.793,-8.92,-11.973,26.79,0.00937,0.55344,-0.04742,0.83142,336,0.891,-0.028,0.455,0.183,-0.244,0.793,-2.741,-63.105,-122.437,-25.267,-10.047,3.827,25.82,0.39774,-0.46817,-0.23468,-0.75327,338,0.38,-0.053,0.919,6.226,-1.648,1.343,-2.823,-22.786,166.981,-10.327,-9.42,-31.753,26.67,0.1199,0.19229,-0.04984,0.97266,340,0.986,0.038,0.009,-0.549,-0.488,0.549,75.899,-87.616,113.467,-30.3,-12.373,1.2,29.14,-0.04382,0.69983,0.07166,0.70929,342
85,0.94,-0.07,0.388,-0.244,-0.061,0.244,-10.223,-67.094,-173.936,-25.793,-8.92,-11.973,26.79,0.00937,0.55344,-0.04742,0.83142,337,0.892,-0.028,0.454,0.366,-0.183,0.549,-2.763,-63.111,-122.415,-25.267,-10.047,3.827,25.82,0.39774,-0.46817,-0.23468,-0.75327,339,0.384,-0.047,0.919,3.967,-2.197,0.977,-2.763,-22.83,166.998,-10.327,-9.42,-31.753,26.67,0.1199,0.19229,-0.04984,0.97266,341,0.985,0.038,0.008,-0.916,-0.61,0.427,76.08,-87.627,113.275,-30.3,-12.373,1.2,29.14,-0.04382,0.69983,0.07166,0.70929,343
86,0.941,-0.07,0.391,-0.244,-0.183,0.061,-10.234,-67.099,-173.892,-26.08,-8.967,-11.98,26.79,0.00937,0.55344,-0.04742,0.83142,344,0.896,-0.021,0.457,0.061,-0.671,0.488,-2.78,-63.116,-122.399,-25.267,-10.047,3.827,25.82,0.39774,-0.46817,-0.23468,-0.75327,348,0.389,-0.042,0.924,2.319,-2.014,0.305,-2.725,-22.863,167.009,-10.327,-9.42,-31.753,26.67,0.1199,0.19229,-0.04984,0.97266,352,0.984,0.037,0.008,0.0,-0.183,0.244,76.163,-87.632,113.187,-30.3,-12.373,1.2,29.14,-0.04382,0.69983,0.07166,0.70929,346
87,0.94,-0.069,0.393,-0.183,0.061,0.0,-10.234,-67.094,-173.859,-26.08,-8.967,-11.98,26.79,0.00937,0.55344,-0.04742,0.83142,345,0.897,-0.021,0.455,0.122,-1.16,0.488,-2.802,-63.138,-122.377,-25.267,-10.047,3.827,25.82,0.39774,-0.46817,-0.23468,-0.75327,349,0.387,-0.043,0.922,1.77,-1.404,0.122,-2.697,-22.89,167.009,-10.327,-9.42,-31.753,26.67,0.1199,0.19229,-0.04984,0.97266,353,0.987,0.04,0.012,0.366,-0.305,0.061,76.273,-87.638,113.066,-30.3,-12.373,1.2,29.14,-0.04382,0.69983,0.07166,0.70929,347
88,0.938,-0.069,0.393,-0.183,0.366,0.061,-10.239,-67.088,-173.82,-26.08,-8.967,-11.98,26.79,0.00937,0.55344,-0.04742,0.83142,350,0.896,-0.022,0.458,0.0,-1.16,0.366,-2.818,-63.155,-122.366,-25.94,-10.34,3.947,25.82,0.39774,-0.46817,-0.23468,-0.75327,356,0.388,-0.042,0.921,0.183,-1.099,0.0,-2.697,-22.906,167.014,-10.46,-9.913,-32.173,26.67,0.1199,0.19229,-0.04984,0.97266,358,0.987,0.041,0.015,0.244,-0.732,0.0,76.547,-87.638,112.786,-30.3,-12.373,1.2,29.14,-0.04382,0.69983,0.07166,0.70929,354
89,0.939,-0.069,0.391,0.0,0.305,0.244,-10.245,-67.083,-173.776,-26.08,-8.967,-11.98,26.79,0.00937,0.55344,-0.04742,0.83142,351,0.896,-0.024,0.455,0.0,-0.732,0.183,-2.829,-63.171,-122.355,-25.94,-10.34,3.947,25.82,0.39774,-0.46817,-0.23468,-0.75327,357,0.391,-0.043,0.918,-1.953,-0.916,0.0,-2.736,-22.923,167.025,-10.46,-9.913,-32.173,26.67,0.1199,0.19229,-0.04984,0.97266,359,0.986,0.038,0.016,0.0,-0.977,0.061,76.932,-87.643,112.407,-30.3,-12.373,1.2,29.14,-0.04382,0.69983,0.07166,0.70929,355
90,0.938,-0.072,0.393,0.122,-0.122,0.427,-10.261,-67.083,-173.716,-26.08,-8.967,-11.98,26.79,0.00421,0.55353,-0.04443,0.83157,362,0.896,-0.024,0.454,0.0,-0.61,0.305,-2.845,-63.182,-122.349,-25.94,-10.34,3.947,25.82,0.39774,-0.46817,-0.23468,-0.75327,366,0.395,-0.044,0.914,-2.38,-0.305,0.122,-2.785,-22.928,167.047,-10.46,-9.913,-32.173,26.67,0.1199,0.19229,-0.04984,0.97266,364,0.986,0.034,0.012,0.0,-0.61,0.183,77.195,-87.649,112.165,-30.3,-12.373,1.2,29.14,-0.04382,0.69983,0.07166,0.70929,360
91,0.937,-0.075,0.397,0.0,-0.549,0.427,-10.283,-67.088,-173.655,-26.08,-8.967,-11.98,26.79,0.00421,0.55353,-0.04443,0.83157,363,0.899,-0.025,0.448,0.244,-0.427,0.61,-2.862,-63.188,-122.322,-25.94,-10.34,3.947,25.82,0.39774,-0.46817,-0.23468,-0.75327,367,0.394,-0.047,0.911,-2.197,0.0,0.427,-2.834,-22.923,167.08,-10.46,-9.913,-32.173,26.67,0.1199,0.19229,-0.04984,0.97266,365,0.984,0.033,0.009,0.061,-0.488,0.183,77.366,-87.66,112.022,-30.3,-12.373,1.2,29.14,-0.04382,0.69983,0.07166,0.70929,361
92,0.936,-0.074,0.397,-0.244,-0.244,0.122,-10.3,-67.094,-173.611,-26.08,-8.967,-11.98,26.79,0.00421,0.55353,-0.04443,0.83157,370,0.899,-0.026,0.449,0.549,-0.305,0.732,-2.884,-63.193,-122.289,-25.94,-10.34,3.947,25.82,0.39929,-0.46909,-0.23395,-0.75211,368,0.394,-0.048,0.914,-2.38,0.244,0.61,-2.889,-22.917,167.102,-10.46,-9.913,-32.173,26.67,0.11508,0.19467,-0.04645,0.97293,372,0.987,0.035,0.014,-0.183,-0.427,0.122,77.498,-87.665,111.89,-30.3,-12.373,1.2,29.14,-0.04382,0.69983,0.07166,0.70929,374
93,0.938,-0.071,0.399,-0.305,0.0,0.0,-10.305,-67.088,-173.578,-26.08,-8.967,-11.98,26.79,0.00421,0.55353,-0.04443,0.83157,371,0.897,-0.024,0.449,0.366,-0.122,0.793,-2.906,-63.193,-122.245,-25.94,-10.34,3.947,25.82,0.39929,-0.46909,-0.23395,-0.75211,369,0.389,-0.051,0.915,-1.465,0.244,0.61,-2.922,-22.917,167.124,-10.46,-9.913,-32.173,26.67,0.11508,0.19467,-0.04645,0.97293,373,0.986,0.037,0.015,-0.122,-0.061,0.122,77.487,-87.665,111.896,-30.3,-12.373,1.2,29.14,-0.04382,0.69983,0.07166,0.70929,375
94,0.94,-0.071,0.394,-0.061,0.0,0.0,-10.305,-67.088,-173.54,-26.08,-8.967,-11.98,26.79,0.00421,0.55353,-0.04443,0.83157,376,0.896,-0.024,0.45,0.183,0.061,0.793,-2.933,-63.193,-122.206,-25.94,-10.34,3.947,25.82,0.39929,-0.46909,-0.23395,-0.75211,378,0.388,-0.05,0.915,-0.549,0.488,0.61,-2.939,-22.906,167.146,-10.46,-9.913,-32.173,26.67,0.11508,0.19467,-0.04645,0.97293,384,0.986,0.037,0.011,0.0,0.0,0.122,77.41,-87.671,111.978,-30.3,-12.373,1.2,29.14,-0.04382,0.69983,0.07166,0.70929,380
95,0.94,-0.072,0.392,-0.061,-0.305,0.0,-10.311,-67.088,-173.507,-26.08,-8.967,-11.98,26.79,0.00421,0.55353,-0.04443,0.83157,377,0.895,-0.024,0.45,0.0,0.305,0.671,-2.966,-63.188,-122.173,-25.94,-10.34,3.947,25.82,0.39929,-0.46909,-0.23395,-0.75211,379,0.392,-0.047,0.915,-1.099,0.61,0.488,-2.966,-22.896,167.168,-10.46,-9.913,-32.173,26.67,0.11508,0.19467,-0.04645,0.97293,385,0.985,0.036,0.009,0.0,0.0,0.0,77.344,-87.671,112.061,-30.3,-12.373,1.2,29.14,-0.04382,0.69983,0.07166,0.70929,381
96,0.94,-0.073,0.392,-0.244,-0.183,-0.061,-10.316,-67.094,-173.469,-26.08,-8.967,-11.98,26.79,0.00421,0.55353,-0.04443,0.83157,382,0.9,-0.024,0.449,-0.122,0.183,0.671,-2.994,-63.188,-122.135,-25.94,-10.34,3.947,25.82,0.39929,-0.46909,-0.23395,-0.75211,388,0.394,-0.047,0.918,-2.197,0.916,0.366,-3.016,-22.879,167.19,-10.46,-9.913,-32.173,26.67,0.11508,0.19467,-0.04645,0.97293,390,0.987,0.035,0.004,-0.61,-0.061,0.0,77.305,-87.671,112.104,-30.013,-12.433,2.12,29.14,-0.04382,0.69983,0.07166,0.70929,386
97,0.939,-0.073,0.392,-0.244,0.0,-0.244,-10.322,-67.099,-173.441,-26.08,-8.967,-11.98,26.79,0.00421,0.55353,-0.04443,0.83157,383,0.9,-0.024,0.45,-0.061,0.0,0.793,-3.027,-63.182,-122.091,-25.94,-10.34,3.947,25.82,0.39929,-0.46909,-0.23395,-0.75211,389,0.391,-0.05,0.917,-2.136,0.977,0.366,-3.06,-22.863,167.223,-10.46,-9.913,-32.173,26.67,0.11508,0.19467,-0.04645,0.97293,391,0.987,0.035,0.01,-0.671,0.244,0.122,77.168,-87.676,112.22,-30.013,-12.433,2.12,29.14,-0.04382,0.69983,0.07166,0.70929,387
98,0.94,-0.07,0.389,-0.366,-0.183,-0.427,-10.311,-67.099,-173.419,-26.08,-8.967,-11.98,26.79,0.00421,0.55353,-0.04443,0.83157,394,0.897,-0.025,0.45,-0.122,0.0,0.793,-3.06,-63.182,-122.036,-25.94,-10.34,3.947,25.82,0.39929,-0.46909,-0.23395,-0.75211,392,0.387,-0.052,0.916,-1.526,0.671,0.488,-3.093,-22.852,167.239,-10.46,-9.913,-32.173,26.67,0.11508,0.19467,-0.04645,0.97293,398,0.986,0.037,0.015,-0.732,0.122,0.244,77.025,-87.682,112.346,-30.013,-12.433,2.12,29.14,-0.04382,0.69983,0.07166,0.70929,396
99,0.942,-0.07,0.393,-0.427,-0.549,-0.183,-10.305,-67.104,-173.403,-26.08,-8.967,-11.98,26.79,0.00421,0.55353,-0.04443,0.83157,395,0.894,-0.024,0.452,-0.305,0.366,0.671,-3.093,-63.182,-121.998,-25.94,-10.34,3.947,25.82,0.39929,-0.46909,-0.23395,-0.75211,393,0.386,-0.052,0.916,-0.793,0.793,0.488,-3.109,-22.835,167.245,-10.46,-9.913,-32.173,26.67,0.11508,0.19467,-0.04645,0.97293,399,0.985,0.039,0.01,-0.488,0.061,0.122,76.926,-87.682,112.451,-30.013,-12.433,2.12,29.14,-0.04382,0.69983,0.07166,0.70929,397
100,0.942,-0.071,0.392,-0.122,-0.549,0.0,-10.316,-67.11,-173.375,-26.08,-8.967,-11.98,26.79,0.00421,0.55353,-0.04443,0.83157,404,0.894,-0.024,0.452,-0.305,0.488,0.549,-3.12,-63.171,-121.965,-25.94,-10.34,3.947,25.82,0.39929,-0.46909,-0.23395,-0.75211,400,0.386,-0.05,0.919,-0.549,1.099,0.488,-3.126,-22.813,167.256,-10.46,-9.913,-32.173,26.67,0.11508,0.19467,-0.04645,0.97293,406,0.984,0.039,0.004,0.0,0.122,0.0,76.838,-87.687,112.544,-30.013,-12.433,2.12,29.14,-0.04416,0.70023,0.07135,0.70889,402
101,0.94,-0.071,0.39,0.183,0.0,0.0,-10.316,-67.121,-173.342,-26.08,-8.967,-11.98,26.79,0.00421,0.55353,-0.04443,0.83157,405,0.894,-0.025,0.453,-0.061,0.427,0.549,-3.142,-63.16,-121.937,-25.94,-10.34,3.947,25.82,0.39929,-0.46909,-0.23395,-0.75211,401,0.385,-0.05,0.919,-1.099,1.282,0.488,-3.153,-22.791,167.272,-10.46,-9.913,-32.173,26.67,0.11508,0.19467,-0.04645,0.97293,407,0.985,0.039,0.009,0.366,0.0,0.061,76.822,-87.687,112.593,-30.013,-12.433,2.12,29.14,-0.04416,0.70023,0.07135,0.70889,403
102,0.939,-0.07,0.394,0.122,0.0,0.061,-10.316,-67.115,-173.309,-26.2,-8.507,-12.527,26.79,0.00421,0.55353,-0.04443,0.83157,408,0.897,-0.026,0.452,0.244,0.183,0.61,-3.164,-63.16,-121.91,-25.94,-10.34,3.947,25.82,0.39929,-0.46909,-0.23395,-0.75211,410,0.387,-0.05,0.918,-1.282,1.282,0.732,-3.181,-22.764,167.272,-10.46,-9.913,-32.173,26.67,0.11508,0.19467,-0.04645,0.97293,412,0.989,0.039,0.01,0.366,-0.122,0.183,76.855,-87.693,112.566,-30.013,-12.433,2.12,29.14,-0.04416,0.70023,0.07135,0.70889,414
103,0.94,-0.07,0.396,-0.061,0.0,0.0,-10.316,-67.115,-173.276,-26.2,-8.507,-12.527,26.79,0.00421,0.55353,-0.04443,0.83157,409,0.899,-0.024,0.455,0.244,0.183,0.854,-3.186,-63.155,-121.877,-25.94,-10.34,3.947,25.82,0.39929,-0.46909,-0.23395,-0.75211,411,0.389,-0.049,0.919,-0.854,1.526,0.916,-3.203,-22.736,167.261,-10.46,-9.913,-32.173,26.67,0.11508,0.19467,-0.04645,0.97293,413,0.989,0.037,0.013,0.488,0.183,0.122,76.734,-87.693,112.687,-30.013,-12.433,2.12,29.14,-0.04416,0.70023,0.07135,0.70889,415
104,0.941,-0.069,0.393,-0.183,-0.122,0.0,-10.316,-67.115,-173.243,-26.2,-8.507,-12.527,26.79,0.00421,0.55353,-0.04443,0.83157,418,0.896,-0.023,0.452,0.183,0.488,0.977,-3.219,-63.144,-121.838,-25.94,-10.34,3.947,25.82,0.39929,-0.46909,-0.23395,-0.75211,420,0.384,-0.052,0.918,-1.099,0.732,1.038,-3.235,-22.72,167.261,-10.46,-9.913,-32.173,26.67,0.11508,0.19467,-0.04645,0.97293,428,0.987,0.038,0.012,0.549,0.549,0.122,76.437,-87.693,113.011,-30.013,-12.433,2.12,29.14,-0.04416,0.70023,0.07135,0.70889,416
105,0.94,-0.069,0.393,-0.061,-0.305,0.061,-10.322,-67.115,-173.21,-26.2,-8.507,-12.527,26.79,0.00421,0.55353,-0.04443,0.83157,419,0.895,-0.023,0.451,0.427,0.732,0.61,-3.235,-63.133,-121.8,-25.94,-10.34,3.947,25.82,0.39929,-0.46909,-0.23395,-0.75211,421,0.387,-0.053,0.917,-2.075,0.732,0.793,-3.279,-22.709,167.261,-10.46,-9.913,-32.173,26.67,0.11508,0.19467,-0.04645,0.97293,429,0.984,0.043,0.011,0.732,0.427,0.244,76.196,-87.698,113.286,-30.013,-12.433,2.12,29.14,-0.04416,0.70023,0.07135,0.70889,417
106,0.937,-0.069,0.395,0.061,-0.122,0.183,-10.327,-67.121,-173.177,-26.2,-8.507,-12.527,26.79,0.00037,0.55405,-0.04214,0.83136,422,0.896,-0.025,0.45,0.427,0.732,0.244,-3.235,-63.116,-121.783,-26.04,-9.52,3.373,25.82,0.39929,-0.46909,-0.23395,-0.75211,424,0.387,-0.051,0.915,-3.662,0.732,0.61,-3.356,-22.692,167.261,-10.6,-9.627,-32.98,26.67,0.11508,0.19467,-0.04645,0.97293,434,0.982,0.042,0.01,0.916,0.488,0.244,75.927,-87.698,113.593,-30.013,-12.433,2.12,29.14,-0.04416,0.70023,0.07135,0.70889,426
107,0.937,-0.069,0.396,0.244,0.0,0.122,-10.333,-67.121,-173.139,-26.2,-8.507,-12.527,26.79,0.00037,0.55405,-0.04214,0.83136,423,0.896,-0.026,0.451,0.366,0.793,0.305,-3.241,-63.105,-121.772,-26.04,-9.52,3.373,25.82,0.39929,-0.46909,-0.23395,-0.75211,425,0.387,-0.047,0.915,-5.92,1.526,0.793,-3.477,-22.665,167.25,-10.6,-9.627,-32.98,26.67,0.11508,0.19467,-0.04645,0.97293,435,0.986,0.038,0.018,0.488,0.61,0.061,75.608,-87.693,113.939,-30.013,-12.433,2.12,29.14,-0.04416,0.70023,0.07135,0.70889,427
108,0.939,-0.072,0.395,0.122,0.0,0.061,-10.333,-67.115,-173.101,-26.2,-8.507,-12.527,26.79,0.00037,0.55405,-0.04214,0.83136,432,0.896,-0.021,0.454,0.305,0.854,0.61,-3.252,-63.089,-121.75,-26.04,-9.52,3.373,25.82,0.39929,-0.46909,-0.23395,-0.75211,430,0.382,-0.052,0.915,-6.714,2.808,0.793,-3.609,-22.61,167.25,-10.6,-9.627,-32.98,26.67,0.11508,0.19467,-0.04645,0.97293,440,0.986,0.035,0.014,0.0,0.61,0.061,75.267,-87.693,114.302,-30.013,-12.433,2.12,29.14,-0.04416,0.70023,0.07135,0.70889,436
109,0.94,-0.072,0.394,-0.122,-0.061,0.0,-10.327,-67.115,-173.073,-26.2,-8.507,-12.527,26.79,0.00037,0.55405,-0.04214,0.83136,433,0.896,-0.02,0.454,0.061,0.977,0.671,-3.268,-63.067,-121.734,-26.04,-9.52,3.373,25.82,0.39929,-0.46909,-0.23395,-0.75211,431,0.375,-0.062,0.921,-4.395,3.784,0.671,-3.697,-22.538,167.256,-10.6,-9.627,-32.98,26.67,0.11508,0.19467,-0.04645,0.97293,441,0.987,0.036,0.013,-0.122,0.671,0.305,74.866,-87.693,114.697,-30.013,-12.433,2.12,29.14,-0.04416,0.70023,0.07135,0.70889,437
110,0.943,-0.071,0.391,-0.305,-0.366,0.0,-10.333,-67.115,-173.04,-26.2,-8.507,-12.527,26.79,0.00037,0.55405,-0.04214,0.83136,438,0.894,-0.024,0.456,0.0,0.793,0.61,-3.285,-63.056,-121.718,-26.04,-9.52,3.373,25.82,0.40164,-0.46854,-0.23331,-0.7514,446,0.378,-0.065,0.921,-1.038,2.319,0.671,-3.719,-22.495,167.283,-10.6,-9.627,-32.98,26.67,0.11484,0.19022,-0.05322,0.97351,448,0.988,0.04,0.013,-0.183,0.61,0.488,74.471,-87.698,115.071,-30.013,-12.433,2.12,29.14,-0.04416,0.70023,0.07135,0.70889,442
111,0.945,-0.07,0.388,-0.061,-0.183,0.061,-10.338,-67.121,-173.013,-26.2,-8.507,-12.527,26.79,0.00037,0.55405,-0.04214,0.83136,439,0.894,-0.029,0.457,0.0,0.732,0.61,-3.307,-63.04,-121.69,-26.04,-9.52,3.373,25.82,0.40164,-0.46854,-0.23331,-0.7514,447,0.378,-0.064,0.921,0.366,1.343,0.793,-3.713,-22.467,167.316,-10.6,-9.627,-32.98,26.67,0.11484,0.19022,-0.05322,0.97351,449,0.988,0.039,0.006,0.244,0.61,0.427,74.108,-87.704,115.422,-30.013,-12.433,2.12,29.14,-0.04416,0.70023,0.07135,0.70889,443
112,0.942,-0.073,0.388,0.366,0.0,0.183,-10.344,-67.121,-172.974,-26.2,-8.507,-12.527,26.79,0.00037,0.55405,-0.04214,0.83136,444,0.895,-0.03,0.454,0.183,0.549,0.671,-3.329,-63.029,-121.668,-26.04,-9.52,3.373,25.82,0.40164,-0.46854,-0.23331,-0.7514,450,0.378,-0.064,0.918,0.549,0.305,1.038,-3.708,-22.462,167.36,-10.6,-9.627,-32.98,26.67,0.11484,0.19022,-0.05322,0.97351,456,0.986,0.035,0.006,0.488,0.732,0.305,73.724,-87.704,115.796,-30.187,-12.307,1.313,29.14,-0.04416,0.70023,0.07135,0.70889,452
113,0.939,-0.074,0.392,0.366,0.183,0.122,-10.344,-67.115,-172.941,-26.2,-8.507,-12.527,26.79,0.00037,0.55405,-0.04214,0.83136,445,0.892,-0.028,0.456,0.305,0.488,0.61,-3.34,-63.018,-121.652,-26.04,-9.52,3.373,25.82,0.40164,-0.46854,-0.23331,-0.7514,451,0.375,-0.064,0.919,1.709,-0.427,1.221,-3.686,-22.467,167.404,-10.6,-9.627,-32.98,26.67,0.11484,0.19022,-0.05322,0.97351,457,0.986,0.034,0.013,0.427,0.549,0.305,73.427,-87.709,116.098,-30.187,-12.307,1.313,29.14,-0.04416,0.70023,0.07135,0.70889,453
114,0.938,-0.074,0.388,-0.061,0.0,0.061,-10.338,-67.115,-172.908,-26.2,-8.507,-12.527,26.79,0.00037,0.55405,-0.04214,0.83136,454,0.889,-0.028,0.458,0.305,0.61,0.61,-3.356,-63.007,-121.635,-26.04,-9.52,3.373,25.82,0.40164,-0.46854,-0.23331,-0.7514,460,0.374,-0.062,0.919,2.808,-0.488,1.343,-3.642,-22.478,167.459,-10.6,-9.627,-32.98,26.67,0.11484,0.19022,-0.05322,0.97351,462,0.982,0.034,0.014,0.366,0.488,0.366,73.147,-87.715,116.389,-30.187,-12.307,1.313,29.14,-0.04568,0.69928,0.07184,0.70969,458
115,0.94,-0.073,0.39,-0.366,-0.183,0.061,-10.349,-67.115,-172.881,-26.2,-8.507,-12.527,26.79,0.00037,0.55405,-0.04214,0.83136,455,0.887,-0.028,0.457,0.061,0.61,0.732,-3.384,-62.99,-121.613,-26.04,-9.52,3.373,25.82,0.40164,-0.46854,-0.23331,-0.7514,461,0.374,-0.059,0.918,3.601,-0.916,1.404,-3.582,-22.495,167.509,-10.6,-9.627,-32.98,26.67,0.11484,0.19022,-0.05322,0.97351,463,0.984,0.033,0.009,-0.244,0.061,0.244,72.966,-87.72,116.565,-30.187,-12.307,1.313,29.14,-0.04568,0.69928,0.07184,0.70969,459
116,0.94,-0.072,0.393,-0.244,0.0,0.0,-10.36,-67.115,-172.848,-26.2,-8.507,-12.527,26.79,0.00037,0.55405,-0.04214,0.83136,464,0.89,-0.026,0.458,-0.183,0.427,0.854,-3.422,-62.985,-121.591,-26.04,-9.52,3.373,25.82,0.40164,-0.46854,-0.23331,-0.7514,466,0.377,-0.057,0.92,3.601,-0.549,1.099,-3.521,-22.5,167.563,-10.6,-9.627,-32.98,26.67,0.11484,0.19022,-0.05322,0.97351,470,0.986,0.034,0.014,-0.488,0.0,0.183,72.9,-87.726,116.653,-30.187,-12.307,1.313,29.14,-0.04568,0.69928,0.07184,0.70969,468
117,0.937,-0.072,0.396,-0.061,0.183,0.0,-10.366,-67.115,-172.826,-26.2,-8.507,-12.527,26.79,0.00037,0.55405,-0.04214,0.83136,465,0.895,-0.028,0.458,-0.366,0.244,1.038,-3.466,-62.974,-121.553,-26.04,-9.52,3.373,25.82,0.40164,-0.46854,-0.23331,-0.7514,467,0.386,-0.056,0.916,3.418,-1.343,1.038,-3.466,-22.522,167.618,-10.6,-9.627,-32.98,26.67,0.11484,0.19022,-0.05322,0.97351,471,0.987,0.033,0.017,-0.366,-0.061,0.183,72.856,-87.731,116.713,-30.187,-12.307,1.313,29.14,-0.04568,0.69928,0.07184,0.70969,469
118,0.937,-0.073,0.396,-0.061,0.122,-0.122,-10.366,-67.11,-172.804,-26.2,-8.507,-12.527,26.79,0.00037,0.55405,-0.04214,0.83136,476,0.899,-0.029,0.457,-0.244,0.366,1.282,-3.521,-62.963,-121.509,-26.04,-9.52,3.373,25.82,0.40164,-0.46854,-0.23331,-0.7514,472,0.389,-0.06,0.918,4.517,-1.892,1.16,-3.389,-22.56,167.673,-10.6,-9.627,-32.98,26.67,0.11484,0.19022,-0.05322,0.97351,478,0.987,0.034,0.021,-0.305,-0.061,0.183,72.817,-87.737,116.752,-30.187,-12.307,1.313,29.14,-0.04568,0.69928,0.07184,0.70969,474
119,0.937,-0.073,0.395,-0.061,0.061,-0.122,-10.36,-67.11,-172.782,-26.2,-8.507,-12.527,26.79,0.00037,0.55405,-0.04214,0.83136,477,0.898,-0.029,0.454,-0.549,0.427,1.221,-3.576,-62.952,-121.465,-26.04,-9.52,3.373,25.82,0.40164,-0.46854,-0.23331,-0.7514,473,0.387,-0.065,0.917,6.47,-1.404,0.916,-3.274,-22.582,167.723,-10.6,-9.627,-32.98,26.67,0.11484,0.19022,-0.05322,0.97351,479,0.988,0.035,0.02,-0.366,0.122,0.366,72.729,-87.742,116.862,-30.187,-12.307,1.313,29.14,-0.04568,0.69928,0.07184,0.70969,475
120,0.94,-0.073,0.396,-0.244,-0.427,-0.061,-10.36,-67.11,-172.766,-26.387,-8.62,-12.113,26.79,0.00037,0.55405,-0.04214,0.83136,480,0.895,-0.035,0.452,-0.488,0.61,0.854,-3.62,-62.941,-121.437,-26.04,-9.52,3.373,25.82,0.40164,-0.46854,-0.23331,-0.7514,484,0.383,-0.06,0.915,8.118,-1.282,1.282,-3.131,-22.61,167.761,-10.6,-9.627,-32.98,26.67,0.11484,0.19022,-0.05322,0.97351,486,0.985,0.034,0.009,0.0,0.549,0.427,72.482,-87.748,117.136,-30.187,-12.307,1.313,29.14,-0.04568,0.69928,0.07184,0.70969,482
121,0.941,-0.073,0.392,-0.244,-0.366,-0.122,-10.366,-67.115,-172.738,-26.387,-8.62,-12.113,26.79,0.00037,0.55405,-0.04214,0.83136,481,0.891,-0.035,0.454,-0.061,1.038,0.61,-3.642,-62.919,-121.421,-26.04,-9.52,3.373,25.82,0.40164,-0.46854,-0.23331,-0.7514,485,0.378,-0.048,0.918,6.47,-1.282,1.343,-3.021,-22.632,167.794,-10.6,-9.627,-32.98,26.67,0.11484,0.19022,-0.05322,0.97351,487,0.985,0.032,0.01,0.183,0.793,0.183,72.076,-87.753,117.554,-30.187,-12.307,1.313,29.14,-0.04568,0.69928,0.07184,0.70969,483
122,0.94,-0.072,0.393,0.0,0.0,-0.244,-10.366,-67.115,-172.722,-26.387,-8.62,-12.113,26.79,0.00037,0.55405,-0.04214,0.83136,488,0.892,-0.032,0.456,-0.061,1.16,0.793,-3.675,-62.897,-121.41,-25.547,-9.813,2.907,25.82,0.40164,-0.46854,-0.23331,-0.7514,490,0.381,-0.045,0.923,2.991,-1.709,1.038,-2.977,-22.665,167.822,-10.6,-9.627,-32.98,26.67,0.11484,0.19022,-0.05322,0.97351,496,0.986,0.033,0.012,-0.061,0.61,0.0,71.653,-87.748,117.977,-30.187,-12.307,1.313,29.14,-0.04568,0.69928,0.07184,0.70969,492
123,0.939,-0.071,0.394,0.122,0.122,-0.305,-10.355,-67.115,-172.711,-26.387,-8.62,-12.113,26.79,0.00037,0.55405,-0.04214,0.83136,489,0.893,-0.031,0.459,-0.244,0.916,0.916,-3.713,-62.875,-121.388,-25.547,-9.813,2.907,25.82,0.40164,-0.46854,-0.23331,-0.7514,491,0.38,-0.045,0.925,-0.061,-2.625,0.793,-2.988,-22.714,167.866,-10.6,-9.627,-32.98,26.67,0.11484,0.19022,-0.05322,0.97351,497,0.986,0.037,0.017,-0.549,0.427,0.0,71.345,-87.748,118.273,-30.187,-12.307,1.313,29.14,-0.04568,0.69928,0.07184,0.70969,493
124,0.939,-0.069,0.392,0.183,0.305,-0.305,-10.338,-67.11,-172.7,-26.387,-8.62,-12.113,26.79,-0.00302,0.55417,-0.03998,0.83139,494,0.889,-0.027,0.464,-0.549,0.977,0.793,-3.752,-62.858,-121.371,-25.547,-9.813,2.907,25.82,0.40164,-0.46854,-0.23331,-0.7514,500,0.38,-0.048,0.928,-0.488,-2.258,0.488,-3.005,-22.753,167.888,-10.64,-9.827,-32.393,26.67,0.11484,0.19022,-0.05322,0.97351,502,0.986,0.039,0.018,-0.61,0.122,0.061,71.125,-87.748,118.455,-30.187,-12.307,1.313,29.14,-0.04568,0.69928,0.07184,0.70969,498
125,0.939,-0.07,0.389,-0.061,0.0,-0.244,-10.316,-67.104,-172.694,-26.387,-8.62,-12.113,26.79,-0.00302,0.55417,-0.03998,0.83139,495,0.887,-0.026,0.465,-0.732,0.977,0.671,-3.79,-62.836,-121.349,-25.547,-9.813,2.907,25.82,0.40164,-0.46854,-0.23331,-0.7514,501,0.378,-0.047,0.926,0.427,-1.221,0.183,-3.005,-22.775,167.915,-10.64,-9.827,-32.393,26.67,0.11484,0.19022,-0.05322,0.97351,503,0.982,0.036,0.016,-0.366,0.0,0.244,71.01,-87.748,118.548,-30.187,-12.307,1.313,29.14,-0.04568,0.69928,0.07184,0.70969,499
126,0.941,-0.071,0.391,-0.488,-0.488,-0.244,-10.311,-67.11,-172.683,-26.387,-8.62,-12.113,26.79,-0.00302,0.55417,-0.03998,0.83139,504,0.885,-0.029,0.463,-0.793,0.977,0.549,-3.823,-62.814,-121.333,-25.547,-9.813,2.907,25.82,0.40265,-0.46805,-0.23047,-0.75204,506,0.378,-0.045,0.919,-0.244,-0.977,-0.061,-3.01,-22.791,167.937,-10.64,-9.827,-32.393,26.67,0.11484,0.19022,-0.05322,0.97351,510,0.981,0.034,0.017,-0.122,-0.427,0.244,70.972,-87.753,118.564,-30.187,-12.307,1.313,29.14,-0.04568,0.69928,0.07184,0.70969,508
127,0.939,-0.072,0.389,-0.427,-0.549,-0.183,-10.316,-67.115,-172.667,-26.387,-8.62,-12.113,26.79,-0.00302,0.55417,-0.03998,0.83139,505,0.884,-0.033,0.46,-0.61,0.854,0.671,-3.856,-62.792,-121.322,-25.547,-9.813,2.907,25.82,0.40265,-0.46805,-0.23047,-0.75204,507,0.385,-0.048,0.916,-1.831,-1.038,-0.122,-3.049,-22.808,167.943,-10.64,-9.827,-32.393,26.67,0.11484,0.19022,-0.05322,0.97351,511,0.981,0.034,0.014,0.061,-0.854,0.0,71.142,-87.759,118.394,-30.187,-12.307,1.313,29.14,-0.04568,0.69928,0.07184,0.70969,509
128,0.939,-0.071,0.391,0.0,-0.244,0.0,-10.316,-67.126,-172.645,-26.387,-8.62,-12.113,26.79,-0.00302,0.55417,-0.03998,0.83139,512,0.891,-0.034,0.458,-0.671,0.305,0.793,-3.9,-62.787,-121.3,-25.547,-9.813,2.907,25.82,0.40265,-0.46805,-0.23047,-0.75204,514,0.387,-0.053,0.913,-1.953,0.183,-0.061,-3.087,-22.797,167.943,-10.64,-9.827,-32.393,26.67,0.10809,0.19379,-0.0466,0.97391,520,0.986,0.035,0.014,0.183,-0.854,-0.183,71.51,-87.764,118.026,-29.973,-12.407,1.7,29.14,-0.04568,0.69928,0.07184,0.70969,516
129,0.939,-0.071,0.394,0.366,0.122,0.0,-10.316,-67.126,-172.623,-26.387,-8.62,-12.113,26.79,-0.00302,0.55417,-0.03998,0.83139,513,0.893,-0.033,0.457,-0.61,0.061,0.732,-3.939,-62.781,-121.289,-25.547,-9.813,2.907,25.82,0.40265,-0.46805,-0.23047,-0.75204,515,0.387,-0.053,0.913,-0.061,0.061,0.0,-3.087,-22.797,167.926,-10.64,-9.827,-32.393,26.67,0.10809,0.19379,-0.0466,0.97391,521,0.987,0.035,0.009,-0.244,-0.977,-0.061,71.911,-87.77,117.625,-29.973,-12.407,1.7,29.14,-0.04568,0.69928,0.07184,0.70969,517
130,0.94,-0.071,0.392,0.061,0.366,-0.061,-10.305,-67.121,-172.606,-26.387,-8.62,-12.113,26.79,-0.00302,0.55417,-0.03998,0.83139,518,0.895,-0.032,0.456,-0.488,0.366,0.61,-3.972,-62.77,-121.278,-25.547,-9.813,2.907,25.82,0.40265,-0.46805,-0.23047,-0.75204,522,0.396,-0.051,0.916,1.16,-0.793,0.244,-3.071,-22.808,167.904,-10.64,-9.827,-32.393,26.67,0.10809,0.19379,-0.0466,0.97391,528,0.988,0.033,0.011,-0.061,-0.732,0.061,72.312,-87.775,117.23,-29.973,-12.407,1.7,29.14,-0.04614,0.69925,0.0715,0.70972,524
131,0.94,-0.071,0.395,-0.305,0.183,-0.183,-10.3,-67.115,-172.59,-26.387,-8.62,-12.113,26.79,-0.00302,0.55417,-0.03998,0.83139,519,0.9,-0.036,0.455,-0.061,0.549,0.732,-3.999,-62.759,-121.262,-25.547,-9.813,2.907,25.82,0.40265,-0.46805,-0.23047,-0.75204,523,0.395,-0.052,0.916,0.427,-1.343,0.549,-3.071,-22.83,167.882,-10.64,-9.827,-32.393,26.67,0.10809,0.19379,-0.0466,0.97391,529,0.989,0.034,0.016,0.305,-0.244,0.0,72.565,-87.781,116.988,-29.973,-12.407,1.7,29.14,-0.04614,0.69925,0.0715,0.70972,525
132,0.939,-0.07,0.395,-0.366,0.061,-0.122,-10.3,-67.11,-172.579,-26.387,-8.62,-12.113,26.79,-0.00302,0.55417,-0.03998,0.83139,526,0.898,-0.039,0.455,0.183,0.488,0.793,-4.026,-62.748,-121.24,-25.547,-9.813,2.907,25.82,0.40265,-0.46805,-0.23047,-0.75204,530,0.39,-0.051,0.917,-1.465,-1.343,0.793,-3.104,-22.857,167.866,-10.64,-9.827,-32.393,26.67,0.10809,0.19379,-0.0466,0.97391,532,0.987,0.035,0.017,0.427,0.061,-0.122,72.609,-87.781,116.955,-29.973,-12.407,1.7,29.14,-0.04614,0.69925,0.0715,0.70972,534
133,0.938,-0.069,0.392,0.061,0.0,0.0,-10.3,-67.11,-172.562,-26.387,-8.62,-12.113,26.79,-0.00302,0.55417,-0.03998,0.83139,527,0.895,-0.034,0.457,-0.122,0.488,0.671,-4.054,-62.737,-121.212,-25.547,-9.813,2.907,25.82,0.40265,-0.46805,-0.23047,-0.75204,531,0.388,-0.054,0.917,-1.526,-0.793,0.549,-3.142,-22.874,167.844,-10.64,-9.827,-32.393,26.67,0.10809,0.19379,-0.0466,0.97391,533,0.986,0.036,0.016,0.183,0.0,-0.183,72.554,-87.775,117.01,-29.973,-12.407,1.7,29.14,-0.04614,0.69925,0.0715,0.70972,535
134,0.94,-0.071,0.39,0.244,-0.122,0.0,-10.3,-67.11,-172.54,-26.387,-8.62,-12.113,26.79,-0.00302,0.55417,-0.03998,0.83139,536,0.891,-0.032,0.459,-0.427,0.671,0.488,-4.081,-62.726,-121.19,-25.547,-9.813,2.907,25.82,0.40265,-0.46805,-0.23047,-0.75204,540,0.385,-0.052,0.918,-0.122,-0.61,0.549,-3.153,-22.885,167.827,-10.64,-9.827,-32.393,26.67,0.10809,0.19379,-0.0466,0.97391,542,0.985,0.036,0.012,-0.183,0.0,-0.122,72.521,-87.775,117.037,-29.973,-12.407,1.7,29.14,-0.04614,0.69925,0.0715,0.70972,538
135,0.941,-0.073,0.392,0.0,-0.549,-0.061,-10.294,-67.115,-172.518,-26.387,-8.62,-12.113,26.79,-0.00302,0.55417,-0.03998,0.83139,537,0.889,-0.031,0.46,-0.305,0.854,0.305,-4.098,-62.71,-121.179,-25.547,-9.813,2.907,25.82,0.40265,-0.46805,-0.23047,-0.75204,541,0.384,-0.046,0.917,0.305,-1.038,0.61,-3.153,-22.906,167.838,-10.64,-9.827,-32.393,26.67,0.10809,0.19379,-0.0466,0.97391,543,0.984,0.035,0.008,-0.244,0.0,0.061,72.466,-87.775,117.087,-29.973,-12.407,1.7,29.14,-0.04614,0.69925,0.0715,0.70972,539
136,0.942,-0.072,0.391,-0.183,-0.488,-0.183,-10.294,-67.121,-172.496,-26.387,-8.62,-12.113,26.79,-0.00302,0.55417,-0.03998,0.83139,546,0.886,-0.031,0.459,0.0,0.854,0.427,-4.109,-62.693,-121.174,-25.547,-9.813,2.907,25.82,0.40265,-0.46805,-0.23047,-0.75204,544,0.387,-0.044,0.916,-0.793,-1.526,0.61,-3.175,-22.934,167.849,-10.64,-9.827,-32.393,26.67,0.10809,0.19379,-0.0466,0.97391,550,0.984,0.034,0.003,0.0,0.0,0.122,72.422,-87.775,117.153,-29.973,-12.407,1.7,29.14,-0.04614,0.69925,0.0715,0.70972,548
137,0.941,-0.071,0.389,-0.122,0.0,-0.183,-10.294,-67.126,-172.485,-26.387,-8.62,-12.113,26.79,-0.00302,0.55417,-0.03998,0.83139,547,0.89,-0.032,0.458,0.0,0.549,0.732,-4.136,-62.682,-121.135,-25.547,-9.813,2.907,25.82,0.40265,-0.46805,-0.23047,-0.75204,545,0.396,-0.048,0.917,-2.258,-1.038,0.244,-3.219,-22.95,167.855,-10.64,-9.827,-32.393,26.67,0.10809,0.19379,-0.0466,0.97391,551,0.985,0.034,0.006,1.099,0.061,0.122,72.394,-87.781,117.235,-29.973,-12.407,1.7,29.14,-0.04614,0.69925,0.0715,0.70972,549
138,0.94,-0.069,0.39,0.244,0.549,0.0,-10.283,-67.121,-172.469,-26.173,-9.307,-12.193,26.79,-0.00302,0.55417,-0.03998,0.83139,554,0.899,-0.034,0.456,-0.183,0.0,0.916,-4.175,-62.677,-121.091,-25.547,-9.813,2.907,25.82,0.40265,-0.46805,-0.23047,-0.75204,556,0.403,-0.053,0.911,-1.831,-0.916,0.0,-3.257,-22.972,167.855,-10.64,-9.827,-32.393,26.67,0.10809,0.19379,-0.0466,0.97391,558,0.989,0.037,0.016,2.502,0.366,0.183,72.307,-87.781,117.4,-29.973,-12.407,1.7,29.14,-0.04614,0.69925,0.0715,0.70972,552
139,0.939,-0.07,0.392,0.305,0.488,0.183,-10.278,-67.11,-172.452,-26.173,-9.307,-12.193,26.79,-0.00302,0.55417,-0.03998,0.83139,555,0.898,-0.031,0.454,-0.549,-0.244,0.977,-4.224,-62.682,-121.053,-25.547,-9.813,2.907,25.82,0.40265,-0.46805,-0.23047,-0.75204,557,0.396,-0.055,0.912,-0.122,-1.404,0.061,-3.257,-23.0,167.855,-10.64,-9.827,-32.393,26.67,0.10809,0.19379,-0.0466,0.97391,559,0.987,0.038,0.015,1.709,0.427,0.244,72.114,-87.786,117.647,-29.973,-12.407,1.7,29.14,-0.04614,0.69925,0.0715,0.70972,553
140,0.938,-0.072,0.393,0.061,0.0,0.305,-10.283,-67.104,-172.419,-26.173,-9.307,-12.193,26.79,-0.00543,0.5542,-0.03815,0.83142,562,0.893,-0.034,0.456,-0.488,0.183,0.671,-4.257,-62.682,-121.02,-25.393,-9.453,3.347,25.82,0.40265,-0.46805,-0.23047,-0.75204,564,0.395,-0.055,0.91,-0.916,0.366,0.977,-3.263,-22.978,167.849,-10.607,-9.307,-31.34,26.67,0.10809,0.19379,-0.0466,0.97391,566,0.984,0.033,0.015,0.122,-0.061,0.427,71.977,-87.792,117.79,-29.973,-12.407,1.7,29.14,-0.04614,0.69925,0.0715,0.70972,560
141,0.938,-0.073,0.392,0.061,-0.183,0.061,-10.294,-67.104,-172.392,-26.173,-9.307,-12.193,26.79,-0.00543,0.5542,-0.03815,0.83142,563,0.893,-0.044,0.454,1.099,1.221,0.732,-4.268,-62.666,-120.998,-25.393,-9.453,3.347,25.82,0.40265,-0.46805,-0.23047,-0.75204,565,0.393,-0.056,0.919,-1.953,-0.305,1.587,-3.296,-22.972,167.871,-10.607,-9.307,-31.34,26.67,0.10809,0.19379,-0.0466,0.97391,567,0.983,0.029,0.011,-0.061,0.61,0.366,71.757,-87.797,118.021,-29.973,-12.407,1.7,29.14,-0.04614,0.69925,0.0715,0.70972,561
142,0.941,-0.073,0.389,0.0,-0.244,0.0,-10.294,-67.11,-172.37,-26.173,-9.307,-12.193,26.79,-0.00543,0.5542,-0.03815,0.83142,568,0.896,-0.036,0.458,1.16,0.793,0.977,-4.274,-62.644,-120.954,-25.393,-9.453,3.347,25.82,0.40265,-0.46805,-0.23047,-0.75204,572,0.396,-0.058,0.918,-0.671,0.366,1.404,-3.34,-22.978,167.91,-10.607,-9.307,-31.34,26.67,0.10809,0.19379,-0.0466,0.97391,580,0.987,0.032,0.007,0.366,1.038,0.244,71.285,-87.797,118.51,-30.0,-12.487,1.64,29.14,-0.04614,0.69925,0.0715,0.70972,570
143,0.943,-0.069,0.386,-0.305,0.061,-0.061,-10.3,-67.11,-172.348,-26.173,-9.307,-12.193,26.79,-0.00543,0.5542,-0.03815,0.83142,569,0.897,-0.033,0.458,1.099,0.366,0.854,-4.29,-62.633,-120.91,-25.393,-9.453,3.347,25.82,0.40265,-0.46805,-0.23047,-0.75204,573,0.395,-0.058,0.915,1.77,-0.122,1.282,-3.356,-22.972,167.948,-10.607,-9.307,-31.34,26.67,0.10809,0.19379,-0.0466,0.97391,581,0.991,0.037,0.008,0.671,0.977,0.0,70.785,-87.797,119.042,-30.0,-12.487,1.64,29.14,-0.04614,0.69925,0.0715,0.70972,571
144,0.943,-0.066,0.391,-0.366,0.0,0.0,-10.305,-67.11,-172.332,-26.173,-9.307,-12.193,26.79,-0.00543,0.5542,-0.03815,0.83142,578,0.894,-0.033,0.459,1.099,0.61,0.549,-4.296,-62.628,-120.866,-25.393,-9.453,3.347,25.82,0.4043,-0.4675,-0.22839,-0.75214,576,0.39,-0.051,0.917,2.563,0.488,0.977,-3.329,-22.978,167.981,-10.607,-9.307,-31.34,26.67,0.1084,0.19498,-0.04929,0.97351,588,0.989,0.039,0.008,0.427,0.977,0.0,70.34,-87.792,119.504,-30.0,-12.487,1.64,29.14,-0.04614,0.69925,0.0715,0.70972,574
145,0.941,-0.069,0.391,0.061,0.0,0.183,-10.311,-67.11,-172.31,-26.173,-9.307,-12.193,26.79,-0.00543,0.5542,-0.03815,0.83142,579,0.889,-0.032,0.458,0.549,0.671,0.366,-4.296,-62.617,-120.833,-25.393,-9.453,3.347,25.82,0.4043,-0.4675,-0.22839,-0.75214,577,0.385,-0.049,0.915,1.16,1.16,0.244,-3.29,-22.967,167.992,-10.607,-9.307,-31.34,26.67,0.1084,0.19498,-0.04929,0.97351,589,0.985,0.036,0.013,0.122,1.099,0.183,69.857,-87.786,119.987,-30.0,-12.487,1.64,29.14,-0.04614,0.69925,0.0715,0.70972,575
146,0.939,-0.073,0.388,0.244,-0.122,0.244,-10.316,-67.11,-172.282,-26.173,-9.307,-12.193,26.79,-0.00543,0.5542,-0.03815,0.83142,584,0.885,-0.032,0.46,0.488,0.427,0.366,-4.296,-62.606,-120.817,-25.393,-9.453,3.347,25.82,0.4043,-0.4675,-0.22839,-0.75214,586,0.383,-0.051,0.915,0.671,1.709,0.122,-3.268,-22.939,167.986,-10.607,-9.307,-31.34,26.67,0.1084,0.19498,-0.04929,0.97351,592,0.982,0.033,0.015,-0.183,0.793,0.427,69.379,-87.786,120.493,-30.0,-12.487,1.64,29.14,-0.04614,0.69925,0.0715,0.70972,582
147,0.938,-0.074,0.389,-0.122,0.0,0.061,-10.322,-67.11,-172.255,-26.173,-9.307,-12.193,26.79,-0.00543,0.5542,-0.03815,0.83142,585,0.884,-0.034,0.46,0.366,0.488,0.366,-4.301,-62.6,-120.811,-25.393,-9.453,3.347,25.82,0.4043,-0.4675,-0.22839,-0.75214,587,0.381,-0.05,0.914,0.0,1.709,0.244,-3.263,-22.912,167.975,-10.607,-9.307,-31.34,26.67,0.1084,0.19498,-0.04929,0.97351,593,0.981,0.034,0.014,-0.305,0.305,0.488,69.049,-87.792,120.877,-30.0,-12.487,1.64,29.14,-0.04614,0.69925,0.0715,0.70972,583
148,0.938,-0.072,0.391,-0.61,0.244,0.0,-10.333,-67.11,-172.238,-26.173,-9.307,-12.193,26.79,-0.00543,0.5542,-0.03815,0.83142,590,0.886,-0.034,0.459,0.244,0.244,0.305,-4.307,-62.595,-120.806,-25.393,-9.453,3.347,25.82,0.4043,-0.4675,-0.22839,-0.75214,598,0.383,-0.053,0.913,-0.61,1.282,0.061,-3.263,-22.879,167.964,-10.607,-9.307,-31.34,26.67,0.1084,0.19498,-0.04929,0.97351,602,0.982,0.036,0.016,-0.061,0.244,0.61,68.829,-87.797,121.146,-30.0,-12.487,1.64,29.14,-0.04886,0.69833,0.07339,0.71024,594
149,0.94,-0.07,0.393,-0.305,0.183,0.061,-10.338,-67.104,-172.216,-26.173,-9.307,-12.193,26.79,-0.00543,0.5542,-0.03815,0.83142,591,0.889,-0.037,0.462,0.061,0.183,0.244,-4.312,-62.589,-120.8,-25.393,-9.453,3.347,25.82,0.4043,-0.4675,-0.22839,-0.75214,599,0.387,-0.056,0.916,-0.305,1.221,0.061,-3.274,-22.857,167.953,-10.607,-9.307,-31.34,26.67,0.1084,0.19498,-0.04929,0.97351,603,0.984,0.034,0.016,0.061,0.305,0.549,68.599,-87.808,121.399,-30.0,-12.487,1.64,29.14,-0.04886,0.69833,0.07339,0.71024,595
150,0.939,-0.069,0.393,0.122,0.183,0.305,-10.349,-67.099,-172.194,-26.173,-9.307,-12.193,26.79,-0.00543,0.5542,-0.03815,0.83142,596,0.893,-0.04,0.462,-0.061,0.122,0.305,-4.318,-62.584,-120.789,-25.393,-9.453,3.347,25.82,0.4043,-0.4675,-0.22839,-0.75214,600,0.387,-0.058,0.916,0.305,0.977,0.183,-3.279,-22.835,167.948,-10.607,-9.307,-31.34,26.67,0.1084,0.19498,-0.04929,0.97351,608,0.985,0.031,0.015,0.0,0.244,0.366,68.384,-87.814,121.635,-30.0,-12.487,1.64,29.14,-0.04886,0.69833,0.07339,0.71024,604
151,0.938,-0.072,0.393,0.366,0.244,0.366,-10.355,-67.094,-172.161,-26.173,-9.307,-12.193,26.79,-0.00543,0.5542,-0.03815,0.83142,597,0.893,-0.041,0.463,-0.061,0.183,0.366,-4.334,-62.584,-120.778,-25.393,-9.453,3.347,25.82,0.4043,-0.4675,-0.22839,-0.75214,601,0.387,-0.058,0.92,0.671,0.854,0.244,-3.274,-22.813,167.932,-10.607,-9.307,-31.34,26.67,0.1084,0.19498,-0.04929,0.97351,609,0.987,0.03,0.018,-0.122,0.305,0.305,68.181,-87.819,121.833,-30.0,-12.487,1.64,29.14,-0.04886,0.69833,0.07339,0.71024,605
152,0.938,-0.073,0.393,-0.122,0.122,0.122,-10.366,-67.088,-172.134,-26.173,-9.307,-12.193,26.79,-0.00543,0.5542,-0.03815,0.83142,606,0.892,-0.04,0.463,0.0,0.122,0.244,-4.351,-62.578,-120.767,-25.393,-9.453,3.347,25.82,0.4043,-0.4675,-0.22839,-0.75214,612,0.384,-0.057,0.919,0.854,1.16,0.427,-3.263,-22.797,167.921,-10.607,-9.307,-31.34,26.67,0.1084,0.19498,-0.04929,0.97351,614,0.987,0.032,0.021,-0.305,0.183,0.305,67.972,-87.825,122.031,-30.0,-12.487,1.64,29.14,-0.04886,0.69833,0.07339,0.71024,610
153,0.94,-0.072,0.394,-0.61,-0.061,0.0,-10.371,-67.088,-172.112,-26.173,-9.307,-12.193,26.79,-0.00543,0.5542,-0.03815,0.83142,607,0.889,-0.04,0.464,0.366,0.122,0.122,-4.356,-62.578,-120.762,-25.393,-9.453,3.347,25.82,0.4043,-0.4675,-0.22839,-0.75214,613,0.384,-0.055,0.916,0.977,1.16,0.305,-3.252,-22.775,167.932,-10.607,-9.307,-31.34,26.67,0.1084,0.19498,-0.04929,0.97351,615,0.987,0.033,0.021,-0.305,0.0,0.244,67.852,-87.83,122.157,-30.0,-12.487,1.64,29.14,-0.04886,0.69833,0.07339,0.71024,611
154,0.94,-0.071,0.391,-0.305,-0.244,0.122,-10.388,-67.088,-172.095,-26.173,-9.307,-12.193,26.79,-0.00543,0.5542,-0.03815,0.83142,620,0.89,-0.035,0.461,0.488,0.183,0.0,-4.356,-62.573,-120.756,-25.393,-9.453,3.347,25.82,0.4043,-0.4675,-0.22839,-0.75214,616,0.386,-0.049,0.917,0.977,1.038,0.427,-3.235,-22.753,167.948,-10.607,-9.307,-31.34,26.67,0.1084,0.19498,-0.04929,0.97351,622,0.984,0.035,0.013,0.061,0.0,0.183,67.769,-87.83,122.261,-30.0,-12.487,1.64,29.14,-0.04886,0.69833,0.07339,0.71024,618
155,0.939,-0.071,0.393,0.122,-0.244,0.305,-10.399,-67.094,-172.062,-26.173,-9.307,-12.193,26.79,-0.00543,0.5542,-0.03815,0.83142,621,0.893,-0.034,0.461,0.671,0.0,0.061,-4.351,-62.567,-120.756,-25.393,-9.453,3.347,25.82,0.4043,-0.4675,-0.22839,-0.75214,617,0.386,-0.046,0.919,-0.122,0.793,0.488,-3.23,-22.736,167.959,-10.607,-9.307,-31.34,26.67,0.1084,0.19498,-0.04929,0.97351,623,0.986,0.032,0.013,0.366,0.183,0.122,67.643,-87.836,122.41,-30.0,-12.487,1.64,29.14,-0.04886,0.69833,0.07339,0.71024,619
156,0.938,-0.073,0.396,0.183,-0.061,0.244,-10.41,-67.094,-172.029,-26.173,-9.307,-12.193,26.79,-0.00543,0.5542,-0.03815,0.83142,628,0.891,-0.034,0.463,0.366,0.122,0.305,-4.345,-62.567,-120.762,-25.393,-9.453,3.347,25.82,0.4043,-0.4675,-0.22839,-0.75214,624,0.381,-0.05,0.921,-1.404,0.793,0.183,-3.241,-22.72,167.975,-10.607,-9.307,-31.34,26.67,0.1084,0.19498,-0.04929,0.97351,630,0.988,0.03,0.017,0.061,0.122,0.122,67.522,-87.836,122.558,-30.0,-12.487,1.64,29.14,-0.04886,0.69833,0.07339,0.71024,626
157,0.938,-0.074,0.395,0.061,0.183,0.183,-10.415,-67.088,-172.007,-26.173,-9.307,-12.193,26.79,-0.00543,0.5542,-0.03815,0.83142,629,0.889,-0.034,0.465,-0.244,0.183,0.427,-4.356,-62.562,-120.756,-25.393,-9.453,3.347,25.82,0.4043,-0.4675,-0.22839,-0.75214,625,0.377,-0.054,0.92,-1.038,0.977,-0.061,-3.268,-22.703,167.986,-10.607,-9.307,-31.34,26.67,0.1084,0.19498,-0.04929,0.97351,631,0.988,0.029,0.02,-0.244,0.183,0.244,67.352,-87.841,122.761,-30.0,-12.487,1.64,29.14,-0.04886,0.69833,0.07339,0.71024,627
158,0.938,-0.073,0.394,-0.122,0.0,0.061,-10.421,-67.088,-171.985,-26.407,-8.633,-12.1,26.79,-0.00543,0.5542,-0.03815,0.83142,632,0.883,-0.034,0.466,-0.671,0.305,0.366,-4.378,-62.556,-120.734,-25.393,-9.453,3.347,25.82,0.4043,-0.4675,-0.22839,-0.75214,636,0.375,-0.054,0.92,-0.488,1.282,-0.305,-3.285,-22.681,167.981,-10.607,-9.307,-31.34,26.67,0.1084,0.19498,-0.04929,0.97351,642,0.985,0.032,0.018,-0.305,0.122,0.488,67.137,-87.847,123.014,-30.0,-12.487,1.64,29.14,-0.04886,0.69833,0.07339,0.71024,634
159,0.94,-0.073,0.393,-0.244,-0.244,0.0,-10.426,-67.088,-171.964,-26.407,-8.633,-12.1,26.79,-0.00543,0.5542,-0.03815,0.83142,633,0.882,-0.036,0.464,-0.61,0.305,0.122,-4.4,-62.551,-120.729,-25.393,-9.453,3.347,25.82,0.4043,-0.4675,-0.22839,-0.75214,637,0.378,-0.055,0.916,-1.221,1.709,-0.427,-3.296,-22.654,167.975,-10.607,-9.307,-31.34,26.67,0.1084,0.19498,-0.04929,0.97351,643,0.98,0.033,0.018,-0.305,0.0,0.61,66.94,-87.858,123.234,-30.0,-12.487,1.64,29.14,-0.04886,0.69833,0.07339,0.71024,635
160,0.94,-0.072,0.392,-0.061,-0.305,0.061,-10.437,-67.088,-171.947,-26.407,-8.633,-12.1,26.79,-0.00543,0.5542,-0.03815,0.83142,638,0.885,-0.042,0.461,-0.366,0.061,0.061,-4.417,-62.545,-120.718,-25.593,-9.46,3.62,25.82,0.4043,-0.4675,-0.22839,-0.75214,640,0.381,-0.059,0.916,-1.953,1.221,-0.122,-3.318,-22.621,167.975,-10.873,-9.113,-31.953,26.67,0.1084,0.19498,-0.04929,0.97351,648,0.981,0.032,0.014,-0.244,-0.244,0.549,66.852,-87.869,123.327,-30.24,-12.38,1.647,29.14,-0.04886,0.69833,0.07339,0.71024,644
161,0.939,-0.072,0.391,0.061,-0.122,0.122,-10.443,-67.094,-171.925,-26.407,-8.633,-12.1,26.79,-0.00543,0.5542,-0.03815,0.83142,639,0.891,-0.043,0.462,0.0,-0.061,0.183,-4.427,-62.54,-120.718,-25.593,-9.46,3.62,25.82,0.4043,-0.4675,-0.22839,-0.75214,641,0.385,-0.06,0.917,-1.526,0.977,0.305,-3.356,-22.599,167.981,-10.873,-9.113,-31.953,26.67,0.1084,0.19498,-0.04929,0.97351,649,0.984,0.029,0.016,-0.305,-0.427,0.305,66.907,-87.88,123.289,-30.24,-12.38,1.647,29.14,-0.04886,0.69833,0.07339,0.71024,645
162,0.938,-0.072,0.391,0.122,0.0,0.122,-10.443,-67.088,-171.903,-26.407,-8.633,-12.1,26.79,-0.0083,0.55426,-0.03687,0.83142,646,0.893,-0.042,0.463,0.0,-0.122,0.305,-4.438,-62.54,-120.718,-25.593,-9.46,3.62,25.82,0.4043,-0.4675,-0.22839,-0.75214,654,0.384,-0.059,0.919,-0.671,0.916,0.671,-3.384,-22.577,168.008,-10.873,-9.113,-31.953,26.67,0.1084,0.19498,-0.04929,0.97351,656,0.987,0.027,0.018,-0.427,-0.366,0.122,67.0,-87.885,123.239,-30.24,-12.38,1.647,29.14,-0.04886,0.69833,0.07339,0.71024,650
163,0.938,-0.073,0.393,-0.122,-0.061,0.0,-10.448,-67.088,-171.887,-26.407,-8.633,-12.1,26.79,-0.0083,0.55426,-0.03687,0.83142,647,0.894,-0.04,0.462,0.427,0.0,0.427,-4.449,-62.54,-120.707,-25.593,-9.46,3.62,25.82,0.4043,-0.4675,-0.22839,-0.75214,655,0.385,-0.058,0.918,-0.366,1.099,0.977,-3.406,-22.56,168.052,-10.873,-9.113,-31.953,26.67,0.1084,0.19498,-0.04929,0.97351,657,0.988,0.03,0.017,-0.671,-0.427,0.0,67.121,-87.891,123.124,-30.24,-12.38,1.647,29.14,-0.04886,0.69833,0.07339,0.71024,651
164,0.941,-0.072,0.393,-0.427,-0.244,0.0,-10.459,-67.094,-171.87,-26.407,-8.633,-12.1,26.79,-0.0083,0.55426,-0.03687,0.83142,652,0.893,-0.039,0.46,0.916,0.0,0.427,-4.46,-62.54,-120.679,-25.593,-9.46,3.62,25.82,0.40509,-0.46716,-0.22775,-0.75214,660,0.384,-0.057,0.919,-0.183,1.038,0.854,-3.422,-22.538,168.074,-10.873,-9.113,-31.953,26.67,0.1076,0.19128,-0.04938,0.9743,662,0.988,0.032,0.015,-0.61,-0.427,0.0,67.253,-87.896,122.986,-30.24,-12.38,1.647,29.14,-0.05167,0.69803,0.07462,0.71021,658
165,0.941,-0.072,0.392,-0.488,-0.488,0.0,-10.47,-67.099,-171.848,-26.407,-8.633,-12.1,26.79,-0.0083,0.55426,-0.03687,0.83142,653,0.893,-0.035,0.461,0.732,-0.122,0.366,-4.466,-62.534,-120.652,-25.593,-9.46,3.62,25.82,0.40509,-0.46716,-0.22775,-0.75214,661,0.383,-0.054,0.92,0.793,1.099,0.427,-3.428,-22.516,168.08,-10.873,-9.113,-31.953,26.67,0.1076,0.19128,-0.04938,0.9743,663,0.987,0.033,0.013,-0.427,-0.366,-0.061,67.39,-87.896,122.849,-30.24,-12.38,1.647,29.14,-0.05167,0.69803,0.07462,0.71021,659
166,0.94,-0.071,0.394,-0.183,-0.427,0.061,-10.481,-67.104,-171.832,-26.407,-8.633,-12.1,26.79,-0.0083,0.55426,-0.03687,0.83142,664,0.893,-0.03,0.462,0.183,-0.122,0.244,-4.466,-62.54,-120.635,-25.593,-9.46,3.62,25.82,0.40509,-0.46716,-0.22775,-0.75214,670,0.379,-0.052,0.922,1.221,1.038,0.0,-3.411,-22.495,168.069,-10.873,-9.113,-31.953,26.67,0.1076,0.19128,-0.04938,0.9743,674,0.986,0.033,0.015,-0.061,-0.122,0.0,67.429,-87.902,122.789,-30.24,-12.38,1.647,29.14,-0.05167,0.69803,0.07462,0.71021,666
167,0.938,-0.072,0.392,0.061,-0.061,0.122,-10.486,-67.104,-171.81,-26.407,-8.633,-12.1,26.79,-0.0083,0.55426,-0.03687,0.83142,665,0.888,-0.034,0.465,-0.061,0.0,0.122,-4.477,-62.54,-120.63,-25.593,-9.46,3.62,25.82,0.40509,-0.46716,-0.22775,-0.75214,671,0.374,-0.052,0.922,0.0,1.465,-0.122,-3.389,-22.473,168.069,-10.873,-9.113,-31.953,26.67,0.1076,0.19128,-0.04938,0.9743,675,0.987,0.033,0.018,-0.183,-0.122,0.0,67.44,-87.902,122.778,-30.24,-12.38,1.647,29.14,-0.05167,0.69803,0.07462,0.71021,667
168,0.938,-0.074,0.393,0.061,-0.061,0.061,-10.486,-67.104,-171.788,-26.407,-8.633,-12.1,26.79,-0.0083,0.55426,-0.03687,0.83142,668,0.884,-0.035,0.467,-0.305,0.427,0.061,-4.482,-62.534,-120.624,-25.593,-9.46,3.62,25.82,0.40509,-0.46716,-0.22775,-0.75214,672,0.375,-0.051,0.92,-1.343,1.343,-0.122,-3.395,-22.445,168.069,-10.873,-9.113,-31.953,26.67,0.1076,0.19128,-0.04938,0.9743,680,0.986,0.032,0.018,-0.732,-0.427,0.183,67.527,-87.907,122.684,-30.24,-12.38,1.647,29.14,-0.05167,0.69803,0.07462,0.71021,676
169,0.939,-0.075,0.393,-0.061,-0.244,0.061,-10.492,-67.11,-171.771,-26.407,-8.633,-12.1,26.79,-0.0083,0.55426,-0.03687,0.83142,669,0.887,-0.037,0.464,-0.427,0.305,0.244,-4.493,-62.529,-120.619,-25.593,-9.46,3.62,25.82,0.40509,-0.46716,-0.22775,-0.75214,673,0.383,-0.055,0.917,-1.77,0.854,0.122,-3.422,-22.423,168.085,-10.873,-9.113,-31.953,26.67,0.1076,0.19128,-0.04938,0.9743,681,0.984,0.03,0.015,-1.221,-0.488,0.244,67.637,-87.913,122.574,-30.24,-12.38,1.647,29.14,-0.05167,0.69803,0.07462,0.71021,677
170,0.941,-0.074,0.394,-0.122,-0.488,0.0,-10.503,-67.115,-171.755,-26.407,-8.633,-12.1,26.79,-0.0083,0.55426,-0.03687,0.83142,678,0.892,-0.04,0.459,-0.183,-0.122,0.61,-4.51,-62.518,-120.602,-25.593,-9.46,3.62,25.82,0.40509,-0.46716,-0.22775,-0.75214,682,0.384,-0.059,0.916,-1.709,0.305,0.549,-3.461,-22.407,168.118,-10.873,-9.113,-31.953,26.67,0.1076,0.19128,-0.04938,0.9743,684,0.983,0.027,0.012,-1.099,-0.061,0.244,67.593,-87.924,122.624,-30.24,-12.38,1.647,29.14,-0.05167,0.69803,0.07462,0.71021,686
171,0.94,-0.073,0.391,-0.122,-0.366,0.0,-10.508,-67.121,-171.733,-26.407,-8.633,-12.1,26.79,-0.0083,0.55426,-0.03687,0.83142,679,0.892,-0.043,0.459,0.305,-0.427,0.793,-4.537,-62.523,-120.575,-25.593,-9.46,3.62,25.82,0.40509,-0.46716,-0.22775,-0.75214,683,0.382,-0.061,0.918,-2.197,0.61,0.671,-3.499,-22.401,168.151,-10.873,-9.113,-31.953,26.67,0.1076,0.19128,-0.04938,0.9743,685,0.986,0.03,0.016,-0.61,0.122,0.183,67.451,-87.924,122.8,-30.24,-12.38,1.647,29.14,-0.05167,0.69803,0.07462,0.71021,687
172,0.94,-0.071,0.392,-0.183,-0.244,0.0,-10.514,-67.121,-171.716,-26.407,-8.633,-12.1,26.79,-0.0083,0.55426,-0.03687,0.83142,688,0.892,-0.041,0.46,0.305,-0.244,0.732,-4.565,-62.529,-120.542,-25.593,-9.46,3.62,25.82,0.40509,-0.46716,-0.22775,-0.75214,692,0.379,-0.06,0.917,-2.197,1.648,0.854,-3.549,-22.385,168.179,-10.873,-9.113,-31.953,26.67,0.1076,0.19128,-0.04938,0.9743,694,0.986,0.032,0.013,-0.122,0.0,0.061,67.396,-87.929,122.921,-30.24,-12.38,1.647,29.14,-0.05167,0.69803,0.07462,0.71021,690
173,0.939,-0.072,0.392,-0.122,0.0,0.122,-10.519,-67.121,-171.7,-26.407,-8.633,-12.1,26.79,-0.0083,0.55426,-0.03687,0.83142,689,0.891,-0.038,0.458,0.366,-0.244,0.61,-4.587,-62.529,-120.52,-25.593,-9.46,3.62,25.82,0.40509,-0.46716,-0.22775,-0.75214,693,0.378,-0.061,0.917,-1.16,1.038,0.793,-3.593,-22.357,168.206,-10.873,-9.113,-31.953,26.67,0.1076,0.19128,-0.04938,0.9743,695,0.986,0.03,0.015,0.305,0.0,0.0,67.363,-87.929,122.986,-30.24,-12.38,1.647,29.14,-0.05167,0.69803,0.07462,0.71021,691
174,0.94,-0.074,0.391,0.061,0.0,0.183,-10.53,-67.121,-171.678,-26.407,-8.633,-12.1,26.79,-0.0083,0.55426,-0.03687,0.83142,696,0.891,-0.035,0.461,0.549,0.0,0.488,-4.598,-62.529,-120.504,-25.593,-9.46,3.62,25.82,0.40509,-0.46716,-0.22775,-0.75214,698,0.379,-0.062,0.923,0.732,1.404,0.61,-3.615,-22.335,168.217,-10.873,-9.113,-31.953,26.67,0.1076,0.19128,-0.04938,0.9743,702,0.985,0.031,0.015,0.427,0.061,0.0,67.302,-87.929,123.041,-30.24,-12.38,1.647,29.14,-0.05167,0.69803,0.07462,0.71021,700
175,0.943,-0.075,0.39,0.0,-0.244,0.305,-10.541,-67.121,-171.65,-26.407,-8.633,-12.1,26.79,-0.0083,0.55426,-0.03687,0.83142,697,0.894,-0.036,0.46,0.488,-0.061,0.305,-4.603,-62.529,-120.493,-25.593,-9.46,3.62,25.82,0.40509,-0.46716,-0.22775,-0.75214,699,0.379,-0.062,0.922,1.953,1.221,0.427,-3.598,-22.308,168.212,-10.873,-9.113,-31.953,26.67,0.1076,0.19128,-0.04938,0.9743,703,0.987,0.032,0.011,0.0,0.0,0.183,67.231,-87.935,123.069,-30.24,-12.38,1.647,29.14,-0.05167,0.69803,0.07462,0.71021,701
176,0.944,-0.073,0.387,-0.244,-0.305,0.183,-10.558,-67.126,-171.623,-26.053,-8.66,-11.933,26.79,-0.0083,0.55426,-0.03687,0.83142,708,0.893,-0.038,0.463,0.183,-0.305,0.061,-4.609,-62.534,-120.487,-25.593,-9.46,3.62,25.82,0.40509,-0.46716,-0.22775,-0.75214,704,0.375,-0.06,0.925,2.258,0.977,0.0,-3.56,-22.286,168.201,-10.873,-9.113,-31.953,26.67,0.1076,0.19128,-0.04938,0.9743,714,0.989,0.033,0.011,-0.366,-0.061,0.305,67.176,-87.94,123.085,-30.26,-12.467,0.853,29.14,-0.05167,0.69803,0.07462,0.71021,706
177,0.942,-0.071,0.389,-0.244,0.0,0.122,-10.574,-67.126,-171.601,-26.053,-8.66,-11.933,26.79,-0.0083,0.55426,-0.03687,0.83142,709,0.889,-0.038,0.464,-0.366,-0.305,0.0,-4.614,-62.54,-120.487,-25.593,-9.46,3.62,25.82,0.40509,-0.46716,-0.22775,-0.75214,705,0.373,-0.056,0.924,1.648,0.122,-0.366,-3.516,-22.269,168.173,-10.873,-9.113,-31.953,26.67,0.1076,0.19128,-0.04938,0.9743,715,0.989,0.032,0.01,-0.305,-0.122,0.183,67.192,-87.946,123.058,-30.26,-12.467,0.853,29.14,-0.05167,0.69803,0.07462,0.71021,707
178,0.94,-0.071,0.391,-0.061,0.0,0.0,-10.574,-67.126,-171.59,-26.053,-8.66,-11.933,26.79,-0.01001,0.55463,-0.03622,0.83118,710,0.887,-0.038,0.464,-0.549,-0.305,0.0,-4.625,-62.545,-120.498,-25.593,-9.46,3.62,25.82,0.40509,-0.46716,-0.22775,-0.75214,712,0.375,-0.057,0.917,0.366,-0.549,-0.488,-3.488,-22.275,168.157,-10.307,-9.767,-32.36,26.67,0.1076,0.19128,-0.04938,0.9743,718,0.985,0.028,0.013,-0.183,-0.183,0.061,67.269,-87.946,122.981,-30.26,-12.467,0.853,29.14,-0.05197,0.69821,0.07434,0.71005,716
179,0.939,-0.073,0.391,0.0,0.061,0.0,-10.574,-67.126,-171.579,-26.053,-8.66,-11.933,26.79,-0.01001,0.55463,-0.03622,0.83118,711,0.886,-0.039,0.461,-0.488,-0.305,-0.061,-4.636,-62.551,-120.498,-25.593,-9.46,3.62,25.82,0.40509,-0.46716,-0.22775,-0.75214,713,0.377,-0.058,0.919,-0.61,-0.488,-0.549,-3.488,-22.286,168.151,-10.307,-9.767,-32.36,26.67,0.1076,0.19128,-0.04938,0.9743,719,0.984,0.031,0.019,-0.488,-0.305,0.0,67.407,-87.951,122.855,-30.26,-12.467,0.853,29.14,-0.05197,0.69821,0.07434,0.71005,717
180,0.938,-0.074,0.392,-0.061,0.0,-0.061,-10.574,-67.126,-171.568,-26.053,-8.66,-11.933,26.79,-0.01001,0.55463,-0.03622,0.83118,720,0.89,-0.039,0.462,-0.488,-0.244,-0.122,-4.642,-62.556,-120.509,-26.033,-9.493,3.207,25.82,0.40509,-0.46716,-0.22775,-0.75214,724,0.38,-0.057,0.917,-0.488,0.427,-0.488,-3.494,-22.291,168.146,-10.307,-9.767,-32.36,26.67,0.1076,0.19128,-0.04938,0.9743,730,0.982,0.031,0.017,-0.549,-0.366,0.0,67.555,-87.957,122.728,-30.26,-12.467,0.853,29.14,-0.05197,0.69821,0.07434,0.71005,722
181,0.938,-0.074,0.395,-0.183,0.0,0.0,-10.574,-67.126,-171.557,-26.053,-8.66,-11.933,26.79,-0.01001,0.55463,-0.03622,0.83118,721,0.893,-0.039,0.459,-0.366,-0.549,-0.122,-4.647,-62.562,-120.515,-26.033,-9.493,3.207,25.82,0.40509,-0.46716,-0.22775,-0.75214,725,0.38,-0.056,0.919,0.0,0.0,-0.122,-3.499,-22.286,168.124,-10.307,-9.767,-32.36,26.67,0.1076,0.19128,-0.04938,0.9743,731,0.984,0.03,0.015,-0.427,-0.122,0.0,67.571,-87.957,122.712,-30.26,-12.467,0.853,29.14,-0.05197,0.69821,0.07434,0.71005,723
182,0.938,-0.075,0.393,0.061,0.122,0.061,-10.574,-67.121,-171.546,-26.053,-8.66,-11.933,26.79,-0.01001,0.55463,-0.03622,0.83118,726,0.893,-0.04,0.46,0.0,-0.549,-0.061,-4.653,-62.573,-120.52,-26.033,-9.493,3.207,25.82,0.40518,-0.46777,-0.22723,-0.75183,734,0.376,-0.054,0.921,-0.854,0.183,0.244,-3.505,-22.286,168.118,-10.307,-9.767,-32.36,26.67,0.10733,0.18903,-0.0498,0.97476,732,0.987,0.03,0.017,-0.061,-0.366,0.183,67.681,-87.962,122.602,-30.26,-12.467,0.853,29.14,-0.05197,0.69821,0.07434,0.71005,728
183,0.938,-0.073,0.393,0.122,0.122,0.061,-10.58,-67.115,-171.53,-26.053,-8.66,-11.933,26.79,-0.01001,0.55463,-0.03622,0.83118,727,0.89,-0.04,0.462,0.305,-0.244,0.061,-4.653,-62.578,-120.52,-26.033,-9.493,3.207,25.82,0.40518,-0.46777,-0.22723,-0.75183,735,0.377,-0.055,0.921,-2.258,0.122,0.427,-3.532,-22.28,168.107,-10.307,-9.767,-32.36,26.67,0.10733,0.18903,-0.0498,0.97476,733,0.988,0.029,0.018,0.183,-0.122,0.183,67.648,-87.968,122.64,-30.26,-12.467,0.853,29.14,-0.05197,0.69821,0.07434,0.71005,729
184,0.94,-0.072,0.394,0.0,-0.122,0.122,-10.58,-67.115,-171.513,-26.053,-8.66,-11.933,26.79,-0.01001,0.55463,-0.03622,0.83118,736,0.891,-0.038,0.462,0.366,0.0,0.305,-4.653,-62.584,-120.515,-26.033,-9.493,3.207,25.82,0.40518,-0.46777,-0.22723,-0.75183,740,0.379,-0.057,0.92,-2.625,-0.122,0.732,-3.582,-22.28,168.113,-10.307,-9.767,-32.36,26.67,0.10733,0.18903,-0.0498,0.97476,742,0.985,0.029,0.016,0.488,0.0,0.122,67.571,-87.968,122.745,-30.26,-12.467,0.853,29.14,-0.05197,0.69821,0.07434,0.71005,738
185,0.94,-0.074,0.391,0.0,-0.244,0.122,-10.591,-67.121,-171.491,-26.053,-8.66,-11.933,26.79,-0.01001,0.55463,-0.03622,0.83118,737,0.891,-0.038,0.459,0.427,0.122,0.549,-4.664,-62.578,-120.498,-26.033,-9.493,3.207,25.82,0.40518,-0.46777,-0.22723,-0.75183,741,0.376,-0.063,0.919,-2.747,0.061,0.793,-3.642,-22.28,168.146,-10.307,-9.767,-32.36,26.67,0.10733,0.18903,-0.0498,0.97476,743,0.985,0.028,0.015,0.305,0.0,0.061,67.5,-87.973,122.849,-30.26,-12.467,0.853,29.14,-0.05197,0.69821,0.07434,0.71005,739
186,0.94,-0.073,0.391,0.0,-0.305,0.122,-10.596,-67.121,-171.475,-26.053,-8.66,-11.933,26.79,-0.01001,0.55463,-0.03622,0.83118,746,0.888,-0.04,0.46,0.671,0.122,0.366,-4.669,-62.573,-120.487,-26.033,-9.493,3.207,25.82,0.40518,-0.46777,-0.22723,-0.75183,744,0.373,-0.065,0.921,-2.38,0.671,0.549,-3.697,-22.275,168.162,-10.307,-9.767,-32.36,26.67,0.10733,0.18903,-0.0498,0.97476,752,0.985,0.031,0.016,0.0,-0.305,0.061,67.588,-87.979,122.805,-30.26,-12.467,0.853,29.14,-0.05197,0.69821,0.07434,0.71005,748
187,0.939,-0.072,0.393,0.061,-0.366,0.183,-10.607,-67.126,-171.447,-26.053,-8.66,-11.933,26.79,-0.01001,0.55463,-0.03622,0.83118,747,0.887,-0.037,0.463,0.366,0.061,0.061,-4.669,-62.573,-120.487,-26.033,-9.493,3.207,25.82,0.40518,-0.46777,-0.22723,-0.75183,745,0.376,-0.065,0.92,-0.61,1.221,0.183,-3.741,-22.258,168.184,-10.307,-9.767,-32.36,26.67,0.10733,0.18903,-0.0498,0.97476,753,0.984,0.032,0.014,-0.122,-0.366,0.061,67.703,-87.979,122.701,-30.26,-12.467,0.853,29.14,-0.05197,0.69821,0.07434,0.71005,749
188,0.938,-0.072,0.391,0.122,-0.244,0.122,-10.613,-67.132,-171.431,-26.053,-8.66,-11.933,26.79,-0.01001,0.55463,-0.03622,0.83118,750,0.89,-0.037,0.459,0.244,-0.183,-0.122,-4.664,-62.573,-120.493,-26.033,-9.493,3.207,25.82,0.40518,-0.46777,-0.22723,-0.75183,754,0.38,-0.062,0.919,0.61,0.549,0.183,-3.746,-22.236,168.19,-10.307,-9.767,-32.36,26.67,0.10733,0.18903,-0.0498,0.97476,756,0.987,0.031,0.016,0.0,-0.488,0.122,67.874,-87.984,122.558,-30.26,-12.467,0.853,29.14,-0.05197,0.69821,0.07434,0.71005,758
189,0.939,-0.073,0.394,0.061,-0.183,0.0,-10.618,-67.132,-171.414,-26.053,-8.66,-11.933,26.79,-0.01001,0.55463,-0.03622,0.83118,751,0.894,-0.04,0.46,0.549,-0.366,-0.183,-4.653,-62.578,-120.498,-26.033,-9.493,3.207,25.82,0.40518,-0.46777,-0.22723,-0.75183,755,0.378,-0.062,0.922,-0.366,1.038,0.427,-3.741,-22.225,168.19,-10.307,-9.767,-32.36,26.67,0.10733,0.18903,-0.0498,0.97476,757,0.988,0.028,0.012,0.0,-0.061,0.061,67.972,-87.99,122.487,-30.26,-12.467,0.853,29.14,-0.05197,0.69821,0.07434,0.71005,759
190,0.942,-0.073,0.395,0.0,-0.244,0.0,-10.618,-67.137,-171.403,-26.053,-8.66,-11.933,26.79,-0.01001,0.55463,-0.03622,0.83118,760,0.896,-0.043,0.461,0.61,-0.366,-0.122,-4.642,-62.584,-120.509,-26.033,-9.493,3.207,25.82,0.40518,-0.46777,-0.22723,-0.75183,764,0.381,-0.062,0.921,-0.916,0.732,0.854,-3.757,-22.203,168.212,-10.307,-9.767,-32.36,26.67,0.10733,0.18903,-0.0498,0.97476,766,0.988,0.028,0.012,0.244,0.061,0.061,67.923,-87.995,122.552,-30.707,-12.387,1.967,29.14,-0.05197,0.69821,0.07434,0.71005,762
191,0.941,-0.075,0.393,0.122,-0.061,0.061,-10.618,-67.132,-171.387,-26.053,-8.66,-11.933,26.79,-0.01001,0.55463,-0.03622,0.83118,761,0.894,-0.04,0.46,0.732,-0.122,0.061,-4.631,-62.589,-120.509,-26.033,-9.493,3.207,25.82,0.40518,-0.46777,-0.22723,-0.75183,765,0.375,-0.061,0.919,-0.854,0.183,1.221,-3.785,-22.192,168.245,-10.307,-9.767,-32.36,26.67,0.10733,0.18903,-0.0498,0.97476,767,0.987,0.028,0.016,0.366,-0.122,0.061,67.863,-87.995,122.646,-30.707,-12.387,1.967,29.14,-0.05197,0.69821,0.07434,0.71005,763
192,0.941,-0.075,0.388,0.244,0.0,0.122,-10.618,-67.132,-171.37,-26.053,-8.66,-11.933,26.79,-0.01001,0.55463,-0.03622,0.83118,768,0.889,-0.038,0.459,0.977,0.122,0.244,-4.62,-62.589,-120.515,-26.033,-9.493,3.207,25.82,0.40518,-0.46777,-0.22723,-0.75183,770,0.373,-0.059,0.921,-0.916,0.916,0.916,-3.807,-22.181,168.283,-10.307,-9.767,-32.36,26.67,0.10733,0.18903,-0.0498,0.97476,774,0.985,0.03,0.012,0.0,-0.244,0.0,67.885,-88.0,122.662,-30.707,-12.387,1.967,29.14,-0.05197,0.69821,0.07434,0.71005,772
193,0.941,-0.074,0.388,0.061,-0.183,0.183,-10.629,-67.132,-171.348,-26.053,-8.66,-11.933,26.79,-0.01001,0.55463,-0.03622,0.83118,769,0.889,-0.033,0.459,0.488,0.122,0.305,-4.62,-62.584,-120.509,-26.033,-9.493,3.207,25.82,0.40518,-0.46777,-0.22723,-0.75183,771,0.374,-0.057,0.92,0.0,1.099,0.488,-3.829,-22.165,168.3,-10.307,-9.767,-32.36,26.67,0.10733,0.18903,-0.0498,0.97476,775,0.985,0.031,0.009,-0.244,-0.122,0.0,67.956,-88.0,122.64,-30.707,-12.387,1.967,29.14,-0.05197,0.69821,0.07434,0.71005,773
194,0.942,-0.073,0.389,-0.244,-0.305,0.183,-10.646,-67.137,-171.326,-26.06,-8.767,-12.293,26.79,-0.01001,0.55463,-0.03622,0.83118,780,0.89,-0.03,0.458,0.061,-0.061,0.488,-4.631,-62.584,-120.498,-26.033,-9.493,3.207,25.82,0.40518,-0.46777,-0.22723,-0.75183,778,0.375,-0.056,0.922,0.061,0.671,0.183,-3.829,-22.143,168.289,-10.307,-9.767,-32.36,26.67,0.10733,0.18903,-0.0498,0.97476,786,0.985,0.032,0.008,-0.061,0.0,0.061,67.967,-88.0,122.668,-30.707,-12.387,1.967,29.14,-0.05423,0.69827,0.07614,0.70963,776
195,0.941,-0.072,0.39,-0.244,-0.244,0.122,-10.657,-67.143,-171.31,-26.06,-8.767,-12.293,26.79,-0.01001,0.55463,-0.03622,0.83118,781,0.892,-0.033,0.459,0.0,-0.244,0.488,-4.647,-62.589,-120.482,-26.033,-9.493,3.207,25.82,0.40518,-0.46777,-0.22723,-0.75183,779,0.375,-0.06,0.921,-1.404,0.916,0.122,-3.834,-22.132,168.278,-10.307,-9.767,-32.36,26.67,0.10733,0.18903,-0.0498,0.97476,787,0.987,0.031,0.015,-0.183,-0.305,0.183,67.983,-88.006,122.69,-30.707,-12.387,1.967,29.14,-0.05423,0.69827,0.07614,0.70963,777
196,0.939,-0.073,0.391,-0.122,0.122,0.061,-10.662,-67.137,-171.299,-26.06,-8.767,-12.293,26.79,-0.01169,0.55484,-0.0354,0.83105,782,0.892,-0.038,0.461,-0.061,-0.183,0.488,-4.664,-62.589,-120.465,-25.553,-9.36,3.513,25.82,0.40518,-0.46777,-0.22723,-0.75183,784,0.375,-0.067,0.92,-2.136,0.366,0.244,-3.867,-22.115,168.283,-10.253,-9.487,-31.813,26.67,0.10733,0.18903,-0.0498,0.97476,790,0.986,0.029,0.018,-0.244,-0.305,0.183,68.088,-88.011,122.596,-30.707,-12.387,1.967,29.14,-0.05423,0.69827,0.07614,0.70963,788
197,0.938,-0.074,0.394,0.061,0.244,0.061,-10.662,-67.132,-171.288,-26.06,-8.767,-12.293,26.79,-0.01169,0.55484,-0.0354,0.83105,783,0.892,-0.042,0.462,-0.244,0.0,0.427,-4.686,-62.595,-120.454,-25.553,-9.36,3.513,25.82,0.40518,-0.46777,-0.22723,-0.75183,785,0.375,-0.067,0.921,-1.648,0.732,0.122,-3.906,-22.11,168.3,-10.253,-9.487,-31.813,26.67,0.10733,0.18903,-0.0498,0.97476,791,0.987,0.029,0.021,-0.244,-0.244,0.183,68.17,-88.017,122.531,-30.707,-12.387,1.967,29.14,-0.05423,0.69827,0.07614,0.70963,789
198,0.938,-0.075,0.395,0.0,0.0,0.061,-10.662,-67.132,-171.271,-26.06,-8.767,-12.293,26.79,-0.01169,0.55484,-0.0354,0.83105,792,0.891,-0.039,0.461,-0.488,0.061,0.366,-4.708,-62.589,-120.443,-25.553,-9.36,3.513,25.82,0.40518,-0.46777,-0.22723,-0.75183,794,0.373,-0.066,0.919,-0.427,1.221,0.061,-3.933,-22.094,168.3,-10.253,-9.487,-31.813,26.67,0.10733,0.18903,-0.0498,0.97476,800,0.986,0.028,0.019,0.244,-0.183,0.305,68.187,-88.022,122.531,-30.707,-12.387,1.967,29.14,-0.05423,0.69827,0.07614,0.70963,796
199,0.939,-0.074,0.396,-0.183,-0.244,0.061,-10.673,-67.137,-171.255,-26.06,-8.767,-12.293,26.79,-0.01169,0.55484,-0.0354,0.83105,793,0.89,-0.04,0.46,-0.488,0.244,0.427,-4.73,-62.589,-120.432,-25.553,-9.36,3.513,25.82,0.40518,-0.46777,-0.22723,-0.75183,795,0.374,-0.067,0.921,-0.122,1.526,0.122,-3.939,-22.066,168.294,-10.253,-9.487,-31.813,26.67,0.10733,0.18903,-0.0498,0.97476,801,0.987,0.029,0.014,0.549,-0.122,0.122,68.159,-88.033,122.574,-30.707,-12.387,1.967,29.14,-0.05423,0.69827,0.07614,0.70963,797
200,0.94,-0.074,0.395,-0.122,-0.244,0.061,-10.679,-67.137,-171.244,-26.06,-8.767,-12.293,26.79,-0.01169,0.55484,-0.0354,0.83105,798,0.891,-0.042,0.461,-0.244,0.366,0.366,-4.752,-62.578,-120.421,-25.553,-9.36,3.513,25.82,0.40543,-0.46796,-0.22714,-0.75162,808,0.376,-0.067,0.922,0.061,1.831,0.427,-3.944,-22.033,168.3,-10.253,-9.487,-31.813,26.67,0.10651,0.18671,-0.05307,0.97513,804,0.988,0.029,0.013,0.671,0.061,0.061,68.115,-88.033,122.635,-30.707,-12.387,1.967,29.14,-0.05423,0.69827,0.07614,0.70963,802
201,0.94,-0.074,0.394,0.183,0.0,0.0,-10.673,-67.137,-171.233,-26.06,-8.767,-12.293,26.79,-0.01169,0.55484,-0.0354,0.83105,799,0.895,-0.042,0.459,0.183,0.427,0.366,-4.768,-62.573,-120.416,-25.553,-9.36,3.513,25.82,0.40543,-0.46796,-0.22714,-0.75162,809,0.379,-0.064,0.923,-0.122,1.221,0.977,-3.944,-22.0,168.316,-10.253,-9.487,-31.813,26.67,0.10651,0.18671,-0.05307,0.97513,805,0.988,0.028,0.012,0.671,0.305,0.061,67.989,-88.033,122.794,-30.707,-12.387,1.967,29.14,-0.05423,0.69827,0.07614,0.70963,803
202,0.94,-0.074,0.392,0.366,0.0,0.0,-10.668,-67.132,-171.222,-26.06,-8.767,-12.293,26.79,-0.01169,0.55484,-0.0354,0.83105,806,0.897,-0.042,0.458,0.671,0.305,0.549,-4.774,-62.562,-120.399,-25.553,-9.36,3.513,25.82,0.40543,-0.46796,-0.22714,-0.75162,812,0.378,-0.06,0.923,-1.77,0.916,1.038,-3.966,-21.978,168.338,-10.253,-9.487,-31.813,26.67,0.10651,0.18671,-0.05307,0.97513,814,0.988,0.028,0.008,0.488,0.732,0.122,67.714,-88.033,123.124,-30.707,-12.387,1.967,29.14,-0.05423,0.69827,0.07614,0.70963,810
203,0.943,-0.074,0.391,0.061,0.0,0.0,-10.668,-67.132,-171.216,-26.06,-8.767,-12.293,26.79,-0.01169,0.55484,-0.0354,0.83105,807,0.896,-0.037,0.457,0.549,0.305,0.732,-4.79,-62.556,-120.377,-25.553,-9.36,3.513,25.82,0.40543,-0.46796,-0.22714,-0.75162,813,0.374,-0.06,0.924,-3.113,0.977,0.549,-4.016,-21.962,168.344,-10.253,-9.487,-31.813,26.67,0.10651,0.18671,-0.05307,0.97513,815,0.988,0.03,0.013,0.305,0.977,0.122,67.242,-88.033,123.629,-30.707,-12.387,1.967,29.14,-0.05423,0.69827,0.07614,0.70963,811
204,0.942,-0.074,0.388,-0.305,-0.061,0.0,-10.673,-67.132,-171.205,-26.06,-8.767,-12.293,26.79,-0.01169,0.55484,-0.0354,0.83105,816,0.893,-0.032,0.458,0.061,0.366,0.793,-4.818,-62.551,-120.35,-25.553,-9.36,3.513,25.82,0.40543,-0.46796,-0.22714,-0.75162,818,0.368,-0.061,0.922,-3.357,0.854,0.0,-4.076,-21.945,168.327,-10.253,-9.487,-31.813,26.67,0.10651,0.18671,-0.05307,0.97513,824,0.988,0.033,0.011,0.244,0.61,0.305,66.72,-88.028,124.162,-30.707,-12.387,1.967,29.14,-0.05423,0.69827,0.07614,0.70963,820
205,0.943,-0.074,0.386,-0.183,0.0,0.0,-10.679,-67.132,-171.194,-26.06,-8.767,-12.293,26.79,-0.01169,0.55484,-0.0354,0.83105,817,0.889,-0.03,0.461,-0.488,0.732,0.61,-4.845,-62.54,-120.333,-25.553,-9.36,3.513,25.82,0.40543,-0.46796,-0.22714,-0.75162,819,0.368,-0.068,0.92,-2.991,0.183,-0.549,-4.136,-21.934,168.316,-10.253,-9.487,-31.813,26.67,0.10651,0.18671,-0.05307,0.97513,825,0.985,0.032,0.011,0.183,0.183,0.488,66.374,-88.033,124.514,-30.707,-12.387,1.967,29.14,-0.05423,0.69827,0.07614,0.70963,821
206,0.942,-0.073,0.388,0.0,0.0,0.0,-10.679,-67.132,-171.189,-26.06,-8.767,-12.293,26.79,-0.01169,0.55484,-0.0354,0.83105,822,0.886,-0.036,0.462,-1.099,0.916,0.305,-4.872,-62.523,-120.322,-25.553,-9.36,3.513,25.82,0.40543,-0.46796,-0.22714,-0.75162,826,0.369,-0.074,0.915,-2.563,-0.793,-0.732,-4.191,-21.94,168.305,-10.253,-9.487,-31.813,26.67,0.10651,0.18671,-0.05307,0.97513,830,0.981,0.029,0.015,0.244,-0.061,0.61,66.204,-88.039,124.684,-30.547,-12.08,1.693,29.14,-0.05423,0.69827,0.07614,0.70963,828
207,0.938,-0.074,0.392,0.061,0.061,0.0,-10.679,-67.126,-171.178,-26.06,-8.767,-12.293,26.79,-0.01169,0.55484,-0.0354,0.83105,823,0.886,-0.044,0.461,-1.587,1.099,0.244,-4.905,-62.501,-120.317,-25.553,-9.36,3.513,25.82,0.40543,-0.46796,-0.22714,-0.75162,827,0.376,-0.073,0.92,-1.953,-0.854,-0.61,-4.23,-21.956,168.289,-10.253,-9.487,-31.813,26.67,0.10651,0.18671,-0.05307,0.97513,831,0.982,0.027,0.018,0.122,0.0,0.549,66.099,-88.05,124.788,-30.547,-12.08,1.693,29.14,-0.05423,0.69827,0.07614,0.70963,829
208,0.937,-0.074,0.395,0.061,0.244,0.0,-10.673,-67.121,-171.172,-26.06,-8.767,-12.293,26.79,-0.01169,0.55484,-0.0354,0.83105,834,0.892,-0.045,0.463,-1.221,1.038,0.305,-4.933,-62.479,-120.306,-25.553,-9.36,3.513,25.82,0.40543,-0.46796,-0.22714,-0.75162,832,0.375,-0.073,0.925,-1.282,-0.061,0.183,-4.257,-21.967,168.289,-10.253,-9.487,-31.813,26.67,0.10651,0.18671,-0.05307,0.97513,836,0.986,0.025,0.013,0.244,0.244,0.366,65.918,-88.061,124.969,-30.547,-12.08,1.693,29.14,-0.0567,0.69788,0.07748,0.70966,838
209,0.939,-0.074,0.391,-0.122,0.427,0.0,-10.673,-67.115,-171.167,-26.06,-8.767,-12.293,26.79,-0.01169,0.55484,-0.0354,0.83105,835,0.893,-0.046,0.462,-0.427,0.793,0.671,-4.966,-62.463,-120.284,-25.553,-9.36,3.513,25.82,0.40543,-0.46796,-0.22714,-0.75162,833,0.37,-0.073,0.929,-2.136,0.183,0.671,-4.296,-21.962,168.283,-10.253,-9.487,-31.813,26.67,0.10651,0.18671,-0.05307,0.97513,837,0.99,0.025,0.018,0.183,0.488,0.305,65.627,-88.066,125.261,-30.547,-12.08,1.693,29.14,-0.0567,0.69788,0.07748,0.70966,839
210,0.941,-0.074,0.391,-0.122,0.305,0.0,-10.673,-67.104,-171.161,-26.02,-8.8,-12.14,26.79,-0.01169,0.55484,-0.0354,0.83105,840,0.889,-0.043,0.466,0.244,0.732,0.671,-4.988,-62.446,-120.256,-25.553,-9.36,3.513,25.82,0.40543,-0.46796,-0.22714,-0.75162,846,0.37,-0.075,0.925,-2.747,0.671,0.305,-4.351,-21.956,168.289,-10.253,-9.487,-31.813,26.67,0.10651,0.18671,-0.05307,0.97513,844,0.988,0.029,0.014,0.305,0.427,0.427,65.275,-88.066,125.623,-30.547,-12.08,1.693,29.14,-0.0567,0.69788,0.07748,0.70966,842
211,0.943,-0.075,0.391,0.0,0.061,0.0,-10.673,-67.104,-171.156,-26.02,-8.8,-12.14,26.79,-0.01169,0.55484,-0.0354,0.83105,841,0.889,-0.041,0.466,-0.061,0.854,0.305,-5.004,-62.43,-120.234,-25.553,-9.36,3.513,25.82,0.40543,-0.46796,-0.22714,-0.75162,847,0.374,-0.077,0.917,-1.526,-0.061,0.183,-4.395,-21.951,168.294,-10.253,-9.487,-31.813,26.67,0.10651,0.18671,-0.05307,0.97513,845,0.986,0.031,0.016,0.61,0.061,0.488,65.017,-88.077,125.87,-30.547,-12.08,1.693,29.14,-0.0567,0.69788,0.07748,0.70966,843
212,0.94,-0.073,0.391,0.0,0.061,0.0,-10.673,-67.104,-171.145,-26.02,-8.8,-12.14,26.79,-0.01169,0.55484,-0.0354,0.83105,848,0.891,-0.042,0.462,0.061,0.732,0.0,-5.004,-62.419,-120.223,-25.847,-9.353,3.827,25.82,0.40543,-0.46796,-0.22714,-0.75162,852,0.375,-0.074,0.916,0.244,-0.916,0.366,-4.406,-21.956,168.278,-10.253,-9.487,-31.813,26.67,0.10651,0.18671,-0.05307,0.97513,854,0.986,0.031,0.017,0.366,0.366,0.427,64.775,-88.083,126.096,-30.547,-12.08,1.693,29.14,-0.0567,0.69788,0.07748,0.70966,850
213,0.939,-0.072,0.394,0.0,0.0,0.305,-10.684,-67.099,-171.123,-26.02,-8.8,-12.14,26.79,-0.01169,0.55484,-0.0354,0.83105,849,0.89,-0.04,0.463,0.244,0.732,0.061,-4.999,-62.402,-120.212,-25.847,-9.353,3.827,25.82,0.40543,-0.46796,-0.22714,-0.75162,853,0.372,-0.069,0.921,0.977,-0.488,0.427,-4.4,-21.973,168.245,-10.253,-9.487,-31.813,26.67,0.10651,0.18671,-0.05307,0.97513,855,0.986,0.027,0.019,0.122,0.305,0.366,64.479,-88.088,126.376,-30.547,-12.08,1.693,29.14,-0.0567,0.69788,0.07748,0.70966,851
214,0.936,-0.072,0.396,0.122,0.183,0.122,-10.69,-67.094,-171.112,-26.02,-8.8,-12.14,26.79,-0.01285,0.55463,-0.03482,0.83121,858,0.887,-0.04,0.463,0.0,0.977,0.183,-5.004,-62.386,-120.185,-25.847,-9.353,3.827,25.82,0.40543,-0.46796,-0.22714,-0.75162,860,0.37,-0.068,0.923,-0.061,0.122,0.183,-4.395,-21.973,168.234,-10.113,-8.213,-33.573,26.67,0.10651,0.18671,-0.05307,0.97513,870,0.984,0.026,0.018,-0.061,0.305,0.305,64.193,-88.088,126.634,-30.547,-12.08,1.693,29.14,-0.0567,0.69788,0.07748,0.70966,856
215,0.936,-0.074,0.393,0.244,0.488,0.0,-10.679,-67.083,-171.107,-26.02,-8.8,-12.14,26.79,-0.01285,0.55463,-0.03482,0.83121,859,0.887,-0.037,0.464,-0.305,1.038,0.305,-5.015,-62.364,-120.157,-25.847,-9.353,3.827,25.82,0.40543,-0.46796,-0.22714,-0.75162,861,0.366,-0.071,0.923,-0.854,0.549,-0.305,-4.4,-21.967,168.239,-10.113,-8.213,-33.573,26.67,0.10651,0.18671,-0.05307,0.97513,871,0.983,0.027,0.019,0.061,0.427,0.366,63.864,-88.094,126.947,-30.547,-12.08,1.693,29.14,-0.0567,0.69788,0.07748,0.70966,857
216,0.938,-0.072,0.395,0.0,0.183,-0.122,-10.668,-67.083,-171.107,-26.02,-8.8,-12.14,26.79,-0.01285,0.55463,-0.03482,0.83121,864,0.884,-0.038,0.466,-0.916,1.038,0.244,-5.037,-62.342,-120.119,-25.847,-9.353,3.827,25.82,0.40683,-0.46689,-0.22549,-0.75201,862,0.366,-0.073,0.924,-0.793,0.61,-1.038,-4.411,-21.956,168.239,-10.113,-8.213,-33.573,26.67,0.10776,0.18539,-0.0571,0.97501,874,0.984,0.031,0.021,0.122,0.366,0.366,63.501,-88.094,127.31,-30.547,-12.08,1.693,29.14,-0.0567,0.69788,0.07748,0.70966,866
217,0.941,-0.071,0.394,-0.183,-0.061,-0.122,-10.668,-67.083,-171.107,-26.02,-8.8,-12.14,26.79,-0.01285,0.55463,-0.03482,0.83121,865,0.882,-0.039,0.468,-1.465,0.977,0.0,-5.059,-62.325,-120.103,-25.847,-9.353,3.827,25.82,0.40683,-0.46689,-0.22549,-0.75201,863,0.367,-0.075,0.922,-0.244,0.183,-1.282,-4.417,-21.951,168.239,-10.113,-8.213,-33.573,26.67,0.10776,0.18539,-0.0571,0.97501,875,0.984,0.029,0.015,0.183,0.244,0.305,63.193,-88.099,127.623,-30.547,-12.08,1.693,29.14,-0.0567,0.69788,0.07748,0.70966,867
218,0.94,-0.073,0.391,0.0,0.061,0.061,-10.668,-67.077,-171.096,-26.02,-8.8,-12.14,26.79,-0.01285,0.55463,-0.03482,0.83121,868,0.884,-0.043,0.469,-1.709,1.16,-0.061,-5.087,-62.303,-120.103,-25.847,-9.353,3.827,25.82,0.40683,-0.46689,-0.22549,-0.75201,878,0.373,-0.074,0.923,-0.977,0.0,-1.099,-4.417,-21.951,168.25,-10.113,-8.213,-33.573,26.67,0.10776,0.18539,-0.0571,0.97501,880,0.984,0.024,0.016,0.0,-0.122,0.305,63.034,-88.099,127.793,-30.547,-12.08,1.693,29.14,-0.0567,0.69788,0.07748,0.70966,872
219,0.939,-0.076,0.389,0.366,0.061,0.122,-10.662,-67.077,-171.085,-26.02,-8.8,-12.14,26.79,-0.01285,0.55463,-0.03482,0.83121,869,0.889,-0.047,0.468,-1.587,1.221,0.0,-5.109,-62.276,-120.108,-25.847,-9.353,3.827,25.82,0.40683,-0.46689,-0.22549,-0.75201,879,0.375,-0.077,0.919,-2.258,0.0,-0.732,-4.444,-21.951,168.283,-10.113,-8.213,-33.573,26.67,0.10776,0.18539,-0.0571,0.97501,881,0.986,0.021,0.014,-0.122,-0.366,0.366,63.018,-88.11,127.809,-30.547,-12.08,1.693,29.14,-0.0567,0.69788,0.07748,0.70966,873
220,0.939,-0.079,0.391,0.427,0.0,0.0,-10.657,-67.072,-171.074,-26.02,-8.8,-12.14,26.79,-0.01285,0.55463,-0.03482,0.83121,876,0.891,-0.05,0.464,-1.343,1.038,0.183,-5.142,-62.254,-120.097,-25.847,-9.353,3.827,25.82,0.40683,-0.46689,-0.22549,-0.75201,884,0.374,-0.081,0.918,-1.953,-0.366,-0.183,-4.482,-21.951,168.311,-10.113,-8.213,-33.573,26.67,0.10776,0.18539,-0.0571,0.97501,890,0.987,0.02,0.016,0.183,-0.427,0.305,63.083,-88.121,127.755,-30.527,-12.34,1.947,29.14,-0.0567,0.69788,0.07748,0.70966,882
221,0.939,-0.078,0.392,0.122,0.122,-0.122,-10.646,-67.072,-171.074,-26.02,-8.8,-12.14,26.79,-0.01285,0.55463,-0.03482,0.83121,877,0.89,-0.049,0.465,-0.977,0.916,0.366,-5.175,-62.232,-120.081,-25.847,-9.353,3.827,25.82,0.40683,-0.46689,-0.22549,-0.75201,885,0.373,-0.079,0.919,-0.61,-0.061,0.061,-4.51,-21.956,168.327,-10.113,-8.213,-33.573,26.67,0.10776,0.18539,-0.0571,0.97501,891,0.987,0.022,0.017,0.549,-0.305,0.305,63.138,-88.132,127.711,-30.527,-12.34,1.947,29.14,-0.0567,0.69788,0.07748,0.70966,883
222,0.941,-0.075,0.391,-0.061,-0.244,0.0,-10.646,-67.072,-171.074,-26.02,-8.8,-12.14,26.79,-0.01285,0.55463,-0.03482,0.83121,886,0.889,-0.046,0.465,-0.793,0.977,0.427,-5.208,-62.216,-120.064,-25.847,-9.353,3.827,25.82,0.40683,-0.46689,-0.22549,-0.75201,888,0.373,-0.077,0.923,0.061,-0.793,0.061,-4.515,-21.962,168.344,-10.113,-8.213,-33.573,26.67,0.10776,0.18539,-0.0571,0.97501,894,0.987,0.024,0.016,0.366,-0.183,0.183,63.138,-88.138,127.711,-30.527,-12.34,1.947,29.14,-0.0567,0.69788,0.07748,0.70966,892
223,0.94,-0.074,0.391,0.122,-0.244,0.0,-10.651,-67.072,-171.063,-26.02,-8.8,-12.14,26.79,-0.01285,0.55463,-0.03482,0.83121,887,0.886,-0.044,0.466,-0.488,1.16,0.427,-5.229,-62.194,-120.042,-25.847,-9.353,3.827,25.82,0.40683,-0.46689,-0.22549,-0.75201,889,0.371,-0.076,0.926,-0.366,-0.916,0.0,-4.521,-21.978,168.354,-10.113,-8.213,-33.573,26.67,0.10776,0.18539,-0.0571,0.97501,895,0.987,0.025,0.013,0.0,-0.122,0.183,63.105,-88.143,127.744,-30.527,-12.34,1.947,29.14,-0.0567,0.69788,0.07748,0.70966,893
224,0.939,-0.074,0.394,0.244,-0.183,0.0,-10.657,-67.077,-171.052,-26.02,-8.8,-12.14,26.79,-0.01285,0.55463,-0.03482,0.83121,900,0.888,-0.044,0.466,-0.427,1.16,0.305,-5.251,-62.166,-120.026,-25.847,-9.353,3.827,25.82,0.40683,-0.46689,-0.22549,-0.75201,896,0.374,-0.077,0.923,-0.732,-0.854,-0.122,-4.537,-21.995,168.344,-10.113,-8.213,-33.573,26.67,0.10776,0.18539,-0.0571,0.97501,902,0.987,0.028,0.01,0.0,0.061,0.305,63.001,-88.149,127.859,-30.527,-12.34,1.947,29.14,-0.05719,0.69769,0.07654,0.70993,898
225,0.938,-0.073,0.395,0.183,0.061,-0.061,-10.651,-67.077,-171.046,-26.02,-8.8,-12.14,26.79,-0.01285,0.55463,-0.03482,0.83121,901,0.888,-0.045,0.469,-0.488,0.916,0.183,-5.268,-62.15,-120.02,-25.847,-9.353,3.827,25.82,0.40683,-0.46689,-0.22549,-0.75201,897,0.375,-0.078,0.92,-0.488,-1.221,-0.244,-4.548,-22.017,168.344,-10.113,-8.213,-33.573,26.67,0.10776,0.18539,-0.0571,0.97501,903,0.986,0.026,0.016,0.549,0.061,0.305,62.853,-88.16,128.046,-30.527,-12.34,1.947,29.14,-0.05719,0.69769,0.07654,0.70993,899
226,0.94,-0.073,0.392,0.061,0.183,-0.122,-10.646,-67.077,-171.041,-26.22,-8.72,-12.5,26.79,-0.01285,0.55463,-0.03482,0.83121,904,0.888,-0.047,0.466,-0.549,0.732,0.183,-5.284,-62.133,-120.015,-25.847,-9.353,3.827,25.82,0.40683,-0.46689,-0.22549,-0.75201,908,0.37,-0.077,0.919,-0.671,-0.977,-0.061,-4.565,-22.039,168.344,-10.113,-8.213,-33.573,26.67,0.10776,0.18539,-0.0571,0.97501,906,0.987,0.025,0.019,0.793,0.0,0.122,62.748,-88.16,128.188,-30.527,-12.34,1.947,29.14,-0.05719,0.69769,0.07654,0.70993,910
227,0.942,-0.073,0.389,0.0,0.0,-0.061,-10.64,-67.072,-171.041,-26.22,-8.72,-12.5,26.79,-0.01285,0.55463,-0.03482,0.83121,905,0.884,-0.047,0.468,-0.427,0.61,0.305,-5.306,-62.122,-120.004,-25.847,-9.353,3.827,25.82,0.40683,-0.46689,-0.22549,-0.75201,909,0.369,-0.079,0.92,-1.221,-0.671,0.0,-4.587,-22.055,168.333,-10.113,-8.213,-33.573,26.67,0.10776,0.18539,-0.0571,0.97501,907,0.985,0.024,0.016,0.732,0.122,-0.061,62.672,-88.16,128.304,-30.527,-12.34,1.947,29.14,-0.05719,0.69769,0.07654,0.70993,911
228,0.942,-0.074,0.389,0.122,-0.244,0.0,-10.64,-67.072,-171.035,-26.22,-8.72,-12.5,26.79,-0.01285,0.55463,-0.03482,0.83121,916,0.88,-0.048,0.468,-0.427,0.732,0.244,-5.323,-62.106,-120.009,-25.847,-9.353,3.827,25.82,0.40683,-0.46689,-0.22549,-0.75201,920,0.373,-0.082,0.918,-1.16,-0.977,0.0,-4.609,-22.066,168.327,-10.113,-8.213,-33.573,26.67,0.10776,0.18539,-0.0571,0.97501,914,0.983,0.024,0.012,0.366,0.0,-0.122,62.65,-88.16,128.353,-30.527,-12.34,1.947,29.14,-0.05719,0.69769,0.07654,0.70993,912
229,0.94,-0.075,0.39,0.122,-0.061,0.061,-10.64,-67.077,-171.03,-26.22,-8.72,-12.5,26.79,-0.01285,0.55463,-0.03482,0.83121,917,0.882,-0.047,0.466,-0.488,0.61,0.122,-5.339,-62.095,-120.02,-25.847,-9.353,3.827,25.82,0.40683,-0.46689,-0.22549,-0.75201,921,0.379,-0.083,0.917,-0.549,-1.404,0.0,-4.631,-22.088,168.338,-10.113,-8.213,-33.573,26.67,0.10776,0.18539,-0.0571,0.97501,915,0.983,0.024,0.01,0.305,-0.183,-0.244,62.765,-88.16,128.282,-30.527,-12.34,1.947,29.14,-0.05719,0.69769,0.07654,0.70993,913
230,0.938,-0.075,0.393,0.122,0.244,0.0,-10.64,-67.077,-171.019,-26.22,-8.72,-12.5,26.79,-0.01385,0.55447,-0.034,0.83133,918,0.889,-0.049,0.466,-0.183,0.427,-0.122,-5.345,-62.084,-120.026,-25.787,-9.513,3.173,25.82,0.40683,-0.46689,-0.22549,-0.75201,924,0.381,-0.083,0.917,-0.427,-1.282,0.0,-4.647,-22.115,168.365,-10.113,-8.213,-33.573,26.67,0.10776,0.18539,-0.0571,0.97501,928,0.985,0.024,0.014,0.244,0.0,-0.244,62.842,-88.16,128.249,-30.527,-12.34,1.947,29.14,-0.05719,0.69769,0.07654,0.70993,922
231,0.938,-0.074,0.396,0.061,0.427,-0.122,-10.635,-67.066,-171.019,-26.22,-8.72,-12.5,26.79,-0.01385,0.55447,-0.034,0.83133,919,0.893,-0.049,0.466,0.0,0.122,-0.305,-5.345,-62.078,-120.037,-25.787,-9.513,3.173,25.82,0.40683,-0.46689,-0.22549,-0.75201,925,0.38,-0.08,0.918,0.122,-1.404,0.0,-4.653,-22.143,168.393,-10.113,-8.213,-33.573,26.67,0.10776,0.18539,-0.0571,0.97501,929,0.988,0.026,0.017,0.061,0.122,-0.305,62.853,-88.154,128.276,-30.527,-12.34,1.947,29.14,-0.05719,0.69769,0.07654,0.70993,923
232,0.939,-0.073,0.392,0.122,0.427,-0.122,-10.624,-67.061,-171.019,-26.22,-8.72,-12.5,26.79,-0.01385,0.55447,-0.034,0.83133,926,0.89,-0.046,0.467,0.0,0.244,-0.488,-5.328,-62.078,-120.048,-25.787,-9.513,3.173,25.82,0.40683,-0.46689,-0.22549,-0.75201,932,0.377,-0.078,0.919,1.16,-0.854,-0.183,-4.642,-22.165,168.409,-10.407,-8.807,-31.733,26.67,0.10776,0.18539,-0.0571,0.97501,934,0.988,0.026,0.019,-0.122,0.0,-0.305,62.88,-88.149,128.265,-30.527,-12.34,1.947,29.14,-0.05719,0.69769,0.07654,0.70993,930
233,0.94,-0.073,0.391,0.061,-0.061,-0.122,-10.613,-67.055,-171.024,-26.22,-8.72,-12.5,26.79,-0.01385,0.55447,-0.034,0.83133,927,0.888,-0.043,0.468,-0.061,0.488,-0.549,-5.317,-62.073,-120.07,-25.787,-9.513,3.173,25.82,0.40683,-0.46689,-0.22549,-0.75201,933,0.377,-0.074,0.922,1.709,-0.549,-0.366,-4.62,-22.176,168.42,-10.407,-8.807,-31.733,26.67,0.10776,0.18539,-0.0571,0.97501,935,0.986,0.027,0.017,-0.366,0.061,-0.244,62.88,-88.149,128.276,-30.527,-12.34,1.947,29.14,-0.05719,0.69769,0.07654,0.70993,931
234,0.94,-0.072,0.39,-0.122,-0.244,-0.122,-10.613,-67.055,-171.024,-26.22,-8.72,-12.5,26.79,-0.01385,0.55447,-0.034,0.83133,936,0.887,-0.042,0.469,0.0,0.549,-0.61,-5.295,-62.062,-120.092,-25.787,-9.513,3.173,25.82,0.40674,-0.46597,-0.22278,-0.75345,938,0.378,-0.071,0.923,0.793,-0.732,-0.61,-4.592,-22.192,168.426,-10.407,-8.807,-31.733,26.67,0.10776,0.18539,-0.0571,0.97501,944,0.985,0.027,0.014,-0.427,0.183,-0.183,62.798,-88.143,128.364,-30.527,-12.34,1.947,29.14,-0.05719,0.69769,0.07654,0.70993,940
235,0.939,-0.073,0.389,-0.122,-0.122,-0.122,-10.607,-67.061,-171.019,-26.22,-8.72,-12.5,26.79,-0.01385,0.55447,-0.034,0.83133,937,0.885,-0.042,0.468,0.0,0.488,-0.549,-5.273,-62.056,-120.103,-25.787,-9.513,3.173,25.82,0.40674,-0.46597,-0.22278,-0.75345,939,0.376,-0.072,0.921,-0.366,0.061,-0.854,-4.587,-22.198,168.426,-10.407,-8.807,-31.733,26.67,0.10776,0.18539,-0.0571,0.97501,945,0.985,0.027,0.011,-0.305,0.366,-0.122,62.628,-88.138,128.562,-30.527,-12.34,1.947,29.14,-0.05719,0.69769,0.07654,0.70993,941
236,0.938,-0.074,0.391,0.0,0.0,-0.183,-10.607,-67.061,-171.019,-26.22,-8.72,-12.5,26.79,-0.01385,0.55447,-0.034,0.83133,942,0.885,-0.042,0.469,-0.305,0.244,-0.427,-5.268,-62.051,-120.114,-25.787,-9.513,3.173,25.82,0.40674,-0.46597,-0.22278,-0.75345,946,0.378,-0.073,0.919,-1.038,0.61,-0.854,-4.592,-22.192,168.42,-10.407,-8.807,-31.733,26.67,0.10651,0.18741,-0.05844,0.9747,948,0.985,0.025,0.013,-0.366,0.244,-0.122,62.49,-88.138,128.738,-30.393,-12.613,1.253,29.14,-0.05719,0.69769,0.07654,0.70993,950
