Index,L5_Acceleration X(g),L5_Acceleration Y(g),L5_Acceleration Z(g),L5_Angular velocity X(°/s),L5_Angular velocity Y(°/s),L5_Angular velocity Z(°/s),L5_Angle X(°),L5_Angle Y(°),L5_Angle Z(°),L5_Magnetic field X(ʯt),L5_Magnetic field Y(ʯt),L5_Magnetic field Z(ʯt),L5_Temperature(℃),L5_Quaternions 0(),L5_Quaternions 1(),L5_Quaternions 2(),L5_Quaternions 3(),L5___orig_idx,T4_Acceleration X(g),T4_Acceleration Y(g),T4_Acceleration Z(g),T4_Angular velocity X(°/s),T4_Angular velocity Y(°/s),T4_Angular velocity Z(°/s),T4_Angle X(°),T4_Angle Y(°),T4_Angle Z(°),T4_Magnetic field X(ʯt),T4_Magnetic field Y(ʯt),T4_Magnetic field Z(ʯt),T4_Temperature(℃),T4_Quaternions 0(),T4_Quaternions 1(),T4_Quaternions 2(),T4_Quaternions 3(),T4___orig_idx,C7_Acceleration X(g),C7_Acceleration Y(g),C7_Acceleration Z(g),C7_Angular velocity X(°/s),C7_Angular velocity Y(°/s),C7_Angular velocity Z(°/s),C7_Angle X(°),C7_Angle Y(°),C7_Angle Z(°),C7_Magnetic field X(ʯt),C7_Magnetic field Y(ʯt),C7_Magnetic field Z(ʯt),C7_Temperature(℃),C7_Quaternions 0(),C7_Quaternions 1(),C7_Quaternions 2(),C7_Quaternions 3(),C7___orig_idx,T12_Acceleration X(g),T12_Acceleration Y(g),T12_Acceleration Z(g),T12_Angular velocity X(°/s),T12_Angular velocity Y(°/s),T12_Angular velocity Z(°/s),T12_Angle X(°),T12_Angle Y(°),T12_Angle Z(°),T12_Magnetic field X(ʯt),T12_Magnetic field Y(ʯt),T12_Magnetic field Z(ʯt),T12_Temperature(℃),T12_Quaternions 0(),T12_Quaternions 1(),T12_Quaternions 2(),T12_Quaternions 3(),T12___orig_idx
0,1.004,-0.065,0.192,0.0,0.0,-0.305,-19.501,-78.547,-171.837,-27.553,-8.653,-6.893,27.35,0.05267,0.63138,-0.08667,0.76874,2,0.93,-0.002,0.379,1.282,0.854,-0.549,-1.489,-67.648,-124.634,-26.613,-10.153,5.027,26.05,0.37827,-0.49918,-0.24799,-0.73898,4,0.783,-0.033,0.615,4.15,1.282,-1.038,-3.274,-51.641,150.403,-19.993,-10.18,-24.493,26.95,0.24069,0.41699,-0.13571,0.86584,0,0.981,0.061,-0.097,0.366,0.916,-1.343,147.14,-83.848,39.968,-30.687,-12.22,4.44,29.81,-0.02396,0.73587,0.06729,0.67328,6
1,1.004,-0.067,0.189,0.488,0.305,-0.244,-19.462,-78.547,-171.87,-27.553,-8.653,-6.893,27.35,0.05267,0.63138,-0.08667,0.76874,3,0.929,-0.003,0.38,1.16,0.854,-0.61,-1.439,-67.632,-124.651,-26.613,-10.153,5.027,26.05,0.37827,-0.49918,-0.24799,-0.73898,5,0.783,-0.028,0.614,3.357,0.305,-1.16,-3.175,-51.63,150.331,-19.993,-10.18,-24.493,26.95,0.24069,0.41699,-0.13571,0.86584,1,0.981,0.062,-0.094,0.0,0.671,-1.099,146.882,-83.848,40.221,-30.687,-12.22,4.44,29.81,-0.02396,0.73587,0.06729,0.67328,7
2,1.003,-0.067,0.19,0.183,0.366,-0.183,-19.424,-78.541,-171.903,-27.553,-8.653,-6.893,27.35,0.05267,0.63138,-0.08667,0.76874,8,0.93,-0.002,0.381,1.099,0.977,-0.61,-1.384,-67.621,-124.678,-26.613,-10.153,5.027,26.05,0.37827,-0.49918,-0.24799,-0.73898,12,0.784,-0.026,0.613,3.113,0.122,-1.404,-3.087,-51.63,150.26,-19.993,-10.18,-24.493,26.95,0.24069,0.41699,-0.13571,0.86584,10,0.981,0.064,-0.091,0.0,0.671,-0.793,146.678,-83.842,40.402,-30.687,-12.22,4.44,29.81,-0.02084,0.73508,0.06638,0.67435,14
3,1.0,-0.064,0.192,-0.183,0.427,-0.305,-19.385,-78.536,-171.953,-27.553,-8.653,-6.893,27.35,0.05267,0.63138,-0.08667,0.76874,9,0.93,-0.003,0.379,0.977,0.854,-0.549,-1.335,-67.604,-124.706,-26.613,-10.153,5.027,26.05,0.37827,-0.49918,-0.24799,-0.73898,13,0.782,-0.025,0.613,3.174,0.061,-1.343,-2.994,-51.636,150.194,-19.993,-10.18,-24.493,26.95,0.24069,0.41699,-0.13571,0.86584,11,0.982,0.063,-0.088,0.061,1.038,-0.793,146.492,-83.842,40.556,-30.687,-12.22,4.44,29.81,-0.02084,0.73508,0.06638,0.67435,15
4,1.001,-0.063,0.193,-0.305,0.488,-0.244,-19.347,-78.53,-171.996,-27.553,-8.653,-6.893,27.35,0.05267,0.63138,-0.08667,0.76874,18,0.929,-0.004,0.382,0.854,0.916,-0.488,-1.285,-67.588,-124.733,-26.613,-10.153,5.027,26.05,0.37827,-0.49918,-0.24799,-0.73898,22,0.784,-0.022,0.615,2.869,0.671,-1.343,-2.9,-51.63,150.145,-19.653,-9.9,-24.68,26.95,0.24069,0.41699,-0.13571,0.86584,16,0.98,0.062,-0.087,0.183,0.916,-0.793,146.277,-83.848,40.748,-30.687,-12.22,4.44,29.81,-0.02084,0.73508,0.06638,0.67435,20
5,1.001,-0.064,0.193,0.0,0.488,-0.183,-19.314,-78.519,-172.035,-27.553,-8.653,-6.893,27.35,0.05267,0.63138,-0.08667,0.76874,19,0.925,-0.004,0.382,0.61,0.916,-0.549,-1.241,-67.571,-124.761,-26.613,-10.153,5.027,26.05,0.37827,-0.49918,-0.24799,-0.73898,23,0.783,-0.022,0.613,2.38,0.916,-1.16,-2.823,-51.619,150.106,-19.653,-9.9,-24.68,26.95,0.24069,0.41699,-0.13571,0.86584,17,0.981,0.063,-0.085,-0.366,0.732,-0.671,146.08,-83.853,40.941,-30.687,-12.22,4.44,29.81,-0.02084,0.73508,0.06638,0.67435,21
6,1.001,-0.064,0.192,0.122,0.366,-0.122,-19.281,-78.514,-172.062,-27.553,-8.653,-6.893,27.35,0.05267,0.63138,-0.08667,0.76874,26,0.925,-0.005,0.383,0.305,1.16,-0.61,-1.198,-67.555,-124.788,-26.613,-10.153,5.027,26.05,0.37827,-0.49918,-0.24799,-0.73898,28,0.781,-0.023,0.615,1.465,1.099,-0.854,-2.763,-51.603,150.068,-19.653,-9.9,-24.68,26.95,0.24069,0.41699,-0.13571,0.86584,24,0.979,0.061,-0.089,-0.916,0.793,-0.61,145.893,-83.853,41.078,-30.687,-12.22,4.44,29.81,-0.02084,0.73508,0.06638,0.67435,30
7,1.0,-0.066,0.192,0.0,0.427,-0.305,-19.237,-78.508,-172.106,-27.553,-8.653,-6.893,27.35,0.05267,0.63138,-0.08667,0.76874,27,0.926,-0.008,0.382,0.244,1.038,-0.366,-1.165,-67.533,-124.816,-26.613,-10.153,5.027,26.05,0.37827,-0.49918,-0.24799,-0.73898,29,0.778,-0.026,0.615,1.099,1.038,-0.732,-2.719,-51.586,150.029,-19.653,-9.9,-24.68,26.95,0.24069,0.41699,-0.13571,0.86584,25,0.979,0.057,-0.087,-1.343,0.793,-0.793,145.69,-83.859,41.221,-30.687,-12.22,4.44,29.81,-0.02084,0.73508,0.06638,0.67435,31
8,1.001,-0.066,0.197,-0.488,0.244,-0.488,-19.188,-78.508,-172.161,-27.553,-8.653,-6.893,27.35,0.05267,0.63138,-0.08667,0.76874,32,0.925,-0.013,0.385,0.244,1.038,0.0,-1.143,-67.516,-124.838,-26.613,-10.153,5.027,26.05,0.37827,-0.49918,-0.24799,-0.73898,38,0.778,-0.024,0.615,0.427,0.977,-0.488,-2.692,-51.57,149.991,-19.653,-9.9,-24.68,26.95,0.24261,0.4147,-0.13324,0.86676,34,0.979,0.057,-0.086,-1.282,0.793,-1.16,145.453,-83.859,41.402,-30.687,-12.22,4.44,29.81,-0.02084,0.73508,0.06638,0.67435,36
9,1.0,-0.065,0.195,-0.488,0.366,-0.549,-19.133,-78.503,-172.227,-27.553,-8.653,-6.893,27.35,0.05267,0.63138,-0.08667,0.76874,33,0.925,-0.011,0.385,0.366,1.16,0.183,-1.137,-67.495,-124.843,-26.613,-10.153,5.027,26.05,0.37827,-0.49918,-0.24799,-0.73898,39,0.779,-0.026,0.616,0.122,0.977,-0.061,-2.686,-51.553,149.963,-19.653,-9.9,-24.68,26.95,0.24261,0.4147,-0.13324,0.86676,35,0.981,0.058,-0.085,-0.732,0.793,-1.343,145.168,-83.859,41.627,-30.687,-12.22,4.44,29.81,-0.02084,0.73508,0.06638,0.67435,37
10,0.999,-0.065,0.194,0.0,0.366,-0.305,-19.089,-78.497,-172.282,-27.913,-8.2,-7.907,27.35,0.05267,0.63138,-0.08667,0.76874,46,0.921,-0.009,0.387,0.244,1.343,0.366,-1.143,-67.473,-124.838,-26.6,-10.033,4.073,26.05,0.37827,-0.49918,-0.24799,-0.73898,42,0.777,-0.03,0.617,-0.366,0.793,0.549,-2.697,-51.542,149.963,-19.653,-9.9,-24.68,26.95,0.24261,0.4147,-0.13324,0.86676,40,0.979,0.058,-0.082,-0.427,0.549,-1.465,144.882,-83.853,41.863,-30.687,-12.22,4.44,29.81,-0.02084,0.73508,0.06638,0.67435,44
11,0.999,-0.065,0.196,0.122,0.244,-0.244,-19.05,-78.492,-172.321,-27.913,-8.2,-7.907,27.35,0.05267,0.63138,-0.08667,0.76874,47,0.923,-0.011,0.386,0.366,1.343,0.427,-1.154,-67.451,-124.81,-26.6,-10.033,4.073,26.05,0.37827,-0.49918,-0.24799,-0.73898,43,0.776,-0.03,0.618,-0.732,0.732,1.099,-2.73,-51.526,150.007,-19.653,-9.9,-24.68,26.95,0.24261,0.4147,-0.13324,0.86676,41,0.978,0.058,-0.086,-0.671,0.366,-1.404,144.619,-83.842,42.1,-30.687,-12.22,4.44,29.81,-0.02084,0.73508,0.06638,0.67435,45
12,1.0,-0.067,0.193,0.0,0.061,-0.244,-19.017,-78.492,-172.348,-27.913,-8.2,-7.907,27.35,0.05267,0.63138,-0.08667,0.76874,48,0.927,-0.013,0.385,0.732,1.038,0.549,-1.17,-67.423,-124.783,-26.6,-10.033,4.073,26.05,0.37827,-0.49918,-0.24799,-0.73898,54,0.773,-0.029,0.617,-0.854,0.488,1.221,-2.78,-51.515,150.068,-19.653,-9.9,-24.68,26.95,0.24261,0.4147,-0.13324,0.86676,50,0.979,0.059,-0.085,-0.671,0.793,-1.404,144.344,-83.837,42.352,-30.687,-12.22,4.44,29.81,-0.02084,0.73508,0.06638,0.67435,52
13,1.001,-0.07,0.195,-0.122,0.061,-0.305,-18.99,-78.492,-172.381,-27.913,-8.2,-7.907,27.35,0.05267,0.63138,-0.08667,0.76874,49,0.928,-0.014,0.387,1.282,0.916,0.61,-1.181,-67.401,-124.755,-26.6,-10.033,4.073,26.05,0.37827,-0.49918,-0.24799,-0.73898,55,0.777,-0.031,0.619,-0.977,0.488,1.526,-2.829,-51.509,150.112,-19.653,-9.9,-24.68,26.95,0.24261,0.4147,-0.13324,0.86676,51,0.981,0.061,-0.084,-0.244,0.977,-1.587,144.031,-83.837,42.643,-30.687,-12.22,4.44,29.81,-0.02084,0.73508,0.06638,0.67435,53
14,1.0,-0.071,0.196,0.0,0.183,-0.366,-18.951,-78.492,-172.425,-27.913,-8.2,-7.907,27.35,0.05338,0.63107,-0.08603,0.76901,56,0.928,-0.013,0.388,1.526,1.038,0.671,-1.187,-67.385,-124.711,-26.6,-10.033,4.073,26.05,0.38052,-0.49561,-0.2496,-0.73969,62,0.779,-0.035,0.618,-1.343,0.61,2.075,-2.9,-51.493,150.189,-19.653,-9.9,-24.68,26.95,0.24261,0.4147,-0.13324,0.86676,58,0.98,0.059,-0.084,0.061,0.854,-1.587,143.712,-83.831,42.94,-30.48,-12.847,3.653,29.81,-0.02084,0.73508,0.06638,0.67435,60
15,0.999,-0.068,0.194,0.244,0.0,-0.366,-18.913,-78.492,-172.463,-27.913,-8.2,-7.907,27.35,0.05338,0.63107,-0.08603,0.76901,57,0.925,-0.014,0.387,1.465,1.221,0.732,-1.198,-67.363,-124.662,-26.6,-10.033,4.073,26.05,0.38052,-0.49561,-0.2496,-0.73969,63,0.78,-0.036,0.617,-1.038,0.305,2.563,-2.983,-51.487,150.276,-19.653,-9.9,-24.68,26.95,0.24261,0.4147,-0.13324,0.86676,59,0.981,0.06,-0.08,-0.061,0.61,-1.648,143.41,-83.826,43.193,-30.48,-12.847,3.653,29.81,-0.02084,0.73508,0.06638,0.67435,61
16,0.998,-0.066,0.195,0.0,-0.061,-0.427,-18.88,-78.492,-172.507,-27.913,-8.2,-7.907,27.35,0.05338,0.63107,-0.08603,0.76901,66,0.926,-0.012,0.393,1.77,1.465,0.732,-1.203,-67.341,-124.618,-26.6,-10.033,4.073,26.05,0.38052,-0.49561,-0.2496,-0.73969,70,0.779,-0.037,0.616,-1.038,0.549,2.869,-3.071,-51.476,150.37,-19.653,-9.9,-24.68,26.95,0.24261,0.4147,-0.13324,0.86676,64,0.98,0.062,-0.083,-0.305,0.305,-1.648,143.13,-83.815,43.434,-30.48,-12.847,3.653,29.81,-0.02084,0.73508,0.06638,0.67435,68
17,0.998,-0.065,0.196,-0.305,-0.122,-0.427,-18.853,-78.497,-172.546,-27.913,-8.2,-7.907,27.35,0.05338,0.63107,-0.08603,0.76901,67,0.929,-0.012,0.388,1.953,1.465,0.61,-1.208,-67.308,-124.579,-26.6,-10.033,4.073,26.05,0.38052,-0.49561,-0.2496,-0.73969,71,0.776,-0.039,0.618,-0.793,1.343,2.808,-3.159,-51.449,150.463,-19.653,-9.9,-24.68,26.95,0.24261,0.4147,-0.13324,0.86676,65,0.982,0.064,-0.086,-0.305,0.671,-1.648,142.844,-83.804,43.682,-30.48,-12.847,3.653,29.81,-0.02084,0.73508,0.06638,0.67435,69
18,1.002,-0.065,0.196,-0.305,0.0,-0.366,-18.825,-78.497,-172.584,-27.913,-8.2,-7.907,27.35,0.05338,0.63107,-0.08603,0.76901,76,0.928,-0.011,0.389,2.197,1.282,0.488,-1.198,-67.28,-124.552,-26.6,-10.033,4.073,26.05,0.38052,-0.49561,-0.2496,-0.73969,74,0.778,-0.04,0.623,0.244,2.258,2.441,-3.219,-51.411,150.529,-19.653,-9.9,-24.68,26.95,0.24261,0.4147,-0.13324,0.86676,72,0.985,0.067,-0.09,0.122,1.282,-1.648,142.509,-83.798,43.962,-30.48,-12.847,3.653,29.81,-0.01569,0.73401,0.06503,0.67575,78
19,1.004,-0.065,0.196,-0.122,0.061,-0.366,-18.792,-78.497,-172.628,-27.913,-8.2,-7.907,27.35,0.05338,0.63107,-0.08603,0.76901,77,0.928,-0.006,0.391,2.258,1.221,0.244,-1.181,-67.253,-124.541,-26.6,-10.033,4.073,26.05,0.38052,-0.49561,-0.2496,-0.73969,75,0.779,-0.039,0.623,0.61,1.77,2.075,-3.257,-51.367,150.568,-19.653,-9.9,-24.68,26.95,0.24261,0.4147,-0.13324,0.86676,73,0.984,0.068,-0.088,0.427,1.404,-1.648,142.147,-83.804,44.308,-30.48,-12.847,3.653,29.81,-0.01569,0.73401,0.06503,0.67575,79
20,1.003,-0.066,0.196,-0.122,0.183,-0.427,-18.748,-78.492,-172.678,-27.913,-8.2,-7.907,27.35,0.05338,0.63107,-0.08603,0.76901,80,0.925,-0.005,0.389,2.502,1.282,0.061,-1.148,-67.231,-124.541,-26.6,-10.033,4.073,26.05,0.38052,-0.49561,-0.2496,-0.73969,84,0.777,-0.039,0.622,0.977,0.305,2.136,-3.296,-51.356,150.601,-19.653,-9.9,-24.68,26.95,0.24261,0.4147,-0.13324,0.86676,82,0.982,0.069,-0.082,0.183,1.038,-1.587,141.801,-83.798,44.621,-30.48,-12.847,3.653,29.81,-0.01569,0.73401,0.06503,0.67575,86
21,1.001,-0.067,0.195,-0.122,0.0,-0.427,-18.715,-78.492,-172.722,-27.913,-8.2,-7.907,27.35,0.05338,0.63107,-0.08603,0.76901,81,0.923,-0.004,0.388,2.319,1.526,-0.061,-1.099,-67.203,-124.536,-26.6,-10.033,4.073,26.05,0.38052,-0.49561,-0.2496,-0.73969,85,0.779,-0.036,0.62,1.282,0.0,1.709,-3.318,-51.35,150.634,-19.653,-9.9,-24.68,26.95,0.24261,0.4147,-0.13324,0.86676,83,0.978,0.069,-0.081,-0.366,0.854,-1.343,141.493,-83.798,44.901,-30.48,-12.847,3.653,29.81,-0.01569,0.73401,0.06503,0.67575,87
22,0.997,-0.066,0.194,-0.183,-0.305,-0.427,-18.688,-78.503,-172.755,-27.913,-8.2,-7.907,27.35,0.05338,0.63107,-0.08603,0.76901,88,0.922,-0.004,0.387,1.953,1.648,-0.061,-1.055,-67.176,-124.53,-26.6,-10.033,4.073,26.05,0.38052,-0.49561,-0.2496,-0.73969,90,0.776,-0.035,0.616,1.709,0.244,1.282,-3.318,-51.35,150.656,-19.8,-10.053,-25.373,26.95,0.24261,0.4147,-0.13324,0.86676,92,0.977,0.071,-0.083,-0.427,0.916,-1.16,141.218,-83.793,45.159,-30.48,-12.847,3.653,29.92,-0.01569,0.73401,0.06503,0.67575,94
23,0.998,-0.064,0.192,-0.305,-0.183,-0.366,-18.666,-78.503,-172.787,-27.913,-8.2,-7.907,27.35,0.05338,0.63107,-0.08603,0.76901,89,0.92,0.0,0.389,1.648,1.465,-0.183,-1.011,-67.143,-124.536,-26.6,-10.033,4.073,26.05,0.38052,-0.49561,-0.2496,-0.73969,91,0.774,-0.033,0.616,2.319,1.953,0.793,-3.296,-51.317,150.661,-19.8,-10.053,-25.373,26.95,0.24261,0.4147,-0.13324,0.86676,93,0.977,0.073,-0.085,-0.061,1.099,-1.16,140.938,-83.798,45.417,-30.48,-12.847,3.653,29.92,-0.01569,0.73401,0.06503,0.67575,95
24,1.0,-0.062,0.195,-0.488,0.0,-0.427,-18.638,-78.508,-172.831,-27.913,-8.2,-7.907,27.35,0.05338,0.63107,-0.08603,0.76901,96,0.92,0.001,0.391,1.465,1.099,-0.427,-0.967,-67.115,-124.552,-26.6,-10.033,4.073,26.05,0.38052,-0.49561,-0.2496,-0.73969,102,0.773,-0.033,0.617,2.441,2.197,0.427,-3.257,-51.279,150.667,-19.8,-10.053,-25.373,26.95,0.24002,0.41187,-0.13422,0.86868,98,0.979,0.076,-0.083,-0.122,1.099,-1.16,140.652,-83.798,45.687,-30.48,-12.847,3.653,29.92,-0.01569,0.73401,0.06503,0.67575,100
25,1.002,-0.061,0.196,-0.366,0.244,-0.549,-18.583,-78.503,-172.897,-27.913,-8.2,-7.907,27.35,0.05338,0.63107,-0.08603,0.76901,97,0.92,0.0,0.395,1.099,0.977,-0.732,-0.912,-67.099,-124.579,-26.6,-10.033,4.073,26.05,0.38052,-0.49561,-0.2496,-0.73969,103,0.771,-0.03,0.621,2.625,1.648,-0.244,-3.203,-51.246,150.639,-19.8,-10.053,-25.373,26.95,0.24002,0.41187,-0.13422,0.86868,99,0.979,0.077,-0.078,-0.305,1.038,-1.099,140.361,-83.798,45.972,-30.48,-12.847,3.653,29.92,-0.01569,0.73401,0.06503,0.67575,101
26,1.001,-0.061,0.196,-0.061,0.122,-0.488,-18.528,-78.503,-172.947,-27.913,-8.2,-7.907,27.35,0.05338,0.63107,-0.08603,0.76901,110,0.919,0.001,0.396,0.427,1.099,-0.977,-0.851,-67.077,-124.618,-26.6,-10.033,4.073,26.05,0.38052,-0.49561,-0.2496,-0.73969,104,0.772,-0.029,0.623,2.747,1.892,-0.916,-3.126,-51.207,150.601,-19.8,-10.053,-25.373,26.95,0.24002,0.41187,-0.13422,0.86868,108,0.979,0.075,-0.077,-0.305,1.038,-0.854,140.087,-83.798,46.263,-30.48,-12.847,3.653,29.92,-0.01569,0.73401,0.06503,0.67575,106
27,1.0,-0.062,0.194,0.0,-0.122,-0.366,-18.495,-78.508,-172.985,-27.913,-8.2,-7.907,27.35,0.05338,0.63107,-0.08603,0.76901,111,0.918,0.0,0.396,-0.061,1.099,-1.099,-0.797,-67.055,-124.684,-26.6,-10.033,4.073,26.05,0.38052,-0.49561,-0.2496,-0.73969,105,0.771,-0.027,0.625,1.953,1.953,-1.099,-3.054,-51.174,150.557,-19.8,-10.053,-25.373,26.95,0.24002,0.41187,-0.13422,0.86868,109,0.978,0.072,-0.076,-0.488,0.977,-0.854,139.828,-83.804,46.577,-30.48,-12.847,3.653,29.92,-0.01569,0.73401,0.06503,0.67575,107
28,0.999,-0.063,0.194,-0.244,-0.427,-0.427,-18.468,-78.514,-173.013,-27.793,-8.467,-7.5,27.35,0.05338,0.63107,-0.08603,0.76901,114,0.92,-0.002,0.394,-0.244,0.854,-1.16,-0.736,-67.033,-124.755,-26.6,-10.033,4.073,26.05,0.38052,-0.49561,-0.2496,-0.73969,116,0.769,-0.026,0.628,0.977,1.77,-1.16,-2.999,-51.141,150.518,-19.8,-10.053,-25.373,26.95,0.24002,0.41187,-0.13422,0.86868,112,0.978,0.073,-0.079,-0.732,0.549,-0.854,139.603,-83.798,46.862,-30.48,-12.847,3.653,29.92,-0.01569,0.73401,0.06503,0.67575,118
29,1.0,-0.062,0.193,-0.305,-0.305,-0.549,-18.43,-78.525,-173.062,-27.793,-8.467,-7.5,27.35,0.05338,0.63107,-0.08603,0.76901,115,0.921,-0.003,0.393,-0.122,0.732,-1.343,-0.681,-67.017,-124.821,-26.6,-10.033,4.073,26.05,0.38052,-0.49561,-0.2496,-0.73969,117,0.769,-0.026,0.627,0.244,1.404,-1.16,-2.955,-51.114,150.474,-19.8,-10.053,-25.373,26.95,0.24002,0.41187,-0.13422,0.86868,113,0.978,0.076,-0.083,-0.488,0.854,-0.854,139.362,-83.798,47.164,-30.48,-12.847,3.653,29.92,-0.01569,0.73401,0.06503,0.67575,119
30,1.0,-0.061,0.195,-0.122,0.0,-0.549,-18.375,-78.525,-173.117,-27.793,-8.467,-7.5,27.35,0.05338,0.63107,-0.08603,0.76901,122,0.926,0.0,0.394,0.122,0.549,-1.526,-0.61,-67.006,-124.898,-26.8,-10.387,4.56,26.05,0.38052,-0.49561,-0.2496,-0.73969,128,0.771,-0.03,0.625,-0.305,0.61,-1.099,-2.928,-51.097,150.447,-19.8,-10.053,-25.373,26.95,0.24002,0.41187,-0.13422,0.86868,120,0.982,0.078,-0.081,-0.427,0.671,-0.732,139.147,-83.798,47.45,-30.48,-12.847,3.653,29.92,-0.01569,0.73401,0.06503,0.67575,124
31,1.002,-0.06,0.201,-0.122,0.0,-0.549,-18.32,-78.53,-173.172,-27.793,-8.467,-7.5,27.35,0.05338,0.63107,-0.08603,0.76901,123,0.928,0.004,0.395,0.061,0.427,-1.648,-0.533,-66.995,-124.98,-26.8,-10.387,4.56,26.05,0.38052,-0.49561,-0.2496,-0.73969,129,0.773,-0.031,0.624,-0.183,0.061,-1.16,-2.906,-51.092,150.43,-19.8,-10.053,-25.373,26.95,0.24002,0.41187,-0.13422,0.86868,121,0.983,0.076,-0.08,-0.61,0.549,-0.61,138.955,-83.798,47.697,-30.48,-12.847,3.653,29.92,-0.01569,0.73401,0.06503,0.67575,125
32,1.001,-0.062,0.198,-0.244,0.0,-0.488,-18.27,-78.53,-173.221,-27.793,-8.467,-7.5,27.35,0.05508,0.63104,-0.08582,0.76895,126,0.924,0.002,0.395,-0.122,0.61,-1.587,-0.45,-66.984,-125.068,-26.8,-10.387,4.56,26.05,0.38269,-0.49115,-0.25153,-0.74088,132,0.777,-0.026,0.625,0.305,0.427,-1.282,-2.867,-51.086,150.397,-19.8,-10.053,-25.373,26.95,0.24002,0.41187,-0.13422,0.86868,130,0.984,0.074,-0.075,-0.916,0.671,-0.427,138.774,-83.798,47.917,-30.48,-12.847,3.653,29.92,-0.01569,0.73401,0.06503,0.67575,136
33,1.002,-0.063,0.194,-0.244,-0.183,-0.427,-18.232,-78.536,-173.26,-27.793,-8.467,-7.5,27.35,0.05508,0.63104,-0.08582,0.76895,127,0.921,0.001,0.395,-0.305,0.793,-1.465,-0.379,-66.967,-125.151,-26.8,-10.387,4.56,26.05,0.38269,-0.49115,-0.25153,-0.74088,133,0.776,-0.023,0.625,0.244,0.671,-1.282,-2.829,-51.075,150.353,-19.8,-10.053,-25.373,26.95,0.24002,0.41187,-0.13422,0.86868,131,0.981,0.072,-0.078,-0.732,0.549,-0.305,138.625,-83.798,48.104,-30.48,-12.847,3.653,29.92,-0.01569,0.73401,0.06503,0.67575,137
34,1.003,-0.064,0.19,-0.122,-0.183,-0.366,-18.199,-78.541,-173.293,-27.793,-8.467,-7.5,27.35,0.05508,0.63104,-0.08582,0.76895,140,0.922,0.002,0.394,-0.244,0.671,-1.16,-0.319,-66.951,-125.222,-26.8,-10.387,4.56,26.05,0.38269,-0.49115,-0.25153,-0.74088,142,0.773,-0.024,0.625,-0.061,0.671,-1.221,-2.791,-51.064,150.304,-19.8,-10.053,-25.373,26.95,0.24002,0.41187,-0.13422,0.86868,134,0.979,0.073,-0.083,-0.793,0.183,-0.305,138.516,-83.798,48.235,-30.247,-12.873,4.56,29.92,-0.01569,0.73401,0.06503,0.67575,138
35,1.003,-0.062,0.192,0.0,-0.122,-0.244,-18.177,-78.541,-173.315,-27.793,-8.467,-7.5,27.35,0.05508,0.63104,-0.08582,0.76895,141,0.924,0.004,0.393,-0.244,0.305,-0.854,-0.269,-66.94,-125.283,-26.8,-10.387,4.56,26.05,0.38269,-0.49115,-0.25153,-0.74088,143,0.771,-0.023,0.627,-0.61,1.404,-0.793,-2.774,-51.042,150.255,-19.8,-10.053,-25.373,26.95,0.24002,0.41187,-0.13422,0.86868,135,0.979,0.075,-0.085,-0.732,0.244,-0.305,138.422,-83.798,48.351,-30.247,-12.873,4.56,29.92,-0.01569,0.73401,0.06503,0.67575,139
36,1.004,-0.06,0.193,-0.061,0.0,-0.244,-18.149,-78.541,-173.342,-27.793,-8.467,-7.5,27.35,0.05508,0.63104,-0.08582,0.76895,146,0.924,0.005,0.394,-0.366,0.0,-0.61,-0.236,-66.94,-125.321,-26.8,-10.387,4.56,26.05,0.38269,-0.49115,-0.25153,-0.74088,150,0.773,-0.021,0.627,-1.099,1.282,-0.244,-2.78,-51.015,150.233,-19.8,-10.053,-25.373,26.95,0.24002,0.41187,-0.13422,0.86868,144,0.981,0.076,-0.081,-0.671,0.122,-0.305,138.34,-83.793,48.439,-30.247,-12.873,4.56,29.92,-0.01569,0.73401,0.06503,0.67575,148
37,1.004,-0.06,0.193,0.0,0.305,-0.183,-18.122,-78.536,-173.37,-27.793,-8.467,-7.5,27.35,0.05508,0.63104,-0.08582,0.76895,147,0.922,0.002,0.393,-0.244,0.0,-0.549,-0.209,-66.94,-125.359,-26.8,-10.387,4.56,26.05,0.38269,-0.49115,-0.25153,-0.74088,151,0.775,-0.022,0.627,-0.671,0.488,0.0,-2.791,-51.004,150.205,-19.8,-10.053,-25.373,26.95,0.24002,0.41187,-0.13422,0.86868,145,0.98,0.074,-0.08,-0.549,-0.122,-0.244,138.285,-83.787,48.494,-30.247,-12.873,4.56,29.92,-0.01569,0.73401,0.06503,0.67575,149
38,1.001,-0.062,0.189,0.183,0.427,-0.183,-18.083,-78.53,-173.403,-27.793,-8.467,-7.5,27.35,0.05508,0.63104,-0.08582,0.76895,154,0.921,0.002,0.392,-0.183,0.0,-0.549,-0.181,-66.94,-125.392,-26.8,-10.387,4.56,26.05,0.38269,-0.49115,-0.25153,-0.74088,156,0.774,-0.023,0.624,-0.793,0.549,0.061,-2.796,-50.993,150.194,-19.8,-10.053,-25.373,26.95,0.24002,0.41187,-0.13422,0.86868,152,0.979,0.075,-0.086,-0.916,-0.671,-0.183,138.301,-83.771,48.466,-30.247,-12.873,4.56,29.92,-0.01465,0.73184,0.06888,0.67776,158
39,1.001,-0.063,0.189,0.183,0.244,-0.061,-18.062,-78.525,-173.419,-27.793,-8.467,-7.5,27.35,0.05508,0.63104,-0.08582,0.76895,155,0.923,-0.001,0.392,0.244,-0.122,-0.549,-0.148,-66.94,-125.425,-26.8,-10.387,4.56,26.05,0.38269,-0.49115,-0.25153,-0.74088,157,0.77,-0.027,0.625,-0.244,1.038,-0.244,-2.796,-50.971,150.167,-19.8,-10.053,-25.373,26.95,0.24002,0.41187,-0.13422,0.86868,153,0.98,0.075,-0.088,-1.16,-0.793,0.061,138.367,-83.76,48.384,-30.247,-12.873,4.56,29.92,-0.01465,0.73184,0.06888,0.67776,159
40,1.002,-0.062,0.196,0.0,0.488,-0.244,-18.023,-78.519,-173.463,-27.793,-8.467,-7.5,27.35,0.05508,0.63104,-0.08582,0.76895,160,0.927,-0.004,0.392,0.732,-0.183,-0.366,-0.115,-66.94,-125.442,-26.8,-10.387,4.56,26.05,0.38269,-0.49115,-0.25153,-0.74088,162,0.77,-0.03,0.625,-1.282,1.465,0.244,-2.812,-50.949,150.161,-19.553,-9.747,-24.66,26.95,0.24002,0.41187,-0.13422,0.86868,164,0.98,0.071,-0.084,-1.465,-0.977,0.183,138.466,-83.743,48.268,-30.247,-12.873,4.56,29.92,-0.01465,0.73184,0.06888,0.67776,166
41,1.005,-0.063,0.196,-0.427,0.793,-0.366,-17.968,-78.508,-173.524,-27.793,-8.467,-7.5,27.35,0.05508,0.63104,-0.08582,0.76895,161,0.93,-0.003,0.39,0.366,-0.122,-0.122,-0.093,-66.945,-125.436,-26.8,-10.387,4.56,26.05,0.38269,-0.49115,-0.25153,-0.74088,163,0.773,-0.028,0.625,-0.244,0.793,0.061,-2.818,-50.927,150.167,-19.553,-9.747,-24.66,26.95,0.24002,0.41187,-0.13422,0.86868,165,0.986,0.069,-0.077,-1.221,-0.549,0.061,138.532,-83.732,48.181,-30.247,-12.873,4.56,29.92,-0.01465,0.73184,0.06888,0.67776,167
42,1.002,-0.064,0.194,-0.488,1.16,-0.488,-17.897,-78.486,-173.617,-27.793,-8.467,-7.5,27.35,0.05508,0.63104,-0.08582,0.76895,168,0.93,0.0,0.39,-0.244,0.244,-0.122,-0.082,-66.945,-125.425,-26.8,-10.387,4.56,26.05,0.38269,-0.49115,-0.25153,-0.74088,174,0.778,-0.033,0.623,-0.244,0.549,0.244,-2.823,-50.916,150.178,-19.553,-9.747,-24.66,26.95,0.24243,0.40952,-0.13205,0.86948,172,0.985,0.069,-0.079,-0.671,0.0,0.0,138.532,-83.732,48.175,-30.247,-12.873,4.56,29.92,-0.01465,0.73184,0.06888,0.67776,170
43,0.997,-0.065,0.196,-0.183,0.671,-0.488,-17.836,-78.481,-173.694,-27.793,-8.467,-7.5,27.35,0.05508,0.63104,-0.08582,0.76895,169,0.927,-0.001,0.39,-0.488,0.671,-0.305,-0.082,-66.934,-125.425,-26.8,-10.387,4.56,26.05,0.38269,-0.49115,-0.25153,-0.74088,175,0.779,-0.032,0.621,-1.099,0.916,0.671,-2.851,-50.9,150.183,-19.553,-9.747,-24.66,26.95,0.24243,0.40952,-0.13205,0.86948,173,0.981,0.07,-0.079,-1.465,0.305,0.122,138.494,-83.732,48.235,-30.247,-12.873,4.56,29.92,-0.01465,0.73184,0.06888,0.67776,171
44,0.997,-0.063,0.197,-0.244,0.122,-0.61,-17.787,-78.481,-173.771,-27.793,-8.467,-7.5,27.35,0.05508,0.63104,-0.08582,0.76895,180,0.919,-0.007,0.392,-0.244,1.038,-0.305,-0.071,-66.923,-125.436,-26.8,-10.387,4.56,26.05,0.38269,-0.49115,-0.25153,-0.74088,186,0.777,-0.033,0.621,-1.099,0.854,0.305,-2.878,-50.889,150.156,-19.553,-9.747,-24.66,26.95,0.24243,0.40952,-0.13205,0.86948,176,0.977,0.07,-0.078,-1.892,0.244,0.183,138.444,-83.738,48.279,-30.247,-12.873,4.56,29.92,-0.01465,0.73184,0.06888,0.67776,178
45,0.997,-0.064,0.198,-0.61,0.183,-0.854,-17.715,-78.481,-173.881,-27.793,-8.467,-7.5,27.35,0.05508,0.63104,-0.08582,0.76895,181,0.917,-0.008,0.393,0.0,1.404,-0.244,-0.066,-66.896,-125.436,-26.8,-10.387,4.56,26.05,0.38269,-0.49115,-0.25153,-0.74088,187,0.773,-0.036,0.621,-0.916,0.488,-0.061,-2.895,-50.878,150.123,-19.553,-9.747,-24.66,26.95,0.24243,0.40952,-0.13205,0.86948,177,0.976,0.069,-0.077,-1.099,-0.183,0.0,138.433,-83.738,48.285,-30.247,-12.873,4.56,29.92,-0.01465,0.73184,0.06888,0.67776,179
46,0.999,-0.064,0.195,-0.427,0.488,-0.732,-17.644,-78.475,-173.99,-27.527,-8.587,-8.0,27.35,0.05508,0.63104,-0.08582,0.76895,184,0.918,-0.002,0.393,0.427,1.221,-0.183,-0.055,-66.874,-125.442,-26.827,-10.187,4.327,26.05,0.38269,-0.49115,-0.25153,-0.74088,190,0.768,-0.038,0.62,-1.038,0.366,0.244,-2.917,-50.872,150.106,-19.553,-9.747,-24.66,26.95,0.24243,0.40952,-0.13205,0.86948,182,0.976,0.07,-0.078,-0.122,0.244,-0.122,138.384,-83.743,48.367,-30.247,-12.873,4.56,29.92,-0.01465,0.73184,0.06888,0.67776,188
47,1.003,-0.058,0.199,0.0,0.0,-0.244,-17.611,-78.47,-174.045,-27.527,-8.587,-8.0,27.35,0.05508,0.63104,-0.08582,0.76895,185,0.918,0.001,0.394,0.916,1.221,-0.183,-0.038,-66.852,-125.447,-26.827,-10.187,4.327,26.05,0.38269,-0.49115,-0.25153,-0.74088,191,0.767,-0.035,0.624,-0.793,2.075,0.549,-2.944,-50.845,150.095,-19.553,-9.747,-24.66,26.95,0.24243,0.40952,-0.13205,0.86948,183,0.976,0.074,-0.077,-0.244,0.488,-0.183,138.29,-83.749,48.51,-30.247,-12.873,4.56,29.92,-0.01465,0.73184,0.06888,0.67776,189
48,1.001,-0.061,0.195,-0.122,0.183,-0.305,-17.589,-78.47,-174.1,-27.527,-8.587,-8.0,27.35,0.05508,0.63104,-0.08582,0.76895,194,0.923,0.002,0.396,0.793,1.16,-0.244,-0.011,-66.83,-125.464,-26.827,-10.187,4.327,26.05,0.38269,-0.49115,-0.25153,-0.74088,200,0.766,-0.034,0.625,0.305,3.235,0.183,-2.95,-50.79,150.068,-19.553,-9.747,-24.66,26.95,0.24243,0.40952,-0.13205,0.86948,192,0.98,0.075,-0.08,-0.61,0.488,-0.183,138.186,-83.749,48.653,-30.247,-12.873,4.56,29.92,-0.01465,0.73184,0.06888,0.67776,196
49,1.001,-0.061,0.195,-0.305,0.183,-0.427,-17.556,-78.47,-174.155,-27.527,-8.587,-8.0,27.35,0.05508,0.63104,-0.08582,0.76895,195,0.923,0.004,0.399,0.549,1.099,-0.305,0.005,-66.808,-125.48,-26.827,-10.187,4.327,26.05,0.38269,-0.49115,-0.25153,-0.74088,201,0.767,-0.03,0.628,0.061,2.625,0.671,-2.955,-50.735,150.062,-19.553,-9.747,-24.66,26.95,0.24243,0.40952,-0.13205,0.86948,193,0.982,0.075,-0.081,-0.122,0.793,-0.122,138.065,-83.76,48.834,-30.247,-12.873,4.56,29.92,-0.01465,0.73184,0.06888,0.67776,197
50,1.002,-0.062,0.195,-0.488,0.122,-0.427,-17.518,-78.464,-174.21,-27.527,-8.587,-8.0,27.35,0.05743,0.63028,-0.08621,0.76938,198,0.923,0.006,0.398,0.244,1.16,-0.183,0.027,-66.786,-125.491,-26.827,-10.187,4.327,26.05,0.38239,-0.48923,-0.2522,-0.74213,204,0.771,-0.031,0.63,0.671,1.343,0.061,-2.95,-50.707,150.04,-19.553,-9.747,-24.66,26.95,0.24243,0.40952,-0.13205,0.86948,202,0.983,0.073,-0.076,0.0,0.671,-0.061,137.966,-83.771,48.961,-30.147,-12.647,4.553,29.92,-0.01465,0.73184,0.06888,0.67776,208
51,1.004,-0.06,0.194,-0.366,0.0,-0.366,-17.485,-78.464,-174.276,-27.527,-8.587,-8.0,27.35,0.05743,0.63028,-0.08621,0.76938,199,0.923,0.005,0.399,-0.061,1.038,-0.061,0.033,-66.764,-125.508,-26.827,-10.187,4.327,26.05,0.38239,-0.48923,-0.2522,-0.74213,205,0.77,-0.027,0.633,0.61,0.366,-0.061,-2.933,-50.696,150.029,-19.553,-9.747,-24.66,26.95,0.24243,0.40952,-0.13205,0.86948,203,0.981,0.075,-0.08,-0.305,0.366,-0.061,137.895,-83.776,49.037,-30.147,-12.647,4.553,29.92,-0.01465,0.73184,0.06888,0.67776,209
52,1.004,-0.058,0.196,-0.366,0.305,-0.427,-17.457,-78.464,-174.342,-27.527,-8.587,-8.0,27.35,0.05743,0.63028,-0.08621,0.76938,210,0.926,0.005,0.396,-0.244,0.854,0.0,0.033,-66.742,-125.519,-26.827,-10.187,4.327,26.05,0.38239,-0.48923,-0.2522,-0.74213,214,0.77,-0.025,0.632,0.61,0.61,-0.305,-2.917,-50.685,150.018,-19.553,-9.747,-24.66,26.95,0.24243,0.40952,-0.13205,0.86948,206,0.982,0.077,-0.083,-0.488,0.183,0.0,137.856,-83.776,49.092,-30.147,-12.647,4.553,29.92,-0.01538,0.73157,0.07022,0.67792,212
53,1.001,-0.058,0.198,-0.549,0.305,-0.488,-17.413,-78.464,-174.413,-27.527,-8.587,-8.0,27.35,0.05743,0.63028,-0.08621,0.76938,211,0.926,0.008,0.396,-0.366,0.61,-0.061,0.033,-66.731,-125.513,-26.827,-10.187,4.327,26.05,0.38239,-0.48923,-0.2522,-0.74213,215,0.771,-0.027,0.631,-0.183,1.221,0.0,-2.911,-50.663,150.013,-19.553,-9.747,-24.66,26.95,0.24243,0.40952,-0.13205,0.86948,207,0.984,0.078,-0.081,-0.671,0.366,0.061,137.796,-83.782,49.164,-30.147,-12.647,4.553,29.92,-0.01538,0.73157,0.07022,0.67792,213
54,0.999,-0.059,0.197,-0.61,-0.061,-0.488,-17.369,-78.459,-174.496,-27.527,-8.587,-8.0,27.35,0.05743,0.63028,-0.08621,0.76938,216,0.919,0.006,0.396,-0.61,0.916,-0.122,0.033,-66.714,-125.524,-26.827,-10.187,4.327,26.05,0.38239,-0.48923,-0.2522,-0.74213,218,0.772,-0.027,0.631,-0.183,1.648,-0.061,-2.906,-50.636,150.018,-19.553,-9.747,-24.66,26.95,0.24243,0.40952,-0.13205,0.86948,220,0.981,0.079,-0.075,-0.854,0.305,0.244,137.758,-83.787,49.197,-30.147,-12.647,4.553,29.92,-0.01538,0.73157,0.07022,0.67792,222
55,0.997,-0.061,0.196,-0.793,-0.061,-0.61,-17.331,-78.464,-174.562,-27.527,-8.587,-8.0,27.35,0.05743,0.63028,-0.08621,0.76938,217,0.916,0.002,0.395,-0.916,1.343,-0.122,0.033,-66.693,-125.535,-26.827,-10.187,4.327,26.05,0.38239,-0.48923,-0.2522,-0.74213,219,0.77,-0.025,0.63,-0.244,1.099,-0.183,-2.906,-50.614,150.007,-19.553,-9.747,-24.66,26.95,0.24243,0.40952,-0.13205,0.86948,221,0.978,0.074,-0.075,-0.793,0.183,0.305,137.741,-83.793,49.191,-30.147,-12.647,4.553,29.92,-0.01538,0.73157,0.07022,0.67792,223
56,0.997,-0.06,0.2,-0.732,0.122,-0.549,-17.287,-78.47,-174.65,-27.527,-8.587,-8.0,27.35,0.05743,0.63028,-0.08621,0.76938,226,0.918,0.0,0.396,-0.916,1.404,0.0,0.022,-66.665,-125.535,-26.827,-10.187,4.327,26.05,0.38239,-0.48923,-0.2522,-0.74213,228,0.766,-0.026,0.626,-0.549,0.671,-0.244,-2.906,-50.598,149.98,-19.46,-9.973,-25.093,26.95,0.24243,0.40952,-0.13205,0.86948,224,0.975,0.071,-0.079,-0.732,0.366,0.183,137.692,-83.798,49.208,-30.147,-12.647,4.553,29.92,-0.01538,0.73157,0.07022,0.67792,230
57,1.0,-0.061,0.204,-0.427,0.122,-0.427,-17.249,-78.47,-174.721,-27.527,-8.587,-8.0,27.35,0.05743,0.63028,-0.08621,0.76938,227,0.925,0.0,0.396,-0.671,1.038,0.244,0.005,-66.643,-125.535,-26.827,-10.187,4.327,26.05,0.38239,-0.48923,-0.2522,-0.74213,229,0.766,-0.028,0.625,-0.854,0.977,-0.183,-2.911,-50.587,149.969,-19.46,-9.973,-25.093,26.95,0.24243,0.40952,-0.13205,0.86948,225,0.979,0.072,-0.078,-0.61,0.916,0.183,137.582,-83.815,49.257,-30.147,-12.647,4.553,29.92,-0.01538,0.73157,0.07022,0.67792,231
58,0.997,-0.059,0.202,-0.305,-0.366,-0.427,-17.21,-78.47,-174.771,-27.527,-8.587,-8.0,27.35,0.05743,0.63028,-0.08621,0.76938,232,0.924,0.002,0.4,-0.488,1.282,0.244,-0.005,-66.621,-125.524,-26.827,-10.187,4.327,26.05,0.38239,-0.48923,-0.2522,-0.74213,236,0.77,-0.027,0.629,-1.831,1.892,0.732,-2.944,-50.554,149.974,-19.46,-9.973,-25.093,26.95,0.24243,0.40952,-0.13205,0.86948,234,0.983,0.076,-0.071,-0.671,1.038,0.366,137.472,-83.831,49.296,-30.147,-12.647,4.553,29.92,-0.01538,0.73157,0.07022,0.67792,238
59,0.997,-0.057,0.194,-0.671,-0.671,-0.427,-17.188,-78.475,-174.803,-27.527,-8.587,-8.0,27.35,0.05743,0.63028,-0.08621,0.76938,233,0.919,0.001,0.401,-0.488,1.831,0.244,-0.022,-66.594,-125.502,-26.827,-10.187,4.327,26.05,0.38239,-0.48923,-0.2522,-0.74213,237,0.77,-0.029,0.63,-0.549,1.953,0.305,-2.966,-50.515,149.985,-19.46,-9.973,-25.093,26.95,0.24243,0.40952,-0.13205,0.86948,235,0.982,0.075,-0.071,-0.61,1.099,0.488,137.368,-83.853,49.334,-30.147,-12.647,4.553,29.92,-0.01538,0.73157,0.07022,0.67792,239
60,1.004,-0.057,0.198,-0.793,-0.366,-0.183,-17.183,-78.486,-174.853,-27.527,-8.587,-8.0,27.35,0.05743,0.63028,-0.08621,0.76938,240,0.92,0.0,0.401,-0.305,2.075,0.366,-0.044,-66.555,-125.475,-26.827,-10.187,4.327,26.05,0.38239,-0.48923,-0.2522,-0.74213,242,0.77,-0.033,0.629,-0.488,1.099,0.366,-2.977,-50.493,149.996,-19.46,-9.973,-25.093,26.95,0.24472,0.40594,-0.13306,0.87036,244,0.981,0.074,-0.077,-0.061,1.343,0.488,137.247,-83.881,49.427,-30.147,-12.647,4.553,29.92,-0.01538,0.73157,0.07022,0.67792,246
61,1.007,-0.059,0.201,-0.183,0.0,0.061,-17.183,-78.492,-174.88,-27.527,-8.587,-8.0,27.35,0.05743,0.63028,-0.08621,0.76938,241,0.924,0.002,0.4,0.0,1.831,0.366,-0.055,-66.517,-125.447,-26.827,-10.187,4.327,26.05,0.38239,-0.48923,-0.2522,-0.74213,243,0.765,-0.029,0.633,-0.732,1.404,0.61,-2.999,-50.466,150.007,-19.46,-9.973,-25.093,26.95,0.24472,0.40594,-0.13306,0.87036,245,0.983,0.075,-0.083,0.244,1.526,0.427,137.098,-83.908,49.554,-30.147,-12.647,4.553,29.92,-0.01538,0.73157,0.07022,0.67792,247
62,1.005,-0.059,0.197,0.427,0.0,0.305,-17.188,-78.486,-174.858,-27.527,-8.587,-8.0,27.35,0.05743,0.63028,-0.08621,0.76938,252,0.927,0.005,0.401,0.305,1.343,0.488,-0.071,-66.484,-125.414,-26.827,-10.187,4.327,26.05,0.38239,-0.48923,-0.2522,-0.74213,258,0.769,-0.033,0.635,-0.61,1.587,1.099,-3.032,-50.438,150.04,-19.46,-9.973,-25.093,26.95,0.24472,0.40594,-0.13306,0.87036,248,0.986,0.076,-0.082,0.305,1.953,0.549,136.923,-83.941,49.719,-30.147,-12.647,4.553,29.92,-0.01538,0.73157,0.07022,0.67792,250
63,1.001,-0.06,0.195,0.549,-0.122,0.366,-17.199,-78.486,-174.814,-27.527,-8.587,-8.0,27.35,0.05743,0.63028,-0.08621,0.76938,253,0.924,0.005,0.401,0.427,1.343,0.61,-0.082,-66.462,-125.37,-26.827,-10.187,4.327,26.05,0.38239,-0.48923,-0.2522,-0.74213,259,0.771,-0.023,0.639,1.587,1.282,0.061,-3.01,-50.411,150.051,-19.46,-9.973,-25.093,26.95,0.24472,0.40594,-0.13306,0.87036,249,0.984,0.075,-0.078,0.61,2.014,0.732,136.769,-83.974,49.861,-30.147,-12.647,4.553,29.92,-0.01538,0.73157,0.07022,0.67792,251
64,1.0,-0.061,0.194,0.305,0.183,0.305,-17.221,-78.481,-174.792,-27.573,-8.167,-7.593,27.35,0.05743,0.63028,-0.08621,0.76938,256,0.917,0.003,0.402,0.366,1.648,0.854,-0.104,-66.429,-125.316,-26.32,-9.847,4.66,26.05,0.38239,-0.48923,-0.2522,-0.74213,262,0.773,-0.027,0.635,0.366,0.61,0.732,-3.005,-50.4,150.073,-19.46,-9.973,-25.093,26.95,0.24472,0.40594,-0.13306,0.87036,254,0.977,0.072,-0.075,1.099,1.587,0.732,136.675,-84.007,49.977,-30.147,-12.647,4.553,29.92,-0.01538,0.73157,0.07022,0.67792,260
65,1.001,-0.059,0.192,0.183,0.366,0.427,-17.232,-78.475,-174.803,-27.573,-8.167,-7.593,27.35,0.05743,0.63028,-0.08621,0.76938,257,0.913,0.002,0.401,0.122,1.709,0.916,-0.137,-66.396,-125.261,-26.32,-9.847,4.66,26.05,0.38239,-0.48923,-0.2522,-0.74213,263,0.769,-0.024,0.633,0.61,0.305,0.854,-3.01,-50.389,150.106,-19.46,-9.973,-25.093,26.95,0.24472,0.40594,-0.13306,0.87036,255,0.973,0.075,-0.075,0.977,1.526,0.793,136.593,-84.04,50.103,-30.147,-12.647,4.553,29.92,-0.01538,0.73157,0.07022,0.67792,261
66,1.002,-0.059,0.193,0.061,0.366,0.488,-17.254,-78.464,-174.803,-27.573,-8.167,-7.593,27.35,0.05743,0.63028,-0.08621,0.76938,266,0.91,0.005,0.4,-0.305,1.587,0.793,-0.17,-66.368,-125.211,-26.32,-9.847,4.66,26.05,0.38239,-0.48923,-0.2522,-0.74213,272,0.761,-0.03,0.633,0.183,1.465,1.038,-3.021,-50.367,150.145,-19.46,-9.973,-25.093,26.95,0.24472,0.40594,-0.13306,0.87036,264,0.972,0.077,-0.076,0.366,1.648,0.977,136.511,-84.067,50.208,-30.473,-12.667,3.667,29.92,-0.01538,0.73157,0.07022,0.67792,268
67,1.001,-0.057,0.193,0.061,0.305,0.488,-17.287,-78.453,-174.771,-27.573,-8.167,-7.593,27.35,0.05743,0.63028,-0.08621,0.76938,267,0.909,0.009,0.401,-0.793,1.343,0.732,-0.209,-66.341,-125.173,-26.32,-9.847,4.66,26.05,0.38239,-0.48923,-0.2522,-0.74213,273,0.758,-0.029,0.632,0.061,2.258,0.671,-3.027,-50.328,150.172,-19.46,-9.973,-25.093,26.95,0.24472,0.40594,-0.13306,0.87036,265,0.972,0.077,-0.072,-0.244,1.404,1.16,136.439,-84.1,50.273,-30.473,-12.667,3.667,29.92,-0.01538,0.73157,0.07022,0.67792,269
68,1.0,-0.057,0.192,-0.183,0.427,0.305,-17.309,-78.448,-174.743,-27.573,-8.167,-7.593,27.35,0.06003,0.62985,-0.08777,0.76932,270,0.909,0.008,0.402,-1.526,1.16,0.671,-0.253,-66.319,-125.145,-26.32,-9.847,4.66,26.05,0.38446,-0.48636,-0.25037,-0.74353,276,0.756,-0.027,0.632,-0.671,1.953,0.793,-3.049,-50.29,150.2,-19.46,-9.973,-25.093,26.95,0.24472,0.40594,-0.13306,0.87036,274,0.973,0.077,-0.074,-0.305,1.038,1.221,136.412,-84.133,50.306,-30.473,-12.667,3.667,29.92,-0.01492,0.72964,0.06784,0.68021,278
69,1.0,-0.058,0.19,-0.366,0.916,0.244,-17.32,-78.437,-174.732,-27.573,-8.167,-7.593,27.35,0.06003,0.62985,-0.08777,0.76932,271,0.913,0.007,0.402,-2.014,1.038,0.549,-0.308,-66.297,-125.123,-26.32,-9.847,4.66,26.05,0.38446,-0.48636,-0.25037,-0.74353,277,0.755,-0.024,0.632,-1.038,1.587,0.488,-3.071,-50.257,150.216,-19.46,-9.973,-25.093,26.95,0.24472,0.40594,-0.13306,0.87036,275,0.978,0.076,-0.078,0.0,0.916,1.404,136.434,-84.161,50.284,-30.473,-12.667,3.667,29.92,-0.01492,0.72964,0.06784,0.68021,279
70,1.003,-0.059,0.196,-0.366,1.099,0.305,-17.314,-78.415,-174.749,-27.573,-8.167,-7.593,27.35,0.06003,0.62985,-0.08777,0.76932,280,0.923,0.007,0.403,-2.014,0.61,0.549,-0.357,-66.281,-125.107,-26.32,-9.847,4.66,26.05,0.38446,-0.48636,-0.25037,-0.74353,284,0.757,-0.024,0.633,-1.343,0.977,0.122,-3.093,-50.235,150.233,-19.46,-9.973,-25.093,26.95,0.24472,0.40594,-0.13306,0.87036,282,0.987,0.073,-0.073,-0.244,0.732,1.526,136.5,-84.188,50.219,-30.473,-12.667,3.667,29.92,-0.01492,0.72964,0.06784,0.68021,286
71,1.005,-0.062,0.201,-0.122,1.282,0.122,-17.309,-78.393,-174.765,-27.573,-8.167,-7.593,27.35,0.06003,0.62985,-0.08777,0.76932,281,0.93,0.002,0.405,-1.648,0.183,0.793,-0.412,-66.275,-125.079,-26.32,-9.847,4.66,26.05,0.38446,-0.48636,-0.25037,-0.74353,285,0.763,-0.026,0.633,-1.648,1.526,-0.183,-3.109,-50.208,150.233,-19.46,-9.973,-25.093,26.95,0.24472,0.40594,-0.13306,0.87036,283,0.993,0.07,-0.065,-0.427,0.61,1.587,136.599,-84.216,50.114,-30.473,-12.667,3.667,29.92,-0.01492,0.72964,0.06784,0.68021,287
72,1.003,-0.061,0.2,-0.122,0.916,0.122,-17.281,-78.371,-174.787,-27.573,-8.167,-7.593,27.35,0.06003,0.62985,-0.08777,0.76932,288,0.929,0.0,0.409,-2.014,0.549,1.16,-0.483,-66.27,-125.035,-26.32,-9.847,4.66,26.05,0.38446,-0.48636,-0.25037,-0.74353,294,0.772,-0.026,0.638,-1.587,1.709,-0.122,-3.131,-50.175,150.244,-19.46,-9.973,-25.093,26.95,0.24472,0.40594,-0.13306,0.87036,290,0.991,0.067,-0.065,-0.793,0.549,1.77,136.719,-84.238,50.021,-30.473,-12.667,3.667,29.92,-0.01492,0.72964,0.06784,0.68021,292
73,0.999,-0.061,0.195,-0.488,0.427,0.244,-17.271,-78.354,-174.792,-27.573,-8.167,-7.593,27.35,0.06003,0.62985,-0.08777,0.76932,289,0.921,0.0,0.41,-2.319,1.16,1.404,-0.577,-66.248,-124.98,-26.32,-9.847,4.66,26.05,0.38446,-0.48636,-0.25037,-0.74353,295,0.773,-0.029,0.638,-1.465,1.526,0.061,-3.148,-50.147,150.249,-19.46,-9.973,-25.093,26.95,0.24472,0.40594,-0.13306,0.87036,291,0.984,0.064,-0.072,-0.61,0.732,2.075,136.862,-84.271,49.9,-30.473,-12.667,3.667,29.92,-0.01492,0.72964,0.06784,0.68021,293
74,1.0,-0.061,0.199,-0.916,0.366,0.488,-17.292,-78.349,-174.798,-27.573,-8.167,-7.593,27.35,0.06003,0.62985,-0.08777,0.76932,298,0.917,-0.005,0.41,-2.319,1.404,1.587,-0.681,-66.22,-124.915,-26.32,-9.847,4.66,26.05,0.38446,-0.48636,-0.25037,-0.74353,300,0.768,-0.031,0.641,-1.831,1.709,0.549,-3.192,-50.114,150.266,-19.367,-9.787,-24.72,26.95,0.24472,0.40594,-0.13306,0.87036,296,0.981,0.066,-0.072,-0.122,0.916,2.136,137.032,-84.309,49.752,-30.473,-12.667,3.667,29.92,-0.01492,0.72964,0.06784,0.68021,302
75,1.002,-0.061,0.207,-0.549,0.366,0.671,-17.347,-78.338,-174.798,-27.573,-8.167,-7.593,27.35,0.06003,0.62985,-0.08777,0.76932,299,0.919,-0.01,0.407,-1.709,1.038,1.648,-0.78,-66.198,-124.832,-26.32,-9.847,4.66,26.05,0.38446,-0.48636,-0.25037,-0.74353,301,0.761,-0.034,0.643,-1.282,2.197,0.244,-3.208,-50.07,150.255,-19.367,-9.787,-24.72,26.95,0.24472,0.40594,-0.13306,0.87036,297,0.984,0.067,-0.07,0.183,1.16,1.953,137.181,-84.348,49.642,-30.473,-12.667,3.667,29.92,-0.01492,0.72964,0.06784,0.68021,303
76,1.002,-0.06,0.208,0.061,0.427,0.671,-17.397,-78.327,-174.754,-27.573,-8.167,-7.593,27.35,0.06003,0.62985,-0.08777,0.76932,306,0.92,-0.011,0.407,-1.16,0.61,1.648,-0.873,-66.182,-124.75,-26.32,-9.847,4.66,26.05,0.38446,-0.48636,-0.25037,-0.74353,308,0.76,-0.037,0.645,-1.526,2.319,0.61,-3.246,-50.026,150.233,-19.367,-9.787,-24.72,26.95,0.24472,0.40594,-0.13306,0.87036,304,0.986,0.067,-0.068,0.061,1.404,1.77,137.28,-84.391,49.587,-30.473,-12.667,3.667,29.92,-0.01492,0.72964,0.06784,0.68021,310
77,0.998,-0.061,0.204,0.488,0.549,0.427,-17.43,-78.316,-174.716,-27.573,-8.167,-7.593,27.35,0.06003,0.62985,-0.08777,0.76932,307,0.918,-0.009,0.409,-0.977,0.793,1.526,-0.956,-66.165,-124.673,-26.32,-9.847,4.66,26.05,0.38446,-0.48636,-0.25037,-0.74353,309,0.762,-0.042,0.642,-0.977,1.404,0.732,-3.274,-49.999,150.222,-19.367,-9.787,-24.72,26.95,0.24472,0.40594,-0.13306,0.87036,305,0.983,0.063,-0.064,0.061,1.404,1.648,137.329,-84.43,49.565,-30.473,-12.667,3.667,29.92,-0.01492,0.72964,0.06784,0.68021,311
78,0.994,-0.062,0.2,0.183,0.305,0.427,-17.435,-78.3,-174.705,-27.573,-8.167,-7.593,27.35,0.06003,0.62985,-0.08777,0.76932,312,0.914,-0.013,0.41,-0.916,1.221,1.465,-1.038,-66.143,-124.607,-26.32,-9.847,4.66,26.05,0.38446,-0.48636,-0.25037,-0.74353,314,0.762,-0.042,0.639,-0.61,0.977,0.671,-3.301,-49.977,150.216,-19.367,-9.787,-24.72,26.95,0.24435,0.40164,-0.13351,0.87238,318,0.976,0.059,-0.063,0.0,1.587,1.587,137.351,-84.474,49.581,-30.473,-12.667,3.667,29.92,-0.01492,0.72964,0.06784,0.68021,316
79,0.996,-0.063,0.199,-0.305,-0.061,0.366,-17.463,-78.294,-174.672,-27.573,-8.167,-7.593,27.35,0.06003,0.62985,-0.08777,0.76932,313,0.909,-0.015,0.409,-1.038,1.587,1.526,-1.121,-66.11,-124.547,-26.32,-9.847,4.66,26.05,0.38446,-0.48636,-0.25037,-0.74353,315,0.759,-0.042,0.638,-0.671,1.526,0.916,-3.329,-49.949,150.238,-19.367,-9.787,-24.72,26.95,0.24435,0.40164,-0.13351,0.87238,319,0.973,0.06,-0.067,-0.183,1.465,1.587,137.357,-84.518,49.603,-30.473,-12.667,3.667,29.92,-0.01492,0.72964,0.06784,0.68021,317
80,0.998,-0.063,0.198,-0.366,0.0,0.366,-17.501,-78.289,-174.639,-27.573,-8.167,-7.593,27.35,0.06003,0.62985,-0.08777,0.76932,320,0.909,-0.013,0.407,-1.221,1.343,1.465,-1.208,-66.083,-124.486,-26.32,-9.847,4.66,26.05,0.38446,-0.48636,-0.25037,-0.74353,326,0.752,-0.045,0.64,-0.244,2.258,0.793,-3.351,-49.9,150.276,-19.367,-9.787,-24.72,26.95,0.24435,0.40164,-0.13351,0.87238,324,0.977,0.061,-0.068,0.0,1.343,1.526,137.379,-84.562,49.609,-30.54,-12.28,3.8,29.92,-0.01492,0.72964,0.06784,0.68021,322
81,1.0,-0.063,0.202,-0.122,0.122,0.305,-17.529,-78.289,-174.6,-27.573,-8.167,-7.593,27.35,0.06003,0.62985,-0.08777,0.76932,321,0.912,-0.012,0.408,-1.221,0.732,1.282,-1.291,-66.066,-124.42,-26.32,-9.847,4.66,26.05,0.38446,-0.48636,-0.25037,-0.74353,327,0.75,-0.046,0.64,-0.61,2.319,0.854,-3.384,-49.856,150.331,-19.367,-9.787,-24.72,26.95,0.24435,0.40164,-0.13351,0.87238,325,0.98,0.063,-0.064,0.061,1.343,1.526,137.411,-84.6,49.598,-30.54,-12.28,3.8,29.92,-0.01492,0.72964,0.06784,0.68021,323
82,1.0,-0.064,0.2,0.0,0.183,0.244,-17.545,-78.278,-174.584,-27.327,-8.5,-7.393,27.35,0.06003,0.62985,-0.08777,0.76932,334,0.912,-0.011,0.411,-1.282,0.671,1.099,-1.368,-66.05,-124.36,-26.367,-10.053,4.46,26.05,0.38446,-0.48636,-0.25037,-0.74353,332,0.751,-0.042,0.642,-0.793,2.136,0.916,-3.417,-49.812,150.386,-19.367,-9.787,-24.72,26.95,0.24435,0.40164,-0.13351,0.87238,330,0.982,0.061,-0.063,0.0,0.916,1.404,137.455,-84.639,49.57,-30.54,-12.28,3.8,29.92,-0.01492,0.72964,0.06784,0.68021,328
83,0.997,-0.064,0.198,-0.061,-0.061,0.244,-17.567,-78.278,-174.567,-27.327,-8.5,-7.393,27.35,0.06003,0.62985,-0.08777,0.76932,335,0.91,-0.014,0.413,-1.404,0.854,1.221,-1.445,-66.028,-124.288,-26.367,-10.053,4.46,26.05,0.38446,-0.48636,-0.25037,-0.74353,333,0.753,-0.043,0.642,-0.549,0.977,0.427,-3.439,-49.79,150.425,-19.367,-9.787,-24.72,26.95,0.24435,0.40164,-0.13351,0.87238,331,0.978,0.055,-0.062,-0.183,0.671,1.221,137.532,-84.666,49.504,-30.54,-12.28,3.8,29.92,-0.01492,0.72964,0.06784,0.68021,329
84,0.996,-0.064,0.197,-0.183,-0.427,0.305,-17.6,-78.278,-174.556,-27.327,-8.5,-7.393,27.35,0.06003,0.62866,-0.08887,0.77017,338,0.91,-0.019,0.413,-1.16,0.977,1.404,-1.533,-66.011,-124.206,-26.367,-10.053,4.46,26.05,0.38446,-0.48636,-0.25037,-0.74353,342,0.753,-0.038,0.643,-1.16,0.061,0.793,-3.483,-49.79,150.474,-19.367,-9.787,-24.72,26.95,0.24435,0.40164,-0.13351,0.87238,340,0.978,0.054,-0.067,-0.305,0.549,1.099,137.615,-84.688,49.417,-30.54,-12.28,3.8,29.92,-0.01962,0.72787,0.06708,0.68207,336
85,1.001,-0.064,0.199,-0.366,-0.305,0.244,-17.639,-78.283,-174.54,-27.327,-8.5,-7.393,27.35,0.06003,0.62866,-0.08887,0.77017,339,0.912,-0.02,0.412,-1.038,0.488,1.648,-1.626,-65.995,-124.124,-26.367,-10.053,4.46,26.05,0.38446,-0.48636,-0.25037,-0.74353,343,0.75,-0.046,0.645,-0.671,0.488,0.732,-3.516,-49.774,150.502,-19.367,-9.787,-24.72,26.95,0.24435,0.40164,-0.13351,0.87238,341,0.981,0.058,-0.065,0.122,0.732,0.977,137.686,-84.716,49.329,-30.54,-12.28,3.8,29.92,-0.01962,0.72787,0.06708,0.68207,337
86,1.003,-0.063,0.203,-0.305,-0.244,0.244,-17.677,-78.283,-174.501,-27.327,-8.5,-7.393,27.35,0.06003,0.62866,-0.08887,0.77017,350,0.918,-0.017,0.41,-0.793,0.183,1.587,-1.719,-65.984,-124.036,-26.367,-10.053,4.46,26.05,0.38611,-0.48669,-0.24442,-0.74445,348,0.752,-0.046,0.647,-0.61,0.854,0.916,-3.549,-49.757,150.518,-19.367,-9.787,-24.72,26.95,0.24435,0.40164,-0.13351,0.87238,344,0.986,0.061,-0.071,0.61,0.793,0.854,137.725,-84.738,49.257,-30.54,-12.28,3.8,29.92,-0.01962,0.72787,0.06708,0.68207,346
87,1.001,-0.062,0.203,-0.183,0.0,0.183,-17.704,-78.283,-174.485,-27.327,-8.5,-7.393,27.35,0.06003,0.62866,-0.08887,0.77017,351,0.922,-0.015,0.41,-0.549,0.061,1.465,-1.796,-65.978,-123.959,-26.367,-10.053,4.46,26.05,0.38611,-0.48669,-0.24442,-0.74445,349,0.757,-0.047,0.645,-0.854,0.0,1.282,-3.598,-49.752,150.568,-19.367,-9.787,-24.72,26.95,0.24435,0.40164,-0.13351,0.87238,345,0.988,0.061,-0.062,0.61,0.854,0.854,137.758,-84.76,49.197,-30.54,-12.28,3.8,29.92,-0.01962,0.72787,0.06708,0.68207,347
88,0.997,-0.064,0.201,-0.061,-0.366,0.244,-17.726,-78.283,-174.452,-27.327,-8.5,-7.393,27.35,0.06003,0.62866,-0.08887,0.77017,354,0.921,-0.016,0.413,-0.305,0.244,1.343,-1.868,-65.973,-123.882,-26.367,-10.053,4.46,26.05,0.38611,-0.48669,-0.24442,-0.74445,366,0.763,-0.045,0.643,-0.488,-0.916,1.221,-3.642,-49.763,150.628,-19.367,-9.787,-24.72,26.95,0.24435,0.40164,-0.13351,0.87238,352,0.983,0.058,-0.059,0.488,0.305,0.977,137.829,-84.781,49.103,-30.54,-12.28,3.8,29.92,-0.01962,0.72787,0.06708,0.68207,358
89,0.994,-0.067,0.196,-0.244,-0.61,0.244,-17.765,-78.289,-174.402,-27.327,-8.5,-7.393,27.35,0.06003,0.62866,-0.08887,0.77017,355,0.919,-0.015,0.409,-0.427,0.61,1.343,-1.939,-65.962,-123.821,-26.367,-10.053,4.46,26.05,0.38611,-0.48669,-0.24442,-0.74445,367,0.763,-0.044,0.641,-0.122,-0.488,1.282,-3.68,-49.768,150.677,-19.367,-9.787,-24.72,26.95,0.24435,0.40164,-0.13351,0.87238,353,0.98,0.055,-0.068,0.244,0.122,1.099,137.966,-84.798,48.961,-30.54,-12.28,3.8,29.92,-0.01962,0.72787,0.06708,0.68207,359
90,0.998,-0.066,0.194,-0.549,-0.549,0.061,-17.803,-78.294,-174.375,-27.327,-8.5,-7.393,27.35,0.06003,0.62866,-0.08887,0.77017,360,0.916,-0.013,0.411,-0.61,0.427,1.465,-2.01,-65.951,-123.766,-26.367,-10.053,4.46,26.05,0.38611,-0.48669,-0.24442,-0.74445,368,0.762,-0.044,0.64,0.122,0.61,1.221,-3.708,-49.757,150.71,-19.367,-9.787,-24.72,26.95,0.24435,0.40164,-0.13351,0.87238,356,0.981,0.057,-0.075,0.122,-0.427,1.221,138.181,-84.814,48.757,-30.54,-12.28,3.8,29.92,-0.01962,0.72787,0.06708,0.68207,362
91,1.003,-0.063,0.195,-0.671,-0.061,-0.122,-17.82,-78.3,-174.391,-27.327,-8.5,-7.393,27.35,0.06003,0.62866,-0.08887,0.77017,361,0.912,-0.015,0.417,-0.061,0.0,1.526,-2.082,-65.945,-123.69,-26.367,-10.053,4.46,26.05,0.38611,-0.48669,-0.24442,-0.74445,369,0.759,-0.042,0.643,0.305,1.831,1.038,-3.724,-49.719,150.727,-19.367,-9.787,-24.72,26.95,0.24435,0.40164,-0.13351,0.87238,357,0.981,0.063,-0.067,0.183,-1.099,1.221,138.505,-84.82,48.45,-30.54,-12.28,3.8,29.92,-0.01962,0.72787,0.06708,0.68207,363
92,1.002,-0.061,0.202,-0.61,0.244,-0.183,-17.82,-78.3,-174.441,-27.327,-8.5,-7.393,27.35,0.06003,0.62866,-0.08887,0.77017,374,0.911,-0.018,0.418,0.854,0.061,1.343,-2.131,-65.94,-123.618,-26.367,-10.053,4.46,26.05,0.38611,-0.48669,-0.24442,-0.74445,372,0.753,-0.041,0.648,0.854,2.441,0.671,-3.719,-49.669,150.749,-19.367,-9.787,-24.72,26.95,0.24435,0.40164,-0.13351,0.87238,364,0.982,0.064,-0.052,0.244,-1.709,1.282,138.911,-84.814,48.054,-30.54,-12.28,3.8,29.92,-0.01962,0.72787,0.06708,0.68207,370
93,0.995,-0.058,0.208,-0.427,-0.305,0.122,-17.825,-78.3,-174.463,-27.327,-8.5,-7.393,27.35,0.06003,0.62866,-0.08887,0.77017,375,0.907,-0.017,0.411,1.099,0.244,1.099,-2.164,-65.934,-123.541,-26.367,-10.053,4.46,26.05,0.38611,-0.48669,-0.24442,-0.74445,373,0.753,-0.044,0.65,1.038,2.991,0.977,-3.719,-49.603,150.782,-19.367,-9.787,-24.72,26.95,0.24435,0.40164,-0.13351,0.87238,365,0.978,0.062,-0.055,0.0,-1.16,1.282,139.301,-84.809,47.681,-30.54,-12.28,3.8,29.92,-0.01962,0.72787,0.06708,0.68207,371
94,0.993,-0.059,0.205,-0.427,-0.977,0.244,-17.864,-78.305,-174.446,-27.327,-8.5,-7.393,27.35,0.06003,0.62866,-0.08887,0.77017,380,0.911,-0.014,0.411,0.732,0.305,0.671,-2.175,-65.923,-123.497,-26.367,-10.053,4.46,26.05,0.38611,-0.48669,-0.24442,-0.74445,382,0.746,-0.045,0.647,0.244,4.578,1.587,-3.746,-49.51,150.826,-19.267,-9.36,-24.987,26.95,0.24435,0.40164,-0.13351,0.87238,376,0.977,0.059,-0.062,-0.122,-0.366,1.343,139.587,-84.814,47.395,-30.54,-12.28,3.8,29.92,-0.01962,0.72787,0.06708,0.68207,378
95,0.997,-0.062,0.201,-0.488,-1.099,0.183,-17.913,-78.322,-174.386,-27.327,-8.5,-7.393,27.35,0.06003,0.62866,-0.08887,0.77017,381,0.918,-0.01,0.405,0.0,0.183,0.549,-2.197,-65.918,-123.47,-26.367,-10.053,4.46,26.05,0.38611,-0.48669,-0.24442,-0.74445,383,0.75,-0.046,0.646,-0.183,4.7,1.709,-3.785,-49.417,150.875,-19.267,-9.36,-24.987,26.95,0.24435,0.40164,-0.13351,0.87238,377,0.981,0.06,-0.069,0.061,0.244,1.343,139.779,-84.836,47.197,-30.54,-12.28,3.8,29.92,-0.01962,0.72787,0.06708,0.68207,379
96,1.004,-0.064,0.2,-0.488,-0.732,0.061,-17.952,-78.338,-174.353,-27.327,-8.5,-7.393,27.35,0.06003,0.62866,-0.08887,0.77017,388,0.921,-0.009,0.407,-0.305,-0.122,0.366,-2.219,-65.918,-123.437,-26.367,-10.053,4.46,26.05,0.38611,-0.48669,-0.24442,-0.74445,390,0.75,-0.032,0.647,1.953,3.174,0.0,-3.741,-49.351,150.864,-19.267,-9.36,-24.987,26.95,0.24161,0.39648,-0.13376,0.87546,384,0.985,0.062,-0.07,0.244,0.793,1.465,139.911,-84.858,47.082,-30.673,-12.46,3.267,29.92,-0.01962,0.72787,0.06708,0.68207,386
97,1.005,-0.063,0.197,-0.244,-0.977,0.061,-17.985,-78.349,-174.337,-27.327,-8.5,-7.393,27.35,0.06003,0.62866,-0.08887,0.77017,389,0.919,-0.012,0.413,-0.61,-0.305,0.183,-2.236,-65.923,-123.42,-26.367,-10.053,4.46,26.05,0.38611,-0.48669,-0.24442,-0.74445,391,0.76,-0.046,0.642,0.427,2.258,-0.244,-3.724,-49.307,150.848,-19.267,-9.36,-24.987,26.95,0.24161,0.39648,-0.13376,0.87546,385,0.986,0.061,-0.062,0.061,0.0,1.587,140.081,-84.886,46.956,-30.673,-12.46,3.267,29.92,-0.01962,0.72787,0.06708,0.68207,387
98,1.001,-0.062,0.191,-0.183,-1.038,0.183,-18.023,-78.365,-174.298,-27.327,-8.5,-7.393,27.35,0.06003,0.62866,-0.08887,0.77017,392,0.913,-0.014,0.411,-0.977,0.061,0.061,-2.252,-65.918,-123.415,-26.367,-10.053,4.46,26.05,0.38611,-0.48669,-0.24442,-0.74445,394,0.757,-0.039,0.648,-0.183,2.136,-0.488,-3.713,-49.268,150.831,-19.267,-9.36,-24.987,26.95,0.24161,0.39648,-0.13376,0.87546,398,0.982,0.058,-0.068,-0.183,-0.61,1.587,140.356,-84.902,46.692,-30.673,-12.46,3.267,29.92,-0.01962,0.72787,0.06708,0.68207,396
99,1.0,-0.061,0.193,-0.427,-0.61,0.183,-18.062,-78.376,-174.271,-27.327,-8.5,-7.393,27.35,0.06003,0.62866,-0.08887,0.77017,393,0.91,-0.015,0.41,-1.221,0.61,0.0,-2.269,-65.907,-123.426,-26.367,-10.053,4.46,26.05,0.38611,-0.48669,-0.24442,-0.74445,395,0.748,-0.04,0.648,-0.122,2.686,-0.671,-3.697,-49.219,150.809,-19.267,-9.36,-24.987,26.95,0.24161,0.39648,-0.13376,0.87546,399,0.978,0.056,-0.079,-0.549,-0.366,1.648,140.658,-84.913,46.384,-30.673,-12.46,3.267,29.92,-0.01962,0.72787,0.06708,0.68207,397
100,1.003,-0.06,0.197,-0.61,-0.244,0.244,-18.1,-78.382,-174.221,-27.327,-8.5,-7.393,27.35,0.06003,0.62866,-0.08887,0.77017,404,0.911,-0.02,0.41,-1.099,0.305,0.061,-2.291,-65.901,-123.442,-26.367,-10.053,4.46,26.05,0.38611,-0.48669,-0.24442,-0.74445,410,0.744,-0.044,0.648,0.488,2.625,-0.549,-3.669,-49.164,150.782,-19.267,-9.36,-24.987,26.95,0.24161,0.39648,-0.13376,0.87546,400,0.981,0.053,-0.074,-0.61,0.305,1.404,140.894,-84.93,46.137,-30.673,-12.46,3.267,29.92,-0.02213,0.72806,0.0647,0.68204,402
101,1.004,-0.062,0.199,-0.183,-0.244,0.244,-18.127,-78.387,-174.172,-27.327,-8.5,-7.393,27.35,0.06003,0.62866,-0.08887,0.77017,405,0.912,-0.022,0.41,-0.916,-0.122,0.183,-2.318,-65.901,-123.431,-26.367,-10.053,4.46,26.05,0.38611,-0.48669,-0.24442,-0.74445,411,0.744,-0.041,0.652,-0.183,1.892,-0.732,-3.653,-49.131,150.754,-19.267,-9.36,-24.987,26.95,0.24161,0.39648,-0.13376,0.87546,401,0.984,0.052,-0.069,-0.671,0.0,1.221,141.075,-84.946,45.934,-30.673,-12.46,3.267,29.92,-0.02213,0.72806,0.0647,0.68204,403
102,1.0,-0.062,0.195,0.244,0.0,0.366,-18.149,-78.387,-174.139,-27.66,-8.16,-7.267,27.35,0.06003,0.62866,-0.08887,0.77017,408,0.913,-0.022,0.411,-0.854,-0.244,0.244,-2.346,-65.901,-123.42,-26.58,-10.373,4.313,26.05,0.38611,-0.48669,-0.24442,-0.74445,414,0.749,-0.044,0.653,-0.549,-0.549,-0.488,-3.658,-49.142,150.743,-19.267,-9.36,-24.987,26.95,0.24161,0.39648,-0.13376,0.87546,406,0.981,0.051,-0.068,-0.427,-0.183,0.916,141.246,-84.952,45.72,-30.673,-12.46,3.267,29.92,-0.02213,0.72806,0.0647,0.68204,412
103,1.0,-0.064,0.195,0.427,0.305,0.427,-18.166,-78.376,-174.095,-27.66,-8.16,-7.267,27.35,0.06003,0.62866,-0.08887,0.77017,409,0.914,-0.021,0.409,-0.732,-0.366,0.183,-2.373,-65.907,-123.409,-26.58,-10.373,4.313,26.05,0.38611,-0.48669,-0.24442,-0.74445,415,0.75,-0.044,0.65,-0.488,-1.77,-0.305,-3.664,-49.175,150.743,-19.267,-9.36,-24.987,26.95,0.24161,0.39648,-0.13376,0.87546,407,0.98,0.054,-0.074,-0.183,-0.183,0.793,141.411,-84.957,45.511,-30.673,-12.46,3.267,29.92,-0.02213,0.72806,0.0647,0.68204,413
104,1.003,-0.063,0.196,0.305,0.549,0.427,-18.182,-78.365,-174.045,-27.66,-8.16,-7.267,27.35,0.06003,0.62866,-0.08887,0.77017,418,0.918,-0.022,0.407,-0.427,-0.854,-0.061,-2.379,-65.923,-123.415,-26.58,-10.373,4.313,26.05,0.38611,-0.48669,-0.24442,-0.74445,424,0.749,-0.046,0.649,-0.244,-0.061,-0.427,-3.658,-49.18,150.732,-19.267,-9.36,-24.987,26.95,0.24161,0.39648,-0.13376,0.87546,416,0.983,0.053,-0.073,0.244,0.366,0.732,141.515,-84.968,45.363,-30.673,-12.46,3.267,29.92,-0.02213,0.72806,0.0647,0.68204,420
105,1.004,-0.064,0.196,0.549,0.61,0.427,-18.188,-78.354,-173.985,-27.66,-8.16,-7.267,27.35,0.06003,0.62866,-0.08887,0.77017,419,0.918,-0.026,0.409,-0.061,-1.343,-0.427,-2.368,-65.951,-123.431,-26.58,-10.373,4.313,26.05,0.38611,-0.48669,-0.24442,-0.74445,425,0.75,-0.049,0.65,-0.732,0.916,-0.366,-3.669,-49.158,150.727,-19.267,-9.36,-24.987,26.95,0.24161,0.39648,-0.13376,0.87546,417,0.987,0.051,-0.068,0.793,0.183,0.427,141.586,-84.979,45.28,-30.673,-12.46,3.267,29.92,-0.02213,0.72806,0.0647,0.68204,421
106,1.003,-0.065,0.193,1.099,0.854,0.305,-18.177,-78.338,-173.925,-27.66,-8.16,-7.267,27.35,0.05954,0.62933,-0.08963,0.76959,422,0.916,-0.026,0.412,-0.122,-1.221,-0.732,-2.351,-65.973,-123.453,-26.58,-10.373,4.313,26.05,0.38736,-0.48749,-0.24258,-0.74387,428,0.753,-0.055,0.649,0.916,-0.305,-1.587,-3.62,-49.164,150.694,-19.267,-9.36,-24.987,26.95,0.24161,0.39648,-0.13376,0.87546,426,0.983,0.047,-0.073,0.977,-0.549,0.183,141.713,-84.974,45.159,-30.673,-12.46,3.267,29.92,-0.02213,0.72806,0.0647,0.68204,430
107,1.004,-0.068,0.193,1.221,1.343,0.366,-18.149,-78.316,-173.897,-27.66,-8.16,-7.267,27.35,0.05954,0.62933,-0.08963,0.76959,423,0.917,-0.021,0.412,-0.122,-1.099,-0.793,-2.324,-65.995,-123.475,-26.58,-10.373,4.313,26.05,0.38736,-0.48749,-0.24258,-0.74387,429,0.751,-0.053,0.65,1.709,-1.282,-2.197,-3.543,-49.191,150.65,-19.267,-9.36,-24.987,26.95,0.24161,0.39648,-0.13376,0.87546,427,0.982,0.046,-0.072,0.366,-1.16,0.244,141.921,-84.963,44.945,-30.673,-12.46,3.267,29.92,-0.02213,0.72806,0.0647,0.68204,431
108,1.002,-0.069,0.194,0.732,1.465,0.305,-18.116,-78.289,-173.892,-27.66,-8.16,-7.267,27.35,0.05954,0.62933,-0.08963,0.76959,432,0.917,-0.02,0.407,-0.183,-1.221,-0.732,-2.307,-66.017,-123.492,-26.58,-10.373,4.313,26.05,0.38736,-0.48749,-0.24258,-0.74387,438,0.75,-0.047,0.652,1.77,-0.732,-2.258,-3.466,-49.208,150.601,-19.267,-9.36,-24.987,26.95,0.24161,0.39648,-0.13376,0.87546,434,0.982,0.049,-0.069,0.244,-1.282,0.366,142.18,-84.946,44.67,-30.673,-12.46,3.267,29.92,-0.02213,0.72806,0.0647,0.68204,440
109,1.002,-0.068,0.198,0.427,0.854,0.183,-18.1,-78.267,-173.886,-27.66,-8.16,-7.267,27.35,0.05954,0.62933,-0.08963,0.76959,433,0.916,-0.021,0.407,-0.427,-1.465,-0.732,-2.296,-66.044,-123.519,-26.58,-10.373,4.313,26.05,0.38736,-0.48749,-0.24258,-0.74387,439,0.751,-0.042,0.651,1.953,-0.488,-2.319,-3.384,-49.219,150.551,-19.267,-9.36,-24.987,26.95,0.24161,0.39648,-0.13376,0.87546,435,0.983,0.048,-0.07,0.61,-1.099,0.244,142.416,-84.93,44.423,-30.673,-12.46,3.267,29.92,-0.02213,0.72806,0.0647,0.68204,441
110,1.0,-0.067,0.196,0.427,1.038,0.183,-18.083,-78.245,-173.886,-27.66,-8.16,-7.267,27.35,0.05954,0.62933,-0.08963,0.76959,436,0.916,-0.019,0.406,-0.793,-1.648,-0.61,-2.291,-66.077,-123.536,-26.58,-10.373,4.313,26.05,0.38736,-0.48749,-0.24258,-0.74387,444,0.752,-0.041,0.648,1.526,-1.282,-2.319,-3.307,-49.246,150.513,-19.267,-9.36,-24.987,26.95,0.24161,0.39648,-0.13376,0.87546,446,0.981,0.046,-0.073,0.977,-0.854,0.061,142.603,-84.919,44.236,-30.673,-12.46,3.267,29.92,-0.02213,0.72806,0.0647,0.68204,442
111,1.0,-0.065,0.2,0.61,1.587,0.244,-18.056,-78.217,-173.903,-27.66,-8.16,-7.267,27.35,0.05954,0.62933,-0.08963,0.76959,437,0.919,-0.019,0.403,-0.61,-1.953,-0.427,-2.296,-66.116,-123.552,-26.58,-10.373,4.313,26.05,0.38736,-0.48749,-0.24258,-0.74387,445,0.752,-0.039,0.647,1.221,-1.709,-2.258,-3.241,-49.279,150.485,-19.267,-9.36,-24.987,26.95,0.24161,0.39648,-0.13376,0.87546,447,0.982,0.048,-0.07,0.488,-0.793,0.061,142.762,-84.902,44.094,-30.673,-12.46,3.267,29.92,-0.02213,0.72806,0.0647,0.68204,443
112,1.0,-0.063,0.2,0.305,1.343,0.122,-18.029,-78.195,-173.914,-27.66,-8.16,-7.267,27.35,0.05954,0.62933,-0.08963,0.76959,454,0.917,-0.019,0.404,-0.61,-1.77,-0.305,-2.307,-66.149,-123.569,-26.58,-10.373,4.313,26.05,0.38736,-0.48749,-0.24258,-0.74387,448,0.756,-0.037,0.646,0.793,-1.831,-1.831,-3.192,-49.318,150.458,-19.26,-10.233,-25.807,26.95,0.24161,0.39648,-0.13376,0.87546,450,0.982,0.052,-0.071,-0.366,-1.16,0.061,142.938,-84.891,43.923,-30.673,-12.46,3.267,29.92,-0.02213,0.72806,0.0647,0.68204,452
113,0.999,-0.063,0.2,0.0,1.221,0.0,-17.996,-78.168,-173.914,-27.66,-8.16,-7.267,27.35,0.05954,0.62933,-0.08963,0.76959,455,0.917,-0.019,0.403,-0.427,-1.343,-0.366,-2.307,-66.176,-123.591,-26.58,-10.373,4.313,26.05,0.38736,-0.48749,-0.24258,-0.74387,449,0.756,-0.037,0.643,0.305,-1.404,-1.221,-3.17,-49.345,150.441,-19.26,-10.233,-25.807,26.95,0.24161,0.39648,-0.13376,0.87546,451,0.981,0.052,-0.072,-0.61,-0.61,0.0,143.047,-84.88,43.808,-30.673,-12.46,3.267,29.92,-0.02213,0.72806,0.0647,0.68204,453
114,1.0,-0.064,0.2,-0.122,1.282,-0.061,-17.957,-78.146,-173.908,-27.66,-8.16,-7.267,27.35,0.05954,0.62933,-0.08963,0.76959,456,0.918,-0.021,0.401,-0.061,-1.465,-0.366,-2.302,-66.204,-123.618,-26.58,-10.373,4.313,26.05,0.38736,-0.48749,-0.24258,-0.74387,460,0.753,-0.038,0.645,-0.061,-0.854,-0.671,-3.159,-49.362,150.425,-19.26,-10.233,-25.807,26.95,0.24161,0.39648,-0.13376,0.87546,464,0.983,0.05,-0.074,-0.061,0.0,-0.244,143.053,-84.875,43.77,-30.213,-12.513,3.753,29.92,-0.02213,0.72806,0.0647,0.68204,458
115,1.001,-0.064,0.203,0.183,1.587,0.061,-17.913,-78.118,-173.908,-27.66,-8.16,-7.267,27.35,0.05954,0.62933,-0.08963,0.76959,457,0.917,-0.021,0.402,0.061,-1.404,-0.305,-2.296,-66.231,-123.629,-26.58,-10.373,4.313,26.05,0.38736,-0.48749,-0.24258,-0.74387,461,0.756,-0.039,0.645,0.183,-1.404,-0.732,-3.148,-49.389,150.403,-19.26,-10.233,-25.807,26.95,0.24161,0.39648,-0.13376,0.87546,465,0.983,0.05,-0.074,0.427,-0.061,-0.488,143.009,-84.869,43.781,-30.213,-12.513,3.753,29.92,-0.02213,0.72806,0.0647,0.68204,459
116,1.002,-0.064,0.2,0.671,1.953,0.244,-17.869,-78.085,-173.919,-27.66,-8.16,-7.267,27.35,0.05954,0.62933,-0.08963,0.76959,462,0.919,-0.016,0.403,-0.061,-1.709,-0.183,-2.296,-66.264,-123.64,-26.58,-10.373,4.313,26.05,0.38736,-0.48749,-0.24258,-0.74387,466,0.755,-0.038,0.644,0.305,-2.014,-0.549,-3.137,-49.427,150.408,-19.26,-10.233,-25.807,26.95,0.24292,0.39771,-0.13077,0.875,468,0.984,0.052,-0.075,0.61,0.305,-0.549,142.921,-84.864,43.863,-30.213,-12.513,3.753,29.92,-0.02127,0.72922,0.06235,0.68103,470
117,1.003,-0.064,0.203,0.732,2.197,0.305,-17.82,-78.041,-173.947,-27.66,-8.16,-7.267,27.35,0.05954,0.62933,-0.08963,0.76959,463,0.923,-0.013,0.404,0.183,-2.319,-0.183,-2.296,-66.308,-123.646,-26.58,-10.373,4.313,26.05,0.38736,-0.48749,-0.24258,-0.74387,467,0.755,-0.035,0.648,-0.305,-1.404,-0.183,-3.142,-49.455,150.414,-19.26,-10.233,-25.807,26.95,0.24292,0.39771,-0.13077,0.875,469,0.986,0.055,-0.074,0.427,0.671,-0.427,142.795,-84.869,43.978,-30.213,-12.513,3.753,29.92,-0.02127,0.72922,0.06235,0.68103,471
118,1.002,-0.065,0.208,0.61,2.014,0.244,-17.77,-78.003,-173.979,-27.66,-8.16,-7.267,27.35,0.05954,0.62933,-0.08963,0.76959,474,0.923,-0.014,0.405,0.244,-2.563,-0.366,-2.28,-66.357,-123.668,-26.58,-10.373,4.313,26.05,0.38736,-0.48749,-0.24258,-0.74387,476,0.757,-0.035,0.651,-0.183,-1.343,-0.488,-3.142,-49.477,150.403,-19.26,-10.233,-25.807,26.95,0.24292,0.39771,-0.13077,0.875,472,0.988,0.054,-0.067,0.305,0.061,-0.244,142.745,-84.869,44.006,-30.213,-12.513,3.753,29.92,-0.02127,0.72922,0.06235,0.68103,478
119,0.999,-0.065,0.203,0.671,1.709,0.244,-17.732,-77.97,-174.007,-27.66,-8.16,-7.267,27.35,0.05954,0.62933,-0.08963,0.76959,475,0.919,-0.013,0.404,-0.305,-2.258,-0.427,-2.274,-66.401,-123.69,-26.58,-10.373,4.313,26.05,0.38736,-0.48749,-0.24258,-0.74387,477,0.76,-0.035,0.648,0.061,-2.38,-0.916,-3.126,-49.526,150.397,-19.26,-10.233,-25.807,26.95,0.24292,0.39771,-0.13077,0.875,473,0.98,0.052,-0.066,0.183,0.0,-0.244,142.718,-84.864,44.033,-30.213,-12.513,3.753,29.92,-0.02127,0.72922,0.06235,0.68103,479
120,0.997,-0.065,0.2,0.732,1.953,0.183,-17.682,-77.932,-174.056,-27.813,-8.513,-7.987,27.35,0.05954,0.62933,-0.08963,0.76959,480,0.919,-0.013,0.403,-0.427,-2.075,-0.427,-2.263,-66.44,-123.706,-26.58,-10.373,4.313,26.05,0.38736,-0.48749,-0.24258,-0.74387,484,0.755,-0.032,0.646,0.0,-2.441,-1.404,-3.098,-49.57,150.386,-19.26,-10.233,-25.807,26.95,0.24292,0.39771,-0.13077,0.875,486,0.979,0.056,-0.069,0.061,-0.305,0.0,142.767,-84.858,43.967,-30.213,-12.513,3.753,29.92,-0.02127,0.72922,0.06235,0.68103,482
121,0.998,-0.063,0.209,0.732,2.319,0.122,-17.617,-77.888,-174.122,-27.813,-8.513,-7.987,27.35,0.05954,0.62933,-0.08963,0.76959,481,0.919,-0.013,0.399,-0.244,-2.319,-0.549,-2.247,-66.484,-123.723,-26.58,-10.373,4.313,26.05,0.38736,-0.48749,-0.24258,-0.74387,485,0.757,-0.031,0.646,-0.366,-1.831,-1.77,-3.065,-49.609,150.359,-19.26,-10.233,-25.807,26.95,0.24292,0.39771,-0.13077,0.875,487,0.982,0.059,-0.071,-0.183,-0.671,0.183,142.888,-84.853,43.83,-30.213,-12.513,3.753,29.92,-0.02127,0.72922,0.06235,0.68103,483
122,0.996,-0.062,0.211,0.549,2.38,0.122,-17.551,-77.844,-174.199,-27.813,-8.513,-7.987,27.35,0.05954,0.62933,-0.08963,0.76959,488,0.919,-0.014,0.4,0.183,-2.075,-0.61,-2.219,-66.522,-123.745,-26.367,-9.887,4.04,26.05,0.38736,-0.48749,-0.24258,-0.74387,490,0.758,-0.031,0.644,-0.305,-1.77,-1.709,-3.038,-49.642,150.331,-19.26,-10.233,-25.807,26.95,0.24292,0.39771,-0.13077,0.875,492,0.983,0.054,-0.072,-0.671,-0.793,0.183,143.009,-84.842,43.698,-30.213,-12.513,3.753,29.92,-0.02127,0.72922,0.06235,0.68103,494
123,0.997,-0.063,0.209,0.488,2.38,0.122,-17.485,-77.8,-174.271,-27.813,-8.513,-7.987,27.35,0.05954,0.62933,-0.08963,0.76959,489,0.92,-0.017,0.399,0.427,-2.014,-0.366,-2.197,-66.561,-123.75,-26.367,-9.887,4.04,26.05,0.38736,-0.48749,-0.24258,-0.74387,491,0.757,-0.03,0.642,-0.732,-2.136,-1.099,-3.027,-49.686,150.326,-19.26,-10.233,-25.807,26.95,0.24292,0.39771,-0.13077,0.875,493,0.982,0.049,-0.068,-0.61,-0.122,0.122,143.036,-84.842,43.649,-30.213,-12.513,3.753,29.92,-0.02127,0.72922,0.06235,0.68103,495
124,0.999,-0.062,0.211,0.549,2.319,0.183,-17.424,-77.756,-174.337,-27.813,-8.513,-7.987,27.35,0.05688,0.62579,-0.08713,0.77295,500,0.926,-0.017,0.398,0.305,-2.563,-0.061,-2.197,-66.61,-123.739,-26.367,-9.887,4.04,26.05,0.38736,-0.48749,-0.24258,-0.74387,502,0.757,-0.03,0.644,-1.587,-2.136,-0.183,-3.06,-49.724,150.326,-19.26,-10.233,-25.807,26.95,0.24292,0.39771,-0.13077,0.875,496,0.983,0.05,-0.064,-0.305,0.0,0.0,143.026,-84.842,43.638,-30.213,-12.513,3.753,29.92,-0.02127,0.72922,0.06235,0.68103,498
125,0.998,-0.064,0.214,0.61,1.953,0.244,-17.369,-77.717,-174.408,-27.813,-8.513,-7.987,27.35,0.05688,0.62579,-0.08713,0.77295,501,0.924,-0.015,0.399,0.122,-1.892,0.0,-2.197,-66.654,-123.723,-26.367,-9.887,4.04,26.05,0.38736,-0.48749,-0.24258,-0.74387,503,0.761,-0.034,0.643,-1.709,-2.014,0.0,-3.093,-49.763,150.331,-19.26,-10.233,-25.807,26.95,0.24292,0.39771,-0.13077,0.875,497,0.986,0.052,-0.064,-0.183,0.122,-0.122,142.982,-84.842,43.693,-30.213,-12.513,3.753,29.92,-0.02127,0.72922,0.06235,0.68103,499
126,0.997,-0.066,0.211,0.671,1.465,0.305,-17.336,-77.684,-174.419,-27.813,-8.513,-7.987,27.35,0.05688,0.62579,-0.08713,0.77295,510,0.925,-0.016,0.399,0.305,-1.587,0.0,-2.197,-66.687,-123.717,-26.367,-9.887,4.04,26.05,0.38461,-0.49185,-0.24478,-0.7417,508,0.766,-0.037,0.639,-0.427,-2.136,-0.488,-3.093,-49.801,150.326,-19.26,-10.233,-25.807,26.95,0.24292,0.39771,-0.13077,0.875,504,0.983,0.052,-0.07,-0.061,0.122,-0.122,142.938,-84.842,43.753,-30.213,-12.513,3.753,29.92,-0.02127,0.72922,0.06235,0.68103,512
127,0.997,-0.067,0.209,0.305,1.587,0.305,-17.314,-77.651,-174.441,-27.813,-8.513,-7.987,27.35,0.05688,0.62579,-0.08713,0.77295,511,0.924,-0.014,0.396,0.244,-1.587,0.122,-2.197,-66.72,-123.717,-26.367,-9.887,4.04,26.05,0.38461,-0.49185,-0.24478,-0.7417,509,0.762,-0.034,0.638,0.854,-1.831,-1.099,-3.049,-49.839,150.309,-19.26,-10.233,-25.807,26.95,0.24292,0.39771,-0.13077,0.875,505,0.984,0.052,-0.07,0.0,0.061,0.061,142.938,-84.847,43.753,-30.213,-12.513,3.753,29.92,-0.02127,0.72922,0.06235,0.68103,513
128,0.997,-0.066,0.212,0.061,1.526,0.244,-17.292,-77.618,-174.474,-27.813,-8.513,-7.987,27.35,0.05688,0.62579,-0.08713,0.77295,514,0.924,-0.015,0.396,0.0,-1.343,0.183,-2.203,-66.747,-123.706,-26.367,-9.887,4.04,26.05,0.38461,-0.49185,-0.24478,-0.7417,518,0.763,-0.032,0.643,0.732,-1.343,-0.916,-3.016,-49.867,150.298,-19.26,-10.233,-25.807,26.95,0.24292,0.39771,-0.13077,0.875,506,0.982,0.051,-0.068,-0.183,-0.305,0.183,143.004,-84.847,43.693,-30.587,-11.96,3.173,29.92,-0.02127,0.72922,0.06235,0.68103,516
129,0.997,-0.065,0.211,-0.061,1.343,0.183,-17.271,-77.591,-174.496,-27.813,-8.513,-7.987,27.35,0.05688,0.62579,-0.08713,0.77295,515,0.924,-0.018,0.394,-0.244,-1.282,0.305,-2.219,-66.769,-123.695,-26.367,-9.887,4.04,26.05,0.38461,-0.49185,-0.24478,-0.7417,519,0.762,-0.031,0.64,0.244,-2.014,-0.488,-3.005,-49.905,150.304,-19.26,-10.233,-25.807,26.95,0.24292,0.39771,-0.13077,0.875,507,0.983,0.05,-0.068,-0.549,-0.366,0.183,143.069,-84.842,43.605,-30.587,-11.96,3.173,29.92,-0.02127,0.72922,0.06235,0.68103,517
130,0.997,-0.065,0.217,-0.061,0.977,0.061,-17.249,-77.569,-174.529,-27.813,-8.513,-7.987,27.35,0.05688,0.62579,-0.08713,0.77295,522,0.92,-0.018,0.39,-0.61,-1.099,0.366,-2.241,-66.797,-123.679,-26.367,-9.887,4.04,26.05,0.38461,-0.49185,-0.24478,-0.7417,524,0.765,-0.031,0.639,0.0,-2.502,-0.244,-2.999,-49.955,150.337,-19.26,-10.233,-25.807,26.95,0.24292,0.39771,-0.13077,0.875,520,0.984,0.049,-0.066,-0.977,-0.427,0.0,143.108,-84.842,43.555,-30.587,-11.96,3.173,29.92,-0.02127,0.72922,0.06235,0.68103,526
131,0.995,-0.067,0.214,-0.061,0.793,-0.122,-17.221,-77.552,-174.573,-27.813,-8.513,-7.987,27.35,0.05688,0.62579,-0.08713,0.77295,523,0.919,-0.019,0.391,-0.671,-0.977,0.427,-2.274,-66.813,-123.657,-26.367,-9.887,4.04,26.05,0.38461,-0.49185,-0.24478,-0.7417,525,0.765,-0.034,0.635,-0.183,-2.441,-0.061,-3.005,-49.999,150.37,-19.26,-10.233,-25.807,26.95,0.24292,0.39771,-0.13077,0.875,521,0.98,0.049,-0.067,-1.343,-0.366,0.0,143.124,-84.836,43.5,-30.587,-11.96,3.173,29.92,-0.02127,0.72922,0.06235,0.68103,527
132,0.993,-0.067,0.211,-0.122,0.61,-0.183,-17.194,-77.542,-174.595,-27.813,-8.513,-7.987,27.35,0.05688,0.62579,-0.08713,0.77295,528,0.921,-0.019,0.39,-0.916,-0.977,0.366,-2.313,-66.835,-123.624,-26.367,-9.887,4.04,26.05,0.38461,-0.49185,-0.24478,-0.7417,532,0.762,-0.035,0.634,-0.183,-2.136,0.061,-3.01,-50.043,150.375,-19.26,-10.233,-25.807,26.95,0.24292,0.39771,-0.13077,0.875,530,0.978,0.049,-0.071,-0.916,0.366,-0.122,143.042,-84.842,43.583,-30.587,-11.96,3.173,29.92,-0.02042,0.72946,0.06152,0.68085,534
133,0.996,-0.066,0.213,-0.122,0.671,-0.305,-17.155,-77.531,-174.611,-27.813,-8.513,-7.987,27.35,0.05688,0.62579,-0.08713,0.77295,529,0.923,-0.017,0.39,-0.977,-1.099,0.305,-2.351,-66.852,-123.591,-26.367,-9.887,4.04,26.05,0.38461,-0.49185,-0.24478,-0.7417,533,0.761,-0.035,0.633,-0.061,-1.953,0.0,-3.016,-50.081,150.359,-19.26,-10.233,-25.807,26.95,0.24292,0.39771,-0.13077,0.875,531,0.979,0.051,-0.075,-0.427,0.488,-0.122,142.954,-84.853,43.676,-30.587,-11.96,3.173,29.92,-0.02042,0.72946,0.06152,0.68085,535
134,0.998,-0.065,0.214,-0.061,1.16,-0.305,-17.106,-77.514,-174.672,-27.813,-8.513,-7.987,27.35,0.05688,0.62579,-0.08713,0.77295,538,0.925,-0.019,0.394,-0.916,-1.221,0.244,-2.39,-66.874,-123.558,-26.367,-9.887,4.04,26.05,0.38461,-0.49185,-0.24478,-0.7417,536,0.762,-0.036,0.633,-0.244,-2.319,-0.183,-3.021,-50.125,150.331,-19.54,-9.667,-25.673,26.95,0.24292,0.39771,-0.13077,0.875,540,0.983,0.053,-0.072,-0.549,0.61,-0.244,142.833,-84.858,43.808,-30.587,-11.96,3.173,29.92,-0.02042,0.72946,0.06152,0.68085,542
135,0.999,-0.063,0.214,0.0,1.038,-0.366,-17.045,-77.492,-174.754,-27.813,-8.513,-7.987,27.35,0.05688,0.62579,-0.08713,0.77295,539,0.927,-0.021,0.394,-1.038,-1.282,0.122,-2.422,-66.896,-123.525,-26.367,-9.887,4.04,26.05,0.38461,-0.49185,-0.24478,-0.7417,537,0.766,-0.035,0.632,-0.183,-2.319,-0.671,-3.01,-50.169,150.287,-19.54,-9.667,-25.673,26.95,0.24292,0.39771,-0.13077,0.875,541,0.984,0.052,-0.071,-0.61,0.183,-0.305,142.751,-84.858,43.907,-30.587,-11.96,3.173,29.92,-0.02042,0.72946,0.06152,0.68085,543
136,0.999,-0.065,0.212,0.122,0.916,-0.305,-16.99,-77.476,-174.836,-27.813,-8.513,-7.987,27.35,0.05688,0.62579,-0.08713,0.77295,544,0.925,-0.021,0.394,-0.916,-1.16,0.0,-2.45,-66.923,-123.508,-26.367,-9.887,4.04,26.05,0.38461,-0.49185,-0.24478,-0.7417,546,0.767,-0.035,0.634,0.0,-2.258,-0.977,-2.988,-50.219,150.227,-19.54,-9.667,-25.673,26.95,0.24292,0.39771,-0.13077,0.875,548,0.985,0.052,-0.067,-0.793,0.366,-0.305,142.646,-84.864,44.022,-30.587,-11.96,3.173,29.92,-0.02042,0.72946,0.06152,0.68085,550
137,0.997,-0.066,0.211,0.061,0.977,-0.244,-16.946,-77.459,-174.891,-27.813,-8.513,-7.987,27.35,0.05688,0.62579,-0.08713,0.77295,545,0.923,-0.024,0.393,-0.671,-0.854,-0.061,-2.472,-66.945,-123.492,-26.367,-9.887,4.04,26.05,0.38461,-0.49185,-0.24478,-0.7417,547,0.768,-0.037,0.636,0.305,-1.526,-1.282,-2.955,-50.246,150.139,-19.54,-9.667,-25.673,26.95,0.24292,0.39771,-0.13077,0.875,549,0.983,0.054,-0.072,-0.977,0.0,-0.305,142.581,-84.858,44.116,-30.587,-11.96,3.173,29.92,-0.02042,0.72946,0.06152,0.68085,551
138,1.0,-0.063,0.213,-0.061,0.916,-0.366,-16.897,-77.443,-174.952,-27.447,-8.08,-7.9,27.35,0.05688,0.62579,-0.08713,0.77295,552,0.924,-0.029,0.394,0.0,-0.854,0.0,-2.488,-66.962,-123.486,-26.367,-9.887,4.04,26.05,0.38461,-0.49185,-0.24478,-0.7417,558,0.764,-0.037,0.634,0.427,-0.977,-1.404,-2.917,-50.268,150.046,-19.54,-9.667,-25.673,26.95,0.2439,0.40411,-0.13196,0.87161,554,0.985,0.047,-0.071,-0.916,0.732,-0.732,142.427,-84.858,44.302,-30.587,-11.96,3.173,29.92,-0.02042,0.72946,0.06152,0.68085,556
139,1.001,-0.064,0.215,-0.244,0.732,-0.488,-16.842,-77.432,-175.051,-27.447,-8.08,-7.9,27.35,0.05688,0.62579,-0.08713,0.77295,553,0.927,-0.028,0.393,0.916,-0.916,0.305,-2.494,-66.978,-123.464,-26.367,-9.887,4.04,26.05,0.38461,-0.49185,-0.24478,-0.7417,559,0.768,-0.039,0.635,0.61,-1.953,-0.854,-2.884,-50.29,149.969,-19.54,-9.667,-25.673,26.95,0.2439,0.40411,-0.13196,0.87161,555,0.983,0.049,-0.066,-0.732,0.0,-1.16,142.213,-84.858,44.561,-30.587,-11.96,3.173,29.92,-0.02042,0.72946,0.06152,0.68085,557
140,1.0,-0.063,0.216,0.0,0.61,-0.488,-16.782,-77.421,-175.15,-27.447,-8.08,-7.9,27.35,0.05688,0.62579,-0.08713,0.77295,562,0.925,-0.023,0.391,1.099,-0.854,0.427,-2.499,-66.995,-123.426,-26.807,-9.827,4.5,26.05,0.38461,-0.49185,-0.24478,-0.7417,560,0.769,-0.038,0.634,0.549,-1.526,0.061,-2.862,-50.328,149.93,-19.54,-9.667,-25.673,26.95,0.2439,0.40411,-0.13196,0.87161,564,0.981,0.053,-0.07,-0.305,-0.488,-1.465,142.026,-84.842,44.791,-30.587,-11.96,3.173,29.92,-0.02042,0.72946,0.06152,0.68085,566
141,0.995,-0.062,0.21,0.244,0.793,-0.366,-16.727,-77.41,-175.237,-27.447,-8.08,-7.9,27.35,0.05688,0.62579,-0.08713,0.77295,563,0.926,-0.02,0.389,1.038,-0.61,0.366,-2.51,-67.006,-123.387,-26.807,-9.827,4.5,26.05,0.38461,-0.49185,-0.24478,-0.7417,561,0.769,-0.036,0.63,0.977,0.488,0.854,-2.862,-50.35,149.93,-19.54,-9.667,-25.673,26.95,0.2439,0.40411,-0.13196,0.87161,565,0.983,0.055,-0.068,0.366,-0.427,-1.526,141.855,-84.82,45.016,-30.587,-11.96,3.173,29.92,-0.02042,0.72946,0.06152,0.68085,567
142,0.994,-0.062,0.216,0.427,0.854,-0.366,-16.666,-77.393,-175.314,-27.447,-8.08,-7.9,27.35,0.05878,0.62283,-0.08771,0.77512,574,0.926,-0.021,0.39,1.343,-0.427,0.305,-2.516,-67.017,-123.349,-26.807,-9.827,4.5,26.05,0.38461,-0.49185,-0.24478,-0.7417,572,0.765,-0.036,0.629,1.648,1.709,0.427,-2.862,-50.328,149.925,-19.54,-9.667,-25.673,26.95,0.2439,0.40411,-0.13196,0.87161,568,0.982,0.052,-0.065,0.854,-0.183,-1.831,141.658,-84.792,45.264,-30.587,-11.96,3.173,29.92,-0.02042,0.72946,0.06152,0.68085,570
143,0.994,-0.065,0.224,0.732,0.488,-0.305,-16.611,-77.388,-175.364,-27.447,-8.08,-7.9,27.35,0.05878,0.62283,-0.08771,0.77512,575,0.925,-0.023,0.391,1.648,0.0,0.244,-2.51,-67.022,-123.327,-26.807,-9.827,4.5,26.05,0.38461,-0.49185,-0.24478,-0.7417,573,0.768,-0.036,0.633,3.052,0.305,-0.244,-2.829,-50.306,149.914,-19.54,-9.667,-25.673,26.95,0.2439,0.40411,-0.13196,0.87161,569,0.98,0.052,-0.06,0.916,0.0,-1.892,141.394,-84.771,45.582,-30.587,-11.96,3.173,29.92,-0.02042,0.72946,0.06152,0.68085,571
144,0.99,-0.068,0.224,0.916,0.305,-0.061,-16.584,-77.377,-175.397,-27.447,-8.08,-7.9,27.35,0.05878,0.62283,-0.08771,0.77512,578,0.921,-0.017,0.392,1.77,0.427,0.244,-2.499,-67.022,-123.305,-26.807,-9.827,4.5,26.05,0.38486,-0.49454,-0.24579,-0.73944,580,0.767,-0.034,0.631,3.296,-1.404,-0.488,-2.769,-50.306,149.903,-19.54,-9.667,-25.673,26.95,0.2439,0.40411,-0.13196,0.87161,576,0.979,0.055,-0.059,0.61,0.244,-1.404,141.119,-84.754,45.895,-30.387,-12.58,4.16,29.92,-0.02042,0.72946,0.06152,0.68085,582
145,0.985,-0.068,0.222,0.977,0.0,0.305,-16.589,-77.371,-175.38,-27.447,-8.08,-7.9,27.35,0.05878,0.62283,-0.08771,0.77512,579,0.92,-0.011,0.39,1.892,0.854,0.183,-2.477,-67.011,-123.283,-26.807,-9.827,4.5,26.05,0.38486,-0.49454,-0.24579,-0.73944,581,0.766,-0.03,0.629,3.418,-1.709,-0.122,-2.697,-50.339,149.892,-19.54,-9.667,-25.673,26.95,0.2439,0.40411,-0.13196,0.87161,577,0.975,0.057,-0.064,0.183,0.0,-0.732,140.9,-84.743,46.132,-30.387,-12.58,4.16,29.92,-0.02042,0.72946,0.06152,0.68085,583
146,0.987,-0.067,0.221,0.305,-0.549,0.488,-16.644,-77.377,-175.27,-27.447,-8.08,-7.9,27.35,0.05878,0.62283,-0.08771,0.77512,584,0.924,-0.01,0.388,1.892,0.732,0.122,-2.455,-66.995,-123.278,-26.807,-9.827,4.5,26.05,0.38486,-0.49454,-0.24579,-0.73944,588,0.764,-0.022,0.629,3.479,-0.305,0.0,-2.637,-50.367,149.903,-19.54,-9.667,-25.673,26.95,0.2439,0.40411,-0.13196,0.87161,586,0.979,0.061,-0.065,0.366,0.0,-0.427,140.795,-84.743,46.23,-30.387,-12.58,4.16,29.92,-0.02127,0.72882,0.06528,0.68118,592
147,0.992,-0.062,0.22,-0.61,-0.671,0.305,-16.699,-77.382,-175.215,-27.447,-8.08,-7.9,27.35,0.05878,0.62283,-0.08771,0.77512,585,0.924,-0.008,0.389,1.343,0.488,0.061,-2.422,-66.978,-123.278,-26.807,-9.827,4.5,26.05,0.38486,-0.49454,-0.24579,-0.73944,589,0.767,-0.02,0.629,3.479,1.099,-0.305,-2.565,-50.367,149.908,-19.54,-9.667,-25.673,26.95,0.2439,0.40411,-0.13196,0.87161,587,0.983,0.063,-0.062,0.732,0.488,-0.427,140.707,-84.743,46.313,-30.387,-12.58,4.16,29.92,-0.02127,0.72882,0.06528,0.68118,593
148,0.997,-0.058,0.224,-0.732,-0.549,0.0,-16.721,-77.388,-175.193,-27.447,-8.08,-7.9,27.35,0.05878,0.62283,-0.08771,0.77512,594,0.928,-0.009,0.391,1.16,0.549,0.0,-2.401,-66.973,-123.289,-26.807,-9.827,4.5,26.05,0.38486,-0.49454,-0.24579,-0.73944,598,0.766,-0.018,0.631,2.808,1.648,-0.549,-2.494,-50.345,149.897,-19.54,-9.667,-25.673,26.95,0.2439,0.40411,-0.13196,0.87161,590,0.986,0.063,-0.067,0.061,0.427,-0.549,140.559,-84.743,46.494,-30.387,-12.58,4.16,29.92,-0.02127,0.72882,0.06528,0.68118,596
149,0.996,-0.059,0.221,0.0,-0.305,-0.183,-16.71,-77.393,-175.182,-27.447,-8.08,-7.9,27.35,0.05878,0.62283,-0.08771,0.77512,595,0.931,-0.011,0.394,0.916,0.732,0.0,-2.373,-66.962,-123.3,-26.807,-9.827,4.5,26.05,0.38486,-0.49454,-0.24579,-0.73944,599,0.769,-0.018,0.632,2.319,1.038,-0.732,-2.428,-50.317,149.859,-19.54,-9.667,-25.673,26.95,0.2439,0.40411,-0.13196,0.87161,591,0.988,0.061,-0.065,-0.183,0.61,-0.793,140.367,-84.749,46.697,-30.387,-12.58,4.16,29.92,-0.02127,0.72882,0.06528,0.68118,597
150,0.996,-0.06,0.219,0.427,-0.488,-0.427,-16.666,-77.399,-175.21,-27.447,-8.08,-7.9,27.35,0.05878,0.62283,-0.08771,0.77512,600,0.928,-0.011,0.396,0.427,0.854,0.0,-2.351,-66.945,-123.311,-26.807,-9.827,4.5,26.05,0.38486,-0.49454,-0.24579,-0.73944,606,0.771,-0.019,0.636,1.526,1.038,-0.244,-2.368,-50.301,149.832,-19.54,-9.667,-25.673,26.95,0.2439,0.40411,-0.13196,0.87161,602,0.984,0.062,-0.068,-0.305,0.549,-0.427,140.142,-84.749,46.928,-30.387,-12.58,4.16,29.92,-0.02127,0.72882,0.06528,0.68118,604
151,0.997,-0.062,0.217,0.122,-0.977,-0.427,-16.644,-77.415,-175.215,-27.447,-8.08,-7.9,27.35,0.05878,0.62283,-0.08771,0.77512,601,0.922,-0.009,0.397,-0.061,1.16,-0.061,-2.34,-66.929,-123.322,-26.807,-9.827,4.5,26.05,0.38486,-0.49454,-0.24579,-0.73944,607,0.77,-0.019,0.637,0.793,0.854,0.122,-2.335,-50.279,149.804,-19.54,-9.667,-25.673,26.95,0.2439,0.40411,-0.13196,0.87161,603,0.983,0.063,-0.068,-0.793,0.061,0.0,139.999,-84.754,47.071,-30.387,-12.58,4.16,29.92,-0.02127,0.72882,0.06528,0.68118,605
152,0.999,-0.063,0.21,-0.366,-1.038,-0.427,-16.633,-77.437,-175.226,-27.447,-8.08,-7.9,27.35,0.05878,0.62283,-0.08771,0.77512,612,0.921,-0.008,0.394,0.0,1.038,-0.183,-2.329,-66.907,-123.333,-26.807,-9.827,4.5,26.05,0.38486,-0.49454,-0.24579,-0.73944,610,0.765,-0.019,0.64,0.122,1.099,0.0,-2.324,-50.262,149.771,-19.12,-10.373,-25.713,26.95,0.2439,0.40411,-0.13196,0.87161,608,0.98,0.063,-0.074,-0.916,-0.488,0.244,139.977,-84.754,47.098,-30.387,-12.58,4.16,29.92,-0.02127,0.72882,0.06528,0.68118,614
153,0.999,-0.062,0.21,-0.732,-0.977,-0.427,-16.628,-77.454,-175.254,-27.447,-8.08,-7.9,27.35,0.05878,0.62283,-0.08771,0.77512,613,0.922,-0.01,0.392,-0.122,0.549,-0.122,-2.313,-66.89,-123.338,-26.807,-9.827,4.5,26.05,0.38486,-0.49454,-0.24579,-0.73944,611,0.762,-0.017,0.639,0.305,1.77,-0.427,-2.313,-50.24,149.733,-19.12,-10.373,-25.713,26.95,0.2439,0.40411,-0.13196,0.87161,609,0.983,0.06,-0.072,-1.099,-0.366,0.244,140.043,-84.749,47.038,-30.387,-12.58,4.16,29.92,-0.02127,0.72882,0.06528,0.68118,615
154,1.0,-0.062,0.215,-0.671,-0.854,-0.427,-16.622,-77.47,-175.287,-27.447,-8.08,-7.9,27.35,0.05878,0.62283,-0.08771,0.77512,622,0.92,-0.015,0.393,0.0,0.427,0.061,-2.302,-66.879,-123.333,-26.807,-9.827,4.5,26.05,0.38486,-0.49454,-0.24579,-0.73944,618,0.765,-0.015,0.638,-0.549,1.892,-0.244,-2.296,-50.208,149.694,-19.12,-10.373,-25.713,26.95,0.2439,0.40411,-0.13196,0.87161,616,0.981,0.059,-0.072,-1.343,-0.427,0.061,140.087,-84.743,46.978,-30.387,-12.58,4.16,29.92,-0.02127,0.72882,0.06528,0.68118,620
155,0.999,-0.061,0.212,-0.366,-0.793,-0.366,-16.611,-77.487,-175.27,-27.447,-8.08,-7.9,27.35,0.05878,0.62283,-0.08771,0.77512,623,0.92,-0.016,0.393,0.122,0.549,0.305,-2.302,-66.874,-123.327,-26.807,-9.827,4.5,26.05,0.38486,-0.49454,-0.24579,-0.73944,619,0.762,-0.018,0.635,-1.526,1.16,0.488,-2.302,-50.175,149.672,-19.12,-10.373,-25.713,26.95,0.2439,0.40411,-0.13196,0.87161,617,0.979,0.059,-0.073,-1.16,-0.549,0.0,140.12,-84.738,46.934,-30.387,-12.58,4.16,29.92,-0.02127,0.72882,0.06528,0.68118,621
156,0.997,-0.062,0.21,-0.183,-0.671,-0.366,-16.595,-77.498,-175.265,-27.62,-8.447,-7.633,27.35,0.05878,0.62283,-0.08771,0.77512,626,0.923,-0.014,0.392,0.244,0.366,0.549,-2.313,-66.863,-123.305,-26.807,-9.827,4.5,26.05,0.38486,-0.49454,-0.24579,-0.73944,624,0.762,-0.021,0.634,-2.441,0.854,1.526,-2.351,-50.153,149.672,-19.12,-10.373,-25.713,26.95,0.24506,0.40439,-0.12845,0.87167,630,0.98,0.061,-0.072,-0.488,-0.366,0.0,140.158,-84.727,46.857,-30.387,-12.58,4.16,29.92,-0.02127,0.72882,0.06528,0.68118,628
157,0.996,-0.062,0.214,-0.122,-0.793,-0.122,-16.6,-77.514,-175.237,-27.62,-8.447,-7.633,27.35,0.05878,0.62283,-0.08771,0.77512,627,0.925,-0.013,0.392,0.366,0.305,0.488,-2.324,-66.857,-123.283,-26.807,-9.827,4.5,26.05,0.38486,-0.49454,-0.24579,-0.73944,625,0.764,-0.023,0.635,-2.319,1.587,1.831,-2.428,-50.136,149.7,-19.12,-10.373,-25.713,26.95,0.24506,0.40439,-0.12845,0.87167,631,0.982,0.059,-0.069,-0.305,0.0,0.061,140.175,-84.727,46.851,-30.387,-12.58,4.16,29.92,-0.02127,0.72882,0.06528,0.68118,629
158,0.997,-0.061,0.213,-0.305,-0.549,0.122,-16.628,-77.52,-175.21,-27.62,-8.447,-7.633,27.35,0.05878,0.62283,-0.08771,0.77512,634,0.922,-0.016,0.393,0.427,0.427,0.427,-2.329,-66.852,-123.267,-26.72,-9.947,4.173,26.05,0.38486,-0.49454,-0.24579,-0.73944,640,0.765,-0.026,0.633,-1.221,1.953,1.404,-2.499,-50.103,149.733,-19.12,-10.373,-25.713,26.95,0.24506,0.40439,-0.12845,0.87167,636,0.981,0.058,-0.069,-0.244,-0.122,0.183,140.186,-84.727,46.846,-30.327,-12.22,3.727,29.92,-0.02127,0.72882,0.06528,0.68118,632
159,0.997,-0.062,0.212,-0.366,-0.671,0.244,-16.666,-77.531,-175.177,-27.62,-8.447,-7.633,27.35,0.05878,0.62283,-0.08771,0.77512,635,0.92,-0.017,0.391,0.488,0.671,0.427,-2.335,-66.841,-123.25,-26.72,-9.947,4.173,26.05,0.38486,-0.49454,-0.24579,-0.73944,641,0.762,-0.026,0.634,-0.366,1.404,0.977,-2.543,-50.065,149.755,-19.12,-10.373,-25.713,26.95,0.24506,0.40439,-0.12845,0.87167,637,0.981,0.058,-0.072,-0.122,-0.366,0.183,140.24,-84.721,46.802,-30.327,-12.22,3.727,29.92,-0.02127,0.72882,0.06528,0.68118,633
160,0.999,-0.064,0.208,-0.122,-0.732,0.366,-16.716,-77.542,-175.122,-27.62,-8.447,-7.633,27.35,0.05814,0.62378,-0.08685,0.77451,638,0.926,-0.017,0.394,0.61,0.549,0.488,-2.34,-66.83,-123.234,-26.72,-9.947,4.173,26.05,0.38678,-0.49246,-0.24667,-0.73953,646,0.761,-0.027,0.634,0.0,0.977,0.916,-2.565,-50.043,149.766,-19.12,-10.373,-25.713,26.95,0.24506,0.40439,-0.12845,0.87167,642,0.982,0.059,-0.076,0.0,-0.244,0.0,140.295,-84.716,46.752,-30.327,-12.22,3.727,29.92,-0.02127,0.72882,0.06528,0.68118,644
161,1.0,-0.063,0.21,-0.061,-0.549,0.366,-16.754,-77.547,-175.084,-27.62,-8.447,-7.633,27.35,0.05814,0.62378,-0.08685,0.77451,639,0.928,-0.016,0.393,0.916,0.183,0.488,-2.346,-66.824,-123.206,-26.72,-9.947,4.173,26.05,0.38678,-0.49246,-0.24667,-0.73953,647,0.763,-0.028,0.639,0.061,1.221,1.038,-2.582,-50.026,149.782,-19.12,-10.373,-25.713,26.95,0.24506,0.40439,-0.12845,0.87167,643,0.988,0.061,-0.071,0.122,0.183,-0.061,140.29,-84.716,46.763,-30.327,-12.22,3.727,29.92,-0.02127,0.72882,0.06528,0.68118,645
162,1.0,-0.062,0.218,-0.061,-0.549,0.366,-16.798,-77.558,-175.029,-27.62,-8.447,-7.633,27.35,0.05814,0.62378,-0.08685,0.77451,650,0.923,-0.013,0.397,0.61,0.305,0.305,-2.346,-66.819,-123.184,-26.72,-9.947,4.173,26.05,0.38678,-0.49246,-0.24667,-0.73953,656,0.768,-0.03,0.638,0.732,0.977,0.854,-2.593,-50.004,149.826,-19.12,-10.373,-25.713,26.95,0.24506,0.40439,-0.12845,0.87167,648,0.985,0.06,-0.069,-0.061,0.183,0.122,140.268,-84.716,46.774,-30.327,-12.22,3.727,29.92,-0.02115,0.72873,0.06577,0.68124,652
163,0.997,-0.062,0.212,-0.122,-0.488,0.305,-16.831,-77.563,-174.985,-27.62,-8.447,-7.633,27.35,0.05814,0.62378,-0.08685,0.77451,651,0.918,-0.013,0.396,0.366,0.671,0.366,-2.351,-66.808,-123.157,-26.72,-9.947,4.173,26.05,0.38678,-0.49246,-0.24667,-0.73953,657,0.762,-0.026,0.639,1.465,0.61,0.549,-2.587,-49.988,149.859,-19.12,-10.373,-25.713,26.95,0.24506,0.40439,-0.12845,0.87167,649,0.98,0.059,-0.072,-0.305,-0.366,0.244,140.306,-84.716,46.747,-30.327,-12.22,3.727,29.92,-0.02115,0.72873,0.06577,0.68124,653
164,0.997,-0.062,0.207,-0.427,-0.549,0.183,-16.864,-77.569,-174.941,-27.62,-8.447,-7.633,27.35,0.05814,0.62378,-0.08685,0.77451,654,0.924,-0.01,0.392,0.0,0.366,0.427,-2.362,-66.802,-123.124,-26.72,-9.947,4.173,26.05,0.38678,-0.49246,-0.24667,-0.73953,666,0.759,-0.023,0.64,1.465,0.854,0.366,-2.565,-49.977,149.881,-19.12,-10.373,-25.713,26.95,0.24506,0.40439,-0.12845,0.87167,658,0.98,0.059,-0.081,-0.244,-0.183,0.366,140.389,-84.716,46.686,-30.327,-12.22,3.727,29.92,-0.02115,0.72873,0.06577,0.68124,662
165,0.999,-0.064,0.211,-0.732,-0.122,0.122,-16.891,-77.574,-174.902,-27.62,-8.447,-7.633,27.35,0.05814,0.62378,-0.08685,0.77451,655,0.928,-0.007,0.392,-0.366,-0.366,0.427,-2.379,-66.802,-123.102,-26.72,-9.947,4.173,26.05,0.38678,-0.49246,-0.24667,-0.73953,667,0.761,-0.021,0.642,0.61,1.099,0.366,-2.549,-49.96,149.886,-19.12,-10.373,-25.713,26.95,0.24506,0.40439,-0.12845,0.87167,659,0.986,0.061,-0.071,-0.183,0.183,0.671,140.471,-84.721,46.599,-30.327,-12.22,3.727,29.92,-0.02115,0.72873,0.06577,0.68124,663
166,1.0,-0.065,0.219,-0.488,0.0,0.122,-16.908,-77.569,-174.858,-27.62,-8.447,-7.633,27.35,0.05814,0.62378,-0.08685,0.77451,664,0.924,-0.01,0.395,-0.732,-0.122,0.305,-2.401,-66.808,-123.085,-26.72,-9.947,4.173,26.05,0.38678,-0.49246,-0.24667,-0.73953,670,0.766,-0.02,0.641,0.244,0.793,-0.183,-2.538,-49.938,149.897,-19.12,-10.373,-25.713,26.95,0.24506,0.40439,-0.12845,0.87167,660,0.985,0.059,-0.064,-0.549,-0.122,1.038,140.603,-84.727,46.467,-30.327,-12.22,3.727,29.92,-0.02115,0.72873,0.06577,0.68124,668
167,0.996,-0.067,0.214,-0.122,-0.183,0.122,-16.919,-77.569,-174.814,-27.62,-8.447,-7.633,27.35,0.05814,0.62378,-0.08685,0.77451,665,0.918,-0.015,0.396,-1.282,0.427,0.488,-2.433,-66.802,-123.069,-26.72,-9.947,4.173,26.05,0.38678,-0.49246,-0.24667,-0.73953,671,0.764,-0.021,0.634,0.427,-0.305,-0.549,-2.516,-49.933,149.886,-19.12,-10.373,-25.713,26.95,0.24506,0.40439,-0.12845,0.87167,661,0.979,0.055,-0.062,-0.671,-0.305,1.221,140.801,-84.738,46.269,-30.327,-12.22,3.727,29.92,-0.02115,0.72873,0.06577,0.68124,669
168,0.992,-0.066,0.209,-0.183,-0.305,0.061,-16.935,-77.574,-174.798,-27.62,-8.447,-7.633,27.47,0.05814,0.62378,-0.08685,0.77451,676,0.915,-0.02,0.394,-1.526,0.793,0.732,-2.477,-66.791,-123.036,-26.72,-9.947,4.173,26.05,0.38678,-0.49246,-0.24667,-0.73953,680,0.758,-0.021,0.636,0.0,0.671,-0.488,-2.494,-49.933,149.859,-19.12,-10.373,-25.713,26.95,0.24506,0.40439,-0.12845,0.87167,672,0.975,0.054,-0.067,-0.61,-0.305,1.221,141.021,-84.749,46.066,-30.327,-12.22,3.727,29.92,-0.02115,0.72873,0.06577,0.68124,674
169,0.993,-0.064,0.212,-0.549,-0.61,-0.122,-16.952,-77.585,-174.803,-27.62,-8.447,-7.633,27.47,0.05814,0.62378,-0.08685,0.77451,677,0.917,-0.021,0.394,-1.526,0.793,0.854,-2.538,-66.775,-122.986,-26.72,-9.947,4.173,26.05,0.38678,-0.49246,-0.24667,-0.73953,681,0.753,-0.025,0.637,-0.671,1.404,0.0,-2.483,-49.922,149.854,-19.12,-10.373,-25.713,26.95,0.24506,0.40439,-0.12845,0.87167,673,0.978,0.054,-0.078,-0.732,-0.183,1.038,141.218,-84.76,45.89,-30.327,-12.22,3.727,29.92,-0.02115,0.72873,0.06577,0.68124,675
170,0.997,-0.062,0.213,-0.793,-0.488,-0.305,-16.952,-77.596,-174.842,-27.62,-8.447,-7.633,27.47,0.05814,0.62378,-0.08685,0.77451,682,0.922,-0.025,0.394,-1.038,0.366,0.916,-2.604,-66.764,-122.932,-26.72,-9.947,4.173,26.05,0.38678,-0.49246,-0.24667,-0.73953,684,0.756,-0.028,0.64,-1.587,1.526,0.549,-2.499,-49.894,149.87,-19.847,-10.233,-25.153,26.95,0.24506,0.40439,-0.12845,0.87167,678,0.981,0.054,-0.071,-1.038,0.183,0.793,141.356,-84.771,45.769,-30.327,-12.22,3.727,29.92,-0.02115,0.72873,0.06577,0.68124,686
171,1.0,-0.061,0.217,-0.793,-0.305,-0.427,-16.935,-77.602,-174.858,-27.62,-8.447,-7.633,27.47,0.05814,0.62378,-0.08685,0.77451,683,0.923,-0.027,0.396,-0.854,0.427,0.793,-2.659,-66.758,-122.871,-26.72,-9.947,4.173,26.05,0.38678,-0.49246,-0.24667,-0.73953,685,0.759,-0.034,0.64,-1.77,0.916,0.793,-2.538,-49.867,149.908,-19.847,-10.233,-25.153,26.95,0.24506,0.40439,-0.12845,0.87167,679,0.984,0.054,-0.07,-1.282,-0.122,0.549,141.438,-84.776,45.676,-30.327,-12.22,3.727,29.92,-0.02115,0.72873,0.06577,0.68124,687
172,0.996,-0.061,0.212,-0.61,-0.061,-0.427,-16.908,-77.602,-174.886,-27.62,-8.447,-7.633,27.47,0.05814,0.62378,-0.08685,0.77451,688,0.926,-0.026,0.395,-0.916,0.549,0.549,-2.708,-66.747,-122.833,-26.72,-9.947,4.173,26.05,0.38678,-0.49246,-0.24667,-0.73953,696,0.761,-0.039,0.639,-1.343,0.0,0.793,-2.587,-49.856,149.93,-19.847,-10.233,-25.153,26.95,0.24506,0.40439,-0.12845,0.87167,690,0.982,0.056,-0.066,-1.099,0.305,0.305,141.476,-84.781,45.599,-30.327,-12.22,3.727,29.92,-0.02115,0.72873,0.06577,0.68124,692
173,0.997,-0.064,0.21,-0.671,-0.488,-0.488,-16.886,-77.607,-174.897,-27.62,-8.447,-7.633,27.47,0.05814,0.62378,-0.08685,0.77451,689,0.923,-0.022,0.395,-0.793,0.61,0.244,-2.741,-66.736,-122.805,-26.72,-9.947,4.173,26.05,0.38678,-0.49246,-0.24667,-0.73953,697,0.763,-0.039,0.639,-0.61,0.427,0.305,-2.626,-49.85,149.952,-19.847,-10.233,-25.153,26.95,0.24506,0.40439,-0.12845,0.87167,691,0.983,0.056,-0.068,-0.732,0.183,0.305,141.471,-84.792,45.571,-30.327,-12.22,3.727,29.92,-0.02115,0.72873,0.06577,0.68124,693
174,1.0,-0.064,0.212,-0.916,-0.488,-0.549,-16.87,-77.618,-174.919,-27.62,-8.447,-7.633,27.47,0.05814,0.62378,-0.08685,0.77451,694,0.92,-0.027,0.395,-0.305,0.793,0.061,-2.763,-66.725,-122.789,-26.593,-9.393,4.22,26.05,0.38678,-0.49246,-0.24667,-0.73953,700,0.761,-0.035,0.639,0.427,0.366,-0.366,-2.637,-49.845,149.947,-19.847,-10.233,-25.153,26.95,0.24432,0.40155,-0.12927,0.87308,698,0.98,0.053,-0.069,-0.427,0.183,0.122,141.465,-84.798,45.555,-30.087,-12.273,3.347,29.92,-0.02115,0.72873,0.06577,0.68124,702
175,1.0,-0.065,0.208,-0.61,-0.427,-0.488,-16.848,-77.629,-174.93,-27.62,-8.447,-7.633,27.47,0.05814,0.62378,-0.08685,0.77451,695,0.921,-0.03,0.394,-0.061,1.038,0.061,-2.774,-66.703,-122.783,-26.593,-9.393,4.22,26.05,0.38678,-0.49246,-0.24667,-0.73953,701,0.759,-0.034,0.639,1.099,0.793,-0.671,-2.615,-49.839,149.919,-19.847,-10.233,-25.153,26.95,0.24432,0.40155,-0.12927,0.87308,699,0.981,0.05,-0.073,-0.61,-0.061,-0.061,141.454,-84.798,45.555,-30.087,-12.273,3.347,29.92,-0.02115,0.72873,0.06577,0.68124,703
176,0.997,-0.063,0.212,0.0,-0.183,-0.244,-16.831,-77.635,-174.93,-27.62,-8.447,-7.633,27.47,0.05814,0.62378,-0.08685,0.77451,704,0.923,-0.025,0.394,0.183,1.038,0.122,-2.78,-66.687,-122.789,-26.593,-9.393,4.22,26.05,0.38678,-0.49246,-0.24667,-0.73953,710,0.759,-0.036,0.637,0.793,0.793,-0.305,-2.582,-49.823,149.881,-19.847,-10.233,-25.153,26.95,0.24432,0.40155,-0.12927,0.87308,706,0.981,0.054,-0.074,-0.366,0.0,-0.366,141.405,-84.792,45.626,-30.087,-12.273,3.347,29.92,-0.02179,0.72882,0.06485,0.68121,708
177,0.997,-0.062,0.212,0.122,-0.305,-0.061,-16.815,-77.64,-174.919,-27.62,-8.447,-7.633,27.47,0.05814,0.62378,-0.08685,0.77451,705,0.926,-0.02,0.395,0.488,0.977,0.122,-2.785,-66.665,-122.794,-26.593,-9.393,4.22,26.05,0.38678,-0.49246,-0.24667,-0.73953,711,0.762,-0.034,0.638,0.427,1.038,0.0,-2.565,-49.807,149.854,-19.847,-10.233,-25.153,26.95,0.24432,0.40155,-0.12927,0.87308,707,0.983,0.055,-0.071,-0.183,0.427,-0.366,141.301,-84.792,45.725,-30.087,-12.273,3.347,29.92,-0.02179,0.72882,0.06485,0.68121,709
178,0.997,-0.063,0.208,-0.061,-0.488,-0.061,-16.815,-77.646,-174.864,-27.62,-8.447,-7.633,27.47,0.05814,0.62378,-0.08685,0.77451,714,0.924,-0.021,0.396,0.732,1.038,0.061,-2.78,-66.649,-122.794,-26.593,-9.393,4.22,26.05,0.38809,-0.49203,-0.24515,-0.73965,716,0.764,-0.029,0.641,0.61,1.404,0.061,-2.56,-49.785,149.848,-19.847,-10.233,-25.153,26.95,0.24432,0.40155,-0.12927,0.87308,712,0.983,0.056,-0.068,0.122,0.61,-0.366,141.174,-84.798,45.84,-30.087,-12.273,3.347,29.92,-0.02179,0.72882,0.06485,0.68121,718
179,0.999,-0.062,0.207,0.0,-0.488,0.061,-16.826,-77.651,-174.809,-27.62,-8.447,-7.633,27.47,0.05814,0.62378,-0.08685,0.77451,715,0.919,-0.022,0.398,0.793,1.343,0.061,-2.774,-66.627,-122.789,-26.593,-9.393,4.22,26.05,0.38809,-0.49203,-0.24515,-0.73965,717,0.762,-0.027,0.641,0.916,0.427,0.305,-2.554,-49.768,149.859,-19.847,-10.233,-25.153,26.95,0.24432,0.40155,-0.12927,0.87308,713,0.983,0.055,-0.07,0.854,0.244,-0.488,141.075,-84.798,45.939,-30.087,-12.273,3.347,29.92,-0.02179,0.72882,0.06485,0.68121,719
180,1.001,-0.062,0.209,0.488,-0.244,0.244,-16.842,-77.657,-174.738,-27.62,-8.447,-7.633,27.47,0.05814,0.62378,-0.08685,0.77451,722,0.918,-0.022,0.399,0.916,1.465,0.122,-2.763,-66.599,-122.783,-26.593,-9.393,4.22,26.05,0.38809,-0.49203,-0.24515,-0.73965,728,0.757,-0.028,0.642,0.732,-0.122,0.61,-2.549,-49.763,149.87,-19.847,-10.233,-25.153,26.95,0.24432,0.40155,-0.12927,0.87308,720,0.98,0.056,-0.074,0.977,0.366,-0.671,140.949,-84.798,46.088,-30.087,-12.273,3.347,29.92,-0.02179,0.72882,0.06485,0.68121,724
181,1.0,-0.061,0.21,0.61,-0.305,0.427,-16.864,-77.662,-174.655,-27.62,-8.447,-7.633,27.47,0.05814,0.62378,-0.08685,0.77451,723,0.919,-0.019,0.398,1.282,1.282,0.061,-2.747,-66.572,-122.778,-26.593,-9.393,4.22,26.05,0.38809,-0.49203,-0.24515,-0.73965,729,0.755,-0.028,0.644,0.244,0.61,0.977,-2.554,-49.763,149.892,-19.847,-10.233,-25.153,26.95,0.24432,0.40155,-0.12927,0.87308,721,0.981,0.06,-0.074,0.671,0.244,-0.732,140.823,-84.792,46.263,-30.087,-12.273,3.347,29.92,-0.02179,0.72882,0.06485,0.68121,725
182,0.996,-0.06,0.209,0.366,-0.244,0.427,-16.897,-77.662,-174.578,-27.8,-8.42,-6.973,27.47,0.05814,0.62378,-0.08685,0.77451,726,0.923,-0.016,0.397,1.282,1.038,-0.061,-2.725,-66.55,-122.789,-26.593,-9.393,4.22,26.05,0.38809,-0.49203,-0.24515,-0.73965,732,0.758,-0.03,0.642,0.977,0.671,0.732,-2.571,-49.752,149.908,-19.847,-10.233,-25.153,26.95,0.24432,0.40155,-0.12927,0.87308,730,0.983,0.061,-0.072,0.427,0.366,-0.61,140.685,-84.787,46.428,-30.087,-12.273,3.347,29.92,-0.02179,0.72882,0.06485,0.68121,734
183,0.996,-0.061,0.212,0.061,-0.244,0.366,-16.93,-77.662,-174.501,-27.8,-8.42,-6.973,27.47,0.05814,0.62378,-0.08685,0.77451,727,0.924,-0.014,0.397,1.16,0.854,-0.122,-2.697,-66.533,-122.811,-26.593,-9.393,4.22,26.05,0.38809,-0.49203,-0.24515,-0.73965,733,0.761,-0.025,0.641,1.648,0.671,0.366,-2.56,-49.735,149.908,-19.847,-10.233,-25.153,26.95,0.24432,0.40155,-0.12927,0.87308,731,0.983,0.06,-0.068,0.732,0.732,-0.549,140.521,-84.787,46.642,-30.087,-12.273,3.347,29.92,-0.02179,0.72882,0.06485,0.68121,735
184,0.997,-0.062,0.213,0.0,-0.305,0.366,-16.957,-77.668,-174.43,-27.8,-8.42,-6.973,27.47,0.05814,0.62378,-0.08685,0.77451,736,0.922,-0.013,0.399,1.221,1.099,0.0,-2.67,-66.517,-122.838,-26.593,-9.393,4.22,26.05,0.38809,-0.49203,-0.24515,-0.73965,740,0.76,-0.022,0.641,1.587,0.854,0.183,-2.538,-49.724,149.897,-19.847,-10.233,-25.153,26.95,0.24432,0.40155,-0.12927,0.87308,738,0.985,0.059,-0.065,0.549,0.427,-0.427,140.389,-84.787,46.829,-30.087,-12.273,3.347,29.92,-0.02179,0.72882,0.06485,0.68121,742
185,0.998,-0.063,0.21,0.0,-0.244,0.366,-16.99,-77.668,-174.364,-27.8,-8.42,-6.973,27.47,0.05814,0.62378,-0.08685,0.77451,737,0.919,-0.008,0.402,1.709,1.465,0.305,-2.642,-66.495,-122.86,-26.593,-9.393,4.22,26.05,0.38809,-0.49203,-0.24515,-0.73965,741,0.76,-0.02,0.639,1.221,0.122,0.366,-2.51,-49.713,149.892,-19.847,-10.233,-25.153,26.95,0.24432,0.40155,-0.12927,0.87308,739,0.983,0.06,-0.069,0.0,0.122,-0.183,140.323,-84.787,46.939,-30.087,-12.273,3.347,29.92,-0.02179,0.72882,0.06485,0.68121,743
186,1.0,-0.064,0.21,-0.061,-0.183,0.305,-17.023,-77.668,-174.304,-27.8,-8.42,-6.973,27.47,0.05481,0.62506,-0.08453,0.77399,748,0.918,-0.008,0.404,1.77,1.77,0.671,-2.626,-66.462,-122.871,-26.593,-9.393,4.22,26.05,0.38809,-0.49203,-0.24515,-0.73965,750,0.76,-0.015,0.644,1.587,0.0,0.732,-2.494,-49.708,149.886,-19.847,-10.233,-25.153,26.95,0.24432,0.40155,-0.12927,0.87308,744,0.982,0.06,-0.07,-0.305,0.488,0.0,140.251,-84.792,47.054,-30.087,-12.273,3.347,29.92,-0.02179,0.72882,0.06485,0.68121,746
187,1.001,-0.063,0.212,-0.244,0.0,0.305,-17.051,-77.668,-174.254,-27.8,-8.42,-6.973,27.47,0.05481,0.62506,-0.08453,0.77399,749,0.919,-0.013,0.403,1.465,1.709,0.854,-2.62,-66.429,-122.871,-26.593,-9.393,4.22,26.05,0.38809,-0.49203,-0.24515,-0.73965,751,0.757,-0.015,0.644,2.991,1.343,0.244,-2.466,-49.702,149.897,-19.847,-10.233,-25.153,26.95,0.24432,0.40155,-0.12927,0.87308,745,0.982,0.062,-0.074,-0.122,0.305,0.366,140.24,-84.798,47.093,-30.087,-12.273,3.347,29.92,-0.02179,0.72882,0.06485,0.68121,747
188,0.998,-0.063,0.213,-0.488,0.0,0.305,-17.078,-77.668,-174.205,-27.8,-8.42,-6.973,27.47,0.05481,0.62506,-0.08453,0.77399,754,0.921,-0.012,0.403,0.793,1.465,0.854,-2.631,-66.396,-122.855,-26.593,-9.393,4.22,26.05,0.38809,-0.49203,-0.24515,-0.73965,756,0.756,-0.017,0.649,1.282,2.686,0.977,-2.417,-49.669,149.892,-19.233,-10.127,-25.58,26.95,0.24432,0.40155,-0.12927,0.87308,752,0.985,0.059,-0.068,0.0,0.122,0.549,140.301,-84.803,47.049,-30.087,-12.273,3.347,29.92,-0.02179,0.72882,0.06485,0.68121,760
189,0.993,-0.064,0.211,-0.488,-0.183,0.244,-17.106,-77.662,-174.155,-27.8,-8.42,-6.973,27.47,0.05481,0.62506,-0.08453,0.77399,755,0.921,-0.016,0.4,0.305,1.404,0.793,-2.648,-66.368,-122.838,-26.593,-9.393,4.22,26.05,0.38809,-0.49203,-0.24515,-0.73965,757,0.757,-0.016,0.648,-1.465,1.343,2.258,-2.428,-49.625,149.914,-19.233,-10.127,-25.58,26.95,0.24432,0.40155,-0.12927,0.87308,753,0.985,0.057,-0.062,-0.244,0.0,0.61,140.383,-84.814,46.983,-30.087,-12.273,3.347,29.92,-0.02179,0.72882,0.06485,0.68121,761
190,0.993,-0.065,0.209,-0.305,-0.488,0.061,-17.133,-77.668,-174.106,-27.8,-8.42,-6.973,27.47,0.05481,0.62506,-0.08453,0.77399,762,0.918,-0.017,0.402,-0.366,1.526,0.793,-2.681,-66.341,-122.811,-26.593,-9.393,4.22,26.05,0.38809,-0.49203,-0.24515,-0.73965,768,0.759,-0.025,0.643,-3.113,-0.549,2.869,-2.516,-49.603,149.963,-19.233,-10.127,-25.58,26.95,0.24432,0.40155,-0.12927,0.87308,758,0.982,0.054,-0.065,-0.183,0.183,0.549,140.444,-84.82,46.945,-30.393,-12.313,3.773,29.92,-0.02179,0.72882,0.06485,0.68121,764
191,0.997,-0.068,0.21,-0.244,-0.671,-0.244,-17.144,-77.673,-174.073,-27.8,-8.42,-6.973,27.47,0.05481,0.62506,-0.08453,0.77399,763,0.917,-0.019,0.404,-1.099,1.404,0.671,-2.719,-66.313,-122.783,-26.593,-9.393,4.22,26.05,0.38809,-0.49203,-0.24515,-0.73965,769,0.756,-0.03,0.643,-3.235,-0.183,2.319,-2.637,-49.614,150.035,-19.233,-10.127,-25.58,26.95,0.24432,0.40155,-0.12927,0.87308,759,0.982,0.053,-0.069,-0.427,0.61,0.61,140.46,-84.836,46.934,-30.393,-12.313,3.773,29.92,-0.02179,0.72882,0.06485,0.68121,765
192,1.0,-0.068,0.212,-0.305,-0.61,-0.549,-17.139,-77.69,-174.062,-27.8,-8.42,-6.973,27.47,0.05481,0.62506,-0.08453,0.77399,766,0.918,-0.021,0.404,-1.77,1.099,0.61,-2.774,-66.292,-122.761,-26.3,-9.873,4.273,26.05,0.38809,-0.49203,-0.24515,-0.73965,770,0.755,-0.033,0.646,-2.625,1.343,1.16,-2.736,-49.609,150.09,-19.233,-10.127,-25.58,26.95,0.24393,0.39981,-0.12845,0.87408,772,0.983,0.054,-0.07,-0.854,0.427,0.732,140.493,-84.853,46.879,-30.393,-12.313,3.773,29.92,-0.02179,0.72882,0.06485,0.68121,774
193,1.001,-0.065,0.212,-0.61,-0.366,-0.793,-17.106,-77.701,-174.078,-27.8,-8.42,-6.973,27.47,0.05481,0.62506,-0.08453,0.77399,767,0.917,-0.024,0.404,-2.38,0.854,0.305,-2.829,-66.27,-122.739,-26.3,-9.873,4.273,26.05,0.38809,-0.49203,-0.24515,-0.73965,771,0.754,-0.034,0.647,-2.563,2.136,0.427,-2.802,-49.576,150.095,-19.233,-10.127,-25.58,26.95,0.24393,0.39981,-0.12845,0.87408,773,0.983,0.056,-0.067,-0.977,0.732,0.732,140.504,-84.869,46.84,-30.393,-12.313,3.773,29.92,-0.02179,0.72882,0.06485,0.68121,775
194,1.0,-0.063,0.208,-0.671,-0.549,-0.732,-17.062,-77.712,-174.117,-27.8,-8.42,-6.973,27.47,0.05481,0.62506,-0.08453,0.77399,776,0.915,-0.028,0.405,-2.441,0.916,0.0,-2.878,-66.253,-122.739,-26.3,-9.873,4.273,26.05,0.38809,-0.49203,-0.24515,-0.73965,780,0.753,-0.04,0.647,-2.808,1.343,0.0,-2.856,-49.537,150.106,-19.233,-10.127,-25.58,26.95,0.24393,0.39981,-0.12845,0.87408,778,0.982,0.054,-0.067,-1.038,0.671,0.732,140.515,-84.891,46.796,-30.393,-12.313,3.773,29.92,-0.02365,0.72797,0.06693,0.68185,784
195,0.999,-0.064,0.205,-0.549,-0.61,-0.549,-17.029,-77.723,-174.144,-27.8,-8.42,-6.973,27.47,0.05481,0.62506,-0.08453,0.77399,777,0.915,-0.027,0.405,-2.319,1.038,-0.366,-2.911,-66.237,-122.761,-26.3,-9.873,4.273,26.05,0.38809,-0.49203,-0.24515,-0.73965,781,0.752,-0.044,0.645,-2.258,-0.122,-0.549,-2.9,-49.521,150.117,-19.233,-10.127,-25.58,26.95,0.24393,0.39981,-0.12845,0.87408,779,0.979,0.053,-0.069,-1.099,0.427,0.671,140.554,-84.908,46.708,-30.393,-12.313,3.773,29.92,-0.02365,0.72797,0.06693,0.68185,785
196,0.999,-0.066,0.205,-0.244,-0.61,-0.427,-17.012,-77.734,-174.15,-27.8,-8.42,-6.973,27.47,0.05481,0.62506,-0.08453,0.77399,788,0.917,-0.028,0.405,-1.648,0.732,-0.427,-2.928,-66.22,-122.778,-26.3,-9.873,4.273,26.05,0.38882,-0.48962,-0.24292,-0.74158,794,0.752,-0.041,0.645,-1.038,-0.305,-1.16,-2.922,-49.521,150.106,-19.233,-10.127,-25.58,26.95,0.24393,0.39981,-0.12845,0.87408,782,0.98,0.051,-0.072,-1.16,0.122,0.549,140.614,-84.913,46.62,-30.393,-12.313,3.773,29.92,-0.02365,0.72797,0.06693,0.68185,786
197,1.0,-0.067,0.206,-0.183,-0.305,-0.488,-16.996,-77.745,-174.155,-27.8,-8.42,-6.973,27.47,0.05481,0.62506,-0.08453,0.77399,789,0.915,-0.03,0.405,-0.916,0.549,-0.183,-2.944,-66.209,-122.789,-26.3,-9.873,4.273,26.05,0.38882,-0.48962,-0.24292,-0.74158,795,0.756,-0.039,0.645,0.183,-0.427,-1.465,-2.906,-49.532,150.09,-19.233,-10.127,-25.58,26.95,0.24393,0.39981,-0.12845,0.87408,783,0.98,0.05,-0.071,-0.61,0.061,0.305,140.663,-84.919,46.555,-30.393,-12.313,3.773,29.92,-0.02365,0.72797,0.06693,0.68185,787
198,0.998,-0.065,0.206,-0.183,-0.122,-0.366,-16.968,-77.75,-174.172,-27.867,-8.02,-6.66,27.47,0.05481,0.62506,-0.08453,0.77399,792,0.915,-0.03,0.405,-0.305,0.427,0.0,-2.955,-66.198,-122.783,-26.3,-9.873,4.273,26.05,0.38882,-0.48962,-0.24292,-0.74158,798,0.752,-0.037,0.643,0.793,0.0,-1.16,-2.873,-49.537,150.079,-19.233,-10.127,-25.58,26.95,0.24393,0.39981,-0.12845,0.87408,790,0.981,0.049,-0.068,0.061,-0.122,0.0,140.702,-84.913,46.533,-30.393,-12.313,3.773,29.92,-0.02365,0.72797,0.06693,0.68185,796
199,0.999,-0.062,0.209,0.0,-0.122,-0.122,-16.957,-77.756,-174.177,-27.867,-8.02,-6.66,27.47,0.05481,0.62506,-0.08453,0.77399,793,0.914,-0.027,0.407,0.061,0.305,0.061,-2.966,-66.193,-122.772,-26.3,-9.873,4.273,26.05,0.38882,-0.48962,-0.24292,-0.74158,799,0.752,-0.038,0.644,1.404,0.183,-0.671,-2.829,-49.537,150.062,-19.233,-10.127,-25.58,26.95,0.24393,0.39981,-0.12845,0.87408,791,0.98,0.053,-0.066,0.549,0.0,-0.244,140.691,-84.913,46.588,-30.393,-12.313,3.773,29.92,-0.02365,0.72797,0.06693,0.68185,797
200,0.997,-0.059,0.208,0.122,-0.305,0.122,-16.957,-77.761,-174.155,-27.867,-8.02,-6.66,27.47,0.05481,0.62506,-0.08453,0.77399,804,0.914,-0.023,0.406,0.488,0.366,0.0,-2.961,-66.182,-122.767,-26.3,-9.873,4.273,26.05,0.38882,-0.48962,-0.24292,-0.74158,802,0.753,-0.037,0.645,2.075,-0.122,-0.549,-2.791,-49.532,150.068,-19.233,-10.127,-25.58,26.95,0.24393,0.39981,-0.12845,0.87408,800,0.981,0.057,-0.066,0.61,0.122,-0.488,140.614,-84.908,46.708,-30.393,-12.313,3.773,29.92,-0.02365,0.72797,0.06693,0.68185,806
201,0.997,-0.059,0.208,0.0,-0.366,0.183,-16.974,-77.761,-174.117,-27.867,-8.02,-6.66,27.47,0.05481,0.62506,-0.08453,0.77399,805,0.917,-0.02,0.407,0.549,0.427,0.0,-2.961,-66.176,-122.772,-26.3,-9.873,4.273,26.05,0.38882,-0.48962,-0.24292,-0.74158,803,0.753,-0.032,0.645,2.808,-0.427,-0.671,-2.736,-49.537,150.073,-19.233,-10.127,-25.58,26.95,0.24393,0.39981,-0.12845,0.87408,801,0.98,0.058,-0.069,0.549,0.305,-0.61,140.488,-84.908,46.868,-30.393,-12.313,3.773,29.92,-0.02365,0.72797,0.06693,0.68185,807
202,0.998,-0.06,0.211,-0.122,-0.305,0.122,-16.996,-77.767,-174.073,-27.867,-8.02,-6.66,27.47,0.05301,0.62592,-0.08289,0.77359,808,0.918,-0.018,0.407,0.549,0.183,-0.061,-2.95,-66.171,-122.767,-26.3,-9.873,4.273,26.05,0.38882,-0.48962,-0.24292,-0.74158,812,0.756,-0.027,0.647,2.502,-0.366,-0.61,-2.67,-49.543,150.068,-19.233,-10.127,-25.58,26.95,0.24393,0.39981,-0.12845,0.87408,810,0.983,0.058,-0.065,0.61,0.366,-0.61,140.345,-84.902,47.049,-30.393,-12.313,3.773,29.92,-0.02365,0.72797,0.06693,0.68185,814
203,0.997,-0.062,0.21,-0.061,-0.305,0.061,-17.012,-77.772,-174.04,-27.867,-8.02,-6.66,27.47,0.05301,0.62592,-0.08289,0.77359,809,0.919,-0.016,0.407,0.305,0.244,-0.122,-2.939,-66.165,-122.761,-26.3,-9.873,4.273,26.05,0.38882,-0.48962,-0.24292,-0.74158,813,0.758,-0.024,0.647,1.831,-0.549,-0.427,-2.615,-49.554,150.073,-19.233,-10.127,-25.58,26.95,0.24393,0.39981,-0.12845,0.87408,811,0.984,0.06,-0.063,0.488,0.244,-0.488,140.235,-84.902,47.197,-30.393,-12.313,3.773,29.92,-0.02365,0.72797,0.06693,0.68185,815
204,0.996,-0.062,0.21,0.061,-0.488,0.0,-17.023,-77.778,-174.007,-27.867,-8.02,-6.66,27.47,0.05301,0.62592,-0.08289,0.77359,816,0.916,-0.015,0.406,0.0,0.366,-0.122,-2.933,-66.154,-122.756,-26.3,-9.873,4.273,26.05,0.38882,-0.48962,-0.24292,-0.74158,822,0.757,-0.022,0.646,0.916,-0.549,-0.183,-2.582,-49.559,150.073,-19.233,-10.127,-25.58,26.95,0.24393,0.39981,-0.12845,0.87408,818,0.982,0.058,-0.062,0.671,0.244,-0.427,140.136,-84.902,47.307,-30.393,-12.313,3.773,29.92,-0.02365,0.72797,0.06693,0.68185,820
205,0.996,-0.062,0.209,0.122,-0.549,0.0,-17.029,-77.789,-173.974,-27.867,-8.02,-6.66,27.47,0.05301,0.62592,-0.08289,0.77359,817,0.917,-0.016,0.407,-0.122,0.488,-0.122,-2.928,-66.143,-122.75,-26.3,-9.873,4.273,26.05,0.38882,-0.48962,-0.24292,-0.74158,823,0.755,-0.021,0.644,0.732,-0.732,-0.305,-2.56,-49.57,150.062,-19.233,-10.127,-25.58,26.95,0.24393,0.39981,-0.12845,0.87408,819,0.982,0.058,-0.065,0.427,0.244,-0.366,140.037,-84.897,47.384,-30.393,-12.313,3.773,29.92,-0.02365,0.72797,0.06693,0.68185,821
206,0.998,-0.062,0.212,0.061,-0.488,0.0,-17.034,-77.794,-173.941,-27.867,-8.02,-6.66,27.47,0.05301,0.62592,-0.08289,0.77359,826,0.918,-0.017,0.408,-0.488,0.366,-0.122,-2.928,-66.138,-122.745,-26.3,-9.873,4.273,26.05,0.38882,-0.48962,-0.24292,-0.74158,832,0.757,-0.023,0.646,0.427,-0.732,-0.427,-2.538,-49.587,150.035,-19.333,-9.907,-25.713,26.95,0.24393,0.39981,-0.12845,0.87408,824,0.982,0.059,-0.067,0.0,0.305,-0.183,139.949,-84.902,47.45,-30.393,-12.313,3.773,29.92,-0.02365,0.72797,0.06693,0.68185,828
207,0.999,-0.062,0.211,0.0,-0.427,-0.122,-17.04,-77.8,-173.914,-27.867,-8.02,-6.66,27.47,0.05301,0.62592,-0.08289,0.77359,827,0.918,-0.017,0.407,-0.61,0.244,-0.122,-2.928,-66.132,-122.739,-26.3,-9.873,4.273,26.05,0.38882,-0.48962,-0.24292,-0.74158,833,0.757,-0.022,0.647,0.183,-0.122,-0.488,-2.521,-49.592,150.018,-19.333,-9.907,-25.713,26.95,0.24393,0.39981,-0.12845,0.87408,825,0.983,0.059,-0.066,-0.366,0.366,0.0,139.878,-84.908,47.477,-30.393,-12.313,3.773,29.92,-0.02365,0.72797,0.06693,0.68185,829
208,0.998,-0.062,0.208,-0.061,-0.488,-0.183,-17.029,-77.811,-173.897,-27.867,-8.02,-6.66,27.47,0.05301,0.62592,-0.08289,0.77359,834,0.917,-0.019,0.408,-0.671,0.244,-0.183,-2.928,-66.127,-122.739,-26.713,-9.513,4.313,26.05,0.38882,-0.48962,-0.24292,-0.74158,838,0.758,-0.024,0.645,-0.122,-0.305,-0.427,-2.51,-49.598,149.996,-19.333,-9.907,-25.713,26.95,0.24393,0.39981,-0.12845,0.87408,830,0.985,0.058,-0.063,-0.793,0.244,0.122,139.834,-84.913,47.461,-30.32,-12.487,3.02,29.92,-0.02365,0.72797,0.06693,0.68185,836
209,0.998,-0.063,0.206,-0.122,-0.61,-0.244,-17.023,-77.816,-173.886,-27.867,-8.02,-6.66,27.47,0.05301,0.62592,-0.08289,0.77359,835,0.915,-0.02,0.409,-0.793,0.305,-0.122,-2.933,-66.116,-122.734,-26.713,-9.513,4.313,26.05,0.38882,-0.48962,-0.24292,-0.74158,839,0.757,-0.026,0.646,0.0,-0.183,-0.61,-2.499,-49.598,149.985,-19.333,-9.907,-25.713,26.95,0.24393,0.39981,-0.12845,0.87408,831,0.981,0.057,-0.067,-0.61,0.0,0.183,139.845,-84.913,47.411,-30.32,-12.487,3.02,29.92,-0.02365,0.72797,0.06693,0.68185,837
210,1.0,-0.064,0.203,-0.183,-0.488,-0.122,-17.023,-77.827,-173.87,-27.867,-8.02,-6.66,27.47,0.05301,0.62592,-0.08289,0.77359,840,0.914,-0.021,0.406,-0.488,0.183,0.0,-2.939,-66.11,-122.723,-26.713,-9.513,4.313,26.05,0.38882,-0.48962,-0.24292,-0.74158,846,0.753,-0.023,0.646,-0.305,0.305,-0.549,-2.483,-49.598,149.969,-19.333,-9.907,-25.713,26.95,0.24377,0.3999,-0.12769,0.87421,842,0.979,0.056,-0.068,-0.061,-0.183,0.244,139.9,-84.913,47.34,-30.32,-12.487,3.02,29.92,-0.02295,0.72763,0.06631,0.68231,850
211,1.0,-0.063,0.203,0.0,-0.549,0.0,-17.029,-77.838,-173.842,-27.867,-8.02,-6.66,27.47,0.05301,0.62592,-0.08289,0.77359,841,0.916,-0.022,0.406,-0.183,0.0,0.183,-2.95,-66.11,-122.701,-26.713,-9.513,4.313,26.05,0.38882,-0.48962,-0.24292,-0.74158,847,0.753,-0.026,0.645,-0.061,0.244,-0.305,-2.477,-49.592,149.947,-19.333,-9.907,-25.713,26.95,0.24377,0.3999,-0.12769,0.87421,843,0.981,0.056,-0.07,0.244,0.0,0.061,139.911,-84.913,47.318,-30.32,-12.487,3.02,29.92,-0.02295,0.72763,0.06631,0.68231,851
212,1.0,-0.063,0.204,0.122,-0.549,0.122,-17.045,-77.844,-173.809,-27.867,-8.02,-6.66,27.47,0.05301,0.62592,-0.08289,0.77359,844,0.917,-0.022,0.405,-0.305,-0.122,0.244,-2.966,-66.11,-122.679,-26.713,-9.513,4.313,26.05,0.3894,-0.48886,-0.24246,-0.74194,852,0.755,-0.026,0.645,0.061,-0.427,-0.061,-2.466,-49.592,149.93,-19.333,-9.907,-25.713,26.95,0.24377,0.3999,-0.12769,0.87421,848,0.982,0.055,-0.068,0.244,-0.305,0.122,139.938,-84.913,47.263,-30.32,-12.487,3.02,29.92,-0.02295,0.72763,0.06631,0.68231,856
213,0.998,-0.063,0.204,0.183,-0.305,0.183,-17.067,-77.855,-173.765,-27.867,-8.02,-6.66,27.47,0.05301,0.62592,-0.08289,0.77359,845,0.917,-0.021,0.404,-0.244,-0.183,0.305,-2.983,-66.116,-122.651,-26.713,-9.513,4.313,26.05,0.3894,-0.48886,-0.24246,-0.74194,853,0.758,-0.026,0.643,-0.549,-0.977,0.366,-2.477,-49.603,149.947,-19.333,-9.907,-25.713,26.95,0.24377,0.3999,-0.12769,0.87421,849,0.981,0.054,-0.068,0.122,-0.305,0.061,140.01,-84.908,47.181,-30.32,-12.487,3.02,29.92,-0.02295,0.72763,0.06631,0.68231,857
214,0.996,-0.063,0.206,-0.122,-0.427,0.122,-17.089,-77.86,-173.727,-27.867,-8.02,-6.66,27.47,0.05301,0.62592,-0.08289,0.77359,858,0.915,-0.025,0.405,-0.061,-0.122,0.305,-2.994,-66.116,-122.646,-26.713,-9.513,4.313,26.05,0.3894,-0.48886,-0.24246,-0.74194,862,0.756,-0.027,0.642,-0.122,-1.16,0.305,-2.488,-49.625,149.958,-19.333,-9.907,-25.713,26.95,0.24377,0.3999,-0.12769,0.87421,854,0.979,0.053,-0.07,0.244,-0.366,0.0,140.065,-84.902,47.109,-30.32,-12.487,3.02,29.92,-0.02295,0.72763,0.06631,0.68231,860
215,0.998,-0.063,0.208,-0.183,-0.488,0.061,-17.111,-77.866,-173.688,-27.867,-8.02,-6.66,27.47,0.05301,0.62592,-0.08289,0.77359,859,0.917,-0.026,0.403,-0.122,-0.061,0.366,-3.016,-66.116,-122.64,-26.713,-9.513,4.313,26.05,0.3894,-0.48886,-0.24246,-0.74194,863,0.758,-0.029,0.639,-0.061,-1.343,0.244,-2.499,-49.647,149.969,-19.333,-9.907,-25.713,26.95,0.24377,0.3999,-0.12769,0.87421,855,0.982,0.054,-0.066,0.366,0.0,-0.183,140.114,-84.902,47.076,-30.32,-12.487,3.02,29.92,-0.02295,0.72763,0.06631,0.68231,861
216,0.998,-0.063,0.206,0.061,-0.305,0.0,-17.128,-77.871,-173.655,-27.173,-8.467,-7.767,27.47,0.05301,0.62592,-0.08289,0.77359,870,0.92,-0.025,0.401,-0.061,-0.122,0.366,-3.038,-66.116,-122.635,-26.713,-9.513,4.313,26.05,0.3894,-0.48886,-0.24246,-0.74194,866,0.759,-0.032,0.638,0.122,-0.977,0.183,-2.499,-49.669,149.98,-19.333,-9.907,-25.713,26.95,0.24377,0.3999,-0.12769,0.87421,864,0.982,0.058,-0.069,0.305,0.305,-0.305,140.081,-84.897,47.142,-30.32,-12.487,3.02,29.92,-0.02295,0.72763,0.06631,0.68231,868
217,0.999,-0.062,0.206,0.305,-0.183,0.061,-17.133,-77.877,-173.633,-27.173,-8.467,-7.767,27.47,0.05301,0.62592,-0.08289,0.77359,871,0.921,-0.023,0.406,0.183,-0.061,0.122,-3.043,-66.121,-122.635,-26.713,-9.513,4.313,26.05,0.3894,-0.48886,-0.24246,-0.74194,867,0.763,-0.032,0.637,0.183,-0.732,0.183,-2.505,-49.686,149.98,-19.333,-9.907,-25.713,26.95,0.24377,0.3999,-0.12769,0.87421,865,0.985,0.058,-0.069,0.244,0.244,-0.122,140.01,-84.897,47.241,-30.32,-12.487,3.02,29.92,-0.02295,0.72763,0.06631,0.68231,869
218,1.0,-0.062,0.205,0.122,-0.244,0.122,-17.139,-77.877,-173.6,-27.173,-8.467,-7.767,27.47,0.05063,0.62695,-0.08105,0.7731,874,0.922,-0.022,0.407,0.305,-0.061,-0.061,-3.038,-66.121,-122.64,-26.713,-9.513,4.313,26.05,0.3894,-0.48886,-0.24246,-0.74194,876,0.764,-0.029,0.642,0.122,-0.305,0.183,-2.505,-49.697,149.958,-19.333,-9.907,-25.713,26.95,0.24377,0.3999,-0.12769,0.87421,872,0.987,0.057,-0.068,0.183,-0.122,0.0,139.982,-84.897,47.285,-30.32,-12.487,3.02,29.92,-0.02295,0.72763,0.06631,0.68231,878
219,1.0,-0.063,0.205,0.0,-0.244,0.122,-17.155,-77.882,-173.568,-27.173,-8.467,-7.767,27.47,0.05063,0.62695,-0.08105,0.7731,875,0.92,-0.022,0.407,0.671,-0.122,-0.183,-3.021,-66.121,-122.651,-26.713,-9.513,4.313,26.05,0.3894,-0.48886,-0.24246,-0.74194,877,0.761,-0.029,0.645,0.854,-0.122,-0.061,-2.499,-49.702,149.936,-19.333,-9.907,-25.713,26.95,0.24377,0.3999,-0.12769,0.87421,873,0.985,0.054,-0.065,0.244,0.0,-0.122,139.999,-84.897,47.258,-30.32,-12.487,3.02,29.92,-0.02295,0.72763,0.06631,0.68231,879
220,1.0,-0.064,0.207,0.0,-0.244,0.122,-17.172,-77.882,-173.535,-27.173,-8.467,-7.767,27.47,0.05063,0.62695,-0.08105,0.7731,882,0.916,-0.024,0.407,0.488,0.061,-0.061,-3.01,-66.121,-122.646,-26.713,-9.513,4.313,26.05,0.3894,-0.48886,-0.24246,-0.74194,884,0.76,-0.029,0.644,1.16,-0.732,-0.305,-2.477,-49.708,149.914,-19.333,-9.907,-25.713,26.95,0.24377,0.3999,-0.12769,0.87421,880,0.98,0.054,-0.068,0.305,0.0,-0.183,139.982,-84.897,47.258,-30.32,-12.487,3.02,29.92,-0.02295,0.72763,0.06631,0.68231,886
221,1.0,-0.064,0.205,0.244,-0.366,0.183,-17.188,-77.888,-173.496,-27.173,-8.467,-7.767,27.47,0.05063,0.62695,-0.08105,0.7731,883,0.914,-0.025,0.406,0.549,0.061,-0.061,-2.999,-66.121,-122.64,-26.713,-9.513,4.313,26.05,0.3894,-0.48886,-0.24246,-0.74194,885,0.757,-0.028,0.641,1.099,-0.671,-0.427,-2.444,-49.724,149.897,-19.333,-9.907,-25.713,26.95,0.24377,0.3999,-0.12769,0.87421,881,0.978,0.058,-0.074,0.061,-0.305,-0.244,139.977,-84.891,47.252,-30.32,-12.487,3.02,29.92,-0.02295,0.72763,0.06631,0.68231,887
222,0.996,-0.062,0.205,0.366,-0.244,0.122,-17.205,-77.893,-173.463,-27.173,-8.467,-7.767,27.47,0.05063,0.62695,-0.08105,0.7731,888,0.915,-0.022,0.404,0.732,0.0,-0.183,-2.983,-66.121,-122.629,-26.713,-9.513,4.313,26.05,0.3894,-0.48886,-0.24246,-0.74194,892,0.755,-0.028,0.643,1.221,0.427,-0.427,-2.417,-49.73,149.875,-19.333,-9.907,-25.713,26.95,0.24377,0.3999,-0.12769,0.87421,890,0.979,0.059,-0.069,0.0,-0.305,-0.061,139.993,-84.886,47.192,-30.32,-12.487,3.02,29.92,-0.02295,0.72763,0.06631,0.68231,896
223,0.996,-0.063,0.206,-0.061,0.061,0.0,-17.205,-77.893,-173.441,-27.173,-8.467,-7.767,27.47,0.05063,0.62695,-0.08105,0.7731,889,0.917,-0.019,0.402,0.793,-0.366,-0.244,-2.961,-66.127,-122.618,-26.713,-9.513,4.313,26.05,0.3894,-0.48886,-0.24246,-0.74194,893,0.757,-0.026,0.641,0.122,0.793,0.061,-2.401,-49.719,149.832,-19.333,-9.907,-25.713,26.95,0.24377,0.3999,-0.12769,0.87421,891,0.982,0.054,-0.065,-0.305,-0.549,-0.061,140.043,-84.875,47.109,-30.32,-12.487,3.02,29.92,-0.02295,0.72763,0.06631,0.68231,897
224,0.998,-0.064,0.208,-0.427,0.061,0.0,-17.21,-77.893,-173.425,-27.173,-8.467,-7.767,27.47,0.05063,0.62695,-0.08105,0.7731,898,0.918,-0.02,0.404,0.61,-0.488,-0.122,-2.944,-66.138,-122.618,-26.713,-9.513,4.313,26.05,0.3894,-0.48886,-0.24246,-0.74194,902,0.758,-0.022,0.64,0.488,0.0,-0.061,-2.395,-49.708,149.815,-19.487,-10.02,-26.16,26.95,0.24377,0.3999,-0.12769,0.87421,894,0.982,0.053,-0.062,-0.366,-0.549,-0.122,140.109,-84.864,47.027,-30.18,-12.373,3.113,29.92,-0.02295,0.72763,0.06631,0.68231,900
225,0.997,-0.064,0.206,-0.183,-0.061,0.0,-17.216,-77.893,-173.414,-27.173,-8.467,-7.767,27.47,0.05063,0.62695,-0.08105,0.7731,899,0.917,-0.021,0.405,0.183,-0.244,0.0,-2.944,-66.143,-122.629,-26.713,-9.513,4.313,26.05,0.3894,-0.48886,-0.24246,-0.74194,903,0.759,-0.023,0.639,0.732,-0.732,-0.122,-2.379,-49.713,149.788,-19.487,-10.02,-26.16,26.95,0.24377,0.3999,-0.12769,0.87421,895,0.98,0.056,-0.065,-0.244,-0.427,-0.122,140.158,-84.858,46.978,-30.18,-12.373,3.113,29.92,-0.02295,0.72763,0.06631,0.68231,901
226,0.997,-0.064,0.203,0.0,-0.366,0.0,-17.221,-77.893,-173.392,-27.173,-8.467,-7.767,27.47,0.05063,0.62695,-0.08105,0.7731,906,0.915,-0.021,0.406,-0.122,0.0,0.061,-2.95,-66.143,-122.629,-26.427,-10.053,3.967,26.05,0.3894,-0.48886,-0.24246,-0.74194,908,0.758,-0.021,0.64,-0.366,-0.671,0.488,-2.379,-49.73,149.771,-19.487,-10.02,-26.16,26.95,0.24377,0.3999,-0.12769,0.87421,904,0.979,0.057,-0.071,0.0,-0.305,0.0,140.197,-84.853,46.939,-30.18,-12.373,3.113,29.92,-0.02295,0.72763,0.06631,0.68231,910
227,1.0,-0.064,0.205,0.0,-0.366,0.0,-17.232,-77.899,-173.37,-27.173,-8.467,-7.767,27.47,0.05063,0.62695,-0.08105,0.7731,907,0.917,-0.019,0.404,-0.244,-0.061,0.061,-2.961,-66.143,-122.624,-26.427,-10.053,3.967,26.05,0.3894,-0.48886,-0.24246,-0.74194,909,0.757,-0.025,0.641,-1.16,-0.244,0.671,-2.411,-49.741,149.777,-19.487,-10.02,-26.16,26.95,0.24377,0.3999,-0.12769,0.87421,905,0.983,0.056,-0.072,-0.061,-0.488,0.0,140.246,-84.847,46.89,-30.18,-12.373,3.113,29.92,-0.02295,0.72763,0.06631,0.68231,911
228,1.002,-0.064,0.206,-0.122,-0.183,0.0,-17.238,-77.904,-173.348,-27.173,-8.467,-7.767,27.47,0.05063,0.62695,-0.08105,0.7731,912,0.921,-0.021,0.404,-0.305,-0.427,0.0,-2.966,-66.154,-122.629,-26.427,-10.053,3.967,26.05,0.3894,-0.48886,-0.24246,-0.74194,918,0.76,-0.024,0.641,-1.038,0.244,0.427,-2.444,-49.741,149.793,-19.487,-10.02,-26.16,26.95,0.24496,0.40097,-0.1279,0.87335,920,0.986,0.057,-0.07,-0.061,-0.366,-0.061,140.312,-84.836,46.818,-30.18,-12.373,3.113,29.92,-0.02219,0.72809,0.06577,0.68188,914
229,1.001,-0.062,0.206,-0.061,-0.061,0.0,-17.243,-77.904,-173.331,-27.173,-8.467,-7.767,27.47,0.05063,0.62695,-0.08105,0.7731,913,0.921,-0.025,0.405,-0.366,-0.549,0.0,-2.977,-66.16,-122.635,-26.427,-10.053,3.967,26.05,0.3894,-0.48886,-0.24246,-0.74194,919,0.761,-0.027,0.643,-1.16,0.061,0.305,-2.472,-49.735,149.804,-19.487,-10.02,-26.16,26.95,0.24496,0.40097,-0.1279,0.87335,921,0.985,0.057,-0.067,-0.122,-0.61,-0.122,140.361,-84.831,46.741,-30.18,-12.373,3.113,29.92,-0.02219,0.72809,0.06577,0.68188,915
230,0.998,-0.061,0.204,0.122,-0.183,0.0,-17.243,-77.91,-173.315,-27.173,-8.467,-7.767,27.47,0.05063,0.62695,-0.08105,0.7731,916,0.918,-0.027,0.407,-0.061,-0.305,-0.183,-2.972,-66.171,-122.635,-26.427,-10.053,3.967,26.05,0.38956,-0.48907,-0.24277,-0.74161,922,0.761,-0.032,0.641,-1.221,-0.671,0.427,-2.499,-49.741,149.826,-19.487,-10.02,-26.16,26.95,0.24496,0.40097,-0.1279,0.87335,924,0.98,0.057,-0.07,-0.061,-0.671,-0.244,140.422,-84.82,46.659,-30.18,-12.373,3.113,29.92,-0.02219,0.72809,0.06577,0.68188,926
231,0.998,-0.062,0.204,0.061,-0.183,0.0,-17.249,-77.91,-173.293,-27.173,-8.467,-7.767,27.47,0.05063,0.62695,-0.08105,0.7731,917,0.917,-0.025,0.404,0.183,-0.061,-0.305,-2.961,-66.171,-122.646,-26.427,-10.053,3.967,26.05,0.38956,-0.48907,-0.24277,-0.74161,923,0.759,-0.035,0.64,-0.183,-1.038,0.0,-2.521,-49.757,149.837,-19.487,-10.02,-26.16,26.95,0.24496,0.40097,-0.1279,0.87335,925,0.979,0.058,-0.075,0.305,-0.549,-0.366,140.46,-84.809,46.599,-30.18,-12.373,3.113,29.92,-0.02219,0.72809,0.06577,0.68188,927
232,0.999,-0.063,0.205,-0.122,0.061,0.0,-17.249,-77.91,-173.282,-27.173,-8.467,-7.767,27.47,0.05063,0.62695,-0.08105,0.7731,928,0.921,-0.023,0.403,0.793,-0.244,-0.366,-2.933,-66.176,-122.662,-26.427,-10.053,3.967,26.05,0.38956,-0.48907,-0.24277,-0.74161,932,0.76,-0.032,0.64,1.16,-0.305,-0.549,-2.505,-49.774,149.859,-19.487,-10.02,-26.16,26.95,0.24496,0.40097,-0.1279,0.87335,930,0.984,0.058,-0.067,0.427,-0.305,-0.427,140.466,-84.792,46.566,-30.18,-12.373,3.113,29.92,-0.02219,0.72809,0.06577,0.68188,936
233,1.0,-0.062,0.209,0.0,0.0,0.0,-17.243,-77.91,-173.265,-27.173,-8.467,-7.767,27.47,0.05063,0.62695,-0.08105,0.7731,929,0.924,-0.021,0.402,0.671,-0.488,-0.488,-2.9,-66.187,-122.673,-26.427,-10.053,3.967,26.05,0.38956,-0.48907,-0.24277,-0.74161,933,0.763,-0.028,0.64,1.648,0.0,-0.671,-2.461,-49.779,149.865,-19.487,-10.02,-26.16,26.95,0.24496,0.40097,-0.1279,0.87335,931,0.987,0.058,-0.065,0.244,-0.366,-0.427,140.449,-84.781,46.56,-30.18,-12.373,3.113,29.92,-0.02219,0.72809,0.06577,0.68188,937
234,0.998,-0.062,0.206,0.244,-0.061,0.0,-17.238,-77.91,-173.254,-27.373,-8.247,-7.693,27.47,0.05063,0.62695,-0.08105,0.7731,940,0.919,-0.023,0.405,0.61,-0.122,-0.671,-2.862,-66.187,-122.695,-26.427,-10.053,3.967,26.05,0.38956,-0.48907,-0.24277,-0.74161,944,0.766,-0.029,0.638,1.953,-0.488,-1.099,-2.406,-49.785,149.848,-19.487,-10.02,-26.16,26.95,0.24496,0.40097,-0.1279,0.87335,934,0.982,0.057,-0.067,0.549,-0.122,-0.488,140.411,-84.776,46.571,-30.18,-12.373,3.113,29.92,-0.02219,0.72809,0.06577,0.68188,938
