Index,L5_Acceleration X(g),L5_Acceleration Y(g),L5_Acceleration Z(g),L5_Angular velocity X(°/s),L5_Angular velocity Y(°/s),L5_Angular velocity Z(°/s),L5_Angle X(°),L5_Angle Y(°),L5_Angle Z(°),L5_Magnetic field X(ʯt),L5_Magnetic field Y(ʯt),L5_Magnetic field Z(ʯt),L5_Temperature(℃),L5_Quaternions 0(),L5_Quaternions 1(),L5_Quaternions 2(),L5_Quaternions 3(),L5___orig_idx,T4_Acceleration X(g),T4_Acceleration Y(g),T4_Acceleration Z(g),T4_Angular velocity X(°/s),T4_Angular velocity Y(°/s),T4_Angular velocity Z(°/s),T4_Angle X(°),T4_Angle Y(°),T4_Angle Z(°),T4_Magnetic field X(ʯt),T4_Magnetic field Y(ʯt),T4_Magnetic field Z(ʯt),T4_Temperature(℃),T4_Quaternions 0(),T4_Quaternions 1(),T4_Quaternions 2(),T4_Quaternions 3(),T4___orig_idx,C7_Acceleration X(g),C7_Acceleration Y(g),C7_Acceleration Z(g),C7_Angular velocity X(°/s),C7_Angular velocity Y(°/s),C7_Angular velocity Z(°/s),C7_Angle X(°),C7_Angle Y(°),C7_Angle Z(°),C7_Magnetic field X(ʯt),C7_Magnetic field Y(ʯt),C7_Magnetic field Z(ʯt),C7_Temperature(℃),C7_Quaternions 0(),C7_Quaternions 1(),C7_Quaternions 2(),C7_Quaternions 3(),C7___orig_idx,T12_Acceleration X(g),T12_Acceleration Y(g),T12_Acceleration Z(g),T12_Angular velocity X(°/s),T12_Angular velocity Y(°/s),T12_Angular velocity Z(°/s),T12_Angle X(°),T12_Angle Y(°),T12_Angle Z(°),T12_Magnetic field X(ʯt),T12_Magnetic field Y(ʯt),T12_Magnetic field Z(ʯt),T12_Temperature(℃),T12_Quaternions 0(),T12_Quaternions 1(),T12_Quaternions 2(),T12_Quaternions 3(),T12___orig_idx
0,0.97,-0.197,0.264,0.0,0.366,0.671,-36.788,-71.29,-156.66,-29.16,-6.2,-10.207,26.21,0.02246,0.59476,-0.13748,0.79166,0,0.948,0.08,0.32,-2.563,-2.869,-0.549,12.612,-71.587,-126.392,-28.313,-9.433,9.2,24.51,-0.42953,0.47604,0.34616,0.68478,4,0.856,-0.051,0.501,-2.869,-1.465,-2.38,-6.74,-60.002,154.556,-22.86,-8.6,-19.88,28.12,-0.20999,-0.47385,0.15674,-0.84064,2,0.976,-0.012,-0.06,1.709,-1.343,1.282,-168.327,-85.715,-1.428,-31.22,-10.913,4.613,29.14,0.06546,-0.72989,-0.05969,-0.67773,6
1,0.962,-0.198,0.265,0.366,0.61,0.732,-36.804,-71.274,-156.594,-29.16,-6.2,-10.207,26.21,0.02246,0.59476,-0.13748,0.79166,1,0.945,0.069,0.317,-1.892,-2.625,-0.244,12.64,-71.636,-126.458,-28.313,-9.433,9.2,24.51,-0.42953,0.47604,0.34616,0.68478,5,0.853,-0.052,0.501,-2.258,-1.526,-1.892,-6.718,-60.029,154.501,-22.86,-8.6,-19.88,28.12,-0.20999,-0.47385,0.15674,-0.84064,3,0.988,-0.009,-0.062,-0.488,-2.075,1.221,-168.146,-85.677,-1.56,-31.22,-10.913,4.613,29.14,0.06546,-0.72989,-0.05969,-0.67773,7
2,0.959,-0.197,0.272,0.061,0.732,0.671,-36.81,-71.257,-156.544,-29.16,-6.2,-10.207,26.21,0.02246,0.59476,-0.13748,0.79166,14,0.963,0.062,0.308,-2.014,-2.441,0.183,12.645,-71.675,-126.502,-28.313,-9.433,9.2,24.51,-0.42029,0.47937,0.34164,0.69046,8,0.87,-0.062,0.488,-2.38,-1.648,-1.587,-6.707,-60.057,154.473,-22.86,-8.6,-19.88,28.12,-0.21921,-0.47574,0.15964,-0.83667,12,0.988,-0.016,-0.07,-1.282,-3.357,1.77,-167.948,-85.611,-1.747,-31.22,-10.913,4.613,29.14,0.06546,-0.72989,-0.05969,-0.67773,10
3,0.96,-0.193,0.273,-0.183,0.122,0.732,-36.826,-71.246,-156.5,-29.16,-6.2,-10.207,26.21,0.02246,0.59476,-0.13748,0.79166,15,0.969,0.069,0.308,-1.587,-3.54,0.0,12.634,-71.724,-126.541,-28.313,-9.433,9.2,24.51,-0.42029,0.47937,0.34164,0.69046,9,0.88,-0.063,0.5,-2.136,-1.648,-2.014,-6.691,-60.09,154.435,-22.86,-8.6,-19.88,28.12,-0.21921,-0.47574,0.15964,-0.83667,13,0.979,-0.023,-0.062,-1.709,-3.235,2.197,-167.651,-85.545,-2.032,-31.22,-10.913,4.613,29.14,0.06546,-0.72989,-0.05969,-0.67773,11
4,0.963,-0.192,0.269,-0.061,-0.793,0.793,-36.87,-71.241,-156.423,-29.16,-6.2,-10.207,26.21,0.02307,0.59332,-0.13882,0.79251,20,0.955,0.071,0.314,-0.854,-3.052,-0.305,12.662,-71.785,-126.601,-28.313,-9.433,9.2,24.51,-0.42029,0.47937,0.34164,0.69046,18,0.862,-0.049,0.487,-2.136,-0.977,-2.014,-6.669,-60.112,154.363,-22.86,-8.6,-19.88,28.12,-0.21921,-0.47574,0.15964,-0.83667,22,0.981,-0.017,-0.05,-0.793,-3.052,1.953,-167.349,-85.485,-2.307,-31.22,-10.913,4.613,29.14,0.06546,-0.72989,-0.05969,-0.67773,16
5,0.967,-0.193,0.265,-0.122,-0.793,0.793,-36.931,-71.241,-156.33,-29.16,-6.2,-10.207,26.21,0.02307,0.59332,-0.13882,0.79251,21,0.954,0.06,0.317,0.305,-1.038,0.671,12.684,-71.823,-126.645,-28.313,-9.433,9.2,24.51,-0.42029,0.47937,0.34164,0.69046,19,0.861,-0.054,0.493,-0.549,0.916,0.305,-6.663,-60.112,154.336,-22.86,-8.6,-19.88,28.12,-0.21921,-0.47574,0.15964,-0.83667,23,0.987,-0.015,-0.062,-0.488,-3.601,1.648,-167.13,-85.413,-2.488,-31.22,-10.913,4.613,29.14,0.06546,-0.72989,-0.05969,-0.67773,17
6,0.968,-0.191,0.27,-0.427,-0.671,0.854,-36.991,-71.241,-156.237,-29.16,-6.2,-10.207,26.21,0.02307,0.59332,-0.13882,0.79251,26,0.958,0.059,0.302,0.305,0.0,1.16,12.651,-71.84,-126.606,-28.313,-9.433,9.2,24.51,-0.42029,0.47937,0.34164,0.69046,30,0.866,-0.069,0.486,-0.244,2.502,0.793,-6.68,-60.073,154.347,-22.86,-8.6,-19.88,28.12,-0.21921,-0.47574,0.15964,-0.83667,28,0.987,-0.02,-0.079,-1.404,-4.456,1.282,-167.058,-85.336,-2.543,-31.22,-10.913,4.613,29.14,0.06546,-0.72989,-0.05969,-0.67773,24
7,0.965,-0.191,0.264,-0.793,-1.282,0.916,-37.068,-71.246,-156.138,-29.16,-6.2,-10.207,26.21,0.02307,0.59332,-0.13882,0.79251,27,0.954,0.065,0.288,0.061,-0.977,0.671,12.59,-71.845,-126.552,-28.313,-9.433,9.2,24.51,-0.42029,0.47937,0.34164,0.69046,31,0.861,-0.065,0.483,-0.427,1.404,0.244,-6.702,-60.035,154.363,-22.86,-8.6,-19.88,28.12,-0.21921,-0.47574,0.15964,-0.83667,29,0.981,-0.021,-0.068,-2.747,-4.089,1.038,-167.069,-85.259,-2.543,-31.22,-10.913,4.613,29.14,0.06546,-0.72989,-0.05969,-0.67773,25
8,0.965,-0.193,0.265,-0.732,-0.977,0.977,-37.156,-71.252,-156.022,-29.16,-6.2,-10.207,26.21,0.02307,0.59332,-0.13882,0.79251,32,0.955,0.062,0.296,-0.122,-1.282,0.0,12.579,-71.862,-126.546,-28.313,-9.433,9.2,24.51,-0.42029,0.47937,0.34164,0.69046,38,0.86,-0.064,0.48,-0.549,0.366,-0.122,-6.713,-60.018,154.352,-22.86,-8.6,-19.88,28.12,-0.21921,-0.47574,0.15964,-0.83667,36,0.983,-0.015,-0.077,-2.869,-3.54,1.099,-167.064,-85.188,-2.593,-31.22,-10.913,4.613,29.14,0.06546,-0.72989,-0.05969,-0.67773,34
9,0.97,-0.197,0.262,-0.61,-1.16,0.916,-37.238,-71.257,-155.929,-29.16,-6.2,-10.207,26.21,0.02307,0.59332,-0.13882,0.79251,33,0.964,0.052,0.305,-0.671,-0.61,-0.366,12.59,-71.878,-126.568,-28.313,-9.433,9.2,24.51,-0.42029,0.47937,0.34164,0.69046,39,0.873,-0.072,0.486,-0.732,0.061,-0.671,-6.713,-60.013,154.336,-22.86,-8.6,-19.88,28.12,-0.21921,-0.47574,0.15964,-0.83667,37,0.984,-0.014,-0.088,-2.014,-2.747,1.16,-167.003,-85.133,-2.692,-31.22,-10.913,4.613,29.14,0.06546,-0.72989,-0.05969,-0.67773,35
10,0.976,-0.202,0.256,-0.854,-1.77,0.793,-37.337,-71.268,-155.852,-29.16,-6.2,-10.207,26.21,0.02307,0.59332,-0.13882,0.79251,44,0.965,0.056,0.296,-0.427,-0.305,-0.122,12.59,-71.889,-126.584,-28.313,-9.433,9.2,24.51,-0.42029,0.47937,0.34164,0.69046,42,0.871,-0.069,0.488,0.061,0.122,-0.244,-6.713,-60.018,154.303,-22.86,-8.6,-19.88,28.12,-0.21921,-0.47574,0.15964,-0.83667,46,0.986,-0.021,-0.085,0.0,-0.732,0.732,-166.877,-85.122,-2.807,-31.22,-10.913,4.613,29.14,0.06546,-0.72989,-0.05969,-0.67773,40
11,0.974,-0.201,0.252,-1.099,-1.953,0.61,-37.447,-71.29,-155.753,-29.16,-6.2,-10.207,26.21,0.02307,0.59332,-0.13882,0.79251,45,0.954,0.065,0.296,-0.61,-0.305,-0.183,12.579,-71.895,-126.584,-28.313,-9.433,9.2,24.51,-0.42029,0.47937,0.34164,0.69046,43,0.859,-0.058,0.486,0.061,-0.366,0.0,-6.713,-60.024,154.292,-22.86,-8.6,-19.88,28.12,-0.21921,-0.47574,0.15964,-0.83667,47,0.986,-0.025,-0.071,0.0,0.122,0.305,-166.794,-85.133,-2.862,-31.22,-10.913,4.613,29.14,0.06546,-0.72989,-0.05969,-0.67773,41
12,0.973,-0.2,0.25,-1.16,-1.404,0.488,-37.546,-71.312,-155.643,-29.16,-6.2,-10.207,26.21,0.02307,0.59332,-0.13882,0.79251,52,0.95,0.065,0.307,-2.136,0.916,-0.488,12.557,-71.889,-126.59,-28.313,-9.433,9.2,24.51,-0.42029,0.47937,0.34164,0.69046,50,0.858,-0.061,0.488,-0.732,0.305,-0.488,-6.718,-60.029,154.281,-22.86,-8.6,-19.88,28.12,-0.21921,-0.47574,0.15964,-0.83667,54,0.982,-0.025,-0.086,-1.77,-0.549,0.183,-166.805,-85.122,-2.856,-31.22,-10.913,4.613,29.14,0.06546,-0.72989,-0.05969,-0.67773,48
13,0.979,-0.206,0.254,-1.404,-0.305,0.244,-37.617,-71.323,-155.588,-29.16,-6.2,-10.207,26.21,0.02307,0.59332,-0.13882,0.79251,53,0.956,0.066,0.305,-3.967,1.465,-1.221,12.524,-71.867,-126.595,-28.313,-9.433,9.2,24.51,-0.42029,0.47937,0.34164,0.69046,51,0.865,-0.066,0.49,-1.77,0.671,-1.709,-6.713,-60.024,154.254,-22.86,-8.6,-19.88,28.12,-0.21921,-0.47574,0.15964,-0.83667,55,0.979,-0.026,-0.104,-3.235,-0.793,0.061,-166.882,-85.111,-2.834,-31.22,-10.913,4.613,29.14,0.06546,-0.72989,-0.05969,-0.67773,49
14,0.98,-0.212,0.26,-1.77,0.366,-0.061,-37.65,-71.323,-155.577,-29.16,-6.2,-10.207,26.21,0.02307,0.59332,-0.13882,0.79251,56,0.96,0.07,0.293,-4.761,0.427,-1.77,12.508,-71.84,-126.65,-28.313,-9.433,9.2,24.51,-0.42029,0.47937,0.34164,0.69046,62,0.867,-0.058,0.49,-2.197,0.488,-2.625,-6.685,-60.018,154.182,-22.76,-9.013,-19.947,28.12,-0.21921,-0.47574,0.15964,-0.83667,60,0.985,-0.024,-0.098,-3.967,0.244,0.0,-166.932,-85.111,-2.878,-31.407,-10.753,5.06,29.14,0.06546,-0.72989,-0.05969,-0.67773,58
15,0.97,-0.208,0.257,-1.77,0.977,-0.305,-37.661,-71.312,-155.605,-29.16,-6.2,-10.207,26.21,0.02307,0.59332,-0.13882,0.79251,57,0.963,0.07,0.294,-4.089,-1.404,-1.648,12.519,-71.845,-126.744,-28.313,-9.433,9.2,24.51,-0.42029,0.47937,0.34164,0.69046,63,0.871,-0.053,0.487,-2.441,-0.244,-2.441,-6.647,-60.029,154.1,-22.76,-9.013,-19.947,28.12,-0.21921,-0.47574,0.15964,-0.83667,61,0.993,-0.023,-0.083,-2.625,-0.366,-0.183,-167.031,-85.106,-2.84,-31.407,-10.753,5.06,29.14,0.06546,-0.72989,-0.05969,-0.67773,59
16,0.963,-0.198,0.258,-1.709,1.587,-0.305,-37.639,-71.296,-155.654,-29.16,-6.2,-10.207,26.21,0.02307,0.59332,-0.13882,0.79251,70,0.962,0.061,0.299,-3.845,-1.404,-1.648,12.557,-71.873,-126.843,-28.253,-9.013,8.827,24.51,-0.42029,0.47937,0.34164,0.69046,68,0.869,-0.062,0.485,-2.686,-0.061,-2.258,-6.625,-60.04,154.017,-22.76,-9.013,-19.947,28.12,-0.22263,-0.4754,0.1611,-0.83569,66,0.988,-0.015,-0.085,-4.639,-0.61,0.061,-167.124,-85.089,-2.845,-31.407,-10.753,5.06,29.14,0.06601,-0.73367,-0.05774,-0.67374,64
17,0.963,-0.201,0.255,-1.282,1.343,-0.549,-37.601,-71.279,-155.698,-29.16,-6.2,-10.207,26.21,0.02307,0.59332,-0.13882,0.79251,71,0.96,0.056,0.301,-4.211,-0.549,-1.831,12.585,-71.884,-126.947,-28.253,-9.013,8.827,24.51,-0.42029,0.47937,0.34164,0.69046,69,0.868,-0.066,0.484,-3.235,0.61,-2.197,-6.614,-60.04,153.918,-22.76,-9.013,-19.947,28.12,-0.22263,-0.4754,0.1611,-0.83569,67,0.98,-0.012,-0.082,-6.714,-0.977,0.488,-167.195,-85.067,-2.906,-31.407,-10.753,5.06,29.14,0.06601,-0.73367,-0.05774,-0.67374,65
18,0.971,-0.203,0.257,-0.916,0.977,-1.221,-37.546,-71.274,-155.775,-28.82,-6.213,-10.2,26.21,0.02307,0.59332,-0.13882,0.79251,72,0.961,0.068,0.295,-3.906,-0.244,-1.77,12.612,-71.889,-127.057,-28.253,-9.013,8.827,24.51,-0.42029,0.47937,0.34164,0.69046,78,0.867,-0.051,0.487,-2.625,0.366,-2.319,-6.597,-60.04,153.82,-22.76,-9.013,-19.947,28.12,-0.22263,-0.4754,0.1611,-0.83569,74,0.979,-0.018,-0.081,-7.263,-0.854,0.488,-167.278,-85.051,-2.977,-31.407,-10.753,5.06,29.14,0.06601,-0.73367,-0.05774,-0.67374,76
19,0.972,-0.197,0.26,-0.671,0.732,-1.526,-37.469,-71.279,-155.858,-28.82,-6.213,-10.2,26.21,0.02307,0.59332,-0.13882,0.79251,73,0.957,0.061,0.301,-2.502,-0.488,-0.977,12.629,-71.895,-127.145,-28.253,-9.013,8.827,24.51,-0.42029,0.47937,0.34164,0.69046,79,0.863,-0.056,0.487,-1.465,0.244,-1.404,-6.581,-60.046,153.732,-22.76,-9.013,-19.947,28.12,-0.22263,-0.4754,0.1611,-0.83569,75,0.985,-0.023,-0.08,-6.836,-0.793,0.183,-167.404,-85.034,-2.999,-31.407,-10.753,5.06,29.14,0.06601,-0.73367,-0.05774,-0.67374,77
20,0.969,-0.195,0.267,-0.61,0.793,-0.732,-37.408,-71.279,-155.912,-28.82,-6.213,-10.2,26.21,0.02307,0.59332,-0.13882,0.79251,84,0.956,0.054,0.308,-1.526,0.549,-0.61,12.629,-71.895,-127.194,-28.253,-9.013,8.827,24.51,-0.41568,0.483,0.33929,0.69186,82,0.863,-0.068,0.488,-0.488,0.122,-0.732,-6.564,-60.051,153.699,-22.76,-9.013,-19.947,28.12,-0.22263,-0.4754,0.1611,-0.83569,86,0.988,-0.032,-0.084,-4.517,-0.854,-0.244,-167.574,-85.018,-2.944,-31.407,-10.753,5.06,29.14,0.06601,-0.73367,-0.05774,-0.67374,80
21,0.968,-0.196,0.27,-1.221,1.038,-0.183,-37.375,-71.274,-155.94,-28.82,-6.213,-10.2,26.21,0.02307,0.59332,-0.13882,0.79251,85,0.958,0.053,0.298,-0.366,0.671,-0.061,12.607,-71.884,-127.205,-28.253,-9.013,8.827,24.51,-0.41568,0.483,0.33929,0.69186,83,0.864,-0.063,0.488,0.244,0.0,0.061,-6.564,-60.057,153.671,-22.76,-9.013,-19.947,28.12,-0.22263,-0.4754,0.1611,-0.83569,87,0.987,-0.029,-0.084,-3.113,-0.732,-0.305,-167.701,-85.007,-2.9,-31.407,-10.753,5.06,29.14,0.06601,-0.73367,-0.05774,-0.67374,81
22,0.968,-0.196,0.261,-0.854,1.038,-0.244,-37.348,-71.257,-155.956,-28.82,-6.213,-10.2,26.21,0.02213,0.59409,-0.13965,0.79181,94,0.955,0.06,0.306,0.977,-0.61,0.488,12.585,-71.889,-127.178,-28.253,-9.013,8.827,24.51,-0.41568,0.483,0.33929,0.69186,90,0.86,-0.062,0.492,0.671,-0.061,0.732,-6.575,-60.057,153.66,-22.76,-9.013,-19.947,28.12,-0.22263,-0.4754,0.1611,-0.83569,92,0.983,-0.021,-0.074,-3.174,-0.122,-0.122,-167.761,-85.001,-2.933,-31.407,-10.753,5.06,29.14,0.06601,-0.73367,-0.05774,-0.67374,88
23,0.966,-0.196,0.264,-0.183,0.61,-0.427,-37.31,-71.252,-155.973,-28.82,-6.213,-10.2,26.21,0.02213,0.59409,-0.13965,0.79181,95,0.953,0.068,0.314,1.404,-0.244,0.366,12.574,-71.906,-127.15,-28.253,-9.013,8.827,24.51,-0.41568,0.483,0.33929,0.69186,91,0.859,-0.06,0.496,1.099,0.183,0.854,-6.592,-60.057,153.693,-22.76,-9.013,-19.947,28.12,-0.22263,-0.4754,0.1611,-0.83569,93,0.981,-0.015,-0.084,-2.625,0.488,-0.427,-167.849,-85.018,-2.922,-31.407,-10.753,5.06,29.14,0.06601,-0.73367,-0.05774,-0.67374,89
24,0.965,-0.197,0.261,-0.427,0.427,-0.244,-37.282,-71.246,-155.956,-28.82,-6.213,-10.2,26.21,0.02213,0.59409,-0.13965,0.79181,98,0.956,0.062,0.294,1.16,0.732,0.122,12.568,-71.9,-127.112,-28.253,-9.013,8.827,24.51,-0.41568,0.483,0.33929,0.69186,100,0.868,-0.062,0.481,1.16,0.244,0.793,-6.603,-60.057,153.721,-22.76,-9.013,-19.947,28.12,-0.22263,-0.4754,0.1611,-0.83569,102,0.985,-0.013,-0.076,-1.709,0.244,-0.671,-167.997,-85.023,-2.823,-31.407,-10.753,5.06,29.14,0.06601,-0.73367,-0.05774,-0.67374,96
25,0.971,-0.2,0.259,-0.671,0.793,-0.244,-37.255,-71.241,-155.956,-28.82,-6.213,-10.2,26.21,0.02213,0.59409,-0.13965,0.79181,99,0.962,0.069,0.302,1.282,0.244,0.0,12.574,-71.895,-127.079,-28.253,-9.013,8.827,24.51,-0.41568,0.483,0.33929,0.69186,101,0.87,-0.055,0.49,0.61,0.61,0.183,-6.608,-60.046,153.726,-22.76,-9.013,-19.947,28.12,-0.22263,-0.4754,0.1611,-0.83569,103,0.983,-0.027,-0.082,-1.099,0.244,-0.549,-168.102,-85.034,-2.747,-31.407,-10.753,5.06,29.14,0.06601,-0.73367,-0.05774,-0.67374,97
26,0.969,-0.201,0.267,-0.427,0.427,-0.366,-37.233,-71.235,-155.989,-28.82,-6.213,-10.2,26.21,0.02213,0.59409,-0.13965,0.79181,110,0.952,0.08,0.304,0.732,0.183,-0.305,12.59,-71.895,-127.068,-28.253,-9.013,8.827,24.51,-0.41568,0.483,0.33929,0.69186,104,0.856,-0.047,0.493,0.183,0.61,-0.061,-6.603,-60.04,153.715,-22.76,-9.013,-19.947,28.12,-0.22263,-0.4754,0.1611,-0.83569,106,0.985,-0.02,-0.09,-0.977,0.427,-0.549,-168.195,-85.045,-2.686,-31.407,-10.753,5.06,29.14,0.06601,-0.73367,-0.05774,-0.67374,108
27,0.968,-0.2,0.26,-0.61,0.549,-0.183,-37.211,-71.23,-156.022,-28.82,-6.213,-10.2,26.21,0.02213,0.59409,-0.13965,0.79181,111,0.947,0.083,0.312,-0.061,0.854,-0.549,12.612,-71.884,-127.079,-28.253,-9.013,8.827,24.51,-0.41568,0.483,0.33929,0.69186,105,0.852,-0.042,0.498,-0.305,1.221,-0.366,-6.597,-60.024,153.721,-22.76,-9.013,-19.947,28.12,-0.22263,-0.4754,0.1611,-0.83569,107,0.981,-0.006,-0.076,-1.343,0.488,-0.732,-168.344,-85.056,-2.565,-31.407,-10.753,5.06,29.14,0.06601,-0.73367,-0.05774,-0.67374,109
28,0.969,-0.196,0.257,-0.854,0.916,-0.061,-37.194,-71.219,-156.033,-28.82,-6.213,-10.2,26.21,0.02213,0.59409,-0.13965,0.79181,114,0.951,0.077,0.305,-0.916,1.221,-0.793,12.634,-71.862,-127.106,-28.253,-9.013,8.827,24.51,-0.41568,0.483,0.33929,0.69186,112,0.857,-0.049,0.499,-0.916,0.854,-0.977,-6.581,-60.007,153.721,-22.76,-9.013,-19.947,28.12,-0.22263,-0.4754,0.1611,-0.83569,116,0.98,-0.017,-0.087,-4.578,0.061,0.488,-168.393,-85.062,-2.604,-31.407,-10.753,5.06,29.14,0.06601,-0.73367,-0.05774,-0.67374,118
29,0.967,-0.195,0.259,-0.61,0.671,-0.061,-37.178,-71.208,-156.055,-28.82,-6.213,-10.2,26.21,0.02213,0.59409,-0.13965,0.79181,115,0.952,0.072,0.303,-0.854,0.183,-0.671,12.656,-71.845,-127.145,-28.253,-9.013,8.827,24.51,-0.41568,0.483,0.33929,0.69186,113,0.861,-0.051,0.499,-1.038,0.427,-1.038,-6.559,-60.002,153.71,-22.76,-9.013,-19.947,28.12,-0.22263,-0.4754,0.1611,-0.83569,117,0.983,-0.014,-0.083,-4.578,0.183,0.183,-168.393,-85.062,-2.719,-31.407,-10.753,5.06,29.14,0.06601,-0.73367,-0.05774,-0.67374,119
30,0.965,-0.191,0.26,0.061,0.183,-0.122,-37.161,-71.202,-156.061,-28.82,-6.213,-10.2,26.21,0.02213,0.59409,-0.13965,0.79181,122,0.948,0.074,0.308,-0.366,0.183,-0.305,12.673,-71.84,-127.183,-28.253,-9.013,8.827,24.51,-0.41568,0.483,0.33929,0.69186,120,0.852,-0.049,0.494,-0.916,0.122,-0.366,-6.553,-59.996,153.715,-22.88,-9.06,-19.673,28.12,-0.22263,-0.4754,0.1611,-0.83569,126,0.978,-0.012,-0.073,-5.005,0.244,0.0,-168.448,-85.067,-2.763,-31.567,-10.86,4.14,29.14,0.06601,-0.73367,-0.05774,-0.67374,124
31,0.967,-0.194,0.256,0.916,-0.122,0.122,-37.15,-71.208,-156.028,-28.82,-6.213,-10.2,26.21,0.02213,0.59409,-0.13965,0.79181,123,0.936,0.071,0.31,-0.305,0.305,-0.122,12.684,-71.834,-127.2,-28.253,-9.013,8.827,24.51,-0.41568,0.483,0.33929,0.69186,121,0.84,-0.053,0.492,-1.099,0.488,-0.366,-6.553,-59.991,153.71,-22.88,-9.06,-19.673,28.12,-0.22263,-0.4754,0.1611,-0.83569,127,0.973,-0.017,-0.082,-3.235,0.183,-0.244,-168.552,-85.073,-2.758,-31.567,-10.86,4.14,29.14,0.06601,-0.73367,-0.05774,-0.67374,125
32,0.962,-0.197,0.262,0.61,0.0,0.366,-37.15,-71.208,-155.978,-28.82,-6.213,-10.2,26.21,0.02213,0.59409,-0.13965,0.79181,128,0.941,0.063,0.311,-0.61,1.099,-0.183,12.678,-71.818,-127.2,-28.253,-9.013,8.827,24.51,-0.41568,0.483,0.33929,0.69186,134,0.844,-0.059,0.494,-1.343,0.916,-0.427,-6.559,-59.974,153.682,-22.88,-9.06,-19.673,28.12,-0.22461,-0.47467,0.1618,-0.83545,130,0.971,-0.021,-0.082,-1.282,0.305,-0.61,-168.679,-85.078,-2.675,-31.567,-10.86,4.14,29.14,0.06601,-0.73367,-0.05774,-0.67374,132
33,0.962,-0.198,0.262,-0.61,0.061,0.549,-37.167,-71.202,-155.918,-28.82,-6.213,-10.2,26.21,0.02213,0.59409,-0.13965,0.79181,129,0.95,0.07,0.305,0.0,1.526,0.0,12.662,-71.79,-127.189,-28.253,-9.013,8.827,24.51,-0.41568,0.483,0.33929,0.69186,135,0.857,-0.057,0.501,-0.366,0.366,0.122,-6.564,-59.963,153.666,-22.88,-9.06,-19.673,28.12,-0.22461,-0.47467,0.1618,-0.83545,131,0.978,-0.005,-0.08,-2.136,-0.122,-0.305,-168.821,-85.089,-2.56,-31.567,-10.86,4.14,29.14,0.06601,-0.73367,-0.05774,-0.67374,133
34,0.965,-0.198,0.27,-1.465,0.183,0.549,-37.211,-71.197,-155.858,-28.82,-6.213,-10.2,26.21,0.02213,0.59409,-0.13965,0.79181,140,0.958,0.075,0.3,0.977,0.549,0.061,12.662,-71.768,-127.172,-28.253,-9.533,8.453,24.51,-0.41568,0.483,0.33929,0.69186,138,0.87,-0.052,0.493,0.366,0.0,0.366,-6.57,-59.958,153.682,-22.88,-9.06,-19.673,28.12,-0.22461,-0.47467,0.1618,-0.83545,142,0.984,-0.01,-0.068,-6.104,-0.61,0.244,-168.937,-85.084,-2.483,-31.567,-10.86,4.14,29.14,0.05649,-0.7345,-0.04935,-0.67438,136
35,0.966,-0.199,0.264,-1.343,-0.488,0.427,-37.266,-71.197,-155.77,-28.82,-6.213,-10.2,26.21,0.02213,0.59409,-0.13965,0.79181,141,0.967,0.074,0.313,1.16,-0.122,-0.244,12.689,-71.763,-127.183,-28.253,-9.533,8.453,24.51,-0.41568,0.483,0.33929,0.69186,139,0.875,-0.053,0.492,-0.488,0.183,-0.427,-6.559,-59.958,153.677,-22.88,-9.06,-19.673,28.12,-0.22461,-0.47467,0.1618,-0.83545,143,0.987,-0.023,-0.072,-4.578,-0.244,0.427,-169.019,-85.078,-2.461,-31.567,-10.86,4.14,29.14,0.05649,-0.7345,-0.04935,-0.67438,137
36,0.974,-0.197,0.259,-0.183,-1.038,0.427,-37.326,-71.202,-155.671,-28.62,-5.64,-9.253,26.21,0.02213,0.59409,-0.13965,0.79181,144,0.961,0.07,0.315,0.305,0.366,-0.549,12.733,-71.757,-127.211,-28.253,-9.533,8.453,24.51,-0.41568,0.483,0.33929,0.69186,148,0.865,-0.057,0.505,-0.427,1.343,-0.671,-6.542,-59.936,153.655,-22.88,-9.06,-19.673,28.12,-0.22461,-0.47467,0.1618,-0.83545,146,0.994,-0.025,-0.085,-3.052,0.061,0.244,-169.019,-85.078,-2.483,-31.567,-10.86,4.14,29.14,0.05649,-0.7345,-0.04935,-0.67438,150
37,0.977,-0.204,0.272,1.526,-1.404,0.488,-37.37,-71.219,-155.583,-28.62,-5.64,-9.253,26.21,0.02213,0.59409,-0.13965,0.79181,145,0.962,0.06,0.318,0.122,0.549,0.061,12.744,-71.746,-127.216,-28.253,-9.533,8.453,24.51,-0.41568,0.483,0.33929,0.69186,149,0.864,-0.057,0.506,-0.244,0.549,0.366,-6.542,-59.919,153.666,-22.88,-9.06,-19.673,28.12,-0.22461,-0.47467,0.1618,-0.83545,147,0.999,-0.037,-0.083,-2.197,-0.427,-0.61,-169.058,-85.078,-2.439,-31.567,-10.86,4.14,29.14,0.05649,-0.7345,-0.04935,-0.67438,151
38,0.969,-0.21,0.27,1.709,-0.732,0.61,-37.386,-71.224,-155.522,-28.62,-5.64,-9.253,26.21,0.02213,0.59409,-0.13965,0.79181,154,0.957,0.057,0.312,0.305,0.671,1.099,12.706,-71.735,-127.156,-28.253,-9.533,8.453,24.51,-0.41626,0.4816,0.33945,0.69241,152,0.862,-0.061,0.504,-0.488,0.061,1.648,-6.592,-59.914,153.726,-22.88,-9.06,-19.673,28.12,-0.22461,-0.47467,0.1618,-0.83545,158,0.994,-0.031,-0.085,0.793,0.0,-1.221,-169.233,-85.078,-2.241,-31.567,-10.86,4.14,29.14,0.05649,-0.7345,-0.04935,-0.67438,156
39,0.962,-0.207,0.272,0.549,-0.122,0.244,-37.392,-71.224,-155.5,-28.62,-5.64,-9.253,26.21,0.02213,0.59409,-0.13965,0.79181,155,0.955,0.07,0.315,0.916,2.136,1.465,12.612,-71.702,-127.035,-28.253,-9.533,8.453,24.51,-0.41626,0.4816,0.33945,0.69241,153,0.86,-0.061,0.495,-0.854,0.549,1.77,-6.663,-59.897,153.787,-22.88,-9.06,-19.673,28.12,-0.22461,-0.47467,0.1618,-0.83545,159,0.981,-0.014,-0.077,2.136,0.549,-0.916,-169.409,-85.084,-2.005,-31.567,-10.86,4.14,29.14,0.05649,-0.7345,-0.04935,-0.67438,157
40,0.961,-0.203,0.257,-1.16,-0.244,-0.366,-37.403,-71.224,-155.495,-28.62,-5.64,-9.253,26.21,0.01907,0.59427,-0.13766,0.79208,166,0.944,0.069,0.305,1.343,2.38,0.854,12.546,-71.658,-126.947,-28.253,-9.533,8.453,24.51,-0.41626,0.4816,0.33945,0.69241,162,0.851,-0.063,0.487,0.0,1.038,1.038,-6.707,-59.875,153.836,-22.88,-9.06,-19.673,28.12,-0.22461,-0.47467,0.1618,-0.83545,164,0.974,-0.012,-0.076,0.793,0.061,-0.183,-169.47,-85.095,-1.873,-31.567,-10.86,4.14,29.14,0.05649,-0.7345,-0.04935,-0.67438,160
41,0.962,-0.194,0.243,-1.587,-0.854,-0.793,-37.43,-71.246,-155.49,-28.62,-5.64,-9.253,26.21,0.01907,0.59427,-0.13766,0.79208,167,0.931,0.067,0.303,0.732,2.258,0.061,12.513,-71.62,-126.903,-28.253,-9.533,8.453,24.51,-0.41626,0.4816,0.33945,0.69241,163,0.836,-0.061,0.486,0.488,0.427,0.0,-6.707,-59.865,153.847,-22.88,-9.06,-19.673,28.12,-0.22461,-0.47467,0.1618,-0.83545,165,0.963,-0.011,-0.085,0.305,0.0,-0.122,-169.453,-85.1,-1.851,-31.567,-10.86,4.14,29.14,0.05649,-0.7345,-0.04935,-0.67438,161
42,0.966,-0.191,0.248,0.0,-1.892,-0.305,-37.474,-71.274,-155.418,-28.62,-5.64,-9.253,26.21,0.01907,0.59427,-0.13766,0.79208,172,0.935,0.063,0.308,0.244,1.648,-0.183,12.508,-71.581,-126.892,-28.253,-9.533,8.453,24.51,-0.41626,0.4816,0.33945,0.69241,170,0.846,-0.06,0.492,-0.305,0.793,-0.183,-6.702,-59.854,153.842,-22.88,-9.06,-19.673,28.12,-0.22461,-0.47467,0.1618,-0.83545,174,0.961,-0.012,-0.082,-0.549,0.0,-0.427,-169.47,-85.1,-1.802,-31.567,-10.86,4.14,29.14,0.05649,-0.7345,-0.04935,-0.67438,168
43,0.971,-0.206,0.244,1.221,-1.282,0.0,-37.507,-71.301,-155.325,-28.62,-5.64,-9.253,26.21,0.01907,0.59427,-0.13766,0.79208,173,0.947,0.07,0.311,0.427,0.305,-0.183,12.513,-71.57,-126.892,-28.253,-9.533,8.453,24.51,-0.41626,0.4816,0.33945,0.69241,171,0.857,-0.053,0.503,0.0,0.427,0.183,-6.702,-59.837,153.858,-22.88,-9.06,-19.673,28.12,-0.22461,-0.47467,0.1618,-0.83545,175,0.978,-0.021,-0.094,-0.732,-1.099,-0.366,-169.574,-85.1,-1.675,-31.567,-10.86,4.14,29.14,0.05649,-0.7345,-0.04935,-0.67438,169
44,0.978,-0.21,0.259,0.916,-1.16,-0.183,-37.535,-71.323,-155.264,-28.62,-5.64,-9.253,26.21,0.01907,0.59427,-0.13766,0.79208,176,0.965,0.067,0.315,0.427,-0.793,0.366,12.513,-71.576,-126.881,-28.253,-9.533,8.453,24.51,-0.41626,0.4816,0.33945,0.69241,180,0.87,-0.059,0.504,0.366,-0.916,0.793,-6.724,-59.848,153.918,-22.667,-8.9,-20.427,28.12,-0.22461,-0.47467,0.1618,-0.83545,182,0.996,-0.024,-0.092,1.099,-1.648,-0.427,-169.695,-85.073,-1.527,-31.567,-10.86,4.14,29.14,0.05649,-0.7345,-0.04935,-0.67438,178
45,0.979,-0.208,0.273,0.305,-0.854,0.0,-37.562,-71.334,-155.22,-28.62,-5.64,-9.253,26.21,0.01907,0.59427,-0.13766,0.79208,177,0.968,0.072,0.317,0.61,-2.014,0.549,12.513,-71.614,-126.859,-28.253,-9.533,8.453,24.51,-0.41626,0.4816,0.33945,0.69241,181,0.873,-0.058,0.511,0.427,-1.404,0.916,-6.746,-59.87,153.984,-22.667,-8.9,-20.427,28.12,-0.22461,-0.47467,0.1618,-0.83545,183,1.005,-0.006,-0.082,2.319,-1.465,-0.122,-169.788,-85.045,-1.395,-31.567,-10.86,4.14,29.14,0.05649,-0.7345,-0.04935,-0.67438,179
46,0.976,-0.202,0.271,-0.61,-0.122,0.183,-37.595,-71.34,-155.193,-28.62,-5.64,-9.253,26.21,0.01907,0.59427,-0.13766,0.79208,184,0.974,0.078,0.313,0.427,-1.587,0.183,12.53,-71.642,-126.854,-28.253,-9.533,8.453,24.51,-0.41626,0.4816,0.33945,0.69241,186,0.885,-0.054,0.496,0.122,-1.404,0.305,-6.762,-59.892,154.023,-22.667,-8.9,-20.427,28.12,-0.22308,-0.47412,0.16183,-0.83615,190,1.005,-0.005,-0.078,0.0,-2.319,0.549,-169.799,-85.007,-1.335,-31.567,-10.86,4.14,29.14,0.05649,-0.7345,-0.04935,-0.67438,188
47,0.974,-0.194,0.272,-0.366,0.122,-0.122,-37.595,-71.334,-155.16,-28.62,-5.64,-9.253,26.21,0.01907,0.59427,-0.13766,0.79208,185,0.983,0.076,0.307,0.427,-0.671,-0.122,12.557,-71.658,-126.865,-28.253,-9.533,8.453,24.51,-0.41626,0.4816,0.33945,0.69241,187,0.893,-0.053,0.494,-0.122,-0.793,-0.061,-6.768,-59.908,154.023,-22.667,-8.9,-20.427,28.12,-0.22308,-0.47412,0.16183,-0.83615,191,0.997,-0.016,-0.078,-0.916,-1.526,0.916,-169.722,-84.968,-1.39,-31.567,-10.86,4.14,29.14,0.05649,-0.7345,-0.04935,-0.67438,189
48,0.968,-0.188,0.268,0.061,0.244,-0.305,-37.573,-71.334,-155.149,-28.62,-5.64,-9.253,26.21,0.01907,0.59427,-0.13766,0.79208,198,0.973,0.079,0.309,0.244,-0.427,-0.427,12.596,-71.664,-126.892,-28.253,-9.533,8.453,24.51,-0.41626,0.4816,0.33945,0.69241,192,0.875,-0.053,0.495,0.0,-0.732,0.183,-6.773,-59.925,154.028,-22.667,-8.9,-20.427,28.12,-0.22308,-0.47412,0.16183,-0.83615,196,0.991,-0.01,-0.082,-0.488,-0.732,0.549,-169.618,-84.946,-1.467,-31.567,-10.86,4.14,29.14,0.05649,-0.7345,-0.04935,-0.67438,194
49,0.97,-0.19,0.268,0.183,-0.305,0.0,-37.568,-71.334,-155.132,-28.62,-5.64,-9.253,26.21,0.01907,0.59427,-0.13766,0.79208,199,0.948,0.074,0.31,-0.488,0.671,-0.549,12.618,-71.658,-126.925,-28.253,-9.533,8.453,24.51,-0.41626,0.4816,0.33945,0.69241,193,0.852,-0.053,0.496,0.122,-1.038,1.038,-6.795,-59.941,154.078,-22.667,-8.9,-20.427,28.12,-0.22308,-0.47412,0.16183,-0.83615,197,0.989,-0.017,-0.076,-0.732,-0.977,0.305,-169.574,-84.93,-1.483,-31.567,-10.86,4.14,29.14,0.05649,-0.7345,-0.04935,-0.67438,195
50,0.968,-0.2,0.26,0.366,0.244,0.183,-37.551,-71.329,-155.121,-28.62,-5.64,-9.253,26.21,0.01907,0.59427,-0.13766,0.79208,202,0.941,0.07,0.308,-1.16,1.892,-0.244,12.607,-71.625,-126.942,-28.253,-9.533,8.453,24.51,-0.41626,0.4816,0.33945,0.69241,206,0.848,-0.055,0.496,0.122,-1.404,1.526,-6.844,-59.969,154.133,-22.667,-8.9,-20.427,28.12,-0.22308,-0.47412,0.16183,-0.83615,204,0.985,-0.013,-0.089,-0.427,-0.916,0.366,-169.552,-84.913,-1.5,-31.507,-10.76,4.74,29.14,0.05649,-0.7345,-0.04935,-0.67438,200
51,0.961,-0.199,0.266,-0.183,0.122,0.0,-37.54,-71.329,-155.11,-28.62,-5.64,-9.253,26.21,0.01907,0.59427,-0.13766,0.79208,203,0.945,0.071,0.305,-0.854,1.221,0.0,12.579,-71.598,-126.942,-28.253,-9.533,8.453,24.51,-0.41626,0.4816,0.33945,0.69241,207,0.854,-0.055,0.494,-0.122,-1.404,1.221,-6.888,-59.991,154.193,-22.667,-8.9,-20.427,28.12,-0.22308,-0.47412,0.16183,-0.83615,205,0.975,-0.008,-0.086,-0.122,-0.305,0.061,-169.541,-84.908,-1.472,-31.507,-10.76,4.74,29.14,0.05649,-0.7345,-0.04935,-0.67438,201
52,0.955,-0.191,0.261,-0.916,-0.488,0.0,-37.557,-71.329,-155.089,-28.62,-5.64,-9.253,26.21,0.01907,0.59427,-0.13766,0.79208,212,0.938,0.074,0.307,-0.549,-0.061,-0.122,12.574,-71.592,-126.964,-27.98,-9.8,8.233,24.51,-0.41626,0.4816,0.33945,0.69241,210,0.846,-0.054,0.484,-0.366,-0.916,0.671,-6.921,-60.013,154.221,-22.667,-8.9,-20.427,28.12,-0.22308,-0.47412,0.16183,-0.83615,214,0.966,-0.009,-0.071,-0.366,0.0,0.0,-169.563,-84.908,-1.417,-31.507,-10.76,4.74,29.14,0.05649,-0.7345,-0.04935,-0.67438,208
53,0.964,-0.189,0.254,-1.831,-0.427,0.0,-37.595,-71.334,-155.061,-28.62,-5.64,-9.253,26.21,0.01907,0.59427,-0.13766,0.79208,213,0.937,0.074,0.306,-1.221,0.61,-0.427,12.579,-71.581,-126.996,-27.98,-9.8,8.233,24.51,-0.41626,0.4816,0.33945,0.69241,211,0.847,-0.054,0.482,-0.854,-0.305,0.061,-6.938,-60.018,154.215,-22.667,-8.9,-20.427,28.12,-0.22308,-0.47412,0.16183,-0.83615,215,0.966,-0.011,-0.075,-1.709,0.305,0.305,-169.563,-84.913,-1.39,-31.507,-10.76,4.74,29.14,0.05649,-0.7345,-0.04935,-0.67438,209
54,0.964,-0.195,0.242,-2.136,-1.16,-0.427,-37.65,-71.356,-155.039,-28.753,-5.833,-9.88,26.21,0.01907,0.59427,-0.13766,0.79208,216,0.939,0.069,0.305,-1.343,0.671,-0.366,12.574,-71.57,-127.024,-27.98,-9.8,8.233,24.51,-0.41626,0.4816,0.33945,0.69241,224,0.848,-0.056,0.488,-0.671,0.488,0.0,-6.943,-60.013,154.182,-22.667,-8.9,-20.427,28.12,-0.22308,-0.47412,0.16183,-0.83615,218,0.969,-0.012,-0.085,-3.784,-0.061,0.427,-169.547,-84.919,-1.417,-31.507,-10.76,4.74,29.14,0.0589,-0.73538,-0.05243,-0.67297,220
55,0.966,-0.195,0.25,-1.16,-1.77,-0.549,-37.705,-71.389,-155.012,-28.753,-5.833,-9.88,26.21,0.01907,0.59427,-0.13766,0.79208,217,0.941,0.071,0.312,-0.732,-0.122,-0.305,12.579,-71.565,-127.062,-27.98,-9.8,8.233,24.51,-0.41626,0.4816,0.33945,0.69241,225,0.848,-0.057,0.494,-0.244,0.183,0.488,-6.954,-60.007,154.166,-22.667,-8.9,-20.427,28.12,-0.22308,-0.47412,0.16183,-0.83615,219,0.974,-0.014,-0.084,-2.808,-0.427,0.244,-169.568,-84.913,-1.417,-31.507,-10.76,4.74,29.14,0.0589,-0.73538,-0.05243,-0.67297,221
56,0.972,-0.2,0.248,-0.427,-2.869,-0.183,-37.793,-71.433,-154.924,-28.753,-5.833,-9.88,26.21,0.01907,0.59427,-0.13766,0.79208,222,0.947,0.065,0.315,-0.61,0.366,-0.122,12.579,-71.559,-127.084,-27.98,-9.8,8.233,24.51,-0.41669,0.48065,0.33859,0.69324,230,0.854,-0.062,0.496,-0.183,0.244,0.488,-6.971,-60.002,154.149,-22.667,-8.9,-20.427,28.12,-0.22308,-0.47412,0.16183,-0.83615,228,0.979,-0.022,-0.079,-1.16,-0.427,-0.061,-169.618,-84.908,-1.368,-31.507,-10.76,4.74,29.14,0.0589,-0.73538,-0.05243,-0.67297,226
57,0.977,-0.205,0.242,-0.732,-3.418,-0.061,-37.925,-71.488,-154.814,-28.753,-5.833,-9.88,26.21,0.01907,0.59427,-0.13766,0.79208,223,0.947,0.057,0.313,-0.061,0.671,0.427,12.552,-71.548,-127.062,-27.98,-9.8,8.233,24.51,-0.41669,0.48065,0.33859,0.69324,231,0.853,-0.067,0.497,0.122,0.061,0.854,-6.993,-59.996,154.149,-22.667,-8.9,-20.427,28.12,-0.22308,-0.47412,0.16183,-0.83615,229,0.978,-0.027,-0.086,0.732,-0.793,-0.366,-169.695,-84.902,-1.28,-31.507,-10.76,4.74,29.14,0.0589,-0.73538,-0.05243,-0.67297,227
58,0.978,-0.203,0.248,-1.16,-2.075,-0.244,-38.024,-71.532,-154.748,-28.753,-5.833,-9.88,26.21,0.01788,0.59644,-0.13684,0.79065,238,0.943,0.067,0.317,0.305,0.305,0.549,12.519,-71.537,-127.029,-27.98,-9.8,8.233,24.51,-0.41669,0.48065,0.33859,0.69324,236,0.851,-0.062,0.5,0.427,-0.427,0.671,-7.009,-59.996,154.182,-22.667,-8.9,-20.427,28.12,-0.22308,-0.47412,0.16183,-0.83615,234,0.98,-0.015,-0.106,1.831,-1.526,-0.61,-169.81,-84.88,-1.11,-31.507,-10.76,4.74,29.14,0.0589,-0.73538,-0.05243,-0.67297,232
59,0.975,-0.197,0.261,-1.221,-0.549,-0.061,-38.079,-71.548,-154.726,-28.753,-5.833,-9.88,26.21,0.01788,0.59644,-0.13684,0.79065,239,0.957,0.076,0.316,0.366,0.061,0.244,12.508,-71.537,-127.013,-27.98,-9.8,8.233,24.51,-0.41669,0.48065,0.33859,0.69324,237,0.871,-0.055,0.501,0.549,-0.671,0.122,-7.009,-60.007,154.215,-22.667,-8.9,-20.427,28.12,-0.22308,-0.47412,0.16183,-0.83615,235,0.99,-0.008,-0.098,-0.305,-1.709,-0.366,-169.958,-84.853,-0.934,-31.507,-10.76,4.74,29.14,0.0589,-0.73538,-0.05243,-0.67297,233
60,0.969,-0.203,0.26,-0.916,-1.221,-0.061,-38.134,-71.565,-154.698,-28.753,-5.833,-9.88,26.21,0.01788,0.59644,-0.13684,0.79065,242,0.971,0.076,0.308,0.61,-1.404,0.122,12.524,-71.554,-127.024,-27.98,-9.8,8.233,24.51,-0.41669,0.48065,0.33859,0.69324,240,0.882,-0.053,0.496,0.488,-1.404,0.427,-7.009,-60.024,154.259,-22.653,-8.833,-20.113,28.12,-0.22308,-0.47412,0.16183,-0.83615,246,0.996,-0.012,-0.078,-1.343,-0.977,0.183,-170.052,-84.825,-0.846,-31.507,-10.76,4.74,29.14,0.0589,-0.73538,-0.05243,-0.67297,244
61,0.969,-0.208,0.256,-0.366,-1.953,-0.366,-38.194,-71.598,-154.638,-28.753,-5.833,-9.88,26.21,0.01788,0.59644,-0.13684,0.79065,243,0.97,0.067,0.309,0.916,-1.404,0.427,12.541,-71.581,-127.029,-27.98,-9.8,8.233,24.51,-0.41669,0.48065,0.33859,0.69324,241,0.872,-0.061,0.49,0.549,-1.526,0.854,-7.026,-60.051,154.336,-22.653,-8.833,-20.113,28.12,-0.22308,-0.47412,0.16183,-0.83615,247,0.992,-0.022,-0.08,-0.427,-0.427,0.305,-170.046,-84.809,-0.868,-31.507,-10.76,4.74,29.14,0.0589,-0.73538,-0.05243,-0.67297,245
62,0.972,-0.206,0.249,-0.061,-0.793,-0.61,-38.216,-71.62,-154.6,-28.753,-5.833,-9.88,26.21,0.01788,0.59644,-0.13684,0.79065,250,0.958,0.062,0.314,0.549,0.0,0.732,12.519,-71.592,-127.002,-27.98,-9.8,8.233,24.51,-0.41669,0.48065,0.33859,0.69324,252,0.866,-0.063,0.492,0.427,-1.038,2.014,-7.081,-60.068,154.44,-22.653,-8.833,-20.113,28.12,-0.22125,-0.47534,0.16263,-0.83578,254,0.986,-0.028,-0.099,0.977,-0.732,-0.183,-170.041,-84.798,-0.884,-31.507,-10.76,4.74,29.14,0.0589,-0.73538,-0.05243,-0.67297,248
63,0.973,-0.197,0.261,0.0,-0.244,-0.488,-38.205,-71.631,-154.572,-28.753,-5.833,-9.88,26.21,0.01788,0.59644,-0.13684,0.79065,251,0.954,0.062,0.309,-0.305,1.221,0.854,12.458,-71.576,-126.942,-27.98,-9.8,8.233,24.51,-0.41669,0.48065,0.33859,0.69324,253,0.864,-0.067,0.487,0.183,-0.854,1.953,-7.147,-60.079,154.539,-22.653,-8.833,-20.113,28.12,-0.22125,-0.47534,0.16263,-0.83578,255,0.983,-0.022,-0.1,0.549,-1.221,-0.427,-170.107,-84.781,-0.824,-31.507,-10.76,4.74,29.14,0.0589,-0.73538,-0.05243,-0.67297,249
64,0.966,-0.196,0.262,-0.366,-0.061,-0.427,-38.194,-71.636,-154.572,-28.753,-5.833,-9.88,26.21,0.01788,0.59644,-0.13684,0.79065,258,0.958,0.061,0.301,-0.549,0.488,0.916,12.382,-71.565,-126.876,-27.98,-9.8,8.233,24.51,-0.41669,0.48065,0.33859,0.69324,256,0.869,-0.067,0.483,-0.183,-0.61,1.77,-7.213,-60.09,154.6,-22.653,-8.833,-20.113,28.12,-0.22125,-0.47534,0.16263,-0.83578,262,0.987,-0.018,-0.084,0.0,-0.793,-0.183,-170.178,-84.76,-0.769,-31.507,-10.76,4.74,29.14,0.0589,-0.73538,-0.05243,-0.67297,260
65,0.962,-0.201,0.257,0.0,-0.61,-0.671,-38.183,-71.647,-154.578,-28.753,-5.833,-9.88,26.21,0.01788,0.59644,-0.13684,0.79065,259,0.958,0.062,0.304,0.0,-0.122,0.916,12.321,-71.57,-126.81,-27.98,-9.8,8.233,24.51,-0.41669,0.48065,0.33859,0.69324,257,0.868,-0.067,0.482,0.183,-0.244,2.625,-7.295,-60.09,154.688,-22.653,-8.833,-20.113,28.12,-0.22125,-0.47534,0.16263,-0.83578,263,0.982,-0.015,-0.081,0.916,0.122,-0.122,-170.173,-84.76,-0.769,-31.507,-10.76,4.74,29.14,0.0589,-0.73538,-0.05243,-0.67297,261
66,0.964,-0.194,0.246,0.122,-0.854,-0.427,-38.188,-71.669,-154.567,-28.753,-5.833,-9.88,26.21,0.01788,0.59644,-0.13684,0.79065,266,0.951,0.063,0.307,0.427,0.732,0.854,12.266,-71.565,-126.738,-27.98,-9.8,8.233,24.51,-0.41669,0.48065,0.33859,0.69324,264,0.859,-0.067,0.483,0.427,0.0,2.686,-7.377,-60.09,154.775,-22.653,-8.833,-20.113,28.12,-0.22125,-0.47534,0.16263,-0.83578,270,0.978,-0.015,-0.083,0.549,0.61,-0.183,-170.156,-84.771,-0.764,-31.507,-10.76,4.74,29.14,0.0589,-0.73538,-0.05243,-0.67297,268
67,0.97,-0.192,0.246,1.038,-0.854,0.061,-38.199,-71.68,-154.539,-28.753,-5.833,-9.88,26.21,0.01788,0.59644,-0.13684,0.79065,267,0.941,0.065,0.309,0.671,1.221,0.671,12.222,-71.548,-126.678,-27.98,-9.8,8.233,24.51,-0.41669,0.48065,0.33859,0.69324,265,0.846,-0.064,0.49,0.61,0.0,2.563,-7.46,-60.084,154.863,-22.653,-8.833,-20.113,28.12,-0.22125,-0.47534,0.16263,-0.83578,271,0.972,-0.02,-0.091,0.977,0.366,-0.061,-170.123,-84.781,-0.769,-31.507,-10.76,4.74,29.14,0.0589,-0.73538,-0.05243,-0.67297,269
68,0.976,-0.203,0.25,1.465,-0.427,0.488,-38.21,-71.68,-154.49,-28.753,-5.833,-9.88,26.21,0.01788,0.59644,-0.13684,0.79065,274,0.942,0.06,0.316,0.854,0.977,0.916,12.173,-71.537,-126.606,-27.98,-9.8,8.233,24.51,-0.41669,0.48065,0.33859,0.69324,278,0.855,-0.069,0.495,0.854,-0.244,2.441,-7.526,-60.084,154.946,-22.653,-8.833,-20.113,28.12,-0.22125,-0.47534,0.16263,-0.83578,276,0.98,-0.022,-0.098,2.441,-0.427,-0.061,-170.079,-84.776,-0.758,-31.273,-10.94,4.88,29.14,0.0589,-0.73538,-0.05243,-0.67297,272
69,0.976,-0.208,0.255,0.793,-0.488,-0.122,-38.21,-71.686,-154.479,-28.753,-5.833,-9.88,26.21,0.01788,0.59644,-0.13684,0.79065,275,0.958,0.055,0.304,0.732,1.343,1.343,12.09,-71.516,-126.502,-27.98,-9.8,8.233,24.51,-0.41669,0.48065,0.33859,0.69324,279,0.867,-0.073,0.485,0.854,-0.122,2.014,-7.586,-60.084,155.012,-22.653,-8.833,-20.113,28.12,-0.22125,-0.47534,0.16263,-0.83578,277,0.986,-0.023,-0.092,3.723,0.244,-0.427,-170.057,-84.776,-0.703,-31.273,-10.94,4.88,29.14,0.0589,-0.73538,-0.05243,-0.67297,273
70,0.979,-0.197,0.249,0.122,-0.122,-0.671,-38.183,-71.697,-154.506,-28.753,-5.833,-9.88,26.21,0.01788,0.59644,-0.13684,0.79065,284,0.963,0.073,0.307,1.282,0.122,1.282,12.03,-71.516,-126.403,-28.367,-9.193,8.687,24.51,-0.41669,0.48065,0.33859,0.69324,282,0.872,-0.062,0.496,0.977,-1.038,2.441,-7.652,-60.095,155.105,-22.653,-8.833,-20.113,28.12,-0.22125,-0.47534,0.16263,-0.83578,286,0.988,-0.007,-0.093,3.174,1.099,-0.854,-170.096,-84.798,-0.599,-31.273,-10.94,4.88,29.14,0.0589,-0.73538,-0.05243,-0.67297,280
71,0.98,-0.188,0.247,-0.122,0.488,-0.549,-38.139,-71.697,-154.561,-28.753,-5.833,-9.88,26.21,0.01788,0.59644,-0.13684,0.79065,285,0.949,0.079,0.32,0.854,0.305,0.488,12.014,-71.516,-126.365,-28.367,-9.193,8.687,24.51,-0.41669,0.48065,0.33859,0.69324,283,0.853,-0.062,0.498,0.0,-0.61,1.282,-7.701,-60.101,155.149,-22.653,-8.833,-20.113,28.12,-0.22125,-0.47534,0.16263,-0.83578,287,0.988,0.0,-0.09,1.465,0.61,-0.488,-170.151,-84.809,-0.522,-31.273,-10.94,4.88,29.14,0.0589,-0.73538,-0.05243,-0.67297,281
72,0.983,-0.193,0.247,0.305,1.16,-0.061,-38.09,-71.68,-154.638,-28.84,-6.373,-10.667,26.21,0.01788,0.59644,-0.13684,0.79065,288,0.944,0.073,0.319,-0.488,0.854,0.122,11.986,-71.499,-126.359,-28.367,-9.193,8.687,24.51,-0.41669,0.48065,0.33859,0.69324,290,0.853,-0.059,0.497,-0.61,-0.671,1.099,-7.751,-60.112,155.176,-22.653,-8.833,-20.113,28.12,-0.22125,-0.47534,0.16263,-0.83578,294,0.983,-0.009,-0.097,0.61,0.0,0.061,-170.162,-84.809,-0.505,-31.273,-10.94,4.88,29.14,0.06027,-0.7359,-0.05444,-0.67212,292
73,0.979,-0.204,0.25,0.671,1.587,-0.366,-38.002,-71.664,-154.737,-28.84,-6.373,-10.667,26.21,0.01788,0.59644,-0.13684,0.79065,289,0.942,0.069,0.31,-0.977,0.183,0.427,11.948,-71.494,-126.343,-28.367,-9.193,8.687,24.51,-0.41669,0.48065,0.33859,0.69324,291,0.85,-0.061,0.5,-0.793,-0.183,0.427,-7.784,-60.117,155.176,-22.653,-8.833,-20.113,28.12,-0.22125,-0.47534,0.16263,-0.83578,295,0.982,-0.018,-0.088,2.625,-0.427,0.061,-170.134,-84.803,-0.478,-31.273,-10.94,4.88,29.14,0.06027,-0.7359,-0.05444,-0.67212,293
74,0.973,-0.21,0.244,0.305,2.38,-0.977,-37.87,-71.636,-154.896,-28.84,-6.373,-10.667,26.21,0.01788,0.59644,-0.13684,0.79065,302,0.941,0.073,0.319,-0.549,-1.221,0.916,11.904,-71.521,-126.315,-28.367,-9.193,8.687,24.51,-0.41852,0.48044,0.33759,0.69278,296,0.848,-0.06,0.503,-0.549,-0.977,0.732,-7.817,-60.128,155.182,-21.667,-8.487,-20.34,28.12,-0.22125,-0.47534,0.16263,-0.83578,300,0.98,-0.023,-0.099,5.005,-1.709,0.183,-170.074,-84.771,-0.445,-31.273,-10.94,4.88,29.14,0.06027,-0.7359,-0.05444,-0.67212,298
75,0.967,-0.203,0.244,-0.061,2.686,-1.099,-37.733,-71.614,-155.072,-28.84,-6.373,-10.667,26.21,0.01788,0.59644,-0.13684,0.79065,303,0.94,0.07,0.32,-0.671,-1.16,1.221,11.838,-71.543,-126.26,-28.367,-9.193,8.687,24.51,-0.41852,0.48044,0.33759,0.69278,297,0.847,-0.063,0.494,-0.488,-1.343,1.038,-7.855,-60.145,155.22,-21.667,-8.487,-20.34,28.12,-0.22125,-0.47534,0.16263,-0.83578,301,0.973,-0.011,-0.104,2.625,-0.793,0.244,-170.002,-84.749,-0.423,-31.273,-10.94,4.88,29.14,0.06027,-0.7359,-0.05444,-0.67212,299
76,0.96,-0.191,0.25,-0.122,2.563,-1.099,-37.606,-71.587,-155.248,-28.84,-6.373,-10.667,26.21,0.01892,0.59732,-0.13657,0.79001,306,0.942,0.062,0.312,-0.671,-1.587,1.282,11.777,-71.576,-126.205,-28.367,-9.193,8.687,24.51,-0.41852,0.48044,0.33759,0.69278,304,0.854,-0.071,0.49,-0.793,-1.587,0.671,-7.899,-60.167,155.264,-21.667,-8.487,-20.34,28.12,-0.22125,-0.47534,0.16263,-0.83578,310,0.969,-0.01,-0.091,1.709,-1.526,0.366,-169.958,-84.716,-0.434,-31.273,-10.94,4.88,29.14,0.06027,-0.7359,-0.05444,-0.67212,308
77,0.962,-0.189,0.249,-0.122,2.136,-0.916,-37.496,-71.57,-155.391,-28.84,-6.373,-10.667,26.21,0.01892,0.59732,-0.13657,0.79001,307,0.947,0.064,0.312,-0.61,-2.38,0.977,11.739,-71.625,-126.178,-28.367,-9.193,8.687,24.51,-0.41852,0.48044,0.33759,0.69278,305,0.857,-0.069,0.491,-0.854,-1.587,0.244,-7.927,-60.194,155.308,-21.667,-8.487,-20.34,28.12,-0.22125,-0.47534,0.16263,-0.83578,311,0.972,-0.011,-0.086,0.977,-1.892,0.122,-169.98,-84.677,-0.417,-31.273,-10.94,4.88,29.14,0.06027,-0.7359,-0.05444,-0.67212,309
78,0.968,-0.19,0.254,-0.488,1.526,-0.732,-37.425,-71.559,-155.49,-28.84,-6.373,-10.667,26.21,0.01892,0.59732,-0.13657,0.79001,314,0.95,0.066,0.314,-0.427,-2.686,0.732,11.728,-71.675,-126.172,-28.367,-9.193,8.687,24.51,-0.41852,0.48044,0.33759,0.69278,318,0.858,-0.069,0.489,-0.122,-1.526,0.61,-7.954,-60.216,155.347,-21.667,-8.487,-20.34,28.12,-0.21851,-0.47577,0.16537,-0.83572,316,0.98,-0.016,-0.077,0.305,-2.197,0.122,-170.041,-84.633,-0.368,-31.273,-10.94,4.88,29.14,0.06027,-0.7359,-0.05444,-0.67212,312
79,0.965,-0.196,0.261,-0.427,1.099,-0.671,-37.37,-71.554,-155.577,-28.84,-6.373,-10.667,26.21,0.01892,0.59732,-0.13657,0.79001,315,0.957,0.062,0.311,0.122,-2.625,0.793,11.717,-71.724,-126.156,-28.367,-9.193,8.687,24.51,-0.41852,0.48044,0.33759,0.69278,319,0.869,-0.071,0.487,0.366,-1.16,0.732,-7.976,-60.233,155.402,-21.667,-8.487,-20.34,28.12,-0.21851,-0.47577,0.16537,-0.83572,317,0.984,-0.016,-0.083,-0.122,-2.625,0.244,-170.101,-84.589,-0.341,-31.273,-10.94,4.88,29.14,0.06027,-0.7359,-0.05444,-0.67212,313
80,0.965,-0.196,0.268,-0.183,1.099,-0.61,-37.31,-71.543,-155.654,-28.84,-6.373,-10.667,26.21,0.01892,0.59732,-0.13657,0.79001,324,0.967,0.062,0.307,0.732,-2.502,0.732,11.722,-71.774,-126.134,-28.367,-9.193,8.687,24.51,-0.41852,0.48044,0.33759,0.69278,322,0.878,-0.073,0.486,0.916,-1.282,0.427,-7.987,-60.255,155.446,-21.667,-8.487,-20.34,28.12,-0.21851,-0.47577,0.16537,-0.83572,326,0.987,-0.015,-0.085,0.061,-2.808,0.244,-170.156,-84.534,-0.308,-31.273,-10.94,4.88,29.14,0.06027,-0.7359,-0.05444,-0.67212,320
81,0.966,-0.19,0.271,-0.305,0.61,-0.488,-37.271,-71.537,-155.709,-28.84,-6.373,-10.667,26.21,0.01892,0.59732,-0.13657,0.79001,325,0.969,0.062,0.311,0.671,-2.136,0.427,11.739,-71.812,-126.129,-28.367,-9.193,8.687,24.51,-0.41852,0.48044,0.33759,0.69278,323,0.879,-0.071,0.485,0.671,-0.305,0.122,-7.982,-60.26,155.468,-21.667,-8.487,-20.34,28.12,-0.21851,-0.47577,0.16537,-0.83572,327,0.99,-0.016,-0.083,0.183,-2.625,0.122,-170.222,-84.485,-0.253,-31.273,-10.94,4.88,29.14,0.06027,-0.7359,-0.05444,-0.67212,321
82,0.967,-0.185,0.275,-0.366,0.0,-0.244,-37.26,-71.543,-155.737,-28.84,-6.373,-10.667,26.21,0.01892,0.59732,-0.13657,0.79001,330,0.969,0.062,0.309,0.0,-1.282,0.244,11.739,-71.834,-126.134,-28.367,-9.193,8.687,24.51,-0.41852,0.48044,0.33759,0.69278,332,0.874,-0.072,0.485,0.244,0.366,0.0,-7.971,-60.255,155.511,-21.667,-8.487,-20.34,28.12,-0.21851,-0.47577,0.16537,-0.83572,334,0.996,-0.015,-0.079,0.0,-2.014,-0.305,-170.338,-84.446,-0.143,-31.273,-10.94,4.88,29.14,0.06027,-0.7359,-0.05444,-0.67212,328
83,0.968,-0.188,0.269,-0.061,-0.916,-0.244,-37.271,-71.559,-155.737,-28.84,-6.373,-10.667,26.21,0.01892,0.59732,-0.13657,0.79001,331,0.958,0.066,0.307,0.0,-0.793,0.061,11.744,-71.845,-126.134,-28.367,-9.193,8.687,24.51,-0.41852,0.48044,0.33759,0.69278,333,0.862,-0.07,0.486,0.305,1.099,-0.183,-7.96,-60.238,155.528,-21.667,-8.487,-20.34,28.12,-0.21851,-0.47577,0.16537,-0.83572,335,0.992,-0.011,-0.073,0.0,-1.282,-0.366,-170.453,-84.43,-0.038,-31.273,-10.94,4.88,29.14,0.06027,-0.7359,-0.05444,-0.67212,329
84,0.969,-0.189,0.263,0.061,-1.343,-0.061,-37.299,-71.576,-155.715,-28.84,-6.373,-10.667,26.21,0.01892,0.59732,-0.13657,0.79001,338,0.952,0.066,0.309,0.183,-0.061,-0.427,11.772,-71.845,-126.14,-28.367,-9.193,8.687,24.51,-0.41852,0.48044,0.33759,0.69278,336,0.86,-0.067,0.487,0.305,1.526,-0.732,-7.927,-60.216,155.522,-21.667,-8.487,-20.34,28.12,-0.21851,-0.47577,0.16537,-0.83572,342,0.981,-0.011,-0.082,0.0,-1.221,-0.427,-170.585,-84.413,0.055,-31.273,-10.94,4.88,29.14,0.06027,-0.7359,-0.05444,-0.67212,340
85,0.963,-0.188,0.264,0.0,-1.587,0.122,-37.348,-71.598,-155.676,-28.84,-6.373,-10.667,26.21,0.01892,0.59732,-0.13657,0.79001,339,0.955,0.063,0.304,-0.183,0.671,-0.793,11.81,-71.829,-126.172,-28.367,-9.193,8.687,24.51,-0.41852,0.48044,0.33759,0.69278,337,0.867,-0.068,0.482,0.183,1.831,-1.343,-7.877,-60.183,155.484,-21.667,-8.487,-20.34,28.12,-0.21851,-0.47577,0.16537,-0.83572,343,0.978,-0.01,-0.094,-0.183,-1.282,-0.61,-170.76,-84.397,0.187,-31.273,-10.94,4.88,29.14,0.06027,-0.7359,-0.05444,-0.67212,341
86,0.963,-0.194,0.258,-0.122,-2.319,0.183,-37.43,-71.631,-155.61,-28.84,-6.373,-10.667,26.21,0.01892,0.59732,-0.13657,0.79001,346,0.958,0.066,0.299,-0.305,0.427,-1.099,11.865,-71.812,-126.227,-28.367,-9.193,8.687,24.51,-0.41852,0.48044,0.33759,0.69278,344,0.869,-0.065,0.484,0.183,1.709,-1.587,-7.811,-60.156,155.446,-21.667,-8.487,-20.34,28.12,-0.21851,-0.47577,0.16537,-0.83572,348,0.981,-0.009,-0.085,-1.099,-0.549,-0.427,-170.892,-84.397,0.258,-31.027,-11.2,3.973,29.14,0.06027,-0.7359,-0.05444,-0.67212,350
87,0.979,-0.202,0.251,0.183,-2.38,0.061,-37.502,-71.669,-155.522,-28.84,-6.373,-10.667,26.21,0.01892,0.59732,-0.13657,0.79001,347,0.957,0.067,0.304,-0.244,0.0,-1.343,11.942,-71.807,-126.31,-28.367,-9.193,8.687,24.51,-0.41852,0.48044,0.33759,0.69278,345,0.863,-0.063,0.487,0.0,1.77,-1.709,-7.745,-60.128,155.396,-21.667,-8.487,-20.34,28.12,-0.21851,-0.47577,0.16537,-0.83572,349,0.984,-0.015,-0.091,0.427,0.122,-0.305,-170.953,-84.402,0.308,-31.027,-11.2,3.973,29.14,0.06027,-0.7359,-0.05444,-0.67212,351
88,0.983,-0.204,0.248,0.488,-1.709,0.0,-37.551,-71.691,-155.451,-28.84,-6.373,-10.667,26.21,0.01892,0.59732,-0.13657,0.79001,352,0.954,0.065,0.307,-0.61,0.305,-1.16,11.997,-71.796,-126.37,-28.427,-9.16,8.24,24.51,-0.41852,0.48044,0.33759,0.69278,358,0.863,-0.062,0.487,-0.061,1.526,-1.282,-7.696,-60.106,155.347,-21.667,-8.487,-20.34,28.12,-0.21851,-0.47577,0.16537,-0.83572,356,0.986,-0.021,-0.111,0.793,0.122,-0.427,-171.024,-84.413,0.379,-31.027,-11.2,3.973,29.14,0.06027,-0.7359,-0.05444,-0.67212,354
89,0.977,-0.195,0.254,0.183,-1.221,-0.183,-37.579,-71.713,-155.418,-28.84,-6.373,-10.667,26.21,0.01892,0.59732,-0.13657,0.79001,353,0.959,0.065,0.298,-0.854,0.549,-0.732,12.014,-71.785,-126.409,-28.427,-9.16,8.24,24.51,-0.41852,0.48044,0.33759,0.69278,359,0.87,-0.062,0.484,-0.122,1.587,-1.221,-7.646,-60.084,155.286,-21.667,-8.487,-20.34,28.12,-0.21851,-0.47577,0.16537,-0.83572,357,0.984,-0.019,-0.102,0.305,0.061,-0.488,-171.112,-84.419,0.472,-31.027,-11.2,3.973,29.14,0.06027,-0.7359,-0.05444,-0.67212,355
90,0.967,-0.186,0.254,-0.183,-1.648,0.061,-37.639,-71.735,-155.358,-28.34,-6.273,-10.1,26.21,0.01892,0.59732,-0.13657,0.79001,366,0.96,0.067,0.3,-0.366,0.0,-0.549,12.041,-71.785,-126.453,-28.427,-9.16,8.24,24.51,-0.41779,0.48224,0.3385,0.69153,362,0.864,-0.063,0.485,-0.061,2.93,-0.977,-7.603,-60.04,155.226,-22.567,-8.893,-20.367,28.12,-0.21851,-0.47577,0.16537,-0.83572,364,0.982,-0.007,-0.089,0.793,0.549,-0.244,-171.129,-84.43,0.5,-31.027,-11.2,3.973,29.14,0.06015,-0.73822,-0.05502,-0.66956,360
91,0.96,-0.189,0.246,-0.061,-2.808,0.305,-37.755,-71.779,-155.248,-28.34,-6.273,-10.1,26.21,0.01892,0.59732,-0.13657,0.79001,367,0.95,0.058,0.301,-0.183,0.488,-0.427,12.057,-71.774,-126.475,-28.427,-9.16,8.24,24.51,-0.41779,0.48224,0.3385,0.69153,363,0.859,-0.073,0.476,-0.061,2.258,-0.61,-7.57,-59.996,155.171,-22.567,-8.893,-20.367,28.12,-0.21851,-0.47577,0.16537,-0.83572,365,0.979,-0.014,-0.08,0.549,0.732,0.0,-171.096,-84.446,0.483,-31.027,-11.2,3.973,29.14,0.06015,-0.73822,-0.05502,-0.66956,361
92,0.974,-0.197,0.239,0.427,-1.831,0.244,-37.82,-71.801,-155.176,-28.34,-6.273,-10.1,26.21,0.02087,0.59824,-0.13708,0.78915,372,0.947,0.054,0.303,-0.488,2.014,-0.427,12.041,-71.741,-126.475,-28.427,-9.16,8.24,24.51,-0.41779,0.48224,0.3385,0.69153,370,0.855,-0.07,0.487,0.061,2.136,-0.366,-7.548,-59.963,155.121,-22.567,-8.893,-20.367,28.12,-0.21835,-0.47455,0.16309,-0.83691,374,0.972,-0.025,-0.108,1.587,1.343,-0.549,-171.129,-84.479,0.538,-31.027,-11.2,3.973,29.14,0.06015,-0.73822,-0.05502,-0.66956,368
93,0.979,-0.203,0.25,0.305,-1.465,-0.183,-37.859,-71.829,-155.099,-28.34,-6.273,-10.1,26.21,0.02087,0.59824,-0.13708,0.78915,373,0.95,0.063,0.3,-0.244,1.16,-0.305,12.036,-71.719,-126.48,-28.427,-9.16,8.24,24.51,-0.41779,0.48224,0.3385,0.69153,371,0.854,-0.065,0.493,0.122,0.977,-0.183,-7.537,-59.941,155.078,-22.567,-8.893,-20.367,28.12,-0.21835,-0.47455,0.16309,-0.83691,375,0.979,-0.022,-0.11,1.709,0.916,-1.099,-171.277,-84.496,0.72,-31.027,-11.2,3.973,29.14,0.06015,-0.73822,-0.05502,-0.66956,369
94,0.972,-0.198,0.25,-0.793,-1.526,-0.61,-37.903,-71.862,-155.061,-28.34,-6.273,-10.1,26.21,0.02087,0.59824,-0.13708,0.78915,382,0.948,0.064,0.308,0.0,0.244,-0.122,12.036,-71.719,-126.486,-28.427,-9.16,8.24,24.51,-0.41779,0.48224,0.3385,0.69153,376,0.852,-0.063,0.495,0.0,1.038,0.122,-7.537,-59.925,155.061,-22.567,-8.893,-20.367,28.12,-0.21835,-0.47455,0.16309,-0.83691,378,0.979,-0.012,-0.096,1.465,0.793,-1.038,-171.42,-84.512,0.873,-31.027,-11.2,3.973,29.14,0.06015,-0.73822,-0.05502,-0.66956,380
95,0.975,-0.193,0.248,-1.404,0.0,-0.671,-37.897,-71.867,-155.094,-28.34,-6.273,-10.1,26.21,0.02087,0.59824,-0.13708,0.78915,383,0.952,0.067,0.315,0.122,0.488,0.0,12.03,-71.708,-126.475,-28.427,-9.16,8.24,24.51,-0.41779,0.48224,0.3385,0.69153,377,0.857,-0.066,0.501,0.366,1.221,0.061,-7.531,-59.908,155.061,-22.567,-8.893,-20.367,28.12,-0.21835,-0.47455,0.16309,-0.83691,379,0.984,-0.006,-0.104,0.0,0.427,-0.549,-171.519,-84.518,0.95,-31.027,-11.2,3.973,29.14,0.06015,-0.73822,-0.05502,-0.66956,381
96,0.971,-0.195,0.248,-0.732,0.244,-0.488,-37.881,-71.873,-155.116,-28.34,-6.273,-10.1,26.21,0.02087,0.59824,-0.13708,0.78915,388,0.957,0.066,0.311,0.366,0.183,-0.061,12.036,-71.708,-126.475,-28.427,-9.16,8.24,24.51,-0.41779,0.48224,0.3385,0.69153,386,0.862,-0.067,0.504,0.427,0.488,-0.244,-7.52,-59.897,155.05,-22.567,-8.893,-20.367,28.12,-0.21835,-0.47455,0.16309,-0.83691,390,0.987,-0.015,-0.094,-0.488,0.732,-0.488,-171.606,-84.534,1.027,-31.027,-11.2,3.973,29.14,0.06015,-0.73822,-0.05502,-0.66956,384
97,0.974,-0.2,0.248,0.122,0.0,-0.671,-37.842,-71.873,-155.143,-28.34,-6.273,-10.1,26.21,0.02087,0.59824,-0.13708,0.78915,389,0.955,0.065,0.312,0.305,-0.427,0.0,12.047,-71.713,-126.48,-28.427,-9.16,8.24,24.51,-0.41779,0.48224,0.3385,0.69153,387,0.857,-0.064,0.5,0.0,0.0,-0.122,-7.515,-59.897,155.028,-22.567,-8.893,-20.367,28.12,-0.21835,-0.47455,0.16309,-0.83691,391,0.984,-0.021,-0.092,0.183,0.854,-0.488,-171.672,-84.551,1.132,-31.027,-11.2,3.973,29.14,0.06015,-0.73822,-0.05502,-0.66956,385
98,0.973,-0.197,0.249,-0.549,0.305,-0.854,-37.815,-71.884,-155.193,-28.34,-6.273,-10.1,26.21,0.02087,0.59824,-0.13708,0.78915,398,0.949,0.065,0.315,-0.366,0.488,0.061,12.025,-71.702,-126.458,-28.427,-9.16,8.24,24.51,-0.41779,0.48224,0.3385,0.69153,394,0.852,-0.063,0.498,-0.61,0.366,0.061,-7.531,-59.886,155.012,-22.567,-8.893,-20.367,28.12,-0.21835,-0.47455,0.16309,-0.83691,396,0.979,-0.019,-0.088,0.793,0.366,-0.488,-171.727,-84.556,1.247,-31.027,-11.2,3.973,29.14,0.06015,-0.73822,-0.05502,-0.66956,392
99,0.966,-0.196,0.252,-0.488,0.427,-1.038,-37.771,-71.889,-155.275,-28.34,-6.273,-10.1,26.21,0.02087,0.59824,-0.13708,0.78915,399,0.946,0.062,0.309,-0.732,0.732,0.244,11.981,-71.691,-126.425,-28.427,-9.16,8.24,24.51,-0.41779,0.48224,0.3385,0.69153,395,0.854,-0.068,0.496,-0.671,-0.244,0.122,-7.548,-59.892,155.012,-22.567,-8.893,-20.367,28.12,-0.21835,-0.47455,0.16309,-0.83691,397,0.978,-0.021,-0.097,0.732,-0.366,-0.488,-171.804,-84.545,1.346,-31.027,-11.2,3.973,29.14,0.06015,-0.73822,-0.05502,-0.66956,393
100,0.968,-0.195,0.253,0.0,0.427,-1.099,-37.716,-71.895,-155.374,-28.34,-6.273,-10.1,26.21,0.02087,0.59824,-0.13708,0.78915,404,0.955,0.061,0.306,-0.61,0.244,0.366,11.942,-71.686,-126.387,-28.427,-9.16,8.24,24.51,-0.41779,0.48224,0.3385,0.69153,402,0.856,-0.07,0.492,-0.244,-0.793,0.122,-7.564,-59.908,155.034,-22.567,-8.893,-20.367,28.12,-0.21835,-0.47455,0.16309,-0.83691,406,0.979,-0.017,-0.098,0.0,-0.305,-0.61,-171.914,-84.54,1.439,-31.027,-11.2,3.973,29.14,0.06015,-0.73822,-0.05502,-0.66956,400
101,0.973,-0.187,0.25,0.061,-0.061,-0.732,-37.661,-71.9,-155.462,-28.34,-6.273,-10.1,26.21,0.02087,0.59824,-0.13708,0.78915,405,0.957,0.069,0.311,0.244,-0.366,-0.244,11.937,-71.691,-126.376,-28.427,-9.16,8.24,24.51,-0.41779,0.48224,0.3385,0.69153,403,0.866,-0.063,0.49,0.0,-0.61,-0.183,-7.559,-59.919,155.05,-22.567,-8.893,-20.367,28.12,-0.21835,-0.47455,0.16309,-0.83691,407,0.981,-0.009,-0.09,-0.305,0.0,-0.549,-172.013,-84.54,1.511,-31.027,-11.2,3.973,29.14,0.06015,-0.73822,-0.05502,-0.66956,401
102,0.979,-0.186,0.242,-0.122,-0.732,-0.488,-37.639,-71.911,-155.479,-28.34,-6.273,-10.1,26.21,0.02087,0.59824,-0.13708,0.78915,408,0.949,0.07,0.31,0.244,-0.061,-0.427,11.964,-71.697,-126.387,-28.427,-9.16,8.24,24.51,-0.41779,0.48224,0.3385,0.69153,414,0.86,-0.062,0.492,0.061,-0.061,-0.427,-7.548,-59.919,155.067,-22.567,-8.893,-20.367,28.12,-0.21835,-0.47455,0.16309,-0.83691,412,0.981,-0.009,-0.085,0.305,-0.061,-0.183,-172.068,-84.54,1.56,-31.027,-11.2,3.973,29.14,0.06015,-0.73822,-0.05502,-0.66956,410
103,0.979,-0.19,0.249,0.0,0.061,-0.549,-37.639,-71.927,-155.479,-28.34,-6.273,-10.1,26.21,0.02087,0.59824,-0.13708,0.78915,409,0.959,0.066,0.307,0.488,0.061,-0.122,11.992,-71.691,-126.409,-28.427,-9.16,8.24,24.51,-0.41779,0.48224,0.3385,0.69153,415,0.857,-0.06,0.493,0.488,0.0,-0.305,-7.526,-59.919,155.078,-22.567,-8.893,-20.367,28.12,-0.21835,-0.47455,0.16309,-0.83691,413,0.983,-0.01,-0.106,0.549,-0.427,-0.305,-172.106,-84.54,1.604,-31.027,-11.2,3.973,29.14,0.06015,-0.73822,-0.05502,-0.66956,411
104,0.975,-0.196,0.255,0.122,0.305,-0.61,-37.606,-71.933,-155.506,-28.34,-6.273,-10.1,26.21,0.02087,0.59824,-0.13708,0.78915,416,0.966,0.069,0.306,0.671,-0.61,0.183,12.008,-71.691,-126.409,-27.753,-9.153,8.627,24.51,-0.41779,0.48224,0.3385,0.69153,420,0.874,-0.061,0.495,0.671,-0.244,0.0,-7.509,-59.925,155.072,-22.54,-8.66,-20.227,28.12,-0.21835,-0.47455,0.16309,-0.83691,418,0.988,-0.009,-0.098,0.916,-0.244,-0.549,-172.183,-84.529,1.697,-31.64,-11.593,5.22,29.14,0.06015,-0.73822,-0.05502,-0.66956,422
105,0.968,-0.192,0.253,-0.305,-0.366,-0.793,-37.573,-71.944,-155.539,-28.34,-6.273,-10.1,26.21,0.02087,0.59824,-0.13708,0.78915,417,0.957,0.071,0.311,0.244,-0.366,0.366,12.014,-71.708,-126.398,-27.753,-9.153,8.627,24.51,-0.41779,0.48224,0.3385,0.69153,421,0.869,-0.057,0.495,0.427,-0.488,0.183,-7.509,-59.936,155.056,-22.54,-8.66,-20.227,28.12,-0.21835,-0.47455,0.16309,-0.83691,419,0.991,-0.01,-0.082,0.793,-0.061,-0.488,-172.288,-84.529,1.818,-31.64,-11.593,5.22,29.14,0.06015,-0.73822,-0.05502,-0.66956,423
106,0.966,-0.187,0.25,-0.732,-0.793,-0.977,-37.557,-71.96,-155.561,-28.34,-6.273,-10.1,26.21,0.02087,0.59824,-0.13708,0.78915,424,0.946,0.069,0.313,-0.244,0.732,0.244,12.003,-71.708,-126.376,-27.753,-9.153,8.627,24.51,-0.41779,0.48224,0.3385,0.69153,430,0.858,-0.06,0.494,0.0,-0.427,0.488,-7.52,-59.941,155.067,-22.54,-8.66,-20.227,28.12,-0.21863,-0.47443,0.16309,-0.83691,428,0.981,-0.011,-0.081,0.183,0.0,-0.305,-172.37,-84.529,1.912,-31.64,-11.593,5.22,29.14,0.06042,-0.73752,-0.0571,-0.67014,426
107,0.972,-0.187,0.242,-0.916,-0.732,-0.732,-37.557,-71.982,-155.588,-28.34,-6.273,-10.1,26.21,0.02087,0.59824,-0.13708,0.78915,425,0.939,0.074,0.308,-0.793,1.038,-0.061,11.975,-71.691,-126.359,-27.753,-9.153,8.627,24.51,-0.41779,0.48224,0.3385,0.69153,431,0.849,-0.062,0.495,-0.061,0.122,0.183,-7.526,-59.941,155.078,-22.54,-8.66,-20.227,28.12,-0.21863,-0.47443,0.16309,-0.83691,429,0.971,-0.005,-0.088,0.305,0.0,-0.366,-172.436,-84.529,2.005,-31.64,-11.593,5.22,29.14,0.06042,-0.73752,-0.0571,-0.67014,427
108,0.977,-0.189,0.252,-0.366,-0.061,-0.427,-37.557,-72.004,-155.61,-28.707,-6.12,-10.093,26.21,0.02087,0.59824,-0.13708,0.78915,436,0.948,0.076,0.311,-1.16,0.061,-0.488,11.97,-71.675,-126.37,-27.753,-9.153,8.627,24.51,-0.41818,0.48154,0.3381,0.69196,432,0.848,-0.059,0.496,-0.488,0.183,-0.366,-7.515,-59.936,155.061,-22.54,-8.66,-20.227,28.12,-0.21863,-0.47443,0.16309,-0.83691,434,0.978,-0.006,-0.098,0.0,-0.061,-0.122,-172.507,-84.534,2.115,-31.64,-11.593,5.22,29.14,0.06042,-0.73752,-0.0571,-0.67014,438
109,0.972,-0.192,0.261,0.305,-0.244,0.0,-37.546,-72.01,-155.627,-28.707,-6.12,-10.093,26.21,0.02087,0.59824,-0.13708,0.78915,437,0.961,0.071,0.309,-1.221,-0.977,-0.61,11.986,-71.675,-126.425,-27.753,-9.153,8.627,24.51,-0.41818,0.48154,0.3381,0.69196,433,0.863,-0.058,0.499,-1.099,0.061,-0.977,-7.498,-59.936,155.039,-22.54,-8.66,-20.227,28.12,-0.21863,-0.47443,0.16309,-0.83691,435,0.987,-0.007,-0.095,-0.122,0.122,0.244,-172.529,-84.534,2.164,-31.64,-11.593,5.22,29.14,0.06042,-0.73752,-0.0571,-0.67014,439
110,0.969,-0.195,0.257,0.366,-0.61,0.0,-37.551,-72.015,-155.643,-28.707,-6.12,-10.093,26.21,0.02347,0.599,-0.13712,0.78851,442,0.956,0.067,0.309,-0.488,-0.977,-0.244,12.019,-71.691,-126.486,-27.753,-9.153,8.627,24.51,-0.41818,0.48154,0.3381,0.69196,440,0.869,-0.059,0.493,-0.793,-0.183,-0.977,-7.476,-59.941,154.984,-22.54,-8.66,-20.227,28.12,-0.21863,-0.47443,0.16309,-0.83691,444,0.989,-0.009,-0.083,1.099,0.366,0.366,-172.485,-84.54,2.159,-31.64,-11.593,5.22,29.14,0.06042,-0.73752,-0.0571,-0.67014,446
111,0.975,-0.188,0.25,0.0,-0.732,-0.122,-37.562,-72.026,-155.654,-28.707,-6.12,-10.093,26.21,0.02347,0.599,-0.13712,0.78851,443,0.946,0.066,0.315,-0.488,0.0,0.122,12.036,-71.702,-126.513,-27.753,-9.153,8.627,24.51,-0.41818,0.48154,0.3381,0.69196,441,0.856,-0.06,0.495,-0.122,-0.244,0.0,-7.476,-59.947,154.962,-22.54,-8.66,-20.227,28.12,-0.21863,-0.47443,0.16309,-0.83691,445,0.984,-0.013,-0.084,1.282,0.183,0.366,-172.397,-84.545,2.104,-31.64,-11.593,5.22,29.14,0.06042,-0.73752,-0.0571,-0.67014,447
112,0.981,-0.182,0.242,-0.244,0.061,-0.061,-37.573,-72.032,-155.66,-28.707,-6.12,-10.093,26.21,0.02347,0.599,-0.13712,0.78851,454,0.945,0.076,0.313,-0.793,0.61,0.122,12.025,-71.697,-126.513,-27.753,-9.153,8.627,24.51,-0.41818,0.48154,0.3381,0.69196,448,0.849,-0.06,0.497,-0.122,-0.122,0.122,-7.476,-59.947,154.935,-22.54,-8.66,-20.227,28.12,-0.21863,-0.47443,0.16309,-0.83691,452,0.977,-0.013,-0.094,1.038,0.183,0.305,-172.31,-84.551,2.038,-31.64,-11.593,5.22,29.14,0.06042,-0.73752,-0.0571,-0.67014,450
113,0.977,-0.184,0.249,-0.061,0.0,0.366,-37.573,-72.032,-155.676,-28.707,-6.12,-10.093,26.21,0.02347,0.599,-0.13712,0.78851,455,0.954,0.073,0.309,-0.366,-0.549,0.061,12.008,-71.691,-126.519,-27.753,-9.153,8.627,24.51,-0.41818,0.48154,0.3381,0.69196,449,0.855,-0.054,0.502,-0.61,0.0,-0.244,-7.471,-59.947,154.902,-22.54,-8.66,-20.227,28.12,-0.21863,-0.47443,0.16309,-0.83691,453,0.979,-0.002,-0.101,0.916,-0.244,0.549,-172.227,-84.551,1.983,-31.64,-11.593,5.22,29.14,0.06042,-0.73752,-0.0571,-0.67014,451
114,0.969,-0.192,0.246,-0.122,-0.549,0.61,-37.595,-72.032,-155.665,-28.707,-6.12,-10.093,26.21,0.02347,0.599,-0.13712,0.78851,456,0.962,0.063,0.304,0.0,-1.038,0.305,12.014,-71.702,-126.53,-27.753,-9.153,8.627,24.51,-0.41818,0.48154,0.3381,0.69196,458,0.869,-0.06,0.491,-0.366,-0.488,-0.183,-7.465,-59.958,154.88,-22.54,-8.66,-20.227,28.12,-0.21863,-0.47443,0.16309,-0.83691,460,0.981,-0.005,-0.089,1.221,-0.427,0.732,-172.117,-84.545,1.89,-31.64,-11.593,5.22,29.14,0.06042,-0.73752,-0.0571,-0.67014,462
115,0.972,-0.196,0.242,-0.183,-0.427,0.427,-37.639,-72.032,-155.632,-28.707,-6.12,-10.093,26.21,0.02347,0.599,-0.13712,0.78851,457,0.957,0.069,0.306,0.122,-0.916,0.061,12.025,-71.719,-126.535,-27.753,-9.153,8.627,24.51,-0.41818,0.48154,0.3381,0.69196,459,0.869,-0.067,0.489,-0.427,-0.122,0.366,-7.482,-59.958,154.885,-22.54,-8.66,-20.227,28.12,-0.21863,-0.47443,0.16309,-0.83691,461,0.982,-0.014,-0.093,0.549,-0.61,0.549,-171.996,-84.534,1.785,-31.64,-11.593,5.22,29.14,0.06042,-0.73752,-0.0571,-0.67014,463
116,0.975,-0.19,0.25,-0.061,0.305,0.366,-37.667,-72.037,-155.616,-28.707,-6.12,-10.093,26.21,0.02347,0.599,-0.13712,0.78851,468,0.953,0.069,0.306,-0.305,-0.122,-0.183,12.041,-71.735,-126.557,-27.753,-9.153,8.627,24.51,-0.41818,0.48154,0.3381,0.69196,466,0.861,-0.062,0.49,-0.061,-0.854,0.0,-7.482,-59.974,154.874,-22.54,-8.66,-20.227,28.12,-0.21863,-0.47443,0.16309,-0.83691,470,0.982,-0.013,-0.102,0.244,-1.099,0.305,-171.936,-84.523,1.725,-31.64,-11.593,5.22,29.14,0.06042,-0.73752,-0.0571,-0.67014,464
117,0.979,-0.186,0.251,0.061,0.366,0.671,-37.678,-72.026,-155.627,-28.707,-6.12,-10.093,26.21,0.02347,0.599,-0.13712,0.78851,469,0.963,0.071,0.301,-0.61,-0.122,0.0,12.052,-71.735,-126.568,-27.753,-9.153,8.627,24.51,-0.41818,0.48154,0.3381,0.69196,467,0.866,-0.058,0.49,-0.122,-0.61,0.183,-7.487,-59.985,154.88,-22.54,-8.66,-20.227,28.12,-0.21863,-0.47443,0.16309,-0.83691,471,0.988,-0.01,-0.098,0.366,-0.854,0.244,-171.925,-84.501,1.719,-31.64,-11.593,5.22,29.14,0.06042,-0.73752,-0.0571,-0.67014,465
118,0.973,-0.189,0.254,0.0,-0.305,0.854,-37.7,-72.015,-155.61,-28.707,-6.12,-10.093,26.21,0.02347,0.599,-0.13712,0.78851,476,0.965,0.076,0.301,-0.488,-1.282,0.122,12.052,-71.741,-126.568,-27.753,-9.153,8.627,24.51,-0.41818,0.48154,0.3381,0.69196,474,0.873,-0.056,0.492,-0.305,-0.549,0.183,-7.498,-59.996,154.88,-22.873,-8.6,-20.547,28.12,-0.21863,-0.47443,0.16309,-0.83691,478,0.991,-0.005,-0.083,0.0,-0.122,0.671,-171.892,-84.485,1.675,-31.64,-11.593,5.22,29.14,0.06042,-0.73752,-0.0571,-0.67014,472
119,0.967,-0.192,0.247,-0.183,-0.977,0.854,-37.755,-72.015,-155.555,-28.707,-6.12,-10.093,26.21,0.02347,0.599,-0.13712,0.78851,477,0.949,0.072,0.317,-0.549,-0.916,0.305,12.057,-71.768,-126.573,-27.753,-9.153,8.627,24.51,-0.41818,0.48154,0.3381,0.69196,475,0.865,-0.055,0.495,-0.488,-0.671,0.122,-7.504,-60.013,154.874,-22.873,-8.6,-20.547,28.12,-0.21863,-0.47443,0.16309,-0.83691,479,0.984,-0.011,-0.084,0.122,-0.244,0.977,-171.771,-84.479,1.533,-31.64,-11.593,5.22,29.14,0.06042,-0.73752,-0.0571,-0.67014,473
120,0.97,-0.191,0.246,-0.427,-0.244,0.549,-37.82,-72.021,-155.506,-28.707,-6.12,-10.093,26.21,0.02347,0.599,-0.13712,0.78851,480,0.936,0.064,0.315,-1.526,1.465,0.366,12.036,-71.774,-126.546,-27.753,-9.153,8.627,24.51,-0.41818,0.48154,0.3381,0.69196,482,0.846,-0.062,0.496,-0.671,-0.244,0.549,-7.531,-60.013,154.885,-22.873,-8.6,-20.547,28.12,-0.21991,-0.4747,0.164,-0.83624,486,0.975,-0.017,-0.095,-0.061,-0.977,0.854,-171.612,-84.474,1.379,-31.64,-11.593,5.22,29.14,0.06042,-0.73752,-0.0571,-0.67014,484
121,0.971,-0.194,0.252,-0.305,-0.244,0.488,-37.859,-72.021,-155.511,-28.707,-6.12,-10.093,26.21,0.02347,0.599,-0.13712,0.78851,481,0.944,0.062,0.305,-1.587,1.16,0.305,11.975,-71.746,-126.497,-27.753,-9.153,8.627,24.51,-0.41818,0.48154,0.3381,0.69196,483,0.844,-0.067,0.492,-0.793,-0.366,0.549,-7.559,-60.018,154.929,-22.873,-8.6,-20.547,28.12,-0.21991,-0.4747,0.164,-0.83624,487,0.975,-0.017,-0.1,-0.244,-1.099,0.549,-171.524,-84.452,1.302,-31.64,-11.593,5.22,29.14,0.06042,-0.73752,-0.0571,-0.67014,485
122,0.971,-0.196,0.254,-0.122,-0.549,0.488,-37.892,-72.021,-155.528,-28.707,-6.12,-10.093,26.21,0.02347,0.599,-0.13712,0.78851,490,0.956,0.064,0.307,-0.732,-1.221,0.244,11.931,-71.735,-126.458,-27.753,-9.153,8.627,24.51,-0.41818,0.48154,0.3381,0.69196,488,0.861,-0.069,0.494,-0.732,-0.427,0.244,-7.581,-60.029,155.012,-22.873,-8.6,-20.547,28.12,-0.21991,-0.4747,0.164,-0.83624,494,0.98,-0.013,-0.088,0.0,-0.732,0.61,-171.453,-84.435,1.236,-31.353,-11.56,5.247,29.14,0.06042,-0.73752,-0.0571,-0.67014,492
123,0.97,-0.192,0.248,-0.183,-1.038,0.427,-37.941,-72.026,-155.522,-28.707,-6.12,-10.093,26.21,0.02347,0.599,-0.13712,0.78851,491,0.948,0.059,0.315,-0.183,-1.282,0.305,11.926,-71.757,-126.447,-27.753,-9.153,8.627,24.51,-0.41818,0.48154,0.3381,0.69196,489,0.857,-0.068,0.493,-0.61,-0.427,-0.061,-7.592,-60.035,155.089,-22.873,-8.6,-20.547,28.12,-0.21991,-0.4747,0.164,-0.83624,495,0.982,-0.012,-0.084,-0.122,-0.854,0.793,-171.348,-84.419,1.121,-31.353,-11.56,5.247,29.14,0.06042,-0.73752,-0.0571,-0.67014,493
124,0.969,-0.19,0.245,-0.122,-0.671,0.366,-37.991,-72.032,-155.473,-28.707,-6.12,-10.093,26.21,0.02347,0.599,-0.13712,0.78851,498,0.948,0.051,0.311,-0.061,0.305,0.549,11.915,-71.774,-126.431,-27.753,-9.153,8.627,24.51,-0.41818,0.48154,0.3381,0.69196,500,0.853,-0.072,0.488,-0.488,-0.183,0.61,-7.619,-60.035,155.193,-22.873,-8.6,-20.547,28.12,-0.21991,-0.4747,0.164,-0.83624,502,0.979,-0.015,-0.099,-0.671,-1.526,0.61,-171.26,-84.397,1.027,-31.353,-11.56,5.247,29.14,0.06042,-0.73752,-0.0571,-0.67014,496
125,0.971,-0.192,0.249,-0.244,-0.549,0.305,-38.035,-72.037,-155.435,-28.707,-6.12,-10.093,26.21,0.02347,0.599,-0.13712,0.78851,499,0.958,0.058,0.302,0.122,-0.122,0.427,11.876,-71.774,-126.381,-27.753,-9.153,8.627,24.51,-0.41818,0.48154,0.3381,0.69196,501,0.859,-0.077,0.49,0.0,0.061,0.671,-7.641,-60.029,155.292,-22.873,-8.6,-20.547,28.12,-0.21991,-0.4747,0.164,-0.83624,503,0.978,-0.021,-0.1,-0.366,-1.343,0.183,-171.244,-84.37,1.016,-31.353,-11.56,5.247,29.14,0.06042,-0.73752,-0.0571,-0.67014,497
126,0.973,-0.197,0.25,-0.732,-1.038,0.244,-38.073,-72.048,-155.396,-29.12,-6.047,-10.233,26.21,0.02347,0.599,-0.13712,0.78851,508,0.965,0.063,0.306,0.244,-1.038,0.0,11.86,-71.779,-126.365,-28.38,-9.333,8.78,24.51,-0.41818,0.48154,0.3381,0.69196,512,0.872,-0.073,0.488,-0.122,0.0,-0.305,-7.635,-60.029,155.33,-22.873,-8.6,-20.547,28.12,-0.21991,-0.4747,0.164,-0.83624,506,0.982,-0.021,-0.088,0.061,-0.916,0.244,-171.238,-84.348,1.038,-31.353,-11.56,5.247,29.14,0.0625,-0.73834,-0.0578,-0.66898,504
127,0.975,-0.2,0.248,-0.488,-1.221,0.366,-38.139,-72.059,-155.341,-29.12,-6.047,-10.233,26.21,0.02347,0.599,-0.13712,0.78851,509,0.96,0.061,0.311,0.305,-0.549,0.0,11.871,-71.796,-126.376,-28.38,-9.333,8.78,24.51,-0.41818,0.48154,0.3381,0.69196,513,0.873,-0.068,0.49,0.0,0.244,-0.244,-7.63,-60.024,155.358,-22.873,-8.6,-20.547,28.12,-0.21991,-0.4747,0.164,-0.83624,507,0.988,-0.017,-0.093,0.183,-1.038,0.427,-171.194,-84.326,1.022,-31.353,-11.56,5.247,29.14,0.0625,-0.73834,-0.0578,-0.66898,505
128,0.976,-0.197,0.246,-0.305,-0.854,0.244,-38.205,-72.076,-155.281,-29.12,-6.047,-10.233,26.21,0.02454,0.59964,-0.1395,0.78757,514,0.955,0.06,0.305,0.061,0.427,0.061,11.876,-71.801,-126.381,-28.38,-9.333,8.78,24.51,-0.41748,0.48273,0.33783,0.69168,518,0.861,-0.068,0.489,0.0,0.366,0.305,-7.646,-60.018,155.391,-22.873,-8.6,-20.547,28.12,-0.21991,-0.4747,0.164,-0.83624,516,0.984,-0.018,-0.1,-0.061,-0.916,0.305,-171.14,-84.309,1.005,-31.353,-11.56,5.247,29.14,0.0625,-0.73834,-0.0578,-0.66898,510
129,0.976,-0.195,0.245,-0.305,-0.671,0.183,-38.249,-72.081,-155.242,-29.12,-6.047,-10.233,26.21,0.02454,0.59964,-0.1395,0.78757,515,0.961,0.059,0.299,0.305,0.366,0.305,11.86,-71.796,-126.365,-28.38,-9.333,8.78,24.51,-0.41748,0.48273,0.33783,0.69168,519,0.865,-0.068,0.487,0.122,0.244,0.488,-7.663,-60.013,155.429,-22.873,-8.6,-20.547,28.12,-0.21991,-0.4747,0.164,-0.83624,517,0.981,-0.02,-0.1,-0.305,-0.854,0.183,-171.112,-84.293,0.972,-31.353,-11.56,5.247,29.14,0.0625,-0.73834,-0.0578,-0.66898,511
130,0.977,-0.195,0.248,-0.244,-0.671,0.061,-38.282,-72.092,-155.187,-29.12,-6.047,-10.233,26.21,0.02454,0.59964,-0.1395,0.78757,520,0.964,0.063,0.3,0.305,-0.122,0.488,11.832,-71.79,-126.337,-28.38,-9.333,8.78,24.51,-0.41748,0.48273,0.33783,0.69168,522,0.873,-0.068,0.487,0.183,0.305,0.549,-7.679,-60.007,155.462,-22.873,-8.6,-20.547,28.12,-0.21991,-0.4747,0.164,-0.83624,526,0.986,-0.02,-0.099,0.0,-0.61,0.122,-171.096,-84.282,0.917,-31.353,-11.56,5.247,29.14,0.0625,-0.73834,-0.0578,-0.66898,524
131,0.974,-0.194,0.249,0.0,-0.977,0.061,-38.32,-72.103,-155.132,-29.12,-6.047,-10.233,26.21,0.02454,0.59964,-0.1395,0.78757,521,0.959,0.062,0.308,0.122,0.305,0.244,11.81,-71.796,-126.304,-28.38,-9.333,8.78,24.51,-0.41748,0.48273,0.33783,0.69168,523,0.869,-0.068,0.487,0.0,0.366,0.305,-7.69,-60.002,155.479,-22.873,-8.6,-20.547,28.12,-0.21991,-0.4747,0.164,-0.83624,527,0.989,-0.016,-0.097,-0.061,-0.61,0.305,-171.057,-84.265,0.868,-31.353,-11.56,5.247,29.14,0.0625,-0.73834,-0.0578,-0.66898,525
132,0.97,-0.193,0.242,-0.061,-1.038,0.0,-38.353,-72.114,-155.056,-29.12,-6.047,-10.233,26.21,0.02454,0.59964,-0.1395,0.78757,528,0.953,0.059,0.311,-0.061,1.099,0.0,11.788,-71.785,-126.282,-28.38,-9.333,8.78,24.51,-0.41748,0.48273,0.33783,0.69168,534,0.862,-0.071,0.49,0.0,0.916,0.244,-7.696,-59.985,155.49,-22.873,-8.6,-20.547,28.12,-0.21991,-0.4747,0.164,-0.83624,532,0.981,-0.014,-0.093,0.0,-0.854,0.122,-171.024,-84.254,0.791,-31.353,-11.56,5.247,29.14,0.0625,-0.73834,-0.0578,-0.66898,530
133,0.969,-0.193,0.248,-0.671,-1.648,-0.061,-38.414,-72.136,-154.99,-29.12,-6.047,-10.233,26.21,0.02454,0.59964,-0.1395,0.78757,529,0.951,0.059,0.304,-0.183,1.465,-0.183,11.772,-71.763,-126.271,-28.38,-9.333,8.78,24.51,-0.41748,0.48273,0.33783,0.69168,535,0.858,-0.073,0.489,-0.061,1.343,0.122,-7.701,-59.963,155.5,-22.873,-8.6,-20.547,28.12,-0.21991,-0.4747,0.164,-0.83624,533,0.978,-0.017,-0.091,0.0,-0.854,0.0,-171.03,-84.238,0.758,-31.353,-11.56,5.247,29.14,0.0625,-0.73834,-0.0578,-0.66898,531
134,0.969,-0.194,0.238,-0.977,-1.892,-0.122,-38.491,-72.164,-154.924,-29.12,-6.047,-10.233,26.21,0.02454,0.59964,-0.1395,0.78757,540,0.944,0.064,0.304,0.0,0.916,-0.244,11.761,-71.741,-126.266,-28.38,-9.333,8.78,24.51,-0.41748,0.48273,0.33783,0.69168,538,0.853,-0.069,0.489,0.061,1.038,0.0,-7.701,-59.947,155.511,-22.56,-8.407,-19.78,28.12,-0.21991,-0.4747,0.164,-0.83624,542,0.975,-0.015,-0.092,-0.122,-0.427,0.0,-171.035,-84.227,0.742,-31.353,-11.56,5.247,29.14,0.0625,-0.73834,-0.0578,-0.66898,536
135,0.977,-0.195,0.241,-0.61,-1.099,-0.122,-38.557,-72.191,-154.874,-29.12,-6.047,-10.233,26.21,0.02454,0.59964,-0.1395,0.78757,541,0.953,0.067,0.314,-0.244,0.977,-0.61,11.766,-71.719,-126.288,-28.38,-9.333,8.78,24.51,-0.41748,0.48273,0.33783,0.69168,539,0.855,-0.064,0.494,0.0,0.977,-0.244,-7.69,-59.93,155.511,-22.56,-8.407,-19.78,28.12,-0.21991,-0.4747,0.164,-0.83624,543,0.977,-0.015,-0.105,-0.732,-0.671,0.122,-171.041,-84.221,0.725,-31.353,-11.56,5.247,29.14,0.0625,-0.73834,-0.0578,-0.66898,537
136,0.979,-0.194,0.246,0.0,-0.854,-0.183,-38.589,-72.208,-154.825,-29.12,-6.047,-10.233,26.21,0.02454,0.59964,-0.1395,0.78757,550,0.96,0.065,0.312,-0.549,0.61,-0.732,11.788,-71.702,-126.315,-28.38,-9.333,8.78,24.51,-0.41748,0.48273,0.33783,0.69168,548,0.864,-0.067,0.498,0.0,0.977,-0.61,-7.668,-59.914,155.506,-22.56,-8.407,-19.78,28.12,-0.21597,-0.47461,0.16235,-0.83762,546,0.984,-0.017,-0.105,-0.366,-0.61,0.122,-171.041,-84.205,0.72,-31.353,-11.56,5.247,29.14,0.0625,-0.73834,-0.0578,-0.66898,544
137,0.977,-0.193,0.251,0.0,-1.282,-0.244,-38.617,-72.224,-154.764,-29.12,-6.047,-10.233,26.21,0.02454,0.59964,-0.1395,0.78757,551,0.966,0.061,0.315,-0.183,-0.183,-0.61,11.81,-71.697,-126.343,-28.38,-9.333,8.78,24.51,-0.41748,0.48273,0.33783,0.69168,549,0.868,-0.067,0.503,-0.305,0.549,-0.488,-7.657,-59.908,155.5,-22.56,-8.407,-19.78,28.12,-0.21597,-0.47461,0.16235,-0.83762,547,0.991,-0.013,-0.096,0.427,-0.305,0.061,-171.035,-84.199,0.736,-31.353,-11.56,5.247,29.14,0.0625,-0.73834,-0.0578,-0.66898,545
138,0.973,-0.193,0.245,-0.671,-1.709,-0.244,-38.666,-72.252,-154.688,-29.12,-6.047,-10.233,26.21,0.02454,0.59964,-0.1395,0.78757,554,0.963,0.058,0.309,0.0,0.549,-0.427,11.832,-71.691,-126.365,-28.38,-9.333,8.78,24.51,-0.41748,0.48273,0.33783,0.69168,552,0.874,-0.072,0.493,-0.305,0.183,-0.305,-7.657,-59.903,155.49,-22.56,-8.407,-19.78,28.12,-0.21597,-0.47461,0.16235,-0.83762,558,0.993,-0.016,-0.083,0.732,-0.488,0.0,-171.024,-84.188,0.775,-31.353,-11.56,5.247,29.14,0.0625,-0.73834,-0.0578,-0.66898,556
139,0.973,-0.192,0.243,-0.61,-1.465,-0.305,-38.727,-72.279,-154.589,-29.12,-6.047,-10.233,26.21,0.02454,0.59964,-0.1395,0.78757,555,0.946,0.069,0.311,0.061,1.099,-0.488,11.843,-71.675,-126.387,-28.38,-9.333,8.78,24.51,-0.41748,0.48273,0.33783,0.69168,553,0.86,-0.068,0.493,-0.183,0.549,-0.183,-7.657,-59.892,155.479,-22.56,-8.407,-19.78,28.12,-0.21597,-0.47461,0.16235,-0.83762,559,0.981,-0.021,-0.095,0.122,-0.916,-0.122,-171.052,-84.177,0.84,-31.353,-11.56,5.247,29.14,0.0625,-0.73834,-0.0578,-0.66898,557
140,0.977,-0.193,0.242,-0.061,-0.854,-0.244,-38.76,-72.301,-154.517,-29.12,-6.047,-10.233,26.21,0.02454,0.59964,-0.1395,0.78757,566,0.945,0.073,0.315,-0.427,1.648,-1.038,11.865,-71.642,-126.425,-28.38,-9.333,8.78,24.51,-0.41748,0.48273,0.33783,0.69168,560,0.849,-0.061,0.496,0.244,0.488,-0.427,-7.635,-59.886,155.457,-22.56,-8.407,-19.78,28.26,-0.21597,-0.47461,0.16235,-0.83762,564,0.975,-0.014,-0.109,-0.488,-1.16,-0.244,-171.123,-84.155,0.934,-31.087,-11.34,5.7,29.14,0.0625,-0.73834,-0.0578,-0.66898,562
141,0.981,-0.196,0.243,-0.183,-0.793,-0.061,-38.782,-72.312,-154.479,-29.12,-6.047,-10.233,26.21,0.02454,0.59964,-0.1395,0.78757,567,0.949,0.07,0.31,-0.671,1.16,-0.854,11.893,-71.614,-126.469,-28.38,-9.333,8.78,24.51,-0.41748,0.48273,0.33783,0.69168,561,0.854,-0.058,0.501,0.122,0.366,-0.061,-7.63,-59.881,155.44,-22.56,-8.407,-19.78,28.26,-0.21597,-0.47461,0.16235,-0.83762,565,0.98,-0.013,-0.104,0.061,-0.977,-0.366,-171.216,-84.139,1.038,-31.087,-11.34,5.7,29.14,0.0625,-0.73834,-0.0578,-0.66898,563
142,0.975,-0.196,0.238,-0.61,-0.793,-0.061,-38.815,-72.323,-154.468,-28.747,-6.08,-10.013,26.21,0.02454,0.59964,-0.1395,0.78757,568,0.953,0.065,0.309,-0.122,-0.244,-0.244,11.915,-71.603,-126.508,-28.38,-9.333,8.78,24.51,-0.41748,0.48273,0.33783,0.69168,574,0.854,-0.06,0.5,0.183,-0.854,0.61,-7.646,-59.897,155.462,-22.56,-8.407,-19.78,28.26,-0.21597,-0.47461,0.16235,-0.83762,572,0.985,-0.014,-0.099,0.061,-0.244,-0.061,-171.255,-84.133,1.088,-31.087,-11.34,5.7,29.14,0.0625,-0.73834,-0.0578,-0.66898,570
143,0.977,-0.192,0.235,-0.488,-0.427,-0.183,-38.842,-72.334,-154.473,-28.747,-6.08,-10.013,26.21,0.02454,0.59964,-0.1395,0.78757,569,0.952,0.064,0.316,-0.183,-0.061,0.061,11.92,-71.603,-126.53,-28.38,-9.333,8.78,24.51,-0.41748,0.48273,0.33783,0.69168,575,0.857,-0.066,0.499,0.244,-1.831,0.977,-7.685,-59.925,155.484,-22.56,-8.407,-19.78,28.26,-0.21597,-0.47461,0.16235,-0.83762,573,0.981,-0.017,-0.104,-0.488,-1.038,0.122,-171.271,-84.117,1.121,-31.087,-11.34,5.7,29.14,0.0625,-0.73834,-0.0578,-0.66898,571
144,0.978,-0.19,0.236,-0.122,-0.122,-0.122,-38.848,-72.345,-154.501,-28.747,-6.08,-10.013,26.21,0.02454,0.59964,-0.1395,0.78757,580,0.953,0.067,0.313,-0.61,0.488,0.122,11.904,-71.598,-126.524,-27.907,-9.393,8.04,24.51,-0.41748,0.48273,0.33783,0.69168,578,0.862,-0.067,0.495,0.061,-1.587,1.038,-7.723,-59.952,155.517,-22.56,-8.407,-19.78,28.26,-0.21597,-0.47461,0.16235,-0.83762,582,0.978,-0.015,-0.104,-0.122,-1.465,-0.122,-171.326,-84.089,1.187,-31.087,-11.34,5.7,29.14,0.06302,-0.73975,-0.0582,-0.66733,576
145,0.971,-0.191,0.241,-0.244,-1.038,-0.061,-38.87,-72.356,-154.501,-28.747,-6.08,-10.013,26.21,0.02454,0.59964,-0.1395,0.78757,581,0.95,0.068,0.31,-0.793,0.244,0.0,11.882,-71.592,-126.519,-27.907,-9.393,8.04,24.51,-0.41748,0.48273,0.33783,0.69168,579,0.855,-0.064,0.491,-0.549,-0.732,0.61,-7.756,-59.963,155.539,-22.56,-8.407,-19.78,28.26,-0.21597,-0.47461,0.16235,-0.83762,583,0.978,-0.012,-0.094,0.061,-1.831,-0.305,-171.425,-84.056,1.269,-31.087,-11.34,5.7,29.14,0.06302,-0.73975,-0.0582,-0.66733,577
146,0.968,-0.193,0.239,-0.793,-1.709,-0.061,-38.93,-72.378,-154.462,-28.747,-6.08,-10.013,26.21,0.02356,0.60214,-0.1391,0.78577,592,0.943,0.065,0.312,-0.61,0.305,-0.305,11.876,-71.581,-126.524,-27.907,-9.393,8.04,24.51,-0.41748,0.48273,0.33783,0.69168,586,0.855,-0.07,0.49,-0.122,-0.488,0.366,-7.773,-59.974,155.555,-22.56,-8.407,-19.78,28.26,-0.21597,-0.47461,0.16235,-0.83762,588,0.978,-0.011,-0.088,-0.854,-2.197,-0.183,-171.535,-84.012,1.368,-31.087,-11.34,5.7,29.14,0.06302,-0.73975,-0.0582,-0.66733,584
147,0.973,-0.194,0.236,-0.854,-1.343,-0.244,-38.996,-72.405,-154.424,-28.747,-6.08,-10.013,26.21,0.02356,0.60214,-0.1391,0.78577,593,0.941,0.066,0.313,-0.671,0.854,-0.427,11.876,-71.57,-126.546,-27.907,-9.393,8.04,24.51,-0.41748,0.48273,0.33783,0.69168,587,0.853,-0.067,0.493,-0.061,-0.305,0.061,-7.773,-59.974,155.572,-22.56,-8.407,-19.78,28.26,-0.21597,-0.47461,0.16235,-0.83762,589,0.977,-0.014,-0.098,-1.16,-2.869,0.0,-171.645,-83.963,1.45,-31.087,-11.34,5.7,29.14,0.06302,-0.73975,-0.0582,-0.66733,585
148,0.977,-0.193,0.241,-0.305,-1.038,-0.244,-39.04,-72.427,-154.402,-28.747,-6.08,-10.013,26.21,0.02356,0.60214,-0.1391,0.78577,594,0.949,0.065,0.305,-0.488,0.549,-0.305,11.882,-71.554,-126.546,-27.907,-9.393,8.04,24.51,-0.4169,0.48169,0.33652,0.69339,598,0.854,-0.063,0.487,0.183,-0.916,0.366,-7.784,-59.991,155.605,-22.56,-8.407,-19.78,28.26,-0.21597,-0.47461,0.16235,-0.83762,596,0.979,-0.015,-0.113,-0.977,-2.747,-0.122,-171.76,-83.914,1.544,-31.087,-11.34,5.7,29.14,0.06302,-0.73975,-0.0582,-0.66733,590
149,0.977,-0.195,0.247,0.0,-0.854,-0.122,-39.067,-72.444,-154.385,-28.747,-6.08,-10.013,26.21,0.02356,0.60214,-0.1391,0.78577,595,0.96,0.063,0.311,-0.244,-0.671,0.0,11.882,-71.554,-126.546,-27.907,-9.393,8.04,24.51,-0.4169,0.48169,0.33652,0.69339,599,0.864,-0.064,0.493,-0.366,-0.61,0.0,-7.795,-60.002,155.621,-22.56,-8.407,-19.78,28.26,-0.21597,-0.47461,0.16235,-0.83762,597,0.98,-0.017,-0.111,-0.732,-1.831,0.0,-171.832,-83.875,1.604,-31.087,-11.34,5.7,29.14,0.06302,-0.73975,-0.0582,-0.66733,591
150,0.976,-0.194,0.245,-0.122,-1.16,-0.061,-39.1,-72.46,-154.369,-28.747,-6.08,-10.013,26.21,0.02356,0.60214,-0.1391,0.78577,600,0.965,0.062,0.314,-0.061,-0.793,0.122,11.887,-71.565,-126.541,-27.907,-9.393,8.04,24.51,-0.4169,0.48169,0.33652,0.69339,606,0.873,-0.07,0.493,-0.183,-0.488,0.061,-7.8,-60.007,155.632,-22.56,-8.407,-19.78,28.26,-0.21597,-0.47461,0.16235,-0.83762,604,0.989,-0.018,-0.1,0.183,-1.099,0.0,-171.865,-83.848,1.642,-31.087,-11.34,5.7,29.14,0.06302,-0.73975,-0.0582,-0.66733,602
151,0.976,-0.191,0.237,-0.549,-1.282,0.0,-39.15,-72.477,-154.358,-28.747,-6.08,-10.013,26.21,0.02356,0.60214,-0.1391,0.78577,601,0.962,0.065,0.312,0.183,-0.305,0.061,11.887,-71.576,-126.535,-27.907,-9.393,8.04,24.51,-0.4169,0.48169,0.33652,0.69339,607,0.872,-0.07,0.493,0.0,-0.183,0.244,-7.806,-60.013,155.643,-22.56,-8.407,-19.78,28.26,-0.21597,-0.47461,0.16235,-0.83762,605,0.991,-0.017,-0.094,0.0,-0.977,0.0,-171.887,-83.831,1.664,-31.087,-11.34,5.7,29.14,0.06302,-0.73975,-0.0582,-0.66733,603
152,0.977,-0.19,0.235,-0.244,-1.221,0.122,-39.205,-72.493,-154.336,-28.747,-6.08,-10.013,26.21,0.02356,0.60214,-0.1391,0.78577,610,0.953,0.069,0.312,0.305,0.427,-0.061,11.887,-71.576,-126.524,-27.907,-9.393,8.04,24.51,-0.4169,0.48169,0.33652,0.69339,608,0.869,-0.066,0.488,0.244,0.061,0.305,-7.811,-60.013,155.649,-22.56,-8.407,-19.78,28.26,-0.21597,-0.47461,0.16235,-0.83762,614,0.985,-0.01,-0.106,0.061,-1.038,0.0,-171.903,-83.815,1.697,-31.087,-11.34,5.7,29.14,0.06302,-0.73975,-0.0582,-0.66733,612
153,0.979,-0.195,0.235,-0.122,-1.038,0.244,-39.26,-72.51,-154.308,-28.747,-6.08,-10.013,26.21,0.02356,0.60214,-0.1391,0.78577,611,0.942,0.066,0.311,0.366,0.854,-0.183,11.898,-71.565,-126.508,-27.907,-9.393,8.04,24.51,-0.4169,0.48169,0.33652,0.69339,609,0.852,-0.064,0.489,1.221,0.0,0.793,-7.817,-60.007,155.676,-22.56,-8.407,-19.78,28.26,-0.21597,-0.47461,0.16235,-0.83762,615,0.977,-0.012,-0.109,0.183,-1.221,0.122,-171.914,-83.793,1.73,-31.087,-11.34,5.7,29.14,0.06302,-0.73975,-0.0582,-0.66733,613
154,0.974,-0.196,0.239,-0.244,-1.16,0.061,-39.309,-72.526,-154.325,-28.747,-6.08,-10.013,26.21,0.02356,0.60214,-0.1391,0.78577,618,0.946,0.063,0.309,0.183,0.793,0.0,11.898,-71.548,-126.486,-27.907,-9.393,8.04,24.51,-0.4169,0.48169,0.33652,0.69339,620,0.851,-0.066,0.49,0.61,0.427,0.183,-7.806,-60.002,155.671,-22.527,-8.453,-20.293,28.26,-0.21597,-0.47461,0.16235,-0.83762,622,0.978,-0.02,-0.106,0.122,-1.648,0.0,-171.947,-83.765,1.769,-31.087,-11.34,5.7,29.14,0.06302,-0.73975,-0.0582,-0.66733,616
155,0.968,-0.195,0.236,-0.549,-1.404,-0.061,-39.364,-72.543,-154.319,-28.747,-6.08,-10.013,26.21,0.02356,0.60214,-0.1391,0.78577,619,0.946,0.064,0.303,0.488,0.488,0.183,11.893,-71.532,-126.464,-27.907,-9.393,8.04,24.51,-0.4169,0.48169,0.33652,0.69339,621,0.856,-0.066,0.485,0.732,0.61,0.183,-7.795,-59.991,155.649,-22.527,-8.453,-20.293,28.26,-0.21597,-0.47461,0.16235,-0.83762,623,0.977,-0.015,-0.104,0.122,-1.404,-0.305,-172.018,-83.738,1.846,-31.087,-11.34,5.7,29.14,0.06302,-0.73975,-0.0582,-0.66733,617
156,0.974,-0.189,0.228,-0.61,-0.793,0.0,-39.413,-72.559,-154.303,-28.747,-6.08,-10.013,26.21,0.02356,0.60214,-0.1391,0.78577,626,0.946,0.07,0.311,0.61,0.244,0.122,11.887,-71.526,-126.442,-27.907,-9.393,8.04,24.51,-0.4169,0.48169,0.33652,0.69339,624,0.854,-0.064,0.487,0.549,0.732,0.183,-7.784,-59.974,155.627,-22.527,-8.453,-20.293,28.26,-0.21548,-0.47504,0.16269,-0.83743,630,0.973,-0.015,-0.107,-0.244,-1.282,-0.061,-172.068,-83.716,1.895,-31.087,-11.34,5.7,29.14,0.06302,-0.73975,-0.0582,-0.66733,628
157,0.981,-0.191,0.234,0.0,-0.366,0.122,-39.446,-72.57,-154.286,-28.747,-6.08,-10.013,26.21,0.02356,0.60214,-0.1391,0.78577,627,0.953,0.068,0.31,0.427,0.0,0.0,11.898,-71.526,-126.425,-27.907,-9.393,8.04,24.51,-0.4169,0.48169,0.33652,0.69339,625,0.858,-0.063,0.493,0.427,0.732,0.061,-7.773,-59.963,155.605,-22.527,-8.453,-20.293,28.26,-0.21548,-0.47504,0.16269,-0.83743,631,0.978,-0.01,-0.117,-0.305,-1.099,0.0,-172.106,-83.694,1.895,-31.087,-11.34,5.7,29.14,0.06302,-0.73975,-0.0582,-0.66733,629
158,0.984,-0.196,0.234,-0.244,-1.038,0.122,-39.479,-72.581,-154.248,-28.747,-6.08,-10.013,26.21,0.02356,0.60214,-0.1391,0.78577,634,0.957,0.065,0.309,0.61,-0.977,0.305,11.909,-71.537,-126.409,-27.907,-9.393,8.04,24.51,-0.4169,0.48169,0.33652,0.69339,638,0.864,-0.066,0.494,0.427,0.366,0.244,-7.767,-59.958,155.605,-22.527,-8.453,-20.293,28.26,-0.21548,-0.47504,0.16269,-0.83743,636,0.983,-0.012,-0.111,-0.183,-0.244,0.122,-172.095,-83.688,1.851,-30.9,-11.22,4.86,29.14,0.06302,-0.73975,-0.0582,-0.66733,632
159,0.979,-0.197,0.23,-0.305,-0.793,0.183,-39.529,-72.592,-154.199,-28.747,-6.08,-10.013,26.21,0.02356,0.60214,-0.1391,0.78577,635,0.956,0.066,0.313,0.366,-0.61,0.366,11.909,-71.554,-126.392,-27.907,-9.393,8.04,24.51,-0.4169,0.48169,0.33652,0.69339,639,0.864,-0.066,0.493,0.427,0.061,0.305,-7.767,-59.952,155.605,-22.527,-8.453,-20.293,28.26,-0.21548,-0.47504,0.16269,-0.83743,637,0.987,-0.015,-0.112,0.122,-0.366,0.183,-172.073,-83.683,1.791,-30.9,-11.22,4.86,29.14,0.06302,-0.73975,-0.0582,-0.66733,633
160,0.974,-0.194,0.23,-0.305,0.0,0.061,-39.556,-72.598,-154.155,-28.813,-6.093,-9.253,26.21,0.02356,0.60214,-0.1391,0.78577,644,0.953,0.068,0.312,-0.061,0.061,0.305,11.898,-71.559,-126.37,-28.14,-9.36,8.513,24.51,-0.4169,0.48169,0.33652,0.69339,642,0.86,-0.065,0.492,-0.122,0.366,0.305,-7.778,-59.947,155.577,-22.527,-8.453,-20.293,28.26,-0.21548,-0.47504,0.16269,-0.83743,640,0.981,-0.018,-0.114,-0.244,-0.61,0.183,-172.068,-83.666,1.725,-30.9,-11.22,4.86,29.14,0.06302,-0.73975,-0.0582,-0.66733,646
161,0.974,-0.193,0.236,-0.183,0.122,0.061,-39.562,-72.598,-154.149,-28.813,-6.093,-9.253,26.21,0.02356,0.60214,-0.1391,0.78577,645,0.953,0.068,0.311,-0.061,0.122,0.244,11.882,-71.559,-126.348,-28.14,-9.36,8.513,24.51,-0.4169,0.48169,0.33652,0.69339,643,0.858,-0.064,0.494,-0.183,0.305,0.061,-7.778,-59.941,155.555,-22.527,-8.453,-20.293,28.26,-0.21548,-0.47504,0.16269,-0.83743,641,0.978,-0.014,-0.117,-0.183,-0.671,0.122,-172.068,-83.65,1.692,-30.9,-11.22,4.86,29.14,0.06302,-0.73975,-0.0582,-0.66733,647
162,0.98,-0.194,0.239,-0.122,-0.244,0.0,-39.573,-72.598,-154.149,-28.813,-6.093,-9.253,26.21,0.02356,0.60214,-0.1391,0.78577,652,0.962,0.057,0.304,0.0,0.0,0.427,11.865,-71.559,-126.326,-28.14,-9.36,8.513,24.51,-0.4169,0.48169,0.33652,0.69339,654,0.869,-0.069,0.488,0.0,0.305,0.0,-7.778,-59.936,155.55,-22.527,-8.453,-20.293,28.26,-0.21548,-0.47504,0.16269,-0.83743,650,0.983,-0.018,-0.106,0.244,-0.244,0.122,-172.046,-83.644,1.675,-30.9,-11.22,4.86,29.14,0.06134,-0.74258,-0.05707,-0.66443,648
163,0.976,-0.196,0.233,0.0,-0.061,-0.122,-39.573,-72.603,-154.16,-28.813,-6.093,-9.253,26.21,0.02356,0.60214,-0.1391,0.78577,653,0.96,0.061,0.308,0.0,-0.305,0.305,11.843,-71.565,-126.304,-28.14,-9.36,8.513,24.51,-0.4169,0.48169,0.33652,0.69339,655,0.855,-0.078,0.484,-0.305,0.854,0.0,-7.778,-59.925,155.577,-22.527,-8.453,-20.293,28.26,-0.21548,-0.47504,0.16269,-0.83743,651,0.985,-0.021,-0.105,0.549,0.0,0.061,-172.018,-83.644,1.67,-30.9,-11.22,4.86,29.14,0.06134,-0.74258,-0.05707,-0.66443,649
164,0.973,-0.19,0.234,0.0,0.0,-0.061,-39.567,-72.603,-154.171,-28.813,-6.093,-9.253,26.21,0.02579,0.60394,-0.14133,0.78391,656,0.945,0.069,0.312,0.0,0.0,-0.183,11.849,-71.57,-126.315,-28.14,-9.36,8.513,24.51,-0.41815,0.48111,0.33731,0.69266,662,0.848,-0.064,0.496,-0.061,0.916,0.0,-7.778,-59.908,155.594,-22.527,-8.453,-20.293,28.26,-0.21548,-0.47504,0.16269,-0.83743,660,0.981,-0.013,-0.11,0.244,0.183,-0.061,-172.013,-83.644,1.675,-30.9,-11.22,4.86,29.14,0.06134,-0.74258,-0.05707,-0.66443,658
165,0.976,-0.19,0.23,0.0,0.122,0.0,-39.562,-72.603,-154.188,-28.813,-6.093,-9.253,26.21,0.02579,0.60394,-0.14133,0.78391,657,0.944,0.063,0.315,0.183,0.732,-0.061,11.854,-71.559,-126.326,-28.14,-9.36,8.513,24.51,-0.41815,0.48111,0.33731,0.69266,663,0.854,-0.068,0.496,0.244,0.793,0.183,-7.778,-59.897,155.588,-22.527,-8.453,-20.293,28.26,-0.21548,-0.47504,0.16269,-0.83743,661,0.974,-0.011,-0.11,0.0,-0.305,0.061,-172.013,-83.639,1.664,-30.9,-11.22,4.86,29.14,0.06134,-0.74258,-0.05707,-0.66443,659
166,0.979,-0.197,0.234,-0.122,0.183,0.0,-39.556,-72.603,-154.204,-28.813,-6.093,-9.253,26.21,0.02579,0.60394,-0.14133,0.78391,666,0.95,0.062,0.308,0.183,0.0,0.244,11.843,-71.554,-126.315,-28.14,-9.36,8.513,24.51,-0.41815,0.48111,0.33731,0.69266,672,0.854,-0.069,0.5,0.366,0.183,0.122,-7.773,-59.881,155.583,-22.527,-8.453,-20.293,28.26,-0.21548,-0.47504,0.16269,-0.83743,668,0.977,-0.017,-0.115,0.183,0.0,0.061,-171.996,-83.639,1.653,-30.9,-11.22,4.86,29.14,0.06134,-0.74258,-0.05707,-0.66443,664
167,0.973,-0.198,0.236,-0.061,0.0,0.0,-39.562,-72.603,-154.226,-28.813,-6.093,-9.253,26.21,0.02579,0.60394,-0.14133,0.78391,667,0.947,0.065,0.317,0.61,-1.099,0.366,11.843,-71.57,-126.315,-28.14,-9.36,8.513,24.51,-0.41815,0.48111,0.33731,0.69266,673,0.849,-0.065,0.499,0.061,0.732,0.061,-7.773,-59.875,155.566,-22.527,-8.453,-20.293,28.26,-0.21548,-0.47504,0.16269,-0.83743,669,0.983,-0.017,-0.109,0.122,0.427,0.061,-171.974,-83.644,1.648,-30.9,-11.22,4.86,29.14,0.06134,-0.74258,-0.05707,-0.66443,665
168,0.97,-0.191,0.234,0.0,0.061,0.0,-39.556,-72.603,-154.237,-28.813,-6.093,-9.253,26.21,0.02579,0.60394,-0.14133,0.78391,670,0.942,0.069,0.321,-0.061,-0.305,0.183,11.838,-71.581,-126.304,-28.14,-9.36,8.513,24.51,-0.41815,0.48111,0.33731,0.69266,676,0.848,-0.066,0.495,-0.183,1.099,0.061,-7.767,-59.859,155.566,-22.087,-8.833,-20.5,28.26,-0.21548,-0.47504,0.16269,-0.83743,678,0.978,-0.014,-0.105,0.305,0.122,0.183,-171.931,-83.644,1.631,-30.9,-11.22,4.86,29.14,0.06134,-0.74258,-0.05707,-0.66443,674
169,0.97,-0.188,0.23,-0.183,-0.183,0.0,-39.567,-72.609,-154.248,-28.813,-6.093,-9.253,26.21,0.02579,0.60394,-0.14133,0.78391,671,0.941,0.062,0.312,-0.122,0.061,0.244,11.821,-71.581,-126.277,-28.14,-9.36,8.513,24.51,-0.41815,0.48111,0.33731,0.69266,677,0.853,-0.071,0.495,0.183,0.916,0.366,-7.773,-59.837,155.577,-22.087,-8.833,-20.5,28.26,-0.21548,-0.47504,0.16269,-0.83743,679,0.97,-0.014,-0.101,0.427,-0.122,0.305,-171.876,-83.644,1.599,-30.9,-11.22,4.86,29.14,0.06134,-0.74258,-0.05707,-0.66443,675
170,0.973,-0.191,0.234,-0.122,0.061,0.0,-39.567,-72.609,-154.259,-28.813,-6.093,-9.253,26.21,0.02579,0.60394,-0.14133,0.78391,682,0.949,0.062,0.309,0.122,-0.61,0.366,11.805,-71.587,-126.249,-28.14,-9.36,8.513,24.51,-0.41815,0.48111,0.33731,0.69266,680,0.86,-0.069,0.5,0.244,0.244,0.183,-7.773,-59.821,155.588,-22.087,-8.833,-20.5,28.26,-0.21585,-0.47379,0.1626,-0.83807,686,0.97,-0.015,-0.107,0.427,-0.366,0.122,-171.854,-83.633,1.599,-30.9,-11.22,4.86,29.14,0.06134,-0.74258,-0.05707,-0.66443,684
171,0.979,-0.196,0.236,-0.183,-0.183,0.0,-39.578,-72.614,-154.248,-28.813,-6.093,-9.253,26.21,0.02579,0.60394,-0.14133,0.78391,683,0.956,0.065,0.315,0.0,-1.038,0.183,11.805,-71.603,-126.244,-28.14,-9.36,8.513,24.51,-0.41815,0.48111,0.33731,0.69266,681,0.866,-0.069,0.498,-0.061,-0.122,0.0,-7.778,-59.815,155.61,-22.087,-8.833,-20.5,28.26,-0.21585,-0.47379,0.1626,-0.83807,687,0.979,-0.015,-0.107,0.0,-0.244,-0.061,-171.876,-83.628,1.62,-30.9,-11.22,4.86,29.14,0.06134,-0.74258,-0.05707,-0.66443,685
172,0.982,-0.197,0.237,-0.488,-0.305,0.0,-39.595,-72.614,-154.237,-28.813,-6.093,-9.253,26.21,0.02579,0.60394,-0.14133,0.78391,692,0.963,0.062,0.312,-0.061,-0.977,0.122,11.805,-71.62,-126.238,-28.14,-9.36,8.513,24.51,-0.41815,0.48111,0.33731,0.69266,690,0.869,-0.073,0.495,-0.305,0.671,0.183,-7.778,-59.81,155.649,-22.087,-8.833,-20.5,28.26,-0.21585,-0.47379,0.1626,-0.83807,694,0.988,-0.018,-0.105,0.183,0.0,0.0,-171.87,-83.628,1.615,-30.9,-11.22,4.86,29.14,0.06134,-0.74258,-0.05707,-0.66443,688
173,0.977,-0.194,0.238,-0.366,-0.427,0.0,-39.617,-72.625,-154.221,-28.813,-6.093,-9.253,26.21,0.02579,0.60394,-0.14133,0.78391,693,0.962,0.062,0.313,0.0,-0.549,0.122,11.799,-71.631,-126.227,-28.14,-9.36,8.513,24.51,-0.41815,0.48111,0.33731,0.69266,691,0.862,-0.071,0.493,0.061,0.671,0.0,-7.789,-59.799,155.671,-22.087,-8.833,-20.5,28.26,-0.21585,-0.47379,0.1626,-0.83807,695,0.99,-0.016,-0.108,0.061,-0.183,-0.183,-171.903,-83.628,1.637,-30.9,-11.22,4.86,29.14,0.06134,-0.74258,-0.05707,-0.66443,689
174,0.972,-0.194,0.236,-0.183,-0.305,0.0,-39.639,-72.631,-154.193,-28.813,-6.093,-9.253,26.21,0.02579,0.60394,-0.14133,0.78391,700,0.954,0.067,0.309,0.183,-0.061,-0.244,11.81,-71.636,-126.233,-28.14,-9.36,8.513,24.51,-0.41815,0.48111,0.33731,0.69266,698,0.857,-0.063,0.494,0.244,0.916,-0.488,-7.778,-59.782,155.687,-22.087,-8.833,-20.5,28.26,-0.21585,-0.47379,0.1626,-0.83807,702,0.982,-0.012,-0.106,0.061,-0.427,-0.183,-171.947,-83.622,1.67,-30.9,-11.22,4.86,29.14,0.06134,-0.74258,-0.05707,-0.66443,696
175,0.978,-0.194,0.234,0.0,0.0,0.0,-39.639,-72.631,-154.171,-28.813,-6.093,-9.253,26.21,0.02579,0.60394,-0.14133,0.78391,701,0.954,0.068,0.307,0.244,0.0,-0.305,11.832,-71.631,-126.249,-28.14,-9.36,8.513,24.51,-0.41815,0.48111,0.33731,0.69266,699,0.867,-0.064,0.496,0.244,1.16,-0.305,-7.756,-59.766,155.682,-22.087,-8.833,-20.5,28.26,-0.21585,-0.47379,0.1626,-0.83807,703,0.984,-0.016,-0.107,-0.366,-0.427,0.0,-171.964,-83.611,1.664,-30.9,-11.22,4.86,29.14,0.06134,-0.74258,-0.05707,-0.66443,697
176,0.981,-0.199,0.237,0.122,0.061,0.0,-39.633,-72.631,-154.171,-28.813,-6.093,-9.253,26.21,0.02579,0.60394,-0.14133,0.78391,704,0.961,0.063,0.306,0.427,-0.366,0.061,11.843,-71.636,-126.26,-28.14,-9.36,8.513,24.51,-0.41815,0.48111,0.33731,0.69266,710,0.867,-0.067,0.494,0.305,0.61,0.183,-7.74,-59.744,155.687,-22.087,-8.833,-20.5,28.26,-0.21585,-0.47379,0.1626,-0.83807,708,0.988,-0.02,-0.109,0.122,0.122,0.0,-171.964,-83.611,1.642,-30.9,-11.22,4.86,29.14,0.06134,-0.74258,-0.05707,-0.66443,706
177,0.979,-0.196,0.235,0.0,0.0,0.0,-39.633,-72.625,-154.177,-28.813,-6.093,-9.253,26.21,0.02579,0.60394,-0.14133,0.78391,705,0.958,0.063,0.306,0.366,-0.488,0.305,11.843,-71.647,-126.26,-28.14,-9.36,8.513,24.51,-0.41815,0.48111,0.33731,0.69266,711,0.854,-0.066,0.491,0.061,0.122,0.183,-7.74,-59.738,155.72,-22.087,-8.833,-20.5,28.26,-0.21585,-0.47379,0.1626,-0.83807,709,0.982,-0.019,-0.104,0.122,0.183,0.0,-171.947,-83.611,1.599,-30.9,-11.22,4.86,29.14,0.06134,-0.74258,-0.05707,-0.66443,707
178,0.974,-0.191,0.232,0.061,-0.122,0.0,-39.633,-72.631,-154.182,-28.813,-6.093,-9.253,26.21,0.02579,0.60394,-0.14133,0.78391,712,0.946,0.066,0.309,-0.122,0.183,0.244,11.827,-71.647,-126.255,-28.14,-9.36,8.513,24.51,-0.41815,0.48111,0.33731,0.69266,718,0.846,-0.065,0.492,-0.305,0.244,0.061,-7.745,-59.733,155.737,-22.087,-8.833,-20.5,28.26,-0.21585,-0.47379,0.1626,-0.83807,714,0.973,-0.013,-0.111,0.549,0.122,0.0,-171.931,-83.617,1.555,-31.387,-11.207,4.78,29.14,0.06134,-0.74258,-0.05707,-0.66443,716
179,0.973,-0.19,0.23,0.0,-0.244,0.0,-39.644,-72.631,-154.188,-28.813,-6.093,-9.253,26.21,0.02579,0.60394,-0.14133,0.78391,713,0.943,0.067,0.306,-0.366,0.549,0.0,11.816,-71.642,-126.255,-28.14,-9.36,8.513,24.51,-0.41815,0.48111,0.33731,0.69266,719,0.857,-0.066,0.493,0.0,0.366,-0.305,-7.751,-59.733,155.748,-22.087,-8.833,-20.5,28.26,-0.21585,-0.47379,0.1626,-0.83807,715,0.972,-0.012,-0.109,0.061,0.305,-0.122,-171.92,-83.622,1.544,-31.387,-11.207,4.78,29.14,0.06134,-0.74258,-0.05707,-0.66443,717
180,0.98,-0.193,0.229,-0.183,-0.122,0.0,-39.655,-72.636,-154.199,-29.127,-6.1,-9.993,26.21,0.02579,0.60394,-0.14133,0.78391,726,0.952,0.065,0.305,0.0,0.061,-0.061,11.816,-71.636,-126.266,-28.187,-9.7,8.273,24.51,-0.41815,0.48111,0.33731,0.69266,724,0.861,-0.067,0.492,-0.061,0.916,-0.244,-7.734,-59.722,155.742,-22.087,-8.833,-20.5,28.26,-0.21585,-0.47379,0.1626,-0.83807,722,0.979,-0.014,-0.108,-0.122,0.183,-0.061,-171.931,-83.628,1.549,-31.387,-11.207,4.78,29.14,0.06143,-0.74271,-0.05698,-0.66428,720
181,0.982,-0.195,0.23,-0.244,-0.427,0.0,-39.672,-72.642,-154.199,-29.127,-6.1,-9.993,26.21,0.02579,0.60394,-0.14133,0.78391,727,0.956,0.062,0.305,0.244,-0.549,0.0,11.827,-71.647,-126.277,-28.187,-9.7,8.273,24.51,-0.41815,0.48111,0.33731,0.69266,725,0.858,-0.068,0.492,0.122,0.977,-0.122,-7.723,-59.711,155.731,-22.087,-8.833,-20.5,28.26,-0.21585,-0.47379,0.1626,-0.83807,723,0.984,-0.015,-0.108,-0.305,0.244,0.0,-171.936,-83.633,1.549,-31.387,-11.207,4.78,29.14,0.06143,-0.74271,-0.05698,-0.66428,721
182,0.973,-0.194,0.234,-0.061,-0.488,0.0,-39.694,-72.653,-154.204,-29.127,-6.1,-9.993,26.21,0.02689,0.60416,-0.14224,0.78354,736,0.954,0.065,0.308,0.122,-0.427,0.0,11.838,-71.653,-126.282,-28.187,-9.7,8.273,24.51,-0.41815,0.48111,0.33731,0.69266,732,0.862,-0.063,0.494,-0.061,1.16,-0.244,-7.712,-59.689,155.72,-22.087,-8.833,-20.5,28.26,-0.21585,-0.47379,0.1626,-0.83807,730,0.979,-0.012,-0.109,-0.61,0.122,-0.061,-171.942,-83.633,1.555,-31.387,-11.207,4.78,29.14,0.06143,-0.74271,-0.05698,-0.66428,728
183,0.969,-0.192,0.232,0.0,-0.61,0.0,-39.721,-72.664,-154.204,-29.127,-6.1,-9.993,26.21,0.02689,0.60416,-0.14224,0.78354,737,0.957,0.07,0.31,-0.122,0.366,-0.183,11.843,-71.653,-126.299,-28.187,-9.7,8.273,24.51,-0.41815,0.48111,0.33731,0.69266,733,0.863,-0.06,0.5,-0.183,1.038,-0.183,-7.701,-59.672,155.693,-22.087,-8.833,-20.5,28.26,-0.21585,-0.47379,0.1626,-0.83807,731,0.98,-0.012,-0.107,-0.122,0.305,0.0,-171.958,-83.639,1.555,-31.387,-11.207,4.78,29.14,0.06143,-0.74271,-0.05698,-0.66428,729
184,0.979,-0.192,0.231,0.122,-0.488,0.305,-39.754,-72.669,-154.177,-29.127,-6.1,-9.993,26.21,0.02689,0.60416,-0.14224,0.78354,742,0.958,0.069,0.307,0.0,0.305,0.0,11.843,-71.647,-126.315,-28.187,-9.7,8.273,24.51,-0.41803,0.48163,0.33752,0.69226,738,0.858,-0.064,0.5,-0.305,1.038,0.305,-7.696,-59.656,155.671,-22.813,-8.24,-20.673,28.26,-0.21585,-0.47379,0.1626,-0.83807,740,0.987,-0.017,-0.106,0.122,0.366,0.0,-171.958,-83.644,1.533,-31.387,-11.207,4.78,29.14,0.06143,-0.74271,-0.05698,-0.66428,734
185,0.987,-0.195,0.236,-0.183,-0.916,0.305,-39.803,-72.68,-154.122,-29.127,-6.1,-9.993,26.21,0.02689,0.60416,-0.14224,0.78354,743,0.954,0.067,0.31,0.244,-0.305,0.427,11.832,-71.653,-126.304,-28.187,-9.7,8.273,24.51,-0.41803,0.48163,0.33752,0.69226,739,0.852,-0.066,0.502,-0.427,1.099,0.244,-7.707,-59.634,155.638,-22.813,-8.24,-20.673,28.26,-0.21585,-0.47379,0.1626,-0.83807,741,0.987,-0.018,-0.104,0.0,0.854,0.061,-171.947,-83.655,1.472,-31.387,-11.207,4.78,29.14,0.06143,-0.74271,-0.05698,-0.66428,735
186,0.978,-0.195,0.235,-0.305,-0.427,0.061,-39.836,-72.686,-154.072,-29.127,-6.1,-9.993,26.21,0.02689,0.60416,-0.14224,0.78354,748,0.947,0.066,0.313,0.305,0.0,0.366,11.821,-71.653,-126.288,-28.187,-9.7,8.273,24.51,-0.41803,0.48163,0.33752,0.69226,746,0.86,-0.071,0.489,-0.977,1.404,-0.305,-7.712,-59.612,155.605,-22.813,-8.24,-20.673,28.26,-0.21558,-0.47241,0.16183,-0.83908,750,0.98,-0.015,-0.111,0.183,0.305,0.244,-171.909,-83.666,1.395,-31.387,-11.207,4.78,29.14,0.06143,-0.74271,-0.05698,-0.66428,744
187,0.967,-0.192,0.238,0.0,0.122,0.061,-39.836,-72.686,-154.045,-29.127,-6.1,-9.993,26.21,0.02689,0.60416,-0.14224,0.78354,749,0.958,0.059,0.306,-0.122,0.732,0.061,11.81,-71.647,-126.266,-28.187,-9.7,8.273,24.51,-0.41803,0.48163,0.33752,0.69226,747,0.871,-0.072,0.496,-0.549,3.113,0.122,-7.718,-59.579,155.566,-22.813,-8.24,-20.673,28.26,-0.21558,-0.47241,0.16183,-0.83908,751,0.975,-0.014,-0.109,0.488,0.854,0.0,-171.859,-83.677,1.324,-31.387,-11.207,4.78,29.14,0.06143,-0.74271,-0.05698,-0.66428,745
188,0.973,-0.191,0.234,0.122,0.0,0.366,-39.847,-72.68,-154.012,-29.127,-6.1,-9.993,26.21,0.02689,0.60416,-0.14224,0.78354,754,0.967,0.067,0.305,0.122,0.183,-0.305,11.821,-71.636,-126.271,-28.187,-9.7,8.273,24.51,-0.41803,0.48163,0.33752,0.69226,752,0.863,-0.065,0.502,0.305,1.709,-0.305,-7.712,-59.524,155.539,-22.813,-8.24,-20.673,28.26,-0.21558,-0.47241,0.16183,-0.83908,758,0.984,-0.009,-0.1,0.854,1.404,-0.122,-171.832,-83.694,1.302,-31.387,-11.207,4.78,29.14,0.06143,-0.74271,-0.05698,-0.66428,756
189,0.984,-0.193,0.235,0.183,-0.244,0.427,-39.864,-72.68,-153.995,-29.127,-6.1,-9.993,26.21,0.02689,0.60416,-0.14224,0.78354,755,0.958,0.071,0.31,0.366,-0.183,-0.61,11.865,-71.642,-126.31,-28.187,-9.7,8.273,24.51,-0.41803,0.48163,0.33752,0.69226,753,0.853,-0.063,0.506,0.488,1.465,0.0,-7.69,-59.496,155.517,-22.813,-8.24,-20.673,28.26,-0.21558,-0.47241,0.16183,-0.83908,759,0.992,-0.014,-0.101,0.366,1.465,-0.122,-171.81,-83.727,1.285,-31.387,-11.207,4.78,29.14,0.06143,-0.74271,-0.05698,-0.66428,757
190,0.985,-0.199,0.229,0.0,0.122,0.183,-39.869,-72.675,-153.99,-29.127,-6.1,-9.993,26.21,0.02689,0.60416,-0.14224,0.78354,762,0.951,0.066,0.317,0.122,0.244,-0.305,11.893,-71.636,-126.337,-28.187,-9.7,8.273,24.51,-0.41803,0.48163,0.33752,0.69226,760,0.847,-0.063,0.506,0.305,1.465,0.366,-7.674,-59.469,155.495,-22.813,-8.24,-20.673,28.26,-0.21558,-0.47241,0.16183,-0.83908,766,0.985,-0.02,-0.116,-0.671,0.916,0.061,-171.793,-83.749,1.274,-31.387,-11.207,4.78,29.14,0.06143,-0.74271,-0.05698,-0.66428,764
191,0.979,-0.197,0.232,-0.061,0.305,0.0,-39.864,-72.669,-153.99,-29.127,-6.1,-9.993,26.21,0.02689,0.60416,-0.14224,0.78354,763,0.945,0.065,0.312,0.061,0.61,0.122,11.887,-71.625,-126.326,-28.187,-9.7,8.273,24.51,-0.41803,0.48163,0.33752,0.69226,761,0.844,-0.064,0.507,0.183,1.404,0.549,-7.674,-59.442,155.484,-22.813,-8.24,-20.673,28.26,-0.21558,-0.47241,0.16183,-0.83908,767,0.978,-0.017,-0.11,-0.793,1.16,0.061,-171.777,-83.771,1.236,-31.387,-11.207,4.78,29.14,0.06143,-0.74271,-0.05698,-0.66428,765
192,0.972,-0.194,0.229,0.244,0.427,0.061,-39.842,-72.664,-153.984,-29.127,-6.1,-9.993,26.21,0.02689,0.60416,-0.14224,0.78354,772,0.942,0.069,0.313,0.122,0.183,0.305,11.871,-71.62,-126.31,-28.187,-9.7,8.273,24.51,-0.41803,0.48163,0.33752,0.69226,770,0.845,-0.064,0.507,0.0,0.305,0.366,-7.679,-59.42,155.49,-22.813,-8.24,-20.673,28.26,-0.21558,-0.47241,0.16183,-0.83908,774,0.971,-0.012,-0.107,-0.061,0.854,0.061,-171.755,-83.787,1.198,-31.387,-11.207,4.78,29.14,0.06143,-0.74271,-0.05698,-0.66428,768
193,0.979,-0.192,0.227,0.427,0.793,0.244,-39.814,-72.653,-153.99,-29.127,-6.1,-9.993,26.21,0.02689,0.60416,-0.14224,0.78354,773,0.944,0.067,0.313,0.061,-0.061,0.427,11.854,-71.62,-126.293,-28.187,-9.7,8.273,24.51,-0.41803,0.48163,0.33752,0.69226,771,0.849,-0.069,0.504,-0.366,0.061,0.61,-7.69,-59.414,155.495,-22.813,-8.24,-20.673,28.26,-0.21558,-0.47241,0.16183,-0.83908,775,0.975,-0.011,-0.108,0.122,0.61,0.244,-171.716,-83.804,1.154,-31.387,-11.207,4.78,29.14,0.06143,-0.74271,-0.05698,-0.66428,769
194,0.979,-0.196,0.228,0.305,0.854,0.305,-39.792,-72.636,-154.001,-29.127,-6.1,-9.993,26.21,0.02689,0.60416,-0.14224,0.78354,782,0.949,0.062,0.308,0.244,-0.854,0.671,11.832,-71.636,-126.266,-28.187,-9.7,8.273,24.51,-0.41803,0.48163,0.33752,0.69226,778,0.854,-0.074,0.502,-0.366,-0.244,0.61,-7.718,-59.409,155.511,-22.813,-8.24,-20.673,28.26,-0.21558,-0.47241,0.16183,-0.83908,780,0.98,-0.015,-0.11,-0.122,0.366,0.366,-171.661,-83.809,1.093,-31.387,-11.207,4.78,29.14,0.06143,-0.74271,-0.05698,-0.66428,776
195,0.976,-0.197,0.229,0.305,0.244,0.366,-39.798,-72.631,-153.995,-29.127,-6.1,-9.993,26.21,0.02689,0.60416,-0.14224,0.78354,783,0.952,0.058,0.312,0.671,-1.465,0.793,11.821,-71.664,-126.222,-28.187,-9.7,8.273,24.51,-0.41803,0.48163,0.33752,0.69226,779,0.849,-0.072,0.501,0.0,0.0,0.549,-7.74,-59.409,155.539,-22.813,-8.24,-20.673,28.26,-0.21558,-0.47241,0.16183,-0.83908,781,0.979,-0.019,-0.102,0.0,0.183,0.244,-171.606,-83.815,1.022,-31.387,-11.207,4.78,29.14,0.06143,-0.74271,-0.05698,-0.66428,777
196,0.974,-0.198,0.231,0.366,0.183,0.366,-39.809,-72.625,-153.99,-29.127,-6.1,-9.993,26.21,0.02689,0.60416,-0.14224,0.78354,792,0.946,0.061,0.312,0.916,-1.282,0.854,11.799,-71.691,-126.183,-28.187,-9.7,8.273,24.51,-0.41803,0.48163,0.33752,0.69226,784,0.847,-0.071,0.497,0.0,0.183,0.122,-7.756,-59.409,155.55,-22.813,-8.24,-20.673,28.26,-0.21558,-0.47241,0.16183,-0.83908,788,0.977,-0.021,-0.102,0.0,-0.122,0.061,-171.579,-83.815,0.967,-31.213,-10.767,5.073,29.14,0.06143,-0.74271,-0.05698,-0.66428,786
197,0.971,-0.197,0.235,0.305,0.427,0.122,-39.798,-72.62,-154.012,-29.127,-6.1,-9.993,26.21,0.02689,0.60416,-0.14224,0.78354,793,0.949,0.063,0.309,0.793,-0.854,0.61,11.788,-71.708,-126.156,-28.187,-9.7,8.273,24.51,-0.41803,0.48163,0.33752,0.69226,785,0.859,-0.073,0.502,0.0,0.732,-0.366,-7.756,-59.398,155.544,-22.813,-8.24,-20.673,28.26,-0.21558,-0.47241,0.16183,-0.83908,789,0.979,-0.018,-0.106,-0.305,-0.366,0.061,-171.573,-83.809,0.934,-31.213,-10.767,5.073,29.14,0.06143,-0.74271,-0.05698,-0.66428,787
198,0.975,-0.193,0.237,0.244,0.244,0.122,-39.792,-72.614,-154.017,-28.793,-5.86,-9.607,26.21,0.02689,0.60416,-0.14224,0.78354,798,0.959,0.062,0.309,0.854,-1.221,0.305,11.799,-71.73,-126.145,-28.053,-9.353,8.4,24.51,-0.41803,0.48163,0.33752,0.69226,790,0.863,-0.071,0.504,0.305,0.183,-0.61,-7.74,-59.387,155.533,-22.467,-8.333,-20.34,28.26,-0.21558,-0.47241,0.16183,-0.83908,796,0.982,-0.016,-0.1,0.854,-0.183,0.183,-171.552,-83.798,0.884,-31.213,-10.767,5.073,29.14,0.05997,-0.74182,-0.05496,-0.66556,794
199,0.977,-0.192,0.235,0.488,-0.061,0.305,-39.803,-72.614,-153.99,-28.793,-5.86,-9.607,26.21,0.02689,0.60416,-0.14224,0.78354,799,0.961,0.064,0.309,0.916,-1.404,0.0,11.832,-71.757,-126.161,-28.053,-9.353,8.4,24.51,-0.41803,0.48163,0.33752,0.69226,791,0.862,-0.066,0.504,0.427,-0.549,-0.366,-7.718,-59.387,155.522,-22.467,-8.333,-20.34,28.26,-0.21558,-0.47241,0.16183,-0.83908,797,0.987,-0.016,-0.107,1.892,0.0,0.061,-171.497,-83.798,0.829,-31.213,-10.767,5.073,29.14,0.05997,-0.74182,-0.05496,-0.66556,795
200,0.978,-0.193,0.241,0.732,0.061,0.549,-39.809,-72.603,-153.962,-28.793,-5.86,-9.607,26.21,0.02689,0.60416,-0.14224,0.78354,806,0.961,0.065,0.311,0.916,-1.038,0.0,11.86,-71.774,-126.178,-28.053,-9.353,8.4,24.51,-0.41803,0.48163,0.33752,0.69226,800,0.862,-0.065,0.505,0.549,-0.732,0.305,-7.707,-59.398,155.539,-22.467,-8.333,-20.34,28.26,-0.21558,-0.47241,0.16183,-0.83908,804,0.99,-0.016,-0.106,1.343,0.183,0.0,-171.453,-83.798,0.797,-31.213,-10.767,5.073,29.14,0.05997,-0.74182,-0.05496,-0.66556,802
201,0.977,-0.197,0.24,0.61,0.366,0.488,-39.803,-72.592,-153.946,-28.793,-5.86,-9.607,26.21,0.02689,0.60416,-0.14224,0.78354,807,0.961,0.064,0.31,0.916,-0.671,0.366,11.865,-71.79,-126.161,-28.053,-9.353,8.4,24.51,-0.41803,0.48163,0.33752,0.69226,801,0.863,-0.068,0.504,0.671,-0.732,0.671,-7.712,-59.409,155.572,-22.467,-8.333,-20.34,28.26,-0.21558,-0.47241,0.16183,-0.83908,805,0.988,-0.018,-0.102,1.221,0.671,0.0,-171.414,-83.809,0.775,-31.213,-10.767,5.073,29.14,0.05997,-0.74182,-0.05496,-0.66556,803
202,0.978,-0.197,0.241,0.427,0.427,0.305,-39.792,-72.581,-153.924,-28.793,-5.86,-9.607,26.21,0.02536,0.60406,-0.14172,0.78375,810,0.96,0.064,0.309,0.977,-0.671,0.671,11.849,-71.801,-126.134,-28.053,-9.353,8.4,24.51,-0.41876,0.48203,0.33859,0.69104,814,0.856,-0.065,0.502,0.366,-0.793,0.671,-7.723,-59.425,155.627,-22.467,-8.333,-20.34,28.26,-0.216,-0.47079,0.16171,-0.8399,812,0.987,-0.017,-0.1,0.732,0.916,0.061,-171.365,-83.826,0.731,-31.213,-10.767,5.073,29.14,0.05997,-0.74182,-0.05496,-0.66556,808
203,0.976,-0.192,0.239,0.427,0.793,0.244,-39.76,-72.565,-153.907,-28.793,-5.86,-9.607,26.21,0.02536,0.60406,-0.14172,0.78375,811,0.956,0.066,0.307,1.465,-0.488,0.793,11.838,-71.812,-126.096,-28.053,-9.353,8.4,24.51,-0.41876,0.48203,0.33859,0.69104,815,0.854,-0.068,0.5,0.488,-0.916,1.038,-7.745,-59.436,155.693,-22.467,-8.333,-20.34,28.26,-0.216,-0.47079,0.16171,-0.8399,813,0.981,-0.014,-0.103,1.099,0.671,0.122,-171.299,-83.842,0.698,-31.213,-10.767,5.073,29.14,0.05997,-0.74182,-0.05496,-0.66556,809
204,0.975,-0.193,0.234,0.244,0.916,0.183,-39.721,-72.548,-153.907,-28.793,-5.86,-9.607,26.21,0.02536,0.60406,-0.14172,0.78375,820,0.951,0.062,0.304,1.77,-0.305,0.916,11.821,-71.823,-126.046,-28.053,-9.353,8.4,24.51,-0.41876,0.48203,0.33859,0.69104,818,0.85,-0.07,0.493,0.183,-0.977,0.916,-7.778,-59.453,155.775,-22.467,-8.333,-20.34,28.26,-0.216,-0.47079,0.16171,-0.8399,822,0.977,-0.016,-0.103,0.977,0.61,0.0,-171.249,-83.853,0.681,-31.213,-10.767,5.073,29.14,0.05997,-0.74182,-0.05496,-0.66556,816
205,0.973,-0.194,0.233,0.122,0.61,0.183,-39.699,-72.537,-153.896,-28.793,-5.86,-9.607,26.21,0.02536,0.60406,-0.14172,0.78375,821,0.949,0.06,0.301,1.831,0.0,0.977,11.799,-71.829,-125.997,-28.053,-9.353,8.4,24.51,-0.41876,0.48203,0.33859,0.69104,819,0.85,-0.07,0.496,0.366,-0.671,0.977,-7.806,-59.469,155.841,-22.467,-8.333,-20.34,28.26,-0.216,-0.47079,0.16171,-0.8399,823,0.977,-0.016,-0.103,0.0,0.732,0.0,-171.216,-83.87,0.687,-31.213,-10.767,5.073,29.14,0.05997,-0.74182,-0.05496,-0.66556,817
206,0.971,-0.195,0.234,0.0,0.305,0.122,-39.694,-72.532,-153.88,-28.793,-5.86,-9.607,26.21,0.02536,0.60406,-0.14172,0.78375,824,0.947,0.062,0.304,2.563,-0.305,1.221,11.777,-71.84,-125.936,-28.053,-9.353,8.4,24.51,-0.41876,0.48203,0.33859,0.69104,828,0.853,-0.066,0.5,1.343,-0.183,1.587,-7.833,-59.474,155.885,-22.467,-8.333,-20.34,28.26,-0.216,-0.47079,0.16171,-0.8399,830,0.973,-0.018,-0.101,-0.61,0.732,0.0,-171.205,-83.881,0.709,-31.213,-10.767,5.073,29.14,0.05997,-0.74182,-0.05496,-0.66556,826
207,0.974,-0.197,0.228,-0.244,-0.061,-0.061,-39.699,-72.537,-153.864,-28.793,-5.86,-9.607,26.21,0.02536,0.60406,-0.14172,0.78375,825,0.951,0.065,0.31,2.625,-0.244,1.282,11.755,-71.845,-125.876,-28.053,-9.353,8.4,24.51,-0.41876,0.48203,0.33859,0.69104,829,0.854,-0.064,0.503,1.221,-0.671,1.831,-7.866,-59.474,155.951,-22.467,-8.333,-20.34,28.26,-0.216,-0.47079,0.16171,-0.8399,831,0.974,-0.017,-0.105,0.061,0.366,0.0,-171.189,-83.892,0.731,-31.213,-10.767,5.073,29.14,0.05997,-0.74182,-0.05496,-0.66556,827
208,0.979,-0.197,0.228,-0.488,0.0,-0.122,-39.705,-72.537,-153.847,-28.793,-5.86,-9.607,26.21,0.02536,0.60406,-0.14172,0.78375,834,0.953,0.067,0.308,1.953,-0.122,1.221,11.722,-71.851,-125.815,-28.053,-9.353,8.4,24.51,-0.41876,0.48203,0.33859,0.69104,832,0.851,-0.066,0.509,0.916,-1.465,1.831,-7.905,-59.485,156.033,-22.467,-8.333,-20.34,28.26,-0.216,-0.47079,0.16171,-0.8399,838,0.979,-0.016,-0.104,0.122,0.061,0.0,-171.178,-83.897,0.758,-31.213,-10.767,5.073,29.14,0.05997,-0.74182,-0.05496,-0.66556,836
209,0.981,-0.195,0.23,-0.61,-0.061,-0.061,-39.721,-72.543,-153.831,-28.793,-5.86,-9.607,26.21,0.02536,0.60406,-0.14172,0.78375,835,0.952,0.067,0.31,1.465,-0.427,1.16,11.689,-71.867,-125.76,-28.053,-9.353,8.4,24.51,-0.41876,0.48203,0.33859,0.69104,833,0.855,-0.07,0.506,0.427,-1.587,1.282,-7.949,-59.513,156.105,-22.467,-8.333,-20.34,28.26,-0.216,-0.47079,0.16171,-0.8399,839,0.985,-0.018,-0.104,0.183,-0.244,0.183,-171.156,-83.897,0.775,-31.213,-10.767,5.073,29.14,0.05997,-0.74182,-0.05496,-0.66556,837
210,0.979,-0.199,0.236,-0.183,-0.061,-0.061,-39.727,-72.548,-153.809,-28.793,-5.86,-9.607,26.21,0.02536,0.60406,-0.14172,0.78375,842,0.957,0.065,0.312,0.854,-0.916,1.16,11.651,-71.884,-125.717,-28.053,-9.353,8.4,24.51,-0.41876,0.48203,0.33859,0.69104,840,0.853,-0.073,0.505,0.0,-1.16,0.793,-7.987,-59.535,156.176,-22.467,-8.333,-20.34,28.26,-0.216,-0.47079,0.16171,-0.8399,846,0.988,-0.02,-0.103,0.0,-0.244,0.061,-171.134,-83.892,0.786,-31.213,-10.767,5.073,29.14,0.05997,-0.74182,-0.05496,-0.66556,844
211,0.972,-0.201,0.24,0.0,0.122,-0.244,-39.716,-72.548,-153.809,-28.793,-5.86,-9.607,26.21,0.02536,0.60406,-0.14172,0.78375,843,0.953,0.064,0.311,0.427,-1.221,0.977,11.618,-71.911,-125.684,-28.053,-9.353,8.4,24.51,-0.41876,0.48203,0.33859,0.69104,841,0.849,-0.074,0.498,-0.366,-0.977,0.305,-8.015,-59.551,156.231,-22.467,-8.333,-20.34,28.26,-0.216,-0.47079,0.16171,-0.8399,847,0.983,-0.016,-0.101,-0.366,-0.061,0.0,-171.129,-83.886,0.807,-31.213,-10.767,5.073,29.14,0.05997,-0.74182,-0.05496,-0.66556,845
212,0.965,-0.196,0.239,0.0,0.366,-0.305,-39.688,-72.548,-153.82,-28.793,-5.86,-9.607,26.21,0.02536,0.60406,-0.14172,0.78375,850,0.947,0.062,0.308,0.122,-0.916,0.488,11.607,-71.927,-125.678,-28.053,-9.353,8.4,24.51,-0.41876,0.48203,0.33859,0.69104,852,0.87,-0.081,0.49,-0.854,-0.61,-0.549,-8.031,-59.562,156.248,-22.467,-8.333,-20.34,28.26,-0.216,-0.47079,0.16171,-0.8399,856,0.972,-0.017,-0.104,-0.244,-0.427,0.183,-171.118,-83.881,0.857,-31.6,-10.827,6.16,29.14,0.05997,-0.74182,-0.05496,-0.66556,848
213,0.974,-0.191,0.236,0.183,0.671,-0.183,-39.65,-72.537,-153.842,-28.793,-5.86,-9.607,26.21,0.02536,0.60406,-0.14172,0.78375,851,0.967,0.054,0.301,-0.671,0.0,-0.061,11.596,-71.922,-125.684,-28.053,-9.353,8.4,24.51,-0.41876,0.48203,0.33859,0.69104,853,0.875,-0.073,0.497,-0.549,-0.549,-0.427,-8.031,-59.573,156.242,-22.467,-8.333,-20.34,28.26,-0.216,-0.47079,0.16171,-0.8399,857,0.976,-0.02,-0.105,0.061,0.0,0.0,-171.101,-83.875,0.89,-31.6,-10.827,6.16,29.14,0.05997,-0.74182,-0.05496,-0.66556,849
214,0.98,-0.194,0.239,0.0,-0.183,-0.244,-39.644,-72.543,-153.825,-28.793,-5.86,-9.607,26.21,0.02536,0.60406,-0.14172,0.78375,858,0.971,0.062,0.298,-0.305,-1.282,-0.122,11.613,-71.949,-125.717,-28.193,-9.747,8.847,24.51,-0.41876,0.48203,0.33859,0.69104,860,0.854,-0.068,0.499,-0.183,-0.244,-0.122,-8.031,-59.584,156.22,-22.693,-8.287,-20.853,28.26,-0.216,-0.47079,0.16171,-0.8399,862,0.994,-0.017,-0.086,0.427,0.61,-0.244,-171.107,-83.886,0.928,-31.6,-10.827,6.16,29.14,0.05997,-0.74182,-0.05496,-0.66556,854
215,0.979,-0.194,0.236,-0.183,-0.977,-0.244,-39.672,-72.565,-153.781,-28.793,-5.86,-9.607,26.21,0.02536,0.60406,-0.14172,0.78375,859,0.954,0.065,0.312,-0.122,-1.038,-0.244,11.635,-71.966,-125.75,-28.193,-9.747,8.847,24.51,-0.41876,0.48203,0.33859,0.69104,861,0.844,-0.068,0.502,-0.244,0.122,0.0,-8.036,-59.584,156.198,-22.693,-8.287,-20.853,28.26,-0.216,-0.47079,0.16171,-0.8399,863,0.989,-0.015,-0.098,0.122,-0.061,-0.305,-171.145,-83.892,1.0,-31.6,-10.827,6.16,29.14,0.05997,-0.74182,-0.05496,-0.66556,855
216,0.977,-0.193,0.235,-0.061,-0.244,-0.183,-39.672,-72.57,-153.759,-29.247,-6.08,-9.24,26.21,0.02536,0.60406,-0.14172,0.78375,864,0.944,0.063,0.312,-0.61,0.854,-0.183,11.624,-71.949,-125.744,-28.193,-9.747,8.847,24.51,-0.41876,0.48203,0.33859,0.69104,866,0.846,-0.068,0.502,-0.122,0.0,-0.244,-8.036,-59.584,156.193,-22.693,-8.287,-20.853,28.26,-0.216,-0.47079,0.16171,-0.8399,870,0.978,-0.017,-0.111,-0.732,-0.305,-0.244,-171.2,-83.892,1.06,-31.6,-10.827,6.16,29.14,0.06314,-0.74103,-0.05795,-0.66589,868
217,0.973,-0.193,0.237,0.0,-0.061,0.0,-39.672,-72.57,-153.737,-29.247,-6.08,-9.24,26.21,0.02536,0.60406,-0.14172,0.78375,865,0.945,0.064,0.299,-0.183,0.427,0.0,11.613,-71.938,-125.739,-28.193,-9.747,8.847,24.51,-0.41876,0.48203,0.33859,0.69104,867,0.852,-0.067,0.503,0.244,-0.488,-0.183,-8.031,-59.584,156.193,-22.693,-8.287,-20.853,28.26,-0.216,-0.47079,0.16171,-0.8399,871,0.972,-0.016,-0.102,0.061,0.0,-0.244,-171.238,-83.892,1.121,-31.6,-10.827,6.16,29.14,0.06314,-0.74103,-0.05795,-0.66589,869
218,0.975,-0.193,0.233,0.0,-0.305,0.061,-39.688,-72.576,-153.704,-29.247,-6.08,-9.24,26.21,0.02536,0.60406,-0.14172,0.78375,874,0.949,0.066,0.307,0.488,-1.16,0.122,11.635,-71.96,-125.75,-28.193,-9.747,8.847,24.51,-0.42004,0.4827,0.33936,0.68939,872,0.849,-0.066,0.497,0.305,-0.732,-0.244,-8.02,-59.595,156.193,-22.693,-8.287,-20.853,28.26,-0.21255,-0.47247,0.16168,-0.83984,878,0.975,-0.013,-0.096,0.427,-0.061,-0.244,-171.277,-83.892,1.181,-31.6,-10.827,6.16,29.14,0.06314,-0.74103,-0.05795,-0.66589,876
219,0.973,-0.192,0.229,0.122,-0.244,0.122,-39.699,-72.576,-153.671,-29.247,-6.08,-9.24,26.21,0.02536,0.60406,-0.14172,0.78375,875,0.948,0.066,0.307,0.366,-0.977,0.061,11.651,-71.977,-125.76,-28.193,-9.747,8.847,24.51,-0.42004,0.4827,0.33936,0.68939,873,0.851,-0.069,0.496,0.122,-0.366,-0.183,-8.009,-59.606,156.182,-22.693,-8.287,-20.853,28.26,-0.21255,-0.47247,0.16168,-0.83984,879,0.978,-0.012,-0.104,0.0,-0.61,-0.183,-171.321,-83.886,1.247,-31.6,-10.827,6.16,29.14,0.06314,-0.74103,-0.05795,-0.66589,877
220,0.973,-0.192,0.23,0.183,-0.732,0.183,-39.732,-72.587,-153.616,-29.247,-6.08,-9.24,26.21,0.02313,0.60434,-0.13977,0.78397,884,0.949,0.062,0.303,0.183,-0.61,0.0,11.662,-71.988,-125.771,-28.193,-9.747,8.847,24.51,-0.42004,0.4827,0.33936,0.68939,882,0.857,-0.067,0.499,0.244,-0.427,-0.183,-8.004,-59.612,156.187,-22.693,-8.287,-20.853,28.26,-0.21255,-0.47247,0.16168,-0.83984,886,0.975,-0.014,-0.105,-0.122,-0.793,-0.183,-171.376,-83.875,1.313,-31.6,-10.827,6.16,29.14,0.06314,-0.74103,-0.05795,-0.66589,880
221,0.977,-0.194,0.231,0.122,-0.793,0.244,-39.771,-72.598,-153.55,-29.247,-6.08,-9.24,26.21,0.02313,0.60434,-0.13977,0.78397,885,0.955,0.064,0.304,0.183,-0.854,-0.061,11.684,-71.999,-125.782,-28.193,-9.747,8.847,24.51,-0.42004,0.4827,0.33936,0.68939,883,0.858,-0.066,0.499,0.0,-0.977,-0.183,-7.993,-59.623,156.215,-22.693,-8.287,-20.853,28.26,-0.21255,-0.47247,0.16168,-0.83984,887,0.978,-0.014,-0.106,0.732,-0.916,-0.183,-171.425,-83.859,1.384,-31.6,-10.827,6.16,29.14,0.06314,-0.74103,-0.05795,-0.66589,881
222,0.978,-0.194,0.237,-0.122,-0.488,0.122,-39.798,-72.603,-153.506,-29.247,-6.08,-9.24,26.21,0.02313,0.60434,-0.13977,0.78397,894,0.958,0.066,0.301,-0.061,-1.099,0.0,11.695,-72.021,-125.804,-28.193,-9.747,8.847,24.51,-0.42004,0.4827,0.33936,0.68939,892,0.867,-0.067,0.497,-0.427,-0.732,-0.61,-7.987,-59.639,156.259,-22.693,-8.287,-20.853,28.26,-0.21255,-0.47247,0.16168,-0.83984,890,0.986,-0.014,-0.103,0.183,-0.977,-0.061,-171.469,-83.842,1.456,-31.6,-10.827,6.16,29.14,0.06314,-0.74103,-0.05795,-0.66589,888
223,0.973,-0.196,0.237,-0.305,-0.61,0.061,-39.831,-72.614,-153.463,-29.247,-6.08,-9.24,26.21,0.02313,0.60434,-0.13977,0.78397,895,0.965,0.067,0.302,-0.488,-1.221,-0.122,11.711,-72.043,-125.826,-28.193,-9.747,8.847,24.51,-0.42004,0.4827,0.33936,0.68939,893,0.867,-0.069,0.497,-0.977,0.0,-1.526,-7.971,-59.65,156.275,-22.693,-8.287,-20.853,28.26,-0.21255,-0.47247,0.16168,-0.83984,891,0.989,-0.012,-0.101,0.0,-0.732,0.061,-171.491,-83.826,1.5,-31.6,-10.827,6.16,29.14,0.06314,-0.74103,-0.05795,-0.66589,889
224,0.976,-0.196,0.235,0.061,-0.61,0.244,-39.864,-72.625,-153.413,-29.247,-6.08,-9.24,26.21,0.02313,0.60434,-0.13977,0.78397,900,0.96,0.068,0.302,-0.793,-1.282,-0.61,11.755,-72.065,-125.892,-28.193,-9.747,8.847,24.51,-0.42004,0.4827,0.33936,0.68939,898,0.866,-0.065,0.498,-1.099,0.122,-1.77,-7.938,-59.65,156.237,-22.693,-8.287,-20.853,28.26,-0.21255,-0.47247,0.16168,-0.83984,902,0.986,-0.015,-0.102,-0.122,-0.793,0.244,-171.48,-83.809,1.511,-31.6,-10.827,6.16,29.14,0.06314,-0.74103,-0.05795,-0.66589,896
225,0.979,-0.196,0.236,0.427,-0.366,0.305,-39.891,-72.631,-153.364,-29.247,-6.08,-9.24,26.21,0.02313,0.60434,-0.13977,0.78397,901,0.961,0.063,0.298,-1.282,0.183,-0.732,11.794,-72.065,-125.953,-28.193,-9.747,8.847,24.51,-0.42004,0.4827,0.33936,0.68939,899,0.863,-0.064,0.496,-0.854,-0.122,-1.16,-7.899,-59.656,156.198,-22.693,-8.287,-20.853,28.26,-0.21255,-0.47247,0.16168,-0.83984,903,0.983,-0.016,-0.104,-0.122,-0.732,0.183,-171.475,-83.798,1.5,-31.6,-10.827,6.16,29.14,0.06314,-0.74103,-0.05795,-0.66589,897
226,0.979,-0.197,0.236,0.0,-0.183,0.0,-39.908,-72.631,-153.32,-29.247,-6.08,-9.24,26.21,0.02313,0.60434,-0.13977,0.78397,906,0.958,0.059,0.301,-0.793,-0.488,-0.061,11.81,-72.059,-125.991,-28.193,-9.747,8.847,24.51,-0.42004,0.4827,0.33936,0.68939,904,0.86,-0.069,0.498,-0.549,-0.732,-0.183,-7.883,-59.661,156.198,-22.693,-8.287,-20.853,28.26,-0.21255,-0.47247,0.16168,-0.83984,910,0.984,-0.019,-0.103,-0.122,-0.427,0.122,-171.469,-83.787,1.478,-31.6,-10.827,6.16,29.14,0.06314,-0.74103,-0.05795,-0.66589,908
227,0.978,-0.193,0.234,-0.183,0.061,0.0,-39.913,-72.631,-153.298,-29.247,-6.08,-9.24,26.21,0.02313,0.60434,-0.13977,0.78397,907,0.959,0.064,0.304,-1.282,-0.305,0.061,11.799,-72.07,-125.997,-28.193,-9.747,8.847,24.51,-0.42004,0.4827,0.33936,0.68939,905,0.861,-0.068,0.497,-0.793,-0.671,-0.061,-7.894,-59.678,156.231,-22.693,-8.287,-20.853,28.26,-0.21255,-0.47247,0.16168,-0.83984,911,0.985,-0.019,-0.111,-0.122,-0.427,0.244,-171.442,-83.782,1.428,-31.6,-10.827,6.16,29.14,0.06314,-0.74103,-0.05795,-0.66589,909
228,0.974,-0.193,0.23,-0.061,0.183,0.0,-39.908,-72.631,-153.287,-29.247,-6.08,-9.24,26.21,0.02313,0.60434,-0.13977,0.78397,912,0.956,0.065,0.297,-1.16,0.0,0.0,11.777,-72.076,-125.991,-28.193,-9.747,8.847,24.51,-0.42004,0.4827,0.33936,0.68939,914,0.859,-0.066,0.494,-1.16,-0.854,-0.061,-7.91,-59.694,156.259,-22.693,-8.287,-20.853,28.26,-0.21255,-0.47247,0.16168,-0.83984,918,0.981,-0.014,-0.108,-0.061,-0.366,0.305,-171.403,-83.776,1.368,-31.6,-10.827,6.16,29.14,0.06314,-0.74103,-0.05795,-0.66589,916
229,0.975,-0.194,0.231,0.061,0.122,0.122,-39.902,-72.625,-153.276,-29.247,-6.08,-9.24,26.21,0.02313,0.60434,-0.13977,0.78397,913,0.96,0.062,0.301,-1.038,0.0,-0.183,11.761,-72.076,-125.986,-28.193,-9.747,8.847,24.51,-0.42004,0.4827,0.33936,0.68939,915,0.865,-0.072,0.492,-1.099,-1.038,-0.122,-7.932,-59.711,156.297,-22.693,-8.287,-20.853,28.26,-0.21255,-0.47247,0.16168,-0.83984,919,0.979,-0.015,-0.105,-0.305,-0.061,0.244,-171.365,-83.771,1.329,-31.6,-10.827,6.16,29.14,0.06314,-0.74103,-0.05795,-0.66589,917
230,0.978,-0.196,0.229,0.0,-0.061,0.122,-39.902,-72.625,-153.259,-29.247,-6.08,-9.24,26.21,0.02313,0.60434,-0.13977,0.78397,922,0.961,0.059,0.298,-1.16,0.244,-0.427,11.755,-72.07,-125.997,-28.193,-9.747,8.847,24.51,-0.42004,0.4827,0.33936,0.68939,926,0.865,-0.073,0.49,-0.793,-0.854,-0.244,-7.949,-59.733,156.341,-22.693,-8.287,-20.853,28.26,-0.21255,-0.47247,0.16168,-0.83984,924,0.978,-0.016,-0.108,0.122,-0.244,0.122,-171.343,-83.765,1.307,-31.62,-10.767,5.427,29.14,0.06314,-0.74103,-0.05795,-0.66589,920
231,0.983,-0.197,0.231,-0.183,0.0,0.061,-39.908,-72.625,-153.237,-29.247,-6.08,-9.24,26.21,0.02313,0.60434,-0.13977,0.78397,923,0.959,0.063,0.299,-0.793,0.122,-0.427,11.761,-72.07,-126.013,-28.193,-9.747,8.847,24.51,-0.42004,0.4827,0.33936,0.68939,927,0.861,-0.069,0.491,-0.183,-1.221,0.0,-7.96,-59.755,156.385,-22.693,-8.287,-20.853,28.26,-0.21255,-0.47247,0.16168,-0.83984,925,0.984,-0.017,-0.104,0.244,-0.244,0.0,-171.343,-83.765,1.296,-31.62,-10.767,5.427,29.14,0.06314,-0.74103,-0.05795,-0.66589,921
232,0.98,-0.197,0.229,0.0,0.122,0.122,-39.913,-72.625,-153.221,-29.247,-6.08,-9.24,26.21,0.02313,0.60434,-0.13977,0.78397,934,0.956,0.062,0.303,-0.549,0.366,-0.549,11.772,-72.065,-126.035,-28.347,-9.24,9.12,24.51,-0.42004,0.4827,0.33936,0.68939,930,0.859,-0.071,0.495,0.061,-1.343,-0.122,-7.965,-59.782,156.401,-22.773,-8.773,-19.593,28.26,-0.21255,-0.47247,0.16168,-0.83984,932,0.985,-0.016,-0.104,-0.244,-0.122,0.0,-171.354,-83.76,1.291,-31.62,-10.767,5.427,29.14,0.06314,-0.74103,-0.05795,-0.66589,928
233,0.976,-0.197,0.233,0.305,0.366,0.122,-39.913,-72.625,-153.204,-29.247,-6.08,-9.24,26.21,0.02313,0.60434,-0.13977,0.78397,935,0.957,0.062,0.297,-0.488,0.61,-0.549,11.788,-72.054,-126.063,-28.347,-9.24,9.12,24.51,-0.42004,0.4827,0.33936,0.68939,931,0.861,-0.068,0.491,0.061,-1.099,-0.183,-7.965,-59.81,156.401,-22.773,-8.773,-19.593,28.26,-0.21255,-0.47247,0.16168,-0.83984,933,0.984,-0.014,-0.112,-0.488,-0.183,0.061,-171.359,-83.76,1.291,-31.62,-10.767,5.427,29.14,0.06314,-0.74103,-0.05795,-0.66589,929
234,0.976,-0.194,0.235,0.122,0.488,0.183,-39.902,-72.614,-153.199,-29.093,-6.08,-9.56,26.21,0.02313,0.60434,-0.13977,0.78397,938,0.963,0.062,0.298,-0.244,0.122,-0.366,11.805,-72.048,-126.101,-28.347,-9.24,9.12,24.51,-0.42004,0.4827,0.33936,0.68939,936,0.87,-0.065,0.491,0.0,-0.732,-0.122,-7.965,-59.826,156.379,-22.773,-8.773,-19.593,28.26,-0.21085,-0.47461,0.16074,-0.83923,942,0.979,-0.016,-0.111,-0.244,-0.305,0.0,-171.376,-83.749,1.313,-31.62,-10.767,5.427,29.14,0.0636,-0.74176,-0.05865,-0.66498,940
