Index,L5_Acceleration X(g),L5_Acceleration Y(g),L5_Acceleration Z(g),L5_Angular velocity X(°/s),L5_Angular velocity Y(°/s),L5_Angular velocity Z(°/s),L5_Angle X(°),L5_Angle Y(°),L5_Angle Z(°),L5_Magnetic field X(ʯt),L5_Magnetic field Y(ʯt),L5_Magnetic field Z(ʯt),L5_Temperature(℃),L5_Quaternions 0(),L5_Quaternions 1(),L5_Quaternions 2(),L5_Quaternions 3(),L5___orig_idx,T4_Acceleration X(g),T4_Acceleration Y(g),T4_Acceleration Z(g),T4_Angular velocity X(°/s),T4_Angular velocity Y(°/s),T4_Angular velocity Z(°/s),T4_Angle X(°),T4_Angle Y(°),T4_Angle Z(°),T4_Magnetic field X(ʯt),T4_Magnetic field Y(ʯt),T4_Magnetic field Z(ʯt),T4_Temperature(℃),T4_Quaternions 0(),T4_Quaternions 1(),T4_Quaternions 2(),T4_Quaternions 3(),T4___orig_idx,C7_Acceleration X(g),C7_Acceleration Y(g),C7_Acceleration Z(g),C7_Angular velocity X(°/s),C7_Angular velocity Y(°/s),C7_Angular velocity Z(°/s),C7_Angle X(°),C7_Angle Y(°),C7_Angle Z(°),C7_Magnetic field X(ʯt),C7_Magnetic field Y(ʯt),C7_Magnetic field Z(ʯt),C7_Temperature(℃),C7_Quaternions 0(),C7_Quaternions 1(),C7_Quaternions 2(),C7_Quaternions 3(),C7___orig_idx,T12_Acceleration X(g),T12_Acceleration Y(g),T12_Acceleration Z(g),T12_Angular velocity X(°/s),T12_Angular velocity Y(°/s),T12_Angular velocity Z(°/s),T12_Angle X(°),T12_Angle Y(°),T12_Angle Z(°),T12_Magnetic field X(ʯt),T12_Magnetic field Y(ʯt),T12_Magnetic field Z(ʯt),T12_Temperature(℃),T12_Quaternions 0(),T12_Quaternions 1(),T12_Quaternions 2(),T12_Quaternions 3(),T12___orig_idx
0,1.012,0.054,0.092,-0.61,-0.122,0.366,29.597,-83.831,120.718,-26.653,-9.16,-6.893,25.82,-0.2081,-0.65656,0.15399,-0.7084,2,0.887,0.094,0.442,-0.854,-0.793,-0.244,14.431,-63.737,-136.384,-25.993,-12.647,4.453,24.79,0.37317,-0.44772,-0.29688,-0.75635,4,0.861,0.087,0.48,-0.305,-1.465,-0.549,12.107,-61.666,137.999,-22.413,-12.28,-18.2,29.19,0.25577,0.50815,-0.09821,0.81647,10,0.978,0.035,0.043,-0.916,0.916,1.16,37.826,-86.545,159.307,-30.567,-11.413,1.193,29.43,0.09555,-0.68073,-0.11823,-0.71652,0
1,1.012,0.052,0.093,-0.549,-0.061,0.427,29.531,-83.837,120.8,-26.653,-9.16,-6.893,25.82,-0.2081,-0.65656,0.15399,-0.7084,3,0.891,0.093,0.442,0.0,-1.709,-0.183,14.436,-63.759,-136.39,-25.993,-12.647,4.453,24.79,0.37317,-0.44772,-0.29688,-0.75635,5,0.866,0.089,0.478,0.549,-2.808,-0.244,12.129,-61.71,138.021,-22.413,-12.28,-18.2,29.19,0.25577,0.50815,-0.09821,0.81647,11,0.98,0.03,0.044,-0.61,0.488,0.977,37.48,-86.55,159.653,-30.567,-11.413,1.193,29.43,0.09555,-0.68073,-0.11823,-0.71652,1
2,1.014,0.049,0.095,-0.244,0.0,0.305,29.476,-83.842,120.872,-26.653,-9.16,-6.893,25.82,-0.2081,-0.65656,0.15399,-0.7084,6,0.892,0.094,0.44,0.977,-2.258,0.122,14.453,-63.798,-136.384,-25.993,-12.647,4.453,24.79,0.37317,-0.44772,-0.29688,-0.75635,18,0.867,0.089,0.472,1.282,-3.479,0.183,12.162,-61.765,138.049,-22.413,-12.28,-18.2,29.19,0.25577,0.50815,-0.09821,0.81647,12,0.984,0.027,0.046,-0.366,0.183,0.732,37.255,-86.561,159.868,-30.567,-11.413,1.193,29.43,0.09555,-0.68073,-0.11823,-0.71652,8
3,1.011,0.05,0.098,0.0,-0.183,0.122,29.454,-83.848,120.921,-26.653,-9.16,-6.893,25.82,-0.2081,-0.65656,0.15399,-0.7084,7,0.889,0.099,0.441,1.282,-2.441,-0.122,14.48,-63.836,-136.39,-25.993,-12.647,4.453,24.79,0.37317,-0.44772,-0.29688,-0.75635,19,0.865,0.088,0.473,1.404,-3.296,-0.061,12.2,-61.826,138.071,-22.413,-12.28,-18.2,29.19,0.25577,0.50815,-0.09821,0.81647,13,0.981,0.028,0.054,0.122,0.0,0.305,37.161,-86.567,159.917,-30.567,-11.413,1.193,29.43,0.09555,-0.68073,-0.11823,-0.71652,9
4,1.009,0.052,0.097,0.061,-0.854,0.183,29.487,-83.864,120.927,-26.653,-9.16,-6.893,25.82,-0.2081,-0.65656,0.15399,-0.7084,14,0.889,0.103,0.436,1.282,-2.258,-0.61,14.529,-63.869,-136.401,-25.433,-11.7,4.42,24.79,0.37317,-0.44772,-0.29688,-0.75635,24,0.865,0.094,0.467,1.343,-3.723,-0.488,12.25,-61.88,138.071,-22.413,-12.28,-18.2,29.19,0.25577,0.50815,-0.09821,0.81647,20,0.978,0.033,0.056,0.427,-0.366,0.061,37.2,-86.572,159.851,-30.567,-11.413,1.193,29.43,0.09555,-0.68073,-0.11823,-0.71652,16
5,1.01,0.053,0.095,0.0,-1.16,0.183,29.553,-83.886,120.861,-26.653,-9.16,-6.893,25.82,-0.2081,-0.65656,0.15399,-0.7084,15,0.898,0.101,0.428,1.282,-2.747,-0.732,14.59,-63.913,-136.434,-25.433,-11.7,4.42,24.79,0.37317,-0.44772,-0.29688,-0.75635,25,0.873,0.093,0.463,1.587,-4.15,-0.61,12.321,-61.952,138.076,-22.413,-12.28,-18.2,29.19,0.25577,0.50815,-0.09821,0.81647,21,0.979,0.035,0.042,0.305,-1.282,0.0,37.441,-86.594,159.587,-30.567,-11.413,1.193,29.43,0.09555,-0.68073,-0.11823,-0.71652,17
6,1.013,0.053,0.098,-0.061,-0.671,0.122,29.592,-83.897,120.8,-26.867,-8.853,-6.86,25.82,-0.2081,-0.65656,0.15399,-0.7084,26,0.908,0.104,0.426,0.793,-3.296,-0.977,14.656,-63.962,-136.483,-25.433,-11.7,4.42,24.79,0.37317,-0.44772,-0.29688,-0.75635,30,0.885,0.093,0.458,1.099,-4.944,-0.549,12.387,-62.029,138.076,-22.413,-12.28,-18.2,29.19,0.25577,0.50815,-0.09821,0.81647,28,0.982,0.033,0.043,0.488,-1.648,-0.366,37.864,-86.616,159.142,-30.567,-11.413,1.193,29.43,0.09555,-0.68073,-0.11823,-0.71652,22
7,1.012,0.053,0.106,-0.183,0.122,0.0,29.581,-83.903,120.773,-26.867,-8.853,-6.86,25.82,-0.2081,-0.65656,0.15399,-0.7084,27,0.903,0.107,0.43,0.549,-3.418,-1.16,14.727,-64.017,-136.544,-25.433,-11.7,4.42,24.79,0.37317,-0.44772,-0.29688,-0.75635,31,0.882,0.097,0.457,0.488,-5.005,-0.549,12.442,-62.117,138.082,-22.413,-12.28,-18.2,29.19,0.25577,0.50815,-0.09821,0.81647,29,0.987,0.032,0.05,0.0,-1.099,-0.671,38.243,-86.627,158.741,-30.567,-11.413,1.193,29.43,0.09555,-0.68073,-0.11823,-0.71652,23
8,1.011,0.052,0.105,-0.427,-0.122,-0.183,29.586,-83.897,120.74,-26.867,-8.853,-6.86,25.82,-0.20706,-0.65567,0.15442,-0.70941,32,0.896,0.111,0.432,0.366,-2.625,-1.221,14.793,-64.056,-136.609,-25.433,-11.7,4.42,24.79,0.37436,-0.44815,-0.29562,-0.75598,36,0.875,0.101,0.455,0.061,-4.639,-0.549,12.491,-62.199,138.071,-22.413,-12.28,-18.2,29.19,0.25577,0.50815,-0.09821,0.81647,38,0.985,0.033,0.064,-0.61,-0.488,-0.793,38.491,-86.622,158.461,-30.567,-11.413,1.193,29.43,0.09555,-0.68073,-0.11823,-0.71652,34
9,1.007,0.05,0.101,-0.488,-1.282,-0.305,29.691,-83.908,120.608,-26.867,-8.853,-6.86,25.82,-0.20706,-0.65567,0.15442,-0.70941,33,0.89,0.111,0.432,0.0,-2.258,-1.16,14.854,-64.094,-136.67,-25.433,-11.7,4.42,24.79,0.37436,-0.44815,-0.29562,-0.75598,37,0.87,0.104,0.456,-0.244,-4.089,-0.671,12.535,-62.271,138.032,-22.413,-12.28,-18.2,29.19,0.25577,0.50815,-0.09821,0.81647,39,0.979,0.036,0.059,-0.916,-0.61,-0.732,38.727,-86.622,158.198,-30.567,-11.413,1.193,29.43,0.09555,-0.68073,-0.11823,-0.71652,35
10,1.008,0.047,0.094,-0.366,-2.075,-0.366,29.894,-83.936,120.416,-26.867,-8.853,-6.86,25.82,-0.20706,-0.65567,0.15442,-0.70941,42,0.894,0.106,0.424,0.244,-2.441,-0.793,14.903,-64.127,-136.708,-25.433,-11.7,4.42,24.79,0.37436,-0.44815,-0.29562,-0.75598,44,0.872,0.102,0.453,0.0,-4.089,-0.366,12.574,-62.342,138.01,-22.413,-12.28,-18.2,29.19,0.25577,0.50815,-0.09821,0.81647,46,0.976,0.031,0.052,-0.488,-1.465,-0.488,39.078,-86.638,157.857,-30.667,-11.4,1.94,29.43,0.09555,-0.68073,-0.11823,-0.71652,40
11,1.012,0.047,0.09,0.0,-2.197,-0.366,30.125,-83.969,120.218,-26.867,-8.853,-6.86,25.82,-0.20706,-0.65567,0.15442,-0.70941,43,0.904,0.104,0.419,0.671,-3.113,-0.183,14.941,-64.182,-136.736,-25.433,-11.7,4.42,24.79,0.37436,-0.44815,-0.29562,-0.75598,45,0.884,0.1,0.448,0.305,-4.272,0.122,12.607,-62.413,138.01,-22.413,-12.28,-18.2,29.19,0.25577,0.50815,-0.09821,0.81647,47,0.979,0.029,0.039,0.244,-2.38,-0.366,39.617,-86.666,157.335,-30.667,-11.4,1.94,29.43,0.09555,-0.68073,-0.11823,-0.71652,41
12,1.014,0.049,0.09,0.366,-2.014,-0.427,30.361,-83.996,119.998,-26.867,-8.853,-6.86,25.82,-0.20706,-0.65567,0.15442,-0.70941,48,0.907,0.108,0.417,1.282,-3.357,0.061,14.985,-64.243,-136.758,-25.433,-11.7,4.42,24.79,0.37436,-0.44815,-0.29562,-0.75598,52,0.887,0.099,0.442,0.671,-4.7,0.671,12.629,-62.501,138.038,-22.413,-12.28,-18.2,29.19,0.25577,0.50815,-0.09821,0.81647,56,0.984,0.03,0.039,0.916,-2.808,-0.61,40.347,-86.704,156.627,-30.667,-11.4,1.94,29.43,0.09555,-0.68073,-0.11823,-0.71652,50
13,1.013,0.053,0.094,0.366,-2.197,-0.427,30.619,-84.029,119.762,-26.867,-8.853,-6.86,25.82,-0.20706,-0.65567,0.15442,-0.70941,49,0.908,0.113,0.415,1.709,-2.869,0.061,15.04,-64.292,-136.78,-25.433,-11.7,4.42,24.79,0.37436,-0.44815,-0.29562,-0.75598,53,0.888,0.103,0.436,1.16,-4.639,0.854,12.656,-62.589,138.065,-22.413,-12.28,-18.2,29.19,0.25577,0.50815,-0.09821,0.81647,57,0.986,0.034,0.047,0.488,-2.686,-0.793,41.094,-86.732,155.869,-30.667,-11.4,1.94,29.43,0.09555,-0.68073,-0.11823,-0.71652,51
14,1.012,0.054,0.091,0.122,-2.747,-0.366,30.91,-84.067,119.465,-26.867,-8.853,-6.86,25.82,-0.20706,-0.65567,0.15442,-0.70941,54,0.909,0.114,0.413,1.343,-2.563,-0.061,15.09,-64.341,-136.802,-25.433,-11.7,4.42,24.79,0.37436,-0.44815,-0.29562,-0.75598,60,0.889,0.102,0.437,1.16,-4.272,0.671,12.684,-62.672,138.071,-23.173,-12.287,-17.833,29.19,0.25577,0.50815,-0.09821,0.81647,58,0.984,0.039,0.042,0.0,-2.319,-0.732,41.754,-86.754,155.176,-30.667,-11.4,1.94,29.43,0.09341,-0.68207,-0.11511,-0.71603,64
15,1.012,0.054,0.092,0.0,-3.052,-0.305,31.234,-84.117,119.174,-26.867,-8.853,-6.86,25.82,-0.20706,-0.65567,0.15442,-0.70941,55,0.911,0.112,0.41,0.793,-2.258,-0.366,15.134,-64.38,-136.84,-25.433,-11.7,4.42,24.79,0.37436,-0.44815,-0.29562,-0.75598,61,0.892,0.099,0.433,0.61,-3.845,0.305,12.717,-62.748,138.076,-23.173,-12.287,-17.833,29.19,0.25577,0.50815,-0.09821,0.81647,59,0.983,0.038,0.042,-0.122,-2.441,-0.732,42.457,-86.781,154.44,-30.667,-11.4,1.94,29.43,0.09341,-0.68207,-0.11511,-0.71603,65
16,1.013,0.055,0.089,0.0,-3.174,-0.366,31.58,-84.161,118.845,-26.867,-8.853,-6.86,25.82,-0.20706,-0.65567,0.15442,-0.70941,62,0.913,0.112,0.405,0.488,-1.77,-0.671,15.183,-64.413,-136.879,-25.433,-11.7,4.42,24.79,0.37436,-0.44815,-0.29562,-0.75598,68,0.895,0.097,0.426,0.366,-3.662,0.061,12.75,-62.82,138.071,-23.173,-12.287,-17.833,29.19,0.25577,0.50815,-0.09821,0.81647,66,0.987,0.037,0.04,0.183,-2.075,-0.732,43.088,-86.797,153.831,-30.667,-11.4,1.94,29.43,0.09341,-0.68207,-0.11511,-0.71603,70
17,1.016,0.056,0.089,-0.061,-3.113,-0.488,31.954,-84.21,118.499,-26.867,-8.853,-6.86,25.82,-0.20706,-0.65567,0.15442,-0.70941,63,0.915,0.116,0.405,0.549,-1.343,-1.038,15.249,-64.435,-136.928,-25.433,-11.7,4.42,24.79,0.37436,-0.44815,-0.29562,-0.75598,69,0.898,0.102,0.425,0.488,-3.479,-0.366,12.799,-62.886,138.032,-23.173,-12.287,-17.833,29.19,0.25577,0.50815,-0.09821,0.81647,67,0.989,0.043,0.032,-0.305,-1.465,-0.671,43.676,-86.814,153.254,-30.667,-11.4,1.94,29.43,0.09341,-0.68207,-0.11511,-0.71603,71
18,1.018,0.058,0.088,-0.305,-2.869,-0.549,32.322,-84.249,118.141,-26.867,-8.853,-6.86,25.82,-0.20706,-0.65567,0.15442,-0.70941,72,0.911,0.111,0.401,0.61,-0.854,-1.099,15.309,-64.446,-136.983,-25.433,-11.7,4.42,24.79,0.37436,-0.44815,-0.29562,-0.75598,76,0.894,0.1,0.422,0.61,-3.174,-0.305,12.849,-62.952,137.988,-23.173,-12.287,-17.833,29.19,0.2493,0.51782,-0.0968,0.81256,78,0.989,0.041,0.037,-0.427,-0.854,-0.732,44.149,-86.825,152.798,-30.667,-11.4,1.94,29.43,0.09341,-0.68207,-0.11511,-0.71603,74
19,1.016,0.058,0.09,-0.427,-2.441,-0.61,32.662,-84.282,117.812,-26.867,-8.853,-6.86,25.82,-0.20706,-0.65567,0.15442,-0.70941,73,0.91,0.11,0.401,0.427,-0.61,-1.221,15.375,-64.457,-137.032,-25.433,-11.7,4.42,24.79,0.37436,-0.44815,-0.29562,-0.75598,77,0.894,0.096,0.42,0.305,-2.808,-0.427,12.898,-63.012,137.933,-23.173,-12.287,-17.833,29.19,0.2493,0.51782,-0.0968,0.81256,79,0.987,0.038,0.037,-0.061,0.122,-0.916,44.478,-86.819,152.463,-30.667,-11.4,1.94,29.43,0.09341,-0.68207,-0.11511,-0.71603,75
20,1.017,0.056,0.085,-0.305,-2.625,-0.549,33.014,-84.32,117.488,-26.407,-8.987,-6.233,25.82,-0.20706,-0.65567,0.15442,-0.70941,82,0.905,0.119,0.404,0.122,-0.427,-1.648,15.447,-64.462,-137.104,-25.433,-11.7,4.42,24.79,0.37436,-0.44815,-0.29562,-0.75598,86,0.888,0.103,0.423,0.183,-2.441,-1.099,12.958,-63.062,137.823,-23.173,-12.287,-17.833,29.19,0.2493,0.51782,-0.0968,0.81256,84,0.988,0.042,0.025,0.0,0.854,-0.916,44.621,-86.803,152.309,-30.667,-11.4,1.94,29.43,0.09341,-0.68207,-0.11511,-0.71603,80
21,1.021,0.055,0.081,-0.183,-2.625,-0.488,33.36,-84.353,117.153,-26.407,-8.987,-6.233,25.82,-0.20706,-0.65567,0.15442,-0.70941,83,0.904,0.12,0.403,0.244,-0.427,-1.831,15.529,-64.468,-137.186,-25.433,-11.7,4.42,24.79,0.37436,-0.44815,-0.29562,-0.75598,87,0.888,0.107,0.425,0.305,-2.747,-1.282,13.035,-63.111,137.686,-23.173,-12.287,-17.833,29.19,0.2493,0.51782,-0.0968,0.81256,85,0.989,0.043,0.024,-0.488,1.343,-0.732,44.61,-86.781,152.281,-30.667,-11.4,1.94,29.43,0.09341,-0.68207,-0.11511,-0.71603,81
22,1.019,0.056,0.08,-0.183,-2.197,-0.488,33.668,-84.38,116.862,-26.407,-8.987,-6.233,25.82,-0.20544,-0.66006,0.15366,-0.70596,88,0.91,0.117,0.399,1.099,-0.671,-1.709,15.628,-64.479,-137.274,-25.7,-12.327,5.313,24.79,0.37436,-0.44815,-0.29562,-0.75598,98,0.894,0.104,0.42,1.099,-3.906,-1.099,13.134,-63.182,137.56,-23.173,-12.287,-17.833,29.19,0.2493,0.51782,-0.0968,0.81256,92,0.99,0.043,0.026,-0.549,2.319,-0.549,44.423,-86.748,152.413,-30.667,-11.4,1.94,29.43,0.09341,-0.68207,-0.11511,-0.71603,90
23,1.02,0.058,0.081,-0.305,-1.526,-0.366,33.882,-84.402,116.658,-26.407,-8.987,-6.233,25.82,-0.20544,-0.66006,0.15366,-0.70596,89,0.913,0.117,0.4,0.793,-0.854,-1.892,15.732,-64.49,-137.368,-25.7,-12.327,5.313,24.79,0.37436,-0.44815,-0.29562,-0.75598,99,0.897,0.103,0.419,0.854,-4.822,-0.854,13.228,-63.276,137.444,-23.173,-12.287,-17.833,29.19,0.2493,0.51782,-0.0968,0.81256,93,0.989,0.042,0.033,-0.488,3.784,-0.549,43.956,-86.704,152.814,-30.667,-11.4,1.94,29.43,0.09341,-0.68207,-0.11511,-0.71603,91
24,1.017,0.056,0.08,-0.305,-1.526,-0.305,34.096,-84.424,116.433,-26.407,-8.987,-6.233,25.82,-0.20544,-0.66006,0.15366,-0.70596,94,0.903,0.121,0.408,0.061,-0.793,-2.197,15.831,-64.501,-137.488,-25.7,-12.327,5.313,24.79,0.37216,-0.45035,-0.30014,-0.754,102,0.89,0.106,0.423,0.0,-4.456,-1.099,13.321,-63.364,137.373,-23.173,-12.287,-17.833,29.19,0.2493,0.51782,-0.0968,0.81256,100,0.983,0.043,0.041,-0.916,4.822,-0.488,43.193,-86.644,153.512,-30.667,-11.4,1.94,29.43,0.09341,-0.68207,-0.11511,-0.71603,96
25,1.012,0.057,0.08,-0.244,-2.258,-0.244,34.382,-84.457,116.115,-26.407,-8.987,-6.233,25.82,-0.20544,-0.66006,0.15366,-0.70596,95,0.905,0.12,0.407,-0.183,0.0,-2.319,15.925,-64.495,-137.615,-25.7,-12.327,5.313,24.79,0.37216,-0.45035,-0.30014,-0.754,103,0.892,0.107,0.418,-0.427,-4.211,-1.282,13.403,-63.446,137.285,-23.173,-12.287,-17.833,29.19,0.2493,0.51782,-0.0968,0.81256,101,0.975,0.044,0.029,-1.16,5.249,-0.488,42.242,-86.567,154.407,-30.667,-11.4,1.94,29.43,0.09341,-0.68207,-0.11511,-0.71603,97
26,1.015,0.057,0.065,-0.427,-2.991,-0.061,34.739,-84.501,115.692,-26.407,-8.987,-6.233,25.82,-0.20544,-0.66006,0.15366,-0.70596,104,0.92,0.117,0.397,0.0,0.061,-2.258,16.013,-64.49,-137.725,-25.7,-12.327,5.313,24.79,0.37216,-0.45035,-0.30014,-0.754,112,0.907,0.105,0.413,0.0,-4.089,-1.465,13.497,-63.523,137.192,-23.173,-12.287,-17.833,29.19,0.2493,0.51782,-0.0968,0.81256,108,0.987,0.042,0.018,-1.282,4.15,-0.549,41.347,-86.495,155.253,-30.667,-11.4,1.94,29.43,0.09341,-0.68207,-0.11511,-0.71603,106
27,1.025,0.059,0.065,-0.488,-2.014,-0.061,34.986,-84.534,115.378,-26.407,-8.987,-6.233,25.82,-0.20544,-0.66006,0.15366,-0.70596,105,0.93,0.122,0.396,0.366,-0.916,-2.014,16.117,-64.501,-137.829,-25.7,-12.327,5.313,24.79,0.37216,-0.45035,-0.30014,-0.754,113,0.917,0.108,0.41,0.366,-4.15,-1.282,13.601,-63.605,137.082,-23.173,-12.287,-17.833,29.19,0.2493,0.51782,-0.0968,0.81256,109,0.999,0.041,0.031,-0.977,3.54,-0.671,40.737,-86.435,155.808,-30.667,-11.4,1.94,29.43,0.09341,-0.68207,-0.11511,-0.71603,107
28,1.027,0.06,0.074,-0.793,-0.122,-0.061,35.013,-84.54,115.28,-26.407,-8.987,-6.233,25.82,-0.20544,-0.66006,0.15366,-0.70596,114,0.928,0.124,0.402,0.061,-0.732,-1.77,16.199,-64.517,-137.917,-25.7,-12.327,5.313,24.79,0.37216,-0.45035,-0.30014,-0.754,116,0.916,0.109,0.408,0.0,-3.723,-0.916,13.683,-63.682,136.989,-23.173,-12.287,-17.833,29.19,0.2493,0.51782,-0.0968,0.81256,126,0.999,0.04,0.047,-0.916,4.333,-0.916,40.248,-86.375,156.259,-30.56,-11.273,1.633,29.43,0.09341,-0.68207,-0.11511,-0.71603,110
29,1.02,0.057,0.082,-1.038,0.854,-0.061,34.92,-84.523,115.318,-26.407,-8.987,-6.233,25.82,-0.20544,-0.66006,0.15366,-0.70596,115,0.919,0.126,0.408,-0.61,0.427,-1.831,16.26,-64.506,-137.994,-25.7,-12.327,5.313,24.79,0.37216,-0.45035,-0.30014,-0.754,117,0.908,0.108,0.411,-0.671,-2.625,-0.977,13.744,-63.743,136.917,-23.173,-12.287,-17.833,29.19,0.2493,0.51782,-0.0968,0.81256,127,0.989,0.04,0.054,-1.16,5.066,-1.038,39.655,-86.303,156.819,-30.56,-11.273,1.633,29.43,0.09341,-0.68207,-0.11511,-0.71603,111
30,1.013,0.055,0.082,-0.977,0.305,0.0,34.876,-84.518,115.323,-26.407,-8.987,-6.233,25.82,-0.20544,-0.66006,0.15366,-0.70596,118,0.907,0.125,0.41,-1.16,1.892,-2.075,16.304,-64.468,-138.071,-25.7,-12.327,5.313,24.79,0.37216,-0.45035,-0.30014,-0.754,122,0.896,0.107,0.413,-1.038,-1.465,-1.465,13.799,-63.776,136.813,-22.76,-12.573,-17.407,29.19,0.2493,0.51782,-0.0968,0.81256,130,0.98,0.043,0.055,-1.953,5.31,-0.977,38.969,-86.215,157.495,-30.56,-11.273,1.633,29.43,0.09341,-0.68207,-0.11511,-0.71603,120
31,1.011,0.055,0.08,-0.793,-0.549,0.0,34.937,-84.529,115.236,-26.407,-8.987,-6.233,25.82,-0.20544,-0.66006,0.15366,-0.70596,119,0.904,0.12,0.407,-1.16,2.258,-2.319,16.348,-64.418,-138.159,-25.7,-12.327,5.313,24.79,0.37216,-0.45035,-0.30014,-0.754,123,0.894,0.105,0.414,-0.854,-0.366,-2.075,13.876,-63.787,136.697,-22.76,-12.573,-17.407,29.19,0.2493,0.51782,-0.0968,0.81256,131,0.979,0.043,0.041,-2.441,4.883,-0.977,38.26,-86.127,158.176,-30.56,-11.273,1.633,29.43,0.09341,-0.68207,-0.11511,-0.71603,121
32,1.016,0.056,0.071,-0.549,-0.732,-0.061,35.035,-84.54,115.115,-26.407,-8.987,-6.233,25.82,-0.20544,-0.66006,0.15366,-0.70596,124,0.912,0.118,0.402,-0.977,1.953,-2.441,16.408,-64.38,-138.246,-25.7,-12.327,5.313,24.79,0.37216,-0.45035,-0.30014,-0.754,134,0.902,0.103,0.413,-0.916,0.122,-2.258,13.947,-63.781,136.599,-22.76,-12.573,-17.407,29.19,0.2493,0.51782,-0.0968,0.81256,138,0.985,0.042,0.045,-1.465,4.456,-0.977,37.661,-86.045,158.752,-30.56,-11.273,1.633,29.43,0.08914,-0.67889,-0.11304,-0.71991,128
33,1.019,0.057,0.076,-0.549,0.366,-0.183,35.024,-84.534,115.076,-26.407,-8.987,-6.233,25.82,-0.20544,-0.66006,0.15366,-0.70596,125,0.912,0.122,0.407,-0.732,1.587,-2.502,16.474,-64.341,-138.34,-25.7,-12.327,5.313,24.79,0.37216,-0.45035,-0.30014,-0.754,135,0.902,0.107,0.413,-0.488,0.244,-2.441,14.035,-63.776,136.5,-22.76,-12.573,-17.407,29.19,0.2493,0.51782,-0.0968,0.81256,139,0.989,0.042,0.055,-1.404,4.822,-0.916,37.145,-85.968,159.28,-30.56,-11.273,1.633,29.43,0.08914,-0.67889,-0.11304,-0.71991,129
34,1.017,0.055,0.081,-0.732,0.977,-0.183,34.937,-84.518,115.109,-26.407,-8.987,-6.233,25.82,-0.20544,-0.66006,0.15366,-0.70596,136,0.904,0.127,0.412,-0.488,1.77,-2.136,16.529,-64.308,-138.417,-25.7,-12.327,5.313,24.79,0.37216,-0.45035,-0.30014,-0.754,142,0.895,0.115,0.416,-0.122,0.732,-2.319,14.123,-63.759,136.423,-22.76,-12.573,-17.407,29.19,0.25256,0.52539,-0.09756,0.80658,144,0.985,0.041,0.062,-1.526,5.249,-0.854,36.557,-85.886,159.846,-30.56,-11.273,1.633,29.43,0.08914,-0.67889,-0.11304,-0.71991,132
35,1.014,0.053,0.079,-0.793,0.732,-0.061,34.849,-84.507,115.126,-26.407,-8.987,-6.233,25.82,-0.20544,-0.66006,0.15366,-0.70596,137,0.902,0.124,0.416,-0.549,2.197,-1.831,16.567,-64.265,-138.483,-25.7,-12.327,5.313,24.79,0.37216,-0.45035,-0.30014,-0.754,143,0.893,0.111,0.42,-0.366,1.282,-2.075,14.189,-63.732,136.346,-22.76,-12.573,-17.407,29.19,0.25256,0.52539,-0.09756,0.80658,145,0.979,0.04,0.06,-1.526,5.31,-0.916,35.925,-85.798,160.461,-30.56,-11.273,1.633,29.43,0.08914,-0.67889,-0.11304,-0.71991,133
36,1.014,0.055,0.077,-0.732,0.122,-0.061,34.838,-84.507,115.049,-26.613,-8.7,-7.46,25.82,-0.20544,-0.66006,0.15366,-0.70596,146,0.905,0.127,0.414,-0.549,2.258,-1.709,16.6,-64.215,-138.538,-25.7,-12.327,5.313,24.79,0.37216,-0.45035,-0.30014,-0.754,150,0.895,0.115,0.421,-0.549,1.77,-2.075,14.244,-63.693,136.263,-22.76,-12.573,-17.407,29.19,0.25256,0.52539,-0.09756,0.80658,156,0.981,0.043,0.051,-1.221,4.639,-0.732,35.343,-85.715,160.994,-30.56,-11.273,1.633,29.43,0.08914,-0.67889,-0.11304,-0.71991,140
37,1.019,0.053,0.072,-0.61,0.061,-0.061,34.838,-84.507,114.961,-26.613,-8.7,-7.46,25.82,-0.20544,-0.66006,0.15366,-0.70596,147,0.913,0.127,0.414,-0.671,1.709,-1.343,16.622,-64.182,-138.576,-25.7,-12.327,5.313,24.79,0.37216,-0.45035,-0.30014,-0.754,151,0.904,0.117,0.418,-0.916,2.197,-1.831,14.282,-63.649,136.192,-22.76,-12.573,-17.407,29.19,0.25256,0.52539,-0.09756,0.80658,157,0.988,0.041,0.048,-0.732,3.784,-0.61,34.882,-85.644,161.406,-30.56,-11.273,1.633,29.43,0.08914,-0.67889,-0.11304,-0.71991,141
38,1.023,0.054,0.069,-0.488,0.793,-0.122,34.766,-84.496,114.977,-26.613,-8.7,-7.46,25.82,-0.21024,-0.65991,0.15829,-0.70364,152,0.916,0.129,0.412,-0.854,1.953,-0.793,16.617,-64.149,-138.587,-25.747,-12.693,4.9,24.79,0.37216,-0.45035,-0.30014,-0.754,154,0.907,0.119,0.417,-0.977,2.38,-1.282,14.299,-63.605,136.132,-22.76,-12.573,-17.407,29.19,0.25256,0.52539,-0.09756,0.80658,162,0.993,0.038,0.058,0.0,3.296,-0.61,34.53,-85.589,161.719,-30.56,-11.273,1.633,29.43,0.08914,-0.67889,-0.11304,-0.71991,148
39,1.021,0.052,0.076,-0.366,1.648,-0.183,34.612,-84.468,115.104,-26.613,-8.7,-7.46,25.82,-0.21024,-0.65991,0.15829,-0.70364,153,0.909,0.128,0.415,-0.793,2.319,-0.244,16.589,-64.111,-138.571,-25.747,-12.693,4.9,24.79,0.37216,-0.45035,-0.30014,-0.754,155,0.899,0.116,0.419,-0.854,2.625,-0.793,14.293,-63.561,136.082,-22.76,-12.573,-17.407,29.19,0.25256,0.52539,-0.09756,0.80658,163,0.989,0.04,0.068,0.366,3.601,-0.61,34.206,-85.534,162.026,-30.56,-11.273,1.633,29.43,0.08914,-0.67889,-0.11304,-0.71991,149
40,1.016,0.053,0.08,-0.183,1.709,-0.183,34.448,-84.441,115.247,-26.613,-8.7,-7.46,25.82,-0.21024,-0.65991,0.15829,-0.70364,158,0.897,0.129,0.417,-0.61,2.808,0.0,16.545,-64.061,-138.538,-25.747,-12.693,4.9,24.79,0.37216,-0.45035,-0.30014,-0.754,166,0.891,0.116,0.422,-0.854,3.235,-0.549,14.277,-63.506,136.055,-22.76,-12.573,-17.407,29.19,0.25256,0.52539,-0.09756,0.80658,164,0.981,0.045,0.068,0.244,3.906,-0.488,33.821,-85.468,162.4,-30.56,-11.273,1.633,29.43,0.08914,-0.67889,-0.11304,-0.71991,160
41,1.013,0.056,0.08,-0.122,0.732,-0.061,34.382,-84.43,115.296,-26.613,-8.7,-7.46,25.82,-0.21024,-0.65991,0.15829,-0.70364,159,0.901,0.125,0.412,-1.038,2.502,0.0,16.501,-64.017,-138.505,-25.747,-12.693,4.9,24.79,0.37216,-0.45035,-0.30014,-0.754,167,0.887,0.115,0.423,-0.916,3.784,-0.61,14.255,-63.441,136.022,-22.76,-12.573,-17.407,29.19,0.25256,0.52539,-0.09756,0.80658,165,0.978,0.044,0.061,0.0,3.479,-0.366,33.431,-85.408,162.773,-30.56,-11.273,1.633,29.43,0.08914,-0.67889,-0.11304,-0.71991,161
42,1.017,0.055,0.07,-0.183,0.061,0.0,34.387,-84.435,115.291,-26.613,-8.7,-7.46,25.82,-0.21024,-0.65991,0.15829,-0.70364,168,0.905,0.126,0.415,-1.282,2.075,-0.061,16.463,-63.979,-138.483,-25.747,-12.693,4.9,24.79,0.36838,-0.44748,-0.29968,-0.75772,178,0.891,0.112,0.422,-1.16,3.723,-0.671,14.233,-63.375,135.978,-22.76,-12.573,-17.407,29.19,0.25256,0.52539,-0.09756,0.80658,172,0.982,0.042,0.053,0.122,2.747,-0.305,33.113,-85.358,163.076,-30.56,-11.273,1.633,29.43,0.08914,-0.67889,-0.11304,-0.71991,170
43,1.019,0.054,0.073,-0.061,0.61,0.0,34.332,-84.43,115.351,-26.613,-8.7,-7.46,25.82,-0.21024,-0.65991,0.15829,-0.70364,169,0.906,0.127,0.419,-1.343,2.258,-0.183,16.419,-63.94,-138.466,-25.747,-12.693,4.9,24.79,0.36838,-0.44748,-0.29968,-0.75772,179,0.895,0.113,0.423,-1.343,3.296,-0.61,14.205,-63.314,135.934,-22.76,-12.573,-17.407,29.19,0.25256,0.52539,-0.09756,0.80658,173,0.986,0.045,0.059,0.366,2.563,-0.244,32.855,-85.32,163.317,-30.56,-11.273,1.633,29.43,0.08914,-0.67889,-0.11304,-0.71991,171
44,1.018,0.056,0.08,-0.061,1.648,-0.122,34.184,-84.402,115.521,-26.613,-8.7,-7.46,25.82,-0.21024,-0.65991,0.15829,-0.70364,176,0.9,0.129,0.424,-1.648,2.625,-0.305,16.381,-63.902,-138.45,-25.747,-12.693,4.9,24.79,0.36838,-0.44748,-0.29968,-0.75772,184,0.894,0.114,0.425,-1.465,3.113,-0.549,14.178,-63.259,135.884,-22.76,-12.573,-17.407,29.19,0.25256,0.52539,-0.09756,0.80658,180,0.987,0.047,0.07,0.0,3.296,-0.244,32.569,-85.27,163.63,-30.56,-11.273,1.633,29.43,0.08914,-0.67889,-0.11304,-0.71991,174
45,1.014,0.059,0.085,-0.305,2.014,-0.122,33.986,-84.37,115.708,-26.613,-8.7,-7.46,25.82,-0.21024,-0.65991,0.15829,-0.70364,177,0.895,0.127,0.426,-1.892,3.113,-0.366,16.337,-63.853,-138.422,-25.747,-12.693,4.9,24.79,0.36838,-0.44748,-0.29968,-0.75772,185,0.888,0.115,0.43,-1.709,3.357,-0.732,14.15,-63.199,135.846,-22.76,-12.573,-17.407,29.19,0.25256,0.52539,-0.09756,0.80658,181,0.984,0.048,0.078,-0.366,3.967,-0.061,32.173,-85.215,164.053,-30.56,-11.273,1.633,29.43,0.08914,-0.67889,-0.11304,-0.71991,175
46,1.013,0.057,0.085,-0.61,1.526,-0.244,33.86,-84.348,115.829,-26.613,-8.7,-7.46,25.82,-0.21024,-0.65991,0.15829,-0.70364,186,0.894,0.123,0.426,-1.77,3.052,-0.366,16.282,-63.798,-138.395,-25.747,-12.693,4.9,24.79,0.36838,-0.44748,-0.29968,-0.75772,188,0.883,0.114,0.432,-2.075,3.662,-0.916,14.117,-63.133,135.829,-22.76,-12.573,-17.407,29.19,0.25256,0.52539,-0.09756,0.80658,190,0.979,0.048,0.076,-0.427,4.089,0.0,31.701,-85.15,164.531,-30.56,-11.273,1.633,29.43,0.08914,-0.67889,-0.11304,-0.71991,182
47,1.012,0.056,0.083,-0.671,0.793,-0.183,33.805,-84.331,115.889,-26.613,-8.7,-7.46,25.82,-0.21024,-0.65991,0.15829,-0.70364,187,0.894,0.121,0.426,-1.099,2.808,-0.183,16.238,-63.743,-138.367,-25.747,-12.693,4.9,24.79,0.36838,-0.44748,-0.29968,-0.75772,189,0.883,0.112,0.438,-1.953,3.784,-1.221,14.095,-63.062,135.775,-22.76,-12.573,-17.407,29.19,0.25256,0.52539,-0.09756,0.80658,191,0.979,0.044,0.069,-0.427,3.723,0.0,31.251,-85.089,164.954,-30.56,-11.273,1.633,29.43,0.08914,-0.67889,-0.11304,-0.71991,183
48,1.016,0.057,0.079,-0.366,0.61,-0.183,33.772,-84.326,115.939,-26.613,-8.7,-7.46,25.82,-0.21024,-0.65991,0.15829,-0.70364,192,0.9,0.122,0.424,-0.732,2.502,-0.122,16.199,-63.693,-138.334,-25.747,-12.693,4.9,24.79,0.36838,-0.44748,-0.29968,-0.75772,194,0.882,0.11,0.438,-1.343,3.418,-0.793,14.079,-62.996,135.742,-22.76,-12.573,-17.407,29.19,0.25256,0.52539,-0.09756,0.80658,198,0.983,0.048,0.071,0.305,3.418,-0.061,30.866,-85.029,165.295,-30.26,-11.48,0.767,29.43,0.08914,-0.67889,-0.11304,-0.71991,196
49,1.016,0.059,0.082,-0.366,0.977,0.0,33.679,-84.309,116.054,-26.613,-8.7,-7.46,25.82,-0.21024,-0.65991,0.15829,-0.70364,193,0.896,0.13,0.429,-0.977,2.502,-0.488,16.166,-63.644,-138.323,-25.747,-12.693,4.9,24.79,0.36838,-0.44748,-0.29968,-0.75772,195,0.887,0.108,0.435,-1.16,2.869,-0.549,14.052,-62.946,135.731,-22.76,-12.573,-17.407,29.19,0.25256,0.52539,-0.09756,0.80658,199,0.983,0.045,0.075,-0.122,3.296,-0.122,30.531,-84.974,165.602,-30.26,-11.48,0.767,29.43,0.08914,-0.67889,-0.11304,-0.71991,197
50,1.011,0.055,0.088,-0.671,1.587,0.0,33.508,-84.287,116.241,-26.893,-8.747,-6.22,25.82,-0.21024,-0.65991,0.15829,-0.70364,200,0.897,0.125,0.429,-1.221,2.686,-0.61,16.139,-63.6,-138.312,-25.747,-12.693,4.9,24.79,0.36838,-0.44748,-0.29968,-0.75772,204,0.885,0.115,0.437,-1.038,2.747,-0.977,14.052,-62.891,135.687,-22.913,-12.347,-17.427,29.19,0.25256,0.52539,-0.09756,0.80658,210,0.983,0.047,0.079,-0.366,3.845,0.0,30.168,-84.913,165.943,-30.26,-11.48,0.767,29.43,0.08725,-0.67047,-0.11087,-0.72833,202
51,1.011,0.056,0.084,-0.549,1.404,0.0,33.338,-84.26,116.411,-26.893,-8.747,-6.22,25.82,-0.21024,-0.65991,0.15829,-0.70364,201,0.899,0.122,0.426,-1.16,2.686,-0.427,16.111,-63.545,-138.307,-25.747,-12.693,4.9,24.79,0.36838,-0.44748,-0.29968,-0.75772,205,0.885,0.115,0.439,-0.916,2.625,-1.099,14.057,-62.842,135.643,-22.913,-12.347,-17.427,29.19,0.25256,0.52539,-0.09756,0.80658,211,0.978,0.047,0.081,-0.916,4.333,0.0,29.734,-84.847,166.355,-30.26,-11.48,0.767,29.43,0.08725,-0.67047,-0.11087,-0.72833,203
52,1.016,0.057,0.088,-0.305,1.16,0.0,33.195,-84.238,116.565,-26.893,-8.747,-6.22,25.82,-0.21024,-0.65991,0.15829,-0.70364,206,0.896,0.124,0.432,-1.465,2.502,-0.366,16.078,-63.495,-138.296,-25.747,-12.693,4.9,24.79,0.36838,-0.44748,-0.29968,-0.75772,218,0.886,0.111,0.438,-0.977,2.136,-0.61,14.046,-62.803,135.621,-22.913,-12.347,-17.427,29.19,0.26093,0.51816,-0.09866,0.80844,214,0.983,0.046,0.079,-0.488,4.15,0.061,29.295,-84.776,166.767,-30.26,-11.48,0.767,29.43,0.08725,-0.67047,-0.11087,-0.72833,208
53,1.015,0.058,0.091,-0.427,1.343,0.0,33.069,-84.221,116.675,-26.893,-8.747,-6.22,25.82,-0.21024,-0.65991,0.15829,-0.70364,207,0.889,0.126,0.434,-2.075,2.808,-0.549,16.035,-63.446,-138.279,-25.747,-12.693,4.9,24.79,0.36838,-0.44748,-0.29968,-0.75772,219,0.884,0.112,0.442,-1.526,1.648,-0.305,14.019,-62.776,135.604,-22.913,-12.347,-17.427,29.19,0.26093,0.51816,-0.09866,0.80844,215,0.985,0.043,0.084,-0.549,4.517,0.0,28.856,-84.705,167.184,-30.26,-11.48,0.767,29.43,0.08725,-0.67047,-0.11087,-0.72833,209
54,1.013,0.055,0.095,-0.61,1.038,0.0,32.932,-84.199,116.807,-26.893,-8.747,-6.22,25.82,-0.21075,-0.65805,0.15768,-0.70541,216,0.885,0.125,0.432,-2.625,2.93,-0.793,15.985,-63.391,-138.279,-25.7,-12.633,4.273,24.79,0.36838,-0.44748,-0.29968,-0.75772,222,0.877,0.113,0.442,-2.625,1.221,-0.366,13.975,-62.754,135.577,-22.913,-12.347,-17.427,29.19,0.26093,0.51816,-0.09866,0.80844,224,0.984,0.045,0.09,-1.099,5.127,-0.061,28.378,-84.617,167.635,-30.26,-11.48,0.767,29.43,0.08725,-0.67047,-0.11087,-0.72833,212
55,1.011,0.052,0.094,-0.793,0.244,0.0,32.827,-84.183,116.922,-26.893,-8.747,-6.22,25.82,-0.21075,-0.65805,0.15768,-0.70541,217,0.882,0.118,0.437,-3.296,2.441,-0.854,15.936,-63.336,-138.279,-25.7,-12.633,4.273,24.79,0.36838,-0.44748,-0.29968,-0.75772,223,0.874,0.112,0.442,-2.93,0.671,-0.427,13.931,-62.737,135.538,-22.913,-12.347,-17.427,29.19,0.26093,0.51816,-0.09866,0.80844,225,0.978,0.046,0.095,-1.709,5.859,0.183,27.784,-84.523,168.223,-30.26,-11.48,0.767,29.43,0.08725,-0.67047,-0.11087,-0.72833,213
56,1.011,0.054,0.087,-0.732,-0.305,0.0,32.8,-84.183,116.955,-26.893,-8.747,-6.22,25.82,-0.21075,-0.65805,0.15768,-0.70541,226,0.883,0.117,0.441,-3.296,1.465,-1.038,15.881,-63.292,-138.285,-25.7,-12.633,4.273,24.79,0.36838,-0.44748,-0.29968,-0.75772,230,0.871,0.106,0.449,-3.174,0.305,-0.488,13.887,-62.732,135.5,-22.913,-12.347,-17.427,29.19,0.26093,0.51816,-0.09866,0.80844,228,0.974,0.042,0.091,-1.892,6.592,0.488,27.087,-84.413,168.904,-30.26,-11.48,0.767,29.43,0.08725,-0.67047,-0.11087,-0.72833,220
57,1.017,0.059,0.08,-0.671,-0.122,0.0,32.805,-84.188,116.977,-26.893,-8.747,-6.22,25.82,-0.21075,-0.65805,0.15768,-0.70541,227,0.893,0.12,0.438,-2.319,0.671,-1.221,15.848,-63.259,-138.307,-25.7,-12.633,4.273,24.79,0.36838,-0.44748,-0.29968,-0.75772,231,0.874,0.105,0.453,-3.052,-0.366,-0.488,13.854,-62.737,135.472,-22.913,-12.347,-17.427,29.19,0.26093,0.51816,-0.09866,0.80844,229,0.974,0.045,0.085,-0.977,6.165,0.305,26.45,-84.304,169.536,-30.26,-11.48,0.767,29.43,0.08725,-0.67047,-0.11087,-0.72833,221
58,1.021,0.059,0.077,-0.916,0.61,0.0,32.783,-84.183,117.01,-26.893,-8.747,-6.22,25.82,-0.21075,-0.65805,0.15768,-0.70541,234,0.902,0.121,0.44,-1.404,0.061,-0.916,15.842,-63.243,-138.345,-25.7,-12.633,4.273,24.79,0.36749,-0.44363,-0.2944,-0.76245,236,0.884,0.109,0.448,-2.38,-1.343,-0.488,13.837,-62.759,135.439,-22.913,-12.347,-17.427,29.19,0.26093,0.51816,-0.09866,0.80844,242,0.98,0.048,0.08,-0.427,4.761,0.305,25.961,-84.221,170.052,-30.26,-11.48,0.767,29.43,0.08725,-0.67047,-0.11087,-0.72833,232
59,1.021,0.056,0.083,-0.977,1.892,0.0,32.673,-84.172,117.131,-26.893,-8.747,-6.22,25.82,-0.21075,-0.65805,0.15768,-0.70541,235,0.901,0.121,0.443,-1.343,0.122,-0.366,15.842,-63.237,-138.367,-25.7,-12.633,4.273,24.79,0.36749,-0.44363,-0.2944,-0.76245,237,0.893,0.111,0.445,-1.587,-1.526,-0.366,13.832,-62.781,135.401,-22.913,-12.347,-17.427,29.19,0.26093,0.51816,-0.09866,0.80844,243,0.986,0.04,0.082,-0.488,3.723,0.427,25.576,-84.155,170.458,-30.26,-11.48,0.767,29.43,0.08725,-0.67047,-0.11087,-0.72833,233
60,1.017,0.052,0.086,-0.671,2.38,0.0,32.459,-84.139,117.339,-26.893,-8.747,-6.22,25.82,-0.21075,-0.65805,0.15768,-0.70541,238,0.892,0.119,0.442,-1.221,0.122,0.366,15.82,-63.232,-138.362,-25.7,-12.633,4.273,24.79,0.36749,-0.44363,-0.2944,-0.76245,244,0.892,0.113,0.447,-1.343,-1.282,0.0,13.821,-62.803,135.401,-22.913,-12.347,-17.427,29.19,0.26093,0.51816,-0.09866,0.80844,246,0.987,0.037,0.098,-0.122,3.662,0.183,25.247,-84.095,170.788,-30.26,-11.48,0.767,29.43,0.08725,-0.67047,-0.11087,-0.72833,240
61,1.014,0.055,0.085,-0.305,1.709,-0.305,32.239,-84.1,117.565,-26.893,-8.747,-6.22,25.82,-0.21075,-0.65805,0.15768,-0.70541,239,0.888,0.119,0.438,-0.549,0.0,0.671,15.776,-63.232,-138.318,-25.7,-12.633,4.273,24.79,0.36749,-0.44363,-0.2944,-0.76245,245,0.883,0.11,0.444,-1.282,-1.16,0.671,13.782,-62.831,135.478,-22.913,-12.347,-17.427,29.19,0.26093,0.51816,-0.09866,0.80844,247,0.983,0.036,0.098,-0.061,3.723,-0.122,24.966,-84.029,171.068,-30.26,-11.48,0.767,29.43,0.08725,-0.67047,-0.11087,-0.72833,241
62,1.016,0.056,0.081,-0.183,0.977,-0.183,32.135,-84.073,117.697,-26.893,-8.747,-6.22,25.82,-0.21075,-0.65805,0.15768,-0.70541,248,0.894,0.119,0.434,0.488,-0.305,0.732,15.743,-63.237,-138.268,-25.7,-12.633,4.273,24.79,0.36749,-0.44363,-0.2944,-0.76245,254,0.879,0.107,0.441,-0.732,-0.916,0.732,13.755,-62.847,135.533,-22.913,-12.347,-17.427,29.19,0.26093,0.51816,-0.09866,0.80844,252,0.978,0.042,0.097,0.183,3.235,-0.427,24.769,-83.974,171.26,-30.26,-11.48,0.767,29.43,0.08725,-0.67047,-0.11087,-0.72833,250
63,1.018,0.055,0.083,-0.244,1.099,-0.061,32.069,-84.062,117.779,-26.893,-8.747,-6.22,25.82,-0.21075,-0.65805,0.15768,-0.70541,249,0.899,0.12,0.435,1.404,-0.305,0.916,15.727,-63.243,-138.214,-25.7,-12.633,4.273,24.79,0.36749,-0.44363,-0.2944,-0.76245,255,0.886,0.107,0.438,0.427,-1.038,0.732,13.744,-62.869,135.588,-22.913,-12.347,-17.427,29.19,0.26093,0.51816,-0.09866,0.80844,253,0.979,0.045,0.09,0.0,2.319,-0.305,24.631,-83.925,171.403,-30.26,-11.48,0.767,29.43,0.08725,-0.67047,-0.11087,-0.72833,251
64,1.018,0.055,0.086,-0.183,1.709,0.0,31.959,-84.04,117.85,-26.893,-8.747,-6.22,25.82,-0.21075,-0.65805,0.15768,-0.70541,258,0.896,0.12,0.438,1.648,-0.549,1.16,15.716,-63.254,-138.142,-25.7,-12.633,4.273,24.79,0.36749,-0.44363,-0.2944,-0.76245,260,0.889,0.109,0.438,1.587,-1.099,1.099,13.749,-62.891,135.648,-22.913,-12.347,-17.427,29.19,0.26093,0.51816,-0.09866,0.80844,262,0.981,0.045,0.093,0.549,2.075,-0.183,24.521,-83.892,171.552,-30.767,-11.46,0.387,29.43,0.08725,-0.67047,-0.11087,-0.72833,256
65,1.015,0.056,0.089,-0.183,2.014,0.0,31.789,-84.012,117.96,-26.893,-8.747,-6.22,25.82,-0.21075,-0.65805,0.15768,-0.70541,259,0.889,0.124,0.44,1.587,-0.488,0.977,15.71,-63.27,-138.076,-25.7,-12.633,4.273,24.79,0.36749,-0.44363,-0.2944,-0.76245,261,0.886,0.107,0.441,1.526,-0.977,1.404,13.733,-62.919,135.703,-22.913,-12.347,-17.427,29.19,0.26093,0.51816,-0.09866,0.80844,263,0.981,0.042,0.099,0.488,2.075,-0.427,24.445,-83.853,171.656,-30.767,-11.46,0.387,29.43,0.08725,-0.67047,-0.11087,-0.72833,257
66,1.012,0.057,0.09,-0.244,1.648,0.061,31.608,-83.985,118.098,-27.0,-9.0,-7.6,25.82,-0.21075,-0.65805,0.15768,-0.70541,266,0.889,0.125,0.44,1.465,-0.427,0.854,15.71,-63.281,-138.021,-25.7,-12.633,4.273,24.79,0.36749,-0.44363,-0.2944,-0.76245,268,0.879,0.11,0.442,1.221,-0.977,1.221,13.727,-62.941,135.747,-22.913,-12.347,-17.427,29.19,0.26093,0.51816,-0.09866,0.80844,270,0.978,0.045,0.102,0.549,1.709,-0.488,24.406,-83.815,171.749,-30.767,-11.46,0.387,29.43,0.08725,-0.67047,-0.11087,-0.72833,264
67,1.011,0.057,0.087,-0.122,1.282,0.183,31.448,-83.963,118.218,-27.0,-9.0,-7.6,25.82,-0.21075,-0.65805,0.15768,-0.70541,267,0.896,0.126,0.437,1.038,-0.549,0.732,15.705,-63.292,-137.977,-25.7,-12.633,4.273,24.79,0.36749,-0.44363,-0.2944,-0.76245,269,0.881,0.111,0.442,0.732,-0.854,1.038,13.711,-62.963,135.769,-22.913,-12.347,-17.427,29.19,0.26093,0.51816,-0.09866,0.80844,271,0.976,0.046,0.1,0.366,1.465,-0.427,24.379,-83.787,171.815,-30.767,-11.46,0.387,29.43,0.08725,-0.67047,-0.11087,-0.72833,265
68,1.013,0.056,0.088,0.0,1.16,0.183,31.311,-83.947,118.35,-27.0,-9.0,-7.6,25.82,-0.21179,-0.65576,0.15765,-0.70721,272,0.899,0.128,0.437,0.793,-0.793,0.61,15.705,-63.303,-137.95,-25.7,-12.633,4.273,24.79,0.36749,-0.44363,-0.2944,-0.76245,274,0.889,0.113,0.439,0.427,-0.732,0.793,13.7,-62.974,135.769,-23.053,-12.5,-18.28,29.19,0.26093,0.51816,-0.09866,0.80844,280,0.977,0.046,0.096,0.488,0.916,-0.305,24.368,-83.765,171.865,-30.767,-11.46,0.387,29.43,0.08859,-0.66235,-0.11005,-0.73569,276
69,1.015,0.057,0.093,-0.061,1.16,0.122,31.19,-83.93,118.477,-27.0,-9.0,-7.6,25.82,-0.21179,-0.65576,0.15765,-0.70721,273,0.894,0.126,0.441,0.732,-0.854,0.549,15.705,-63.32,-137.922,-25.7,-12.633,4.273,24.79,0.36749,-0.44363,-0.2944,-0.76245,275,0.89,0.114,0.44,0.366,-0.488,0.61,13.694,-62.985,135.758,-23.053,-12.5,-18.28,29.19,0.26093,0.51816,-0.09866,0.80844,281,0.981,0.048,0.105,0.366,0.427,-0.183,24.379,-83.754,171.914,-30.767,-11.46,0.387,29.43,0.08859,-0.66235,-0.11005,-0.73569,277
70,1.013,0.059,0.094,0.0,0.732,0.183,31.086,-83.919,118.608,-27.0,-9.0,-7.6,25.82,-0.21179,-0.65576,0.15765,-0.70721,278,0.887,0.125,0.443,0.488,-0.61,0.305,15.71,-63.331,-137.911,-25.7,-12.633,4.273,24.79,0.36749,-0.44363,-0.2944,-0.76245,290,0.883,0.112,0.443,0.305,-0.305,0.427,13.689,-62.99,135.747,-23.053,-12.5,-18.28,29.19,0.26114,0.51877,-0.1012,0.80768,284,0.981,0.049,0.108,0.183,0.122,0.061,24.373,-83.754,171.969,-30.767,-11.46,0.387,29.43,0.08859,-0.66235,-0.11005,-0.73569,282
71,1.011,0.06,0.097,0.0,0.122,0.183,31.014,-83.908,118.702,-27.0,-9.0,-7.6,25.82,-0.21179,-0.65576,0.15765,-0.70721,279,0.885,0.124,0.443,0.122,-0.305,0.0,15.716,-63.342,-137.906,-25.7,-12.633,4.273,24.79,0.36749,-0.44363,-0.2944,-0.76245,291,0.878,0.109,0.445,0.0,-0.061,0.244,13.689,-62.99,135.747,-23.053,-12.5,-18.28,29.19,0.26114,0.51877,-0.1012,0.80768,285,0.979,0.05,0.11,0.244,-0.122,0.061,24.379,-83.749,171.996,-30.767,-11.46,0.387,29.43,0.08859,-0.66235,-0.11005,-0.73569,283
72,1.008,0.059,0.096,0.0,-0.427,0.305,30.998,-83.914,118.735,-27.0,-9.0,-7.6,25.82,-0.21179,-0.65576,0.15765,-0.70721,286,0.89,0.123,0.435,0.122,-0.427,-0.244,15.727,-63.342,-137.911,-25.56,-12.54,4.333,24.79,0.36749,-0.44363,-0.2944,-0.76245,294,0.876,0.109,0.443,-0.183,0.122,0.0,13.689,-62.985,135.758,-23.053,-12.5,-18.28,29.19,0.26114,0.51877,-0.1012,0.80768,296,0.974,0.05,0.11,-0.244,-0.427,0.244,24.373,-83.754,172.051,-30.767,-11.46,0.387,29.43,0.08859,-0.66235,-0.11005,-0.73569,288
73,1.01,0.056,0.091,-0.122,-0.61,0.305,31.009,-83.925,118.729,-27.0,-9.0,-7.6,25.82,-0.21179,-0.65576,0.15765,-0.70721,287,0.896,0.122,0.433,0.122,-0.916,-0.305,15.749,-63.347,-137.922,-25.56,-12.54,4.333,24.79,0.36749,-0.44363,-0.2944,-0.76245,295,0.882,0.109,0.439,0.0,0.0,-0.244,13.7,-62.979,135.758,-23.053,-12.5,-18.28,29.19,0.26114,0.51877,-0.1012,0.80768,297,0.972,0.05,0.1,-0.366,-1.099,0.366,24.395,-83.776,172.04,-30.767,-11.46,0.387,29.43,0.08859,-0.66235,-0.11005,-0.73569,289
74,1.012,0.055,0.098,-0.061,-0.122,0.244,31.02,-83.936,118.713,-27.0,-9.0,-7.6,25.82,-0.21179,-0.65576,0.15765,-0.70721,298,0.898,0.123,0.436,0.061,-0.732,-0.366,15.771,-63.358,-137.928,-25.56,-12.54,4.333,24.79,0.36749,-0.44363,-0.2944,-0.76245,306,0.888,0.108,0.438,0.122,-0.061,-0.305,13.716,-62.979,135.747,-23.053,-12.5,-18.28,29.19,0.26114,0.51877,-0.1012,0.80768,300,0.979,0.045,0.099,-0.671,-1.282,0.61,24.384,-83.798,172.046,-30.767,-11.46,0.387,29.43,0.08859,-0.66235,-0.11005,-0.73569,292
75,1.012,0.057,0.1,-0.061,0.0,0.183,30.998,-83.941,118.729,-27.0,-9.0,-7.6,25.82,-0.21179,-0.65576,0.15765,-0.70721,299,0.891,0.124,0.438,-0.183,-0.427,-0.427,15.793,-63.364,-137.939,-25.56,-12.54,4.333,24.79,0.36749,-0.44363,-0.2944,-0.76245,307,0.888,0.109,0.438,0.0,0.0,-0.305,13.733,-62.974,135.714,-23.053,-12.5,-18.28,29.19,0.26114,0.51877,-0.1012,0.80768,301,0.981,0.046,0.107,-0.061,-1.221,0.671,24.368,-83.82,172.062,-30.767,-11.46,0.387,29.43,0.08859,-0.66235,-0.11005,-0.73569,293
76,1.01,0.058,0.099,-0.122,-0.427,0.305,30.976,-83.941,118.751,-27.0,-9.0,-7.6,25.82,-0.21179,-0.65576,0.15765,-0.70721,304,0.889,0.121,0.437,-0.305,0.122,-0.549,15.809,-63.358,-137.939,-25.56,-12.54,4.333,24.79,0.36981,-0.44357,-0.29584,-0.7608,314,0.88,0.109,0.44,-0.244,0.366,-0.366,13.744,-62.963,135.709,-23.053,-12.5,-18.28,29.19,0.26114,0.51877,-0.1012,0.80768,308,0.98,0.047,0.112,-0.488,-0.916,0.732,24.302,-83.837,172.134,-30.767,-11.46,0.387,29.43,0.08859,-0.66235,-0.11005,-0.73569,302
77,1.01,0.057,0.095,-0.183,-1.038,0.427,30.976,-83.952,118.74,-27.0,-9.0,-7.6,25.82,-0.21179,-0.65576,0.15765,-0.70721,305,0.894,0.123,0.436,0.0,0.061,-0.732,15.826,-63.347,-137.95,-25.56,-12.54,4.333,24.79,0.36981,-0.44357,-0.29584,-0.7608,315,0.88,0.106,0.439,-0.061,0.549,-0.549,13.76,-62.946,135.698,-23.053,-12.5,-18.28,29.19,0.26114,0.51877,-0.1012,0.80768,309,0.975,0.046,0.106,-0.549,-1.038,0.671,24.258,-83.859,172.2,-30.767,-11.46,0.387,29.43,0.08859,-0.66235,-0.11005,-0.73569,303
78,1.012,0.055,0.093,-0.122,-1.099,0.488,31.003,-83.974,118.707,-27.0,-9.0,-7.6,25.82,-0.21179,-0.65576,0.15765,-0.70721,310,0.893,0.121,0.432,0.366,0.0,-0.671,15.853,-63.342,-137.966,-25.56,-12.54,4.333,24.79,0.36981,-0.44357,-0.29584,-0.7608,322,0.885,0.11,0.441,0.732,0.366,-0.732,13.799,-62.935,135.681,-23.053,-12.5,-18.28,29.19,0.26114,0.51877,-0.1012,0.80768,318,0.976,0.047,0.101,-0.305,-1.343,0.671,24.241,-83.881,172.211,-30.767,-11.46,0.387,29.43,0.08859,-0.66235,-0.11005,-0.73569,312
79,1.015,0.056,0.095,-0.122,-0.854,0.488,31.02,-83.99,118.674,-27.0,-9.0,-7.6,25.82,-0.21179,-0.65576,0.15765,-0.70721,311,0.895,0.123,0.429,0.366,0.0,-0.732,15.886,-63.331,-137.972,-25.56,-12.54,4.333,24.79,0.36981,-0.44357,-0.29584,-0.7608,323,0.884,0.108,0.436,0.549,0.305,-0.427,13.826,-62.924,135.681,-23.053,-12.5,-18.28,29.19,0.26114,0.51877,-0.1012,0.80768,319,0.98,0.046,0.1,-0.488,-1.526,0.916,24.192,-83.908,172.249,-30.767,-11.46,0.387,29.43,0.08859,-0.66235,-0.11005,-0.73569,313
80,1.015,0.053,0.096,-0.122,-0.732,0.427,31.02,-84.007,118.674,-27.0,-9.0,-7.6,25.82,-0.21179,-0.65576,0.15765,-0.70721,316,0.894,0.13,0.434,0.0,0.061,-0.793,15.919,-63.325,-137.983,-25.56,-12.54,4.333,24.79,0.36981,-0.44357,-0.29584,-0.7608,326,0.886,0.109,0.434,0.366,0.488,-0.61,13.854,-62.913,135.654,-23.053,-12.5,-18.28,29.19,0.26114,0.51877,-0.1012,0.80768,324,0.981,0.042,0.1,-0.488,-1.465,0.916,24.137,-83.936,172.304,-30.767,-11.46,0.387,29.43,0.08859,-0.66235,-0.11005,-0.73569,320
81,1.012,0.054,0.091,0.0,-0.977,0.488,31.02,-84.023,118.702,-27.0,-9.0,-7.6,25.82,-0.21179,-0.65576,0.15765,-0.70721,317,0.896,0.128,0.433,-0.061,0.366,-0.671,15.941,-63.314,-137.999,-25.56,-12.54,4.333,24.79,0.36981,-0.44357,-0.29584,-0.7608,327,0.885,0.116,0.437,0.488,0.732,-0.916,13.892,-62.897,135.61,-23.053,-12.5,-18.28,29.19,0.26114,0.51877,-0.1012,0.80768,325,0.98,0.043,0.1,-0.366,-0.916,1.038,24.022,-83.958,172.43,-30.767,-11.46,0.387,29.43,0.08859,-0.66235,-0.11005,-0.73569,321
82,1.016,0.056,0.086,0.061,-1.099,0.61,31.025,-84.045,118.696,-26.267,-9.107,-6.56,25.82,-0.21179,-0.65576,0.15765,-0.70721,330,0.901,0.125,0.429,0.0,0.0,-0.366,15.963,-63.309,-138.016,-25.56,-12.54,4.333,24.79,0.36981,-0.44357,-0.29584,-0.7608,334,0.888,0.117,0.436,0.488,0.61,-0.854,13.936,-62.88,135.588,-23.053,-12.5,-18.28,29.19,0.26114,0.51877,-0.1012,0.80768,336,0.979,0.045,0.093,-0.183,-0.549,0.977,23.895,-83.969,172.573,-30.26,-11.327,0.14,29.43,0.08859,-0.66235,-0.11005,-0.73569,328
83,1.018,0.057,0.087,-0.061,-0.916,0.671,31.02,-84.067,118.702,-26.267,-9.107,-6.56,25.82,-0.21179,-0.65576,0.15765,-0.70721,331,0.899,0.124,0.432,-0.122,-0.305,-0.244,15.974,-63.309,-138.021,-25.56,-12.54,4.333,24.79,0.36981,-0.44357,-0.29584,-0.7608,335,0.892,0.113,0.438,0.183,0.427,-0.488,13.958,-62.869,135.604,-23.053,-12.5,-18.28,29.19,0.26114,0.51877,-0.1012,0.80768,337,0.984,0.043,0.094,-0.366,-0.854,1.099,23.774,-83.99,172.694,-30.26,-11.327,0.14,29.43,0.08859,-0.66235,-0.11005,-0.73569,329
84,1.018,0.057,0.087,-0.244,-0.793,0.61,31.003,-84.084,118.691,-26.267,-9.107,-6.56,25.82,-0.21078,-0.65634,0.15814,-0.70688,338,0.895,0.122,0.428,-0.122,-0.122,-0.122,15.985,-63.309,-138.027,-25.56,-12.54,4.333,24.79,0.36981,-0.44357,-0.29584,-0.7608,340,0.888,0.111,0.436,-0.488,0.366,-0.305,13.958,-62.864,135.621,-22.96,-12.34,-17.127,29.19,0.26114,0.51877,-0.1012,0.80768,342,0.985,0.042,0.093,-0.549,-0.854,1.038,23.659,-84.007,172.798,-30.26,-11.327,0.14,29.43,0.08859,-0.66235,-0.11005,-0.73569,332
85,1.017,0.056,0.087,-0.366,-0.977,0.427,31.009,-84.106,118.652,-26.267,-9.107,-6.56,25.82,-0.21078,-0.65634,0.15814,-0.70688,339,0.898,0.122,0.425,-0.244,-0.122,-0.122,15.985,-63.314,-138.027,-25.56,-12.54,4.333,24.79,0.36981,-0.44357,-0.29584,-0.7608,341,0.885,0.108,0.432,-0.671,0.488,-0.305,13.958,-62.853,135.643,-22.96,-12.34,-17.127,29.19,0.26114,0.51877,-0.1012,0.80768,343,0.983,0.04,0.092,-0.977,-0.671,0.793,23.56,-84.023,172.864,-30.26,-11.327,0.14,29.43,0.08859,-0.66235,-0.11005,-0.73569,333
86,1.016,0.055,0.085,-0.549,-1.038,0.427,31.042,-84.128,118.592,-26.267,-9.107,-6.56,25.82,-0.21078,-0.65634,0.15814,-0.70688,344,0.9,0.121,0.425,-0.305,-0.122,-0.122,15.985,-63.314,-138.038,-25.56,-12.54,4.333,24.79,0.36981,-0.44357,-0.29584,-0.7608,346,0.889,0.108,0.431,-0.427,0.427,-0.244,13.958,-62.847,135.643,-22.96,-12.34,-17.127,29.19,0.26114,0.51877,-0.1012,0.80768,348,0.981,0.041,0.09,-0.977,-0.61,0.671,23.483,-84.04,172.914,-30.26,-11.327,0.14,29.43,0.09116,-0.6633,-0.11075,-0.73441,352
87,1.017,0.052,0.083,-0.732,-0.793,0.427,31.058,-84.144,118.548,-26.267,-9.107,-6.56,25.82,-0.21078,-0.65634,0.15814,-0.70688,345,0.9,0.12,0.425,-0.183,-0.122,-0.061,15.985,-63.32,-138.054,-25.56,-12.54,4.333,24.79,0.36981,-0.44357,-0.29584,-0.7608,347,0.89,0.108,0.431,-0.244,0.366,-0.061,13.958,-62.842,135.637,-22.96,-12.34,-17.127,29.19,0.26114,0.51877,-0.1012,0.80768,349,0.981,0.04,0.088,-0.793,-0.671,0.549,23.428,-84.056,172.941,-30.26,-11.327,0.14,29.43,0.09116,-0.6633,-0.11075,-0.73441,353
88,1.018,0.051,0.084,-0.793,-0.549,0.305,31.064,-84.161,118.515,-26.267,-9.107,-6.56,25.82,-0.21078,-0.65634,0.15814,-0.70688,350,0.897,0.12,0.427,-0.183,0.0,0.061,15.985,-63.325,-138.06,-25.56,-12.54,4.333,24.79,0.36981,-0.44357,-0.29584,-0.7608,362,0.89,0.107,0.43,-0.061,0.366,0.061,13.953,-62.842,135.648,-22.96,-12.34,-17.127,29.19,0.26108,0.51831,-0.09933,0.80823,360,0.984,0.038,0.09,-0.732,-0.427,0.488,23.373,-84.067,172.996,-30.26,-11.327,0.14,29.43,0.09116,-0.6633,-0.11075,-0.73441,354
89,1.017,0.05,0.084,-0.61,-0.366,0.122,31.069,-84.172,118.482,-26.267,-9.107,-6.56,25.82,-0.21078,-0.65634,0.15814,-0.70688,351,0.894,0.12,0.43,-0.366,0.122,0.0,15.974,-63.325,-138.06,-25.56,-12.54,4.333,24.79,0.36981,-0.44357,-0.29584,-0.7608,363,0.886,0.106,0.434,-0.122,0.549,0.061,13.947,-62.836,135.659,-22.96,-12.34,-17.127,29.19,0.26108,0.51831,-0.09933,0.80823,361,0.983,0.036,0.09,-0.488,-0.305,0.366,23.324,-84.073,173.035,-30.26,-11.327,0.14,29.43,0.09116,-0.6633,-0.11075,-0.73441,355
90,1.015,0.05,0.084,-0.427,-0.488,0.061,31.091,-84.183,118.433,-26.267,-9.107,-6.56,25.82,-0.21078,-0.65634,0.15814,-0.70688,356,0.894,0.121,0.432,-0.366,0.061,0.0,15.969,-63.325,-138.071,-25.5,-12.733,3.52,24.79,0.36981,-0.44357,-0.29584,-0.7608,366,0.884,0.108,0.437,-0.122,0.549,0.0,13.936,-62.831,135.665,-22.96,-12.34,-17.127,29.19,0.26108,0.51831,-0.09933,0.80823,370,0.981,0.036,0.093,-0.366,-0.244,0.366,23.275,-84.084,173.101,-30.26,-11.327,0.14,29.43,0.09116,-0.6633,-0.11075,-0.73441,358
91,1.015,0.051,0.084,-0.366,-0.61,0.122,31.13,-84.194,118.378,-26.267,-9.107,-6.56,25.82,-0.21078,-0.65634,0.15814,-0.70688,357,0.896,0.119,0.429,0.0,0.061,0.061,15.958,-63.325,-138.076,-25.5,-12.733,3.52,24.79,0.36981,-0.44357,-0.29584,-0.7608,367,0.883,0.109,0.439,0.0,0.305,-0.061,13.942,-62.825,135.676,-22.96,-12.34,-17.127,29.19,0.26108,0.51831,-0.09933,0.80823,371,0.98,0.039,0.09,-0.122,-0.183,0.427,23.22,-84.089,173.161,-30.26,-11.327,0.14,29.43,0.09116,-0.6633,-0.11075,-0.73441,359
92,1.016,0.051,0.084,-0.366,-0.61,0.122,31.168,-84.205,118.334,-26.267,-9.107,-6.56,25.82,-0.21078,-0.65634,0.15814,-0.70688,368,0.903,0.12,0.43,0.0,-0.061,0.183,15.952,-63.331,-138.071,-25.5,-12.733,3.52,24.79,0.36981,-0.44357,-0.29584,-0.7608,376,0.887,0.107,0.437,-0.061,0.061,0.183,13.931,-62.831,135.67,-22.96,-12.34,-17.127,29.19,0.26108,0.51831,-0.09933,0.80823,372,0.982,0.035,0.085,-0.305,-0.061,0.366,23.154,-84.095,173.238,-30.26,-11.327,0.14,29.43,0.09116,-0.6633,-0.11075,-0.73441,364
93,1.018,0.049,0.084,-0.305,-0.244,0.061,31.19,-84.216,118.312,-26.267,-9.107,-6.56,25.82,-0.21078,-0.65634,0.15814,-0.70688,369,0.903,0.122,0.431,0.0,0.0,0.366,15.941,-63.336,-138.06,-25.5,-12.733,3.52,24.79,0.36981,-0.44357,-0.29584,-0.7608,377,0.894,0.107,0.436,-0.061,0.061,0.061,13.931,-62.836,135.654,-22.96,-12.34,-17.127,29.19,0.26108,0.51831,-0.09933,0.80823,373,0.986,0.036,0.093,0.061,0.0,0.366,23.088,-84.1,173.287,-30.26,-11.327,0.14,29.43,0.09116,-0.6633,-0.11075,-0.73441,365
94,1.017,0.051,0.09,-0.183,0.0,0.061,31.185,-84.221,118.328,-26.267,-9.107,-6.56,25.82,-0.21078,-0.65634,0.15814,-0.70688,378,0.896,0.121,0.433,0.488,0.122,0.671,15.919,-63.342,-138.027,-25.5,-12.733,3.52,24.79,0.36963,-0.44324,-0.29626,-0.76096,380,0.892,0.111,0.436,0.244,0.244,0.366,13.92,-62.836,135.648,-22.96,-12.34,-17.127,29.19,0.26108,0.51831,-0.09933,0.80823,382,0.984,0.036,0.101,0.244,0.244,0.244,23.022,-84.1,173.342,-30.26,-11.327,0.14,29.43,0.09116,-0.6633,-0.11075,-0.73441,374
95,1.015,0.052,0.09,0.0,-0.305,0.061,31.185,-84.227,118.317,-26.267,-9.107,-6.56,25.82,-0.21078,-0.65634,0.15814,-0.70688,379,0.89,0.122,0.432,0.427,0.427,0.61,15.903,-63.342,-137.983,-25.5,-12.733,3.52,24.79,0.36963,-0.44324,-0.29626,-0.76096,381,0.883,0.107,0.437,0.549,0.671,0.488,13.903,-62.831,135.648,-22.96,-12.34,-17.127,29.19,0.26108,0.51831,-0.09933,0.80823,383,0.979,0.039,0.097,0.244,0.427,0.122,22.956,-84.1,173.408,-30.26,-11.327,0.14,29.43,0.09116,-0.6633,-0.11075,-0.73441,375
96,1.013,0.052,0.087,0.0,-0.61,0.122,31.212,-84.232,118.284,-26.76,-9.247,-7.08,25.82,-0.21078,-0.65634,0.15814,-0.70688,386,0.89,0.124,0.432,0.183,0.488,0.427,15.881,-63.336,-137.955,-25.5,-12.733,3.52,24.79,0.36963,-0.44324,-0.29626,-0.76096,388,0.878,0.109,0.439,0.183,0.793,0.366,13.887,-62.82,135.637,-22.96,-12.34,-17.127,29.19,0.26108,0.51831,-0.09933,0.80823,390,0.979,0.041,0.093,0.427,0.244,0.183,22.896,-84.095,173.48,-30.26,-11.327,0.14,29.43,0.09116,-0.6633,-0.11075,-0.73441,384
97,1.014,0.054,0.086,0.0,-0.488,0.183,31.24,-84.243,118.251,-26.76,-9.247,-7.08,25.82,-0.21078,-0.65634,0.15814,-0.70688,387,0.895,0.124,0.429,0.061,0.366,0.427,15.859,-63.331,-137.933,-25.5,-12.733,3.52,24.79,0.36963,-0.44324,-0.29626,-0.76096,389,0.881,0.112,0.439,-0.061,0.671,0.122,13.876,-62.809,135.61,-22.96,-12.34,-17.127,29.19,0.26108,0.51831,-0.09933,0.80823,391,0.979,0.04,0.089,0.488,0.305,0.183,22.846,-84.089,173.551,-30.26,-11.327,0.14,29.43,0.09116,-0.6633,-0.11075,-0.73441,385
98,1.014,0.053,0.085,0.0,0.0,0.122,31.234,-84.254,118.235,-26.76,-9.247,-7.08,25.82,-0.21158,-0.65689,0.16019,-0.70566,392,0.901,0.123,0.43,-0.061,0.183,0.488,15.842,-63.331,-137.922,-25.5,-12.733,3.52,24.79,0.36963,-0.44324,-0.29626,-0.76096,400,0.892,0.111,0.437,-0.122,0.366,0.122,13.87,-62.803,135.588,-22.96,-12.34,-17.127,29.19,0.26108,0.51831,-0.09933,0.80823,396,0.981,0.04,0.091,0.549,0.427,0.122,22.802,-84.084,173.633,-30.26,-11.327,0.14,29.43,0.09116,-0.6633,-0.11075,-0.73441,394
99,1.016,0.054,0.086,0.061,0.305,0.0,31.212,-84.249,118.257,-26.76,-9.247,-7.08,25.82,-0.21158,-0.65689,0.16019,-0.70566,393,0.899,0.124,0.433,-0.061,0.061,0.61,15.815,-63.331,-137.917,-25.5,-12.733,3.52,24.79,0.36963,-0.44324,-0.29626,-0.76096,401,0.887,0.111,0.438,-0.305,0.427,0.427,13.854,-62.803,135.588,-22.96,-12.34,-17.127,29.19,0.26108,0.51831,-0.09933,0.80823,397,0.984,0.041,0.096,0.549,0.61,0.061,22.758,-84.078,173.705,-30.26,-11.327,0.14,29.43,0.09116,-0.6633,-0.11075,-0.73441,395
100,1.017,0.055,0.087,0.0,0.122,0.061,31.185,-84.249,118.257,-26.76,-9.247,-7.08,25.82,-0.21158,-0.65689,0.16019,-0.70566,398,0.893,0.124,0.434,0.061,0.366,0.61,15.793,-63.331,-137.906,-25.5,-12.733,3.52,24.79,0.36963,-0.44324,-0.29626,-0.76096,404,0.881,0.111,0.439,-0.183,0.61,0.305,13.832,-62.798,135.571,-22.96,-12.34,-17.127,29.19,0.26108,0.51831,-0.09933,0.80823,406,0.983,0.04,0.098,0.427,0.61,0.0,22.714,-84.067,173.76,-30.74,-10.927,0.327,29.43,0.09116,-0.6633,-0.11075,-0.73441,402
101,1.016,0.055,0.084,0.0,-0.183,0.122,31.179,-84.249,118.246,-26.76,-9.247,-7.08,25.82,-0.21158,-0.65689,0.16019,-0.70566,399,0.89,0.125,0.434,0.0,0.427,0.427,15.771,-63.325,-137.884,-25.5,-12.733,3.52,24.79,0.36963,-0.44324,-0.29626,-0.76096,405,0.879,0.111,0.442,-0.061,0.366,0.122,13.815,-62.792,135.56,-22.96,-12.34,-17.127,29.19,0.26108,0.51831,-0.09933,0.80823,407,0.98,0.042,0.096,0.549,0.366,0.0,22.681,-84.056,173.793,-30.74,-10.927,0.327,29.43,0.09116,-0.6633,-0.11075,-0.73441,403
102,1.015,0.053,0.083,0.0,-0.305,0.122,31.19,-84.254,118.213,-26.76,-9.247,-7.08,25.82,-0.21158,-0.65689,0.16019,-0.70566,408,0.892,0.125,0.433,0.0,0.427,0.183,15.754,-63.32,-137.867,-25.5,-12.733,3.52,24.79,0.36963,-0.44324,-0.29626,-0.76096,412,0.883,0.111,0.441,-0.061,-0.122,0.0,13.815,-62.792,135.56,-22.86,-12.467,-17.82,29.19,0.26108,0.51831,-0.09933,0.80823,414,0.979,0.044,0.092,0.488,0.122,0.244,22.665,-84.051,173.864,-30.74,-10.927,0.327,29.43,0.0925,-0.66324,-0.11072,-0.73428,410
103,1.016,0.052,0.083,-0.061,-0.183,0.122,31.201,-84.26,118.169,-26.76,-9.247,-7.08,25.82,-0.21158,-0.65689,0.16019,-0.70566,409,0.896,0.121,0.432,-0.183,0.061,0.122,15.749,-63.32,-137.862,-25.5,-12.733,3.52,24.79,0.36963,-0.44324,-0.29626,-0.76096,413,0.885,0.109,0.44,-0.122,-0.488,0.061,13.815,-62.798,135.555,-22.86,-12.467,-17.82,29.19,0.26108,0.51831,-0.09933,0.80823,415,0.98,0.041,0.088,0.122,0.061,0.488,22.615,-84.051,173.969,-30.74,-10.927,0.327,29.43,0.0925,-0.66324,-0.11072,-0.73428,411
104,1.015,0.053,0.084,-0.122,0.122,0.122,31.19,-84.265,118.174,-26.76,-9.247,-7.08,25.82,-0.21158,-0.65689,0.16019,-0.70566,416,0.897,0.121,0.432,-0.244,-0.061,0.244,15.738,-63.32,-137.851,-25.5,-12.733,3.52,24.79,0.36963,-0.44324,-0.29626,-0.76096,420,0.888,0.11,0.438,-0.305,-0.549,0.183,13.821,-62.809,135.555,-22.86,-12.467,-17.82,29.19,0.26108,0.51831,-0.09933,0.80823,422,0.982,0.039,0.095,0.122,0.183,0.427,22.544,-84.056,174.078,-30.74,-10.927,0.327,29.43,0.0925,-0.66324,-0.11072,-0.73428,418
105,1.015,0.053,0.087,-0.122,0.244,0.122,31.157,-84.265,118.185,-26.76,-9.247,-7.08,25.82,-0.21158,-0.65689,0.16019,-0.70566,417,0.898,0.125,0.433,-0.305,0.061,0.305,15.721,-63.32,-137.84,-25.5,-12.733,3.52,24.79,0.36963,-0.44324,-0.29626,-0.76096,421,0.887,0.111,0.437,-0.366,-0.244,0.244,13.815,-62.82,135.566,-22.86,-12.467,-17.82,29.19,0.26108,0.51831,-0.09933,0.80823,423,0.981,0.039,0.097,0.122,0.366,0.366,22.467,-84.051,174.183,-30.74,-10.927,0.327,29.43,0.0925,-0.66324,-0.11072,-0.73428,419
106,1.014,0.054,0.088,-0.122,0.122,0.122,31.124,-84.26,118.191,-26.76,-9.247,-7.08,25.82,-0.21158,-0.65689,0.16019,-0.70566,424,0.895,0.124,0.432,-0.183,0.244,0.427,15.705,-63.32,-137.818,-25.5,-12.733,3.52,24.79,0.36963,-0.44324,-0.29626,-0.76096,432,0.883,0.112,0.438,-0.366,-0.061,0.244,13.804,-62.825,135.566,-22.86,-12.467,-17.82,29.19,0.26233,0.51773,-0.10056,0.80801,428,0.98,0.039,0.097,0.0,0.427,0.366,22.385,-84.051,174.282,-30.74,-10.927,0.327,29.43,0.0925,-0.66324,-0.11072,-0.73428,426
107,1.014,0.052,0.087,-0.183,0.0,0.183,31.097,-84.265,118.229,-26.76,-9.247,-7.08,25.82,-0.21158,-0.65689,0.16019,-0.70566,425,0.894,0.125,0.437,-0.366,0.244,0.488,15.677,-63.32,-137.785,-25.5,-12.733,3.52,24.79,0.36963,-0.44324,-0.29626,-0.76096,433,0.884,0.113,0.443,-0.427,-0.061,0.305,13.788,-62.825,135.582,-22.86,-12.467,-17.82,29.19,0.26233,0.51773,-0.10056,0.80801,429,0.98,0.039,0.1,0.183,0.488,0.488,22.291,-84.045,174.397,-30.74,-10.927,0.327,29.43,0.0925,-0.66324,-0.11072,-0.73428,427
108,1.015,0.052,0.086,-0.061,-0.061,0.122,31.075,-84.265,118.273,-26.76,-9.247,-7.08,25.82,-0.21158,-0.65689,0.16019,-0.70566,430,0.892,0.122,0.436,-0.183,0.427,0.61,15.65,-63.314,-137.747,-25.8,-12.387,4.413,24.79,0.36963,-0.44324,-0.29626,-0.76096,436,0.881,0.11,0.44,-0.427,-0.122,0.549,13.771,-62.831,135.637,-22.86,-12.467,-17.82,29.19,0.26233,0.51773,-0.10056,0.80801,442,0.98,0.04,0.094,0.427,0.366,0.488,22.181,-84.04,174.545,-30.74,-10.927,0.327,29.43,0.0925,-0.66324,-0.11072,-0.73428,434
109,1.015,0.053,0.087,0.0,-0.061,0.183,31.064,-84.271,118.312,-26.76,-9.247,-7.08,25.82,-0.21158,-0.65689,0.16019,-0.70566,431,0.897,0.116,0.43,-0.061,0.305,0.793,15.617,-63.309,-137.714,-25.8,-12.387,4.413,24.79,0.36963,-0.44324,-0.29626,-0.76096,437,0.888,0.103,0.436,-0.427,-0.244,0.671,13.749,-62.836,135.709,-22.86,-12.467,-17.82,29.19,0.26233,0.51773,-0.10056,0.80801,443,0.98,0.04,0.097,0.305,0.244,0.488,22.088,-84.034,174.683,-30.74,-10.927,0.327,29.43,0.0925,-0.66324,-0.11072,-0.73428,435
110,1.015,0.052,0.087,0.0,0.0,0.305,31.025,-84.271,118.334,-26.76,-9.247,-7.08,25.82,-0.21158,-0.65689,0.16019,-0.70566,440,0.899,0.12,0.431,-0.183,0.244,0.61,15.59,-63.309,-137.686,-25.8,-12.387,4.413,24.79,0.36963,-0.44324,-0.29626,-0.76096,446,0.888,0.108,0.438,-0.122,-0.183,0.305,13.727,-62.847,135.775,-22.86,-12.467,-17.82,29.19,0.26233,0.51773,-0.10056,0.80801,448,0.982,0.039,0.095,0.488,0.488,0.427,21.995,-84.029,174.803,-30.74,-10.927,0.327,29.43,0.0925,-0.66324,-0.11072,-0.73428,438
111,1.015,0.052,0.088,0.0,0.183,0.366,30.965,-84.276,118.372,-26.76,-9.247,-7.08,25.82,-0.21158,-0.65689,0.16019,-0.70566,441,0.895,0.121,0.438,0.0,0.244,0.366,15.573,-63.309,-137.675,-25.8,-12.387,4.413,24.79,0.36963,-0.44324,-0.29626,-0.76096,447,0.884,0.108,0.441,0.305,-0.183,0.305,13.722,-62.853,135.818,-22.86,-12.467,-17.82,29.19,0.26233,0.51773,-0.10056,0.80801,449,0.981,0.039,0.095,0.244,0.793,0.427,21.885,-84.018,174.952,-30.74,-10.927,0.327,29.43,0.0925,-0.66324,-0.11072,-0.73428,439
112,1.015,0.053,0.086,0.0,0.183,0.305,30.894,-84.276,118.433,-26.64,-8.88,-6.927,25.82,-0.21158,-0.65689,0.16019,-0.70566,450,0.894,0.118,0.435,0.488,0.488,0.427,15.562,-63.298,-137.642,-25.8,-12.387,4.413,24.79,0.37079,-0.44321,-0.29523,-0.7608,452,0.884,0.106,0.441,0.916,-0.305,0.427,13.722,-62.858,135.884,-22.86,-12.467,-17.82,29.19,0.26233,0.51773,-0.10056,0.80801,454,0.981,0.039,0.099,0.0,0.732,0.366,21.775,-84.007,175.084,-30.74,-10.927,0.327,29.43,0.0925,-0.66324,-0.11072,-0.73428,444
113,1.015,0.052,0.087,0.0,0.061,0.244,30.839,-84.276,118.482,-26.64,-8.88,-6.927,25.82,-0.21158,-0.65689,0.16019,-0.70566,451,0.894,0.118,0.436,0.61,0.305,0.366,15.551,-63.298,-137.615,-25.8,-12.387,4.413,24.79,0.37079,-0.44321,-0.29523,-0.7608,453,0.883,0.106,0.443,0.61,-0.244,0.366,13.727,-62.864,135.939,-22.86,-12.467,-17.82,29.19,0.26233,0.51773,-0.10056,0.80801,455,0.981,0.039,0.099,0.122,0.549,0.427,21.665,-84.001,175.193,-30.74,-10.927,0.327,29.43,0.0925,-0.66324,-0.11072,-0.73428,445
114,1.014,0.053,0.088,0.0,-0.061,0.244,30.806,-84.276,118.515,-26.64,-8.88,-6.927,25.82,-0.21222,-0.65659,0.16135,-0.70547,456,0.89,0.122,0.438,0.061,0.183,0.122,15.546,-63.292,-137.587,-25.8,-12.387,4.413,24.79,0.37079,-0.44321,-0.29523,-0.7608,460,0.88,0.11,0.444,-0.061,-0.122,0.122,13.727,-62.869,135.972,-22.86,-12.467,-17.82,29.19,0.26233,0.51773,-0.10056,0.80801,462,0.979,0.039,0.1,0.244,0.488,0.366,21.572,-83.99,175.292,-30.74,-10.927,0.327,29.43,0.0925,-0.66324,-0.11072,-0.73428,458
115,1.014,0.05,0.087,0.0,-0.305,0.183,30.8,-84.282,118.499,-26.64,-8.88,-6.927,25.82,-0.21222,-0.65659,0.16135,-0.70547,457,0.89,0.119,0.437,-0.061,0.061,0.061,15.54,-63.287,-137.571,-25.8,-12.387,4.413,24.79,0.37079,-0.44321,-0.29523,-0.7608,461,0.881,0.108,0.443,-0.061,-0.244,0.183,13.722,-62.875,135.978,-22.86,-12.467,-17.82,29.19,0.26233,0.51773,-0.10056,0.80801,463,0.979,0.037,0.102,0.0,0.366,0.549,21.467,-83.985,175.413,-30.74,-10.927,0.327,29.43,0.0925,-0.66324,-0.11072,-0.73428,459
116,1.013,0.05,0.086,-0.061,-0.488,0.122,30.822,-84.293,118.46,-26.64,-8.88,-6.927,25.82,-0.21222,-0.65659,0.16135,-0.70547,464,0.893,0.116,0.437,0.061,-0.061,0.305,15.535,-63.292,-137.554,-25.8,-12.387,4.413,24.79,0.37079,-0.44321,-0.29523,-0.7608,468,0.884,0.106,0.443,0.061,-0.549,0.549,13.716,-62.88,136.005,-22.86,-12.467,-17.82,29.19,0.26233,0.51773,-0.10056,0.80801,470,0.978,0.037,0.096,-0.122,0.061,0.61,21.352,-83.985,175.545,-30.58,-11.453,0.4,29.43,0.0925,-0.66324,-0.11072,-0.73428,466
117,1.014,0.051,0.086,-0.122,-0.305,0.183,30.828,-84.298,118.438,-26.64,-8.88,-6.927,25.82,-0.21222,-0.65659,0.16135,-0.70547,465,0.895,0.116,0.438,0.244,-0.183,0.549,15.518,-63.292,-137.543,-25.8,-12.387,4.413,24.79,0.37079,-0.44321,-0.29523,-0.7608,469,0.886,0.106,0.442,0.122,-0.671,0.854,13.7,-62.891,136.044,-22.86,-12.467,-17.82,29.19,0.26233,0.51773,-0.10056,0.80801,471,0.98,0.035,0.098,-0.061,0.0,0.488,21.259,-83.985,175.655,-30.58,-11.453,0.4,29.43,0.0925,-0.66324,-0.11072,-0.73428,467
118,1.016,0.053,0.086,-0.183,-0.244,0.244,30.817,-84.309,118.444,-26.64,-8.88,-6.927,25.82,-0.21222,-0.65659,0.16135,-0.70547,472,0.894,0.118,0.438,0.305,-0.183,0.61,15.496,-63.298,-137.532,-25.8,-12.387,4.413,24.79,0.37079,-0.44321,-0.29523,-0.7608,490,0.885,0.107,0.442,-0.061,-0.488,0.854,13.678,-62.908,136.088,-22.86,-12.467,-17.82,29.19,0.26233,0.51773,-0.10056,0.80801,476,0.981,0.037,0.1,0.061,0.0,0.244,21.193,-83.99,175.715,-30.58,-11.453,0.4,29.43,0.0925,-0.66324,-0.11072,-0.73428,474
119,1.016,0.051,0.086,-0.183,-0.305,0.244,30.8,-84.315,118.455,-26.64,-8.88,-6.927,25.82,-0.21222,-0.65659,0.16135,-0.70547,473,0.895,0.122,0.438,-0.061,-0.183,0.549,15.474,-63.303,-137.521,-25.8,-12.387,4.413,24.79,0.37079,-0.44321,-0.29523,-0.7608,491,0.886,0.109,0.442,-0.61,-0.183,0.61,13.645,-62.919,136.137,-22.86,-12.467,-17.82,29.19,0.26233,0.51773,-0.10056,0.80801,477,0.98,0.036,0.102,0.0,-0.183,0.183,21.16,-83.99,175.754,-30.58,-11.453,0.4,29.43,0.0925,-0.66324,-0.11072,-0.73428,475
120,1.014,0.049,0.088,0.0,-0.549,0.183,30.817,-84.326,118.46,-26.64,-8.88,-6.927,25.82,-0.21222,-0.65659,0.16135,-0.70547,480,0.893,0.119,0.437,-0.305,-0.183,0.549,15.452,-63.309,-137.51,-25.8,-12.387,4.413,24.79,0.37079,-0.44321,-0.29523,-0.7608,498,0.884,0.105,0.441,-0.427,-0.244,0.61,13.618,-62.924,136.176,-22.86,-12.467,-17.82,29.19,0.26233,0.51773,-0.10056,0.80801,494,0.979,0.034,0.101,0.061,-0.244,0.244,21.132,-83.99,175.787,-30.58,-11.453,0.4,29.43,0.0957,-0.66226,-0.112,-0.73456,478
121,1.012,0.049,0.087,0.122,-0.671,0.061,30.861,-84.337,118.427,-26.64,-8.88,-6.927,25.82,-0.21222,-0.65659,0.16135,-0.70547,481,0.896,0.114,0.433,-0.122,-0.244,0.549,15.425,-63.314,-137.499,-25.8,-12.387,4.413,24.79,0.37079,-0.44321,-0.29523,-0.7608,499,0.888,0.102,0.438,-0.488,-0.427,0.732,13.585,-62.93,136.219,-22.86,-12.467,-17.82,29.19,0.26233,0.51773,-0.10056,0.80801,495,0.979,0.036,0.099,0.427,-0.305,0.244,21.105,-83.996,175.825,-30.58,-11.453,0.4,29.43,0.0957,-0.66226,-0.112,-0.73456,479
122,1.015,0.05,0.085,0.122,-0.732,0.122,30.916,-84.348,118.394,-26.64,-8.88,-6.927,25.82,-0.21222,-0.65659,0.16135,-0.70547,482,0.899,0.118,0.433,-0.183,-0.427,0.427,15.408,-63.32,-137.494,-25.8,-12.387,4.413,24.79,0.37079,-0.44321,-0.29523,-0.7608,506,0.89,0.104,0.437,-0.366,-0.366,0.488,13.557,-62.941,136.258,-23.28,-12.6,-18.26,29.19,0.26233,0.51773,-0.10056,0.80801,502,0.981,0.037,0.095,0.244,-0.366,0.183,21.088,-84.001,175.847,-30.58,-11.453,0.4,29.43,0.0957,-0.66226,-0.112,-0.73456,492
123,1.017,0.051,0.086,-0.061,-0.549,0.061,30.959,-84.359,118.367,-26.64,-8.88,-6.927,25.82,-0.21222,-0.65659,0.16135,-0.70547,483,0.897,0.12,0.432,-0.183,-0.061,0.183,15.392,-63.325,-137.499,-25.8,-12.387,4.413,24.79,0.37079,-0.44321,-0.29523,-0.7608,507,0.889,0.108,0.432,-0.183,-0.427,0.427,13.535,-62.946,136.291,-23.28,-12.6,-18.26,29.19,0.26233,0.51773,-0.10056,0.80801,503,0.984,0.038,0.098,0.0,-0.305,0.244,21.066,-84.012,175.88,-30.58,-11.453,0.4,29.43,0.0957,-0.66226,-0.112,-0.73456,493
124,1.017,0.05,0.086,-0.183,-0.427,0.061,30.987,-84.37,118.345,-26.64,-8.88,-6.927,25.82,-0.21222,-0.65659,0.16135,-0.70547,484,0.898,0.119,0.43,-0.061,0.0,0.366,15.381,-63.325,-137.494,-25.8,-12.387,4.413,24.79,0.37079,-0.44321,-0.29523,-0.7608,514,0.89,0.106,0.435,0.0,-0.183,0.427,13.519,-62.957,136.324,-23.28,-12.6,-18.26,29.19,0.26233,0.51773,-0.10056,0.80801,508,0.982,0.038,0.097,0.0,-0.122,0.305,21.028,-84.012,175.946,-30.58,-11.453,0.4,29.43,0.0957,-0.66226,-0.112,-0.73456,496
125,1.015,0.051,0.085,-0.122,-0.305,0.061,30.998,-84.375,118.339,-26.64,-8.88,-6.927,25.82,-0.21222,-0.65659,0.16135,-0.70547,485,0.901,0.118,0.431,-0.244,0.0,0.427,15.359,-63.325,-137.488,-25.8,-12.387,4.413,24.79,0.37079,-0.44321,-0.29523,-0.7608,515,0.892,0.104,0.435,-0.244,0.0,0.488,13.508,-62.963,136.357,-23.28,-12.6,-18.26,29.19,0.26233,0.51773,-0.10056,0.80801,509,0.98,0.036,0.094,0.122,0.0,0.244,20.984,-84.018,176.017,-30.58,-11.453,0.4,29.43,0.0957,-0.66226,-0.112,-0.73456,497
126,1.015,0.052,0.083,0.0,-0.305,0.061,31.014,-84.38,118.339,-26.64,-8.88,-6.927,25.82,-0.21222,-0.65659,0.16135,-0.70547,486,0.898,0.117,0.431,-0.244,-0.122,0.427,15.337,-63.331,-137.477,-25.8,-12.387,4.413,24.79,0.37079,-0.44321,-0.29523,-0.7608,520,0.885,0.104,0.435,-0.305,0.183,0.488,13.48,-62.968,136.39,-23.28,-12.6,-18.26,29.19,0.26233,0.51773,-0.10056,0.80801,516,0.982,0.037,0.096,0.183,0.122,0.122,20.945,-84.012,176.089,-30.58,-11.453,0.4,29.43,0.0957,-0.66226,-0.112,-0.73456,504
127,1.017,0.052,0.084,-0.061,-0.305,0.061,31.036,-84.386,118.334,-26.64,-8.88,-6.927,25.82,-0.21222,-0.65659,0.16135,-0.70547,487,0.894,0.117,0.431,0.0,0.122,0.305,15.32,-63.336,-137.472,-25.8,-12.387,4.413,24.79,0.37079,-0.44321,-0.29523,-0.7608,521,0.885,0.104,0.433,0.0,0.427,0.305,13.458,-62.968,136.428,-23.28,-12.6,-18.26,29.19,0.26233,0.51773,-0.10056,0.80801,517,0.983,0.037,0.099,0.0,0.122,0.122,20.918,-84.012,176.138,-30.58,-11.453,0.4,29.43,0.0957,-0.66226,-0.112,-0.73456,505
128,1.017,0.051,0.082,-0.183,-0.488,0.0,31.075,-84.391,118.312,-26.64,-8.88,-6.927,25.82,-0.21222,-0.65659,0.16135,-0.70547,488,0.897,0.118,0.429,-0.061,0.244,0.305,15.309,-63.331,-137.466,-25.8,-12.387,4.413,24.79,0.37079,-0.44321,-0.29523,-0.7608,528,0.889,0.105,0.434,0.061,0.366,0.122,13.447,-62.963,136.461,-23.28,-12.6,-18.26,29.19,0.26233,0.51773,-0.10056,0.80801,522,0.981,0.036,0.091,-0.061,0.0,0.0,20.901,-84.012,176.177,-30.58,-11.453,0.4,29.43,0.0957,-0.66226,-0.112,-0.73456,512
129,1.016,0.05,0.081,-0.183,-0.305,0.0,31.108,-84.397,118.29,-26.64,-8.88,-6.927,25.82,-0.21222,-0.65659,0.16135,-0.70547,489,0.899,0.12,0.43,-0.061,0.0,0.122,15.298,-63.336,-137.466,-25.8,-12.387,4.413,24.79,0.37079,-0.44321,-0.29523,-0.7608,529,0.89,0.106,0.437,0.0,0.122,0.0,13.447,-62.957,136.483,-23.28,-12.6,-18.26,29.19,0.26233,0.51773,-0.10056,0.80801,523,0.982,0.037,0.089,0.0,0.0,0.0,20.901,-84.012,176.215,-30.58,-11.453,0.4,29.43,0.0957,-0.66226,-0.112,-0.73456,513
130,1.018,0.051,0.082,-0.183,0.0,0.0,31.113,-84.402,118.301,-26.86,-9.087,-6.373,25.82,-0.21222,-0.65659,0.16135,-0.70547,500,0.898,0.12,0.433,-0.244,-0.305,0.0,15.298,-63.342,-137.477,-25.8,-12.387,4.413,24.79,0.37079,-0.44321,-0.29523,-0.7608,538,0.888,0.107,0.438,-0.244,0.122,-0.061,13.447,-62.957,136.494,-23.28,-12.6,-18.26,29.19,0.26233,0.51773,-0.10056,0.80801,532,0.984,0.038,0.093,0.061,0.244,0.061,20.891,-84.007,176.298,-30.58,-11.453,0.4,29.43,0.0957,-0.66226,-0.112,-0.73456,518
131,1.019,0.052,0.082,-0.183,0.122,0.0,31.108,-84.402,118.328,-26.86,-9.087,-6.373,25.82,-0.21222,-0.65659,0.16135,-0.70547,501,0.895,0.121,0.435,-0.61,-0.183,-0.061,15.293,-63.347,-137.494,-25.8,-12.387,4.413,24.79,0.37079,-0.44321,-0.29523,-0.7608,539,0.884,0.105,0.439,-0.305,0.122,-0.305,13.447,-62.957,136.505,-23.28,-12.6,-18.26,29.19,0.26233,0.51773,-0.10056,0.80801,533,0.984,0.038,0.095,-0.183,0.366,0.122,20.852,-84.001,176.402,-30.58,-11.453,0.4,29.43,0.0957,-0.66226,-0.112,-0.73456,519
132,1.016,0.051,0.081,-0.183,0.122,0.0,31.097,-84.397,118.361,-26.86,-9.087,-6.373,25.82,-0.211,-0.65747,0.16101,-0.70511,510,0.895,0.119,0.435,-1.099,-0.183,-0.427,15.287,-63.347,-137.516,-25.8,-12.387,4.413,24.79,0.37079,-0.44321,-0.29523,-0.7608,540,0.886,0.105,0.439,-0.854,0.0,-0.61,13.453,-62.957,136.505,-23.28,-12.6,-18.26,29.19,0.26233,0.51773,-0.10056,0.80801,536,0.981,0.039,0.097,-0.183,0.305,0.305,20.786,-84.001,176.534,-30.58,-11.453,0.4,29.43,0.0957,-0.66226,-0.112,-0.73456,526
133,1.015,0.051,0.082,-0.183,0.0,0.061,31.091,-84.402,118.389,-26.86,-9.087,-6.373,25.82,-0.211,-0.65747,0.16101,-0.70511,511,0.894,0.118,0.437,-1.526,-0.061,-0.488,15.282,-63.347,-137.532,-25.8,-12.387,4.413,24.79,0.37079,-0.44321,-0.29523,-0.7608,541,0.883,0.108,0.441,-1.221,0.183,-0.61,13.458,-62.952,136.478,-23.28,-12.6,-18.26,29.19,0.26233,0.51773,-0.10056,0.80801,537,0.98,0.039,0.095,-0.305,0.061,0.427,20.715,-84.001,176.677,-30.58,-11.453,0.4,29.43,0.0957,-0.66226,-0.112,-0.73456,527
134,1.015,0.052,0.083,-0.183,0.0,-0.061,31.097,-84.402,118.4,-26.86,-9.087,-6.373,25.82,-0.211,-0.65747,0.16101,-0.70511,524,0.889,0.12,0.438,-1.77,-0.183,-0.183,15.26,-63.347,-137.538,-25.8,-12.387,4.413,24.79,0.37079,-0.44321,-0.29523,-0.7608,546,0.88,0.109,0.443,-1.282,0.183,-0.305,13.453,-62.952,136.434,-23.28,-12.6,-18.26,29.19,0.26233,0.51773,-0.10056,0.80801,554,0.98,0.036,0.099,-0.305,0.0,0.427,20.638,-84.001,176.819,-30.58,-11.453,0.4,29.43,0.0957,-0.66226,-0.112,-0.73456,534
135,1.016,0.052,0.084,-0.244,0.061,-0.061,31.108,-84.402,118.411,-26.86,-9.087,-6.373,25.82,-0.211,-0.65747,0.16101,-0.70511,525,0.891,0.119,0.437,-1.526,-0.366,0.0,15.233,-63.358,-137.538,-25.8,-12.387,4.413,24.79,0.37079,-0.44321,-0.29523,-0.7608,547,0.882,0.108,0.442,-1.099,-0.061,-0.061,13.442,-62.946,136.39,-23.28,-12.6,-18.26,29.19,0.26233,0.51773,-0.10056,0.80801,555,0.979,0.034,0.099,-0.305,0.0,0.183,20.599,-84.007,176.924,-30.58,-11.453,0.4,29.43,0.0957,-0.66226,-0.112,-0.73456,535
136,1.014,0.051,0.085,-0.305,0.0,0.0,31.108,-84.402,118.427,-26.86,-9.087,-6.373,25.82,-0.211,-0.65747,0.16101,-0.70511,530,0.894,0.116,0.436,-0.854,-0.671,0.183,15.216,-63.369,-137.538,-25.753,-12.287,4.007,24.79,0.37079,-0.44321,-0.29523,-0.7608,552,0.884,0.104,0.44,-0.793,-0.305,0.183,13.425,-62.946,136.346,-23.28,-12.6,-18.26,29.19,0.25784,0.51849,-0.09991,0.80908,558,0.978,0.037,0.099,-0.122,0.0,0.183,20.566,-84.007,177.017,-30.58,-11.453,0.4,29.43,0.0957,-0.66226,-0.112,-0.73456,544
137,1.013,0.051,0.087,-0.244,0.0,0.061,31.102,-84.402,118.449,-26.86,-9.087,-6.373,25.82,-0.211,-0.65747,0.16101,-0.70511,531,0.897,0.114,0.437,-0.366,-0.61,0.244,15.205,-63.38,-137.532,-25.753,-12.287,4.007,24.79,0.37079,-0.44321,-0.29523,-0.7608,553,0.887,0.101,0.443,-0.244,-0.427,0.244,13.409,-62.957,136.34,-23.28,-12.6,-18.26,29.19,0.25784,0.51849,-0.09991,0.80908,559,0.978,0.036,0.101,-0.122,0.0,0.244,20.522,-84.007,177.122,-30.58,-11.453,0.4,29.43,0.0957,-0.66226,-0.112,-0.73456,545
138,1.014,0.05,0.087,-0.122,-0.122,0.0,31.108,-84.402,118.46,-26.86,-9.087,-6.373,25.82,-0.211,-0.65747,0.16101,-0.70511,542,0.894,0.113,0.439,0.305,-0.549,0.183,15.211,-63.391,-137.527,-25.753,-12.287,4.007,24.79,0.37079,-0.44321,-0.29523,-0.7608,564,0.88,0.101,0.443,0.305,-0.183,0.244,13.398,-62.963,136.335,-23.28,-12.6,-18.26,29.19,0.25784,0.51849,-0.09991,0.80908,566,0.98,0.035,0.102,-0.061,0.0,0.305,20.473,-84.007,177.237,-30.58,-11.453,0.4,29.43,0.0957,-0.66226,-0.112,-0.73456,550
139,1.014,0.05,0.087,0.0,-0.305,0.0,31.13,-84.408,118.449,-26.86,-9.087,-6.373,25.82,-0.211,-0.65747,0.16101,-0.70511,543,0.891,0.11,0.436,0.61,-0.488,0.122,15.216,-63.397,-137.521,-25.753,-12.287,4.007,24.79,0.37079,-0.44321,-0.29523,-0.7608,565,0.883,0.099,0.438,0.427,-0.183,0.0,13.403,-62.968,136.324,-23.28,-12.6,-18.26,29.19,0.25784,0.51849,-0.09991,0.80908,567,0.981,0.037,0.104,0.122,-0.183,0.305,20.424,-84.012,177.341,-30.58,-11.453,0.4,29.43,0.0957,-0.66226,-0.112,-0.73456,551
140,1.015,0.05,0.087,0.061,-0.549,0.0,31.179,-84.419,118.411,-26.86,-9.087,-6.373,25.82,-0.211,-0.65747,0.16101,-0.70511,548,0.895,0.116,0.434,0.244,-0.427,-0.183,15.227,-63.402,-137.527,-25.753,-12.287,4.007,24.79,0.37079,-0.44321,-0.29523,-0.7608,572,0.885,0.105,0.441,0.244,-0.061,-0.549,13.414,-62.968,136.296,-23.28,-12.6,-18.26,29.19,0.25784,0.51849,-0.09991,0.80908,568,0.978,0.035,0.103,0.0,-0.244,0.366,20.374,-84.012,177.446,-30.633,-11.413,0.113,29.43,0.0957,-0.66226,-0.112,-0.73456,556
141,1.014,0.05,0.085,0.183,-0.854,0.0,31.256,-84.43,118.345,-26.86,-9.087,-6.373,25.82,-0.211,-0.65747,0.16101,-0.70511,549,0.894,0.119,0.439,0.183,-0.61,-0.488,15.255,-63.408,-137.554,-25.753,-12.287,4.007,24.79,0.37079,-0.44321,-0.29523,-0.7608,573,0.885,0.109,0.444,0.671,0.122,-0.793,13.442,-62.963,136.28,-23.28,-12.6,-18.26,29.19,0.25784,0.51849,-0.09991,0.80908,569,0.979,0.037,0.097,0.244,-0.183,0.244,20.336,-84.018,177.545,-30.633,-11.413,0.113,29.43,0.0957,-0.66226,-0.112,-0.73456,557
142,1.014,0.052,0.083,0.244,-0.732,0.0,31.333,-84.441,118.279,-26.86,-9.087,-6.373,25.82,-0.211,-0.65747,0.16101,-0.70511,560,0.897,0.118,0.435,0.854,-0.488,-0.183,15.282,-63.413,-137.549,-25.753,-12.287,4.007,24.79,0.37079,-0.44321,-0.29523,-0.7608,582,0.89,0.111,0.438,1.282,-0.183,-0.061,13.48,-62.957,136.269,-23.28,-12.6,-18.26,29.19,0.25784,0.51849,-0.09991,0.80908,580,0.98,0.038,0.098,0.0,-0.305,0.244,20.308,-84.023,177.627,-30.633,-11.413,0.113,29.43,0.0957,-0.66226,-0.112,-0.73456,562
143,1.016,0.052,0.083,0.061,-0.61,0.0,31.404,-84.452,118.224,-26.86,-9.087,-6.373,25.82,-0.211,-0.65747,0.16101,-0.70511,561,0.902,0.116,0.43,1.343,-0.732,0.427,15.293,-63.43,-137.521,-25.753,-12.287,4.007,24.79,0.37079,-0.44321,-0.29523,-0.7608,583,0.892,0.107,0.438,0.977,-0.366,0.427,13.508,-62.963,136.274,-23.28,-12.6,-18.26,29.19,0.25784,0.51849,-0.09991,0.80908,581,0.983,0.036,0.097,0.0,-0.732,0.305,20.297,-84.034,177.693,-30.633,-11.413,0.113,29.43,0.0957,-0.66226,-0.112,-0.73456,563
144,1.017,0.049,0.083,0.0,-0.61,0.305,31.426,-84.463,118.218,-26.86,-9.087,-6.373,25.82,-0.211,-0.65747,0.16101,-0.70511,570,0.899,0.115,0.432,0.854,-0.732,0.793,15.287,-63.446,-137.472,-25.753,-12.287,4.007,24.79,0.37048,-0.44461,-0.29413,-0.76053,586,0.885,0.102,0.436,0.366,-0.488,0.732,13.508,-62.974,136.318,-23.28,-12.6,-18.26,29.19,0.25784,0.51849,-0.09991,0.80908,590,0.984,0.029,0.096,-0.122,-0.61,0.244,20.286,-84.045,177.753,-30.633,-11.413,0.113,29.43,0.0957,-0.66226,-0.112,-0.73456,574
145,1.019,0.046,0.083,0.244,-0.732,0.122,31.465,-84.479,118.185,-26.86,-9.087,-6.373,25.82,-0.211,-0.65747,0.16101,-0.70511,571,0.895,0.114,0.429,0.854,-0.549,0.61,15.282,-63.457,-137.433,-25.753,-12.287,4.007,24.79,0.37048,-0.44461,-0.29413,-0.76053,587,0.884,0.1,0.436,0.671,-0.549,0.488,13.497,-62.985,136.357,-23.28,-12.6,-18.26,29.19,0.25784,0.51849,-0.09991,0.80908,591,0.982,0.03,0.097,0.488,-0.427,0.061,20.297,-84.051,177.797,-30.633,-11.413,0.113,29.43,0.0957,-0.66226,-0.112,-0.73456,575
146,1.015,0.049,0.083,0.488,-0.671,0.0,31.542,-84.49,118.125,-26.64,-9.327,-6.24,25.82,-0.211,-0.65747,0.16101,-0.70511,576,0.896,0.116,0.431,0.732,-0.488,0.122,15.293,-63.468,-137.417,-25.753,-12.287,4.007,24.79,0.37048,-0.44461,-0.29413,-0.76053,594,0.886,0.103,0.437,0.61,-0.793,0.183,13.497,-63.001,136.373,-23.28,-12.6,-18.26,29.19,0.25784,0.51849,-0.09991,0.80908,596,0.98,0.036,0.096,0.732,-0.488,0.061,20.319,-84.062,177.83,-30.633,-11.413,0.113,29.43,0.10382,-0.66138,-0.11813,-0.73331,578
147,1.014,0.052,0.081,0.366,-0.61,0.061,31.597,-84.501,118.087,-26.64,-9.327,-6.24,25.82,-0.211,-0.65747,0.16101,-0.70511,577,0.896,0.116,0.431,0.549,-0.366,-0.183,15.309,-63.474,-137.422,-25.753,-12.287,4.007,24.79,0.37048,-0.44461,-0.29413,-0.76053,595,0.886,0.104,0.436,0.61,-0.854,0.0,13.508,-63.018,136.346,-23.28,-12.6,-18.26,29.19,0.25784,0.51849,-0.09991,0.80908,597,0.979,0.039,0.094,0.427,-0.549,0.061,20.341,-84.073,177.863,-30.633,-11.413,0.113,29.43,0.10382,-0.66138,-0.11813,-0.73331,579
148,1.016,0.052,0.081,0.061,-0.549,0.061,31.646,-84.512,118.054,-26.64,-9.327,-6.24,25.82,-0.211,-0.65747,0.16101,-0.70511,584,0.896,0.116,0.429,0.488,-0.427,-0.305,15.331,-63.479,-137.433,-25.753,-12.287,4.007,24.79,0.37048,-0.44461,-0.29413,-0.76053,608,0.888,0.104,0.435,0.427,-0.977,-0.061,13.53,-63.034,136.296,-23.28,-12.6,-18.26,29.19,0.25784,0.51849,-0.09991,0.80908,600,0.982,0.037,0.094,-0.122,-0.488,0.122,20.347,-84.078,177.907,-30.633,-11.413,0.113,29.43,0.10382,-0.66138,-0.11813,-0.73331,588
149,1.017,0.05,0.079,-0.061,-0.488,0.0,31.696,-84.518,118.015,-26.64,-9.327,-6.24,25.82,-0.211,-0.65747,0.16101,-0.70511,585,0.9,0.117,0.428,0.305,-0.427,-0.244,15.348,-63.49,-137.444,-25.753,-12.287,4.007,24.79,0.37048,-0.44461,-0.29413,-0.76053,609,0.891,0.107,0.434,0.183,-0.854,-0.061,13.546,-63.051,136.236,-23.28,-12.6,-18.26,29.19,0.25784,0.51849,-0.09991,0.80908,601,0.981,0.034,0.093,-0.122,-0.488,0.061,20.363,-84.089,177.935,-30.633,-11.413,0.113,29.43,0.10382,-0.66138,-0.11813,-0.73331,589
150,1.016,0.049,0.08,0.0,-0.427,-0.061,31.75,-84.529,117.971,-26.64,-9.327,-6.24,25.82,-0.20917,-0.6586,0.15988,-0.70486,598,0.9,0.119,0.429,0.244,-0.671,0.0,15.359,-63.501,-137.444,-25.753,-12.287,4.007,24.79,0.37048,-0.44461,-0.29413,-0.76053,616,0.891,0.109,0.435,0.183,-0.61,0.061,13.557,-63.067,136.187,-23.28,-12.6,-18.26,29.19,0.25784,0.51849,-0.09991,0.80908,604,0.981,0.032,0.093,0.0,-0.427,0.0,20.391,-84.095,177.957,-30.633,-11.413,0.113,29.43,0.10382,-0.66138,-0.11813,-0.73331,592
151,1.018,0.048,0.08,0.0,-0.488,-0.061,31.811,-84.534,117.916,-26.64,-9.327,-6.24,25.82,-0.20917,-0.6586,0.15988,-0.70486,599,0.898,0.117,0.43,0.427,-0.671,0.183,15.364,-63.517,-137.428,-25.753,-12.287,4.007,24.79,0.37048,-0.44461,-0.29413,-0.76053,617,0.887,0.104,0.436,0.244,-0.488,0.305,13.563,-63.078,136.165,-23.28,-12.6,-18.26,29.19,0.25784,0.51849,-0.09991,0.80908,605,0.983,0.032,0.095,-0.061,-0.366,0.0,20.407,-84.106,177.984,-30.633,-11.413,0.113,29.43,0.10382,-0.66138,-0.11813,-0.73331,593
152,1.018,0.048,0.08,0.0,-0.61,-0.122,31.899,-84.545,117.845,-26.64,-9.327,-6.24,25.82,-0.20917,-0.6586,0.15988,-0.70486,606,0.898,0.116,0.432,0.549,-0.793,0.244,15.375,-63.534,-137.417,-25.753,-12.287,4.007,24.79,0.37048,-0.44461,-0.29413,-0.76053,618,0.887,0.103,0.438,0.244,-0.366,0.061,13.563,-63.089,136.17,-23.28,-12.6,-18.26,29.19,0.25784,0.51849,-0.09991,0.80908,610,0.983,0.034,0.096,0.061,-0.244,0.0,20.413,-84.106,178.017,-30.633,-11.413,0.113,29.43,0.10382,-0.66138,-0.11813,-0.73331,602
153,1.019,0.05,0.079,0.061,-0.671,-0.061,31.981,-84.556,117.768,-26.64,-9.327,-6.24,25.82,-0.20917,-0.6586,0.15988,-0.70486,607,0.897,0.117,0.431,0.366,-0.488,0.0,15.381,-63.539,-137.417,-25.753,-12.287,4.007,24.79,0.37048,-0.44461,-0.29413,-0.76053,619,0.89,0.108,0.433,0.427,-0.732,0.0,13.568,-63.1,136.159,-23.28,-12.6,-18.26,29.19,0.25784,0.51849,-0.09991,0.80908,611,0.983,0.036,0.095,0.305,-0.305,0.0,20.435,-84.111,178.05,-30.633,-11.413,0.113,29.43,0.10382,-0.66138,-0.11813,-0.73331,603
154,1.018,0.051,0.079,0.183,-0.549,0.0,32.042,-84.567,117.724,-26.64,-9.327,-6.24,25.82,-0.20917,-0.6586,0.15988,-0.70486,612,0.903,0.119,0.426,0.671,-0.305,0.0,15.397,-63.55,-137.401,-25.753,-12.287,4.007,24.79,0.37048,-0.44461,-0.29413,-0.76053,624,0.894,0.107,0.432,0.793,-0.732,0.122,13.585,-63.116,136.159,-23.28,-12.6,-18.26,29.19,0.25784,0.51849,-0.09991,0.80908,626,0.982,0.038,0.092,0.305,-0.427,0.0,20.468,-84.122,178.066,-30.633,-11.413,0.113,29.43,0.10382,-0.66138,-0.11813,-0.73331,614
155,1.015,0.051,0.081,0.122,-0.183,0.122,32.042,-84.573,117.735,-26.64,-9.327,-6.24,25.82,-0.20917,-0.6586,0.15988,-0.70486,613,0.901,0.119,0.427,0.671,-0.427,0.061,15.414,-63.556,-137.395,-25.753,-12.287,4.007,24.79,0.37048,-0.44461,-0.29413,-0.76053,625,0.887,0.106,0.433,0.427,-0.427,0.183,13.601,-63.133,136.176,-23.28,-12.6,-18.26,29.19,0.25784,0.51849,-0.09991,0.80908,627,0.982,0.035,0.091,0.183,-0.183,-0.061,20.495,-84.122,178.094,-30.633,-11.413,0.113,29.43,0.10382,-0.66138,-0.11813,-0.73331,615
156,1.014,0.05,0.083,0.122,0.0,0.0,32.042,-84.573,117.751,-26.64,-9.327,-6.24,25.82,-0.20917,-0.6586,0.15988,-0.70486,620,0.895,0.119,0.431,0.427,-0.305,0.0,15.425,-63.567,-137.401,-25.753,-12.287,4.007,24.79,0.37048,-0.44461,-0.29413,-0.76053,632,0.882,0.107,0.436,0.0,-0.122,0.0,13.607,-63.138,136.187,-22.447,-12.2,-17.373,29.19,0.25784,0.51849,-0.09991,0.80908,630,0.981,0.035,0.099,0.061,0.0,0.0,20.495,-84.122,178.143,-30.633,-11.413,0.113,29.43,0.10382,-0.66138,-0.11813,-0.73331,622
157,1.014,0.051,0.083,0.0,-0.244,0.0,32.064,-84.578,117.735,-26.64,-9.327,-6.24,25.82,-0.20917,-0.6586,0.15988,-0.70486,621,0.891,0.119,0.432,0.0,-0.122,-0.061,15.425,-63.567,-137.401,-25.753,-12.287,4.007,24.79,0.37048,-0.44461,-0.29413,-0.76053,633,0.883,0.107,0.435,-0.305,0.0,-0.122,13.607,-63.144,136.198,-22.447,-12.2,-17.373,29.19,0.25784,0.51849,-0.09991,0.80908,631,0.98,0.036,0.101,-0.061,0.122,0.061,20.473,-84.122,178.209,-30.633,-11.413,0.113,29.43,0.10382,-0.66138,-0.11813,-0.73331,623
158,1.013,0.051,0.08,-0.061,-0.671,0.061,32.124,-84.589,117.686,-26.64,-9.327,-6.24,25.82,-0.20917,-0.6586,0.15988,-0.70486,634,0.896,0.12,0.43,-0.244,0.0,-0.122,15.425,-63.567,-137.417,-25.753,-12.287,4.007,24.79,0.37048,-0.44461,-0.29413,-0.76053,636,0.89,0.108,0.434,-0.244,-0.122,-0.244,13.612,-63.144,136.187,-22.447,-12.2,-17.373,29.19,0.25784,0.51849,-0.09991,0.80908,644,0.977,0.035,0.096,0.0,0.0,0.0,20.468,-84.122,178.259,-30.633,-11.413,0.113,29.43,0.10382,-0.66138,-0.11813,-0.73331,628
159,1.013,0.05,0.078,0.0,-0.61,0.0,32.19,-84.6,117.625,-26.64,-9.327,-6.24,25.82,-0.20917,-0.6586,0.15988,-0.70486,635,0.901,0.119,0.427,-0.183,-0.305,-0.122,15.43,-63.572,-137.428,-25.753,-12.287,4.007,24.79,0.37048,-0.44461,-0.29413,-0.76053,637,0.891,0.107,0.433,-0.122,-0.122,-0.183,13.618,-63.144,136.143,-22.447,-12.2,-17.373,29.19,0.25784,0.51849,-0.09991,0.80908,645,0.978,0.036,0.09,0.061,-0.122,0.0,20.479,-84.122,178.297,-30.633,-11.413,0.113,29.43,0.10382,-0.66138,-0.11813,-0.73331,629
160,1.014,0.052,0.08,0.0,-0.244,-0.061,32.228,-84.606,117.603,-26.64,-9.327,-6.24,25.82,-0.20917,-0.6586,0.15988,-0.70486,638,0.9,0.119,0.43,0.0,-0.549,-0.122,15.441,-63.583,-137.433,-25.753,-12.287,4.007,24.79,0.37048,-0.44461,-0.29413,-0.76053,642,0.889,0.108,0.435,-0.122,0.0,-0.183,13.629,-63.149,136.104,-22.447,-12.2,-17.373,29.19,0.25839,0.51999,-0.10046,0.80786,648,0.981,0.036,0.094,0.0,-0.122,0.0,20.484,-84.122,178.336,-30.633,-11.413,0.113,29.43,0.10382,-0.66138,-0.11813,-0.73331,640
161,1.018,0.052,0.082,-0.061,-0.061,-0.061,32.245,-84.606,117.598,-26.64,-9.327,-6.24,25.82,-0.20917,-0.6586,0.15988,-0.70486,639,0.898,0.12,0.432,0.0,-0.305,-0.122,15.447,-63.583,-137.439,-25.753,-12.287,4.007,24.79,0.37048,-0.44461,-0.29413,-0.76053,643,0.886,0.108,0.436,-0.061,0.122,-0.122,13.634,-63.149,136.077,-22.447,-12.2,-17.373,29.19,0.25839,0.51999,-0.10046,0.80786,649,0.984,0.037,0.099,-0.122,-0.061,0.061,20.479,-84.122,178.385,-30.633,-11.413,0.113,29.43,0.10382,-0.66138,-0.11813,-0.73331,641
162,1.017,0.051,0.08,-0.122,-0.488,0.0,32.3,-84.617,117.554,-27.067,-8.92,-6.313,25.82,-0.20917,-0.6586,0.15988,-0.70486,650,0.896,0.12,0.431,0.0,0.0,-0.122,15.452,-63.583,-137.439,-25.753,-12.287,4.007,24.79,0.37048,-0.44461,-0.29413,-0.76053,656,0.886,0.108,0.435,0.0,0.061,-0.061,13.64,-63.149,136.077,-22.447,-12.2,-17.373,29.19,0.25839,0.51999,-0.10046,0.80786,658,0.982,0.038,0.098,-0.244,-0.061,0.122,20.457,-84.128,178.451,-30.24,-11.533,0.073,29.43,0.10382,-0.66138,-0.11813,-0.73331,646
163,1.015,0.051,0.081,0.0,-0.732,0.061,32.371,-84.628,117.493,-27.067,-8.92,-6.313,25.82,-0.20917,-0.6586,0.15988,-0.70486,651,0.896,0.119,0.429,0.0,0.061,-0.061,15.458,-63.583,-137.444,-25.753,-12.287,4.007,24.79,0.37048,-0.44461,-0.29413,-0.76053,657,0.888,0.108,0.433,0.0,0.0,0.0,13.64,-63.144,136.115,-22.447,-12.2,-17.373,29.19,0.25839,0.51999,-0.10046,0.80786,659,0.98,0.037,0.096,-0.305,-0.183,0.244,20.424,-84.128,178.528,-30.24,-11.533,0.073,29.43,0.10382,-0.66138,-0.11813,-0.73331,647
164,1.015,0.05,0.077,0.0,-0.671,0.122,32.426,-84.639,117.449,-27.067,-8.92,-6.313,25.82,-0.20782,-0.65973,0.15915,-0.70438,652,0.9,0.118,0.425,0.122,-0.183,0.061,15.458,-63.589,-137.444,-25.207,-12.233,4.293,24.79,0.37048,-0.44461,-0.29413,-0.76053,662,0.893,0.107,0.431,0.061,-0.122,0.122,13.645,-63.149,136.154,-22.447,-12.2,-17.373,29.19,0.25839,0.51999,-0.10046,0.80786,660,0.982,0.034,0.088,-0.061,-0.244,0.183,20.407,-84.133,178.588,-30.24,-11.533,0.073,29.43,0.10382,-0.66138,-0.11813,-0.73331,654
165,1.017,0.049,0.078,0.0,-0.183,0.122,32.426,-84.644,117.46,-27.067,-8.92,-6.313,25.82,-0.20782,-0.65973,0.15915,-0.70438,653,0.899,0.12,0.425,0.183,-0.427,0.122,15.463,-63.594,-137.444,-25.207,-12.233,4.293,24.79,0.37048,-0.44461,-0.29413,-0.76053,663,0.891,0.108,0.431,0.122,-0.061,0.183,13.645,-63.149,136.187,-22.447,-12.2,-17.373,29.19,0.25839,0.51999,-0.10046,0.80786,661,0.983,0.035,0.095,0.0,0.0,0.122,20.402,-84.139,178.643,-30.24,-11.533,0.073,29.43,0.10382,-0.66138,-0.11813,-0.73331,655
166,1.017,0.049,0.08,0.061,0.061,0.061,32.41,-84.644,117.493,-27.067,-8.92,-6.313,25.82,-0.20782,-0.65973,0.15915,-0.70438,664,0.898,0.122,0.428,-0.366,0.061,0.183,15.458,-63.6,-137.439,-25.207,-12.233,4.293,24.79,0.37048,-0.44461,-0.29413,-0.76053,670,0.889,0.11,0.433,-0.122,0.305,0.0,13.645,-63.155,136.23,-22.447,-12.2,-17.373,29.19,0.25839,0.51999,-0.10046,0.80786,666,0.981,0.036,0.096,0.0,0.183,0.183,20.38,-84.139,178.709,-30.24,-11.533,0.073,29.43,0.11002,-0.66092,-0.12366,-0.7319,668
167,1.017,0.051,0.079,0.0,0.0,0.061,32.399,-84.65,117.515,-27.067,-8.92,-6.313,25.82,-0.20782,-0.65973,0.15915,-0.70438,665,0.9,0.121,0.429,-0.305,0.244,0.183,15.447,-63.6,-137.439,-25.207,-12.233,4.293,24.79,0.37048,-0.44461,-0.29413,-0.76053,671,0.89,0.109,0.433,-0.61,0.488,0.061,13.634,-63.149,136.274,-22.447,-12.2,-17.373,29.19,0.25839,0.51999,-0.10046,0.80786,667,0.981,0.037,0.095,-0.122,0.122,0.183,20.336,-84.139,178.797,-30.24,-11.533,0.073,29.43,0.11002,-0.66092,-0.12366,-0.7319,669
168,1.016,0.052,0.078,0.0,-0.183,0.061,32.41,-84.65,117.515,-27.067,-8.92,-6.313,25.82,-0.20782,-0.65973,0.15915,-0.70438,672,0.895,0.115,0.426,0.427,0.366,0.244,15.436,-63.594,-137.439,-25.207,-12.233,4.293,24.79,0.37158,-0.4451,-0.29593,-0.75903,676,0.886,0.105,0.433,0.0,0.427,0.061,13.629,-63.144,136.307,-22.447,-12.2,-17.373,29.19,0.25839,0.51999,-0.10046,0.80786,678,0.981,0.037,0.094,0.0,0.0,0.122,20.303,-84.133,178.879,-30.24,-11.533,0.073,29.43,0.11002,-0.66092,-0.12366,-0.7319,674
169,1.016,0.051,0.077,0.0,-0.305,0.183,32.415,-84.661,117.526,-27.067,-8.92,-6.313,25.82,-0.20782,-0.65973,0.15915,-0.70438,673,0.901,0.112,0.423,0.366,0.244,0.244,15.43,-63.589,-137.428,-25.207,-12.233,4.293,24.79,0.37158,-0.4451,-0.29593,-0.75903,677,0.886,0.102,0.432,0.366,0.244,0.366,13.623,-63.138,136.324,-22.447,-12.2,-17.373,29.19,0.25839,0.51999,-0.10046,0.80786,679,0.982,0.036,0.093,-0.183,0.0,0.0,20.308,-84.133,178.918,-30.24,-11.533,0.073,29.43,0.11002,-0.66092,-0.12366,-0.7319,675
170,1.017,0.049,0.079,0.0,-0.305,0.0,32.454,-84.666,117.504,-27.067,-8.92,-6.313,25.82,-0.20782,-0.65973,0.15915,-0.70438,682,0.902,0.122,0.424,-0.122,0.244,0.0,15.425,-63.589,-137.422,-25.207,-12.233,4.293,24.79,0.37158,-0.4451,-0.29593,-0.75903,684,0.893,0.103,0.429,0.0,0.122,0.183,13.618,-63.138,136.34,-22.447,-12.2,-17.373,29.19,0.25839,0.51999,-0.10046,0.80786,688,0.981,0.03,0.089,-0.122,0.122,0.305,20.292,-84.133,178.978,-30.24,-11.533,0.073,29.43,0.11002,-0.66092,-0.12366,-0.7319,680
171,1.018,0.048,0.076,-0.122,-0.183,0.0,32.476,-84.672,117.493,-27.067,-8.92,-6.313,25.82,-0.20782,-0.65973,0.15915,-0.70438,683,0.901,0.125,0.43,-0.244,0.183,-0.305,15.425,-63.589,-137.444,-25.207,-12.233,4.293,24.79,0.37158,-0.4451,-0.29593,-0.75903,685,0.892,0.109,0.431,0.0,0.366,-0.305,13.623,-63.138,136.335,-22.447,-12.2,-17.373,29.19,0.25839,0.51999,-0.10046,0.80786,689,0.983,0.035,0.09,0.122,0.549,0.122,20.237,-84.133,179.077,-30.24,-11.533,0.073,29.43,0.11002,-0.66092,-0.12366,-0.7319,681
172,1.017,0.048,0.077,0.0,0.061,0.0,32.47,-84.672,117.51,-27.067,-8.92,-6.313,25.82,-0.20782,-0.65973,0.15915,-0.70438,690,0.897,0.121,0.431,-0.183,0.427,-0.244,15.43,-63.583,-137.483,-25.207,-12.233,4.293,24.79,0.37158,-0.4451,-0.29593,-0.75903,692,0.889,0.111,0.435,0.122,0.793,-0.61,13.64,-63.127,136.296,-22.447,-12.2,-17.373,29.19,0.25839,0.51999,-0.10046,0.80786,698,0.983,0.04,0.097,-0.183,0.732,0.305,20.171,-84.122,179.193,-30.24,-11.533,0.073,29.43,0.11002,-0.66092,-0.12366,-0.7319,686
173,1.015,0.052,0.079,0.0,0.305,0.0,32.437,-84.666,117.554,-27.067,-8.92,-6.313,25.82,-0.20782,-0.65973,0.15915,-0.70438,691,0.896,0.124,0.434,-0.854,0.549,0.061,15.43,-63.572,-137.505,-25.207,-12.233,4.293,24.79,0.37158,-0.4451,-0.29593,-0.75903,693,0.886,0.112,0.438,-0.122,1.038,-0.244,13.651,-63.111,136.274,-22.447,-12.2,-17.373,29.19,0.25839,0.51999,-0.10046,0.80786,699,0.984,0.037,0.098,-0.549,0.549,0.549,20.061,-84.117,179.341,-30.24,-11.533,0.073,29.43,0.11002,-0.66092,-0.12366,-0.7319,687
174,1.018,0.052,0.08,-0.122,0.061,0.0,32.432,-84.666,117.576,-27.067,-8.92,-6.313,25.82,-0.20782,-0.65973,0.15915,-0.70438,694,0.896,0.122,0.433,-1.465,0.366,0.244,15.403,-63.567,-137.499,-25.207,-12.233,4.293,24.79,0.37158,-0.4451,-0.29593,-0.75903,700,0.886,0.115,0.441,-1.465,1.16,-0.122,13.634,-63.089,136.263,-22.827,-12.433,-17.48,29.19,0.25839,0.51999,-0.10046,0.80786,702,0.981,0.034,0.095,-0.244,0.61,0.427,19.935,-84.106,179.517,-30.24,-11.533,0.073,29.43,0.11002,-0.66092,-0.12366,-0.7319,696
175,1.017,0.049,0.079,-0.122,-0.122,0.0,32.443,-84.666,117.57,-27.067,-8.92,-6.313,25.82,-0.20782,-0.65973,0.15915,-0.70438,695,0.894,0.112,0.43,-0.793,0.244,0.366,15.37,-63.561,-137.494,-25.207,-12.233,4.293,24.79,0.37158,-0.4451,-0.29593,-0.75903,701,0.884,0.104,0.438,-1.526,0.793,0.122,13.601,-63.073,136.28,-22.827,-12.433,-17.48,29.19,0.25839,0.51999,-0.10046,0.80786,703,0.98,0.033,0.095,-0.366,0.549,0.549,19.814,-84.1,179.676,-30.24,-11.533,0.073,29.43,0.11002,-0.66092,-0.12366,-0.7319,697
176,1.015,0.048,0.078,-0.061,-0.122,0.0,32.459,-84.672,117.565,-27.067,-8.92,-6.313,25.82,-0.20782,-0.65973,0.15915,-0.70438,704,0.896,0.113,0.432,-0.427,0.122,0.61,15.337,-63.561,-137.477,-25.207,-12.233,4.293,24.79,0.37158,-0.4451,-0.29593,-0.75903,708,0.884,0.103,0.438,-0.977,0.732,0.366,13.563,-63.062,136.307,-22.827,-12.433,-17.48,29.19,0.25839,0.51999,-0.10046,0.80786,718,0.979,0.033,0.095,-0.244,0.366,0.61,19.682,-84.095,179.852,-30.24,-11.533,0.073,29.43,0.11002,-0.66092,-0.12366,-0.7319,706
177,1.015,0.049,0.078,-0.305,-0.061,0.0,32.454,-84.672,117.576,-27.067,-8.92,-6.313,25.82,-0.20782,-0.65973,0.15915,-0.70438,705,0.896,0.115,0.432,0.0,0.183,0.61,15.304,-63.561,-137.45,-25.207,-12.233,4.293,24.79,0.37158,-0.4451,-0.29593,-0.75903,709,0.885,0.104,0.438,-0.305,0.793,0.488,13.535,-63.051,136.373,-22.827,-12.433,-17.48,29.19,0.25839,0.51999,-0.10046,0.80786,719,0.98,0.031,0.098,-0.305,0.427,0.366,19.556,-84.089,-179.984,-30.24,-11.533,0.073,29.43,0.11002,-0.66092,-0.12366,-0.7319,707
178,1.016,0.048,0.079,-0.183,-0.305,0.0,32.465,-84.677,117.57,-26.593,-9.06,-6.733,25.82,-0.20782,-0.65973,0.15915,-0.70438,710,0.893,0.115,0.433,0.122,0.122,0.427,15.282,-63.561,-137.422,-25.207,-12.233,4.293,24.79,0.37158,-0.4451,-0.29593,-0.75903,714,0.883,0.102,0.439,0.0,0.854,0.366,13.508,-63.034,136.417,-22.827,-12.433,-17.48,29.19,0.2572,0.51935,-0.09961,0.80878,722,0.981,0.033,0.097,-0.122,0.488,0.305,19.462,-84.084,-179.852,-30.24,-11.533,0.073,29.43,0.11002,-0.66092,-0.12366,-0.7319,712
179,1.015,0.048,0.079,0.0,-0.305,0.0,32.492,-84.683,117.548,-26.593,-9.06,-6.733,25.82,-0.20782,-0.65973,0.15915,-0.70438,711,0.892,0.117,0.437,0.061,0.061,0.061,15.271,-63.561,-137.406,-25.207,-12.233,4.293,24.79,0.37158,-0.4451,-0.29593,-0.75903,715,0.881,0.102,0.442,0.061,0.854,0.061,13.497,-63.023,136.412,-22.827,-12.433,-17.48,29.19,0.2572,0.51935,-0.09961,0.80878,723,0.979,0.035,0.099,0.0,0.366,0.427,19.369,-84.078,-179.725,-30.24,-11.533,0.073,29.43,0.11002,-0.66092,-0.12366,-0.7319,713
180,1.013,0.049,0.079,0.183,-0.427,0.0,32.525,-84.688,117.515,-26.593,-9.06,-6.733,25.82,-0.20667,-0.66019,0.15836,-0.70444,720,0.89,0.115,0.438,0.061,-0.183,-0.122,15.271,-63.556,-137.406,-25.207,-12.233,4.293,24.79,0.37158,-0.4451,-0.29593,-0.75903,726,0.878,0.104,0.447,0.122,0.854,-0.244,13.491,-63.007,136.379,-22.827,-12.433,-17.48,29.19,0.2572,0.51935,-0.09961,0.80878,728,0.977,0.034,0.1,-0.061,0.183,0.61,19.265,-84.078,-179.583,-30.647,-11.18,-0.373,29.43,0.11002,-0.66092,-0.12366,-0.7319,716
181,1.013,0.05,0.079,0.244,-0.61,0.0,32.58,-84.699,117.471,-26.593,-9.06,-6.733,25.82,-0.20667,-0.66019,0.15836,-0.70444,721,0.893,0.113,0.436,0.366,-0.305,-0.183,15.276,-63.561,-137.417,-25.207,-12.233,4.293,24.79,0.37158,-0.4451,-0.29593,-0.75903,727,0.879,0.103,0.445,0.305,0.366,-0.305,13.502,-62.99,136.351,-22.827,-12.433,-17.48,29.19,0.2572,0.51935,-0.09961,0.80878,729,0.978,0.034,0.102,0.0,-0.122,0.61,19.149,-84.078,-179.423,-30.647,-11.18,-0.373,29.43,0.11002,-0.66092,-0.12366,-0.7319,717
182,1.013,0.052,0.078,0.122,-0.916,0.305,32.64,-84.71,117.416,-26.593,-9.06,-6.733,25.82,-0.20667,-0.66019,0.15836,-0.70444,730,0.898,0.119,0.435,0.427,-0.366,-0.427,15.293,-63.561,-137.433,-25.407,-12.467,4.027,24.79,0.37158,-0.4451,-0.29593,-0.75903,732,0.884,0.104,0.445,0.183,0.061,-0.427,13.519,-62.985,136.329,-22.827,-12.433,-17.48,29.19,0.2572,0.51935,-0.09961,0.80878,736,0.978,0.034,0.097,-0.183,-0.427,0.549,19.056,-84.084,-179.291,-30.647,-11.18,-0.373,29.43,0.11002,-0.66092,-0.12366,-0.7319,724
183,1.015,0.051,0.08,-0.305,-0.977,0.366,32.69,-84.732,117.372,-26.593,-9.06,-6.733,25.82,-0.20667,-0.66019,0.15836,-0.70444,731,0.901,0.121,0.432,0.61,-0.305,-0.671,15.326,-63.561,-137.461,-25.407,-12.467,4.027,24.79,0.37158,-0.4451,-0.29593,-0.75903,733,0.888,0.108,0.441,0.244,-0.366,-0.671,13.541,-62.979,136.28,-22.827,-12.433,-17.48,29.19,0.2572,0.51935,-0.09961,0.80878,737,0.981,0.036,0.096,-0.427,-0.427,0.488,18.984,-84.095,-179.187,-30.647,-11.18,-0.373,29.43,0.11002,-0.66092,-0.12366,-0.7319,725
184,1.016,0.048,0.078,-0.549,-0.854,0.427,32.717,-84.749,117.339,-26.593,-9.06,-6.733,25.82,-0.20667,-0.66019,0.15836,-0.70444,734,0.896,0.119,0.435,0.549,-0.366,-0.427,15.359,-63.561,-137.477,-25.407,-12.467,4.027,24.79,0.37158,-0.4451,-0.29593,-0.75903,738,0.889,0.111,0.44,0.671,-0.427,-0.488,13.574,-62.985,136.208,-22.827,-12.433,-17.48,29.19,0.2572,0.51935,-0.09961,0.80878,740,0.982,0.035,0.092,-1.099,-0.305,0.854,18.875,-84.106,-179.05,-30.647,-11.18,-0.373,29.43,0.11554,-0.65967,-0.12708,-0.7316,744
185,1.017,0.046,0.08,-0.427,-0.488,0.305,32.723,-84.765,117.334,-26.593,-9.06,-6.733,25.82,-0.20667,-0.66019,0.15836,-0.70444,735,0.89,0.118,0.436,0.061,-0.183,-0.305,15.386,-63.561,-137.483,-25.407,-12.467,4.027,24.79,0.37158,-0.4451,-0.29593,-0.75903,739,0.879,0.107,0.443,0.244,0.0,-0.305,13.601,-62.985,136.165,-22.827,-12.433,-17.48,29.19,0.2572,0.51935,-0.09961,0.80878,741,0.983,0.029,0.102,-0.854,-0.244,0.916,18.721,-84.111,-178.874,-30.647,-11.18,-0.373,29.43,0.11554,-0.65967,-0.12708,-0.7316,745
186,1.016,0.047,0.081,-0.061,-0.61,0.244,32.712,-84.781,117.334,-26.593,-9.06,-6.733,25.82,-0.20667,-0.66019,0.15836,-0.70444,742,0.89,0.12,0.435,0.0,-0.366,-0.427,15.397,-63.561,-137.494,-25.407,-12.467,4.027,24.79,0.37109,-0.44516,-0.29529,-0.75949,754,0.878,0.107,0.444,-0.122,0.0,-0.366,13.612,-62.979,136.159,-22.827,-12.433,-17.48,29.19,0.2572,0.51935,-0.09961,0.80878,746,0.979,0.031,0.104,-0.366,-0.366,0.854,18.567,-84.122,-178.693,-30.647,-11.18,-0.373,29.43,0.11554,-0.65967,-0.12708,-0.7316,748
187,1.014,0.05,0.08,0.0,-0.854,0.305,32.728,-84.792,117.312,-26.593,-9.06,-6.733,25.82,-0.20667,-0.66019,0.15836,-0.70444,743,0.891,0.12,0.434,0.0,-0.488,-0.488,15.419,-63.567,-137.505,-25.407,-12.467,4.027,24.79,0.37109,-0.44516,-0.29529,-0.75949,755,0.878,0.109,0.443,-0.183,-0.366,-0.427,13.629,-62.979,136.154,-22.827,-12.433,-17.48,29.19,0.2572,0.51935,-0.09961,0.80878,747,0.978,0.034,0.101,-0.427,-0.549,0.916,18.424,-84.133,-178.522,-30.647,-11.18,-0.373,29.43,0.11554,-0.65967,-0.12708,-0.7316,749
188,1.013,0.051,0.08,-0.122,-0.916,0.366,32.761,-84.809,117.279,-26.593,-9.06,-6.733,25.82,-0.20667,-0.66019,0.15836,-0.70444,750,0.891,0.12,0.434,0.122,-0.793,-0.488,15.441,-63.572,-137.505,-25.407,-12.467,4.027,24.79,0.37109,-0.44516,-0.29529,-0.75949,756,0.88,0.109,0.442,-0.061,-0.671,-0.366,13.645,-62.985,136.132,-22.827,-12.433,-17.48,29.19,0.2572,0.51935,-0.09961,0.80878,760,0.978,0.032,0.101,-0.671,-0.732,0.916,18.287,-84.15,-178.358,-30.647,-11.18,-0.373,29.43,0.11554,-0.65967,-0.12708,-0.7316,752
189,1.013,0.05,0.076,-0.183,-1.099,0.366,32.794,-84.831,117.241,-26.593,-9.06,-6.733,25.82,-0.20667,-0.66019,0.15836,-0.70444,751,0.893,0.119,0.433,0.244,-0.916,-0.305,15.469,-63.578,-137.499,-25.407,-12.467,4.027,24.79,0.37109,-0.44516,-0.29529,-0.75949,757,0.88,0.11,0.442,0.061,-0.854,-0.244,13.661,-62.996,136.11,-22.827,-12.433,-17.48,29.19,0.2572,0.51935,-0.09961,0.80878,761,0.977,0.032,0.098,-0.732,-0.854,0.977,18.144,-84.166,-178.198,-30.647,-11.18,-0.373,29.43,0.11554,-0.65967,-0.12708,-0.7316,753
190,1.015,0.05,0.074,-0.183,-1.282,0.427,32.844,-84.853,117.186,-26.593,-9.06,-6.733,25.82,-0.20667,-0.66019,0.15836,-0.70444,762,0.898,0.117,0.431,0.305,-1.16,-0.183,15.491,-63.594,-137.494,-25.407,-12.467,4.027,24.79,0.37109,-0.44516,-0.29529,-0.75949,764,0.886,0.108,0.441,0.061,-1.038,-0.122,13.678,-63.007,136.121,-22.827,-12.433,-17.48,29.19,0.2572,0.51935,-0.09961,0.80878,766,0.979,0.031,0.095,-0.732,-1.099,0.977,18.012,-84.188,-178.044,-30.647,-11.18,-0.373,29.43,0.11554,-0.65967,-0.12708,-0.7316,758
191,1.016,0.049,0.073,-0.122,-1.343,0.488,32.91,-84.875,117.125,-26.593,-9.06,-6.733,25.82,-0.20667,-0.66019,0.15836,-0.70444,763,0.896,0.117,0.433,0.305,-1.526,-0.061,15.513,-63.611,-137.494,-25.407,-12.467,4.027,24.79,0.37109,-0.44516,-0.29529,-0.75949,765,0.887,0.106,0.44,0.183,-1.038,0.0,13.694,-63.023,136.137,-22.827,-12.433,-17.48,29.19,0.2572,0.51935,-0.09961,0.80878,767,0.98,0.029,0.093,-0.427,-1.282,0.793,17.913,-84.216,-177.957,-30.647,-11.18,-0.373,29.43,0.11554,-0.65967,-0.12708,-0.7316,759
192,1.016,0.049,0.075,-0.122,-1.404,0.549,32.975,-84.902,117.081,-26.607,-8.96,-6.1,25.82,-0.20667,-0.66019,0.15836,-0.70444,768,0.894,0.12,0.434,0.366,-1.465,-0.122,15.54,-63.638,-137.494,-25.407,-12.467,4.027,24.79,0.37109,-0.44516,-0.29529,-0.75949,772,0.883,0.107,0.441,0.122,-0.916,0.0,13.705,-63.04,136.137,-22.827,-12.433,-17.48,29.19,0.2572,0.51935,-0.09961,0.80878,774,0.982,0.029,0.1,-0.427,-1.526,0.671,17.853,-84.243,-177.957,-30.647,-11.18,-0.373,29.43,0.11554,-0.65967,-0.12708,-0.7316,770
193,1.016,0.048,0.074,-0.244,-1.892,0.488,33.058,-84.935,117.01,-26.607,-8.96,-6.1,25.82,-0.20667,-0.66019,0.15836,-0.70444,769,0.893,0.121,0.432,0.305,-1.404,-0.244,15.562,-63.66,-137.505,-25.407,-12.467,4.027,24.79,0.37109,-0.44516,-0.29529,-0.75949,773,0.88,0.108,0.441,0.183,-1.038,-0.061,13.722,-63.056,136.126,-22.827,-12.433,-17.48,29.19,0.2572,0.51935,-0.09961,0.80878,775,0.98,0.031,0.098,-0.793,-1.709,0.549,17.825,-84.271,-177.984,-30.647,-11.18,-0.373,29.43,0.11554,-0.65967,-0.12708,-0.7316,771
194,1.016,0.047,0.072,-0.244,-2.319,0.488,33.201,-84.974,116.851,-26.607,-8.96,-6.1,25.82,-0.20667,-0.66019,0.15836,-0.70444,776,0.896,0.121,0.43,0.305,-1.587,-0.305,15.59,-63.682,-137.521,-25.407,-12.467,4.027,24.79,0.37109,-0.44516,-0.29529,-0.75949,780,0.883,0.109,0.441,0.305,-1.221,-0.122,13.738,-63.073,136.104,-22.827,-12.433,-17.48,29.19,0.2572,0.51935,-0.09961,0.80878,784,0.979,0.03,0.094,-0.977,-1.892,0.61,17.809,-84.309,-177.995,-30.647,-11.18,-0.373,29.43,0.11554,-0.65967,-0.12708,-0.7316,778
195,1.016,0.045,0.071,-0.183,-2.258,0.549,33.387,-85.018,116.658,-26.607,-8.96,-6.1,25.82,-0.20667,-0.66019,0.15836,-0.70444,777,0.9,0.12,0.426,0.366,-1.892,-0.244,15.623,-63.71,-137.543,-25.407,-12.467,4.027,24.79,0.37109,-0.44516,-0.29529,-0.75949,781,0.887,0.11,0.438,0.244,-1.587,-0.122,13.76,-63.094,136.066,-22.827,-12.433,-17.48,29.19,0.2572,0.51935,-0.09961,0.80878,785,0.98,0.029,0.089,-0.916,-2.136,0.854,17.776,-84.348,-178.0,-30.647,-11.18,-0.373,29.43,0.11554,-0.65967,-0.12708,-0.7316,779
196,1.017,0.044,0.071,-0.061,-1.77,0.488,33.547,-85.056,116.494,-26.607,-8.96,-6.1,25.82,-0.20554,-0.66187,0.15948,-0.70294,782,0.903,0.12,0.425,0.427,-1.953,0.0,15.661,-63.743,-137.571,-25.407,-12.467,4.027,24.79,0.37109,-0.44516,-0.29529,-0.75949,794,0.892,0.109,0.433,0.244,-1.831,0.122,13.782,-63.122,136.033,-22.82,-12.36,-18.38,29.19,0.2572,0.51935,-0.09961,0.80878,790,0.982,0.027,0.088,-0.854,-2.38,1.038,17.715,-84.391,-177.962,-30.647,-11.18,-0.373,29.43,0.11554,-0.65967,-0.12708,-0.7316,786
197,1.017,0.043,0.074,0.0,-1.465,0.427,33.657,-85.089,116.373,-26.607,-8.96,-6.1,25.82,-0.20554,-0.66187,0.15948,-0.70294,783,0.9,0.121,0.425,0.427,-1.709,0.244,15.683,-63.77,-137.571,-25.407,-12.467,4.027,24.79,0.37109,-0.44516,-0.29529,-0.75949,795,0.889,0.109,0.433,0.305,-1.648,0.305,13.799,-63.155,136.005,-22.82,-12.36,-18.38,29.19,0.2572,0.51935,-0.09961,0.80878,791,0.983,0.025,0.092,-0.549,-2.136,1.099,17.633,-84.441,-177.924,-30.647,-11.18,-0.373,29.43,0.11554,-0.65967,-0.12708,-0.7316,787
198,1.015,0.045,0.074,0.061,-1.587,0.549,33.745,-85.117,116.274,-26.607,-8.96,-6.1,25.82,-0.20554,-0.66187,0.15948,-0.70294,792,0.902,0.124,0.425,0.305,-1.526,0.244,15.694,-63.803,-137.565,-25.5,-11.993,3.953,24.79,0.37109,-0.44516,-0.29529,-0.75949,798,0.89,0.11,0.433,0.122,-1.465,0.427,13.804,-63.188,135.978,-22.82,-12.36,-18.38,29.19,0.2572,0.51935,-0.09961,0.80878,800,0.982,0.026,0.095,-0.366,-1.892,1.099,17.529,-84.485,-177.88,-30.713,-11.24,0.033,29.43,0.11554,-0.65967,-0.12708,-0.7316,788
199,1.016,0.046,0.072,0.0,-1.892,0.671,33.832,-85.15,116.186,-26.607,-8.96,-6.1,25.82,-0.20554,-0.66187,0.15948,-0.70294,793,0.897,0.124,0.427,0.366,-1.343,0.305,15.705,-63.831,-137.565,-25.5,-11.993,3.953,24.79,0.37109,-0.44516,-0.29529,-0.75949,799,0.888,0.113,0.435,0.122,-1.404,0.427,13.81,-63.215,135.956,-22.82,-12.36,-18.38,29.19,0.2572,0.51935,-0.09961,0.80878,801,0.981,0.028,0.093,-0.61,-1.77,1.099,17.408,-84.523,-177.792,-30.713,-11.24,0.033,29.43,0.11554,-0.65967,-0.12708,-0.7316,789
200,1.018,0.046,0.069,-0.061,-1.892,0.732,33.926,-85.188,116.076,-26.607,-8.96,-6.1,25.82,-0.20554,-0.66187,0.15948,-0.70294,802,0.901,0.116,0.422,0.549,-1.526,0.549,15.716,-63.858,-137.565,-25.5,-11.993,3.953,24.79,0.37109,-0.44516,-0.29529,-0.75949,808,0.886,0.108,0.433,0.183,-1.404,0.793,13.804,-63.243,135.956,-22.82,-12.36,-18.38,29.19,0.25851,0.52063,-0.10004,0.80746,804,0.983,0.029,0.088,-0.793,-1.892,1.282,17.265,-84.562,-177.654,-30.713,-11.24,0.033,29.43,0.11554,-0.65967,-0.12708,-0.7316,796
201,1.02,0.045,0.069,-0.061,-1.648,0.732,34.008,-85.226,115.966,-26.607,-8.96,-6.1,25.82,-0.20554,-0.66187,0.15948,-0.70294,803,0.909,0.12,0.419,0.0,-1.648,0.488,15.721,-63.885,-137.565,-25.5,-11.993,3.953,24.79,0.37109,-0.44516,-0.29529,-0.75949,809,0.895,0.105,0.43,0.0,-1.587,0.793,13.793,-63.276,135.967,-22.82,-12.36,-18.38,29.19,0.25851,0.52063,-0.10004,0.80746,805,0.982,0.025,0.087,-0.793,-2.014,1.282,17.111,-84.6,-177.495,-30.713,-11.24,0.033,29.43,0.11554,-0.65967,-0.12708,-0.7316,797
202,1.022,0.046,0.065,0.061,-1.404,0.671,34.063,-85.259,115.889,-26.607,-8.96,-6.1,25.82,-0.20554,-0.66187,0.15948,-0.70294,806,0.911,0.122,0.419,0.183,-1.709,0.366,15.721,-63.918,-137.571,-25.5,-11.993,3.953,24.79,0.37158,-0.44678,-0.29788,-0.75729,812,0.9,0.108,0.427,0.183,-1.465,0.549,13.788,-63.303,135.978,-22.82,-12.36,-18.38,29.19,0.25851,0.52063,-0.10004,0.80746,816,0.986,0.024,0.081,-0.427,-1.648,1.038,16.979,-84.639,-177.352,-30.713,-11.24,0.033,29.43,0.11606,-0.66287,-0.12457,-0.72903,810
203,1.023,0.049,0.065,0.183,-0.916,0.549,34.096,-85.287,115.867,-26.607,-8.96,-6.1,25.82,-0.20554,-0.66187,0.15948,-0.70294,807,0.909,0.124,0.417,0.61,-1.465,0.427,15.732,-63.951,-137.582,-25.5,-11.993,3.953,24.79,0.37158,-0.44678,-0.29788,-0.75729,813,0.899,0.11,0.425,0.732,-1.465,0.488,13.793,-63.336,135.95,-22.82,-12.36,-18.38,29.19,0.25851,0.52063,-0.10004,0.80746,817,0.989,0.029,0.078,-0.366,-1.343,0.793,16.891,-84.672,-177.264,-30.713,-11.24,0.033,29.43,0.11606,-0.66287,-0.12457,-0.72903,811
204,1.022,0.048,0.069,0.061,-0.366,0.671,34.091,-85.309,115.889,-26.607,-8.96,-6.1,25.82,-0.20554,-0.66187,0.15948,-0.70294,814,0.907,0.123,0.417,0.488,-1.16,0.671,15.743,-63.979,-137.576,-25.5,-11.993,3.953,24.79,0.37158,-0.44678,-0.29788,-0.75729,826,0.896,0.112,0.424,0.793,-1.282,0.732,13.804,-63.369,135.923,-22.82,-12.36,-18.38,29.19,0.25851,0.52063,-0.10004,0.80746,820,0.989,0.03,0.087,-0.549,-1.343,0.793,16.809,-84.699,-177.193,-30.713,-11.24,0.033,29.43,0.11606,-0.66287,-0.12457,-0.72903,818
205,1.019,0.044,0.066,0.061,-0.305,0.671,34.003,-85.32,115.994,-26.607,-8.96,-6.1,25.82,-0.20554,-0.66187,0.15948,-0.70294,815,0.9,0.121,0.417,-0.183,-1.16,0.732,15.732,-64.006,-137.56,-25.5,-11.993,3.953,24.79,0.37158,-0.44678,-0.29788,-0.75729,827,0.89,0.109,0.426,0.0,-1.038,0.732,13.799,-63.397,135.906,-22.82,-12.36,-18.38,29.19,0.25851,0.52063,-0.10004,0.80746,821,0.987,0.025,0.084,-0.793,-1.099,0.916,16.694,-84.727,-177.116,-30.713,-11.24,0.033,29.43,0.11606,-0.66287,-0.12457,-0.72903,819
206,1.018,0.045,0.063,0.366,-0.305,0.61,33.915,-85.331,116.109,-26.607,-8.96,-6.1,25.82,-0.20554,-0.66187,0.15948,-0.70294,824,0.898,0.117,0.415,-0.122,-1.099,0.732,15.716,-64.034,-137.549,-25.5,-11.993,3.953,24.79,0.37158,-0.44678,-0.29788,-0.75729,830,0.887,0.106,0.424,-0.244,-1.038,0.793,13.782,-63.419,135.89,-22.82,-12.36,-18.38,29.19,0.25851,0.52063,-0.10004,0.80746,828,0.982,0.022,0.082,-0.244,-0.793,0.854,16.573,-84.749,-177.039,-30.713,-11.24,0.033,29.43,0.11606,-0.66287,-0.12457,-0.72903,822
207,1.016,0.047,0.064,0.427,-0.305,0.488,33.854,-85.342,116.186,-26.607,-8.96,-6.1,25.82,-0.20554,-0.66187,0.15948,-0.70294,825,0.9,0.114,0.415,0.488,-0.916,0.732,15.705,-64.061,-137.538,-25.5,-11.993,3.953,24.79,0.37158,-0.44678,-0.29788,-0.75729,831,0.888,0.103,0.422,0.0,-1.404,1.038,13.766,-63.452,135.89,-22.82,-12.36,-18.38,29.19,0.25851,0.52063,-0.10004,0.80746,829,0.98,0.025,0.081,0.061,-0.793,0.854,16.447,-84.771,-176.951,-30.713,-11.24,0.033,29.43,0.11606,-0.66287,-0.12457,-0.72903,823
208,1.016,0.048,0.062,0.122,-0.183,0.732,33.777,-85.353,116.285,-26.42,-8.953,-6.193,25.82,-0.20554,-0.66187,0.15948,-0.70294,834,0.903,0.117,0.414,0.732,-1.038,0.671,15.705,-64.083,-137.516,-25.5,-11.993,3.953,24.79,0.37158,-0.44678,-0.29788,-0.75729,836,0.892,0.104,0.423,0.427,-1.404,1.038,13.744,-63.484,135.906,-22.82,-12.36,-18.38,29.19,0.25851,0.52063,-0.10004,0.80746,840,0.979,0.025,0.077,0.0,-0.793,0.671,16.359,-84.787,-176.88,-30.713,-11.24,0.033,29.43,0.11606,-0.66287,-0.12457,-0.72903,832
209,1.017,0.044,0.062,-0.183,-0.061,0.916,33.646,-85.369,116.411,-26.42,-8.953,-6.193,25.82,-0.20554,-0.66187,0.15948,-0.70294,835,0.903,0.119,0.417,0.671,-0.916,0.61,15.705,-64.111,-137.505,-25.5,-11.993,3.953,24.79,0.37158,-0.44678,-0.29788,-0.75729,837,0.892,0.106,0.423,0.488,-1.16,0.916,13.733,-63.517,135.928,-22.82,-12.36,-18.38,29.19,0.25851,0.52063,-0.10004,0.80746,841,0.981,0.025,0.081,-0.122,-0.61,0.549,16.287,-84.809,-176.819,-30.713,-11.24,0.033,29.43,0.11606,-0.66287,-0.12457,-0.72903,833
210,1.018,0.041,0.061,-0.366,-0.244,0.977,33.486,-85.38,116.532,-26.42,-8.953,-6.193,25.82,-0.20401,-0.66357,0.16138,-0.70132,842,0.905,0.119,0.419,0.183,-0.671,0.549,15.705,-64.127,-137.499,-25.5,-11.993,3.953,24.79,0.37158,-0.44678,-0.29788,-0.75729,844,0.893,0.106,0.425,0.122,-0.671,0.671,13.722,-63.545,135.928,-22.82,-12.36,-18.38,29.19,0.25851,0.52063,-0.10004,0.80746,846,0.982,0.024,0.081,-0.61,-0.61,0.671,16.194,-84.825,-176.748,-30.713,-11.24,0.033,29.43,0.11606,-0.66287,-0.12457,-0.72903,838
211,1.019,0.038,0.061,-0.183,-0.244,0.732,33.354,-85.397,116.631,-26.42,-8.953,-6.193,25.82,-0.20401,-0.66357,0.16138,-0.70132,843,0.905,0.116,0.42,-0.122,-0.732,0.671,15.688,-64.149,-137.494,-25.5,-11.993,3.953,24.79,0.37158,-0.44678,-0.29788,-0.75729,845,0.893,0.104,0.428,-0.183,-0.366,0.549,13.705,-63.556,135.917,-22.82,-12.36,-18.38,29.19,0.25851,0.52063,-0.10004,0.80746,847,0.982,0.02,0.082,-0.671,-0.854,0.916,16.062,-84.847,-176.638,-30.713,-11.24,0.033,29.43,0.11606,-0.66287,-0.12457,-0.72903,839
212,1.019,0.04,0.063,0.122,-0.366,0.549,33.272,-85.413,116.68,-26.42,-8.953,-6.193,25.82,-0.20401,-0.66357,0.16138,-0.70132,848,0.905,0.112,0.417,0.0,-0.732,0.854,15.667,-64.166,-137.488,-25.5,-11.993,3.953,24.79,0.37158,-0.44678,-0.29788,-0.75729,852,0.893,0.102,0.427,-0.183,-0.488,0.732,13.683,-63.572,135.912,-22.82,-12.36,-18.38,29.19,0.25851,0.52063,-0.10004,0.80746,858,0.983,0.018,0.082,-0.366,-1.099,1.038,15.903,-84.869,-176.534,-30.713,-11.24,0.033,29.43,0.11606,-0.66287,-0.12457,-0.72903,850
213,1.019,0.043,0.065,0.183,-0.488,0.61,33.223,-85.43,116.697,-26.42,-8.953,-6.193,25.82,-0.20401,-0.66357,0.16138,-0.70132,849,0.906,0.116,0.42,-0.183,-0.916,0.732,15.645,-64.188,-137.488,-25.5,-11.993,3.953,24.79,0.37158,-0.44678,-0.29788,-0.75729,853,0.895,0.101,0.428,-0.244,-0.549,0.854,13.656,-63.589,135.917,-22.82,-12.36,-18.38,29.19,0.25851,0.52063,-0.10004,0.80746,859,0.984,0.02,0.083,-0.183,-1.038,0.916,15.76,-84.897,-176.418,-30.713,-11.24,0.033,29.43,0.11606,-0.66287,-0.12457,-0.72903,851
214,1.018,0.045,0.068,-0.183,-0.366,0.732,33.146,-85.446,116.708,-26.42,-8.953,-6.193,25.82,-0.20401,-0.66357,0.16138,-0.70132,854,0.906,0.12,0.418,-0.488,-0.61,0.366,15.623,-64.21,-137.477,-25.5,-11.993,3.953,24.79,0.37158,-0.44678,-0.29788,-0.75729,866,0.895,0.106,0.426,-0.427,-0.488,0.549,13.629,-63.605,135.928,-23.193,-11.9,-17.46,29.19,0.25851,0.52063,-0.10004,0.80746,862,0.984,0.023,0.083,-0.305,-0.854,0.61,15.656,-84.919,-176.325,-30.713,-11.24,0.033,29.43,0.11606,-0.66287,-0.12457,-0.72903,856
215,1.017,0.042,0.069,-0.61,-0.183,0.732,33.03,-85.457,116.768,-26.42,-8.953,-6.193,25.82,-0.20401,-0.66357,0.16138,-0.70132,855,0.911,0.116,0.413,-0.183,-0.488,0.61,15.606,-64.221,-137.461,-25.5,-11.993,3.953,24.79,0.37158,-0.44678,-0.29788,-0.75729,867,0.899,0.105,0.421,0.0,-0.488,0.671,13.607,-63.616,135.934,-23.193,-11.9,-17.46,29.19,0.25851,0.52063,-0.10004,0.80746,863,0.984,0.025,0.083,-0.977,-0.854,0.732,15.54,-84.941,-176.248,-30.713,-11.24,0.033,29.43,0.11606,-0.66287,-0.12457,-0.72903,857
216,1.018,0.04,0.068,-0.671,0.183,0.366,32.91,-85.468,116.856,-26.42,-8.953,-6.193,25.82,-0.20401,-0.66357,0.16138,-0.70132,864,0.91,0.115,0.415,-0.549,-0.366,0.793,15.579,-64.237,-137.433,-25.207,-12.32,4.593,24.79,0.37158,-0.44678,-0.29788,-0.75729,872,0.898,0.102,0.422,-0.366,-0.244,0.854,13.585,-63.633,135.95,-23.193,-11.9,-17.46,29.19,0.25851,0.52063,-0.10004,0.80746,870,0.984,0.019,0.08,-1.282,-0.671,0.793,15.392,-84.963,-176.16,-31.22,-10.687,0.327,29.43,0.11606,-0.66287,-0.12457,-0.72903,860
217,1.018,0.039,0.072,-0.366,0.732,0.183,32.772,-85.463,116.955,-26.42,-8.953,-6.193,25.82,-0.20401,-0.66357,0.16138,-0.70132,865,0.906,0.117,0.417,-1.038,-0.183,0.854,15.535,-64.248,-137.406,-25.207,-12.32,4.593,24.79,0.37158,-0.44678,-0.29788,-0.75729,873,0.895,0.103,0.423,-0.854,0.244,0.793,13.541,-63.638,135.967,-23.193,-11.9,-17.46,29.19,0.25851,0.52063,-0.10004,0.80746,871,0.985,0.016,0.085,-0.793,-0.183,0.671,15.233,-84.968,-176.067,-31.22,-10.687,0.327,29.43,0.11606,-0.66287,-0.12457,-0.72903,861
218,1.016,0.041,0.072,-0.305,0.793,0.305,32.602,-85.452,117.081,-26.42,-8.953,-6.193,25.82,-0.20401,-0.66357,0.16138,-0.70132,874,0.901,0.118,0.418,-1.343,0.183,0.732,15.48,-64.254,-137.362,-25.207,-12.32,4.593,24.79,0.37158,-0.44678,-0.29788,-0.75729,878,0.89,0.104,0.425,-1.343,0.732,0.61,13.491,-63.638,135.967,-23.193,-11.9,-17.46,29.19,0.2587,0.52289,-0.10352,0.80551,876,0.985,0.019,0.088,-0.427,0.122,0.61,15.073,-84.974,-175.968,-31.22,-10.687,0.327,29.43,0.11606,-0.66287,-0.12457,-0.72903,868
219,1.015,0.043,0.07,-0.488,0.549,0.366,32.426,-85.446,117.213,-26.42,-8.953,-6.193,25.82,-0.20401,-0.66357,0.16138,-0.70132,875,0.9,0.117,0.419,-1.404,0.366,0.671,15.425,-64.254,-137.324,-25.207,-12.32,4.593,24.79,0.37158,-0.44678,-0.29788,-0.75729,879,0.888,0.105,0.428,-1.465,0.854,0.427,13.436,-63.627,135.967,-23.193,-11.9,-17.46,29.19,0.2587,0.52289,-0.10352,0.80551,877,0.982,0.022,0.087,-0.671,0.488,0.61,14.892,-84.968,-175.836,-31.22,-10.687,0.327,29.43,0.11606,-0.66287,-0.12457,-0.72903,869
220,1.016,0.042,0.066,-0.61,0.305,0.427,32.261,-85.446,117.345,-26.42,-8.953,-6.193,25.82,-0.20401,-0.66357,0.16138,-0.70132,880,0.901,0.115,0.418,-1.282,0.366,0.61,15.37,-64.254,-137.291,-25.207,-12.32,4.593,24.79,0.3718,-0.44955,-0.29749,-0.75568,886,0.889,0.103,0.429,-1.282,0.732,0.366,13.392,-63.616,135.989,-23.193,-11.9,-17.46,29.19,0.2587,0.52289,-0.10352,0.80551,882,0.981,0.023,0.082,-0.854,0.671,0.671,14.689,-84.957,-175.704,-31.22,-10.687,0.327,29.43,0.11417,-0.66577,-0.12003,-0.72748,888
221,1.018,0.042,0.064,-0.549,0.427,0.427,32.108,-85.441,117.477,-26.42,-8.953,-6.193,25.82,-0.20401,-0.66357,0.16138,-0.70132,881,0.906,0.114,0.416,-1.038,0.183,0.549,15.326,-64.254,-137.247,-25.207,-12.32,4.593,24.79,0.3718,-0.44955,-0.29749,-0.75568,887,0.892,0.102,0.426,-1.099,0.427,0.427,13.354,-63.611,136.016,-23.193,-11.9,-17.46,29.19,0.2587,0.52289,-0.10352,0.80551,883,0.981,0.022,0.08,-0.854,0.61,0.671,14.485,-84.952,-175.573,-31.22,-10.687,0.327,29.43,0.11417,-0.66577,-0.12003,-0.72748,889
222,1.018,0.042,0.064,-0.549,0.61,0.366,31.943,-85.441,117.625,-26.847,-8.667,-6.047,25.82,-0.20401,-0.66357,0.16138,-0.70132,884,0.906,0.111,0.415,-0.793,0.0,0.366,15.287,-64.254,-137.225,-25.207,-12.32,4.593,24.79,0.3718,-0.44955,-0.29749,-0.75568,892,0.894,0.098,0.425,-0.854,0.305,0.366,13.315,-63.605,136.033,-23.193,-11.9,-17.46,29.19,0.2587,0.52289,-0.10352,0.80551,894,0.982,0.022,0.079,-0.854,0.61,0.732,14.277,-84.941,-175.397,-31.22,-10.687,0.327,29.43,0.11417,-0.66577,-0.12003,-0.72748,890
223,1.018,0.042,0.065,-0.61,0.549,0.427,31.778,-85.435,117.801,-26.847,-8.667,-6.047,25.82,-0.20401,-0.66357,0.16138,-0.70132,885,0.905,0.111,0.416,-0.732,0.122,0.305,15.26,-64.259,-137.203,-25.207,-12.32,4.593,24.79,0.3718,-0.44955,-0.29749,-0.75568,893,0.893,0.098,0.425,-0.793,0.305,0.305,13.288,-63.605,136.027,-23.193,-11.9,-17.46,29.19,0.2587,0.52289,-0.10352,0.80551,895,0.983,0.021,0.082,-1.038,0.671,0.732,14.068,-84.935,-175.199,-31.22,-10.687,0.327,29.43,0.11417,-0.66577,-0.12003,-0.72748,891
224,1.018,0.042,0.063,-0.671,0.305,0.366,31.63,-85.435,117.938,-26.847,-8.667,-6.047,25.82,-0.20401,-0.66357,0.16138,-0.70132,896,0.904,0.112,0.415,-0.488,0.305,0.244,15.238,-64.259,-137.181,-25.207,-12.32,4.593,24.79,0.3718,-0.44955,-0.29749,-0.75568,904,0.893,0.099,0.423,-0.427,0.305,0.183,13.266,-63.605,136.033,-23.193,-11.9,-17.46,29.19,0.2587,0.52289,-0.10352,0.80551,900,0.983,0.02,0.08,-0.977,0.793,0.671,13.865,-84.924,-175.012,-31.22,-10.687,0.327,29.43,0.11417,-0.66577,-0.12003,-0.72748,898
225,1.018,0.042,0.065,-0.671,0.244,0.366,31.514,-85.435,118.037,-26.847,-8.667,-6.047,25.82,-0.20401,-0.66357,0.16138,-0.70132,897,0.905,0.112,0.417,-0.427,0.427,0.183,15.216,-64.254,-137.153,-25.207,-12.32,4.593,24.79,0.3718,-0.44955,-0.29749,-0.75568,905,0.893,0.1,0.426,-0.366,0.366,0.061,13.25,-63.6,136.027,-23.193,-11.9,-17.46,29.19,0.2587,0.52289,-0.10352,0.80551,901,0.983,0.02,0.08,-0.977,0.916,0.61,13.667,-84.913,-174.847,-31.22,-10.687,0.327,29.43,0.11417,-0.66577,-0.12003,-0.72748,899
226,1.018,0.042,0.064,-0.61,0.366,0.427,31.388,-85.435,118.141,-26.847,-8.667,-6.047,25.82,-0.20596,-0.66248,0.16492,-0.70102,906,0.904,0.113,0.418,-0.488,0.366,0.122,15.2,-64.248,-137.137,-25.207,-12.32,4.593,24.79,0.3718,-0.44955,-0.29749,-0.75568,908,0.892,0.101,0.427,-0.427,0.488,0.0,13.239,-63.594,136.0,-23.193,-11.9,-17.46,29.19,0.2587,0.52289,-0.10352,0.80551,910,0.983,0.02,0.079,-0.732,1.038,0.488,13.502,-84.897,-174.699,-31.22,-10.687,0.327,29.43,0.11417,-0.66577,-0.12003,-0.72748,902
227,1.017,0.042,0.067,-0.488,0.427,0.427,31.251,-85.435,118.262,-26.847,-8.667,-6.047,25.82,-0.20596,-0.66248,0.16492,-0.70102,907,0.901,0.112,0.421,-0.366,0.488,0.061,15.183,-64.243,-137.126,-25.207,-12.32,4.593,24.79,0.3718,-0.44955,-0.29749,-0.75568,909,0.889,0.1,0.43,-0.488,0.549,-0.061,13.228,-63.589,135.967,-23.193,-11.9,-17.46,29.19,0.2587,0.52289,-0.10352,0.80551,911,0.984,0.02,0.082,-0.488,1.099,0.366,13.365,-84.88,-174.595,-31.22,-10.687,0.327,29.43,0.11417,-0.66577,-0.12003,-0.72748,903
228,1.016,0.042,0.068,-0.305,0.244,0.549,31.113,-85.435,118.383,-26.847,-8.667,-6.047,25.82,-0.20596,-0.66248,0.16492,-0.70102,914,0.899,0.112,0.423,-0.244,0.549,-0.061,15.172,-64.237,-137.115,-25.207,-12.32,4.593,24.79,0.3718,-0.44955,-0.29749,-0.75568,916,0.888,0.1,0.431,-0.366,0.549,-0.183,13.222,-63.583,135.939,-23.193,-11.9,-17.46,29.19,0.2587,0.52289,-0.10352,0.80551,918,0.982,0.02,0.087,-0.427,1.221,0.305,13.233,-84.858,-174.479,-31.22,-10.687,0.327,29.43,0.11417,-0.66577,-0.12003,-0.72748,912
229,1.016,0.04,0.066,-0.244,0.0,0.549,30.987,-85.441,118.493,-26.847,-8.667,-6.047,25.82,-0.20596,-0.66248,0.16492,-0.70102,915,0.901,0.111,0.422,-0.366,0.671,-0.122,15.161,-64.226,-137.104,-25.207,-12.32,4.593,24.79,0.3718,-0.44955,-0.29749,-0.75568,917,0.889,0.1,0.431,-0.366,0.61,-0.305,13.217,-63.572,135.923,-23.193,-11.9,-17.46,29.19,0.2587,0.52289,-0.10352,0.80551,919,0.98,0.021,0.085,-0.366,1.038,0.366,13.107,-84.842,-174.38,-31.22,-10.687,0.327,29.43,0.11417,-0.66577,-0.12003,-0.72748,913
230,1.015,0.037,0.066,-0.122,-0.183,0.488,30.899,-85.452,118.564,-26.847,-8.667,-6.047,25.82,-0.20596,-0.66248,0.16492,-0.70102,922,0.902,0.11,0.425,-0.122,0.671,0.0,15.15,-64.215,-137.098,-25.207,-12.32,4.593,24.79,0.3718,-0.44955,-0.29749,-0.75568,924,0.889,0.1,0.433,-0.183,0.671,-0.244,13.217,-63.561,135.917,-23.193,-11.9,-17.46,29.19,0.2587,0.52289,-0.10352,0.80551,930,0.979,0.018,0.085,-0.427,0.671,0.549,12.953,-84.836,-174.282,-31.22,-10.687,0.327,29.43,0.11417,-0.66577,-0.12003,-0.72748,920
231,1.016,0.038,0.069,0.0,-0.244,0.366,30.844,-85.463,118.647,-26.847,-8.667,-6.047,25.82,-0.20596,-0.66248,0.16492,-0.70102,923,0.896,0.107,0.425,0.305,0.671,0.183,15.139,-64.199,-137.082,-25.207,-12.32,4.593,24.79,0.3718,-0.44955,-0.29749,-0.75568,925,0.885,0.099,0.436,0.366,0.854,0.0,13.217,-63.545,135.917,-23.193,-11.9,-17.46,29.19,0.2587,0.52289,-0.10352,0.80551,931,0.98,0.014,0.089,-0.244,0.488,0.61,12.794,-84.831,-174.15,-31.22,-10.687,0.327,29.43,0.11417,-0.66577,-0.12003,-0.72748,921
232,1.015,0.038,0.069,0.122,-0.549,0.427,30.811,-85.474,118.707,-26.847,-8.667,-6.047,25.82,-0.20596,-0.66248,0.16492,-0.70102,926,0.896,0.106,0.424,0.427,0.488,0.305,15.128,-64.193,-137.065,-25.207,-12.32,4.593,24.79,0.3718,-0.44955,-0.29749,-0.75568,934,0.882,0.094,0.436,0.366,0.793,0.305,13.206,-63.528,135.923,-22.953,-12.287,-17.693,29.19,0.2587,0.52289,-0.10352,0.80551,938,0.981,0.016,0.09,0.122,0.366,0.549,12.656,-84.825,-174.023,-31.22,-10.687,0.327,29.43,0.11417,-0.66577,-0.12003,-0.72748,928
233,1.016,0.038,0.07,0.122,-0.916,0.549,30.8,-85.49,118.74,-26.847,-8.667,-6.047,25.82,-0.20596,-0.66248,0.16492,-0.70102,927,0.903,0.116,0.423,0.061,0.366,0.0,15.117,-64.188,-137.049,-25.207,-12.32,4.593,24.79,0.3718,-0.44955,-0.29749,-0.75568,935,0.891,0.102,0.434,0.122,0.488,0.0,13.195,-63.517,135.939,-22.953,-12.287,-17.693,29.19,0.2587,0.52289,-0.10352,0.80551,939,0.979,0.014,0.091,0.061,0.122,0.366,12.563,-84.825,-173.936,-31.22,-10.687,0.327,29.43,0.11417,-0.66577,-0.12003,-0.72748,929
234,1.016,0.038,0.066,0.061,-0.854,0.549,30.795,-85.512,118.768,-26.847,-8.667,-6.047,25.82,-0.20596,-0.66248,0.16492,-0.70102,936,0.905,0.114,0.425,0.122,0.061,-0.061,15.117,-64.182,-137.049,-26.053,-12.18,4.333,24.79,0.3718,-0.44955,-0.29749,-0.75568,944,0.894,0.103,0.435,0.427,0.549,-0.244,13.2,-63.506,135.95,-22.953,-12.287,-17.693,29.19,0.2587,0.52289,-0.10352,0.80551,946,0.979,0.017,0.083,0.061,0.183,0.305,12.475,-84.825,-173.842,-31.1,-10.52,0.3,29.43,0.11417,-0.66577,-0.12003,-0.72748,932
235,1.016,0.037,0.068,0.0,-0.305,0.305,30.767,-85.529,118.817,-26.847,-8.667,-6.047,25.82,-0.20596,-0.66248,0.16492,-0.70102,937,0.906,0.109,0.423,0.366,0.122,0.244,15.112,-64.182,-137.038,-26.053,-12.18,4.333,24.79,0.3718,-0.44955,-0.29749,-0.75568,945,0.893,0.102,0.432,0.732,0.305,0.0,13.211,-63.501,135.956,-22.953,-12.287,-17.693,29.19,0.2587,0.52289,-0.10352,0.80551,947,0.983,0.018,0.086,-0.305,0.0,0.366,12.382,-84.825,-173.76,-31.1,-10.52,0.3,29.43,0.11417,-0.66577,-0.12003,-0.72748,933
236,1.018,0.039,0.071,-0.061,-0.122,0.183,30.729,-85.534,118.856,-26.847,-8.667,-6.047,25.82,-0.20596,-0.66248,0.16492,-0.70102,942,0.904,0.108,0.423,0.305,0.061,0.61,15.09,-64.182,-137.005,-26.053,-12.18,4.333,24.79,0.37268,-0.44925,-0.29648,-0.75583,948,0.892,0.099,0.433,0.488,0.427,0.488,13.2,-63.495,135.989,-22.953,-12.287,-17.693,29.19,0.26047,0.52124,-0.10519,0.80579,950,0.984,0.015,0.091,-0.305,-0.183,0.61,12.239,-84.831,-173.628,-31.1,-10.52,0.3,29.43,0.11417,-0.66577,-0.12003,-0.72748,940
