Time,Device name,Chip Time(),Acceleration X(g),Acceleration Y(g),Acceleration Z(g),Angular velocity X(°/s),Angular velocity Y(°/s),Angular velocity Z(°/s),Angle X(°),Angle Y(°),Angle Z(°),Magnetic field X(ʯt),Magnetic field Y(ʯt),Magnetic field Z(ʯt),Temperature(℃),Quaternions 0(),Quaternions 1(),Quaternions 2(),Quaternions 3()
 11:43:31.370,ed:40:fe:65:30:6c, 2015-01-01 00:10:22.040, 0.437, 0.002, 0.9, -1.038, -0.732, -0.183, -0.181, -26.131, -136.132, -14.500, -9.080, -9.407, 26.86, 0.36914, -0.20508, -0.08569, -0.90234,
 11:43:31.370,ed:40:fe:65:30:6c, 2015-01-01 00:10:22.040, 0.438, 0.003, 0.9, -1.16, -0.732, -0.122, -0.198, -26.142, -136.137, -14.500, -9.080, -9.407, 26.86, 0.36914, -0.20508, -0.08569, -0.90234,
 11:43:31.391,e3:ca:2d:fd:e0:8c, 2015-01-01 00:10:23.895, 0.99, 0.002, 0.245, 0.549, 0, -0.122, 1.566, -76.207, 154.039, -25.707, -9.860, -10.633, 28.65, -0.16855, -0.60355, 0.12808, -0.76865,
 11:43:31.392,e3:ca:2d:fd:e0:8c, 2015-01-01 00:10:23.895, 0.992, 0.002, 0.245, 0.61, 0.122, 0, 1.566, -76.207, 154.023, -25.707, -9.860, -10.633, 28.65, -0.16855, -0.60355, 0.12808, -0.76865,
 11:43:31.393,f6:90:cc:01:6d:25, 2015-01-01 00:10:19.360, 0.915, 0.021, 0.365, 0.244, -0.305, 0, 3.252, -68.038, -161.285, -27.820, -10.727, -6.813, 32.47, -0.15045, 0.54782, 0.11417, 0.81491,
 11:43:31.393,f6:90:cc:01:6d:25, 2015-01-01 00:10:19.360, 0.915, 0.022, 0.368, 0.244, -0.183, -0.061, 3.263, -68.044, -161.285, -27.820, -10.727, -6.813, 32.47, -0.15045, 0.54782, 0.11417, 0.81491,
 11:43:31.414,ed:35:33:d3:6c:f8, 2015-01-01 00:10:23.425, 0.487, -0.002, 0.861, -0.671, 0, -0.183, -0.363, -29.119, -158.681, -14.467, -9.887, -17.940, 31.1, -0.18127, 0.24655, 0.04446, 0.95093,
 11:43:31.414,ed:35:33:d3:6c:f8, 2015-01-01 00:10:23.425, 0.484, -0.007, 0.865, -0.854, 0.305, -0.793, -0.368, -29.119, -158.692, -14.467, -9.887, -17.940, 31.1, -0.18127, 0.24655, 0.04446, 0.95093,
 11:43:31.416,f6:90:cc:01:6d:25, 2015-01-01 00:10:19.360, 0.917, 0.022, 0.369, 0.244, -0.061, -0.061, 3.268, -68.044, -161.301, -27.820, -10.727, -6.813, 32.47, -0.15045, 0.54782, 0.11417, 0.81491,
 11:43:31.416,f6:90:cc:01:6d:25, 2015-01-01 00:10:19.360, 0.918, 0.021, 0.369, 0.061, 0, -0.122, 3.279, -68.044, -161.323, -27.820, -10.727, -6.813, 32.47, -0.15045, 0.54782, 0.11417, 0.81491,
 11:43:31.435,ed:35:33:d3:6c:f8, 2015-01-01 00:10:23.425, 0.483, -0.001, 0.867, -0.427, 0.305, -0.977, -0.368, -29.114, -158.719, -14.467, -9.887, -17.940, 31.1, -0.18127, 0.24655, 0.04446, 0.95093,
 11:43:31.435,ed:35:33:d3:6c:f8, 2015-01-01 00:10:23.425, 0.486, 0, 0.872, -0.122, 0.793, -1.404, -0.357, -29.103, -158.752, -14.467, -9.887, -17.940, 31.1, -0.18127, 0.24655, 0.04446, 0.95093,
 11:43:31.436,e3:ca:2d:fd:e0:8c, 2015-01-01 00:10:24.250, 0.994, 0.001, 0.247, 0.488, 0.183, 0.061, 1.56, -76.201, 154.012, -25.707, -9.860, -10.633, 28.65, -0.16855, -0.60355, 0.12808, -0.76865,
 11:43:31.436,e3:ca:2d:fd:e0:8c, 2015-01-01 00:10:24.250, 0.992, 0.001, 0.246, 0, 0.244, 0.061, 1.538, -76.201, 154.017, -25.707, -9.860, -10.633, 28.65, -0.16855, -0.60355, 0.12808, -0.76865,
 11:43:31.438,ed:40:fe:65:30:6c, 2015-01-01 00:10:22.040, 0.44, 0.002, 0.898, -0.732, -0.427, -0.122, -0.209, -26.147, -136.137, -14.500, -9.080, -9.407, 26.86, 0.36343, -0.21036, -0.08289, -0.90372,
 11:43:31.438,ed:40:fe:65:30:6c, 2015-01-01 00:10:22.040, 0.438, -0.002, 0.896, -0.732, -0.122, -0.549, -0.214, -26.147, -136.137, -14.500, -9.080, -9.407, 26.86, 0.36343, -0.21036, -0.08289, -0.90372,
 11:43:31.459,ed:40:fe:65:30:6c, 2015-01-01 00:10:22.445, 0.437, 0, 0.9, -0.183, -0.183, -0.549, -0.209, -26.147, -136.143, -14.500, -9.080, -9.407, 26.86, 0.36343, -0.21036, -0.08289, -0.90372,
 11:43:31.459,ed:40:fe:65:30:6c, 2015-01-01 00:10:22.445, 0.438, 0.004, 0.905, 0.061, 0.061, -0.671, -0.198, -26.147, -136.148, -14.500, -9.080, -9.407, 26.86, 0.36343, -0.21036, -0.08289, -0.90372,
 11:43:31.461,f6:90:cc:01:6d:25, 2015-01-01 00:10:19.360, 0.916, 0.022, 0.369, -0.061, 0.122, -0.061, 3.279, -68.044, -161.334, -27.820, -10.727, -6.813, 32.47, -0.15045, 0.54782, 0.11417, 0.81491,
 11:43:31.461,f6:90:cc:01:6d:25, 2015-01-01 00:10:19.360, 0.917, 0.021, 0.369, -0.183, 0.183, 0, 3.274, -68.038, -161.367, -27.820, -10.727, -6.813, 32.47, -0.15045, 0.54782, 0.11417, 0.81491,
 11:43:31.480,e3:ca:2d:fd:e0:8c, 2015-01-01 00:10:24.250, 0.993, 0, 0.246, -0.305, 0.366, 0.183, 1.505, -76.19, 154.028, -25.707, -9.860, -10.633, 28.65, -0.16855, -0.60355, 0.12808, -0.76865,
 11:43:31.480,e3:ca:2d:fd:e0:8c, 2015-01-01 00:10:24.250, 0.993, 0, 0.245, -0.549, 0.366, 0.183, 1.467, -76.185, 154.045, -25.707, -9.860, -10.633, 28.65, -0.16855, -0.60355, 0.12808, -0.76865,
 11:43:31.480,ed:35:33:d3:6c:f8, 2015-01-01 00:10:23.425, 0.483, 0, 0.87, 0.122, 1.16, -1.526, -0.335, -29.086, -158.78, -14.467, -9.887, -17.940, 31.1, -0.18127, 0.24655, 0.04446, 0.95093,
 11:43:31.480,ed:35:33:d3:6c:f8, 2015-01-01 00:10:23.425, 0.48, -0.005, 0.869, 0.305, 1.404, -1.282, -0.313, -29.059, -158.824, -14.467, -9.887, -17.940, 31.1, -0.18127, 0.24655, 0.04446, 0.95093,
 11:43:31.482,ed:40:fe:65:30:6c, 2015-01-01 00:10:22.445, 0.438, 0.002, 0.902, 0.183, -0.122, -0.793, -0.181, -26.142, -136.154, -14.500, -9.080, -9.407, 26.86, 0.36343, -0.21036, -0.08289, -0.90372,
 11:43:31.482,ed:40:fe:65:30:6c, 2015-01-01 00:10:22.445, 0.436, -0.002, 0.903, 0.366, -0.183, -0.671, -0.165, -26.142, -136.165, -14.500, -9.080, -9.407, 26.86, 0.36343, -0.21036, -0.08289, -0.90372,
 11:43:31.507,f6:90:cc:01:6d:25, 2015-01-01 00:10:19.360, 0.917, 0.021, 0.37, -0.244, 0.305, -0.122, 3.274, -68.033, -161.417, -27.820, -10.727, -6.813, 32.47, -0.15045, 0.54782, 0.11417, 0.81491,
 11:43:31.507,f6:90:cc:01:6d:25, 2015-01-01 00:10:19.360, 0.917, 0.018, 0.367, -0.549, 0.305, -0.244, 3.274, -68.027, -161.45, -27.820, -10.727, -6.813, 32.47, -0.15045, 0.54782, 0.11417, 0.81491,
 11:43:31.526,e3:ca:2d:fd:e0:8c, 2015-01-01 00:10:24.250, 0.992, -0.002, 0.246, -0.61, 0.366, 0.122, 1.428, -76.179, 154.039, -25.707, -9.860, -10.633, 28.65, -0.16855, -0.60355, 0.12808, -0.76865,
 11:43:31.526,e3:ca:2d:fd:e0:8c, 2015-01-01 00:10:24.250, 0.992, -0.004, 0.244, -0.183, 0.732, 0.122, 1.395, -76.163, 154.034, -25.707, -9.860, -10.633, 28.65, -0.16855, -0.60355, 0.12808, -0.76865,
 11:43:31.526,ed:40:fe:65:30:6c, 2015-01-01 00:10:22.445, 0.435, 0, 0.901, 0.244, 0.061, -0.854, -0.148, -26.142, -136.181, -14.500, -9.080, -9.407, 26.86, 0.36343, -0.21036, -0.08289, -0.90372,
 11:43:31.526,ed:40:fe:65:30:6c, 2015-01-01 00:10:22.445, 0.435, 0.006, 0.908, -0.122, 0.244, -1.221, -0.137, -26.136, -136.203, -14.500, -9.080, -9.407, 26.86, 0.36343, -0.21036, -0.08289, -0.90372,
 11:43:31.547,ed:35:33:d3:6c:f8, 2015-01-01 00:10:23.425, 0.48, -0.003, 0.87, 0, 1.587, -1.465, -0.291, -29.031, -158.862, -14.167, -9.800, -17.933, 31.1, -0.18127, 0.24655, 0.04446, 0.95093,
 11:43:31.547,ed:35:33:d3:6c:f8, 2015-01-01 00:10:23.425, 0.481, 0.003, 0.875, 0, 2.136, -1.648, -0.275, -28.998, -158.917, -14.167, -9.800, -17.933, 31.1, -0.18127, 0.24655, 0.04446, 0.95093,
 11:43:31.549,e3:ca:2d:fd:e0:8c, 2015-01-01 00:10:24.250, 0.992, -0.005, 0.242, 0.244, 1.099, 0.183, 1.362, -76.146, 154.056, -25.707, -9.860, -10.633, 28.65, -0.16855, -0.60355, 0.12808, -0.76865,
 11:43:31.549,e3:ca:2d:fd:e0:8c, 2015-01-01 00:10:24.250, 0.99, -0.004, 0.24, 0, 1.343, 0.183, 1.324, -76.119, 154.083, -25.707, -9.860, -10.633, 28.65, -0.16855, -0.60355, 0.12808, -0.76865,
 11:43:31.551,f6:90:cc:01:6d:25, 2015-01-01 00:10:19.360, 0.917, 0.016, 0.365, -0.671, 0.061, 0, 3.263, -68.022, -161.455, -27.820, -10.727, -6.813, 32.47, -0.15045, 0.54782, 0.11417, 0.81491,
 11:43:31.551,f6:90:cc:01:6d:25, 2015-01-01 00:10:19.360, 0.916, 0.013, 0.364, -0.366, -0.305, 0, 3.246, -68.027, -161.466, -27.820, -10.727, -6.813, 32.47, -0.15045, 0.54782, 0.11417, 0.81491,
 11:43:31.570,ed:35:33:d3:6c:f8, 2015-01-01 00:10:23.425, 0.475, 0, 0.878, 0.977, 1.953, -1.404, -0.247, -28.954, -158.967, -14.167, -9.800, -17.933, 31.1, -0.17621, 0.24628, 0.04352, 0.952,
 11:43:31.570,ed:35:33:d3:6c:f8, 2015-01-01 00:10:23.425, 0.471, -0.006, 0.865, 1.526, 1.77, -0.732, -0.209, -28.922, -158.983, -14.167, -9.800, -17.933, 31.1, -0.17621, 0.24628, 0.04352, 0.952,
 11:43:31.572,ed:40:fe:65:30:6c, 2015-01-01 00:10:22.445, 0.432, 0.002, 0.909, 0.305, 0.061, -0.916, -0.121, -26.131, -136.214, -14.500, -9.080, -9.407, 26.86, 0.36343, -0.21036, -0.08289, -0.90372,
 11:43:31.572,ed:40:fe:65:30:6c, 2015-01-01 00:10:22.445, 0.429, -0.004, 0.902, 0.671, -0.305, -0.244, -0.099, -26.131, -136.208, -14.500, -9.080, -9.407, 26.86, 0.36343, -0.21036, -0.08289, -0.90372,
 11:43:31.596,f6:90:cc:01:6d:25, 2015-01-01 00:10:19.360, 0.916, 0.012, 0.363, 0, -0.244, -0.244, 3.241, -68.033, -161.499, -27.973, -10.880, -7.773, 32.47, -0.15045, 0.54782, 0.11417, 0.81491,
 11:43:31.596,f6:90:cc:01:6d:25, 2015-01-01 00:10:19.360, 0.915, 0.014, 0.366, 0.366, -0.122, -0.366, 3.252, -68.038, -161.554, -27.973, -10.880, -7.773, 32.47, -0.15045, 0.54782, 0.11417, 0.81491,
 11:43:31.615,ed:35:33:d3:6c:f8, 2015-01-01 00:10:23.425, 0.47, -0.009, 0.863, 1.465, 3.418, -0.61, -0.17, -28.867, -158.989, -14.167, -9.800, -17.933, 31.1, -0.17621, 0.24628, 0.04352, 0.952,
 11:43:31.615,ed:35:33:d3:6c:f8, 2015-01-01 00:10:23.425, 0.473, -0.007, 0.872, 1.343, 2.93, -1.953, -0.126, -28.806, -159.011, -14.167, -9.800, -17.933, 31.1, -0.17621, 0.24628, 0.04352, 0.952,
 11:43:31.616,e3:ca:2d:fd:e0:8c, 2015-01-01 00:10:24.250, 0.989, -0.005, 0.242, 0.183, 1.221, 0.122, 1.291, -76.097, 154.105, -25.707, -9.860, -10.633, 28.65, -0.16855, -0.60355, 0.12808, -0.76865,
 11:43:31.616,e3:ca:2d:fd:e0:8c, 2015-01-01 00:10:24.250, 0.989, -0.004, 0.242, 0.732, 1.038, -0.244, 1.291, -76.075, 154.105, -25.707, -9.860, -10.633, 28.65, -0.16855, -0.60355, 0.12808, -0.76865,
 11:43:31.618,ed:40:fe:65:30:6c, 2015-01-01 00:10:22.445, 0.429, -0.005, 0.899, 0.793, 1.038, 0, -0.082, -26.104, -136.203, -14.500, -9.080, -9.407, 26.86, 0.36343, -0.21036, -0.08289, -0.90372,
 11:43:31.618,ed:40:fe:65:30:6c, 2015-01-01 00:10:22.445, 0.431, -0.003, 0.901, 0.854, 2.136, -0.122, -0.066, -26.06, -136.198, -14.500, -9.080, -9.407, 26.86, 0.36343, -0.21036, -0.08289, -0.90372,
 11:43:31.620,f6:90:cc:01:6d:25, 2015-01-01 00:10:19.360, 0.916, 0.017, 0.365, 0.549, -0.061, -0.488, 3.274, -68.044, -161.587, -27.973, -10.880, -7.773, 32.47, -0.14828, 0.54828, 0.11285, 0.81522,
 11:43:31.620,f6:90:cc:01:6d:25, 2015-01-01 00:10:19.360, 0.916, 0.02, 0.355, 0.549, 0.122, -0.488, 3.301, -68.044, -161.609, -27.973, -10.880, -7.773, 32.47, -0.14828, 0.54828, 0.11285, 0.81522,
 11:43:31.639,ed:35:33:d3:6c:f8, 2015-01-01 00:10:23.785, 0.478, 0.007, 0.858, 1.587, 2.93, -2.441, -0.077, -28.746, -159.049, -14.167, -9.800, -17.933, 31.1, -0.17621, 0.24628, 0.04352, 0.952,
 11:43:31.639,ed:35:33:d3:6c:f8, 2015-01-01 00:10:23.785, 0.479, 0.008, 0.866, 1.465, 5.371, -2.747, -0.016, -28.663, -159.12, -14.167, -9.800, -17.933, 31.1, -0.17621, 0.24628, 0.04352, 0.952,
 11:43:31.639,e3:ca:2d:fd:e0:8c, 2015-01-01 00:10:24.250, 0.99, -0.003, 0.241, 0.854, 0.549, -0.427, 1.313, -76.064, 154.083, -25.780, -9.647, -11.060, 28.65, -0.16855, -0.60355, 0.12808, -0.76865,
 11:43:31.639,e3:ca:2d:fd:e0:8c, 2015-01-01 00:10:24.250, 0.99, -0.001, 0.239, 1.099, 0.305, -0.549, 1.351, -76.058, 154.1, -25.780, -9.647, -11.060, 28.65, -0.16855, -0.60355, 0.12808, -0.76865,
 11:43:31.665,f6:90:cc:01:6d:25, 2015-01-01 00:10:19.360, 0.915, 0.023, 0.359, 0.305, 0.183, -0.305, 3.323, -68.044, -161.647, -27.973, -10.880, -7.773, 32.47, -0.14828, 0.54828, 0.11285, 0.81522,
 11:43:31.665,f6:90:cc:01:6d:25, 2015-01-01 00:10:19.360, 0.915, 0.025, 0.366, -0.427, -0.183, 0, 3.329, -68.044, -161.669, -27.973, -10.880, -7.773, 32.47, -0.14828, 0.54828, 0.11285, 0.81522,
 11:43:31.682,ed:35:33:d3:6c:f8, 2015-01-01 00:10:23.785, 0.475, 0.004, 0.887, 2.258, 4.272, -2.991, 0.044, -28.57, -159.186, -14.167, -9.800, -17.933, 31.1, -0.17621, 0.24628, 0.04352, 0.952,
 11:43:31.682,ed:35:33:d3:6c:f8, 2015-01-01 00:10:23.785, 0.471, 0.005, 0.893, 4.15, 0.916, -2.686, 0.143, -28.521, -159.269, -14.167, -9.800, -17.933, 31.1, -0.17621, 0.24628, 0.04352, 0.952,
 11:43:31.683,e3:ca:2d:fd:e0:8c, 2015-01-01 00:10:24.250, 0.99, 0, 0.239, 1.221, 0.793, -0.488, 1.39, -76.047, 154.133, -25.780, -9.647, -11.060, 28.65, -0.16855, -0.60355, 0.12808, -0.76865,
 11:43:31.683,e3:ca:2d:fd:e0:8c, 2015-01-01 00:10:24.250, 0.99, 0, 0.244, 0.916, 1.099, -0.366, 1.417, -76.031, 154.149, -25.780, -9.647, -11.060, 28.65, -0.16855, -0.60355, 0.12808, -0.76865,
 11:43:31.685,ed:40:fe:65:30:6c, 2015-01-01 00:10:22.445, 0.434, 0.006, 0.896, 1.038, 2.686, -0.366, -0.038, -25.999, -136.203, -14.500, -9.080, -9.407, 26.86, 0.36343, -0.21036, -0.08289, -0.90372,
 11:43:31.685,ed:40:fe:65:30:6c, 2015-01-01 00:10:22.445, 0.438, 0.011, 0.897, 0.671, 4.333, -0.305, -0.022, -25.911, -136.214, -14.500, -9.080, -9.407, 26.86, 0.36343, -0.21036, -0.08289, -0.90372,
 11:43:31.706,e3:ca:2d:fd:e0:8c, 2015-01-01 00:10:24.250, 0.988, 0.002, 0.242, 0.244, 1.587, -0.183, 1.423, -76.003, 154.155, -25.780, -9.647, -11.060, 28.65, -0.16873, -0.60242, 0.1282, -0.76947,
 11:43:31.706,e3:ca:2d:fd:e0:8c, 2015-01-01 00:10:24.250, 0.988, 0.001, 0.247, 0.122, 1.587, -0.061, 1.412, -75.976, 154.177, -25.780, -9.647, -11.060, 28.65, -0.16873, -0.60242, 0.1282, -0.76947,
 11:43:31.707,ed:40:fe:65:30:6c, 2015-01-01 00:10:22.445, 0.431, 0.008, 0.906, 0.549, 4.15, -0.732, 0, -25.823, -136.219, -14.327, -9.047, -9.707, 26.86, 0.36343, -0.21036, -0.08289, -0.90372,
 11:43:31.707,ed:40:fe:65:30:6c, 2015-01-01 00:10:22.445, 0.424, 0.003, 0.913, 0.977, 1.953, -1.099, 0.027, -25.785, -136.225, -14.327, -9.047, -9.707, 26.86, 0.36343, -0.21036, -0.08289, -0.90372,
 11:43:31.709,f6:90:cc:01:6d:25, 2015-01-01 00:10:19.360, 0.911, 0.024, 0.367, -1.221, -0.977, 0, 3.318, -68.055, -161.653, -27.973, -10.880, -7.773, 32.47, -0.14828, 0.54828, 0.11285, 0.81522,
 11:43:31.709,f6:90:cc:01:6d:25, 2015-01-01 00:10:19.360, 0.913, 0.018, 0.372, -0.977, -2.686, -0.244, 3.301, -68.088, -161.647, -27.973, -10.880, -7.773, 32.47, -0.14828, 0.54828, 0.11285, 0.81522,
 11:43:31.730,ed:35:33:d3:6c:f8, 2015-01-01 00:10:23.785, 0.469, 0.01, 0.888, 5.676, -0.305, -1.465, 0.258, -28.515, -159.351, -14.167, -9.800, -17.933, 31.1, -0.17621, 0.24628, 0.04352, 0.952,
 11:43:31.730,ed:35:33:d3:6c:f8, 2015-01-01 00:10:23.785, 0.478, 0.01, 0.881, 5.554, 0.977, -0.61, 0.385, -28.51, -159.406, -14.167, -9.800, -17.933, 31.1, -0.17621, 0.24628, 0.04352, 0.952,
 11:43:31.753,f6:90:cc:01:6d:25, 2015-01-01 00:10:19.360, 0.915, 0.019, 0.374, -0.061, -2.991, -0.366, 3.307, -68.143, -161.675, -27.973, -10.880, -7.773, 32.55, -0.14828, 0.54828, 0.11285, 0.81522,
 11:43:31.753,f6:90:cc:01:6d:25, 2015-01-01 00:10:19.360, 0.915, 0.02, 0.369, 0.122, -2.869, -0.427, 3.329, -68.198, -161.691, -27.973, -10.880, -7.773, 32.55, -0.14828, 0.54828, 0.11285, 0.81522,
 11:43:31.753,ed:40:fe:65:30:6c, 2015-01-01 00:10:22.445, 0.424, 0.002, 0.916, 2.258, -0.549, -0.305, 0.077, -25.79, -136.203, -14.327, -9.047, -9.707, 26.86, 0.36343, -0.21036, -0.08289, -0.90372,
 11:43:31.753,ed:40:fe:65:30:6c, 2015-01-01 00:10:22.445, 0.431, 0.008, 0.913, 2.38, -1.465, 0.366, 0.121, -25.818, -136.181, -14.327, -9.047, -9.707, 26.86, 0.36343, -0.21036, -0.08289, -0.90372,
 11:43:31.772,ed:35:33:d3:6c:f8, 2015-01-01 00:10:23.785, 0.48, 0.007, 0.879, 3.967, 0.427, -0.366, 0.483, -28.493, -159.445, -14.167, -9.800, -17.933, 31.1, -0.17621, 0.24628, 0.04352, 0.952,
 11:43:31.772,ed:35:33:d3:6c:f8, 2015-01-01 00:10:23.785, 0.481, 0.012, 0.882, 2.625, -1.831, 0, 0.549, -28.504, -159.461, -14.167, -9.800, -17.933, 31.1, -0.17621, 0.24628, 0.04352, 0.952,
 11:43:31.774,ed:40:fe:65:30:6c, 2015-01-01 00:10:22.445, 0.438, 0.006, 0.903, 1.221, -2.258, 0.366, 0.143, -25.856, -136.176, -14.327, -9.047, -9.707, 26.86, 0.36392, -0.20703, -0.08456, -0.90411,
 11:43:31.774,ed:40:fe:65:30:6c, 2015-01-01 00:10:22.445, 0.437, 0.004, 0.904, 0.61, -3.784, -0.061, 0.159, -25.928, -136.181, -14.327, -9.047, -9.707, 26.86, 0.36392, -0.20703, -0.08456, -0.90411,
 11:43:31.775,e3:ca:2d:fd:e0:8c, 2015-01-01 00:10:24.250, 0.991, -0.001, 0.255, 0.549, 1.16, -0.122, 1.406, -75.954, 154.199, -25.780, -9.647, -11.060, 28.65, -0.16873, -0.60242, 0.1282, -0.76947,
 11:43:31.775,e3:ca:2d:fd:e0:8c, 2015-01-01 00:10:24.250, 0.991, 0, 0.253, 1.282, 1.038, -0.122, 1.417, -75.932, 154.193, -25.780, -9.647, -11.060, 28.65, -0.16873, -0.60242, 0.1282, -0.76947,
 11:43:31.797,e3:ca:2d:fd:e0:8c, 2015-01-01 00:10:24.610, 0.987, 0, 0.241, 1.282, 2.136, -0.061, 1.428, -75.899, 154.204, -25.780, -9.647, -11.060, 28.65, -0.16873, -0.60242, 0.1282, -0.76947,
 11:43:31.797,e3:ca:2d:fd:e0:8c, 2015-01-01 00:10:24.610, 0.988, 0, 0.248, 1.038, 2.991, -0.061, 1.428, -75.844, 154.221, -25.780, -9.647, -11.060, 28.65, -0.16873, -0.60242, 0.1282, -0.76947,
 11:43:31.798,f6:90:cc:01:6d:25, 2015-01-01 00:10:19.760, 0.916, 0.02, 0.359, 0, -3.723, -0.549, 3.362, -68.258, -161.697, -27.973, -10.880, -7.773, 32.55, -0.14828, 0.54828, 0.11285, 0.81522,
 11:43:31.798,f6:90:cc:01:6d:25, 2015-01-01 00:10:19.760, 0.916, 0.02, 0.363, -0.427, -4.578, -0.671, 3.395, -68.335, -161.697, -27.973, -10.880, -7.773, 32.55, -0.14828, 0.54828, 0.11285, 0.81522,
 11:43:31.817,ed:35:33:d3:6c:f8, 2015-01-01 00:10:23.785, 0.484, 0.024, 0.888, 2.563, -2.502, 1.038, 0.593, -28.548, -159.434, -14.167, -9.800, -17.933, 31.1, -0.17621, 0.24628, 0.04352, 0.952,
 11:43:31.817,ed:35:33:d3:6c:f8, 2015-01-01 00:10:23.785, 0.477, 0.027, 0.884, 2.808, -3.357, 2.136, 0.632, -28.608, -159.379, -14.167, -9.800, -17.933, 31.1, -0.17621, 0.24628, 0.04352, 0.952,
 11:43:31.821,ed:40:fe:65:30:6c, 2015-01-01 00:10:22.445, 0.441, 0.011, 0.912, 0.671, -4.761, 0.061, 0.176, -26.016, -136.187, -14.327, -9.047, -9.707, 26.86, 0.36392, -0.20703, -0.08456, -0.90411,
 11:43:31.821,ed:40:fe:65:30:6c, 2015-01-01 00:10:22.445, 0.438, 0.019, 0.907, 0.61, -7.08, 1.16, 0.181, -26.153, -136.159, -14.327, -9.047, -9.707, 26.86, 0.36392, -0.20703, -0.08456, -0.90411,
 11:43:31.823,f6:90:cc:01:6d:25, 2015-01-01 00:10:19.760, 0.918, 0.022, 0.369, -0.427, -4.639, -0.427, 3.428, -68.423, -161.697, -27.973, -10.880, -7.773, 32.55, -0.14828, 0.54828, 0.11285, 0.81522,
 11:43:31.823,f6:90:cc:01:6d:25, 2015-01-01 00:10:19.760, 0.92, 0.021, 0.362, 0, -4.089, -0.183, 3.45, -68.511, -161.68, -27.973, -10.880, -7.773, 32.55, -0.14828, 0.54828, 0.11285, 0.81522,
 11:43:31.841,ed:35:33:d3:6c:f8, 2015-01-01 00:10:23.785, 0.482, 0.021, 0.869, 2.686, -2.991, 2.319, 0.665, -28.669, -159.291, -14.493, -9.913, -17.620, 31.1, -0.17621, 0.24628, 0.04352, 0.952,
 11:43:31.841,ed:35:33:d3:6c:f8, 2015-01-01 00:10:23.785, 0.487, 0.013, 0.863, 2.197, -2.197, 1.648, 0.692, -28.718, -159.225, -14.493, -9.913, -17.620, 31.1, -0.17621, 0.24628, 0.04352, 0.952,
 11:43:31.841,e3:ca:2d:fd:e0:8c, 2015-01-01 00:10:24.610, 0.989, 0, 0.255, 0.793, 2.441, -0.122, 1.434, -75.795, 154.237, -25.780, -9.647, -11.060, 28.65, -0.16873, -0.60242, 0.1282, -0.76947,
 11:43:31.841,e3:ca:2d:fd:e0:8c, 2015-01-01 00:10:24.610, 0.99, -0.001, 0.256, 0.854, 1.587, 0.061, 1.428, -75.762, 154.27, -25.780, -9.647, -11.060, 28.65, -0.16873, -0.60242, 0.1282, -0.76947,
 11:43:31.842,ed:40:fe:65:30:6c, 2015-01-01 00:10:22.825, 0.444, 0.016, 0.9, 0.549, -8.911, 1.831, 0.176, -26.323, -136.104, -14.327, -9.047, -9.707, 26.86, 0.36392, -0.20703, -0.08456, -0.90411,
 11:43:31.842,ed:40:fe:65:30:6c, 2015-01-01 00:10:22.825, 0.455, 0.01, 0.891, 0.366, -8.545, 1.587, 0.176, -26.483, -136.06, -14.327, -9.047, -9.707, 26.86, 0.36392, -0.20703, -0.08456, -0.90411,
 11:43:31.866,f6:90:cc:01:6d:25, 2015-01-01 00:10:19.760, 0.922, 0.021, 0.362, 0.305, -3.479, -0.122, 3.472, -68.582, -161.653, -27.973, -10.880, -7.773, 32.55, -0.14828, 0.54828, 0.11285, 0.81522,
 11:43:31.866,f6:90:cc:01:6d:25, 2015-01-01 00:10:19.760, 0.92, 0.022, 0.356, 0.183, -2.563, -0.244, 3.488, -68.643, -161.631, -27.973, -10.880, -7.773, 32.55, -0.14828, 0.54828, 0.11285, 0.81522,
 11:43:31.885,ed:35:33:d3:6c:f8, 2015-01-01 00:10:23.785, 0.474, 0.007, 0.869, 1.343, -4.456, 1.343, 0.714, -28.784, -159.175, -14.493, -9.913, -17.620, 31.1, -0.17621, 0.24628, 0.04352, 0.952,
 11:43:31.885,ed:35:33:d3:6c:f8, 2015-01-01 00:10:23.785, 0.479, 0.013, 0.879, 0.671, -8.85, 0.671, 0.725, -28.916, -159.153, -14.493, -9.913, -17.620, 31.1, -0.17621, 0.24628, 0.04352, 0.952,
 11:43:31.886,e3:ca:2d:fd:e0:8c, 2015-01-01 00:10:24.610, 0.99, 0.001, 0.255, 0.977, 0.732, 0.061, 1.423, -75.745, 154.308, -25.780, -9.647, -11.060, 28.65, -0.16873, -0.60242, 0.1282, -0.76947,
 11:43:31.886,e3:ca:2d:fd:e0:8c, 2015-01-01 00:10:24.610, 0.988, 0.001, 0.254, 0.732, 0.61, 0.061, 1.412, -75.734, 154.352, -25.780, -9.647, -11.060, 28.65, -0.16873, -0.60242, 0.1282, -0.76947,
 11:43:31.887,ed:40:fe:65:30:6c, 2015-01-01 00:10:22.825, 0.446, 0.001, 0.887, -0.305, -8.423, 1.404, 0.159, -26.647, -136.027, -14.327, -9.047, -9.707, 26.86, 0.36392, -0.20703, -0.08456, -0.90411,
 11:43:31.887,ed:40:fe:65:30:6c, 2015-01-01 00:10:22.825, 0.447, 0.003, 0.896, -0.366, -9.094, 0.793, 0.148, -26.818, -136.016, -14.327, -9.047, -9.707, 26.86, 0.36392, -0.20703, -0.08456, -0.90411,
 11:43:31.910,e3:ca:2d:fd:e0:8c, 2015-01-01 00:10:24.610, 0.987, -0.001, 0.252, 0.854, 0.305, 0.061, 1.406, -75.723, 154.385, -25.780, -9.647, -11.060, 28.65, -0.16873, -0.60242, 0.1282, -0.76947,
 11:43:31.910,e3:ca:2d:fd:e0:8c, 2015-01-01 00:10:24.610, 0.989, -0.005, 0.253, 0.732, -0.183, 0.061, 1.401, -75.723, 154.407, -25.780, -9.647, -11.060, 28.65, -0.16873, -0.60242, 0.1282, -0.76947,
 11:43:31.911,f6:90:cc:01:6d:25, 2015-01-01 00:10:19.760, 0.918, 0.021, 0.36, -0.183, -2.075, -0.183, 3.51, -68.687, -161.614, -27.973, -10.880, -7.773, 32.55, -0.14828, 0.54828, 0.11285, 0.81522,
 11:43:31.911,f6:90:cc:01:6d:25, 2015-01-01 00:10:19.760, 0.923, 0.017, 0.356, -0.427, -1.953, 0, 3.51, -68.725, -161.576, -27.973, -10.880, -7.773, 32.55, -0.14828, 0.54828, 0.11285, 0.81522,
 11:43:31.932,ed:40:fe:65:30:6c, 2015-01-01 00:10:22.825, 0.454, 0.015, 0.894, 0, -8.911, 0.427, 0.148, -26.988, -136.011, -14.327, -9.047, -9.707, 26.86, 0.36392, -0.20703, -0.08456, -0.90411,
 11:43:31.932,ed:40:fe:65:30:6c, 2015-01-01 00:10:22.825, 0.466, 0.014, 0.881, 0.549, -7.507, 1.343, 0.154, -27.131, -135.972, -14.327, -9.047, -9.707, 26.86, 0.36392, -0.20703, -0.08456, -0.90411,
 11:43:31.952,ed:35:33:d3:6c:f8, 2015-01-01 00:10:23.785, 0.494, 0.024, 0.866, 1.221, -13, -0.427, 0.747, -29.13, -159.159, -14.493, -9.913, -17.620, 31.1, -0.17664, 0.24371, 0.05103, 0.95221,
 11:43:31.952,ed:35:33:d3:6c:f8, 2015-01-01 00:10:23.785, 0.505, 0.033, 0.84, 2.014, -12.39, 0.549, 0.786, -29.377, -159.164, -14.493, -9.913, -17.620, 31.1, -0.17664, 0.24371, 0.05103, 0.95221,
 11:43:31.954,e3:ca:2d:fd:e0:8c, 2015-01-01 00:10:24.610, 0.993, -0.004, 0.25, 0.488, -0.366, 0, 1.39, -75.734, 154.407, -25.780, -9.647, -11.060, 28.65, -0.16873, -0.60242, 0.1282, -0.76947,
 11:43:31.954,e3:ca:2d:fd:e0:8c, 2015-01-01 00:10:24.610, 0.996, 0, 0.25, 0.488, -0.427, -0.061, 1.384, -75.74, 154.402, -25.780, -9.647, -11.060, 28.65, -0.16873, -0.60242, 0.1282, -0.76947,
 11:43:31.956,f6:90:cc:01:6d:25, 2015-01-01 00:10:19.760, 0.928, 0.016, 0.351, -0.061, -1.77, 0.061, 3.505, -68.758, -161.559, -27.973, -10.880, -7.773, 32.55, -0.14828, 0.54828, 0.11285, 0.81522,
 11:43:31.956,f6:90:cc:01:6d:25, 2015-01-01 00:10:19.760, 0.929, 0.019, 0.349, 0.244, -1.16, 0.122, 3.505, -68.785, -161.554, -27.973, -10.880, -7.773, 32.55, -0.14828, 0.54828, 0.11285, 0.81522,
 11:43:31.978,ed:40:fe:65:30:6c, 2015-01-01 00:10:22.825, 0.463, 0.01, 0.879, 1.038, -5.31, 2.808, 0.148, -27.23, -135.89, -14.327, -9.047, -9.707, 26.86, 0.36392, -0.20703, -0.08456, -0.90411,
 11:43:31.978,ed:40:fe:65:30:6c, 2015-01-01 00:10:22.825, 0.466, 0.01, 0.89, 0.488, -4.272, 2.991, 0.132, -27.307, -135.786, -14.327, -9.047, -9.707, 26.86, 0.36392, -0.20703, -0.08456, -0.90411,
 11:43:31.978,ed:35:33:d3:6c:f8, 2015-01-01 00:10:24.120, 0.496, 0.022, 0.846, 1.221, -8.911, 2.563, 0.807, -29.586, -159.137, -14.493, -9.913, -17.620, 31.1, -0.17664, 0.24371, 0.05103, 0.95221,
 11:43:31.978,ed:35:33:d3:6c:f8, 2015-01-01 00:10:24.120, 0.511, 0.02, 0.867, 1.404, -10.071, 3.784, 0.802, -29.773, -159.099, -14.493, -9.913, -17.620, 31.1, -0.17664, 0.24371, 0.05103, 0.95221,
 11:43:31.980,f6:90:cc:01:6d:25, 2015-01-01 00:10:19.760, 0.925, 0.021, 0.354, 0.183, -0.793, 0.122, 3.499, -68.807, -161.554, -28.573, -10.627, -7.160, 32.55, -0.14828, 0.54828, 0.11285, 0.81522,
 11:43:31.980,f6:90:cc:01:6d:25, 2015-01-01 00:10:19.760, 0.927, 0.02, 0.355, 0.122, -0.427, 0.122, 3.494, -68.818, -161.57, -28.573, -10.627, -7.160, 32.55, -0.14828, 0.54828, 0.11285, 0.81522,
 11:43:31.997,ed:35:33:d3:6c:f8, 2015-01-01 00:10:24.120, 0.51, 0.017, 0.841, 1.587, -10.986, 1.709, 0.807, -29.982, -159.066, -14.493, -9.913, -17.620, 31.1, -0.17664, 0.24371, 0.05103, 0.95221,
 11:43:31.997,ed:35:33:d3:6c:f8, 2015-01-01 00:10:24.120, 0.515, 0.015, 0.829, 1.16, -4.089, 2.258, 0.818, -30.13, -159.033, -14.493, -9.913, -17.620, 31.1, -0.17664, 0.24371, 0.05103, 0.95221,
 11:43:31.998,e3:ca:2d:fd:e0:8c, 2015-01-01 00:10:24.610, 0.993, 0.001, 0.25, 0.793, 0.061, -0.122, 1.384, -75.74, 154.391, -25.780, -9.647, -11.060, 28.65, -0.16873, -0.60242, 0.1282, -0.76947,
 11:43:31.998,e3:ca:2d:fd:e0:8c, 2015-01-01 00:10:24.610, 0.994, -0.001, 0.258, 0.916, 0.305, -0.061, 1.39, -75.74, 154.385, -25.780, -9.647, -11.060, 28.65, -0.16873, -0.60242, 0.1282, -0.76947,
 11:43:32.024,f6:90:cc:01:6d:25, 2015-01-01 00:10:19.760, 0.926, 0.023, 0.344, 0.122, 0.366, 0.183, 3.488, -68.818, -161.576, -28.573, -10.627, -7.160, 32.55, -0.14828, 0.54828, 0.11285, 0.81522,
 11:43:32.024,f6:90:cc:01:6d:25, 2015-01-01 00:10:19.760, 0.922, 0.02, 0.342, 0, 0.793, 0.244, 3.472, -68.807, -161.598, -28.573, -10.627, -7.160, 32.55, -0.14828, 0.54828, 0.11285, 0.81522,
 11:43:32.044,ed:35:33:d3:6c:f8, 2015-01-01 00:10:24.120, 0.503, 0.006, 0.853, 0.916, 0.793, 1.953, 0.818, -30.163, -158.989, -14.493, -9.913, -17.620, 31.1, -0.17664, 0.24371, 0.05103, 0.95221,
 11:43:32.044,ed:35:33:d3:6c:f8, 2015-01-01 00:10:24.120, 0.497, 0.006, 0.863, 1.343, 0.244, 1.709, 0.824, -30.152, -158.945, -14.493, -9.913, -17.620, 31.1, -0.17664, 0.24371, 0.05103, 0.95221,
 11:43:32.045,ed:40:fe:65:30:6c, 2015-01-01 00:10:22.825, 0.467, 0.01, 0.888, 0.549, -3.174, 2.625, 0.126, -27.367, -135.698, -14.327, -9.047, -9.707, 26.86, 0.36392, -0.20703, -0.08456, -0.90411,
 11:43:32.045,ed:40:fe:65:30:6c, 2015-01-01 00:10:22.825, 0.47, 0.005, 0.879, 0.854, -1.648, 2.563, 0.121, -27.4, -135.61, -14.327, -9.047, -9.707, 26.86, 0.36392, -0.20703, -0.08456, -0.90411,
 11:43:32.067,e3:ca:2d:fd:e0:8c, 2015-01-01 00:10:24.610, 0.993, 0, 0.251, 1.16, 0.854, 0, 1.395, -75.723, 154.391, -25.627, -9.553, -11.393, 28.65, -0.16873, -0.60242, 0.1282, -0.76947,
 11:43:32.067,e3:ca:2d:fd:e0:8c, 2015-01-01 00:10:24.610, 0.99, -0.001, 0.242, 0.671, 1.282, 0.122, 1.379, -75.701, 154.429, -25.627, -9.553, -11.393, 28.65, -0.16873, -0.60242, 0.1282, -0.76947,
 11:43:32.067,ed:40:fe:65:30:6c, 2015-01-01 00:10:22.825, 0.466, 0, 0.885, 0.854, 0.122, 2.075, 0.121, -27.394, -135.533, -15.267, -9.113, -8.713, 26.86, 0.36392, -0.20703, -0.08456, -0.90411,
 11:43:32.067,ed:40:fe:65:30:6c, 2015-01-01 00:10:22.825, 0.453, -0.002, 0.891, 0.793, -0.122, 1.587, 0.126, -27.394, -135.472, -15.267, -9.113, -8.713, 26.86, 0.36392, -0.20703, -0.08456, -0.90411,
 11:43:32.088,ed:35:33:d3:6c:f8, 2015-01-01 00:10:24.120, 0.501, 0.012, 0.855, 1.465, 0.366, 1.16, 0.835, -30.152, -158.912, -14.493, -9.913, -17.620, 31.1, -0.17664, 0.24371, 0.05103, 0.95221,
 11:43:32.088,ed:35:33:d3:6c:f8, 2015-01-01 00:10:24.120, 0.498, 0.02, 0.863, 2.319, 0.977, 1.282, 0.862, -30.135, -158.89, -14.493, -9.913, -17.620, 31.1, -0.17664, 0.24371, 0.05103, 0.95221,
 11:43:32.088,e3:ca:2d:fd:e0:8c, 2015-01-01 00:10:24.610, 0.99, -0.003, 0.247, 0.183, 1.221, 0.122, 1.351, -75.679, 154.479, -25.627, -9.553, -11.393, 28.65, -0.1673, -0.60031, 0.12634, -0.77173,
 11:43:32.088,e3:ca:2d:fd:e0:8c, 2015-01-01 00:10:24.610, 0.99, -0.001, 0.251, 0.244, 1.465, 0.122, 1.329, -75.652, 154.512, -25.627, -9.553, -11.393, 28.65, -0.1673, -0.60031, 0.12634, -0.77173,
 11:43:32.091,f6:90:cc:01:6d:25, 2015-01-01 00:10:19.760, 0.922, 0.019, 0.352, -0.061, 0.793, 0.183, 3.455, -68.796, -161.609, -28.573, -10.627, -7.160, 32.55, -0.14886, 0.55353, 0.11508, 0.81125,
 11:43:32.091,f6:90:cc:01:6d:25, 2015-01-01 00:10:19.760, 0.923, 0.018, 0.351, 0.122, 0.671, 0.305, 3.439, -68.785, -161.603, -28.573, -10.627, -7.160, 32.55, -0.14886, 0.55353, 0.11508, 0.81125,
 11:43:32.112,ed:40:fe:65:30:6c, 2015-01-01 00:10:22.825, 0.457, 0.001, 0.895, 1.282, -0.244, 1.221, 0.137, -27.4, -135.428, -15.267, -9.113, -8.713, 26.86, 0.36392, -0.20703, -0.08456, -0.90411,
 11:43:32.112,ed:40:fe:65:30:6c, 2015-01-01 00:10:22.825, 0.456, 0.007, 0.893, 1.831, 0.671, 0.977, 0.165, -27.383, -135.379, -15.267, -9.113, -8.713, 26.86, 0.36392, -0.20703, -0.08456, -0.90411,
 11:43:32.114,f6:90:cc:01:6d:25, 2015-01-01 00:10:20.075, 0.918, 0.018, 0.351, 0.122, 0.61, 0.244, 3.422, -68.78, -161.592, -28.573, -10.627, -7.160, 32.55, -0.14886, 0.55353, 0.11508, 0.81125,
 11:43:32.116,f6:90:cc:01:6d:25, 2015-01-01 00:10:20.075, 0.915, 0.015, 0.353, 0.549, 0.427, 0.122, 3.417, -68.769, -161.576, -28.573, -10.627, -7.160, 32.55, -0.14886, 0.55353, 0.11508, 0.81125,
 11:43:32.133,ed:35:33:d3:6c:f8, 2015-01-01 00:10:24.120, 0.49, 0.028, 0.867, 2.258, 0.183, 2.014, 0.89, -30.13, -158.857, -14.493, -9.913, -17.620, 31.1, -0.17664, 0.24371, 0.05103, 0.95221,
 11:43:32.133,ed:35:33:d3:6c:f8, 2015-01-01 00:10:24.120, 0.496, 0.022, 0.876, 1.953, -0.366, 2.625, 0.906, -30.13, -158.829, -14.493, -9.913, -17.620, 31.1, -0.17664, 0.24371, 0.05103, 0.95221,
 11:43:32.133,e3:ca:2d:fd:e0:8c, 2015-01-01 00:10:24.610, 0.985, -0.001, 0.249, 0.793, 1.465, 0.122, 1.313, -75.624, 154.523, -25.627, -9.553, -11.393, 28.65, -0.1673, -0.60031, 0.12634, -0.77173,
 11:43:32.133,e3:ca:2d:fd:e0:8c, 2015-01-01 00:10:24.610, 0.983, -0.001, 0.247, 1.038, 1.16, -0.061, 1.313, -75.602, 154.523, -25.627, -9.553, -11.393, 28.65, -0.1673, -0.60031, 0.12634, -0.77173,
 11:43:32.135,ed:40:fe:65:30:6c, 2015-01-01 00:10:22.825, 0.448, 0.013, 0.895, 1.953, 0.427, 1.343, 0.198, -27.372, -135.335, -15.267, -9.113, -8.713, 26.86, 0.36942, -0.21829, -0.09137, -0.89856,
 11:43:32.135,ed:40:fe:65:30:6c, 2015-01-01 00:10:22.825, 0.45, 0.014, 0.9, 1.648, -0.122, 2.136, 0.209, -27.372, -135.28, -15.267, -9.113, -8.713, 26.86, 0.36942, -0.21829, -0.09137, -0.89856,
 11:43:32.156,e3:ca:2d:fd:e0:8c, 2015-01-01 00:10:24.990, 0.986, 0, 0.25, 1.587, 0.366, -0.244, 1.346, -75.597, 154.495, -25.627, -9.553, -11.393, 28.65, -0.1673, -0.60031, 0.12634, -0.77173,
 11:43:32.156,e3:ca:2d:fd:e0:8c, 2015-01-01 00:10:24.990, 0.986, 0.001, 0.255, 1.648, -0.061, -0.183, 1.373, -75.602, 154.468, -25.627, -9.553, -11.393, 28.65, -0.1673, -0.60031, 0.12634, -0.77173,
 11:43:32.158,f6:90:cc:01:6d:25, 2015-01-01 00:10:20.075, 0.917, 0.019, 0.36, 0.916, -0.366, 0.122, 3.422, -68.774, -161.548, -28.573, -10.627, -7.160, 32.55, -0.14886, 0.55353, 0.11508, 0.81125,
 11:43:32.158,f6:90:cc:01:6d:25, 2015-01-01 00:10:20.075, 0.918, 0.021, 0.358, 1.099, -1.038, 0, 3.433, -68.791, -161.548, -28.573, -10.627, -7.160, 32.55, -0.14886, 0.55353, 0.11508, 0.81125,
 11:43:32.178,ed:35:33:d3:6c:f8, 2015-01-01 00:10:24.120, 0.491, 0.012, 0.877, 1.038, -1.465, 2.869, 0.912, -30.146, -158.791, -14.493, -9.913, -17.620, 31.1, -0.17664, 0.24371, 0.05103, 0.95221,
 11:43:32.178,ed:35:33:d3:6c:f8, 2015-01-01 00:10:24.120, 0.49, 0.006, 0.864, 0.671, -3.235, 1.953, 0.901, -30.19, -158.752, -14.493, -9.913, -17.620, 31.1, -0.17664, 0.24371, 0.05103, 0.95221,
 11:43:32.180,ed:40:fe:65:30:6c, 2015-01-01 00:10:22.825, 0.445, 0, 0.896, 0, -2.319, 1.404, 0.203, -27.394, -135.236, -15.267, -9.113, -8.713, 26.86, 0.36942, -0.21829, -0.09137, -0.89856,
 11:43:32.180,ed:40:fe:65:30:6c, 2015-01-01 00:10:22.825, 0.45, 0.001, 0.893, 0.244, -2.197, 1.038, 0.192, -27.433, -135.203, -15.267, -9.113, -8.713, 26.86, 0.36942, -0.21829, -0.09137, -0.89856,
 11:43:32.181,f6:90:cc:01:6d:25, 2015-01-01 00:10:20.075, 0.916, 0.021, 0.358, 0.732, -1.343, -0.183, 3.455, -68.818, -161.554, -28.573, -10.627, -7.160, 32.55, -0.14886, 0.55353, 0.11508, 0.81125,
 11:43:32.181,f6:90:cc:01:6d:25, 2015-01-01 00:10:20.075, 0.913, 0.019, 0.361, 0.427, -1.404, -0.305, 3.483, -68.84, -161.57, -28.573, -10.627, -7.160, 32.55, -0.14886, 0.55353, 0.11508, 0.81125,
 11:43:32.200,ed:35:33:d3:6c:f8, 2015-01-01 00:10:24.120, 0.496, 0.014, 0.856, 0.732, -3.052, 1.953, 0.895, -30.251, -158.725, -14.367, -9.973, -18.000, 31.1, -0.17664, 0.24371, 0.05103, 0.95221,
 11:43:32.200,ed:35:33:d3:6c:f8, 2015-01-01 00:10:24.120, 0.498, 0.02, 0.85, 0.854, -3.235, 2.136, 0.89, -30.311, -158.67, -14.367, -9.973, -18.000, 31.1, -0.17664, 0.24371, 0.05103, 0.95221,
 11:43:32.201,e3:ca:2d:fd:e0:8c, 2015-01-01 00:10:24.990, 0.983, 0, 0.259, 1.221, -0.183, -0.244, 1.401, -75.608, 154.451, -25.627, -9.553, -11.393, 28.65, -0.1673, -0.60031, 0.12634, -0.77173,
 11:43:32.201,e3:ca:2d:fd:e0:8c, 2015-01-01 00:10:24.990, 0.981, 0, 0.261, 0.61, 0.061, 0, 1.395, -75.608, 154.462, -25.627, -9.553, -11.393, 28.65, -0.1673, -0.60031, 0.12634, -0.77173,
 11:43:32.224,ed:40:fe:65:30:6c, 2015-01-01 00:10:23.180, 0.456, 0.009, 0.885, 0.122, -1.648, 0.916, 0.187, -27.466, -135.187, -15.267, -9.113, -8.713, 26.86, 0.36942, -0.21829, -0.09137, -0.89856,
 11:43:32.224,ed:40:fe:65:30:6c, 2015-01-01 00:10:23.180, 0.452, 0.011, 0.881, -0.183, -1.282, 0.427, 0.181, -27.493, -135.176, -15.267, -9.113, -8.713, 26.86, 0.36942, -0.21829, -0.09137, -0.89856,
 11:43:32.225,f6:90:cc:01:6d:25, 2015-01-01 00:10:20.075, 0.914, 0.024, 0.36, 0.427, -1.16, -0.244, 3.505, -68.868, -161.598, -28.573, -10.627, -7.160, 32.55, -0.14886, 0.55353, 0.11508, 0.81125,
 11:43:32.225,f6:90:cc:01:6d:25, 2015-01-01 00:10:20.075, 0.915, 0.026, 0.362, 0.366, -0.977, -0.061, 3.521, -68.884, -161.62, -28.573, -10.627, -7.160, 32.55, -0.14886, 0.55353, 0.11508, 0.81125,
 11:43:32.246,e3:ca:2d:fd:e0:8c, 2015-01-01 00:10:24.990, 0.981, 0.002, 0.26, 0.122, 0, -0.366, 1.412, -75.602, 154.451, -25.627, -9.553, -11.393, 28.65, -0.1673, -0.60031, 0.12634, -0.77173,
 11:43:32.246,e3:ca:2d:fd:e0:8c, 2015-01-01 00:10:24.990, 0.983, 0.003, 0.262, -0.183, -0.549, -0.305, 1.417, -75.613, 154.462, -25.627, -9.553, -11.393, 28.65, -0.1673, -0.60031, 0.12634, -0.77173,
 11:43:32.248,ed:40:fe:65:30:6c, 2015-01-01 00:10:23.180, 0.449, 0.005, 0.887, -1.343, -1.038, -1.038, 0.176, -27.51, -135.176, -15.267, -9.113, -8.713, 26.86, 0.36942, -0.21829, -0.09137, -0.89856,
 11:43:32.248,ed:40:fe:65:30:6c, 2015-01-01 00:10:23.180, 0.463, 0.01, 0.885, -1.16, -0.793, -1.343, 0.165, -27.521, -135.209, -15.267, -9.113, -8.713, 26.86, 0.36942, -0.21829, -0.09137, -0.89856,
 11:43:32.272,f6:90:cc:01:6d:25, 2015-01-01 00:10:20.075, 0.917, 0.023, 0.36, 0, -0.549, 0, 3.527, -68.901, -161.636, -28.573, -10.627, -7.160, 32.55, -0.14886, 0.55353, 0.11508, 0.81125,
 11:43:32.272,f6:90:cc:01:6d:25, 2015-01-01 00:10:20.075, 0.92, 0.023, 0.36, -0.366, -0.488, 0.122, 3.521, -68.906, -161.658, -28.573, -10.627, -7.160, 32.55, -0.14886, 0.55353, 0.11508, 0.81125,
 11:43:32.290,ed:35:33:d3:6c:f8, 2015-01-01 00:10:24.120, 0.497, 0.012, 0.852, 0.427, -3.662, 1.099, 0.884, -30.372, -158.632, -14.367, -9.973, -18.000, 31.1, -0.17664, 0.24371, 0.05103, 0.95221,
 11:43:32.290,ed:35:33:d3:6c:f8, 2015-01-01 00:10:24.120, 0.501, 0.013, 0.854, -0.427, -4.395, 0.122, 0.879, -30.449, -158.599, -14.367, -9.973, -18.000, 31.1, -0.17664, 0.24371, 0.05103, 0.95221,
 11:43:32.291,e3:ca:2d:fd:e0:8c, 2015-01-01 00:10:24.990, 0.986, 0, 0.261, -0.366, -0.916, -0.305, 1.417, -75.63, 154.479, -25.627, -9.553, -11.393, 28.65, -0.1673, -0.60031, 0.12634, -0.77173,
 11:43:32.291,e3:ca:2d:fd:e0:8c, 2015-01-01 00:10:24.990, 0.988, 0, 0.261, -0.366, -0.916, -0.122, 1.406, -75.641, 154.495, -25.627, -9.553, -11.393, 28.65, -0.1673, -0.60031, 0.12634, -0.77173,
 11:43:32.293,ed:40:fe:65:30:6c, 2015-01-01 00:10:23.180, 0.464, 0.009, 0.878, -1.038, -0.366, -1.404, 0.159, -27.526, -135.247, -15.267, -9.113, -8.713, 26.86, 0.36942, -0.21829, -0.09137, -0.89856,
 11:43:32.293,ed:40:fe:65:30:6c, 2015-01-01 00:10:23.180, 0.457, 0.004, 0.879, -1.953, 1.587, -2.075, 0.159, -27.521, -135.286, -15.267, -9.113, -8.713, 26.86, 0.36942, -0.21829, -0.09137, -0.89856,
 11:43:32.313,ed:35:33:d3:6c:f8, 2015-01-01 00:10:24.120, 0.51, 0.02, 0.844, 0.427, -3.906, 0.183, 0.879, -30.526, -158.566, -14.367, -9.973, -18.000, 31.1, -0.18103, 0.25632, 0.056, 0.94778,
 11:43:32.313,ed:35:33:d3:6c:f8, 2015-01-01 00:10:24.120, 0.51, 0.014, 0.832, -0.671, -1.16, -0.854, 0.884, -30.575, -158.533, -14.367, -9.973, -18.000, 31.1, -0.18103, 0.25632, 0.056, 0.94778,
 11:43:32.314,e3:ca:2d:fd:e0:8c, 2015-01-01 00:10:24.990, 0.99, 0, 0.263, -0.854, -1.038, 0, 1.379, -75.657, 154.512, -25.627, -9.553, -11.393, 28.65, -0.1673, -0.60031, 0.12634, -0.77173,
 11:43:32.314,e3:ca:2d:fd:e0:8c, 2015-01-01 00:10:24.990, 0.995, 0, 0.261, -0.916, -0.671, 0, 1.346, -75.668, 154.528, -25.627, -9.553, -11.393, 28.65, -0.1673, -0.60031, 0.12634, -0.77173,
 11:43:32.337,ed:40:fe:65:30:6c, 2015-01-01 00:10:23.180, 0.459, 0.006, 0.893, -1.953, 2.625, -2.38, 0.143, -27.482, -135.335, -15.267, -9.113, -8.713, 26.86, 0.36942, -0.21829, -0.09137, -0.89856,
 11:43:32.337,ed:40:fe:65:30:6c, 2015-01-01 00:10:23.180, 0.466, 0.017, 0.887, -0.793, 3.601, -2.014, 0.137, -27.422, -135.379, -15.267, -9.113, -8.713, 26.86, 0.36942, -0.21829, -0.09137, -0.89856,
 11:43:32.338,f6:90:cc:01:6d:25, 2015-01-01 00:10:20.075, 0.924, 0.021, 0.358, -0.793, -0.061, 0.061, 3.505, -68.906, -161.658, -28.573, -10.627, -7.160, 32.55, -0.14886, 0.55353, 0.11508, 0.81125,
 11:43:32.338,f6:90:cc:01:6d:25, 2015-01-01 00:10:20.075, 0.929, 0.02, 0.356, -0.916, 0.793, 0.122, 3.477, -68.89, -161.647, -28.573, -10.627, -7.160, 32.55, -0.14886, 0.55353, 0.11508, 0.81125,
 11:43:32.359,e3:ca:2d:fd:e0:8c, 2015-01-01 00:10:24.990, 0.997, -0.003, 0.256, -0.549, -0.549, 0, 1.318, -75.674, 154.55, -25.627, -9.553, -11.393, 28.65, -0.1673, -0.60031, 0.12634, -0.77173,
 11:43:32.359,e3:ca:2d:fd:e0:8c, 2015-01-01 00:10:24.990, 0.995, -0.004, 0.254, -0.488, -0.305, 0, 1.291, -75.679, 154.594, -25.627, -9.553, -11.393, 28.65, -0.1673, -0.60031, 0.12634, -0.77173,
 11:43:32.362,f6:90:cc:01:6d:25, 2015-01-01 00:10:20.075, 0.93, 0.016, 0.352, -0.977, 1.587, 0, 3.45, -68.862, -161.647, -28.107, -10.267, -6.760, 32.55, -0.14886, 0.55353, 0.11508, 0.81125,
 11:43:32.362,f6:90:cc:01:6d:25, 2015-01-01 00:10:20.075, 0.928, 0.015, 0.35, -0.549, 2.502, 0.061, 3.428, -68.813, -161.647, -28.107, -10.267, -6.760, 32.55, -0.14886, 0.55353, 0.11508, 0.81125,
 11:43:32.362,ed:35:33:d3:6c:f8, 2015-01-01 00:10:24.120, 0.503, 0.015, 0.846, -2.075, 1.099, -1.343, 0.873, -30.569, -158.527, -14.367, -9.973, -18.000, 31.1, -0.18103, 0.25632, 0.056, 0.94778,
 11:43:32.362,ed:35:33:d3:6c:f8, 2015-01-01 00:10:24.120, 0.512, 0.021, 0.854, -1.343, 0.732, -1.343, 0.857, -30.553, -158.533, -14.367, -9.973, -18.000, 31.1, -0.18103, 0.25632, 0.056, 0.94778,
 11:43:32.380,ed:35:33:d3:6c:f8, 2015-01-01 00:10:24.520, 0.512, 0.032, 0.844, 0.488, 0, -0.427, 0.862, -30.542, -158.544, -14.367, -9.973, -18.000, 31.1, -0.18103, 0.25632, 0.056, 0.94778,
 11:43:32.380,ed:35:33:d3:6c:f8, 2015-01-01 00:10:24.520, 0.501, 0.02, 0.845, 0.183, 0.366, 0.061, 0.873, -30.542, -158.538, -14.367, -9.973, -18.000, 31.1, -0.18103, 0.25632, 0.056, 0.94778,
 11:43:32.382,ed:40:fe:65:30:6c, 2015-01-01 00:10:23.180, 0.454, 0.015, 0.885, -1.038, 5.066, -1.465, 0.148, -27.339, -135.412, -15.267, -9.113, -8.713, 26.86, 0.36942, -0.21829, -0.09137, -0.89856,
 11:43:32.382,ed:40:fe:65:30:6c, 2015-01-01 00:10:23.180, 0.445, 0.003, 0.892, -1.831, 6.653, -1.892, 0.143, -27.23, -135.445, -15.267, -9.113, -8.713, 26.86, 0.36942, -0.21829, -0.09137, -0.89856,
 11:43:32.384,f6:90:cc:01:6d:25, 2015-01-01 00:10:20.075, 0.921, 0.019, 0.347, -0.122, 3.357, 0.244, 3.4, -68.752, -161.647, -28.107, -10.267, -6.760, 32.55, -0.14886, 0.55353, 0.11508, 0.81125,
 11:43:32.384,f6:90:cc:01:6d:25, 2015-01-01 00:10:20.075, 0.923, 0.022, 0.354, -0.366, 3.601, 0.427, 3.362, -68.687, -161.636, -28.107, -10.267, -6.760, 32.55, -0.14886, 0.55353, 0.11508, 0.81125,
 11:43:32.405,ed:40:fe:65:30:6c, 2015-01-01 00:10:23.180, 0.454, 0.005, 0.899, -1.587, 7.69, -2.502, 0.132, -27.092, -135.489, -15.047, -9.500, -9.000, 26.86, 0.36942, -0.21829, -0.09137, -0.89856,
 11:43:32.405,ed:40:fe:65:30:6c, 2015-01-01 00:10:23.180, 0.456, 0.011, 0.894, -0.793, 8.179, -2.625, 0.137, -26.938, -135.538, -15.047, -9.500, -9.000, 26.86, 0.36942, -0.21829, -0.09137, -0.89856,
 11:43:32.405,ed:35:33:d3:6c:f8, 2015-01-01 00:10:24.520, 0.501, 0.012, 0.857, -1.099, 0.732, 0, 0.868, -30.531, -158.527, -14.367, -9.973, -18.000, 31.1, -0.18103, 0.25632, 0.056, 0.94778,
 11:43:32.405,ed:35:33:d3:6c:f8, 2015-01-01 00:10:24.520, 0.515, 0.019, 0.859, -0.488, -0.183, 0.061, 0.862, -30.531, -158.511, -14.367, -9.973, -18.000, 31.1, -0.18103, 0.25632, 0.056, 0.94778,
 11:43:32.428,e3:ca:2d:fd:e0:8c, 2015-01-01 00:10:24.990, 0.989, -0.003, 0.251, -0.427, -0.061, 0.061, 1.258, -75.674, 154.616, -25.753, -9.813, -10.740, 28.65, -0.1673, -0.60031, 0.12634, -0.77173,
 11:43:32.428,e3:ca:2d:fd:e0:8c, 2015-01-01 00:10:24.990, 0.992, 0, 0.247, -0.793, 0.061, 0.183, 1.208, -75.674, 154.627, -25.753, -9.813, -10.740, 28.65, -0.1673, -0.60031, 0.12634, -0.77173,
 11:43:32.429,f6:90:cc:01:6d:25, 2015-01-01 00:10:20.075, 0.926, 0.022, 0.352, -0.732, 3.784, 0.671, 3.307, -68.615, -161.625, -28.107, -10.267, -6.760, 32.55, -0.14795, 0.5527, 0.11377, 0.81213,
 11:43:32.429,f6:90:cc:01:6d:25, 2015-01-01 00:10:20.075, 0.919, 0.021, 0.346, -0.732, 3.967, 0.793, 3.241, -68.544, -161.598, -28.107, -10.267, -6.760, 32.55, -0.14795, 0.5527, 0.11377, 0.81213,
 11:43:32.447,ed:35:33:d3:6c:f8, 2015-01-01 00:10:24.520, 0.514, 0.021, 0.854, 0, -0.671, -0.122, 0.862, -30.547, -158.494, -14.367, -9.973, -18.000, 31.1, -0.18103, 0.25632, 0.056, 0.94778,
 11:43:32.447,ed:35:33:d3:6c:f8, 2015-01-01 00:10:24.520, 0.509, 0.026, 0.866, -0.244, -0.732, 0.854, 0.857, -30.564, -158.456, -14.367, -9.973, -18.000, 31.1, -0.18103, 0.25632, 0.056, 0.94778,
 11:43:32.448,e3:ca:2d:fd:e0:8c, 2015-01-01 00:10:24.990, 0.995, 0, 0.244, -0.916, -0.549, 0.122, 1.165, -75.685, 154.638, -25.753, -9.813, -10.740, 28.65, -0.16718, -0.60025, 0.12677, -0.77173,
 11:43:32.448,e3:ca:2d:fd:e0:8c, 2015-01-01 00:10:24.990, 0.989, -0.001, 0.242, -0.854, -0.854, 0.183, 1.121, -75.701, 154.649, -25.753, -9.813, -10.740, 28.65, -0.16718, -0.60025, 0.12677, -0.77173,
 11:43:32.474,ed:40:fe:65:30:6c, 2015-01-01 00:10:23.180, 0.439, 0.01, 0.9, -0.977, 7.507, -2.563, 0.154, -26.779, -135.588, -15.047, -9.500, -9.000, 26.86, 0.36942, -0.21829, -0.09137, -0.89856,
 11:43:32.474,ed:40:fe:65:30:6c, 2015-01-01 00:10:23.180, 0.445, 0.013, 0.911, -0.916, 5.798, -1.709, 0.159, -26.642, -135.615, -15.047, -9.500, -9.000, 26.86, 0.36942, -0.21829, -0.09137, -0.89856,
 11:43:32.474,f6:90:cc:01:6d:25, 2015-01-01 00:10:20.430, 0.914, 0.019, 0.349, -0.427, 3.54, 0.671, 3.186, -68.478, -161.581, -28.107, -10.267, -6.760, 32.55, -0.14795, 0.5527, 0.11377, 0.81213,
 11:43:32.475,f6:90:cc:01:6d:25, 2015-01-01 00:10:20.430, 0.915, 0.019, 0.359, -0.366, 2.441, 0.61, 3.137, -68.434, -161.565, -28.107, -10.267, -6.760, 32.55, -0.14795, 0.5527, 0.11377, 0.81213,
 11:43:32.492,ed:35:33:d3:6c:f8, 2015-01-01 00:10:24.520, 0.513, 0.027, 0.872, 0.793, -0.549, 2.075, 0.857, -30.575, -158.384, -14.367, -9.973, -18.000, 31.1, -0.18103, 0.25632, 0.056, 0.94778,
 11:43:32.492,ed:35:33:d3:6c:f8, 2015-01-01 00:10:24.520, 0.518, 0.021, 0.861, 1.343, -1.465, 1.282, 0.868, -30.602, -158.324, -14.367, -9.973, -18.000, 31.1, -0.18103, 0.25632, 0.056, 0.94778,
 11:43:32.494,e3:ca:2d:fd:e0:8c, 2015-01-01 00:10:24.990, 0.985, -0.001, 0.24, -0.61, -0.366, 0.305, 1.066, -75.712, 154.66, -25.753, -9.813, -10.740, 28.65, -0.16718, -0.60025, 0.12677, -0.77173,
 11:43:32.494,e3:ca:2d:fd:e0:8c, 2015-01-01 00:10:24.990, 0.987, -0.001, 0.243, -0.671, -0.305, 0.244, 1.022, -75.718, 154.638, -25.753, -9.813, -10.740, 28.65, -0.16718, -0.60025, 0.12677, -0.77173,
 11:43:32.495,ed:40:fe:65:30:6c, 2015-01-01 00:10:23.180, 0.451, 0.014, 0.901, 0.122, 3.479, -0.671, 0.17, -26.543, -135.632, -15.047, -9.500, -9.000, 26.86, 0.36783, -0.21332, -0.0885, -0.9007,
 11:43:32.495,ed:40:fe:65:30:6c, 2015-01-01 00:10:23.180, 0.446, 0.008, 0.9, 0.183, 2.014, -0.61, 0.181, -26.483, -135.637, -15.047, -9.500, -9.000, 26.86, 0.36783, -0.21332, -0.0885, -0.9007,
 11:43:32.515,e3:ca:2d:fd:e0:8c, 2015-01-01 00:10:25.345, 0.99, -0.001, 0.248, -0.549, -1.038, 0.183, 0.978, -75.74, 154.638, -25.753, -9.813, -10.740, 28.65, -0.16718, -0.60025, 0.12677, -0.77173,
 11:43:32.515,e3:ca:2d:fd:e0:8c, 2015-01-01 00:10:25.345, 0.989, -0.001, 0.25, -0.549, -1.526, 0.122, 0.945, -75.773, 154.633, -25.753, -9.813, -10.740, 28.65, -0.16718, -0.60025, 0.12677, -0.77173,
 11:43:32.518,f6:90:cc:01:6d:25, 2015-01-01 00:10:20.430, 0.918, 0.021, 0.364, -0.61, 1.465, 0.732, 3.087, -68.406, -161.554, -28.107, -10.267, -6.760, 32.55, -0.14795, 0.5527, 0.11377, 0.81213,
 11:43:32.518,f6:90:cc:01:6d:25, 2015-01-01 00:10:20.430, 0.917, 0.017, 0.363, -0.977, 1.038, 0.793, 3.032, -68.39, -161.526, -28.107, -10.267, -6.760, 32.55, -0.14795, 0.5527, 0.11377, 0.81213,
 11:43:32.537,ed:35:33:d3:6c:f8, 2015-01-01 00:10:24.520, 0.514, 0.016, 0.858, 0.549, -1.831, 0.671, 0.879, -30.635, -158.275, -14.367, -9.973, -18.000, 31.1, -0.18103, 0.25632, 0.056, 0.94778,
 11:43:32.537,ed:35:33:d3:6c:f8, 2015-01-01 00:10:24.520, 0.519, 0.019, 0.86, 1.465, -0.916, 1.16, 0.901, -30.657, -158.198, -14.367, -9.973, -18.000, 31.1, -0.18103, 0.25632, 0.056, 0.94778,
 11:43:32.539,ed:40:fe:65:30:6c, 2015-01-01 00:10:23.180, 0.446, 0.005, 0.906, 0, 1.404, -0.366, 0.198, -26.444, -135.637, -15.047, -9.500, -9.000, 26.86, 0.36783, -0.21332, -0.0885, -0.9007,
 11:43:32.539,ed:40:fe:65:30:6c, 2015-01-01 00:10:23.180, 0.451, 0.005, 0.904, 1.77, 0.61, 0.549, 0.214, -26.422, -135.632, -15.047, -9.500, -9.000, 26.86, 0.36783, -0.21332, -0.0885, -0.9007,
 11:43:32.561,e3:ca:2d:fd:e0:8c, 2015-01-01 00:10:25.345, 0.989, -0.002, 0.254, -0.427, -1.77, 0.122, 0.917, -75.811, 154.622, -25.753, -9.813, -10.740, 28.65, -0.16718, -0.60025, 0.12677, -0.77173,
 11:43:32.561,e3:ca:2d:fd:e0:8c, 2015-01-01 00:10:25.345, 0.991, -0.004, 0.258, -0.366, -2.075, 0.122, 0.884, -75.85, 154.649, -25.753, -9.813, -10.740, 28.65, -0.16718, -0.60025, 0.12677, -0.77173,
 11:43:32.564,f6:90:cc:01:6d:25, 2015-01-01 00:10:20.430, 0.917, 0.014, 0.369, -0.916, 0.549, 0.671, 2.977, -68.379, -161.483, -28.107, -10.267, -6.760, 32.55, -0.14795, 0.5527, 0.11377, 0.81213,
 11:43:32.564,f6:90:cc:01:6d:25, 2015-01-01 00:10:20.430, 0.918, 0.012, 0.371, -0.549, 0.366, 0.549, 2.933, -68.373, -161.45, -28.107, -10.267, -6.760, 32.55, -0.14795, 0.5527, 0.11377, 0.81213,
 11:43:32.582,ed:35:33:d3:6c:f8, 2015-01-01 00:10:24.520, 0.519, 0.016, 0.855, 3.174, -0.549, 1.404, 0.945, -30.674, -158.132, -14.367, -9.973, -18.000, 31.1, -0.18103, 0.25632, 0.056, 0.94778,
 11:43:32.582,ed:35:33:d3:6c:f8, 2015-01-01 00:10:24.520, 0.521, 0.016, 0.846, 3.357, 0, 1.221, 1, -30.679, -158.071, -14.367, -9.973, -18.000, 31.1, -0.18103, 0.25632, 0.056, 0.94778,
 11:43:32.584,ed:40:fe:65:30:6c, 2015-01-01 00:10:23.540, 0.455, 0.004, 0.896, 2.319, -0.488, 1.099, 0.247, -26.417, -135.61, -15.047, -9.500, -9.000, 26.86, 0.36783, -0.21332, -0.0885, -0.9007,
 11:43:32.584,ed:40:fe:65:30:6c, 2015-01-01 00:10:23.540, 0.451, 0.004, 0.887, 2.258, -0.793, 1.282, 0.286, -26.433, -135.588, -15.047, -9.500, -9.000, 26.86, 0.36783, -0.21332, -0.0885, -0.9007,
 11:43:32.585,f6:90:cc:01:6d:25, 2015-01-01 00:10:20.430, 0.919, 0.01, 0.367, 0, 0.854, 0.366, 2.906, -68.362, -161.417, -28.107, -10.267, -6.760, 32.55, -0.14795, 0.5527, 0.11377, 0.81213,
 11:43:32.585,f6:90:cc:01:6d:25, 2015-01-01 00:10:20.430, 0.918, 0.011, 0.366, 0.305, 1.465, 0.183, 2.889, -68.34, -161.389, -28.107, -10.267, -6.760, 32.55, -0.14795, 0.5527, 0.11377, 0.81213,
 11:43:32.605,e3:ca:2d:fd:e0:8c, 2015-01-01 00:10:25.345, 0.991, -0.005, 0.259, -0.244, -2.075, 0, 0.862, -75.894, 154.649, -25.753, -9.813, -10.740, 28.65, -0.16718, -0.60025, 0.12677, -0.77173,
 11:43:32.605,e3:ca:2d:fd:e0:8c, 2015-01-01 00:10:25.345, 0.99, -0.005, 0.259, -0.122, -1.587, -0.061, 0.851, -75.921, 154.633, -25.753, -9.813, -10.740, 28.65, -0.16718, -0.60025, 0.12677, -0.77173,
 11:43:32.605,ed:35:33:d3:6c:f8, 2015-01-01 00:10:24.520, 0.512, 0.014, 0.835, 3.052, 0.427, 0.732, 1.055, -30.679, -158.022, -15.287, -9.693, -16.833, 31.1, -0.18103, 0.25632, 0.056, 0.94778,
 11:43:32.605,ed:35:33:d3:6c:f8, 2015-01-01 00:10:24.520, 0.513, 0.017, 0.832, 2.747, 2.197, 0.854, 1.099, -30.652, -157.967, -15.287, -9.693, -16.833, 31.1, -0.18103, 0.25632, 0.056, 0.94778,
 11:43:32.607,ed:40:fe:65:30:6c, 2015-01-01 00:10:23.540, 0.445, 0.002, 0.885, 2.319, 0.061, 1.343, 0.319, -26.444, -135.566, -15.047, -9.500, -9.000, 26.86, 0.36783, -0.21332, -0.0885, -0.9007,
 11:43:32.607,ed:40:fe:65:30:6c, 2015-01-01 00:10:23.540, 0.455, 0.008, 0.882, 2.502, 1.77, 1.77, 0.352, -26.439, -135.544, -15.047, -9.500, -9.000, 26.86, 0.36783, -0.21332, -0.0885, -0.9007,
 11:43:32.631,f6:90:cc:01:6d:25, 2015-01-01 00:10:20.430, 0.917, 0.011, 0.367, 0.427, 2.136, 0, 2.884, -68.302, -161.378, -28.107, -10.267, -6.760, 32.55, -0.14795, 0.5527, 0.11377, 0.81213,
 11:43:32.631,f6:90:cc:01:6d:25, 2015-01-01 00:10:20.430, 0.921, 0.012, 0.368, 0.549, 2.808, 0, 2.878, -68.247, -161.378, -28.107, -10.267, -6.760, 32.55, -0.14795, 0.5527, 0.11377, 0.81213,
 11:43:32.650,ed:35:33:d3:6c:f8, 2015-01-01 00:10:24.520, 0.518, 0.023, 0.827, 2.808, 3.723, 1.404, 1.143, -30.591, -157.901, -15.287, -9.693, -16.833, 31.1, -0.18103, 0.25632, 0.056, 0.94778,
 11:43:32.650,ed:35:33:d3:6c:f8, 2015-01-01 00:10:24.520, 0.514, 0.02, 0.834, 2.38, 4.822, 0.732, 1.181, -30.509, -157.852, -15.287, -9.693, -16.833, 31.1, -0.18103, 0.25632, 0.056, 0.94778,
 11:43:32.651,e3:ca:2d:fd:e0:8c, 2015-01-01 00:10:25.345, 0.99, -0.005, 0.258, -0.122, -1.038, -0.183, 0.846, -75.938, 154.638, -25.753, -9.813, -10.740, 28.65, -0.16718, -0.60025, 0.12677, -0.77173,
 11:43:32.651,e3:ca:2d:fd:e0:8c, 2015-01-01 00:10:25.345, 0.994, -0.005, 0.256, 0.366, -0.549, -0.366, 0.857, -75.943, 154.655, -25.753, -9.813, -10.740, 28.65, -0.16718, -0.60025, 0.12677, -0.77173,
 11:43:32.652,ed:40:fe:65:30:6c, 2015-01-01 00:10:23.540, 0.452, 0.014, 0.878, 2.38, 3.54, 2.014, 0.385, -26.4, -135.516, -15.047, -9.500, -9.000, 26.86, 0.36783, -0.21332, -0.0885, -0.9007,
 11:43:32.652,ed:40:fe:65:30:6c, 2015-01-01 00:10:23.540, 0.442, 0.01, 0.897, 1.648, 5.31, 0.916, 0.412, -26.329, -135.494, -15.047, -9.500, -9.000, 26.86, 0.36783, -0.21332, -0.0885, -0.9007,
 11:43:32.675,e3:ca:2d:fd:e0:8c, 2015-01-01 00:10:25.345, 0.998, -0.006, 0.254, 0.793, -0.244, -0.366, 0.884, -75.943, 154.709, -25.753, -9.813, -10.740, 28.65, -0.16718, -0.60025, 0.12677, -0.77173,
 11:43:32.675,e3:ca:2d:fd:e0:8c, 2015-01-01 00:10:25.345, 0.989, -0.005, 0.25, 0.549, 0, -0.305, 0.895, -75.938, 154.753, -25.753, -9.813, -10.740, 28.65, -0.16718, -0.60025, 0.12677, -0.77173,
 11:43:32.679,f6:90:cc:01:6d:25, 2015-01-01 00:10:20.430, 0.925, 0.014, 0.365, 0.549, 3.845, 0, 2.873, -68.176, -161.373, -28.447, -10.607, -7.347, 32.55, -0.14795, 0.5527, 0.11377, 0.81213,
 11:43:32.679,f6:90:cc:01:6d:25, 2015-01-01 00:10:20.430, 0.922, 0.015, 0.367, 0.183, 4.578, 0.122, 2.851, -68.088, -161.367, -28.447, -10.607, -7.347, 32.55, -0.14795, 0.5527, 0.11377, 0.81213,
 11:43:32.697,ed:40:fe:65:30:6c, 2015-01-01 00:10:23.540, 0.438, 0.003, 0.902, 0.305, 5.859, 0, 0.434, -26.224, -135.494, -15.047, -9.500, -9.000, 26.86, 0.36783, -0.21332, -0.0885, -0.9007,
 11:43:32.697,ed:40:fe:65:30:6c, 2015-01-01 00:10:23.540, 0.436, 0.008, 0.898, 0, 5.981, 0.366, 0.434, -26.115, -135.5, -15.047, -9.500, -9.000, 26.86, 0.36783, -0.21332, -0.0885, -0.9007,
 11:43:32.717,ed:35:33:d3:6c:f8, 2015-01-01 00:10:24.520, 0.51, 0.011, 0.855, 0.671, 5.371, -0.732, 1.208, -30.416, -157.841, -15.287, -9.693, -16.833, 31.1, -0.18768, 0.25668, 0.06018, 0.94614,
 11:43:32.717,ed:35:33:d3:6c:f8, 2015-01-01 00:10:24.520, 0.503, 0.018, 0.854, -0.793, 5.737, -1.343, 1.214, -30.317, -157.852, -15.287, -9.693, -16.833, 31.1, -0.18768, 0.25668, 0.06018, 0.94614,
 11:43:32.719,e3:ca:2d:fd:e0:8c, 2015-01-01 00:10:25.345, 0.988, -0.003, 0.24, -0.244, -0.488, -0.366, 0.895, -75.938, 154.786, -25.753, -9.813, -10.740, 28.65, -0.16718, -0.60025, 0.12677, -0.77173,
 11:43:32.719,e3:ca:2d:fd:e0:8c, 2015-01-01 00:10:25.345, 0.99, -0.002, 0.237, 0.244, -1.16, -0.427, 0.901, -75.954, 154.792, -25.753, -9.813, -10.740, 28.65, -0.16718, -0.60025, 0.12677, -0.77173,
 11:43:32.721,f6:90:cc:01:6d:25, 2015-01-01 00:10:20.430, 0.915, 0.014, 0.368, 0.061, 4.944, 0, 2.834, -67.989, -161.389, -28.447, -10.607, -7.347, 32.55, -0.14764, 0.54828, 0.1106, 0.81564,
 11:43:32.721,f6:90:cc:01:6d:25, 2015-01-01 00:10:20.430, 0.913, 0.015, 0.369, 0, 4.7, -0.122, 2.818, -67.901, -161.422, -28.447, -10.607, -7.347, 32.55, -0.14764, 0.54828, 0.1106, 0.81564,
 11:43:32.765,ed:40:fe:65:30:6c, 2015-01-01 00:10:23.540, 0.438, 0.013, 0.905, 0.854, 6.409, 0.427, 0.434, -25.999, -135.494, -15.047, -9.500, -9.000, 26.86, 0.36783, -0.21332, -0.0885, -0.9007,
 11:43:32.765,ed:40:fe:65:30:6c, 2015-01-01 00:10:23.540, 0.429, 0.011, 0.91, 1.648, 6.042, 0.854, 0.45, -25.878, -135.483, -15.047, -9.500, -9.000, 26.86, 0.36783, -0.21332, -0.0885, -0.9007,
 11:43:32.770,f6:90:cc:01:6d:25, 2015-01-01 00:10:20.725, 0.915, 0.015, 0.368, -0.183, 4.028, -0.183, 2.807, -67.824, -161.461, -28.447, -10.607, -7.347, 32.55, -0.14764, 0.54828, 0.1106, 0.81564,
 11:43:32.771,f6:90:cc:01:6d:25, 2015-01-01 00:10:20.725, 0.913, 0.015, 0.365, 0, 2.93, -0.305, 2.812, -67.769, -161.499, -28.447, -10.607, -7.347, 32.55, -0.14764, 0.54828, 0.1106, 0.81564,
 11:43:32.784,ed:35:33:d3:6c:f8, 2015-01-01 00:10:24.880, 0.506, 0.021, 0.85, -0.061, 7.202, -0.916, 1.219, -30.19, -157.852, -15.287, -9.693, -16.833, 31.1, -0.18768, 0.25668, 0.06018, 0.94614,
 11:43:32.784,ed:35:33:d3:6c:f8, 2015-01-01 00:10:24.880, 0.503, 0.025, 0.862, 1.404, 7.874, -0.549, 1.241, -30.048, -157.841, -15.287, -9.693, -16.833, 31.1, -0.18768, 0.25668, 0.06018, 0.94614,
 11:43:32.786,e3:ca:2d:fd:e0:8c, 2015-01-01 00:10:25.345, 0.99, -0.002, 0.232, 0.122, -1.404, -0.671, 0.923, -75.976, 154.781, -25.647, -9.720, -10.813, 28.65, -0.16718, -0.60025, 0.12677, -0.77173,
 11:43:32.786,e3:ca:2d:fd:e0:8c, 2015-01-01 00:10:25.345, 0.987, -0.001, 0.235, -0.061, -1.404, -0.793, 0.961, -76.003, 154.759, -25.647, -9.720, -10.813, 28.65, -0.16718, -0.60025, 0.12677, -0.77173,
 11:43:32.787,ed:40:fe:65:30:6c, 2015-01-01 00:10:23.540, 0.418, 0.002, 0.919, 1.099, 4.028, 0.732, 0.478, -25.774, -135.461, -14.340, -9.060, -9.147, 26.86, 0.36783, -0.21332, -0.0885, -0.9007,
 11:43:32.787,ed:40:fe:65:30:6c, 2015-01-01 00:10:23.540, 0.416, 0, 0.919, 1.404, 1.709, -0.183, 0.494, -25.708, -135.461, -14.340, -9.060, -9.147, 26.86, 0.36783, -0.21332, -0.0885, -0.9007,
 11:43:32.789,f6:90:cc:01:6d:25, 2015-01-01 00:10:20.725, 0.907, 0.019, 0.361, 0.488, 2.38, -0.427, 2.829, -67.731, -161.526, -28.447, -10.607, -7.347, 32.55, -0.14764, 0.54828, 0.1106, 0.81564,
 11:43:32.789,f6:90:cc:01:6d:25, 2015-01-01 00:10:20.725, 0.909, 0.019, 0.366, 0.61, 1.648, -0.366, 2.851, -67.703, -161.576, -28.447, -10.607, -7.347, 32.55, -0.14764, 0.54828, 0.1106, 0.81564,
 11:43:32.808,ed:35:33:d3:6c:f8, 2015-01-01 00:10:24.880, 0.493, 0.018, 0.88, 1.465, 6.653, 0, 1.274, -29.921, -157.819, -15.287, -9.693, -16.833, 31.1, -0.18768, 0.25668, 0.06018, 0.94614,
 11:43:32.808,ed:35:33:d3:6c:f8, 2015-01-01 00:10:24.880, 0.484, 0.005, 0.883, 0.671, 5.554, -0.916, 1.296, -29.811, -157.813, -15.287, -9.693, -16.833, 31.1, -0.18768, 0.25668, 0.06018, 0.94614,
 11:43:32.809,e3:ca:2d:fd:e0:8c, 2015-01-01 00:10:25.345, 0.989, -0.001, 0.238, 0, -1.282, -0.61, 1.005, -76.036, 154.742, -25.647, -9.720, -10.813, 28.65, -0.16696, -0.60242, 0.1279, -0.7699,
 11:43:32.809,e3:ca:2d:fd:e0:8c, 2015-01-01 00:10:25.345, 0.991, -0.001, 0.242, -0.183, -1.343, -0.488, 1.033, -76.064, 154.715, -25.647, -9.720, -10.813, 28.65, -0.16696, -0.60242, 0.1279, -0.7699,
 11:43:32.830,ed:35:33:d3:6c:f8, 2015-01-01 00:10:24.880, 0.481, 0.01, 0.881, 1.465, 5.371, -2.075, 1.34, -29.713, -157.835, -15.287, -9.693, -16.833, 31.1, -0.18768, 0.25668, 0.06018, 0.94614,
 11:43:32.830,ed:35:33:d3:6c:f8, 2015-01-01 00:10:24.880, 0.482, 0.026, 0.877, 1.587, 4.089, -2.991, 1.395, -29.625, -157.885, -15.287, -9.693, -16.833, 31.1, -0.18768, 0.25668, 0.06018, 0.94614,
 11:43:32.833,f6:90:cc:01:6d:25, 2015-01-01 00:10:20.725, 0.912, 0.018, 0.371, 0.305, 0.854, -0.61, 2.884, -67.687, -161.636, -28.447, -10.607, -7.347, 32.55, -0.14764, 0.54828, 0.1106, 0.81564,
 11:43:32.833,f6:90:cc:01:6d:25, 2015-01-01 00:10:20.725, 0.913, 0.019, 0.368, 0.061, 0.427, -0.61, 2.911, -67.687, -161.702, -28.447, -10.607, -7.347, 32.55, -0.14764, 0.54828, 0.1106, 0.81564,
 11:43:32.833,ed:40:fe:65:30:6c, 2015-01-01 00:10:23.540, 0.419, 0.01, 0.914, 2.014, -0.488, -0.732, 0.533, -25.697, -135.478, -14.340, -9.060, -9.147, 26.86, 0.36783, -0.21332, -0.0885, -0.9007,
 11:43:32.833,ed:40:fe:65:30:6c, 2015-01-01 00:10:23.540, 0.423, 0.025, 0.908, 1.099, -1.648, -0.793, 0.571, -25.719, -135.511, -14.340, -9.060, -9.147, 26.86, 0.36783, -0.21332, -0.0885, -0.9007,
 11:43:32.853,ed:35:33:d3:6c:f8, 2015-01-01 00:10:24.880, 0.483, 0.04, 0.868, 0.854, 3.052, -3.113, 1.45, -29.559, -157.939, -15.287, -9.693, -16.833, 31.1, -0.18768, 0.25668, 0.06018, 0.94614,
 11:43:32.853,ed:35:33:d3:6c:f8, 2015-01-01 00:10:24.880, 0.488, 0.041, 0.872, 0.732, 3.113, -2.38, 1.494, -29.498, -157.972, -15.287, -9.693, -16.833, 31.1, -0.18768, 0.25668, 0.06018, 0.94614,
 11:43:32.854,e3:ca:2d:fd:e0:8c, 2015-01-01 00:10:25.345, 0.991, -0.001, 0.243, 0.061, -1.221, -0.427, 1.049, -76.091, 154.693, -25.647, -9.720, -10.813, 28.65, -0.16696, -0.60242, 0.1279, -0.7699,
 11:43:32.854,e3:ca:2d:fd:e0:8c, 2015-01-01 00:10:25.345, 0.99, -0.001, 0.243, 0.549, -0.671, -0.366, 1.071, -76.113, 154.698, -25.647, -9.720, -10.813, 28.65, -0.16696, -0.60242, 0.1279, -0.7699,
 11:43:32.856,ed:40:fe:65:30:6c, 2015-01-01 00:10:23.540, 0.423, 0.029, 0.91, 0.427, -1.282, -0.549, 0.593, -25.741, -135.527, -14.340, -9.060, -9.147, 26.86, 0.37, -0.20419, -0.0889, -0.90189,
 11:43:32.856,ed:40:fe:65:30:6c, 2015-01-01 00:10:23.540, 0.429, 0.024, 0.912, 0.488, -0.854, -0.122, 0.61, -25.757, -135.533, -14.340, -9.060, -9.147, 26.86, 0.37, -0.20419, -0.0889, -0.90189,
 11:43:32.876,e3:ca:2d:fd:e0:8c, 2015-01-01 00:10:25.705, 0.999, 0.005, 0.245, 1.892, -0.488, -0.122, 1.093, -76.124, 154.72, -25.647, -9.720, -10.813, 28.65, -0.16696, -0.60242, 0.1279, -0.7699,
 11:43:32.876,e3:ca:2d:fd:e0:8c, 2015-01-01 00:10:25.705, 0.992, -0.005, 0.23, 3.601, -0.488, 0.916, 1.115, -76.135, 154.748, -25.647, -9.720, -10.813, 28.65, -0.16696, -0.60242, 0.1279, -0.7699,
 11:43:32.878,f6:90:cc:01:6d:25, 2015-01-01 00:10:20.725, 0.911, 0.021, 0.372, 0.244, 0.305, -0.366, 2.928, -67.681, -161.763, -28.447, -10.607, -7.347, 32.55, -0.14764, 0.54828, 0.1106, 0.81564,
 11:43:32.878,f6:90:cc:01:6d:25, 2015-01-01 00:10:20.725, 0.917, 0.028, 0.369, 1.282, 0, -0.122, 2.961, -67.687, -161.818, -28.447, -10.607, -7.347, 32.55, -0.14764, 0.54828, 0.1106, 0.81564,
 11:43:32.898,ed:35:33:d3:6c:f8, 2015-01-01 00:10:24.880, 0.494, 0.042, 0.879, 1.648, 1.953, -0.732, 1.538, -29.454, -157.978, -15.287, -9.693, -16.833, 31.1, -0.18768, 0.25668, 0.06018, 0.94614,
 11:43:32.898,ed:35:33:d3:6c:f8, 2015-01-01 00:10:24.880, 0.491, 0.051, 0.888, 2.991, -0.122, 1.404, 1.582, -29.449, -157.945, -15.287, -9.693, -16.833, 31.1, -0.18768, 0.25668, 0.06018, 0.94614,
 11:43:32.899,ed:40:fe:65:30:6c, 2015-01-01 00:10:23.540, 0.433, 0.03, 0.914, 1.709, -1.648, 0.061, 0.637, -25.774, -135.533, -14.340, -9.060, -9.147, 26.86, 0.37, -0.20419, -0.0889, -0.90189,
 11:43:32.899,ed:40:fe:65:30:6c, 2015-01-01 00:10:23.540, 0.423, 0.05, 0.921, 0.305, -4.272, -1.038, 0.67, -25.829, -135.555, -14.340, -9.060, -9.147, 26.86, 0.37, -0.20419, -0.0889, -0.90189,
 11:43:32.921,e3:ca:2d:fd:e0:8c, 2015-01-01 00:10:25.705, 0.991, -0.023, 0.241, 0.977, -1.282, 1.953, 1.06, -76.152, 154.841, -25.647, -9.720, -10.813, 28.65, -0.16696, -0.60242, 0.1279, -0.7699,
 11:43:32.921,e3:ca:2d:fd:e0:8c, 2015-01-01 00:10:25.705, 0.987, -0.002, 0.241, -1.465, -2.014, 2.991, 0.868, -76.185, 155.045, -25.647, -9.720, -10.813, 28.65, -0.16696, -0.60242, 0.1279, -0.7699,
 11:43:32.924,f6:90:cc:01:6d:25, 2015-01-01 00:10:20.725, 0.916, 0.046, 0.379, 2.014, -2.136, 1.282, 2.95, -67.731, -161.774, -28.447, -10.607, -7.347, 32.55, -0.14764, 0.54828, 0.1106, 0.81564,
 11:43:32.924,f6:90:cc:01:6d:25, 2015-01-01 00:10:20.725, 0.911, 0.029, 0.374, 0.122, -2.93, 4.333, 2.763, -67.797, -161.57, -28.447, -10.607, -7.347, 32.55, -0.14764, 0.54828, 0.1106, 0.81564,
 11:43:32.943,ed:35:33:d3:6c:f8, 2015-01-01 00:10:24.880, 0.481, 0.067, 0.903, 0.305, -1.892, 3.235, 1.582, -29.476, -157.868, -15.287, -9.693, -16.833, 31.1, -0.18768, 0.25668, 0.06018, 0.94614,
 11:43:32.943,ed:35:33:d3:6c:f8, 2015-01-01 00:10:24.880, 0.512, 0.076, 0.909, -4.639, -1.709, 2.441, 1.5, -29.509, -157.78, -15.287, -9.693, -16.833, 31.1, -0.18768, 0.25668, 0.06018, 0.94614,
 11:43:32.946,f6:90:cc:01:6d:25, 2015-01-01 00:10:20.725, 0.911, 0.032, 0.383, -3.906, -3.723, 6.104, 2.411, -67.879, -161.268, -28.133, -10.373, -7.227, 32.55, -0.14764, 0.54828, 0.1106, 0.81564,
 11:43:32.946,f6:90:cc:01:6d:25, 2015-01-01 00:10:20.725, 0.907, 0.029, 0.379, -6.287, -4.272, 7.446, 1.95, -67.967, -160.889, -28.133, -10.373, -7.227, 32.55, -0.14764, 0.54828, 0.1106, 0.81564,
 11:43:32.965,ed:35:33:d3:6c:f8, 2015-01-01 00:10:24.880, 0.478, 0.047, 0.88, -4.272, -5.859, 1.16, 1.412, -29.597, -157.747, -14.780, -10.253, -17.567, 31.1, -0.18768, 0.25668, 0.06018, 0.94614,
 11:43:32.965,ed:35:33:d3:6c:f8, 2015-01-01 00:10:24.880, 0.457, 0.03, 0.848, 1.648, -10.986, 1.831, 1.417, -29.789, -157.714, -14.780, -10.253, -17.567, 31.1, -0.18768, 0.25668, 0.06018, 0.94614,
 11:43:32.967,e3:ca:2d:fd:e0:8c, 2015-01-01 00:10:25.705, 0.986, 0.007, 0.237, -0.916, -1.099, 3.54, 0.566, -76.223, 155.314, -25.647, -9.720, -10.813, 28.65, -0.16696, -0.60242, 0.1279, -0.7699,
 11:43:32.967,e3:ca:2d:fd:e0:8c, 2015-01-01 00:10:25.705, 0.981, 0.015, 0.221, -1.038, -1.038, 3.174, 0.253, -76.251, 155.605, -25.647, -9.720, -10.813, 28.65, -0.16696, -0.60242, 0.1279, -0.7699,
 11:43:32.967,ed:40:fe:65:30:6c, 2015-01-01 00:10:23.895, 0.441, 0.069, 0.935, -4.944, -6.653, -2.563, 0.654, -25.928, -135.593, -14.340, -9.060, -9.147, 26.86, 0.37, -0.20419, -0.0889, -0.90189,
 11:43:32.967,ed:40:fe:65:30:6c, 2015-01-01 00:10:23.895, 0.451, 0.051, 0.919, -7.935, -9.827, -2.625, 0.566, -26.082, -135.643, -14.340, -9.060, -9.147, 26.86, 0.37, -0.20419, -0.0889, -0.90189,
 11:43:32.989,ed:40:fe:65:30:6c, 2015-01-01 00:10:23.895, 0.414, 0.011, 0.891, -1.526, -14.465, -0.366, 0.511, -26.312, -135.665, -14.340, -9.060, -9.147, 26.86, 0.37, -0.20419, -0.0889, -0.90189,
 11:43:32.989,ed:40:fe:65:30:6c, 2015-01-01 00:10:23.895, 0.413, 0.021, 0.889, 5.432, -13.489, 0.061, 0.566, -26.576, -135.659, -14.340, -9.060, -9.147, 26.86, 0.37, -0.20419, -0.0889, -0.90189,
 11:43:32.991,f6:90:cc:01:6d:25, 2015-01-01 00:10:20.725, 0.911, 0.023, 0.359, -7.385, -6.287, 6.775, 1.505, -68.093, -160.538, -28.133, -10.373, -7.227, 32.55, -0.14764, 0.54828, 0.1106, 0.81564,
 11:43:32.991,f6:90:cc:01:6d:25, 2015-01-01 00:10:20.725, 0.911, 0.013, 0.359, -6.47, -9.094, 5.554, 1.143, -68.269, -160.236, -28.133, -10.373, -7.227, 32.55, -0.14764, 0.54828, 0.1106, 0.81564,
 11:43:33.011,e3:ca:2d:fd:e0:8c, 2015-01-01 00:10:25.705, 0.973, 0.009, 0.224, -3.113, -0.183, 3.784, -0.044, -76.267, 155.891, -25.647, -9.720, -10.813, 28.65, -0.16696, -0.60242, 0.1279, -0.7699,
 11:43:33.011,e3:ca:2d:fd:e0:8c, 2015-01-01 00:10:25.705, 0.99, -0.002, 0.264, -4.15, -1.831, 3.723, -0.412, -76.284, 156.237, -25.647, -9.720, -10.813, 28.65, -0.16696, -0.60242, 0.1279, -0.7699,
 11:43:33.012,ed:35:33:d3:6c:f8, 2015-01-01 00:10:24.880, 0.484, 0.026, 0.842, 7.263, -9.277, 0.61, 1.544, -29.976, -157.703, -14.780, -10.253, -17.567, 31.1, -0.18768, 0.25668, 0.06018, 0.94614,
 11:43:33.012,ed:35:33:d3:6c:f8, 2015-01-01 00:10:24.880, 0.513, 0.005, 0.847, 8.545, -7.69, 1.221, 1.708, -30.125, -157.681, -14.780, -10.253, -17.567, 31.1, -0.18768, 0.25668, 0.06018, 0.94614,
 11:43:33.013,ed:40:fe:65:30:6c, 2015-01-01 00:10:23.895, 0.451, 0.002, 0.89, 7.69, -10.742, 0.122, 0.714, -26.801, -135.659, -14.340, -9.060, -9.147, 26.86, 0.37, -0.20419, -0.0889, -0.90189,
 11:43:33.013,ed:40:fe:65:30:6c, 2015-01-01 00:10:23.895, 0.46, -0.016, 0.875, 9.033, -11.414, 0.916, 0.884, -27.004, -135.637, -14.340, -9.060, -9.147, 26.86, 0.37, -0.20419, -0.0889, -0.90189,
 11:43:33.037,f6:90:cc:01:6d:25, 2015-01-01 00:10:20.725, 0.929, -0.018, 0.361, -3.784, -7.202, 2.93, 0.862, -68.434, -160.021, -28.133, -10.373, -7.227, 32.55, -0.14743, 0.55063, 0.10489, 0.81485,
 11:43:33.037,f6:90:cc:01:6d:25, 2015-01-01 00:10:20.725, 0.932, -0.014, 0.356, -2.258, -5.493, 1.282, 0.692, -68.566, -159.901, -28.133, -10.373, -7.227, 32.55, -0.14743, 0.55063, 0.10489, 0.81485,
 11:43:33.057,ed:40:fe:65:30:6c, 2015-01-01 00:10:23.895, 0.457, -0.009, 0.881, 11.108, -9.399, 2.502, 1.071, -27.197, -135.599, -14.340, -9.060, -9.147, 26.86, 0.37, -0.20419, -0.0889, -0.90189,
 11:43:33.057,ed:40:fe:65:30:6c, 2015-01-01 00:10:23.895, 0.471, 0.009, 0.879, 10.62, -4.456, 3.052, 1.258, -27.323, -135.538, -14.340, -9.060, -9.147, 26.86, 0.37, -0.20419, -0.0889, -0.90189,
 11:43:33.077,ed:35:33:d3:6c:f8, 2015-01-01 00:10:24.880, 0.501, 0.003, 0.828, 10.742, -7.446, 2.319, 1.895, -30.267, -157.648, -14.780, -10.253, -17.567, 31.1, -0.19037, 0.25168, 0.0636, 0.94672,
 11:43:33.077,ed:35:33:d3:6c:f8, 2015-01-01 00:10:24.880, 0.513, 0.016, 0.828, 11.292, -3.601, 3.662, 2.076, -30.355, -157.582, -14.780, -10.253, -17.567, 31.1, -0.19037, 0.25168, 0.0636, 0.94672,
 11:43:33.079,e3:ca:2d:fd:e0:8c, 2015-01-01 00:10:25.705, 1.006, -0.01, 0.263, -6.47, 0, 2.991, -0.786, -76.311, 156.566, -25.647, -9.720, -10.813, 28.65, -0.16696, -0.60242, 0.1279, -0.7699,
 11:43:33.079,e3:ca:2d:fd:e0:8c, 2015-01-01 00:10:25.705, 1.001, -0.008, 0.253, -3.723, 1.404, 1.587, -1.11, -76.3, 156.813, -25.647, -9.720, -10.813, 28.65, -0.16696, -0.60242, 0.1279, -0.7699,
 11:43:33.081,f6:90:cc:01:6d:25, 2015-01-01 00:10:21.035, 0.931, -0.007, 0.359, -0.488, -3.296, 0.061, 0.615, -68.659, -159.862, -28.133, -10.373, -7.227, 32.55, -0.14743, 0.55063, 0.10489, 0.81485,
 11:43:33.081,f6:90:cc:01:6d:25, 2015-01-01 00:10:21.035, 0.925, -0.004, 0.356, 0.793, -1.404, -0.488, 0.621, -68.708, -159.895, -28.133, -10.373, -7.227, 32.55, -0.14743, 0.55063, 0.10489, 0.81485,
 11:43:33.099,ed:35:33:d3:6c:f8, 2015-01-01 00:10:25.235, 0.514, 0.027, 0.833, 10.376, -0.732, 4.089, 2.241, -30.383, -157.5, -14.780, -10.253, -17.567, 31.1, -0.19037, 0.25168, 0.0636, 0.94672,
 11:43:33.099,ed:35:33:d3:6c:f8, 2015-01-01 00:10:25.235, 0.512, 0.037, 0.837, 10.437, -0.244, 4.456, 2.39, -30.394, -157.401, -14.780, -10.253, -17.567, 31.1, -0.19037, 0.25168, 0.0636, 0.94672,
 11:43:33.101,e3:ca:2d:fd:e0:8c, 2015-01-01 00:10:25.705, 0.998, -0.007, 0.25, 0.183, 0.61, 0.427, -1.258, -76.273, 156.951, -25.553, -9.640, -10.633, 28.65, -0.16696, -0.60242, 0.1279, -0.7699,
 11:43:33.101,e3:ca:2d:fd:e0:8c, 2015-01-01 00:10:25.705, 0.993, -0.013, 0.248, 2.38, 0.122, -0.122, -1.258, -76.262, 156.989, -25.553, -9.640, -10.633, 28.65, -0.16696, -0.60242, 0.1279, -0.7699,
 11:43:33.125,ed:40:fe:65:30:6c, 2015-01-01 00:10:23.895, 0.466, 0.019, 0.876, 10.132, -1.953, 3.052, 1.428, -27.378, -135.467, -14.340, -9.060, -9.147, 26.86, 0.37, -0.20419, -0.0889, -0.90189,
 11:43:33.125,ed:40:fe:65:30:6c, 2015-01-01 00:10:23.895, 0.464, 0.029, 0.88, 10.193, -0.183, 2.686, 1.593, -27.389, -135.396, -14.340, -9.060, -9.147, 26.86, 0.37, -0.20419, -0.0889, -0.90189,
 11:43:33.126,f6:90:cc:01:6d:25, 2015-01-01 00:10:21.035, 0.917, -0.001, 0.347, 0.549, -0.366, -0.549, 0.659, -68.73, -159.961, -28.133, -10.373, -7.227, 32.55, -0.14743, 0.55063, 0.10489, 0.81485,
 11:43:33.126,f6:90:cc:01:6d:25, 2015-01-01 00:10:21.035, 0.915, 0, 0.352, 0, 0.183, -0.427, 0.692, -68.73, -160.016, -28.133, -10.373, -7.227, 32.55, -0.14743, 0.55063, 0.10489, 0.81485,
 11:43:33.145,ed:35:33:d3:6c:f8, 2015-01-01 00:10:25.235, 0.51, 0.041, 0.84, 10.681, 0.854, 5.188, 2.538, -30.388, -157.291, -14.780, -10.253, -17.567, 31.1, -0.19037, 0.25168, 0.0636, 0.94672,
 11:43:33.145,ed:35:33:d3:6c:f8, 2015-01-01 00:10:25.235, 0.513, 0.034, 0.847, 9.277, 1.343, 5.188, 2.664, -30.372, -157.176, -14.780, -10.253, -17.567, 31.1, -0.19037, 0.25168, 0.0636, 0.94672,
 11:43:33.147,ed:40:fe:65:30:6c, 2015-01-01 00:10:23.895, 0.464, 0.029, 0.878, 9.644, 0.488, 2.319, 1.758, -27.383, -135.335, -15.140, -9.607, -8.733, 26.86, 0.37, -0.20419, -0.0889, -0.90189,
 11:43:33.147,ed:40:fe:65:30:6c, 2015-01-01 00:10:23.895, 0.464, 0.025, 0.878, 7.751, 0.366, 1.465, 1.901, -27.372, -135.286, -15.140, -9.607, -8.733, 26.86, 0.37, -0.20419, -0.0889, -0.90189,
 11:43:33.147,e3:ca:2d:fd:e0:8c, 2015-01-01 00:10:25.705, 0.986, -0.017, 0.248, 2.136, 1.526, 0.061, -1.203, -76.251, 156.978, -25.553, -9.640, -10.633, 28.65, -0.16696, -0.60242, 0.1279, -0.7699,
 11:43:33.148,e3:ca:2d:fd:e0:8c, 2015-01-01 00:10:25.705, 0.984, -0.015, 0.247, 0, 2.563, 0.427, -1.187, -76.212, 157, -25.553, -9.640, -10.633, 28.65, -0.16696, -0.60242, 0.1279, -0.7699,
 11:43:33.149,f6:90:cc:01:6d:25, 2015-01-01 00:10:21.035, 0.915, -0.001, 0.355, -0.854, 0.366, -0.488, 0.709, -68.73, -160.071, -28.133, -10.373, -7.227, 32.55, -0.14743, 0.55063, 0.10489, 0.81485,
 11:43:33.149,f6:90:cc:01:6d:25, 2015-01-01 00:10:21.035, 0.919, -0.004, 0.356, -1.648, 0.366, -0.732, 0.709, -68.719, -160.131, -28.133, -10.373, -7.227, 32.55, -0.14743, 0.55063, 0.10489, 0.81485,
 11:43:33.167,ed:35:33:d3:6c:f8, 2015-01-01 00:10:25.235, 0.511, 0.025, 0.843, 7.812, 1.038, 4.822, 2.758, -30.361, -157.072, -14.780, -10.253, -17.567, 31.1, -0.19037, 0.25168, 0.0636, 0.94672,
 11:43:33.168,ed:35:33:d3:6c:f8, 2015-01-01 00:10:25.235, 0.51, 0.021, 0.838, 7.629, 1.282, 4.395, 2.851, -30.344, -156.978, -14.780, -10.253, -17.567, 31.1, -0.19037, 0.25168, 0.0636, 0.94672,
 11:43:33.170,e3:ca:2d:fd:e0:8c, 2015-01-01 00:10:25.705, 0.987, -0.014, 0.241, -1.282, 2.808, 0.366, -1.23, -76.157, 157.039, -25.553, -9.640, -10.633, 28.65, -0.16309, -0.60275, 0.13098, -0.76993,
 11:43:33.170,e3:ca:2d:fd:e0:8c, 2015-01-01 00:10:25.705, 0.995, -0.017, 0.243, -1.099, 2.014, 0, -1.285, -76.102, 157.061, -25.553, -9.640, -10.633, 28.65, -0.16309, -0.60275, 0.13098, -0.76993,
 11:43:33.192,ed:40:fe:65:30:6c, 2015-01-01 00:10:23.895, 0.464, 0.015, 0.875, 7.08, -0.305, 0.488, 2.032, -27.372, -135.275, -15.140, -9.607, -8.733, 26.86, 0.37, -0.20419, -0.0889, -0.90189,
 11:43:33.192,ed:40:fe:65:30:6c, 2015-01-01 00:10:23.895, 0.463, 0.017, 0.878, 7.08, -0.183, -0.244, 2.164, -27.372, -135.286, -15.140, -9.607, -8.733, 26.86, 0.37, -0.20419, -0.0889, -0.90189,
 11:43:33.193,f6:90:cc:01:6d:25, 2015-01-01 00:10:21.035, 0.927, -0.009, 0.358, -2.075, 0.793, -1.099, 0.703, -68.708, -160.203, -28.133, -10.373, -7.227, 32.55, -0.14743, 0.55063, 0.10489, 0.81485,
 11:43:33.193,f6:90:cc:01:6d:25, 2015-01-01 00:10:21.035, 0.931, -0.015, 0.354, -2.136, 1.465, -1.404, 0.714, -68.692, -160.296, -28.133, -10.373, -7.227, 32.55, -0.14743, 0.55063, 0.10489, 0.81485,
 11:43:33.215,ed:40:fe:65:30:6c, 2015-01-01 00:10:23.895, 0.466, 0.022, 0.882, 6.226, 1.343, -0.793, 2.285, -27.361, -135.313, -15.140, -9.607, -8.733, 26.86, 0.37363, -0.21173, -0.10721, -0.89664,
 11:43:33.215,ed:40:fe:65:30:6c, 2015-01-01 00:10:23.895, 0.462, 0.024, 0.887, 5.859, 3.845, -0.977, 2.401, -27.312, -135.352, -15.140, -9.607, -8.733, 26.86, 0.37363, -0.21173, -0.10721, -0.89664,
 11:43:33.215,ed:35:33:d3:6c:f8, 2015-01-01 00:10:25.235, 0.506, 0.026, 0.836, 7.263, 3.906, 3.845, 2.939, -30.289, -156.929, -14.780, -10.253, -17.567, 31.1, -0.19037, 0.25168, 0.0636, 0.94672,
 11:43:33.215,ed:35:33:d3:6c:f8, 2015-01-01 00:10:25.235, 0.505, 0.03, 0.842, 7.08, 6.47, 3.235, 3.021, -30.185, -156.912, -14.780, -10.253, -17.567, 31.1, -0.19037, 0.25168, 0.0636, 0.94672,
 11:43:33.237,e3:ca:2d:fd:e0:8c, 2015-01-01 00:10:25.705, 1, -0.023, 0.25, -0.671, 1.526, -0.183, -1.313, -76.064, 157.055, -25.553, -9.640, -10.633, 28.65, -0.16309, -0.60275, 0.13098, -0.76993,
 11:43:33.239,e3:ca:2d:fd:e0:8c, 2015-01-01 00:10:25.705, 1, -0.029, 0.254, -0.854, 2.258, -0.244, -1.329, -76.031, 157.05, -25.553, -9.640, -10.633, 28.65, -0.16309, -0.60275, 0.13098, -0.76993,
 11:43:33.240,f6:90:cc:01:6d:25, 2015-01-01 00:10:21.035, 0.925, -0.02, 0.354, -2.014, 2.38, -1.709, 0.731, -68.659, -160.411, -28.133, -10.373, -7.227, 32.55, -0.14743, 0.55063, 0.10489, 0.81485,
 11:43:33.240,f6:90:cc:01:6d:25, 2015-01-01 00:10:21.035, 0.921, -0.022, 0.358, -1.404, 3.113, -2.075, 0.758, -68.61, -160.51, -28.133, -10.373, -7.227, 32.55, -0.14743, 0.55063, 0.10489, 0.81485,
 11:43:33.258,ed:35:33:d3:6c:f8, 2015-01-01 00:10:25.235, 0.501, 0.022, 0.859, 6.958, 6.897, 1.038, 3.126, -30.064, -156.923, -14.780, -10.253, -17.567, 31.1, -0.19037, 0.25168, 0.0636, 0.94672,
 11:43:33.258,ed:35:33:d3:6c:f8, 2015-01-01 00:10:25.235, 0.5, 0.012, 0.868, 4.456, 5.737, -2.563, 3.224, -29.949, -157.011, -14.780, -10.253, -17.567, 31.1, -0.19037, 0.25168, 0.0636, 0.94672,
 11:43:33.258,e3:ca:2d:fd:e0:8c, 2015-01-01 00:10:26.060, 0.99, -0.027, 0.252, -1.038, 2.991, -0.549, -1.346, -75.981, 157.033, -25.553, -9.640, -10.633, 28.65, -0.16309, -0.60275, 0.13098, -0.76993,
 11:43:33.258,e3:ca:2d:fd:e0:8c, 2015-01-01 00:10:26.060, 0.99, -0.026, 0.244, -0.671, 2.136, -1.465, -1.329, -75.927, 156.989, -25.553, -9.640, -10.633, 28.65, -0.16309, -0.60275, 0.13098, -0.76993,
 11:43:33.259,ed:40:fe:65:30:6c, 2015-01-01 00:10:23.895, 0.457, 0.02, 0.898, 5.615, 5.31, -1.709, 2.516, -27.224, -135.401, -15.140, -9.607, -8.733, 26.86, 0.37363, -0.21173, -0.10721, -0.89664,
 11:43:33.259,ed:40:fe:65:30:6c, 2015-01-01 00:10:23.895, 0.453, 0.012, 0.896, 3.418, 5.737, -3.479, 2.615, -27.114, -135.472, -15.140, -9.607, -8.733, 26.86, 0.37363, -0.21173, -0.10721, -0.89664,
 11:43:33.281,e3:ca:2d:fd:e0:8c, 2015-01-01 00:10:26.060, 0.997, -0.025, 0.243, 0.061, 1.343, -2.38, -1.241, -75.888, 156.896, -25.553, -9.640, -10.633, 28.65, -0.16309, -0.60275, 0.13098, -0.76993,
 11:43:33.281,e3:ca:2d:fd:e0:8c, 2015-01-01 00:10:26.060, 1, -0.028, 0.244, 0.549, 1.282, -3.113, -1.077, -75.866, 156.714, -25.553, -9.640, -10.633, 28.65, -0.16309, -0.60275, 0.13098, -0.76993,
 11:43:33.283,f6:90:cc:01:6d:25, 2015-01-01 00:10:21.035, 0.925, -0.023, 0.36, -0.977, 3.235, -2.747, 0.818, -68.549, -160.62, -28.133, -10.373, -7.227, 32.55, -0.14743, 0.55063, 0.10489, 0.81485,
 11:43:33.283,f6:90:cc:01:6d:25, 2015-01-01 00:10:21.035, 0.93, -0.025, 0.355, -0.122, 3.174, -3.723, 0.917, -68.489, -160.768, -28.133, -10.373, -7.227, 32.55, -0.14743, 0.55063, 0.10489, 0.81485,
 11:43:33.304,ed:35:33:d3:6c:f8, 2015-01-01 00:10:25.235, 0.501, 0.021, 0.87, 1.953, 4.944, -4.395, 3.296, -29.85, -157.17, -14.780, -10.253, -17.567, 31.1, -0.19037, 0.25168, 0.0636, 0.94672,
 11:43:33.304,ed:35:33:d3:6c:f8, 2015-01-01 00:10:25.235, 0.5, 0.049, 0.866, -0.183, 5.859, -3.906, 3.329, -29.745, -157.335, -14.780, -10.253, -17.567, 31.1, -0.19037, 0.25168, 0.0636, 0.94672,
 11:43:33.305,ed:40:fe:65:30:6c, 2015-01-01 00:10:23.895, 0.456, 0.023, 0.902, 1.587, 5.371, -3.54, 2.681, -27.004, -135.566, -15.140, -9.607, -8.733, 26.86, 0.37363, -0.21173, -0.10721, -0.89664,
 11:43:33.305,ed:40:fe:65:30:6c, 2015-01-01 00:10:23.895, 0.456, 0.045, 0.902, 0, 6.348, -1.953, 2.703, -26.889, -135.632, -15.140, -9.607, -8.733, 26.86, 0.37363, -0.21173, -0.10721, -0.89664,
 11:43:33.326,e3:ca:2d:fd:e0:8c, 2015-01-01 00:10:26.060, 0.995, -0.029, 0.241, 1.526, 1.282, -3.479, -0.851, -75.844, 156.484, -25.553, -9.640, -10.633, 28.65, -0.16309, -0.60275, 0.13098, -0.76993,
 11:43:33.326,e3:ca:2d:fd:e0:8c, 2015-01-01 00:10:26.060, 0.991, -0.023, 0.241, 2.747, 0.854, -3.784, -0.588, -75.822, 156.22, -25.553, -9.640, -10.633, 28.65, -0.16309, -0.60275, 0.13098, -0.76993,
 11:43:33.330,f6:90:cc:01:6d:25, 2015-01-01 00:10:21.035, 0.929, -0.022, 0.35, 1.587, 3.174, -4.395, 1.077, -68.428, -160.944, -28.020, -10.093, -6.940, 32.55, -0.14743, 0.55063, 0.10489, 0.81485,
 11:43:33.330,f6:90:cc:01:6d:25, 2015-01-01 00:10:21.035, 0.923, -0.018, 0.357, 3.235, 3.235, -4.639, 1.296, -68.368, -161.153, -28.020, -10.093, -6.940, 32.55, -0.14743, 0.55063, 0.10489, 0.81485,
 11:43:33.351,ed:40:fe:65:30:6c, 2015-01-01 00:10:24.300, 0.447, 0.051, 0.904, -1.465, 7.385, -0.671, 2.686, -26.752, -135.681, -15.140, -9.607, -8.733, 26.86, 0.37363, -0.21173, -0.10721, -0.89664,
 11:43:33.351,ed:40:fe:65:30:6c, 2015-01-01 00:10:24.300, 0.439, 0.049, 0.907, -2.197, 6.653, -0.183, 2.642, -26.614, -135.725, -15.140, -9.607, -8.733, 26.86, 0.37363, -0.21173, -0.10721, -0.89664,
 11:43:33.354,f6:90:cc:01:6d:25, 2015-01-01 00:10:21.035, 0.919, -0.001, 0.363, 3.906, 3.235, -4.456, 1.544, -68.307, -161.373, -28.020, -10.093, -6.940, 32.55, -0.1413, 0.552, 0.10202, 0.81534,
 11:43:33.354,f6:90:cc:01:6d:25, 2015-01-01 00:10:21.035, 0.918, 0.008, 0.36, 3.906, 3.052, -3.906, 1.785, -68.253, -161.565, -28.020, -10.093, -6.940, 32.55, -0.1413, 0.552, 0.10202, 0.81534,
 11:43:33.370,ed:35:33:d3:6c:f8, 2015-01-01 00:10:25.235, 0.5, 0.062, 0.868, -1.77, 7.019, -3.357, 3.318, -29.614, -157.478, -14.247, -10.867, -17.887, 31.1, -0.19037, 0.25168, 0.0636, 0.94672,
 11:43:33.370,ed:35:33:d3:6c:f8, 2015-01-01 00:10:25.235, 0.486, 0.058, 0.879, -2.747, 6.042, -2.625, 3.285, -29.493, -157.626, -14.247, -10.867, -17.887, 31.1, -0.19037, 0.25168, 0.0636, 0.94672,
 11:43:33.371,e3:ca:2d:fd:e0:8c, 2015-01-01 00:10:26.060, 0.99, -0.014, 0.244, 3.54, 0, -3.906, -0.28, -75.817, 155.912, -25.553, -9.640, -10.633, 28.65, -0.16309, -0.60275, 0.13098, -0.76993,
 11:43:33.371,e3:ca:2d:fd:e0:8c, 2015-01-01 00:10:26.060, 0.99, -0.009, 0.245, 3.479, 0, -3.967, 0.038, -75.822, 155.616, -25.553, -9.640, -10.633, 28.65, -0.16309, -0.60275, 0.13098, -0.76993,
 11:43:33.372,ed:40:fe:65:30:6c, 2015-01-01 00:10:24.300, 0.449, 0.061, 0.901, -1.282, 5.92, 0.793, 2.598, -26.494, -135.753, -15.140, -9.607, -8.733, 26.86, 0.37363, -0.21173, -0.10721, -0.89664,
 11:43:33.372,ed:40:fe:65:30:6c, 2015-01-01 00:10:24.300, 0.451, 0.059, 0.889, -1.038, 5.432, 1.77, 2.554, -26.389, -135.764, -15.140, -9.607, -8.733, 26.86, 0.37363, -0.21173, -0.10721, -0.89664,
 11:43:33.394,ed:35:33:d3:6c:f8, 2015-01-01 00:10:25.235, 0.491, 0.068, 0.875, -2.686, 4.272, -1.404, 3.241, -29.405, -157.731, -14.247, -10.867, -17.887, 31.1, -0.19354, 0.2435, 0.07568, 0.94733,
 11:43:33.394,ed:35:33:d3:6c:f8, 2015-01-01 00:10:25.235, 0.5, 0.073, 0.863, -1.587, 4.089, -0.793, 3.208, -29.328, -157.797, -14.247, -10.867, -17.887, 31.1, -0.19354, 0.2435, 0.07568, 0.94733,
 11:43:33.396,f6:90:cc:01:6d:25, 2015-01-01 00:10:21.035, 0.916, 0.011, 0.355, 3.662, 2.869, -3.54, 2.01, -68.198, -161.719, -28.020, -10.093, -6.940, 32.55, -0.1413, 0.552, 0.10202, 0.81534,
 11:43:33.396,f6:90:cc:01:6d:25, 2015-01-01 00:10:21.035, 0.91, 0.021, 0.359, 3.662, 2.991, -3.357, 2.214, -68.143, -161.856, -28.020, -10.093, -6.940, 32.55, -0.1413, 0.552, 0.10202, 0.81534,
 11:43:33.416,e3:ca:2d:fd:e0:8c, 2015-01-01 00:10:26.060, 0.988, -0.006, 0.245, 2.747, 0.061, -3.784, 0.352, -75.822, 155.352, -25.553, -9.640, -10.633, 28.65, -0.16309, -0.60275, 0.13098, -0.76993,
 11:43:33.416,e3:ca:2d:fd:e0:8c, 2015-01-01 00:10:26.060, 0.986, 0.001, 0.248, 2.563, 0.488, -3.54, 0.643, -75.822, 155.072, -25.553, -9.640, -10.633, 28.65, -0.16309, -0.60275, 0.13098, -0.76993,
 11:43:33.417,ed:40:fe:65:30:6c, 2015-01-01 00:10:24.300, 0.44, 0.045, 0.882, -1.648, 4.761, 2.258, 2.51, -26.29, -135.758, -15.140, -9.607, -8.733, 26.86, 0.37363, -0.21173, -0.10721, -0.89664,
 11:43:33.417,ed:40:fe:65:30:6c, 2015-01-01 00:10:24.300, 0.432, 0.043, 0.889, -0.183, 5.127, 1.587, 2.483, -26.197, -135.758, -15.140, -9.607, -8.733, 26.86, 0.37363, -0.21173, -0.10721, -0.89664,
 11:43:33.439,ed:35:33:d3:6c:f8, 2015-01-01 00:10:25.235, 0.491, 0.06, 0.852, -2.014, 3.662, -0.427, 3.175, -29.262, -157.857, -14.247, -10.867, -17.887, 31.1, -0.19354, 0.2435, 0.07568, 0.94733,
 11:43:33.440,ed:35:33:d3:6c:f8, 2015-01-01 00:10:25.235, 0.481, 0.05, 0.848, -1.465, 3.784, 0.671, 3.142, -29.196, -157.906, -14.247, -10.867, -17.887, 31.1, -0.19354, 0.2435, 0.07568, 0.94733,
 11:43:33.441,f6:90:cc:01:6d:25, 2015-01-01 00:10:21.370, 0.908, 0.035, 0.366, 2.93, 3.174, -2.991, 2.401, -68.088, -161.966, -28.020, -10.093, -6.940, 32.55, -0.1413, 0.552, 0.10202, 0.81534,
 11:43:33.441,f6:90:cc:01:6d:25, 2015-01-01 00:10:21.370, 0.909, 0.043, 0.37, 0.977, 3.174, -2.686, 2.56, -68.027, -162.059, -28.020, -10.093, -6.940, 32.55, -0.1413, 0.552, 0.10202, 0.81534,
 11:43:33.460,ed:35:33:d3:6c:f8, 2015-01-01 00:10:25.595, 0.475, 0.05, 0.862, 0.671, 3.967, 0.671, 3.137, -29.13, -157.939, -14.247, -10.867, -17.887, 31.1, -0.19354, 0.2435, 0.07568, 0.94733,
 11:43:33.460,ed:35:33:d3:6c:f8, 2015-01-01 00:10:25.595, 0.478, 0.056, 0.867, -1.099, 3.479, -0.977, 3.131, -29.064, -157.994, -14.247, -10.867, -17.887, 31.1, -0.19354, 0.2435, 0.07568, 0.94733,
 11:43:33.461,e3:ca:2d:fd:e0:8c, 2015-01-01 00:10:26.060, 0.985, 0.012, 0.25, 2.319, 0.916, -3.174, 0.912, -75.811, 154.852, -25.553, -9.640, -10.633, 28.65, -0.16309, -0.60275, 0.13098, -0.76993,
 11:43:33.461,e3:ca:2d:fd:e0:8c, 2015-01-01 00:10:26.060, 0.987, 0.02, 0.251, 0.977, 1.343, -2.747, 1.143, -75.789, 154.655, -25.553, -9.640, -10.633, 28.65, -0.16309, -0.60275, 0.13098, -0.76993,
 11:43:33.463,ed:40:fe:65:30:6c, 2015-01-01 00:10:24.300, 0.427, 0.052, 0.894, 0.366, 4.7, -0.061, 2.483, -26.109, -135.797, -15.140, -9.607, -8.733, 26.86, 0.37363, -0.21173, -0.10721, -0.89664,
 11:43:33.463,ed:40:fe:65:30:6c, 2015-01-01 00:10:24.300, 0.433, 0.061, 0.896, -1.343, 4.028, -1.587, 2.483, -26.027, -135.868, -15.140, -9.607, -8.733, 26.86, 0.37363, -0.21173, -0.10721, -0.89664,
 11:43:33.483,e3:ca:2d:fd:e0:8c, 2015-01-01 00:10:26.060, 0.991, 0.021, 0.255, -1.16, 1.587, -2.258, 1.313, -75.762, 154.501, -25.480, -9.813, -10.793, 28.65, -0.16309, -0.60275, 0.13098, -0.76993,
 11:43:33.485,e3:ca:2d:fd:e0:8c, 2015-01-01 00:10:26.060, 0.994, 0.017, 0.256, -2.38, 1.038, -1.77, 1.423, -75.734, 154.369, -25.480, -9.813, -10.793, 28.65, -0.16309, -0.60275, 0.13098, -0.76993,
 11:43:33.488,f6:90:cc:01:6d:25, 2015-01-01 00:10:21.370, 0.915, 0.045, 0.373, -0.854, 3.113, -2.502, 2.675, -67.967, -162.142, -28.020, -10.093, -6.940, 32.55, -0.1413, 0.552, 0.10202, 0.81534,
 11:43:33.488,f6:90:cc:01:6d:25, 2015-01-01 00:10:21.370, 0.919, 0.037, 0.376, -1.282, 3.174, -2.441, 2.769, -67.906, -162.224, -28.020, -10.093, -6.940, 32.55, -0.1413, 0.552, 0.10202, 0.81534,
 11:43:33.505,ed:35:33:d3:6c:f8, 2015-01-01 00:10:25.595, 0.488, 0.073, 0.874, -2.93, 2.808, -2.075, 3.104, -29.009, -158.055, -14.247, -10.867, -17.887, 31.1, -0.19354, 0.2435, 0.07568, 0.94733,
 11:43:33.505,ed:35:33:d3:6c:f8, 2015-01-01 00:10:25.595, 0.484, 0.085, 0.875, -3.296, 1.953, -2.319, 3.076, -28.965, -158.115, -14.247, -10.867, -17.887, 31.1, -0.19354, 0.2435, 0.07568, 0.94733,
 11:43:33.507,ed:40:fe:65:30:6c, 2015-01-01 00:10:24.300, 0.439, 0.071, 0.906, -1.648, 3.601, -1.953, 2.472, -25.955, -135.95, -15.140, -9.607, -8.733, 26.86, 0.37363, -0.21173, -0.10721, -0.89664,
 11:43:33.507,ed:40:fe:65:30:6c, 2015-01-01 00:10:24.300, 0.432, 0.077, 0.905, -1.343, 3.235, -1.526, 2.472, -25.889, -136.027, -15.140, -9.607, -8.733, 26.86, 0.37363, -0.21173, -0.10721, -0.89664,
 11:43:33.530,e3:ca:2d:fd:e0:8c, 2015-01-01 00:10:26.060, 0.991, 0.006, 0.258, -1.953, 0.732, -1.221, 1.489, -75.718, 154.286, -25.480, -9.813, -10.793, 28.65, -0.16309, -0.60275, 0.13098, -0.76993,
 11:43:33.530,e3:ca:2d:fd:e0:8c, 2015-01-01 00:10:26.060, 0.988, 0.003, 0.258, -0.488, 0.671, -0.854, 1.538, -75.707, 154.248, -25.480, -9.813, -10.793, 28.65, -0.16309, -0.60275, 0.13098, -0.76993,
 11:43:33.530,f6:90:cc:01:6d:25, 2015-01-01 00:10:21.370, 0.917, 0.031, 0.378, -0.671, 3.418, -2.197, 2.862, -67.841, -162.318, -28.020, -10.093, -6.940, 32.55, -0.1413, 0.552, 0.10202, 0.81534,
 11:43:33.530,f6:90:cc:01:6d:25, 2015-01-01 00:10:21.370, 0.913, 0.022, 0.383, 0, 3.174, -1.892, 2.955, -67.78, -162.427, -28.020, -10.093, -6.940, 32.55, -0.1413, 0.552, 0.10202, 0.81534,
 11:43:33.550,ed:35:33:d3:6c:f8, 2015-01-01 00:10:25.595, 0.483, 0.082, 0.881, -2.502, 2.075, -1.587, 3.049, -28.932, -158.154, -14.247, -10.867, -17.887, 31.1, -0.19354, 0.2435, 0.07568, 0.94733,
 11:43:33.550,ed:35:33:d3:6c:f8, 2015-01-01 00:10:25.595, 0.474, 0.065, 0.887, -0.916, 1.465, 0.122, 3.043, -28.9, -158.159, -14.247, -10.867, -17.887, 31.1, -0.19354, 0.2435, 0.07568, 0.94733,
 11:43:33.554,f6:90:cc:01:6d:25, 2015-01-01 00:10:21.370, 0.906, 0.02, 0.381, 0.61, 2.808, -1.831, 3.054, -67.72, -162.526, -28.020, -10.093, -6.940, 32.55, -0.1413, 0.552, 0.10202, 0.81534,
 11:43:33.554,f6:90:cc:01:6d:25, 2015-01-01 00:10:21.370, 0.901, 0.025, 0.378, 1.343, 2.502, -1.526, 3.153, -67.665, -162.609, -28.020, -10.093, -6.940, 32.55, -0.1413, 0.552, 0.10202, 0.81534,
 11:43:33.573,ed:35:33:d3:6c:f8, 2015-01-01 00:10:25.595, 0.465, 0.056, 0.879, 0.244, -2.075, 1.953, 3.038, -28.927, -158.137, -14.247, -10.867, -17.887, 31.1, -0.19354, 0.2435, 0.07568, 0.94733,
 11:43:33.573,ed:35:33:d3:6c:f8, 2015-01-01 00:10:25.595, 0.465, 0.059, 0.858, -1.221, -1.038, 1.587, 3.021, -28.954, -158.104, -14.247, -10.867, -17.887, 31.1, -0.19354, 0.2435, 0.07568, 0.94733,
 11:43:33.576,ed:40:fe:65:30:6c, 2015-01-01 00:10:24.300, 0.428, 0.067, 0.918, -1.099, 3.052, -0.977, 2.472, -25.829, -136.088, -14.253, -10.373, -9.027, 26.86, 0.37363, -0.21173, -0.10721, -0.89664,
 11:43:33.576,ed:40:fe:65:30:6c, 2015-01-01 00:10:24.300, 0.419, 0.049, 0.91, 0.061, 1.587, -0.061, 2.483, -25.796, -136.121, -14.253, -10.373, -9.027, 26.86, 0.37363, -0.21173, -0.10721, -0.89664,
 11:43:33.596,e3:ca:2d:fd:e0:8c, 2015-01-01 00:10:26.060, 0.982, 0.001, 0.258, 0.916, 0.793, -0.732, 1.593, -75.69, 154.204, -25.480, -9.813, -10.793, 28.65, -0.16788, -0.60049, 0.1264, -0.77145,
 11:43:33.596,e3:ca:2d:fd:e0:8c, 2015-01-01 00:10:26.060, 0.979, 0.004, 0.258, 1.831, 0.732, -0.732, 1.664, -75.674, 154.177, -25.480, -9.813, -10.793, 28.65, -0.16788, -0.60049, 0.1264, -0.77145,
 11:43:33.598,f6:90:cc:01:6d:25, 2015-01-01 00:10:21.370, 0.902, 0.036, 0.378, 1.099, 2.441, -0.916, 3.235, -67.615, -162.664, -28.020, -10.093, -6.940, 32.55, -0.1413, 0.552, 0.10202, 0.81534,
 11:43:33.598,f6:90:cc:01:6d:25, 2015-01-01 00:10:21.370, 0.909, 0.037, 0.381, 0.244, 2.136, -0.366, 3.279, -67.566, -162.697, -28.020, -10.093, -6.940, 32.55, -0.1413, 0.552, 0.10202, 0.81534,
 11:43:33.598,ed:40:fe:65:30:6c, 2015-01-01 00:10:24.300, 0.415, 0.049, 0.9, 0.671, -0.305, 0.549, 2.505, -25.79, -136.143, -14.253, -10.373, -9.027, 26.86, 0.36841, -0.19901, -0.10312, -0.90219,
 11:43:33.598,ed:40:fe:65:30:6c, 2015-01-01 00:10:24.300, 0.419, 0.071, 0.9, -1.099, 0.549, -0.488, 2.505, -25.779, -136.181, -14.253, -10.373, -9.027, 26.86, 0.36841, -0.19901, -0.10312, -0.90219,
 11:43:33.618,ed:35:33:d3:6c:f8, 2015-01-01 00:10:25.595, 0.473, 0.079, 0.87, -3.967, 1.831, -0.244, 2.966, -28.932, -158.11, -14.247, -10.867, -17.887, 31.1, -0.19354, 0.2435, 0.07568, 0.94733,
 11:43:33.618,ed:35:33:d3:6c:f8, 2015-01-01 00:10:25.595, 0.474, 0.069, 0.881, -4.272, 1.953, -1.404, 2.911, -28.889, -158.143, -14.247, -10.867, -17.887, 31.1, -0.19354, 0.2435, 0.07568, 0.94733,
 11:43:33.619,e3:ca:2d:fd:e0:8c, 2015-01-01 00:10:26.440, 0.982, 0.01, 0.255, 1.587, 1.038, -0.366, 1.73, -75.652, 154.166, -25.480, -9.813, -10.793, 28.65, -0.16788, -0.60049, 0.1264, -0.77145,
 11:43:33.619,e3:ca:2d:fd:e0:8c, 2015-01-01 00:10:26.440, 0.989, 0.012, 0.253, 0.61, 0.671, 0.122, 1.752, -75.635, 154.182, -25.480, -9.813, -10.793, 28.65, -0.16788, -0.60049, 0.1264, -0.77145,
 11:43:33.641,e3:ca:2d:fd:e0:8c, 2015-01-01 00:10:26.440, 0.991, 0.008, 0.253, -0.549, 0, 0.549, 1.725, -75.624, 154.221, -25.480, -9.813, -10.793, 28.65, -0.16788, -0.60049, 0.1264, -0.77145,
 11:43:33.641,e3:ca:2d:fd:e0:8c, 2015-01-01 00:10:26.440, 0.987, 0, 0.251, -1.465, 0.244, 0.732, 1.653, -75.624, 154.276, -25.480, -9.813, -10.793, 28.65, -0.16788, -0.60049, 0.1264, -0.77145,
 11:43:33.643,ed:40:fe:65:30:6c, 2015-01-01 00:10:24.300, 0.423, 0.08, 0.907, -3.174, 1.16, -1.465, 2.477, -25.757, -136.241, -14.253, -10.373, -9.027, 26.86, 0.36841, -0.19901, -0.10312, -0.90219,
 11:43:33.643,ed:40:fe:65:30:6c, 2015-01-01 00:10:24.300, 0.422, 0.058, 0.913, -2.93, 0.488, -1.709, 2.455, -25.735, -136.313, -14.253, -10.373, -9.027, 26.86, 0.36841, -0.19901, -0.10312, -0.90219,
 11:43:33.644,f6:90:cc:01:6d:25, 2015-01-01 00:10:21.370, 0.914, 0.033, 0.384, -0.488, 1.709, -0.183, 3.296, -67.527, -162.702, -27.907, -10.847, -7.393, 32.55, -0.1413, 0.552, 0.10202, 0.81534,
 11:43:33.644,f6:90:cc:01:6d:25, 2015-01-01 00:10:21.370, 0.911, 0.027, 0.378, -1.038, 1.526, 0, 3.296, -67.495, -162.708, -27.907, -10.847, -7.393, 32.55, -0.1413, 0.552, 0.10202, 0.81534,
 11:43:33.663,ed:35:33:d3:6c:f8, 2015-01-01 00:10:25.595, 0.473, 0.049, 0.882, -2.991, 0.488, -1.953, 2.878, -28.867, -158.187, -14.247, -10.867, -17.887, 31.1, -0.19354, 0.2435, 0.07568, 0.94733,
 11:43:33.663,ed:35:33:d3:6c:f8, 2015-01-01 00:10:25.595, 0.478, 0.056, 0.876, -3.296, -0.244, -1.648, 2.851, -28.861, -158.225, -14.247, -10.867, -17.887, 31.1, -0.19354, 0.2435, 0.07568, 0.94733,
 11:43:33.664,ed:40:fe:65:30:6c, 2015-01-01 00:10:24.635, 0.421, 0.046, 0.913, -2.014, 0.122, -2.014, 2.444, -25.724, -136.39, -14.253, -10.373, -9.027, 26.86, 0.36841, -0.19901, -0.10312, -0.90219,
 11:43:33.665,ed:40:fe:65:30:6c, 2015-01-01 00:10:24.635, 0.429, 0.057, 0.909, -2.625, 0.366, -1.953, 2.428, -25.708, -136.467, -14.253, -10.373, -9.027, 26.86, 0.36841, -0.19901, -0.10312, -0.90219,
 11:43:33.689,e3:ca:2d:fd:e0:8c, 2015-01-01 00:10:26.440, 0.988, -0.005, 0.249, -2.136, 1.099, 1.099, 1.538, -75.608, 154.336, -25.480, -9.813, -10.793, 28.65, -0.16788, -0.60049, 0.1264, -0.77145,
 11:43:33.690,e3:ca:2d:fd:e0:8c, 2015-01-01 00:10:26.440, 0.99, -0.002, 0.253, -1.831, 0.732, 1.526, 1.384, -75.591, 154.396, -25.480, -9.813, -10.793, 28.65, -0.16788, -0.60049, 0.1264, -0.77145,
 11:43:33.691,f6:90:cc:01:6d:25, 2015-01-01 00:10:21.370, 0.91, 0.023, 0.369, -1.831, 1.16, 0.305, 3.268, -67.467, -162.702, -27.907, -10.847, -7.393, 32.55, -0.14062, 0.54523, 0.1069, 0.8194,
 11:43:33.691,f6:90:cc:01:6d:25, 2015-01-01 00:10:21.370, 0.912, 0.022, 0.38, -1.526, 0.671, 0.854, 3.214, -67.451, -162.669, -27.907, -10.847, -7.393, 32.55, -0.14062, 0.54523, 0.1069, 0.8194,
 11:43:33.709,ed:40:fe:65:30:6c, 2015-01-01 00:10:24.635, 0.433, 0.061, 0.909, -3.052, 0.488, -1.892, 2.406, -25.692, -136.533, -14.253, -10.373, -9.027, 26.86, 0.36841, -0.19901, -0.10312, -0.90219,
 11:43:33.709,ed:40:fe:65:30:6c, 2015-01-01 00:10:24.635, 0.423, 0.049, 0.907, -1.099, 0, -1.892, 2.406, -25.681, -136.593, -14.253, -10.373, -9.027, 26.86, 0.36841, -0.19901, -0.10312, -0.90219,
 11:43:33.711,f6:90:cc:01:6d:25, 2015-01-01 00:10:21.685, 0.912, 0.022, 0.384, -1.16, 0.366, 1.343, 3.142, -67.44, -162.57, -27.907, -10.847, -7.393, 32.55, -0.14062, 0.54523, 0.1069, 0.8194,
 11:43:33.711,f6:90:cc:01:6d:25, 2015-01-01 00:10:21.685, 0.908, 0.015, 0.382, -1.221, 0.183, 1.526, 3.06, -67.44, -162.46, -27.907, -10.847, -7.393, 32.55, -0.14062, 0.54523, 0.1069, 0.8194,
 11:43:33.731,e3:ca:2d:fd:e0:8c, 2015-01-01 00:10:26.440, 0.988, -0.002, 0.256, -1.099, 0, 1.77, 1.219, -75.586, 154.517, -25.480, -9.813, -10.793, 28.65, -0.16788, -0.60049, 0.1264, -0.77145,
 11:43:33.731,e3:ca:2d:fd:e0:8c, 2015-01-01 00:10:26.440, 0.984, -0.006, 0.256, -0.061, -0.183, 1.587, 1.066, -75.591, 154.644, -25.480, -9.813, -10.793, 28.65, -0.16788, -0.60049, 0.1264, -0.77145,
 11:43:33.752,ed:35:33:d3:6c:f8, 2015-01-01 00:10:25.595, 0.483, 0.065, 0.874, -3.723, 1.221, -1.343, 2.807, -28.839, -158.247, -14.120, -10.420, -17.447, 31.1, -0.19354, 0.2435, 0.07568, 0.94733,
 11:43:33.752,ed:35:33:d3:6c:f8, 2015-01-01 00:10:25.595, 0.478, 0.056, 0.874, -2.258, 1.953, -1.709, 2.785, -28.801, -158.291, -14.120, -10.420, -17.447, 31.1, -0.19354, 0.2435, 0.07568, 0.94733,
 11:43:33.755,f6:90:cc:01:6d:25, 2015-01-01 00:10:21.685, 0.908, 0.013, 0.384, -1.343, 0, 1.587, 2.966, -67.434, -162.345, -27.907, -10.847, -7.393, 32.55, -0.14062, 0.54523, 0.1069, 0.8194,
 11:43:33.755,f6:90:cc:01:6d:25, 2015-01-01 00:10:21.685, 0.908, 0.013, 0.38, -1.465, -0.122, 1.587, 2.867, -67.44, -162.235, -27.907, -10.847, -7.393, 32.55, -0.14062, 0.54523, 0.1069, 0.8194,
 11:43:33.755,ed:40:fe:65:30:6c, 2015-01-01 00:10:24.635, 0.414, 0.042, 0.914, 0.122, -0.488, -2.014, 2.433, -25.681, -136.659, -14.253, -10.373, -9.027, 26.86, 0.36841, -0.19901, -0.10312, -0.90219,
 11:43:33.755,ed:40:fe:65:30:6c, 2015-01-01 00:10:24.635, 0.419, 0.039, 0.911, 0.061, -0.549, -2.136, 2.466, -25.681, -136.73, -14.253, -10.373, -9.027, 26.86, 0.36841, -0.19901, -0.10312, -0.90219,
 11:43:33.775,ed:35:33:d3:6c:f8, 2015-01-01 00:10:25.595, 0.465, 0.045, 0.88, -0.183, 1.099, -2.625, 2.812, -28.768, -158.39, -14.120, -10.420, -17.447, 31.1, -0.18729, 0.23944, 0.06992, 0.95004,
 11:43:33.775,ed:35:33:d3:6c:f8, 2015-01-01 00:10:25.595, 0.467, 0.042, 0.882, 0.061, 0.305, -2.441, 2.851, -28.751, -158.478, -14.120, -10.420, -17.447, 31.1, -0.18729, 0.23944, 0.06992, 0.95004,
 11:43:33.775,e3:ca:2d:fd:e0:8c, 2015-01-01 00:10:26.440, 0.985, -0.006, 0.256, -0.061, -0.488, 1.404, 0.939, -75.597, 154.759, -25.480, -9.813, -10.793, 28.65, -0.16788, -0.60049, 0.1264, -0.77145,
 11:43:33.775,e3:ca:2d:fd:e0:8c, 2015-01-01 00:10:26.440, 0.985, -0.003, 0.256, -0.977, -0.793, 1.404, 0.802, -75.608, 154.869, -25.480, -9.813, -10.793, 28.65, -0.16788, -0.60049, 0.1264, -0.77145,
 11:43:33.779,ed:40:fe:65:30:6c, 2015-01-01 00:10:24.635, 0.42, 0.039, 0.897, 1.038, -0.854, -2.014, 2.51, -25.686, -136.796, -14.253, -10.373, -9.027, 26.86, 0.36841, -0.19901, -0.10312, -0.90219,
 11:43:33.779,ed:40:fe:65:30:6c, 2015-01-01 00:10:24.635, 0.42, 0.039, 0.898, 0.671, -0.549, -1.953, 2.554, -25.692, -136.862, -14.253, -10.373, -9.027, 26.86, 0.36841, -0.19901, -0.10312, -0.90219,
 11:43:33.797,ed:35:33:d3:6c:f8, 2015-01-01 00:10:25.595, 0.469, 0.043, 0.869, 1.038, -0.183, -2.258, 2.9, -28.746, -158.56, -14.120, -10.420, -17.447, 31.1, -0.18729, 0.23944, 0.06992, 0.95004,
 11:43:33.797,ed:35:33:d3:6c:f8, 2015-01-01 00:10:25.595, 0.468, 0.043, 0.861, 1.282, 0.122, -2.502, 2.955, -28.74, -158.626, -14.120, -10.420, -17.447, 31.1, -0.18729, 0.23944, 0.06992, 0.95004,
 11:43:33.802,f6:90:cc:01:6d:25, 2015-01-01 00:10:21.685, 0.908, 0.011, 0.373, -1.465, 0, 1.343, 2.774, -67.44, -162.12, -27.907, -10.847, -7.393, 32.55, -0.14062, 0.54523, 0.1069, 0.8194,
 11:43:33.802,f6:90:cc:01:6d:25, 2015-01-01 00:10:21.685, 0.908, 0.01, 0.371, -1.465, 0.061, 0.854, 2.697, -67.44, -162.032, -27.907, -10.847, -7.393, 32.55, -0.14062, 0.54523, 0.1069, 0.8194,
 11:43:33.822,e3:ca:2d:fd:e0:8c, 2015-01-01 00:10:26.440, 0.984, -0.002, 0.252, -1.465, -0.488, 1.282, 0.665, -75.619, 155.001, -25.480, -9.813, -10.793, 28.65, -0.16788, -0.60049, 0.1264, -0.77145,
 11:43:33.822,e3:ca:2d:fd:e0:8c, 2015-01-01 00:10:26.440, 0.985, -0.004, 0.25, -1.526, 0, 0.854, 0.538, -75.624, 155.099, -25.480, -9.813, -10.793, 28.65, -0.16788, -0.60049, 0.1264, -0.77145,
 11:43:33.822,ed:40:fe:65:30:6c, 2015-01-01 00:10:24.635, 0.424, 0.036, 0.901, -0.061, 0.427, -2.136, 2.582, -25.675, -136.923, -14.253, -10.373, -9.027, 26.86, 0.36841, -0.19901, -0.10312, -0.90219,
 11:43:33.822,ed:40:fe:65:30:6c, 2015-01-01 00:10:24.635, 0.429, 0.036, 0.901, 0.305, 0.427, -1.831, 2.604, -25.659, -136.983, -14.253, -10.373, -9.027, 26.86, 0.36841, -0.19901, -0.10312, -0.90219,
 11:43:33.844,e3:ca:2d:fd:e0:8c, 2015-01-01 00:10:26.440, 0.992, -0.007, 0.251, -0.854, 0, 0.427, 0.45, -75.624, 155.154, -25.440, -9.713, -11.333, 28.65, -0.16788, -0.60049, 0.1264, -0.77145,
 11:43:33.844,e3:ca:2d:fd:e0:8c, 2015-01-01 00:10:26.440, 0.995, -0.007, 0.253, -0.366, -0.427, 0.122, 0.401, -75.63, 155.176, -25.440, -9.713, -11.333, 28.65, -0.16788, -0.60049, 0.1264, -0.77145,
 11:43:33.845,ed:35:33:d3:6c:f8, 2015-01-01 00:10:25.595, 0.472, 0.039, 0.865, 0.305, 1.404, -2.869, 2.999, -28.713, -158.698, -14.120, -10.420, -17.447, 31.1, -0.18729, 0.23944, 0.06992, 0.95004,
 11:43:33.845,ed:35:33:d3:6c:f8, 2015-01-01 00:10:25.595, 0.476, 0.041, 0.869, 0.122, 1.465, -3.174, 3.038, -28.674, -158.796, -14.120, -10.420, -17.447, 31.1, -0.18729, 0.23944, 0.06992, 0.95004,
 11:43:33.846,f6:90:cc:01:6d:25, 2015-01-01 00:10:21.685, 0.912, 0.008, 0.376, -1.221, 0, 0.427, 2.642, -67.44, -161.993, -27.907, -10.847, -7.393, 32.55, -0.14062, 0.54523, 0.1069, 0.8194,
 11:43:33.846,f6:90:cc:01:6d:25, 2015-01-01 00:10:21.685, 0.917, 0.009, 0.379, -0.977, -0.183, 0.183, 2.609, -67.44, -161.977, -27.907, -10.847, -7.393, 32.55, -0.14062, 0.54523, 0.1069, 0.8194,
 11:43:33.865,ed:35:33:d3:6c:f8, 2015-01-01 00:10:25.975, 0.48, 0.047, 0.87, 1.16, 0.671, -2.747, 3.093, -28.658, -158.873, -14.120, -10.420, -17.447, 31.1, -0.18729, 0.23944, 0.06992, 0.95004,
 11:43:33.865,ed:35:33:d3:6c:f8, 2015-01-01 00:10:25.975, 0.477, 0.053, 0.874, 1.709, 0, -2.502, 3.153, -28.652, -158.961, -14.120, -10.420, -17.447, 31.1, -0.18729, 0.23944, 0.06992, 0.95004,
 11:43:33.868,ed:40:fe:65:30:6c, 2015-01-01 00:10:24.635, 0.432, 0.042, 0.904, 1.343, 0.244, -1.404, 2.642, -25.642, -137.032, -14.253, -10.373, -9.027, 26.86, 0.36841, -0.19901, -0.10312, -0.90219,
 11:43:33.868,ed:40:fe:65:30:6c, 2015-01-01 00:10:24.635, 0.426, 0.048, 0.905, 1.526, 0.061, -1.038, 2.686, -25.631, -137.082, -14.253, -10.373, -9.027, 26.86, 0.36841, -0.19901, -0.10312, -0.90219,
 11:43:33.890,e3:ca:2d:fd:e0:8c, 2015-01-01 00:10:26.440, 0.993, -0.008, 0.254, 0, -0.732, 0, 0.379, -75.641, 155.182, -25.440, -9.713, -11.333, 28.65, -0.16788, -0.60049, 0.1264, -0.77145,
 11:43:33.890,e3:ca:2d:fd:e0:8c, 2015-01-01 00:10:26.440, 0.991, -0.009, 0.253, 0, -0.732, 0, 0.363, -75.652, 155.187, -25.440, -9.713, -11.333, 28.65, -0.16788, -0.60049, 0.1264, -0.77145,
 11:43:33.891,f6:90:cc:01:6d:25, 2015-01-01 00:10:21.685, 0.917, 0.01, 0.379, -0.732, -0.244, 0.122, 2.582, -67.445, -161.971, -27.907, -10.847, -7.393, 32.55, -0.14062, 0.54523, 0.1069, 0.8194,
 11:43:33.891,f6:90:cc:01:6d:25, 2015-01-01 00:10:21.685, 0.915, 0.011, 0.377, -0.305, -0.061, 0.061, 2.56, -67.451, -161.949, -27.907, -10.847, -7.393, 32.55, -0.14062, 0.54523, 0.1069, 0.8194,
 11:43:33.910,ed:35:33:d3:6c:f8, 2015-01-01 00:10:25.975, 0.476, 0.055, 0.871, 1.526, 0.244, -2.625, 3.214, -28.641, -159.049, -14.120, -10.420, -17.447, 31.1, -0.18729, 0.23944, 0.06992, 0.95004,
 11:43:33.910,ed:35:33:d3:6c:f8, 2015-01-01 00:10:25.975, 0.478, 0.059, 0.878, 1.038, 1.282, -2.93, 3.268, -28.614, -159.137, -14.120, -10.420, -17.447, 31.1, -0.18729, 0.23944, 0.06992, 0.95004,
 11:43:33.913,f6:90:cc:01:6d:25, 2015-01-01 00:10:21.685, 0.914, 0.009, 0.381, 0, -0.122, 0.061, 2.549, -67.451, -161.922, -28.073, -10.860, -6.833, 32.55, -0.14062, 0.54523, 0.1069, 0.8194,
 11:43:33.913,f6:90:cc:01:6d:25, 2015-01-01 00:10:21.685, 0.912, 0.007, 0.38, 0.061, -0.183, 0.061, 2.543, -67.456, -161.873, -28.073, -10.860, -6.833, 32.55, -0.14062, 0.54523, 0.1069, 0.8194,
 11:43:33.933,ed:35:33:d3:6c:f8, 2015-01-01 00:10:25.975, 0.477, 0.056, 0.876, 1.526, 0.977, -2.991, 3.334, -28.592, -159.214, -14.120, -10.420, -17.447, 31.1, -0.18729, 0.23944, 0.06992, 0.95004,
 11:43:33.933,ed:35:33:d3:6c:f8, 2015-01-01 00:10:25.975, 0.476, 0.052, 0.867, 2.563, -0.488, -2.502, 3.411, -28.597, -159.247, -14.120, -10.420, -17.447, 31.1, -0.18729, 0.23944, 0.06992, 0.95004,
 11:43:33.957,ed:40:fe:65:30:6c, 2015-01-01 00:10:24.635, 0.428, 0.05, 0.909, 1.282, 0.61, -0.732, 2.719, -25.615, -137.12, -14.087, -10.393, -9.307, 26.86, 0.36841, -0.19901, -0.10312, -0.90219,
 11:43:33.957,ed:40:fe:65:30:6c, 2015-01-01 00:10:24.635, 0.429, 0.055, 0.913, 0.916, 0.916, -0.366, 2.747, -25.593, -137.137, -14.087, -10.393, -9.307, 26.86, 0.36841, -0.19901, -0.10312, -0.90219,
 11:43:33.958,f6:90:cc:01:6d:25, 2015-01-01 00:10:21.685, 0.909, 0.012, 0.376, 0.061, -0.122, 0.366, 2.521, -67.456, -161.829, -28.073, -10.860, -6.833, 32.55, -0.14062, 0.54523, 0.1069, 0.8194,
 11:43:33.958,f6:90:cc:01:6d:25, 2015-01-01 00:10:21.685, 0.909, 0.016, 0.374, -0.305, -0.061, 0.61, 2.483, -67.462, -161.768, -28.073, -10.860, -6.833, 32.55, -0.14062, 0.54523, 0.1069, 0.8194,
 11:43:33.979,ed:35:33:d3:6c:f8, 2015-01-01 00:10:25.975, 0.475, 0.061, 0.864, 2.563, -0.366, -1.526, 3.483, -28.603, -159.241, -14.120, -10.420, -17.447, 31.1, -0.18729, 0.23944, 0.06992, 0.95004,
 11:43:33.979,ed:35:33:d3:6c:f8, 2015-01-01 00:10:25.975, 0.476, 0.066, 0.873, 2.014, 0.488, -1.038, 3.532, -28.592, -159.219, -14.120, -10.420, -17.447, 31.1, -0.18729, 0.23944, 0.06992, 0.95004,
 11:43:33.979,e3:ca:2d:fd:e0:8c, 2015-01-01 00:10:26.440, 0.989, -0.011, 0.254, 0, -0.732, 0, 0.346, -75.668, 155.198, -25.440, -9.713, -11.333, 28.65, -0.16772, -0.59946, 0.12921, -0.77182,
 11:43:33.979,e3:ca:2d:fd:e0:8c, 2015-01-01 00:10:26.440, 0.987, -0.012, 0.253, 0, -0.916, 0, 0.324, -75.685, 155.209, -25.440, -9.713, -11.333, 28.65, -0.16772, -0.59946, 0.12921, -0.77182,
 11:43:33.980,ed:40:fe:65:30:6c, 2015-01-01 00:10:24.635, 0.426, 0.047, 0.905, 1.465, 0.793, 0, 2.774, -25.571, -137.159, -14.087, -10.393, -9.307, 26.86, 0.36096, -0.19727, -0.10284, -0.90561,
 11:43:33.980,ed:40:fe:65:30:6c, 2015-01-01 00:10:24.635, 0.426, 0.047, 0.897, 2.075, 0.61, 0, 2.818, -25.554, -137.192, -14.087, -10.393, -9.307, 26.86, 0.36096, -0.19727, -0.10284, -0.90561,
 11:43:34.001,e3:ca:2d:fd:e0:8c, 2015-01-01 00:10:26.800, 0.986, -0.007, 0.25, 0.427, -1.038, 0, 0.302, -75.701, 155.237, -25.440, -9.713, -11.333, 28.65, -0.16772, -0.59946, 0.12921, -0.77182,
 11:43:34.001,e3:ca:2d:fd:e0:8c, 2015-01-01 00:10:26.800, 0.987, -0.001, 0.249, 0.427, -1.16, 0.061, 0.286, -75.723, 155.242, -25.440, -9.713, -11.333, 28.65, -0.16772, -0.59946, 0.12921, -0.77182,
 11:43:34.003,f6:90:cc:01:6d:25, 2015-01-01 00:10:21.685, 0.909, 0.021, 0.371, -0.61, -0.122, 0.549, 2.439, -67.462, -161.702, -28.073, -10.860, -6.833, 32.55, -0.14343, 0.54526, 0.10571, 0.81903,
 11:43:34.003,f6:90:cc:01:6d:25, 2015-01-01 00:10:21.685, 0.914, 0.018, 0.372, -0.916, -0.305, 0.366, 2.401, -67.467, -161.647, -28.073, -10.860, -6.833, 32.55, -0.14343, 0.54526, 0.10571, 0.81903,
 11:43:34.003,ed:40:fe:65:30:6c, 2015-01-01 00:10:24.635, 0.426, 0.055, 0.901, 1.831, 0.732, 0, 2.856, -25.538, -137.225, -14.087, -10.393, -9.307, 26.86, 0.36096, -0.19727, -0.10284, -0.90561,
 11:43:34.003,ed:40:fe:65:30:6c, 2015-01-01 00:10:24.635, 0.425, 0.062, 0.907, 0.916, 0.549, 0, 2.884, -25.521, -137.258, -14.087, -10.393, -9.307, 26.86, 0.36096, -0.19727, -0.10284, -0.90561,
 11:43:34.023,ed:35:33:d3:6c:f8, 2015-01-01 00:10:25.975, 0.477, 0.062, 0.875, 3.235, 0.305, -1.343, 3.615, -28.581, -159.214, -14.120, -10.420, -17.447, 31.1, -0.18729, 0.23944, 0.06992, 0.95004,
 11:43:34.023,ed:35:33:d3:6c:f8, 2015-01-01 00:10:25.975, 0.474, 0.053, 0.875, 1.16, -0.671, -1.221, 3.653, -28.597, -159.23, -14.120, -10.420, -17.447, 31.1, -0.18729, 0.23944, 0.06992, 0.95004,
 11:43:34.024,e3:ca:2d:fd:e0:8c, 2015-01-01 00:10:26.800, 0.989, 0, 0.247, -0.061, -0.793, 0.122, 0.258, -75.74, 155.259, -25.440, -9.713, -11.333, 28.65, -0.16772, -0.59946, 0.12921, -0.77182,
 11:43:34.024,e3:ca:2d:fd:e0:8c, 2015-01-01 00:10:26.800, 0.993, -0.002, 0.248, -0.549, -0.427, 0.244, 0.22, -75.751, 155.264, -25.440, -9.713, -11.333, 28.65, -0.16772, -0.59946, 0.12921, -0.77182,
 11:43:34.046,e3:ca:2d:fd:e0:8c, 2015-01-01 00:10:26.800, 0.991, -0.006, 0.251, -0.671, -0.427, 0, 0.187, -75.762, 155.27, -25.440, -9.713, -11.333, 28.65, -0.16772, -0.59946, 0.12921, -0.77182,
 11:43:34.046,e3:ca:2d:fd:e0:8c, 2015-01-01 00:10:26.800, 0.986, -0.008, 0.249, -0.61, -0.549, -0.061, 0.159, -75.773, 155.259, -25.440, -9.713, -11.333, 28.65, -0.16772, -0.59946, 0.12921, -0.77182,
 11:43:34.047,ed:40:fe:65:30:6c, 2015-01-01 00:10:24.635, 0.427, 0.05, 0.906, -0.061, 0, -0.061, 2.889, -25.516, -137.307, -14.087, -10.393, -9.307, 26.86, 0.36096, -0.19727, -0.10284, -0.90561,
 11:43:34.047,ed:40:fe:65:30:6c, 2015-01-01 00:10:24.635, 0.423, 0.045, 0.904, -0.061, -0.671, -0.427, 2.895, -25.521, -137.351, -14.087, -10.393, -9.307, 26.86, 0.36096, -0.19727, -0.10284, -0.90561,
 11:43:34.048,f6:90:cc:01:6d:25, 2015-01-01 00:10:21.995, 0.916, 0.013, 0.376, -1.221, -0.366, 0.122, 2.368, -67.478, -161.592, -28.073, -10.860, -6.833, 32.55, -0.14343, 0.54526, 0.10571, 0.81903,
 11:43:34.048,f6:90:cc:01:6d:25, 2015-01-01 00:10:21.995, 0.912, 0.011, 0.376, -1.282, -0.183, 0.061, 2.335, -67.484, -161.548, -28.073, -10.860, -6.833, 32.55, -0.14343, 0.54526, 0.10571, 0.81903,
 11:43:34.069,ed:35:33:d3:6c:f8, 2015-01-01 00:10:25.975, 0.471, 0.062, 0.869, 1.16, -1.221, -1.282, 3.691, -28.619, -159.252, -14.120, -10.420, -17.447, 31.1, -0.18729, 0.23944, 0.06992, 0.95004,
 11:43:34.069,ed:35:33:d3:6c:f8, 2015-01-01 00:10:25.975, 0.478, 0.067, 0.869, 0.061, 0, -1.648, 3.713, -28.614, -159.28, -14.120, -10.420, -17.447, 31.1, -0.18729, 0.23944, 0.06992, 0.95004,
 11:43:34.071,ed:40:fe:65:30:6c, 2015-01-01 00:10:25.015, 0.421, 0.055, 0.906, -0.183, -0.244, -0.244, 2.9, -25.521, -137.39, -14.087, -10.393, -9.307, 26.86, 0.36096, -0.19727, -0.10284, -0.90561,
 11:43:34.071,ed:40:fe:65:30:6c, 2015-01-01 00:10:25.015, 0.427, 0.055, 0.905, -0.366, 0.549, -0.122, 2.895, -25.51, -137.439, -14.087, -10.393, -9.307, 26.86, 0.36096, -0.19727, -0.10284, -0.90561,
 11:43:34.092,e3:ca:2d:fd:e0:8c, 2015-01-01 00:10:26.800, 0.984, -0.007, 0.247, -0.549, -0.732, 0, 0.132, -75.784, 155.242, -25.440, -9.713, -11.333, 28.65, -0.16772, -0.59946, 0.12921, -0.77182,
 11:43:34.092,e3:ca:2d:fd:e0:8c, 2015-01-01 00:10:26.800, 0.991, -0.007, 0.249, -0.244, -1.16, -0.244, 0.121, -75.806, 155.193, -25.440, -9.713, -11.333, 28.65, -0.16772, -0.59946, 0.12921, -0.77182,
 11:43:34.095,f6:90:cc:01:6d:25, 2015-01-01 00:10:21.995, 0.908, 0.01, 0.374, -1.16, -0.183, 0.061, 2.307, -67.489, -161.505, -28.073, -10.860, -6.833, 32.55, -0.14343, 0.54526, 0.10571, 0.81903,
 11:43:34.095,f6:90:cc:01:6d:25, 2015-01-01 00:10:21.995, 0.909, 0.009, 0.376, -0.793, -0.305, -0.061, 2.291, -67.495, -161.477, -28.073, -10.860, -6.833, 32.55, -0.14343, 0.54526, 0.10571, 0.81903,
 11:43:34.115,f6:90:cc:01:6d:25, 2015-01-01 00:10:21.995, 0.915, 0.01, 0.378, -0.427, -0.427, -0.244, 2.285, -67.505, -161.45, -28.073, -10.860, -6.833, 32.55, -0.14343, 0.54526, 0.10571, 0.81903,
 11:43:34.115,f6:90:cc:01:6d:25, 2015-01-01 00:10:21.995, 0.916, 0.01, 0.375, 0, -0.305, -0.183, 2.285, -67.511, -161.417, -28.073, -10.860, -6.833, 32.55, -0.14343, 0.54526, 0.10571, 0.81903,
 11:43:34.115,ed:40:fe:65:30:6c, 2015-01-01 00:10:25.015, 0.427, 0.046, 0.9, -0.854, 0.793, 0.366, 2.878, -25.488, -137.472, -14.087, -10.393, -9.307, 26.86, 0.36096, -0.19727, -0.10284, -0.90561,
 11:43:34.115,ed:40:fe:65:30:6c, 2015-01-01 00:10:25.015, 0.428, 0.05, 0.907, -0.549, 0.122, 0.732, 2.867, -25.483, -137.499, -14.087, -10.393, -9.307, 26.86, 0.36096, -0.19727, -0.10284, -0.90561,
 11:43:34.134,ed:35:33:d3:6c:f8, 2015-01-01 00:10:25.975, 0.479, 0.06, 0.867, 0.549, 0.977, -1.099, 3.735, -28.592, -159.302, -13.987, -11.107, -16.620, 31.1, -0.18729, 0.23944, 0.06992, 0.95004,
 11:43:34.134,ed:35:33:d3:6c:f8, 2015-01-01 00:10:25.975, 0.479, 0.063, 0.874, -0.366, 0.427, 0.305, 3.73, -28.586, -159.296, -13.987, -11.107, -16.620, 31.1, -0.18729, 0.23944, 0.06992, 0.95004,
 11:43:34.139,e3:ca:2d:fd:e0:8c, 2015-01-01 00:10:26.800, 0.994, -0.009, 0.251, 0.488, -1.282, -0.427, 0.143, -75.833, 155.149, -25.440, -9.713, -11.333, 28.65, -0.16772, -0.59946, 0.12921, -0.77182,
 11:43:34.139,e3:ca:2d:fd:e0:8c, 2015-01-01 00:10:26.800, 0.991, -0.009, 0.251, 0.854, -0.732, -0.427, 0.17, -75.85, 155.116, -25.440, -9.713, -11.333, 28.65, -0.16772, -0.59946, 0.12921, -0.77182,
 11:43:34.141,ed:40:fe:65:30:6c, 2015-01-01 00:10:25.015, 0.425, 0.053, 0.905, 0.122, 0.427, 1.099, 2.862, -25.472, -137.516, -14.087, -10.393, -9.307, 26.86, 0.36096, -0.19727, -0.10284, -0.90561,
 11:43:34.141,ed:40:fe:65:30:6c, 2015-01-01 00:10:25.015, 0.421, 0.053, 0.905, 0.488, 0.183, 1.404, 2.862, -25.466, -137.51, -14.087, -10.393, -9.307, 26.86, 0.36096, -0.19727, -0.10284, -0.90561,
 11:43:34.158,ed:35:33:d3:6c:f8, 2015-01-01 00:10:25.975, 0.477, 0.065, 0.87, 0.183, 0, 1.343, 3.719, -28.586, -159.252, -13.987, -11.107, -16.620, 31.1, -0.18231, 0.23706, 0.07541, 0.9512,
 11:43:34.158,ed:35:33:d3:6c:f8, 2015-01-01 00:10:25.975, 0.472, 0.065, 0.872, 0.854, -0.122, 1.648, 3.724, -28.592, -159.208, -13.987, -11.107, -16.620, 31.1, -0.18231, 0.23706, 0.07541, 0.9512,
 11:43:34.162,f6:90:cc:01:6d:25, 2015-01-01 00:10:21.995, 0.91, 0.011, 0.375, 0.061, -0.244, 0, 2.285, -67.516, -161.384, -28.073, -10.860, -6.833, 32.55, -0.14343, 0.54526, 0.10571, 0.81903,
 11:43:34.162,f6:90:cc:01:6d:25, 2015-01-01 00:10:21.995, 0.908, 0.013, 0.376, 0, -0.122, 0, 2.28, -67.522, -161.373, -28.073, -10.860, -6.833, 32.55, -0.14343, 0.54526, 0.10571, 0.81903,
 11:43:34.183,ed:40:fe:65:30:6c, 2015-01-01 00:10:25.015, 0.424, 0.05, 0.903, 0.183, 0.366, 1.77, 2.856, -25.455, -137.499, -14.087, -10.393, -9.307, 26.86, 0.36096, -0.19727, -0.10284, -0.90561,
 11:43:34.183,ed:40:fe:65:30:6c, 2015-01-01 00:10:25.015, 0.422, 0.054, 0.9, -0.122, 0.305, 1.587, 2.845, -25.45, -137.499, -14.087, -10.393, -9.307, 26.86, 0.36096, -0.19727, -0.10284, -0.90561,
 11:43:34.204,e3:ca:2d:fd:e0:8c, 2015-01-01 00:10:26.800, 0.986, -0.008, 0.251, 0.549, -0.305, -0.305, 0.187, -75.855, 155.105, -25.440, -9.713, -11.333, 28.65, -0.16772, -0.59946, 0.12921, -0.77182,
 11:43:34.204,e3:ca:2d:fd:e0:8c, 2015-01-01 00:10:26.800, 0.986, -0.005, 0.25, 0.366, -0.183, -0.244, 0.192, -75.861, 155.11, -25.440, -9.713, -11.333, 28.65, -0.16772, -0.59946, 0.12921, -0.77182,
 11:43:34.207,f6:90:cc:01:6d:25, 2015-01-01 00:10:21.995, 0.91, 0.015, 0.376, -0.244, 0, 0.061, 2.263, -67.522, -161.373, -28.073, -10.860, -6.833, 32.55, -0.14343, 0.54526, 0.10571, 0.81903,
 11:43:34.207,f6:90:cc:01:6d:25, 2015-01-01 00:10:21.995, 0.914, 0.014, 0.378, -0.488, -0.061, 0.122, 2.247, -67.522, -161.323, -28.073, -10.860, -6.833, 32.55, -0.14343, 0.54526, 0.10571, 0.81903,
 11:43:34.224,ed:35:33:d3:6c:f8, 2015-01-01 00:10:25.975, 0.474, 0.062, 0.869, 0.549, 0.122, 2.136, 3.713, -28.592, -159.164, -13.987, -11.107, -16.620, 31.1, -0.18231, 0.23706, 0.07541, 0.9512,
 11:43:34.224,ed:35:33:d3:6c:f8, 2015-01-01 00:10:25.975, 0.473, 0.062, 0.867, 0, 0.244, 2.258, 3.697, -28.592, -159.137, -13.987, -11.107, -16.620, 31.1, -0.18231, 0.23706, 0.07541, 0.9512,
 11:43:34.225,e3:ca:2d:fd:e0:8c, 2015-01-01 00:10:26.800, 0.989, -0.004, 0.25, 0.488, -0.366, -0.122, 0.192, -75.866, 155.11, -25.673, -9.833, -11.440, 28.65, -0.16772, -0.59946, 0.12921, -0.77182,
 11:43:34.225,e3:ca:2d:fd:e0:8c, 2015-01-01 00:10:26.800, 0.992, -0.004, 0.249, 0.244, -0.671, -0.061, 0.187, -75.877, 155.11, -25.673, -9.833, -11.440, 28.65, -0.16772, -0.59946, 0.12921, -0.77182,
 11:43:34.227,ed:40:fe:65:30:6c, 2015-01-01 00:10:25.015, 0.425, 0.056, 0.905, -0.732, 0, 1.221, 2.823, -25.444, -137.499, -14.087, -10.393, -9.307, 26.86, 0.36096, -0.19727, -0.10284, -0.90561,
 11:43:34.227,ed:40:fe:65:30:6c, 2015-01-01 00:10:25.015, 0.427, 0.051, 0.907, -0.854, 0.488, 1.221, 2.802, -25.433, -137.494, -14.087, -10.393, -9.307, 26.86, 0.36096, -0.19727, -0.10284, -0.90561,
 11:43:34.247,ed:35:33:d3:6c:f8, 2015-01-01 00:10:26.355, 0.475, 0.065, 0.872, -0.671, 0, 1.587, 3.669, -28.592, -159.137, -13.987, -11.107, -16.620, 31.1, -0.18231, 0.23706, 0.07541, 0.9512,
 11:43:34.247,ed:35:33:d3:6c:f8, 2015-01-01 00:10:26.355, 0.48, 0.062, 0.87, -0.977, 0, 1.343, 3.642, -28.592, -159.131, -13.987, -11.107, -16.620, 31.1, -0.18231, 0.23706, 0.07541, 0.9512,
 11:43:34.252,f6:90:cc:01:6d:25, 2015-01-01 00:10:21.995, 0.915, 0.012, 0.373, -0.671, 0.061, 0.061, 2.225, -67.522, -161.246, -27.853, -10.580, -5.640, 32.55, -0.14343, 0.54526, 0.10571, 0.81903,
 11:43:34.252,f6:90:cc:01:6d:25, 2015-01-01 00:10:21.995, 0.913, 0.01, 0.372, -0.549, 0.122, -0.061, 2.214, -67.522, -161.186, -27.853, -10.580, -5.640, 32.55, -0.14343, 0.54526, 0.10571, 0.81903,
 11:43:34.270,ed:35:33:d3:6c:f8, 2015-01-01 00:10:26.355, 0.48, 0.06, 0.874, -0.61, 0.122, 1.709, 3.615, -28.592, -159.088, -13.987, -11.107, -16.620, 31.1, -0.18231, 0.23706, 0.07541, 0.9512,
 11:43:34.270,ed:35:33:d3:6c:f8, 2015-01-01 00:10:26.355, 0.478, 0.057, 0.873, -0.061, -0.061, 2.502, 3.593, -28.597, -159.044, -13.987, -11.107, -16.620, 31.1, -0.18231, 0.23706, 0.07541, 0.9512,
 11:43:34.272,ed:40:fe:65:30:6c, 2015-01-01 00:10:25.015, 0.427, 0.046, 0.907, -0.61, 0.427, 1.648, 2.78, -25.422, -137.472, -14.087, -10.393, -9.307, 26.86, 0.36096, -0.19727, -0.10284, -0.90561,
 11:43:34.272,ed:40:fe:65:30:6c, 2015-01-01 00:10:25.015, 0.425, 0.045, 0.905, -0.244, -0.061, 2.014, 2.758, -25.422, -137.444, -14.087, -10.393, -9.307, 26.86, 0.36096, -0.19727, -0.10284, -0.90561,
 11:43:34.294,e3:ca:2d:fd:e0:8c, 2015-01-01 00:10:26.800, 0.992, -0.005, 0.248, 0, -0.427, -0.183, 0.181, -75.883, 155.116, -25.673, -9.833, -11.440, 28.65, -0.16772, -0.59946, 0.12921, -0.77182,
 11:43:34.294,e3:ca:2d:fd:e0:8c, 2015-01-01 00:10:26.800, 0.989, -0.006, 0.246, 0.061, 0, -0.305, 0.187, -75.888, 155.11, -25.673, -9.833, -11.440, 28.65, -0.16772, -0.59946, 0.12921, -0.77182,
 11:43:34.296,f6:90:cc:01:6d:25, 2015-01-01 00:10:21.995, 0.91, 0.009, 0.374, -0.305, 0.061, -0.244, 2.214, -67.522, -161.164, -27.853, -10.580, -5.640, 32.55, -0.14661, 0.5455, 0.10678, 0.81818,
 11:43:34.296,f6:90:cc:01:6d:25, 2015-01-01 00:10:21.995, 0.912, 0.011, 0.378, -0.183, -0.061, -0.305, 2.219, -67.527, -161.175, -27.853, -10.580, -5.640, 32.55, -0.14661, 0.5455, 0.10678, 0.81818,
 11:43:34.316,ed:35:33:d3:6c:f8, 2015-01-01 00:10:26.355, 0.477, 0.059, 0.873, 0.366, -0.488, 3.174, 3.571, -28.614, -158.994, -13.987, -11.107, -16.620, 31.1, -0.18231, 0.23706, 0.07541, 0.9512,
 11:43:34.316,ed:35:33:d3:6c:f8, 2015-01-01 00:10:26.355, 0.478, 0.055, 0.871, 0.183, -0.854, 2.93, 3.549, -28.636, -158.939, -13.987, -11.107, -16.620, 31.1, -0.18231, 0.23706, 0.07541, 0.9512,
 11:43:34.316,e3:ca:2d:fd:e0:8c, 2015-01-01 00:10:26.800, 0.989, -0.006, 0.247, 0.549, -0.122, -0.427, 0.203, -75.888, 155.094, -25.673, -9.833, -11.440, 28.65, -0.16895, -0.60071, 0.13123, -0.77026,
 11:43:34.316,e3:ca:2d:fd:e0:8c, 2015-01-01 00:10:26.800, 0.991, -0.004, 0.249, 0.916, -0.488, -0.549, 0.242, -75.894, 155.078, -25.673, -9.833, -11.440, 28.65, -0.16895, -0.60071, 0.13123, -0.77026,
 11:43:34.318,f6:90:cc:01:6d:25, 2015-01-01 00:10:22.285, 0.915, 0.015, 0.376, -0.183, -0.183, -0.305, 2.23, -67.527, -161.186, -27.853, -10.580, -5.640, 32.55, -0.14661, 0.5455, 0.10678, 0.81818,
 11:43:34.318,f6:90:cc:01:6d:25, 2015-01-01 00:10:22.285, 0.915, 0.016, 0.374, -0.183, -0.061, -0.305, 2.236, -67.533, -161.208, -27.853, -10.580, -5.640, 32.55, -0.14661, 0.5455, 0.10678, 0.81818,
 11:43:34.339,ed:35:33:d3:6c:f8, 2015-01-01 00:10:26.355, 0.479, 0.056, 0.869, -0.427, -0.732, 2.197, 3.521, -28.652, -158.89, -13.987, -11.107, -16.620, 31.1, -0.18231, 0.23706, 0.07541, 0.9512,
 11:43:34.339,ed:35:33:d3:6c:f8, 2015-01-01 00:10:26.355, 0.479, 0.065, 0.872, -0.061, -0.732, 2.319, 3.499, -28.669, -158.846, -13.987, -11.107, -16.620, 31.1, -0.18231, 0.23706, 0.07541, 0.9512,
 11:43:34.341,ed:40:fe:65:30:6c, 2015-01-01 00:10:25.015, 0.426, 0.049, 0.906, -0.061, -0.549, 2.075, 2.741, -25.433, -137.422, -14.133, -10.400, -9.367, 26.86, 0.36096, -0.19727, -0.10284, -0.90561,
 11:43:34.341,ed:40:fe:65:30:6c, 2015-01-01 00:10:25.015, 0.426, 0.048, 0.905, -0.427, -0.549, 1.526, 2.725, -25.439, -137.411, -14.133, -10.400, -9.367, 26.86, 0.36096, -0.19727, -0.10284, -0.90561,
 11:43:34.361,e3:ca:2d:fd:e0:8c, 2015-01-01 00:10:26.800, 0.992, -0.003, 0.247, 0.793, -0.549, -0.488, 0.28, -75.905, 155.072, -25.673, -9.833, -11.440, 28.65, -0.16895, -0.60071, 0.13123, -0.77026,
 11:43:34.361,e3:ca:2d:fd:e0:8c, 2015-01-01 00:10:26.800, 0.993, -0.004, 0.244, 0.549, -0.488, -0.366, 0.308, -75.916, 155.078, -25.673, -9.833, -11.440, 28.65, -0.16895, -0.60071, 0.13123, -0.77026,
 11:43:34.363,ed:40:fe:65:30:6c, 2015-01-01 00:10:25.015, 0.426, 0.048, 0.905, -0.793, -0.244, 0.916, 2.708, -25.444, -137.417, -14.133, -10.400, -9.367, 26.86, 0.35892, -0.19678, -0.10138, -0.90668,
 11:43:34.363,ed:40:fe:65:30:6c, 2015-01-01 00:10:25.015, 0.427, 0.054, 0.906, -0.366, -0.305, 1.221, 2.692, -25.444, -137.411, -14.133, -10.400, -9.367, 26.86, 0.35892, -0.19678, -0.10138, -0.90668,
 11:43:34.363,f6:90:cc:01:6d:25, 2015-01-01 00:10:22.285, 0.915, 0.012, 0.374, -0.366, -0.183, -0.305, 2.241, -67.538, -161.241, -27.853, -10.580, -5.640, 32.55, -0.14661, 0.5455, 0.10678, 0.81818,
 11:43:34.363,f6:90:cc:01:6d:25, 2015-01-01 00:10:22.285, 0.915, 0.01, 0.375, -0.366, -0.183, -0.183, 2.236, -67.538, -161.252, -27.853, -10.580, -5.640, 32.55, -0.14661, 0.5455, 0.10678, 0.81818,
 11:43:34.383,ed:35:33:d3:6c:f8, 2015-01-01 00:10:26.355, 0.481, 0.067, 0.871, 0.305, -0.732, 2.747, 3.483, -28.685, -158.796, -13.987, -11.107, -16.620, 31.1, -0.18231, 0.23706, 0.07541, 0.9512,
 11:43:34.383,ed:35:33:d3:6c:f8, 2015-01-01 00:10:26.355, 0.482, 0.058, 0.866, 0.244, -0.305, 2.869, 3.461, -28.696, -158.758, -13.987, -11.107, -16.620, 31.1, -0.18231, 0.23706, 0.07541, 0.9512,
 11:43:34.383,e3:ca:2d:fd:e0:8c, 2015-01-01 00:10:27.200, 0.992, -0.007, 0.245, 0.122, -0.427, -0.366, 0.324, -75.927, 155.11, -25.673, -9.833, -11.440, 28.65, -0.16895, -0.60071, 0.13123, -0.77026,
 11:43:34.383,e3:ca:2d:fd:e0:8c, 2015-01-01 00:10:27.200, 0.993, -0.008, 0.246, 0.061, -0.549, -0.366, 0.335, -75.938, 155.149, -25.673, -9.833, -11.440, 28.65, -0.16895, -0.60071, 0.13123, -0.77026,
 11:43:34.406,e3:ca:2d:fd:e0:8c, 2015-01-01 00:10:27.200, 0.99, -0.007, 0.248, 0.427, -0.549, -0.366, 0.346, -75.948, 155.187, -25.673, -9.833, -11.440, 28.65, -0.16895, -0.60071, 0.13123, -0.77026,
 11:43:34.406,e3:ca:2d:fd:e0:8c, 2015-01-01 00:10:27.200, 0.99, -0.005, 0.249, 0.671, -0.366, -0.366, 0.368, -75.959, 155.215, -25.673, -9.833, -11.440, 28.65, -0.16895, -0.60071, 0.13123, -0.77026,
 11:43:34.408,f6:90:cc:01:6d:25, 2015-01-01 00:10:22.285, 0.914, 0.009, 0.375, -0.122, -0.122, -0.122, 2.236, -67.544, -161.263, -27.853, -10.580, -5.640, 32.55, -0.14661, 0.5455, 0.10678, 0.81818,
 11:43:34.408,f6:90:cc:01:6d:25, 2015-01-01 00:10:22.285, 0.912, 0.011, 0.375, 0.122, 0, -0.061, 2.236, -67.544, -161.263, -27.853, -10.580, -5.640, 32.55, -0.14661, 0.5455, 0.10678, 0.81818,
 11:43:34.428,ed:35:33:d3:6c:f8, 2015-01-01 00:10:26.355, 0.478, 0.054, 0.865, 0.488, 0.122, 3.174, 3.444, -28.696, -158.708, -13.987, -11.107, -16.620, 31.1, -0.18231, 0.23706, 0.07541, 0.9512,
 11:43:34.428,ed:35:33:d3:6c:f8, 2015-01-01 00:10:26.355, 0.479, 0.058, 0.871, 0.793, 0.305, 3.601, 3.422, -28.696, -158.654, -13.987, -11.107, -16.620, 31.1, -0.18231, 0.23706, 0.07541, 0.9512,
 11:43:34.429,ed:40:fe:65:30:6c, 2015-01-01 00:10:25.015, 0.43, 0.055, 0.906, -0.061, -0.183, 1.892, 2.681, -25.45, -137.39, -14.133, -10.400, -9.367, 26.86, 0.35892, -0.19678, -0.10138, -0.90668,
 11:43:34.432,ed:40:fe:65:30:6c, 2015-01-01 00:10:25.015, 0.429, 0.046, 0.902, -0.244, 0.427, 2.014, 2.664, -25.439, -137.351, -14.133, -10.400, -9.367, 26.86, 0.35892, -0.19678, -0.10138, -0.90668,
 11:43:34.453,ed:40:fe:65:30:6c, 2015-01-01 00:10:25.390, 0.424, 0.043, 0.902, 0.061, 0.793, 2.136, 2.648, -25.422, -137.318, -14.133, -10.400, -9.367, 26.86, 0.35892, -0.19678, -0.10138, -0.90668,
 11:43:34.453,ed:40:fe:65:30:6c, 2015-01-01 00:10:25.390, 0.427, 0.049, 0.904, 0.427, 0.488, 2.197, 2.642, -25.411, -137.291, -14.133, -10.400, -9.367, 26.86, 0.35892, -0.19678, -0.10138, -0.90668,
 11:43:34.455,f6:90:cc:01:6d:25, 2015-01-01 00:10:22.285, 0.912, 0.013, 0.376, 0.366, 0, -0.061, 2.241, -67.549, -161.279, -27.853, -10.580, -5.640, 32.55, -0.14661, 0.5455, 0.10678, 0.81818,
