Time,Device name,Chip Time(),Acceleration X(g),Acceleration Y(g),Acceleration Z(g),Angular velocity X(°/s),Angular velocity Y(°/s),Angular velocity Z(°/s),Angle X(°),Angle Y(°),Angle Z(°),Magnetic field X(ʯt),Magnetic field Y(ʯt),Magnetic field Z(ʯt),Temperature(℃),Quaternions 0(),Quaternions 1(),Quaternions 2(),Quaternions 3()
 14:55:43.315,e3:ca:2d:fd:e0:8c, 2015-01-01 03:07:18.895, 1.012, 0.097, 0.076, 0.488, -0.183, 0.122, 51.526, -82.974, 105.469, -25.873, -14.867, -7.967, 29.68, -0.17889, -0.67181, 0.10172, -0.71149,
 14:55:43.316,e3:ca:2d:fd:e0:8c, 2015-01-01 03:07:18.895, 1.011, 0.097, 0.075, 0.427, -0.305, 0.122, 51.559, -82.98, 105.43, -25.873, -14.867, -7.967, 29.68, -0.17889, -0.67181, 0.10172, -0.71149,
 14:55:43.316,ed:40:fe:65:30:6c, 2015-01-01 03:07:24.115, 0.613, 0.203, 0.766, 0, -0.122, 0.122, 14.771, -37.634, -133.264, -18.727, -11.580, -4.847, 28.8, -0.41022, 0.24545, 0.23828, 0.84534,
 14:55:43.316,ed:40:fe:65:30:6c, 2015-01-01 03:07:24.115, 0.611, 0.206, 0.766, 0, -0.061, 0.122, 14.766, -37.639, -133.275, -18.727, -11.580, -4.847, 28.8, -0.41022, 0.24545, 0.23828, 0.84534,
 14:55:43.337,e3:ca:2d:fd:e0:8c, 2015-01-01 03:07:18.895, 1.011, 0.096, 0.074, 0.366, -0.244, 0.061, 51.597, -82.985, 105.386, -25.873, -14.867, -7.967, 29.68, -0.17889, -0.67181, 0.10172, -0.71149,
 14:55:43.337,e3:ca:2d:fd:e0:8c, 2015-01-01 03:07:18.895, 1.012, 0.096, 0.075, 0.305, -0.183, 0, 51.636, -82.985, 105.342, -25.873, -14.867, -7.967, 29.68, -0.17889, -0.67181, 0.10172, -0.71149,
 14:55:43.338,ed:35:33:d3:6c:f8, 2015-01-01 03:07:19.130, 0.417, 0.26, 0.865, 0, 0, 0.061, 16.518, -24.648, 148.661, -10.260, -15.213, -29.353, 32.01, 0.23117, 0.24133, 0.07773, 0.93924,
 14:55:43.338,ed:35:33:d3:6c:f8, 2015-01-01 03:07:19.130, 0.415, 0.263, 0.866, 0.061, 0.122, 0.061, 16.523, -24.642, 148.738, -10.260, -15.213, -29.353, 32.01, 0.23117, 0.24133, 0.07773, 0.93924,
 14:55:43.359,f6:90:cc:01:6d:25, 2015-01-01 03:07:19.090, 0.918, 0.238, 0.266, 0.305, -0.305, 0, 41.699, -68.703, 163.68, -26.400, -16.247, -2.827, 32.22, -0.09167, 0.56268, 0.21667, 0.79242,
 14:55:43.359,f6:90:cc:01:6d:25, 2015-01-01 03:07:19.090, 0.918, 0.239, 0.265, 0.183, -0.244, 0.061, 41.715, -68.708, 163.647, -26.400, -16.247, -2.827, 32.22, -0.09167, 0.56268, 0.21667, 0.79242,
 14:55:43.361,ed:35:33:d3:6c:f8, 2015-01-01 03:07:19.130, 0.415, 0.262, 0.866, 0, 0.183, 0.183, 16.523, -24.642, 148.804, -10.260, -15.213, -29.353, 32.01, 0.23117, 0.24133, 0.07773, 0.93924,
 14:55:43.361,ed:35:33:d3:6c:f8, 2015-01-01 03:07:19.130, 0.415, 0.26, 0.867, 0, 0.305, 0.305, 16.523, -24.637, 148.848, -10.260, -15.213, -29.353, 32.01, 0.23117, 0.24133, 0.07773, 0.93924,
 14:55:43.379,ed:40:fe:65:30:6c, 2015-01-01 03:07:24.115, 0.61, 0.206, 0.767, 0, -0.061, 0.244, 14.766, -37.639, -133.27, -18.727, -11.580, -4.847, 28.8, -0.41022, 0.24545, 0.23828, 0.84534,
 14:55:43.379,ed:40:fe:65:30:6c, 2015-01-01 03:07:24.115, 0.61, 0.204, 0.767, 0.122, -0.122, 0.244, 14.766, -37.645, -133.264, -18.727, -11.580, -4.847, 28.8, -0.41022, 0.24545, 0.23828, 0.84534,
 14:55:43.381,e3:ca:2d:fd:e0:8c, 2015-01-01 03:07:18.895, 1.011, 0.097, 0.076, 0.244, -0.183, 0, 51.669, -82.991, 105.304, -25.873, -14.867, -7.967, 29.68, -0.17889, -0.67181, 0.10172, -0.71149,
 14:55:43.381,e3:ca:2d:fd:e0:8c, 2015-01-01 03:07:18.895, 1.011, 0.097, 0.077, 0.427, -0.183, 0.122, 51.696, -82.996, 105.271, -25.873, -14.867, -7.967, 29.68, -0.17889, -0.67181, 0.10172, -0.71149,
 14:55:43.382,f6:90:cc:01:6d:25, 2015-01-01 03:07:19.090, 0.918, 0.238, 0.266, 0.244, -0.244, 0.183, 41.721, -68.714, 163.603, -26.000, -16.253, -3.633, 32.22, -0.09167, 0.56268, 0.21667, 0.79242,
 14:55:43.382,f6:90:cc:01:6d:25, 2015-01-01 03:07:19.090, 0.918, 0.237, 0.268, 0.366, -0.244, 0.122, 41.732, -68.719, 163.581, -26.000, -16.253, -3.633, 32.22, -0.09167, 0.56268, 0.21667, 0.79242,
 14:55:43.403,ed:40:fe:65:30:6c, 2015-01-01 03:07:24.115, 0.61, 0.202, 0.767, 0.061, -0.122, 0.305, 14.766, -37.645, -133.264, -18.633, -11.453, -4.840, 28.8, -0.41022, 0.24545, 0.23828, 0.84534,
 14:55:43.403,ed:40:fe:65:30:6c, 2015-01-01 03:07:24.115, 0.612, 0.201, 0.767, 0.061, -0.122, 0.244, 14.766, -37.65, -133.264, -18.633, -11.453, -4.840, 28.8, -0.41022, 0.24545, 0.23828, 0.84534,
 14:55:43.405,ed:35:33:d3:6c:f8, 2015-01-01 03:07:19.130, 0.415, 0.258, 0.867, -0.122, 0.244, 0.244, 16.518, -24.637, 148.898, -10.260, -15.213, -29.353, 32.01, 0.23117, 0.24133, 0.07773, 0.93924,
 14:55:43.405,ed:35:33:d3:6c:f8, 2015-01-01 03:07:19.130, 0.416, 0.258, 0.867, -0.183, 0.305, 0.183, 16.512, -24.631, 148.964, -10.260, -15.213, -29.353, 32.01, 0.23117, 0.24133, 0.07773, 0.93924,
 14:55:43.427,f6:90:cc:01:6d:25, 2015-01-01 03:07:19.090, 0.92, 0.239, 0.267, 0.488, -0.183, 0.122, 41.743, -68.725, 163.564, -26.000, -16.253, -3.633, 32.22, -0.09167, 0.56268, 0.21667, 0.79242,
 14:55:43.427,f6:90:cc:01:6d:25, 2015-01-01 03:07:19.090, 0.921, 0.24, 0.266, 0.366, -0.183, 0.061, 41.754, -68.73, 163.559, -26.000, -16.253, -3.633, 32.22, -0.09167, 0.56268, 0.21667, 0.79242,
 14:55:43.447,ed:40:fe:65:30:6c, 2015-01-01 03:07:24.115, 0.613, 0.203, 0.768, 0.183, -0.061, 0.244, 14.766, -37.65, -133.259, -18.633, -11.453, -4.840, 28.8, -0.41022, 0.24545, 0.23828, 0.84534,
 14:55:43.447,ed:40:fe:65:30:6c, 2015-01-01 03:07:24.115, 0.613, 0.202, 0.769, 0.183, -0.122, 0.183, 14.766, -37.65, -133.253, -18.633, -11.453, -4.840, 28.8, -0.41022, 0.24545, 0.23828, 0.84534,
 14:55:43.449,e3:ca:2d:fd:e0:8c, 2015-01-01 03:07:18.895, 1.011, 0.098, 0.076, 0.427, -0.183, 0.183, 51.713, -83.002, 105.249, -25.873, -14.867, -7.967, 29.68, -0.17889, -0.67181, 0.10172, -0.71149,
 14:55:43.449,e3:ca:2d:fd:e0:8c, 2015-01-01 03:07:18.895, 1.013, 0.098, 0.076, 0.366, -0.061, 0.183, 51.718, -83.002, 105.238, -25.873, -14.867, -7.967, 29.68, -0.17889, -0.67181, 0.10172, -0.71149,
 14:55:43.449,f6:90:cc:01:6d:25, 2015-01-01 03:07:19.090, 0.92, 0.24, 0.265, 0.305, -0.183, 0.061, 41.765, -68.73, 163.559, -26.000, -16.253, -3.633, 32.22, -0.08884, 0.56403, 0.21576, 0.79202,
 14:55:43.449,f6:90:cc:01:6d:25, 2015-01-01 03:07:19.090, 0.921, 0.239, 0.265, 0.061, -0.183, 0.061, 41.776, -68.736, 163.553, -26.000, -16.253, -3.633, 32.22, -0.08884, 0.56403, 0.21576, 0.79202,
 14:55:43.450,ed:35:33:d3:6c:f8, 2015-01-01 03:07:19.130, 0.417, 0.259, 0.869, 0, 0.305, 0.244, 16.512, -24.626, 149.024, -10.653, -15.273, -27.880, 32.01, 0.23117, 0.24133, 0.07773, 0.93924,
 14:55:43.450,ed:35:33:d3:6c:f8, 2015-01-01 03:07:19.130, 0.417, 0.258, 0.868, 0.061, 0.244, 0.366, 16.512, -24.626, 149.062, -10.653, -15.273, -27.880, 32.01, 0.23117, 0.24133, 0.07773, 0.93924,
 14:55:43.470,e3:ca:2d:fd:e0:8c, 2015-01-01 03:07:18.895, 1.013, 0.099, 0.075, 0.305, 0, 0, 51.724, -83.007, 105.222, -25.787, -14.740, -7.080, 29.68, -0.17889, -0.67181, 0.10172, -0.71149,
 14:55:43.470,e3:ca:2d:fd:e0:8c, 2015-01-01 03:07:18.895, 1.013, 0.098, 0.076, 0.244, 0, 0, 51.735, -83.007, 105.205, -25.787, -14.740, -7.080, 29.68, -0.17889, -0.67181, 0.10172, -0.71149,
 14:55:43.470,ed:40:fe:65:30:6c, 2015-01-01 03:07:24.115, 0.614, 0.202, 0.766, 0.183, -0.122, 0.122, 14.771, -37.656, -133.253, -18.633, -11.453, -4.840, 28.8, -0.4104, 0.24551, 0.23862, 0.84512,
 14:55:43.470,ed:40:fe:65:30:6c, 2015-01-01 03:07:24.115, 0.612, 0.205, 0.765, 0.061, 0, 0, 14.771, -37.656, -133.242, -18.633, -11.453, -4.840, 28.8, -0.4104, 0.24551, 0.23862, 0.84512,
 14:55:43.495,f6:90:cc:01:6d:25, 2015-01-01 03:07:19.090, 0.92, 0.241, 0.264, 0.305, 0, 0, 41.781, -68.736, 163.537, -26.000, -16.253, -3.633, 32.22, -0.08884, 0.56403, 0.21576, 0.79202,
 14:55:43.495,f6:90:cc:01:6d:25, 2015-01-01 03:07:19.090, 0.919, 0.241, 0.265, 0.244, 0.122, 0, 41.786, -68.736, 163.526, -26.000, -16.253, -3.633, 32.22, -0.08884, 0.56403, 0.21576, 0.79202,
 14:55:43.496,ed:35:33:d3:6c:f8, 2015-01-01 03:07:19.130, 0.418, 0.257, 0.865, 0, 0.183, 0.244, 16.512, -24.626, 149.095, -10.653, -15.273, -27.880, 32.01, 0.22809, 0.24078, 0.07898, 0.94003,
 14:55:43.496,ed:35:33:d3:6c:f8, 2015-01-01 03:07:19.130, 0.416, 0.26, 0.866, -0.183, 0.427, -0.183, 16.507, -24.615, 149.123, -10.653, -15.273, -27.880, 32.01, 0.22809, 0.24078, 0.07898, 0.94003,
 14:55:43.514,ed:40:fe:65:30:6c, 2015-01-01 03:07:24.115, 0.613, 0.205, 0.765, 0, 0, -0.122, 14.777, -37.656, -133.248, -18.633, -11.453, -4.840, 28.8, -0.4104, 0.24551, 0.23862, 0.84512,
 14:55:43.514,ed:40:fe:65:30:6c, 2015-01-01 03:07:24.115, 0.613, 0.204, 0.766, 0.122, 0.061, -0.061, 14.777, -37.656, -133.253, -18.633, -11.453, -4.840, 28.8, -0.4104, 0.24551, 0.23862, 0.84512,
 14:55:43.515,e3:ca:2d:fd:e0:8c, 2015-01-01 03:07:18.895, 1.011, 0.097, 0.075, 0.183, 0, 0, 51.746, -83.007, 105.189, -25.787, -14.740, -7.080, 29.68, -0.17889, -0.67181, 0.10172, -0.71149,
 14:55:43.515,e3:ca:2d:fd:e0:8c, 2015-01-01 03:07:18.895, 1.012, 0.098, 0.076, 0.427, 0.061, 0, 51.751, -83.007, 105.178, -25.787, -14.740, -7.080, 29.68, -0.17889, -0.67181, 0.10172, -0.71149,
 14:55:43.539,e3:ca:2d:fd:e0:8c, 2015-01-01 03:07:18.895, 1.013, 0.1, 0.076, 0.488, 0.183, 0, 51.746, -83.002, 105.183, -25.787, -14.740, -7.080, 29.68, -0.17963, -0.67212, 0.10257, -0.71088,
 14:55:43.539,e3:ca:2d:fd:e0:8c, 2015-01-01 03:07:18.895, 1.013, 0.098, 0.076, 0.366, 0.305, 0, 51.729, -83.002, 105.2, -25.787, -14.740, -7.080, 29.68, -0.17963, -0.67212, 0.10257, -0.71088,
 14:55:43.540,f6:90:cc:01:6d:25, 2015-01-01 03:07:19.495, 0.92, 0.239, 0.265, 0.183, 0.061, 0, 41.792, -68.736, 163.515, -26.000, -16.253, -3.633, 32.22, -0.08884, 0.56403, 0.21576, 0.79202,
 14:55:43.540,f6:90:cc:01:6d:25, 2015-01-01 03:07:19.495, 0.919, 0.239, 0.265, 0.183, 0.183, 0.061, 41.792, -68.736, 163.488, -26.000, -16.253, -3.633, 32.22, -0.08884, 0.56403, 0.21576, 0.79202,
 14:55:43.541,ed:35:33:d3:6c:f8, 2015-01-01 03:07:19.440, 0.417, 0.261, 0.864, 0.183, 0.488, -0.305, 16.518, -24.604, 149.123, -10.653, -15.273, -27.880, 32.01, 0.22809, 0.24078, 0.07898, 0.94003,
 14:55:43.541,ed:35:33:d3:6c:f8, 2015-01-01 03:07:19.440, 0.416, 0.262, 0.866, 0.183, 0.854, 0, 16.518, -24.593, 149.112, -10.653, -15.273, -27.880, 32.01, 0.22809, 0.24078, 0.07898, 0.94003,
 14:55:43.561,ed:40:fe:65:30:6c, 2015-01-01 03:07:24.450, 0.611, 0.204, 0.767, 0, 0.183, 0, 14.782, -37.65, -133.248, -18.633, -11.453, -4.840, 28.8, -0.4104, 0.24551, 0.23862, 0.84512,
 14:55:43.561,ed:40:fe:65:30:6c, 2015-01-01 03:07:24.450, 0.611, 0.203, 0.768, 0, 0.122, 0, 14.782, -37.65, -133.237, -18.633, -11.453, -4.840, 28.8, -0.4104, 0.24551, 0.23862, 0.84512,
 14:55:43.563,ed:35:33:d3:6c:f8, 2015-01-01 03:07:19.440, 0.414, 0.26, 0.869, 0, 0.488, 0.061, 16.518, -24.582, 149.095, -10.653, -15.273, -27.880, 32.01, 0.22809, 0.24078, 0.07898, 0.94003,
 14:55:43.563,ed:35:33:d3:6c:f8, 2015-01-01 03:07:19.440, 0.414, 0.258, 0.87, -0.061, 0.427, 0, 16.518, -24.576, 149.084, -10.653, -15.273, -27.880, 32.01, 0.22809, 0.24078, 0.07898, 0.94003,
 14:55:43.583,e3:ca:2d:fd:e0:8c, 2015-01-01 03:07:18.895, 1.012, 0.097, 0.075, 0.183, 0.244, 0, 51.707, -82.996, 105.216, -25.787, -14.740, -7.080, 29.68, -0.17963, -0.67212, 0.10257, -0.71088,
 14:55:43.583,e3:ca:2d:fd:e0:8c, 2015-01-01 03:07:18.895, 1.012, 0.096, 0.074, 0.061, 0.183, 0, 51.691, -82.996, 105.227, -25.787, -14.740, -7.080, 29.68, -0.17963, -0.67212, 0.10257, -0.71088,
 14:55:43.585,f6:90:cc:01:6d:25, 2015-01-01 03:07:19.495, 0.919, 0.238, 0.265, 0.122, 0.183, 0.122, 41.792, -68.73, 163.493, -26.000, -16.253, -3.633, 32.22, -0.08884, 0.56403, 0.21576, 0.79202,
 14:55:43.585,f6:90:cc:01:6d:25, 2015-01-01 03:07:19.495, 0.919, 0.239, 0.266, 0.122, 0.122, 0.061, 41.786, -68.73, 163.482, -26.000, -16.253, -3.633, 32.22, -0.08884, 0.56403, 0.21576, 0.79202,
 14:55:43.605,ed:40:fe:65:30:6c, 2015-01-01 03:07:24.450, 0.612, 0.202, 0.77, -0.061, 0.061, 0, 14.782, -37.65, -133.226, -18.633, -11.453, -4.840, 28.8, -0.4104, 0.24551, 0.23862, 0.84512,
 14:55:43.605,ed:40:fe:65:30:6c, 2015-01-01 03:07:24.450, 0.612, 0.202, 0.769, -0.122, -0.061, -0.122, 14.782, -37.65, -133.215, -18.633, -11.453, -4.840, 28.8, -0.4104, 0.24551, 0.23862, 0.84512,
 14:55:43.606,f6:90:cc:01:6d:25, 2015-01-01 03:07:19.495, 0.919, 0.239, 0.265, 0.122, 0, 0, 41.786, -68.73, 163.477, -26.000, -16.253, -3.633, 32.22, -0.08884, 0.56403, 0.21576, 0.79202,
 14:55:43.606,f6:90:cc:01:6d:25, 2015-01-01 03:07:19.495, 0.92, 0.239, 0.265, 0, 0, 0, 41.792, -68.73, 163.471, -26.000, -16.253, -3.633, 32.22, -0.08884, 0.56403, 0.21576, 0.79202,
 14:55:43.609,ed:35:33:d3:6c:f8, 2015-01-01 03:07:19.440, 0.415, 0.258, 0.87, -0.122, 0.183, -0.183, 16.518, -24.576, 149.068, -10.653, -15.273, -27.880, 32.01, 0.22809, 0.24078, 0.07898, 0.94003,
 14:55:43.609,ed:35:33:d3:6c:f8, 2015-01-01 03:07:19.440, 0.415, 0.257, 0.868, -0.061, 0.366, -0.305, 16.518, -24.565, 149.068, -10.653, -15.273, -27.880, 32.01, 0.22809, 0.24078, 0.07898, 0.94003,
 14:55:43.627,ed:40:fe:65:30:6c, 2015-01-01 03:07:24.450, 0.613, 0.202, 0.768, -0.183, 0, -0.122, 14.782, -37.645, -133.215, -18.633, -11.453, -4.840, 28.8, -0.4104, 0.24551, 0.23862, 0.84512,
 14:55:43.627,ed:40:fe:65:30:6c, 2015-01-01 03:07:24.450, 0.612, 0.202, 0.767, -0.183, 0, -0.183, 14.777, -37.645, -133.22, -18.633, -11.453, -4.840, 28.8, -0.4104, 0.24551, 0.23862, 0.84512,
 14:55:43.628,e3:ca:2d:fd:e0:8c, 2015-01-01 03:07:19.255, 1.011, 0.098, 0.075, 0.305, 0.122, 0, 51.685, -82.991, 105.227, -25.787, -14.740, -7.080, 29.68, -0.17963, -0.67212, 0.10257, -0.71088,
 14:55:43.628,e3:ca:2d:fd:e0:8c, 2015-01-01 03:07:19.255, 1.012, 0.097, 0.075, 0.427, 0.183, 0, 51.68, -82.991, 105.238, -25.787, -14.740, -7.080, 29.68, -0.17963, -0.67212, 0.10257, -0.71088,
 14:55:43.653,f6:90:cc:01:6d:25, 2015-01-01 03:07:19.495, 0.92, 0.238, 0.266, 0, 0, 0, 41.797, -68.73, 163.477, -26.000, -16.253, -3.633, 32.22, -0.08884, 0.56403, 0.21576, 0.79202,
 14:55:43.653,f6:90:cc:01:6d:25, 2015-01-01 03:07:19.495, 0.92, 0.237, 0.266, 0, 0, 0, 41.797, -68.73, 163.477, -26.000, -16.253, -3.633, 32.22, -0.08884, 0.56403, 0.21576, 0.79202,
 14:55:43.654,ed:35:33:d3:6c:f8, 2015-01-01 03:07:19.440, 0.416, 0.259, 0.868, -0.183, 0.427, -0.305, 16.518, -24.554, 149.068, -10.653, -15.273, -27.880, 32.01, 0.22809, 0.24078, 0.07898, 0.94003,
 14:55:43.654,ed:35:33:d3:6c:f8, 2015-01-01 03:07:19.440, 0.414, 0.259, 0.867, -0.244, 0.183, -0.305, 16.518, -24.554, 149.041, -10.653, -15.273, -27.880, 32.01, 0.22809, 0.24078, 0.07898, 0.94003,
 14:55:43.672,ed:40:fe:65:30:6c, 2015-01-01 03:07:24.450, 0.611, 0.203, 0.768, -0.122, 0, -0.122, 14.777, -37.645, -133.22, -18.633, -11.453, -4.840, 28.8, -0.4104, 0.24551, 0.23862, 0.84512,
 14:55:43.672,ed:40:fe:65:30:6c, 2015-01-01 03:07:24.450, 0.612, 0.203, 0.768, -0.061, 0, -0.122, 14.777, -37.645, -133.231, -18.633, -11.453, -4.840, 28.8, -0.4104, 0.24551, 0.23862, 0.84512,
 14:55:43.673,e3:ca:2d:fd:e0:8c, 2015-01-01 03:07:19.255, 1.013, 0.096, 0.076, 0.244, 0.061, 0, 51.685, -82.991, 105.233, -25.787, -14.740, -7.080, 29.68, -0.17963, -0.67212, 0.10257, -0.71088,
 14:55:43.673,e3:ca:2d:fd:e0:8c, 2015-01-01 03:07:19.255, 1.012, 0.096, 0.076, 0, 0.061, 0, 51.685, -82.991, 105.227, -25.787, -14.740, -7.080, 29.68, -0.17963, -0.67212, 0.10257, -0.71088,
 14:55:43.695,e3:ca:2d:fd:e0:8c, 2015-01-01 03:07:19.255, 1.013, 0.096, 0.077, 0.122, 0.183, 0, 51.669, -82.991, 105.233, -25.787, -14.740, -7.080, 29.68, -0.17963, -0.67212, 0.10257, -0.71088,
 14:55:43.695,e3:ca:2d:fd:e0:8c, 2015-01-01 03:07:19.255, 1.012, 0.096, 0.078, 0.305, 0.122, 0, 51.663, -82.991, 105.233, -25.787, -14.740, -7.080, 29.68, -0.17963, -0.67212, 0.10257, -0.71088,
 14:55:43.698,ed:35:33:d3:6c:f8, 2015-01-01 03:07:19.440, 0.414, 0.259, 0.869, -0.061, 0.366, -0.305, 16.518, -24.543, 149.013, -10.653, -15.273, -27.880, 32.01, 0.22809, 0.24078, 0.07898, 0.94003,
 14:55:43.698,ed:35:33:d3:6c:f8, 2015-01-01 03:07:19.440, 0.414, 0.259, 0.868, 0, 0.488, -0.305, 16.523, -24.532, 148.991, -10.653, -15.273, -27.880, 32.01, 0.22809, 0.24078, 0.07898, 0.94003,
 14:55:43.717,ed:40:fe:65:30:6c, 2015-01-01 03:07:24.450, 0.611, 0.202, 0.768, -0.183, 0, -0.061, 14.777, -37.645, -133.237, -18.633, -11.453, -4.840, 28.8, -0.4104, 0.24551, 0.23862, 0.84512,
 14:55:43.717,ed:40:fe:65:30:6c, 2015-01-01 03:07:24.450, 0.611, 0.201, 0.768, -0.061, 0.122, 0, 14.777, -37.645, -133.242, -18.633, -11.453, -4.840, 28.8, -0.4104, 0.24551, 0.23862, 0.84512,
 14:55:43.721,f6:90:cc:01:6d:25, 2015-01-01 03:07:19.495, 0.92, 0.237, 0.268, 0, 0.061, 0, 41.797, -68.73, 163.471, -26.000, -16.253, -3.633, 32.22, -0.08884, 0.56403, 0.21576, 0.79202,
 14:55:43.721,f6:90:cc:01:6d:25, 2015-01-01 03:07:19.495, 0.919, 0.237, 0.268, 0.061, 0.061, 0, 41.797, -68.73, 163.466, -26.000, -16.253, -3.633, 32.22, -0.08884, 0.56403, 0.21576, 0.79202,
 14:55:43.740,e3:ca:2d:fd:e0:8c, 2015-01-01 03:07:19.255, 1.011, 0.097, 0.077, 0.244, 0.061, 0, 51.658, -82.991, 105.227, -25.787, -14.740, -7.080, 29.68, -0.17963, -0.67212, 0.10257, -0.71088,
 14:55:43.740,e3:ca:2d:fd:e0:8c, 2015-01-01 03:07:19.255, 1.011, 0.096, 0.078, 0.183, 0.061, 0, 51.658, -82.991, 105.222, -25.787, -14.740, -7.080, 29.68, -0.17963, -0.67212, 0.10257, -0.71088,
 14:55:43.742,f6:90:cc:01:6d:25, 2015-01-01 03:07:19.495, 0.919, 0.237, 0.267, 0.061, 0.061, 0, 41.797, -68.73, 163.455, -25.847, -16.780, -3.453, 32.22, -0.08884, 0.56403, 0.21576, 0.79202,
 14:55:43.742,f6:90:cc:01:6d:25, 2015-01-01 03:07:19.495, 0.917, 0.237, 0.267, 0.122, 0.061, 0, 41.797, -68.73, 163.449, -25.847, -16.780, -3.453, 32.22, -0.08884, 0.56403, 0.21576, 0.79202,
 14:55:43.743,ed:35:33:d3:6c:f8, 2015-01-01 03:07:19.440, 0.413, 0.258, 0.868, -0.244, 0.549, -0.244, 16.518, -24.521, 148.986, -10.627, -15.000, -28.647, 32.01, 0.22809, 0.24078, 0.07898, 0.94003,
 14:55:43.743,ed:35:33:d3:6c:f8, 2015-01-01 03:07:19.440, 0.412, 0.257, 0.868, -0.183, 0.427, -0.244, 16.518, -24.516, 148.98, -10.627, -15.000, -28.647, 32.01, 0.22809, 0.24078, 0.07898, 0.94003,
 14:55:43.766,ed:35:33:d3:6c:f8, 2015-01-01 03:07:19.440, 0.412, 0.258, 0.87, -0.122, 0.488, -0.183, 16.518, -24.505, 148.958, -10.627, -15.000, -28.647, 32.01, 0.2294, 0.23993, 0.07901, 0.93991,
 14:55:43.766,ed:35:33:d3:6c:f8, 2015-01-01 03:07:19.440, 0.412, 0.258, 0.87, -0.183, 0.244, -0.061, 16.512, -24.5, 148.936, -10.627, -15.000, -28.647, 32.01, 0.2294, 0.23993, 0.07901, 0.93991,
 14:55:43.785,ed:40:fe:65:30:6c, 2015-01-01 03:07:24.450, 0.61, 0.201, 0.768, 0, 0.122, 0, 14.777, -37.639, -133.242, -18.987, -11.373, -5.340, 28.8, -0.4104, 0.24551, 0.23862, 0.84512,
 14:55:43.785,ed:40:fe:65:30:6c, 2015-01-01 03:07:24.450, 0.609, 0.202, 0.769, 0, 0.122, 0, 14.771, -37.639, -133.248, -18.987, -11.373, -5.340, 28.8, -0.4104, 0.24551, 0.23862, 0.84512,
 14:55:43.787,f6:90:cc:01:6d:25, 2015-01-01 03:07:19.495, 0.918, 0.236, 0.267, 0.122, 0.061, 0, 41.797, -68.73, 163.444, -25.847, -16.780, -3.453, 32.22, -0.08884, 0.56403, 0.21576, 0.79202,
 14:55:43.787,f6:90:cc:01:6d:25, 2015-01-01 03:07:19.495, 0.918, 0.238, 0.267, 0.183, 0, 0, 41.797, -68.73, 163.438, -25.847, -16.780, -3.453, 32.22, -0.08884, 0.56403, 0.21576, 0.79202,
 14:55:43.807,ed:40:fe:65:30:6c, 2015-01-01 03:07:24.450, 0.611, 0.203, 0.769, -0.061, 0.061, 0.061, 14.771, -37.634, -133.248, -18.987, -11.373, -5.340, 28.8, -0.41043, 0.24533, 0.23859, 0.84515,
 14:55:43.807,ed:40:fe:65:30:6c, 2015-01-01 03:07:24.450, 0.611, 0.203, 0.769, 0, 0, 0.061, 14.771, -37.634, -133.253, -18.987, -11.373, -5.340, 28.8, -0.41043, 0.24533, 0.23859, 0.84515,
 14:55:43.809,e3:ca:2d:fd:e0:8c, 2015-01-01 03:07:19.255, 1.011, 0.095, 0.076, 0.122, 0, 0, 51.658, -82.991, 105.211, -25.787, -14.740, -7.080, 29.68, -0.17963, -0.67212, 0.10257, -0.71088,
 14:55:43.809,e3:ca:2d:fd:e0:8c, 2015-01-01 03:07:19.255, 1.011, 0.095, 0.077, 0.183, 0, 0, 51.658, -82.991, 105.194, -25.787, -14.740, -7.080, 29.68, -0.17963, -0.67212, 0.10257, -0.71088,
 14:55:43.811,ed:35:33:d3:6c:f8, 2015-01-01 03:07:19.440, 0.412, 0.259, 0.869, -0.183, 0.305, -0.122, 16.512, -24.494, 148.914, -10.627, -15.000, -28.647, 32.01, 0.2294, 0.23993, 0.07901, 0.93991,
 14:55:43.811,ed:35:33:d3:6c:f8, 2015-01-01 03:07:19.440, 0.413, 0.259, 0.869, -0.061, 0.305, -0.061, 16.507, -24.489, 148.892, -10.627, -15.000, -28.647, 32.01, 0.2294, 0.23993, 0.07901, 0.93991,
 14:55:43.811,f6:90:cc:01:6d:25, 2015-01-01 03:07:19.495, 0.919, 0.238, 0.267, 0.244, 0, 0, 41.797, -68.73, 163.427, -25.847, -16.780, -3.453, 32.22, -0.0882, 0.56424, 0.21542, 0.79205,
 14:55:43.811,f6:90:cc:01:6d:25, 2015-01-01 03:07:19.495, 0.92, 0.239, 0.267, 0.183, 0, 0, 41.803, -68.73, 163.422, -25.847, -16.780, -3.453, 32.22, -0.0882, 0.56424, 0.21542, 0.79205,
 14:55:43.831,e3:ca:2d:fd:e0:8c, 2015-01-01 03:07:19.255, 1.012, 0.097, 0.077, 0.305, 0, 0, 51.663, -82.991, 105.183, -26.027, -14.547, -7.127, 29.68, -0.17963, -0.67212, 0.10257, -0.71088,
 14:55:43.831,e3:ca:2d:fd:e0:8c, 2015-01-01 03:07:19.255, 1.013, 0.096, 0.076, 0.244, 0, 0, 51.663, -82.991, 105.167, -26.027, -14.547, -7.127, 29.68, -0.17963, -0.67212, 0.10257, -0.71088,
 14:55:43.852,ed:40:fe:65:30:6c, 2015-01-01 03:07:24.450, 0.612, 0.203, 0.769, 0, 0, 0.061, 14.766, -37.634, -133.253, -18.987, -11.373, -5.340, 28.8, -0.41043, 0.24533, 0.23859, 0.84515,
 14:55:43.852,ed:40:fe:65:30:6c, 2015-01-01 03:07:24.450, 0.611, 0.202, 0.769, 0, -0.061, 0, 14.766, -37.634, -133.259, -18.987, -11.373, -5.340, 28.8, -0.41043, 0.24533, 0.23859, 0.84515,
 14:55:43.855,f6:90:cc:01:6d:25, 2015-01-01 03:07:19.495, 0.92, 0.238, 0.266, 0.122, 0, 0, 41.803, -68.73, 163.416, -25.847, -16.780, -3.453, 32.22, -0.0882, 0.56424, 0.21542, 0.79205,
 14:55:43.855,f6:90:cc:01:6d:25, 2015-01-01 03:07:19.495, 0.918, 0.238, 0.266, 0, 0, 0, 41.803, -68.73, 163.405, -25.847, -16.780, -3.453, 32.22, -0.0882, 0.56424, 0.21542, 0.79205,
 14:55:43.857,ed:35:33:d3:6c:f8, 2015-01-01 03:07:19.730, 0.413, 0.258, 0.869, -0.061, 0.244, 0, 16.507, -24.483, 148.876, -10.627, -15.000, -28.647, 32.01, 0.2294, 0.23993, 0.07901, 0.93991,
 14:55:43.857,ed:35:33:d3:6c:f8, 2015-01-01 03:07:19.730, 0.411, 0.257, 0.871, 0, 0.549, -0.061, 16.507, -24.472, 148.859, -10.627, -15.000, -28.647, 32.01, 0.2294, 0.23993, 0.07901, 0.93991,
 14:55:43.875,ed:40:fe:65:30:6c, 2015-01-01 03:07:24.790, 0.61, 0.201, 0.771, 0.122, -0.061, 0, 14.771, -37.634, -133.264, -18.987, -11.373, -5.340, 28.8, -0.41043, 0.24533, 0.23859, 0.84515,
 14:55:43.875,ed:40:fe:65:30:6c, 2015-01-01 03:07:24.790, 0.611, 0.201, 0.769, 0.183, -0.061, 0.061, 14.771, -37.634, -133.264, -18.987, -11.373, -5.340, 28.8, -0.41043, 0.24533, 0.23859, 0.84515,
 14:55:43.877,e3:ca:2d:fd:e0:8c, 2015-01-01 03:07:19.255, 1.013, 0.097, 0.076, 0.183, -0.061, 0, 51.674, -82.991, 105.15, -26.027, -14.547, -7.127, 29.68, -0.17963, -0.67212, 0.10257, -0.71088,
 14:55:43.877,e3:ca:2d:fd:e0:8c, 2015-01-01 03:07:19.255, 1.012, 0.097, 0.076, 0.122, -0.122, 0, 51.691, -82.996, 105.123, -26.027, -14.547, -7.127, 29.68, -0.17963, -0.67212, 0.10257, -0.71088,
 14:55:43.898,e3:ca:2d:fd:e0:8c, 2015-01-01 03:07:19.255, 1.012, 0.097, 0.076, 0.122, 0, 0, 51.696, -82.996, 105.106, -26.027, -14.547, -7.127, 29.68, -0.18036, -0.67194, 0.10324, -0.71075,
 14:55:43.898,e3:ca:2d:fd:e0:8c, 2015-01-01 03:07:19.255, 1.012, 0.097, 0.076, 0.183, -0.061, 0, 51.707, -82.996, 105.084, -26.027, -14.547, -7.127, 29.68, -0.18036, -0.67194, 0.10324, -0.71075,
 14:55:43.899,f6:90:cc:01:6d:25, 2015-01-01 03:07:19.850, 0.918, 0.237, 0.266, 0.122, 0, 0, 41.808, -68.73, 163.4, -25.847, -16.780, -3.453, 32.22, -0.0882, 0.56424, 0.21542, 0.79205,
 14:55:43.899,f6:90:cc:01:6d:25, 2015-01-01 03:07:19.850, 0.919, 0.238, 0.267, 0.244, -0.122, 0, 41.814, -68.73, 163.389, -25.847, -16.780, -3.453, 32.22, -0.0882, 0.56424, 0.21542, 0.79205,
 14:55:43.901,ed:35:33:d3:6c:f8, 2015-01-01 03:07:19.730, 0.412, 0.258, 0.871, 0.061, 0.122, 0, 16.507, -24.472, 148.837, -10.627, -15.000, -28.647, 32.01, 0.2294, 0.23993, 0.07901, 0.93991,
 14:55:43.901,ed:35:33:d3:6c:f8, 2015-01-01 03:07:19.730, 0.413, 0.257, 0.869, 0.244, 0.183, 0.061, 16.512, -24.467, 148.821, -10.627, -15.000, -28.647, 32.01, 0.2294, 0.23993, 0.07901, 0.93991,
 14:55:43.919,ed:40:fe:65:30:6c, 2015-01-01 03:07:24.790, 0.611, 0.202, 0.769, 0.244, -0.122, 0, 14.777, -37.634, -133.27, -18.987, -11.373, -5.340, 28.8, -0.41043, 0.24533, 0.23859, 0.84515,
 14:55:43.919,ed:40:fe:65:30:6c, 2015-01-01 03:07:24.790, 0.612, 0.204, 0.767, 0.122, -0.122, 0, 14.777, -37.634, -133.275, -18.987, -11.373, -5.340, 28.8, -0.41043, 0.24533, 0.23859, 0.84515,
 14:55:43.923,ed:35:33:d3:6c:f8, 2015-01-01 03:07:19.730, 0.413, 0.259, 0.869, 0.183, 0.244, 0, 16.518, -24.461, 148.804, -10.627, -15.000, -28.647, 32.01, 0.2294, 0.23993, 0.07901, 0.93991,
 14:55:43.923,ed:35:33:d3:6c:f8, 2015-01-01 03:07:19.730, 0.414, 0.26, 0.869, 0.061, 0.061, 0, 16.518, -24.461, 148.782, -10.627, -15.000, -28.647, 32.01, 0.2294, 0.23993, 0.07901, 0.93991,
 14:55:43.944,f6:90:cc:01:6d:25, 2015-01-01 03:07:19.850, 0.92, 0.238, 0.266, 0.244, -0.122, 0, 41.819, -68.736, 163.378, -25.847, -16.780, -3.453, 32.22, -0.0882, 0.56424, 0.21542, 0.79205,
 14:55:43.944,f6:90:cc:01:6d:25, 2015-01-01 03:07:19.850, 0.92, 0.24, 0.265, 0.122, -0.061, 0, 41.825, -68.736, 163.367, -25.847, -16.780, -3.453, 32.22, -0.0882, 0.56424, 0.21542, 0.79205,
 14:55:43.945,e3:ca:2d:fd:e0:8c, 2015-01-01 03:07:19.255, 1.012, 0.097, 0.075, 0.183, -0.122, 0, 51.724, -82.996, 105.062, -26.027, -14.547, -7.127, 29.68, -0.18036, -0.67194, 0.10324, -0.71075,
 14:55:43.945,e3:ca:2d:fd:e0:8c, 2015-01-01 03:07:19.255, 1.012, 0.097, 0.076, 0.122, -0.061, 0, 51.74, -83.002, 105.035, -26.027, -14.547, -7.127, 29.68, -0.18036, -0.67194, 0.10324, -0.71075,
 14:55:43.964,ed:40:fe:65:30:6c, 2015-01-01 03:07:24.790, 0.613, 0.204, 0.766, 0.061, -0.122, 0, 14.782, -37.639, -133.281, -18.987, -11.373, -5.340, 28.8, -0.41043, 0.24533, 0.23859, 0.84515,
 14:55:43.964,ed:40:fe:65:30:6c, 2015-01-01 03:07:24.790, 0.613, 0.205, 0.767, 0.244, 0, 0, 14.788, -37.639, -133.286, -18.987, -11.373, -5.340, 28.8, -0.41043, 0.24533, 0.23859, 0.84515,
 14:55:43.969,ed:35:33:d3:6c:f8, 2015-01-01 03:07:19.730, 0.414, 0.26, 0.866, 0, 0.061, 0, 16.518, -24.461, 148.766, -10.627, -15.000, -28.647, 32.01, 0.2294, 0.23993, 0.07901, 0.93991,
 14:55:43.969,ed:35:33:d3:6c:f8, 2015-01-01 03:07:19.730, 0.413, 0.259, 0.869, 0.244, 0.122, 0, 16.523, -24.461, 148.744, -10.627, -15.000, -28.647, 32.01, 0.2294, 0.23993, 0.07901, 0.93991,
 14:55:43.988,e3:ca:2d:fd:e0:8c, 2015-01-01 03:07:19.610, 1.014, 0.098, 0.076, 0.122, 0, 0, 51.746, -83.002, 105.024, -26.027, -14.547, -7.127, 29.68, -0.18036, -0.67194, 0.10324, -0.71075,
 14:55:43.988,e3:ca:2d:fd:e0:8c, 2015-01-01 03:07:19.610, 1.013, 0.097, 0.075, 0.061, 0, 0, 51.751, -83.002, 105.013, -26.027, -14.547, -7.127, 29.68, -0.18036, -0.67194, 0.10324, -0.71075,
 14:55:43.989,f6:90:cc:01:6d:25, 2015-01-01 03:07:19.850, 0.92, 0.241, 0.265, 0.122, 0, 0, 41.83, -68.736, 163.356, -25.847, -16.780, -3.453, 32.22, -0.0882, 0.56424, 0.21542, 0.79205,
 14:55:43.989,f6:90:cc:01:6d:25, 2015-01-01 03:07:19.850, 0.92, 0.239, 0.266, 0.183, 0, 0, 41.836, -68.736, 163.35, -25.847, -16.780, -3.453, 32.22, -0.0882, 0.56424, 0.21542, 0.79205,
 14:55:44.011,ed:40:fe:65:30:6c, 2015-01-01 03:07:24.790, 0.612, 0.201, 0.768, 0.305, 0, 0, 14.793, -37.639, -133.286, -18.987, -11.373, -5.340, 28.8, -0.41043, 0.24533, 0.23859, 0.84515,
 14:55:44.011,ed:40:fe:65:30:6c, 2015-01-01 03:07:24.790, 0.611, 0.201, 0.767, 0.061, -0.061, 0, 14.793, -37.639, -133.292, -18.987, -11.373, -5.340, 28.8, -0.41043, 0.24533, 0.23859, 0.84515,
 14:55:44.012,f6:90:cc:01:6d:25, 2015-01-01 03:07:19.850, 0.918, 0.236, 0.266, 0.183, 0, 0, 41.841, -68.736, 163.345, -25.847, -16.780, -3.453, 32.22, -0.0882, 0.56424, 0.21542, 0.79205,
 14:55:44.012,f6:90:cc:01:6d:25, 2015-01-01 03:07:19.850, 0.919, 0.24, 0.265, 0, 0, 0, 41.841, -68.736, 163.339, -25.847, -16.780, -3.453, 32.22, -0.0882, 0.56424, 0.21542, 0.79205,
 14:55:44.014,ed:35:33:d3:6c:f8, 2015-01-01 03:07:19.730, 0.412, 0.257, 0.87, 0, 0.244, 0, 16.523, -24.456, 148.727, -10.627, -15.000, -28.647, 32.01, 0.2294, 0.23993, 0.07901, 0.93991,
 14:55:44.014,ed:35:33:d3:6c:f8, 2015-01-01 03:07:19.730, 0.414, 0.258, 0.866, 0, 0.183, 0, 16.523, -24.45, 148.711, -10.627, -15.000, -28.647, 32.01, 0.2294, 0.23993, 0.07901, 0.93991,
 14:55:44.033,e3:ca:2d:fd:e0:8c, 2015-01-01 03:07:19.610, 1.011, 0.096, 0.076, 0.122, 0.061, 0, 51.751, -83.002, 105.002, -26.027, -14.547, -7.127, 29.68, -0.18036, -0.67194, 0.10324, -0.71075,
 14:55:44.033,e3:ca:2d:fd:e0:8c, 2015-01-01 03:07:19.610, 1.006, 0.097, 0.076, 0.122, 0, 0, 51.751, -83.002, 104.991, -26.027, -14.547, -7.127, 29.68, -0.18036, -0.67194, 0.10324, -0.71075,
 14:55:44.054,ed:40:fe:65:30:6c, 2015-01-01 03:07:24.790, 0.612, 0.205, 0.766, 0, 0.122, 0, 14.793, -37.634, -133.297, -18.987, -11.373, -5.340, 28.8, -0.41043, 0.24533, 0.23859, 0.84515,
 14:55:44.054,ed:40:fe:65:30:6c, 2015-01-01 03:07:24.790, 0.611, 0.207, 0.768, 0, 0.183, 0, 14.793, -37.634, -133.297, -18.987, -11.373, -5.340, 28.8, -0.41043, 0.24533, 0.23859, 0.84515,
 14:55:44.058,ed:35:33:d3:6c:f8, 2015-01-01 03:07:19.730, 0.413, 0.26, 0.868, -0.122, 0.244, -0.305, 16.523, -24.445, 148.689, -10.413, -14.947, -28.347, 32.01, 0.2294, 0.23993, 0.07901, 0.93991,
 14:55:44.058,ed:35:33:d3:6c:f8, 2015-01-01 03:07:19.730, 0.412, 0.262, 0.869, 0.244, 0.244, -0.427, 16.534, -24.439, 148.661, -10.413, -14.947, -28.347, 32.01, 0.2294, 0.23993, 0.07901, 0.93991,
 14:55:44.077,ed:40:fe:65:30:6c, 2015-01-01 03:07:24.790, 0.612, 0.203, 0.769, 0.061, 0.183, 0, 14.793, -37.628, -133.303, -19.153, -11.120, -4.700, 28.8, -0.41043, 0.24533, 0.23859, 0.84515,
 14:55:44.077,ed:40:fe:65:30:6c, 2015-01-01 03:07:24.790, 0.612, 0.204, 0.77, 0.061, 0.122, 0, 14.799, -37.628, -133.303, -19.153, -11.120, -4.700, 28.8, -0.41043, 0.24533, 0.23859, 0.84515,
 14:55:44.079,f6:90:cc:01:6d:25, 2015-01-01 03:07:19.850, 0.92, 0.243, 0.266, 0, 0.122, 0, 41.841, -68.736, 163.334, -25.847, -16.780, -3.453, 32.22, -0.0882, 0.56424, 0.21542, 0.79205,
 14:55:44.079,f6:90:cc:01:6d:25, 2015-01-01 03:07:19.850, 0.92, 0.24, 0.265, 0.061, 0.122, 0, 41.841, -68.736, 163.334, -25.847, -16.780, -3.453, 32.22, -0.0882, 0.56424, 0.21542, 0.79205,
 14:55:44.079,e3:ca:2d:fd:e0:8c, 2015-01-01 03:07:19.610, 1.016, 0.098, 0.075, 0, 0, 0, 51.757, -83.002, 104.98, -26.027, -14.547, -7.127, 29.68, -0.18036, -0.67194, 0.10324, -0.71075,
 14:55:44.079,e3:ca:2d:fd:e0:8c, 2015-01-01 03:07:19.610, 1.017, 0.099, 0.076, 0.183, 0.183, 0, 51.74, -83.002, 104.991, -26.027, -14.547, -7.127, 29.68, -0.18036, -0.67194, 0.10324, -0.71075,
 14:55:44.100,e3:ca:2d:fd:e0:8c, 2015-01-01 03:07:19.610, 1.013, 0.097, 0.075, 0.305, 0.122, 0, 51.735, -83.002, 104.996, -26.027, -14.547, -7.127, 29.68, -0.18036, -0.67194, 0.10324, -0.71075,
 14:55:44.100,e3:ca:2d:fd:e0:8c, 2015-01-01 03:07:19.610, 1.011, 0.097, 0.077, 0, 0.061, 0, 51.735, -83.002, 104.991, -26.027, -14.547, -7.127, 29.68, -0.18036, -0.67194, 0.10324, -0.71075,
 14:55:44.102,f6:90:cc:01:6d:25, 2015-01-01 03:07:19.850, 0.921, 0.237, 0.265, 0.122, 0.061, 0, 41.841, -68.73, 163.328, -26.173, -16.453, -3.500, 32.22, -0.0882, 0.56424, 0.21542, 0.79205,
 14:55:44.102,f6:90:cc:01:6d:25, 2015-01-01 03:07:19.850, 0.921, 0.239, 0.266, 0.122, 0, 0, 41.847, -68.73, 163.323, -26.173, -16.453, -3.500, 32.22, -0.0882, 0.56424, 0.21542, 0.79205,
 14:55:44.103,ed:35:33:d3:6c:f8, 2015-01-01 03:07:19.730, 0.413, 0.26, 0.871, 0.244, 0.061, 0, 16.54, -24.439, 148.645, -10.413, -14.947, -28.347, 32.01, 0.23199, 0.23965, 0.07877, 0.93939,
 14:55:44.103,ed:35:33:d3:6c:f8, 2015-01-01 03:07:19.730, 0.412, 0.261, 0.872, 0.122, -0.061, 0.061, 16.545, -24.439, 148.629, -10.413, -14.947, -28.347, 32.01, 0.23199, 0.23965, 0.07877, 0.93939,
 14:55:44.123,ed:40:fe:65:30:6c, 2015-01-01 03:07:24.790, 0.611, 0.206, 0.77, 0, 0.122, 0, 14.799, -37.623, -133.308, -19.153, -11.120, -4.700, 28.8, -0.41043, 0.24533, 0.23859, 0.84515,
 14:55:44.123,ed:40:fe:65:30:6c, 2015-01-01 03:07:24.790, 0.609, 0.204, 0.769, 0.122, 0.122, 0, 14.799, -37.623, -133.308, -19.153, -11.120, -4.700, 28.8, -0.41043, 0.24533, 0.23859, 0.84515,
 14:55:44.126,ed:35:33:d3:6c:f8, 2015-01-01 03:07:20.045, 0.411, 0.262, 0.871, 0.061, -0.183, 0, 16.545, -24.445, 148.612, -10.413, -14.947, -28.347, 32.01, 0.23199, 0.23965, 0.07877, 0.93939,
 14:55:44.126,ed:35:33:d3:6c:f8, 2015-01-01 03:07:20.045, 0.41, 0.259, 0.871, 0.244, -0.183, 0.122, 16.551, -24.45, 148.596, -10.413, -14.947, -28.347, 32.01, 0.23199, 0.23965, 0.07877, 0.93939,
 14:55:44.146,e3:ca:2d:fd:e0:8c, 2015-01-01 03:07:19.610, 1.01, 0.097, 0.074, 0, -0.061, 0, 51.746, -83.002, 104.974, -26.027, -14.547, -7.127, 29.68, -0.18036, -0.67194, 0.10324, -0.71075,
 14:55:44.146,e3:ca:2d:fd:e0:8c, 2015-01-01 03:07:19.610, 1.011, 0.097, 0.074, 0.183, -0.122, 0, 51.768, -83.002, 104.947, -26.027, -14.547, -7.127, 29.68, -0.18036, -0.67194, 0.10324, -0.71075,
 14:55:44.147,f6:90:cc:01:6d:25, 2015-01-01 03:07:19.850, 0.918, 0.24, 0.266, 0.122, 0.122, 0, 41.847, -68.73, 163.317, -26.173, -16.453, -3.500, 32.22, -0.0882, 0.56424, 0.21542, 0.79205,
 14:55:44.147,f6:90:cc:01:6d:25, 2015-01-01 03:07:19.850, 0.918, 0.239, 0.266, 0.122, 0.061, 0, 41.847, -68.73, 163.312, -26.173, -16.453, -3.500, 32.22, -0.0882, 0.56424, 0.21542, 0.79205,
 14:55:44.168,ed:40:fe:65:30:6c, 2015-01-01 03:07:24.790, 0.61, 0.204, 0.77, 0.183, 0, 0, 14.804, -37.617, -133.314, -19.153, -11.120, -4.700, 28.8, -0.41006, 0.24527, 0.23865, 0.84537,
 14:55:44.168,ed:40:fe:65:30:6c, 2015-01-01 03:07:24.790, 0.61, 0.204, 0.767, 0.244, -0.183, 0, 14.81, -37.623, -133.314, -19.153, -11.120, -4.700, 28.8, -0.41006, 0.24527, 0.23865, 0.84537,
 14:55:44.170,f6:90:cc:01:6d:25, 2015-01-01 03:07:19.850, 0.918, 0.239, 0.265, 0.183, 0, 0, 41.852, -68.73, 163.306, -26.173, -16.453, -3.500, 32.22, -0.08762, 0.56442, 0.21518, 0.79205,
 14:55:44.170,f6:90:cc:01:6d:25, 2015-01-01 03:07:19.850, 0.918, 0.238, 0.266, 0.183, -0.061, 0, 41.858, -68.73, 163.301, -26.173, -16.453, -3.500, 32.22, -0.08762, 0.56442, 0.21518, 0.79205,
 14:55:44.172,ed:35:33:d3:6c:f8, 2015-01-01 03:07:20.045, 0.412, 0.26, 0.869, 0.244, -0.183, 0.122, 16.556, -24.456, 148.579, -10.413, -14.947, -28.347, 32.01, 0.23199, 0.23965, 0.07877, 0.93939,
 14:55:44.172,ed:35:33:d3:6c:f8, 2015-01-01 03:07:20.045, 0.412, 0.26, 0.868, 0.122, -0.061, 0.183, 16.562, -24.456, 148.568, -10.413, -14.947, -28.347, 32.01, 0.23199, 0.23965, 0.07877, 0.93939,
 14:55:44.214,e3:ca:2d:fd:e0:8c, 2015-01-01 03:07:19.610, 1.012, 0.097, 0.076, 0.244, 0, 0, 51.779, -83.002, 104.936, -26.027, -14.547, -7.127, 29.68, -0.18036, -0.67194, 0.10324, -0.71075,
 14:55:44.214,e3:ca:2d:fd:e0:8c, 2015-01-01 03:07:19.610, 1.013, 0.096, 0.077, 0.183, 0.061, 0, 51.779, -83.002, 104.93, -26.027, -14.547, -7.127, 29.68, -0.18036, -0.67194, 0.10324, -0.71075,
 14:55:44.214,ed:40:fe:65:30:6c, 2015-01-01 03:07:24.790, 0.61, 0.203, 0.768, 0.305, -0.244, 0, 14.815, -37.623, -133.319, -19.153, -11.120, -4.700, 28.8, -0.41006, 0.24527, 0.23865, 0.84537,
 14:55:44.214,ed:40:fe:65:30:6c, 2015-01-01 03:07:24.790, 0.611, 0.202, 0.767, 0.244, -0.122, 0, 14.821, -37.628, -133.325, -19.153, -11.120, -4.700, 28.8, -0.41006, 0.24527, 0.23865, 0.84537,
 14:55:44.216,f6:90:cc:01:6d:25, 2015-01-01 03:07:19.850, 0.919, 0.237, 0.267, 0.122, -0.122, 0, 41.869, -68.736, 163.29, -26.173, -16.453, -3.500, 32.22, -0.08762, 0.56442, 0.21518, 0.79205,
 14:55:44.216,f6:90:cc:01:6d:25, 2015-01-01 03:07:19.850, 0.918, 0.239, 0.268, 0.061, -0.061, 0, 41.869, -68.736, 163.279, -26.173, -16.453, -3.500, 32.22, -0.08762, 0.56442, 0.21518, 0.79205,
 14:55:44.218,ed:35:33:d3:6c:f8, 2015-01-01 03:07:20.045, 0.412, 0.258, 0.867, 0.122, 0, 0.244, 16.562, -24.456, 148.557, -10.413, -14.947, -28.347, 32.01, 0.23199, 0.23965, 0.07877, 0.93939,
 14:55:44.218,ed:35:33:d3:6c:f8, 2015-01-01 03:07:20.045, 0.412, 0.258, 0.867, 0, 0.061, 0.122, 16.562, -24.456, 148.541, -10.413, -14.947, -28.347, 32.01, 0.23199, 0.23965, 0.07877, 0.93939,
 14:55:44.234,ed:40:fe:65:30:6c, 2015-01-01 03:07:25.145, 0.61, 0.202, 0.767, 0.122, 0, 0, 14.826, -37.628, -133.33, -19.153, -11.120, -4.700, 28.8, -0.41006, 0.24527, 0.23865, 0.84537,
 14:55:44.234,ed:40:fe:65:30:6c, 2015-01-01 03:07:25.145, 0.611, 0.202, 0.766, 0.122, 0, 0, 14.826, -37.623, -133.33, -19.153, -11.120, -4.700, 28.8, -0.41006, 0.24527, 0.23865, 0.84537,
 14:55:44.235,e3:ca:2d:fd:e0:8c, 2015-01-01 03:07:19.610, 1.011, 0.096, 0.076, 0.061, -0.183, 0, 51.806, -83.007, 104.897, -25.807, -14.633, -7.413, 29.68, -0.18036, -0.67194, 0.10324, -0.71075,
 14:55:44.235,e3:ca:2d:fd:e0:8c, 2015-01-01 03:07:19.610, 1.011, 0.096, 0.078, 0.122, -0.244, 0, 51.839, -83.013, 104.854, -25.807, -14.633, -7.413, 29.68, -0.18036, -0.67194, 0.10324, -0.71075,
 14:55:44.259,f6:90:cc:01:6d:25, 2015-01-01 03:07:20.210, 0.919, 0.24, 0.267, 0.061, 0, 0, 41.874, -68.736, 163.273, -26.173, -16.453, -3.500, 32.22, -0.08762, 0.56442, 0.21518, 0.79205,
 14:55:44.259,f6:90:cc:01:6d:25, 2015-01-01 03:07:20.210, 0.92, 0.238, 0.266, 0.061, 0, 0, 41.874, -68.736, 163.268, -26.173, -16.453, -3.500, 32.22, -0.08762, 0.56442, 0.21518, 0.79205,
 14:55:44.261,ed:35:33:d3:6c:f8, 2015-01-01 03:07:20.045, 0.413, 0.259, 0.867, -0.061, 0.183, 0, 16.562, -24.45, 148.524, -10.413, -14.947, -28.347, 32.01, 0.23199, 0.23965, 0.07877, 0.93939,
 14:55:44.261,ed:35:33:d3:6c:f8, 2015-01-01 03:07:20.045, 0.412, 0.26, 0.868, -0.061, 0.183, 0.061, 16.556, -24.45, 148.513, -10.413, -14.947, -28.347, 32.01, 0.23199, 0.23965, 0.07877, 0.93939,
 14:55:44.279,ed:40:fe:65:30:6c, 2015-01-01 03:07:25.145, 0.61, 0.203, 0.768, 0.061, 0.061, 0, 14.832, -37.623, -133.336, -19.153, -11.120, -4.700, 28.8, -0.41006, 0.24527, 0.23865, 0.84537,
 14:55:44.279,ed:40:fe:65:30:6c, 2015-01-01 03:07:25.145, 0.612, 0.204, 0.767, 0.122, 0, 0, 14.832, -37.623, -133.336, -19.153, -11.120, -4.700, 28.8, -0.41006, 0.24527, 0.23865, 0.84537,
 14:55:44.282,e3:ca:2d:fd:e0:8c, 2015-01-01 03:07:19.610, 1.012, 0.098, 0.078, 0.122, 0, 0, 51.839, -83.013, 104.843, -25.807, -14.633, -7.413, 29.68, -0.18036, -0.67194, 0.10324, -0.71075,
 14:55:44.282,e3:ca:2d:fd:e0:8c, 2015-01-01 03:07:19.610, 1.013, 0.098, 0.078, 0.061, 0.061, 0, 51.833, -83.013, 104.843, -25.807, -14.633, -7.413, 29.68, -0.18036, -0.67194, 0.10324, -0.71075,
 14:55:44.303,e3:ca:2d:fd:e0:8c, 2015-01-01 03:07:19.610, 1.013, 0.096, 0.076, 0, 0, 0, 51.828, -83.013, 104.832, -25.807, -14.633, -7.413, 29.68, -0.18121, -0.67197, 0.1041, -0.71042,
 14:55:44.303,e3:ca:2d:fd:e0:8c, 2015-01-01 03:07:19.610, 1.012, 0.095, 0.077, 0, -0.061, 0, 51.833, -83.013, 104.815, -25.807, -14.633, -7.413, 29.68, -0.18121, -0.67197, 0.1041, -0.71042,
 14:55:44.305,f6:90:cc:01:6d:25, 2015-01-01 03:07:20.210, 0.92, 0.238, 0.267, 0.061, 0, 0, 41.874, -68.736, 163.262, -26.173, -16.453, -3.500, 32.22, -0.08762, 0.56442, 0.21518, 0.79205,
 14:55:44.305,f6:90:cc:01:6d:25, 2015-01-01 03:07:20.210, 0.92, 0.238, 0.266, 0.122, 0, 0, 41.874, -68.736, 163.257, -26.173, -16.453, -3.500, 32.22, -0.08762, 0.56442, 0.21518, 0.79205,
 14:55:44.306,ed:35:33:d3:6c:f8, 2015-01-01 03:07:20.045, 0.412, 0.26, 0.871, 0, 0.122, 0.122, 16.556, -24.445, 148.502, -10.413, -14.947, -28.347, 32.01, 0.23199, 0.23965, 0.07877, 0.93939,
 14:55:44.306,ed:35:33:d3:6c:f8, 2015-01-01 03:07:20.045, 0.415, 0.258, 0.868, -0.122, 0.122, 0.305, 16.551, -24.445, 148.491, -10.413, -14.947, -28.347, 32.01, 0.23199, 0.23965, 0.07877, 0.93939,
 14:55:44.325,ed:40:fe:65:30:6c, 2015-01-01 03:07:25.145, 0.613, 0.203, 0.768, 0.122, 0, 0, 14.832, -37.623, -133.341, -19.153, -11.120, -4.700, 28.8, -0.41006, 0.24527, 0.23865, 0.84537,
 14:55:44.325,ed:40:fe:65:30:6c, 2015-01-01 03:07:25.145, 0.61, 0.204, 0.767, 0.122, 0, 0, 14.837, -37.623, -133.341, -19.153, -11.120, -4.700, 28.8, -0.41006, 0.24527, 0.23865, 0.84537,
 14:55:44.329,ed:35:33:d3:6c:f8, 2015-01-01 03:07:20.045, 0.413, 0.259, 0.869, -0.305, 0.244, 0, 16.545, -24.439, 148.48, -10.367, -14.733, -28.360, 32.01, 0.23199, 0.23965, 0.07877, 0.93939,
 14:55:44.329,ed:35:33:d3:6c:f8, 2015-01-01 03:07:20.045, 0.412, 0.259, 0.868, 0, 0.366, -0.183, 16.551, -24.434, 148.458, -10.367, -14.733, -28.360, 32.01, 0.23199, 0.23965, 0.07877, 0.93939,
 14:55:44.350,f6:90:cc:01:6d:25, 2015-01-01 03:07:20.210, 0.919, 0.24, 0.266, 0.061, 0.061, 0, 41.874, -68.73, 163.251, -26.173, -16.453, -3.500, 32.22, -0.08762, 0.56442, 0.21518, 0.79205,
 14:55:44.350,f6:90:cc:01:6d:25, 2015-01-01 03:07:20.210, 0.918, 0.239, 0.266, 0, 0.061, 0, 41.874, -68.73, 163.251, -26.173, -16.453, -3.500, 32.22, -0.08762, 0.56442, 0.21518, 0.79205,
 14:55:44.370,ed:40:fe:65:30:6c, 2015-01-01 03:07:25.145, 0.611, 0.204, 0.768, 0.122, 0.122, 0, 14.837, -37.617, -133.347, -19.153, -11.120, -4.700, 28.8, -0.41006, 0.24527, 0.23865, 0.84537,
 14:55:44.370,ed:40:fe:65:30:6c, 2015-01-01 03:07:25.145, 0.612, 0.205, 0.769, 0.061, 0.061, 0, 14.837, -37.617, -133.347, -19.153, -11.120, -4.700, 28.8, -0.41006, 0.24527, 0.23865, 0.84537,
 14:55:44.372,f6:90:cc:01:6d:25, 2015-01-01 03:07:20.210, 0.919, 0.239, 0.264, 0, 0, 0, 41.874, -68.73, 163.246, -26.173, -16.453, -3.500, 32.22, -0.08762, 0.56442, 0.21518, 0.79205,
 14:55:44.372,f6:90:cc:01:6d:25, 2015-01-01 03:07:20.210, 0.92, 0.24, 0.264, 0, 0, 0, 41.874, -68.73, 163.24, -26.173, -16.453, -3.500, 32.22, -0.08762, 0.56442, 0.21518, 0.79205,
 14:55:44.374,ed:35:33:d3:6c:f8, 2015-01-01 03:07:20.045, 0.412, 0.263, 0.869, 0, 0.427, 0, 16.551, -24.428, 148.447, -10.367, -14.733, -28.360, 32.01, 0.23199, 0.23965, 0.07877, 0.93939,
 14:55:44.374,ed:35:33:d3:6c:f8, 2015-01-01 03:07:20.045, 0.414, 0.26, 0.871, 0.122, 0.122, 0.122, 16.551, -24.423, 148.436, -10.367, -14.733, -28.360, 32.01, 0.23199, 0.23965, 0.07877, 0.93939,
 14:55:44.393,ed:40:fe:65:30:6c, 2015-01-01 03:07:25.145, 0.613, 0.204, 0.768, 0, 0, 0, 14.843, -37.617, -133.352, -19.153, -11.120, -4.700, 28.8, -0.41006, 0.24527, 0.23865, 0.84537,
 14:55:44.393,ed:40:fe:65:30:6c, 2015-01-01 03:07:25.145, 0.613, 0.203, 0.769, -0.061, -0.061, 0, 14.837, -37.617, -133.358, -19.153, -11.120, -4.700, 28.8, -0.41006, 0.24527, 0.23865, 0.84537,
 14:55:44.395,e3:ca:2d:fd:e0:8c, 2015-01-01 03:07:19.610, 1.011, 0.097, 0.076, 0.122, 0.061, 0, 51.828, -83.013, 104.81, -25.807, -14.633, -7.413, 29.68, -0.18121, -0.67197, 0.1041, -0.71042,
 14:55:44.395,e3:ca:2d:fd:e0:8c, 2015-01-01 03:07:19.610, 1.011, 0.097, 0.074, 0.183, 0.061, 0, 51.823, -83.013, 104.81, -25.807, -14.633, -7.413, 29.68, -0.18121, -0.67197, 0.1041, -0.71042,
 14:55:44.416,e3:ca:2d:fd:e0:8c, 2015-01-01 03:07:20.010, 1.013, 0.097, 0.074, 0.122, 0.061, 0, 51.817, -83.013, 104.81, -25.807, -14.633, -7.413, 29.68, -0.18121, -0.67197, 0.1041, -0.71042,
 14:55:44.416,e3:ca:2d:fd:e0:8c, 2015-01-01 03:07:20.010, 1.013, 0.099, 0.074, -0.061, 0, 0, 51.823, -83.013, 104.799, -25.807, -14.633, -7.413, 29.68, -0.18121, -0.67197, 0.1041, -0.71042,
 14:55:44.419,ed:35:33:d3:6c:f8, 2015-01-01 03:07:20.045, 0.414, 0.259, 0.87, -0.061, 0, 0, 16.551, -24.423, 148.42, -10.367, -14.733, -28.360, 32.01, 0.23364, 0.23972, 0.07846, 0.939,
 14:55:44.419,ed:35:33:d3:6c:f8, 2015-01-01 03:07:20.045, 0.413, 0.259, 0.87, -0.061, -0.061, -0.061, 16.551, -24.428, 148.403, -10.367, -14.733, -28.360, 32.01, 0.23364, 0.23972, 0.07846, 0.939,
 14:55:44.438,e3:ca:2d:fd:e0:8c, 2015-01-01 03:07:20.010, 1.013, 0.097, 0.073, -0.061, 0, 0, 51.828, -83.013, 104.788, -25.807, -14.633, -7.413, 29.68, -0.18121, -0.67197, 0.1041, -0.71042,
 14:55:44.438,e3:ca:2d:fd:e0:8c, 2015-01-01 03:07:20.010, 1.012, 0.096, 0.074, 0, 0, 0, 51.833, -83.013, 104.777, -25.807, -14.633, -7.413, 29.68, -0.18121, -0.67197, 0.1041, -0.71042,
 14:55:44.438,ed:40:fe:65:30:6c, 2015-01-01 03:07:25.145, 0.612, 0.202, 0.767, 0, 0, 0, 14.837, -37.617, -133.358, -19.153, -11.120, -4.700, 28.8, -0.41006, 0.24527, 0.23865, 0.84537,
 14:55:44.438,ed:40:fe:65:30:6c, 2015-01-01 03:07:25.145, 0.612, 0.201, 0.767, 0, 0, 0, 14.837, -37.617, -133.363, -19.153, -11.120, -4.700, 28.8, -0.41006, 0.24527, 0.23865, 0.84537,
 14:55:44.440,f6:90:cc:01:6d:25, 2015-01-01 03:07:20.210, 0.92, 0.239, 0.264, -0.061, 0, 0, 41.874, -68.73, 163.235, -26.173, -16.453, -3.500, 32.22, -0.08762, 0.56442, 0.21518, 0.79205,
 14:55:44.440,f6:90:cc:01:6d:25, 2015-01-01 03:07:20.210, 0.919, 0.24, 0.264, -0.061, 0, 0, 41.88, -68.73, 163.229, -26.173, -16.453, -3.500, 32.22, -0.08762, 0.56442, 0.21518, 0.79205,
 14:55:44.461,e3:ca:2d:fd:e0:8c, 2015-01-01 03:07:20.010, 1.012, 0.096, 0.075, 0, 0.061, 0, 51.828, -83.013, 104.777, -25.807, -14.633, -7.413, 29.68, -0.18121, -0.67197, 0.1041, -0.71042,
 14:55:44.461,e3:ca:2d:fd:e0:8c, 2015-01-01 03:07:20.010, 1.012, 0.096, 0.075, 0, 0.122, 0, 51.823, -83.013, 104.782, -25.807, -14.633, -7.413, 29.68, -0.18121, -0.67197, 0.1041, -0.71042,
 14:55:44.463,f6:90:cc:01:6d:25, 2015-01-01 03:07:20.210, 0.92, 0.238, 0.265, 0, 0, 0, 41.88, -68.736, 163.224, -25.940, -16.953, -3.193, 32.22, -0.08762, 0.56442, 0.21518, 0.79205,
 14:55:44.463,f6:90:cc:01:6d:25, 2015-01-01 03:07:20.210, 0.919, 0.239, 0.266, 0, 0, 0, 41.88, -68.736, 163.218, -25.940, -16.953, -3.193, 32.22, -0.08762, 0.56442, 0.21518, 0.79205,
 14:55:44.464,ed:35:33:d3:6c:f8, 2015-01-01 03:07:20.360, 0.413, 0.258, 0.869, 0, -0.122, -0.061, 16.556, -24.428, 148.387, -10.367, -14.733, -28.360, 32.01, 0.23364, 0.23972, 0.07846, 0.939,
 14:55:44.464,ed:35:33:d3:6c:f8, 2015-01-01 03:07:20.360, 0.413, 0.259, 0.867, 0.061, -0.061, 0, 16.556, -24.428, 148.376, -10.367, -14.733, -28.360, 32.01, 0.23364, 0.23972, 0.07846, 0.939,
 14:55:44.505,ed:40:fe:65:30:6c, 2015-01-01 03:07:25.145, 0.612, 0.204, 0.766, 0, -0.061, 0, 14.837, -37.617, -133.363, -19.327, -11.947, -4.640, 28.8, -0.41006, 0.24527, 0.23865, 0.84537,
 14:55:44.505,ed:40:fe:65:30:6c, 2015-01-01 03:07:25.145, 0.61, 0.204, 0.768, 0.061, 0, 0, 14.843, -37.617, -133.369, -19.327, -11.947, -4.640, 28.8, -0.41006, 0.24527, 0.23865, 0.84537,
 14:55:44.507,e3:ca:2d:fd:e0:8c, 2015-01-01 03:07:20.010, 1.012, 0.096, 0.076, 0.061, 0.061, 0, 51.817, -83.013, 104.782, -25.807, -14.633, -7.413, 29.68, -0.18121, -0.67197, 0.1041, -0.71042,
 14:55:44.507,e3:ca:2d:fd:e0:8c, 2015-01-01 03:07:20.010, 1.012, 0.097, 0.077, 0.122, 0.183, 0, 51.801, -83.013, 104.799, -25.807, -14.633, -7.413, 29.68, -0.18121, -0.67197, 0.1041, -0.71042,
 14:55:44.509,f6:90:cc:01:6d:25, 2015-01-01 03:07:20.210, 0.919, 0.238, 0.267, 0, 0.061, 0, 41.88, -68.736, 163.213, -25.940, -16.953, -3.193, 32.22, -0.08762, 0.56442, 0.21518, 0.79205,
 14:55:44.509,f6:90:cc:01:6d:25, 2015-01-01 03:07:20.210, 0.919, 0.239, 0.267, 0, 0.122, 0, 41.88, -68.736, 163.207, -25.940, -16.953, -3.193, 32.22, -0.08762, 0.56442, 0.21518, 0.79205,
 14:55:44.509,ed:35:33:d3:6c:f8, 2015-01-01 03:07:20.360, 0.412, 0.259, 0.868, 0, 0.061, -0.061, 16.556, -24.428, 148.359, -10.367, -14.733, -28.360, 32.01, 0.23364, 0.23972, 0.07846, 0.939,
 14:55:44.509,ed:35:33:d3:6c:f8, 2015-01-01 03:07:20.360, 0.411, 0.26, 0.869, -0.183, 0.183, -0.183, 16.556, -24.428, 148.343, -10.367, -14.733, -28.360, 32.01, 0.23364, 0.23972, 0.07846, 0.939,
 14:55:44.528,ed:40:fe:65:30:6c, 2015-01-01 03:07:25.145, 0.61, 0.204, 0.769, 0, -0.061, 0, 14.843, -37.617, -133.369, -19.327, -11.947, -4.640, 28.8, -0.40973, 0.24521, 0.2388, 0.84549,
 14:55:44.528,ed:40:fe:65:30:6c, 2015-01-01 03:07:25.145, 0.611, 0.204, 0.768, 0, -0.061, 0, 14.843, -37.617, -133.374, -19.327, -11.947, -4.640, 28.8, -0.40973, 0.24521, 0.2388, 0.84549,
 14:55:44.530,ed:35:33:d3:6c:f8, 2015-01-01 03:07:20.360, 0.411, 0.26, 0.87, -0.122, 0.549, -0.244, 16.556, -24.412, 148.326, -10.367, -14.733, -28.360, 32.01, 0.23364, 0.23972, 0.07846, 0.939,
 14:55:44.530,ed:35:33:d3:6c:f8, 2015-01-01 03:07:20.360, 0.411, 0.26, 0.87, -0.122, 0.061, -0.122, 16.556, -24.412, 148.31, -10.367, -14.733, -28.360, 32.01, 0.23364, 0.23972, 0.07846, 0.939,
 14:55:44.551,e3:ca:2d:fd:e0:8c, 2015-01-01 03:07:20.010, 1.012, 0.097, 0.078, 0, 0.183, 0, 51.779, -83.007, 104.81, -25.807, -14.633, -7.413, 29.68, -0.18121, -0.67197, 0.1041, -0.71042,
 14:55:44.551,e3:ca:2d:fd:e0:8c, 2015-01-01 03:07:20.010, 1.011, 0.098, 0.076, -0.061, 0.122, 0, 51.762, -83.007, 104.821, -25.807, -14.633, -7.413, 29.68, -0.18121, -0.67197, 0.1041, -0.71042,
 14:55:44.572,ed:40:fe:65:30:6c, 2015-01-01 03:07:25.145, 0.61, 0.204, 0.769, 0, 0, 0, 14.843, -37.617, -133.374, -19.327, -11.947, -4.640, 28.8, -0.40973, 0.24521, 0.2388, 0.84549,
 14:55:44.572,ed:40:fe:65:30:6c, 2015-01-01 03:07:25.145, 0.609, 0.203, 0.769, 0, 0, 0, 14.843, -37.617, -133.38, -19.327, -11.947, -4.640, 28.8, -0.40973, 0.24521, 0.2388, 0.84549,
 14:55:44.575,f6:90:cc:01:6d:25, 2015-01-01 03:07:20.210, 0.918, 0.239, 0.267, -0.061, 0.122, 0, 41.874, -68.73, 163.207, -25.940, -16.953, -3.193, 32.22, -0.08704, 0.56461, 0.21487, 0.79205,
 14:55:44.575,f6:90:cc:01:6d:25, 2015-01-01 03:07:20.210, 0.918, 0.239, 0.267, -0.061, 0.122, 0, 41.874, -68.73, 163.207, -25.940, -16.953, -3.193, 32.22, -0.08704, 0.56461, 0.21487, 0.79205,
 14:55:44.577,ed:35:33:d3:6c:f8, 2015-01-01 03:07:20.360, 0.41, 0.26, 0.87, -0.061, 0.122, -0.061, 16.556, -24.412, 148.299, -10.367, -14.733, -28.360, 32.01, 0.23364, 0.23972, 0.07846, 0.939,
 14:55:44.577,ed:35:33:d3:6c:f8, 2015-01-01 03:07:20.360, 0.41, 0.259, 0.87, -0.122, 0, -0.061, 16.551, -24.412, 148.282, -10.367, -14.733, -28.360, 32.01, 0.23364, 0.23972, 0.07846, 0.939,
 14:55:44.594,ed:40:fe:65:30:6c, 2015-01-01 03:07:25.500, 0.609, 0.203, 0.768, -0.061, 0, 0, 14.843, -37.617, -133.38, -19.327, -11.947, -4.640, 28.8, -0.40973, 0.24521, 0.2388, 0.84549,
 14:55:44.594,ed:40:fe:65:30:6c, 2015-01-01 03:07:25.500, 0.609, 0.202, 0.769, -0.061, 0, 0, 14.837, -37.617, -133.385, -19.327, -11.947, -4.640, 28.8, -0.40973, 0.24521, 0.2388, 0.84549,
 14:55:44.597,f6:90:cc:01:6d:25, 2015-01-01 03:07:20.565, 0.917, 0.238, 0.267, 0, 0.061, 0, 41.869, -68.73, 163.207, -25.940, -16.953, -3.193, 32.22, -0.08704, 0.56461, 0.21487, 0.79205,
 14:55:44.597,f6:90:cc:01:6d:25, 2015-01-01 03:07:20.565, 0.917, 0.237, 0.268, 0.183, 0, 0, 41.869, -68.725, 163.202, -25.940, -16.953, -3.193, 32.22, -0.08704, 0.56461, 0.21487, 0.79205,
 14:55:44.618,e3:ca:2d:fd:e0:8c, 2015-01-01 03:07:20.010, 1.011, 0.097, 0.076, 0, 0.122, 0, 51.746, -83.007, 104.826, -25.807, -14.633, -7.413, 29.68, -0.18121, -0.67197, 0.1041, -0.71042,
 14:55:44.618,e3:ca:2d:fd:e0:8c, 2015-01-01 03:07:20.010, 1.012, 0.096, 0.076, 0.061, 0.061, 0, 51.74, -83.007, 104.826, -25.807, -14.633, -7.413, 29.68, -0.18121, -0.67197, 0.1041, -0.71042,
 14:55:44.619,f6:90:cc:01:6d:25, 2015-01-01 03:07:20.565, 0.917, 0.237, 0.267, 0.122, -0.061, 0, 41.869, -68.73, 163.196, -25.940, -16.953, -3.193, 32.22, -0.08704, 0.56461, 0.21487, 0.79205,
 14:55:44.619,f6:90:cc:01:6d:25, 2015-01-01 03:07:20.565, 0.919, 0.238, 0.267, 0.183, -0.061, 0, 41.874, -68.73, 163.191, -25.940, -16.953, -3.193, 32.22, -0.08704, 0.56461, 0.21487, 0.79205,
 14:55:44.622,ed:35:33:d3:6c:f8, 2015-01-01 03:07:20.360, 0.409, 0.258, 0.869, -0.122, 0, 0, 16.551, -24.412, 148.271, -10.367, -14.733, -28.360, 32.01, 0.23364, 0.23972, 0.07846, 0.939,
 14:55:44.622,ed:35:33:d3:6c:f8, 2015-01-01 03:07:20.360, 0.409, 0.258, 0.87, -0.061, 0.122, 0, 16.551, -24.406, 148.26, -10.367, -14.733, -28.360, 32.01, 0.23364, 0.23972, 0.07846, 0.939,
 14:55:44.641,e3:ca:2d:fd:e0:8c, 2015-01-01 03:07:20.010, 1.011, 0.096, 0.077, 0.244, 0, 0, 51.746, -83.007, 104.815, -26.080, -14.573, -7.013, 29.68, -0.18121, -0.67197, 0.1041, -0.71042,
 14:55:44.641,e3:ca:2d:fd:e0:8c, 2015-01-01 03:07:20.010, 1.012, 0.096, 0.077, 0.122, 0, 0, 51.751, -83.007, 104.81, -26.080, -14.573, -7.013, 29.68, -0.18121, -0.67197, 0.1041, -0.71042,
 14:55:44.641,ed:40:fe:65:30:6c, 2015-01-01 03:07:25.500, 0.61, 0.202, 0.769, 0, -0.061, 0, 14.837, -37.617, -133.385, -19.327, -11.947, -4.640, 28.8, -0.40973, 0.24521, 0.2388, 0.84549,
 14:55:44.641,ed:40:fe:65:30:6c, 2015-01-01 03:07:25.500, 0.61, 0.202, 0.768, 0.183, -0.122, 0, 14.843, -37.617, -133.391, -19.327, -11.947, -4.640, 28.8, -0.40973, 0.24521, 0.2388, 0.84549,
 14:55:44.664,f6:90:cc:01:6d:25, 2015-01-01 03:07:20.565, 0.919, 0.237, 0.267, 0.305, -0.061, 0, 41.88, -68.73, 163.185, -25.940, -16.953, -3.193, 32.22, -0.08704, 0.56461, 0.21487, 0.79205,
 14:55:44.664,f6:90:cc:01:6d:25, 2015-01-01 03:07:20.565, 0.92, 0.237, 0.267, 0.366, -0.061, 0, 41.885, -68.73, 163.174, -25.940, -16.953, -3.193, 32.22, -0.08704, 0.56461, 0.21487, 0.79205,
 14:55:44.666,ed:35:33:d3:6c:f8, 2015-01-01 03:07:20.360, 0.411, 0.258, 0.871, 0, 0.183, 0.122, 16.551, -24.401, 148.25, -10.447, -14.247, -28.687, 32.01, 0.23364, 0.23972, 0.07846, 0.939,
 14:55:44.666,ed:35:33:d3:6c:f8, 2015-01-01 03:07:20.360, 0.411, 0.257, 0.869, 0.305, 0.061, 0.183, 16.556, -24.401, 148.244, -10.447, -14.247, -28.687, 32.01, 0.23364, 0.23972, 0.07846, 0.939,
 14:55:44.684,ed:40:fe:65:30:6c, 2015-01-01 03:07:25.500, 0.612, 0.202, 0.768, 0.305, -0.183, 0, 14.848, -37.617, -133.396, -19.327, -11.947, -4.640, 28.8, -0.40973, 0.24521, 0.2388, 0.84549,
 14:55:44.684,ed:40:fe:65:30:6c, 2015-01-01 03:07:25.500, 0.612, 0.201, 0.769, 0.305, -0.183, 0, 14.854, -37.623, -133.396, -19.327, -11.947, -4.640, 28.8, -0.40973, 0.24521, 0.2388, 0.84549,
 14:55:44.686,e3:ca:2d:fd:e0:8c, 2015-01-01 03:07:20.010, 1.013, 0.096, 0.075, 0.061, -0.061, 0, 51.751, -83.007, 104.799, -26.080, -14.573, -7.013, 29.68, -0.18121, -0.67197, 0.1041, -0.71042,
 14:55:44.686,e3:ca:2d:fd:e0:8c, 2015-01-01 03:07:20.010, 1.013, 0.096, 0.076, 0.183, -0.122, 0, 51.762, -83.013, 104.782, -26.080, -14.573, -7.013, 29.68, -0.18121, -0.67197, 0.1041, -0.71042,
 14:55:44.691,ed:35:33:d3:6c:f8, 2015-01-01 03:07:20.360, 0.412, 0.256, 0.87, 0.183, 0.183, 0.061, 16.556, -24.401, 148.233, -10.447, -14.247, -28.687, 32.01, 0.23544, 0.23965, 0.07812, 0.93857,
 14:55:44.691,ed:35:33:d3:6c:f8, 2015-01-01 03:07:20.360, 0.411, 0.26, 0.871, 0, -0.122, 0, 16.556, -24.395, 148.217, -10.447, -14.247, -28.687, 32.01, 0.23544, 0.23965, 0.07812, 0.93857,
 14:55:44.708,e3:ca:2d:fd:e0:8c, 2015-01-01 03:07:20.010, 1.012, 0.096, 0.077, 0.244, -0.122, 0, 51.779, -83.013, 104.755, -26.080, -14.573, -7.013, 29.68, -0.18201, -0.67181, 0.10489, -0.71024,
 14:55:44.708,e3:ca:2d:fd:e0:8c, 2015-01-01 03:07:20.010, 1.012, 0.097, 0.077, 0.061, -0.061, 0, 51.795, -83.018, 104.733, -26.080, -14.573, -7.013, 29.68, -0.18201, -0.67181, 0.10489, -0.71024,
 14:55:44.709,f6:90:cc:01:6d:25, 2015-01-01 03:07:20.565, 0.919, 0.238, 0.266, 0.183, -0.122, 0, 41.891, -68.73, 163.169, -25.940, -16.953, -3.193, 32.22, -0.08704, 0.56461, 0.21487, 0.79205,
 14:55:44.709,f6:90:cc:01:6d:25, 2015-01-01 03:07:20.565, 0.919, 0.239, 0.266, 0.122, -0.122, 0, 41.896, -68.73, 163.158, -25.940, -16.953, -3.193, 32.22, -0.08704, 0.56461, 0.21487, 0.79205,
 14:55:44.729,ed:40:fe:65:30:6c, 2015-01-01 03:07:25.500, 0.612, 0.203, 0.769, 0.183, -0.061, 0, 14.859, -37.623, -133.401, -19.327, -11.947, -4.640, 28.8, -0.40973, 0.24521, 0.2388, 0.84549,
 14:55:44.729,ed:40:fe:65:30:6c, 2015-01-01 03:07:25.500, 0.611, 0.204, 0.77, 0.061, 0, 0, 14.859, -37.623, -133.401, -19.327, -11.947, -4.640, 28.8, -0.40973, 0.24521, 0.2388, 0.84549,
 14:55:44.733,ed:35:33:d3:6c:f8, 2015-01-01 03:07:20.360, 0.411, 0.259, 0.87, 0, -0.061, 0, 16.556, -24.401, 148.206, -10.447, -14.247, -28.687, 32.01, 0.23544, 0.23965, 0.07812, 0.93857,
 14:55:44.733,ed:35:33:d3:6c:f8, 2015-01-01 03:07:20.360, 0.412, 0.259, 0.87, 0.061, 0, 0.061, 16.556, -24.401, 148.195, -10.447, -14.247, -28.687, 32.01, 0.23544, 0.23965, 0.07812, 0.93857,
 14:55:44.753,e3:ca:2d:fd:e0:8c, 2015-01-01 03:07:20.010, 1.012, 0.097, 0.076, 0, 0, 0, 51.801, -83.018, 104.722, -26.080, -14.573, -7.013, 29.68, -0.18201, -0.67181, 0.10489, -0.71024,
 14:55:44.753,e3:ca:2d:fd:e0:8c, 2015-01-01 03:07:20.010, 1.012, 0.097, 0.075, 0.061, -0.061, 0, 51.801, -83.018, 104.711, -26.080, -14.573, -7.013, 29.68, -0.18201, -0.67181, 0.10489, -0.71024,
 14:55:44.777,f6:90:cc:01:6d:25, 2015-01-01 03:07:20.565, 0.919, 0.239, 0.266, 0.061, -0.061, 0, 41.902, -68.736, 163.152, -25.940, -16.953, -3.193, 32.22, -0.08704, 0.56461, 0.21487, 0.79205,
 14:55:44.777,f6:90:cc:01:6d:25, 2015-01-01 03:07:20.565, 0.92, 0.239, 0.266, 0.061, -0.061, 0, 41.907, -68.736, 163.147, -25.940, -16.953, -3.193, 32.22, -0.08704, 0.56461, 0.21487, 0.79205,
 14:55:44.779,ed:35:33:d3:6c:f8, 2015-01-01 03:07:20.650, 0.411, 0.257, 0.869, 0.061, 0, 0.061, 16.556, -24.401, 148.184, -10.447, -14.247, -28.687, 32.01, 0.23544, 0.23965, 0.07812, 0.93857,
 14:55:44.779,ed:35:33:d3:6c:f8, 2015-01-01 03:07:20.650, 0.413, 0.256, 0.868, 0, -0.061, 0, 16.556, -24.401, 148.173, -10.447, -14.247, -28.687, 32.01, 0.23544, 0.23965, 0.07812, 0.93857,
 14:55:44.797,ed:40:fe:65:30:6c, 2015-01-01 03:07:25.500, 0.612, 0.204, 0.768, 0.061, -0.061, 0, 14.859, -37.623, -133.407, -19.327, -11.947, -4.640, 28.8, -0.40973, 0.24521, 0.2388, 0.84549,
 14:55:44.797,ed:40:fe:65:30:6c, 2015-01-01 03:07:25.500, 0.612, 0.202, 0.769, 0.122, -0.183, 0, 14.859, -37.623, -133.407, -19.327, -11.947, -4.640, 28.8, -0.40973, 0.24521, 0.2388, 0.84549,
 14:55:44.798,e3:ca:2d:fd:e0:8c, 2015-01-01 03:07:20.415, 1.012, 0.096, 0.075, 0.122, -0.122, 0, 51.812, -83.018, 104.694, -26.080, -14.573, -7.013, 29.68, -0.18201, -0.67181, 0.10489, -0.71024,
 14:55:44.798,e3:ca:2d:fd:e0:8c, 2015-01-01 03:07:20.415, 1.013, 0.097, 0.075, 0, -0.061, 0, 51.828, -83.024, 104.672, -26.080, -14.573, -7.013, 29.68, -0.18201, -0.67181, 0.10489, -0.71024,
 14:55:44.800,f6:90:cc:01:6d:25, 2015-01-01 03:07:20.565, 0.919, 0.238, 0.266, 0.061, -0.061, 0, 41.907, -68.736, 163.136, -25.747, -16.273, -3.267, 32.22, -0.08704, 0.56461, 0.21487, 0.79205,
 14:55:44.800,f6:90:cc:01:6d:25, 2015-01-01 03:07:20.565, 0.92, 0.24, 0.264, 0.122, -0.061, 0, 41.913, -68.736, 163.13, -25.747, -16.273, -3.267, 32.22, -0.08704, 0.56461, 0.21487, 0.79205,
 14:55:44.820,ed:40:fe:65:30:6c, 2015-01-01 03:07:25.500, 0.612, 0.201, 0.767, 0.061, -0.122, 0, 14.859, -37.628, -133.412, -18.987, -11.753, -4.260, 28.8, -0.40973, 0.24521, 0.2388, 0.84549,
 14:55:44.820,ed:40:fe:65:30:6c, 2015-01-01 03:07:25.500, 0.613, 0.203, 0.766, 0.122, -0.122, 0, 14.865, -37.628, -133.412, -18.987, -11.753, -4.260, 28.8, -0.40973, 0.24521, 0.2388, 0.84549,
 14:55:44.824,ed:35:33:d3:6c:f8, 2015-01-01 03:07:20.650, 0.414, 0.258, 0.869, 0.183, 0.061, 0, 16.562, -24.401, 148.162, -10.447, -14.247, -28.687, 32.01, 0.23544, 0.23965, 0.07812, 0.93857,
 14:55:44.824,ed:35:33:d3:6c:f8, 2015-01-01 03:07:20.650, 0.413, 0.255, 0.87, 0.549, 0.549, -0.488, 16.567, -24.395, 148.151, -10.447, -14.247, -28.687, 32.01, 0.23544, 0.23965, 0.07812, 0.93857,
 14:55:44.843,e3:ca:2d:fd:e0:8c, 2015-01-01 03:07:20.415, 1.013, 0.099, 0.075, 0.061, -0.061, 0, 51.839, -83.024, 104.656, -26.080, -14.573, -7.013, 29.68, -0.18201, -0.67181, 0.10489, -0.71024,
 14:55:44.843,e3:ca:2d:fd:e0:8c, 2015-01-01 03:07:20.415, 1.013, 0.098, 0.075, 0, 0.122, 0, 51.844, -83.024, 104.645, -26.080, -14.573, -7.013, 29.68, -0.18201, -0.67181, 0.10489, -0.71024,
 14:55:44.844,f6:90:cc:01:6d:25, 2015-01-01 03:07:20.565, 0.922, 0.24, 0.266, 0, -0.061, 0, 41.913, -68.736, 163.125, -25.747, -16.273, -3.267, 32.22, -0.08704, 0.56461, 0.21487, 0.79205,
 14:55:44.844,f6:90:cc:01:6d:25, 2015-01-01 03:07:20.565, 0.92, 0.239, 0.265, 0, 0, 0, 41.913, -68.741, 163.12, -25.747, -16.273, -3.267, 32.22, -0.08704, 0.56461, 0.21487, 0.79205,
 14:55:44.864,ed:40:fe:65:30:6c, 2015-01-01 03:07:25.500, 0.614, 0.201, 0.768, 0.183, -0.244, 0, 14.865, -37.634, -133.418, -18.987, -11.753, -4.260, 28.8, -0.40973, 0.24521, 0.2388, 0.84549,
 14:55:44.864,ed:40:fe:65:30:6c, 2015-01-01 03:07:25.500, 0.613, 0.198, 0.767, 0, -0.244, -0.366, 14.87, -37.634, -133.434, -18.987, -11.753, -4.260, 28.8, -0.40973, 0.24521, 0.2388, 0.84549,
 14:55:44.866,e3:ca:2d:fd:e0:8c, 2015-01-01 03:07:20.415, 1.013, 0.099, 0.076, 0, 0.122, 0, 51.833, -83.024, 104.656, -26.080, -14.573, -7.013, 29.68, -0.18201, -0.67181, 0.10489, -0.71024,
 14:55:44.866,e3:ca:2d:fd:e0:8c, 2015-01-01 03:07:20.415, 1.012, 0.099, 0.075, -0.244, 0.122, 0, 51.817, -83.024, 104.661, -26.080, -14.573, -7.013, 29.68, -0.18201, -0.67181, 0.10489, -0.71024,
 14:55:44.868,f6:90:cc:01:6d:25, 2015-01-01 03:07:20.565, 0.92, 0.24, 0.265, -0.305, 0, -0.366, 41.918, -68.736, 163.109, -25.747, -16.273, -3.267, 32.22, -0.08658, 0.56479, 0.21463, 0.79205,
 14:55:44.868,f6:90:cc:01:6d:25, 2015-01-01 03:07:20.565, 0.919, 0.245, 0.264, -0.61, 0.183, -0.305, 41.924, -68.73, 163.092, -25.747, -16.273, -3.267, 32.22, -0.08658, 0.56479, 0.21463, 0.79205,
 14:55:44.869,ed:35:33:d3:6c:f8, 2015-01-01 03:07:20.650, 0.413, 0.256, 0.867, 0, 0.183, -0.427, 16.578, -24.384, 148.129, -10.447, -14.247, -28.687, 32.01, 0.23544, 0.23965, 0.07812, 0.93857,
 14:55:44.869,ed:35:33:d3:6c:f8, 2015-01-01 03:07:20.650, 0.413, 0.259, 0.868, 0.183, 0.305, -1.16, 16.578, -24.379, 148.101, -10.447, -14.247, -28.687, 32.01, 0.23544, 0.23965, 0.07812, 0.93857,
 14:55:44.891,ed:35:33:d3:6c:f8, 2015-01-01 03:07:20.650, 0.412, 0.265, 0.869, 0.427, 0.122, -1.465, 16.595, -24.368, 148.046, -10.447, -14.247, -28.687, 32.01, 0.23544, 0.23965, 0.07812, 0.93857,
 14:55:44.891,ed:35:33:d3:6c:f8, 2015-01-01 03:07:20.650, 0.411, 0.264, 0.873, 0.427, -0.183, -0.793, 16.617, -24.362, 147.997, -10.447, -14.247, -28.687, 32.01, 0.23544, 0.23965, 0.07812, 0.93857,
 14:55:44.909,ed:40:fe:65:30:6c, 2015-01-01 03:07:25.500, 0.614, 0.203, 0.765, -0.183, -0.061, -0.61, 14.875, -37.634, -133.451, -18.987, -11.753, -4.260, 28.8, -0.40924, 0.24539, 0.23895, 0.84564,
 14:55:44.910,ed:40:fe:65:30:6c, 2015-01-01 03:07:25.500, 0.612, 0.208, 0.767, -0.061, 0, -0.916, 14.886, -37.628, -133.473, -18.987, -11.753, -4.260, 28.8, -0.40924, 0.24539, 0.23895, 0.84564,
 14:55:44.911,e3:ca:2d:fd:e0:8c, 2015-01-01 03:07:20.415, 1.012, 0.098, 0.075, -0.366, 0.305, 0, 51.795, -83.018, 104.678, -26.080, -14.573, -7.013, 29.68, -0.18201, -0.67181, 0.10489, -0.71024,
 14:55:44.911,e3:ca:2d:fd:e0:8c, 2015-01-01 03:07:20.415, 1.012, 0.096, 0.074, -0.244, 0.305, 0, 51.757, -83.018, 104.711, -26.080, -14.573, -7.013, 29.68, -0.18201, -0.67181, 0.10489, -0.71024,
 14:55:44.934,f6:90:cc:01:6d:25, 2015-01-01 03:07:20.565, 0.919, 0.243, 0.265, -0.549, 0.305, -0.366, 41.918, -68.725, 163.087, -25.747, -16.273, -3.267, 32.22, -0.08658, 0.56479, 0.21463, 0.79205,
 14:55:44.934,f6:90:cc:01:6d:25, 2015-01-01 03:07:20.565, 0.919, 0.236, 0.265, -0.305, 0.183, -0.427, 41.918, -68.714, 163.076, -25.747, -16.273, -3.267, 32.22, -0.08658, 0.56479, 0.21463, 0.79205,
 14:55:44.936,ed:35:33:d3:6c:f8, 2015-01-01 03:07:20.650, 0.408, 0.265, 0.872, 0.427, -0.427, -0.183, 16.628, -24.362, 147.964, -10.447, -14.247, -28.687, 32.01, 0.23544, 0.23965, 0.07812, 0.93857,
 14:55:44.936,ed:35:33:d3:6c:f8, 2015-01-01 03:07:20.650, 0.408, 0.264, 0.873, 0.305, -1.16, -0.061, 16.639, -24.373, 147.936, -10.447, -14.247, -28.687, 32.01, 0.23544, 0.23965, 0.07812, 0.93857,
 14:55:44.954,ed:40:fe:65:30:6c, 2015-01-01 03:07:25.500, 0.612, 0.206, 0.769, -0.061, 0.122, -0.916, 14.897, -37.623, -133.5, -18.987, -11.753, -4.260, 28.8, -0.40924, 0.24539, 0.23895, 0.84564,
 14:55:44.954,ed:40:fe:65:30:6c, 2015-01-01 03:07:25.500, 0.611, 0.205, 0.77, -0.061, 0, -0.549, 14.903, -37.623, -133.511, -18.987, -11.753, -4.260, 28.8, -0.40924, 0.24539, 0.23895, 0.84564,
 14:55:44.956,e3:ca:2d:fd:e0:8c, 2015-01-01 03:07:20.415, 1.012, 0.094, 0.075, 0, 0.122, 0, 51.729, -83.013, 104.738, -26.080, -14.573, -7.013, 29.68, -0.18201, -0.67181, 0.10489, -0.71024,
 14:55:44.956,e3:ca:2d:fd:e0:8c, 2015-01-01 03:07:20.415, 1.011, 0.095, 0.076, 0.061, -0.061, 0, 51.729, -83.013, 104.738, -26.080, -14.573, -7.013, 29.68, -0.18201, -0.67181, 0.10489, -0.71024,
 14:55:44.958,f6:90:cc:01:6d:25, 2015-01-01 03:07:20.900, 0.92, 0.235, 0.265, -0.061, 0, -0.427, 41.929, -68.708, 163.054, -25.747, -16.273, -3.267, 32.22, -0.08658, 0.56479, 0.21463, 0.79205,
 14:55:44.958,f6:90:cc:01:6d:25, 2015-01-01 03:07:20.900, 0.918, 0.238, 0.267, 0, 0, -0.244, 41.946, -68.703, 163.037, -25.747, -16.273, -3.267, 32.22, -0.08658, 0.56479, 0.21463, 0.79205,
 14:55:44.977,ed:40:fe:65:30:6c, 2015-01-01 03:07:25.860, 0.609, 0.207, 0.771, 0, 0, -0.183, 14.908, -37.623, -133.522, -18.987, -11.753, -4.260, 28.8, -0.40924, 0.24539, 0.23895, 0.84564,
 14:55:44.977,ed:40:fe:65:30:6c, 2015-01-01 03:07:25.860, 0.607, 0.206, 0.771, 0.183, 0, 0, 14.908, -37.617, -133.522, -18.987, -11.753, -4.260, 28.8, -0.40924, 0.24539, 0.23895, 0.84564,
 14:55:44.979,f6:90:cc:01:6d:25, 2015-01-01 03:07:20.900, 0.916, 0.238, 0.268, 0.305, 0, -0.183, 41.957, -68.703, 163.026, -25.747, -16.273, -3.267, 32.22, -0.08658, 0.56479, 0.21463, 0.79205,
 14:55:44.979,f6:90:cc:01:6d:25, 2015-01-01 03:07:20.900, 0.917, 0.239, 0.268, 0.488, -0.183, -0.061, 41.973, -68.703, 163.01, -25.747, -16.273, -3.267, 32.22, -0.08658, 0.56479, 0.21463, 0.79205,
 14:55:44.982,ed:35:33:d3:6c:f8, 2015-01-01 03:07:20.650, 0.405, 0.264, 0.871, 0, -1.038, 0, 16.65, -24.395, 147.931, -10.427, -14.467, -29.213, 32.01, 0.23544, 0.23965, 0.07812, 0.93857,
 14:55:44.982,ed:35:33:d3:6c:f8, 2015-01-01 03:07:20.650, 0.408, 0.264, 0.871, 0.305, -0.916, 0.366, 16.655, -24.417, 147.914, -10.427, -14.467, -29.213, 32.01, 0.23544, 0.23965, 0.07812, 0.93857,
 14:55:44.999,ed:40:fe:65:30:6c, 2015-01-01 03:07:25.860, 0.606, 0.206, 0.771, 0.061, -0.183, 0.122, 14.914, -37.623, -133.522, -18.987, -11.753, -4.260, 28.8, -0.40924, 0.24539, 0.23895, 0.84564,
 14:55:44.999,ed:40:fe:65:30:6c, 2015-01-01 03:07:25.860, 0.61, 0.208, 0.77, 0.366, -0.366, 0.366, 14.914, -37.628, -133.517, -18.987, -11.753, -4.260, 28.8, -0.40924, 0.24539, 0.23895, 0.84564,
 14:55:45.024,e3:ca:2d:fd:e0:8c, 2015-01-01 03:07:20.415, 1.01, 0.097, 0.077, 0, -0.183, 0, 51.746, -83.013, 104.722, -25.547, -14.953, -6.773, 29.68, -0.18201, -0.67181, 0.10489, -0.71024,
 14:55:45.024,e3:ca:2d:fd:e0:8c, 2015-01-01 03:07:20.415, 1.01, 0.096, 0.076, 0.183, -0.183, 0, 51.773, -83.018, 104.689, -25.547, -14.953, -6.773, 29.68, -0.18201, -0.67181, 0.10489, -0.71024,
 14:55:45.025,f6:90:cc:01:6d:25, 2015-01-01 03:07:20.900, 0.919, 0.241, 0.269, 0.427, -0.366, 0, 41.99, -68.708, 162.999, -25.747, -16.273, -3.267, 32.22, -0.08658, 0.56479, 0.21463, 0.79205,
 14:55:45.026,f6:90:cc:01:6d:25, 2015-01-01 03:07:20.900, 0.918, 0.241, 0.269, 0.244, -0.366, 0.061, 42.006, -68.714, 162.982, -25.747, -16.273, -3.267, 32.22, -0.08658, 0.56479, 0.21463, 0.79205,
 14:55:45.027,ed:35:33:d3:6c:f8, 2015-01-01 03:07:20.650, 0.412, 0.263, 0.868, 0.427, -0.427, 0.488, 16.661, -24.428, 147.931, -10.427, -14.467, -29.213, 32.01, 0.23764, 0.2403, 0.07825, 0.93784,
 14:55:45.027,ed:35:33:d3:6c:f8, 2015-01-01 03:07:20.650, 0.412, 0.262, 0.865, -0.061, -0.244, 0.244, 16.666, -24.439, 147.931, -10.427, -14.467, -29.213, 32.01, 0.23764, 0.2403, 0.07825, 0.93784,
 14:55:45.045,ed:40:fe:65:30:6c, 2015-01-01 03:07:25.860, 0.61, 0.207, 0.766, 0.183, -0.488, 0.366, 14.914, -37.639, -133.511, -18.987, -11.753, -4.260, 28.8, -0.40924, 0.24539, 0.23895, 0.84564,
 14:55:45.045,ed:40:fe:65:30:6c, 2015-01-01 03:07:25.860, 0.609, 0.206, 0.766, 0, -0.244, 0.305, 14.914, -37.645, -133.511, -18.987, -11.753, -4.260, 28.8, -0.40924, 0.24539, 0.23895, 0.84564,
 14:55:45.045,e3:ca:2d:fd:e0:8c, 2015-01-01 03:07:20.415, 1.011, 0.097, 0.077, 0.366, -0.244, 0, 51.801, -83.018, 104.656, -25.547, -14.953, -6.773, 29.68, -0.18243, -0.67178, 0.10538, -0.71008,
 14:55:45.045,e3:ca:2d:fd:e0:8c, 2015-01-01 03:07:20.415, 1.011, 0.098, 0.079, 0.305, -0.244, 0, 51.844, -83.024, 104.617, -25.547, -14.953, -6.773, 29.68, -0.18243, -0.67178, 0.10538, -0.71008,
 14:55:45.071,ed:35:33:d3:6c:f8, 2015-01-01 03:07:20.960, 0.411, 0.26, 0.865, -0.183, 0, 0.183, 16.661, -24.439, 147.942, -10.427, -14.467, -29.213, 32.01, 0.23764, 0.2403, 0.07825, 0.93784,
 14:55:45.071,ed:35:33:d3:6c:f8, 2015-01-01 03:07:20.960, 0.413, 0.259, 0.865, -0.122, 0.244, 0.183, 16.661, -24.439, 147.947, -10.427, -14.467, -29.213, 32.01, 0.23764, 0.2403, 0.07825, 0.93784,
 14:55:45.071,f6:90:cc:01:6d:25, 2015-01-01 03:07:20.900, 0.917, 0.242, 0.268, 0.061, -0.244, 0.122, 42.012, -68.719, 162.971, -25.747, -16.273, -3.267, 32.22, -0.08658, 0.56479, 0.21463, 0.79205,
 14:55:45.071,f6:90:cc:01:6d:25, 2015-01-01 03:07:20.900, 0.918, 0.241, 0.269, 0, -0.183, 0.122, 42.017, -68.719, 162.96, -25.747, -16.273, -3.267, 32.22, -0.08658, 0.56479, 0.21463, 0.79205,
 14:55:45.089,ed:40:fe:65:30:6c, 2015-01-01 03:07:25.860, 0.61, 0.205, 0.766, 0, -0.122, 0.183, 14.914, -37.645, -133.506, -18.987, -11.753, -4.260, 28.8, -0.40924, 0.24539, 0.23895, 0.84564,
 14:55:45.089,ed:40:fe:65:30:6c, 2015-01-01 03:07:25.860, 0.611, 0.201, 0.766, 0, 0, 0.122, 14.908, -37.645, -133.506, -18.987, -11.753, -4.260, 28.8, -0.40924, 0.24539, 0.23895, 0.84564,
 14:55:45.091,e3:ca:2d:fd:e0:8c, 2015-01-01 03:07:20.415, 1.011, 0.099, 0.08, 0.122, -0.183, 0, 51.877, -83.029, 104.584, -25.547, -14.953, -6.773, 29.68, -0.18243, -0.67178, 0.10538, -0.71008,
 14:55:45.091,e3:ca:2d:fd:e0:8c, 2015-01-01 03:07:20.415, 1.011, 0.1, 0.079, -0.061, -0.183, 0, 51.899, -83.029, 104.551, -25.547, -14.953, -6.773, 29.68, -0.18243, -0.67178, 0.10538, -0.71008,
 14:55:45.093,ed:35:33:d3:6c:f8, 2015-01-01 03:07:20.960, 0.414, 0.256, 0.867, -0.244, 0.366, 0.061, 16.655, -24.434, 147.953, -10.427, -14.467, -29.213, 32.01, 0.23764, 0.2403, 0.07825, 0.93784,
 14:55:45.093,ed:35:33:d3:6c:f8, 2015-01-01 03:07:20.960, 0.413, 0.261, 0.868, -0.305, 0.183, 0, 16.65, -24.428, 147.931, -10.427, -14.467, -29.213, 32.01, 0.23764, 0.2403, 0.07825, 0.93784,
 14:55:45.113,e3:ca:2d:fd:e0:8c, 2015-01-01 03:07:20.750, 1.012, 0.1, 0.077, -0.244, -0.061, 0, 51.91, -83.029, 104.529, -25.547, -14.953, -6.773, 29.68, -0.18243, -0.67178, 0.10538, -0.71008,
 14:55:45.113,e3:ca:2d:fd:e0:8c, 2015-01-01 03:07:20.750, 1.013, 0.098, 0.075, -0.061, 0, 0, 51.91, -83.029, 104.513, -25.547, -14.953, -6.773, 29.68, -0.18243, -0.67178, 0.10538, -0.71008,
 14:55:45.137,f6:90:cc:01:6d:25, 2015-01-01 03:07:20.900, 0.919, 0.24, 0.268, 0, -0.122, 0, 42.017, -68.719, 162.955, -25.747, -16.273, -3.267, 32.22, -0.08658, 0.56479, 0.21463, 0.79205,
 14:55:45.137,f6:90:cc:01:6d:25, 2015-01-01 03:07:20.900, 0.92, 0.239, 0.266, 0, -0.061, -0.183, 42.023, -68.719, 162.944, -25.747, -16.273, -3.267, 32.22, -0.08658, 0.56479, 0.21463, 0.79205,
 14:55:45.138,ed:35:33:d3:6c:f8, 2015-01-01 03:07:20.960, 0.414, 0.263, 0.868, -0.305, 0, 0.122, 16.644, -24.428, 147.892, -10.427, -14.467, -29.213, 32.01, 0.23764, 0.2403, 0.07825, 0.93784,
 14:55:45.138,ed:35:33:d3:6c:f8, 2015-01-01 03:07:20.960, 0.414, 0.263, 0.868, -0.488, 0.061, -0.122, 16.639, -24.428, 147.843, -10.427, -14.467, -29.213, 32.01, 0.23764, 0.2403, 0.07825, 0.93784,
 14:55:45.158,ed:40:fe:65:30:6c, 2015-01-01 03:07:25.860, 0.612, 0.2, 0.766, 0, 0.122, 0, 14.908, -37.639, -133.506, -18.987, -11.753, -4.260, 28.8, -0.40924, 0.24539, 0.23895, 0.84564,
 14:55:45.158,ed:40:fe:65:30:6c, 2015-01-01 03:07:25.860, 0.614, 0.207, 0.766, 0, 0.183, 0.183, 14.908, -37.634, -133.506, -18.987, -11.753, -4.260, 28.8, -0.40924, 0.24539, 0.23895, 0.84564,
 14:55:45.159,e3:ca:2d:fd:e0:8c, 2015-01-01 03:07:20.750, 1.014, 0.097, 0.075, 0, 0, 0, 51.91, -83.029, 104.507, -25.547, -14.953, -6.773, 29.68, -0.18243, -0.67178, 0.10538, -0.71008,
 14:55:45.159,e3:ca:2d:fd:e0:8c, 2015-01-01 03:07:20.750, 1.012, 0.097, 0.073, 0, 0.061, 0, 51.91, -83.029, 104.502, -25.547, -14.953, -6.773, 29.68, -0.18243, -0.67178, 0.10538, -0.71008,
 14:55:45.160,f6:90:cc:01:6d:25, 2015-01-01 03:07:20.900, 0.921, 0.24, 0.265, 0.061, 0, -0.244, 42.034, -68.719, 162.933, -25.893, -16.633, -3.540, 32.22, -0.08658, 0.56479, 0.21463, 0.79205,
 14:55:45.160,f6:90:cc:01:6d:25, 2015-01-01 03:07:20.900, 0.921, 0.241, 0.263, 0.183, 0, -0.183, 42.039, -68.714, 162.922, -25.893, -16.633, -3.540, 32.22, -0.08658, 0.56479, 0.21463, 0.79205,
 14:55:45.180,ed:40:fe:65:30:6c, 2015-01-01 03:07:25.860, 0.612, 0.208, 0.767, 0, 0.244, 0.122, 14.903, -37.634, -133.5, -18.800, -11.200, -4.727, 28.8, -0.40924, 0.24539, 0.23895, 0.84564,
 14:55:45.180,ed:40:fe:65:30:6c, 2015-01-01 03:07:25.860, 0.609, 0.209, 0.768, 0.183, 0.244, 0.183, 14.903, -37.628, -133.5, -18.800, -11.200, -4.727, 28.8, -0.40924, 0.24539, 0.23895, 0.84564,
 14:55:45.184,ed:35:33:d3:6c:f8, 2015-01-01 03:07:20.960, 0.41, 0.266, 0.87, -0.183, 0.061, -0.183, 16.633, -24.423, 147.794, -10.427, -14.467, -29.213, 32.01, 0.23764, 0.2403, 0.07825, 0.93784,
 14:55:45.184,ed:35:33:d3:6c:f8, 2015-01-01 03:07:20.960, 0.408, 0.268, 0.871, 0.122, -0.427, -0.061, 16.633, -24.423, 147.783, -10.427, -14.467, -29.213, 32.01, 0.23764, 0.2403, 0.07825, 0.93784,
 14:55:45.203,e3:ca:2d:fd:e0:8c, 2015-01-01 03:07:20.750, 1.01, 0.098, 0.072, 0, 0, 0, 51.905, -83.029, 104.502, -25.547, -14.953, -6.773, 29.68, -0.18243, -0.67178, 0.10538, -0.71008,
 14:55:45.203,e3:ca:2d:fd:e0:8c, 2015-01-01 03:07:20.750, 1.012, 0.098, 0.072, 0, 0.061, 0, 51.91, -83.029, 104.502, -25.547, -14.953, -6.773, 29.68, -0.18243, -0.67178, 0.10538, -0.71008,
 14:55:45.204,f6:90:cc:01:6d:25, 2015-01-01 03:07:20.900, 0.918, 0.243, 0.263, 0.183, 0.122, -0.061, 42.05, -68.714, 162.911, -25.893, -16.633, -3.540, 32.22, -0.08658, 0.56479, 0.21463, 0.79205,
 14:55:45.204,f6:90:cc:01:6d:25, 2015-01-01 03:07:20.900, 0.917, 0.242, 0.263, 0.244, 0.122, 0, 42.05, -68.708, 162.911, -25.893, -16.633, -3.540, 32.22, -0.08658, 0.56479, 0.21463, 0.79205,
 14:55:45.225,ed:40:fe:65:30:6c, 2015-01-01 03:07:25.860, 0.61, 0.209, 0.77, 0.61, 0.122, 0.366, 14.903, -37.623, -133.495, -18.800, -11.200, -4.727, 28.8, -0.40924, 0.24539, 0.23895, 0.84564,
 14:55:45.225,ed:40:fe:65:30:6c, 2015-01-01 03:07:25.860, 0.613, 0.207, 0.771, 0.61, -0.122, 0.427, 14.914, -37.623, -133.484, -18.800, -11.200, -4.727, 28.8, -0.40924, 0.24539, 0.23895, 0.84564,
 14:55:45.227,e3:ca:2d:fd:e0:8c, 2015-01-01 03:07:20.750, 1.013, 0.098, 0.073, 0.061, 0, 0, 51.916, -83.029, 104.502, -25.547, -14.953, -6.773, 29.68, -0.18243, -0.67178, 0.10538, -0.71008,
 14:55:45.227,e3:ca:2d:fd:e0:8c, 2015-01-01 03:07:20.750, 1.013, 0.097, 0.074, 0, 0, 0, 51.927, -83.029, 104.496, -25.547, -14.953, -6.773, 29.68, -0.18243, -0.67178, 0.10538, -0.71008,
 14:55:45.227,f6:90:cc:01:6d:25, 2015-01-01 03:07:20.900, 0.919, 0.242, 0.263, 0.244, 0, 0.061, 42.056, -68.708, 162.911, -25.893, -16.633, -3.540, 32.22, -0.08575, 0.56488, 0.21466, 0.79205,
 14:55:45.227,f6:90:cc:01:6d:25, 2015-01-01 03:07:20.900, 0.92, 0.241, 0.264, 0.305, -0.061, 0.183, 42.061, -68.714, 162.916, -25.893, -16.633, -3.540, 32.22, -0.08575, 0.56488, 0.21466, 0.79205,
 14:55:45.229,ed:35:33:d3:6c:f8, 2015-01-01 03:07:20.960, 0.413, 0.264, 0.873, 0.671, 0.061, 0.488, 16.639, -24.428, 147.794, -10.427, -14.467, -29.213, 32.01, 0.23764, 0.2403, 0.07825, 0.93784,
 14:55:45.229,ed:35:33:d3:6c:f8, 2015-01-01 03:07:20.960, 0.414, 0.26, 0.872, 0.366, -0.488, 0.366, 16.65, -24.434, 147.788, -10.427, -14.467, -29.213, 32.01, 0.23764, 0.2403, 0.07825, 0.93784,
 14:55:45.246,ed:40:fe:65:30:6c, 2015-01-01 03:07:25.860, 0.613, 0.204, 0.77, 0.61, -0.305, 0.427, 14.919, -37.628, -133.478, -18.800, -11.200, -4.727, 28.8, -0.40906, 0.24524, 0.23917, 0.8457,
 14:55:45.246,ed:40:fe:65:30:6c, 2015-01-01 03:07:25.860, 0.614, 0.203, 0.767, 0.549, -0.305, 0.305, 14.93, -37.634, -133.473, -18.800, -11.200, -4.727, 28.8, -0.40906, 0.24524, 0.23917, 0.8457,
 14:55:45.272,f6:90:cc:01:6d:25, 2015-01-01 03:07:20.900, 0.92, 0.24, 0.264, 0.305, -0.061, 0.122, 42.067, -68.714, 162.916, -25.893, -16.633, -3.540, 32.22, -0.08575, 0.56488, 0.21466, 0.79205,
 14:55:45.272,f6:90:cc:01:6d:25, 2015-01-01 03:07:20.900, 0.92, 0.241, 0.265, 0.305, -0.122, 0, 42.078, -68.714, 162.905, -25.893, -16.633, -3.540, 32.22, -0.08575, 0.56488, 0.21466, 0.79205,
 14:55:45.274,ed:35:33:d3:6c:f8, 2015-01-01 03:07:20.960, 0.413, 0.259, 0.869, 0.305, -0.61, 0.244, 16.661, -24.445, 147.794, -10.373, -14.673, -28.647, 32.01, 0.23764, 0.2403, 0.07825, 0.93784,
 14:55:45.274,ed:35:33:d3:6c:f8, 2015-01-01 03:07:20.960, 0.417, 0.258, 0.868, 0.305, -0.549, 0.244, 16.666, -24.456, 147.783, -10.373, -14.673, -28.647, 32.01, 0.23764, 0.2403, 0.07825, 0.93784,
 14:55:45.292,ed:40:fe:65:30:6c, 2015-01-01 03:07:25.860, 0.615, 0.202, 0.766, 0.427, -0.366, 0.183, 14.936, -37.645, -133.467, -18.800, -11.200, -4.727, 28.8, -0.40906, 0.24524, 0.23917, 0.8457,
 14:55:45.292,ed:40:fe:65:30:6c, 2015-01-01 03:07:25.860, 0.615, 0.2, 0.763, 0.244, -0.244, 0, 14.947, -37.65, -133.473, -18.800, -11.200, -4.727, 28.8, -0.40906, 0.24524, 0.23917, 0.8457,
 14:55:45.295,e3:ca:2d:fd:e0:8c, 2015-01-01 03:07:20.750, 1.012, 0.098, 0.074, 0.061, -0.122, 0, 51.938, -83.029, 104.485, -25.547, -14.953, -6.773, 29.68, -0.18243, -0.67178, 0.10538, -0.71008,
 14:55:45.295,e3:ca:2d:fd:e0:8c, 2015-01-01 03:07:20.750, 1.013, 0.1, 0.077, 0, -0.122, 0, 51.965, -83.029, 104.464, -25.547, -14.953, -6.773, 29.68, -0.18243, -0.67178, 0.10538, -0.71008,
 14:55:45.297,ed:35:33:d3:6c:f8, 2015-01-01 03:07:20.960, 0.417, 0.256, 0.864, 0.183, -0.427, 0, 16.672, -24.467, 147.755, -10.373, -14.673, -28.647, 32.01, 0.23901, 0.24078, 0.07788, 0.93741,
 14:55:45.297,ed:35:33:d3:6c:f8, 2015-01-01 03:07:20.960, 0.417, 0.258, 0.862, -0.244, -0.122, -0.122, 16.677, -24.478, 147.722, -10.373, -14.673, -28.647, 32.01, 0.23901, 0.24078, 0.07788, 0.93741,
 14:55:45.317,e3:ca:2d:fd:e0:8c, 2015-01-01 03:07:20.750, 1.013, 0.1, 0.077, -0.183, 0.061, 0, 51.976, -83.029, 104.453, -25.867, -14.433, -7.080, 29.68, -0.18243, -0.67178, 0.10538, -0.71008,
 14:55:45.317,e3:ca:2d:fd:e0:8c, 2015-01-01 03:07:20.750, 1.013, 0.099, 0.078, -0.305, 0.244, 0, 51.96, -83.029, 104.469, -25.867, -14.433, -7.080, 29.68, -0.18243, -0.67178, 0.10538, -0.71008,
 14:55:45.317,f6:90:cc:01:6d:25, 2015-01-01 03:07:21.260, 0.921, 0.242, 0.264, 0.183, 0, -0.061, 42.089, -68.714, 162.9, -25.893, -16.633, -3.540, 32.22, -0.08575, 0.56488, 0.21466, 0.79205,
 14:55:45.317,f6:90:cc:01:6d:25, 2015-01-01 03:07:21.260, 0.921, 0.241, 0.266, -0.122, 0.061, -0.183, 42.094, -68.714, 162.894, -25.893, -16.633, -3.540, 32.22, -0.08575, 0.56488, 0.21466, 0.79205,
 14:55:45.338,ed:40:fe:65:30:6c, 2015-01-01 03:07:26.215, 0.615, 0.203, 0.761, 0.183, 0.061, -0.183, 14.952, -37.65, -133.473, -18.800, -11.200, -4.727, 28.8, -0.40906, 0.24524, 0.23917, 0.8457,
 14:55:45.338,ed:40:fe:65:30:6c, 2015-01-01 03:07:26.215, 0.611, 0.205, 0.761, 0.244, 0.244, -0.244, 14.958, -37.65, -133.478, -18.800, -11.200, -4.727, 28.8, -0.40906, 0.24524, 0.23917, 0.8457,
 14:55:45.340,f6:90:cc:01:6d:25, 2015-01-01 03:07:21.260, 0.919, 0.241, 0.265, -0.305, 0.305, -0.244, 42.089, -68.708, 162.889, -25.893, -16.633, -3.540, 32.22, -0.08575, 0.56488, 0.21466, 0.79205,
 14:55:45.340,f6:90:cc:01:6d:25, 2015-01-01 03:07:21.260, 0.918, 0.238, 0.266, -0.244, 0.427, -0.305, 42.083, -68.698, 162.889, -25.893, -16.633, -3.540, 32.22, -0.08575, 0.56488, 0.21466, 0.79205,
 14:55:45.341,ed:35:33:d3:6c:f8, 2015-01-01 03:07:20.960, 0.416, 0.261, 0.862, -0.366, 0.427, -0.305, 16.672, -24.472, 147.695, -10.373, -14.673, -28.647, 32.01, 0.23901, 0.24078, 0.07788, 0.93741,
 14:55:45.341,ed:35:33:d3:6c:f8, 2015-01-01 03:07:20.960, 0.411, 0.263, 0.865, -0.244, 0.244, -0.244, 16.666, -24.467, 147.656, -10.373, -14.673, -28.647, 32.01, 0.23901, 0.24078, 0.07788, 0.93741,
 14:55:45.362,e3:ca:2d:fd:e0:8c, 2015-01-01 03:07:20.750, 1.012, 0.098, 0.077, -0.427, 0.183, 0, 51.932, -83.024, 104.491, -25.867, -14.433, -7.080, 29.68, -0.18243, -0.67178, 0.10538, -0.71008,
 14:55:45.362,e3:ca:2d:fd:e0:8c, 2015-01-01 03:07:20.750, 1.011, 0.097, 0.077, -0.549, 0.244, 0, 51.899, -83.024, 104.513, -25.867, -14.433, -7.080, 29.68, -0.18243, -0.67178, 0.10538, -0.71008,
 14:55:45.383,ed:40:fe:65:30:6c, 2015-01-01 03:07:26.215, 0.609, 0.206, 0.766, 0.427, 0.366, -0.061, 14.963, -37.645, -133.484, -18.800, -11.200, -4.727, 28.8, -0.40906, 0.24524, 0.23917, 0.8457,
 14:55:45.383,ed:40:fe:65:30:6c, 2015-01-01 03:07:26.215, 0.609, 0.205, 0.77, 0.671, 0.183, 0.183, 14.974, -37.639, -133.484, -18.800, -11.200, -4.727, 28.8, -0.40906, 0.24524, 0.23917, 0.8457,
 14:55:45.384,f6:90:cc:01:6d:25, 2015-01-01 03:07:21.260, 0.918, 0.236, 0.266, 0.061, 0.427, -0.305, 42.083, -68.687, 162.889, -25.893, -16.633, -3.540, 32.22, -0.08575, 0.56488, 0.21466, 0.79205,
 14:55:45.384,f6:90:cc:01:6d:25, 2015-01-01 03:07:21.260, 0.918, 0.237, 0.267, 0.427, 0.366, -0.244, 42.089, -68.681, 162.889, -25.893, -16.633, -3.540, 32.22, -0.08575, 0.56488, 0.21466, 0.79205,
 14:55:45.386,ed:35:33:d3:6c:f8, 2015-01-01 03:07:21.250, 0.41, 0.263, 0.871, 0.183, 0, 0, 16.666, -24.467, 147.59, -10.373, -14.673, -28.647, 32.01, 0.23901, 0.24078, 0.07788, 0.93741,
 14:55:45.386,ed:35:33:d3:6c:f8, 2015-01-01 03:07:21.250, 0.408, 0.263, 0.873, 0.244, -0.183, 0.122, 16.672, -24.467, 147.546, -10.373, -14.673, -28.647, 32.01, 0.23901, 0.24078, 0.07788, 0.93741,
 14:55:45.405,ed:40:fe:65:30:6c, 2015-01-01 03:07:26.215, 0.607, 0.207, 0.773, 0.732, 0.122, 0.366, 14.98, -37.639, -133.478, -18.800, -11.200, -4.727, 28.8, -0.40906, 0.24524, 0.23917, 0.8457,
 14:55:45.405,ed:40:fe:65:30:6c, 2015-01-01 03:07:26.215, 0.606, 0.206, 0.772, 1.099, -0.122, 0.427, 14.991, -37.639, -133.473, -18.800, -11.200, -4.727, 28.8, -0.40906, 0.24524, 0.23917, 0.8457,
 14:55:45.429,e3:ca:2d:fd:e0:8c, 2015-01-01 03:07:20.750, 1.012, 0.096, 0.076, -0.488, 0.183, 0, 51.866, -83.018, 104.535, -25.867, -14.433, -7.080, 29.68, -0.18277, -0.67181, 0.10565, -0.70993,
 14:55:45.429,e3:ca:2d:fd:e0:8c, 2015-01-01 03:07:20.750, 1.012, 0.095, 0.074, -0.366, 0.183, 0, 51.833, -83.018, 104.551, -25.867, -14.433, -7.080, 29.68, -0.18277, -0.67181, 0.10565, -0.70993,
 14:55:45.429,f6:90:cc:01:6d:25, 2015-01-01 03:07:21.260, 0.915, 0.238, 0.26, 0.549, 0.183, -0.183, 42.094, -68.676, 162.889, -25.893, -16.633, -3.540, 32.22, -0.08575, 0.56488, 0.21466, 0.79205,
 14:55:45.429,f6:90:cc:01:6d:25, 2015-01-01 03:07:21.260, 0.914, 0.24, 0.264, 1.282, 0.061, -0.122, 42.122, -68.67, 162.861, -25.893, -16.633, -3.540, 32.22, -0.08575, 0.56488, 0.21466, 0.79205,
 14:55:45.431,ed:35:33:d3:6c:f8, 2015-01-01 03:07:21.250, 0.408, 0.26, 0.876, 0.183, -0.427, 0.366, 16.677, -24.472, 147.535, -10.373, -14.673, -28.647, 32.01, 0.23901, 0.24078, 0.07788, 0.93741,
 14:55:45.431,ed:35:33:d3:6c:f8, 2015-01-01 03:07:21.250, 0.409, 0.263, 0.868, 0.183, -0.977, 0.488, 16.677, -24.489, 147.524, -10.373, -14.673, -28.647, 32.01, 0.23901, 0.24078, 0.07788, 0.93741,
 14:55:45.449,ed:40:fe:65:30:6c, 2015-01-01 03:07:26.215, 0.603, 0.205, 0.769, 1.465, 0, 0.549, 15.007, -37.639, -133.456, -18.800, -11.200, -4.727, 28.8, -0.40906, 0.24524, 0.23917, 0.8457,
 14:55:45.449,ed:40:fe:65:30:6c, 2015-01-01 03:07:26.215, 0.602, 0.203, 0.776, 2.319, -0.061, 0.854, 15.035, -37.645, -133.434, -18.800, -11.200, -4.727, 28.8, -0.40906, 0.24524, 0.23917, 0.8457,
 14:55:45.451,e3:ca:2d:fd:e0:8c, 2015-01-01 03:07:21.085, 1.01, 0.095, 0.074, -0.244, 0.183, 0, 51.812, -83.018, 104.573, -25.867, -14.433, -7.080, 29.68, -0.18277, -0.67181, 0.10565, -0.70993,
 14:55:45.451,e3:ca:2d:fd:e0:8c, 2015-01-01 03:07:21.085, 1.01, 0.096, 0.076, -0.427, 0.244, 0, 51.779, -83.013, 104.595, -25.867, -14.433, -7.080, 29.68, -0.18277, -0.67181, 0.10565, -0.70993,
 14:55:45.454,ed:35:33:d3:6c:f8, 2015-01-01 03:07:21.250, 0.402, 0.261, 0.874, 0.061, -1.526, 1.038, 16.677, -24.51, 147.519, -10.373, -14.673, -28.647, 32.01, 0.23901, 0.24078, 0.07788, 0.93741,
 14:55:45.454,ed:35:33:d3:6c:f8, 2015-01-01 03:07:21.250, 0.414, 0.255, 0.883, 1.099, -1.709, 1.831, 16.677, -24.543, 147.53, -10.373, -14.673, -28.647, 32.01, 0.23901, 0.24078, 0.07788, 0.93741,
 14:55:45.474,e3:ca:2d:fd:e0:8c, 2015-01-01 03:07:21.085, 1.012, 0.094, 0.072, -1.709, 0.732, 0, 51.702, -83.007, 104.65, -25.867, -14.433, -7.080, 29.68, -0.18277, -0.67181, 0.10565, -0.70993,
 14:55:45.474,e3:ca:2d:fd:e0:8c, 2015-01-01 03:07:21.085, 1.015, 0.097, 0.065, -3.113, 2.258, 0, 51.465, -82.991, 104.832, -25.867, -14.433, -7.080, 29.68, -0.18277, -0.67181, 0.10565, -0.70993,
 14:55:45.497,f6:90:cc:01:6d:25, 2015-01-01 03:07:21.260, 0.912, 0.238, 0.26, 2.686, 0.183, -0.183, 42.166, -68.67, 162.812, -25.893, -16.633, -3.540, 32.22, -0.08575, 0.56488, 0.21466, 0.79205,
 14:55:45.497,f6:90:cc:01:6d:25, 2015-01-01 03:07:21.260, 0.915, 0.24, 0.253, 5.981, 0.366, -0.305, 42.27, -68.665, 162.762, -25.893, -16.633, -3.540, 32.22, -0.08575, 0.56488, 0.21466, 0.79205,
 14:55:45.498,ed:35:33:d3:6c:f8, 2015-01-01 03:07:21.250, 0.42, 0.263, 0.874, 0, -4.517, 1.038, 16.688, -24.598, 147.541, -10.373, -14.673, -28.647, 32.01, 0.23901, 0.24078, 0.07788, 0.93741,
 14:55:45.498,ed:35:33:d3:6c:f8, 2015-01-01 03:07:21.250, 0.41, 0.271, 0.866, -1.587, -8.24, 0.793, 16.683, -24.703, 147.519, -10.373, -14.673, -28.647, 32.01, 0.23901, 0.24078, 0.07788, 0.93741,
 14:55:45.518,ed:40:fe:65:30:6c, 2015-01-01 03:07:26.215, 0.612, 0.205, 0.777, 2.808, -0.916, 0.793, 15.068, -37.65, -133.412, -18.800, -11.200, -4.727, 28.8, -0.40906, 0.24524, 0.23917, 0.8457,
 14:55:45.518,ed:40:fe:65:30:6c, 2015-01-01 03:07:26.215, 0.612, 0.21, 0.765, 2.075, -1.16, 0.427, 15.112, -37.667, -133.396, -18.800, -11.200, -4.727, 28.8, -0.40906, 0.24524, 0.23917, 0.8457,
 14:55:45.518,e3:ca:2d:fd:e0:8c, 2015-01-01 03:07:21.085, 1.021, 0.099, 0.065, -3.906, 5.493, 0, 50.927, -82.947, 105.315, -25.867, -14.433, -7.080, 29.68, -0.18277, -0.67181, 0.10565, -0.70993,
 14:55:45.518,e3:ca:2d:fd:e0:8c, 2015-01-01 03:07:21.085, 1.024, 0.111, 0.091, 0.671, 6.409, 0.427, 50.169, -82.875, 106.046, -25.867, -14.433, -7.080, 29.68, -0.18277, -0.67181, 0.10565, -0.70993,
 14:55:45.520,f6:90:cc:01:6d:25, 2015-01-01 03:07:21.260, 0.918, 0.25, 0.262, 9.216, 1.282, -0.366, 42.418, -68.643, 162.746, -26.273, -16.293, -3.707, 32.22, -0.08575, 0.56488, 0.21466, 0.79205,
 14:55:45.520,f6:90:cc:01:6d:25, 2015-01-01 03:07:21.260, 0.924, 0.26, 0.272, 9.949, 2.258, -0.488, 42.567, -68.61, 162.817, -26.273, -16.293, -3.707, 32.22, -0.08575, 0.56488, 0.21466, 0.79205,
 14:55:45.540,ed:40:fe:65:30:6c, 2015-01-01 03:07:26.215, 0.609, 0.214, 0.769, 2.38, -0.671, 0, 15.15, -37.683, -133.396, -18.933, -11.480, -4.313, 28.8, -0.40906, 0.24524, 0.23917, 0.8457,
 14:55:45.540,ed:40:fe:65:30:6c, 2015-01-01 03:07:26.215, 0.627, 0.202, 0.783, 4.578, -0.916, -0.366, 15.211, -37.694, -133.401, -18.933, -11.480, -4.313, 28.8, -0.40906, 0.24524, 0.23917, 0.8457,
 14:55:45.543,ed:35:33:d3:6c:f8, 2015-01-01 03:07:21.250, 0.423, 0.246, 0.878, 1.587, -5.554, 1.465, 16.683, -24.846, 147.469, -10.373, -14.673, -28.647, 32.01, 0.23901, 0.24078, 0.07788, 0.93741,
 14:55:45.543,ed:35:33:d3:6c:f8, 2015-01-01 03:07:21.250, 0.446, 0.251, 0.868, 2.686, -2.319, 1.221, 16.716, -24.939, 147.48, -10.373, -14.673, -28.647, 32.01, 0.23901, 0.24078, 0.07788, 0.93741,
 14:55:45.564,f6:90:cc:01:6d:25, 2015-01-01 03:07:21.260, 0.932, 0.26, 0.283, 9.827, 1.709, -0.977, 42.731, -68.566, 162.878, -26.273, -16.293, -3.707, 32.22, -0.08575, 0.56488, 0.21466, 0.79205,
 14:55:45.564,f6:90:cc:01:6d:25, 2015-01-01 03:07:21.260, 0.936, 0.251, 0.281, 7.935, 1.099, -1.343, 42.902, -68.533, 162.878, -26.273, -16.293, -3.707, 32.22, -0.08575, 0.56488, 0.21466, 0.79205,
 14:55:45.564,e3:ca:2d:fd:e0:8c, 2015-01-01 03:07:21.085, 1.022, 0.107, 0.091, 1.892, 5.92, 0.305, 49.444, -82.804, 106.798, -25.867, -14.433, -7.080, 29.68, -0.18277, -0.67181, 0.10565, -0.70993,
 14:55:45.564,e3:ca:2d:fd:e0:8c, 2015-01-01 03:07:21.085, 1.008, 0.1, 0.091, 1.587, 3.113, -0.244, 48.972, -82.749, 107.303, -25.867, -14.433, -7.080, 29.68, -0.18277, -0.67181, 0.10565, -0.70993,
 14:55:45.584,ed:40:fe:65:30:6c, 2015-01-01 03:07:26.215, 0.625, 0.2, 0.766, 5.31, -0.732, -0.916, 15.315, -37.705, -133.418, -18.933, -11.480, -4.313, 28.8, -0.40906, 0.24524, 0.23917, 0.8457,
 14:55:45.584,ed:40:fe:65:30:6c, 2015-01-01 03:07:26.215, 0.6, 0.21, 0.765, 4.639, 0.427, -0.366, 15.425, -37.705, -133.44, -18.933, -11.480, -4.313, 28.8, -0.40906, 0.24524, 0.23917, 0.8457,
 14:55:45.587,f6:90:cc:01:6d:25, 2015-01-01 03:07:21.260, 0.923, 0.242, 0.276, 5.371, 0.488, -1.526, 43.05, -68.5, 162.839, -26.273, -16.293, -3.707, 32.22, -0.08932, 0.56302, 0.22137, 0.79114,
 14:55:45.587,f6:90:cc:01:6d:25, 2015-01-01 03:07:21.260, 0.901, 0.235, 0.273, 2.747, 0.61, -1.404, 43.127, -68.467, 162.828, -26.273, -16.293, -3.707, 32.22, -0.08932, 0.56302, 0.22137, 0.79114,
 14:55:45.589,ed:35:33:d3:6c:f8, 2015-01-01 03:07:21.250, 0.407, 0.27, 0.86, 1.404, -1.77, 1.77, 16.754, -24.983, 147.552, -10.587, -13.467, -28.040, 32.01, 0.23901, 0.24078, 0.07788, 0.93741,
 14:55:45.589,ed:35:33:d3:6c:f8, 2015-01-01 03:07:21.250, 0.394, 0.254, 0.861, 3.357, -1.526, 3.174, 16.776, -25.027, 147.612, -10.587, -13.467, -28.040, 32.01, 0.23901, 0.24078, 0.07788, 0.93741,
 14:55:45.609,ed:40:fe:65:30:6c, 2015-01-01 03:07:26.215, 0.586, 0.212, 0.771, 5.066, 1.831, 0, 15.518, -37.689, -133.445, -18.933, -11.480, -4.313, 28.8, -0.41052, 0.24374, 0.24353, 0.84418,
 14:55:45.609,ed:40:fe:65:30:6c, 2015-01-01 03:07:26.215, 0.591, 0.205, 0.767, 4.944, 0.549, -0.427, 15.606, -37.656, -133.451, -18.933, -11.480, -4.313, 28.8, -0.41052, 0.24374, 0.24353, 0.84418,
 14:55:45.630,e3:ca:2d:fd:e0:8c, 2015-01-01 03:07:21.085, 0.993, 0.094, 0.091, 0.366, 0.244, -1.526, 48.911, -82.711, 107.397, -25.867, -14.433, -7.080, 29.68, -0.18277, -0.67181, 0.10565, -0.70993,
 14:55:45.630,e3:ca:2d:fd:e0:8c, 2015-01-01 03:07:21.085, 0.992, 0.095, 0.093, -0.244, 0.732, -2.258, 49.059, -82.678, 107.265, -25.867, -14.433, -7.080, 29.68, -0.18277, -0.67181, 0.10565, -0.70993,
 14:55:45.633,ed:35:33:d3:6c:f8, 2015-01-01 03:07:21.250, 0.404, 0.241, 0.867, 4.395, 1.404, 2.075, 16.826, -25.054, 147.706, -10.587, -13.467, -28.040, 32.01, 0.23807, 0.24582, 0.07748, 0.93637,
 14:55:45.633,ed:35:33:d3:6c:f8, 2015-01-01 03:07:21.250, 0.417, 0.243, 0.859, 3.54, 1.404, 1.343, 16.88, -25.032, 147.783, -10.587, -13.467, -28.040, 32.01, 0.23807, 0.24582, 0.07748, 0.93637,
 14:55:45.652,ed:40:fe:65:30:6c, 2015-01-01 03:07:26.215, 0.61, 0.201, 0.763, 4.883, -0.549, -0.916, 15.705, -37.645, -133.467, -18.933, -11.480, -4.313, 28.8, -0.41052, 0.24374, 0.24353, 0.84418,
 14:55:45.652,ed:40:fe:65:30:6c, 2015-01-01 03:07:26.215, 0.629, 0.207, 0.754, 3.845, -1.221, -1.709, 15.809, -37.65, -133.506, -18.933, -11.480, -4.313, 28.8, -0.41052, 0.24374, 0.24353, 0.84418,
 14:55:45.654,e3:ca:2d:fd:e0:8c, 2015-01-01 03:07:21.085, 1.002, 0.096, 0.088, 0.977, 0.244, -1.892, 49.224, -82.639, 107.133, -25.660, -14.753, -7.067, 29.68, -0.18277, -0.67181, 0.10565, -0.70993,
 14:55:45.654,e3:ca:2d:fd:e0:8c, 2015-01-01 03:07:21.085, 1.008, 0.088, 0.088, 2.502, -0.61, -0.854, 49.417, -82.623, 107.001, -25.660, -14.753, -7.067, 29.68, -0.18277, -0.67181, 0.10565, -0.70993,
 14:55:45.655,f6:90:cc:01:6d:25, 2015-01-01 03:07:21.260, 0.893, 0.239, 0.266, 0.916, 0.366, -0.916, 43.154, -68.45, 162.823, -26.273, -16.293, -3.707, 32.22, -0.08932, 0.56302, 0.22137, 0.79114,
 14:55:45.655,f6:90:cc:01:6d:25, 2015-01-01 03:07:21.260, 0.903, 0.243, 0.265, 0.305, -0.305, -0.427, 43.171, -68.445, 162.79, -26.273, -16.293, -3.707, 32.22, -0.08932, 0.56302, 0.22137, 0.79114,
 14:55:45.657,ed:35:33:d3:6c:f8, 2015-01-01 03:07:21.565, 0.439, 0.247, 0.856, 3.967, 1.099, -0.122, 16.935, -25.005, 147.876, -10.587, -13.467, -28.040, 32.01, 0.23807, 0.24582, 0.07748, 0.93637,
 14:55:45.657,ed:35:33:d3:6c:f8, 2015-01-01 03:07:21.565, 0.446, 0.268, 0.851, 2.441, 0.732, -1.343, 16.996, -24.977, 147.947, -10.587, -13.467, -28.040, 32.01, 0.23807, 0.24582, 0.07748, 0.93637,
 14:55:45.677,f6:90:cc:01:6d:25, 2015-01-01 03:07:21.615, 0.917, 0.247, 0.268, 0.244, -0.488, -0.244, 43.193, -68.45, 162.746, -26.273, -16.293, -3.707, 32.22, -0.08932, 0.56302, 0.22137, 0.79114,
 14:55:45.677,f6:90:cc:01:6d:25, 2015-01-01 03:07:21.615, 0.931, 0.252, 0.262, 0.244, -0.061, -0.305, 43.198, -68.445, 162.746, -26.273, -16.293, -3.707, 32.22, -0.08932, 0.56302, 0.22137, 0.79114,
 14:55:45.697,ed:40:fe:65:30:6c, 2015-01-01 03:07:26.575, 0.636, 0.22, 0.749, 1.099, -1.221, -2.38, 15.892, -37.656, -133.566, -18.933, -11.480, -4.313, 28.8, -0.41052, 0.24374, 0.24353, 0.84418,
 14:55:45.697,ed:40:fe:65:30:6c, 2015-01-01 03:07:26.575, 0.628, 0.235, 0.749, -1.404, -0.061, -2.747, 15.936, -37.661, -133.627, -18.933, -11.480, -4.313, 28.8, -0.41052, 0.24374, 0.24353, 0.84418,
 14:55:45.699,e3:ca:2d:fd:e0:8c, 2015-01-01 03:07:21.085, 1.017, 0.085, 0.089, 1.831, -0.61, -0.183, 49.565, -82.623, 106.891, -25.660, -14.753, -7.067, 29.68, -0.18277, -0.67181, 0.10565, -0.70993,
 14:55:45.699,e3:ca:2d:fd:e0:8c, 2015-01-01 03:07:21.085, 1.018, 0.089, 0.085, 0.916, -0.122, -0.366, 49.636, -82.623, 106.853, -25.660, -14.753, -7.067, 29.68, -0.18277, -0.67181, 0.10565, -0.70993,
 14:55:45.701,ed:35:33:d3:6c:f8, 2015-01-01 03:07:21.565, 0.438, 0.283, 0.847, 0.244, -0.244, -1.953, 17.04, -24.961, 147.98, -10.587, -13.467, -28.040, 32.01, 0.23807, 0.24582, 0.07748, 0.93637,
 14:55:45.701,ed:35:33:d3:6c:f8, 2015-01-01 03:07:21.565, 0.432, 0.278, 0.855, -0.305, 1.099, -2.014, 17.056, -24.95, 147.958, -10.587, -13.467, -28.040, 32.01, 0.23807, 0.24582, 0.07748, 0.93637,
 14:55:45.721,f6:90:cc:01:6d:25, 2015-01-01 03:07:21.615, 0.935, 0.251, 0.26, -0.305, 0.488, -0.305, 43.182, -68.428, 162.746, -26.273, -16.293, -3.707, 32.22, -0.08932, 0.56302, 0.22137, 0.79114,
 14:55:45.721,f6:90:cc:01:6d:25, 2015-01-01 03:07:21.615, 0.931, 0.25, 0.257, -1.282, 1.465, 0.061, 43.099, -68.412, 162.801, -26.273, -16.293, -3.707, 32.22, -0.08932, 0.56302, 0.22137, 0.79114,
 14:55:45.721,e3:ca:2d:fd:e0:8c, 2015-01-01 03:07:21.085, 1.016, 0.094, 0.08, 1.953, 0.061, -0.793, 49.702, -82.617, 106.831, -25.660, -14.753, -7.067, 29.68, -0.18347, -0.6691, 0.10358, -0.71262,
 14:55:45.721,e3:ca:2d:fd:e0:8c, 2015-01-01 03:07:21.085, 1.015, 0.096, 0.079, 2.991, -0.061, -1.099, 49.823, -82.606, 106.765, -25.660, -14.753, -7.067, 29.68, -0.18347, -0.6691, 0.10358, -0.71262,
 14:55:45.743,ed:40:fe:65:30:6c, 2015-01-01 03:07:26.575, 0.623, 0.232, 0.759, -1.953, 1.16, -2.747, 15.941, -37.645, -133.698, -18.933, -11.480, -4.313, 28.8, -0.41052, 0.24374, 0.24353, 0.84418,
 14:55:45.743,ed:40:fe:65:30:6c, 2015-01-01 03:07:26.575, 0.626, 0.222, 0.76, -1.16, 1.831, -3.052, 15.941, -37.606, -133.759, -18.933, -11.480, -4.313, 28.8, -0.41052, 0.24374, 0.24353, 0.84418,
 14:55:45.745,f6:90:cc:01:6d:25, 2015-01-01 03:07:21.615, 0.926, 0.253, 0.255, -2.38, 2.319, 0.61, 42.957, -68.384, 162.894, -26.273, -16.293, -3.707, 32.22, -0.08932, 0.56302, 0.22137, 0.79114,
 14:55:45.745,f6:90:cc:01:6d:25, 2015-01-01 03:07:21.615, 0.928, 0.248, 0.257, -2.93, 2.502, 1.038, 42.781, -68.368, 163.021, -26.273, -16.293, -3.707, 32.22, -0.08932, 0.56302, 0.22137, 0.79114,
 14:55:45.746,ed:35:33:d3:6c:f8, 2015-01-01 03:07:21.565, 0.439, 0.265, 0.861, 0.488, 1.892, -2.563, 17.073, -24.917, 147.958, -10.587, -13.467, -28.040, 32.01, 0.23807, 0.24582, 0.07748, 0.93637,
 14:55:45.746,ed:35:33:d3:6c:f8, 2015-01-01 03:07:21.565, 0.438, 0.259, 0.865, 0.671, 1.831, -3.54, 17.1, -24.873, 147.947, -10.587, -13.467, -28.040, 32.01, 0.23807, 0.24582, 0.07748, 0.93637,
 14:55:45.765,ed:40:fe:65:30:6c, 2015-01-01 03:07:26.575, 0.628, 0.208, 0.762, -0.854, 1.404, -3.235, 15.958, -37.562, -133.824, -18.933, -11.480, -4.313, 28.8, -0.41052, 0.24374, 0.24353, 0.84418,
 14:55:45.765,ed:40:fe:65:30:6c, 2015-01-01 03:07:26.575, 0.628, 0.198, 0.763, -0.366, 0.793, -3.479, 15.991, -37.529, -133.901, -18.933, -11.480, -4.313, 28.8, -0.41052, 0.24374, 0.24353, 0.84418,
 14:55:45.766,e3:ca:2d:fd:e0:8c, 2015-01-01 03:07:21.085, 1.016, 0.1, 0.079, 2.014, 0, -0.793, 49.955, -82.595, 106.688, -25.660, -14.753, -7.067, 29.68, -0.18347, -0.6691, 0.10358, -0.71262,
 14:55:45.766,e3:ca:2d:fd:e0:8c, 2015-01-01 03:07:21.085, 1.019, 0.104, 0.076, 0.488, -0.122, -0.427, 50.032, -82.59, 106.639, -25.660, -14.753, -7.067, 29.68, -0.18347, -0.6691, 0.10358, -0.71262,
 14:55:45.790,f6:90:cc:01:6d:25, 2015-01-01 03:07:21.615, 0.93, 0.24, 0.258, -3.357, 2.441, 1.099, 42.594, -68.351, 163.147, -26.273, -16.293, -3.707, 32.22, -0.08932, 0.56302, 0.22137, 0.79114,
 14:55:45.790,f6:90:cc:01:6d:25, 2015-01-01 03:07:21.615, 0.927, 0.238, 0.255, -3.601, 2.136, 0.549, 42.44, -68.329, 163.246, -26.273, -16.293, -3.707, 32.22, -0.08932, 0.56302, 0.22137, 0.79114,
 14:55:45.791,ed:35:33:d3:6c:f8, 2015-01-01 03:07:21.565, 0.438, 0.252, 0.866, 1.343, 1.77, -3.235, 17.144, -24.824, 147.936, -10.587, -13.467, -28.040, 32.01, 0.23807, 0.24582, 0.07748, 0.93637,
 14:55:45.791,ed:35:33:d3:6c:f8, 2015-01-01 03:07:21.565, 0.435, 0.249, 0.863, 1.16, 1.831, -2.869, 17.188, -24.78, 147.925, -10.587, -13.467, -28.040, 32.01, 0.23807, 0.24582, 0.07748, 0.93637,
 14:55:45.810,ed:40:fe:65:30:6c, 2015-01-01 03:07:26.575, 0.623, 0.195, 0.761, -0.732, 0.427, -3.784, 16.024, -37.507, -133.989, -18.933, -11.480, -4.313, 28.8, -0.41052, 0.24374, 0.24353, 0.84418,
 14:55:45.810,ed:40:fe:65:30:6c, 2015-01-01 03:07:26.575, 0.615, 0.2, 0.759, -1.099, 0.305, -4.15, 16.057, -37.485, -134.083, -18.933, -11.480, -4.313, 28.8, -0.41052, 0.24374, 0.24353, 0.84418,
 14:55:45.813,e3:ca:2d:fd:e0:8c, 2015-01-01 03:07:21.420, 1.021, 0.107, 0.075, 0, -0.122, -0.549, 50.098, -82.59, 106.578, -25.660, -14.753, -7.067, 29.68, -0.18347, -0.6691, 0.10358, -0.71262,
 14:55:45.813,e3:ca:2d:fd:e0:8c, 2015-01-01 03:07:21.420, 1.017, 0.108, 0.074, 0, 0.061, -0.916, 50.186, -82.584, 106.485, -25.660, -14.753, -7.067, 29.68, -0.18347, -0.6691, 0.10358, -0.71262,
 14:55:45.834,e3:ca:2d:fd:e0:8c, 2015-01-01 03:07:21.420, 1.013, 0.107, 0.076, -0.183, 0.244, -1.282, 50.29, -82.568, 106.392, -25.660, -14.753, -7.067, 29.68, -0.18347, -0.6691, 0.10358, -0.71262,
 14:55:45.834,e3:ca:2d:fd:e0:8c, 2015-01-01 03:07:21.420, 1.008, 0.107, 0.078, -0.793, 0.305, -1.587, 50.411, -82.54, 106.26, -25.660, -14.753, -7.067, 29.68, -0.18347, -0.6691, 0.10358, -0.71262,
 14:55:45.836,ed:35:33:d3:6c:f8, 2015-01-01 03:07:21.565, 0.428, 0.249, 0.863, 0.488, 1.16, -4.028, 17.227, -24.741, 147.914, -10.587, -13.467, -28.040, 32.01, 0.23807, 0.24582, 0.07748, 0.93637,
 14:55:45.836,ed:35:33:d3:6c:f8, 2015-01-01 03:07:21.565, 0.424, 0.264, 0.858, 0.061, 0, -5.371, 17.265, -24.714, 147.898, -10.587, -13.467, -28.040, 32.01, 0.23807, 0.24582, 0.07748, 0.93637,
 14:55:45.855,ed:40:fe:65:30:6c, 2015-01-01 03:07:26.575, 0.607, 0.209, 0.756, -1.221, 0.366, -4.089, 16.084, -37.463, -134.182, -18.933, -11.480, -4.313, 28.8, -0.41052, 0.24374, 0.24353, 0.84418,
 14:55:45.855,ed:40:fe:65:30:6c, 2015-01-01 03:07:26.575, 0.598, 0.22, 0.759, -1.099, 0.305, -3.418, 16.106, -37.447, -134.275, -18.933, -11.480, -4.313, 28.8, -0.41052, 0.24374, 0.24353, 0.84418,
 14:55:45.857,f6:90:cc:01:6d:25, 2015-01-01 03:07:21.615, 0.92, 0.239, 0.257, -3.967, 1.709, -0.427, 42.33, -68.307, 163.279, -26.273, -16.293, -3.707, 32.22, -0.08932, 0.56302, 0.22137, 0.79114,
 14:55:45.857,f6:90:cc:01:6d:25, 2015-01-01 03:07:21.615, 0.913, 0.238, 0.261, -4.089, 1.526, -1.465, 42.259, -68.275, 163.24, -26.273, -16.293, -3.707, 32.22, -0.08932, 0.56302, 0.22137, 0.79114,
 14:55:45.859,ed:35:33:d3:6c:f8, 2015-01-01 03:07:21.565, 0.413, 0.279, 0.857, -0.427, -1.221, -4.639, 17.303, -24.697, 147.816, -10.873, -14.727, -27.513, 32.01, 0.23807, 0.24582, 0.07748, 0.93637,
 14:55:45.859,ed:35:33:d3:6c:f8, 2015-01-01 03:07:21.565, 0.401, 0.283, 0.859, -0.183, -1.709, -3.601, 17.331, -24.708, 147.695, -10.873, -14.727, -27.513, 32.01, 0.23807, 0.24582, 0.07748, 0.93637,
 14:55:45.878,e3:ca:2d:fd:e0:8c, 2015-01-01 03:07:21.420, 1.003, 0.108, 0.079, -1.16, 0.244, -1.892, 50.554, -82.513, 106.046, -25.660, -14.753, -7.067, 29.68, -0.18347, -0.6691, 0.10358, -0.71262,
 14:55:45.878,e3:ca:2d:fd:e0:8c, 2015-01-01 03:07:21.420, 1.002, 0.108, 0.082, -1.16, 0, -1.77, 50.718, -82.485, 105.787, -25.660, -14.753, -7.067, 29.68, -0.18347, -0.6691, 0.10358, -0.71262,
 14:55:45.880,f6:90:cc:01:6d:25, 2015-01-01 03:07:21.615, 0.908, 0.234, 0.263, -3.784, 1.038, -2.197, 42.242, -68.236, 163.169, -25.933, -16.447, -3.007, 32.22, -0.08932, 0.56302, 0.22137, 0.79114,
 14:55:45.880,f6:90:cc:01:6d:25, 2015-01-01 03:07:21.615, 0.903, 0.234, 0.269, -3.357, 0.366, -2.38, 42.253, -68.209, 163.098, -25.933, -16.447, -3.007, 32.22, -0.08932, 0.56302, 0.22137, 0.79114,
 14:55:45.904,ed:35:33:d3:6c:f8, 2015-01-01 03:07:21.565, 0.396, 0.288, 0.862, -0.732, -1.77, -3.174, 17.358, -24.73, 147.596, -10.873, -14.727, -27.513, 32.01, 0.23807, 0.24582, 0.07748, 0.93637,
 14:55:45.904,ed:35:33:d3:6c:f8, 2015-01-01 03:07:21.565, 0.39, 0.295, 0.864, -0.549, -1.709, -2.319, 17.375, -24.747, 147.552, -10.873, -14.727, -27.513, 32.01, 0.23807, 0.24582, 0.07748, 0.93637,
 14:55:45.922,ed:40:fe:65:30:6c, 2015-01-01 03:07:26.575, 0.591, 0.228, 0.763, -1.221, 0.305, -2.441, 16.117, -37.436, -134.352, -19.140, -11.847, -4.293, 28.8, -0.41052, 0.24374, 0.24353, 0.84418,
 14:55:45.922,ed:40:fe:65:30:6c, 2015-01-01 03:07:26.575, 0.586, 0.236, 0.766, -1.282, 0.122, -1.465, 16.117, -37.425, -134.396, -19.140, -11.847, -4.293, 28.8, -0.41052, 0.24374, 0.24353, 0.84418,
 14:55:45.924,e3:ca:2d:fd:e0:8c, 2015-01-01 03:07:21.420, 1.002, 0.108, 0.088, -1.16, -0.427, -1.404, 50.894, -82.469, 105.54, -25.660, -14.753, -7.067, 29.68, -0.18347, -0.6691, 0.10358, -0.71262,
 14:55:45.924,e3:ca:2d:fd:e0:8c, 2015-01-01 03:07:21.420, 1.002, 0.111, 0.092, -0.977, -0.793, -0.732, 51.059, -82.458, 105.309, -25.660, -14.753, -7.067, 29.68, -0.18347, -0.6691, 0.10358, -0.71262,
 14:55:45.925,f6:90:cc:01:6d:25, 2015-01-01 03:07:21.615, 0.901, 0.24, 0.273, -3.052, -0.305, -2.38, 42.292, -68.187, 163.01, -25.933, -16.447, -3.007, 32.22, -0.08932, 0.56302, 0.22137, 0.79114,
 14:55:45.925,f6:90:cc:01:6d:25, 2015-01-01 03:07:21.615, 0.9, 0.248, 0.277, -2.502, -1.038, -2.075, 42.352, -68.181, 162.905, -25.933, -16.447, -3.007, 32.22, -0.08932, 0.56302, 0.22137, 0.79114,
 14:55:45.945,ed:40:fe:65:30:6c, 2015-01-01 03:07:26.575, 0.583, 0.244, 0.771, -0.977, 0, -0.61, 16.106, -37.419, -134.412, -19.140, -11.847, -4.293, 28.8, -0.40466, 0.24139, 0.24536, 0.84714,
 14:55:45.945,ed:40:fe:65:30:6c, 2015-01-01 03:07:26.575, 0.584, 0.245, 0.778, 0, -0.244, -0.061, 16.106, -37.419, -134.418, -19.140, -11.847, -4.293, 28.8, -0.40466, 0.24139, 0.24536, 0.84714,
 14:55:45.947,f6:90:cc:01:6d:25, 2015-01-01 03:07:21.615, 0.903, 0.256, 0.282, -2.258, -1.526, -1.587, 42.413, -68.181, 162.817, -25.933, -16.447, -3.007, 32.22, -0.08539, 0.56131, 0.21817, 0.79367,
 14:55:45.947,f6:90:cc:01:6d:25, 2015-01-01 03:07:21.615, 0.906, 0.265, 0.285, -2.136, -2.197, -0.61, 42.473, -68.198, 162.724, -25.933, -16.447, -3.007, 32.22, -0.08539, 0.56131, 0.21817, 0.79367,
 14:55:45.949,ed:35:33:d3:6c:f8, 2015-01-01 03:07:21.565, 0.39, 0.293, 0.87, 0.183, -1.343, -1.16, 17.397, -24.769, 147.53, -10.873, -14.727, -27.513, 32.01, 0.23849, 0.24451, 0.08249, 0.93616,
 14:55:45.949,ed:35:33:d3:6c:f8, 2015-01-01 03:07:21.565, 0.392, 0.292, 0.874, 0.916, -0.916, -0.488, 17.419, -24.78, 147.563, -10.873, -14.727, -27.513, 32.01, 0.23849, 0.24451, 0.08249, 0.93616,
 14:55:45.990,ed:40:fe:65:30:6c, 2015-01-01 03:07:26.575, 0.587, 0.245, 0.78, 0.366, -0.732, 0.183, 16.117, -37.419, -134.412, -19.140, -11.847, -4.293, 28.8, -0.40466, 0.24139, 0.24536, 0.84714,
 14:55:45.990,ed:40:fe:65:30:6c, 2015-01-01 03:07:26.575, 0.587, 0.24, 0.782, 0.793, -1.282, 0.366, 16.133, -37.436, -134.407, -19.140, -11.847, -4.293, 28.8, -0.40466, 0.24139, 0.24536, 0.84714,
 14:55:45.991,e3:ca:2d:fd:e0:8c, 2015-01-01 03:07:21.420, 1.003, 0.114, 0.092, -0.977, -1.099, -0.122, 51.202, -82.463, 105.139, -25.660, -14.753, -7.067, 29.68, -0.18347, -0.6691, 0.10358, -0.71262,
 14:55:45.991,e3:ca:2d:fd:e0:8c, 2015-01-01 03:07:21.420, 1.005, 0.115, 0.093, -1.343, -1.221, 0.183, 51.312, -82.48, 104.98, -25.660, -14.753, -7.067, 29.68, -0.18347, -0.6691, 0.10358, -0.71262,
 14:55:45.992,f6:90:cc:01:6d:25, 2015-01-01 03:07:21.615, 0.908, 0.264, 0.285, -2.197, -2.38, -0.305, 42.523, -68.22, 162.658, -25.933, -16.447, -3.007, 32.22, -0.08539, 0.56131, 0.21817, 0.79367,
 14:55:45.992,f6:90:cc:01:6d:25, 2015-01-01 03:07:21.615, 0.909, 0.264, 0.285, -2.197, -2.441, -0.061, 42.567, -68.242, 162.587, -25.933, -16.447, -3.007, 32.22, -0.08539, 0.56131, 0.21817, 0.79367,
 14:55:45.994,ed:35:33:d3:6c:f8, 2015-01-01 03:07:21.875, 0.392, 0.289, 0.876, 1.404, -0.244, 0.122, 17.452, -24.785, 147.645, -10.873, -14.727, -27.513, 32.01, 0.23849, 0.24451, 0.08249, 0.93616,
 14:55:45.994,ed:35:33:d3:6c:f8, 2015-01-01 03:07:21.875, 0.397, 0.282, 0.873, 1.77, 0.244, 0.244, 17.485, -24.78, 147.739, -10.873, -14.727, -27.513, 32.01, 0.23849, 0.24451, 0.08249, 0.93616,
 14:55:46.012,ed:40:fe:65:30:6c, 2015-01-01 03:07:26.910, 0.593, 0.235, 0.779, 1.221, -1.587, 0.427, 16.161, -37.452, -134.401, -19.140, -11.847, -4.293, 28.8, -0.40466, 0.24139, 0.24536, 0.84714,
 14:55:46.012,ed:40:fe:65:30:6c, 2015-01-01 03:07:26.910, 0.6, 0.233, 0.773, 1.16, -1.404, 0.122, 16.194, -37.469, -134.396, -19.140, -11.847, -4.293, 28.8, -0.40466, 0.24139, 0.24536, 0.84714,
 14:55:46.013,e3:ca:2d:fd:e0:8c, 2015-01-01 03:07:21.420, 1.006, 0.116, 0.094, -1.587, -1.343, 0.427, 51.405, -82.496, 104.832, -25.927, -14.967, -7.953, 29.68, -0.18347, -0.6691, 0.10358, -0.71262,
 14:55:46.013,e3:ca:2d:fd:e0:8c, 2015-01-01 03:07:21.420, 1.006, 0.114, 0.095, -1.343, -1.709, 0.61, 51.52, -82.518, 104.689, -25.927, -14.967, -7.953, 29.68, -0.18347, -0.6691, 0.10358, -0.71262,
 14:55:46.036,f6:90:cc:01:6d:25, 2015-01-01 03:07:21.975, 0.912, 0.262, 0.281, -2.502, -2.319, 0, 42.605, -68.269, 162.526, -25.933, -16.447, -3.007, 32.22, -0.08539, 0.56131, 0.21817, 0.79367,
 14:55:46.036,f6:90:cc:01:6d:25, 2015-01-01 03:07:21.975, 0.911, 0.259, 0.278, -2.747, -2.136, 0, 42.632, -68.291, 162.46, -25.933, -16.447, -3.007, 32.22, -0.08539, 0.56131, 0.21817, 0.79367,
 14:55:46.038,ed:35:33:d3:6c:f8, 2015-01-01 03:07:21.875, 0.409, 0.279, 0.868, 1.648, 0.183, -0.183, 17.523, -24.763, 147.838, -10.873, -14.727, -27.513, 32.01, 0.23849, 0.24451, 0.08249, 0.93616,
 14:55:46.038,ed:35:33:d3:6c:f8, 2015-01-01 03:07:21.875, 0.411, 0.285, 0.86, 1.587, 0.427, -0.549, 17.562, -24.747, 147.876, -10.873, -14.727, -27.513, 32.01, 0.23849, 0.24451, 0.08249, 0.93616,
 14:55:46.057,ed:40:fe:65:30:6c, 2015-01-01 03:07:26.910, 0.601, 0.231, 0.767, 1.038, -0.916, 0, 16.227, -37.48, -134.396, -19.140, -11.847, -4.293, 28.8, -0.40466, 0.24139, 0.24536, 0.84714,
 14:55:46.057,ed:40:fe:65:30:6c, 2015-01-01 03:07:26.910, 0.603, 0.229, 0.767, 1.77, -0.488, 0.122, 16.265, -37.48, -134.39, -19.140, -11.847, -4.293, 28.8, -0.40466, 0.24139, 0.24536, 0.84714,
 14:55:46.058,e3:ca:2d:fd:e0:8c, 2015-01-01 03:07:21.420, 1.006, 0.112, 0.094, -0.916, -1.892, 0.671, 51.652, -82.546, 104.54, -25.927, -14.967, -7.953, 29.68, -0.18347, -0.6691, 0.10358, -0.71262,
 14:55:46.058,e3:ca:2d:fd:e0:8c, 2015-01-01 03:07:21.420, 1.006, 0.109, 0.091, -1.038, -1.953, 0.793, 51.784, -82.573, 104.42, -25.927, -14.967, -7.953, 29.68, -0.18347, -0.6691, 0.10358, -0.71262,
 14:55:46.060,ed:35:33:d3:6c:f8, 2015-01-01 03:07:21.875, 0.409, 0.283, 0.861, 2.319, 0.793, 0.549, 17.606, -24.725, 147.892, -10.873, -14.727, -27.513, 32.01, 0.23849, 0.24451, 0.08249, 0.93616,
 14:55:46.060,ed:35:33:d3:6c:f8, 2015-01-01 03:07:21.875, 0.414, 0.278, 0.862, 3.113, 1.892, 1.465, 17.65, -24.697, 147.909, -10.873, -14.727, -27.513, 32.01, 0.23849, 0.24451, 0.08249, 0.93616,
 14:55:46.081,e3:ca:2d:fd:e0:8c, 2015-01-01 03:07:21.420, 1.007, 0.107, 0.085, -1.282, -1.892, 0.854, 51.894, -82.601, 104.299, -25.927, -14.967, -7.953, 29.68, -0.1864, -0.67023, 0.10446, -0.71066,
 14:55:46.081,e3:ca:2d:fd:e0:8c, 2015-01-01 03:07:21.420, 1.011, 0.104, 0.079, -0.916, -1.892, 0.854, 52.015, -82.634, 104.167, -25.927, -14.967, -7.953, 29.68, -0.1864, -0.67023, 0.10446, -0.71066,
 14:55:46.082,f6:90:cc:01:6d:25, 2015-01-01 03:07:21.975, 0.913, 0.25, 0.271, -2.441, -1.77, 0.061, 42.649, -68.307, 162.4, -25.933, -16.447, -3.007, 32.22, -0.08539, 0.56131, 0.21817, 0.79367,
 14:55:46.082,f6:90:cc:01:6d:25, 2015-01-01 03:07:21.975, 0.916, 0.245, 0.269, -1.953, -1.831, 0.061, 42.66, -68.324, 162.361, -25.933, -16.447, -3.007, 32.22, -0.08539, 0.56131, 0.21817, 0.79367,
 14:55:46.103,ed:40:fe:65:30:6c, 2015-01-01 03:07:26.910, 0.608, 0.225, 0.765, 2.075, -0.793, 0.244, 16.309, -37.48, -134.385, -19.140, -11.847, -4.293, 28.8, -0.40466, 0.24139, 0.24536, 0.84714,
 14:55:46.103,ed:40:fe:65:30:6c, 2015-01-01 03:07:26.910, 0.612, 0.223, 0.764, 1.892, -1.16, 0.305, 16.353, -37.491, -134.368, -19.140, -11.847, -4.293, 28.8, -0.40466, 0.24139, 0.24536, 0.84714,
 14:55:46.104,f6:90:cc:01:6d:25, 2015-01-01 03:07:21.975, 0.918, 0.243, 0.263, -1.709, -1.953, 0.061, 42.682, -68.346, 162.334, -25.933, -16.447, -3.007, 32.22, -0.08539, 0.56131, 0.21817, 0.79367,
 14:55:46.104,f6:90:cc:01:6d:25, 2015-01-01 03:07:21.975, 0.921, 0.243, 0.26, -1.404, -2.014, 0.122, 42.709, -68.368, 162.307, -25.933, -16.447, -3.007, 32.22, -0.08539, 0.56131, 0.21817, 0.79367,
 14:55:46.106,ed:35:33:d3:6c:f8, 2015-01-01 03:07:21.875, 0.417, 0.276, 0.861, 3.052, 2.136, 1.526, 17.699, -24.664, 147.931, -10.873, -14.727, -27.513, 32.01, 0.23849, 0.24451, 0.08249, 0.93616,
 14:55:46.106,ed:35:33:d3:6c:f8, 2015-01-01 03:07:21.875, 0.421, 0.277, 0.861, 2.869, 1.953, 1.465, 17.743, -24.626, 147.964, -10.873, -14.727, -27.513, 32.01, 0.23849, 0.24451, 0.08249, 0.93616,
 14:55:46.125,ed:40:fe:65:30:6c, 2015-01-01 03:07:26.910, 0.617, 0.225, 0.761, 1.892, -1.16, 0.244, 16.392, -37.507, -134.363, -19.140, -11.847, -4.293, 28.8, -0.40466, 0.24139, 0.24536, 0.84714,
 14:55:46.125,ed:40:fe:65:30:6c, 2015-01-01 03:07:26.910, 0.618, 0.227, 0.758, 1.587, -1.404, 0.244, 16.43, -37.529, -134.352, -19.140, -11.847, -4.293, 28.8, -0.40466, 0.24139, 0.24536, 0.84714,
 14:55:46.148,e3:ca:2d:fd:e0:8c, 2015-01-01 03:07:21.420, 1.013, 0.1, 0.074, -0.305, -2.136, 0.854, 52.169, -82.667, 104.008, -25.927, -14.967, -7.953, 29.68, -0.1864, -0.67023, 0.10446, -0.71066,
 14:55:46.148,e3:ca:2d:fd:e0:8c, 2015-01-01 03:07:21.420, 1.012, 0.097, 0.071, -0.183, -2.258, 0.854, 52.35, -82.7, 103.837, -25.927, -14.967, -7.953, 29.68, -0.1864, -0.67023, 0.10446, -0.71066,
 14:55:46.151,f6:90:cc:01:6d:25, 2015-01-01 03:07:21.975, 0.922, 0.241, 0.26, -1.038, -1.953, 0.305, 42.748, -68.395, 162.252, -25.933, -16.447, -3.007, 32.22, -0.08539, 0.56131, 0.21817, 0.79367,
 14:55:46.151,f6:90:cc:01:6d:25, 2015-01-01 03:07:21.975, 0.925, 0.242, 0.259, -0.916, -1.892, 0.427, 42.781, -68.423, 162.202, -25.933, -16.447, -3.007, 32.22, -0.08539, 0.56131, 0.21817, 0.79367,
 14:55:46.152,ed:35:33:d3:6c:f8, 2015-01-01 03:07:21.875, 0.421, 0.28, 0.862, 2.258, 1.526, 1.038, 17.781, -24.598, 147.969, -10.873, -14.727, -27.513, 32.01, 0.23849, 0.24451, 0.08249, 0.93616,
 14:55:46.152,ed:35:33:d3:6c:f8, 2015-01-01 03:07:21.875, 0.43, 0.283, 0.858, 2.991, -0.549, 1.587, 17.82, -24.593, 147.964, -10.873, -14.727, -27.513, 32.01, 0.23849, 0.24451, 0.08249, 0.93616,
 14:55:46.170,ed:40:fe:65:30:6c, 2015-01-01 03:07:26.910, 0.622, 0.226, 0.755, 1.404, -1.404, 0.244, 16.463, -37.551, -134.346, -19.140, -11.847, -4.293, 28.8, -0.40466, 0.24139, 0.24536, 0.84714,
 14:55:46.170,ed:40:fe:65:30:6c, 2015-01-01 03:07:26.910, 0.623, 0.226, 0.753, 0.854, -0.977, 0.427, 16.49, -37.573, -134.346, -19.140, -11.847, -4.293, 28.8, -0.40466, 0.24139, 0.24536, 0.84714,
 14:55:46.170,e3:ca:2d:fd:e0:8c, 2015-01-01 03:07:21.775, 1.014, 0.095, 0.07, 0.061, -2.014, 0.916, 52.52, -82.738, 103.678, -25.927, -14.967, -7.953, 29.68, -0.1864, -0.67023, 0.10446, -0.71066,
 14:55:46.170,e3:ca:2d:fd:e0:8c, 2015-01-01 03:07:21.775, 1.015, 0.095, 0.07, 0.183, -1.892, 0.977, 52.668, -82.776, 103.541, -25.927, -14.967, -7.953, 29.68, -0.1864, -0.67023, 0.10446, -0.71066,
 14:55:46.193,e3:ca:2d:fd:e0:8c, 2015-01-01 03:07:21.775, 1.017, 0.096, 0.072, -0.122, -1.77, 0.916, 52.8, -82.815, 103.442, -25.927, -14.967, -7.953, 29.68, -0.1864, -0.67023, 0.10446, -0.71066,
 14:55:46.193,e3:ca:2d:fd:e0:8c, 2015-01-01 03:07:21.775, 1.018, 0.098, 0.071, -0.305, -1.465, 0.732, 52.916, -82.842, 103.343, -25.927, -14.967, -7.953, 29.68, -0.1864, -0.67023, 0.10446, -0.71066,
 14:55:46.196,ed:35:33:d3:6c:f8, 2015-01-01 03:07:21.875, 0.431, 0.284, 0.853, 1.953, 0, 2.502, 17.858, -24.609, 147.98, -10.873, -14.727, -27.513, 32.01, 0.23849, 0.24451, 0.08249, 0.93616,
 14:55:46.196,ed:35:33:d3:6c:f8, 2015-01-01 03:07:21.875, 0.43, 0.278, 0.856, 0.977, 0.061, 1.648, 17.869, -24.626, 148.002, -10.873, -14.727, -27.513, 32.01, 0.23849, 0.24451, 0.08249, 0.93616,
 14:55:46.216,ed:40:fe:65:30:6c, 2015-01-01 03:07:26.910, 0.625, 0.223, 0.755, 0.305, -0.793, 0.549, 16.501, -37.59, -134.341, -19.140, -11.847, -4.293, 28.8, -0.40466, 0.24139, 0.24536, 0.84714,
 14:55:46.216,ed:40:fe:65:30:6c, 2015-01-01 03:07:26.910, 0.628, 0.222, 0.754, 0, -0.732, 0.671, 16.496, -37.612, -134.341, -19.140, -11.847, -4.293, 28.8, -0.40466, 0.24139, 0.24536, 0.84714,
 14:55:46.217,f6:90:cc:01:6d:25, 2015-01-01 03:07:21.975, 0.926, 0.24, 0.258, -0.854, -1.648, 0.549, 42.808, -68.456, 162.191, -25.933, -16.447, -3.007, 32.22, -0.08539, 0.56131, 0.21817, 0.79367,
 14:55:46.217,f6:90:cc:01:6d:25, 2015-01-01 03:07:21.975, 0.928, 0.24, 0.257, -0.854, -1.526, 0.549, 42.825, -68.489, 162.186, -25.933, -16.447, -3.007, 32.22, -0.08539, 0.56131, 0.21817, 0.79367,
 14:55:46.238,e3:ca:2d:fd:e0:8c, 2015-01-01 03:07:21.775, 1.019, 0.097, 0.07, -0.488, -1.038, 0.488, 52.998, -82.87, 103.255, -25.927, -14.967, -7.953, 29.68, -0.1864, -0.67023, 0.10446, -0.71066,
 14:55:46.238,e3:ca:2d:fd:e0:8c, 2015-01-01 03:07:21.775, 1.018, 0.098, 0.072, -0.61, -0.549, 0.244, 53.042, -82.881, 103.178, -25.927, -14.967, -7.953, 29.68, -0.1864, -0.67023, 0.10446, -0.71066,
 14:55:46.239,f6:90:cc:01:6d:25, 2015-01-01 03:07:21.975, 0.93, 0.239, 0.256, -1.038, -1.343, 0.549, 42.841, -68.516, 162.186, -26.000, -16.420, -2.713, 32.22, -0.08539, 0.56131, 0.21817, 0.79367,
 14:55:46.239,f6:90:cc:01:6d:25, 2015-01-01 03:07:21.975, 0.93, 0.24, 0.256, -1.038, -1.038, 0.549, 42.841, -68.544, 162.18, -26.000, -16.420, -2.713, 32.22, -0.08539, 0.56131, 0.21817, 0.79367,
 14:55:46.242,ed:35:33:d3:6c:f8, 2015-01-01 03:07:21.875, 0.435, 0.278, 0.855, 0.793, 0, 1.892, 17.875, -24.637, 148.002, -10.293, -15.027, -28.207, 32.01, 0.23849, 0.24451, 0.08249, 0.93616,
 14:55:46.242,ed:35:33:d3:6c:f8, 2015-01-01 03:07:21.875, 0.435, 0.276, 0.854, 0.549, 1.16, 2.136, 17.869, -24.642, 147.997, -10.293, -15.027, -28.207, 32.01, 0.23849, 0.24451, 0.08249, 0.93616,
 14:55:46.265,ed:35:33:d3:6c:f8, 2015-01-01 03:07:21.875, 0.432, 0.273, 0.854, 0.061, 1.526, 1.404, 17.858, -24.637, 147.997, -10.293, -15.027, -28.207, 32.01, 0.23419, 0.24435, 0.08765, 0.93683,
 14:55:46.265,ed:35:33:d3:6c:f8, 2015-01-01 03:07:21.875, 0.429, 0.272, 0.855, -0.61, 1.648, 0.732, 17.842, -24.62, 147.975, -10.293, -15.027, -28.207, 32.01, 0.23419, 0.24435, 0.08765, 0.93683,
 14:55:46.282,ed:40:fe:65:30:6c, 2015-01-01 03:07:26.910, 0.628, 0.221, 0.752, -0.244, -0.671, 0.732, 16.49, -37.628, -134.341, -19.140, -11.980, -4.967, 28.8, -0.40466, 0.24139, 0.24536, 0.84714,
 14:55:46.282,ed:40:fe:65:30:6c, 2015-01-01 03:07:26.910, 0.628, 0.219, 0.752, -0.305, -0.305, 0.671, 16.474, -37.65, -134.341, -19.140, -11.980, -4.967, 28.8, -0.40466, 0.24139, 0.24536, 0.84714,
 14:55:46.284,e3:ca:2d:fd:e0:8c, 2015-01-01 03:07:21.775, 1.015, 0.099, 0.074, -0.366, -0.305, 0.183, 53.064, -82.892, 103.14, -25.927, -14.967, -7.953, 29.68, -0.1864, -0.67023, 0.10446, -0.71066,
 14:55:46.284,e3:ca:2d:fd:e0:8c, 2015-01-01 03:07:21.775, 1.015, 0.098, 0.073, -0.061, 0, 0.122, 53.064, -82.897, 103.151, -25.927, -14.967, -7.953, 29.68, -0.1864, -0.67023, 0.10446, -0.71066,
 14:55:46.286,f6:90:cc:01:6d:25, 2015-01-01 03:07:21.975, 0.929, 0.24, 0.258, -0.916, -0.549, 0.366, 42.836, -68.571, 162.18, -26.000, -16.420, -2.713, 32.22, -0.08539, 0.56131, 0.21817, 0.79367,
 14:55:46.286,f6:90:cc:01:6d:25, 2015-01-01 03:07:21.975, 0.925, 0.241, 0.259, -0.793, 0, 0.122, 42.825, -68.582, 162.197, -26.000, -16.420, -2.713, 32.22, -0.08539, 0.56131, 0.21817, 0.79367,
 14:55:46.305,ed:40:fe:65:30:6c, 2015-01-01 03:07:26.910, 0.624, 0.219, 0.751, -0.854, -0.122, 0.427, 16.458, -37.661, -134.346, -19.140, -11.980, -4.967, 28.8, -0.40594, 0.24188, 0.24878, 0.8454,
 14:55:46.305,ed:40:fe:65:30:6c, 2015-01-01 03:07:26.910, 0.615, 0.222, 0.751, -1.099, -0.061, 0, 16.436, -37.672, -134.368, -19.140, -11.980, -4.967, 28.8, -0.40594, 0.24188, 0.24878, 0.8454,
 14:55:46.307,f6:90:cc:01:6d:25, 2015-01-01 03:07:21.975, 0.919, 0.244, 0.261, -0.732, 0.427, 0.183, 42.797, -68.588, 162.202, -26.000, -16.420, -2.713, 32.22, -0.0842, 0.56485, 0.21677, 0.79166,
 14:55:46.307,f6:90:cc:01:6d:25, 2015-01-01 03:07:21.975, 0.914, 0.241, 0.264, -0.549, 0.732, 0, 42.764, -68.588, 162.191, -26.000, -16.420, -2.713, 32.22, -0.0842, 0.56485, 0.21677, 0.79166,
 14:55:46.309,ed:35:33:d3:6c:f8, 2015-01-01 03:07:21.875, 0.423, 0.273, 0.853, -1.038, 1.526, -0.549, 17.82, -24.598, 147.914, -10.293, -15.027, -28.207, 32.01, 0.23419, 0.24435, 0.08765, 0.93683,
 14:55:46.309,ed:35:33:d3:6c:f8, 2015-01-01 03:07:21.875, 0.41, 0.279, 0.855, -1.709, 1.404, -0.732, 17.792, -24.576, 147.87, -10.293, -15.027, -28.207, 32.01, 0.23419, 0.24435, 0.08765, 0.93683,
 14:55:46.351,e3:ca:2d:fd:e0:8c, 2015-01-01 03:07:21.775, 1.013, 0.097, 0.073, 0, 0.305, 0, 53.031, -82.897, 103.206, -25.927, -14.967, -7.953, 29.68, -0.1864, -0.67023, 0.10446, -0.71066,
 14:55:46.351,e3:ca:2d:fd:e0:8c, 2015-01-01 03:07:21.775, 1.009, 0.098, 0.076, 0.183, 0.427, 0, 52.987, -82.892, 103.277, -25.927, -14.967, -7.953, 29.68, -0.1864, -0.67023, 0.10446, -0.71066,
 14:55:46.353,ed:35:33:d3:6c:f8, 2015-01-01 03:07:22.210, 0.401, 0.272, 0.862, -1.709, 0.916, -0.549, 17.765, -24.56, 147.783, -10.293, -15.027, -28.207, 32.01, 0.23419, 0.24435, 0.08765, 0.93683,
 14:55:46.353,ed:35:33:d3:6c:f8, 2015-01-01 03:07:22.210, 0.397, 0.269, 0.87, -0.244, 1.953, -0.244, 17.743, -24.538, 147.711, -10.293, -15.027, -28.207, 32.01, 0.23419, 0.24435, 0.08765, 0.93683,
 14:55:46.372,ed:40:fe:65:30:6c, 2015-01-01 03:07:26.910, 0.606, 0.222, 0.755, -1.282, 0.61, 0, 16.408, -37.672, -134.396, -19.140, -11.980, -4.967, 28.8, -0.40594, 0.24188, 0.24878, 0.8454,
 14:55:46.372,ed:40:fe:65:30:6c, 2015-01-01 03:07:26.910, 0.6, 0.222, 0.763, -1.221, 0.793, 0, 16.381, -37.667, -134.418, -19.140, -11.980, -4.967, 28.8, -0.40594, 0.24188, 0.24878, 0.8454,
 14:55:46.373,e3:ca:2d:fd:e0:8c, 2015-01-01 03:07:21.775, 1.007, 0.1, 0.077, 0.183, 0.427, -0.122, 52.943, -82.886, 103.337, -25.407, -14.620, -7.060, 29.68, -0.1864, -0.67023, 0.10446, -0.71066,
 14:55:46.373,e3:ca:2d:fd:e0:8c, 2015-01-01 03:07:21.775, 1.006, 0.104, 0.078, 0, 0.183, -0.244, 52.932, -82.881, 103.354, -25.407, -14.620, -7.060, 29.68, -0.1864, -0.67023, 0.10446, -0.71066,
 14:55:46.374,f6:90:cc:01:6d:25, 2015-01-01 03:07:21.975, 0.911, 0.245, 0.267, -0.61, 0.671, 0, 42.731, -68.582, 162.18, -26.000, -16.420, -2.713, 32.22, -0.0842, 0.56485, 0.21677, 0.79166,
 14:55:46.374,f6:90:cc:01:6d:25, 2015-01-01 03:07:21.975, 0.91, 0.248, 0.269, -0.732, 0.488, 0, 42.698, -68.571, 162.175, -26.000, -16.420, -2.713, 32.22, -0.0842, 0.56485, 0.21677, 0.79166,
 14:55:46.394,ed:40:fe:65:30:6c, 2015-01-01 03:07:27.270, 0.596, 0.217, 0.77, -0.183, 0.183, -0.244, 16.364, -37.661, -134.44, -19.140, -11.980, -4.967, 28.8, -0.40594, 0.24188, 0.24878, 0.8454,
 14:55:46.394,ed:40:fe:65:30:6c, 2015-01-01 03:07:27.270, 0.6, 0.215, 0.773, 0.427, -0.366, -0.671, 16.375, -37.661, -134.467, -19.140, -11.980, -4.967, 28.8, -0.40594, 0.24188, 0.24878, 0.8454,
 14:55:46.397,f6:90:cc:01:6d:25, 2015-01-01 03:07:22.330, 0.912, 0.245, 0.271, -0.671, 0.122, -0.305, 42.682, -68.566, 162.153, -26.000, -16.420, -2.713, 32.22, -0.0842, 0.56485, 0.21677, 0.79166,
 14:55:46.397,f6:90:cc:01:6d:25, 2015-01-01 03:07:22.330, 0.913, 0.245, 0.271, -0.61, -0.244, -0.488, 42.687, -68.566, 162.125, -26.000, -16.420, -2.713, 32.22, -0.0842, 0.56485, 0.21677, 0.79166,
 14:55:46.398,ed:35:33:d3:6c:f8, 2015-01-01 03:07:22.210, 0.399, 0.265, 0.873, 0.671, 1.587, 0, 17.743, -24.505, 147.673, -10.293, -15.027, -28.207, 32.01, 0.23419, 0.24435, 0.08765, 0.93683,
 14:55:46.398,ed:35:33:d3:6c:f8, 2015-01-01 03:07:22.210, 0.404, 0.268, 0.872, 0.793, 1.16, -0.427, 17.754, -24.483, 147.667, -10.293, -15.027, -28.207, 32.01, 0.23419, 0.24435, 0.08765, 0.93683,
 14:55:46.417,ed:40:fe:65:30:6c, 2015-01-01 03:07:27.270, 0.602, 0.218, 0.771, 0.366, -0.854, -0.977, 16.397, -37.667, -134.5, -19.140, -11.980, -4.967, 28.8, -0.40594, 0.24188, 0.24878, 0.8454,
 14:55:46.417,ed:40:fe:65:30:6c, 2015-01-01 03:07:27.270, 0.605, 0.224, 0.765, 0, -0.488, -0.916, 16.408, -37.672, -134.517, -19.140, -11.980, -4.967, 28.8, -0.40594, 0.24188, 0.24878, 0.8454,
 14:55:46.418,e3:ca:2d:fd:e0:8c, 2015-01-01 03:07:21.775, 1.008, 0.104, 0.078, -0.488, 0, -0.305, 52.949, -82.875, 103.348, -25.407, -14.620, -7.060, 29.68, -0.1864, -0.67023, 0.10446, -0.71066,
