Index,L5_Acceleration X(g),L5_Acceleration Y(g),L5_Acceleration Z(g),L5_Angular velocity X(°/s),L5_Angular velocity Y(°/s),L5_Angular velocity Z(°/s),L5_Angle X(°),L5_Angle Y(°),L5_Angle Z(°),L5_Magnetic field X(ʯt),L5_Magnetic field Y(ʯt),L5_Magnetic field Z(ʯt),L5_Temperature(℃),L5_Quaternions 0(),L5_Quaternions 1(),L5_Quaternions 2(),L5_Quaternions 3(),L5___orig_idx,T4_Acceleration X(g),T4_Acceleration Y(g),T4_Acceleration Z(g),T4_Angular velocity X(°/s),T4_Angular velocity Y(°/s),T4_Angular velocity Z(°/s),T4_Angle X(°),T4_Angle Y(°),T4_Angle Z(°),T4_Magnetic field X(ʯt),T4_Magnetic field Y(ʯt),T4_Magnetic field Z(ʯt),T4_Temperature(℃),T4_Quaternions 0(),T4_Quaternions 1(),T4_Quaternions 2(),T4_Quaternions 3(),T4___orig_idx,C7_Acceleration X(g),C7_Acceleration Y(g),C7_Acceleration Z(g),C7_Angular velocity X(°/s),C7_Angular velocity Y(°/s),C7_Angular velocity Z(°/s),C7_Angle X(°),C7_Angle Y(°),C7_Angle Z(°),C7_Magnetic field X(ʯt),C7_Magnetic field Y(ʯt),C7_Magnetic field Z(ʯt),C7_Temperature(℃),C7_Quaternions 0(),C7_Quaternions 1(),C7_Quaternions 2(),C7_Quaternions 3(),C7___orig_idx,T12_Acceleration X(g),T12_Acceleration Y(g),T12_Acceleration Z(g),T12_Angular velocity X(°/s),T12_Angular velocity Y(°/s),T12_Angular velocity Z(°/s),T12_Angle X(°),T12_Angle Y(°),T12_Angle Z(°),T12_Magnetic field X(ʯt),T12_Magnetic field Y(ʯt),T12_Magnetic field Z(ʯt),T12_Temperature(℃),T12_Quaternions 0(),T12_Quaternions 1(),T12_Quaternions 2(),T12_Quaternions 3(),T12___orig_idx
0,0.886,-0.177,0.49,-1.953,-1.648,-0.671,-19.171,-59.145,-178.0,-25.98,-9.353,-19.44,26.81,0.06689,0.48599,-0.13358,0.86105,0,0.476,-0.376,0.805,15.137,-2.991,3.296,-22.698,-28.257,-114.879,-16.573,-0.66,-10.473,28.07,0.47168,-0.30783,0.03571,-0.82544,4,0.519,-0.346,0.777,6.226,-1.16,3.723,-22.324,-32.41,156.182,-15.793,-2.213,-33.767,30.41,-0.26315,-0.22971,0.26147,-0.89972,2,0.727,-0.356,0.603,0.854,2.93,-1.526,-28.196,-46.241,-137.17,-26.567,-3.96,-15.333,31.51,-0.241,0.43735,-0.06845,0.86362,6
1,0.902,-0.178,0.492,-1.587,-1.587,-0.488,-19.215,-59.178,-177.995,-25.98,-9.353,-19.44,26.81,0.06689,0.48599,-0.13358,0.86105,1,0.465,-0.342,0.811,19.47,-0.732,4.7,-22.385,-28.235,-114.829,-16.573,-0.66,-10.473,28.07,0.47168,-0.30783,0.03571,-0.82544,5,0.505,-0.324,0.75,11.536,-1.221,5.127,-22.231,-32.388,156.511,-15.793,-2.213,-33.767,30.41,-0.26315,-0.22971,0.26147,-0.89972,3,0.712,-0.351,0.596,2.991,4.578,-1.892,-28.114,-46.181,-137.274,-26.567,-3.96,-15.333,31.51,-0.241,0.43735,-0.06845,0.86362,7
2,0.906,-0.179,0.486,-0.977,-1.465,-0.061,-19.254,-59.211,-177.968,-25.773,-9.54,-18.94,26.81,0.06689,0.48599,-0.13358,0.86105,12,0.466,-0.335,0.8,17.517,4.333,4.7,-22.088,-28.114,-114.835,-16.573,-0.66,-10.473,28.07,0.47168,-0.30783,0.03571,-0.82544,10,0.512,-0.325,0.751,11.597,-0.549,5.188,-22.088,-32.355,156.846,-15.36,-3.513,-32.707,30.41,-0.26315,-0.22971,0.26147,-0.89972,8,0.696,-0.338,0.599,4.272,4.395,-1.709,-27.988,-46.115,-137.406,-26.567,-3.96,-15.333,31.51,-0.241,0.43735,-0.06845,0.86362,18
3,0.894,-0.179,0.487,-0.366,-0.854,0.427,-19.292,-59.227,-177.924,-25.773,-9.54,-18.94,26.81,0.06689,0.48599,-0.13358,0.86105,13,0.45,-0.33,0.797,11.902,7.141,4.089,-21.885,-27.955,-114.884,-16.573,-0.66,-10.473,28.07,0.47168,-0.30783,0.03571,-0.82544,11,0.51,-0.331,0.746,6.042,-3.906,2.258,-21.989,-32.366,157.154,-15.36,-3.513,-32.707,30.41,-0.26315,-0.22971,0.26147,-0.89972,9,0.694,-0.321,0.604,2.869,3.418,-0.427,-27.878,-46.049,-137.499,-26.567,-3.96,-15.333,31.51,-0.241,0.43735,-0.06845,0.86362,19
4,0.868,-0.18,0.486,0.122,0.183,0.854,-19.319,-59.233,-177.88,-25.773,-9.54,-18.94,26.81,0.06702,0.48981,-0.13687,0.85837,14,0.452,-0.332,0.806,9.277,8.118,2.38,-21.714,-27.784,-114.983,-16.573,-0.66,-10.473,28.07,0.47168,-0.30783,0.03571,-0.82544,20,0.502,-0.326,0.755,4.944,-1.282,2.014,-21.945,-32.388,157.423,-15.36,-3.513,-32.707,30.41,-0.23709,-0.23257,0.23303,-0.91394,16,0.694,-0.32,0.617,0.916,2.869,-0.549,-27.823,-45.994,-137.571,-26.48,-4.807,-15.607,31.51,-0.241,0.43735,-0.06845,0.86362,24
5,0.853,-0.175,0.49,0.549,1.038,0.793,-19.341,-59.222,-177.841,-25.773,-9.54,-18.94,26.81,0.06702,0.48981,-0.13687,0.85837,15,0.455,-0.342,0.819,9.521,8.606,0.061,-21.517,-27.625,-115.126,-16.573,-0.66,-10.473,28.07,0.47168,-0.30783,0.03571,-0.82544,21,0.511,-0.341,0.787,4.395,-2.014,0.366,-21.896,-32.404,157.676,-15.36,-3.513,-32.707,30.41,-0.23709,-0.23257,0.23303,-0.91394,17,0.686,-0.323,0.62,0.0,3.479,-0.793,-27.784,-45.939,-137.648,-26.48,-4.807,-15.607,31.51,-0.241,0.43735,-0.06845,0.86362,25
6,0.861,-0.169,0.494,0.671,0.549,0.671,-19.347,-59.205,-177.819,-25.773,-9.54,-18.94,26.81,0.06702,0.48981,-0.13687,0.85837,22,0.439,-0.336,0.837,10.193,7.507,-0.061,-21.308,-27.488,-115.247,-16.213,-2.307,-10.22,28.07,0.47168,-0.30783,0.03571,-0.82544,28,0.513,-0.333,0.794,4.272,-5.188,-2.319,-21.841,-32.47,157.906,-15.36,-3.513,-32.707,30.41,-0.23709,-0.23257,0.23303,-0.91394,26,0.684,-0.326,0.613,1.282,3.967,-1.038,-27.735,-45.873,-137.73,-26.48,-4.807,-15.607,31.51,-0.241,0.43735,-0.06845,0.86362,34
7,0.872,-0.168,0.495,0.244,-0.427,0.732,-19.363,-59.2,-177.803,-25.773,-9.54,-18.94,26.81,0.06702,0.48981,-0.13687,0.85837,23,0.431,-0.318,0.857,8.545,4.822,-0.061,-21.138,-27.394,-115.345,-16.213,-2.307,-10.22,28.07,0.47168,-0.30783,0.03571,-0.82544,29,0.504,-0.309,0.811,5.92,-3.174,-1.465,-21.758,-32.547,158.121,-15.36,-3.513,-32.707,30.41,-0.23709,-0.23257,0.23303,-0.91394,27,0.691,-0.332,0.63,1.16,2.197,-0.977,-27.675,-45.824,-137.802,-26.48,-4.807,-15.607,31.51,-0.241,0.43735,-0.06845,0.86362,35
8,0.876,-0.172,0.495,-0.366,-0.427,0.793,-19.396,-59.2,-177.764,-25.773,-9.54,-18.94,26.81,0.06702,0.48981,-0.13687,0.85837,30,0.44,-0.323,0.851,7.446,3.601,0.0,-20.989,-27.323,-115.439,-16.213,-2.307,-10.22,28.07,0.47168,-0.30783,0.03571,-0.82544,38,0.51,-0.305,0.819,6.165,-2.014,-0.122,-21.66,-32.585,158.329,-15.36,-3.513,-32.707,30.41,-0.23709,-0.23257,0.23303,-0.91394,32,0.696,-0.327,0.631,0.0,1.587,-0.488,-27.642,-45.786,-137.845,-26.48,-4.807,-15.607,31.51,-0.23499,0.43185,-0.06946,0.86795,40
9,0.875,-0.179,0.505,-0.793,0.0,0.916,-19.44,-59.2,-177.72,-25.773,-9.54,-18.94,26.81,0.06702,0.48981,-0.13687,0.85837,31,0.448,-0.315,0.85,6.409,3.174,-0.671,-20.858,-27.263,-115.543,-16.213,-2.307,-10.22,28.07,0.47168,-0.30783,0.03571,-0.82544,39,0.521,-0.314,0.805,5.127,-3.967,-1.343,-21.566,-32.629,158.544,-15.36,-3.513,-32.707,30.41,-0.23709,-0.23257,0.23303,-0.91394,33,0.692,-0.323,0.641,-0.916,0.854,-0.305,-27.642,-45.758,-137.873,-26.48,-4.807,-15.607,31.51,-0.23499,0.43185,-0.06946,0.86795,41
10,0.866,-0.18,0.502,-0.916,-0.244,0.854,-19.484,-59.189,-177.687,-25.773,-9.54,-18.94,26.81,0.06702,0.48981,-0.13687,0.85837,36,0.447,-0.312,0.854,4.028,2.808,-1.282,-20.764,-27.213,-115.67,-16.213,-2.307,-10.22,28.07,0.47311,-0.28934,0.02512,-0.8317,44,0.525,-0.305,0.802,4.639,-3.296,-1.892,-21.478,-32.69,158.725,-15.36,-3.513,-32.707,30.41,-0.23709,-0.23257,0.23303,-0.91394,42,0.692,-0.321,0.63,-1.099,1.282,0.0,-27.653,-45.725,-137.906,-26.48,-4.807,-15.607,31.51,-0.23499,0.43185,-0.06946,0.86795,48
11,0.865,-0.175,0.496,-0.61,-1.038,0.977,-19.534,-59.194,-177.649,-25.773,-9.54,-18.94,26.81,0.06702,0.48981,-0.13687,0.85837,37,0.457,-0.305,0.85,1.526,1.221,-1.221,-20.726,-27.191,-115.768,-16.213,-2.307,-10.22,28.07,0.47311,-0.28934,0.02512,-0.8317,45,0.526,-0.302,0.804,3.601,-0.183,-1.831,-21.39,-32.717,158.873,-15.36,-3.513,-32.707,30.41,-0.23709,-0.23257,0.23303,-0.91394,43,0.701,-0.319,0.621,-1.526,1.343,0.977,-27.675,-45.687,-137.944,-26.48,-4.807,-15.607,31.51,-0.23499,0.43185,-0.06946,0.86795,49
12,0.871,-0.173,0.492,-0.244,-1.892,1.343,-19.594,-59.211,-177.594,-25.773,-9.54,-18.94,26.81,0.06702,0.48981,-0.13687,0.85837,46,0.462,-0.323,0.84,1.587,-0.61,-2.014,-20.682,-27.208,-115.873,-16.213,-2.307,-10.22,28.07,0.47311,-0.28934,0.02512,-0.8317,52,0.521,-0.312,0.799,1.587,2.258,-3.174,-21.313,-32.695,158.972,-15.36,-3.513,-32.707,30.41,-0.23709,-0.23257,0.23303,-0.91394,50,0.706,-0.336,0.623,-1.587,0.854,1.099,-27.713,-45.648,-137.933,-26.48,-4.807,-15.607,31.51,-0.23499,0.43185,-0.06946,0.86795,56
13,0.874,-0.178,0.487,-0.488,-2.014,1.343,-19.666,-59.233,-177.528,-25.773,-9.54,-18.94,26.81,0.06702,0.48981,-0.13687,0.85837,47,0.458,-0.351,0.843,4.456,-0.977,-2.625,-20.577,-27.241,-115.988,-16.213,-2.307,-10.22,28.07,0.47311,-0.28934,0.02512,-0.8317,53,0.524,-0.329,0.794,1.709,1.526,-2.808,-21.242,-32.662,159.055,-15.36,-3.513,-32.707,30.41,-0.23709,-0.23257,0.23303,-0.91394,51,0.708,-0.34,0.621,-1.404,1.465,0.671,-27.751,-45.604,-137.922,-26.48,-4.807,-15.607,31.51,-0.23499,0.43185,-0.06946,0.86795,57
14,0.882,-0.182,0.486,-1.038,-2.014,1.16,-19.742,-59.26,-177.446,-25.773,-9.54,-18.94,26.81,0.06702,0.48981,-0.13687,0.85837,54,0.473,-0.325,0.835,8.362,1.221,-0.916,-20.413,-27.213,-116.082,-16.213,-2.307,-10.22,28.07,0.47311,-0.28934,0.02512,-0.8317,60,0.534,-0.308,0.781,6.897,-0.61,-0.671,-21.143,-32.651,159.186,-15.36,-3.513,-32.707,30.41,-0.23709,-0.23257,0.23303,-0.91394,58,0.71,-0.342,0.627,-0.977,0.854,0.427,-27.779,-45.571,-137.928,-26.48,-4.807,-15.607,31.51,-0.23499,0.43185,-0.06946,0.86795,62
15,0.889,-0.186,0.483,-1.282,-2.563,0.854,-19.825,-59.293,-177.369,-25.773,-9.54,-18.94,26.81,0.06702,0.48981,-0.13687,0.85837,55,0.463,-0.317,0.837,8.972,1.892,0.061,-20.237,-27.175,-116.153,-16.213,-2.307,-10.22,28.07,0.47311,-0.28934,0.02512,-0.8317,61,0.527,-0.307,0.777,9.277,0.671,0.854,-20.995,-32.635,159.362,-15.36,-3.513,-32.707,30.41,-0.23709,-0.23257,0.23303,-0.91394,59,0.71,-0.338,0.631,-1.77,0.488,0.793,-27.812,-45.544,-137.917,-26.48,-4.807,-15.607,31.51,-0.23499,0.43185,-0.06946,0.86795,63
16,0.894,-0.188,0.482,-0.427,-3.052,0.671,-19.902,-59.337,-177.286,-25.773,-9.54,-18.94,26.81,0.06702,0.48981,-0.13687,0.85837,64,0.451,-0.31,0.833,7.08,3.357,0.122,-20.099,-27.109,-116.23,-16.213,-2.307,-10.22,28.07,0.47311,-0.28934,0.02512,-0.8317,70,0.521,-0.308,0.776,6.592,1.648,0.122,-20.847,-32.596,159.527,-15.167,-3.987,-31.687,30.41,-0.23709,-0.23257,0.23303,-0.91394,68,0.689,-0.333,0.603,-2.136,2.38,1.709,-27.867,-45.494,-137.906,-26.48,-4.807,-15.607,31.51,-0.23499,0.43185,-0.06946,0.86795,66
17,0.895,-0.185,0.486,0.549,-2.991,0.916,-19.962,-59.392,-177.204,-25.773,-9.54,-18.94,26.81,0.06702,0.48981,-0.13687,0.85837,65,0.444,-0.291,0.83,5.859,4.028,-0.488,-19.973,-27.037,-116.329,-16.213,-2.307,-10.22,28.07,0.47311,-0.28934,0.02512,-0.8317,71,0.521,-0.289,0.776,4.272,1.16,-1.404,-20.737,-32.569,159.659,-15.167,-3.987,-31.687,30.41,-0.23709,-0.23257,0.23303,-0.91394,69,0.683,-0.334,0.604,-2.686,1.16,2.197,-27.938,-45.439,-137.884,-26.48,-4.807,-15.607,31.51,-0.23499,0.43185,-0.06946,0.86795,67
18,0.886,-0.182,0.483,0.977,-2.258,1.526,-20.023,-59.431,-177.111,-25.827,-9.507,-18.427,26.81,0.06702,0.48981,-0.13687,0.85837,72,0.436,-0.298,0.836,5.737,3.54,-0.671,-19.847,-26.977,-116.417,-16.213,-2.307,-10.22,28.07,0.47311,-0.28934,0.02512,-0.8317,76,0.511,-0.287,0.783,4.7,1.099,-1.709,-20.638,-32.547,159.758,-15.167,-3.987,-31.687,30.41,-0.21509,-0.24127,0.21744,-0.92096,74,0.684,-0.335,0.613,-3.113,0.366,2.075,-28.032,-45.406,-137.823,-26.48,-4.807,-15.607,31.51,-0.23499,0.43185,-0.06946,0.86795,78
19,0.872,-0.176,0.482,0.671,-1.587,2.014,-20.089,-59.453,-177.006,-25.827,-9.507,-18.427,26.81,0.06702,0.48981,-0.13687,0.85837,73,0.436,-0.321,0.84,4.578,3.052,-0.977,-19.748,-26.922,-116.521,-16.213,-2.307,-10.22,28.07,0.47311,-0.28934,0.02512,-0.8317,77,0.508,-0.314,0.791,4.272,0.488,-2.075,-20.528,-32.542,159.846,-15.167,-3.987,-31.687,30.41,-0.21509,-0.24127,0.21744,-0.92096,75,0.686,-0.333,0.62,-3.418,-0.061,1.282,-28.13,-45.385,-137.78,-26.48,-4.807,-15.607,31.51,-0.23499,0.43185,-0.06946,0.86795,79
20,0.867,-0.172,0.487,0.488,-1.16,2.075,-20.16,-59.469,-176.907,-25.827,-9.507,-18.427,26.81,0.06702,0.48981,-0.13687,0.85837,80,0.437,-0.326,0.844,3.54,2.136,-2.075,-19.66,-26.895,-116.647,-16.213,-2.307,-10.22,28.07,0.47311,-0.28934,0.02512,-0.8317,84,0.51,-0.323,0.798,3.357,0.427,-2.197,-20.435,-32.536,159.933,-15.167,-3.987,-31.687,30.41,-0.21509,-0.24127,0.21744,-0.92096,82,0.683,-0.345,0.62,-3.052,0.122,0.732,-28.213,-45.363,-137.763,-26.48,-4.807,-15.607,31.51,-0.23499,0.43185,-0.06946,0.86795,90
21,0.871,-0.173,0.483,0.122,-1.587,2.075,-20.237,-59.48,-176.814,-25.827,-9.507,-18.427,26.81,0.06702,0.48981,-0.13687,0.85837,81,0.436,-0.311,0.856,1.404,1.282,-2.38,-19.594,-26.878,-116.79,-16.213,-2.307,-10.22,28.07,0.47311,-0.28934,0.02512,-0.8317,85,0.511,-0.313,0.799,2.563,-0.061,-2.625,-20.363,-32.536,160.027,-15.167,-3.987,-31.687,30.41,-0.21509,-0.24127,0.21744,-0.92096,83,0.685,-0.355,0.614,-2.625,0.183,0.244,-28.273,-45.352,-137.752,-26.48,-4.807,-15.607,31.51,-0.23499,0.43185,-0.06946,0.86795,91
22,0.874,-0.175,0.485,-0.244,-2.197,1.953,-20.319,-59.502,-176.71,-25.827,-9.507,-18.427,26.81,0.06335,0.4924,-0.13889,0.85681,86,0.44,-0.315,0.85,0.122,0.732,-1.587,-19.561,-26.862,-116.917,-16.213,-2.307,-10.22,28.07,0.47311,-0.28934,0.02512,-0.8317,92,0.511,-0.296,0.802,2.93,0.061,-2.197,-20.292,-32.542,160.126,-15.167,-3.987,-31.687,30.41,-0.21509,-0.24127,0.21744,-0.92096,88,0.69,-0.354,0.621,-2.686,-0.427,-0.366,-28.334,-45.346,-137.752,-25.893,-4.307,-15.627,31.51,-0.23499,0.43185,-0.06946,0.86795,96
23,0.877,-0.18,0.487,-0.732,-2.075,1.709,-20.407,-59.529,-176.6,-25.827,-9.507,-18.427,26.81,0.06335,0.4924,-0.13889,0.85681,87,0.446,-0.319,0.852,-0.977,-0.061,-1.648,-19.556,-26.856,-117.021,-16.213,-2.307,-10.22,28.07,0.47311,-0.28934,0.02512,-0.8317,93,0.513,-0.301,0.802,2.014,0.793,-1.526,-20.231,-32.531,160.241,-15.167,-3.987,-31.687,30.41,-0.21509,-0.24127,0.21744,-0.92096,89,0.693,-0.352,0.625,-2.625,-0.916,-0.854,-28.389,-45.352,-137.763,-25.893,-4.307,-15.627,31.51,-0.23499,0.43185,-0.06946,0.86795,97
24,0.876,-0.185,0.49,-1.16,-2.075,1.465,-20.5,-59.557,-176.495,-25.827,-9.507,-18.427,26.81,0.06335,0.4924,-0.13889,0.85681,94,0.454,-0.324,0.85,-1.587,-0.366,-1.831,-19.578,-26.862,-117.114,-15.78,-3.1,-10.32,28.07,0.47311,-0.28934,0.02512,-0.8317,98,0.515,-0.311,0.804,0.0,0.977,-1.465,-20.204,-32.509,160.367,-15.167,-3.987,-31.687,30.41,-0.21509,-0.24127,0.21744,-0.92096,100,0.696,-0.352,0.616,-1.831,-0.244,-1.221,-28.422,-45.357,-137.785,-25.893,-4.307,-15.627,31.51,-0.23499,0.43185,-0.06946,0.86795,106
25,0.894,-0.187,0.487,-1.343,-2.38,1.282,-20.594,-59.584,-176.413,-25.827,-9.507,-18.427,26.81,0.06335,0.4924,-0.13889,0.85681,95,0.451,-0.324,0.841,-0.61,0.183,-1.404,-19.6,-26.867,-117.197,-15.78,-3.1,-10.32,28.07,0.47311,-0.28934,0.02512,-0.8317,99,0.522,-0.313,0.801,-1.465,0.305,-1.709,-20.209,-32.492,160.494,-15.167,-3.987,-31.687,30.41,-0.21509,-0.24127,0.21744,-0.92096,101,0.698,-0.359,0.61,-0.977,0.122,-1.343,-28.433,-45.357,-137.807,-25.893,-4.307,-15.627,31.51,-0.23499,0.43185,-0.06946,0.86795,107
26,0.874,-0.188,0.483,-0.488,-3.967,0.732,-20.676,-59.634,-176.331,-25.827,-9.507,-18.427,26.81,0.06335,0.4924,-0.13889,0.85681,102,0.449,-0.323,0.835,-0.244,0.977,-0.488,-19.611,-26.862,-117.274,-15.78,-3.1,-10.32,28.07,0.47311,-0.28934,0.02512,-0.8317,108,0.52,-0.309,0.787,-1.16,-0.427,-1.465,-20.231,-32.487,160.626,-15.167,-3.987,-31.687,30.41,-0.21509,-0.24127,0.21744,-0.92096,104,0.699,-0.362,0.611,-0.854,0.183,-1.526,-28.433,-45.357,-137.851,-25.893,-4.307,-15.627,31.51,-0.23352,0.43024,-0.0769,0.86853,112
27,0.89,-0.192,0.479,-0.854,-2.563,1.526,-20.764,-59.683,-176.226,-25.827,-9.507,-18.427,26.81,0.06335,0.4924,-0.13889,0.85681,103,0.457,-0.318,0.828,-0.122,2.319,-0.366,-19.616,-26.834,-117.356,-15.78,-3.1,-10.32,28.07,0.47311,-0.28934,0.02512,-0.8317,109,0.52,-0.308,0.777,-0.732,-0.732,-0.427,-20.259,-32.492,160.779,-15.167,-3.987,-31.687,30.41,-0.21509,-0.24127,0.21744,-0.92096,105,0.699,-0.356,0.61,-0.793,0.244,-1.465,-28.438,-45.352,-137.895,-25.893,-4.307,-15.627,31.51,-0.23352,0.43024,-0.0769,0.86853,113
28,0.891,-0.196,0.477,-0.61,-1.77,1.465,-20.852,-59.711,-176.127,-25.827,-9.507,-18.427,26.81,0.06335,0.4924,-0.13889,0.85681,110,0.455,-0.324,0.831,0.0,2.502,-0.916,-19.622,-26.785,-117.471,-15.78,-3.1,-10.32,28.07,0.46475,-0.28156,0.02249,-0.83911,116,0.523,-0.31,0.77,-0.549,-0.366,0.183,-20.286,-32.492,160.939,-15.167,-3.987,-31.687,30.41,-0.21509,-0.24127,0.21744,-0.92096,114,0.7,-0.353,0.604,-0.427,0.61,-1.221,-28.438,-45.346,-137.928,-25.893,-4.307,-15.627,31.51,-0.23352,0.43024,-0.0769,0.86853,120
29,0.89,-0.201,0.472,-0.671,-1.587,0.732,-20.923,-59.733,-176.056,-25.827,-9.507,-18.427,26.81,0.06335,0.4924,-0.13889,0.85681,111,0.445,-0.317,0.835,-0.061,2.869,-0.732,-19.616,-26.741,-117.592,-15.78,-3.1,-10.32,28.07,0.46475,-0.28156,0.02249,-0.83911,117,0.526,-0.316,0.773,-0.916,0.122,0.183,-20.319,-32.481,161.093,-15.167,-3.987,-31.687,30.41,-0.21509,-0.24127,0.21744,-0.92096,115,0.699,-0.358,0.604,-0.732,0.549,-1.282,-28.438,-45.335,-137.966,-25.893,-4.307,-15.627,31.51,-0.23352,0.43024,-0.0769,0.86853,121
30,0.888,-0.199,0.467,-0.244,-1.343,0.488,-20.978,-59.755,-176.012,-25.827,-9.507,-18.427,26.81,0.06335,0.4924,-0.13889,0.85681,118,0.445,-0.311,0.84,-0.488,2.441,-0.366,-19.622,-26.691,-117.697,-15.78,-3.1,-10.32,28.07,0.46475,-0.28156,0.02249,-0.83911,128,0.523,-0.308,0.778,-0.549,-0.183,0.244,-20.352,-32.47,161.241,-15.167,-3.987,-31.687,30.41,-0.21509,-0.24127,0.21744,-0.92096,122,0.697,-0.356,0.6,-0.61,0.916,-1.16,-28.444,-45.324,-137.994,-25.893,-4.307,-15.627,31.51,-0.23352,0.43024,-0.0769,0.86853,126
31,0.889,-0.198,0.471,0.305,-1.038,0.244,-21.011,-59.771,-175.979,-25.827,-9.507,-18.427,26.81,0.06335,0.4924,-0.13889,0.85681,119,0.444,-0.311,0.846,-1.343,1.77,-0.366,-19.638,-26.647,-117.795,-15.78,-3.1,-10.32,28.07,0.46475,-0.28156,0.02249,-0.83911,129,0.522,-0.302,0.793,-0.061,-0.183,0.061,-20.374,-32.465,161.389,-15.167,-3.987,-31.687,30.41,-0.21509,-0.24127,0.21744,-0.92096,123,0.696,-0.355,0.599,-0.183,0.916,-1.038,-28.444,-45.313,-138.027,-25.893,-4.307,-15.627,31.51,-0.23352,0.43024,-0.0769,0.86853,127
32,0.894,-0.196,0.468,0.244,-0.671,-0.061,-21.033,-59.788,-175.963,-25.827,-9.507,-18.427,26.81,0.06335,0.4924,-0.13889,0.85681,124,0.442,-0.308,0.848,-2.502,1.16,-0.61,-19.671,-26.62,-117.894,-15.78,-3.1,-10.32,28.07,0.46475,-0.28156,0.02249,-0.83911,132,0.521,-0.304,0.797,-0.183,-0.916,-0.122,-20.391,-32.465,161.537,-15.72,-4.727,-32.98,30.41,-0.21509,-0.24127,0.21744,-0.92096,130,0.695,-0.349,0.609,-0.427,0.427,-0.793,-28.449,-45.302,-138.065,-25.893,-4.307,-15.627,31.51,-0.23352,0.43024,-0.0769,0.86853,134
33,0.891,-0.195,0.469,-0.122,-0.183,-0.488,-21.039,-59.799,-175.968,-25.827,-9.507,-18.427,26.81,0.06335,0.4924,-0.13889,0.85681,125,0.438,-0.303,0.849,-4.456,1.465,-1.221,-19.731,-26.598,-117.999,-15.78,-3.1,-10.32,28.07,0.46475,-0.28156,0.02249,-0.83911,133,0.521,-0.303,0.792,-0.916,-0.854,-0.916,-20.413,-32.476,161.68,-15.72,-4.727,-32.98,30.41,-0.21509,-0.24127,0.21744,-0.92096,131,0.692,-0.337,0.616,-0.732,-0.122,-0.427,-28.471,-45.302,-138.087,-25.893,-4.307,-15.627,31.51,-0.23352,0.43024,-0.0769,0.86853,135
34,0.886,-0.193,0.472,0.0,-0.671,-0.977,-21.033,-59.815,-175.995,-25.827,-9.507,-18.427,26.81,0.06335,0.4924,-0.13889,0.85681,138,0.438,-0.297,0.85,-7.202,0.366,-0.793,-19.825,-26.581,-118.098,-15.78,-3.1,-10.32,28.07,0.46475,-0.28156,0.02249,-0.83911,136,0.519,-0.296,0.793,-2.136,-0.366,-1.465,-20.446,-32.487,161.796,-15.72,-4.727,-32.98,30.41,-0.19843,-0.24487,0.21176,-0.92505,140,0.69,-0.336,0.621,-1.526,-0.488,-0.305,-28.515,-45.308,-138.093,-25.893,-4.307,-15.627,31.51,-0.23352,0.43024,-0.0769,0.86853,144
35,0.878,-0.19,0.473,-0.427,-0.061,-1.038,-21.028,-59.832,-176.028,-25.827,-9.507,-18.427,26.81,0.06335,0.4924,-0.13889,0.85681,139,0.438,-0.311,0.846,-7.202,0.061,-1.465,-19.962,-26.576,-118.202,-15.78,-3.1,-10.32,28.07,0.46475,-0.28156,0.02249,-0.83911,137,0.515,-0.292,0.801,-3.296,0.0,-1.892,-20.49,-32.492,161.895,-15.72,-4.727,-32.98,30.41,-0.19843,-0.24487,0.21176,-0.92505,141,0.689,-0.339,0.618,-2.502,-0.671,-0.305,-28.57,-45.313,-138.093,-25.893,-4.307,-15.627,31.51,-0.23352,0.43024,-0.0769,0.86853,145
36,0.874,-0.183,0.477,-0.488,-0.244,-1.099,-21.017,-59.843,-176.072,-25.827,-9.093,-18.633,26.81,0.06335,0.4924,-0.13889,0.85681,142,0.438,-0.314,0.842,-6.531,-0.183,-1.648,-20.094,-26.587,-118.301,-15.78,-3.1,-10.32,28.07,0.46475,-0.28156,0.02249,-0.83911,148,0.516,-0.295,0.798,-4.456,-0.732,-2.502,-20.544,-32.503,161.988,-15.72,-4.727,-32.98,30.41,-0.19843,-0.24487,0.21176,-0.92505,146,0.689,-0.335,0.616,-3.235,-0.793,-0.183,-28.647,-45.319,-138.071,-25.893,-4.307,-15.627,31.51,-0.23352,0.43024,-0.0769,0.86853,150
37,0.873,-0.179,0.479,-0.854,-0.488,-1.16,-21.006,-59.859,-176.105,-25.827,-9.093,-18.633,26.81,0.06335,0.4924,-0.13889,0.85681,143,0.444,-0.317,0.842,-5.737,-0.549,-1.648,-20.204,-26.598,-118.389,-15.78,-3.1,-10.32,28.07,0.46475,-0.28156,0.02249,-0.83911,149,0.514,-0.3,0.789,-4.272,-0.916,-2.319,-20.61,-32.525,162.076,-15.72,-4.727,-32.98,30.41,-0.19843,-0.24487,0.21176,-0.92505,147,0.695,-0.335,0.614,-3.174,-0.793,-0.305,-28.718,-45.324,-138.054,-25.893,-4.307,-15.627,31.51,-0.23352,0.43024,-0.0769,0.86853,151
38,0.874,-0.177,0.481,-1.404,-0.61,-1.221,-21.011,-59.881,-176.16,-25.827,-9.093,-18.633,26.81,0.06335,0.4924,-0.13889,0.85681,154,0.448,-0.318,0.84,-4.7,-0.671,-1.404,-20.303,-26.614,-118.471,-15.78,-3.1,-10.32,28.07,0.46475,-0.28156,0.02249,-0.83911,156,0.519,-0.301,0.788,-3.723,-0.427,-1.953,-20.671,-32.536,162.18,-15.72,-4.727,-32.98,30.41,-0.19843,-0.24487,0.21176,-0.92505,152,0.699,-0.34,0.615,-3.296,-0.488,-0.61,-28.784,-45.33,-138.049,-25.893,-4.307,-15.627,31.51,-0.23352,0.43024,-0.0769,0.86853,160
39,0.877,-0.177,0.483,-1.648,-0.61,-1.16,-21.011,-59.903,-176.204,-25.827,-9.093,-18.633,26.81,0.06335,0.4924,-0.13889,0.85681,155,0.45,-0.315,0.841,-3.601,-0.305,-1.038,-20.38,-26.625,-118.548,-15.78,-3.1,-10.32,28.07,0.46475,-0.28156,0.02249,-0.83911,157,0.522,-0.299,0.785,-3.052,-0.305,-1.648,-20.726,-32.547,162.285,-15.72,-4.727,-32.98,30.41,-0.19843,-0.24487,0.21176,-0.92505,153,0.701,-0.343,0.616,-3.296,-0.244,-0.671,-28.845,-45.335,-138.06,-25.893,-4.307,-15.627,31.51,-0.23352,0.43024,-0.0769,0.86853,161
40,0.882,-0.178,0.483,-1.648,-0.793,-0.977,-21.022,-59.919,-176.21,-25.827,-9.093,-18.633,26.81,0.06277,0.49582,-0.14166,0.85443,158,0.45,-0.315,0.839,-2.38,0.122,-0.732,-20.435,-26.636,-118.603,-15.78,-3.1,-10.32,28.07,0.46475,-0.28156,0.02249,-0.83911,164,0.525,-0.297,0.784,-2.197,-0.488,-1.404,-20.764,-32.552,162.378,-15.72,-4.727,-32.98,30.41,-0.19843,-0.24487,0.21176,-0.92505,162,0.703,-0.342,0.616,-2.991,0.122,-0.488,-28.9,-45.33,-138.071,-26.227,-4.247,-15.907,31.51,-0.23352,0.43024,-0.0769,0.86853,166
41,0.886,-0.178,0.48,-1.587,-0.977,-0.732,-21.039,-59.941,-176.21,-25.827,-9.093,-18.633,26.81,0.06277,0.49582,-0.14166,0.85443,159,0.45,-0.316,0.838,-1.282,0.305,-0.61,-20.473,-26.631,-118.658,-15.78,-3.1,-10.32,28.07,0.46475,-0.28156,0.02249,-0.83911,165,0.526,-0.296,0.783,-1.282,-0.427,-0.977,-20.786,-32.558,162.482,-15.72,-4.727,-32.98,30.41,-0.19843,-0.24487,0.21176,-0.92505,163,0.701,-0.339,0.613,-2.869,0.549,-0.366,-28.943,-45.313,-138.076,-26.227,-4.247,-15.907,31.51,-0.23352,0.43024,-0.0769,0.86853,167
42,0.888,-0.18,0.477,-1.465,-1.16,-0.427,-21.066,-59.963,-176.215,-25.827,-9.093,-18.633,26.81,0.06277,0.49582,-0.14166,0.85443,170,0.452,-0.322,0.838,-0.305,0.183,-0.671,-20.484,-26.625,-118.718,-15.78,-3.1,-10.32,28.07,0.46475,-0.28156,0.02249,-0.83911,174,0.528,-0.3,0.783,-0.427,-0.366,-0.671,-20.797,-32.558,162.592,-15.72,-4.727,-32.98,30.41,-0.19843,-0.24487,0.21176,-0.92505,168,0.7,-0.342,0.606,-2.38,0.671,-0.244,-28.982,-45.302,-138.082,-26.227,-4.247,-15.907,31.51,-0.23352,0.43024,-0.0769,0.86853,172
43,0.888,-0.182,0.474,-1.404,-1.099,-0.122,-21.099,-59.985,-176.21,-25.827,-9.093,-18.633,26.81,0.06277,0.49582,-0.14166,0.85443,171,0.45,-0.326,0.838,0.0,0.305,-0.549,-20.484,-26.625,-118.779,-15.78,-3.1,-10.32,28.07,0.46475,-0.28156,0.02249,-0.83911,175,0.529,-0.304,0.784,0.305,-0.061,-0.549,-20.792,-32.558,162.691,-15.72,-4.727,-32.98,30.41,-0.19843,-0.24487,0.21176,-0.92505,169,0.701,-0.35,0.608,-2.625,0.427,-0.427,-29.026,-45.291,-138.093,-26.227,-4.247,-15.907,31.51,-0.23352,0.43024,-0.0769,0.86853,173
44,0.891,-0.186,0.47,-1.465,-1.038,0.0,-21.138,-60.002,-176.199,-25.827,-9.093,-18.633,26.81,0.06277,0.49582,-0.14166,0.85443,176,0.449,-0.323,0.834,0.0,0.793,-0.488,-20.479,-26.62,-118.834,-15.92,-3.053,-10.347,28.07,0.46475,-0.28156,0.02249,-0.83911,180,0.525,-0.308,0.782,0.488,0.122,-0.305,-20.781,-32.552,162.784,-15.72,-4.727,-32.98,30.41,-0.19843,-0.24487,0.21176,-0.92505,178,0.701,-0.348,0.608,-2.441,0.427,-0.488,-29.07,-45.286,-138.098,-26.227,-4.247,-15.907,31.51,-0.22934,0.43082,-0.0827,0.86884,190
45,0.89,-0.186,0.469,-1.465,-0.732,0.122,-21.176,-60.018,-176.188,-25.827,-9.093,-18.633,26.81,0.06277,0.49582,-0.14166,0.85443,177,0.45,-0.317,0.836,0.244,0.671,-0.305,-20.473,-26.609,-118.894,-15.92,-3.053,-10.347,28.07,0.46475,-0.28156,0.02249,-0.83911,181,0.526,-0.304,0.779,0.488,0.366,0.061,-20.775,-32.542,162.872,-15.72,-4.727,-32.98,30.41,-0.19843,-0.24487,0.21176,-0.92505,179,0.7,-0.351,0.602,-2.075,0.793,-0.488,-29.097,-45.269,-138.131,-26.227,-4.247,-15.907,31.51,-0.22934,0.43082,-0.0827,0.86884,191
46,0.889,-0.189,0.468,-1.404,-0.61,0.183,-21.22,-60.029,-176.171,-25.827,-9.093,-18.633,26.81,0.06277,0.49582,-0.14166,0.85443,182,0.451,-0.321,0.84,0.549,0.0,0.0,-20.468,-26.598,-118.943,-15.92,-3.053,-10.347,28.07,0.46475,-0.28156,0.02249,-0.83911,188,0.529,-0.299,0.784,0.854,0.671,0.122,-20.764,-32.525,162.96,-15.12,-4.48,-33.78,30.41,-0.19843,-0.24487,0.21176,-0.92505,184,0.7,-0.355,0.607,-1.953,0.549,-0.305,-29.13,-45.258,-138.159,-26.227,-4.247,-15.907,31.51,-0.22934,0.43082,-0.0827,0.86884,194
47,0.891,-0.192,0.468,-1.16,-0.549,0.183,-21.259,-60.04,-176.149,-25.827,-9.093,-18.633,26.81,0.06277,0.49582,-0.14166,0.85443,183,0.449,-0.329,0.838,0.671,-0.366,0.366,-20.462,-26.598,-118.993,-15.92,-3.053,-10.347,28.07,0.46475,-0.28156,0.02249,-0.83911,189,0.528,-0.302,0.79,1.221,1.221,0.061,-20.742,-32.498,163.032,-15.12,-4.48,-33.78,30.41,-0.19843,-0.24487,0.21176,-0.92505,185,0.699,-0.359,0.605,-1.709,0.366,-0.122,-29.169,-45.253,-138.17,-26.227,-4.247,-15.907,31.51,-0.22934,0.43082,-0.0827,0.86884,195
48,0.892,-0.194,0.47,-0.854,-0.366,0.244,-21.292,-60.051,-176.144,-25.827,-9.093,-18.633,26.81,0.06277,0.49582,-0.14166,0.85443,186,0.446,-0.329,0.839,0.671,-0.61,0.427,-20.462,-26.603,-119.037,-15.92,-3.053,-10.347,28.07,0.45062,-0.28281,0.03409,-0.84601,196,0.525,-0.31,0.79,1.404,1.282,0.061,-20.715,-32.47,163.109,-15.12,-4.48,-33.78,30.41,-0.19843,-0.24487,0.21176,-0.92505,192,0.697,-0.358,0.604,-1.221,0.549,-0.183,-29.191,-45.236,-138.181,-26.227,-4.247,-15.907,31.51,-0.22934,0.43082,-0.0827,0.86884,200
49,0.888,-0.195,0.471,-0.61,-0.061,0.244,-21.319,-60.051,-176.127,-25.827,-9.093,-18.633,26.81,0.06277,0.49582,-0.14166,0.85443,187,0.445,-0.325,0.838,0.61,-0.427,0.366,-20.457,-26.609,-119.081,-15.92,-3.053,-10.347,28.07,0.45062,-0.28281,0.03409,-0.84601,197,0.522,-0.312,0.789,1.648,1.038,0.0,-20.687,-32.443,163.185,-15.12,-4.48,-33.78,30.41,-0.19843,-0.24487,0.21176,-0.92505,193,0.694,-0.356,0.609,-0.916,0.488,-0.183,-29.213,-45.225,-138.192,-26.227,-4.247,-15.907,31.51,-0.22934,0.43082,-0.0827,0.86884,201
50,0.883,-0.195,0.471,-0.366,0.183,0.183,-21.341,-60.051,-176.116,-25.827,-9.093,-18.633,26.81,0.06277,0.49582,-0.14166,0.85443,198,0.446,-0.327,0.841,0.61,-0.549,0.183,-20.457,-26.614,-119.108,-15.92,-3.053,-10.347,28.07,0.45062,-0.28281,0.03409,-0.84601,208,0.521,-0.308,0.787,2.075,0.793,-0.366,-20.649,-32.421,163.273,-15.12,-4.48,-33.78,30.41,-0.18802,-0.24664,0.21094,-0.92694,202,0.691,-0.356,0.608,-0.793,0.916,-0.183,-29.229,-45.209,-138.208,-26.227,-4.247,-15.907,31.51,-0.22934,0.43082,-0.0827,0.86884,204
51,0.881,-0.193,0.472,-0.183,0.183,0.061,-21.352,-60.046,-176.089,-25.827,-9.093,-18.633,26.81,0.06277,0.49582,-0.14166,0.85443,199,0.447,-0.333,0.84,0.427,-1.16,0.061,-20.457,-26.625,-119.136,-15.92,-3.053,-10.347,28.07,0.45062,-0.28281,0.03409,-0.84601,209,0.521,-0.311,0.791,2.441,0.427,-0.549,-20.605,-32.404,163.361,-15.12,-4.48,-33.78,30.41,-0.18802,-0.24664,0.21094,-0.92694,203,0.693,-0.357,0.61,-0.854,0.793,-0.305,-29.246,-45.192,-138.23,-26.227,-4.247,-15.907,31.51,-0.22934,0.43082,-0.0827,0.86884,205
52,0.883,-0.191,0.473,-0.305,0.183,-0.122,-21.363,-60.046,-176.067,-25.827,-9.093,-18.633,26.81,0.06277,0.49582,-0.14166,0.85443,206,0.448,-0.333,0.84,0.61,-1.709,0.183,-20.462,-26.647,-119.158,-15.92,-3.053,-10.347,28.07,0.45062,-0.28281,0.03409,-0.84601,212,0.521,-0.312,0.79,2.502,0.793,-0.549,-20.555,-32.388,163.444,-15.12,-4.48,-33.78,30.41,-0.18802,-0.24664,0.21094,-0.92694,210,0.695,-0.356,0.61,-0.549,0.854,-0.488,-29.251,-45.176,-138.235,-26.227,-4.247,-15.907,31.51,-0.22934,0.43082,-0.0827,0.86884,214
53,0.885,-0.19,0.475,-0.244,0.183,-0.244,-21.363,-60.046,-176.067,-25.827,-9.093,-18.633,26.81,0.06277,0.49582,-0.14166,0.85443,207,0.446,-0.325,0.842,0.977,-1.831,0.488,-20.468,-26.675,-119.169,-15.92,-3.053,-10.347,28.07,0.45062,-0.28281,0.03409,-0.84601,213,0.521,-0.309,0.793,2.502,0.977,-0.061,-20.506,-32.366,163.531,-15.12,-4.48,-33.78,30.41,-0.18802,-0.24664,0.21094,-0.92694,211,0.696,-0.356,0.613,-0.183,0.916,-0.732,-29.24,-45.159,-138.252,-26.227,-4.247,-15.907,31.51,-0.22934,0.43082,-0.0827,0.86884,215
54,0.886,-0.189,0.474,-0.244,0.122,-0.305,-21.363,-60.046,-176.083,-25.827,-9.093,-18.633,26.81,0.06277,0.49582,-0.14166,0.85443,218,0.447,-0.317,0.839,1.221,-1.282,0.61,-20.462,-26.697,-119.174,-15.92,-3.053,-10.347,28.07,0.45062,-0.28281,0.03409,-0.84601,216,0.518,-0.301,0.791,2.563,0.732,0.183,-20.462,-32.344,163.625,-15.12,-4.48,-33.78,30.41,-0.18802,-0.24664,0.21094,-0.92694,222,0.696,-0.352,0.615,0.0,1.099,-0.793,-29.229,-45.143,-138.268,-26.227,-4.247,-15.907,31.51,-0.22934,0.43082,-0.0827,0.86884,220
55,0.884,-0.189,0.474,-0.366,0.183,-0.305,-21.368,-60.046,-176.1,-25.827,-9.093,-18.633,26.81,0.06277,0.49582,-0.14166,0.85443,219,0.448,-0.322,0.837,1.099,-0.61,0.305,-20.457,-26.708,-119.191,-15.92,-3.053,-10.347,28.07,0.45062,-0.28281,0.03409,-0.84601,217,0.518,-0.299,0.79,2.136,0.427,0.0,-20.429,-32.327,163.718,-15.12,-4.48,-33.78,30.41,-0.18802,-0.24664,0.21094,-0.92694,223,0.696,-0.35,0.612,0.061,1.221,-0.732,-29.213,-45.126,-138.285,-26.227,-4.247,-15.907,31.51,-0.22934,0.43082,-0.0827,0.86884,221
56,0.883,-0.187,0.474,-0.305,0.122,-0.305,-21.368,-60.046,-176.122,-25.673,-9.747,-18.8,26.81,0.06277,0.49582,-0.14166,0.85443,224,0.447,-0.325,0.835,1.038,0.305,0.183,-20.446,-26.702,-119.213,-15.92,-3.053,-10.347,28.07,0.45062,-0.28281,0.03409,-0.84601,228,0.518,-0.302,0.783,1.648,0.061,-0.427,-20.396,-32.322,163.806,-15.12,-4.48,-33.78,30.41,-0.18802,-0.24664,0.21094,-0.92694,226,0.696,-0.348,0.609,0.122,1.465,-0.732,-29.196,-45.104,-138.318,-26.227,-4.247,-15.907,31.51,-0.22934,0.43082,-0.0827,0.86884,230
57,0.883,-0.188,0.473,-0.122,0.0,-0.244,-21.368,-60.046,-176.127,-25.673,-9.747,-18.8,26.81,0.06277,0.49582,-0.14166,0.85443,225,0.447,-0.316,0.836,1.404,0.793,0.183,-20.429,-26.691,-119.24,-15.92,-3.053,-10.347,28.07,0.45062,-0.28281,0.03409,-0.84601,229,0.519,-0.302,0.784,1.038,0.061,-0.244,-20.38,-32.311,163.894,-15.12,-4.48,-33.78,30.41,-0.18802,-0.24664,0.21094,-0.92694,227,0.694,-0.344,0.611,0.183,1.587,-0.366,-29.18,-45.077,-138.345,-26.227,-4.247,-15.907,31.51,-0.22934,0.43082,-0.0827,0.86884,231
58,0.886,-0.188,0.473,-0.122,0.061,-0.244,-21.368,-60.046,-176.122,-25.673,-9.747,-18.8,26.81,0.06277,0.49582,-0.14166,0.85443,236,0.448,-0.31,0.838,2.075,1.038,0.305,-20.402,-26.669,-119.284,-15.92,-3.053,-10.347,28.07,0.45062,-0.28281,0.03409,-0.84601,234,0.52,-0.294,0.788,0.854,-0.305,-0.305,-20.369,-32.311,163.987,-15.12,-4.48,-33.78,30.41,-0.18802,-0.24664,0.21094,-0.92694,232,0.696,-0.342,0.615,0.244,1.343,-0.183,-29.163,-45.049,-138.367,-25.947,-3.8,-15.873,31.51,-0.22934,0.43082,-0.0827,0.86884,238
59,0.888,-0.188,0.473,-0.183,0.061,-0.183,-21.368,-60.046,-176.122,-25.673,-9.747,-18.8,26.81,0.06277,0.49582,-0.14166,0.85443,237,0.448,-0.312,0.838,2.563,1.709,0.488,-20.358,-26.636,-119.323,-15.92,-3.053,-10.347,28.07,0.45062,-0.28281,0.03409,-0.84601,235,0.521,-0.287,0.786,1.282,-0.366,-0.366,-20.347,-32.316,164.081,-15.12,-4.48,-33.78,30.41,-0.18802,-0.24664,0.21094,-0.92694,233,0.696,-0.341,0.616,0.366,1.587,0.0,-29.147,-45.022,-138.373,-25.947,-3.8,-15.873,31.51,-0.22934,0.43082,-0.0827,0.86884,239
60,0.886,-0.188,0.473,-0.122,0.305,-0.061,-21.368,-60.046,-176.122,-25.673,-9.747,-18.8,26.81,0.06393,0.49683,-0.1438,0.85339,240,0.448,-0.314,0.84,2.563,1.77,0.0,-20.314,-26.603,-119.366,-15.92,-3.053,-10.347,28.07,0.45062,-0.28281,0.03409,-0.84601,244,0.522,-0.292,0.785,1.282,0.061,-0.183,-20.325,-32.311,164.169,-15.12,-4.48,-33.78,30.41,-0.18802,-0.24664,0.21094,-0.92694,242,0.693,-0.342,0.611,0.732,1.953,0.183,-29.125,-44.989,-138.367,-25.947,-3.8,-15.873,31.51,-0.22934,0.43082,-0.0827,0.86884,246
61,0.884,-0.186,0.474,0.061,0.305,0.183,-21.374,-60.035,-176.127,-25.673,-9.747,-18.8,26.81,0.06393,0.49683,-0.1438,0.85339,241,0.447,-0.312,0.845,1.831,1.16,-0.427,-20.264,-26.576,-119.432,-15.92,-3.053,-10.347,28.07,0.45062,-0.28281,0.03409,-0.84601,245,0.523,-0.298,0.792,1.038,0.183,-0.61,-20.303,-32.305,164.246,-15.12,-4.48,-33.78,30.41,-0.18802,-0.24664,0.21094,-0.92694,243,0.692,-0.346,0.615,0.0,1.587,0.366,-29.108,-44.951,-138.362,-25.947,-3.8,-15.873,31.51,-0.22934,0.43082,-0.0827,0.86884,247
62,0.884,-0.185,0.475,0.183,0.122,0.427,-21.379,-60.035,-176.127,-25.673,-9.747,-18.8,26.81,0.06393,0.49683,-0.1438,0.85339,252,0.446,-0.308,0.849,1.221,1.038,-0.244,-20.231,-26.554,-119.509,-15.92,-3.053,-10.347,28.07,0.45062,-0.28281,0.03409,-0.84601,250,0.524,-0.292,0.798,1.099,0.0,-1.465,-20.275,-32.305,164.301,-15.393,-4.587,-33.547,30.41,-0.18802,-0.24664,0.21094,-0.92694,248,0.693,-0.347,0.618,-0.427,1.343,0.488,-29.108,-44.918,-138.351,-25.947,-3.8,-15.873,31.51,-0.22797,0.42844,-0.08551,0.87009,260
63,0.884,-0.185,0.473,0.122,0.122,0.61,-21.396,-60.024,-176.111,-25.673,-9.747,-18.8,26.81,0.06393,0.49683,-0.1438,0.85339,253,0.445,-0.308,0.85,0.488,1.038,0.0,-20.215,-26.537,-119.575,-15.92,-3.053,-10.347,28.07,0.45062,-0.28281,0.03409,-0.84601,251,0.523,-0.284,0.801,0.916,0.0,-1.282,-20.242,-32.305,164.361,-15.393,-4.587,-33.547,30.41,-0.18802,-0.24664,0.21094,-0.92694,249,0.692,-0.348,0.622,-0.793,0.854,0.488,-29.119,-44.885,-138.334,-25.947,-3.8,-15.873,31.51,-0.22797,0.42844,-0.08551,0.87009,261
64,0.884,-0.188,0.473,-0.122,0.183,0.549,-21.418,-60.018,-176.089,-25.673,-9.747,-18.8,26.81,0.06393,0.49683,-0.1438,0.85339,258,0.448,-0.313,0.849,0.122,0.671,0.061,-20.209,-26.521,-119.636,-15.193,-3.233,-10.46,28.07,0.45062,-0.28281,0.03409,-0.84601,256,0.522,-0.286,0.802,0.488,0.061,-1.038,-20.22,-32.305,164.427,-15.393,-4.587,-33.547,30.41,-0.17633,-0.24857,0.20407,-0.93027,254,0.69,-0.35,0.622,-0.854,0.61,0.488,-29.136,-44.863,-138.312,-25.947,-3.8,-15.873,31.51,-0.22797,0.42844,-0.08551,0.87009,264
65,0.884,-0.188,0.474,-0.244,0.183,0.427,-21.434,-60.013,-176.067,-25.673,-9.747,-18.8,26.81,0.06393,0.49683,-0.1438,0.85339,259,0.448,-0.322,0.85,-0.122,0.488,0.122,-20.209,-26.505,-119.685,-15.193,-3.233,-10.46,28.07,0.45062,-0.28281,0.03409,-0.84601,257,0.525,-0.292,0.8,-0.061,0.305,-0.977,-20.204,-32.3,164.493,-15.393,-4.587,-33.547,30.41,-0.17633,-0.24857,0.20407,-0.93027,255,0.691,-0.354,0.617,-0.732,0.732,0.305,-29.158,-44.841,-138.296,-25.947,-3.8,-15.873,31.51,-0.22797,0.42844,-0.08551,0.87009,265
66,0.882,-0.189,0.472,-0.244,-0.061,0.244,-21.451,-60.013,-176.056,-25.673,-9.747,-18.8,26.81,0.06393,0.49683,-0.1438,0.85339,262,0.448,-0.333,0.852,0.305,0.244,0.305,-20.215,-26.494,-119.713,-15.193,-3.233,-10.46,28.07,0.45062,-0.28281,0.03409,-0.84601,268,0.524,-0.298,0.802,-0.244,0.488,-0.793,-20.198,-32.289,164.57,-15.393,-4.587,-33.547,30.41,-0.17633,-0.24857,0.20407,-0.93027,266,0.696,-0.357,0.616,-0.122,0.671,0.0,-29.169,-44.824,-138.296,-25.947,-3.8,-15.873,31.51,-0.22797,0.42844,-0.08551,0.87009,270
67,0.882,-0.189,0.473,-0.061,-0.366,0.183,-21.467,-60.018,-176.039,-25.673,-9.747,-18.8,26.81,0.06393,0.49683,-0.1438,0.85339,263,0.448,-0.331,0.846,0.549,-0.183,0.61,-20.215,-26.488,-119.724,-15.193,-3.233,-10.46,28.07,0.45062,-0.28281,0.03409,-0.84601,269,0.522,-0.306,0.802,0.0,0.61,-0.061,-20.198,-32.272,164.669,-15.393,-4.587,-33.547,30.41,-0.17633,-0.24857,0.20407,-0.93027,267,0.695,-0.358,0.616,0.305,0.549,-0.305,-29.169,-44.808,-138.312,-25.947,-3.8,-15.873,31.51,-0.22797,0.42844,-0.08551,0.87009,271
68,0.886,-0.19,0.474,-0.122,-0.305,0.244,-21.484,-60.024,-176.023,-25.673,-9.747,-18.8,26.81,0.06393,0.49683,-0.1438,0.85339,272,0.448,-0.321,0.838,1.038,-0.305,0.977,-20.215,-26.488,-119.734,-15.193,-3.233,-10.46,28.07,0.44638,-0.28085,0.03445,-0.84888,280,0.521,-0.305,0.796,0.122,0.916,0.793,-20.198,-32.245,164.778,-15.393,-4.587,-33.547,30.41,-0.17633,-0.24857,0.20407,-0.93027,278,0.693,-0.356,0.612,1.038,0.793,-0.244,-29.152,-44.791,-138.323,-25.947,-3.8,-15.873,31.51,-0.22797,0.42844,-0.08551,0.87009,276
69,0.889,-0.191,0.474,-0.122,-0.305,0.244,-21.5,-60.029,-176.012,-25.673,-9.747,-18.8,26.81,0.06393,0.49683,-0.1438,0.85339,273,0.458,-0.325,0.842,0.61,-0.549,1.221,-20.215,-26.488,-119.734,-15.193,-3.233,-10.46,28.07,0.44638,-0.28085,0.03445,-0.84888,281,0.522,-0.298,0.789,0.549,0.183,0.854,-20.204,-32.228,164.894,-15.393,-4.587,-33.547,30.41,-0.17633,-0.24857,0.20407,-0.93027,279,0.699,-0.354,0.615,1.709,0.854,-0.305,-29.125,-44.775,-138.345,-25.947,-3.8,-15.873,31.51,-0.22797,0.42844,-0.08551,0.87009,277
70,0.886,-0.194,0.472,-0.061,-0.183,0.244,-21.517,-60.029,-176.006,-25.673,-9.747,-18.8,26.81,0.06393,0.49683,-0.1438,0.85339,274,0.445,-0.339,0.843,-0.854,-2.991,1.892,-20.248,-26.505,-119.724,-15.193,-3.233,-10.46,28.07,0.44638,-0.28085,0.03445,-0.84888,284,0.524,-0.301,0.791,0.244,0.305,1.038,-20.215,-32.206,165.004,-15.393,-4.587,-33.547,30.41,-0.17633,-0.24857,0.20407,-0.93027,282,0.701,-0.359,0.616,1.953,1.16,-0.61,-29.081,-44.758,-138.395,-25.947,-3.8,-15.873,31.51,-0.22797,0.42844,-0.08551,0.87009,288
71,0.881,-0.194,0.471,0.122,0.0,0.244,-21.528,-60.029,-176.001,-25.673,-9.747,-18.8,26.81,0.06393,0.49683,-0.1438,0.85339,275,0.445,-0.31,0.832,1.587,-0.244,2.563,-20.275,-26.521,-119.685,-15.193,-3.233,-10.46,28.07,0.44638,-0.28085,0.03445,-0.84888,285,0.518,-0.31,0.784,-0.671,1.099,2.441,-20.248,-32.168,165.135,-15.393,-4.587,-33.547,30.41,-0.17633,-0.24857,0.20407,-0.93027,283,0.694,-0.355,0.611,2.808,1.77,-0.305,-29.026,-44.736,-138.466,-25.947,-3.8,-15.873,31.51,-0.22797,0.42844,-0.08551,0.87009,289
72,0.886,-0.193,0.474,0.61,0.183,0.305,-21.528,-60.024,-176.012,-25.673,-9.747,-18.8,26.81,0.06393,0.49683,-0.1438,0.85339,286,0.473,-0.306,0.835,3.296,3.052,2.441,-20.253,-26.477,-119.658,-15.193,-3.233,-10.46,28.07,0.44638,-0.28085,0.03445,-0.84888,290,0.523,-0.287,0.77,1.404,1.038,2.625,-20.264,-32.124,165.262,-15.393,-4.587,-33.547,30.41,-0.17633,-0.24857,0.20407,-0.93027,292,0.703,-0.351,0.613,4.089,2.014,0.0,-28.954,-44.703,-138.516,-25.947,-3.8,-15.873,31.51,-0.22797,0.42844,-0.08551,0.87009,300
73,0.891,-0.191,0.472,1.221,0.0,0.61,-21.528,-60.018,-175.984,-25.673,-9.747,-18.8,26.81,0.06393,0.49683,-0.1438,0.85339,287,0.443,-0.346,0.846,1.343,0.732,2.197,-20.226,-26.428,-119.647,-15.193,-3.233,-10.46,28.07,0.44638,-0.28085,0.03445,-0.84888,291,0.536,-0.293,0.785,1.831,2.441,1.587,-20.248,-32.069,165.35,-15.393,-4.587,-33.547,30.41,-0.17633,-0.24857,0.20407,-0.93027,293,0.697,-0.356,0.619,4.089,2.075,0.0,-28.867,-44.665,-138.565,-25.947,-3.8,-15.873,31.51,-0.22797,0.42844,-0.08551,0.87009,301
74,0.888,-0.192,0.469,1.709,-0.122,0.916,-21.533,-60.013,-175.941,-25.673,-9.747,-18.8,26.81,0.06393,0.49683,-0.1438,0.85339,294,0.435,-0.308,0.834,4.456,1.953,2.808,-20.198,-26.384,-119.63,-15.193,-3.233,-10.46,28.07,0.44638,-0.28085,0.03445,-0.84888,298,0.515,-0.319,0.792,0.061,3.113,2.441,-20.253,-31.998,165.438,-15.393,-4.587,-33.547,30.41,-0.17633,-0.24857,0.20407,-0.93027,296,0.688,-0.353,0.616,3.967,1.953,0.488,-28.784,-44.621,-138.593,-25.527,-4.773,-15.46,31.51,-0.22797,0.42844,-0.08551,0.87009,302
75,0.889,-0.194,0.472,2.319,0.244,1.038,-21.522,-60.002,-175.908,-25.673,-9.747,-18.8,26.81,0.06393,0.49683,-0.1438,0.85339,295,0.444,-0.297,0.847,6.287,5.066,1.953,-20.11,-26.307,-119.658,-15.193,-3.233,-10.46,28.07,0.44638,-0.28085,0.03445,-0.84888,299,0.516,-0.289,0.779,3.54,3.235,2.014,-20.22,-31.921,165.52,-15.393,-4.587,-33.547,30.41,-0.17633,-0.24857,0.20407,-0.93027,297,0.686,-0.347,0.614,4.578,1.648,1.221,-28.707,-44.583,-138.593,-25.527,-4.773,-15.46,31.51,-0.22797,0.42844,-0.08551,0.87009,303
76,0.895,-0.195,0.472,2.747,0.305,1.221,-21.511,-59.991,-175.88,-26.1,-9.393,-18.813,26.81,0.06393,0.49683,-0.1438,0.85339,308,0.436,-0.316,0.842,4.456,3.052,1.282,-20.012,-26.219,-119.707,-15.193,-3.233,-10.46,28.07,0.44638,-0.28085,0.03445,-0.84888,306,0.521,-0.284,0.801,5.554,4.456,0.549,-20.121,-31.838,165.564,-15.393,-4.587,-33.547,30.41,-0.17633,-0.24857,0.20407,-0.93027,304,0.681,-0.337,0.616,5.005,1.77,1.282,-28.63,-44.539,-138.565,-25.527,-4.773,-15.46,31.51,-0.22797,0.42844,-0.08551,0.87009,312
77,0.896,-0.193,0.469,3.113,0.0,1.465,-21.5,-59.98,-175.842,-26.1,-9.393,-18.813,26.81,0.06393,0.49683,-0.1438,0.85339,309,0.431,-0.323,0.852,2.991,2.136,-0.244,-19.94,-26.169,-119.767,-15.193,-3.233,-10.46,28.07,0.44638,-0.28085,0.03445,-0.84888,307,0.513,-0.305,0.805,3.906,3.784,0.0,-20.023,-31.761,165.586,-15.393,-4.587,-33.547,30.41,-0.17633,-0.24857,0.20407,-0.93027,305,0.676,-0.329,0.624,5.249,1.099,1.16,-28.548,-44.5,-138.532,-25.527,-4.773,-15.46,31.51,-0.22797,0.42844,-0.08551,0.87009,313
78,0.888,-0.19,0.472,3.662,0.366,1.526,-21.484,-59.963,-175.809,-26.1,-9.393,-18.813,26.81,0.06195,0.49655,-0.14337,0.85379,310,0.426,-0.327,0.853,2.747,0.916,-2.502,-19.874,-26.153,-119.855,-15.193,-3.233,-10.46,28.07,0.44638,-0.28085,0.03445,-0.84888,316,0.506,-0.316,0.815,3.54,2.747,-0.916,-19.94,-31.707,165.608,-15.14,-4.56,-33.48,30.41,-0.17633,-0.24857,0.20407,-0.93027,314,0.676,-0.327,0.629,4.333,0.244,0.793,-28.471,-44.478,-138.499,-25.527,-4.773,-15.46,31.51,-0.2305,0.4238,-0.08319,0.87192,318
79,0.878,-0.185,0.472,4.089,0.854,1.77,-21.456,-59.941,-175.77,-26.1,-9.393,-18.813,26.81,0.06195,0.49655,-0.14337,0.85379,311,0.425,-0.322,0.857,2.686,0.61,-4.089,-19.797,-26.158,-119.976,-15.193,-3.233,-10.46,28.07,0.44638,-0.28085,0.03445,-0.84888,317,0.499,-0.317,0.811,2.686,2.686,-2.441,-19.858,-31.668,165.608,-15.14,-4.56,-33.48,30.41,-0.17633,-0.24857,0.20407,-0.93027,315,0.686,-0.336,0.634,3.052,-0.793,-0.549,-28.411,-44.478,-138.472,-25.527,-4.773,-15.46,31.51,-0.2305,0.4238,-0.08319,0.87192,319
80,0.871,-0.178,0.473,3.296,1.221,2.014,-21.445,-59.903,-175.726,-26.1,-9.393,-18.813,26.81,0.06195,0.49655,-0.14337,0.85379,320,0.437,-0.321,0.849,2.808,0.732,-4.517,-19.709,-26.169,-120.114,-15.193,-3.233,-10.46,28.07,0.44638,-0.28085,0.03445,-0.84888,324,0.497,-0.303,0.812,2.625,3.54,-3.052,-19.77,-31.619,165.591,-15.14,-4.56,-33.48,30.41,-0.16525,-0.24564,0.19769,-0.93442,322,0.685,-0.346,0.628,2.869,-0.549,-1.526,-28.345,-44.495,-138.461,-25.527,-4.773,-15.46,31.51,-0.2305,0.4238,-0.08319,0.87192,328
81,0.867,-0.177,0.475,1.831,1.16,1.709,-21.451,-59.875,-175.688,-26.1,-9.393,-18.813,26.81,0.06195,0.49655,-0.14337,0.85379,321,0.438,-0.329,0.847,2.258,0.366,-4.761,-19.627,-26.186,-120.256,-15.193,-3.233,-10.46,28.07,0.44638,-0.28085,0.03445,-0.84888,325,0.497,-0.301,0.815,4.028,1.038,-2.136,-19.677,-31.597,165.624,-15.14,-4.56,-33.48,30.41,-0.16525,-0.24564,0.19769,-0.93442,323,0.686,-0.354,0.632,2.563,0.0,-2.075,-28.268,-44.511,-138.488,-25.527,-4.773,-15.46,31.51,-0.2305,0.4238,-0.08319,0.87192,329
82,0.868,-0.182,0.484,0.671,0.793,0.977,-21.456,-59.854,-175.682,-26.1,-9.393,-18.813,26.81,0.06195,0.49655,-0.14337,0.85379,326,0.448,-0.309,0.84,3.906,3.784,-3.601,-19.534,-26.169,-120.41,-15.3,-3.027,-10.66,28.07,0.44638,-0.28085,0.03445,-0.84888,330,0.507,-0.305,0.797,1.038,-2.625,-2.747,-19.627,-31.635,165.657,-15.14,-4.56,-33.48,30.41,-0.16525,-0.24564,0.19769,-0.93442,332,0.687,-0.349,0.631,2.625,0.671,-2.563,-28.18,-44.517,-138.543,-25.527,-4.773,-15.46,31.51,-0.2305,0.4238,-0.08319,0.87192,338
83,0.875,-0.188,0.488,0.0,0.305,0.488,-21.467,-59.843,-175.682,-26.1,-9.393,-18.813,26.81,0.06195,0.49655,-0.14337,0.85379,327,0.44,-0.292,0.84,4.944,4.7,-1.648,-19.424,-26.104,-120.553,-15.3,-3.027,-10.66,28.07,0.44638,-0.28085,0.03445,-0.84888,331,0.516,-0.271,0.773,2.93,-3.906,-2.258,-19.583,-31.707,165.701,-15.14,-4.56,-33.48,30.41,-0.16525,-0.24564,0.19769,-0.93442,333,0.685,-0.339,0.629,3.052,1.709,-2.38,-28.076,-44.511,-138.62,-25.527,-4.773,-15.46,31.51,-0.2305,0.4238,-0.08319,0.87192,339
84,0.878,-0.195,0.487,0.0,-0.244,0.183,-21.473,-59.848,-175.682,-26.1,-9.393,-18.813,26.81,0.06195,0.49655,-0.14337,0.85379,334,0.433,-0.287,0.845,4.272,5.249,-0.854,-19.314,-26.016,-120.646,-15.3,-3.027,-10.66,28.07,0.44638,-0.28085,0.03445,-0.84888,340,0.515,-0.264,0.777,3.418,-0.671,0.0,-19.523,-31.729,165.751,-15.14,-4.56,-33.48,30.41,-0.16525,-0.24564,0.19769,-0.93442,336,0.683,-0.328,0.626,2.808,2.258,-1.953,-27.971,-44.489,-138.697,-25.527,-4.773,-15.46,31.51,-0.2305,0.4238,-0.08319,0.87192,342
85,0.88,-0.199,0.484,0.549,-0.427,0.0,-21.467,-59.854,-175.671,-26.1,-9.393,-18.813,26.81,0.06195,0.49655,-0.14337,0.85379,335,0.427,-0.289,0.851,3.479,3.967,-1.099,-19.226,-25.944,-120.729,-15.3,-3.027,-10.66,28.07,0.44638,-0.28085,0.03445,-0.84888,341,0.511,-0.27,0.795,3.906,1.282,0.244,-19.457,-31.707,165.795,-15.14,-4.56,-33.48,30.41,-0.16525,-0.24564,0.19769,-0.93442,337,0.677,-0.322,0.629,1.343,1.77,-1.648,-27.889,-44.462,-138.752,-25.527,-4.773,-15.46,31.51,-0.2305,0.4238,-0.08319,0.87192,343
86,0.881,-0.195,0.482,1.099,-0.366,0.122,-21.456,-59.854,-175.649,-26.1,-9.393,-18.813,26.81,0.06195,0.49655,-0.14337,0.85379,344,0.42,-0.286,0.863,2.808,2.563,-1.648,-19.149,-25.895,-120.789,-15.3,-3.027,-10.66,28.07,0.44257,-0.27325,0.03207,-0.85342,350,0.507,-0.276,0.809,3.54,1.526,-0.244,-19.38,-31.674,165.833,-15.14,-4.56,-33.48,30.41,-0.16525,-0.24564,0.19769,-0.93442,346,0.681,-0.325,0.64,-0.427,0.977,-1.465,-27.845,-44.445,-138.79,-25.527,-4.773,-15.46,31.51,-0.2305,0.4238,-0.08319,0.87192,348
87,0.879,-0.189,0.477,0.916,-0.122,0.183,-21.451,-59.848,-175.611,-26.1,-9.393,-18.813,26.81,0.06195,0.49655,-0.14337,0.85379,345,0.43,-0.287,0.869,1.953,1.709,-1.709,-19.089,-25.873,-120.861,-15.3,-3.027,-10.66,28.07,0.44257,-0.27325,0.03207,-0.85342,351,0.506,-0.271,0.823,3.662,0.427,-0.732,-19.303,-31.657,165.899,-15.14,-4.56,-33.48,30.41,-0.16525,-0.24564,0.19769,-0.93442,347,0.683,-0.329,0.637,-1.648,0.183,-1.709,-27.834,-44.44,-138.818,-25.527,-4.773,-15.46,31.51,-0.2305,0.4238,-0.08319,0.87192,349
88,0.881,-0.188,0.471,0.0,-0.183,0.0,-21.451,-59.854,-175.605,-26.1,-9.393,-18.813,26.81,0.06195,0.49655,-0.14337,0.85379,352,0.438,-0.284,0.869,0.0,0.305,-1.648,-19.067,-25.867,-120.927,-15.3,-3.027,-10.66,28.07,0.44257,-0.27325,0.03207,-0.85342,356,0.519,-0.268,0.833,2.136,-0.854,-1.343,-19.243,-31.663,165.948,-15.14,-4.56,-33.48,30.41,-0.16525,-0.24564,0.19769,-0.93442,354,0.685,-0.33,0.634,-2.197,-0.366,-1.709,-27.845,-44.451,-138.834,-25.527,-4.773,-15.46,31.51,-0.2305,0.4238,-0.08319,0.87192,358
89,0.885,-0.188,0.472,-0.977,-0.61,-0.488,-21.467,-59.865,-175.611,-26.1,-9.393,-18.813,26.81,0.06195,0.49655,-0.14337,0.85379,353,0.435,-0.289,0.875,-1.526,-2.38,-1.709,-19.078,-25.906,-120.981,-15.3,-3.027,-10.66,28.07,0.44257,-0.27325,0.03207,-0.85342,357,0.519,-0.263,0.833,0.0,-1.221,-0.977,-19.221,-31.685,166.014,-15.14,-4.56,-33.48,30.41,-0.16525,-0.24564,0.19769,-0.93442,355,0.693,-0.326,0.633,-2.075,-1.038,-1.282,-27.867,-44.467,-138.834,-25.527,-4.773,-15.46,31.51,-0.2305,0.4238,-0.08319,0.87192,359
90,0.885,-0.19,0.47,-1.465,-0.977,-0.916,-21.484,-59.886,-175.633,-26.1,-9.393,-18.813,26.81,0.06195,0.49655,-0.14337,0.85379,364,0.441,-0.301,0.864,-1.892,-3.296,-2.136,-19.105,-25.972,-121.031,-15.3,-3.027,-10.66,28.07,0.44257,-0.27325,0.03207,-0.85342,362,0.511,-0.276,0.831,-2.319,-0.61,-0.977,-19.243,-31.69,166.08,-15.14,-4.56,-33.48,30.41,-0.16525,-0.24564,0.19769,-0.93442,360,0.699,-0.332,0.622,-2.319,-1.465,-1.16,-27.9,-44.495,-138.818,-25.527,-4.773,-15.46,31.51,-0.2305,0.4238,-0.08319,0.87192,370
91,0.884,-0.189,0.47,-1.526,-0.916,-1.038,-21.495,-59.914,-175.655,-26.1,-9.393,-18.813,26.81,0.06195,0.49655,-0.14337,0.85379,365,0.449,-0.297,0.848,0.305,-2.625,-1.587,-19.1,-26.027,-121.086,-15.3,-3.027,-10.66,28.07,0.44257,-0.27325,0.03207,-0.85342,363,0.516,-0.28,0.811,-2.747,-0.793,-0.977,-19.281,-31.701,166.152,-15.14,-4.56,-33.48,30.41,-0.16525,-0.24564,0.19769,-0.93442,361,0.703,-0.342,0.62,-2.258,-1.892,-1.099,-27.938,-44.528,-138.812,-25.527,-4.773,-15.46,31.51,-0.2305,0.4238,-0.08319,0.87192,371
92,0.885,-0.187,0.475,-1.709,-0.793,-0.977,-21.511,-59.936,-175.666,-26.24,-9.46,-18.347,26.81,0.06195,0.49655,-0.14337,0.85379,368,0.452,-0.294,0.845,0.61,-1.526,-0.183,-19.089,-26.06,-121.135,-15.3,-3.027,-10.66,28.07,0.44257,-0.27325,0.03207,-0.85342,366,0.519,-0.268,0.794,-1.892,-1.465,0.061,-19.319,-31.718,166.218,-15.553,-5.147,-33.56,30.41,-0.16525,-0.24564,0.19769,-0.93442,372,0.704,-0.348,0.62,-1.648,-1.526,-0.854,-27.977,-44.561,-138.801,-25.9,-4.647,-16.1,31.51,-0.2305,0.4238,-0.08319,0.87192,374
93,0.891,-0.188,0.474,-2.197,-0.732,-1.038,-21.533,-59.952,-175.688,-26.24,-9.46,-18.347,26.81,0.06195,0.49655,-0.14337,0.85379,369,0.448,-0.296,0.841,0.122,1.099,0.916,-19.089,-26.049,-121.185,-15.3,-3.027,-10.66,28.07,0.44257,-0.27325,0.03207,-0.85342,367,0.52,-0.272,0.779,-3.052,-2.502,1.221,-19.391,-31.745,166.295,-15.553,-5.147,-33.56,30.41,-0.16525,-0.24564,0.19769,-0.93442,373,0.7,-0.344,0.618,-0.427,-0.244,-0.61,-27.993,-44.572,-138.812,-25.9,-4.647,-16.1,31.51,-0.2305,0.4238,-0.08319,0.87192,375
94,0.892,-0.192,0.476,-2.258,-0.61,-0.977,-21.555,-59.974,-175.715,-26.24,-9.46,-18.347,26.81,0.06195,0.49655,-0.14337,0.85379,380,0.442,-0.304,0.84,0.854,2.93,1.404,-19.083,-25.994,-121.229,-15.3,-3.027,-10.66,28.07,0.44257,-0.27325,0.03207,-0.85342,378,0.519,-0.278,0.771,-3.357,-1.709,2.075,-19.479,-31.761,166.393,-15.553,-5.147,-33.56,30.41,-0.15805,-0.24854,0.19363,-0.93576,376,0.694,-0.342,0.617,1.038,0.732,-0.305,-27.971,-44.566,-138.829,-25.9,-4.647,-16.1,31.51,-0.2305,0.4238,-0.08319,0.87192,384
95,0.89,-0.195,0.477,-1.648,-0.305,-0.854,-21.566,-59.985,-175.743,-26.24,-9.46,-18.347,26.81,0.06195,0.49655,-0.14337,0.85379,381,0.44,-0.305,0.847,1.831,3.54,1.648,-19.056,-25.922,-121.267,-15.3,-3.027,-10.66,28.07,0.44257,-0.27325,0.03207,-0.85342,379,0.517,-0.291,0.782,-2.808,-1.16,2.502,-19.567,-31.761,166.52,-15.553,-5.147,-33.56,30.41,-0.15805,-0.24854,0.19363,-0.93576,377,0.693,-0.345,0.62,1.404,1.221,-0.244,-27.938,-44.544,-138.856,-25.9,-4.647,-16.1,31.51,-0.2305,0.4238,-0.08319,0.87192,385
96,0.887,-0.195,0.474,-0.793,0.0,-0.549,-21.572,-59.991,-175.748,-26.24,-9.46,-18.347,26.81,0.06195,0.49673,-0.14374,0.85361,382,0.434,-0.305,0.851,3.113,3.479,2.075,-19.012,-25.845,-121.306,-15.3,-3.027,-10.66,28.07,0.44257,-0.27325,0.03207,-0.85342,390,0.519,-0.29,0.792,-0.854,-1.099,2.869,-19.627,-31.761,166.663,-15.553,-5.147,-33.56,30.41,-0.15805,-0.24854,0.19363,-0.93576,386,0.688,-0.341,0.625,1.709,1.404,-0.427,-27.894,-44.522,-138.895,-25.9,-4.647,-16.1,31.51,-0.2298,0.4227,-0.07986,0.87296,388
97,0.888,-0.192,0.471,0.0,0.122,-0.061,-21.572,-59.985,-175.748,-26.24,-9.46,-18.347,26.81,0.06195,0.49673,-0.14374,0.85361,383,0.425,-0.303,0.857,3.723,3.113,1.831,-18.957,-25.774,-121.333,-15.3,-3.027,-10.66,28.07,0.44257,-0.27325,0.03207,-0.85342,391,0.517,-0.293,0.8,0.732,-1.343,3.174,-19.66,-31.761,166.8,-15.553,-5.147,-33.56,30.41,-0.15805,-0.24854,0.19363,-0.93576,387,0.685,-0.334,0.627,2.014,1.16,-0.427,-27.845,-44.5,-138.911,-25.9,-4.647,-16.1,31.51,-0.2298,0.4227,-0.07986,0.87296,389
98,0.884,-0.194,0.468,0.0,0.244,0.0,-21.572,-59.985,-175.732,-26.24,-9.46,-18.347,26.81,0.06195,0.49673,-0.14374,0.85361,392,0.426,-0.301,0.86,3.174,2.502,0.977,-18.896,-25.719,-121.382,-15.227,-3.513,-11.24,28.07,0.44257,-0.27325,0.03207,-0.85342,396,0.512,-0.297,0.805,1.526,-1.404,2.808,-19.671,-31.767,166.937,-15.553,-5.147,-33.56,30.41,-0.15805,-0.24854,0.19363,-0.93576,394,0.685,-0.332,0.628,1.709,0.854,-0.488,-27.801,-44.489,-138.911,-25.9,-4.647,-16.1,31.51,-0.2298,0.4227,-0.07986,0.87296,400
99,0.882,-0.192,0.47,0.122,0.183,-0.061,-21.577,-59.98,-175.71,-26.24,-9.46,-18.347,26.81,0.06195,0.49673,-0.14374,0.85361,393,0.429,-0.301,0.861,2.319,1.404,-0.061,-18.853,-25.686,-121.448,-15.227,-3.513,-11.24,28.07,0.44257,-0.27325,0.03207,-0.85342,397,0.514,-0.3,0.808,1.526,-0.854,1.648,-19.671,-31.767,167.053,-15.553,-5.147,-33.56,30.41,-0.15805,-0.24854,0.19363,-0.93576,395,0.686,-0.334,0.63,1.038,0.122,-0.732,-27.768,-44.484,-138.917,-25.9,-4.647,-16.1,31.51,-0.2298,0.4227,-0.07986,0.87296,401
100,0.881,-0.188,0.471,0.427,0.0,-0.061,-21.577,-59.98,-175.682,-26.24,-9.46,-18.347,26.81,0.06195,0.49673,-0.14374,0.85361,398,0.433,-0.3,0.861,1.77,0.61,-0.549,-18.814,-25.67,-121.498,-15.227,-3.513,-11.24,28.07,0.44257,-0.27325,0.03207,-0.85342,404,0.515,-0.297,0.811,1.221,-0.488,0.366,-19.655,-31.767,167.135,-15.553,-5.147,-33.56,30.41,-0.15805,-0.24854,0.19363,-0.93576,402,0.688,-0.335,0.631,0.732,-0.305,-1.038,-27.74,-44.495,-138.917,-25.9,-4.647,-16.1,31.51,-0.2298,0.4227,-0.07986,0.87296,408
101,0.881,-0.187,0.474,0.305,-0.122,-0.061,-21.572,-59.98,-175.671,-26.24,-9.46,-18.347,26.81,0.06195,0.49673,-0.14374,0.85361,399,0.432,-0.301,0.859,1.587,0.61,-0.61,-18.781,-25.664,-121.547,-15.227,-3.513,-11.24,28.07,0.44257,-0.27325,0.03207,-0.85342,405,0.516,-0.291,0.808,1.038,-0.732,-0.061,-19.644,-31.767,167.201,-15.553,-5.147,-33.56,30.41,-0.15805,-0.24854,0.19363,-0.93576,403,0.691,-0.325,0.629,1.038,0.0,-1.099,-27.713,-44.5,-138.911,-25.9,-4.647,-16.1,31.51,-0.2298,0.4227,-0.07986,0.87296,409
102,0.878,-0.186,0.479,0.183,0.0,-0.244,-21.572,-59.985,-175.682,-26.24,-9.46,-18.347,26.81,0.06195,0.49673,-0.14374,0.85361,406,0.433,-0.286,0.854,1.221,0.244,-0.793,-18.748,-25.659,-121.608,-15.227,-3.513,-11.24,28.07,0.43793,-0.26883,0.03183,-0.85721,410,0.515,-0.291,0.802,0.671,-0.549,-0.061,-19.633,-31.772,167.261,-15.553,-5.147,-33.56,30.41,-0.15805,-0.24854,0.19363,-0.93576,414,0.693,-0.323,0.625,1.099,0.183,-1.221,-27.669,-44.506,-138.922,-25.9,-4.647,-16.1,31.51,-0.2298,0.4227,-0.07986,0.87296,412
103,0.881,-0.183,0.48,0.0,0.0,-0.183,-21.561,-59.985,-175.704,-26.24,-9.46,-18.347,26.81,0.06195,0.49673,-0.14374,0.85361,407,0.438,-0.278,0.861,0.671,0.305,-1.038,-18.732,-25.659,-121.668,-15.227,-3.513,-11.24,28.07,0.43793,-0.26883,0.03183,-0.85721,411,0.519,-0.277,0.796,0.61,-0.549,-0.61,-19.616,-31.778,167.305,-15.553,-5.147,-33.56,30.41,-0.15805,-0.24854,0.19363,-0.93576,415,0.693,-0.328,0.63,0.366,0.183,-1.038,-27.642,-44.506,-138.944,-25.9,-4.647,-16.1,31.51,-0.2298,0.4227,-0.07986,0.87296,413
104,0.888,-0.183,0.48,-0.183,-0.244,-0.061,-21.561,-59.991,-175.743,-26.24,-9.46,-18.347,26.81,0.06195,0.49673,-0.14374,0.85361,416,0.436,-0.287,0.86,0.122,-0.244,-0.793,-18.721,-25.664,-121.718,-15.227,-3.513,-11.24,28.07,0.43793,-0.26883,0.03183,-0.85721,420,0.523,-0.271,0.803,0.183,0.244,-1.343,-19.6,-31.778,167.333,-15.553,-5.147,-33.56,30.41,-0.15805,-0.24854,0.19363,-0.93576,418,0.692,-0.331,0.629,0.122,0.061,-1.038,-27.625,-44.511,-138.961,-25.9,-4.647,-16.1,31.51,-0.2298,0.4227,-0.07986,0.87296,422
105,0.888,-0.186,0.478,-0.366,-0.122,0.0,-21.566,-59.991,-175.759,-26.24,-9.46,-18.347,26.81,0.06195,0.49673,-0.14374,0.85361,417,0.438,-0.292,0.863,0.122,-0.732,-0.366,-18.715,-25.681,-121.756,-15.227,-3.513,-11.24,28.07,0.43793,-0.26883,0.03183,-0.85721,421,0.519,-0.277,0.806,0.122,0.671,-1.343,-19.578,-31.772,167.349,-15.553,-5.147,-33.56,30.41,-0.15805,-0.24854,0.19363,-0.93576,419,0.693,-0.331,0.63,0.305,0.0,-1.282,-27.598,-44.517,-138.983,-25.9,-4.647,-16.1,31.51,-0.2298,0.4227,-0.07986,0.87296,423
106,0.884,-0.188,0.474,-0.427,0.0,0.061,-21.577,-59.996,-175.776,-26.24,-9.46,-18.347,26.81,0.06195,0.49673,-0.14374,0.85361,424,0.438,-0.292,0.857,0.305,-0.366,-0.122,-18.71,-25.686,-121.789,-15.227,-3.513,-11.24,28.07,0.43793,-0.26883,0.03183,-0.85721,428,0.52,-0.28,0.806,0.61,0.305,-0.732,-19.556,-31.761,167.388,-15.553,-5.147,-33.56,30.41,-0.15805,-0.24854,0.19363,-0.93576,426,0.689,-0.327,0.631,0.244,0.122,-1.221,-27.576,-44.522,-138.999,-25.9,-4.647,-16.1,31.51,-0.2298,0.4227,-0.07986,0.87296,432
107,0.881,-0.19,0.471,-0.488,-0.183,0.0,-21.583,-59.996,-175.787,-26.24,-9.46,-18.347,26.81,0.06195,0.49673,-0.14374,0.85361,425,0.436,-0.305,0.853,0.793,-0.061,-0.183,-18.699,-25.692,-121.833,-15.227,-3.513,-11.24,28.07,0.43793,-0.26883,0.03183,-0.85721,429,0.515,-0.285,0.795,1.16,-0.061,-0.061,-19.534,-31.761,167.426,-15.553,-5.147,-33.56,30.41,-0.15805,-0.24854,0.19363,-0.93576,427,0.692,-0.328,0.627,0.549,0.366,-1.221,-27.543,-44.528,-139.026,-25.9,-4.647,-16.1,31.51,-0.2298,0.4227,-0.07986,0.87296,433
108,0.882,-0.191,0.468,-0.549,-0.427,-0.122,-21.599,-59.996,-175.798,-26.24,-9.46,-18.347,26.81,0.06195,0.49673,-0.14374,0.85361,430,0.44,-0.302,0.852,1.892,0.488,-0.183,-18.666,-25.686,-121.882,-15.227,-3.513,-11.24,28.07,0.43793,-0.26883,0.03183,-0.85721,436,0.518,-0.293,0.791,0.854,0.366,0.793,-19.517,-31.745,167.481,-15.113,-5.113,-33.013,30.41,-0.15805,-0.24854,0.19363,-0.93576,434,0.695,-0.334,0.622,0.549,0.671,-1.282,-27.504,-44.522,-139.059,-25.9,-4.647,-16.1,31.51,-0.2298,0.4227,-0.07986,0.87296,444
109,0.89,-0.193,0.469,-0.488,-0.549,-0.122,-21.61,-60.007,-175.803,-26.24,-9.46,-18.347,26.81,0.06195,0.49673,-0.14374,0.85361,431,0.431,-0.294,0.844,3.601,0.366,0.305,-18.611,-25.675,-121.926,-15.227,-3.513,-11.24,28.07,0.43793,-0.26883,0.03183,-0.85721,437,0.519,-0.289,0.791,1.77,0.732,1.648,-19.506,-31.718,167.552,-15.113,-5.113,-33.013,30.41,-0.15805,-0.24854,0.19363,-0.93576,435,0.693,-0.337,0.621,0.916,0.671,-0.977,-27.471,-44.517,-139.081,-25.9,-4.647,-16.1,31.51,-0.2298,0.4227,-0.07986,0.87296,445
110,0.894,-0.196,0.469,-0.183,-0.488,0.0,-21.627,-60.018,-175.798,-26.24,-9.46,-18.347,26.81,0.06195,0.49673,-0.14374,0.85361,438,0.425,-0.29,0.854,3.845,0.305,0.732,-18.545,-25.67,-121.97,-15.227,-3.513,-11.24,28.07,0.43793,-0.26883,0.03183,-0.85721,440,0.511,-0.282,0.789,3.235,0.366,2.38,-19.473,-31.696,167.64,-15.113,-5.113,-33.013,30.41,-0.14795,-0.25006,0.1907,-0.93759,442,0.69,-0.332,0.624,1.343,0.61,-0.671,-27.433,-44.511,-139.092,-25.673,-4.787,-15.453,31.51,-0.2298,0.4227,-0.07986,0.87296,446
111,0.89,-0.197,0.469,0.061,-0.244,0.061,-21.638,-60.029,-175.781,-26.24,-9.46,-18.347,26.81,0.06195,0.49673,-0.14374,0.85361,439,0.426,-0.283,0.861,2.38,0.61,0.427,-18.501,-25.653,-122.02,-15.227,-3.513,-11.24,28.07,0.43793,-0.26883,0.03183,-0.85721,441,0.509,-0.282,0.794,3.113,0.916,2.625,-19.44,-31.657,167.728,-15.113,-5.113,-33.013,30.41,-0.14795,-0.25006,0.1907,-0.93759,443,0.689,-0.323,0.627,1.099,0.305,-0.427,-27.405,-44.506,-139.092,-25.673,-4.787,-15.453,31.51,-0.2298,0.4227,-0.07986,0.87296,447
112,0.882,-0.195,0.469,0.427,0.061,0.0,-21.643,-60.029,-175.765,-25.967,-9.227,-18.113,26.81,0.06195,0.49673,-0.14374,0.85361,450,0.429,-0.278,0.863,1.221,0.427,-0.122,-18.474,-25.642,-122.075,-15.227,-3.513,-11.24,28.07,0.43793,-0.26883,0.03183,-0.85721,452,0.511,-0.278,0.804,2.136,1.831,2.197,-19.413,-31.613,167.805,-15.113,-5.113,-33.013,30.41,-0.14795,-0.25006,0.1907,-0.93759,448,0.691,-0.321,0.629,0.549,0.0,-0.244,-27.394,-44.511,-139.07,-25.673,-4.787,-15.453,31.51,-0.2298,0.4227,-0.07986,0.87296,456
113,0.881,-0.189,0.471,0.793,0.0,0.0,-21.643,-60.029,-175.748,-25.967,-9.227,-18.113,26.81,0.06195,0.49673,-0.14374,0.85361,451,0.43,-0.28,0.866,0.244,-0.061,-0.366,-18.463,-25.642,-122.13,-15.227,-3.513,-11.24,28.07,0.43793,-0.26883,0.03183,-0.85721,453,0.51,-0.276,0.812,1.282,1.831,0.916,-19.391,-31.564,167.877,-15.113,-5.113,-33.013,30.41,-0.14795,-0.25006,0.1907,-0.93759,449,0.692,-0.326,0.629,0.122,-0.183,-0.183,-27.394,-44.511,-139.043,-25.673,-4.787,-15.453,31.51,-0.2298,0.4227,-0.07986,0.87296,457
114,0.882,-0.185,0.473,0.61,-0.183,0.0,-21.632,-60.035,-175.743,-25.967,-9.227,-18.113,26.81,0.06226,0.49704,-0.14413,0.85333,454,0.43,-0.282,0.866,-0.793,-0.061,-0.244,-18.468,-25.642,-122.162,-15.227,-3.513,-11.24,28.07,0.43793,-0.26883,0.03183,-0.85721,464,0.51,-0.275,0.818,0.305,0.427,-0.061,-19.38,-31.542,167.932,-15.113,-5.113,-33.013,30.41,-0.14795,-0.25006,0.1907,-0.93759,458,0.691,-0.323,0.631,-0.305,-0.244,0.0,-27.4,-44.511,-139.021,-25.673,-4.787,-15.453,31.51,-0.23056,0.42139,-0.07654,0.87369,460
115,0.885,-0.186,0.473,0.122,-0.183,0.0,-21.632,-60.04,-175.726,-25.967,-9.227,-18.113,26.81,0.06226,0.49704,-0.14413,0.85333,455,0.435,-0.28,0.865,-0.671,-0.305,-0.183,-18.484,-25.648,-122.19,-15.227,-3.513,-11.24,28.07,0.43793,-0.26883,0.03183,-0.85721,465,0.512,-0.274,0.811,-0.305,-0.549,-0.61,-19.38,-31.547,167.97,-15.113,-5.113,-33.013,30.41,-0.14795,-0.25006,0.1907,-0.93759,459,0.694,-0.322,0.633,-0.488,-0.244,0.061,-27.416,-44.517,-139.005,-25.673,-4.787,-15.453,31.51,-0.23056,0.42139,-0.07654,0.87369,461
116,0.886,-0.185,0.475,-0.183,-0.366,-0.122,-21.638,-60.046,-175.704,-25.967,-9.227,-18.113,26.81,0.06226,0.49704,-0.14413,0.85333,462,0.438,-0.283,0.856,-0.549,-0.183,0.244,-18.495,-25.648,-122.223,-15.36,-3.993,-10.133,28.07,0.43793,-0.26883,0.03183,-0.85721,468,0.516,-0.269,0.802,-0.122,-0.122,-0.488,-19.374,-31.547,168.014,-15.113,-5.113,-33.013,30.41,-0.14795,-0.25006,0.1907,-0.93759,466,0.695,-0.323,0.627,-0.549,-0.122,0.0,-27.427,-44.511,-139.01,-25.673,-4.787,-15.453,31.51,-0.23056,0.42139,-0.07654,0.87369,472
117,0.885,-0.184,0.475,-0.183,-0.427,-0.061,-21.643,-60.051,-175.677,-25.967,-9.227,-18.113,26.81,0.06226,0.49704,-0.14413,0.85333,463,0.435,-0.288,0.854,-0.61,-0.122,0.305,-18.506,-25.648,-122.25,-15.36,-3.993,-10.133,28.07,0.43793,-0.26883,0.03183,-0.85721,469,0.516,-0.275,0.798,-0.549,0.305,0.0,-19.374,-31.542,168.047,-15.113,-5.113,-33.013,30.41,-0.14795,-0.25006,0.1907,-0.93759,467,0.693,-0.321,0.625,-0.488,0.061,0.0,-27.438,-44.511,-139.021,-25.673,-4.787,-15.453,31.51,-0.23056,0.42139,-0.07654,0.87369,473
118,0.885,-0.183,0.474,-0.061,-0.488,0.122,-21.649,-60.062,-175.677,-25.967,-9.227,-18.113,26.81,0.06226,0.49704,-0.14413,0.85333,470,0.434,-0.288,0.854,-0.549,-0.305,-0.061,-18.517,-25.653,-122.272,-15.36,-3.993,-10.133,28.07,0.43793,-0.26883,0.03183,-0.85721,476,0.513,-0.283,0.798,-1.038,0.244,0.0,-19.391,-31.531,168.08,-15.113,-5.113,-33.013,30.41,-0.14795,-0.25006,0.1907,-0.93759,474,0.691,-0.321,0.625,-0.732,0.122,0.0,-27.449,-44.506,-139.037,-25.673,-4.787,-15.453,31.51,-0.23056,0.42139,-0.07654,0.87369,480
119,0.884,-0.186,0.473,-0.244,-0.244,0.244,-21.665,-60.068,-175.671,-25.967,-9.227,-18.113,26.81,0.06226,0.49704,-0.14413,0.85333,471,0.434,-0.288,0.853,0.0,-0.061,-0.366,-18.517,-25.653,-122.294,-15.36,-3.993,-10.133,28.07,0.43793,-0.26883,0.03183,-0.85721,477,0.513,-0.282,0.797,-0.732,0.244,-0.305,-19.402,-31.525,168.113,-15.113,-5.113,-33.013,30.41,-0.14795,-0.25006,0.1907,-0.93759,475,0.69,-0.325,0.627,-1.099,0.0,0.0,-27.471,-44.506,-139.059,-25.673,-4.787,-15.453,31.51,-0.23056,0.42139,-0.07654,0.87369,481
120,0.883,-0.189,0.47,-0.549,-0.183,0.183,-21.676,-60.073,-175.66,-25.967,-9.227,-18.113,26.81,0.06226,0.49704,-0.14413,0.85333,478,0.433,-0.29,0.854,0.183,0.305,-0.427,-18.506,-25.653,-122.327,-15.36,-3.993,-10.133,28.07,0.43298,-0.26761,0.03165,-0.86011,482,0.512,-0.281,0.795,-0.061,0.183,-0.488,-19.396,-31.52,168.14,-15.113,-5.113,-33.013,30.41,-0.14795,-0.25006,0.1907,-0.93759,484,0.69,-0.327,0.627,-1.282,0.061,-0.061,-27.493,-44.506,-139.076,-25.673,-4.787,-15.453,31.51,-0.23056,0.42139,-0.07654,0.87369,486
121,0.885,-0.19,0.468,-0.549,-0.488,0.0,-21.698,-60.073,-175.655,-25.967,-9.227,-18.113,26.81,0.06226,0.49704,-0.14413,0.85333,479,0.434,-0.289,0.855,0.244,0.427,-0.488,-18.495,-25.648,-122.371,-15.36,-3.993,-10.133,28.07,0.43298,-0.26761,0.03165,-0.86011,483,0.514,-0.282,0.797,0.183,0.427,-0.366,-19.385,-31.509,168.168,-15.113,-5.113,-33.013,30.41,-0.14795,-0.25006,0.1907,-0.93759,485,0.691,-0.328,0.627,-1.526,0.061,0.0,-27.521,-44.5,-139.098,-25.673,-4.787,-15.453,31.51,-0.23056,0.42139,-0.07654,0.87369,487
122,0.887,-0.192,0.47,-0.427,-0.671,0.0,-21.714,-60.084,-175.644,-25.967,-9.227,-18.113,26.81,0.06226,0.49704,-0.14413,0.85333,488,0.432,-0.292,0.859,0.366,-0.061,-0.549,-18.484,-25.653,-122.41,-15.36,-3.993,-10.133,28.07,0.43298,-0.26761,0.03165,-0.86011,492,0.513,-0.283,0.802,0.366,0.671,-0.488,-19.369,-31.498,168.19,-14.96,-5.327,-33.133,30.41,-0.14795,-0.25006,0.1907,-0.93759,490,0.692,-0.33,0.626,-1.526,0.0,0.061,-27.554,-44.5,-139.114,-25.673,-4.787,-15.453,31.51,-0.23056,0.42139,-0.07654,0.87369,494
123,0.887,-0.192,0.471,-0.305,-0.549,0.0,-21.731,-60.101,-175.622,-25.967,-9.227,-18.113,26.81,0.06226,0.49704,-0.14413,0.85333,489,0.433,-0.291,0.86,0.488,-0.244,-0.549,-18.474,-25.659,-122.454,-15.36,-3.993,-10.133,28.07,0.43298,-0.26761,0.03165,-0.86011,493,0.512,-0.284,0.807,0.427,0.549,-0.732,-19.352,-31.487,168.19,-14.96,-5.327,-33.133,30.41,-0.14795,-0.25006,0.1907,-0.93759,491,0.692,-0.333,0.628,-1.587,-0.122,0.122,-27.587,-44.5,-139.114,-25.673,-4.787,-15.453,31.51,-0.23056,0.42139,-0.07654,0.87369,495
124,0.886,-0.192,0.471,-0.244,-0.366,0.0,-21.747,-60.106,-175.594,-25.967,-9.227,-18.113,26.81,0.06226,0.49704,-0.14413,0.85333,496,0.435,-0.291,0.86,0.305,-0.061,-0.549,-18.463,-25.664,-122.509,-15.36,-3.993,-10.133,28.07,0.43298,-0.26761,0.03165,-0.86011,500,0.512,-0.284,0.806,0.427,0.305,-1.099,-19.325,-31.487,168.201,-14.96,-5.327,-33.133,30.41,-0.14795,-0.25006,0.1907,-0.93759,498,0.691,-0.334,0.628,-1.709,-0.244,0.061,-27.625,-44.5,-139.109,-25.673,-4.787,-15.453,31.51,-0.23056,0.42139,-0.07654,0.87369,502
125,0.885,-0.193,0.472,-0.183,-0.366,0.0,-21.758,-60.117,-175.562,-25.967,-9.227,-18.113,26.81,0.06226,0.49704,-0.14413,0.85333,497,0.434,-0.292,0.859,0.0,0.0,-0.488,-18.463,-25.664,-122.569,-15.36,-3.993,-10.133,28.07,0.43298,-0.26761,0.03165,-0.86011,501,0.514,-0.283,0.804,0.305,0.366,-1.221,-19.308,-31.481,168.212,-14.96,-5.327,-33.133,30.41,-0.14795,-0.25006,0.1907,-0.93759,499,0.69,-0.334,0.626,-1.587,-0.183,0.061,-27.658,-44.5,-139.103,-25.673,-4.787,-15.453,31.51,-0.23056,0.42139,-0.07654,0.87369,503
126,0.885,-0.193,0.471,-0.061,-0.488,0.0,-21.769,-60.123,-175.545,-25.967,-9.227,-18.113,26.81,0.06226,0.49704,-0.14413,0.85333,504,0.433,-0.292,0.858,-0.183,-0.183,-0.366,-18.468,-25.67,-122.607,-15.36,-3.993,-10.133,28.07,0.43298,-0.26761,0.03165,-0.86011,508,0.512,-0.283,0.805,0.122,0.732,-1.038,-19.292,-31.47,168.223,-14.96,-5.327,-33.133,30.41,-0.14276,-0.24945,0.18811,-0.93909,506,0.69,-0.334,0.626,-1.343,-0.183,0.0,-27.686,-44.5,-139.098,-25.673,-4.787,-15.453,31.51,-0.23056,0.42139,-0.07654,0.87369,512
127,0.884,-0.192,0.47,0.0,-0.488,0.0,-21.78,-60.134,-175.529,-25.967,-9.227,-18.113,26.81,0.06226,0.49704,-0.14413,0.85333,505,0.435,-0.293,0.858,-0.061,-0.183,-0.305,-18.468,-25.675,-122.646,-15.36,-3.993,-10.133,28.07,0.43298,-0.26761,0.03165,-0.86011,509,0.51,-0.284,0.804,0.183,0.61,-0.793,-19.276,-31.459,168.234,-14.96,-5.327,-33.133,30.41,-0.14276,-0.24945,0.18811,-0.93909,507,0.691,-0.334,0.626,-1.343,-0.244,0.061,-27.719,-44.506,-139.087,-25.673,-4.787,-15.453,31.51,-0.23056,0.42139,-0.07654,0.87369,513
128,0.884,-0.191,0.469,0.0,-0.366,0.0,-21.786,-60.139,-175.507,-25.9,-9.487,-17.953,26.81,0.06226,0.49704,-0.14413,0.85333,510,0.435,-0.293,0.855,-0.061,0.0,-0.305,-18.468,-25.675,-122.69,-15.36,-3.993,-10.133,28.07,0.43298,-0.26761,0.03165,-0.86011,518,0.513,-0.285,0.801,0.0,0.671,-0.732,-19.265,-31.448,168.261,-14.96,-5.327,-33.133,30.41,-0.14276,-0.24945,0.18811,-0.93909,514,0.693,-0.335,0.625,-1.16,-0.244,0.0,-27.746,-44.506,-139.087,-25.993,-4.887,-15.927,31.51,-0.23056,0.42139,-0.07654,0.87369,520
129,0.887,-0.191,0.471,-0.122,-0.305,0.0,-21.797,-60.145,-175.485,-25.9,-9.487,-17.953,26.81,0.06226,0.49704,-0.14413,0.85333,511,0.434,-0.292,0.859,-0.122,0.061,-0.305,-18.474,-25.675,-122.739,-15.36,-3.993,-10.133,28.07,0.43298,-0.26761,0.03165,-0.86011,519,0.512,-0.283,0.801,0.0,0.793,-0.61,-19.259,-31.432,168.289,-14.96,-5.327,-33.133,30.41,-0.14276,-0.24945,0.18811,-0.93909,515,0.695,-0.332,0.625,-0.977,-0.061,0.0,-27.768,-44.506,-139.087,-25.993,-4.887,-15.927,31.51,-0.23056,0.42139,-0.07654,0.87369,521
130,0.887,-0.192,0.47,-0.183,-0.305,0.0,-21.808,-60.15,-175.468,-25.9,-9.487,-17.953,26.81,0.06226,0.49704,-0.14413,0.85333,516,0.434,-0.288,0.854,-0.427,0.366,-0.061,-18.484,-25.664,-122.789,-15.36,-3.993,-10.133,28.07,0.43298,-0.26761,0.03165,-0.86011,522,0.51,-0.28,0.8,0.0,0.977,-0.366,-19.254,-31.41,168.305,-14.96,-5.327,-33.133,30.41,-0.14276,-0.24945,0.18811,-0.93909,524,0.694,-0.334,0.624,-1.038,0.061,0.061,-27.79,-44.506,-139.076,-25.993,-4.887,-15.927,31.51,-0.23056,0.42139,-0.07654,0.87369,530
131,0.887,-0.192,0.47,-0.183,-0.244,0.0,-21.819,-60.156,-175.452,-25.9,-9.487,-17.953,26.81,0.06226,0.49704,-0.14413,0.85333,517,0.438,-0.284,0.857,-0.793,0.732,0.0,-18.495,-25.653,-122.827,-15.36,-3.993,-10.133,28.07,0.43298,-0.26761,0.03165,-0.86011,523,0.513,-0.276,0.798,-0.061,1.099,-0.244,-19.248,-31.388,168.322,-14.96,-5.327,-33.133,30.41,-0.14276,-0.24945,0.18811,-0.93909,525,0.692,-0.337,0.625,-0.366,0.183,0.061,-27.812,-44.5,-139.059,-25.993,-4.887,-15.927,31.51,-0.23056,0.42139,-0.07654,0.87369,531
132,0.888,-0.192,0.47,-0.061,-0.305,0.0,-21.83,-60.161,-175.446,-25.9,-9.487,-17.953,26.81,0.06226,0.49704,-0.14413,0.85333,526,0.438,-0.289,0.86,-0.427,0.854,0.305,-18.506,-25.631,-122.855,-15.36,-3.993,-10.133,28.07,0.43298,-0.26761,0.03165,-0.86011,532,0.517,-0.274,0.804,0.0,1.282,-0.549,-19.237,-31.366,168.327,-14.96,-5.327,-33.133,30.41,-0.14276,-0.24945,0.18811,-0.93909,528,0.701,-0.336,0.625,-0.244,0.122,0.0,-27.823,-44.495,-139.048,-25.993,-4.887,-15.927,31.51,-0.22891,0.42212,-0.07986,0.87347,534
133,0.889,-0.192,0.469,0.0,-0.244,0.0,-21.835,-60.167,-175.441,-25.9,-9.487,-17.953,26.81,0.06226,0.49704,-0.14413,0.85333,527,0.435,-0.301,0.862,0.183,0.244,0.916,-18.512,-25.626,-122.877,-15.36,-3.993,-10.133,28.07,0.43298,-0.26761,0.03165,-0.86011,533,0.515,-0.281,0.812,0.305,1.16,-0.488,-19.221,-31.344,168.322,-14.96,-5.327,-33.133,30.41,-0.14276,-0.24945,0.18811,-0.93909,529,0.702,-0.335,0.62,0.549,0.244,0.305,-27.823,-44.489,-139.037,-25.993,-4.887,-15.927,31.51,-0.22891,0.42212,-0.07986,0.87347,535
134,0.891,-0.193,0.467,0.183,-0.122,0.0,-21.841,-60.172,-175.452,-25.9,-9.487,-17.953,26.81,0.0611,0.49829,-0.1442,0.85269,540,0.438,-0.291,0.859,1.16,-0.366,0.916,-18.501,-25.626,-122.888,-15.307,-3.773,-11.04,28.07,0.43298,-0.26761,0.03165,-0.86011,542,0.514,-0.288,0.813,1.038,0.366,-0.122,-19.199,-31.333,168.338,-14.96,-5.327,-33.133,30.41,-0.14276,-0.24945,0.18811,-0.93909,536,0.695,-0.335,0.624,1.892,0.793,0.671,-27.817,-44.478,-139.026,-25.993,-4.887,-15.927,31.51,-0.22891,0.42212,-0.07986,0.87347,538
135,0.893,-0.192,0.468,0.427,-0.183,0.0,-21.841,-60.172,-175.468,-25.9,-9.487,-17.953,26.81,0.0611,0.49829,-0.1442,0.85269,541,0.439,-0.287,0.859,1.465,-0.305,0.427,-18.484,-25.626,-122.904,-15.307,-3.773,-11.04,28.07,0.43298,-0.26761,0.03165,-0.86011,543,0.516,-0.282,0.807,1.953,-0.183,-0.488,-19.155,-31.333,168.354,-14.96,-5.327,-33.133,30.41,-0.14276,-0.24945,0.18811,-0.93909,537,0.688,-0.332,0.624,1.465,0.671,0.977,-27.79,-44.456,-139.021,-25.993,-4.887,-15.927,31.51,-0.22891,0.42212,-0.07986,0.87347,539
136,0.892,-0.191,0.468,0.793,-0.122,0.305,-21.841,-60.178,-175.468,-25.9,-9.487,-17.953,26.81,0.0611,0.49829,-0.1442,0.85269,548,0.438,-0.284,0.86,0.916,0.61,0.183,-18.468,-25.615,-122.926,-15.307,-3.773,-11.04,28.07,0.4285,-0.26697,0.03293,-0.86252,546,0.518,-0.278,0.802,1.892,-0.061,-1.221,-19.105,-31.344,168.354,-14.96,-5.327,-33.133,30.41,-0.14276,-0.24945,0.18811,-0.93909,544,0.687,-0.328,0.625,1.221,0.366,0.977,-27.779,-44.44,-139.026,-25.993,-4.887,-15.927,31.51,-0.22891,0.42212,-0.07986,0.87347,550
137,0.888,-0.191,0.465,0.916,0.061,0.427,-21.841,-60.178,-175.457,-25.9,-9.487,-17.953,26.81,0.0611,0.49829,-0.1442,0.85269,549,0.436,-0.288,0.854,1.099,0.732,0.061,-18.446,-25.604,-122.948,-15.307,-3.773,-11.04,28.07,0.4285,-0.26697,0.03293,-0.86252,547,0.516,-0.274,0.8,2.014,0.427,-1.282,-19.05,-31.339,168.349,-14.96,-5.327,-33.133,30.41,-0.14276,-0.24945,0.18811,-0.93909,545,0.697,-0.329,0.627,0.793,-0.061,0.671,-27.773,-44.423,-139.01,-25.993,-4.887,-15.927,31.51,-0.22891,0.42212,-0.07986,0.87347,551
138,0.883,-0.191,0.468,1.16,0.244,0.427,-21.841,-60.172,-175.452,-25.9,-9.487,-17.953,26.81,0.0611,0.49829,-0.1442,0.85269,552,0.434,-0.299,0.853,1.038,-0.122,0.0,-18.43,-25.609,-122.964,-15.307,-3.773,-11.04,28.07,0.4285,-0.26697,0.03293,-0.86252,554,0.511,-0.28,0.804,1.953,1.099,-0.977,-18.995,-31.322,168.338,-14.867,-5.233,-33.467,30.41,-0.14276,-0.24945,0.18811,-0.93909,560,0.692,-0.336,0.625,1.221,-0.061,0.305,-27.768,-44.423,-138.983,-25.993,-4.887,-15.927,31.51,-0.22891,0.42212,-0.07986,0.87347,558
139,0.884,-0.189,0.47,1.038,0.122,0.366,-21.83,-60.167,-175.441,-25.9,-9.487,-17.953,26.81,0.0611,0.49829,-0.1442,0.85269,553,0.428,-0.298,0.855,1.77,-0.061,-0.305,-18.397,-25.615,-122.997,-15.307,-3.773,-11.04,28.07,0.4285,-0.26697,0.03293,-0.86252,555,0.508,-0.289,0.8,1.709,0.854,-0.732,-18.957,-31.311,168.354,-14.867,-5.233,-33.467,30.41,-0.14276,-0.24945,0.18811,-0.93909,561,0.683,-0.332,0.628,1.465,0.122,0.671,-27.751,-44.418,-138.966,-25.993,-4.887,-15.927,31.51,-0.22891,0.42212,-0.07986,0.87347,559
140,0.887,-0.187,0.471,0.61,0.0,0.366,-21.83,-60.167,-175.424,-25.9,-9.487,-17.953,26.81,0.0611,0.49829,-0.1442,0.85269,556,0.426,-0.289,0.859,1.282,0.427,-0.61,-18.369,-25.609,-123.052,-15.307,-3.773,-11.04,28.07,0.4285,-0.26697,0.03293,-0.86252,562,0.506,-0.284,0.801,1.831,1.099,-0.549,-18.913,-31.289,168.382,-14.867,-5.233,-33.467,30.41,-0.1402,-0.24863,0.18433,-0.94046,566,0.682,-0.322,0.625,1.465,-0.183,0.793,-27.735,-44.412,-138.944,-25.993,-4.887,-15.927,31.51,-0.22891,0.42212,-0.07986,0.87347,564
141,0.885,-0.188,0.472,0.549,0.122,0.549,-21.835,-60.161,-175.413,-25.9,-9.487,-17.953,26.81,0.0611,0.49829,-0.1442,0.85269,557,0.427,-0.287,0.856,0.427,0.488,-0.977,-18.353,-25.604,-123.113,-15.307,-3.773,-11.04,28.07,0.4285,-0.26697,0.03293,-0.86252,563,0.508,-0.277,0.804,0.732,1.709,-1.099,-18.885,-31.262,168.382,-14.867,-5.233,-33.467,30.41,-0.1402,-0.24863,0.18433,-0.94046,567,0.685,-0.321,0.632,0.854,-0.854,0.427,-27.729,-44.407,-138.933,-25.993,-4.887,-15.927,31.51,-0.22891,0.42212,-0.07986,0.87347,565
142,0.876,-0.19,0.474,0.977,0.671,0.61,-21.835,-60.15,-175.397,-25.9,-9.487,-17.953,26.81,0.0611,0.49829,-0.1442,0.85269,568,0.429,-0.284,0.861,-0.305,-0.122,-1.953,-18.347,-25.62,-123.168,-15.307,-3.773,-11.04,28.07,0.4285,-0.26697,0.03293,-0.86252,572,0.507,-0.278,0.812,0.244,1.709,-1.343,-18.864,-31.234,168.393,-14.867,-5.233,-33.467,30.41,-0.1402,-0.24863,0.18433,-0.94046,570,0.691,-0.329,0.637,0.061,-1.16,-0.122,-27.729,-44.418,-138.922,-25.993,-4.887,-15.927,31.51,-0.22891,0.42212,-0.07986,0.87347,574
143,0.875,-0.187,0.476,0.977,0.61,0.427,-21.83,-60.139,-175.397,-25.9,-9.487,-17.953,26.81,0.0611,0.49829,-0.1442,0.85269,569,0.434,-0.283,0.868,-1.038,-0.366,-2.319,-18.347,-25.637,-123.228,-15.307,-3.773,-11.04,28.07,0.4285,-0.26697,0.03293,-0.86252,573,0.505,-0.273,0.815,-0.061,1.282,-1.648,-18.842,-31.218,168.404,-14.867,-5.233,-33.467,30.41,-0.1402,-0.24863,0.18433,-0.94046,571,0.694,-0.338,0.63,0.793,-0.61,-0.244,-27.729,-44.434,-138.922,-25.993,-4.887,-15.927,31.51,-0.22891,0.42212,-0.07986,0.87347,575
144,0.88,-0.185,0.474,0.488,0.0,0.305,-21.824,-60.128,-175.419,-25.9,-9.487,-17.953,26.81,0.0611,0.49829,-0.1442,0.85269,576,0.44,-0.293,0.862,-0.793,-0.244,-1.953,-18.353,-25.653,-123.272,-15.307,-3.773,-11.04,28.07,0.4285,-0.26697,0.03293,-0.86252,580,0.508,-0.271,0.82,-0.427,1.282,-1.465,-18.831,-31.201,168.404,-14.867,-5.233,-33.467,30.41,-0.1402,-0.24863,0.18433,-0.94046,578,0.701,-0.334,0.625,0.488,-0.488,-0.061,-27.719,-44.445,-138.933,-25.993,-4.887,-15.927,31.51,-0.22891,0.42212,-0.07986,0.87347,582
145,0.89,-0.187,0.473,-0.244,-0.366,0.244,-21.83,-60.128,-175.435,-25.9,-9.487,-17.953,26.81,0.0611,0.49829,-0.1442,0.85269,577,0.442,-0.287,0.858,0.244,-0.061,-0.977,-18.342,-25.659,-123.294,-15.307,-3.773,-11.04,28.07,0.4285,-0.26697,0.03293,-0.86252,581,0.512,-0.272,0.808,-0.122,0.732,-0.854,-18.825,-31.185,168.42,-14.867,-5.233,-33.467,30.41,-0.1402,-0.24863,0.18433,-0.94046,579,0.694,-0.33,0.626,0.977,0.0,0.305,-27.708,-44.445,-138.933,-25.993,-4.887,-15.927,31.51,-0.22891,0.42212,-0.07986,0.87347,583
146,0.894,-0.194,0.471,-0.183,-0.244,0.244,-21.846,-60.134,-175.43,-25.9,-9.487,-17.953,26.81,0.0611,0.49829,-0.1442,0.85269,584,0.438,-0.282,0.856,0.61,0.061,-0.793,-18.325,-25.664,-123.316,-15.307,-3.773,-11.04,28.07,0.4285,-0.26697,0.03293,-0.86252,588,0.513,-0.268,0.802,0.061,0.732,-0.183,-18.82,-31.168,168.453,-14.867,-5.233,-33.467,30.41,-0.1402,-0.24863,0.18433,-0.94046,586,0.694,-0.328,0.625,0.549,0.122,0.427,-27.697,-44.44,-138.939,-25.66,-5.113,-15.913,31.51,-0.22891,0.42212,-0.07986,0.87347,598
147,0.89,-0.196,0.471,0.366,-0.244,0.366,-21.857,-60.134,-175.419,-25.9,-9.487,-17.953,26.81,0.0611,0.49829,-0.1442,0.85269,585,0.439,-0.276,0.852,2.075,0.305,-0.366,-18.298,-25.659,-123.349,-15.307,-3.773,-11.04,28.07,0.4285,-0.26697,0.03293,-0.86252,589,0.512,-0.276,0.806,-0.488,0.732,-0.183,-18.825,-31.152,168.497,-14.867,-5.233,-33.467,30.41,-0.1402,-0.24863,0.18433,-0.94046,587,0.695,-0.33,0.624,0.488,0.183,0.488,-27.697,-44.434,-138.944,-25.66,-5.113,-15.913,31.51,-0.22891,0.42212,-0.07986,0.87347,599
148,0.887,-0.195,0.467,0.854,0.122,0.488,-21.863,-60.134,-175.397,-25.88,-9.407,-18.193,26.81,0.0611,0.49829,-0.1442,0.85269,590,0.438,-0.285,0.861,1.709,0.488,-0.061,-18.259,-25.659,-123.371,-15.307,-3.773,-11.04,28.07,0.4285,-0.26697,0.03293,-0.86252,592,0.511,-0.27,0.799,0.427,0.244,0.122,-18.814,-31.146,168.547,-14.867,-5.233,-33.467,30.41,-0.1402,-0.24863,0.18433,-0.94046,594,0.693,-0.336,0.623,0.549,0.183,0.977,-27.697,-44.423,-138.933,-25.66,-5.113,-15.913,31.51,-0.2305,0.42145,-0.07877,0.87347,604
149,0.886,-0.192,0.466,0.854,0.0,0.549,-21.863,-60.128,-175.386,-25.88,-9.407,-18.193,26.81,0.0611,0.49829,-0.1442,0.85269,591,0.432,-0.297,0.857,2.136,0.366,0.0,-18.221,-25.648,-123.398,-15.307,-3.773,-11.04,28.07,0.4285,-0.26697,0.03293,-0.86252,593,0.511,-0.263,0.805,0.793,0.549,0.305,-18.798,-31.13,168.607,-14.867,-5.233,-33.467,30.41,-0.1402,-0.24863,0.18433,-0.94046,595,0.689,-0.338,0.624,0.732,0.183,1.282,-27.702,-44.407,-138.9,-25.66,-5.113,-15.913,31.51,-0.2305,0.42145,-0.07877,0.87347,605
150,0.888,-0.194,0.465,0.793,0.0,0.61,-21.868,-60.123,-175.38,-25.88,-9.407,-18.193,26.81,0.0611,0.49829,-0.1442,0.85269,596,0.433,-0.283,0.855,3.967,0.61,0.488,-18.177,-25.642,-123.437,-15.307,-3.773,-11.04,28.07,0.4285,-0.26697,0.03293,-0.86252,602,0.507,-0.281,0.813,0.061,0.305,0.488,-18.803,-31.119,168.662,-14.867,-5.233,-33.467,30.41,-0.1402,-0.24863,0.18433,-0.94046,600,0.688,-0.334,0.624,0.793,0.0,1.038,-27.713,-44.396,-138.862,-25.66,-5.113,-15.913,31.51,-0.2305,0.42145,-0.07877,0.87347,608
151,0.889,-0.197,0.466,0.916,0.244,0.549,-21.874,-60.117,-175.358,-25.88,-9.407,-18.193,26.81,0.0611,0.49829,-0.1442,0.85269,597,0.431,-0.275,0.858,2.563,0.61,0.488,-18.111,-25.631,-123.464,-15.307,-3.773,-11.04,28.07,0.4285,-0.26697,0.03293,-0.86252,603,0.509,-0.277,0.802,1.282,-0.427,0.854,-18.787,-31.119,168.723,-14.867,-5.233,-33.467,30.41,-0.1402,-0.24863,0.18433,-0.94046,601,0.685,-0.323,0.628,0.61,-0.183,1.038,-27.719,-44.385,-138.818,-25.66,-5.113,-15.913,31.51,-0.2305,0.42145,-0.07877,0.87347,609
152,0.888,-0.197,0.467,1.343,0.305,0.427,-21.868,-60.112,-175.325,-25.88,-9.407,-18.193,26.81,0.06067,0.49805,-0.14423,0.85287,610,0.427,-0.28,0.86,1.77,0.061,-0.305,-18.067,-25.62,-123.481,-14.98,-3.727,-10.753,28.07,0.4285,-0.26697,0.03293,-0.86252,614,0.506,-0.27,0.801,2.075,0.0,1.099,-18.759,-31.108,168.788,-14.867,-5.233,-33.467,30.41,-0.1402,-0.24863,0.18433,-0.94046,606,0.684,-0.318,0.63,0.0,-0.122,0.732,-27.729,-44.379,-138.741,-25.66,-5.113,-15.913,31.51,-0.2305,0.42145,-0.07877,0.87347,618
153,0.88,-0.19,0.471,1.587,0.122,0.305,-21.857,-60.106,-175.314,-25.88,-9.407,-18.193,26.81,0.06067,0.49805,-0.14423,0.85287,611,0.427,-0.291,0.866,1.526,-1.099,-1.282,-18.034,-25.626,-123.514,-14.98,-3.727,-10.753,28.07,0.4285,-0.26697,0.03293,-0.86252,615,0.505,-0.272,0.808,1.465,0.671,0.732,-18.737,-31.091,168.838,-14.867,-5.233,-33.467,30.41,-0.1402,-0.24863,0.18433,-0.94046,607,0.68,-0.324,0.63,-0.366,-0.122,0.305,-27.746,-44.379,-138.68,-25.66,-5.113,-15.913,31.51,-0.2305,0.42145,-0.07877,0.87347,619
154,0.873,-0.182,0.476,1.16,0.122,0.244,-21.841,-60.106,-175.32,-25.88,-9.407,-18.193,26.81,0.06067,0.49805,-0.14423,0.85287,612,0.431,-0.286,0.865,1.343,-1.709,-1.648,-18.001,-25.659,-123.569,-14.98,-3.727,-10.753,28.07,0.42474,-0.26532,0.03076,-0.86496,620,0.502,-0.28,0.821,0.549,0.488,0.305,-18.726,-31.075,168.898,-14.8,-5.2,-32.813,30.41,-0.1402,-0.24863,0.18433,-0.94046,616,0.686,-0.329,0.633,-1.099,-0.427,0.0,-27.762,-44.379,-138.653,-25.66,-5.113,-15.913,31.51,-0.2305,0.42145,-0.07877,0.87347,624
155,0.871,-0.178,0.477,0.244,0.061,0.244,-21.835,-60.101,-175.32,-25.88,-9.407,-18.193,26.81,0.06067,0.49805,-0.14423,0.85287,613,0.436,-0.267,0.863,1.77,-1.404,-1.404,-17.963,-25.697,-123.635,-14.98,-3.727,-10.753,28.07,0.42474,-0.26532,0.03076,-0.86496,621,0.502,-0.285,0.826,-0.427,-0.061,0.0,-18.737,-31.075,168.981,-14.8,-5.2,-32.813,30.41,-0.1402,-0.24863,0.18433,-0.94046,617,0.692,-0.327,0.637,-1.343,-0.61,-0.244,-27.784,-44.385,-138.647,-25.66,-5.113,-15.913,31.51,-0.2305,0.42145,-0.07877,0.87347,625
156,0.877,-0.183,0.478,-0.61,0.0,0.122,-21.846,-60.101,-175.331,-25.88,-9.407,-18.193,26.81,0.06067,0.49805,-0.14423,0.85287,622,0.438,-0.269,0.862,0.549,-0.671,-1.221,-17.93,-25.724,-123.69,-14.98,-3.727,-10.753,28.07,0.42474,-0.26532,0.03076,-0.86496,628,0.506,-0.267,0.812,0.488,-0.488,-0.366,-18.726,-31.08,169.047,-14.8,-5.2,-32.813,30.41,-0.13422,-0.24814,0.1813,-0.94205,626,0.7,-0.326,0.636,-1.831,-0.427,-0.305,-27.817,-44.39,-138.653,-25.66,-5.113,-15.913,31.51,-0.2305,0.42145,-0.07877,0.87347,632
157,0.885,-0.188,0.479,-0.916,-0.549,-0.244,-21.863,-60.106,-175.347,-25.88,-9.407,-18.193,26.81,0.06067,0.49805,-0.14423,0.85287,623,0.439,-0.281,0.857,-0.061,-0.122,-1.587,-17.913,-25.741,-123.734,-14.98,-3.727,-10.753,28.07,0.42474,-0.26532,0.03076,-0.86496,629,0.508,-0.259,0.807,0.488,0.122,-0.793,-18.704,-31.075,169.074,-14.8,-5.2,-32.813,30.41,-0.13422,-0.24814,0.1813,-0.94205,627,0.697,-0.329,0.625,-1.587,0.183,-0.427,-27.839,-44.396,-138.664,-25.66,-5.113,-15.913,31.51,-0.2305,0.42145,-0.07877,0.87347,633
158,0.889,-0.187,0.478,-0.549,-0.916,-0.244,-21.874,-60.117,-175.364,-25.88,-9.407,-18.193,26.81,0.06067,0.49805,-0.14423,0.85287,630,0.442,-0.283,0.861,0.061,-0.305,-1.709,-17.897,-25.752,-123.783,-14.98,-3.727,-10.753,28.07,0.42474,-0.26532,0.03076,-0.86496,634,0.508,-0.269,0.807,-0.61,0.427,-1.343,-18.699,-31.069,169.091,-14.8,-5.2,-32.813,30.41,-0.13422,-0.24814,0.1813,-0.94205,636,0.693,-0.338,0.619,-0.793,1.038,-0.061,-27.85,-44.385,-138.68,-25.66,-5.113,-15.913,31.51,-0.2305,0.42145,-0.07877,0.87347,640
159,0.888,-0.186,0.474,-0.366,-0.977,0.0,-21.885,-60.134,-175.369,-25.88,-9.407,-18.193,26.81,0.06067,0.49805,-0.14423,0.85287,631,0.445,-0.277,0.857,1.709,1.099,-0.793,-17.875,-25.763,-123.838,-14.98,-3.727,-10.753,28.07,0.42474,-0.26532,0.03076,-0.86496,635,0.508,-0.278,0.811,-1.648,0.549,-1.465,-18.71,-31.064,169.096,-14.8,-5.2,-32.813,30.41,-0.13422,-0.24814,0.1813,-0.94205,637,0.697,-0.339,0.623,-0.671,0.549,0.0,-27.856,-44.368,-138.708,-25.66,-5.113,-15.913,31.51,-0.2305,0.42145,-0.07877,0.87347,641
160,0.891,-0.19,0.469,-0.671,-0.427,0.671,-21.912,-60.145,-175.358,-25.88,-9.407,-18.193,26.81,0.06067,0.49805,-0.14423,0.85287,642,0.441,-0.275,0.858,1.953,1.038,0.122,-17.836,-25.741,-123.887,-14.98,-3.727,-10.753,28.07,0.42474,-0.26532,0.03076,-0.86496,644,0.515,-0.268,0.801,-0.305,-0.122,-2.075,-18.693,-31.075,169.091,-14.8,-5.2,-32.813,30.41,-0.13422,-0.24814,0.1813,-0.94205,638,0.695,-0.339,0.623,-0.305,0.61,0.061,-27.861,-44.357,-138.73,-25.66,-5.113,-15.913,31.51,-0.2305,0.42145,-0.07877,0.87347,646
161,0.894,-0.202,0.465,-0.61,-0.244,0.671,-21.951,-60.139,-175.342,-25.88,-9.407,-18.193,26.81,0.06067,0.49805,-0.14423,0.85287,643,0.438,-0.277,0.86,1.221,0.854,0.122,-17.798,-25.724,-123.915,-14.98,-3.727,-10.753,28.07,0.42474,-0.26532,0.03076,-0.86496,645,0.517,-0.262,0.804,0.977,0.549,-0.977,-18.66,-31.069,169.102,-14.8,-5.2,-32.813,30.41,-0.13422,-0.24814,0.1813,-0.94205,639,0.693,-0.335,0.62,-0.366,0.427,0.427,-27.867,-44.346,-138.752,-25.66,-5.113,-15.913,31.51,-0.2305,0.42145,-0.07877,0.87347,647
162,0.898,-0.205,0.462,-0.061,-0.549,0.427,-21.978,-60.145,-175.331,-25.88,-9.407,-18.193,26.81,0.06067,0.49805,-0.14423,0.85287,652,0.436,-0.278,0.862,0.366,0.0,-0.122,-17.781,-25.714,-123.953,-14.98,-3.727,-10.753,28.07,0.42474,-0.26532,0.03076,-0.86496,650,0.514,-0.27,0.807,0.916,0.549,-0.427,-18.633,-31.058,169.124,-14.8,-5.2,-32.813,30.41,-0.13422,-0.24814,0.1813,-0.94205,648,0.689,-0.341,0.619,-0.427,0.366,0.732,-27.883,-44.335,-138.779,-25.66,-5.113,-15.913,31.51,-0.2305,0.42145,-0.07877,0.87347,654
163,0.896,-0.199,0.458,0.671,-0.488,0.427,-21.995,-60.156,-175.309,-25.88,-9.407,-18.193,26.81,0.06067,0.49805,-0.14423,0.85287,653,0.433,-0.286,0.865,-0.183,-0.854,0.0,-17.776,-25.719,-123.997,-14.98,-3.727,-10.753,28.07,0.42474,-0.26532,0.03076,-0.86496,651,0.51,-0.273,0.814,0.488,0.488,-0.61,-18.611,-31.053,169.129,-14.8,-5.2,-32.813,30.41,-0.13422,-0.24814,0.1813,-0.94205,649,0.688,-0.341,0.62,-0.427,-0.122,0.671,-27.911,-44.324,-138.79,-25.66,-5.113,-15.913,31.51,-0.2305,0.42145,-0.07877,0.87347,655
164,0.887,-0.194,0.459,0.732,-0.122,0.427,-22.0,-60.156,-175.292,-26.08,-9.2,-18.167,26.81,0.06067,0.49805,-0.14423,0.85287,656,0.434,-0.284,0.861,-0.061,-0.671,0.488,-17.787,-25.735,-124.025,-14.98,-3.727,-10.753,28.07,0.42474,-0.26532,0.03076,-0.86496,660,0.505,-0.273,0.82,-0.244,0.366,-0.671,-18.605,-31.047,169.14,-14.8,-5.2,-32.813,30.41,-0.13422,-0.24814,0.1813,-0.94205,658,0.689,-0.341,0.625,-0.183,-0.427,0.366,-27.933,-44.324,-138.79,-25.66,-5.113,-15.913,31.51,-0.2305,0.42145,-0.07877,0.87347,662
165,0.882,-0.195,0.464,0.061,0.427,0.244,-22.011,-60.15,-175.27,-26.08,-9.2,-18.167,26.81,0.06067,0.49805,-0.14423,0.85287,657,0.436,-0.282,0.858,-0.488,-0.305,0.793,-17.803,-25.746,-124.052,-14.98,-3.727,-10.753,28.07,0.42474,-0.26532,0.03076,-0.86496,661,0.503,-0.274,0.813,-0.671,0.0,-0.244,-18.616,-31.047,169.173,-14.8,-5.2,-32.813,30.41,-0.13422,-0.24814,0.1813,-0.94205,659,0.688,-0.341,0.627,0.183,-0.183,0.122,-27.944,-44.33,-138.79,-25.66,-5.113,-15.913,31.51,-0.2305,0.42145,-0.07877,0.87347,663
166,0.882,-0.197,0.469,-0.183,0.366,0.0,-22.017,-60.145,-175.254,-26.08,-9.2,-18.167,26.81,0.06067,0.49805,-0.14423,0.85287,664,0.433,-0.284,0.857,-0.732,0.122,0.854,-17.825,-25.741,-124.058,-14.98,-3.727,-10.753,28.07,0.42474,-0.26532,0.03076,-0.86496,670,0.504,-0.272,0.807,-1.038,-0.183,0.305,-18.638,-31.042,169.211,-14.8,-5.2,-32.813,30.41,-0.13422,-0.24814,0.1813,-0.94205,666,0.687,-0.34,0.626,0.427,0.122,0.244,-27.944,-44.324,-138.801,-25.327,-4.987,-15.873,31.51,-0.2305,0.42145,-0.07877,0.87347,672
167,0.882,-0.197,0.472,0.183,0.0,-0.183,-22.017,-60.15,-175.237,-26.08,-9.2,-18.167,26.81,0.06067,0.49805,-0.14423,0.85287,665,0.434,-0.28,0.859,-0.549,0.366,1.099,-17.847,-25.735,-124.069,-14.98,-3.727,-10.753,28.07,0.42474,-0.26532,0.03076,-0.86496,671,0.504,-0.276,0.802,-1.587,-0.122,0.549,-18.677,-31.042,169.255,-14.8,-5.2,-32.813,30.41,-0.13422,-0.24814,0.1813,-0.94205,667,0.688,-0.333,0.63,0.244,0.183,0.305,-27.949,-44.319,-138.801,-25.327,-4.987,-15.873,31.51,-0.2305,0.42145,-0.07877,0.87347,673
168,0.881,-0.194,0.476,0.549,0.0,-0.183,-22.011,-60.15,-175.221,-26.08,-9.2,-18.167,26.81,0.06027,0.49835,-0.14462,0.85263,668,0.432,-0.279,0.859,-0.183,0.549,1.038,-17.869,-25.719,-124.08,-15.107,-3.86,-11.087,28.07,0.42474,-0.26532,0.03076,-0.86496,676,0.504,-0.274,0.804,-1.465,0.061,0.732,-18.715,-31.031,169.294,-15.113,-5.187,-33.273,30.41,-0.13422,-0.24814,0.1813,-0.94205,674,0.687,-0.327,0.632,0.061,0.305,0.183,-27.949,-44.308,-138.801,-25.327,-4.987,-15.873,31.51,-0.23087,0.42123,-0.08063,0.87329,680
169,0.878,-0.192,0.478,0.549,0.122,-0.305,-21.995,-60.15,-175.226,-26.08,-9.2,-18.167,26.81,0.06027,0.49835,-0.14462,0.85263,669,0.434,-0.285,0.858,-0.061,0.183,0.549,-17.88,-25.703,-124.091,-15.107,-3.86,-11.087,28.07,0.42474,-0.26532,0.03076,-0.86496,677,0.504,-0.271,0.807,-0.916,0.122,0.916,-18.743,-31.02,169.343,-15.113,-5.187,-33.273,30.41,-0.13422,-0.24814,0.1813,-0.94205,675,0.688,-0.329,0.632,-0.061,0.549,0.0,-27.949,-44.297,-138.801,-25.327,-4.987,-15.873,31.51,-0.23087,0.42123,-0.08063,0.87329,681
170,0.879,-0.187,0.478,0.183,0.061,-0.366,-21.984,-60.15,-175.232,-26.08,-9.2,-18.167,26.81,0.06027,0.49835,-0.14462,0.85263,678,0.435,-0.281,0.86,0.488,0.488,0.122,-17.886,-25.697,-124.096,-15.107,-3.86,-11.087,28.07,0.42474,-0.26532,0.03076,-0.86496,684,0.504,-0.28,0.812,-0.61,-0.183,0.793,-18.759,-31.014,169.393,-15.113,-5.187,-33.273,30.41,-0.13116,-0.24817,0.18076,-0.94257,682,0.691,-0.33,0.626,-0.305,0.61,-0.183,-27.949,-44.286,-138.785,-25.327,-4.987,-15.873,31.51,-0.23087,0.42123,-0.08063,0.87329,692
171,0.883,-0.184,0.474,-0.122,-0.122,-0.244,-21.978,-60.156,-175.232,-26.08,-9.2,-18.167,26.81,0.06027,0.49835,-0.14462,0.85263,679,0.436,-0.273,0.862,0.244,0.732,0.122,-17.88,-25.686,-124.102,-15.107,-3.86,-11.087,28.07,0.42474,-0.26532,0.03076,-0.86496,685,0.507,-0.28,0.806,-0.122,-0.854,0.244,-18.77,-31.025,169.431,-15.113,-5.187,-33.273,30.41,-0.13116,-0.24817,0.18076,-0.94257,683,0.69,-0.333,0.624,0.122,0.732,-0.122,-27.938,-44.275,-138.763,-25.327,-4.987,-15.873,31.51,-0.23087,0.42123,-0.08063,0.87329,693
172,0.888,-0.186,0.472,-0.244,-0.305,-0.244,-21.978,-60.156,-175.243,-26.08,-9.2,-18.167,26.81,0.06027,0.49835,-0.14462,0.85263,686,0.439,-0.272,0.862,-0.488,0.61,-0.183,-17.88,-25.67,-124.107,-15.107,-3.86,-11.087,28.07,0.42087,-0.26489,0.03094,-0.86697,690,0.509,-0.271,0.807,0.0,-0.305,0.183,-18.776,-31.025,169.459,-15.113,-5.187,-33.273,30.41,-0.13116,-0.24817,0.18076,-0.94257,688,0.693,-0.328,0.625,-0.122,0.305,0.0,-27.938,-44.264,-138.735,-25.327,-4.987,-15.873,31.51,-0.23087,0.42123,-0.08063,0.87329,696
173,0.89,-0.189,0.468,-0.366,-0.122,-0.183,-21.978,-60.161,-175.243,-26.08,-9.2,-18.167,26.81,0.06027,0.49835,-0.14462,0.85263,687,0.44,-0.283,0.864,-0.549,-0.183,-0.488,-17.886,-25.664,-124.107,-15.107,-3.86,-11.087,28.07,0.42087,-0.26489,0.03094,-0.86697,691,0.511,-0.268,0.812,-0.488,-0.122,-0.061,-18.781,-31.02,169.481,-15.113,-5.187,-33.273,30.41,-0.13116,-0.24817,0.18076,-0.94257,689,0.694,-0.331,0.629,-0.427,0.0,-0.061,-27.944,-44.264,-138.713,-25.327,-4.987,-15.873,31.51,-0.23087,0.42123,-0.08063,0.87329,697
174,0.888,-0.191,0.467,-0.244,0.061,-0.183,-21.978,-60.161,-175.237,-26.08,-9.2,-18.167,26.81,0.06027,0.49835,-0.14462,0.85263,694,0.44,-0.279,0.865,-0.122,-0.305,-0.305,-17.891,-25.675,-124.118,-15.107,-3.86,-11.087,28.07,0.42087,-0.26489,0.03094,-0.86697,700,0.51,-0.275,0.816,-0.916,-0.244,-0.61,-18.792,-31.025,169.492,-15.113,-5.187,-33.273,30.41,-0.13116,-0.24817,0.18076,-0.94257,698,0.694,-0.333,0.627,-0.427,0.0,-0.122,-27.949,-44.264,-138.675,-25.327,-4.987,-15.873,31.51,-0.23087,0.42123,-0.08063,0.87329,702
175,0.889,-0.19,0.466,-0.061,-0.061,-0.183,-21.978,-60.161,-175.243,-26.08,-9.2,-18.167,26.81,0.06027,0.49835,-0.14462,0.85263,695,0.437,-0.272,0.858,0.305,-0.061,0.0,-17.891,-25.681,-124.135,-15.107,-3.86,-11.087,28.07,0.42087,-0.26489,0.03094,-0.86697,701,0.511,-0.275,0.814,-0.854,-0.305,-0.549,-18.803,-31.031,169.503,-15.113,-5.187,-33.273,30.41,-0.13116,-0.24817,0.18076,-0.94257,699,0.693,-0.332,0.625,-0.122,0.0,0.0,-27.949,-44.264,-138.642,-25.327,-4.987,-15.873,31.51,-0.23087,0.42123,-0.08063,0.87329,703
176,0.892,-0.19,0.465,-0.061,-0.244,0.0,-21.984,-60.167,-175.237,-26.08,-9.2,-18.167,26.81,0.06027,0.49835,-0.14462,0.85263,704,0.436,-0.271,0.859,0.122,-0.183,0.0,-17.886,-25.681,-124.14,-15.107,-3.86,-11.087,28.07,0.42087,-0.26489,0.03094,-0.86697,708,0.511,-0.267,0.807,-0.305,-0.061,-0.305,-18.803,-31.031,169.497,-15.113,-5.187,-33.273,30.41,-0.13116,-0.24817,0.18076,-0.94257,706,0.689,-0.331,0.623,0.0,-0.122,0.244,-27.955,-44.264,-138.609,-25.327,-4.987,-15.873,31.51,-0.23087,0.42123,-0.08063,0.87329,712
177,0.89,-0.192,0.467,-0.061,-0.244,0.183,-21.989,-60.172,-175.226,-26.08,-9.2,-18.167,26.81,0.06027,0.49835,-0.14462,0.85263,705,0.435,-0.279,0.859,0.0,-0.427,-0.061,-17.886,-25.686,-124.146,-15.107,-3.86,-11.087,28.07,0.42087,-0.26489,0.03094,-0.86697,709,0.509,-0.265,0.804,-0.244,0.244,-0.122,-18.803,-31.025,169.503,-15.113,-5.187,-33.273,30.41,-0.13116,-0.24817,0.18076,-0.94257,707,0.689,-0.333,0.625,-0.183,-0.183,0.61,-27.971,-44.264,-138.582,-25.327,-4.987,-15.873,31.51,-0.23087,0.42123,-0.08063,0.87329,713
178,0.885,-0.194,0.468,0.061,0.061,0.305,-22.0,-60.172,-175.221,-26.08,-9.2,-18.167,26.81,0.06027,0.49835,-0.14462,0.85263,710,0.434,-0.282,0.859,0.488,-0.305,0.0,-17.886,-25.697,-124.156,-15.107,-3.86,-11.087,28.07,0.42087,-0.26489,0.03094,-0.86697,714,0.506,-0.272,0.809,-0.488,0.244,-0.305,-18.803,-31.02,169.508,-15.113,-5.187,-33.273,30.41,-0.13116,-0.24817,0.18076,-0.94257,718,0.69,-0.335,0.626,-0.244,-0.122,0.549,-27.982,-44.264,-138.554,-25.327,-4.987,-15.873,31.51,-0.23087,0.42123,-0.08063,0.87329,716
179,0.883,-0.194,0.47,0.244,0.183,0.366,-22.011,-60.167,-175.204,-26.08,-9.2,-18.167,26.81,0.06027,0.49835,-0.14462,0.85263,711,0.433,-0.277,0.862,0.244,0.0,0.122,-17.88,-25.703,-124.156,-15.107,-3.86,-11.087,28.07,0.42087,-0.26489,0.03094,-0.86697,715,0.506,-0.275,0.806,0.0,0.0,-0.244,-18.798,-31.02,169.508,-15.113,-5.187,-33.273,30.41,-0.13116,-0.24817,0.18076,-0.94257,719,0.688,-0.336,0.627,-0.183,0.061,0.427,-27.993,-44.258,-138.521,-25.327,-4.987,-15.873,31.51,-0.23087,0.42123,-0.08063,0.87329,717
180,0.885,-0.192,0.472,0.305,0.0,0.305,-22.017,-60.167,-175.199,-26.08,-9.2,-18.167,26.81,0.06027,0.49835,-0.14462,0.85263,724,0.433,-0.279,0.862,-0.305,0.061,0.0,-17.88,-25.703,-124.162,-15.107,-3.86,-11.087,28.07,0.42087,-0.26489,0.03094,-0.86697,722,0.504,-0.272,0.807,0.0,0.061,0.061,-18.798,-31.014,169.514,-15.113,-5.187,-33.273,30.41,-0.13116,-0.24817,0.18076,-0.94257,720,0.687,-0.334,0.629,-0.183,0.0,0.366,-28.004,-44.253,-138.488,-25.327,-4.987,-15.873,31.51,-0.23087,0.42123,-0.08063,0.87329,726
181,0.884,-0.191,0.472,0.244,0.0,0.305,-22.022,-60.167,-175.188,-26.08,-9.2,-18.167,26.81,0.06027,0.49835,-0.14462,0.85263,725,0.433,-0.284,0.863,-0.61,-0.061,-0.183,-17.886,-25.703,-124.184,-15.107,-3.86,-11.087,28.07,0.42087,-0.26489,0.03094,-0.86697,723,0.504,-0.273,0.811,-0.366,0.122,0.183,-18.803,-31.009,169.53,-15.113,-5.187,-33.273,30.41,-0.13116,-0.24817,0.18076,-0.94257,721,0.688,-0.336,0.628,-0.183,-0.061,0.305,-28.015,-44.247,-138.45,-25.327,-4.987,-15.873,31.51,-0.23087,0.42123,-0.08063,0.87329,727
182,0.882,-0.19,0.471,0.061,0.0,0.305,-22.033,-60.161,-175.177,-26.18,-9.3,-18.527,26.81,0.06027,0.49835,-0.14462,0.85263,728,0.434,-0.28,0.862,-0.671,-0.183,-0.061,-17.902,-25.703,-124.222,-15.107,-3.86,-11.087,28.07,0.42087,-0.26489,0.03094,-0.86697,732,0.505,-0.279,0.814,-0.916,-0.061,0.061,-18.82,-31.003,169.557,-15.113,-5.187,-33.273,30.41,-0.13116,-0.24817,0.18076,-0.94257,730,0.688,-0.336,0.629,-0.366,-0.183,0.183,-28.026,-44.247,-138.411,-25.327,-4.987,-15.873,31.51,-0.23087,0.42123,-0.08063,0.87329,734
183,0.883,-0.191,0.47,-0.061,0.0,0.122,-22.044,-60.161,-175.172,-26.18,-9.3,-18.527,26.81,0.06027,0.49835,-0.14462,0.85263,729,0.435,-0.28,0.859,-1.038,0.0,0.0,-17.919,-25.703,-124.25,-15.107,-3.86,-11.087,28.07,0.42087,-0.26489,0.03094,-0.86697,733,0.505,-0.276,0.812,-0.916,-0.427,0.0,-18.842,-31.009,169.585,-15.113,-5.187,-33.273,30.41,-0.13116,-0.24817,0.18076,-0.94257,731,0.687,-0.334,0.628,-0.61,-0.183,0.061,-28.043,-44.247,-138.384,-25.327,-4.987,-15.873,31.51,-0.23087,0.42123,-0.08063,0.87329,735
184,0.884,-0.193,0.471,-0.122,-0.122,0.0,-22.05,-60.161,-175.172,-26.18,-9.3,-18.527,26.81,0.06027,0.49835,-0.14462,0.85263,736,0.438,-0.281,0.858,-0.854,-0.122,-0.122,-17.935,-25.703,-124.283,-15.107,-3.86,-11.087,28.07,0.42087,-0.26489,0.03094,-0.86697,740,0.505,-0.274,0.808,-1.038,-0.244,0.183,-18.864,-31.009,169.612,-15.133,-5.5,-33.487,30.41,-0.13116,-0.24817,0.18076,-0.94257,738,0.693,-0.333,0.627,-0.793,-0.061,0.061,-28.059,-44.247,-138.367,-25.833,-4.453,-15.173,31.51,-0.23087,0.42123,-0.08063,0.87329,746
185,0.884,-0.193,0.471,-0.244,-0.305,-0.122,-22.055,-60.167,-175.177,-26.18,-9.3,-18.527,26.81,0.06027,0.49835,-0.14462,0.85263,737,0.439,-0.281,0.856,-0.549,-0.183,0.0,-17.952,-25.708,-124.316,-15.107,-3.86,-11.087,28.07,0.42087,-0.26489,0.03094,-0.86697,741,0.509,-0.276,0.808,-1.343,-0.183,0.122,-18.891,-31.003,169.629,-15.133,-5.5,-33.487,30.41,-0.13116,-0.24817,0.18076,-0.94257,739,0.693,-0.337,0.624,-0.61,-0.061,0.0,-28.076,-44.247,-138.356,-25.833,-4.453,-15.173,31.51,-0.23087,0.42123,-0.08063,0.87329,747
186,0.887,-0.193,0.47,-0.244,-0.305,-0.183,-22.061,-60.172,-175.193,-26.18,-9.3,-18.527,26.81,0.06012,0.49854,-0.14468,0.85254,742,0.437,-0.28,0.859,-0.793,0.244,0.183,-17.968,-25.708,-124.343,-14.98,-4.06,-10.993,28.07,0.42087,-0.26489,0.03094,-0.86697,744,0.51,-0.275,0.807,-1.038,-0.488,0.0,-18.907,-31.009,169.651,-15.133,-5.5,-33.487,30.41,-0.12943,-0.24835,0.18143,-0.94263,748,0.691,-0.34,0.623,-0.305,0.183,0.183,-28.081,-44.242,-138.34,-25.833,-4.453,-15.173,31.51,-0.2341,0.42136,-0.08017,0.87244,752
187,0.892,-0.192,0.47,-0.366,-0.305,-0.061,-22.072,-60.178,-175.204,-26.18,-9.3,-18.527,26.81,0.06012,0.49854,-0.14468,0.85254,743,0.441,-0.28,0.855,-1.099,0.244,0.122,-17.99,-25.703,-124.371,-14.98,-4.06,-10.993,28.07,0.42087,-0.26489,0.03094,-0.86697,745,0.509,-0.275,0.806,-0.916,-0.61,-0.061,-18.929,-31.02,169.678,-15.133,-5.5,-33.487,30.41,-0.12943,-0.24835,0.18143,-0.94263,749,0.691,-0.335,0.623,-0.549,0.183,0.366,-28.098,-44.231,-138.334,-25.833,-4.453,-15.173,31.51,-0.2341,0.42136,-0.08017,0.87244,753
188,0.889,-0.195,0.467,-0.244,0.0,0.0,-22.077,-60.183,-175.215,-26.18,-9.3,-18.527,26.81,0.06012,0.49854,-0.14468,0.85254,750,0.442,-0.286,0.858,-0.61,0.488,0.305,-18.007,-25.692,-124.393,-14.98,-4.06,-10.993,28.07,0.42087,-0.26489,0.03094,-0.86697,756,0.513,-0.275,0.803,-1.038,-0.549,-0.183,-18.946,-31.025,169.7,-15.133,-5.5,-33.487,30.41,-0.12943,-0.24835,0.18143,-0.94263,754,0.694,-0.336,0.627,-0.305,0.061,0.305,-28.109,-44.231,-138.318,-25.833,-4.453,-15.173,31.51,-0.2341,0.42136,-0.08017,0.87244,760
189,0.886,-0.196,0.468,-0.122,0.183,0.0,-22.083,-60.178,-175.215,-26.18,-9.3,-18.527,26.81,0.06012,0.49854,-0.14468,0.85254,751,0.438,-0.281,0.858,0.244,0.427,0.732,-18.018,-25.686,-124.398,-14.98,-4.06,-10.993,28.07,0.42087,-0.26489,0.03094,-0.86697,757,0.515,-0.275,0.805,-0.366,0.122,0.244,-18.962,-31.025,169.711,-15.133,-5.5,-33.487,30.41,-0.12943,-0.24835,0.18143,-0.94263,755,0.691,-0.341,0.625,0.0,0.305,0.244,-28.114,-44.22,-138.296,-25.833,-4.453,-15.173,31.51,-0.2341,0.42136,-0.08017,0.87244,761
190,0.889,-0.193,0.467,0.122,-0.061,0.0,-22.083,-60.178,-175.21,-26.18,-9.3,-18.527,26.81,0.06012,0.49854,-0.14468,0.85254,758,0.434,-0.285,0.861,0.366,0.427,0.793,-18.018,-25.675,-124.404,-14.98,-4.06,-10.993,28.07,0.4183,-0.26541,0.03259,-0.86798,764,0.51,-0.278,0.81,0.366,0.061,0.366,-18.968,-31.02,169.733,-15.133,-5.5,-33.487,30.41,-0.12943,-0.24835,0.18143,-0.94263,762,0.688,-0.339,0.621,0.0,0.488,0.366,-28.12,-44.209,-138.279,-25.833,-4.453,-15.173,31.51,-0.2341,0.42136,-0.08017,0.87244,766
191,0.89,-0.192,0.466,0.122,-0.061,0.0,-22.088,-60.183,-175.215,-26.18,-9.3,-18.527,26.81,0.06012,0.49854,-0.14468,0.85254,759,0.435,-0.288,0.86,-0.061,-0.244,0.122,-18.018,-25.67,-124.426,-14.98,-4.06,-10.993,28.07,0.4183,-0.26541,0.03259,-0.86798,765,0.509,-0.287,0.813,0.183,0.061,0.183,-18.962,-31.014,169.744,-15.133,-5.5,-33.487,30.41,-0.12943,-0.24835,0.18143,-0.94263,763,0.688,-0.334,0.624,-0.183,0.183,0.366,-28.13,-44.203,-138.268,-25.833,-4.453,-15.173,31.51,-0.2341,0.42136,-0.08017,0.87244,767
192,0.889,-0.193,0.467,0.061,0.0,0.061,-22.094,-60.183,-175.226,-26.18,-9.3,-18.527,26.81,0.06012,0.49854,-0.14468,0.85254,768,0.435,-0.286,0.864,-0.61,-0.977,-0.488,-18.029,-25.686,-124.448,-14.98,-4.06,-10.993,28.07,0.4183,-0.26541,0.03259,-0.86798,770,0.507,-0.286,0.815,-0.549,-0.061,-0.244,-18.968,-31.014,169.744,-15.133,-5.5,-33.487,30.52,-0.12943,-0.24835,0.18143,-0.94263,776,0.687,-0.333,0.627,-0.366,-0.122,0.061,-28.141,-44.203,-138.257,-25.833,-4.453,-15.173,31.51,-0.2341,0.42136,-0.08017,0.87244,774
193,0.884,-0.192,0.469,0.122,0.183,0.061,-22.094,-60.178,-175.237,-26.18,-9.3,-18.527,26.81,0.06012,0.49854,-0.14468,0.85254,769,0.436,-0.286,0.86,-0.549,-0.854,-0.549,-18.04,-25.708,-124.475,-14.98,-4.06,-10.993,28.07,0.4183,-0.26541,0.03259,-0.86798,771,0.505,-0.28,0.81,-0.854,-0.183,-0.488,-18.973,-31.014,169.739,-15.133,-5.5,-33.487,30.52,-0.12943,-0.24835,0.18143,-0.94263,777,0.688,-0.337,0.627,-0.305,-0.305,-0.244,-28.147,-44.209,-138.257,-25.833,-4.453,-15.173,31.51,-0.2341,0.42136,-0.08017,0.87244,775
194,0.881,-0.19,0.468,0.0,0.183,0.0,-22.094,-60.178,-175.237,-26.18,-9.3,-18.527,26.81,0.06012,0.49854,-0.14468,0.85254,772,0.437,-0.285,0.857,-0.427,-0.61,-0.427,-18.051,-25.724,-124.503,-14.98,-4.06,-10.993,28.07,0.4183,-0.26541,0.03259,-0.86798,780,0.506,-0.279,0.805,-0.854,-0.061,-0.244,-18.99,-31.014,169.739,-15.133,-5.5,-33.487,30.52,-0.12943,-0.24835,0.18143,-0.94263,778,0.689,-0.338,0.628,0.061,-0.305,-0.366,-28.141,-44.22,-138.257,-25.833,-4.453,-15.173,31.51,-0.2341,0.42136,-0.08017,0.87244,782
195,0.882,-0.189,0.469,-0.061,-0.244,-0.061,-22.099,-60.183,-175.237,-26.18,-9.3,-18.527,26.81,0.06012,0.49854,-0.14468,0.85254,773,0.438,-0.282,0.854,0.0,-0.305,-0.366,-18.056,-25.735,-124.525,-14.98,-4.06,-10.993,28.07,0.4183,-0.26541,0.03259,-0.86798,781,0.507,-0.277,0.8,-0.488,0.0,-0.061,-19.001,-31.014,169.739,-15.133,-5.5,-33.487,30.52,-0.12943,-0.24835,0.18143,-0.94263,779,0.69,-0.335,0.627,0.122,-0.183,-0.305,-28.136,-44.225,-138.257,-25.833,-4.453,-15.173,31.51,-0.2341,0.42136,-0.08017,0.87244,783
196,0.883,-0.192,0.472,0.0,-0.183,-0.061,-22.099,-60.189,-175.237,-26.18,-9.3,-18.527,26.81,0.06012,0.49854,-0.14468,0.85254,784,0.439,-0.28,0.856,0.305,0.0,-0.427,-18.051,-25.741,-124.536,-14.98,-4.06,-10.993,28.07,0.4183,-0.26541,0.03259,-0.86798,786,0.509,-0.277,0.801,-0.122,0.122,-0.183,-19.012,-31.009,169.739,-15.133,-5.5,-33.487,30.52,-0.12943,-0.24835,0.18143,-0.94263,788,0.692,-0.333,0.625,-0.061,0.0,-0.244,-28.136,-44.225,-138.263,-25.833,-4.453,-15.173,31.51,-0.2341,0.42136,-0.08017,0.87244,792
197,0.884,-0.193,0.475,0.0,0.0,0.0,-22.104,-60.189,-175.237,-26.18,-9.3,-18.527,26.81,0.06012,0.49854,-0.14468,0.85254,785,0.438,-0.276,0.857,0.366,0.183,-0.305,-18.045,-25.741,-124.552,-14.98,-4.06,-10.993,28.07,0.4183,-0.26541,0.03259,-0.86798,787,0.51,-0.273,0.805,0.183,0.0,-0.427,-19.012,-31.009,169.744,-15.133,-5.5,-33.487,30.52,-0.12943,-0.24835,0.18143,-0.94263,789,0.693,-0.334,0.626,-0.244,0.183,-0.122,-28.136,-44.22,-138.263,-25.833,-4.453,-15.173,31.51,-0.2341,0.42136,-0.08017,0.87244,793
198,0.887,-0.192,0.473,0.061,-0.061,-0.061,-22.099,-60.189,-175.243,-26.18,-9.3,-18.527,26.81,0.06012,0.49854,-0.14468,0.85254,790,0.438,-0.274,0.858,0.061,0.549,-0.061,-18.04,-25.735,-124.557,-14.98,-4.06,-10.993,28.07,0.4183,-0.26541,0.03259,-0.86798,796,0.51,-0.268,0.806,0.427,-0.061,-0.488,-19.001,-31.009,169.75,-15.133,-5.5,-33.487,30.52,-0.12943,-0.24835,0.18143,-0.94263,794,0.691,-0.335,0.627,-0.244,0.366,0.0,-28.141,-44.214,-138.268,-25.833,-4.453,-15.173,31.51,-0.2341,0.42136,-0.08017,0.87244,800
199,0.89,-0.19,0.472,0.0,-0.122,0.0,-22.104,-60.189,-175.254,-26.18,-9.3,-18.527,26.81,0.06012,0.49854,-0.14468,0.85254,791,0.438,-0.278,0.862,-0.183,0.61,-0.061,-18.04,-25.724,-124.568,-14.98,-4.06,-10.993,28.07,0.4183,-0.26541,0.03259,-0.86798,797,0.51,-0.271,0.809,0.0,0.061,-0.549,-18.984,-31.009,169.75,-15.133,-5.5,-33.487,30.52,-0.12943,-0.24835,0.18143,-0.94263,795,0.689,-0.333,0.628,-0.305,0.305,0.122,-28.147,-44.209,-138.285,-25.833,-4.453,-15.173,31.51,-0.2341,0.42136,-0.08017,0.87244,801
200,0.888,-0.192,0.469,-0.122,0.0,0.122,-22.11,-60.189,-175.254,-25.987,-9.447,-18.62,26.81,0.06012,0.49854,-0.14468,0.85254,804,0.438,-0.286,0.861,-0.183,0.244,0.122,-18.04,-25.719,-124.585,-14.98,-4.06,-10.993,28.07,0.4183,-0.26541,0.03259,-0.86798,802,0.509,-0.276,0.813,-0.183,0.366,-0.427,-18.979,-31.009,169.75,-15.133,-5.5,-33.487,30.52,-0.12943,-0.24835,0.18143,-0.94263,798,0.689,-0.337,0.624,-0.122,0.305,0.0,-28.147,-44.203,-138.29,-25.567,-4.6,-15.827,31.51,-0.2341,0.42136,-0.08017,0.87244,806
201,0.885,-0.192,0.466,-0.122,-0.061,0.061,-22.115,-60.189,-175.259,-25.987,-9.447,-18.62,26.81,0.06012,0.49854,-0.14468,0.85254,805,0.438,-0.288,0.86,-0.183,-0.061,0.244,-18.045,-25.719,-124.59,-14.98,-4.06,-10.993,28.07,0.4183,-0.26541,0.03259,-0.86798,803,0.509,-0.282,0.812,-0.61,0.0,-0.061,-18.979,-31.003,169.761,-15.133,-5.5,-33.487,30.52,-0.12943,-0.24835,0.18143,-0.94263,799,0.691,-0.341,0.623,0.0,0.183,0.0,-28.147,-44.198,-138.301,-25.567,-4.6,-15.827,31.51,-0.2341,0.42136,-0.08017,0.87244,807
202,0.887,-0.193,0.466,-0.122,-0.061,0.061,-22.126,-60.189,-175.259,-25.987,-9.447,-18.62,26.81,0.06104,0.49854,-0.14554,0.85233,808,0.435,-0.287,0.858,-0.122,-0.183,0.183,-18.056,-25.719,-124.612,-14.98,-4.06,-10.993,28.07,0.4183,-0.26541,0.03259,-0.86798,812,0.507,-0.282,0.808,-0.61,-0.122,0.0,-18.99,-31.003,169.772,-15.133,-5.5,-33.487,30.52,-0.12943,-0.24835,0.18143,-0.94263,810,0.69,-0.341,0.623,-0.061,0.061,-0.122,-28.147,-44.198,-138.301,-25.567,-4.6,-15.827,31.51,-0.2341,0.42136,-0.08017,0.87244,814
203,0.891,-0.194,0.466,-0.122,-0.122,0.0,-22.132,-60.194,-175.265,-25.987,-9.447,-18.62,26.81,0.06104,0.49854,-0.14554,0.85233,809,0.437,-0.283,0.856,-0.061,-0.183,0.061,-18.062,-25.724,-124.612,-14.98,-4.06,-10.993,28.07,0.4183,-0.26541,0.03259,-0.86798,813,0.506,-0.279,0.804,-0.427,0.0,0.122,-19.001,-31.003,169.788,-15.133,-5.5,-33.487,30.52,-0.12943,-0.24835,0.18143,-0.94263,811,0.692,-0.336,0.623,0.0,0.0,-0.122,-28.147,-44.198,-138.318,-25.567,-4.6,-15.827,31.51,-0.2341,0.42136,-0.08017,0.87244,815
204,0.89,-0.196,0.466,0.0,-0.061,-0.061,-22.132,-60.194,-175.27,-25.987,-9.447,-18.62,26.81,0.06104,0.49854,-0.14554,0.85233,816,0.439,-0.284,0.857,0.0,-0.061,-0.183,-18.062,-25.73,-124.601,-15.293,-3.68,-10.427,28.07,0.4183,-0.26541,0.03259,-0.86798,822,0.508,-0.279,0.805,-0.244,0.0,0.061,-19.012,-30.998,169.799,-14.88,-5.16,-33.4,30.52,-0.12943,-0.24835,0.18143,-0.94263,818,0.692,-0.337,0.625,0.122,0.0,-0.061,-28.147,-44.203,-138.323,-25.567,-4.6,-15.827,31.51,-0.23422,0.4212,-0.08072,0.87241,824
205,0.883,-0.194,0.466,-0.061,0.122,-0.183,-22.132,-60.194,-175.292,-25.987,-9.447,-18.62,26.81,0.06104,0.49854,-0.14554,0.85233,817,0.439,-0.279,0.861,0.183,0.0,0.0,-18.062,-25.73,-124.596,-15.293,-3.68,-10.427,28.07,0.4183,-0.26541,0.03259,-0.86798,823,0.51,-0.275,0.808,-0.061,-0.183,0.0,-19.012,-30.998,169.81,-14.88,-5.16,-33.4,30.52,-0.12943,-0.24835,0.18143,-0.94263,819,0.691,-0.337,0.628,0.183,0.183,0.305,-28.147,-44.203,-138.318,-25.567,-4.6,-15.827,31.51,-0.23422,0.4212,-0.08072,0.87241,825
206,0.884,-0.193,0.469,0.061,0.122,-0.061,-22.132,-60.194,-175.309,-25.987,-9.447,-18.62,26.81,0.06104,0.49854,-0.14554,0.85233,820,0.439,-0.275,0.86,0.61,0.244,0.366,-18.056,-25.73,-124.612,-15.293,-3.68,-10.427,28.07,0.41644,-0.26578,0.03326,-0.86874,834,0.51,-0.269,0.806,0.549,-0.305,-0.061,-19.012,-30.998,169.832,-14.88,-5.16,-33.4,30.52,-0.12814,-0.24841,0.18188,-0.94269,826,0.691,-0.333,0.628,0.122,0.183,0.427,-28.147,-44.193,-138.307,-25.567,-4.6,-15.827,31.51,-0.23422,0.4212,-0.08072,0.87241,830
207,0.888,-0.193,0.47,0.061,0.0,0.061,-22.132,-60.194,-175.32,-25.987,-9.447,-18.62,26.81,0.06104,0.49854,-0.14554,0.85233,821,0.436,-0.275,0.859,0.305,0.488,0.671,-18.051,-25.719,-124.629,-15.293,-3.68,-10.427,28.07,0.41644,-0.26578,0.03326,-0.86874,835,0.51,-0.269,0.807,0.488,0.0,0.061,-19.001,-30.998,169.854,-14.88,-5.16,-33.4,30.52,-0.12814,-0.24841,0.18188,-0.94269,827,0.686,-0.334,0.625,0.183,0.366,0.488,-28.152,-44.187,-138.296,-25.567,-4.6,-15.827,31.51,-0.23422,0.4212,-0.08072,0.87241,831
208,0.889,-0.194,0.471,0.061,0.061,0.0,-22.137,-60.194,-175.331,-25.987,-9.447,-18.62,26.81,0.06104,0.49854,-0.14554,0.85233,828,0.433,-0.277,0.86,-0.122,0.488,0.61,-18.056,-25.708,-124.645,-15.293,-3.68,-10.427,28.07,0.41644,-0.26578,0.03326,-0.86874,842,0.509,-0.272,0.81,0.0,0.122,0.061,-18.99,-30.998,169.865,-14.88,-5.16,-33.4,30.52,-0.12814,-0.24841,0.18188,-0.94269,832,0.684,-0.334,0.626,0.0,0.305,0.488,-28.152,-44.176,-138.296,-25.567,-4.6,-15.827,31.51,-0.23422,0.4212,-0.08072,0.87241,836
209,0.886,-0.193,0.471,0.244,0.0,0.0,-22.132,-60.194,-175.342,-25.987,-9.447,-18.62,26.81,0.06104,0.49854,-0.14554,0.85233,829,0.433,-0.285,0.861,-0.732,0.0,0.244,-18.067,-25.703,-124.656,-15.293,-3.68,-10.427,28.07,0.41644,-0.26578,0.03326,-0.86874,843,0.505,-0.278,0.814,-0.61,0.0,-0.183,-18.99,-30.992,169.876,-14.88,-5.16,-33.4,30.52,-0.12814,-0.24841,0.18188,-0.94269,833,0.687,-0.335,0.627,-0.305,-0.061,0.183,-28.163,-44.171,-138.29,-25.567,-4.6,-15.827,31.51,-0.23422,0.4212,-0.08072,0.87241,837
210,0.882,-0.19,0.469,0.183,0.0,0.0,-22.132,-60.194,-175.353,-25.987,-9.447,-18.62,26.81,0.06104,0.49854,-0.14554,0.85233,838,0.434,-0.292,0.859,-0.916,-0.549,0.0,-18.083,-25.708,-124.667,-15.293,-3.68,-10.427,28.07,0.41644,-0.26578,0.03326,-0.86874,846,0.505,-0.286,0.812,-0.977,-0.122,-0.183,-19.001,-30.992,169.893,-14.88,-5.16,-33.4,30.52,-0.12814,-0.24841,0.18188,-0.94269,840,0.688,-0.338,0.628,-0.366,-0.244,-0.183,-28.169,-44.171,-138.29,-25.567,-4.6,-15.827,31.51,-0.23422,0.4212,-0.08072,0.87241,844
211,0.882,-0.189,0.468,0.061,0.0,0.0,-22.132,-60.194,-175.364,-25.987,-9.447,-18.62,26.81,0.06104,0.49854,-0.14554,0.85233,839,0.437,-0.291,0.859,-0.793,-0.671,-0.183,-18.105,-25.724,-124.684,-15.293,-3.68,-10.427,28.07,0.41644,-0.26578,0.03326,-0.86874,847,0.504,-0.286,0.808,-1.343,-0.061,0.0,-19.023,-30.992,169.92,-14.88,-5.16,-33.4,30.52,-0.12814,-0.24841,0.18188,-0.94269,841,0.691,-0.338,0.627,-0.244,-0.183,-0.305,-28.174,-44.176,-138.296,-25.567,-4.6,-15.827,31.51,-0.23422,0.4212,-0.08072,0.87241,845
212,0.882,-0.19,0.468,0.0,0.0,0.0,-22.137,-60.194,-175.375,-25.987,-9.447,-18.62,26.81,0.06104,0.49854,-0.14554,0.85233,848,0.439,-0.287,0.854,-0.183,-0.305,-0.244,-18.111,-25.73,-124.711,-15.293,-3.68,-10.427,28.07,0.41644,-0.26578,0.03326,-0.86874,854,0.508,-0.283,0.802,-0.977,-0.244,0.0,-19.045,-30.992,169.937,-14.88,-5.16,-33.4,30.52,-0.12814,-0.24841,0.18188,-0.94269,850,0.691,-0.336,0.624,-0.061,0.0,-0.183,-28.18,-44.176,-138.301,-25.567,-4.6,-15.827,31.51,-0.23422,0.4212,-0.08072,0.87241,856
213,0.885,-0.192,0.468,-0.244,-0.122,0.0,-22.143,-60.2,-175.386,-25.987,-9.447,-18.62,26.81,0.06104,0.49854,-0.14554,0.85233,849,0.438,-0.281,0.854,0.549,0.244,-0.183,-18.105,-25.73,-124.744,-15.293,-3.68,-10.427,28.07,0.41644,-0.26578,0.03326,-0.86874,855,0.51,-0.277,0.798,0.0,-0.488,0.0,-19.061,-30.992,169.958,-14.88,-5.16,-33.4,30.52,-0.12814,-0.24841,0.18188,-0.94269,851,0.69,-0.332,0.625,-0.061,0.122,0.0,-28.174,-44.176,-138.307,-25.567,-4.6,-15.827,31.51,-0.23422,0.4212,-0.08072,0.87241,857
214,0.888,-0.193,0.47,-0.244,-0.122,0.0,-22.154,-60.2,-175.391,-25.987,-9.447,-18.62,26.81,0.06104,0.49854,-0.14554,0.85233,852,0.438,-0.275,0.856,0.549,0.61,-0.183,-18.094,-25.724,-124.777,-15.293,-3.68,-10.427,28.07,0.41644,-0.26578,0.03326,-0.86874,860,0.511,-0.272,0.8,0.61,-0.366,-0.061,-19.061,-30.998,169.986,-14.88,-5.16,-33.4,30.52,-0.12814,-0.24841,0.18188,-0.94269,858,0.693,-0.333,0.626,-0.183,0.244,0.122,-28.18,-44.176,-138.312,-25.567,-4.6,-15.827,31.51,-0.23422,0.4212,-0.08072,0.87241,864
215,0.887,-0.193,0.472,0.0,-0.061,0.0,-22.154,-60.2,-175.402,-25.987,-9.447,-18.62,26.81,0.06104,0.49854,-0.14554,0.85233,853,0.44,-0.278,0.86,0.366,0.732,-0.305,-18.083,-25.714,-124.816,-15.293,-3.68,-10.427,28.07,0.41644,-0.26578,0.03326,-0.86874,861,0.513,-0.273,0.809,0.488,-0.061,-0.366,-19.05,-31.003,170.013,-14.88,-5.16,-33.4,30.52,-0.12814,-0.24841,0.18188,-0.94269,859,0.691,-0.337,0.626,-0.305,0.244,0.061,-28.18,-44.171,-138.318,-25.567,-4.6,-15.827,31.51,-0.23422,0.4212,-0.08072,0.87241,865
216,0.886,-0.193,0.471,0.061,0.061,0.0,-22.154,-60.2,-175.413,-25.987,-9.447,-18.62,26.81,0.06104,0.49854,-0.14554,0.85233,862,0.44,-0.283,0.863,-0.183,0.122,-0.183,-18.083,-25.708,-124.849,-15.293,-3.68,-10.427,28.07,0.41644,-0.26578,0.03326,-0.86874,866,0.512,-0.276,0.816,0.0,-0.244,-0.671,-19.039,-31.003,170.024,-14.88,-5.16,-33.4,30.52,-0.12814,-0.24841,0.18188,-0.94269,868,0.69,-0.341,0.626,-0.183,0.244,0.122,-28.185,-44.165,-138.318,-25.567,-4.6,-15.827,31.51,-0.23422,0.4212,-0.08072,0.87241,870
217,0.888,-0.191,0.47,0.0,0.0,0.0,-22.154,-60.2,-175.424,-25.987,-9.447,-18.62,26.81,0.06104,0.49854,-0.14554,0.85233,863,0.437,-0.287,0.858,0.0,-0.183,0.061,-18.083,-25.714,-124.871,-15.293,-3.68,-10.427,28.07,0.41644,-0.26578,0.03326,-0.86874,867,0.51,-0.278,0.811,-0.061,-0.427,-0.549,-19.028,-31.014,170.03,-14.88,-5.16,-33.4,30.52,-0.12814,-0.24841,0.18188,-0.94269,869,0.688,-0.339,0.623,-0.122,0.305,0.122,-28.191,-44.16,-138.323,-25.567,-4.6,-15.827,31.51,-0.23422,0.4212,-0.08072,0.87241,871
218,0.889,-0.191,0.467,0.0,-0.061,0.0,-22.159,-60.2,-175.435,-25.773,-9.36,-18.313,26.81,0.06104,0.49854,-0.14554,0.85233,876,0.438,-0.284,0.859,0.061,-0.122,0.061,-18.089,-25.719,-124.893,-15.293,-3.68,-10.427,28.07,0.41644,-0.26578,0.03326,-0.86874,874,0.511,-0.279,0.803,-0.244,-0.061,-0.183,-19.028,-31.02,170.035,-14.867,-5.32,-33.22,30.52,-0.12814,-0.24841,0.18188,-0.94269,872,0.689,-0.339,0.625,0.305,0.061,0.0,-28.191,-44.154,-138.329,-25.747,-4.567,-15.793,31.51,-0.23422,0.4212,-0.08072,0.87241,878
219,0.887,-0.194,0.465,-0.122,0.0,0.0,-22.159,-60.2,-175.446,-25.773,-9.36,-18.313,26.81,0.06104,0.49854,-0.14554,0.85233,877,0.438,-0.286,0.859,0.061,-0.122,0.0,-18.089,-25.719,-124.92,-15.293,-3.68,-10.427,28.07,0.41644,-0.26578,0.03326,-0.86874,875,0.509,-0.28,0.806,-0.427,0.549,0.0,-19.028,-31.014,170.041,-14.867,-5.32,-33.22,30.52,-0.12814,-0.24841,0.18188,-0.94269,873,0.689,-0.342,0.622,0.549,0.122,-0.183,-28.185,-44.154,-138.334,-25.747,-4.567,-15.793,31.51,-0.23422,0.4212,-0.08072,0.87241,879
220,0.887,-0.196,0.465,-0.061,0.0,0.0,-22.165,-60.2,-175.457,-25.773,-9.36,-18.313,26.81,0.06268,0.49835,-0.14667,0.85211,880,0.438,-0.294,0.859,0.061,-0.488,-0.183,-18.089,-25.73,-124.942,-15.293,-3.68,-10.427,28.07,0.41644,-0.26578,0.03326,-0.86874,884,0.509,-0.288,0.811,-0.427,0.366,0.061,-19.034,-31.003,170.035,-14.867,-5.32,-33.22,30.52,-0.12814,-0.24841,0.18188,-0.94269,882,0.69,-0.34,0.623,0.122,0.0,-0.183,-28.174,-44.154,-138.34,-25.747,-4.567,-15.793,31.51,-0.23422,0.4212,-0.08072,0.87241,886
221,0.886,-0.195,0.466,0.122,0.0,0.0,-22.165,-60.2,-175.463,-25.773,-9.36,-18.313,26.81,0.06268,0.49835,-0.14667,0.85211,881,0.438,-0.288,0.859,0.0,-0.854,-0.366,-18.089,-25.746,-124.969,-15.293,-3.68,-10.427,28.07,0.41644,-0.26578,0.03326,-0.86874,885,0.509,-0.286,0.81,-0.244,0.0,0.0,-19.045,-30.998,170.046,-14.867,-5.32,-33.22,30.52,-0.12814,-0.24841,0.18188,-0.94269,883,0.69,-0.336,0.628,-0.427,-0.244,-0.183,-28.174,-44.154,-138.345,-25.747,-4.567,-15.793,31.51,-0.23422,0.4212,-0.08072,0.87241,887
222,0.888,-0.195,0.467,0.183,0.061,0.0,-22.165,-60.2,-175.474,-25.773,-9.36,-18.313,26.81,0.06268,0.49835,-0.14667,0.85211,888,0.437,-0.283,0.857,0.366,-0.916,-0.488,-18.089,-25.768,-124.997,-14.927,-3.673,-10.38,28.07,0.41644,-0.26578,0.03326,-0.86874,894,0.507,-0.279,0.805,0.183,-0.366,-0.183,-19.05,-30.998,170.079,-14.867,-5.32,-33.22,30.52,-0.1265,-0.24875,0.18164,-0.94287,890,0.689,-0.334,0.628,-0.427,-0.305,-0.122,-28.185,-44.16,-138.351,-25.747,-4.567,-15.793,31.51,-0.23404,0.4209,-0.08118,0.87256,896
223,0.884,-0.195,0.47,0.061,0.061,0.0,-22.17,-60.2,-175.485,-25.773,-9.36,-18.313,26.81,0.06268,0.49835,-0.14667,0.85211,889,0.438,-0.277,0.857,0.305,-0.366,-0.488,-18.083,-25.779,-125.03,-14.927,-3.673,-10.38,28.07,0.41644,-0.26578,0.03326,-0.86874,895,0.508,-0.272,0.803,0.244,-0.183,-0.183,-19.045,-31.003,170.096,-14.867,-5.32,-33.22,30.52,-0.1265,-0.24875,0.18164,-0.94287,891,0.689,-0.336,0.628,-0.061,-0.305,-0.183,-28.191,-44.165,-138.351,-25.747,-4.567,-15.793,31.51,-0.23404,0.4209,-0.08118,0.87256,897
224,0.882,-0.191,0.469,-0.183,0.061,0.0,-22.176,-60.2,-175.496,-25.773,-9.36,-18.313,26.81,0.06268,0.49835,-0.14667,0.85211,892,0.438,-0.277,0.858,0.0,0.061,-0.244,-18.078,-25.785,-125.057,-14.927,-3.673,-10.38,28.07,0.41287,-0.26617,0.03427,-0.8703,902,0.509,-0.271,0.804,0.061,0.0,-0.305,-19.039,-31.003,170.079,-14.867,-5.32,-33.22,30.52,-0.1265,-0.24875,0.18164,-0.94287,898,0.689,-0.337,0.628,0.061,0.061,-0.061,-28.191,-44.171,-138.356,-25.747,-4.567,-15.793,31.51,-0.23404,0.4209,-0.08118,0.87256,904
225,0.883,-0.19,0.472,0.061,0.0,0.0,-22.181,-60.2,-175.507,-25.773,-9.36,-18.313,26.81,0.06268,0.49835,-0.14667,0.85211,893,0.438,-0.277,0.858,-0.305,0.305,0.0,-18.083,-25.779,-125.085,-14.927,-3.673,-10.38,28.07,0.41287,-0.26617,0.03427,-0.8703,903,0.509,-0.27,0.807,-0.244,0.122,-0.244,-19.034,-31.003,170.035,-14.867,-5.32,-33.22,30.52,-0.1265,-0.24875,0.18164,-0.94287,899,0.69,-0.335,0.628,-0.183,0.244,0.061,-28.196,-44.165,-138.362,-25.747,-4.567,-15.793,31.51,-0.23404,0.4209,-0.08118,0.87256,905
226,0.885,-0.192,0.472,0.122,0.0,0.0,-22.181,-60.2,-175.518,-25.773,-9.36,-18.313,26.81,0.06268,0.49835,-0.14667,0.85211,900,0.438,-0.28,0.858,-0.366,0.244,0.305,-18.094,-25.774,-125.101,-14.927,-3.673,-10.38,28.07,0.41287,-0.26617,0.03427,-0.8703,910,0.509,-0.271,0.809,-0.488,0.122,-0.183,-19.039,-31.003,169.997,-14.867,-5.32,-33.22,30.52,-0.1265,-0.24875,0.18164,-0.94287,906,0.689,-0.334,0.626,-0.183,0.366,0.122,-28.196,-44.16,-138.367,-25.747,-4.567,-15.793,31.51,-0.23404,0.4209,-0.08118,0.87256,908
227,0.887,-0.194,0.472,0.0,-0.061,0.0,-22.181,-60.2,-175.523,-25.773,-9.36,-18.313,26.81,0.06268,0.49835,-0.14667,0.85211,901,0.437,-0.281,0.859,-0.305,0.122,0.488,-18.105,-25.768,-125.118,-14.927,-3.673,-10.38,28.07,0.41287,-0.26617,0.03427,-0.8703,911,0.508,-0.274,0.809,-0.61,0.0,0.061,-19.045,-30.998,169.98,-14.867,-5.32,-33.22,30.52,-0.1265,-0.24875,0.18164,-0.94287,907,0.689,-0.335,0.625,0.0,0.366,0.061,-28.196,-44.154,-138.373,-25.747,-4.567,-15.793,31.51,-0.23404,0.4209,-0.08118,0.87256,909
228,0.887,-0.192,0.469,-0.061,-0.122,0.0,-22.187,-60.2,-175.534,-25.773,-9.36,-18.313,26.81,0.06268,0.49835,-0.14667,0.85211,914,0.439,-0.285,0.858,-0.183,0.0,0.366,-18.111,-25.768,-125.134,-14.927,-3.673,-10.38,28.07,0.41287,-0.26617,0.03427,-0.8703,916,0.51,-0.279,0.806,-0.427,-0.244,0.183,-19.056,-30.998,169.98,-14.867,-5.32,-33.22,30.52,-0.1265,-0.24875,0.18164,-0.94287,912,0.69,-0.335,0.624,-0.061,0.183,0.061,-28.196,-44.149,-138.373,-25.747,-4.567,-15.793,31.51,-0.23404,0.4209,-0.08118,0.87256,918
229,0.888,-0.191,0.467,-0.061,-0.061,0.0,-22.187,-60.205,-175.54,-25.773,-9.36,-18.313,26.81,0.06268,0.49835,-0.14667,0.85211,915,0.439,-0.286,0.854,-0.061,0.061,0.183,-18.116,-25.768,-125.151,-14.927,-3.673,-10.38,28.07,0.41287,-0.26617,0.03427,-0.8703,917,0.509,-0.283,0.802,-0.366,-0.244,0.244,-19.061,-30.998,169.991,-14.867,-5.32,-33.22,30.52,-0.1265,-0.24875,0.18164,-0.94287,913,0.691,-0.336,0.625,0.0,0.0,0.0,-28.196,-44.143,-138.378,-25.747,-4.567,-15.793,31.51,-0.23404,0.4209,-0.08118,0.87256,919
230,0.887,-0.193,0.466,0.0,0.061,0.0,-22.192,-60.205,-175.551,-25.773,-9.36,-18.313,26.81,0.06268,0.49835,-0.14667,0.85211,922,0.441,-0.287,0.858,0.366,0.244,0.0,-18.116,-25.763,-125.173,-14.927,-3.673,-10.38,28.07,0.41287,-0.26617,0.03427,-0.8703,926,0.511,-0.281,0.802,0.122,0.0,0.183,-19.072,-30.998,169.997,-14.867,-5.32,-33.22,30.52,-0.1265,-0.24875,0.18164,-0.94287,920,0.693,-0.338,0.625,0.183,0.061,-0.122,-28.196,-44.143,-138.384,-25.747,-4.567,-15.793,31.51,-0.23404,0.4209,-0.08118,0.87256,924
