Index,L5_Acceleration X(g),L5_Acceleration Y(g),L5_Acceleration Z(g),L5_Angular velocity X(°/s),L5_Angular velocity Y(°/s),L5_Angular velocity Z(°/s),L5_Angle X(°),L5_Angle Y(°),L5_Angle Z(°),L5_Magnetic field X(ʯt),L5_Magnetic field Y(ʯt),L5_Magnetic field Z(ʯt),L5_Temperature(℃),L5_Quaternions 0(),L5_Quaternions 1(),L5_Quaternions 2(),L5_Quaternions 3(),L5___orig_idx,T4_Acceleration X(g),T4_Acceleration Y(g),T4_Acceleration Z(g),T4_Angular velocity X(°/s),T4_Angular velocity Y(°/s),T4_Angular velocity Z(°/s),T4_Angle X(°),T4_Angle Y(°),T4_Angle Z(°),T4_Magnetic field X(ʯt),T4_Magnetic field Y(ʯt),T4_Magnetic field Z(ʯt),T4_Temperature(℃),T4_Quaternions 0(),T4_Quaternions 1(),T4_Quaternions 2(),T4_Quaternions 3(),T4___orig_idx,C7_Acceleration X(g),C7_Acceleration Y(g),C7_Acceleration Z(g),C7_Angular velocity X(°/s),C7_Angular velocity Y(°/s),C7_Angular velocity Z(°/s),C7_Angle X(°),C7_Angle Y(°),C7_Angle Z(°),C7_Magnetic field X(ʯt),C7_Magnetic field Y(ʯt),C7_Magnetic field Z(ʯt),C7_Temperature(℃),C7_Quaternions 0(),C7_Quaternions 1(),C7_Quaternions 2(),C7_Quaternions 3(),C7___orig_idx,T12_Acceleration X(g),T12_Acceleration Y(g),T12_Acceleration Z(g),T12_Angular velocity X(°/s),T12_Angular velocity Y(°/s),T12_Angular velocity Z(°/s),T12_Angle X(°),T12_Angle Y(°),T12_Angle Z(°),T12_Magnetic field X(ʯt),T12_Magnetic field Y(ʯt),T12_Magnetic field Z(ʯt),T12_Temperature(℃),T12_Quaternions 0(),T12_Quaternions 1(),T12_Quaternions 2(),T12_Quaternions 3(),T12___orig_idx
0,1.006,-0.173,-0.076,-0.183,0.0,0.061,-113.714,-79.294,-96.652,-28.013,-11.58,-6.887,30.26,0.11905,0.68924,-0.24942,0.66965,0,0.721,-0.146,0.688,-0.061,0.183,0.0,-11.882,-45.775,-117.274,-22.26,-6.64,-3.6,28.04,0.44232,-0.38043,-0.12006,-0.80319,2,0.401,-0.203,0.892,0.0,0.0,0.0,-12.854,-23.741,173.145,-11.96,-6.407,-33.267,30.93,-0.08047,-0.19763,0.12152,-0.96933,10,0.971,-0.137,0.125,-0.183,-0.122,0.0,-47.159,-79.2,-140.466,-30.067,-12.253,-5.647,32.46,-0.00098,-0.65375,0.09225,-0.75098,4
1,1.005,-0.173,-0.076,-0.244,-0.061,0.061,-113.719,-79.294,-96.652,-28.013,-11.58,-6.887,30.26,0.11905,0.68924,-0.24942,0.66965,1,0.72,-0.146,0.689,-0.183,0.0,0.0,-11.882,-45.775,-117.274,-22.26,-6.64,-3.6,28.04,0.44232,-0.38043,-0.12006,-0.80319,3,0.402,-0.2,0.891,-0.183,0.244,0.0,-12.854,-23.741,173.123,-11.96,-6.407,-33.267,30.93,-0.08047,-0.19763,0.12152,-0.96933,11,0.971,-0.135,0.124,0.0,0.0,0.0,-47.17,-79.2,-140.46,-30.067,-12.253,-5.647,32.46,-0.00098,-0.65375,0.09225,-0.75098,5
2,1.006,-0.173,-0.076,-0.427,-0.061,0.061,-113.73,-79.294,-96.652,-28.013,-11.58,-6.887,30.26,0.11905,0.68924,-0.24942,0.66965,8,0.722,-0.143,0.688,-0.122,0.0,0.0,-11.887,-45.775,-117.274,-22.88,-6.447,-3.94,28.04,0.44232,-0.38043,-0.12006,-0.80319,6,0.404,-0.201,0.888,-0.183,0.061,0.0,-12.859,-23.736,173.095,-11.96,-6.407,-33.267,30.93,-0.08047,-0.19763,0.12152,-0.96933,16,0.971,-0.136,0.124,-0.061,0.0,0.0,-47.175,-79.2,-140.46,-30.393,-12.32,-5.407,32.46,-0.00098,-0.65375,0.09225,-0.75098,12
3,1.006,-0.172,-0.076,-0.244,-0.061,0.061,-113.741,-79.294,-96.647,-28.013,-11.58,-6.887,30.26,0.11905,0.68924,-0.24942,0.66965,9,0.723,-0.143,0.687,-0.061,0.061,0.061,-11.887,-45.775,-117.274,-22.88,-6.447,-3.94,28.04,0.44232,-0.38043,-0.12006,-0.80319,7,0.402,-0.199,0.889,-0.427,0.366,-0.122,-12.865,-23.73,173.073,-11.96,-6.407,-33.267,30.93,-0.08047,-0.19763,0.12152,-0.96933,17,0.971,-0.137,0.124,-0.061,0.0,0.0,-47.181,-79.2,-140.46,-30.393,-12.32,-5.407,32.46,-0.00098,-0.65375,0.09225,-0.75098,13
4,1.006,-0.174,-0.077,-0.305,0.0,0.122,-113.747,-79.288,-96.647,-28.013,-11.58,-6.887,30.26,0.11905,0.68924,-0.24942,0.66965,14,0.722,-0.143,0.687,-0.122,0.122,0.122,-11.893,-45.769,-117.268,-22.88,-6.447,-3.94,28.04,0.44232,-0.38043,-0.12006,-0.80319,18,0.403,-0.199,0.888,-0.061,0.183,0.183,-12.865,-23.725,173.051,-11.96,-6.407,-33.267,30.93,-0.08047,-0.19763,0.12152,-0.96933,20,0.971,-0.136,0.124,0.0,0.122,0.0,-47.181,-79.2,-140.466,-30.393,-12.32,-5.407,32.46,-0.00098,-0.65375,0.09225,-0.75098,22
5,1.005,-0.173,-0.077,-0.366,0.0,0.183,-113.747,-79.288,-96.652,-28.013,-11.58,-6.887,30.26,0.11905,0.68924,-0.24942,0.66965,15,0.722,-0.143,0.685,0.0,0.122,0.305,-11.898,-45.764,-117.263,-22.88,-6.447,-3.94,28.04,0.44232,-0.38043,-0.12006,-0.80319,19,0.401,-0.204,0.887,0.977,0.366,0.671,-12.854,-23.719,173.062,-11.96,-6.407,-33.267,30.93,-0.08047,-0.19763,0.12152,-0.96933,21,0.969,-0.136,0.124,0.0,0.244,0.0,-47.17,-79.195,-140.477,-30.393,-12.32,-5.407,32.46,-0.00098,-0.65375,0.09225,-0.75098,23
6,1.003,-0.172,-0.077,-0.305,0.0,0.122,-113.752,-79.283,-96.658,-28.013,-11.58,-6.887,30.26,0.11905,0.68924,-0.24942,0.66965,26,0.72,-0.147,0.686,0.305,0.305,0.305,-11.893,-45.758,-117.257,-22.88,-6.447,-3.94,28.04,0.44257,-0.37991,-0.11978,-0.80334,24,0.397,-0.208,0.888,0.854,0.0,0.366,-12.838,-23.714,173.084,-11.96,-6.407,-33.267,30.93,-0.08047,-0.19763,0.12152,-0.96933,28,0.969,-0.135,0.124,0.0,0.244,0.0,-47.159,-79.195,-140.499,-30.393,-12.32,-5.407,32.46,-0.00125,-0.65399,0.09262,-0.75076,30
7,1.003,-0.172,-0.079,-0.244,0.0,0.061,-113.752,-79.283,-96.663,-28.013,-11.58,-6.887,30.26,0.11905,0.68924,-0.24942,0.66965,27,0.72,-0.147,0.686,0.183,0.244,0.122,-11.893,-45.753,-117.252,-22.88,-6.447,-3.94,28.04,0.44257,-0.37991,-0.11978,-0.80334,25,0.399,-0.203,0.892,-0.244,-0.244,-0.244,-12.838,-23.719,173.09,-11.96,-6.407,-33.267,30.93,-0.08047,-0.19763,0.12152,-0.96933,29,0.97,-0.135,0.124,-0.122,0.061,0.0,-47.153,-79.189,-140.51,-30.393,-12.32,-5.407,32.46,-0.00125,-0.65399,0.09262,-0.75076,31
8,1.005,-0.172,-0.079,-0.244,0.061,0.0,-113.758,-79.283,-96.669,-28.013,-11.58,-6.887,30.26,0.11905,0.68924,-0.24942,0.66965,34,0.72,-0.141,0.688,-0.061,0.0,0.0,-11.893,-45.747,-117.257,-22.88,-6.447,-3.94,28.04,0.44257,-0.37991,-0.11978,-0.80334,32,0.402,-0.197,0.891,-0.427,0.488,-0.183,-12.843,-23.714,173.079,-11.96,-6.407,-33.267,30.93,-0.08047,-0.19763,0.12152,-0.96933,36,0.97,-0.134,0.123,-0.183,0.0,0.0,-47.159,-79.189,-140.51,-30.393,-12.32,-5.407,32.46,-0.00125,-0.65399,0.09262,-0.75076,38
9,1.005,-0.172,-0.079,-0.244,0.244,0.061,-113.747,-79.288,-96.691,-28.013,-11.58,-6.887,30.26,0.11905,0.68924,-0.24942,0.66965,35,0.72,-0.142,0.687,0.0,0.0,0.061,-11.893,-45.747,-117.257,-22.88,-6.447,-3.94,28.04,0.44257,-0.37991,-0.11978,-0.80334,33,0.4,-0.199,0.889,0.244,0.061,0.061,-12.838,-23.714,173.062,-11.96,-6.407,-33.267,30.93,-0.08047,-0.19763,0.12152,-0.96933,37,0.97,-0.135,0.125,-0.244,-0.061,0.0,-47.17,-79.195,-140.51,-30.393,-12.32,-5.407,32.46,-0.00125,-0.65399,0.09262,-0.75076,39
10,1.005,-0.172,-0.078,-0.305,0.244,0.122,-113.73,-79.288,-96.718,-28.267,-11.127,-5.867,30.26,0.11905,0.68924,-0.24942,0.66965,42,0.718,-0.144,0.688,0.0,0.0,0.0,-11.893,-45.747,-117.252,-22.88,-6.447,-3.94,28.04,0.44257,-0.37991,-0.11978,-0.80334,40,0.398,-0.203,0.892,-0.061,-0.305,-0.061,-12.838,-23.719,173.051,-11.96,-6.407,-33.267,30.93,-0.08047,-0.19763,0.12152,-0.96933,44,0.97,-0.137,0.125,0.0,-0.061,0.0,-47.181,-79.195,-140.504,-30.393,-12.32,-5.407,32.46,-0.00125,-0.65399,0.09262,-0.75076,46
11,1.004,-0.173,-0.077,-0.183,0.183,0.183,-113.714,-79.283,-96.746,-28.267,-11.127,-5.867,30.26,0.11905,0.68924,-0.24942,0.66965,43,0.72,-0.143,0.688,0.0,-0.122,0.061,-11.893,-45.747,-117.252,-22.88,-6.447,-3.94,28.04,0.44257,-0.37991,-0.11978,-0.80334,41,0.401,-0.198,0.89,-0.244,0.366,-0.122,-12.843,-23.714,173.04,-11.96,-6.407,-33.267,30.93,-0.08047,-0.19763,0.12152,-0.96933,45,0.97,-0.137,0.125,0.061,-0.061,0.0,-47.186,-79.195,-140.499,-30.393,-12.32,-5.407,32.46,-0.00125,-0.65399,0.09262,-0.75076,47
12,1.005,-0.173,-0.076,0.0,0.122,0.183,-113.703,-79.283,-96.768,-28.267,-11.127,-5.867,30.26,0.11905,0.68924,-0.24942,0.66965,52,0.721,-0.142,0.687,0.061,-0.061,0.244,-11.893,-45.753,-117.252,-22.88,-6.447,-3.94,28.04,0.44257,-0.37991,-0.11978,-0.80334,48,0.402,-0.198,0.889,0.061,0.61,0.122,-12.838,-23.703,173.029,-11.96,-6.407,-33.267,30.93,-0.08047,-0.19763,0.12152,-0.96933,50,0.97,-0.137,0.124,0.061,-0.061,0.0,-47.197,-79.195,-140.493,-30.393,-12.32,-5.407,32.46,-0.00125,-0.65399,0.09262,-0.75076,54
13,1.005,-0.174,-0.077,0.0,0.183,0.122,-113.687,-79.283,-96.79,-28.267,-11.127,-5.867,30.26,0.11905,0.68924,-0.24942,0.66965,53,0.72,-0.145,0.686,0.183,0.0,0.305,-11.898,-45.747,-117.241,-22.88,-6.447,-3.94,28.04,0.44257,-0.37991,-0.11978,-0.80334,49,0.401,-0.202,0.888,0.61,0.122,0.366,-12.832,-23.698,173.024,-11.96,-6.407,-33.267,30.93,-0.08047,-0.19763,0.12152,-0.96933,51,0.97,-0.136,0.124,0.061,0.0,0.0,-47.203,-79.2,-140.493,-30.393,-12.32,-5.407,32.46,-0.00125,-0.65399,0.09262,-0.75076,55
14,1.005,-0.173,-0.077,0.0,0.244,0.061,-113.665,-79.283,-96.817,-28.267,-11.127,-5.867,30.26,0.11972,0.68893,-0.25034,0.66953,58,0.719,-0.149,0.687,0.244,0.183,0.122,-11.898,-45.747,-117.235,-22.88,-6.447,-3.94,28.04,0.44257,-0.37991,-0.11978,-0.80334,56,0.399,-0.208,0.888,0.61,-0.305,0.183,-12.821,-23.698,173.018,-11.733,-6.093,-33.76,30.93,-0.08047,-0.19763,0.12152,-0.96933,66,0.97,-0.137,0.125,0.0,0.061,0.0,-47.203,-79.2,-140.493,-30.393,-12.32,-5.407,32.46,-0.00125,-0.65399,0.09262,-0.75076,60
15,1.005,-0.172,-0.075,-0.122,0.305,0.0,-113.643,-79.283,-96.844,-28.267,-11.127,-5.867,30.26,0.11972,0.68893,-0.25034,0.66953,59,0.718,-0.149,0.688,0.061,0.0,-0.061,-11.893,-45.742,-117.235,-22.88,-6.447,-3.94,28.04,0.44257,-0.37991,-0.11978,-0.80334,57,0.398,-0.207,0.891,0.061,-0.244,-0.061,-12.816,-23.703,173.013,-11.733,-6.093,-33.76,30.93,-0.08047,-0.19763,0.12152,-0.96933,67,0.97,-0.138,0.126,0.0,0.061,0.0,-47.203,-79.195,-140.499,-30.393,-12.32,-5.407,32.46,-0.00125,-0.65399,0.09262,-0.75076,61
16,1.005,-0.173,-0.075,-0.244,0.244,0.0,-113.626,-79.288,-96.872,-28.267,-11.127,-5.867,30.26,0.11972,0.68893,-0.25034,0.66953,64,0.718,-0.143,0.688,0.0,0.0,-0.061,-11.893,-45.742,-117.235,-22.88,-6.447,-3.94,28.04,0.44257,-0.37991,-0.11978,-0.80334,62,0.399,-0.199,0.89,-0.244,0.366,-0.244,-12.816,-23.703,172.996,-11.733,-6.093,-33.76,30.93,-0.08224,-0.19702,0.12149,-0.9693,68,0.969,-0.137,0.126,0.0,0.122,0.0,-47.203,-79.195,-140.504,-30.393,-12.32,-5.407,32.46,-0.00125,-0.65399,0.09262,-0.75076,70
17,1.004,-0.173,-0.074,-0.244,0.061,0.0,-113.621,-79.288,-96.883,-28.267,-11.127,-5.867,30.26,0.11972,0.68893,-0.25034,0.66953,65,0.718,-0.141,0.688,0.0,0.0,0.0,-11.893,-45.742,-117.235,-22.88,-6.447,-3.94,28.04,0.44257,-0.37991,-0.11978,-0.80334,63,0.399,-0.196,0.889,0.0,0.488,-0.061,-12.816,-23.692,172.98,-11.733,-6.093,-33.76,30.93,-0.08224,-0.19702,0.12149,-0.9693,69,0.969,-0.136,0.125,0.0,0.122,0.0,-47.197,-79.195,-140.515,-30.393,-12.32,-5.407,32.46,-0.00125,-0.65399,0.09262,-0.75076,71
18,1.004,-0.174,-0.075,-0.122,0.0,0.0,-113.626,-79.288,-96.883,-28.267,-11.127,-5.867,30.26,0.11972,0.68893,-0.25034,0.66953,72,0.719,-0.143,0.687,0.122,0.183,0.061,-11.893,-45.742,-117.235,-22.88,-6.447,-3.94,28.04,0.44257,-0.37991,-0.11978,-0.80334,74,0.399,-0.198,0.89,0.183,0.183,0.0,-12.81,-23.687,172.974,-11.733,-6.093,-33.76,30.93,-0.08224,-0.19702,0.12149,-0.9693,76,0.97,-0.137,0.124,0.061,0.061,0.0,-47.197,-79.195,-140.521,-30.407,-12.327,-4.787,32.46,-0.00125,-0.65399,0.09262,-0.75076,78
19,1.005,-0.174,-0.077,-0.122,0.0,0.0,-113.626,-79.288,-96.883,-28.267,-11.127,-5.867,30.26,0.11972,0.68893,-0.25034,0.66953,73,0.718,-0.146,0.688,0.183,0.122,0.122,-11.887,-45.736,-117.235,-22.88,-6.447,-3.94,28.04,0.44257,-0.37991,-0.11978,-0.80334,75,0.398,-0.201,0.892,0.183,0.244,0.122,-12.805,-23.681,172.963,-11.733,-6.093,-33.76,30.93,-0.08224,-0.19702,0.12149,-0.9693,77,0.969,-0.139,0.125,0.061,0.0,0.0,-47.197,-79.195,-140.521,-30.407,-12.327,-4.787,32.46,-0.00125,-0.65399,0.09262,-0.75076,79
20,1.004,-0.174,-0.076,-0.244,0.122,0.0,-113.626,-79.294,-96.894,-28.267,-11.127,-5.867,30.26,0.11972,0.68893,-0.25034,0.66953,80,0.718,-0.146,0.688,0.244,0.061,0.183,-11.887,-45.736,-117.235,-22.827,-6.66,-4.207,28.04,0.44257,-0.37991,-0.11978,-0.80334,84,0.398,-0.203,0.891,0.427,0.183,0.305,-12.799,-23.676,172.958,-11.733,-6.093,-33.76,30.93,-0.08224,-0.19702,0.12149,-0.9693,82,0.969,-0.137,0.125,0.061,0.0,0.0,-47.203,-79.195,-140.521,-30.407,-12.327,-4.787,32.46,-0.00177,-0.6539,0.09314,-0.75073,86
21,1.004,-0.174,-0.076,-0.305,0.0,0.0,-113.626,-79.294,-96.894,-28.267,-11.127,-5.867,30.26,0.11972,0.68893,-0.25034,0.66953,81,0.718,-0.146,0.688,0.061,0.0,0.183,-11.887,-45.731,-117.23,-22.827,-6.66,-4.207,28.04,0.44257,-0.37991,-0.11978,-0.80334,85,0.398,-0.203,0.891,0.183,0.061,0.122,-12.794,-23.676,172.952,-11.733,-6.093,-33.76,30.93,-0.08224,-0.19702,0.12149,-0.9693,83,0.969,-0.136,0.125,0.0,0.0,0.0,-47.208,-79.189,-140.521,-30.407,-12.327,-4.787,32.46,-0.00177,-0.6539,0.09314,-0.75073,87
22,1.005,-0.173,-0.077,-0.244,0.0,0.0,-113.632,-79.294,-96.894,-28.267,-11.127,-5.867,30.26,0.11972,0.68893,-0.25034,0.66953,90,0.718,-0.144,0.689,0.0,0.0,0.061,-11.887,-45.731,-117.224,-22.827,-6.66,-4.207,28.04,0.4429,-0.37961,-0.11981,-0.80328,88,0.399,-0.201,0.891,-0.183,0.0,0.0,-12.799,-23.676,172.947,-11.733,-6.093,-33.76,30.93,-0.08224,-0.19702,0.12149,-0.9693,92,0.969,-0.136,0.124,-0.061,0.0,0.0,-47.214,-79.189,-140.521,-30.407,-12.327,-4.787,32.46,-0.00177,-0.6539,0.09314,-0.75073,94
23,1.003,-0.172,-0.077,-0.183,0.0,0.0,-113.637,-79.294,-96.894,-28.267,-11.127,-5.867,30.26,0.11972,0.68893,-0.25034,0.66953,91,0.718,-0.144,0.688,0.0,-0.061,0.0,-11.887,-45.731,-117.224,-22.827,-6.66,-4.207,28.04,0.4429,-0.37961,-0.11981,-0.80328,89,0.398,-0.2,0.891,-0.061,-0.183,0.0,-12.799,-23.676,172.936,-11.733,-6.093,-33.76,30.93,-0.08224,-0.19702,0.12149,-0.9693,93,0.971,-0.136,0.123,-0.244,-0.061,0.0,-47.225,-79.195,-140.521,-30.407,-12.327,-4.787,32.46,-0.00177,-0.6539,0.09314,-0.75073,95
24,1.004,-0.173,-0.077,-0.305,0.0,0.0,-113.648,-79.294,-96.894,-28.267,-11.127,-5.867,30.26,0.11972,0.68893,-0.25034,0.66953,96,0.721,-0.145,0.688,-0.183,-0.061,0.0,-11.887,-45.731,-117.224,-22.827,-6.66,-4.207,28.04,0.4429,-0.37961,-0.11981,-0.80328,98,0.4,-0.202,0.89,-0.122,-0.366,0.0,-12.805,-23.681,172.93,-11.733,-6.093,-33.76,30.93,-0.08224,-0.19702,0.12149,-0.9693,100,0.972,-0.136,0.125,-0.244,0.0,0.0,-47.236,-79.195,-140.521,-30.407,-12.327,-4.787,32.46,-0.00177,-0.6539,0.09314,-0.75073,102
25,1.006,-0.172,-0.078,-0.305,0.061,0.0,-113.654,-79.294,-96.899,-28.267,-11.127,-5.867,30.26,0.11972,0.68893,-0.25034,0.66953,97,0.722,-0.144,0.687,-0.183,-0.122,0.0,-11.893,-45.731,-117.224,-22.827,-6.66,-4.207,28.04,0.4429,-0.37961,-0.11981,-0.80328,99,0.403,-0.201,0.89,-0.671,-0.061,-0.305,-12.816,-23.687,172.914,-11.733,-6.093,-33.76,30.93,-0.08224,-0.19702,0.12149,-0.9693,101,0.972,-0.134,0.125,-0.061,0.0,0.0,-47.247,-79.195,-140.521,-30.407,-12.327,-4.787,32.46,-0.00177,-0.6539,0.09314,-0.75073,103
26,1.007,-0.172,-0.077,-0.244,0.061,0.0,-113.654,-79.294,-96.905,-28.267,-11.127,-5.867,30.26,0.11972,0.68893,-0.25034,0.66953,106,0.72,-0.143,0.687,0.0,-0.183,0.0,-11.893,-45.731,-117.224,-22.827,-6.66,-4.207,28.04,0.4429,-0.37961,-0.11981,-0.80328,104,0.402,-0.197,0.89,-0.366,0.183,-0.244,-12.816,-23.681,172.897,-11.733,-6.093,-33.76,30.93,-0.08224,-0.19702,0.12149,-0.9693,108,0.969,-0.137,0.124,0.122,0.0,0.0,-47.247,-79.195,-140.521,-30.407,-12.327,-4.787,32.46,-0.00177,-0.6539,0.09314,-0.75073,110
27,1.004,-0.173,-0.076,-0.183,0.061,0.0,-113.659,-79.294,-96.91,-28.267,-11.127,-5.867,30.26,0.11972,0.68893,-0.25034,0.66953,107,0.717,-0.146,0.687,0.122,0.0,0.183,-11.898,-45.731,-117.219,-22.827,-6.66,-4.207,28.04,0.4429,-0.37961,-0.11981,-0.80328,105,0.398,-0.2,0.887,0.183,0.305,0.122,-12.81,-23.676,172.892,-11.733,-6.093,-33.76,30.93,-0.08224,-0.19702,0.12149,-0.9693,109,0.968,-0.138,0.125,0.305,0.122,0.0,-47.241,-79.189,-140.526,-30.407,-12.327,-4.787,32.46,-0.00177,-0.6539,0.09314,-0.75073,111
28,1.004,-0.174,-0.074,-0.183,-0.061,0.0,-113.665,-79.294,-96.91,-28.14,-11.66,-6.387,30.26,0.11972,0.68893,-0.25034,0.66953,114,0.72,-0.144,0.686,0.122,0.061,0.122,-11.898,-45.731,-117.213,-22.827,-6.66,-4.207,28.04,0.4429,-0.37961,-0.11981,-0.80328,112,0.402,-0.202,0.887,0.0,0.183,0.122,-12.81,-23.67,172.886,-11.733,-6.093,-33.76,30.93,-0.08224,-0.19702,0.12149,-0.9693,118,0.97,-0.136,0.124,0.061,0.183,0.0,-47.23,-79.189,-140.537,-30.407,-12.327,-4.787,32.46,-0.00177,-0.6539,0.09314,-0.75073,116
29,1.005,-0.174,-0.075,-0.122,-0.061,0.0,-113.676,-79.294,-96.905,-28.14,-11.66,-6.387,30.26,0.11972,0.68893,-0.25034,0.66953,115,0.723,-0.143,0.686,0.061,0.305,0.061,-11.893,-45.725,-117.213,-22.827,-6.66,-4.207,28.04,0.4429,-0.37961,-0.11981,-0.80328,113,0.402,-0.2,0.887,0.061,0.549,0.0,-12.81,-23.665,172.875,-11.733,-6.093,-33.76,30.93,-0.08224,-0.19702,0.12149,-0.9693,119,0.972,-0.134,0.124,-0.183,0.122,0.0,-47.225,-79.189,-140.548,-30.407,-12.327,-4.787,32.46,-0.00177,-0.6539,0.09314,-0.75073,117
30,1.007,-0.171,-0.077,-0.366,0.244,0.0,-113.665,-79.299,-96.921,-28.14,-11.66,-6.387,30.26,0.11972,0.68893,-0.25034,0.66953,122,0.721,-0.143,0.688,0.0,0.183,0.0,-11.893,-45.72,-117.213,-22.827,-6.66,-4.207,28.04,0.4429,-0.37961,-0.11981,-0.80328,120,0.4,-0.202,0.891,0.061,-0.305,0.0,-12.805,-23.67,172.87,-11.673,-6.647,-33.247,30.93,-0.08224,-0.19702,0.12149,-0.9693,124,0.972,-0.135,0.125,-0.244,0.0,0.0,-47.23,-79.189,-140.554,-30.407,-12.327,-4.787,32.46,-0.00177,-0.6539,0.09314,-0.75073,126
31,1.007,-0.171,-0.077,-0.427,0.366,0.0,-113.643,-79.299,-96.954,-28.14,-11.66,-6.387,30.26,0.11972,0.68893,-0.25034,0.66953,123,0.719,-0.143,0.691,0.122,0.305,-0.061,-11.893,-45.72,-117.213,-22.827,-6.66,-4.207,28.04,0.4429,-0.37961,-0.11981,-0.80328,121,0.398,-0.2,0.894,0.122,-0.122,0.0,-12.805,-23.67,172.859,-11.673,-6.647,-33.247,30.93,-0.08224,-0.19702,0.12149,-0.9693,125,0.97,-0.137,0.125,-0.122,0.0,0.0,-47.236,-79.189,-140.554,-30.407,-12.327,-4.787,32.46,-0.00177,-0.6539,0.09314,-0.75073,127
32,1.005,-0.173,-0.076,-0.427,0.427,0.0,-113.615,-79.305,-96.993,-28.14,-11.66,-6.387,30.26,0.12054,0.6886,-0.25098,0.66946,134,0.718,-0.145,0.689,0.122,0.122,0.0,-11.887,-45.714,-117.219,-22.827,-6.66,-4.207,28.04,0.4429,-0.37961,-0.11981,-0.80328,128,0.397,-0.201,0.893,0.427,-0.061,0.0,-12.794,-23.67,172.853,-11.673,-6.647,-33.247,30.93,-0.08224,-0.19702,0.12149,-0.9693,130,0.968,-0.138,0.125,-0.061,0.122,0.0,-47.236,-79.189,-140.559,-30.407,-12.327,-4.787,32.46,-0.00177,-0.6539,0.09314,-0.75073,132
33,1.002,-0.173,-0.076,-0.244,0.244,0.0,-113.599,-79.305,-97.02,-28.14,-11.66,-6.387,30.26,0.12054,0.6886,-0.25098,0.66946,135,0.717,-0.145,0.689,0.183,0.061,0.0,-11.882,-45.709,-117.219,-22.827,-6.66,-4.207,28.04,0.4429,-0.37961,-0.11981,-0.80328,129,0.397,-0.201,0.893,0.244,0.0,0.0,-12.788,-23.67,172.842,-11.673,-6.647,-33.247,30.93,-0.08224,-0.19702,0.12149,-0.9693,131,0.966,-0.136,0.124,0.0,0.061,0.0,-47.236,-79.189,-140.565,-30.407,-12.327,-4.787,32.46,-0.00177,-0.6539,0.09314,-0.75073,133
34,1.003,-0.173,-0.077,-0.183,0.122,0.0,-113.588,-79.31,-97.037,-28.14,-11.66,-6.387,30.26,0.12054,0.6886,-0.25098,0.66946,138,0.717,-0.144,0.688,0.122,0.0,0.0,-11.876,-45.709,-117.219,-22.827,-6.66,-4.207,28.04,0.4429,-0.37961,-0.11981,-0.80328,136,0.397,-0.2,0.89,0.0,-0.122,-0.122,-12.788,-23.676,172.831,-11.673,-6.647,-33.247,30.93,-0.08347,-0.19666,0.12152,-0.96927,146,0.968,-0.136,0.124,-0.061,-0.061,0.0,-47.241,-79.189,-140.565,-30.493,-11.84,-4.36,32.46,-0.00177,-0.6539,0.09314,-0.75073,140
35,1.002,-0.173,-0.077,-0.183,0.122,0.0,-113.582,-79.31,-97.048,-28.14,-11.66,-6.387,30.26,0.12054,0.6886,-0.25098,0.66946,139,0.717,-0.143,0.688,0.061,-0.061,0.0,-11.876,-45.709,-117.219,-22.827,-6.66,-4.207,28.04,0.4429,-0.37961,-0.11981,-0.80328,137,0.398,-0.199,0.889,0.0,-0.061,-0.183,-12.783,-23.676,172.82,-11.673,-6.647,-33.247,30.93,-0.08347,-0.19666,0.12152,-0.96927,147,0.968,-0.135,0.125,-0.061,-0.122,0.0,-47.258,-79.189,-140.554,-30.493,-11.84,-4.36,32.46,-0.00177,-0.6539,0.09314,-0.75073,141
36,1.003,-0.172,-0.076,-0.122,0.244,0.0,-113.571,-79.31,-97.07,-28.14,-11.66,-6.387,30.26,0.12054,0.6886,-0.25098,0.66946,144,0.717,-0.143,0.688,0.122,-0.061,0.0,-11.871,-45.709,-117.219,-22.747,-6.4,-3.393,28.04,0.4429,-0.37961,-0.11981,-0.80328,142,0.397,-0.198,0.889,0.183,0.061,0.0,-12.777,-23.676,172.815,-11.673,-6.647,-33.247,30.93,-0.08347,-0.19666,0.12152,-0.96927,148,0.969,-0.136,0.125,0.0,-0.122,0.0,-47.269,-79.189,-140.543,-30.493,-11.84,-4.36,32.46,-0.00226,-0.65387,0.09369,-0.7507,150
37,1.003,-0.172,-0.076,-0.061,0.122,0.0,-113.56,-79.316,-97.086,-28.14,-11.66,-6.387,30.26,0.12054,0.6886,-0.25098,0.66946,145,0.717,-0.143,0.688,0.061,-0.061,0.0,-11.871,-45.709,-117.219,-22.747,-6.4,-3.393,28.04,0.4429,-0.37961,-0.11981,-0.80328,143,0.397,-0.2,0.89,0.0,0.122,0.0,-12.777,-23.67,172.804,-11.673,-6.647,-33.247,30.93,-0.08347,-0.19666,0.12152,-0.96927,149,0.97,-0.137,0.125,0.0,-0.183,0.0,-47.285,-79.195,-140.532,-30.493,-11.84,-4.36,32.46,-0.00226,-0.65387,0.09369,-0.7507,151
38,1.004,-0.173,-0.075,-0.061,0.0,0.0,-113.56,-79.316,-97.086,-28.14,-11.66,-6.387,30.26,0.12054,0.6886,-0.25098,0.66946,152,0.719,-0.144,0.688,-0.061,-0.061,0.0,-11.871,-45.709,-117.219,-22.747,-6.4,-3.393,28.04,0.4429,-0.37961,-0.11981,-0.80328,154,0.399,-0.199,0.891,-0.183,0.0,-0.183,-12.777,-23.67,172.793,-11.673,-6.647,-33.247,30.93,-0.08347,-0.19666,0.12152,-0.96927,156,0.972,-0.137,0.125,-0.061,-0.244,0.0,-47.307,-79.2,-140.51,-30.493,-11.84,-4.36,32.46,-0.00226,-0.65387,0.09369,-0.7507,158
39,1.007,-0.173,-0.074,-0.183,-0.061,0.0,-113.571,-79.316,-97.081,-28.14,-11.66,-6.387,30.26,0.12054,0.6886,-0.25098,0.66946,153,0.719,-0.145,0.689,0.0,-0.122,0.0,-11.871,-45.709,-117.219,-22.747,-6.4,-3.393,28.04,0.4429,-0.37961,-0.11981,-0.80328,155,0.399,-0.201,0.891,-0.244,0.0,-0.122,-12.783,-23.67,172.787,-11.673,-6.647,-33.247,30.93,-0.08347,-0.19666,0.12152,-0.96927,157,0.971,-0.137,0.125,-0.122,-0.244,0.0,-47.329,-79.2,-140.493,-30.493,-11.84,-4.36,32.46,-0.00226,-0.65387,0.09369,-0.7507,159
40,1.007,-0.174,-0.075,-0.244,-0.122,0.0,-113.588,-79.316,-97.07,-28.14,-11.66,-6.387,30.26,0.12054,0.6886,-0.25098,0.66946,160,0.719,-0.145,0.689,-0.244,-0.061,0.0,-11.871,-45.709,-117.219,-22.747,-6.4,-3.393,28.04,0.44308,-0.37939,-0.11984,-0.80328,166,0.398,-0.202,0.892,-0.244,-0.305,-0.122,-12.783,-23.676,172.776,-11.673,-6.647,-33.247,30.93,-0.08347,-0.19666,0.12152,-0.96927,162,0.971,-0.137,0.125,-0.183,-0.122,0.0,-47.346,-79.2,-140.482,-30.493,-11.84,-4.36,32.46,-0.00226,-0.65387,0.09369,-0.7507,164
41,1.006,-0.173,-0.074,-0.183,-0.122,0.0,-113.604,-79.316,-97.059,-28.14,-11.66,-6.387,30.26,0.12054,0.6886,-0.25098,0.66946,161,0.72,-0.145,0.689,-0.122,-0.183,0.0,-11.876,-45.709,-117.219,-22.747,-6.4,-3.393,28.04,0.44308,-0.37939,-0.11984,-0.80328,167,0.4,-0.2,0.892,-0.305,0.0,-0.183,-12.788,-23.676,172.766,-11.673,-6.647,-33.247,30.93,-0.08347,-0.19666,0.12152,-0.96927,163,0.971,-0.138,0.125,-0.061,-0.061,0.0,-47.357,-79.2,-140.477,-30.493,-11.84,-4.36,32.46,-0.00226,-0.65387,0.09369,-0.7507,165
42,1.005,-0.173,-0.073,-0.366,-0.183,0.0,-113.626,-79.31,-97.042,-28.14,-11.66,-6.387,30.26,0.12054,0.6886,-0.25098,0.66946,168,0.721,-0.144,0.688,0.0,0.0,0.0,-11.876,-45.709,-117.219,-22.747,-6.4,-3.393,28.04,0.44308,-0.37939,-0.11984,-0.80328,170,0.402,-0.201,0.888,-0.183,0.244,0.0,-12.788,-23.67,172.755,-11.673,-6.647,-33.247,30.93,-0.08347,-0.19666,0.12152,-0.96927,172,0.97,-0.135,0.124,0.244,0.122,0.0,-47.346,-79.2,-140.488,-30.493,-11.84,-4.36,32.46,-0.00226,-0.65387,0.09369,-0.7507,174
43,1.004,-0.173,-0.076,-0.183,-0.366,0.0,-113.665,-79.31,-97.004,-28.14,-11.66,-6.387,30.26,0.12054,0.6886,-0.25098,0.66946,169,0.72,-0.144,0.686,0.0,0.0,0.0,-11.876,-45.709,-117.219,-22.747,-6.4,-3.393,28.04,0.44308,-0.37939,-0.11984,-0.80328,171,0.401,-0.2,0.888,-0.244,0.427,-0.183,-12.788,-23.659,172.744,-11.673,-6.647,-33.247,30.93,-0.08347,-0.19666,0.12152,-0.96927,173,0.97,-0.136,0.124,0.0,0.061,0.0,-47.34,-79.2,-140.493,-30.493,-11.84,-4.36,32.46,-0.00226,-0.65387,0.09369,-0.7507,175
44,1.005,-0.173,-0.076,-0.244,-0.122,0.0,-113.681,-79.31,-96.993,-28.14,-11.66,-6.387,30.26,0.12054,0.6886,-0.25098,0.66946,178,0.718,-0.144,0.687,-0.061,0.122,0.0,-11.876,-45.709,-117.219,-22.747,-6.4,-3.393,28.04,0.44308,-0.37939,-0.11984,-0.80328,176,0.397,-0.2,0.889,-0.183,-0.244,-0.061,-12.794,-23.665,172.738,-11.673,-6.647,-33.247,30.93,-0.08347,-0.19666,0.12152,-0.96927,182,0.97,-0.137,0.124,0.0,0.061,0.0,-47.34,-79.2,-140.499,-30.493,-11.84,-4.36,32.46,-0.00226,-0.65387,0.09369,-0.7507,180
45,1.005,-0.173,-0.076,-0.305,-0.183,0.0,-113.703,-79.31,-96.976,-28.14,-11.66,-6.387,30.26,0.12054,0.6886,-0.25098,0.66946,179,0.718,-0.144,0.689,0.0,0.061,0.0,-11.876,-45.703,-117.219,-22.747,-6.4,-3.393,28.04,0.44308,-0.37939,-0.11984,-0.80328,177,0.398,-0.199,0.891,0.061,0.0,0.122,-12.794,-23.665,172.733,-11.673,-6.647,-33.247,30.93,-0.08347,-0.19666,0.12152,-0.96927,183,0.97,-0.136,0.124,-0.061,0.183,0.0,-47.329,-79.195,-140.51,-30.493,-11.84,-4.36,32.46,-0.00226,-0.65387,0.09369,-0.7507,181
46,1.004,-0.172,-0.076,-0.427,-0.244,0.0,-113.73,-79.305,-96.954,-28.04,-11.347,-6.487,30.26,0.12054,0.6886,-0.25098,0.66946,184,0.719,-0.144,0.69,0.061,0.122,0.0,-11.871,-45.703,-117.219,-22.747,-6.4,-3.393,28.04,0.44308,-0.37939,-0.11984,-0.80328,186,0.399,-0.202,0.892,0.0,0.122,0.122,-12.788,-23.665,172.727,-11.673,-6.647,-33.247,30.93,-0.08347,-0.19666,0.12152,-0.96927,188,0.97,-0.136,0.124,-0.061,0.183,0.0,-47.318,-79.195,-140.526,-30.493,-11.84,-4.36,32.46,-0.00226,-0.65387,0.09369,-0.7507,190
47,1.004,-0.173,-0.078,-0.366,-0.183,0.0,-113.758,-79.305,-96.932,-28.04,-11.347,-6.487,30.26,0.12054,0.6886,-0.25098,0.66946,185,0.72,-0.144,0.688,-0.061,0.0,0.0,-11.871,-45.698,-117.219,-22.747,-6.4,-3.393,28.04,0.44308,-0.37939,-0.11984,-0.80328,187,0.4,-0.202,0.892,-0.427,0.0,-0.305,-12.794,-23.665,172.716,-11.673,-6.647,-33.247,30.93,-0.08347,-0.19666,0.12152,-0.96927,189,0.97,-0.135,0.123,-0.061,0.061,0.0,-47.324,-79.195,-140.532,-30.493,-11.84,-4.36,32.46,-0.00226,-0.65387,0.09369,-0.7507,191
48,1.005,-0.173,-0.079,-0.122,-0.061,0.0,-113.769,-79.305,-96.927,-28.04,-11.347,-6.487,30.26,0.12054,0.6886,-0.25098,0.66946,194,0.72,-0.143,0.688,-0.122,-0.061,0.0,-11.871,-45.698,-117.219,-22.747,-6.4,-3.393,28.04,0.44308,-0.37939,-0.11984,-0.80328,192,0.402,-0.199,0.891,-0.366,0.061,-0.305,-12.799,-23.665,172.7,-11.773,-6.413,-33.687,30.93,-0.08347,-0.19666,0.12152,-0.96927,196,0.971,-0.135,0.122,-0.061,0.0,0.0,-47.329,-79.195,-140.532,-30.14,-12.38,-5.433,32.46,-0.00226,-0.65387,0.09369,-0.7507,200
49,1.005,-0.173,-0.08,-0.183,0.0,0.0,-113.774,-79.305,-96.927,-28.04,-11.347,-6.487,30.26,0.12054,0.6886,-0.25098,0.66946,195,0.719,-0.142,0.687,-0.061,-0.061,0.0,-11.876,-45.698,-117.219,-22.747,-6.4,-3.393,28.04,0.44308,-0.37939,-0.11984,-0.80328,193,0.399,-0.199,0.889,-0.061,0.0,-0.061,-12.799,-23.665,172.694,-11.773,-6.413,-33.687,30.93,-0.08347,-0.19666,0.12152,-0.96927,197,0.97,-0.135,0.122,-0.061,0.0,0.0,-47.335,-79.195,-140.532,-30.14,-12.38,-5.433,32.46,-0.00226,-0.65387,0.09369,-0.7507,201
50,1.005,-0.173,-0.079,-0.183,0.061,0.0,-113.774,-79.305,-96.932,-28.04,-11.347,-6.487,30.26,0.12122,0.68851,-0.25156,0.66922,206,0.718,-0.144,0.688,-0.061,-0.061,0.0,-11.876,-45.698,-117.219,-22.747,-6.4,-3.393,28.04,0.44308,-0.37939,-0.11984,-0.80328,204,0.398,-0.2,0.891,-0.183,-0.366,-0.122,-12.799,-23.67,172.689,-11.773,-6.413,-33.687,30.93,-0.08347,-0.19666,0.12152,-0.96927,198,0.969,-0.137,0.123,-0.122,-0.061,0.0,-47.346,-79.195,-140.526,-30.14,-12.38,-5.433,32.46,-0.00226,-0.65387,0.09369,-0.7507,202
51,1.004,-0.173,-0.077,-0.183,0.122,0.0,-113.774,-79.31,-96.943,-28.04,-11.347,-6.487,30.26,0.12122,0.68851,-0.25156,0.66922,207,0.718,-0.145,0.688,0.0,-0.244,0.0,-11.876,-45.703,-117.219,-22.747,-6.4,-3.393,28.04,0.44308,-0.37939,-0.11984,-0.80328,205,0.399,-0.2,0.892,-0.305,-0.122,-0.061,-12.805,-23.676,172.678,-11.773,-6.413,-33.687,30.93,-0.08347,-0.19666,0.12152,-0.96927,199,0.97,-0.138,0.123,0.0,-0.061,0.0,-47.357,-79.2,-140.521,-30.14,-12.38,-5.433,32.46,-0.00226,-0.65387,0.09369,-0.7507,203
52,1.005,-0.174,-0.077,-0.183,0.122,0.0,-113.769,-79.31,-96.96,-28.04,-11.347,-6.487,30.26,0.12122,0.68851,-0.25156,0.66922,210,0.721,-0.144,0.688,0.061,-0.244,0.305,-11.876,-45.703,-117.213,-22.64,-7.047,-4.393,28.04,0.44308,-0.37939,-0.11984,-0.80328,208,0.402,-0.198,0.891,-0.366,0.305,0.122,-12.81,-23.665,172.672,-11.773,-6.413,-33.687,30.93,-0.08484,-0.19644,0.12189,-0.96915,216,0.971,-0.137,0.124,0.0,-0.061,0.0,-47.368,-79.2,-140.515,-30.14,-12.38,-5.433,32.46,-0.00262,-0.65393,0.09409,-0.75061,212
53,1.006,-0.173,-0.077,-0.122,0.061,0.0,-113.769,-79.31,-96.965,-28.04,-11.347,-6.487,30.26,0.12122,0.68851,-0.25156,0.66922,211,0.722,-0.143,0.686,0.183,-0.183,0.305,-11.882,-45.709,-117.202,-22.64,-7.047,-4.393,28.04,0.44308,-0.37939,-0.11984,-0.80328,209,0.402,-0.2,0.886,0.122,0.244,0.305,-12.805,-23.659,172.672,-11.773,-6.413,-33.687,30.93,-0.08484,-0.19644,0.12189,-0.96915,217,0.971,-0.135,0.124,0.122,-0.061,0.0,-47.379,-79.2,-140.51,-30.14,-12.38,-5.433,32.46,-0.00262,-0.65393,0.09409,-0.75061,213
54,1.006,-0.172,-0.077,-0.122,0.061,0.0,-113.769,-79.31,-96.971,-28.04,-11.347,-6.487,30.26,0.12122,0.68851,-0.25156,0.66922,214,0.72,-0.144,0.687,0.122,0.0,0.183,-11.882,-45.709,-117.197,-22.64,-7.047,-4.393,28.04,0.44308,-0.37939,-0.11984,-0.80328,218,0.4,-0.203,0.888,0.183,-0.061,0.244,-12.805,-23.659,172.672,-11.773,-6.413,-33.687,30.93,-0.08484,-0.19644,0.12189,-0.96915,220,0.97,-0.137,0.124,0.061,0.061,0.0,-47.379,-79.2,-140.515,-30.14,-12.38,-5.433,32.46,-0.00262,-0.65393,0.09409,-0.75061,222
55,1.005,-0.172,-0.076,0.0,0.061,0.0,-113.769,-79.31,-96.976,-28.04,-11.347,-6.487,30.26,0.12122,0.68851,-0.25156,0.66922,215,0.718,-0.146,0.687,0.0,0.0,0.061,-11.882,-45.709,-117.191,-22.64,-7.047,-4.393,28.04,0.44308,-0.37939,-0.11984,-0.80328,219,0.398,-0.203,0.89,0.0,-0.244,0.0,-12.805,-23.665,172.667,-11.773,-6.413,-33.687,30.93,-0.08484,-0.19644,0.12189,-0.96915,221,0.969,-0.137,0.125,0.0,0.061,0.0,-47.379,-79.2,-140.515,-30.14,-12.38,-5.433,32.46,-0.00262,-0.65393,0.09409,-0.75061,223
56,1.004,-0.173,-0.075,-0.122,0.183,0.0,-113.752,-79.31,-96.993,-28.04,-11.347,-6.487,30.26,0.12122,0.68851,-0.25156,0.66922,226,0.717,-0.145,0.688,0.122,0.0,0.0,-11.882,-45.709,-117.191,-22.64,-7.047,-4.393,28.04,0.44324,-0.37943,-0.11984,-0.80319,224,0.397,-0.202,0.89,0.183,0.061,0.0,-12.799,-23.665,172.661,-11.773,-6.413,-33.687,30.93,-0.08484,-0.19644,0.12189,-0.96915,228,0.97,-0.137,0.124,0.0,0.061,0.0,-47.379,-79.2,-140.521,-30.14,-12.38,-5.433,32.46,-0.00262,-0.65393,0.09409,-0.75061,230
57,1.004,-0.173,-0.076,-0.305,0.183,0.0,-113.741,-79.316,-97.015,-28.04,-11.347,-6.487,30.26,0.12122,0.68851,-0.25156,0.66922,227,0.717,-0.144,0.689,0.0,0.061,0.0,-11.882,-45.709,-117.191,-22.64,-7.047,-4.393,28.04,0.44324,-0.37943,-0.11984,-0.80319,225,0.398,-0.2,0.891,0.0,-0.061,-0.061,-12.799,-23.665,172.656,-11.773,-6.413,-33.687,30.93,-0.08484,-0.19644,0.12189,-0.96915,229,0.97,-0.137,0.125,0.0,0.061,0.0,-47.373,-79.2,-140.526,-30.14,-12.38,-5.433,32.46,-0.00262,-0.65393,0.09409,-0.75061,231
58,1.005,-0.173,-0.075,-0.244,0.122,0.0,-113.736,-79.316,-97.026,-28.04,-11.347,-6.487,30.26,0.12122,0.68851,-0.25156,0.66922,236,0.719,-0.144,0.689,0.0,0.061,0.0,-11.876,-45.703,-117.191,-22.64,-7.047,-4.393,28.04,0.44324,-0.37943,-0.11984,-0.80319,232,0.399,-0.198,0.891,0.0,0.061,-0.061,-12.794,-23.665,172.645,-11.773,-6.413,-33.687,30.93,-0.08484,-0.19644,0.12189,-0.96915,234,0.969,-0.137,0.125,0.061,0.122,0.0,-47.373,-79.2,-140.532,-30.14,-12.38,-5.433,32.46,-0.00262,-0.65393,0.09409,-0.75061,238
59,1.006,-0.174,-0.076,-0.183,0.122,0.0,-113.73,-79.316,-97.037,-28.04,-11.347,-6.487,30.26,0.12122,0.68851,-0.25156,0.66922,237,0.718,-0.143,0.689,0.061,0.0,0.183,-11.882,-45.703,-117.186,-22.64,-7.047,-4.393,28.04,0.44324,-0.37943,-0.11984,-0.80319,233,0.398,-0.197,0.891,-0.061,0.244,0.122,-12.799,-23.659,172.645,-11.773,-6.413,-33.687,30.93,-0.08484,-0.19644,0.12189,-0.96915,235,0.968,-0.135,0.125,0.122,0.061,0.0,-47.368,-79.2,-140.543,-30.14,-12.38,-5.433,32.46,-0.00262,-0.65393,0.09409,-0.75061,239
60,1.004,-0.173,-0.076,-0.183,0.0,0.0,-113.736,-79.316,-97.037,-28.04,-11.347,-6.487,30.26,0.12122,0.68851,-0.25156,0.66922,240,0.717,-0.142,0.689,0.122,0.0,0.305,-11.882,-45.703,-117.18,-22.64,-7.047,-4.393,28.04,0.44324,-0.37943,-0.11984,-0.80319,242,0.397,-0.198,0.891,0.061,0.183,0.305,-12.794,-23.654,172.645,-11.773,-6.413,-33.687,30.93,-0.08484,-0.19644,0.12189,-0.96915,244,0.969,-0.135,0.124,0.061,0.061,0.0,-47.362,-79.2,-140.548,-30.14,-12.38,-5.433,32.46,-0.00262,-0.65393,0.09409,-0.75061,246
61,1.004,-0.173,-0.076,-0.244,-0.061,0.0,-113.747,-79.316,-97.031,-28.04,-11.347,-6.487,30.26,0.12122,0.68851,-0.25156,0.66922,241,0.717,-0.143,0.689,0.061,0.061,0.244,-11.882,-45.698,-117.175,-22.64,-7.047,-4.393,28.04,0.44324,-0.37943,-0.11984,-0.80319,243,0.397,-0.202,0.891,0.244,0.0,0.244,-12.794,-23.654,172.639,-11.773,-6.413,-33.687,30.93,-0.08484,-0.19644,0.12189,-0.96915,245,0.969,-0.137,0.124,0.0,0.0,0.0,-47.362,-79.195,-140.548,-30.14,-12.38,-5.433,32.46,-0.00262,-0.65393,0.09409,-0.75061,247
62,1.005,-0.172,-0.077,-0.122,0.0,0.0,-113.747,-79.316,-97.031,-28.04,-11.347,-6.487,30.26,0.12122,0.68851,-0.25156,0.66922,250,0.718,-0.145,0.689,0.061,0.0,0.061,-11.882,-45.698,-117.169,-22.64,-7.047,-4.393,28.04,0.44324,-0.37943,-0.11984,-0.80319,248,0.397,-0.203,0.893,0.061,-0.244,0.0,-12.788,-23.654,172.639,-11.773,-6.413,-33.687,30.93,-0.08484,-0.19644,0.12189,-0.96915,252,0.969,-0.137,0.123,-0.244,-0.061,0.0,-47.368,-79.2,-140.548,-30.14,-12.38,-5.433,32.46,-0.00262,-0.65393,0.09409,-0.75061,254
63,1.004,-0.173,-0.076,-0.183,0.0,0.0,-113.752,-79.316,-97.031,-28.04,-11.347,-6.487,30.26,0.12122,0.68851,-0.25156,0.66922,251,0.718,-0.145,0.689,-0.061,-0.122,0.0,-11.882,-45.698,-117.169,-22.64,-7.047,-4.393,28.04,0.44324,-0.37943,-0.11984,-0.80319,249,0.399,-0.202,0.892,-0.183,-0.244,-0.122,-12.794,-23.659,172.628,-11.773,-6.413,-33.687,30.93,-0.08484,-0.19644,0.12189,-0.96915,253,0.973,-0.136,0.123,-0.305,-0.061,0.0,-47.379,-79.2,-140.543,-30.14,-12.38,-5.433,32.46,-0.00262,-0.65393,0.09409,-0.75061,255
64,1.005,-0.173,-0.077,-0.244,0.0,0.0,-113.758,-79.316,-97.031,-28.1,-11.727,-6.513,30.26,0.12122,0.68851,-0.25156,0.66922,258,0.721,-0.144,0.689,-0.244,-0.244,0.0,-11.887,-45.698,-117.169,-22.64,-7.047,-4.393,28.04,0.44324,-0.37943,-0.11984,-0.80319,256,0.401,-0.201,0.89,-0.549,-0.183,-0.244,-12.799,-23.665,172.623,-11.773,-6.413,-33.687,30.93,-0.08484,-0.19644,0.12189,-0.96915,260,0.973,-0.134,0.125,-0.183,-0.061,0.0,-47.395,-79.2,-140.537,-30.047,-12.407,-5.107,32.46,-0.00262,-0.65393,0.09409,-0.75061,262
65,1.007,-0.173,-0.078,-0.183,0.0,0.0,-113.763,-79.316,-97.031,-28.1,-11.727,-6.513,30.26,0.12122,0.68851,-0.25156,0.66922,259,0.723,-0.143,0.688,-0.183,-0.244,-0.061,-11.893,-45.703,-117.169,-22.64,-7.047,-4.393,28.04,0.44324,-0.37943,-0.11984,-0.80319,257,0.404,-0.2,0.89,-0.488,-0.122,-0.305,-12.805,-23.665,172.606,-11.773,-6.413,-33.687,30.93,-0.08484,-0.19644,0.12189,-0.96915,261,0.969,-0.138,0.124,0.122,0.0,0.0,-47.401,-79.2,-140.537,-30.047,-12.407,-5.107,32.46,-0.00262,-0.65393,0.09409,-0.75061,263
66,1.006,-0.173,-0.078,-0.122,0.0,0.0,-113.769,-79.316,-97.031,-28.1,-11.727,-6.513,30.26,0.12122,0.68851,-0.25156,0.66922,264,0.719,-0.145,0.687,0.0,-0.122,-0.061,-11.893,-45.703,-117.169,-22.64,-7.047,-4.393,28.04,0.44324,-0.37943,-0.11984,-0.80319,268,0.399,-0.199,0.889,0.0,0.0,-0.183,-12.805,-23.665,172.601,-11.96,-6.367,-33.953,30.93,-0.08484,-0.19644,0.12189,-0.96915,266,0.967,-0.139,0.124,0.305,0.183,0.0,-47.401,-79.2,-140.537,-30.047,-12.407,-5.107,32.46,-0.00302,-0.65393,0.09448,-0.75055,270
67,1.003,-0.174,-0.076,-0.122,-0.061,0.0,-113.78,-79.316,-97.026,-28.1,-11.727,-6.513,30.26,0.12122,0.68851,-0.25156,0.66922,265,0.716,-0.147,0.688,0.061,0.0,0.0,-11.887,-45.703,-117.169,-22.64,-7.047,-4.393,28.04,0.44324,-0.37943,-0.11984,-0.80319,269,0.398,-0.203,0.888,0.061,0.0,0.061,-12.799,-23.665,172.595,-11.96,-6.367,-33.953,30.93,-0.08484,-0.19644,0.12189,-0.96915,267,0.971,-0.137,0.123,0.061,0.061,0.0,-47.384,-79.2,-140.554,-30.047,-12.407,-5.107,32.46,-0.00302,-0.65393,0.09448,-0.75055,271
68,1.003,-0.174,-0.075,0.0,-0.183,0.0,-113.796,-79.316,-97.004,-28.1,-11.727,-6.513,30.26,0.12189,0.68829,-0.25211,0.66913,276,0.72,-0.142,0.686,0.0,0.0,0.0,-11.887,-45.703,-117.169,-22.64,-7.047,-4.393,28.04,0.44324,-0.37943,-0.11984,-0.80319,278,0.402,-0.197,0.887,-0.427,0.366,-0.183,-12.805,-23.659,172.584,-11.96,-6.367,-33.953,30.93,-0.08484,-0.19644,0.12189,-0.96915,272,0.973,-0.135,0.124,-0.183,0.0,0.0,-47.39,-79.2,-140.554,-30.047,-12.407,-5.107,32.46,-0.00302,-0.65393,0.09448,-0.75055,274
69,1.006,-0.173,-0.077,-0.244,0.0,0.0,-113.802,-79.316,-97.004,-28.1,-11.727,-6.513,30.26,0.12189,0.68829,-0.25211,0.66913,277,0.721,-0.143,0.687,0.0,0.122,0.122,-11.887,-45.703,-117.169,-22.64,-7.047,-4.393,28.04,0.44324,-0.37943,-0.11984,-0.80319,279,0.401,-0.199,0.887,0.122,0.244,0.061,-12.805,-23.654,172.579,-11.96,-6.367,-33.953,30.93,-0.08484,-0.19644,0.12189,-0.96915,273,0.973,-0.136,0.124,-0.244,-0.061,0.0,-47.395,-79.2,-140.554,-30.047,-12.407,-5.107,32.46,-0.00302,-0.65393,0.09448,-0.75055,275
70,1.008,-0.172,-0.077,-0.366,0.183,0.0,-113.791,-79.316,-97.026,-28.1,-11.727,-6.513,30.26,0.12189,0.68829,-0.25211,0.66913,282,0.721,-0.143,0.689,0.061,0.183,0.061,-11.887,-45.698,-117.164,-22.453,-6.347,-4.273,28.04,0.44324,-0.37943,-0.11984,-0.80319,280,0.4,-0.2,0.892,0.0,-0.427,0.061,-12.799,-23.665,172.579,-11.96,-6.367,-33.953,30.93,-0.08569,-0.19623,0.12207,-0.96909,288,0.971,-0.138,0.124,-0.061,0.0,0.0,-47.411,-79.2,-140.548,-30.047,-12.407,-5.107,32.46,-0.00302,-0.65393,0.09448,-0.75055,284
71,1.005,-0.173,-0.078,-0.366,0.305,0.0,-113.774,-79.321,-97.053,-28.1,-11.727,-6.513,30.26,0.12189,0.68829,-0.25211,0.66913,283,0.72,-0.144,0.69,0.122,0.244,0.122,-11.887,-45.692,-117.164,-22.453,-6.347,-4.273,28.04,0.44324,-0.37943,-0.11984,-0.80319,281,0.4,-0.2,0.893,0.183,0.0,0.244,-12.799,-23.665,172.579,-11.96,-6.367,-33.953,30.93,-0.08569,-0.19623,0.12207,-0.96909,289,0.969,-0.137,0.122,0.061,0.244,0.0,-47.411,-79.2,-140.554,-30.047,-12.407,-5.107,32.46,-0.00302,-0.65393,0.09448,-0.75055,285
72,1.003,-0.174,-0.078,-0.122,0.183,0.0,-113.763,-79.321,-97.07,-28.1,-11.727,-6.513,30.26,0.12189,0.68829,-0.25211,0.66913,286,0.719,-0.145,0.689,0.183,0.122,0.244,-11.882,-45.687,-117.158,-22.453,-6.347,-4.273,28.04,0.44324,-0.37943,-0.11984,-0.80319,290,0.398,-0.203,0.893,0.366,0.0,0.305,-12.794,-23.659,172.579,-11.96,-6.367,-33.953,30.93,-0.08569,-0.19623,0.12207,-0.96909,292,0.968,-0.137,0.123,0.0,0.122,0.0,-47.401,-79.195,-140.57,-30.047,-12.407,-5.107,32.46,-0.00302,-0.65393,0.09448,-0.75055,294
73,1.002,-0.174,-0.078,-0.244,0.244,0.0,-113.752,-79.321,-97.086,-28.1,-11.727,-6.513,30.26,0.12189,0.68829,-0.25211,0.66913,287,0.717,-0.147,0.688,0.244,0.061,0.122,-11.882,-45.687,-117.158,-22.453,-6.347,-4.273,28.04,0.44324,-0.37943,-0.11984,-0.80319,291,0.397,-0.206,0.891,0.0,-0.366,0.061,-12.794,-23.67,172.579,-11.96,-6.367,-33.953,30.93,-0.08569,-0.19623,0.12207,-0.96909,293,0.967,-0.136,0.124,0.0,0.0,0.0,-47.401,-79.195,-140.576,-30.047,-12.407,-5.107,32.46,-0.00302,-0.65393,0.09448,-0.75055,295
74,1.003,-0.173,-0.078,-0.305,0.305,0.0,-113.736,-79.321,-97.114,-28.1,-11.727,-6.513,30.26,0.12189,0.68829,-0.25211,0.66913,298,0.716,-0.146,0.688,0.061,0.0,0.0,-11.882,-45.687,-117.153,-22.453,-6.347,-4.273,28.04,0.44354,-0.37921,-0.11987,-0.8031,296,0.397,-0.201,0.89,-0.183,-0.244,-0.183,-12.794,-23.676,172.568,-11.96,-6.367,-33.953,30.93,-0.08569,-0.19623,0.12207,-0.96909,300,0.967,-0.134,0.124,0.0,-0.061,0.0,-47.411,-79.2,-140.576,-30.047,-12.407,-5.107,32.46,-0.00302,-0.65393,0.09448,-0.75055,302
75,1.003,-0.171,-0.077,-0.122,0.122,0.0,-113.719,-79.327,-97.141,-28.1,-11.727,-6.513,30.26,0.12189,0.68829,-0.25211,0.66913,299,0.715,-0.142,0.688,0.0,-0.122,0.0,-11.882,-45.687,-117.153,-22.453,-6.347,-4.273,28.04,0.44354,-0.37921,-0.11987,-0.8031,297,0.396,-0.197,0.888,0.061,0.061,0.0,-12.794,-23.67,172.568,-11.96,-6.367,-33.953,30.93,-0.08569,-0.19623,0.12207,-0.96909,301,0.968,-0.135,0.125,0.0,-0.122,0.0,-47.422,-79.2,-140.565,-30.047,-12.407,-5.107,32.46,-0.00302,-0.65393,0.09448,-0.75055,303
76,1.003,-0.172,-0.076,-0.061,0.061,0.0,-113.714,-79.327,-97.152,-28.1,-11.727,-6.513,30.26,0.12189,0.68829,-0.25211,0.66913,306,0.715,-0.141,0.689,0.0,-0.061,0.0,-11.882,-45.687,-117.153,-22.453,-6.347,-4.273,28.04,0.44354,-0.37921,-0.11987,-0.8031,304,0.396,-0.197,0.891,-0.061,0.0,0.0,-12.794,-23.67,172.562,-11.96,-6.367,-33.953,30.93,-0.08569,-0.19623,0.12207,-0.96909,308,0.969,-0.138,0.125,0.0,-0.244,0.0,-47.439,-79.2,-140.554,-30.047,-12.407,-5.107,32.46,-0.00302,-0.65393,0.09448,-0.75055,310
77,1.005,-0.173,-0.075,-0.122,0.0,0.0,-113.714,-79.327,-97.152,-28.1,-11.727,-6.513,30.26,0.12189,0.68829,-0.25211,0.66913,307,0.717,-0.142,0.689,0.0,-0.122,0.0,-11.876,-45.687,-117.153,-22.453,-6.347,-4.273,28.04,0.44354,-0.37921,-0.11987,-0.8031,305,0.397,-0.199,0.89,-0.122,0.0,-0.061,-12.794,-23.67,172.557,-11.96,-6.367,-33.953,30.93,-0.08569,-0.19623,0.12207,-0.96909,309,0.972,-0.137,0.124,0.0,-0.244,0.0,-47.461,-79.206,-140.532,-30.047,-12.407,-5.107,32.46,-0.00302,-0.65393,0.09448,-0.75055,311
78,1.008,-0.174,-0.075,-0.244,0.0,0.0,-113.719,-79.327,-97.152,-28.1,-11.727,-6.513,30.26,0.12189,0.68829,-0.25211,0.66913,314,0.72,-0.144,0.688,0.061,-0.122,0.061,-11.876,-45.687,-117.153,-22.453,-6.347,-4.273,28.04,0.44354,-0.37921,-0.11987,-0.8031,312,0.4,-0.201,0.89,0.0,0.0,0.0,-12.794,-23.67,172.551,-11.96,-6.367,-33.953,30.93,-0.08569,-0.19623,0.12207,-0.96909,316,0.974,-0.137,0.125,0.0,-0.183,0.0,-47.477,-79.211,-140.515,-30.287,-12.66,-5.44,32.46,-0.00302,-0.65393,0.09448,-0.75055,318
79,1.009,-0.174,-0.074,-0.183,-0.061,0.0,-113.73,-79.327,-97.152,-28.1,-11.727,-6.513,30.26,0.12189,0.68829,-0.25211,0.66913,315,0.722,-0.146,0.689,0.0,-0.122,0.061,-11.876,-45.687,-117.147,-22.453,-6.347,-4.273,28.04,0.44354,-0.37921,-0.11987,-0.8031,313,0.401,-0.202,0.892,-0.244,0.0,0.0,-12.794,-23.665,172.546,-11.96,-6.367,-33.953,30.93,-0.08569,-0.19623,0.12207,-0.96909,317,0.972,-0.135,0.125,-0.061,-0.061,0.0,-47.494,-79.211,-140.51,-30.287,-12.66,-5.44,32.46,-0.00302,-0.65393,0.09448,-0.75055,319
80,1.007,-0.173,-0.074,-0.061,-0.183,0.0,-113.741,-79.327,-97.141,-28.1,-11.727,-6.513,30.26,0.12189,0.68829,-0.25211,0.66913,322,0.721,-0.144,0.689,-0.244,-0.183,0.122,-11.882,-45.687,-117.147,-22.453,-6.347,-4.273,28.04,0.44354,-0.37921,-0.11987,-0.8031,320,0.402,-0.199,0.891,-0.427,0.0,-0.061,-12.799,-23.665,172.54,-11.96,-6.367,-33.953,30.93,-0.08569,-0.19623,0.12207,-0.96909,328,0.971,-0.135,0.125,0.0,0.061,0.0,-47.494,-79.211,-140.51,-30.287,-12.66,-5.44,32.46,-0.00302,-0.65393,0.09448,-0.75055,324
81,1.006,-0.171,-0.075,-0.244,-0.183,0.0,-113.758,-79.327,-97.125,-28.1,-11.727,-6.513,30.26,0.12189,0.68829,-0.25211,0.66913,323,0.721,-0.142,0.688,-0.061,-0.061,0.061,-11.887,-45.692,-117.142,-22.453,-6.347,-4.273,28.04,0.44354,-0.37921,-0.11987,-0.8031,321,0.401,-0.197,0.889,-0.183,0.305,0.0,-12.805,-23.659,172.535,-11.96,-6.367,-33.953,30.93,-0.08569,-0.19623,0.12207,-0.96909,329,0.97,-0.135,0.123,0.183,0.305,0.0,-47.477,-79.206,-140.521,-30.287,-12.66,-5.44,32.46,-0.00302,-0.65393,0.09448,-0.75055,325
82,1.005,-0.172,-0.077,-0.122,-0.183,0.0,-113.774,-79.321,-97.108,-28.287,-11.44,-6.173,30.26,0.12189,0.68829,-0.25211,0.66913,330,0.72,-0.145,0.687,0.122,0.122,0.061,-11.887,-45.687,-117.142,-22.453,-6.347,-4.273,28.04,0.44354,-0.37921,-0.11987,-0.8031,326,0.4,-0.204,0.888,0.183,0.183,0.061,-12.799,-23.654,172.529,-11.667,-6.287,-33.64,30.93,-0.08569,-0.19623,0.12207,-0.96909,332,0.969,-0.138,0.123,0.061,0.183,0.0,-47.461,-79.206,-140.543,-30.287,-12.66,-5.44,32.46,-0.00339,-0.65399,0.09488,-0.75043,334
83,1.003,-0.173,-0.076,-0.305,0.0,0.0,-113.791,-79.321,-97.092,-28.287,-11.44,-6.173,30.26,0.12189,0.68829,-0.25211,0.66913,331,0.717,-0.146,0.688,0.0,0.122,0.0,-11.882,-45.687,-117.142,-22.453,-6.347,-4.273,28.04,0.44354,-0.37921,-0.11987,-0.8031,327,0.396,-0.203,0.891,-0.244,0.0,-0.244,-12.799,-23.659,172.518,-11.667,-6.287,-33.64,30.93,-0.08569,-0.19623,0.12207,-0.96909,333,0.968,-0.138,0.124,0.0,0.183,0.0,-47.45,-79.2,-140.554,-30.287,-12.66,-5.44,32.46,-0.00339,-0.65399,0.09488,-0.75043,335
84,1.003,-0.174,-0.077,-0.305,-0.061,0.0,-113.796,-79.321,-97.092,-28.287,-11.44,-6.173,30.26,0.12189,0.68829,-0.25211,0.66913,338,0.716,-0.145,0.688,0.0,0.061,0.0,-11.882,-45.681,-117.142,-22.453,-6.347,-4.273,28.04,0.44354,-0.37921,-0.11987,-0.8031,336,0.396,-0.197,0.891,0.122,0.305,0.183,-12.799,-23.659,172.518,-11.667,-6.287,-33.64,30.93,-0.08569,-0.19623,0.12207,-0.96909,340,0.969,-0.137,0.122,0.0,0.183,0.0,-47.439,-79.2,-140.57,-30.287,-12.66,-5.44,32.46,-0.00339,-0.65399,0.09488,-0.75043,342
85,1.004,-0.173,-0.078,-0.305,-0.061,0.0,-113.807,-79.321,-97.086,-28.287,-11.44,-6.173,30.26,0.12189,0.68829,-0.25211,0.66913,339,0.718,-0.143,0.689,0.0,0.0,0.061,-11.882,-45.681,-117.142,-22.453,-6.347,-4.273,28.04,0.44354,-0.37921,-0.11987,-0.8031,337,0.399,-0.197,0.891,0.122,0.305,0.183,-12.794,-23.654,172.513,-11.667,-6.287,-33.64,30.93,-0.08569,-0.19623,0.12207,-0.96909,341,0.97,-0.136,0.124,-0.061,0.183,0.0,-47.428,-79.2,-140.587,-30.287,-12.66,-5.44,32.46,-0.00339,-0.65399,0.09488,-0.75043,343
86,1.005,-0.172,-0.078,-0.122,0.0,0.0,-113.818,-79.321,-97.081,-28.287,-11.44,-6.173,30.26,0.12244,0.68814,-0.25259,0.66901,344,0.719,-0.142,0.688,0.0,0.0,0.0,-11.882,-45.681,-117.142,-22.453,-6.347,-4.273,28.04,0.44354,-0.37921,-0.11987,-0.8031,346,0.399,-0.2,0.892,-0.183,-0.061,-0.061,-12.799,-23.648,172.507,-11.667,-6.287,-33.64,30.93,-0.08627,-0.19611,0.12213,-0.96906,348,0.97,-0.134,0.124,0.0,0.122,0.0,-47.422,-79.195,-140.598,-30.287,-12.66,-5.44,32.46,-0.00339,-0.65399,0.09488,-0.75043,350
87,1.005,-0.172,-0.079,-0.061,0.0,0.0,-113.818,-79.321,-97.081,-28.287,-11.44,-6.173,30.26,0.12244,0.68814,-0.25259,0.66901,345,0.72,-0.143,0.688,0.0,0.061,0.0,-11.882,-45.681,-117.142,-22.453,-6.347,-4.273,28.04,0.44354,-0.37921,-0.11987,-0.8031,347,0.4,-0.201,0.892,0.061,-0.122,0.0,-12.799,-23.648,172.507,-11.667,-6.287,-33.64,30.93,-0.08627,-0.19611,0.12213,-0.96906,349,0.97,-0.135,0.123,0.0,0.061,0.0,-47.422,-79.195,-140.603,-30.287,-12.66,-5.44,32.46,-0.00339,-0.65399,0.09488,-0.75043,351
88,1.005,-0.173,-0.079,-0.122,0.0,0.0,-113.824,-79.321,-97.081,-28.287,-11.44,-6.173,30.26,0.12244,0.68814,-0.25259,0.66901,352,0.72,-0.144,0.689,0.061,0.0,0.0,-11.876,-45.676,-117.142,-22.727,-6.88,-3.86,28.04,0.44354,-0.37921,-0.11987,-0.8031,358,0.399,-0.201,0.891,0.0,-0.061,0.0,-12.794,-23.654,172.502,-11.667,-6.287,-33.64,30.93,-0.08627,-0.19611,0.12213,-0.96906,354,0.97,-0.137,0.122,0.061,0.0,0.0,-47.422,-79.195,-140.603,-30.287,-12.66,-5.44,32.46,-0.00339,-0.65399,0.09488,-0.75043,356
89,1.004,-0.174,-0.078,0.0,0.122,0.0,-113.824,-79.321,-97.086,-28.287,-11.44,-6.173,30.26,0.12244,0.68814,-0.25259,0.66901,353,0.719,-0.144,0.689,0.0,-0.061,0.0,-11.876,-45.676,-117.142,-22.727,-6.88,-3.86,28.04,0.44354,-0.37921,-0.11987,-0.8031,359,0.397,-0.2,0.891,-0.305,-0.305,-0.122,-12.794,-23.654,172.496,-11.667,-6.287,-33.64,30.93,-0.08627,-0.19611,0.12213,-0.96906,355,0.969,-0.138,0.122,0.0,0.0,0.0,-47.428,-79.195,-140.609,-30.287,-12.66,-5.44,32.46,-0.00339,-0.65399,0.09488,-0.75043,357
90,1.004,-0.174,-0.078,0.0,0.183,0.0,-113.813,-79.321,-97.097,-28.287,-11.44,-6.173,30.26,0.12244,0.68814,-0.25259,0.66901,360,0.718,-0.144,0.689,-0.061,-0.183,0.0,-11.876,-45.681,-117.142,-22.727,-6.88,-3.86,28.04,0.44366,-0.37918,-0.11993,-0.80307,362,0.399,-0.201,0.891,-0.244,-0.183,0.0,-12.799,-23.659,172.491,-11.667,-6.287,-33.64,30.93,-0.08627,-0.19611,0.12213,-0.96906,364,0.97,-0.138,0.123,-0.061,-0.061,0.0,-47.433,-79.2,-140.603,-30.287,-12.66,-5.44,32.46,-0.00339,-0.65399,0.09488,-0.75043,366
91,1.005,-0.174,-0.077,-0.122,0.244,0.0,-113.802,-79.327,-97.119,-28.287,-11.44,-6.173,30.26,0.12244,0.68814,-0.25259,0.66901,361,0.718,-0.145,0.688,-0.061,-0.244,0.0,-11.876,-45.687,-117.136,-22.727,-6.88,-3.86,28.04,0.44366,-0.37918,-0.11993,-0.80307,363,0.4,-0.2,0.89,-0.305,0.0,0.061,-12.805,-23.659,172.491,-11.667,-6.287,-33.64,30.93,-0.08627,-0.19611,0.12213,-0.96906,365,0.97,-0.138,0.124,-0.061,-0.061,0.0,-47.444,-79.2,-140.598,-30.287,-12.66,-5.44,32.46,-0.00339,-0.65399,0.09488,-0.75043,367
92,1.006,-0.173,-0.075,-0.183,0.183,0.0,-113.785,-79.327,-97.141,-28.287,-11.44,-6.173,30.26,0.12244,0.68814,-0.25259,0.66901,368,0.719,-0.145,0.688,0.0,-0.183,0.0,-11.882,-45.687,-117.136,-22.727,-6.88,-3.86,28.04,0.44366,-0.37918,-0.11993,-0.80307,370,0.4,-0.2,0.889,-0.122,-0.061,0.122,-12.805,-23.659,172.485,-11.667,-6.287,-33.64,30.93,-0.08627,-0.19611,0.12213,-0.96906,372,0.971,-0.136,0.125,0.0,0.0,0.0,-47.455,-79.2,-140.598,-30.287,-12.66,-5.44,32.46,-0.00339,-0.65399,0.09488,-0.75043,374
93,1.006,-0.172,-0.075,-0.122,0.122,0.0,-113.774,-79.327,-97.158,-28.287,-11.44,-6.173,30.26,0.12244,0.68814,-0.25259,0.66901,369,0.72,-0.143,0.688,0.0,-0.122,0.0,-11.882,-45.687,-117.136,-22.727,-6.88,-3.86,28.04,0.44366,-0.37918,-0.11993,-0.80307,371,0.399,-0.201,0.889,0.061,-0.061,0.122,-12.81,-23.659,172.485,-11.667,-6.287,-33.64,30.93,-0.08627,-0.19611,0.12213,-0.96906,373,0.971,-0.136,0.125,0.061,0.0,0.0,-47.455,-79.2,-140.598,-30.287,-12.66,-5.44,32.46,-0.00339,-0.65399,0.09488,-0.75043,375
94,1.006,-0.174,-0.075,0.0,0.122,0.0,-113.763,-79.327,-97.169,-28.287,-11.44,-6.173,30.26,0.12244,0.68814,-0.25259,0.66901,378,0.72,-0.145,0.688,0.061,0.0,0.0,-11.876,-45.687,-117.136,-22.727,-6.88,-3.86,28.04,0.44366,-0.37918,-0.11993,-0.80307,376,0.398,-0.202,0.891,0.061,-0.122,0.061,-12.805,-23.659,172.485,-11.667,-6.287,-33.64,30.93,-0.08627,-0.19611,0.12213,-0.96906,380,0.971,-0.138,0.125,0.122,0.0,0.0,-47.461,-79.2,-140.598,-30.227,-12.453,-5.247,32.46,-0.00339,-0.65399,0.09488,-0.75043,382
95,1.004,-0.174,-0.075,-0.061,0.0,0.0,-113.758,-79.327,-97.18,-28.287,-11.44,-6.173,30.26,0.12244,0.68814,-0.25259,0.66901,379,0.718,-0.145,0.689,0.122,0.0,0.0,-11.876,-45.687,-117.136,-22.727,-6.88,-3.86,28.04,0.44366,-0.37918,-0.11993,-0.80307,377,0.397,-0.2,0.891,0.0,-0.061,0.122,-12.805,-23.665,172.485,-11.667,-6.287,-33.64,30.93,-0.08627,-0.19611,0.12213,-0.96906,381,0.969,-0.138,0.125,0.061,0.061,0.0,-47.455,-79.2,-140.603,-30.227,-12.453,-5.247,32.46,-0.00339,-0.65399,0.09488,-0.75043,383
96,1.005,-0.174,-0.076,-0.122,0.0,0.0,-113.758,-79.327,-97.18,-28.287,-11.44,-6.173,30.26,0.12244,0.68814,-0.25259,0.66901,386,0.717,-0.145,0.69,0.183,0.0,0.0,-11.871,-45.687,-117.136,-22.727,-6.88,-3.86,28.04,0.44366,-0.37918,-0.11993,-0.80307,384,0.399,-0.2,0.89,-0.061,0.183,0.183,-12.805,-23.659,172.485,-11.667,-6.287,-33.64,30.93,-0.08627,-0.19611,0.12213,-0.96906,394,0.969,-0.137,0.124,0.061,0.061,0.0,-47.455,-79.2,-140.609,-30.227,-12.453,-5.247,32.46,-0.00375,-0.65387,0.09521,-0.75052,388
97,1.004,-0.172,-0.076,-0.122,0.0,0.0,-113.758,-79.327,-97.18,-28.287,-11.44,-6.173,30.26,0.12244,0.68814,-0.25259,0.66901,387,0.718,-0.143,0.689,0.122,0.0,0.0,-11.865,-45.687,-117.136,-22.727,-6.88,-3.86,28.04,0.44366,-0.37918,-0.11993,-0.80307,385,0.399,-0.2,0.891,-0.183,0.061,0.0,-12.81,-23.659,172.48,-11.667,-6.287,-33.64,30.93,-0.08627,-0.19611,0.12213,-0.96906,395,0.97,-0.134,0.123,0.0,0.061,0.0,-47.455,-79.2,-140.609,-30.227,-12.453,-5.247,32.46,-0.00375,-0.65387,0.09521,-0.75052,389
98,1.006,-0.172,-0.076,-0.183,0.0,0.0,-113.763,-79.327,-97.18,-28.287,-11.44,-6.173,30.26,0.12244,0.68814,-0.25259,0.66901,392,0.718,-0.143,0.688,0.061,0.0,0.0,-11.865,-45.687,-117.136,-22.727,-6.88,-3.86,28.04,0.44366,-0.37918,-0.11993,-0.80307,390,0.401,-0.199,0.889,-0.061,0.061,0.0,-12.81,-23.654,172.48,-11.667,-6.287,-33.64,30.93,-0.08627,-0.19611,0.12213,-0.96906,402,0.971,-0.134,0.124,0.0,0.0,0.0,-47.455,-79.2,-140.614,-30.227,-12.453,-5.247,32.46,-0.00375,-0.65387,0.09521,-0.75052,396
99,1.006,-0.171,-0.076,-0.122,0.061,0.0,-113.763,-79.327,-97.18,-28.287,-11.44,-6.173,30.26,0.12244,0.68814,-0.25259,0.66901,393,0.72,-0.141,0.688,-0.061,0.0,0.0,-11.865,-45.681,-117.136,-22.727,-6.88,-3.86,28.04,0.44366,-0.37918,-0.11993,-0.80307,391,0.399,-0.203,0.888,0.0,0.732,0.0,-12.81,-23.648,172.474,-11.667,-6.287,-33.64,30.93,-0.08627,-0.19611,0.12213,-0.96906,403,0.97,-0.135,0.124,-0.061,0.0,0.0,-47.461,-79.2,-140.614,-30.227,-12.453,-5.247,32.46,-0.00375,-0.65387,0.09521,-0.75052,397
100,1.004,-0.173,-0.076,-0.122,0.061,0.0,-113.758,-79.327,-97.185,-28.12,-11.473,-6.693,30.26,0.12244,0.68814,-0.25259,0.66901,400,0.72,-0.144,0.688,0.0,0.0,0.0,-11.865,-45.681,-117.136,-22.727,-6.88,-3.86,28.04,0.44366,-0.37918,-0.11993,-0.80307,398,0.396,-0.205,0.891,-0.244,0.427,0.0,-12.805,-23.637,172.463,-11.74,-6.727,-34.5,30.93,-0.08627,-0.19611,0.12213,-0.96906,408,0.97,-0.138,0.124,-0.061,0.061,0.0,-47.461,-79.2,-140.614,-30.227,-12.453,-5.247,32.46,-0.00375,-0.65387,0.09521,-0.75052,404
101,1.005,-0.174,-0.077,-0.122,0.122,0.0,-113.758,-79.332,-97.191,-28.12,-11.473,-6.693,30.26,0.12244,0.68814,-0.25259,0.66901,401,0.718,-0.147,0.688,0.0,0.061,0.0,-11.865,-45.681,-117.136,-22.727,-6.88,-3.86,28.04,0.44366,-0.37918,-0.11993,-0.80307,399,0.397,-0.204,0.893,-0.427,0.244,0.0,-12.81,-23.632,172.463,-11.74,-6.727,-34.5,30.93,-0.08627,-0.19611,0.12213,-0.96906,409,0.97,-0.139,0.123,0.0,0.122,0.0,-47.455,-79.2,-140.625,-30.227,-12.453,-5.247,32.46,-0.00375,-0.65387,0.09521,-0.75052,405
102,1.005,-0.174,-0.078,-0.122,0.244,0.0,-113.747,-79.332,-97.207,-28.12,-11.473,-6.693,30.26,0.12244,0.68814,-0.25259,0.66901,406,0.718,-0.148,0.689,0.0,0.0,0.0,-11.865,-45.681,-117.136,-22.727,-6.88,-3.86,28.04,0.44366,-0.37918,-0.11993,-0.80307,410,0.398,-0.201,0.892,-0.305,0.061,0.0,-12.821,-23.626,172.458,-11.74,-6.727,-34.5,30.93,-0.08627,-0.19611,0.12213,-0.96906,416,0.97,-0.139,0.123,-0.061,0.061,0.0,-47.455,-79.2,-140.63,-30.227,-12.453,-5.247,32.46,-0.00375,-0.65387,0.09521,-0.75052,412
103,1.004,-0.174,-0.077,-0.244,0.183,0.0,-113.725,-79.332,-97.229,-28.12,-11.473,-6.693,30.26,0.12244,0.68814,-0.25259,0.66901,407,0.719,-0.146,0.69,0.0,-0.122,0.0,-11.865,-45.681,-117.136,-22.727,-6.88,-3.86,28.04,0.44366,-0.37918,-0.11993,-0.80307,411,0.4,-0.2,0.89,-0.305,0.305,0.0,-12.821,-23.621,172.452,-11.74,-6.727,-34.5,30.93,-0.08627,-0.19611,0.12213,-0.96906,417,0.971,-0.138,0.121,-0.183,0.0,0.0,-47.461,-79.2,-140.63,-30.227,-12.453,-5.247,32.46,-0.00375,-0.65387,0.09521,-0.75052,413
104,1.006,-0.174,-0.077,-0.122,0.244,0.0,-113.714,-79.332,-97.251,-28.12,-11.473,-6.693,30.26,0.12286,0.6879,-0.25293,0.66904,418,0.72,-0.144,0.688,0.122,-0.244,0.0,-11.86,-45.687,-117.136,-22.46,-6.733,-3.787,28.04,0.44366,-0.37918,-0.11993,-0.80307,414,0.402,-0.202,0.888,-0.427,0.488,0.0,-12.827,-23.615,172.447,-11.74,-6.727,-34.5,30.93,-0.08685,-0.19568,0.12253,-0.96906,420,0.973,-0.135,0.123,-0.122,0.183,0.0,-47.461,-79.195,-140.641,-30.227,-12.453,-5.247,32.46,-0.00375,-0.65387,0.09521,-0.75052,422
105,1.007,-0.173,-0.077,0.061,0.244,0.0,-113.692,-79.338,-97.278,-28.12,-11.473,-6.693,30.26,0.12286,0.6879,-0.25293,0.66904,419,0.722,-0.143,0.688,0.183,-0.183,0.0,-11.86,-45.687,-117.136,-22.46,-6.733,-3.787,28.04,0.44366,-0.37918,-0.11993,-0.80307,415,0.402,-0.2,0.89,-0.122,0.732,0.0,-12.832,-23.604,172.441,-11.74,-6.727,-34.5,30.93,-0.08685,-0.19568,0.12253,-0.96906,421,0.972,-0.135,0.124,0.0,0.122,0.0,-47.461,-79.195,-140.652,-30.227,-12.453,-5.247,32.46,-0.00375,-0.65387,0.09521,-0.75052,423
106,1.005,-0.173,-0.077,-0.061,0.183,0.0,-113.676,-79.338,-97.295,-28.12,-11.473,-6.693,30.26,0.12286,0.6879,-0.25293,0.66904,426,0.722,-0.143,0.688,0.244,-0.183,0.0,-11.854,-45.692,-117.131,-22.46,-6.733,-3.787,28.04,0.44366,-0.37918,-0.11993,-0.80307,424,0.397,-0.202,0.887,0.305,0.488,0.0,-12.832,-23.593,172.436,-11.74,-6.727,-34.5,30.93,-0.08685,-0.19568,0.12253,-0.96906,430,0.97,-0.138,0.123,0.244,0.244,0.0,-47.444,-79.195,-140.669,-30.227,-12.453,-5.247,32.46,-0.00375,-0.65387,0.09521,-0.75052,428
107,1.003,-0.175,-0.076,-0.061,0.122,0.0,-113.665,-79.338,-97.311,-28.12,-11.473,-6.693,30.26,0.12286,0.6879,-0.25293,0.66904,427,0.719,-0.146,0.685,0.427,-0.061,0.0,-11.849,-45.692,-117.131,-22.46,-6.733,-3.787,28.04,0.44366,-0.37918,-0.11993,-0.80307,425,0.396,-0.199,0.888,-0.366,0.671,0.366,-12.827,-23.582,172.43,-11.74,-6.727,-34.5,30.93,-0.08685,-0.19568,0.12253,-0.96906,431,0.967,-0.14,0.124,0.488,0.427,0.0,-47.411,-79.189,-140.702,-30.227,-12.453,-5.247,32.46,-0.00375,-0.65387,0.09521,-0.75052,429
108,1.003,-0.175,-0.073,0.0,0.0,0.0,-113.659,-79.338,-97.317,-28.12,-11.473,-6.693,30.26,0.12286,0.6879,-0.25293,0.66904,432,0.716,-0.145,0.686,0.427,0.0,0.0,-11.838,-45.692,-117.131,-22.46,-6.733,-3.787,28.04,0.44379,-0.37912,-0.12021,-0.80298,438,0.396,-0.193,0.889,-0.244,0.793,0.671,-12.838,-23.566,172.436,-11.74,-6.727,-34.5,30.93,-0.08685,-0.19568,0.12253,-0.96906,434,0.969,-0.138,0.124,0.244,0.366,0.0,-47.39,-79.184,-140.729,-30.227,-12.453,-5.247,32.46,-0.00375,-0.65387,0.09521,-0.75052,436
109,1.005,-0.174,-0.075,-0.183,0.305,0.0,-113.643,-79.338,-97.333,-28.12,-11.473,-6.693,30.26,0.12286,0.6879,-0.25293,0.66904,433,0.717,-0.138,0.688,0.305,0.0,0.305,-11.838,-45.692,-117.125,-22.46,-6.733,-3.787,28.04,0.44379,-0.37912,-0.12021,-0.80298,439,0.395,-0.198,0.893,0.0,-0.183,0.732,-12.843,-23.555,172.441,-11.74,-6.727,-34.5,30.93,-0.08685,-0.19568,0.12253,-0.96906,435,0.971,-0.133,0.126,0.061,0.244,0.0,-47.373,-79.178,-140.751,-30.227,-12.453,-5.247,32.46,-0.00375,-0.65387,0.09521,-0.75052,437
110,1.007,-0.171,-0.076,-0.122,0.366,0.0,-113.615,-79.343,-97.366,-28.12,-11.473,-6.693,30.26,0.12286,0.6879,-0.25293,0.66904,440,0.718,-0.138,0.689,0.244,0.122,0.427,-11.838,-45.687,-117.114,-22.46,-6.733,-3.787,28.04,0.44379,-0.37912,-0.12021,-0.80298,442,0.396,-0.201,0.895,-0.305,0.0,0.488,-12.849,-23.555,172.452,-11.74,-6.727,-34.5,30.93,-0.08685,-0.19568,0.12253,-0.96906,444,0.972,-0.134,0.126,-0.122,0.0,0.0,-47.373,-79.178,-140.757,-30.26,-12.133,-6.06,32.46,-0.00375,-0.65387,0.09521,-0.75052,446
111,1.007,-0.171,-0.077,-0.122,0.488,0.0,-113.577,-79.343,-97.41,-28.12,-11.473,-6.693,30.26,0.12286,0.6879,-0.25293,0.66904,441,0.719,-0.141,0.691,0.061,0.122,0.427,-11.843,-45.681,-117.103,-22.46,-6.733,-3.787,28.04,0.44379,-0.37912,-0.12021,-0.80298,443,0.396,-0.204,0.893,-0.122,0.671,0.793,-12.854,-23.549,172.463,-11.74,-6.727,-34.5,30.93,-0.08685,-0.19568,0.12253,-0.96906,445,0.971,-0.136,0.126,-0.061,0.0,0.0,-47.373,-79.178,-140.757,-30.26,-12.133,-6.06,32.46,-0.00375,-0.65387,0.09521,-0.75052,447
112,1.004,-0.172,-0.075,-0.122,0.305,0.0,-113.544,-79.349,-97.449,-28.12,-11.473,-6.693,30.26,0.12286,0.6879,-0.25293,0.66904,450,0.719,-0.144,0.692,0.061,0.122,0.366,-11.849,-45.676,-117.092,-22.46,-6.733,-3.787,28.04,0.44379,-0.37912,-0.12021,-0.80298,448,0.394,-0.207,0.893,-0.183,0.488,0.549,-12.859,-23.533,172.469,-11.74,-6.727,-34.5,30.93,-0.08685,-0.19568,0.12253,-0.96906,452,0.968,-0.136,0.125,0.0,0.183,0.0,-47.362,-79.178,-140.768,-30.26,-12.133,-6.06,32.46,-0.00421,-0.65363,0.09564,-0.75067,454
113,1.002,-0.172,-0.076,-0.122,0.122,0.0,-113.527,-79.349,-97.471,-28.12,-11.473,-6.693,30.26,0.12286,0.6879,-0.25293,0.66904,451,0.718,-0.145,0.689,0.061,0.122,0.244,-11.849,-45.67,-117.087,-22.46,-6.733,-3.787,28.04,0.44379,-0.37912,-0.12021,-0.80298,449,0.392,-0.207,0.892,-0.366,-0.244,-0.183,-12.865,-23.527,172.474,-11.74,-6.727,-34.5,30.93,-0.08685,-0.19568,0.12253,-0.96906,453,0.967,-0.136,0.123,-0.061,0.061,0.0,-47.362,-79.178,-140.773,-30.26,-12.133,-6.06,32.46,-0.00421,-0.65363,0.09564,-0.75067,455
114,1.002,-0.172,-0.076,-0.244,0.305,0.0,-113.511,-79.349,-97.493,-28.12,-11.473,-6.693,30.26,0.12286,0.6879,-0.25293,0.66904,458,0.714,-0.146,0.689,0.0,0.122,0.0,-11.849,-45.67,-117.087,-22.46,-6.733,-3.787,28.04,0.44379,-0.37912,-0.12021,-0.80298,456,0.395,-0.204,0.891,-0.122,-0.366,-0.366,-12.87,-23.533,172.469,-11.74,-6.727,-34.5,30.93,-0.08685,-0.19568,0.12253,-0.96906,460,0.968,-0.135,0.125,-0.244,-0.122,0.0,-47.379,-79.178,-140.768,-30.26,-12.133,-6.06,32.46,-0.00421,-0.65363,0.09564,-0.75067,462
115,1.004,-0.171,-0.075,-0.305,0.366,0.0,-113.489,-79.354,-97.526,-28.12,-11.473,-6.693,30.26,0.12286,0.6879,-0.25293,0.66904,459,0.715,-0.146,0.689,-0.061,0.0,-0.122,-11.849,-45.67,-117.092,-22.46,-6.733,-3.787,28.04,0.44379,-0.37912,-0.12021,-0.80298,457,0.396,-0.202,0.89,0.0,0.061,-0.305,-12.87,-23.538,172.458,-11.74,-6.727,-34.5,30.93,-0.08685,-0.19568,0.12253,-0.96906,461,0.969,-0.136,0.125,-0.244,-0.122,0.0,-47.395,-79.184,-140.757,-30.26,-12.133,-6.06,32.46,-0.00421,-0.65363,0.09564,-0.75067,463
116,1.004,-0.173,-0.074,-0.183,0.244,0.0,-113.467,-79.354,-97.553,-28.12,-11.473,-6.693,30.26,0.12286,0.6879,-0.25293,0.66904,466,0.717,-0.145,0.688,0.0,-0.061,-0.183,-11.843,-45.67,-117.098,-22.46,-6.733,-3.787,28.04,0.44379,-0.37912,-0.12021,-0.80298,464,0.396,-0.199,0.889,-0.061,0.183,-0.366,-12.865,-23.533,172.447,-11.74,-6.727,-34.5,30.93,-0.08685,-0.19568,0.12253,-0.96906,470,0.968,-0.137,0.125,-0.122,-0.122,0.0,-47.406,-79.184,-140.746,-30.26,-12.133,-6.06,32.46,-0.00421,-0.65363,0.09564,-0.75067,468
117,1.004,-0.173,-0.075,-0.183,0.122,0.0,-113.456,-79.36,-97.575,-28.12,-11.473,-6.693,30.26,0.12286,0.6879,-0.25293,0.66904,467,0.718,-0.143,0.688,0.0,0.0,-0.183,-11.838,-45.67,-117.103,-22.46,-6.733,-3.787,28.04,0.44379,-0.37912,-0.12021,-0.80298,465,0.396,-0.201,0.889,0.366,0.427,-0.061,-12.859,-23.527,172.436,-11.74,-6.727,-34.5,30.93,-0.08685,-0.19568,0.12253,-0.96906,471,0.97,-0.138,0.124,0.0,-0.061,0.0,-47.411,-79.184,-140.74,-30.26,-12.133,-6.06,32.46,-0.00421,-0.65363,0.09564,-0.75067,469
118,1.004,-0.174,-0.075,-0.183,0.061,0.0,-113.45,-79.36,-97.581,-28.18,-11.687,-7.467,30.26,0.12286,0.6879,-0.25293,0.66904,478,0.718,-0.142,0.688,0.122,0.061,-0.061,-11.832,-45.665,-117.103,-22.46,-6.733,-3.787,28.04,0.44379,-0.37912,-0.12021,-0.80298,476,0.396,-0.204,0.89,0.427,0.61,-0.122,-12.849,-23.522,172.43,-11.227,-6.473,-33.667,30.93,-0.08685,-0.19568,0.12253,-0.96906,472,0.97,-0.138,0.123,-0.061,-0.122,0.0,-47.422,-79.184,-140.735,-30.26,-12.133,-6.06,32.46,-0.00421,-0.65363,0.09564,-0.75067,474
119,1.006,-0.174,-0.075,-0.305,0.305,0.0,-113.439,-79.36,-97.597,-28.18,-11.687,-7.467,30.26,0.12286,0.6879,-0.25293,0.66904,479,0.719,-0.143,0.688,0.061,0.061,0.0,-11.832,-45.665,-117.103,-22.46,-6.733,-3.787,28.04,0.44379,-0.37912,-0.12021,-0.80298,477,0.396,-0.204,0.893,-0.183,0.549,-0.427,-12.843,-23.505,172.419,-11.227,-6.473,-33.667,30.93,-0.08685,-0.19568,0.12253,-0.96906,473,0.972,-0.138,0.123,-0.244,-0.183,0.0,-47.45,-79.189,-140.718,-30.26,-12.133,-6.06,32.46,-0.00421,-0.65363,0.09564,-0.75067,475
120,1.008,-0.174,-0.074,-0.488,0.366,0.0,-113.412,-79.36,-97.635,-28.18,-11.687,-7.467,30.26,0.12357,0.68732,-0.25336,0.66934,480,0.72,-0.145,0.689,0.0,0.183,-0.122,-11.827,-45.659,-117.109,-22.46,-6.72,-3.42,28.04,0.44379,-0.37912,-0.12021,-0.80298,482,0.396,-0.203,0.892,-0.183,0.549,-0.427,-12.838,-23.5,172.408,-11.227,-6.473,-33.667,30.93,-0.08685,-0.19568,0.12253,-0.96906,484,0.973,-0.137,0.127,-0.305,-0.122,0.0,-47.466,-79.189,-140.707,-30.26,-12.133,-6.06,32.46,-0.00421,-0.65363,0.09564,-0.75067,486
121,1.006,-0.174,-0.073,-0.427,0.122,0.0,-113.401,-79.365,-97.657,-28.18,-11.687,-7.467,30.26,0.12357,0.68732,-0.25336,0.66934,481,0.72,-0.145,0.691,-0.122,0.183,-0.183,-11.827,-45.654,-117.114,-22.46,-6.72,-3.42,28.04,0.44379,-0.37912,-0.12021,-0.80298,483,0.397,-0.201,0.893,-0.427,1.038,-0.488,-12.838,-23.489,172.392,-11.227,-6.473,-33.667,30.93,-0.08685,-0.19568,0.12253,-0.96906,485,0.971,-0.138,0.126,-0.061,0.0,0.0,-47.466,-79.189,-140.707,-30.26,-12.133,-6.06,32.46,-0.00421,-0.65363,0.09564,-0.75067,487
122,1.005,-0.174,-0.071,-0.488,-0.061,0.0,-113.406,-79.365,-97.663,-28.18,-11.687,-7.467,30.26,0.12357,0.68732,-0.25336,0.66934,488,0.719,-0.145,0.689,-0.122,0.244,-0.183,-11.821,-45.648,-117.12,-22.46,-6.72,-3.42,28.04,0.44379,-0.37912,-0.12021,-0.80298,490,0.396,-0.201,0.89,-0.244,1.404,-0.244,-12.838,-23.467,172.375,-11.227,-6.473,-33.667,30.93,-0.08722,-0.19455,0.12265,-0.96924,498,0.97,-0.138,0.123,0.183,0.244,0.0,-47.45,-79.184,-140.729,-30.26,-12.133,-6.06,32.46,-0.00421,-0.65363,0.09564,-0.75067,492
123,1.005,-0.174,-0.074,-0.244,0.0,0.0,-113.412,-79.365,-97.657,-28.18,-11.687,-7.467,30.26,0.12357,0.68732,-0.25336,0.66934,489,0.719,-0.144,0.688,0.0,0.244,-0.122,-11.821,-45.643,-117.125,-22.46,-6.72,-3.42,28.04,0.44379,-0.37912,-0.12021,-0.80298,491,0.395,-0.2,0.89,-0.366,0.977,-0.183,-12.838,-23.439,172.37,-11.227,-6.473,-33.667,30.93,-0.08722,-0.19455,0.12265,-0.96924,499,0.97,-0.139,0.124,0.0,0.244,0.0,-47.433,-79.184,-140.746,-30.26,-12.133,-6.06,32.46,-0.00421,-0.65363,0.09564,-0.75067,493
124,1.004,-0.175,-0.074,-0.488,0.122,0.0,-113.406,-79.365,-97.663,-28.18,-11.687,-7.467,30.26,0.12357,0.68732,-0.25336,0.66934,496,0.718,-0.144,0.688,0.0,0.305,0.0,-11.816,-45.637,-117.125,-22.46,-6.72,-3.42,28.04,0.44406,-0.37866,-0.12021,-0.80304,494,0.396,-0.2,0.89,0.0,1.038,0.122,-12.843,-23.423,172.348,-11.227,-6.473,-33.667,30.93,-0.08722,-0.19455,0.12265,-0.96924,500,0.97,-0.138,0.124,-0.061,0.305,0.0,-47.417,-79.178,-140.773,-30.173,-12.167,-5.913,32.46,-0.00421,-0.65363,0.09564,-0.75067,502
125,1.004,-0.174,-0.076,-0.61,0.061,0.0,-113.406,-79.365,-97.674,-28.18,-11.687,-7.467,30.26,0.12357,0.68732,-0.25336,0.66934,497,0.718,-0.144,0.689,0.0,0.366,0.122,-11.821,-45.632,-117.125,-22.46,-6.72,-3.42,28.04,0.44406,-0.37866,-0.12021,-0.80304,495,0.396,-0.205,0.891,0.427,1.526,0.488,-12.838,-23.401,172.337,-11.227,-6.473,-33.667,30.93,-0.08722,-0.19455,0.12265,-0.96924,501,0.969,-0.138,0.121,-0.061,0.305,0.0,-47.401,-79.173,-140.795,-30.173,-12.167,-5.913,32.46,-0.00421,-0.65363,0.09564,-0.75067,503
126,1.004,-0.174,-0.078,-0.671,0.183,0.0,-113.406,-79.365,-97.685,-28.18,-11.687,-7.467,30.26,0.12357,0.68732,-0.25336,0.66934,506,0.719,-0.146,0.688,0.366,0.366,0.305,-11.816,-45.621,-117.12,-22.46,-6.72,-3.42,28.04,0.44406,-0.37866,-0.12021,-0.80304,504,0.393,-0.206,0.893,0.061,1.038,0.183,-12.832,-23.373,172.343,-11.227,-6.473,-33.667,30.93,-0.08722,-0.19455,0.12265,-0.96924,508,0.97,-0.137,0.122,0.061,0.305,0.0,-47.384,-79.167,-140.817,-30.173,-12.167,-5.913,32.46,-0.00464,-0.65353,0.09613,-0.75067,510
127,1.005,-0.173,-0.078,-0.671,0.366,0.0,-113.395,-79.365,-97.712,-28.18,-11.687,-7.467,30.26,0.12357,0.68732,-0.25336,0.66934,507,0.718,-0.146,0.688,0.549,0.427,0.183,-11.805,-45.61,-117.114,-22.46,-6.72,-3.42,28.04,0.44406,-0.37866,-0.12021,-0.80304,505,0.392,-0.201,0.895,-0.244,0.854,-0.122,-12.832,-23.351,172.337,-11.227,-6.473,-33.667,30.93,-0.08722,-0.19455,0.12265,-0.96924,509,0.97,-0.135,0.123,0.061,0.244,0.0,-47.373,-79.167,-140.839,-30.173,-12.167,-5.913,32.46,-0.00464,-0.65353,0.09613,-0.75067,511
128,1.005,-0.173,-0.077,-0.671,0.427,0.0,-113.368,-79.371,-97.751,-28.18,-11.687,-7.467,30.26,0.12357,0.68732,-0.25336,0.66934,512,0.718,-0.144,0.69,0.366,0.366,0.0,-11.799,-45.604,-117.12,-22.46,-6.72,-3.42,28.04,0.44406,-0.37866,-0.12021,-0.80304,514,0.394,-0.197,0.896,-0.305,1.221,-0.122,-12.832,-23.335,172.321,-11.227,-6.473,-33.667,30.93,-0.08722,-0.19455,0.12265,-0.96924,516,0.97,-0.134,0.123,0.0,0.0,0.0,-47.379,-79.167,-140.839,-30.173,-12.167,-5.913,32.46,-0.00464,-0.65353,0.09613,-0.75067,518
129,1.005,-0.172,-0.076,-0.61,0.61,0.0,-113.335,-79.371,-97.8,-28.18,-11.687,-7.467,30.26,0.12357,0.68732,-0.25336,0.66934,513,0.718,-0.14,0.691,0.183,0.244,0.0,-11.794,-45.599,-117.12,-22.46,-6.72,-3.42,28.04,0.44406,-0.37866,-0.12021,-0.80304,515,0.393,-0.196,0.892,-0.427,1.343,0.0,-12.838,-23.313,172.315,-11.227,-6.473,-33.667,30.93,-0.08722,-0.19455,0.12265,-0.96924,517,0.97,-0.135,0.124,-0.061,-0.061,0.0,-47.39,-79.167,-140.834,-30.173,-12.167,-5.913,32.46,-0.00464,-0.65353,0.09613,-0.75067,519
130,1.005,-0.172,-0.075,-0.549,0.61,0.0,-113.291,-79.376,-97.866,-28.18,-11.687,-7.467,30.26,0.12357,0.68732,-0.25336,0.66934,524,0.718,-0.139,0.69,0.183,0.061,0.061,-11.788,-45.599,-117.12,-22.46,-6.72,-3.42,28.04,0.44406,-0.37866,-0.12021,-0.80304,520,0.393,-0.197,0.892,-0.183,1.221,0.122,-12.838,-23.286,172.326,-11.227,-6.473,-33.667,30.93,-0.08722,-0.19455,0.12265,-0.96924,522,0.97,-0.134,0.125,-0.061,-0.061,0.0,-47.401,-79.173,-140.828,-30.173,-12.167,-5.913,32.46,-0.00464,-0.65353,0.09613,-0.75067,526
131,1.005,-0.172,-0.074,-0.488,0.671,0.0,-113.247,-79.382,-97.927,-28.18,-11.687,-7.467,30.26,0.12357,0.68732,-0.25336,0.66934,525,0.718,-0.138,0.689,0.183,0.122,0.183,-11.788,-45.593,-117.114,-22.46,-6.72,-3.42,28.04,0.44406,-0.37866,-0.12021,-0.80304,521,0.392,-0.204,0.891,0.427,1.038,0.244,-12.838,-23.264,172.337,-11.227,-6.473,-33.667,30.93,-0.08722,-0.19455,0.12265,-0.96924,523,0.971,-0.135,0.125,-0.122,0.0,0.0,-47.411,-79.173,-140.823,-30.173,-12.167,-5.913,32.46,-0.00464,-0.65353,0.09613,-0.75067,527
132,1.006,-0.172,-0.073,-0.488,0.61,0.0,-113.198,-79.387,-97.993,-28.18,-11.687,-7.467,30.26,0.12357,0.68732,-0.25336,0.66934,530,0.719,-0.141,0.689,0.183,0.244,0.305,-11.788,-45.588,-117.109,-22.46,-6.72,-3.42,28.04,0.44406,-0.37866,-0.12021,-0.80304,528,0.39,-0.207,0.892,0.305,0.977,0.0,-12.827,-23.242,172.337,-11.227,-6.473,-33.667,30.93,-0.08722,-0.19455,0.12265,-0.96924,538,0.97,-0.136,0.125,-0.061,0.061,0.0,-47.417,-79.173,-140.828,-30.173,-12.167,-5.913,32.46,-0.00464,-0.65353,0.09613,-0.75067,532
133,1.005,-0.171,-0.073,-0.427,0.61,0.0,-113.148,-79.393,-98.053,-28.18,-11.687,-7.467,30.26,0.12357,0.68732,-0.25336,0.66934,531,0.715,-0.145,0.689,0.244,0.305,0.122,-11.783,-45.582,-117.109,-22.46,-6.72,-3.42,28.04,0.44406,-0.37866,-0.12021,-0.80304,529,0.388,-0.205,0.895,0.0,1.038,-0.305,-12.816,-23.225,172.343,-11.227,-6.473,-33.667,30.93,-0.08722,-0.19455,0.12265,-0.96924,539,0.969,-0.137,0.126,0.0,0.061,0.0,-47.411,-79.173,-140.828,-30.173,-12.167,-5.913,32.46,-0.00464,-0.65353,0.09613,-0.75067,533
134,1.005,-0.172,-0.072,-0.427,0.549,0.0,-113.104,-79.393,-98.108,-28.18,-11.687,-7.467,30.26,0.12357,0.68732,-0.25336,0.66934,536,0.715,-0.143,0.691,0.0,0.244,-0.183,-11.777,-45.577,-117.109,-22.46,-6.72,-3.42,28.04,0.44406,-0.37866,-0.12021,-0.80304,534,0.389,-0.199,0.896,-0.366,0.977,-0.366,-12.816,-23.209,172.332,-11.307,-6.353,-34.16,30.93,-0.08722,-0.19455,0.12265,-0.96924,540,0.97,-0.137,0.126,-0.061,0.061,0.0,-47.406,-79.173,-140.834,-30.173,-12.167,-5.913,32.46,-0.00464,-0.65353,0.09613,-0.75067,542
135,1.005,-0.172,-0.072,-0.488,0.427,0.0,-113.066,-79.398,-98.157,-28.18,-11.687,-7.467,30.26,0.12357,0.68732,-0.25336,0.66934,537,0.715,-0.141,0.692,0.122,0.183,0.0,-11.772,-45.571,-117.114,-22.46,-6.72,-3.42,28.04,0.44406,-0.37866,-0.12021,-0.80304,535,0.389,-0.197,0.894,0.0,1.16,-0.061,-12.816,-23.187,172.299,-11.307,-6.353,-34.16,30.93,-0.08722,-0.19455,0.12265,-0.96924,541,0.97,-0.137,0.126,0.0,0.0,0.0,-47.406,-79.173,-140.839,-30.173,-12.167,-5.913,32.46,-0.00464,-0.65353,0.09613,-0.75067,543
136,1.005,-0.173,-0.071,-0.549,0.305,0.0,-113.044,-79.404,-98.196,-28.267,-11.593,-6.333,30.26,0.12357,0.68732,-0.25336,0.66934,548,0.717,-0.141,0.691,0.366,0.244,0.122,-11.766,-45.566,-117.114,-22.46,-6.72,-3.42,28.04,0.44406,-0.37866,-0.12021,-0.80304,546,0.389,-0.199,0.895,0.183,1.099,0.183,-12.81,-23.165,172.266,-11.307,-6.353,-34.16,30.93,-0.08722,-0.19455,0.12265,-0.96924,550,0.97,-0.136,0.126,0.061,0.0,0.0,-47.406,-79.173,-140.839,-30.173,-12.167,-5.913,32.46,-0.00464,-0.65353,0.09613,-0.75067,544
137,1.005,-0.173,-0.072,-0.549,0.122,0.0,-113.038,-79.404,-98.212,-28.267,-11.593,-6.333,30.26,0.12357,0.68732,-0.25336,0.66934,549,0.717,-0.142,0.691,0.305,0.244,0.183,-11.761,-45.56,-117.114,-22.46,-6.72,-3.42,28.04,0.44406,-0.37866,-0.12021,-0.80304,547,0.39,-0.2,0.895,-0.061,1.16,0.061,-12.805,-23.143,172.238,-11.307,-6.353,-34.16,30.93,-0.08722,-0.19455,0.12265,-0.96924,551,0.97,-0.136,0.125,0.122,0.061,0.0,-47.401,-79.173,-140.839,-30.173,-12.167,-5.913,32.46,-0.00464,-0.65353,0.09613,-0.75067,545
138,1.005,-0.173,-0.073,-0.366,0.061,0.0,-113.038,-79.404,-98.218,-28.267,-11.593,-6.333,30.26,0.12497,0.68643,-0.25443,0.66959,554,0.718,-0.14,0.691,0.183,0.244,0.183,-11.755,-45.555,-117.109,-22.253,-6.527,-3.573,28.04,0.44406,-0.37866,-0.12021,-0.80304,552,0.391,-0.199,0.894,-0.122,1.404,0.122,-12.805,-23.121,172.211,-11.307,-6.353,-34.16,30.93,-0.08832,-0.19131,0.1225,-0.96979,556,0.97,-0.136,0.124,0.122,0.061,0.0,-47.395,-79.173,-140.845,-30.173,-12.167,-5.913,32.46,-0.00464,-0.65353,0.09613,-0.75067,558
139,1.005,-0.174,-0.073,-0.305,0.0,0.0,-113.044,-79.404,-98.223,-28.267,-11.593,-6.333,30.26,0.12497,0.68643,-0.25443,0.66959,555,0.717,-0.142,0.69,0.244,0.305,0.244,-11.755,-45.549,-117.103,-22.253,-6.527,-3.573,28.04,0.44406,-0.37866,-0.12021,-0.80304,553,0.388,-0.203,0.893,0.427,0.793,0.366,-12.799,-23.093,172.205,-11.307,-6.353,-34.16,30.93,-0.08832,-0.19131,0.1225,-0.96979,557,0.969,-0.137,0.124,0.122,0.061,0.0,-47.39,-79.173,-140.85,-30.173,-12.167,-5.913,32.46,-0.00464,-0.65353,0.09613,-0.75067,559
140,1.005,-0.173,-0.073,-0.244,0.061,0.0,-113.038,-79.404,-98.229,-28.267,-11.593,-6.333,30.26,0.12497,0.68643,-0.25443,0.66959,564,0.715,-0.146,0.69,0.305,0.427,0.244,-11.75,-45.538,-117.103,-22.253,-6.527,-3.573,28.04,0.44406,-0.37866,-0.12021,-0.80304,560,0.385,-0.208,0.895,0.488,0.305,0.244,-12.788,-23.077,172.222,-11.307,-6.353,-34.16,30.93,-0.08832,-0.19131,0.1225,-0.96979,562,0.968,-0.138,0.124,0.061,0.061,0.0,-47.384,-79.173,-140.856,-30.353,-12.373,-4.76,32.46,-0.00464,-0.65353,0.09613,-0.75067,566
141,1.004,-0.174,-0.074,-0.427,0.122,0.0,-113.038,-79.404,-98.234,-28.267,-11.593,-6.333,30.26,0.12497,0.68643,-0.25443,0.66959,565,0.714,-0.146,0.691,0.183,0.305,0.061,-11.744,-45.533,-117.098,-22.253,-6.527,-3.573,28.04,0.44406,-0.37866,-0.12021,-0.80304,561,0.386,-0.205,0.897,-0.061,0.366,0.0,-12.783,-23.071,172.244,-11.307,-6.353,-34.16,30.93,-0.08832,-0.19131,0.1225,-0.96979,563,0.969,-0.138,0.124,-0.122,0.0,0.0,-47.384,-79.173,-140.861,-30.353,-12.373,-4.76,32.46,-0.00464,-0.65353,0.09613,-0.75067,567
142,1.004,-0.174,-0.074,-0.488,0.122,0.0,-113.033,-79.409,-98.251,-28.267,-11.593,-6.333,30.26,0.12497,0.68643,-0.25443,0.66959,570,0.715,-0.143,0.693,0.0,0.061,0.0,-11.744,-45.522,-117.098,-22.253,-6.527,-3.573,28.04,0.44476,-0.37756,-0.12033,-0.80313,568,0.387,-0.199,0.895,-0.366,0.732,-0.122,-12.783,-23.06,172.266,-11.307,-6.353,-34.16,30.93,-0.08832,-0.19131,0.1225,-0.96979,578,0.969,-0.137,0.124,-0.183,0.0,0.0,-47.39,-79.173,-140.861,-30.353,-12.373,-4.76,32.46,-0.00494,-0.65353,0.09637,-0.75067,572
143,1.004,-0.174,-0.074,-0.488,0.122,0.0,-113.027,-79.409,-98.262,-28.267,-11.593,-6.333,30.26,0.12497,0.68643,-0.25443,0.66959,571,0.715,-0.139,0.691,-0.122,0.0,0.0,-11.744,-45.522,-117.098,-22.253,-6.527,-3.573,28.04,0.44476,-0.37756,-0.12033,-0.80313,569,0.386,-0.198,0.896,-0.305,0.366,-0.061,-12.788,-23.049,172.271,-11.307,-6.353,-34.16,30.93,-0.08832,-0.19131,0.1225,-0.96979,579,0.97,-0.137,0.124,-0.244,-0.061,0.0,-47.401,-79.173,-140.856,-30.353,-12.373,-4.76,32.46,-0.00494,-0.65353,0.09637,-0.75067,573
144,1.004,-0.174,-0.074,-0.427,0.0,0.0,-113.033,-79.409,-98.262,-28.267,-11.593,-6.333,30.26,0.12497,0.68643,-0.25443,0.66959,576,0.715,-0.141,0.691,-0.183,0.061,0.122,-11.744,-45.522,-117.098,-22.253,-6.527,-3.573,28.04,0.44476,-0.37756,-0.12033,-0.80313,574,0.388,-0.201,0.896,-0.244,0.0,0.122,-12.794,-23.044,172.271,-11.307,-6.353,-34.16,30.93,-0.08832,-0.19131,0.1225,-0.96979,580,0.971,-0.138,0.124,-0.305,-0.061,0.0,-47.417,-79.173,-140.85,-30.353,-12.373,-4.76,32.46,-0.00494,-0.65353,0.09637,-0.75067,582
145,1.005,-0.174,-0.073,-0.488,0.0,0.0,-113.044,-79.404,-98.262,-28.267,-11.593,-6.333,30.26,0.12497,0.68643,-0.25443,0.66959,577,0.719,-0.144,0.692,0.0,0.061,0.183,-11.75,-45.516,-117.092,-22.253,-6.527,-3.573,28.04,0.44476,-0.37756,-0.12033,-0.80313,575,0.391,-0.205,0.896,-0.366,0.244,0.061,-12.799,-23.038,172.271,-11.307,-6.353,-34.16,30.93,-0.08832,-0.19131,0.1225,-0.96979,581,0.974,-0.136,0.124,-0.305,-0.122,0.0,-47.433,-79.173,-140.845,-30.353,-12.373,-4.76,32.46,-0.00494,-0.65353,0.09637,-0.75067,583
146,1.008,-0.174,-0.073,-0.488,0.122,0.0,-113.044,-79.409,-98.273,-28.267,-11.593,-6.333,30.26,0.12497,0.68643,-0.25443,0.66959,586,0.722,-0.144,0.693,0.0,0.0,0.122,-11.75,-45.516,-117.087,-22.253,-6.527,-3.573,28.04,0.44476,-0.37756,-0.12033,-0.80313,584,0.392,-0.204,0.896,-0.305,0.183,-0.061,-12.805,-23.033,172.282,-11.307,-6.353,-34.16,30.93,-0.08832,-0.19131,0.1225,-0.96979,590,0.972,-0.137,0.124,0.0,-0.183,0.0,-47.45,-79.178,-140.834,-30.353,-12.373,-4.76,32.46,-0.00494,-0.65353,0.09637,-0.75067,588
147,1.007,-0.173,-0.075,-0.366,0.122,0.0,-113.038,-79.409,-98.284,-28.267,-11.593,-6.333,30.26,0.12497,0.68643,-0.25443,0.66959,587,0.717,-0.146,0.69,0.061,0.0,0.0,-11.75,-45.511,-117.087,-22.253,-6.527,-3.573,28.04,0.44476,-0.37756,-0.12033,-0.80313,585,0.387,-0.205,0.894,0.061,0.366,0.0,-12.805,-23.027,172.299,-11.307,-6.353,-34.16,30.93,-0.08832,-0.19131,0.1225,-0.96979,591,0.969,-0.139,0.124,0.244,0.0,0.0,-47.461,-79.178,-140.828,-30.353,-12.373,-4.76,32.46,-0.00494,-0.65353,0.09637,-0.75067,589
148,1.004,-0.174,-0.073,-0.427,0.122,0.0,-113.033,-79.409,-98.3,-28.267,-11.593,-6.333,30.26,0.12497,0.68643,-0.25443,0.66959,594,0.715,-0.146,0.69,0.122,-0.061,0.0,-11.75,-45.511,-117.087,-22.253,-6.527,-3.573,28.04,0.44476,-0.37756,-0.12033,-0.80313,592,0.389,-0.204,0.893,-0.122,0.427,0.0,-12.805,-23.022,172.321,-11.307,-6.353,-34.16,30.93,-0.08832,-0.19131,0.1225,-0.96979,596,0.969,-0.139,0.124,0.305,0.122,0.0,-47.455,-79.178,-140.834,-30.353,-12.373,-4.76,32.46,-0.00494,-0.65353,0.09637,-0.75067,598
149,1.003,-0.174,-0.071,-0.122,0.0,0.0,-113.033,-79.409,-98.3,-28.267,-11.593,-6.333,30.26,0.12497,0.68643,-0.25443,0.66959,595,0.716,-0.142,0.689,0.122,0.122,0.0,-11.744,-45.511,-117.087,-22.253,-6.527,-3.573,28.04,0.44476,-0.37756,-0.12033,-0.80313,593,0.389,-0.2,0.892,-0.366,0.854,-0.061,-12.805,-23.011,172.343,-11.307,-6.353,-34.16,30.93,-0.08832,-0.19131,0.1225,-0.96979,597,0.97,-0.136,0.123,0.061,0.183,0.0,-47.444,-79.178,-140.845,-30.353,-12.373,-4.76,32.46,-0.00494,-0.65353,0.09637,-0.75067,599
150,1.005,-0.174,-0.072,-0.183,0.061,0.0,-113.027,-79.409,-98.306,-28.267,-11.593,-6.333,30.26,0.12497,0.68643,-0.25443,0.66959,602,0.716,-0.14,0.689,0.061,0.244,0.0,-11.744,-45.505,-117.087,-22.253,-6.527,-3.573,28.04,0.44476,-0.37756,-0.12033,-0.80313,600,0.386,-0.201,0.894,0.0,0.061,0.0,-12.81,-23.0,172.37,-11.307,-6.353,-34.16,30.93,-0.08832,-0.19131,0.1225,-0.96979,604,0.972,-0.136,0.124,-0.122,0.0,0.0,-47.444,-79.173,-140.85,-30.353,-12.373,-4.76,32.46,-0.00494,-0.65353,0.09637,-0.75067,606
151,1.006,-0.173,-0.073,-0.427,0.244,0.0,-113.016,-79.409,-98.328,-28.267,-11.593,-6.333,30.26,0.12497,0.68643,-0.25443,0.66959,603,0.717,-0.141,0.692,0.061,0.366,0.0,-11.739,-45.5,-117.087,-22.253,-6.527,-3.573,28.04,0.44476,-0.37756,-0.12033,-0.80313,601,0.387,-0.203,0.897,0.244,-0.305,0.061,-12.81,-23.0,172.397,-11.307,-6.353,-34.16,30.93,-0.08832,-0.19131,0.1225,-0.96979,605,0.972,-0.137,0.125,-0.244,-0.061,0.0,-47.455,-79.178,-140.85,-30.353,-12.373,-4.76,32.46,-0.00494,-0.65353,0.09637,-0.75067,607
152,1.007,-0.173,-0.073,-0.916,0.488,0.0,-112.989,-79.409,-98.366,-28.267,-11.593,-6.333,30.26,0.12497,0.68643,-0.25443,0.66959,610,0.717,-0.145,0.694,0.061,0.366,0.0,-11.739,-45.494,-117.092,-22.253,-6.527,-3.573,28.04,0.44476,-0.37756,-0.12033,-0.80313,608,0.387,-0.204,0.899,0.305,0.122,0.061,-12.805,-23.0,172.408,-11.307,-6.353,-34.16,30.93,-0.08832,-0.19131,0.1225,-0.96979,612,0.97,-0.139,0.125,-0.122,0.183,0.0,-47.461,-79.173,-140.856,-30.353,-12.373,-4.76,32.46,-0.00494,-0.65353,0.09637,-0.75067,614
153,1.006,-0.174,-0.071,-0.854,0.366,0.0,-112.961,-79.415,-98.41,-28.267,-11.593,-6.333,30.26,0.12497,0.68643,-0.25443,0.66959,611,0.715,-0.145,0.694,0.122,0.183,0.0,-11.733,-45.489,-117.092,-22.253,-6.527,-3.573,28.04,0.44476,-0.37756,-0.12033,-0.80313,609,0.386,-0.204,0.897,-0.061,0.427,-0.061,-12.799,-22.994,172.419,-11.307,-6.353,-34.16,30.93,-0.08832,-0.19131,0.1225,-0.96979,613,0.968,-0.137,0.124,0.0,0.244,0.0,-47.45,-79.173,-140.872,-30.353,-12.373,-4.76,32.46,-0.00494,-0.65353,0.09637,-0.75067,615
154,1.004,-0.175,-0.073,-0.488,0.061,0.0,-112.961,-79.415,-98.421,-28.313,-11.6,-6.62,30.26,0.12497,0.68643,-0.25443,0.66959,622,0.714,-0.143,0.691,0.122,0.061,0.0,-11.733,-45.483,-117.092,-22.253,-6.527,-3.573,28.04,0.44476,-0.37756,-0.12033,-0.80313,620,0.385,-0.202,0.896,-0.366,0.061,-0.244,-12.799,-22.989,172.425,-11.307,-6.353,-34.16,30.93,-0.08832,-0.19131,0.1225,-0.96979,616,0.968,-0.137,0.123,-0.122,0.061,0.0,-47.444,-79.173,-140.883,-30.053,-12.08,-5.567,32.46,-0.00494,-0.65353,0.09637,-0.75067,618
155,1.003,-0.175,-0.074,-0.366,0.061,0.0,-112.956,-79.415,-98.427,-28.313,-11.6,-6.62,30.26,0.12497,0.68643,-0.25443,0.66959,623,0.714,-0.142,0.692,0.061,0.0,0.0,-11.728,-45.483,-117.092,-22.253,-6.527,-3.573,28.04,0.44476,-0.37756,-0.12033,-0.80313,621,0.386,-0.2,0.894,0.0,0.061,-0.183,-12.799,-22.989,172.419,-11.307,-6.353,-34.16,30.93,-0.08832,-0.19131,0.1225,-0.96979,617,0.968,-0.136,0.123,-0.183,-0.061,0.0,-47.455,-79.173,-140.883,-30.053,-12.08,-5.567,32.46,-0.00494,-0.65353,0.09637,-0.75067,619
156,1.003,-0.173,-0.074,-0.549,0.244,0.0,-112.945,-79.415,-98.448,-28.313,-11.6,-6.62,30.26,0.12582,0.686,-0.25519,0.66956,624,0.714,-0.142,0.691,0.061,0.0,0.0,-11.728,-45.478,-117.092,-22.367,-6.64,-3.44,28.04,0.44476,-0.37756,-0.12033,-0.80313,626,0.386,-0.201,0.894,0.0,0.305,-0.061,-12.799,-22.983,172.414,-11.513,-6.267,-34.033,30.93,-0.08832,-0.19131,0.1225,-0.96979,630,0.968,-0.136,0.123,-0.061,-0.061,0.0,-47.466,-79.173,-140.878,-30.053,-12.08,-5.567,32.46,-0.00494,-0.65353,0.09637,-0.75067,628
157,1.003,-0.172,-0.074,-0.488,0.366,0.0,-112.923,-79.415,-98.481,-28.313,-11.6,-6.62,30.26,0.12582,0.686,-0.25519,0.66956,625,0.715,-0.142,0.69,0.122,0.0,0.0,-11.722,-45.478,-117.092,-22.367,-6.64,-3.44,28.04,0.44476,-0.37756,-0.12033,-0.80313,627,0.387,-0.202,0.894,-0.061,0.244,-0.183,-12.794,-22.978,172.43,-11.513,-6.267,-34.033,30.93,-0.08832,-0.19131,0.1225,-0.96979,631,0.969,-0.136,0.124,0.0,-0.122,0.0,-47.477,-79.173,-140.872,-30.053,-12.08,-5.567,32.46,-0.00494,-0.65353,0.09637,-0.75067,629
158,1.004,-0.172,-0.073,-0.366,0.244,0.0,-112.906,-79.42,-98.509,-28.313,-11.6,-6.62,30.26,0.12582,0.686,-0.25519,0.66956,634,0.716,-0.142,0.69,0.061,0.0,0.0,-11.722,-45.478,-117.092,-22.367,-6.64,-3.44,28.04,0.44476,-0.37756,-0.12033,-0.80313,632,0.387,-0.202,0.895,0.0,0.427,-0.183,-12.794,-22.972,172.436,-11.513,-6.267,-34.033,30.93,-0.08636,-0.19025,0.12201,-0.97025,638,0.97,-0.137,0.124,0.061,-0.061,0.0,-47.488,-79.173,-140.867,-30.053,-12.08,-5.567,32.46,-0.00552,-0.6535,0.09698,-0.75058,636
159,1.006,-0.173,-0.072,-0.244,0.061,0.0,-112.901,-79.42,-98.52,-28.313,-11.6,-6.62,30.26,0.12582,0.686,-0.25519,0.66956,635,0.716,-0.142,0.691,0.061,0.0,0.0,-11.722,-45.478,-117.092,-22.367,-6.64,-3.44,28.04,0.44476,-0.37756,-0.12033,-0.80313,633,0.387,-0.203,0.896,-0.122,0.244,-0.244,-12.794,-22.961,172.425,-11.513,-6.267,-34.033,30.93,-0.08636,-0.19025,0.12201,-0.97025,639,0.97,-0.137,0.125,0.0,-0.061,0.0,-47.499,-79.178,-140.861,-30.053,-12.08,-5.567,32.46,-0.00552,-0.6535,0.09698,-0.75058,637
160,1.005,-0.173,-0.071,-0.305,0.0,0.0,-112.901,-79.42,-98.52,-28.313,-11.6,-6.62,30.26,0.12582,0.686,-0.25519,0.66956,640,0.716,-0.142,0.692,-0.061,0.0,0.0,-11.717,-45.478,-117.092,-22.367,-6.64,-3.44,28.04,0.44501,-0.37714,-0.12027,-0.80322,642,0.387,-0.202,0.896,-0.183,0.061,-0.366,-12.788,-22.961,172.414,-11.513,-6.267,-34.033,30.93,-0.08636,-0.19025,0.12201,-0.97025,644,0.972,-0.137,0.125,-0.061,0.0,0.0,-47.505,-79.178,-140.856,-30.053,-12.08,-5.567,32.46,-0.00552,-0.6535,0.09698,-0.75058,646
161,1.007,-0.173,-0.071,-0.366,0.061,0.0,-112.906,-79.42,-98.525,-28.313,-11.6,-6.62,30.26,0.12582,0.686,-0.25519,0.66956,641,0.716,-0.142,0.693,-0.122,0.0,0.0,-11.717,-45.472,-117.092,-22.367,-6.64,-3.44,28.04,0.44501,-0.37714,-0.12027,-0.80322,643,0.388,-0.201,0.896,0.061,0.366,-0.183,-12.788,-22.956,172.408,-11.513,-6.267,-34.033,30.93,-0.08636,-0.19025,0.12201,-0.97025,645,0.971,-0.139,0.125,0.0,0.0,0.0,-47.51,-79.178,-140.856,-30.053,-12.08,-5.567,32.46,-0.00552,-0.6535,0.09698,-0.75058,647
162,1.006,-0.174,-0.071,-0.244,0.0,0.0,-112.906,-79.42,-98.525,-28.313,-11.6,-6.62,30.26,0.12582,0.686,-0.25519,0.66956,650,0.717,-0.142,0.691,0.061,0.0,0.0,-11.722,-45.472,-117.092,-22.367,-6.64,-3.44,28.04,0.44501,-0.37714,-0.12027,-0.80322,648,0.387,-0.203,0.894,0.061,0.61,-0.061,-12.783,-22.945,172.397,-11.513,-6.267,-34.033,30.93,-0.08636,-0.19025,0.12201,-0.97025,652,0.971,-0.137,0.124,0.183,0.183,0.0,-47.505,-79.178,-140.867,-30.053,-12.08,-5.567,32.46,-0.00552,-0.6535,0.09698,-0.75058,654
163,1.005,-0.174,-0.07,-0.305,0.0,0.0,-112.906,-79.42,-98.525,-28.313,-11.6,-6.62,30.26,0.12582,0.686,-0.25519,0.66956,651,0.717,-0.143,0.692,0.122,0.122,0.0,-11.717,-45.472,-117.092,-22.367,-6.64,-3.44,28.04,0.44501,-0.37714,-0.12027,-0.80322,649,0.387,-0.201,0.896,-0.305,0.61,-0.244,-12.783,-22.934,172.381,-11.513,-6.267,-34.033,30.93,-0.08636,-0.19025,0.12201,-0.97025,653,0.971,-0.138,0.125,0.183,0.122,0.0,-47.494,-79.173,-140.878,-30.053,-12.08,-5.567,32.46,-0.00552,-0.6535,0.09698,-0.75058,655
164,1.006,-0.173,-0.072,-0.122,-0.061,0.0,-112.912,-79.42,-98.52,-28.313,-11.6,-6.62,30.26,0.12582,0.686,-0.25519,0.66956,656,0.716,-0.142,0.691,0.061,0.183,0.0,-11.711,-45.467,-117.098,-22.367,-6.64,-3.44,28.04,0.44501,-0.37714,-0.12027,-0.80322,658,0.386,-0.2,0.896,-0.183,0.488,-0.061,-12.783,-22.923,172.375,-11.513,-6.267,-34.033,30.93,-0.08636,-0.19025,0.12201,-0.97025,660,0.969,-0.137,0.125,0.061,0.183,0.0,-47.483,-79.173,-140.889,-30.053,-12.08,-5.567,32.46,-0.00552,-0.6535,0.09698,-0.75058,662
165,1.005,-0.173,-0.072,-0.366,0.0,0.0,-112.912,-79.42,-98.52,-28.313,-11.6,-6.62,30.26,0.12582,0.686,-0.25519,0.66956,657,0.715,-0.141,0.692,0.183,0.183,0.0,-11.711,-45.461,-117.098,-22.367,-6.64,-3.44,28.04,0.44501,-0.37714,-0.12027,-0.80322,659,0.385,-0.2,0.894,0.427,0.427,0.244,-12.783,-22.912,172.375,-11.513,-6.267,-34.033,30.93,-0.08636,-0.19025,0.12201,-0.97025,661,0.969,-0.135,0.124,0.122,0.305,0.0,-47.466,-79.167,-140.911,-30.053,-12.08,-5.567,32.46,-0.00552,-0.6535,0.09698,-0.75058,663
166,1.005,-0.172,-0.072,-0.366,-0.122,0.0,-112.928,-79.415,-98.509,-28.313,-11.6,-6.62,30.26,0.12582,0.686,-0.25519,0.66956,664,0.715,-0.142,0.692,0.244,0.183,0.0,-11.706,-45.461,-117.098,-22.367,-6.64,-3.44,28.04,0.44501,-0.37714,-0.12027,-0.80322,666,0.384,-0.204,0.897,0.183,0.183,0.122,-12.777,-22.906,172.386,-11.513,-6.267,-34.033,30.93,-0.08636,-0.19025,0.12201,-0.97025,668,0.97,-0.135,0.124,0.0,0.244,0.0,-47.444,-79.167,-140.927,-30.053,-12.08,-5.567,32.46,-0.00552,-0.6535,0.09698,-0.75058,670
167,1.005,-0.172,-0.073,-0.366,0.0,0.0,-112.934,-79.415,-98.509,-28.313,-11.6,-6.62,30.26,0.12582,0.686,-0.25519,0.66956,665,0.715,-0.143,0.692,0.122,0.183,0.0,-11.7,-45.456,-117.098,-22.367,-6.64,-3.44,28.04,0.44501,-0.37714,-0.12027,-0.80322,667,0.385,-0.203,0.898,-0.244,0.061,-0.244,-12.772,-22.901,172.381,-11.513,-6.267,-34.033,30.93,-0.08636,-0.19025,0.12201,-0.97025,669,0.97,-0.136,0.124,0.0,0.183,0.0,-47.433,-79.162,-140.944,-30.053,-12.08,-5.567,32.46,-0.00552,-0.6535,0.09698,-0.75058,671
168,1.005,-0.173,-0.073,-0.305,0.0,0.0,-112.934,-79.415,-98.509,-28.313,-11.6,-6.62,30.26,0.12582,0.686,-0.25519,0.66956,674,0.715,-0.142,0.693,0.0,0.0,0.0,-11.695,-45.45,-117.098,-22.367,-6.64,-3.44,28.04,0.44501,-0.37714,-0.12027,-0.80322,672,0.385,-0.199,0.898,-0.366,0.122,-0.305,-12.777,-22.901,172.375,-11.513,-6.267,-34.033,30.93,-0.08636,-0.19025,0.12201,-0.97025,676,0.969,-0.136,0.124,0.0,0.183,0.0,-47.422,-79.162,-140.96,-30.053,-12.08,-5.567,32.46,-0.00552,-0.6535,0.09698,-0.75058,678
169,1.004,-0.174,-0.075,-0.122,-0.061,0.0,-112.945,-79.415,-98.503,-28.313,-11.6,-6.62,30.26,0.12582,0.686,-0.25519,0.66956,675,0.716,-0.14,0.693,0.0,-0.061,0.0,-11.695,-45.45,-117.098,-22.367,-6.64,-3.44,28.04,0.44501,-0.37714,-0.12027,-0.80322,673,0.386,-0.198,0.896,-0.183,0.061,-0.122,-12.777,-22.901,172.37,-11.513,-6.267,-34.033,30.93,-0.08636,-0.19025,0.12201,-0.97025,677,0.97,-0.136,0.123,0.122,0.183,0.0,-47.411,-79.162,-140.971,-30.053,-12.08,-5.567,32.46,-0.00552,-0.6535,0.09698,-0.75058,679
170,1.004,-0.172,-0.074,0.0,-0.122,0.0,-112.956,-79.415,-98.487,-28.313,-11.6,-6.62,30.26,0.12582,0.686,-0.25519,0.66956,682,0.716,-0.14,0.691,0.061,-0.061,0.0,-11.695,-45.45,-117.098,-22.367,-6.64,-3.44,28.04,0.44501,-0.37714,-0.12027,-0.80322,680,0.385,-0.2,0.896,-0.061,0.0,0.0,-12.777,-22.896,172.365,-11.513,-6.267,-34.033,30.93,-0.08636,-0.19025,0.12201,-0.97025,684,0.969,-0.135,0.123,0.061,0.122,0.0,-47.401,-79.162,-140.982,-29.82,-12.433,-5.32,32.46,-0.00552,-0.6535,0.09698,-0.75058,686
171,1.005,-0.172,-0.074,0.0,-0.061,0.0,-112.961,-79.415,-98.481,-28.313,-11.6,-6.62,30.26,0.12582,0.686,-0.25519,0.66956,683,0.716,-0.141,0.692,0.0,-0.183,0.0,-11.689,-45.45,-117.098,-22.367,-6.64,-3.44,28.04,0.44501,-0.37714,-0.12027,-0.80322,681,0.386,-0.2,0.896,-0.183,-0.305,-0.061,-12.777,-22.901,172.37,-11.513,-6.267,-34.033,30.93,-0.08636,-0.19025,0.12201,-0.97025,685,0.97,-0.136,0.124,0.0,0.061,0.0,-47.401,-79.162,-140.988,-29.82,-12.433,-5.32,32.46,-0.00552,-0.6535,0.09698,-0.75058,687
172,1.005,-0.172,-0.074,0.0,0.0,0.0,-112.961,-79.415,-98.481,-28.187,-11.6,-6.967,30.26,0.12582,0.686,-0.25519,0.66956,692,0.716,-0.142,0.692,0.0,-0.305,0.0,-11.689,-45.456,-117.098,-22.367,-6.64,-3.44,28.04,0.44501,-0.37714,-0.12027,-0.80322,688,0.386,-0.202,0.895,0.0,-0.305,0.0,-12.777,-22.906,172.392,-11.527,-6.307,-33.32,30.93,-0.08636,-0.19025,0.12201,-0.97025,690,0.97,-0.137,0.124,0.0,0.0,0.0,-47.401,-79.162,-140.993,-29.82,-12.433,-5.32,32.46,-0.00583,-0.65335,0.09723,-0.7507,694
173,1.006,-0.173,-0.074,0.061,0.0,0.0,-112.961,-79.415,-98.481,-28.187,-11.6,-6.967,30.26,0.12582,0.686,-0.25519,0.66956,693,0.716,-0.142,0.692,0.0,-0.305,0.0,-11.689,-45.461,-117.098,-22.367,-6.64,-3.44,28.04,0.44501,-0.37714,-0.12027,-0.80322,689,0.387,-0.203,0.896,0.0,-0.61,0.0,-12.777,-22.912,172.414,-11.527,-6.307,-33.32,30.93,-0.08636,-0.19025,0.12201,-0.97025,691,0.971,-0.137,0.124,0.0,0.0,0.0,-47.406,-79.162,-140.993,-29.82,-12.433,-5.32,32.46,-0.00583,-0.65335,0.09723,-0.7507,695
174,1.005,-0.174,-0.073,0.061,0.0,0.0,-112.961,-79.415,-98.481,-28.187,-11.6,-6.967,30.26,0.12613,0.68591,-0.25549,0.66949,696,0.717,-0.143,0.692,0.0,-0.244,0.0,-11.689,-45.467,-117.092,-22.587,-6.547,-4.013,28.04,0.44501,-0.37714,-0.12027,-0.80322,702,0.388,-0.202,0.896,-0.122,-0.366,-0.061,-12.777,-22.917,172.425,-11.527,-6.307,-33.32,30.93,-0.08636,-0.19025,0.12201,-0.97025,698,0.971,-0.136,0.125,0.122,0.061,0.0,-47.406,-79.162,-140.993,-29.82,-12.433,-5.32,32.46,-0.00583,-0.65335,0.09723,-0.7507,700
175,1.006,-0.173,-0.072,0.183,0.0,0.0,-112.956,-79.415,-98.481,-28.187,-11.6,-6.967,30.26,0.12613,0.68591,-0.25549,0.66949,697,0.716,-0.143,0.692,0.0,-0.244,0.0,-11.689,-45.467,-117.092,-22.587,-6.547,-4.013,28.04,0.44501,-0.37714,-0.12027,-0.80322,703,0.387,-0.201,0.895,-0.061,-0.305,0.0,-12.783,-22.923,172.43,-11.527,-6.307,-33.32,30.93,-0.08636,-0.19025,0.12201,-0.97025,699,0.971,-0.137,0.124,0.183,0.122,0.0,-47.395,-79.162,-141.004,-29.82,-12.433,-5.32,32.46,-0.00583,-0.65335,0.09723,-0.7507,701
176,1.005,-0.173,-0.072,0.183,0.0,0.0,-112.956,-79.415,-98.481,-28.187,-11.6,-6.967,30.26,0.12613,0.68591,-0.25549,0.66949,708,0.716,-0.142,0.692,0.061,-0.244,0.0,-11.689,-45.472,-117.092,-22.587,-6.547,-4.013,28.04,0.44513,-0.37698,-0.12051,-0.80316,704,0.386,-0.199,0.896,0.0,-0.427,0.061,-12.783,-22.928,172.436,-11.527,-6.307,-33.32,30.93,-0.08633,-0.18985,0.12189,-0.97034,710,0.97,-0.136,0.125,0.183,0.183,0.0,-47.384,-79.162,-141.015,-29.82,-12.433,-5.32,32.46,-0.00583,-0.65335,0.09723,-0.7507,706
177,1.005,-0.173,-0.072,0.122,-0.061,0.0,-112.956,-79.415,-98.476,-28.187,-11.6,-6.967,30.26,0.12613,0.68591,-0.25549,0.66949,709,0.715,-0.14,0.692,0.061,-0.244,0.0,-11.684,-45.478,-117.087,-22.587,-6.547,-4.013,28.04,0.44513,-0.37698,-0.12051,-0.80316,705,0.386,-0.199,0.895,0.305,-0.61,0.244,-12.777,-22.939,172.436,-11.527,-6.307,-33.32,30.93,-0.08633,-0.18985,0.12189,-0.97034,711,0.97,-0.136,0.125,0.183,0.183,0.0,-47.368,-79.156,-141.031,-29.82,-12.433,-5.32,32.46,-0.00583,-0.65335,0.09723,-0.7507,707
178,1.006,-0.173,-0.072,0.122,-0.183,0.0,-112.972,-79.415,-98.459,-28.187,-11.6,-6.967,30.26,0.12613,0.68591,-0.25549,0.66949,712,0.715,-0.142,0.692,0.183,-0.244,0.305,-11.684,-45.478,-117.081,-22.587,-6.547,-4.013,28.04,0.44513,-0.37698,-0.12051,-0.80316,714,0.386,-0.204,0.895,0.61,-0.244,0.305,-12.772,-22.945,172.441,-11.527,-6.307,-33.32,30.93,-0.08633,-0.18985,0.12189,-0.97034,716,0.97,-0.137,0.125,0.183,0.183,0.0,-47.357,-79.156,-141.048,-29.82,-12.433,-5.32,32.46,-0.00583,-0.65335,0.09723,-0.7507,718
179,1.005,-0.173,-0.072,0.183,-0.244,0.0,-112.989,-79.409,-98.432,-28.187,-11.6,-6.967,30.26,0.12613,0.68591,-0.25549,0.66949,713,0.716,-0.145,0.692,0.183,-0.061,0.244,-11.689,-45.478,-117.076,-22.587,-6.547,-4.013,28.04,0.44513,-0.37698,-0.12051,-0.80316,715,0.387,-0.205,0.896,0.122,-0.366,0.122,-12.766,-22.95,172.441,-11.527,-6.307,-33.32,30.93,-0.08633,-0.18985,0.12189,-0.97034,717,0.971,-0.137,0.125,0.305,0.244,0.0,-47.335,-79.151,-141.064,-29.82,-12.433,-5.32,32.46,-0.00583,-0.65335,0.09723,-0.7507,719
180,1.006,-0.173,-0.072,0.244,-0.305,0.0,-113.011,-79.409,-98.405,-28.187,-11.6,-6.967,30.26,0.12613,0.68591,-0.25549,0.66949,720,0.716,-0.143,0.691,0.122,-0.183,0.183,-11.689,-45.478,-117.07,-22.587,-6.547,-4.013,28.04,0.44513,-0.37698,-0.12051,-0.80316,722,0.388,-0.2,0.896,0.061,-0.366,0.183,-12.761,-22.956,172.452,-11.527,-6.307,-33.32,30.93,-0.08633,-0.18985,0.12189,-0.97034,726,0.971,-0.136,0.125,0.244,0.244,0.0,-47.313,-79.151,-141.081,-29.82,-12.433,-5.32,32.46,-0.00583,-0.65335,0.09723,-0.7507,724
181,1.006,-0.172,-0.073,0.244,-0.305,0.0,-113.033,-79.404,-98.372,-28.187,-11.6,-6.967,30.26,0.12613,0.68591,-0.25549,0.66949,721,0.717,-0.141,0.692,0.183,-0.122,0.183,-11.689,-45.483,-117.065,-22.587,-6.547,-4.013,28.04,0.44513,-0.37698,-0.12051,-0.80316,723,0.385,-0.201,0.896,0.427,-0.549,0.244,-12.761,-22.961,172.469,-11.527,-6.307,-33.32,30.93,-0.08633,-0.18985,0.12189,-0.97034,727,0.969,-0.135,0.125,0.244,0.244,0.0,-47.291,-79.146,-141.103,-29.82,-12.433,-5.32,32.46,-0.00583,-0.65335,0.09723,-0.7507,725
182,1.004,-0.172,-0.074,0.244,-0.244,0.0,-113.055,-79.404,-98.35,-28.187,-11.6,-6.967,30.26,0.12613,0.68591,-0.25549,0.66949,730,0.714,-0.142,0.692,0.061,-0.183,0.244,-11.689,-45.483,-117.054,-22.587,-6.547,-4.013,28.04,0.44513,-0.37698,-0.12051,-0.80316,728,0.383,-0.201,0.898,-0.244,-0.793,0.0,-12.761,-22.972,172.485,-11.527,-6.307,-33.32,30.93,-0.08633,-0.18985,0.12189,-0.97034,732,0.968,-0.136,0.125,0.244,0.244,0.0,-47.274,-79.146,-141.119,-29.82,-12.433,-5.32,32.46,-0.00583,-0.65335,0.09723,-0.7507,734
183,1.003,-0.172,-0.073,0.305,-0.366,0.0,-113.082,-79.404,-98.311,-28.187,-11.6,-6.967,30.26,0.12613,0.68591,-0.25549,0.66949,731,0.713,-0.141,0.692,0.0,-0.305,0.183,-11.695,-45.483,-117.048,-22.587,-6.547,-4.013,28.04,0.44513,-0.37698,-0.12051,-0.80316,729,0.386,-0.2,0.897,-0.61,-0.488,0.0,-12.766,-22.983,172.496,-11.527,-6.307,-33.32,30.93,-0.08633,-0.18985,0.12189,-0.97034,733,0.969,-0.136,0.124,0.122,0.244,0.0,-47.252,-79.146,-141.141,-29.82,-12.433,-5.32,32.46,-0.00583,-0.65335,0.09723,-0.7507,735
184,1.005,-0.173,-0.074,0.366,-0.427,0.0,-113.115,-79.398,-98.267,-28.187,-11.6,-6.967,30.26,0.12613,0.68591,-0.25549,0.66949,738,0.715,-0.141,0.693,0.0,-0.427,0.244,-11.695,-45.489,-117.043,-22.587,-6.547,-4.013,28.04,0.44513,-0.37698,-0.12051,-0.80316,736,0.389,-0.199,0.897,-0.488,-0.366,0.122,-12.777,-22.989,172.513,-11.527,-6.307,-33.32,30.93,-0.08633,-0.18985,0.12189,-0.97034,740,0.97,-0.136,0.125,0.061,0.122,0.0,-47.241,-79.14,-141.152,-29.96,-12.32,-5.267,32.46,-0.00583,-0.65335,0.09723,-0.7507,742
185,1.005,-0.172,-0.075,0.183,-0.305,0.0,-113.137,-79.398,-98.24,-28.187,-11.6,-6.967,30.26,0.12613,0.68591,-0.25549,0.66949,739,0.717,-0.14,0.693,0.0,-0.549,0.366,-11.706,-45.494,-117.026,-22.587,-6.547,-4.013,28.04,0.44513,-0.37698,-0.12051,-0.80316,737,0.387,-0.203,0.894,-0.061,-1.038,0.305,-12.783,-23.0,172.535,-11.527,-6.307,-33.32,30.93,-0.08633,-0.18985,0.12189,-0.97034,741,0.97,-0.136,0.125,0.0,0.061,0.0,-47.241,-79.14,-141.158,-29.96,-12.32,-5.267,32.46,-0.00583,-0.65335,0.09723,-0.7507,743
186,1.005,-0.173,-0.074,0.183,-0.427,0.0,-113.176,-79.393,-98.196,-28.187,-11.6,-6.967,30.26,0.12613,0.68591,-0.25549,0.66949,746,0.716,-0.144,0.691,-0.122,-0.488,0.305,-11.711,-45.505,-117.015,-22.587,-6.547,-4.013,28.04,0.44513,-0.37698,-0.12051,-0.80316,744,0.39,-0.208,0.895,-0.366,-1.587,-0.061,-12.794,-23.022,172.551,-11.527,-6.307,-33.32,30.93,-0.08633,-0.18985,0.12189,-0.97034,748,0.97,-0.135,0.125,0.0,0.122,0.0,-47.23,-79.14,-141.163,-29.96,-12.32,-5.267,32.46,-0.00583,-0.65335,0.09723,-0.7507,750
187,1.005,-0.173,-0.075,0.305,-0.488,0.0,-113.22,-79.387,-98.146,-28.187,-11.6,-6.967,30.26,0.12613,0.68591,-0.25549,0.66949,747,0.718,-0.146,0.691,-0.366,-0.488,0.061,-11.722,-45.511,-117.01,-22.587,-6.547,-4.013,28.04,0.44513,-0.37698,-0.12051,-0.80316,745,0.393,-0.207,0.896,-0.732,-1.221,-0.549,-12.805,-23.049,172.562,-11.527,-6.307,-33.32,30.93,-0.08633,-0.18985,0.12189,-0.97034,749,0.972,-0.136,0.125,0.0,0.061,0.0,-47.23,-79.14,-141.169,-29.96,-12.32,-5.267,32.46,-0.00583,-0.65335,0.09723,-0.7507,751
188,1.007,-0.173,-0.075,0.366,-0.427,0.0,-113.253,-79.387,-98.102,-28.187,-11.6,-6.967,30.26,0.12613,0.68591,-0.25549,0.66949,754,0.72,-0.144,0.691,-0.305,-0.61,-0.061,-11.728,-45.522,-117.004,-22.587,-6.547,-4.013,28.04,0.44513,-0.37698,-0.12051,-0.80316,752,0.39,-0.201,0.894,-0.183,-0.977,-0.427,-12.81,-23.066,172.562,-11.527,-6.307,-33.32,30.93,-0.08633,-0.18985,0.12189,-0.97034,756,0.97,-0.136,0.125,0.183,0.0,0.0,-47.225,-79.14,-141.169,-29.96,-12.32,-5.267,32.46,-0.00592,-0.65311,0.0972,-0.75092,758
189,1.005,-0.172,-0.075,0.427,-0.366,0.0,-113.28,-79.382,-98.069,-28.187,-11.6,-6.967,30.26,0.12613,0.68591,-0.25549,0.66949,755,0.715,-0.144,0.688,-0.183,-0.61,-0.061,-11.733,-45.533,-117.004,-22.587,-6.547,-4.013,28.04,0.44513,-0.37698,-0.12051,-0.80316,753,0.388,-0.2,0.891,0.0,-0.732,-0.122,-12.81,-23.082,172.573,-11.527,-6.307,-33.32,30.93,-0.08633,-0.18985,0.12189,-0.97034,757,0.967,-0.138,0.127,0.305,0.0,0.0,-47.219,-79.14,-141.169,-29.96,-12.32,-5.267,32.46,-0.00592,-0.65311,0.0972,-0.75092,759
190,1.003,-0.172,-0.073,0.122,-0.427,0.0,-113.318,-79.382,-98.026,-27.707,-11.627,-6.813,30.26,0.12613,0.68591,-0.25549,0.66949,762,0.715,-0.142,0.69,-0.061,-0.427,0.0,-11.739,-45.538,-116.999,-22.587,-6.547,-4.013,28.04,0.44513,-0.37698,-0.12051,-0.80316,760,0.389,-0.201,0.89,-0.305,-0.61,-0.244,-12.81,-23.099,172.579,-11.373,-6.687,-33.007,30.93,-0.08633,-0.18985,0.12189,-0.97034,764,0.968,-0.137,0.126,0.305,0.061,0.0,-47.214,-79.14,-141.174,-29.96,-12.32,-5.267,32.46,-0.00592,-0.65311,0.0972,-0.75092,766
191,1.003,-0.174,-0.072,0.061,-0.61,0.0,-113.373,-79.376,-97.965,-27.707,-11.627,-6.813,30.26,0.12613,0.68591,-0.25549,0.66949,763,0.716,-0.141,0.689,-0.122,-0.244,0.0,-11.739,-45.544,-116.999,-22.587,-6.547,-4.013,28.04,0.44513,-0.37698,-0.12051,-0.80316,761,0.39,-0.202,0.893,-0.061,-0.977,-0.305,-12.816,-23.11,172.584,-11.373,-6.687,-33.007,30.93,-0.08633,-0.18985,0.12189,-0.97034,765,0.971,-0.135,0.125,-0.061,0.0,0.0,-47.214,-79.14,-141.174,-29.96,-12.32,-5.267,32.46,-0.00592,-0.65311,0.0972,-0.75092,767
192,1.006,-0.173,-0.074,0.0,-0.488,0.0,-113.417,-79.371,-97.916,-27.707,-11.627,-6.813,30.26,0.12613,0.68591,-0.25549,0.66949,768,0.719,-0.142,0.692,-0.244,-0.183,0.0,-11.744,-45.549,-116.999,-22.493,-6.393,-3.787,28.04,0.44513,-0.37698,-0.12051,-0.80316,774,0.391,-0.201,0.898,-0.061,-1.526,-0.488,-12.816,-23.137,172.59,-11.373,-6.687,-33.007,30.93,-0.08633,-0.18985,0.12189,-0.97034,770,0.974,-0.135,0.125,-0.122,-0.183,0.0,-47.23,-79.146,-141.163,-29.96,-12.32,-5.267,32.46,-0.00592,-0.65311,0.0972,-0.75092,772
193,1.008,-0.172,-0.076,-0.061,-0.305,0.0,-113.445,-79.371,-97.883,-27.707,-11.627,-6.813,30.26,0.12613,0.68591,-0.25549,0.66949,769,0.721,-0.142,0.693,-0.305,-0.305,0.0,-11.75,-45.549,-116.999,-22.493,-6.393,-3.787,28.04,0.44513,-0.37698,-0.12051,-0.80316,775,0.396,-0.203,0.898,0.244,-1.099,-0.061,-12.81,-23.159,172.612,-11.373,-6.687,-33.007,30.93,-0.08633,-0.18985,0.12189,-0.97034,771,0.974,-0.138,0.125,-0.183,-0.305,0.0,-47.258,-79.151,-141.136,-29.96,-12.32,-5.267,32.46,-0.00592,-0.65311,0.0972,-0.75092,773
194,1.009,-0.172,-0.077,-0.549,0.0,0.0,-113.456,-79.371,-97.883,-27.707,-11.627,-6.813,30.26,0.12524,0.68674,-0.255,0.66901,780,0.723,-0.145,0.692,0.0,-0.183,0.061,-11.75,-45.555,-116.993,-22.493,-6.393,-3.787,28.04,0.4454,-0.37769,-0.12073,-0.80267,776,0.394,-0.207,0.895,0.549,-1.221,0.061,-12.805,-23.181,172.634,-11.373,-6.687,-33.007,30.93,-0.08514,-0.19193,0.12195,-0.97003,782,0.971,-0.138,0.124,0.0,0.0,0.0,-47.263,-79.151,-141.136,-29.96,-12.32,-5.267,32.46,-0.00592,-0.65311,0.0972,-0.75092,778
195,1.007,-0.173,-0.075,-0.427,-0.122,0.0,-113.478,-79.371,-97.872,-27.707,-11.627,-6.813,30.26,0.12524,0.68674,-0.255,0.66901,781,0.719,-0.146,0.69,0.0,-0.305,0.0,-11.755,-45.56,-116.993,-22.493,-6.393,-3.787,28.04,0.4454,-0.37769,-0.12073,-0.80267,777,0.39,-0.208,0.894,-0.183,-1.343,-0.549,-12.799,-23.209,172.645,-11.373,-6.687,-33.007,30.93,-0.08514,-0.19193,0.12195,-0.97003,783,0.968,-0.134,0.123,0.0,0.183,-0.305,-47.23,-79.151,-141.174,-29.96,-12.32,-5.267,32.46,-0.00592,-0.65311,0.0972,-0.75092,779
196,1.003,-0.173,-0.077,-0.061,-0.122,0.0,-113.489,-79.371,-97.861,-27.707,-11.627,-6.813,30.26,0.12524,0.68674,-0.255,0.66901,786,0.714,-0.144,0.688,-0.122,-0.549,-0.183,-11.755,-45.566,-116.993,-22.493,-6.393,-3.787,28.04,0.4454,-0.37769,-0.12073,-0.80267,784,0.387,-0.202,0.892,-0.427,-1.465,-1.099,-12.805,-23.236,172.645,-11.373,-6.687,-33.007,30.93,-0.08514,-0.19193,0.12195,-0.97003,788,0.965,-0.135,0.124,0.0,0.061,-0.366,-47.203,-79.156,-141.207,-29.96,-12.32,-5.267,32.46,-0.00592,-0.65311,0.0972,-0.75092,794
197,1.0,-0.171,-0.077,0.0,-0.061,0.0,-113.494,-79.371,-97.855,-27.707,-11.627,-6.813,30.26,0.12524,0.68674,-0.255,0.66901,787,0.712,-0.142,0.689,-0.366,-0.549,-0.305,-11.755,-45.577,-116.999,-22.493,-6.393,-3.787,28.04,0.4454,-0.37769,-0.12073,-0.80267,785,0.39,-0.197,0.893,-0.244,-0.977,-0.793,-12.805,-23.264,172.645,-11.373,-6.687,-33.007,30.93,-0.08514,-0.19193,0.12195,-0.97003,789,0.967,-0.135,0.125,0.0,-0.061,-0.366,-47.181,-79.167,-141.229,-29.96,-12.32,-5.267,32.46,-0.00592,-0.65311,0.0972,-0.75092,795
198,1.002,-0.171,-0.078,0.0,0.0,0.0,-113.5,-79.371,-97.855,-27.707,-11.627,-6.813,30.26,0.12524,0.68674,-0.255,0.66901,790,0.714,-0.141,0.688,-0.183,-0.61,-0.183,-11.761,-45.588,-116.999,-22.493,-6.393,-3.787,28.04,0.4454,-0.37769,-0.12073,-0.80267,792,0.392,-0.195,0.891,-0.244,-0.488,-0.305,-12.805,-23.275,172.656,-11.373,-6.687,-33.007,30.93,-0.08514,-0.19193,0.12195,-0.97003,796,0.968,-0.136,0.125,0.061,-0.061,-0.366,-47.164,-79.173,-141.246,-29.96,-12.32,-5.267,32.46,-0.00592,-0.65311,0.0972,-0.75092,798
199,1.005,-0.171,-0.075,0.0,-0.122,0.0,-113.516,-79.365,-97.844,-27.707,-11.627,-6.813,30.26,0.12524,0.68674,-0.255,0.66901,791,0.716,-0.139,0.689,0.0,-0.549,0.0,-11.761,-45.599,-116.999,-22.493,-6.393,-3.787,28.04,0.4454,-0.37769,-0.12073,-0.80267,793,0.392,-0.197,0.891,-0.061,-0.61,-0.061,-12.805,-23.286,172.667,-11.373,-6.687,-33.007,30.93,-0.08514,-0.19193,0.12195,-0.97003,797,0.97,-0.136,0.125,0.183,-0.122,-0.305,-47.153,-79.178,-141.262,-29.96,-12.32,-5.267,32.46,-0.00592,-0.65311,0.0972,-0.75092,799
200,1.006,-0.174,-0.074,0.183,-0.366,-0.305,-113.555,-79.371,-97.8,-27.707,-11.627,-6.813,30.26,0.12524,0.68674,-0.255,0.66901,802,0.718,-0.14,0.69,0.0,-0.427,0.122,-11.761,-45.604,-116.993,-22.493,-6.393,-3.787,28.04,0.4454,-0.37769,-0.12073,-0.80267,800,0.392,-0.202,0.895,0.0,-1.038,0.0,-12.805,-23.297,172.678,-11.373,-6.687,-33.007,30.93,-0.08514,-0.19193,0.12195,-0.97003,804,0.971,-0.136,0.126,0.183,-0.183,-0.183,-47.153,-79.184,-141.262,-30.153,-12.48,-5.067,32.46,-0.00592,-0.65311,0.0972,-0.75092,806
201,1.006,-0.173,-0.074,0.183,-0.366,-0.183,-113.599,-79.371,-97.751,-27.707,-11.627,-6.813,30.26,0.12524,0.68674,-0.255,0.66901,803,0.719,-0.143,0.691,-0.061,-0.488,0.122,-11.766,-45.61,-116.988,-22.493,-6.393,-3.787,28.04,0.4454,-0.37769,-0.12073,-0.80267,801,0.394,-0.201,0.896,-0.549,-0.671,-0.122,-12.81,-23.313,172.7,-11.373,-6.687,-33.007,30.93,-0.08514,-0.19193,0.12195,-0.97003,805,0.972,-0.136,0.126,0.122,-0.183,-0.122,-47.159,-79.189,-141.257,-30.153,-12.48,-5.067,32.46,-0.00592,-0.65311,0.0972,-0.75092,807
202,1.006,-0.172,-0.074,0.244,-0.488,-0.122,-113.637,-79.371,-97.707,-27.707,-11.627,-6.813,30.26,0.12524,0.68674,-0.255,0.66901,810,0.719,-0.142,0.691,-0.366,-0.671,0.183,-11.777,-45.621,-116.977,-22.493,-6.393,-3.787,28.04,0.4454,-0.37769,-0.12073,-0.80267,808,0.396,-0.198,0.893,-0.427,-0.488,0.0,-12.821,-23.324,172.722,-11.373,-6.687,-33.007,30.93,-0.08514,-0.19193,0.12195,-0.97003,812,0.973,-0.135,0.127,0.061,-0.061,-0.061,-47.159,-79.189,-141.257,-30.153,-12.48,-5.067,32.46,-0.00626,-0.65329,0.09702,-0.75076,814
203,1.007,-0.17,-0.075,0.122,-0.549,-0.122,-113.687,-79.371,-97.652,-27.707,-11.627,-6.813,30.26,0.12524,0.68674,-0.255,0.66901,811,0.721,-0.141,0.69,-0.244,-0.671,0.244,-11.788,-45.632,-116.966,-22.493,-6.393,-3.787,28.04,0.4454,-0.37769,-0.12073,-0.80267,809,0.397,-0.202,0.891,-0.305,-0.671,0.0,-12.827,-23.329,172.727,-11.373,-6.687,-33.007,30.93,-0.08514,-0.19193,0.12195,-0.97003,813,0.972,-0.134,0.125,0.305,0.305,-0.061,-47.142,-79.189,-141.262,-30.153,-12.48,-5.067,32.46,-0.00626,-0.65329,0.09702,-0.75076,815
204,1.007,-0.17,-0.075,0.183,-0.671,-0.183,-113.747,-79.371,-97.586,-27.707,-11.627,-6.813,30.26,0.12524,0.68674,-0.255,0.66901,816,0.723,-0.144,0.688,0.0,-0.244,0.305,-11.794,-45.637,-116.955,-22.493,-6.393,-3.787,28.04,0.4454,-0.37769,-0.12073,-0.80267,818,0.397,-0.208,0.889,0.0,-0.854,0.0,-12.827,-23.346,172.711,-11.373,-6.687,-33.007,30.93,-0.08514,-0.19193,0.12195,-0.97003,822,0.971,-0.135,0.125,0.183,0.305,-0.122,-47.109,-79.189,-141.295,-30.153,-12.48,-5.067,32.46,-0.00626,-0.65329,0.09702,-0.75076,820
205,1.006,-0.172,-0.076,0.061,-0.488,-0.122,-113.807,-79.371,-97.52,-27.707,-11.627,-6.813,30.26,0.12524,0.68674,-0.255,0.66901,817,0.722,-0.146,0.688,-0.061,-0.305,0.061,-11.799,-45.643,-116.949,-22.493,-6.393,-3.787,28.04,0.4454,-0.37769,-0.12073,-0.80267,819,0.396,-0.203,0.892,-0.427,-0.61,-0.366,-12.832,-23.357,172.7,-11.373,-6.687,-33.007,30.93,-0.08514,-0.19193,0.12195,-0.97003,823,0.969,-0.134,0.126,0.122,0.427,-0.122,-47.071,-79.184,-141.328,-30.153,-12.48,-5.067,32.46,-0.00626,-0.65329,0.09702,-0.75076,821
206,1.004,-0.171,-0.075,0.061,-0.366,0.0,-113.851,-79.365,-97.471,-27.707,-11.627,-6.813,30.26,0.12524,0.68674,-0.255,0.66901,824,0.718,-0.143,0.688,-0.183,-0.244,0.0,-11.799,-45.648,-116.949,-22.493,-6.393,-3.787,28.04,0.4454,-0.37769,-0.12073,-0.80267,826,0.392,-0.196,0.891,-0.305,-0.732,-0.244,-12.838,-23.373,172.683,-11.307,-6.46,-34.053,30.93,-0.08514,-0.19193,0.12195,-0.97003,828,0.967,-0.133,0.125,0.0,0.366,0.0,-47.032,-79.184,-141.367,-30.153,-12.48,-5.067,32.46,-0.00626,-0.65329,0.09702,-0.75076,830
207,1.003,-0.17,-0.077,0.122,-0.305,0.0,-113.884,-79.365,-97.432,-27.707,-11.627,-6.813,30.26,0.12524,0.68674,-0.255,0.66901,825,0.716,-0.139,0.689,-0.244,-0.305,0.061,-11.805,-45.648,-116.949,-22.493,-6.393,-3.787,28.04,0.4454,-0.37769,-0.12073,-0.80267,827,0.392,-0.196,0.892,0.122,-0.549,0.061,-12.838,-23.384,172.65,-11.307,-6.46,-34.053,30.93,-0.08514,-0.19193,0.12195,-0.97003,829,0.969,-0.133,0.125,0.0,0.305,0.0,-47.005,-79.178,-141.394,-30.153,-12.48,-5.067,32.46,-0.00626,-0.65329,0.09702,-0.75076,831
208,1.003,-0.17,-0.079,0.122,-0.366,0.0,-113.912,-79.365,-97.399,-27.44,-11.633,-6.787,30.26,0.12524,0.68674,-0.255,0.66901,834,0.716,-0.139,0.69,-0.061,-0.183,0.183,-11.81,-45.654,-116.944,-22.56,-6.9,-3.873,28.04,0.4454,-0.37769,-0.12073,-0.80267,832,0.394,-0.201,0.893,0.0,-0.671,0.061,-12.838,-23.395,172.628,-11.307,-6.46,-34.053,30.93,-0.08514,-0.19193,0.12195,-0.97003,838,0.97,-0.133,0.124,0.061,0.122,0.0,-46.983,-79.173,-141.416,-30.153,-12.48,-5.067,32.46,-0.00626,-0.65329,0.09702,-0.75076,836
209,1.005,-0.17,-0.08,0.183,-0.427,0.0,-113.945,-79.36,-97.366,-27.44,-11.633,-6.787,30.26,0.12524,0.68674,-0.255,0.66901,835,0.719,-0.142,0.69,0.0,-0.183,0.244,-11.81,-45.654,-116.933,-22.56,-6.9,-3.873,28.04,0.4454,-0.37769,-0.12073,-0.80267,833,0.397,-0.201,0.894,0.0,-0.671,0.0,-12.838,-23.406,172.612,-11.307,-6.46,-34.053,30.93,-0.08514,-0.19193,0.12195,-0.97003,839,0.97,-0.134,0.124,0.183,0.061,0.0,-46.972,-79.173,-141.422,-30.153,-12.48,-5.067,32.46,-0.00626,-0.65329,0.09702,-0.75076,837
210,1.004,-0.171,-0.08,0.244,-0.488,0.0,-113.989,-79.36,-97.322,-27.44,-11.633,-6.787,30.26,0.12512,0.68738,-0.25485,0.66843,842,0.72,-0.143,0.688,0.0,-0.366,0.183,-11.816,-45.659,-116.927,-22.56,-6.9,-3.873,28.04,0.4454,-0.37769,-0.12073,-0.80267,840,0.396,-0.2,0.892,-0.183,-0.488,0.0,-12.838,-23.417,172.59,-11.307,-6.46,-34.053,30.93,-0.08536,-0.19412,0.12222,-0.96954,844,0.97,-0.134,0.124,0.183,0.061,0.0,-46.967,-79.173,-141.427,-30.153,-12.48,-5.067,32.46,-0.00626,-0.65329,0.09702,-0.75076,846
211,1.005,-0.171,-0.08,0.366,-0.427,0.061,-114.033,-79.354,-97.273,-27.44,-11.633,-6.787,30.26,0.12512,0.68738,-0.25485,0.66843,843,0.72,-0.143,0.688,0.0,-0.427,0.244,-11.821,-45.665,-116.917,-22.56,-6.9,-3.873,28.04,0.4454,-0.37769,-0.12073,-0.80267,841,0.395,-0.201,0.891,0.0,-0.732,0.061,-12.838,-23.428,172.573,-11.307,-6.46,-34.053,30.93,-0.08536,-0.19412,0.12222,-0.96954,845,0.97,-0.133,0.125,0.122,0.0,-0.061,-46.956,-79.178,-141.432,-30.153,-12.48,-5.067,32.46,-0.00626,-0.65329,0.09702,-0.75076,847
212,1.005,-0.17,-0.08,0.366,-0.244,0.061,-114.06,-79.349,-97.24,-27.44,-11.633,-6.787,30.26,0.12512,0.68738,-0.25485,0.66843,850,0.719,-0.142,0.688,-0.061,-0.488,0.244,-11.827,-45.676,-116.911,-22.56,-6.9,-3.873,28.04,0.44543,-0.3786,-0.121,-0.80219,854,0.396,-0.202,0.893,-0.061,-0.977,0.0,-12.838,-23.445,172.568,-11.307,-6.46,-34.053,30.93,-0.08536,-0.19412,0.12222,-0.96954,848,0.971,-0.134,0.125,0.061,0.0,-0.061,-46.95,-79.178,-141.438,-30.153,-12.48,-5.067,32.46,-0.00626,-0.65329,0.09702,-0.75076,852
213,1.006,-0.17,-0.079,0.244,-0.244,0.061,-114.082,-79.349,-97.218,-27.44,-11.633,-6.787,30.26,0.12512,0.68738,-0.25485,0.66843,851,0.72,-0.142,0.689,-0.061,-0.61,0.122,-11.832,-45.687,-116.9,-22.56,-6.9,-3.873,28.04,0.44543,-0.3786,-0.121,-0.80219,855,0.397,-0.202,0.893,-0.244,-0.671,-0.183,-12.838,-23.461,172.557,-11.307,-6.46,-34.053,30.93,-0.08536,-0.19412,0.12222,-0.96954,849,0.97,-0.135,0.125,0.0,-0.061,0.0,-46.95,-79.178,-141.438,-30.153,-12.48,-5.067,32.46,-0.00626,-0.65329,0.09702,-0.75076,853
214,1.006,-0.171,-0.078,0.183,-0.244,0.061,-114.104,-79.343,-97.196,-27.44,-11.633,-6.787,30.26,0.12512,0.68738,-0.25485,0.66843,856,0.72,-0.142,0.688,-0.183,-0.61,0.061,-11.838,-45.698,-116.895,-22.56,-6.9,-3.873,28.04,0.44543,-0.3786,-0.121,-0.80219,858,0.396,-0.201,0.892,-0.183,-0.977,-0.244,-12.843,-23.472,172.535,-11.307,-6.46,-34.053,30.93,-0.08536,-0.19412,0.12222,-0.96954,860,0.971,-0.136,0.125,0.0,-0.061,0.0,-46.956,-79.184,-141.432,-30.153,-12.48,-5.067,32.46,-0.00626,-0.65329,0.09702,-0.75076,862
215,1.005,-0.173,-0.077,0.244,-0.122,0.0,-114.126,-79.343,-97.18,-27.44,-11.633,-6.787,30.26,0.12512,0.68738,-0.25485,0.66843,857,0.719,-0.143,0.688,-0.244,-0.61,0.061,-11.843,-45.709,-116.889,-22.56,-6.9,-3.873,28.04,0.44543,-0.3786,-0.121,-0.80219,859,0.397,-0.201,0.891,-0.244,-1.099,-0.122,-12.843,-23.494,172.513,-11.307,-6.46,-34.053,30.93,-0.08536,-0.19412,0.12222,-0.96954,861,0.97,-0.137,0.126,0.061,0.0,0.0,-46.961,-79.184,-141.432,-30.153,-12.48,-5.067,32.46,-0.00626,-0.65329,0.09702,-0.75076,863
216,1.005,-0.173,-0.076,0.244,-0.122,0.0,-114.137,-79.343,-97.163,-27.44,-11.633,-6.787,30.26,0.12512,0.68738,-0.25485,0.66843,866,0.72,-0.144,0.688,-0.183,-0.61,0.122,-11.849,-45.714,-116.884,-22.56,-6.9,-3.873,28.04,0.44543,-0.3786,-0.121,-0.80219,864,0.397,-0.201,0.889,-0.183,-0.916,0.061,-12.849,-23.511,172.485,-11.307,-6.46,-34.053,30.93,-0.08536,-0.19412,0.12222,-0.96954,868,0.97,-0.137,0.126,0.122,0.0,0.0,-46.961,-79.184,-141.432,-30.14,-12.413,-5.287,32.46,-0.00626,-0.65329,0.09702,-0.75076,870
217,1.005,-0.172,-0.077,0.183,-0.122,0.0,-114.148,-79.343,-97.152,-27.44,-11.633,-6.787,30.26,0.12512,0.68738,-0.25485,0.66843,867,0.719,-0.144,0.687,0.0,-0.549,0.305,-11.854,-45.725,-116.873,-22.56,-6.9,-3.873,28.04,0.44543,-0.3786,-0.121,-0.80219,865,0.397,-0.202,0.889,0.0,-0.671,0.244,-12.854,-23.527,172.48,-11.307,-6.46,-34.053,30.93,-0.08536,-0.19412,0.12222,-0.96954,869,0.97,-0.136,0.127,0.183,0.061,0.0,-46.956,-79.184,-141.432,-30.14,-12.413,-5.287,32.46,-0.00626,-0.65329,0.09702,-0.75076,871
218,1.005,-0.171,-0.077,0.061,-0.183,0.0,-114.159,-79.343,-97.141,-27.44,-11.633,-6.787,30.26,0.12512,0.68738,-0.25485,0.66843,874,0.719,-0.144,0.688,0.0,-0.427,0.305,-11.86,-45.731,-116.862,-22.56,-6.9,-3.873,28.04,0.44543,-0.3786,-0.121,-0.80219,872,0.396,-0.203,0.89,0.122,-0.61,0.305,-12.854,-23.538,172.491,-11.307,-6.46,-34.053,30.93,-0.08536,-0.19412,0.12222,-0.96954,876,0.969,-0.136,0.125,0.183,0.122,0.0,-46.95,-79.184,-141.438,-30.14,-12.413,-5.287,32.46,-0.00629,-0.65311,0.09674,-0.75095,878
219,1.005,-0.172,-0.077,0.0,-0.244,0.0,-114.175,-79.343,-97.119,-27.44,-11.633,-6.787,30.26,0.12512,0.68738,-0.25485,0.66843,875,0.719,-0.146,0.687,0.061,-0.244,0.305,-11.865,-45.736,-116.851,-22.56,-6.9,-3.873,28.04,0.44543,-0.3786,-0.121,-0.80219,873,0.396,-0.204,0.89,0.0,-0.61,0.244,-12.854,-23.549,172.507,-11.307,-6.46,-34.053,30.93,-0.08536,-0.19412,0.12222,-0.96954,877,0.97,-0.135,0.126,0.183,0.122,0.0,-46.939,-79.184,-141.449,-30.14,-12.413,-5.287,32.46,-0.00629,-0.65311,0.09674,-0.75095,879
220,1.005,-0.172,-0.078,0.061,-0.305,-0.061,-114.203,-79.338,-97.092,-27.44,-11.633,-6.787,30.26,0.12512,0.68738,-0.25485,0.66843,882,0.72,-0.145,0.688,0.061,-0.244,0.305,-11.871,-45.736,-116.84,-22.56,-6.9,-3.873,28.04,0.44543,-0.3786,-0.121,-0.80219,880,0.399,-0.201,0.89,-0.122,-0.549,0.122,-12.859,-23.555,172.513,-11.307,-6.46,-34.053,30.93,-0.08536,-0.19412,0.12222,-0.96954,884,0.97,-0.135,0.126,0.244,0.183,0.0,-46.928,-79.184,-141.46,-30.14,-12.413,-5.287,32.46,-0.00629,-0.65311,0.09674,-0.75095,886
221,1.005,-0.172,-0.078,0.061,-0.305,-0.061,-114.236,-79.338,-97.059,-27.44,-11.633,-6.787,30.26,0.12512,0.68738,-0.25485,0.66843,883,0.72,-0.143,0.687,0.061,-0.244,0.305,-11.876,-45.742,-116.834,-22.56,-6.9,-3.873,28.04,0.44543,-0.3786,-0.121,-0.80219,881,0.398,-0.201,0.889,0.061,-0.366,0.183,-12.859,-23.566,172.524,-11.307,-6.46,-34.053,30.93,-0.08536,-0.19412,0.12222,-0.96954,885,0.969,-0.135,0.125,0.305,0.183,0.0,-46.912,-79.178,-141.471,-30.14,-12.413,-5.287,32.46,-0.00629,-0.65311,0.09674,-0.75095,887
222,1.004,-0.172,-0.079,0.061,-0.244,0.0,-114.263,-79.338,-97.031,-27.44,-11.633,-6.787,30.26,0.12512,0.68738,-0.25485,0.66843,892,0.72,-0.144,0.687,0.122,-0.122,0.305,-11.882,-45.742,-116.823,-22.56,-6.9,-3.873,28.04,0.44543,-0.3786,-0.121,-0.80219,888,0.396,-0.202,0.89,0.122,-0.61,0.305,-12.859,-23.571,172.546,-11.307,-6.46,-34.053,30.93,-0.08536,-0.19412,0.12222,-0.96954,894,0.968,-0.135,0.125,0.183,0.122,0.0,-46.895,-79.178,-141.487,-30.14,-12.413,-5.287,32.46,-0.00629,-0.65311,0.09674,-0.75095,890
223,1.003,-0.172,-0.079,0.061,-0.183,0.0,-114.285,-79.338,-97.009,-27.44,-11.633,-6.787,30.26,0.12512,0.68738,-0.25485,0.66843,893,0.717,-0.144,0.687,0.122,-0.122,0.244,-11.882,-45.742,-116.812,-22.56,-6.9,-3.873,28.04,0.44543,-0.3786,-0.121,-0.80219,889,0.396,-0.204,0.891,0.061,-0.61,0.183,-12.859,-23.582,172.557,-11.307,-6.46,-34.053,30.93,-0.08536,-0.19412,0.12222,-0.96954,895,0.969,-0.135,0.125,0.061,0.0,0.0,-46.89,-79.178,-141.487,-30.14,-12.413,-5.287,32.46,-0.00629,-0.65311,0.09674,-0.75095,891
224,1.004,-0.171,-0.079,0.0,0.0,0.0,-114.296,-79.338,-96.993,-27.933,-11.72,-6.753,30.26,0.12512,0.68738,-0.25485,0.66843,898,0.718,-0.146,0.688,0.061,-0.122,0.244,-11.887,-45.742,-116.807,-22.56,-6.9,-3.873,28.04,0.44543,-0.3786,-0.121,-0.80219,896,0.397,-0.204,0.89,0.0,-0.427,0.122,-12.859,-23.588,172.568,-11.807,-6.44,-33.787,30.93,-0.08536,-0.19412,0.12222,-0.96954,900,0.969,-0.135,0.126,0.0,0.0,0.0,-46.895,-79.178,-141.487,-30.14,-12.413,-5.287,32.46,-0.00629,-0.65311,0.09674,-0.75095,902
225,1.004,-0.17,-0.079,-0.061,-0.061,-0.061,-114.302,-79.338,-96.993,-27.933,-11.72,-6.753,30.26,0.12512,0.68738,-0.25485,0.66843,899,0.719,-0.145,0.688,0.0,-0.122,0.122,-11.887,-45.742,-116.801,-22.56,-6.9,-3.873,28.04,0.44543,-0.3786,-0.121,-0.80219,897,0.397,-0.203,0.891,-0.244,-0.427,0.0,-12.865,-23.599,172.573,-11.807,-6.44,-33.787,30.93,-0.08536,-0.19412,0.12222,-0.96954,901,0.969,-0.134,0.125,-0.061,-0.061,0.0,-46.901,-79.178,-141.487,-30.14,-12.413,-5.287,32.46,-0.00629,-0.65311,0.09674,-0.75095,903
226,1.004,-0.171,-0.08,-0.061,-0.061,0.0,-114.313,-79.338,-96.982,-27.933,-11.72,-6.753,30.26,0.12512,0.68738,-0.25485,0.66843,906,0.719,-0.144,0.688,0.0,-0.122,0.061,-11.893,-45.747,-116.801,-22.32,-7.22,-4.227,28.04,0.44543,-0.3786,-0.121,-0.80219,904,0.399,-0.201,0.891,-0.427,-0.793,-0.183,-12.87,-23.61,172.584,-11.807,-6.44,-33.787,30.93,-0.08536,-0.19412,0.12222,-0.96954,908,0.971,-0.134,0.125,-0.122,-0.122,0.0,-46.912,-79.178,-141.482,-30.14,-12.413,-5.287,32.46,-0.00629,-0.65311,0.09674,-0.75095,910
227,1.005,-0.171,-0.08,0.0,-0.061,0.0,-114.324,-79.338,-96.976,-27.933,-11.72,-6.753,30.26,0.12512,0.68738,-0.25485,0.66843,907,0.72,-0.143,0.687,-0.183,-0.183,0.0,-11.893,-45.747,-116.796,-22.32,-7.22,-4.227,28.04,0.44543,-0.3786,-0.121,-0.80219,905,0.403,-0.202,0.889,-0.244,-0.244,-0.183,-12.876,-23.615,172.59,-11.807,-6.44,-33.787,30.93,-0.08536,-0.19412,0.12222,-0.96954,909,0.972,-0.133,0.125,0.0,-0.061,0.0,-46.923,-79.184,-141.471,-30.14,-12.413,-5.287,32.46,-0.00629,-0.65311,0.09674,-0.75095,911
228,1.006,-0.17,-0.079,0.0,0.0,0.0,-114.335,-79.338,-96.971,-27.933,-11.72,-6.753,30.26,0.12503,0.68781,-0.25491,0.66797,914,0.724,-0.143,0.687,0.0,-0.183,0.061,-11.893,-45.747,-116.796,-22.32,-7.22,-4.227,28.04,0.44543,-0.3786,-0.121,-0.80219,912,0.402,-0.203,0.887,0.0,0.0,-0.183,-12.876,-23.615,172.595,-11.807,-6.44,-33.787,30.93,-0.08572,-0.19583,0.12268,-0.96909,916,0.971,-0.135,0.126,0.0,-0.122,0.0,-46.928,-79.184,-141.465,-30.14,-12.413,-5.287,32.46,-0.00629,-0.65311,0.09674,-0.75095,918
229,1.004,-0.172,-0.08,-0.183,0.122,0.0,-114.335,-79.338,-96.976,-27.933,-11.72,-6.753,30.26,0.12503,0.68781,-0.25491,0.66797,915,0.722,-0.144,0.685,0.0,-0.122,0.0,-11.893,-45.753,-116.796,-22.32,-7.22,-4.227,28.04,0.44543,-0.3786,-0.121,-0.80219,913,0.397,-0.202,0.887,0.366,0.0,-0.122,-12.87,-23.621,172.595,-11.807,-6.44,-33.787,30.93,-0.08572,-0.19583,0.12268,-0.96909,917,0.967,-0.137,0.126,0.183,-0.061,0.0,-46.934,-79.184,-141.46,-30.14,-12.413,-5.287,32.46,-0.00629,-0.65311,0.09674,-0.75095,919
230,1.002,-0.172,-0.077,-0.305,0.244,0.0,-114.335,-79.338,-96.993,-27.933,-11.72,-6.753,30.26,0.12503,0.68781,-0.25491,0.66797,920,0.718,-0.146,0.685,0.0,0.061,0.0,-11.893,-45.753,-116.796,-22.32,-7.22,-4.227,28.04,0.44583,-0.37933,-0.12128,-0.80157,926,0.396,-0.202,0.886,0.0,0.366,0.0,-12.865,-23.615,172.601,-11.807,-6.44,-33.787,30.93,-0.08572,-0.19583,0.12268,-0.96909,922,0.967,-0.137,0.127,0.061,0.0,0.0,-46.934,-79.184,-141.454,-29.707,-12.087,-5.493,32.46,-0.00629,-0.65311,0.09674,-0.75095,924
231,1.003,-0.172,-0.075,-0.183,0.0,0.0,-114.324,-79.338,-97.009,-27.933,-11.72,-6.753,30.26,0.12503,0.68781,-0.25491,0.66797,921,0.716,-0.145,0.686,0.061,0.366,0.0,-11.893,-45.742,-116.796,-22.32,-7.22,-4.227,28.04,0.44583,-0.37933,-0.12128,-0.80157,927,0.399,-0.197,0.888,-0.427,0.854,0.0,-12.87,-23.599,172.606,-11.807,-6.44,-33.787,30.93,-0.08572,-0.19583,0.12268,-0.96909,923,0.971,-0.133,0.125,-0.305,0.0,0.0,-46.939,-79.184,-141.454,-29.707,-12.087,-5.493,32.46,-0.00629,-0.65311,0.09674,-0.75095,925
232,1.007,-0.171,-0.079,-0.305,0.305,0.0,-114.318,-79.343,-97.026,-27.933,-11.72,-6.753,30.26,0.12503,0.68781,-0.25491,0.66797,930,0.72,-0.14,0.687,0.0,0.366,0.061,-11.893,-45.736,-116.796,-22.32,-7.22,-4.227,28.04,0.44583,-0.37933,-0.12128,-0.80157,928,0.401,-0.199,0.888,0.244,0.732,0.122,-12.865,-23.582,172.606,-11.807,-6.44,-33.787,30.93,-0.08572,-0.19583,0.12268,-0.96909,932,0.974,-0.131,0.126,-0.427,-0.061,0.0,-46.95,-79.189,-141.454,-29.707,-12.087,-5.493,32.46,-0.00629,-0.65311,0.09674,-0.75095,934
