Index,L5_Acceleration X(g),L5_Acceleration Y(g),L5_Acceleration Z(g),L5_Angular velocity X(°/s),L5_Angular velocity Y(°/s),L5_Angular velocity Z(°/s),L5_Angle X(°),L5_Angle Y(°),L5_Angle Z(°),L5_Magnetic field X(ʯt),L5_Magnetic field Y(ʯt),L5_Magnetic field Z(ʯt),L5_Temperature(℃),L5_Quaternions 0(),L5_Quaternions 1(),L5_Quaternions 2(),L5_Quaternions 3(),L5___orig_idx,T4_Acceleration X(g),T4_Acceleration Y(g),T4_Acceleration Z(g),T4_Angular velocity X(°/s),T4_Angular velocity Y(°/s),T4_Angular velocity Z(°/s),T4_Angle X(°),T4_Angle Y(°),T4_Angle Z(°),T4_Magnetic field X(ʯt),T4_Magnetic field Y(ʯt),T4_Magnetic field Z(ʯt),T4_Temperature(℃),T4_Quaternions 0(),T4_Quaternions 1(),T4_Quaternions 2(),T4_Quaternions 3(),T4___orig_idx,C7_Acceleration X(g),C7_Acceleration Y(g),C7_Acceleration Z(g),C7_Angular velocity X(°/s),C7_Angular velocity Y(°/s),C7_Angular velocity Z(°/s),C7_Angle X(°),C7_Angle Y(°),C7_Angle Z(°),C7_Magnetic field X(ʯt),C7_Magnetic field Y(ʯt),C7_Magnetic field Z(ʯt),C7_Temperature(℃),C7_Quaternions 0(),C7_Quaternions 1(),C7_Quaternions 2(),C7_Quaternions 3(),C7___orig_idx,T12_Acceleration X(g),T12_Acceleration Y(g),T12_Acceleration Z(g),T12_Angular velocity X(°/s),T12_Angular velocity Y(°/s),T12_Angular velocity Z(°/s),T12_Angle X(°),T12_Angle Y(°),T12_Angle Z(°),T12_Magnetic field X(ʯt),T12_Magnetic field Y(ʯt),T12_Magnetic field Z(ʯt),T12_Temperature(℃),T12_Quaternions 0(),T12_Quaternions 1(),T12_Quaternions 2(),T12_Quaternions 3(),T12___orig_idx
0,0.969,-0.204,0.236,-0.488,0.427,-0.244,-41.429,-72.361,-149.832,-29.673,-6.513,-9.593,26.38,0.00537,0.60818,-0.13281,0.78253,0,0.655,-0.108,0.751,1.038,1.526,-0.244,-8.773,-41.237,-104.42,-22.167,-3.187,-3.8,24.38,0.55106,-0.32281,-0.15964,-0.75269,2,0.438,-0.305,0.827,0.793,-0.916,0.0,-20.407,-26.702,168.311,-11.207,0.0,-29.047,30.5,0.13831,0.20755,-0.19443,0.94864,10,0.916,-0.155,0.33,-0.183,0.488,-0.732,-25.823,-68.906,-136.675,-30.453,-6.747,-7.047,29.3,-0.17932,0.58124,0.03174,0.79303,6
1,0.97,-0.206,0.234,-0.488,-0.061,-0.122,-41.413,-72.361,-149.837,-29.673,-6.513,-9.593,26.38,0.00537,0.60818,-0.13281,0.78253,1,0.656,-0.107,0.751,0.854,1.892,0.0,-8.745,-41.204,-104.447,-22.167,-3.187,-3.8,24.38,0.55106,-0.32281,-0.15964,-0.75269,3,0.443,-0.303,0.831,1.343,0.488,-0.122,-20.385,-26.702,168.305,-11.207,0.0,-29.047,30.5,0.13831,0.20755,-0.19443,0.94864,11,0.916,-0.159,0.326,-0.122,0.244,-0.61,-25.79,-68.901,-136.686,-30.453,-6.747,-7.047,29.3,-0.17932,0.58124,0.03174,0.79303,7
2,0.972,-0.208,0.231,-0.366,-0.488,-0.183,-41.418,-72.361,-149.821,-29.673,-6.513,-9.593,26.38,0.00537,0.60818,-0.13281,0.78253,4,0.659,-0.106,0.75,1.038,1.648,0.0,-8.723,-41.166,-104.464,-22.167,-3.187,-3.8,24.38,0.55106,-0.32281,-0.15964,-0.75269,12,0.447,-0.302,0.834,1.77,0.854,0.183,-20.352,-26.686,168.294,-11.207,0.0,-29.047,30.5,0.13815,0.20859,-0.19455,0.94839,16,0.918,-0.159,0.321,-0.061,0.122,-0.488,-25.768,-68.901,-136.675,-30.453,-6.747,-7.047,29.3,-0.17932,0.58124,0.03174,0.79303,8
3,0.977,-0.206,0.231,0.0,-0.793,-0.183,-41.435,-72.372,-149.799,-29.673,-6.513,-9.593,26.38,0.00537,0.60818,-0.13281,0.78253,5,0.665,-0.101,0.752,1.221,1.221,0.244,-8.696,-41.138,-104.469,-22.167,-3.187,-3.8,24.38,0.55106,-0.32281,-0.15964,-0.75269,13,0.447,-0.296,0.841,1.77,0.793,0.854,-20.319,-26.664,168.272,-11.207,0.0,-29.047,30.5,0.13815,0.20859,-0.19455,0.94839,17,0.922,-0.155,0.322,0.122,0.0,-0.244,-25.752,-68.895,-136.664,-30.453,-6.747,-7.047,29.3,-0.17932,0.58124,0.03174,0.79303,9
4,0.98,-0.201,0.232,0.305,-1.038,0.0,-41.462,-72.383,-149.788,-29.673,-6.513,-9.593,26.38,0.00537,0.60818,-0.13281,0.78253,14,0.667,-0.102,0.751,1.465,1.16,0.427,-8.668,-41.111,-104.469,-22.167,-3.187,-3.8,24.38,0.55063,-0.3204,-0.15842,-0.75427,22,0.454,-0.296,0.839,2.197,0.549,1.526,-20.286,-26.642,168.261,-11.207,0.0,-29.047,30.5,0.13815,0.20859,-0.19455,0.94839,20,0.925,-0.151,0.324,0.427,-0.305,0.0,-25.752,-68.901,-136.637,-30.453,-6.747,-7.047,29.3,-0.17932,0.58124,0.03174,0.79303,18
5,0.979,-0.201,0.231,0.488,-1.099,0.183,-41.501,-72.4,-149.749,-29.673,-6.513,-9.593,26.38,0.00537,0.60818,-0.13281,0.78253,15,0.667,-0.099,0.747,1.831,1.221,0.244,-8.63,-41.089,-104.469,-22.167,-3.187,-3.8,24.38,0.55063,-0.3204,-0.15842,-0.75427,23,0.454,-0.298,0.834,2.441,1.038,1.526,-20.248,-26.614,168.272,-11.207,0.0,-29.047,30.5,0.13815,0.20859,-0.19455,0.94839,21,0.927,-0.147,0.322,0.793,-0.61,0.305,-25.757,-68.906,-136.604,-30.453,-6.747,-7.047,29.3,-0.17932,0.58124,0.03174,0.79303,19
6,0.98,-0.199,0.229,0.671,-0.977,0.488,-41.539,-72.411,-149.689,-29.673,-6.513,-9.593,26.38,0.00537,0.60818,-0.13281,0.78253,24,0.668,-0.096,0.747,2.136,1.16,0.244,-8.586,-41.061,-104.485,-22.167,-3.187,-3.8,24.38,0.55063,-0.3204,-0.15842,-0.75427,30,0.455,-0.294,0.834,3.357,1.587,1.221,-20.198,-26.581,168.267,-11.207,0.0,-29.047,30.5,0.13815,0.20859,-0.19455,0.94839,28,0.926,-0.147,0.319,1.099,-0.793,0.61,-25.779,-68.912,-136.571,-30.453,-6.747,-7.047,29.3,-0.17932,0.58124,0.03174,0.79303,26
7,0.981,-0.2,0.226,0.916,-0.854,0.732,-41.589,-72.422,-149.634,-29.673,-6.513,-9.593,26.38,0.00537,0.60818,-0.13281,0.78253,25,0.667,-0.103,0.749,2.197,1.038,0.427,-8.536,-41.045,-104.496,-22.167,-3.187,-3.8,24.38,0.55063,-0.3204,-0.15842,-0.75427,31,0.454,-0.296,0.834,3.906,1.831,0.977,-20.127,-26.543,168.256,-11.207,0.0,-29.047,30.5,0.13815,0.20859,-0.19455,0.94839,29,0.928,-0.148,0.317,1.16,-0.916,0.916,-25.807,-68.917,-136.533,-30.453,-6.747,-7.047,29.3,-0.17932,0.58124,0.03174,0.79303,27
8,0.98,-0.199,0.226,1.038,-0.732,0.977,-41.638,-72.422,-149.568,-30.273,-6.7,-9.58,26.38,0.00537,0.60818,-0.13281,0.78253,32,0.663,-0.104,0.75,1.953,0.916,0.366,-8.492,-41.023,-104.491,-22.167,-3.187,-3.8,24.38,0.55063,-0.3204,-0.15842,-0.75427,38,0.45,-0.302,0.838,3.845,1.892,1.16,-20.05,-26.505,168.25,-11.207,0.0,-29.047,30.5,0.13815,0.20859,-0.19455,0.94839,36,0.927,-0.146,0.317,1.038,-1.099,1.16,-25.856,-68.928,-136.494,-30.18,-6.013,-7.28,29.3,-0.17932,0.58124,0.03174,0.79303,34
9,0.979,-0.199,0.225,1.038,-0.732,1.16,-41.688,-72.422,-149.496,-30.273,-6.7,-9.58,26.38,0.00537,0.60818,-0.13281,0.78253,33,0.664,-0.104,0.749,2.014,0.61,0.549,-8.454,-41.012,-104.491,-22.167,-3.187,-3.8,24.38,0.55063,-0.3204,-0.15842,-0.75427,39,0.449,-0.298,0.84,3.723,1.709,1.221,-19.973,-26.466,168.25,-11.207,0.0,-29.047,30.5,0.13815,0.20859,-0.19455,0.94839,37,0.925,-0.15,0.315,1.099,-0.977,1.282,-25.906,-68.939,-136.445,-30.18,-6.013,-7.28,29.3,-0.17932,0.58124,0.03174,0.79303,35
10,0.978,-0.201,0.225,1.16,-0.671,1.221,-41.748,-72.422,-149.409,-30.273,-6.7,-9.58,26.38,0.00537,0.60818,-0.13281,0.78253,40,0.662,-0.103,0.749,2.319,0.244,0.854,-8.416,-41.006,-104.48,-22.167,-3.187,-3.8,24.38,0.55063,-0.3204,-0.15842,-0.75427,46,0.447,-0.296,0.839,3.906,1.038,1.587,-19.907,-26.433,168.272,-11.207,0.0,-29.047,30.5,0.13815,0.20859,-0.19455,0.94839,44,0.925,-0.152,0.314,0.916,-0.732,1.221,-25.955,-68.945,-136.379,-30.18,-6.013,-7.28,29.3,-0.17932,0.58124,0.03174,0.79303,42
11,0.978,-0.201,0.225,1.099,-0.488,1.221,-41.803,-72.416,-149.343,-30.273,-6.7,-9.58,26.38,0.00537,0.60818,-0.13281,0.78253,41,0.663,-0.103,0.748,2.319,0.244,1.099,-8.383,-41.001,-104.464,-22.167,-3.187,-3.8,24.38,0.55063,-0.3204,-0.15842,-0.75427,47,0.444,-0.295,0.835,4.028,0.61,1.648,-19.836,-26.417,168.3,-11.207,0.0,-29.047,30.5,0.13815,0.20859,-0.19455,0.94839,45,0.924,-0.153,0.312,0.854,-0.366,1.282,-25.999,-68.939,-136.313,-30.18,-6.013,-7.28,29.3,-0.17932,0.58124,0.03174,0.79303,43
12,0.978,-0.2,0.231,0.916,-0.183,1.221,-41.852,-72.411,-149.293,-30.273,-6.7,-9.58,26.38,0.00403,0.60831,-0.13177,0.78262,54,0.659,-0.106,0.749,2.258,0.427,1.282,-8.35,-40.995,-104.442,-22.167,-3.187,-3.8,24.38,0.55063,-0.3204,-0.15842,-0.75427,52,0.443,-0.297,0.835,3.906,0.549,1.831,-19.77,-26.395,168.333,-11.207,0.0,-29.047,30.5,0.13815,0.20859,-0.19455,0.94839,50,0.924,-0.152,0.318,0.61,-0.061,1.221,-26.043,-68.934,-136.247,-30.18,-6.013,-7.28,29.3,-0.18057,0.58087,0.03302,0.79297,48
13,0.975,-0.201,0.235,0.549,0.122,1.343,-41.896,-72.4,-149.244,-30.273,-6.7,-9.58,26.38,0.00403,0.60831,-0.13177,0.78262,55,0.653,-0.105,0.75,2.258,0.61,1.343,-8.322,-40.984,-104.42,-22.167,-3.187,-3.8,24.38,0.55063,-0.3204,-0.15842,-0.75427,53,0.437,-0.298,0.836,3.723,0.305,1.953,-19.709,-26.378,168.376,-11.207,0.0,-29.047,30.5,0.13815,0.20859,-0.19455,0.94839,51,0.922,-0.154,0.322,0.244,0.366,1.282,-26.082,-68.923,-136.198,-30.18,-6.013,-7.28,29.3,-0.18057,0.58087,0.03302,0.79297,49
14,0.97,-0.204,0.238,0.122,0.427,1.465,-41.935,-72.383,-149.205,-30.273,-6.7,-9.58,26.38,0.00403,0.60831,-0.13177,0.78262,56,0.652,-0.105,0.752,2.014,0.793,1.526,-8.295,-40.968,-104.387,-22.167,-3.187,-3.8,24.38,0.55063,-0.3204,-0.15842,-0.75427,62,0.435,-0.296,0.839,3.296,-0.122,2.014,-19.655,-26.367,168.393,-11.207,0.0,-29.047,30.5,0.13815,0.20859,-0.19455,0.94839,60,0.918,-0.156,0.322,-0.061,0.854,1.343,-26.12,-68.901,-136.176,-30.18,-6.013,-7.28,29.3,-0.18057,0.58087,0.03302,0.79297,58
15,0.968,-0.21,0.238,-0.061,0.549,1.526,-41.973,-72.356,-149.15,-30.273,-6.7,-9.58,26.38,0.00403,0.60831,-0.13177,0.78262,57,0.653,-0.112,0.751,1.77,1.038,1.953,-8.284,-40.946,-104.348,-22.167,-3.187,-3.8,24.38,0.55063,-0.3204,-0.15842,-0.75427,63,0.43,-0.296,0.836,2.869,-0.793,2.075,-19.616,-26.367,168.42,-11.207,0.0,-29.047,30.5,0.13815,0.20859,-0.19455,0.94839,61,0.917,-0.164,0.324,-0.488,1.282,1.526,-26.164,-68.868,-136.165,-30.18,-6.013,-7.28,29.3,-0.18057,0.58087,0.03302,0.79297,59
16,0.969,-0.216,0.238,-0.122,0.488,1.465,-42.012,-72.328,-149.079,-30.273,-6.7,-9.58,26.38,0.00403,0.60831,-0.13177,0.78262,64,0.65,-0.123,0.751,2.38,1.648,2.258,-8.273,-40.913,-104.31,-22.167,-3.187,-3.8,24.38,0.55063,-0.3204,-0.15842,-0.75427,70,0.429,-0.305,0.829,3.235,-0.183,1.648,-19.572,-26.367,168.47,-11.207,0.0,-29.047,30.5,0.13815,0.20859,-0.19455,0.94839,68,0.918,-0.17,0.326,-0.671,1.404,1.648,-26.219,-68.829,-136.132,-30.18,-6.013,-7.28,29.3,-0.18057,0.58087,0.03302,0.79297,66
17,0.969,-0.218,0.235,-0.122,0.183,1.282,-42.056,-72.307,-148.997,-30.273,-6.7,-9.58,26.38,0.00403,0.60831,-0.13177,0.78262,65,0.645,-0.124,0.755,2.747,2.625,2.808,-8.256,-40.864,-104.266,-22.167,-3.187,-3.8,24.38,0.55063,-0.3204,-0.15842,-0.75427,71,0.426,-0.307,0.826,3.052,0.671,1.953,-19.528,-26.351,168.503,-11.207,0.0,-29.047,30.5,0.13815,0.20859,-0.19455,0.94839,69,0.916,-0.176,0.324,-0.61,1.587,1.648,-26.274,-68.785,-136.11,-30.18,-6.013,-7.28,29.3,-0.18057,0.58087,0.03302,0.79297,67
18,0.969,-0.216,0.23,0.061,0.122,0.977,-42.1,-72.285,-148.925,-30.273,-6.7,-9.58,26.38,0.00403,0.60831,-0.13177,0.78262,72,0.645,-0.123,0.764,2.991,2.686,3.113,-8.251,-40.803,-104.211,-22.653,-3.62,-3.8,24.38,0.55063,-0.3204,-0.15842,-0.75427,78,0.422,-0.31,0.841,3.418,0.183,2.441,-19.484,-26.329,168.552,-11.08,-0.393,-28.807,30.5,0.13815,0.20859,-0.19455,0.94839,76,0.913,-0.176,0.315,0.061,1.892,1.282,-26.296,-68.736,-136.115,-30.18,-6.013,-7.28,29.3,-0.18057,0.58087,0.03302,0.79297,74
19,0.971,-0.214,0.226,0.244,0.366,0.671,-42.133,-72.268,-148.865,-30.273,-6.7,-9.58,26.38,0.00403,0.60831,-0.13177,0.78262,73,0.649,-0.122,0.768,2.625,1.953,2.808,-8.24,-40.748,-104.156,-22.653,-3.62,-3.8,24.38,0.55063,-0.3204,-0.15842,-0.75427,79,0.428,-0.314,0.85,2.563,-0.61,2.258,-19.457,-26.312,168.607,-11.08,-0.393,-28.807,30.5,0.13815,0.20859,-0.19455,0.94839,77,0.914,-0.169,0.311,0.732,1.953,0.977,-26.29,-68.692,-136.121,-30.18,-6.013,-7.28,29.3,-0.18057,0.58087,0.03302,0.79297,75
20,0.976,-0.212,0.228,0.244,0.793,0.366,-42.133,-72.252,-148.843,-30.273,-6.7,-9.58,26.38,0.00403,0.60831,-0.13177,0.78262,80,0.65,-0.118,0.768,1.953,1.16,2.258,-8.24,-40.71,-104.112,-22.653,-3.62,-3.8,24.38,0.55063,-0.3204,-0.15842,-0.75427,86,0.43,-0.315,0.853,1.343,-1.16,1.831,-19.446,-26.312,168.646,-11.08,-0.393,-28.807,30.5,0.13815,0.20859,-0.19455,0.94839,84,0.92,-0.167,0.316,0.732,1.587,0.732,-26.29,-68.659,-136.115,-30.18,-6.013,-7.28,29.3,-0.18057,0.58087,0.03302,0.79297,82
21,0.976,-0.212,0.228,0.244,1.038,0.244,-42.111,-72.235,-148.826,-30.273,-6.7,-9.58,26.38,0.00403,0.60831,-0.13177,0.78262,81,0.649,-0.116,0.77,1.404,0.671,1.587,-8.245,-40.677,-104.09,-22.653,-3.62,-3.8,24.38,0.55063,-0.3204,-0.15842,-0.75427,87,0.432,-0.311,0.853,0.793,-1.831,1.099,-19.451,-26.323,168.69,-11.08,-0.393,-28.807,30.5,0.13815,0.20859,-0.19455,0.94839,85,0.921,-0.166,0.32,0.793,1.526,0.488,-26.274,-68.626,-136.121,-30.18,-6.013,-7.28,29.3,-0.18057,0.58087,0.03302,0.79297,83
22,0.975,-0.21,0.228,0.366,1.099,0.061,-42.067,-72.213,-148.821,-30.273,-6.7,-9.58,26.38,0.00403,0.60831,-0.13177,0.78262,88,0.649,-0.12,0.769,0.671,0.549,0.916,-8.245,-40.66,-104.084,-22.653,-3.62,-3.8,24.38,0.55545,-0.31482,-0.16006,-0.75275,94,0.432,-0.313,0.854,0.0,-2.686,0.671,-19.462,-26.351,168.728,-11.08,-0.393,-28.807,30.5,0.13275,0.20718,-0.18579,0.95123,92,0.92,-0.166,0.323,0.793,1.282,0.244,-26.252,-68.599,-136.154,-30.18,-6.013,-7.28,29.3,-0.18057,0.58087,0.03302,0.79297,90
23,0.972,-0.209,0.231,0.183,0.916,-0.244,-42.023,-72.202,-148.815,-30.273,-6.7,-9.58,26.38,0.00403,0.60831,-0.13177,0.78262,89,0.649,-0.113,0.765,-0.244,0.427,0.305,-8.256,-40.644,-104.09,-22.653,-3.62,-3.8,24.38,0.55545,-0.31482,-0.16006,-0.75275,95,0.435,-0.312,0.847,-1.16,-3.296,0.305,-19.495,-26.4,168.777,-11.08,-0.393,-28.807,30.5,0.13275,0.20718,-0.18579,0.95123,93,0.917,-0.165,0.326,0.549,0.916,-0.122,-26.23,-68.588,-136.198,-30.18,-6.013,-7.28,29.3,-0.18057,0.58087,0.03302,0.79297,91
24,0.97,-0.205,0.234,-0.244,0.793,-0.488,-41.973,-72.197,-148.837,-30.273,-6.7,-9.58,26.38,0.00403,0.60831,-0.13177,0.78262,96,0.649,-0.11,0.765,-1.404,0.122,-0.061,-8.278,-40.627,-104.101,-22.653,-3.62,-3.8,24.38,0.55545,-0.31482,-0.16006,-0.75275,102,0.438,-0.306,0.843,-2.502,-2.686,-0.488,-19.55,-26.444,168.805,-11.08,-0.393,-28.807,30.5,0.13275,0.20718,-0.18579,0.95123,100,0.915,-0.161,0.328,0.0,0.977,-0.366,-26.202,-68.571,-136.252,-30.18,-6.013,-7.28,29.3,-0.18057,0.58087,0.03302,0.79297,98
25,0.972,-0.202,0.237,-0.732,0.61,-0.61,-41.935,-72.191,-148.87,-30.273,-6.7,-9.58,26.38,0.00403,0.60831,-0.13177,0.78262,97,0.647,-0.108,0.761,-1.587,-0.305,-0.366,-8.311,-40.627,-104.117,-22.653,-3.62,-3.8,24.38,0.55545,-0.31482,-0.16006,-0.75275,103,0.439,-0.3,0.844,-2.93,-1.587,-1.038,-19.611,-26.483,168.816,-11.08,-0.393,-28.807,30.5,0.13275,0.20718,-0.18579,0.95123,101,0.917,-0.16,0.334,-0.488,0.549,-0.732,-26.175,-68.566,-136.302,-30.18,-6.013,-7.28,29.3,-0.18057,0.58087,0.03302,0.79297,99
26,0.971,-0.206,0.241,-0.977,0.183,-0.549,-41.907,-72.191,-148.914,-29.78,-6.627,-9.273,26.38,0.00403,0.60831,-0.13177,0.78262,104,0.645,-0.113,0.763,-1.587,-0.549,-0.732,-8.333,-40.633,-104.139,-22.653,-3.62,-3.8,24.38,0.55545,-0.31482,-0.16006,-0.75275,110,0.434,-0.304,0.84,-2.502,-1.343,-1.099,-19.66,-26.51,168.827,-11.08,-0.393,-28.807,30.5,0.13275,0.20718,-0.18579,0.95123,108,0.917,-0.159,0.337,-0.854,0.061,-0.793,-26.158,-68.571,-136.34,-29.767,-6.453,-6.48,29.3,-0.18057,0.58087,0.03302,0.79297,106
27,0.966,-0.208,0.239,-1.282,0.0,-0.427,-41.896,-72.197,-148.947,-29.78,-6.627,-9.273,26.38,0.00403,0.60831,-0.13177,0.78262,105,0.646,-0.109,0.761,-1.831,-0.488,-1.16,-8.355,-40.638,-104.172,-22.653,-3.62,-3.8,24.38,0.55545,-0.31482,-0.16006,-0.75275,111,0.437,-0.306,0.84,-2.441,-0.793,-1.038,-19.709,-26.526,168.838,-11.08,-0.393,-28.807,30.5,0.13275,0.20718,-0.18579,0.95123,109,0.913,-0.161,0.335,-0.977,-0.183,-0.732,-26.153,-68.577,-136.357,-29.767,-6.453,-6.48,29.3,-0.18057,0.58087,0.03302,0.79297,107
28,0.967,-0.211,0.235,-1.282,-0.366,-0.366,-41.907,-72.208,-148.958,-29.78,-6.627,-9.273,26.38,0.00403,0.60831,-0.13177,0.78262,112,0.651,-0.102,0.754,-1.77,-0.732,-1.16,-8.372,-40.644,-104.216,-22.653,-3.62,-3.8,24.38,0.55545,-0.31482,-0.16006,-0.75275,118,0.444,-0.295,0.838,-2.136,-0.061,-1.465,-19.742,-26.532,168.838,-11.08,-0.393,-28.807,30.5,0.13275,0.20718,-0.18579,0.95123,116,0.912,-0.162,0.332,-1.038,-0.61,-0.671,-26.158,-68.588,-136.351,-29.767,-6.453,-6.48,29.3,-0.18057,0.58087,0.03302,0.79297,114
29,0.972,-0.209,0.234,-1.038,-0.977,-0.244,-41.94,-72.219,-148.953,-29.78,-6.627,-9.273,26.38,0.00403,0.60831,-0.13177,0.78262,113,0.653,-0.102,0.75,-1.587,-0.977,-0.793,-8.394,-40.66,-104.249,-22.653,-3.62,-3.8,24.38,0.55545,-0.31482,-0.16006,-0.75275,119,0.444,-0.29,0.834,-1.343,-0.122,-1.221,-19.764,-26.532,168.838,-11.08,-0.393,-28.807,30.5,0.13275,0.20718,-0.18579,0.95123,117,0.916,-0.162,0.329,-0.854,-0.916,-0.427,-26.175,-68.604,-136.324,-29.767,-6.453,-6.48,29.3,-0.18057,0.58087,0.03302,0.79297,115
30,0.975,-0.207,0.233,-0.732,-1.404,-0.183,-41.995,-72.235,-148.931,-29.78,-6.627,-9.273,26.38,0.00137,0.60757,-0.13132,0.78326,120,0.655,-0.103,0.752,-1.343,-0.671,-0.427,-8.41,-40.671,-104.277,-22.653,-3.62,-3.8,24.38,0.55545,-0.31482,-0.16006,-0.75275,126,0.446,-0.291,0.831,-0.916,0.183,-0.732,-19.775,-26.532,168.827,-11.08,-0.393,-28.807,30.5,0.13275,0.20718,-0.18579,0.95123,124,0.919,-0.161,0.327,-0.671,-1.038,-0.244,-26.202,-68.621,-136.296,-29.767,-6.453,-6.48,29.3,-0.18076,0.57904,0.03046,0.79437,122
31,0.976,-0.206,0.231,-0.488,-1.526,-0.122,-42.056,-72.257,-148.881,-29.78,-6.627,-9.273,26.38,0.00137,0.60757,-0.13132,0.78326,121,0.659,-0.103,0.755,-1.221,-0.549,-0.183,-8.427,-40.682,-104.293,-22.653,-3.62,-3.8,24.38,0.55545,-0.31482,-0.16006,-0.75275,127,0.446,-0.292,0.836,-0.61,0.549,-0.427,-19.781,-26.521,168.805,-11.08,-0.393,-28.807,30.5,0.13275,0.20718,-0.18579,0.95123,125,0.92,-0.159,0.324,-0.427,-0.854,-0.183,-26.224,-68.632,-136.241,-29.767,-6.453,-6.48,29.3,-0.18076,0.57904,0.03046,0.79437,123
32,0.977,-0.205,0.23,-0.549,-1.343,-0.122,-42.116,-72.279,-148.843,-29.78,-6.627,-9.273,26.38,0.00137,0.60757,-0.13132,0.78326,128,0.663,-0.104,0.754,-1.099,-0.671,0.061,-8.448,-40.688,-104.31,-22.653,-3.62,-3.8,24.38,0.55545,-0.31482,-0.16006,-0.75275,136,0.451,-0.294,0.838,-0.488,0.488,-0.183,-19.786,-26.516,168.772,-11.08,-0.393,-28.807,30.5,0.13275,0.20718,-0.18579,0.95123,132,0.925,-0.158,0.322,-0.427,-0.854,-0.061,-26.246,-68.643,-136.198,-29.767,-6.453,-6.48,29.3,-0.18076,0.57904,0.03046,0.79437,130
33,0.98,-0.207,0.23,-0.61,-1.221,0.0,-42.171,-72.301,-148.821,-29.78,-6.627,-9.273,26.38,0.00137,0.60757,-0.13132,0.78326,129,0.664,-0.106,0.754,-0.977,-0.61,0.061,-8.465,-40.699,-104.321,-22.653,-3.62,-3.8,24.38,0.55545,-0.31482,-0.16006,-0.75275,137,0.452,-0.297,0.835,-0.305,0.793,-0.305,-19.781,-26.499,168.728,-11.08,-0.393,-28.807,30.5,0.13275,0.20718,-0.18579,0.95123,133,0.926,-0.158,0.32,-0.305,-0.793,0.122,-26.279,-68.654,-136.17,-29.767,-6.453,-6.48,29.3,-0.18076,0.57904,0.03046,0.79437,131
34,0.981,-0.206,0.228,-0.305,-1.038,0.0,-42.22,-72.312,-148.804,-29.78,-6.627,-9.273,26.38,0.00137,0.60757,-0.13132,0.78326,134,0.664,-0.111,0.75,-0.671,-0.549,0.061,-8.476,-40.71,-104.337,-22.3,-3.593,-4.1,24.38,0.55545,-0.31482,-0.16006,-0.75275,142,0.452,-0.3,0.835,0.0,0.977,-0.305,-19.775,-26.483,168.684,-11.08,-0.393,-28.807,30.5,0.13275,0.20718,-0.18579,0.95123,140,0.926,-0.156,0.319,-0.061,-0.549,0.183,-26.307,-68.665,-136.148,-29.767,-6.453,-6.48,29.3,-0.18076,0.57904,0.03046,0.79437,138
35,0.98,-0.206,0.227,-0.061,-0.793,0.183,-42.259,-72.328,-148.771,-29.78,-6.627,-9.273,26.38,0.00137,0.60757,-0.13132,0.78326,135,0.66,-0.111,0.753,-0.549,-0.427,-0.061,-8.487,-40.721,-104.359,-22.3,-3.593,-4.1,24.38,0.55545,-0.31482,-0.16006,-0.75275,143,0.449,-0.304,0.834,0.244,0.61,-0.122,-19.77,-26.477,168.629,-11.08,-0.393,-28.807,30.5,0.13275,0.20718,-0.18579,0.95123,141,0.924,-0.156,0.316,0.061,-0.427,0.305,-26.323,-68.67,-136.121,-29.767,-6.453,-6.48,29.3,-0.18076,0.57904,0.03046,0.79437,139
36,0.978,-0.206,0.224,0.0,-0.549,0.244,-42.297,-72.334,-148.738,-29.78,-6.627,-9.273,26.38,0.00137,0.60757,-0.13132,0.78326,144,0.66,-0.111,0.753,-0.305,-0.549,-0.244,-8.487,-40.732,-104.387,-22.3,-3.593,-4.1,24.38,0.55545,-0.31482,-0.16006,-0.75275,150,0.448,-0.303,0.838,0.244,0.366,-0.244,-19.759,-26.472,168.569,-10.607,-0.833,-29.54,30.5,0.13275,0.20718,-0.18579,0.95123,148,0.922,-0.16,0.315,0.305,-0.427,0.244,-26.345,-68.676,-136.099,-29.767,-6.453,-6.48,29.3,-0.18076,0.57904,0.03046,0.79437,146
37,0.976,-0.208,0.223,0.244,-0.549,0.305,-42.325,-72.339,-148.705,-29.78,-6.627,-9.273,26.38,0.00137,0.60757,-0.13132,0.78326,145,0.659,-0.108,0.75,0.0,-0.61,0.0,-8.487,-40.743,-104.409,-22.3,-3.593,-4.1,24.38,0.55545,-0.31482,-0.16006,-0.75275,151,0.445,-0.296,0.836,0.244,-0.183,0.0,-19.753,-26.472,168.503,-10.607,-0.833,-29.54,30.5,0.13275,0.20718,-0.18579,0.95123,149,0.922,-0.162,0.318,0.427,-0.305,0.305,-26.356,-68.681,-136.077,-29.767,-6.453,-6.48,29.3,-0.18076,0.57904,0.03046,0.79437,147
38,0.977,-0.209,0.224,0.488,-0.549,0.244,-42.352,-72.345,-148.678,-29.78,-6.627,-9.273,26.38,0.00137,0.60757,-0.13132,0.78326,152,0.661,-0.114,0.75,0.244,-0.244,0.183,-8.481,-40.748,-104.425,-22.3,-3.593,-4.1,24.38,0.55246,-0.31686,-0.1579,-0.75455,158,0.446,-0.299,0.83,0.977,-0.183,0.0,-19.737,-26.477,168.448,-10.607,-0.833,-29.54,30.5,0.13275,0.20718,-0.18579,0.95123,156,0.923,-0.16,0.318,0.488,-0.244,0.366,-26.373,-68.687,-136.049,-29.767,-6.453,-6.48,29.3,-0.18076,0.57904,0.03046,0.79437,154
39,0.978,-0.206,0.227,0.427,-0.488,0.305,-42.374,-72.35,-148.64,-29.78,-6.627,-9.273,26.38,0.00137,0.60757,-0.13132,0.78326,153,0.659,-0.116,0.748,0.305,0.305,0.183,-8.476,-40.748,-104.436,-22.3,-3.593,-4.1,24.38,0.55246,-0.31686,-0.1579,-0.75455,159,0.445,-0.303,0.828,0.488,0.793,0.0,-19.72,-26.472,168.398,-10.607,-0.833,-29.54,30.5,0.13275,0.20718,-0.18579,0.95123,157,0.921,-0.16,0.317,0.427,0.0,0.244,-26.384,-68.687,-136.011,-29.767,-6.453,-6.48,29.3,-0.18076,0.57904,0.03046,0.79437,155
40,0.976,-0.207,0.226,0.122,-0.244,0.305,-42.402,-72.356,-148.601,-29.78,-6.627,-9.273,26.38,0.00137,0.60757,-0.13132,0.78326,160,0.656,-0.113,0.753,0.549,0.366,0.244,-8.47,-40.743,-104.447,-22.3,-3.593,-4.1,24.38,0.55246,-0.31686,-0.1579,-0.75455,164,0.443,-0.303,0.835,0.854,0.305,-0.122,-19.704,-26.466,168.365,-10.607,-0.833,-29.54,30.5,0.13599,0.20755,-0.18866,0.95013,170,0.92,-0.162,0.316,0.183,0.183,0.183,-26.384,-68.687,-135.978,-29.767,-6.453,-6.48,29.3,-0.18076,0.57904,0.03046,0.79437,162
41,0.975,-0.208,0.228,0.0,0.122,0.366,-42.418,-72.356,-148.568,-29.78,-6.627,-9.273,26.38,0.00137,0.60757,-0.13132,0.78326,161,0.659,-0.11,0.752,0.61,0.366,0.427,-8.465,-40.737,-104.447,-22.3,-3.593,-4.1,24.38,0.55246,-0.31686,-0.1579,-0.75455,165,0.444,-0.299,0.836,1.099,0.244,0.0,-19.688,-26.466,168.354,-10.607,-0.833,-29.54,30.5,0.13599,0.20755,-0.18866,0.95013,171,0.922,-0.163,0.319,0.0,0.244,0.305,-26.389,-68.681,-135.939,-29.767,-6.453,-6.48,29.3,-0.18076,0.57904,0.03046,0.79437,163
42,0.976,-0.212,0.229,0.0,0.427,0.366,-42.418,-72.345,-148.53,-29.727,-6.533,-8.433,26.38,0.00137,0.60757,-0.13132,0.78326,166,0.656,-0.112,0.751,0.916,0.366,0.366,-8.448,-40.732,-104.442,-22.3,-3.593,-4.1,24.38,0.55246,-0.31686,-0.1579,-0.75455,172,0.444,-0.298,0.834,0.488,0.427,0.305,-19.677,-26.461,168.349,-10.607,-0.833,-29.54,30.5,0.13599,0.20755,-0.18866,0.95013,178,0.921,-0.164,0.321,0.183,0.366,0.488,-26.4,-68.676,-135.895,-29.767,-6.453,-6.48,29.3,-0.18076,0.57904,0.03046,0.79437,168
43,0.975,-0.212,0.229,0.061,0.549,0.488,-42.418,-72.334,-148.508,-29.727,-6.533,-8.433,26.38,0.00137,0.60757,-0.13132,0.78326,167,0.653,-0.116,0.756,1.099,0.732,0.488,-8.438,-40.715,-104.431,-22.3,-3.593,-4.1,24.38,0.55246,-0.31686,-0.1579,-0.75455,173,0.439,-0.303,0.833,1.282,0.183,0.244,-19.655,-26.455,168.333,-10.607,-0.833,-29.54,30.5,0.13599,0.20755,-0.18866,0.95013,179,0.918,-0.167,0.317,0.549,0.488,0.488,-26.417,-68.665,-135.868,-29.767,-6.453,-6.48,29.3,-0.18076,0.57904,0.03046,0.79437,169
44,0.973,-0.212,0.224,0.305,0.671,0.427,-42.413,-72.323,-148.486,-29.727,-6.533,-8.433,26.38,0.00137,0.60757,-0.13132,0.78326,174,0.652,-0.12,0.761,0.916,0.61,0.549,-8.427,-40.704,-104.431,-22.3,-3.593,-4.1,24.38,0.55246,-0.31686,-0.1579,-0.75455,182,0.438,-0.308,0.843,0.977,0.427,0.549,-19.644,-26.45,168.316,-10.607,-0.833,-29.54,30.5,0.13599,0.20755,-0.18866,0.95013,180,0.918,-0.166,0.315,0.793,0.549,0.305,-26.417,-68.654,-135.851,-30.313,-6.467,-6.233,29.3,-0.18076,0.57904,0.03046,0.79437,176
45,0.973,-0.21,0.226,0.427,0.916,0.244,-42.391,-72.307,-148.497,-29.727,-6.533,-8.433,26.38,0.00137,0.60757,-0.13132,0.78326,175,0.652,-0.119,0.761,0.671,-0.061,0.366,-8.421,-40.699,-104.42,-22.3,-3.593,-4.1,24.38,0.55246,-0.31686,-0.1579,-0.75455,183,0.435,-0.312,0.847,0.305,-0.366,0.732,-19.644,-26.45,168.322,-10.607,-0.833,-29.54,30.5,0.13599,0.20755,-0.18866,0.95013,181,0.92,-0.164,0.32,0.61,0.488,0.122,-26.411,-68.643,-135.84,-30.313,-6.467,-6.233,29.3,-0.18076,0.57904,0.03046,0.79437,177
46,0.975,-0.209,0.229,0.427,1.038,0.0,-42.352,-72.29,-148.53,-29.727,-6.533,-8.433,26.38,0.00095,0.60858,-0.13165,0.78244,184,0.653,-0.115,0.761,0.488,-0.244,0.122,-8.416,-40.704,-104.431,-22.3,-3.593,-4.1,24.38,0.55246,-0.31686,-0.1579,-0.75455,190,0.439,-0.307,0.842,-0.122,-0.977,0.305,-19.649,-26.461,168.338,-10.607,-0.833,-29.54,30.5,0.13599,0.20755,-0.18866,0.95013,188,0.92,-0.164,0.323,0.549,0.549,-0.061,-26.4,-68.632,-135.846,-30.313,-6.467,-6.233,29.3,-0.18076,0.57904,0.03046,0.79437,186
47,0.975,-0.208,0.231,0.366,1.16,-0.061,-42.297,-72.279,-148.579,-29.727,-6.533,-8.433,26.38,0.00095,0.60858,-0.13165,0.78244,185,0.65,-0.113,0.757,0.366,-0.061,0.0,-8.41,-40.704,-104.447,-22.3,-3.593,-4.1,24.38,0.55246,-0.31686,-0.1579,-0.75455,191,0.438,-0.304,0.839,-0.061,-0.854,0.0,-19.66,-26.472,168.349,-10.607,-0.833,-29.54,30.5,0.13599,0.20755,-0.18866,0.95013,189,0.917,-0.165,0.326,0.366,0.61,-0.183,-26.378,-68.626,-135.873,-30.313,-6.467,-6.233,29.3,-0.18076,0.57904,0.03046,0.79437,187
48,0.971,-0.209,0.234,0.122,1.16,-0.183,-42.242,-72.263,-148.645,-29.727,-6.533,-8.433,26.38,0.00095,0.60858,-0.13165,0.78244,192,0.649,-0.11,0.76,0.244,0.061,0.061,-8.405,-40.699,-104.453,-22.3,-3.593,-4.1,24.38,0.55246,-0.31686,-0.1579,-0.75455,198,0.437,-0.3,0.839,-0.061,-0.732,0.061,-19.666,-26.488,168.365,-10.607,-0.833,-29.54,30.5,0.13599,0.20755,-0.18866,0.95013,196,0.915,-0.165,0.325,0.183,0.793,-0.305,-26.356,-68.615,-135.895,-30.313,-6.467,-6.233,29.3,-0.18283,0.57947,0.03146,0.79352,194
49,0.97,-0.209,0.233,-0.183,1.221,-0.305,-42.188,-72.252,-148.727,-29.727,-6.533,-8.433,26.38,0.00095,0.60858,-0.13165,0.78244,193,0.649,-0.112,0.759,0.305,-0.244,0.122,-8.405,-40.699,-104.469,-22.3,-3.593,-4.1,24.38,0.55246,-0.31686,-0.1579,-0.75455,199,0.437,-0.302,0.843,-0.122,-0.916,0.366,-19.677,-26.499,168.382,-10.607,-0.833,-29.54,30.5,0.13599,0.20755,-0.18866,0.95013,197,0.917,-0.162,0.33,-0.061,0.671,-0.427,-26.329,-68.604,-135.906,-30.313,-6.467,-6.233,29.3,-0.18283,0.57947,0.03146,0.79352,195
50,0.972,-0.208,0.237,-0.366,1.16,-0.244,-42.127,-72.235,-148.81,-29.727,-6.533,-8.433,26.38,0.00095,0.60858,-0.13165,0.78244,200,0.651,-0.11,0.759,0.061,-0.488,-0.183,-8.405,-40.704,-104.496,-22.3,-3.593,-4.1,24.38,0.55246,-0.31686,-0.1579,-0.75455,206,0.438,-0.304,0.84,-0.305,-1.343,0.183,-19.693,-26.516,168.387,-10.607,-0.833,-29.54,30.5,0.13599,0.20755,-0.18866,0.95013,202,0.917,-0.16,0.333,-0.183,0.427,-0.366,-26.307,-68.593,-135.912,-30.313,-6.467,-6.233,29.3,-0.18283,0.57947,0.03146,0.79352,204
51,0.971,-0.208,0.237,-0.488,0.854,-0.183,-42.083,-72.224,-148.887,-29.727,-6.533,-8.433,26.38,0.00095,0.60858,-0.13165,0.78244,201,0.649,-0.107,0.759,0.0,-0.427,-0.366,-8.399,-40.71,-104.524,-22.3,-3.593,-4.1,24.38,0.55246,-0.31686,-0.1579,-0.75455,207,0.438,-0.299,0.838,-0.366,-1.16,0.0,-19.704,-26.532,168.387,-10.607,-0.833,-29.54,30.5,0.13599,0.20755,-0.18866,0.95013,203,0.916,-0.161,0.332,0.0,0.183,-0.183,-26.29,-68.588,-135.906,-30.313,-6.467,-6.233,29.3,-0.18283,0.57947,0.03146,0.79352,205
52,0.97,-0.209,0.235,-0.305,0.366,0.0,-42.061,-72.219,-148.936,-29.727,-6.533,-8.433,26.38,0.00095,0.60858,-0.13165,0.78244,214,0.652,-0.107,0.757,-0.183,-0.305,-0.427,-8.394,-40.715,-104.54,-22.16,-3.56,-4.293,24.38,0.55246,-0.31686,-0.1579,-0.75455,212,0.44,-0.298,0.837,-0.305,-0.366,-0.305,-19.715,-26.543,168.387,-10.607,-0.833,-29.54,30.5,0.13599,0.20755,-0.18866,0.95013,210,0.918,-0.165,0.33,0.122,-0.061,-0.122,-26.285,-68.588,-135.901,-30.313,-6.467,-6.233,29.3,-0.18283,0.57947,0.03146,0.79352,208
53,0.972,-0.211,0.233,0.0,-0.122,0.0,-42.061,-72.213,-148.942,-29.727,-6.533,-8.433,26.38,0.00095,0.60858,-0.13165,0.78244,215,0.653,-0.11,0.752,-0.305,0.0,-0.305,-8.394,-40.715,-104.551,-22.16,-3.56,-4.293,24.38,0.55246,-0.31686,-0.1579,-0.75455,213,0.444,-0.299,0.835,-0.61,-0.427,-0.366,-19.72,-26.548,168.382,-10.607,-0.833,-29.54,30.5,0.13599,0.20755,-0.18866,0.95013,211,0.917,-0.166,0.326,0.366,-0.122,-0.122,-26.279,-68.588,-135.901,-30.313,-6.467,-6.233,29.3,-0.18283,0.57947,0.03146,0.79352,209
54,0.972,-0.211,0.232,0.244,-0.488,0.0,-42.072,-72.219,-148.925,-29.727,-6.533,-8.433,26.38,0.00095,0.60858,-0.13165,0.78244,216,0.654,-0.105,0.752,-0.305,0.122,-0.244,-8.394,-40.71,-104.568,-22.16,-3.56,-4.293,24.38,0.55246,-0.31686,-0.1579,-0.75455,222,0.444,-0.297,0.832,-0.488,-0.305,-0.244,-19.731,-26.554,168.376,-10.607,-0.833,-29.54,30.5,0.13599,0.20755,-0.18866,0.95013,220,0.917,-0.16,0.322,0.0,0.122,0.0,-26.274,-68.582,-135.901,-30.313,-6.467,-6.233,29.3,-0.18283,0.57947,0.03146,0.79352,218
55,0.972,-0.206,0.231,0.061,-0.549,-0.061,-42.089,-72.23,-148.898,-29.727,-6.533,-8.433,26.38,0.00095,0.60858,-0.13165,0.78244,217,0.657,-0.106,0.757,-0.61,0.122,-0.244,-8.399,-40.704,-104.579,-22.16,-3.56,-4.293,24.38,0.55246,-0.31686,-0.1579,-0.75455,223,0.446,-0.297,0.836,-0.61,0.061,-0.488,-19.737,-26.554,168.371,-10.607,-0.833,-29.54,30.5,0.13599,0.20755,-0.18866,0.95013,221,0.921,-0.159,0.325,-0.061,-0.122,-0.122,-26.279,-68.582,-135.901,-30.313,-6.467,-6.233,29.3,-0.18283,0.57947,0.03146,0.79352,219
56,0.978,-0.204,0.231,0.0,-0.488,-0.061,-42.105,-72.235,-148.881,-29.727,-6.533,-8.433,26.38,0.00095,0.60858,-0.13165,0.78244,224,0.659,-0.105,0.756,-0.122,-0.122,0.0,-8.399,-40.704,-104.584,-22.16,-3.56,-4.293,24.38,0.55173,-0.31641,-0.15781,-0.75528,230,0.446,-0.293,0.84,0.061,0.427,-0.305,-19.737,-26.548,168.365,-11.207,-0.367,-28.953,30.5,0.13599,0.20755,-0.18866,0.95013,228,0.924,-0.161,0.327,0.122,-0.366,-0.183,-26.279,-68.582,-135.895,-30.313,-6.467,-6.233,29.3,-0.18283,0.57947,0.03146,0.79352,226
57,0.979,-0.207,0.235,0.122,-0.61,0.0,-42.122,-72.246,-148.854,-29.727,-6.533,-8.433,26.38,0.00095,0.60858,-0.13165,0.78244,225,0.657,-0.112,0.76,0.0,-0.183,0.061,-8.399,-40.704,-104.59,-22.16,-3.56,-4.293,24.38,0.55173,-0.31641,-0.15781,-0.75528,231,0.444,-0.302,0.84,0.671,0.366,-0.183,-19.72,-26.543,168.36,-11.207,-0.367,-28.953,30.5,0.13599,0.20755,-0.18866,0.95013,229,0.923,-0.161,0.326,0.183,-0.305,-0.061,-26.279,-68.588,-135.862,-30.313,-6.467,-6.233,29.3,-0.18283,0.57947,0.03146,0.79352,227
58,0.977,-0.209,0.232,0.183,-0.366,0.061,-42.133,-72.252,-148.826,-29.727,-6.533,-8.433,26.38,0.00095,0.60858,-0.13165,0.78244,232,0.658,-0.111,0.759,0.183,-0.244,-0.366,-8.394,-40.71,-104.606,-22.16,-3.56,-4.293,24.38,0.55173,-0.31641,-0.15781,-0.75528,238,0.448,-0.306,0.841,1.16,0.793,-0.488,-19.693,-26.532,168.36,-11.207,-0.367,-28.953,30.5,0.13599,0.20755,-0.18866,0.95013,236,0.92,-0.158,0.323,0.305,-0.366,0.0,-26.279,-68.593,-135.824,-30.313,-6.467,-6.233,29.3,-0.18283,0.57947,0.03146,0.79352,234
59,0.975,-0.207,0.23,0.305,-0.183,0.061,-42.138,-72.252,-148.81,-29.727,-6.533,-8.433,26.38,0.00095,0.60858,-0.13165,0.78244,233,0.657,-0.111,0.754,0.427,-0.732,-0.61,-8.372,-40.721,-104.628,-22.16,-3.56,-4.293,24.38,0.55173,-0.31641,-0.15781,-0.75528,239,0.446,-0.302,0.841,1.282,0.488,-0.671,-19.66,-26.521,168.349,-11.207,-0.367,-28.953,30.5,0.13599,0.20755,-0.18866,0.95013,237,0.92,-0.159,0.322,0.305,-0.427,0.0,-26.285,-68.599,-135.786,-30.313,-6.467,-6.233,29.3,-0.18283,0.57947,0.03146,0.79352,235
60,0.975,-0.207,0.229,0.305,-0.305,0.183,-42.144,-72.252,-148.766,-29.753,-6.307,-9.227,26.38,0.00095,0.60858,-0.13165,0.78244,240,0.656,-0.109,0.752,0.427,-0.671,-0.488,-8.355,-40.737,-104.656,-22.16,-3.56,-4.293,24.38,0.55173,-0.31641,-0.15781,-0.75528,246,0.443,-0.299,0.834,1.221,0.0,-0.427,-19.633,-26.521,168.344,-11.207,-0.367,-28.953,30.5,0.13626,0.20801,-0.18839,0.95004,244,0.92,-0.162,0.321,0.427,-0.366,0.0,-26.285,-68.604,-135.764,-30.313,-6.467,-6.233,29.3,-0.18283,0.57947,0.03146,0.79352,242
61,0.975,-0.208,0.228,0.427,-0.305,0.183,-42.155,-72.257,-148.711,-29.753,-6.307,-9.227,26.38,0.00095,0.60858,-0.13165,0.78244,241,0.656,-0.105,0.751,0.366,-0.183,-0.183,-8.344,-40.737,-104.694,-22.16,-3.56,-4.293,24.38,0.55173,-0.31641,-0.15781,-0.75528,247,0.444,-0.294,0.832,0.977,0.061,-0.305,-19.611,-26.526,168.311,-11.207,-0.367,-28.953,30.5,0.13626,0.20801,-0.18839,0.95004,245,0.919,-0.162,0.32,0.61,-0.244,0.0,-26.285,-68.61,-135.758,-30.313,-6.467,-6.233,29.3,-0.18283,0.57947,0.03146,0.79352,243
62,0.975,-0.208,0.228,0.61,-0.366,0.122,-42.166,-72.263,-148.656,-29.753,-6.307,-9.227,26.38,0.00095,0.60858,-0.13165,0.78244,248,0.655,-0.102,0.752,0.244,0.122,0.244,-8.344,-40.737,-104.733,-22.16,-3.56,-4.293,24.38,0.55173,-0.31641,-0.15781,-0.75528,254,0.445,-0.29,0.833,1.038,0.366,0.0,-19.589,-26.521,168.267,-11.207,-0.367,-28.953,30.5,0.13626,0.20801,-0.18839,0.95004,250,0.918,-0.16,0.319,0.61,-0.061,0.0,-26.279,-68.61,-135.753,-30.313,-6.467,-6.233,29.3,-0.18283,0.57947,0.03146,0.79352,252
63,0.974,-0.207,0.229,0.488,-0.122,0.183,-42.166,-72.263,-148.634,-29.753,-6.307,-9.227,26.38,0.00095,0.60858,-0.13165,0.78244,249,0.658,-0.098,0.751,0.183,0.427,0.61,-8.344,-40.726,-104.738,-22.16,-3.56,-4.293,24.38,0.55173,-0.31641,-0.15781,-0.75528,255,0.447,-0.285,0.836,0.854,0.305,0.183,-19.572,-26.516,168.234,-11.207,-0.367,-28.953,30.5,0.13626,0.20801,-0.18839,0.95004,251,0.92,-0.158,0.321,0.305,0.061,0.183,-26.274,-68.61,-135.764,-30.313,-6.467,-6.233,29.3,-0.18283,0.57947,0.03146,0.79352,253
64,0.975,-0.206,0.23,0.305,0.0,0.244,-42.171,-72.263,-148.634,-29.753,-6.307,-9.227,26.38,0.00052,0.60818,-0.13101,0.78284,256,0.655,-0.105,0.752,0.61,0.305,0.671,-8.339,-40.715,-104.738,-22.16,-3.56,-4.293,24.38,0.55173,-0.31641,-0.15781,-0.75528,262,0.444,-0.29,0.836,0.671,0.0,0.305,-19.556,-26.51,168.206,-11.207,-0.367,-28.953,30.5,0.13626,0.20801,-0.18839,0.95004,260,0.921,-0.158,0.321,0.183,0.183,0.366,-26.279,-68.604,-135.775,-30.027,-6.247,-6.733,29.3,-0.18283,0.57947,0.03146,0.79352,258
65,0.976,-0.207,0.231,0.061,0.183,0.366,-42.177,-72.257,-148.651,-29.753,-6.307,-9.227,26.38,0.00052,0.60818,-0.13101,0.78284,257,0.656,-0.11,0.756,0.732,0.305,0.916,-8.333,-40.71,-104.733,-22.16,-3.56,-4.293,24.38,0.55173,-0.31641,-0.15781,-0.75528,263,0.444,-0.297,0.839,0.183,-0.183,0.793,-19.556,-26.51,168.195,-11.207,-0.367,-28.953,30.5,0.13626,0.20801,-0.18839,0.95004,261,0.92,-0.161,0.324,0.0,0.183,0.427,-26.296,-68.599,-135.775,-30.027,-6.247,-6.733,29.3,-0.18283,0.57947,0.03146,0.79352,259
66,0.974,-0.208,0.233,-0.061,0.366,0.427,-42.177,-72.246,-148.667,-29.753,-6.307,-9.227,26.38,0.00052,0.60818,-0.13101,0.78284,264,0.652,-0.114,0.756,0.488,0.549,0.61,-8.333,-40.699,-104.727,-22.16,-3.56,-4.293,24.38,0.55173,-0.31641,-0.15781,-0.75528,270,0.44,-0.304,0.836,-0.061,-0.427,0.977,-19.567,-26.516,168.19,-11.207,-0.367,-28.953,30.5,0.13626,0.20801,-0.18839,0.95004,268,0.918,-0.162,0.324,0.0,0.183,0.427,-26.312,-68.593,-135.769,-30.027,-6.247,-6.733,29.3,-0.18283,0.57947,0.03146,0.79352,266
67,0.973,-0.208,0.232,-0.122,0.549,0.366,-42.171,-72.235,-148.678,-29.753,-6.307,-9.227,26.38,0.00052,0.60818,-0.13101,0.78284,265,0.65,-0.116,0.76,0.427,0.488,0.244,-8.322,-40.688,-104.722,-22.16,-3.56,-4.293,24.38,0.55173,-0.31641,-0.15781,-0.75528,271,0.438,-0.308,0.841,0.122,-0.305,0.671,-19.572,-26.516,168.173,-11.207,-0.367,-28.953,30.5,0.13626,0.20801,-0.18839,0.95004,269,0.916,-0.165,0.326,0.061,0.122,0.305,-26.329,-68.588,-135.742,-30.027,-6.247,-6.733,29.3,-0.18283,0.57947,0.03146,0.79352,267
68,0.97,-0.209,0.234,-0.061,0.488,0.183,-42.16,-72.224,-148.683,-29.753,-6.307,-9.227,26.38,0.00052,0.60818,-0.13101,0.78284,272,0.649,-0.112,0.76,0.244,0.366,0.305,-8.322,-40.677,-104.705,-22.16,-3.56,-4.293,24.38,0.55173,-0.31641,-0.15781,-0.75528,278,0.438,-0.302,0.84,0.183,-0.366,0.61,-19.578,-26.521,168.168,-11.207,-0.367,-28.953,30.5,0.13626,0.20801,-0.18839,0.95004,274,0.916,-0.165,0.325,0.0,0.244,0.122,-26.334,-68.582,-135.72,-30.027,-6.247,-6.733,29.3,-0.18417,0.57907,0.03238,0.79349,276
69,0.972,-0.208,0.234,-0.122,0.488,0.122,-42.144,-72.219,-148.705,-29.753,-6.307,-9.227,26.38,0.00052,0.60818,-0.13101,0.78284,273,0.649,-0.11,0.759,0.061,0.122,0.244,-8.328,-40.671,-104.7,-22.16,-3.56,-4.293,24.38,0.55173,-0.31641,-0.15781,-0.75528,279,0.438,-0.3,0.841,0.122,-0.305,0.671,-19.583,-26.521,168.157,-11.207,-0.367,-28.953,30.5,0.13626,0.20801,-0.18839,0.95004,275,0.917,-0.162,0.325,-0.061,0.183,0.0,-26.334,-68.577,-135.736,-30.027,-6.247,-6.733,29.3,-0.18417,0.57907,0.03238,0.79349,277
70,0.972,-0.206,0.235,-0.366,0.549,0.061,-42.127,-72.208,-148.744,-29.753,-6.307,-9.227,26.38,0.00052,0.60818,-0.13101,0.78284,280,0.65,-0.111,0.761,-0.183,-0.061,0.0,-8.328,-40.671,-104.711,-22.26,-3.4,-4.187,24.38,0.55173,-0.31641,-0.15781,-0.75528,286,0.437,-0.303,0.842,0.0,-0.183,0.427,-19.589,-26.516,168.146,-11.207,-0.367,-28.953,30.5,0.13626,0.20801,-0.18839,0.95004,284,0.917,-0.159,0.326,-0.244,0.244,-0.061,-26.334,-68.571,-135.758,-30.027,-6.247,-6.733,29.3,-0.18417,0.57907,0.03238,0.79349,282
71,0.973,-0.206,0.234,-0.61,0.732,0.0,-42.105,-72.197,-148.793,-29.753,-6.307,-9.227,26.38,0.00052,0.60818,-0.13101,0.78284,281,0.65,-0.11,0.761,-0.61,-0.366,-0.244,-8.339,-40.677,-104.716,-22.26,-3.4,-4.187,24.38,0.55173,-0.31641,-0.15781,-0.75528,287,0.438,-0.303,0.843,-0.427,-0.305,-0.061,-19.594,-26.521,168.129,-11.207,-0.367,-28.953,30.5,0.13626,0.20801,-0.18839,0.95004,285,0.917,-0.161,0.327,-0.549,0.183,0.0,-26.34,-68.566,-135.764,-30.027,-6.247,-6.733,29.3,-0.18417,0.57907,0.03238,0.79349,283
72,0.972,-0.208,0.234,-0.916,0.671,0.0,-42.089,-72.186,-148.837,-29.753,-6.307,-9.227,26.38,0.00052,0.60818,-0.13101,0.78284,288,0.653,-0.111,0.759,-0.854,-0.488,-0.366,-8.35,-40.682,-104.727,-22.26,-3.4,-4.187,24.38,0.55173,-0.31641,-0.15781,-0.75528,294,0.44,-0.3,0.841,-0.671,-0.305,-0.366,-19.605,-26.526,168.102,-11.207,-0.367,-28.953,30.5,0.13626,0.20801,-0.18839,0.95004,292,0.918,-0.164,0.325,-0.61,0.0,-0.061,-26.351,-68.566,-135.758,-30.027,-6.247,-6.733,29.3,-0.18417,0.57907,0.03238,0.79349,290
73,0.973,-0.212,0.232,-0.916,0.549,0.0,-42.078,-72.18,-148.876,-29.753,-6.307,-9.227,26.38,0.00052,0.60818,-0.13101,0.78284,289,0.654,-0.111,0.758,-1.038,-0.671,-0.244,-8.366,-40.693,-104.738,-22.26,-3.4,-4.187,24.38,0.55173,-0.31641,-0.15781,-0.75528,295,0.442,-0.301,0.84,-1.16,-0.488,-0.549,-19.627,-26.532,168.08,-11.207,-0.367,-28.953,30.5,0.13626,0.20801,-0.18839,0.95004,293,0.92,-0.167,0.322,-0.366,0.0,-0.061,-26.356,-68.56,-135.753,-30.027,-6.247,-6.733,29.3,-0.18417,0.57907,0.03238,0.79349,291
74,0.974,-0.214,0.23,-0.671,0.305,0.0,-42.078,-72.175,-148.914,-29.753,-6.307,-9.227,26.38,0.00052,0.60818,-0.13101,0.78284,296,0.656,-0.114,0.757,-1.038,-0.732,-0.183,-8.383,-40.704,-104.749,-22.26,-3.4,-4.187,24.38,0.55078,-0.31641,-0.15753,-0.75604,302,0.444,-0.302,0.838,-1.343,-0.61,-0.366,-19.649,-26.543,168.074,-11.06,-0.647,-29.56,30.5,0.13626,0.20801,-0.18839,0.95004,300,0.92,-0.167,0.323,-0.061,-0.122,-0.061,-26.362,-68.566,-135.742,-30.027,-6.247,-6.733,29.3,-0.18417,0.57907,0.03238,0.79349,298
75,0.974,-0.213,0.23,-0.366,0.061,0.0,-42.078,-72.175,-148.92,-29.753,-6.307,-9.227,26.38,0.00052,0.60818,-0.13101,0.78284,297,0.656,-0.115,0.756,-0.977,-0.671,-0.183,-8.399,-40.715,-104.755,-22.26,-3.4,-4.187,24.38,0.55078,-0.31641,-0.15753,-0.75604,303,0.445,-0.305,0.838,-1.526,-0.732,-0.366,-19.682,-26.554,168.069,-11.06,-0.647,-29.56,30.5,0.13626,0.20801,-0.18839,0.95004,301,0.92,-0.165,0.321,0.183,-0.122,-0.122,-26.367,-68.566,-135.736,-30.027,-6.247,-6.733,29.3,-0.18417,0.57907,0.03238,0.79349,299
76,0.975,-0.21,0.231,-0.183,0.061,-0.061,-42.083,-72.169,-148.931,-29.753,-6.307,-9.227,26.38,0.00052,0.60818,-0.13101,0.78284,304,0.656,-0.114,0.754,-0.977,-0.793,-0.366,-8.416,-40.726,-104.755,-22.26,-3.4,-4.187,24.38,0.55078,-0.31641,-0.15753,-0.75604,310,0.444,-0.306,0.835,-1.404,-0.854,-0.488,-19.709,-26.57,168.069,-11.06,-0.647,-29.56,30.5,0.13882,0.20792,-0.18927,0.94952,308,0.92,-0.163,0.324,0.244,-0.183,-0.122,-26.367,-68.566,-135.725,-30.027,-6.247,-6.733,29.3,-0.18417,0.57907,0.03238,0.79349,306
77,0.975,-0.209,0.232,-0.122,-0.061,-0.061,-42.083,-72.175,-148.931,-29.753,-6.307,-9.227,26.38,0.00052,0.60818,-0.13101,0.78284,305,0.657,-0.113,0.752,-0.977,-0.61,-0.61,-8.427,-40.737,-104.782,-22.26,-3.4,-4.187,24.38,0.55078,-0.31641,-0.15753,-0.75604,311,0.446,-0.305,0.833,-1.343,-0.732,-0.793,-19.731,-26.587,168.041,-11.06,-0.647,-29.56,30.5,0.13882,0.20792,-0.18927,0.94952,309,0.92,-0.163,0.323,0.122,-0.061,-0.183,-26.362,-68.571,-135.725,-30.027,-6.247,-6.733,29.3,-0.18417,0.57907,0.03238,0.79349,307
78,0.974,-0.208,0.233,-0.183,-0.122,-0.122,-42.089,-72.175,-148.914,-29.573,-6.34,-9.313,26.38,0.00052,0.60818,-0.13101,0.78284,312,0.656,-0.114,0.752,-0.793,-0.305,-0.671,-8.432,-40.748,-104.81,-22.26,-3.4,-4.187,24.38,0.55078,-0.31641,-0.15753,-0.75604,318,0.446,-0.303,0.832,-1.038,-0.61,-0.977,-19.748,-26.603,167.997,-11.06,-0.647,-29.56,30.5,0.13882,0.20792,-0.18927,0.94952,316,0.919,-0.164,0.326,0.0,0.0,-0.305,-26.356,-68.571,-135.725,-30.027,-6.247,-6.733,29.3,-0.18417,0.57907,0.03238,0.79349,314
79,0.974,-0.209,0.234,-0.244,-0.122,-0.244,-42.089,-72.18,-148.909,-29.573,-6.34,-9.313,26.38,0.00052,0.60818,-0.13101,0.78284,313,0.657,-0.112,0.752,-0.427,0.0,-0.488,-8.432,-40.748,-104.826,-22.26,-3.4,-4.187,24.38,0.55078,-0.31641,-0.15753,-0.75604,319,0.447,-0.301,0.831,-0.61,-0.427,-0.793,-19.759,-26.62,167.959,-11.06,-0.647,-29.56,30.5,0.13882,0.20792,-0.18927,0.94952,317,0.92,-0.164,0.327,-0.122,0.0,-0.366,-26.345,-68.571,-135.736,-30.027,-6.247,-6.733,29.3,-0.18417,0.57907,0.03238,0.79349,315
80,0.973,-0.209,0.234,-0.183,-0.122,-0.244,-42.083,-72.186,-148.898,-29.573,-6.34,-9.313,26.38,0.00052,0.60818,-0.13101,0.78284,320,0.656,-0.113,0.752,0.0,0.122,-0.427,-8.427,-40.743,-104.837,-22.26,-3.4,-4.187,24.38,0.55078,-0.31641,-0.15753,-0.75604,326,0.447,-0.301,0.832,-0.183,-0.244,-0.427,-19.764,-26.625,167.937,-11.06,-0.647,-29.56,30.5,0.13882,0.20792,-0.18927,0.94952,324,0.919,-0.164,0.327,0.0,0.0,-0.366,-26.334,-68.571,-135.742,-30.027,-6.247,-6.733,29.3,-0.18417,0.57907,0.03238,0.79349,322
81,0.973,-0.21,0.234,0.0,-0.122,-0.183,-42.078,-72.191,-148.898,-29.573,-6.34,-9.313,26.38,0.00052,0.60818,-0.13101,0.78284,321,0.656,-0.111,0.75,0.366,0.244,-0.305,-8.416,-40.737,-104.848,-22.26,-3.4,-4.187,24.38,0.55078,-0.31641,-0.15753,-0.75604,327,0.447,-0.301,0.831,0.183,0.0,-0.183,-19.764,-26.631,167.921,-11.06,-0.647,-29.56,30.5,0.13882,0.20792,-0.18927,0.94952,325,0.918,-0.163,0.324,0.305,0.0,-0.366,-26.318,-68.577,-135.753,-30.027,-6.247,-6.733,29.3,-0.18417,0.57907,0.03238,0.79349,323
82,0.974,-0.21,0.232,0.183,-0.122,-0.122,-42.072,-72.191,-148.898,-29.573,-6.34,-9.313,26.38,0.00162,0.60748,-0.13208,0.7832,328,0.657,-0.108,0.753,0.61,0.305,-0.305,-8.399,-40.732,-104.854,-22.26,-3.4,-4.187,24.38,0.55078,-0.31641,-0.15753,-0.75604,334,0.447,-0.3,0.833,0.671,0.061,-0.061,-19.753,-26.631,167.915,-11.06,-0.647,-29.56,30.5,0.13882,0.20792,-0.18927,0.94952,332,0.919,-0.161,0.323,0.488,0.122,-0.244,-26.301,-68.571,-135.758,-30.647,-6.32,-5.84,29.3,-0.18417,0.57907,0.03238,0.79349,330
83,0.975,-0.208,0.232,0.366,-0.183,-0.061,-42.072,-72.197,-148.909,-29.573,-6.34,-9.313,26.38,0.00162,0.60748,-0.13208,0.7832,329,0.657,-0.109,0.754,0.854,0.183,-0.366,-8.372,-40.732,-104.865,-22.26,-3.4,-4.187,24.38,0.55078,-0.31641,-0.15753,-0.75604,335,0.449,-0.3,0.835,1.282,0.366,-0.122,-19.726,-26.625,167.921,-11.06,-0.647,-29.56,30.5,0.13882,0.20792,-0.18927,0.94952,333,0.921,-0.161,0.325,0.427,0.061,-0.183,-26.285,-68.571,-135.764,-30.647,-6.32,-5.84,29.3,-0.18417,0.57907,0.03238,0.79349,331
84,0.976,-0.207,0.232,0.305,-0.122,-0.061,-42.067,-72.197,-148.92,-29.573,-6.34,-9.313,26.38,0.00162,0.60748,-0.13208,0.7832,336,0.659,-0.106,0.751,0.977,0.244,-0.305,-8.35,-40.726,-104.87,-22.26,-3.4,-4.187,24.38,0.55078,-0.31641,-0.15753,-0.75604,340,0.449,-0.299,0.834,1.587,0.427,0.0,-19.698,-26.62,167.932,-11.06,-0.647,-29.56,30.5,0.13882,0.20792,-0.18927,0.94952,338,0.921,-0.159,0.325,0.427,0.061,-0.183,-26.268,-68.571,-135.764,-30.647,-6.32,-5.84,29.3,-0.18417,0.57907,0.03238,0.79349,344
85,0.975,-0.207,0.233,0.122,-0.244,0.0,-42.072,-72.202,-148.925,-29.573,-6.34,-9.313,26.38,0.00162,0.60748,-0.13208,0.7832,337,0.658,-0.098,0.751,0.854,0.427,-0.366,-8.322,-40.721,-104.881,-22.26,-3.4,-4.187,24.38,0.55078,-0.31641,-0.15753,-0.75604,341,0.45,-0.291,0.832,1.892,0.732,-0.183,-19.66,-26.609,167.91,-11.06,-0.647,-29.56,30.5,0.13882,0.20792,-0.18927,0.94952,339,0.921,-0.155,0.323,0.061,0.427,0.0,-26.257,-68.566,-135.764,-30.647,-6.32,-5.84,29.3,-0.18417,0.57907,0.03238,0.79349,345
86,0.976,-0.205,0.231,0.0,-0.061,0.122,-42.078,-72.202,-148.925,-29.573,-6.34,-9.313,26.38,0.00162,0.60748,-0.13208,0.7832,342,0.658,-0.098,0.754,0.793,0.61,-0.244,-8.3,-40.71,-104.892,-22.26,-3.4,-4.187,24.38,0.55078,-0.31641,-0.15753,-0.75604,350,0.449,-0.287,0.836,1.831,1.099,-0.549,-19.616,-26.592,167.871,-11.06,-0.647,-29.56,30.5,0.13882,0.20792,-0.18927,0.94952,348,0.922,-0.158,0.326,-0.061,0.244,0.183,-26.257,-68.56,-135.758,-30.647,-6.32,-5.84,29.3,-0.18439,0.57883,0.03262,0.79361,346
87,0.977,-0.208,0.23,0.061,-0.183,0.244,-42.094,-72.202,-148.903,-29.573,-6.34,-9.313,26.38,0.00162,0.60748,-0.13208,0.7832,343,0.653,-0.101,0.755,1.526,0.488,0.0,-8.262,-40.704,-104.903,-22.26,-3.4,-4.187,24.38,0.55078,-0.31641,-0.15753,-0.75604,351,0.443,-0.288,0.838,2.625,1.038,-0.305,-19.561,-26.581,167.844,-11.06,-0.647,-29.56,30.5,0.13882,0.20792,-0.18927,0.94952,349,0.921,-0.16,0.327,0.0,-0.183,0.366,-26.274,-68.555,-135.731,-30.647,-6.32,-5.84,29.3,-0.18439,0.57883,0.03262,0.79361,347
88,0.975,-0.21,0.232,0.244,-0.366,0.427,-42.122,-72.202,-148.876,-29.573,-6.34,-9.313,26.38,0.00162,0.60748,-0.13208,0.7832,352,0.653,-0.111,0.759,1.709,0.61,0.183,-8.229,-40.688,-104.919,-22.327,-3.847,-3.547,24.38,0.55078,-0.31641,-0.15753,-0.75604,358,0.44,-0.299,0.841,2.869,0.977,0.0,-19.501,-26.565,167.844,-11.06,-0.647,-29.56,30.5,0.13882,0.20792,-0.18927,0.94952,356,0.919,-0.163,0.327,0.122,-0.427,0.549,-26.307,-68.555,-135.687,-30.647,-6.32,-5.84,29.3,-0.18439,0.57883,0.03262,0.79361,354
89,0.972,-0.208,0.23,0.427,-0.549,0.549,-42.155,-72.202,-148.848,-29.573,-6.34,-9.313,26.38,0.00162,0.60748,-0.13208,0.7832,353,0.655,-0.109,0.759,1.953,0.671,0.061,-8.185,-40.677,-104.93,-22.327,-3.847,-3.547,24.38,0.55078,-0.31641,-0.15753,-0.75604,359,0.445,-0.3,0.841,3.052,0.671,-0.061,-19.435,-26.554,167.838,-11.06,-0.647,-29.56,30.5,0.13882,0.20792,-0.18927,0.94952,357,0.918,-0.16,0.324,0.488,-0.549,0.549,-26.334,-68.56,-135.643,-30.647,-6.32,-5.84,29.3,-0.18439,0.57883,0.03262,0.79361,355
90,0.973,-0.206,0.228,0.793,-0.732,0.549,-42.193,-72.208,-148.788,-29.573,-6.34,-9.313,26.38,0.00162,0.60748,-0.13208,0.7832,360,0.654,-0.106,0.754,2.197,0.305,-0.061,-8.141,-40.666,-104.941,-22.327,-3.847,-3.547,24.38,0.55078,-0.31641,-0.15753,-0.75604,366,0.444,-0.295,0.841,3.113,-0.061,-0.244,-19.374,-26.554,167.805,-11.24,-0.36,-30.293,30.5,0.13882,0.20792,-0.18927,0.94952,364,0.919,-0.158,0.322,0.732,-0.61,0.488,-26.351,-68.566,-135.593,-30.647,-6.32,-5.84,29.3,-0.18439,0.57883,0.03262,0.79361,362
91,0.974,-0.204,0.23,0.977,-0.916,0.549,-42.237,-72.213,-148.716,-29.573,-6.34,-9.313,26.38,0.00162,0.60748,-0.13208,0.7832,361,0.652,-0.106,0.755,1.892,0.61,0.0,-8.097,-40.66,-104.952,-22.327,-3.847,-3.547,24.38,0.55078,-0.31641,-0.15753,-0.75604,367,0.444,-0.295,0.834,3.296,-0.366,-0.305,-19.308,-26.559,167.783,-11.24,-0.36,-30.293,30.5,0.13882,0.20792,-0.18927,0.94952,365,0.919,-0.159,0.318,0.671,-0.488,0.366,-26.367,-68.571,-135.555,-30.647,-6.32,-5.84,29.3,-0.18439,0.57883,0.03262,0.79361,363
92,0.974,-0.205,0.23,0.854,-0.732,0.427,-42.264,-72.224,-148.661,-29.573,-6.34,-9.313,26.38,0.00162,0.60748,-0.13208,0.7832,368,0.654,-0.106,0.758,1.831,0.549,0.061,-8.058,-40.649,-104.963,-22.327,-3.847,-3.547,24.38,0.5502,-0.31519,-0.15857,-0.75674,374,0.443,-0.293,0.835,2.991,-0.244,-0.427,-19.248,-26.57,167.756,-11.24,-0.36,-30.293,30.5,0.13882,0.20792,-0.18927,0.94952,372,0.918,-0.162,0.319,0.671,-0.061,0.122,-26.362,-68.571,-135.538,-30.647,-6.32,-5.84,29.3,-0.18439,0.57883,0.03262,0.79361,370
93,0.974,-0.208,0.232,0.732,-0.244,0.305,-42.27,-72.224,-148.64,-29.573,-6.34,-9.313,26.38,0.00162,0.60748,-0.13208,0.7832,369,0.652,-0.106,0.762,1.16,0.183,-0.061,-8.02,-40.638,-104.974,-22.327,-3.847,-3.547,24.38,0.5502,-0.31519,-0.15857,-0.75674,375,0.443,-0.294,0.841,2.747,-0.183,-0.244,-19.193,-26.576,167.745,-11.24,-0.36,-30.293,30.5,0.13882,0.20792,-0.18927,0.94952,373,0.919,-0.162,0.319,0.427,0.488,0.0,-26.34,-68.566,-135.544,-30.647,-6.32,-5.84,29.3,-0.18439,0.57883,0.03262,0.79361,371
94,0.973,-0.208,0.234,0.366,0.305,0.183,-42.248,-72.219,-148.651,-29.573,-6.34,-9.313,26.38,0.00162,0.60748,-0.13208,0.7832,376,0.651,-0.105,0.765,0.549,-0.244,-0.122,-8.004,-40.638,-104.985,-22.327,-3.847,-3.547,24.38,0.5502,-0.31519,-0.15857,-0.75674,382,0.444,-0.297,0.844,1.77,0.0,-0.122,-19.155,-26.576,167.728,-11.24,-0.36,-30.293,30.5,0.1405,0.20798,-0.18561,0.94998,380,0.919,-0.162,0.321,0.244,0.549,0.0,-26.329,-68.555,-135.549,-30.647,-6.32,-5.84,29.3,-0.18439,0.57883,0.03262,0.79361,378
95,0.974,-0.21,0.231,0.122,0.671,0.122,-42.22,-72.208,-148.689,-29.573,-6.34,-9.313,26.38,0.00162,0.60748,-0.13208,0.7832,377,0.652,-0.104,0.763,0.305,-0.793,-0.061,-7.993,-40.644,-104.991,-22.327,-3.847,-3.547,24.38,0.5502,-0.31519,-0.15857,-0.75674,383,0.442,-0.294,0.849,0.854,0.244,-0.061,-19.133,-26.576,167.717,-11.24,-0.36,-30.293,30.5,0.1405,0.20798,-0.18561,0.94998,381,0.92,-0.163,0.324,0.183,0.488,0.0,-26.312,-68.544,-135.555,-30.647,-6.32,-5.84,29.3,-0.18439,0.57883,0.03262,0.79361,379
96,0.976,-0.213,0.232,0.122,0.854,0.183,-42.188,-72.191,-148.733,-29.827,-6.387,-9.44,26.38,0.00162,0.60748,-0.13208,0.7832,384,0.65,-0.107,0.763,-0.122,-0.793,0.0,-7.987,-40.66,-105.002,-22.327,-3.847,-3.547,24.38,0.5502,-0.31519,-0.15857,-0.75674,390,0.441,-0.292,0.848,0.549,0.061,0.0,-19.127,-26.57,167.712,-11.24,-0.36,-30.293,30.5,0.1405,0.20798,-0.18561,0.94998,388,0.92,-0.166,0.324,0.061,0.305,0.061,-26.312,-68.538,-135.549,-30.647,-6.32,-5.84,29.3,-0.18439,0.57883,0.03262,0.79361,386
97,0.973,-0.215,0.231,0.061,0.793,0.244,-42.166,-72.175,-148.755,-29.827,-6.387,-9.44,26.38,0.00162,0.60748,-0.13208,0.7832,385,0.652,-0.104,0.759,-0.366,-0.977,0.122,-7.993,-40.671,-105.013,-22.327,-3.847,-3.547,24.38,0.5502,-0.31519,-0.15857,-0.75674,391,0.44,-0.295,0.844,-0.122,-0.061,0.122,-19.133,-26.57,167.701,-11.24,-0.36,-30.293,30.5,0.1405,0.20798,-0.18561,0.94998,389,0.918,-0.167,0.321,0.061,0.244,0.122,-26.318,-68.533,-135.544,-30.647,-6.32,-5.84,29.3,-0.18439,0.57883,0.03262,0.79361,387
98,0.972,-0.215,0.228,0.0,0.671,0.183,-42.149,-72.164,-148.76,-29.827,-6.387,-9.44,26.38,0.00162,0.60748,-0.13208,0.7832,392,0.65,-0.106,0.756,-0.488,-0.916,0.366,-8.004,-40.688,-105.024,-22.327,-3.847,-3.547,24.38,0.5502,-0.31519,-0.15857,-0.75674,398,0.441,-0.29,0.845,-0.671,-0.488,0.244,-19.149,-26.576,167.69,-11.24,-0.36,-30.293,30.5,0.1405,0.20798,-0.18561,0.94998,394,0.917,-0.168,0.32,0.244,0.122,0.061,-26.323,-68.533,-135.538,-30.647,-6.32,-5.84,29.3,-0.18439,0.57883,0.03262,0.79361,396
99,0.971,-0.214,0.229,0.0,0.488,0.0,-42.133,-72.158,-148.766,-29.827,-6.387,-9.44,26.38,0.00162,0.60748,-0.13208,0.7832,393,0.65,-0.112,0.757,-0.793,-0.671,0.549,-8.026,-40.699,-105.024,-22.327,-3.847,-3.547,24.38,0.5502,-0.31519,-0.15857,-0.75674,399,0.438,-0.29,0.837,-0.854,-0.916,0.427,-19.177,-26.587,167.684,-11.24,-0.36,-30.293,30.5,0.1405,0.20798,-0.18561,0.94998,395,0.917,-0.167,0.321,0.122,0.122,0.061,-26.329,-68.527,-135.527,-30.647,-6.32,-5.84,29.3,-0.18439,0.57883,0.03262,0.79361,397
100,0.971,-0.211,0.231,0.0,0.427,-0.122,-42.111,-72.153,-148.771,-29.827,-6.387,-9.44,26.38,0.00082,0.60742,-0.13184,0.78329,400,0.649,-0.109,0.758,-1.221,-0.305,0.427,-8.053,-40.704,-105.035,-22.327,-3.847,-3.547,24.38,0.5502,-0.31519,-0.15857,-0.75674,406,0.438,-0.298,0.836,-1.16,-0.916,0.549,-19.204,-26.598,167.69,-11.24,-0.36,-30.293,30.5,0.1405,0.20798,-0.18561,0.94998,404,0.916,-0.166,0.323,0.0,0.122,0.0,-26.334,-68.527,-135.522,-30.033,-6.053,-6.453,29.3,-0.18439,0.57883,0.03262,0.79361,402
101,0.972,-0.208,0.234,-0.305,0.488,-0.305,-42.089,-72.147,-148.799,-29.827,-6.387,-9.44,26.38,0.00082,0.60742,-0.13184,0.78329,401,0.65,-0.108,0.76,-1.404,-0.305,0.183,-8.086,-40.704,-105.04,-22.327,-3.847,-3.547,24.38,0.5502,-0.31519,-0.15857,-0.75674,407,0.438,-0.298,0.838,-1.831,-0.977,0.427,-19.254,-26.614,167.69,-11.24,-0.36,-30.293,30.5,0.1405,0.20798,-0.18561,0.94998,405,0.916,-0.163,0.326,-0.244,0.305,-0.244,-26.329,-68.522,-135.538,-30.033,-6.053,-6.453,29.3,-0.18439,0.57883,0.03262,0.79361,403
102,0.97,-0.207,0.238,-0.61,0.549,-0.488,-42.056,-72.147,-148.843,-29.827,-6.387,-9.44,26.38,0.00082,0.60742,-0.13184,0.78329,408,0.65,-0.106,0.76,-1.587,-0.366,0.0,-8.113,-40.71,-105.029,-22.327,-3.847,-3.547,24.38,0.5502,-0.31519,-0.15857,-0.75674,416,0.438,-0.296,0.841,-2.136,-1.099,0.244,-19.303,-26.631,167.69,-11.24,-0.36,-30.293,30.5,0.1405,0.20798,-0.18561,0.94998,412,0.916,-0.163,0.331,-0.671,0.427,-0.427,-26.323,-68.516,-135.56,-30.033,-6.053,-6.453,29.3,-0.18439,0.57883,0.03262,0.79361,410
103,0.97,-0.208,0.241,-0.916,0.549,-0.549,-42.023,-72.147,-148.887,-29.827,-6.387,-9.44,26.38,0.00082,0.60742,-0.13184,0.78329,409,0.65,-0.105,0.757,-1.587,-0.183,0.0,-8.146,-40.71,-105.029,-22.327,-3.847,-3.547,24.38,0.5502,-0.31519,-0.15857,-0.75674,417,0.44,-0.295,0.84,-2.319,-1.099,0.0,-19.352,-26.647,167.69,-11.24,-0.36,-30.293,30.5,0.1405,0.20798,-0.18561,0.94998,413,0.916,-0.163,0.333,-0.977,0.366,-0.427,-26.318,-68.511,-135.582,-30.033,-6.053,-6.453,29.3,-0.18439,0.57883,0.03262,0.79361,411
104,0.97,-0.209,0.241,-1.038,0.305,-0.549,-42.006,-72.147,-148.925,-29.827,-6.387,-9.44,26.38,0.00082,0.60742,-0.13184,0.78329,414,0.651,-0.104,0.758,-1.343,-0.061,0.0,-8.174,-40.71,-105.029,-22.6,-3.473,-3.913,24.38,0.5502,-0.31519,-0.15857,-0.75674,422,0.441,-0.293,0.837,-2.319,-0.854,-0.061,-19.402,-26.658,167.673,-11.24,-0.36,-30.293,30.5,0.1405,0.20798,-0.18561,0.94998,420,0.916,-0.164,0.334,-0.793,0.183,-0.488,-26.312,-68.511,-135.604,-30.033,-6.053,-6.453,29.3,-0.18552,0.57855,0.03293,0.79352,418
105,0.97,-0.209,0.239,-0.793,0.061,-0.427,-41.995,-72.153,-148.942,-29.827,-6.387,-9.44,26.38,0.00082,0.60742,-0.13184,0.78329,415,0.653,-0.103,0.757,-1.099,0.0,0.0,-8.201,-40.704,-105.024,-22.6,-3.473,-3.913,24.38,0.5502,-0.31519,-0.15857,-0.75674,423,0.442,-0.292,0.837,-1.892,-0.549,0.0,-19.44,-26.664,167.646,-11.24,-0.36,-30.293,30.5,0.1405,0.20798,-0.18561,0.94998,421,0.917,-0.163,0.333,-0.488,0.0,-0.427,-26.307,-68.511,-135.621,-30.033,-6.053,-6.453,29.3,-0.18552,0.57855,0.03293,0.79352,419
106,0.971,-0.209,0.237,-0.427,-0.244,-0.305,-41.995,-72.158,-148.942,-29.827,-6.387,-9.44,26.38,0.00082,0.60742,-0.13184,0.78329,424,0.656,-0.104,0.755,-0.916,-0.061,0.061,-8.218,-40.704,-105.024,-22.6,-3.473,-3.913,24.38,0.5502,-0.31519,-0.15857,-0.75674,430,0.445,-0.292,0.838,-1.404,-0.366,-0.183,-19.462,-26.669,167.618,-11.24,-0.36,-30.293,30.5,0.1405,0.20798,-0.18561,0.94998,428,0.919,-0.16,0.327,0.0,-0.427,-0.183,-26.307,-68.516,-135.615,-30.033,-6.053,-6.453,29.3,-0.18552,0.57855,0.03293,0.79352,426
107,0.973,-0.208,0.235,-0.122,-0.61,-0.122,-42.012,-72.164,-148.914,-29.827,-6.387,-9.44,26.38,0.00082,0.60742,-0.13184,0.78329,425,0.659,-0.103,0.754,-0.854,-0.183,0.0,-8.234,-40.699,-105.029,-22.6,-3.473,-3.913,24.38,0.5502,-0.31519,-0.15857,-0.75674,431,0.448,-0.292,0.837,-1.16,-0.427,-0.122,-19.484,-26.675,167.596,-11.24,-0.36,-30.293,30.5,0.1405,0.20798,-0.18561,0.94998,429,0.921,-0.158,0.325,0.061,-0.488,-0.061,-26.307,-68.522,-135.604,-30.033,-6.053,-6.453,29.3,-0.18552,0.57855,0.03293,0.79352,427
108,0.975,-0.206,0.232,0.061,-0.854,-0.122,-42.034,-72.18,-148.876,-29.827,-6.387,-9.44,26.38,0.00082,0.60742,-0.13184,0.78329,432,0.661,-0.105,0.755,-0.732,-0.366,-0.183,-8.245,-40.704,-105.024,-22.6,-3.473,-3.913,24.38,0.54922,-0.31622,-0.15762,-0.75723,438,0.451,-0.293,0.835,-0.732,-0.366,-0.244,-19.495,-26.68,167.574,-10.953,-0.593,-29.5,30.5,0.1405,0.20798,-0.18561,0.94998,436,0.923,-0.156,0.324,0.061,-0.549,0.0,-26.318,-68.527,-135.588,-30.033,-6.053,-6.453,29.3,-0.18552,0.57855,0.03293,0.79352,434
109,0.978,-0.204,0.23,0.061,-0.977,0.0,-42.067,-72.191,-148.832,-29.827,-6.387,-9.44,26.38,0.00082,0.60742,-0.13184,0.78329,433,0.664,-0.108,0.754,-0.549,-0.366,-0.427,-8.251,-40.71,-105.029,-22.6,-3.473,-3.913,24.38,0.54922,-0.31622,-0.15762,-0.75723,439,0.452,-0.296,0.837,-0.427,-0.183,-0.549,-19.501,-26.686,167.536,-10.953,-0.593,-29.5,30.5,0.1405,0.20798,-0.18561,0.94998,437,0.924,-0.156,0.323,0.0,-0.671,0.0,-26.329,-68.533,-135.571,-30.033,-6.053,-6.453,29.3,-0.18552,0.57855,0.03293,0.79352,435
110,0.979,-0.204,0.23,0.0,-0.916,0.0,-42.1,-72.208,-148.782,-29.827,-6.387,-9.44,26.38,0.00082,0.60742,-0.13184,0.78329,442,0.663,-0.109,0.751,-0.244,-0.183,-0.427,-8.251,-40.715,-105.046,-22.6,-3.473,-3.913,24.38,0.54922,-0.31622,-0.15762,-0.75723,446,0.454,-0.298,0.834,-0.122,-0.061,-0.732,-19.495,-26.691,167.487,-10.953,-0.593,-29.5,30.5,0.1405,0.20798,-0.18561,0.94998,444,0.924,-0.158,0.322,0.0,-0.61,0.0,-26.34,-68.544,-135.549,-30.033,-6.053,-6.453,29.3,-0.18552,0.57855,0.03293,0.79352,440
111,0.978,-0.204,0.23,0.0,-0.854,0.0,-42.127,-72.219,-148.744,-29.827,-6.387,-9.44,26.38,0.00082,0.60742,-0.13184,0.78329,443,0.662,-0.107,0.75,0.061,-0.183,-0.488,-8.245,-40.721,-105.062,-22.6,-3.473,-3.913,24.38,0.54922,-0.31622,-0.15762,-0.75723,447,0.456,-0.297,0.833,0.061,0.061,-0.671,-19.484,-26.697,167.443,-10.953,-0.593,-29.5,30.5,0.1405,0.20798,-0.18561,0.94998,445,0.924,-0.159,0.32,0.122,-0.549,-0.061,-26.345,-68.555,-135.527,-30.033,-6.053,-6.453,29.3,-0.18552,0.57855,0.03293,0.79352,441
112,0.978,-0.206,0.229,0.0,-0.671,0.122,-42.155,-72.23,-148.7,-29.66,-6.053,-9.247,26.38,0.00082,0.60742,-0.13184,0.78329,448,0.662,-0.106,0.75,0.122,0.0,-0.549,-8.234,-40.726,-105.079,-22.6,-3.473,-3.913,24.38,0.54922,-0.31622,-0.15762,-0.75723,452,0.453,-0.297,0.833,0.427,0.183,-0.61,-19.468,-26.697,167.393,-10.953,-0.593,-29.5,30.5,0.14359,0.20816,-0.18854,0.94888,458,0.923,-0.16,0.319,0.244,-0.488,0.0,-26.351,-68.56,-135.511,-30.033,-6.053,-6.453,29.3,-0.18552,0.57855,0.03293,0.79352,450
113,0.978,-0.208,0.229,0.061,-0.427,0.183,-42.171,-72.23,-148.667,-29.66,-6.053,-9.247,26.38,0.00082,0.60742,-0.13184,0.78329,449,0.66,-0.105,0.75,0.244,0.061,-0.366,-8.218,-40.726,-105.09,-22.6,-3.473,-3.913,24.38,0.54922,-0.31622,-0.15762,-0.75723,453,0.454,-0.294,0.832,0.549,0.366,-0.61,-19.451,-26.697,167.338,-10.953,-0.593,-29.5,30.5,0.14359,0.20816,-0.18854,0.94888,459,0.922,-0.16,0.318,0.244,-0.183,0.061,-26.356,-68.571,-135.494,-30.033,-6.053,-6.453,29.3,-0.18552,0.57855,0.03293,0.79352,451
114,0.977,-0.208,0.229,0.061,-0.244,0.244,-42.188,-72.235,-148.64,-29.66,-6.053,-9.247,26.38,0.00082,0.60742,-0.13184,0.78329,454,0.66,-0.108,0.749,0.488,0.244,-0.122,-8.207,-40.726,-105.106,-22.6,-3.473,-3.913,24.38,0.54922,-0.31622,-0.15762,-0.75723,462,0.452,-0.293,0.833,0.61,0.427,-0.427,-19.435,-26.697,167.283,-10.953,-0.593,-29.5,30.5,0.14359,0.20816,-0.18854,0.94888,460,0.922,-0.163,0.319,0.244,-0.061,0.122,-26.356,-68.571,-135.478,-30.033,-6.053,-6.453,29.3,-0.18552,0.57855,0.03293,0.79352,456
115,0.975,-0.209,0.228,0.122,0.0,0.305,-42.198,-72.23,-148.623,-29.66,-6.053,-9.247,26.38,0.00082,0.60742,-0.13184,0.78329,455,0.658,-0.108,0.746,0.854,0.732,0.0,-8.19,-40.721,-105.117,-22.6,-3.473,-3.913,24.38,0.54922,-0.31622,-0.15762,-0.75723,463,0.452,-0.294,0.83,0.977,0.183,-0.183,-19.413,-26.697,167.234,-10.953,-0.593,-29.5,30.5,0.14359,0.20816,-0.18854,0.94888,461,0.92,-0.165,0.319,0.366,0.061,0.183,-26.362,-68.571,-135.467,-30.033,-6.053,-6.453,29.3,-0.18552,0.57855,0.03293,0.79352,457
116,0.972,-0.213,0.229,0.244,0.061,0.366,-42.209,-72.224,-148.601,-29.66,-6.053,-9.247,26.38,0.00046,0.60803,-0.13126,0.78293,464,0.656,-0.107,0.75,0.916,1.282,0.183,-8.168,-40.71,-105.128,-22.6,-3.473,-3.913,24.38,0.54922,-0.31622,-0.15762,-0.75723,470,0.45,-0.294,0.827,1.404,0.366,0.0,-19.385,-26.691,167.195,-10.953,-0.593,-29.5,30.5,0.14359,0.20816,-0.18854,0.94888,468,0.918,-0.164,0.318,0.183,0.488,0.366,-26.362,-68.571,-135.456,-30.033,-6.053,-6.453,29.3,-0.18552,0.57855,0.03293,0.79352,466
117,0.974,-0.21,0.229,0.183,0.366,0.366,-42.215,-72.219,-148.585,-29.66,-6.053,-9.247,26.38,0.00046,0.60803,-0.13126,0.78293,465,0.655,-0.105,0.753,1.16,1.404,0.671,-8.152,-40.688,-105.123,-22.6,-3.473,-3.913,24.38,0.54922,-0.31622,-0.15762,-0.75723,471,0.448,-0.292,0.829,1.282,0.977,0.122,-19.358,-26.68,167.162,-10.953,-0.593,-29.5,30.5,0.14359,0.20816,-0.18854,0.94888,469,0.921,-0.167,0.321,0.305,0.305,0.305,-26.367,-68.56,-135.439,-30.033,-6.053,-6.453,29.3,-0.18552,0.57855,0.03293,0.79352,467
118,0.976,-0.214,0.231,0.366,0.183,0.305,-42.215,-72.213,-148.579,-29.66,-6.053,-9.247,26.38,0.00046,0.60803,-0.13126,0.78293,472,0.652,-0.111,0.758,1.709,1.465,1.16,-8.135,-40.66,-105.112,-22.6,-3.473,-3.913,24.38,0.54922,-0.31622,-0.15762,-0.75723,478,0.446,-0.289,0.836,1.099,1.282,0.671,-19.341,-26.653,167.151,-10.953,-0.593,-29.5,30.5,0.14359,0.20816,-0.18854,0.94888,476,0.92,-0.169,0.321,0.427,0.305,0.305,-26.373,-68.555,-135.428,-30.127,-6.147,-6.84,29.3,-0.18552,0.57855,0.03293,0.79352,474
119,0.973,-0.214,0.232,0.366,0.305,0.183,-42.215,-72.208,-148.568,-29.66,-6.053,-9.247,26.38,0.00046,0.60803,-0.13126,0.78293,473,0.651,-0.116,0.766,1.526,1.16,1.16,-8.119,-40.633,-105.09,-22.6,-3.473,-3.913,24.38,0.54922,-0.31622,-0.15762,-0.75723,479,0.442,-0.295,0.838,1.953,1.038,1.16,-19.308,-26.631,167.135,-10.953,-0.593,-29.5,30.5,0.14359,0.20816,-0.18854,0.94888,477,0.917,-0.168,0.318,0.488,0.488,0.244,-26.378,-68.544,-135.417,-30.127,-6.147,-6.84,29.3,-0.18552,0.57855,0.03293,0.79352,475
120,0.973,-0.212,0.228,0.427,0.671,0.061,-42.198,-72.197,-148.574,-29.66,-6.053,-9.247,26.38,0.00046,0.60803,-0.13126,0.78293,480,0.652,-0.11,0.767,1.221,0.244,0.671,-8.102,-40.611,-105.068,-22.6,-3.473,-3.913,24.38,0.54922,-0.31622,-0.15762,-0.75723,486,0.441,-0.307,0.848,1.587,1.038,1.587,-19.292,-26.603,167.119,-10.953,-0.593,-29.5,30.5,0.14359,0.20816,-0.18854,0.94888,484,0.918,-0.163,0.319,0.671,0.488,0.122,-26.378,-68.538,-135.412,-30.127,-6.147,-6.84,29.3,-0.18552,0.57855,0.03293,0.79352,482
121,0.974,-0.208,0.23,0.488,0.916,0.0,-42.166,-72.186,-148.601,-29.66,-6.053,-9.247,26.38,0.00046,0.60803,-0.13126,0.78293,481,0.651,-0.109,0.764,0.977,-0.732,0.305,-8.091,-40.611,-105.051,-22.6,-3.473,-3.913,24.38,0.54922,-0.31622,-0.15762,-0.75723,487,0.442,-0.303,0.853,1.526,0.977,1.221,-19.276,-26.581,167.113,-10.953,-0.593,-29.5,30.5,0.14359,0.20816,-0.18854,0.94888,485,0.92,-0.161,0.321,0.671,0.244,0.061,-26.367,-68.527,-135.412,-30.127,-6.147,-6.84,29.3,-0.18552,0.57855,0.03293,0.79352,483
122,0.975,-0.208,0.23,0.488,0.916,-0.061,-42.122,-72.175,-148.64,-29.66,-6.053,-9.247,26.38,0.00046,0.60803,-0.13126,0.78293,492,0.65,-0.107,0.766,0.488,-1.221,0.244,-8.086,-40.627,-105.04,-22.667,-3.34,-3.833,24.38,0.54922,-0.31622,-0.15762,-0.75723,490,0.439,-0.3,0.849,1.282,0.244,0.977,-19.259,-26.57,167.124,-10.953,-0.593,-29.5,30.5,0.14359,0.20816,-0.18854,0.94888,488,0.918,-0.163,0.319,0.793,0.183,-0.061,-26.356,-68.527,-135.412,-30.127,-6.147,-6.84,29.3,-0.1864,0.57867,0.03351,0.79318,496
123,0.973,-0.209,0.229,0.427,1.099,-0.122,-42.072,-72.164,-148.678,-29.66,-6.053,-9.247,26.38,0.00046,0.60803,-0.13126,0.78293,493,0.652,-0.101,0.763,0.0,-1.282,0.305,-8.091,-40.649,-105.029,-22.667,-3.34,-3.833,24.38,0.54922,-0.31622,-0.15762,-0.75723,491,0.439,-0.296,0.848,0.732,-0.061,0.732,-19.254,-26.565,167.124,-10.953,-0.593,-29.5,30.5,0.14359,0.20816,-0.18854,0.94888,489,0.917,-0.163,0.322,0.793,0.061,-0.183,-26.345,-68.527,-135.412,-30.127,-6.147,-6.84,29.3,-0.1864,0.57867,0.03351,0.79318,497
124,0.973,-0.209,0.231,0.244,1.038,-0.122,-42.017,-72.153,-148.727,-29.66,-6.053,-9.247,26.38,0.00046,0.60803,-0.13126,0.78293,494,0.652,-0.104,0.757,-0.305,-1.526,0.305,-8.102,-40.671,-105.018,-22.667,-3.34,-3.833,24.38,0.54922,-0.31622,-0.15762,-0.75723,500,0.442,-0.291,0.846,-0.183,-0.305,0.61,-19.265,-26.565,167.135,-10.953,-0.593,-29.5,30.5,0.14359,0.20816,-0.18854,0.94888,498,0.918,-0.161,0.325,0.549,0.0,-0.122,-26.329,-68.527,-135.417,-30.127,-6.147,-6.84,29.3,-0.1864,0.57867,0.03351,0.79318,504
125,0.972,-0.206,0.233,0.061,0.916,-0.122,-41.968,-72.136,-148.771,-29.66,-6.053,-9.247,26.38,0.00046,0.60803,-0.13126,0.78293,495,0.653,-0.104,0.757,-0.61,-1.404,0.122,-8.113,-40.699,-105.007,-22.667,-3.34,-3.833,24.38,0.54922,-0.31622,-0.15762,-0.75723,501,0.441,-0.292,0.841,-0.732,-0.732,0.244,-19.286,-26.576,167.151,-10.953,-0.593,-29.5,30.5,0.14359,0.20816,-0.18854,0.94888,499,0.918,-0.158,0.327,0.366,0.0,-0.061,-26.323,-68.527,-135.417,-30.127,-6.147,-6.84,29.3,-0.1864,0.57867,0.03351,0.79318,505
126,0.973,-0.206,0.235,0.0,0.854,-0.122,-41.929,-72.125,-148.815,-29.66,-6.053,-9.247,26.38,0.00046,0.60803,-0.13126,0.78293,502,0.653,-0.105,0.756,-0.671,-1.221,0.061,-8.13,-40.721,-105.007,-22.667,-3.34,-3.833,24.38,0.54968,-0.31564,-0.15848,-0.75696,510,0.442,-0.293,0.837,-1.16,-1.038,0.0,-19.314,-26.592,167.162,-10.953,-0.593,-29.5,30.5,0.14359,0.20816,-0.18854,0.94888,508,0.917,-0.16,0.328,0.305,-0.122,-0.122,-26.318,-68.533,-135.412,-30.127,-6.147,-6.84,29.3,-0.1864,0.57867,0.03351,0.79318,506
127,0.972,-0.208,0.236,-0.122,0.671,-0.061,-41.891,-72.12,-148.854,-29.66,-6.053,-9.247,26.38,0.00046,0.60803,-0.13126,0.78293,503,0.653,-0.108,0.755,-0.61,-1.16,0.0,-8.146,-40.737,-105.013,-22.667,-3.34,-3.833,24.38,0.54968,-0.31564,-0.15848,-0.75696,511,0.442,-0.292,0.838,-1.221,-0.977,-0.122,-19.341,-26.609,167.162,-10.953,-0.593,-29.5,30.5,0.14359,0.20816,-0.18854,0.94888,509,0.917,-0.161,0.33,0.122,-0.061,-0.122,-26.312,-68.533,-135.412,-30.127,-6.147,-6.84,29.3,-0.1864,0.57867,0.03351,0.79318,507
128,0.971,-0.207,0.24,-0.244,0.549,-0.061,-41.869,-72.109,-148.876,-29.66,-6.053,-9.247,26.38,0.00046,0.60803,-0.13126,0.78293,512,0.654,-0.109,0.754,-0.732,-0.61,-0.305,-8.157,-40.754,-105.024,-22.667,-3.34,-3.833,24.38,0.54968,-0.31564,-0.15848,-0.75696,518,0.442,-0.298,0.835,-1.16,-1.343,-0.061,-19.369,-26.631,167.151,-10.953,-0.593,-29.5,30.5,0.14359,0.20816,-0.18854,0.94888,516,0.917,-0.161,0.333,0.0,-0.183,-0.122,-26.312,-68.533,-135.412,-30.127,-6.147,-6.84,29.3,-0.1864,0.57867,0.03351,0.79318,514
129,0.97,-0.207,0.242,-0.366,0.427,-0.061,-41.847,-72.103,-148.898,-29.66,-6.053,-9.247,26.38,0.00046,0.60803,-0.13126,0.78293,513,0.651,-0.106,0.75,-0.427,-0.305,-0.366,-8.163,-40.759,-105.035,-22.667,-3.34,-3.833,24.38,0.54968,-0.31564,-0.15848,-0.75696,519,0.445,-0.297,0.833,-1.465,-0.977,-0.427,-19.396,-26.653,167.124,-10.953,-0.593,-29.5,30.5,0.14359,0.20816,-0.18854,0.94888,517,0.915,-0.163,0.333,0.0,-0.122,-0.183,-26.307,-68.538,-135.412,-30.127,-6.147,-6.84,29.3,-0.1864,0.57867,0.03351,0.79318,515
130,0.968,-0.208,0.243,-0.244,0.305,-0.183,-41.825,-72.098,-148.92,-29.613,-6.42,-9.213,26.38,0.00046,0.60803,-0.13126,0.78293,520,0.65,-0.108,0.752,-0.183,0.0,-0.305,-8.163,-40.765,-105.051,-22.667,-3.34,-3.833,24.38,0.54968,-0.31564,-0.15848,-0.75696,526,0.443,-0.293,0.829,-0.977,-0.549,-0.549,-19.413,-26.664,167.097,-11.007,-0.64,-30.273,30.5,0.14359,0.20816,-0.18854,0.94888,524,0.915,-0.164,0.333,-0.183,0.061,-0.183,-26.301,-68.538,-135.412,-30.127,-6.147,-6.84,29.3,-0.1864,0.57867,0.03351,0.79318,522
131,0.968,-0.208,0.242,-0.305,0.183,-0.183,-41.808,-72.098,-148.936,-29.613,-6.42,-9.213,26.38,0.00046,0.60803,-0.13126,0.78293,521,0.651,-0.111,0.754,-0.061,0.366,-0.366,-8.157,-40.759,-105.068,-22.667,-3.34,-3.833,24.38,0.54968,-0.31564,-0.15848,-0.75696,527,0.44,-0.294,0.83,-0.366,-0.183,-0.366,-19.418,-26.669,167.091,-11.007,-0.64,-30.273,30.5,0.14359,0.20816,-0.18854,0.94888,525,0.915,-0.164,0.333,-0.244,0.0,-0.244,-26.296,-68.533,-135.417,-30.127,-6.147,-6.84,29.3,-0.1864,0.57867,0.03351,0.79318,523
132,0.97,-0.208,0.24,-0.427,0.0,-0.122,-41.792,-72.098,-148.942,-29.613,-6.42,-9.213,26.38,0.00046,0.60803,-0.13126,0.78293,528,0.652,-0.107,0.755,0.0,0.366,-0.488,-8.152,-40.748,-105.101,-22.667,-3.34,-3.833,24.38,0.54968,-0.31564,-0.15848,-0.75696,534,0.442,-0.299,0.833,0.183,0.183,-0.244,-19.413,-26.664,167.097,-11.007,-0.64,-30.273,30.5,0.14359,0.20816,-0.18854,0.94888,530,0.916,-0.163,0.331,-0.305,0.0,-0.305,-26.29,-68.533,-135.428,-30.127,-6.147,-6.84,29.3,-0.1864,0.57867,0.03351,0.79318,532
133,0.971,-0.209,0.237,-0.366,-0.305,-0.122,-41.792,-72.098,-148.942,-29.613,-6.42,-9.213,26.38,0.00046,0.60803,-0.13126,0.78293,529,0.655,-0.107,0.756,0.0,0.183,-0.61,-8.141,-40.743,-105.139,-22.667,-3.34,-3.833,24.38,0.54968,-0.31564,-0.15848,-0.75696,535,0.443,-0.296,0.837,0.549,0.671,-0.366,-19.396,-26.653,167.097,-11.007,-0.64,-30.273,30.5,0.14359,0.20816,-0.18854,0.94888,531,0.918,-0.163,0.327,-0.244,0.0,-0.244,-26.279,-68.527,-135.434,-30.127,-6.147,-6.84,29.3,-0.1864,0.57867,0.03351,0.79318,533
134,0.974,-0.208,0.235,-0.183,-0.427,-0.183,-41.797,-72.103,-148.931,-29.613,-6.42,-9.213,26.38,3e-05,0.6069,-0.13065,0.78391,536,0.658,-0.106,0.756,0.0,0.183,-0.61,-8.13,-40.737,-105.178,-22.667,-3.34,-3.833,24.38,0.54968,-0.31564,-0.15848,-0.75696,542,0.445,-0.296,0.837,0.793,0.671,-0.488,-19.374,-26.642,167.075,-11.007,-0.64,-30.273,30.5,0.14633,0.20734,-0.18842,0.94867,540,0.92,-0.162,0.325,-0.122,-0.183,-0.305,-26.274,-68.527,-135.439,-30.127,-6.147,-6.84,29.3,-0.1864,0.57867,0.03351,0.79318,538
135,0.977,-0.209,0.233,-0.061,-0.549,-0.122,-41.803,-72.109,-148.914,-29.613,-6.42,-9.213,26.38,3e-05,0.6069,-0.13065,0.78391,537,0.66,-0.104,0.756,0.122,0.122,-0.488,-8.119,-40.737,-105.216,-22.667,-3.34,-3.833,24.38,0.54968,-0.31564,-0.15848,-0.75696,543,0.448,-0.294,0.839,0.854,0.793,-0.488,-19.352,-26.631,167.058,-11.007,-0.64,-30.273,30.5,0.14633,0.20734,-0.18842,0.94867,541,0.923,-0.163,0.324,0.0,-0.122,-0.305,-26.268,-68.533,-135.45,-30.127,-6.147,-6.84,29.3,-0.1864,0.57867,0.03351,0.79318,539
136,0.979,-0.209,0.232,0.0,-0.549,-0.183,-41.814,-72.12,-148.898,-29.613,-6.42,-9.213,26.38,3e-05,0.6069,-0.13065,0.78391,544,0.66,-0.104,0.757,0.183,0.122,-0.427,-8.102,-40.732,-105.227,-22.667,-3.34,-3.833,24.38,0.54968,-0.31564,-0.15848,-0.75696,550,0.448,-0.292,0.84,0.916,0.549,-0.488,-19.33,-26.62,167.064,-11.007,-0.64,-30.273,30.5,0.14633,0.20734,-0.18842,0.94867,548,0.924,-0.162,0.323,0.0,-0.183,-0.244,-26.257,-68.533,-135.456,-30.12,-6.213,-6.367,29.3,-0.1864,0.57867,0.03351,0.79318,546
137,0.978,-0.207,0.23,-0.061,-0.549,-0.122,-41.825,-72.131,-148.876,-29.613,-6.42,-9.213,26.38,3e-05,0.6069,-0.13065,0.78391,545,0.658,-0.104,0.757,0.122,0.122,-0.427,-8.091,-40.732,-105.238,-22.667,-3.34,-3.833,24.38,0.54968,-0.31564,-0.15848,-0.75696,551,0.449,-0.294,0.841,0.854,0.488,-0.61,-19.303,-26.614,167.058,-11.007,-0.64,-30.273,30.5,0.14633,0.20734,-0.18842,0.94867,549,0.923,-0.16,0.321,0.061,-0.244,-0.244,-26.257,-68.538,-135.456,-30.12,-6.213,-6.367,29.3,-0.1864,0.57867,0.03351,0.79318,547
138,0.976,-0.207,0.23,0.0,-0.549,-0.061,-41.841,-72.136,-148.854,-29.613,-6.42,-9.213,26.38,3e-05,0.6069,-0.13065,0.78391,552,0.657,-0.104,0.756,0.122,0.061,-0.427,-8.08,-40.726,-105.255,-22.667,-3.34,-3.833,24.38,0.54968,-0.31564,-0.15848,-0.75696,558,0.448,-0.293,0.841,0.549,0.366,-0.671,-19.286,-26.614,167.036,-11.007,-0.64,-30.273,30.5,0.14633,0.20734,-0.18842,0.94867,554,0.922,-0.159,0.321,0.061,-0.305,-0.244,-26.252,-68.544,-135.456,-30.12,-6.213,-6.367,29.3,-0.1864,0.57867,0.03351,0.79318,556
139,0.975,-0.208,0.23,0.0,-0.549,0.0,-41.858,-72.147,-148.826,-29.613,-6.42,-9.213,26.38,3e-05,0.6069,-0.13065,0.78391,553,0.658,-0.103,0.756,0.0,0.0,-0.427,-8.069,-40.726,-105.282,-22.667,-3.34,-3.833,24.38,0.54968,-0.31564,-0.15848,-0.75696,559,0.447,-0.292,0.84,0.61,0.122,-0.671,-19.27,-26.614,167.009,-11.007,-0.64,-30.273,30.5,0.14633,0.20734,-0.18842,0.94867,555,0.92,-0.16,0.319,0.122,-0.244,-0.122,-26.252,-68.549,-135.456,-30.12,-6.213,-6.367,29.3,-0.1864,0.57867,0.03351,0.79318,557
140,0.975,-0.208,0.229,0.122,-0.549,0.0,-41.88,-72.158,-148.799,-29.613,-6.42,-9.213,26.38,3e-05,0.6069,-0.13065,0.78391,560,0.656,-0.103,0.755,-0.061,-0.305,-0.244,-8.064,-40.732,-105.315,-22.307,-3.52,-4.467,24.38,0.54968,-0.31564,-0.15848,-0.75696,562,0.449,-0.291,0.841,0.244,0.122,-0.732,-19.259,-26.62,166.981,-11.007,-0.64,-30.273,30.5,0.14633,0.20734,-0.18842,0.94867,564,0.92,-0.161,0.318,0.122,-0.061,-0.183,-26.246,-68.549,-135.456,-30.12,-6.213,-6.367,29.3,-0.18661,0.57861,0.03418,0.79315,566
141,0.974,-0.209,0.23,0.122,-0.488,0.0,-41.902,-72.164,-148.777,-29.613,-6.42,-9.213,26.38,3e-05,0.6069,-0.13065,0.78391,561,0.656,-0.103,0.754,0.0,-0.305,-0.061,-8.064,-40.737,-105.348,-22.307,-3.52,-4.467,24.38,0.54968,-0.31564,-0.15848,-0.75696,563,0.446,-0.29,0.839,0.061,-0.122,-0.427,-19.254,-26.625,166.943,-11.007,-0.64,-30.273,30.5,0.14633,0.20734,-0.18842,0.94867,565,0.92,-0.161,0.321,0.061,-0.183,-0.122,-26.246,-68.555,-135.456,-30.12,-6.213,-6.367,29.3,-0.18661,0.57861,0.03418,0.79315,567
142,0.973,-0.209,0.231,0.183,-0.549,0.0,-41.918,-72.175,-148.749,-29.613,-6.42,-9.213,26.38,3e-05,0.6069,-0.13065,0.78391,568,0.655,-0.105,0.752,0.183,0.0,0.122,-8.058,-40.743,-105.364,-22.307,-3.52,-4.467,24.38,0.54968,-0.31564,-0.15848,-0.75696,574,0.447,-0.289,0.836,0.122,-0.244,-0.366,-19.248,-26.631,166.921,-11.007,-0.64,-30.273,30.5,0.14633,0.20734,-0.18842,0.94867,572,0.918,-0.162,0.321,0.305,-0.122,0.0,-26.246,-68.56,-135.45,-30.12,-6.213,-6.367,29.3,-0.18661,0.57861,0.03418,0.79315,570
143,0.973,-0.206,0.233,0.366,-0.366,0.0,-41.935,-72.18,-148.722,-29.613,-6.42,-9.213,26.38,3e-05,0.6069,-0.13065,0.78391,569,0.655,-0.105,0.754,0.305,0.122,0.244,-8.053,-40.737,-105.364,-22.307,-3.52,-4.467,24.38,0.54968,-0.31564,-0.15848,-0.75696,575,0.446,-0.291,0.834,0.244,-0.183,-0.183,-19.243,-26.636,166.899,-11.007,-0.64,-30.273,30.5,0.14633,0.20734,-0.18842,0.94867,573,0.918,-0.161,0.321,0.488,0.0,0.0,-26.241,-68.56,-135.445,-30.12,-6.213,-6.367,29.3,-0.18661,0.57861,0.03418,0.79315,571
144,0.973,-0.204,0.234,0.305,-0.061,0.0,-41.94,-72.186,-148.705,-29.613,-6.42,-9.213,26.38,3e-05,0.6069,-0.13065,0.78391,576,0.655,-0.106,0.753,0.488,0.061,0.244,-8.047,-40.737,-105.37,-22.307,-3.52,-4.467,24.38,0.54739,-0.31607,-0.15808,-0.75851,582,0.446,-0.292,0.836,0.305,0.0,0.183,-19.237,-26.636,166.888,-11.007,-0.64,-30.273,30.5,0.14633,0.20734,-0.18842,0.94867,580,0.919,-0.158,0.324,0.427,0.122,-0.122,-26.235,-68.56,-135.445,-30.12,-6.213,-6.367,29.3,-0.18661,0.57861,0.03418,0.79315,578
145,0.974,-0.203,0.238,0.0,0.244,0.0,-41.929,-72.186,-148.705,-29.613,-6.42,-9.213,26.38,3e-05,0.6069,-0.13065,0.78391,577,0.655,-0.103,0.756,0.427,0.0,0.0,-8.042,-40.737,-105.375,-22.307,-3.52,-4.467,24.38,0.54739,-0.31607,-0.15808,-0.75851,583,0.445,-0.294,0.837,0.427,-0.183,0.305,-19.232,-26.642,166.882,-11.007,-0.64,-30.273,30.5,0.14633,0.20734,-0.18842,0.94867,581,0.918,-0.156,0.326,0.122,0.305,-0.061,-26.224,-68.56,-135.45,-30.12,-6.213,-6.367,29.3,-0.18661,0.57861,0.03418,0.79315,579
146,0.973,-0.206,0.237,-0.244,0.732,0.0,-41.913,-72.18,-148.716,-29.613,-6.42,-9.213,26.38,3e-05,0.6069,-0.13065,0.78391,584,0.653,-0.104,0.758,0.122,0.0,0.0,-8.031,-40.737,-105.37,-22.307,-3.52,-4.467,24.38,0.54739,-0.31607,-0.15808,-0.75851,590,0.445,-0.291,0.838,0.549,-0.061,0.122,-19.221,-26.642,166.893,-11.007,-0.64,-30.273,30.5,0.14633,0.20734,-0.18842,0.94867,588,0.918,-0.16,0.326,0.0,0.427,-0.122,-26.208,-68.549,-135.461,-30.12,-6.213,-6.367,29.3,-0.18661,0.57861,0.03418,0.79315,586
147,0.971,-0.21,0.236,-0.244,0.977,0.0,-41.88,-72.169,-148.749,-29.613,-6.42,-9.213,26.38,3e-05,0.6069,-0.13065,0.78391,585,0.652,-0.099,0.757,-0.061,0.0,0.0,-8.031,-40.732,-105.375,-22.307,-3.52,-4.467,24.38,0.54739,-0.31607,-0.15808,-0.75851,591,0.443,-0.293,0.84,0.183,-0.061,0.183,-19.221,-26.642,166.904,-11.007,-0.64,-30.273,30.5,0.14633,0.20734,-0.18842,0.94867,589,0.917,-0.163,0.327,0.0,0.427,-0.061,-26.197,-68.544,-135.467,-30.12,-6.213,-6.367,29.3,-0.18661,0.57861,0.03418,0.79315,587
148,0.969,-0.21,0.232,-0.305,0.732,0.0,-41.841,-72.158,-148.782,-30.1,-6.3,-9.867,26.38,3e-05,0.6069,-0.13065,0.78391,592,0.653,-0.099,0.759,-0.732,0.0,0.0,-8.036,-40.732,-105.375,-22.307,-3.52,-4.467,24.38,0.54739,-0.31607,-0.15808,-0.75851,596,0.444,-0.288,0.84,-0.061,-0.061,0.122,-19.221,-26.642,166.937,-11.267,-1.02,-29.593,30.5,0.14633,0.20734,-0.18842,0.94867,594,0.916,-0.16,0.323,-0.244,0.61,0.122,-26.197,-68.533,-135.478,-30.12,-6.213,-6.367,29.3,-0.18661,0.57861,0.03418,0.79315,600
149,0.974,-0.206,0.231,-0.366,0.793,0.0,-41.814,-72.147,-148.815,-30.1,-6.3,-9.867,26.38,3e-05,0.6069,-0.13065,0.78391,593,0.653,-0.099,0.762,-0.977,-0.549,0.244,-8.053,-40.737,-105.375,-22.307,-3.52,-4.467,24.38,0.54739,-0.31607,-0.15808,-0.75851,597,0.443,-0.288,0.843,-0.916,0.366,-0.122,-19.237,-26.636,166.954,-11.267,-1.02,-29.593,30.5,0.14633,0.20734,-0.18842,0.94867,595,0.92,-0.161,0.325,-0.305,0.0,0.183,-26.208,-68.527,-135.467,-30.12,-6.213,-6.367,29.3,-0.18661,0.57861,0.03418,0.79315,601
150,0.976,-0.208,0.23,-0.244,0.305,0.0,-41.797,-72.142,-148.832,-30.1,-6.3,-9.867,26.38,3e-05,0.6069,-0.13065,0.78391,598,0.651,-0.107,0.763,-0.916,-0.854,0.305,-8.069,-40.748,-105.364,-22.307,-3.52,-4.467,24.38,0.54739,-0.31607,-0.15808,-0.75851,606,0.441,-0.286,0.847,-1.038,0.427,0.0,-19.254,-26.625,166.965,-11.267,-1.02,-29.593,30.5,0.14633,0.20734,-0.18842,0.94867,604,0.92,-0.161,0.326,-0.244,-0.305,0.122,-26.224,-68.533,-135.45,-30.12,-6.213,-6.367,29.3,-0.18661,0.57861,0.03418,0.79315,602
151,0.973,-0.208,0.232,-0.366,0.061,0.0,-41.792,-72.136,-148.837,-30.1,-6.3,-9.867,26.38,3e-05,0.6069,-0.13065,0.78391,599,0.655,-0.114,0.765,-1.16,-1.099,0.0,-8.091,-40.765,-105.353,-22.307,-3.52,-4.467,24.38,0.54739,-0.31607,-0.15808,-0.75851,607,0.438,-0.298,0.85,-1.16,0.0,0.122,-19.276,-26.625,166.992,-11.267,-1.02,-29.593,30.5,0.14633,0.20734,-0.18842,0.94867,605,0.918,-0.162,0.324,-0.366,-0.671,0.122,-26.252,-68.538,-135.428,-30.12,-6.213,-6.367,29.3,-0.18661,0.57861,0.03418,0.79315,603
152,0.973,-0.21,0.23,-0.61,0.061,0.0,-41.797,-72.136,-148.837,-30.1,-6.3,-9.867,26.38,-0.00049,0.60724,-0.13,0.78375,608,0.658,-0.114,0.754,-1.16,-1.221,-0.366,-8.113,-40.781,-105.353,-22.307,-3.52,-4.467,24.38,0.54739,-0.31607,-0.15808,-0.75851,614,0.444,-0.307,0.846,-1.77,-0.793,-0.305,-19.308,-26.636,167.031,-11.267,-1.02,-29.593,30.5,0.14703,0.20709,-0.18756,0.94879,612,0.919,-0.166,0.32,-0.488,-0.977,-0.061,-26.285,-68.555,-135.401,-30.12,-6.213,-6.367,29.3,-0.18661,0.57861,0.03418,0.79315,610
153,0.972,-0.212,0.235,-0.61,0.061,-0.366,-41.803,-72.142,-148.848,-30.1,-6.3,-9.867,26.38,-0.00049,0.60724,-0.13,0.78375,609,0.659,-0.114,0.748,-0.793,-0.916,-0.244,-8.13,-40.798,-105.364,-22.307,-3.52,-4.467,24.38,0.54739,-0.31607,-0.15808,-0.75851,615,0.447,-0.301,0.834,-2.014,-1.038,-0.61,-19.347,-26.658,167.08,-11.267,-1.02,-29.593,30.5,0.14703,0.20709,-0.18756,0.94879,613,0.918,-0.168,0.325,-0.549,-1.038,-0.305,-26.307,-68.577,-135.385,-30.12,-6.213,-6.367,29.3,-0.18661,0.57861,0.03418,0.79315,611
154,0.972,-0.21,0.238,-0.488,-0.061,-0.549,-41.792,-72.147,-148.865,-30.1,-6.3,-9.867,26.38,-0.00049,0.60724,-0.13,0.78375,616,0.653,-0.113,0.748,-0.488,-0.427,-0.183,-8.141,-40.809,-105.364,-22.307,-3.52,-4.467,24.38,0.54739,-0.31607,-0.15808,-0.75851,622,0.446,-0.301,0.824,-1.343,-0.854,-0.244,-19.38,-26.675,167.119,-11.267,-1.02,-29.593,30.5,0.14703,0.20709,-0.18756,0.94879,620,0.918,-0.167,0.325,-0.366,-0.671,-0.427,-26.323,-68.593,-135.385,-30.28,-6.2,-6.56,29.3,-0.18661,0.57861,0.03418,0.79315,618
155,0.971,-0.208,0.237,-0.122,0.061,-0.549,-41.776,-72.153,-148.892,-30.1,-6.3,-9.867,26.38,-0.00049,0.60724,-0.13,0.78375,617,0.655,-0.108,0.752,-0.244,-0.366,-0.122,-8.146,-40.814,-105.353,-22.307,-3.52,-4.467,24.38,0.54739,-0.31607,-0.15808,-0.75851,623,0.446,-0.299,0.826,-0.366,0.305,-0.488,-19.38,-26.669,167.141,-11.267,-1.02,-29.593,30.5,0.14703,0.20709,-0.18756,0.94879,621,0.917,-0.165,0.325,-0.061,-0.244,-0.549,-26.312,-68.599,-135.396,-30.28,-6.2,-6.56,29.3,-0.18661,0.57861,0.03418,0.79315,619
156,0.974,-0.21,0.236,0.183,0.0,-0.366,-41.748,-72.158,-148.909,-30.1,-6.3,-9.867,26.38,-0.00049,0.60724,-0.13,0.78375,624,0.661,-0.105,0.752,0.0,-0.366,0.0,-8.146,-40.82,-105.348,-22.307,-3.52,-4.467,24.38,0.54739,-0.31607,-0.15808,-0.75851,630,0.445,-0.294,0.838,-0.488,-0.122,-0.183,-19.391,-26.675,167.184,-11.267,-1.02,-29.593,30.5,0.14703,0.20709,-0.18756,0.94879,628,0.92,-0.163,0.326,0.0,-0.122,-0.488,-26.301,-68.604,-135.412,-30.28,-6.2,-6.56,29.3,-0.18661,0.57861,0.03418,0.79315,626
157,0.977,-0.21,0.236,0.366,-0.183,-0.366,-41.732,-72.164,-148.92,-30.1,-6.3,-9.867,26.38,-0.00049,0.60724,-0.13,0.78375,625,0.662,-0.104,0.753,0.0,-0.061,0.061,-8.146,-40.82,-105.342,-22.307,-3.52,-4.467,24.38,0.54739,-0.31607,-0.15808,-0.75851,631,0.451,-0.294,0.831,-0.122,-0.061,-0.061,-19.396,-26.675,167.228,-11.267,-1.02,-29.593,30.5,0.14703,0.20709,-0.18756,0.94879,629,0.923,-0.163,0.325,0.183,-0.061,-0.366,-26.29,-68.604,-135.428,-30.28,-6.2,-6.56,29.3,-0.18661,0.57861,0.03418,0.79315,627
158,0.979,-0.207,0.234,0.427,-0.183,-0.305,-41.715,-72.169,-148.925,-30.1,-6.3,-9.867,26.38,-0.00049,0.60724,-0.13,0.78375,632,0.662,-0.101,0.751,0.0,0.0,0.122,-8.146,-40.82,-105.331,-22.56,-3.253,-4.333,24.38,0.54739,-0.31607,-0.15808,-0.75851,638,0.453,-0.292,0.834,0.122,1.038,-0.183,-19.391,-26.658,167.256,-11.267,-1.02,-29.593,30.5,0.14703,0.20709,-0.18756,0.94879,636,0.924,-0.159,0.323,0.305,0.061,-0.244,-26.274,-68.604,-135.439,-30.28,-6.2,-6.56,29.3,-0.18643,0.57904,0.03427,0.79288,634
159,0.978,-0.205,0.235,0.427,0.0,-0.183,-41.699,-72.175,-148.931,-30.1,-6.3,-9.867,26.38,-0.00049,0.60724,-0.13,0.78375,633,0.661,-0.105,0.755,0.366,-0.061,0.183,-8.146,-40.82,-105.315,-22.56,-3.253,-4.333,24.38,0.54739,-0.31607,-0.15808,-0.75851,639,0.45,-0.289,0.839,0.244,0.854,0.0,-19.38,-26.642,167.278,-11.267,-1.02,-29.593,30.5,0.14703,0.20709,-0.18756,0.94879,637,0.925,-0.157,0.324,0.183,0.183,-0.183,-26.263,-68.604,-135.445,-30.28,-6.2,-6.56,29.3,-0.18643,0.57904,0.03427,0.79288,635
160,0.975,-0.204,0.234,0.122,0.061,0.0,-41.682,-72.175,-148.936,-30.1,-6.3,-9.867,26.38,-0.00049,0.60724,-0.13,0.78375,640,0.658,-0.107,0.753,0.183,0.244,0.122,-8.141,-40.82,-105.298,-22.56,-3.253,-4.333,24.38,0.54739,-0.31607,-0.15808,-0.75851,646,0.45,-0.295,0.837,0.671,0.427,0.061,-19.369,-26.636,167.283,-11.267,-1.02,-29.593,30.5,0.14703,0.20709,-0.18756,0.94879,644,0.922,-0.156,0.324,0.0,0.183,-0.061,-26.257,-68.599,-135.45,-30.28,-6.2,-6.56,29.3,-0.18643,0.57904,0.03427,0.79288,642
161,0.974,-0.205,0.233,-0.061,0.183,0.0,-41.677,-72.175,-148.936,-30.1,-6.3,-9.867,26.38,-0.00049,0.60724,-0.13,0.78375,641,0.655,-0.103,0.752,0.488,0.061,0.061,-8.13,-40.814,-105.276,-22.56,-3.253,-4.333,24.38,0.54739,-0.31607,-0.15808,-0.75851,647,0.447,-0.295,0.838,0.366,0.732,0.061,-19.358,-26.625,167.267,-11.267,-1.02,-29.593,30.5,0.14703,0.20709,-0.18756,0.94879,645,0.919,-0.158,0.323,0.0,0.244,-0.122,-26.246,-68.599,-135.461,-30.28,-6.2,-6.56,29.3,-0.18643,0.57904,0.03427,0.79288,643
162,0.973,-0.207,0.233,0.0,0.183,0.0,-41.666,-72.169,-148.942,-30.1,-6.3,-9.867,26.38,-0.00049,0.60724,-0.13,0.78375,648,0.655,-0.104,0.753,0.671,0.061,0.366,-8.119,-40.814,-105.249,-22.56,-3.253,-4.333,24.38,0.54761,-0.3168,-0.15823,-0.75806,660,0.445,-0.289,0.837,0.61,0.183,0.183,-19.347,-26.62,167.25,-11.267,-1.02,-29.593,30.5,0.14703,0.20709,-0.18756,0.94879,652,0.918,-0.16,0.322,-0.061,0.427,-0.061,-26.235,-68.588,-135.467,-30.28,-6.2,-6.56,29.3,-0.18643,0.57904,0.03427,0.79288,650
163,0.974,-0.204,0.233,0.0,0.244,0.0,-41.655,-72.169,-148.953,-30.1,-6.3,-9.867,26.38,-0.00049,0.60724,-0.13,0.78375,649,0.656,-0.104,0.753,0.61,0.061,0.366,-8.113,-40.814,-105.227,-22.56,-3.253,-4.333,24.38,0.54761,-0.3168,-0.15823,-0.75806,661,0.444,-0.291,0.836,0.916,0.244,0.427,-19.33,-26.614,167.239,-11.267,-1.02,-29.593,30.5,0.14703,0.20709,-0.18756,0.94879,653,0.919,-0.158,0.322,-0.061,0.488,0.0,-26.23,-68.582,-135.478,-30.28,-6.2,-6.56,29.3,-0.18643,0.57904,0.03427,0.79288,651
164,0.974,-0.203,0.234,-0.122,0.122,0.061,-41.649,-72.164,-148.953,-30.1,-6.3,-9.867,26.38,-0.00049,0.60724,-0.13,0.78375,654,0.657,-0.101,0.757,0.916,0.122,0.244,-8.097,-40.809,-105.211,-22.56,-3.253,-4.333,24.38,0.54761,-0.3168,-0.15823,-0.75806,662,0.445,-0.292,0.838,0.854,0.0,0.671,-19.319,-26.614,167.25,-11.267,-1.02,-29.593,30.5,0.14703,0.20709,-0.18756,0.94879,658,0.919,-0.156,0.325,-0.183,0.549,-0.061,-26.213,-68.571,-135.489,-30.28,-6.2,-6.56,29.3,-0.18643,0.57904,0.03427,0.79288,656
165,0.974,-0.203,0.234,-0.183,0.061,0.122,-41.644,-72.164,-148.953,-30.1,-6.3,-9.867,26.38,-0.00049,0.60724,-0.13,0.78375,655,0.655,-0.103,0.757,0.916,-0.122,0.061,-8.08,-40.809,-105.216,-22.56,-3.253,-4.333,24.38,0.54761,-0.3168,-0.15823,-0.75806,663,0.443,-0.291,0.843,0.977,-0.671,0.0,-19.303,-26.62,167.272,-11.267,-1.02,-29.593,30.5,0.14703,0.20709,-0.18756,0.94879,659,0.919,-0.156,0.326,-0.183,0.549,0.0,-26.208,-68.566,-135.5,-30.28,-6.2,-6.56,29.3,-0.18643,0.57904,0.03427,0.79288,657
166,0.974,-0.204,0.235,-0.183,0.0,0.305,-41.655,-72.164,-148.942,-30.007,-6.327,-9.333,26.38,-0.00049,0.60724,-0.13,0.78375,664,0.657,-0.102,0.758,0.854,-0.183,0.183,-8.064,-40.814,-105.211,-22.56,-3.253,-4.333,24.38,0.54761,-0.3168,-0.15823,-0.75806,670,0.448,-0.292,0.841,0.61,-1.221,0.244,-19.286,-26.636,167.278,-10.847,-0.873,-29.007,30.5,0.14703,0.20709,-0.18756,0.94879,668,0.919,-0.159,0.325,-0.244,0.366,0.061,-26.202,-68.555,-135.505,-30.28,-6.2,-6.56,29.3,-0.18643,0.57904,0.03427,0.79288,666
167,0.975,-0.208,0.236,-0.061,0.0,0.305,-41.666,-72.158,-148.92,-30.007,-6.327,-9.333,26.38,-0.00049,0.60724,-0.13,0.78375,665,0.657,-0.107,0.757,0.488,-0.122,0.183,-8.053,-40.814,-105.211,-22.56,-3.253,-4.333,24.38,0.54761,-0.3168,-0.15823,-0.75806,671,0.446,-0.296,0.839,-0.122,-0.488,-0.061,-19.281,-26.658,167.278,-10.847,-0.873,-29.007,30.5,0.14703,0.20709,-0.18756,0.94879,669,0.921,-0.162,0.327,-0.183,0.183,0.061,-26.208,-68.555,-135.5,-30.28,-6.2,-6.56,29.3,-0.18643,0.57904,0.03427,0.79288,667
168,0.975,-0.208,0.235,0.061,-0.061,0.244,-41.671,-72.158,-148.903,-30.007,-6.327,-9.333,26.38,-0.00049,0.60724,-0.13,0.78375,672,0.657,-0.103,0.757,0.0,-0.244,0.305,-8.053,-40.814,-105.216,-22.56,-3.253,-4.333,24.38,0.54761,-0.3168,-0.15823,-0.75806,678,0.442,-0.29,0.844,-0.671,-0.854,0.488,-19.292,-26.664,167.283,-10.847,-0.873,-29.007,30.5,0.14703,0.20709,-0.18756,0.94879,676,0.92,-0.162,0.325,0.0,0.122,0.122,-26.208,-68.549,-135.494,-30.28,-6.2,-6.56,29.3,-0.18643,0.57904,0.03427,0.79288,674
169,0.975,-0.206,0.236,0.183,0.0,0.305,-41.682,-72.153,-148.887,-30.007,-6.327,-9.333,26.38,-0.00049,0.60724,-0.13,0.78375,673,0.655,-0.103,0.757,0.0,-0.305,0.244,-8.053,-40.82,-105.222,-22.56,-3.253,-4.333,24.38,0.54761,-0.3168,-0.15823,-0.75806,679,0.445,-0.297,0.833,0.0,-0.305,-0.366,-19.303,-26.675,167.267,-10.847,-0.873,-29.007,30.5,0.14703,0.20709,-0.18756,0.94879,677,0.921,-0.16,0.326,0.0,0.0,0.122,-26.213,-68.549,-135.489,-30.28,-6.2,-6.56,29.3,-0.18643,0.57904,0.03427,0.79288,675
170,0.971,-0.207,0.235,0.183,0.0,0.305,-41.688,-72.153,-148.87,-30.007,-6.327,-9.333,26.38,-0.00067,0.60727,-0.12943,0.78381,686,0.653,-0.11,0.757,-0.183,0.0,0.0,-8.053,-40.82,-105.227,-22.56,-3.253,-4.333,24.38,0.54761,-0.3168,-0.15823,-0.75806,684,0.442,-0.297,0.844,-0.244,-0.305,-0.854,-19.303,-26.686,167.245,-10.847,-0.873,-29.007,30.5,0.14468,0.20795,-0.18735,0.94901,682,0.917,-0.16,0.324,0.122,0.061,0.183,-26.219,-68.544,-135.478,-30.28,-6.2,-6.56,29.3,-0.18643,0.57904,0.03427,0.79288,680
171,0.97,-0.207,0.236,0.183,0.183,0.305,-41.688,-72.147,-148.859,-30.007,-6.327,-9.333,26.38,-0.00067,0.60727,-0.12943,0.78381,687,0.652,-0.106,0.757,-0.244,-0.305,0.061,-8.058,-40.82,-105.233,-22.56,-3.253,-4.333,24.38,0.54761,-0.3168,-0.15823,-0.75806,685,0.441,-0.292,0.835,-0.61,-0.427,-0.488,-19.303,-26.697,167.217,-10.847,-0.873,-29.007,30.5,0.14468,0.20795,-0.18735,0.94901,683,0.916,-0.163,0.327,0.061,0.0,0.122,-26.224,-68.544,-135.467,-30.28,-6.2,-6.56,29.3,-0.18643,0.57904,0.03427,0.79288,681
172,0.97,-0.207,0.235,0.122,0.0,0.305,-41.688,-72.142,-148.843,-30.007,-6.327,-9.333,26.38,-0.00067,0.60727,-0.12943,0.78381,692,0.651,-0.107,0.753,0.061,-0.305,0.0,-8.058,-40.825,-105.233,-22.56,-3.253,-4.333,24.38,0.54761,-0.3168,-0.15823,-0.75806,696,0.439,-0.297,0.837,0.061,-0.732,-0.488,-19.308,-26.708,167.195,-10.847,-0.873,-29.007,30.5,0.14468,0.20795,-0.18735,0.94901,690,0.915,-0.162,0.325,0.0,0.061,0.122,-26.23,-68.538,-135.461,-30.047,-5.993,-6.24,29.3,-0.18643,0.57904,0.03427,0.79288,688
173,0.971,-0.207,0.236,0.0,-0.122,0.183,-41.699,-72.142,-148.826,-30.007,-6.327,-9.333,26.38,-0.00067,0.60727,-0.12943,0.78381,693,0.654,-0.111,0.757,0.061,-0.427,-0.183,-8.053,-40.831,-105.227,-22.56,-3.253,-4.333,24.38,0.54761,-0.3168,-0.15823,-0.75806,697,0.445,-0.299,0.837,0.183,-0.549,-0.671,-19.303,-26.724,167.173,-10.847,-0.873,-29.007,30.5,0.14468,0.20795,-0.18735,0.94901,691,0.917,-0.163,0.326,-0.061,0.0,0.0,-26.23,-68.538,-135.456,-30.047,-5.993,-6.24,29.3,-0.18643,0.57904,0.03427,0.79288,689
174,0.973,-0.208,0.236,-0.183,-0.183,0.122,-41.71,-72.142,-148.81,-30.007,-6.327,-9.333,26.38,-0.00067,0.60727,-0.12943,0.78381,694,0.656,-0.103,0.756,-0.366,-0.244,-0.122,-8.058,-40.836,-105.233,-22.56,-3.253,-4.333,24.38,0.54761,-0.3168,-0.15823,-0.75806,708,0.449,-0.291,0.838,-0.305,-0.549,-0.671,-19.297,-26.735,167.157,-10.847,-0.873,-29.007,30.5,0.14468,0.20795,-0.18735,0.94901,700,0.918,-0.163,0.326,-0.183,0.0,-0.122,-26.23,-68.538,-135.461,-30.047,-5.993,-6.24,29.3,-0.18643,0.57904,0.03427,0.79288,698
175,0.974,-0.209,0.236,-0.305,-0.244,0.061,-41.721,-72.142,-148.793,-30.007,-6.327,-9.333,26.38,-0.00067,0.60727,-0.12943,0.78381,695,0.659,-0.102,0.755,-0.854,-0.183,0.0,-8.069,-40.836,-105.244,-22.56,-3.253,-4.333,24.38,0.54761,-0.3168,-0.15823,-0.75806,709,0.451,-0.29,0.838,-0.916,-0.366,-0.427,-19.303,-26.746,167.141,-10.847,-0.873,-29.007,30.5,0.14468,0.20795,-0.18735,0.94901,701,0.92,-0.164,0.326,-0.305,-0.061,-0.122,-26.235,-68.538,-135.461,-30.047,-5.993,-6.24,29.3,-0.18643,0.57904,0.03427,0.79288,699
176,0.975,-0.21,0.234,-0.366,-0.244,0.061,-41.737,-72.142,-148.777,-30.007,-6.327,-9.333,26.38,-0.00067,0.60727,-0.12943,0.78381,702,0.658,-0.102,0.755,-0.916,-0.305,0.183,-8.091,-40.836,-105.255,-22.287,-3.66,-4.573,24.38,0.54761,-0.3168,-0.15823,-0.75806,716,0.45,-0.291,0.838,-1.16,-0.183,0.0,-19.319,-26.752,167.119,-10.847,-0.873,-29.007,30.5,0.14468,0.20795,-0.18735,0.94901,706,0.92,-0.164,0.324,-0.305,0.0,0.0,-26.241,-68.538,-135.456,-30.047,-5.993,-6.24,29.3,-0.18671,0.57855,0.03424,0.79318,704
177,0.975,-0.209,0.234,-0.305,-0.244,0.122,-41.754,-72.147,-148.76,-30.007,-6.327,-9.333,26.38,-0.00067,0.60727,-0.12943,0.78381,703,0.66,-0.104,0.752,-0.916,-0.305,0.244,-8.113,-40.842,-105.266,-22.287,-3.66,-4.573,24.38,0.54761,-0.3168,-0.15823,-0.75806,717,0.449,-0.296,0.836,-1.099,-0.366,0.0,-19.347,-26.752,167.108,-10.847,-0.873,-29.007,30.5,0.14468,0.20795,-0.18735,0.94901,707,0.921,-0.161,0.324,-0.183,-0.061,0.122,-26.257,-68.533,-135.445,-30.047,-5.993,-6.24,29.3,-0.18671,0.57855,0.03424,0.79318,705
178,0.974,-0.208,0.234,-0.244,-0.183,0.183,-41.77,-72.147,-148.744,-30.007,-6.327,-9.333,26.38,-0.00067,0.60727,-0.12943,0.78381,710,0.659,-0.116,0.75,-0.488,-0.122,0.122,-8.124,-40.842,-105.271,-22.287,-3.66,-4.573,24.38,0.54761,-0.3168,-0.15823,-0.75806,718,0.449,-0.302,0.829,-0.916,-0.671,0.244,-19.369,-26.763,167.113,-10.847,-0.873,-29.007,30.5,0.14468,0.20795,-0.18735,0.94901,714,0.921,-0.161,0.323,-0.183,-0.061,0.183,-26.274,-68.533,-135.434,-30.047,-5.993,-6.24,29.3,-0.18671,0.57855,0.03424,0.79318,712
179,0.971,-0.211,0.232,-0.183,-0.061,0.061,-41.781,-72.147,-148.733,-30.007,-6.327,-9.333,26.38,-0.00067,0.60727,-0.12943,0.78381,711,0.658,-0.111,0.748,-0.244,0.244,0.366,-8.135,-40.836,-105.271,-22.287,-3.66,-4.573,24.38,0.54761,-0.3168,-0.15823,-0.75806,719,0.451,-0.296,0.826,-0.854,-0.488,0.366,-19.391,-26.774,167.13,-10.847,-0.873,-29.007,30.5,0.14468,0.20795,-0.18735,0.94901,715,0.918,-0.166,0.321,0.0,0.0,0.0,-26.279,-68.533,-135.428,-30.047,-5.993,-6.24,29.3,-0.18671,0.57855,0.03424,0.79318,713
180,0.97,-0.211,0.233,-0.183,0.0,0.0,-41.786,-72.147,-148.727,-30.007,-6.327,-9.333,26.38,-0.00067,0.60727,-0.12943,0.78381,720,0.659,-0.107,0.749,-0.366,0.793,0.305,-8.146,-40.825,-105.266,-22.287,-3.66,-4.573,24.38,0.54767,-0.31686,-0.1582,-0.75797,726,0.45,-0.296,0.833,-0.793,0.0,0.305,-19.413,-26.774,167.13,-10.847,-0.873,-29.007,30.5,0.14468,0.20795,-0.18735,0.94901,724,0.917,-0.165,0.32,-0.061,0.244,0.0,-26.279,-68.527,-135.434,-30.047,-5.993,-6.24,29.3,-0.18671,0.57855,0.03424,0.79318,722
181,0.975,-0.208,0.231,-0.061,0.061,-0.061,-41.781,-72.147,-148.733,-30.007,-6.327,-9.333,26.38,-0.00067,0.60727,-0.12943,0.78381,721,0.657,-0.109,0.755,0.061,0.305,0.183,-8.146,-40.814,-105.26,-22.287,-3.66,-4.573,24.38,0.54767,-0.31686,-0.1582,-0.75797,727,0.448,-0.298,0.84,-0.183,0.183,0.366,-19.429,-26.774,167.108,-10.847,-0.873,-29.007,30.5,0.14468,0.20795,-0.18735,0.94901,725,0.922,-0.162,0.322,-0.061,0.183,0.0,-26.279,-68.522,-135.434,-30.047,-5.993,-6.24,29.3,-0.18671,0.57855,0.03424,0.79318,723
182,0.977,-0.206,0.233,0.0,0.0,-0.061,-41.776,-72.147,-148.733,-30.007,-6.327,-9.333,26.38,-0.00067,0.60727,-0.12943,0.78381,730,0.66,-0.112,0.761,0.305,0.0,0.122,-8.146,-40.814,-105.255,-22.287,-3.66,-4.573,24.38,0.54767,-0.31686,-0.1582,-0.75797,734,0.45,-0.302,0.84,-0.305,0.183,0.549,-19.44,-26.768,167.091,-10.847,-0.873,-29.007,30.5,0.14468,0.20795,-0.18735,0.94901,732,0.923,-0.163,0.323,0.244,-0.061,-0.122,-26.279,-68.527,-135.434,-30.047,-5.993,-6.24,29.3,-0.18671,0.57855,0.03424,0.79318,728
183,0.978,-0.208,0.232,0.061,0.0,-0.061,-41.776,-72.147,-148.733,-30.007,-6.327,-9.333,26.38,-0.00067,0.60727,-0.12943,0.78381,731,0.661,-0.107,0.755,0.122,0.061,0.0,-8.141,-40.814,-105.255,-22.287,-3.66,-4.573,24.38,0.54767,-0.31686,-0.1582,-0.75797,735,0.455,-0.298,0.833,0.244,0.427,0.366,-19.446,-26.763,167.091,-10.847,-0.873,-29.007,30.5,0.14468,0.20795,-0.18735,0.94901,733,0.921,-0.159,0.323,0.366,-0.061,0.0,-26.279,-68.527,-135.434,-30.047,-5.993,-6.24,29.3,-0.18671,0.57855,0.03424,0.79318,729
184,0.975,-0.208,0.232,0.122,0.0,-0.061,-41.77,-72.147,-148.733,-29.613,-6.38,-9.753,26.38,-0.00067,0.60727,-0.12943,0.78381,736,0.66,-0.105,0.751,0.427,0.061,-0.244,-8.13,-40.814,-105.26,-22.287,-3.66,-4.573,24.38,0.54767,-0.31686,-0.1582,-0.75797,742,0.449,-0.297,0.838,0.854,-0.122,-0.122,-19.44,-26.757,167.091,-11.307,-0.407,-30.033,30.5,0.14468,0.20795,-0.18735,0.94901,740,0.92,-0.158,0.322,0.244,0.0,0.0,-26.279,-68.527,-135.428,-30.047,-5.993,-6.24,29.3,-0.18671,0.57855,0.03424,0.79318,738
185,0.975,-0.205,0.232,0.061,0.0,0.0,-41.765,-72.147,-148.733,-29.613,-6.38,-9.753,26.38,-0.00067,0.60727,-0.12943,0.78381,737,0.657,-0.107,0.751,0.366,-0.366,-0.244,-8.119,-40.82,-105.249,-22.287,-3.66,-4.573,24.38,0.54767,-0.31686,-0.1582,-0.75797,743,0.448,-0.295,0.83,0.916,0.0,-0.183,-19.424,-26.757,167.091,-11.307,-0.407,-30.033,30.5,0.14468,0.20795,-0.18735,0.94901,741,0.919,-0.16,0.323,0.122,0.0,0.0,-26.279,-68.527,-135.428,-30.047,-5.993,-6.24,29.3,-0.18671,0.57855,0.03424,0.79318,739
186,0.973,-0.207,0.234,0.0,0.122,0.0,-41.759,-72.147,-148.733,-29.613,-6.38,-9.753,26.38,-0.00067,0.60727,-0.12943,0.78381,744,0.654,-0.104,0.751,0.427,0.061,-0.122,-8.108,-40.82,-105.238,-22.287,-3.66,-4.573,24.38,0.54767,-0.31686,-0.1582,-0.75797,750,0.446,-0.292,0.833,0.854,0.549,0.0,-19.407,-26.757,167.086,-11.307,-0.407,-30.033,30.5,0.14468,0.20795,-0.18735,0.94901,748,0.916,-0.162,0.323,0.183,0.061,0.0,-26.279,-68.527,-135.423,-30.047,-5.993,-6.24,29.3,-0.18671,0.57855,0.03424,0.79318,746
187,0.971,-0.208,0.233,0.061,0.183,0.061,-41.754,-72.147,-148.738,-29.613,-6.38,-9.753,26.38,-0.00067,0.60727,-0.12943,0.78381,745,0.654,-0.105,0.752,0.488,0.122,0.0,-8.097,-40.82,-105.227,-22.287,-3.66,-4.573,24.38,0.54767,-0.31686,-0.1582,-0.75797,751,0.445,-0.293,0.833,0.916,0.793,0.244,-19.391,-26.752,167.069,-11.307,-0.407,-30.033,30.5,0.14468,0.20795,-0.18735,0.94901,749,0.917,-0.163,0.323,0.244,0.122,0.0,-26.279,-68.527,-135.423,-30.047,-5.993,-6.24,29.3,-0.18671,0.57855,0.03424,0.79318,747
188,0.971,-0.208,0.234,0.061,0.122,0.0,-41.748,-72.147,-148.738,-29.613,-6.38,-9.753,26.38,-0.00134,0.60742,-0.12915,0.78375,752,0.655,-0.108,0.751,0.427,0.122,0.0,-8.091,-40.82,-105.227,-22.287,-3.66,-4.573,24.38,0.54767,-0.31686,-0.1582,-0.75797,756,0.444,-0.297,0.833,0.793,0.916,0.122,-19.374,-26.735,167.053,-11.307,-0.407,-30.033,30.5,0.14661,0.20816,-0.18854,0.94843,754,0.918,-0.162,0.324,0.183,0.183,0.0,-26.274,-68.527,-135.423,-30.047,-5.993,-6.24,29.3,-0.18671,0.57855,0.03424,0.79318,760
189,0.972,-0.208,0.234,0.061,0.122,0.0,-41.737,-72.142,-148.744,-29.613,-6.38,-9.753,26.38,-0.00134,0.60742,-0.12915,0.78375,753,0.653,-0.107,0.757,0.183,0.244,-0.122,-8.086,-40.814,-105.233,-22.287,-3.66,-4.573,24.38,0.54767,-0.31686,-0.1582,-0.75797,757,0.442,-0.296,0.84,0.549,1.038,0.122,-19.358,-26.719,167.025,-11.307,-0.407,-30.033,30.5,0.14661,0.20816,-0.18854,0.94843,755,0.918,-0.162,0.326,0.061,0.061,0.0,-26.268,-68.522,-135.423,-30.047,-5.993,-6.24,29.3,-0.18671,0.57855,0.03424,0.79318,761
190,0.974,-0.207,0.235,0.0,0.122,0.0,-41.732,-72.142,-148.749,-29.613,-6.38,-9.753,26.38,-0.00134,0.60742,-0.12915,0.78375,758,0.653,-0.106,0.758,0.0,0.061,-0.183,-8.08,-40.809,-105.244,-22.287,-3.66,-4.573,24.38,0.54767,-0.31686,-0.1582,-0.75797,766,0.441,-0.296,0.84,0.732,0.732,0.183,-19.347,-26.697,166.992,-11.307,-0.407,-30.033,30.5,0.14661,0.20816,-0.18854,0.94843,762,0.919,-0.162,0.329,-0.061,0.0,0.0,-26.274,-68.522,-135.423,-30.52,-6.113,-6.273,29.3,-0.18671,0.57855,0.03424,0.79318,764
191,0.974,-0.208,0.238,-0.122,0.0,-0.061,-41.732,-72.142,-148.749,-29.613,-6.38,-9.753,26.38,-0.00134,0.60742,-0.12915,0.78375,759,0.653,-0.104,0.761,-0.122,0.0,-0.305,-8.075,-40.809,-105.255,-22.287,-3.66,-4.573,24.38,0.54767,-0.31686,-0.1582,-0.75797,767,0.444,-0.293,0.843,0.305,0.671,-0.183,-19.336,-26.686,166.97,-11.307,-0.407,-30.033,30.5,0.14661,0.20816,-0.18854,0.94843,763,0.918,-0.163,0.325,0.0,-0.061,0.0,-26.274,-68.522,-135.423,-30.52,-6.113,-6.273,29.3,-0.18671,0.57855,0.03424,0.79318,765
192,0.972,-0.208,0.234,-0.244,-0.061,0.0,-41.732,-72.142,-148.744,-29.613,-6.38,-9.753,26.38,-0.00134,0.60742,-0.12915,0.78375,768,0.655,-0.104,0.759,-0.488,0.0,-0.183,-8.08,-40.809,-105.266,-22.287,-3.66,-4.573,24.38,0.54767,-0.31686,-0.1582,-0.75797,774,0.445,-0.291,0.841,0.122,0.61,-0.244,-19.33,-26.675,166.943,-11.307,-0.407,-30.033,30.5,0.14661,0.20816,-0.18854,0.94843,772,0.918,-0.164,0.328,0.061,-0.061,0.0,-26.279,-68.522,-135.417,-30.52,-6.113,-6.273,29.3,-0.18671,0.57855,0.03424,0.79318,770
193,0.973,-0.209,0.237,-0.061,-0.061,-0.061,-41.732,-72.147,-148.744,-29.613,-6.38,-9.753,26.38,-0.00134,0.60742,-0.12915,0.78375,769,0.655,-0.102,0.754,-0.366,-0.061,0.122,-8.091,-40.809,-105.266,-22.287,-3.66,-4.573,24.38,0.54767,-0.31686,-0.1582,-0.75797,775,0.445,-0.287,0.839,0.122,0.183,0.0,-19.325,-26.664,166.937,-11.307,-0.407,-30.033,30.5,0.14661,0.20816,-0.18854,0.94843,773,0.918,-0.162,0.327,0.061,0.0,0.0,-26.285,-68.522,-135.412,-30.52,-6.113,-6.273,29.3,-0.18671,0.57855,0.03424,0.79318,771
194,0.973,-0.209,0.237,0.061,-0.122,-0.061,-41.732,-72.147,-148.738,-29.613,-6.38,-9.753,26.38,-0.00134,0.60742,-0.12915,0.78375,776,0.655,-0.105,0.755,0.0,-0.061,0.366,-8.091,-40.803,-105.26,-22.093,-3.44,-4.093,24.38,0.54767,-0.31686,-0.1582,-0.75797,782,0.444,-0.294,0.838,0.305,-0.122,0.427,-19.319,-26.664,166.937,-11.307,-0.407,-30.033,30.5,0.14661,0.20816,-0.18854,0.94843,780,0.918,-0.161,0.325,0.183,0.0,0.0,-26.285,-68.516,-135.412,-30.52,-6.113,-6.273,29.3,-0.18686,0.57849,0.03406,0.79318,778
195,0.973,-0.207,0.234,0.122,-0.061,0.0,-41.726,-72.147,-148.738,-29.613,-6.38,-9.753,26.38,-0.00134,0.60742,-0.12915,0.78375,777,0.653,-0.109,0.753,0.122,0.0,0.305,-8.097,-40.803,-105.244,-22.093,-3.44,-4.093,24.38,0.54767,-0.31686,-0.1582,-0.75797,783,0.444,-0.295,0.835,0.366,-0.366,0.549,-19.319,-26.664,166.959,-11.307,-0.407,-30.033,30.5,0.14661,0.20816,-0.18854,0.94843,781,0.917,-0.159,0.324,0.244,-0.061,0.0,-26.285,-68.516,-135.406,-30.52,-6.113,-6.273,29.3,-0.18686,0.57849,0.03406,0.79318,779
196,0.971,-0.207,0.234,0.061,-0.061,0.0,-41.726,-72.147,-148.733,-29.613,-6.38,-9.753,26.38,-0.00134,0.60742,-0.12915,0.78375,784,0.653,-0.104,0.754,0.183,0.122,0.122,-8.091,-40.798,-105.238,-22.093,-3.44,-4.093,24.38,0.54767,-0.31686,-0.1582,-0.75797,790,0.444,-0.293,0.839,0.488,-0.61,0.366,-19.314,-26.664,166.976,-11.307,-0.407,-30.033,30.5,0.14661,0.20816,-0.18854,0.94843,788,0.917,-0.16,0.323,0.183,-0.061,0.0,-26.279,-68.516,-135.406,-30.52,-6.113,-6.273,29.3,-0.18686,0.57849,0.03406,0.79318,786
197,0.971,-0.208,0.233,-0.061,-0.183,-0.061,-41.726,-72.153,-148.727,-29.613,-6.38,-9.753,26.38,-0.00134,0.60742,-0.12915,0.78375,785,0.655,-0.102,0.756,-0.183,-0.061,0.122,-8.097,-40.798,-105.227,-22.093,-3.44,-4.093,24.38,0.54767,-0.31686,-0.1582,-0.75797,791,0.445,-0.291,0.842,-0.183,-0.854,0.122,-19.314,-26.675,166.97,-11.307,-0.407,-30.033,30.5,0.14661,0.20816,-0.18854,0.94843,789,0.919,-0.159,0.326,0.0,-0.183,0.0,-26.279,-68.516,-135.401,-30.52,-6.113,-6.273,29.3,-0.18686,0.57849,0.03406,0.79318,787
198,0.975,-0.205,0.234,-0.183,-0.244,0.0,-41.737,-72.153,-148.716,-29.613,-6.38,-9.753,26.38,-0.00134,0.60742,-0.12915,0.78375,792,0.659,-0.102,0.759,-0.671,-0.244,0.122,-8.108,-40.798,-105.216,-22.093,-3.44,-4.093,24.38,0.54807,-0.31644,-0.15851,-0.75778,798,0.453,-0.294,0.841,-0.732,-0.183,-0.305,-19.325,-26.686,166.943,-11.307,-0.407,-30.033,30.5,0.14661,0.20816,-0.18854,0.94843,796,0.923,-0.159,0.327,0.0,-0.427,0.0,-26.29,-68.522,-135.39,-30.52,-6.113,-6.273,29.3,-0.18686,0.57849,0.03406,0.79318,794
199,0.979,-0.205,0.234,-0.244,-0.427,0.0,-41.754,-72.158,-148.694,-29.613,-6.38,-9.753,26.38,-0.00134,0.60742,-0.12915,0.78375,793,0.662,-0.107,0.757,-1.099,-0.305,0.0,-8.13,-40.803,-105.205,-22.093,-3.44,-4.093,24.38,0.54807,-0.31644,-0.15851,-0.75778,799,0.451,-0.298,0.841,-1.465,0.488,-0.244,-19.336,-26.691,166.899,-11.307,-0.407,-30.033,30.5,0.14661,0.20816,-0.18854,0.94843,797,0.924,-0.159,0.324,0.061,-0.427,0.0,-26.296,-68.527,-135.379,-30.52,-6.113,-6.273,29.3,-0.18686,0.57849,0.03406,0.79318,795
200,0.979,-0.206,0.233,-0.305,-0.488,0.0,-41.776,-72.164,-148.672,-29.613,-6.38,-9.753,26.38,-0.00134,0.60742,-0.12915,0.78375,800,0.66,-0.108,0.755,-1.16,-0.488,0.0,-8.152,-40.814,-105.216,-22.093,-3.44,-4.093,24.38,0.54807,-0.31644,-0.15851,-0.75778,806,0.447,-0.297,0.839,-1.221,0.0,0.122,-19.363,-26.68,166.86,-11.307,-0.407,-30.033,30.5,0.14661,0.20816,-0.18854,0.94843,804,0.922,-0.16,0.322,0.122,-0.427,0.0,-26.307,-68.533,-135.368,-30.52,-6.113,-6.273,29.3,-0.18686,0.57849,0.03406,0.79318,802
201,0.977,-0.208,0.232,-0.183,-0.305,0.0,-41.786,-72.169,-148.656,-29.613,-6.38,-9.753,26.38,-0.00134,0.60742,-0.12915,0.78375,801,0.659,-0.109,0.753,-0.732,-0.549,-0.183,-8.163,-40.825,-105.227,-22.093,-3.44,-4.093,24.38,0.54807,-0.31644,-0.15851,-0.75778,807,0.448,-0.3,0.834,-0.244,0.244,-0.366,-19.38,-26.68,166.838,-11.307,-0.407,-30.033,30.5,0.14661,0.20816,-0.18854,0.94843,805,0.92,-0.16,0.322,0.244,-0.305,0.0,-26.307,-68.544,-135.357,-30.52,-6.113,-6.273,29.3,-0.18686,0.57849,0.03406,0.79318,803
202,0.974,-0.208,0.232,-0.061,-0.183,0.0,-41.797,-72.175,-148.645,-29.607,-6.133,-9.42,26.38,-0.00134,0.60742,-0.12915,0.78375,808,0.656,-0.111,0.752,-0.61,-0.488,-0.427,-8.168,-40.831,-105.244,-22.093,-3.44,-4.093,24.38,0.54807,-0.31644,-0.15851,-0.75778,814,0.447,-0.298,0.835,-0.244,0.244,-0.793,-19.38,-26.68,166.805,-10.933,-0.7,-29.84,30.5,0.14661,0.20816,-0.18854,0.94843,810,0.918,-0.162,0.32,0.183,-0.183,0.0,-26.312,-68.544,-135.346,-30.52,-6.113,-6.273,29.3,-0.18686,0.57849,0.03406,0.79318,812
203,0.972,-0.208,0.232,-0.122,-0.061,0.0,-41.797,-72.18,-148.64,-29.607,-6.133,-9.42,26.38,-0.00134,0.60742,-0.12915,0.78375,809,0.658,-0.109,0.752,-0.549,-0.427,-0.366,-8.168,-40.842,-105.255,-22.093,-3.44,-4.093,24.38,0.54807,-0.31644,-0.15851,-0.75778,815,0.446,-0.294,0.834,-0.183,0.244,-0.549,-19.38,-26.68,166.767,-10.933,-0.7,-29.84,30.5,0.14661,0.20816,-0.18854,0.94843,811,0.918,-0.164,0.321,0.122,-0.061,0.0,-26.312,-68.549,-135.341,-30.52,-6.113,-6.273,29.3,-0.18686,0.57849,0.03406,0.79318,813
204,0.972,-0.209,0.232,-0.122,0.0,0.0,-41.797,-72.18,-148.64,-29.607,-6.133,-9.42,26.38,-0.00134,0.60742,-0.12915,0.78375,818,0.656,-0.106,0.75,-0.366,-0.427,-0.244,-8.174,-40.853,-105.26,-22.093,-3.44,-4.093,24.38,0.54807,-0.31644,-0.15851,-0.75778,820,0.445,-0.292,0.832,0.122,0.366,-0.305,-19.38,-26.68,166.745,-10.933,-0.7,-29.84,30.5,0.14661,0.20816,-0.18854,0.94843,826,0.919,-0.163,0.323,0.061,-0.061,0.0,-26.312,-68.549,-135.341,-30.52,-6.113,-6.273,29.3,-0.18686,0.57849,0.03406,0.79318,816
205,0.974,-0.209,0.233,-0.122,-0.061,0.0,-41.803,-72.18,-148.634,-29.607,-6.133,-9.42,26.38,-0.00134,0.60742,-0.12915,0.78375,819,0.657,-0.108,0.752,0.0,-0.122,-0.061,-8.174,-40.853,-105.26,-22.093,-3.44,-4.093,24.38,0.54807,-0.31644,-0.15851,-0.75778,821,0.447,-0.295,0.835,0.366,0.366,-0.122,-19.369,-26.675,166.718,-10.933,-0.7,-29.84,30.5,0.14661,0.20816,-0.18854,0.94843,827,0.919,-0.163,0.323,0.183,0.0,0.0,-26.318,-68.549,-135.335,-30.52,-6.113,-6.273,29.3,-0.18686,0.57849,0.03406,0.79318,817
206,0.974,-0.208,0.233,0.0,-0.061,0.0,-41.803,-72.18,-148.629,-29.607,-6.133,-9.42,26.38,-0.00168,0.6077,-0.12881,0.78357,822,0.657,-0.109,0.753,0.0,0.0,0.061,-8.174,-40.853,-105.255,-22.093,-3.44,-4.093,24.38,0.54807,-0.31644,-0.15851,-0.75778,830,0.446,-0.296,0.837,0.183,0.061,0.0,-19.363,-26.669,166.701,-10.933,-0.7,-29.84,30.5,0.14661,0.20816,-0.18854,0.94843,828,0.919,-0.163,0.322,0.305,0.0,0.0,-26.312,-68.549,-135.335,-30.52,-6.113,-6.273,29.3,-0.18686,0.57849,0.03406,0.79318,824
207,0.974,-0.209,0.232,0.061,0.0,0.0,-41.803,-72.18,-148.629,-29.607,-6.133,-9.42,26.38,-0.00168,0.6077,-0.12881,0.78357,823,0.658,-0.108,0.754,0.0,-0.061,0.122,-8.174,-40.853,-105.26,-22.093,-3.44,-4.093,24.38,0.54807,-0.31644,-0.15851,-0.75778,831,0.447,-0.295,0.837,0.0,0.0,0.244,-19.363,-26.669,166.696,-10.933,-0.7,-29.84,30.5,0.14661,0.20816,-0.18854,0.94843,829,0.921,-0.162,0.324,0.305,0.0,0.0,-26.312,-68.549,-135.33,-30.52,-6.113,-6.273,29.3,-0.18686,0.57849,0.03406,0.79318,825
208,0.976,-0.209,0.234,0.061,0.0,0.0,-41.803,-72.18,-148.629,-29.607,-6.133,-9.42,26.38,-0.00168,0.6077,-0.12881,0.78357,832,0.658,-0.107,0.754,0.061,0.0,0.061,-8.174,-40.853,-105.26,-22.093,-3.44,-4.093,24.38,0.54807,-0.31644,-0.15851,-0.75778,836,0.446,-0.297,0.837,0.244,0.122,0.122,-19.363,-26.669,166.69,-10.933,-0.7,-29.84,30.5,0.14935,0.20697,-0.1889,0.94818,834,0.92,-0.162,0.325,0.305,0.061,0.0,-26.307,-68.549,-135.33,-30.433,-6.133,-6.64,29.3,-0.18686,0.57849,0.03406,0.79318,840
209,0.975,-0.208,0.235,0.122,0.0,0.0,-41.803,-72.18,-148.623,-29.607,-6.133,-9.42,26.38,-0.00168,0.6077,-0.12881,0.78357,833,0.658,-0.111,0.754,0.061,0.061,0.0,-8.174,-40.847,-105.255,-22.093,-3.44,-4.093,24.38,0.54807,-0.31644,-0.15851,-0.75778,837,0.446,-0.3,0.835,0.0,-0.061,0.183,-19.363,-26.669,166.668,-10.933,-0.7,-29.84,30.5,0.14935,0.20697,-0.1889,0.94818,835,0.919,-0.162,0.325,0.427,0.0,0.0,-26.307,-68.549,-135.33,-30.433,-6.133,-6.64,29.3,-0.18686,0.57849,0.03406,0.79318,841
210,0.974,-0.208,0.234,0.183,0.0,0.0,-41.797,-72.18,-148.623,-29.607,-6.133,-9.42,26.38,-0.00168,0.6077,-0.12881,0.78357,838,0.656,-0.107,0.751,0.0,0.183,-0.122,-8.168,-40.847,-105.255,-22.093,-3.44,-4.093,24.38,0.54807,-0.31644,-0.15851,-0.75778,844,0.445,-0.293,0.833,0.122,0.061,0.0,-19.369,-26.669,166.652,-10.933,-0.7,-29.84,30.5,0.14935,0.20697,-0.1889,0.94818,842,0.916,-0.161,0.323,0.183,0.366,0.0,-26.296,-68.544,-135.335,-30.433,-6.133,-6.64,29.3,-0.18726,0.57864,0.03445,0.793,848
211,0.971,-0.208,0.234,0.0,0.0,0.0,-41.797,-72.18,-148.623,-29.607,-6.133,-9.42,26.38,-0.00168,0.6077,-0.12881,0.78357,839,0.655,-0.103,0.754,-0.366,0.488,-0.122,-8.174,-40.836,-105.249,-22.093,-3.44,-4.093,24.38,0.54807,-0.31644,-0.15851,-0.75778,845,0.446,-0.291,0.84,-0.305,0.366,-0.305,-19.369,-26.669,166.641,-10.933,-0.7,-29.84,30.5,0.14935,0.20697,-0.1889,0.94818,843,0.918,-0.16,0.323,-0.122,0.244,0.0,-26.296,-68.538,-135.341,-30.433,-6.133,-6.64,29.3,-0.18726,0.57864,0.03445,0.793,849
212,0.972,-0.204,0.232,-0.183,0.183,0.0,-41.792,-72.18,-148.629,-29.607,-6.133,-9.42,26.38,-0.00168,0.6077,-0.12881,0.78357,846,0.657,-0.101,0.756,-0.427,0.244,0.0,-8.179,-40.831,-105.238,-22.673,-3.327,-4.04,24.38,0.54807,-0.31644,-0.15851,-0.75778,852,0.443,-0.287,0.842,0.122,0.488,-0.061,-19.369,-26.664,166.619,-10.933,-0.7,-29.84,30.5,0.14935,0.20697,-0.1889,0.94818,850,0.921,-0.16,0.327,-0.122,0.0,0.0,-26.296,-68.538,-135.341,-30.433,-6.133,-6.64,29.3,-0.18726,0.57864,0.03445,0.793,854
213,0.976,-0.207,0.235,-0.122,0.0,0.0,-41.792,-72.18,-148.629,-29.607,-6.133,-9.42,26.38,-0.00168,0.6077,-0.12881,0.78357,847,0.656,-0.105,0.758,-0.061,0.0,0.122,-8.179,-40.831,-105.233,-22.673,-3.327,-4.04,24.38,0.54807,-0.31644,-0.15851,-0.75778,853,0.442,-0.298,0.844,0.122,0.305,0.183,-19.363,-26.653,166.602,-10.933,-0.7,-29.84,30.5,0.14935,0.20697,-0.1889,0.94818,851,0.92,-0.162,0.327,0.0,-0.244,0.0,-26.301,-68.538,-135.335,-30.433,-6.133,-6.64,29.3,-0.18726,0.57864,0.03445,0.793,855
214,0.975,-0.207,0.235,-0.122,-0.061,0.0,-41.792,-72.18,-148.623,-29.607,-6.133,-9.42,26.38,-0.00168,0.6077,-0.12881,0.78357,858,0.658,-0.109,0.756,-0.244,-0.244,-0.061,-8.185,-40.831,-105.238,-22.673,-3.327,-4.04,24.38,0.54807,-0.31644,-0.15851,-0.75778,862,0.446,-0.302,0.843,-0.122,0.183,0.061,-19.363,-26.647,166.597,-10.933,-0.7,-29.84,30.5,0.14935,0.20697,-0.1889,0.94818,856,0.92,-0.163,0.324,0.183,-0.122,0.0,-26.307,-68.538,-135.33,-30.433,-6.133,-6.64,29.3,-0.18726,0.57864,0.03445,0.793,860
215,0.974,-0.209,0.232,0.061,0.0,0.0,-41.786,-72.18,-148.623,-29.607,-6.133,-9.42,26.38,-0.00168,0.6077,-0.12881,0.78357,859,0.658,-0.105,0.752,-0.122,-0.427,-0.122,-8.185,-40.836,-105.249,-22.673,-3.327,-4.04,24.38,0.54807,-0.31644,-0.15851,-0.75778,863,0.447,-0.295,0.84,-0.183,-0.183,0.0,-19.363,-26.642,166.586,-10.933,-0.7,-29.84,30.5,0.14935,0.20697,-0.1889,0.94818,857,0.92,-0.159,0.324,0.122,-0.305,0.0,-26.307,-68.544,-135.319,-30.433,-6.133,-6.64,29.3,-0.18726,0.57864,0.03445,0.793,861
216,0.974,-0.206,0.233,0.061,0.0,0.0,-41.786,-72.18,-148.618,-29.607,-6.133,-9.42,26.38,-0.00168,0.6077,-0.12881,0.78357,864,0.658,-0.104,0.752,-0.244,-0.366,-0.122,-8.185,-40.842,-105.266,-22.673,-3.327,-4.04,24.38,0.54764,-0.31711,-0.15805,-0.7579,868,0.447,-0.293,0.835,-0.122,-0.549,0.0,-19.369,-26.647,166.58,-10.933,-0.7,-29.84,30.5,0.14935,0.20697,-0.1889,0.94818,866,0.92,-0.158,0.322,0.0,-0.305,0.0,-26.312,-68.549,-135.313,-30.433,-6.133,-6.64,29.3,-0.18726,0.57864,0.03445,0.793,872
217,0.975,-0.205,0.232,-0.061,-0.061,0.0,-41.786,-72.18,-148.618,-29.607,-6.133,-9.42,26.38,-0.00168,0.6077,-0.12881,0.78357,865,0.658,-0.104,0.75,-0.366,-0.122,0.0,-8.19,-40.847,-105.282,-22.673,-3.327,-4.04,24.38,0.54764,-0.31711,-0.15805,-0.7579,869,0.448,-0.291,0.833,-0.244,-0.122,0.0,-19.374,-26.658,166.575,-10.933,-0.7,-29.84,30.5,0.14935,0.20697,-0.1889,0.94818,867,0.919,-0.159,0.323,0.0,-0.305,0.0,-26.323,-68.555,-135.302,-30.433,-6.133,-6.64,29.3,-0.18726,0.57864,0.03445,0.793,873
218,0.974,-0.206,0.232,-0.061,-0.122,0.0,-41.786,-72.186,-148.612,-29.607,-6.133,-9.42,26.38,-0.00168,0.6077,-0.12881,0.78357,870,0.658,-0.104,0.748,-0.122,0.183,0.061,-8.196,-40.847,-105.298,-22.673,-3.327,-4.04,24.38,0.54764,-0.31711,-0.15805,-0.7579,878,0.446,-0.29,0.83,-0.183,0.244,0.183,-19.38,-26.658,166.564,-10.933,-0.7,-29.84,30.5,0.14935,0.20697,-0.1889,0.94818,876,0.919,-0.16,0.322,0.122,-0.183,0.0,-26.329,-68.555,-135.297,-30.433,-6.133,-6.64,29.3,-0.18726,0.57864,0.03445,0.793,874
219,0.974,-0.208,0.233,0.0,-0.122,0.0,-41.792,-72.186,-148.601,-29.607,-6.133,-9.42,26.38,-0.00168,0.6077,-0.12881,0.78357,871,0.655,-0.109,0.753,0.0,0.122,0.0,-8.196,-40.847,-105.315,-22.673,-3.327,-4.04,24.38,0.54764,-0.31711,-0.15805,-0.7579,879,0.447,-0.297,0.833,0.244,0.732,0.0,-19.38,-26.647,166.547,-10.933,-0.7,-29.84,30.5,0.14935,0.20697,-0.1889,0.94818,877,0.918,-0.16,0.321,0.061,0.0,0.0,-26.329,-68.56,-135.291,-30.433,-6.133,-6.64,29.3,-0.18726,0.57864,0.03445,0.793,875
220,0.972,-0.207,0.233,0.0,-0.061,0.0,-41.792,-72.191,-148.601,-29.68,-6.547,-9.673,26.38,-0.00168,0.6077,-0.12881,0.78357,880,0.657,-0.106,0.758,-0.061,-0.244,0.122,-8.19,-40.847,-105.32,-22.673,-3.327,-4.04,24.38,0.54764,-0.31711,-0.15805,-0.7579,886,0.442,-0.294,0.844,0.488,0.122,0.0,-19.374,-26.642,166.52,-10.933,-0.7,-29.84,30.5,0.14935,0.20697,-0.1889,0.94818,884,0.919,-0.161,0.322,0.0,0.061,0.0,-26.323,-68.555,-135.291,-30.433,-6.133,-6.64,29.3,-0.18726,0.57864,0.03445,0.793,882
221,0.974,-0.208,0.233,0.0,0.061,0.0,-41.786,-72.191,-148.601,-29.68,-6.547,-9.673,26.38,-0.00168,0.6077,-0.12881,0.78357,881,0.658,-0.109,0.755,0.061,-0.122,0.0,-8.196,-40.847,-105.315,-22.673,-3.327,-4.04,24.38,0.54764,-0.31711,-0.15805,-0.7579,887,0.446,-0.295,0.838,0.366,0.183,0.244,-19.363,-26.636,166.514,-10.933,-0.7,-29.84,30.5,0.14935,0.20697,-0.1889,0.94818,885,0.921,-0.162,0.326,0.122,0.0,0.0,-26.323,-68.555,-135.291,-30.433,-6.133,-6.64,29.3,-0.18726,0.57864,0.03445,0.793,883
222,0.976,-0.208,0.235,0.061,0.0,0.0,-41.781,-72.191,-148.601,-29.68,-6.547,-9.673,26.38,-0.00168,0.6077,-0.12881,0.78357,888,0.657,-0.109,0.754,-0.122,0.0,-0.183,-8.19,-40.847,-105.309,-22.673,-3.327,-4.04,24.38,0.54764,-0.31711,-0.15805,-0.7579,894,0.446,-0.299,0.835,0.427,0.61,0.0,-19.358,-26.631,166.525,-11.473,-1.173,-30.167,30.5,0.14935,0.20697,-0.1889,0.94818,892,0.92,-0.16,0.326,0.183,0.0,0.0,-26.323,-68.555,-135.286,-30.433,-6.133,-6.64,29.3,-0.18726,0.57864,0.03445,0.793,890
223,0.975,-0.207,0.234,0.061,-0.122,0.0,-41.786,-72.191,-148.59,-29.68,-6.547,-9.673,26.38,-0.00168,0.6077,-0.12881,0.78357,889,0.656,-0.104,0.753,-0.061,0.0,-0.244,-8.19,-40.847,-105.315,-22.673,-3.327,-4.04,24.38,0.54764,-0.31711,-0.15805,-0.7579,895,0.445,-0.294,0.838,0.427,0.977,-0.183,-19.347,-26.62,166.547,-11.473,-1.173,-30.167,30.5,0.14935,0.20697,-0.1889,0.94818,893,0.919,-0.159,0.325,0.244,0.0,0.0,-26.318,-68.555,-135.286,-30.433,-6.133,-6.64,29.3,-0.18726,0.57864,0.03445,0.793,891
224,0.973,-0.205,0.234,0.0,-0.122,0.0,-41.786,-72.191,-148.585,-29.68,-6.547,-9.673,26.38,-0.00201,0.60782,-0.12845,0.78354,896,0.656,-0.106,0.753,0.0,0.0,0.0,-8.185,-40.847,-105.315,-22.673,-3.327,-4.04,24.38,0.54764,-0.31711,-0.15805,-0.7579,902,0.444,-0.291,0.838,0.549,0.732,-0.244,-19.336,-26.603,166.558,-11.473,-1.173,-30.167,30.5,0.14935,0.20697,-0.1889,0.94818,900,0.919,-0.162,0.323,0.122,0.061,0.0,-26.312,-68.555,-135.286,-30.433,-6.133,-6.64,29.3,-0.18726,0.57864,0.03445,0.793,898
225,0.974,-0.208,0.234,0.0,0.0,0.0,-41.786,-72.191,-148.585,-29.68,-6.547,-9.673,26.38,-0.00201,0.60782,-0.12845,0.78354,897,0.656,-0.108,0.755,0.0,0.061,0.122,-8.185,-40.847,-105.315,-22.673,-3.327,-4.04,24.38,0.54764,-0.31711,-0.15805,-0.7579,903,0.443,-0.293,0.839,0.549,0.427,0.183,-19.319,-26.592,166.564,-11.473,-1.173,-30.167,30.5,0.14935,0.20697,-0.1889,0.94818,901,0.919,-0.162,0.324,0.0,0.061,0.0,-26.312,-68.555,-135.286,-30.433,-6.133,-6.64,29.3,-0.18726,0.57864,0.03445,0.793,899
226,0.974,-0.208,0.234,0.0,0.0,0.0,-41.781,-72.191,-148.585,-29.68,-6.547,-9.673,26.38,-0.00201,0.60782,-0.12845,0.78354,904,0.657,-0.107,0.755,-0.122,0.0,0.0,-8.185,-40.847,-105.309,-22.673,-3.327,-4.04,24.38,0.54764,-0.31711,-0.15805,-0.7579,910,0.443,-0.296,0.842,0.366,0.305,0.183,-19.308,-26.587,166.575,-11.473,-1.173,-30.167,30.5,0.15048,0.20605,-0.18869,0.94824,908,0.92,-0.161,0.323,0.0,0.061,0.0,-26.312,-68.555,-135.286,-30.433,-6.133,-6.64,29.3,-0.18726,0.57864,0.03445,0.793,906
227,0.975,-0.208,0.231,-0.061,0.061,0.0,-41.776,-72.191,-148.585,-29.68,-6.547,-9.673,26.38,-0.00201,0.60782,-0.12845,0.78354,905,0.659,-0.106,0.755,-0.122,-0.183,0.061,-8.185,-40.847,-105.309,-22.673,-3.327,-4.04,24.38,0.54764,-0.31711,-0.15805,-0.7579,911,0.445,-0.294,0.842,0.305,0.183,0.0,-19.303,-26.581,166.586,-11.473,-1.173,-30.167,30.5,0.15048,0.20605,-0.18869,0.94824,909,0.92,-0.161,0.322,0.122,0.061,0.0,-26.312,-68.549,-135.286,-30.433,-6.133,-6.64,29.3,-0.18726,0.57864,0.03445,0.793,907
228,0.974,-0.208,0.232,0.0,0.0,0.0,-41.776,-72.191,-148.585,-29.68,-6.547,-9.673,26.38,-0.00201,0.60782,-0.12845,0.78354,912,0.659,-0.106,0.753,0.0,0.0,0.0,-8.19,-40.847,-105.309,-22.673,-3.327,-4.04,24.38,0.54764,-0.31711,-0.15805,-0.7579,918,0.446,-0.292,0.84,0.183,-0.183,0.061,-19.297,-26.576,166.575,-11.473,-1.173,-30.167,30.5,0.15048,0.20605,-0.18869,0.94824,916,0.921,-0.161,0.323,0.122,0.0,0.0,-26.307,-68.549,-135.286,-30.2,-6.38,-6.087,29.3,-0.18726,0.57864,0.03445,0.793,914
229,0.975,-0.208,0.232,0.0,0.0,0.0,-41.776,-72.191,-148.585,-29.68,-6.547,-9.673,26.38,-0.00201,0.60782,-0.12845,0.78354,913,0.658,-0.107,0.752,0.366,0.122,0.427,-8.185,-40.847,-105.304,-22.673,-3.327,-4.04,24.38,0.54764,-0.31711,-0.15805,-0.7579,919,0.446,-0.291,0.838,0.305,-0.427,0.244,-19.297,-26.581,166.575,-11.473,-1.173,-30.167,30.5,0.15048,0.20605,-0.18869,0.94824,917,0.92,-0.161,0.321,0.122,0.0,0.0,-26.307,-68.549,-135.286,-30.2,-6.38,-6.087,29.3,-0.18726,0.57864,0.03445,0.793,915
230,0.975,-0.208,0.232,0.0,0.0,0.0,-41.776,-72.197,-148.579,-29.68,-6.547,-9.673,26.38,-0.00201,0.60782,-0.12845,0.78354,920,0.657,-0.107,0.754,0.427,0.061,0.427,-8.185,-40.842,-105.293,-22.653,-3.667,-3.613,24.38,0.54764,-0.31711,-0.15805,-0.7579,926,0.445,-0.294,0.839,0.305,-0.732,0.671,-19.297,-26.587,166.575,-11.473,-1.173,-30.167,30.5,0.15048,0.20605,-0.18869,0.94824,924,0.92,-0.163,0.322,0.305,0.0,0.0,-26.307,-68.555,-135.28,-30.2,-6.38,-6.087,29.3,-0.18726,0.57864,0.03445,0.793,922
231,0.974,-0.208,0.231,0.122,0.061,0.0,-41.77,-72.197,-148.585,-29.68,-6.547,-9.673,26.38,-0.00201,0.60782,-0.12845,0.78354,921,0.654,-0.106,0.755,0.305,-0.061,0.183,-8.179,-40.842,-105.287,-22.653,-3.667,-3.613,24.38,0.54764,-0.31711,-0.15805,-0.7579,927,0.444,-0.296,0.839,0.244,-0.916,0.427,-19.297,-26.598,166.575,-11.473,-1.173,-30.167,30.5,0.15048,0.20605,-0.18869,0.94824,925,0.92,-0.16,0.323,0.305,0.0,0.0,-26.301,-68.555,-135.28,-30.2,-6.38,-6.087,29.3,-0.18726,0.57864,0.03445,0.793,923
232,0.974,-0.206,0.233,0.183,0.061,0.0,-41.765,-72.191,-148.585,-29.68,-6.547,-9.673,26.38,-0.00201,0.60782,-0.12845,0.78354,928,0.656,-0.104,0.758,-0.183,-0.122,0.183,-8.179,-40.842,-105.287,-22.653,-3.667,-3.613,24.38,0.54764,-0.31711,-0.15805,-0.7579,934,0.442,-0.293,0.841,-0.061,-0.732,0.244,-19.303,-26.614,166.575,-11.473,-1.173,-30.167,30.5,0.15048,0.20605,-0.18869,0.94824,932,0.918,-0.159,0.325,0.366,0.0,0.0,-26.296,-68.555,-135.28,-30.2,-6.38,-6.087,29.3,-0.18756,0.57867,0.03473,0.79285,930
233,0.973,-0.206,0.234,0.122,0.0,0.0,-41.759,-72.197,-148.585,-29.68,-6.547,-9.673,26.38,-0.00201,0.60782,-0.12845,0.78354,929,0.657,-0.105,0.756,-0.427,-0.122,0.366,-8.185,-40.842,-105.282,-22.653,-3.667,-3.613,24.38,0.54764,-0.31711,-0.15805,-0.7579,935,0.446,-0.292,0.842,-0.366,-0.671,0.061,-19.308,-26.625,166.591,-11.473,-1.173,-30.167,30.5,0.15048,0.20605,-0.18869,0.94824,933,0.919,-0.16,0.326,0.183,-0.061,0.0,-26.296,-68.555,-135.275,-30.2,-6.38,-6.087,29.3,-0.18756,0.57867,0.03473,0.79285,931
234,0.974,-0.208,0.235,0.0,-0.061,0.305,-41.776,-72.191,-148.563,-29.68,-6.547,-9.673,26.38,-0.00201,0.60782,-0.12845,0.78354,936,0.655,-0.105,0.753,-0.366,-0.061,0.732,-8.201,-40.842,-105.276,-22.653,-3.667,-3.613,24.38,0.54736,-0.3172,-0.15799,-0.75809,940,0.448,-0.291,0.838,-0.61,-0.427,0.183,-19.319,-26.636,166.613,-11.473,-1.173,-30.167,30.5,0.15048,0.20605,-0.18869,0.94824,938,0.919,-0.163,0.326,0.0,-0.122,0.0,-26.296,-68.555,-135.275,-30.2,-6.38,-6.087,29.3,-0.18756,0.57867,0.03473,0.79285,944
235,0.974,-0.208,0.235,0.0,-0.061,0.244,-41.786,-72.191,-148.546,-29.68,-6.547,-9.673,26.38,-0.00201,0.60782,-0.12845,0.78354,937,0.658,-0.106,0.751,0.122,-0.061,0.854,-8.218,-40.836,-105.266,-22.653,-3.667,-3.613,24.38,0.54736,-0.3172,-0.15799,-0.75809,941,0.446,-0.288,0.837,-0.916,-0.671,0.793,-19.341,-26.642,166.652,-11.473,-1.173,-30.167,30.5,0.15048,0.20605,-0.18869,0.94824,939,0.919,-0.164,0.325,0.0,-0.122,0.0,-26.301,-68.555,-135.269,-30.2,-6.38,-6.087,29.3,-0.18756,0.57867,0.03473,0.79285,945
