Index,L5_Acceleration X(g),L5_Acceleration Y(g),L5_Acceleration Z(g),L5_Angular velocity X(°/s),L5_Angular velocity Y(°/s),L5_Angular velocity Z(°/s),L5_Angle X(°),L5_Angle Y(°),L5_Angle Z(°),L5_Magnetic field X(ʯt),L5_Magnetic field Y(ʯt),L5_Magnetic field Z(ʯt),L5_Temperature(℃),L5_Quaternions 0(),L5_Quaternions 1(),L5_Quaternions 2(),L5_Quaternions 3(),L5___orig_idx,T4_Acceleration X(g),T4_Acceleration Y(g),T4_Acceleration Z(g),T4_Angular velocity X(°/s),T4_Angular velocity Y(°/s),T4_Angular velocity Z(°/s),T4_Angle X(°),T4_Angle Y(°),T4_Angle Z(°),T4_Magnetic field X(ʯt),T4_Magnetic field Y(ʯt),T4_Magnetic field Z(ʯt),T4_Temperature(℃),T4_Quaternions 0(),T4_Quaternions 1(),T4_Quaternions 2(),T4_Quaternions 3(),T4___orig_idx,C7_Acceleration X(g),C7_Acceleration Y(g),C7_Acceleration Z(g),C7_Angular velocity X(°/s),C7_Angular velocity Y(°/s),C7_Angular velocity Z(°/s),C7_Angle X(°),C7_Angle Y(°),C7_Angle Z(°),C7_Magnetic field X(ʯt),C7_Magnetic field Y(ʯt),C7_Magnetic field Z(ʯt),C7_Temperature(℃),C7_Quaternions 0(),C7_Quaternions 1(),C7_Quaternions 2(),C7_Quaternions 3(),C7___orig_idx,T12_Acceleration X(g),T12_Acceleration Y(g),T12_Acceleration Z(g),T12_Angular velocity X(°/s),T12_Angular velocity Y(°/s),T12_Angular velocity Z(°/s),T12_Angle X(°),T12_Angle Y(°),T12_Angle Z(°),T12_Magnetic field X(ʯt),T12_Magnetic field Y(ʯt),T12_Magnetic field Z(ʯt),T12_Temperature(℃),T12_Quaternions 0(),T12_Quaternions 1(),T12_Quaternions 2(),T12_Quaternions 3(),T12___orig_idx
0,0.938,-0.177,0.371,-0.183,0.183,0.0,-25.389,-66.385,-173.491,-25.193,-6.073,-13.74,28.54,0.07504,0.54343,-0.15393,0.82175,0,0.521,-0.295,0.81,-0.427,-0.061,0.0,-20.039,-31.256,-105.837,-18.773,-1.76,-7.927,25.28,-0.53445,0.31265,0.0264,0.78473,6,0.217,-0.375,0.897,-0.854,-0.061,-0.183,-22.549,-12.761,-178.385,-7.607,-1.073,-34.067,29.3,-0.00873,-0.11288,0.19336,-0.97452,12,0.926,-0.173,0.302,-0.183,-0.061,0.0,-29.729,-69.631,-140.043,-29.0,-6.36,-6.947,29.82,0.13297,-0.59061,0.00943,-0.79581,24
1,0.937,-0.177,0.372,-0.244,0.0,0.0,-25.395,-66.385,-173.485,-25.193,-6.073,-13.74,28.54,0.07504,0.54343,-0.15393,0.82175,1,0.521,-0.296,0.809,-0.366,0.0,0.0,-20.045,-31.256,-105.853,-18.773,-1.76,-7.927,25.28,-0.53445,0.31265,0.0264,0.78473,7,0.218,-0.375,0.894,-0.366,0.122,0.0,-22.56,-12.755,-178.385,-7.607,-1.073,-34.067,29.3,-0.00873,-0.11288,0.19336,-0.97452,13,0.924,-0.175,0.301,0.122,0.244,0.0,-29.734,-69.631,-140.026,-29.0,-6.36,-6.947,29.82,0.13297,-0.59061,0.00943,-0.79581,25
2,0.938,-0.176,0.372,-0.122,-0.244,0.305,-25.417,-66.385,-173.469,-25.193,-6.073,-13.74,28.54,0.07504,0.54343,-0.15393,0.82175,2,0.521,-0.297,0.806,-0.061,0.122,0.0,-20.05,-31.256,-105.881,-18.773,-1.76,-7.927,25.28,-0.53445,0.31265,0.0264,0.78473,8,0.217,-0.377,0.895,-0.305,0.244,0.061,-22.566,-12.75,-178.385,-7.607,-1.073,-34.067,29.3,-0.00873,-0.11288,0.19336,-0.97452,14,0.926,-0.176,0.301,0.0,0.122,0.0,-29.729,-69.62,-140.026,-29.0,-6.36,-6.947,29.82,0.13297,-0.59061,0.00943,-0.79581,26
3,0.937,-0.177,0.372,-0.244,0.0,0.0,-25.395,-66.385,-173.485,-25.193,-6.073,-13.74,28.54,0.07504,0.54343,-0.15393,0.82175,3,0.521,-0.296,0.809,-0.366,0.0,0.0,-20.045,-31.256,-105.853,-18.773,-1.76,-7.927,25.28,-0.53445,0.31265,0.0264,0.78473,9,0.218,-0.375,0.894,-0.366,0.122,0.0,-22.56,-12.755,-178.385,-7.607,-1.073,-34.067,29.3,-0.00873,-0.11288,0.19336,-0.97452,15,0.924,-0.175,0.301,0.122,0.244,0.0,-29.734,-69.631,-140.026,-29.0,-6.36,-6.947,29.82,0.13297,-0.59061,0.00943,-0.79581,27
4,0.938,-0.176,0.372,-0.122,-0.244,0.305,-25.417,-66.385,-173.469,-25.193,-6.073,-13.74,28.54,0.07504,0.54343,-0.15393,0.82175,4,0.521,-0.297,0.806,-0.061,0.122,0.0,-20.05,-31.256,-105.881,-18.773,-1.76,-7.927,25.28,-0.53445,0.31265,0.0264,0.78473,10,0.217,-0.377,0.895,-0.305,0.244,0.061,-22.566,-12.75,-178.385,-7.607,-1.073,-34.067,29.3,-0.00873,-0.11288,0.19336,-0.97452,16,0.926,-0.176,0.301,0.0,0.122,0.0,-29.729,-69.62,-140.026,-29.0,-6.36,-6.947,29.82,0.13297,-0.59061,0.00943,-0.79581,28
5,0.937,-0.177,0.372,-0.244,0.0,0.0,-25.395,-66.385,-173.485,-25.193,-6.073,-13.74,28.54,0.07504,0.54343,-0.15393,0.82175,5,0.521,-0.296,0.809,-0.366,0.0,0.0,-20.045,-31.256,-105.853,-18.773,-1.76,-7.927,25.28,-0.53445,0.31265,0.0264,0.78473,11,0.218,-0.375,0.894,-0.366,0.122,0.0,-22.56,-12.755,-178.385,-7.607,-1.073,-34.067,29.3,-0.00873,-0.11288,0.19336,-0.97452,17,0.924,-0.175,0.301,0.122,0.244,0.0,-29.734,-69.631,-140.026,-29.0,-6.36,-6.947,29.82,0.13297,-0.59061,0.00943,-0.79581,29
6,0.935,-0.176,0.372,-0.122,-0.244,0.305,-25.417,-66.385,-173.469,-25.193,-6.073,-13.74,28.54,0.07504,0.54343,-0.15393,0.82175,30,0.52,-0.297,0.806,-0.061,0.122,0.0,-20.05,-31.256,-105.881,-18.773,-1.76,-7.927,25.28,-0.53445,0.31265,0.0264,0.78473,18,0.217,-0.377,0.895,-0.305,0.244,0.061,-22.566,-12.75,-178.385,-7.607,-1.073,-34.067,29.3,-0.00873,-0.11288,0.19336,-0.97452,36,0.923,-0.176,0.301,0.0,0.122,0.0,-29.729,-69.62,-140.026,-29.0,-6.36,-6.947,29.82,0.13297,-0.59061,0.00943,-0.79581,42
7,0.935,-0.177,0.37,0.122,-0.244,0.244,-25.428,-66.385,-173.463,-25.193,-6.073,-13.74,28.54,0.07504,0.54343,-0.15393,0.82175,31,0.519,-0.297,0.807,0.061,0.122,0.0,-20.05,-31.251,-105.903,-18.773,-1.76,-7.927,25.28,-0.53445,0.31265,0.0264,0.78473,19,0.216,-0.377,0.894,-0.244,0.122,-0.061,-22.571,-12.744,-178.401,-7.607,-1.073,-34.067,29.3,-0.00873,-0.11288,0.19336,-0.97452,37,0.923,-0.176,0.302,-0.061,0.0,0.305,-29.74,-69.615,-140.004,-29.0,-6.36,-6.947,29.82,0.13297,-0.59061,0.00943,-0.79581,43
8,0.935,-0.178,0.371,0.183,0.0,0.244,-25.439,-66.379,-173.441,-25.193,-6.073,-13.74,28.54,0.07504,0.54343,-0.15393,0.82175,32,0.52,-0.296,0.807,0.0,0.244,0.0,-20.05,-31.245,-105.925,-18.773,-1.76,-7.927,25.28,-0.53445,0.31265,0.0264,0.78473,20,0.217,-0.375,0.894,-0.061,0.305,0.0,-22.577,-12.739,-178.407,-7.607,-1.073,-34.067,29.3,-0.00873,-0.11288,0.19336,-0.97452,38,0.923,-0.176,0.301,-0.122,0.0,0.244,-29.762,-69.609,-139.977,-29.0,-6.36,-6.947,29.82,0.13297,-0.59061,0.00943,-0.79581,44
9,0.935,-0.177,0.37,0.122,-0.244,0.244,-25.428,-66.385,-173.463,-25.193,-6.073,-13.74,28.54,0.07504,0.54343,-0.15393,0.82175,33,0.519,-0.297,0.807,0.061,0.122,0.0,-20.05,-31.251,-105.903,-18.773,-1.76,-7.927,25.28,-0.53445,0.31265,0.0264,0.78473,21,0.216,-0.377,0.894,-0.244,0.122,-0.061,-22.571,-12.744,-178.401,-7.607,-1.073,-34.067,29.3,-0.00873,-0.11288,0.19336,-0.97452,39,0.923,-0.176,0.302,-0.061,0.0,0.305,-29.74,-69.615,-140.004,-29.0,-6.36,-6.947,29.82,0.13297,-0.59061,0.00943,-0.79581,45
10,0.935,-0.178,0.371,0.183,0.0,0.244,-25.439,-66.379,-173.441,-25.193,-6.073,-13.74,28.54,0.07504,0.54343,-0.15393,0.82175,34,0.52,-0.296,0.807,0.0,0.244,0.0,-20.05,-31.245,-105.925,-18.773,-1.76,-7.927,25.28,-0.53445,0.31265,0.0264,0.78473,22,0.217,-0.375,0.894,-0.061,0.305,0.0,-22.577,-12.739,-178.407,-7.607,-1.073,-34.067,29.3,-0.00873,-0.11288,0.19336,-0.97452,40,0.923,-0.176,0.301,-0.122,0.0,0.244,-29.762,-69.609,-139.977,-29.0,-6.36,-6.947,29.82,0.13297,-0.59061,0.00943,-0.79581,46
11,0.935,-0.177,0.37,0.122,-0.244,0.244,-25.428,-66.385,-173.463,-25.193,-6.073,-13.74,28.54,0.07504,0.54343,-0.15393,0.82175,35,0.519,-0.297,0.807,0.061,0.122,0.0,-20.05,-31.251,-105.903,-18.773,-1.76,-7.927,25.28,-0.53445,0.31265,0.0264,0.78473,23,0.216,-0.377,0.894,-0.244,0.122,-0.061,-22.571,-12.744,-178.401,-7.607,-1.073,-34.067,29.3,-0.00873,-0.11288,0.19336,-0.97452,41,0.923,-0.176,0.302,-0.061,0.0,0.305,-29.74,-69.615,-140.004,-29.0,-6.36,-6.947,29.82,0.13297,-0.59061,0.00943,-0.79581,47
12,0.935,-0.178,0.371,0.183,0.0,0.244,-25.439,-66.379,-173.441,-25.193,-6.073,-13.74,28.54,0.07504,0.54343,-0.15393,0.82175,48,0.518,-0.296,0.807,0.0,0.244,0.0,-20.05,-31.245,-105.925,-18.773,-1.76,-7.927,25.28,-0.53445,0.31265,0.0264,0.78473,54,0.216,-0.375,0.894,-0.061,0.305,0.0,-22.577,-12.739,-178.407,-7.38,-0.393,-35.067,29.3,-0.00873,-0.11288,0.19336,-0.97452,78,0.924,-0.176,0.301,-0.122,0.0,0.244,-29.762,-69.609,-139.977,-29.0,-6.36,-6.947,29.82,0.13297,-0.59061,0.00943,-0.79581,60
13,0.935,-0.179,0.372,0.061,0.0,0.305,-25.45,-66.379,-173.414,-25.193,-6.073,-13.74,28.54,0.07504,0.54343,-0.15393,0.82175,49,0.52,-0.298,0.807,0.0,0.305,0.0,-20.05,-31.24,-105.952,-18.773,-1.76,-7.927,25.28,-0.53445,0.31265,0.0264,0.78473,55,0.216,-0.377,0.896,0.061,0.549,0.366,-22.577,-12.722,-178.401,-7.38,-0.393,-35.067,29.3,-0.00873,-0.11288,0.19336,-0.97452,79,0.925,-0.175,0.299,-0.061,0.122,0.244,-29.778,-69.604,-139.955,-29.0,-6.36,-6.947,29.82,0.13297,-0.59061,0.00943,-0.79581,61
14,0.935,-0.177,0.371,0.0,0.183,0.244,-25.455,-66.368,-173.364,-25.193,-6.073,-13.74,28.54,0.07504,0.54343,-0.15393,0.82175,50,0.518,-0.298,0.808,0.183,0.183,0.305,-20.05,-31.234,-105.958,-18.773,-1.76,-7.927,25.28,-0.53445,0.31265,0.0264,0.78473,56,0.216,-0.379,0.898,0.122,0.549,0.427,-22.577,-12.706,-178.391,-7.38,-0.393,-35.067,29.3,-0.00873,-0.11288,0.19336,-0.97452,80,0.924,-0.174,0.301,-0.244,0.183,0.244,-29.795,-69.598,-139.922,-29.0,-6.36,-6.947,29.82,0.13297,-0.59061,0.00943,-0.79581,62
15,0.935,-0.179,0.372,0.061,0.0,0.305,-25.45,-66.379,-173.414,-25.193,-6.073,-13.74,28.54,0.07504,0.54343,-0.15393,0.82175,51,0.52,-0.298,0.807,0.0,0.305,0.0,-20.05,-31.24,-105.952,-18.773,-1.76,-7.927,25.28,-0.53445,0.31265,0.0264,0.78473,57,0.216,-0.377,0.896,0.061,0.549,0.366,-22.577,-12.722,-178.401,-7.38,-0.393,-35.067,29.3,-0.00873,-0.11288,0.19336,-0.97452,81,0.925,-0.175,0.299,-0.061,0.122,0.244,-29.778,-69.604,-139.955,-29.0,-6.36,-6.947,29.82,0.13297,-0.59061,0.00943,-0.79581,63
16,0.935,-0.177,0.371,0.0,0.183,0.244,-25.455,-66.368,-173.364,-25.193,-6.073,-13.74,28.54,0.07504,0.54343,-0.15393,0.82175,52,0.518,-0.298,0.808,0.183,0.183,0.305,-20.05,-31.234,-105.958,-18.773,-1.76,-7.927,25.28,-0.53445,0.31265,0.0264,0.78473,58,0.216,-0.379,0.898,0.122,0.549,0.427,-22.577,-12.706,-178.391,-7.38,-0.393,-35.067,29.3,-0.00873,-0.11288,0.19336,-0.97452,82,0.924,-0.174,0.301,-0.244,0.183,0.244,-29.795,-69.598,-139.922,-29.0,-6.36,-6.947,29.82,0.13297,-0.59061,0.00943,-0.79581,64
17,0.935,-0.179,0.372,0.061,0.0,0.305,-25.45,-66.379,-173.414,-25.193,-6.073,-13.74,28.54,0.07504,0.54343,-0.15393,0.82175,53,0.52,-0.298,0.807,0.0,0.305,0.0,-20.05,-31.24,-105.952,-18.773,-1.76,-7.927,25.28,-0.53445,0.31265,0.0264,0.78473,59,0.216,-0.377,0.896,0.061,0.549,0.366,-22.577,-12.722,-178.401,-7.38,-0.393,-35.067,29.3,-0.00873,-0.11288,0.19336,-0.97452,83,0.925,-0.175,0.299,-0.061,0.122,0.244,-29.778,-69.604,-139.955,-29.0,-6.36,-6.947,29.82,0.13297,-0.59061,0.00943,-0.79581,65
18,0.936,-0.177,0.371,0.0,0.183,0.244,-25.455,-66.368,-173.364,-24.88,-6.687,-12.88,28.54,0.07504,0.54343,-0.15393,0.82175,66,0.519,-0.298,0.808,0.183,0.183,0.305,-20.05,-31.234,-105.958,-18.773,-1.76,-7.927,25.28,-0.53445,0.31265,0.0264,0.78473,72,0.214,-0.379,0.898,0.122,0.549,0.427,-22.577,-12.706,-178.391,-7.38,-0.393,-35.067,29.3,-0.00873,-0.11288,0.19336,-0.97452,102,0.924,-0.174,0.301,-0.244,0.183,0.244,-29.795,-69.598,-139.922,-29.0,-6.36,-6.947,29.82,0.13297,-0.59061,0.00943,-0.79581,90
19,0.936,-0.176,0.37,0.0,0.305,0.183,-25.461,-66.363,-173.309,-24.88,-6.687,-12.88,28.54,0.07504,0.54343,-0.15393,0.82175,67,0.519,-0.298,0.809,0.305,0.0,0.244,-20.05,-31.229,-105.947,-18.773,-1.76,-7.927,25.28,-0.53445,0.31265,0.0264,0.78473,73,0.214,-0.379,0.898,0.0,0.122,0.122,-22.582,-12.706,-178.391,-7.38,-0.393,-35.067,29.3,-0.00873,-0.11288,0.19336,-0.97452,103,0.923,-0.175,0.3,-0.488,0.061,0.244,-29.817,-69.587,-139.9,-29.0,-6.36,-6.947,29.82,0.13297,-0.59061,0.00943,-0.79581,91
20,0.936,-0.176,0.369,-0.244,0.183,0.122,-25.466,-66.357,-173.249,-24.88,-6.687,-12.88,28.54,0.07504,0.54343,-0.15393,0.82175,68,0.519,-0.297,0.809,0.183,0.0,0.061,-20.05,-31.223,-105.947,-18.773,-1.76,-7.927,25.28,-0.53445,0.31265,0.0264,0.78473,74,0.214,-0.377,0.897,-0.183,-0.061,-0.183,-22.588,-12.706,-178.38,-7.38,-0.393,-35.067,29.3,-0.00873,-0.11288,0.19336,-0.97452,104,0.924,-0.175,0.3,-0.488,0.0,0.122,-29.839,-69.582,-139.883,-29.0,-6.36,-6.947,29.82,0.13297,-0.59061,0.00943,-0.79581,92
21,0.936,-0.176,0.37,0.0,0.305,0.183,-25.461,-66.363,-173.309,-24.88,-6.687,-12.88,28.54,0.07504,0.54343,-0.15393,0.82175,69,0.519,-0.298,0.809,0.305,0.0,0.244,-20.05,-31.229,-105.947,-18.773,-1.76,-7.927,25.28,-0.53445,0.31265,0.0264,0.78473,75,0.214,-0.379,0.898,0.0,0.122,0.122,-22.582,-12.706,-178.391,-7.38,-0.393,-35.067,29.3,-0.00873,-0.11288,0.19336,-0.97452,105,0.923,-0.175,0.3,-0.488,0.061,0.244,-29.817,-69.587,-139.9,-29.0,-6.36,-6.947,29.82,0.13297,-0.59061,0.00943,-0.79581,93
22,0.936,-0.176,0.369,-0.244,0.183,0.122,-25.466,-66.357,-173.249,-24.88,-6.687,-12.88,28.54,0.07504,0.54343,-0.15393,0.82175,70,0.519,-0.297,0.809,0.183,0.0,0.061,-20.05,-31.223,-105.947,-18.773,-1.76,-7.927,25.28,-0.53445,0.31265,0.0264,0.78473,76,0.214,-0.377,0.897,-0.183,-0.061,-0.183,-22.588,-12.706,-178.38,-7.38,-0.393,-35.067,29.3,-0.00873,-0.11288,0.19336,-0.97452,106,0.924,-0.175,0.3,-0.488,0.0,0.122,-29.839,-69.582,-139.883,-29.0,-6.36,-6.947,29.82,0.13297,-0.59061,0.00943,-0.79581,94
23,0.936,-0.176,0.37,0.0,0.305,0.183,-25.461,-66.363,-173.309,-24.88,-6.687,-12.88,28.54,0.07504,0.54343,-0.15393,0.82175,71,0.519,-0.298,0.809,0.305,0.0,0.244,-20.05,-31.229,-105.947,-18.773,-1.76,-7.927,25.28,-0.53445,0.31265,0.0264,0.78473,77,0.214,-0.379,0.898,0.0,0.122,0.122,-22.582,-12.706,-178.391,-7.38,-0.393,-35.067,29.3,-0.00873,-0.11288,0.19336,-0.97452,107,0.923,-0.175,0.3,-0.488,0.061,0.244,-29.817,-69.587,-139.9,-29.0,-6.36,-6.947,29.82,0.13297,-0.59061,0.00943,-0.79581,95
24,0.935,-0.176,0.369,-0.244,0.183,0.122,-25.466,-66.357,-173.249,-24.88,-6.687,-12.88,28.54,0.07504,0.54343,-0.15393,0.82175,96,0.518,-0.297,0.809,0.183,0.0,0.061,-20.05,-31.223,-105.947,-18.773,-1.76,-7.927,25.28,-0.53445,0.31265,0.0264,0.78473,84,0.213,-0.377,0.897,-0.183,-0.061,-0.183,-22.588,-12.706,-178.38,-7.38,-0.393,-35.067,29.3,-0.00797,-0.11121,0.19305,-0.97479,126,0.924,-0.175,0.3,-0.488,0.0,0.122,-29.839,-69.582,-139.883,-29.0,-6.36,-6.947,29.82,0.13297,-0.59061,0.00943,-0.79581,108
25,0.935,-0.178,0.369,-0.366,0.0,0.061,-25.477,-66.357,-173.199,-24.88,-6.687,-12.88,28.54,0.07504,0.54343,-0.15393,0.82175,97,0.518,-0.297,0.81,0.061,0.0,0.0,-20.045,-31.223,-105.958,-18.773,-1.76,-7.927,25.28,-0.53445,0.31265,0.0264,0.78473,85,0.213,-0.376,0.897,-0.122,-0.183,-0.122,-22.593,-12.706,-178.363,-7.38,-0.393,-35.067,29.3,-0.00797,-0.11121,0.19305,-0.97479,127,0.925,-0.176,0.3,-0.366,-0.061,0.122,-29.855,-69.582,-139.867,-29.0,-6.36,-6.947,29.82,0.13297,-0.59061,0.00943,-0.79581,109
26,0.935,-0.177,0.37,-0.244,-0.122,0.122,-25.494,-66.357,-173.167,-24.88,-6.687,-12.88,28.54,0.07504,0.54343,-0.15393,0.82175,98,0.518,-0.297,0.809,0.122,-0.061,0.0,-20.045,-31.223,-105.963,-18.773,-1.76,-7.927,25.28,-0.53445,0.31265,0.0264,0.78473,86,0.213,-0.377,0.897,0.183,0.061,0.061,-22.593,-12.7,-178.347,-7.38,-0.393,-35.067,29.3,-0.00797,-0.11121,0.19305,-0.97479,128,0.924,-0.176,0.3,-0.183,-0.183,0.061,-29.877,-69.582,-139.818,-29.0,-6.36,-6.947,29.82,0.13297,-0.59061,0.00943,-0.79581,110
27,0.935,-0.178,0.369,-0.366,0.0,0.061,-25.477,-66.357,-173.199,-24.88,-6.687,-12.88,28.54,0.07504,0.54343,-0.15393,0.82175,99,0.518,-0.297,0.81,0.061,0.0,0.0,-20.045,-31.223,-105.958,-18.773,-1.76,-7.927,25.28,-0.53445,0.31265,0.0264,0.78473,87,0.213,-0.376,0.897,-0.122,-0.183,-0.122,-22.593,-12.706,-178.363,-7.38,-0.393,-35.067,29.3,-0.00797,-0.11121,0.19305,-0.97479,129,0.925,-0.176,0.3,-0.366,-0.061,0.122,-29.855,-69.582,-139.867,-29.0,-6.36,-6.947,29.82,0.13297,-0.59061,0.00943,-0.79581,111
28,0.935,-0.177,0.37,-0.244,-0.122,0.122,-25.494,-66.357,-173.167,-24.88,-6.687,-12.88,28.54,0.07504,0.54343,-0.15393,0.82175,100,0.518,-0.297,0.809,0.122,-0.061,0.0,-20.045,-31.223,-105.963,-18.773,-1.76,-7.927,25.28,-0.53445,0.31265,0.0264,0.78473,88,0.213,-0.377,0.897,0.183,0.061,0.061,-22.593,-12.7,-178.347,-7.38,-0.393,-35.067,29.3,-0.00797,-0.11121,0.19305,-0.97479,130,0.924,-0.176,0.3,-0.183,-0.183,0.061,-29.877,-69.582,-139.818,-29.0,-6.36,-6.947,29.82,0.13297,-0.59061,0.00943,-0.79581,112
29,0.935,-0.178,0.369,-0.366,0.0,0.061,-25.477,-66.357,-173.199,-24.88,-6.687,-12.88,28.54,0.07504,0.54343,-0.15393,0.82175,101,0.518,-0.297,0.81,0.061,0.0,0.0,-20.045,-31.223,-105.958,-18.773,-1.76,-7.927,25.28,-0.53445,0.31265,0.0264,0.78473,89,0.213,-0.376,0.897,-0.122,-0.183,-0.122,-22.593,-12.706,-178.363,-7.38,-0.393,-35.067,29.3,-0.00797,-0.11121,0.19305,-0.97479,131,0.925,-0.176,0.3,-0.366,-0.061,0.122,-29.855,-69.582,-139.867,-29.0,-6.36,-6.947,29.82,0.13297,-0.59061,0.00943,-0.79581,113
30,0.936,-0.177,0.37,-0.244,-0.122,0.122,-25.494,-66.357,-173.167,-24.88,-6.687,-12.88,28.54,0.07217,0.54373,-0.15265,0.82202,114,0.519,-0.297,0.809,0.122,-0.061,0.0,-20.045,-31.223,-105.963,-18.773,-1.76,-7.927,25.28,-0.53445,0.31265,0.0264,0.78473,120,0.216,-0.377,0.897,0.183,0.061,0.061,-22.593,-12.7,-178.347,-7.38,-0.393,-35.067,29.3,-0.00797,-0.11121,0.19305,-0.97479,156,0.925,-0.176,0.3,-0.183,-0.183,0.061,-29.877,-69.582,-139.818,-28.927,-6.58,-6.073,29.82,0.13297,-0.59061,0.00943,-0.79581,132
31,0.936,-0.177,0.37,0.0,-0.061,0.122,-25.499,-66.357,-173.161,-24.88,-6.687,-12.88,28.54,0.07217,0.54373,-0.15265,0.82202,115,0.52,-0.297,0.808,0.305,-0.122,0.061,-20.045,-31.223,-105.958,-18.773,-1.76,-7.927,25.28,-0.53445,0.31265,0.0264,0.78473,121,0.217,-0.376,0.896,0.0,0.183,0.0,-22.593,-12.695,-178.341,-7.38,-0.393,-35.067,29.3,-0.00797,-0.11121,0.19305,-0.97479,157,0.924,-0.176,0.3,-0.183,-0.183,0.122,-29.894,-69.576,-139.763,-28.927,-6.58,-6.073,29.82,0.13297,-0.59061,0.00943,-0.79581,133
32,0.936,-0.178,0.369,0.0,-0.061,0.122,-25.505,-66.357,-173.156,-24.88,-6.687,-12.88,28.54,0.07217,0.54373,-0.15265,0.82202,116,0.519,-0.296,0.806,0.366,-0.183,0.061,-20.039,-31.223,-105.963,-18.773,-1.76,-7.927,25.28,-0.53445,0.31265,0.0264,0.78473,122,0.216,-0.374,0.894,-0.061,0.305,-0.061,-22.599,-12.689,-178.336,-7.38,-0.393,-35.067,29.3,-0.00797,-0.11121,0.19305,-0.97479,158,0.925,-0.177,0.3,-0.061,-0.122,0.122,-29.91,-69.576,-139.713,-28.927,-6.58,-6.073,29.82,0.13297,-0.59061,0.00943,-0.79581,134
33,0.936,-0.177,0.37,0.0,-0.061,0.122,-25.499,-66.357,-173.161,-24.88,-6.687,-12.88,28.54,0.07217,0.54373,-0.15265,0.82202,117,0.52,-0.297,0.808,0.305,-0.122,0.061,-20.045,-31.223,-105.958,-18.773,-1.76,-7.927,25.28,-0.53445,0.31265,0.0264,0.78473,123,0.217,-0.376,0.896,0.0,0.183,0.0,-22.593,-12.695,-178.341,-7.38,-0.393,-35.067,29.3,-0.00797,-0.11121,0.19305,-0.97479,159,0.924,-0.176,0.3,-0.183,-0.183,0.122,-29.894,-69.576,-139.763,-28.927,-6.58,-6.073,29.82,0.13297,-0.59061,0.00943,-0.79581,135
34,0.936,-0.178,0.369,0.0,-0.061,0.122,-25.505,-66.357,-173.156,-24.88,-6.687,-12.88,28.54,0.07217,0.54373,-0.15265,0.82202,118,0.519,-0.296,0.806,0.366,-0.183,0.061,-20.039,-31.223,-105.963,-18.773,-1.76,-7.927,25.28,-0.53445,0.31265,0.0264,0.78473,124,0.216,-0.374,0.894,-0.061,0.305,-0.061,-22.599,-12.689,-178.336,-7.38,-0.393,-35.067,29.3,-0.00797,-0.11121,0.19305,-0.97479,160,0.925,-0.177,0.3,-0.061,-0.122,0.122,-29.91,-69.576,-139.713,-28.927,-6.58,-6.073,29.82,0.13297,-0.59061,0.00943,-0.79581,136
35,0.936,-0.177,0.37,0.0,-0.061,0.122,-25.499,-66.357,-173.161,-24.88,-6.687,-12.88,28.54,0.07217,0.54373,-0.15265,0.82202,119,0.52,-0.297,0.808,0.305,-0.122,0.061,-20.045,-31.223,-105.958,-18.773,-1.76,-7.927,25.28,-0.53445,0.31265,0.0264,0.78473,125,0.217,-0.376,0.896,0.0,0.183,0.0,-22.593,-12.695,-178.341,-7.38,-0.393,-35.067,29.3,-0.00797,-0.11121,0.19305,-0.97479,161,0.924,-0.176,0.3,-0.183,-0.183,0.122,-29.894,-69.576,-139.763,-28.927,-6.58,-6.073,29.82,0.13297,-0.59061,0.00943,-0.79581,137
36,0.935,-0.178,0.369,0.0,-0.061,0.122,-25.505,-66.357,-173.156,-24.88,-6.687,-12.88,28.54,0.07217,0.54373,-0.15265,0.82202,138,0.519,-0.296,0.806,0.366,-0.183,0.061,-20.039,-31.223,-105.963,-18.773,-1.76,-7.927,25.28,-0.53445,0.31265,0.0264,0.78473,144,0.216,-0.374,0.894,-0.061,0.305,-0.061,-22.599,-12.689,-178.336,-7.38,-0.393,-35.067,29.3,-0.00797,-0.11121,0.19305,-0.97479,180,0.924,-0.177,0.3,-0.061,-0.122,0.122,-29.91,-69.576,-139.713,-28.927,-6.58,-6.073,29.82,0.13297,-0.59061,0.00943,-0.79581,162
37,0.935,-0.177,0.371,0.0,-0.061,0.122,-25.516,-66.357,-173.156,-24.88,-6.687,-12.88,28.54,0.07217,0.54373,-0.15265,0.82202,139,0.519,-0.294,0.806,0.0,-0.183,0.061,-20.039,-31.223,-105.974,-18.773,-1.76,-7.927,25.28,-0.53445,0.31265,0.0264,0.78473,145,0.216,-0.373,0.895,0.0,0.549,0.061,-22.599,-12.673,-178.33,-7.38,-0.393,-35.067,29.3,-0.00797,-0.11121,0.19305,-0.97479,181,0.925,-0.176,0.301,0.0,-0.122,0.183,-29.927,-69.576,-139.686,-28.927,-6.58,-6.073,29.82,0.13297,-0.59061,0.00943,-0.79581,163
38,0.935,-0.178,0.372,0.0,-0.061,0.244,-25.527,-66.352,-173.145,-24.88,-6.687,-12.88,28.54,0.07217,0.54373,-0.15265,0.82202,140,0.519,-0.294,0.807,0.122,-0.122,0.183,-20.045,-31.223,-105.98,-18.773,-1.76,-7.927,25.28,-0.53445,0.31265,0.0264,0.78473,146,0.216,-0.376,0.895,0.244,0.732,0.061,-22.593,-12.656,-178.325,-7.38,-0.393,-35.067,29.3,-0.00797,-0.11121,0.19305,-0.97479,182,0.924,-0.175,0.302,-0.061,-0.061,0.183,-29.943,-69.571,-139.68,-28.927,-6.58,-6.073,29.82,0.13297,-0.59061,0.00943,-0.79581,164
39,0.935,-0.177,0.371,0.0,-0.061,0.122,-25.516,-66.357,-173.156,-24.88,-6.687,-12.88,28.54,0.07217,0.54373,-0.15265,0.82202,141,0.519,-0.294,0.806,0.0,-0.183,0.061,-20.039,-31.223,-105.974,-18.773,-1.76,-7.927,25.28,-0.53445,0.31265,0.0264,0.78473,147,0.216,-0.373,0.895,0.0,0.549,0.061,-22.599,-12.673,-178.33,-7.38,-0.393,-35.067,29.3,-0.00797,-0.11121,0.19305,-0.97479,183,0.925,-0.176,0.301,0.0,-0.122,0.183,-29.927,-69.576,-139.686,-28.927,-6.58,-6.073,29.82,0.13297,-0.59061,0.00943,-0.79581,165
40,0.935,-0.178,0.372,0.0,-0.061,0.244,-25.527,-66.352,-173.145,-24.88,-6.687,-12.88,28.54,0.07217,0.54373,-0.15265,0.82202,142,0.519,-0.294,0.807,0.122,-0.122,0.183,-20.045,-31.223,-105.98,-18.773,-1.76,-7.927,25.28,-0.53445,0.31265,0.0264,0.78473,148,0.216,-0.376,0.895,0.244,0.732,0.061,-22.593,-12.656,-178.325,-7.38,-0.393,-35.067,29.3,-0.00797,-0.11121,0.19305,-0.97479,184,0.924,-0.175,0.302,-0.061,-0.061,0.183,-29.943,-69.571,-139.68,-28.927,-6.58,-6.073,29.82,0.13297,-0.59061,0.00943,-0.79581,166
41,0.935,-0.177,0.371,0.0,-0.061,0.122,-25.516,-66.357,-173.156,-24.88,-6.687,-12.88,28.54,0.07217,0.54373,-0.15265,0.82202,143,0.519,-0.294,0.806,0.0,-0.183,0.061,-20.039,-31.223,-105.974,-18.773,-1.76,-7.927,25.28,-0.53445,0.31265,0.0264,0.78473,149,0.216,-0.373,0.895,0.0,0.549,0.061,-22.599,-12.673,-178.33,-7.38,-0.393,-35.067,29.3,-0.00797,-0.11121,0.19305,-0.97479,185,0.925,-0.176,0.301,0.0,-0.122,0.183,-29.927,-69.576,-139.686,-28.927,-6.58,-6.073,29.82,0.13297,-0.59061,0.00943,-0.79581,167
42,0.935,-0.178,0.372,0.0,-0.061,0.244,-25.527,-66.352,-173.145,-24.88,-6.687,-12.88,28.54,0.07217,0.54373,-0.15265,0.82202,168,0.52,-0.294,0.807,0.122,-0.122,0.183,-20.045,-31.223,-105.98,-18.387,-1.387,-7.527,25.28,-0.53445,0.31265,0.0264,0.78473,150,0.215,-0.376,0.895,0.244,0.732,0.061,-22.593,-12.656,-178.325,-7.38,-0.393,-35.067,29.3,-0.00797,-0.11121,0.19305,-0.97479,198,0.926,-0.175,0.302,-0.061,-0.061,0.183,-29.943,-69.571,-139.68,-28.927,-6.58,-6.073,29.82,0.13507,-0.59048,0.00912,-0.79553,174
43,0.936,-0.178,0.372,0.0,0.0,0.183,-25.532,-66.352,-173.15,-24.88,-6.687,-12.88,28.54,0.07217,0.54373,-0.15265,0.82202,169,0.52,-0.296,0.808,0.122,-0.061,0.183,-20.045,-31.223,-105.991,-18.387,-1.387,-7.527,25.28,-0.53445,0.31265,0.0264,0.78473,151,0.217,-0.381,0.896,0.244,0.305,-0.122,-22.593,-12.651,-178.314,-7.38,-0.393,-35.067,29.3,-0.00797,-0.11121,0.19305,-0.97479,199,0.926,-0.177,0.301,-0.244,0.0,0.183,-29.96,-69.571,-139.669,-28.927,-6.58,-6.073,29.82,0.13507,-0.59048,0.00912,-0.79553,175
44,0.935,-0.178,0.373,0.0,0.0,0.244,-25.543,-66.346,-173.145,-24.88,-6.687,-12.88,28.54,0.07217,0.54373,-0.15265,0.82202,170,0.52,-0.299,0.806,0.061,0.061,0.0,-20.045,-31.223,-106.002,-18.387,-1.387,-7.527,25.28,-0.53445,0.31265,0.0264,0.78473,152,0.215,-0.379,0.893,-0.244,0.183,-0.366,-22.599,-12.651,-178.314,-7.38,-0.393,-35.067,29.3,-0.00797,-0.11121,0.19305,-0.97479,200,0.926,-0.177,0.301,-0.366,0.061,0.061,-29.976,-69.565,-139.647,-28.927,-6.58,-6.073,29.82,0.13507,-0.59048,0.00912,-0.79553,176
45,0.936,-0.178,0.372,0.0,0.0,0.183,-25.532,-66.352,-173.15,-24.88,-6.687,-12.88,28.54,0.07217,0.54373,-0.15265,0.82202,171,0.52,-0.296,0.808,0.122,-0.061,0.183,-20.045,-31.223,-105.991,-18.387,-1.387,-7.527,25.28,-0.53445,0.31265,0.0264,0.78473,153,0.217,-0.381,0.896,0.244,0.305,-0.122,-22.593,-12.651,-178.314,-7.38,-0.393,-35.067,29.3,-0.00797,-0.11121,0.19305,-0.97479,201,0.926,-0.177,0.301,-0.244,0.0,0.183,-29.96,-69.571,-139.669,-28.927,-6.58,-6.073,29.82,0.13507,-0.59048,0.00912,-0.79553,177
46,0.935,-0.178,0.373,0.0,0.0,0.244,-25.543,-66.346,-173.145,-24.88,-6.687,-12.88,28.54,0.07217,0.54373,-0.15265,0.82202,172,0.52,-0.299,0.806,0.061,0.061,0.0,-20.045,-31.223,-106.002,-18.387,-1.387,-7.527,25.28,-0.53445,0.31265,0.0264,0.78473,154,0.215,-0.379,0.893,-0.244,0.183,-0.366,-22.599,-12.651,-178.314,-7.38,-0.393,-35.067,29.3,-0.00797,-0.11121,0.19305,-0.97479,202,0.926,-0.177,0.301,-0.366,0.061,0.061,-29.976,-69.565,-139.647,-28.927,-6.58,-6.073,29.82,0.13507,-0.59048,0.00912,-0.79553,178
47,0.936,-0.178,0.372,0.0,0.0,0.183,-25.532,-66.352,-173.15,-24.88,-6.687,-12.88,28.54,0.07217,0.54373,-0.15265,0.82202,173,0.52,-0.296,0.808,0.122,-0.061,0.183,-20.045,-31.223,-105.991,-18.387,-1.387,-7.527,25.28,-0.53445,0.31265,0.0264,0.78473,155,0.217,-0.381,0.896,0.244,0.305,-0.122,-22.593,-12.651,-178.314,-7.38,-0.393,-35.067,29.3,-0.00797,-0.11121,0.19305,-0.97479,203,0.926,-0.177,0.301,-0.244,0.0,0.183,-29.96,-69.571,-139.669,-28.927,-6.58,-6.073,29.82,0.13507,-0.59048,0.00912,-0.79553,179
48,0.937,-0.178,0.373,0.0,0.0,0.244,-25.543,-66.346,-173.145,-24.88,-6.687,-12.88,28.54,0.07217,0.54373,-0.15265,0.82202,186,0.522,-0.299,0.806,0.061,0.061,0.0,-20.045,-31.223,-106.002,-18.387,-1.387,-7.527,25.28,-0.53445,0.31265,0.0264,0.78473,192,0.217,-0.379,0.893,-0.244,0.183,-0.366,-22.599,-12.651,-178.314,-7.38,-0.393,-35.067,29.3,-0.00797,-0.11121,0.19305,-0.97479,204,0.926,-0.177,0.301,-0.366,0.061,0.061,-29.976,-69.565,-139.647,-28.927,-6.58,-6.073,29.82,0.13507,-0.59048,0.00912,-0.79553,210
49,0.937,-0.179,0.371,-0.122,0.0,0.183,-25.554,-66.346,-173.123,-24.88,-6.687,-12.88,28.54,0.07217,0.54373,-0.15265,0.82202,187,0.521,-0.298,0.806,0.122,0.061,0.0,-20.045,-31.218,-106.013,-18.387,-1.387,-7.527,25.28,-0.53445,0.31265,0.0264,0.78473,193,0.216,-0.376,0.895,-0.122,0.366,0.061,-22.604,-12.64,-178.303,-7.38,-0.393,-35.067,29.3,-0.00797,-0.11121,0.19305,-0.97479,205,0.926,-0.177,0.3,-0.244,0.244,0.061,-29.987,-69.56,-139.625,-28.927,-6.58,-6.073,29.82,0.13507,-0.59048,0.00912,-0.79553,211
50,0.937,-0.179,0.372,-0.183,0.061,0.122,-25.565,-66.341,-173.101,-24.88,-6.687,-12.88,28.54,0.07217,0.54373,-0.15265,0.82202,188,0.522,-0.297,0.807,0.244,0.244,0.0,-20.039,-31.212,-106.024,-18.387,-1.387,-7.527,25.28,-0.53445,0.31265,0.0264,0.78473,194,0.217,-0.377,0.896,0.0,0.427,0.305,-22.604,-12.629,-178.292,-7.38,-0.393,-35.067,29.3,-0.00797,-0.11121,0.19305,-0.97479,206,0.926,-0.179,0.3,-0.183,0.366,0.122,-29.993,-69.549,-139.631,-28.927,-6.58,-6.073,29.82,0.13507,-0.59048,0.00912,-0.79553,212
51,0.937,-0.179,0.371,-0.122,0.0,0.183,-25.554,-66.346,-173.123,-24.88,-6.687,-12.88,28.54,0.07217,0.54373,-0.15265,0.82202,189,0.521,-0.298,0.806,0.122,0.061,0.0,-20.045,-31.218,-106.013,-18.387,-1.387,-7.527,25.28,-0.53445,0.31265,0.0264,0.78473,195,0.216,-0.376,0.895,-0.122,0.366,0.061,-22.604,-12.64,-178.303,-7.38,-0.393,-35.067,29.3,-0.00797,-0.11121,0.19305,-0.97479,207,0.926,-0.177,0.3,-0.244,0.244,0.061,-29.987,-69.56,-139.625,-28.927,-6.58,-6.073,29.82,0.13507,-0.59048,0.00912,-0.79553,213
52,0.937,-0.179,0.372,-0.183,0.061,0.122,-25.565,-66.341,-173.101,-24.88,-6.687,-12.88,28.54,0.07217,0.54373,-0.15265,0.82202,190,0.522,-0.297,0.807,0.244,0.244,0.0,-20.039,-31.212,-106.024,-18.387,-1.387,-7.527,25.28,-0.53445,0.31265,0.0264,0.78473,196,0.217,-0.377,0.896,0.0,0.427,0.305,-22.604,-12.629,-178.292,-7.38,-0.393,-35.067,29.3,-0.00797,-0.11121,0.19305,-0.97479,208,0.926,-0.179,0.3,-0.183,0.366,0.122,-29.993,-69.549,-139.631,-28.927,-6.58,-6.073,29.82,0.13507,-0.59048,0.00912,-0.79553,214
53,0.937,-0.179,0.371,-0.122,0.0,0.183,-25.554,-66.346,-173.123,-24.88,-6.687,-12.88,28.54,0.07217,0.54373,-0.15265,0.82202,191,0.521,-0.298,0.806,0.122,0.061,0.0,-20.045,-31.218,-106.013,-18.387,-1.387,-7.527,25.28,-0.53445,0.31265,0.0264,0.78473,197,0.216,-0.376,0.895,-0.122,0.366,0.061,-22.604,-12.64,-178.303,-7.38,-0.393,-35.067,29.3,-0.00797,-0.11121,0.19305,-0.97479,209,0.926,-0.177,0.3,-0.244,0.244,0.061,-29.987,-69.56,-139.625,-28.927,-6.58,-6.073,29.82,0.13507,-0.59048,0.00912,-0.79553,215
54,0.936,-0.179,0.372,-0.183,0.061,0.122,-25.565,-66.341,-173.101,-24.88,-6.687,-12.88,28.54,0.07217,0.54373,-0.15265,0.82202,216,0.52,-0.297,0.807,0.244,0.244,0.0,-20.039,-31.212,-106.024,-18.387,-1.387,-7.527,25.28,-0.53326,0.3125,0.02557,0.78564,222,0.214,-0.377,0.896,0.0,0.427,0.305,-22.604,-12.629,-178.292,-7.38,-0.393,-35.067,29.3,-0.00797,-0.11121,0.19305,-0.97479,234,0.924,-0.179,0.3,-0.183,0.366,0.122,-29.993,-69.549,-139.631,-28.927,-6.58,-6.073,29.82,0.13507,-0.59048,0.00912,-0.79553,240
55,0.935,-0.179,0.372,-0.061,0.244,0.122,-25.565,-66.335,-173.095,-24.88,-6.687,-12.88,28.54,0.07217,0.54373,-0.15265,0.82202,217,0.518,-0.297,0.808,0.427,0.244,0.061,-20.034,-31.207,-106.035,-18.387,-1.387,-7.527,25.28,-0.53326,0.3125,0.02557,0.78564,223,0.213,-0.377,0.898,0.366,0.305,0.366,-22.604,-12.623,-178.275,-7.38,-0.393,-35.067,29.3,-0.00797,-0.11121,0.19305,-0.97479,235,0.924,-0.178,0.301,-0.061,0.366,0.061,-29.993,-69.538,-139.647,-28.927,-6.58,-6.073,29.82,0.13507,-0.59048,0.00912,-0.79553,241
56,0.936,-0.18,0.37,0.0,0.305,0.122,-25.565,-66.33,-173.084,-24.88,-6.687,-12.88,28.54,0.07217,0.54373,-0.15265,0.82202,218,0.52,-0.297,0.809,0.549,0.122,0.122,-20.028,-31.207,-106.046,-18.387,-1.387,-7.527,25.28,-0.53326,0.3125,0.02557,0.78564,224,0.214,-0.377,0.898,0.305,0.061,0.244,-22.599,-12.618,-178.259,-7.38,-0.393,-35.067,29.3,-0.00797,-0.11121,0.19305,-0.97479,236,0.924,-0.177,0.301,0.0,0.244,0.122,-29.993,-69.532,-139.658,-28.927,-6.58,-6.073,29.82,0.13507,-0.59048,0.00912,-0.79553,242
57,0.935,-0.179,0.372,-0.061,0.244,0.122,-25.565,-66.335,-173.095,-24.88,-6.687,-12.88,28.54,0.07217,0.54373,-0.15265,0.82202,219,0.518,-0.297,0.808,0.427,0.244,0.061,-20.034,-31.207,-106.035,-18.387,-1.387,-7.527,25.28,-0.53326,0.3125,0.02557,0.78564,225,0.213,-0.377,0.898,0.366,0.305,0.366,-22.604,-12.623,-178.275,-7.38,-0.393,-35.067,29.3,-0.00797,-0.11121,0.19305,-0.97479,237,0.924,-0.178,0.301,-0.061,0.366,0.061,-29.993,-69.538,-139.647,-28.927,-6.58,-6.073,29.82,0.13507,-0.59048,0.00912,-0.79553,243
58,0.936,-0.18,0.37,0.0,0.305,0.122,-25.565,-66.33,-173.084,-24.88,-6.687,-12.88,28.54,0.07217,0.54373,-0.15265,0.82202,220,0.52,-0.297,0.809,0.549,0.122,0.122,-20.028,-31.207,-106.046,-18.387,-1.387,-7.527,25.28,-0.53326,0.3125,0.02557,0.78564,226,0.214,-0.377,0.898,0.305,0.061,0.244,-22.599,-12.618,-178.259,-7.38,-0.393,-35.067,29.3,-0.00797,-0.11121,0.19305,-0.97479,238,0.924,-0.177,0.301,0.0,0.244,0.122,-29.993,-69.532,-139.658,-28.927,-6.58,-6.073,29.82,0.13507,-0.59048,0.00912,-0.79553,244
59,0.935,-0.179,0.372,-0.061,0.244,0.122,-25.565,-66.335,-173.095,-24.88,-6.687,-12.88,28.54,0.07217,0.54373,-0.15265,0.82202,221,0.518,-0.297,0.808,0.427,0.244,0.061,-20.034,-31.207,-106.035,-18.387,-1.387,-7.527,25.28,-0.53326,0.3125,0.02557,0.78564,227,0.213,-0.377,0.898,0.366,0.305,0.366,-22.604,-12.623,-178.275,-7.38,-0.393,-35.067,29.3,-0.00797,-0.11121,0.19305,-0.97479,239,0.924,-0.178,0.301,-0.061,0.366,0.061,-29.993,-69.538,-139.647,-28.927,-6.58,-6.073,29.82,0.13507,-0.59048,0.00912,-0.79553,245
60,0.934,-0.18,0.37,0.0,0.305,0.122,-25.565,-66.33,-173.084,-24.88,-6.687,-12.88,28.54,0.07217,0.54373,-0.15265,0.82202,246,0.517,-0.297,0.809,0.549,0.122,0.122,-20.028,-31.207,-106.046,-18.387,-1.387,-7.527,25.28,-0.53326,0.3125,0.02557,0.78564,228,0.212,-0.377,0.898,0.305,0.061,0.244,-22.599,-12.618,-178.259,-7.38,-0.393,-35.067,29.3,-0.00797,-0.11121,0.19305,-0.97479,252,0.923,-0.177,0.301,0.0,0.244,0.122,-29.993,-69.532,-139.658,-28.927,-6.58,-6.073,29.82,0.13507,-0.59048,0.00912,-0.79553,258
61,0.935,-0.178,0.37,-0.122,0.122,0.122,-25.576,-66.324,-173.068,-24.88,-6.687,-12.88,28.54,0.07217,0.54373,-0.15265,0.82202,247,0.516,-0.296,0.811,0.366,0.122,0.122,-20.023,-31.201,-106.057,-18.387,-1.387,-7.527,25.28,-0.53326,0.3125,0.02557,0.78564,229,0.211,-0.376,0.898,0.305,0.0,0.122,-22.599,-12.612,-178.248,-7.38,-0.393,-35.067,29.3,-0.00797,-0.11121,0.19305,-0.97479,253,0.923,-0.177,0.301,0.0,0.122,0.0,-29.998,-69.527,-139.669,-28.927,-6.58,-6.073,29.82,0.13507,-0.59048,0.00912,-0.79553,259
62,0.934,-0.178,0.37,-0.244,0.0,0.122,-25.587,-66.319,-173.051,-24.88,-6.687,-12.88,28.54,0.07217,0.54373,-0.15265,0.82202,248,0.517,-0.296,0.81,0.183,0.061,0.061,-20.017,-31.196,-106.068,-18.387,-1.387,-7.527,25.28,-0.53326,0.3125,0.02557,0.78564,230,0.212,-0.376,0.897,0.122,0.244,0.0,-22.599,-12.607,-178.237,-7.38,-0.393,-35.067,29.3,-0.00797,-0.11121,0.19305,-0.97479,254,0.923,-0.177,0.3,-0.061,0.061,0.0,-30.004,-69.521,-139.68,-28.927,-6.58,-6.073,29.82,0.13507,-0.59048,0.00912,-0.79553,260
63,0.935,-0.178,0.37,-0.122,0.122,0.122,-25.576,-66.324,-173.068,-24.88,-6.687,-12.88,28.54,0.07217,0.54373,-0.15265,0.82202,249,0.516,-0.296,0.811,0.366,0.122,0.122,-20.023,-31.201,-106.057,-18.387,-1.387,-7.527,25.28,-0.53326,0.3125,0.02557,0.78564,231,0.211,-0.376,0.898,0.305,0.0,0.122,-22.599,-12.612,-178.248,-7.38,-0.393,-35.067,29.3,-0.00797,-0.11121,0.19305,-0.97479,255,0.923,-0.177,0.301,0.0,0.122,0.0,-29.998,-69.527,-139.669,-28.927,-6.58,-6.073,29.82,0.13507,-0.59048,0.00912,-0.79553,261
64,0.934,-0.178,0.37,-0.244,0.0,0.122,-25.587,-66.319,-173.051,-24.88,-6.687,-12.88,28.54,0.07217,0.54373,-0.15265,0.82202,250,0.517,-0.296,0.81,0.183,0.061,0.061,-20.017,-31.196,-106.068,-18.387,-1.387,-7.527,25.28,-0.53326,0.3125,0.02557,0.78564,232,0.212,-0.376,0.897,0.122,0.244,0.0,-22.599,-12.607,-178.237,-7.38,-0.393,-35.067,29.3,-0.00797,-0.11121,0.19305,-0.97479,256,0.923,-0.177,0.3,-0.061,0.061,0.0,-30.004,-69.521,-139.68,-28.927,-6.58,-6.073,29.82,0.13507,-0.59048,0.00912,-0.79553,262
65,0.935,-0.178,0.37,-0.122,0.122,0.122,-25.576,-66.324,-173.068,-24.88,-6.687,-12.88,28.54,0.07217,0.54373,-0.15265,0.82202,251,0.516,-0.296,0.811,0.366,0.122,0.122,-20.023,-31.201,-106.057,-18.387,-1.387,-7.527,25.28,-0.53326,0.3125,0.02557,0.78564,233,0.211,-0.376,0.898,0.305,0.0,0.122,-22.599,-12.612,-178.248,-7.38,-0.393,-35.067,29.3,-0.00797,-0.11121,0.19305,-0.97479,257,0.923,-0.177,0.301,0.0,0.122,0.0,-29.998,-69.527,-139.669,-28.927,-6.58,-6.073,29.82,0.13507,-0.59048,0.00912,-0.79553,263
66,0.934,-0.178,0.37,-0.244,0.0,0.122,-25.587,-66.319,-173.051,-24.88,-6.687,-12.88,28.54,0.07217,0.54373,-0.15265,0.82202,264,0.517,-0.296,0.81,0.183,0.061,0.061,-20.017,-31.196,-106.068,-18.387,-1.387,-7.527,25.28,-0.53326,0.3125,0.02557,0.78564,270,0.212,-0.376,0.897,0.122,0.244,0.0,-22.599,-12.607,-178.237,-7.38,-0.393,-35.067,29.3,-0.00797,-0.11121,0.19305,-0.97479,276,0.923,-0.177,0.3,-0.061,0.061,0.0,-30.004,-69.521,-139.68,-28.927,-6.58,-6.073,29.82,0.13507,-0.59048,0.00912,-0.79553,282
67,0.935,-0.179,0.37,-0.061,-0.122,0.122,-25.593,-66.319,-173.035,-24.88,-6.687,-12.88,28.54,0.07217,0.54373,-0.15265,0.82202,265,0.517,-0.296,0.808,0.061,0.0,0.061,-20.017,-31.196,-106.078,-18.387,-1.387,-7.527,25.28,-0.53326,0.3125,0.02557,0.78564,271,0.213,-0.376,0.896,0.122,0.122,0.0,-22.599,-12.601,-178.231,-7.38,-0.393,-35.067,29.3,-0.00797,-0.11121,0.19305,-0.97479,277,0.924,-0.177,0.3,0.0,0.0,0.0,-30.009,-69.521,-139.686,-28.927,-6.58,-6.073,29.82,0.13507,-0.59048,0.00912,-0.79553,283
68,0.934,-0.18,0.37,0.061,-0.061,0.0,-25.598,-66.324,-173.018,-24.88,-6.687,-12.88,28.54,0.07217,0.54373,-0.15265,0.82202,266,0.517,-0.297,0.809,0.061,-0.061,0.061,-20.017,-31.19,-106.084,-18.387,-1.387,-7.527,25.28,-0.53326,0.3125,0.02557,0.78564,272,0.212,-0.376,0.896,0.0,0.0,0.0,-22.599,-12.601,-178.22,-7.38,-0.393,-35.067,29.3,-0.00797,-0.11121,0.19305,-0.97479,278,0.923,-0.176,0.3,-0.244,-0.061,0.0,-30.02,-69.516,-139.691,-28.927,-6.58,-6.073,29.82,0.13507,-0.59048,0.00912,-0.79553,284
69,0.935,-0.179,0.37,-0.061,-0.122,0.122,-25.593,-66.319,-173.035,-24.88,-6.687,-12.88,28.54,0.07217,0.54373,-0.15265,0.82202,267,0.517,-0.296,0.808,0.061,0.0,0.061,-20.017,-31.196,-106.078,-18.387,-1.387,-7.527,25.28,-0.53326,0.3125,0.02557,0.78564,273,0.213,-0.376,0.896,0.122,0.122,0.0,-22.599,-12.601,-178.231,-7.38,-0.393,-35.067,29.3,-0.00797,-0.11121,0.19305,-0.97479,279,0.924,-0.177,0.3,0.0,0.0,0.0,-30.009,-69.521,-139.686,-28.927,-6.58,-6.073,29.82,0.13507,-0.59048,0.00912,-0.79553,285
70,0.934,-0.18,0.37,0.061,-0.061,0.0,-25.598,-66.324,-173.018,-24.88,-6.687,-12.88,28.54,0.07217,0.54373,-0.15265,0.82202,268,0.517,-0.297,0.809,0.061,-0.061,0.061,-20.017,-31.19,-106.084,-18.387,-1.387,-7.527,25.28,-0.53326,0.3125,0.02557,0.78564,274,0.212,-0.376,0.896,0.0,0.0,0.0,-22.599,-12.601,-178.22,-7.38,-0.393,-35.067,29.3,-0.00797,-0.11121,0.19305,-0.97479,280,0.923,-0.176,0.3,-0.244,-0.061,0.0,-30.02,-69.516,-139.691,-28.927,-6.58,-6.073,29.82,0.13507,-0.59048,0.00912,-0.79553,286
71,0.935,-0.179,0.37,-0.061,-0.122,0.122,-25.593,-66.319,-173.035,-24.88,-6.687,-12.88,28.54,0.07217,0.54373,-0.15265,0.82202,269,0.517,-0.296,0.808,0.061,0.0,0.061,-20.017,-31.196,-106.078,-18.387,-1.387,-7.527,25.28,-0.53326,0.3125,0.02557,0.78564,275,0.213,-0.376,0.896,0.122,0.122,0.0,-22.599,-12.601,-178.231,-7.38,-0.393,-35.067,29.3,-0.00797,-0.11121,0.19305,-0.97479,281,0.924,-0.177,0.3,0.0,0.0,0.0,-30.009,-69.521,-139.686,-28.927,-6.58,-6.073,29.82,0.13507,-0.59048,0.00912,-0.79553,287
72,0.935,-0.18,0.37,0.061,-0.061,0.0,-25.598,-66.324,-173.018,-24.867,-6.5,-13.447,28.54,0.07217,0.54373,-0.15265,0.82202,288,0.518,-0.297,0.809,0.061,-0.061,0.061,-20.017,-31.19,-106.084,-18.387,-1.387,-7.527,25.28,-0.53326,0.3125,0.02557,0.78564,294,0.214,-0.376,0.896,0.0,0.0,0.0,-22.599,-12.601,-178.22,-7.38,-0.393,-35.067,29.3,-0.00797,-0.11121,0.19305,-0.97479,306,0.924,-0.176,0.3,-0.244,-0.061,0.0,-30.02,-69.516,-139.691,-28.927,-6.58,-6.073,29.82,0.13507,-0.59048,0.00912,-0.79553,312
73,0.935,-0.179,0.371,0.061,0.0,0.0,-25.598,-66.319,-173.007,-24.867,-6.5,-13.447,28.54,0.07217,0.54373,-0.15265,0.82202,289,0.518,-0.296,0.808,0.0,-0.061,0.0,-20.023,-31.19,-106.095,-18.387,-1.387,-7.527,25.28,-0.53326,0.3125,0.02557,0.78564,295,0.213,-0.377,0.896,0.0,-0.183,-0.061,-22.599,-12.601,-178.209,-7.38,-0.393,-35.067,29.3,-0.00797,-0.11121,0.19305,-0.97479,307,0.923,-0.177,0.302,-0.244,-0.122,0.061,-30.031,-69.516,-139.697,-28.927,-6.58,-6.073,29.82,0.13507,-0.59048,0.00912,-0.79553,313
74,0.935,-0.179,0.37,0.0,0.0,0.0,-25.598,-66.319,-172.996,-24.867,-6.5,-13.447,28.54,0.07217,0.54373,-0.15265,0.82202,290,0.518,-0.295,0.809,-0.061,0.0,0.0,-20.023,-31.19,-106.106,-18.387,-1.387,-7.527,25.28,-0.53326,0.3125,0.02557,0.78564,296,0.214,-0.377,0.895,0.061,0.061,-0.183,-22.604,-12.601,-178.204,-7.38,-0.393,-35.067,29.3,-0.00797,-0.11121,0.19305,-0.97479,308,0.924,-0.178,0.302,0.0,-0.122,0.0,-30.042,-69.516,-139.697,-28.927,-6.58,-6.073,29.82,0.13507,-0.59048,0.00912,-0.79553,314
75,0.935,-0.179,0.371,0.061,0.0,0.0,-25.598,-66.319,-173.007,-24.867,-6.5,-13.447,28.54,0.07217,0.54373,-0.15265,0.82202,291,0.518,-0.296,0.808,0.0,-0.061,0.0,-20.023,-31.19,-106.095,-18.387,-1.387,-7.527,25.28,-0.53326,0.3125,0.02557,0.78564,297,0.213,-0.377,0.896,0.0,-0.183,-0.061,-22.599,-12.601,-178.209,-7.38,-0.393,-35.067,29.3,-0.00797,-0.11121,0.19305,-0.97479,309,0.923,-0.177,0.302,-0.244,-0.122,0.061,-30.031,-69.516,-139.697,-28.927,-6.58,-6.073,29.82,0.13507,-0.59048,0.00912,-0.79553,315
76,0.935,-0.179,0.37,0.0,0.0,0.0,-25.598,-66.319,-172.996,-24.867,-6.5,-13.447,28.54,0.07217,0.54373,-0.15265,0.82202,292,0.518,-0.295,0.809,-0.061,0.0,0.0,-20.023,-31.19,-106.106,-18.387,-1.387,-7.527,25.28,-0.53326,0.3125,0.02557,0.78564,298,0.214,-0.377,0.895,0.061,0.061,-0.183,-22.604,-12.601,-178.204,-7.38,-0.393,-35.067,29.3,-0.00797,-0.11121,0.19305,-0.97479,310,0.924,-0.178,0.302,0.0,-0.122,0.0,-30.042,-69.516,-139.697,-28.927,-6.58,-6.073,29.82,0.13507,-0.59048,0.00912,-0.79553,316
77,0.935,-0.179,0.371,0.061,0.0,0.0,-25.598,-66.319,-173.007,-24.867,-6.5,-13.447,28.54,0.07217,0.54373,-0.15265,0.82202,293,0.518,-0.296,0.808,0.0,-0.061,0.0,-20.023,-31.19,-106.095,-18.387,-1.387,-7.527,25.28,-0.53326,0.3125,0.02557,0.78564,299,0.213,-0.377,0.896,0.0,-0.183,-0.061,-22.599,-12.601,-178.209,-7.38,-0.393,-35.067,29.3,-0.00797,-0.11121,0.19305,-0.97479,311,0.923,-0.177,0.302,-0.244,-0.122,0.061,-30.031,-69.516,-139.697,-28.927,-6.58,-6.073,29.82,0.13507,-0.59048,0.00912,-0.79553,317
78,0.934,-0.179,0.37,0.0,0.0,0.0,-25.598,-66.319,-172.996,-24.867,-6.5,-13.447,28.54,0.07217,0.54373,-0.15265,0.82202,318,0.517,-0.295,0.809,-0.061,0.0,0.0,-20.023,-31.19,-106.106,-18.387,-1.387,-7.527,25.28,-0.53326,0.3125,0.02557,0.78564,300,0.213,-0.377,0.895,0.061,0.061,-0.183,-22.604,-12.601,-178.204,-7.4,-0.3,-35.193,29.3,-0.00797,-0.11121,0.19305,-0.97479,324,0.923,-0.178,0.302,0.0,-0.122,0.0,-30.042,-69.516,-139.697,-28.927,-6.58,-6.073,29.82,0.13507,-0.59048,0.00912,-0.79553,330
79,0.936,-0.179,0.371,0.0,-0.061,0.061,-25.604,-66.319,-172.985,-24.867,-6.5,-13.447,28.54,0.07217,0.54373,-0.15265,0.82202,319,0.517,-0.297,0.808,-0.061,0.0,0.0,-20.028,-31.185,-106.117,-18.387,-1.387,-7.527,25.28,-0.53326,0.3125,0.02557,0.78564,301,0.214,-0.376,0.895,0.0,0.427,-0.122,-22.604,-12.59,-178.198,-7.4,-0.3,-35.193,29.3,-0.00797,-0.11121,0.19305,-0.97479,325,0.925,-0.177,0.301,0.0,-0.122,0.0,-30.053,-69.516,-139.702,-28.927,-6.58,-6.073,29.82,0.13507,-0.59048,0.00912,-0.79553,331
80,0.934,-0.178,0.37,0.0,0.0,-0.061,-25.609,-66.319,-172.969,-24.867,-6.5,-13.447,28.54,0.07217,0.54373,-0.15265,0.82202,320,0.517,-0.298,0.809,0.0,-0.122,0.0,-20.028,-31.185,-106.128,-18.387,-1.387,-7.527,25.28,-0.53326,0.3125,0.02557,0.78564,302,0.213,-0.375,0.897,0.061,0.366,0.061,-22.604,-12.579,-178.187,-7.4,-0.3,-35.193,29.3,-0.00797,-0.11121,0.19305,-0.97479,326,0.923,-0.176,0.3,-0.122,-0.183,0.0,-30.064,-69.516,-139.702,-28.927,-6.58,-6.073,29.82,0.13507,-0.59048,0.00912,-0.79553,332
81,0.936,-0.179,0.371,0.0,-0.061,0.061,-25.604,-66.319,-172.985,-24.867,-6.5,-13.447,28.54,0.07217,0.54373,-0.15265,0.82202,321,0.517,-0.297,0.808,-0.061,0.0,0.0,-20.028,-31.185,-106.117,-18.387,-1.387,-7.527,25.28,-0.53326,0.3125,0.02557,0.78564,303,0.214,-0.376,0.895,0.0,0.427,-0.122,-22.604,-12.59,-178.198,-7.4,-0.3,-35.193,29.3,-0.00797,-0.11121,0.19305,-0.97479,327,0.925,-0.177,0.301,0.0,-0.122,0.0,-30.053,-69.516,-139.702,-28.927,-6.58,-6.073,29.82,0.13507,-0.59048,0.00912,-0.79553,333
82,0.934,-0.178,0.37,0.0,0.0,-0.061,-25.609,-66.319,-172.969,-24.867,-6.5,-13.447,28.54,0.07217,0.54373,-0.15265,0.82202,322,0.517,-0.298,0.809,0.0,-0.122,0.0,-20.028,-31.185,-106.128,-18.387,-1.387,-7.527,25.28,-0.53326,0.3125,0.02557,0.78564,304,0.213,-0.375,0.897,0.061,0.366,0.061,-22.604,-12.579,-178.187,-7.4,-0.3,-35.193,29.3,-0.00797,-0.11121,0.19305,-0.97479,328,0.923,-0.176,0.3,-0.122,-0.183,0.0,-30.064,-69.516,-139.702,-28.927,-6.58,-6.073,29.82,0.13507,-0.59048,0.00912,-0.79553,334
83,0.936,-0.179,0.371,0.0,-0.061,0.061,-25.604,-66.319,-172.985,-24.867,-6.5,-13.447,28.54,0.07217,0.54373,-0.15265,0.82202,323,0.517,-0.297,0.808,-0.061,0.0,0.0,-20.028,-31.185,-106.117,-18.387,-1.387,-7.527,25.28,-0.53326,0.3125,0.02557,0.78564,305,0.214,-0.376,0.895,0.0,0.427,-0.122,-22.604,-12.59,-178.198,-7.4,-0.3,-35.193,29.3,-0.00797,-0.11121,0.19305,-0.97479,329,0.925,-0.177,0.301,0.0,-0.122,0.0,-30.053,-69.516,-139.702,-28.927,-6.58,-6.073,29.82,0.13507,-0.59048,0.00912,-0.79553,335
84,0.937,-0.178,0.37,0.0,0.0,-0.061,-25.609,-66.319,-172.969,-24.867,-6.5,-13.447,28.54,0.07108,0.5437,-0.15256,0.82217,336,0.519,-0.298,0.809,0.0,-0.122,0.0,-20.028,-31.185,-106.128,-18.387,-1.387,-7.527,25.28,-0.53326,0.3125,0.02557,0.78564,342,0.216,-0.375,0.897,0.061,0.366,0.061,-22.604,-12.579,-178.187,-7.4,-0.3,-35.193,29.3,-0.00797,-0.11121,0.19305,-0.97479,348,0.926,-0.176,0.3,-0.122,-0.183,0.0,-30.064,-69.516,-139.702,-29.1,-6.713,-7.2,29.82,0.13507,-0.59048,0.00912,-0.79553,354
85,0.936,-0.178,0.371,-0.061,0.0,-0.061,-25.609,-66.319,-172.963,-24.867,-6.5,-13.447,28.54,0.07108,0.5437,-0.15256,0.82217,337,0.521,-0.296,0.809,0.122,-0.122,0.0,-20.028,-31.185,-106.133,-18.387,-1.387,-7.527,25.28,-0.53326,0.3125,0.02557,0.78564,343,0.215,-0.375,0.897,0.0,0.0,0.061,-22.604,-12.579,-178.176,-7.4,-0.3,-35.193,29.3,-0.00797,-0.11121,0.19305,-0.97479,349,0.925,-0.176,0.302,-0.183,-0.061,0.0,-30.075,-69.516,-139.708,-29.1,-6.713,-7.2,29.82,0.13507,-0.59048,0.00912,-0.79553,355
86,0.937,-0.179,0.372,-0.061,-0.122,0.0,-25.609,-66.319,-172.952,-24.867,-6.5,-13.447,28.54,0.07108,0.5437,-0.15256,0.82217,338,0.519,-0.294,0.807,0.061,-0.061,0.0,-20.028,-31.185,-106.144,-18.387,-1.387,-7.527,25.28,-0.53326,0.3125,0.02557,0.78564,344,0.216,-0.375,0.897,-0.061,-0.244,-0.183,-22.61,-12.579,-178.171,-7.4,-0.3,-35.193,29.3,-0.00797,-0.11121,0.19305,-0.97479,350,0.926,-0.177,0.301,-0.183,0.0,0.0,-30.086,-69.51,-139.713,-29.1,-6.713,-7.2,29.82,0.13507,-0.59048,0.00912,-0.79553,356
87,0.936,-0.178,0.371,-0.061,0.0,-0.061,-25.609,-66.319,-172.963,-24.867,-6.5,-13.447,28.54,0.07108,0.5437,-0.15256,0.82217,339,0.521,-0.296,0.809,0.122,-0.122,0.0,-20.028,-31.185,-106.133,-18.387,-1.387,-7.527,25.28,-0.53326,0.3125,0.02557,0.78564,345,0.215,-0.375,0.897,0.0,0.0,0.061,-22.604,-12.579,-178.176,-7.4,-0.3,-35.193,29.3,-0.00797,-0.11121,0.19305,-0.97479,351,0.925,-0.176,0.302,-0.183,-0.061,0.0,-30.075,-69.516,-139.708,-29.1,-6.713,-7.2,29.82,0.13507,-0.59048,0.00912,-0.79553,357
88,0.937,-0.179,0.372,-0.061,-0.122,0.0,-25.609,-66.319,-172.952,-24.867,-6.5,-13.447,28.54,0.07108,0.5437,-0.15256,0.82217,340,0.519,-0.294,0.807,0.061,-0.061,0.0,-20.028,-31.185,-106.144,-18.387,-1.387,-7.527,25.28,-0.53326,0.3125,0.02557,0.78564,346,0.216,-0.375,0.897,-0.061,-0.244,-0.183,-22.61,-12.579,-178.171,-7.4,-0.3,-35.193,29.3,-0.00797,-0.11121,0.19305,-0.97479,352,0.926,-0.177,0.301,-0.183,0.0,0.0,-30.086,-69.51,-139.713,-29.1,-6.713,-7.2,29.82,0.13507,-0.59048,0.00912,-0.79553,358
89,0.936,-0.178,0.371,-0.061,0.0,-0.061,-25.609,-66.319,-172.963,-24.867,-6.5,-13.447,28.54,0.07108,0.5437,-0.15256,0.82217,341,0.521,-0.296,0.809,0.122,-0.122,0.0,-20.028,-31.185,-106.133,-18.387,-1.387,-7.527,25.28,-0.53326,0.3125,0.02557,0.78564,347,0.215,-0.375,0.897,0.0,0.0,0.061,-22.604,-12.579,-178.176,-7.4,-0.3,-35.193,29.3,-0.00797,-0.11121,0.19305,-0.97479,353,0.925,-0.176,0.302,-0.183,-0.061,0.0,-30.075,-69.516,-139.708,-29.1,-6.713,-7.2,29.82,0.13507,-0.59048,0.00912,-0.79553,359
90,0.936,-0.179,0.372,-0.061,-0.122,0.0,-25.609,-66.319,-172.952,-24.867,-6.5,-13.447,28.54,0.07108,0.5437,-0.15256,0.82217,360,0.52,-0.294,0.807,0.061,-0.061,0.0,-20.028,-31.185,-106.144,-18.387,-1.387,-7.527,25.28,-0.53326,0.3125,0.02557,0.78564,366,0.216,-0.375,0.897,-0.061,-0.244,-0.183,-22.61,-12.579,-178.171,-7.4,-0.3,-35.193,29.3,-0.00797,-0.11121,0.19305,-0.97479,378,0.926,-0.177,0.301,-0.183,0.0,0.0,-30.086,-69.51,-139.713,-29.1,-6.713,-7.2,29.82,0.13507,-0.59048,0.00912,-0.79553,384
91,0.937,-0.179,0.372,0.061,0.0,0.0,-25.615,-66.319,-172.941,-24.867,-6.5,-13.447,28.54,0.07108,0.5437,-0.15256,0.82217,361,0.52,-0.294,0.808,0.0,-0.122,0.0,-20.028,-31.185,-106.155,-18.387,-1.387,-7.527,25.28,-0.53326,0.3125,0.02557,0.78564,367,0.214,-0.376,0.896,-0.122,0.061,-0.244,-22.61,-12.579,-178.165,-7.4,-0.3,-35.193,29.3,-0.00797,-0.11121,0.19305,-0.97479,379,0.928,-0.177,0.301,-0.061,0.061,0.0,-30.086,-69.51,-139.724,-29.1,-6.713,-7.2,29.82,0.13507,-0.59048,0.00912,-0.79553,385
92,0.936,-0.178,0.371,0.061,0.061,0.0,-25.615,-66.319,-172.93,-24.867,-6.5,-13.447,28.54,0.07108,0.5437,-0.15256,0.82217,362,0.52,-0.297,0.81,-0.061,-0.244,0.0,-20.034,-31.19,-106.161,-18.387,-1.387,-7.527,25.28,-0.53326,0.3125,0.02557,0.78564,368,0.216,-0.377,0.897,-0.122,0.305,-0.244,-22.615,-12.574,-178.165,-7.4,-0.3,-35.193,29.3,-0.00797,-0.11121,0.19305,-0.97479,380,0.926,-0.176,0.302,-0.305,-0.061,0.0,-30.097,-69.505,-139.73,-29.1,-6.713,-7.2,29.82,0.13507,-0.59048,0.00912,-0.79553,386
93,0.937,-0.179,0.372,0.061,0.0,0.0,-25.615,-66.319,-172.941,-24.867,-6.5,-13.447,28.54,0.07108,0.5437,-0.15256,0.82217,363,0.52,-0.294,0.808,0.0,-0.122,0.0,-20.028,-31.185,-106.155,-18.387,-1.387,-7.527,25.28,-0.53326,0.3125,0.02557,0.78564,369,0.214,-0.376,0.896,-0.122,0.061,-0.244,-22.61,-12.579,-178.165,-7.4,-0.3,-35.193,29.3,-0.00797,-0.11121,0.19305,-0.97479,381,0.928,-0.177,0.301,-0.061,0.061,0.0,-30.086,-69.51,-139.724,-29.1,-6.713,-7.2,29.82,0.13507,-0.59048,0.00912,-0.79553,387
94,0.936,-0.178,0.371,0.061,0.061,0.0,-25.615,-66.319,-172.93,-24.867,-6.5,-13.447,28.54,0.07108,0.5437,-0.15256,0.82217,364,0.52,-0.297,0.81,-0.061,-0.244,0.0,-20.034,-31.19,-106.161,-18.387,-1.387,-7.527,25.28,-0.53326,0.3125,0.02557,0.78564,370,0.216,-0.377,0.897,-0.122,0.305,-0.244,-22.615,-12.574,-178.165,-7.4,-0.3,-35.193,29.3,-0.00797,-0.11121,0.19305,-0.97479,382,0.926,-0.176,0.302,-0.305,-0.061,0.0,-30.097,-69.505,-139.73,-29.1,-6.713,-7.2,29.82,0.13507,-0.59048,0.00912,-0.79553,388
95,0.937,-0.179,0.372,0.061,0.0,0.0,-25.615,-66.319,-172.941,-24.867,-6.5,-13.447,28.54,0.07108,0.5437,-0.15256,0.82217,365,0.52,-0.294,0.808,0.0,-0.122,0.0,-20.028,-31.185,-106.155,-18.387,-1.387,-7.527,25.28,-0.53326,0.3125,0.02557,0.78564,371,0.214,-0.376,0.896,-0.122,0.061,-0.244,-22.61,-12.579,-178.165,-7.4,-0.3,-35.193,29.3,-0.00797,-0.11121,0.19305,-0.97479,383,0.928,-0.177,0.301,-0.061,0.061,0.0,-30.086,-69.51,-139.724,-29.1,-6.713,-7.2,29.82,0.13507,-0.59048,0.00912,-0.79553,389
96,0.938,-0.178,0.371,0.061,0.061,0.0,-25.615,-66.319,-172.93,-24.867,-6.5,-13.447,28.54,0.07108,0.5437,-0.15256,0.82217,390,0.521,-0.297,0.81,-0.061,-0.244,0.0,-20.034,-31.19,-106.161,-18.413,-1.347,-7.62,25.28,-0.53326,0.3125,0.02557,0.78564,372,0.217,-0.377,0.897,-0.122,0.305,-0.244,-22.615,-12.574,-178.165,-7.4,-0.3,-35.193,29.3,-0.00797,-0.11121,0.19305,-0.97479,396,0.927,-0.176,0.302,-0.305,-0.061,0.0,-30.097,-69.505,-139.73,-29.1,-6.713,-7.2,29.82,0.13425,-0.59027,0.01065,-0.79581,402
97,0.936,-0.178,0.372,-0.061,-0.061,0.0,-25.615,-66.319,-172.919,-24.867,-6.5,-13.447,28.54,0.07108,0.5437,-0.15256,0.82217,391,0.522,-0.297,0.81,-0.061,-0.183,0.0,-20.034,-31.19,-106.172,-18.413,-1.347,-7.62,25.28,-0.53326,0.3125,0.02557,0.78564,373,0.218,-0.375,0.893,-0.305,0.366,-0.305,-22.621,-12.568,-178.165,-7.4,-0.3,-35.193,29.3,-0.00797,-0.11121,0.19305,-0.97479,397,0.925,-0.175,0.301,0.0,0.061,0.0,-30.103,-69.505,-139.735,-29.1,-6.713,-7.2,29.82,0.13425,-0.59027,0.01065,-0.79581,403
98,0.938,-0.178,0.371,0.0,-0.244,0.0,-25.615,-66.319,-172.908,-24.867,-6.5,-13.447,28.54,0.07108,0.5437,-0.15256,0.82217,392,0.521,-0.296,0.804,0.0,0.061,0.0,-20.039,-31.19,-106.177,-18.413,-1.347,-7.62,25.28,-0.53326,0.3125,0.02557,0.78564,374,0.217,-0.374,0.892,0.183,0.183,0.0,-22.621,-12.563,-178.154,-7.4,-0.3,-35.193,29.3,-0.00797,-0.11121,0.19305,-0.97479,398,0.927,-0.176,0.299,0.305,0.305,0.0,-30.097,-69.5,-139.752,-29.1,-6.713,-7.2,29.82,0.13425,-0.59027,0.01065,-0.79581,404
99,0.936,-0.178,0.372,-0.061,-0.061,0.0,-25.615,-66.319,-172.919,-24.867,-6.5,-13.447,28.54,0.07108,0.5437,-0.15256,0.82217,393,0.522,-0.297,0.81,-0.061,-0.183,0.0,-20.034,-31.19,-106.172,-18.413,-1.347,-7.62,25.28,-0.53326,0.3125,0.02557,0.78564,375,0.218,-0.375,0.893,-0.305,0.366,-0.305,-22.621,-12.568,-178.165,-7.4,-0.3,-35.193,29.3,-0.00797,-0.11121,0.19305,-0.97479,399,0.925,-0.175,0.301,0.0,0.061,0.0,-30.103,-69.505,-139.735,-29.1,-6.713,-7.2,29.82,0.13425,-0.59027,0.01065,-0.79581,405
100,0.938,-0.178,0.371,0.0,-0.244,0.0,-25.615,-66.319,-172.908,-24.867,-6.5,-13.447,28.54,0.07108,0.5437,-0.15256,0.82217,394,0.521,-0.296,0.804,0.0,0.061,0.0,-20.039,-31.19,-106.177,-18.413,-1.347,-7.62,25.28,-0.53326,0.3125,0.02557,0.78564,376,0.217,-0.374,0.892,0.183,0.183,0.0,-22.621,-12.563,-178.154,-7.4,-0.3,-35.193,29.3,-0.00797,-0.11121,0.19305,-0.97479,400,0.927,-0.176,0.299,0.305,0.305,0.0,-30.097,-69.5,-139.752,-29.1,-6.713,-7.2,29.82,0.13425,-0.59027,0.01065,-0.79581,406
101,0.936,-0.178,0.372,-0.061,-0.061,0.0,-25.615,-66.319,-172.919,-24.867,-6.5,-13.447,28.54,0.07108,0.5437,-0.15256,0.82217,395,0.522,-0.297,0.81,-0.061,-0.183,0.0,-20.034,-31.19,-106.172,-18.413,-1.347,-7.62,25.28,-0.53326,0.3125,0.02557,0.78564,377,0.218,-0.375,0.893,-0.305,0.366,-0.305,-22.621,-12.568,-178.165,-7.4,-0.3,-35.193,29.3,-0.00797,-0.11121,0.19305,-0.97479,401,0.925,-0.175,0.301,0.0,0.061,0.0,-30.103,-69.505,-139.735,-29.1,-6.713,-7.2,29.82,0.13425,-0.59027,0.01065,-0.79581,407
102,0.934,-0.178,0.371,0.0,-0.244,0.0,-25.615,-66.319,-172.908,-24.867,-6.5,-13.447,28.54,0.07108,0.5437,-0.15256,0.82217,408,0.522,-0.296,0.804,0.0,0.061,0.0,-20.039,-31.19,-106.177,-18.413,-1.347,-7.62,25.28,-0.53326,0.3125,0.02557,0.78564,426,0.218,-0.374,0.892,0.183,0.183,0.0,-22.621,-12.563,-178.154,-7.4,-0.3,-35.193,29.3,-0.00797,-0.11121,0.19305,-0.97479,414,0.923,-0.176,0.299,0.305,0.305,0.0,-30.097,-69.5,-139.752,-29.1,-6.713,-7.2,29.82,0.13425,-0.59027,0.01065,-0.79581,420
103,0.933,-0.177,0.37,0.305,0.061,0.0,-25.62,-66.319,-172.892,-24.867,-6.5,-13.447,28.54,0.07108,0.5437,-0.15256,0.82217,409,0.519,-0.293,0.804,0.244,0.305,0.0,-20.034,-31.185,-106.188,-18.413,-1.347,-7.62,25.28,-0.53326,0.3125,0.02557,0.78564,427,0.213,-0.375,0.894,0.732,0.244,0.0,-22.604,-12.563,-178.149,-7.4,-0.3,-35.193,29.3,-0.00797,-0.11121,0.19305,-0.97479,415,0.922,-0.176,0.301,0.183,0.366,0.0,-30.086,-69.489,-139.768,-29.1,-6.713,-7.2,29.82,0.13425,-0.59027,0.01065,-0.79581,421
104,0.934,-0.179,0.371,0.183,0.183,0.0,-25.615,-66.319,-172.886,-24.867,-6.5,-13.447,28.54,0.07108,0.5437,-0.15256,0.82217,410,0.522,-0.293,0.807,0.305,0.366,0.0,-20.028,-31.179,-106.205,-18.413,-1.347,-7.62,25.28,-0.53326,0.3125,0.02557,0.78564,428,0.218,-0.375,0.896,0.671,0.671,-0.061,-22.593,-12.546,-178.149,-7.4,-0.3,-35.193,29.3,-0.00797,-0.11121,0.19305,-0.97479,416,0.923,-0.177,0.3,0.0,0.244,0.0,-30.081,-69.483,-139.779,-29.1,-6.713,-7.2,29.82,0.13425,-0.59027,0.01065,-0.79581,422
105,0.933,-0.177,0.37,0.305,0.061,0.0,-25.62,-66.319,-172.892,-24.867,-6.5,-13.447,28.54,0.07108,0.5437,-0.15256,0.82217,411,0.519,-0.293,0.804,0.244,0.305,0.0,-20.034,-31.185,-106.188,-18.413,-1.347,-7.62,25.28,-0.53326,0.3125,0.02557,0.78564,429,0.213,-0.375,0.894,0.732,0.244,0.0,-22.604,-12.563,-178.149,-7.4,-0.3,-35.193,29.3,-0.00797,-0.11121,0.19305,-0.97479,417,0.922,-0.176,0.301,0.183,0.366,0.0,-30.086,-69.489,-139.768,-29.1,-6.713,-7.2,29.82,0.13425,-0.59027,0.01065,-0.79581,423
106,0.934,-0.179,0.371,0.183,0.183,0.0,-25.615,-66.319,-172.886,-24.867,-6.5,-13.447,28.54,0.07108,0.5437,-0.15256,0.82217,412,0.522,-0.293,0.807,0.305,0.366,0.0,-20.028,-31.179,-106.205,-18.413,-1.347,-7.62,25.28,-0.53326,0.3125,0.02557,0.78564,430,0.218,-0.375,0.896,0.671,0.671,-0.061,-22.593,-12.546,-178.149,-7.4,-0.3,-35.193,29.3,-0.00797,-0.11121,0.19305,-0.97479,418,0.923,-0.177,0.3,0.0,0.244,0.0,-30.081,-69.483,-139.779,-29.1,-6.713,-7.2,29.82,0.13425,-0.59027,0.01065,-0.79581,424
107,0.933,-0.177,0.37,0.305,0.061,0.0,-25.62,-66.319,-172.892,-24.867,-6.5,-13.447,28.54,0.07108,0.5437,-0.15256,0.82217,413,0.519,-0.293,0.804,0.244,0.305,0.0,-20.034,-31.185,-106.188,-18.413,-1.347,-7.62,25.28,-0.53326,0.3125,0.02557,0.78564,431,0.213,-0.375,0.894,0.732,0.244,0.0,-22.604,-12.563,-178.149,-7.4,-0.3,-35.193,29.3,-0.00797,-0.11121,0.19305,-0.97479,419,0.922,-0.176,0.301,0.183,0.366,0.0,-30.086,-69.489,-139.768,-29.1,-6.713,-7.2,29.82,0.13425,-0.59027,0.01065,-0.79581,425
108,0.934,-0.179,0.371,0.183,0.183,0.0,-25.615,-66.319,-172.886,-24.867,-6.5,-13.447,28.54,0.07108,0.5437,-0.15256,0.82217,438,0.517,-0.293,0.807,0.305,0.366,0.0,-20.028,-31.179,-106.205,-18.413,-1.347,-7.62,25.28,-0.53326,0.3125,0.02557,0.78564,432,0.21,-0.375,0.896,0.671,0.671,-0.061,-22.593,-12.546,-178.149,-7.4,-0.3,-35.193,29.3,-0.00797,-0.11121,0.19305,-0.97479,450,0.924,-0.177,0.3,0.0,0.244,0.0,-30.081,-69.483,-139.779,-29.1,-6.713,-7.2,29.82,0.13425,-0.59027,0.01065,-0.79581,456
109,0.935,-0.179,0.37,-0.183,0.244,0.0,-25.609,-66.313,-172.881,-24.867,-6.5,-13.447,28.54,0.07108,0.5437,-0.15256,0.82217,439,0.517,-0.297,0.808,0.183,0.244,0.0,-20.023,-31.174,-106.216,-18.413,-1.347,-7.62,25.28,-0.53326,0.3125,0.02557,0.78564,433,0.211,-0.377,0.898,0.244,0.61,0.0,-22.588,-12.535,-178.143,-7.4,-0.3,-35.193,29.3,-0.00797,-0.11121,0.19305,-0.97479,451,0.924,-0.177,0.3,-0.427,0.061,0.0,-30.086,-69.478,-139.79,-29.1,-6.713,-7.2,29.82,0.13425,-0.59027,0.01065,-0.79581,457
110,0.934,-0.179,0.369,-0.366,0.244,0.0,-25.609,-66.308,-172.875,-24.867,-6.5,-13.447,28.54,0.07108,0.5437,-0.15256,0.82217,440,0.517,-0.299,0.809,0.183,0.183,0.0,-20.017,-31.168,-106.227,-18.413,-1.347,-7.62,25.28,-0.53326,0.3125,0.02557,0.78564,434,0.21,-0.377,0.9,0.061,0.305,0.0,-22.588,-12.53,-178.138,-7.4,-0.3,-35.193,29.3,-0.00797,-0.11121,0.19305,-0.97479,452,0.924,-0.177,0.301,-0.305,0.122,0.0,-30.097,-69.472,-139.801,-29.1,-6.713,-7.2,29.82,0.13425,-0.59027,0.01065,-0.79581,458
111,0.935,-0.179,0.37,-0.183,0.244,0.0,-25.609,-66.313,-172.881,-24.867,-6.5,-13.447,28.54,0.07108,0.5437,-0.15256,0.82217,441,0.517,-0.297,0.808,0.183,0.244,0.0,-20.023,-31.174,-106.216,-18.413,-1.347,-7.62,25.28,-0.53326,0.3125,0.02557,0.78564,435,0.211,-0.377,0.898,0.244,0.61,0.0,-22.588,-12.535,-178.143,-7.4,-0.3,-35.193,29.3,-0.00797,-0.11121,0.19305,-0.97479,453,0.924,-0.177,0.3,-0.427,0.061,0.0,-30.086,-69.478,-139.79,-29.1,-6.713,-7.2,29.82,0.13425,-0.59027,0.01065,-0.79581,459
112,0.934,-0.179,0.369,-0.366,0.244,0.0,-25.609,-66.308,-172.875,-24.867,-6.5,-13.447,28.54,0.07108,0.5437,-0.15256,0.82217,442,0.517,-0.299,0.809,0.183,0.183,0.0,-20.017,-31.168,-106.227,-18.413,-1.347,-7.62,25.28,-0.53326,0.3125,0.02557,0.78564,436,0.21,-0.377,0.9,0.061,0.305,0.0,-22.588,-12.53,-178.138,-7.4,-0.3,-35.193,29.3,-0.00797,-0.11121,0.19305,-0.97479,454,0.924,-0.177,0.301,-0.305,0.122,0.0,-30.097,-69.472,-139.801,-29.1,-6.713,-7.2,29.82,0.13425,-0.59027,0.01065,-0.79581,460
113,0.935,-0.179,0.37,-0.183,0.244,0.0,-25.609,-66.313,-172.881,-24.867,-6.5,-13.447,28.54,0.07108,0.5437,-0.15256,0.82217,443,0.517,-0.297,0.808,0.183,0.244,0.0,-20.023,-31.174,-106.216,-18.413,-1.347,-7.62,25.28,-0.53326,0.3125,0.02557,0.78564,437,0.211,-0.377,0.898,0.244,0.61,0.0,-22.588,-12.535,-178.143,-7.4,-0.3,-35.193,29.3,-0.00797,-0.11121,0.19305,-0.97479,455,0.924,-0.177,0.3,-0.427,0.061,0.0,-30.086,-69.478,-139.79,-29.1,-6.713,-7.2,29.82,0.13425,-0.59027,0.01065,-0.79581,461
114,0.934,-0.179,0.369,-0.366,0.244,0.0,-25.609,-66.308,-172.875,-24.867,-6.5,-13.447,28.54,0.07108,0.5437,-0.15256,0.82217,462,0.517,-0.299,0.809,0.183,0.183,0.0,-20.017,-31.168,-106.227,-18.413,-1.347,-7.62,25.28,-0.53214,0.31229,0.02496,0.7865,444,0.21,-0.377,0.9,0.061,0.305,0.0,-22.588,-12.53,-178.138,-7.4,-0.3,-35.193,29.3,-0.00797,-0.11121,0.19305,-0.97479,480,0.924,-0.177,0.301,-0.305,0.122,0.0,-30.097,-69.472,-139.801,-29.1,-6.713,-7.2,29.82,0.13425,-0.59027,0.01065,-0.79581,468
115,0.936,-0.178,0.37,-0.244,0.0,0.0,-25.615,-66.308,-172.87,-24.867,-6.5,-13.447,28.54,0.07108,0.5437,-0.15256,0.82217,463,0.517,-0.296,0.811,0.244,0.061,0.0,-20.017,-31.163,-106.238,-18.413,-1.347,-7.62,25.28,-0.53214,0.31229,0.02496,0.7865,445,0.212,-0.375,0.901,0.061,0.183,-0.061,-22.588,-12.524,-178.132,-7.4,-0.3,-35.193,29.3,-0.00797,-0.11121,0.19305,-0.97479,481,0.924,-0.177,0.301,-0.244,0.061,0.0,-30.103,-69.472,-139.807,-29.1,-6.713,-7.2,29.82,0.13425,-0.59027,0.01065,-0.79581,469
116,0.934,-0.18,0.37,-0.061,0.0,0.0,-25.62,-66.302,-172.859,-24.867,-6.5,-13.447,28.54,0.07108,0.5437,-0.15256,0.82217,464,0.517,-0.295,0.812,0.122,-0.061,0.0,-20.012,-31.163,-106.243,-18.413,-1.347,-7.62,25.28,-0.53214,0.31229,0.02496,0.7865,446,0.21,-0.375,0.9,0.122,-0.122,-0.183,-22.588,-12.524,-178.121,-7.4,-0.3,-35.193,29.3,-0.00797,-0.11121,0.19305,-0.97479,482,0.924,-0.178,0.301,-0.183,0.0,0.0,-30.108,-69.467,-139.812,-29.1,-6.713,-7.2,29.82,0.13425,-0.59027,0.01065,-0.79581,470
117,0.936,-0.178,0.37,-0.244,0.0,0.0,-25.615,-66.308,-172.87,-24.867,-6.5,-13.447,28.54,0.07108,0.5437,-0.15256,0.82217,465,0.517,-0.296,0.811,0.244,0.061,0.0,-20.017,-31.163,-106.238,-18.413,-1.347,-7.62,25.28,-0.53214,0.31229,0.02496,0.7865,447,0.212,-0.375,0.901,0.061,0.183,-0.061,-22.588,-12.524,-178.132,-7.4,-0.3,-35.193,29.3,-0.00797,-0.11121,0.19305,-0.97479,483,0.924,-0.177,0.301,-0.244,0.061,0.0,-30.103,-69.472,-139.807,-29.1,-6.713,-7.2,29.82,0.13425,-0.59027,0.01065,-0.79581,471
118,0.934,-0.18,0.37,-0.061,0.0,0.0,-25.62,-66.302,-172.859,-24.867,-6.5,-13.447,28.54,0.07108,0.5437,-0.15256,0.82217,466,0.517,-0.295,0.812,0.122,-0.061,0.0,-20.012,-31.163,-106.243,-18.413,-1.347,-7.62,25.28,-0.53214,0.31229,0.02496,0.7865,448,0.21,-0.375,0.9,0.122,-0.122,-0.183,-22.588,-12.524,-178.121,-7.4,-0.3,-35.193,29.3,-0.00797,-0.11121,0.19305,-0.97479,484,0.924,-0.178,0.301,-0.183,0.0,0.0,-30.108,-69.467,-139.812,-29.1,-6.713,-7.2,29.82,0.13425,-0.59027,0.01065,-0.79581,472
119,0.936,-0.178,0.37,-0.244,0.0,0.0,-25.615,-66.308,-172.87,-24.867,-6.5,-13.447,28.54,0.07108,0.5437,-0.15256,0.82217,467,0.517,-0.296,0.811,0.244,0.061,0.0,-20.017,-31.163,-106.238,-18.413,-1.347,-7.62,25.28,-0.53214,0.31229,0.02496,0.7865,449,0.212,-0.375,0.901,0.061,0.183,-0.061,-22.588,-12.524,-178.132,-7.4,-0.3,-35.193,29.3,-0.00797,-0.11121,0.19305,-0.97479,485,0.924,-0.177,0.301,-0.244,0.061,0.0,-30.103,-69.472,-139.807,-29.1,-6.713,-7.2,29.82,0.13425,-0.59027,0.01065,-0.79581,473
120,0.935,-0.18,0.37,-0.061,0.0,0.0,-25.62,-66.302,-172.859,-24.867,-6.5,-13.447,28.54,0.07108,0.5437,-0.15256,0.82217,474,0.518,-0.295,0.812,0.122,-0.061,0.0,-20.012,-31.163,-106.243,-18.413,-1.347,-7.62,25.28,-0.53214,0.31229,0.02496,0.7865,492,0.21,-0.375,0.9,0.122,-0.122,-0.183,-22.588,-12.524,-178.121,-7.7,-0.507,-34.327,29.3,-0.00797,-0.11121,0.19305,-0.97479,504,0.923,-0.178,0.301,-0.183,0.0,0.0,-30.108,-69.467,-139.812,-29.1,-6.713,-7.2,29.82,0.13425,-0.59027,0.01065,-0.79581,486
121,0.934,-0.179,0.37,-0.061,-0.244,0.0,-25.62,-66.308,-172.848,-24.867,-6.5,-13.447,28.54,0.07108,0.5437,-0.15256,0.82217,475,0.517,-0.296,0.812,0.061,-0.122,0.0,-20.012,-31.163,-106.254,-18.413,-1.347,-7.62,25.28,-0.53214,0.31229,0.02496,0.7865,493,0.21,-0.376,0.899,0.0,-0.244,-0.183,-22.588,-12.53,-178.116,-7.7,-0.507,-34.327,29.3,-0.00797,-0.11121,0.19305,-0.97479,505,0.923,-0.178,0.3,-0.305,-0.183,0.0,-30.125,-69.472,-139.812,-29.1,-6.713,-7.2,29.82,0.13425,-0.59027,0.01065,-0.79581,487
122,0.935,-0.18,0.371,0.0,-0.244,0.0,-25.631,-66.308,-172.837,-24.867,-6.5,-13.447,28.54,0.07108,0.5437,-0.15256,0.82217,476,0.518,-0.296,0.81,0.0,-0.183,0.0,-20.017,-31.168,-106.26,-18.413,-1.347,-7.62,25.28,-0.53214,0.31229,0.02496,0.7865,494,0.21,-0.373,0.896,-0.305,-0.244,-0.183,-22.599,-12.53,-178.11,-7.7,-0.507,-34.327,29.3,-0.00797,-0.11121,0.19305,-0.97479,506,0.923,-0.178,0.301,-0.244,-0.244,0.0,-30.141,-69.472,-139.812,-29.1,-6.713,-7.2,29.82,0.13425,-0.59027,0.01065,-0.79581,488
123,0.934,-0.179,0.37,-0.061,-0.244,0.0,-25.62,-66.308,-172.848,-24.867,-6.5,-13.447,28.54,0.07108,0.5437,-0.15256,0.82217,477,0.517,-0.296,0.812,0.061,-0.122,0.0,-20.012,-31.163,-106.254,-18.413,-1.347,-7.62,25.28,-0.53214,0.31229,0.02496,0.7865,495,0.21,-0.376,0.899,0.0,-0.244,-0.183,-22.588,-12.53,-178.116,-7.7,-0.507,-34.327,29.3,-0.00797,-0.11121,0.19305,-0.97479,507,0.923,-0.178,0.3,-0.305,-0.183,0.0,-30.125,-69.472,-139.812,-29.1,-6.713,-7.2,29.82,0.13425,-0.59027,0.01065,-0.79581,489
124,0.935,-0.18,0.371,0.0,-0.244,0.0,-25.631,-66.308,-172.837,-24.867,-6.5,-13.447,28.54,0.07108,0.5437,-0.15256,0.82217,478,0.518,-0.296,0.81,0.0,-0.183,0.0,-20.017,-31.168,-106.26,-18.413,-1.347,-7.62,25.28,-0.53214,0.31229,0.02496,0.7865,496,0.21,-0.373,0.896,-0.305,-0.244,-0.183,-22.599,-12.53,-178.11,-7.7,-0.507,-34.327,29.3,-0.00797,-0.11121,0.19305,-0.97479,508,0.923,-0.178,0.301,-0.244,-0.244,0.0,-30.141,-69.472,-139.812,-29.1,-6.713,-7.2,29.82,0.13425,-0.59027,0.01065,-0.79581,490
125,0.934,-0.179,0.37,-0.061,-0.244,0.0,-25.62,-66.308,-172.848,-24.867,-6.5,-13.447,28.54,0.07108,0.5437,-0.15256,0.82217,479,0.517,-0.296,0.812,0.061,-0.122,0.0,-20.012,-31.163,-106.254,-18.413,-1.347,-7.62,25.28,-0.53214,0.31229,0.02496,0.7865,497,0.21,-0.376,0.899,0.0,-0.244,-0.183,-22.588,-12.53,-178.116,-7.7,-0.507,-34.327,29.3,-0.00797,-0.11121,0.19305,-0.97479,509,0.923,-0.178,0.3,-0.305,-0.183,0.0,-30.125,-69.472,-139.812,-29.1,-6.713,-7.2,29.82,0.13425,-0.59027,0.01065,-0.79581,491
126,0.934,-0.18,0.371,0.0,-0.244,0.0,-25.631,-66.308,-172.837,-24.673,-6.513,-13.853,28.54,0.07108,0.5437,-0.15256,0.82217,510,0.516,-0.296,0.81,0.0,-0.183,0.0,-20.017,-31.168,-106.26,-18.413,-1.347,-7.62,25.28,-0.53214,0.31229,0.02496,0.7865,498,0.213,-0.373,0.896,-0.305,-0.244,-0.183,-22.599,-12.53,-178.11,-7.7,-0.507,-34.327,29.3,-0.00797,-0.11121,0.19305,-0.97479,522,0.922,-0.178,0.301,-0.244,-0.244,0.0,-30.141,-69.472,-139.812,-29.1,-6.713,-7.2,29.82,0.13425,-0.59027,0.01065,-0.79581,528
127,0.933,-0.179,0.371,0.0,-0.244,0.0,-25.637,-66.313,-172.82,-24.673,-6.513,-13.853,28.54,0.07108,0.5437,-0.15256,0.82217,511,0.517,-0.293,0.809,-0.122,-0.183,0.0,-20.017,-31.168,-106.265,-18.413,-1.347,-7.62,25.28,-0.53214,0.31229,0.02496,0.7865,499,0.212,-0.371,0.896,0.0,-0.244,0.0,-22.599,-12.535,-178.099,-7.7,-0.507,-34.327,29.3,-0.00797,-0.11121,0.19305,-0.97479,523,0.922,-0.179,0.301,-0.183,-0.244,0.0,-30.157,-69.472,-139.812,-29.1,-6.713,-7.2,29.82,0.13425,-0.59027,0.01065,-0.79581,529
128,0.934,-0.179,0.372,0.0,-0.244,0.0,-25.642,-66.319,-172.809,-24.673,-6.513,-13.853,28.54,0.07108,0.5437,-0.15256,0.82217,512,0.516,-0.292,0.808,-0.122,-0.122,0.0,-20.023,-31.168,-106.276,-18.413,-1.347,-7.62,25.28,-0.53214,0.31229,0.02496,0.7865,500,0.213,-0.373,0.896,-0.061,-0.488,-0.122,-22.599,-12.541,-178.088,-7.7,-0.507,-34.327,29.3,-0.00797,-0.11121,0.19305,-0.97479,524,0.922,-0.178,0.301,-0.122,-0.183,0.0,-30.168,-69.472,-139.812,-29.1,-6.713,-7.2,29.82,0.13425,-0.59027,0.01065,-0.79581,530
129,0.933,-0.179,0.371,0.0,-0.244,0.0,-25.637,-66.313,-172.82,-24.673,-6.513,-13.853,28.54,0.07108,0.5437,-0.15256,0.82217,513,0.517,-0.293,0.809,-0.122,-0.183,0.0,-20.017,-31.168,-106.265,-18.413,-1.347,-7.62,25.28,-0.53214,0.31229,0.02496,0.7865,501,0.212,-0.371,0.896,0.0,-0.244,0.0,-22.599,-12.535,-178.099,-7.7,-0.507,-34.327,29.3,-0.00797,-0.11121,0.19305,-0.97479,525,0.922,-0.179,0.301,-0.183,-0.244,0.0,-30.157,-69.472,-139.812,-29.1,-6.713,-7.2,29.82,0.13425,-0.59027,0.01065,-0.79581,531
130,0.934,-0.179,0.372,0.0,-0.244,0.0,-25.642,-66.319,-172.809,-24.673,-6.513,-13.853,28.54,0.07108,0.5437,-0.15256,0.82217,514,0.516,-0.292,0.808,-0.122,-0.122,0.0,-20.023,-31.168,-106.276,-18.413,-1.347,-7.62,25.28,-0.53214,0.31229,0.02496,0.7865,502,0.213,-0.373,0.896,-0.061,-0.488,-0.122,-22.599,-12.541,-178.088,-7.7,-0.507,-34.327,29.3,-0.00797,-0.11121,0.19305,-0.97479,526,0.922,-0.178,0.301,-0.122,-0.183,0.0,-30.168,-69.472,-139.812,-29.1,-6.713,-7.2,29.82,0.13425,-0.59027,0.01065,-0.79581,532
131,0.933,-0.179,0.371,0.0,-0.244,0.0,-25.637,-66.313,-172.82,-24.673,-6.513,-13.853,28.54,0.07108,0.5437,-0.15256,0.82217,515,0.517,-0.293,0.809,-0.122,-0.183,0.0,-20.017,-31.168,-106.265,-18.413,-1.347,-7.62,25.28,-0.53214,0.31229,0.02496,0.7865,503,0.212,-0.371,0.896,0.0,-0.244,0.0,-22.599,-12.535,-178.099,-7.7,-0.507,-34.327,29.3,-0.00797,-0.11121,0.19305,-0.97479,527,0.922,-0.179,0.301,-0.183,-0.244,0.0,-30.157,-69.472,-139.812,-29.1,-6.713,-7.2,29.82,0.13425,-0.59027,0.01065,-0.79581,533
132,0.935,-0.179,0.372,0.0,-0.244,0.0,-25.642,-66.319,-172.809,-24.673,-6.513,-13.853,28.54,0.06995,0.54391,-0.15198,0.82224,540,0.517,-0.292,0.808,-0.122,-0.122,0.0,-20.023,-31.168,-106.276,-18.413,-1.347,-7.62,25.28,-0.53214,0.31229,0.02496,0.7865,516,0.213,-0.373,0.896,-0.061,-0.488,-0.122,-22.599,-12.541,-178.088,-7.7,-0.507,-34.327,29.3,-0.00516,-0.11038,0.19299,-0.97491,534,0.924,-0.178,0.301,-0.122,-0.183,0.0,-30.168,-69.472,-139.812,-29.1,-6.713,-7.2,29.82,0.13425,-0.59027,0.01065,-0.79581,552
133,0.935,-0.179,0.373,0.0,-0.061,0.0,-25.648,-66.319,-172.793,-24.673,-6.513,-13.853,28.54,0.06995,0.54391,-0.15198,0.82224,541,0.517,-0.293,0.807,-0.305,-0.122,0.0,-20.028,-31.168,-106.282,-18.413,-1.347,-7.62,25.28,-0.53214,0.31229,0.02496,0.7865,517,0.212,-0.373,0.895,-0.366,-0.671,-0.122,-22.61,-12.552,-178.077,-7.7,-0.507,-34.327,29.3,-0.00516,-0.11038,0.19299,-0.97491,535,0.925,-0.178,0.302,-0.183,-0.244,0.0,-30.185,-69.478,-139.812,-29.1,-6.713,-7.2,29.82,0.13425,-0.59027,0.01065,-0.79581,553
134,0.935,-0.179,0.374,-0.061,0.061,0.0,-25.653,-66.319,-172.782,-24.673,-6.513,-13.853,28.54,0.06995,0.54391,-0.15198,0.82224,542,0.517,-0.295,0.808,-0.305,-0.183,0.0,-20.034,-31.168,-106.287,-18.413,-1.347,-7.62,25.28,-0.53214,0.31229,0.02496,0.7865,518,0.213,-0.374,0.893,0.0,0.0,0.0,-22.61,-12.552,-178.072,-7.7,-0.507,-34.327,29.3,-0.00516,-0.11038,0.19299,-0.97491,536,0.924,-0.178,0.303,-0.244,-0.305,0.0,-30.201,-69.478,-139.807,-29.1,-6.713,-7.2,29.82,0.13425,-0.59027,0.01065,-0.79581,554
135,0.935,-0.179,0.373,0.0,-0.061,0.0,-25.648,-66.319,-172.793,-24.673,-6.513,-13.853,28.54,0.06995,0.54391,-0.15198,0.82224,543,0.517,-0.293,0.807,-0.305,-0.122,0.0,-20.028,-31.168,-106.282,-18.413,-1.347,-7.62,25.28,-0.53214,0.31229,0.02496,0.7865,519,0.212,-0.373,0.895,-0.366,-0.671,-0.122,-22.61,-12.552,-178.077,-7.7,-0.507,-34.327,29.3,-0.00516,-0.11038,0.19299,-0.97491,537,0.925,-0.178,0.302,-0.183,-0.244,0.0,-30.185,-69.478,-139.812,-29.1,-6.713,-7.2,29.82,0.13425,-0.59027,0.01065,-0.79581,555
136,0.935,-0.179,0.374,-0.061,0.061,0.0,-25.653,-66.319,-172.782,-24.673,-6.513,-13.853,28.54,0.06995,0.54391,-0.15198,0.82224,544,0.517,-0.295,0.808,-0.305,-0.183,0.0,-20.034,-31.168,-106.287,-18.413,-1.347,-7.62,25.28,-0.53214,0.31229,0.02496,0.7865,520,0.213,-0.374,0.893,0.0,0.0,0.0,-22.61,-12.552,-178.072,-7.7,-0.507,-34.327,29.3,-0.00516,-0.11038,0.19299,-0.97491,538,0.924,-0.178,0.303,-0.244,-0.305,0.0,-30.201,-69.478,-139.807,-29.1,-6.713,-7.2,29.82,0.13425,-0.59027,0.01065,-0.79581,556
137,0.935,-0.179,0.373,0.0,-0.061,0.0,-25.648,-66.319,-172.793,-24.673,-6.513,-13.853,28.54,0.06995,0.54391,-0.15198,0.82224,545,0.517,-0.293,0.807,-0.305,-0.122,0.0,-20.028,-31.168,-106.282,-18.413,-1.347,-7.62,25.28,-0.53214,0.31229,0.02496,0.7865,521,0.212,-0.373,0.895,-0.366,-0.671,-0.122,-22.61,-12.552,-178.077,-7.7,-0.507,-34.327,29.3,-0.00516,-0.11038,0.19299,-0.97491,539,0.925,-0.178,0.302,-0.183,-0.244,0.0,-30.185,-69.478,-139.812,-29.1,-6.713,-7.2,29.82,0.13425,-0.59027,0.01065,-0.79581,557
138,0.936,-0.179,0.374,-0.061,0.061,0.0,-25.653,-66.319,-172.782,-24.673,-6.513,-13.853,28.54,0.06995,0.54391,-0.15198,0.82224,558,0.518,-0.295,0.808,-0.305,-0.183,0.0,-20.034,-31.168,-106.287,-18.413,-1.347,-7.62,25.28,-0.53214,0.31229,0.02496,0.7865,564,0.212,-0.374,0.893,0.0,0.0,0.0,-22.61,-12.552,-178.072,-7.7,-0.507,-34.327,29.3,-0.00516,-0.11038,0.19299,-0.97491,546,0.925,-0.178,0.303,-0.244,-0.305,0.0,-30.201,-69.478,-139.807,-28.94,-6.207,-6.873,29.82,0.13425,-0.59027,0.01065,-0.79581,576
139,0.934,-0.179,0.373,-0.061,0.0,0.0,-25.653,-66.313,-172.776,-24.673,-6.513,-13.853,28.54,0.06995,0.54391,-0.15198,0.82224,559,0.518,-0.297,0.809,-0.183,-0.061,0.0,-20.039,-31.168,-106.293,-18.413,-1.347,-7.62,25.28,-0.53214,0.31229,0.02496,0.7865,565,0.214,-0.376,0.897,0.122,0.427,0.061,-22.604,-12.541,-178.066,-7.7,-0.507,-34.327,29.3,-0.00516,-0.11038,0.19299,-0.97491,547,0.924,-0.178,0.302,-0.305,-0.183,0.0,-30.212,-69.478,-139.807,-28.94,-6.207,-6.873,29.82,0.13425,-0.59027,0.01065,-0.79581,577
140,0.936,-0.179,0.371,0.0,-0.122,0.0,-25.659,-66.313,-172.766,-24.673,-6.513,-13.853,28.54,0.06995,0.54391,-0.15198,0.82224,560,0.518,-0.297,0.809,-0.122,0.0,0.366,-20.045,-31.168,-106.298,-18.413,-1.347,-7.62,25.28,-0.53214,0.31229,0.02496,0.7865,566,0.212,-0.376,0.897,0.122,0.122,0.122,-22.604,-12.535,-178.055,-7.7,-0.507,-34.327,29.3,-0.00516,-0.11038,0.19299,-0.97491,548,0.925,-0.176,0.3,-0.183,-0.122,0.0,-30.223,-69.478,-139.812,-28.94,-6.207,-6.873,29.82,0.13425,-0.59027,0.01065,-0.79581,578
141,0.934,-0.179,0.373,-0.061,0.0,0.0,-25.653,-66.313,-172.776,-24.673,-6.513,-13.853,28.54,0.06995,0.54391,-0.15198,0.82224,561,0.518,-0.297,0.809,-0.183,-0.061,0.0,-20.039,-31.168,-106.293,-18.413,-1.347,-7.62,25.28,-0.53214,0.31229,0.02496,0.7865,567,0.214,-0.376,0.897,0.122,0.427,0.061,-22.604,-12.541,-178.066,-7.7,-0.507,-34.327,29.3,-0.00516,-0.11038,0.19299,-0.97491,549,0.924,-0.178,0.302,-0.305,-0.183,0.0,-30.212,-69.478,-139.807,-28.94,-6.207,-6.873,29.82,0.13425,-0.59027,0.01065,-0.79581,579
142,0.936,-0.179,0.371,0.0,-0.122,0.0,-25.659,-66.313,-172.766,-24.673,-6.513,-13.853,28.54,0.06995,0.54391,-0.15198,0.82224,562,0.518,-0.297,0.809,-0.122,0.0,0.366,-20.045,-31.168,-106.298,-18.413,-1.347,-7.62,25.28,-0.53214,0.31229,0.02496,0.7865,568,0.212,-0.376,0.897,0.122,0.122,0.122,-22.604,-12.535,-178.055,-7.7,-0.507,-34.327,29.3,-0.00516,-0.11038,0.19299,-0.97491,550,0.925,-0.176,0.3,-0.183,-0.122,0.0,-30.223,-69.478,-139.812,-28.94,-6.207,-6.873,29.82,0.13425,-0.59027,0.01065,-0.79581,580
143,0.934,-0.179,0.373,-0.061,0.0,0.0,-25.653,-66.313,-172.776,-24.673,-6.513,-13.853,28.54,0.06995,0.54391,-0.15198,0.82224,563,0.518,-0.297,0.809,-0.183,-0.061,0.0,-20.039,-31.168,-106.293,-18.413,-1.347,-7.62,25.28,-0.53214,0.31229,0.02496,0.7865,569,0.214,-0.376,0.897,0.122,0.427,0.061,-22.604,-12.541,-178.066,-7.7,-0.507,-34.327,29.3,-0.00516,-0.11038,0.19299,-0.97491,551,0.924,-0.178,0.302,-0.305,-0.183,0.0,-30.212,-69.478,-139.807,-28.94,-6.207,-6.873,29.82,0.13425,-0.59027,0.01065,-0.79581,581
144,0.937,-0.179,0.371,0.0,-0.122,0.0,-25.659,-66.313,-172.766,-24.673,-6.513,-13.853,28.54,0.06995,0.54391,-0.15198,0.82224,582,0.52,-0.297,0.809,-0.122,0.0,0.366,-20.045,-31.168,-106.298,-18.413,-1.347,-7.62,25.28,-0.53214,0.31229,0.02496,0.7865,570,0.217,-0.376,0.897,0.122,0.122,0.122,-22.604,-12.535,-178.055,-7.7,-0.507,-34.327,29.3,-0.00516,-0.11038,0.19299,-0.97491,594,0.927,-0.176,0.3,-0.183,-0.122,0.0,-30.223,-69.478,-139.812,-28.94,-6.207,-6.873,29.82,0.13425,-0.59027,0.01065,-0.79581,600
145,0.938,-0.178,0.37,0.0,0.183,0.0,-25.659,-66.313,-172.76,-24.673,-6.513,-13.853,28.54,0.06995,0.54391,-0.15198,0.82224,583,0.522,-0.296,0.809,-0.061,-0.061,0.305,-20.05,-31.163,-106.298,-18.413,-1.347,-7.62,25.28,-0.53214,0.31229,0.02496,0.7865,571,0.216,-0.378,0.896,0.122,-0.366,0.305,-22.604,-12.535,-178.039,-7.7,-0.507,-34.327,29.3,-0.00516,-0.11038,0.19299,-0.97491,595,0.927,-0.177,0.299,-0.427,-0.366,0.0,-30.245,-69.483,-139.807,-28.94,-6.207,-6.873,29.82,0.13425,-0.59027,0.01065,-0.79581,601
146,0.937,-0.179,0.371,-0.122,0.366,0.0,-25.653,-66.308,-172.755,-24.673,-6.513,-13.853,28.54,0.06995,0.54391,-0.15198,0.82224,584,0.52,-0.299,0.807,0.183,-0.061,0.244,-20.05,-31.163,-106.298,-18.413,-1.347,-7.62,25.28,-0.53214,0.31229,0.02496,0.7865,572,0.217,-0.376,0.897,-0.427,-0.061,0.183,-22.615,-12.535,-178.028,-7.7,-0.507,-34.327,29.3,-0.00516,-0.11038,0.19299,-0.97491,596,0.927,-0.178,0.299,-0.671,-0.244,0.0,-30.273,-69.483,-139.807,-28.94,-6.207,-6.873,29.82,0.13425,-0.59027,0.01065,-0.79581,602
147,0.938,-0.178,0.37,0.0,0.183,0.0,-25.659,-66.313,-172.76,-24.673,-6.513,-13.853,28.54,0.06995,0.54391,-0.15198,0.82224,585,0.522,-0.296,0.809,-0.061,-0.061,0.305,-20.05,-31.163,-106.298,-18.413,-1.347,-7.62,25.28,-0.53214,0.31229,0.02496,0.7865,573,0.216,-0.378,0.896,0.122,-0.366,0.305,-22.604,-12.535,-178.039,-7.7,-0.507,-34.327,29.3,-0.00516,-0.11038,0.19299,-0.97491,597,0.927,-0.177,0.299,-0.427,-0.366,0.0,-30.245,-69.483,-139.807,-28.94,-6.207,-6.873,29.82,0.13425,-0.59027,0.01065,-0.79581,603
148,0.937,-0.179,0.371,-0.122,0.366,0.0,-25.653,-66.308,-172.755,-24.673,-6.513,-13.853,28.54,0.06995,0.54391,-0.15198,0.82224,586,0.52,-0.299,0.807,0.183,-0.061,0.244,-20.05,-31.163,-106.298,-18.413,-1.347,-7.62,25.28,-0.53214,0.31229,0.02496,0.7865,574,0.217,-0.376,0.897,-0.427,-0.061,0.183,-22.615,-12.535,-178.028,-7.7,-0.507,-34.327,29.3,-0.00516,-0.11038,0.19299,-0.97491,598,0.927,-0.178,0.299,-0.671,-0.244,0.0,-30.273,-69.483,-139.807,-28.94,-6.207,-6.873,29.82,0.13425,-0.59027,0.01065,-0.79581,604
149,0.938,-0.178,0.37,0.0,0.183,0.0,-25.659,-66.313,-172.76,-24.673,-6.513,-13.853,28.54,0.06995,0.54391,-0.15198,0.82224,587,0.522,-0.296,0.809,-0.061,-0.061,0.305,-20.05,-31.163,-106.298,-18.413,-1.347,-7.62,25.28,-0.53214,0.31229,0.02496,0.7865,575,0.216,-0.378,0.896,0.122,-0.366,0.305,-22.604,-12.535,-178.039,-7.7,-0.507,-34.327,29.3,-0.00516,-0.11038,0.19299,-0.97491,599,0.927,-0.177,0.299,-0.427,-0.366,0.0,-30.245,-69.483,-139.807,-28.94,-6.207,-6.873,29.82,0.13425,-0.59027,0.01065,-0.79581,605
150,0.935,-0.179,0.371,-0.122,0.366,0.0,-25.653,-66.308,-172.755,-24.673,-6.513,-13.853,28.54,0.06995,0.54391,-0.15198,0.82224,606,0.521,-0.299,0.807,0.183,-0.061,0.244,-20.05,-31.163,-106.298,-18.413,-1.347,-7.62,25.28,-0.53214,0.31229,0.02496,0.7865,588,0.208,-0.376,0.897,-0.427,-0.061,0.183,-22.615,-12.535,-178.028,-7.7,-0.507,-34.327,29.3,-0.00516,-0.11038,0.19299,-0.97491,612,0.923,-0.178,0.299,-0.671,-0.244,0.0,-30.273,-69.483,-139.807,-28.94,-6.207,-6.873,29.82,0.13278,-0.59033,0.01245,-0.79599,618
151,0.932,-0.179,0.371,-0.244,0.244,0.0,-25.653,-66.302,-172.755,-24.673,-6.513,-13.853,28.54,0.06995,0.54391,-0.15198,0.82224,607,0.515,-0.297,0.807,0.122,-0.122,0.122,-20.056,-31.163,-106.304,-18.413,-1.347,-7.62,25.28,-0.53214,0.31229,0.02496,0.7865,589,0.21,-0.367,0.901,-1.526,1.038,-0.122,-22.648,-12.513,-178.022,-7.7,-0.507,-34.327,29.3,-0.00516,-0.11038,0.19299,-0.97491,613,0.92,-0.177,0.298,-0.671,-0.061,0.0,-30.289,-69.483,-139.807,-28.94,-6.207,-6.873,29.82,0.13278,-0.59033,0.01245,-0.79599,619
152,0.935,-0.177,0.368,-0.427,0.366,0.0,-25.653,-66.297,-172.749,-24.673,-6.513,-13.853,28.54,0.06995,0.54391,-0.15198,0.82224,608,0.521,-0.288,0.812,-0.61,-0.427,0.366,-20.067,-31.163,-106.304,-18.413,-1.347,-7.62,25.28,-0.53214,0.31229,0.02496,0.7865,590,0.208,-0.37,0.898,-1.526,1.16,-0.793,-22.67,-12.497,-178.044,-7.7,-0.507,-34.327,29.3,-0.00516,-0.11038,0.19299,-0.97491,614,0.923,-0.176,0.298,-0.61,-0.427,0.305,-30.328,-69.483,-139.785,-28.94,-6.207,-6.873,29.82,0.13278,-0.59033,0.01245,-0.79599,620
153,0.932,-0.179,0.371,-0.244,0.244,0.0,-25.653,-66.302,-172.755,-24.673,-6.513,-13.853,28.54,0.06995,0.54391,-0.15198,0.82224,609,0.515,-0.297,0.807,0.122,-0.122,0.122,-20.056,-31.163,-106.304,-18.413,-1.347,-7.62,25.28,-0.53214,0.31229,0.02496,0.7865,591,0.21,-0.367,0.901,-1.526,1.038,-0.122,-22.648,-12.513,-178.022,-7.7,-0.507,-34.327,29.3,-0.00516,-0.11038,0.19299,-0.97491,615,0.92,-0.177,0.298,-0.671,-0.061,0.0,-30.289,-69.483,-139.807,-28.94,-6.207,-6.873,29.82,0.13278,-0.59033,0.01245,-0.79599,621
154,0.935,-0.177,0.368,-0.427,0.366,0.0,-25.653,-66.297,-172.749,-24.673,-6.513,-13.853,28.54,0.06995,0.54391,-0.15198,0.82224,610,0.521,-0.288,0.812,-0.61,-0.427,0.366,-20.067,-31.163,-106.304,-18.413,-1.347,-7.62,25.28,-0.53214,0.31229,0.02496,0.7865,592,0.208,-0.37,0.898,-1.526,1.16,-0.793,-22.67,-12.497,-178.044,-7.7,-0.507,-34.327,29.3,-0.00516,-0.11038,0.19299,-0.97491,616,0.923,-0.176,0.298,-0.61,-0.427,0.305,-30.328,-69.483,-139.785,-28.94,-6.207,-6.873,29.82,0.13278,-0.59033,0.01245,-0.79599,622
155,0.932,-0.179,0.371,-0.244,0.244,0.0,-25.653,-66.302,-172.755,-24.673,-6.513,-13.853,28.54,0.06995,0.54391,-0.15198,0.82224,611,0.515,-0.297,0.807,0.122,-0.122,0.122,-20.056,-31.163,-106.304,-18.413,-1.347,-7.62,25.28,-0.53214,0.31229,0.02496,0.7865,593,0.21,-0.367,0.901,-1.526,1.038,-0.122,-22.648,-12.513,-178.022,-7.7,-0.507,-34.327,29.3,-0.00516,-0.11038,0.19299,-0.97491,617,0.92,-0.177,0.298,-0.671,-0.061,0.0,-30.289,-69.483,-139.807,-28.94,-6.207,-6.873,29.82,0.13278,-0.59033,0.01245,-0.79599,623
156,0.938,-0.177,0.368,-0.427,0.366,0.0,-25.653,-66.297,-172.749,-24.673,-6.513,-13.853,28.54,0.06995,0.54391,-0.15198,0.82224,624,0.516,-0.288,0.812,-0.61,-0.427,0.366,-20.067,-31.163,-106.304,-18.413,-1.347,-7.62,25.28,-0.53214,0.31229,0.02496,0.7865,630,0.221,-0.37,0.898,-1.526,1.16,-0.793,-22.67,-12.497,-178.044,-7.7,-0.507,-34.327,29.3,-0.00516,-0.11038,0.19299,-0.97491,636,0.93,-0.176,0.298,-0.61,-0.427,0.305,-30.328,-69.483,-139.785,-28.94,-6.207,-6.873,29.82,0.13278,-0.59033,0.01245,-0.79599,648
157,0.941,-0.178,0.367,-0.854,0.793,0.0,-25.653,-66.286,-172.755,-24.673,-6.513,-13.853,28.54,0.06995,0.54391,-0.15198,0.82224,625,0.528,-0.29,0.808,-0.977,-0.671,0.427,-20.094,-31.174,-106.293,-18.413,-1.347,-7.62,25.28,-0.53214,0.31229,0.02496,0.7865,631,0.229,-0.38,0.892,-0.488,0.0,-0.488,-22.676,-12.502,-178.055,-7.7,-0.507,-34.327,29.3,-0.00516,-0.11038,0.19299,-0.97491,637,0.932,-0.179,0.298,-1.221,-0.549,0.305,-30.388,-69.489,-139.741,-28.94,-6.207,-6.873,29.82,0.13278,-0.59033,0.01245,-0.79599,649
158,0.938,-0.18,0.369,-1.099,0.366,0.0,-25.664,-66.275,-172.76,-24.673,-6.513,-13.853,28.54,0.06995,0.54391,-0.15198,0.82224,626,0.516,-0.305,0.799,0.488,-0.366,0.427,-20.094,-31.174,-106.287,-18.413,-1.347,-7.62,25.28,-0.53214,0.31229,0.02496,0.7865,632,0.221,-0.394,0.887,0.366,-0.916,0.671,-22.676,-12.513,-178.05,-7.7,-0.507,-34.327,29.3,-0.00516,-0.11038,0.19299,-0.97491,638,0.93,-0.18,0.296,-0.916,-0.061,0.122,-30.416,-69.489,-139.719,-28.94,-6.207,-6.873,29.82,0.13278,-0.59033,0.01245,-0.79599,650
159,0.941,-0.178,0.367,-0.854,0.793,0.0,-25.653,-66.286,-172.755,-24.673,-6.513,-13.853,28.54,0.06995,0.54391,-0.15198,0.82224,627,0.528,-0.29,0.808,-0.977,-0.671,0.427,-20.094,-31.174,-106.293,-18.413,-1.347,-7.62,25.28,-0.53214,0.31229,0.02496,0.7865,633,0.229,-0.38,0.892,-0.488,0.0,-0.488,-22.676,-12.502,-178.055,-7.7,-0.507,-34.327,29.3,-0.00516,-0.11038,0.19299,-0.97491,639,0.932,-0.179,0.298,-1.221,-0.549,0.305,-30.388,-69.489,-139.741,-28.94,-6.207,-6.873,29.82,0.13278,-0.59033,0.01245,-0.79599,651
160,0.938,-0.18,0.369,-1.099,0.366,0.0,-25.664,-66.275,-172.76,-24.673,-6.513,-13.853,28.54,0.06995,0.54391,-0.15198,0.82224,628,0.516,-0.305,0.799,0.488,-0.366,0.427,-20.094,-31.174,-106.287,-18.413,-1.347,-7.62,25.28,-0.53214,0.31229,0.02496,0.7865,634,0.221,-0.394,0.887,0.366,-0.916,0.671,-22.676,-12.513,-178.05,-7.7,-0.507,-34.327,29.3,-0.00516,-0.11038,0.19299,-0.97491,640,0.93,-0.18,0.296,-0.916,-0.061,0.122,-30.416,-69.489,-139.719,-28.94,-6.207,-6.873,29.82,0.13278,-0.59033,0.01245,-0.79599,652
161,0.941,-0.178,0.367,-0.854,0.793,0.0,-25.653,-66.286,-172.755,-24.673,-6.513,-13.853,28.54,0.06995,0.54391,-0.15198,0.82224,629,0.528,-0.29,0.808,-0.977,-0.671,0.427,-20.094,-31.174,-106.293,-18.413,-1.347,-7.62,25.28,-0.53214,0.31229,0.02496,0.7865,635,0.229,-0.38,0.892,-0.488,0.0,-0.488,-22.676,-12.502,-178.055,-7.7,-0.507,-34.327,29.3,-0.00516,-0.11038,0.19299,-0.97491,641,0.932,-0.179,0.298,-1.221,-0.549,0.305,-30.388,-69.489,-139.741,-28.94,-6.207,-6.873,29.82,0.13278,-0.59033,0.01245,-0.79599,653
162,0.938,-0.18,0.369,-1.099,0.366,0.0,-25.664,-66.275,-172.76,-24.673,-6.513,-13.853,28.54,0.06995,0.54391,-0.15198,0.82224,654,0.532,-0.305,0.799,0.488,-0.366,0.427,-20.094,-31.174,-106.287,-18.5,-1.267,-7.14,25.28,-0.53214,0.31229,0.02496,0.7865,642,0.219,-0.394,0.887,0.366,-0.916,0.671,-22.676,-12.513,-178.05,-7.7,-0.507,-34.327,29.3,-0.00516,-0.11038,0.19299,-0.97491,660,0.925,-0.18,0.296,-0.916,-0.061,0.122,-30.416,-69.489,-139.719,-28.94,-6.207,-6.873,29.82,0.13278,-0.59033,0.01245,-0.79599,666
163,0.929,-0.183,0.369,-0.977,0.183,0.0,-25.681,-66.27,-172.76,-24.673,-6.513,-13.853,28.54,0.06995,0.54391,-0.15198,0.82224,655,0.52,-0.313,0.798,1.892,-0.061,0.366,-20.072,-31.174,-106.287,-18.5,-1.267,-7.14,25.28,-0.53214,0.31229,0.02496,0.7865,643,0.207,-0.397,0.886,0.671,-0.61,0.793,-22.67,-12.519,-178.05,-7.7,-0.507,-34.327,29.3,-0.00516,-0.11038,0.19299,-0.97491,661,0.92,-0.184,0.291,-0.61,0.0,-0.183,-30.427,-69.489,-139.735,-28.94,-6.207,-6.873,29.82,0.13278,-0.59033,0.01245,-0.79599,667
164,0.938,-0.186,0.369,-0.977,0.671,-0.427,-25.692,-66.264,-172.76,-24.673,-6.513,-13.853,28.54,0.06995,0.54391,-0.15198,0.82224,656,0.532,-0.314,0.805,2.075,0.305,-0.061,-20.034,-31.174,-106.309,-18.5,-1.267,-7.14,25.28,-0.53214,0.31229,0.02496,0.7865,644,0.219,-0.391,0.893,0.549,0.671,0.183,-22.665,-12.502,-178.055,-7.7,-0.507,-34.327,29.3,-0.00516,-0.11038,0.19299,-0.97491,662,0.925,-0.188,0.303,-1.282,-0.671,-0.671,-30.449,-69.505,-139.741,-28.94,-6.207,-6.873,29.82,0.13278,-0.59033,0.01245,-0.79599,668
165,0.929,-0.183,0.369,-0.977,0.183,0.0,-25.681,-66.27,-172.76,-24.673,-6.513,-13.853,28.54,0.06995,0.54391,-0.15198,0.82224,657,0.52,-0.313,0.798,1.892,-0.061,0.366,-20.072,-31.174,-106.287,-18.5,-1.267,-7.14,25.28,-0.53214,0.31229,0.02496,0.7865,645,0.207,-0.397,0.886,0.671,-0.61,0.793,-22.67,-12.519,-178.05,-7.7,-0.507,-34.327,29.3,-0.00516,-0.11038,0.19299,-0.97491,663,0.92,-0.184,0.291,-0.61,0.0,-0.183,-30.427,-69.489,-139.735,-28.94,-6.207,-6.873,29.82,0.13278,-0.59033,0.01245,-0.79599,669
166,0.938,-0.186,0.369,-0.977,0.671,-0.427,-25.692,-66.264,-172.76,-24.673,-6.513,-13.853,28.54,0.06995,0.54391,-0.15198,0.82224,658,0.532,-0.314,0.805,2.075,0.305,-0.061,-20.034,-31.174,-106.309,-18.5,-1.267,-7.14,25.28,-0.53214,0.31229,0.02496,0.7865,646,0.219,-0.391,0.893,0.549,0.671,0.183,-22.665,-12.502,-178.055,-7.7,-0.507,-34.327,29.3,-0.00516,-0.11038,0.19299,-0.97491,664,0.925,-0.188,0.303,-1.282,-0.671,-0.671,-30.449,-69.505,-139.741,-28.94,-6.207,-6.873,29.82,0.13278,-0.59033,0.01245,-0.79599,670
167,0.929,-0.183,0.369,-0.977,0.183,0.0,-25.681,-66.27,-172.76,-24.673,-6.513,-13.853,28.54,0.06995,0.54391,-0.15198,0.82224,659,0.52,-0.313,0.798,1.892,-0.061,0.366,-20.072,-31.174,-106.287,-18.5,-1.267,-7.14,25.28,-0.53214,0.31229,0.02496,0.7865,647,0.207,-0.397,0.886,0.671,-0.61,0.793,-22.67,-12.519,-178.05,-7.7,-0.507,-34.327,29.3,-0.00516,-0.11038,0.19299,-0.97491,665,0.92,-0.184,0.291,-0.61,0.0,-0.183,-30.427,-69.489,-139.735,-28.94,-6.207,-6.873,29.82,0.13278,-0.59033,0.01245,-0.79599,671
168,0.928,-0.186,0.369,-0.977,0.671,-0.427,-25.692,-66.264,-172.76,-24.673,-6.513,-13.853,28.54,0.06995,0.54391,-0.15198,0.82224,672,0.509,-0.314,0.805,2.075,0.305,-0.061,-20.034,-31.174,-106.309,-18.5,-1.267,-7.14,25.28,-0.53214,0.31229,0.02496,0.7865,678,0.204,-0.391,0.893,0.549,0.671,0.183,-22.665,-12.502,-178.055,-7.7,-0.507,-34.327,29.3,-0.00516,-0.11038,0.19299,-0.97491,684,0.925,-0.188,0.303,-1.282,-0.671,-0.671,-30.449,-69.505,-139.741,-28.94,-6.207,-6.873,29.82,0.13278,-0.59033,0.01245,-0.79599,690
169,0.933,-0.186,0.372,-0.793,0.916,-0.854,-25.675,-66.259,-172.793,-24.673,-6.513,-13.853,28.54,0.06995,0.54391,-0.15198,0.82224,673,0.51,-0.31,0.811,0.977,0.183,-0.671,-20.012,-31.174,-106.348,-18.5,-1.267,-7.14,25.28,-0.53214,0.31229,0.02496,0.7865,679,0.212,-0.383,0.897,0.183,1.404,-0.305,-22.665,-12.48,-178.077,-7.7,-0.507,-34.327,29.3,-0.00516,-0.11038,0.19299,-0.97491,685,0.926,-0.184,0.301,-0.854,-0.671,-0.854,-30.465,-69.521,-139.741,-28.94,-6.207,-6.873,29.82,0.13278,-0.59033,0.01245,-0.79599,691
170,0.928,-0.183,0.372,-0.427,0.61,-1.099,-25.642,-66.248,-172.842,-24.673,-6.513,-13.853,28.54,0.06995,0.54391,-0.15198,0.82224,674,0.509,-0.304,0.811,-0.061,-0.183,-0.793,-20.006,-31.179,-106.381,-18.5,-1.267,-7.14,25.28,-0.53214,0.31229,0.02496,0.7865,680,0.204,-0.379,0.895,0.244,1.221,-0.61,-22.665,-12.458,-178.105,-7.7,-0.507,-34.327,29.3,-0.00516,-0.11038,0.19299,-0.97491,686,0.925,-0.179,0.302,0.0,-0.244,-0.977,-30.465,-69.532,-139.757,-28.94,-6.207,-6.873,29.82,0.13278,-0.59033,0.01245,-0.79599,692
171,0.933,-0.186,0.372,-0.793,0.916,-0.854,-25.675,-66.259,-172.793,-24.673,-6.513,-13.853,28.54,0.06995,0.54391,-0.15198,0.82224,675,0.51,-0.31,0.811,0.977,0.183,-0.671,-20.012,-31.174,-106.348,-18.5,-1.267,-7.14,25.28,-0.53214,0.31229,0.02496,0.7865,681,0.212,-0.383,0.897,0.183,1.404,-0.305,-22.665,-12.48,-178.077,-7.7,-0.507,-34.327,29.3,-0.00516,-0.11038,0.19299,-0.97491,687,0.926,-0.184,0.301,-0.854,-0.671,-0.854,-30.465,-69.521,-139.741,-28.94,-6.207,-6.873,29.82,0.13278,-0.59033,0.01245,-0.79599,693
172,0.928,-0.183,0.372,-0.427,0.61,-1.099,-25.642,-66.248,-172.842,-24.673,-6.513,-13.853,28.54,0.06995,0.54391,-0.15198,0.82224,676,0.509,-0.304,0.811,-0.061,-0.183,-0.793,-20.006,-31.179,-106.381,-18.5,-1.267,-7.14,25.28,-0.53214,0.31229,0.02496,0.7865,682,0.204,-0.379,0.895,0.244,1.221,-0.61,-22.665,-12.458,-178.105,-7.7,-0.507,-34.327,29.3,-0.00516,-0.11038,0.19299,-0.97491,688,0.925,-0.179,0.302,0.0,-0.244,-0.977,-30.465,-69.532,-139.757,-28.94,-6.207,-6.873,29.82,0.13278,-0.59033,0.01245,-0.79599,694
173,0.933,-0.186,0.372,-0.793,0.916,-0.854,-25.675,-66.259,-172.793,-24.673,-6.513,-13.853,28.54,0.06995,0.54391,-0.15198,0.82224,677,0.51,-0.31,0.811,0.977,0.183,-0.671,-20.012,-31.174,-106.348,-18.5,-1.267,-7.14,25.28,-0.53214,0.31229,0.02496,0.7865,683,0.212,-0.383,0.897,0.183,1.404,-0.305,-22.665,-12.48,-178.077,-7.7,-0.507,-34.327,29.3,-0.00516,-0.11038,0.19299,-0.97491,689,0.926,-0.184,0.301,-0.854,-0.671,-0.854,-30.465,-69.521,-139.741,-28.94,-6.207,-6.873,29.82,0.13278,-0.59033,0.01245,-0.79599,695
174,0.934,-0.183,0.372,-0.427,0.61,-1.099,-25.642,-66.248,-172.842,-24.673,-6.513,-13.853,28.54,0.06995,0.54391,-0.15198,0.82224,696,0.517,-0.304,0.811,-0.061,-0.183,-0.793,-20.006,-31.179,-106.381,-18.5,-1.267,-7.14,25.28,-0.53113,0.3121,0.0246,0.78726,702,0.213,-0.379,0.895,0.244,1.221,-0.61,-22.665,-12.458,-178.105,-7.7,-0.507,-34.327,29.3,-0.00516,-0.11038,0.19299,-0.97491,708,0.923,-0.179,0.302,0.0,-0.244,-0.977,-30.465,-69.532,-139.757,-28.94,-6.207,-6.873,29.82,0.13278,-0.59033,0.01245,-0.79599,720
175,0.934,-0.181,0.373,0.0,-0.244,-0.977,-25.604,-66.248,-172.892,-24.673,-6.513,-13.853,28.54,0.06995,0.54391,-0.15198,0.82224,697,0.518,-0.301,0.809,-0.488,-0.244,-0.671,-20.012,-31.185,-106.403,-18.5,-1.267,-7.14,25.28,-0.53113,0.3121,0.0246,0.78726,703,0.208,-0.372,0.899,0.549,1.038,-0.305,-22.654,-12.442,-178.121,-7.7,-0.507,-34.327,29.3,-0.00516,-0.11038,0.19299,-0.97491,709,0.925,-0.175,0.302,0.488,-0.122,-0.732,-30.432,-69.543,-139.768,-28.94,-6.207,-6.873,29.82,0.13278,-0.59033,0.01245,-0.79599,721
176,0.934,-0.177,0.373,0.122,-0.488,-0.61,-25.582,-66.264,-172.914,-24.673,-6.513,-13.853,28.54,0.06995,0.54391,-0.15198,0.82224,698,0.517,-0.291,0.812,-0.61,-0.244,-0.549,-20.023,-31.19,-106.414,-18.5,-1.267,-7.14,25.28,-0.53113,0.3121,0.0246,0.78726,704,0.213,-0.365,0.904,0.671,1.099,-0.488,-22.643,-12.426,-178.132,-7.7,-0.507,-34.327,29.3,-0.00516,-0.11038,0.19299,-0.97491,710,0.923,-0.172,0.301,0.427,-0.305,-0.427,-30.405,-69.549,-139.785,-28.94,-6.207,-6.873,29.82,0.13278,-0.59033,0.01245,-0.79599,722
177,0.934,-0.181,0.373,0.0,-0.244,-0.977,-25.604,-66.248,-172.892,-24.673,-6.513,-13.853,28.54,0.06995,0.54391,-0.15198,0.82224,699,0.518,-0.301,0.809,-0.488,-0.244,-0.671,-20.012,-31.185,-106.403,-18.5,-1.267,-7.14,25.28,-0.53113,0.3121,0.0246,0.78726,705,0.208,-0.372,0.899,0.549,1.038,-0.305,-22.654,-12.442,-178.121,-7.7,-0.507,-34.327,29.3,-0.00516,-0.11038,0.19299,-0.97491,711,0.925,-0.175,0.302,0.488,-0.122,-0.732,-30.432,-69.543,-139.768,-28.94,-6.207,-6.873,29.82,0.13278,-0.59033,0.01245,-0.79599,723
178,0.934,-0.177,0.373,0.122,-0.488,-0.61,-25.582,-66.264,-172.914,-24.673,-6.513,-13.853,28.54,0.06995,0.54391,-0.15198,0.82224,700,0.517,-0.291,0.812,-0.61,-0.244,-0.549,-20.023,-31.19,-106.414,-18.5,-1.267,-7.14,25.28,-0.53113,0.3121,0.0246,0.78726,706,0.213,-0.365,0.904,0.671,1.099,-0.488,-22.643,-12.426,-178.132,-7.7,-0.507,-34.327,29.3,-0.00516,-0.11038,0.19299,-0.97491,712,0.923,-0.172,0.301,0.427,-0.305,-0.427,-30.405,-69.549,-139.785,-28.94,-6.207,-6.873,29.82,0.13278,-0.59033,0.01245,-0.79599,724
179,0.934,-0.181,0.373,0.0,-0.244,-0.977,-25.604,-66.248,-172.892,-24.673,-6.513,-13.853,28.54,0.06995,0.54391,-0.15198,0.82224,701,0.518,-0.301,0.809,-0.488,-0.244,-0.671,-20.012,-31.185,-106.403,-18.5,-1.267,-7.14,25.28,-0.53113,0.3121,0.0246,0.78726,707,0.208,-0.372,0.899,0.549,1.038,-0.305,-22.654,-12.442,-178.121,-7.7,-0.507,-34.327,29.3,-0.00516,-0.11038,0.19299,-0.97491,713,0.925,-0.175,0.302,0.488,-0.122,-0.732,-30.432,-69.543,-139.768,-28.94,-6.207,-6.873,29.82,0.13278,-0.59033,0.01245,-0.79599,725
180,0.935,-0.177,0.373,0.122,-0.488,-0.61,-25.582,-66.264,-172.914,-24.62,-6.38,-12.707,28.54,0.06995,0.54391,-0.15198,0.82224,726,0.517,-0.291,0.812,-0.61,-0.244,-0.549,-20.023,-31.19,-106.414,-18.5,-1.267,-7.14,25.28,-0.53113,0.3121,0.0246,0.78726,714,0.207,-0.365,0.904,0.671,1.099,-0.488,-22.643,-12.426,-178.132,-7.7,-0.507,-34.327,29.3,-0.00516,-0.11038,0.19299,-0.97491,732,0.927,-0.172,0.301,0.427,-0.305,-0.427,-30.405,-69.549,-139.785,-28.94,-6.207,-6.873,29.82,0.13278,-0.59033,0.01245,-0.79599,744
181,0.938,-0.175,0.373,0.061,-0.305,-0.305,-25.576,-66.27,-172.919,-24.62,-6.38,-12.707,28.54,0.06995,0.54391,-0.15198,0.82224,727,0.517,-0.282,0.815,-1.282,-0.122,-0.366,-20.045,-31.19,-106.425,-18.5,-1.267,-7.14,25.28,-0.53113,0.3121,0.0246,0.78726,715,0.212,-0.361,0.904,0.732,1.282,-1.16,-22.621,-12.409,-178.16,-7.7,-0.507,-34.327,29.3,-0.00516,-0.11038,0.19299,-0.97491,733,0.928,-0.171,0.3,0.305,-0.305,-0.061,-30.394,-69.554,-139.801,-28.94,-6.207,-6.873,29.82,0.13278,-0.59033,0.01245,-0.79599,745
182,0.935,-0.174,0.374,0.244,-0.183,-0.061,-25.571,-66.275,-172.914,-24.62,-6.38,-12.707,28.54,0.06995,0.54391,-0.15198,0.82224,728,0.517,-0.281,0.812,-1.709,-0.366,-0.183,-20.078,-31.196,-106.436,-18.5,-1.267,-7.14,25.28,-0.53113,0.3121,0.0246,0.78726,716,0.207,-0.369,0.9,0.488,0.671,-1.16,-22.604,-12.404,-178.176,-7.7,-0.507,-34.327,29.3,-0.00516,-0.11038,0.19299,-0.97491,734,0.927,-0.169,0.299,0.183,-0.244,0.244,-30.399,-69.56,-139.796,-28.94,-6.207,-6.873,29.82,0.13278,-0.59033,0.01245,-0.79599,746
183,0.938,-0.175,0.373,0.061,-0.305,-0.305,-25.576,-66.27,-172.919,-24.62,-6.38,-12.707,28.54,0.06995,0.54391,-0.15198,0.82224,729,0.517,-0.282,0.815,-1.282,-0.122,-0.366,-20.045,-31.19,-106.425,-18.5,-1.267,-7.14,25.28,-0.53113,0.3121,0.0246,0.78726,717,0.212,-0.361,0.904,0.732,1.282,-1.16,-22.621,-12.409,-178.16,-7.7,-0.507,-34.327,29.3,-0.00516,-0.11038,0.19299,-0.97491,735,0.928,-0.171,0.3,0.305,-0.305,-0.061,-30.394,-69.554,-139.801,-28.94,-6.207,-6.873,29.82,0.13278,-0.59033,0.01245,-0.79599,747
184,0.935,-0.174,0.374,0.244,-0.183,-0.061,-25.571,-66.275,-172.914,-24.62,-6.38,-12.707,28.54,0.06995,0.54391,-0.15198,0.82224,730,0.517,-0.281,0.812,-1.709,-0.366,-0.183,-20.078,-31.196,-106.436,-18.5,-1.267,-7.14,25.28,-0.53113,0.3121,0.0246,0.78726,718,0.207,-0.369,0.9,0.488,0.671,-1.16,-22.604,-12.404,-178.176,-7.7,-0.507,-34.327,29.3,-0.00516,-0.11038,0.19299,-0.97491,736,0.927,-0.169,0.299,0.183,-0.244,0.244,-30.399,-69.56,-139.796,-28.94,-6.207,-6.873,29.82,0.13278,-0.59033,0.01245,-0.79599,748
185,0.938,-0.175,0.373,0.061,-0.305,-0.305,-25.576,-66.27,-172.919,-24.62,-6.38,-12.707,28.54,0.06995,0.54391,-0.15198,0.82224,731,0.517,-0.282,0.815,-1.282,-0.122,-0.366,-20.045,-31.19,-106.425,-18.5,-1.267,-7.14,25.28,-0.53113,0.3121,0.0246,0.78726,719,0.212,-0.361,0.904,0.732,1.282,-1.16,-22.621,-12.409,-178.16,-7.7,-0.507,-34.327,29.3,-0.00516,-0.11038,0.19299,-0.97491,737,0.928,-0.171,0.3,0.305,-0.305,-0.061,-30.394,-69.554,-139.801,-28.94,-6.207,-6.873,29.82,0.13278,-0.59033,0.01245,-0.79599,749
186,0.939,-0.174,0.374,0.244,-0.183,-0.061,-25.571,-66.275,-172.914,-24.62,-6.38,-12.707,28.54,0.07028,0.54352,-0.15201,0.82245,750,0.523,-0.281,0.812,-1.709,-0.366,-0.183,-20.078,-31.196,-106.436,-18.5,-1.267,-7.14,25.28,-0.53113,0.3121,0.0246,0.78726,738,0.221,-0.369,0.9,0.488,0.671,-1.16,-22.604,-12.404,-178.176,-7.573,-0.693,-35.173,29.3,-0.00516,-0.11038,0.19299,-0.97491,756,0.928,-0.169,0.299,0.183,-0.244,0.244,-30.399,-69.56,-139.796,-28.94,-6.207,-6.873,29.82,0.13278,-0.59033,0.01245,-0.79599,762
187,0.937,-0.174,0.374,0.549,-0.061,0.183,-25.571,-66.275,-172.903,-24.62,-6.38,-12.707,28.54,0.07028,0.54352,-0.15201,0.82245,751,0.528,-0.288,0.804,-0.488,-0.183,-0.061,-20.094,-31.201,-106.452,-18.5,-1.267,-7.14,25.28,-0.53113,0.3121,0.0246,0.78726,739,0.218,-0.379,0.892,0.427,-0.366,-0.671,-22.593,-12.415,-178.187,-7.573,-0.693,-35.173,29.3,-0.00516,-0.11038,0.19299,-0.97491,757,0.923,-0.171,0.298,-0.122,-0.183,0.305,-30.416,-69.56,-139.763,-28.94,-6.207,-6.873,29.82,0.13278,-0.59033,0.01245,-0.79599,763
188,0.939,-0.172,0.373,0.244,0.0,0.366,-25.576,-66.275,-172.881,-24.62,-6.38,-12.707,28.54,0.07028,0.54352,-0.15201,0.82245,752,0.523,-0.297,0.8,0.916,0.183,-0.305,-20.078,-31.201,-106.474,-18.5,-1.267,-7.14,25.28,-0.53113,0.3121,0.0246,0.78726,740,0.221,-0.379,0.897,-0.305,-0.244,-0.793,-22.599,-12.426,-178.204,-7.573,-0.693,-35.173,29.3,-0.00516,-0.11038,0.19299,-0.97491,758,0.928,-0.175,0.3,-0.732,-0.122,0.122,-30.438,-69.554,-139.757,-28.94,-6.207,-6.873,29.82,0.13278,-0.59033,0.01245,-0.79599,764
189,0.937,-0.174,0.374,0.549,-0.061,0.183,-25.571,-66.275,-172.903,-24.62,-6.38,-12.707,28.54,0.07028,0.54352,-0.15201,0.82245,753,0.528,-0.288,0.804,-0.488,-0.183,-0.061,-20.094,-31.201,-106.452,-18.5,-1.267,-7.14,25.28,-0.53113,0.3121,0.0246,0.78726,741,0.218,-0.379,0.892,0.427,-0.366,-0.671,-22.593,-12.415,-178.187,-7.573,-0.693,-35.173,29.3,-0.00516,-0.11038,0.19299,-0.97491,759,0.923,-0.171,0.298,-0.122,-0.183,0.305,-30.416,-69.56,-139.763,-28.94,-6.207,-6.873,29.82,0.13278,-0.59033,0.01245,-0.79599,765
190,0.939,-0.172,0.373,0.244,0.0,0.366,-25.576,-66.275,-172.881,-24.62,-6.38,-12.707,28.54,0.07028,0.54352,-0.15201,0.82245,754,0.523,-0.297,0.8,0.916,0.183,-0.305,-20.078,-31.201,-106.474,-18.5,-1.267,-7.14,25.28,-0.53113,0.3121,0.0246,0.78726,742,0.221,-0.379,0.897,-0.305,-0.244,-0.793,-22.599,-12.426,-178.204,-7.573,-0.693,-35.173,29.3,-0.00516,-0.11038,0.19299,-0.97491,760,0.928,-0.175,0.3,-0.732,-0.122,0.122,-30.438,-69.554,-139.757,-28.94,-6.207,-6.873,29.82,0.13278,-0.59033,0.01245,-0.79599,766
191,0.937,-0.174,0.374,0.549,-0.061,0.183,-25.571,-66.275,-172.903,-24.62,-6.38,-12.707,28.54,0.07028,0.54352,-0.15201,0.82245,755,0.528,-0.288,0.804,-0.488,-0.183,-0.061,-20.094,-31.201,-106.452,-18.5,-1.267,-7.14,25.28,-0.53113,0.3121,0.0246,0.78726,743,0.218,-0.379,0.892,0.427,-0.366,-0.671,-22.593,-12.415,-178.187,-7.573,-0.693,-35.173,29.3,-0.00516,-0.11038,0.19299,-0.97491,761,0.923,-0.171,0.298,-0.122,-0.183,0.305,-30.416,-69.56,-139.763,-28.94,-6.207,-6.873,29.82,0.13278,-0.59033,0.01245,-0.79599,767
192,0.933,-0.172,0.373,0.244,0.0,0.366,-25.576,-66.275,-172.881,-24.62,-6.38,-12.707,28.54,0.07028,0.54352,-0.15201,0.82245,768,0.523,-0.297,0.8,0.916,0.183,-0.305,-20.078,-31.201,-106.474,-18.5,-1.267,-7.14,25.28,-0.53113,0.3121,0.0246,0.78726,774,0.211,-0.379,0.897,-0.305,-0.244,-0.793,-22.599,-12.426,-178.204,-7.573,-0.693,-35.173,29.3,-0.00516,-0.11038,0.19299,-0.97491,780,0.922,-0.175,0.3,-0.732,-0.122,0.122,-30.438,-69.554,-139.757,-28.94,-6.207,-6.873,29.82,0.13278,-0.59033,0.01245,-0.79599,792
193,0.932,-0.172,0.371,-0.427,0.0,0.061,-25.582,-66.27,-172.864,-24.62,-6.38,-12.707,28.54,0.07028,0.54352,-0.15201,0.82245,769,0.515,-0.295,0.809,0.549,0.183,-0.854,-20.056,-31.201,-106.512,-18.5,-1.267,-7.14,25.28,-0.53113,0.3121,0.0246,0.78726,775,0.209,-0.375,0.898,-1.221,1.404,-2.38,-22.61,-12.415,-178.264,-7.573,-0.693,-35.173,29.3,-0.00516,-0.11038,0.19299,-0.97491,781,0.926,-0.175,0.298,-0.977,-0.305,-0.183,-30.46,-69.554,-139.741,-28.94,-6.207,-6.873,29.82,0.13278,-0.59033,0.01245,-0.79599,793
194,0.933,-0.173,0.37,-0.549,-0.122,-0.305,-25.587,-66.275,-172.864,-24.62,-6.38,-12.707,28.54,0.07028,0.54352,-0.15201,0.82245,770,0.523,-0.291,0.814,-0.732,0.0,-1.16,-20.056,-31.207,-106.545,-18.5,-1.267,-7.14,25.28,-0.53113,0.3121,0.0246,0.78726,776,0.211,-0.373,0.9,-0.549,1.648,-2.38,-22.61,-12.404,-178.325,-7.573,-0.693,-35.173,29.3,-0.00516,-0.11038,0.19299,-0.97491,782,0.922,-0.177,0.297,-0.671,-0.244,-0.61,-30.471,-69.565,-139.713,-28.94,-6.207,-6.873,29.82,0.13278,-0.59033,0.01245,-0.79599,794
195,0.932,-0.172,0.371,-0.427,0.0,0.061,-25.582,-66.27,-172.864,-24.62,-6.38,-12.707,28.54,0.07028,0.54352,-0.15201,0.82245,771,0.515,-0.295,0.809,0.549,0.183,-0.854,-20.056,-31.201,-106.512,-18.5,-1.267,-7.14,25.28,-0.53113,0.3121,0.0246,0.78726,777,0.209,-0.375,0.898,-1.221,1.404,-2.38,-22.61,-12.415,-178.264,-7.573,-0.693,-35.173,29.3,-0.00516,-0.11038,0.19299,-0.97491,783,0.926,-0.175,0.298,-0.977,-0.305,-0.183,-30.46,-69.554,-139.741,-28.94,-6.207,-6.873,29.82,0.13278,-0.59033,0.01245,-0.79599,795
196,0.933,-0.173,0.37,-0.549,-0.122,-0.305,-25.587,-66.275,-172.864,-24.62,-6.38,-12.707,28.54,0.07028,0.54352,-0.15201,0.82245,772,0.523,-0.291,0.814,-0.732,0.0,-1.16,-20.056,-31.207,-106.545,-18.5,-1.267,-7.14,25.28,-0.53113,0.3121,0.0246,0.78726,778,0.211,-0.373,0.9,-0.549,1.648,-2.38,-22.61,-12.404,-178.325,-7.573,-0.693,-35.173,29.3,-0.00516,-0.11038,0.19299,-0.97491,784,0.922,-0.177,0.297,-0.671,-0.244,-0.61,-30.471,-69.565,-139.713,-28.94,-6.207,-6.873,29.82,0.13278,-0.59033,0.01245,-0.79599,796
197,0.932,-0.172,0.371,-0.427,0.0,0.061,-25.582,-66.27,-172.864,-24.62,-6.38,-12.707,28.54,0.07028,0.54352,-0.15201,0.82245,773,0.515,-0.295,0.809,0.549,0.183,-0.854,-20.056,-31.201,-106.512,-18.5,-1.267,-7.14,25.28,-0.53113,0.3121,0.0246,0.78726,779,0.209,-0.375,0.898,-1.221,1.404,-2.38,-22.61,-12.415,-178.264,-7.573,-0.693,-35.173,29.3,-0.00516,-0.11038,0.19299,-0.97491,785,0.926,-0.175,0.298,-0.977,-0.305,-0.183,-30.46,-69.554,-139.741,-28.94,-6.207,-6.873,29.82,0.13278,-0.59033,0.01245,-0.79599,797
198,0.934,-0.173,0.37,-0.549,-0.122,-0.305,-25.587,-66.275,-172.864,-24.62,-6.38,-12.707,28.54,0.07028,0.54352,-0.15201,0.82245,798,0.517,-0.291,0.814,-0.732,0.0,-1.16,-20.056,-31.207,-106.545,-18.5,-1.267,-7.14,25.28,-0.53113,0.3121,0.0246,0.78726,786,0.215,-0.373,0.9,-0.549,1.648,-2.38,-22.61,-12.404,-178.325,-7.573,-0.693,-35.173,29.3,-0.00644,-0.10898,0.19327,-0.97501,804,0.928,-0.177,0.297,-0.671,-0.244,-0.61,-30.471,-69.565,-139.713,-29.153,-6.473,-6.687,29.82,0.13278,-0.59033,0.01245,-0.79599,810
199,0.937,-0.175,0.37,-0.488,-0.122,-0.488,-25.576,-66.281,-172.87,-24.62,-6.38,-12.707,28.54,0.07028,0.54352,-0.15201,0.82245,799,0.522,-0.297,0.808,-0.977,-0.183,-1.221,-20.056,-31.218,-106.567,-18.5,-1.267,-7.14,25.28,-0.53113,0.3121,0.0246,0.78726,787,0.213,-0.376,0.897,-0.427,0.427,-1.343,-22.615,-12.404,-178.363,-7.573,-0.693,-35.173,29.3,-0.00644,-0.10898,0.19327,-0.97501,805,0.926,-0.177,0.298,-0.366,-0.183,-0.793,-30.454,-69.571,-139.713,-29.153,-6.473,-6.687,29.82,0.13278,-0.59033,0.01245,-0.79599,811
200,0.934,-0.178,0.37,-0.305,-0.305,-0.549,-25.565,-66.286,-172.881,-24.62,-6.38,-12.707,28.54,0.07028,0.54352,-0.15201,0.82245,800,0.517,-0.301,0.805,-0.305,-0.183,-1.16,-20.05,-31.229,-106.589,-18.5,-1.267,-7.14,25.28,-0.53113,0.3121,0.0246,0.78726,788,0.215,-0.375,0.896,-0.366,-0.122,-1.404,-22.621,-12.42,-178.396,-7.573,-0.693,-35.173,29.3,-0.00644,-0.10898,0.19327,-0.97501,806,0.928,-0.178,0.299,-0.061,-0.122,-0.732,-30.427,-69.582,-139.713,-29.153,-6.473,-6.687,29.82,0.13278,-0.59033,0.01245,-0.79599,812
201,0.937,-0.175,0.37,-0.488,-0.122,-0.488,-25.576,-66.281,-172.87,-24.62,-6.38,-12.707,28.54,0.07028,0.54352,-0.15201,0.82245,801,0.522,-0.297,0.808,-0.977,-0.183,-1.221,-20.056,-31.218,-106.567,-18.5,-1.267,-7.14,25.28,-0.53113,0.3121,0.0246,0.78726,789,0.213,-0.376,0.897,-0.427,0.427,-1.343,-22.615,-12.404,-178.363,-7.573,-0.693,-35.173,29.3,-0.00644,-0.10898,0.19327,-0.97501,807,0.926,-0.177,0.298,-0.366,-0.183,-0.793,-30.454,-69.571,-139.713,-29.153,-6.473,-6.687,29.82,0.13278,-0.59033,0.01245,-0.79599,813
202,0.934,-0.178,0.37,-0.305,-0.305,-0.549,-25.565,-66.286,-172.881,-24.62,-6.38,-12.707,28.54,0.07028,0.54352,-0.15201,0.82245,802,0.517,-0.301,0.805,-0.305,-0.183,-1.16,-20.05,-31.229,-106.589,-18.5,-1.267,-7.14,25.28,-0.53113,0.3121,0.0246,0.78726,790,0.215,-0.375,0.896,-0.366,-0.122,-1.404,-22.621,-12.42,-178.396,-7.573,-0.693,-35.173,29.3,-0.00644,-0.10898,0.19327,-0.97501,808,0.928,-0.178,0.299,-0.061,-0.122,-0.732,-30.427,-69.582,-139.713,-29.153,-6.473,-6.687,29.82,0.13278,-0.59033,0.01245,-0.79599,814
203,0.937,-0.175,0.37,-0.488,-0.122,-0.488,-25.576,-66.281,-172.87,-24.62,-6.38,-12.707,28.54,0.07028,0.54352,-0.15201,0.82245,803,0.522,-0.297,0.808,-0.977,-0.183,-1.221,-20.056,-31.218,-106.567,-18.5,-1.267,-7.14,25.28,-0.53113,0.3121,0.0246,0.78726,791,0.213,-0.376,0.897,-0.427,0.427,-1.343,-22.615,-12.404,-178.363,-7.573,-0.693,-35.173,29.3,-0.00644,-0.10898,0.19327,-0.97501,809,0.926,-0.177,0.298,-0.366,-0.183,-0.793,-30.454,-69.571,-139.713,-29.153,-6.473,-6.687,29.82,0.13278,-0.59033,0.01245,-0.79599,815
204,0.935,-0.178,0.37,-0.305,-0.305,-0.549,-25.565,-66.286,-172.881,-24.62,-6.38,-12.707,28.54,0.07028,0.54352,-0.15201,0.82245,816,0.523,-0.301,0.805,-0.305,-0.183,-1.16,-20.05,-31.229,-106.589,-18.5,-1.267,-7.14,25.28,-0.53113,0.3121,0.0246,0.78726,822,0.21,-0.375,0.896,-0.366,-0.122,-1.404,-22.621,-12.42,-178.396,-7.573,-0.693,-35.173,29.3,-0.00644,-0.10898,0.19327,-0.97501,828,0.924,-0.178,0.299,-0.061,-0.122,-0.732,-30.427,-69.582,-139.713,-29.153,-6.473,-6.687,29.82,0.13278,-0.59033,0.01245,-0.79599,834
205,0.934,-0.179,0.372,-0.244,-0.549,-0.427,-25.56,-66.297,-172.886,-24.62,-6.38,-12.707,28.54,0.07028,0.54352,-0.15201,0.82245,817,0.521,-0.299,0.806,-0.244,-0.122,-1.221,-20.045,-31.24,-106.622,-18.5,-1.267,-7.14,25.28,-0.53113,0.3121,0.0246,0.78726,823,0.212,-0.372,0.896,0.183,0.305,-1.221,-22.621,-12.426,-178.434,-7.573,-0.693,-35.173,29.3,-0.00644,-0.10898,0.19327,-0.97501,829,0.926,-0.178,0.299,-0.061,-0.183,-0.671,-30.405,-69.593,-139.735,-29.153,-6.473,-6.687,29.82,0.13278,-0.59033,0.01245,-0.79599,835
206,0.935,-0.18,0.373,-0.183,-0.671,-0.305,-25.554,-66.313,-172.886,-24.62,-6.38,-12.707,28.54,0.07028,0.54352,-0.15201,0.82245,818,0.523,-0.295,0.81,-0.549,0.122,-1.282,-20.039,-31.245,-106.661,-18.5,-1.267,-7.14,25.28,-0.53113,0.3121,0.0246,0.78726,824,0.21,-0.375,0.898,0.977,-0.061,-0.61,-22.61,-12.431,-178.462,-7.573,-0.693,-35.173,29.3,-0.00644,-0.10898,0.19327,-0.97501,830,0.924,-0.177,0.297,-0.183,-0.061,-0.488,-30.383,-69.598,-139.768,-29.153,-6.473,-6.687,29.82,0.13278,-0.59033,0.01245,-0.79599,836
207,0.934,-0.179,0.372,-0.244,-0.549,-0.427,-25.56,-66.297,-172.886,-24.62,-6.38,-12.707,28.54,0.07028,0.54352,-0.15201,0.82245,819,0.521,-0.299,0.806,-0.244,-0.122,-1.221,-20.045,-31.24,-106.622,-18.5,-1.267,-7.14,25.28,-0.53113,0.3121,0.0246,0.78726,825,0.212,-0.372,0.896,0.183,0.305,-1.221,-22.621,-12.426,-178.434,-7.573,-0.693,-35.173,29.3,-0.00644,-0.10898,0.19327,-0.97501,831,0.926,-0.178,0.299,-0.061,-0.183,-0.671,-30.405,-69.593,-139.735,-29.153,-6.473,-6.687,29.82,0.13278,-0.59033,0.01245,-0.79599,837
208,0.935,-0.18,0.373,-0.183,-0.671,-0.305,-25.554,-66.313,-172.886,-24.62,-6.38,-12.707,28.54,0.07028,0.54352,-0.15201,0.82245,820,0.523,-0.295,0.81,-0.549,0.122,-1.282,-20.039,-31.245,-106.661,-18.5,-1.267,-7.14,25.28,-0.53113,0.3121,0.0246,0.78726,826,0.21,-0.375,0.898,0.977,-0.061,-0.61,-22.61,-12.431,-178.462,-7.573,-0.693,-35.173,29.3,-0.00644,-0.10898,0.19327,-0.97501,832,0.924,-0.177,0.297,-0.183,-0.061,-0.488,-30.383,-69.598,-139.768,-29.153,-6.473,-6.687,29.82,0.13278,-0.59033,0.01245,-0.79599,838
209,0.934,-0.179,0.372,-0.244,-0.549,-0.427,-25.56,-66.297,-172.886,-24.62,-6.38,-12.707,28.54,0.07028,0.54352,-0.15201,0.82245,821,0.521,-0.299,0.806,-0.244,-0.122,-1.221,-20.045,-31.24,-106.622,-18.5,-1.267,-7.14,25.28,-0.53113,0.3121,0.0246,0.78726,827,0.212,-0.372,0.896,0.183,0.305,-1.221,-22.621,-12.426,-178.434,-7.573,-0.693,-35.173,29.3,-0.00644,-0.10898,0.19327,-0.97501,833,0.926,-0.178,0.299,-0.061,-0.183,-0.671,-30.405,-69.593,-139.735,-29.153,-6.473,-6.687,29.82,0.13278,-0.59033,0.01245,-0.79599,839
210,0.935,-0.18,0.373,-0.183,-0.671,-0.305,-25.554,-66.313,-172.886,-24.62,-6.38,-12.707,28.54,0.07028,0.54352,-0.15201,0.82245,840,0.519,-0.295,0.81,-0.549,0.122,-1.282,-20.039,-31.245,-106.661,-18.5,-1.267,-7.14,25.28,-0.53113,0.3121,0.0246,0.78726,846,0.214,-0.375,0.898,0.977,-0.061,-0.61,-22.61,-12.431,-178.462,-7.573,-0.693,-35.173,29.3,-0.00644,-0.10898,0.19327,-0.97501,852,0.927,-0.177,0.297,-0.183,-0.061,-0.488,-30.383,-69.598,-139.768,-29.153,-6.473,-6.687,29.82,0.1322,-0.59113,0.0126,-0.7955,864
211,0.938,-0.18,0.374,0.0,-0.183,-0.305,-25.554,-66.319,-172.881,-24.62,-6.38,-12.707,28.54,0.07028,0.54352,-0.15201,0.82245,841,0.522,-0.295,0.807,-0.244,0.183,-1.099,-20.034,-31.245,-106.71,-18.5,-1.267,-7.14,25.28,-0.53113,0.3121,0.0246,0.78726,847,0.214,-0.37,0.899,1.282,-0.488,-0.366,-22.588,-12.437,-178.473,-7.573,-0.693,-35.173,29.3,-0.00644,-0.10898,0.19327,-0.97501,853,0.927,-0.176,0.296,-0.183,0.061,-0.366,-30.366,-69.598,-139.812,-29.153,-6.473,-6.687,29.82,0.1322,-0.59113,0.0126,-0.7955,865
212,0.935,-0.18,0.372,0.183,0.122,-0.244,-25.543,-66.324,-172.886,-24.62,-6.38,-12.707,28.54,0.07028,0.54352,-0.15201,0.82245,842,0.519,-0.294,0.807,0.366,0.183,-1.038,-20.012,-31.251,-106.754,-18.5,-1.267,-7.14,25.28,-0.53113,0.3121,0.0246,0.78726,848,0.214,-0.367,0.9,0.854,-0.488,-0.793,-22.56,-12.448,-178.478,-7.573,-0.693,-35.173,29.3,-0.00644,-0.10898,0.19327,-0.97501,854,0.927,-0.176,0.294,-0.244,0.244,-0.183,-30.355,-69.598,-139.85,-29.153,-6.473,-6.687,29.82,0.1322,-0.59113,0.0126,-0.7955,866
213,0.938,-0.18,0.374,0.0,-0.183,-0.305,-25.554,-66.319,-172.881,-24.62,-6.38,-12.707,28.54,0.07028,0.54352,-0.15201,0.82245,843,0.522,-0.295,0.807,-0.244,0.183,-1.099,-20.034,-31.245,-106.71,-18.5,-1.267,-7.14,25.28,-0.53113,0.3121,0.0246,0.78726,849,0.214,-0.37,0.899,1.282,-0.488,-0.366,-22.588,-12.437,-178.473,-7.573,-0.693,-35.173,29.3,-0.00644,-0.10898,0.19327,-0.97501,855,0.927,-0.176,0.296,-0.183,0.061,-0.366,-30.366,-69.598,-139.812,-29.153,-6.473,-6.687,29.82,0.1322,-0.59113,0.0126,-0.7955,867
214,0.935,-0.18,0.372,0.183,0.122,-0.244,-25.543,-66.324,-172.886,-24.62,-6.38,-12.707,28.54,0.07028,0.54352,-0.15201,0.82245,844,0.519,-0.294,0.807,0.366,0.183,-1.038,-20.012,-31.251,-106.754,-18.5,-1.267,-7.14,25.28,-0.53113,0.3121,0.0246,0.78726,850,0.214,-0.367,0.9,0.854,-0.488,-0.793,-22.56,-12.448,-178.478,-7.573,-0.693,-35.173,29.3,-0.00644,-0.10898,0.19327,-0.97501,856,0.927,-0.176,0.294,-0.244,0.244,-0.183,-30.355,-69.598,-139.85,-29.153,-6.473,-6.687,29.82,0.1322,-0.59113,0.0126,-0.7955,868
215,0.938,-0.18,0.374,0.0,-0.183,-0.305,-25.554,-66.319,-172.881,-24.62,-6.38,-12.707,28.54,0.07028,0.54352,-0.15201,0.82245,845,0.522,-0.295,0.807,-0.244,0.183,-1.099,-20.034,-31.245,-106.71,-18.5,-1.267,-7.14,25.28,-0.53113,0.3121,0.0246,0.78726,851,0.214,-0.37,0.899,1.282,-0.488,-0.366,-22.588,-12.437,-178.473,-7.573,-0.693,-35.173,29.3,-0.00644,-0.10898,0.19327,-0.97501,857,0.927,-0.176,0.296,-0.183,0.061,-0.366,-30.366,-69.598,-139.812,-29.153,-6.473,-6.687,29.82,0.1322,-0.59113,0.0126,-0.7955,869
216,0.937,-0.18,0.372,0.183,0.122,-0.244,-25.543,-66.324,-172.886,-24.62,-6.38,-12.707,28.54,0.07028,0.54352,-0.15201,0.82245,870,0.523,-0.294,0.807,0.366,0.183,-1.038,-20.012,-31.251,-106.754,-18.187,-1.567,-7.58,25.28,-0.53113,0.3121,0.0246,0.78726,858,0.216,-0.367,0.9,0.854,-0.488,-0.793,-22.56,-12.448,-178.478,-7.573,-0.693,-35.173,29.3,-0.00644,-0.10898,0.19327,-0.97501,876,0.926,-0.176,0.294,-0.244,0.244,-0.183,-30.355,-69.598,-139.85,-29.153,-6.473,-6.687,29.82,0.1322,-0.59113,0.0126,-0.7955,882
217,0.936,-0.18,0.369,0.122,0.061,-0.183,-25.527,-66.319,-172.892,-24.62,-6.38,-12.707,28.54,0.07028,0.54352,-0.15201,0.82245,871,0.522,-0.291,0.806,0.61,0.0,-0.916,-19.99,-31.256,-106.804,-18.187,-1.567,-7.58,25.28,-0.53113,0.3121,0.0246,0.78726,859,0.217,-0.366,0.899,0.305,-0.366,-1.282,-22.544,-12.464,-178.495,-7.573,-0.693,-35.173,29.3,-0.00644,-0.10898,0.19327,-0.97501,877,0.928,-0.177,0.294,-0.183,0.183,-0.061,-30.35,-69.598,-139.883,-29.153,-6.473,-6.687,29.82,0.1322,-0.59113,0.0126,-0.7955,883
218,0.937,-0.181,0.366,0.061,0.0,-0.061,-25.521,-66.319,-172.892,-24.62,-6.38,-12.707,28.54,0.07028,0.54352,-0.15201,0.82245,872,0.523,-0.286,0.808,0.122,-0.122,-0.854,-19.979,-31.262,-106.848,-18.187,-1.567,-7.58,25.28,-0.53113,0.3121,0.0246,0.78726,860,0.216,-0.366,0.9,0.305,0.0,-1.099,-22.533,-12.475,-178.517,-7.573,-0.693,-35.173,29.3,-0.00644,-0.10898,0.19327,-0.97501,878,0.926,-0.179,0.293,-0.061,0.0,0.061,-30.355,-69.593,-139.878,-29.153,-6.473,-6.687,29.82,0.1322,-0.59113,0.0126,-0.7955,884
219,0.936,-0.18,0.369,0.122,0.061,-0.183,-25.527,-66.319,-172.892,-24.62,-6.38,-12.707,28.54,0.07028,0.54352,-0.15201,0.82245,873,0.522,-0.291,0.806,0.61,0.0,-0.916,-19.99,-31.256,-106.804,-18.187,-1.567,-7.58,25.28,-0.53113,0.3121,0.0246,0.78726,861,0.217,-0.366,0.899,0.305,-0.366,-1.282,-22.544,-12.464,-178.495,-7.573,-0.693,-35.173,29.3,-0.00644,-0.10898,0.19327,-0.97501,879,0.928,-0.177,0.294,-0.183,0.183,-0.061,-30.35,-69.598,-139.883,-29.153,-6.473,-6.687,29.82,0.1322,-0.59113,0.0126,-0.7955,885
220,0.937,-0.181,0.366,0.061,0.0,-0.061,-25.521,-66.319,-172.892,-24.62,-6.38,-12.707,28.54,0.07028,0.54352,-0.15201,0.82245,874,0.523,-0.286,0.808,0.122,-0.122,-0.854,-19.979,-31.262,-106.848,-18.187,-1.567,-7.58,25.28,-0.53113,0.3121,0.0246,0.78726,862,0.216,-0.366,0.9,0.305,0.0,-1.099,-22.533,-12.475,-178.517,-7.573,-0.693,-35.173,29.3,-0.00644,-0.10898,0.19327,-0.97501,880,0.926,-0.179,0.293,-0.061,0.0,0.061,-30.355,-69.593,-139.878,-29.153,-6.473,-6.687,29.82,0.1322,-0.59113,0.0126,-0.7955,886
221,0.936,-0.18,0.369,0.122,0.061,-0.183,-25.527,-66.319,-172.892,-24.62,-6.38,-12.707,28.54,0.07028,0.54352,-0.15201,0.82245,875,0.522,-0.291,0.806,0.61,0.0,-0.916,-19.99,-31.256,-106.804,-18.187,-1.567,-7.58,25.28,-0.53113,0.3121,0.0246,0.78726,863,0.217,-0.366,0.899,0.305,-0.366,-1.282,-22.544,-12.464,-178.495,-7.573,-0.693,-35.173,29.3,-0.00644,-0.10898,0.19327,-0.97501,881,0.928,-0.177,0.294,-0.183,0.183,-0.061,-30.35,-69.598,-139.883,-29.153,-6.473,-6.687,29.82,0.1322,-0.59113,0.0126,-0.7955,887
222,0.937,-0.181,0.366,0.061,0.0,-0.061,-25.521,-66.319,-172.892,-24.62,-6.38,-12.707,28.54,0.07028,0.54352,-0.15201,0.82245,888,0.521,-0.286,0.808,0.122,-0.122,-0.854,-19.979,-31.262,-106.848,-18.187,-1.567,-7.58,25.28,-0.53113,0.3121,0.0246,0.78726,894,0.219,-0.366,0.9,0.305,0.0,-1.099,-22.533,-12.475,-178.517,-7.573,-0.693,-35.173,29.3,-0.00644,-0.10898,0.19327,-0.97501,900,0.931,-0.179,0.293,-0.061,0.0,0.061,-30.355,-69.593,-139.878,-29.153,-6.473,-6.687,29.82,0.1322,-0.59113,0.0126,-0.7955,906
223,0.939,-0.181,0.366,0.0,-0.061,0.122,-25.527,-66.319,-172.886,-24.62,-6.38,-12.707,28.54,0.07028,0.54352,-0.15201,0.82245,889,0.523,-0.287,0.808,-0.427,-0.183,-0.671,-19.979,-31.273,-106.875,-18.187,-1.567,-7.58,25.28,-0.53113,0.3121,0.0246,0.78726,895,0.22,-0.368,0.898,0.244,0.61,-0.61,-22.522,-12.48,-178.522,-7.573,-0.693,-35.173,29.3,-0.00644,-0.10898,0.19327,-0.97501,901,0.931,-0.18,0.293,0.0,-0.061,0.183,-30.372,-69.593,-139.839,-29.153,-6.473,-6.687,29.82,0.1322,-0.59113,0.0126,-0.7955,907
224,0.937,-0.181,0.367,0.0,-0.122,0.305,-25.543,-66.319,-172.87,-24.62,-6.38,-12.707,28.54,0.07028,0.54352,-0.15201,0.82245,890,0.521,-0.291,0.808,-0.488,-0.244,-0.305,-19.984,-31.278,-106.897,-18.187,-1.567,-7.58,25.28,-0.53113,0.3121,0.0246,0.78726,896,0.219,-0.369,0.898,-0.183,0.549,-0.183,-22.516,-12.475,-178.528,-7.573,-0.693,-35.173,29.3,-0.00644,-0.10898,0.19327,-0.97501,902,0.931,-0.181,0.294,0.549,0.061,0.244,-30.383,-69.593,-139.796,-29.153,-6.473,-6.687,29.82,0.1322,-0.59113,0.0126,-0.7955,908
225,0.939,-0.181,0.366,0.0,-0.061,0.122,-25.527,-66.319,-172.886,-24.62,-6.38,-12.707,28.54,0.07028,0.54352,-0.15201,0.82245,891,0.523,-0.287,0.808,-0.427,-0.183,-0.671,-19.979,-31.273,-106.875,-18.187,-1.567,-7.58,25.28,-0.53113,0.3121,0.0246,0.78726,897,0.22,-0.368,0.898,0.244,0.61,-0.61,-22.522,-12.48,-178.522,-7.573,-0.693,-35.173,29.3,-0.00644,-0.10898,0.19327,-0.97501,903,0.931,-0.18,0.293,0.0,-0.061,0.183,-30.372,-69.593,-139.839,-29.153,-6.473,-6.687,29.82,0.1322,-0.59113,0.0126,-0.7955,909
226,0.937,-0.181,0.367,0.0,-0.122,0.305,-25.543,-66.319,-172.87,-24.62,-6.38,-12.707,28.54,0.07028,0.54352,-0.15201,0.82245,892,0.521,-0.291,0.808,-0.488,-0.244,-0.305,-19.984,-31.278,-106.897,-18.187,-1.567,-7.58,25.28,-0.53113,0.3121,0.0246,0.78726,898,0.219,-0.369,0.898,-0.183,0.549,-0.183,-22.516,-12.475,-178.528,-7.573,-0.693,-35.173,29.3,-0.00644,-0.10898,0.19327,-0.97501,904,0.931,-0.181,0.294,0.549,0.061,0.244,-30.383,-69.593,-139.796,-29.153,-6.473,-6.687,29.82,0.1322,-0.59113,0.0126,-0.7955,910
227,0.939,-0.181,0.366,0.0,-0.061,0.122,-25.527,-66.319,-172.886,-24.62,-6.38,-12.707,28.54,0.07028,0.54352,-0.15201,0.82245,893,0.523,-0.287,0.808,-0.427,-0.183,-0.671,-19.979,-31.273,-106.875,-18.187,-1.567,-7.58,25.28,-0.53113,0.3121,0.0246,0.78726,899,0.22,-0.368,0.898,0.244,0.61,-0.61,-22.522,-12.48,-178.522,-7.573,-0.693,-35.173,29.3,-0.00644,-0.10898,0.19327,-0.97501,905,0.931,-0.18,0.293,0.0,-0.061,0.183,-30.372,-69.593,-139.839,-29.153,-6.473,-6.687,29.82,0.1322,-0.59113,0.0126,-0.7955,911
228,0.94,-0.181,0.367,0.0,-0.122,0.305,-25.543,-66.319,-172.87,-25.013,-6.287,-13.827,28.54,0.07028,0.54352,-0.15201,0.82245,912,0.527,-0.291,0.808,-0.488,-0.244,-0.305,-19.984,-31.278,-106.897,-18.187,-1.567,-7.58,25.28,-0.52737,0.31271,0.0239,0.78955,918,0.218,-0.369,0.898,-0.183,0.549,-0.183,-22.516,-12.475,-178.528,-7.573,-0.693,-35.173,29.3,-0.00644,-0.10898,0.19327,-0.97501,924,0.928,-0.181,0.294,0.549,0.061,0.244,-30.383,-69.593,-139.796,-29.153,-6.473,-6.687,29.82,0.1322,-0.59113,0.0126,-0.7955,936
229,0.939,-0.183,0.368,0.244,-0.305,0.366,-25.565,-66.319,-172.842,-25.013,-6.287,-13.827,28.54,0.07028,0.54352,-0.15201,0.82245,913,0.529,-0.293,0.806,-0.305,-0.183,0.122,-19.995,-31.278,-106.902,-18.187,-1.567,-7.58,25.28,-0.52737,0.31271,0.0239,0.78955,919,0.213,-0.372,0.896,-0.427,0.122,0.366,-22.516,-12.464,-178.533,-7.573,-0.693,-35.173,29.3,-0.00644,-0.10898,0.19327,-0.97501,925,0.925,-0.18,0.294,0.977,0.366,0.244,-30.383,-69.582,-139.757,-29.153,-6.473,-6.687,29.82,0.1322,-0.59113,0.0126,-0.7955,937
230,0.94,-0.182,0.369,0.61,-0.427,0.488,-25.587,-66.324,-172.809,-25.013,-6.287,-13.827,28.54,0.07028,0.54352,-0.15201,0.82245,914,0.527,-0.295,0.803,-0.366,-0.061,0.549,-20.006,-31.278,-106.913,-18.187,-1.567,-7.58,25.28,-0.52737,0.31271,0.0239,0.78955,920,0.218,-0.372,0.896,-0.427,0.061,0.977,-22.527,-12.464,-178.528,-7.573,-0.693,-35.173,29.3,-0.00644,-0.10898,0.19327,-0.97501,926,0.928,-0.179,0.295,1.16,0.549,0.305,-30.366,-69.576,-139.691,-29.153,-6.473,-6.687,29.82,0.1322,-0.59113,0.0126,-0.7955,938
231,0.939,-0.183,0.368,0.244,-0.305,0.366,-25.565,-66.319,-172.842,-25.013,-6.287,-13.827,28.54,0.07028,0.54352,-0.15201,0.82245,915,0.529,-0.293,0.806,-0.305,-0.183,0.122,-19.995,-31.278,-106.902,-18.187,-1.567,-7.58,25.28,-0.52737,0.31271,0.0239,0.78955,921,0.213,-0.372,0.896,-0.427,0.122,0.366,-22.516,-12.464,-178.533,-7.573,-0.693,-35.173,29.3,-0.00644,-0.10898,0.19327,-0.97501,927,0.925,-0.18,0.294,0.977,0.366,0.244,-30.383,-69.582,-139.757,-29.153,-6.473,-6.687,29.82,0.1322,-0.59113,0.0126,-0.7955,939
232,0.94,-0.182,0.369,0.61,-0.427,0.488,-25.587,-66.324,-172.809,-25.013,-6.287,-13.827,28.54,0.07028,0.54352,-0.15201,0.82245,916,0.527,-0.295,0.803,-0.366,-0.061,0.549,-20.006,-31.278,-106.913,-18.187,-1.567,-7.58,25.28,-0.52737,0.31271,0.0239,0.78955,922,0.218,-0.372,0.896,-0.427,0.061,0.977,-22.527,-12.464,-178.528,-7.573,-0.693,-35.173,29.3,-0.00644,-0.10898,0.19327,-0.97501,928,0.928,-0.179,0.295,1.16,0.549,0.305,-30.366,-69.576,-139.691,-29.153,-6.473,-6.687,29.82,0.1322,-0.59113,0.0126,-0.7955,940
233,0.939,-0.183,0.368,0.244,-0.305,0.366,-25.565,-66.319,-172.842,-25.013,-6.287,-13.827,28.54,0.07028,0.54352,-0.15201,0.82245,917,0.529,-0.293,0.806,-0.305,-0.183,0.122,-19.995,-31.278,-106.902,-18.187,-1.567,-7.58,25.28,-0.52737,0.31271,0.0239,0.78955,923,0.213,-0.372,0.896,-0.427,0.122,0.366,-22.516,-12.464,-178.533,-7.573,-0.693,-35.173,29.3,-0.00644,-0.10898,0.19327,-0.97501,929,0.925,-0.18,0.294,0.977,0.366,0.244,-30.383,-69.582,-139.757,-29.153,-6.473,-6.687,29.82,0.1322,-0.59113,0.0126,-0.7955,941
234,0.936,-0.182,0.369,0.61,-0.427,0.488,-25.587,-66.324,-172.809,-25.013,-6.287,-13.827,28.54,0.07028,0.54352,-0.15201,0.82245,942,0.524,-0.295,0.803,-0.366,-0.061,0.549,-20.006,-31.278,-106.913,-18.187,-1.567,-7.58,25.28,-0.52737,0.31271,0.0239,0.78955,930,0.213,-0.372,0.896,-0.427,0.061,0.977,-22.527,-12.464,-178.528,-7.573,-0.693,-35.173,29.3,-0.00644,-0.10898,0.19327,-0.97501,948,0.923,-0.179,0.295,1.16,0.549,0.305,-30.366,-69.576,-139.691,-29.153,-6.473,-6.687,29.82,0.1322,-0.59113,0.0126,-0.7955,954
