Time,Device name,Chip Time(),Acceleration X(g),Acceleration Y(g),Acceleration Z(g),Angular velocity X(°/s),Angular velocity Y(°/s),Angular velocity Z(°/s),Angle X(°),Angle Y(°),Angle Z(°),Magnetic field X(ʯt),Magnetic field Y(ʯt),Magnetic field Z(ʯt),Temperature(℃),Quaternions 0(),Quaternions 1(),Quaternions 2(),Quaternions 3()
 12:47:48.602,e3:ca:2d:fd:e0:8c, 2015-01-01 00:34:06.090, 0.985, 0.214, 0.158, -0.061, -0.122, 0, 53.893, -75.009, 92.131, -24.393, -15.240, -10.527, 23.15, 0.29156, 0.64035, -0.1174, 0.70074,
 12:47:48.602,e3:ca:2d:fd:e0:8c, 2015-01-01 00:34:06.090, 0.982, 0.213, 0.156, -0.305, -0.244, 0, 53.899, -75.015, 92.115, -24.393, -15.240, -10.527, 23.15, 0.29156, 0.64035, -0.1174, 0.70074,
 12:47:48.604,ed:35:33:d3:6c:f8, 2015-01-01 00:34:05.385, 0.418, 0.463, 0.776, 0.061, 1.099, -0.061, 31.091, -24.714, 95.801, -8.340, -18.700, -30.113, 26.32, 0.58826, 0.32904, 0.05542, 0.73654,
 12:47:48.604,ed:35:33:d3:6c:f8, 2015-01-01 00:34:05.385, 0.415, 0.466, 0.775, 0.61, 1.038, 0.061, 31.091, -24.692, 95.828, -8.340, -18.700, -30.113, 26.32, 0.58826, 0.32904, 0.05542, 0.73654,
 12:47:48.606,f6:90:cc:01:6d:25, 2015-01-01 00:34:04.400, 0.929, 0.329, 0.094, -0.244, 0, -0.183, 74.443, -69.659, 103.239, -27.367, -17.353, -3.007, 26.78, 0.13504, 0.66479, 0.10678, 0.72684,
 12:47:48.606,f6:90:cc:01:6d:25, 2015-01-01 00:34:04.400, 0.926, 0.329, 0.095, -0.244, -0.061, -0.183, 74.438, -69.659, 103.217, -27.367, -17.353, -3.007, 26.78, 0.13504, 0.66479, 0.10678, 0.72684,
 12:47:48.627,ed:40:fe:65:30:6c, 2015-01-01 00:34:04.855, 0.692, 0.232, 0.688, 0, -0.061, 0.061, 19.078, -43.555, -143.575, -18.673, -12.840, -4.553, 23.72, 0.34457, -0.29944, -0.26065, -0.85062,
 12:47:48.627,ed:40:fe:65:30:6c, 2015-01-01 00:34:04.855, 0.689, 0.234, 0.686, 0.61, 0.061, 0.122, 19.078, -43.555, -143.564, -18.673, -12.840, -4.553, 23.72, 0.34457, -0.29944, -0.26065, -0.85062,
 12:47:48.647,ed:40:fe:65:30:6c, 2015-01-01 00:34:05.235, 0.688, 0.24, 0.686, 0.793, 0.122, 0.366, 19.083, -43.555, -143.542, -18.673, -12.840, -4.553, 23.72, 0.34457, -0.29944, -0.26065, -0.85062,
 12:47:48.647,ed:40:fe:65:30:6c, 2015-01-01 00:34:05.235, 0.689, 0.244, 0.686, 0.916, -0.244, 0.793, 19.089, -43.555, -143.525, -18.673, -12.840, -4.553, 23.72, 0.34457, -0.29944, -0.26065, -0.85062,
 12:47:48.647,e3:ca:2d:fd:e0:8c, 2015-01-01 00:34:06.090, 0.979, 0.212, 0.156, -0.244, -0.061, -0.305, 53.904, -75.009, 92.093, -24.393, -15.240, -10.527, 23.15, 0.29156, 0.64035, -0.1174, 0.70074,
 12:47:48.647,e3:ca:2d:fd:e0:8c, 2015-01-01 00:34:06.090, 0.982, 0.214, 0.154, 0.122, 0, -0.183, 53.915, -75.009, 92.071, -24.393, -15.240, -10.527, 23.15, 0.29156, 0.64035, -0.1174, 0.70074,
 12:47:48.648,ed:35:33:d3:6c:f8, 2015-01-01 00:34:05.385, 0.416, 0.477, 0.778, 0.854, 0.977, 0.183, 31.097, -24.675, 95.834, -8.340, -18.700, -30.113, 26.32, 0.58826, 0.32904, 0.05542, 0.73654,
 12:47:48.648,ed:35:33:d3:6c:f8, 2015-01-01 00:34:05.385, 0.416, 0.477, 0.778, 0.671, 0.916, 0.671, 31.102, -24.664, 95.834, -8.340, -18.700, -30.113, 26.32, 0.58826, 0.32904, 0.05542, 0.73654,
 12:47:48.651,f6:90:cc:01:6d:25, 2015-01-01 00:34:04.400, 0.923, 0.329, 0.092, -0.061, 0.183, -0.183, 74.427, -69.653, 103.217, -27.367, -17.353, -3.007, 26.78, 0.13504, 0.66479, 0.10678, 0.72684,
 12:47:48.651,f6:90:cc:01:6d:25, 2015-01-01 00:34:04.400, 0.924, 0.332, 0.09, 0.122, 0.122, -0.122, 74.421, -69.653, 103.217, -27.367, -17.353, -3.007, 26.78, 0.13504, 0.66479, 0.10678, 0.72684,
 12:47:48.692,e3:ca:2d:fd:e0:8c, 2015-01-01 00:34:06.090, 0.984, 0.214, 0.154, 0.366, 0, 0, 53.921, -75.004, 92.06, -24.393, -15.240, -10.527, 23.15, 0.29156, 0.64035, -0.1174, 0.70074,
 12:47:48.692,e3:ca:2d:fd:e0:8c, 2015-01-01 00:34:06.090, 0.983, 0.216, 0.154, 0.183, -0.061, 0.122, 53.926, -75.004, 92.06, -24.393, -15.240, -10.527, 23.15, 0.29156, 0.64035, -0.1174, 0.70074,
 12:47:48.693,ed:40:fe:65:30:6c, 2015-01-01 00:34:05.235, 0.691, 0.243, 0.685, 0.732, -0.366, 0.977, 19.094, -43.566, -143.509, -18.673, -12.840, -4.553, 23.72, 0.34457, -0.29944, -0.26065, -0.85062,
 12:47:48.693,ed:40:fe:65:30:6c, 2015-01-01 00:34:05.235, 0.69, 0.241, 0.684, 0.244, -0.183, 0.793, 19.094, -43.577, -143.481, -18.673, -12.840, -4.553, 23.72, 0.34457, -0.29944, -0.26065, -0.85062,
 12:47:48.694,ed:35:33:d3:6c:f8, 2015-01-01 00:34:05.385, 0.416, 0.473, 0.776, 0, 0.61, 0.732, 31.102, -24.659, 95.845, -8.340, -18.700, -30.113, 26.32, 0.58826, 0.32904, 0.05542, 0.73654,
 12:47:48.694,ed:35:33:d3:6c:f8, 2015-01-01 00:34:05.385, 0.417, 0.469, 0.774, -0.427, 0.61, 0.61, 31.097, -24.653, 95.856, -8.340, -18.700, -30.113, 26.32, 0.58826, 0.32904, 0.05542, 0.73654,
 12:47:48.696,f6:90:cc:01:6d:25, 2015-01-01 00:34:04.690, 0.926, 0.333, 0.091, 0.366, -0.122, 0, 74.432, -69.653, 103.189, -27.367, -17.353, -3.007, 26.78, 0.13504, 0.66479, 0.10678, 0.72684,
 12:47:48.696,f6:90:cc:01:6d:25, 2015-01-01 00:34:04.690, 0.925, 0.334, 0.091, 0.549, -0.061, 0.244, 74.438, -69.659, 103.195, -27.367, -17.353, -3.007, 26.78, 0.13504, 0.66479, 0.10678, 0.72684,
 12:47:48.715,e3:ca:2d:fd:e0:8c, 2015-01-01 00:34:06.090, 0.982, 0.217, 0.154, 0, -0.122, 0.061, 53.932, -75.004, 92.054, -24.393, -15.240, -10.527, 23.15, 0.29156, 0.64035, -0.1174, 0.70074,
 12:47:48.715,e3:ca:2d:fd:e0:8c, 2015-01-01 00:34:06.090, 0.983, 0.219, 0.152, 0, 0, 0.122, 53.932, -75.004, 92.043, -24.393, -15.240, -10.527, 23.15, 0.29156, 0.64035, -0.1174, 0.70074,
 12:47:48.716,ed:35:33:d3:6c:f8, 2015-01-01 00:34:05.385, 0.416, 0.468, 0.773, -0.427, 0.671, 0.366, 31.08, -24.648, 95.878, -8.340, -18.700, -30.113, 26.32, 0.58826, 0.32904, 0.05542, 0.73654,
 12:47:48.716,ed:35:33:d3:6c:f8, 2015-01-01 00:34:05.385, 0.417, 0.465, 0.775, -0.427, 0.122, 0.244, 31.069, -24.642, 95.889, -8.340, -18.700, -30.113, 26.32, 0.58826, 0.32904, 0.05542, 0.73654,
 12:47:48.716,ed:40:fe:65:30:6c, 2015-01-01 00:34:05.235, 0.69, 0.238, 0.682, 0, -0.183, 0.732, 19.083, -43.588, -143.465, -18.673, -12.840, -4.553, 23.72, 0.34457, -0.29944, -0.26065, -0.85062,
 12:47:48.716,ed:40:fe:65:30:6c, 2015-01-01 00:34:05.235, 0.689, 0.24, 0.682, 0, 0, 0.366, 19.072, -43.594, -143.454, -18.673, -12.840, -4.553, 23.72, 0.34457, -0.29944, -0.26065, -0.85062,
 12:47:48.740,f6:90:cc:01:6d:25, 2015-01-01 00:34:04.690, 0.923, 0.333, 0.091, 0.305, 0.122, 0.244, 74.438, -69.659, 103.189, -27.367, -17.353, -3.007, 26.78, 0.13504, 0.66479, 0.10678, 0.72684,
 12:47:48.740,f6:90:cc:01:6d:25, 2015-01-01 00:34:04.690, 0.922, 0.337, 0.088, 0, 0.122, 0.305, 74.427, -69.664, 103.184, -27.367, -17.353, -3.007, 26.78, 0.13504, 0.66479, 0.10678, 0.72684,
 12:47:48.761,ed:40:fe:65:30:6c, 2015-01-01 00:34:05.235, 0.69, 0.236, 0.683, -0.244, -0.122, -0.122, 19.072, -43.594, -143.448, -18.673, -12.840, -4.553, 23.72, 0.34457, -0.29944, -0.26065, -0.85062,
 12:47:48.761,ed:40:fe:65:30:6c, 2015-01-01 00:34:05.235, 0.689, 0.235, 0.684, -0.244, 0, -0.305, 19.072, -43.594, -143.459, -18.673, -12.840, -4.553, 23.72, 0.34457, -0.29944, -0.26065, -0.85062,
 12:47:48.762,ed:35:33:d3:6c:f8, 2015-01-01 00:34:05.385, 0.417, 0.464, 0.775, -0.488, -0.122, 0, 31.058, -24.648, 95.9, -8.340, -18.700, -30.113, 26.32, 0.58826, 0.32904, 0.05542, 0.73654,
 12:47:48.762,ed:35:33:d3:6c:f8, 2015-01-01 00:34:05.385, 0.417, 0.462, 0.776, 0.122, 0.061, -0.427, 31.053, -24.648, 95.883, -8.340, -18.700, -30.113, 26.32, 0.58826, 0.32904, 0.05542, 0.73654,
 12:47:48.783,e3:ca:2d:fd:e0:8c, 2015-01-01 00:34:06.090, 0.983, 0.22, 0.153, 0, 0, 0.244, 53.932, -75.009, 92.049, -24.393, -15.240, -10.527, 23.15, 0.29156, 0.64035, -0.1174, 0.70074,
 12:47:48.783,e3:ca:2d:fd:e0:8c, 2015-01-01 00:34:06.090, 0.983, 0.216, 0.153, -0.122, 0.061, 0.061, 53.926, -75.009, 92.054, -24.393, -15.240, -10.527, 23.15, 0.29156, 0.64035, -0.1174, 0.70074,
 12:47:48.785,f6:90:cc:01:6d:25, 2015-01-01 00:34:04.690, 0.925, 0.337, 0.089, 0, 0.122, 0.244, 74.421, -69.664, 103.178, -27.367, -17.353, -3.007, 26.78, 0.13504, 0.66479, 0.10678, 0.72684,
 12:47:48.785,f6:90:cc:01:6d:25, 2015-01-01 00:34:04.690, 0.925, 0.332, 0.091, -0.122, 0, 0, 74.421, -69.664, 103.162, -27.367, -17.353, -3.007, 26.78, 0.13504, 0.66479, 0.10678, 0.72684,
 12:47:48.805,e3:ca:2d:fd:e0:8c, 2015-01-01 00:34:06.090, 0.982, 0.216, 0.154, -0.244, 0.061, 0.122, 53.926, -75.009, 92.054, -24.000, -14.887, -10.287, 23.15, 0.29156, 0.64035, -0.1174, 0.70074,
 12:47:48.805,e3:ca:2d:fd:e0:8c, 2015-01-01 00:34:06.090, 0.982, 0.214, 0.155, -0.305, 0, 0.061, 53.915, -75.009, 92.06, -24.000, -14.887, -10.287, 23.15, 0.29156, 0.64035, -0.1174, 0.70074,
 12:47:48.808,f6:90:cc:01:6d:25, 2015-01-01 00:34:04.690, 0.924, 0.331, 0.092, -0.183, 0.061, 0, 74.416, -69.664, 103.145, -27.367, -17.353, -3.007, 26.78, 0.13504, 0.66479, 0.10678, 0.72684,
 12:47:48.808,f6:90:cc:01:6d:25, 2015-01-01 00:34:04.690, 0.926, 0.331, 0.091, -0.488, 0.061, 0, 74.399, -69.659, 103.14, -27.367, -17.353, -3.007, 26.78, 0.13504, 0.66479, 0.10678, 0.72684,
 12:47:48.828,ed:40:fe:65:30:6c, 2015-01-01 00:34:05.235, 0.69, 0.235, 0.685, 0, 0.183, -0.488, 19.072, -43.594, -143.476, -18.673, -12.840, -4.553, 23.72, 0.34457, -0.29944, -0.26065, -0.85062,
 12:47:48.828,ed:40:fe:65:30:6c, 2015-01-01 00:34:05.235, 0.69, 0.238, 0.685, -0.305, 0.061, -0.793, 19.083, -43.583, -143.492, -18.673, -12.840, -4.553, 23.72, 0.34457, -0.29944, -0.26065, -0.85062,
 12:47:48.829,ed:35:33:d3:6c:f8, 2015-01-01 00:34:05.385, 0.417, 0.464, 0.776, 0.244, 0.183, -0.61, 31.058, -24.642, 95.878, -8.227, -18.827, -30.120, 26.32, 0.58826, 0.32904, 0.05542, 0.73654,
 12:47:48.829,ed:35:33:d3:6c:f8, 2015-01-01 00:34:05.385, 0.417, 0.464, 0.778, 0.244, 0.244, -1.038, 31.069, -24.631, 95.872, -8.227, -18.827, -30.120, 26.32, 0.58826, 0.32904, 0.05542, 0.73654,
 12:47:48.850,ed:40:fe:65:30:6c, 2015-01-01 00:34:05.235, 0.689, 0.233, 0.684, -0.61, 0.061, -1.099, 19.094, -43.577, -143.52, -18.707, -12.960, -4.100, 23.72, 0.34457, -0.29944, -0.26065, -0.85062,
 12:47:48.850,ed:40:fe:65:30:6c, 2015-01-01 00:34:05.235, 0.69, 0.234, 0.684, -0.793, 0.122, -0.793, 19.094, -43.572, -143.547, -18.707, -12.960, -4.100, 23.72, 0.34457, -0.29944, -0.26065, -0.85062,
 12:47:48.850,e3:ca:2d:fd:e0:8c, 2015-01-01 00:34:06.090, 0.983, 0.213, 0.156, -0.305, 0, 0.061, 53.915, -75.004, 92.06, -24.000, -14.887, -10.287, 23.15, 0.29156, 0.64035, -0.1174, 0.70074,
 12:47:48.850,e3:ca:2d:fd:e0:8c, 2015-01-01 00:34:06.090, 0.982, 0.211, 0.157, -0.305, -0.061, 0, 53.91, -75.004, 92.054, -24.000, -14.887, -10.287, 23.15, 0.29156, 0.64035, -0.1174, 0.70074,
 12:47:48.852,ed:35:33:d3:6c:f8, 2015-01-01 00:34:05.385, 0.415, 0.465, 0.775, -0.061, 0, -1.038, 31.075, -24.62, 95.878, -8.227, -18.827, -30.120, 26.32, 0.58813, 0.32785, 0.05667, 0.73706,
 12:47:48.852,ed:35:33:d3:6c:f8, 2015-01-01 00:34:05.385, 0.416, 0.469, 0.775, -0.61, -0.244, -0.793, 31.08, -24.609, 95.861, -8.227, -18.827, -30.120, 26.32, 0.58813, 0.32785, 0.05667, 0.73706,
 12:47:48.855,f6:90:cc:01:6d:25, 2015-01-01 00:34:04.690, 0.927, 0.326, 0.093, -0.61, 0.122, -0.061, 74.388, -69.659, 103.129, -27.367, -17.353, -3.007, 26.78, 0.13504, 0.66479, 0.10678, 0.72684,
 12:47:48.855,f6:90:cc:01:6d:25, 2015-01-01 00:34:04.690, 0.925, 0.325, 0.093, -0.61, 0.183, -0.061, 74.372, -69.653, 103.118, -27.367, -17.353, -3.007, 26.78, 0.13504, 0.66479, 0.10678, 0.72684,
 12:47:48.896,ed:40:fe:65:30:6c, 2015-01-01 00:34:05.235, 0.69, 0.236, 0.685, -0.916, 0.122, -0.366, 19.089, -43.566, -143.569, -18.707, -12.960, -4.100, 23.72, 0.34457, -0.29944, -0.26065, -0.85062,
 12:47:48.896,ed:40:fe:65:30:6c, 2015-01-01 00:34:05.235, 0.689, 0.234, 0.686, -0.549, 0.183, 0, 19.078, -43.561, -143.58, -18.707, -12.960, -4.100, 23.72, 0.34457, -0.29944, -0.26065, -0.85062,
 12:47:48.897,ed:35:33:d3:6c:f8, 2015-01-01 00:34:05.385, 0.417, 0.469, 0.776, -0.732, -0.183, -0.61, 31.075, -24.609, 95.85, -8.227, -18.827, -30.120, 26.32, 0.58813, 0.32785, 0.05667, 0.73706,
 12:47:48.897,ed:35:33:d3:6c:f8, 2015-01-01 00:34:05.385, 0.415, 0.467, 0.779, -0.488, 0, -0.305, 31.064, -24.604, 95.872, -8.227, -18.827, -30.120, 26.32, 0.58813, 0.32785, 0.05667, 0.73706,
 12:47:48.898,f6:90:cc:01:6d:25, 2015-01-01 00:34:04.690, 0.925, 0.326, 0.093, -0.427, 0.244, 0.061, 74.35, -69.653, 103.112, -27.460, -17.033, -2.853, 26.78, 0.13504, 0.66479, 0.10678, 0.72684,
 12:47:48.898,f6:90:cc:01:6d:25, 2015-01-01 00:34:04.690, 0.925, 0.327, 0.093, -0.061, 0.244, 0.061, 74.333, -69.653, 103.112, -27.460, -17.033, -2.853, 26.78, 0.13504, 0.66479, 0.10678, 0.72684,
 12:47:48.918,ed:40:fe:65:30:6c, 2015-01-01 00:34:05.235, 0.688, 0.233, 0.687, -0.244, 0, 0, 19.067, -43.561, -143.586, -18.707, -12.960, -4.100, 23.72, 0.34454, -0.2995, -0.2605, -0.85065,
 12:47:48.918,ed:40:fe:65:30:6c, 2015-01-01 00:34:05.235, 0.688, 0.232, 0.688, -0.244, -0.061, 0, 19.061, -43.561, -143.586, -18.707, -12.960, -4.100, 23.72, 0.34454, -0.2995, -0.2605, -0.85065,
 12:47:48.918,e3:ca:2d:fd:e0:8c, 2015-01-01 00:34:06.090, 0.982, 0.209, 0.157, -0.366, 0.061, -0.061, 53.91, -75.004, 92.049, -24.000, -14.887, -10.287, 23.15, 0.2923, 0.6402, -0.11792, 0.7005,
 12:47:48.918,e3:ca:2d:fd:e0:8c, 2015-01-01 00:34:06.090, 0.982, 0.21, 0.156, -0.244, 0.122, 0, 53.904, -75.004, 92.049, -24.000, -14.887, -10.287, 23.15, 0.2923, 0.6402, -0.11792, 0.7005,
 12:47:48.919,ed:35:33:d3:6c:f8, 2015-01-01 00:34:05.745, 0.415, 0.465, 0.782, -0.427, 0.244, -0.061, 31.058, -24.604, 95.905, -8.227, -18.827, -30.120, 26.32, 0.58813, 0.32785, 0.05667, 0.73706,
 12:47:48.919,ed:35:33:d3:6c:f8, 2015-01-01 00:34:05.745, 0.414, 0.462, 0.781, -0.183, 0.305, -0.122, 31.047, -24.598, 95.922, -8.227, -18.827, -30.120, 26.32, 0.58813, 0.32785, 0.05667, 0.73706,
 12:47:48.943,f6:90:cc:01:6d:25, 2015-01-01 00:34:04.690, 0.926, 0.328, 0.095, 0.061, 0.244, 0.061, 74.317, -69.653, 103.107, -27.460, -17.033, -2.853, 26.78, 0.13654, 0.66473, 0.10532, 0.72684,
 12:47:48.943,f6:90:cc:01:6d:25, 2015-01-01 00:34:04.690, 0.924, 0.328, 0.095, 0, 0.061, 0, 74.306, -69.653, 103.107, -27.460, -17.033, -2.853, 26.78, 0.13654, 0.66473, 0.10532, 0.72684,
 12:47:48.962,e3:ca:2d:fd:e0:8c, 2015-01-01 00:34:06.445, 0.982, 0.211, 0.157, 0, 0.122, 0, 53.888, -74.998, 92.049, -24.000, -14.887, -10.287, 23.15, 0.2923, 0.6402, -0.11792, 0.7005,
 12:47:48.962,e3:ca:2d:fd:e0:8c, 2015-01-01 00:34:06.445, 0.983, 0.213, 0.155, 0.061, 0, 0, 53.882, -74.998, 92.049, -24.000, -14.887, -10.287, 23.15, 0.2923, 0.6402, -0.11792, 0.7005,
 12:47:48.964,ed:35:33:d3:6c:f8, 2015-01-01 00:34:05.745, 0.413, 0.464, 0.781, 0.183, 0.061, 0, 31.042, -24.593, 95.927, -8.227, -18.827, -30.120, 26.32, 0.58813, 0.32785, 0.05667, 0.73706,
 12:47:48.964,ed:35:33:d3:6c:f8, 2015-01-01 00:34:05.745, 0.413, 0.466, 0.78, 0.427, -0.122, 0.122, 31.047, -24.593, 95.949, -8.227, -18.827, -30.120, 26.32, 0.58813, 0.32785, 0.05667, 0.73706,
 12:47:48.966,f6:90:cc:01:6d:25, 2015-01-01 00:34:05.005, 0.924, 0.328, 0.096, 0, -0.061, -0.122, 74.301, -69.653, 103.09, -27.460, -17.033, -2.853, 26.78, 0.13654, 0.66473, 0.10532, 0.72684,
 12:47:48.966,f6:90:cc:01:6d:25, 2015-01-01 00:34:05.005, 0.923, 0.331, 0.095, -0.122, 0, -0.122, 74.301, -69.653, 103.068, -27.460, -17.033, -2.853, 26.78, 0.13654, 0.66473, 0.10532, 0.72684,
 12:47:48.985,ed:40:fe:65:30:6c, 2015-01-01 00:34:05.235, 0.687, 0.231, 0.688, 0.061, 0, 0, 19.056, -43.561, -143.591, -18.707, -12.960, -4.100, 23.72, 0.34454, -0.2995, -0.2605, -0.85065,
 12:47:48.985,ed:40:fe:65:30:6c, 2015-01-01 00:34:05.235, 0.688, 0.234, 0.688, 0.427, 0, 0.122, 19.056, -43.561, -143.597, -18.707, -12.960, -4.100, 23.72, 0.34454, -0.2995, -0.2605, -0.85065,
 12:47:48.985,e3:ca:2d:fd:e0:8c, 2015-01-01 00:34:06.445, 0.981, 0.214, 0.156, 0, 0, -0.061, 53.882, -74.998, 92.049, -24.000, -14.887, -10.287, 23.15, 0.2923, 0.6402, -0.11792, 0.7005,
 12:47:48.985,e3:ca:2d:fd:e0:8c, 2015-01-01 00:34:06.445, 0.981, 0.215, 0.156, -0.061, -0.122, -0.183, 53.888, -74.998, 92.038, -24.000, -14.887, -10.287, 23.15, 0.2923, 0.6402, -0.11792, 0.7005,
 12:47:49.008,ed:40:fe:65:30:6c, 2015-01-01 00:34:05.570, 0.687, 0.236, 0.686, 0.61, -0.122, 0.061, 19.061, -43.561, -143.597, -18.707, -12.960, -4.100, 23.72, 0.34454, -0.2995, -0.2605, -0.85065,
 12:47:49.008,ed:40:fe:65:30:6c, 2015-01-01 00:34:05.570, 0.688, 0.234, 0.685, 0.732, -0.122, 0, 19.072, -43.566, -143.602, -18.707, -12.960, -4.100, 23.72, 0.34454, -0.2995, -0.2605, -0.85065,
 12:47:49.008,e3:ca:2d:fd:e0:8c, 2015-01-01 00:34:06.445, 0.981, 0.216, 0.156, -0.122, -0.305, -0.183, 53.904, -74.993, 92.016, -24.000, -14.887, -10.287, 23.15, 0.2923, 0.6402, -0.11792, 0.7005,
 12:47:49.008,e3:ca:2d:fd:e0:8c, 2015-01-01 00:34:06.445, 0.981, 0.217, 0.155, -0.122, -0.244, -0.183, 53.926, -74.993, 91.983, -24.000, -14.887, -10.287, 23.15, 0.2923, 0.6402, -0.11792, 0.7005,
 12:47:49.010,ed:35:33:d3:6c:f8, 2015-01-01 00:34:05.745, 0.414, 0.466, 0.779, 0.549, -0.183, 0.244, 31.053, -24.598, 95.96, -8.227, -18.827, -30.120, 26.32, 0.58813, 0.32785, 0.05667, 0.73706,
 12:47:49.010,ed:35:33:d3:6c:f8, 2015-01-01 00:34:05.745, 0.415, 0.464, 0.775, 0.61, -0.122, 0.305, 31.058, -24.604, 95.938, -8.227, -18.827, -30.120, 26.32, 0.58813, 0.32785, 0.05667, 0.73706,
 12:47:49.011,f6:90:cc:01:6d:25, 2015-01-01 00:34:05.005, 0.922, 0.331, 0.093, -0.061, 0, -0.183, 74.301, -69.653, 103.052, -27.460, -17.033, -2.853, 26.78, 0.13654, 0.66473, 0.10532, 0.72684,
 12:47:49.011,f6:90:cc:01:6d:25, 2015-01-01 00:34:05.005, 0.925, 0.332, 0.094, 0, -0.061, -0.366, 74.301, -69.648, 103.035, -27.460, -17.033, -2.853, 26.78, 0.13654, 0.66473, 0.10532, 0.72684,
 12:47:49.053,ed:40:fe:65:30:6c, 2015-01-01 00:34:05.570, 0.689, 0.238, 0.683, 0.793, -0.122, 0, 19.083, -43.566, -143.608, -18.707, -12.960, -4.100, 23.72, 0.34454, -0.2995, -0.2605, -0.85065,
 12:47:49.053,ed:40:fe:65:30:6c, 2015-01-01 00:34:05.570, 0.687, 0.239, 0.683, 0.793, 0, -0.122, 19.1, -43.566, -143.613, -18.707, -12.960, -4.100, 23.72, 0.34454, -0.2995, -0.2605, -0.85065,
 12:47:49.053,e3:ca:2d:fd:e0:8c, 2015-01-01 00:34:06.445, 0.981, 0.215, 0.155, -0.122, -0.122, -0.122, 53.943, -74.993, 91.961, -24.000, -14.887, -10.287, 23.15, 0.2923, 0.6402, -0.11792, 0.7005,
 12:47:49.053,e3:ca:2d:fd:e0:8c, 2015-01-01 00:34:06.445, 0.981, 0.214, 0.157, -0.061, -0.122, -0.122, 53.954, -74.993, 91.939, -24.000, -14.887, -10.287, 23.15, 0.2923, 0.6402, -0.11792, 0.7005,
 12:47:49.054,ed:35:33:d3:6c:f8, 2015-01-01 00:34:05.745, 0.415, 0.467, 0.774, 0.793, 0.061, 0.183, 31.069, -24.609, 95.922, -8.227, -18.827, -30.120, 26.32, 0.58813, 0.32785, 0.05667, 0.73706,
 12:47:49.054,ed:35:33:d3:6c:f8, 2015-01-01 00:34:05.745, 0.414, 0.468, 0.774, 0.854, 0.061, 0.061, 31.08, -24.609, 95.927, -8.227, -18.827, -30.120, 26.32, 0.58813, 0.32785, 0.05667, 0.73706,
 12:47:49.055,f6:90:cc:01:6d:25, 2015-01-01 00:34:05.005, 0.924, 0.332, 0.095, 0.183, 0, -0.305, 74.306, -69.642, 103.013, -27.460, -17.033, -2.853, 26.78, 0.13654, 0.66473, 0.10532, 0.72684,
 12:47:49.055,f6:90:cc:01:6d:25, 2015-01-01 00:34:05.005, 0.922, 0.332, 0.095, 0, 0.122, -0.183, 74.306, -69.637, 102.997, -27.460, -17.033, -2.853, 26.78, 0.13654, 0.66473, 0.10532, 0.72684,
 12:47:49.075,ed:40:fe:65:30:6c, 2015-01-01 00:34:05.570, 0.687, 0.24, 0.684, 0.488, 0.061, -0.122, 19.116, -43.566, -143.619, -18.707, -12.960, -4.100, 23.72, 0.34454, -0.2995, -0.2605, -0.85065,
 12:47:49.075,ed:40:fe:65:30:6c, 2015-01-01 00:34:05.570, 0.689, 0.245, 0.682, 0.488, 0.122, -0.061, 19.127, -43.561, -143.624, -18.707, -12.960, -4.100, 23.72, 0.34454, -0.2995, -0.2605, -0.85065,
 12:47:49.097,e3:ca:2d:fd:e0:8c, 2015-01-01 00:34:06.445, 0.98, 0.215, 0.156, 0, -0.061, -0.061, 53.965, -74.987, 91.928, -24.000, -14.887, -10.287, 23.15, 0.2923, 0.6402, -0.11792, 0.7005,
 12:47:49.097,e3:ca:2d:fd:e0:8c, 2015-01-01 00:34:06.445, 0.98, 0.218, 0.155, -0.061, 0, 0.061, 53.97, -74.987, 91.917, -24.000, -14.887, -10.287, 23.15, 0.2923, 0.6402, -0.11792, 0.7005,
 12:47:49.099,ed:35:33:d3:6c:f8, 2015-01-01 00:34:05.745, 0.414, 0.473, 0.773, 1.038, 0.061, -0.122, 31.097, -24.604, 95.922, -8.227, -18.827, -30.120, 26.32, 0.58813, 0.32785, 0.05667, 0.73706,
 12:47:49.099,ed:35:33:d3:6c:f8, 2015-01-01 00:34:05.745, 0.416, 0.476, 0.772, 0.671, -0.061, 0.061, 31.119, -24.604, 95.878, -8.227, -18.827, -30.120, 26.32, 0.58813, 0.32785, 0.05667, 0.73706,
 12:47:49.101,f6:90:cc:01:6d:25, 2015-01-01 00:34:05.005, 0.922, 0.337, 0.092, -0.122, 0, 0, 74.301, -69.631, 102.986, -27.460, -17.033, -2.853, 26.78, 0.13654, 0.66473, 0.10532, 0.72684,
 12:47:49.101,f6:90:cc:01:6d:25, 2015-01-01 00:34:05.005, 0.926, 0.335, 0.092, 0, 0, 0.061, 74.301, -69.631, 102.969, -27.460, -17.033, -2.853, 26.78, 0.13654, 0.66473, 0.10532, 0.72684,
 12:47:49.121,ed:35:33:d3:6c:f8, 2015-01-01 00:34:05.745, 0.418, 0.473, 0.781, 0.488, 0.061, -0.305, 31.13, -24.604, 95.823, -8.127, -18.507, -30.233, 26.32, 0.58813, 0.32785, 0.05667, 0.73706,
 12:47:49.121,ed:35:33:d3:6c:f8, 2015-01-01 00:34:05.745, 0.42, 0.475, 0.78, 0, 0.305, 0, 31.141, -24.598, 95.795, -8.127, -18.507, -30.233, 26.32, 0.58813, 0.32785, 0.05667, 0.73706,
 12:47:49.121,ed:40:fe:65:30:6c, 2015-01-01 00:34:05.570, 0.692, 0.243, 0.687, 0.183, 0.122, -0.061, 19.133, -43.561, -143.63, -18.707, -12.960, -4.100, 23.72, 0.34454, -0.2995, -0.2605, -0.85065,
 12:47:49.121,ed:40:fe:65:30:6c, 2015-01-01 00:34:05.570, 0.693, 0.239, 0.687, 0.183, -0.366, 0, 19.138, -43.561, -143.635, -18.707, -12.960, -4.100, 23.72, 0.34454, -0.2995, -0.2605, -0.85065,
 12:47:49.142,e3:ca:2d:fd:e0:8c, 2015-01-01 00:34:06.445, 0.986, 0.218, 0.155, 0, -0.061, 0.305, 53.965, -74.987, 91.917, -24.000, -14.887, -10.287, 23.15, 0.2923, 0.6402, -0.11792, 0.7005,
 12:47:49.142,e3:ca:2d:fd:e0:8c, 2015-01-01 00:34:06.445, 0.987, 0.214, 0.154, 0.061, 0.061, 0.305, 53.954, -74.993, 91.928, -24.000, -14.887, -10.287, 23.15, 0.2923, 0.6402, -0.11792, 0.7005,
 12:47:49.145,f6:90:cc:01:6d:25, 2015-01-01 00:34:05.005, 0.929, 0.331, 0.091, 0.244, 0, -0.061, 74.301, -69.631, 102.958, -27.460, -17.033, -2.853, 26.78, 0.13654, 0.66473, 0.10532, 0.72684,
 12:47:49.145,f6:90:cc:01:6d:25, 2015-01-01 00:34:05.005, 0.93, 0.329, 0.092, 0.305, -0.244, -0.061, 74.306, -69.626, 102.936, -27.460, -17.033, -2.853, 26.78, 0.13654, 0.66473, 0.10532, 0.72684,
 12:47:49.164,e3:ca:2d:fd:e0:8c, 2015-01-01 00:34:06.445, 0.987, 0.212, 0.154, 0.183, 0.122, 0.183, 53.943, -74.993, 91.939, -24.213, -15.167, -10.167, 23.15, 0.2923, 0.6402, -0.11792, 0.7005,
 12:47:49.164,e3:ca:2d:fd:e0:8c, 2015-01-01 00:34:06.445, 0.984, 0.215, 0.154, 0.061, -0.122, 0.183, 53.937, -74.993, 91.95, -24.213, -15.167, -10.167, 23.15, 0.2923, 0.6402, -0.11792, 0.7005,
 12:47:49.166,ed:35:33:d3:6c:f8, 2015-01-01 00:34:05.745, 0.42, 0.469, 0.777, -0.061, -0.366, 0.427, 31.141, -24.598, 95.779, -8.127, -18.507, -30.233, 26.32, 0.58813, 0.32785, 0.05667, 0.73706,
 12:47:49.166,ed:35:33:d3:6c:f8, 2015-01-01 00:34:05.745, 0.419, 0.467, 0.777, 0.183, 0, 0.244, 31.135, -24.604, 95.768, -8.127, -18.507, -30.233, 26.32, 0.58813, 0.32785, 0.05667, 0.73706,
 12:47:49.168,f6:90:cc:01:6d:25, 2015-01-01 00:34:05.005, 0.928, 0.332, 0.093, 0.183, -0.061, 0, 74.323, -69.626, 102.914, -27.513, -17.227, -3.027, 26.78, 0.13654, 0.66473, 0.10532, 0.72684,
 12:47:49.168,f6:90:cc:01:6d:25, 2015-01-01 00:34:05.005, 0.924, 0.332, 0.093, 0.244, 0, 0, 74.328, -69.626, 102.898, -27.513, -17.227, -3.027, 26.78, 0.13654, 0.66473, 0.10532, 0.72684,
 12:47:49.188,ed:40:fe:65:30:6c, 2015-01-01 00:34:05.570, 0.694, 0.236, 0.685, 0.305, -0.244, 0.305, 19.144, -43.566, -143.635, -18.707, -12.960, -4.100, 23.72, 0.34454, -0.2995, -0.2605, -0.85065,
 12:47:49.188,ed:40:fe:65:30:6c, 2015-01-01 00:34:05.570, 0.691, 0.238, 0.686, 0.61, -0.061, 0.305, 19.149, -43.572, -143.635, -18.707, -12.960, -4.100, 23.72, 0.34454, -0.2995, -0.2605, -0.85065,
 12:47:49.209,e3:ca:2d:fd:e0:8c, 2015-01-01 00:34:06.445, 0.98, 0.214, 0.154, 0, -0.122, 0.122, 53.943, -74.998, 91.945, -24.213, -15.167, -10.167, 23.15, 0.2923, 0.6402, -0.11792, 0.7005,
 12:47:49.209,e3:ca:2d:fd:e0:8c, 2015-01-01 00:34:06.445, 0.979, 0.212, 0.154, 0, -0.122, 0.122, 53.948, -74.998, 91.939, -24.213, -15.167, -10.167, 23.15, 0.2923, 0.6402, -0.11792, 0.7005,
 12:47:49.210,ed:40:fe:65:30:6c, 2015-01-01 00:34:05.570, 0.689, 0.235, 0.683, 0.671, 0, 0.183, 19.16, -43.572, -143.63, -18.880, -13.000, -4.580, 23.72, 0.34454, -0.2995, -0.2605, -0.85065,
 12:47:49.210,ed:40:fe:65:30:6c, 2015-01-01 00:34:05.570, 0.687, 0.238, 0.682, 0.671, 0.061, 0.061, 19.171, -43.577, -143.63, -18.880, -13.000, -4.580, 23.72, 0.34454, -0.2995, -0.2605, -0.85065,
 12:47:49.214,f6:90:cc:01:6d:25, 2015-01-01 00:34:05.005, 0.921, 0.331, 0.09, 0.061, 0.122, 0, 74.333, -69.626, 102.887, -27.513, -17.227, -3.027, 26.78, 0.13654, 0.66473, 0.10532, 0.72684,
 12:47:49.214,f6:90:cc:01:6d:25, 2015-01-01 00:34:05.005, 0.922, 0.329, 0.091, 0.183, 0.183, 0, 74.328, -69.626, 102.881, -27.513, -17.227, -3.027, 26.78, 0.13654, 0.66473, 0.10532, 0.72684,
 12:47:49.234,ed:35:33:d3:6c:f8, 2015-01-01 00:34:05.745, 0.416, 0.465, 0.776, 0.488, 0.305, 0, 31.141, -24.609, 95.746, -8.127, -18.507, -30.233, 26.32, 0.58871, 0.32809, 0.05688, 0.73651,
 12:47:49.234,ed:35:33:d3:6c:f8, 2015-01-01 00:34:05.745, 0.413, 0.467, 0.774, 0.488, 0.122, 0, 31.146, -24.604, 95.746, -8.127, -18.507, -30.233, 26.32, 0.58871, 0.32809, 0.05688, 0.73651,
 12:47:49.257,ed:40:fe:65:30:6c, 2015-01-01 00:34:05.570, 0.687, 0.236, 0.682, 0.366, 0, -0.061, 19.182, -43.577, -143.635, -18.880, -13.000, -4.580, 23.72, 0.34454, -0.2995, -0.2605, -0.85065,
 12:47:49.257,ed:40:fe:65:30:6c, 2015-01-01 00:34:05.570, 0.687, 0.236, 0.682, -0.061, -0.061, -0.183, 19.182, -43.577, -143.641, -18.880, -13.000, -4.580, 23.72, 0.34454, -0.2995, -0.2605, -0.85065,
 12:47:49.258,ed:35:33:d3:6c:f8, 2015-01-01 00:34:06.080, 0.415, 0.467, 0.773, 0.061, -0.122, -0.061, 31.157, -24.604, 95.757, -8.127, -18.507, -30.233, 26.32, 0.58871, 0.32809, 0.05688, 0.73651,
 12:47:49.258,ed:35:33:d3:6c:f8, 2015-01-01 00:34:06.080, 0.413, 0.466, 0.771, -0.183, 0, -0.122, 31.157, -24.604, 95.735, -8.127, -18.507, -30.233, 26.32, 0.58871, 0.32809, 0.05688, 0.73651,
 12:47:49.258,f6:90:cc:01:6d:25, 2015-01-01 00:34:05.005, 0.923, 0.329, 0.094, 0.244, -0.061, -0.061, 74.328, -69.626, 102.87, -27.513, -17.227, -3.027, 26.78, 0.13806, 0.66489, 0.10425, 0.72656,
 12:47:49.258,f6:90:cc:01:6d:25, 2015-01-01 00:34:05.005, 0.924, 0.328, 0.096, 0.183, -0.061, 0, 74.333, -69.626, 102.854, -27.513, -17.227, -3.027, 26.78, 0.13806, 0.66489, 0.10425, 0.72656,
 12:47:49.277,e3:ca:2d:fd:e0:8c, 2015-01-01 00:34:06.445, 0.979, 0.213, 0.155, 0.061, 0.061, 0.183, 53.948, -75.004, 91.939, -24.213, -15.167, -10.167, 23.15, 0.29282, 0.64017, -0.11832, 0.70023,
 12:47:49.277,e3:ca:2d:fd:e0:8c, 2015-01-01 00:34:06.445, 0.98, 0.213, 0.156, 0.122, 0.061, 0.122, 53.943, -75.004, 91.945, -24.213, -15.167, -10.167, 23.15, 0.29282, 0.64017, -0.11832, 0.70023,
 12:47:49.278,ed:40:fe:65:30:6c, 2015-01-01 00:34:05.570, 0.688, 0.235, 0.682, -0.061, 0.061, 0, 19.182, -43.572, -143.646, -18.880, -13.000, -4.580, 23.72, 0.34439, -0.29944, -0.2612, -0.85052,
 12:47:49.278,ed:40:fe:65:30:6c, 2015-01-01 00:34:05.570, 0.689, 0.237, 0.684, -0.122, 0.061, 0.061, 19.182, -43.572, -143.652, -18.880, -13.000, -4.580, 23.72, 0.34439, -0.29944, -0.2612, -0.85052,
 12:47:49.299,e3:ca:2d:fd:e0:8c, 2015-01-01 00:34:06.805, 0.98, 0.213, 0.158, 0, -0.061, 0, 53.943, -75.004, 91.945, -24.213, -15.167, -10.167, 23.15, 0.29282, 0.64017, -0.11832, 0.70023,
 12:47:49.299,e3:ca:2d:fd:e0:8c, 2015-01-01 00:34:06.805, 0.982, 0.213, 0.157, 0, 0, 0, 53.943, -75.004, 91.939, -24.213, -15.167, -10.167, 23.15, 0.29282, 0.64017, -0.11832, 0.70023,
 12:47:49.302,ed:35:33:d3:6c:f8, 2015-01-01 00:34:06.080, 0.415, 0.468, 0.773, -0.122, 0.366, -0.183, 31.152, -24.604, 95.724, -8.127, -18.507, -30.233, 26.32, 0.58871, 0.32809, 0.05688, 0.73651,
 12:47:49.302,ed:35:33:d3:6c:f8, 2015-01-01 00:34:06.080, 0.416, 0.468, 0.778, -0.305, 0.366, -0.061, 31.152, -24.598, 95.713, -8.127, -18.507, -30.233, 26.32, 0.58871, 0.32809, 0.05688, 0.73651,
 12:47:49.303,f6:90:cc:01:6d:25, 2015-01-01 00:34:05.315, 0.924, 0.328, 0.095, 0, 0.122, 0, 74.333, -69.626, 102.843, -27.513, -17.227, -3.027, 26.78, 0.13806, 0.66489, 0.10425, 0.72656,
 12:47:49.303,f6:90:cc:01:6d:25, 2015-01-01 00:34:05.315, 0.926, 0.33, 0.092, -0.122, 0.244, 0, 74.323, -69.626, 102.843, -27.513, -17.227, -3.027, 26.78, 0.13806, 0.66489, 0.10425, 0.72656,
 12:47:49.323,e3:ca:2d:fd:e0:8c, 2015-01-01 00:34:06.805, 0.986, 0.214, 0.155, 0, 0, 0, 53.943, -75.004, 91.934, -24.213, -15.167, -10.167, 23.15, 0.29282, 0.64017, -0.11832, 0.70023,
 12:47:49.323,e3:ca:2d:fd:e0:8c, 2015-01-01 00:34:06.805, 0.987, 0.214, 0.155, 0, 0, 0, 53.943, -75.004, 91.934, -24.213, -15.167, -10.167, 23.15, 0.29282, 0.64017, -0.11832, 0.70023,
 12:47:49.323,ed:40:fe:65:30:6c, 2015-01-01 00:34:05.570, 0.692, 0.236, 0.687, -0.183, 0, 0.061, 19.177, -43.572, -143.652, -18.880, -13.000, -4.580, 23.72, 0.34439, -0.29944, -0.2612, -0.85052,
 12:47:49.323,ed:40:fe:65:30:6c, 2015-01-01 00:34:05.570, 0.693, 0.235, 0.686, -0.244, -0.122, 0, 19.171, -43.577, -143.652, -18.880, -13.000, -4.580, 23.72, 0.34439, -0.29944, -0.2612, -0.85052,
 12:47:49.325,ed:35:33:d3:6c:f8, 2015-01-01 00:34:06.080, 0.418, 0.468, 0.782, -0.488, 0.183, 0, 31.141, -24.593, 95.691, -8.127, -18.507, -30.233, 26.32, 0.58871, 0.32809, 0.05688, 0.73651,
 12:47:49.325,ed:35:33:d3:6c:f8, 2015-01-01 00:34:06.080, 0.418, 0.465, 0.778, -0.488, 0, 0, 31.13, -24.587, 95.652, -8.127, -18.507, -30.233, 26.32, 0.58871, 0.32809, 0.05688, 0.73651,
 12:47:49.349,f6:90:cc:01:6d:25, 2015-01-01 00:34:05.315, 0.93, 0.331, 0.093, -0.122, 0, -0.061, 74.312, -69.62, 102.838, -27.513, -17.227, -3.027, 26.78, 0.13806, 0.66489, 0.10425, 0.72656,
 12:47:49.349,f6:90:cc:01:6d:25, 2015-01-01 00:34:05.315, 0.928, 0.331, 0.095, 0, -0.122, -0.061, 74.312, -69.62, 102.821, -27.513, -17.227, -3.027, 26.78, 0.13806, 0.66489, 0.10425, 0.72656,
 12:47:49.367,ed:40:fe:65:30:6c, 2015-01-01 00:34:05.930, 0.69, 0.235, 0.685, -0.122, 0.061, -0.061, 19.166, -43.577, -143.657, -18.880, -13.000, -4.580, 23.72, 0.34439, -0.29944, -0.2612, -0.85052,
 12:47:49.367,ed:40:fe:65:30:6c, 2015-01-01 00:34:05.930, 0.688, 0.235, 0.687, 0.061, 0.122, -0.122, 19.166, -43.572, -143.663, -18.880, -13.000, -4.580, 23.72, 0.34439, -0.29944, -0.2612, -0.85052,
 12:47:49.367,e3:ca:2d:fd:e0:8c, 2015-01-01 00:34:06.805, 0.984, 0.212, 0.157, -0.122, -0.122, -0.061, 53.948, -74.998, 91.923, -24.213, -15.167, -10.167, 23.15, 0.29282, 0.64017, -0.11832, 0.70023,
 12:47:49.367,e3:ca:2d:fd:e0:8c, 2015-01-01 00:34:06.805, 0.98, 0.213, 0.156, -0.183, 0, -0.122, 53.954, -74.998, 91.912, -24.213, -15.167, -10.167, 23.15, 0.29282, 0.64017, -0.11832, 0.70023,
 12:47:49.369,ed:35:33:d3:6c:f8, 2015-01-01 00:34:06.080, 0.415, 0.464, 0.778, 0, -0.061, -0.244, 31.119, -24.587, 95.663, -8.127, -18.507, -30.233, 26.32, 0.58871, 0.32809, 0.05688, 0.73651,
 12:47:49.369,ed:35:33:d3:6c:f8, 2015-01-01 00:34:06.080, 0.416, 0.469, 0.78, 0.427, 0, -0.183, 31.124, -24.587, 95.674, -8.127, -18.507, -30.233, 26.32, 0.58871, 0.32809, 0.05688, 0.73651,
 12:47:49.370,f6:90:cc:01:6d:25, 2015-01-01 00:34:05.315, 0.925, 0.329, 0.094, -0.061, 0.122, -0.061, 74.312, -69.62, 102.805, -27.513, -17.227, -3.027, 26.78, 0.13806, 0.66489, 0.10425, 0.72656,
 12:47:49.370,f6:90:cc:01:6d:25, 2015-01-01 00:34:05.315, 0.923, 0.329, 0.093, -0.183, 0.122, 0, 74.301, -69.62, 102.799, -27.513, -17.227, -3.027, 26.78, 0.13806, 0.66489, 0.10425, 0.72656,
 12:47:49.413,ed:40:fe:65:30:6c, 2015-01-01 00:34:05.930, 0.69, 0.236, 0.685, 0.183, 0.061, -0.061, 19.166, -43.572, -143.668, -18.880, -13.000, -4.580, 23.72, 0.34439, -0.29944, -0.2612, -0.85052,
 12:47:49.413,ed:40:fe:65:30:6c, 2015-01-01 00:34:05.930, 0.688, 0.236, 0.684, 0.305, -0.122, 0, 19.171, -43.572, -143.674, -18.880, -13.000, -4.580, 23.72, 0.34439, -0.29944, -0.2612, -0.85052,
 12:47:49.413,e3:ca:2d:fd:e0:8c, 2015-01-01 00:34:06.805, 0.981, 0.213, 0.155, 0, 0, -0.122, 53.954, -74.998, 91.906, -24.213, -15.167, -10.167, 23.15, 0.29282, 0.64017, -0.11832, 0.70023,
 12:47:49.413,e3:ca:2d:fd:e0:8c, 2015-01-01 00:34:06.805, 0.983, 0.212, 0.155, 0, -0.061, -0.061, 53.959, -74.993, 91.895, -24.213, -15.167, -10.167, 23.15, 0.29282, 0.64017, -0.11832, 0.70023,
 12:47:49.416,f6:90:cc:01:6d:25, 2015-01-01 00:34:05.315, 0.925, 0.329, 0.093, -0.061, 0, -0.061, 74.295, -69.62, 102.794, -27.513, -17.227, -3.027, 26.78, 0.13806, 0.66489, 0.10425, 0.72656,
 12:47:49.416,f6:90:cc:01:6d:25, 2015-01-01 00:34:05.315, 0.923, 0.33, 0.093, 0.122, -0.061, -0.122, 74.295, -69.62, 102.777, -27.513, -17.227, -3.027, 26.78, 0.13806, 0.66489, 0.10425, 0.72656,
 12:47:49.438,ed:35:33:d3:6c:f8, 2015-01-01 00:34:06.080, 0.416, 0.468, 0.778, 0.305, 0, 0, 31.13, -24.587, 95.691, -8.127, -18.507, -30.233, 26.32, 0.58871, 0.32809, 0.05688, 0.73651,
 12:47:49.438,ed:35:33:d3:6c:f8, 2015-01-01 00:34:06.080, 0.414, 0.468, 0.776, 0.427, 0.061, 0, 31.135, -24.587, 95.691, -8.127, -18.507, -30.233, 26.32, 0.58871, 0.32809, 0.05688, 0.73651,
 12:47:49.458,ed:40:fe:65:30:6c, 2015-01-01 00:34:05.930, 0.688, 0.236, 0.684, 0.244, -0.061, 0, 19.177, -43.572, -143.674, -18.880, -13.000, -4.580, 23.72, 0.34439, -0.29944, -0.2612, -0.85052,
 12:47:49.458,ed:40:fe:65:30:6c, 2015-01-01 00:34:05.930, 0.688, 0.238, 0.682, 0.122, -0.061, 0.061, 19.177, -43.577, -143.679, -18.880, -13.000, -4.580, 23.72, 0.34439, -0.29944, -0.2612, -0.85052,
 12:47:49.459,ed:35:33:d3:6c:f8, 2015-01-01 00:34:06.080, 0.415, 0.467, 0.775, 0.305, 0.183, 0, 31.141, -24.587, 95.691, -8.453, -18.653, -29.740, 26.32, 0.58871, 0.32809, 0.05688, 0.73651,
 12:47:49.459,ed:35:33:d3:6c:f8, 2015-01-01 00:34:06.080, 0.415, 0.468, 0.773, 0.183, 0.183, 0, 31.146, -24.582, 95.707, -8.453, -18.653, -29.740, 26.32, 0.58871, 0.32809, 0.05688, 0.73651,
 12:47:49.460,f6:90:cc:01:6d:25, 2015-01-01 00:34:05.315, 0.923, 0.33, 0.094, 0.061, 0, -0.122, 74.301, -69.615, 102.761, -27.513, -17.227, -3.027, 26.78, 0.13806, 0.66489, 0.10425, 0.72656,
 12:47:49.460,f6:90:cc:01:6d:25, 2015-01-01 00:34:05.315, 0.922, 0.332, 0.093, 0, 0, -0.183, 74.301, -69.615, 102.75, -27.513, -17.227, -3.027, 26.78, 0.13806, 0.66489, 0.10425, 0.72656,
 12:47:49.480,e3:ca:2d:fd:e0:8c, 2015-01-01 00:34:06.805, 0.981, 0.213, 0.155, 0, -0.061, -0.122, 53.965, -74.993, 91.884, -24.213, -15.167, -10.167, 23.15, 0.29282, 0.64017, -0.11832, 0.70023,
 12:47:49.480,e3:ca:2d:fd:e0:8c, 2015-01-01 00:34:06.805, 0.981, 0.214, 0.156, -0.061, -0.183, -0.122, 53.976, -74.993, 91.868, -24.213, -15.167, -10.167, 23.15, 0.29282, 0.64017, -0.11832, 0.70023,
 12:47:49.481,ed:40:fe:65:30:6c, 2015-01-01 00:34:05.930, 0.688, 0.237, 0.682, 0.122, 0, 0, 19.177, -43.577, -143.679, -18.880, -13.000, -4.580, 23.72, 0.34439, -0.29944, -0.2612, -0.85052,
 12:47:49.481,ed:40:fe:65:30:6c, 2015-01-01 00:34:05.930, 0.688, 0.239, 0.684, 0.061, 0, 0, 19.182, -43.577, -143.685, -18.880, -13.000, -4.580, 23.72, 0.34439, -0.29944, -0.2612, -0.85052,
 12:47:49.502,e3:ca:2d:fd:e0:8c, 2015-01-01 00:34:06.805, 0.981, 0.215, 0.154, 0, -0.061, -0.183, 53.992, -74.993, 91.851, -24.080, -15.320, -10.073, 23.15, 0.29282, 0.64017, -0.11832, 0.70023,
 12:47:49.502,e3:ca:2d:fd:e0:8c, 2015-01-01 00:34:06.805, 0.982, 0.215, 0.154, 0, -0.122, -0.061, 54.003, -74.987, 91.835, -24.080, -15.320, -10.073, 23.15, 0.29282, 0.64017, -0.11832, 0.70023,
 12:47:49.505,f6:90:cc:01:6d:25, 2015-01-01 00:34:05.315, 0.923, 0.332, 0.093, 0, 0, -0.122, 74.301, -69.615, 102.733, -27.240, -16.913, -3.360, 26.78, 0.13806, 0.66489, 0.10425, 0.72656,
 12:47:49.505,f6:90:cc:01:6d:25, 2015-01-01 00:34:05.315, 0.925, 0.333, 0.092, -0.061, 0.122, -0.183, 74.301, -69.609, 102.722, -27.240, -16.913, -3.360, 26.78, 0.13806, 0.66489, 0.10425, 0.72656,
 12:47:49.526,ed:35:33:d3:6c:f8, 2015-01-01 00:34:06.080, 0.414, 0.468, 0.774, 0.061, 0.122, 0.122, 31.146, -24.582, 95.696, -8.453, -18.653, -29.740, 26.32, 0.58871, 0.32809, 0.05688, 0.73651,
 12:47:49.526,ed:35:33:d3:6c:f8, 2015-01-01 00:34:06.080, 0.416, 0.472, 0.776, -0.122, 0, 0.122, 31.146, -24.582, 95.685, -8.453, -18.653, -29.740, 26.32, 0.58871, 0.32809, 0.05688, 0.73651,
 12:47:49.547,e3:ca:2d:fd:e0:8c, 2015-01-01 00:34:06.805, 0.983, 0.215, 0.154, 0, 0, 0, 54.009, -74.987, 91.829, -24.080, -15.320, -10.073, 23.15, 0.29282, 0.64017, -0.11832, 0.70023,
 12:47:49.547,e3:ca:2d:fd:e0:8c, 2015-01-01 00:34:06.805, 0.985, 0.217, 0.154, 0, -0.122, 0, 54.014, -74.987, 91.824, -24.080, -15.320, -10.073, 23.15, 0.29282, 0.64017, -0.11832, 0.70023,
 12:47:49.549,ed:40:fe:65:30:6c, 2015-01-01 00:34:05.930, 0.69, 0.242, 0.685, -0.061, 0, -0.061, 19.182, -43.577, -143.69, -18.880, -13.000, -4.580, 23.72, 0.34439, -0.29944, -0.2612, -0.85052,
 12:47:49.549,ed:40:fe:65:30:6c, 2015-01-01 00:34:05.930, 0.69, 0.238, 0.684, -0.122, 0, -0.244, 19.182, -43.577, -143.696, -18.880, -13.000, -4.580, 23.72, 0.34439, -0.29944, -0.2612, -0.85052,
 12:47:49.549,ed:35:33:d3:6c:f8, 2015-01-01 00:34:06.080, 0.416, 0.469, 0.776, 0, 0, -0.244, 31.141, -24.582, 95.691, -8.453, -18.653, -29.740, 26.32, 0.58926, 0.32806, 0.05679, 0.73608,
 12:47:49.549,ed:35:33:d3:6c:f8, 2015-01-01 00:34:06.080, 0.415, 0.471, 0.776, -0.061, 0, -0.244, 31.146, -24.582, 95.663, -8.453, -18.653, -29.740, 26.32, 0.58926, 0.32806, 0.05679, 0.73608,
 12:47:49.550,f6:90:cc:01:6d:25, 2015-01-01 00:34:05.315, 0.926, 0.334, 0.093, 0.061, 0, -0.061, 74.295, -69.604, 102.717, -27.240, -16.913, -3.360, 26.78, 0.13943, 0.66495, 0.10318, 0.72638,
 12:47:49.550,f6:90:cc:01:6d:25, 2015-01-01 00:34:05.315, 0.927, 0.332, 0.093, -0.061, 0, -0.122, 74.295, -69.604, 102.7, -27.240, -16.913, -3.360, 26.78, 0.13943, 0.66495, 0.10318, 0.72638,
 12:47:49.570,e3:ca:2d:fd:e0:8c, 2015-01-01 00:34:06.805, 0.984, 0.216, 0.155, -0.122, -0.061, -0.061, 54.02, -74.987, 91.813, -24.080, -15.320, -10.073, 23.15, 0.29324, 0.6402, -0.1185, 0.70001,
 12:47:49.570,e3:ca:2d:fd:e0:8c, 2015-01-01 00:34:06.805, 0.983, 0.216, 0.155, -0.061, 0, 0, 54.025, -74.987, 91.807, -24.080, -15.320, -10.073, 23.15, 0.29324, 0.6402, -0.1185, 0.70001,
 12:47:49.571,ed:40:fe:65:30:6c, 2015-01-01 00:34:05.930, 0.689, 0.24, 0.686, 0.061, 0, 0, 19.182, -43.577, -143.701, -18.780, -12.893, -4.813, 23.72, 0.34439, -0.29944, -0.2612, -0.85052,
 12:47:49.571,ed:40:fe:65:30:6c, 2015-01-01 00:34:05.930, 0.69, 0.241, 0.686, 0.061, 0.061, 0, 19.182, -43.572, -143.701, -18.780, -12.893, -4.813, 23.72, 0.34439, -0.29944, -0.2612, -0.85052,
 12:47:49.573,f6:90:cc:01:6d:25, 2015-01-01 00:34:05.605, 0.926, 0.334, 0.094, -0.122, 0, 0, 74.295, -69.604, 102.689, -27.240, -16.913, -3.360, 26.78, 0.13943, 0.66495, 0.10318, 0.72638,
 12:47:49.573,f6:90:cc:01:6d:25, 2015-01-01 00:34:05.605, 0.924, 0.333, 0.093, -0.122, 0.183, 0, 74.284, -69.598, 102.689, -27.240, -16.913, -3.360, 26.78, 0.13943, 0.66495, 0.10318, 0.72638,
 12:47:49.595,ed:35:33:d3:6c:f8, 2015-01-01 00:34:06.080, 0.415, 0.472, 0.776, 0.122, 0, -0.183, 31.146, -24.576, 95.62, -8.453, -18.653, -29.740, 26.32, 0.58926, 0.32806, 0.05679, 0.73608,
 12:47:49.595,ed:35:33:d3:6c:f8, 2015-01-01 00:34:06.080, 0.416, 0.471, 0.777, -0.122, 0, -0.061, 31.146, -24.576, 95.576, -8.453, -18.653, -29.740, 26.32, 0.58926, 0.32806, 0.05679, 0.73608,
 12:47:49.616,e3:ca:2d:fd:e0:8c, 2015-01-01 00:34:06.805, 0.982, 0.216, 0.155, -0.061, 0, 0, 54.025, -74.987, 91.802, -24.080, -15.320, -10.073, 23.15, 0.29324, 0.6402, -0.1185, 0.70001,
 12:47:49.616,e3:ca:2d:fd:e0:8c, 2015-01-01 00:34:06.805, 0.982, 0.214, 0.154, -0.061, 0.122, 0.122, 54.02, -74.982, 91.807, -24.080, -15.320, -10.073, 23.15, 0.29324, 0.6402, -0.1185, 0.70001,
 12:47:49.617,ed:40:fe:65:30:6c, 2015-01-01 00:34:05.930, 0.689, 0.24, 0.684, 0.122, 0, -0.122, 19.188, -43.572, -143.707, -18.780, -12.893, -4.813, 23.72, 0.34439, -0.29944, -0.2612, -0.85052,
 12:47:49.617,ed:40:fe:65:30:6c, 2015-01-01 00:34:05.930, 0.689, 0.24, 0.684, 0.183, -0.061, -0.122, 19.193, -43.572, -143.712, -18.780, -12.893, -4.813, 23.72, 0.34439, -0.29944, -0.2612, -0.85052,
 12:47:49.617,ed:35:33:d3:6c:f8, 2015-01-01 00:34:06.435, 0.416, 0.47, 0.776, -0.183, 0.061, -0.122, 31.146, -24.576, 95.526, -8.453, -18.653, -29.740, 26.32, 0.58926, 0.32806, 0.05679, 0.73608,
 12:47:49.617,ed:35:33:d3:6c:f8, 2015-01-01 00:34:06.435, 0.414, 0.469, 0.776, 0.183, 0, -0.244, 31.146, -24.576, 95.471, -8.453, -18.653, -29.740, 26.32, 0.58926, 0.32806, 0.05679, 0.73608,
 12:47:49.618,f6:90:cc:01:6d:25, 2015-01-01 00:34:05.605, 0.924, 0.333, 0.093, -0.061, 0.305, 0, 74.273, -69.598, 102.689, -27.240, -16.913, -3.360, 26.78, 0.13943, 0.66495, 0.10318, 0.72638,
 12:47:49.618,f6:90:cc:01:6d:25, 2015-01-01 00:34:05.605, 0.924, 0.332, 0.092, 0, 0.122, 0, 74.262, -69.598, 102.689, -27.240, -16.913, -3.360, 26.78, 0.13943, 0.66495, 0.10318, 0.72638,
 12:47:49.660,e3:ca:2d:fd:e0:8c, 2015-01-01 00:34:07.140, 0.981, 0.215, 0.153, 0, 0.061, 0.122, 54.014, -74.982, 91.813, -24.080, -15.320, -10.073, 23.15, 0.29324, 0.6402, -0.1185, 0.70001,
 12:47:49.660,e3:ca:2d:fd:e0:8c, 2015-01-01 00:34:07.140, 0.983, 0.213, 0.154, 0, 0.061, 0, 54.009, -74.982, 91.818, -24.080, -15.320, -10.073, 23.15, 0.29324, 0.6402, -0.1185, 0.70001,
 12:47:49.661,ed:35:33:d3:6c:f8, 2015-01-01 00:34:06.435, 0.416, 0.468, 0.777, 0.183, 0, -0.427, 31.152, -24.571, 95.416, -8.453, -18.653, -29.740, 26.32, 0.58926, 0.32806, 0.05679, 0.73608,
 12:47:49.661,ed:35:33:d3:6c:f8, 2015-01-01 00:34:06.435, 0.417, 0.467, 0.775, 0.061, -0.061, -0.427, 31.157, -24.565, 95.356, -8.453, -18.653, -29.740, 26.32, 0.58926, 0.32806, 0.05679, 0.73608,
 12:47:49.664,f6:90:cc:01:6d:25, 2015-01-01 00:34:05.605, 0.925, 0.33, 0.093, 0, 0.061, 0, 74.262, -69.593, 102.684, -27.240, -16.913, -3.360, 26.78, 0.13943, 0.66495, 0.10318, 0.72638,
 12:47:49.664,f6:90:cc:01:6d:25, 2015-01-01 00:34:05.605, 0.925, 0.328, 0.094, 0, 0, 0, 74.262, -69.593, 102.673, -27.240, -16.913, -3.360, 26.78, 0.13943, 0.66495, 0.10318, 0.72638,
 12:47:49.682,e3:ca:2d:fd:e0:8c, 2015-01-01 00:34:07.140, 0.982, 0.213, 0.156, -0.061, 0, 0, 54.009, -74.982, 91.818, -24.080, -15.320, -10.073, 23.15, 0.29324, 0.6402, -0.1185, 0.70001,
 12:47:49.682,e3:ca:2d:fd:e0:8c, 2015-01-01 00:34:07.140, 0.981, 0.213, 0.156, -0.061, 0, 0, 54.009, -74.982, 91.818, -24.080, -15.320, -10.073, 23.15, 0.29324, 0.6402, -0.1185, 0.70001,
 12:47:49.683,ed:40:fe:65:30:6c, 2015-01-01 00:34:05.930, 0.689, 0.237, 0.685, 0.244, 0, -0.183, 19.204, -43.572, -143.723, -18.780, -12.893, -4.813, 23.72, 0.34387, -0.29956, -0.26108, -0.85074,
 12:47:49.683,ed:40:fe:65:30:6c, 2015-01-01 00:34:05.930, 0.69, 0.237, 0.684, -0.061, 0, -0.122, 19.21, -43.572, -143.729, -18.780, -12.893, -4.813, 23.72, 0.34387, -0.29956, -0.26108, -0.85074,
 12:47:49.684,ed:35:33:d3:6c:f8, 2015-01-01 00:34:06.435, 0.416, 0.466, 0.776, 0, 0.061, -0.305, 31.163, -24.565, 95.301, -8.453, -18.653, -29.740, 26.32, 0.58926, 0.32806, 0.05679, 0.73608,
 12:47:49.684,ed:35:33:d3:6c:f8, 2015-01-01 00:34:06.435, 0.416, 0.468, 0.777, 0.061, 0.366, -0.183, 31.163, -24.56, 95.246, -8.453, -18.653, -29.740, 26.32, 0.58926, 0.32806, 0.05679, 0.73608,
 12:47:49.706,ed:40:fe:65:30:6c, 2015-01-01 00:34:06.285, 0.689, 0.235, 0.683, -0.183, 0, -0.122, 19.21, -43.572, -143.734, -18.780, -12.893, -4.813, 23.72, 0.34387, -0.29956, -0.26108, -0.85074,
 12:47:49.706,ed:40:fe:65:30:6c, 2015-01-01 00:34:06.285, 0.689, 0.236, 0.684, 0, 0.061, 0, 19.204, -43.572, -143.734, -18.780, -12.893, -4.813, 23.72, 0.34387, -0.29956, -0.26108, -0.85074,
 12:47:49.709,f6:90:cc:01:6d:25, 2015-01-01 00:34:05.605, 0.923, 0.329, 0.094, 0, 0, 0, 74.262, -69.593, 102.667, -27.240, -16.913, -3.360, 26.78, 0.13943, 0.66495, 0.10318, 0.72638,
 12:47:49.709,f6:90:cc:01:6d:25, 2015-01-01 00:34:05.605, 0.924, 0.33, 0.093, -0.061, 0.122, 0, 74.257, -69.593, 102.662, -27.240, -16.913, -3.360, 26.78, 0.13943, 0.66495, 0.10318, 0.72638,
 12:47:49.728,ed:40:fe:65:30:6c, 2015-01-01 00:34:06.285, 0.69, 0.238, 0.683, 0.122, 0, 0, 19.21, -43.572, -143.74, -18.780, -12.893, -4.813, 23.72, 0.34387, -0.29956, -0.26108, -0.85074,
 12:47:49.728,ed:40:fe:65:30:6c, 2015-01-01 00:34:06.285, 0.69, 0.238, 0.685, 0.305, -0.061, 0, 19.21, -43.572, -143.74, -18.780, -12.893, -4.813, 23.72, 0.34387, -0.29956, -0.26108, -0.85074,
 12:47:49.728,e3:ca:2d:fd:e0:8c, 2015-01-01 00:34:07.140, 0.981, 0.214, 0.156, -0.122, 0, 0, 54.009, -74.982, 91.813, -24.080, -15.320, -10.073, 23.15, 0.29324, 0.6402, -0.1185, 0.70001,
 12:47:49.728,e3:ca:2d:fd:e0:8c, 2015-01-01 00:34:07.140, 0.983, 0.212, 0.156, -0.122, 0, 0, 54.009, -74.982, 91.813, -24.080, -15.320, -10.073, 23.15, 0.29324, 0.6402, -0.1185, 0.70001,
 12:47:49.729,ed:35:33:d3:6c:f8, 2015-01-01 00:34:06.435, 0.414, 0.471, 0.775, 0.305, 0.427, -0.061, 31.168, -24.554, 95.202, -8.453, -18.653, -29.740, 26.32, 0.58926, 0.32806, 0.05679, 0.73608,
 12:47:49.729,ed:35:33:d3:6c:f8, 2015-01-01 00:34:06.435, 0.415, 0.472, 0.777, 0.122, 0.244, 0.183, 31.168, -24.549, 95.158, -8.453, -18.653, -29.740, 26.32, 0.58926, 0.32806, 0.05679, 0.73608,
 12:47:49.754,f6:90:cc:01:6d:25, 2015-01-01 00:34:05.605, 0.925, 0.328, 0.095, 0, 0.122, 0, 74.246, -69.593, 102.656, -27.240, -16.913, -3.360, 26.78, 0.13943, 0.66495, 0.10318, 0.72638,
 12:47:49.754,f6:90:cc:01:6d:25, 2015-01-01 00:34:05.605, 0.926, 0.328, 0.094, 0, 0, 0, 74.246, -69.593, 102.651, -27.240, -16.913, -3.360, 26.78, 0.13943, 0.66495, 0.10318, 0.72638,
 12:47:49.772,e3:ca:2d:fd:e0:8c, 2015-01-01 00:34:07.140, 0.983, 0.213, 0.157, 0, 0, 0, 54.003, -74.982, 91.807, -24.080, -15.320, -10.073, 23.15, 0.29324, 0.6402, -0.1185, 0.70001,
 12:47:49.772,e3:ca:2d:fd:e0:8c, 2015-01-01 00:34:07.140, 0.983, 0.214, 0.157, 0, 0, 0, 54.003, -74.982, 91.807, -24.080, -15.320, -10.073, 23.15, 0.29324, 0.6402, -0.1185, 0.70001,
 12:47:49.774,ed:40:fe:65:30:6c, 2015-01-01 00:34:06.285, 0.69, 0.239, 0.686, 0.183, 0, 0.366, 19.21, -43.572, -143.74, -18.780, -12.893, -4.813, 23.72, 0.34387, -0.29956, -0.26108, -0.85074,
 12:47:49.774,ed:40:fe:65:30:6c, 2015-01-01 00:34:06.285, 0.69, 0.239, 0.686, 0, 0, 0.488, 19.204, -43.577, -143.729, -18.780, -12.893, -4.813, 23.72, 0.34387, -0.29956, -0.26108, -0.85074,
 12:47:49.775,ed:35:33:d3:6c:f8, 2015-01-01 00:34:06.435, 0.416, 0.471, 0.778, -0.183, 0.244, 0.366, 31.163, -24.549, 95.12, -8.453, -18.653, -29.740, 26.32, 0.58926, 0.32806, 0.05679, 0.73608,
 12:47:49.775,ed:35:33:d3:6c:f8, 2015-01-01 00:34:06.435, 0.415, 0.468, 0.777, -0.366, 0.366, 0.305, 31.152, -24.549, 95.087, -8.453, -18.653, -29.740, 26.32, 0.58926, 0.32806, 0.05679, 0.73608,
 12:47:49.776,f6:90:cc:01:6d:25, 2015-01-01 00:34:05.605, 0.926, 0.331, 0.095, 0.061, 0, 0, 74.246, -69.593, 102.64, -27.147, -17.053, -3.300, 26.78, 0.13943, 0.66495, 0.10318, 0.72638,
 12:47:49.776,f6:90:cc:01:6d:25, 2015-01-01 00:34:05.605, 0.924, 0.333, 0.095, 0, 0.122, 0, 74.24, -69.593, 102.634, -27.147, -17.053, -3.300, 26.78, 0.13943, 0.66495, 0.10318, 0.72638,
 12:47:49.819,ed:35:33:d3:6c:f8, 2015-01-01 00:34:06.435, 0.416, 0.467, 0.775, -0.488, 0.305, 0.244, 31.141, -24.543, 95.048, -8.453, -18.653, -29.740, 26.32, 0.58926, 0.32806, 0.05679, 0.73608,
 12:47:49.819,ed:35:33:d3:6c:f8, 2015-01-01 00:34:06.435, 0.415, 0.468, 0.776, -0.305, 0.305, 0, 31.13, -24.543, 95.01, -8.453, -18.653, -29.740, 26.32, 0.58926, 0.32806, 0.05679, 0.73608,
 12:47:49.819,ed:40:fe:65:30:6c, 2015-01-01 00:34:06.285, 0.69, 0.237, 0.685, 0, 0.061, 0.366, 19.199, -43.577, -143.718, -18.780, -12.893, -4.813, 23.72, 0.34387, -0.29956, -0.26108, -0.85074,
 12:47:49.819,ed:40:fe:65:30:6c, 2015-01-01 00:34:06.285, 0.69, 0.239, 0.683, 0.061, 0.061, 0.183, 19.193, -43.577, -143.718, -18.780, -12.893, -4.813, 23.72, 0.34387, -0.29956, -0.26108, -0.85074,
 12:47:49.820,f6:90:cc:01:6d:25, 2015-01-01 00:34:05.605, 0.925, 0.333, 0.093, -0.061, 0.183, 0, 74.224, -69.593, 102.634, -27.147, -17.053, -3.300, 26.78, 0.13943, 0.66495, 0.10318, 0.72638,
 12:47:49.820,f6:90:cc:01:6d:25, 2015-01-01 00:34:05.605, 0.925, 0.333, 0.093, 0, 0.122, 0, 74.218, -69.593, 102.634, -27.147, -17.053, -3.300, 26.78, 0.13943, 0.66495, 0.10318, 0.72638,
 12:47:49.841,ed:40:fe:65:30:6c, 2015-01-01 00:34:06.285, 0.689, 0.238, 0.684, -0.061, 0.061, 0, 19.193, -43.577, -143.718, -18.780, -12.893, -4.813, 23.72, 0.34387, -0.29956, -0.26108, -0.85074,
 12:47:49.841,ed:40:fe:65:30:6c, 2015-01-01 00:34:06.285, 0.687, 0.235, 0.684, 0, 0.183, 0, 19.188, -43.577, -143.718, -18.780, -12.893, -4.813, 23.72, 0.34387, -0.29956, -0.26108, -0.85074,
 12:47:49.841,e3:ca:2d:fd:e0:8c, 2015-01-01 00:34:07.140, 0.982, 0.215, 0.156, -0.061, -0.061, 0, 54.003, -74.976, 91.802, -24.080, -15.320, -10.073, 23.15, 0.29324, 0.6402, -0.1185, 0.70001,
 12:47:49.841,e3:ca:2d:fd:e0:8c, 2015-01-01 00:34:07.140, 0.982, 0.216, 0.155, -0.061, 0, 0, 54.003, -74.976, 91.796, -24.080, -15.320, -10.073, 23.15, 0.29324, 0.6402, -0.1185, 0.70001,
 12:47:49.862,e3:ca:2d:fd:e0:8c, 2015-01-01 00:34:07.140, 0.982, 0.215, 0.156, 0, 0.061, 0, 54.003, -74.976, 91.796, -24.213, -15.187, -10.440, 23.15, 0.29324, 0.6402, -0.1185, 0.70001,
 12:47:49.862,e3:ca:2d:fd:e0:8c, 2015-01-01 00:34:07.140, 0.981, 0.214, 0.156, -0.122, 0, 0, 53.998, -74.976, 91.796, -24.213, -15.187, -10.440, 23.15, 0.29324, 0.6402, -0.1185, 0.70001,
 12:47:49.866,f6:90:cc:01:6d:25, 2015-01-01 00:34:05.605, 0.924, 0.33, 0.094, 0, 0.122, 0, 74.213, -69.593, 102.629, -27.147, -17.053, -3.300, 26.78, 0.14044, 0.66489, 0.10233, 0.72638,
 12:47:49.866,f6:90:cc:01:6d:25, 2015-01-01 00:34:05.605, 0.922, 0.33, 0.093, -0.183, 0.183, 0, 74.202, -69.593, 102.634, -27.147, -17.053, -3.300, 26.78, 0.14044, 0.66489, 0.10233, 0.72638,
 12:47:49.887,ed:35:33:d3:6c:f8, 2015-01-01 00:34:06.435, 0.413, 0.467, 0.777, -0.183, 0.305, -0.061, 31.124, -24.538, 94.966, -8.407, -18.740, -29.700, 26.32, 0.58926, 0.32806, 0.05679, 0.73608,
 12:47:49.887,ed:35:33:d3:6c:f8, 2015-01-01 00:34:06.435, 0.412, 0.466, 0.777, -0.061, 0.122, -0.061, 31.124, -24.532, 94.922, -8.407, -18.740, -29.700, 26.32, 0.58926, 0.32806, 0.05679, 0.73608,
 12:47:49.887,ed:40:fe:65:30:6c, 2015-01-01 00:34:06.285, 0.688, 0.239, 0.683, 0, 0.122, 0.061, 19.188, -43.572, -143.718, -18.780, -12.893, -4.813, 23.72, 0.34387, -0.29956, -0.26108, -0.85074,
 12:47:49.887,ed:40:fe:65:30:6c, 2015-01-01 00:34:06.285, 0.69, 0.242, 0.682, 0, 0.183, 0, 19.188, -43.572, -143.718, -18.780, -12.893, -4.813, 23.72, 0.34387, -0.29956, -0.26108, -0.85074,
 12:47:49.911,f6:90:cc:01:6d:25, 2015-01-01 00:34:05.920, 0.922, 0.336, 0.093, -0.305, 0, 0, 74.191, -69.593, 102.623, -27.147, -17.053, -3.300, 26.78, 0.14044, 0.66489, 0.10233, 0.72638,
 12:47:49.911,f6:90:cc:01:6d:25, 2015-01-01 00:34:05.920, 0.925, 0.335, 0.092, -0.122, 0.244, 0, 74.18, -69.587, 102.629, -27.147, -17.053, -3.300, 26.78, 0.14044, 0.66489, 0.10233, 0.72638,
 12:47:49.911,ed:35:33:d3:6c:f8, 2015-01-01 00:34:06.435, 0.414, 0.471, 0.774, 0, 0.122, 0.061, 31.119, -24.532, 94.883, -8.407, -18.740, -29.700, 26.32, 0.59473, 0.32803, 0.05463, 0.73184,
 12:47:49.911,ed:35:33:d3:6c:f8, 2015-01-01 00:34:06.435, 0.415, 0.468, 0.775, -0.061, -0.183, -0.183, 31.119, -24.532, 94.834, -8.407, -18.740, -29.700, 26.32, 0.59473, 0.32803, 0.05463, 0.73184,
 12:47:49.930,e3:ca:2d:fd:e0:8c, 2015-01-01 00:34:07.140, 0.98, 0.216, 0.154, -0.122, 0.122, 0, 53.992, -74.976, 91.802, -24.213, -15.187, -10.440, 23.15, 0.29324, 0.6402, -0.1185, 0.70001,
 12:47:49.930,e3:ca:2d:fd:e0:8c, 2015-01-01 00:34:07.140, 0.982, 0.218, 0.154, -0.122, -0.061, 0, 53.992, -74.971, 91.796, -24.213, -15.187, -10.440, 23.15, 0.29324, 0.6402, -0.1185, 0.70001,
 12:47:49.933,f6:90:cc:01:6d:25, 2015-01-01 00:34:05.920, 0.927, 0.33, 0.092, 0.122, 0.061, 0, 74.18, -69.587, 102.623, -27.147, -17.053, -3.300, 26.78, 0.14044, 0.66489, 0.10233, 0.72638,
 12:47:49.933,f6:90:cc:01:6d:25, 2015-01-01 00:34:05.920, 0.925, 0.328, 0.094, 0.244, -0.061, 0, 74.185, -69.587, 102.612, -27.147, -17.053, -3.300, 26.78, 0.14044, 0.66489, 0.10233, 0.72638,
 12:47:49.952,e3:ca:2d:fd:e0:8c, 2015-01-01 00:34:07.140, 0.986, 0.216, 0.154, -0.122, -0.061, 0, 53.998, -74.971, 91.791, -24.213, -15.187, -10.440, 23.15, 0.29361, 0.64005, -0.11871, 0.69995,
 12:47:49.952,e3:ca:2d:fd:e0:8c, 2015-01-01 00:34:07.140, 0.983, 0.212, 0.153, 0, 0.183, 0, 53.992, -74.971, 91.796, -24.213, -15.187, -10.440, 23.15, 0.29361, 0.64005, -0.11871, 0.69995,
 12:47:49.955,ed:35:33:d3:6c:f8, 2015-01-01 00:34:06.435, 0.413, 0.471, 0.78, 0.305, 0.061, -0.427, 31.124, -24.532, 94.79, -8.407, -18.740, -29.700, 26.32, 0.59473, 0.32803, 0.05463, 0.73184,
 12:47:49.955,ed:35:33:d3:6c:f8, 2015-01-01 00:34:06.435, 0.416, 0.469, 0.781, 0.122, 0, -0.061, 31.13, -24.527, 94.741, -8.407, -18.740, -29.700, 26.32, 0.59473, 0.32803, 0.05463, 0.73184,
 12:47:49.975,ed:40:fe:65:30:6c, 2015-01-01 00:34:06.285, 0.69, 0.239, 0.685, -0.061, 0.061, -0.244, 19.188, -43.566, -143.723, -18.767, -12.907, -4.587, 23.72, 0.34387, -0.29956, -0.26108, -0.85074,
 12:47:49.975,ed:40:fe:65:30:6c, 2015-01-01 00:34:06.285, 0.691, 0.236, 0.687, 0.244, -0.061, -0.061, 19.193, -43.566, -143.729, -18.767, -12.907, -4.587, 23.72, 0.34387, -0.29956, -0.26108, -0.85074,
 12:47:49.979,f6:90:cc:01:6d:25, 2015-01-01 00:34:05.920, 0.926, 0.331, 0.094, 0.122, 0, 0, 74.191, -69.587, 102.601, -27.147, -17.053, -3.300, 26.78, 0.14044, 0.66489, 0.10233, 0.72638,
 12:47:49.979,f6:90:cc:01:6d:25, 2015-01-01 00:34:05.920, 0.925, 0.333, 0.094, 0.244, -0.122, 0, 74.202, -69.587, 102.59, -27.147, -17.053, -3.300, 26.78, 0.14044, 0.66489, 0.10233, 0.72638,
 12:47:49.998,ed:40:fe:65:30:6c, 2015-01-01 00:34:06.285, 0.689, 0.235, 0.687, 0.244, -0.061, 0, 19.199, -43.572, -143.734, -18.767, -12.907, -4.587, 23.72, 0.34375, -0.29956, -0.26105, -0.8508,
 12:47:49.998,ed:40:fe:65:30:6c, 2015-01-01 00:34:06.285, 0.69, 0.238, 0.686, 0.305, -0.183, 0.061, 19.204, -43.572, -143.734, -18.767, -12.907, -4.587, 23.72, 0.34375, -0.29956, -0.26105, -0.8508,
 12:47:49.998,e3:ca:2d:fd:e0:8c, 2015-01-01 00:34:07.140, 0.983, 0.214, 0.155, 0.061, 0.061, 0, 53.987, -74.971, 91.796, -24.213, -15.187, -10.440, 23.15, 0.29361, 0.64005, -0.11871, 0.69995,
 12:47:49.998,e3:ca:2d:fd:e0:8c, 2015-01-01 00:34:07.140, 0.983, 0.214, 0.155, 0, -0.122, 0, 53.998, -74.971, 91.791, -24.213, -15.187, -10.440, 23.15, 0.29361, 0.64005, -0.11871, 0.69995,
 12:47:50.000,ed:35:33:d3:6c:f8, 2015-01-01 00:34:06.795, 0.415, 0.468, 0.781, 0, -0.244, 0.122, 31.135, -24.527, 94.697, -8.407, -18.740, -29.700, 26.32, 0.59473, 0.32803, 0.05463, 0.73184,
 12:47:50.000,ed:35:33:d3:6c:f8, 2015-01-01 00:34:06.795, 0.414, 0.466, 0.779, 0.244, -0.244, 0, 31.135, -24.532, 94.658, -8.407, -18.740, -29.700, 26.32, 0.59473, 0.32803, 0.05463, 0.73184,
 12:47:50.019,e3:ca:2d:fd:e0:8c, 2015-01-01 00:34:07.520, 0.981, 0.214, 0.155, 0.061, -0.061, 0, 54.003, -74.971, 91.785, -24.213, -15.187, -10.440, 23.15, 0.29361, 0.64005, -0.11871, 0.69995,
 12:47:50.019,e3:ca:2d:fd:e0:8c, 2015-01-01 00:34:07.520, 0.98, 0.212, 0.157, 0, -0.122, 0, 54.014, -74.971, 91.774, -24.213, -15.187, -10.440, 23.15, 0.29361, 0.64005, -0.11871, 0.69995,
 12:47:50.021,ed:35:33:d3:6c:f8, 2015-01-01 00:34:06.795, 0.415, 0.468, 0.774, 0.366, -0.305, -0.183, 31.141, -24.538, 94.609, -8.407, -18.740, -29.700, 26.32, 0.59473, 0.32803, 0.05463, 0.73184,
 12:47:50.021,ed:35:33:d3:6c:f8, 2015-01-01 00:34:06.795, 0.414, 0.466, 0.773, 0.488, -0.183, -0.061, 31.152, -24.543, 94.565, -8.407, -18.740, -29.700, 26.32, 0.59473, 0.32803, 0.05463, 0.73184,
 12:47:50.023,f6:90:cc:01:6d:25, 2015-01-01 00:34:05.920, 0.925, 0.33, 0.095, 0.061, -0.183, 0, 74.213, -69.587, 102.568, -27.147, -17.053, -3.300, 26.78, 0.14044, 0.66489, 0.10233, 0.72638,
 12:47:50.023,f6:90:cc:01:6d:25, 2015-01-01 00:34:05.920, 0.922, 0.329, 0.097, 0.061, -0.122, 0, 74.218, -69.587, 102.557, -27.147, -17.053, -3.300, 26.78, 0.14044, 0.66489, 0.10233, 0.72638,
 12:47:50.046,ed:40:fe:65:30:6c, 2015-01-01 00:34:06.285, 0.689, 0.237, 0.684, 0.305, -0.183, -0.122, 19.215, -43.577, -143.74, -18.767, -12.907, -4.587, 23.72, 0.34375, -0.29956, -0.26105, -0.8508,
 12:47:50.046,ed:40:fe:65:30:6c, 2015-01-01 00:34:06.285, 0.688, 0.237, 0.682, 0.244, -0.061, -0.122, 19.221, -43.577, -143.745, -18.767, -12.907, -4.587, 23.72, 0.34375, -0.29956, -0.26105, -0.8508,
 12:47:50.066,e3:ca:2d:fd:e0:8c, 2015-01-01 00:34:07.520, 0.979, 0.212, 0.158, -0.122, -0.061, 0, 54.014, -74.971, 91.769, -24.213, -15.187, -10.440, 23.15, 0.29361, 0.64005, -0.11871, 0.69995,
 12:47:50.066,e3:ca:2d:fd:e0:8c, 2015-01-01 00:34:07.520, 0.979, 0.213, 0.157, -0.122, -0.061, 0, 54.014, -74.971, 91.763, -24.213, -15.187, -10.440, 23.15, 0.29361, 0.64005, -0.11871, 0.69995,
 12:47:50.066,ed:40:fe:65:30:6c, 2015-01-01 00:34:06.645, 0.687, 0.235, 0.682, 0.061, 0.122, -0.183, 19.226, -43.572, -143.756, -18.767, -12.907, -4.587, 23.72, 0.34375, -0.29956, -0.26105, -0.8508,
 12:47:50.066,ed:40:fe:65:30:6c, 2015-01-01 00:34:06.645, 0.688, 0.235, 0.682, -0.122, 0.122, -0.183, 19.226, -43.572, -143.762, -18.767, -12.907, -4.587, 23.72, 0.34375, -0.29956, -0.26105, -0.8508,
 12:47:50.067,ed:35:33:d3:6c:f8, 2015-01-01 00:34:06.795, 0.414, 0.464, 0.773, 0.061, 0.122, -0.061, 31.157, -24.543, 94.526, -8.407, -18.740, -29.700, 26.32, 0.59473, 0.32803, 0.05463, 0.73184,
 12:47:50.067,ed:35:33:d3:6c:f8, 2015-01-01 00:34:06.795, 0.413, 0.467, 0.774, 0.183, 0.122, -0.244, 31.157, -24.538, 94.482, -8.407, -18.740, -29.700, 26.32, 0.59473, 0.32803, 0.05463, 0.73184,
 12:47:50.070,f6:90:cc:01:6d:25, 2015-01-01 00:34:05.920, 0.922, 0.328, 0.096, 0, 0.061, 0, 74.213, -69.587, 102.552, -27.147, -17.053, -3.300, 26.78, 0.14044, 0.66489, 0.10233, 0.72638,
 12:47:50.070,f6:90:cc:01:6d:25, 2015-01-01 00:34:05.920, 0.922, 0.329, 0.095, -0.061, 0.122, 0, 74.202, -69.587, 102.546, -27.147, -17.053, -3.300, 26.78, 0.14044, 0.66489, 0.10233, 0.72638,
 12:47:50.088,ed:40:fe:65:30:6c, 2015-01-01 00:34:06.645, 0.688, 0.239, 0.685, 0.122, 0, -0.061, 19.226, -43.572, -143.762, -18.767, -12.907, -4.587, 23.72, 0.34375, -0.29956, -0.26105, -0.8508,
 12:47:50.088,ed:40:fe:65:30:6c, 2015-01-01 00:34:06.645, 0.692, 0.237, 0.685, 0.122, 0, 0, 19.226, -43.572, -143.767, -18.767, -12.907, -4.587, 23.72, 0.34375, -0.29956, -0.26105, -0.8508,
 12:47:50.088,e3:ca:2d:fd:e0:8c, 2015-01-01 00:34:07.520, 0.983, 0.213, 0.156, 0, 0, 0, 54.014, -74.971, 91.758, -24.213, -15.187, -10.440, 23.15, 0.29361, 0.64005, -0.11871, 0.69995,
 12:47:50.088,e3:ca:2d:fd:e0:8c, 2015-01-01 00:34:07.520, 0.985, 0.214, 0.156, 0.122, -0.061, 0, 54.014, -74.971, 91.758, -24.213, -15.187, -10.440, 23.15, 0.29361, 0.64005, -0.11871, 0.69995,
 12:47:50.090,ed:35:33:d3:6c:f8, 2015-01-01 00:34:06.795, 0.413, 0.471, 0.778, 0.305, 0.305, -0.183, 31.163, -24.532, 94.444, -8.407, -18.740, -29.700, 26.32, 0.59473, 0.32803, 0.05463, 0.73184,
 12:47:50.090,ed:35:33:d3:6c:f8, 2015-01-01 00:34:06.795, 0.417, 0.471, 0.781, -0.427, 0, 0.183, 31.163, -24.532, 94.406, -8.407, -18.740, -29.700, 26.32, 0.59473, 0.32803, 0.05463, 0.73184,
 12:47:50.114,f6:90:cc:01:6d:25, 2015-01-01 00:34:05.920, 0.924, 0.331, 0.095, 0, 0, 0, 74.202, -69.587, 102.541, -27.253, -17.153, -2.980, 26.78, 0.14044, 0.66489, 0.10233, 0.72638,
 12:47:50.114,f6:90:cc:01:6d:25, 2015-01-01 00:34:05.920, 0.928, 0.33, 0.096, 0.061, 0.061, 0, 74.196, -69.587, 102.535, -27.253, -17.153, -2.980, 26.78, 0.14044, 0.66489, 0.10233, 0.72638,
 12:47:50.132,e3:ca:2d:fd:e0:8c, 2015-01-01 00:34:07.520, 0.987, 0.213, 0.155, 0, -0.122, 0, 54.02, -74.971, 91.747, -24.213, -15.187, -10.440, 23.15, 0.29361, 0.64005, -0.11871, 0.69995,
 12:47:50.132,e3:ca:2d:fd:e0:8c, 2015-01-01 00:34:07.520, 0.985, 0.214, 0.153, 0, -0.061, 0, 54.025, -74.971, 91.741, -24.213, -15.187, -10.440, 23.15, 0.29361, 0.64005, -0.11871, 0.69995,
 12:47:50.134,ed:40:fe:65:30:6c, 2015-01-01 00:34:06.645, 0.692, 0.238, 0.688, 0, -0.244, 0.183, 19.226, -43.572, -143.767, -18.767, -12.907, -4.587, 23.72, 0.34375, -0.29956, -0.26105, -0.8508,
 12:47:50.134,ed:40:fe:65:30:6c, 2015-01-01 00:34:06.645, 0.693, 0.237, 0.685, 0.305, -0.183, 0.244, 19.226, -43.577, -143.762, -18.767, -12.907, -4.587, 23.72, 0.34375, -0.29956, -0.26105, -0.8508,
 12:47:50.137,f6:90:cc:01:6d:25, 2015-01-01 00:34:05.920, 0.929, 0.329, 0.094, -0.122, 0.061, 0, 74.185, -69.587, 102.53, -27.253, -17.153, -2.980, 26.78, 0.14136, 0.66495, 0.10153, 0.72626,
 12:47:50.137,f6:90:cc:01:6d:25, 2015-01-01 00:34:05.920, 0.926, 0.332, 0.093, 0, -0.244, 0, 74.196, -69.587, 102.513, -27.253, -17.153, -2.980, 26.78, 0.14136, 0.66495, 0.10153, 0.72626,
 12:47:50.157,ed:35:33:d3:6c:f8, 2015-01-01 00:34:06.795, 0.417, 0.47, 0.781, -0.061, 0, 0.122, 31.152, -24.532, 94.373, -8.407, -18.740, -29.700, 26.32, 0.59473, 0.32803, 0.05463, 0.73184,
 12:47:50.157,ed:35:33:d3:6c:f8, 2015-01-01 00:34:06.795, 0.416, 0.467, 0.777, -0.244, -0.061, 0.427, 31.146, -24.532, 94.34, -8.407, -18.740, -29.700, 26.32, 0.59473, 0.32803, 0.05463, 0.73184,
 12:47:50.178,ed:40:fe:65:30:6c, 2015-01-01 00:34:06.645, 0.69, 0.239, 0.683, 0, 0, 0.061, 19.226, -43.583, -143.762, -18.767, -12.907, -4.587, 23.72, 0.34375, -0.29956, -0.26105, -0.8508,
 12:47:50.178,ed:40:fe:65:30:6c, 2015-01-01 00:34:06.645, 0.689, 0.24, 0.684, 0.244, -0.061, 0.122, 19.226, -43.583, -143.762, -18.767, -12.907, -4.587, 23.72, 0.34375, -0.29956, -0.26105, -0.8508,
 12:47:50.179,ed:35:33:d3:6c:f8, 2015-01-01 00:34:06.795, 0.415, 0.469, 0.776, 0, 0, 0.122, 31.141, -24.538, 94.307, -8.387, -18.760, -29.767, 26.32, 0.59473, 0.32803, 0.05463, 0.73184,
 12:47:50.179,ed:35:33:d3:6c:f8, 2015-01-01 00:34:06.795, 0.415, 0.471, 0.775, 0.671, 0.244, 0.061, 31.146, -24.538, 94.274, -8.387, -18.760, -29.767, 26.32, 0.59473, 0.32803, 0.05463, 0.73184,
 12:47:50.180,f6:90:cc:01:6d:25, 2015-01-01 00:34:05.920, 0.923, 0.332, 0.093, 0.061, -0.061, 0, 74.202, -69.593, 102.502, -27.253, -17.153, -2.980, 26.78, 0.14136, 0.66495, 0.10153, 0.72626,
 12:47:50.180,f6:90:cc:01:6d:25, 2015-01-01 00:34:05.920, 0.922, 0.332, 0.093, 0.061, 0, 0, 74.202, -69.593, 102.491, -27.253, -17.153, -2.980, 26.78, 0.14136, 0.66495, 0.10153, 0.72626,
 12:47:50.200,e3:ca:2d:fd:e0:8c, 2015-01-01 00:34:07.520, 0.982, 0.215, 0.155, 0, -0.122, 0, 54.031, -74.971, 91.73, -24.213, -15.187, -10.440, 23.15, 0.29361, 0.64005, -0.11871, 0.69995,
 12:47:50.200,e3:ca:2d:fd:e0:8c, 2015-01-01 00:34:07.520, 0.98, 0.214, 0.156, -0.061, -0.061, 0, 54.031, -74.971, 91.725, -24.213, -15.187, -10.440, 23.15, 0.29361, 0.64005, -0.11871, 0.69995,
 12:47:50.222,e3:ca:2d:fd:e0:8c, 2015-01-01 00:34:07.520, 0.981, 0.215, 0.155, 0, 0, 0, 54.036, -74.971, 91.719, -24.060, -14.853, -10.633, 23.15, 0.29361, 0.64005, -0.11871, 0.69995,
 12:47:50.222,e3:ca:2d:fd:e0:8c, 2015-01-01 00:34:07.520, 0.982, 0.216, 0.155, 0.061, -0.061, 0, 54.036, -74.971, 91.719, -24.060, -14.853, -10.633, 23.15, 0.29361, 0.64005, -0.11871, 0.69995,
 12:47:50.223,ed:40:fe:65:30:6c, 2015-01-01 00:34:06.645, 0.689, 0.24, 0.682, 0.549, 0.061, 0.061, 19.232, -43.583, -143.762, -18.767, -12.907, -4.587, 23.72, 0.34375, -0.29956, -0.26105, -0.8508,
 12:47:50.223,ed:40:fe:65:30:6c, 2015-01-01 00:34:06.645, 0.69, 0.238, 0.681, 0.244, 0, -0.061, 19.237, -43.583, -143.767, -18.767, -12.907, -4.587, 23.72, 0.34375, -0.29956, -0.26105, -0.8508,
 12:47:50.225,ed:35:33:d3:6c:f8, 2015-01-01 00:34:06.795, 0.415, 0.467, 0.776, 0.366, 0, 0.061, 31.157, -24.538, 94.241, -8.387, -18.760, -29.767, 26.32, 0.59473, 0.32803, 0.05463, 0.73184,
 12:47:50.225,ed:35:33:d3:6c:f8, 2015-01-01 00:34:06.795, 0.415, 0.469, 0.775, 0.061, -0.122, -0.061, 31.157, -24.538, 94.202, -8.387, -18.760, -29.767, 26.32, 0.59473, 0.32803, 0.05463, 0.73184,
 12:47:50.226,f6:90:cc:01:6d:25, 2015-01-01 00:34:06.210, 0.922, 0.333, 0.093, 0.061, 0.061, 0, 74.196, -69.587, 102.491, -27.253, -17.153, -2.980, 26.78, 0.14136, 0.66495, 0.10153, 0.72626,
 12:47:50.226,f6:90:cc:01:6d:25, 2015-01-01 00:34:06.210, 0.925, 0.331, 0.092, 0.061, 0.305, 0, 74.185, -69.587, 102.497, -27.253, -17.153, -2.980, 26.78, 0.14136, 0.66495, 0.10153, 0.72626,
 12:47:50.247,ed:35:33:d3:6c:f8, 2015-01-01 00:34:06.795, 0.414, 0.468, 0.774, -0.061, 0, -0.244, 31.163, -24.538, 94.164, -8.387, -18.760, -29.767, 26.32, 0.59882, 0.32861, 0.05292, 0.72836,
 12:47:50.247,ed:35:33:d3:6c:f8, 2015-01-01 00:34:06.795, 0.416, 0.469, 0.775, -0.366, -0.183, -0.244, 31.157, -24.538, 94.125, -8.387, -18.760, -29.767, 26.32, 0.59882, 0.32861, 0.05292, 0.72836,
 12:47:50.267,e3:ca:2d:fd:e0:8c, 2015-01-01 00:34:07.520, 0.983, 0.215, 0.153, 0.061, 0.183, 0, 54.031, -74.965, 91.725, -24.060, -14.853, -10.633, 23.15, 0.29361, 0.64005, -0.11871, 0.69995,
 12:47:50.267,e3:ca:2d:fd:e0:8c, 2015-01-01 00:34:07.520, 0.983, 0.215, 0.153, 0, 0.183, 0, 54.025, -74.965, 91.73, -24.060, -14.853, -10.633, 23.15, 0.29361, 0.64005, -0.11871, 0.69995,
 12:47:50.268,ed:40:fe:65:30:6c, 2015-01-01 00:34:06.645, 0.689, 0.239, 0.683, 0, -0.061, 0, 19.243, -43.583, -143.767, -18.767, -12.907, -4.587, 23.72, 0.34375, -0.29956, -0.26105, -0.8508,
 12:47:50.268,ed:40:fe:65:30:6c, 2015-01-01 00:34:06.645, 0.69, 0.239, 0.682, -0.061, 0, -0.061, 19.243, -43.583, -143.773, -18.767, -12.907, -4.587, 23.72, 0.34375, -0.29956, -0.26105, -0.8508,
 12:47:50.271,f6:90:cc:01:6d:25, 2015-01-01 00:34:06.210, 0.925, 0.332, 0.092, 0, -0.061, 0, 74.185, -69.587, 102.486, -27.253, -17.153, -2.980, 26.78, 0.14136, 0.66495, 0.10153, 0.72626,
 12:47:50.271,f6:90:cc:01:6d:25, 2015-01-01 00:34:06.210, 0.926, 0.333, 0.095, 0, -0.183, 0, 74.196, -69.587, 102.469, -27.253, -17.153, -2.980, 26.78, 0.14136, 0.66495, 0.10153, 0.72626,
 12:47:50.292,e3:ca:2d:fd:e0:8c, 2015-01-01 00:34:07.520, 0.984, 0.215, 0.156, -0.122, -0.122, 0, 54.031, -74.965, 91.725, -24.060, -14.853, -10.633, 23.15, 0.29385, 0.64005, -0.1188, 0.69983,
 12:47:50.292,e3:ca:2d:fd:e0:8c, 2015-01-01 00:34:07.520, 0.981, 0.215, 0.155, -0.244, 0, 0, 54.031, -74.965, 91.725, -24.060, -14.853, -10.633, 23.15, 0.29385, 0.64005, -0.1188, 0.69983,
 12:47:50.292,ed:40:fe:65:30:6c, 2015-01-01 00:34:06.645, 0.689, 0.24, 0.684, -0.305, 0, -0.183, 19.237, -43.583, -143.778, -18.287, -13.173, -4.173, 23.72, 0.34375, -0.29956, -0.26105, -0.8508,
 12:47:50.292,ed:40:fe:65:30:6c, 2015-01-01 00:34:06.645, 0.688, 0.239, 0.684, -0.183, 0, -0.122, 19.237, -43.583, -143.784, -18.287, -13.173, -4.173, 23.72, 0.34375, -0.29956, -0.26105, -0.8508,
 12:47:50.294,ed:35:33:d3:6c:f8, 2015-01-01 00:34:06.795, 0.413, 0.471, 0.775, -0.244, 0, -0.122, 31.152, -24.538, 94.087, -8.387, -18.760, -29.767, 26.32, 0.59882, 0.32861, 0.05292, 0.72836,
 12:47:50.294,ed:35:33:d3:6c:f8, 2015-01-01 00:34:06.795, 0.415, 0.469, 0.777, -0.244, -0.061, -0.061, 31.152, -24.538, 94.048, -8.387, -18.760, -29.767, 26.32, 0.59882, 0.32861, 0.05292, 0.72836,
 12:47:50.315,f6:90:cc:01:6d:25, 2015-01-01 00:34:06.210, 0.923, 0.332, 0.094, -0.183, 0.061, 0, 74.191, -69.587, 102.469, -27.253, -17.153, -2.980, 26.78, 0.14136, 0.66495, 0.10153, 0.72626,
 12:47:50.315,f6:90:cc:01:6d:25, 2015-01-01 00:34:06.210, 0.925, 0.333, 0.093, -0.061, 0.122, 0, 74.185, -69.587, 102.464, -27.253, -17.153, -2.980, 26.78, 0.14136, 0.66495, 0.10153, 0.72626,
 12:47:50.334,e3:ca:2d:fd:e0:8c, 2015-01-01 00:34:07.520, 0.982, 0.216, 0.155, -0.061, 0, 0, 54.031, -74.965, 91.719, -24.060, -14.853, -10.633, 23.15, 0.29385, 0.64005, -0.1188, 0.69983,
 12:47:50.334,e3:ca:2d:fd:e0:8c, 2015-01-01 00:34:07.520, 0.983, 0.216, 0.155, 0, 0, 0, 54.031, -74.96, 91.719, -24.060, -14.853, -10.633, 23.15, 0.29385, 0.64005, -0.1188, 0.69983,
 12:47:50.335,ed:40:fe:65:30:6c, 2015-01-01 00:34:06.645, 0.69, 0.239, 0.686, -0.122, 0.122, 0, 19.232, -43.583, -143.784, -18.287, -13.173, -4.173, 23.72, 0.34375, -0.29956, -0.26105, -0.8508,
 12:47:50.335,ed:40:fe:65:30:6c, 2015-01-01 00:34:06.645, 0.689, 0.239, 0.684, 0, 0, 0, 19.232, -43.583, -143.784, -18.287, -13.173, -4.173, 23.72, 0.34375, -0.29956, -0.26105, -0.8508,
 12:47:50.336,ed:35:33:d3:6c:f8, 2015-01-01 00:34:07.130, 0.414, 0.47, 0.777, 0, 0, -0.305, 31.146, -24.538, 94.01, -8.387, -18.760, -29.767, 26.32, 0.59882, 0.32861, 0.05292, 0.72836,
 12:47:50.336,ed:35:33:d3:6c:f8, 2015-01-01 00:34:07.130, 0.415, 0.471, 0.777, 0.183, -0.061, -0.305, 31.152, -24.538, 93.972, -8.387, -18.760, -29.767, 26.32, 0.59882, 0.32861, 0.05292, 0.72836,
 12:47:50.339,f6:90:cc:01:6d:25, 2015-01-01 00:34:06.210, 0.925, 0.333, 0.094, 0, 0, 0, 74.18, -69.587, 102.464, -27.253, -17.153, -2.980, 26.78, 0.14136, 0.66495, 0.10153, 0.72626,
 12:47:50.339,f6:90:cc:01:6d:25, 2015-01-01 00:34:06.210, 0.926, 0.332, 0.095, 0, 0, 0, 74.18, -69.587, 102.458, -27.253, -17.153, -2.980, 26.78, 0.14136, 0.66495, 0.10153, 0.72626,
 12:47:50.382,ed:35:33:d3:6c:f8, 2015-01-01 00:34:07.130, 0.414, 0.471, 0.775, 0, -0.122, -0.244, 31.157, -24.532, 93.933, -8.387, -18.760, -29.767, 26.32, 0.59882, 0.32861, 0.05292, 0.72836,
 12:47:50.382,ed:35:33:d3:6c:f8, 2015-01-01 00:34:07.130, 0.412, 0.47, 0.776, -0.122, 0.061, -0.122, 31.157, -24.532, 93.9, -8.387, -18.760, -29.767, 26.32, 0.59882, 0.32861, 0.05292, 0.72836,
 12:47:50.383,f6:90:cc:01:6d:25, 2015-01-01 00:34:06.210, 0.924, 0.33, 0.097, 0.061, 0, 0, 74.18, -69.582, 102.448, -27.253, -17.153, -2.980, 26.78, 0.14136, 0.66495, 0.10153, 0.72626,
 12:47:50.383,f6:90:cc:01:6d:25, 2015-01-01 00:34:06.210, 0.922, 0.332, 0.095, 0.061, 0, 0, 74.185, -69.582, 102.442, -27.253, -17.153, -2.980, 26.78, 0.14136, 0.66495, 0.10153, 0.72626,
 12:47:50.402,e3:ca:2d:fd:e0:8c, 2015-01-01 00:34:07.855, 0.983, 0.214, 0.155, 0, 0.061, 0, 54.031, -74.96, 91.719, -24.060, -14.853, -10.633, 23.15, 0.29385, 0.64005, -0.1188, 0.69983,
 12:47:50.402,e3:ca:2d:fd:e0:8c, 2015-01-01 00:34:07.855, 0.983, 0.214, 0.157, -0.061, 0, 0, 54.031, -74.96, 91.719, -24.060, -14.853, -10.633, 23.15, 0.29385, 0.64005, -0.1188, 0.69983,
 12:47:50.403,ed:40:fe:65:30:6c, 2015-01-01 00:34:06.645, 0.69, 0.24, 0.685, 0, 0, 0, 19.232, -43.583, -143.789, -18.287, -13.173, -4.173, 23.72, 0.34344, -0.29965, -0.26117, -0.85083,
 12:47:50.403,ed:40:fe:65:30:6c, 2015-01-01 00:34:06.645, 0.689, 0.239, 0.683, 0, 0, 0, 19.237, -43.583, -143.789, -18.287, -13.173, -4.173, 23.72, 0.34344, -0.29965, -0.26117, -0.85083,
 12:47:50.425,e3:ca:2d:fd:e0:8c, 2015-01-01 00:34:07.855, 0.98, 0.215, 0.157, 0, 0, 0, 54.031, -74.96, 91.719, -24.060, -14.853, -10.633, 23.15, 0.29385, 0.64005, -0.1188, 0.69983,
 12:47:50.425,e3:ca:2d:fd:e0:8c, 2015-01-01 00:34:07.855, 0.981, 0.216, 0.156, 0.122, 0.122, 0, 54.031, -74.954, 91.725, -24.060, -14.853, -10.633, 23.15, 0.29385, 0.64005, -0.1188, 0.69983,
 12:47:50.428,f6:90:cc:01:6d:25, 2015-01-01 00:34:06.210, 0.923, 0.333, 0.094, 0.122, -0.122, 0, 74.185, -69.582, 102.437, -27.033, -16.727, -2.967, 26.78, 0.14136, 0.66495, 0.10153, 0.72626,
 12:47:50.428,f6:90:cc:01:6d:25, 2015-01-01 00:34:06.210, 0.926, 0.333, 0.094, 0.122, -0.183, 0, 74.196, -69.582, 102.42, -27.033, -16.727, -2.967, 26.78, 0.14136, 0.66495, 0.10153, 0.72626,
 12:47:50.428,ed:35:33:d3:6c:f8, 2015-01-01 00:34:07.130, 0.414, 0.469, 0.778, -0.122, 0.122, 0, 31.157, -24.532, 93.867, -8.387, -18.760, -29.767, 26.32, 0.59882, 0.32861, 0.05292, 0.72836,
 12:47:50.428,ed:35:33:d3:6c:f8, 2015-01-01 00:34:07.130, 0.415, 0.469, 0.779, -0.183, 0.061, 0, 31.152, -24.532, 93.834, -8.387, -18.760, -29.767, 26.32, 0.59882, 0.32861, 0.05292, 0.72836,
 12:47:50.447,e3:ca:2d:fd:e0:8c, 2015-01-01 00:34:07.855, 0.982, 0.215, 0.155, 0.183, 0.061, 0, 54.031, -74.954, 91.725, -24.060, -14.853, -10.633, 23.15, 0.29385, 0.64005, -0.1188, 0.69983,
 12:47:50.447,e3:ca:2d:fd:e0:8c, 2015-01-01 00:34:07.855, 0.984, 0.214, 0.155, 0.061, 0.061, 0, 54.025, -74.954, 91.73, -24.060, -14.853, -10.633, 23.15, 0.29385, 0.64005, -0.1188, 0.69983,
 12:47:50.449,ed:35:33:d3:6c:f8, 2015-01-01 00:34:07.130, 0.416, 0.468, 0.778, 0, -0.427, 0, 31.152, -24.532, 93.801, -8.387, -18.760, -29.767, 26.32, 0.59882, 0.32861, 0.05292, 0.72836,
 12:47:50.449,ed:35:33:d3:6c:f8, 2015-01-01 00:34:07.130, 0.416, 0.466, 0.777, 0.122, -0.427, -0.427, 31.157, -24.538, 93.763, -8.387, -18.760, -29.767, 26.32, 0.59882, 0.32861, 0.05292, 0.72836,
 12:47:50.449,ed:40:fe:65:30:6c, 2015-01-01 00:34:07.000, 0.688, 0.239, 0.685, -0.061, 0.061, 0, 19.232, -43.577, -143.789, -18.287, -13.173, -4.173, 23.72, 0.34344, -0.29965, -0.26117, -0.85083,
 12:47:50.449,ed:40:fe:65:30:6c, 2015-01-01 00:34:07.000, 0.688, 0.238, 0.686, 0, 0.061, 0, 19.232, -43.577, -143.789, -18.287, -13.173, -4.173, 23.72, 0.34344, -0.29965, -0.26117, -0.85083,
 12:47:50.471,ed:40:fe:65:30:6c, 2015-01-01 00:34:07.000, 0.69, 0.239, 0.685, 0.122, 0, 0, 19.237, -43.577, -143.795, -18.287, -13.173, -4.173, 23.72, 0.34344, -0.29965, -0.26117, -0.85083,
 12:47:50.471,ed:40:fe:65:30:6c, 2015-01-01 00:34:07.000, 0.69, 0.239, 0.684, 0.122, -0.061, 0, 19.237, -43.577, -143.795, -18.287, -13.173, -4.173, 23.72, 0.34344, -0.29965, -0.26117, -0.85083,
 12:47:50.473,f6:90:cc:01:6d:25, 2015-01-01 00:34:06.210, 0.926, 0.331, 0.095, 0.122, -0.305, 0, 74.207, -69.582, 102.404, -27.033, -16.727, -2.967, 26.78, 0.14206, 0.66504, 0.10095, 0.7261,
 12:47:50.473,f6:90:cc:01:6d:25, 2015-01-01 00:34:06.210, 0.925, 0.331, 0.095, 0, -0.244, 0, 74.224, -69.582, 102.382, -27.033, -16.727, -2.967, 26.78, 0.14206, 0.66504, 0.10095, 0.7261,
 12:47:50.493,ed:40:fe:65:30:6c, 2015-01-01 00:34:07.000, 0.691, 0.236, 0.685, 0.122, 0, 0, 19.243, -43.577, -143.795, -18.287, -13.173, -4.173, 23.72, 0.34344, -0.29965, -0.26117, -0.85083,
 12:47:50.493,ed:40:fe:65:30:6c, 2015-01-01 00:34:07.000, 0.689, 0.238, 0.685, 0.488, 0, 0, 19.248, -43.577, -143.8, -18.287, -13.173, -4.173, 23.72, 0.34344, -0.29965, -0.26117, -0.85083,
 12:47:50.493,e3:ca:2d:fd:e0:8c, 2015-01-01 00:34:07.855, 0.984, 0.213, 0.156, 0, 0, 0, 54.025, -74.954, 91.725, -24.060, -14.853, -10.633, 23.15, 0.29385, 0.64005, -0.1188, 0.69983,
 12:47:50.493,e3:ca:2d:fd:e0:8c, 2015-01-01 00:34:07.855, 0.985, 0.214, 0.156, 0.061, 0.061, 0, 54.025, -74.949, 91.73, -24.060, -14.853, -10.633, 23.15, 0.29385, 0.64005, -0.1188, 0.69983,
 12:47:50.517,ed:35:33:d3:6c:f8, 2015-01-01 00:34:07.130, 0.416, 0.466, 0.779, 0.61, -0.244, -0.793, 31.168, -24.538, 93.719, -8.387, -18.760, -29.767, 26.32, 0.59882, 0.32861, 0.05292, 0.72836,
 12:47:50.517,ed:35:33:d3:6c:f8, 2015-01-01 00:34:07.130, 0.417, 0.467, 0.778, 1.038, -0.061, -1.038, 31.19, -24.532, 93.669, -8.387, -18.760, -29.767, 26.32, 0.59882, 0.32861, 0.05292, 0.72836,
 12:47:50.518,f6:90:cc:01:6d:25, 2015-01-01 00:34:06.520, 0.925, 0.332, 0.093, -0.061, -0.244, 0, 74.235, -69.582, 102.36, -27.033, -16.727, -2.967, 26.78, 0.14206, 0.66504, 0.10095, 0.7261,
 12:47:50.518,f6:90:cc:01:6d:25, 2015-01-01 00:34:06.520, 0.926, 0.33, 0.092, -0.244, -0.732, 0, 74.246, -69.587, 102.332, -27.033, -16.727, -2.967, 26.78, 0.14206, 0.66504, 0.10095, 0.7261,
 12:47:50.538,e3:ca:2d:fd:e0:8c, 2015-01-01 00:34:07.855, 0.985, 0.211, 0.147, 0, 0.916, 0, 53.97, -74.938, 91.785, -24.060, -14.853, -10.633, 23.15, 0.29385, 0.64005, -0.1188, 0.69983,
 12:47:50.538,e3:ca:2d:fd:e0:8c, 2015-01-01 00:34:07.855, 0.989, 0.213, 0.154, 0.488, 2.686, 0, 53.828, -74.91, 91.928, -24.060, -14.853, -10.633, 23.15, 0.29385, 0.64005, -0.1188, 0.69983,
 12:47:50.538,ed:40:fe:65:30:6c, 2015-01-01 00:34:07.000, 0.691, 0.238, 0.685, 0.793, 0, -0.366, 19.27, -43.577, -143.811, -18.287, -13.173, -4.173, 23.72, 0.34344, -0.29965, -0.26117, -0.85083,
 12:47:50.538,ed:40:fe:65:30:6c, 2015-01-01 00:34:07.000, 0.691, 0.242, 0.682, 1.221, -0.183, -0.671, 19.308, -43.577, -143.828, -18.287, -13.173, -4.173, 23.72, 0.34344, -0.29965, -0.26117, -0.85083,
 12:47:50.539,ed:35:33:d3:6c:f8, 2015-01-01 00:34:07.130, 0.417, 0.466, 0.775, 1.77, -0.488, -1.404, 31.229, -24.521, 93.631, -8.553, -18.687, -30.307, 26.32, 0.59882, 0.32861, 0.05292, 0.72836,
 12:47:50.539,ed:35:33:d3:6c:f8, 2015-01-01 00:34:07.130, 0.415, 0.466, 0.779, 3.174, -0.549, -2.319, 31.295, -24.516, 93.593, -8.553, -18.687, -30.307, 26.32, 0.59882, 0.32861, 0.05292, 0.72836,
 12:47:50.540,f6:90:cc:01:6d:25, 2015-01-01 00:34:06.520, 0.928, 0.333, 0.086, -0.122, -2.686, 0.427, 74.306, -69.593, 102.266, -27.033, -16.727, -2.967, 26.78, 0.14206, 0.66504, 0.10095, 0.7261,
 12:47:50.540,f6:90:cc:01:6d:25, 2015-01-01 00:34:06.520, 0.935, 0.333, 0.081, 1.221, -4.822, 0.427, 74.471, -69.62, 102.107, -27.033, -16.727, -2.967, 26.78, 0.14206, 0.66504, 0.10095, 0.7261,
 12:47:50.584,ed:35:33:d3:6c:f8, 2015-01-01 00:34:07.130, 0.416, 0.463, 0.78, 4.028, 0, -2.625, 31.382, -24.494, 93.56, -8.553, -18.687, -30.307, 26.32, 0.59882, 0.32861, 0.05292, 0.72836,
 12:47:50.584,ed:35:33:d3:6c:f8, 2015-01-01 00:34:07.130, 0.426, 0.458, 0.766, 6.287, -0.122, -3.418, 31.503, -24.467, 93.51, -8.553, -18.687, -30.307, 26.32, 0.59882, 0.32861, 0.05292, 0.72836,
 12:47:50.585,f6:90:cc:01:6d:25, 2015-01-01 00:34:06.520, 0.935, 0.333, 0.094, 0.854, -3.418, 0, 74.718, -69.648, 101.865, -27.033, -16.727, -2.967, 26.78, 0.14206, 0.66504, 0.10095, 0.7261,
 12:47:50.585,f6:90:cc:01:6d:25, 2015-01-01 00:34:06.520, 0.93, 0.336, 0.078, -0.854, -1.343, 0.488, 74.877, -69.664, 101.733, -27.033, -16.727, -2.967, 26.78, 0.14206, 0.66504, 0.10095, 0.7261,
 12:47:50.605,e3:ca:2d:fd:e0:8c, 2015-01-01 00:34:07.855, 0.989, 0.216, 0.161, 0.854, 3.052, 0, 53.663, -74.872, 92.093, -24.220, -14.753, -10.633, 23.15, 0.29385, 0.64005, -0.1188, 0.69983,
 12:47:50.605,e3:ca:2d:fd:e0:8c, 2015-01-01 00:34:07.855, 0.989, 0.221, 0.159, 0.488, 3.052, 0, 53.498, -74.839, 92.252, -24.220, -14.753, -10.633, 23.15, 0.29385, 0.64005, -0.1188, 0.69983,
 12:47:50.607,ed:40:fe:65:30:6c, 2015-01-01 00:34:07.000, 0.693, 0.237, 0.689, 2.686, 0.061, -1.16, 19.38, -43.566, -143.855, -18.287, -13.173, -4.173, 23.72, 0.34344, -0.29965, -0.26117, -0.85083,
 12:47:50.607,ed:40:fe:65:30:6c, 2015-01-01 00:34:07.000, 0.69, 0.234, 0.691, 5.615, -0.427, -1.587, 19.523, -43.561, -143.904, -18.287, -13.173, -4.173, 23.72, 0.34344, -0.29965, -0.26117, -0.85083,
 12:47:50.627,e3:ca:2d:fd:e0:8c, 2015-01-01 00:34:07.855, 0.989, 0.219, 0.16, -0.183, 2.075, -0.305, 53.394, -74.811, 92.335, -24.220, -14.753, -10.633, 23.15, 0.29456, 0.63861, -0.11838, 0.7009,
 12:47:50.627,e3:ca:2d:fd:e0:8c, 2015-01-01 00:34:07.855, 0.992, 0.224, 0.15, -1.099, 0.549, -0.549, 53.372, -74.795, 92.313, -24.220, -14.753, -10.633, 23.15, 0.29456, 0.63861, -0.11838, 0.7009,
 12:47:50.628,ed:40:fe:65:30:6c, 2015-01-01 00:34:07.000, 0.701, 0.233, 0.679, 16.174, 2.93, -1.16, 19.836, -43.5, -143.915, -18.873, -12.880, -4.780, 23.72, 0.34344, -0.29965, -0.26117, -0.85083,
 12:47:50.628,ed:40:fe:65:30:6c, 2015-01-01 00:34:07.000, 0.703, 0.239, 0.663, 20.386, 5.31, -1.038, 20.22, -43.396, -143.899, -18.873, -12.880, -4.780, 23.72, 0.34344, -0.29965, -0.26117, -0.85083,
 12:47:50.631,f6:90:cc:01:6d:25, 2015-01-01 00:34:06.520, 0.93, 0.335, 0.084, -2.991, -1.16, 1.221, 74.905, -69.686, 101.684, -27.033, -16.727, -2.967, 26.78, 0.14206, 0.66504, 0.10095, 0.7261,
 12:47:50.631,f6:90:cc:01:6d:25, 2015-01-01 00:34:06.520, 0.924, 0.329, 0.075, -4.822, -0.244, 0.427, 74.877, -69.708, 101.678, -27.033, -16.727, -2.967, 26.78, 0.14206, 0.66504, 0.10095, 0.7261,
 12:47:50.651,ed:35:33:d3:6c:f8, 2015-01-01 00:34:07.130, 0.425, 0.46, 0.757, 10.742, 0.488, -4.944, 31.696, -24.423, 93.45, -8.553, -18.687, -30.307, 26.32, 0.60245, 0.33032, 0.05353, 0.72455,
 12:47:50.651,ed:35:33:d3:6c:f8, 2015-01-01 00:34:07.130, 0.424, 0.481, 0.768, 10.62, 0.305, -3.54, 31.932, -24.373, 93.406, -8.553, -18.687, -30.307, 26.32, 0.60245, 0.33032, 0.05353, 0.72455,
 12:47:50.673,e3:ca:2d:fd:e0:8c, 2015-01-01 00:34:07.855, 0.991, 0.219, 0.149, -2.625, 0.305, -1.099, 53.366, -74.773, 92.252, -24.220, -14.753, -10.633, 23.15, 0.29456, 0.63861, -0.11838, 0.7009,
 12:47:50.673,e3:ca:2d:fd:e0:8c, 2015-01-01 00:34:07.855, 0.983, 0.207, 0.153, -3.906, 1.526, -1.465, 53.278, -74.734, 92.247, -24.220, -14.753, -10.633, 23.15, 0.29456, 0.63861, -0.11838, 0.7009,
 12:47:50.675,ed:35:33:d3:6c:f8, 2015-01-01 00:34:07.485, 0.411, 0.471, 0.781, 6.592, -1.404, -2.136, 32.119, -24.362, 93.378, -8.553, -18.687, -30.307, 26.32, 0.60245, 0.33032, 0.05353, 0.72455,
 12:47:50.675,ed:35:33:d3:6c:f8, 2015-01-01 00:34:07.485, 0.413, 0.461, 0.776, 7.69, -1.465, -1.831, 32.272, -24.373, 93.356, -8.553, -18.687, -30.307, 26.32, 0.60245, 0.33032, 0.05353, 0.72455,
 12:47:50.675,f6:90:cc:01:6d:25, 2015-01-01 00:34:06.520, 0.925, 0.319, 0.083, -3.418, 0.061, -0.916, 74.8, -69.714, 101.651, -27.033, -16.727, -2.967, 26.78, 0.14206, 0.66504, 0.10095, 0.7261,
 12:47:50.675,f6:90:cc:01:6d:25, 2015-01-01 00:34:06.520, 0.923, 0.314, 0.088, -1.465, 0.732, -1.709, 74.756, -69.692, 101.624, -27.033, -16.727, -2.967, 26.78, 0.14206, 0.66504, 0.10095, 0.7261,
 12:47:50.675,ed:40:fe:65:30:6c, 2015-01-01 00:34:07.000, 0.689, 0.256, 0.664, 13.428, 2.625, -2.38, 20.5, -43.341, -143.943, -18.873, -12.880, -4.780, 23.72, 0.34344, -0.29965, -0.26117, -0.85083,
 12:47:50.675,ed:40:fe:65:30:6c, 2015-01-01 00:34:07.000, 0.684, 0.23, 0.685, 9.338, 0.671, -3.296, 20.726, -43.308, -144.036, -18.873, -12.880, -4.780, 23.72, 0.34344, -0.29965, -0.26117, -0.85083,
 12:47:50.694,e3:ca:2d:fd:e0:8c, 2015-01-01 00:34:08.190, 0.973, 0.202, 0.155, -2.991, 1.953, -1.587, 53.185, -74.691, 92.258, -24.220, -14.753, -10.633, 23.15, 0.29456, 0.63861, -0.11838, 0.7009,
 12:47:50.694,e3:ca:2d:fd:e0:8c, 2015-01-01 00:34:08.190, 0.971, 0.2, 0.162, -1.648, 1.465, -1.648, 53.146, -74.652, 92.263, -24.220, -14.753, -10.633, 23.15, 0.29456, 0.63861, -0.11838, 0.7009,
 12:47:50.696,ed:40:fe:65:30:6c, 2015-01-01 00:34:07.000, 0.684, 0.247, 0.681, 8.423, 1.465, -3.479, 20.929, -43.264, -144.13, -18.873, -12.880, -4.780, 23.72, 0.34528, -0.29327, -0.2717, -0.84903,
 12:47:50.696,ed:40:fe:65:30:6c, 2015-01-01 00:34:07.000, 0.682, 0.255, 0.682, 7.08, 1.953, -3.113, 21.094, -43.215, -144.212, -18.873, -12.880, -4.780, 23.72, 0.34528, -0.29327, -0.2717, -0.84903,
 12:47:50.697,ed:35:33:d3:6c:f8, 2015-01-01 00:34:07.485, 0.41, 0.483, 0.771, 9.644, -1.953, -2.93, 32.454, -24.379, 93.329, -8.553, -18.687, -30.307, 26.32, 0.60245, 0.33032, 0.05353, 0.72455,
 12:47:50.697,ed:35:33:d3:6c:f8, 2015-01-01 00:34:07.485, 0.4, 0.5, 0.769, 7.751, -2.014, -2.93, 32.646, -24.39, 93.318, -8.553, -18.687, -30.307, 26.32, 0.60245, 0.33032, 0.05353, 0.72455,
 12:47:50.698,f6:90:cc:01:6d:25, 2015-01-01 00:34:06.520, 0.922, 0.312, 0.094, -0.549, 0.488, -1.77, 74.734, -69.659, 101.602, -27.360, -16.933, -3.273, 26.78, 0.14206, 0.66504, 0.10095, 0.7261,
 12:47:50.698,f6:90:cc:01:6d:25, 2015-01-01 00:34:06.520, 0.917, 0.317, 0.098, 0, 0.427, -1.404, 74.729, -69.631, 101.607, -27.360, -16.933, -3.273, 26.78, 0.14206, 0.66504, 0.10095, 0.7261,
 12:47:50.741,e3:ca:2d:fd:e0:8c, 2015-01-01 00:34:08.190, 0.972, 0.201, 0.167, -1.099, 0.732, -1.648, 53.152, -74.619, 92.236, -24.220, -14.753, -10.633, 23.15, 0.29456, 0.63861, -0.11838, 0.7009,
 12:47:50.741,e3:ca:2d:fd:e0:8c, 2015-01-01 00:34:08.190, 0.967, 0.208, 0.17, -0.61, 0.671, -1.404, 53.157, -74.597, 92.23, -24.220, -14.753, -10.633, 23.15, 0.29456, 0.63861, -0.11838, 0.7009,
 12:47:50.741,ed:40:fe:65:30:6c, 2015-01-01 00:34:07.000, 0.673, 0.266, 0.681, 4.7, 1.16, -2.075, 21.204, -43.182, -144.267, -18.873, -12.880, -4.780, 23.72, 0.34528, -0.29327, -0.2717, -0.84903,
 12:47:50.741,ed:40:fe:65:30:6c, 2015-01-01 00:34:07.000, 0.673, 0.264, 0.684, 3.845, 0.488, -0.671, 21.275, -43.171, -144.3, -18.873, -12.880, -4.780, 23.72, 0.34528, -0.29327, -0.2717, -0.84903,
 12:47:50.743,f6:90:cc:01:6d:25, 2015-01-01 00:34:06.520, 0.914, 0.318, 0.101, 1.099, 0.244, -1.587, 74.745, -69.604, 101.629, -27.360, -16.933, -3.273, 26.78, 0.14206, 0.66504, 0.10095, 0.7261,
 12:47:50.743,f6:90:cc:01:6d:25, 2015-01-01 00:34:06.520, 0.911, 0.325, 0.101, 2.93, 0.549, -1.587, 74.778, -69.576, 101.673, -27.360, -16.933, -3.273, 26.78, 0.14206, 0.66504, 0.10095, 0.7261,
 12:47:50.743,ed:35:33:d3:6c:f8, 2015-01-01 00:34:07.485, 0.4, 0.505, 0.763, 5.92, -2.563, -1.831, 32.8, -24.401, 93.301, -8.553, -18.687, -30.307, 26.32, 0.60245, 0.33032, 0.05353, 0.72455,
 12:47:50.743,ed:35:33:d3:6c:f8, 2015-01-01 00:34:07.485, 0.398, 0.526, 0.748, 3.54, -3.174, 0, 32.91, -24.439, 93.296, -8.553, -18.687, -30.307, 26.32, 0.60245, 0.33032, 0.05353, 0.72455,
 12:47:50.784,e3:ca:2d:fd:e0:8c, 2015-01-01 00:34:08.190, 0.963, 0.211, 0.174, 0.183, 1.282, -1.099, 53.124, -74.564, 92.291, -24.220, -14.753, -10.633, 23.15, 0.29456, 0.63861, -0.11838, 0.7009,
 12:47:50.784,e3:ca:2d:fd:e0:8c, 2015-01-01 00:34:08.190, 0.964, 0.216, 0.178, 1.343, 1.831, -0.488, 53.053, -74.537, 92.428, -24.220, -14.753, -10.633, 23.15, 0.29456, 0.63861, -0.11838, 0.7009,
 12:47:50.786,ed:40:fe:65:30:6c, 2015-01-01 00:34:07.335, 0.669, 0.288, 0.675, 1.282, 1.038, 1.709, 21.253, -43.165, -144.261, -18.873, -12.880, -4.780, 23.72, 0.34528, -0.29327, -0.2717, -0.84903,
 12:47:50.786,ed:40:fe:65:30:6c, 2015-01-01 00:34:07.335, 0.669, 0.275, 0.675, 0.732, -0.183, 2.625, 21.22, -43.187, -144.207, -18.873, -12.880, -4.780, 23.72, 0.34528, -0.29327, -0.2717, -0.84903,
 12:47:50.787,ed:35:33:d3:6c:f8, 2015-01-01 00:34:07.485, 0.402, 0.518, 0.757, 1.77, -4.089, 1.526, 32.97, -24.51, 93.307, -8.553, -18.687, -30.307, 26.32, 0.60245, 0.33032, 0.05353, 0.72455,
 12:47:50.787,ed:35:33:d3:6c:f8, 2015-01-01 00:34:07.485, 0.401, 0.498, 0.766, 0.732, -3.967, 2.625, 32.997, -24.593, 93.301, -8.553, -18.687, -30.307, 26.32, 0.60245, 0.33032, 0.05353, 0.72455,
 12:47:50.788,f6:90:cc:01:6d:25, 2015-01-01 00:34:06.520, 0.912, 0.327, 0.103, 4.7, 1.038, -1.404, 74.822, -69.549, 101.783, -27.360, -16.933, -3.273, 26.78, 0.14362, 0.66641, 0.10001, 0.72467,
 12:47:50.788,f6:90:cc:01:6d:25, 2015-01-01 00:34:06.520, 0.912, 0.321, 0.105, 5.981, 1.282, -1.77, 74.877, -69.516, 101.926, -27.360, -16.933, -3.273, 26.78, 0.14362, 0.66641, 0.10001, 0.72467,
 12:47:50.809,ed:40:fe:65:30:6c, 2015-01-01 00:34:07.335, 0.666, 0.256, 0.685, 0, -1.892, 3.296, 21.171, -43.242, -144.152, -18.873, -12.880, -4.780, 23.72, 0.34528, -0.29327, -0.2717, -0.84903,
 12:47:50.809,ed:40:fe:65:30:6c, 2015-01-01 00:34:07.335, 0.665, 0.259, 0.69, -0.61, -2.563, 4.333, 21.099, -43.319, -144.08, -18.873, -12.880, -4.780, 23.72, 0.34528, -0.29327, -0.2717, -0.84903,
 12:47:50.830,e3:ca:2d:fd:e0:8c, 2015-01-01 00:34:08.190, 0.963, 0.216, 0.18, 2.686, 2.319, -0.183, 52.965, -74.509, 92.609, -24.220, -14.753, -10.633, 23.15, 0.29456, 0.63861, -0.11838, 0.7009,
 12:47:50.830,e3:ca:2d:fd:e0:8c, 2015-01-01 00:34:08.190, 0.964, 0.218, 0.179, 3.479, 2.808, -0.122, 52.861, -74.471, 92.812, -24.220, -14.753, -10.633, 23.15, 0.29456, 0.63861, -0.11838, 0.7009,
 12:47:50.833,f6:90:cc:01:6d:25, 2015-01-01 00:34:06.835, 0.913, 0.324, 0.111, 7.141, 1.038, -2.258, 74.96, -69.478, 102.057, -27.360, -16.933, -3.273, 26.78, 0.14362, 0.66641, 0.10001, 0.72467,
 12:47:50.833,f6:90:cc:01:6d:25, 2015-01-01 00:34:06.835, 0.914, 0.334, 0.117, 8.057, 0.549, -2.625, 75.075, -69.428, 102.156, -27.360, -16.933, -3.273, 26.78, 0.14362, 0.66641, 0.10001, 0.72467,
 12:47:50.852,e3:ca:2d:fd:e0:8c, 2015-01-01 00:34:08.190, 0.962, 0.221, 0.181, 4.028, 2.686, 0.122, 52.762, -74.438, 93.021, -24.220, -14.753, -10.633, 23.15, 0.29456, 0.63861, -0.11838, 0.7009,
 12:47:50.852,e3:ca:2d:fd:e0:8c, 2015-01-01 00:34:08.190, 0.965, 0.227, 0.179, 4.333, 1.404, 0.427, 52.729, -74.421, 93.159, -24.220, -14.753, -10.633, 23.15, 0.29456, 0.63861, -0.11838, 0.7009,
 12:47:50.853,ed:40:fe:65:30:6c, 2015-01-01 00:34:07.335, 0.667, 0.261, 0.694, -0.305, -3.723, 4.639, 21.033, -43.412, -144.02, -18.873, -12.880, -4.780, 23.72, 0.34528, -0.29327, -0.2717, -0.84903,
 12:47:50.853,ed:40:fe:65:30:6c, 2015-01-01 00:34:07.335, 0.672, 0.265, 0.697, -0.793, -4.822, 3.601, 20.984, -43.517, -143.987, -18.873, -12.880, -4.780, 23.72, 0.34528, -0.29327, -0.2717, -0.84903,
 12:47:50.854,ed:35:33:d3:6c:f8, 2015-01-01 00:34:07.485, 0.394, 0.498, 0.767, -0.671, -3.845, 3.174, 32.992, -24.686, 93.345, -8.553, -18.687, -30.307, 26.32, 0.60245, 0.33032, 0.05353, 0.72455,
 12:47:50.854,ed:35:33:d3:6c:f8, 2015-01-01 00:34:07.485, 0.396, 0.494, 0.768, -0.977, -3.052, 4.333, 32.964, -24.774, 93.395, -8.553, -18.687, -30.307, 26.32, 0.60245, 0.33032, 0.05353, 0.72455,
 12:47:50.877,ed:35:33:d3:6c:f8, 2015-01-01 00:34:07.485, 0.4, 0.487, 0.774, -1.099, -1.16, 4.7, 32.921, -24.846, 93.433, -8.073, -19.373, -29.980, 26.32, 0.60245, 0.33032, 0.05353, 0.72455,
 12:47:50.877,ed:35:33:d3:6c:f8, 2015-01-01 00:34:07.485, 0.408, 0.488, 0.776, -0.122, 0.244, 3.967, 32.871, -24.89, 93.483, -8.073, -19.373, -29.980, 26.32, 0.60245, 0.33032, 0.05353, 0.72455,
 12:47:50.878,f6:90:cc:01:6d:25, 2015-01-01 00:34:06.835, 0.913, 0.349, 0.114, 7.69, 0.366, -2.014, 75.212, -69.384, 102.255, -27.360, -16.933, -3.273, 26.78, 0.14362, 0.66641, 0.10001, 0.72467,
 12:47:50.878,f6:90:cc:01:6d:25, 2015-01-01 00:34:06.835, 0.918, 0.359, 0.105, 6.287, -0.183, -1.526, 75.333, -69.351, 102.371, -27.360, -16.933, -3.273, 26.78, 0.14362, 0.66641, 0.10001, 0.72467,
 12:47:50.897,e3:ca:2d:fd:e0:8c, 2015-01-01 00:34:08.190, 0.974, 0.234, 0.174, 4.028, -0.366, 0.732, 52.784, -74.432, 93.197, -24.220, -14.753, -10.633, 23.15, 0.29456, 0.63861, -0.11838, 0.7009,
 12:47:50.897,e3:ca:2d:fd:e0:8c, 2015-01-01 00:34:08.190, 0.985, 0.242, 0.166, 2.014, -2.747, -0.183, 52.982, -74.454, 93.032, -24.220, -14.753, -10.633, 23.15, 0.29456, 0.63861, -0.11838, 0.7009,
 12:47:50.898,ed:40:fe:65:30:6c, 2015-01-01 00:34:07.335, 0.68, 0.264, 0.696, -1.16, -5.005, 2.869, 20.94, -43.616, -143.965, -18.873, -12.880, -4.780, 23.72, 0.34528, -0.29327, -0.2717, -0.84903,
 12:47:50.898,ed:40:fe:65:30:6c, 2015-01-01 00:34:07.335, 0.685, 0.269, 0.694, -0.305, -4.761, 1.526, 20.94, -43.704, -143.97, -18.873, -12.880, -4.780, 23.72, 0.34528, -0.29327, -0.2717, -0.84903,
 12:47:50.902,f6:90:cc:01:6d:25, 2015-01-01 00:34:06.835, 0.923, 0.366, 0.095, 4.578, -0.549, -0.916, 75.443, -69.324, 102.475, -27.360, -16.933, -3.273, 26.78, 0.14362, 0.66641, 0.10001, 0.72467,
 12:47:50.902,f6:90:cc:01:6d:25, 2015-01-01 00:34:06.835, 0.926, 0.366, 0.086, 2.991, -0.854, -0.427, 75.536, -69.307, 102.53, -27.360, -16.933, -3.273, 26.78, 0.14362, 0.66641, 0.10001, 0.72467,
 12:47:50.924,ed:35:33:d3:6c:f8, 2015-01-01 00:34:07.485, 0.412, 0.49, 0.774, 0.977, 1.221, 3.174, 32.849, -24.901, 93.532, -8.073, -19.373, -29.980, 26.32, 0.60245, 0.33032, 0.05353, 0.72455,
 12:47:50.925,ed:35:33:d3:6c:f8, 2015-01-01 00:34:07.485, 0.417, 0.493, 0.768, 2.197, 0.854, 1.77, 32.855, -24.901, 93.554, -8.073, -19.373, -29.980, 26.32, 0.60245, 0.33032, 0.05353, 0.72455,
 12:47:50.945,ed:35:33:d3:6c:f8, 2015-01-01 00:34:07.485, 0.422, 0.5, 0.757, 3.662, 0.122, 0.732, 32.899, -24.89, 93.582, -8.073, -19.373, -29.980, 26.32, 0.59674, 0.33987, 0.05988, 0.72437,
 12:47:50.945,ed:35:33:d3:6c:f8, 2015-01-01 00:34:07.485, 0.429, 0.512, 0.75, 3.967, 0.061, 0.916, 32.964, -24.89, 93.593, -8.073, -19.373, -29.980, 26.32, 0.59674, 0.33987, 0.05988, 0.72437,
 12:47:50.946,f6:90:cc:01:6d:25, 2015-01-01 00:34:06.835, 0.926, 0.357, 0.08, 1.77, -0.671, -0.244, 75.608, -69.296, 102.552, -27.360, -16.933, -3.273, 26.78, 0.14362, 0.66641, 0.10001, 0.72467,
 12:47:50.946,f6:90:cc:01:6d:25, 2015-01-01 00:34:06.835, 0.927, 0.346, 0.075, 0.916, -0.366, -0.305, 75.652, -69.285, 102.59, -27.360, -16.933, -3.273, 26.78, 0.14362, 0.66641, 0.10001, 0.72467,
 12:47:50.965,e3:ca:2d:fd:e0:8c, 2015-01-01 00:34:08.190, 0.987, 0.236, 0.163, 1.526, -2.563, 0.61, 53.13, -74.487, 92.895, -23.847, -15.100, -10.653, 23.15, 0.29456, 0.63861, -0.11838, 0.7009,
 12:47:50.965,e3:ca:2d:fd:e0:8c, 2015-01-01 00:34:08.190, 0.987, 0.234, 0.157, 1.038, -2.869, 1.099, 53.273, -74.531, 92.752, -23.847, -15.100, -10.653, 23.15, 0.29456, 0.63861, -0.11838, 0.7009,
 12:47:50.966,ed:40:fe:65:30:6c, 2015-01-01 00:34:07.335, 0.694, 0.273, 0.683, 0.061, -3.967, 0.305, 20.962, -43.764, -143.992, -18.873, -12.880, -4.780, 23.72, 0.34528, -0.29327, -0.2717, -0.84903,
 12:47:50.966,ed:40:fe:65:30:6c, 2015-01-01 00:34:07.335, 0.704, 0.273, 0.678, 1.099, -3.296, -0.305, 21.017, -43.808, -144.031, -18.873, -12.880, -4.780, 23.72, 0.34528, -0.29327, -0.2717, -0.84903,
 12:47:50.987,e3:ca:2d:fd:e0:8c, 2015-01-01 00:34:08.190, 0.987, 0.225, 0.154, 0.671, -2.625, 1.343, 53.388, -74.575, 92.637, -23.847, -15.100, -10.653, 23.15, 0.29404, 0.63824, -0.11533, 0.70197,
 12:47:50.987,e3:ca:2d:fd:e0:8c, 2015-01-01 00:34:08.190, 0.992, 0.218, 0.148, 0.305, -2.747, 1.343, 53.503, -74.625, 92.505, -23.847, -15.100, -10.653, 23.15, 0.29404, 0.63824, -0.11533, 0.70197,
 12:47:50.990,ed:40:fe:65:30:6c, 2015-01-01 00:34:07.335, 0.709, 0.275, 0.66, 2.197, -2.93, 0.061, 21.088, -43.846, -144.064, -18.773, -13.260, -4.107, 23.72, 0.34528, -0.29327, -0.2717, -0.84903,
 12:47:50.990,ed:40:fe:65:30:6c, 2015-01-01 00:34:07.335, 0.712, 0.272, 0.651, 0.793, -2.502, 0.427, 21.143, -43.89, -144.097, -18.773, -13.260, -4.107, 23.72, 0.34528, -0.29327, -0.2717, -0.84903,
 12:47:50.990,ed:35:33:d3:6c:f8, 2015-01-01 00:34:07.485, 0.438, 0.512, 0.745, 3.418, -0.122, 0.854, 33.03, -24.89, 93.582, -8.073, -19.373, -29.980, 26.32, 0.59674, 0.33987, 0.05988, 0.72437,
 12:47:50.990,ed:35:33:d3:6c:f8, 2015-01-01 00:34:07.485, 0.441, 0.507, 0.74, 2.319, 0.122, 0.549, 33.085, -24.895, 93.549, -8.073, -19.373, -29.980, 26.32, 0.59674, 0.33987, 0.05988, 0.72437,
 12:47:50.992,f6:90:cc:01:6d:25, 2015-01-01 00:34:06.835, 0.931, 0.343, 0.071, 0.549, -0.732, -0.061, 75.685, -69.28, 102.662, -27.360, -16.933, -3.273, 26.78, 0.14362, 0.66641, 0.10001, 0.72467,
 12:47:50.992,f6:90:cc:01:6d:25, 2015-01-01 00:34:06.835, 0.93, 0.347, 0.062, 0.122, -1.038, 0.61, 75.734, -69.28, 102.689, -27.360, -16.933, -3.273, 26.78, 0.14362, 0.66641, 0.10001, 0.72467,
 12:47:51.010,ed:40:fe:65:30:6c, 2015-01-01 00:34:07.335, 0.717, 0.268, 0.651, 0.427, -1.587, 0, 21.176, -43.934, -144.124, -18.773, -13.260, -4.107, 23.72, 0.34528, -0.29327, -0.2717, -0.84903,
 12:47:51.010,ed:40:fe:65:30:6c, 2015-01-01 00:34:07.335, 0.722, 0.261, 0.651, -0.549, -1.404, -0.549, 21.204, -43.956, -144.163, -18.773, -13.260, -4.107, 23.72, 0.34528, -0.29327, -0.2717, -0.84903,
 12:47:51.010,e3:ca:2d:fd:e0:8c, 2015-01-01 00:34:08.190, 0.995, 0.215, 0.146, 0, -2.747, 1.221, 53.624, -74.669, 92.368, -23.847, -15.100, -10.653, 23.15, 0.29404, 0.63824, -0.11533, 0.70197,
 12:47:51.010,e3:ca:2d:fd:e0:8c, 2015-01-01 00:34:08.190, 0.997, 0.215, 0.144, -0.488, -2.441, 1.221, 53.718, -74.718, 92.241, -23.847, -15.100, -10.653, 23.15, 0.29404, 0.63824, -0.11533, 0.70197,
 12:47:51.012,ed:35:33:d3:6c:f8, 2015-01-01 00:34:07.820, 0.448, 0.498, 0.739, 1.282, -0.244, 0.732, 33.124, -24.901, 93.516, -8.073, -19.373, -29.980, 26.32, 0.59674, 0.33987, 0.05988, 0.72437,
 12:47:51.012,ed:35:33:d3:6c:f8, 2015-01-01 00:34:07.820, 0.453, 0.494, 0.746, 1.16, -0.732, 0, 33.151, -24.917, 93.483, -8.073, -19.373, -29.980, 26.32, 0.59674, 0.33987, 0.05988, 0.72437,
 12:47:51.036,f6:90:cc:01:6d:25, 2015-01-01 00:34:06.835, 0.933, 0.345, 0.06, -0.61, -0.732, 1.282, 75.773, -69.302, 102.689, -27.167, -17.327, -2.293, 26.78, 0.14362, 0.66641, 0.10001, 0.72467,
 12:47:51.036,f6:90:cc:01:6d:25, 2015-01-01 00:34:06.835, 0.938, 0.338, 0.062, -1.099, -0.427, 1.282, 75.784, -69.324, 102.689, -27.167, -17.327, -2.293, 26.78, 0.14362, 0.66641, 0.10001, 0.72467,
 12:47:51.054,e3:ca:2d:fd:e0:8c, 2015-01-01 00:34:08.190, 1, 0.211, 0.142, -1.099, -1.892, 1.099, 53.773, -74.756, 92.137, -23.847, -15.100, -10.653, 23.15, 0.29404, 0.63824, -0.11533, 0.70197,
 12:47:51.054,e3:ca:2d:fd:e0:8c, 2015-01-01 00:34:08.190, 0.997, 0.208, 0.144, -1.221, -1.587, 0.793, 53.828, -74.789, 92.043, -23.847, -15.100, -10.653, 23.15, 0.29404, 0.63824, -0.11533, 0.70197,
 12:47:51.055,ed:40:fe:65:30:6c, 2015-01-01 00:34:07.335, 0.72, 0.252, 0.651, -1.526, -1.038, -0.793, 21.215, -43.984, -144.212, -18.773, -13.260, -4.107, 23.72, 0.34528, -0.29327, -0.2717, -0.84903,
 12:47:51.055,ed:40:fe:65:30:6c, 2015-01-01 00:34:07.335, 0.716, 0.25, 0.652, -1.709, -0.366, -0.488, 21.209, -44, -144.267, -18.773, -13.260, -4.107, 23.72, 0.34528, -0.29327, -0.2717, -0.84903,
 12:47:51.056,ed:35:33:d3:6c:f8, 2015-01-01 00:34:07.820, 0.454, 0.492, 0.744, 0.183, -0.61, -0.427, 33.179, -24.928, 93.455, -8.073, -19.373, -29.980, 26.32, 0.59674, 0.33987, 0.05988, 0.72437,
 12:47:51.056,ed:35:33:d3:6c:f8, 2015-01-01 00:34:07.820, 0.449, 0.491, 0.745, -1.16, -0.366, -0.061, 33.168, -24.944, 93.417, -8.073, -19.373, -29.980, 26.32, 0.59674, 0.33987, 0.05988, 0.72437,
 12:47:51.082,f6:90:cc:01:6d:25, 2015-01-01 00:34:06.835, 0.938, 0.332, 0.064, -1.16, -0.122, 0.977, 75.784, -69.34, 102.673, -27.167, -17.327, -2.293, 26.78, 0.13263, 0.66608, 0.11392, 0.72504,
 12:47:51.082,f6:90:cc:01:6d:25, 2015-01-01 00:34:06.835, 0.934, 0.325, 0.067, -1.099, 0.244, 0.671, 75.767, -69.357, 102.656, -27.167, -17.327, -2.293, 26.78, 0.13263, 0.66608, 0.11392, 0.72504,
 12:47:51.100,e3:ca:2d:fd:e0:8c, 2015-01-01 00:34:08.570, 0.993, 0.206, 0.147, -1.404, -1.404, 0.427, 53.877, -74.817, 91.95, -23.847, -15.100, -10.653, 23.15, 0.29404, 0.63824, -0.11533, 0.70197,
 12:47:51.100,e3:ca:2d:fd:e0:8c, 2015-01-01 00:34:08.570, 0.986, 0.204, 0.153, -1.16, -0.549, 0, 53.899, -74.828, 91.901, -23.847, -15.100, -10.653, 23.15, 0.29404, 0.63824, -0.11533, 0.70197,
 12:47:51.102,ed:35:33:d3:6c:f8, 2015-01-01 00:34:07.820, 0.444, 0.489, 0.746, -2.014, 0, 0.122, 33.135, -24.955, 93.378, -8.073, -19.373, -29.980, 26.32, 0.59674, 0.33987, 0.05988, 0.72437,
 12:47:51.102,ed:35:33:d3:6c:f8, 2015-01-01 00:34:07.820, 0.438, 0.492, 0.747, -2.014, 0.061, 0.305, 33.096, -24.972, 93.334, -8.073, -19.373, -29.980, 26.32, 0.59674, 0.33987, 0.05988, 0.72437,
 12:47:51.103,f6:90:cc:01:6d:25, 2015-01-01 00:34:07.125, 0.931, 0.32, 0.071, -0.61, 0.366, 0.244, 75.751, -69.368, 102.623, -27.167, -17.327, -2.293, 26.78, 0.13263, 0.66608, 0.11392, 0.72504,
 12:47:51.103,f6:90:cc:01:6d:25, 2015-01-01 00:34:07.125, 0.929, 0.321, 0.077, 0, 0.732, 0, 75.74, -69.368, 102.634, -27.167, -17.327, -2.293, 26.78, 0.13263, 0.66608, 0.11392, 0.72504,
 12:47:51.123,ed:40:fe:65:30:6c, 2015-01-01 00:34:07.335, 0.71, 0.249, 0.654, -2.014, 0.366, 0.244, 21.187, -44.011, -144.305, -18.773, -13.260, -4.107, 23.72, 0.34537, -0.29794, -0.27545, -0.84613,
 12:47:51.123,ed:40:fe:65:30:6c, 2015-01-01 00:34:07.335, 0.708, 0.254, 0.656, -2.319, 0.732, 1.038, 21.138, -44.017, -144.322, -18.773, -13.260, -4.107, 23.72, 0.34537, -0.29794, -0.27545, -0.84613,
 12:47:51.144,e3:ca:2d:fd:e0:8c, 2015-01-01 00:34:08.570, 0.982, 0.204, 0.157, -0.671, 0.122, -0.366, 53.899, -74.822, 91.884, -23.847, -15.100, -10.653, 23.15, 0.29404, 0.63824, -0.11533, 0.70197,
 12:47:51.144,e3:ca:2d:fd:e0:8c, 2015-01-01 00:34:08.570, 0.98, 0.212, 0.164, -0.061, 0.977, -0.671, 53.871, -74.811, 91.912, -23.847, -15.100, -10.653, 23.15, 0.29404, 0.63824, -0.11533, 0.70197,
 12:47:51.145,ed:40:fe:65:30:6c, 2015-01-01 00:34:07.715, 0.703, 0.256, 0.66, -3.235, 0.854, 1.16, 21.066, -44.017, -144.316, -18.773, -13.260, -4.107, 23.72, 0.34537, -0.29794, -0.27545, -0.84613,
 12:47:51.145,ed:40:fe:65:30:6c, 2015-01-01 00:34:07.715, 0.697, 0.252, 0.665, -4.15, 0.916, 1.038, 20.973, -44.022, -144.327, -18.773, -13.260, -4.107, 23.72, 0.34537, -0.29794, -0.27545, -0.84613,
 12:47:51.146,ed:35:33:d3:6c:f8, 2015-01-01 00:34:07.820, 0.435, 0.49, 0.748, -2.747, -0.244, 0.732, 33.047, -24.994, 93.307, -8.073, -19.373, -29.980, 26.32, 0.59674, 0.33987, 0.05988, 0.72437,
 12:47:51.146,ed:35:33:d3:6c:f8, 2015-01-01 00:34:07.820, 0.428, 0.488, 0.75, -3.296, 0.183, 0.549, 32.981, -25.01, 93.29, -8.073, -19.373, -29.980, 26.32, 0.59674, 0.33987, 0.05988, 0.72437,
 12:47:51.148,f6:90:cc:01:6d:25, 2015-01-01 00:34:07.125, 0.928, 0.33, 0.082, 0.366, 1.16, -0.061, 75.712, -69.368, 102.651, -27.167, -17.327, -2.293, 26.78, 0.13263, 0.66608, 0.11392, 0.72504,
 12:47:51.148,f6:90:cc:01:6d:25, 2015-01-01 00:34:07.125, 0.925, 0.333, 0.088, 0.244, 1.587, -0.122, 75.657, -69.368, 102.695, -27.167, -17.327, -2.293, 26.78, 0.13263, 0.66608, 0.11392, 0.72504,
 12:47:51.191,ed:40:fe:65:30:6c, 2015-01-01 00:34:07.715, 0.692, 0.25, 0.669, -4.333, 1.038, 0.61, 20.869, -44.022, -144.349, -18.773, -13.260, -4.107, 23.72, 0.34537, -0.29794, -0.27545, -0.84613,
 12:47:51.191,ed:40:fe:65:30:6c, 2015-01-01 00:34:07.715, 0.687, 0.241, 0.676, -3.662, 1.282, 0.305, 20.775, -44.017, -144.377, -18.773, -13.260, -4.107, 23.72, 0.34537, -0.29794, -0.27545, -0.84613,
 12:47:51.191,e3:ca:2d:fd:e0:8c, 2015-01-01 00:34:08.570, 0.979, 0.215, 0.166, -0.183, 1.099, -0.793, 53.839, -74.789, 91.939, -23.847, -15.100, -10.653, 23.15, 0.29404, 0.63824, -0.11533, 0.70197,
 12:47:51.191,e3:ca:2d:fd:e0:8c, 2015-01-01 00:34:08.570, 0.976, 0.217, 0.165, -0.183, 1.16, -0.916, 53.8, -74.767, 91.989, -23.847, -15.100, -10.653, 23.15, 0.29404, 0.63824, -0.11533, 0.70197,
 12:47:51.193,f6:90:cc:01:6d:25, 2015-01-01 00:34:07.125, 0.921, 0.333, 0.091, -0.183, 1.709, -0.122, 75.586, -69.362, 102.788, -27.167, -17.327, -2.293, 26.78, 0.13263, 0.66608, 0.11392, 0.72504,
 12:47:51.193,f6:90:cc:01:6d:25, 2015-01-01 00:34:07.125, 0.918, 0.334, 0.093, -0.549, 1.77, -0.366, 75.498, -69.351, 102.881, -27.167, -17.327, -2.293, 26.78, 0.13263, 0.66608, 0.11392, 0.72504,
 12:47:51.212,e3:ca:2d:fd:e0:8c, 2015-01-01 00:34:08.570, 0.975, 0.219, 0.164, -0.122, 1.038, -1.099, 53.767, -74.74, 92.027, -23.847, -15.100, -10.653, 23.15, 0.29404, 0.63824, -0.11533, 0.70197,
 12:47:51.212,e3:ca:2d:fd:e0:8c, 2015-01-01 00:34:08.570, 0.976, 0.221, 0.163, -0.061, 0.793, -1.099, 53.751, -74.713, 92.065, -23.847, -15.100, -10.653, 23.15, 0.29404, 0.63824, -0.11533, 0.70197,
 12:47:51.213,ed:40:fe:65:30:6c, 2015-01-01 00:34:07.715, 0.683, 0.244, 0.681, -3.113, 1.343, -0.061, 20.693, -44, -144.388, -18.773, -13.260, -4.107, 23.72, 0.34537, -0.29794, -0.27545, -0.84613,
 12:47:51.213,ed:40:fe:65:30:6c, 2015-01-01 00:34:07.715, 0.684, 0.253, 0.683, -2.38, 1.16, -0.305, 20.627, -43.984, -144.399, -18.773, -13.260, -4.107, 23.72, 0.34537, -0.29794, -0.27545, -0.84613,
 12:47:51.214,ed:35:33:d3:6c:f8, 2015-01-01 00:34:07.820, 0.423, 0.481, 0.754, -3.723, 1.221, 0.183, 32.91, -25.01, 93.279, -8.073, -19.373, -29.980, 26.32, 0.59674, 0.33987, 0.05988, 0.72437,
 12:47:51.214,ed:35:33:d3:6c:f8, 2015-01-01 00:34:07.820, 0.416, 0.476, 0.764, -3.479, 1.709, -0.305, 32.833, -24.994, 93.312, -8.073, -19.373, -29.980, 26.32, 0.59674, 0.33987, 0.05988, 0.72437,
 12:47:51.237,ed:35:33:d3:6c:f8, 2015-01-01 00:34:07.820, 0.409, 0.476, 0.768, -2.808, 1.587, -0.244, 32.767, -24.972, 93.362, -8.627, -19.467, -29.373, 26.32, 0.59674, 0.33987, 0.05988, 0.72437,
 12:47:51.237,ed:35:33:d3:6c:f8, 2015-01-01 00:34:07.820, 0.408, 0.484, 0.768, -1.465, 1.465, -0.244, 32.728, -24.95, 93.367, -8.627, -19.467, -29.373, 26.32, 0.59674, 0.33987, 0.05988, 0.72437,
 12:47:51.239,f6:90:cc:01:6d:25, 2015-01-01 00:34:07.125, 0.917, 0.336, 0.095, -0.793, 1.648, -0.671, 75.41, -69.335, 102.925, -27.167, -17.327, -2.293, 26.78, 0.13263, 0.66608, 0.11392, 0.72504,
 12:47:51.239,f6:90:cc:01:6d:25, 2015-01-01 00:34:07.125, 0.917, 0.34, 0.097, -0.916, 1.526, -0.854, 75.328, -69.313, 102.964, -27.167, -17.327, -2.293, 26.78, 0.13263, 0.66608, 0.11392, 0.72504,
 12:47:51.260,ed:40:fe:65:30:6c, 2015-01-01 00:34:07.715, 0.679, 0.261, 0.682, -2.136, 1.099, -0.305, 20.577, -43.962, -144.41, -18.773, -13.260, -4.107, 23.72, 0.34537, -0.29794, -0.27545, -0.84613,
 12:47:51.260,ed:40:fe:65:30:6c, 2015-01-01 00:34:07.715, 0.677, 0.264, 0.683, -2.197, 0.854, -0.366, 20.533, -43.94, -144.421, -18.773, -13.260, -4.107, 23.72, 0.34537, -0.29794, -0.27545, -0.84613,
 12:47:51.260,e3:ca:2d:fd:e0:8c, 2015-01-01 00:34:08.570, 0.976, 0.224, 0.16, -0.183, 0.366, -1.038, 53.751, -74.685, 92.071, -23.847, -15.100, -10.653, 23.15, 0.29404, 0.63824, -0.11533, 0.70197,
 12:47:51.260,e3:ca:2d:fd:e0:8c, 2015-01-01 00:34:08.570, 0.974, 0.226, 0.158, -0.366, -0.061, -0.671, 53.767, -74.663, 92.065, -23.847, -15.100, -10.653, 23.15, 0.29404, 0.63824, -0.11533, 0.70197,
 12:47:51.282,ed:35:33:d3:6c:f8, 2015-01-01 00:34:07.820, 0.403, 0.492, 0.767, -0.061, 0.61, -0.854, 32.717, -24.933, 93.395, -8.627, -19.467, -29.373, 26.32, 0.59674, 0.33987, 0.05988, 0.72437,
 12:47:51.282,ed:35:33:d3:6c:f8, 2015-01-01 00:34:07.820, 0.399, 0.498, 0.766, 0.854, 0.732, -1.709, 32.739, -24.906, 93.417, -8.627, -19.467, -29.373, 26.32, 0.59674, 0.33987, 0.05988, 0.72437,
 12:47:51.283,f6:90:cc:01:6d:25, 2015-01-01 00:34:07.125, 0.915, 0.346, 0.095, -1.099, 1.282, -0.671, 75.251, -69.291, 103.024, -27.167, -17.327, -2.293, 26.78, 0.13263, 0.66608, 0.11392, 0.72504,
 12:47:51.283,f6:90:cc:01:6d:25, 2015-01-01 00:34:07.125, 0.912, 0.349, 0.095, -1.099, 0.977, -0.366, 75.179, -69.28, 103.074, -27.167, -17.327, -2.293, 26.78, 0.13263, 0.66608, 0.11392, 0.72504,
 12:47:51.305,ed:35:33:d3:6c:f8, 2015-01-01 00:34:07.820, 0.4, 0.507, 0.764, 0.793, 0.488, -1.648, 32.767, -24.879, 93.433, -8.627, -19.467, -29.373, 26.32, 0.59805, 0.33929, 0.05862, 0.72363,
 12:47:51.305,ed:35:33:d3:6c:f8, 2015-01-01 00:34:07.820, 0.406, 0.511, 0.758, 0, -0.305, -1.465, 32.783, -24.862, 93.422, -8.627, -19.467, -29.373, 26.32, 0.59805, 0.33929, 0.05862, 0.72363,
 12:47:51.306,f6:90:cc:01:6d:25, 2015-01-01 00:34:07.125, 0.915, 0.348, 0.095, -0.916, 0.854, -0.061, 75.114, -69.269, 103.162, -26.967, -17.127, -2.840, 26.78, 0.13263, 0.66608, 0.11392, 0.72504,
 12:47:51.306,f6:90:cc:01:6d:25, 2015-01-01 00:34:07.125, 0.917, 0.347, 0.096, -0.732, 0.916, 0.244, 75.053, -69.263, 103.244, -26.967, -17.127, -2.840, 26.78, 0.13263, 0.66608, 0.11392, 0.72504,
 12:47:51.325,ed:40:fe:65:30:6c, 2015-01-01 00:34:07.715, 0.682, 0.272, 0.682, -2.258, 0.549, -0.366, 20.495, -43.923, -144.432, -18.773, -13.260, -4.107, 23.72, 0.34537, -0.29794, -0.27545, -0.84613,
 12:47:51.325,ed:40:fe:65:30:6c, 2015-01-01 00:34:07.715, 0.686, 0.275, 0.679, -3.418, -0.122, -0.305, 20.451, -43.907, -144.448, -18.773, -13.260, -4.107, 23.72, 0.34537, -0.29794, -0.27545, -0.84613,
 12:47:51.325,e3:ca:2d:fd:e0:8c, 2015-01-01 00:34:08.570, 0.973, 0.226, 0.159, -0.488, -0.122, -0.244, 53.789, -74.658, 92.065, -24.080, -14.980, -10.100, 23.15, 0.29404, 0.63824, -0.11533, 0.70197,
 12:47:51.325,e3:ca:2d:fd:e0:8c, 2015-01-01 00:34:08.570, 0.975, 0.225, 0.161, -0.488, -0.183, 0.122, 53.795, -74.652, 92.082, -24.080, -14.980, -10.100, 23.15, 0.29404, 0.63824, -0.11533, 0.70197,
 12:47:51.348,ed:40:fe:65:30:6c, 2015-01-01 00:34:07.715, 0.691, 0.269, 0.676, -2.686, -0.977, -0.427, 20.407, -43.907, -144.47, -18.913, -13.213, -4.660, 23.72, 0.34537, -0.29794, -0.27545, -0.84613,
 12:47:51.348,ed:40:fe:65:30:6c, 2015-01-01 00:34:07.715, 0.7, 0.251, 0.672, -0.549, -0.061, -0.305, 20.385, -43.912, -144.481, -18.913, -13.213, -4.660, 23.72, 0.34537, -0.29794, -0.27545, -0.84613,
 12:47:51.348,e3:ca:2d:fd:e0:8c, 2015-01-01 00:34:08.570, 0.981, 0.223, 0.161, -0.549, -0.427, 0.427, 53.795, -74.658, 92.082, -24.080, -14.980, -10.100, 23.15, 0.29474, 0.63895, -0.11639, 0.70087,
 12:47:51.348,e3:ca:2d:fd:e0:8c, 2015-01-01 00:34:08.570, 0.987, 0.225, 0.16, -0.793, -0.488, 0.732, 53.789, -74.663, 92.076, -24.080, -14.980, -10.100, 23.15, 0.29474, 0.63895, -0.11639, 0.70087,
 12:47:51.350,ed:35:33:d3:6c:f8, 2015-01-01 00:34:07.820, 0.418, 0.509, 0.755, -0.671, -0.916, -1.709, 32.794, -24.851, 93.384, -8.627, -19.467, -29.373, 26.32, 0.59805, 0.33929, 0.05862, 0.72363,
 12:47:51.350,ed:35:33:d3:6c:f8, 2015-01-01 00:34:07.820, 0.421, 0.497, 0.753, -1.587, -1.038, -1.16, 32.789, -24.846, 93.34, -8.627, -19.467, -29.373, 26.32, 0.59805, 0.33929, 0.05862, 0.72363,
 12:47:51.351,f6:90:cc:01:6d:25, 2015-01-01 00:34:07.125, 0.92, 0.35, 0.091, -1.221, 0.732, 0.977, 74.976, -69.269, 103.326, -26.967, -17.127, -2.840, 26.78, 0.13263, 0.66608, 0.11392, 0.72504,
 12:47:51.351,f6:90:cc:01:6d:25, 2015-01-01 00:34:07.125, 0.927, 0.35, 0.088, -1.892, 0.244, 1.77, 74.905, -69.296, 103.376, -26.967, -17.127, -2.840, 26.78, 0.13263, 0.66608, 0.11392, 0.72504,
 12:47:51.392,e3:ca:2d:fd:e0:8c, 2015-01-01 00:34:08.570, 0.988, 0.223, 0.158, -1.343, -0.549, 0.854, 53.773, -74.68, 92.071, -24.080, -14.980, -10.100, 23.15, 0.29474, 0.63895, -0.11639, 0.70087,
 12:47:51.392,e3:ca:2d:fd:e0:8c, 2015-01-01 00:34:08.570, 0.99, 0.216, 0.157, -1.648, 0, 0.854, 53.74, -74.696, 92.082, -24.080, -14.980, -10.100, 23.15, 0.29474, 0.63895, -0.11639, 0.70087,
 12:47:51.395,f6:90:cc:01:6d:25, 2015-01-01 00:34:07.125, 0.931, 0.341, 0.088, -2.625, 0.427, 1.831, 74.817, -69.318, 103.436, -26.967, -17.127, -2.840, 26.78, 0.13348, 0.66425, 0.11298, 0.72668,
 12:47:51.395,f6:90:cc:01:6d:25, 2015-01-01 00:34:07.125, 0.932, 0.335, 0.088, -2.441, 0.671, 1.77, 74.718, -69.346, 103.524, -26.967, -17.127, -2.840, 26.78, 0.13348, 0.66425, 0.11298, 0.72668,
 12:47:51.396,ed:35:33:d3:6c:f8, 2015-01-01 00:34:08.180, 0.426, 0.499, 0.758, -1.465, -0.793, -0.549, 32.772, -24.851, 93.301, -8.627, -19.467, -29.373, 26.32, 0.59805, 0.33929, 0.05862, 0.72363,
 12:47:51.396,ed:35:33:d3:6c:f8, 2015-01-01 00:34:08.180, 0.439, 0.499, 0.759, -1.099, -1.404, -1.587, 32.772, -24.857, 93.257, -8.627, -19.467, -29.373, 26.32, 0.59805, 0.33929, 0.05862, 0.72363,
 12:47:51.415,e3:ca:2d:fd:e0:8c, 2015-01-01 00:34:08.905, 0.99, 0.214, 0.156, -1.404, -0.183, 0.549, 53.679, -74.707, 92.104, -24.080, -14.980, -10.100, 23.15, 0.29474, 0.63895, -0.11639, 0.70087,
 12:47:51.415,e3:ca:2d:fd:e0:8c, 2015-01-01 00:34:08.905, 0.986, 0.21, 0.157, -1.282, -0.122, 0.183, 53.652, -74.713, 92.115, -24.080, -14.980, -10.100, 23.15, 0.29474, 0.63895, -0.11639, 0.70087,
 12:47:51.415,ed:40:fe:65:30:6c, 2015-01-01 00:34:07.715, 0.704, 0.268, 0.673, -0.793, -0.122, -0.366, 20.385, -43.907, -144.481, -18.913, -13.213, -4.660, 23.72, 0.34537, -0.29794, -0.27545, -0.84613,
 12:47:51.415,ed:40:fe:65:30:6c, 2015-01-01 00:34:07.715, 0.709, 0.256, 0.673, -2.441, -0.183, -0.732, 20.385, -43.901, -144.498, -18.913, -13.213, -4.660, 23.72, 0.34537, -0.29794, -0.27545, -0.84613,
 12:47:51.417,ed:35:33:d3:6c:f8, 2015-01-01 00:34:08.180, 0.437, 0.48, 0.763, -3.296, -1.526, -1.465, 32.745, -24.862, 93.214, -8.627, -19.467, -29.373, 26.32, 0.59805, 0.33929, 0.05862, 0.72363,
 12:47:51.417,ed:35:33:d3:6c:f8, 2015-01-01 00:34:08.180, 0.43, 0.472, 0.766, -2.93, -0.916, -1.099, 32.701, -24.868, 93.219, -8.627, -19.467, -29.373, 26.32, 0.59805, 0.33929, 0.05862, 0.72363,
 12:47:51.439,ed:40:fe:65:30:6c, 2015-01-01 00:34:07.715, 0.702, 0.231, 0.671, -5.432, 0.244, -0.977, 20.341, -43.896, -144.509, -18.913, -13.213, -4.660, 23.72, 0.34125, -0.30038, -0.2684, -0.84921,
 12:47:51.439,ed:40:fe:65:30:6c, 2015-01-01 00:34:07.715, 0.698, 0.224, 0.673, -3.235, 0.671, -0.549, 20.264, -43.885, -144.509, -18.913, -13.213, -4.660, 23.72, 0.34125, -0.30038, -0.2684, -0.84921,
 12:47:51.442,f6:90:cc:01:6d:25, 2015-01-01 00:34:07.440, 0.93, 0.33, 0.086, -2.319, 0.61, 1.587, 74.619, -69.373, 103.579, -26.967, -17.127, -2.840, 26.78, 0.13348, 0.66425, 0.11298, 0.72668,
 12:47:51.442,f6:90:cc:01:6d:25, 2015-01-01 00:34:07.440, 0.927, 0.322, 0.085, -2.136, 0.549, 0.977, 74.542, -69.384, 103.629, -26.967, -17.127, -2.840, 26.78, 0.13348, 0.66425, 0.11298, 0.72668,
 12:47:51.460,e3:ca:2d:fd:e0:8c, 2015-01-01 00:34:08.905, 0.981, 0.203, 0.157, -0.916, 0.488, 0, 53.624, -74.713, 92.12, -24.080, -14.980, -10.100, 23.15, 0.29474, 0.63895, -0.11639, 0.70087,
 12:47:51.460,e3:ca:2d:fd:e0:8c, 2015-01-01 00:34:08.905, 0.976, 0.201, 0.159, 0.122, 0.793, -0.122, 53.58, -74.707, 92.148, -24.080, -14.980, -10.100, 23.15, 0.29474, 0.63895, -0.11639, 0.70087,
 12:47:51.461,ed:35:33:d3:6c:f8, 2015-01-01 00:34:08.180, 0.426, 0.472, 0.768, -1.099, -0.122, -0.183, 32.673, -24.873, 93.219, -8.627, -19.467, -29.373, 26.32, 0.59805, 0.33929, 0.05862, 0.72363,
 12:47:51.461,ed:35:33:d3:6c:f8, 2015-01-01 00:34:08.180, 0.424, 0.475, 0.768, 0.244, 0.305, 0.854, 32.668, -24.879, 93.257, -8.627, -19.467, -29.373, 26.32, 0.59805, 0.33929, 0.05862, 0.72363,
 12:47:51.484,ed:40:fe:65:30:6c, 2015-01-01 00:34:07.715, 0.696, 0.225, 0.677, -0.732, 0.549, 0.061, 20.215, -43.874, -144.503, -18.913, -13.213, -4.660, 23.72, 0.34125, -0.30038, -0.2684, -0.84921,
 12:47:51.484,ed:40:fe:65:30:6c, 2015-01-01 00:34:07.715, 0.691, 0.23, 0.677, 0.427, 0.366, 0.549, 20.198, -43.868, -144.492, -18.913, -13.213, -4.660, 23.72, 0.34125, -0.30038, -0.2684, -0.84921,
 12:47:51.485,f6:90:cc:01:6d:25, 2015-01-01 00:34:07.440, 0.926, 0.314, 0.09, -0.854, 0.366, 0.183, 74.515, -69.39, 103.612, -26.967, -17.127, -2.840, 26.78, 0.13348, 0.66425, 0.11298, 0.72668,
 12:47:51.485,f6:90:cc:01:6d:25, 2015-01-01 00:34:07.440, 0.922, 0.315, 0.092, 0.732, 0.366, -0.366, 74.52, -69.384, 103.612, -26.967, -17.127, -2.840, 26.78, 0.13348, 0.66425, 0.11298, 0.72668,
 12:47:51.504,e3:ca:2d:fd:e0:8c, 2015-01-01 00:34:08.905, 0.973, 0.205, 0.165, 1.038, 0.793, -0.305, 53.547, -74.696, 92.208, -24.080, -14.980, -10.100, 23.15, 0.29474, 0.63895, -0.11639, 0.70087,
 12:47:51.504,e3:ca:2d:fd:e0:8c, 2015-01-01 00:34:08.905, 0.971, 0.211, 0.167, 1.404, 0.732, -0.366, 53.531, -74.685, 92.274, -24.080, -14.980, -10.100, 23.15, 0.29474, 0.63895, -0.11639, 0.70087,
 12:47:51.506,ed:35:33:d3:6c:f8, 2015-01-01 00:34:08.180, 0.414, 0.475, 0.766, 1.16, 0.305, 1.465, 32.668, -24.89, 93.301, -8.627, -19.467, -29.373, 26.32, 0.59805, 0.33929, 0.05862, 0.72363,
 12:47:51.506,ed:35:33:d3:6c:f8, 2015-01-01 00:34:08.180, 0.409, 0.48, 0.765, 1.587, 0.916, 1.465, 32.679, -24.901, 93.362, -8.627, -19.467, -29.373, 26.32, 0.59805, 0.33929, 0.05862, 0.72363,
 12:47:51.506,ed:40:fe:65:30:6c, 2015-01-01 00:34:08.075, 0.685, 0.23, 0.678, 1.465, 0.244, 1.038, 20.193, -43.868, -144.47, -18.913, -13.213, -4.660, 23.72, 0.34125, -0.30038, -0.2684, -0.84921,
 12:47:51.506,ed:40:fe:65:30:6c, 2015-01-01 00:34:08.075, 0.684, 0.245, 0.681, 1.404, 0.244, 1.343, 20.193, -43.879, -144.437, -18.913, -13.213, -4.660, 23.72, 0.34125, -0.30038, -0.2684, -0.84921,
 12:47:51.509,f6:90:cc:01:6d:25, 2015-01-01 00:34:07.440, 0.918, 0.318, 0.098, 2.014, 0.366, -0.671, 74.548, -69.373, 103.596, -26.967, -17.127, -2.840, 26.78, 0.13348, 0.66425, 0.11298, 0.72668,
 12:47:51.509,f6:90:cc:01:6d:25, 2015-01-01 00:34:07.440, 0.917, 0.326, 0.101, 2.197, 0.366, -0.793, 74.581, -69.362, 103.563, -26.967, -17.127, -2.840, 26.78, 0.13348, 0.66425, 0.11298, 0.72668,
 12:47:51.550,e3:ca:2d:fd:e0:8c, 2015-01-01 00:34:08.905, 0.973, 0.22, 0.167, 1.282, 0.671, -0.305, 53.52, -74.674, 92.351, -24.080, -14.980, -10.100, 23.15, 0.29474, 0.63895, -0.11639, 0.70087,
 12:47:51.550,e3:ca:2d:fd:e0:8c, 2015-01-01 00:34:08.905, 0.981, 0.228, 0.164, 0.732, 0.183, -0.183, 53.514, -74.663, 92.411, -24.080, -14.980, -10.100, 23.15, 0.29474, 0.63895, -0.11639, 0.70087,
 12:47:51.551,ed:40:fe:65:30:6c, 2015-01-01 00:34:08.075, 0.688, 0.258, 0.674, 0.488, 0.061, 1.221, 20.187, -43.885, -144.388, -18.913, -13.213, -4.660, 23.72, 0.34125, -0.30038, -0.2684, -0.84921,
 12:47:51.551,ed:40:fe:65:30:6c, 2015-01-01 00:34:08.075, 0.689, 0.254, 0.677, -0.305, 0.244, 0, 20.171, -43.89, -144.355, -18.913, -13.213, -4.660, 23.72, 0.34125, -0.30038, -0.2684, -0.84921,
 12:47:51.554,f6:90:cc:01:6d:25, 2015-01-01 00:34:07.440, 0.918, 0.341, 0.098, 1.709, 0.305, -0.549, 74.603, -69.351, 103.497, -26.967, -17.127, -2.840, 26.78, 0.13348, 0.66425, 0.11298, 0.72668,
 12:47:51.554,f6:90:cc:01:6d:25, 2015-01-01 00:34:07.440, 0.921, 0.351, 0.096, 0.244, 0.427, 0, 74.575, -69.351, 103.491, -26.967, -17.127, -2.840, 26.78, 0.13348, 0.66425, 0.11298, 0.72668,
 12:47:51.573,ed:40:fe:65:30:6c, 2015-01-01 00:34:08.075, 0.69, 0.254, 0.68, -1.099, 0, -0.732, 20.16, -43.885, -144.36, -18.913, -13.213, -4.660, 23.72, 0.34125, -0.30038, -0.2684, -0.84921,
 12:47:51.573,ed:40:fe:65:30:6c, 2015-01-01 00:34:08.075, 0.689, 0.252, 0.682, -1.038, -0.061, -0.427, 20.149, -43.879, -144.382, -18.913, -13.213, -4.660, 23.72, 0.34125, -0.30038, -0.2684, -0.84921,
 12:47:51.574,ed:35:33:d3:6c:f8, 2015-01-01 00:34:08.180, 0.414, 0.489, 0.756, 1.526, 0.488, 0.732, 32.695, -24.901, 93.417, -8.627, -19.467, -29.373, 26.32, 0.59805, 0.33929, 0.05862, 0.72363,
 12:47:51.574,ed:35:33:d3:6c:f8, 2015-01-01 00:34:08.180, 0.414, 0.484, 0.758, 0.549, 0.305, 0.183, 32.706, -24.895, 93.444, -8.627, -19.467, -29.373, 26.32, 0.59805, 0.33929, 0.05862, 0.72363,
 12:47:51.594,e3:ca:2d:fd:e0:8c, 2015-01-01 00:34:08.905, 0.988, 0.231, 0.162, -0.183, -0.366, -0.122, 53.525, -74.658, 92.433, -24.080, -14.980, -10.100, 23.15, 0.29474, 0.63895, -0.11639, 0.70087,
 12:47:51.594,e3:ca:2d:fd:e0:8c, 2015-01-01 00:34:08.905, 0.983, 0.227, 0.157, -0.854, -0.244, -0.183, 53.542, -74.658, 92.417, -24.080, -14.980, -10.100, 23.15, 0.29474, 0.63895, -0.11639, 0.70087,
 12:47:51.597,ed:35:33:d3:6c:f8, 2015-01-01 00:34:08.180, 0.415, 0.492, 0.764, 0, 0.549, -0.549, 32.706, -24.884, 93.461, -8.420, -19.393, -29.200, 26.32, 0.59805, 0.33929, 0.05862, 0.72363,
 12:47:51.597,ed:35:33:d3:6c:f8, 2015-01-01 00:34:08.180, 0.414, 0.498, 0.766, -0.793, 0.671, -0.549, 32.69, -24.868, 93.466, -8.420, -19.393, -29.200, 26.32, 0.59805, 0.33929, 0.05862, 0.72363,
 12:47:51.598,f6:90:cc:01:6d:25, 2015-01-01 00:34:07.440, 0.924, 0.35, 0.096, -1.038, 0.122, 0.244, 74.542, -69.357, 103.502, -26.967, -17.127, -2.840, 26.78, 0.13348, 0.66425, 0.11298, 0.72668,
 12:47:51.598,f6:90:cc:01:6d:25, 2015-01-01 00:34:07.440, 0.923, 0.337, 0.095, -1.343, -0.061, -0.061, 74.52, -69.351, 103.513, -26.967, -17.127, -2.840, 26.78, 0.13348, 0.66425, 0.11298, 0.72668,
 12:47:51.618,e3:ca:2d:fd:e0:8c, 2015-01-01 00:34:08.905, 0.979, 0.221, 0.157, -0.732, -0.061, -0.244, 53.547, -74.658, 92.395, -24.060, -14.947, -10.467, 23.15, 0.29474, 0.63895, -0.11639, 0.70087,
 12:47:51.618,e3:ca:2d:fd:e0:8c, 2015-01-01 00:34:08.905, 0.976, 0.218, 0.159, -0.183, -0.244, -0.183, 53.553, -74.652, 92.39, -24.060, -14.947, -10.467, 23.15, 0.29474, 0.63895, -0.11639, 0.70087,
 12:47:51.618,ed:40:fe:65:30:6c, 2015-01-01 00:34:08.075, 0.69, 0.247, 0.685, -0.549, -0.061, 0, 20.138, -43.879, -144.399, -18.913, -13.213, -4.660, 23.72, 0.34125, -0.30038, -0.2684, -0.84921,
 12:47:51.618,ed:40:fe:65:30:6c, 2015-01-01 00:34:08.075, 0.69, 0.251, 0.682, -0.488, -0.122, 0.244, 20.121, -43.879, -144.41, -18.913, -13.213, -4.660, 23.72, 0.34125, -0.30038, -0.2684, -0.84921,
 12:47:51.642,ed:35:33:d3:6c:f8, 2015-01-01 00:34:08.180, 0.416, 0.494, 0.77, -0.916, 0.427, 0.122, 32.673, -24.857, 93.477, -8.420, -19.393, -29.200, 26.32, 0.59805, 0.33929, 0.05862, 0.72363,
 12:47:51.642,ed:35:33:d3:6c:f8, 2015-01-01 00:34:08.180, 0.417, 0.493, 0.768, -0.488, -0.122, 0.61, 32.657, -24.862, 93.483, -8.420, -19.393, -29.200, 26.32, 0.59805, 0.33929, 0.05862, 0.72363,
 12:47:51.643,f6:90:cc:01:6d:25, 2015-01-01 00:34:07.440, 0.92, 0.334, 0.095, -0.793, -0.122, -0.488, 74.515, -69.34, 103.464, -27.013, -17.120, -2.913, 26.78, 0.13348, 0.66425, 0.11298, 0.72668,
 12:47:51.643,f6:90:cc:01:6d:25, 2015-01-01 00:34:07.440, 0.92, 0.334, 0.095, 0, -0.122, -0.732, 74.526, -69.329, 103.403, -27.013, -17.120, -2.913, 26.78, 0.13348, 0.66425, 0.11298, 0.72668,
 12:47:51.662,e3:ca:2d:fd:e0:8c, 2015-01-01 00:34:08.905, 0.977, 0.215, 0.16, 0.061, -0.305, -0.061, 53.575, -74.647, 92.384, -24.060, -14.947, -10.467, 23.15, 0.29474, 0.63895, -0.11639, 0.70087,
 12:47:51.662,e3:ca:2d:fd:e0:8c, 2015-01-01 00:34:08.905, 0.978, 0.215, 0.161, 0.061, -0.305, 0.122, 53.597, -74.652, 92.411, -24.060, -14.947, -10.467, 23.15, 0.29474, 0.63895, -0.11639, 0.70087,
 12:47:51.663,ed:40:fe:65:30:6c, 2015-01-01 00:34:08.075, 0.688, 0.248, 0.677, -0.549, -0.488, 0.244, 20.11, -43.879, -144.404, -18.913, -13.213, -4.660, 23.72, 0.34125, -0.30038, -0.2684, -0.84921,
 12:47:51.663,ed:40:fe:65:30:6c, 2015-01-01 00:34:08.075, 0.69, 0.242, 0.677, 0.488, -0.549, 0.122, 20.11, -43.89, -144.399, -18.913, -13.213, -4.660, 23.72, 0.34125, -0.30038, -0.2684, -0.84921,
 12:47:51.664,ed:35:33:d3:6c:f8, 2015-01-01 00:34:08.180, 0.416, 0.49, 0.763, 0, -0.488, 0.427, 32.651, -24.868, 93.466, -8.420, -19.393, -29.200, 26.32, 0.59814, 0.33859, 0.05829, 0.72394,
 12:47:51.664,ed:35:33:d3:6c:f8, 2015-01-01 00:34:08.180, 0.417, 0.483, 0.761, 0.488, -0.488, 0.732, 32.657, -24.884, 93.444, -8.420, -19.393, -29.200, 26.32, 0.59814, 0.33859, 0.05829, 0.72394,
 12:47:51.666,f6:90:cc:01:6d:25, 2015-01-01 00:34:07.440, 0.918, 0.337, 0.093, 0.305, -0.061, -0.61, 74.542, -69.313, 103.365, -27.013, -17.120, -2.913, 26.78, 0.13565, 0.66388, 0.11023, 0.72705,
 12:47:51.666,f6:90:cc:01:6d:25, 2015-01-01 00:34:07.440, 0.921, 0.337, 0.094, 0.427, -0.244, -0.488, 74.564, -69.307, 103.343, -27.013, -17.120, -2.913, 26.78, 0.13565, 0.66388, 0.11023, 0.72705,
 12:47:51.708,ed:40:fe:65:30:6c, 2015-01-01 00:34:08.075, 0.694, 0.248, 0.678, 1.404, -0.366, -0.061, 20.132, -43.896, -144.399, -18.913, -13.213, -4.660, 23.72, 0.34125, -0.30038, -0.2684, -0.84921,
 12:47:51.708,ed:40:fe:65:30:6c, 2015-01-01 00:34:08.075, 0.694, 0.25, 0.674, 0.488, -0.305, -0.366, 20.154, -43.901, -144.41, -18.913, -13.213, -4.660, 23.72, 0.34125, -0.30038, -0.2684, -0.84921,
