Time,Device name,Chip Time(),Acceleration X(g),Acceleration Y(g),Acceleration Z(g),Angular velocity X(°/s),Angular velocity Y(°/s),Angular velocity Z(°/s),Angle X(°),Angle Y(°),Angle Z(°),Magnetic field X(ʯt),Magnetic field Y(ʯt),Magnetic field Z(ʯt),Temperature(℃),Quaternions 0(),Quaternions 1(),Quaternions 2(),Quaternions 3()
 16:30:26.613,e3:ca:2d:fd:e0:8c, 2015-01-01 04:41:22.335, 0.806, 0.094, -0.604, -0.061, 0, 0, 171.151, -52.866, -22.731, -24.240, -15.327, 8.913, 29.22, 0.15533, 0.86856, -0.21005, 0.42099,
 16:30:26.614,e3:ca:2d:fd:e0:8c, 2015-01-01 04:41:22.335, 0.808, 0.093, -0.602, 0, 0.427, -0.061, 171.145, -52.872, -22.72, -24.240, -15.327, 8.913, 29.22, 0.15533, 0.86856, -0.21005, 0.42099,
 16:30:26.615,f6:90:cc:01:6d:25, 2015-01-01 04:41:22.465, 0.934, 0.107, -0.289, 0.305, -0.366, 0, 160.274, -71.587, 15.623, -29.393, -15.627, 8.447, 31.59, -0.05945, -0.80521, -0.00922, -0.58984,
 16:30:26.615,f6:90:cc:01:6d:25, 2015-01-01 04:41:22.465, 0.937, 0.102, -0.292, 0.061, -0.244, 0, 160.28, -71.581, 15.623, -29.393, -15.627, 8.447, 31.59, -0.05945, -0.80521, -0.00922, -0.58984,
 16:30:26.615,ed:40:fe:65:30:6c, 2015-01-01 04:41:27.515, 0.963, -0.075, 0.285, -0.244, 1.099, 0.305, -15.601, -73.367, -106.886, -28.740, -7.707, 7.493, 27.09, 0.40836, -0.5419, -0.26569, -0.68475,
 16:30:26.615,ed:40:fe:65:30:6c, 2015-01-01 04:41:27.515, 0.958, -0.076, 0.282, -0.061, 0.244, 0.061, -15.595, -73.35, -106.897, -28.740, -7.707, 7.493, 27.09, 0.40836, -0.5419, -0.26569, -0.68475,
 16:30:26.616,ed:35:33:d3:6c:f8, 2015-01-01 04:41:22.595, 0.901, 0.023, 0.411, 0.61, -3.784, 0, 3.197, -65.253, 146.777, -23.267, -11.253, -18.180, 29.84, -0.22897, -0.51694, 0.12976, -0.81448,
 16:30:26.616,ed:35:33:d3:6c:f8, 2015-01-01 04:41:22.595, 0.906, 0.025, 0.406, 0.305, -3.54, 0.122, 3.219, -65.325, 146.788, -23.267, -11.253, -18.180, 29.84, -0.22897, -0.51694, 0.12976, -0.81448,
 16:30:26.636,ed:40:fe:65:30:6c, 2015-01-01 04:41:27.515, 0.959, -0.073, 0.282, 0.366, -0.366, -0.305, -15.568, -73.356, -106.913, -28.740, -7.707, 7.493, 27.09, 0.40808, -0.54013, -0.26511, -0.68652,
 16:30:26.636,ed:40:fe:65:30:6c, 2015-01-01 04:41:27.515, 0.96, -0.075, 0.279, 0.488, 0, -0.366, -15.529, -73.356, -106.924, -28.740, -7.707, 7.493, 27.09, 0.40808, -0.54013, -0.26511, -0.68652,
 16:30:26.637,e3:ca:2d:fd:e0:8c, 2015-01-01 04:41:22.335, 0.808, 0.096, -0.602, -0.061, 0.305, 0, 171.145, -52.883, -22.714, -24.313, -14.820, 9.587, 29.22, 0.15533, 0.86856, -0.21005, 0.42099,
 16:30:26.637,e3:ca:2d:fd:e0:8c, 2015-01-01 04:41:22.335, 0.807, 0.095, -0.6, -0.061, -0.061, 0.183, 171.145, -52.883, -22.714, -24.313, -14.820, 9.587, 29.22, 0.15533, 0.86856, -0.21005, 0.42099,
 16:30:26.660,f6:90:cc:01:6d:25, 2015-01-01 04:41:22.890, 0.935, 0.1, -0.294, -0.061, -0.305, 0, 160.285, -71.576, 15.623, -29.393, -15.627, 8.447, 31.59, -0.05945, -0.80521, -0.00922, -0.58984,
 16:30:26.660,f6:90:cc:01:6d:25, 2015-01-01 04:41:22.890, 0.935, 0.105, -0.294, 0, -0.427, 0, 160.291, -71.57, 15.623, -29.393, -15.627, 8.447, 31.59, -0.05945, -0.80521, -0.00922, -0.58984,
 16:30:26.661,ed:35:33:d3:6c:f8, 2015-01-01 04:41:22.595, 0.909, 0.019, 0.413, -0.244, -2.93, 0.488, 3.224, -65.391, 146.788, -23.287, -11.167, -17.520, 29.84, -0.22897, -0.51694, 0.12976, -0.81448,
 16:30:26.661,ed:35:33:d3:6c:f8, 2015-01-01 04:41:22.595, 0.904, 0.023, 0.409, -0.427, -3.967, -0.122, 3.208, -65.451, 146.783, -23.287, -11.167, -17.520, 29.84, -0.22897, -0.51694, 0.12976, -0.81448,
 16:30:26.681,e3:ca:2d:fd:e0:8c, 2015-01-01 04:41:22.335, 0.807, 0.091, -0.605, -0.305, -0.061, 0.061, 171.145, -52.883, -22.709, -24.313, -14.820, 9.587, 29.22, 0.15533, 0.86856, -0.21005, 0.42099,
 16:30:26.681,e3:ca:2d:fd:e0:8c, 2015-01-01 04:41:22.335, 0.807, 0.091, -0.604, 0, 0, -0.183, 171.14, -52.883, -22.698, -24.313, -14.820, 9.587, 29.22, 0.15533, 0.86856, -0.21005, 0.42099,
 16:30:26.681,ed:40:fe:65:30:6c, 2015-01-01 04:41:27.515, 0.964, -0.08, 0.283, 0.61, 0.183, -0.061, -15.496, -73.35, -106.93, -28.740, -7.707, 7.493, 27.09, 0.40808, -0.54013, -0.26511, -0.68652,
 16:30:26.681,ed:40:fe:65:30:6c, 2015-01-01 04:41:27.515, 0.96, -0.072, 0.285, 0.488, 0.366, -0.122, -15.469, -73.339, -106.935, -28.740, -7.707, 7.493, 27.09, 0.40808, -0.54013, -0.26511, -0.68652,
 16:30:26.703,ed:40:fe:65:30:6c, 2015-01-01 04:41:27.870, 0.962, -0.073, 0.281, 0.427, 0, -0.244, -15.436, -73.339, -106.941, -28.740, -7.707, 7.493, 27.09, 0.40808, -0.54013, -0.26511, -0.68652,
 16:30:26.703,ed:40:fe:65:30:6c, 2015-01-01 04:41:27.870, 0.968, -0.075, 0.281, 0.244, 0.244, -0.122, -15.408, -73.334, -106.952, -28.740, -7.707, 7.493, 27.09, 0.40808, -0.54013, -0.26511, -0.68652,
 16:30:26.704,e3:ca:2d:fd:e0:8c, 2015-01-01 04:41:22.335, 0.809, 0.094, -0.602, 0, 0.183, -0.183, 171.134, -52.883, -22.687, -24.313, -14.820, 9.587, 29.22, 0.15515, 0.86844, -0.20938, 0.42163,
 16:30:26.704,e3:ca:2d:fd:e0:8c, 2015-01-01 04:41:22.335, 0.807, 0.096, -0.601, -0.183, 0.061, 0, 171.129, -52.888, -22.681, -24.313, -14.820, 9.587, 29.22, 0.15515, 0.86844, -0.20938, 0.42163,
 16:30:26.705,f6:90:cc:01:6d:25, 2015-01-01 04:41:22.890, 0.937, 0.106, -0.294, 0, -0.488, 0, 160.302, -71.565, 15.617, -29.393, -15.627, 8.447, 31.59, -0.05945, -0.80521, -0.00922, -0.58984,
 16:30:26.705,f6:90:cc:01:6d:25, 2015-01-01 04:41:22.890, 0.937, 0.104, -0.293, -0.122, -0.366, 0, 160.307, -71.554, 15.612, -29.393, -15.627, 8.447, 31.59, -0.05945, -0.80521, -0.00922, -0.58984,
 16:30:26.706,ed:35:33:d3:6c:f8, 2015-01-01 04:41:22.595, 0.906, 0.026, 0.406, -0.244, -4.211, 0.122, 3.214, -65.528, 146.766, -23.287, -11.167, -17.520, 29.84, -0.22577, -0.52512, 0.13205, -0.80975,
 16:30:26.706,ed:35:33:d3:6c:f8, 2015-01-01 04:41:22.595, 0.914, 0.022, 0.397, -0.305, -3.784, 0.183, 3.214, -65.61, 146.772, -23.287, -11.167, -17.520, 29.84, -0.22577, -0.52512, 0.13205, -0.80975,
 16:30:26.728,ed:35:33:d3:6c:f8, 2015-01-01 04:41:22.885, 0.915, 0.022, 0.402, -0.549, -2.93, -0.122, 3.214, -65.682, 146.75, -23.287, -11.167, -17.520, 29.84, -0.22577, -0.52512, 0.13205, -0.80975,
 16:30:26.728,ed:35:33:d3:6c:f8, 2015-01-01 04:41:22.885, 0.911, 0.027, 0.396, 0.061, -2.686, -0.671, 3.224, -65.737, 146.722, -23.287, -11.167, -17.520, 29.84, -0.22577, -0.52512, 0.13205, -0.80975,
 16:30:26.748,ed:40:fe:65:30:6c, 2015-01-01 04:41:27.870, 0.966, -0.072, 0.281, -1.16, 0.122, -0.061, -15.414, -73.328, -106.957, -28.740, -7.707, 7.493, 27.09, 0.40808, -0.54013, -0.26511, -0.68652,
 16:30:26.748,ed:40:fe:65:30:6c, 2015-01-01 04:41:27.870, 0.964, -0.069, 0.278, -1.038, -0.122, -0.305, -15.408, -73.328, -106.974, -28.740, -7.707, 7.493, 27.09, 0.40808, -0.54013, -0.26511, -0.68652,
 16:30:26.749,e3:ca:2d:fd:e0:8c, 2015-01-01 04:41:22.335, 0.807, 0.094, -0.603, -0.061, -0.061, 0, 171.129, -52.888, -22.676, -24.313, -14.820, 9.587, 29.22, 0.15515, 0.86844, -0.20938, 0.42163,
 16:30:26.749,e3:ca:2d:fd:e0:8c, 2015-01-01 04:41:22.335, 0.809, 0.093, -0.605, 0.305, -0.061, 0, 171.134, -52.883, -22.67, -24.313, -14.820, 9.587, 29.22, 0.15515, 0.86844, -0.20938, 0.42163,
 16:30:26.750,f6:90:cc:01:6d:25, 2015-01-01 04:41:22.890, 0.936, 0.105, -0.297, 0, -0.183, 0, 160.312, -71.548, 15.612, -29.393, -15.627, 8.447, 31.59, -0.05945, -0.80521, -0.00922, -0.58984,
 16:30:26.750,f6:90:cc:01:6d:25, 2015-01-01 04:41:22.890, 0.936, 0.106, -0.295, 0.122, -0.122, 0, 160.318, -71.548, 15.612, -29.393, -15.627, 8.447, 31.59, -0.05945, -0.80521, -0.00922, -0.58984,
 16:30:26.773,f6:90:cc:01:6d:25, 2015-01-01 04:41:22.890, 0.936, 0.105, -0.297, 0.122, -0.122, 0, 160.323, -71.543, 15.617, -29.393, -15.627, 8.447, 31.59, -0.05945, -0.80521, -0.00922, -0.58984,
 16:30:26.773,f6:90:cc:01:6d:25, 2015-01-01 04:41:22.890, 0.936, 0.104, -0.295, -0.061, 0, 0, 160.323, -71.543, 15.623, -29.393, -15.627, 8.447, 31.59, -0.05945, -0.80521, -0.00922, -0.58984,
 16:30:26.773,ed:35:33:d3:6c:f8, 2015-01-01 04:41:22.885, 0.913, 0.026, 0.396, 0.732, -1.587, 0.427, 3.252, -65.786, 146.7, -23.287, -11.167, -17.520, 29.84, -0.22577, -0.52512, 0.13205, -0.80975,
 16:30:26.774,ed:35:33:d3:6c:f8, 2015-01-01 04:41:22.885, 0.917, 0.024, 0.395, 0.427, -2.258, 0.854, 3.252, -65.819, 146.733, -23.287, -11.167, -17.520, 29.84, -0.22577, -0.52512, 0.13205, -0.80975,
 16:30:26.795,e3:ca:2d:fd:e0:8c, 2015-01-01 04:41:22.690, 0.808, 0.095, -0.603, 0.366, -0.122, 0, 171.14, -52.883, -22.665, -24.313, -14.820, 9.587, 29.22, 0.15515, 0.86844, -0.20938, 0.42163,
 16:30:26.795,e3:ca:2d:fd:e0:8c, 2015-01-01 04:41:22.690, 0.807, 0.095, -0.603, 0, 0, 0, 171.14, -52.883, -22.659, -24.313, -14.820, 9.587, 29.22, 0.15515, 0.86844, -0.20938, 0.42163,
 16:30:26.795,ed:40:fe:65:30:6c, 2015-01-01 04:41:27.870, 0.964, -0.075, 0.275, -0.244, 0, -0.122, -15.397, -73.328, -106.985, -28.740, -7.707, 7.493, 27.09, 0.40808, -0.54013, -0.26511, -0.68652,
 16:30:26.796,ed:40:fe:65:30:6c, 2015-01-01 04:41:27.870, 0.967, -0.074, 0.276, 0.122, 0.183, 0.122, -15.392, -73.323, -106.996, -28.740, -7.707, 7.493, 27.09, 0.40808, -0.54013, -0.26511, -0.68652,
 16:30:26.815,ed:40:fe:65:30:6c, 2015-01-01 04:41:27.870, 0.965, -0.071, 0.277, 0, 0.427, 0.183, -15.386, -73.317, -106.996, -28.740, -7.707, 7.493, 27.09, 0.40808, -0.54013, -0.26511, -0.68652,
 16:30:26.815,ed:40:fe:65:30:6c, 2015-01-01 04:41:27.870, 0.963, -0.071, 0.28, 0, 0.122, 0.305, -15.392, -73.312, -106.99, -28.740, -7.707, 7.493, 27.09, 0.40808, -0.54013, -0.26511, -0.68652,
 16:30:26.819,ed:35:33:d3:6c:f8, 2015-01-01 04:41:22.885, 0.912, 0.029, 0.395, -0.305, -1.404, 0.549, 3.23, -65.863, 146.766, -23.287, -11.167, -17.520, 29.84, -0.22577, -0.52512, 0.13205, -0.80975,
 16:30:26.819,ed:35:33:d3:6c:f8, 2015-01-01 04:41:22.885, 0.911, 0.023, 0.397, -0.61, -0.793, 0.488, 3.203, -65.896, 146.794, -23.287, -11.167, -17.520, 29.84, -0.22577, -0.52512, 0.13205, -0.80975,
 16:30:26.838,e3:ca:2d:fd:e0:8c, 2015-01-01 04:41:22.690, 0.806, 0.093, -0.603, 0.061, 0.061, 0, 171.14, -52.883, -22.654, -24.313, -14.820, 9.587, 29.22, 0.15515, 0.86844, -0.20938, 0.42163,
 16:30:26.838,e3:ca:2d:fd:e0:8c, 2015-01-01 04:41:22.690, 0.807, 0.093, -0.605, 0, 0, 0, 171.14, -52.883, -22.648, -24.313, -14.820, 9.587, 29.22, 0.15515, 0.86844, -0.20938, 0.42163,
 16:30:26.840,f6:90:cc:01:6d:25, 2015-01-01 04:41:22.890, 0.936, 0.105, -0.295, -0.061, 0.061, 0, 160.323, -71.543, 15.628, -29.393, -15.627, 8.447, 31.59, -0.05945, -0.80521, -0.00922, -0.58984,
 16:30:26.840,f6:90:cc:01:6d:25, 2015-01-01 04:41:22.890, 0.935, 0.105, -0.295, -0.122, 0.122, 0, 160.318, -71.543, 15.634, -29.393, -15.627, 8.447, 31.59, -0.05945, -0.80521, -0.00922, -0.58984,
 16:30:26.861,e3:ca:2d:fd:e0:8c, 2015-01-01 04:41:22.690, 0.807, 0.095, -0.604, 0, 0.061, 0, 171.14, -52.888, -22.643, -24.313, -14.820, 9.587, 29.22, 0.15515, 0.86844, -0.20938, 0.42163,
 16:30:26.861,e3:ca:2d:fd:e0:8c, 2015-01-01 04:41:22.690, 0.807, 0.094, -0.604, -0.244, 0.244, 0, 171.14, -52.888, -22.632, -24.313, -14.820, 9.587, 29.22, 0.15515, 0.86844, -0.20938, 0.42163,
 16:30:26.864,ed:35:33:d3:6c:f8, 2015-01-01 04:41:22.885, 0.907, 0.022, 0.396, -0.977, -0.366, -0.061, 3.181, -65.912, 146.838, -23.287, -11.167, -17.520, 29.84, -0.22577, -0.52512, 0.13205, -0.80975,
 16:30:26.864,ed:35:33:d3:6c:f8, 2015-01-01 04:41:22.885, 0.916, 0.022, 0.397, -0.732, 0.244, 0, 3.17, -65.918, 146.849, -23.287, -11.167, -17.520, 29.84, -0.22577, -0.52512, 0.13205, -0.80975,
 16:30:26.883,ed:40:fe:65:30:6c, 2015-01-01 04:41:27.870, 0.96, -0.072, 0.279, -0.122, 0.305, 0.122, -15.392, -73.306, -106.99, -28.740, -7.707, 7.493, 27.09, 0.40808, -0.54013, -0.26511, -0.68652,
 16:30:26.883,ed:40:fe:65:30:6c, 2015-01-01 04:41:27.870, 0.967, -0.073, 0.273, -0.061, -0.061, 0, -15.386, -73.306, -106.985, -28.740, -7.707, 7.493, 27.09, 0.40808, -0.54013, -0.26511, -0.68652,
 16:30:26.884,f6:90:cc:01:6d:25, 2015-01-01 04:41:22.890, 0.935, 0.107, -0.296, -0.061, 0.061, 0, 160.312, -71.543, 15.639, -29.140, -15.607, 9.393, 31.59, -0.05945, -0.80521, -0.00922, -0.58984,
 16:30:26.884,f6:90:cc:01:6d:25, 2015-01-01 04:41:22.890, 0.936, 0.104, -0.298, -0.183, 0.122, 0, 160.312, -71.548, 15.645, -29.140, -15.607, 9.393, 31.59, -0.05945, -0.80521, -0.00922, -0.58984,
 16:30:26.905,ed:40:fe:65:30:6c, 2015-01-01 04:41:27.870, 0.966, -0.075, 0.291, 0.122, 0.122, 0.061, -15.375, -73.306, -106.99, -29.340, -7.920, 8.260, 27.09, 0.40808, -0.54013, -0.26511, -0.68652,
 16:30:26.905,ed:40:fe:65:30:6c, 2015-01-01 04:41:27.870, 0.959, -0.075, 0.28, 0.183, 0.549, 0, -15.359, -73.295, -107.001, -29.340, -7.920, 8.260, 27.09, 0.40808, -0.54013, -0.26511, -0.68652,
 16:30:26.906,e3:ca:2d:fd:e0:8c, 2015-01-01 04:41:22.690, 0.81, 0.093, -0.604, -0.488, 0.244, 0, 171.129, -52.894, -22.626, -24.313, -14.820, 9.587, 29.22, 0.15515, 0.86844, -0.20938, 0.42163,
 16:30:26.906,e3:ca:2d:fd:e0:8c, 2015-01-01 04:41:22.690, 0.808, 0.095, -0.607, -0.549, 0.122, 0, 171.118, -52.899, -22.621, -24.313, -14.820, 9.587, 29.22, 0.15515, 0.86844, -0.20938, 0.42163,
 16:30:26.908,ed:35:33:d3:6c:f8, 2015-01-01 04:41:22.885, 0.913, 0.021, 0.397, 0.061, 0.61, 0, 3.164, -65.918, 146.86, -23.287, -11.167, -17.520, 29.84, -0.22577, -0.52512, 0.13205, -0.80975,
 16:30:26.908,ed:35:33:d3:6c:f8, 2015-01-01 04:41:22.885, 0.905, 0.025, 0.407, 0.305, 0.732, 0.244, 3.164, -65.912, 146.843, -23.287, -11.167, -17.520, 29.84, -0.22577, -0.52512, 0.13205, -0.80975,
 16:30:26.930,f6:90:cc:01:6d:25, 2015-01-01 04:41:22.890, 0.937, 0.104, -0.294, -0.122, 0.061, 0, 160.307, -71.548, 15.656, -29.140, -15.607, 9.393, 31.59, -0.05945, -0.80521, -0.00922, -0.58984,
 16:30:26.930,f6:90:cc:01:6d:25, 2015-01-01 04:41:22.890, 0.937, 0.102, -0.298, -0.244, 0.183, 0, 160.302, -71.548, 15.661, -29.140, -15.607, 9.393, 31.59, -0.05945, -0.80521, -0.00922, -0.58984,
 16:30:26.931,ed:35:33:d3:6c:f8, 2015-01-01 04:41:22.885, 0.91, 0.026, 0.403, 0.793, 0.488, 0.977, 3.153, -65.901, 146.832, -23.293, -10.940, -17.407, 29.84, -0.22577, -0.52512, 0.13205, -0.80975,
 16:30:26.931,ed:35:33:d3:6c:f8, 2015-01-01 04:41:22.885, 0.903, 0.032, 0.402, 0.488, 2.93, 1.831, 3.115, -65.885, 146.865, -23.293, -10.940, -17.407, 29.84, -0.22577, -0.52512, 0.13205, -0.80975,
 16:30:26.950,ed:40:fe:65:30:6c, 2015-01-01 04:41:27.870, 0.962, -0.079, 0.288, 0.671, -0.122, 0.427, -15.359, -73.295, -106.985, -29.340, -7.920, 8.260, 27.09, 0.40808, -0.54013, -0.26511, -0.68652,
 16:30:26.950,ed:40:fe:65:30:6c, 2015-01-01 04:41:27.870, 0.96, -0.075, 0.289, 0.793, -0.122, 1.343, -15.408, -73.29, -106.919, -29.340, -7.920, 8.260, 27.09, 0.40808, -0.54013, -0.26511, -0.68652,
 16:30:26.952,f6:90:cc:01:6d:25, 2015-01-01 04:41:22.890, 0.936, 0.1, -0.296, -0.61, 0, 0, 160.296, -71.548, 15.667, -29.140, -15.607, 9.393, 31.59, -0.05896, -0.80548, -0.00986, -0.58951,
 16:30:26.952,f6:90:cc:01:6d:25, 2015-01-01 04:41:22.890, 0.935, 0.101, -0.291, -0.793, -0.183, -0.366, 160.274, -71.543, 15.683, -29.140, -15.607, 9.393, 31.59, -0.05896, -0.80548, -0.00986, -0.58951,
 16:30:26.974,e3:ca:2d:fd:e0:8c, 2015-01-01 04:41:22.690, 0.808, 0.095, -0.605, -1.16, 0.366, 0, 171.096, -52.905, -22.604, -24.313, -14.820, 9.587, 29.22, 0.15515, 0.86844, -0.20938, 0.42163,
 16:30:26.974,e3:ca:2d:fd:e0:8c, 2015-01-01 04:41:22.690, 0.811, 0.092, -0.598, -1.77, 0.305, 0, 171.063, -52.91, -22.577, -24.313, -14.820, 9.587, 29.22, 0.15515, 0.86844, -0.20938, 0.42163,
 16:30:26.976,ed:35:33:d3:6c:f8, 2015-01-01 04:41:22.885, 0.903, 0.031, 0.41, -0.183, 3.967, 2.686, 3.032, -65.825, 146.953, -23.293, -10.940, -17.407, 29.84, -0.22577, -0.52512, 0.13205, -0.80975,
 16:30:26.976,ed:35:33:d3:6c:f8, 2015-01-01 04:41:22.885, 0.905, 0.026, 0.405, -1.526, 3.601, 3.174, 2.895, -65.753, 147.09, -23.293, -10.940, -17.407, 29.84, -0.22577, -0.52512, 0.13205, -0.80975,
 16:30:26.996,e3:ca:2d:fd:e0:8c, 2015-01-01 04:41:22.690, 0.81, 0.097, -0.603, -2.136, 0, -0.732, 171.008, -52.91, -22.544, -24.013, -15.427, 9.013, 29.22, 0.15515, 0.86844, -0.20938, 0.42163,
 16:30:26.996,e3:ca:2d:fd:e0:8c, 2015-01-01 04:41:22.690, 0.805, 0.099, -0.606, -2.075, 0.122, -1.404, 170.936, -52.905, -22.484, -24.013, -15.427, 9.013, 29.22, 0.15515, 0.86844, -0.20938, 0.42163,
 16:30:26.998,f6:90:cc:01:6d:25, 2015-01-01 04:41:22.890, 0.937, 0.106, -0.293, -0.977, -0.366, -0.488, 160.247, -71.537, 15.705, -29.140, -15.607, 9.393, 31.59, -0.05896, -0.80548, -0.00986, -0.58951,
 16:30:26.998,f6:90:cc:01:6d:25, 2015-01-01 04:41:22.890, 0.932, 0.109, -0.296, -1.282, -0.488, -0.427, 160.208, -71.526, 15.705, -29.140, -15.607, 9.393, 31.59, -0.05896, -0.80548, -0.00986, -0.58951,
 16:30:27.017,ed:40:fe:65:30:6c, 2015-01-01 04:41:27.870, 0.957, -0.072, 0.287, 0.793, -0.854, 2.136, -15.524, -73.29, -106.787, -29.340, -7.920, 8.260, 27.09, 0.40906, -0.53925, -0.26569, -0.68643,
 16:30:27.017,ed:40:fe:65:30:6c, 2015-01-01 04:41:27.870, 0.958, -0.071, 0.284, 0.854, -1.465, 2.563, -15.672, -73.295, -106.611, -29.340, -7.920, 8.260, 27.09, 0.40906, -0.53925, -0.26569, -0.68643,
 16:30:27.019,f6:90:cc:01:6d:25, 2015-01-01 04:41:23.270, 0.936, 0.108, -0.293, -1.16, -0.427, 0, 160.186, -71.516, 15.667, -29.140, -15.607, 9.393, 31.59, -0.05896, -0.80548, -0.00986, -0.58951,
 16:30:27.019,f6:90:cc:01:6d:25, 2015-01-01 04:41:23.270, 0.934, 0.108, -0.289, -0.854, -0.61, -0.061, 160.175, -71.505, 15.628, -29.140, -15.607, 9.393, 31.59, -0.05896, -0.80548, -0.00986, -0.58951,
 16:30:27.021,ed:35:33:d3:6c:f8, 2015-01-01 04:41:22.885, 0.914, 0.021, 0.399, -2.014, 3.235, 2.625, 2.73, -65.693, 147.233, -23.293, -10.940, -17.407, 29.84, -0.22473, -0.52676, 0.13321, -0.80881,
 16:30:27.021,ed:35:33:d3:6c:f8, 2015-01-01 04:41:22.885, 0.902, 0.016, 0.396, -1.038, 2.625, 3.113, 2.582, -65.638, 147.36, -23.293, -10.940, -17.407, 29.84, -0.22473, -0.52676, 0.13321, -0.80881,
 16:30:27.042,e3:ca:2d:fd:e0:8c, 2015-01-01 04:41:22.690, 0.803, 0.096, -0.602, -2.258, 0.793, -1.038, 170.859, -52.916, -22.423, -24.013, -15.427, 9.013, 29.22, 0.15515, 0.86844, -0.20938, 0.42163,
 16:30:27.042,e3:ca:2d:fd:e0:8c, 2015-01-01 04:41:22.690, 0.807, 0.092, -0.597, -1.404, 0.244, 0, 170.821, -52.921, -22.423, -24.013, -15.427, 9.013, 29.22, 0.15515, 0.86844, -0.20938, 0.42163,
 16:30:27.062,ed:40:fe:65:30:6c, 2015-01-01 04:41:28.205, 0.97, -0.068, 0.268, -0.061, -3.113, 2.38, -15.859, -73.334, -106.403, -29.340, -7.920, 8.260, 27.09, 0.40906, -0.53925, -0.26569, -0.68643,
 16:30:27.062,ed:40:fe:65:30:6c, 2015-01-01 04:41:28.205, 0.961, -0.082, 0.29, 0.488, -2.625, 2.441, -16.04, -73.372, -106.183, -29.340, -7.920, 8.260, 27.09, 0.40906, -0.53925, -0.26569, -0.68643,
 16:30:27.064,e3:ca:2d:fd:e0:8c, 2015-01-01 04:41:22.690, 0.805, 0.09, -0.596, -0.61, -0.244, 0.244, 170.815, -52.921, -22.44, -24.013, -15.427, 9.013, 29.22, 0.15665, 0.86835, -0.2085, 0.42175,
 16:30:27.064,e3:ca:2d:fd:e0:8c, 2015-01-01 04:41:22.690, 0.81, 0.093, -0.596, -0.427, -0.244, 0, 170.81, -52.916, -22.462, -24.013, -15.427, 9.013, 29.22, 0.15665, 0.86835, -0.2085, 0.42175,
 16:30:27.064,f6:90:cc:01:6d:25, 2015-01-01 04:41:23.270, 0.935, 0.105, -0.292, -0.793, -0.366, 0, 160.164, -71.494, 15.606, -29.140, -15.607, 9.393, 31.59, -0.05896, -0.80548, -0.00986, -0.58951,
 16:30:27.065,f6:90:cc:01:6d:25, 2015-01-01 04:41:23.270, 0.935, 0.106, -0.291, -0.671, -0.061, 0.061, 160.159, -71.494, 15.562, -29.140, -15.607, 9.393, 31.59, -0.05896, -0.80548, -0.00986, -0.58951,
 16:30:27.066,ed:35:33:d3:6c:f8, 2015-01-01 04:41:23.195, 0.907, 0.01, 0.4, -1.038, 1.953, 2.625, 2.433, -65.599, 147.502, -23.293, -10.940, -17.407, 29.84, -0.22473, -0.52676, 0.13321, -0.80881,
 16:30:27.066,ed:35:33:d3:6c:f8, 2015-01-01 04:41:23.195, 0.914, 0.014, 0.399, -0.488, 0.793, 1.587, 2.318, -65.572, 147.618, -23.293, -10.940, -17.407, 29.84, -0.22473, -0.52676, 0.13321, -0.80881,
 16:30:27.086,ed:40:fe:65:30:6c, 2015-01-01 04:41:28.205, 0.959, -0.076, 0.273, 1.16, 0.122, 2.075, -16.155, -73.367, -106.035, -29.340, -7.920, 8.260, 27.09, 0.40906, -0.53925, -0.26569, -0.68643,
 16:30:27.086,ed:40:fe:65:30:6c, 2015-01-01 04:41:28.205, 0.968, -0.075, 0.275, 0.671, 0.977, 1.587, -16.221, -73.339, -105.963, -29.340, -7.920, 8.260, 27.09, 0.40906, -0.53925, -0.26569, -0.68643,
 16:30:27.107,ed:40:fe:65:30:6c, 2015-01-01 04:41:28.205, 0.963, -0.078, 0.276, 0.732, 1.709, 1.343, -16.254, -73.301, -105.941, -29.340, -7.920, 8.260, 27.09, 0.40906, -0.53925, -0.26569, -0.68643,
 16:30:27.107,ed:40:fe:65:30:6c, 2015-01-01 04:41:28.205, 0.96, -0.08, 0.276, 0.732, 1.16, 0.793, -16.26, -73.273, -105.947, -29.340, -7.920, 8.260, 27.09, 0.40906, -0.53925, -0.26569, -0.68643,
 16:30:27.109,e3:ca:2d:fd:e0:8c, 2015-01-01 04:41:22.690, 0.809, 0.102, -0.6, 0.305, -0.427, 0, 170.815, -52.91, -22.478, -24.013, -15.427, 9.013, 29.22, 0.15665, 0.86835, -0.2085, 0.42175,
 16:30:27.109,e3:ca:2d:fd:e0:8c, 2015-01-01 04:41:22.690, 0.807, 0.104, -0.598, 0.305, -0.427, 0.244, 170.832, -52.905, -22.495, -24.013, -15.427, 9.013, 29.22, 0.15665, 0.86835, -0.2085, 0.42175,
 16:30:27.109,f6:90:cc:01:6d:25, 2015-01-01 04:41:23.270, 0.935, 0.108, -0.292, -0.488, 0.183, 0.122, 160.148, -71.494, 15.535, -29.140, -15.607, 9.393, 31.59, -0.05896, -0.80548, -0.00986, -0.58951,
 16:30:27.109,f6:90:cc:01:6d:25, 2015-01-01 04:41:23.270, 0.936, 0.107, -0.298, -0.122, 0.305, 0.061, 160.142, -71.499, 15.513, -29.140, -15.607, 9.393, 31.59, -0.05896, -0.80548, -0.00986, -0.58951,
 16:30:27.112,ed:35:33:d3:6c:f8, 2015-01-01 04:41:23.195, 0.907, 0.008, 0.4, 0.732, 0.793, 1.648, 2.247, -65.566, 147.706, -23.293, -10.940, -17.407, 29.84, -0.22473, -0.52676, 0.13321, -0.80881,
 16:30:27.112,ed:35:33:d3:6c:f8, 2015-01-01 04:41:23.195, 0.903, 0.009, 0.404, 1.038, 1.343, 0.61, 2.208, -65.555, 147.761, -23.293, -10.940, -17.407, 29.84, -0.22473, -0.52676, 0.13321, -0.80881,
 16:30:27.134,ed:35:33:d3:6c:f8, 2015-01-01 04:41:23.195, 0.914, 0.012, 0.412, 0.671, 0.427, 0.244, 2.203, -65.539, 147.766, -23.293, -10.940, -17.407, 29.84, -0.22473, -0.52676, 0.13321, -0.80881,
 16:30:27.134,ed:35:33:d3:6c:f8, 2015-01-01 04:41:23.195, 0.909, 0.015, 0.411, 0.793, 0.305, -0.122, 2.208, -65.539, 147.755, -23.293, -10.940, -17.407, 29.84, -0.22473, -0.52676, 0.13321, -0.80881,
 16:30:27.153,e3:ca:2d:fd:e0:8c, 2015-01-01 04:41:23.050, 0.807, 0.106, -0.605, 0, 0, 0.305, 170.837, -52.905, -22.516, -24.013, -15.427, 9.013, 29.22, 0.15665, 0.86835, -0.2085, 0.42175,
 16:30:27.153,e3:ca:2d:fd:e0:8c, 2015-01-01 04:41:23.050, 0.81, 0.103, -0.606, -0.061, 0.061, 0.061, 170.837, -52.905, -22.522, -24.013, -15.427, 9.013, 29.22, 0.15665, 0.86835, -0.2085, 0.42175,
 16:30:27.154,ed:40:fe:65:30:6c, 2015-01-01 04:41:28.205, 0.966, -0.08, 0.284, 0.427, 1.16, 0.488, -16.249, -73.246, -105.969, -29.340, -7.920, 8.260, 27.09, 0.40906, -0.53925, -0.26569, -0.68643,
 16:30:27.154,ed:40:fe:65:30:6c, 2015-01-01 04:41:28.205, 0.968, -0.078, 0.283, 0.549, 0.916, 0.122, -16.221, -73.229, -106.007, -29.340, -7.920, 8.260, 27.09, 0.40906, -0.53925, -0.26569, -0.68643,
 16:30:27.155,f6:90:cc:01:6d:25, 2015-01-01 04:41:23.270, 0.937, 0.109, -0.296, 0, 0.427, 0.061, 160.137, -71.51, 15.507, -29.140, -15.607, 9.393, 31.59, -0.05896, -0.80548, -0.00986, -0.58951,
 16:30:27.155,f6:90:cc:01:6d:25, 2015-01-01 04:41:23.270, 0.937, 0.109, -0.292, 0.183, 0.183, 0, 160.131, -71.516, 15.524, -29.140, -15.607, 9.393, 31.59, -0.05896, -0.80548, -0.00986, -0.58951,
 16:30:27.177,f6:90:cc:01:6d:25, 2015-01-01 04:41:23.270, 0.936, 0.109, -0.299, 0.305, 0, 0.061, 160.137, -71.516, 15.529, -29.140, -15.607, 9.393, 31.59, -0.05896, -0.80548, -0.00986, -0.58951,
 16:30:27.177,f6:90:cc:01:6d:25, 2015-01-01 04:41:23.270, 0.935, 0.108, -0.296, 0.488, -0.122, 0.122, 160.153, -71.516, 15.529, -29.140, -15.607, 9.393, 31.59, -0.05896, -0.80548, -0.00986, -0.58951,
 16:30:27.178,ed:35:33:d3:6c:f8, 2015-01-01 04:41:23.195, 0.903, 0.015, 0.412, 0.916, 0.671, -0.122, 2.23, -65.533, 147.75, -23.293, -10.940, -17.407, 29.84, -0.22473, -0.52676, 0.13321, -0.80881,
 16:30:27.178,ed:35:33:d3:6c:f8, 2015-01-01 04:41:23.195, 0.901, 0.013, 0.412, 0.305, 0.671, -0.793, 2.252, -65.528, 147.733, -23.293, -10.940, -17.407, 29.84, -0.22473, -0.52676, 0.13321, -0.80881,
 16:30:27.200,e3:ca:2d:fd:e0:8c, 2015-01-01 04:41:23.050, 0.81, 0.102, -0.607, 0.122, 0.122, 0, 170.837, -52.91, -22.522, -24.013, -15.427, 9.013, 29.22, 0.15665, 0.86835, -0.2085, 0.42175,
 16:30:27.200,e3:ca:2d:fd:e0:8c, 2015-01-01 04:41:23.050, 0.806, 0.098, -0.604, 0.183, 0.366, 0, 170.837, -52.916, -22.533, -24.013, -15.427, 9.013, 29.22, 0.15665, 0.86835, -0.2085, 0.42175,
 16:30:27.220,ed:40:fe:65:30:6c, 2015-01-01 04:41:28.205, 0.962, -0.076, 0.283, 0.488, -0.366, 0, -16.205, -73.235, -106.024, -29.340, -7.920, 8.260, 27.09, 0.40906, -0.53925, -0.26569, -0.68643,
 16:30:27.220,ed:40:fe:65:30:6c, 2015-01-01 04:41:28.205, 0.959, -0.078, 0.284, 0.061, -1.099, -0.305, -16.199, -73.257, -106.035, -29.340, -7.920, 8.260, 27.09, 0.40906, -0.53925, -0.26569, -0.68643,
 16:30:27.223,f6:90:cc:01:6d:25, 2015-01-01 04:41:23.270, 0.934, 0.105, -0.292, 0.549, -0.061, 0.122, 160.17, -71.51, 15.546, -29.140, -15.607, 9.393, 31.59, -0.05896, -0.80548, -0.00986, -0.58951,
 16:30:27.223,f6:90:cc:01:6d:25, 2015-01-01 04:41:23.270, 0.934, 0.104, -0.294, 0.671, 0, 0.122, 160.186, -71.51, 15.568, -29.140, -15.607, 9.393, 31.59, -0.05896, -0.80548, -0.00986, -0.58951,
 16:30:27.225,ed:35:33:d3:6c:f8, 2015-01-01 04:41:23.195, 0.902, 0.015, 0.407, -0.061, 0.366, -1.038, 2.296, -65.517, 147.689, -23.293, -10.940, -17.407, 29.84, -0.22473, -0.52676, 0.13321, -0.80881,
 16:30:27.225,ed:35:33:d3:6c:f8, 2015-01-01 04:41:23.195, 0.901, 0.015, 0.409, 0.244, 0.305, -0.732, 2.335, -65.517, 147.629, -23.293, -10.940, -17.407, 29.84, -0.22473, -0.52676, 0.13321, -0.80881,
 16:30:27.243,e3:ca:2d:fd:e0:8c, 2015-01-01 04:41:23.050, 0.803, 0.096, -0.602, 0.183, 0.305, 0.183, 170.843, -52.921, -22.544, -24.013, -15.427, 9.013, 29.22, 0.15665, 0.86835, -0.2085, 0.42175,
 16:30:27.243,e3:ca:2d:fd:e0:8c, 2015-01-01 04:41:23.050, 0.806, 0.093, -0.599, 0, 0.366, 0.183, 170.843, -52.932, -22.555, -24.013, -15.427, 9.013, 29.22, 0.15665, 0.86835, -0.2085, 0.42175,
 16:30:27.243,ed:40:fe:65:30:6c, 2015-01-01 04:41:28.205, 0.958, -0.079, 0.283, -0.366, -0.854, -0.61, -16.172, -73.273, -106.068, -29.493, -7.513, 7.707, 27.09, 0.40906, -0.53925, -0.26569, -0.68643,
 16:30:27.243,ed:40:fe:65:30:6c, 2015-01-01 04:41:28.205, 0.958, -0.081, 0.28, -0.122, -0.549, -0.549, -16.139, -73.284, -106.1, -29.493, -7.513, 7.707, 27.09, 0.40906, -0.53925, -0.26569, -0.68643,
 16:30:27.267,e3:ca:2d:fd:e0:8c, 2015-01-01 04:41:23.050, 0.809, 0.095, -0.599, -0.244, 0.122, 0.122, 170.837, -52.932, -22.555, -24.013, -15.427, 9.013, 29.22, 0.15665, 0.86835, -0.2085, 0.42175,
 16:30:27.267,e3:ca:2d:fd:e0:8c, 2015-01-01 04:41:23.050, 0.807, 0.095, -0.601, 0.244, 0, 0.122, 170.848, -52.932, -22.555, -24.013, -15.427, 9.013, 29.22, 0.15665, 0.86835, -0.2085, 0.42175,
 16:30:27.268,ed:35:33:d3:6c:f8, 2015-01-01 04:41:23.195, 0.901, 0.016, 0.403, 0.977, -0.671, -0.732, 2.373, -65.522, 147.557, -23.200, -10.733, -17.920, 29.84, -0.22473, -0.52676, 0.13321, -0.80881,
 16:30:27.268,ed:35:33:d3:6c:f8, 2015-01-01 04:41:23.195, 0.904, 0.016, 0.406, 1.343, -0.305, -0.61, 2.422, -65.533, 147.48, -23.200, -10.733, -17.920, 29.84, -0.22473, -0.52676, 0.13321, -0.80881,
 16:30:27.287,ed:40:fe:65:30:6c, 2015-01-01 04:41:28.205, 0.957, -0.078, 0.282, 0.061, 0, -0.549, -16.095, -73.29, -106.144, -29.493, -7.513, 7.707, 27.09, 0.40906, -0.53925, -0.26569, -0.68643,
 16:30:27.287,ed:40:fe:65:30:6c, 2015-01-01 04:41:28.205, 0.955, -0.079, 0.279, 0.549, 0.61, -0.427, -16.04, -73.273, -106.205, -29.493, -7.513, 7.707, 27.09, 0.40906, -0.53925, -0.26569, -0.68643,
 16:30:27.289,f6:90:cc:01:6d:25, 2015-01-01 04:41:23.270, 0.935, 0.104, -0.291, 0.671, 0, 0.061, 160.203, -71.51, 15.579, -29.107, -15.793, 8.980, 31.59, -0.05896, -0.80548, -0.00986, -0.58951,
 16:30:27.289,f6:90:cc:01:6d:25, 2015-01-01 04:41:23.270, 0.934, 0.105, -0.296, 0.488, 0.122, 0.061, 160.214, -71.516, 15.59, -29.107, -15.793, 8.980, 31.59, -0.05896, -0.80548, -0.00986, -0.58951,
 16:30:27.309,ed:40:fe:65:30:6c, 2015-01-01 04:41:28.205, 0.965, -0.078, 0.27, 0.671, -0.305, -0.366, -16.007, -73.284, -106.243, -29.493, -7.513, 7.707, 27.09, 0.41031, -0.53979, -0.26523, -0.68542,
 16:30:27.309,ed:40:fe:65:30:6c, 2015-01-01 04:41:28.205, 0.964, -0.083, 0.29, 0.916, 0.854, 0, -15.969, -73.262, -106.276, -29.493, -7.513, 7.707, 27.09, 0.41031, -0.53979, -0.26523, -0.68542,
 16:30:27.312,f6:90:cc:01:6d:25, 2015-01-01 04:41:23.270, 0.936, 0.103, -0.295, 0.183, 0.183, 0.122, 160.225, -71.516, 15.59, -29.107, -15.793, 8.980, 31.59, -0.05994, -0.8056, -0.009, -0.58926,
 16:30:27.312,f6:90:cc:01:6d:25, 2015-01-01 04:41:23.270, 0.936, 0.102, -0.294, -0.061, 0.061, 0.061, 160.225, -71.521, 15.595, -29.107, -15.793, 8.980, 31.59, -0.05994, -0.8056, -0.009, -0.58926,
 16:30:27.313,ed:35:33:d3:6c:f8, 2015-01-01 04:41:23.195, 0.908, 0.019, 0.406, 0.977, 0.549, -0.122, 2.461, -65.533, 147.437, -23.200, -10.733, -17.920, 29.84, -0.22446, -0.52444, 0.13431, -0.81018,
 16:30:27.313,ed:35:33:d3:6c:f8, 2015-01-01 04:41:23.195, 0.908, 0.013, 0.413, 0.61, 0.305, 0.305, 2.466, -65.528, 147.426, -23.200, -10.733, -17.920, 29.84, -0.22446, -0.52444, 0.13431, -0.81018,
 16:30:27.333,e3:ca:2d:fd:e0:8c, 2015-01-01 04:41:23.050, 0.807, 0.092, -0.6, 0.366, -0.061, 0.244, 170.859, -52.932, -22.555, -24.013, -15.427, 9.013, 29.22, 0.15665, 0.86835, -0.2085, 0.42175,
 16:30:27.333,e3:ca:2d:fd:e0:8c, 2015-01-01 04:41:23.050, 0.811, 0.092, -0.603, 0.244, 0.061, 0.061, 170.87, -52.932, -22.56, -24.013, -15.427, 9.013, 29.22, 0.15665, 0.86835, -0.2085, 0.42175,
 16:30:27.336,ed:35:33:d3:6c:f8, 2015-01-01 04:41:23.485, 0.909, 0.015, 0.411, 0.366, -0.488, 0, 2.466, -65.533, 147.415, -23.200, -10.733, -17.920, 29.84, -0.22446, -0.52444, 0.13431, -0.81018,
 16:30:27.336,ed:35:33:d3:6c:f8, 2015-01-01 04:41:23.485, 0.909, 0.018, 0.409, 0.427, 0.122, 0.061, 2.472, -65.539, 147.398, -23.200, -10.733, -17.920, 29.84, -0.22446, -0.52444, 0.13431, -0.81018,
 16:30:27.355,ed:40:fe:65:30:6c, 2015-01-01 04:41:28.205, 0.962, -0.077, 0.283, 0.61, 0.916, -0.061, -15.93, -73.246, -106.304, -29.493, -7.513, 7.707, 27.09, 0.41031, -0.53979, -0.26523, -0.68542,
 16:30:27.355,ed:40:fe:65:30:6c, 2015-01-01 04:41:28.205, 0.965, -0.079, 0.283, 0.549, 0.61, -0.122, -15.897, -73.229, -106.331, -29.493, -7.513, 7.707, 27.09, 0.41031, -0.53979, -0.26523, -0.68542,
 16:30:27.356,e3:ca:2d:fd:e0:8c, 2015-01-01 04:41:23.050, 0.812, 0.094, -0.604, 0.061, 0, -0.122, 170.87, -52.932, -22.571, -23.793, -15.253, 7.867, 29.22, 0.15665, 0.86835, -0.2085, 0.42175,
 16:30:27.356,e3:ca:2d:fd:e0:8c, 2015-01-01 04:41:23.050, 0.81, 0.1, -0.604, 0, 0.122, -0.122, 170.865, -52.938, -22.577, -23.793, -15.253, 7.867, 29.22, 0.15665, 0.86835, -0.2085, 0.42175,
 16:30:27.378,ed:40:fe:65:30:6c, 2015-01-01 04:41:28.540, 0.966, -0.079, 0.286, 0.549, 0.122, 0, -15.881, -73.229, -106.337, -29.493, -7.513, 7.707, 27.09, 0.41031, -0.53979, -0.26523, -0.68542,
 16:30:27.378,ed:40:fe:65:30:6c, 2015-01-01 04:41:28.540, 0.96, -0.077, 0.283, 0.488, -1.221, 0.244, -15.908, -73.246, -106.304, -29.493, -7.513, 7.707, 27.09, 0.41031, -0.53979, -0.26523, -0.68542,
 16:30:27.380,f6:90:cc:01:6d:25, 2015-01-01 04:41:23.270, 0.937, 0.103, -0.295, 0.061, 0, 0, 160.23, -71.521, 15.606, -29.107, -15.793, 8.980, 31.59, -0.05994, -0.8056, -0.009, -0.58926,
 16:30:27.380,f6:90:cc:01:6d:25, 2015-01-01 04:41:23.270, 0.936, 0.105, -0.295, 0.122, -0.183, -0.122, 160.23, -71.516, 15.606, -29.107, -15.793, 8.980, 31.59, -0.05994, -0.8056, -0.009, -0.58926,
 16:30:27.381,ed:35:33:d3:6c:f8, 2015-01-01 04:41:23.485, 0.908, 0.019, 0.413, 0.732, 1.099, 0.427, 2.472, -65.528, 147.42, -23.200, -10.733, -17.920, 29.84, -0.22446, -0.52444, 0.13431, -0.81018,
 16:30:27.381,ed:35:33:d3:6c:f8, 2015-01-01 04:41:23.485, 0.901, 0.028, 0.41, 0.916, 1.526, 1.038, 2.45, -65.506, 147.469, -23.200, -10.733, -17.920, 29.84, -0.22446, -0.52444, 0.13431, -0.81018,
 16:30:27.401,e3:ca:2d:fd:e0:8c, 2015-01-01 04:41:23.050, 0.809, 0.101, -0.6, -0.671, 0.122, -0.061, 170.848, -52.938, -22.588, -23.793, -15.253, 7.867, 29.22, 0.15665, 0.86835, -0.2085, 0.42175,
 16:30:27.401,e3:ca:2d:fd:e0:8c, 2015-01-01 04:41:23.050, 0.807, 0.1, -0.599, -0.916, 0.244, -0.244, 170.826, -52.943, -22.588, -23.793, -15.253, 7.867, 29.22, 0.15665, 0.86835, -0.2085, 0.42175,
 16:30:27.404,f6:90:cc:01:6d:25, 2015-01-01 04:41:23.625, 0.936, 0.105, -0.293, -0.061, -0.061, -0.183, 160.225, -71.516, 15.612, -29.107, -15.793, 8.980, 31.59, -0.05994, -0.8056, -0.009, -0.58926,
 16:30:27.404,f6:90:cc:01:6d:25, 2015-01-01 04:41:23.625, 0.935, 0.103, -0.295, -0.244, -0.061, -0.244, 160.214, -71.51, 15.623, -29.107, -15.793, 8.980, 31.59, -0.05994, -0.8056, -0.009, -0.58926,
 16:30:27.423,ed:40:fe:65:30:6c, 2015-01-01 04:41:28.540, 0.962, -0.071, 0.286, 0.488, -1.526, 0.916, -15.974, -73.268, -106.221, -29.493, -7.513, 7.707, 27.09, 0.41031, -0.53979, -0.26523, -0.68542,
 16:30:27.423,ed:40:fe:65:30:6c, 2015-01-01 04:41:28.540, 0.966, -0.074, 0.281, 0.305, -1.038, 1.038, -16.046, -73.279, -106.139, -29.493, -7.513, 7.707, 27.09, 0.41031, -0.53979, -0.26523, -0.68542,
 16:30:27.425,f6:90:cc:01:6d:25, 2015-01-01 04:41:23.625, 0.935, 0.106, -0.294, -0.183, -0.244, -0.244, 160.203, -71.505, 15.645, -29.107, -15.793, 8.980, 31.59, -0.05994, -0.8056, -0.009, -0.58926,
 16:30:27.425,f6:90:cc:01:6d:25, 2015-01-01 04:41:23.625, 0.935, 0.11, -0.298, -0.122, -0.427, -0.244, 160.197, -71.499, 15.661, -29.107, -15.793, 8.980, 31.59, -0.05994, -0.8056, -0.009, -0.58926,
 16:30:27.427,ed:35:33:d3:6c:f8, 2015-01-01 04:41:23.485, 0.909, 0.023, 0.409, 1.038, 1.404, 1.648, 2.411, -65.479, 147.535, -23.200, -10.733, -17.920, 29.84, -0.22446, -0.52444, 0.13431, -0.81018,
 16:30:27.427,ed:35:33:d3:6c:f8, 2015-01-01 04:41:23.485, 0.908, 0.018, 0.408, 0.061, 0.916, 1.404, 2.357, -65.457, 147.601, -23.200, -10.733, -17.920, 29.84, -0.22446, -0.52444, 0.13431, -0.81018,
 16:30:27.467,ed:40:fe:65:30:6c, 2015-01-01 04:41:28.540, 0.96, -0.073, 0.278, -0.122, -1.282, 0.61, -16.1, -73.301, -106.089, -29.493, -7.513, 7.707, 27.09, 0.41031, -0.53979, -0.26523, -0.68542,
 16:30:27.467,ed:40:fe:65:30:6c, 2015-01-01 04:41:28.540, 0.96, -0.077, 0.279, -0.061, -1.282, 0.488, -16.144, -73.317, -106.057, -29.493, -7.513, 7.707, 27.09, 0.41031, -0.53979, -0.26523, -0.68542,
 16:30:27.469,e3:ca:2d:fd:e0:8c, 2015-01-01 04:41:23.050, 0.807, 0.095, -0.605, -1.038, 0.305, -0.671, 170.782, -52.949, -22.577, -23.793, -15.253, 7.867, 29.22, 0.1572, 0.86798, -0.20972, 0.42169,
 16:30:27.469,e3:ca:2d:fd:e0:8c, 2015-01-01 04:41:23.050, 0.808, 0.096, -0.603, -0.854, 0.305, -0.488, 170.755, -52.954, -22.571, -23.793, -15.253, 7.867, 29.22, 0.1572, 0.86798, -0.20972, 0.42169,
 16:30:27.469,f6:90:cc:01:6d:25, 2015-01-01 04:41:23.625, 0.935, 0.109, -0.295, -0.061, -0.549, -0.122, 160.197, -71.488, 15.661, -29.107, -15.793, 8.980, 31.59, -0.05994, -0.8056, -0.009, -0.58926,
 16:30:27.470,f6:90:cc:01:6d:25, 2015-01-01 04:41:23.625, 0.934, 0.107, -0.295, -0.305, -0.366, -0.061, 160.197, -71.477, 15.667, -29.107, -15.793, 8.980, 31.59, -0.05994, -0.8056, -0.009, -0.58926,
 16:30:27.475,ed:35:33:d3:6c:f8, 2015-01-01 04:41:23.485, 0.9, 0.017, 0.408, -0.671, 0.916, 0.916, 2.302, -65.446, 147.662, -23.200, -10.733, -17.920, 29.84, -0.22446, -0.52444, 0.13431, -0.81018,
 16:30:27.475,ed:35:33:d3:6c:f8, 2015-01-01 04:41:23.485, 0.904, 0.015, 0.409, -0.305, 0.244, 0.793, 2.258, -65.435, 147.684, -23.200, -10.733, -17.920, 29.84, -0.22446, -0.52444, 0.13431, -0.81018,
 16:30:27.492,e3:ca:2d:fd:e0:8c, 2015-01-01 04:41:23.050, 0.806, 0.098, -0.6, -0.305, 0.183, -0.061, 170.75, -52.96, -22.582, -23.793, -15.253, 7.867, 29.22, 0.1572, 0.86798, -0.20972, 0.42169,
 16:30:27.492,e3:ca:2d:fd:e0:8c, 2015-01-01 04:41:23.050, 0.805, 0.097, -0.596, -0.488, 0.244, 0.061, 170.739, -52.965, -22.588, -23.793, -15.253, 7.867, 29.22, 0.1572, 0.86798, -0.20972, 0.42169,
 16:30:27.512,ed:40:fe:65:30:6c, 2015-01-01 04:41:28.540, 0.963, -0.077, 0.28, 0.305, -0.793, 0.427, -16.166, -73.328, -106.035, -29.493, -7.513, 7.707, 27.09, 0.41031, -0.53979, -0.26523, -0.68542,
 16:30:27.512,ed:40:fe:65:30:6c, 2015-01-01 04:41:28.540, 0.965, -0.078, 0.278, 0.671, -0.427, 0.61, -16.188, -73.334, -106.002, -29.493, -7.513, 7.707, 27.09, 0.41031, -0.53979, -0.26523, -0.68542,
 16:30:27.516,ed:35:33:d3:6c:f8, 2015-01-01 04:41:23.485, 0.907, 0.016, 0.404, 0.488, -0.061, 0.916, 2.225, -65.44, 147.7, -23.200, -10.733, -17.920, 29.84, -0.22446, -0.52444, 0.13431, -0.81018,
 16:30:27.516,ed:35:33:d3:6c:f8, 2015-01-01 04:41:23.485, 0.91, 0.014, 0.405, 0.793, 0.061, 0.854, 2.203, -65.44, 147.7, -23.200, -10.733, -17.920, 29.84, -0.22446, -0.52444, 0.13431, -0.81018,
 16:30:27.516,f6:90:cc:01:6d:25, 2015-01-01 04:41:23.625, 0.935, 0.105, -0.292, -0.183, -0.183, 0, 160.197, -71.472, 15.683, -29.107, -15.793, 8.980, 31.59, -0.05994, -0.8056, -0.009, -0.58926,
 16:30:27.516,f6:90:cc:01:6d:25, 2015-01-01 04:41:23.625, 0.935, 0.107, -0.294, -0.122, -0.061, 0, 160.192, -71.472, 15.699, -29.107, -15.793, 8.980, 31.59, -0.05994, -0.8056, -0.009, -0.58926,
 16:30:27.537,f6:90:cc:01:6d:25, 2015-01-01 04:41:23.625, 0.936, 0.107, -0.297, -0.061, 0, 0, 160.192, -71.472, 15.71, -29.107, -15.793, 8.980, 31.59, -0.05994, -0.8056, -0.009, -0.58926,
 16:30:27.537,f6:90:cc:01:6d:25, 2015-01-01 04:41:23.625, 0.935, 0.106, -0.296, 0, -0.061, 0, 160.192, -71.472, 15.71, -29.107, -15.793, 8.980, 31.59, -0.05994, -0.8056, -0.009, -0.58926,
 16:30:27.537,e3:ca:2d:fd:e0:8c, 2015-01-01 04:41:23.050, 0.807, 0.097, -0.598, -0.854, 0.244, 0, 170.722, -52.971, -22.577, -23.793, -15.253, 7.867, 29.22, 0.1572, 0.86798, -0.20972, 0.42169,
 16:30:27.537,e3:ca:2d:fd:e0:8c, 2015-01-01 04:41:23.050, 0.81, 0.098, -0.601, -0.549, 0.061, 0.061, 170.711, -52.971, -22.582, -23.793, -15.253, 7.867, 29.22, 0.1572, 0.86798, -0.20972, 0.42169,
 16:30:27.539,ed:35:33:d3:6c:f8, 2015-01-01 04:41:23.485, 0.908, 0.013, 0.409, 0.427, 0.427, 0.488, 2.186, -65.44, 147.689, -23.580, -10.693, -17.600, 29.84, -0.22446, -0.52444, 0.13431, -0.81018,
 16:30:27.539,ed:35:33:d3:6c:f8, 2015-01-01 04:41:23.485, 0.905, 0.014, 0.409, -0.122, 0, 0.244, 2.175, -65.44, 147.689, -23.580, -10.693, -17.600, 29.84, -0.22446, -0.52444, 0.13431, -0.81018,
 16:30:27.558,ed:40:fe:65:30:6c, 2015-01-01 04:41:28.540, 0.966, -0.077, 0.277, 0.61, -0.366, 0.305, -16.194, -73.334, -105.996, -29.493, -7.513, 7.707, 27.09, 0.41031, -0.53979, -0.26523, -0.68542,
 16:30:27.558,ed:40:fe:65:30:6c, 2015-01-01 04:41:28.540, 0.964, -0.079, 0.276, 0.61, -0.732, 0.122, -16.194, -73.35, -105.996, -29.493, -7.513, 7.707, 27.09, 0.41031, -0.53979, -0.26523, -0.68542,
 16:30:27.558,e3:ca:2d:fd:e0:8c, 2015-01-01 04:41:23.050, 0.81, 0.1, -0.601, -0.305, -0.061, 0.122, 170.711, -52.971, -22.593, -23.793, -15.253, 7.867, 29.3, 0.1572, 0.86798, -0.20972, 0.42169,
 16:30:27.559,e3:ca:2d:fd:e0:8c, 2015-01-01 04:41:23.050, 0.809, 0.104, -0.599, -0.061, 0.183, 0.183, 170.711, -52.976, -22.599, -23.793, -15.253, 7.867, 29.3, 0.1572, 0.86798, -0.20972, 0.42169,
 16:30:27.580,ed:40:fe:65:30:6c, 2015-01-01 04:41:28.540, 0.964, -0.078, 0.279, 0.671, -1.099, 0.183, -16.205, -73.367, -105.985, -29.627, -8.167, 7.640, 27.09, 0.41031, -0.53979, -0.26523, -0.68542,
 16:30:27.580,ed:40:fe:65:30:6c, 2015-01-01 04:41:28.540, 0.964, -0.075, 0.28, 0.488, -1.282, 0.122, -16.216, -73.389, -105.969, -29.627, -8.167, 7.640, 27.09, 0.41031, -0.53979, -0.26523, -0.68542,
 16:30:27.584,ed:35:33:d3:6c:f8, 2015-01-01 04:41:23.485, 0.908, 0.016, 0.409, -0.305, -0.183, 0.183, 2.164, -65.446, 147.673, -23.580, -10.693, -17.600, 29.84, -0.22446, -0.52444, 0.13431, -0.81018,
 16:30:27.584,ed:35:33:d3:6c:f8, 2015-01-01 04:41:23.485, 0.907, 0.016, 0.409, 0, -0.061, 0, 2.153, -65.451, 147.656, -23.580, -10.693, -17.600, 29.84, -0.22446, -0.52444, 0.13431, -0.81018,
 16:30:27.604,e3:ca:2d:fd:e0:8c, 2015-01-01 04:41:23.050, 0.808, 0.104, -0.6, 0, 0.183, 0.183, 170.717, -52.982, -22.588, -23.793, -15.253, 7.867, 29.3, 0.1572, 0.86798, -0.20972, 0.42169,
 16:30:27.604,e3:ca:2d:fd:e0:8c, 2015-01-01 04:41:23.050, 0.809, 0.1, -0.603, 0, 0.244, 0.122, 170.717, -52.987, -22.582, -23.793, -15.253, 7.867, 29.3, 0.1572, 0.86798, -0.20972, 0.42169,
 16:30:27.605,f6:90:cc:01:6d:25, 2015-01-01 04:41:23.625, 0.936, 0.107, -0.294, 0.244, 0, 0, 160.197, -71.466, 15.721, -29.107, -15.793, 8.980, 31.59, -0.05994, -0.8056, -0.009, -0.58926,
 16:30:27.605,f6:90:cc:01:6d:25, 2015-01-01 04:41:23.625, 0.936, 0.108, -0.295, 0.427, 0, 0, 160.203, -71.466, 15.721, -29.107, -15.793, 8.980, 31.59, -0.05994, -0.8056, -0.009, -0.58926,
 16:30:27.625,ed:40:fe:65:30:6c, 2015-01-01 04:41:28.540, 0.965, -0.077, 0.277, 0.244, -1.343, -0.061, -16.221, -73.416, -105.969, -29.627, -8.167, 7.640, 27.09, 0.41031, -0.53979, -0.26523, -0.68542,
 16:30:27.625,ed:40:fe:65:30:6c, 2015-01-01 04:41:28.540, 0.966, -0.076, 0.277, -0.061, -1.282, -0.244, -16.221, -73.438, -105.98, -29.627, -8.167, 7.640, 27.09, 0.41031, -0.53979, -0.26523, -0.68542,
 16:30:27.627,e3:ca:2d:fd:e0:8c, 2015-01-01 04:41:23.540, 0.81, 0.099, -0.603, 0.061, 0.244, 0.122, 170.717, -52.993, -22.577, -23.793, -15.253, 7.867, 29.3, 0.1572, 0.86798, -0.20972, 0.42169,
 16:30:27.627,e3:ca:2d:fd:e0:8c, 2015-01-01 04:41:23.540, 0.808, 0.098, -0.6, 0.244, 0.305, 0.122, 170.722, -52.998, -22.577, -23.793, -15.253, 7.867, 29.3, 0.1572, 0.86798, -0.20972, 0.42169,
 16:30:27.627,f6:90:cc:01:6d:25, 2015-01-01 04:41:23.625, 0.935, 0.108, -0.296, 0.488, -0.061, 0, 160.214, -71.466, 15.705, -29.300, -15.513, 8.287, 31.59, -0.05994, -0.8056, -0.009, -0.58926,
 16:30:27.628,f6:90:cc:01:6d:25, 2015-01-01 04:41:23.625, 0.935, 0.107, -0.297, 0.671, -0.122, 0, 160.225, -71.466, 15.705, -29.300, -15.513, 8.287, 31.59, -0.05994, -0.8056, -0.009, -0.58926,
 16:30:27.629,ed:35:33:d3:6c:f8, 2015-01-01 04:41:23.485, 0.908, 0.013, 0.407, 0.183, 0, -0.183, 2.164, -65.457, 147.618, -23.580, -10.693, -17.600, 29.84, -0.2244, -0.52353, 0.13525, -0.81064,
 16:30:27.629,ed:35:33:d3:6c:f8, 2015-01-01 04:41:23.485, 0.907, 0.017, 0.406, 0.122, 0.061, -0.427, 2.181, -65.462, 147.563, -23.580, -10.693, -17.600, 29.84, -0.2244, -0.52353, 0.13525, -0.81064,
 16:30:27.671,e3:ca:2d:fd:e0:8c, 2015-01-01 04:41:23.540, 0.808, 0.098, -0.598, 0.122, 0.244, 0.244, 170.728, -53.004, -22.599, -23.793, -15.253, 7.867, 29.3, 0.1572, 0.86798, -0.20972, 0.42169,
 16:30:27.671,e3:ca:2d:fd:e0:8c, 2015-01-01 04:41:23.540, 0.808, 0.097, -0.602, 0.427, 0.183, 0.244, 170.744, -53.009, -22.615, -23.793, -15.253, 7.867, 29.3, 0.1572, 0.86798, -0.20972, 0.42169,
 16:30:27.672,f6:90:cc:01:6d:25, 2015-01-01 04:41:23.625, 0.935, 0.105, -0.293, 0.61, -0.061, 0, 160.236, -71.461, 15.694, -29.300, -15.513, 8.287, 31.59, -0.05994, -0.8056, -0.009, -0.58926,
 16:30:27.672,f6:90:cc:01:6d:25, 2015-01-01 04:41:23.625, 0.935, 0.104, -0.295, 0.549, -0.061, 0, 160.247, -71.461, 15.661, -29.300, -15.513, 8.287, 31.59, -0.05994, -0.8056, -0.009, -0.58926,
 16:30:27.674,ed:35:33:d3:6c:f8, 2015-01-01 04:41:23.800, 0.904, 0.018, 0.407, 0.366, 0.122, -0.366, 2.203, -65.462, 147.524, -23.580, -10.693, -17.600, 29.84, -0.2244, -0.52353, 0.13525, -0.81064,
 16:30:27.674,ed:35:33:d3:6c:f8, 2015-01-01 04:41:23.800, 0.903, 0.016, 0.407, 0.366, 0.061, -0.488, 2.225, -65.462, 147.475, -23.580, -10.693, -17.600, 29.84, -0.2244, -0.52353, 0.13525, -0.81064,
 16:30:27.692,ed:40:fe:65:30:6c, 2015-01-01 04:41:28.540, 0.962, -0.074, 0.275, 0.061, -1.343, -0.305, -16.216, -73.466, -105.996, -29.627, -8.167, 7.640, 27.09, 0.41034, -0.54065, -0.26593, -0.68445,
 16:30:27.692,ed:40:fe:65:30:6c, 2015-01-01 04:41:28.540, 0.962, -0.076, 0.278, 0.061, -1.282, -0.183, -16.216, -73.488, -106.007, -29.627, -8.167, 7.640, 27.09, 0.41034, -0.54065, -0.26593, -0.68445,
 16:30:27.696,ed:35:33:d3:6c:f8, 2015-01-01 04:41:23.800, 0.906, 0.017, 0.408, 0, 0.122, -0.488, 2.252, -65.462, 147.415, -23.580, -10.693, -17.600, 29.84, -0.2244, -0.52353, 0.13525, -0.81064,
 16:30:27.696,ed:35:33:d3:6c:f8, 2015-01-01 04:41:23.800, 0.908, 0.018, 0.408, -0.061, 0.183, -0.427, 2.269, -65.462, 147.354, -23.580, -10.693, -17.600, 29.84, -0.2244, -0.52353, 0.13525, -0.81064,
 16:30:27.714,ed:40:fe:65:30:6c, 2015-01-01 04:41:28.875, 0.962, -0.077, 0.275, 0, -0.793, -0.183, -16.21, -73.504, -106.024, -29.627, -8.167, 7.640, 27.09, 0.41034, -0.54065, -0.26593, -0.68445,
 16:30:27.714,ed:40:fe:65:30:6c, 2015-01-01 04:41:28.875, 0.964, -0.075, 0.275, 0, -0.244, -0.244, -16.188, -73.51, -106.051, -29.627, -8.167, 7.640, 27.09, 0.41034, -0.54065, -0.26593, -0.68445,
 16:30:27.716,e3:ca:2d:fd:e0:8c, 2015-01-01 04:41:23.540, 0.81, 0.097, -0.603, 0.61, 0.122, 0.183, 170.755, -53.009, -22.632, -23.793, -15.253, 7.867, 29.3, 0.1572, 0.86798, -0.20972, 0.42169,
 16:30:27.716,e3:ca:2d:fd:e0:8c, 2015-01-01 04:41:23.540, 0.81, 0.098, -0.6, 0.977, 0.061, 0.183, 170.782, -53.009, -22.643, -23.793, -15.253, 7.867, 29.3, 0.1572, 0.86798, -0.20972, 0.42169,
 16:30:27.740,f6:90:cc:01:6d:25, 2015-01-01 04:41:23.625, 0.935, 0.105, -0.298, 0.427, -0.122, 0, 160.258, -71.455, 15.612, -29.300, -15.513, 8.287, 31.59, -0.05951, -0.80588, -0.00974, -0.5889,
 16:30:27.740,f6:90:cc:01:6d:25, 2015-01-01 04:41:23.625, 0.935, 0.107, -0.294, 0.366, 0, 0, 160.263, -71.455, 15.568, -29.300, -15.513, 8.287, 31.59, -0.05951, -0.80588, -0.00974, -0.5889,
 16:30:27.742,ed:35:33:d3:6c:f8, 2015-01-01 04:41:23.800, 0.902, 0.013, 0.409, 0.244, 0.305, -0.305, 2.291, -65.462, 147.321, -23.580, -10.693, -17.600, 29.84, -0.2244, -0.52353, 0.13525, -0.81064,
 16:30:27.742,ed:35:33:d3:6c:f8, 2015-01-01 04:41:23.800, 0.9, 0.016, 0.41, 0.122, 0.854, -0.488, 2.307, -65.457, 147.31, -23.580, -10.693, -17.600, 29.84, -0.2244, -0.52353, 0.13525, -0.81064,
 16:30:27.759,ed:40:fe:65:30:6c, 2015-01-01 04:41:28.875, 0.959, -0.078, 0.275, 0.305, -0.977, -0.122, -16.177, -73.515, -106.051, -29.627, -8.167, 7.640, 27.09, 0.41034, -0.54065, -0.26593, -0.68445,
 16:30:27.759,ed:40:fe:65:30:6c, 2015-01-01 04:41:28.875, 0.965, -0.077, 0.277, 0.244, -0.488, -0.122, -16.172, -73.531, -106.062, -29.627, -8.167, 7.640, 27.09, 0.41034, -0.54065, -0.26593, -0.68445,
 16:30:27.763,f6:90:cc:01:6d:25, 2015-01-01 04:41:24.005, 0.935, 0.105, -0.295, 0.366, 0, 0, 160.269, -71.455, 15.524, -29.300, -15.513, 8.287, 31.59, -0.05951, -0.80588, -0.00974, -0.5889,
 16:30:27.763,f6:90:cc:01:6d:25, 2015-01-01 04:41:24.005, 0.934, 0.104, -0.296, 0.305, -0.061, 0, 160.274, -71.455, 15.502, -29.300, -15.513, 8.287, 31.59, -0.05951, -0.80588, -0.00974, -0.5889,
 16:30:27.787,f6:90:cc:01:6d:25, 2015-01-01 04:41:24.005, 0.936, 0.103, -0.296, 0.488, 0, 0, 160.285, -71.455, 15.491, -29.300, -15.513, 8.287, 31.59, -0.05951, -0.80588, -0.00974, -0.5889,
 16:30:27.787,f6:90:cc:01:6d:25, 2015-01-01 04:41:24.005, 0.937, 0.106, -0.299, 0.427, 0.061, 0, 160.296, -71.455, 15.474, -29.300, -15.513, 8.287, 31.59, -0.05951, -0.80588, -0.00974, -0.5889,
 16:30:27.787,ed:40:fe:65:30:6c, 2015-01-01 04:41:28.875, 0.973, -0.074, 0.275, 0.549, 0.183, -0.061, -16.155, -73.537, -106.078, -29.627, -8.167, 7.640, 27.09, 0.41034, -0.54065, -0.26593, -0.68445,
 16:30:27.787,ed:40:fe:65:30:6c, 2015-01-01 04:41:28.875, 0.967, -0.074, 0.275, 0.488, -0.244, -0.061, -16.133, -73.537, -106.089, -29.627, -8.167, 7.640, 27.09, 0.41034, -0.54065, -0.26593, -0.68445,
 16:30:27.788,e3:ca:2d:fd:e0:8c, 2015-01-01 04:41:23.540, 0.81, 0.099, -0.601, 0.854, 0, 0.244, 170.804, -53.015, -22.659, -23.793, -15.253, 7.867, 29.3, 0.1572, 0.86798, -0.20972, 0.42169,
 16:30:27.788,e3:ca:2d:fd:e0:8c, 2015-01-01 04:41:23.540, 0.808, 0.096, -0.599, 0.61, 0.122, 0.244, 170.821, -53.015, -22.654, -23.793, -15.253, 7.867, 29.3, 0.1572, 0.86798, -0.20972, 0.42169,
 16:30:27.806,e3:ca:2d:fd:e0:8c, 2015-01-01 04:41:23.540, 0.811, 0.097, -0.602, 0.61, 0.061, 0.122, 170.832, -53.015, -22.643, -23.793, -15.253, 7.867, 29.3, 0.1572, 0.86798, -0.20972, 0.42169,
 16:30:27.806,e3:ca:2d:fd:e0:8c, 2015-01-01 04:41:23.540, 0.813, 0.098, -0.602, 0.61, 0.122, 0.122, 170.848, -53.02, -22.637, -23.793, -15.253, 7.867, 29.3, 0.1572, 0.86798, -0.20972, 0.42169,
 16:30:27.808,ed:35:33:d3:6c:f8, 2015-01-01 04:41:23.800, 0.912, 0.016, 0.408, 0.122, 0.183, -0.549, 2.329, -65.446, 147.294, -23.580, -10.693, -17.600, 29.84, -0.2244, -0.52353, 0.13525, -0.81064,
 16:30:27.808,ed:35:33:d3:6c:f8, 2015-01-01 04:41:23.800, 0.914, 0.021, 0.409, 0.305, -0.183, -0.61, 2.362, -65.451, 147.277, -23.580, -10.693, -17.600, 29.84, -0.2244, -0.52353, 0.13525, -0.81064,
 16:30:27.830,f6:90:cc:01:6d:25, 2015-01-01 04:41:24.005, 0.936, 0.105, -0.299, 0.427, 0.061, 0, 160.307, -71.455, 15.474, -29.300, -15.513, 8.287, 31.59, -0.05951, -0.80588, -0.00974, -0.5889,
 16:30:27.830,f6:90:cc:01:6d:25, 2015-01-01 04:41:24.005, 0.935, 0.104, -0.297, 0.366, 0, 0, 160.312, -71.455, 15.48, -29.300, -15.513, 8.287, 31.59, -0.05951, -0.80588, -0.00974, -0.5889,
 16:30:27.832,ed:35:33:d3:6c:f8, 2015-01-01 04:41:23.800, 0.904, 0.021, 0.412, 0, 0.366, -0.244, 2.384, -65.451, 147.288, -23.580, -10.693, -17.600, 29.84, -0.2244, -0.52353, 0.13525, -0.81064,
 16:30:27.832,ed:35:33:d3:6c:f8, 2015-01-01 04:41:23.800, 0.899, 0.017, 0.41, -0.122, 0.366, -0.061, 2.39, -65.446, 147.31, -23.580, -10.693, -17.600, 29.84, -0.2244, -0.52353, 0.13525, -0.81064,
 16:30:27.851,ed:40:fe:65:30:6c, 2015-01-01 04:41:28.875, 0.96, -0.077, 0.276, 0, -1.221, 0.122, -16.122, -73.542, -106.095, -29.627, -8.167, 7.640, 27.09, 0.41034, -0.54065, -0.26593, -0.68445,
 16:30:27.851,ed:40:fe:65:30:6c, 2015-01-01 04:41:28.875, 0.96, -0.078, 0.277, -0.244, -1.221, 0.183, -16.15, -73.564, -106.073, -29.627, -8.167, 7.640, 27.09, 0.41034, -0.54065, -0.26593, -0.68445,
 16:30:27.852,e3:ca:2d:fd:e0:8c, 2015-01-01 04:41:23.540, 0.812, 0.098, -0.601, 0.488, 0.244, 0.061, 170.859, -53.02, -22.626, -23.793, -15.253, 7.867, 29.3, 0.1572, 0.86798, -0.20972, 0.42169,
 16:30:27.852,e3:ca:2d:fd:e0:8c, 2015-01-01 04:41:23.540, 0.807, 0.095, -0.601, 0.122, 0.244, 0, 170.865, -53.026, -22.615, -23.793, -15.253, 7.867, 29.3, 0.1572, 0.86798, -0.20972, 0.42169,
 16:30:27.873,e3:ca:2d:fd:e0:8c, 2015-01-01 04:41:23.540, 0.806, 0.095, -0.6, 0.183, 0.366, 0, 170.865, -53.031, -22.604, -24.327, -14.853, 9.413, 29.3, 0.1572, 0.86798, -0.20972, 0.42169,
 16:30:27.873,e3:ca:2d:fd:e0:8c, 2015-01-01 04:41:23.540, 0.809, 0.095, -0.599, 0.305, 0.305, 0, 170.87, -53.042, -22.599, -24.327, -14.853, 9.413, 29.3, 0.1572, 0.86798, -0.20972, 0.42169,
 16:30:27.874,f6:90:cc:01:6d:25, 2015-01-01 04:41:24.005, 0.934, 0.105, -0.296, 0.366, -0.061, 0, 160.323, -71.455, 15.474, -29.300, -15.513, 8.287, 31.59, -0.05951, -0.80588, -0.00974, -0.5889,
 16:30:27.874,f6:90:cc:01:6d:25, 2015-01-01 04:41:24.005, 0.934, 0.108, -0.296, 0.244, -0.122, 0, 160.334, -71.45, 15.48, -29.300, -15.513, 8.287, 31.59, -0.05951, -0.80588, -0.00974, -0.5889,
 16:30:27.876,ed:35:33:d3:6c:f8, 2015-01-01 04:41:23.800, 0.902, 0.017, 0.414, -0.549, 0.427, -0.061, 2.384, -65.44, 147.349, -23.253, -11.033, -16.633, 29.84, -0.2244, -0.52353, 0.13525, -0.81064,
 16:30:27.876,ed:35:33:d3:6c:f8, 2015-01-01 04:41:23.800, 0.902, 0.015, 0.414, -1.099, 0, -0.488, 2.379, -65.44, 147.36, -23.253, -11.033, -16.633, 29.84, -0.2244, -0.52353, 0.13525, -0.81064,
 16:30:27.896,ed:40:fe:65:30:6c, 2015-01-01 04:41:28.875, 0.962, -0.076, 0.278, -0.488, -0.854, 0, -16.177, -73.581, -106.057, -29.627, -8.167, 7.640, 27.09, 0.41034, -0.54065, -0.26593, -0.68445,
 16:30:27.896,ed:40:fe:65:30:6c, 2015-01-01 04:41:28.875, 0.961, -0.077, 0.277, -0.671, -1.099, -0.244, -16.194, -73.597, -106.057, -29.627, -8.167, 7.640, 27.09, 0.41034, -0.54065, -0.26593, -0.68445,
 16:30:27.899,ed:35:33:d3:6c:f8, 2015-01-01 04:41:23.800, 0.901, 0.012, 0.409, -0.61, -0.427, -0.61, 2.384, -65.446, 147.354, -23.253, -11.033, -16.633, 29.84, -0.22552, -0.52359, 0.13504, -0.81033,
 16:30:27.899,ed:35:33:d3:6c:f8, 2015-01-01 04:41:23.800, 0.903, 0.012, 0.407, -0.305, -0.488, -0.61, 2.401, -65.457, 147.343, -23.253, -11.033, -16.633, 29.84, -0.22552, -0.52359, 0.13504, -0.81033,
 16:30:27.918,e3:ca:2d:fd:e0:8c, 2015-01-01 04:41:23.540, 0.81, 0.098, -0.597, 0.183, 0.122, 0.061, 170.876, -53.047, -22.593, -24.327, -14.853, 9.413, 29.3, 0.1572, 0.86798, -0.20972, 0.42169,
 16:30:27.918,e3:ca:2d:fd:e0:8c, 2015-01-01 04:41:23.540, 0.809, 0.096, -0.597, 0.061, -0.122, 0.122, 170.876, -53.047, -22.588, -24.327, -14.853, 9.413, 29.3, 0.1572, 0.86798, -0.20972, 0.42169,
 16:30:27.918,ed:40:fe:65:30:6c, 2015-01-01 04:41:28.875, 0.961, -0.081, 0.273, -0.305, -1.038, -0.427, -16.194, -73.619, -106.057, -29.353, -7.700, 8.133, 27.09, 0.41034, -0.54065, -0.26593, -0.68445,
 16:30:27.918,ed:40:fe:65:30:6c, 2015-01-01 04:41:28.875, 0.96, -0.081, 0.273, -0.183, -0.61, -0.366, -16.188, -73.636, -106.068, -29.353, -7.700, 8.133, 27.09, 0.41034, -0.54065, -0.26593, -0.68445,
 16:30:27.919,f6:90:cc:01:6d:25, 2015-01-01 04:41:24.005, 0.935, 0.103, -0.292, 0, -0.122, 0, 160.334, -71.45, 15.491, -29.300, -15.513, 8.287, 31.59, -0.05951, -0.80588, -0.00974, -0.5889,
 16:30:27.919,f6:90:cc:01:6d:25, 2015-01-01 04:41:24.005, 0.934, 0.102, -0.292, -0.061, -0.061, 0, 160.34, -71.444, 15.491, -29.300, -15.513, 8.287, 31.59, -0.05951, -0.80588, -0.00974, -0.5889,
 16:30:27.943,ed:35:33:d3:6c:f8, 2015-01-01 04:41:23.800, 0.902, 0.016, 0.407, -0.305, 0.183, -0.61, 2.422, -65.457, 147.321, -23.253, -11.033, -16.633, 29.84, -0.22552, -0.52359, 0.13504, -0.81033,
 16:30:27.943,ed:35:33:d3:6c:f8, 2015-01-01 04:41:23.800, 0.905, 0.015, 0.411, -0.061, 0, -0.488, 2.439, -65.457, 147.305, -23.253, -11.033, -16.633, 29.84, -0.22552, -0.52359, 0.13504, -0.81033,
 16:30:27.963,ed:40:fe:65:30:6c, 2015-01-01 04:41:28.875, 0.963, -0.078, 0.276, -0.183, -0.183, -0.244, -16.172, -73.647, -106.089, -29.353, -7.700, 8.133, 27.09, 0.41034, -0.54065, -0.26593, -0.68445,
 16:30:27.963,ed:40:fe:65:30:6c, 2015-01-01 04:41:28.875, 0.964, -0.078, 0.275, 0.122, -0.122, -0.183, -16.161, -73.647, -106.111, -29.353, -7.700, 8.133, 27.09, 0.41034, -0.54065, -0.26593, -0.68445,
 16:30:27.965,f6:90:cc:01:6d:25, 2015-01-01 04:41:24.005, 0.935, 0.103, -0.297, -0.061, 0, 0, 160.34, -71.444, 15.507, -29.300, -15.513, 8.287, 31.59, -0.05951, -0.80588, -0.00974, -0.5889,
 16:30:27.965,f6:90:cc:01:6d:25, 2015-01-01 04:41:24.005, 0.936, 0.104, -0.294, -0.122, 0, 0, 160.34, -71.444, 15.529, -29.300, -15.513, 8.287, 31.59, -0.05951, -0.80588, -0.00974, -0.5889,
 16:30:27.985,ed:40:fe:65:30:6c, 2015-01-01 04:41:28.875, 0.964, -0.075, 0.276, 0.244, -0.427, 0, -16.144, -73.647, -106.122, -29.353, -7.700, 8.133, 27.09, 0.40897, -0.54187, -0.26669, -0.68402,
 16:30:27.985,ed:40:fe:65:30:6c, 2015-01-01 04:41:28.875, 0.966, -0.075, 0.275, 0.122, -0.305, 0, -16.144, -73.652, -106.117, -29.353, -7.700, 8.133, 27.09, 0.40897, -0.54187, -0.26669, -0.68402,
 16:30:27.987,e3:ca:2d:fd:e0:8c, 2015-01-01 04:41:23.540, 0.809, 0.093, -0.599, 0.122, -0.061, 0, 170.881, -53.047, -22.599, -24.327, -14.853, 9.413, 29.3, 0.15692, 0.86765, -0.20947, 0.42261,
 16:30:27.987,e3:ca:2d:fd:e0:8c, 2015-01-01 04:41:23.540, 0.811, 0.094, -0.6, 0.122, -0.061, 0, 170.887, -53.047, -22.61, -24.327, -14.853, 9.413, 29.3, 0.15692, 0.86765, -0.20947, 0.42261,
 16:30:27.987,f6:90:cc:01:6d:25, 2015-01-01 04:41:24.005, 0.935, 0.104, -0.296, -0.244, -0.061, 0, 160.34, -71.444, 15.54, -29.193, -15.933, 8.660, 31.59, -0.05951, -0.80588, -0.00974, -0.5889,
 16:30:27.987,f6:90:cc:01:6d:25, 2015-01-01 04:41:24.005, 0.936, 0.104, -0.293, -0.183, -0.183, 0, 160.34, -71.444, 15.546, -29.193, -15.933, 8.660, 31.59, -0.05951, -0.80588, -0.00974, -0.5889,
 16:30:27.989,ed:35:33:d3:6c:f8, 2015-01-01 04:41:24.090, 0.904, 0.021, 0.415, -0.366, 0, -0.366, 2.45, -65.457, 147.261, -23.253, -11.033, -16.633, 29.84, -0.22552, -0.52359, 0.13504, -0.81033,
 16:30:27.989,ed:35:33:d3:6c:f8, 2015-01-01 04:41:24.090, 0.903, 0.019, 0.409, -0.244, -0.366, -0.061, 2.45, -65.462, 147.233, -23.253, -11.033, -16.633, 29.84, -0.22552, -0.52359, 0.13504, -0.81033,
 16:30:28.009,e3:ca:2d:fd:e0:8c, 2015-01-01 04:41:23.920, 0.811, 0.096, -0.6, 0.305, 0, 0, 170.887, -53.047, -22.621, -24.327, -14.853, 9.413, 29.3, 0.15692, 0.86765, -0.20947, 0.42261,
 16:30:28.009,e3:ca:2d:fd:e0:8c, 2015-01-01 04:41:23.920, 0.809, 0.096, -0.599, 0.305, -0.122, 0, 170.892, -53.047, -22.61, -24.327, -14.853, 9.413, 29.3, 0.15692, 0.86765, -0.20947, 0.42261,
 16:30:28.031,ed:40:fe:65:30:6c, 2015-01-01 04:41:28.875, 0.969, -0.072, 0.276, 0, -0.183, -0.122, -16.139, -73.658, -106.128, -29.353, -7.700, 8.133, 27.09, 0.40897, -0.54187, -0.26669, -0.68402,
 16:30:28.031,ed:40:fe:65:30:6c, 2015-01-01 04:41:28.875, 0.966, -0.073, 0.272, 0, -0.671, -0.122, -16.128, -73.658, -106.139, -29.353, -7.700, 8.133, 27.09, 0.40897, -0.54187, -0.26669, -0.68402,
 16:30:28.031,e3:ca:2d:fd:e0:8c, 2015-01-01 04:41:23.920, 0.809, 0.096, -0.601, 0.122, -0.183, 0, 170.898, -53.042, -22.599, -24.327, -14.853, 9.413, 29.3, 0.15692, 0.86765, -0.20947, 0.42261,
 16:30:28.031,e3:ca:2d:fd:e0:8c, 2015-01-01 04:41:23.920, 0.81, 0.098, -0.601, 0.305, -0.122, 0, 170.903, -53.042, -22.593, -24.327, -14.853, 9.413, 29.3, 0.15692, 0.86765, -0.20947, 0.42261,
 16:30:28.033,ed:35:33:d3:6c:f8, 2015-01-01 04:41:24.090, 0.91, 0.018, 0.41, -0.488, 0, -0.427, 2.455, -65.468, 147.184, -23.253, -11.033, -16.633, 29.84, -0.22552, -0.52359, 0.13504, -0.81033,
 16:30:28.033,ed:35:33:d3:6c:f8, 2015-01-01 04:41:24.090, 0.908, 0.022, 0.411, -0.61, 0, -0.854, 2.472, -65.468, 147.112, -23.253, -11.033, -16.633, 29.84, -0.22552, -0.52359, 0.13504, -0.81033,
 16:30:28.033,f6:90:cc:01:6d:25, 2015-01-01 04:41:24.005, 0.936, 0.105, -0.295, 0.061, -0.122, 0, 160.345, -71.439, 15.546, -29.193, -15.933, 8.660, 31.59, -0.05951, -0.80588, -0.00974, -0.5889,
 16:30:28.034,f6:90:cc:01:6d:25, 2015-01-01 04:41:24.005, 0.936, 0.107, -0.299, -0.061, -0.122, 0, 160.351, -71.439, 15.568, -29.193, -15.933, 8.660, 31.59, -0.05951, -0.80588, -0.00974, -0.5889,
 16:30:28.076,ed:40:fe:65:30:6c, 2015-01-01 04:41:29.210, 0.967, -0.077, 0.271, 0.061, -1.16, 0, -16.128, -73.674, -106.144, -29.353, -7.700, 8.133, 27.09, 0.40897, -0.54187, -0.26669, -0.68402,
 16:30:28.076,ed:40:fe:65:30:6c, 2015-01-01 04:41:29.210, 0.964, -0.077, 0.272, -0.122, -1.343, 0, -16.144, -73.696, -106.139, -29.353, -7.700, 8.133, 27.09, 0.40897, -0.54187, -0.26669, -0.68402,
 16:30:28.076,e3:ca:2d:fd:e0:8c, 2015-01-01 04:41:23.920, 0.81, 0.099, -0.6, 0.427, -0.183, 0, 170.909, -53.042, -22.582, -24.327, -14.853, 9.413, 29.3, 0.15692, 0.86765, -0.20947, 0.42261,
 16:30:28.077,e3:ca:2d:fd:e0:8c, 2015-01-01 04:41:23.920, 0.809, 0.098, -0.602, 0.244, -0.061, 0, 170.92, -53.036, -22.571, -24.327, -14.853, 9.413, 29.3, 0.15692, 0.86765, -0.20947, 0.42261,
 16:30:28.078,ed:35:33:d3:6c:f8, 2015-01-01 04:41:24.090, 0.908, 0.02, 0.41, -0.305, 0, -0.305, 2.488, -65.468, 147.057, -23.253, -11.033, -16.633, 29.84, -0.22552, -0.52359, 0.13504, -0.81033,
 16:30:28.078,ed:35:33:d3:6c:f8, 2015-01-01 04:41:24.090, 0.906, 0.017, 0.407, -0.61, 0, -0.061, 2.483, -65.473, 147.025, -23.253, -11.033, -16.633, 29.84, -0.22552, -0.52359, 0.13504, -0.81033,
 16:30:28.101,ed:35:33:d3:6c:f8, 2015-01-01 04:41:24.090, 0.903, 0.016, 0.409, -0.732, 0, -0.183, 2.477, -65.473, 147.003, -23.253, -11.033, -16.633, 29.84, -0.22552, -0.52359, 0.13504, -0.81033,
 16:30:28.101,ed:35:33:d3:6c:f8, 2015-01-01 04:41:24.090, 0.905, 0.014, 0.407, -0.305, -0.183, -0.427, 2.483, -65.479, 146.981, -23.253, -11.033, -16.633, 29.84, -0.22552, -0.52359, 0.13504, -0.81033,
 16:30:28.101,f6:90:cc:01:6d:25, 2015-01-01 04:41:24.005, 0.936, 0.105, -0.298, -0.244, -0.122, 0, 160.351, -71.439, 15.584, -29.193, -15.933, 8.660, 31.59, -0.05933, -0.80603, -0.00961, -0.58871,
 16:30:28.101,f6:90:cc:01:6d:25, 2015-01-01 04:41:24.005, 0.935, 0.104, -0.298, -0.244, -0.061, 0, 160.351, -71.433, 15.606, -29.193, -15.933, 8.660, 31.59, -0.05933, -0.80603, -0.00961, -0.58871,
 16:30:28.120,ed:40:fe:65:30:6c, 2015-01-01 04:41:29.210, 0.963, -0.074, 0.272, -0.244, -1.282, -0.122, -16.161, -73.718, -106.122, -29.353, -7.700, 8.133, 27.09, 0.40897, -0.54187, -0.26669, -0.68402,
 16:30:28.120,ed:40:fe:65:30:6c, 2015-01-01 04:41:29.210, 0.964, -0.075, 0.271, -0.061, -1.038, -0.488, -16.166, -73.74, -106.117, -29.353, -7.700, 8.133, 27.09, 0.40897, -0.54187, -0.26669, -0.68402,
 16:30:28.122,f6:90:cc:01:6d:25, 2015-01-01 04:41:24.365, 0.934, 0.106, -0.295, -0.183, -0.183, 0, 160.351, -71.433, 15.623, -29.193, -15.933, 8.660, 31.59, -0.05933, -0.80603, -0.00961, -0.58871,
 16:30:28.122,f6:90:cc:01:6d:25, 2015-01-01 04:41:24.365, 0.934, 0.108, -0.297, 0, -0.122, 0, 160.351, -71.428, 15.645, -29.193, -15.933, 8.660, 31.59, -0.05933, -0.80603, -0.00961, -0.58871,
 16:30:28.122,e3:ca:2d:fd:e0:8c, 2015-01-01 04:41:23.920, 0.807, 0.097, -0.6, 0.244, -0.061, 0, 170.92, -53.036, -22.566, -24.327, -14.853, 9.413, 29.3, 0.15692, 0.86765, -0.20947, 0.42261,
 16:30:28.122,e3:ca:2d:fd:e0:8c, 2015-01-01 04:41:23.920, 0.807, 0.1, -0.599, 0.122, -0.061, 0, 170.925, -53.036, -22.555, -24.327, -14.853, 9.413, 29.3, 0.15692, 0.86765, -0.20947, 0.42261,
 16:30:28.143,ed:40:fe:65:30:6c, 2015-01-01 04:41:29.210, 0.964, -0.072, 0.271, 0.061, -0.977, -0.549, -16.144, -73.762, -106.139, -29.353, -7.700, 8.133, 27.09, 0.40897, -0.54187, -0.26669, -0.68402,
 16:30:28.143,ed:40:fe:65:30:6c, 2015-01-01 04:41:29.210, 0.965, -0.072, 0.272, 0.244, -0.61, -0.427, -16.117, -73.779, -106.166, -29.353, -7.700, 8.133, 27.09, 0.40897, -0.54187, -0.26669, -0.68402,
 16:30:28.145,f6:90:cc:01:6d:25, 2015-01-01 04:41:24.365, 0.935, 0.107, -0.297, 0, -0.122, 0, 160.351, -71.428, 15.661, -29.193, -15.933, 8.660, 31.59, -0.05933, -0.80603, -0.00961, -0.58871,
 16:30:28.145,f6:90:cc:01:6d:25, 2015-01-01 04:41:24.365, 0.934, 0.106, -0.297, 0.244, 0, 0, 160.356, -71.422, 15.677, -29.193, -15.933, 8.660, 31.59, -0.05933, -0.80603, -0.00961, -0.58871,
 16:30:28.146,ed:35:33:d3:6c:f8, 2015-01-01 04:41:24.090, 0.903, 0.019, 0.407, -0.244, -0.244, -0.854, 2.505, -65.484, 146.959, -23.253, -11.033, -16.633, 29.84, -0.22552, -0.52359, 0.13504, -0.81033,
 16:30:28.146,ed:35:33:d3:6c:f8, 2015-01-01 04:41:24.090, 0.906, 0.021, 0.408, 0.122, 0, -0.549, 2.532, -65.49, 146.926, -23.253, -11.033, -16.633, 29.84, -0.22552, -0.52359, 0.13504, -0.81033,
 16:30:28.189,e3:ca:2d:fd:e0:8c, 2015-01-01 04:41:23.920, 0.809, 0.098, -0.601, 0.244, 0, 0, 170.925, -53.036, -22.544, -24.327, -14.853, 9.413, 29.3, 0.15692, 0.86765, -0.20947, 0.42261,
 16:30:28.189,e3:ca:2d:fd:e0:8c, 2015-01-01 04:41:23.920, 0.809, 0.095, -0.6, 0.183, -0.122, 0, 170.931, -53.036, -22.533, -24.327, -14.853, 9.413, 29.3, 0.15692, 0.86765, -0.20947, 0.42261,
 16:30:28.190,f6:90:cc:01:6d:25, 2015-01-01 04:41:24.365, 0.935, 0.106, -0.297, 0.427, 0, 0, 160.362, -71.422, 15.699, -29.193, -15.933, 8.660, 31.59, -0.05933, -0.80603, -0.00961, -0.58871,
 16:30:28.190,f6:90:cc:01:6d:25, 2015-01-01 04:41:24.365, 0.936, 0.104, -0.297, 0.122, 0, 0, 160.367, -71.422, 15.721, -29.193, -15.933, 8.660, 31.59, -0.05933, -0.80603, -0.00961, -0.58871,
 16:30:28.192,ed:35:33:d3:6c:f8, 2015-01-01 04:41:24.090, 0.903, 0.022, 0.409, 0.244, 0, -0.549, 2.56, -65.49, 146.882, -23.293, -11.133, -17.860, 29.84, -0.22552, -0.52359, 0.13504, -0.81033,
 16:30:28.192,ed:35:33:d3:6c:f8, 2015-01-01 04:41:24.090, 0.905, 0.026, 0.41, -0.183, 0, -0.488, 2.582, -65.49, 146.827, -23.293, -11.133, -17.860, 29.84, -0.22552, -0.52359, 0.13504, -0.81033,
 16:30:28.211,ed:40:fe:65:30:6c, 2015-01-01 04:41:29.210, 0.963, -0.071, 0.272, 0.427, -0.61, -0.244, -16.089, -73.795, -106.194, -29.353, -7.700, 8.133, 27.09, 0.40897, -0.54187, -0.26669, -0.68402,
 16:30:28.211,ed:40:fe:65:30:6c, 2015-01-01 04:41:29.210, 0.966, -0.071, 0.272, 0.183, -0.427, 0, -16.068, -73.801, -106.199, -29.353, -7.700, 8.133, 27.09, 0.40897, -0.54187, -0.26669, -0.68402,
 16:30:28.232,ed:40:fe:65:30:6c, 2015-01-01 04:41:29.210, 0.968, -0.073, 0.271, 0.305, -0.122, 0.305, -16.068, -73.806, -106.183, -29.353, -7.700, 8.133, 27.09, 0.40897, -0.54187, -0.26669, -0.68402,
 16:30:28.232,ed:40:fe:65:30:6c, 2015-01-01 04:41:29.210, 0.969, -0.077, 0.27, 0.305, 0, 0.732, -16.078, -73.806, -106.161, -29.353, -7.700, 8.133, 27.09, 0.40897, -0.54187, -0.26669, -0.68402,
 16:30:28.235,f6:90:cc:01:6d:25, 2015-01-01 04:41:24.365, 0.936, 0.104, -0.298, 0, 0, 0, 160.367, -71.422, 15.743, -29.193, -15.933, 8.660, 31.59, -0.05933, -0.80603, -0.00961, -0.58871,
 16:30:28.235,f6:90:cc:01:6d:25, 2015-01-01 04:41:24.365, 0.936, 0.103, -0.299, 0.061, 0, 0, 160.373, -71.422, 15.76, -29.193, -15.933, 8.660, 31.59, -0.05933, -0.80603, -0.00961, -0.58871,
 16:30:28.235,e3:ca:2d:fd:e0:8c, 2015-01-01 04:41:23.920, 0.81, 0.095, -0.601, 0.061, -0.183, 0, 170.931, -53.031, -22.527, -24.327, -14.853, 9.413, 29.3, 0.15692, 0.86765, -0.20947, 0.42261,
 16:30:28.235,e3:ca:2d:fd:e0:8c, 2015-01-01 04:41:23.920, 0.809, 0.096, -0.602, 0.244, -0.183, 0, 170.931, -53.031, -22.516, -24.327, -14.853, 9.413, 29.3, 0.15692, 0.86765, -0.20947, 0.42261,
 16:30:28.236,ed:35:33:d3:6c:f8, 2015-01-01 04:41:24.090, 0.907, 0.024, 0.41, -0.366, -0.244, 0, 2.593, -65.495, 146.794, -23.293, -11.133, -17.860, 29.84, -0.22849, -0.52368, 0.13626, -0.80923,
 16:30:28.236,ed:35:33:d3:6c:f8, 2015-01-01 04:41:24.090, 0.91, 0.023, 0.408, -0.122, -0.183, 0.488, 2.582, -65.5, 146.805, -23.293, -11.133, -17.860, 29.84, -0.22849, -0.52368, 0.13626, -0.80923,
 16:30:28.259,e3:ca:2d:fd:e0:8c, 2015-01-01 04:41:23.920, 0.81, 0.094, -0.602, 0.305, -0.061, 0, 170.936, -53.026, -22.511, -24.013, -15.053, 8.627, 29.3, 0.15692, 0.86765, -0.20947, 0.42261,
 16:30:28.259,e3:ca:2d:fd:e0:8c, 2015-01-01 04:41:23.920, 0.812, 0.094, -0.602, 0.305, 0, 0, 170.942, -53.026, -22.5, -24.013, -15.053, 8.627, 29.3, 0.15692, 0.86765, -0.20947, 0.42261,
 16:30:28.278,ed:40:fe:65:30:6c, 2015-01-01 04:41:29.210, 0.967, -0.078, 0.269, 0.671, -0.488, 1.221, -16.117, -73.801, -106.1, -29.353, -7.700, 8.133, 27.09, 0.40897, -0.54187, -0.26669, -0.68402,
 16:30:28.278,ed:40:fe:65:30:6c, 2015-01-01 04:41:29.210, 0.959, -0.072, 0.272, 0.671, -0.732, 1.526, -16.188, -73.806, -105.991, -29.353, -7.700, 8.133, 27.09, 0.40897, -0.54187, -0.26669, -0.68402,
 16:30:28.281,ed:35:33:d3:6c:f8, 2015-01-01 04:41:24.400, 0.909, 0.021, 0.408, 0.244, 0.366, 1.465, 2.543, -65.5, 146.843, -23.293, -11.133, -17.860, 29.84, -0.22849, -0.52368, 0.13626, -0.80923,
 16:30:28.281,ed:35:33:d3:6c:f8, 2015-01-01 04:41:24.400, 0.901, 0.021, 0.408, 0.122, 0.854, 2.014, 2.477, -65.495, 146.904, -23.293, -11.133, -17.860, 29.84, -0.22849, -0.52368, 0.13626, -0.80923,
 16:30:28.281,f6:90:cc:01:6d:25, 2015-01-01 04:41:24.365, 0.934, 0.102, -0.301, -0.122, 0, 0, 160.373, -71.422, 15.782, -29.193, -15.933, 8.660, 31.59, -0.05933, -0.80603, -0.00961, -0.58871,
 16:30:28.281,f6:90:cc:01:6d:25, 2015-01-01 04:41:24.365, 0.932, 0.103, -0.291, -0.122, -0.183, 0, 160.378, -71.417, 15.798, -29.193, -15.933, 8.660, 31.59, -0.05933, -0.80603, -0.00961, -0.58871,
 16:30:28.302,e3:ca:2d:fd:e0:8c, 2015-01-01 04:41:23.920, 0.811, 0.095, -0.6, 0.061, 0, 0, 170.947, -53.026, -22.489, -24.013, -15.053, 8.627, 29.3, 0.15692, 0.86765, -0.20947, 0.42261,
 16:30:28.302,e3:ca:2d:fd:e0:8c, 2015-01-01 04:41:23.920, 0.808, 0.094, -0.595, -0.244, -0.183, 0, 170.947, -53.026, -22.484, -24.013, -15.053, 8.627, 29.3, 0.15692, 0.86765, -0.20947, 0.42261,
 16:30:28.303,ed:35:33:d3:6c:f8, 2015-01-01 04:41:24.400, 0.899, 0.022, 0.404, 0.122, 1.282, 2.197, 2.395, -65.479, 147.003, -23.293, -11.133, -17.860, 29.84, -0.22849, -0.52368, 0.13626, -0.80923,
 16:30:28.303,ed:35:33:d3:6c:f8, 2015-01-01 04:41:24.400, 0.905, 0.021, 0.408, -0.244, 1.831, 2.319, 2.296, -65.451, 147.096, -23.293, -11.133, -17.860, 29.84, -0.22849, -0.52368, 0.13626, -0.80923,
 16:30:28.325,f6:90:cc:01:6d:25, 2015-01-01 04:41:24.365, 0.935, 0.105, -0.292, -0.427, -0.183, 0, 160.378, -71.417, 15.815, -29.193, -15.933, 8.660, 31.59, -0.05933, -0.80603, -0.00961, -0.58871,
 16:30:28.325,f6:90:cc:01:6d:25, 2015-01-01 04:41:24.365, 0.935, 0.106, -0.299, -0.977, -0.305, 0, 160.367, -71.411, 15.826, -29.193, -15.933, 8.660, 31.59, -0.05933, -0.80603, -0.00961, -0.58871,
 16:30:28.325,e3:ca:2d:fd:e0:8c, 2015-01-01 04:41:23.920, 0.806, 0.094, -0.597, -0.488, -0.549, -0.488, 170.936, -53.02, -22.473, -24.013, -15.053, 8.627, 29.3, 0.15598, 0.86801, -0.2084, 0.4227,
 16:30:28.326,e3:ca:2d:fd:e0:8c, 2015-01-01 04:41:23.920, 0.806, 0.093, -0.601, -0.61, -0.793, -0.61, 170.92, -53.009, -22.445, -24.013, -15.053, 8.627, 29.3, 0.15598, 0.86801, -0.2084, 0.4227,
 16:30:28.348,f6:90:cc:01:6d:25, 2015-01-01 04:41:24.365, 0.936, 0.106, -0.296, -0.854, -0.488, 0, 160.362, -71.4, 15.837, -29.487, -15.607, 8.787, 31.59, -0.05933, -0.80603, -0.00961, -0.58871,
 16:30:28.348,f6:90:cc:01:6d:25, 2015-01-01 04:41:24.365, 0.935, 0.106, -0.295, -0.488, -0.488, 0, 160.356, -71.395, 15.842, -29.487, -15.607, 8.787, 31.59, -0.05933, -0.80603, -0.00961, -0.58871,
 16:30:28.348,ed:35:33:d3:6c:f8, 2015-01-01 04:41:24.400, 0.9, 0.021, 0.418, -0.977, 1.465, 2.502, 2.186, -65.424, 147.195, -23.293, -11.133, -17.860, 29.84, -0.22849, -0.52368, 0.13626, -0.80923,
 16:30:28.348,ed:35:33:d3:6c:f8, 2015-01-01 04:41:24.400, 0.902, 0.018, 0.411, -0.977, 0.732, 2.258, 2.071, -65.407, 147.294, -23.293, -11.133, -17.860, 29.84, -0.22849, -0.52368, 0.13626, -0.80923,
 16:30:28.370,ed:40:fe:65:30:6c, 2015-01-01 04:41:29.210, 0.962, -0.073, 0.272, 0.671, -0.305, 1.831, -16.282, -73.806, -105.87, -29.547, -7.827, 9.073, 27.09, 0.40897, -0.54187, -0.26669, -0.68402,
 16:30:28.370,ed:40:fe:65:30:6c, 2015-01-01 04:41:29.210, 0.966, -0.074, 0.275, 0.549, 0.488, 2.014, -16.381, -73.801, -105.743, -29.547, -7.827, 9.073, 27.09, 0.40897, -0.54187, -0.26669, -0.68402,
 16:30:28.371,e3:ca:2d:fd:e0:8c, 2015-01-01 04:41:23.920, 0.81, 0.097, -0.602, -0.366, -0.671, -0.183, 170.898, -52.993, -22.429, -24.013, -15.053, 8.627, 29.3, 0.15598, 0.86801, -0.2084, 0.4227,
 16:30:28.371,e3:ca:2d:fd:e0:8c, 2015-01-01 04:41:23.920, 0.811, 0.1, -0.602, 0.183, -0.488, 0.122, 170.892, -52.982, -22.418, -24.013, -15.053, 8.627, 29.3, 0.15598, 0.86801, -0.2084, 0.4227,
 16:30:28.391,e3:ca:2d:fd:e0:8c, 2015-01-01 04:41:24.300, 0.807, 0.099, -0.598, 0, -0.488, 0, 170.903, -52.976, -22.412, -24.013, -15.053, 8.627, 29.3, 0.15598, 0.86801, -0.2084, 0.4227,
 16:30:28.391,e3:ca:2d:fd:e0:8c, 2015-01-01 04:41:24.300, 0.806, 0.1, -0.604, -0.244, -0.305, 0, 170.898, -52.965, -22.407, -24.013, -15.053, 8.627, 29.3, 0.15598, 0.86801, -0.2084, 0.4227,
 16:30:28.391,ed:40:fe:65:30:6c, 2015-01-01 04:41:29.210, 0.96, -0.071, 0.274, 0.305, 0.366, 2.014, -16.479, -73.779, -105.623, -29.547, -7.827, 9.073, 27.09, 0.40991, -0.54254, -0.26767, -0.68253,
 16:30:28.391,ed:40:fe:65:30:6c, 2015-01-01 04:41:29.210, 0.965, -0.075, 0.274, 0, 0.671, 1.892, -16.584, -73.757, -105.513, -29.547, -7.827, 9.073, 27.09, 0.40991, -0.54254, -0.26767, -0.68253,
 16:30:28.393,f6:90:cc:01:6d:25, 2015-01-01 04:41:24.365, 0.935, 0.107, -0.296, -0.244, -0.244, 0, 160.362, -71.389, 15.853, -29.487, -15.607, 8.787, 31.59, -0.05933, -0.80603, -0.00961, -0.58871,
 16:30:28.393,f6:90:cc:01:6d:25, 2015-01-01 04:41:24.365, 0.937, 0.106, -0.3, -0.366, -0.061, 0, 160.356, -71.384, 15.87, -29.487, -15.607, 8.787, 31.59, -0.05933, -0.80603, -0.00961, -0.58871,
 16:30:28.394,ed:35:33:d3:6c:f8, 2015-01-01 04:41:24.400, 0.908, 0.011, 0.41, -0.854, 0.916, 1.892, 1.972, -65.391, 147.371, -23.293, -11.133, -17.860, 29.84, -0.22849, -0.52368, 0.13626, -0.80923,
 16:30:28.394,ed:35:33:d3:6c:f8, 2015-01-01 04:41:24.400, 0.908, 0.006, 0.411, -0.854, 0.793, 1.77, 1.879, -65.38, 147.437, -23.293, -11.133, -17.860, 29.84, -0.22849, -0.52368, 0.13626, -0.80923,
 16:30:28.412,ed:40:fe:65:30:6c, 2015-01-01 04:41:29.210, 0.968, -0.082, 0.266, 0.305, 0.977, 1.77, -16.672, -73.729, -105.425, -29.547, -7.827, 9.073, 27.09, 0.40991, -0.54254, -0.26767, -0.68253,
 16:30:28.412,ed:40:fe:65:30:6c, 2015-01-01 04:41:29.210, 0.971, -0.079, 0.27, 0, 0.732, 1.282, -16.732, -73.702, -105.364, -29.547, -7.827, 9.073, 27.09, 0.40991, -0.54254, -0.26767, -0.68253,
 16:30:28.436,e3:ca:2d:fd:e0:8c, 2015-01-01 04:41:24.300, 0.808, 0.098, -0.604, 0.427, -0.183, 0.122, 170.903, -52.965, -22.401, -24.013, -15.053, 8.627, 29.3, 0.15598, 0.86801, -0.2084, 0.4227,
 16:30:28.436,e3:ca:2d:fd:e0:8c, 2015-01-01 04:41:24.300, 0.809, 0.097, -0.604, 0.549, -0.183, 0.305, 170.92, -52.96, -22.401, -24.013, -15.053, 8.627, 29.3, 0.15598, 0.86801, -0.2084, 0.4227,
 16:30:28.436,ed:40:fe:65:30:6c, 2015-01-01 04:41:29.210, 0.968, -0.077, 0.272, 0, 0.366, 0.549, -16.771, -73.691, -105.32, -29.547, -7.827, 9.073, 27.09, 0.40991, -0.54254, -0.26767, -0.68253,
 16:30:28.436,ed:40:fe:65:30:6c, 2015-01-01 04:41:29.210, 0.964, -0.079, 0.269, 0, -0.244, 0.061, -16.776, -73.685, -105.32, -29.547, -7.827, 9.073, 27.09, 0.40991, -0.54254, -0.26767, -0.68253,
 16:30:28.439,ed:35:33:d3:6c:f8, 2015-01-01 04:41:24.400, 0.912, 0.005, 0.413, -0.61, 0, 0.549, 1.818, -65.374, 147.486, -23.293, -11.133, -17.860, 29.84, -0.22849, -0.52368, 0.13626, -0.80923,
 16:30:28.439,ed:35:33:d3:6c:f8, 2015-01-01 04:41:24.400, 0.904, 0.011, 0.413, 0, -1.099, -0.244, 1.807, -65.385, 147.497, -23.293, -11.133, -17.860, 29.84, -0.22849, -0.52368, 0.13626, -0.80923,
 16:30:28.460,f6:90:cc:01:6d:25, 2015-01-01 04:41:24.365, 0.936, 0.108, -0.298, -0.244, 0, 0, 160.351, -71.384, 15.886, -29.487, -15.607, 8.787, 31.59, -0.0578, -0.80627, -0.0119, -0.58847,
 16:30:28.460,f6:90:cc:01:6d:25, 2015-01-01 04:41:24.365, 0.935, 0.107, -0.301, 0.244, 0, 0, 160.351, -71.384, 15.903, -29.487, -15.607, 8.787, 31.59, -0.0578, -0.80627, -0.0119, -0.58847,
 16:30:28.462,ed:35:33:d3:6c:f8, 2015-01-01 04:41:24.400, 0.903, 0.011, 0.41, 0.61, -0.305, -0.122, 1.824, -65.402, 147.497, -23.600, -11.393, -17.380, 29.84, -0.22849, -0.52368, 0.13626, -0.80923,
 16:30:28.462,ed:35:33:d3:6c:f8, 2015-01-01 04:41:24.400, 0.896, 0.008, 0.414, 0.793, 0.366, 0.122, 1.84, -65.407, 147.519, -23.600, -11.393, -17.380, 29.84, -0.22849, -0.52368, 0.13626, -0.80923,
 16:30:28.480,ed:40:fe:65:30:6c, 2015-01-01 04:41:29.210, 0.961, -0.083, 0.273, 0, -0.488, 0.183, -16.776, -73.691, -105.326, -29.547, -7.827, 9.073, 27.09, 0.40991, -0.54254, -0.26767, -0.68253,
 16:30:28.480,ed:40:fe:65:30:6c, 2015-01-01 04:41:29.210, 0.958, -0.084, 0.273, 0, -0.671, 0.244, -16.793, -73.702, -105.315, -29.547, -7.827, 9.073, 27.09, 0.40991, -0.54254, -0.26767, -0.68253,
 16:30:28.482,e3:ca:2d:fd:e0:8c, 2015-01-01 04:41:24.300, 0.808, 0.097, -0.6, 0.366, 0.061, 0.427, 170.936, -52.96, -22.407, -24.013, -15.053, 8.627, 29.3, 0.15598, 0.86801, -0.2084, 0.4227,
 16:30:28.482,e3:ca:2d:fd:e0:8c, 2015-01-01 04:41:24.300, 0.804, 0.096, -0.6, -0.122, 0.366, 0.183, 170.942, -52.965, -22.407, -24.013, -15.053, 8.627, 29.3, 0.15598, 0.86801, -0.2084, 0.4227,
 16:30:28.483,f6:90:cc:01:6d:25, 2015-01-01 04:41:24.720, 0.935, 0.104, -0.298, 0.366, 0, 0, 160.356, -71.384, 15.919, -29.487, -15.607, 8.787, 31.59, -0.0578, -0.80627, -0.0119, -0.58847,
 16:30:28.483,f6:90:cc:01:6d:25, 2015-01-01 04:41:24.720, 0.934, 0.102, -0.298, 0.366, 0, 0, 160.362, -71.378, 15.941, -29.487, -15.607, 8.787, 31.59, -0.0578, -0.80627, -0.0119, -0.58847,
 16:30:28.505,f6:90:cc:01:6d:25, 2015-01-01 04:41:24.720, 0.935, 0.102, -0.295, 0.244, 0, 0, 160.373, -71.378, 15.958, -29.487, -15.607, 8.787, 31.59, -0.0578, -0.80627, -0.0119, -0.58847,
 16:30:28.505,f6:90:cc:01:6d:25, 2015-01-01 04:41:24.720, 0.935, 0.103, -0.298, 0.305, 0, 0, 160.378, -71.378, 15.974, -29.487, -15.607, 8.787, 31.59, -0.0578, -0.80627, -0.0119, -0.58847,
 16:30:28.506,ed:35:33:d3:6c:f8, 2015-01-01 04:41:24.400, 0.9, 0.008, 0.411, 0.366, 0.305, 0, 1.846, -65.402, 147.524, -23.600, -11.393, -17.380, 29.84, -0.22849, -0.52368, 0.13626, -0.80923,
 16:30:28.506,ed:35:33:d3:6c:f8, 2015-01-01 04:41:24.400, 0.904, 0.007, 0.412, -0.244, 0.061, -0.549, 1.857, -65.396, 147.502, -23.600, -11.393, -17.380, 29.84, -0.22849, -0.52368, 0.13626, -0.80923,
 16:30:28.525,ed:40:fe:65:30:6c, 2015-01-01 04:41:29.660, 0.963, -0.083, 0.273, 0, 0, 0.183, -16.804, -73.707, -105.315, -29.547, -7.827, 9.073, 27.09, 0.40991, -0.54254, -0.26767, -0.68253,
 16:30:28.525,ed:40:fe:65:30:6c, 2015-01-01 04:41:29.660, 0.964, -0.082, 0.273, 0.061, 0.549, 0.061, -16.804, -73.702, -105.331, -29.547, -7.827, 9.073, 27.09, 0.40991, -0.54254, -0.26767, -0.68253,
 16:30:28.527,e3:ca:2d:fd:e0:8c, 2015-01-01 04:41:24.300, 0.807, 0.093, -0.602, 0.244, 0.183, 0.061, 170.947, -52.971, -22.401, -24.013, -15.053, 8.627, 29.3, 0.15598, 0.86801, -0.2084, 0.4227,
 16:30:28.527,e3:ca:2d:fd:e0:8c, 2015-01-01 04:41:24.300, 0.809, 0.093, -0.604, -0.061, 0.122, 0.061, 170.947, -52.976, -22.396, -24.013, -15.053, 8.627, 29.3, 0.15598, 0.86801, -0.2084, 0.4227,
 16:30:28.547,ed:40:fe:65:30:6c, 2015-01-01 04:41:29.660, 0.962, -0.083, 0.272, 0.305, 0.244, 0, -16.787, -73.691, -105.353, -29.547, -7.827, 9.073, 27.09, 0.40991, -0.54254, -0.26767, -0.68253,
 16:30:28.547,ed:40:fe:65:30:6c, 2015-01-01 04:41:29.660, 0.964, -0.082, 0.272, 0.488, 0, -0.061, -16.771, -73.685, -105.37, -29.547, -7.827, 9.073, 27.09, 0.40991, -0.54254, -0.26767, -0.68253,
 16:30:28.549,f6:90:cc:01:6d:25, 2015-01-01 04:41:24.720, 0.934, 0.103, -0.301, 0, 0, 0, 160.389, -71.378, 15.991, -29.487, -15.607, 8.787, 31.59, -0.0578, -0.80627, -0.0119, -0.58847,
 16:30:28.549,f6:90:cc:01:6d:25, 2015-01-01 04:41:24.720, 0.935, 0.104, -0.295, 0, -0.061, 0, 160.389, -71.378, 16.007, -29.487, -15.607, 8.787, 31.59, -0.0578, -0.80627, -0.0119, -0.58847,
 16:30:28.551,ed:35:33:d3:6c:f8, 2015-01-01 04:41:24.400, 0.901, 0.01, 0.413, 0.244, -0.244, -0.488, 1.873, -65.402, 147.48, -23.600, -11.393, -17.380, 29.84, -0.2269, -0.5224, 0.138, -0.81021,
 16:30:28.551,ed:35:33:d3:6c:f8, 2015-01-01 04:41:24.400, 0.901, 0.01, 0.413, 0.793, -0.244, -0.061, 1.89, -65.407, 147.475, -23.600, -11.393, -17.380, 29.84, -0.2269, -0.5224, 0.138, -0.81021,
 16:30:28.593,e3:ca:2d:fd:e0:8c, 2015-01-01 04:41:24.300, 0.808, 0.096, -0.601, -0.122, 0.427, 0.061, 170.947, -52.982, -22.39, -24.013, -15.053, 8.627, 29.3, 0.15598, 0.86801, -0.2084, 0.4227,
 16:30:28.593,e3:ca:2d:fd:e0:8c, 2015-01-01 04:41:24.300, 0.808, 0.095, -0.599, -0.183, 0.549, 0, 170.942, -52.993, -22.379, -24.013, -15.053, 8.627, 29.3, 0.15598, 0.86801, -0.2084, 0.4227,
 16:30:28.593,ed:40:fe:65:30:6c, 2015-01-01 04:41:29.660, 0.966, -0.08, 0.274, 0.488, 0.244, -0.122, -16.754, -73.685, -105.375, -29.547, -7.827, 9.073, 27.09, 0.40991, -0.54254, -0.26767, -0.68253,
 16:30:28.593,ed:40:fe:65:30:6c, 2015-01-01 04:41:29.660, 0.963, -0.08, 0.272, 0.427, 0, -0.183, -16.727, -73.68, -105.386, -29.547, -7.827, 9.073, 27.09, 0.40991, -0.54254, -0.26767, -0.68253,
 16:30:28.594,f6:90:cc:01:6d:25, 2015-01-01 04:41:24.720, 0.935, 0.104, -0.292, 0.061, 0, 0, 160.395, -71.378, 16.018, -29.487, -15.607, 8.787, 31.59, -0.0578, -0.80627, -0.0119, -0.58847,
 16:30:28.594,f6:90:cc:01:6d:25, 2015-01-01 04:41:24.720, 0.935, 0.104, -0.297, 0.061, 0, 0, 160.4, -71.378, 16.035, -29.487, -15.607, 8.787, 31.59, -0.0578, -0.80627, -0.0119, -0.58847,
 16:30:28.596,ed:35:33:d3:6c:f8, 2015-01-01 04:41:24.715, 0.907, 0.011, 0.41, 0.854, 0, -0.122, 1.906, -65.407, 147.486, -23.600, -11.393, -17.380, 29.84, -0.2269, -0.5224, 0.138, -0.81021,
 16:30:28.596,ed:35:33:d3:6c:f8, 2015-01-01 04:41:24.715, 0.904, 0.013, 0.413, 0.61, -0.122, -0.122, 1.923, -65.413, 147.508, -23.600, -11.393, -17.380, 29.84, -0.2269, -0.5224, 0.138, -0.81021,
 16:30:28.616,e3:ca:2d:fd:e0:8c, 2015-01-01 04:41:24.300, 0.81, 0.094, -0.6, 0, 0.122, 0, 170.942, -52.998, -22.368, -24.013, -14.993, 9.240, 29.3, 0.15598, 0.86801, -0.2084, 0.4227,
 16:30:28.616,e3:ca:2d:fd:e0:8c, 2015-01-01 04:41:24.300, 0.811, 0.095, -0.599, 0, 0.183, -0.061, 170.936, -52.998, -22.363, -24.013, -14.993, 9.240, 29.3, 0.15598, 0.86801, -0.2084, 0.4227,
 16:30:28.638,ed:40:fe:65:30:6c, 2015-01-01 04:41:29.660, 0.963, -0.08, 0.273, 0.122, -0.061, -0.183, -16.71, -73.68, -105.403, -29.547, -7.827, 9.073, 27.09, 0.40991, -0.54254, -0.26767, -0.68253,
 16:30:28.638,ed:40:fe:65:30:6c, 2015-01-01 04:41:29.660, 0.965, -0.076, 0.272, -0.061, 0.061, -0.488, -16.683, -73.68, -105.436, -29.547, -7.827, 9.073, 27.09, 0.40991, -0.54254, -0.26767, -0.68253,
 16:30:28.640,f6:90:cc:01:6d:25, 2015-01-01 04:41:24.720, 0.934, 0.102, -0.296, -0.122, 0, 0, 160.406, -71.378, 16.051, -29.487, -15.607, 8.787, 31.59, -0.0578, -0.80627, -0.0119, -0.58847,
 16:30:28.640,f6:90:cc:01:6d:25, 2015-01-01 04:41:24.720, 0.935, 0.105, -0.295, -0.305, 0, 0, 160.4, -71.378, 16.068, -29.487, -15.607, 8.787, 31.59, -0.0578, -0.80627, -0.0119, -0.58847,
 16:30:28.641,ed:35:33:d3:6c:f8, 2015-01-01 04:41:24.715, 0.902, 0.011, 0.41, 0.366, -0.061, 0, 1.928, -65.413, 147.546, -23.600, -11.393, -17.380, 29.84, -0.2269, -0.5224, 0.138, -0.81021,
 16:30:28.641,ed:35:33:d3:6c:f8, 2015-01-01 04:41:24.715, 0.905, 0.011, 0.412, -0.061, 0.305, -0.671, 1.945, -65.413, 147.552, -23.600, -11.393, -17.380, 29.84, -0.2269, -0.5224, 0.138, -0.81021,
 16:30:28.664,e3:ca:2d:fd:e0:8c, 2015-01-01 04:41:24.300, 0.809, 0.096, -0.598, 0, 0.183, 0, 170.936, -53.004, -22.352, -24.013, -14.993, 9.240, 29.3, 0.15598, 0.86801, -0.2084, 0.4227,
 16:30:28.664,e3:ca:2d:fd:e0:8c, 2015-01-01 04:41:24.300, 0.808, 0.095, -0.599, 0.122, 0, -0.061, 170.936, -53.009, -22.341, -24.013, -14.993, 9.240, 29.3, 0.15598, 0.86801, -0.2084, 0.4227,
 16:30:28.664,ed:35:33:d3:6c:f8, 2015-01-01 04:41:24.715, 0.903, 0.016, 0.411, 0.122, 0.183, -1.16, 1.989, -65.407, 147.513, -23.600, -11.393, -17.380, 29.84, -0.2269, -0.5224, 0.138, -0.81021,
 16:30:28.665,ed:35:33:d3:6c:f8, 2015-01-01 04:41:24.715, 0.907, 0.019, 0.415, 0.549, 0.305, -0.427, 2.016, -65.402, 147.497, -23.600, -11.393, -17.380, 29.84, -0.2269, -0.5224, 0.138, -0.81021,
 16:30:28.683,ed:40:fe:65:30:6c, 2015-01-01 04:41:29.660, 0.964, -0.076, 0.273, 0, 0.061, -0.61, -16.639, -73.68, -105.491, -29.547, -7.827, 9.073, 27.09, 0.40991, -0.54254, -0.26767, -0.68253,
 16:30:28.683,ed:40:fe:65:30:6c, 2015-01-01 04:41:29.660, 0.966, -0.079, 0.275, 0.244, -0.122, -0.183, -16.606, -73.68, -105.529, -29.547, -7.827, 9.073, 27.09, 0.40991, -0.54254, -0.26767, -0.68253,
 16:30:28.683,e3:ca:2d:fd:e0:8c, 2015-01-01 04:41:24.300, 0.809, 0.096, -0.599, 0.122, 0.122, -0.061, 170.936, -53.009, -22.335, -24.013, -14.993, 9.240, 29.3, 0.15549, 0.86835, -0.20737, 0.42273,
 16:30:28.684,e3:ca:2d:fd:e0:8c, 2015-01-01 04:41:24.300, 0.811, 0.098, -0.602, -0.061, 0.183, -0.061, 170.936, -53.015, -22.324, -24.013, -14.993, 9.240, 29.3, 0.15549, 0.86835, -0.20737, 0.42273,
 16:30:28.685,f6:90:cc:01:6d:25, 2015-01-01 04:41:24.720, 0.935, 0.106, -0.297, -0.183, 0.122, 0, 160.4, -71.378, 16.084, -29.487, -15.607, 8.787, 31.59, -0.0578, -0.80627, -0.0119, -0.58847,
 16:30:28.685,f6:90:cc:01:6d:25, 2015-01-01 04:41:24.720, 0.935, 0.103, -0.3, -0.183, 0.061, 0, 160.395, -71.384, 16.1, -29.487, -15.607, 8.787, 31.59, -0.0578, -0.80627, -0.0119, -0.58847,
 16:30:28.707,f6:90:cc:01:6d:25, 2015-01-01 04:41:24.720, 0.935, 0.104, -0.294, -0.122, 0, 0, 160.395, -71.384, 16.117, -29.193, -15.547, 8.440, 31.59, -0.0578, -0.80627, -0.0119, -0.58847,
 16:30:28.707,f6:90:cc:01:6d:25, 2015-01-01 04:41:24.720, 0.934, 0.107, -0.296, -0.122, 0, 0, 160.4, -71.384, 16.133, -29.193, -15.547, 8.440, 31.59, -0.0578, -0.80627, -0.0119, -0.58847,
 16:30:28.709,ed:35:33:d3:6c:f8, 2015-01-01 04:41:24.715, 0.901, 0.017, 0.412, 0.671, 0, 0.122, 2.027, -65.402, 147.502, -23.600, -11.393, -17.380, 29.84, -0.2269, -0.5224, 0.138, -0.81021,
 16:30:28.709,ed:35:33:d3:6c:f8, 2015-01-01 04:41:24.715, 0.903, 0.015, 0.413, 0, 0.549, -0.122, 2.032, -65.396, 147.513, -23.600, -11.393, -17.380, 29.84, -0.2269, -0.5224, 0.138, -0.81021,
 16:30:28.729,e3:ca:2d:fd:e0:8c, 2015-01-01 04:41:24.300, 0.809, 0.098, -0.601, -0.122, 0.122, -0.061, 170.931, -53.015, -22.313, -24.013, -14.993, 9.240, 29.3, 0.15549, 0.86835, -0.20737, 0.42273,
 16:30:28.729,e3:ca:2d:fd:e0:8c, 2015-01-01 04:41:24.300, 0.808, 0.097, -0.603, -0.122, 0, -0.061, 170.925, -53.02, -22.302, -24.013, -14.993, 9.240, 29.3, 0.15549, 0.86835, -0.20737, 0.42273,
 16:30:28.750,ed:40:fe:65:30:6c, 2015-01-01 04:41:29.660, 0.962, -0.078, 0.273, 0.244, -0.305, 0.061, -16.595, -73.685, -105.551, -29.387, -8.260, 8.440, 27.09, 0.40991, -0.54254, -0.26767, -0.68253,
 16:30:28.750,ed:40:fe:65:30:6c, 2015-01-01 04:41:29.660, 0.964, -0.075, 0.276, -0.061, -0.305, -0.061, -16.595, -73.691, -105.568, -29.387, -8.260, 8.440, 27.09, 0.40991, -0.54254, -0.26767, -0.68253,
 16:30:28.752,f6:90:cc:01:6d:25, 2015-01-01 04:41:24.720, 0.934, 0.107, -0.3, -0.305, -0.061, 0, 160.395, -71.384, 16.144, -29.193, -15.547, 8.440, 31.59, -0.0578, -0.80627, -0.0119, -0.58847,
 16:30:28.752,f6:90:cc:01:6d:25, 2015-01-01 04:41:24.720, 0.935, 0.105, -0.297, -0.305, -0.122, 0, 160.389, -71.378, 16.155, -29.193, -15.547, 8.440, 31.59, -0.0578, -0.80627, -0.0119, -0.58847,
 16:30:28.755,ed:35:33:d3:6c:f8, 2015-01-01 04:41:24.715, 0.901, 0.015, 0.414, -0.366, 0.122, -0.427, 2.043, -65.391, 147.508, -23.600, -11.393, -17.380, 29.84, -0.2269, -0.5224, 0.138, -0.81021,
 16:30:28.755,ed:35:33:d3:6c:f8, 2015-01-01 04:41:24.715, 0.903, 0.016, 0.41, -0.122, 0, -0.61, 2.06, -65.391, 147.497, -23.600, -11.393, -17.380, 29.84, -0.2269, -0.5224, 0.138, -0.81021,
 16:30:28.772,ed:40:fe:65:30:6c, 2015-01-01 04:41:29.660, 0.961, -0.075, 0.272, -0.122, -0.366, -0.305, -16.584, -73.696, -105.595, -29.387, -8.260, 8.440, 27.09, 0.40979, -0.54245, -0.26685, -0.68301,
 16:30:28.772,ed:40:fe:65:30:6c, 2015-01-01 04:41:29.660, 0.964, -0.078, 0.274, -0.122, 0, -0.427, -16.556, -73.702, -105.634, -29.387, -8.260, 8.440, 27.09, 0.40979, -0.54245, -0.26685, -0.68301,
 16:30:28.774,e3:ca:2d:fd:e0:8c, 2015-01-01 04:41:24.660, 0.808, 0.096, -0.6, -0.061, 0.122, 0, 170.925, -53.02, -22.297, -24.013, -14.993, 9.240, 29.3, 0.15549, 0.86835, -0.20737, 0.42273,
 16:30:28.774,e3:ca:2d:fd:e0:8c, 2015-01-01 04:41:24.660, 0.808, 0.096, -0.601, -0.183, 0.244, -0.061, 170.92, -53.02, -22.286, -24.013, -14.993, 9.240, 29.3, 0.15549, 0.86835, -0.20737, 0.42273,
 16:30:28.796,e3:ca:2d:fd:e0:8c, 2015-01-01 04:41:24.660, 0.808, 0.095, -0.601, -0.366, 0.122, -0.061, 170.909, -53.026, -22.275, -24.013, -14.993, 9.240, 29.3, 0.15549, 0.86835, -0.20737, 0.42273,
 16:30:28.796,e3:ca:2d:fd:e0:8c, 2015-01-01 04:41:24.660, 0.811, 0.096, -0.601, -0.366, 0.122, 0, 170.903, -53.031, -22.269, -24.013, -14.993, 9.240, 29.3, 0.15549, 0.86835, -0.20737, 0.42273,
 16:30:28.799,ed:35:33:d3:6c:f8, 2015-01-01 04:41:24.715, 0.905, 0.015, 0.41, 0.366, -0.061, -0.305, 2.082, -65.391, 147.486, -23.373, -11.067, -17.293, 29.84, -0.2269, -0.5224, 0.138, -0.81021,
 16:30:28.799,ed:35:33:d3:6c:f8, 2015-01-01 04:41:24.715, 0.905, 0.017, 0.41, 0.244, 0, -0.305, 2.104, -65.391, 147.48, -23.373, -11.067, -17.293, 29.84, -0.2269, -0.5224, 0.138, -0.81021,
 16:30:28.818,ed:40:fe:65:30:6c, 2015-01-01 04:41:29.660, 0.965, -0.078, 0.272, 0.122, 0.122, -0.244, -16.523, -73.696, -105.683, -29.387, -8.260, 8.440, 27.09, 0.40979, -0.54245, -0.26685, -0.68301,
 16:30:28.818,ed:40:fe:65:30:6c, 2015-01-01 04:41:29.660, 0.966, -0.075, 0.273, 0, 0.183, -0.244, -16.496, -73.696, -105.716, -29.387, -8.260, 8.440, 27.09, 0.40979, -0.54245, -0.26685, -0.68301,
 16:30:28.840,ed:40:fe:65:30:6c, 2015-01-01 04:41:29.995, 0.967, -0.075, 0.273, 0, 0.366, -0.122, -16.469, -73.691, -105.738, -29.387, -8.260, 8.440, 27.09, 0.40979, -0.54245, -0.26685, -0.68301,
 16:30:28.840,ed:40:fe:65:30:6c, 2015-01-01 04:41:29.995, 0.965, -0.076, 0.269, 0, 0.366, -0.122, -16.447, -73.68, -105.754, -29.387, -8.260, 8.440, 27.09, 0.40979, -0.54245, -0.26685, -0.68301,
 16:30:28.842,f6:90:cc:01:6d:25, 2015-01-01 04:41:24.720, 0.934, 0.104, -0.297, -0.183, -0.061, 0, 160.389, -71.378, 16.172, -29.193, -15.547, 8.440, 31.59, -0.05609, -0.80627, -0.0141, -0.58859,
 16:30:28.842,f6:90:cc:01:6d:25, 2015-01-01 04:41:24.720, 0.935, 0.105, -0.297, -0.183, -0.183, 0, 160.389, -71.373, 16.183, -29.193, -15.547, 8.440, 31.59, -0.05609, -0.80627, -0.0141, -0.58859,
 16:30:28.842,e3:ca:2d:fd:e0:8c, 2015-01-01 04:41:24.660, 0.812, 0.098, -0.602, -0.122, 0.183, 0, 170.898, -53.031, -22.264, -24.013, -14.993, 9.240, 29.3, 0.15549, 0.86835, -0.20737, 0.42273,
 16:30:28.842,e3:ca:2d:fd:e0:8c, 2015-01-01 04:41:24.660, 0.809, 0.099, -0.6, 0.061, 0.183, 0, 170.892, -53.036, -22.253, -24.013, -14.993, 9.240, 29.3, 0.15549, 0.86835, -0.20737, 0.42273,
 16:30:28.844,ed:35:33:d3:6c:f8, 2015-01-01 04:41:24.715, 0.908, 0.019, 0.412, 0, 0.122, -0.244, 2.115, -65.391, 147.48, -23.373, -11.067, -17.293, 29.84, -0.22598, -0.52283, 0.13626, -0.81049,
 16:30:28.844,ed:35:33:d3:6c:f8, 2015-01-01 04:41:24.715, 0.905, 0.016, 0.408, 0.122, -0.183, -0.244, 2.126, -65.396, 147.491, -23.373, -11.067, -17.293, 29.84, -0.22598, -0.52283, 0.13626, -0.81049,
 16:30:28.864,f6:90:cc:01:6d:25, 2015-01-01 04:41:25.080, 0.935, 0.105, -0.298, -0.305, -0.122, 0, 160.389, -71.373, 16.194, -29.193, -15.547, 8.440, 31.59, -0.05609, -0.80627, -0.0141, -0.58859,
 16:30:28.864,f6:90:cc:01:6d:25, 2015-01-01 04:41:25.080, 0.934, 0.105, -0.297, -0.183, -0.061, 0, 160.389, -71.367, 16.205, -29.193, -15.547, 8.440, 31.59, -0.05609, -0.80627, -0.0141, -0.58859,
 16:30:28.865,ed:35:33:d3:6c:f8, 2015-01-01 04:41:25.005, 0.905, 0.016, 0.407, 0.183, -0.122, -0.427, 2.148, -65.402, 147.486, -23.373, -11.067, -17.293, 29.84, -0.22598, -0.52283, 0.13626, -0.81049,
 16:30:28.865,ed:35:33:d3:6c:f8, 2015-01-01 04:41:25.005, 0.906, 0.017, 0.413, -0.183, 0.122, -0.183, 2.159, -65.402, 147.475, -23.373, -11.067, -17.293, 29.84, -0.22598, -0.52283, 0.13626, -0.81049,
 16:30:28.886,ed:40:fe:65:30:6c, 2015-01-01 04:41:29.995, 0.966, -0.077, 0.269, 0, 0.488, -0.122, -16.425, -73.674, -105.765, -29.387, -8.260, 8.440, 27.09, 0.40979, -0.54245, -0.26685, -0.68301,
 16:30:28.886,ed:40:fe:65:30:6c, 2015-01-01 04:41:29.995, 0.965, -0.076, 0.274, 0, 0.366, -0.122, -16.397, -73.669, -105.787, -29.387, -8.260, 8.440, 27.09, 0.40979, -0.54245, -0.26685, -0.68301,
 16:30:28.886,e3:ca:2d:fd:e0:8c, 2015-01-01 04:41:24.660, 0.807, 0.099, -0.599, 0.061, 0.122, 0.061, 170.898, -53.036, -22.247, -24.013, -14.993, 9.240, 29.3, 0.15549, 0.86835, -0.20737, 0.42273,
 16:30:28.887,e3:ca:2d:fd:e0:8c, 2015-01-01 04:41:24.660, 0.809, 0.097, -0.6, 0, 0.183, 0.122, 170.898, -53.042, -22.242, -24.013, -14.993, 9.240, 29.3, 0.15549, 0.86835, -0.20737, 0.42273,
 16:30:28.888,f6:90:cc:01:6d:25, 2015-01-01 04:41:25.080, 0.935, 0.107, -0.296, 0, 0, 0, 160.389, -71.367, 16.216, -29.193, -15.547, 8.440, 31.59, -0.05609, -0.80627, -0.0141, -0.58859,
 16:30:28.888,f6:90:cc:01:6d:25, 2015-01-01 04:41:25.080, 0.934, 0.106, -0.301, -0.061, 0.122, 0, 160.389, -71.373, 16.232, -29.193, -15.547, 8.440, 31.59, -0.05609, -0.80627, -0.0141, -0.58859,
 16:30:28.907,ed:40:fe:65:30:6c, 2015-01-01 04:41:29.995, 0.964, -0.077, 0.274, -0.183, 0.122, -0.183, -16.375, -73.663, -105.815, -29.387, -8.260, 8.440, 27.09, 0.40979, -0.54245, -0.26685, -0.68301,
 16:30:28.907,ed:40:fe:65:30:6c, 2015-01-01 04:41:29.995, 0.963, -0.078, 0.274, -0.244, 0.244, -0.061, -16.364, -73.658, -105.848, -29.387, -8.260, 8.440, 27.09, 0.40979, -0.54245, -0.26685, -0.68301,
 16:30:28.909,f6:90:cc:01:6d:25, 2015-01-01 04:41:25.080, 0.935, 0.104, -0.295, -0.061, 0.122, 0, 160.384, -71.373, 16.249, -29.193, -15.547, 8.440, 31.59, -0.05609, -0.80627, -0.0141, -0.58859,
 16:30:28.909,f6:90:cc:01:6d:25, 2015-01-01 04:41:25.080, 0.934, 0.104, -0.296, 0, 0.122, 0, 160.384, -71.373, 16.265, -29.193, -15.547, 8.440, 31.59, -0.05609, -0.80627, -0.0141, -0.58859,
 16:30:28.910,ed:35:33:d3:6c:f8, 2015-01-01 04:41:25.005, 0.903, 0.016, 0.411, -0.427, 0, -0.61, 2.175, -65.402, 147.458, -23.373, -11.067, -17.293, 29.84, -0.22598, -0.52283, 0.13626, -0.81049,
 16:30:28.910,ed:35:33:d3:6c:f8, 2015-01-01 04:41:25.005, 0.905, 0.016, 0.411, -0.305, 0.122, -0.366, 2.186, -65.402, 147.448, -23.373, -11.067, -17.293, 29.84, -0.22598, -0.52283, 0.13626, -0.81049,
 16:30:28.954,e3:ca:2d:fd:e0:8c, 2015-01-01 04:41:24.660, 0.811, 0.097, -0.601, 0, 0.122, 0, 170.898, -53.047, -22.236, -24.013, -14.993, 9.240, 29.3, 0.15549, 0.86835, -0.20737, 0.42273,
 16:30:28.954,e3:ca:2d:fd:e0:8c, 2015-01-01 04:41:24.660, 0.809, 0.097, -0.599, 0.305, 0.061, 0, 170.898, -53.047, -22.231, -24.013, -14.993, 9.240, 29.3, 0.15549, 0.86835, -0.20737, 0.42273,
 16:30:28.955,ed:40:fe:65:30:6c, 2015-01-01 04:41:29.995, 0.963, -0.077, 0.271, -0.244, 0.305, -0.183, -16.348, -73.652, -105.881, -29.387, -8.260, 8.440, 27.09, 0.40979, -0.54245, -0.26685, -0.68301,
 16:30:28.955,ed:40:fe:65:30:6c, 2015-01-01 04:41:29.995, 0.97, -0.076, 0.275, -0.793, 0.793, -0.122, -16.331, -73.647, -105.919, -29.387, -8.260, 8.440, 27.09, 0.40979, -0.54245, -0.26685, -0.68301,
 16:30:28.956,ed:35:33:d3:6c:f8, 2015-01-01 04:41:25.005, 0.901, 0.013, 0.409, -0.122, 0, -0.366, 2.197, -65.402, 147.426, -23.373, -11.067, -17.293, 29.84, -0.22598, -0.52283, 0.13626, -0.81049,
 16:30:28.956,ed:35:33:d3:6c:f8, 2015-01-01 04:41:25.005, 0.906, 0.017, 0.407, -0.549, 0.366, -0.488, 2.208, -65.402, 147.404, -23.373, -11.067, -17.293, 29.84, -0.22598, -0.52283, 0.13626, -0.81049,
 16:30:28.956,f6:90:cc:01:6d:25, 2015-01-01 04:41:25.080, 0.934, 0.104, -0.298, 0.244, 0.122, 0, 160.384, -71.378, 16.282, -29.193, -15.547, 8.440, 31.59, -0.05609, -0.80627, -0.0141, -0.58859,
 16:30:28.956,f6:90:cc:01:6d:25, 2015-01-01 04:41:25.080, 0.935, 0.105, -0.296, 0.183, 0.183, 0, 160.389, -71.378, 16.298, -29.193, -15.547, 8.440, 31.59, -0.05609, -0.80627, -0.0141, -0.58859,
 16:30:28.977,e3:ca:2d:fd:e0:8c, 2015-01-01 04:41:24.660, 0.808, 0.096, -0.598, 0.061, 0.061, 0.061, 170.903, -53.047, -22.225, -24.067, -14.907, 8.707, 29.3, 0.15549, 0.86835, -0.20737, 0.42273,
 16:30:28.977,e3:ca:2d:fd:e0:8c, 2015-01-01 04:41:24.660, 0.809, 0.096, -0.598, 0, 0, 0.061, 170.903, -53.047, -22.22, -24.067, -14.907, 8.707, 29.3, 0.15549, 0.86835, -0.20737, 0.42273,
 16:30:28.999,f6:90:cc:01:6d:25, 2015-01-01 04:41:25.080, 0.935, 0.104, -0.295, -0.122, 0.305, 0, 160.384, -71.384, 16.315, -29.193, -15.547, 8.440, 31.59, -0.05609, -0.80627, -0.0141, -0.58859,
 16:30:28.999,f6:90:cc:01:6d:25, 2015-01-01 04:41:25.080, 0.934, 0.104, -0.296, -0.366, 0.244, 0, 160.373, -71.389, 16.331, -29.193, -15.547, 8.440, 31.59, -0.05609, -0.80627, -0.0141, -0.58859,
 16:30:29.001,ed:35:33:d3:6c:f8, 2015-01-01 04:41:25.005, 0.911, 0.017, 0.412, -0.671, 0, -0.671, 2.225, -65.402, 147.387, -23.373, -11.067, -17.293, 29.84, -0.22598, -0.52283, 0.13626, -0.81049,
 16:30:29.001,ed:35:33:d3:6c:f8, 2015-01-01 04:41:25.005, 0.901, 0.017, 0.411, -1.465, 0.671, -0.854, 2.236, -65.391, 147.36, -23.373, -11.067, -17.293, 29.84, -0.22598, -0.52283, 0.13626, -0.81049,
 16:30:29.020,ed:40:fe:65:30:6c, 2015-01-01 04:41:29.995, 0.967, -0.077, 0.273, -1.526, 0.549, 0, -16.326, -73.63, -105.963, -29.387, -8.260, 8.440, 27.09, 0.40979, -0.54245, -0.26685, -0.68301,
 16:30:29.020,ed:40:fe:65:30:6c, 2015-01-01 04:41:29.995, 0.96, -0.077, 0.273, -2.014, -0.061, 0.061, -16.353, -73.625, -105.985, -29.387, -8.260, 8.440, 27.09, 0.40979, -0.54245, -0.26685, -0.68301,
 16:30:29.021,e3:ca:2d:fd:e0:8c, 2015-01-01 04:41:24.660, 0.811, 0.094, -0.601, 0.183, -0.122, 0, 170.903, -53.047, -22.214, -24.067, -14.907, 8.707, 29.3, 0.15549, 0.86835, -0.20737, 0.42273,
 16:30:29.021,e3:ca:2d:fd:e0:8c, 2015-01-01 04:41:24.660, 0.809, 0.093, -0.599, 0.183, -0.244, 0, 170.909, -53.047, -22.214, -24.067, -14.907, 8.707, 29.3, 0.15549, 0.86835, -0.20737, 0.42273,
 16:30:29.042,ed:40:fe:65:30:6c, 2015-01-01 04:41:29.995, 0.962, -0.073, 0.278, -2.38, 0.061, 0.061, -16.392, -73.625, -105.996, -29.407, -7.847, 7.967, 27.09, 0.40979, -0.54245, -0.26685, -0.68301,
 16:30:29.042,ed:40:fe:65:30:6c, 2015-01-01 04:41:29.995, 0.965, -0.074, 0.278, -2.502, 0.977, -0.305, -16.403, -73.614, -106.035, -29.407, -7.847, 7.967, 27.09, 0.40979, -0.54245, -0.26685, -0.68301,
 16:30:29.043,e3:ca:2d:fd:e0:8c, 2015-01-01 04:41:24.660, 0.81, 0.097, -0.602, 0.061, -0.305, 0, 170.909, -53.042, -22.209, -24.067, -14.907, 8.707, 29.3, 0.15527, 0.86838, -0.20651, 0.42313,
 16:30:29.043,e3:ca:2d:fd:e0:8c, 2015-01-01 04:41:24.660, 0.811, 0.098, -0.601, 0, -0.244, 0, 170.914, -53.036, -22.203, -24.067, -14.907, 8.707, 29.3, 0.15527, 0.86838, -0.20651, 0.42313,
 16:30:29.049,ed:35:33:d3:6c:f8, 2015-01-01 04:41:25.005, 0.901, 0.018, 0.411, -1.831, 1.831, -1.038, 2.241, -65.363, 147.321, -23.373, -11.067, -17.293, 29.84, -0.22598, -0.52283, 0.13626, -0.81049,
 16:30:29.050,ed:35:33:d3:6c:f8, 2015-01-01 04:41:25.005, 0.905, 0.018, 0.414, -1.953, 2.136, -1.282, 2.252, -65.325, 147.288, -23.373, -11.067, -17.293, 29.84, -0.22598, -0.52283, 0.13626, -0.81049,
 16:30:29.067,f6:90:cc:01:6d:25, 2015-01-01 04:41:25.080, 0.934, 0.104, -0.3, -0.732, 0.183, 0, 160.356, -71.395, 16.348, -29.193, -15.547, 8.440, 31.59, -0.05609, -0.80627, -0.0141, -0.58859,
 16:30:29.067,f6:90:cc:01:6d:25, 2015-01-01 04:41:25.080, 0.935, 0.107, -0.297, -1.16, 0, 0, 160.34, -71.389, 16.348, -29.193, -15.547, 8.440, 31.59, -0.05609, -0.80627, -0.0141, -0.58859,
 16:30:29.069,ed:35:33:d3:6c:f8, 2015-01-01 04:41:25.005, 0.902, 0.019, 0.418, -1.77, 1.282, -1.709, 2.285, -65.292, 147.228, -23.047, -11.493, -17.533, 29.84, -0.22598, -0.52283, 0.13626, -0.81049,
 16:30:29.069,ed:35:33:d3:6c:f8, 2015-01-01 04:41:25.005, 0.905, 0.019, 0.416, -0.671, 0.427, -0.793, 2.313, -65.281, 147.167, -23.047, -11.493, -17.533, 29.84, -0.22598, -0.52283, 0.13626, -0.81049,
 16:30:29.087,ed:40:fe:65:30:6c, 2015-01-01 04:41:29.995, 0.963, -0.076, 0.276, -1.953, 0.549, -0.427, -16.397, -73.597, -106.084, -29.407, -7.847, 7.967, 27.09, 0.40979, -0.54245, -0.26685, -0.68301,
 16:30:29.087,ed:40:fe:65:30:6c, 2015-01-01 04:41:29.995, 0.965, -0.079, 0.274, -1.16, 0, -0.244, -16.392, -73.597, -106.111, -29.407, -7.847, 7.967, 27.09, 0.40979, -0.54245, -0.26685, -0.68301,
 16:30:29.090,f6:90:cc:01:6d:25, 2015-01-01 04:41:25.080, 0.935, 0.107, -0.295, -1.16, -0.366, 0, 160.323, -71.384, 16.326, -28.887, -15.193, 7.907, 31.59, -0.05609, -0.80627, -0.0141, -0.58859,
 16:30:29.090,f6:90:cc:01:6d:25, 2015-01-01 04:41:25.080, 0.936, 0.105, -0.3, -0.977, -0.427, 0, 160.312, -71.378, 16.265, -28.887, -15.193, 7.907, 31.59, -0.05609, -0.80627, -0.0141, -0.58859,
 16:30:29.110,e3:ca:2d:fd:e0:8c, 2015-01-01 04:41:24.660, 0.809, 0.099, -0.6, -0.244, -0.366, 0, 170.909, -53.031, -22.198, -24.067, -14.907, 8.707, 29.3, 0.15527, 0.86838, -0.20651, 0.42313,
 16:30:29.110,e3:ca:2d:fd:e0:8c, 2015-01-01 04:41:24.660, 0.808, 0.097, -0.601, -0.122, -0.122, 0, 170.909, -53.026, -22.192, -24.067, -14.907, 8.707, 29.3, 0.15527, 0.86838, -0.20651, 0.42313,
 16:30:29.110,ed:40:fe:65:30:6c, 2015-01-01 04:41:29.995, 0.965, -0.08, 0.273, -0.793, 0, 0, -16.392, -73.597, -106.122, -29.407, -7.847, 7.967, 27.09, 0.40805, -0.54245, -0.26511, -0.68472,
 16:30:29.110,ed:40:fe:65:30:6c, 2015-01-01 04:41:29.995, 0.965, -0.08, 0.272, -0.61, -0.183, 0.183, -16.408, -73.597, -106.128, -29.407, -7.847, 7.967, 27.09, 0.40805, -0.54245, -0.26511, -0.68472,
 16:30:29.115,ed:35:33:d3:6c:f8, 2015-01-01 04:41:25.005, 0.904, 0.018, 0.415, -0.427, -0.122, -0.366, 2.324, -65.281, 147.123, -23.047, -11.493, -17.533, 29.84, -0.22598, -0.52283, 0.13626, -0.81049,
 16:30:29.115,ed:35:33:d3:6c:f8, 2015-01-01 04:41:25.005, 0.906, 0.017, 0.415, -0.61, 0.061, 0.061, 2.313, -65.281, 147.085, -23.047, -11.493, -17.533, 29.84, -0.22598, -0.52283, 0.13626, -0.81049,
 16:30:29.134,e3:ca:2d:fd:e0:8c, 2015-01-01 04:41:25.015, 0.807, 0.094, -0.602, 0, -0.061, 0, 170.903, -53.026, -22.187, -24.067, -14.907, 8.707, 29.3, 0.15527, 0.86838, -0.20651, 0.42313,
 16:30:29.134,e3:ca:2d:fd:e0:8c, 2015-01-01 04:41:25.015, 0.811, 0.093, -0.601, 0.183, 0.183, 0, 170.909, -53.031, -22.181, -24.067, -14.907, 8.707, 29.3, 0.15527, 0.86838, -0.20651, 0.42313,
 16:30:29.135,f6:90:cc:01:6d:25, 2015-01-01 04:41:25.080, 0.935, 0.103, -0.3, -0.854, -0.305, 0, 160.307, -71.373, 16.216, -28.887, -15.193, 7.907, 31.59, -0.05609, -0.80627, -0.0141, -0.58859,
 16:30:29.135,f6:90:cc:01:6d:25, 2015-01-01 04:41:25.080, 0.934, 0.103, -0.299, -0.488, -0.183, 0, 160.302, -71.367, 16.172, -28.887, -15.193, 7.907, 31.59, -0.05609, -0.80627, -0.0141, -0.58859,
 16:30:29.155,ed:40:fe:65:30:6c, 2015-01-01 04:41:29.995, 0.962, -0.082, 0.271, -0.244, -0.122, 0.244, -16.43, -73.597, -106.122, -29.407, -7.847, 7.967, 27.09, 0.40805, -0.54245, -0.26511, -0.68472,
 16:30:29.155,ed:40:fe:65:30:6c, 2015-01-01 04:41:29.995, 0.961, -0.079, 0.274, 0.122, -0.061, 0, -16.43, -73.597, -106.122, -29.407, -7.847, 7.967, 27.09, 0.40805, -0.54245, -0.26511, -0.68472,
 16:30:29.157,f6:90:cc:01:6d:25, 2015-01-01 04:41:25.080, 0.935, 0.103, -0.296, -0.244, -0.122, 0, 160.307, -71.362, 16.128, -28.887, -15.193, 7.907, 31.59, -0.05676, -0.8063, -0.01364, -0.5885,
 16:30:29.157,f6:90:cc:01:6d:25, 2015-01-01 04:41:25.080, 0.934, 0.106, -0.295, -0.122, -0.122, 0, 160.307, -71.362, 16.089, -28.887, -15.193, 7.907, 31.59, -0.05676, -0.8063, -0.01364, -0.5885,
 16:30:29.158,ed:35:33:d3:6c:f8, 2015-01-01 04:41:25.005, 0.902, 0.013, 0.411, -0.61, 0, 0.183, 2.296, -65.286, 147.068, -23.047, -11.493, -17.533, 29.84, -0.22784, -0.52203, 0.13629, -0.81049,
 16:30:29.158,ed:35:33:d3:6c:f8, 2015-01-01 04:41:25.005, 0.901, 0.013, 0.411, -0.061, 0, 0.122, 2.285, -65.286, 147.052, -23.047, -11.493, -17.533, 29.84, -0.22784, -0.52203, 0.13629, -0.81049,
 16:30:29.179,e3:ca:2d:fd:e0:8c, 2015-01-01 04:41:25.015, 0.812, 0.097, -0.6, -0.061, 0.244, 0, 170.909, -53.036, -22.176, -24.067, -14.907, 8.707, 29.3, 0.15527, 0.86838, -0.20651, 0.42313,
 16:30:29.179,e3:ca:2d:fd:e0:8c, 2015-01-01 04:41:25.015, 0.808, 0.1, -0.6, -0.183, 0.183, 0, 170.903, -53.036, -22.17, -24.067, -14.907, 8.707, 29.3, 0.15527, 0.86838, -0.20651, 0.42313,
 16:30:29.200,ed:40:fe:65:30:6c, 2015-01-01 04:41:30.330, 0.964, -0.078, 0.275, 0.244, -0.061, -0.061, -16.419, -73.597, -106.128, -29.407, -7.847, 7.967, 27.09, 0.40805, -0.54245, -0.26511, -0.68472,
 16:30:29.200,ed:40:fe:65:30:6c, 2015-01-01 04:41:30.330, 0.965, -0.076, 0.276, -0.061, 0.122, 0, -16.408, -73.597, -106.139, -29.407, -7.847, 7.967, 27.09, 0.40805, -0.54245, -0.26511, -0.68472,
 16:30:29.202,e3:ca:2d:fd:e0:8c, 2015-01-01 04:41:25.015, 0.805, 0.097, -0.599, -0.122, 0.122, 0, 170.898, -53.042, -22.165, -24.067, -14.907, 8.707, 29.3, 0.15527, 0.86838, -0.20651, 0.42313,
 16:30:29.202,e3:ca:2d:fd:e0:8c, 2015-01-01 04:41:25.015, 0.808, 0.094, -0.6, 0.061, 0.122, 0, 170.898, -53.047, -22.159, -24.067, -14.907, 8.707, 29.3, 0.15527, 0.86838, -0.20651, 0.42313,
 16:30:29.203,f6:90:cc:01:6d:25, 2015-01-01 04:41:25.080, 0.935, 0.106, -0.296, -0.061, -0.122, 0, 160.312, -71.362, 16.062, -28.887, -15.193, 7.907, 31.59, -0.05676, -0.8063, -0.01364, -0.5885,
 16:30:29.203,f6:90:cc:01:6d:25, 2015-01-01 04:41:25.080, 0.934, 0.105, -0.298, -0.183, 0.061, 0, 160.312, -71.362, 16.029, -28.887, -15.193, 7.907, 31.59, -0.05676, -0.8063, -0.01364, -0.5885,
 16:30:29.205,ed:35:33:d3:6c:f8, 2015-01-01 04:41:25.320, 0.9, 0.016, 0.413, 0.427, 0.183, 0.244, 2.28, -65.286, 147.041, -23.047, -11.493, -17.533, 29.84, -0.22784, -0.52203, 0.13629, -0.81049,
 16:30:29.205,ed:35:33:d3:6c:f8, 2015-01-01 04:41:25.320, 0.904, 0.017, 0.414, -0.122, 0.061, 0, 2.28, -65.286, 147.047, -23.047, -11.493, -17.533, 29.84, -0.22784, -0.52203, 0.13629, -0.81049,
 16:30:29.226,ed:35:33:d3:6c:f8, 2015-01-01 04:41:25.320, 0.9, 0.017, 0.416, -0.244, 0.183, -0.122, 2.28, -65.286, 147.068, -23.047, -11.493, -17.533, 29.84, -0.22784, -0.52203, 0.13629, -0.81049,
 16:30:29.226,ed:35:33:d3:6c:f8, 2015-01-01 04:41:25.320, 0.899, 0.017, 0.41, 0, -0.122, 0, 2.28, -65.286, 147.074, -23.047, -11.493, -17.533, 29.84, -0.22784, -0.52203, 0.13629, -0.81049,
 16:30:29.245,ed:40:fe:65:30:6c, 2015-01-01 04:41:30.330, 0.96, -0.077, 0.274, 0, 0.122, 0, -16.397, -73.592, -106.139, -29.407, -7.847, 7.967, 27.09, 0.40805, -0.54245, -0.26511, -0.68472,
 16:30:29.245,ed:40:fe:65:30:6c, 2015-01-01 04:41:30.330, 0.963, -0.078, 0.277, 0, 0.183, 0, -16.392, -73.592, -106.139, -29.407, -7.847, 7.967, 27.09, 0.40805, -0.54245, -0.26511, -0.68472,
 16:30:29.247,f6:90:cc:01:6d:25, 2015-01-01 04:41:25.455, 0.935, 0.105, -0.299, -0.061, 0.122, 0, 160.307, -71.362, 16.018, -28.887, -15.193, 7.907, 31.59, -0.05676, -0.8063, -0.01364, -0.5885,
 16:30:29.247,f6:90:cc:01:6d:25, 2015-01-01 04:41:25.455, 0.934, 0.105, -0.296, 0, 0.122, 0, 160.312, -71.362, 16.024, -28.887, -15.193, 7.907, 31.59, -0.05676, -0.8063, -0.01364, -0.5885,
 16:30:29.247,e3:ca:2d:fd:e0:8c, 2015-01-01 04:41:25.015, 0.812, 0.096, -0.6, 0, 0.122, 0, 170.898, -53.047, -22.154, -24.067, -14.907, 8.707, 29.3, 0.15527, 0.86838, -0.20651, 0.42313,
 16:30:29.247,e3:ca:2d:fd:e0:8c, 2015-01-01 04:41:25.015, 0.811, 0.1, -0.601, 0, 0.061, 0, 170.898, -53.047, -22.148, -24.067, -14.907, 8.707, 29.3, 0.15527, 0.86838, -0.20651, 0.42313,
 16:30:29.272,f6:90:cc:01:6d:25, 2015-01-01 04:41:25.455, 0.935, 0.106, -0.298, -0.183, 0.061, 0, 160.307, -71.367, 16.013, -28.887, -15.193, 7.907, 31.59, -0.05676, -0.8063, -0.01364, -0.5885,
 16:30:29.272,f6:90:cc:01:6d:25, 2015-01-01 04:41:25.455, 0.935, 0.108, -0.295, 0, 0, 0, 160.307, -71.367, 15.974, -28.887, -15.193, 7.907, 31.59, -0.05676, -0.8063, -0.01364, -0.5885,
 16:30:29.272,ed:35:33:d3:6c:f8, 2015-01-01 04:41:25.320, 0.905, 0.013, 0.42, -0.061, -0.305, -0.305, 2.285, -65.292, 147.074, -23.047, -11.493, -17.533, 29.84, -0.22784, -0.52203, 0.13629, -0.81049,
 16:30:29.272,ed:35:33:d3:6c:f8, 2015-01-01 04:41:25.320, 0.902, 0.016, 0.416, -0.183, -0.793, -1.221, 2.329, -65.303, 147.041, -23.047, -11.493, -17.533, 29.84, -0.22784, -0.52203, 0.13629, -0.81049,
 16:30:29.290,ed:40:fe:65:30:6c, 2015-01-01 04:41:30.330, 0.965, -0.076, 0.282, -1.221, 0.366, -0.061, -16.392, -73.581, -106.15, -29.407, -7.847, 7.967, 27.09, 0.40805, -0.54245, -0.26511, -0.68472,
 16:30:29.290,ed:40:fe:65:30:6c, 2015-01-01 04:41:30.330, 0.961, -0.076, 0.273, -1.526, -0.244, -0.488, -16.386, -73.586, -106.183, -29.407, -7.847, 7.967, 27.09, 0.40805, -0.54245, -0.26511, -0.68472,
 16:30:29.313,ed:40:fe:65:30:6c, 2015-01-01 04:41:30.330, 0.963, -0.077, 0.274, -0.732, -0.488, -0.244, -16.386, -73.592, -106.205, -29.407, -7.847, 7.967, 27.09, 0.40805, -0.54245, -0.26511, -0.68472,
 16:30:29.313,ed:40:fe:65:30:6c, 2015-01-01 04:41:30.330, 0.971, -0.077, 0.274, -0.549, 0.061, -0.183, -16.375, -73.592, -106.221, -29.407, -7.847, 7.967, 27.09, 0.40805, -0.54245, -0.26511, -0.68472,
 16:30:29.315,e3:ca:2d:fd:e0:8c, 2015-01-01 04:41:25.015, 0.809, 0.098, -0.6, 0, 0.244, 0, 170.892, -53.053, -22.143, -24.067, -14.907, 8.707, 29.3, 0.15527, 0.86838, -0.20651, 0.42313,
 16:30:29.315,e3:ca:2d:fd:e0:8c, 2015-01-01 04:41:25.015, 0.809, 0.097, -0.6, 0.305, 0.122, 0, 170.898, -53.058, -22.137, -24.067, -14.907, 8.707, 29.3, 0.15527, 0.86838, -0.20651, 0.42313,
 16:30:29.316,f6:90:cc:01:6d:25, 2015-01-01 04:41:25.455, 0.935, 0.107, -0.296, 0.366, 0, 0, 160.318, -71.367, 15.936, -28.887, -15.193, 7.907, 31.59, -0.05676, -0.8063, -0.01364, -0.5885,
 16:30:29.316,f6:90:cc:01:6d:25, 2015-01-01 04:41:25.455, 0.936, 0.104, -0.297, 0.61, 0, 0, 160.329, -71.367, 15.908, -28.887, -15.193, 7.907, 31.59, -0.05676, -0.8063, -0.01364, -0.5885,
 16:30:29.317,ed:35:33:d3:6c:f8, 2015-01-01 04:41:25.320, 0.903, 0.021, 0.412, 0.732, -0.549, -0.427, 2.362, -65.319, 147.036, -23.047, -11.493, -17.533, 29.84, -0.22784, -0.52203, 0.13629, -0.81049,
 16:30:29.317,ed:35:33:d3:6c:f8, 2015-01-01 04:41:25.320, 0.911, 0.018, 0.411, 0.854, -0.366, -0.122, 2.39, -65.325, 147.047, -23.047, -11.493, -17.533, 29.84, -0.22784, -0.52203, 0.13629, -0.81049,
 16:30:29.336,e3:ca:2d:fd:e0:8c, 2015-01-01 04:41:25.015, 0.81, 0.095, -0.598, 0.122, 0.061, 0, 170.898, -53.058, -22.132, -24.280, -14.880, 8.860, 29.3, 0.15527, 0.86838, -0.20651, 0.42313,
 16:30:29.336,e3:ca:2d:fd:e0:8c, 2015-01-01 04:41:25.015, 0.81, 0.095, -0.597, -0.244, 0, 0, 170.892, -53.058, -22.126, -24.280, -14.880, 8.860, 29.3, 0.15527, 0.86838, -0.20651, 0.42313,
 16:30:29.360,f6:90:cc:01:6d:25, 2015-01-01 04:41:25.455, 0.936, 0.103, -0.299, 0.244, 0, 0, 160.334, -71.367, 15.897, -28.887, -15.193, 7.907, 31.59, -0.05676, -0.8063, -0.01364, -0.5885,
 16:30:29.360,f6:90:cc:01:6d:25, 2015-01-01 04:41:25.455, 0.935, 0.104, -0.298, 0, 0, 0, 160.34, -71.362, 15.886, -28.887, -15.193, 7.907, 31.59, -0.05676, -0.8063, -0.01364, -0.5885,
 16:30:29.362,ed:35:33:d3:6c:f8, 2015-01-01 04:41:25.320, 0.911, 0.018, 0.409, -0.244, -0.305, -0.305, 2.401, -65.33, 147.052, -23.047, -11.493, -17.533, 29.84, -0.22784, -0.52203, 0.13629, -0.81049,
 16:30:29.362,ed:35:33:d3:6c:f8, 2015-01-01 04:41:25.320, 0.905, 0.018, 0.407, -0.793, 0.244, -0.427, 2.406, -65.33, 147.047, -23.047, -11.493, -17.533, 29.84, -0.22784, -0.52203, 0.13629, -0.81049,
 16:30:29.380,ed:40:fe:65:30:6c, 2015-01-01 04:41:30.330, 0.969, -0.076, 0.27, -0.854, 0.366, -0.244, -16.364, -73.586, -106.26, -29.407, -7.847, 7.967, 27.09, 0.40805, -0.54245, -0.26511, -0.68472,
 16:30:29.380,ed:40:fe:65:30:6c, 2015-01-01 04:41:30.330, 0.965, -0.075, 0.271, -0.793, 0.061, -0.244, -16.353, -73.586, -106.309, -29.407, -7.847, 7.967, 27.09, 0.40805, -0.54245, -0.26511, -0.68472,
 16:30:29.382,e3:ca:2d:fd:e0:8c, 2015-01-01 04:41:25.015, 0.811, 0.097, -0.601, -0.244, -0.061, 0, 170.887, -53.058, -22.121, -24.280, -14.880, 8.860, 29.3, 0.15527, 0.86838, -0.20651, 0.42313,
 16:30:29.382,e3:ca:2d:fd:e0:8c, 2015-01-01 04:41:25.015, 0.809, 0.098, -0.601, 0.122, 0.061, 0, 170.887, -53.058, -22.115, -24.280, -14.880, 8.860, 29.3, 0.15527, 0.86838, -0.20651, 0.42313,
 16:30:29.402,ed:40:fe:65:30:6c, 2015-01-01 04:41:30.330, 0.966, -0.077, 0.274, -0.732, 0.061, -0.183, -16.348, -73.586, -106.348, -29.133, -8.260, 7.673, 27.09, 0.40805, -0.54245, -0.26511, -0.68472,
 16:30:29.402,ed:40:fe:65:30:6c, 2015-01-01 04:41:30.330, 0.969, -0.078, 0.273, -0.793, 0.061, 0, -16.348, -73.586, -106.375, -29.133, -8.260, 7.673, 27.09, 0.40805, -0.54245, -0.26511, -0.68472,
 16:30:29.407,ed:35:33:d3:6c:f8, 2015-01-01 04:41:25.320, 0.904, 0.02, 0.412, -0.366, 0.366, -0.732, 2.422, -65.325, 147.03, -23.307, -11.200, -17.487, 29.84, -0.22784, -0.52203, 0.13629, -0.81049,
 16:30:29.407,ed:35:33:d3:6c:f8, 2015-01-01 04:41:25.320, 0.909, 0.02, 0.411, 0.244, 0.244, -0.122, 2.439, -65.325, 147.014, -23.307, -11.200, -17.487, 29.84, -0.22784, -0.52203, 0.13629, -0.81049,
 16:30:29.427,f6:90:cc:01:6d:25, 2015-01-01 04:41:25.455, 0.936, 0.105, -0.302, 0, 0, 0, 160.34, -71.362, 15.864, -28.887, -15.193, 7.907, 31.59, -0.05676, -0.8063, -0.01364, -0.5885,
 16:30:29.427,f6:90:cc:01:6d:25, 2015-01-01 04:41:25.455, 0.935, 0.105, -0.299, 0.305, 0.061, 0, 160.345, -71.362, 15.842, -28.887, -15.193, 7.907, 31.59, -0.05676, -0.8063, -0.01364, -0.5885,
 16:30:29.427,e3:ca:2d:fd:e0:8c, 2015-01-01 04:41:25.015, 0.809, 0.097, -0.6, 0.122, 0.366, 0, 170.887, -53.069, -22.11, -24.280, -14.880, 8.860, 29.3, 0.15512, 0.86847, -0.20584, 0.42337,
 16:30:29.428,e3:ca:2d:fd:e0:8c, 2015-01-01 04:41:25.015, 0.81, 0.096, -0.6, -0.122, 0.427, 0, 170.887, -53.075, -22.104, -24.280, -14.880, 8.860, 29.3, 0.15512, 0.86847, -0.20584, 0.42337,
 16:30:29.431,ed:35:33:d3:6c:f8, 2015-01-01 04:41:25.320, 0.906, 0.022, 0.408, 0.427, 0.366, 0.061, 2.444, -65.319, 147.014, -23.307, -11.200, -17.487, 29.84, -0.22781, -0.52243, 0.13586, -0.8103,
 16:30:29.431,ed:35:33:d3:6c:f8, 2015-01-01 04:41:25.320, 0.904, 0.021, 0.41, -0.061, 0.61, 0.366, 2.439, -65.314, 147.036, -23.307, -11.200, -17.487, 29.84, -0.22781, -0.52243, 0.13586, -0.8103,
 16:30:29.447,ed:40:fe:65:30:6c, 2015-01-01 04:41:30.330, 0.966, -0.074, 0.27, -0.61, 0, 0.244, -16.364, -73.586, -106.386, -29.133, -8.260, 7.673, 27.09, 0.40805, -0.54245, -0.26511, -0.68472,
 16:30:29.447,ed:40:fe:65:30:6c, 2015-01-01 04:41:30.330, 0.965, -0.075, 0.275, -0.977, 0, 0.366, -16.397, -73.581, -106.37, -29.133, -8.260, 7.673, 27.09, 0.40805, -0.54245, -0.26511, -0.68472,
 16:30:29.451,f6:90:cc:01:6d:25, 2015-01-01 04:41:25.455, 0.935, 0.106, -0.297, 0.122, 0.183, 0, 160.351, -71.362, 15.842, -28.973, -15.633, 8.907, 31.59, -0.05676, -0.8063, -0.01364, -0.5885,
 16:30:29.451,f6:90:cc:01:6d:25, 2015-01-01 04:41:25.455, 0.935, 0.105, -0.295, 0.183, 0.122, 0, 160.356, -71.367, 15.853, -28.973, -15.633, 8.907, 31.59, -0.05676, -0.8063, -0.01364, -0.5885,
 16:30:29.472,e3:ca:2d:fd:e0:8c, 2015-01-01 04:41:25.015, 0.811, 0.095, -0.603, 0.061, 0.366, 0, 170.881, -53.086, -22.094, -24.280, -14.880, 8.860, 29.3, 0.15512, 0.86847, -0.20584, 0.42337,
 16:30:29.472,e3:ca:2d:fd:e0:8c, 2015-01-01 04:41:25.015, 0.811, 0.096, -0.604, 0.183, 0.427, 0, 170.887, -53.091, -22.088, -24.280, -14.880, 8.860, 29.3, 0.15512, 0.86847, -0.20584, 0.42337,
 16:30:29.475,ed:35:33:d3:6c:f8, 2015-01-01 04:41:25.320, 0.9, 0.018, 0.41, -0.61, 0.732, -0.061, 2.428, -65.303, 147.047, -23.307, -11.200, -17.487, 29.84, -0.22781, -0.52243, 0.13586, -0.8103,
 16:30:29.475,ed:35:33:d3:6c:f8, 2015-01-01 04:41:25.320, 0.898, 0.019, 0.417, -0.854, 0.916, -0.244, 2.422, -65.286, 147.036, -23.307, -11.200, -17.487, 29.84, -0.22781, -0.52243, 0.13586, -0.8103,
 16:30:29.494,e3:ca:2d:fd:e0:8c, 2015-01-01 04:41:25.375, 0.807, 0.099, -0.601, 0.244, 0.427, 0, 170.887, -53.097, -22.083, -24.280, -14.880, 8.860, 29.3, 0.15512, 0.86847, -0.20584, 0.42337,
 16:30:29.494,e3:ca:2d:fd:e0:8c, 2015-01-01 04:41:25.375, 0.804, 0.098, -0.599, 0, 0.488, 0, 170.887, -53.108, -22.077, -24.280, -14.880, 8.860, 29.3, 0.15512, 0.86847, -0.20584, 0.42337,
 16:30:29.495,f6:90:cc:01:6d:25, 2015-01-01 04:41:25.455, 0.934, 0.105, -0.302, 0.122, 0, 0, 160.356, -71.367, 15.848, -28.973, -15.633, 8.907, 31.59, -0.05676, -0.8063, -0.01364, -0.5885,
 16:30:29.495,f6:90:cc:01:6d:25, 2015-01-01 04:41:25.455, 0.934, 0.107, -0.301, 0.122, 0, 0, 160.362, -71.367, 15.82, -28.973, -15.633, 8.907, 31.59, -0.05676, -0.8063, -0.01364, -0.5885,
 16:30:29.515,ed:40:fe:65:30:6c, 2015-01-01 04:41:30.330, 0.963, -0.074, 0.277, -1.587, 0.183, 0.244, -16.43, -73.581, -106.364, -29.133, -8.260, 7.673, 27.09, 0.40656, -0.543, -0.26376, -0.6857,
 16:30:29.515,ed:40:fe:65:30:6c, 2015-01-01 04:41:30.330, 0.961, -0.077, 0.283, -2.686, 0.061, 0.244, -16.479, -73.575, -106.364, -29.133, -8.260, 7.673, 27.09, 0.40656, -0.543, -0.26376, -0.6857,
 16:30:29.518,f6:90:cc:01:6d:25, 2015-01-01 04:41:25.455, 0.934, 0.105, -0.296, 0.183, 0.061, 0, 160.367, -71.367, 15.826, -28.973, -15.633, 8.907, 31.59, -0.05801, -0.8064, -0.01166, -0.58835,
 16:30:29.518,f6:90:cc:01:6d:25, 2015-01-01 04:41:25.455, 0.934, 0.106, -0.292, 0.488, 0, 0, 160.373, -71.367, 15.831, -28.973, -15.633, 8.907, 31.59, -0.05801, -0.8064, -0.01166, -0.58835,
 16:30:29.518,ed:35:33:d3:6c:f8, 2015-01-01 04:41:25.610, 0.898, 0.017, 0.417, -0.916, 0, -0.366, 2.422, -65.286, 147.041, -23.307, -11.200, -17.487, 29.84, -0.22781, -0.52243, 0.13586, -0.8103,
 16:30:29.519,ed:35:33:d3:6c:f8, 2015-01-01 04:41:25.610, 0.896, 0.018, 0.415, -0.61, 0.366, -0.244, 2.422, -65.281, 147.03, -23.307, -11.200, -17.487, 29.84, -0.22781, -0.52243, 0.13586, -0.8103,
 16:30:29.537,ed:40:fe:65:30:6c, 2015-01-01 04:41:30.685, 0.958, -0.081, 0.274, -2.93, -0.183, 0.244, -16.54, -73.575, -106.359, -29.133, -8.260, 7.673, 27.09, 0.40656, -0.543, -0.26376, -0.6857,
 16:30:29.537,ed:40:fe:65:30:6c, 2015-01-01 04:41:30.685, 0.958, -0.078, 0.278, -2.136, -0.366, 0.305, -16.6, -73.581, -106.342, -29.133, -8.260, 7.673, 27.09, 0.40656, -0.543, -0.26376, -0.6857,
 16:30:29.538,e3:ca:2d:fd:e0:8c, 2015-01-01 04:41:25.375, 0.81, 0.097, -0.597, -0.183, 0.427, 0.305, 170.887, -53.119, -22.077, -24.280, -14.880, 8.860, 29.3, 0.15512, 0.86847, -0.20584, 0.42337,
 16:30:29.538,e3:ca:2d:fd:e0:8c, 2015-01-01 04:41:25.375, 0.813, 0.097, -0.6, -0.061, 0.305, 0.244, 170.887, -53.124, -22.077, -24.280, -14.880, 8.860, 29.3, 0.15512, 0.86847, -0.20584, 0.42337,
 16:30:29.561,e3:ca:2d:fd:e0:8c, 2015-01-01 04:41:25.375, 0.814, 0.1, -0.601, -0.061, 0.061, 0.305, 170.892, -53.124, -22.083, -24.280, -14.880, 8.860, 29.3, 0.15512, 0.86847, -0.20584, 0.42337,
 16:30:29.561,e3:ca:2d:fd:e0:8c, 2015-01-01 04:41:25.375, 0.812, 0.1, -0.598, 0, 0.122, 0.305, 170.898, -53.13, -22.088, -24.280, -14.880, 8.860, 29.3, 0.15512, 0.86847, -0.20584, 0.42337,
 16:30:29.561,ed:40:fe:65:30:6c, 2015-01-01 04:41:30.685, 0.961, -0.078, 0.282, -2.563, 0.427, -0.061, -16.633, -73.57, -106.359, -29.133, -8.260, 7.673, 27.09, 0.40656, -0.543, -0.26376, -0.6857,
 16:30:29.561,ed:40:fe:65:30:6c, 2015-01-01 04:41:30.685, 0.963, -0.079, 0.278, -2.441, 0.671, -0.427, -16.639, -73.559, -106.403, -29.133, -8.260, 7.673, 27.09, 0.40656, -0.543, -0.26376, -0.6857,
 16:30:29.563,ed:35:33:d3:6c:f8, 2015-01-01 04:41:25.610, 0.901, 0.016, 0.419, -1.465, 0.366, -0.977, 2.428, -65.275, 146.992, -23.307, -11.200, -17.487, 29.84, -0.22781, -0.52243, 0.13586, -0.8103,
 16:30:29.563,ed:35:33:d3:6c:f8, 2015-01-01 04:41:25.610, 0.903, 0.017, 0.416, -2.197, 0.916, -1.465, 2.45, -65.259, 146.931, -23.307, -11.200, -17.487, 29.84, -0.22781, -0.52243, 0.13586, -0.8103,
 16:30:29.563,f6:90:cc:01:6d:25, 2015-01-01 04:41:25.455, 0.934, 0.105, -0.29, 0.549, -0.183, 0, 160.384, -71.362, 15.837, -28.973, -15.633, 8.907, 31.59, -0.05801, -0.8064, -0.01166, -0.58835,
 16:30:29.563,f6:90:cc:01:6d:25, 2015-01-01 04:41:25.455, 0.934, 0.104, -0.292, 0.488, -0.366, 0, 160.4, -71.362, 15.848, -28.973, -15.633, 8.907, 31.59, -0.05801, -0.8064, -0.01166, -0.58835,
 16:30:29.605,ed:40:fe:65:30:6c, 2015-01-01 04:41:30.685, 0.96, -0.083, 0.274, -1.709, 0.61, -0.305, -16.628, -73.548, -106.447, -29.133, -8.260, 7.673, 27.09, 0.40656, -0.543, -0.26376, -0.6857,
 16:30:29.605,ed:40:fe:65:30:6c, 2015-01-01 04:41:30.685, 0.961, -0.087, 0.271, -0.305, 0.244, -0.122, -16.617, -73.537, -106.479, -29.133, -8.260, 7.673, 27.09, 0.40656, -0.543, -0.26376, -0.6857,
 16:30:29.607,f6:90:cc:01:6d:25, 2015-01-01 04:41:25.815, 0.934, 0.101, -0.294, 0.549, -0.488, 0, 160.417, -71.356, 15.848, -28.973, -15.633, 8.907, 31.59, -0.05801, -0.8064, -0.01166, -0.58835,
 16:30:29.607,f6:90:cc:01:6d:25, 2015-01-01 04:41:25.815, 0.936, 0.1, -0.295, 0.366, -0.244, 0, 160.433, -71.345, 15.859, -28.973, -15.633, 8.907, 31.59, -0.05801, -0.8064, -0.01166, -0.58835,
 16:30:29.607,e3:ca:2d:fd:e0:8c, 2015-01-01 04:41:25.375, 0.809, 0.096, -0.592, -0.305, 0.183, 0.244, 170.898, -53.135, -22.094, -24.280, -14.880, 8.860, 29.3, 0.15512, 0.86847, -0.20584, 0.42337,
 16:30:29.607,e3:ca:2d:fd:e0:8c, 2015-01-01 04:41:25.375, 0.809, 0.092, -0.593, -0.549, 0.122, 0.122, 170.887, -53.135, -22.094, -24.280, -14.880, 8.860, 29.3, 0.15512, 0.86847, -0.20584, 0.42337,
 16:30:29.608,ed:35:33:d3:6c:f8, 2015-01-01 04:41:25.610, 0.901, 0.018, 0.417, -1.892, 1.77, -1.343, 2.466, -65.226, 146.86, -23.307, -11.200, -17.487, 29.84, -0.22781, -0.52243, 0.13586, -0.8103,
 16:30:29.608,ed:35:33:d3:6c:f8, 2015-01-01 04:41:25.610, 0.9, 0.011, 0.415, -1.038, 1.648, -0.854, 2.477, -65.193, 146.799, -23.307, -11.200, -17.487, 29.84, -0.22781, -0.52243, 0.13586, -0.8103,
 16:30:29.632,ed:35:33:d3:6c:f8, 2015-01-01 04:41:25.610, 0.907, 0.012, 0.416, -0.61, 1.221, -0.61, 2.488, -65.165, 146.766, -23.307, -11.200, -17.487, 29.84, -0.22781, -0.52243, 0.13586, -0.8103,
 16:30:29.632,ed:35:33:d3:6c:f8, 2015-01-01 04:41:25.610, 0.901, 0.01, 0.419, 0, 0.488, -0.305, 2.494, -65.154, 146.755, -23.307, -11.200, -17.487, 29.84, -0.22781, -0.52243, 0.13586, -0.8103,
 16:30:29.650,ed:40:fe:65:30:6c, 2015-01-01 04:41:30.685, 0.968, -0.083, 0.275, 0.427, 0.671, -0.122, -16.589, -73.526, -106.512, -29.133, -8.260, 7.673, 27.09, 0.40656, -0.543, -0.26376, -0.6857,
 16:30:29.650,ed:40:fe:65:30:6c, 2015-01-01 04:41:30.685, 0.964, -0.087, 0.276, 0.305, 0.488, -0.305, -16.556, -73.515, -106.556, -29.133, -8.260, 7.673, 27.09, 0.40656, -0.543, -0.26376, -0.6857,
 16:30:29.651,e3:ca:2d:fd:e0:8c, 2015-01-01 04:41:25.375, 0.812, 0.091, -0.596, -0.244, -0.122, 0, 170.881, -53.135, -22.088, -24.280, -14.880, 8.860, 29.3, 0.15512, 0.86847, -0.20584, 0.42337,
 16:30:29.651,e3:ca:2d:fd:e0:8c, 2015-01-01 04:41:25.375, 0.813, 0.093, -0.597, 0.183, -0.122, 0, 170.887, -53.135, -22.088, -24.280, -14.880, 8.860, 29.3, 0.15512, 0.86847, -0.20584, 0.42337,
 16:30:29.652,f6:90:cc:01:6d:25, 2015-01-01 04:41:25.815, 0.935, 0.1, -0.298, 0.305, -0.122, 0, 160.45, -71.345, 15.881, -28.973, -15.633, 8.907, 31.59, -0.05801, -0.8064, -0.01166, -0.58835,
 16:30:29.652,f6:90:cc:01:6d:25, 2015-01-01 04:41:25.815, 0.935, 0.102, -0.293, 0.427, -0.122, 0, 160.461, -71.345, 15.908, -28.973, -15.633, 8.907, 31.59, -0.05801, -0.8064, -0.01166, -0.58835,
 16:30:29.678,ed:35:33:d3:6c:f8, 2015-01-01 04:41:25.610, 0.902, 0.008, 0.415, 0.244, 0.122, -0.671, 2.516, -65.149, 146.755, -23.307, -11.200, -17.487, 29.84, -0.22781, -0.52243, 0.13586, -0.8103,
