Time,Device name,Chip Time(),Acceleration X(g),Acceleration Y(g),Acceleration Z(g),Angular velocity X(°/s),Angular velocity Y(°/s),Angular velocity Z(°/s),Angle X(°),Angle Y(°),Angle Z(°),Magnetic field X(ʯt),Magnetic field Y(ʯt),Magnetic field Z(ʯt),Temperature(℃),Quaternions 0(),Quaternions 1(),Quaternions 2(),Quaternions 3()
 12:57:46.068,e3:ca:2d:fd:e0:8c, 2015-01-01 00:43:59.290, 0.963, 0.044, 0.326, -0.122, -0.244, 0, 7.745, -71.241, 152.358, -24.453, -13.000, -12.507, 25.83, 0.15546, 0.57733, -0.08542, 0.79694,
 12:57:46.068,e3:ca:2d:fd:e0:8c, 2015-01-01 00:43:59.290, 0.963, 0.043, 0.327, -0.061, -0.122, 0, 7.745, -71.246, 152.358, -24.453, -13.000, -12.507, 25.83, 0.15546, 0.57733, -0.08542, 0.79694,
 12:57:46.069,ed:40:fe:65:30:6c, 2015-01-01 00:43:58.390, 0.728, -0.08, 0.68, 0.366, -0.061, -0.122, -6.487, -46.774, -123.179, -21.447, -7.667, -5.293, 27.06, 0.41772, -0.37308, -0.14352, -0.81586,
 12:57:46.069,ed:40:fe:65:30:6c, 2015-01-01 00:43:58.390, 0.729, -0.078, 0.681, 0.061, 0, -0.122, -6.482, -46.774, -123.212, -21.447, -7.667, -5.293, 27.06, 0.41772, -0.37308, -0.14352, -0.81586,
 12:57:46.071,ed:35:33:d3:6c:f8, 2015-01-01 00:43:58.630, 0.595, 0.036, 0.791, 0.366, 0, 0, 2.631, -36.942, 151.15, -15.513, -11.107, -29.873, 30.11, 0.22934, 0.31226, -0.05807, 0.92001,
 12:57:46.071,ed:35:33:d3:6c:f8, 2015-01-01 00:43:58.630, 0.595, 0.036, 0.791, 0.244, 0.122, 0, 2.637, -36.936, 151.15, -15.513, -11.107, -29.873, 30.11, 0.22934, 0.31226, -0.05807, 0.92001,
 12:57:46.072,f6:90:cc:01:6d:25, 2015-01-01 00:43:57.760, 0.975, 0.032, 0.131, -0.061, -0.183, 0, 13.574, -82.123, 174.001, -29.640, -12.720, -1.627, 30.37, -0.03833, 0.65591, 0.05484, 0.7518,
 12:57:46.072,f6:90:cc:01:6d:25, 2015-01-01 00:43:57.760, 0.976, 0.031, 0.131, -0.061, -0.061, 0, 13.579, -82.123, 174.001, -29.640, -12.720, -1.627, 30.37, -0.03833, 0.65591, 0.05484, 0.7518,
 12:57:46.091,e3:ca:2d:fd:e0:8c, 2015-01-01 00:43:59.290, 0.965, 0.042, 0.328, 0, 0, 0, 7.745, -71.246, 152.358, -24.453, -13.000, -12.507, 25.83, 0.15546, 0.57733, -0.08542, 0.79694,
 12:57:46.091,e3:ca:2d:fd:e0:8c, 2015-01-01 00:43:59.290, 0.967, 0.042, 0.327, 0.061, 0, 0, 7.74, -71.246, 152.358, -24.453, -13.000, -12.507, 25.83, 0.15546, 0.57733, -0.08542, 0.79694,
 12:57:46.091,ed:40:fe:65:30:6c, 2015-01-01 00:43:58.390, 0.731, -0.08, 0.681, 0, 0, -0.122, -6.482, -46.774, -123.245, -21.447, -7.667, -5.293, 27.06, 0.41772, -0.37308, -0.14352, -0.81586,
 12:57:46.091,ed:40:fe:65:30:6c, 2015-01-01 00:43:58.390, 0.734, -0.08, 0.682, 0, 0, 0, -6.482, -46.774, -123.272, -21.447, -7.667, -5.293, 27.06, 0.41772, -0.37308, -0.14352, -0.81586,
 12:57:46.115,ed:35:33:d3:6c:f8, 2015-01-01 00:43:58.630, 0.597, 0.036, 0.794, 0.183, 0.061, 0, 2.637, -36.936, 151.155, -15.513, -11.107, -29.873, 30.11, 0.22934, 0.31226, -0.05807, 0.92001,
 12:57:46.115,ed:35:33:d3:6c:f8, 2015-01-01 00:43:58.630, 0.6, 0.037, 0.794, -0.061, 0, 0, 2.637, -36.936, 151.155, -15.513, -11.107, -29.873, 30.11, 0.22934, 0.31226, -0.05807, 0.92001,
 12:57:46.116,f6:90:cc:01:6d:25, 2015-01-01 00:43:57.760, 0.977, 0.029, 0.132, 0, 0.061, 0, 13.574, -82.123, 174.001, -29.800, -12.580, -2.087, 30.37, -0.03833, 0.65591, 0.05484, 0.7518,
 12:57:46.116,f6:90:cc:01:6d:25, 2015-01-01 00:43:57.760, 0.979, 0.03, 0.132, -0.061, 0.061, 0, 13.568, -82.123, 174.007, -29.800, -12.580, -2.087, 30.37, -0.03833, 0.65591, 0.05484, 0.7518,
 12:57:46.138,e3:ca:2d:fd:e0:8c, 2015-01-01 00:43:59.290, 0.967, 0.042, 0.327, 0, -0.122, 0, 7.74, -71.246, 152.358, -24.453, -13.000, -12.507, 25.83, 0.15546, 0.57733, -0.08542, 0.79694,
 12:57:46.138,e3:ca:2d:fd:e0:8c, 2015-01-01 00:43:59.290, 0.966, 0.042, 0.328, 0, -0.183, 0, 7.74, -71.246, 152.358, -24.453, -13.000, -12.507, 25.83, 0.15546, 0.57733, -0.08542, 0.79694,
 12:57:46.138,ed:35:33:d3:6c:f8, 2015-01-01 00:43:58.630, 0.599, 0.037, 0.794, -0.061, 0.122, 0, 2.637, -36.936, 151.161, -15.513, -11.107, -29.873, 30.11, 0.22934, 0.31226, -0.05807, 0.92001,
 12:57:46.138,ed:35:33:d3:6c:f8, 2015-01-01 00:43:58.630, 0.598, 0.036, 0.796, -0.122, 0.122, 0, 2.631, -36.931, 151.161, -15.513, -11.107, -29.873, 30.11, 0.22934, 0.31226, -0.05807, 0.92001,
 12:57:46.138,ed:40:fe:65:30:6c, 2015-01-01 00:43:58.390, 0.733, -0.08, 0.682, 0.061, 0.061, 0.061, -6.487, -46.774, -123.3, -21.447, -7.667, -5.293, 27.06, 0.41772, -0.37308, -0.14352, -0.81586,
 12:57:46.138,ed:40:fe:65:30:6c, 2015-01-01 00:43:58.390, 0.732, -0.08, 0.684, 0, 0, 0.183, -6.493, -46.774, -123.322, -21.447, -7.667, -5.293, 27.06, 0.41772, -0.37308, -0.14352, -0.81586,
 12:57:46.139,f6:90:cc:01:6d:25, 2015-01-01 00:43:57.760, 0.979, 0.029, 0.131, 0, 0, 0, 13.568, -82.123, 174.007, -29.800, -12.580, -2.087, 30.37, -0.03833, 0.65601, 0.05484, 0.75171,
 12:57:46.139,f6:90:cc:01:6d:25, 2015-01-01 00:43:57.760, 0.978, 0.029, 0.132, 0, -0.061, 0, 13.563, -82.123, 174.001, -29.800, -12.580, -2.087, 30.37, -0.03833, 0.65601, 0.05484, 0.75171,
 12:57:46.183,ed:40:fe:65:30:6c, 2015-01-01 00:43:58.390, 0.733, -0.081, 0.684, -0.061, 0, 0.305, -6.498, -46.774, -123.344, -21.447, -7.667, -5.293, 27.06, 0.41772, -0.37308, -0.14352, -0.81586,
 12:57:46.183,ed:40:fe:65:30:6c, 2015-01-01 00:43:58.390, 0.732, -0.08, 0.68, 0.061, 0, 0.122, -6.504, -46.774, -123.365, -21.447, -7.667, -5.293, 27.06, 0.41772, -0.37308, -0.14352, -0.81586,
 12:57:46.183,ed:35:33:d3:6c:f8, 2015-01-01 00:43:58.630, 0.599, 0.034, 0.797, -0.122, 0, 0, 2.626, -36.931, 151.166, -15.513, -11.107, -29.873, 30.11, 0.22934, 0.31226, -0.05807, 0.92001,
 12:57:46.183,ed:35:33:d3:6c:f8, 2015-01-01 00:43:58.630, 0.598, 0.034, 0.792, 0, -0.183, 0, 2.626, -36.936, 151.166, -15.513, -11.107, -29.873, 30.11, 0.22934, 0.31226, -0.05807, 0.92001,
 12:57:46.184,f6:90:cc:01:6d:25, 2015-01-01 00:43:57.760, 0.977, 0.033, 0.13, 0, 0, 0, 13.557, -82.123, 174.001, -29.800, -12.580, -2.087, 30.37, -0.03833, 0.65601, 0.05484, 0.75171,
 12:57:46.184,f6:90:cc:01:6d:25, 2015-01-01 00:43:57.760, 0.975, 0.032, 0.13, 0.183, -0.061, 0, 13.557, -82.123, 174.001, -29.800, -12.580, -2.087, 30.37, -0.03833, 0.65601, 0.05484, 0.75171,
 12:57:46.203,e3:ca:2d:fd:e0:8c, 2015-01-01 00:43:59.290, 0.966, 0.043, 0.326, 0.061, -0.122, 0, 7.74, -71.246, 152.353, -24.487, -13.293, -12.420, 25.83, 0.15546, 0.57733, -0.08542, 0.79694,
 12:57:46.203,e3:ca:2d:fd:e0:8c, 2015-01-01 00:43:59.290, 0.965, 0.045, 0.326, 0, -0.122, 0, 7.74, -71.252, 152.353, -24.487, -13.293, -12.420, 25.83, 0.15546, 0.57733, -0.08542, 0.79694,
 12:57:46.226,e3:ca:2d:fd:e0:8c, 2015-01-01 00:43:59.290, 0.963, 0.044, 0.326, 0, -0.122, 0, 7.74, -71.252, 152.353, -24.487, -13.293, -12.420, 25.83, 0.15555, 0.57742, -0.08554, 0.79684,
 12:57:46.226,e3:ca:2d:fd:e0:8c, 2015-01-01 00:43:59.290, 0.964, 0.042, 0.325, 0.061, 0, 0, 7.74, -71.252, 152.353, -24.487, -13.293, -12.420, 25.83, 0.15555, 0.57742, -0.08554, 0.79684,
 12:57:46.230,f6:90:cc:01:6d:25, 2015-01-01 00:43:57.760, 0.975, 0.03, 0.13, 0, 0, 0, 13.557, -82.123, 174.001, -29.800, -12.580, -2.087, 30.37, -0.03833, 0.65601, 0.05484, 0.75171,
 12:57:46.230,f6:90:cc:01:6d:25, 2015-01-01 00:43:57.760, 0.977, 0.03, 0.129, 0, 0, 0, 13.557, -82.128, 174.001, -29.800, -12.580, -2.087, 30.37, -0.03833, 0.65601, 0.05484, 0.75171,
 12:57:46.250,ed:40:fe:65:30:6c, 2015-01-01 00:43:58.390, 0.73, -0.082, 0.681, 0.183, 0.122, 0, -6.504, -46.774, -123.387, -21.333, -7.480, -4.780, 27.06, 0.41772, -0.37308, -0.14352, -0.81586,
 12:57:46.250,ed:40:fe:65:30:6c, 2015-01-01 00:43:58.390, 0.729, -0.078, 0.679, 0.183, 0.183, 0.061, -6.504, -46.769, -123.415, -21.333, -7.480, -4.780, 27.06, 0.41772, -0.37308, -0.14352, -0.81586,
 12:57:46.251,ed:35:33:d3:6c:f8, 2015-01-01 00:43:58.630, 0.596, 0.034, 0.79, 0, 0.061, 0, 2.626, -36.936, 151.172, -15.287, -11.267, -30.067, 30.11, 0.22934, 0.31226, -0.05807, 0.92001,
 12:57:46.251,ed:35:33:d3:6c:f8, 2015-01-01 00:43:58.630, 0.596, 0.038, 0.791, 0.183, 0.427, 0, 2.631, -36.925, 151.172, -15.287, -11.267, -30.067, 30.11, 0.22934, 0.31226, -0.05807, 0.92001,
 12:57:46.272,e3:ca:2d:fd:e0:8c, 2015-01-01 00:43:59.290, 0.966, 0.042, 0.325, -0.061, 0, 0, 7.74, -71.252, 152.353, -24.487, -13.293, -12.420, 25.83, 0.15555, 0.57742, -0.08554, 0.79684,
 12:57:46.272,e3:ca:2d:fd:e0:8c, 2015-01-01 00:43:59.290, 0.968, 0.044, 0.324, 0, -0.061, 0, 7.734, -71.252, 152.353, -24.487, -13.293, -12.420, 25.83, 0.15555, 0.57742, -0.08554, 0.79684,
 12:57:46.272,ed:40:fe:65:30:6c, 2015-01-01 00:43:58.390, 0.732, -0.08, 0.681, 0.122, 0, 0.244, -6.509, -46.769, -123.437, -21.333, -7.480, -4.780, 27.06, 0.41425, -0.37366, -0.14182, -0.81766,
 12:57:46.272,ed:40:fe:65:30:6c, 2015-01-01 00:43:58.390, 0.733, -0.08, 0.682, 0.244, 0, 0.183, -6.509, -46.769, -123.453, -21.333, -7.480, -4.780, 27.06, 0.41425, -0.37366, -0.14182, -0.81766,
 12:57:46.273,ed:35:33:d3:6c:f8, 2015-01-01 00:43:58.630, 0.598, 0.036, 0.794, 0.061, 0.122, 0, 2.631, -36.925, 151.177, -15.287, -11.267, -30.067, 30.11, 0.22894, 0.31207, -0.05768, 0.9202,
 12:57:46.273,ed:35:33:d3:6c:f8, 2015-01-01 00:43:58.630, 0.599, 0.034, 0.794, 0, 0.061, 0, 2.631, -36.925, 151.177, -15.287, -11.267, -30.067, 30.11, 0.22894, 0.31207, -0.05768, 0.9202,
 12:57:46.274,f6:90:cc:01:6d:25, 2015-01-01 00:43:57.760, 0.979, 0.031, 0.13, 0, 0, 0, 13.552, -82.128, 174.001, -29.800, -12.580, -2.087, 30.42, -0.03833, 0.65601, 0.05484, 0.75171,
 12:57:46.274,f6:90:cc:01:6d:25, 2015-01-01 00:43:57.760, 0.98, 0.031, 0.129, 0, 0, 0, 13.552, -82.128, 174.001, -29.800, -12.580, -2.087, 30.42, -0.03833, 0.65601, 0.05484, 0.75171,
 12:57:46.293,e3:ca:2d:fd:e0:8c, 2015-01-01 00:43:59.625, 0.968, 0.044, 0.326, 0.122, 0, 0, 7.734, -71.252, 152.353, -24.487, -13.293, -12.420, 25.83, 0.15555, 0.57742, -0.08554, 0.79684,
 12:57:46.293,e3:ca:2d:fd:e0:8c, 2015-01-01 00:43:59.625, 0.967, 0.045, 0.326, 0, 0, 0, 7.734, -71.252, 152.353, -24.487, -13.293, -12.420, 25.83, 0.15555, 0.57742, -0.08554, 0.79684,
 12:57:46.319,ed:35:33:d3:6c:f8, 2015-01-01 00:43:58.630, 0.601, 0.036, 0.795, -0.061, 0.183, 0, 2.626, -36.92, 151.177, -15.287, -11.267, -30.067, 30.11, 0.22894, 0.31207, -0.05768, 0.9202,
 12:57:46.319,ed:35:33:d3:6c:f8, 2015-01-01 00:43:58.630, 0.598, 0.033, 0.794, -0.061, 0.061, 0, 2.626, -36.92, 151.183, -15.287, -11.267, -30.067, 30.11, 0.22894, 0.31207, -0.05768, 0.9202,
 12:57:46.319,ed:40:fe:65:30:6c, 2015-01-01 00:43:58.390, 0.735, -0.08, 0.683, 0, 0, 0.122, -6.515, -46.769, -123.475, -21.333, -7.480, -4.780, 27.06, 0.41425, -0.37366, -0.14182, -0.81766,
 12:57:46.319,ed:40:fe:65:30:6c, 2015-01-01 00:43:58.390, 0.733, -0.082, 0.682, -0.061, 0, 0.061, -6.52, -46.769, -123.497, -21.333, -7.480, -4.780, 27.06, 0.41425, -0.37366, -0.14182, -0.81766,
 12:57:46.320,f6:90:cc:01:6d:25, 2015-01-01 00:43:58.160, 0.979, 0.033, 0.129, 0, 0, 0, 13.552, -82.128, 174.001, -29.800, -12.580, -2.087, 30.42, -0.03833, 0.65601, 0.05484, 0.75171,
 12:57:46.320,f6:90:cc:01:6d:25, 2015-01-01 00:43:58.160, 0.977, 0.032, 0.13, 0, 0, 0, 13.552, -82.128, 174.001, -29.800, -12.580, -2.087, 30.42, -0.03833, 0.65601, 0.05484, 0.75171,
 12:57:46.338,e3:ca:2d:fd:e0:8c, 2015-01-01 00:43:59.625, 0.966, 0.045, 0.326, -0.061, 0, 0, 7.734, -71.252, 152.353, -24.487, -13.293, -12.420, 25.83, 0.15555, 0.57742, -0.08554, 0.79684,
 12:57:46.338,e3:ca:2d:fd:e0:8c, 2015-01-01 00:43:59.625, 0.964, 0.044, 0.326, -0.061, 0, 0, 7.734, -71.252, 152.353, -24.487, -13.293, -12.420, 25.83, 0.15555, 0.57742, -0.08554, 0.79684,
 12:57:46.340,ed:40:fe:65:30:6c, 2015-01-01 00:43:58.750, 0.732, -0.08, 0.682, 0.122, 0, 0, -6.52, -46.769, -123.525, -21.333, -7.480, -4.780, 27.06, 0.41425, -0.37366, -0.14182, -0.81766,
 12:57:46.340,ed:40:fe:65:30:6c, 2015-01-01 00:43:58.750, 0.732, -0.078, 0.681, 0.122, 0, 0, -6.52, -46.774, -123.547, -21.333, -7.480, -4.780, 27.06, 0.41425, -0.37366, -0.14182, -0.81766,
 12:57:46.341,ed:35:33:d3:6c:f8, 2015-01-01 00:43:58.985, 0.598, 0.036, 0.794, 0.061, 0.061, 0, 2.626, -36.92, 151.183, -15.287, -11.267, -30.067, 30.11, 0.22894, 0.31207, -0.05768, 0.9202,
 12:57:46.341,ed:35:33:d3:6c:f8, 2015-01-01 00:43:58.985, 0.598, 0.037, 0.792, 0.122, 0, 0, 2.626, -36.92, 151.188, -15.287, -11.267, -30.067, 30.11, 0.22894, 0.31207, -0.05768, 0.9202,
 12:57:46.342,f6:90:cc:01:6d:25, 2015-01-01 00:43:58.160, 0.976, 0.033, 0.129, 0, 0, 0, 13.552, -82.128, 174.001, -29.800, -12.580, -2.087, 30.42, -0.03833, 0.65601, 0.05484, 0.75171,
 12:57:46.342,f6:90:cc:01:6d:25, 2015-01-01 00:43:58.160, 0.977, 0.032, 0.13, 0, 0, 0, 13.557, -82.128, 174.001, -29.800, -12.580, -2.087, 30.42, -0.03833, 0.65601, 0.05484, 0.75171,
 12:57:46.383,e3:ca:2d:fd:e0:8c, 2015-01-01 00:43:59.625, 0.965, 0.044, 0.326, -0.061, 0, 0, 7.734, -71.252, 152.353, -24.487, -13.293, -12.420, 25.83, 0.15555, 0.57742, -0.08554, 0.79684,
 12:57:46.383,e3:ca:2d:fd:e0:8c, 2015-01-01 00:43:59.625, 0.964, 0.044, 0.326, -0.061, 0.061, 0, 7.729, -71.246, 152.353, -24.487, -13.293, -12.420, 25.83, 0.15555, 0.57742, -0.08554, 0.79684,
 12:57:46.385,ed:35:33:d3:6c:f8, 2015-01-01 00:43:58.985, 0.596, 0.038, 0.792, 0.244, 0.122, 0, 2.631, -36.92, 151.188, -15.287, -11.267, -30.067, 30.11, 0.22894, 0.31207, -0.05768, 0.9202,
 12:57:46.385,ed:35:33:d3:6c:f8, 2015-01-01 00:43:58.985, 0.597, 0.037, 0.793, 0.061, 0.122, 0, 2.631, -36.92, 151.194, -15.287, -11.267, -30.067, 30.11, 0.22894, 0.31207, -0.05768, 0.9202,
 12:57:46.385,ed:40:fe:65:30:6c, 2015-01-01 00:43:58.750, 0.73, -0.078, 0.68, 0.366, 0, 0, -6.515, -46.774, -123.574, -21.333, -7.480, -4.780, 27.06, 0.41425, -0.37366, -0.14182, -0.81766,
 12:57:46.385,ed:40:fe:65:30:6c, 2015-01-01 00:43:58.750, 0.731, -0.078, 0.681, 0, 0, 0, -6.515, -46.774, -123.596, -21.333, -7.480, -4.780, 27.06, 0.41425, -0.37366, -0.14182, -0.81766,
 12:57:46.386,f6:90:cc:01:6d:25, 2015-01-01 00:43:58.160, 0.976, 0.032, 0.13, -0.061, 0.061, 0, 13.557, -82.128, 174.007, -29.800, -12.580, -2.087, 30.42, -0.03833, 0.65601, 0.05484, 0.75171,
 12:57:46.386,f6:90:cc:01:6d:25, 2015-01-01 00:43:58.160, 0.976, 0.032, 0.13, -0.061, 0.061, 0, 13.557, -82.128, 174.007, -29.800, -12.580, -2.087, 30.42, -0.03833, 0.65601, 0.05484, 0.75171,
 12:57:46.429,e3:ca:2d:fd:e0:8c, 2015-01-01 00:43:59.625, 0.964, 0.044, 0.326, 0, 0.061, 0, 7.729, -71.246, 152.353, -24.487, -13.293, -12.420, 25.83, 0.15555, 0.57742, -0.08554, 0.79684,
 12:57:46.429,e3:ca:2d:fd:e0:8c, 2015-01-01 00:43:59.625, 0.965, 0.044, 0.327, -0.061, 0, 0, 7.729, -71.246, 152.353, -24.487, -13.293, -12.420, 25.83, 0.15555, 0.57742, -0.08554, 0.79684,
 12:57:46.429,ed:40:fe:65:30:6c, 2015-01-01 00:43:58.750, 0.73, -0.08, 0.682, 0, 0, 0, -6.515, -46.774, -123.618, -21.333, -7.480, -4.780, 27.06, 0.41425, -0.37366, -0.14182, -0.81766,
 12:57:46.429,ed:40:fe:65:30:6c, 2015-01-01 00:43:58.750, 0.731, -0.081, 0.682, 0.122, 0, 0, -6.515, -46.774, -123.64, -21.333, -7.480, -4.780, 27.06, 0.41425, -0.37366, -0.14182, -0.81766,
 12:57:46.431,ed:35:33:d3:6c:f8, 2015-01-01 00:43:58.985, 0.596, 0.036, 0.793, 0, 0, 0, 2.631, -36.92, 151.194, -15.287, -11.267, -30.067, 30.11, 0.22894, 0.31207, -0.05768, 0.9202,
 12:57:46.431,ed:35:33:d3:6c:f8, 2015-01-01 00:43:58.985, 0.598, 0.036, 0.795, 0.061, 0.122, 0, 2.631, -36.914, 151.194, -15.287, -11.267, -30.067, 30.11, 0.22894, 0.31207, -0.05768, 0.9202,
 12:57:46.432,f6:90:cc:01:6d:25, 2015-01-01 00:43:58.160, 0.977, 0.031, 0.131, 0, 0.061, 0, 13.557, -82.128, 174.007, -29.800, -12.580, -2.087, 30.42, -0.03833, 0.65601, 0.05484, 0.75171,
 12:57:46.432,f6:90:cc:01:6d:25, 2015-01-01 00:43:58.160, 0.977, 0.031, 0.131, -0.061, 0, 0, 13.557, -82.128, 174.012, -29.800, -12.580, -2.087, 30.42, -0.03833, 0.65601, 0.05484, 0.75171,
 12:57:46.451,e3:ca:2d:fd:e0:8c, 2015-01-01 00:43:59.625, 0.965, 0.043, 0.327, -0.061, -0.061, 0, 7.729, -71.246, 152.353, -24.487, -13.293, -12.420, 25.83, 0.15555, 0.57742, -0.08554, 0.79684,
 12:57:46.451,e3:ca:2d:fd:e0:8c, 2015-01-01 00:43:59.625, 0.965, 0.044, 0.328, 0, 0, 0, 7.729, -71.246, 152.353, -24.487, -13.293, -12.420, 25.83, 0.15555, 0.57742, -0.08554, 0.79684,
 12:57:46.453,ed:40:fe:65:30:6c, 2015-01-01 00:43:58.750, 0.732, -0.081, 0.682, 0.244, 0.061, 0, -6.515, -46.774, -123.668, -21.333, -7.480, -4.780, 27.06, 0.41425, -0.37366, -0.14182, -0.81766,
 12:57:46.453,ed:40:fe:65:30:6c, 2015-01-01 00:43:58.750, 0.731, -0.08, 0.683, 0.183, 0, 0, -6.509, -46.774, -123.69, -21.333, -7.480, -4.780, 27.06, 0.41425, -0.37366, -0.14182, -0.81766,
 12:57:46.477,f6:90:cc:01:6d:25, 2015-01-01 00:43:58.160, 0.977, 0.032, 0.131, -0.061, 0, 0, 13.563, -82.128, 174.012, -29.800, -12.580, -2.087, 30.42, -0.03833, 0.65601, 0.05484, 0.75171,
 12:57:46.477,f6:90:cc:01:6d:25, 2015-01-01 00:43:58.160, 0.977, 0.03, 0.131, -0.061, 0.061, 0, 13.563, -82.128, 174.012, -29.800, -12.580, -2.087, 30.42, -0.03833, 0.65601, 0.05484, 0.75171,
 12:57:46.496,e3:ca:2d:fd:e0:8c, 2015-01-01 00:43:59.625, 0.964, 0.043, 0.327, -0.061, -0.061, 0, 7.723, -71.246, 152.353, -24.487, -13.293, -12.420, 25.83, 0.15555, 0.57742, -0.08554, 0.79684,
 12:57:46.496,e3:ca:2d:fd:e0:8c, 2015-01-01 00:43:59.625, 0.965, 0.043, 0.328, 0, -0.061, 0, 7.723, -71.246, 152.353, -24.487, -13.293, -12.420, 25.83, 0.15555, 0.57742, -0.08554, 0.79684,
 12:57:46.498,ed:35:33:d3:6c:f8, 2015-01-01 00:43:58.985, 0.598, 0.035, 0.795, 0.061, 0.183, 0, 2.631, -36.914, 151.199, -15.287, -11.267, -30.067, 30.11, 0.22894, 0.31207, -0.05768, 0.9202,
 12:57:46.498,ed:35:33:d3:6c:f8, 2015-01-01 00:43:58.985, 0.596, 0.037, 0.794, 0.061, 0.183, 0, 2.637, -36.909, 151.199, -15.287, -11.267, -30.067, 30.11, 0.22894, 0.31207, -0.05768, 0.9202,
 12:57:46.498,ed:40:fe:65:30:6c, 2015-01-01 00:43:58.750, 0.731, -0.081, 0.683, 0.366, 0.061, 0.061, -6.509, -46.774, -123.712, -21.333, -7.480, -4.780, 27.06, 0.41425, -0.37366, -0.14182, -0.81766,
 12:57:46.498,ed:40:fe:65:30:6c, 2015-01-01 00:43:58.750, 0.731, -0.081, 0.683, 0.61, 0.122, 0, -6.498, -46.774, -123.734, -21.333, -7.480, -4.780, 27.06, 0.41425, -0.37366, -0.14182, -0.81766,
 12:57:46.522,f6:90:cc:01:6d:25, 2015-01-01 00:43:58.160, 0.978, 0.03, 0.132, 0, 0.061, 0, 13.557, -82.128, 174.012, -29.920, -12.807, -2.460, 30.42, -0.03833, 0.65601, 0.05484, 0.75171,
 12:57:46.522,f6:90:cc:01:6d:25, 2015-01-01 00:43:58.160, 0.978, 0.03, 0.132, -0.061, 0.061, 0, 13.557, -82.128, 174.018, -29.920, -12.807, -2.460, 30.42, -0.03833, 0.65601, 0.05484, 0.75171,
 12:57:46.522,ed:35:33:d3:6c:f8, 2015-01-01 00:43:58.985, 0.597, 0.034, 0.796, 0.122, 0.122, 0, 2.637, -36.909, 151.205, -15.287, -11.267, -30.067, 30.11, 0.22894, 0.31207, -0.05768, 0.9202,
 12:57:46.522,ed:35:33:d3:6c:f8, 2015-01-01 00:43:58.985, 0.596, 0.035, 0.795, 0.183, 0.122, 0, 2.637, -36.903, 151.205, -15.287, -11.267, -30.067, 30.11, 0.22894, 0.31207, -0.05768, 0.9202,
 12:57:46.542,ed:40:fe:65:30:6c, 2015-01-01 00:43:58.750, 0.731, -0.08, 0.683, 0.488, 0.122, 0.122, -6.493, -46.769, -123.75, -21.333, -7.480, -4.780, 27.06, 0.41425, -0.37366, -0.14182, -0.81766,
 12:57:46.542,ed:40:fe:65:30:6c, 2015-01-01 00:43:58.750, 0.732, -0.081, 0.683, 0.549, 0.122, 0.183, -6.487, -46.769, -123.766, -21.333, -7.480, -4.780, 27.06, 0.41425, -0.37366, -0.14182, -0.81766,
 12:57:46.546,f6:90:cc:01:6d:25, 2015-01-01 00:43:58.160, 0.978, 0.031, 0.131, -0.061, 0.061, 0, 13.552, -82.128, 174.018, -29.920, -12.807, -2.460, 30.42, -0.03833, 0.65604, 0.05481, 0.75168,
 12:57:46.546,f6:90:cc:01:6d:25, 2015-01-01 00:43:58.160, 0.977, 0.031, 0.13, 0, 0.061, 0, 13.546, -82.128, 174.023, -29.920, -12.807, -2.460, 30.42, -0.03833, 0.65604, 0.05481, 0.75168,
 12:57:46.564,e3:ca:2d:fd:e0:8c, 2015-01-01 00:43:59.625, 0.966, 0.042, 0.327, 0, -0.061, 0, 7.723, -71.246, 152.353, -24.727, -13.227, -12.673, 25.83, 0.15555, 0.57742, -0.08554, 0.79684,
 12:57:46.564,e3:ca:2d:fd:e0:8c, 2015-01-01 00:43:59.625, 0.965, 0.043, 0.326, -0.061, -0.061, 0, 7.723, -71.246, 152.353, -24.727, -13.227, -12.673, 25.83, 0.15555, 0.57742, -0.08554, 0.79684,
 12:57:46.567,ed:35:33:d3:6c:f8, 2015-01-01 00:43:58.985, 0.597, 0.037, 0.795, 0.244, 0, 0, 2.642, -36.903, 151.21, -15.287, -11.267, -30.067, 30.11, 0.22894, 0.31207, -0.05768, 0.9202,
 12:57:46.567,ed:35:33:d3:6c:f8, 2015-01-01 00:43:58.985, 0.598, 0.035, 0.794, 0.183, 0, 0, 2.648, -36.903, 151.21, -15.287, -11.267, -30.067, 30.11, 0.22894, 0.31207, -0.05768, 0.9202,
 12:57:46.586,e3:ca:2d:fd:e0:8c, 2015-01-01 00:43:59.625, 0.965, 0.043, 0.325, -0.061, 0, 0, 7.723, -71.241, 152.353, -24.727, -13.227, -12.673, 25.83, 0.15567, 0.57736, -0.08566, 0.79688,
 12:57:46.586,e3:ca:2d:fd:e0:8c, 2015-01-01 00:43:59.625, 0.965, 0.043, 0.326, 0, 0, 0, 7.718, -71.241, 152.353, -24.727, -13.227, -12.673, 25.83, 0.15567, 0.57736, -0.08566, 0.79688,
 12:57:46.589,ed:35:33:d3:6c:f8, 2015-01-01 00:43:58.985, 0.595, 0.036, 0.793, 0.183, 0, 0, 2.648, -36.903, 151.21, -15.287, -11.467, -30.133, 30.11, 0.22894, 0.31207, -0.05768, 0.9202,
 12:57:46.589,ed:35:33:d3:6c:f8, 2015-01-01 00:43:58.985, 0.596, 0.035, 0.795, 0.061, 0.061, 0, 2.648, -36.903, 151.216, -15.287, -11.467, -30.133, 30.11, 0.22894, 0.31207, -0.05768, 0.9202,
 12:57:46.590,f6:90:cc:01:6d:25, 2015-01-01 00:43:58.160, 0.977, 0.031, 0.13, 0, 0.061, 0, 13.541, -82.123, 174.023, -29.920, -12.807, -2.460, 30.42, -0.03833, 0.65604, 0.05481, 0.75168,
 12:57:46.590,f6:90:cc:01:6d:25, 2015-01-01 00:43:58.160, 0.977, 0.031, 0.131, 0, 0.122, 0, 13.535, -82.123, 174.029, -29.920, -12.807, -2.460, 30.42, -0.03833, 0.65604, 0.05481, 0.75168,
 12:57:46.610,ed:40:fe:65:30:6c, 2015-01-01 00:43:58.750, 0.731, -0.08, 0.682, 0.488, 0.122, 0.183, -6.482, -46.763, -123.783, -21.393, -7.647, -4.280, 27.06, 0.41425, -0.37366, -0.14182, -0.81766,
 12:57:46.610,ed:40:fe:65:30:6c, 2015-01-01 00:43:58.750, 0.731, -0.081, 0.683, 0.427, 0.061, 0.183, -6.482, -46.763, -123.799, -21.393, -7.647, -4.280, 27.06, 0.41425, -0.37366, -0.14182, -0.81766,
 12:57:46.632,ed:40:fe:65:30:6c, 2015-01-01 00:43:58.750, 0.731, -0.081, 0.682, 0.488, 0.061, 0.122, -6.476, -46.763, -123.816, -21.393, -7.647, -4.280, 27.06, 0.41168, -0.37396, -0.14078, -0.81897,
 12:57:46.632,ed:40:fe:65:30:6c, 2015-01-01 00:43:58.750, 0.732, -0.079, 0.682, 0.183, 0.061, 0.061, -6.476, -46.763, -123.838, -21.393, -7.647, -4.280, 27.06, 0.41168, -0.37396, -0.14078, -0.81897,
 12:57:46.633,ed:35:33:d3:6c:f8, 2015-01-01 00:43:58.985, 0.597, 0.034, 0.795, 0, -0.061, 0, 2.648, -36.903, 151.216, -15.287, -11.467, -30.133, 30.11, 0.22894, 0.31207, -0.05768, 0.9202,
 12:57:46.633,ed:35:33:d3:6c:f8, 2015-01-01 00:43:58.985, 0.597, 0.036, 0.794, -0.122, -0.427, 0, 2.648, -36.914, 151.216, -15.287, -11.467, -30.133, 30.11, 0.22894, 0.31207, -0.05768, 0.9202,
 12:57:46.635,f6:90:cc:01:6d:25, 2015-01-01 00:43:58.450, 0.978, 0.032, 0.13, -0.122, 0.183, 0, 13.53, -82.123, 174.034, -29.920, -12.807, -2.460, 30.42, -0.03833, 0.65604, 0.05481, 0.75168,
 12:57:46.635,f6:90:cc:01:6d:25, 2015-01-01 00:43:58.450, 0.978, 0.032, 0.13, -0.244, 0.244, 0, 13.519, -82.117, 174.04, -29.920, -12.807, -2.460, 30.42, -0.03833, 0.65604, 0.05481, 0.75168,
 12:57:46.654,e3:ca:2d:fd:e0:8c, 2015-01-01 00:43:59.625, 0.966, 0.044, 0.326, -0.061, 0, 0, 7.718, -71.241, 152.353, -24.727, -13.227, -12.673, 25.83, 0.15567, 0.57736, -0.08566, 0.79688,
 12:57:46.654,e3:ca:2d:fd:e0:8c, 2015-01-01 00:43:59.625, 0.966, 0.043, 0.326, -0.183, 0.122, 0, 7.712, -71.241, 152.353, -24.727, -13.227, -12.673, 25.83, 0.15567, 0.57736, -0.08566, 0.79688,
 12:57:46.676,e3:ca:2d:fd:e0:8c, 2015-01-01 00:43:59.985, 0.965, 0.043, 0.327, -0.244, 0.244, 0, 7.707, -71.235, 152.353, -24.727, -13.227, -12.673, 25.83, 0.15567, 0.57736, -0.08566, 0.79688,
 12:57:46.676,e3:ca:2d:fd:e0:8c, 2015-01-01 00:43:59.985, 0.966, 0.043, 0.326, -0.305, 0.244, 0, 7.696, -71.23, 152.353, -24.727, -13.227, -12.673, 25.83, 0.15567, 0.57736, -0.08566, 0.79688,
 12:57:46.677,ed:40:fe:65:30:6c, 2015-01-01 00:43:58.750, 0.731, -0.079, 0.682, 0.122, 0, 0.061, -6.476, -46.763, -123.854, -21.393, -7.647, -4.280, 27.06, 0.41168, -0.37396, -0.14078, -0.81897,
 12:57:46.677,ed:40:fe:65:30:6c, 2015-01-01 00:43:58.750, 0.732, -0.079, 0.684, 0.061, 0, 0.061, -6.482, -46.763, -123.871, -21.393, -7.647, -4.280, 27.06, 0.41168, -0.37396, -0.14078, -0.81897,
 12:57:46.679,f6:90:cc:01:6d:25, 2015-01-01 00:43:58.450, 0.978, 0.031, 0.132, -0.244, 0.244, 0, 13.502, -82.112, 174.045, -29.920, -12.807, -2.460, 30.42, -0.03833, 0.65604, 0.05481, 0.75168,
 12:57:46.679,f6:90:cc:01:6d:25, 2015-01-01 00:43:58.450, 0.979, 0.03, 0.131, -0.244, 0.183, 0, 13.491, -82.112, 174.056, -29.920, -12.807, -2.460, 30.42, -0.03833, 0.65604, 0.05481, 0.75168,
 12:57:46.699,e3:ca:2d:fd:e0:8c, 2015-01-01 00:43:59.985, 0.966, 0.043, 0.327, -0.183, 0.183, 0, 7.69, -71.224, 152.358, -24.727, -13.227, -12.673, 25.83, 0.15567, 0.57736, -0.08566, 0.79688,
 12:57:46.699,e3:ca:2d:fd:e0:8c, 2015-01-01 00:43:59.985, 0.965, 0.043, 0.327, -0.122, 0.366, 0, 7.685, -71.219, 152.358, -24.727, -13.227, -12.673, 25.83, 0.15567, 0.57736, -0.08566, 0.79688,
 12:57:46.699,ed:40:fe:65:30:6c, 2015-01-01 00:43:59.105, 0.732, -0.08, 0.683, 0.122, -0.061, 0, -6.482, -46.763, -123.893, -21.393, -7.647, -4.280, 27.06, 0.41168, -0.37396, -0.14078, -0.81897,
 12:57:46.699,ed:40:fe:65:30:6c, 2015-01-01 00:43:59.105, 0.732, -0.08, 0.682, 0.183, -0.122, 0, -6.482, -46.769, -123.915, -21.393, -7.647, -4.280, 27.06, 0.41168, -0.37396, -0.14078, -0.81897,
 12:57:46.701,ed:35:33:d3:6c:f8, 2015-01-01 00:43:58.985, 0.597, 0.037, 0.794, -0.061, -0.549, 0, 2.642, -36.925, 151.221, -15.287, -11.467, -30.133, 30.11, 0.22858, 0.31201, -0.0574, 0.92032,
 12:57:46.701,ed:35:33:d3:6c:f8, 2015-01-01 00:43:58.985, 0.598, 0.037, 0.795, -0.183, -0.366, 0, 2.642, -36.931, 151.221, -15.287, -11.467, -30.133, 30.11, 0.22858, 0.31201, -0.0574, 0.92032,
 12:57:46.723,ed:35:33:d3:6c:f8, 2015-01-01 00:43:59.365, 0.599, 0.036, 0.794, -0.183, -0.244, 0, 2.637, -36.936, 151.221, -15.287, -11.467, -30.133, 30.11, 0.22858, 0.31201, -0.0574, 0.92032,
 12:57:46.723,ed:35:33:d3:6c:f8, 2015-01-01 00:43:59.365, 0.598, 0.036, 0.796, -0.244, -0.488, 0, 2.631, -36.942, 151.221, -15.287, -11.467, -30.133, 30.11, 0.22858, 0.31201, -0.0574, 0.92032,
 12:57:46.725,f6:90:cc:01:6d:25, 2015-01-01 00:43:58.450, 0.978, 0.031, 0.131, -0.244, 0.122, 0, 13.48, -82.106, 174.062, -29.920, -12.807, -2.460, 30.42, -0.03833, 0.65604, 0.05481, 0.75168,
 12:57:46.725,f6:90:cc:01:6d:25, 2015-01-01 00:43:58.450, 0.977, 0.031, 0.131, -0.366, 0.183, 0, 13.469, -82.106, 174.067, -29.920, -12.807, -2.460, 30.42, -0.03833, 0.65604, 0.05481, 0.75168,
 12:57:46.744,ed:40:fe:65:30:6c, 2015-01-01 00:43:59.105, 0.732, -0.081, 0.683, 0, -0.122, 0, -6.482, -46.769, -123.931, -21.393, -7.647, -4.280, 27.06, 0.41168, -0.37396, -0.14078, -0.81897,
 12:57:46.744,ed:40:fe:65:30:6c, 2015-01-01 00:43:59.105, 0.73, -0.082, 0.681, 0.061, -0.061, 0, -6.482, -46.769, -123.948, -21.393, -7.647, -4.280, 27.06, 0.41168, -0.37396, -0.14078, -0.81897,
 12:57:46.744,e3:ca:2d:fd:e0:8c, 2015-01-01 00:43:59.985, 0.964, 0.043, 0.326, -0.183, 0.427, 0, 7.679, -71.208, 152.364, -24.727, -13.227, -12.673, 25.83, 0.15567, 0.57736, -0.08566, 0.79688,
 12:57:46.744,e3:ca:2d:fd:e0:8c, 2015-01-01 00:43:59.985, 0.964, 0.044, 0.327, -0.366, 0.427, 0, 7.668, -71.202, 152.364, -24.727, -13.227, -12.673, 25.83, 0.15567, 0.57736, -0.08566, 0.79688,
 12:57:46.745,ed:35:33:d3:6c:f8, 2015-01-01 00:43:59.365, 0.598, 0.033, 0.795, -0.488, -0.61, 0, 2.62, -36.953, 151.227, -15.287, -11.467, -30.133, 30.11, 0.22858, 0.31201, -0.0574, 0.92032,
 12:57:46.745,ed:35:33:d3:6c:f8, 2015-01-01 00:43:59.365, 0.598, 0.033, 0.792, -0.305, -0.732, 0, 2.615, -36.969, 151.227, -15.287, -11.467, -30.133, 30.11, 0.22858, 0.31201, -0.0574, 0.92032,
 12:57:46.747,f6:90:cc:01:6d:25, 2015-01-01 00:43:58.450, 0.976, 0.032, 0.131, -0.427, 0.183, 0, 13.453, -82.101, 174.073, -29.920, -12.807, -2.460, 30.42, -0.03833, 0.65604, 0.05481, 0.75168,
 12:57:46.747,f6:90:cc:01:6d:25, 2015-01-01 00:43:58.450, 0.977, 0.032, 0.131, -0.122, 0.183, 0, 13.442, -82.101, 174.078, -29.920, -12.807, -2.460, 30.42, -0.03833, 0.65604, 0.05481, 0.75168,
 12:57:46.789,e3:ca:2d:fd:e0:8c, 2015-01-01 00:43:59.985, 0.965, 0.043, 0.328, -0.183, 0.427, 0, 7.657, -71.191, 152.369, -24.727, -13.227, -12.673, 25.83, 0.15567, 0.57736, -0.08566, 0.79688,
 12:57:46.789,e3:ca:2d:fd:e0:8c, 2015-01-01 00:43:59.985, 0.964, 0.042, 0.327, -0.122, 0.427, 0, 7.652, -71.18, 152.375, -24.727, -13.227, -12.673, 25.83, 0.15567, 0.57736, -0.08566, 0.79688,
 12:57:46.789,ed:40:fe:65:30:6c, 2015-01-01 00:43:59.105, 0.731, -0.079, 0.681, 0.305, -0.061, 0, -6.482, -46.774, -123.97, -21.393, -7.647, -4.280, 27.06, 0.41168, -0.37396, -0.14078, -0.81897,
 12:57:46.789,ed:40:fe:65:30:6c, 2015-01-01 00:43:59.105, 0.731, -0.082, 0.68, 0.244, 0, 0, -6.476, -46.774, -123.986, -21.393, -7.647, -4.280, 27.06, 0.41168, -0.37396, -0.14078, -0.81897,
 12:57:46.791,ed:35:33:d3:6c:f8, 2015-01-01 00:43:59.365, 0.598, 0.035, 0.792, 0, -0.488, 0, 2.615, -36.98, 151.227, -15.287, -11.467, -30.133, 30.11, 0.22858, 0.31201, -0.0574, 0.92032,
 12:57:46.791,ed:35:33:d3:6c:f8, 2015-01-01 00:43:59.365, 0.598, 0.032, 0.792, 0, -0.305, 0, 2.615, -36.985, 151.227, -15.287, -11.467, -30.133, 30.11, 0.22858, 0.31201, -0.0574, 0.92032,
 12:57:46.792,f6:90:cc:01:6d:25, 2015-01-01 00:43:58.450, 0.977, 0.029, 0.132, 0, 0.305, 0, 13.436, -82.095, 174.089, -29.920, -12.807, -2.460, 30.42, -0.03833, 0.65604, 0.05481, 0.75168,
 12:57:46.792,f6:90:cc:01:6d:25, 2015-01-01 00:43:58.450, 0.977, 0.031, 0.132, -0.122, 0.183, 0, 13.425, -82.09, 174.095, -29.920, -12.807, -2.460, 30.42, -0.03833, 0.65604, 0.05481, 0.75168,
 12:57:46.835,ed:40:fe:65:30:6c, 2015-01-01 00:43:59.105, 0.73, -0.078, 0.681, 0.244, 0, 0, -6.476, -46.774, -124.008, -21.393, -7.647, -4.280, 27.06, 0.41168, -0.37396, -0.14078, -0.81897,
 12:57:46.835,ed:40:fe:65:30:6c, 2015-01-01 00:43:59.105, 0.733, -0.074, 0.678, 0.061, 0.122, 0, -6.476, -46.774, -124.025, -21.393, -7.647, -4.280, 27.06, 0.41168, -0.37396, -0.14078, -0.81897,
 12:57:46.836,ed:35:33:d3:6c:f8, 2015-01-01 00:43:59.365, 0.598, 0.039, 0.791, 0.122, -0.244, 0, 2.615, -36.991, 151.227, -15.287, -11.467, -30.133, 30.11, 0.22858, 0.31201, -0.0574, 0.92032,
 12:57:46.836,ed:35:33:d3:6c:f8, 2015-01-01 00:43:59.365, 0.601, 0.039, 0.789, 0, -0.366, 0, 2.615, -36.996, 151.232, -15.287, -11.467, -30.133, 30.11, 0.22858, 0.31201, -0.0574, 0.92032,
 12:57:46.837,f6:90:cc:01:6d:25, 2015-01-01 00:43:58.450, 0.977, 0.036, 0.131, -0.244, 0.183, 0, 13.414, -82.084, 174.1, -29.500, -12.600, -2.693, 30.42, -0.03833, 0.65604, 0.05481, 0.75168,
 12:57:46.837,f6:90:cc:01:6d:25, 2015-01-01 00:43:58.450, 0.979, 0.034, 0.132, -0.244, 0.366, 0, 13.403, -82.079, 174.111, -29.500, -12.600, -2.693, 30.42, -0.03833, 0.65604, 0.05481, 0.75168,
 12:57:46.856,e3:ca:2d:fd:e0:8c, 2015-01-01 00:43:59.985, 0.963, 0.044, 0.328, -0.061, 0.427, 0, 7.646, -71.175, 152.375, -24.727, -13.227, -12.673, 25.83, 0.15567, 0.57736, -0.08566, 0.79688,
 12:57:46.856,e3:ca:2d:fd:e0:8c, 2015-01-01 00:43:59.985, 0.964, 0.047, 0.329, -0.305, 0.488, 0, 7.641, -71.164, 152.38, -24.727, -13.227, -12.673, 25.83, 0.15567, 0.57736, -0.08566, 0.79688,
 12:57:46.880,e3:ca:2d:fd:e0:8c, 2015-01-01 00:43:59.985, 0.968, 0.045, 0.328, -0.549, 0.366, 0, 7.63, -71.153, 152.386, -24.547, -13.273, -13.073, 25.83, 0.15567, 0.57736, -0.08566, 0.79688,
 12:57:46.880,e3:ca:2d:fd:e0:8c, 2015-01-01 00:43:59.985, 0.968, 0.042, 0.328, -0.427, 0.488, 0, 7.614, -71.147, 152.386, -24.547, -13.273, -13.073, 25.83, 0.15567, 0.57736, -0.08566, 0.79688,
 12:57:46.880,ed:40:fe:65:30:6c, 2015-01-01 00:43:59.105, 0.734, -0.078, 0.683, 0, 0.183, 0, -6.476, -46.769, -124.041, -21.393, -7.647, -4.280, 27.06, 0.41168, -0.37396, -0.14078, -0.81897,
 12:57:46.880,ed:40:fe:65:30:6c, 2015-01-01 00:43:59.105, 0.736, -0.079, 0.684, 0.061, 0, 0, -6.476, -46.769, -124.063, -21.393, -7.647, -4.280, 27.06, 0.41168, -0.37396, -0.14078, -0.81897,
 12:57:46.882,f6:90:cc:01:6d:25, 2015-01-01 00:43:58.450, 0.98, 0.03, 0.13, -0.244, 0.305, 0, 13.392, -82.073, 174.122, -29.500, -12.600, -2.693, 30.42, -0.03809, 0.6557, 0.05441, 0.75201,
 12:57:46.882,f6:90:cc:01:6d:25, 2015-01-01 00:43:58.450, 0.979, 0.029, 0.13, -0.366, 0.244, 0, 13.381, -82.068, 174.133, -29.500, -12.600, -2.693, 30.42, -0.03809, 0.6557, 0.05441, 0.75201,
 12:57:46.902,ed:40:fe:65:30:6c, 2015-01-01 00:43:59.105, 0.733, -0.083, 0.683, 0.549, -0.061, 0.305, -6.476, -46.774, -124.069, -21.553, -7.467, -3.733, 27.06, 0.41168, -0.37396, -0.14078, -0.81897,
 12:57:46.902,ed:40:fe:65:30:6c, 2015-01-01 00:43:59.105, 0.733, -0.081, 0.682, 0.549, -0.061, 0.122, -6.471, -46.774, -124.085, -21.553, -7.467, -3.733, 27.06, 0.41168, -0.37396, -0.14078, -0.81897,
 12:57:46.904,ed:35:33:d3:6c:f8, 2015-01-01 00:43:59.365, 0.604, 0.037, 0.796, -0.244, -0.122, 0, 2.609, -36.996, 151.232, -15.287, -11.467, -30.133, 30.11, 0.22858, 0.31201, -0.0574, 0.92032,
 12:57:46.904,ed:35:33:d3:6c:f8, 2015-01-01 00:43:59.365, 0.602, 0.037, 0.799, -0.122, -0.122, 0, 2.609, -37.002, 151.232, -15.287, -11.467, -30.133, 30.11, 0.22858, 0.31201, -0.0574, 0.92032,
 12:57:46.906,f6:90:cc:01:6d:25, 2015-01-01 00:43:58.765, 0.978, 0.031, 0.13, -0.183, 0.183, 0, 13.37, -82.068, 174.139, -29.500, -12.600, -2.693, 30.42, -0.03809, 0.6557, 0.05441, 0.75201,
 12:57:46.906,f6:90:cc:01:6d:25, 2015-01-01 00:43:58.765, 0.975, 0.032, 0.13, 0, 0.122, 0, 13.365, -82.068, 174.144, -29.500, -12.600, -2.693, 30.42, -0.03809, 0.6557, 0.05441, 0.75201,
 12:57:46.924,e3:ca:2d:fd:e0:8c, 2015-01-01 00:43:59.985, 0.967, 0.042, 0.327, -0.305, 0.427, 0, 7.608, -71.136, 152.391, -24.547, -13.273, -13.073, 25.83, 0.15567, 0.57736, -0.08566, 0.79688,
 12:57:46.924,e3:ca:2d:fd:e0:8c, 2015-01-01 00:43:59.985, 0.965, 0.044, 0.325, -0.183, 0.305, 0, 7.597, -71.125, 152.391, -24.547, -13.273, -13.073, 25.83, 0.15567, 0.57736, -0.08566, 0.79688,
 12:57:46.926,ed:35:33:d3:6c:f8, 2015-01-01 00:43:59.365, 0.601, 0.03, 0.796, -0.244, -0.61, 0, 2.604, -37.013, 151.232, -15.460, -11.360, -29.947, 30.11, 0.22858, 0.31201, -0.0574, 0.92032,
 12:57:46.926,ed:35:33:d3:6c:f8, 2015-01-01 00:43:59.365, 0.598, 0.033, 0.791, 0, -0.549, 0, 2.604, -37.024, 151.238, -15.460, -11.360, -29.947, 30.11, 0.22858, 0.31201, -0.0574, 0.92032,
 12:57:46.946,e3:ca:2d:fd:e0:8c, 2015-01-01 00:43:59.985, 0.962, 0.043, 0.327, 0, 0.366, 0, 7.592, -71.12, 152.397, -24.547, -13.273, -13.073, 25.83, 0.15619, 0.57639, -0.08609, 0.79739,
 12:57:46.946,e3:ca:2d:fd:e0:8c, 2015-01-01 00:43:59.985, 0.961, 0.042, 0.327, -0.244, 0.366, 0, 7.592, -71.115, 152.397, -24.547, -13.273, -13.073, 25.83, 0.15619, 0.57639, -0.08609, 0.79739,
 12:57:46.948,ed:40:fe:65:30:6c, 2015-01-01 00:43:59.105, 0.73, -0.08, 0.68, 0.488, -0.061, 0.122, -6.465, -46.774, -124.096, -21.553, -7.467, -3.733, 27.06, 0.41168, -0.37396, -0.14078, -0.81897,
 12:57:46.948,ed:40:fe:65:30:6c, 2015-01-01 00:43:59.105, 0.729, -0.08, 0.68, 0.61, -0.061, 0.122, -6.46, -46.78, -124.113, -21.553, -7.467, -3.733, 27.06, 0.41168, -0.37396, -0.14078, -0.81897,
 12:57:46.950,f6:90:cc:01:6d:25, 2015-01-01 00:43:58.765, 0.973, 0.032, 0.131, -0.122, 0.183, 0, 13.359, -82.062, 174.15, -29.500, -12.600, -2.693, 30.42, -0.03809, 0.6557, 0.05441, 0.75201,
 12:57:46.950,f6:90:cc:01:6d:25, 2015-01-01 00:43:58.765, 0.974, 0.03, 0.131, -0.244, 0.183, 0, 13.348, -82.062, 174.155, -29.500, -12.600, -2.693, 30.42, -0.03809, 0.6557, 0.05441, 0.75201,
 12:57:46.971,ed:35:33:d3:6c:f8, 2015-01-01 00:43:59.365, 0.597, 0.034, 0.79, 0.244, -0.549, 0, 2.604, -37.035, 151.238, -15.460, -11.360, -29.947, 30.11, 0.22858, 0.31201, -0.0574, 0.92032,
 12:57:46.971,ed:35:33:d3:6c:f8, 2015-01-01 00:43:59.365, 0.597, 0.035, 0.789, 0.427, -0.488, 0, 2.615, -37.046, 151.238, -15.460, -11.360, -29.947, 30.11, 0.22858, 0.31201, -0.0574, 0.92032,
 12:57:46.992,e3:ca:2d:fd:e0:8c, 2015-01-01 00:43:59.985, 0.962, 0.042, 0.328, -0.366, 0.305, 0, 7.581, -71.109, 152.402, -24.547, -13.273, -13.073, 25.83, 0.15619, 0.57639, -0.08609, 0.79739,
 12:57:46.992,e3:ca:2d:fd:e0:8c, 2015-01-01 00:43:59.985, 0.964, 0.043, 0.33, -0.122, 0.427, 0, 7.575, -71.098, 152.408, -24.547, -13.273, -13.073, 25.83, 0.15619, 0.57639, -0.08609, 0.79739,
 12:57:46.993,ed:35:33:d3:6c:f8, 2015-01-01 00:43:59.365, 0.597, 0.034, 0.79, 0.366, -0.366, 0, 2.62, -37.057, 151.238, -15.460, -11.360, -29.947, 30.11, 0.22833, 0.31308, -0.05786, 0.91998,
 12:57:46.993,ed:35:33:d3:6c:f8, 2015-01-01 00:43:59.365, 0.6, 0.037, 0.79, 0.366, -0.305, 0, 2.626, -37.062, 151.238, -15.460, -11.360, -29.947, 30.11, 0.22833, 0.31308, -0.05786, 0.91998,
 12:57:46.995,f6:90:cc:01:6d:25, 2015-01-01 00:43:58.765, 0.976, 0.031, 0.132, -0.122, 0.244, 0, 13.337, -82.057, 174.166, -29.500, -12.600, -2.693, 30.42, -0.03809, 0.6557, 0.05441, 0.75201,
 12:57:46.995,f6:90:cc:01:6d:25, 2015-01-01 00:43:58.765, 0.978, 0.031, 0.133, -0.061, 0.244, 0, 13.332, -82.051, 174.172, -29.500, -12.600, -2.693, 30.42, -0.03809, 0.6557, 0.05441, 0.75201,
 12:57:47.013,e3:ca:2d:fd:e0:8c, 2015-01-01 00:44:00.340, 0.965, 0.043, 0.33, -0.183, 0.427, 0, 7.57, -71.093, 152.408, -24.547, -13.273, -13.073, 25.83, 0.15619, 0.57639, -0.08609, 0.79739,
 12:57:47.013,e3:ca:2d:fd:e0:8c, 2015-01-01 00:44:00.340, 0.965, 0.043, 0.331, -0.244, 0.366, 0, 7.559, -71.082, 152.413, -24.547, -13.273, -13.073, 25.83, 0.15619, 0.57639, -0.08609, 0.79739,
 12:57:47.014,ed:40:fe:65:30:6c, 2015-01-01 00:43:59.105, 0.731, -0.079, 0.68, 0.61, -0.061, 0.061, -6.449, -46.78, -124.124, -21.553, -7.467, -3.733, 27.06, 0.40964, -0.37436, -0.14001, -0.81995,
 12:57:47.014,ed:40:fe:65:30:6c, 2015-01-01 00:43:59.105, 0.733, -0.077, 0.681, 0.061, 0, 0.061, -6.443, -46.78, -124.14, -21.553, -7.467, -3.733, 27.06, 0.40964, -0.37436, -0.14001, -0.81995,
 12:57:47.038,ed:40:fe:65:30:6c, 2015-01-01 00:43:59.440, 0.733, -0.08, 0.682, 0, 0, 0.122, -6.449, -46.78, -124.151, -21.553, -7.467, -3.733, 27.06, 0.40964, -0.37436, -0.14001, -0.81995,
 12:57:47.038,ed:40:fe:65:30:6c, 2015-01-01 00:43:59.440, 0.734, -0.081, 0.683, 0.122, 0, 0.122, -6.454, -46.78, -124.167, -21.553, -7.467, -3.733, 27.06, 0.40964, -0.37436, -0.14001, -0.81995,
 12:57:47.040,f6:90:cc:01:6d:25, 2015-01-01 00:43:58.765, 0.979, 0.031, 0.133, -0.183, 0.305, 0, 13.321, -82.046, 174.183, -29.500, -12.600, -2.693, 30.42, -0.03809, 0.6557, 0.05441, 0.75201,
 12:57:47.040,f6:90:cc:01:6d:25, 2015-01-01 00:43:58.765, 0.978, 0.029, 0.133, -0.244, 0.244, 0, 13.304, -82.04, 174.194, -29.500, -12.600, -2.693, 30.42, -0.03809, 0.6557, 0.05441, 0.75201,
 12:57:47.040,ed:35:33:d3:6c:f8, 2015-01-01 00:43:59.365, 0.602, 0.037, 0.791, 0, -0.366, 0, 2.626, -37.068, 151.243, -15.460, -11.360, -29.947, 30.11, 0.22833, 0.31308, -0.05786, 0.91998,
 12:57:47.040,ed:35:33:d3:6c:f8, 2015-01-01 00:43:59.365, 0.602, 0.034, 0.793, -0.244, -0.244, 0, 2.62, -37.073, 151.243, -15.460, -11.360, -29.947, 30.11, 0.22833, 0.31308, -0.05786, 0.91998,
 12:57:47.058,e3:ca:2d:fd:e0:8c, 2015-01-01 00:44:00.340, 0.965, 0.042, 0.331, -0.305, 0.366, 0, 7.553, -71.076, 152.413, -24.547, -13.273, -13.073, 25.83, 0.15619, 0.57639, -0.08609, 0.79739,
 12:57:47.058,e3:ca:2d:fd:e0:8c, 2015-01-01 00:44:00.340, 0.965, 0.042, 0.331, -0.244, 0.244, 0, 7.542, -71.071, 152.419, -24.547, -13.273, -13.073, 25.83, 0.15619, 0.57639, -0.08609, 0.79739,
 12:57:47.059,ed:40:fe:65:30:6c, 2015-01-01 00:43:59.440, 0.734, -0.081, 0.684, 0.183, 0.061, 0.183, -6.454, -46.78, -124.178, -21.553, -7.467, -3.733, 27.06, 0.40964, -0.37436, -0.14001, -0.81995,
 12:57:47.059,ed:40:fe:65:30:6c, 2015-01-01 00:43:59.440, 0.733, -0.081, 0.683, 0, 0, 0.244, -6.46, -46.78, -124.189, -21.553, -7.467, -3.733, 27.06, 0.40964, -0.37436, -0.14001, -0.81995,
 12:57:47.083,ed:35:33:d3:6c:f8, 2015-01-01 00:43:59.700, 0.601, 0.034, 0.794, -0.366, -0.244, 0, 2.609, -37.079, 151.243, -15.460, -11.360, -29.947, 30.11, 0.22833, 0.31308, -0.05786, 0.91998,
 12:57:47.083,ed:35:33:d3:6c:f8, 2015-01-01 00:43:59.700, 0.6, 0.034, 0.793, -0.366, -0.061, 0, 2.604, -37.079, 151.243, -15.460, -11.360, -29.947, 30.11, 0.22833, 0.31308, -0.05786, 0.91998,
 12:57:47.084,f6:90:cc:01:6d:25, 2015-01-01 00:43:58.765, 0.979, 0.03, 0.134, -0.183, 0.183, 0, 13.293, -82.04, 174.199, -29.500, -12.600, -2.693, 30.42, -0.03809, 0.6557, 0.05441, 0.75201,
 12:57:47.084,f6:90:cc:01:6d:25, 2015-01-01 00:43:58.765, 0.978, 0.03, 0.134, -0.183, 0.122, 0, 13.282, -82.035, 174.205, -29.500, -12.600, -2.693, 30.42, -0.03809, 0.6557, 0.05441, 0.75201,
 12:57:47.104,e3:ca:2d:fd:e0:8c, 2015-01-01 00:44:00.340, 0.964, 0.044, 0.33, -0.183, 0.244, 0, 7.537, -71.065, 152.419, -24.547, -13.273, -13.073, 25.83, 0.15619, 0.57639, -0.08609, 0.79739,
 12:57:47.104,e3:ca:2d:fd:e0:8c, 2015-01-01 00:44:00.340, 0.961, 0.044, 0.331, -0.122, 0.305, 0, 7.531, -71.054, 152.419, -24.547, -13.273, -13.073, 25.83, 0.15619, 0.57639, -0.08609, 0.79739,
 12:57:47.106,ed:35:33:d3:6c:f8, 2015-01-01 00:43:59.700, 0.596, 0.032, 0.786, -0.244, -0.488, 0, 2.593, -37.084, 151.249, -15.460, -11.360, -29.947, 30.11, 0.22833, 0.31308, -0.05786, 0.91998,
 12:57:47.106,ed:35:33:d3:6c:f8, 2015-01-01 00:43:59.700, 0.6, 0.035, 0.79, 0, 0.183, 0, 2.593, -37.09, 151.249, -15.460, -11.360, -29.947, 30.11, 0.22833, 0.31308, -0.05786, 0.91998,
 12:57:47.106,ed:40:fe:65:30:6c, 2015-01-01 00:43:59.440, 0.729, -0.079, 0.679, 0, 0, 0.244, -6.465, -46.78, -124.195, -21.553, -7.467, -3.733, 27.06, 0.40964, -0.37436, -0.14001, -0.81995,
 12:57:47.106,ed:40:fe:65:30:6c, 2015-01-01 00:43:59.440, 0.729, -0.081, 0.683, 0.061, 0.183, 0.061, -6.476, -46.78, -124.206, -21.553, -7.467, -3.733, 27.06, 0.40964, -0.37436, -0.14001, -0.81995,
 12:57:47.107,f6:90:cc:01:6d:25, 2015-01-01 00:43:58.765, 0.976, 0.032, 0.132, -0.122, 0.061, 0, 13.271, -82.035, 174.205, -28.927, -12.247, -2.680, 30.42, -0.03809, 0.6557, 0.05441, 0.75201,
 12:57:47.107,f6:90:cc:01:6d:25, 2015-01-01 00:43:58.765, 0.974, 0.032, 0.133, 0.061, 0.183, 0, 13.266, -82.035, 174.21, -28.927, -12.247, -2.680, 30.42, -0.03809, 0.6557, 0.05441, 0.75201,
 12:57:47.148,e3:ca:2d:fd:e0:8c, 2015-01-01 00:44:00.340, 0.96, 0.042, 0.329, -0.061, 0.366, 0, 7.526, -71.049, 152.424, -24.547, -13.273, -13.073, 25.83, 0.15619, 0.57639, -0.08609, 0.79739,
 12:57:47.148,e3:ca:2d:fd:e0:8c, 2015-01-01 00:44:00.340, 0.963, 0.042, 0.329, -0.122, 0.305, 0, 7.52, -71.038, 152.424, -24.547, -13.273, -13.073, 25.83, 0.15619, 0.57639, -0.08609, 0.79739,
 12:57:47.149,ed:40:fe:65:30:6c, 2015-01-01 00:43:59.440, 0.73, -0.08, 0.679, 0.366, 0.122, 0.122, -6.476, -46.78, -124.217, -21.553, -7.467, -3.733, 27.06, 0.40964, -0.37436, -0.14001, -0.81995,
 12:57:47.149,ed:40:fe:65:30:6c, 2015-01-01 00:43:59.440, 0.732, -0.079, 0.681, 0.366, 0.061, 0.183, -6.471, -46.78, -124.233, -21.553, -7.467, -3.733, 27.06, 0.40964, -0.37436, -0.14001, -0.81995,
 12:57:47.150,ed:35:33:d3:6c:f8, 2015-01-01 00:43:59.700, 0.6, 0.034, 0.791, 0.122, 0.061, 0, 2.587, -37.09, 151.249, -15.460, -11.360, -29.947, 30.11, 0.22833, 0.31308, -0.05786, 0.91998,
 12:57:47.150,ed:35:33:d3:6c:f8, 2015-01-01 00:43:59.700, 0.601, 0.033, 0.792, 0, 0, 0, 2.593, -37.09, 151.249, -15.460, -11.360, -29.947, 30.11, 0.22833, 0.31308, -0.05786, 0.91998,
 12:57:47.152,f6:90:cc:01:6d:25, 2015-01-01 00:43:58.765, 0.975, 0.029, 0.132, 0, 0.183, 0, 13.26, -82.029, 174.216, -28.927, -12.247, -2.680, 30.42, -0.03809, 0.6557, 0.05441, 0.75201,
 12:57:47.152,f6:90:cc:01:6d:25, 2015-01-01 00:43:58.765, 0.977, 0.03, 0.132, -0.183, 0.183, 0, 13.25, -82.024, 174.227, -28.927, -12.247, -2.680, 30.42, -0.03809, 0.6557, 0.05441, 0.75201,
 12:57:47.193,e3:ca:2d:fd:e0:8c, 2015-01-01 00:44:00.340, 0.965, 0.042, 0.329, -0.305, 0.183, 0, 7.515, -71.038, 152.43, -24.547, -13.273, -13.073, 25.83, 0.15619, 0.57639, -0.08609, 0.79739,
 12:57:47.193,e3:ca:2d:fd:e0:8c, 2015-01-01 00:44:00.340, 0.966, 0.044, 0.329, -0.122, 0.061, 0, 7.509, -71.032, 152.43, -24.547, -13.273, -13.073, 25.83, 0.15619, 0.57639, -0.08609, 0.79739,
 12:57:47.195,ed:35:33:d3:6c:f8, 2015-01-01 00:43:59.700, 0.603, 0.032, 0.793, -0.122, 0, 0, 2.587, -37.09, 151.254, -15.460, -11.360, -29.947, 30.11, 0.22833, 0.31308, -0.05786, 0.91998,
 12:57:47.195,ed:35:33:d3:6c:f8, 2015-01-01 00:43:59.700, 0.601, 0.034, 0.792, -0.183, 0, 0, 2.582, -37.09, 151.254, -15.460, -11.360, -29.947, 30.11, 0.22833, 0.31308, -0.05786, 0.91998,
 12:57:47.197,f6:90:cc:01:6d:25, 2015-01-01 00:43:58.765, 0.978, 0.032, 0.132, -0.061, 0.244, 0, 13.239, -82.024, 174.232, -28.927, -12.247, -2.680, 30.42, -0.0379, 0.6554, 0.05414, 0.75232,
 12:57:47.197,f6:90:cc:01:6d:25, 2015-01-01 00:43:58.765, 0.979, 0.032, 0.132, 0, 0.122, 0, 13.233, -82.018, 174.238, -28.927, -12.247, -2.680, 30.42, -0.0379, 0.6554, 0.05414, 0.75232,
 12:57:47.217,e3:ca:2d:fd:e0:8c, 2015-01-01 00:44:00.340, 0.966, 0.044, 0.329, 0, 0, 0, 7.509, -71.032, 152.43, -24.260, -13.140, -12.700, 25.83, 0.15619, 0.57639, -0.08609, 0.79739,
 12:57:47.217,e3:ca:2d:fd:e0:8c, 2015-01-01 00:44:00.340, 0.963, 0.043, 0.33, 0, 0, 0, 7.509, -71.032, 152.43, -24.260, -13.140, -12.700, 25.83, 0.15619, 0.57639, -0.08609, 0.79739,
 12:57:47.219,ed:40:fe:65:30:6c, 2015-01-01 00:43:59.440, 0.735, -0.081, 0.681, 0.244, 0, 0.122, -6.471, -46.774, -124.239, -21.553, -7.467, -3.733, 27.06, 0.40964, -0.37436, -0.14001, -0.81995,
 12:57:47.219,ed:40:fe:65:30:6c, 2015-01-01 00:43:59.440, 0.733, -0.08, 0.682, 0.061, 0, 0.061, -6.471, -46.78, -124.255, -21.553, -7.467, -3.733, 27.06, 0.40964, -0.37436, -0.14001, -0.81995,
 12:57:47.239,ed:40:fe:65:30:6c, 2015-01-01 00:43:59.440, 0.732, -0.08, 0.682, 0.183, 0, 0, -6.476, -46.78, -124.266, -21.553, -7.480, -4.400, 27.06, 0.40964, -0.37436, -0.14001, -0.81995,
 12:57:47.239,ed:40:fe:65:30:6c, 2015-01-01 00:43:59.440, 0.732, -0.078, 0.681, 0.305, 0, 0, -6.471, -46.78, -124.283, -21.553, -7.480, -4.400, 27.06, 0.40964, -0.37436, -0.14001, -0.81995,
 12:57:47.242,f6:90:cc:01:6d:25, 2015-01-01 00:43:59.075, 0.977, 0.032, 0.132, 0, 0, 0, 13.239, -82.018, 174.238, -28.927, -12.247, -2.680, 30.42, -0.0379, 0.6554, 0.05414, 0.75232,
 12:57:47.242,f6:90:cc:01:6d:25, 2015-01-01 00:43:59.075, 0.977, 0.031, 0.132, 0.061, 0, 0, 13.239, -82.018, 174.238, -28.927, -12.247, -2.680, 30.42, -0.0379, 0.6554, 0.05414, 0.75232,
 12:57:47.262,e3:ca:2d:fd:e0:8c, 2015-01-01 00:44:00.340, 0.963, 0.043, 0.33, 0.061, -0.061, 0, 7.509, -71.032, 152.43, -24.260, -13.140, -12.700, 25.83, 0.15619, 0.57639, -0.08609, 0.79739,
 12:57:47.262,e3:ca:2d:fd:e0:8c, 2015-01-01 00:44:00.340, 0.962, 0.043, 0.33, 0.061, -0.183, 0, 7.515, -71.032, 152.43, -24.260, -13.140, -12.700, 25.83, 0.15619, 0.57639, -0.08609, 0.79739,
 12:57:47.264,ed:35:33:d3:6c:f8, 2015-01-01 00:43:59.700, 0.601, 0.034, 0.792, 0, 0, 0, 2.582, -37.09, 151.254, -15.460, -11.360, -29.947, 30.11, 0.22833, 0.31308, -0.05786, 0.91998,
 12:57:47.264,ed:35:33:d3:6c:f8, 2015-01-01 00:43:59.700, 0.601, 0.036, 0.79, 0.061, 0, 0, 2.576, -37.09, 151.254, -15.460, -11.360, -29.947, 30.11, 0.22833, 0.31308, -0.05786, 0.91998,
 12:57:47.285,ed:35:33:d3:6c:f8, 2015-01-01 00:43:59.700, 0.6, 0.035, 0.79, 0.061, 0, 0, 2.576, -37.09, 151.26, -14.913, -11.100, -30.533, 30.11, 0.22833, 0.31308, -0.05786, 0.91998,
 12:57:47.285,ed:35:33:d3:6c:f8, 2015-01-01 00:43:59.700, 0.6, 0.035, 0.79, 0, 0.061, 0, 2.576, -37.09, 151.26, -14.913, -11.100, -30.533, 30.11, 0.22833, 0.31308, -0.05786, 0.91998,
 12:57:47.285,ed:40:fe:65:30:6c, 2015-01-01 00:43:59.440, 0.731, -0.078, 0.679, 0.244, 0, 0, -6.471, -46.78, -124.294, -21.553, -7.480, -4.400, 27.06, 0.40964, -0.37436, -0.14001, -0.81995,
 12:57:47.285,ed:40:fe:65:30:6c, 2015-01-01 00:43:59.440, 0.731, -0.079, 0.68, 0.183, 0, 0.061, -6.465, -46.78, -124.31, -21.553, -7.480, -4.400, 27.06, 0.40964, -0.37436, -0.14001, -0.81995,
 12:57:47.287,f6:90:cc:01:6d:25, 2015-01-01 00:43:59.075, 0.976, 0.032, 0.132, 0, 0, 0, 13.239, -82.018, 174.238, -28.927, -12.247, -2.680, 30.42, -0.0379, 0.6554, 0.05414, 0.75232,
 12:57:47.287,f6:90:cc:01:6d:25, 2015-01-01 00:43:59.075, 0.976, 0.032, 0.132, 0.061, 0, 0, 13.244, -82.024, 174.238, -28.927, -12.247, -2.680, 30.42, -0.0379, 0.6554, 0.05414, 0.75232,
 12:57:47.307,ed:40:fe:65:30:6c, 2015-01-01 00:43:59.440, 0.731, -0.079, 0.68, 0.061, 0.061, 0.061, -6.465, -46.78, -124.321, -21.553, -7.480, -4.400, 27.06, 0.40811, -0.37466, -0.13931, -0.82071,
 12:57:47.307,ed:40:fe:65:30:6c, 2015-01-01 00:43:59.440, 0.731, -0.08, 0.681, 0.061, 0.122, 0, -6.471, -46.78, -124.332, -21.553, -7.480, -4.400, 27.06, 0.40811, -0.37466, -0.13931, -0.82071,
 12:57:47.310,f6:90:cc:01:6d:25, 2015-01-01 00:43:59.075, 0.976, 0.031, 0.133, 0, 0.061, 0, 13.244, -82.018, 174.243, -28.927, -12.247, -2.680, 30.42, -0.0379, 0.6554, 0.05414, 0.75232,
 12:57:47.310,f6:90:cc:01:6d:25, 2015-01-01 00:43:59.075, 0.976, 0.031, 0.133, 0, 0, 0, 13.25, -82.018, 174.243, -28.927, -12.247, -2.680, 30.42, -0.0379, 0.6554, 0.05414, 0.75232,
 12:57:47.329,e3:ca:2d:fd:e0:8c, 2015-01-01 00:44:00.340, 0.962, 0.043, 0.331, 0.061, -0.183, 0, 7.515, -71.038, 152.424, -24.260, -13.140, -12.700, 25.83, 0.15652, 0.57568, -0.0863, 0.79782,
 12:57:47.329,e3:ca:2d:fd:e0:8c, 2015-01-01 00:44:00.340, 0.963, 0.043, 0.33, 0, -0.244, 0, 7.515, -71.038, 152.424, -24.260, -13.140, -12.700, 25.83, 0.15652, 0.57568, -0.0863, 0.79782,
 12:57:47.331,ed:35:33:d3:6c:f8, 2015-01-01 00:43:59.700, 0.599, 0.034, 0.79, 0, 0, 0, 2.576, -37.09, 151.26, -14.913, -11.100, -30.533, 30.11, 0.22833, 0.31308, -0.05786, 0.91998,
 12:57:47.331,ed:35:33:d3:6c:f8, 2015-01-01 00:43:59.700, 0.601, 0.033, 0.79, 0, 0.244, 0, 2.576, -37.09, 151.26, -14.913, -11.100, -30.533, 30.11, 0.22833, 0.31308, -0.05786, 0.91998,
 12:57:47.352,e3:ca:2d:fd:e0:8c, 2015-01-01 00:44:00.675, 0.963, 0.043, 0.331, 0.061, -0.244, 0, 7.52, -71.043, 152.424, -24.260, -13.140, -12.700, 25.83, 0.15652, 0.57568, -0.0863, 0.79782,
 12:57:47.352,e3:ca:2d:fd:e0:8c, 2015-01-01 00:44:00.675, 0.963, 0.043, 0.33, 0.061, -0.305, 0, 7.52, -71.049, 152.419, -24.260, -13.140, -12.700, 25.83, 0.15652, 0.57568, -0.0863, 0.79782,
 12:57:47.352,ed:40:fe:65:30:6c, 2015-01-01 00:43:59.440, 0.731, -0.079, 0.681, 0.183, 0.122, 0, -6.471, -46.78, -124.349, -21.553, -7.480, -4.400, 27.06, 0.40811, -0.37466, -0.13931, -0.82071,
 12:57:47.352,ed:40:fe:65:30:6c, 2015-01-01 00:43:59.440, 0.731, -0.08, 0.681, 0.183, 0.183, 0, -6.465, -46.78, -124.36, -21.553, -7.480, -4.400, 27.06, 0.40811, -0.37466, -0.13931, -0.82071,
 12:57:47.353,ed:35:33:d3:6c:f8, 2015-01-01 00:43:59.700, 0.6, 0.033, 0.79, 0, 0.305, 0, 2.576, -37.09, 151.265, -14.913, -11.100, -30.533, 30.11, 0.22824, 0.31332, -0.05823, 0.91992,
 12:57:47.353,ed:35:33:d3:6c:f8, 2015-01-01 00:43:59.700, 0.6, 0.034, 0.792, 0.061, 0.427, 0, 2.576, -37.084, 151.265, -14.913, -11.100, -30.533, 30.11, 0.22824, 0.31332, -0.05823, 0.91992,
 12:57:47.356,f6:90:cc:01:6d:25, 2015-01-01 00:43:59.075, 0.977, 0.031, 0.134, 0, 0, 0, 13.25, -82.024, 174.243, -28.927, -12.247, -2.680, 30.42, -0.0379, 0.6554, 0.05414, 0.75232,
 12:57:47.356,f6:90:cc:01:6d:25, 2015-01-01 00:43:59.075, 0.977, 0.03, 0.133, 0, 0, 0, 13.25, -82.024, 174.243, -28.927, -12.247, -2.680, 30.42, -0.0379, 0.6554, 0.05414, 0.75232,
 12:57:47.397,e3:ca:2d:fd:e0:8c, 2015-01-01 00:44:00.675, 0.964, 0.042, 0.33, 0.061, -0.305, 0, 7.526, -71.054, 152.419, -24.260, -13.140, -12.700, 25.83, 0.15652, 0.57568, -0.0863, 0.79782,
 12:57:47.397,e3:ca:2d:fd:e0:8c, 2015-01-01 00:44:00.675, 0.964, 0.042, 0.33, 0.183, -0.305, 0, 7.531, -71.054, 152.413, -24.260, -13.140, -12.700, 25.83, 0.15652, 0.57568, -0.0863, 0.79782,
 12:57:47.397,ed:40:fe:65:30:6c, 2015-01-01 00:43:59.775, 0.732, -0.08, 0.683, 0.305, 0.183, 0, -6.465, -46.774, -124.376, -21.553, -7.480, -4.400, 27.06, 0.40811, -0.37466, -0.13931, -0.82071,
 12:57:47.397,ed:40:fe:65:30:6c, 2015-01-01 00:43:59.775, 0.732, -0.08, 0.683, 0.244, 0.122, 0, -6.46, -46.774, -124.387, -21.553, -7.480, -4.400, 27.06, 0.40811, -0.37466, -0.13931, -0.82071,
 12:57:47.399,f6:90:cc:01:6d:25, 2015-01-01 00:43:59.075, 0.977, 0.029, 0.133, 0, 0, 0, 13.25, -82.024, 174.243, -28.927, -12.247, -2.680, 30.42, -0.0379, 0.6554, 0.05414, 0.75232,
 12:57:47.399,f6:90:cc:01:6d:25, 2015-01-01 00:43:59.075, 0.977, 0.03, 0.134, 0, -0.061, 0, 13.25, -82.024, 174.238, -28.927, -12.247, -2.680, 30.42, -0.0379, 0.6554, 0.05414, 0.75232,
 12:57:47.418,e3:ca:2d:fd:e0:8c, 2015-01-01 00:44:00.675, 0.964, 0.042, 0.33, 0.122, -0.366, 0, 7.531, -71.06, 152.413, -24.260, -13.140, -12.700, 25.83, 0.15652, 0.57568, -0.0863, 0.79782,
 12:57:47.418,e3:ca:2d:fd:e0:8c, 2015-01-01 00:44:00.675, 0.964, 0.043, 0.33, 0.122, -0.366, 0, 7.537, -71.071, 152.408, -24.260, -13.140, -12.700, 25.83, 0.15652, 0.57568, -0.0863, 0.79782,
 12:57:47.419,ed:40:fe:65:30:6c, 2015-01-01 00:43:59.775, 0.732, -0.079, 0.681, 0.366, 0.183, 0, -6.46, -46.774, -124.404, -21.553, -7.480, -4.400, 27.06, 0.40811, -0.37466, -0.13931, -0.82071,
 12:57:47.419,ed:40:fe:65:30:6c, 2015-01-01 00:43:59.775, 0.732, -0.079, 0.682, 0.488, 0.122, 0, -6.454, -46.769, -124.415, -21.553, -7.480, -4.400, 27.06, 0.40811, -0.37466, -0.13931, -0.82071,
 12:57:47.420,ed:35:33:d3:6c:f8, 2015-01-01 00:43:59.700, 0.6, 0.035, 0.793, 0.122, 0.427, 0, 2.576, -37.073, 151.265, -14.913, -11.100, -30.533, 30.11, 0.22824, 0.31332, -0.05823, 0.91992,
 12:57:47.420,ed:35:33:d3:6c:f8, 2015-01-01 00:43:59.700, 0.6, 0.034, 0.794, 0.122, 0.427, 0, 2.576, -37.068, 151.271, -14.913, -11.100, -30.533, 30.11, 0.22824, 0.31332, -0.05823, 0.91992,
 12:57:47.444,ed:35:33:d3:6c:f8, 2015-01-01 00:44:00.060, 0.601, 0.035, 0.793, 0.244, 0.305, 0, 2.576, -37.062, 151.271, -14.913, -11.100, -30.533, 30.11, 0.22824, 0.31332, -0.05823, 0.91992,
 12:57:47.444,ed:35:33:d3:6c:f8, 2015-01-01 00:44:00.060, 0.599, 0.034, 0.792, 0.244, 0.488, 0, 2.582, -37.057, 151.271, -14.913, -11.100, -30.533, 30.11, 0.22824, 0.31332, -0.05823, 0.91992,
 12:57:47.445,f6:90:cc:01:6d:25, 2015-01-01 00:43:59.075, 0.978, 0.031, 0.133, 0.061, 0, 0, 13.25, -82.024, 174.238, -29.613, -12.647, -1.900, 30.42, -0.0379, 0.6554, 0.05414, 0.75232,
 12:57:47.445,f6:90:cc:01:6d:25, 2015-01-01 00:43:59.075, 0.977, 0.03, 0.133, 0.122, 0, 0, 13.25, -82.024, 174.238, -29.613, -12.647, -1.900, 30.42, -0.0379, 0.6554, 0.05414, 0.75232,
 12:57:47.463,e3:ca:2d:fd:e0:8c, 2015-01-01 00:44:00.675, 0.965, 0.042, 0.329, 0.183, -0.366, 0, 7.542, -71.076, 152.408, -24.260, -13.140, -12.700, 25.83, 0.15652, 0.57568, -0.0863, 0.79782,
 12:57:47.463,e3:ca:2d:fd:e0:8c, 2015-01-01 00:44:00.675, 0.964, 0.042, 0.329, 0.244, -0.366, 0, 7.548, -71.082, 152.402, -24.260, -13.140, -12.700, 25.83, 0.15652, 0.57568, -0.0863, 0.79782,
 12:57:47.464,ed:40:fe:65:30:6c, 2015-01-01 00:43:59.775, 0.731, -0.08, 0.681, 0.549, 0.122, 0, -6.443, -46.769, -124.426, -21.553, -7.480, -4.400, 27.06, 0.40811, -0.37466, -0.13931, -0.82071,
 12:57:47.464,ed:40:fe:65:30:6c, 2015-01-01 00:43:59.775, 0.731, -0.079, 0.684, 0.366, 0.122, 0, -6.438, -46.769, -124.442, -21.553, -7.480, -4.400, 27.06, 0.40811, -0.37466, -0.13931, -0.82071,
 12:57:47.466,ed:35:33:d3:6c:f8, 2015-01-01 00:44:00.060, 0.599, 0.036, 0.792, 0.183, 0.549, 0, 2.582, -37.046, 151.276, -14.913, -11.100, -30.533, 30.11, 0.22824, 0.31332, -0.05823, 0.91992,
 12:57:47.466,ed:35:33:d3:6c:f8, 2015-01-01 00:44:00.060, 0.599, 0.035, 0.793, 0, 0.61, 0, 2.582, -37.035, 151.276, -14.913, -11.100, -30.533, 30.11, 0.22824, 0.31332, -0.05823, 0.91992,
 12:57:47.491,f6:90:cc:01:6d:25, 2015-01-01 00:43:59.075, 0.977, 0.031, 0.132, 0.183, -0.061, 0, 13.255, -82.024, 174.238, -29.613, -12.647, -1.900, 30.42, -0.03796, 0.65536, 0.05423, 0.75232,
 12:57:47.491,f6:90:cc:01:6d:25, 2015-01-01 00:43:59.075, 0.977, 0.03, 0.133, 0.183, 0, 0, 13.255, -82.024, 174.238, -29.613, -12.647, -1.900, 30.42, -0.03796, 0.65536, 0.05423, 0.75232,
 12:57:47.512,ed:35:33:d3:6c:f8, 2015-01-01 00:44:00.060, 0.601, 0.034, 0.793, 0, 0.305, 0, 2.582, -37.024, 151.276, -14.913, -11.100, -30.533, 30.11, 0.22824, 0.31332, -0.05823, 0.91992,
 12:57:47.512,ed:35:33:d3:6c:f8, 2015-01-01 00:44:00.060, 0.599, 0.034, 0.792, 0.061, 0.305, 0, 2.582, -37.018, 151.276, -14.913, -11.100, -30.533, 30.11, 0.22824, 0.31332, -0.05823, 0.91992,
 12:57:47.512,f6:90:cc:01:6d:25, 2015-01-01 00:43:59.365, 0.977, 0.031, 0.131, 0.183, 0, 0, 13.255, -82.024, 174.238, -29.613, -12.647, -1.900, 30.42, -0.03796, 0.65536, 0.05423, 0.75232,
 12:57:47.512,f6:90:cc:01:6d:25, 2015-01-01 00:43:59.365, 0.977, 0.031, 0.132, 0.183, 0, 0, 13.26, -82.024, 174.238, -29.613, -12.647, -1.900, 30.42, -0.03796, 0.65536, 0.05423, 0.75232,
 12:57:47.532,e3:ca:2d:fd:e0:8c, 2015-01-01 00:44:00.675, 0.964, 0.043, 0.329, 0.183, -0.427, 0, 7.553, -71.087, 152.402, -24.260, -13.140, -12.700, 25.83, 0.15652, 0.57568, -0.0863, 0.79782,
 12:57:47.532,e3:ca:2d:fd:e0:8c, 2015-01-01 00:44:00.675, 0.965, 0.044, 0.329, 0.244, -0.305, 0, 7.559, -71.093, 152.397, -24.260, -13.140, -12.700, 25.83, 0.15652, 0.57568, -0.0863, 0.79782,
 12:57:47.532,ed:40:fe:65:30:6c, 2015-01-01 00:43:59.775, 0.732, -0.08, 0.682, 0.244, 0, 0, -6.432, -46.763, -124.453, -21.553, -7.480, -4.400, 27.06, 0.40811, -0.37466, -0.13931, -0.82071,
 12:57:47.534,ed:40:fe:65:30:6c, 2015-01-01 00:43:59.775, 0.732, -0.079, 0.681, 0.183, 0.061, 0, -6.432, -46.763, -124.464, -21.553, -7.480, -4.400, 27.06, 0.40811, -0.37466, -0.13931, -0.82071,
 12:57:47.553,e3:ca:2d:fd:e0:8c, 2015-01-01 00:44:00.675, 0.964, 0.043, 0.328, 0.183, -0.305, 0, 7.564, -71.098, 152.397, -24.447, -12.953, -12.447, 25.83, 0.15652, 0.57568, -0.0863, 0.79782,
 12:57:47.553,e3:ca:2d:fd:e0:8c, 2015-01-01 00:44:00.675, 0.965, 0.043, 0.329, 0.183, -0.305, 0, 7.57, -71.104, 152.391, -24.447, -12.953, -12.447, 25.83, 0.15652, 0.57568, -0.0863, 0.79782,
 12:57:47.555,ed:35:33:d3:6c:f8, 2015-01-01 00:44:00.060, 0.599, 0.033, 0.792, 0.122, 0.366, 0, 2.582, -37.013, 151.282, -14.913, -11.100, -30.533, 30.11, 0.22824, 0.31332, -0.05823, 0.91992,
 12:57:47.555,ed:35:33:d3:6c:f8, 2015-01-01 00:44:00.060, 0.598, 0.034, 0.792, 0.122, 0.488, 0, 2.582, -37.007, 151.282, -14.913, -11.100, -30.533, 30.11, 0.22824, 0.31332, -0.05823, 0.91992,
 12:57:47.558,f6:90:cc:01:6d:25, 2015-01-01 00:43:59.365, 0.977, 0.031, 0.132, 0.122, 0, 0, 13.26, -82.024, 174.238, -29.613, -12.647, -1.900, 30.42, -0.03796, 0.65536, 0.05423, 0.75232,
 12:57:47.558,f6:90:cc:01:6d:25, 2015-01-01 00:43:59.365, 0.977, 0.031, 0.132, 0, 0, 0, 13.26, -82.024, 174.238, -29.613, -12.647, -1.900, 30.42, -0.03796, 0.65536, 0.05423, 0.75232,
 12:57:47.577,ed:40:fe:65:30:6c, 2015-01-01 00:43:59.775, 0.732, -0.08, 0.682, 0.244, 0.122, 0, -6.427, -46.763, -124.475, -21.553, -7.480, -4.400, 27.06, 0.40811, -0.37466, -0.13931, -0.82071,
 12:57:47.577,ed:40:fe:65:30:6c, 2015-01-01 00:43:59.775, 0.731, -0.08, 0.681, 0.366, 0.122, 0, -6.427, -46.763, -124.492, -21.553, -7.480, -4.400, 27.06, 0.40811, -0.37466, -0.13931, -0.82071,
 12:57:47.599,ed:40:fe:65:30:6c, 2015-01-01 00:43:59.775, 0.731, -0.079, 0.682, 0.244, 0.183, 0, -6.422, -46.763, -124.503, -21.413, -8.207, -4.800, 27.06, 0.40811, -0.37466, -0.13931, -0.82071,
 12:57:47.599,ed:40:fe:65:30:6c, 2015-01-01 00:43:59.775, 0.732, -0.08, 0.682, 0.183, 0.183, 0, -6.422, -46.758, -124.514, -21.413, -8.207, -4.800, 27.06, 0.40811, -0.37466, -0.13931, -0.82071,
 12:57:47.602,f6:90:cc:01:6d:25, 2015-01-01 00:43:59.365, 0.976, 0.031, 0.132, 0, 0, 0, 13.26, -82.024, 174.238, -29.613, -12.647, -1.900, 30.42, -0.03796, 0.65536, 0.05423, 0.75232,
 12:57:47.602,f6:90:cc:01:6d:25, 2015-01-01 00:43:59.365, 0.977, 0.031, 0.132, 0.122, 0, 0, 13.26, -82.024, 174.238, -29.613, -12.647, -1.900, 30.42, -0.03796, 0.65536, 0.05423, 0.75232,
 12:57:47.620,e3:ca:2d:fd:e0:8c, 2015-01-01 00:44:00.675, 0.965, 0.043, 0.329, 0.183, -0.366, 0, 7.575, -71.109, 152.391, -24.447, -12.953, -12.447, 25.83, 0.15652, 0.57568, -0.0863, 0.79782,
 12:57:47.620,e3:ca:2d:fd:e0:8c, 2015-01-01 00:44:00.675, 0.964, 0.043, 0.329, 0.122, -0.427, 0, 7.581, -71.115, 152.386, -24.447, -12.953, -12.447, 25.83, 0.15652, 0.57568, -0.0863, 0.79782,
 12:57:47.623,ed:35:33:d3:6c:f8, 2015-01-01 00:44:00.060, 0.599, 0.035, 0.793, 0, 0.427, 0, 2.582, -37.002, 151.282, -14.913, -11.100, -30.533, 30.11, 0.22824, 0.31332, -0.05823, 0.91992,
 12:57:47.623,ed:35:33:d3:6c:f8, 2015-01-01 00:44:00.060, 0.6, 0.034, 0.793, 0, 0.366, 0, 2.582, -36.991, 151.287, -14.913, -11.100, -30.533, 30.11, 0.22824, 0.31332, -0.05823, 0.91992,
 12:57:47.644,e3:ca:2d:fd:e0:8c, 2015-01-01 00:44:00.675, 0.965, 0.043, 0.329, 0.244, -0.427, 0, 7.586, -71.12, 152.38, -24.447, -12.953, -12.447, 25.83, 0.15634, 0.57629, -0.08621, 0.79742,
 12:57:47.644,e3:ca:2d:fd:e0:8c, 2015-01-01 00:44:00.675, 0.965, 0.043, 0.329, 0.305, -0.427, 0, 7.592, -71.125, 152.38, -24.447, -12.953, -12.447, 25.83, 0.15634, 0.57629, -0.08621, 0.79742,
 12:57:47.644,ed:40:fe:65:30:6c, 2015-01-01 00:43:59.775, 0.732, -0.079, 0.682, 0.305, 0.183, 0, -6.416, -46.758, -124.525, -21.413, -8.207, -4.800, 27.06, 0.40811, -0.37466, -0.13931, -0.82071,
 12:57:47.644,ed:40:fe:65:30:6c, 2015-01-01 00:43:59.775, 0.732, -0.078, 0.683, 0.305, 0.122, 0, -6.416, -46.752, -124.536, -21.413, -8.207, -4.800, 27.06, 0.40811, -0.37466, -0.13931, -0.82071,
 12:57:47.646,ed:35:33:d3:6c:f8, 2015-01-01 00:44:00.060, 0.599, 0.035, 0.792, 0.122, 0.305, 0, 2.582, -36.985, 151.287, -15.207, -11.073, -30.127, 30.11, 0.22824, 0.31332, -0.05823, 0.91992,
 12:57:47.646,ed:35:33:d3:6c:f8, 2015-01-01 00:44:00.060, 0.597, 0.036, 0.792, 0.244, 0.427, 0, 2.582, -36.98, 151.287, -15.207, -11.073, -30.127, 30.11, 0.22824, 0.31332, -0.05823, 0.91992,
 12:57:47.648,f6:90:cc:01:6d:25, 2015-01-01 00:43:59.365, 0.978, 0.031, 0.133, 0.183, 0, 0, 13.266, -82.029, 174.238, -29.613, -12.647, -1.900, 30.42, -0.03796, 0.65536, 0.05423, 0.75232,
 12:57:47.648,f6:90:cc:01:6d:25, 2015-01-01 00:43:59.365, 0.977, 0.032, 0.133, 0.183, 0, 0, 13.266, -82.029, 174.238, -29.613, -12.647, -1.900, 30.42, -0.03796, 0.65536, 0.05423, 0.75232,
 12:57:47.667,ed:40:fe:65:30:6c, 2015-01-01 00:43:59.775, 0.73, -0.079, 0.682, 0.366, 0.183, 0, -6.411, -46.752, -124.552, -21.413, -8.207, -4.800, 27.06, 0.40671, -0.37454, -0.13885, -0.82153,
 12:57:47.667,ed:40:fe:65:30:6c, 2015-01-01 00:43:59.775, 0.732, -0.079, 0.683, 0.366, 0.122, 0, -6.405, -46.752, -124.563, -21.413, -8.207, -4.800, 27.06, 0.40671, -0.37454, -0.13885, -0.82153,
 12:57:47.670,f6:90:cc:01:6d:25, 2015-01-01 00:43:59.365, 0.977, 0.03, 0.132, 0.122, 0, 0, 13.271, -82.029, 174.238, -29.613, -12.647, -1.900, 30.42, -0.03796, 0.65536, 0.05423, 0.75232,
 12:57:47.670,f6:90:cc:01:6d:25, 2015-01-01 00:43:59.365, 0.978, 0.03, 0.133, 0.061, -0.061, 0, 13.271, -82.029, 174.238, -29.613, -12.647, -1.900, 30.42, -0.03796, 0.65536, 0.05423, 0.75232,
 12:57:47.689,e3:ca:2d:fd:e0:8c, 2015-01-01 00:44:00.675, 0.965, 0.043, 0.328, 0.183, -0.305, 0, 7.597, -71.131, 152.375, -24.447, -12.953, -12.447, 25.83, 0.15634, 0.57629, -0.08621, 0.79742,
 12:57:47.689,e3:ca:2d:fd:e0:8c, 2015-01-01 00:44:00.675, 0.965, 0.043, 0.328, 0.183, -0.244, 0, 7.603, -71.136, 152.375, -24.447, -12.953, -12.447, 25.83, 0.15634, 0.57629, -0.08621, 0.79742,
 12:57:47.691,ed:35:33:d3:6c:f8, 2015-01-01 00:44:00.060, 0.599, 0.035, 0.793, 0.183, 0.427, 0, 2.587, -36.974, 151.287, -15.207, -11.073, -30.127, 30.11, 0.22824, 0.31332, -0.05823, 0.91992,
 12:57:47.691,ed:35:33:d3:6c:f8, 2015-01-01 00:44:00.060, 0.598, 0.036, 0.795, 0.122, 0.427, 0, 2.587, -36.964, 151.293, -15.207, -11.073, -30.127, 30.11, 0.22824, 0.31332, -0.05823, 0.91992,
 12:57:47.711,e3:ca:2d:fd:e0:8c, 2015-01-01 00:44:01.035, 0.964, 0.042, 0.329, 0.183, -0.305, 0, 7.608, -71.142, 152.375, -24.447, -12.953, -12.447, 25.83, 0.15634, 0.57629, -0.08621, 0.79742,
 12:57:47.711,e3:ca:2d:fd:e0:8c, 2015-01-01 00:44:01.035, 0.966, 0.043, 0.329, 0.244, -0.305, 0, 7.614, -71.147, 152.369, -24.447, -12.953, -12.447, 25.83, 0.15634, 0.57629, -0.08621, 0.79742,
 12:57:47.712,ed:40:fe:65:30:6c, 2015-01-01 00:43:59.775, 0.731, -0.079, 0.683, 0.183, 0.061, 0.305, -6.405, -46.747, -124.568, -21.413, -8.207, -4.800, 27.06, 0.40671, -0.37454, -0.13885, -0.82153,
 12:57:47.712,ed:40:fe:65:30:6c, 2015-01-01 00:43:59.775, 0.732, -0.08, 0.683, 0.183, 0.061, 0.244, -6.411, -46.747, -124.568, -21.413, -8.207, -4.800, 27.06, 0.40671, -0.37454, -0.13885, -0.82153,
 12:57:47.713,ed:35:33:d3:6c:f8, 2015-01-01 00:44:00.060, 0.599, 0.035, 0.794, 0.061, 0.183, 0, 2.587, -36.958, 151.293, -15.207, -11.073, -30.127, 30.11, 0.22809, 0.31232, -0.05777, 0.92032,
 12:57:47.713,ed:35:33:d3:6c:f8, 2015-01-01 00:44:00.060, 0.598, 0.033, 0.794, 0, 0.183, 0, 2.587, -36.958, 151.293, -15.207, -11.073, -30.127, 30.11, 0.22809, 0.31232, -0.05777, 0.92032,
 12:57:47.715,f6:90:cc:01:6d:25, 2015-01-01 00:43:59.365, 0.978, 0.032, 0.133, 0, 0, 0, 13.277, -82.029, 174.238, -29.233, -12.347, -1.327, 30.42, -0.03796, 0.65536, 0.05423, 0.75232,
 12:57:47.715,f6:90:cc:01:6d:25, 2015-01-01 00:43:59.365, 0.977, 0.031, 0.132, -0.061, -0.061, 0, 13.277, -82.029, 174.238, -29.233, -12.347, -1.327, 30.42, -0.03796, 0.65536, 0.05423, 0.75232,
 12:57:47.755,e3:ca:2d:fd:e0:8c, 2015-01-01 00:44:01.035, 0.965, 0.043, 0.328, 0.122, -0.305, 0, 7.619, -71.147, 152.369, -24.447, -12.953, -12.447, 25.83, 0.15634, 0.57629, -0.08621, 0.79742,
 12:57:47.755,e3:ca:2d:fd:e0:8c, 2015-01-01 00:44:01.035, 0.965, 0.044, 0.328, 0, -0.366, 0, 7.619, -71.153, 152.364, -24.447, -12.953, -12.447, 25.83, 0.15634, 0.57629, -0.08621, 0.79742,
 12:57:47.757,ed:40:fe:65:30:6c, 2015-01-01 00:44:00.135, 0.73, -0.081, 0.683, 0.061, 0.061, 0.183, -6.411, -46.747, -124.574, -21.413, -8.207, -4.800, 27.06, 0.40671, -0.37454, -0.13885, -0.82153,
 12:57:47.757,ed:40:fe:65:30:6c, 2015-01-01 00:44:00.135, 0.731, -0.081, 0.681, 0.366, 0.122, 0.061, -6.416, -46.747, -124.585, -21.413, -8.207, -4.800, 27.06, 0.40671, -0.37454, -0.13885, -0.82153,
 12:57:47.759,ed:35:33:d3:6c:f8, 2015-01-01 00:44:00.060, 0.596, 0.032, 0.793, -0.061, 0.427, 0, 2.587, -36.953, 151.293, -15.207, -11.073, -30.127, 30.11, 0.22809, 0.31232, -0.05777, 0.92032,
 12:57:47.759,ed:35:33:d3:6c:f8, 2015-01-01 00:44:00.060, 0.598, 0.033, 0.793, 0.061, 0.488, 0, 2.587, -36.942, 151.298, -15.207, -11.073, -30.127, 30.11, 0.22809, 0.31232, -0.05777, 0.92032,
 12:57:47.760,f6:90:cc:01:6d:25, 2015-01-01 00:43:59.365, 0.977, 0.032, 0.132, 0.061, -0.183, 0, 13.277, -82.029, 174.232, -29.233, -12.347, -1.327, 30.42, -0.03809, 0.6554, 0.05435, 0.75229,
 12:57:47.760,f6:90:cc:01:6d:25, 2015-01-01 00:43:59.365, 0.977, 0.031, 0.132, 0.244, -0.061, 0, 13.282, -82.035, 174.227, -29.233, -12.347, -1.327, 30.42, -0.03809, 0.6554, 0.05435, 0.75229,
 12:57:47.801,e3:ca:2d:fd:e0:8c, 2015-01-01 00:44:01.035, 0.964, 0.044, 0.328, 0.061, -0.244, 0, 7.625, -71.158, 152.364, -24.447, -12.953, -12.447, 25.83, 0.15634, 0.57629, -0.08621, 0.79742,
 12:57:47.801,e3:ca:2d:fd:e0:8c, 2015-01-01 00:44:01.035, 0.964, 0.042, 0.329, 0.244, -0.061, 0, 7.63, -71.158, 152.364, -24.447, -12.953, -12.447, 25.83, 0.15634, 0.57629, -0.08621, 0.79742,
 12:57:47.802,ed:40:fe:65:30:6c, 2015-01-01 00:44:00.135, 0.731, -0.081, 0.682, 0.366, 0.061, 0, -6.411, -46.747, -124.59, -21.413, -8.207, -4.800, 27.06, 0.40671, -0.37454, -0.13885, -0.82153,
 12:57:47.802,ed:40:fe:65:30:6c, 2015-01-01 00:44:00.135, 0.73, -0.081, 0.683, 0.183, 0.061, 0.061, -6.411, -46.741, -124.601, -21.413, -8.207, -4.800, 27.06, 0.40671, -0.37454, -0.13885, -0.82153,
 12:57:47.803,ed:35:33:d3:6c:f8, 2015-01-01 00:44:00.415, 0.596, 0.032, 0.793, 0.122, 0.549, 0, 2.587, -36.936, 151.298, -15.207, -11.073, -30.127, 30.11, 0.22809, 0.31232, -0.05777, 0.92032,
 12:57:47.803,ed:35:33:d3:6c:f8, 2015-01-01 00:44:00.415, 0.597, 0.036, 0.793, 0.366, 0.366, 0, 2.587, -36.925, 151.298, -15.207, -11.073, -30.127, 30.11, 0.22809, 0.31232, -0.05777, 0.92032,
 12:57:47.805,f6:90:cc:01:6d:25, 2015-01-01 00:43:59.635, 0.976, 0.028, 0.133, 0.061, 0, 0, 13.288, -82.035, 174.227, -29.233, -12.347, -1.327, 30.42, -0.03809, 0.6554, 0.05435, 0.75229,
 12:57:47.805,f6:90:cc:01:6d:25, 2015-01-01 00:43:59.635, 0.977, 0.033, 0.133, -0.122, -0.061, 0, 13.288, -82.035, 174.227, -29.233, -12.347, -1.327, 30.42, -0.03809, 0.6554, 0.05435, 0.75229,
 12:57:47.823,e3:ca:2d:fd:e0:8c, 2015-01-01 00:44:01.035, 0.964, 0.042, 0.328, 0, -0.122, 0, 7.625, -71.158, 152.358, -24.447, -12.953, -12.447, 25.83, 0.15634, 0.57629, -0.08621, 0.79742,
 12:57:47.823,e3:ca:2d:fd:e0:8c, 2015-01-01 00:44:01.035, 0.963, 0.047, 0.328, -0.122, -0.183, 0, 7.625, -71.164, 152.358, -24.447, -12.953, -12.447, 25.83, 0.15634, 0.57629, -0.08621, 0.79742,
 12:57:47.824,ed:40:fe:65:30:6c, 2015-01-01 00:44:00.135, 0.731, -0.074, 0.68, 0.061, 0.061, 0.061, -6.411, -46.741, -124.612, -21.413, -8.207, -4.800, 27.06, 0.40671, -0.37454, -0.13885, -0.82153,
 12:57:47.824,ed:40:fe:65:30:6c, 2015-01-01 00:44:00.135, 0.733, -0.077, 0.683, 0.244, 0.305, 0, -6.411, -46.741, -124.618, -21.413, -8.207, -4.800, 27.06, 0.40671, -0.37454, -0.13885, -0.82153,
 12:57:47.848,ed:35:33:d3:6c:f8, 2015-01-01 00:44:00.415, 0.599, 0.038, 0.791, 0.366, 0.061, 0, 2.593, -36.92, 151.304, -15.207, -11.073, -30.127, 30.11, 0.22809, 0.31232, -0.05777, 0.92032,
 12:57:47.848,ed:35:33:d3:6c:f8, 2015-01-01 00:44:00.415, 0.6, 0.037, 0.795, 0.305, 0.61, -0.305, 2.598, -36.914, 151.298, -15.207, -11.073, -30.127, 30.11, 0.22809, 0.31232, -0.05777, 0.92032,
 12:57:47.849,f6:90:cc:01:6d:25, 2015-01-01 00:43:59.635, 0.977, 0.036, 0.133, -0.122, 0, 0, 13.288, -82.035, 174.227, -29.233, -12.347, -1.327, 30.42, -0.03809, 0.6554, 0.05435, 0.75229,
 12:57:47.849,f6:90:cc:01:6d:25, 2015-01-01 00:43:59.635, 0.98, 0.034, 0.132, 0.061, -0.061, 0, 13.288, -82.04, 174.227, -29.233, -12.347, -1.327, 30.42, -0.03809, 0.6554, 0.05435, 0.75229,
 12:57:47.870,ed:40:fe:65:30:6c, 2015-01-01 00:44:00.135, 0.735, -0.076, 0.684, 0.366, 0.183, -0.122, -6.405, -46.736, -124.634, -21.413, -8.207, -4.800, 27.06, 0.40671, -0.37454, -0.13885, -0.82153,
 12:57:47.870,ed:40:fe:65:30:6c, 2015-01-01 00:44:00.135, 0.732, -0.08, 0.684, 0.488, 0.061, 0.122, -6.394, -46.736, -124.645, -21.413, -8.207, -4.800, 27.06, 0.40671, -0.37454, -0.13885, -0.82153,
 12:57:47.871,ed:35:33:d3:6c:f8, 2015-01-01 00:44:00.415, 0.599, 0.04, 0.797, 0.305, 0.732, -0.122, 2.609, -36.903, 151.298, -15.207, -11.073, -30.127, 30.11, 0.22809, 0.31232, -0.05777, 0.92032,
 12:57:47.871,ed:35:33:d3:6c:f8, 2015-01-01 00:44:00.415, 0.596, 0.034, 0.798, 0, 0.183, 0.061, 2.615, -36.892, 151.293, -15.207, -11.073, -30.127, 30.11, 0.22809, 0.31232, -0.05777, 0.92032,
 12:57:47.872,f6:90:cc:01:6d:25, 2015-01-01 00:43:59.635, 0.979, 0.029, 0.131, 0, -0.061, 0, 13.299, -82.04, 174.221, -29.233, -12.347, -1.327, 30.42, -0.03809, 0.6554, 0.05435, 0.75229,
 12:57:47.872,f6:90:cc:01:6d:25, 2015-01-01 00:43:59.635, 0.977, 0.028, 0.131, 0, -0.061, 0, 13.304, -82.04, 174.221, -29.233, -12.347, -1.327, 30.42, -0.03809, 0.6554, 0.05435, 0.75229,
 12:57:47.891,e3:ca:2d:fd:e0:8c, 2015-01-01 00:44:01.035, 0.967, 0.046, 0.328, -0.122, -0.244, 0, 7.625, -71.164, 152.358, -24.447, -12.953, -12.447, 25.83, 0.15634, 0.57629, -0.08621, 0.79742,
 12:57:47.891,e3:ca:2d:fd:e0:8c, 2015-01-01 00:44:01.035, 0.967, 0.043, 0.328, -0.061, -0.244, 0, 7.63, -71.169, 152.353, -24.447, -12.953, -12.447, 25.83, 0.15634, 0.57629, -0.08621, 0.79742,
 12:57:47.914,e3:ca:2d:fd:e0:8c, 2015-01-01 00:44:01.035, 0.965, 0.041, 0.327, 0, -0.183, 0, 7.63, -71.169, 152.353, -24.400, -12.827, -12.520, 25.83, 0.15634, 0.57629, -0.08621, 0.79742,
 12:57:47.914,e3:ca:2d:fd:e0:8c, 2015-01-01 00:44:01.035, 0.965, 0.042, 0.327, 0, -0.366, 0, 7.63, -71.175, 152.353, -24.400, -12.827, -12.520, 25.83, 0.15634, 0.57629, -0.08621, 0.79742,
 12:57:47.915,ed:40:fe:65:30:6c, 2015-01-01 00:44:00.135, 0.731, -0.082, 0.685, 0.183, 0, 0.244, -6.394, -46.736, -124.645, -21.413, -8.207, -4.800, 27.06, 0.40671, -0.37454, -0.13885, -0.82153,
 12:57:47.915,ed:40:fe:65:30:6c, 2015-01-01 00:44:00.135, 0.73, -0.082, 0.683, 0.244, 0, 0.122, -6.4, -46.736, -124.651, -21.413, -8.207, -4.800, 27.06, 0.40671, -0.37454, -0.13885, -0.82153,
 12:57:47.916,ed:35:33:d3:6c:f8, 2015-01-01 00:44:00.415, 0.596, 0.03, 0.796, 0, 0, 0.061, 2.609, -36.892, 151.298, -15.207, -11.073, -30.127, 30.11, 0.22809, 0.31232, -0.05777, 0.92032,
 12:57:47.916,ed:35:33:d3:6c:f8, 2015-01-01 00:44:00.415, 0.595, 0.031, 0.793, 0, 0, -0.061, 2.609, -36.892, 151.298, -15.207, -11.073, -30.127, 30.11, 0.22809, 0.31232, -0.05777, 0.92032,
 12:57:47.917,f6:90:cc:01:6d:25, 2015-01-01 00:43:59.635, 0.977, 0.03, 0.133, 0.122, 0, 0, 13.304, -82.04, 174.221, -29.233, -12.347, -1.327, 30.42, -0.03809, 0.6554, 0.05435, 0.75229,
 12:57:47.917,f6:90:cc:01:6d:25, 2015-01-01 00:43:59.635, 0.975, 0.032, 0.131, 0.122, 0, 0, 13.304, -82.04, 174.221, -29.233, -12.347, -1.327, 30.42, -0.03809, 0.6554, 0.05435, 0.75229,
 12:57:47.959,e3:ca:2d:fd:e0:8c, 2015-01-01 00:44:01.035, 0.964, 0.044, 0.326, 0.122, -0.366, 0, 7.635, -71.186, 152.347, -24.400, -12.827, -12.520, 25.83, 0.15634, 0.57629, -0.08621, 0.79742,
 12:57:47.959,e3:ca:2d:fd:e0:8c, 2015-01-01 00:44:01.035, 0.963, 0.043, 0.325, 0.061, -0.366, 0, 7.641, -71.191, 152.347, -24.400, -12.827, -12.520, 25.83, 0.15634, 0.57629, -0.08621, 0.79742,
 12:57:47.961,ed:35:33:d3:6c:f8, 2015-01-01 00:44:00.415, 0.594, 0.035, 0.793, 0.305, 0.061, -0.061, 2.609, -36.892, 151.298, -15.207, -11.073, -30.127, 30.11, 0.22809, 0.31232, -0.05777, 0.92032,
 12:57:47.961,ed:35:33:d3:6c:f8, 2015-01-01 00:44:00.415, 0.595, 0.036, 0.79, 0.366, 0.061, -0.061, 2.615, -36.892, 151.298, -15.207, -11.073, -30.127, 30.11, 0.22809, 0.31232, -0.05777, 0.92032,
 12:57:47.962,f6:90:cc:01:6d:25, 2015-01-01 00:43:59.635, 0.975, 0.031, 0.132, 0, -0.122, 0, 13.31, -82.04, 174.221, -29.233, -12.347, -1.327, 30.42, -0.03809, 0.6554, 0.05435, 0.75229,
 12:57:47.962,f6:90:cc:01:6d:25, 2015-01-01 00:43:59.635, 0.975, 0.031, 0.132, 0, -0.122, 0, 13.31, -82.046, 174.216, -29.233, -12.347, -1.327, 30.42, -0.03809, 0.6554, 0.05435, 0.75229,
 12:57:47.981,e3:ca:2d:fd:e0:8c, 2015-01-01 00:44:01.035, 0.963, 0.042, 0.326, 0, -0.305, 0, 7.641, -71.197, 152.342, -24.400, -12.827, -12.520, 25.83, 0.15622, 0.57687, -0.08615, 0.79706,
 12:57:47.981,e3:ca:2d:fd:e0:8c, 2015-01-01 00:44:01.035, 0.964, 0.043, 0.327, 0, -0.244, 0, 7.641, -71.197, 152.342, -24.400, -12.827, -12.520, 25.83, 0.15622, 0.57687, -0.08615, 0.79706,
 12:57:47.982,ed:40:fe:65:30:6c, 2015-01-01 00:44:00.135, 0.729, -0.08, 0.682, 0.305, 0, 0, -6.394, -46.736, -124.662, -21.473, -7.900, -4.260, 27.06, 0.40671, -0.37454, -0.13885, -0.82153,
 12:57:47.982,ed:40:fe:65:30:6c, 2015-01-01 00:44:00.135, 0.729, -0.078, 0.681, 0.366, 0, 0, -6.394, -46.736, -124.667, -21.473, -7.900, -4.260, 27.06, 0.40671, -0.37454, -0.13885, -0.82153,
 12:57:48.005,ed:40:fe:65:30:6c, 2015-01-01 00:44:00.135, 0.729, -0.078, 0.681, 0.183, 0, 0, -6.389, -46.736, -124.678, -21.473, -7.900, -4.260, 27.06, 0.40585, -0.37451, -0.13849, -0.82202,
 12:57:48.005,ed:40:fe:65:30:6c, 2015-01-01 00:44:00.135, 0.73, -0.078, 0.681, 0.183, 0, -0.061, -6.389, -46.736, -124.689, -21.473, -7.900, -4.260, 27.06, 0.40585, -0.37451, -0.13849, -0.82202,
 12:57:48.006,ed:35:33:d3:6c:f8, 2015-01-01 00:44:00.415, 0.596, 0.035, 0.792, 0.305, 0.122, -0.122, 2.62, -36.892, 151.298, -15.580, -11.007, -29.747, 30.11, 0.22809, 0.31232, -0.05777, 0.92032,
 12:57:48.006,ed:35:33:d3:6c:f8, 2015-01-01 00:44:00.415, 0.597, 0.036, 0.793, 0.244, 0.122, -0.183, 2.626, -36.887, 151.293, -15.580, -11.007, -29.747, 30.11, 0.22809, 0.31232, -0.05777, 0.92032,
 12:57:48.007,f6:90:cc:01:6d:25, 2015-01-01 00:43:59.635, 0.977, 0.032, 0.133, 0, 0, 0, 13.315, -82.046, 174.21, -29.673, -12.007, -1.827, 30.42, -0.03809, 0.6554, 0.05435, 0.75229,
 12:57:48.007,f6:90:cc:01:6d:25, 2015-01-01 00:43:59.635, 0.978, 0.031, 0.133, 0, 0, 0, 13.315, -82.046, 174.21, -29.673, -12.007, -1.827, 30.42, -0.03809, 0.6554, 0.05435, 0.75229,
 12:57:48.026,e3:ca:2d:fd:e0:8c, 2015-01-01 00:44:01.035, 0.966, 0.044, 0.329, 0.061, -0.183, 0, 7.646, -71.202, 152.336, -24.400, -12.827, -12.520, 25.83, 0.15622, 0.57687, -0.08615, 0.79706,
 12:57:48.026,e3:ca:2d:fd:e0:8c, 2015-01-01 00:44:01.035, 0.967, 0.043, 0.328, 0, -0.244, 0, 7.646, -71.202, 152.336, -24.400, -12.827, -12.520, 25.83, 0.15622, 0.57687, -0.08615, 0.79706,
 12:57:48.027,ed:40:fe:65:30:6c, 2015-01-01 00:44:00.135, 0.733, -0.078, 0.683, 0.061, 0.061, 0, -6.389, -46.736, -124.7, -21.473, -7.900, -4.260, 27.06, 0.40585, -0.37451, -0.13849, -0.82202,
 12:57:48.027,ed:40:fe:65:30:6c, 2015-01-01 00:44:00.135, 0.733, -0.08, 0.684, 0.122, 0.061, 0, -6.389, -46.736, -124.706, -21.473, -7.900, -4.260, 27.06, 0.40585, -0.37451, -0.13849, -0.82202,
 12:57:48.028,ed:35:33:d3:6c:f8, 2015-01-01 00:44:00.415, 0.599, 0.037, 0.796, 0.061, 0.061, -0.122, 2.631, -36.887, 151.293, -15.580, -11.007, -29.747, 30.11, 0.22809, 0.31232, -0.05777, 0.92032,
 12:57:48.028,ed:35:33:d3:6c:f8, 2015-01-01 00:44:00.415, 0.599, 0.037, 0.797, -0.061, 0.183, 0, 2.631, -36.881, 151.293, -15.580, -11.007, -29.747, 30.11, 0.22809, 0.31232, -0.05777, 0.92032,
 12:57:48.053,f6:90:cc:01:6d:25, 2015-01-01 00:43:59.635, 0.979, 0.03, 0.133, -0.061, 0, 0, 13.315, -82.046, 174.21, -29.673, -12.007, -1.827, 30.42, -0.03809, 0.6554, 0.05435, 0.75229,
 12:57:48.053,f6:90:cc:01:6d:25, 2015-01-01 00:43:59.635, 0.979, 0.03, 0.132, 0, 0, 0, 13.315, -82.046, 174.21, -29.673, -12.007, -1.827, 30.42, -0.03809, 0.6554, 0.05435, 0.75229,
 12:57:48.072,ed:40:fe:65:30:6c, 2015-01-01 00:44:00.135, 0.732, -0.079, 0.684, 0.122, 0, 0.183, -6.389, -46.736, -124.711, -21.473, -7.900, -4.260, 27.06, 0.40585, -0.37451, -0.13849, -0.82202,
 12:57:48.072,ed:40:fe:65:30:6c, 2015-01-01 00:44:00.135, 0.732, -0.08, 0.684, 0.061, 0, 0.244, -6.394, -46.736, -124.717, -21.473, -7.900, -4.260, 27.06, 0.40585, -0.37451, -0.13849, -0.82202,
 12:57:48.073,ed:35:33:d3:6c:f8, 2015-01-01 00:44:00.415, 0.598, 0.036, 0.796, -0.122, 0.183, 0.061, 2.631, -36.881, 151.293, -15.580, -11.007, -29.747, 30.11, 0.22809, 0.31232, -0.05777, 0.92032,
 12:57:48.073,ed:35:33:d3:6c:f8, 2015-01-01 00:44:00.415, 0.597, 0.035, 0.797, -0.244, 0.244, 0, 2.626, -36.876, 151.293, -15.580, -11.007, -29.747, 30.11, 0.22809, 0.31232, -0.05777, 0.92032,
 12:57:48.075,f6:90:cc:01:6d:25, 2015-01-01 00:43:59.635, 0.978, 0.029, 0.133, 0, -0.061, 0, 13.315, -82.051, 174.21, -29.673, -12.007, -1.827, 30.42, -0.03818, 0.65552, 0.05444, 0.75217,
 12:57:48.075,f6:90:cc:01:6d:25, 2015-01-01 00:43:59.635, 0.978, 0.031, 0.131, -0.061, -0.122, 0, 13.31, -82.051, 174.21, -29.673, -12.007, -1.827, 30.42, -0.03818, 0.65552, 0.05444, 0.75217,
 12:57:48.094,e3:ca:2d:fd:e0:8c, 2015-01-01 00:44:01.035, 0.966, 0.042, 0.328, 0, -0.244, 0, 7.646, -71.208, 152.336, -24.400, -12.827, -12.520, 25.83, 0.15622, 0.57687, -0.08615, 0.79706,
 12:57:48.094,e3:ca:2d:fd:e0:8c, 2015-01-01 00:44:01.035, 0.966, 0.042, 0.328, 0.061, -0.183, 0, 7.646, -71.213, 152.331, -24.400, -12.827, -12.520, 25.83, 0.15622, 0.57687, -0.08615, 0.79706,
 12:57:48.116,e3:ca:2d:fd:e0:8c, 2015-01-01 00:44:01.415, 0.966, 0.043, 0.328, 0.061, -0.305, 0, 7.646, -71.213, 152.331, -24.400, -12.827, -12.520, 25.83, 0.15622, 0.57687, -0.08615, 0.79706,
 12:57:48.116,e3:ca:2d:fd:e0:8c, 2015-01-01 00:44:01.415, 0.965, 0.045, 0.326, 0.061, -0.305, 0, 7.652, -71.219, 152.331, -24.400, -12.827, -12.520, 25.83, 0.15622, 0.57687, -0.08615, 0.79706,
 12:57:48.116,ed:40:fe:65:30:6c, 2015-01-01 00:44:00.490, 0.731, -0.08, 0.681, -0.122, 0, 0.244, -6.405, -46.736, -124.717, -21.473, -7.900, -4.260, 27.06, 0.40585, -0.37451, -0.13849, -0.82202,
 12:57:48.116,ed:40:fe:65:30:6c, 2015-01-01 00:44:00.490, 0.729, -0.08, 0.679, 0, 0.183, 0, -6.411, -46.736, -124.722, -21.473, -7.900, -4.260, 27.06, 0.40585, -0.37451, -0.13849, -0.82202,
 12:57:48.122,f6:90:cc:01:6d:25, 2015-01-01 00:43:59.635, 0.975, 0.032, 0.131, 0, -0.122, 0, 13.315, -82.051, 174.205, -29.673, -12.007, -1.827, 30.42, -0.03818, 0.65552, 0.05444, 0.75217,
 12:57:48.122,f6:90:cc:01:6d:25, 2015-01-01 00:43:59.635, 0.976, 0.033, 0.13, 0.122, 0, 0, 13.315, -82.057, 174.205, -29.673, -12.007, -1.827, 30.42, -0.03818, 0.65552, 0.05444, 0.75217,
 12:57:48.141,ed:35:33:d3:6c:f8, 2015-01-01 00:44:00.415, 0.595, 0.032, 0.791, -0.305, -0.183, 0.061, 2.62, -36.876, 151.293, -15.580, -11.007, -29.747, 30.11, 0.22803, 0.31174, -0.05728, 0.92056,
 12:57:48.141,ed:35:33:d3:6c:f8, 2015-01-01 00:44:00.415, 0.596, 0.034, 0.792, 0, 0.183, -0.244, 2.615, -36.876, 151.298, -15.580, -11.007, -29.747, 30.11, 0.22803, 0.31174, -0.05728, 0.92056,
 12:57:48.161,e3:ca:2d:fd:e0:8c, 2015-01-01 00:44:01.415, 0.963, 0.044, 0.325, 0, -0.183, 0, 7.652, -71.224, 152.325, -24.400, -12.827, -12.520, 25.83, 0.15622, 0.57687, -0.08615, 0.79706,
 12:57:48.161,e3:ca:2d:fd:e0:8c, 2015-01-01 00:44:01.415, 0.964, 0.042, 0.326, 0, -0.061, 0, 7.652, -71.224, 152.325, -24.400, -12.827, -12.520, 25.83, 0.15622, 0.57687, -0.08615, 0.79706,
 12:57:48.162,ed:40:fe:65:30:6c, 2015-01-01 00:44:00.490, 0.73, -0.077, 0.68, -0.061, 0.061, -0.183, -6.411, -46.73, -124.733, -21.473, -7.900, -4.260, 27.06, 0.40585, -0.37451, -0.13849, -0.82202,
 12:57:48.162,ed:40:fe:65:30:6c, 2015-01-01 00:44:00.490, 0.731, -0.079, 0.681, 0.366, 0.061, 0.122, -6.411, -46.73, -124.744, -21.473, -7.900, -4.260, 27.06, 0.40585, -0.37451, -0.13849, -0.82202,
 12:57:48.163,ed:35:33:d3:6c:f8, 2015-01-01 00:44:00.795, 0.597, 0.039, 0.792, 0.244, 0.366, -0.122, 2.615, -36.87, 151.293, -15.580, -11.007, -29.747, 30.11, 0.22803, 0.31174, -0.05728, 0.92056,
 12:57:48.163,ed:35:33:d3:6c:f8, 2015-01-01 00:44:00.795, 0.597, 0.036, 0.793, 0.183, 0.122, 0.122, 2.62, -36.865, 151.293, -15.580, -11.007, -29.747, 30.11, 0.22803, 0.31174, -0.05728, 0.92056,
 12:57:48.165,f6:90:cc:01:6d:25, 2015-01-01 00:43:59.970, 0.976, 0.029, 0.131, 0, 0, 0, 13.321, -82.057, 174.205, -29.673, -12.007, -1.827, 30.42, -0.03818, 0.65552, 0.05444, 0.75217,
 12:57:48.165,f6:90:cc:01:6d:25, 2015-01-01 00:43:59.970, 0.978, 0.03, 0.13, -0.061, 0, 0, 13.315, -82.057, 174.205, -29.673, -12.007, -1.827, 30.42, -0.03818, 0.65552, 0.05444, 0.75217,
 12:57:48.184,e3:ca:2d:fd:e0:8c, 2015-01-01 00:44:01.415, 0.966, 0.042, 0.324, 0, 0, 0, 7.652, -71.224, 152.325, -24.400, -12.827, -12.520, 25.83, 0.15622, 0.57687, -0.08615, 0.79706,
 12:57:48.184,e3:ca:2d:fd:e0:8c, 2015-01-01 00:44:01.415, 0.967, 0.043, 0.326, 0, 0, 0, 7.652, -71.219, 152.325, -24.400, -12.827, -12.520, 25.83, 0.15622, 0.57687, -0.08615, 0.79706,
 12:57:48.184,ed:40:fe:65:30:6c, 2015-01-01 00:44:00.490, 0.732, -0.079, 0.681, 0.183, 0, 0.183, -6.411, -46.73, -124.75, -21.473, -7.900, -4.260, 27.06, 0.40585, -0.37451, -0.13849, -0.82202,
 12:57:48.184,ed:40:fe:65:30:6c, 2015-01-01 00:44:00.490, 0.734, -0.08, 0.682, 0, 0.061, 0.122, -6.416, -46.73, -124.75, -21.473, -7.900, -4.260, 27.06, 0.40585, -0.37451, -0.13849, -0.82202,
 12:57:48.209,f6:90:cc:01:6d:25, 2015-01-01 00:43:59.970, 0.979, 0.031, 0.131, 0, 0.061, 0, 13.315, -82.057, 174.205, -29.673, -12.007, -1.827, 30.42, -0.03818, 0.65552, 0.05444, 0.75217,
 12:57:48.209,f6:90:cc:01:6d:25, 2015-01-01 00:43:59.970, 0.979, 0.032, 0.131, 0.061, 0.061, 0, 13.315, -82.057, 174.205, -29.673, -12.007, -1.827, 30.42, -0.03818, 0.65552, 0.05444, 0.75217,
 12:57:48.209,ed:35:33:d3:6c:f8, 2015-01-01 00:44:00.795, 0.599, 0.034, 0.794, 0.061, 0.122, 0, 2.62, -36.865, 151.293, -15.580, -11.007, -29.747, 30.11, 0.22803, 0.31174, -0.05728, 0.92056,
 12:57:48.209,ed:35:33:d3:6c:f8, 2015-01-01 00:44:00.795, 0.598, 0.035, 0.796, -0.122, 0.122, 0, 2.62, -36.865, 151.293, -15.580, -11.007, -29.747, 30.11, 0.22803, 0.31174, -0.05728, 0.92056,
 12:57:48.229,e3:ca:2d:fd:e0:8c, 2015-01-01 00:44:01.415, 0.967, 0.044, 0.325, 0.061, 0, 0, 7.652, -71.219, 152.325, -24.400, -12.827, -12.520, 25.83, 0.15622, 0.57687, -0.08615, 0.79706,
 12:57:48.229,e3:ca:2d:fd:e0:8c, 2015-01-01 00:44:01.415, 0.966, 0.044, 0.326, 0.061, 0, 0, 7.652, -71.219, 152.325, -24.400, -12.827, -12.520, 25.83, 0.15622, 0.57687, -0.08615, 0.79706,
 12:57:48.229,ed:40:fe:65:30:6c, 2015-01-01 00:44:00.490, 0.732, -0.079, 0.683, 0, 0.061, 0, -6.416, -46.73, -124.761, -21.473, -7.900, -4.260, 27.06, 0.40585, -0.37451, -0.13849, -0.82202,
 12:57:48.229,ed:40:fe:65:30:6c, 2015-01-01 00:44:00.490, 0.732, -0.078, 0.684, 0, 0, 0, -6.422, -46.736, -124.766, -21.473, -7.900, -4.260, 27.06, 0.40585, -0.37451, -0.13849, -0.82202,
 12:57:48.231,ed:35:33:d3:6c:f8, 2015-01-01 00:44:00.795, 0.598, 0.036, 0.797, -0.305, 0.061, 0, 2.615, -36.859, 151.298, -15.580, -11.007, -29.747, 30.11, 0.22803, 0.31174, -0.05728, 0.92056,
 12:57:48.231,ed:35:33:d3:6c:f8, 2015-01-01 00:44:00.795, 0.597, 0.036, 0.796, -0.244, 0, 0, 2.609, -36.859, 151.298, -15.580, -11.007, -29.747, 30.11, 0.22803, 0.31174, -0.05728, 0.92056,
 12:57:48.255,f6:90:cc:01:6d:25, 2015-01-01 00:43:59.970, 0.979, 0.032, 0.132, 0.061, 0, 0, 13.315, -82.057, 174.205, -29.673, -12.007, -1.827, 30.42, -0.03818, 0.65552, 0.05444, 0.75217,
 12:57:48.255,f6:90:cc:01:6d:25, 2015-01-01 00:43:59.970, 0.978, 0.033, 0.131, 0.061, 0, 0, 13.315, -82.057, 174.205, -29.673, -12.007, -1.827, 30.42, -0.03818, 0.65552, 0.05444, 0.75217,
 12:57:48.275,ed:35:33:d3:6c:f8, 2015-01-01 00:44:00.795, 0.597, 0.036, 0.794, 0, -0.061, -0.061, 2.604, -36.865, 151.298, -15.580, -11.007, -29.747, 30.11, 0.22803, 0.31174, -0.05728, 0.92056,
 12:57:48.275,ed:35:33:d3:6c:f8, 2015-01-01 00:44:00.795, 0.595, 0.036, 0.792, 0.061, 0, -0.183, 2.609, -36.865, 151.293, -15.580, -11.007, -29.747, 30.11, 0.22803, 0.31174, -0.05728, 0.92056,
 12:57:48.275,ed:40:fe:65:30:6c, 2015-01-01 00:44:00.490, 0.732, -0.077, 0.684, 0, 0, 0, -6.422, -46.736, -124.772, -21.473, -7.900, -4.260, 27.06, 0.40585, -0.37451, -0.13849, -0.82202,
 12:57:48.275,ed:40:fe:65:30:6c, 2015-01-01 00:44:00.490, 0.731, -0.077, 0.682, 0.061, 0, 0, -6.422, -46.736, -124.783, -21.473, -7.900, -4.260, 27.06, 0.40585, -0.37451, -0.13849, -0.82202,
 12:57:48.277,f6:90:cc:01:6d:25, 2015-01-01 00:43:59.970, 0.976, 0.033, 0.131, 0.061, 0, 0, 13.321, -82.057, 174.21, -29.673, -12.007, -1.827, 30.42, -0.03818, 0.65552, 0.05444, 0.75217,
 12:57:48.277,f6:90:cc:01:6d:25, 2015-01-01 00:43:59.970, 0.977, 0.032, 0.132, 0, 0, 0, 13.321, -82.057, 174.21, -29.673, -12.007, -1.827, 30.42, -0.03818, 0.65552, 0.05444, 0.75217,
 12:57:48.296,e3:ca:2d:fd:e0:8c, 2015-01-01 00:44:01.415, 0.964, 0.044, 0.327, 0, 0, 0, 7.652, -71.219, 152.325, -24.400, -12.827, -12.520, 25.83, 0.15622, 0.57687, -0.08615, 0.79706,
 12:57:48.296,e3:ca:2d:fd:e0:8c, 2015-01-01 00:44:01.415, 0.964, 0.044, 0.326, 0, -0.061, 0, 7.652, -71.219, 152.325, -24.400, -12.827, -12.520, 25.83, 0.15622, 0.57687, -0.08615, 0.79706,
 12:57:48.319,e3:ca:2d:fd:e0:8c, 2015-01-01 00:44:01.415, 0.964, 0.044, 0.327, 0, -0.061, 0, 7.652, -71.224, 152.325, -24.567, -13.393, -11.873, 25.83, 0.15622, 0.57687, -0.08615, 0.79706,
 12:57:48.319,e3:ca:2d:fd:e0:8c, 2015-01-01 00:44:01.415, 0.964, 0.044, 0.326, -0.061, 0, 0, 7.652, -71.224, 152.325, -24.567, -13.393, -11.873, 25.83, 0.15622, 0.57687, -0.08615, 0.79706,
 12:57:48.322,f6:90:cc:01:6d:25, 2015-01-01 00:43:59.970, 0.976, 0.031, 0.132, 0, 0, 0, 13.326, -82.057, 174.21, -29.673, -12.007, -1.827, 30.42, -0.03818, 0.65552, 0.05444, 0.75217,
 12:57:48.322,f6:90:cc:01:6d:25, 2015-01-01 00:43:59.970, 0.976, 0.03, 0.131, 0, 0.061, 0, 13.326, -82.057, 174.21, -29.673, -12.007, -1.827, 30.42, -0.03818, 0.65552, 0.05444, 0.75217,
 12:57:48.342,ed:40:fe:65:30:6c, 2015-01-01 00:44:00.490, 0.73, -0.078, 0.681, 0.061, 0, 0, -6.422, -46.736, -124.788, -21.500, -7.747, -4.067, 27.06, 0.40585, -0.37451, -0.13849, -0.82202,
 12:57:48.342,ed:40:fe:65:30:6c, 2015-01-01 00:44:00.490, 0.73, -0.08, 0.681, 0.244, 0.122, 0, -6.422, -46.736, -124.799, -21.500, -7.747, -4.067, 27.06, 0.40585, -0.37451, -0.13849, -0.82202,
 12:57:48.343,ed:35:33:d3:6c:f8, 2015-01-01 00:44:00.795, 0.595, 0.035, 0.792, 0.183, -0.061, -0.183, 2.609, -36.865, 151.293, -15.580, -11.007, -29.747, 30.11, 0.22803, 0.31174, -0.05728, 0.92056,
 12:57:48.343,ed:35:33:d3:6c:f8, 2015-01-01 00:44:00.795, 0.595, 0.036, 0.792, 0.183, 0.122, -0.122, 2.615, -36.865, 151.287, -15.580, -11.007, -29.747, 30.11, 0.22803, 0.31174, -0.05728, 0.92056,
 12:57:48.364,e3:ca:2d:fd:e0:8c, 2015-01-01 00:44:01.415, 0.964, 0.042, 0.327, -0.061, 0, 0, 7.652, -71.219, 152.325, -24.567, -13.393, -11.873, 25.83, 0.15622, 0.57687, -0.08615, 0.79706,
 12:57:48.364,e3:ca:2d:fd:e0:8c, 2015-01-01 00:44:01.415, 0.965, 0.043, 0.327, -0.061, 0, 0, 7.652, -71.219, 152.325, -24.567, -13.393, -11.873, 25.83, 0.15622, 0.57687, -0.08615, 0.79706,
 12:57:48.365,ed:40:fe:65:30:6c, 2015-01-01 00:44:00.490, 0.73, -0.08, 0.682, 0.244, 0.122, 0, -6.416, -46.736, -124.805, -21.500, -7.747, -4.067, 27.06, 0.40488, -0.37476, -0.13788, -0.82251,
 12:57:48.365,ed:40:fe:65:30:6c, 2015-01-01 00:44:00.490, 0.731, -0.079, 0.683, 0.122, 0.122, 0, -6.416, -46.73, -124.81, -21.500, -7.747, -4.067, 27.06, 0.40488, -0.37476, -0.13788, -0.82251,
 12:57:48.366,ed:35:33:d3:6c:f8, 2015-01-01 00:44:00.795, 0.595, 0.036, 0.795, 0.122, 0.122, 0.061, 2.62, -36.865, 151.287, -15.347, -11.307, -29.980, 30.11, 0.22803, 0.31174, -0.05728, 0.92056,
 12:57:48.366,ed:35:33:d3:6c:f8, 2015-01-01 00:44:00.795, 0.596, 0.035, 0.796, 0, 0.122, 0, 2.62, -36.859, 151.287, -15.347, -11.307, -29.980, 30.11, 0.22803, 0.31174, -0.05728, 0.92056,
 12:57:48.367,f6:90:cc:01:6d:25, 2015-01-01 00:43:59.970, 0.977, 0.031, 0.133, -0.061, 0.061, 0, 13.326, -82.057, 174.21, -29.760, -12.687, -2.380, 30.42, -0.03818, 0.65552, 0.05444, 0.75217,
 12:57:48.367,f6:90:cc:01:6d:25, 2015-01-01 00:43:59.970, 0.977, 0.03, 0.133, -0.061, 0.122, 0, 13.326, -82.057, 174.216, -29.760, -12.687, -2.380, 30.42, -0.03818, 0.65552, 0.05444, 0.75217,
 12:57:48.386,e3:ca:2d:fd:e0:8c, 2015-01-01 00:44:01.415, 0.966, 0.043, 0.327, 0, 0, 0, 7.652, -71.219, 152.325, -24.567, -13.393, -11.873, 25.83, 0.15622, 0.57709, -0.08624, 0.79688,
 12:57:48.386,e3:ca:2d:fd:e0:8c, 2015-01-01 00:44:01.415, 0.966, 0.044, 0.328, 0.061, -0.061, 0, 7.652, -71.219, 152.325, -24.567, -13.393, -11.873, 25.83, 0.15622, 0.57709, -0.08624, 0.79688,
 12:57:48.409,ed:40:fe:65:30:6c, 2015-01-01 00:44:00.490, 0.731, -0.079, 0.684, 0, 0.122, 0, -6.416, -46.73, -124.821, -21.500, -7.747, -4.067, 27.06, 0.40488, -0.37476, -0.13788, -0.82251,
 12:57:48.409,ed:40:fe:65:30:6c, 2015-01-01 00:44:00.490, 0.732, -0.08, 0.683, 0, 0.061, 0, -6.422, -46.73, -124.827, -21.500, -7.747, -4.067, 27.06, 0.40488, -0.37476, -0.13788, -0.82251,
 12:57:48.411,ed:35:33:d3:6c:f8, 2015-01-01 00:44:00.795, 0.597, 0.036, 0.795, 0, 0.061, 0, 2.62, -36.859, 151.287, -15.347, -11.307, -29.980, 30.11, 0.22803, 0.31174, -0.05728, 0.92056,
 12:57:48.411,ed:35:33:d3:6c:f8, 2015-01-01 00:44:00.795, 0.597, 0.034, 0.796, 0, 0.061, 0, 2.62, -36.859, 151.293, -15.347, -11.307, -29.980, 30.11, 0.22803, 0.31174, -0.05728, 0.92056,
 12:57:48.413,f6:90:cc:01:6d:25, 2015-01-01 00:43:59.970, 0.978, 0.031, 0.133, 0, 0, 0, 13.321, -82.057, 174.216, -29.760, -12.687, -2.380, 30.42, -0.03827, 0.65555, 0.0545, 0.75214,
 12:57:48.413,f6:90:cc:01:6d:25, 2015-01-01 00:43:59.970, 0.978, 0.032, 0.132, 0, 0, 0, 13.321, -82.057, 174.216, -29.760, -12.687, -2.380, 30.42, -0.03827, 0.65555, 0.0545, 0.75214,
 12:57:48.432,ed:40:fe:65:30:6c, 2015-01-01 00:44:00.830, 0.731, -0.079, 0.684, 0.244, 0.122, 0, -6.416, -46.73, -124.838, -21.500, -7.747, -4.067, 27.06, 0.40488, -0.37476, -0.13788, -0.82251,
 12:57:48.432,ed:40:fe:65:30:6c, 2015-01-01 00:44:00.830, 0.731, -0.08, 0.684, 0.183, 0.061, 0, -6.416, -46.725, -124.843, -21.500, -7.747, -4.067, 27.06, 0.40488, -0.37476, -0.13788, -0.82251,
 12:57:48.432,e3:ca:2d:fd:e0:8c, 2015-01-01 00:44:01.415, 0.965, 0.043, 0.327, 0, -0.122, 0, 7.652, -71.219, 152.325, -24.567, -13.393, -11.873, 25.83, 0.15622, 0.57709, -0.08624, 0.79688,
 12:57:48.432,e3:ca:2d:fd:e0:8c, 2015-01-01 00:44:01.415, 0.965, 0.043, 0.326, -0.061, -0.122, 0, 7.652, -71.219, 152.325, -24.567, -13.393, -11.873, 25.83, 0.15622, 0.57709, -0.08624, 0.79688,
 12:57:48.433,ed:35:33:d3:6c:f8, 2015-01-01 00:44:00.795, 0.596, 0.036, 0.796, -0.061, 0.183, 0, 2.62, -36.854, 151.293, -15.347, -11.307, -29.980, 30.11, 0.22809, 0.31155, -0.05731, 0.92059,
 12:57:48.433,ed:35:33:d3:6c:f8, 2015-01-01 00:44:00.795, 0.596, 0.035, 0.797, 0.061, 0.122, 0, 2.615, -36.854, 151.293, -15.347, -11.307, -29.980, 30.11, 0.22809, 0.31155, -0.05731, 0.92059,
 12:57:48.435,f6:90:cc:01:6d:25, 2015-01-01 00:44:00.285, 0.978, 0.031, 0.132, 0, 0, 0, 13.321, -82.057, 174.216, -29.760, -12.687, -2.380, 30.42, -0.03827, 0.65555, 0.0545, 0.75214,
 12:57:48.435,f6:90:cc:01:6d:25, 2015-01-01 00:44:00.285, 0.977, 0.031, 0.132, 0, 0, 0, 13.321, -82.057, 174.216, -29.760, -12.687, -2.380, 30.42, -0.03827, 0.65555, 0.0545, 0.75214,
 12:57:48.477,ed:40:fe:65:30:6c, 2015-01-01 00:44:00.830, 0.73, -0.081, 0.683, 0.122, 0, 0, -6.416, -46.725, -124.849, -21.500, -7.747, -4.067, 27.06, 0.40488, -0.37476, -0.13788, -0.82251,
 12:57:48.477,ed:40:fe:65:30:6c, 2015-01-01 00:44:00.830, 0.731, -0.081, 0.683, 0.183, 0, 0, -6.416, -46.725, -124.854, -21.500, -7.747, -4.067, 27.06, 0.40488, -0.37476, -0.13788, -0.82251,
 12:57:48.479,ed:35:33:d3:6c:f8, 2015-01-01 00:44:00.795, 0.596, 0.034, 0.795, 0.122, -0.061, 0, 2.62, -36.854, 151.293, -15.347, -11.307, -29.980, 30.11, 0.22809, 0.31155, -0.05731, 0.92059,
 12:57:48.479,ed:35:33:d3:6c:f8, 2015-01-01 00:44:00.795, 0.597, 0.033, 0.793, 0.061, 0, 0, 2.62, -36.854, 151.293, -15.347, -11.307, -29.980, 30.11, 0.22809, 0.31155, -0.05731, 0.92059,
 12:57:48.480,f6:90:cc:01:6d:25, 2015-01-01 00:44:00.285, 0.977, 0.029, 0.132, 0.061, 0, 0, 13.321, -82.057, 174.216, -29.760, -12.687, -2.380, 30.42, -0.03827, 0.65555, 0.0545, 0.75214,
 12:57:48.480,f6:90:cc:01:6d:25, 2015-01-01 00:44:00.285, 0.977, 0.03, 0.131, 0.122, 0, 0, 13.321, -82.057, 174.216, -29.760, -12.687, -2.380, 30.42, -0.03827, 0.65555, 0.0545, 0.75214,
 12:57:48.499,e3:ca:2d:fd:e0:8c, 2015-01-01 00:44:01.415, 0.965, 0.043, 0.326, 0, -0.122, 0, 7.652, -71.224, 152.32, -24.567, -13.393, -11.873, 25.83, 0.15622, 0.57709, -0.08624, 0.79688,
 12:57:48.499,e3:ca:2d:fd:e0:8c, 2015-01-01 00:44:01.415, 0.965, 0.042, 0.325, 0.061, -0.061, 0, 7.652, -71.224, 152.32, -24.567, -13.393, -11.873, 25.83, 0.15622, 0.57709, -0.08624, 0.79688,
 12:57:48.521,e3:ca:2d:fd:e0:8c, 2015-01-01 00:44:01.415, 0.965, 0.043, 0.326, 0.122, -0.122, 0, 7.652, -71.224, 152.32, -24.567, -13.393, -11.873, 25.88, 0.15622, 0.57709, -0.08624, 0.79688,
 12:57:48.521,e3:ca:2d:fd:e0:8c, 2015-01-01 00:44:01.415, 0.965, 0.044, 0.326, 0.122, -0.061, 0, 7.657, -71.224, 152.32, -24.567, -13.393, -11.873, 25.88, 0.15622, 0.57709, -0.08624, 0.79688,
 12:57:48.522,ed:40:fe:65:30:6c, 2015-01-01 00:44:00.830, 0.731, -0.08, 0.681, 0.244, 0, 0, -6.416, -46.725, -124.865, -21.500, -7.747, -4.067, 27.06, 0.40488, -0.37476, -0.13788, -0.82251,
 12:57:48.522,ed:40:fe:65:30:6c, 2015-01-01 00:44:00.830, 0.731, -0.08, 0.682, 0.366, 0, 0, -6.411, -46.73, -124.871, -21.500, -7.747, -4.067, 27.06, 0.40488, -0.37476, -0.13788, -0.82251,
 12:57:48.523,ed:35:33:d3:6c:f8, 2015-01-01 00:44:01.130, 0.596, 0.035, 0.793, 0.061, 0.122, 0, 2.62, -36.848, 151.293, -15.347, -11.307, -29.980, 30.11, 0.22809, 0.31155, -0.05731, 0.92059,
 12:57:48.523,ed:35:33:d3:6c:f8, 2015-01-01 00:44:01.130, 0.596, 0.035, 0.794, 0, 0.061, 0, 2.62, -36.848, 151.293, -15.347, -11.307, -29.980, 30.11, 0.22809, 0.31155, -0.05731, 0.92059,
 12:57:48.524,f6:90:cc:01:6d:25, 2015-01-01 00:44:00.285, 0.977, 0.031, 0.131, 0.122, -0.061, 0, 13.326, -82.057, 174.216, -29.760, -12.687, -2.380, 30.42, -0.03827, 0.65555, 0.0545, 0.75214,
 12:57:48.524,f6:90:cc:01:6d:25, 2015-01-01 00:44:00.285, 0.977, 0.031, 0.132, 0.061, 0, 0, 13.326, -82.057, 174.216, -29.760, -12.687, -2.380, 30.42, -0.03827, 0.65555, 0.0545, 0.75214,
 12:57:48.566,e3:ca:2d:fd:e0:8c, 2015-01-01 00:44:01.415, 0.965, 0.044, 0.326, 0, 0, 0, 7.657, -71.224, 152.32, -24.567, -13.393, -11.873, 25.88, 0.15622, 0.57709, -0.08624, 0.79688,
 12:57:48.566,e3:ca:2d:fd:e0:8c, 2015-01-01 00:44:01.415, 0.965, 0.044, 0.325, -0.061, -0.061, 0, 7.657, -71.224, 152.32, -24.567, -13.393, -11.873, 25.88, 0.15622, 0.57709, -0.08624, 0.79688,
 12:57:48.568,ed:40:fe:65:30:6c, 2015-01-01 00:44:00.830, 0.731, -0.079, 0.682, 0.305, 0, 0, -6.405, -46.73, -124.876, -21.500, -7.747, -4.067, 27.06, 0.40488, -0.37476, -0.13788, -0.82251,
 12:57:48.568,ed:40:fe:65:30:6c, 2015-01-01 00:44:00.830, 0.732, -0.079, 0.682, 0.061, 0, 0, -6.405, -46.73, -124.882, -21.500, -7.747, -4.067, 27.06, 0.40488, -0.37476, -0.13788, -0.82251,
 12:57:48.571,ed:35:33:d3:6c:f8, 2015-01-01 00:44:01.130, 0.597, 0.035, 0.795, 0, -0.061, 0, 2.615, -36.848, 151.293, -15.347, -11.307, -29.980, 30.11, 0.22809, 0.31155, -0.05731, 0.92059,
 12:57:48.571,ed:35:33:d3:6c:f8, 2015-01-01 00:44:01.130, 0.598, 0.035, 0.793, 0, -0.122, 0, 2.615, -36.848, 151.298, -15.347, -11.307, -29.980, 30.11, 0.22809, 0.31155, -0.05731, 0.92059,
 12:57:48.571,f6:90:cc:01:6d:25, 2015-01-01 00:44:00.285, 0.978, 0.032, 0.131, 0, 0, 0, 13.326, -82.057, 174.216, -29.760, -12.687, -2.380, 30.42, -0.03827, 0.65555, 0.0545, 0.75214,
 12:57:48.571,f6:90:cc:01:6d:25, 2015-01-01 00:44:00.285, 0.978, 0.031, 0.131, 0, 0.061, 0, 13.321, -82.057, 174.216, -29.760, -12.687, -2.380, 30.42, -0.03827, 0.65555, 0.0545, 0.75214,
 12:57:48.588,e3:ca:2d:fd:e0:8c, 2015-01-01 00:44:01.905, 0.966, 0.043, 0.326, 0, -0.061, 0, 7.657, -71.224, 152.32, -24.567, -13.393, -11.873, 25.88, 0.15622, 0.57709, -0.08624, 0.79688,
 12:57:48.588,e3:ca:2d:fd:e0:8c, 2015-01-01 00:44:01.905, 0.965, 0.044, 0.327, 0.061, -0.061, 0, 7.657, -71.224, 152.32, -24.567, -13.393, -11.873, 25.88, 0.15622, 0.57709, -0.08624, 0.79688,
 12:57:48.613,ed:40:fe:65:30:6c, 2015-01-01 00:44:00.830, 0.731, -0.08, 0.682, 0.061, 0, 0, -6.411, -46.73, -124.887, -21.500, -7.747, -4.067, 27.06, 0.40488, -0.37476, -0.13788, -0.82251,
 12:57:48.613,ed:40:fe:65:30:6c, 2015-01-01 00:44:00.830, 0.732, -0.078, 0.683, 0.183, 0, 0, -6.411, -46.73, -124.898, -21.500, -7.747, -4.067, 27.06, 0.40488, -0.37476, -0.13788, -0.82251,
 12:57:48.613,ed:35:33:d3:6c:f8, 2015-01-01 00:44:01.130, 0.597, 0.034, 0.794, 0, -0.061, 0, 2.615, -36.854, 151.298, -15.347, -11.307, -29.980, 30.11, 0.22809, 0.31155, -0.05731, 0.92059,
 12:57:48.613,ed:35:33:d3:6c:f8, 2015-01-01 00:44:01.130, 0.597, 0.035, 0.795, 0, 0.061, 0, 2.615, -36.854, 151.298, -15.347, -11.307, -29.980, 30.11, 0.22809, 0.31155, -0.05731, 0.92059,
 12:57:48.614,f6:90:cc:01:6d:25, 2015-01-01 00:44:00.285, 0.978, 0.032, 0.131, 0, 0, 0, 13.321, -82.057, 174.216, -29.760, -12.687, -2.380, 30.42, -0.03827, 0.65555, 0.0545, 0.75214,
 12:57:48.614,f6:90:cc:01:6d:25, 2015-01-01 00:44:00.285, 0.978, 0.032, 0.132, 0, 0, 0, 13.321, -82.057, 174.216, -29.760, -12.687, -2.380, 30.42, -0.03827, 0.65555, 0.0545, 0.75214,
 12:57:48.635,e3:ca:2d:fd:e0:8c, 2015-01-01 00:44:01.905, 0.965, 0.044, 0.327, 0, 0, 0, 7.657, -71.224, 152.32, -24.567, -13.393, -11.873, 25.88, 0.15622, 0.57709, -0.08624, 0.79688,
 12:57:48.635,e3:ca:2d:fd:e0:8c, 2015-01-01 00:44:01.905, 0.965, 0.043, 0.327, 0, 0, 0, 7.657, -71.224, 152.32, -24.567, -13.393, -11.873, 25.88, 0.15622, 0.57709, -0.08624, 0.79688,
 12:57:48.635,ed:40:fe:65:30:6c, 2015-01-01 00:44:00.830, 0.732, -0.079, 0.683, 0.183, 0, 0, -6.411, -46.73, -124.904, -21.420, -7.540, -3.607, 27.06, 0.40488, -0.37476, -0.13788, -0.82251,
 12:57:48.635,ed:40:fe:65:30:6c, 2015-01-01 00:44:00.830, 0.731, -0.08, 0.682, 0.122, 0.061, 0, -6.411, -46.73, -124.909, -21.420, -7.540, -3.607, 27.06, 0.40488, -0.37476, -0.13788, -0.82251,
 12:57:48.636,ed:35:33:d3:6c:f8, 2015-01-01 00:44:01.130, 0.597, 0.036, 0.794, 0, 0, 0, 2.615, -36.854, 151.298, -15.347, -11.307, -29.980, 30.11, 0.22809, 0.31155, -0.05731, 0.92059,
 12:57:48.636,ed:35:33:d3:6c:f8, 2015-01-01 00:44:01.130, 0.597, 0.034, 0.795, 0.061, 0.061, 0, 2.615, -36.854, 151.298, -15.347, -11.307, -29.980, 30.11, 0.22809, 0.31155, -0.05731, 0.92059,
 12:57:48.637,f6:90:cc:01:6d:25, 2015-01-01 00:44:00.285, 0.977, 0.032, 0.132, 0, 0, 0, 13.326, -82.062, 174.216, -29.493, -12.373, -2.347, 30.42, -0.03827, 0.65555, 0.0545, 0.75214,
 12:57:48.637,f6:90:cc:01:6d:25, 2015-01-01 00:44:00.285, 0.977, 0.032, 0.132, 0, 0.061, 0, 13.326, -82.057, 174.221, -29.493, -12.373, -2.347, 30.42, -0.03827, 0.65555, 0.0545, 0.75214,
 12:57:48.678,e3:ca:2d:fd:e0:8c, 2015-01-01 00:44:01.905, 0.965, 0.043, 0.327, 0, 0, 0, 7.657, -71.224, 152.32, -24.567, -13.393, -11.873, 25.88, 0.15622, 0.57709, -0.08624, 0.79688,
 12:57:48.678,e3:ca:2d:fd:e0:8c, 2015-01-01 00:44:01.905, 0.965, 0.042, 0.326, 0, -0.122, 0, 7.657, -71.224, 152.32, -24.567, -13.393, -11.873, 25.88, 0.15622, 0.57709, -0.08624, 0.79688,
 12:57:48.680,ed:35:33:d3:6c:f8, 2015-01-01 00:44:01.130, 0.595, 0.034, 0.795, 0, 0.061, 0, 2.609, -36.854, 151.298, -15.347, -11.307, -29.980, 30.11, 0.22809, 0.31155, -0.05731, 0.92059,
 12:57:48.680,ed:35:33:d3:6c:f8, 2015-01-01 00:44:01.130, 0.597, 0.036, 0.794, 0.061, 0, 0, 2.609, -36.854, 151.298, -15.347, -11.307, -29.980, 30.11, 0.22809, 0.31155, -0.05731, 0.92059,
 12:57:48.680,ed:40:fe:65:30:6c, 2015-01-01 00:44:00.830, 0.731, -0.081, 0.682, 0.183, 0.061, 0, -6.405, -46.73, -124.915, -21.420, -7.540, -3.607, 27.06, 0.40488, -0.37476, -0.13788, -0.82251,
 12:57:48.680,ed:40:fe:65:30:6c, 2015-01-01 00:44:00.830, 0.73, -0.08, 0.683, 0.183, 0.061, 0, -6.405, -46.73, -124.92, -21.420, -7.540, -3.607, 27.06, 0.40488, -0.37476, -0.13788, -0.82251,
 12:57:48.683,f6:90:cc:01:6d:25, 2015-01-01 00:44:00.285, 0.977, 0.031, 0.132, 0, 0.061, 0, 13.326, -82.057, 174.221, -29.493, -12.373, -2.347, 30.42, -0.03827, 0.65555, 0.0545, 0.75214,
 12:57:48.683,f6:90:cc:01:6d:25, 2015-01-01 00:44:00.285, 0.977, 0.03, 0.132, 0, 0, 0, 13.326, -82.057, 174.221, -29.493, -12.373, -2.347, 30.42, -0.03827, 0.65555, 0.0545, 0.75214,
 12:57:48.723,e3:ca:2d:fd:e0:8c, 2015-01-01 00:44:01.905, 0.966, 0.043, 0.326, 0.122, -0.122, 0, 7.657, -71.224, 152.314, -24.567, -13.393, -11.873, 25.88, 0.15622, 0.57709, -0.08624, 0.79688,
 12:57:48.723,e3:ca:2d:fd:e0:8c, 2015-01-01 00:44:01.905, 0.965, 0.043, 0.326, 0, 0, 0, 7.663, -71.23, 152.314, -24.567, -13.393, -11.873, 25.88, 0.15622, 0.57709, -0.08624, 0.79688,
 12:57:48.727,f6:90:cc:01:6d:25, 2015-01-01 00:44:00.285, 0.976, 0.031, 0.131, 0, -0.061, 0, 13.326, -82.062, 174.221, -29.493, -12.373, -2.347, 30.42, -0.0383, 0.65558, 0.05457, 0.75211,
 12:57:48.727,f6:90:cc:01:6d:25, 2015-01-01 00:44:00.285, 0.978, 0.031, 0.131, -0.061, 0, 0, 13.326, -82.062, 174.221, -29.493, -12.373, -2.347, 30.42, -0.0383, 0.65558, 0.05457, 0.75211,
 12:57:48.747,ed:40:fe:65:30:6c, 2015-01-01 00:44:00.830, 0.731, -0.079, 0.682, 0.244, 0, 0, -6.405, -46.73, -124.926, -21.420, -7.540, -3.607, 27.06, 0.40408, -0.37482, -0.13757, -0.82291,
 12:57:48.747,ed:40:fe:65:30:6c, 2015-01-01 00:44:00.830, 0.731, -0.079, 0.682, 0.366, 0, 0, -6.4, -46.73, -124.931, -21.420, -7.540, -3.607, 27.06, 0.40408, -0.37482, -0.13757, -0.82291,
 12:57:48.748,ed:35:33:d3:6c:f8, 2015-01-01 00:44:01.130, 0.596, 0.036, 0.793, 0.061, 0.122, 0, 2.609, -36.848, 151.298, -15.233, -11.087, -29.953, 30.11, 0.22809, 0.31155, -0.05731, 0.92059,
 12:57:48.748,ed:35:33:d3:6c:f8, 2015-01-01 00:44:01.130, 0.597, 0.036, 0.795, 0.244, 0.122, 0, 2.615, -36.848, 151.298, -15.233, -11.087, -29.953, 30.11, 0.22809, 0.31155, -0.05731, 0.92059,
 12:57:48.769,e3:ca:2d:fd:e0:8c, 2015-01-01 00:44:01.905, 0.966, 0.044, 0.327, 0, 0, 0, 7.657, -71.224, 152.314, -24.567, -13.393, -11.873, 25.88, 0.15622, 0.57709, -0.08624, 0.79688,
 12:57:48.769,e3:ca:2d:fd:e0:8c, 2015-01-01 00:44:01.905, 0.967, 0.044, 0.327, 0, -0.061, 0, 7.657, -71.224, 152.314, -24.567, -13.393, -11.873, 25.88, 0.15622, 0.57709, -0.08624, 0.79688,
 12:57:48.769,ed:40:fe:65:30:6c, 2015-01-01 00:44:01.165, 0.732, -0.08, 0.683, 0.366, 0, 0.305, -6.4, -46.73, -124.931, -21.420, -7.540, -3.607, 27.06, 0.40408, -0.37482, -0.13757, -0.82291,
 12:57:48.769,ed:40:fe:65:30:6c, 2015-01-01 00:44:01.165, 0.732, -0.081, 0.682, 0.183, 0.061, 0.183, -6.405, -46.73, -124.931, -21.420, -7.540, -3.607, 27.06, 0.40408, -0.37482, -0.13757, -0.82291,
 12:57:48.772,ed:35:33:d3:6c:f8, 2015-01-01 00:44:01.130, 0.598, 0.033, 0.794, 0, 0.061, 0, 2.615, -36.848, 151.304, -15.233, -11.087, -29.953, 30.11, 0.22803, 0.31146, -0.05728, 0.92065,
 12:57:48.772,ed:35:33:d3:6c:f8, 2015-01-01 00:44:01.130, 0.596, 0.034, 0.793, -0.061, 0.122, 0, 2.615, -36.843, 151.304, -15.233, -11.087, -29.953, 30.11, 0.22803, 0.31146, -0.05728, 0.92065,
 12:57:48.772,f6:90:cc:01:6d:25, 2015-01-01 00:44:00.595, 0.978, 0.031, 0.132, -0.122, 0.061, 0, 13.321, -82.062, 174.221, -29.493, -12.373, -2.347, 30.42, -0.0383, 0.65558, 0.05457, 0.75211,
 12:57:48.772,f6:90:cc:01:6d:25, 2015-01-01 00:44:00.595, 0.978, 0.033, 0.131, 0, 0, 0, 13.321, -82.062, 174.221, -29.493, -12.373, -2.347, 30.42, -0.0383, 0.65558, 0.05457, 0.75211,
 12:57:48.791,ed:40:fe:65:30:6c, 2015-01-01 00:44:01.165, 0.731, -0.079, 0.682, 0.244, 0.122, 0, -6.405, -46.73, -124.937, -21.420, -7.540, -3.607, 27.06, 0.40408, -0.37482, -0.13757, -0.82291,
 12:57:48.791,ed:40:fe:65:30:6c, 2015-01-01 00:44:01.165, 0.731, -0.08, 0.683, 0.305, 0.122, 0, -6.4, -46.725, -124.942, -21.420, -7.540, -3.607, 27.06, 0.40408, -0.37482, -0.13757, -0.82291,
 12:57:48.791,e3:ca:2d:fd:e0:8c, 2015-01-01 00:44:01.905, 0.966, 0.044, 0.326, -0.061, -0.122, 0, 7.657, -71.23, 152.314, -24.627, -13.127, -12.380, 25.88, 0.15622, 0.57709, -0.08624, 0.79688,
 12:57:48.791,e3:ca:2d:fd:e0:8c, 2015-01-01 00:44:01.905, 0.964, 0.043, 0.327, 0, 0, 0, 7.657, -71.23, 152.314, -24.627, -13.127, -12.380, 25.88, 0.15622, 0.57709, -0.08624, 0.79688,
 12:57:48.815,ed:35:33:d3:6c:f8, 2015-01-01 00:44:01.130, 0.595, 0.035, 0.793, -0.061, 0.305, 0, 2.609, -36.843, 151.304, -15.233, -11.087, -29.953, 30.11, 0.22803, 0.31146, -0.05728, 0.92065,
 12:57:48.815,ed:35:33:d3:6c:f8, 2015-01-01 00:44:01.130, 0.595, 0.034, 0.795, -0.061, 0.488, 0, 2.609, -36.832, 151.304, -15.233, -11.087, -29.953, 30.11, 0.22803, 0.31146, -0.05728, 0.92065,
 12:57:48.816,f6:90:cc:01:6d:25, 2015-01-01 00:44:00.595, 0.978, 0.032, 0.131, 0, 0, 0, 13.321, -82.062, 174.221, -29.493, -12.373, -2.347, 30.42, -0.0383, 0.65558, 0.05457, 0.75211,
 12:57:48.816,f6:90:cc:01:6d:25, 2015-01-01 00:44:00.595, 0.975, 0.03, 0.132, 0.122, 0.122, 0, 13.321, -82.057, 174.227, -29.493, -12.373, -2.347, 30.42, -0.0383, 0.65558, 0.05457, 0.75211,
 12:57:48.836,ed:40:fe:65:30:6c, 2015-01-01 00:44:01.165, 0.729, -0.082, 0.683, 0.122, 0.122, 0.122, -6.4, -46.725, -124.948, -21.420, -7.540, -3.607, 27.06, 0.40408, -0.37482, -0.13757, -0.82291,
 12:57:48.836,ed:40:fe:65:30:6c, 2015-01-01 00:44:01.165, 0.73, -0.075, 0.681, 0.183, 0.061, 0.122, -6.405, -46.725, -124.948, -21.420, -7.540, -3.607, 27.06, 0.40408, -0.37482, -0.13757, -0.82291,
 12:57:48.836,e3:ca:2d:fd:e0:8c, 2015-01-01 00:44:01.905, 0.964, 0.042, 0.325, 0, 0, 0, 7.657, -71.23, 152.314, -24.627, -13.127, -12.380, 25.88, 0.15622, 0.57709, -0.08624, 0.79688,
 12:57:48.836,e3:ca:2d:fd:e0:8c, 2015-01-01 00:44:01.905, 0.963, 0.046, 0.327, 0, 0.061, 0, 7.657, -71.224, 152.314, -24.627, -13.127, -12.380, 25.88, 0.15622, 0.57709, -0.08624, 0.79688,
 12:57:48.839,ed:35:33:d3:6c:f8, 2015-01-01 00:44:01.465, 0.596, 0.036, 0.794, 0, 0.427, 0, 2.604, -36.826, 151.304, -15.233, -11.087, -29.953, 30.11, 0.22803, 0.31146, -0.05728, 0.92065,
 12:57:48.839,ed:35:33:d3:6c:f8, 2015-01-01 00:44:01.465, 0.597, 0.038, 0.791, 0.244, 0, 0, 2.604, -36.821, 151.304, -15.233, -11.087, -29.953, 30.11, 0.22803, 0.31146, -0.05728, 0.92065,
 12:57:48.840,f6:90:cc:01:6d:25, 2015-01-01 00:44:00.595, 0.976, 0.03, 0.132, 0, 0.061, 0, 13.321, -82.057, 174.227, -29.493, -12.373, -2.347, 30.42, -0.0383, 0.65558, 0.05457, 0.75211,
 12:57:48.840,f6:90:cc:01:6d:25, 2015-01-01 00:44:00.595, 0.976, 0.036, 0.132, 0, 0, 0, 13.321, -82.057, 174.227, -29.493, -12.373, -2.347, 30.42, -0.0383, 0.65558, 0.05457, 0.75211,
 12:57:48.883,ed:40:fe:65:30:6c, 2015-01-01 00:44:01.165, 0.733, -0.076, 0.681, 0.061, 0.305, 0.061, -6.405, -46.719, -124.953, -21.420, -7.540, -3.607, 27.06, 0.40408, -0.37482, -0.13757, -0.82291,
 12:57:48.883,ed:40:fe:65:30:6c, 2015-01-01 00:44:01.165, 0.734, -0.077, 0.684, 0, 0.183, 0, -6.411, -46.714, -124.958, -21.420, -7.540, -3.607, 27.06, 0.40408, -0.37482, -0.13757, -0.82291,
 12:57:48.883,ed:35:33:d3:6c:f8, 2015-01-01 00:44:01.465, 0.6, 0.037, 0.796, 0.122, 0.366, 0, 2.609, -36.821, 151.304, -15.233, -11.087, -29.953, 30.11, 0.22803, 0.31146, -0.05728, 0.92065,
 12:57:48.883,ed:35:33:d3:6c:f8, 2015-01-01 00:44:01.465, 0.597, 0.038, 0.799, 0.244, 0.366, 0, 2.615, -36.815, 151.309, -15.233, -11.087, -29.953, 30.11, 0.22803, 0.31146, -0.05728, 0.92065,
 12:57:48.887,f6:90:cc:01:6d:25, 2015-01-01 00:44:00.595, 0.98, 0.034, 0.131, -0.061, 0.061, 0, 13.326, -82.057, 174.232, -29.493, -12.373, -2.347, 30.42, -0.0383, 0.65558, 0.05457, 0.75211,
 12:57:48.887,f6:90:cc:01:6d:25, 2015-01-01 00:44:00.595, 0.98, 0.031, 0.131, -0.061, 0, 0, 13.326, -82.057, 174.232, -29.493, -12.373, -2.347, 30.42, -0.0383, 0.65558, 0.05457, 0.75211,
 12:57:48.904,e3:ca:2d:fd:e0:8c, 2015-01-01 00:44:01.905, 0.967, 0.046, 0.326, -0.122, -0.061, 0, 7.657, -71.224, 152.314, -24.627, -13.127, -12.380, 25.88, 0.15625, 0.57712, -0.08624, 0.79684,
 12:57:48.904,e3:ca:2d:fd:e0:8c, 2015-01-01 00:44:01.905, 0.968, 0.044, 0.327, -0.244, 0, 0, 7.652, -71.224, 152.314, -24.627, -13.127, -12.380, 25.88, 0.15625, 0.57712, -0.08624, 0.79684,
 12:57:48.926,e3:ca:2d:fd:e0:8c, 2015-01-01 00:44:02.240, 0.966, 0.042, 0.325, -0.122, 0.122, 0, 7.652, -71.224, 152.314, -24.627, -13.127, -12.380, 25.88, 0.15625, 0.57712, -0.08624, 0.79684,
 12:57:48.926,e3:ca:2d:fd:e0:8c, 2015-01-01 00:44:02.240, 0.967, 0.042, 0.325, 0.061, 0, 0, 7.652, -71.219, 152.314, -24.627, -13.127, -12.380, 25.88, 0.15625, 0.57712, -0.08624, 0.79684,
 12:57:48.929,f6:90:cc:01:6d:25, 2015-01-01 00:44:00.595, 0.978, 0.027, 0.13, -0.122, 0.061, 0, 13.326, -82.057, 174.232, -29.493, -12.373, -2.347, 30.42, -0.0383, 0.65558, 0.05457, 0.75211,
 12:57:48.929,f6:90:cc:01:6d:25, 2015-01-01 00:44:00.595, 0.978, 0.03, 0.131, 0, 0, 0, 13.326, -82.057, 174.232, -29.493, -12.373, -2.347, 30.42, -0.0383, 0.65558, 0.05457, 0.75211,
 12:57:48.929,ed:35:33:d3:6c:f8, 2015-01-01 00:44:01.465, 0.596, 0.032, 0.8, 0.061, 0.122, 0, 2.615, -36.81, 151.309, -15.233, -11.087, -29.953, 30.11, 0.22803, 0.31146, -0.05728, 0.92065,
 12:57:48.929,ed:35:33:d3:6c:f8, 2015-01-01 00:44:01.465, 0.596, 0.031, 0.795, 0.061, 0, 0, 2.615, -36.81, 151.309, -15.233, -11.087, -29.953, 30.11, 0.22803, 0.31146, -0.05728, 0.92065,
 12:57:48.948,e3:ca:2d:fd:e0:8c, 2015-01-01 00:44:02.240, 0.964, 0.044, 0.326, 0.183, -0.061, 0, 7.652, -71.219, 152.314, -24.627, -13.127, -12.380, 25.88, 0.15625, 0.57712, -0.08624, 0.79684,
 12:57:48.948,e3:ca:2d:fd:e0:8c, 2015-01-01 00:44:02.240, 0.961, 0.044, 0.326, 0, 0, 0, 7.652, -71.219, 152.314, -24.627, -13.127, -12.380, 25.88, 0.15625, 0.57712, -0.08624, 0.79684,
 12:57:48.949,ed:40:fe:65:30:6c, 2015-01-01 00:44:01.165, 0.732, -0.081, 0.685, 0.305, 0.122, 0.183, -6.405, -46.714, -124.958, -21.420, -7.540, -3.607, 27.06, 0.40408, -0.37482, -0.13757, -0.82291,
 12:57:48.949,ed:40:fe:65:30:6c, 2015-01-01 00:44:01.165, 0.731, -0.083, 0.685, 0.427, 0, 0.305, -6.411, -46.714, -124.953, -21.420, -7.540, -3.607, 27.06, 0.40408, -0.37482, -0.13757, -0.82291,
 12:57:48.973,ed:40:fe:65:30:6c, 2015-01-01 00:44:01.165, 0.73, -0.081, 0.682, 0.488, 0, 0.122, -6.405, -46.714, -124.958, -21.540, -7.947, -4.733, 27.06, 0.40408, -0.37482, -0.13757, -0.82291,
 12:57:48.973,ed:40:fe:65:30:6c, 2015-01-01 00:44:01.165, 0.728, -0.081, 0.682, 0.488, 0, 0, -6.4, -46.714, -124.964, -21.540, -7.947, -4.733, 27.06, 0.40408, -0.37482, -0.13757, -0.82291,
 12:57:48.974,ed:35:33:d3:6c:f8, 2015-01-01 00:44:01.465, 0.593, 0.033, 0.794, 0.305, 0, 0, 2.615, -36.81, 151.309, -15.233, -11.087, -29.953, 30.11, 0.22803, 0.31146, -0.05728, 0.92065,
 12:57:48.974,ed:35:33:d3:6c:f8, 2015-01-01 00:44:01.465, 0.592, 0.035, 0.793, 0.549, 0.061, 0, 2.626, -36.81, 151.309, -15.233, -11.087, -29.953, 30.11, 0.22803, 0.31146, -0.05728, 0.92065,
 12:57:48.975,f6:90:cc:01:6d:25, 2015-01-01 00:44:00.595, 0.976, 0.032, 0.131, 0.122, 0, 0, 13.332, -82.057, 174.232, -30.013, -12.427, -2.620, 30.42, -0.0383, 0.65558, 0.05457, 0.75211,
 12:57:48.975,f6:90:cc:01:6d:25, 2015-01-01 00:44:00.595, 0.973, 0.031, 0.131, 0, 0, 0, 13.332, -82.062, 174.232, -30.013, -12.427, -2.620, 30.42, -0.0383, 0.65558, 0.05457, 0.75211,
 12:57:48.993,e3:ca:2d:fd:e0:8c, 2015-01-01 00:44:02.240, 0.963, 0.043, 0.326, -0.061, 0, 0, 7.652, -71.219, 152.314, -24.627, -13.127, -12.380, 25.88, 0.15625, 0.57712, -0.08624, 0.79684,
 12:57:48.993,e3:ca:2d:fd:e0:8c, 2015-01-01 00:44:02.240, 0.964, 0.044, 0.327, 0, 0, 0, 7.652, -71.219, 152.314, -24.627, -13.127, -12.380, 25.88, 0.15625, 0.57712, -0.08624, 0.79684,
 12:57:49.018,ed:40:fe:65:30:6c, 2015-01-01 00:44:01.165, 0.727, -0.079, 0.681, 0.61, 0, 0, -6.389, -46.714, -124.969, -21.540, -7.947, -4.733, 27.06, 0.40408, -0.37482, -0.13757, -0.82291,
 12:57:49.018,ed:40:fe:65:30:6c, 2015-01-01 00:44:01.165, 0.729, -0.077, 0.682, 0.488, 0, 0, -6.383, -46.714, -124.969, -21.540, -7.947, -4.733, 27.06, 0.40408, -0.37482, -0.13757, -0.82291,
 12:57:49.020,ed:35:33:d3:6c:f8, 2015-01-01 00:44:01.465, 0.593, 0.036, 0.792, 0.61, 0.061, 0, 2.631, -36.81, 151.309, -15.233, -11.087, -29.953, 30.11, 0.22803, 0.31146, -0.05728, 0.92065,
 12:57:49.020,ed:35:33:d3:6c:f8, 2015-01-01 00:44:01.465, 0.593, 0.036, 0.792, 0.427, 0.061, 0, 2.642, -36.804, 151.309, -15.233, -11.087, -29.953, 30.11, 0.22803, 0.31146, -0.05728, 0.92065,
 12:57:49.021,f6:90:cc:01:6d:25, 2015-01-01 00:44:00.595, 0.975, 0.031, 0.132, 0, 0, 0, 13.332, -82.062, 174.232, -30.013, -12.427, -2.620, 30.42, -0.03842, 0.65558, 0.05466, 0.75208,
 12:57:49.021,f6:90:cc:01:6d:25, 2015-01-01 00:44:00.595, 0.976, 0.032, 0.132, 0, 0, 0, 13.332, -82.062, 174.232, -30.013, -12.427, -2.620, 30.42, -0.03842, 0.65558, 0.05466, 0.75208,
 12:57:49.039,e3:ca:2d:fd:e0:8c, 2015-01-01 00:44:02.240, 0.964, 0.044, 0.328, 0, 0, 0, 7.652, -71.219, 152.314, -24.627, -13.127, -12.380, 25.88, 0.15625, 0.57712, -0.08624, 0.79684,
 12:57:49.039,e3:ca:2d:fd:e0:8c, 2015-01-01 00:44:02.240, 0.966, 0.043, 0.328, -0.061, 0, 0, 7.652, -71.219, 152.314, -24.627, -13.127, -12.380, 25.88, 0.15625, 0.57712, -0.08624, 0.79684,
 12:57:49.040,ed:40:fe:65:30:6c, 2015-01-01 00:44:01.165, 0.729, -0.078, 0.683, 0.488, 0, 0, -6.378, -46.719, -124.975, -21.540, -7.947, -4.733, 27.06, 0.40381, -0.37469, -0.13751, -0.82312,
 12:57:49.040,ed:40:fe:65:30:6c, 2015-01-01 00:44:01.165, 0.732, -0.077, 0.683, 0.427, 0.061, 0, -6.372, -46.714, -124.98, -21.540, -7.947, -4.733, 27.06, 0.40381, -0.37469, -0.13751, -0.82312,
 12:57:49.041,ed:35:33:d3:6c:f8, 2015-01-01 00:44:01.465, 0.596, 0.038, 0.795, 0.244, 0.122, 0, 2.648, -36.804, 151.309, -15.720, -11.540, -30.460, 30.11, 0.22803, 0.31146, -0.05728, 0.92065,
 12:57:49.041,ed:35:33:d3:6c:f8, 2015-01-01 00:44:01.465, 0.597, 0.038, 0.797, 0, 0.061, 0, 2.648, -36.804, 151.309, -15.720, -11.540, -30.460, 30.11, 0.22803, 0.31146, -0.05728, 0.92065,
 12:57:49.042,f6:90:cc:01:6d:25, 2015-01-01 00:44:00.885, 0.977, 0.033, 0.134, -0.061, 0, 0, 13.332, -82.062, 174.232, -30.013, -12.427, -2.620, 30.42, -0.03842, 0.65558, 0.05466, 0.75208,
 12:57:49.042,f6:90:cc:01:6d:25, 2015-01-01 00:44:00.885, 0.978, 0.031, 0.134, -0.122, 0, 0, 13.332, -82.062, 174.232, -30.013, -12.427, -2.620, 30.42, -0.03842, 0.65558, 0.05466, 0.75208,
 12:57:49.086,ed:40:fe:65:30:6c, 2015-01-01 00:44:01.165, 0.732, -0.079, 0.684, 0.305, 0.061, 0.122, -6.367, -46.714, -124.986, -21.540, -7.947, -4.733, 27.06, 0.40381, -0.37469, -0.13751, -0.82312,
 12:57:49.086,ed:40:fe:65:30:6c, 2015-01-01 00:44:01.165, 0.733, -0.079, 0.685, 0.061, 0, 0.244, -6.378, -46.714, -124.98, -21.540, -7.947, -4.733, 27.06, 0.40381, -0.37469, -0.13751, -0.82312,
 12:57:49.086,ed:35:33:d3:6c:f8, 2015-01-01 00:44:01.465, 0.598, 0.037, 0.798, -0.244, 0, 0, 2.648, -36.799, 151.315, -15.720, -11.540, -30.460, 30.11, 0.22803, 0.31146, -0.05728, 0.92065,
 12:57:49.086,ed:35:33:d3:6c:f8, 2015-01-01 00:44:01.465, 0.597, 0.035, 0.8, -0.305, 0, 0, 2.637, -36.799, 151.315, -15.720, -11.540, -30.460, 30.11, 0.22803, 0.31146, -0.05728, 0.92065,
 12:57:49.087,f6:90:cc:01:6d:25, 2015-01-01 00:44:00.885, 0.98, 0.03, 0.133, 0, 0, 0, 13.332, -82.062, 174.232, -30.013, -12.427, -2.620, 30.42, -0.03842, 0.65558, 0.05466, 0.75208,
 12:57:49.087,f6:90:cc:01:6d:25, 2015-01-01 00:44:00.885, 0.979, 0.03, 0.133, 0, 0, 0, 13.332, -82.062, 174.232, -30.013, -12.427, -2.620, 30.42, -0.03842, 0.65558, 0.05466, 0.75208,
 12:57:49.128,e3:ca:2d:fd:e0:8c, 2015-01-01 00:44:02.240, 0.967, 0.043, 0.329, 0, 0, 0, 7.652, -71.219, 152.314, -24.627, -13.127, -12.380, 25.88, 0.15625, 0.57712, -0.08624, 0.79684,
 12:57:49.128,e3:ca:2d:fd:e0:8c, 2015-01-01 00:44:02.240, 0.967, 0.043, 0.329, 0, 0, 0, 7.652, -71.219, 152.314, -24.627, -13.127, -12.380, 25.88, 0.15625, 0.57712, -0.08624, 0.79684,
 12:57:49.129,ed:40:fe:65:30:6c, 2015-01-01 00:44:01.500, 0.731, -0.081, 0.686, -0.061, 0, 0.244, -6.383, -46.714, -124.98, -21.540, -7.947, -4.733, 27.06, 0.40381, -0.37469, -0.13751, -0.82312,
 12:57:49.129,ed:40:fe:65:30:6c, 2015-01-01 00:44:01.500, 0.731, -0.082, 0.685, 0.122, 0, 0.183, -6.389, -46.714, -124.98, -21.540, -7.947, -4.733, 27.06, 0.40381, -0.37469, -0.13751, -0.82312,
 12:57:49.131,f6:90:cc:01:6d:25, 2015-01-01 00:44:00.885, 0.977, 0.03, 0.132, -0.122, 0, 0, 13.326, -82.062, 174.232, -30.013, -12.427, -2.620, 30.42, -0.03842, 0.65558, 0.05466, 0.75208,
 12:57:49.131,f6:90:cc:01:6d:25, 2015-01-01 00:44:00.885, 0.975, 0.032, 0.133, -0.305, -0.122, 0, 13.321, -82.062, 174.227, -30.013, -12.427, -2.620, 30.42, -0.03842, 0.65558, 0.05466, 0.75208,
 12:57:49.151,e3:ca:2d:fd:e0:8c, 2015-01-01 00:44:02.240, 0.965, 0.043, 0.328, 0.061, 0.122, 0, 7.652, -71.213, 152.314, -24.767, -13.367, -13.433, 25.88, 0.15625, 0.57712, -0.08624, 0.79684,
 12:57:49.151,e3:ca:2d:fd:e0:8c, 2015-01-01 00:44:02.240, 0.965, 0.044, 0.326, 0, 0.061, 0, 7.646, -71.213, 152.314, -24.767, -13.367, -13.433, 25.88, 0.15625, 0.57712, -0.08624, 0.79684,
 12:57:49.152,ed:40:fe:65:30:6c, 2015-01-01 00:44:01.500, 0.729, -0.08, 0.679, 0.061, 0.061, 0, -6.389, -46.714, -124.98, -21.540, -7.947, -4.733, 27.06, 0.40381, -0.37469, -0.13751, -0.82312,
 12:57:49.152,ed:40:fe:65:30:6c, 2015-01-01 00:44:01.500, 0.729, -0.078, 0.681, 0.183, 0.183, -0.183, -6.389, -46.708, -124.991, -21.540, -7.947, -4.733, 27.06, 0.40381, -0.37469, -0.13751, -0.82312,
 12:57:49.153,ed:35:33:d3:6c:f8, 2015-01-01 00:44:01.465, 0.595, 0.032, 0.799, -0.244, 0, 0, 2.631, -36.799, 151.315, -15.720, -11.540, -30.460, 30.11, 0.22791, 0.31116, -0.05695, 0.92081,
 12:57:49.153,ed:35:33:d3:6c:f8, 2015-01-01 00:44:01.465, 0.594, 0.033, 0.792, -0.183, -0.366, 0, 2.626, -36.804, 151.315, -15.720, -11.540, -30.460, 30.11, 0.22791, 0.31116, -0.05695, 0.92081,
 12:57:49.174,e3:ca:2d:fd:e0:8c, 2015-01-01 00:44:02.240, 0.964, 0.045, 0.326, -0.244, 0.061, 0, 7.646, -71.208, 152.32, -24.767, -13.367, -13.433, 25.88, 0.15625, 0.57712, -0.08624, 0.79684,
 12:57:49.174,e3:ca:2d:fd:e0:8c, 2015-01-01 00:44:02.240, 0.964, 0.043, 0.325, -0.183, 0.183, 0, 7.641, -71.208, 152.32, -24.767, -13.367, -13.433, 25.88, 0.15625, 0.57712, -0.08624, 0.79684,
 12:57:49.175,ed:35:33:d3:6c:f8, 2015-01-01 00:44:01.800, 0.594, 0.032, 0.791, 0, -0.183, 0, 2.626, -36.81, 151.315, -15.720, -11.540, -30.460, 30.11, 0.22791, 0.31116, -0.05695, 0.92081,
 12:57:49.175,ed:35:33:d3:6c:f8, 2015-01-01 00:44:01.800, 0.595, 0.04, 0.791, 0.061, 0.183, 0, 2.62, -36.81, 151.315, -15.720, -11.540, -30.460, 30.11, 0.22791, 0.31116, -0.05695, 0.92081,
 12:57:49.177,f6:90:cc:01:6d:25, 2015-01-01 00:44:00.885, 0.975, 0.03, 0.131, -0.122, 0.061, 0, 13.315, -82.062, 174.227, -30.013, -12.427, -2.620, 30.42, -0.03842, 0.65558, 0.05466, 0.75208,
 12:57:49.177,f6:90:cc:01:6d:25, 2015-01-01 00:44:00.885, 0.977, 0.027, 0.13, -0.183, 0.183, 0, 13.31, -82.062, 174.232, -30.013, -12.427, -2.620, 30.42, -0.03842, 0.65558, 0.05466, 0.75208,
 12:57:49.197,ed:40:fe:65:30:6c, 2015-01-01 00:44:01.500, 0.73, -0.079, 0.679, 0.122, 0.183, 0, -6.389, -46.708, -124.997, -21.540, -7.947, -4.733, 27.06, 0.40381, -0.37469, -0.13751, -0.82312,
 12:57:49.197,ed:40:fe:65:30:6c, 2015-01-01 00:44:01.500, 0.732, -0.08, 0.683, 0.061, 0.061, 0.366, -6.394, -46.703, -124.991, -21.540, -7.947, -4.733, 27.06, 0.40381, -0.37469, -0.13751, -0.82312,
 12:57:49.198,ed:35:33:d3:6c:f8, 2015-01-01 00:44:01.800, 0.597, 0.037, 0.796, 0, 0.061, 0.305, 2.62, -36.81, 151.32, -15.720, -11.540, -30.460, 30.11, 0.22791, 0.31116, -0.05695, 0.92081,
 12:57:49.198,ed:35:33:d3:6c:f8, 2015-01-01 00:44:01.800, 0.598, 0.033, 0.797, -0.244, -0.122, 0.305, 2.615, -36.81, 151.326, -15.720, -11.540, -30.460, 30.11, 0.22791, 0.31116, -0.05695, 0.92081,
