Time,Device name,Chip Time(),Acceleration X(g),Acceleration Y(g),Acceleration Z(g),Angular velocity X(°/s),Angular velocity Y(°/s),Angular velocity Z(°/s),Angle X(°),Angle Y(°),Angle Z(°),Magnetic field X(ʯt),Magnetic field Y(ʯt),Magnetic field Z(ʯt),Temperature(℃),Quaternions 0(),Quaternions 1(),Quaternions 2(),Quaternions 3()
 12:22:46.149,e3:ca:2d:fd:e0:8c, 2015-01-01 00:09:14.155, 1.011, -0.109, -0.088, -0.427, 0.427, -0.183, -130.04, -82.095, -89.67, -25.453, -7.087, -5.827, 25.37, 0.19385, 0.6803, -0.2854, 0.64658,
 12:22:46.149,e3:ca:2d:fd:e0:8c, 2015-01-01 00:09:14.155, 1.014, -0.108, -0.089, -0.427, 0.732, -0.183, -129.979, -82.106, -89.709, -25.453, -7.087, -5.827, 25.37, 0.19385, 0.6803, -0.2854, 0.64658,
 12:22:46.151,ed:40:fe:65:30:6c, 2015-01-01 00:09:12.975, 0.85, 0.034, 0.527, -0.183, -0.427, 0.183, 3.208, -58.244, -127.496, -25.460, -10.647, 0.313, 25.78, 0.39841, -0.42551, -0.23712, -0.7771,
 12:22:46.151,ed:40:fe:65:30:6c, 2015-01-01 00:09:12.975, 0.855, 0.036, 0.529, -0.122, -0.671, 0.061, 3.214, -58.255, -127.507, -25.460, -10.647, 0.313, 25.78, 0.39841, -0.42551, -0.23712, -0.7771,
 12:22:46.151,ed:35:33:d3:6c:f8, 2015-01-01 00:09:13.195, 0.891, -0.067, 0.428, 0.061, 1.648, 0, -9.157, -64.039, 154.21, -23.987, -8.053, -18.800, 31.46, 0.22983, 0.50003, -0.18387, 0.81439,
 12:22:46.151,ed:35:33:d3:6c:f8, 2015-01-01 00:09:13.195, 0.897, -0.064, 0.432, 0.244, 1.404, -0.244, -9.13, -64.012, 154.199, -23.987, -8.053, -18.800, 31.46, 0.22983, 0.50003, -0.18387, 0.81439,
 12:22:46.153,f6:90:cc:01:6d:25, 2015-01-01 00:09:12.600, 0.989, -0.038, 0.051, 0.183, 0.061, 0.061, -38.029, -86.49, -143.481, -31.547, -10.287, -1.460, 29.19, 0.00345, -0.68979, 0.02267, -0.72357,
 12:22:46.153,f6:90:cc:01:6d:25, 2015-01-01 00:09:12.600, 0.99, -0.039, 0.048, 0.244, 0.122, 0, -37.996, -86.484, -143.487, -31.547, -10.287, -1.460, 29.19, 0.00345, -0.68979, 0.02267, -0.72357,
 12:22:46.195,e3:ca:2d:fd:e0:8c, 2015-01-01 00:09:14.155, 1.012, -0.109, -0.089, -0.244, 0.61, -0.122, -129.919, -82.117, -89.747, -25.453, -7.087, -5.827, 25.37, 0.19385, 0.6803, -0.2854, 0.64658,
 12:22:46.195,e3:ca:2d:fd:e0:8c, 2015-01-01 00:09:14.155, 1.013, -0.108, -0.088, -0.122, 0.244, -0.061, -129.891, -82.123, -89.769, -25.453, -7.087, -5.827, 25.37, 0.19385, 0.6803, -0.2854, 0.64658,
 12:22:46.196,ed:40:fe:65:30:6c, 2015-01-01 00:09:12.975, 0.859, 0.032, 0.529, -0.061, -0.793, 0.183, 3.214, -58.266, -127.513, -25.460, -10.647, 0.313, 25.78, 0.39841, -0.42551, -0.23712, -0.7771,
 12:22:46.196,ed:40:fe:65:30:6c, 2015-01-01 00:09:12.975, 0.859, 0.036, 0.526, -0.244, -0.488, 0.183, 3.214, -58.271, -127.524, -25.460, -10.647, 0.313, 25.78, 0.39841, -0.42551, -0.23712, -0.7771,
 12:22:46.197,ed:35:33:d3:6c:f8, 2015-01-01 00:09:13.195, 0.897, -0.068, 0.43, 0.061, 1.16, 0, -9.108, -63.984, 154.188, -23.987, -8.053, -18.800, 31.46, 0.22983, 0.50003, -0.18387, 0.81439,
 12:22:46.197,ed:35:33:d3:6c:f8, 2015-01-01 00:09:13.195, 0.9, -0.066, 0.427, -0.244, 1.038, 0, -9.102, -63.962, 154.177, -23.987, -8.053, -18.800, 31.46, 0.22983, 0.50003, -0.18387, 0.81439,
 12:22:46.198,f6:90:cc:01:6d:25, 2015-01-01 00:09:12.600, 0.99, -0.039, 0.046, 0.244, 0.305, 0.061, -37.947, -86.479, -143.542, -31.547, -10.287, -1.460, 29.19, 0.00345, -0.68979, 0.02267, -0.72357,
 12:22:46.198,f6:90:cc:01:6d:25, 2015-01-01 00:09:12.600, 0.986, -0.037, 0.052, 0.244, 0.488, 0.183, -37.892, -86.473, -143.591, -31.547, -10.287, -1.460, 29.19, 0.00345, -0.68979, 0.02267, -0.72357,
 12:22:46.217,e3:ca:2d:fd:e0:8c, 2015-01-01 00:09:14.155, 1.012, -0.108, -0.087, -0.061, 0.122, -0.122, -129.886, -82.123, -89.78, -25.453, -7.087, -5.827, 25.37, 0.19385, 0.6803, -0.2854, 0.64658,
 12:22:46.217,e3:ca:2d:fd:e0:8c, 2015-01-01 00:09:14.155, 1.011, -0.108, -0.09, -0.183, 0.061, -0.122, -129.886, -82.123, -89.769, -25.453, -7.087, -5.827, 25.37, 0.19385, 0.6803, -0.2854, 0.64658,
 12:22:46.218,ed:40:fe:65:30:6c, 2015-01-01 00:09:13.310, 0.856, 0.037, 0.526, -0.244, -0.366, 0.061, 3.214, -58.277, -127.54, -25.460, -10.647, 0.313, 25.78, 0.39841, -0.42551, -0.23712, -0.7771,
 12:22:46.218,ed:40:fe:65:30:6c, 2015-01-01 00:09:13.310, 0.852, 0.033, 0.526, -0.244, -0.122, 0.061, 3.214, -58.282, -127.546, -25.460, -10.647, 0.313, 25.78, 0.39841, -0.42551, -0.23712, -0.7771,
 12:22:46.219,ed:35:33:d3:6c:f8, 2015-01-01 00:09:13.555, 0.895, -0.065, 0.429, -0.427, 0.854, -0.061, -9.097, -63.946, 154.149, -23.987, -8.053, -18.800, 31.46, 0.22983, 0.50003, -0.18387, 0.81439,
 12:22:46.219,ed:35:33:d3:6c:f8, 2015-01-01 00:09:13.555, 0.89, -0.067, 0.429, -0.366, 0.793, 0.122, -9.097, -63.929, 154.127, -23.987, -8.053, -18.800, 31.46, 0.22983, 0.50003, -0.18387, 0.81439,
 12:22:46.243,f6:90:cc:01:6d:25, 2015-01-01 00:09:12.600, 0.981, -0.035, 0.046, 0, 0.488, 0.122, -37.82, -86.462, -143.641, -31.547, -10.287, -1.460, 29.19, 0.00345, -0.68979, 0.02267, -0.72357,
 12:22:46.243,f6:90:cc:01:6d:25, 2015-01-01 00:09:12.600, 0.985, -0.034, 0.045, -0.061, 0.366, 0.122, -37.76, -86.451, -143.701, -31.547, -10.287, -1.460, 29.19, 0.00345, -0.68979, 0.02267, -0.72357,
 12:22:46.262,e3:ca:2d:fd:e0:8c, 2015-01-01 00:09:14.155, 1.011, -0.108, -0.089, -0.183, 0.244, 0, -129.858, -82.128, -89.802, -25.453, -7.087, -5.827, 25.37, 0.19385, 0.6803, -0.2854, 0.64658,
 12:22:46.262,e3:ca:2d:fd:e0:8c, 2015-01-01 00:09:14.155, 1.013, -0.109, -0.091, -0.061, 0.427, 0, -129.809, -82.134, -89.863, -25.453, -7.087, -5.827, 25.37, 0.19385, 0.6803, -0.2854, 0.64658,
 12:22:46.287,ed:40:fe:65:30:6c, 2015-01-01 00:09:13.310, 0.854, 0.037, 0.522, -0.244, -0.061, 0.061, 3.214, -58.282, -127.54, -25.460, -10.647, 0.313, 25.78, 0.39841, -0.42551, -0.23712, -0.7771,
 12:22:46.287,ed:40:fe:65:30:6c, 2015-01-01 00:09:13.310, 0.857, 0.035, 0.522, -0.305, -0.366, 0, 3.214, -58.288, -127.535, -25.460, -10.647, 0.313, 25.78, 0.39841, -0.42551, -0.23712, -0.7771,
 12:22:46.287,ed:35:33:d3:6c:f8, 2015-01-01 00:09:13.555, 0.892, -0.065, 0.426, -0.427, 0.671, 0, -9.097, -63.918, 154.094, -23.987, -8.053, -18.800, 31.46, 0.22983, 0.50003, -0.18387, 0.81439,
 12:22:46.287,ed:35:33:d3:6c:f8, 2015-01-01 00:09:13.555, 0.896, -0.066, 0.428, -0.488, 0.793, -0.122, -9.097, -63.907, 154.072, -23.987, -8.053, -18.800, 31.46, 0.22983, 0.50003, -0.18387, 0.81439,
 12:22:46.308,ed:40:fe:65:30:6c, 2015-01-01 00:09:13.310, 0.857, 0.034, 0.523, -0.427, -0.366, 0, 3.214, -58.293, -127.535, -25.460, -10.647, 0.313, 25.78, 0.39841, -0.42551, -0.23712, -0.7771,
 12:22:46.308,ed:40:fe:65:30:6c, 2015-01-01 00:09:13.310, 0.856, 0.037, 0.524, -0.427, -0.061, -0.061, 3.214, -58.293, -127.551, -25.460, -10.647, 0.313, 25.78, 0.39841, -0.42551, -0.23712, -0.7771,
 12:22:46.309,ed:35:33:d3:6c:f8, 2015-01-01 00:09:13.555, 0.896, -0.068, 0.427, -0.732, 0.732, -0.305, -9.091, -63.896, 154.05, -23.987, -8.053, -18.800, 31.46, 0.22983, 0.50003, -0.18387, 0.81439,
 12:22:46.309,ed:35:33:d3:6c:f8, 2015-01-01 00:09:13.555, 0.895, -0.065, 0.426, -0.732, 0.549, -0.366, -9.086, -63.885, 154.006, -23.987, -8.053, -18.800, 31.46, 0.22983, 0.50003, -0.18387, 0.81439,
 12:22:46.311,f6:90:cc:01:6d:25, 2015-01-01 00:09:12.600, 0.987, -0.038, 0.045, 0.061, 0.427, 0.122, -37.711, -86.446, -143.74, -31.447, -10.200, -1.807, 29.19, 0.00345, -0.68979, 0.02267, -0.72357,
 12:22:46.311,f6:90:cc:01:6d:25, 2015-01-01 00:09:12.600, 0.988, -0.038, 0.046, 0.122, 0.488, 0.183, -37.656, -86.435, -143.767, -31.447, -10.200, -1.807, 29.19, 0.00345, -0.68979, 0.02267, -0.72357,
 12:22:46.311,f6:90:cc:01:6d:25, 2015-01-01 00:09:12.600, 0.986, -0.038, 0.049, -0.122, 0.549, 0.305, -37.623, -86.424, -143.8, -31.447, -10.200, -1.807, 29.19, 0.00345, -0.68979, 0.02267, -0.72357,
 12:22:46.311,f6:90:cc:01:6d:25, 2015-01-01 00:09:12.600, 0.981, -0.037, 0.049, 0.061, 0.549, 0.305, -37.595, -86.413, -143.811, -31.447, -10.200, -1.807, 29.19, 0.00345, -0.68979, 0.02267, -0.72357,
 12:22:46.330,ed:40:fe:65:30:6c, 2015-01-01 00:09:13.310, 0.853, 0.035, 0.523, -0.305, 0.122, -0.061, 3.219, -58.293, -127.568, -25.460, -10.647, 0.313, 25.78, 0.39841, -0.42551, -0.23712, -0.7771,
 12:22:46.330,ed:40:fe:65:30:6c, 2015-01-01 00:09:13.310, 0.85, 0.034, 0.523, -0.244, 0.244, 0, 3.219, -58.288, -127.573, -25.460, -10.647, 0.313, 25.78, 0.39841, -0.42551, -0.23712, -0.7771,
 12:22:46.330,e3:ca:2d:fd:e0:8c, 2015-01-01 00:09:14.155, 1.014, -0.11, -0.092, -0.061, 0.427, -0.122, -129.771, -82.139, -89.912, -25.453, -7.087, -5.827, 25.37, 0.19385, 0.6803, -0.2854, 0.64658,
 12:22:46.330,e3:ca:2d:fd:e0:8c, 2015-01-01 00:09:14.155, 1.013, -0.109, -0.092, -0.122, -0.061, -0.122, -129.787, -82.139, -89.918, -25.453, -7.087, -5.827, 25.37, 0.19385, 0.6803, -0.2854, 0.64658,
 12:22:46.331,ed:35:33:d3:6c:f8, 2015-01-01 00:09:13.555, 0.891, -0.065, 0.428, -0.549, 0.671, -0.427, -9.069, -63.88, 153.962, -23.987, -8.053, -18.800, 31.46, 0.22983, 0.50003, -0.18387, 0.81439,
 12:22:46.331,ed:35:33:d3:6c:f8, 2015-01-01 00:09:13.555, 0.888, -0.066, 0.427, -0.732, 0.854, -0.244, -9.064, -63.869, 153.935, -23.987, -8.053, -18.800, 31.46, 0.22983, 0.50003, -0.18387, 0.81439,
 12:22:46.352,e3:ca:2d:fd:e0:8c, 2015-01-01 00:09:14.155, 1.01, -0.107, -0.09, -0.122, -0.183, 0, -129.809, -82.134, -89.907, -25.847, -7.373, -6.220, 25.37, 0.19385, 0.6803, -0.2854, 0.64658,
 12:22:46.352,e3:ca:2d:fd:e0:8c, 2015-01-01 00:09:14.155, 1.011, -0.108, -0.09, 0, -0.061, 0, -129.814, -82.134, -89.89, -25.847, -7.373, -6.220, 25.37, 0.19385, 0.6803, -0.2854, 0.64658,
 12:22:46.356,f6:90:cc:01:6d:25, 2015-01-01 00:09:12.600, 0.981, -0.04, 0.048, -0.061, 0.488, 0.183, -37.557, -86.402, -143.849, -31.447, -10.200, -1.807, 29.19, 0.00446, -0.68903, 0.022, -0.7243,
 12:22:46.356,f6:90:cc:01:6d:25, 2015-01-01 00:09:12.600, 0.985, -0.039, 0.045, 0.061, 0.549, 0.122, -37.502, -86.391, -143.91, -31.447, -10.200, -1.807, 29.19, 0.00446, -0.68903, 0.022, -0.7243,
 12:22:46.398,e3:ca:2d:fd:e0:8c, 2015-01-01 00:09:14.155, 1.008, -0.108, -0.089, 0, 0.183, 0.061, -129.792, -82.134, -89.896, -25.847, -7.373, -6.220, 25.37, 0.19385, 0.6803, -0.2854, 0.64658,
 12:22:46.398,e3:ca:2d:fd:e0:8c, 2015-01-01 00:09:14.155, 1.025, -0.107, -0.091, 0, 0, 0.122, -129.781, -82.134, -89.896, -25.847, -7.373, -6.220, 25.37, 0.19385, 0.6803, -0.2854, 0.64658,
 12:22:46.400,ed:40:fe:65:30:6c, 2015-01-01 00:09:13.310, 0.852, 0.034, 0.522, -0.183, 0.183, 0.061, 3.219, -58.288, -127.568, -25.460, -10.647, 0.313, 25.78, 0.39841, -0.42551, -0.23712, -0.7771,
 12:22:46.400,ed:40:fe:65:30:6c, 2015-01-01 00:09:13.310, 0.854, 0.034, 0.527, -0.305, 0, 0.183, 3.214, -58.288, -127.562, -25.460, -10.647, 0.313, 25.78, 0.39841, -0.42551, -0.23712, -0.7771,
 12:22:46.400,ed:35:33:d3:6c:f8, 2015-01-01 00:09:13.555, 0.892, -0.065, 0.429, -0.671, 0.854, -0.061, -9.064, -63.853, 153.918, -23.987, -8.053, -18.800, 31.46, 0.22983, 0.50003, -0.18387, 0.81439,
 12:22:46.400,ed:35:33:d3:6c:f8, 2015-01-01 00:09:13.555, 0.895, -0.066, 0.431, -0.916, 1.038, -0.061, -9.069, -63.836, 153.902, -23.987, -8.053, -18.800, 31.46, 0.22983, 0.50003, -0.18387, 0.81439,
 12:22:46.401,f6:90:cc:01:6d:25, 2015-01-01 00:09:12.915, 0.986, -0.038, 0.05, -0.183, 0.854, 0.122, -37.397, -86.38, -144.031, -31.447, -10.200, -1.807, 29.19, 0.00446, -0.68903, 0.022, -0.7243,
 12:22:46.401,f6:90:cc:01:6d:25, 2015-01-01 00:09:12.915, 0.987, -0.04, 0.05, -0.305, 0.916, 0.061, -37.255, -86.364, -144.168, -31.447, -10.200, -1.807, 29.19, 0.00446, -0.68903, 0.022, -0.7243,
 12:22:46.421,e3:ca:2d:fd:e0:8c, 2015-01-01 00:09:14.155, 1.011, -0.111, -0.085, -0.183, -1.221, 0.061, -129.908, -82.112, -89.753, -25.847, -7.373, -6.220, 25.37, 0.19379, 0.68011, -0.285, 0.64697,
 12:22:46.421,e3:ca:2d:fd:e0:8c, 2015-01-01 00:09:14.155, 1.011, -0.11, -0.088, -0.305, 0, 0.061, -129.902, -82.112, -89.753, -25.847, -7.373, -6.220, 25.37, 0.19379, 0.68011, -0.285, 0.64697,
 12:22:46.421,ed:40:fe:65:30:6c, 2015-01-01 00:09:13.310, 0.856, 0.031, 0.527, -0.183, -0.061, 0.061, 3.219, -58.293, -127.568, -25.307, -10.473, 0.573, 25.78, 0.39841, -0.42551, -0.23712, -0.7771,
 12:22:46.421,ed:40:fe:65:30:6c, 2015-01-01 00:09:13.310, 0.857, 0.028, 0.526, 0.061, 0.183, 0, 3.224, -58.288, -127.568, -25.307, -10.473, 0.573, 25.78, 0.39841, -0.42551, -0.23712, -0.7771,
 12:22:46.423,ed:35:33:d3:6c:f8, 2015-01-01 00:09:13.555, 0.895, -0.071, 0.432, -0.671, 1.16, -0.122, -9.069, -63.82, 153.891, -24.273, -8.120, -19.047, 31.46, 0.22983, 0.50003, -0.18387, 0.81439,
 12:22:46.423,ed:35:33:d3:6c:f8, 2015-01-01 00:09:13.555, 0.894, -0.074, 0.429, -0.061, 1.282, -0.305, -9.058, -63.798, 153.88, -24.273, -8.120, -19.047, 31.46, 0.22983, 0.50003, -0.18387, 0.81439,
 12:22:46.446,f6:90:cc:01:6d:25, 2015-01-01 00:09:12.915, 0.986, -0.042, 0.052, -0.61, 0.916, 0, -37.112, -86.353, -144.311, -31.447, -10.200, -1.807, 29.19, 0.00446, -0.68903, 0.022, -0.7243,
 12:22:46.446,f6:90:cc:01:6d:25, 2015-01-01 00:09:12.915, 0.985, -0.042, 0.052, -0.061, 1.038, 0, -36.942, -86.336, -144.47, -31.447, -10.200, -1.807, 29.19, 0.00446, -0.68903, 0.022, -0.7243,
 12:22:46.465,e3:ca:2d:fd:e0:8c, 2015-01-01 00:09:14.155, 1.012, -0.111, -0.089, -0.183, -0.061, 0, -129.908, -82.112, -89.753, -25.847, -7.373, -6.220, 25.37, 0.19379, 0.68011, -0.285, 0.64697,
 12:22:46.465,e3:ca:2d:fd:e0:8c, 2015-01-01 00:09:14.155, 1.011, -0.11, -0.087, -0.061, -0.122, 0, -129.913, -82.112, -89.742, -25.847, -7.373, -6.220, 25.37, 0.19379, 0.68011, -0.285, 0.64697,
 12:22:46.467,ed:40:fe:65:30:6c, 2015-01-01 00:09:13.310, 0.854, 0.031, 0.527, 0.305, 0.366, -0.061, 3.235, -58.282, -127.557, -25.307, -10.473, 0.573, 25.78, 0.39841, -0.42551, -0.23712, -0.7771,
 12:22:46.467,ed:40:fe:65:30:6c, 2015-01-01 00:09:13.310, 0.851, 0.033, 0.526, 0.366, 0.488, 0, 3.246, -58.271, -127.546, -25.307, -10.473, 0.573, 25.78, 0.39841, -0.42551, -0.23712, -0.7771,
 12:22:46.467,ed:35:33:d3:6c:f8, 2015-01-01 00:09:13.555, 0.892, -0.07, 0.432, 0.244, 1.282, -0.366, -9.031, -63.776, 153.842, -24.273, -8.120, -19.047, 31.46, 0.22983, 0.50003, -0.18387, 0.81439,
 12:22:46.467,ed:35:33:d3:6c:f8, 2015-01-01 00:09:13.555, 0.89, -0.067, 0.432, 0.061, 1.16, -0.244, -9.009, -63.754, 153.798, -24.273, -8.120, -19.047, 31.46, 0.22983, 0.50003, -0.18387, 0.81439,
 12:22:46.468,f6:90:cc:01:6d:25, 2015-01-01 00:09:12.915, 0.983, -0.041, 0.053, 0.183, 1.221, 0, -36.733, -86.314, -144.646, -31.447, -10.200, -1.807, 29.19, 0.00446, -0.68903, 0.022, -0.7243,
 12:22:46.468,f6:90:cc:01:6d:25, 2015-01-01 00:09:12.915, 0.98, -0.039, 0.054, 0.305, 1.282, 0, -36.513, -86.298, -144.849, -31.447, -10.200, -1.807, 29.19, 0.00446, -0.68903, 0.022, -0.7243,
 12:22:46.490,ed:35:33:d3:6c:f8, 2015-01-01 00:09:13.555, 0.885, -0.065, 0.434, 0, 1.892, -0.366, -8.987, -63.726, 153.743, -24.273, -8.120, -19.047, 31.46, 0.23227, 0.49765, -0.1843, 0.81506,
 12:22:46.490,ed:35:33:d3:6c:f8, 2015-01-01 00:09:13.555, 0.888, -0.062, 0.436, -0.305, 2.075, -0.305, -8.965, -63.688, 153.688, -24.273, -8.120, -19.047, 31.46, 0.23227, 0.49765, -0.1843, 0.81506,
 12:22:46.510,e3:ca:2d:fd:e0:8c, 2015-01-01 00:09:14.490, 1.01, -0.108, -0.088, -0.122, -0.122, 0, -129.919, -82.106, -89.725, -25.847, -7.373, -6.220, 25.37, 0.19379, 0.68011, -0.285, 0.64697,
 12:22:46.510,e3:ca:2d:fd:e0:8c, 2015-01-01 00:09:14.490, 1.011, -0.108, -0.09, -0.244, 0.183, 0, -129.891, -82.112, -89.731, -25.847, -7.373, -6.220, 25.37, 0.19379, 0.68011, -0.285, 0.64697,
 12:22:46.514,f6:90:cc:01:6d:25, 2015-01-01 00:09:12.915, 0.983, -0.039, 0.053, 0.122, 1.099, -0.122, -36.293, -86.276, -145.074, -31.447, -10.200, -1.807, 29.19, 0.00446, -0.68903, 0.022, -0.7243,
 12:22:46.514,f6:90:cc:01:6d:25, 2015-01-01 00:09:12.915, 0.986, -0.04, 0.054, 0, 0.977, -0.061, -36.107, -86.259, -145.261, -31.447, -10.200, -1.807, 29.19, 0.00446, -0.68903, 0.022, -0.7243,
 12:22:46.533,ed:40:fe:65:30:6c, 2015-01-01 00:09:13.310, 0.847, 0.035, 0.529, 0.244, 0.61, 0, 3.252, -58.26, -127.54, -25.307, -10.473, 0.573, 25.78, 0.39819, -0.42563, -0.23727, -0.7771,
 12:22:46.533,ed:40:fe:65:30:6c, 2015-01-01 00:09:13.310, 0.849, 0.036, 0.529, 0, 0.671, 0, 3.257, -58.25, -127.546, -25.307, -10.473, 0.573, 25.78, 0.39819, -0.42563, -0.23727, -0.7771,
 12:22:46.534,ed:35:33:d3:6c:f8, 2015-01-01 00:09:13.555, 0.892, -0.064, 0.436, -0.305, 2.136, -0.183, -8.948, -63.649, 153.644, -24.273, -8.120, -19.047, 31.46, 0.23227, 0.49765, -0.1843, 0.81506,
 12:22:46.534,ed:35:33:d3:6c:f8, 2015-01-01 00:09:13.555, 0.89, -0.07, 0.435, 0.061, 2.075, -0.122, -8.926, -63.611, 153.616, -24.273, -8.120, -19.047, 31.46, 0.23227, 0.49765, -0.1843, 0.81506,
 12:22:46.556,ed:40:fe:65:30:6c, 2015-01-01 00:09:13.645, 0.854, 0.035, 0.528, 0, 0.488, 0.122, 3.257, -58.239, -127.551, -25.307, -10.473, 0.573, 25.78, 0.39819, -0.42563, -0.23727, -0.7771,
 12:22:46.556,ed:40:fe:65:30:6c, 2015-01-01 00:09:13.645, 0.854, 0.031, 0.527, 0.122, 0.305, 0, 3.257, -58.233, -127.562, -25.307, -10.473, 0.573, 25.78, 0.39819, -0.42563, -0.23727, -0.7771,
 12:22:46.556,e3:ca:2d:fd:e0:8c, 2015-01-01 00:09:14.490, 1.021, -0.109, -0.09, -0.488, 0.427, 0, -129.847, -82.117, -89.764, -25.847, -7.373, -6.220, 25.37, 0.19379, 0.68011, -0.285, 0.64697,
 12:22:46.556,e3:ca:2d:fd:e0:8c, 2015-01-01 00:09:14.490, 1.012, -0.111, -0.088, -0.366, 0, -0.244, -130.012, -82.106, -89.604, -25.847, -7.373, -6.220, 25.37, 0.19379, 0.68011, -0.285, 0.64697,
 12:22:46.558,f6:90:cc:01:6d:25, 2015-01-01 00:09:12.915, 0.986, -0.041, 0.051, 0, 0.854, -0.061, -35.947, -86.248, -145.432, -31.447, -10.200, -1.807, 29.19, 0.00446, -0.68903, 0.022, -0.7243,
 12:22:46.558,f6:90:cc:01:6d:25, 2015-01-01 00:09:12.915, 0.987, -0.041, 0.057, 0.061, 0.793, -0.122, -35.793, -86.232, -145.591, -31.447, -10.200, -1.807, 29.19, 0.00446, -0.68903, 0.022, -0.7243,
 12:22:46.578,ed:40:fe:65:30:6c, 2015-01-01 00:09:13.645, 0.853, 0.033, 0.528, 0.122, 0.671, 0, 3.263, -58.217, -127.59, -25.307, -10.473, 0.573, 25.78, 0.39819, -0.42563, -0.23727, -0.7771,
 12:22:46.578,ed:40:fe:65:30:6c, 2015-01-01 00:09:13.645, 0.852, 0.036, 0.529, 0, 0.793, 0, 3.268, -58.2, -127.606, -25.307, -10.473, 0.573, 25.78, 0.39819, -0.42563, -0.23727, -0.7771,
 12:22:46.579,ed:35:33:d3:6c:f8, 2015-01-01 00:09:13.890, 0.89, -0.068, 0.435, 0.305, 1.892, -0.122, -8.904, -63.578, 153.616, -24.273, -8.120, -19.047, 31.46, 0.23227, 0.49765, -0.1843, 0.81506,
 12:22:46.579,ed:35:33:d3:6c:f8, 2015-01-01 00:09:13.890, 0.892, -0.065, 0.438, 0.366, 2.075, 0, -8.882, -63.539, 153.611, -24.273, -8.120, -19.047, 31.46, 0.23227, 0.49765, -0.1843, 0.81506,
 12:22:46.601,e3:ca:2d:fd:e0:8c, 2015-01-01 00:09:14.490, 1.012, -0.109, -0.09, -0.305, 0.061, -0.305, -130.04, -82.106, -89.583, -25.847, -7.373, -6.220, 25.37, 0.19379, 0.68011, -0.285, 0.64697,
 12:22:46.601,e3:ca:2d:fd:e0:8c, 2015-01-01 00:09:14.490, 1.012, -0.108, -0.091, -0.488, -0.122, -0.366, -130.067, -82.112, -89.566, -25.847, -7.373, -6.220, 25.37, 0.19379, 0.68011, -0.285, 0.64697,
 12:22:46.603,f6:90:cc:01:6d:25, 2015-01-01 00:09:12.915, 0.986, -0.038, 0.055, 0.183, 0.854, -0.122, -35.629, -86.221, -145.756, -31.600, -10.060, -2.153, 29.19, 0.00446, -0.68903, 0.022, -0.7243,
 12:22:46.603,f6:90:cc:01:6d:25, 2015-01-01 00:09:12.915, 0.984, -0.035, 0.058, 0.305, 0.61, -0.061, -35.491, -86.21, -145.876, -31.600, -10.060, -2.153, 29.19, 0.00446, -0.68903, 0.022, -0.7243,
 12:22:46.622,e3:ca:2d:fd:e0:8c, 2015-01-01 00:09:14.490, 1.01, -0.108, -0.091, -0.671, -0.183, -0.366, -130.122, -82.112, -89.522, -25.847, -7.373, -6.220, 25.37, 0.19379, 0.68011, -0.285, 0.64697,
 12:22:46.622,e3:ca:2d:fd:e0:8c, 2015-01-01 00:09:14.490, 0.994, -0.107, -0.091, -0.671, -0.122, -0.305, -130.182, -82.117, -89.484, -25.847, -7.373, -6.220, 25.37, 0.19379, 0.68011, -0.285, 0.64697,
 12:22:46.623,ed:40:fe:65:30:6c, 2015-01-01 00:09:13.645, 0.849, 0.038, 0.535, -0.183, 0.732, 0, 3.268, -58.189, -127.612, -25.307, -10.473, 0.573, 25.78, 0.39819, -0.42563, -0.23727, -0.7771,
 12:22:46.623,ed:40:fe:65:30:6c, 2015-01-01 00:09:13.645, 0.849, 0.038, 0.534, -0.427, 0.916, 0, 3.263, -58.167, -127.601, -25.307, -10.473, 0.573, 25.78, 0.39819, -0.42563, -0.23727, -0.7771,
 12:22:46.625,ed:35:33:d3:6c:f8, 2015-01-01 00:09:13.890, 0.888, -0.064, 0.442, 0.122, 2.991, -0.244, -8.855, -63.484, 153.589, -24.273, -8.120, -19.047, 31.46, 0.23227, 0.49765, -0.1843, 0.81506,
 12:22:46.625,ed:35:33:d3:6c:f8, 2015-01-01 00:09:13.890, 0.886, -0.062, 0.443, 0, 4.395, -0.305, -8.817, -63.413, 153.55, -24.273, -8.120, -19.047, 31.46, 0.23227, 0.49765, -0.1843, 0.81506,
 12:22:46.650,f6:90:cc:01:6d:25, 2015-01-01 00:09:12.915, 0.982, -0.036, 0.059, 0, 0.122, -0.183, -35.409, -86.21, -145.948, -31.600, -10.060, -2.153, 29.19, 0.00491, -0.68741, 0.0217, -0.72586,
 12:22:46.650,f6:90:cc:01:6d:25, 2015-01-01 00:09:12.915, 0.983, -0.039, 0.057, -0.244, -0.122, -0.183, -35.37, -86.21, -145.975, -31.600, -10.060, -2.153, 29.19, 0.00491, -0.68741, 0.0217, -0.72586,
 12:22:46.667,e3:ca:2d:fd:e0:8c, 2015-01-01 00:09:14.490, 1.02, -0.109, -0.097, -0.61, -1.16, -0.244, -130.259, -82.112, -89.44, -25.847, -7.373, -6.220, 25.37, 0.19379, 0.68011, -0.285, 0.64697,
 12:22:46.667,e3:ca:2d:fd:e0:8c, 2015-01-01 00:09:14.490, 1.012, -0.104, -0.088, -0.977, -0.366, -0.244, -130.397, -82.106, -89.341, -25.847, -7.373, -6.220, 25.37, 0.19379, 0.68011, -0.285, 0.64697,
 12:22:46.668,ed:40:fe:65:30:6c, 2015-01-01 00:09:13.645, 0.851, 0.033, 0.529, -0.916, 0.549, 0, 3.252, -58.151, -127.595, -25.307, -10.473, 0.573, 25.78, 0.39819, -0.42563, -0.23727, -0.7771,
 12:22:46.668,ed:40:fe:65:30:6c, 2015-01-01 00:09:13.645, 0.849, 0.034, 0.527, -1.038, 0.427, -0.305, 3.241, -58.14, -127.601, -25.307, -10.473, 0.573, 25.78, 0.39819, -0.42563, -0.23727, -0.7771,
 12:22:46.670,ed:35:33:d3:6c:f8, 2015-01-01 00:09:13.890, 0.881, -0.062, 0.445, -0.061, 5.127, -0.122, -8.773, -63.314, 153.517, -24.273, -8.120, -19.047, 31.46, 0.23227, 0.49765, -0.1843, 0.81506,
 12:22:46.670,ed:35:33:d3:6c:f8, 2015-01-01 00:09:13.890, 0.884, -0.067, 0.444, -0.427, 4.211, 0.366, -8.762, -63.232, 153.517, -24.273, -8.120, -19.047, 31.46, 0.23227, 0.49765, -0.1843, 0.81506,
 12:22:46.670,f6:90:cc:01:6d:25, 2015-01-01 00:09:13.205, 0.983, -0.037, 0.055, -0.671, -0.183, -0.122, -35.37, -86.21, -145.953, -31.600, -10.060, -2.153, 29.19, 0.00491, -0.68741, 0.0217, -0.72586,
 12:22:46.670,f6:90:cc:01:6d:25, 2015-01-01 00:09:13.205, 0.983, -0.037, 0.056, -0.977, 0.122, -0.244, -35.321, -86.21, -146.014, -31.600, -10.060, -2.153, 29.19, 0.00491, -0.68741, 0.0217, -0.72586,
 12:22:46.691,ed:35:33:d3:6c:f8, 2015-01-01 00:09:13.890, 0.887, -0.065, 0.442, -0.122, 2.869, 0.793, -8.767, -63.166, 153.517, -24.273, -8.120, -19.047, 31.46, 0.23227, 0.49765, -0.1843, 0.81506,
 12:22:46.691,ed:35:33:d3:6c:f8, 2015-01-01 00:09:13.890, 0.886, -0.062, 0.443, 0.366, 2.808, 0.977, -8.778, -63.111, 153.523, -24.273, -8.120, -19.047, 31.46, 0.23227, 0.49765, -0.1843, 0.81506,
 12:22:46.716,f6:90:cc:01:6d:25, 2015-01-01 00:09:13.205, 0.985, -0.038, 0.053, -0.916, 0.244, -0.244, -35.228, -86.21, -146.102, -31.600, -10.060, -2.153, 29.19, 0.00491, -0.68741, 0.0217, -0.72586,
 12:22:46.716,f6:90:cc:01:6d:25, 2015-01-01 00:09:13.205, 0.983, -0.044, 0.053, -0.488, 0.183, -0.244, -35.145, -86.21, -146.184, -31.600, -10.060, -2.153, 29.19, 0.00491, -0.68741, 0.0217, -0.72586,
 12:22:46.736,e3:ca:2d:fd:e0:8c, 2015-01-01 00:09:14.490, 1.012, -0.108, -0.092, -0.793, -0.183, -0.122, -130.468, -82.101, -89.302, -25.247, -7.327, -6.887, 25.37, 0.19379, 0.68011, -0.285, 0.64697,
 12:22:46.736,e3:ca:2d:fd:e0:8c, 2015-01-01 00:09:14.490, 1.01, -0.109, -0.092, -0.854, -0.122, -0.305, -130.518, -82.101, -89.28, -25.247, -7.327, -6.887, 25.37, 0.19379, 0.68011, -0.285, 0.64697,
 12:22:46.736,ed:40:fe:65:30:6c, 2015-01-01 00:09:13.645, 0.85, 0.038, 0.53, -0.977, 0.427, -0.366, 3.241, -58.129, -127.606, -25.307, -10.473, 0.573, 25.78, 0.39819, -0.42563, -0.23727, -0.7771,
 12:22:46.736,ed:40:fe:65:30:6c, 2015-01-01 00:09:13.645, 0.85, 0.035, 0.531, -0.977, 0.488, -0.122, 3.235, -58.118, -127.623, -25.307, -10.473, 0.573, 25.78, 0.39819, -0.42563, -0.23727, -0.7771,
 12:22:46.757,e3:ca:2d:fd:e0:8c, 2015-01-01 00:09:14.490, 1.01, -0.108, -0.091, -0.671, -0.061, -0.366, -130.567, -82.106, -89.236, -25.247, -7.327, -6.887, 25.37, 0.19464, 0.68042, -0.28571, 0.64606,
 12:22:46.757,e3:ca:2d:fd:e0:8c, 2015-01-01 00:09:14.490, 1.016, -0.107, -0.09, -0.61, -3.723, -0.183, -130.715, -82.095, -89.088, -25.247, -7.327, -6.887, 25.37, 0.19464, 0.68042, -0.28571, 0.64606,
 12:22:46.758,ed:40:fe:65:30:6c, 2015-01-01 00:09:13.645, 0.848, 0.04, 0.532, -1.221, 0.366, 0.427, 3.219, -58.107, -127.628, -25.487, -10.533, 0.587, 25.78, 0.39819, -0.42563, -0.23727, -0.7771,
 12:22:46.758,ed:40:fe:65:30:6c, 2015-01-01 00:09:13.645, 0.853, 0.044, 0.528, -1.099, 0.549, 0.366, 3.192, -58.096, -127.617, -25.487, -10.533, 0.587, 25.78, 0.39819, -0.42563, -0.23727, -0.7771,
 12:22:46.759,ed:35:33:d3:6c:f8, 2015-01-01 00:09:13.890, 0.883, -0.061, 0.446, 0.671, 3.113, 1.709, -8.8, -63.051, 153.55, -24.273, -8.120, -19.047, 31.46, 0.23227, 0.49765, -0.1843, 0.81506,
 12:22:46.759,ed:35:33:d3:6c:f8, 2015-01-01 00:09:13.890, 0.882, -0.059, 0.446, 0.671, 3.54, 2.991, -8.877, -62.974, 153.633, -24.273, -8.120, -19.047, 31.46, 0.23227, 0.49765, -0.1843, 0.81506,
 12:22:46.760,f6:90:cc:01:6d:25, 2015-01-01 00:09:13.205, 0.98, -0.037, 0.054, -0.61, 0.183, -0.183, -35.079, -86.204, -146.25, -31.600, -10.060, -2.153, 29.19, 0.00491, -0.68741, 0.0217, -0.72586,
 12:22:46.760,f6:90:cc:01:6d:25, 2015-01-01 00:09:13.205, 0.988, -0.032, 0.054, -0.488, 0, 0.122, -35.118, -86.204, -146.201, -31.600, -10.060, -2.153, 29.19, 0.00491, -0.68741, 0.0217, -0.72586,
 12:22:46.783,ed:35:33:d3:6c:f8, 2015-01-01 00:09:13.890, 0.892, -0.062, 0.446, 0.244, 4.089, 2.502, -8.932, -62.886, 153.671, -23.880, -8.167, -20.487, 31.46, 0.23227, 0.49765, -0.1843, 0.81506,
 12:22:46.783,ed:35:33:d3:6c:f8, 2015-01-01 00:09:13.890, 0.885, -0.073, 0.449, 0.732, 4.15, 1.465, -8.943, -62.803, 153.66, -23.880, -8.167, -20.487, 31.46, 0.23227, 0.49765, -0.1843, 0.81506,
 12:22:46.802,e3:ca:2d:fd:e0:8c, 2015-01-01 00:09:14.490, 1.021, -0.106, -0.09, -0.488, 0.488, -0.122, -131.023, -82.062, -88.781, -25.247, -7.327, -6.887, 25.37, 0.19464, 0.68042, -0.28571, 0.64606,
 12:22:46.802,e3:ca:2d:fd:e0:8c, 2015-01-01 00:09:14.490, 1.013, -0.106, -0.088, -0.366, -2.014, -0.061, -131.05, -82.062, -88.764, -25.247, -7.327, -6.887, 25.37, 0.19464, 0.68042, -0.28571, 0.64606,
 12:22:46.804,ed:40:fe:65:30:6c, 2015-01-01 00:09:13.645, 0.855, 0.034, 0.532, -0.427, 0.549, 0, 3.175, -58.085, -127.628, -25.487, -10.533, 0.587, 25.78, 0.39819, -0.42563, -0.23727, -0.7771,
 12:22:46.804,ed:40:fe:65:30:6c, 2015-01-01 00:09:13.645, 0.849, 0.026, 0.536, -0.305, 0.671, 0.061, 3.175, -58.074, -127.639, -25.487, -10.533, 0.587, 25.78, 0.39819, -0.42563, -0.23727, -0.7771,
 12:22:46.806,f6:90:cc:01:6d:25, 2015-01-01 00:09:13.205, 0.992, -0.037, 0.058, -0.366, -0.244, 0.305, -35.233, -86.204, -146.069, -31.600, -10.060, -2.153, 29.19, 0.00491, -0.68741, 0.0217, -0.72586,
 12:22:46.806,f6:90:cc:01:6d:25, 2015-01-01 00:09:13.205, 0.982, -0.044, 0.056, -0.244, -0.244, 0.061, -35.288, -86.204, -145.992, -31.600, -10.060, -2.153, 29.19, 0.00491, -0.68741, 0.0217, -0.72586,
 12:22:46.826,e3:ca:2d:fd:e0:8c, 2015-01-01 00:09:14.825, 1.013, -0.106, -0.094, -0.244, -0.122, -0.061, -131.215, -82.04, -88.616, -25.247, -7.327, -6.887, 25.37, 0.19464, 0.68042, -0.28571, 0.64606,
 12:22:46.826,e3:ca:2d:fd:e0:8c, 2015-01-01 00:09:14.825, 1.011, -0.107, -0.094, -0.061, -0.305, 0, -131.232, -82.04, -88.61, -25.247, -7.327, -6.887, 25.37, 0.19464, 0.68042, -0.28571, 0.64606,
 12:22:46.826,ed:40:fe:65:30:6c, 2015-01-01 00:09:13.645, 0.847, 0.031, 0.533, -0.244, 0.916, 0.427, 3.17, -58.057, -127.639, -25.487, -10.533, 0.587, 25.78, 0.39761, -0.42465, -0.23575, -0.77838,
 12:22:46.826,ed:40:fe:65:30:6c, 2015-01-01 00:09:13.645, 0.851, 0.035, 0.529, -0.183, 0.244, 0.366, 3.159, -58.041, -127.634, -25.487, -10.533, 0.587, 25.78, 0.39761, -0.42465, -0.23575, -0.77838,
 12:22:46.828,ed:35:33:d3:6c:f8, 2015-01-01 00:09:13.890, 0.884, -0.074, 0.457, 0.793, 4.15, 1.282, -8.943, -62.721, 153.666, -23.880, -8.167, -20.487, 31.46, 0.23227, 0.49765, -0.1843, 0.81506,
 12:22:46.828,ed:35:33:d3:6c:f8, 2015-01-01 00:09:13.890, 0.878, -0.069, 0.456, 1.16, 4.456, 2.258, -8.976, -62.633, 153.726, -23.880, -8.167, -20.487, 31.46, 0.23227, 0.49765, -0.1843, 0.81506,
 12:22:46.850,f6:90:cc:01:6d:25, 2015-01-01 00:09:13.205, 0.983, -0.037, 0.048, -0.366, -0.366, -0.244, -35.294, -86.215, -145.964, -31.600, -10.060, -2.153, 29.19, 0.00491, -0.68741, 0.0217, -0.72586,
 12:22:46.850,f6:90:cc:01:6d:25, 2015-01-01 00:09:13.205, 0.985, -0.033, 0.051, -0.244, -0.305, -0.244, -35.288, -86.221, -145.948, -31.600, -10.060, -2.153, 29.19, 0.00491, -0.68741, 0.0217, -0.72586,
 12:22:46.869,e3:ca:2d:fd:e0:8c, 2015-01-01 00:09:14.825, 1.012, -0.106, -0.093, 0.061, -0.122, 0.122, -131.248, -82.04, -88.599, -25.247, -7.327, -6.887, 25.37, 0.19464, 0.68042, -0.28571, 0.64606,
 12:22:46.869,e3:ca:2d:fd:e0:8c, 2015-01-01 00:09:14.825, 1.01, -0.107, -0.094, 0.244, -0.061, 0.183, -131.237, -82.035, -88.588, -25.247, -7.327, -6.887, 25.37, 0.19464, 0.68042, -0.28571, 0.64606,
 12:22:46.871,ed:40:fe:65:30:6c, 2015-01-01 00:09:13.645, 0.853, 0.034, 0.528, -0.183, 0, 0, 3.153, -58.035, -127.623, -25.487, -10.533, 0.587, 25.78, 0.39761, -0.42465, -0.23575, -0.77838,
 12:22:46.871,ed:40:fe:65:30:6c, 2015-01-01 00:09:13.645, 0.849, 0.032, 0.527, -0.305, 0.244, -0.305, 3.159, -58.035, -127.634, -25.487, -10.533, 0.587, 25.78, 0.39761, -0.42465, -0.23575, -0.77838,
 12:22:46.874,f6:90:cc:01:6d:25, 2015-01-01 00:09:13.205, 0.984, -0.035, 0.054, -0.183, 0, -0.183, -35.244, -86.221, -145.97, -31.760, -9.940, -1.620, 29.19, 0.00491, -0.68741, 0.0217, -0.72586,
 12:22:46.874,f6:90:cc:01:6d:25, 2015-01-01 00:09:13.205, 0.981, -0.037, 0.057, -0.183, 0, -0.244, -35.178, -86.226, -146.014, -31.760, -9.940, -1.620, 29.19, 0.00491, -0.68741, 0.0217, -0.72586,
 12:22:46.914,e3:ca:2d:fd:e0:8c, 2015-01-01 00:09:14.825, 1.001, -0.108, -0.093, 0.244, -0.244, 0.183, -131.221, -82.029, -88.577, -25.247, -7.327, -6.887, 25.37, 0.19464, 0.68042, -0.28571, 0.64606,
 12:22:46.914,e3:ca:2d:fd:e0:8c, 2015-01-01 00:09:14.825, 1.024, -0.107, -0.097, 0, -0.549, 0.183, -131.226, -82.024, -88.55, -25.247, -7.327, -6.887, 25.37, 0.19464, 0.68042, -0.28571, 0.64606,
 12:22:46.916,ed:40:fe:65:30:6c, 2015-01-01 00:09:13.980, 0.847, 0.037, 0.527, -0.488, 0.61, -0.427, 3.164, -58.03, -127.667, -25.487, -10.533, 0.587, 25.78, 0.39761, -0.42465, -0.23575, -0.77838,
 12:22:46.916,ed:40:fe:65:30:6c, 2015-01-01 00:09:13.980, 0.85, 0.036, 0.525, -0.549, 0.732, -0.183, 3.175, -58.013, -127.689, -25.487, -10.533, 0.587, 25.78, 0.39761, -0.42465, -0.23575, -0.77838,
 12:22:46.917,ed:35:33:d3:6c:f8, 2015-01-01 00:09:13.890, 0.881, -0.071, 0.454, 0.549, 4.15, 2.014, -9.009, -62.545, 153.765, -23.880, -8.167, -20.487, 31.46, 0.23315, 0.48941, -0.18286, 0.8201,
 12:22:46.917,ed:35:33:d3:6c:f8, 2015-01-01 00:09:13.890, 0.88, -0.074, 0.45, 0.122, 3.479, 1.16, -9.025, -62.479, 153.77, -23.880, -8.167, -20.487, 31.46, 0.23315, 0.48941, -0.18286, 0.8201,
 12:22:46.919,f6:90:cc:01:6d:25, 2015-01-01 00:09:13.205, 0.98, -0.038, 0.054, -0.305, 0.122, -0.183, -35.107, -86.226, -146.069, -31.760, -9.940, -1.620, 29.19, 0.00491, -0.68741, 0.0217, -0.72586,
 12:22:46.919,f6:90:cc:01:6d:25, 2015-01-01 00:09:13.205, 0.982, -0.039, 0.051, -0.366, 0.244, -0.061, -35.052, -86.221, -146.107, -31.760, -9.940, -1.620, 29.19, 0.00491, -0.68741, 0.0217, -0.72586,
 12:22:46.939,ed:40:fe:65:30:6c, 2015-01-01 00:09:13.980, 0.852, 0.034, 0.528, -0.366, 0.732, -0.061, 3.175, -58.002, -127.683, -25.487, -10.533, 0.587, 25.78, 0.39761, -0.42465, -0.23575, -0.77838,
 12:22:46.939,ed:40:fe:65:30:6c, 2015-01-01 00:09:13.980, 0.854, 0.031, 0.53, -0.244, 0.793, 0.122, 3.175, -57.986, -127.678, -25.487, -10.533, 0.587, 25.78, 0.39761, -0.42465, -0.23575, -0.77838,
 12:22:46.940,ed:35:33:d3:6c:f8, 2015-01-01 00:09:14.245, 0.871, -0.072, 0.448, 0, 3.418, 0.671, -9.031, -62.413, 153.754, -23.880, -8.167, -20.487, 31.46, 0.23315, 0.48941, -0.18286, 0.8201,
 12:22:46.940,ed:35:33:d3:6c:f8, 2015-01-01 00:09:14.245, 0.879, -0.065, 0.452, -0.488, 2.563, 0.305, -9.031, -62.364, 153.743, -23.880, -8.167, -20.487, 31.46, 0.23315, 0.48941, -0.18286, 0.8201,
 12:22:46.960,e3:ca:2d:fd:e0:8c, 2015-01-01 00:09:14.825, 1.013, -0.112, -0.09, -0.061, -0.977, 0, -131.281, -82.013, -88.484, -25.247, -7.327, -6.887, 25.37, 0.19464, 0.68042, -0.28571, 0.64606,
 12:22:46.961,e3:ca:2d:fd:e0:8c, 2015-01-01 00:09:14.825, 1.012, -0.11, -0.094, 0, 0, 0, -131.353, -82.002, -88.407, -25.247, -7.327, -6.887, 25.37, 0.19464, 0.68042, -0.28571, 0.64606,
 12:22:46.963,f6:90:cc:01:6d:25, 2015-01-01 00:09:13.205, 0.987, -0.042, 0.051, -0.061, 0.427, 0, -34.986, -86.215, -146.179, -31.760, -9.940, -1.620, 29.19, 0.00595, -0.68747, 0.02039, -0.72583,
 12:22:46.963,f6:90:cc:01:6d:25, 2015-01-01 00:09:13.205, 0.988, -0.042, 0.053, 0.061, 0.732, -0.061, -34.854, -86.204, -146.305, -31.760, -9.940, -1.620, 29.19, 0.00595, -0.68747, 0.02039, -0.72583,
 12:22:46.963,ed:35:33:d3:6c:f8, 2015-01-01 00:09:14.245, 0.88, -0.067, 0.448, -0.488, 2.686, 0.427, -9.036, -62.314, 153.71, -23.880, -8.167, -20.487, 31.46, 0.23315, 0.48941, -0.18286, 0.8201,
 12:22:46.963,ed:35:33:d3:6c:f8, 2015-01-01 00:09:14.245, 0.881, -0.07, 0.455, -0.244, 3.784, 0.488, -9.036, -62.243, 153.66, -23.880, -8.167, -20.487, 31.46, 0.23315, 0.48941, -0.18286, 0.8201,
 12:22:46.984,ed:35:33:d3:6c:f8, 2015-01-01 00:09:14.245, 0.878, -0.074, 0.454, -0.488, 4.15, 0.671, -9.042, -62.166, 153.633, -23.880, -8.167, -20.487, 31.46, 0.23315, 0.48941, -0.18286, 0.8201,
 12:22:46.984,ed:35:33:d3:6c:f8, 2015-01-01 00:09:14.245, 0.881, -0.077, 0.456, -0.305, 3.601, 1.038, -9.064, -62.095, 153.649, -23.880, -8.167, -20.487, 31.46, 0.23315, 0.48941, -0.18286, 0.8201,
 12:22:46.984,ed:40:fe:65:30:6c, 2015-01-01 00:09:13.980, 0.856, 0.031, 0.529, 0.122, 0.732, 0.244, 3.17, -57.969, -127.672, -25.487, -10.533, 0.587, 25.78, 0.39761, -0.42465, -0.23575, -0.77838,
 12:22:46.984,ed:40:fe:65:30:6c, 2015-01-01 00:09:13.980, 0.852, 0.033, 0.529, 0.244, 1.038, 0, 3.175, -57.958, -127.678, -25.487, -10.533, 0.587, 25.78, 0.39761, -0.42465, -0.23575, -0.77838,
 12:22:47.004,e3:ca:2d:fd:e0:8c, 2015-01-01 00:09:14.825, 1.011, -0.108, -0.094, -0.061, -0.549, 0, -131.358, -82.002, -88.407, -25.247, -7.327, -6.887, 25.37, 0.19464, 0.68042, -0.28571, 0.64606,
 12:22:47.004,e3:ca:2d:fd:e0:8c, 2015-01-01 00:09:14.825, 1.011, -0.107, -0.095, 0, -0.366, -0.061, -131.407, -81.991, -88.336, -25.247, -7.327, -6.887, 25.37, 0.19464, 0.68042, -0.28571, 0.64606,
 12:22:47.008,f6:90:cc:01:6d:25, 2015-01-01 00:09:13.515, 0.987, -0.039, 0.052, 0.488, 0.854, 0, -34.717, -86.188, -146.437, -31.760, -9.940, -1.620, 29.19, 0.00595, -0.68747, 0.02039, -0.72583,
 12:22:47.008,f6:90:cc:01:6d:25, 2015-01-01 00:09:13.515, 0.988, -0.037, 0.053, 0.732, 0.916, 0, -34.568, -86.171, -146.58, -31.760, -9.940, -1.620, 29.19, 0.00595, -0.68747, 0.02039, -0.72583,
 12:22:47.027,e3:ca:2d:fd:e0:8c, 2015-01-01 00:09:14.825, 1.011, -0.108, -0.095, 0, -0.305, -0.122, -131.44, -81.991, -88.281, -25.860, -7.640, -6.060, 25.37, 0.19464, 0.68042, -0.28571, 0.64606,
 12:22:47.027,e3:ca:2d:fd:e0:8c, 2015-01-01 00:09:14.825, 1.014, -0.108, -0.097, 0, -0.122, -0.183, -131.479, -81.985, -88.242, -25.860, -7.640, -6.060, 25.37, 0.19464, 0.68042, -0.28571, 0.64606,
 12:22:47.029,ed:35:33:d3:6c:f8, 2015-01-01 00:09:14.245, 0.877, -0.076, 0.458, -0.671, 3.052, 0.122, -9.064, -62.04, 153.649, -23.880, -8.167, -20.487, 31.46, 0.23315, 0.48941, -0.18286, 0.8201,
 12:22:47.029,ed:35:33:d3:6c:f8, 2015-01-01 00:09:14.245, 0.875, -0.074, 0.466, -0.183, 2.991, -0.061, -9.047, -61.985, 153.649, -23.880, -8.167, -20.487, 31.46, 0.23315, 0.48941, -0.18286, 0.8201,
 12:22:47.029,ed:40:fe:65:30:6c, 2015-01-01 00:09:13.980, 0.848, 0.033, 0.535, 0, 1.282, -0.183, 3.181, -57.936, -127.689, -25.487, -10.533, 0.587, 25.78, 0.39761, -0.42465, -0.23575, -0.77838,
 12:22:47.029,ed:40:fe:65:30:6c, 2015-01-01 00:09:13.980, 0.85, 0.034, 0.534, -0.061, 1.16, -0.122, 3.186, -57.914, -127.711, -25.487, -10.533, 0.587, 25.78, 0.39761, -0.42465, -0.23575, -0.77838,
 12:22:47.053,f6:90:cc:01:6d:25, 2015-01-01 00:09:13.515, 0.983, -0.04, 0.051, 0.793, 0.854, -0.061, -34.415, -86.16, -146.733, -31.760, -9.940, -1.620, 29.19, 0.00595, -0.68747, 0.02039, -0.72583,
 12:22:47.053,f6:90:cc:01:6d:25, 2015-01-01 00:09:13.515, 0.986, -0.037, 0.051, 0.427, 0.61, -0.061, -34.31, -86.149, -146.821, -31.760, -9.940, -1.620, 29.19, 0.00595, -0.68747, 0.02039, -0.72583,
 12:22:47.072,e3:ca:2d:fd:e0:8c, 2015-01-01 00:09:14.825, 1.013, -0.108, -0.095, -0.122, -0.183, -0.122, -131.501, -81.985, -88.209, -25.860, -7.640, -6.060, 25.37, 0.19464, 0.68042, -0.28571, 0.64606,
 12:22:47.072,e3:ca:2d:fd:e0:8c, 2015-01-01 00:09:14.825, 1.011, -0.108, -0.097, -0.244, -0.244, -0.122, -131.534, -81.985, -88.182, -25.860, -7.640, -6.060, 25.37, 0.19464, 0.68042, -0.28571, 0.64606,
 12:22:47.074,ed:35:33:d3:6c:f8, 2015-01-01 00:09:14.245, 0.878, -0.069, 0.47, 0.061, 2.319, 0, -9.031, -61.941, 153.644, -23.880, -8.167, -20.487, 31.46, 0.23315, 0.48941, -0.18286, 0.8201,
 12:22:47.074,ed:35:33:d3:6c:f8, 2015-01-01 00:09:14.245, 0.881, -0.068, 0.465, 0.488, 1.16, 0.366, -9.025, -61.919, 153.655, -23.880, -8.167, -20.487, 31.46, 0.23315, 0.48941, -0.18286, 0.8201,
 12:22:47.074,ed:40:fe:65:30:6c, 2015-01-01 00:09:13.980, 0.854, 0.036, 0.533, 0.061, 0.427, 0.122, 3.192, -57.892, -127.733, -25.487, -10.533, 0.587, 25.78, 0.39761, -0.42465, -0.23575, -0.77838,
 12:22:47.074,ed:40:fe:65:30:6c, 2015-01-01 00:09:13.980, 0.854, 0.037, 0.533, 0.061, 0.183, 0.305, 3.192, -57.887, -127.749, -25.487, -10.533, 0.587, 25.78, 0.39761, -0.42465, -0.23575, -0.77838,
 12:22:47.075,f6:90:cc:01:6d:25, 2015-01-01 00:09:13.515, 0.989, -0.036, 0.053, -0.122, 0.549, -0.122, -34.211, -86.144, -146.882, -31.760, -9.940, -1.620, 29.19, 0.00595, -0.68747, 0.02039, -0.72583,
 12:22:47.075,f6:90:cc:01:6d:25, 2015-01-01 00:09:13.515, 0.988, -0.041, 0.055, -0.183, 0.671, -0.122, -34.096, -86.133, -146.953, -31.760, -9.940, -1.620, 29.19, 0.00595, -0.68747, 0.02039, -0.72583,
 12:22:47.096,ed:40:fe:65:30:6c, 2015-01-01 00:09:13.980, 0.849, 0.038, 0.532, 0.305, 0.671, 0.549, 3.192, -57.881, -127.755, -25.287, -10.913, 0.433, 25.78, 0.39761, -0.42465, -0.23575, -0.77838,
 12:22:47.096,ed:40:fe:65:30:6c, 2015-01-01 00:09:13.980, 0.844, 0.037, 0.533, 0.671, 0.916, 0.793, 3.186, -57.87, -127.744, -25.287, -10.913, 0.433, 25.78, 0.39761, -0.42465, -0.23575, -0.77838,
 12:22:47.120,ed:35:33:d3:6c:f8, 2015-01-01 00:09:14.245, 0.88, -0.068, 0.461, 0.305, 1.099, 0.427, -9.025, -61.902, 153.649, -23.880, -8.167, -20.487, 31.46, 0.23315, 0.48941, -0.18286, 0.8201,
 12:22:47.120,ed:35:33:d3:6c:f8, 2015-01-01 00:09:14.245, 0.875, -0.068, 0.46, 0.671, 1.221, 0.671, -9.025, -61.875, 153.677, -23.880, -8.167, -20.487, 31.46, 0.23315, 0.48941, -0.18286, 0.8201,
 12:22:47.121,f6:90:cc:01:6d:25, 2015-01-01 00:09:13.515, 0.979, -0.04, 0.056, 0.061, 0.732, 0, -33.997, -86.122, -147.014, -31.760, -9.940, -1.620, 29.19, 0.00595, -0.68747, 0.02039, -0.72583,
 12:22:47.121,f6:90:cc:01:6d:25, 2015-01-01 00:09:13.515, 0.98, -0.035, 0.053, 0.183, 0.244, 0.122, -33.953, -86.116, -147.019, -31.760, -9.940, -1.620, 29.19, 0.00595, -0.68747, 0.02039, -0.72583,
 12:22:47.140,e3:ca:2d:fd:e0:8c, 2015-01-01 00:09:14.825, 1.011, -0.108, -0.097, -0.305, -0.366, -0.183, -131.578, -81.98, -88.143, -25.860, -7.640, -6.060, 25.37, 0.1937, 0.68164, -0.28552, 0.64514,
 12:22:47.140,e3:ca:2d:fd:e0:8c, 2015-01-01 00:09:14.825, 1.01, -0.108, -0.099, -0.244, -0.488, -0.183, -131.638, -81.98, -88.061, -25.860, -7.640, -6.060, 25.37, 0.1937, 0.68164, -0.28552, 0.64514,
 12:22:47.141,ed:40:fe:65:30:6c, 2015-01-01 00:09:13.980, 0.842, 0.04, 0.533, 0.793, 0.977, 0.916, 3.181, -57.854, -127.716, -25.287, -10.913, 0.433, 25.78, 0.39761, -0.42465, -0.23575, -0.77838,
 12:22:47.141,ed:40:fe:65:30:6c, 2015-01-01 00:09:13.980, 0.847, 0.041, 0.535, 0.671, 0.488, 0.977, 3.17, -57.838, -127.689, -25.287, -10.913, 0.433, 25.78, 0.39761, -0.42465, -0.23575, -0.77838,
 12:22:47.142,ed:35:33:d3:6c:f8, 2015-01-01 00:09:14.245, 0.87, -0.068, 0.463, 1.221, 1.526, 0.916, -9.02, -61.848, 153.71, -23.893, -8.060, -20.253, 31.46, 0.23315, 0.48941, -0.18286, 0.8201,
 12:22:47.142,ed:35:33:d3:6c:f8, 2015-01-01 00:09:14.245, 0.87, -0.065, 0.466, 1.404, 1.648, 1.038, -9.014, -61.815, 153.748, -23.893, -8.060, -20.253, 31.46, 0.23315, 0.48941, -0.18286, 0.8201,
 12:22:47.163,e3:ca:2d:fd:e0:8c, 2015-01-01 00:09:15.160, 1.011, -0.108, -0.098, -0.122, -0.183, -0.122, -131.704, -81.974, -87.973, -25.860, -7.640, -6.060, 25.37, 0.1937, 0.68164, -0.28552, 0.64514,
 12:22:47.163,e3:ca:2d:fd:e0:8c, 2015-01-01 00:09:15.160, 1.012, -0.108, -0.095, 0, 0, 0, -131.726, -81.974, -87.929, -25.860, -7.640, -6.060, 25.37, 0.1937, 0.68164, -0.28552, 0.64514,
 12:22:47.166,f6:90:cc:01:6d:25, 2015-01-01 00:09:13.515, 0.985, -0.032, 0.054, 0.305, 0.244, 0.244, -33.959, -86.111, -146.986, -31.760, -9.940, -1.620, 29.19, 0.00595, -0.68747, 0.02039, -0.72583,
 12:22:47.166,f6:90:cc:01:6d:25, 2015-01-01 00:09:13.515, 0.987, -0.035, 0.058, 0.183, 0.244, 0.244, -33.981, -86.105, -146.953, -31.760, -9.940, -1.620, 29.19, 0.00595, -0.68747, 0.02039, -0.72583,
 12:22:47.185,e3:ca:2d:fd:e0:8c, 2015-01-01 00:09:15.160, 1.012, -0.106, -0.095, 0.061, 0, 0.061, -131.721, -81.969, -87.891, -25.860, -7.640, -6.060, 25.37, 0.1937, 0.68164, -0.28552, 0.64514,
 12:22:47.185,e3:ca:2d:fd:e0:8c, 2015-01-01 00:09:15.160, 1.011, -0.105, -0.096, 0.183, -0.244, 0.061, -131.726, -81.969, -87.869, -25.860, -7.640, -6.060, 25.37, 0.1937, 0.68164, -0.28552, 0.64514,
 12:22:47.187,ed:35:33:d3:6c:f8, 2015-01-01 00:09:14.245, 0.875, -0.066, 0.469, 1.16, 1.221, 0.977, -9.014, -61.787, 153.792, -23.893, -8.060, -20.253, 31.46, 0.23315, 0.48941, -0.18286, 0.8201,
 12:22:47.187,ed:35:33:d3:6c:f8, 2015-01-01 00:09:14.245, 0.877, -0.07, 0.47, 0.916, 0.61, 0.732, -9.014, -61.776, 153.814, -23.893, -8.060, -20.253, 31.46, 0.23315, 0.48941, -0.18286, 0.8201,
 12:22:47.209,ed:40:fe:65:30:6c, 2015-01-01 00:09:13.980, 0.85, 0.039, 0.536, 0.488, 0.183, 0.793, 3.164, -57.832, -127.672, -25.287, -10.913, 0.433, 25.78, 0.39758, -0.42325, -0.23483, -0.77942,
 12:22:47.209,ed:40:fe:65:30:6c, 2015-01-01 00:09:13.980, 0.849, 0.037, 0.538, 0.366, 0.183, 0.671, 3.159, -57.827, -127.661, -25.287, -10.913, 0.433, 25.78, 0.39758, -0.42325, -0.23483, -0.77942,
 12:22:47.211,f6:90:cc:01:6d:25, 2015-01-01 00:09:13.515, 0.985, -0.036, 0.059, 0, 0.061, 0.366, -34.008, -86.1, -146.893, -31.587, -9.920, -1.720, 29.19, 0.00595, -0.68747, 0.02039, -0.72583,
 12:22:47.211,f6:90:cc:01:6d:25, 2015-01-01 00:09:13.515, 0.984, -0.037, 0.055, 0.061, 0, 0.244, -34.074, -86.094, -146.794, -31.587, -9.920, -1.720, 29.19, 0.00595, -0.68747, 0.02039, -0.72583,
 12:22:47.231,e3:ca:2d:fd:e0:8c, 2015-01-01 00:09:15.160, 1.011, -0.106, -0.096, 0.122, -0.244, 0.122, -131.743, -81.964, -87.836, -25.860, -7.640, -6.060, 25.37, 0.1937, 0.68164, -0.28552, 0.64514,
 12:22:47.231,e3:ca:2d:fd:e0:8c, 2015-01-01 00:09:15.160, 1.013, -0.107, -0.095, 0.183, 0, 0.061, -131.743, -81.958, -87.819, -25.860, -7.640, -6.060, 25.37, 0.1937, 0.68164, -0.28552, 0.64514,
 12:22:47.232,ed:40:fe:65:30:6c, 2015-01-01 00:09:14.315, 0.847, 0.037, 0.538, 0.244, 0.305, 0.793, 3.153, -57.827, -127.65, -25.287, -10.913, 0.433, 25.78, 0.39758, -0.42325, -0.23483, -0.77942,
 12:22:47.232,ed:40:fe:65:30:6c, 2015-01-01 00:09:14.315, 0.848, 0.039, 0.538, -0.061, 0.183, 0.732, 3.142, -57.821, -127.634, -25.287, -10.913, 0.433, 25.78, 0.39758, -0.42325, -0.23483, -0.77942,
 12:22:47.254,ed:35:33:d3:6c:f8, 2015-01-01 00:09:14.245, 0.875, -0.069, 0.469, 0.916, 0.366, 0.61, -9.009, -61.765, 153.825, -23.893, -8.060, -20.253, 31.46, 0.23312, 0.48318, -0.18164, 0.82407,
 12:22:47.254,ed:35:33:d3:6c:f8, 2015-01-01 00:09:14.245, 0.874, -0.069, 0.47, 0.61, 0.488, 0.671, -9.014, -61.754, 153.831, -23.893, -8.060, -20.253, 31.46, 0.23312, 0.48318, -0.18164, 0.82407,
 12:22:47.255,f6:90:cc:01:6d:25, 2015-01-01 00:09:13.515, 0.986, -0.034, 0.056, 0, -0.244, 0.244, -34.135, -86.094, -146.7, -31.587, -9.920, -1.720, 29.19, 0.00824, -0.68661, 0.01849, -0.72665,
 12:22:47.255,f6:90:cc:01:6d:25, 2015-01-01 00:09:13.515, 0.986, -0.035, 0.058, -0.183, -0.366, 0.305, -34.228, -86.094, -146.58, -31.587, -9.920, -1.720, 29.19, 0.00824, -0.68661, 0.01849, -0.72665,
 12:22:47.276,e3:ca:2d:fd:e0:8c, 2015-01-01 00:09:15.160, 1.011, -0.108, -0.095, 0.244, 0, 0, -131.737, -81.958, -87.819, -25.860, -7.640, -6.060, 25.37, 0.1937, 0.68164, -0.28552, 0.64514,
 12:22:47.276,e3:ca:2d:fd:e0:8c, 2015-01-01 00:09:15.160, 1.009, -0.108, -0.095, 0.366, -0.366, 0, -131.754, -81.953, -87.797, -25.860, -7.640, -6.060, 25.37, 0.1937, 0.68164, -0.28552, 0.64514,
 12:22:47.276,ed:40:fe:65:30:6c, 2015-01-01 00:09:14.315, 0.849, 0.039, 0.537, -0.244, -0.122, 0.671, 3.126, -57.816, -127.623, -25.287, -10.913, 0.433, 25.78, 0.39758, -0.42325, -0.23483, -0.77942,
 12:22:47.276,ed:40:fe:65:30:6c, 2015-01-01 00:09:14.315, 0.848, 0.034, 0.538, -0.244, -0.122, 0.488, 3.115, -57.816, -127.617, -25.287, -10.913, 0.433, 25.78, 0.39758, -0.42325, -0.23483, -0.77942,
 12:22:47.277,ed:35:33:d3:6c:f8, 2015-01-01 00:09:14.605, 0.875, -0.068, 0.471, 0, 0.305, 0.671, -9.025, -61.743, 153.836, -23.893, -8.060, -20.253, 31.46, 0.23312, 0.48318, -0.18164, 0.82407,
 12:22:47.277,ed:35:33:d3:6c:f8, 2015-01-01 00:09:14.605, 0.875, -0.069, 0.469, -0.061, -0.061, 0.549, -9.042, -61.743, 153.853, -23.893, -8.060, -20.253, 31.46, 0.23312, 0.48318, -0.18164, 0.82407,
 12:22:47.279,f6:90:cc:01:6d:25, 2015-01-01 00:09:13.805, 0.983, -0.038, 0.058, -0.305, -0.366, 0.427, -34.354, -86.1, -146.448, -31.587, -9.920, -1.720, 29.19, 0.00824, -0.68661, 0.01849, -0.72665,
 12:22:47.279,f6:90:cc:01:6d:25, 2015-01-01 00:09:13.805, 0.982, -0.042, 0.057, -0.488, -0.488, 0.366, -34.508, -86.1, -146.294, -31.587, -9.920, -1.720, 29.19, 0.00824, -0.68661, 0.01849, -0.72665,
 12:22:47.299,ed:40:fe:65:30:6c, 2015-01-01 00:09:14.315, 0.846, 0.031, 0.536, -0.183, 0, 0.366, 3.109, -57.816, -127.606, -25.287, -10.913, 0.433, 25.78, 0.39758, -0.42325, -0.23483, -0.77942,
 12:22:47.299,ed:40:fe:65:30:6c, 2015-01-01 00:09:14.315, 0.845, 0.033, 0.536, 0, -0.061, 0.549, 3.098, -57.816, -127.584, -25.287, -10.913, 0.433, 25.78, 0.39758, -0.42325, -0.23483, -0.77942,
 12:22:47.299,ed:35:33:d3:6c:f8, 2015-01-01 00:09:14.605, 0.874, -0.075, 0.468, 0.122, -0.061, 0.366, -9.047, -61.743, 153.858, -23.893, -8.060, -20.253, 31.46, 0.23312, 0.48318, -0.18164, 0.82407,
 12:22:47.299,ed:35:33:d3:6c:f8, 2015-01-01 00:09:14.605, 0.871, -0.073, 0.467, 0.305, 0, 0.061, -9.036, -61.738, 153.858, -23.893, -8.060, -20.253, 31.46, 0.23312, 0.48318, -0.18164, 0.82407,
 12:22:47.323,f6:90:cc:01:6d:25, 2015-01-01 00:09:13.805, 0.984, -0.04, 0.056, -0.977, -1.16, 0.244, -34.695, -86.105, -146.107, -31.587, -9.920, -1.720, 29.19, 0.00824, -0.68661, 0.01849, -0.72665,
 12:22:47.323,f6:90:cc:01:6d:25, 2015-01-01 00:09:13.805, 0.981, -0.04, 0.055, -0.732, -0.977, 0.244, -34.942, -86.122, -145.882, -31.587, -9.920, -1.720, 29.19, 0.00824, -0.68661, 0.01849, -0.72665,
 12:22:47.342,e3:ca:2d:fd:e0:8c, 2015-01-01 00:09:15.160, 1.012, -0.109, -0.097, 0.366, -0.366, 0, -131.781, -81.947, -87.753, -25.860, -7.640, -6.060, 25.37, 0.1937, 0.68164, -0.28552, 0.64514,
 12:22:47.342,e3:ca:2d:fd:e0:8c, 2015-01-01 00:09:15.160, 1.013, -0.108, -0.099, 0.305, -0.061, 0, -131.797, -81.942, -87.731, -25.860, -7.640, -6.060, 25.37, 0.1937, 0.68164, -0.28552, 0.64514,
 12:22:47.343,ed:40:fe:65:30:6c, 2015-01-01 00:09:14.315, 0.845, 0.031, 0.536, 0.183, -0.244, 0.549, 3.093, -57.816, -127.568, -25.287, -10.913, 0.433, 25.78, 0.39758, -0.42325, -0.23483, -0.77942,
 12:22:47.343,ed:40:fe:65:30:6c, 2015-01-01 00:09:14.315, 0.844, 0.03, 0.534, 0.305, -0.305, 0.549, 3.087, -57.821, -127.54, -25.287, -10.913, 0.433, 25.78, 0.39758, -0.42325, -0.23483, -0.77942,
 12:22:47.345,ed:35:33:d3:6c:f8, 2015-01-01 00:09:14.605, 0.871, -0.073, 0.468, 0.732, -0.244, 0.244, -9.025, -61.743, 153.875, -23.893, -8.060, -20.253, 31.46, 0.23312, 0.48318, -0.18164, 0.82407,
 12:22:47.345,ed:35:33:d3:6c:f8, 2015-01-01 00:09:14.605, 0.87, -0.075, 0.467, 0.671, -0.61, 0.366, -9.025, -61.749, 153.902, -23.893, -8.060, -20.253, 31.46, 0.23312, 0.48318, -0.18164, 0.82407,
 12:22:47.364,e3:ca:2d:fd:e0:8c, 2015-01-01 00:09:15.160, 1.01, -0.109, -0.099, 0.366, -0.305, 0, -131.808, -81.942, -87.709, -25.767, -7.240, -5.800, 25.37, 0.1937, 0.68164, -0.28552, 0.64514,
 12:22:47.364,e3:ca:2d:fd:e0:8c, 2015-01-01 00:09:15.160, 1.009, -0.109, -0.098, 0.427, -0.427, 0.305, -131.825, -81.931, -87.665, -25.767, -7.240, -5.800, 25.37, 0.1937, 0.68164, -0.28552, 0.64514,
 12:22:47.369,f6:90:cc:01:6d:25, 2015-01-01 00:09:13.805, 0.979, -0.041, 0.054, -0.549, -0.977, 0.183, -35.167, -86.133, -145.684, -31.587, -9.920, -1.720, 29.19, 0.00824, -0.68661, 0.01849, -0.72665,
 12:22:47.369,f6:90:cc:01:6d:25, 2015-01-01 00:09:13.805, 0.983, -0.041, 0.051, -0.366, -1.099, 0.122, -35.381, -86.144, -145.481, -31.587, -9.920, -1.720, 29.19, 0.00824, -0.68661, 0.01849, -0.72665,
 12:22:47.390,ed:35:33:d3:6c:f8, 2015-01-01 00:09:14.605, 0.871, -0.076, 0.466, 0.916, -0.671, 0.305, -9.02, -61.76, 153.935, -23.893, -8.060, -20.253, 31.46, 0.23312, 0.48318, -0.18164, 0.82407,
 12:22:47.390,ed:35:33:d3:6c:f8, 2015-01-01 00:09:14.605, 0.871, -0.078, 0.468, 1.038, -0.977, 0.183, -9.014, -61.776, 153.935, -23.893, -8.060, -20.253, 31.46, 0.23312, 0.48318, -0.18164, 0.82407,
 12:22:47.410,ed:40:fe:65:30:6c, 2015-01-01 00:09:14.315, 0.846, 0.029, 0.534, 0.488, -0.427, 0.488, 3.087, -57.827, -127.507, -25.287, -10.913, 0.433, 25.78, 0.39758, -0.42325, -0.23483, -0.77942,
 12:22:47.410,ed:40:fe:65:30:6c, 2015-01-01 00:09:14.315, 0.849, 0.029, 0.534, 0.488, -0.732, 0.305, 3.087, -57.838, -127.48, -25.287, -10.913, 0.433, 25.78, 0.39758, -0.42325, -0.23483, -0.77942,
 12:22:47.410,e3:ca:2d:fd:e0:8c, 2015-01-01 00:09:15.160, 1.01, -0.109, -0.099, 0.305, -0.061, 0.183, -131.819, -81.925, -87.654, -25.767, -7.240, -5.800, 25.37, 0.1937, 0.68164, -0.28552, 0.64514,
 12:22:47.410,e3:ca:2d:fd:e0:8c, 2015-01-01 00:09:15.160, 1.011, -0.109, -0.095, 0.183, 0, 0.061, -131.808, -81.92, -87.654, -25.767, -7.240, -5.800, 25.37, 0.1937, 0.68164, -0.28552, 0.64514,
 12:22:47.414,f6:90:cc:01:6d:25, 2015-01-01 00:09:13.805, 0.985, -0.04, 0.054, -0.549, -1.16, 0, -35.601, -86.16, -145.272, -31.587, -9.920, -1.720, 29.19, 0.00824, -0.68661, 0.01849, -0.72665,
 12:22:47.414,f6:90:cc:01:6d:25, 2015-01-01 00:09:13.805, 0.987, -0.04, 0.057, -0.305, -0.793, 0, -35.793, -86.177, -145.074, -31.587, -9.920, -1.720, 29.19, 0.00824, -0.68661, 0.01849, -0.72665,
 12:22:47.432,e3:ca:2d:fd:e0:8c, 2015-01-01 00:09:15.160, 1.01, -0.11, -0.094, 0.122, -0.122, 0.061, -131.808, -81.914, -87.638, -25.767, -7.240, -5.800, 25.37, 0.19193, 0.68265, -0.28424, 0.6452,
 12:22:47.432,e3:ca:2d:fd:e0:8c, 2015-01-01 00:09:15.160, 1.01, -0.11, -0.094, 0.122, -0.305, 0, -131.819, -81.909, -87.621, -25.767, -7.240, -5.800, 25.37, 0.19193, 0.68265, -0.28424, 0.6452,
 12:22:47.437,f6:90:cc:01:6d:25, 2015-01-01 00:09:13.805, 0.986, -0.041, 0.057, -0.305, -0.61, 0.061, -35.931, -86.188, -144.948, -31.587, -9.920, -1.720, 29.19, 0.00824, -0.68661, 0.01849, -0.72665,
 12:22:47.437,f6:90:cc:01:6d:25, 2015-01-01 00:09:13.805, 0.984, -0.041, 0.054, -0.122, -0.366, 0.061, -36.041, -86.193, -144.855, -31.587, -9.920, -1.720, 29.19, 0.00824, -0.68661, 0.01849, -0.72665,
 12:22:47.457,ed:40:fe:65:30:6c, 2015-01-01 00:09:14.315, 0.851, 0.033, 0.534, 0.244, -0.793, 0.183, 3.093, -57.849, -127.474, -25.287, -10.913, 0.433, 25.78, 0.39758, -0.42325, -0.23483, -0.77942,
 12:22:47.457,ed:40:fe:65:30:6c, 2015-01-01 00:09:14.315, 0.852, 0.035, 0.534, 0.061, -0.488, 0.122, 3.098, -57.859, -127.474, -25.287, -10.913, 0.433, 25.78, 0.39758, -0.42325, -0.23483, -0.77942,
 12:22:47.457,ed:35:33:d3:6c:f8, 2015-01-01 00:09:14.605, 0.875, -0.075, 0.465, 0.671, -1.343, 0, -9.009, -61.798, 153.951, -23.893, -8.060, -20.253, 31.46, 0.23312, 0.48318, -0.18164, 0.82407,
 12:22:47.457,ed:35:33:d3:6c:f8, 2015-01-01 00:09:14.605, 0.877, -0.072, 0.463, 0.244, -1.282, -0.061, -9.009, -61.82, 153.995, -23.893, -8.060, -20.253, 31.46, 0.23312, 0.48318, -0.18164, 0.82407,
 12:22:47.477,e3:ca:2d:fd:e0:8c, 2015-01-01 00:09:15.160, 1.01, -0.108, -0.095, 0, -0.427, 0, -131.852, -81.903, -87.599, -25.767, -7.240, -5.800, 25.37, 0.19193, 0.68265, -0.28424, 0.6452,
 12:22:47.477,e3:ca:2d:fd:e0:8c, 2015-01-01 00:09:15.160, 1.01, -0.108, -0.095, -0.061, -0.183, 0, -131.874, -81.898, -87.583, -25.767, -7.240, -5.800, 25.37, 0.19193, 0.68265, -0.28424, 0.6452,
 12:22:47.478,ed:40:fe:65:30:6c, 2015-01-01 00:09:14.315, 0.848, 0.033, 0.534, 0, -0.305, 0.183, 3.098, -57.865, -127.469, -25.700, -10.207, -0.173, 25.78, 0.39758, -0.42325, -0.23483, -0.77942,
 12:22:47.478,ed:40:fe:65:30:6c, 2015-01-01 00:09:14.315, 0.846, 0.034, 0.535, -0.122, -0.183, 0.183, 3.098, -57.87, -127.469, -25.700, -10.207, -0.173, 25.78, 0.39758, -0.42325, -0.23483, -0.77942,
 12:22:47.479,ed:35:33:d3:6c:f8, 2015-01-01 00:09:14.605, 0.877, -0.07, 0.461, -0.122, -1.099, 0, -9.014, -61.842, 154.028, -24.240, -8.140, -20.120, 31.46, 0.23312, 0.48318, -0.18164, 0.82407,
 12:22:47.479,ed:35:33:d3:6c:f8, 2015-01-01 00:09:14.605, 0.874, -0.073, 0.464, 0, -1.038, 0, -9.02, -61.859, 154.067, -24.240, -8.140, -20.120, 31.46, 0.23312, 0.48318, -0.18164, 0.82407,
 12:22:47.480,f6:90:cc:01:6d:25, 2015-01-01 00:09:13.805, 0.982, -0.041, 0.051, -0.244, -0.366, 0.122, -36.123, -86.199, -144.794, -31.553, -10.720, -2.240, 29.19, 0.00824, -0.68661, 0.01849, -0.72665,
 12:22:47.480,f6:90:cc:01:6d:25, 2015-01-01 00:09:13.805, 0.984, -0.04, 0.053, -0.366, -0.793, 0.061, -36.255, -86.204, -144.684, -31.553, -10.720, -2.240, 29.19, 0.00824, -0.68661, 0.01849, -0.72665,
 12:22:47.523,e3:ca:2d:fd:e0:8c, 2015-01-01 00:09:15.495, 1.012, -0.109, -0.097, -0.061, 0.122, 0, -131.874, -81.898, -87.589, -25.767, -7.240, -5.800, 25.37, 0.19193, 0.68265, -0.28424, 0.6452,
 12:22:47.523,e3:ca:2d:fd:e0:8c, 2015-01-01 00:09:15.495, 1.011, -0.109, -0.097, -0.122, 0.183, -0.061, -131.858, -81.898, -87.605, -25.767, -7.240, -5.800, 25.37, 0.19193, 0.68265, -0.28424, 0.6452,
 12:22:47.524,ed:40:fe:65:30:6c, 2015-01-01 00:09:14.315, 0.847, 0.035, 0.538, -0.427, -0.305, 0.122, 3.093, -57.87, -127.463, -25.700, -10.207, -0.173, 25.78, 0.39758, -0.42325, -0.23483, -0.77942,
 12:22:47.524,ed:40:fe:65:30:6c, 2015-01-01 00:09:14.315, 0.85, 0.036, 0.537, -0.793, -0.549, 0.061, 3.087, -57.876, -127.463, -25.700, -10.207, -0.173, 25.78, 0.39758, -0.42325, -0.23483, -0.77942,
 12:22:47.525,ed:35:33:d3:6c:f8, 2015-01-01 00:09:14.605, 0.874, -0.07, 0.466, 0, -1.221, -0.061, -9.025, -61.88, 154.089, -24.240, -8.140, -20.120, 31.46, 0.23312, 0.48318, -0.18164, 0.82407,
 12:22:47.525,ed:35:33:d3:6c:f8, 2015-01-01 00:09:14.605, 0.875, -0.069, 0.469, -0.488, -1.16, -0.061, -9.036, -61.902, 154.105, -24.240, -8.140, -20.120, 31.46, 0.23312, 0.48318, -0.18164, 0.82407,
 12:22:47.526,f6:90:cc:01:6d:25, 2015-01-01 00:09:13.805, 0.985, -0.036, 0.053, -0.61, -0.916, 0.061, -36.431, -86.215, -144.503, -31.553, -10.720, -2.240, 29.19, 0.00787, -0.68771, 0.01947, -0.72559,
 12:22:47.526,f6:90:cc:01:6d:25, 2015-01-01 00:09:13.805, 0.987, -0.038, 0.056, -0.671, -0.732, 0, -36.59, -86.226, -144.338, -31.553, -10.720, -2.240, 29.19, 0.00787, -0.68771, 0.01947, -0.72559,
 12:22:47.545,e3:ca:2d:fd:e0:8c, 2015-01-01 00:09:15.495, 1.012, -0.108, -0.097, 0, -0.183, 0, -131.858, -81.898, -87.594, -25.767, -7.240, -5.800, 25.37, 0.19193, 0.68265, -0.28424, 0.6452,
 12:22:47.545,e3:ca:2d:fd:e0:8c, 2015-01-01 00:09:15.495, 1.01, -0.109, -0.097, 0, -0.427, 0.061, -131.88, -81.892, -87.561, -25.767, -7.240, -5.800, 25.37, 0.19193, 0.68265, -0.28424, 0.6452,
 12:22:47.547,ed:40:fe:65:30:6c, 2015-01-01 00:09:14.315, 0.853, 0.031, 0.533, -0.793, -0.732, -0.122, 3.076, -57.887, -127.469, -25.700, -10.207, -0.173, 25.78, 0.39877, -0.42337, -0.23517, -0.77866,
 12:22:47.547,ed:40:fe:65:30:6c, 2015-01-01 00:09:14.315, 0.85, 0.028, 0.533, -0.549, -0.61, -0.244, 3.076, -57.898, -127.474, -25.700, -10.207, -0.173, 25.78, 0.39877, -0.42337, -0.23517, -0.77866,
 12:22:47.547,ed:35:33:d3:6c:f8, 2015-01-01 00:09:14.605, 0.877, -0.073, 0.467, -1.099, -1.221, -0.122, -9.058, -61.924, 154.127, -24.240, -8.140, -20.120, 31.46, 0.23099, 0.48459, -0.18076, 0.82404,
 12:22:47.547,ed:35:33:d3:6c:f8, 2015-01-01 00:09:14.605, 0.878, -0.077, 0.46, -0.671, -1.282, -0.366, -9.064, -61.946, 154.144, -24.240, -8.140, -20.120, 31.46, 0.23099, 0.48459, -0.18076, 0.82404,
 12:22:47.570,f6:90:cc:01:6d:25, 2015-01-01 00:09:14.075, 0.986, -0.043, 0.055, -0.488, -0.549, -0.061, -36.7, -86.237, -144.234, -31.553, -10.720, -2.240, 29.19, 0.00787, -0.68771, 0.01947, -0.72559,
 12:22:47.570,f6:90:cc:01:6d:25, 2015-01-01 00:09:14.075, 0.976, -0.047, 0.053, -0.366, -0.366, -0.122, -36.76, -86.243, -144.163, -31.553, -10.720, -2.240, 29.19, 0.00787, -0.68771, 0.01947, -0.72559,
 12:22:47.589,e3:ca:2d:fd:e0:8c, 2015-01-01 00:09:15.495, 1.006, -0.109, -0.097, -0.244, -0.549, -0.061, -131.929, -81.887, -87.501, -25.767, -7.240, -5.800, 25.37, 0.19193, 0.68265, -0.28424, 0.6452,
 12:22:47.589,e3:ca:2d:fd:e0:8c, 2015-01-01 00:09:15.495, 1.01, -0.109, -0.097, -0.183, -0.061, -0.122, -131.968, -81.881, -87.462, -25.767, -7.240, -5.800, 25.37, 0.19193, 0.68265, -0.28424, 0.6452,
 12:22:47.591,ed:40:fe:65:30:6c, 2015-01-01 00:09:14.315, 0.843, 0.028, 0.531, -0.549, -0.305, -0.122, 3.076, -57.909, -127.469, -25.700, -10.207, -0.173, 25.78, 0.39877, -0.42337, -0.23517, -0.77866,
 12:22:47.591,ed:40:fe:65:30:6c, 2015-01-01 00:09:14.315, 0.844, 0.038, 0.528, -0.549, 0, -0.061, 3.076, -57.909, -127.458, -25.700, -10.207, -0.173, 25.78, 0.39877, -0.42337, -0.23517, -0.77866,
 12:22:47.593,ed:35:33:d3:6c:f8, 2015-01-01 00:09:14.605, 0.874, -0.076, 0.458, -0.305, -1.343, -0.427, -9.058, -61.974, 154.166, -24.240, -8.140, -20.120, 31.46, 0.23099, 0.48459, -0.18076, 0.82404,
 12:22:47.593,ed:35:33:d3:6c:f8, 2015-01-01 00:09:14.605, 0.868, -0.072, 0.457, -0.61, -1.16, -0.183, -9.075, -61.996, 154.182, -24.240, -8.140, -20.120, 31.46, 0.23099, 0.48459, -0.18076, 0.82404,
 12:22:47.616,f6:90:cc:01:6d:25, 2015-01-01 00:09:14.075, 0.976, -0.038, 0.046, -0.61, -0.366, -0.183, -36.804, -86.248, -144.108, -31.553, -10.720, -2.240, 29.19, 0.00787, -0.68771, 0.01947, -0.72559,
 12:22:47.616,f6:90:cc:01:6d:25, 2015-01-01 00:09:14.075, 0.994, -0.033, 0.048, -0.793, -1.038, 0.061, -36.936, -86.259, -143.976, -31.553, -10.720, -2.240, 29.19, 0.00787, -0.68771, 0.01947, -0.72559,
 12:22:47.635,ed:40:fe:65:30:6c, 2015-01-01 00:09:14.695, 0.859, 0.038, 0.528, -0.244, -0.183, -0.244, 3.076, -57.909, -127.458, -25.700, -10.207, -0.173, 25.78, 0.39877, -0.42337, -0.23517, -0.77866,
 12:22:47.636,ed:40:fe:65:30:6c, 2015-01-01 00:09:14.695, 0.86, 0.029, 0.538, -0.061, -0.549, -0.488, 3.093, -57.914, -127.48, -25.700, -10.207, -0.173, 25.78, 0.39877, -0.42337, -0.23517, -0.77866,
 12:22:47.639,f6:90:cc:01:6d:25, 2015-01-01 00:09:14.075, 0.999, -0.04, 0.054, -0.549, -0.916, 0, -37.139, -86.27, -143.789, -31.553, -10.720, -2.240, 29.19, 0.00787, -0.68771, 0.01947, -0.72559,
 12:22:47.639,f6:90:cc:01:6d:25, 2015-01-01 00:09:14.075, 0.988, -0.043, 0.045, -0.366, -0.61, -0.183, -37.266, -86.287, -143.668, -31.553, -10.720, -2.240, 29.19, 0.00787, -0.68771, 0.01947, -0.72559,
 12:22:47.639,ed:35:33:d3:6c:f8, 2015-01-01 00:09:14.940, 0.88, -0.067, 0.454, -0.366, -1.221, -0.305, -9.075, -62.018, 154.182, -24.240, -8.140, -20.120, 31.46, 0.23099, 0.48459, -0.18076, 0.82404,
 12:22:47.639,ed:35:33:d3:6c:f8, 2015-01-01 00:09:14.940, 0.89, -0.072, 0.46, 0.061, -1.099, -0.671, -9.053, -62.04, 154.138, -24.240, -8.140, -20.120, 31.46, 0.23099, 0.48459, -0.18076, 0.82404,
 12:22:47.657,e3:ca:2d:fd:e0:8c, 2015-01-01 00:09:15.495, 1.018, -0.109, -0.097, 0, 0.732, 0, -131.94, -81.887, -87.49, -25.767, -7.240, -5.800, 25.37, 0.19193, 0.68265, -0.28424, 0.6452,
 12:22:47.657,e3:ca:2d:fd:e0:8c, 2015-01-01 00:09:15.495, 1.016, -0.109, -0.098, 0.061, 0.427, 0.061, -131.869, -81.892, -87.567, -25.767, -7.240, -5.800, 25.37, 0.19193, 0.68265, -0.28424, 0.6452,
 12:22:47.659,ed:35:33:d3:6c:f8, 2015-01-01 00:09:14.940, 0.885, -0.075, 0.466, 0.549, -1.038, -0.977, -9.009, -62.062, 154.094, -24.240, -8.140, -20.120, 31.46, 0.23099, 0.48459, -0.18076, 0.82404,
 12:22:47.659,ed:35:33:d3:6c:f8, 2015-01-01 00:09:14.940, 0.879, -0.069, 0.462, 0, -1.343, -0.427, -9.003, -62.089, 154.067, -24.240, -8.140, -20.120, 31.46, 0.23099, 0.48459, -0.18076, 0.82404,
 12:22:47.681,ed:40:fe:65:30:6c, 2015-01-01 00:09:14.695, 0.853, 0.031, 0.536, -0.061, -0.305, -0.244, 3.109, -57.92, -127.496, -25.700, -10.207, -0.173, 25.78, 0.39877, -0.42337, -0.23517, -0.77866,
 12:22:47.681,ed:40:fe:65:30:6c, 2015-01-01 00:09:14.695, 0.85, 0.035, 0.533, 0, -0.427, 0.061, 3.115, -57.925, -127.507, -25.700, -10.207, -0.173, 25.78, 0.39877, -0.42337, -0.23517, -0.77866,
 12:22:47.685,f6:90:cc:01:6d:25, 2015-01-01 00:09:14.075, 0.985, -0.042, 0.047, -0.366, -0.305, -0.244, -37.315, -86.292, -143.608, -31.553, -10.720, -2.240, 29.19, 0.00787, -0.68771, 0.01947, -0.72559,
 12:22:47.685,f6:90:cc:01:6d:25, 2015-01-01 00:09:14.075, 0.977, -0.039, 0.048, -0.183, -0.305, -0.244, -37.337, -86.303, -143.586, -31.553, -10.720, -2.240, 29.19, 0.00787, -0.68771, 0.01947, -0.72559,
 12:22:47.703,ed:40:fe:65:30:6c, 2015-01-01 00:09:14.695, 0.843, 0.035, 0.529, -0.061, -0.732, 0.122, 3.12, -57.936, -127.518, -25.700, -10.207, -0.173, 25.78, 0.39877, -0.42337, -0.23517, -0.77866,
 12:22:47.703,ed:40:fe:65:30:6c, 2015-01-01 00:09:14.695, 0.842, 0.035, 0.528, 0, -0.488, 0.122, 3.12, -57.953, -127.529, -25.700, -10.207, -0.173, 25.78, 0.39877, -0.42337, -0.23517, -0.77866,
 12:22:47.703,e3:ca:2d:fd:e0:8c, 2015-01-01 00:09:15.495, 1.013, -0.109, -0.101, 0, -0.488, 0, -131.869, -81.892, -87.583, -25.767, -7.240, -5.800, 25.37, 0.19193, 0.68265, -0.28424, 0.6452,
 12:22:47.703,e3:ca:2d:fd:e0:8c, 2015-01-01 00:09:15.495, 1.01, -0.109, -0.101, 0, -1.038, 0.061, -131.946, -81.881, -87.523, -25.767, -7.240, -5.800, 25.37, 0.19193, 0.68265, -0.28424, 0.6452,
 12:22:47.705,ed:35:33:d3:6c:f8, 2015-01-01 00:09:14.940, 0.875, -0.07, 0.46, -0.366, -1.343, 0, -9.014, -62.117, 154.056, -24.240, -8.140, -20.120, 31.46, 0.23099, 0.48459, -0.18076, 0.82404,
 12:22:47.705,ed:35:33:d3:6c:f8, 2015-01-01 00:09:14.940, 0.871, -0.07, 0.454, -0.244, -1.526, 0, -9.025, -62.144, 154.061, -24.240, -8.140, -20.120, 31.46, 0.23099, 0.48459, -0.18076, 0.82404,
 12:22:47.725,e3:ca:2d:fd:e0:8c, 2015-01-01 00:09:15.495, 1.006, -0.109, -0.1, 0, -0.977, 0.061, -132.045, -81.865, -87.435, -25.800, -7.040, -5.900, 25.37, 0.19193, 0.68265, -0.28424, 0.6452,
 12:22:47.725,e3:ca:2d:fd:e0:8c, 2015-01-01 00:09:15.495, 1.008, -0.109, -0.098, 0.061, -0.183, 0, -132.1, -81.854, -87.385, -25.800, -7.040, -5.900, 25.37, 0.19193, 0.68265, -0.28424, 0.6452,
 12:22:47.728,f6:90:cc:01:6d:25, 2015-01-01 00:09:14.075, 0.977, -0.038, 0.048, 0, -0.366, -0.183, -37.365, -86.309, -143.558, -31.553, -10.720, -2.240, 29.19, 0.00787, -0.68771, 0.01947, -0.72559,
 12:22:47.728,f6:90:cc:01:6d:25, 2015-01-01 00:09:14.075, 0.98, -0.039, 0.053, 0, -0.366, -0.122, -37.408, -86.314, -143.514, -31.553, -10.720, -2.240, 29.19, 0.00787, -0.68771, 0.01947, -0.72559,
 12:22:47.748,ed:40:fe:65:30:6c, 2015-01-01 00:09:14.695, 0.844, 0.037, 0.529, -0.183, -0.427, 0.122, 3.12, -57.958, -127.546, -25.700, -10.207, -0.173, 25.78, 0.39877, -0.42337, -0.23517, -0.77866,
 12:22:47.748,ed:40:fe:65:30:6c, 2015-01-01 00:09:14.695, 0.849, 0.037, 0.532, -0.488, -0.366, 0.061, 3.12, -57.969, -127.551, -25.700, -10.207, -0.173, 25.78, 0.39877, -0.42337, -0.23517, -0.77866,
 12:22:47.750,ed:35:33:d3:6c:f8, 2015-01-01 00:09:14.940, 0.871, -0.067, 0.452, -0.427, -1.282, 0, -9.042, -62.166, 154.061, -24.240, -8.140, -20.120, 31.46, 0.23099, 0.48459, -0.18076, 0.82404,
 12:22:47.750,ed:35:33:d3:6c:f8, 2015-01-01 00:09:14.940, 0.875, -0.066, 0.456, -0.671, -0.854, 0, -9.053, -62.183, 154.067, -24.240, -8.140, -20.120, 31.46, 0.23099, 0.48459, -0.18076, 0.82404,
 12:22:47.770,e3:ca:2d:fd:e0:8c, 2015-01-01 00:09:15.495, 1.01, -0.11, -0.096, 0.122, 0.183, 0, -132.1, -81.854, -87.391, -25.800, -7.040, -5.900, 25.37, 0.19193, 0.68265, -0.28424, 0.6452,
 12:22:47.770,e3:ca:2d:fd:e0:8c, 2015-01-01 00:09:15.495, 1.011, -0.11, -0.096, 0.183, 0, 0.061, -132.078, -81.848, -87.385, -25.800, -7.040, -5.900, 25.37, 0.19193, 0.68265, -0.28424, 0.6452,
 12:22:47.775,f6:90:cc:01:6d:25, 2015-01-01 00:09:14.075, 0.984, -0.037, 0.054, 0, -0.244, 0, -37.458, -86.32, -143.465, -31.600, -10.393, -1.773, 29.19, 0.00787, -0.68771, 0.01947, -0.72559,
 12:22:47.775,f6:90:cc:01:6d:25, 2015-01-01 00:09:14.075, 0.988, -0.038, 0.054, -0.183, -0.305, 0, -37.507, -86.325, -143.416, -31.600, -10.393, -1.773, 29.19, 0.00787, -0.68771, 0.01947, -0.72559,
 12:22:47.792,e3:ca:2d:fd:e0:8c, 2015-01-01 00:09:15.495, 1.012, -0.109, -0.096, 0.122, -0.061, 0.061, -132.072, -81.848, -87.363, -25.800, -7.040, -5.900, 25.37, 0.19165, 0.68298, -0.28455, 0.64478,
 12:22:47.792,e3:ca:2d:fd:e0:8c, 2015-01-01 00:09:15.495, 1.01, -0.109, -0.096, 0, -0.122, 0, -132.072, -81.843, -87.336, -25.800, -7.040, -5.900, 25.37, 0.19165, 0.68298, -0.28455, 0.64478,
 12:22:47.793,ed:40:fe:65:30:6c, 2015-01-01 00:09:14.695, 0.852, 0.034, 0.533, -0.549, -0.366, 0, 3.12, -57.975, -127.562, -25.700, -10.207, -0.173, 25.78, 0.39877, -0.42337, -0.23517, -0.77866,
 12:22:47.793,ed:40:fe:65:30:6c, 2015-01-01 00:09:14.695, 0.85, 0.032, 0.537, -0.427, -0.305, -0.183, 3.12, -57.98, -127.579, -25.700, -10.207, -0.173, 25.78, 0.39877, -0.42337, -0.23517, -0.77866,
 12:22:47.794,ed:35:33:d3:6c:f8, 2015-01-01 00:09:14.940, 0.878, -0.069, 0.458, -1.038, -0.61, 0, -9.075, -62.194, 154.061, -24.240, -8.140, -20.120, 31.46, 0.23099, 0.48459, -0.18076, 0.82404,
 12:22:47.794,ed:35:33:d3:6c:f8, 2015-01-01 00:09:14.940, 0.881, -0.073, 0.459, -1.099, -0.671, -0.183, -9.091, -62.21, 154.039, -24.240, -8.140, -20.120, 31.46, 0.23099, 0.48459, -0.18076, 0.82404,
 12:22:47.818,f6:90:cc:01:6d:25, 2015-01-01 00:09:14.075, 0.986, -0.042, 0.052, -0.122, -0.244, 0, -37.557, -86.331, -143.399, -31.600, -10.393, -1.773, 29.19, 0.00769, -0.68863, 0.01956, -0.72473,
 12:22:47.818,f6:90:cc:01:6d:25, 2015-01-01 00:09:14.075, 0.982, -0.041, 0.053, -0.183, -0.183, 0, -37.595, -86.331, -143.388, -31.600, -10.393, -1.773, 29.19, 0.00769, -0.68863, 0.01956, -0.72473,
 12:22:47.839,e3:ca:2d:fd:e0:8c, 2015-01-01 00:09:15.495, 1.008, -0.109, -0.094, 0, -0.244, 0, -132.083, -81.843, -87.297, -25.800, -7.040, -5.900, 25.37, 0.19165, 0.68298, -0.28455, 0.64478,
 12:22:47.839,e3:ca:2d:fd:e0:8c, 2015-01-01 00:09:15.495, 1.01, -0.109, -0.094, 0, -0.061, -0.061, -132.094, -81.837, -87.264, -25.800, -7.040, -5.900, 25.37, 0.19165, 0.68298, -0.28455, 0.64478,
 12:22:47.841,f6:90:cc:01:6d:25, 2015-01-01 00:09:14.075, 0.984, -0.039, 0.052, 0, -0.183, 0, -37.628, -86.331, -143.355, -31.600, -10.393, -1.773, 29.19, 0.00769, -0.68863, 0.01956, -0.72473,
 12:22:47.841,f6:90:cc:01:6d:25, 2015-01-01 00:09:14.075, 0.989, -0.037, 0.053, -0.061, 0, 0, -37.645, -86.331, -143.35, -31.600, -10.393, -1.773, 29.19, 0.00769, -0.68863, 0.01956, -0.72473,
 12:22:47.862,ed:40:fe:65:30:6c, 2015-01-01 00:09:14.695, 0.848, 0.031, 0.536, -0.244, -0.122, -0.183, 3.126, -57.98, -127.601, -25.587, -10.380, 0.007, 25.78, 0.39877, -0.42337, -0.23517, -0.77866,
 12:22:47.862,ed:40:fe:65:30:6c, 2015-01-01 00:09:14.695, 0.851, 0.037, 0.531, -0.366, -0.061, -0.183, 3.131, -57.98, -127.628, -25.587, -10.380, 0.007, 25.78, 0.39877, -0.42337, -0.23517, -0.77866,
 12:22:47.883,ed:40:fe:65:30:6c, 2015-01-01 00:09:14.695, 0.853, 0.039, 0.532, -0.61, 0, -0.183, 3.131, -57.98, -127.656, -25.587, -10.380, 0.007, 25.78, 0.39746, -0.42422, -0.23511, -0.77887,
 12:22:47.883,ed:40:fe:65:30:6c, 2015-01-01 00:09:14.695, 0.85, 0.034, 0.533, -0.732, 0.305, -0.061, 3.131, -57.975, -127.678, -25.587, -10.380, 0.007, 25.78, 0.39746, -0.42422, -0.23511, -0.77887,
 12:22:47.885,ed:35:33:d3:6c:f8, 2015-01-01 00:09:14.940, 0.876, -0.074, 0.461, -0.549, -0.488, -0.427, -9.086, -62.216, 154.001, -24.113, -7.840, -20.653, 31.46, 0.23099, 0.48459, -0.18076, 0.82404,
 12:22:47.885,ed:35:33:d3:6c:f8, 2015-01-01 00:09:14.940, 0.879, -0.071, 0.458, -0.549, -0.793, -0.366, -9.08, -62.232, 153.973, -24.113, -7.840, -20.653, 31.46, 0.23099, 0.48459, -0.18076, 0.82404,
 12:22:47.886,f6:90:cc:01:6d:25, 2015-01-01 00:09:14.075, 0.985, -0.041, 0.055, -0.122, 0.122, 0, -37.623, -86.331, -143.383, -31.600, -10.393, -1.773, 29.19, 0.00769, -0.68863, 0.01956, -0.72473,
 12:22:47.886,f6:90:cc:01:6d:25, 2015-01-01 00:09:14.075, 0.984, -0.04, 0.048, -0.183, 0, 0, -37.612, -86.325, -143.41, -31.600, -10.393, -1.773, 29.19, 0.00769, -0.68863, 0.01956, -0.72473,
 12:22:47.905,e3:ca:2d:fd:e0:8c, 2015-01-01 00:09:15.495, 1.011, -0.109, -0.094, -0.061, 0, 0, -132.089, -81.837, -87.242, -25.800, -7.040, -5.900, 25.37, 0.19165, 0.68298, -0.28455, 0.64478,
 12:22:47.905,e3:ca:2d:fd:e0:8c, 2015-01-01 00:09:15.495, 1.011, -0.11, -0.096, -0.061, -0.183, 0, -132.094, -81.837, -87.209, -25.800, -7.040, -5.900, 25.37, 0.19165, 0.68298, -0.28455, 0.64478,
 12:22:47.908,ed:35:33:d3:6c:f8, 2015-01-01 00:09:14.940, 0.881, -0.066, 0.455, -0.732, -0.427, -0.305, -9.086, -62.243, 153.962, -24.113, -7.840, -20.653, 31.46, 0.23215, 0.48669, -0.18216, 0.82217,
 12:22:47.908,ed:35:33:d3:6c:f8, 2015-01-01 00:09:14.940, 0.882, -0.066, 0.455, -1.038, -0.305, -0.244, -9.091, -62.249, 153.935, -24.113, -7.840, -20.653, 31.46, 0.23215, 0.48669, -0.18216, 0.82217,
 12:22:47.927,e3:ca:2d:fd:e0:8c, 2015-01-01 00:09:15.495, 1.012, -0.11, -0.101, 0, -0.183, 0, -132.1, -81.832, -87.177, -25.800, -7.040, -5.900, 25.44, 0.19165, 0.68298, -0.28455, 0.64478,
 12:22:47.927,e3:ca:2d:fd:e0:8c, 2015-01-01 00:09:15.495, 1.011, -0.111, -0.101, -0.061, -0.183, 0, -132.116, -81.832, -87.138, -25.800, -7.040, -5.900, 25.44, 0.19165, 0.68298, -0.28455, 0.64478,
 12:22:47.928,ed:40:fe:65:30:6c, 2015-01-01 00:09:14.695, 0.849, 0.031, 0.533, -0.61, 0.366, 0, 3.126, -57.964, -127.689, -25.587, -10.380, 0.007, 25.78, 0.39746, -0.42422, -0.23511, -0.77887,
 12:22:47.928,ed:40:fe:65:30:6c, 2015-01-01 00:09:14.695, 0.849, 0.03, 0.532, -0.427, 0.061, 0, 3.126, -57.958, -127.711, -25.587, -10.380, 0.007, 25.78, 0.39746, -0.42422, -0.23511, -0.77887,
 12:22:47.929,ed:35:33:d3:6c:f8, 2015-01-01 00:09:14.940, 0.879, -0.071, 0.457, -0.916, 0.183, -0.061, -9.102, -62.243, 153.924, -24.113, -7.840, -20.653, 31.46, 0.23215, 0.48669, -0.18216, 0.82217,
 12:22:47.929,ed:35:33:d3:6c:f8, 2015-01-01 00:09:14.940, 0.877, -0.073, 0.459, -0.732, 0.183, 0, -9.113, -62.238, 153.935, -24.113, -7.840, -20.653, 31.46, 0.23215, 0.48669, -0.18216, 0.82217,
 12:22:47.930,f6:90:cc:01:6d:25, 2015-01-01 00:09:14.075, 0.984, -0.041, 0.047, 0, -0.183, 0, -37.639, -86.325, -143.405, -31.600, -10.393, -1.773, 29.29, 0.00769, -0.68863, 0.01956, -0.72473,
 12:22:47.930,f6:90:cc:01:6d:25, 2015-01-01 00:09:14.075, 0.982, -0.04, 0.048, 0, -0.061, 0, -37.667, -86.325, -143.394, -31.600, -10.393, -1.773, 29.29, 0.00769, -0.68863, 0.01956, -0.72473,
 12:22:47.951,ed:40:fe:65:30:6c, 2015-01-01 00:09:15.030, 0.847, 0.031, 0.531, -0.244, -0.061, 0, 3.126, -57.958, -127.727, -25.587, -10.380, 0.007, 25.78, 0.39746, -0.42422, -0.23511, -0.77887,
 12:22:47.951,ed:40:fe:65:30:6c, 2015-01-01 00:09:15.030, 0.846, 0.036, 0.531, -0.366, -0.061, -0.061, 3.126, -57.958, -127.738, -25.587, -10.380, 0.007, 25.78, 0.39746, -0.42422, -0.23511, -0.77887,
 12:22:47.972,e3:ca:2d:fd:e0:8c, 2015-01-01 00:09:15.495, 1.01, -0.11, -0.101, -0.061, -0.305, 0, -132.138, -81.826, -87.094, -25.800, -7.040, -5.900, 25.44, 0.19165, 0.68298, -0.28455, 0.64478,
 12:22:47.972,e3:ca:2d:fd:e0:8c, 2015-01-01 00:09:15.495, 1.01, -0.109, -0.101, 0, -0.183, 0, -132.155, -81.821, -87.056, -25.800, -7.040, -5.900, 25.44, 0.19165, 0.68298, -0.28455, 0.64478,
 12:22:47.974,ed:35:33:d3:6c:f8, 2015-01-01 00:09:14.940, 0.876, -0.074, 0.458, -0.488, -0.183, 0, -9.119, -62.243, 153.946, -24.113, -7.840, -20.653, 31.46, 0.23215, 0.48669, -0.18216, 0.82217,
 12:22:47.974,ed:35:33:d3:6c:f8, 2015-01-01 00:09:14.940, 0.875, -0.073, 0.456, -0.549, -0.366, -0.122, -9.124, -62.249, 153.957, -24.113, -7.840, -20.653, 31.46, 0.23215, 0.48669, -0.18216, 0.82217,
 12:22:47.976,f6:90:cc:01:6d:25, 2015-01-01 00:09:14.480, 0.98, -0.039, 0.048, 0.122, -0.183, 0, -37.7, -86.331, -143.355, -31.600, -10.393, -1.773, 29.29, 0.00769, -0.68863, 0.01956, -0.72473,
 12:22:47.976,f6:90:cc:01:6d:25, 2015-01-01 00:09:14.480, 0.985, -0.037, 0.049, 0.061, -0.305, 0, -37.76, -86.331, -143.295, -31.600, -10.393, -1.773, 29.29, 0.00769, -0.68863, 0.01956, -0.72473,
 12:22:47.995,e3:ca:2d:fd:e0:8c, 2015-01-01 00:09:15.990, 1.012, -0.109, -0.099, 0, 0, 0, -132.16, -81.821, -87.034, -25.800, -7.040, -5.900, 25.44, 0.19165, 0.68298, -0.28455, 0.64478,
 12:22:47.996,e3:ca:2d:fd:e0:8c, 2015-01-01 00:09:15.990, 1.012, -0.108, -0.097, 0, 0, 0, -132.155, -81.815, -87.017, -25.800, -7.040, -5.900, 25.44, 0.19165, 0.68298, -0.28455, 0.64478,
 12:22:47.997,ed:35:33:d3:6c:f8, 2015-01-01 00:09:15.295, 0.878, -0.064, 0.455, -1.038, -0.305, -0.183, -9.135, -62.254, 153.968, -24.113, -7.840, -20.653, 31.46, 0.23215, 0.48669, -0.18216, 0.82217,
 12:22:47.997,ed:35:33:d3:6c:f8, 2015-01-01 00:09:15.295, 0.884, -0.063, 0.456, -1.343, -0.183, 0, -9.157, -62.26, 153.979, -24.113, -7.840, -20.653, 31.46, 0.23215, 0.48669, -0.18216, 0.82217,
 12:22:47.997,ed:40:fe:65:30:6c, 2015-01-01 00:09:15.030, 0.851, 0.041, 0.531, -0.61, 0, 0, 3.12, -57.958, -127.749, -25.587, -10.380, 0.007, 25.78, 0.39746, -0.42422, -0.23511, -0.77887,
 12:22:47.997,ed:40:fe:65:30:6c, 2015-01-01 00:09:15.030, 0.854, 0.039, 0.532, -0.977, -0.061, 0.061, 3.109, -57.958, -127.76, -25.587, -10.380, 0.007, 25.78, 0.39746, -0.42422, -0.23511, -0.77887,
 12:22:48.021,ed:35:33:d3:6c:f8, 2015-01-01 00:09:15.295, 0.884, -0.068, 0.455, -1.465, -0.122, 0, -9.179, -62.265, 153.995, -24.113, -7.840, -20.653, 31.46, 0.23215, 0.48669, -0.18216, 0.82217,
 12:22:48.021,ed:35:33:d3:6c:f8, 2015-01-01 00:09:15.295, 0.88, -0.075, 0.453, -0.977, 0, 0, -9.196, -62.265, 154.001, -24.113, -7.840, -20.653, 31.46, 0.23215, 0.48669, -0.18216, 0.82217,
 12:22:48.021,f6:90:cc:01:6d:25, 2015-01-01 00:09:14.480, 0.989, -0.037, 0.049, 0.122, -0.183, 0, -37.804, -86.336, -143.234, -31.600, -10.393, -1.773, 29.29, 0.00769, -0.68863, 0.01956, -0.72473,
 12:22:48.021,f6:90:cc:01:6d:25, 2015-01-01 00:09:14.480, 0.987, -0.037, 0.051, 0.122, 0, 0, -37.809, -86.336, -143.212, -31.600, -10.393, -1.773, 29.29, 0.00769, -0.68863, 0.01956, -0.72473,
 12:22:48.040,ed:40:fe:65:30:6c, 2015-01-01 00:09:15.030, 0.854, 0.035, 0.533, -0.977, 0.061, 0, 3.098, -57.958, -127.771, -25.587, -10.380, 0.007, 25.78, 0.39746, -0.42422, -0.23511, -0.77887,
 12:22:48.040,ed:40:fe:65:30:6c, 2015-01-01 00:09:15.030, 0.85, 0.027, 0.528, -0.488, 0.244, -0.061, 3.098, -57.953, -127.771, -25.587, -10.380, 0.007, 25.78, 0.39746, -0.42422, -0.23511, -0.77887,
 12:22:48.040,e3:ca:2d:fd:e0:8c, 2015-01-01 00:09:15.990, 1.01, -0.109, -0.098, 0, -0.305, 0, -132.177, -81.815, -86.973, -25.800, -7.040, -5.900, 25.44, 0.19165, 0.68298, -0.28455, 0.64478,
 12:22:48.040,e3:ca:2d:fd:e0:8c, 2015-01-01 00:09:15.990, 1.009, -0.109, -0.097, 0, -0.549, 0, -132.226, -81.804, -86.907, -25.800, -7.040, -5.900, 25.44, 0.19165, 0.68298, -0.28455, 0.64478,
 12:22:48.043,f6:90:cc:01:6d:25, 2015-01-01 00:09:14.480, 0.983, -0.04, 0.051, 0.061, -0.061, 0, -37.815, -86.336, -143.174, -31.600, -10.393, -1.773, 29.29, 0.00769, -0.68863, 0.01956, -0.72473,
 12:22:48.043,f6:90:cc:01:6d:25, 2015-01-01 00:09:14.480, 0.982, -0.042, 0.05, 0.122, 0, 0, -37.82, -86.336, -143.141, -31.600, -10.393, -1.773, 29.29, 0.00769, -0.68863, 0.01956, -0.72473,
 12:22:48.065,ed:40:fe:65:30:6c, 2015-01-01 00:09:15.030, 0.848, 0.027, 0.528, -0.305, 0.427, -0.244, 3.098, -57.947, -127.776, -25.587, -10.380, 0.007, 25.78, 0.39746, -0.42422, -0.23511, -0.77887,
 12:22:48.065,ed:40:fe:65:30:6c, 2015-01-01 00:09:15.030, 0.848, 0.036, 0.531, -0.488, 0.61, -0.183, 3.104, -57.936, -127.782, -25.587, -10.380, 0.007, 25.78, 0.39746, -0.42422, -0.23511, -0.77887,
 12:22:48.065,ed:35:33:d3:6c:f8, 2015-01-01 00:09:15.295, 0.877, -0.08, 0.449, -0.122, 0.183, -0.122, -9.19, -62.26, 154.001, -24.113, -7.840, -20.653, 31.46, 0.23215, 0.48669, -0.18216, 0.82217,
 12:22:48.065,ed:35:33:d3:6c:f8, 2015-01-01 00:09:15.295, 0.877, -0.074, 0.452, -0.244, 0.244, -0.366, -9.174, -62.26, 153.984, -24.113, -7.840, -20.653, 31.46, 0.23215, 0.48669, -0.18216, 0.82217,
 12:22:48.084,e3:ca:2d:fd:e0:8c, 2015-01-01 00:09:15.990, 1.008, -0.109, -0.097, 0, -0.488, 0, -132.275, -81.799, -86.841, -25.800, -7.040, -5.900, 25.44, 0.19165, 0.68298, -0.28455, 0.64478,
 12:22:48.084,e3:ca:2d:fd:e0:8c, 2015-01-01 00:09:15.990, 1.01, -0.11, -0.097, 0, -0.061, 0, -132.286, -81.793, -86.808, -25.800, -7.040, -5.900, 25.44, 0.19165, 0.68298, -0.28455, 0.64478,
 12:22:48.089,f6:90:cc:01:6d:25, 2015-01-01 00:09:14.480, 0.983, -0.041, 0.048, 0.244, 0.122, 0, -37.804, -86.336, -143.146, -31.600, -10.393, -1.773, 29.29, 0.00769, -0.68863, 0.01956, -0.72473,
 12:22:48.089,f6:90:cc:01:6d:25, 2015-01-01 00:09:14.480, 0.986, -0.039, 0.049, 0.183, 0.183, 0, -37.776, -86.331, -143.141, -31.600, -10.393, -1.773, 29.29, 0.00769, -0.68863, 0.01956, -0.72473,
 12:22:48.109,ed:35:33:d3:6c:f8, 2015-01-01 00:09:15.295, 0.88, -0.064, 0.456, -0.732, 0.305, -0.183, -9.179, -62.254, 153.984, -24.113, -7.840, -20.653, 31.46, 0.23215, 0.48669, -0.18216, 0.82217,
 12:22:48.109,ed:35:33:d3:6c:f8, 2015-01-01 00:09:15.295, 0.878, -0.067, 0.458, -1.038, 0.488, 0.061, -9.196, -62.249, 154.001, -24.113, -7.840, -20.653, 31.46, 0.23215, 0.48669, -0.18216, 0.82217,
 12:22:48.109,ed:40:fe:65:30:6c, 2015-01-01 00:09:15.030, 0.85, 0.038, 0.533, -0.793, 0.61, -0.061, 3.098, -57.92, -127.782, -25.587, -10.380, 0.007, 25.78, 0.39746, -0.42422, -0.23511, -0.77887,
 12:22:48.109,ed:40:fe:65:30:6c, 2015-01-01 00:09:15.030, 0.85, 0.035, 0.534, -0.671, 0.488, 0.122, 3.087, -57.909, -127.771, -25.587, -10.380, 0.007, 25.78, 0.39746, -0.42422, -0.23511, -0.77887,
 12:22:48.129,e3:ca:2d:fd:e0:8c, 2015-01-01 00:09:15.990, 1.012, -0.11, -0.098, 0, 0.244, 0, -132.259, -81.793, -86.808, -25.800, -7.040, -5.900, 25.44, 0.19165, 0.68298, -0.28455, 0.64478,
 12:22:48.129,e3:ca:2d:fd:e0:8c, 2015-01-01 00:09:15.990, 1.011, -0.11, -0.099, 0, 0.122, 0, -132.242, -81.793, -86.808, -25.800, -7.040, -5.900, 25.44, 0.19165, 0.68298, -0.28455, 0.64478,
 12:22:48.133,f6:90:cc:01:6d:25, 2015-01-01 00:09:14.480, 0.986, -0.04, 0.048, 0.061, 0.305, 0, -37.733, -86.325, -143.163, -31.600, -10.393, -1.773, 29.29, 0.00769, -0.68863, 0.01956, -0.72473,
 12:22:48.133,f6:90:cc:01:6d:25, 2015-01-01 00:09:14.480, 0.983, -0.042, 0.047, 0.122, 0.183, 0, -37.705, -86.325, -143.179, -31.600, -10.393, -1.773, 29.29, 0.00769, -0.68863, 0.01956, -0.72473,
 12:22:48.154,ed:40:fe:65:30:6c, 2015-01-01 00:09:15.030, 0.848, 0.031, 0.534, -0.305, 0.427, 0.183, 3.082, -57.903, -127.76, -25.587, -10.380, 0.007, 25.78, 0.39746, -0.42422, -0.23511, -0.77887,
 12:22:48.154,ed:40:fe:65:30:6c, 2015-01-01 00:09:15.030, 0.85, 0.03, 0.532, 0, 0.244, 0.305, 3.076, -57.898, -127.749, -25.587, -10.380, 0.007, 25.78, 0.39746, -0.42422, -0.23511, -0.77887,
 12:22:48.175,e3:ca:2d:fd:e0:8c, 2015-01-01 00:09:15.990, 1.011, -0.111, -0.101, -0.122, 0, 0, -132.231, -81.793, -86.797, -25.800, -7.040, -5.900, 25.44, 0.19165, 0.68298, -0.28455, 0.64478,
 12:22:48.175,e3:ca:2d:fd:e0:8c, 2015-01-01 00:09:15.990, 1.01, -0.111, -0.101, -0.244, 0.183, 0, -132.22, -81.793, -86.797, -25.800, -7.040, -5.900, 25.44, 0.19165, 0.68298, -0.28455, 0.64478,
 12:22:48.177,ed:35:33:d3:6c:f8, 2015-01-01 00:09:15.295, 0.878, -0.074, 0.458, -0.366, 0.427, 0.305, -9.207, -62.238, 154.012, -24.113, -7.840, -20.653, 31.46, 0.23215, 0.48669, -0.18216, 0.82217,
 12:22:48.177,ed:35:33:d3:6c:f8, 2015-01-01 00:09:15.295, 0.88, -0.075, 0.456, -0.061, 0.244, 0.427, -9.218, -62.232, 154.012, -24.113, -7.840, -20.653, 31.46, 0.23215, 0.48669, -0.18216, 0.82217,
 12:22:48.178,f6:90:cc:01:6d:25, 2015-01-01 00:09:14.480, 0.983, -0.043, 0.045, 0.244, 0, 0, -37.716, -86.32, -143.174, -31.647, -10.353, -1.667, 29.29, 0.00769, -0.68863, 0.01956, -0.72473,
 12:22:48.178,f6:90:cc:01:6d:25, 2015-01-01 00:09:14.480, 0.985, -0.042, 0.047, 0.427, 0.183, 0, -37.711, -86.32, -143.19, -31.647, -10.353, -1.667, 29.29, 0.00769, -0.68863, 0.01956, -0.72473,
 12:22:48.197,e3:ca:2d:fd:e0:8c, 2015-01-01 00:09:15.990, 1.011, -0.11, -0.1, -0.244, 0.244, 0, -132.198, -81.799, -86.808, -25.540, -7.233, -5.747, 25.44, 0.19165, 0.68298, -0.28455, 0.64478,
 12:22:48.197,e3:ca:2d:fd:e0:8c, 2015-01-01 00:09:15.990, 1.011, -0.109, -0.101, -0.183, 0.244, 0, -132.177, -81.799, -86.819, -25.540, -7.233, -5.747, 25.44, 0.19165, 0.68298, -0.28455, 0.64478,
 12:22:48.199,ed:35:33:d3:6c:f8, 2015-01-01 00:09:15.295, 0.881, -0.074, 0.454, -0.061, 0.305, 0.488, -9.234, -62.227, 154.023, -24.013, -8.020, -20.327, 31.46, 0.23215, 0.48669, -0.18216, 0.82217,
 12:22:48.199,ed:35:33:d3:6c:f8, 2015-01-01 00:09:15.295, 0.881, -0.076, 0.452, 0.061, 0.305, 0.427, -9.245, -62.221, 154.039, -24.013, -8.020, -20.327, 31.46, 0.23215, 0.48669, -0.18216, 0.82217,
 12:22:48.201,f6:90:cc:01:6d:25, 2015-01-01 00:09:14.480, 0.986, -0.041, 0.048, 0.549, 0.244, 0, -37.689, -86.314, -143.218, -31.647, -10.353, -1.667, 29.29, 0.00809, -0.6886, 0.01938, -0.72476,
 12:22:48.201,f6:90:cc:01:6d:25, 2015-01-01 00:09:14.480, 0.984, -0.04, 0.048, 0.488, 0.244, 0, -37.667, -86.314, -143.245, -31.647, -10.353, -1.667, 29.29, 0.00809, -0.6886, 0.01938, -0.72476,
 12:22:48.221,ed:40:fe:65:30:6c, 2015-01-01 00:09:15.030, 0.851, 0.031, 0.532, 0.061, 0.122, 0.366, 3.071, -57.892, -127.733, -25.727, -10.667, 0.907, 25.78, 0.39746, -0.42422, -0.23511, -0.77887,
 12:22:48.221,ed:40:fe:65:30:6c, 2015-01-01 00:09:15.030, 0.852, 0.031, 0.531, 0.244, 0.122, 0.366, 3.071, -57.892, -127.716, -25.727, -10.667, 0.907, 25.78, 0.39746, -0.42422, -0.23511, -0.77887,
 12:22:48.243,ed:40:fe:65:30:6c, 2015-01-01 00:09:15.030, 0.85, 0.03, 0.53, 0.244, 0.244, 0.183, 3.071, -57.887, -127.705, -25.727, -10.667, 0.907, 25.78, 0.39709, -0.42392, -0.23425, -0.77951,
 12:22:48.243,ed:40:fe:65:30:6c, 2015-01-01 00:09:15.030, 0.849, 0.032, 0.53, 0.122, 0.366, 0, 3.076, -57.881, -127.7, -25.727, -10.667, 0.907, 25.78, 0.39709, -0.42392, -0.23425, -0.77951,
 12:22:48.243,e3:ca:2d:fd:e0:8c, 2015-01-01 00:09:15.990, 1.011, -0.109, -0.1, -0.244, 0.122, 0, -132.166, -81.799, -86.819, -25.540, -7.233, -5.747, 25.44, 0.19165, 0.68298, -0.28455, 0.64478,
 12:22:48.243,e3:ca:2d:fd:e0:8c, 2015-01-01 00:09:15.990, 1.011, -0.109, -0.1, -0.244, 0.183, 0, -132.155, -81.799, -86.819, -25.540, -7.233, -5.747, 25.44, 0.19165, 0.68298, -0.28455, 0.64478,
 12:22:48.244,ed:35:33:d3:6c:f8, 2015-01-01 00:09:15.295, 0.878, -0.077, 0.451, 0.366, 0.488, 0.183, -9.256, -62.21, 154.056, -24.013, -8.020, -20.327, 31.46, 0.23215, 0.48669, -0.18216, 0.82217,
 12:22:48.244,ed:35:33:d3:6c:f8, 2015-01-01 00:09:15.295, 0.88, -0.073, 0.454, 0.183, 0.549, -0.183, -9.25, -62.205, 154.061, -24.013, -8.020, -20.327, 31.46, 0.23215, 0.48669, -0.18216, 0.82217,
 12:22:48.246,f6:90:cc:01:6d:25, 2015-01-01 00:09:14.480, 0.984, -0.039, 0.047, 0.427, 0.244, 0, -37.639, -86.309, -143.245, -31.647, -10.353, -1.667, 29.29, 0.00809, -0.6886, 0.01938, -0.72476,
 12:22:48.246,f6:90:cc:01:6d:25, 2015-01-01 00:09:14.480, 0.985, -0.039, 0.046, 0.427, 0.366, 0, -37.59, -86.303, -143.278, -31.647, -10.353, -1.667, 29.29, 0.00809, -0.6886, 0.01938, -0.72476,
 12:22:48.267,ed:35:33:d3:6c:f8, 2015-01-01 00:09:15.295, 0.881, -0.07, 0.456, -0.122, 0.427, -0.305, -9.234, -62.199, 154.039, -24.013, -8.020, -20.327, 31.46, 0.23212, 0.48624, -0.1828, 0.8223,
 12:22:48.267,ed:35:33:d3:6c:f8, 2015-01-01 00:09:15.295, 0.881, -0.071, 0.457, -0.366, 0.366, -0.183, -9.223, -62.194, 154.012, -24.013, -8.020, -20.327, 31.46, 0.23212, 0.48624, -0.1828, 0.8223,
 12:22:48.288,ed:40:fe:65:30:6c, 2015-01-01 00:09:15.030, 0.851, 0.034, 0.531, -0.244, 0.366, -0.183, 3.082, -57.876, -127.7, -25.727, -10.667, 0.907, 25.78, 0.39709, -0.42392, -0.23425, -0.77951,
 12:22:48.288,ed:40:fe:65:30:6c, 2015-01-01 00:09:15.030, 0.851, 0.034, 0.534, -0.366, 0.244, -0.183, 3.087, -57.87, -127.705, -25.727, -10.667, 0.907, 25.78, 0.39709, -0.42392, -0.23425, -0.77951,
 12:22:48.291,f6:90:cc:01:6d:25, 2015-01-01 00:09:14.770, 0.986, -0.038, 0.049, 0.183, 0.427, 0, -37.529, -86.298, -143.35, -31.647, -10.353, -1.667, 29.29, 0.00809, -0.6886, 0.01938, -0.72476,
 12:22:48.291,f6:90:cc:01:6d:25, 2015-01-01 00:09:14.770, 0.985, -0.04, 0.051, 0, 0.427, 0, -37.474, -86.292, -143.432, -31.647, -10.353, -1.667, 29.29, 0.00809, -0.6886, 0.01938, -0.72476,
 12:22:48.310,ed:40:fe:65:30:6c, 2015-01-01 00:09:15.390, 0.851, 0.033, 0.533, -0.366, 0.366, -0.061, 3.087, -57.865, -127.705, -25.727, -10.667, 0.907, 25.78, 0.39709, -0.42392, -0.23425, -0.77951,
 12:22:48.310,ed:40:fe:65:30:6c, 2015-01-01 00:09:15.390, 0.85, 0.033, 0.534, -0.305, 0.488, 0, 3.087, -57.854, -127.705, -25.727, -10.667, 0.907, 25.78, 0.39709, -0.42392, -0.23425, -0.77951,
 12:22:48.310,e3:ca:2d:fd:e0:8c, 2015-01-01 00:09:15.990, 1.011, -0.108, -0.099, -0.244, 0.305, 0, -132.133, -81.799, -86.836, -25.540, -7.233, -5.747, 25.44, 0.18866, 0.68433, -0.28195, 0.64536,
 12:22:48.310,e3:ca:2d:fd:e0:8c, 2015-01-01 00:09:15.990, 1.011, -0.109, -0.099, -0.183, 0.305, 0, -132.105, -81.804, -86.852, -25.540, -7.233, -5.747, 25.44, 0.18866, 0.68433, -0.28195, 0.64536,
 12:22:48.333,e3:ca:2d:fd:e0:8c, 2015-01-01 00:09:16.325, 1.011, -0.11, -0.098, -0.183, 0.122, 0, -132.094, -81.804, -86.858, -25.540, -7.233, -5.747, 25.44, 0.18866, 0.68433, -0.28195, 0.64536,
 12:22:48.333,e3:ca:2d:fd:e0:8c, 2015-01-01 00:09:16.325, 1.011, -0.11, -0.098, -0.183, 0.122, 0, -132.089, -81.804, -86.858, -25.540, -7.233, -5.747, 25.44, 0.18866, 0.68433, -0.28195, 0.64536,
 12:22:48.355,e3:ca:2d:fd:e0:8c, 2015-01-01 00:09:16.325, 1.01, -0.111, -0.098, -0.244, 0, 0, -132.089, -81.804, -86.847, -25.540, -7.233, -5.747, 25.44, 0.18866, 0.68433, -0.28195, 0.64536,
 12:22:48.355,e3:ca:2d:fd:e0:8c, 2015-01-01 00:09:16.325, 1.008, -0.109, -0.098, -0.305, -0.122, -0.305, -132.122, -81.804, -86.803, -25.540, -7.233, -5.747, 25.44, 0.18866, 0.68433, -0.28195, 0.64536,
 12:22:48.356,ed:40:fe:65:30:6c, 2015-01-01 00:09:15.390, 0.848, 0.033, 0.536, -0.183, 0.488, 0.122, 3.082, -57.843, -127.694, -25.727, -10.667, 0.907, 25.78, 0.39709, -0.42392, -0.23425, -0.77951,
 12:22:48.356,ed:40:fe:65:30:6c, 2015-01-01 00:09:15.390, 0.845, 0.036, 0.535, 0, 0.549, 0.122, 3.082, -57.838, -127.689, -25.727, -10.667, 0.907, 25.78, 0.39709, -0.42392, -0.23425, -0.77951,
 12:22:48.357,ed:35:33:d3:6c:f8, 2015-01-01 00:09:15.295, 0.879, -0.073, 0.455, -0.305, 0.488, 0, -9.223, -62.188, 153.995, -24.013, -8.020, -20.327, 31.46, 0.23212, 0.48624, -0.1828, 0.8223,
 12:22:48.357,ed:35:33:d3:6c:f8, 2015-01-01 00:09:15.295, 0.879, -0.072, 0.458, -0.244, 0.732, 0, -9.223, -62.177, 154.001, -24.013, -8.020, -20.327, 31.46, 0.23212, 0.48624, -0.1828, 0.8223,
 12:22:48.358,f6:90:cc:01:6d:25, 2015-01-01 00:09:14.770, 0.985, -0.042, 0.052, 0, 0.488, -0.305, -37.326, -86.287, -143.591, -31.647, -10.353, -1.667, 29.29, 0.00809, -0.6886, 0.01938, -0.72476,
 12:22:48.358,f6:90:cc:01:6d:25, 2015-01-01 00:09:14.770, 0.986, -0.042, 0.052, 0.183, 0.549, -0.305, -37.167, -86.281, -143.762, -31.647, -10.353, -1.667, 29.29, 0.00809, -0.6886, 0.01938, -0.72476,
 12:22:48.380,f6:90:cc:01:6d:25, 2015-01-01 00:09:14.770, 0.983, -0.04, 0.053, 0.244, 0.549, -0.183, -37.04, -86.276, -143.882, -31.647, -10.353, -1.667, 29.29, 0.00809, -0.6886, 0.01938, -0.72476,
 12:22:48.380,f6:90:cc:01:6d:25, 2015-01-01 00:09:14.770, 0.981, -0.038, 0.05, 0.122, 0.366, -0.122, -36.958, -86.27, -143.954, -31.647, -10.353, -1.667, 29.29, 0.00809, -0.6886, 0.01938, -0.72476,
 12:22:48.380,ed:35:33:d3:6c:f8, 2015-01-01 00:09:15.655, 0.877, -0.071, 0.459, 0, 0.854, 0.122, -9.223, -62.166, 153.99, -24.013, -8.020, -20.327, 31.46, 0.23212, 0.48624, -0.1828, 0.8223,
 12:22:48.380,ed:35:33:d3:6c:f8, 2015-01-01 00:09:15.655, 0.875, -0.07, 0.457, 0, 0.671, 0.122, -9.218, -62.15, 153.968, -24.013, -8.020, -20.327, 31.46, 0.23212, 0.48624, -0.1828, 0.8223,
 12:22:48.399,e3:ca:2d:fd:e0:8c, 2015-01-01 00:09:16.325, 1.01, -0.109, -0.098, -0.305, 0.122, -0.183, -132.138, -81.804, -86.776, -25.540, -7.233, -5.747, 25.44, 0.18866, 0.68433, -0.28195, 0.64536,
 12:22:48.399,e3:ca:2d:fd:e0:8c, 2015-01-01 00:09:16.325, 1.01, -0.109, -0.096, -0.61, 0.488, -0.305, -132.133, -81.815, -86.776, -25.540, -7.233, -5.747, 25.44, 0.18866, 0.68433, -0.28195, 0.64536,
 12:22:48.401,ed:35:33:d3:6c:f8, 2015-01-01 00:09:15.655, 0.876, -0.07, 0.458, 0.305, 0.793, 0.061, -9.218, -62.139, 153.929, -24.013, -8.020, -20.327, 31.46, 0.23212, 0.48624, -0.1828, 0.8223,
 12:22:48.401,ed:35:33:d3:6c:f8, 2015-01-01 00:09:15.655, 0.878, -0.074, 0.456, -0.244, 0.427, 0.244, -9.207, -62.128, 153.891, -24.013, -8.020, -20.327, 31.46, 0.23212, 0.48624, -0.1828, 0.8223,
 12:22:48.401,ed:40:fe:65:30:6c, 2015-01-01 00:09:15.390, 0.845, 0.037, 0.532, 0.061, 0.61, 0.122, 3.087, -57.821, -127.678, -25.727, -10.667, 0.907, 25.78, 0.39709, -0.42392, -0.23425, -0.77951,
 12:22:48.401,ed:40:fe:65:30:6c, 2015-01-01 00:09:15.390, 0.849, 0.031, 0.533, 0.061, 0.427, 0.183, 3.087, -57.816, -127.672, -25.727, -10.667, 0.907, 25.78, 0.39709, -0.42392, -0.23425, -0.77951,
 12:22:48.404,f6:90:cc:01:6d:25, 2015-01-01 00:09:14.770, 0.986, -0.04, 0.049, 0.366, 0.427, -0.122, -36.859, -86.265, -144.025, -31.647, -10.353, -1.667, 29.29, 0.00809, -0.6886, 0.01938, -0.72476,
 12:22:48.404,f6:90:cc:01:6d:25, 2015-01-01 00:09:14.770, 0.982, -0.042, 0.051, 0, 0.854, -0.244, -36.667, -86.254, -144.207, -31.647, -10.353, -1.667, 29.29, 0.00809, -0.6886, 0.01938, -0.72476,
 12:22:48.425,ed:35:33:d3:6c:f8, 2015-01-01 00:09:15.655, 0.881, -0.07, 0.453, -0.244, 0.793, 0, -9.212, -62.117, 153.869, -24.013, -8.020, -20.327, 31.46, 0.23212, 0.48624, -0.1828, 0.8223,
 12:22:48.425,ed:35:33:d3:6c:f8, 2015-01-01 00:09:15.655, 0.887, -0.07, 0.455, 0, 1.282, -0.305, -9.207, -62.1, 153.831, -24.013, -8.020, -20.327, 31.46, 0.23212, 0.48624, -0.1828, 0.8223,
 12:22:48.444,e3:ca:2d:fd:e0:8c, 2015-01-01 00:09:16.325, 1.01, -0.109, -0.097, -0.61, 0.427, -0.366, -132.127, -81.821, -86.776, -25.540, -7.233, -5.747, 25.44, 0.18866, 0.68433, -0.28195, 0.64536,
 12:22:48.444,e3:ca:2d:fd:e0:8c, 2015-01-01 00:09:16.325, 1.012, -0.108, -0.099, -0.427, 0.427, -0.305, -132.116, -81.832, -86.781, -25.540, -7.233, -5.747, 25.44, 0.18866, 0.68433, -0.28195, 0.64536,
 12:22:48.446,ed:40:fe:65:30:6c, 2015-01-01 00:09:15.390, 0.848, 0.034, 0.533, -0.244, 0.366, 0.244, 3.082, -57.805, -127.656, -25.727, -10.667, 0.907, 25.78, 0.39709, -0.42392, -0.23425, -0.77951,
 12:22:48.446,ed:40:fe:65:30:6c, 2015-01-01 00:09:15.390, 0.854, 0.04, 0.533, -0.183, 0.793, 0, 3.082, -57.794, -127.65, -25.727, -10.667, 0.907, 25.78, 0.39709, -0.42392, -0.23425, -0.77951,
 12:22:48.449,f6:90:cc:01:6d:25, 2015-01-01 00:09:14.770, 0.988, -0.034, 0.055, 0, 1.038, -0.061, -36.48, -86.243, -144.366, -31.647, -10.353, -1.667, 29.29, 0.00809, -0.6886, 0.01938, -0.72476,
 12:22:48.449,f6:90:cc:01:6d:25, 2015-01-01 00:09:14.770, 0.993, -0.037, 0.053, -0.122, 0.916, 0.061, -36.337, -86.226, -144.476, -31.647, -10.353, -1.667, 29.29, 0.00809, -0.6886, 0.01938, -0.72476,
 12:22:48.470,ed:35:33:d3:6c:f8, 2015-01-01 00:09:15.655, 0.882, -0.072, 0.465, 0, 1.526, -0.244, -9.185, -62.078, 153.776, -24.013, -8.020, -20.327, 31.46, 0.23212, 0.48624, -0.1828, 0.8223,
 12:22:48.470,ed:35:33:d3:6c:f8, 2015-01-01 00:09:15.655, 0.877, -0.071, 0.465, 0.366, 1.221, 0.183, -9.168, -62.051, 153.732, -24.013, -8.020, -20.327, 31.46, 0.23212, 0.48624, -0.1828, 0.8223,
 12:22:48.492,ed:40:fe:65:30:6c, 2015-01-01 00:09:15.390, 0.854, 0.033, 0.537, -0.305, 0.977, -0.122, 3.087, -57.772, -127.65, -25.727, -10.667, 0.907, 25.78, 0.39709, -0.42392, -0.23425, -0.77951,
 12:22:48.492,ed:40:fe:65:30:6c, 2015-01-01 00:09:15.390, 0.848, 0.032, 0.542, -0.183, 1.16, 0, 3.087, -57.75, -127.65, -25.727, -10.667, 0.907, 25.78, 0.39709, -0.42392, -0.23425, -0.77951,
 12:22:48.493,f6:90:cc:01:6d:25, 2015-01-01 00:09:14.770, 0.988, -0.042, 0.053, 0.366, 0.61, -0.061, -36.216, -86.215, -144.564, -31.427, -9.847, -1.360, 29.29, 0.00809, -0.6886, 0.01938, -0.72476,
 12:22:48.493,f6:90:cc:01:6d:25, 2015-01-01 00:09:14.770, 0.983, -0.04, 0.048, 0.122, 0.671, -0.183, -36.068, -86.21, -144.69, -31.427, -9.847, -1.360, 29.29, 0.00809, -0.6886, 0.01938, -0.72476,
 12:22:48.512,e3:ca:2d:fd:e0:8c, 2015-01-01 00:09:16.325, 1.015, -0.108, -0.099, -0.305, 0.61, -0.244, -132.078, -81.843, -86.808, -25.540, -7.233, -5.747, 25.44, 0.18866, 0.68433, -0.28195, 0.64536,
 12:22:48.512,e3:ca:2d:fd:e0:8c, 2015-01-01 00:09:16.325, 1.013, -0.107, -0.1, -0.427, 0.122, -0.244, -132.1, -81.848, -86.786, -25.540, -7.233, -5.747, 25.44, 0.18866, 0.68433, -0.28195, 0.64536,
 12:22:48.513,ed:40:fe:65:30:6c, 2015-01-01 00:09:15.390, 0.847, 0.033, 0.537, 0.183, 0.854, 0.366, 3.087, -57.733, -127.645, -25.900, -10.567, 0.140, 25.78, 0.39709, -0.42392, -0.23425, -0.77951,
 12:22:48.513,ed:40:fe:65:30:6c, 2015-01-01 00:09:15.390, 0.844, 0.037, 0.537, 0.244, 0.244, 0.427, 3.082, -57.728, -127.634, -25.900, -10.567, 0.140, 25.78, 0.39709, -0.42392, -0.23425, -0.77951,
 12:22:48.514,ed:35:33:d3:6c:f8, 2015-01-01 00:09:15.655, 0.876, -0.07, 0.463, 0.305, 0.427, 0.427, -9.157, -62.034, 153.715, -24.013, -8.020, -20.327, 31.46, 0.23212, 0.48624, -0.1828, 0.8223,
 12:22:48.514,ed:35:33:d3:6c:f8, 2015-01-01 00:09:15.655, 0.872, -0.068, 0.459, 0.183, 0.366, 0.305, -9.163, -62.023, 153.71, -24.013, -8.020, -20.327, 31.46, 0.23212, 0.48624, -0.1828, 0.8223,
 12:22:48.534,e3:ca:2d:fd:e0:8c, 2015-01-01 00:09:16.325, 1.01, -0.107, -0.102, -0.305, -0.183, -0.122, -132.138, -81.843, -86.743, -25.540, -7.313, -5.740, 25.44, 0.18866, 0.68433, -0.28195, 0.64536,
 12:22:48.534,e3:ca:2d:fd:e0:8c, 2015-01-01 00:09:16.325, 1.01, -0.109, -0.1, -0.244, -0.305, -0.061, -132.182, -81.837, -86.693, -25.540, -7.313, -5.740, 25.44, 0.18866, 0.68433, -0.28195, 0.64536,
 12:22:48.539,f6:90:cc:01:6d:25, 2015-01-01 00:09:14.770, 0.983, -0.037, 0.05, -0.061, 0.793, -0.244, -35.887, -86.199, -144.849, -31.427, -9.847, -1.360, 29.29, 0.009, -0.68762, 0.01822, -0.72571,
 12:22:48.539,f6:90:cc:01:6d:25, 2015-01-01 00:09:14.770, 0.98, -0.036, 0.053, 0, 0.61, -0.183, -35.75, -86.193, -144.965, -31.427, -9.847, -1.360, 29.29, 0.009, -0.68762, 0.01822, -0.72571,
 12:22:48.558,ed:40:fe:65:30:6c, 2015-01-01 00:09:15.390, 0.841, 0.039, 0.536, -0.122, 0.427, 0.305, 3.082, -57.717, -127.628, -25.900, -10.567, 0.140, 25.78, 0.39709, -0.42392, -0.23425, -0.77951,
 12:22:48.558,ed:40:fe:65:30:6c, 2015-01-01 00:09:15.390, 0.842, 0.041, 0.536, -0.549, 0.488, 0.122, 3.071, -57.706, -127.628, -25.900, -10.567, 0.140, 25.78, 0.39709, -0.42392, -0.23425, -0.77951,
 12:22:48.582,ed:35:33:d3:6c:f8, 2015-01-01 00:09:15.655, 0.873, -0.065, 0.459, -0.488, 0.427, 0.122, -9.163, -62.018, 153.715, -24.013, -8.020, -20.327, 31.46, 0.23212, 0.48624, -0.1828, 0.8223,
 12:22:48.582,ed:35:33:d3:6c:f8, 2015-01-01 00:09:15.655, 0.873, -0.067, 0.46, -0.793, 0.793, 0, -9.168, -62.007, 153.693, -24.013, -8.020, -20.327, 31.46, 0.23212, 0.48624, -0.1828, 0.8223,
 12:22:48.585,f6:90:cc:01:6d:25, 2015-01-01 00:09:15.080, 0.981, -0.034, 0.055, 0, 0.427, 0, -35.684, -86.188, -145.003, -31.427, -9.847, -1.360, 29.29, 0.009, -0.68762, 0.01822, -0.72571,
 12:22:48.585,f6:90:cc:01:6d:25, 2015-01-01 00:09:15.080, 0.98, -0.035, 0.058, -0.061, 0.122, 0.122, -35.689, -86.182, -144.959, -31.427, -9.847, -1.360, 29.29, 0.009, -0.68762, 0.01822, -0.72571,
 12:22:48.602,e3:ca:2d:fd:e0:8c, 2015-01-01 00:09:16.325, 1.01, -0.11, -0.1, -0.183, 0, -0.122, -132.198, -81.837, -86.671, -25.540, -7.313, -5.740, 25.44, 0.18866, 0.68433, -0.28195, 0.64536,
 12:22:48.602,e3:ca:2d:fd:e0:8c, 2015-01-01 00:09:16.325, 1.009, -0.109, -0.098, -0.183, 0.122, -0.122, -132.204, -81.843, -86.66, -25.540, -7.313, -5.740, 25.44, 0.18866, 0.68433, -0.28195, 0.64536,
 12:22:48.604,ed:35:33:d3:6c:f8, 2015-01-01 00:09:15.655, 0.874, -0.07, 0.461, -0.732, 0.732, 0.061, -9.174, -61.996, 153.666, -24.107, -7.947, -20.800, 31.46, 0.23212, 0.48624, -0.1828, 0.8223,
 12:22:48.604,ed:35:33:d3:6c:f8, 2015-01-01 00:09:15.655, 0.878, -0.076, 0.463, -0.122, 0.549, 0.183, -9.179, -61.979, 153.655, -24.107, -7.947, -20.800, 31.46, 0.23212, 0.48624, -0.1828, 0.8223,
 12:22:48.607,f6:90:cc:01:6d:25, 2015-01-01 00:09:15.080, 0.986, -0.04, 0.055, -0.122, 0.061, 0.122, -35.706, -86.182, -144.904, -31.427, -9.847, -1.360, 29.29, 0.009, -0.68762, 0.01822, -0.72571,
 12:22:48.607,f6:90:cc:01:6d:25, 2015-01-01 00:09:15.080, 0.984, -0.04, 0.056, 0.244, 0.122, 0, -35.711, -86.177, -144.855, -31.427, -9.847, -1.360, 29.29, 0.009, -0.68762, 0.01822, -0.72571,
 12:22:48.624,e3:ca:2d:fd:e0:8c, 2015-01-01 00:09:16.325, 1.01, -0.108, -0.097, -0.122, 0.061, 0, -132.198, -81.843, -86.655, -25.540, -7.313, -5.740, 25.44, 0.18823, 0.68457, -0.28098, 0.64563,
 12:22:48.624,e3:ca:2d:fd:e0:8c, 2015-01-01 00:09:16.325, 1.012, -0.108, -0.096, -0.122, 0.061, 0, -132.193, -81.837, -86.649, -25.540, -7.313, -5.740, 25.44, 0.18823, 0.68457, -0.28098, 0.64563,
 12:22:48.626,ed:40:fe:65:30:6c, 2015-01-01 00:09:15.390, 0.842, 0.036, 0.538, -0.549, 0.427, 0.122, 3.065, -57.695, -127.634, -25.900, -10.567, 0.140, 25.78, 0.39795, -0.42252, -0.23395, -0.77991,
 12:22:48.626,ed:40:fe:65:30:6c, 2015-01-01 00:09:15.390, 0.846, 0.032, 0.537, -0.305, 0.427, 0.183, 3.065, -57.684, -127.628, -25.900, -10.567, 0.140, 25.78, 0.39795, -0.42252, -0.23395, -0.77991,
 12:22:48.648,ed:40:fe:65:30:6c, 2015-01-01 00:09:15.725, 0.848, 0.03, 0.54, 0, 0.244, 0.183, 3.065, -57.678, -127.623, -25.900, -10.567, 0.140, 25.78, 0.39795, -0.42252, -0.23395, -0.77991,
 12:22:48.648,ed:40:fe:65:30:6c, 2015-01-01 00:09:15.725, 0.846, 0.03, 0.54, 0.122, 0.183, 0.183, 3.071, -57.673, -127.617, -25.900, -10.567, 0.140, 25.78, 0.39795, -0.42252, -0.23395, -0.77991,
 12:22:48.649,ed:35:33:d3:6c:f8, 2015-01-01 00:09:15.655, 0.875, -0.076, 0.464, 0.183, 0.488, 0.122, -9.174, -61.968, 153.644, -24.107, -7.947, -20.800, 31.46, 0.23212, 0.48624, -0.1828, 0.8223,
 12:22:48.649,ed:35:33:d3:6c:f8, 2015-01-01 00:09:15.655, 0.878, -0.07, 0.462, 0, 0.061, 0.244, -9.174, -61.963, 153.649, -24.107, -7.947, -20.800, 31.46, 0.23212, 0.48624, -0.1828, 0.8223,
 12:22:48.650,f6:90:cc:01:6d:25, 2015-01-01 00:09:15.080, 0.985, -0.039, 0.059, 0.183, 0.183, -0.061, -35.673, -86.177, -144.849, -31.427, -9.847, -1.360, 29.29, 0.009, -0.68762, 0.01822, -0.72571,
 12:22:48.650,f6:90:cc:01:6d:25, 2015-01-01 00:09:15.080, 0.985, -0.036, 0.054, 0.061, 0.244, 0.061, -35.623, -86.171, -144.855, -31.427, -9.847, -1.360, 29.29, 0.009, -0.68762, 0.01822, -0.72571,
 12:22:48.670,ed:40:fe:65:30:6c, 2015-01-01 00:09:15.725, 0.849, 0.038, 0.537, 0.183, 0.183, 0.305, 3.071, -57.667, -127.601, -25.900, -10.567, 0.140, 25.78, 0.39795, -0.42252, -0.23395, -0.77991,
 12:22:48.670,ed:40:fe:65:30:6c, 2015-01-01 00:09:15.725, 0.846, 0.037, 0.536, 0.061, 0.183, 0.305, 3.071, -57.662, -127.584, -25.900, -10.567, 0.140, 25.78, 0.39795, -0.42252, -0.23395, -0.77991,
 12:22:48.670,e3:ca:2d:fd:e0:8c, 2015-01-01 00:09:16.325, 1.011, -0.108, -0.096, -0.061, 0.061, 0, -132.188, -81.837, -86.644, -25.540, -7.313, -5.740, 25.44, 0.18823, 0.68457, -0.28098, 0.64563,
 12:22:48.670,e3:ca:2d:fd:e0:8c, 2015-01-01 00:09:16.325, 1.009, -0.108, -0.095, 0, 0, 0, -132.182, -81.837, -86.633, -25.540, -7.313, -5.740, 25.44, 0.18823, 0.68457, -0.28098, 0.64563,
 12:22:48.673,ed:35:33:d3:6c:f8, 2015-01-01 00:09:15.655, 0.878, -0.067, 0.46, 0.183, 0.732, 0.061, -9.174, -61.957, 153.649, -24.107, -7.947, -20.800, 31.46, 0.2348, 0.48395, -0.18369, 0.82266,
 12:22:48.673,ed:35:33:d3:6c:f8, 2015-01-01 00:09:15.655, 0.876, -0.07, 0.459, 0, 0.366, 0.183, -9.163, -61.946, 153.638, -24.107, -7.947, -20.800, 31.46, 0.2348, 0.48395, -0.18369, 0.82266,
 12:22:48.692,e3:ca:2d:fd:e0:8c, 2015-01-01 00:09:16.680, 1.011, -0.107, -0.095, 0, -0.061, 0, -132.188, -81.837, -86.616, -25.540, -7.313, -5.740, 25.44, 0.18823, 0.68457, -0.28098, 0.64563,
 12:22:48.692,e3:ca:2d:fd:e0:8c, 2015-01-01 00:09:16.680, 1.012, -0.108, -0.097, 0, 0.122, 0, -132.171, -81.837, -86.616, -25.540, -7.313, -5.740, 25.44, 0.18823, 0.68457, -0.28098, 0.64563,
 12:22:48.696,f6:90:cc:01:6d:25, 2015-01-01 00:09:15.080, 0.985, -0.039, 0.058, 0, 0.122, 0.122, -35.596, -86.166, -144.838, -31.427, -9.847, -1.360, 29.29, 0.009, -0.68762, 0.01822, -0.72571,
 12:22:48.696,f6:90:cc:01:6d:25, 2015-01-01 00:09:15.080, 0.985, -0.04, 0.052, 0, 0.244, 0.122, -35.59, -86.16, -144.8, -31.427, -9.847, -1.360, 29.29, 0.009, -0.68762, 0.01822, -0.72571,
 12:22:48.714,e3:ca:2d:fd:e0:8c, 2015-01-01 00:09:16.680, 1.01, -0.108, -0.096, 0, 0, 0, -132.166, -81.837, -86.605, -25.540, -7.313, -5.740, 25.44, 0.18823, 0.68457, -0.28098, 0.64563,
 12:22:48.714,e3:ca:2d:fd:e0:8c, 2015-01-01 00:09:16.680, 1.013, -0.109, -0.099, 0, 0.061, 0, -132.155, -81.837, -86.6, -25.540, -7.313, -5.740, 25.44, 0.18823, 0.68457, -0.28098, 0.64563,
 12:22:48.715,ed:40:fe:65:30:6c, 2015-01-01 00:09:15.725, 0.846, 0.035, 0.538, 0, 0.427, 0.183, 3.071, -57.651, -127.579, -25.900, -10.567, 0.140, 25.78, 0.39795, -0.42252, -0.23395, -0.77991,
 12:22:48.715,ed:40:fe:65:30:6c, 2015-01-01 00:09:15.725, 0.846, 0.034, 0.538, -0.122, 0.305, 0.305, 3.065, -57.645, -127.562, -25.900, -10.567, 0.140, 25.78, 0.39795, -0.42252, -0.23395, -0.77991,
 12:22:48.717,ed:35:33:d3:6c:f8, 2015-01-01 00:09:15.655, 0.875, -0.071, 0.461, 0.183, 0.732, 0.183, -9.163, -61.935, 153.633, -24.107, -7.947, -20.800, 31.46, 0.2348, 0.48395, -0.18369, 0.82266,
 12:22:48.717,ed:35:33:d3:6c:f8, 2015-01-01 00:09:15.655, 0.878, -0.07, 0.466, -0.549, 0.305, 0.183, -9.157, -61.924, 153.616, -24.107, -7.947, -20.800, 31.46, 0.2348, 0.48395, -0.18369, 0.82266,
 12:22:48.741,f6:90:cc:01:6d:25, 2015-01-01 00:09:15.080, 0.986, -0.038, 0.052, 0, 0.305, 0.183, -35.568, -86.155, -144.778, -31.427, -9.847, -1.360, 29.29, 0.009, -0.68762, 0.01822, -0.72571,
 12:22:48.741,f6:90:cc:01:6d:25, 2015-01-01 00:09:15.080, 0.984, -0.039, 0.054, 0.122, 0.366, 0.244, -35.557, -86.149, -144.75, -31.427, -9.847, -1.360, 29.29, 0.009, -0.68762, 0.01822, -0.72571,
 12:22:48.759,e3:ca:2d:fd:e0:8c, 2015-01-01 00:09:16.680, 1.012, -0.11, -0.1, -0.061, 0, 0, -132.155, -81.837, -86.589, -25.540, -7.313, -5.740, 25.44, 0.18823, 0.68457, -0.28098, 0.64563,
 12:22:48.759,e3:ca:2d:fd:e0:8c, 2015-01-01 00:09:16.680, 1.01, -0.109, -0.102, 0, -0.244, 0, -132.177, -81.832, -86.556, -25.540, -7.313, -5.740, 25.44, 0.18823, 0.68457, -0.28098, 0.64563,
 12:22:48.760,ed:40:fe:65:30:6c, 2015-01-01 00:09:15.725, 0.848, 0.037, 0.54, -0.427, 0.061, 0.244, 3.054, -57.645, -127.546, -25.900, -10.567, 0.140, 25.78, 0.39795, -0.42252, -0.23395, -0.77991,
 12:22:48.760,ed:40:fe:65:30:6c, 2015-01-01 00:09:15.725, 0.844, 0.032, 0.539, -0.366, 0, 0.183, 3.049, -57.64, -127.54, -25.900, -10.567, 0.140, 25.78, 0.39795, -0.42252, -0.23395, -0.77991,
 12:22:48.763,ed:35:33:d3:6c:f8, 2015-01-01 00:09:16.055, 0.876, -0.072, 0.464, -0.671, 0.122, 0.244, -9.168, -61.919, 153.594, -24.107, -7.947, -20.800, 31.46, 0.2348, 0.48395, -0.18369, 0.82266,
 12:22:48.763,ed:35:33:d3:6c:f8, 2015-01-01 00:09:16.055, 0.874, -0.074, 0.46, -0.305, 0.122, 0.122, -9.185, -61.913, 153.561, -24.107, -7.947, -20.800, 31.46, 0.2348, 0.48395, -0.18369, 0.82266,
 12:22:48.785,ed:35:33:d3:6c:f8, 2015-01-01 00:09:16.055, 0.875, -0.072, 0.457, 0.122, 0.061, 0.244, -9.19, -61.913, 153.556, -24.107, -7.947, -20.800, 31.46, 0.2348, 0.48395, -0.18369, 0.82266,
 12:22:48.785,ed:35:33:d3:6c:f8, 2015-01-01 00:09:16.055, 0.876, -0.073, 0.457, 0.427, 0.061, 0.488, -9.19, -61.908, 153.578, -24.107, -7.947, -20.800, 31.46, 0.2348, 0.48395, -0.18369, 0.82266,
 12:22:48.786,f6:90:cc:01:6d:25, 2015-01-01 00:09:15.080, 0.981, -0.04, 0.053, 0, 0.061, 0.183, -35.557, -86.138, -144.712, -31.373, -10.340, -1.373, 29.29, 0.009, -0.68762, 0.01822, -0.72571,
 12:22:48.786,f6:90:cc:01:6d:25, 2015-01-01 00:09:15.080, 0.983, -0.042, 0.053, 0.061, -0.061, 0.122, -35.596, -86.138, -144.641, -31.373, -10.340, -1.373, 29.29, 0.009, -0.68762, 0.01822, -0.72571,
 12:22:48.805,e3:ca:2d:fd:e0:8c, 2015-01-01 00:09:16.680, 1.01, -0.108, -0.101, -0.061, -0.122, 0, -132.188, -81.832, -86.534, -25.540, -7.313, -5.740, 25.44, 0.18823, 0.68457, -0.28098, 0.64563,
 12:22:48.805,e3:ca:2d:fd:e0:8c, 2015-01-01 00:09:16.680, 1.01, -0.109, -0.099, -0.061, 0, 0, -132.193, -81.826, -86.523, -25.540, -7.313, -5.740, 25.44, 0.18823, 0.68457, -0.28098, 0.64563,
 12:22:48.809,f6:90:cc:01:6d:25, 2015-01-01 00:09:15.080, 0.984, -0.039, 0.054, 0.244, 0, 0.122, -35.634, -86.138, -144.575, -31.373, -10.340, -1.373, 29.29, 0.01257, -0.68729, 0.01511, -0.72604,
 12:22:48.809,f6:90:cc:01:6d:25, 2015-01-01 00:09:15.080, 0.985, -0.037, 0.054, 0.244, -0.061, 0.122, -35.667, -86.133, -144.509, -31.373, -10.340, -1.373, 29.29, 0.01257, -0.68729, 0.01511, -0.72604,
 12:22:48.828,ed:40:fe:65:30:6c, 2015-01-01 00:09:15.725, 0.845, 0.031, 0.536, -0.122, 0, 0.183, 3.049, -57.64, -127.546, -25.900, -10.567, 0.140, 25.78, 0.39795, -0.42252, -0.23395, -0.77991,
 12:22:48.828,ed:40:fe:65:30:6c, 2015-01-01 00:09:15.725, 0.846, 0.032, 0.534, 0.122, 0, 0.488, 3.043, -57.64, -127.551, -25.900, -10.567, 0.140, 25.78, 0.39795, -0.42252, -0.23395, -0.77991,
 12:22:48.829,ed:35:33:d3:6c:f8, 2015-01-01 00:09:16.055, 0.876, -0.074, 0.46, 0.305, 0.305, 0.305, -9.196, -61.908, 153.6, -24.107, -7.947, -20.800, 31.46, 0.2348, 0.48395, -0.18369, 0.82266,
 12:22:48.829,ed:35:33:d3:6c:f8, 2015-01-01 00:09:16.055, 0.877, -0.079, 0.459, 0.122, 0.366, 0, -9.19, -61.902, 153.611, -24.107, -7.947, -20.800, 31.46, 0.2348, 0.48395, -0.18369, 0.82266,
 12:22:48.851,ed:40:fe:65:30:6c, 2015-01-01 00:09:15.725, 0.845, 0.034, 0.536, 0.305, 0.061, 0.488, 3.043, -57.64, -127.562, -25.267, -10.553, -0.087, 25.78, 0.39795, -0.42252, -0.23395, -0.77991,
 12:22:48.851,ed:40:fe:65:30:6c, 2015-01-01 00:09:15.725, 0.848, 0.032, 0.536, 0.122, 0.244, 0.244, 3.043, -57.634, -127.568, -25.267, -10.553, -0.087, 25.78, 0.39795, -0.42252, -0.23395, -0.77991,
 12:22:48.854,f6:90:cc:01:6d:25, 2015-01-01 00:09:15.080, 0.985, -0.038, 0.055, 0.183, 0, 0, -35.695, -86.133, -144.448, -31.373, -10.340, -1.373, 29.29, 0.01257, -0.68729, 0.01511, -0.72604,
 12:22:48.854,f6:90:cc:01:6d:25, 2015-01-01 00:09:15.080, 0.986, -0.04, 0.057, 0, 0.122, 0, -35.689, -86.133, -144.421, -31.373, -10.340, -1.373, 29.29, 0.01257, -0.68729, 0.01511, -0.72604,
 12:22:48.872,e3:ca:2d:fd:e0:8c, 2015-01-01 00:09:16.680, 1.011, -0.108, -0.098, 0, 0, -0.061, -132.198, -81.826, -86.506, -25.540, -7.313, -5.740, 25.44, 0.18823, 0.68457, -0.28098, 0.64563,
 12:22:48.872,e3:ca:2d:fd:e0:8c, 2015-01-01 00:09:16.680, 1.01, -0.107, -0.097, 0, 0, 0, -132.198, -81.826, -86.495, -25.540, -7.313, -5.740, 25.44, 0.18823, 0.68457, -0.28098, 0.64563,
 12:22:48.874,ed:35:33:d3:6c:f8, 2015-01-01 00:09:16.055, 0.877, -0.077, 0.459, 0.183, 0.488, -0.366, -9.179, -61.897, 153.6, -24.107, -7.947, -20.800, 31.46, 0.2348, 0.48395, -0.18369, 0.82266,
 12:22:48.874,ed:35:33:d3:6c:f8, 2015-01-01 00:09:16.055, 0.876, -0.075, 0.46, 0.244, 0.61, -0.488, -9.157, -61.886, 153.572, -24.107, -7.947, -20.800, 31.46, 0.2348, 0.48395, -0.18369, 0.82266,
 12:22:48.896,e3:ca:2d:fd:e0:8c, 2015-01-01 00:09:16.680, 1.01, -0.108, -0.096, 0.061, -0.061, 0, -132.204, -81.826, -86.479, -25.400, -7.100, -4.867, 25.44, 0.18823, 0.68457, -0.28098, 0.64563,
 12:22:48.896,e3:ca:2d:fd:e0:8c, 2015-01-01 00:09:16.680, 1.01, -0.109, -0.096, 0, 0, 0, -132.204, -81.826, -86.473, -25.400, -7.100, -4.867, 25.44, 0.18823, 0.68457, -0.28098, 0.64563,
 12:22:48.896,ed:40:fe:65:30:6c, 2015-01-01 00:09:15.725, 0.848, 0.029, 0.536, 0, 0.183, -0.061, 3.049, -57.629, -127.584, -25.267, -10.553, -0.087, 25.78, 0.39795, -0.42252, -0.23395, -0.77991,
 12:22:48.896,ed:40:fe:65:30:6c, 2015-01-01 00:09:15.725, 0.848, 0.031, 0.537, 0, 0.305, -0.305, 3.065, -57.623, -127.623, -25.267, -10.553, -0.087, 25.78, 0.39795, -0.42252, -0.23395, -0.77991,
 12:22:48.898,f6:90:cc:01:6d:25, 2015-01-01 00:09:15.370, 0.984, -0.041, 0.054, -0.061, 0.244, 0, -35.662, -86.133, -144.415, -31.373, -10.340, -1.373, 29.29, 0.01257, -0.68729, 0.01511, -0.72604,
 12:22:48.898,f6:90:cc:01:6d:25, 2015-01-01 00:09:15.370, 0.986, -0.041, 0.055, 0, 0.366, 0, -35.618, -86.127, -144.432, -31.373, -10.340, -1.373, 29.29, 0.01257, -0.68729, 0.01511, -0.72604,
 12:22:48.919,ed:40:fe:65:30:6c, 2015-01-01 00:09:15.725, 0.847, 0.03, 0.536, 0.061, 0.427, -0.366, 3.082, -57.612, -127.656, -25.267, -10.553, -0.087, 25.78, 0.39801, -0.42191, -0.23358, -0.7803,
 12:22:48.919,ed:40:fe:65:30:6c, 2015-01-01 00:09:15.725, 0.847, 0.034, 0.537, 0, 0.549, -0.244, 3.093, -57.601, -127.689, -25.267, -10.553, -0.087, 25.78, 0.39801, -0.42191, -0.23358, -0.7803,
 12:22:48.920,ed:35:33:d3:6c:f8, 2015-01-01 00:09:16.055, 0.877, -0.073, 0.46, 0.183, 0.732, -0.488, -9.135, -61.88, 153.55, -24.107, -7.947, -20.800, 31.46, 0.2348, 0.48395, -0.18369, 0.82266,
 12:22:48.920,ed:35:33:d3:6c:f8, 2015-01-01 00:09:16.055, 0.877, -0.069, 0.461, 0.061, 0.732, -0.366, -9.108, -61.864, 153.523, -24.107, -7.947, -20.800, 31.46, 0.2348, 0.48395, -0.18369, 0.82266,
 12:22:48.940,e3:ca:2d:fd:e0:8c, 2015-01-01 00:09:16.680, 1.011, -0.109, -0.096, -0.061, 0.061, -0.061, -132.198, -81.826, -86.462, -25.400, -7.100, -4.867, 25.44, 0.18823, 0.68457, -0.28098, 0.64563,
 12:22:48.940,e3:ca:2d:fd:e0:8c, 2015-01-01 00:09:16.680, 1.01, -0.11, -0.097, -0.122, 0.122, -0.122, -132.193, -81.826, -86.451, -25.400, -7.100, -4.867, 25.44, 0.18823, 0.68457, -0.28098, 0.64563,
 12:22:48.943,f6:90:cc:01:6d:25, 2015-01-01 00:09:15.370, 0.985, -0.041, 0.054, 0, 0.549, 0, -35.552, -86.116, -144.47, -31.373, -10.340, -1.373, 29.29, 0.01257, -0.68729, 0.01511, -0.72604,
 12:22:48.943,f6:90:cc:01:6d:25, 2015-01-01 00:09:15.370, 0.984, -0.041, 0.055, 0.061, 0.488, 0, -35.469, -86.111, -144.531, -31.373, -10.340, -1.373, 29.29, 0.01257, -0.68729, 0.01511, -0.72604,
 12:22:48.962,e3:ca:2d:fd:e0:8c, 2015-01-01 00:09:16.680, 1.011, -0.11, -0.098, -0.122, 0.061, 0, -132.193, -81.826, -86.44, -25.400, -7.100, -4.867, 25.44, 0.18698, 0.68512, -0.27979, 0.64597,
 12:22:48.962,e3:ca:2d:fd:e0:8c, 2015-01-01 00:09:16.680, 1.01, -0.11, -0.1, -0.183, -0.061, 0, -132.198, -81.826, -86.429, -25.400, -7.100, -4.867, 25.44, 0.18698, 0.68512, -0.27979, 0.64597,
 12:22:48.963,ed:40:fe:65:30:6c, 2015-01-01 00:09:15.725, 0.846, 0.037, 0.539, -0.122, 0.61, -0.183, 3.098, -57.59, -127.711, -25.267, -10.553, -0.087, 25.78, 0.39801, -0.42191, -0.23358, -0.7803,
 12:22:48.963,ed:40:fe:65:30:6c, 2015-01-01 00:09:15.725, 0.844, 0.036, 0.539, -0.244, 0.671, 0, 3.098, -57.574, -127.722, -25.267, -10.553, -0.087, 25.78, 0.39801, -0.42191, -0.23358, -0.7803,
 12:22:48.966,f6:90:cc:01:6d:25, 2015-01-01 00:09:15.370, 0.983, -0.042, 0.053, 0.122, 0.427, 0, -35.398, -86.1, -144.586, -31.373, -10.340, -1.373, 29.29, 0.01257, -0.68729, 0.01511, -0.72604,
 12:22:48.966,f6:90:cc:01:6d:25, 2015-01-01 00:09:15.370, 0.983, -0.039, 0.051, 0.122, 0.244, 0, -35.349, -86.094, -144.613, -31.373, -10.340, -1.373, 29.29, 0.01257, -0.68729, 0.01511, -0.72604,
 12:22:48.987,ed:35:33:d3:6c:f8, 2015-01-01 00:09:16.055, 0.875, -0.067, 0.464, 0, 0.732, -0.183, -9.091, -61.853, 153.501, -24.107, -7.527, -20.347, 31.46, 0.2348, 0.48395, -0.18369, 0.82266,
 12:22:48.987,ed:35:33:d3:6c:f8, 2015-01-01 00:09:16.055, 0.875, -0.067, 0.464, -0.122, 0.793, 0, -9.08, -61.842, 153.49, -24.107, -7.527, -20.347, 31.46, 0.2348, 0.48395, -0.18369, 0.82266,
 12:22:49.008,e3:ca:2d:fd:e0:8c, 2015-01-01 00:09:16.680, 1.011, -0.109, -0.101, -0.305, 0, 0, -132.204, -81.826, -86.418, -25.400, -7.100, -4.867, 25.44, 0.18698, 0.68512, -0.27979, 0.64597,
 12:22:49.008,e3:ca:2d:fd:e0:8c, 2015-01-01 00:09:16.680, 1.012, -0.109, -0.1, -0.427, 0.183, 0, -132.193, -81.826, -86.429, -25.400, -7.100, -4.867, 25.44, 0.18698, 0.68512, -0.27979, 0.64597,
 12:22:49.009,ed:40:fe:65:30:6c, 2015-01-01 00:09:16.060, 0.845, 0.035, 0.54, -0.305, 0.549, 0.305, 3.087, -57.563, -127.727, -25.267, -10.553, -0.087, 25.78, 0.39801, -0.42191, -0.23358, -0.7803,
 12:22:49.009,ed:40:fe:65:30:6c, 2015-01-01 00:09:16.060, 0.846, 0.033, 0.538, -0.183, 0.366, 0.427, 3.076, -57.557, -127.722, -25.267, -10.553, -0.087, 25.78, 0.39801, -0.42191, -0.23358, -0.7803,
 12:22:49.010,ed:35:33:d3:6c:f8, 2015-01-01 00:09:16.055, 0.875, -0.07, 0.464, 0, 0.854, 0.244, -9.08, -61.826, 153.517, -24.107, -7.527, -20.347, 31.46, 0.23538, 0.48294, -0.18335, 0.82318,
 12:22:49.010,ed:35:33:d3:6c:f8, 2015-01-01 00:09:16.055, 0.877, -0.075, 0.463, 0, 0.671, 0.305, -9.08, -61.809, 153.556, -24.107, -7.527, -20.347, 31.46, 0.23538, 0.48294, -0.18335, 0.82318,
 12:22:49.011,f6:90:cc:01:6d:25, 2015-01-01 00:09:15.370, 0.985, -0.041, 0.052, 0.183, 0.183, 0, -35.327, -86.089, -144.619, -31.373, -10.340, -1.373, 29.29, 0.01257, -0.68729, 0.01511, -0.72604,
 12:22:49.011,f6:90:cc:01:6d:25, 2015-01-01 00:09:15.370, 0.985, -0.039, 0.055, 0, 0.183, 0, -35.316, -86.089, -144.619, -31.373, -10.340, -1.373, 29.29, 0.01257, -0.68729, 0.01511, -0.72604,
 12:22:49.031,ed:40:fe:65:30:6c, 2015-01-01 00:09:16.060, 0.847, 0.031, 0.538, -0.061, 0.244, 0.305, 3.071, -57.552, -127.727, -25.267, -10.553, -0.087, 25.78, 0.39801, -0.42191, -0.23358, -0.7803,
 12:22:49.031,ed:40:fe:65:30:6c, 2015-01-01 00:09:16.060, 0.846, 0.033, 0.538, -0.122, 0.244, 0.122, 3.071, -57.546, -127.749, -25.267, -10.553, -0.087, 25.78, 0.39801, -0.42191, -0.23358, -0.7803,
 12:22:49.055,ed:35:33:d3:6c:f8, 2015-01-01 00:09:16.055, 0.877, -0.074, 0.461, 0, 0.671, 0.122, -9.08, -61.798, 153.611, -24.107, -7.527, -20.347, 31.46, 0.23538, 0.48294, -0.18335, 0.82318,
 12:22:49.055,ed:35:33:d3:6c:f8, 2015-01-01 00:09:16.055, 0.876, -0.072, 0.463, -0.183, 0.61, 0, -9.08, -61.787, 153.649, -24.107, -7.527, -20.347, 31.46, 0.23538, 0.48294, -0.18335, 0.82318,
 12:22:49.056,f6:90:cc:01:6d:25, 2015-01-01 00:09:15.370, 0.985, -0.036, 0.053, 0, 0.244, 0, -35.294, -86.083, -144.63, -31.373, -10.340, -1.373, 29.29, 0.01257, -0.68729, 0.01511, -0.72604,
 12:22:49.056,f6:90:cc:01:6d:25, 2015-01-01 00:09:15.370, 0.983, -0.037, 0.054, -0.061, 0.183, 0, -35.272, -86.083, -144.635, -31.373, -10.340, -1.373, 29.29, 0.01257, -0.68729, 0.01511, -0.72604,
 12:22:49.075,ed:40:fe:65:30:6c, 2015-01-01 00:09:16.060, 0.845, 0.036, 0.538, -0.122, 0.305, 0, 3.071, -57.541, -127.782, -25.267, -10.553, -0.087, 25.78, 0.39801, -0.42191, -0.23358, -0.7803,
 12:22:49.075,ed:40:fe:65:30:6c, 2015-01-01 00:09:16.060, 0.844, 0.035, 0.537, -0.183, 0.244, -0.061, 3.076, -57.535, -127.804, -25.267, -10.553, -0.087, 25.78, 0.39801, -0.42191, -0.23358, -0.7803,
 12:22:49.076,ed:35:33:d3:6c:f8, 2015-01-01 00:09:16.390, 0.874, -0.071, 0.462, -0.305, 0.427, -0.183, -9.075, -61.776, 153.66, -24.107, -7.527, -20.347, 31.46, 0.23538, 0.48294, -0.18335, 0.82318,
 12:22:49.076,ed:35:33:d3:6c:f8, 2015-01-01 00:09:16.390, 0.876, -0.069, 0.462, -0.366, 0.366, -0.183, -9.075, -61.771, 153.655, -24.107, -7.527, -20.347, 31.46, 0.23538, 0.48294, -0.18335, 0.82318,
 12:22:49.098,e3:ca:2d:fd:e0:8c, 2015-01-01 00:09:17.015, 1.012, -0.109, -0.1, -0.488, 0.061, 0, -132.193, -81.826, -86.424, -25.400, -7.100, -4.867, 25.44, 0.18698, 0.68512, -0.27979, 0.64597,
 12:22:49.098,e3:ca:2d:fd:e0:8c, 2015-01-01 00:09:17.015, 1.012, -0.108, -0.101, -0.427, -0.122, -0.305, -132.242, -81.826, -86.375, -25.400, -7.100, -4.867, 25.44, 0.18698, 0.68512, -0.27979, 0.64597,
 12:22:49.101,f6:90:cc:01:6d:25, 2015-01-01 00:09:15.370, 0.984, -0.038, 0.055, 0, 0.305, 0, -35.233, -86.078, -144.651, -31.500, -10.180, -1.713, 29.29, 0.01257, -0.68729, 0.01511, -0.72604,
 12:22:49.101,f6:90:cc:01:6d:25, 2015-01-01 00:09:15.370, 0.984, -0.038, 0.056, -0.122, 0.427, 0, -35.178, -86.072, -144.684, -31.500, -10.180, -1.713, 29.29, 0.01257, -0.68729, 0.01511, -0.72604,
 12:22:49.120,e3:ca:2d:fd:e0:8c, 2015-01-01 00:09:17.015, 1.01, -0.107, -0.099, -0.244, -0.061, -0.183, -132.275, -81.826, -86.342, -25.400, -7.100, -4.867, 25.44, 0.18698, 0.68512, -0.27979, 0.64597,
 12:22:49.120,e3:ca:2d:fd:e0:8c, 2015-01-01 00:09:17.015, 1.012, -0.107, -0.098, -0.244, 0, -0.122, -132.292, -81.826, -86.325, -25.400, -7.100, -4.867, 25.44, 0.18698, 0.68512, -0.27979, 0.64597,
 12:22:49.121,ed:40:fe:65:30:6c, 2015-01-01 00:09:16.060, 0.846, 0.036, 0.537, -0.305, 0.244, 0, 3.076, -57.53, -127.82, -25.267, -10.553, -0.087, 25.78, 0.39801, -0.42191, -0.23358, -0.7803,
 12:22:49.121,ed:40:fe:65:30:6c, 2015-01-01 00:09:16.060, 0.845, 0.034, 0.539, -0.122, 0.244, 0.061, 3.082, -57.524, -127.826, -25.267, -10.553, -0.087, 25.78, 0.39801, -0.42191, -0.23358, -0.7803,
 12:22:49.122,ed:35:33:d3:6c:f8, 2015-01-01 00:09:16.390, 0.875, -0.069, 0.462, -0.366, 0.305, 0, -9.069, -61.765, 153.644, -24.107, -7.527, -20.347, 31.46, 0.23538, 0.48294, -0.18335, 0.82318,
 12:22:49.122,ed:35:33:d3:6c:f8, 2015-01-01 00:09:16.390, 0.875, -0.073, 0.464, -0.183, 0.366, 0, -9.069, -61.76, 153.638, -24.107, -7.527, -20.347, 31.46, 0.23538, 0.48294, -0.18335, 0.82318,
 12:22:49.143,e3:ca:2d:fd:e0:8c, 2015-01-01 00:09:17.015, 1.01, -0.108, -0.098, -0.183, 0, -0.061, -132.308, -81.826, -86.303, -25.400, -7.100, -4.867, 25.44, 0.18698, 0.68512, -0.27979, 0.64597,
 12:22:49.143,e3:ca:2d:fd:e0:8c, 2015-01-01 00:09:17.015, 1.01, -0.109, -0.097, -0.122, 0, -0.061, -132.319, -81.826, -86.292, -25.400, -7.100, -4.867, 25.44, 0.18698, 0.68512, -0.27979, 0.64597,
 12:22:49.146,f6:90:cc:01:6d:25, 2015-01-01 00:09:15.370, 0.984, -0.039, 0.055, -0.061, 0.488, 0, -35.107, -86.067, -144.734, -31.500, -10.180, -1.713, 29.29, 0.01489, -0.68683, 0.01303, -0.72647,
 12:22:49.146,f6:90:cc:01:6d:25, 2015-01-01 00:09:15.370, 0.985, -0.04, 0.057, 0.061, 0.549, 0, -35.024, -86.056, -144.794, -31.500, -10.180, -1.713, 29.29, 0.01489, -0.68683, 0.01303, -0.72647,
 12:22:49.164,e3:ca:2d:fd:e0:8c, 2015-01-01 00:09:17.015, 1.01, -0.109, -0.098, -0.061, 0, -0.061, -132.325, -81.826, -86.276, -25.400, -7.100, -4.867, 25.44, 0.18698, 0.68512, -0.27979, 0.64597,
 12:22:49.164,e3:ca:2d:fd:e0:8c, 2015-01-01 00:09:17.015, 1.01, -0.108, -0.099, 0, 0, -0.061, -132.33, -81.826, -86.265, -25.400, -7.100, -4.867, 25.44, 0.18698, 0.68512, -0.27979, 0.64597,
 12:22:49.166,ed:40:fe:65:30:6c, 2015-01-01 00:09:16.060, 0.844, 0.034, 0.54, 0, 0.305, 0, 3.082, -57.519, -127.831, -25.267, -10.553, -0.087, 25.78, 0.39801, -0.42191, -0.23358, -0.7803,
 12:22:49.166,ed:40:fe:65:30:6c, 2015-01-01 00:09:16.060, 0.843, 0.034, 0.54, 0.061, 0.366, 0, 3.093, -57.508, -127.837, -25.267, -10.553, -0.087, 25.78, 0.39801, -0.42191, -0.23358, -0.7803,
 12:22:49.168,ed:35:33:d3:6c:f8, 2015-01-01 00:09:16.390, 0.875, -0.072, 0.463, -0.061, 0.183, 0, -9.069, -61.754, 153.66, -24.107, -7.527, -20.347, 31.46, 0.23538, 0.48294, -0.18335, 0.82318,
 12:22:49.168,ed:35:33:d3:6c:f8, 2015-01-01 00:09:16.390, 0.873, -0.072, 0.463, 0.244, 0.305, 0, -9.064, -61.754, 153.677, -24.107, -7.527, -20.347, 31.46, 0.23538, 0.48294, -0.18335, 0.82318,
 12:22:49.169,f6:90:cc:01:6d:25, 2015-01-01 00:09:15.685, 0.983, -0.039, 0.058, 0.061, 0.488, 0, -34.942, -86.05, -144.855, -31.500, -10.180, -1.713, 29.29, 0.01489, -0.68683, 0.01303, -0.72647,
 12:22:49.169,f6:90:cc:01:6d:25, 2015-01-01 00:09:15.685, 0.983, -0.038, 0.057, 0.122, 0.366, 0, -34.871, -86.045, -144.904, -31.500, -10.180, -1.713, 29.29, 0.01489, -0.68683, 0.01303, -0.72647,
 12:22:49.189,ed:35:33:d3:6c:f8, 2015-01-01 00:09:16.390, 0.873, -0.069, 0.465, 0.061, 0.305, 0, -9.053, -61.749, 153.699, -24.107, -7.527, -20.347, 31.46, 0.23538, 0.48294, -0.18335, 0.82318,
 12:22:49.189,ed:35:33:d3:6c:f8, 2015-01-01 00:09:16.390, 0.877, -0.066, 0.465, -0.122, 0.61, -0.183, -9.047, -61.743, 153.704, -24.107, -7.527, -20.347, 31.46, 0.23538, 0.48294, -0.18335, 0.82318,
 12:22:49.210,e3:ca:2d:fd:e0:8c, 2015-01-01 00:09:17.015, 1.01, -0.108, -0.098, 0, 0, 0, -132.336, -81.826, -86.248, -25.400, -7.100, -4.867, 25.44, 0.18698, 0.68512, -0.27979, 0.64597,
