Time,Device name,Chip Time(),Acceleration X(g),Acceleration Y(g),Acceleration Z(g),Angular velocity X(°/s),Angular velocity Y(°/s),Angular velocity Z(°/s),Angle X(°),Angle Y(°),Angle Z(°),Magnetic field X(ʯt),Magnetic field Y(ʯt),Magnetic field Z(ʯt),Temperature(℃),Quaternions 0(),Quaternions 1(),Quaternions 2(),Quaternions 3()
 16:07:12.395,e3:ca:2d:fd:e0:8c, 2015-01-01 01:19:48.810, 0.959, -0.215, -0.272, 0, -0.122, 0, -141.768, -70.021, -71.142, -28.200, -9.360, -3.060, 28.91, 0.09729, 0.73868, -0.29739, 0.59692,
 16:07:12.395,e3:ca:2d:fd:e0:8c, 2015-01-01 01:19:48.810, 0.959, -0.215, -0.272, -0.122, -0.122, 0, -141.773, -70.016, -71.136, -28.200, -9.360, -3.060, 28.91, 0.09729, 0.73868, -0.29739, 0.59692,
 16:07:12.398,f6:90:cc:01:6d:25, 2015-01-01 01:19:37.365, 0.94, 0.01, -0.301, 0, -0.122, 0, 178.308, -72.153, -6.021, -28.340, -16.893, 5.660, 32.41, -0.04303, -0.80643, 0.05136, -0.58743,
 16:07:12.398,f6:90:cc:01:6d:25, 2015-01-01 01:19:37.365, 0.94, 0.009, -0.302, 0, -0.061, 0, 178.308, -72.153, -6.01, -28.340, -16.893, 5.660, 32.41, -0.04303, -0.80643, 0.05136, -0.58743,
 16:07:12.418,ed:35:33:d3:6c:f8, 2015-01-01 01:19:39.505, 0.87, 0.01, 0.482, 0, 0.366, 0.061, 1.165, -60.71, 177.709, -21.147, -11.907, -11.453, 32.72, -0.0112, -0.50482, 0.00067, -0.8631,
 16:07:12.418,ed:35:33:d3:6c:f8, 2015-01-01 01:19:39.505, 0.869, 0.011, 0.484, -0.244, 0.427, 0, 1.159, -60.705, 177.72, -21.147, -11.907, -11.453, 32.72, -0.0112, -0.50482, 0.00067, -0.8631,
 16:07:12.418,e3:ca:2d:fd:e0:8c, 2015-01-01 01:19:48.810, 0.96, -0.215, -0.272, -0.061, -0.122, 0, -141.779, -70.016, -71.131, -28.200, -9.360, -3.060, 28.91, 0.09729, 0.73868, -0.29739, 0.59692,
 16:07:12.419,e3:ca:2d:fd:e0:8c, 2015-01-01 01:19:48.810, 0.96, -0.216, -0.273, -0.122, -0.061, 0, -141.784, -70.016, -71.131, -28.200, -9.360, -3.060, 28.91, 0.09729, 0.73868, -0.29739, 0.59692,
 16:07:12.419,ed:40:fe:65:30:6c, 2015-01-01 01:19:27.530, 0.885, 0.001, 0.476, 0.183, 0.061, 0.183, 0.104, -61.848, -126.227, -27.273, -11.713, 3.733, 27.77, 0.38971, -0.45721, -0.23376, -0.7644,
 16:07:12.419,ed:40:fe:65:30:6c, 2015-01-01 01:19:27.530, 0.887, 0.001, 0.473, 0.122, 0.488, 0.061, 0.104, -61.842, -126.238, -27.273, -11.713, 3.733, 27.77, 0.38971, -0.45721, -0.23376, -0.7644,
 16:07:12.440,ed:40:fe:65:30:6c, 2015-01-01 01:19:27.530, 0.886, 0.001, 0.474, -0.122, 0.488, 0, 0.104, -61.831, -126.249, -27.273, -11.713, 3.733, 27.77, 0.38821, -0.45792, -0.23294, -0.76501,
 16:07:12.440,ed:40:fe:65:30:6c, 2015-01-01 01:19:27.530, 0.887, 0.001, 0.475, -0.122, 0.488, 0, 0.099, -61.82, -126.26, -27.273, -11.713, 3.733, 27.77, 0.38821, -0.45792, -0.23294, -0.76501,
 16:07:12.441,ed:35:33:d3:6c:f8, 2015-01-01 01:19:39.505, 0.871, 0.012, 0.485, -0.061, 0.366, 0, 1.159, -60.699, 177.726, -21.147, -11.907, -11.453, 32.72, -0.0112, -0.50482, 0.00067, -0.8631,
 16:07:12.441,ed:35:33:d3:6c:f8, 2015-01-01 01:19:39.505, 0.87, 0.011, 0.485, 0.183, 0.183, 0.183, 1.159, -60.694, 177.753, -21.147, -11.907, -11.453, 32.72, -0.0112, -0.50482, 0.00067, -0.8631,
 16:07:12.442,f6:90:cc:01:6d:25, 2015-01-01 01:19:37.365, 0.94, 0.009, -0.302, 0, -0.061, 0, 178.308, -72.153, -5.999, -28.340, -16.893, 5.660, 32.41, -0.04303, -0.80643, 0.05136, -0.58743,
 16:07:12.442,f6:90:cc:01:6d:25, 2015-01-01 01:19:37.365, 0.94, 0.009, -0.303, 0.061, 0, 0, 178.308, -72.153, -5.993, -28.340, -16.893, 5.660, 32.41, -0.04303, -0.80643, 0.05136, -0.58743,
 16:07:12.461,ed:40:fe:65:30:6c, 2015-01-01 01:19:27.530, 0.887, 0, 0.476, 0, 0.366, 0.061, 0.099, -61.809, -126.266, -27.273, -11.713, 3.733, 27.77, 0.38821, -0.45792, -0.23294, -0.76501,
 16:07:12.461,ed:40:fe:65:30:6c, 2015-01-01 01:19:27.530, 0.886, 0, 0.475, 0.183, 0.122, 0.183, 0.093, -61.809, -126.271, -27.273, -11.713, 3.733, 27.77, 0.38821, -0.45792, -0.23294, -0.76501,
 16:07:12.463,e3:ca:2d:fd:e0:8c, 2015-01-01 01:19:48.810, 0.96, -0.216, -0.274, -0.061, 0, 0, -141.784, -70.016, -71.131, -28.200, -9.360, -3.060, 28.91, 0.09729, 0.73868, -0.29739, 0.59692,
 16:07:12.463,e3:ca:2d:fd:e0:8c, 2015-01-01 01:19:48.810, 0.96, -0.216, -0.273, -0.061, 0, 0, -141.784, -70.016, -71.131, -28.200, -9.360, -3.060, 28.91, 0.09729, 0.73868, -0.29739, 0.59692,
 16:07:12.489,f6:90:cc:01:6d:25, 2015-01-01 01:19:37.365, 0.94, 0.009, -0.303, 0.061, 0, 0, 178.308, -72.153, -5.982, -28.340, -16.893, 5.660, 32.41, -0.04303, -0.80643, 0.05136, -0.58743,
 16:07:12.489,f6:90:cc:01:6d:25, 2015-01-01 01:19:37.365, 0.939, 0.008, -0.303, 0.061, 0, 0, 178.308, -72.153, -5.977, -28.340, -16.893, 5.660, 32.41, -0.04303, -0.80643, 0.05136, -0.58743,
 16:07:12.507,ed:40:fe:65:30:6c, 2015-01-01 01:19:27.530, 0.885, 0.001, 0.476, -0.305, 0.061, 0, 0.088, -61.809, -126.282, -27.273, -11.713, 3.733, 27.77, 0.38821, -0.45792, -0.23294, -0.76501,
 16:07:12.507,ed:40:fe:65:30:6c, 2015-01-01 01:19:27.530, 0.886, 0, 0.473, -0.244, 0.061, -0.061, 0.088, -61.804, -126.293, -27.273, -11.713, 3.733, 27.77, 0.38821, -0.45792, -0.23294, -0.76501,
 16:07:12.509,ed:35:33:d3:6c:f8, 2015-01-01 01:19:39.505, 0.87, 0.009, 0.485, -0.061, 0.366, 0.122, 1.154, -60.688, 177.781, -21.147, -11.907, -11.453, 32.72, -0.0112, -0.50482, 0.00067, -0.8631,
 16:07:12.509,ed:35:33:d3:6c:f8, 2015-01-01 01:19:39.505, 0.868, 0.01, 0.486, -0.366, 0.488, -0.122, 1.148, -60.683, 177.803, -21.147, -11.907, -11.453, 32.72, -0.0112, -0.50482, 0.00067, -0.8631,
 16:07:12.532,ed:35:33:d3:6c:f8, 2015-01-01 01:19:39.505, 0.87, 0.011, 0.482, -0.244, 0.671, -0.183, 1.148, -60.672, 177.803, -20.687, -11.780, -11.560, 32.72, -0.0112, -0.50482, 0.00067, -0.8631,
 16:07:12.532,ed:35:33:d3:6c:f8, 2015-01-01 01:19:39.505, 0.867, 0.011, 0.484, -0.122, 0.61, 0, 1.148, -60.661, 177.803, -20.687, -11.780, -11.560, 32.72, -0.0112, -0.50482, 0.00067, -0.8631,
 16:07:12.533,f6:90:cc:01:6d:25, 2015-01-01 01:19:37.365, 0.94, 0.01, -0.302, 0, 0.061, 0, 178.308, -72.153, -5.966, -28.340, -16.893, 5.660, 32.41, -0.04303, -0.80643, 0.05136, -0.58743,
 16:07:12.533,f6:90:cc:01:6d:25, 2015-01-01 01:19:37.365, 0.94, 0.009, -0.303, 0, 0.122, 0, 178.308, -72.153, -5.96, -28.340, -16.893, 5.660, 32.41, -0.04303, -0.80643, 0.05136, -0.58743,
 16:07:12.552,ed:40:fe:65:30:6c, 2015-01-01 01:19:27.930, 0.884, 0.001, 0.474, -0.122, 0.183, 0, 0.082, -61.804, -126.304, -27.273, -11.713, 3.733, 27.77, 0.38821, -0.45792, -0.23294, -0.76501,
 16:07:12.552,ed:40:fe:65:30:6c, 2015-01-01 01:19:27.930, 0.884, 0, 0.476, -0.183, 0.183, 0.061, 0.077, -61.798, -126.315, -27.273, -11.713, 3.733, 27.77, 0.38821, -0.45792, -0.23294, -0.76501,
 16:07:12.553,e3:ca:2d:fd:e0:8c, 2015-01-01 01:19:48.810, 0.96, -0.216, -0.273, -0.122, 0, 0, -141.784, -70.016, -71.131, -28.200, -9.360, -3.060, 28.91, 0.09729, 0.73868, -0.29739, 0.59692,
 16:07:12.553,e3:ca:2d:fd:e0:8c, 2015-01-01 01:19:48.810, 0.96, -0.216, -0.273, -0.122, 0, 0, -141.784, -70.016, -71.131, -28.200, -9.360, -3.060, 28.91, 0.09729, 0.73868, -0.29739, 0.59692,
 16:07:12.555,f6:90:cc:01:6d:25, 2015-01-01 01:19:37.365, 0.939, 0.009, -0.302, 0, 0.122, 0, 178.308, -72.158, -5.949, -28.487, -16.560, 6.220, 32.41, -0.04303, -0.80643, 0.05136, -0.58743,
 16:07:12.555,f6:90:cc:01:6d:25, 2015-01-01 01:19:37.365, 0.939, 0.009, -0.302, 0, 0.061, 0, 178.308, -72.158, -5.944, -28.487, -16.560, 6.220, 32.41, -0.04303, -0.80643, 0.05136, -0.58743,
 16:07:12.576,e3:ca:2d:fd:e0:8c, 2015-01-01 01:19:48.810, 0.96, -0.216, -0.273, -0.061, 0, 0, -141.784, -70.016, -71.131, -28.460, -8.580, -2.527, 28.91, 0.09729, 0.73868, -0.29739, 0.59692,
 16:07:12.576,e3:ca:2d:fd:e0:8c, 2015-01-01 01:19:48.810, 0.959, -0.216, -0.274, -0.183, 0.061, 0, -141.784, -70.016, -71.136, -28.460, -8.580, -2.527, 28.91, 0.09729, 0.73868, -0.29739, 0.59692,
 16:07:12.578,ed:35:33:d3:6c:f8, 2015-01-01 01:19:39.505, 0.867, 0.009, 0.485, -0.244, 0.549, 0.061, 1.148, -60.656, 177.797, -20.687, -11.780, -11.560, 32.72, -0.0112, -0.50482, 0.00067, -0.8631,
 16:07:12.578,ed:35:33:d3:6c:f8, 2015-01-01 01:19:39.505, 0.866, 0.01, 0.485, -0.244, 0.488, 0, 1.143, -60.645, 177.819, -20.687, -11.780, -11.560, 32.72, -0.0112, -0.50482, 0.00067, -0.8631,
 16:07:12.598,ed:40:fe:65:30:6c, 2015-01-01 01:19:27.930, 0.883, 0, 0.476, -0.244, 0.366, 0.061, 0.071, -61.793, -126.321, -27.273, -11.713, 3.733, 27.77, 0.38821, -0.45792, -0.23294, -0.76501,
 16:07:12.598,ed:40:fe:65:30:6c, 2015-01-01 01:19:27.930, 0.884, 0, 0.476, -0.122, 0.488, 0, 0.071, -61.782, -126.332, -27.273, -11.713, 3.733, 27.77, 0.38821, -0.45792, -0.23294, -0.76501,
 16:07:12.598,e3:ca:2d:fd:e0:8c, 2015-01-01 01:19:48.810, 0.96, -0.216, -0.274, -0.122, 0.061, 0, -141.784, -70.021, -71.136, -28.460, -8.580, -2.527, 28.91, 0.09729, 0.73868, -0.29739, 0.59692,
 16:07:12.598,e3:ca:2d:fd:e0:8c, 2015-01-01 01:19:48.810, 0.959, -0.216, -0.274, -0.061, 0, 0, -141.784, -70.021, -71.136, -28.460, -8.580, -2.527, 28.91, 0.09729, 0.73868, -0.29739, 0.59692,
 16:07:12.601,f6:90:cc:01:6d:25, 2015-01-01 01:19:37.365, 0.94, 0.009, -0.302, 0.061, 0.122, 0, 178.308, -72.158, -5.933, -28.487, -16.560, 6.220, 32.41, -0.04303, -0.80643, 0.05136, -0.58743,
 16:07:12.601,f6:90:cc:01:6d:25, 2015-01-01 01:19:37.365, 0.94, 0.009, -0.302, 0.061, 0.061, 0, 178.308, -72.164, -5.927, -28.487, -16.560, 6.220, 32.41, -0.04303, -0.80643, 0.05136, -0.58743,
 16:07:12.644,e3:ca:2d:fd:e0:8c, 2015-01-01 01:19:48.810, 0.96, -0.216, -0.274, -0.122, 0, 0, -141.784, -70.021, -71.136, -28.460, -8.580, -2.527, 28.91, 0.09729, 0.73868, -0.29739, 0.59692,
 16:07:12.644,e3:ca:2d:fd:e0:8c, 2015-01-01 01:19:48.810, 0.96, -0.216, -0.274, -0.061, 0, 0, -141.79, -70.021, -71.136, -28.460, -8.580, -2.527, 28.91, 0.09729, 0.73868, -0.29739, 0.59692,
 16:07:12.645,f6:90:cc:01:6d:25, 2015-01-01 01:19:37.365, 0.94, 0.009, -0.304, 0.061, 0, 0, 178.308, -72.164, -5.916, -28.487, -16.560, 6.220, 32.41, -0.04236, -0.80652, 0.05048, -0.58743,
 16:07:12.645,f6:90:cc:01:6d:25, 2015-01-01 01:19:37.365, 0.94, 0.008, -0.304, 0, 0.061, 0, 178.308, -72.164, -5.911, -28.487, -16.560, 6.220, 32.41, -0.04236, -0.80652, 0.05048, -0.58743,
 16:07:12.665,ed:40:fe:65:30:6c, 2015-01-01 01:19:27.930, 0.886, 0.001, 0.476, -0.122, 0.732, 0, 0.066, -61.765, -126.343, -27.273, -11.713, 3.733, 27.77, 0.38821, -0.45792, -0.23294, -0.76501,
 16:07:12.665,ed:40:fe:65:30:6c, 2015-01-01 01:19:27.930, 0.887, 0, 0.476, -0.122, 0.732, 0, 0.066, -61.749, -126.348, -27.273, -11.713, 3.733, 27.77, 0.38821, -0.45792, -0.23294, -0.76501,
 16:07:12.665,e3:ca:2d:fd:e0:8c, 2015-01-01 01:19:48.810, 0.96, -0.216, -0.274, 0, 0, 0, -141.784, -70.021, -71.136, -28.460, -8.580, -2.527, 28.91, 0.09729, 0.73871, -0.29742, 0.59689,
 16:07:12.665,e3:ca:2d:fd:e0:8c, 2015-01-01 01:19:48.810, 0.96, -0.216, -0.274, 0, 0, 0, -141.784, -70.021, -71.136, -28.460, -8.580, -2.527, 28.91, 0.09729, 0.73871, -0.29742, 0.59689,
 16:07:12.666,ed:35:33:d3:6c:f8, 2015-01-01 01:19:39.505, 0.868, 0.011, 0.485, -0.183, 0.61, 0, 1.137, -60.639, 177.836, -20.687, -11.780, -11.560, 32.72, -0.01132, -0.50491, 0.00095, -0.86304,
 16:07:12.666,ed:35:33:d3:6c:f8, 2015-01-01 01:19:39.505, 0.869, 0.01, 0.485, -0.183, 0.671, 0, 1.137, -60.628, 177.852, -20.687, -11.780, -11.560, 32.72, -0.01132, -0.50491, 0.00095, -0.86304,
 16:07:12.688,ed:40:fe:65:30:6c, 2015-01-01 01:19:27.930, 0.886, 0, 0.476, -0.122, 0.549, 0, 0.06, -61.738, -126.359, -27.273, -11.713, 3.733, 27.77, 0.38821, -0.45792, -0.23294, -0.76501,
 16:07:12.688,ed:40:fe:65:30:6c, 2015-01-01 01:19:27.930, 0.887, 0, 0.476, 0, 0.366, 0.061, 0.06, -61.732, -126.37, -27.273, -11.713, 3.733, 27.77, 0.38821, -0.45792, -0.23294, -0.76501,
 16:07:12.689,ed:35:33:d3:6c:f8, 2015-01-01 01:19:39.885, 0.87, 0.01, 0.487, -0.183, 0.732, 0, 1.132, -60.612, 177.852, -20.687, -11.780, -11.560, 32.72, -0.01132, -0.50491, 0.00095, -0.86304,
 16:07:12.689,ed:35:33:d3:6c:f8, 2015-01-01 01:19:39.885, 0.869, 0.01, 0.486, -0.061, 0.549, 0, 1.132, -60.601, 177.847, -20.687, -11.780, -11.560, 32.72, -0.01132, -0.50491, 0.00095, -0.86304,
 16:07:12.690,f6:90:cc:01:6d:25, 2015-01-01 01:19:37.675, 0.94, 0.009, -0.303, 0.061, 0.061, 0, 178.308, -72.164, -5.9, -28.487, -16.560, 6.220, 32.41, -0.04236, -0.80652, 0.05048, -0.58743,
 16:07:12.690,f6:90:cc:01:6d:25, 2015-01-01 01:19:37.675, 0.94, 0.009, -0.302, 0.061, 0.061, 0, 178.308, -72.164, -5.894, -28.487, -16.560, 6.220, 32.41, -0.04236, -0.80652, 0.05048, -0.58743,
 16:07:12.711,e3:ca:2d:fd:e0:8c, 2015-01-01 01:19:48.810, 0.959, -0.216, -0.273, -0.061, 0.061, 0, -141.784, -70.021, -71.142, -28.460, -8.580, -2.527, 28.91, 0.09729, 0.73871, -0.29742, 0.59689,
 16:07:12.711,e3:ca:2d:fd:e0:8c, 2015-01-01 01:19:48.810, 0.96, -0.216, -0.273, -0.061, 0.122, 0, -141.779, -70.021, -71.142, -28.460, -8.580, -2.527, 28.91, 0.09729, 0.73871, -0.29742, 0.59689,
 16:07:12.712,ed:35:33:d3:6c:f8, 2015-01-01 01:19:39.885, 0.869, 0.01, 0.485, 0, 0.427, 0.122, 1.132, -60.595, 177.836, -20.687, -11.780, -11.560, 32.72, -0.01132, -0.50491, 0.00095, -0.86304,
 16:07:12.712,ed:35:33:d3:6c:f8, 2015-01-01 01:19:39.885, 0.868, 0.01, 0.486, 0.061, 0.488, 0.122, 1.126, -60.59, 177.83, -20.687, -11.780, -11.560, 32.72, -0.01132, -0.50491, 0.00095, -0.86304,
 16:07:12.732,ed:40:fe:65:30:6c, 2015-01-01 01:19:27.930, 0.886, 0, 0.476, 0.061, 0.305, 0.122, 0.055, -61.727, -126.37, -27.273, -11.713, 3.733, 27.77, 0.38821, -0.45792, -0.23294, -0.76501,
 16:07:12.732,ed:40:fe:65:30:6c, 2015-01-01 01:19:27.930, 0.884, 0, 0.476, 0.061, 0.244, 0.122, 0.055, -61.721, -126.376, -27.273, -11.713, 3.733, 27.77, 0.38821, -0.45792, -0.23294, -0.76501,
 16:07:12.734,ed:35:33:d3:6c:f8, 2015-01-01 01:19:39.885, 0.867, 0.01, 0.487, 0.061, 0.488, 0.183, 1.121, -60.584, 177.825, -20.687, -11.780, -11.560, 32.72, -0.01132, -0.50491, 0.00095, -0.86304,
 16:07:12.734,ed:35:33:d3:6c:f8, 2015-01-01 01:19:39.885, 0.866, 0.009, 0.488, 0.061, 0.488, 0.183, 1.121, -60.573, 177.825, -20.687, -11.780, -11.560, 32.72, -0.01132, -0.50491, 0.00095, -0.86304,
 16:07:12.736,f6:90:cc:01:6d:25, 2015-01-01 01:19:37.675, 0.94, 0.008, -0.301, 0, 0.061, 0, 178.308, -72.164, -5.883, -28.487, -16.560, 6.220, 32.41, -0.04236, -0.80652, 0.05048, -0.58743,
 16:07:12.736,f6:90:cc:01:6d:25, 2015-01-01 01:19:37.675, 0.939, 0.008, -0.302, 0, 0.061, 0, 178.308, -72.164, -5.878, -28.487, -16.560, 6.220, 32.41, -0.04236, -0.80652, 0.05048, -0.58743,
 16:07:12.754,ed:40:fe:65:30:6c, 2015-01-01 01:19:27.930, 0.884, 0, 0.477, 0, 0.183, 0.122, 0.049, -61.721, -126.381, -26.927, -11.640, 3.760, 27.77, 0.38821, -0.45792, -0.23294, -0.76501,
 16:07:12.754,ed:40:fe:65:30:6c, 2015-01-01 01:19:27.930, 0.882, -0.001, 0.478, 0.061, 0.244, 0.122, 0.044, -61.716, -126.387, -26.927, -11.640, 3.760, 27.77, 0.38821, -0.45792, -0.23294, -0.76501,
 16:07:12.755,e3:ca:2d:fd:e0:8c, 2015-01-01 01:19:49.260, 0.96, -0.216, -0.273, -0.061, 0.061, 0, -141.779, -70.021, -71.147, -28.460, -8.580, -2.527, 28.91, 0.09729, 0.73871, -0.29742, 0.59689,
 16:07:12.755,e3:ca:2d:fd:e0:8c, 2015-01-01 01:19:49.260, 0.959, -0.217, -0.273, -0.061, 0.061, 0, -141.779, -70.027, -71.147, -28.460, -8.580, -2.527, 28.91, 0.09729, 0.73871, -0.29742, 0.59689,
 16:07:12.757,f6:90:cc:01:6d:25, 2015-01-01 01:19:37.675, 0.939, 0.008, -0.302, 0.122, 0.122, 0, 178.308, -72.169, -5.872, -28.487, -16.560, 6.220, 32.41, -0.04236, -0.80652, 0.05048, -0.58743,
 16:07:12.757,f6:90:cc:01:6d:25, 2015-01-01 01:19:37.675, 0.94, 0.008, -0.301, 0.061, 0.061, 0, 178.314, -72.169, -5.861, -28.487, -16.560, 6.220, 32.41, -0.04236, -0.80652, 0.05048, -0.58743,
 16:07:12.778,e3:ca:2d:fd:e0:8c, 2015-01-01 01:19:49.260, 0.96, -0.216, -0.272, 0, 0.061, 0, -141.773, -70.027, -71.153, -28.460, -8.580, -2.527, 28.91, 0.09729, 0.73871, -0.29742, 0.59689,
 16:07:12.778,e3:ca:2d:fd:e0:8c, 2015-01-01 01:19:49.260, 0.96, -0.217, -0.272, 0, 0, 0, -141.773, -70.027, -71.153, -28.460, -8.580, -2.527, 28.91, 0.09729, 0.73871, -0.29742, 0.59689,
 16:07:12.780,ed:35:33:d3:6c:f8, 2015-01-01 01:19:39.885, 0.865, 0.008, 0.487, 0, 0.488, 0.122, 1.115, -60.568, 177.819, -20.687, -11.780, -11.560, 32.72, -0.01132, -0.50491, 0.00095, -0.86304,
 16:07:12.780,ed:35:33:d3:6c:f8, 2015-01-01 01:19:39.885, 0.866, 0.009, 0.488, 0, 0.61, 0.061, 1.11, -60.557, 177.814, -20.687, -11.780, -11.560, 32.72, -0.01132, -0.50491, 0.00095, -0.86304,
 16:07:12.799,ed:40:fe:65:30:6c, 2015-01-01 01:19:27.930, 0.883, 0, 0.478, 0, 0.244, 0.061, 0.044, -61.71, -126.392, -26.927, -11.640, 3.760, 27.77, 0.38821, -0.45792, -0.23294, -0.76501,
 16:07:12.799,ed:40:fe:65:30:6c, 2015-01-01 01:19:27.930, 0.884, 0, 0.478, 0, 0.366, 0.061, 0.038, -61.699, -126.398, -26.927, -11.640, 3.760, 27.77, 0.38821, -0.45792, -0.23294, -0.76501,
 16:07:12.802,ed:35:33:d3:6c:f8, 2015-01-01 01:19:39.885, 0.866, 0.01, 0.488, 0, 0.61, 0.061, 1.11, -60.546, 177.808, -20.687, -11.780, -11.560, 32.72, -0.01132, -0.50491, 0.00095, -0.86304,
 16:07:12.802,ed:35:33:d3:6c:f8, 2015-01-01 01:19:39.885, 0.867, 0.009, 0.487, 0.183, 0.61, 0.183, 1.104, -60.535, 177.803, -20.687, -11.780, -11.560, 32.72, -0.01132, -0.50491, 0.00095, -0.86304,
 16:07:12.804,f6:90:cc:01:6d:25, 2015-01-01 01:19:37.675, 0.94, 0.008, -0.301, 0.061, 0.061, 0, 178.314, -72.169, -5.856, -28.487, -16.560, 6.220, 32.41, -0.04236, -0.80652, 0.05048, -0.58743,
 16:07:12.804,f6:90:cc:01:6d:25, 2015-01-01 01:19:37.675, 0.939, 0.009, -0.301, 0.061, 0.061, 0, 178.314, -72.169, -5.85, -28.487, -16.560, 6.220, 32.41, -0.04236, -0.80652, 0.05048, -0.58743,
 16:07:12.823,e3:ca:2d:fd:e0:8c, 2015-01-01 01:19:49.260, 0.96, -0.216, -0.272, 0, 0, 0, -141.768, -70.027, -71.153, -28.460, -8.580, -2.527, 28.91, 0.09729, 0.73871, -0.29742, 0.59689,
 16:07:12.823,e3:ca:2d:fd:e0:8c, 2015-01-01 01:19:49.260, 0.96, -0.216, -0.272, -0.061, 0, 0, -141.768, -70.027, -71.153, -28.460, -8.580, -2.527, 28.91, 0.09729, 0.73871, -0.29742, 0.59689,
 16:07:12.847,f6:90:cc:01:6d:25, 2015-01-01 01:19:37.675, 0.94, 0.009, -0.301, 0, 0.061, 0, 178.319, -72.175, -5.839, -28.487, -16.560, 6.220, 32.41, -0.04236, -0.80652, 0.05048, -0.58743,
 16:07:12.847,f6:90:cc:01:6d:25, 2015-01-01 01:19:37.675, 0.94, 0.009, -0.301, 0, 0.061, 0, 178.319, -72.175, -5.834, -28.487, -16.560, 6.220, 32.41, -0.04236, -0.80652, 0.05048, -0.58743,
 16:07:12.867,ed:40:fe:65:30:6c, 2015-01-01 01:19:27.930, 0.884, 0, 0.477, 0.122, 0.366, 0.061, 0.038, -61.694, -126.403, -26.927, -11.640, 3.760, 27.77, 0.38721, -0.45755, -0.23148, -0.76614,
 16:07:12.867,ed:40:fe:65:30:6c, 2015-01-01 01:19:27.930, 0.882, 0, 0.477, 0.244, 0.366, 0, 0.044, -61.688, -126.414, -26.927, -11.640, 3.760, 27.77, 0.38721, -0.45755, -0.23148, -0.76614,
 16:07:12.868,e3:ca:2d:fd:e0:8c, 2015-01-01 01:19:49.260, 0.96, -0.216, -0.272, 0, 0, 0, -141.768, -70.027, -71.153, -28.460, -8.580, -2.527, 28.91, 0.09729, 0.73871, -0.29742, 0.59689,
 16:07:12.868,e3:ca:2d:fd:e0:8c, 2015-01-01 01:19:49.260, 0.96, -0.216, -0.273, -0.061, 0, 0, -141.768, -70.027, -71.153, -28.460, -8.580, -2.527, 28.91, 0.09729, 0.73871, -0.29742, 0.59689,
 16:07:12.869,ed:35:33:d3:6c:f8, 2015-01-01 01:19:39.885, 0.865, 0.01, 0.489, 0.244, 0.549, 0.183, 1.104, -60.529, 177.803, -20.687, -11.780, -11.560, 32.72, -0.01132, -0.50491, 0.00095, -0.86304,
 16:07:12.869,ed:35:33:d3:6c:f8, 2015-01-01 01:19:39.885, 0.866, 0.011, 0.489, 0.061, 0.488, 0.122, 1.104, -60.518, 177.797, -20.687, -11.780, -11.560, 32.72, -0.01132, -0.50491, 0.00095, -0.86304,
 16:07:12.889,ed:40:fe:65:30:6c, 2015-01-01 01:19:28.285, 0.882, 0.001, 0.479, 0.122, 0.305, 0, 0.049, -61.677, -126.42, -26.927, -11.640, 3.760, 27.77, 0.38721, -0.45755, -0.23148, -0.76614,
 16:07:12.889,ed:40:fe:65:30:6c, 2015-01-01 01:19:28.285, 0.885, 0, 0.479, 0, 0.366, 0, 0.044, -61.672, -126.431, -26.927, -11.640, 3.760, 27.77, 0.38721, -0.45755, -0.23148, -0.76614,
 16:07:12.892,ed:35:33:d3:6c:f8, 2015-01-01 01:19:39.885, 0.867, 0.01, 0.489, 0, 0.488, 0, 1.104, -60.507, 177.792, -20.807, -11.613, -12.613, 32.72, -0.01132, -0.50491, 0.00095, -0.86304,
 16:07:12.892,ed:35:33:d3:6c:f8, 2015-01-01 01:19:39.885, 0.868, 0.009, 0.487, 0.061, 0.366, 0, 1.104, -60.502, 177.781, -20.807, -11.613, -12.613, 32.72, -0.01132, -0.50491, 0.00095, -0.86304,
 16:07:12.893,f6:90:cc:01:6d:25, 2015-01-01 01:19:37.675, 0.94, 0.009, -0.302, 0, 0, 0, 178.319, -72.175, -5.828, -28.420, -16.960, 6.933, 32.41, -0.04236, -0.80652, 0.05048, -0.58743,
 16:07:12.893,f6:90:cc:01:6d:25, 2015-01-01 01:19:37.675, 0.94, 0.009, -0.301, 0, 0, 0, 178.319, -72.175, -5.823, -28.420, -16.960, 6.933, 32.41, -0.04236, -0.80652, 0.05048, -0.58743,
 16:07:12.913,ed:40:fe:65:30:6c, 2015-01-01 01:19:28.285, 0.884, 0, 0.478, 0.061, 0.244, 0, 0.049, -61.666, -126.436, -26.927, -11.640, 3.760, 27.77, 0.38721, -0.45755, -0.23148, -0.76614,
 16:07:12.913,ed:40:fe:65:30:6c, 2015-01-01 01:19:28.285, 0.885, 0, 0.478, 0.061, 0.183, 0, 0.049, -61.661, -126.447, -26.927, -11.640, 3.760, 27.77, 0.38721, -0.45755, -0.23148, -0.76614,
 16:07:12.913,e3:ca:2d:fd:e0:8c, 2015-01-01 01:19:49.260, 0.961, -0.216, -0.273, -0.061, 0, 0, -141.768, -70.027, -71.153, -28.460, -8.580, -2.527, 28.91, 0.09729, 0.73871, -0.29742, 0.59689,
 16:07:12.913,e3:ca:2d:fd:e0:8c, 2015-01-01 01:19:49.260, 0.96, -0.215, -0.274, -0.122, 0, 0, -141.768, -70.027, -71.153, -28.460, -8.580, -2.527, 28.91, 0.09729, 0.73871, -0.29742, 0.59689,
 16:07:12.936,ed:35:33:d3:6c:f8, 2015-01-01 01:19:39.885, 0.868, 0.009, 0.49, 0.061, 0.305, 0, 1.104, -60.496, 177.775, -20.807, -11.613, -12.613, 32.72, -0.01132, -0.50491, 0.00095, -0.86304,
 16:07:12.936,ed:35:33:d3:6c:f8, 2015-01-01 01:19:39.885, 0.868, 0.01, 0.484, 0.183, 0.488, 0, 1.11, -60.491, 177.764, -20.807, -11.613, -12.613, 32.72, -0.01132, -0.50491, 0.00095, -0.86304,
 16:07:12.938,f6:90:cc:01:6d:25, 2015-01-01 01:19:37.675, 0.94, 0.009, -0.302, 0, 0.061, 0, 178.319, -72.175, -5.812, -28.420, -16.960, 6.933, 32.41, -0.04169, -0.80649, 0.04959, -0.58759,
 16:07:12.938,f6:90:cc:01:6d:25, 2015-01-01 01:19:37.675, 0.94, 0.009, -0.301, 0, 0, 0, 178.319, -72.175, -5.806, -28.420, -16.960, 6.933, 32.41, -0.04169, -0.80649, 0.04959, -0.58759,
 16:07:12.957,ed:40:fe:65:30:6c, 2015-01-01 01:19:28.285, 0.885, 0, 0.477, 0.183, 0, 0, 0.049, -61.661, -126.453, -26.927, -11.640, 3.760, 27.77, 0.38721, -0.45755, -0.23148, -0.76614,
 16:07:12.957,ed:40:fe:65:30:6c, 2015-01-01 01:19:28.285, 0.886, 0, 0.475, 0, 0.244, 0, 0.049, -61.655, -126.464, -26.927, -11.640, 3.760, 27.77, 0.38721, -0.45755, -0.23148, -0.76614,
 16:07:12.961,f6:90:cc:01:6d:25, 2015-01-01 01:19:37.965, 0.94, 0.007, -0.305, -0.122, 0.244, 0, 178.314, -72.18, -5.801, -28.420, -16.960, 6.933, 32.41, -0.04169, -0.80649, 0.04959, -0.58759,
 16:07:12.961,f6:90:cc:01:6d:25, 2015-01-01 01:19:37.965, 0.94, 0.007, -0.302, 0, 0.305, 0, 178.314, -72.186, -5.795, -28.420, -16.960, 6.933, 32.41, -0.04169, -0.80649, 0.04959, -0.58759,
 16:07:12.981,e3:ca:2d:fd:e0:8c, 2015-01-01 01:19:49.260, 0.959, -0.216, -0.272, 0, 0, 0, -141.768, -70.027, -71.153, -28.820, -9.353, -1.947, 28.91, 0.09729, 0.73871, -0.29742, 0.59689,
 16:07:12.981,e3:ca:2d:fd:e0:8c, 2015-01-01 01:19:49.260, 0.96, -0.217, -0.275, 0, 0, 0, -141.762, -70.027, -71.153, -28.820, -9.353, -1.947, 28.91, 0.09729, 0.73871, -0.29742, 0.59689,
 16:07:13.002,ed:40:fe:65:30:6c, 2015-01-01 01:19:28.285, 0.886, 0, 0.476, -0.183, 0.61, 0, 0.049, -61.644, -126.469, -26.927, -11.640, 3.760, 27.77, 0.38721, -0.45755, -0.23148, -0.76614,
 16:07:13.002,ed:40:fe:65:30:6c, 2015-01-01 01:19:28.285, 0.882, 0, 0.479, 0.244, 0.244, 0, 0.049, -61.639, -126.48, -26.927, -11.640, 3.760, 27.77, 0.38721, -0.45755, -0.23148, -0.76614,
 16:07:13.005,ed:35:33:d3:6c:f8, 2015-01-01 01:19:39.885, 0.869, 0.009, 0.484, -0.244, 1.038, 0, 1.104, -60.474, 177.753, -20.807, -11.613, -12.613, 32.72, -0.01193, -0.50372, 0.00143, -0.86371,
 16:07:13.005,ed:35:33:d3:6c:f8, 2015-01-01 01:19:39.885, 0.867, 0.01, 0.491, 0, 0.854, 0, 1.104, -60.458, 177.748, -20.807, -11.613, -12.613, 32.72, -0.01193, -0.50372, 0.00143, -0.86371,
 16:07:13.005,f6:90:cc:01:6d:25, 2015-01-01 01:19:37.965, 0.94, 0.009, -0.301, 0, 0.061, 0, 178.314, -72.191, -5.784, -28.420, -16.960, 6.933, 32.41, -0.04169, -0.80649, 0.04959, -0.58759,
 16:07:13.005,f6:90:cc:01:6d:25, 2015-01-01 01:19:37.965, 0.94, 0.009, -0.303, 0, -0.061, 0, 178.314, -72.186, -5.779, -28.420, -16.960, 6.933, 32.41, -0.04169, -0.80649, 0.04959, -0.58759,
 16:07:13.025,e3:ca:2d:fd:e0:8c, 2015-01-01 01:19:49.260, 0.961, -0.217, -0.275, 0, 0, 0, -141.762, -70.027, -71.153, -28.820, -9.353, -1.947, 28.91, 0.09726, 0.73868, -0.29736, 0.59695,
 16:07:13.025,e3:ca:2d:fd:e0:8c, 2015-01-01 01:19:49.260, 0.96, -0.216, -0.275, 0, 0, 0, -141.762, -70.027, -71.153, -28.820, -9.353, -1.947, 28.91, 0.09726, 0.73868, -0.29736, 0.59695,
 16:07:13.025,ed:40:fe:65:30:6c, 2015-01-01 01:19:28.285, 0.879, 0.001, 0.48, 0.305, -0.183, 0, 0.055, -61.644, -126.486, -26.927, -11.640, 3.760, 27.77, 0.38721, -0.45755, -0.23148, -0.76614,
 16:07:13.025,ed:40:fe:65:30:6c, 2015-01-01 01:19:28.285, 0.878, 0, 0.482, 0.122, -0.061, 0, 0.06, -61.644, -126.497, -26.927, -11.640, 3.760, 27.77, 0.38721, -0.45755, -0.23148, -0.76614,
 16:07:13.027,ed:35:33:d3:6c:f8, 2015-01-01 01:19:40.245, 0.863, 0.012, 0.493, 0.427, 0.427, 0, 1.11, -60.452, 177.737, -20.807, -11.613, -12.613, 32.72, -0.01193, -0.50372, 0.00143, -0.86371,
 16:07:13.027,ed:35:33:d3:6c:f8, 2015-01-01 01:19:40.245, 0.863, 0.01, 0.493, 0.305, 0, 0.366, 1.11, -60.447, 177.737, -20.807, -11.613, -12.613, 32.72, -0.01193, -0.50372, 0.00143, -0.86371,
 16:07:13.049,ed:35:33:d3:6c:f8, 2015-01-01 01:19:40.245, 0.863, 0.008, 0.493, 0.122, -0.122, 0.183, 1.104, -60.452, 177.742, -20.807, -11.613, -12.613, 32.72, -0.01193, -0.50372, 0.00143, -0.86371,
 16:07:13.049,ed:35:33:d3:6c:f8, 2015-01-01 01:19:40.245, 0.861, 0.009, 0.492, 0, -0.122, 0.061, 1.104, -60.452, 177.737, -20.807, -11.613, -12.613, 32.72, -0.01193, -0.50372, 0.00143, -0.86371,
 16:07:13.051,f6:90:cc:01:6d:25, 2015-01-01 01:19:37.965, 0.94, 0.008, -0.302, 0, -0.061, 0, 178.314, -72.186, -5.773, -28.420, -16.960, 6.933, 32.41, -0.04169, -0.80649, 0.04959, -0.58759,
 16:07:13.051,f6:90:cc:01:6d:25, 2015-01-01 01:19:37.965, 0.939, 0.008, -0.301, 0, -0.122, 0, 178.314, -72.186, -5.768, -28.420, -16.960, 6.933, 32.41, -0.04169, -0.80649, 0.04959, -0.58759,
 16:07:13.070,e3:ca:2d:fd:e0:8c, 2015-01-01 01:19:49.260, 0.96, -0.216, -0.274, 0, 0, 0, -141.762, -70.027, -71.153, -28.820, -9.353, -1.947, 28.91, 0.09726, 0.73868, -0.29736, 0.59695,
 16:07:13.070,e3:ca:2d:fd:e0:8c, 2015-01-01 01:19:49.260, 0.96, -0.216, -0.274, 0, 0, 0, -141.762, -70.027, -71.153, -28.820, -9.353, -1.947, 28.91, 0.09726, 0.73868, -0.29736, 0.59695,
 16:07:13.070,ed:40:fe:65:30:6c, 2015-01-01 01:19:28.285, 0.881, 0, 0.481, 0, -0.122, 0, 0.06, -61.644, -126.502, -26.927, -11.640, 3.760, 27.77, 0.38721, -0.45755, -0.23148, -0.76614,
 16:07:13.070,ed:40:fe:65:30:6c, 2015-01-01 01:19:28.285, 0.883, 0, 0.479, 0.122, 0.122, 0, 0.06, -61.644, -126.513, -26.927, -11.640, 3.760, 27.77, 0.38721, -0.45755, -0.23148, -0.76614,
 16:07:13.093,e3:ca:2d:fd:e0:8c, 2015-01-01 01:19:49.595, 0.96, -0.216, -0.272, 0, 0, 0, -141.762, -70.027, -71.153, -28.820, -9.353, -1.947, 28.91, 0.09726, 0.73868, -0.29736, 0.59695,
 16:07:13.093,e3:ca:2d:fd:e0:8c, 2015-01-01 01:19:49.595, 0.96, -0.216, -0.272, 0, 0, 0, -141.762, -70.027, -71.153, -28.820, -9.353, -1.947, 28.91, 0.09726, 0.73868, -0.29736, 0.59695,
 16:07:13.095,ed:35:33:d3:6c:f8, 2015-01-01 01:19:40.245, 0.865, 0.009, 0.49, 0.061, 0, 0, 1.104, -60.452, 177.731, -20.807, -11.613, -12.613, 32.72, -0.01193, -0.50372, 0.00143, -0.86371,
 16:07:13.095,ed:35:33:d3:6c:f8, 2015-01-01 01:19:40.245, 0.866, 0.008, 0.487, 0.305, 0.244, 0.061, 1.104, -60.452, 177.72, -20.807, -11.613, -12.613, 32.72, -0.01193, -0.50372, 0.00143, -0.86371,
 16:07:13.097,f6:90:cc:01:6d:25, 2015-01-01 01:19:37.965, 0.94, 0.009, -0.3, 0.061, -0.183, 0, 178.319, -72.18, -5.762, -28.420, -16.960, 6.933, 32.41, -0.04169, -0.80649, 0.04959, -0.58759,
 16:07:13.097,f6:90:cc:01:6d:25, 2015-01-01 01:19:37.965, 0.94, 0.008, -0.301, 0, -0.183, 0, 178.319, -72.18, -5.757, -28.420, -16.960, 6.933, 32.41, -0.04169, -0.80649, 0.04959, -0.58759,
 16:07:13.116,e3:ca:2d:fd:e0:8c, 2015-01-01 01:19:49.595, 0.96, -0.216, -0.271, 0, 0, 0, -141.757, -70.027, -71.153, -28.820, -9.353, -1.947, 28.91, 0.09726, 0.73868, -0.29736, 0.59695,
 16:07:13.116,e3:ca:2d:fd:e0:8c, 2015-01-01 01:19:49.595, 0.96, -0.217, -0.272, 0, 0, 0, -141.757, -70.027, -71.153, -28.820, -9.353, -1.947, 28.91, 0.09726, 0.73868, -0.29736, 0.59695,
 16:07:13.118,f6:90:cc:01:6d:25, 2015-01-01 01:19:37.965, 0.94, 0.008, -0.301, 0, -0.122, 0, 178.319, -72.175, -5.751, -28.420, -16.960, 6.933, 32.41, -0.04169, -0.80649, 0.04959, -0.58759,
 16:07:13.118,f6:90:cc:01:6d:25, 2015-01-01 01:19:37.965, 0.94, 0.007, -0.301, 0, 0, 0, 178.319, -72.175, -5.746, -28.420, -16.960, 6.933, 32.41, -0.04169, -0.80649, 0.04959, -0.58759,
 16:07:13.138,ed:40:fe:65:30:6c, 2015-01-01 01:19:28.285, 0.883, -0.001, 0.478, 0.183, 0.305, 0, 0.06, -61.639, -126.519, -27.140, -11.380, 4.067, 27.77, 0.38721, -0.45755, -0.23148, -0.76614,
 16:07:13.138,ed:40:fe:65:30:6c, 2015-01-01 01:19:28.285, 0.884, 0, 0.478, 0, 0.366, 0, 0.06, -61.628, -126.524, -27.140, -11.380, 4.067, 27.77, 0.38721, -0.45755, -0.23148, -0.76614,
 16:07:13.160,e3:ca:2d:fd:e0:8c, 2015-01-01 01:19:49.595, 0.96, -0.216, -0.272, 0, 0, 0, -141.757, -70.027, -71.153, -28.820, -9.353, -1.947, 28.91, 0.09726, 0.73868, -0.29736, 0.59695,
 16:07:13.160,e3:ca:2d:fd:e0:8c, 2015-01-01 01:19:49.595, 0.96, -0.216, -0.272, 0, 0, 0, -141.751, -70.027, -71.153, -28.820, -9.353, -1.947, 28.91, 0.09726, 0.73868, -0.29736, 0.59695,
 16:07:13.161,ed:40:fe:65:30:6c, 2015-01-01 01:19:28.285, 0.885, 0, 0.478, 0, 0.366, 0, 0.06, -61.622, -126.535, -27.140, -11.380, 4.067, 27.77, 0.38657, -0.45724, -0.23083, -0.76688,
 16:07:13.161,ed:40:fe:65:30:6c, 2015-01-01 01:19:28.285, 0.883, 0, 0.479, 0.122, 0.183, 0, 0.06, -61.611, -126.541, -27.140, -11.380, 4.067, 27.77, 0.38657, -0.45724, -0.23083, -0.76688,
 16:07:13.162,ed:35:33:d3:6c:f8, 2015-01-01 01:19:40.245, 0.867, 0.008, 0.489, 0, 0.366, 0, 1.104, -60.447, 177.715, -20.807, -11.613, -12.613, 32.72, -0.01193, -0.50372, 0.00143, -0.86371,
 16:07:13.162,ed:35:33:d3:6c:f8, 2015-01-01 01:19:40.245, 0.867, 0.01, 0.489, 0, 0.427, -0.122, 1.11, -60.436, 177.704, -20.807, -11.613, -12.613, 32.72, -0.01193, -0.50372, 0.00143, -0.86371,
 16:07:13.166,f6:90:cc:01:6d:25, 2015-01-01 01:19:37.965, 0.94, 0.008, -0.301, 0, 0, 0, 178.319, -72.175, -5.74, -27.987, -16.647, 6.933, 32.41, -0.04169, -0.80649, 0.04959, -0.58759,
 16:07:13.166,f6:90:cc:01:6d:25, 2015-01-01 01:19:37.965, 0.94, 0.008, -0.302, 0, 0, 0, 178.319, -72.175, -5.735, -27.987, -16.647, 6.933, 32.41, -0.04169, -0.80649, 0.04959, -0.58759,
 16:07:13.183,e3:ca:2d:fd:e0:8c, 2015-01-01 01:19:49.595, 0.96, -0.216, -0.273, 0, 0, 0, -141.751, -70.027, -71.153, -28.820, -9.353, -1.947, 28.91, 0.09726, 0.73868, -0.29736, 0.59695,
 16:07:13.183,e3:ca:2d:fd:e0:8c, 2015-01-01 01:19:49.595, 0.96, -0.216, -0.273, 0, 0, 0, -141.751, -70.027, -71.153, -28.820, -9.353, -1.947, 28.91, 0.09726, 0.73868, -0.29736, 0.59695,
 16:07:13.184,ed:35:33:d3:6c:f8, 2015-01-01 01:19:40.245, 0.868, 0.011, 0.49, 0.061, 0.305, -0.061, 1.11, -60.43, 177.693, -20.807, -11.613, -12.613, 32.72, -0.01193, -0.50372, 0.00143, -0.86371,
 16:07:13.184,ed:35:33:d3:6c:f8, 2015-01-01 01:19:40.245, 0.865, 0.01, 0.491, 0.305, 0, 0.122, 1.115, -60.43, 177.687, -20.807, -11.613, -12.613, 32.72, -0.01193, -0.50372, 0.00143, -0.86371,
 16:07:13.205,ed:40:fe:65:30:6c, 2015-01-01 01:19:28.285, 0.883, 0, 0.479, 0.366, -0.061, 0, 0.066, -61.611, -126.546, -27.140, -11.380, 4.067, 27.77, 0.38657, -0.45724, -0.23083, -0.76688,
 16:07:13.205,ed:40:fe:65:30:6c, 2015-01-01 01:19:28.285, 0.884, 0, 0.478, 0, 0.061, 0, 0.071, -61.606, -126.557, -27.140, -11.380, 4.067, 27.77, 0.38657, -0.45724, -0.23083, -0.76688,
 16:07:13.207,f6:90:cc:01:6d:25, 2015-01-01 01:19:37.965, 0.94, 0.008, -0.301, 0, -0.061, 0, 178.319, -72.175, -5.729, -27.987, -16.647, 6.933, 32.41, -0.04126, -0.80652, 0.04901, -0.58762,
 16:07:13.207,f6:90:cc:01:6d:25, 2015-01-01 01:19:37.965, 0.939, 0.008, -0.303, 0.061, 0.061, 0, 178.325, -72.175, -5.724, -27.987, -16.647, 6.933, 32.41, -0.04126, -0.80652, 0.04901, -0.58762,
 16:07:13.228,e3:ca:2d:fd:e0:8c, 2015-01-01 01:19:49.595, 0.96, -0.216, -0.273, 0, 0, 0, -141.746, -70.027, -71.153, -28.820, -9.353, -1.947, 28.91, 0.09726, 0.73868, -0.29736, 0.59695,
 16:07:13.228,e3:ca:2d:fd:e0:8c, 2015-01-01 01:19:49.595, 0.96, -0.216, -0.273, 0, 0, 0, -141.746, -70.027, -71.153, -28.820, -9.353, -1.947, 28.91, 0.09726, 0.73868, -0.29736, 0.59695,
 16:07:13.228,ed:40:fe:65:30:6c, 2015-01-01 01:19:28.625, 0.884, 0, 0.479, 0.061, 0, 0, 0.066, -61.606, -126.562, -27.140, -11.380, 4.067, 27.77, 0.38657, -0.45724, -0.23083, -0.76688,
 16:07:13.228,ed:40:fe:65:30:6c, 2015-01-01 01:19:28.625, 0.884, 0.001, 0.478, 0.183, 0.061, 0, 0.071, -61.606, -126.568, -27.140, -11.380, 4.067, 27.77, 0.38657, -0.45724, -0.23083, -0.76688,
 16:07:13.230,ed:35:33:d3:6c:f8, 2015-01-01 01:19:40.245, 0.868, 0.01, 0.488, 0.061, 0.122, 0.061, 1.115, -60.43, 177.682, -20.807, -11.613, -12.613, 32.72, -0.01193, -0.50372, 0.00143, -0.86371,
 16:07:13.230,ed:35:33:d3:6c:f8, 2015-01-01 01:19:40.245, 0.865, 0.009, 0.49, 0.061, 0.244, -0.061, 1.115, -60.425, 177.676, -20.807, -11.613, -12.613, 32.72, -0.01193, -0.50372, 0.00143, -0.86371,
 16:07:13.252,ed:35:33:d3:6c:f8, 2015-01-01 01:19:40.245, 0.868, 0.011, 0.489, 0.061, 0.366, -0.122, 1.121, -60.419, 177.665, -20.733, -11.733, -12.607, 32.72, -0.01193, -0.50372, 0.00143, -0.86371,
 16:07:13.252,ed:35:33:d3:6c:f8, 2015-01-01 01:19:40.245, 0.866, 0.011, 0.489, 0.244, 0.305, 0.122, 1.121, -60.414, 177.66, -20.733, -11.733, -12.607, 32.72, -0.01193, -0.50372, 0.00143, -0.86371,
 16:07:13.252,f6:90:cc:01:6d:25, 2015-01-01 01:19:38.235, 0.939, 0.009, -0.302, 0, 0.061, 0, 178.325, -72.18, -5.718, -27.987, -16.647, 6.933, 32.41, -0.04126, -0.80652, 0.04901, -0.58762,
 16:07:13.252,f6:90:cc:01:6d:25, 2015-01-01 01:19:38.235, 0.941, 0.008, -0.302, 0, 0.061, 0, 178.325, -72.18, -5.713, -27.987, -16.647, 6.933, 32.41, -0.04126, -0.80652, 0.04901, -0.58762,
 16:07:13.272,ed:40:fe:65:30:6c, 2015-01-01 01:19:28.625, 0.883, 0, 0.479, 0.183, 0.061, 0, 0.071, -61.606, -126.573, -27.140, -11.380, 4.067, 27.77, 0.38657, -0.45724, -0.23083, -0.76688,
 16:07:13.272,ed:40:fe:65:30:6c, 2015-01-01 01:19:28.625, 0.882, 0, 0.479, 0.061, 0, 0, 0.077, -61.6, -126.584, -27.140, -11.380, 4.067, 27.77, 0.38657, -0.45724, -0.23083, -0.76688,
 16:07:13.274,e3:ca:2d:fd:e0:8c, 2015-01-01 01:19:49.595, 0.96, -0.217, -0.273, 0, 0, 0, -141.746, -70.027, -71.153, -28.820, -9.353, -1.947, 28.91, 0.09726, 0.73868, -0.29736, 0.59695,
 16:07:13.274,e3:ca:2d:fd:e0:8c, 2015-01-01 01:19:49.595, 0.96, -0.217, -0.274, 0, 0, 0, -141.746, -70.027, -71.153, -28.820, -9.353, -1.947, 28.91, 0.09726, 0.73868, -0.29736, 0.59695,
 16:07:13.297,ed:35:33:d3:6c:f8, 2015-01-01 01:19:40.245, 0.865, 0.009, 0.49, 0.061, 0.122, 0.244, 1.121, -60.414, 177.66, -20.733, -11.733, -12.607, 32.72, -0.01193, -0.50372, 0.00143, -0.86371,
 16:07:13.297,ed:35:33:d3:6c:f8, 2015-01-01 01:19:40.245, 0.864, 0.009, 0.491, 0.061, 0.061, 0.183, 1.115, -60.414, 177.66, -20.733, -11.733, -12.607, 32.72, -0.01193, -0.50372, 0.00143, -0.86371,
 16:07:13.297,f6:90:cc:01:6d:25, 2015-01-01 01:19:38.235, 0.94, 0.008, -0.302, 0, 0.061, 0, 178.325, -72.18, -5.707, -27.987, -16.647, 6.933, 32.41, -0.04126, -0.80652, 0.04901, -0.58762,
 16:07:13.297,f6:90:cc:01:6d:25, 2015-01-01 01:19:38.235, 0.939, 0.008, -0.302, 0, 0.061, 0, 178.325, -72.18, -5.702, -27.987, -16.647, 6.933, 32.41, -0.04126, -0.80652, 0.04901, -0.58762,
 16:07:13.317,ed:40:fe:65:30:6c, 2015-01-01 01:19:28.625, 0.882, 0, 0.48, 0.061, 0, 0, 0.077, -61.6, -126.59, -27.140, -11.380, 4.067, 27.77, 0.38657, -0.45724, -0.23083, -0.76688,
 16:07:13.317,ed:40:fe:65:30:6c, 2015-01-01 01:19:28.625, 0.884, 0.001, 0.479, 0.061, 0.183, 0, 0.077, -61.6, -126.595, -27.140, -11.380, 4.067, 27.77, 0.38657, -0.45724, -0.23083, -0.76688,
 16:07:13.320,f6:90:cc:01:6d:25, 2015-01-01 01:19:38.235, 0.94, 0.009, -0.302, 0, 0, 0, 178.325, -72.18, -5.696, -27.987, -16.647, 6.933, 32.41, -0.04126, -0.80652, 0.04901, -0.58762,
 16:07:13.320,f6:90:cc:01:6d:25, 2015-01-01 01:19:38.235, 0.94, 0.009, -0.302, 0, 0, 0, 178.325, -72.18, -5.691, -27.987, -16.647, 6.933, 32.41, -0.04126, -0.80652, 0.04901, -0.58762,
 16:07:13.341,e3:ca:2d:fd:e0:8c, 2015-01-01 01:19:49.595, 0.96, -0.216, -0.274, 0, 0, 0, -141.74, -70.027, -71.153, -28.433, -9.147, -2.680, 28.91, 0.09726, 0.73868, -0.29736, 0.59695,
 16:07:13.341,e3:ca:2d:fd:e0:8c, 2015-01-01 01:19:49.595, 0.96, -0.216, -0.273, 0, 0, 0, -141.74, -70.027, -71.153, -28.433, -9.147, -2.680, 28.91, 0.09726, 0.73868, -0.29736, 0.59695,
 16:07:13.363,e3:ca:2d:fd:e0:8c, 2015-01-01 01:19:49.595, 0.96, -0.216, -0.274, 0, 0, 0, -141.74, -70.027, -71.153, -28.433, -9.147, -2.680, 28.91, 0.09711, 0.73868, -0.29724, 0.59705,
 16:07:13.363,e3:ca:2d:fd:e0:8c, 2015-01-01 01:19:49.595, 0.96, -0.216, -0.274, 0, 0, 0, -141.74, -70.027, -71.153, -28.433, -9.147, -2.680, 28.91, 0.09711, 0.73868, -0.29724, 0.59705,
 16:07:13.363,ed:40:fe:65:30:6c, 2015-01-01 01:19:28.625, 0.885, 0, 0.478, 0.061, 0.183, 0, 0.077, -61.595, -126.601, -27.140, -11.380, 4.067, 27.77, 0.38657, -0.45724, -0.23083, -0.76688,
 16:07:13.363,ed:40:fe:65:30:6c, 2015-01-01 01:19:28.625, 0.883, 0, 0.478, 0, 0.061, 0, 0.077, -61.589, -126.606, -27.140, -11.380, 4.067, 27.77, 0.38657, -0.45724, -0.23083, -0.76688,
 16:07:13.365,f6:90:cc:01:6d:25, 2015-01-01 01:19:38.235, 0.94, 0.009, -0.303, 0, 0.061, 0, 178.325, -72.186, -5.685, -27.987, -16.647, 6.933, 32.41, -0.04126, -0.80652, 0.04901, -0.58762,
 16:07:13.365,f6:90:cc:01:6d:25, 2015-01-01 01:19:38.235, 0.94, 0.008, -0.302, 0, 0, 0, 178.325, -72.186, -5.68, -27.987, -16.647, 6.933, 32.41, -0.04126, -0.80652, 0.04901, -0.58762,
 16:07:13.387,ed:35:33:d3:6c:f8, 2015-01-01 01:19:40.245, 0.867, 0.011, 0.49, 0.061, 0.122, 0.061, 1.11, -60.414, 177.654, -20.733, -11.733, -12.607, 32.72, -0.0127, -0.50314, 0.00183, -0.86404,
 16:07:13.387,ed:35:33:d3:6c:f8, 2015-01-01 01:19:40.245, 0.868, 0.01, 0.489, 0.061, 0.305, 0, 1.11, -60.408, 177.649, -20.733, -11.733, -12.607, 32.72, -0.0127, -0.50314, 0.00183, -0.86404,
 16:07:13.407,e3:ca:2d:fd:e0:8c, 2015-01-01 01:19:49.595, 0.96, -0.216, -0.273, 0, 0, 0, -141.74, -70.027, -71.153, -28.433, -9.147, -2.680, 28.91, 0.09711, 0.73868, -0.29724, 0.59705,
 16:07:13.407,e3:ca:2d:fd:e0:8c, 2015-01-01 01:19:49.595, 0.96, -0.216, -0.273, 0, 0, 0, -141.735, -70.027, -71.153, -28.433, -9.147, -2.680, 28.91, 0.09711, 0.73868, -0.29724, 0.59705,
 16:07:13.408,ed:35:33:d3:6c:f8, 2015-01-01 01:19:40.600, 0.866, 0.01, 0.489, 0, 0.183, 0, 1.115, -60.403, 177.643, -20.733, -11.733, -12.607, 32.72, -0.0127, -0.50314, 0.00183, -0.86404,
 16:07:13.408,ed:35:33:d3:6c:f8, 2015-01-01 01:19:40.600, 0.866, 0.011, 0.49, 0.122, 0.183, 0, 1.115, -60.403, 177.638, -20.733, -11.733, -12.607, 32.72, -0.0127, -0.50314, 0.00183, -0.86404,
 16:07:13.410,f6:90:cc:01:6d:25, 2015-01-01 01:19:38.235, 0.94, 0.009, -0.302, 0, 0, 0, 178.325, -72.186, -5.674, -27.987, -16.647, 6.933, 32.41, -0.04126, -0.80652, 0.04901, -0.58762,
 16:07:13.410,f6:90:cc:01:6d:25, 2015-01-01 01:19:38.235, 0.94, 0.008, -0.301, 0, 0, 0, 178.325, -72.186, -5.669, -27.987, -16.647, 6.933, 32.41, -0.04126, -0.80652, 0.04901, -0.58762,
 16:07:13.429,e3:ca:2d:fd:e0:8c, 2015-01-01 01:19:49.950, 0.96, -0.216, -0.273, 0, 0, 0, -141.735, -70.027, -71.153, -28.433, -9.147, -2.680, 28.91, 0.09711, 0.73868, -0.29724, 0.59705,
 16:07:13.429,e3:ca:2d:fd:e0:8c, 2015-01-01 01:19:49.950, 0.96, -0.216, -0.273, 0, 0, 0, -141.735, -70.027, -71.153, -28.433, -9.147, -2.680, 28.91, 0.09711, 0.73868, -0.29724, 0.59705,
 16:07:13.429,ed:40:fe:65:30:6c, 2015-01-01 01:19:28.625, 0.884, 0, 0.479, 0.122, 0.061, 0, 0.077, -61.589, -126.612, -27.140, -11.380, 4.067, 27.77, 0.38657, -0.45724, -0.23083, -0.76688,
 16:07:13.431,ed:40:fe:65:30:6c, 2015-01-01 01:19:28.625, 0.883, 0, 0.479, 0.183, 0.122, 0, 0.082, -61.589, -126.623, -27.140, -11.380, 4.067, 27.77, 0.38657, -0.45724, -0.23083, -0.76688,
 16:07:13.432,ed:35:33:d3:6c:f8, 2015-01-01 01:19:40.600, 0.866, 0.01, 0.489, 0.183, 0.183, 0.061, 1.121, -60.397, 177.632, -20.733, -11.733, -12.607, 32.72, -0.0127, -0.50314, 0.00183, -0.86404,
 16:07:13.432,ed:35:33:d3:6c:f8, 2015-01-01 01:19:40.600, 0.865, 0.01, 0.49, 0.183, 0.244, 0.122, 1.121, -60.397, 177.627, -20.733, -11.733, -12.607, 32.72, -0.0127, -0.50314, 0.00183, -0.86404,
 16:07:13.452,ed:40:fe:65:30:6c, 2015-01-01 01:19:28.625, 0.883, 0.001, 0.479, 0.122, 0, 0, 0.082, -61.584, -126.628, -27.180, -11.533, 3.760, 27.77, 0.38657, -0.45724, -0.23083, -0.76688,
 16:07:13.452,ed:40:fe:65:30:6c, 2015-01-01 01:19:28.625, 0.883, 0, 0.48, 0.061, 0.061, 0, 0.088, -61.584, -126.634, -27.180, -11.533, 3.760, 27.77, 0.38657, -0.45724, -0.23083, -0.76688,
 16:07:13.455,ed:35:33:d3:6c:f8, 2015-01-01 01:19:40.600, 0.865, 0.01, 0.49, 0.061, 0.305, 0.122, 1.115, -60.392, 177.627, -20.733, -11.733, -12.607, 32.72, -0.0127, -0.50314, 0.00183, -0.86404,
 16:07:13.455,ed:35:33:d3:6c:f8, 2015-01-01 01:19:40.600, 0.866, 0.009, 0.49, 0.061, 0.366, 0.061, 1.115, -60.386, 177.627, -20.733, -11.733, -12.607, 32.72, -0.0127, -0.50314, 0.00183, -0.86404,
 16:07:13.457,f6:90:cc:01:6d:25, 2015-01-01 01:19:38.235, 0.939, 0.009, -0.301, 0, 0, 0, 178.325, -72.186, -5.663, -28.647, -16.547, 6.340, 32.41, -0.04126, -0.80652, 0.04901, -0.58762,
 16:07:13.457,f6:90:cc:01:6d:25, 2015-01-01 01:19:38.235, 0.94, 0.008, -0.302, 0, 0, 0, 178.325, -72.186, -5.663, -28.647, -16.547, 6.340, 32.41, -0.04126, -0.80652, 0.04901, -0.58762,
 16:07:13.475,e3:ca:2d:fd:e0:8c, 2015-01-01 01:19:49.950, 0.96, -0.216, -0.272, 0, 0, 0, -141.735, -70.027, -71.153, -28.433, -9.147, -2.680, 28.91, 0.09711, 0.73868, -0.29724, 0.59705,
 16:07:13.475,e3:ca:2d:fd:e0:8c, 2015-01-01 01:19:49.950, 0.96, -0.216, -0.273, 0, 0, 0, -141.735, -70.027, -71.153, -28.433, -9.147, -2.680, 28.91, 0.09711, 0.73868, -0.29724, 0.59705,
 16:07:13.497,ed:40:fe:65:30:6c, 2015-01-01 01:19:28.625, 0.883, 0, 0.479, 0.061, 0.061, 0, 0.088, -61.584, -126.639, -27.180, -11.533, 3.760, 27.77, 0.38657, -0.45724, -0.23083, -0.76688,
 16:07:13.497,ed:40:fe:65:30:6c, 2015-01-01 01:19:28.625, 0.882, 0, 0.479, 0.183, 0, 0, 0.088, -61.578, -126.645, -27.180, -11.533, 3.760, 27.77, 0.38657, -0.45724, -0.23083, -0.76688,
 16:07:13.500,f6:90:cc:01:6d:25, 2015-01-01 01:19:38.235, 0.94, 0.008, -0.301, 0, 0.061, 0, 178.325, -72.186, -5.658, -28.647, -16.547, 6.340, 32.41, -0.04083, -0.80652, 0.04846, -0.58771,
 16:07:13.500,f6:90:cc:01:6d:25, 2015-01-01 01:19:38.235, 0.94, 0.008, -0.301, 0, 0.061, 0, 178.325, -72.186, -5.652, -28.647, -16.547, 6.340, 32.41, -0.04083, -0.80652, 0.04846, -0.58771,
 16:07:13.500,ed:35:33:d3:6c:f8, 2015-01-01 01:19:40.600, 0.864, 0.009, 0.491, 0.122, 0.305, 0.061, 1.115, -60.381, 177.621, -20.733, -11.733, -12.607, 32.72, -0.0127, -0.50314, 0.00183, -0.86404,
 16:07:13.500,ed:35:33:d3:6c:f8, 2015-01-01 01:19:40.600, 0.864, 0.009, 0.491, 0.183, 0.244, 0.122, 1.115, -60.375, 177.616, -20.733, -11.733, -12.607, 32.72, -0.0127, -0.50314, 0.00183, -0.86404,
 16:07:13.519,ed:40:fe:65:30:6c, 2015-01-01 01:19:28.625, 0.882, 0, 0.48, 0.122, 0, 0, 0.093, -61.578, -126.65, -27.180, -11.533, 3.760, 27.77, 0.38599, -0.45709, -0.23041, -0.7674,
 16:07:13.519,ed:40:fe:65:30:6c, 2015-01-01 01:19:28.625, 0.882, 0, 0.481, 0.122, 0, 0, 0.093, -61.578, -126.656, -27.180, -11.533, 3.760, 27.77, 0.38599, -0.45709, -0.23041, -0.7674,
 16:07:13.521,e3:ca:2d:fd:e0:8c, 2015-01-01 01:19:49.950, 0.96, -0.216, -0.272, 0, 0, 0, -141.729, -70.027, -71.153, -28.433, -9.147, -2.680, 28.91, 0.09711, 0.73868, -0.29724, 0.59705,
 16:07:13.521,e3:ca:2d:fd:e0:8c, 2015-01-01 01:19:49.950, 0.96, -0.217, -0.272, 0, 0, 0, -141.729, -70.027, -71.153, -28.433, -9.147, -2.680, 28.91, 0.09711, 0.73868, -0.29724, 0.59705,
 16:07:13.523,f6:90:cc:01:6d:25, 2015-01-01 01:19:38.525, 0.94, 0.008, -0.301, 0, 0.061, 0, 178.325, -72.186, -5.647, -28.647, -16.547, 6.340, 32.41, -0.04083, -0.80652, 0.04846, -0.58771,
 16:07:13.523,f6:90:cc:01:6d:25, 2015-01-01 01:19:38.525, 0.94, 0.008, -0.301, 0, 0, 0, 178.325, -72.186, -5.641, -28.647, -16.547, 6.340, 32.41, -0.04083, -0.80652, 0.04846, -0.58771,
 16:07:13.544,ed:35:33:d3:6c:f8, 2015-01-01 01:19:40.600, 0.864, 0.01, 0.492, 0.183, 0.183, 0.183, 1.115, -60.375, 177.621, -20.733, -11.733, -12.607, 32.72, -0.0127, -0.50314, 0.00183, -0.86404,
 16:07:13.544,ed:35:33:d3:6c:f8, 2015-01-01 01:19:40.600, 0.866, 0.009, 0.491, 0.122, 0.183, 0, 1.115, -60.37, 177.616, -20.733, -11.733, -12.607, 32.72, -0.0127, -0.50314, 0.00183, -0.86404,
 16:07:13.544,e3:ca:2d:fd:e0:8c, 2015-01-01 01:19:49.950, 0.96, -0.217, -0.272, 0, 0, 0, -141.729, -70.032, -71.153, -28.433, -9.147, -2.680, 28.91, 0.09711, 0.73868, -0.29724, 0.59705,
 16:07:13.544,e3:ca:2d:fd:e0:8c, 2015-01-01 01:19:49.950, 0.96, -0.216, -0.272, 0, 0, 0, -141.729, -70.032, -71.153, -28.433, -9.147, -2.680, 28.91, 0.09711, 0.73868, -0.29724, 0.59705,
 16:07:13.567,f6:90:cc:01:6d:25, 2015-01-01 01:19:38.525, 0.94, 0.008, -0.3, 0, 0, 0, 178.325, -72.186, -5.636, -28.647, -16.547, 6.340, 32.41, -0.04083, -0.80652, 0.04846, -0.58771,
 16:07:13.567,f6:90:cc:01:6d:25, 2015-01-01 01:19:38.525, 0.94, 0.008, -0.301, 0, 0, 0, 178.325, -72.186, -5.63, -28.647, -16.547, 6.340, 32.41, -0.04083, -0.80652, 0.04846, -0.58771,
 16:07:13.586,ed:40:fe:65:30:6c, 2015-01-01 01:19:28.625, 0.884, 0, 0.48, 0.122, 0.061, 0, 0.093, -61.578, -126.661, -27.180, -11.533, 3.760, 27.77, 0.38599, -0.45709, -0.23041, -0.7674,
 16:07:13.586,ed:40:fe:65:30:6c, 2015-01-01 01:19:28.625, 0.881, 0, 0.479, 0.061, 0, 0, 0.099, -61.573, -126.667, -27.180, -11.533, 3.760, 27.77, 0.38599, -0.45709, -0.23041, -0.7674,
 16:07:13.590,ed:35:33:d3:6c:f8, 2015-01-01 01:19:40.600, 0.865, 0.01, 0.491, 0.061, 0.244, 0, 1.115, -60.364, 177.61, -20.733, -11.733, -12.607, 32.72, -0.0127, -0.50314, 0.00183, -0.86404,
 16:07:13.590,ed:35:33:d3:6c:f8, 2015-01-01 01:19:40.600, 0.864, 0.011, 0.491, 0, 0.183, 0, 1.121, -60.364, 177.605, -20.733, -11.733, -12.607, 32.72, -0.0127, -0.50314, 0.00183, -0.86404,
 16:07:13.610,ed:40:fe:65:30:6c, 2015-01-01 01:19:28.980, 0.882, 0.002, 0.48, 0, 0, 0, 0.099, -61.573, -126.672, -27.180, -11.533, 3.760, 27.77, 0.38599, -0.45709, -0.23041, -0.7674,
 16:07:13.610,ed:40:fe:65:30:6c, 2015-01-01 01:19:28.980, 0.883, 0.001, 0.48, 0, 0, 0, 0.099, -61.573, -126.678, -27.180, -11.533, 3.760, 27.77, 0.38599, -0.45709, -0.23041, -0.7674,
 16:07:13.611,ed:35:33:d3:6c:f8, 2015-01-01 01:19:40.600, 0.865, 0.012, 0.492, 0, 0.122, 0, 1.121, -60.359, 177.594, -20.920, -11.753, -12.720, 32.72, -0.0127, -0.50314, 0.00183, -0.86404,
 16:07:13.611,ed:35:33:d3:6c:f8, 2015-01-01 01:19:40.600, 0.866, 0.01, 0.492, 0, 0.061, 0, 1.121, -60.359, 177.589, -20.920, -11.753, -12.720, 32.72, -0.0127, -0.50314, 0.00183, -0.86404,
 16:07:13.611,e3:ca:2d:fd:e0:8c, 2015-01-01 01:19:49.950, 0.96, -0.216, -0.273, 0, 0, 0, -141.724, -70.032, -71.153, -28.433, -9.147, -2.680, 28.91, 0.09711, 0.73868, -0.29724, 0.59705,
 16:07:13.611,e3:ca:2d:fd:e0:8c, 2015-01-01 01:19:49.950, 0.96, -0.216, -0.273, 0, 0, 0, -141.724, -70.032, -71.153, -28.433, -9.147, -2.680, 28.91, 0.09711, 0.73868, -0.29724, 0.59705,
 16:07:13.613,f6:90:cc:01:6d:25, 2015-01-01 01:19:38.525, 0.94, 0.009, -0.3, 0, 0, 0, 178.33, -72.186, -5.63, -28.647, -16.547, 6.340, 32.41, -0.04083, -0.80652, 0.04846, -0.58771,
 16:07:13.613,f6:90:cc:01:6d:25, 2015-01-01 01:19:38.525, 0.94, 0.009, -0.302, -0.061, 0, 0, 178.33, -72.191, -5.625, -28.647, -16.547, 6.340, 32.41, -0.04083, -0.80652, 0.04846, -0.58771,
 16:07:13.633,e3:ca:2d:fd:e0:8c, 2015-01-01 01:19:49.950, 0.96, -0.216, -0.273, 0, 0, 0, -141.724, -70.032, -71.153, -28.093, -9.107, -2.513, 28.91, 0.09711, 0.73868, -0.29724, 0.59705,
 16:07:13.633,e3:ca:2d:fd:e0:8c, 2015-01-01 01:19:49.950, 0.96, -0.217, -0.272, 0, 0, 0, -141.718, -70.032, -71.153, -28.093, -9.107, -2.513, 28.91, 0.09711, 0.73868, -0.29724, 0.59705,
 16:07:13.654,ed:40:fe:65:30:6c, 2015-01-01 01:19:28.980, 0.884, 0, 0.48, 0, 0, 0, 0.099, -61.573, -126.683, -27.180, -11.533, 3.760, 27.77, 0.38599, -0.45709, -0.23041, -0.7674,
 16:07:13.654,ed:40:fe:65:30:6c, 2015-01-01 01:19:28.980, 0.885, 0, 0.479, 0, -0.061, 0, 0.099, -61.567, -126.689, -27.180, -11.533, 3.760, 27.77, 0.38599, -0.45709, -0.23041, -0.7674,
 16:07:13.657,ed:35:33:d3:6c:f8, 2015-01-01 01:19:40.600, 0.868, 0.008, 0.49, 0, 0, 0, 1.121, -60.359, 177.583, -20.920, -11.753, -12.720, 32.72, -0.0127, -0.50314, 0.00183, -0.86404,
 16:07:13.657,ed:35:33:d3:6c:f8, 2015-01-01 01:19:40.600, 0.864, 0.009, 0.492, 0, -0.122, 0, 1.121, -60.364, 177.578, -20.920, -11.753, -12.720, 32.72, -0.0127, -0.50314, 0.00183, -0.86404,
 16:07:13.658,f6:90:cc:01:6d:25, 2015-01-01 01:19:38.525, 0.94, 0.008, -0.301, -0.061, 0, 0, 178.325, -72.191, -5.62, -28.647, -16.547, 6.340, 32.41, -0.04083, -0.80652, 0.04846, -0.58771,
 16:07:13.658,f6:90:cc:01:6d:25, 2015-01-01 01:19:38.525, 0.939, 0.009, -0.3, 0.061, 0, 0, 178.325, -72.191, -5.614, -28.647, -16.547, 6.340, 32.41, -0.04083, -0.80652, 0.04846, -0.58771,
 16:07:13.678,e3:ca:2d:fd:e0:8c, 2015-01-01 01:19:49.950, 0.96, -0.216, -0.273, 0, 0, 0, -141.718, -70.032, -71.153, -28.093, -9.107, -2.513, 28.91, 0.09711, 0.73868, -0.29724, 0.59705,
 16:07:13.678,e3:ca:2d:fd:e0:8c, 2015-01-01 01:19:49.950, 0.96, -0.215, -0.272, 0, 0, 0, -141.718, -70.032, -71.158, -28.093, -9.107, -2.513, 28.91, 0.09711, 0.73868, -0.29724, 0.59705,
 16:07:13.699,ed:40:fe:65:30:6c, 2015-01-01 01:19:28.980, 0.881, 0, 0.479, 0, -0.183, 0, 0.099, -61.573, -126.694, -27.180, -11.533, 3.760, 27.77, 0.38599, -0.45709, -0.23041, -0.7674,
 16:07:13.699,ed:40:fe:65:30:6c, 2015-01-01 01:19:28.980, 0.885, 0, 0.479, 0, -0.183, 0, 0.093, -61.573, -126.7, -27.180, -11.533, 3.760, 27.77, 0.38599, -0.45709, -0.23041, -0.7674,
 16:07:13.703,f6:90:cc:01:6d:25, 2015-01-01 01:19:38.525, 0.94, 0.009, -0.301, 0, 0.122, 0, 178.33, -72.191, -5.609, -28.647, -16.547, 6.340, 32.41, -0.04083, -0.80652, 0.04846, -0.58771,
 16:07:13.703,f6:90:cc:01:6d:25, 2015-01-01 01:19:38.525, 0.941, 0.008, -0.304, -0.061, 0.244, 0, 178.325, -72.197, -5.609, -28.647, -16.547, 6.340, 32.41, -0.04083, -0.80652, 0.04846, -0.58771,
 16:07:13.722,ed:40:fe:65:30:6c, 2015-01-01 01:19:28.980, 0.885, 0, 0.477, -0.366, 0.244, 0, 0.093, -61.573, -126.705, -27.180, -11.533, 3.760, 27.77, 0.38599, -0.45709, -0.23041, -0.7674,
 16:07:13.722,ed:40:fe:65:30:6c, 2015-01-01 01:19:28.980, 0.885, 0, 0.48, -0.061, 0.061, 0, 0.088, -61.567, -126.711, -27.180, -11.533, 3.760, 27.77, 0.38599, -0.45709, -0.23041, -0.7674,
 16:07:13.723,ed:35:33:d3:6c:f8, 2015-01-01 01:19:40.600, 0.866, 0.01, 0.49, 0.122, -0.122, 0, 1.121, -60.364, 177.572, -20.920, -11.753, -12.720, 32.72, -0.01328, -0.50278, 0.00211, -0.86426,
 16:07:13.723,ed:35:33:d3:6c:f8, 2015-01-01 01:19:40.600, 0.867, 0.008, 0.486, -0.366, 0.427, 0, 1.121, -60.359, 177.567, -20.920, -11.753, -12.720, 32.72, -0.01328, -0.50278, 0.00211, -0.86426,
 16:07:13.726,f6:90:cc:01:6d:25, 2015-01-01 01:19:38.525, 0.941, 0.008, -0.301, 0, 0.122, 0, 178.325, -72.197, -5.603, -27.893, -16.707, 5.887, 32.41, -0.04083, -0.80652, 0.04846, -0.58771,
 16:07:13.726,f6:90:cc:01:6d:25, 2015-01-01 01:19:38.525, 0.94, 0.008, -0.303, 0, -0.122, 0, 178.325, -72.202, -5.598, -27.893, -16.707, 5.887, 32.41, -0.04083, -0.80652, 0.04846, -0.58771,
 16:07:13.746,e3:ca:2d:fd:e0:8c, 2015-01-01 01:19:49.950, 0.96, -0.217, -0.273, 0, 0, 0, -141.713, -70.032, -71.158, -28.093, -9.107, -2.513, 28.91, 0.09698, 0.73871, -0.29712, 0.59711,
 16:07:13.746,e3:ca:2d:fd:e0:8c, 2015-01-01 01:19:49.950, 0.96, -0.217, -0.275, 0, 0, 0, -141.713, -70.032, -71.158, -28.093, -9.107, -2.513, 28.91, 0.09698, 0.73871, -0.29712, 0.59711,
 16:07:13.748,ed:35:33:d3:6c:f8, 2015-01-01 01:19:40.960, 0.868, 0.01, 0.493, -0.183, 0.244, 0, 1.115, -60.359, 177.561, -20.920, -11.753, -12.720, 32.72, -0.01328, -0.50278, 0.00211, -0.86426,
 16:07:13.748,ed:35:33:d3:6c:f8, 2015-01-01 01:19:40.960, 0.864, 0.012, 0.494, 0.061, -0.244, 0, 1.115, -60.359, 177.556, -20.920, -11.753, -12.720, 32.72, -0.01328, -0.50278, 0.00211, -0.86426,
 16:07:13.768,e3:ca:2d:fd:e0:8c, 2015-01-01 01:19:50.285, 0.96, -0.217, -0.276, 0, 0, 0, -141.713, -70.032, -71.158, -28.093, -9.107, -2.513, 28.91, 0.09698, 0.73871, -0.29712, 0.59711,
 16:07:13.768,e3:ca:2d:fd:e0:8c, 2015-01-01 01:19:50.285, 0.96, -0.217, -0.276, 0, 0, 0, -141.713, -70.032, -71.158, -28.093, -9.107, -2.513, 28.91, 0.09698, 0.73871, -0.29712, 0.59711,
 16:07:13.768,ed:35:33:d3:6c:f8, 2015-01-01 01:19:40.960, 0.863, 0.01, 0.494, 0.061, -0.977, 0.427, 1.104, -60.375, 177.561, -20.920, -11.753, -12.720, 32.72, -0.01328, -0.50278, 0.00211, -0.86426,
 16:07:13.768,ed:35:33:d3:6c:f8, 2015-01-01 01:19:40.960, 0.863, 0.008, 0.495, -0.122, -1.099, 0.244, 1.093, -60.397, 177.567, -20.920, -11.753, -12.720, 32.72, -0.01328, -0.50278, 0.00211, -0.86426,
 16:07:13.770,f6:90:cc:01:6d:25, 2015-01-01 01:19:38.525, 0.94, 0.009, -0.303, 0, -0.183, 0, 178.325, -72.197, -5.592, -27.893, -16.707, 5.887, 32.41, -0.04083, -0.80652, 0.04846, -0.58771,
 16:07:13.770,f6:90:cc:01:6d:25, 2015-01-01 01:19:38.525, 0.939, 0.009, -0.302, -0.061, -0.244, 0, 178.33, -72.191, -5.592, -27.893, -16.707, 5.887, 32.41, -0.04083, -0.80652, 0.04846, -0.58771,
 16:07:13.790,ed:40:fe:65:30:6c, 2015-01-01 01:19:28.980, 0.88, 0.001, 0.48, 0.061, -0.549, 0, 0.088, -61.573, -126.716, -27.180, -11.533, 3.760, 27.77, 0.38599, -0.45709, -0.23041, -0.7674,
 16:07:13.790,ed:40:fe:65:30:6c, 2015-01-01 01:19:28.980, 0.881, 0, 0.483, 0, -0.732, 0.305, 0.082, -61.584, -126.716, -27.180, -11.533, 3.760, 27.77, 0.38599, -0.45709, -0.23041, -0.7674,
 16:07:13.791,e3:ca:2d:fd:e0:8c, 2015-01-01 01:19:50.285, 0.96, -0.216, -0.275, 0, 0, 0, -141.713, -70.032, -71.158, -28.093, -9.107, -2.513, 28.91, 0.09698, 0.73871, -0.29712, 0.59711,
 16:07:13.791,e3:ca:2d:fd:e0:8c, 2015-01-01 01:19:50.285, 0.96, -0.216, -0.274, 0, 0, 0, -141.713, -70.032, -71.158, -28.093, -9.107, -2.513, 28.91, 0.09698, 0.73871, -0.29712, 0.59711,
 16:07:13.812,ed:40:fe:65:30:6c, 2015-01-01 01:19:28.980, 0.88, 0, 0.481, -0.183, -0.732, 0.183, 0.071, -61.595, -126.711, -27.087, -11.500, 3.673, 27.77, 0.38599, -0.45709, -0.23041, -0.7674,
 16:07:13.812,ed:40:fe:65:30:6c, 2015-01-01 01:19:28.980, 0.881, 0, 0.48, 0, -0.854, 0.122, 0.06, -61.611, -126.711, -27.087, -11.500, 3.673, 27.77, 0.38599, -0.45709, -0.23041, -0.7674,
 16:07:13.814,ed:35:33:d3:6c:f8, 2015-01-01 01:19:40.960, 0.862, 0.01, 0.491, 0, -1.16, 0.183, 1.088, -60.419, 177.55, -20.920, -11.753, -12.720, 32.72, -0.01328, -0.50278, 0.00211, -0.86426,
 16:07:13.814,ed:35:33:d3:6c:f8, 2015-01-01 01:19:40.960, 0.866, 0.009, 0.488, 0.183, -1.099, 0.244, 1.088, -60.441, 177.523, -20.920, -11.753, -12.720, 32.72, -0.01328, -0.50278, 0.00211, -0.86426,
 16:07:13.815,f6:90:cc:01:6d:25, 2015-01-01 01:19:38.525, 0.94, 0.008, -0.301, 0, -0.244, 0, 178.33, -72.186, -5.587, -27.893, -16.707, 5.887, 32.41, -0.0405, -0.80649, 0.04797, -0.5878,
 16:07:13.815,f6:90:cc:01:6d:25, 2015-01-01 01:19:38.525, 0.94, 0.008, -0.301, -0.061, -0.244, 0, 178.33, -72.186, -5.581, -27.893, -16.707, 5.887, 32.41, -0.0405, -0.80649, 0.04797, -0.5878,
 16:07:13.835,e3:ca:2d:fd:e0:8c, 2015-01-01 01:19:50.285, 0.959, -0.216, -0.272, 0, 0, 0, -141.713, -70.032, -71.158, -28.093, -9.107, -2.513, 28.91, 0.09698, 0.73871, -0.29712, 0.59711,
 16:07:13.835,e3:ca:2d:fd:e0:8c, 2015-01-01 01:19:50.285, 0.959, -0.216, -0.271, 0, 0, 0, -141.713, -70.032, -71.158, -28.093, -9.107, -2.513, 28.91, 0.09698, 0.73871, -0.29712, 0.59711,
 16:07:13.857,ed:40:fe:65:30:6c, 2015-01-01 01:19:28.980, 0.884, -0.001, 0.479, 0.183, -0.488, 0.061, 0.06, -61.622, -126.711, -27.087, -11.500, 3.673, 27.77, 0.38599, -0.45709, -0.23041, -0.7674,
 16:07:13.857,ed:40:fe:65:30:6c, 2015-01-01 01:19:28.980, 0.885, -0.001, 0.476, 0.122, -0.183, 0, 0.06, -61.628, -126.716, -27.087, -11.500, 3.673, 27.77, 0.38599, -0.45709, -0.23041, -0.7674,
 16:07:13.859,ed:35:33:d3:6c:f8, 2015-01-01 01:19:40.960, 0.868, 0.007, 0.486, 0.244, -0.671, 0.183, 1.082, -60.458, 177.512, -20.920, -11.753, -12.720, 32.72, -0.01328, -0.50278, 0.00211, -0.86426,
 16:07:13.859,ed:35:33:d3:6c:f8, 2015-01-01 01:19:40.960, 0.867, 0.008, 0.486, -0.061, -0.366, 0.061, 1.082, -60.463, 177.49, -20.920, -11.753, -12.720, 32.72, -0.01328, -0.50278, 0.00211, -0.86426,
 16:07:13.861,f6:90:cc:01:6d:25, 2015-01-01 01:19:38.840, 0.94, 0.008, -0.301, 0, -0.122, 0, 178.33, -72.18, -5.581, -27.893, -16.707, 5.887, 32.41, -0.0405, -0.80649, 0.04797, -0.5878,
 16:07:13.861,f6:90:cc:01:6d:25, 2015-01-01 01:19:38.840, 0.94, 0.008, -0.3, 0, 0, 0, 178.33, -72.18, -5.576, -27.893, -16.707, 5.887, 32.41, -0.0405, -0.80649, 0.04797, -0.5878,
 16:07:13.879,ed:40:fe:65:30:6c, 2015-01-01 01:19:28.980, 0.885, 0, 0.476, -0.122, -0.061, 0, 0.06, -61.628, -126.716, -27.087, -11.500, 3.673, 27.77, 0.38531, -0.45764, -0.2301, -0.76749,
 16:07:13.879,ed:40:fe:65:30:6c, 2015-01-01 01:19:28.980, 0.884, 0, 0.478, -0.122, -0.061, 0, 0.055, -61.628, -126.722, -27.087, -11.500, 3.673, 27.77, 0.38531, -0.45764, -0.2301, -0.76749,
 16:07:13.880,e3:ca:2d:fd:e0:8c, 2015-01-01 01:19:50.285, 0.959, -0.217, -0.271, 0, 0, 0, -141.713, -70.032, -71.158, -28.093, -9.107, -2.513, 28.91, 0.09698, 0.73871, -0.29712, 0.59711,
 16:07:13.880,e3:ca:2d:fd:e0:8c, 2015-01-01 01:19:50.285, 0.96, -0.217, -0.271, 0, 0, 0, -141.707, -70.032, -71.158, -28.093, -9.107, -2.513, 28.91, 0.09698, 0.73871, -0.29712, 0.59711,
 16:07:13.883,f6:90:cc:01:6d:25, 2015-01-01 01:19:38.840, 0.94, 0.007, -0.301, 0, 0, 0, 178.33, -72.18, -5.57, -27.893, -16.707, 5.887, 32.41, -0.0405, -0.80649, 0.04797, -0.5878,
 16:07:13.883,f6:90:cc:01:6d:25, 2015-01-01 01:19:38.840, 0.94, 0.008, -0.302, 0, 0, 0, 178.33, -72.18, -5.57, -27.893, -16.707, 5.887, 32.41, -0.0405, -0.80649, 0.04797, -0.5878,
 16:07:13.925,e3:ca:2d:fd:e0:8c, 2015-01-01 01:19:50.285, 0.961, -0.217, -0.273, 0, 0, 0, -141.707, -70.032, -71.158, -28.093, -9.107, -2.513, 28.91, 0.09698, 0.73871, -0.29712, 0.59711,
 16:07:13.925,e3:ca:2d:fd:e0:8c, 2015-01-01 01:19:50.285, 0.96, -0.217, -0.273, 0, 0, 0, -141.707, -70.032, -71.158, -28.093, -9.107, -2.513, 28.91, 0.09698, 0.73871, -0.29712, 0.59711,
 16:07:13.927,ed:35:33:d3:6c:f8, 2015-01-01 01:19:40.960, 0.868, 0.01, 0.488, -0.122, -0.244, 0, 1.077, -60.469, 177.484, -20.920, -11.753, -12.720, 32.72, -0.01328, -0.50278, 0.00211, -0.86426,
 16:07:13.927,ed:35:33:d3:6c:f8, 2015-01-01 01:19:40.960, 0.867, 0.01, 0.491, 0, -0.427, 0.122, 1.077, -60.48, 177.451, -20.920, -11.753, -12.720, 32.72, -0.01328, -0.50278, 0.00211, -0.86426,
 16:07:13.946,ed:40:fe:65:30:6c, 2015-01-01 01:19:28.980, 0.883, 0, 0.479, 0, -0.183, 0.122, 0.049, -61.628, -126.727, -27.087, -11.500, 3.673, 27.77, 0.38531, -0.45764, -0.2301, -0.76749,
 16:07:13.946,ed:40:fe:65:30:6c, 2015-01-01 01:19:28.980, 0.882, -0.001, 0.48, 0.122, -0.549, 0.183, 0.044, -61.633, -126.722, -27.087, -11.500, 3.673, 27.77, 0.38531, -0.45764, -0.2301, -0.76749,
 16:07:13.949,ed:35:33:d3:6c:f8, 2015-01-01 01:19:40.960, 0.864, 0.008, 0.492, 0.061, -0.854, 0.305, 1.066, -60.496, 177.429, -21.013, -11.580, -12.773, 32.72, -0.01328, -0.50278, 0.00211, -0.86426,
 16:07:13.949,ed:35:33:d3:6c:f8, 2015-01-01 01:19:40.960, 0.868, 0.008, 0.488, 0.061, -0.732, 0.244, 1.06, -60.507, 177.402, -21.013, -11.580, -12.773, 32.72, -0.01328, -0.50278, 0.00211, -0.86426,
 16:07:13.950,f6:90:cc:01:6d:25, 2015-01-01 01:19:38.840, 0.94, 0.008, -0.3, 0, 0, 0, 178.33, -72.18, -5.565, -27.893, -16.707, 5.887, 32.41, -0.0405, -0.80649, 0.04797, -0.5878,
 16:07:13.950,f6:90:cc:01:6d:25, 2015-01-01 01:19:38.840, 0.94, 0.008, -0.301, -0.061, 0, 0, 178.33, -72.18, -5.559, -27.893, -16.707, 5.887, 32.41, -0.0405, -0.80649, 0.04797, -0.5878,
 16:07:13.970,ed:40:fe:65:30:6c, 2015-01-01 01:19:29.340, 0.886, 0, 0.479, 0, -0.427, 0.061, 0.044, -61.644, -126.722, -27.087, -11.500, 3.673, 27.77, 0.38531, -0.45764, -0.2301, -0.76749,
 16:07:13.970,ed:40:fe:65:30:6c, 2015-01-01 01:19:29.340, 0.884, 0, 0.477, 0, -0.488, 0, 0.038, -61.65, -126.727, -27.087, -11.500, 3.673, 27.77, 0.38531, -0.45764, -0.2301, -0.76749,
 16:07:13.970,e3:ca:2d:fd:e0:8c, 2015-01-01 01:19:50.285, 0.96, -0.216, -0.271, 0, 0, 0, -141.702, -70.032, -71.158, -28.093, -9.107, -2.513, 28.91, 0.09698, 0.73871, -0.29712, 0.59711,
 16:07:13.970,e3:ca:2d:fd:e0:8c, 2015-01-01 01:19:50.285, 0.959, -0.216, -0.272, 0, 0, 0, -141.702, -70.032, -71.158, -28.093, -9.107, -2.513, 28.91, 0.09698, 0.73871, -0.29712, 0.59711,
 16:07:13.973,f6:90:cc:01:6d:25, 2015-01-01 01:19:38.840, 0.939, 0.008, -0.299, -0.061, 0, 0, 178.33, -72.18, -5.559, -27.893, -16.707, 5.887, 32.41, -0.0405, -0.80649, 0.04797, -0.5878,
 16:07:13.973,f6:90:cc:01:6d:25, 2015-01-01 01:19:38.840, 0.94, 0.009, -0.302, 0, 0, 0, 178.33, -72.18, -5.554, -27.893, -16.707, 5.887, 32.41, -0.0405, -0.80649, 0.04797, -0.5878,
 16:07:13.991,ed:40:fe:65:30:6c, 2015-01-01 01:19:29.340, 0.883, 0, 0.478, 0.122, -0.549, 0, 0.038, -61.661, -126.733, -27.087, -11.500, 3.673, 27.77, 0.38531, -0.45764, -0.2301, -0.76749,
 16:07:13.991,ed:40:fe:65:30:6c, 2015-01-01 01:19:29.340, 0.883, 0, 0.479, 0.122, -0.488, 0.061, 0.038, -61.672, -126.733, -27.087, -11.500, 3.673, 27.77, 0.38531, -0.45764, -0.2301, -0.76749,
 16:07:13.992,e3:ca:2d:fd:e0:8c, 2015-01-01 01:19:50.285, 0.96, -0.216, -0.273, 0, 0, 0, -141.702, -70.032, -71.158, -28.367, -9.213, -2.987, 28.91, 0.09698, 0.73871, -0.29712, 0.59711,
 16:07:13.992,e3:ca:2d:fd:e0:8c, 2015-01-01 01:19:50.285, 0.96, -0.216, -0.274, 0, 0, 0, -141.696, -70.032, -71.158, -28.367, -9.213, -2.987, 28.91, 0.09698, 0.73871, -0.29712, 0.59711,
 16:07:13.994,ed:35:33:d3:6c:f8, 2015-01-01 01:19:40.960, 0.866, 0.009, 0.488, 0, -0.549, 0.061, 1.055, -60.524, 177.369, -21.013, -11.580, -12.773, 32.72, -0.01328, -0.50278, 0.00211, -0.86426,
 16:07:13.994,ed:35:33:d3:6c:f8, 2015-01-01 01:19:40.960, 0.866, 0.009, 0.487, 0.122, -0.488, 0.061, 1.055, -60.529, 177.363, -21.013, -11.580, -12.773, 32.72, -0.01328, -0.50278, 0.00211, -0.86426,
 16:07:14.018,ed:35:33:d3:6c:f8, 2015-01-01 01:19:40.960, 0.867, 0.01, 0.488, 0.183, -0.549, 0.183, 1.055, -60.54, 177.369, -21.013, -11.580, -12.773, 32.72, -0.01517, -0.50406, 0.00357, -0.86346,
 16:07:14.018,ed:35:33:d3:6c:f8, 2015-01-01 01:19:40.960, 0.866, 0.009, 0.489, 0.061, -0.61, 0.122, 1.055, -60.557, 177.358, -21.013, -11.580, -12.773, 32.72, -0.01517, -0.50406, 0.00357, -0.86346,
 16:07:14.018,f6:90:cc:01:6d:25, 2015-01-01 01:19:38.840, 0.94, 0.008, -0.302, 0, 0, 0, 178.336, -72.18, -5.554, -27.893, -16.707, 5.887, 32.41, -0.0405, -0.80649, 0.04797, -0.5878,
 16:07:14.018,f6:90:cc:01:6d:25, 2015-01-01 01:19:38.840, 0.94, 0.009, -0.302, -0.061, 0, 0, 178.336, -72.18, -5.548, -27.893, -16.707, 5.887, 32.41, -0.0405, -0.80649, 0.04797, -0.5878,
 16:07:14.036,ed:40:fe:65:30:6c, 2015-01-01 01:19:29.340, 0.883, 0, 0.478, 0, -0.488, 0.061, 0.038, -61.677, -126.733, -27.087, -11.500, 3.673, 27.77, 0.38531, -0.45764, -0.2301, -0.76749,
 16:07:14.036,ed:40:fe:65:30:6c, 2015-01-01 01:19:29.340, 0.883, 0.001, 0.478, 0.061, -0.488, 0, 0.038, -61.688, -126.738, -27.087, -11.500, 3.673, 27.77, 0.38531, -0.45764, -0.2301, -0.76749,
 16:07:14.038,e3:ca:2d:fd:e0:8c, 2015-01-01 01:19:50.285, 0.96, -0.216, -0.274, 0, 0, 0, -141.696, -70.032, -71.158, -28.367, -9.213, -2.987, 28.91, 0.09698, 0.73871, -0.29712, 0.59711,
 16:07:14.038,e3:ca:2d:fd:e0:8c, 2015-01-01 01:19:50.285, 0.96, -0.215, -0.273, 0, 0, 0, -141.696, -70.032, -71.158, -28.367, -9.213, -2.987, 28.91, 0.09698, 0.73871, -0.29712, 0.59711,
 16:07:14.063,f6:90:cc:01:6d:25, 2015-01-01 01:19:38.840, 0.939, 0.009, -0.301, -0.061, 0, 0, 178.33, -72.18, -5.543, -28.153, -16.527, 6.440, 32.41, -0.0405, -0.80649, 0.04797, -0.5878,
 16:07:14.063,f6:90:cc:01:6d:25, 2015-01-01 01:19:38.840, 0.94, 0.009, -0.302, 0, 0, 0, 178.33, -72.18, -5.543, -28.153, -16.527, 6.440, 32.41, -0.0405, -0.80649, 0.04797, -0.5878,
 16:07:14.082,ed:40:fe:65:30:6c, 2015-01-01 01:19:29.340, 0.885, 0.001, 0.478, 0, -0.305, -0.061, 0.038, -61.694, -126.744, -27.087, -11.500, 3.673, 27.77, 0.38531, -0.45764, -0.2301, -0.76749,
 16:07:14.082,ed:40:fe:65:30:6c, 2015-01-01 01:19:29.340, 0.886, 0, 0.477, 0, -0.183, -0.061, 0.038, -61.694, -126.749, -27.087, -11.500, 3.673, 27.77, 0.38531, -0.45764, -0.2301, -0.76749,
 16:07:14.084,ed:35:33:d3:6c:f8, 2015-01-01 01:19:40.960, 0.865, 0.009, 0.488, 0.061, -0.671, 0.122, 1.049, -60.568, 177.341, -21.013, -11.580, -12.773, 32.72, -0.01517, -0.50406, 0.00357, -0.86346,
 16:07:14.084,ed:35:33:d3:6c:f8, 2015-01-01 01:19:40.960, 0.867, 0.01, 0.487, 0, -0.732, 0.061, 1.049, -60.584, 177.314, -21.013, -11.580, -12.773, 32.72, -0.01517, -0.50406, 0.00357, -0.86346,
 16:07:14.085,f6:90:cc:01:6d:25, 2015-01-01 01:19:38.840, 0.94, 0.008, -0.303, 0, -0.061, 0, 178.33, -72.18, -5.537, -28.153, -16.527, 6.440, 32.41, -0.04019, -0.80658, 0.04758, -0.58774,
 16:07:14.085,f6:90:cc:01:6d:25, 2015-01-01 01:19:38.840, 0.939, 0.009, -0.303, 0, -0.061, 0, 178.33, -72.18, -5.537, -28.153, -16.527, 6.440, 32.41, -0.04019, -0.80658, 0.04758, -0.58774,
 16:07:14.106,e3:ca:2d:fd:e0:8c, 2015-01-01 01:19:50.285, 0.96, -0.216, -0.274, 0, 0, 0, -141.696, -70.032, -71.158, -28.367, -9.213, -2.987, 28.91, 0.09686, 0.73871, -0.29703, 0.59717,
 16:07:14.106,e3:ca:2d:fd:e0:8c, 2015-01-01 01:19:50.285, 0.96, -0.216, -0.274, 0, 0, 0, -141.696, -70.032, -71.158, -28.367, -9.213, -2.987, 28.91, 0.09686, 0.73871, -0.29703, 0.59717,
 16:07:14.106,ed:35:33:d3:6c:f8, 2015-01-01 01:19:41.295, 0.869, 0.01, 0.486, 0, -0.488, 0, 1.049, -60.595, 177.281, -21.013, -11.580, -12.773, 32.72, -0.01517, -0.50406, 0.00357, -0.86346,
 16:07:14.106,ed:35:33:d3:6c:f8, 2015-01-01 01:19:41.295, 0.869, 0.01, 0.486, 0, -0.427, 0, 1.049, -60.601, 177.242, -21.013, -11.580, -12.773, 32.72, -0.01517, -0.50406, 0.00357, -0.86346,
 16:07:14.129,e3:ca:2d:fd:e0:8c, 2015-01-01 01:19:50.645, 0.96, -0.216, -0.275, 0, 0, 0, -141.696, -70.032, -71.158, -28.367, -9.213, -2.987, 28.91, 0.09686, 0.73871, -0.29703, 0.59717,
 16:07:14.129,e3:ca:2d:fd:e0:8c, 2015-01-01 01:19:50.645, 0.96, -0.216, -0.274, 0, 0, 0, -141.696, -70.032, -71.158, -28.367, -9.213, -2.987, 28.91, 0.09686, 0.73871, -0.29703, 0.59717,
 16:07:14.131,f6:90:cc:01:6d:25, 2015-01-01 01:19:38.840, 0.94, 0.009, -0.303, 0, -0.061, 0, 178.33, -72.18, -5.532, -28.153, -16.527, 6.440, 32.41, -0.04019, -0.80658, 0.04758, -0.58774,
 16:07:14.131,f6:90:cc:01:6d:25, 2015-01-01 01:19:38.840, 0.94, 0.008, -0.303, 0, 0, 0, 178.33, -72.18, -5.526, -28.153, -16.527, 6.440, 32.41, -0.04019, -0.80658, 0.04758, -0.58774,
 16:07:14.149,ed:40:fe:65:30:6c, 2015-01-01 01:19:29.340, 0.885, 0, 0.476, 0, -0.244, -0.061, 0.044, -61.699, -126.76, -27.087, -11.500, 3.673, 27.77, 0.38531, -0.45764, -0.2301, -0.76749,
 16:07:14.149,ed:40:fe:65:30:6c, 2015-01-01 01:19:29.340, 0.885, 0, 0.476, 0, -0.305, 0, 0.044, -61.705, -126.76, -27.087, -11.500, 3.673, 27.77, 0.38531, -0.45764, -0.2301, -0.76749,
 16:07:14.150,e3:ca:2d:fd:e0:8c, 2015-01-01 01:19:50.645, 0.959, -0.216, -0.274, 0, 0, 0, -141.696, -70.032, -71.158, -28.367, -9.213, -2.987, 28.91, 0.09686, 0.73871, -0.29703, 0.59717,
 16:07:14.150,e3:ca:2d:fd:e0:8c, 2015-01-01 01:19:50.645, 0.959, -0.216, -0.274, 0, 0, 0, -141.696, -70.032, -71.158, -28.367, -9.213, -2.987, 28.91, 0.09686, 0.73871, -0.29703, 0.59717,
 16:07:14.152,ed:35:33:d3:6c:f8, 2015-01-01 01:19:41.295, 0.869, 0.01, 0.486, 0, -0.488, 0, 1.055, -60.612, 177.237, -21.013, -11.580, -12.773, 32.72, -0.01517, -0.50406, 0.00357, -0.86346,
 16:07:14.152,ed:35:33:d3:6c:f8, 2015-01-01 01:19:41.295, 0.869, 0.009, 0.485, 0.061, -0.549, 0.061, 1.055, -60.623, 177.248, -21.013, -11.580, -12.773, 32.72, -0.01517, -0.50406, 0.00357, -0.86346,
 16:07:14.172,ed:40:fe:65:30:6c, 2015-01-01 01:19:29.340, 0.885, 0, 0.476, 0, -0.244, 0, 0.044, -61.71, -126.766, -27.000, -11.613, 3.720, 27.77, 0.38531, -0.45764, -0.2301, -0.76749,
 16:07:14.172,ed:40:fe:65:30:6c, 2015-01-01 01:19:29.340, 0.885, 0, 0.477, 0, -0.305, 0, 0.044, -61.71, -126.771, -27.000, -11.613, 3.720, 27.77, 0.38531, -0.45764, -0.2301, -0.76749,
 16:07:14.174,ed:35:33:d3:6c:f8, 2015-01-01 01:19:41.295, 0.868, 0.009, 0.485, 0, -0.549, 0.061, 1.055, -60.634, 177.275, -21.013, -11.580, -12.773, 32.72, -0.01517, -0.50406, 0.00357, -0.86346,
 16:07:14.174,ed:35:33:d3:6c:f8, 2015-01-01 01:19:41.295, 0.868, 0.01, 0.486, -0.061, -0.488, 0.061, 1.049, -60.645, 177.308, -21.013, -11.580, -12.773, 32.72, -0.01517, -0.50406, 0.00357, -0.86346,
 16:07:14.175,f6:90:cc:01:6d:25, 2015-01-01 01:19:39.130, 0.939, 0.009, -0.302, 0, 0, 0, 178.33, -72.18, -5.526, -28.153, -16.527, 6.440, 32.41, -0.04019, -0.80658, 0.04758, -0.58774,
 16:07:14.175,f6:90:cc:01:6d:25, 2015-01-01 01:19:39.130, 0.94, 0.008, -0.302, -0.061, 0, 0, 178.33, -72.18, -5.521, -28.153, -16.527, 6.440, 32.41, -0.04019, -0.80658, 0.04758, -0.58774,
 16:07:14.196,e3:ca:2d:fd:e0:8c, 2015-01-01 01:19:50.645, 0.96, -0.216, -0.273, 0, 0, 0, -141.696, -70.032, -71.158, -28.367, -9.213, -2.987, 28.91, 0.09686, 0.73871, -0.29703, 0.59717,
 16:07:14.196,e3:ca:2d:fd:e0:8c, 2015-01-01 01:19:50.645, 0.959, -0.216, -0.273, 0, 0, 0, -141.696, -70.032, -71.158, -28.367, -9.213, -2.987, 28.91, 0.09686, 0.73871, -0.29703, 0.59717,
 16:07:14.217,ed:40:fe:65:30:6c, 2015-01-01 01:19:29.340, 0.884, 0, 0.477, -0.122, -0.366, 0.061, 0.044, -61.721, -126.771, -27.000, -11.613, 3.720, 27.77, 0.38531, -0.45764, -0.2301, -0.76749,
 16:07:14.217,ed:40:fe:65:30:6c, 2015-01-01 01:19:29.340, 0.884, 0, 0.477, -0.061, -0.244, 0.061, 0.038, -61.727, -126.777, -27.000, -11.613, 3.720, 27.77, 0.38531, -0.45764, -0.2301, -0.76749,
 16:07:14.221,f6:90:cc:01:6d:25, 2015-01-01 01:19:39.130, 0.94, 0.008, -0.302, -0.061, 0, 0, 178.33, -72.18, -5.521, -28.153, -16.527, 6.440, 32.41, -0.04019, -0.80658, 0.04758, -0.58774,
 16:07:14.221,f6:90:cc:01:6d:25, 2015-01-01 01:19:39.130, 0.94, 0.008, -0.301, -0.061, 0, 0, 178.325, -72.18, -5.515, -28.153, -16.527, 6.440, 32.41, -0.04019, -0.80658, 0.04758, -0.58774,
 16:07:14.221,ed:35:33:d3:6c:f8, 2015-01-01 01:19:41.295, 0.868, 0.009, 0.485, -0.061, -0.366, 0.061, 1.049, -60.656, 177.336, -21.013, -11.580, -12.773, 32.72, -0.01517, -0.50406, 0.00357, -0.86346,
 16:07:14.221,ed:35:33:d3:6c:f8, 2015-01-01 01:19:41.295, 0.868, 0.007, 0.485, 0, -0.366, 0.061, 1.049, -60.661, 177.352, -21.013, -11.580, -12.773, 32.72, -0.01517, -0.50406, 0.00357, -0.86346,
 16:07:14.240,e3:ca:2d:fd:e0:8c, 2015-01-01 01:19:50.645, 0.96, -0.216, -0.273, 0, 0, 0, -141.696, -70.032, -71.158, -28.367, -9.213, -2.987, 28.91, 0.09686, 0.73871, -0.29703, 0.59717,
 16:07:14.240,e3:ca:2d:fd:e0:8c, 2015-01-01 01:19:50.645, 0.96, -0.216, -0.273, 0, 0, 0, -141.696, -70.032, -71.158, -28.367, -9.213, -2.987, 28.91, 0.09686, 0.73871, -0.29703, 0.59717,
 16:07:14.240,ed:40:fe:65:30:6c, 2015-01-01 01:19:29.340, 0.884, 0, 0.477, 0, -0.305, 0, 0.033, -61.727, -126.777, -27.000, -11.613, 3.720, 27.77, 0.38461, -0.4585, -0.23001, -0.76733,
 16:07:14.240,ed:40:fe:65:30:6c, 2015-01-01 01:19:29.340, 0.884, 0, 0.478, 0, -0.305, 0, 0.033, -61.732, -126.782, -27.000, -11.613, 3.720, 27.77, 0.38461, -0.4585, -0.23001, -0.76733,
 16:07:14.266,f6:90:cc:01:6d:25, 2015-01-01 01:19:39.130, 0.94, 0.008, -0.302, 0, 0, 0, 178.325, -72.18, -5.515, -28.153, -16.527, 6.440, 32.41, -0.04019, -0.80658, 0.04758, -0.58774,
 16:07:14.266,f6:90:cc:01:6d:25, 2015-01-01 01:19:39.130, 0.94, 0.008, -0.302, 0, 0, 0, 178.33, -72.18, -5.51, -28.153, -16.527, 6.440, 32.41, -0.04019, -0.80658, 0.04758, -0.58774,
 16:07:14.284,ed:40:fe:65:30:6c, 2015-01-01 01:19:29.340, 0.884, -0.001, 0.477, 0, -0.244, 0, 0.033, -61.738, -126.788, -27.000, -11.613, 3.720, 27.77, 0.38461, -0.4585, -0.23001, -0.76733,
 16:07:14.284,ed:40:fe:65:30:6c, 2015-01-01 01:19:29.340, 0.882, 0, 0.477, 0.122, -0.183, 0, 0.033, -61.743, -126.788, -27.000, -11.613, 3.720, 27.77, 0.38461, -0.4585, -0.23001, -0.76733,
 16:07:14.285,e3:ca:2d:fd:e0:8c, 2015-01-01 01:19:50.645, 0.959, -0.217, -0.273, 0, 0, 0, -141.696, -70.032, -71.158, -28.367, -9.213, -2.987, 28.91, 0.09686, 0.73871, -0.29703, 0.59717,
 16:07:14.285,e3:ca:2d:fd:e0:8c, 2015-01-01 01:19:50.645, 0.96, -0.217, -0.273, 0, 0, 0, -141.696, -70.032, -71.158, -28.367, -9.213, -2.987, 28.91, 0.09686, 0.73871, -0.29703, 0.59717,
 16:07:14.286,ed:35:33:d3:6c:f8, 2015-01-01 01:19:41.295, 0.867, 0.008, 0.487, 0, -0.427, 0, 1.049, -60.672, 177.385, -21.013, -11.580, -12.773, 32.72, -0.01517, -0.50406, 0.00357, -0.86346,
 16:07:14.286,ed:35:33:d3:6c:f8, 2015-01-01 01:19:41.295, 0.868, 0.009, 0.485, 0.061, -0.366, 0, 1.049, -60.677, 177.391, -21.013, -11.580, -12.773, 32.72, -0.01517, -0.50406, 0.00357, -0.86346,
 16:07:14.287,f6:90:cc:01:6d:25, 2015-01-01 01:19:39.130, 0.94, 0.008, -0.301, 0, 0, 0, 178.33, -72.18, -5.504, -28.153, -16.527, 6.440, 32.41, -0.04019, -0.80658, 0.04758, -0.58774,
 16:07:14.287,f6:90:cc:01:6d:25, 2015-01-01 01:19:39.130, 0.94, 0.008, -0.3, 0, 0, 0, 178.33, -72.18, -5.504, -28.153, -16.527, 6.440, 32.41, -0.04019, -0.80658, 0.04758, -0.58774,
 16:07:14.330,e3:ca:2d:fd:e0:8c, 2015-01-01 01:19:50.645, 0.96, -0.217, -0.273, 0, 0, 0, -141.696, -70.032, -71.158, -28.367, -9.213, -2.987, 28.91, 0.09686, 0.73871, -0.29703, 0.59717,
 16:07:14.330,e3:ca:2d:fd:e0:8c, 2015-01-01 01:19:50.645, 0.96, -0.216, -0.273, 0, 0, 0, -141.691, -70.032, -71.158, -28.367, -9.213, -2.987, 28.91, 0.09686, 0.73871, -0.29703, 0.59717,
 16:07:14.330,ed:40:fe:65:30:6c, 2015-01-01 01:19:29.695, 0.883, 0, 0.479, 0.122, -0.183, 0, 0.033, -61.743, -126.793, -27.000, -11.613, 3.720, 27.77, 0.38461, -0.4585, -0.23001, -0.76733,
 16:07:14.330,ed:40:fe:65:30:6c, 2015-01-01 01:19:29.695, 0.884, 0, 0.478, 0.183, -0.122, 0, 0.038, -61.743, -126.799, -27.000, -11.613, 3.720, 27.77, 0.38461, -0.4585, -0.23001, -0.76733,
 16:07:14.332,ed:35:33:d3:6c:f8, 2015-01-01 01:19:41.295, 0.866, 0.009, 0.485, 0.183, -0.366, 0.122, 1.049, -60.688, 177.38, -20.533, -11.720, -12.240, 32.72, -0.01517, -0.50406, 0.00357, -0.86346,
 16:07:14.332,ed:35:33:d3:6c:f8, 2015-01-01 01:19:41.295, 0.867, 0.01, 0.486, 0.183, -0.305, 0.183, 1.049, -60.694, 177.396, -20.533, -11.720, -12.240, 32.72, -0.01517, -0.50406, 0.00357, -0.86346,
 16:07:14.333,f6:90:cc:01:6d:25, 2015-01-01 01:19:39.130, 0.94, 0.009, -0.302, 0, 0, 0, 178.33, -72.18, -5.499, -28.153, -16.527, 6.440, 32.41, -0.04019, -0.80658, 0.04758, -0.58774,
 16:07:14.333,f6:90:cc:01:6d:25, 2015-01-01 01:19:39.130, 0.94, 0.009, -0.303, -0.061, -0.061, 0, 178.33, -72.18, -5.499, -28.153, -16.527, 6.440, 32.41, -0.04019, -0.80658, 0.04758, -0.58774,
 16:07:14.353,e3:ca:2d:fd:e0:8c, 2015-01-01 01:19:50.645, 0.96, -0.216, -0.274, 0, 0, 0, -141.691, -70.032, -71.158, -28.287, -9.187, -2.180, 28.91, 0.09686, 0.73871, -0.29703, 0.59717,
 16:07:14.353,e3:ca:2d:fd:e0:8c, 2015-01-01 01:19:50.645, 0.96, -0.216, -0.273, 0, 0, 0, -141.691, -70.032, -71.158, -28.287, -9.187, -2.180, 28.91, 0.09686, 0.73871, -0.29703, 0.59717,
 16:07:14.377,ed:35:33:d3:6c:f8, 2015-01-01 01:19:41.295, 0.868, 0.008, 0.487, 0.244, -0.305, 0.244, 1.044, -60.699, 177.413, -20.533, -11.720, -12.240, 32.72, -0.01517, -0.50406, 0.00357, -0.86346,
 16:07:14.377,ed:35:33:d3:6c:f8, 2015-01-01 01:19:41.295, 0.868, 0.008, 0.487, 0.183, -0.305, 0.305, 1.038, -60.705, 177.457, -20.533, -11.720, -12.240, 32.72, -0.01517, -0.50406, 0.00357, -0.86346,
 16:07:14.378,f6:90:cc:01:6d:25, 2015-01-01 01:19:39.130, 0.939, 0.009, -0.301, -0.061, -0.061, 0, 178.33, -72.175, -5.493, -28.220, -16.553, 6.853, 32.41, -0.04019, -0.80658, 0.04758, -0.58774,
 16:07:14.378,f6:90:cc:01:6d:25, 2015-01-01 01:19:39.130, 0.94, 0.009, -0.303, 0, 0, 0, 178.33, -72.175, -5.493, -28.220, -16.553, 6.853, 32.41, -0.04019, -0.80658, 0.04758, -0.58774,
 16:07:14.398,e3:ca:2d:fd:e0:8c, 2015-01-01 01:19:50.645, 0.959, -0.216, -0.273, 0, 0, 0, -141.691, -70.032, -71.158, -28.287, -9.187, -2.180, 28.91, 0.09686, 0.73871, -0.29703, 0.59717,
 16:07:14.398,e3:ca:2d:fd:e0:8c, 2015-01-01 01:19:50.645, 0.959, -0.217, -0.271, 0, 0, 0, -141.691, -70.032, -71.158, -28.287, -9.187, -2.180, 28.91, 0.09686, 0.73871, -0.29703, 0.59717,
 16:07:14.399,ed:35:33:d3:6c:f8, 2015-01-01 01:19:41.295, 0.871, 0.009, 0.485, 0, -0.183, 0.183, 1.033, -60.71, 177.528, -20.533, -11.720, -12.240, 32.72, -0.0144, -0.50537, 0.0033, -0.86273,
 16:07:14.399,ed:35:33:d3:6c:f8, 2015-01-01 01:19:41.295, 0.869, 0.01, 0.483, 0.244, -0.122, 0.122, 1.033, -60.716, 177.567, -20.533, -11.720, -12.240, 32.72, -0.0144, -0.50537, 0.0033, -0.86273,
 16:07:14.419,ed:40:fe:65:30:6c, 2015-01-01 01:19:29.695, 0.884, 0, 0.478, 0.122, -0.183, 0, 0.038, -61.749, -126.799, -27.000, -11.613, 3.720, 27.77, 0.38461, -0.4585, -0.23001, -0.76733,
 16:07:14.419,ed:40:fe:65:30:6c, 2015-01-01 01:19:29.695, 0.887, 0, 0.477, 0, -0.183, 0, 0.038, -61.749, -126.804, -27.000, -11.613, 3.720, 27.77, 0.38461, -0.4585, -0.23001, -0.76733,
 16:07:14.423,f6:90:cc:01:6d:25, 2015-01-01 01:19:39.130, 0.94, 0.008, -0.302, -0.122, 0.122, 0, 178.325, -72.18, -5.488, -28.220, -16.553, 6.853, 32.41, -0.03998, -0.80661, 0.04727, -0.58774,
 16:07:14.423,f6:90:cc:01:6d:25, 2015-01-01 01:19:39.130, 0.941, 0.007, -0.304, -0.122, 0.183, 0, 178.325, -72.18, -5.488, -28.220, -16.553, 6.853, 32.41, -0.03998, -0.80661, 0.04727, -0.58774,
 16:07:14.442,ed:40:fe:65:30:6c, 2015-01-01 01:19:29.695, 0.886, 0, 0.473, 0.122, -0.305, 0, 0.038, -61.754, -126.804, -27.000, -11.613, 3.720, 27.77, 0.38461, -0.4585, -0.23001, -0.76733,
 16:07:14.442,ed:40:fe:65:30:6c, 2015-01-01 01:19:29.695, 0.887, 0, 0.472, 0, 0.061, 0, 0.038, -61.754, -126.81, -27.000, -11.613, 3.720, 27.77, 0.38461, -0.4585, -0.23001, -0.76733,
 16:07:14.443,e3:ca:2d:fd:e0:8c, 2015-01-01 01:19:50.645, 0.96, -0.217, -0.275, 0, 0, 0, -141.691, -70.032, -71.158, -28.287, -9.187, -2.180, 28.91, 0.09683, 0.73871, -0.297, 0.59717,
 16:07:14.443,e3:ca:2d:fd:e0:8c, 2015-01-01 01:19:50.645, 0.961, -0.217, -0.275, 0, 0, 0, -141.691, -70.032, -71.158, -28.287, -9.187, -2.180, 28.91, 0.09683, 0.73871, -0.297, 0.59717,
 16:07:14.444,ed:35:33:d3:6c:f8, 2015-01-01 01:19:41.295, 0.871, 0.009, 0.478, 0.122, 0.122, 0.122, 1.033, -60.716, 177.61, -20.533, -11.720, -12.240, 32.72, -0.0144, -0.50537, 0.0033, -0.86273,
 16:07:14.444,ed:35:33:d3:6c:f8, 2015-01-01 01:19:41.295, 0.871, 0.009, 0.484, -0.427, 0.488, -0.061, 1.027, -60.71, 177.627, -20.533, -11.720, -12.240, 32.72, -0.0144, -0.50537, 0.0033, -0.86273,
 16:07:14.464,ed:40:fe:65:30:6c, 2015-01-01 01:19:29.695, 0.887, 0, 0.476, -0.366, 0.244, 0, 0.033, -61.749, -126.815, -27.000, -11.613, 3.720, 27.77, 0.38461, -0.4585, -0.23001, -0.76733,
 16:07:14.464,ed:40:fe:65:30:6c, 2015-01-01 01:19:29.695, 0.883, 0, 0.479, -0.061, -0.305, 0, 0.033, -61.754, -126.815, -27.000, -11.613, 3.720, 27.77, 0.38461, -0.4585, -0.23001, -0.76733,
 16:07:14.467,ed:35:33:d3:6c:f8, 2015-01-01 01:19:41.675, 0.868, 0.01, 0.491, -0.061, 0, 0, 1.022, -60.705, 177.643, -20.533, -11.720, -12.240, 32.72, -0.0144, -0.50537, 0.0033, -0.86273,
 16:07:14.467,ed:35:33:d3:6c:f8, 2015-01-01 01:19:41.675, 0.863, 0.011, 0.488, 0.183, -0.549, 0.244, 1.022, -60.716, 177.676, -20.533, -11.720, -12.240, 32.72, -0.0144, -0.50537, 0.0033, -0.86273,
 16:07:14.468,f6:90:cc:01:6d:25, 2015-01-01 01:19:39.440, 0.941, 0.009, -0.301, 0, 0, 0, 178.325, -72.18, -5.482, -28.220, -16.553, 6.853, 32.41, -0.03998, -0.80661, 0.04727, -0.58774,
 16:07:14.468,f6:90:cc:01:6d:25, 2015-01-01 01:19:39.440, 0.94, 0.01, -0.304, 0.061, -0.183, 0, 178.325, -72.18, -5.482, -28.220, -16.553, 6.853, 32.41, -0.03998, -0.80661, 0.04727, -0.58774,
 16:07:14.486,ed:40:fe:65:30:6c, 2015-01-01 01:19:29.695, 0.88, 0, 0.478, 0.122, -0.793, 0, 0.033, -61.765, -126.821, -27.000, -11.613, 3.720, 27.77, 0.38461, -0.4585, -0.23001, -0.76733,
 16:07:14.486,ed:40:fe:65:30:6c, 2015-01-01 01:19:29.695, 0.883, -0.002, 0.481, 0.122, -0.61, 0.305, 0.022, -61.776, -126.815, -27.000, -11.613, 3.720, 27.77, 0.38461, -0.4585, -0.23001, -0.76733,
 16:07:14.489,f6:90:cc:01:6d:25, 2015-01-01 01:19:39.440, 0.94, 0.009, -0.303, 0, -0.183, 0, 178.325, -72.175, -5.482, -28.220, -16.553, 6.853, 32.41, -0.03998, -0.80661, 0.04727, -0.58774,
 16:07:14.489,f6:90:cc:01:6d:25, 2015-01-01 01:19:39.440, 0.938, 0.009, -0.3, 0, -0.183, 0, 178.325, -72.175, -5.477, -28.220, -16.553, 6.853, 32.41, -0.03998, -0.80661, 0.04727, -0.58774,
 16:07:14.510,e3:ca:2d:fd:e0:8c, 2015-01-01 01:19:50.645, 0.96, -0.215, -0.276, 0, 0, 0, -141.691, -70.032, -71.158, -28.287, -9.187, -2.180, 28.91, 0.09683, 0.73871, -0.297, 0.59717,
 16:07:14.510,e3:ca:2d:fd:e0:8c, 2015-01-01 01:19:50.645, 0.959, -0.217, -0.274, 0, 0, 0, -141.691, -70.027, -71.158, -28.287, -9.187, -2.180, 28.91, 0.09683, 0.73871, -0.297, 0.59717,
 16:07:14.512,ed:35:33:d3:6c:f8, 2015-01-01 01:19:41.675, 0.866, 0.007, 0.488, 0.122, -0.793, 0.427, 1.011, -60.732, 177.72, -20.533, -11.720, -12.240, 32.72, -0.0144, -0.50537, 0.0033, -0.86273,
 16:07:14.512,ed:35:33:d3:6c:f8, 2015-01-01 01:19:41.675, 0.866, 0.006, 0.484, 0, -0.427, 0.122, 1.005, -60.743, 177.742, -20.533, -11.720, -12.240, 32.72, -0.0144, -0.50537, 0.0033, -0.86273,
 16:07:14.532,ed:40:fe:65:30:6c, 2015-01-01 01:19:29.695, 0.881, -0.001, 0.476, 0, -0.305, 0, 0.022, -61.782, -126.815, -27.000, -11.613, 3.720, 27.77, 0.38461, -0.4585, -0.23001, -0.76733,
 16:07:14.532,ed:40:fe:65:30:6c, 2015-01-01 01:19:29.695, 0.882, 0, 0.476, 0.061, -0.122, 0, 0.022, -61.787, -126.815, -27.000, -11.613, 3.720, 27.77, 0.38461, -0.4585, -0.23001, -0.76733,
 16:07:14.533,e3:ca:2d:fd:e0:8c, 2015-01-01 01:19:51.045, 0.959, -0.216, -0.273, 0, 0, 0, -141.691, -70.027, -71.158, -28.287, -9.187, -2.180, 28.91, 0.09683, 0.73871, -0.297, 0.59717,
 16:07:14.533,e3:ca:2d:fd:e0:8c, 2015-01-01 01:19:51.045, 0.959, -0.215, -0.272, 0, 0, 0, -141.691, -70.027, -71.158, -28.287, -9.187, -2.180, 28.91, 0.09683, 0.73871, -0.297, 0.59717,
 16:07:14.534,ed:35:33:d3:6c:f8, 2015-01-01 01:19:41.675, 0.865, 0.009, 0.482, 0.061, -0.183, 0, 1.005, -60.749, 177.753, -20.533, -11.720, -12.240, 32.72, -0.0144, -0.50537, 0.0033, -0.86273,
 16:07:14.534,ed:35:33:d3:6c:f8, 2015-01-01 01:19:41.675, 0.869, 0.008, 0.483, -0.061, 0.183, -0.122, 1.011, -60.743, 177.737, -20.533, -11.720, -12.240, 32.72, -0.0144, -0.50537, 0.0033, -0.86273,
 16:07:14.535,f6:90:cc:01:6d:25, 2015-01-01 01:19:39.440, 0.939, 0.01, -0.3, 0, -0.183, 0, 178.325, -72.169, -5.477, -28.220, -16.553, 6.853, 32.41, -0.03998, -0.80661, 0.04727, -0.58774,
 16:07:14.535,f6:90:cc:01:6d:25, 2015-01-01 01:19:39.440, 0.94, 0.009, -0.301, 0, -0.244, 0, 178.325, -72.164, -5.471, -28.220, -16.553, 6.853, 32.41, -0.03998, -0.80661, 0.04727, -0.58774,
 16:07:14.554,ed:40:fe:65:30:6c, 2015-01-01 01:19:29.695, 0.886, 0, 0.477, -0.061, 0.244, -0.122, 0.022, -61.782, -126.826, -27.000, -11.307, 3.860, 27.77, 0.38461, -0.4585, -0.23001, -0.76733,
 16:07:14.554,ed:40:fe:65:30:6c, 2015-01-01 01:19:29.695, 0.887, -0.001, 0.474, 0, 0.488, -0.122, 0.027, -61.771, -126.832, -27.000, -11.307, 3.860, 27.77, 0.38461, -0.4585, -0.23001, -0.76733,
 16:07:14.556,e3:ca:2d:fd:e0:8c, 2015-01-01 01:19:51.045, 0.96, -0.216, -0.272, 0, 0, 0, -141.691, -70.027, -71.158, -28.287, -9.187, -2.180, 28.91, 0.09683, 0.73871, -0.297, 0.59717,
 16:07:14.556,e3:ca:2d:fd:e0:8c, 2015-01-01 01:19:51.045, 0.96, -0.216, -0.272, 0, 0, 0, -141.691, -70.027, -71.158, -28.287, -9.187, -2.180, 28.91, 0.09683, 0.73871, -0.297, 0.59717,
 16:07:14.580,ed:35:33:d3:6c:f8, 2015-01-01 01:19:41.675, 0.871, 0.008, 0.481, 0, 0.488, -0.122, 1.016, -60.738, 177.687, -20.533, -11.720, -12.240, 32.72, -0.0144, -0.50537, 0.0033, -0.86273,
 16:07:14.580,ed:35:33:d3:6c:f8, 2015-01-01 01:19:41.675, 0.87, 0.008, 0.484, -0.122, 0.549, -0.183, 1.016, -60.727, 177.638, -20.533, -11.720, -12.240, 32.72, -0.0144, -0.50537, 0.0033, -0.86273,
 16:07:14.581,f6:90:cc:01:6d:25, 2015-01-01 01:19:39.440, 0.94, 0.009, -0.302, 0, -0.122, 0, 178.325, -72.164, -5.471, -28.220, -16.553, 6.853, 32.41, -0.03998, -0.80661, 0.04727, -0.58774,
 16:07:14.581,f6:90:cc:01:6d:25, 2015-01-01 01:19:39.440, 0.94, 0.008, -0.302, 0, -0.061, 0, 178.325, -72.164, -5.471, -28.220, -16.553, 6.853, 32.41, -0.03998, -0.80661, 0.04727, -0.58774,
 16:07:14.599,ed:40:fe:65:30:6c, 2015-01-01 01:19:29.695, 0.886, 0, 0.475, -0.061, 0.427, -0.183, 0.027, -61.76, -126.843, -27.000, -11.307, 3.860, 27.77, 0.38461, -0.4585, -0.23001, -0.76733,
 16:07:14.599,ed:40:fe:65:30:6c, 2015-01-01 01:19:29.695, 0.886, 0, 0.476, 0, 0.305, -0.183, 0.033, -61.754, -126.854, -27.000, -11.307, 3.860, 27.77, 0.38461, -0.4585, -0.23001, -0.76733,
 16:07:14.601,e3:ca:2d:fd:e0:8c, 2015-01-01 01:19:51.045, 0.96, -0.217, -0.272, 0, 0, 0, -141.691, -70.027, -71.158, -28.287, -9.187, -2.180, 28.91, 0.09683, 0.73871, -0.297, 0.59717,
 16:07:14.601,e3:ca:2d:fd:e0:8c, 2015-01-01 01:19:51.045, 0.96, -0.217, -0.273, 0, 0, 0, -141.691, -70.027, -71.158, -28.287, -9.187, -2.180, 28.91, 0.09683, 0.73871, -0.297, 0.59717,
 16:07:14.625,f6:90:cc:01:6d:25, 2015-01-01 01:19:39.440, 0.94, 0.008, -0.302, 0.061, 0, 0, 178.325, -72.164, -5.466, -28.220, -16.553, 6.853, 32.41, -0.03998, -0.80661, 0.04727, -0.58774,
 16:07:14.625,f6:90:cc:01:6d:25, 2015-01-01 01:19:39.440, 0.94, 0.008, -0.303, 0.061, 0, 0, 178.325, -72.164, -5.466, -28.220, -16.553, 6.853, 32.41, -0.03998, -0.80661, 0.04727, -0.58774,
 16:07:14.645,e3:ca:2d:fd:e0:8c, 2015-01-01 01:19:51.045, 0.96, -0.217, -0.273, 0, 0, 0, -141.691, -70.027, -71.158, -28.287, -9.187, -2.180, 28.91, 0.09683, 0.73871, -0.297, 0.59717,
 16:07:14.645,e3:ca:2d:fd:e0:8c, 2015-01-01 01:19:51.045, 0.959, -0.217, -0.274, 0, 0, 0, -141.685, -70.027, -71.158, -28.287, -9.187, -2.180, 28.91, 0.09683, 0.73871, -0.297, 0.59717,
 16:07:14.649,f6:90:cc:01:6d:25, 2015-01-01 01:19:39.440, 0.939, 0.008, -0.302, 0.061, 0, 0, 178.325, -72.164, -5.46, -28.267, -16.667, 6.160, 32.41, -0.03998, -0.80661, 0.04727, -0.58774,
 16:07:14.649,f6:90:cc:01:6d:25, 2015-01-01 01:19:39.440, 0.939, 0.008, -0.303, 0.061, 0.122, 0, 178.325, -72.164, -5.46, -28.267, -16.667, 6.160, 32.41, -0.03998, -0.80661, 0.04727, -0.58774,
 16:07:14.667,ed:40:fe:65:30:6c, 2015-01-01 01:19:29.695, 0.886, 0, 0.478, 0, 0.183, -0.061, 0.038, -61.749, -126.859, -27.000, -11.307, 3.860, 27.77, 0.38406, -0.45886, -0.2298, -0.76749,
 16:07:14.667,ed:40:fe:65:30:6c, 2015-01-01 01:19:29.695, 0.885, 0, 0.477, 0, 0, 0.122, 0.033, -61.743, -126.859, -27.000, -11.307, 3.860, 27.77, 0.38406, -0.45886, -0.2298, -0.76749,
 16:07:14.670,ed:35:33:d3:6c:f8, 2015-01-01 01:19:41.675, 0.87, 0.009, 0.485, 0, 0.427, -0.183, 1.022, -60.721, 177.605, -20.533, -11.720, -12.240, 32.72, -0.0144, -0.50537, 0.0033, -0.86273,
 16:07:14.670,ed:35:33:d3:6c:f8, 2015-01-01 01:19:41.675, 0.87, 0.01, 0.487, 0, 0.305, -0.061, 1.027, -60.716, 177.567, -20.533, -11.720, -12.240, 32.72, -0.0144, -0.50537, 0.0033, -0.86273,
 16:07:14.691,ed:35:33:d3:6c:f8, 2015-01-01 01:19:41.675, 0.869, 0.009, 0.485, 0.061, 0.305, 0.122, 1.027, -60.71, 177.567, -20.947, -11.327, -11.907, 32.72, -0.0144, -0.50537, 0.0033, -0.86273,
 16:07:14.691,ed:35:33:d3:6c:f8, 2015-01-01 01:19:41.675, 0.867, 0.009, 0.485, -0.366, 0.488, -0.061, 1.022, -60.705, 177.539, -20.947, -11.327, -11.907, 32.72, -0.0144, -0.50537, 0.0033, -0.86273,
 16:07:14.691,ed:40:fe:65:30:6c, 2015-01-01 01:19:30.075, 0.883, 0, 0.477, -0.244, 0, 0.061, 0.022, -61.743, -126.859, -27.000, -11.307, 3.860, 27.77, 0.38406, -0.45886, -0.2298, -0.76749,
 16:07:14.691,ed:40:fe:65:30:6c, 2015-01-01 01:19:30.075, 0.884, 0, 0.476, -0.122, 0, 0, 0.022, -61.743, -126.865, -27.000, -11.307, 3.860, 27.77, 0.38406, -0.45886, -0.2298, -0.76749,
 16:07:14.693,f6:90:cc:01:6d:25, 2015-01-01 01:19:39.440, 0.939, 0.009, -0.301, 0.061, 0.122, 0, 178.33, -72.169, -5.455, -28.267, -16.667, 6.160, 32.41, -0.03998, -0.80661, 0.04727, -0.58774,
 16:07:14.693,f6:90:cc:01:6d:25, 2015-01-01 01:19:39.440, 0.939, 0.009, -0.301, 0.061, 0.061, 0, 178.33, -72.169, -5.455, -28.267, -16.667, 6.160, 32.41, -0.03998, -0.80661, 0.04727, -0.58774,
 16:07:14.713,e3:ca:2d:fd:e0:8c, 2015-01-01 01:19:51.045, 0.959, -0.217, -0.274, 0, 0, 0, -141.685, -70.027, -71.158, -28.287, -9.187, -2.180, 28.91, 0.09683, 0.73871, -0.297, 0.59717,
 16:07:14.713,e3:ca:2d:fd:e0:8c, 2015-01-01 01:19:51.045, 0.96, -0.216, -0.273, 0, 0, 0, -141.685, -70.027, -71.158, -28.287, -9.187, -2.180, 28.91, 0.09683, 0.73871, -0.297, 0.59717,
 16:07:14.734,ed:40:fe:65:30:6c, 2015-01-01 01:19:30.075, 0.883, 0, 0.477, 0.061, 0.244, 0.061, 0.016, -61.738, -126.865, -27.000, -11.307, 3.860, 27.77, 0.38406, -0.45886, -0.2298, -0.76749,
 16:07:14.734,ed:40:fe:65:30:6c, 2015-01-01 01:19:30.075, 0.885, 0, 0.478, -0.122, 0.305, 0.061, 0.011, -61.732, -126.865, -27.000, -11.307, 3.860, 27.77, 0.38406, -0.45886, -0.2298, -0.76749,
 16:07:14.735,e3:ca:2d:fd:e0:8c, 2015-01-01 01:19:51.045, 0.96, -0.216, -0.273, 0, 0, 0, -141.685, -70.027, -71.158, -27.887, -8.847, -2.160, 28.91, 0.09683, 0.73871, -0.297, 0.59717,
 16:07:14.735,e3:ca:2d:fd:e0:8c, 2015-01-01 01:19:51.045, 0.96, -0.216, -0.274, 0, 0, 0, -141.685, -70.027, -71.158, -27.887, -8.847, -2.160, 28.91, 0.09683, 0.73871, -0.297, 0.59717,
 16:07:14.737,ed:35:33:d3:6c:f8, 2015-01-01 01:19:41.675, 0.867, 0.008, 0.483, -0.244, 0.671, 0, 1.016, -60.694, 177.517, -20.947, -11.327, -11.907, 32.72, -0.0144, -0.50537, 0.0033, -0.86273,
 16:07:14.737,ed:35:33:d3:6c:f8, 2015-01-01 01:19:41.675, 0.867, 0.01, 0.484, 0, 0.671, 0.061, 1.011, -60.677, 177.528, -20.947, -11.327, -11.907, 32.72, -0.0144, -0.50537, 0.0033, -0.86273,
 16:07:14.738,f6:90:cc:01:6d:25, 2015-01-01 01:19:39.440, 0.94, 0.009, -0.302, 0, 0.122, 0, 178.33, -72.169, -5.449, -28.267, -16.667, 6.160, 32.41, -0.03976, -0.8067, 0.04703, -0.58768,
 16:07:14.738,f6:90:cc:01:6d:25, 2015-01-01 01:19:39.440, 0.94, 0.009, -0.304, 0, 0.122, 0, 178.33, -72.175, -5.449, -28.267, -16.667, 6.160, 32.41, -0.03976, -0.8067, 0.04703, -0.58768,
 16:07:14.756,ed:40:fe:65:30:6c, 2015-01-01 01:19:30.075, 0.884, -0.001, 0.475, 0, 0.305, 0.122, 0.005, -61.727, -126.859, -27.000, -11.307, 3.860, 27.77, 0.38406, -0.45886, -0.2298, -0.76749,
 16:07:14.756,ed:40:fe:65:30:6c, 2015-01-01 01:19:30.075, 0.885, -0.001, 0.475, 0.183, 0.366, 0.244, 0, -61.721, -126.854, -27.000, -11.307, 3.860, 27.77, 0.38406, -0.45886, -0.2298, -0.76749,
 16:07:14.759,ed:35:33:d3:6c:f8, 2015-01-01 01:19:41.675, 0.869, 0.008, 0.486, -0.244, 0.732, 0.061, 1.005, -60.667, 177.539, -20.947, -11.327, -11.907, 32.72, -0.01404, -0.50504, 0.00323, -0.86292,
 16:07:14.759,ed:35:33:d3:6c:f8, 2015-01-01 01:19:41.675, 0.868, 0.009, 0.484, -0.183, 0.671, 0.061, 1, -60.656, 177.567, -20.947, -11.327, -11.907, 32.72, -0.01404, -0.50504, 0.00323, -0.86292,
 16:07:14.781,e3:ca:2d:fd:e0:8c, 2015-01-01 01:19:51.045, 0.96, -0.216, -0.276, 0, 0, 0, -141.685, -70.027, -71.158, -27.887, -8.847, -2.160, 28.91, 0.09683, 0.73871, -0.297, 0.59717,
 16:07:14.781,e3:ca:2d:fd:e0:8c, 2015-01-01 01:19:51.045, 0.96, -0.216, -0.274, 0, 0, 0, -141.685, -70.027, -71.158, -27.887, -8.847, -2.160, 28.91, 0.09683, 0.73871, -0.297, 0.59717,
 16:07:14.783,f6:90:cc:01:6d:25, 2015-01-01 01:19:39.755, 0.94, 0.009, -0.302, 0, 0.122, 0, 178.33, -72.175, -5.444, -28.267, -16.667, 6.160, 32.41, -0.03976, -0.8067, 0.04703, -0.58768,
 16:07:14.783,f6:90:cc:01:6d:25, 2015-01-01 01:19:39.755, 0.94, 0.009, -0.302, 0.122, 0.061, 0, 178.33, -72.175, -5.444, -28.267, -16.667, 6.160, 32.41, -0.03976, -0.8067, 0.04703, -0.58768,
 16:07:14.804,ed:40:fe:65:30:6c, 2015-01-01 01:19:30.075, 0.886, -0.002, 0.475, 0.488, 0.671, 0.122, 0, -61.71, -126.854, -27.000, -11.307, 3.860, 27.77, 0.38406, -0.45886, -0.2298, -0.76749,
 16:07:14.804,ed:40:fe:65:30:6c, 2015-01-01 01:19:30.075, 0.884, 0, 0.476, 0.366, 0.61, 0.122, 0.005, -61.694, -126.848, -27.000, -11.307, 3.860, 27.77, 0.38406, -0.45886, -0.2298, -0.76749,
 16:07:14.804,e3:ca:2d:fd:e0:8c, 2015-01-01 01:19:51.045, 0.96, -0.216, -0.273, 0, 0, 0, -141.685, -70.027, -71.158, -27.887, -8.847, -2.160, 28.91, 0.0968, 0.73871, -0.297, 0.59717,
 16:07:14.804,e3:ca:2d:fd:e0:8c, 2015-01-01 01:19:51.045, 0.96, -0.216, -0.273, 0, 0, 0, -141.685, -70.027, -71.158, -27.887, -8.847, -2.160, 28.91, 0.0968, 0.73871, -0.297, 0.59717,
 16:07:14.804,ed:35:33:d3:6c:f8, 2015-01-01 01:19:41.675, 0.868, 0.009, 0.484, 0.122, 0.366, 0.305, 0.994, -60.65, 177.599, -20.947, -11.327, -11.907, 32.72, -0.01404, -0.50504, 0.00323, -0.86292,
 16:07:14.804,ed:35:33:d3:6c:f8, 2015-01-01 01:19:41.675, 0.869, 0.008, 0.483, 0.488, 0.305, 0.305, 0.994, -60.645, 177.654, -20.947, -11.327, -11.907, 32.72, -0.01404, -0.50504, 0.00323, -0.86292,
 16:07:14.826,ed:35:33:d3:6c:f8, 2015-01-01 01:19:42.030, 0.867, 0.008, 0.485, 0.427, 0.366, 0.244, 0.994, -60.639, 177.671, -20.947, -11.327, -11.907, 32.72, -0.01404, -0.50504, 0.00323, -0.86292,
 16:07:14.826,ed:35:33:d3:6c:f8, 2015-01-01 01:19:42.030, 0.87, 0.008, 0.484, 0.122, 0.549, 0.061, 0.994, -60.634, 177.665, -20.947, -11.327, -11.907, 32.72, -0.01404, -0.50504, 0.00323, -0.86292,
 16:07:14.827,f6:90:cc:01:6d:25, 2015-01-01 01:19:39.755, 0.94, 0.008, -0.303, 0.244, 0.183, 0, 178.336, -72.18, -5.444, -28.267, -16.667, 6.160, 32.41, -0.03976, -0.8067, 0.04703, -0.58768,
 16:07:14.827,f6:90:cc:01:6d:25, 2015-01-01 01:19:39.755, 0.94, 0.008, -0.305, 0.122, 0.427, 0, 178.336, -72.186, -5.438, -28.267, -16.667, 6.160, 32.41, -0.03976, -0.8067, 0.04703, -0.58768,
 16:07:14.848,e3:ca:2d:fd:e0:8c, 2015-01-01 01:19:51.045, 0.96, -0.217, -0.274, 0, 0, 0, -141.685, -70.027, -71.158, -27.887, -8.847, -2.160, 28.91, 0.0968, 0.73871, -0.297, 0.59717,
 16:07:14.848,e3:ca:2d:fd:e0:8c, 2015-01-01 01:19:51.045, 0.96, -0.216, -0.274, 0, 0.244, 0, -141.68, -70.032, -71.169, -27.887, -8.847, -2.160, 28.91, 0.0968, 0.73871, -0.297, 0.59717,
 16:07:14.850,f6:90:cc:01:6d:25, 2015-01-01 01:19:39.755, 0.94, 0.008, -0.303, 0, 0.549, 0, 178.336, -72.197, -5.438, -28.267, -16.667, 6.160, 32.41, -0.03976, -0.8067, 0.04703, -0.58768,
 16:07:14.850,f6:90:cc:01:6d:25, 2015-01-01 01:19:39.755, 0.94, 0.01, -0.301, 0, 0.671, 0, 178.336, -72.213, -5.433, -28.267, -16.667, 6.160, 32.41, -0.03976, -0.8067, 0.04703, -0.58768,
 16:07:14.870,ed:40:fe:65:30:6c, 2015-01-01 01:19:30.075, 0.886, 0, 0.477, 0.122, 0.671, 0.061, 0.005, -61.683, -126.848, -27.000, -11.307, 3.860, 27.77, 0.38406, -0.45886, -0.2298, -0.76749,
 16:07:14.870,ed:40:fe:65:30:6c, 2015-01-01 01:19:30.075, 0.886, 0, 0.477, 0.183, 0.854, -0.122, 0.011, -61.666, -126.854, -27.000, -11.307, 3.860, 27.77, 0.38406, -0.45886, -0.2298, -0.76749,
 16:07:14.872,ed:35:33:d3:6c:f8, 2015-01-01 01:19:42.030, 0.869, 0.008, 0.484, 0.244, 0.793, -0.244, 1.005, -60.617, 177.654, -20.947, -11.327, -11.907, 32.72, -0.01404, -0.50504, 0.00323, -0.86292,
 16:07:14.872,ed:35:33:d3:6c:f8, 2015-01-01 01:19:42.030, 0.866, 0.005, 0.484, 0.244, 1.16, -0.732, 1.038, -60.595, 177.594, -20.947, -11.327, -11.907, 32.72, -0.01404, -0.50504, 0.00323, -0.86292,
 16:07:14.893,e3:ca:2d:fd:e0:8c, 2015-01-01 01:19:51.380, 0.96, -0.215, -0.272, 0, 0.244, 0, -141.669, -70.038, -71.175, -27.887, -8.847, -2.160, 28.91, 0.0968, 0.73871, -0.297, 0.59717,
 16:07:14.893,e3:ca:2d:fd:e0:8c, 2015-01-01 01:19:51.380, 0.959, -0.215, -0.271, -0.061, 0.122, 0, -141.669, -70.038, -71.18, -27.887, -8.847, -2.160, 28.91, 0.0968, 0.73871, -0.297, 0.59717,
 16:07:14.897,f6:90:cc:01:6d:25, 2015-01-01 01:19:39.755, 0.94, 0.01, -0.3, -0.122, 0.793, 0, 178.33, -72.224, -5.427, -28.267, -16.667, 6.160, 32.41, -0.03976, -0.8067, 0.04703, -0.58768,
 16:07:14.897,f6:90:cc:01:6d:25, 2015-01-01 01:19:39.755, 0.94, 0.008, -0.304, -0.183, 1.343, 0, 178.325, -72.252, -5.46, -28.267, -16.667, 6.160, 32.41, -0.03976, -0.8067, 0.04703, -0.58768,
 16:07:14.915,ed:40:fe:65:30:6c, 2015-01-01 01:19:30.075, 0.881, -0.002, 0.476, 0.183, 0.916, -0.549, 0.027, -61.65, -126.876, -27.000, -11.307, 3.860, 27.77, 0.38406, -0.45886, -0.2298, -0.76749,
 16:07:14.915,ed:40:fe:65:30:6c, 2015-01-01 01:19:30.075, 0.878, 0.001, 0.477, -0.488, 1.099, -0.977, 0.049, -61.628, -126.914, -27.000, -11.307, 3.860, 27.77, 0.38406, -0.45886, -0.2298, -0.76749,
 16:07:14.915,e3:ca:2d:fd:e0:8c, 2015-01-01 01:19:51.380, 0.96, -0.216, -0.271, -0.183, 0.305, 0, -141.663, -70.043, -71.191, -27.887, -8.847, -2.160, 28.91, 0.0968, 0.73871, -0.297, 0.59717,
 16:07:14.915,e3:ca:2d:fd:e0:8c, 2015-01-01 01:19:51.380, 0.96, -0.217, -0.274, -0.183, 0.488, 0, -141.647, -70.049, -71.208, -27.887, -8.847, -2.160, 28.91, 0.0968, 0.73871, -0.297, 0.59717,
 16:07:14.917,ed:35:33:d3:6c:f8, 2015-01-01 01:19:42.030, 0.861, 0.007, 0.482, -0.244, 1.953, -1.343, 1.077, -60.562, 177.495, -20.947, -11.327, -11.907, 32.72, -0.01404, -0.50504, 0.00323, -0.86292,
 16:07:14.918,ed:35:33:d3:6c:f8, 2015-01-01 01:19:42.030, 0.86, 0.01, 0.491, -2.136, 2.93, -2.075, 1.104, -60.507, 177.374, -20.947, -11.327, -11.907, 32.72, -0.01404, -0.50504, 0.00323, -0.86292,
 16:07:14.938,ed:40:fe:65:30:6c, 2015-01-01 01:19:30.075, 0.878, 0.003, 0.486, -2.502, 2.014, -1.465, 0.06, -61.595, -126.958, -27.240, -11.333, 3.207, 27.77, 0.38406, -0.45886, -0.2298, -0.76749,
 16:07:14.938,ed:40:fe:65:30:6c, 2015-01-01 01:19:30.075, 0.89, -0.001, 0.486, -3.906, 2.502, -1.953, 0.055, -61.545, -127.018, -27.240, -11.333, 3.207, 27.77, 0.38406, -0.45886, -0.2298, -0.76749,
 16:07:14.940,ed:35:33:d3:6c:f8, 2015-01-01 01:19:42.030, 0.873, 0.006, 0.494, -3.967, 3.845, -2.991, 1.126, -60.43, 177.226, -20.947, -11.327, -11.907, 32.72, -0.01404, -0.50504, 0.00323, -0.86292,
 16:07:14.940,ed:35:33:d3:6c:f8, 2015-01-01 01:19:42.030, 0.874, 0.013, 0.493, -3.296, 4.211, -2.747, 1.148, -60.348, 177.1, -20.947, -11.327, -11.907, 32.72, -0.01404, -0.50504, 0.00323, -0.86292,
 16:07:14.941,f6:90:cc:01:6d:25, 2015-01-01 01:19:39.755, 0.941, 0.009, -0.302, -0.305, 1.587, 0, 178.314, -72.285, -5.493, -28.267, -16.667, 6.160, 32.41, -0.03976, -0.8067, 0.04703, -0.58768,
 16:07:14.941,f6:90:cc:01:6d:25, 2015-01-01 01:19:39.755, 0.941, 0.01, -0.3, -0.488, 1.526, 0, 178.303, -72.312, -5.515, -28.267, -16.667, 6.160, 32.41, -0.03976, -0.8067, 0.04703, -0.58768,
 16:07:14.960,e3:ca:2d:fd:e0:8c, 2015-01-01 01:19:51.380, 0.96, -0.215, -0.274, -0.183, 0.488, 0, -141.636, -70.06, -71.23, -27.887, -8.847, -2.160, 28.91, 0.0968, 0.73871, -0.297, 0.59717,
 16:07:14.960,e3:ca:2d:fd:e0:8c, 2015-01-01 01:19:51.380, 0.961, -0.214, -0.273, -0.366, 0.427, 0, -141.63, -70.065, -71.246, -27.887, -8.847, -2.160, 28.91, 0.0968, 0.73871, -0.297, 0.59717,
 16:07:14.982,ed:40:fe:65:30:6c, 2015-01-01 01:19:30.075, 0.891, -0.001, 0.476, -3.235, 1.77, -1.77, 0.055, -61.507, -127.084, -27.240, -11.333, 3.207, 27.77, 0.38406, -0.45886, -0.2298, -0.76749,
 16:07:14.982,ed:40:fe:65:30:6c, 2015-01-01 01:19:30.075, 0.884, 0, 0.473, -1.831, 0.549, -1.16, 0.06, -61.496, -127.117, -27.240, -11.333, 3.207, 27.77, 0.38406, -0.45886, -0.2298, -0.76749,
 16:07:14.985,f6:90:cc:01:6d:25, 2015-01-01 01:19:39.755, 0.941, 0.011, -0.297, -0.549, 1.221, 0, 178.286, -72.334, -5.532, -27.887, -16.480, 6.213, 32.41, -0.03976, -0.8067, 0.04703, -0.58768,
 16:07:14.985,f6:90:cc:01:6d:25, 2015-01-01 01:19:39.755, 0.941, 0.012, -0.296, -0.488, 0.916, 0, 178.275, -72.35, -5.526, -27.887, -16.480, 6.213, 32.41, -0.03976, -0.8067, 0.04703, -0.58768,
 16:07:15.005,e3:ca:2d:fd:e0:8c, 2015-01-01 01:19:51.380, 0.96, -0.214, -0.272, -0.366, 0.366, 0, -141.625, -70.071, -71.257, -27.887, -8.847, -2.160, 28.91, 0.0968, 0.73871, -0.297, 0.59717,
 16:07:15.005,e3:ca:2d:fd:e0:8c, 2015-01-01 01:19:51.380, 0.959, -0.216, -0.272, -0.427, 0.244, 0, -141.625, -70.076, -71.268, -27.887, -8.847, -2.160, 28.91, 0.0968, 0.73871, -0.297, 0.59717,
 16:07:15.005,ed:40:fe:65:30:6c, 2015-01-01 01:19:30.075, 0.877, 0, 0.479, -1.038, 0, -0.793, 0.066, -61.496, -127.128, -27.240, -11.333, 3.207, 27.77, 0.38287, -0.45758, -0.22806, -0.76935,
 16:07:15.005,ed:40:fe:65:30:6c, 2015-01-01 01:19:30.075, 0.878, -0.001, 0.486, -0.977, 0.061, -0.671, 0.071, -61.496, -127.128, -27.240, -11.333, 3.207, 27.77, 0.38287, -0.45758, -0.22806, -0.76935,
 16:07:15.007,ed:35:33:d3:6c:f8, 2015-01-01 01:19:42.030, 0.867, 0.015, 0.49, -1.709, 2.869, -1.709, 1.176, -60.293, 177.006, -20.947, -11.327, -11.907, 32.72, -0.01404, -0.50504, 0.00323, -0.86292,
 16:07:15.007,ed:35:33:d3:6c:f8, 2015-01-01 01:19:42.030, 0.859, 0.012, 0.491, -0.916, 1.648, -1.099, 1.192, -60.266, 176.94, -20.947, -11.327, -11.907, 32.72, -0.01404, -0.50504, 0.00323, -0.86292,
 16:07:15.029,ed:35:33:d3:6c:f8, 2015-01-01 01:19:42.030, 0.859, 0.009, 0.497, -0.977, 1.038, -0.854, 1.203, -60.244, 176.858, -20.533, -11.553, -13.133, 32.72, -0.01404, -0.50504, 0.00323, -0.86292,
 16:07:15.029,ed:35:33:d3:6c:f8, 2015-01-01 01:19:42.030, 0.863, 0.009, 0.497, -0.977, 1.16, -0.854, 1.208, -60.227, 176.792, -20.533, -11.553, -13.133, 32.72, -0.01404, -0.50504, 0.00323, -0.86292,
 16:07:15.030,f6:90:cc:01:6d:25, 2015-01-01 01:19:39.755, 0.94, 0.01, -0.296, -0.549, 0.671, 0, 178.259, -72.367, -5.537, -27.887, -16.480, 6.213, 32.41, -0.04074, -0.80563, 0.04791, -0.58899,
 16:07:15.030,f6:90:cc:01:6d:25, 2015-01-01 01:19:39.755, 0.941, 0.008, -0.296, -0.61, 0.427, 0, 178.248, -72.372, -5.543, -27.887, -16.480, 6.213, 32.41, -0.04074, -0.80563, 0.04791, -0.58899,
 16:07:15.051,e3:ca:2d:fd:e0:8c, 2015-01-01 01:19:51.380, 0.959, -0.217, -0.272, -0.427, 0.183, 0, -141.63, -70.076, -71.274, -27.887, -8.847, -2.160, 28.91, 0.0968, 0.73871, -0.297, 0.59717,
 16:07:15.051,e3:ca:2d:fd:e0:8c, 2015-01-01 01:19:51.380, 0.961, -0.217, -0.271, -0.366, 0.122, 0, -141.636, -70.082, -71.279, -27.887, -8.847, -2.160, 28.91, 0.0968, 0.73871, -0.297, 0.59717,
 16:07:15.053,f6:90:cc:01:6d:25, 2015-01-01 01:19:40.045, 0.941, 0.008, -0.297, -0.549, 0.244, 0, 178.231, -72.378, -5.559, -27.887, -16.480, 6.213, 32.41, -0.04074, -0.80563, 0.04791, -0.58899,
 16:07:15.053,f6:90:cc:01:6d:25, 2015-01-01 01:19:40.045, 0.941, 0.008, -0.296, -0.366, 0.183, 0, 178.226, -72.383, -5.576, -27.887, -16.480, 6.213, 32.41, -0.04074, -0.80563, 0.04791, -0.58899,
 16:07:15.072,ed:40:fe:65:30:6c, 2015-01-01 01:19:30.075, 0.881, -0.002, 0.485, -0.854, 0.122, -0.671, 0.077, -61.496, -127.134, -27.240, -11.333, 3.207, 27.77, 0.38287, -0.45758, -0.22806, -0.76935,
 16:07:15.072,ed:40:fe:65:30:6c, 2015-01-01 01:19:30.075, 0.885, -0.002, 0.48, -0.488, 0.183, -0.61, 0.088, -61.49, -127.134, -27.240, -11.333, 3.207, 27.77, 0.38287, -0.45758, -0.22806, -0.76935,
 16:07:15.073,e3:ca:2d:fd:e0:8c, 2015-01-01 01:19:51.380, 0.96, -0.216, -0.273, -0.305, 0.061, 0, -141.636, -70.082, -71.279, -28.113, -9.000, -2.493, 28.91, 0.0968, 0.73871, -0.297, 0.59717,
 16:07:15.073,e3:ca:2d:fd:e0:8c, 2015-01-01 01:19:51.380, 0.96, -0.216, -0.271, -0.244, 0, 0, -141.641, -70.082, -71.279, -28.113, -9.000, -2.493, 28.91, 0.0968, 0.73871, -0.297, 0.59717,
 16:07:15.076,ed:35:33:d3:6c:f8, 2015-01-01 01:19:42.030, 0.866, 0.008, 0.492, -0.549, 0.854, -0.671, 1.219, -60.211, 176.737, -20.533, -11.553, -13.133, 32.72, -0.01404, -0.50504, 0.00323, -0.86292,
 16:07:15.076,ed:35:33:d3:6c:f8, 2015-01-01 01:19:42.030, 0.865, 0.009, 0.492, -0.122, 0.671, -0.61, 1.236, -60.2, 176.688, -20.533, -11.553, -13.133, 32.72, -0.01404, -0.50504, 0.00323, -0.86292,
 16:07:15.095,ed:40:fe:65:30:6c, 2015-01-01 01:19:30.455, 0.884, -0.002, 0.48, -0.061, 0.183, -0.61, 0.104, -61.485, -127.134, -27.240, -11.333, 3.207, 27.77, 0.38287, -0.45758, -0.22806, -0.76935,
 16:07:15.095,ed:40:fe:65:30:6c, 2015-01-01 01:19:30.455, 0.886, -0.001, 0.478, 0.122, 0.244, -0.488, 0.121, -61.479, -127.123, -27.240, -11.333, 3.207, 27.77, 0.38287, -0.45758, -0.22806, -0.76935,
 16:07:15.098,f6:90:cc:01:6d:25, 2015-01-01 01:19:40.045, 0.941, 0.008, -0.297, -0.305, 0.122, 0, 178.22, -72.383, -5.592, -27.887, -16.480, 6.213, 32.41, -0.04074, -0.80563, 0.04791, -0.58899,
 16:07:15.098,f6:90:cc:01:6d:25, 2015-01-01 01:19:40.045, 0.941, 0.009, -0.298, -0.061, 0.061, 0, 178.215, -72.389, -5.598, -27.887, -16.480, 6.213, 32.41, -0.04074, -0.80563, 0.04791, -0.58899,
 16:07:15.119,e3:ca:2d:fd:e0:8c, 2015-01-01 01:19:51.380, 0.96, -0.217, -0.274, -0.122, 0.061, 0, -141.641, -70.082, -71.279, -28.113, -9.000, -2.493, 28.91, 0.0968, 0.73871, -0.297, 0.59717,
 16:07:15.119,e3:ca:2d:fd:e0:8c, 2015-01-01 01:19:51.380, 0.961, -0.216, -0.274, 0, 0, 0, -141.641, -70.082, -71.279, -28.113, -9.000, -2.493, 28.91, 0.0968, 0.73871, -0.297, 0.59717,
 16:07:15.139,ed:40:fe:65:30:6c, 2015-01-01 01:19:30.455, 0.886, 0, 0.477, 0.061, 0.61, -0.549, 0.143, -61.469, -127.117, -27.240, -11.333, 3.207, 27.77, 0.38287, -0.45758, -0.22806, -0.76935,
 16:07:15.139,ed:40:fe:65:30:6c, 2015-01-01 01:19:30.455, 0.88, 0.002, 0.481, 0.549, 0.244, -0.427, 0.165, -61.463, -127.101, -27.240, -11.333, 3.207, 27.77, 0.38287, -0.45758, -0.22806, -0.76935,
 16:07:15.142,f6:90:cc:01:6d:25, 2015-01-01 01:19:40.045, 0.941, 0.011, -0.299, 0.061, 0, 0, 178.215, -72.389, -5.614, -27.887, -16.480, 6.213, 32.41, -0.04074, -0.80563, 0.04791, -0.58899,
 16:07:15.142,f6:90:cc:01:6d:25, 2015-01-01 01:19:40.045, 0.941, 0.011, -0.301, 0.061, -0.061, 0, 178.22, -72.389, -5.625, -27.887, -16.480, 6.213, 32.41, -0.04074, -0.80563, 0.04791, -0.58899,
 16:07:15.142,ed:35:33:d3:6c:f8, 2015-01-01 01:19:42.030, 0.867, 0.01, 0.488, 0.061, 0.977, -0.427, 1.252, -60.178, 176.649, -20.533, -11.553, -13.133, 32.72, -0.01953, -0.50153, 0.0051, -0.86487,
 16:07:15.142,ed:35:33:d3:6c:f8, 2015-01-01 01:19:42.030, 0.867, 0.011, 0.491, 0, 1.526, -0.549, 1.269, -60.15, 176.6, -20.533, -11.553, -13.133, 32.72, -0.01953, -0.50153, 0.0051, -0.86487,
 16:07:15.162,ed:40:fe:65:30:6c, 2015-01-01 01:19:30.455, 0.88, 0.003, 0.482, 0.793, -0.122, -0.305, 0.192, -61.463, -127.084, -27.240, -11.333, 3.207, 27.77, 0.38287, -0.45758, -0.22806, -0.76935,
 16:07:15.162,ed:40:fe:65:30:6c, 2015-01-01 01:19:30.455, 0.879, 0.003, 0.486, 0.61, -0.305, -0.244, 0.209, -61.469, -127.062, -27.240, -11.333, 3.207, 27.77, 0.38287, -0.45758, -0.22806, -0.76935,
 16:07:15.164,ed:35:33:d3:6c:f8, 2015-01-01 01:19:42.365, 0.862, 0.014, 0.496, 0.488, 1.16, -0.427, 1.291, -60.134, 176.567, -20.533, -11.553, -13.133, 32.72, -0.01953, -0.50153, 0.0051, -0.86487,
 16:07:15.164,ed:35:33:d3:6c:f8, 2015-01-01 01:19:42.365, 0.86, 0.016, 0.499, 0.793, 0.488, -0.244, 1.313, -60.123, 176.578, -20.533, -11.553, -13.133, 32.72, -0.01953, -0.50153, 0.0051, -0.86487,
 16:07:15.185,e3:ca:2d:fd:e0:8c, 2015-01-01 01:19:51.380, 0.961, -0.215, -0.275, 0.061, 0, 0, -141.641, -70.082, -71.279, -28.113, -9.000, -2.493, 28.91, 0.09741, 0.73831, -0.2973, 0.59741,
 16:07:15.185,e3:ca:2d:fd:e0:8c, 2015-01-01 01:19:51.380, 0.96, -0.214, -0.274, 0.122, 0.061, 0, -141.636, -70.082, -71.285, -28.113, -9.000, -2.493, 28.91, 0.09741, 0.73831, -0.2973, 0.59741,
 16:07:15.186,ed:35:33:d3:6c:f8, 2015-01-01 01:19:42.365, 0.86, 0.013, 0.499, 0.732, -0.061, -0.061, 1.335, -60.128, 176.589, -20.533, -11.553, -13.133, 32.72, -0.01953, -0.50153, 0.0051, -0.86487,
 16:07:15.186,ed:35:33:d3:6c:f8, 2015-01-01 01:19:42.365, 0.859, 0.015, 0.499, 0.488, -0.366, -0.183, 1.351, -60.134, 176.605, -20.533, -11.553, -13.133, 32.72, -0.01953, -0.50153, 0.0051, -0.86487,
 16:07:15.189,f6:90:cc:01:6d:25, 2015-01-01 01:19:40.045, 0.941, 0.011, -0.299, 0.183, -0.122, 0, 178.22, -72.389, -5.652, -27.887, -16.480, 6.213, 32.41, -0.04074, -0.80563, 0.04791, -0.58899,
 16:07:15.189,f6:90:cc:01:6d:25, 2015-01-01 01:19:40.045, 0.941, 0.01, -0.299, 0.305, -0.244, 0, 178.22, -72.383, -5.674, -27.887, -16.480, 6.213, 32.41, -0.04074, -0.80563, 0.04791, -0.58899,
 16:07:15.207,ed:40:fe:65:30:6c, 2015-01-01 01:19:30.455, 0.878, 0.004, 0.484, 0.488, -0.305, -0.305, 0.231, -61.474, -127.046, -27.240, -11.333, 3.207, 27.77, 0.38287, -0.45758, -0.22806, -0.76935,
 16:07:15.207,ed:40:fe:65:30:6c, 2015-01-01 01:19:30.455, 0.879, 0.005, 0.484, 0.488, -0.305, -0.305, 0.253, -61.479, -127.029, -27.240, -11.333, 3.207, 27.77, 0.38287, -0.45758, -0.22806, -0.76935,
 16:07:15.207,e3:ca:2d:fd:e0:8c, 2015-01-01 01:19:51.715, 0.96, -0.215, -0.275, 0.305, 0.061, 0, -141.63, -70.082, -71.285, -28.113, -9.000, -2.493, 28.91, 0.09741, 0.73831, -0.2973, 0.59741,
 16:07:15.207,e3:ca:2d:fd:e0:8c, 2015-01-01 01:19:51.715, 0.961, -0.215, -0.274, 0.305, 0, 0, -141.625, -70.082, -71.285, -28.113, -9.000, -2.493, 28.91, 0.09741, 0.73831, -0.2973, 0.59741,
 16:07:15.232,ed:35:33:d3:6c:f8, 2015-01-01 01:19:42.365, 0.86, 0.016, 0.496, 0.488, -0.366, -0.183, 1.368, -60.145, 176.611, -20.533, -11.553, -13.133, 32.72, -0.01953, -0.50153, 0.0051, -0.86487,
 16:07:15.232,ed:35:33:d3:6c:f8, 2015-01-01 01:19:42.365, 0.862, 0.018, 0.494, 0.61, -0.122, -0.244, 1.39, -60.145, 176.583, -20.533, -11.553, -13.133, 32.72, -0.01953, -0.50153, 0.0051, -0.86487,
 16:07:15.234,f6:90:cc:01:6d:25, 2015-01-01 01:19:40.045, 0.941, 0.012, -0.299, 0.244, -0.244, 0, 178.226, -72.378, -5.718, -27.887, -16.480, 6.213, 32.41, -0.04074, -0.80563, 0.04791, -0.58899,
 16:07:15.234,f6:90:cc:01:6d:25, 2015-01-01 01:19:40.045, 0.941, 0.012, -0.298, 0.244, -0.244, 0, 178.231, -72.372, -5.751, -27.887, -16.480, 6.213, 32.41, -0.04074, -0.80563, 0.04791, -0.58899,
 16:07:15.253,e3:ca:2d:fd:e0:8c, 2015-01-01 01:19:51.715, 0.961, -0.213, -0.273, 0.244, 0, 0, -141.625, -70.082, -71.285, -28.113, -9.000, -2.493, 28.91, 0.09741, 0.73831, -0.2973, 0.59741,
 16:07:15.253,e3:ca:2d:fd:e0:8c, 2015-01-01 01:19:51.715, 0.961, -0.214, -0.273, 0.244, -0.061, 0, -141.625, -70.082, -71.285, -28.113, -9.000, -2.493, 28.91, 0.09741, 0.73831, -0.2973, 0.59741,
 16:07:15.256,f6:90:cc:01:6d:25, 2015-01-01 01:19:40.045, 0.941, 0.012, -0.299, 0.183, -0.183, 0, 178.231, -72.367, -5.779, -28.353, -16.600, 5.687, 32.41, -0.04074, -0.80563, 0.04791, -0.58899,
 16:07:15.256,f6:90:cc:01:6d:25, 2015-01-01 01:19:40.045, 0.941, 0.011, -0.299, 0.122, -0.244, 0, 178.231, -72.367, -5.795, -28.353, -16.600, 5.687, 32.41, -0.04074, -0.80563, 0.04791, -0.58899,
 16:07:15.274,ed:40:fe:65:30:6c, 2015-01-01 01:19:30.455, 0.882, 0.006, 0.482, 0.61, 0, -0.305, 0.275, -61.479, -127.018, -27.240, -11.333, 3.207, 27.77, 0.38287, -0.45758, -0.22806, -0.76935,
 16:07:15.274,ed:40:fe:65:30:6c, 2015-01-01 01:19:30.455, 0.882, 0.006, 0.481, 0.793, 0.183, -0.183, 0.297, -61.469, -127.002, -27.240, -11.333, 3.207, 27.77, 0.38287, -0.45758, -0.22806, -0.76935,
 16:07:15.275,e3:ca:2d:fd:e0:8c, 2015-01-01 01:19:51.715, 0.96, -0.214, -0.273, 0.183, -0.061, 0, -141.625, -70.082, -71.279, -28.113, -9.000, -2.493, 28.91, 0.09741, 0.73831, -0.2973, 0.59741,
 16:07:15.275,e3:ca:2d:fd:e0:8c, 2015-01-01 01:19:51.715, 0.961, -0.215, -0.272, 0.122, 0, 0, -141.625, -70.082, -71.279, -28.113, -9.000, -2.493, 28.91, 0.09741, 0.73831, -0.2973, 0.59741,
 16:07:15.278,ed:35:33:d3:6c:f8, 2015-01-01 01:19:42.365, 0.863, 0.017, 0.493, 0.854, 0.061, -0.061, 1.412, -60.145, 176.578, -20.533, -11.553, -13.133, 32.72, -0.01953, -0.50153, 0.0051, -0.86487,
 16:07:15.278,ed:35:33:d3:6c:f8, 2015-01-01 01:19:42.365, 0.862, 0.018, 0.493, 0.427, 0.122, -0.122, 1.428, -60.139, 176.589, -20.533, -11.553, -13.133, 32.72, -0.01953, -0.50153, 0.0051, -0.86487,
 16:07:15.297,ed:40:fe:65:30:6c, 2015-01-01 01:19:30.455, 0.881, 0.007, 0.48, 0.427, 0.244, -0.183, 0.319, -61.463, -126.985, -26.853, -11.273, 3.840, 27.77, 0.38287, -0.45758, -0.22806, -0.76935,
 16:07:15.297,ed:40:fe:65:30:6c, 2015-01-01 01:19:30.455, 0.882, 0.006, 0.482, 0.061, 0.366, -0.244, 0.33, -61.458, -126.969, -26.853, -11.273, 3.840, 27.77, 0.38287, -0.45758, -0.22806, -0.76935,
 16:07:15.298,ed:35:33:d3:6c:f8, 2015-01-01 01:19:42.365, 0.863, 0.017, 0.495, 0.122, 0.061, -0.183, 1.445, -60.139, 176.616, -20.533, -11.553, -13.133, 32.72, -0.01953, -0.50153, 0.0051, -0.86487,
 16:07:15.298,ed:35:33:d3:6c:f8, 2015-01-01 01:19:42.365, 0.862, 0.016, 0.498, -0.183, -0.061, -0.183, 1.45, -60.139, 176.638, -20.533, -11.553, -13.133, 32.72, -0.01953, -0.50153, 0.0051, -0.86487,
 16:07:15.301,f6:90:cc:01:6d:25, 2015-01-01 01:19:40.045, 0.941, 0.01, -0.297, 0, -0.244, 0, 178.231, -72.361, -5.801, -28.353, -16.600, 5.687, 32.41, -0.04074, -0.80563, 0.04791, -0.58899,
 16:07:15.301,f6:90:cc:01:6d:25, 2015-01-01 01:19:40.045, 0.94, 0.01, -0.296, -0.122, -0.244, 0, 178.226, -72.356, -5.801, -28.353, -16.600, 5.687, 32.41, -0.04074, -0.80563, 0.04791, -0.58899,
 16:07:15.320,e3:ca:2d:fd:e0:8c, 2015-01-01 01:19:51.715, 0.96, -0.215, -0.271, 0, 0, 0.305, -141.614, -70.076, -71.296, -28.113, -9.000, -2.493, 28.91, 0.09741, 0.73831, -0.2973, 0.59741,
 16:07:15.320,e3:ca:2d:fd:e0:8c, 2015-01-01 01:19:51.715, 0.959, -0.215, -0.271, -0.122, -0.061, 0.244, -141.608, -70.071, -71.307, -28.113, -9.000, -2.493, 28.91, 0.09741, 0.73831, -0.2973, 0.59741,
 16:07:15.342,ed:40:fe:65:30:6c, 2015-01-01 01:19:30.455, 0.881, 0.006, 0.483, -0.183, 0.305, -0.183, 0.335, -61.447, -126.964, -26.853, -11.273, 3.840, 27.77, 0.38287, -0.45758, -0.22806, -0.76935,
 16:07:15.342,ed:40:fe:65:30:6c, 2015-01-01 01:19:30.455, 0.881, 0.001, 0.483, -0.183, 0, -0.061, 0.335, -61.447, -126.953, -26.853, -11.273, 3.840, 27.77, 0.38287, -0.45758, -0.22806, -0.76935,
 16:07:15.346,f6:90:cc:01:6d:25, 2015-01-01 01:19:40.045, 0.94, 0.008, -0.297, -0.244, -0.244, 0, 178.22, -72.35, -5.801, -28.353, -16.600, 5.687, 32.41, -0.04233, -0.80554, 0.04996, -0.58884,
 16:07:15.346,f6:90:cc:01:6d:25, 2015-01-01 01:19:40.045, 0.941, 0.007, -0.297, -0.305, -0.122, 0, 178.209, -72.35, -5.801, -28.353, -16.600, 5.687, 32.41, -0.04233, -0.80554, 0.04996, -0.58884,
 16:07:15.364,ed:40:fe:65:30:6c, 2015-01-01 01:19:30.455, 0.882, 0, 0.481, -0.488, 0.061, -0.061, 0.33, -61.441, -126.925, -26.853, -11.273, 3.840, 27.77, 0.38522, -0.45596, -0.23041, -0.76843,
 16:07:15.364,ed:40:fe:65:30:6c, 2015-01-01 01:19:30.455, 0.882, 0, 0.482, -0.183, -0.061, 0, 0.33, -61.441, -126.898, -26.853, -11.273, 3.840, 27.77, 0.38522, -0.45596, -0.23041, -0.76843,
 16:07:15.388,e3:ca:2d:fd:e0:8c, 2015-01-01 01:19:51.715, 0.959, -0.217, -0.27, -0.305, -0.061, 0.244, -141.608, -70.071, -71.312, -28.113, -9.000, -2.493, 28.91, 0.09741, 0.73831, -0.2973, 0.59741,
 16:07:15.388,e3:ca:2d:fd:e0:8c, 2015-01-01 01:19:51.715, 0.959, -0.217, -0.271, -0.244, 0, 0.244, -141.603, -70.065, -71.323, -28.113, -9.000, -2.493, 28.91, 0.09741, 0.73831, -0.2973, 0.59741,
 16:07:15.389,ed:35:33:d3:6c:f8, 2015-01-01 01:19:42.365, 0.863, 0.013, 0.496, -0.061, -0.366, 0, 1.456, -60.15, 176.644, -20.533, -11.553, -13.133, 32.72, -0.01953, -0.50153, 0.0051, -0.86487,
 16:07:15.389,ed:35:33:d3:6c:f8, 2015-01-01 01:19:42.365, 0.864, 0.011, 0.495, -0.488, -0.183, -0.061, 1.45, -60.15, 176.655, -20.533, -11.553, -13.133, 32.72, -0.01953, -0.50153, 0.0051, -0.86487,
 16:07:15.393,f6:90:cc:01:6d:25, 2015-01-01 01:19:40.360, 0.941, 0.006, -0.298, -0.305, -0.122, 0, 178.204, -72.345, -5.795, -28.353, -16.600, 5.687, 32.41, -0.04233, -0.80554, 0.04996, -0.58884,
 16:07:15.393,f6:90:cc:01:6d:25, 2015-01-01 01:19:40.360, 0.941, 0.005, -0.298, -0.183, -0.122, 0, 178.198, -72.345, -5.801, -28.353, -16.600, 5.687, 32.41, -0.04233, -0.80554, 0.04996, -0.58884,
 16:07:15.410,e3:ca:2d:fd:e0:8c, 2015-01-01 01:19:51.715, 0.959, -0.219, -0.272, -0.244, -0.061, 0.183, -141.603, -70.065, -71.334, -28.147, -9.067, -2.493, 28.91, 0.09741, 0.73831, -0.2973, 0.59741,
 16:07:15.410,e3:ca:2d:fd:e0:8c, 2015-01-01 01:19:51.715, 0.96, -0.22, -0.272, -0.183, 0, 0.122, -141.597, -70.065, -71.34, -28.147, -9.067, -2.493, 28.91, 0.09741, 0.73831, -0.2973, 0.59741,
 16:07:15.410,ed:40:fe:65:30:6c, 2015-01-01 01:19:30.455, 0.883, 0, 0.482, 0.061, -0.122, 0.305, 0.319, -61.441, -126.859, -26.853, -11.273, 3.840, 27.77, 0.38522, -0.45596, -0.23041, -0.76843,
 16:07:15.410,ed:40:fe:65:30:6c, 2015-01-01 01:19:30.455, 0.88, 0, 0.482, 0.488, -0.244, 0.671, 0.302, -61.447, -126.815, -26.853, -11.273, 3.840, 27.77, 0.38522, -0.45596, -0.23041, -0.76843,
 16:07:15.412,ed:35:33:d3:6c:f8, 2015-01-01 01:19:42.365, 0.864, 0.01, 0.495, -0.244, -0.183, 0, 1.445, -60.156, 176.671, -21.040, -11.593, -12.000, 32.72, -0.01953, -0.50153, 0.0051, -0.86487,
 16:07:15.412,ed:35:33:d3:6c:f8, 2015-01-01 01:19:42.365, 0.864, 0.013, 0.494, 0.061, -0.183, 0.427, 1.434, -60.161, 176.682, -21.040, -11.593, -12.000, 32.72, -0.01953, -0.50153, 0.0051, -0.86487,
 16:07:15.436,f6:90:cc:01:6d:25, 2015-01-01 01:19:40.360, 0.941, 0.005, -0.299, -0.061, -0.183, 0, 178.198, -72.345, -5.812, -28.353, -16.600, 5.687, 32.41, -0.04233, -0.80554, 0.04996, -0.58884,
 16:07:15.436,f6:90:cc:01:6d:25, 2015-01-01 01:19:40.360, 0.94, 0.007, -0.298, -0.061, -0.305, 0, 178.198, -72.339, -5.834, -28.353, -16.600, 5.687, 32.41, -0.04233, -0.80554, 0.04996, -0.58884,
 16:07:15.454,ed:40:fe:65:30:6c, 2015-01-01 01:19:30.810, 0.877, 0, 0.483, 0.366, -0.305, 0.793, 0.28, -61.452, -126.755, -26.853, -11.273, 3.840, 27.77, 0.38522, -0.45596, -0.23041, -0.76843,
 16:07:15.454,ed:40:fe:65:30:6c, 2015-01-01 01:19:30.810, 0.878, 0, 0.484, -0.244, -0.183, 0.549, 0.253, -61.452, -126.711, -26.853, -11.273, 3.840, 27.77, 0.38522, -0.45596, -0.23041, -0.76843,
 16:07:15.455,e3:ca:2d:fd:e0:8c, 2015-01-01 01:19:51.715, 0.96, -0.219, -0.273, -0.061, -0.061, 0.122, -141.592, -70.06, -71.34, -28.147, -9.067, -2.493, 28.91, 0.09741, 0.73831, -0.2973, 0.59741,
 16:07:15.455,e3:ca:2d:fd:e0:8c, 2015-01-01 01:19:51.715, 0.96, -0.216, -0.272, 0, -0.183, 0, -141.592, -70.06, -71.34, -28.147, -9.067, -2.493, 28.91, 0.09741, 0.73831, -0.2973, 0.59741,
 16:07:15.456,ed:35:33:d3:6c:f8, 2015-01-01 01:19:42.365, 0.862, 0.011, 0.495, 0.488, -0.305, 0.854, 1.417, -60.167, 176.699, -21.040, -11.593, -12.000, 32.72, -0.01953, -0.50153, 0.0051, -0.86487,
 16:07:15.456,ed:35:33:d3:6c:f8, 2015-01-01 01:19:42.365, 0.858, 0.01, 0.495, 0.305, -0.427, 0.916, 1.39, -60.172, 176.726, -21.040, -11.593, -12.000, 32.72, -0.01953, -0.50153, 0.0051, -0.86487,
 16:07:15.457,f6:90:cc:01:6d:25, 2015-01-01 01:19:40.360, 0.94, 0.008, -0.298, -0.061, -0.366, 0, 178.204, -72.334, -5.845, -28.353, -16.600, 5.687, 32.41, -0.04233, -0.80554, 0.04996, -0.58884,
 16:07:15.457,f6:90:cc:01:6d:25, 2015-01-01 01:19:40.360, 0.941, 0.01, -0.298, -0.061, -0.305, 0, 178.209, -72.328, -5.856, -28.353, -16.600, 5.687, 32.41, -0.04233, -0.80554, 0.04996, -0.58884,
 16:07:15.480,e3:ca:2d:fd:e0:8c, 2015-01-01 01:19:51.715, 0.961, -0.216, -0.272, 0, -0.244, 0.061, -141.597, -70.054, -71.329, -28.147, -9.067, -2.493, 28.91, 0.09729, 0.73828, -0.29752, 0.59738,
 16:07:15.480,e3:ca:2d:fd:e0:8c, 2015-01-01 01:19:51.715, 0.96, -0.216, -0.274, 0, -0.244, 0.061, -141.603, -70.049, -71.323, -28.147, -9.067, -2.493, 28.91, 0.09729, 0.73828, -0.29752, 0.59738,
 16:07:15.480,ed:35:33:d3:6c:f8, 2015-01-01 01:19:42.365, 0.86, 0.009, 0.495, -0.366, -0.61, 0.61, 1.362, -60.189, 176.732, -21.040, -11.593, -12.000, 32.72, -0.01865, -0.50146, 0.00394, -0.86493,
 16:07:15.480,ed:35:33:d3:6c:f8, 2015-01-01 01:19:42.365, 0.862, 0.007, 0.493, -0.549, -0.732, 0.122, 1.351, -60.2, 176.748, -21.040, -11.593, -12.000, 32.72, -0.01865, -0.50146, 0.00394, -0.86493,
 16:07:15.499,ed:40:fe:65:30:6c, 2015-01-01 01:19:30.810, 0.88, 0, 0.482, -0.488, 0.244, 0.061, 0.236, -61.447, -126.689, -26.853, -11.273, 3.840, 27.77, 0.38522, -0.45596, -0.23041, -0.76843,
 16:07:15.499,ed:40:fe:65:30:6c, 2015-01-01 01:19:30.810, 0.883, 0, 0.482, -0.366, 0.366, -0.244, 0.236, -61.436, -126.678, -26.853, -11.273, 3.840, 27.77, 0.38522, -0.45596, -0.23041, -0.76843,
 16:07:15.503,f6:90:cc:01:6d:25, 2015-01-01 01:19:40.360, 0.941, 0.01, -0.299, -0.122, -0.305, 0, 178.209, -72.323, -5.867, -28.353, -16.600, 5.687, 32.41, -0.04233, -0.80554, 0.04996, -0.58884,
 16:07:15.503,f6:90:cc:01:6d:25, 2015-01-01 01:19:40.360, 0.941, 0.008, -0.3, -0.122, -0.244, 0, 178.209, -72.318, -5.883, -28.353, -16.600, 5.687, 32.41, -0.04233, -0.80554, 0.04996, -0.58884,
 16:07:15.523,ed:40:fe:65:30:6c, 2015-01-01 01:19:30.810, 0.885, 0, 0.482, -0.061, 0.366, -0.427, 0.253, -61.425, -126.689, -26.853, -11.273, 3.840, 27.77, 0.38522, -0.45596, -0.23041, -0.76843,
 16:07:15.523,ed:40:fe:65:30:6c, 2015-01-01 01:19:30.810, 0.886, 0, 0.481, 0.122, 0.183, -0.427, 0.264, -61.419, -126.705, -26.853, -11.273, 3.840, 27.77, 0.38522, -0.45596, -0.23041, -0.76843,
 16:07:15.523,e3:ca:2d:fd:e0:8c, 2015-01-01 01:19:51.715, 0.96, -0.217, -0.274, 0, -0.244, 0.061, -141.608, -70.043, -71.318, -28.147, -9.067, -2.493, 28.91, 0.09729, 0.73828, -0.29752, 0.59738,
 16:07:15.523,e3:ca:2d:fd:e0:8c, 2015-01-01 01:19:51.715, 0.96, -0.217, -0.274, 0, -0.122, 0.061, -141.608, -70.043, -71.312, -28.147, -9.067, -2.493, 28.91, 0.09729, 0.73828, -0.29752, 0.59738,
