Time,Device name,Chip Time(),Acceleration X(g),Acceleration Y(g),Acceleration Z(g),Angular velocity X(°/s),Angular velocity Y(°/s),Angular velocity Z(°/s),Angle X(°),Angle Y(°),Angle Z(°),Magnetic field X(ʯt),Magnetic field Y(ʯt),Magnetic field Z(ʯt),Temperature(℃),Quaternions 0(),Quaternions 1(),Quaternions 2(),Quaternions 3()
 13:36:00.775,ed:35:33:d3:6c:f8, 2015-01-01 01:48:09.960, 0.757, 0.002, 0.642, -0.183, -0.244, -0.427, 0.242, -49.807, 152.628, -20.320, -10.047, -23.560, 29.1, 0.2135, 0.40912, -0.09756, 0.88171,
 13:36:00.776,ed:35:33:d3:6c:f8, 2015-01-01 01:48:09.960, 0.759, 0.004, 0.641, -0.549, -0.305, -0.122, 0.242, -49.812, 152.617, -20.320, -10.047, -23.560, 29.1, 0.2135, 0.40912, -0.09756, 0.88171,
 13:36:00.793,e3:ca:2d:fd:e0:8c, 2015-01-01 01:48:09.780, 0.986, -0.069, 0.252, -0.061, 0, 0, -15.337, -75.141, 173.221, -26.507, -10.193, -12.620, 27.69, -0.12796, -0.59659, 0.14136, -0.77948,
 13:36:00.793,e3:ca:2d:fd:e0:8c, 2015-01-01 01:48:09.780, 0.985, -0.071, 0.253, -0.183, 0, 0, -15.337, -75.141, 173.227, -26.507, -10.193, -12.620, 27.69, -0.12796, -0.59659, 0.14136, -0.77948,
 13:36:00.793,ed:40:fe:65:30:6c, 2015-01-01 01:48:14.975, 0.866, 0.018, 0.501, 0, 0.122, -0.244, 2.01, -59.925, -127.502, -25.547, -10.313, 1.053, 27.5, 0.39053, -0.44186, -0.23447, -0.77277,
 13:36:00.793,ed:40:fe:65:30:6c, 2015-01-01 01:48:14.975, 0.871, 0.018, 0.5, -0.366, 0, -0.488, 2.021, -59.925, -127.518, -25.547, -10.313, 1.053, 27.5, 0.39053, -0.44186, -0.23447, -0.77277,
 13:36:00.794,f6:90:cc:01:6d:25, 2015-01-01 01:48:10.045, 0.984, 0.012, 0.039, -0.793, 0.244, -0.183, 15.43, -87.457, 161.548, -31.387, -12.827, -1.180, 31.92, -0.01913, -0.69189, 0.01093, -0.72159,
 13:36:00.794,f6:90:cc:01:6d:25, 2015-01-01 01:48:10.045, 0.985, 0.008, 0.041, -0.488, 0.305, -0.122, 15.43, -87.451, 161.516, -31.387, -12.827, -1.180, 31.92, -0.01913, -0.69189, 0.01093, -0.72159,
 13:36:00.818,ed:35:33:d3:6c:f8, 2015-01-01 01:48:09.960, 0.758, 0.007, 0.64, -0.488, -0.183, -0.305, 0.242, -49.818, 152.611, -20.320, -10.047, -23.560, 29.1, 0.2135, 0.40912, -0.09756, 0.88171,
 13:36:00.818,ed:35:33:d3:6c:f8, 2015-01-01 01:48:09.960, 0.758, 0.003, 0.642, -0.366, -0.122, -0.061, 0.236, -49.818, 152.6, -20.320, -10.047, -23.560, 29.1, 0.2135, 0.40912, -0.09756, 0.88171,
 13:36:00.837,ed:40:fe:65:30:6c, 2015-01-01 01:48:14.975, 0.869, 0.021, 0.501, -0.488, 0, -0.427, 2.027, -59.925, -127.546, -25.547, -10.313, 1.053, 27.5, 0.39053, -0.44186, -0.23447, -0.77277,
 13:36:00.837,ed:40:fe:65:30:6c, 2015-01-01 01:48:14.975, 0.868, 0.017, 0.5, -0.122, 0.366, 0, 2.027, -59.925, -127.568, -25.547, -10.313, 1.053, 27.5, 0.39053, -0.44186, -0.23447, -0.77277,
 13:36:00.839,e3:ca:2d:fd:e0:8c, 2015-01-01 01:48:09.780, 0.985, -0.07, 0.254, -0.122, -0.061, 0, -15.342, -75.141, 173.238, -26.507, -10.193, -12.620, 27.69, -0.12796, -0.59659, 0.14136, -0.77948,
 13:36:00.839,e3:ca:2d:fd:e0:8c, 2015-01-01 01:48:09.780, 0.986, -0.071, 0.252, -0.183, -0.183, 0, -15.353, -75.146, 173.249, -26.507, -10.193, -12.620, 27.69, -0.12796, -0.59659, 0.14136, -0.77948,
 13:36:00.841,f6:90:cc:01:6d:25, 2015-01-01 01:48:10.045, 0.986, 0.009, 0.045, -0.671, 0.305, -0.122, 15.414, -87.446, 161.494, -31.387, -12.827, -1.180, 31.92, -0.01913, -0.69189, 0.01093, -0.72159,
 13:36:00.841,f6:90:cc:01:6d:25, 2015-01-01 01:48:10.045, 0.984, 0.009, 0.042, -0.854, 0.366, -0.122, 15.386, -87.44, 161.477, -31.387, -12.827, -1.180, 31.92, -0.01913, -0.69189, 0.01093, -0.72159,
 13:36:00.859,ed:40:fe:65:30:6c, 2015-01-01 01:48:14.975, 0.868, 0.016, 0.5, -0.183, 0.244, 0, 2.027, -59.919, -127.573, -25.467, -10.500, 0.933, 27.5, 0.39053, -0.44186, -0.23447, -0.77277,
 13:36:00.859,ed:40:fe:65:30:6c, 2015-01-01 01:48:14.975, 0.867, 0.017, 0.501, -0.244, 0.061, -0.122, 2.021, -59.919, -127.584, -25.467, -10.500, 0.933, 27.5, 0.39053, -0.44186, -0.23447, -0.77277,
 13:36:00.864,f6:90:cc:01:6d:25, 2015-01-01 01:48:10.045, 0.985, 0.006, 0.04, -0.488, 0.427, 0, 15.309, -87.435, 161.505, -31.207, -12.473, -1.273, 31.92, -0.01913, -0.69189, 0.01093, -0.72159,
 13:36:00.864,f6:90:cc:01:6d:25, 2015-01-01 01:48:10.045, 0.984, 0.008, 0.04, -0.061, 0.244, 0.061, 15.222, -87.429, 161.548, -31.207, -12.473, -1.273, 31.92, -0.01913, -0.69189, 0.01093, -0.72159,
 13:36:00.864,ed:35:33:d3:6c:f8, 2015-01-01 01:48:09.960, 0.759, 0.001, 0.641, -0.366, -0.061, -0.244, 0.236, -49.818, 152.595, -20.320, -10.047, -23.560, 29.1, 0.21387, 0.40964, -0.09784, 0.88135,
 13:36:00.864,ed:35:33:d3:6c:f8, 2015-01-01 01:48:09.960, 0.758, 0.001, 0.641, -0.366, 0, -0.427, 0.236, -49.818, 152.584, -20.320, -10.047, -23.560, 29.1, 0.21387, 0.40964, -0.09784, 0.88135,
 13:36:00.884,e3:ca:2d:fd:e0:8c, 2015-01-01 01:48:09.780, 0.988, -0.072, 0.251, -0.366, -0.122, 0, -15.37, -75.146, 173.26, -26.507, -10.193, -12.620, 27.69, -0.12796, -0.59659, 0.14136, -0.77948,
 13:36:00.884,e3:ca:2d:fd:e0:8c, 2015-01-01 01:48:09.780, 0.987, -0.072, 0.25, -0.305, -0.061, 0, -15.381, -75.146, 173.265, -26.507, -10.193, -12.620, 27.69, -0.12796, -0.59659, 0.14136, -0.77948,
 13:36:00.907,ed:40:fe:65:30:6c, 2015-01-01 01:48:14.975, 0.867, 0.017, 0.501, -0.366, 0, -0.488, 2.032, -59.919, -127.612, -25.467, -10.500, 0.933, 27.5, 0.39053, -0.44186, -0.23447, -0.77277,
 13:36:00.907,ed:40:fe:65:30:6c, 2015-01-01 01:48:14.975, 0.868, 0.018, 0.502, -0.549, -0.183, -0.671, 2.043, -59.925, -127.645, -25.467, -10.500, 0.933, 27.5, 0.39053, -0.44186, -0.23447, -0.77277,
 13:36:00.909,f6:90:cc:01:6d:25, 2015-01-01 01:48:10.045, 0.983, 0.012, 0.041, -0.122, 0.061, 0.122, 15.134, -87.429, 161.603, -31.207, -12.473, -1.273, 31.92, -0.01913, -0.69189, 0.01093, -0.72159,
 13:36:00.909,f6:90:cc:01:6d:25, 2015-01-01 01:48:10.045, 0.984, 0.01, 0.041, -0.183, 0, 0.183, 15.035, -87.429, 161.669, -31.207, -12.473, -1.273, 31.92, -0.01913, -0.69189, 0.01093, -0.72159,
 13:36:00.909,ed:35:33:d3:6c:f8, 2015-01-01 01:48:10.275, 0.757, 0.001, 0.642, -0.366, 0.061, -0.61, 0.242, -49.818, 152.567, -20.320, -10.047, -23.560, 29.1, 0.21387, 0.40964, -0.09784, 0.88135,
 13:36:00.909,ed:35:33:d3:6c:f8, 2015-01-01 01:48:10.275, 0.758, 0.003, 0.642, -0.427, 0.061, -0.671, 0.253, -49.818, 152.545, -20.320, -10.047, -23.560, 29.1, 0.21387, 0.40964, -0.09784, 0.88135,
 13:36:00.929,e3:ca:2d:fd:e0:8c, 2015-01-01 01:48:09.780, 0.986, -0.071, 0.25, -0.061, -0.061, 0, -15.386, -75.146, 173.276, -26.300, -10.733, -11.573, 27.69, -0.12796, -0.59659, 0.14136, -0.77948,
 13:36:00.929,e3:ca:2d:fd:e0:8c, 2015-01-01 01:48:09.780, 0.985, -0.07, 0.25, 0, -0.122, 0, -15.392, -75.152, 173.282, -26.300, -10.733, -11.573, 27.69, -0.12796, -0.59659, 0.14136, -0.77948,
 13:36:00.953,ed:35:33:d3:6c:f8, 2015-01-01 01:48:10.275, 0.757, 0.004, 0.642, -0.61, 0.061, -0.793, 0.258, -49.818, 152.518, -20.320, -10.047, -23.560, 29.1, 0.21387, 0.40964, -0.09784, 0.88135,
 13:36:00.953,ed:35:33:d3:6c:f8, 2015-01-01 01:48:10.275, 0.758, 0.004, 0.643, -0.854, 0, -0.916, 0.264, -49.812, 152.49, -20.320, -10.047, -23.560, 29.1, 0.21387, 0.40964, -0.09784, 0.88135,
 13:36:00.972,ed:40:fe:65:30:6c, 2015-01-01 01:48:14.975, 0.868, 0.018, 0.502, -0.854, -0.244, -0.61, 2.049, -59.925, -127.672, -25.467, -10.500, 0.933, 27.5, 0.39017, -0.44125, -0.23416, -0.77338,
 13:36:00.972,ed:40:fe:65:30:6c, 2015-01-01 01:48:14.975, 0.869, 0.018, 0.502, -1.038, -0.244, -0.61, 2.049, -59.93, -127.689, -25.467, -10.500, 0.933, 27.5, 0.39017, -0.44125, -0.23416, -0.77338,
 13:36:00.974,e3:ca:2d:fd:e0:8c, 2015-01-01 01:48:09.780, 0.986, -0.071, 0.25, 0, -0.122, 0, -15.397, -75.152, 173.293, -26.300, -10.733, -11.573, 27.69, -0.12796, -0.59659, 0.14136, -0.77948,
 13:36:00.974,e3:ca:2d:fd:e0:8c, 2015-01-01 01:48:09.780, 0.986, -0.071, 0.25, 0, -0.122, 0, -15.408, -75.157, 173.304, -26.300, -10.733, -11.573, 27.69, -0.12796, -0.59659, 0.14136, -0.77948,
 13:36:00.975,f6:90:cc:01:6d:25, 2015-01-01 01:48:10.045, 0.984, 0.008, 0.042, -0.366, -0.244, 0.122, 14.969, -87.435, 161.702, -31.207, -12.473, -1.273, 31.92, -0.02478, -0.69144, 0.01569, -0.72177,
 13:36:00.975,f6:90:cc:01:6d:25, 2015-01-01 01:48:10.045, 0.985, 0.009, 0.041, -0.305, -0.488, 0.183, 14.914, -87.446, 161.719, -31.207, -12.473, -1.273, 31.92, -0.02478, -0.69144, 0.01569, -0.72177,
 13:36:00.976,ed:35:33:d3:6c:f8, 2015-01-01 01:48:10.275, 0.758, 0.003, 0.643, -0.793, 0, -0.854, 0.269, -49.812, 152.463, -20.320, -10.047, -23.560, 29.1, 0.21387, 0.40964, -0.09784, 0.88135,
 13:36:00.976,ed:35:33:d3:6c:f8, 2015-01-01 01:48:10.275, 0.758, 0, 0.641, -0.549, -0.122, -0.549, 0.269, -49.812, 152.441, -20.320, -10.047, -23.560, 29.1, 0.21387, 0.40964, -0.09784, 0.88135,
 13:36:00.995,ed:40:fe:65:30:6c, 2015-01-01 01:48:15.355, 0.869, 0.017, 0.501, -0.977, -0.305, -0.61, 2.054, -59.936, -127.705, -25.467, -10.500, 0.933, 27.5, 0.39017, -0.44125, -0.23416, -0.77338,
 13:36:00.995,ed:40:fe:65:30:6c, 2015-01-01 01:48:15.355, 0.87, 0.012, 0.5, -0.549, -0.183, -0.488, 2.054, -59.941, -127.711, -25.467, -10.500, 0.933, 27.5, 0.39017, -0.44125, -0.23416, -0.77338,
 13:36:00.996,e3:ca:2d:fd:e0:8c, 2015-01-01 01:48:09.780, 0.987, -0.071, 0.252, 0.061, -0.183, 0, -15.414, -75.157, 173.315, -26.300, -10.733, -11.573, 27.69, -0.12747, -0.59708, 0.14133, -0.77921,
 13:36:00.996,e3:ca:2d:fd:e0:8c, 2015-01-01 01:48:09.780, 0.987, -0.072, 0.252, 0.122, -0.183, 0, -15.419, -75.163, 173.326, -26.300, -10.733, -11.573, 27.69, -0.12747, -0.59708, 0.14133, -0.77921,
 13:36:00.997,f6:90:cc:01:6d:25, 2015-01-01 01:48:10.405, 0.985, 0.009, 0.042, -0.488, -0.488, 0.183, 14.854, -87.457, 161.735, -31.207, -12.473, -1.273, 31.92, -0.02478, -0.69144, 0.01569, -0.72177,
 13:36:00.997,f6:90:cc:01:6d:25, 2015-01-01 01:48:10.405, 0.985, 0.007, 0.04, -0.122, -0.488, 0.122, 14.821, -87.468, 161.735, -31.207, -12.473, -1.273, 31.92, -0.02478, -0.69144, 0.01569, -0.72177,
 13:36:01.020,f6:90:cc:01:6d:25, 2015-01-01 01:48:10.405, 0.986, 0.004, 0.042, 0.122, -0.488, -0.061, 14.865, -87.479, 161.647, -31.207, -12.473, -1.273, 31.92, -0.02478, -0.69144, 0.01569, -0.72177,
 13:36:01.020,f6:90:cc:01:6d:25, 2015-01-01 01:48:10.405, 0.986, 0.006, 0.042, 0.488, -0.366, -0.244, 14.98, -87.484, 161.488, -31.207, -12.473, -1.273, 31.92, -0.02478, -0.69144, 0.01569, -0.72177,
 13:36:01.021,ed:35:33:d3:6c:f8, 2015-01-01 01:48:10.275, 0.76, 0.002, 0.641, -0.183, -0.061, -0.244, 0.275, -49.812, 152.424, -20.320, -10.047, -23.560, 29.1, 0.21387, 0.40964, -0.09784, 0.88135,
 13:36:01.021,ed:35:33:d3:6c:f8, 2015-01-01 01:48:10.275, 0.759, 0.003, 0.64, 0.061, 0.061, 0, 0.275, -49.812, 152.419, -20.320, -10.047, -23.560, 29.1, 0.21387, 0.40964, -0.09784, 0.88135,
 13:36:01.039,ed:40:fe:65:30:6c, 2015-01-01 01:48:15.355, 0.87, 0.015, 0.499, -0.122, -0.244, -0.244, 2.06, -59.947, -127.711, -25.467, -10.500, 0.933, 27.5, 0.39017, -0.44125, -0.23416, -0.77338,
 13:36:01.039,ed:40:fe:65:30:6c, 2015-01-01 01:48:15.355, 0.87, 0.017, 0.5, 0.061, -0.183, 0, 2.06, -59.952, -127.716, -25.467, -10.500, 0.933, 27.5, 0.39017, -0.44125, -0.23416, -0.77338,
 13:36:01.041,e3:ca:2d:fd:e0:8c, 2015-01-01 01:48:09.780, 0.987, -0.072, 0.253, 0.122, -0.183, 0, -15.425, -75.168, 173.337, -26.300, -10.733, -11.573, 27.69, -0.12747, -0.59708, 0.14133, -0.77921,
 13:36:01.041,e3:ca:2d:fd:e0:8c, 2015-01-01 01:48:09.780, 0.987, -0.072, 0.252, 0.122, -0.305, 0, -15.436, -75.174, 173.348, -26.300, -10.733, -11.573, 27.69, -0.12747, -0.59708, 0.14133, -0.77921,
 13:36:01.063,ed:40:fe:65:30:6c, 2015-01-01 01:48:15.355, 0.869, 0.019, 0.5, 0.122, -0.183, 0.061, 2.06, -59.958, -127.727, -25.467, -10.500, 0.933, 27.5, 0.39017, -0.44125, -0.23416, -0.77338,
 13:36:01.063,ed:40:fe:65:30:6c, 2015-01-01 01:48:15.355, 0.872, 0.018, 0.499, 0.183, 0, 0.244, 2.054, -59.958, -127.744, -25.467, -10.500, 0.933, 27.5, 0.39017, -0.44125, -0.23416, -0.77338,
 13:36:01.064,f6:90:cc:01:6d:25, 2015-01-01 01:48:10.405, 0.984, 0.007, 0.041, 0.488, -0.366, -0.244, 15.084, -87.49, 161.334, -31.207, -12.473, -1.273, 31.92, -0.02478, -0.69144, 0.01569, -0.72177,
 13:36:01.064,f6:90:cc:01:6d:25, 2015-01-01 01:48:10.405, 0.985, 0.008, 0.042, 0.671, -0.366, -0.183, 15.172, -87.501, 161.202, -31.207, -12.473, -1.273, 31.92, -0.02478, -0.69144, 0.01569, -0.72177,
 13:36:01.067,ed:35:33:d3:6c:f8, 2015-01-01 01:48:10.275, 0.758, 0.005, 0.641, 0.122, 0.183, 0.061, 0.275, -49.812, 152.419, -20.320, -10.047, -23.560, 29.1, 0.21387, 0.40964, -0.09784, 0.88135,
 13:36:01.067,ed:35:33:d3:6c:f8, 2015-01-01 01:48:10.275, 0.761, 0.004, 0.64, 0.183, 0.305, 0.122, 0.275, -49.807, 152.419, -20.320, -10.047, -23.560, 29.1, 0.21387, 0.40964, -0.09784, 0.88135,
 13:36:01.085,e3:ca:2d:fd:e0:8c, 2015-01-01 01:48:10.140, 0.986, -0.072, 0.251, 0.183, -0.427, 0, -15.441, -75.179, 173.364, -26.300, -10.733, -11.573, 27.69, -0.12747, -0.59708, 0.14133, -0.77921,
 13:36:01.085,e3:ca:2d:fd:e0:8c, 2015-01-01 01:48:10.140, 0.988, -0.071, 0.25, 0.122, -0.427, 0, -15.452, -75.19, 173.381, -26.300, -10.733, -11.573, 27.69, -0.12747, -0.59708, 0.14133, -0.77921,
 13:36:01.107,ed:40:fe:65:30:6c, 2015-01-01 01:48:15.355, 0.871, 0.018, 0.499, 0.61, 0.061, 0.305, 2.054, -59.958, -127.76, -25.467, -10.500, 0.933, 27.5, 0.39017, -0.44125, -0.23416, -0.77338,
 13:36:01.107,ed:40:fe:65:30:6c, 2015-01-01 01:48:15.355, 0.868, 0.014, 0.499, 1.099, 0.244, 0.427, 2.06, -59.952, -127.766, -25.467, -10.500, 0.933, 27.5, 0.39017, -0.44125, -0.23416, -0.77338,
 13:36:01.109,e3:ca:2d:fd:e0:8c, 2015-01-01 01:48:10.140, 0.988, -0.071, 0.249, 0.122, -0.488, 0, -15.469, -75.196, 173.397, -26.300, -10.733, -11.573, 27.69, -0.12747, -0.59708, 0.14133, -0.77921,
 13:36:01.109,e3:ca:2d:fd:e0:8c, 2015-01-01 01:48:10.140, 0.989, -0.07, 0.248, 0, -0.488, 0, -15.48, -75.207, 173.414, -26.300, -10.733, -11.573, 27.69, -0.12747, -0.59708, 0.14133, -0.77921,
 13:36:01.110,f6:90:cc:01:6d:25, 2015-01-01 01:48:10.405, 0.986, 0.01, 0.04, 0.488, -0.366, -0.061, 15.205, -87.506, 161.131, -31.207, -12.473, -1.273, 31.92, -0.02478, -0.69144, 0.01569, -0.72177,
 13:36:01.110,f6:90:cc:01:6d:25, 2015-01-01 01:48:10.405, 0.985, 0.009, 0.037, 0.427, -0.305, 0, 15.211, -87.512, 161.087, -31.207, -12.473, -1.273, 31.92, -0.02478, -0.69144, 0.01569, -0.72177,
 13:36:01.110,ed:35:33:d3:6c:f8, 2015-01-01 01:48:10.275, 0.76, 0.004, 0.641, 0.305, 0.244, 0, 0.28, -49.801, 152.419, -19.700, -9.893, -23.240, 29.1, 0.21387, 0.40964, -0.09784, 0.88135,
 13:36:01.110,ed:35:33:d3:6c:f8, 2015-01-01 01:48:10.275, 0.759, 0.001, 0.64, 0.671, 0.061, 0.061, 0.291, -49.796, 152.419, -19.700, -9.893, -23.240, 29.1, 0.21387, 0.40964, -0.09784, 0.88135,
 13:36:01.155,e3:ca:2d:fd:e0:8c, 2015-01-01 01:48:10.140, 0.99, -0.072, 0.249, 0.061, -0.183, 0, -15.491, -75.212, 173.425, -26.300, -10.733, -11.573, 27.69, -0.12747, -0.59708, 0.14133, -0.77921,
 13:36:01.155,e3:ca:2d:fd:e0:8c, 2015-01-01 01:48:10.140, 0.989, -0.071, 0.248, 0.183, 0, 0, -15.491, -75.212, 173.43, -26.300, -10.733, -11.573, 27.69, -0.12747, -0.59708, 0.14133, -0.77921,
 13:36:01.157,ed:35:33:d3:6c:f8, 2015-01-01 01:48:10.275, 0.761, 0.001, 0.638, 0.549, 0.122, 0.732, 0.291, -49.796, 152.43, -19.700, -9.893, -23.240, 29.1, 0.21503, 0.40942, -0.09802, 0.88113,
 13:36:01.157,ed:35:33:d3:6c:f8, 2015-01-01 01:48:10.275, 0.762, 0.006, 0.639, 0.549, 0.366, 0.488, 0.291, -49.79, 152.452, -19.700, -9.893, -23.240, 29.1, 0.21503, 0.40942, -0.09802, 0.88113,
 13:36:01.175,ed:40:fe:65:30:6c, 2015-01-01 01:48:15.355, 0.87, 0.016, 0.496, 0.732, 0, 0.427, 2.06, -59.958, -127.782, -25.467, -10.500, 0.933, 27.5, 0.39017, -0.44125, -0.23416, -0.77338,
 13:36:01.175,ed:40:fe:65:30:6c, 2015-01-01 01:48:15.355, 0.872, 0.022, 0.498, 0.427, -0.183, 0.305, 2.054, -59.963, -127.798, -25.467, -10.500, 0.933, 27.5, 0.39017, -0.44125, -0.23416, -0.77338,
 13:36:01.178,ed:35:33:d3:6c:f8, 2015-01-01 01:48:10.565, 0.762, 0.011, 0.643, 0.122, 0.549, 0.549, 0.286, -49.785, 152.463, -19.700, -9.893, -23.240, 29.1, 0.21503, 0.40942, -0.09802, 0.88113,
 13:36:01.178,ed:35:33:d3:6c:f8, 2015-01-01 01:48:10.565, 0.759, 0.011, 0.645, -0.061, 0.488, 0.183, 0.28, -49.774, 152.474, -19.700, -9.893, -23.240, 29.1, 0.21503, 0.40942, -0.09802, 0.88113,
 13:36:01.178,f6:90:cc:01:6d:25, 2015-01-01 01:48:10.405, 0.986, 0.004, 0.036, 0.977, -0.244, -0.244, 15.32, -87.517, 160.944, -31.207, -12.473, -1.273, 31.92, -0.02478, -0.69144, 0.01569, -0.72177,
 13:36:01.178,f6:90:cc:01:6d:25, 2015-01-01 01:48:10.405, 0.987, 0.009, 0.035, 0.916, -0.061, -0.305, 15.436, -87.517, 160.796, -31.207, -12.473, -1.273, 31.92, -0.02478, -0.69144, 0.01569, -0.72177,
 13:36:01.199,e3:ca:2d:fd:e0:8c, 2015-01-01 01:48:10.140, 0.99, -0.069, 0.25, 0.122, 0, -0.305, -15.469, -75.212, 173.414, -26.300, -10.733, -11.573, 27.69, -0.12747, -0.59708, 0.14133, -0.77921,
 13:36:01.199,e3:ca:2d:fd:e0:8c, 2015-01-01 01:48:10.140, 0.991, -0.069, 0.25, 0.122, 0, -0.244, -15.458, -75.212, 173.403, -26.300, -10.733, -11.573, 27.69, -0.12747, -0.59708, 0.14133, -0.77921,
 13:36:01.199,ed:40:fe:65:30:6c, 2015-01-01 01:48:15.355, 0.874, 0.025, 0.5, -0.061, -0.305, 0.061, 2.054, -59.969, -127.82, -24.900, -10.547, 0.607, 27.5, 0.39017, -0.44125, -0.23416, -0.77338,
 13:36:01.199,ed:40:fe:65:30:6c, 2015-01-01 01:48:15.355, 0.871, 0.025, 0.502, -0.244, -0.183, 0.122, 2.049, -59.974, -127.842, -24.900, -10.547, 0.607, 27.5, 0.39017, -0.44125, -0.23416, -0.77338,
 13:36:01.201,f6:90:cc:01:6d:25, 2015-01-01 01:48:10.405, 0.99, 0.011, 0.038, 0.732, 0, -0.122, 15.469, -87.517, 160.735, -30.980, -12.360, -2.400, 31.92, -0.02478, -0.69144, 0.01569, -0.72177,
 13:36:01.201,f6:90:cc:01:6d:25, 2015-01-01 01:48:10.405, 0.988, 0.012, 0.039, 0.488, -0.183, 0.061, 15.447, -87.528, 160.735, -30.980, -12.360, -2.400, 31.92, -0.02478, -0.69144, 0.01569, -0.72177,
 13:36:01.224,ed:35:33:d3:6c:f8, 2015-01-01 01:48:10.565, 0.758, 0.005, 0.644, -0.305, 0.244, 0.122, 0.275, -49.768, 152.479, -19.700, -9.893, -23.240, 29.1, 0.21503, 0.40942, -0.09802, 0.88113,
 13:36:01.224,ed:35:33:d3:6c:f8, 2015-01-01 01:48:10.565, 0.757, 0, 0.642, -0.305, 0.061, 0.305, 0.264, -49.768, 152.485, -19.700, -9.893, -23.240, 29.1, 0.21503, 0.40942, -0.09802, 0.88113,
 13:36:01.247,f6:90:cc:01:6d:25, 2015-01-01 01:48:10.405, 0.984, 0.012, 0.037, 0.061, -0.122, 0.122, 15.397, -87.528, 160.768, -30.980, -12.360, -2.400, 31.92, -0.02478, -0.69144, 0.01569, -0.72177,
 13:36:01.247,f6:90:cc:01:6d:25, 2015-01-01 01:48:10.405, 0.984, 0.009, 0.037, -0.183, -0.183, 0.183, 15.32, -87.539, 160.823, -30.980, -12.360, -2.400, 31.92, -0.02478, -0.69144, 0.01569, -0.72177,
 13:36:01.247,ed:40:fe:65:30:6c, 2015-01-01 01:48:15.355, 0.867, 0.019, 0.5, -0.244, -0.061, 0.244, 2.038, -59.98, -127.864, -24.900, -10.547, 0.607, 27.5, 0.39017, -0.44125, -0.23416, -0.77338,
 13:36:01.247,ed:40:fe:65:30:6c, 2015-01-01 01:48:15.355, 0.868, 0.016, 0.5, -0.244, -0.183, 0.122, 2.032, -59.985, -127.875, -24.900, -10.547, 0.607, 27.5, 0.39017, -0.44125, -0.23416, -0.77338,
 13:36:01.265,e3:ca:2d:fd:e0:8c, 2015-01-01 01:48:10.140, 0.987, -0.068, 0.248, 0, 0, -0.244, -15.441, -75.218, 173.386, -26.300, -10.733, -11.573, 27.69, -0.12747, -0.59708, 0.14133, -0.77921,
 13:36:01.265,e3:ca:2d:fd:e0:8c, 2015-01-01 01:48:10.140, 0.984, -0.07, 0.25, 0, 0.183, -0.183, -15.425, -75.218, 173.375, -26.300, -10.733, -11.573, 27.69, -0.12747, -0.59708, 0.14133, -0.77921,
 13:36:01.265,ed:40:fe:65:30:6c, 2015-01-01 01:48:15.355, 0.867, 0.015, 0.499, -0.366, -0.427, 0, 2.027, -59.996, -127.897, -24.900, -10.547, 0.607, 27.5, 0.38831, -0.44226, -0.23334, -0.77399,
 13:36:01.266,ed:40:fe:65:30:6c, 2015-01-01 01:48:15.355, 0.867, 0.017, 0.5, -0.488, -0.427, -0.061, 2.016, -60.002, -127.903, -24.900, -10.547, 0.607, 27.5, 0.38831, -0.44226, -0.23334, -0.77399,
 13:36:01.267,f6:90:cc:01:6d:25, 2015-01-01 01:48:10.405, 0.984, 0.008, 0.041, 0.183, -0.305, 0.061, 15.32, -87.545, 160.812, -30.980, -12.360, -2.400, 31.92, -0.02826, -0.69205, 0.01926, -0.72098,
 13:36:01.267,f6:90:cc:01:6d:25, 2015-01-01 01:48:10.405, 0.983, 0.008, 0.041, 0.122, -0.305, 0, 15.342, -87.55, 160.768, -30.980, -12.360, -2.400, 31.92, -0.02826, -0.69205, 0.01926, -0.72098,
 13:36:01.269,ed:35:33:d3:6c:f8, 2015-01-01 01:48:10.565, 0.756, 0.001, 0.641, -0.122, 0.183, 0.366, 0.253, -49.763, 152.49, -19.700, -9.893, -23.240, 29.1, 0.21503, 0.40942, -0.09802, 0.88113,
 13:36:01.269,ed:35:33:d3:6c:f8, 2015-01-01 01:48:10.565, 0.754, 0.003, 0.642, -0.061, 0.427, 0.488, 0.247, -49.757, 152.507, -19.700, -9.893, -23.240, 29.1, 0.21503, 0.40942, -0.09802, 0.88113,
 13:36:01.288,e3:ca:2d:fd:e0:8c, 2015-01-01 01:48:10.140, 0.983, -0.07, 0.25, 0.122, 0.183, -0.061, -15.419, -75.212, 173.375, -26.560, -11.227, -12.427, 27.69, -0.12747, -0.59708, 0.14133, -0.77921,
 13:36:01.288,e3:ca:2d:fd:e0:8c, 2015-01-01 01:48:10.140, 0.985, -0.07, 0.251, 0.183, 0.061, -0.122, -15.408, -75.212, 173.37, -26.560, -11.227, -12.427, 27.69, -0.12747, -0.59708, 0.14133, -0.77921,
 13:36:01.310,ed:40:fe:65:30:6c, 2015-01-01 01:48:15.355, 0.87, 0.019, 0.5, -0.61, -0.61, -0.061, 2.01, -60.018, -127.908, -24.900, -10.547, 0.607, 27.5, 0.38831, -0.44226, -0.23334, -0.77399,
 13:36:01.310,ed:40:fe:65:30:6c, 2015-01-01 01:48:15.355, 0.87, 0.016, 0.5, -0.305, -0.366, 0, 2.005, -60.024, -127.914, -24.900, -10.547, 0.607, 27.5, 0.38831, -0.44226, -0.23334, -0.77399,
 13:36:01.312,f6:90:cc:01:6d:25, 2015-01-01 01:48:10.405, 0.985, 0.009, 0.042, 0.122, -0.305, 0, 15.359, -87.561, 160.724, -30.980, -12.360, -2.400, 31.92, -0.02826, -0.69205, 0.01926, -0.72098,
 13:36:01.312,f6:90:cc:01:6d:25, 2015-01-01 01:48:10.405, 0.987, 0.009, 0.041, 0.122, -0.244, 0, 15.364, -87.567, 160.692, -30.980, -12.360, -2.400, 31.92, -0.02826, -0.69205, 0.01926, -0.72098,
 13:36:01.314,ed:35:33:d3:6c:f8, 2015-01-01 01:48:10.565, 0.758, 0.004, 0.642, 0.061, 0.427, 0.427, 0.236, -49.752, 152.518, -19.700, -9.893, -23.240, 29.1, 0.21503, 0.40942, -0.09802, 0.88113,
 13:36:01.314,ed:35:33:d3:6c:f8, 2015-01-01 01:48:10.565, 0.757, 0.001, 0.643, 0.061, 0.305, 0, 0.236, -49.741, 152.518, -19.700, -9.893, -23.240, 29.1, 0.21503, 0.40942, -0.09802, 0.88113,
 13:36:01.334,e3:ca:2d:fd:e0:8c, 2015-01-01 01:48:10.140, 0.987, -0.07, 0.253, 0.061, -0.061, -0.183, -15.397, -75.218, 173.364, -26.560, -11.227, -12.427, 27.69, -0.12747, -0.59708, 0.14133, -0.77921,
 13:36:01.334,e3:ca:2d:fd:e0:8c, 2015-01-01 01:48:10.140, 0.988, -0.071, 0.251, 0, -0.061, -0.122, -15.397, -75.218, 173.359, -26.560, -11.227, -12.427, 27.69, -0.12747, -0.59708, 0.14133, -0.77921,
 13:36:01.355,ed:40:fe:65:30:6c, 2015-01-01 01:48:15.690, 0.872, 0.017, 0.501, -0.366, -0.305, 0, 2, -60.029, -127.925, -24.900, -10.547, 0.607, 27.5, 0.38831, -0.44226, -0.23334, -0.77399,
 13:36:01.355,ed:40:fe:65:30:6c, 2015-01-01 01:48:15.690, 0.869, 0.018, 0.501, -0.244, -0.183, 0.061, 1.994, -60.035, -127.925, -24.900, -10.547, 0.607, 27.5, 0.38831, -0.44226, -0.23334, -0.77399,
 13:36:01.356,e3:ca:2d:fd:e0:8c, 2015-01-01 01:48:10.140, 0.988, -0.072, 0.253, 0, -0.183, -0.183, -15.386, -75.223, 173.353, -26.560, -11.227, -12.427, 27.69, -0.12704, -0.59763, 0.14093, -0.77893,
 13:36:01.356,e3:ca:2d:fd:e0:8c, 2015-01-01 01:48:10.140, 0.987, -0.07, 0.252, 0, -0.183, -0.122, -15.386, -75.223, 173.353, -26.560, -11.227, -12.427, 27.69, -0.12704, -0.59763, 0.14093, -0.77893,
 13:36:01.358,f6:90:cc:01:6d:25, 2015-01-01 01:48:10.740, 0.987, 0.007, 0.041, 0.244, -0.244, 0, 15.37, -87.572, 160.659, -30.980, -12.360, -2.400, 31.92, -0.02826, -0.69205, 0.01926, -0.72098,
 13:36:01.358,f6:90:cc:01:6d:25, 2015-01-01 01:48:10.740, 0.985, 0.008, 0.041, 0.244, -0.244, 0, 15.37, -87.578, 160.626, -30.980, -12.360, -2.400, 31.92, -0.02826, -0.69205, 0.01926, -0.72098,
 13:36:01.379,f6:90:cc:01:6d:25, 2015-01-01 01:48:10.740, 0.984, 0.006, 0.038, 0.549, -0.122, 0, 15.359, -87.578, 160.593, -30.980, -12.360, -2.400, 31.92, -0.02826, -0.69205, 0.01926, -0.72098,
 13:36:01.379,f6:90:cc:01:6d:25, 2015-01-01 01:48:10.740, 0.986, 0.009, 0.039, 0.366, -0.244, 0, 15.348, -87.583, 160.571, -30.980, -12.360, -2.400, 31.92, -0.02826, -0.69205, 0.01926, -0.72098,
 13:36:01.381,ed:35:33:d3:6c:f8, 2015-01-01 01:48:10.565, 0.759, 0.003, 0.645, -0.061, 0.305, 0.061, 0.236, -49.735, 152.518, -19.700, -9.893, -23.240, 29.1, 0.21503, 0.40942, -0.09802, 0.88113,
 13:36:01.381,ed:35:33:d3:6c:f8, 2015-01-01 01:48:10.565, 0.755, 0.003, 0.644, 0.061, 0.305, 0, 0.236, -49.73, 152.518, -19.700, -9.893, -23.240, 29.1, 0.21503, 0.40942, -0.09802, 0.88113,
 13:36:01.381,ed:35:33:d3:6c:f8, 2015-01-01 01:48:10.565, 0.758, 0, 0.643, 0.244, 0.244, 0.122, 0.242, -49.724, 152.518, -19.700, -9.893, -23.240, 29.1, 0.21503, 0.40942, -0.09802, 0.88113,
 13:36:01.381,ed:35:33:d3:6c:f8, 2015-01-01 01:48:10.565, 0.757, 0.004, 0.643, 0.183, 0.305, 0.366, 0.236, -49.719, 152.529, -19.700, -9.893, -23.240, 29.1, 0.21503, 0.40942, -0.09802, 0.88113,
 13:36:01.399,ed:40:fe:65:30:6c, 2015-01-01 01:48:15.690, 0.87, 0.013, 0.499, 0.061, 0.061, 0.244, 1.983, -60.035, -127.919, -24.900, -10.547, 0.607, 27.5, 0.38831, -0.44226, -0.23334, -0.77399,
 13:36:01.399,ed:40:fe:65:30:6c, 2015-01-01 01:48:15.690, 0.87, 0.018, 0.499, 0, -0.122, 0.122, 1.983, -60.04, -127.908, -24.900, -10.547, 0.607, 27.5, 0.38831, -0.44226, -0.23334, -0.77399,
 13:36:01.422,ed:40:fe:65:30:6c, 2015-01-01 01:48:15.690, 0.869, 0.019, 0.499, 0.183, 0.061, 0.244, 1.978, -60.035, -127.903, -24.900, -10.547, 0.607, 27.5, 0.38831, -0.44226, -0.23334, -0.77399,
 13:36:01.422,ed:40:fe:65:30:6c, 2015-01-01 01:48:15.690, 0.869, 0.016, 0.499, 0.183, 0.061, 0.305, 1.972, -60.035, -127.897, -24.900, -10.547, 0.607, 27.5, 0.38831, -0.44226, -0.23334, -0.77399,
 13:36:01.423,e3:ca:2d:fd:e0:8c, 2015-01-01 01:48:10.140, 0.986, -0.07, 0.251, 0, -0.183, -0.244, -15.375, -75.229, 173.348, -26.560, -11.227, -12.427, 27.69, -0.12704, -0.59763, 0.14093, -0.77893,
 13:36:01.423,e3:ca:2d:fd:e0:8c, 2015-01-01 01:48:10.140, 0.987, -0.072, 0.25, 0, -0.244, -0.305, -15.364, -75.234, 173.337, -26.560, -11.227, -12.427, 27.69, -0.12704, -0.59763, 0.14093, -0.77893,
 13:36:01.425,f6:90:cc:01:6d:25, 2015-01-01 01:48:10.740, 0.984, 0.01, 0.037, 0.183, 0, 0, 15.337, -87.589, 160.543, -30.980, -12.360, -2.400, 31.92, -0.02826, -0.69205, 0.01926, -0.72098,
 13:36:01.425,f6:90:cc:01:6d:25, 2015-01-01 01:48:10.740, 0.986, 0.008, 0.037, 0.183, -0.061, 0, 15.309, -87.589, 160.538, -30.980, -12.360, -2.400, 31.92, -0.02826, -0.69205, 0.01926, -0.72098,
 13:36:01.426,ed:35:33:d3:6c:f8, 2015-01-01 01:48:10.565, 0.757, 0.006, 0.643, 0.305, 0.244, 0.061, 0.242, -49.713, 152.534, -19.633, -10.627, -24.200, 29.1, 0.21503, 0.40942, -0.09802, 0.88113,
 13:36:01.426,ed:35:33:d3:6c:f8, 2015-01-01 01:48:10.565, 0.755, 0.002, 0.643, 0.061, 0.244, 0.183, 0.242, -49.708, 152.534, -19.633, -10.627, -24.200, 29.1, 0.21503, 0.40942, -0.09802, 0.88113,
 13:36:01.447,e3:ca:2d:fd:e0:8c, 2015-01-01 01:48:10.495, 0.988, -0.068, 0.249, 0, -0.244, -0.244, -15.353, -75.24, 173.326, -26.560, -11.227, -12.427, 27.69, -0.12704, -0.59763, 0.14093, -0.77893,
 13:36:01.447,e3:ca:2d:fd:e0:8c, 2015-01-01 01:48:10.495, 0.989, -0.068, 0.248, 0.122, -0.305, -0.244, -15.342, -75.251, 173.32, -26.560, -11.227, -12.427, 27.69, -0.12704, -0.59763, 0.14093, -0.77893,
 13:36:01.469,e3:ca:2d:fd:e0:8c, 2015-01-01 01:48:10.495, 0.988, -0.07, 0.248, 0, -0.244, -0.305, -15.337, -75.256, 173.309, -26.560, -11.227, -12.427, 27.69, -0.12704, -0.59763, 0.14093, -0.77893,
 13:36:01.469,e3:ca:2d:fd:e0:8c, 2015-01-01 01:48:10.495, 0.988, -0.069, 0.248, 0.061, -0.122, -0.244, -15.32, -75.262, 173.298, -26.560, -11.227, -12.427, 27.69, -0.12704, -0.59763, 0.14093, -0.77893,
 13:36:01.470,ed:35:33:d3:6c:f8, 2015-01-01 01:48:10.565, 0.758, 0.003, 0.645, -0.183, 0.183, 0.122, 0.236, -49.702, 152.54, -19.633, -10.627, -24.200, 29.1, 0.21448, 0.40872, -0.0979, 0.88162,
 13:36:01.470,ed:35:33:d3:6c:f8, 2015-01-01 01:48:10.565, 0.756, 0.001, 0.644, -0.366, 0.122, -0.061, 0.231, -49.702, 152.534, -19.633, -10.627, -24.200, 29.1, 0.21448, 0.40872, -0.0979, 0.88162,
 13:36:01.472,f6:90:cc:01:6d:25, 2015-01-01 01:48:10.740, 0.985, 0.008, 0.037, 0.366, -0.183, -0.061, 15.304, -87.589, 160.516, -30.980, -12.360, -2.400, 31.92, -0.02826, -0.69205, 0.01926, -0.72098,
 13:36:01.472,f6:90:cc:01:6d:25, 2015-01-01 01:48:10.740, 0.984, 0.01, 0.036, 0.244, -0.244, 0, 15.326, -87.594, 160.466, -30.980, -12.360, -2.400, 31.92, -0.02826, -0.69205, 0.01926, -0.72098,
 13:36:01.491,ed:40:fe:65:30:6c, 2015-01-01 01:48:15.690, 0.87, 0.018, 0.499, 0, -0.061, 0.244, 1.961, -60.04, -127.886, -24.900, -10.547, 0.607, 27.5, 0.38831, -0.44226, -0.23334, -0.77399,
 13:36:01.491,ed:40:fe:65:30:6c, 2015-01-01 01:48:15.690, 0.87, 0.017, 0.5, -0.244, -0.122, 0.122, 1.956, -60.04, -127.875, -24.900, -10.547, 0.607, 27.5, 0.38831, -0.44226, -0.23334, -0.77399,
 13:36:01.514,e3:ca:2d:fd:e0:8c, 2015-01-01 01:48:10.495, 0.987, -0.068, 0.249, 0.122, -0.061, -0.122, -15.309, -75.267, 173.287, -26.560, -11.227, -12.427, 27.69, -0.12704, -0.59763, 0.14093, -0.77893,
 13:36:01.514,e3:ca:2d:fd:e0:8c, 2015-01-01 01:48:10.495, 0.988, -0.068, 0.25, 0.122, -0.061, 0, -15.304, -75.267, 173.287, -26.560, -11.227, -12.427, 27.69, -0.12704, -0.59763, 0.14093, -0.77893,
 13:36:01.516,ed:35:33:d3:6c:f8, 2015-01-01 01:48:10.880, 0.757, 0.005, 0.644, -0.244, 0, -0.061, 0.225, -49.697, 152.534, -19.633, -10.627, -24.200, 29.1, 0.21448, 0.40872, -0.0979, 0.88162,
 13:36:01.516,ed:35:33:d3:6c:f8, 2015-01-01 01:48:10.880, 0.76, 0.005, 0.641, 0.061, -0.122, 0, 0.225, -49.702, 152.534, -19.633, -10.627, -24.200, 29.1, 0.21448, 0.40872, -0.0979, 0.88162,
 13:36:01.535,ed:40:fe:65:30:6c, 2015-01-01 01:48:15.690, 0.87, 0.018, 0.498, -0.305, -0.122, 0, 1.95, -60.046, -127.87, -24.900, -10.547, 0.607, 27.5, 0.38831, -0.44226, -0.23334, -0.77399,
 13:36:01.535,ed:40:fe:65:30:6c, 2015-01-01 01:48:15.690, 0.873, 0.018, 0.497, 0, -0.183, 0, 1.95, -60.051, -127.875, -24.900, -10.547, 0.607, 27.5, 0.38831, -0.44226, -0.23334, -0.77399,
 13:36:01.537,f6:90:cc:01:6d:25, 2015-01-01 01:48:10.740, 0.985, 0.011, 0.035, -0.122, -0.427, 0.061, 15.337, -87.605, 160.433, -30.980, -12.360, -2.400, 31.92, -0.02826, -0.69205, 0.01926, -0.72098,
 13:36:01.537,f6:90:cc:01:6d:25, 2015-01-01 01:48:10.740, 0.986, 0.01, 0.037, 0.061, -0.427, 0.122, 15.337, -87.61, 160.411, -30.980, -12.360, -2.400, 31.92, -0.02826, -0.69205, 0.01926, -0.72098,
 13:36:01.539,ed:35:33:d3:6c:f8, 2015-01-01 01:48:10.880, 0.76, 0.003, 0.64, 0.244, -0.061, 0, 0.231, -49.702, 152.529, -19.633, -10.627, -24.200, 29.1, 0.21448, 0.40872, -0.0979, 0.88162,
 13:36:01.539,ed:35:33:d3:6c:f8, 2015-01-01 01:48:10.880, 0.761, 0.003, 0.64, 0.427, 0.061, 0, 0.242, -49.702, 152.529, -19.633, -10.627, -24.200, 29.1, 0.21448, 0.40872, -0.0979, 0.88162,
 13:36:01.558,ed:40:fe:65:30:6c, 2015-01-01 01:48:15.690, 0.874, 0.016, 0.495, 0.427, -0.122, 0.061, 1.956, -60.057, -127.881, -25.660, -10.380, 0.940, 27.5, 0.38831, -0.44226, -0.23334, -0.77399,
 13:36:01.558,ed:40:fe:65:30:6c, 2015-01-01 01:48:15.690, 0.873, 0.016, 0.496, 0.732, 0.061, 0.244, 1.961, -60.057, -127.875, -25.660, -10.380, 0.940, 27.5, 0.38831, -0.44226, -0.23334, -0.77399,
 13:36:01.560,f6:90:cc:01:6d:25, 2015-01-01 01:48:10.740, 0.988, 0.008, 0.036, 0.305, -0.305, 0.122, 15.326, -87.621, 160.417, -30.947, -12.507, -1.407, 31.92, -0.02826, -0.69205, 0.01926, -0.72098,
 13:36:01.560,f6:90:cc:01:6d:25, 2015-01-01 01:48:10.740, 0.987, 0.007, 0.036, 0.549, -0.122, 0.061, 15.298, -87.632, 160.433, -30.947, -12.507, -1.407, 31.92, -0.02826, -0.69205, 0.01926, -0.72098,
 13:36:01.582,e3:ca:2d:fd:e0:8c, 2015-01-01 01:48:10.495, 0.989, -0.068, 0.25, 0.122, -0.061, 0, -15.309, -75.267, 173.293, -26.560, -11.227, -12.427, 27.69, -0.12704, -0.59763, 0.14093, -0.77893,
 13:36:01.582,e3:ca:2d:fd:e0:8c, 2015-01-01 01:48:10.495, 0.989, -0.069, 0.249, 0.122, -0.061, 0, -15.309, -75.273, 173.304, -26.560, -11.227, -12.427, 27.69, -0.12704, -0.59763, 0.14093, -0.77893,
 13:36:01.583,ed:35:33:d3:6c:f8, 2015-01-01 01:48:10.880, 0.76, 0.003, 0.641, 0.488, 0.305, 0.061, 0.247, -49.697, 152.529, -19.633, -10.627, -24.200, 29.1, 0.21448, 0.40872, -0.0979, 0.88162,
 13:36:01.583,ed:35:33:d3:6c:f8, 2015-01-01 01:48:10.880, 0.758, 0.005, 0.641, 0.488, 0.488, 0.183, 0.258, -49.691, 152.534, -19.633, -10.627, -24.200, 29.1, 0.21448, 0.40872, -0.0979, 0.88162,
 13:36:01.603,ed:40:fe:65:30:6c, 2015-01-01 01:48:15.690, 0.872, 0.017, 0.496, 0.793, 0.183, 0.305, 1.967, -60.057, -127.87, -25.660, -10.380, 0.940, 27.5, 0.38831, -0.44226, -0.23334, -0.77399,
 13:36:01.604,ed:40:fe:65:30:6c, 2015-01-01 01:48:15.690, 0.872, 0.019, 0.497, 0.793, 0.122, 0.305, 1.972, -60.057, -127.859, -25.660, -10.380, 0.940, 27.5, 0.38831, -0.44226, -0.23334, -0.77399,
 13:36:01.605,e3:ca:2d:fd:e0:8c, 2015-01-01 01:48:10.495, 0.989, -0.069, 0.25, 0.183, 0, 0, -15.309, -75.273, 173.309, -26.560, -11.227, -12.427, 27.69, -0.12704, -0.59763, 0.14093, -0.77893,
 13:36:01.605,e3:ca:2d:fd:e0:8c, 2015-01-01 01:48:10.495, 0.988, -0.068, 0.25, 0.244, 0, -0.061, -15.304, -75.273, 173.309, -26.560, -11.227, -12.427, 27.69, -0.12704, -0.59763, 0.14093, -0.77893,
 13:36:01.627,f6:90:cc:01:6d:25, 2015-01-01 01:48:10.740, 0.987, 0.008, 0.035, 0.671, 0, 0, 15.282, -87.632, 160.439, -30.947, -12.507, -1.407, 31.92, -0.02826, -0.69205, 0.01926, -0.72098,
 13:36:01.627,f6:90:cc:01:6d:25, 2015-01-01 01:48:10.740, 0.985, 0.009, 0.038, 0.427, 0, 0.061, 15.266, -87.638, 160.444, -30.947, -12.507, -1.407, 31.92, -0.02826, -0.69205, 0.01926, -0.72098,
 13:36:01.629,ed:35:33:d3:6c:f8, 2015-01-01 01:48:10.880, 0.757, 0.004, 0.642, 0.488, 0.549, 0.061, 0.264, -49.68, 152.534, -19.633, -10.627, -24.200, 29.1, 0.21448, 0.40872, -0.0979, 0.88162,
 13:36:01.629,ed:35:33:d3:6c:f8, 2015-01-01 01:48:10.880, 0.757, 0.003, 0.644, 0.305, 0.488, 0.122, 0.269, -49.669, 152.54, -19.633, -10.627, -24.200, 29.1, 0.21448, 0.40872, -0.0979, 0.88162,
 13:36:01.649,ed:40:fe:65:30:6c, 2015-01-01 01:48:15.690, 0.87, 0.02, 0.498, 0.61, 0.122, 0.244, 1.978, -60.057, -127.859, -25.660, -10.380, 0.940, 27.5, 0.38812, -0.44287, -0.23328, -0.77374,
 13:36:01.649,ed:40:fe:65:30:6c, 2015-01-01 01:48:15.690, 0.869, 0.019, 0.499, 0.366, 0.305, 0.122, 1.983, -60.051, -127.864, -25.660, -10.380, 0.940, 27.5, 0.38812, -0.44287, -0.23328, -0.77374,
 13:36:01.650,e3:ca:2d:fd:e0:8c, 2015-01-01 01:48:10.495, 0.987, -0.068, 0.249, 0.183, 0, -0.061, -15.298, -75.273, 173.309, -26.560, -11.227, -12.427, 27.69, -0.12704, -0.59763, 0.14093, -0.77893,
 13:36:01.650,e3:ca:2d:fd:e0:8c, 2015-01-01 01:48:10.495, 0.988, -0.069, 0.25, 0.122, 0, -0.061, -15.293, -75.278, 173.309, -26.560, -11.227, -12.427, 27.69, -0.12704, -0.59763, 0.14093, -0.77893,
 13:36:01.671,e3:ca:2d:fd:e0:8c, 2015-01-01 01:48:10.495, 0.987, -0.069, 0.249, 0.183, 0, -0.061, -15.287, -75.278, 173.309, -26.593, -10.473, -12.353, 27.69, -0.12704, -0.59763, 0.14093, -0.77893,
 13:36:01.671,e3:ca:2d:fd:e0:8c, 2015-01-01 01:48:10.495, 0.988, -0.069, 0.249, 0.183, -0.061, 0, -15.282, -75.278, 173.315, -26.593, -10.473, -12.353, 27.69, -0.12704, -0.59763, 0.14093, -0.77893,
 13:36:01.672,f6:90:cc:01:6d:25, 2015-01-01 01:48:10.740, 0.984, 0.009, 0.037, 0.488, 0.061, 0.061, 15.227, -87.638, 160.472, -30.947, -12.507, -1.407, 31.92, -0.03082, -0.69254, 0.02209, -0.72031,
 13:36:01.672,f6:90:cc:01:6d:25, 2015-01-01 01:48:10.740, 0.985, 0.008, 0.038, 0.427, 0, 0.122, 15.178, -87.638, 160.51, -30.947, -12.507, -1.407, 31.92, -0.03082, -0.69254, 0.02209, -0.72031,
 13:36:01.673,ed:35:33:d3:6c:f8, 2015-01-01 01:48:10.880, 0.756, 0.002, 0.644, 0.061, 0.427, 0, 0.275, -49.664, 152.54, -19.633, -10.627, -24.200, 29.1, 0.21448, 0.40872, -0.0979, 0.88162,
 13:36:01.673,ed:35:33:d3:6c:f8, 2015-01-01 01:48:10.880, 0.758, 0.003, 0.644, 0, 0.366, 0.122, 0.269, -49.653, 152.54, -19.633, -10.627, -24.200, 29.1, 0.21448, 0.40872, -0.0979, 0.88162,
 13:36:01.715,ed:40:fe:65:30:6c, 2015-01-01 01:48:15.690, 0.871, 0.017, 0.499, 0.061, 0.244, 0, 1.983, -60.046, -127.859, -25.660, -10.380, 0.940, 27.5, 0.38812, -0.44287, -0.23328, -0.77374,
 13:36:01.715,ed:40:fe:65:30:6c, 2015-01-01 01:48:15.690, 0.87, 0.018, 0.5, -0.183, 0.061, 0, 1.983, -60.051, -127.87, -25.660, -10.380, 0.940, 27.5, 0.38812, -0.44287, -0.23328, -0.77374,
 13:36:01.717,f6:90:cc:01:6d:25, 2015-01-01 01:48:10.740, 0.984, 0.008, 0.038, 0.305, 0, 0, 15.123, -87.643, 160.549, -30.947, -12.507, -1.407, 31.92, -0.03082, -0.69254, 0.02209, -0.72031,
 13:36:01.717,f6:90:cc:01:6d:25, 2015-01-01 01:48:10.740, 0.986, 0.008, 0.038, 0.488, -0.061, 0, 15.112, -87.643, 160.543, -30.947, -12.507, -1.407, 31.92, -0.03082, -0.69254, 0.02209, -0.72031,
 13:36:01.717,e3:ca:2d:fd:e0:8c, 2015-01-01 01:48:10.495, 0.988, -0.07, 0.25, 0.183, -0.183, 0, -15.282, -75.278, 173.32, -26.593, -10.473, -12.353, 27.69, -0.12704, -0.59763, 0.14093, -0.77893,
 13:36:01.717,e3:ca:2d:fd:e0:8c, 2015-01-01 01:48:10.495, 0.988, -0.07, 0.25, 0.061, 0.061, -0.061, -15.287, -75.284, 173.326, -26.593, -10.473, -12.353, 27.69, -0.12704, -0.59763, 0.14093, -0.77893,
 13:36:01.737,ed:40:fe:65:30:6c, 2015-01-01 01:48:16.070, 0.869, 0.014, 0.5, 0.183, 0.366, 0, 1.978, -60.046, -127.881, -25.660, -10.380, 0.940, 27.5, 0.38812, -0.44287, -0.23328, -0.77374,
 13:36:01.737,ed:40:fe:65:30:6c, 2015-01-01 01:48:16.070, 0.87, 0.014, 0.497, 0.061, 0, 0.244, 1.983, -60.046, -127.881, -25.660, -10.380, 0.940, 27.5, 0.38812, -0.44287, -0.23328, -0.77374,
 13:36:01.741,ed:35:33:d3:6c:f8, 2015-01-01 01:48:10.880, 0.756, 0.005, 0.646, 0.061, 0.61, 0.122, 0.269, -49.647, 152.545, -19.713, -10.333, -24.693, 29.1, 0.21448, 0.40872, -0.0979, 0.88162,
 13:36:01.741,ed:35:33:d3:6c:f8, 2015-01-01 01:48:10.880, 0.756, 0.003, 0.645, 0.183, 0.305, 0.061, 0.269, -49.636, 152.545, -19.713, -10.333, -24.693, 29.1, 0.21448, 0.40872, -0.0979, 0.88162,
 13:36:01.741,ed:35:33:d3:6c:f8, 2015-01-01 01:48:10.880, 0.757, 0, 0.643, 0.305, 0, 0.549, 0.269, -49.636, 152.556, -19.713, -10.333, -24.693, 29.1, 0.21448, 0.40872, -0.0979, 0.88162,
 13:36:01.741,ed:35:33:d3:6c:f8, 2015-01-01 01:48:10.880, 0.759, 0.008, 0.642, 0.671, 0, 0.366, 0.269, -49.636, 152.567, -19.713, -10.333, -24.693, 29.1, 0.21448, 0.40872, -0.0979, 0.88162,
 13:36:01.760,ed:40:fe:65:30:6c, 2015-01-01 01:48:16.070, 0.873, 0.02, 0.498, 0.305, 0, 0.366, 1.972, -60.046, -127.87, -25.660, -10.380, 0.940, 27.5, 0.38812, -0.44287, -0.23328, -0.77374,
 13:36:01.760,ed:40:fe:65:30:6c, 2015-01-01 01:48:16.070, 0.876, 0.02, 0.497, 0.61, 0.183, 0.366, 1.967, -60.046, -127.859, -25.660, -10.380, 0.940, 27.5, 0.38812, -0.44287, -0.23328, -0.77374,
 13:36:01.785,f6:90:cc:01:6d:25, 2015-01-01 01:48:10.740, 0.986, 0.009, 0.039, 0.244, -0.061, 0, 15.101, -87.643, 160.532, -30.947, -12.507, -1.407, 31.92, -0.03082, -0.69254, 0.02209, -0.72031,
 13:36:01.785,f6:90:cc:01:6d:25, 2015-01-01 01:48:10.740, 0.985, 0.003, 0.035, 0.488, -0.122, 0, 15.095, -87.649, 160.521, -30.947, -12.507, -1.407, 31.92, -0.03082, -0.69254, 0.02209, -0.72031,
 13:36:01.787,ed:35:33:d3:6c:f8, 2015-01-01 01:48:10.880, 0.761, 0.005, 0.641, 0.732, 0.183, 0.366, 0.275, -49.636, 152.578, -19.713, -10.333, -24.693, 29.1, 0.21426, 0.40826, -0.09747, 0.88193,
 13:36:01.787,ed:35:33:d3:6c:f8, 2015-01-01 01:48:10.880, 0.758, 0.001, 0.64, 0.977, 0.61, 0.183, 0.291, -49.625, 152.584, -19.713, -10.333, -24.693, 29.1, 0.21426, 0.40826, -0.09747, 0.88193,
 13:36:01.805,ed:40:fe:65:30:6c, 2015-01-01 01:48:16.070, 0.873, 0.015, 0.495, 1.221, 0.854, 0.549, 1.967, -60.04, -127.842, -25.660, -10.380, 0.940, 27.5, 0.38812, -0.44287, -0.23328, -0.77374,
 13:36:01.805,ed:40:fe:65:30:6c, 2015-01-01 01:48:16.070, 0.867, 0.014, 0.497, 1.282, 1.038, 0.732, 1.972, -60.029, -127.809, -25.660, -10.380, 0.940, 27.5, 0.38812, -0.44287, -0.23328, -0.77374,
 13:36:01.807,f6:90:cc:01:6d:25, 2015-01-01 01:48:11.140, 0.987, 0.006, 0.036, 0.366, 0, 0, 15.079, -87.654, 160.505, -30.947, -12.507, -1.407, 31.92, -0.03082, -0.69254, 0.02209, -0.72031,
 13:36:01.807,f6:90:cc:01:6d:25, 2015-01-01 01:48:11.140, 0.988, 0.008, 0.036, 0.549, 0.122, 0, 15.046, -87.654, 160.51, -30.947, -12.507, -1.407, 31.92, -0.03082, -0.69254, 0.02209, -0.72031,
 13:36:01.807,e3:ca:2d:fd:e0:8c, 2015-01-01 01:48:10.495, 0.988, -0.069, 0.25, 0, 0.061, -0.061, -15.282, -75.284, 173.326, -26.593, -10.473, -12.353, 27.69, -0.12677, -0.59811, 0.14035, -0.77872,
 13:36:01.807,e3:ca:2d:fd:e0:8c, 2015-01-01 01:48:10.495, 0.989, -0.069, 0.25, 0, 0.061, -0.122, -15.276, -75.284, 173.32, -26.593, -10.473, -12.353, 27.69, -0.12677, -0.59811, 0.14035, -0.77872,
 13:36:01.827,ed:40:fe:65:30:6c, 2015-01-01 01:48:16.070, 0.867, 0.015, 0.499, 0.854, 0.732, 0.549, 1.972, -60.013, -127.787, -25.660, -10.380, 0.940, 27.5, 0.38812, -0.44287, -0.23328, -0.77374,
 13:36:01.827,ed:40:fe:65:30:6c, 2015-01-01 01:48:16.070, 0.866, 0.017, 0.501, 0.061, 0.305, 0.061, 1.967, -60.002, -127.771, -25.660, -10.380, 0.940, 27.5, 0.38812, -0.44287, -0.23328, -0.77374,
 13:36:01.829,e3:ca:2d:fd:e0:8c, 2015-01-01 01:48:10.875, 0.989, -0.068, 0.25, 0, 0, -0.122, -15.271, -75.284, 173.315, -26.593, -10.473, -12.353, 27.69, -0.12677, -0.59811, 0.14035, -0.77872,
 13:36:01.829,e3:ca:2d:fd:e0:8c, 2015-01-01 01:48:10.875, 0.989, -0.07, 0.248, -0.061, 0, -0.244, -15.266, -75.284, 173.309, -26.593, -10.473, -12.353, 27.69, -0.12677, -0.59811, 0.14035, -0.77872,
 13:36:01.830,f6:90:cc:01:6d:25, 2015-01-01 01:48:11.140, 0.988, 0.007, 0.038, 0.61, 0.122, 0, 15.002, -87.654, 160.521, -30.947, -12.507, -1.407, 31.92, -0.03082, -0.69254, 0.02209, -0.72031,
 13:36:01.830,f6:90:cc:01:6d:25, 2015-01-01 01:48:11.140, 0.986, 0.006, 0.035, 0.427, 0.244, 0, 14.952, -87.649, 160.543, -30.947, -12.507, -1.407, 31.92, -0.03082, -0.69254, 0.02209, -0.72031,
 13:36:01.831,ed:35:33:d3:6c:f8, 2015-01-01 01:48:11.190, 0.756, 0, 0.644, 0.793, 0.854, 0.366, 0.297, -49.609, 152.595, -19.713, -10.333, -24.693, 29.1, 0.21426, 0.40826, -0.09747, 0.88193,
 13:36:01.831,ed:35:33:d3:6c:f8, 2015-01-01 01:48:11.190, 0.755, 0, 0.645, 0.61, 0.977, 0.183, 0.308, -49.592, 152.6, -19.713, -10.333, -24.693, 29.1, 0.21426, 0.40826, -0.09747, 0.88193,
 13:36:01.852,e3:ca:2d:fd:e0:8c, 2015-01-01 01:48:10.875, 0.988, -0.069, 0.248, -0.061, 0.244, -0.305, -15.249, -75.284, 173.293, -26.593, -10.473, -12.353, 27.69, -0.12677, -0.59811, 0.14035, -0.77872,
 13:36:01.852,e3:ca:2d:fd:e0:8c, 2015-01-01 01:48:10.875, 0.989, -0.067, 0.247, 0.061, 0.244, -0.244, -15.227, -75.278, 173.265, -26.593, -10.473, -12.353, 27.69, -0.12677, -0.59811, 0.14035, -0.77872,
 13:36:01.873,ed:40:fe:65:30:6c, 2015-01-01 01:48:16.070, 0.866, 0.019, 0.502, -0.549, 0, -0.183, 1.961, -60.002, -127.766, -25.660, -10.380, 0.940, 27.5, 0.38812, -0.44287, -0.23328, -0.77374,
 13:36:01.873,ed:40:fe:65:30:6c, 2015-01-01 01:48:16.070, 0.868, 0.019, 0.502, -0.732, -0.244, -0.366, 1.961, -60.002, -127.782, -25.660, -10.380, 0.940, 27.5, 0.38812, -0.44287, -0.23328, -0.77374,
 13:36:01.875,e3:ca:2d:fd:e0:8c, 2015-01-01 01:48:10.875, 0.987, -0.067, 0.249, 0.061, 0.305, -0.122, -15.205, -75.278, 173.249, -26.593, -10.473, -12.353, 27.69, -0.12677, -0.59811, 0.14035, -0.77872,
 13:36:01.875,e3:ca:2d:fd:e0:8c, 2015-01-01 01:48:10.875, 0.987, -0.069, 0.249, 0, 0.244, -0.183, -15.194, -75.273, 173.238, -26.593, -10.473, -12.353, 27.69, -0.12677, -0.59811, 0.14035, -0.77872,
 13:36:01.875,f6:90:cc:01:6d:25, 2015-01-01 01:48:11.140, 0.984, 0.005, 0.033, 0.488, 0.183, 0, 14.892, -87.649, 160.565, -30.947, -12.507, -1.407, 31.92, -0.03082, -0.69254, 0.02209, -0.72031,
 13:36:01.875,f6:90:cc:01:6d:25, 2015-01-01 01:48:11.140, 0.984, 0.009, 0.037, 0.732, 0.122, 0, 14.843, -87.649, 160.582, -30.947, -12.507, -1.407, 31.92, -0.03082, -0.69254, 0.02209, -0.72031,
 13:36:01.877,ed:35:33:d3:6c:f8, 2015-01-01 01:48:11.190, 0.752, 0.003, 0.647, 0.122, 0.977, 0.061, 0.308, -49.576, 152.6, -19.713, -10.333, -24.693, 29.1, 0.21426, 0.40826, -0.09747, 0.88193,
 13:36:01.877,ed:35:33:d3:6c:f8, 2015-01-01 01:48:11.190, 0.752, 0.007, 0.648, -0.305, 0.549, 0, 0.302, -49.559, 152.6, -19.713, -10.333, -24.693, 29.1, 0.21426, 0.40826, -0.09747, 0.88193,
 13:36:01.898,f6:90:cc:01:6d:25, 2015-01-01 01:48:11.140, 0.984, 0.01, 0.036, 0.305, 0.122, 0, 14.804, -87.649, 160.593, -30.947, -12.507, -1.407, 31.92, -0.03082, -0.69254, 0.02209, -0.72031,
 13:36:01.898,f6:90:cc:01:6d:25, 2015-01-01 01:48:11.140, 0.984, 0.01, 0.038, -0.061, 0, 0, 14.771, -87.649, 160.598, -30.947, -12.507, -1.407, 31.92, -0.03082, -0.69254, 0.02209, -0.72031,
 13:36:01.919,e3:ca:2d:fd:e0:8c, 2015-01-01 01:48:10.875, 0.987, -0.07, 0.25, 0, 0.244, -0.244, -15.178, -75.273, 173.221, -26.593, -10.473, -12.353, 27.69, -0.12677, -0.59811, 0.14035, -0.77872,
 13:36:01.919,e3:ca:2d:fd:e0:8c, 2015-01-01 01:48:10.875, 0.987, -0.07, 0.251, 0, 0.183, -0.183, -15.161, -75.267, 173.205, -26.593, -10.473, -12.353, 27.69, -0.12677, -0.59811, 0.14035, -0.77872,
 13:36:01.920,f6:90:cc:01:6d:25, 2015-01-01 01:48:11.140, 0.984, 0.008, 0.039, -0.244, 0, 0, 14.744, -87.649, 160.593, -30.947, -12.507, -1.407, 31.92, -0.03082, -0.69254, 0.02209, -0.72031,
 13:36:01.920,f6:90:cc:01:6d:25, 2015-01-01 01:48:11.140, 0.984, 0.005, 0.038, -0.061, -0.061, 0, 14.716, -87.654, 160.587, -30.947, -12.507, -1.407, 31.92, -0.03082, -0.69254, 0.02209, -0.72031,
 13:36:01.921,ed:35:33:d3:6c:f8, 2015-01-01 01:48:11.190, 0.754, 0.002, 0.648, -0.488, 0.244, -0.427, 0.302, -49.554, 152.589, -19.713, -10.333, -24.693, 29.1, 0.21426, 0.40826, -0.09747, 0.88193,
 13:36:01.921,ed:35:33:d3:6c:f8, 2015-01-01 01:48:11.190, 0.752, 0.002, 0.647, -0.488, 0.305, -0.488, 0.302, -49.548, 152.578, -19.713, -10.333, -24.693, 29.1, 0.21426, 0.40826, -0.09747, 0.88193,
 13:36:01.941,ed:40:fe:65:30:6c, 2015-01-01 01:48:16.070, 0.866, 0.017, 0.501, -0.793, -0.183, -0.427, 1.956, -60.007, -127.804, -25.660, -10.380, 0.940, 27.5, 0.38812, -0.44287, -0.23328, -0.77374,
 13:36:01.941,ed:40:fe:65:30:6c, 2015-01-01 01:48:16.070, 0.867, 0.018, 0.502, -1.099, -0.305, -0.488, 1.956, -60.013, -127.826, -25.660, -10.380, 0.940, 27.5, 0.38812, -0.44287, -0.23328, -0.77374,
 13:36:01.943,f6:90:cc:01:6d:25, 2015-01-01 01:48:11.140, 0.985, 0.007, 0.04, -0.183, -0.244, 0, 14.7, -87.66, 160.565, -30.947, -12.507, -1.407, 31.92, -0.03082, -0.69254, 0.02209, -0.72031,
 13:36:01.943,f6:90:cc:01:6d:25, 2015-01-01 01:48:11.140, 0.985, 0.009, 0.04, -0.427, -0.183, 0, 14.683, -87.66, 160.538, -30.947, -12.507, -1.407, 31.92, -0.03082, -0.69254, 0.02209, -0.72031,
 13:36:01.943,ed:35:33:d3:6c:f8, 2015-01-01 01:48:11.190, 0.752, 0.006, 0.648, -0.916, 0.427, -0.488, 0.297, -49.537, 152.562, -19.713, -10.333, -24.693, 29.1, 0.21426, 0.40826, -0.09747, 0.88193,
 13:36:01.943,ed:35:33:d3:6c:f8, 2015-01-01 01:48:11.190, 0.752, 0.005, 0.648, -0.977, 0.305, -0.366, 0.286, -49.532, 152.545, -19.713, -10.333, -24.693, 29.1, 0.21426, 0.40826, -0.09747, 0.88193,
 13:36:01.962,ed:40:fe:65:30:6c, 2015-01-01 01:48:16.070, 0.868, 0.019, 0.502, -1.16, -0.61, -0.488, 1.95, -60.018, -127.848, -25.360, -10.100, 1.013, 27.5, 0.38812, -0.44287, -0.23328, -0.77374,
 13:36:01.962,ed:40:fe:65:30:6c, 2015-01-01 01:48:16.070, 0.871, 0.017, 0.502, -0.977, -0.732, -0.305, 1.945, -60.029, -127.875, -25.360, -10.100, 1.013, 27.5, 0.38812, -0.44287, -0.23328, -0.77374,
 13:36:01.963,e3:ca:2d:fd:e0:8c, 2015-01-01 01:48:10.875, 0.986, -0.068, 0.252, 0, 0.061, -0.061, -15.15, -75.267, 173.194, -26.593, -10.473, -12.353, 27.69, -0.12677, -0.59811, 0.14035, -0.77872,
 13:36:01.963,e3:ca:2d:fd:e0:8c, 2015-01-01 01:48:10.875, 0.985, -0.068, 0.253, -0.061, 0, -0.122, -15.145, -75.267, 173.188, -26.593, -10.473, -12.353, 27.69, -0.12677, -0.59811, 0.14035, -0.77872,
 13:36:01.988,ed:35:33:d3:6c:f8, 2015-01-01 01:48:11.190, 0.754, 0.003, 0.647, -1.099, 0.122, -0.549, 0.28, -49.526, 152.529, -19.713, -10.333, -24.693, 29.1, 0.21426, 0.40826, -0.09747, 0.88193,
 13:36:01.988,ed:35:33:d3:6c:f8, 2015-01-01 01:48:11.190, 0.756, 0.001, 0.645, -0.244, 0.122, -0.122, 0.275, -49.521, 152.523, -19.713, -10.333, -24.693, 29.1, 0.21426, 0.40826, -0.09747, 0.88193,
 13:36:02.007,ed:40:fe:65:30:6c, 2015-01-01 01:48:16.070, 0.873, 0.015, 0.498, -0.793, -0.366, -0.366, 1.939, -60.046, -127.908, -25.360, -10.100, 1.013, 27.5, 0.38812, -0.44287, -0.23328, -0.77374,
 13:36:02.007,ed:40:fe:65:30:6c, 2015-01-01 01:48:16.070, 0.87, 0.016, 0.498, -0.122, 0.183, -0.122, 1.939, -60.046, -127.936, -25.360, -10.100, 1.013, 27.5, 0.38812, -0.44287, -0.23328, -0.77374,
 13:36:02.010,f6:90:cc:01:6d:25, 2015-01-01 01:48:11.140, 0.985, 0.007, 0.041, -0.244, -0.122, 0, 14.661, -87.665, 160.516, -30.947, -12.507, -1.407, 31.92, -0.03082, -0.69254, 0.02209, -0.72031,
 13:36:02.010,f6:90:cc:01:6d:25, 2015-01-01 01:48:11.140, 0.986, 0.006, 0.04, -0.061, 0, 0, 14.628, -87.665, 160.51, -30.947, -12.507, -1.407, 31.92, -0.03082, -0.69254, 0.02209, -0.72031,
 13:36:02.030,ed:40:fe:65:30:6c, 2015-01-01 01:48:16.070, 0.871, 0.014, 0.498, 0.183, 0.427, 0.122, 1.939, -60.04, -127.969, -25.360, -10.100, 1.013, 27.5, 0.38742, -0.44312, -0.23267, -0.77414,
 13:36:02.030,ed:40:fe:65:30:6c, 2015-01-01 01:48:16.070, 0.871, 0.015, 0.499, 0.122, 0.305, 0.244, 1.939, -60.035, -127.991, -25.360, -10.100, 1.013, 27.5, 0.38742, -0.44312, -0.23267, -0.77414,
 13:36:02.031,e3:ca:2d:fd:e0:8c, 2015-01-01 01:48:10.875, 0.986, -0.07, 0.253, -0.183, -0.061, -0.183, -15.139, -75.267, 173.183, -26.593, -10.473, -12.353, 27.69, -0.12677, -0.59811, 0.14035, -0.77872,
 13:36:02.031,e3:ca:2d:fd:e0:8c, 2015-01-01 01:48:10.875, 0.986, -0.068, 0.252, -0.061, -0.061, -0.122, -15.134, -75.273, 173.177, -26.593, -10.473, -12.353, 27.69, -0.12677, -0.59811, 0.14035, -0.77872,
 13:36:02.033,f6:90:cc:01:6d:25, 2015-01-01 01:48:11.140, 0.985, 0.007, 0.038, -0.305, 0.122, 0, 14.579, -87.665, 160.516, -30.713, -12.687, -0.727, 31.92, -0.03082, -0.69254, 0.02209, -0.72031,
 13:36:02.033,f6:90:cc:01:6d:25, 2015-01-01 01:48:11.140, 0.986, 0.006, 0.038, 0, 0.122, 0, 14.518, -87.665, 160.527, -30.713, -12.687, -0.727, 31.92, -0.03082, -0.69254, 0.02209, -0.72031,
 13:36:02.034,ed:35:33:d3:6c:f8, 2015-01-01 01:48:11.190, 0.754, 0.004, 0.645, 0, 0.183, -0.305, 0.28, -49.515, 152.512, -19.400, -10.300, -23.860, 29.1, 0.21426, 0.40826, -0.09747, 0.88193,
 13:36:02.034,ed:35:33:d3:6c:f8, 2015-01-01 01:48:11.190, 0.756, 0.001, 0.645, 0, 0.305, -0.061, 0.28, -49.51, 152.512, -19.400, -10.300, -23.860, 29.1, 0.21426, 0.40826, -0.09747, 0.88193,
 13:36:02.053,e3:ca:2d:fd:e0:8c, 2015-01-01 01:48:10.875, 0.988, -0.067, 0.251, -0.122, -0.183, -0.183, -15.134, -75.273, 173.172, -26.580, -10.847, -12.460, 27.69, -0.12677, -0.59811, 0.14035, -0.77872,
 13:36:02.053,e3:ca:2d:fd:e0:8c, 2015-01-01 01:48:10.875, 0.99, -0.068, 0.25, -0.305, -0.244, -0.183, -15.128, -75.278, 173.167, -26.580, -10.847, -12.460, 27.69, -0.12677, -0.59811, 0.14035, -0.77872,
 13:36:02.076,ed:40:fe:65:30:6c, 2015-01-01 01:48:16.070, 0.869, 0.018, 0.499, 0.183, 0.427, 0.183, 1.928, -60.029, -127.996, -25.360, -10.100, 1.013, 27.5, 0.38742, -0.44312, -0.23267, -0.77414,
 13:36:02.076,ed:40:fe:65:30:6c, 2015-01-01 01:48:16.070, 0.871, 0.018, 0.498, 0.488, 0.427, 0.183, 1.928, -60.024, -127.991, -25.360, -10.100, 1.013, 27.5, 0.38742, -0.44312, -0.23267, -0.77414,
 13:36:02.078,ed:35:33:d3:6c:f8, 2015-01-01 01:48:11.190, 0.754, 0.002, 0.646, -0.122, 0.366, -0.061, 0.28, -49.504, 152.507, -19.400, -10.300, -23.860, 29.1, 0.21472, 0.40723, -0.09726, 0.88232,
 13:36:02.078,ed:35:33:d3:6c:f8, 2015-01-01 01:48:11.190, 0.754, 0.004, 0.647, -0.061, 0.305, -0.305, 0.286, -49.493, 152.501, -19.400, -10.300, -23.860, 29.1, 0.21472, 0.40723, -0.09726, 0.88232,
 13:36:02.078,f6:90:cc:01:6d:25, 2015-01-01 01:48:11.140, 0.985, 0.008, 0.038, 0.244, 0.122, -0.366, 14.551, -87.66, 160.455, -30.713, -12.687, -0.727, 31.92, -0.03082, -0.69254, 0.02209, -0.72031,
 13:36:02.078,f6:90:cc:01:6d:25, 2015-01-01 01:48:11.140, 0.984, 0.009, 0.035, 0.244, 0, -0.244, 14.65, -87.66, 160.312, -30.713, -12.687, -0.727, 31.92, -0.03082, -0.69254, 0.02209, -0.72031,
 13:36:02.099,e3:ca:2d:fd:e0:8c, 2015-01-01 01:48:10.875, 0.989, -0.067, 0.247, -0.183, -0.305, -0.122, -15.128, -75.284, 173.161, -26.580, -10.847, -12.460, 27.69, -0.12677, -0.59811, 0.14035, -0.77872,
 13:36:02.099,e3:ca:2d:fd:e0:8c, 2015-01-01 01:48:10.875, 0.989, -0.068, 0.247, 0, -0.122, -0.183, -15.128, -75.289, 173.161, -26.580, -10.847, -12.460, 27.69, -0.12677, -0.59811, 0.14035, -0.77872,
 13:36:02.120,ed:40:fe:65:30:6c, 2015-01-01 01:48:16.450, 0.872, 0.017, 0.495, 1.038, 0.549, 0.305, 1.934, -60.013, -127.985, -25.360, -10.100, 1.013, 27.5, 0.38742, -0.44312, -0.23267, -0.77414,
 13:36:02.120,ed:40:fe:65:30:6c, 2015-01-01 01:48:16.450, 0.872, 0.017, 0.496, 1.465, 0.671, 0.549, 1.945, -60.007, -127.969, -25.360, -10.100, 1.013, 27.5, 0.38742, -0.44312, -0.23267, -0.77414,
 13:36:02.121,e3:ca:2d:fd:e0:8c, 2015-01-01 01:48:10.875, 0.989, -0.068, 0.246, 0, -0.061, -0.061, -15.123, -75.289, 173.156, -26.580, -10.847, -12.460, 27.69, -0.12704, -0.59814, 0.14011, -0.77869,
 13:36:02.121,e3:ca:2d:fd:e0:8c, 2015-01-01 01:48:10.875, 0.99, -0.068, 0.247, 0, -0.122, 0, -15.123, -75.289, 173.161, -26.580, -10.847, -12.460, 27.69, -0.12704, -0.59814, 0.14011, -0.77869,
 13:36:02.124,ed:35:33:d3:6c:f8, 2015-01-01 01:48:11.480, 0.757, 0.006, 0.646, 0.061, 0.061, -0.061, 0.291, -49.493, 152.496, -19.400, -10.300, -23.860, 29.1, 0.21472, 0.40723, -0.09726, 0.88232,
 13:36:02.124,ed:35:33:d3:6c:f8, 2015-01-01 01:48:11.480, 0.758, 0.006, 0.643, 0.366, -0.183, 0, 0.297, -49.493, 152.49, -19.400, -10.300, -23.860, 29.1, 0.21472, 0.40723, -0.09726, 0.88232,
 13:36:02.144,f6:90:cc:01:6d:25, 2015-01-01 01:48:11.140, 0.985, 0.009, 0.033, 0.122, -0.061, -0.183, 14.727, -87.66, 160.208, -30.713, -12.687, -0.727, 31.92, -0.03528, -0.69247, 0.02676, -0.72003,
 13:36:02.144,f6:90:cc:01:6d:25, 2015-01-01 01:48:11.140, 0.986, 0.006, 0.033, 0.244, 0, -0.122, 14.777, -87.66, 160.126, -30.713, -12.687, -0.727, 31.92, -0.03528, -0.69247, 0.02676, -0.72003,
 13:36:02.146,ed:35:33:d3:6c:f8, 2015-01-01 01:48:11.480, 0.758, 0.005, 0.643, 0.61, -0.061, 0.061, 0.308, -49.493, 152.496, -19.400, -10.300, -23.860, 29.1, 0.21472, 0.40723, -0.09726, 0.88232,
 13:36:02.146,ed:35:33:d3:6c:f8, 2015-01-01 01:48:11.480, 0.757, 0.004, 0.644, 0.549, 0.061, 0.183, 0.319, -49.493, 152.496, -19.400, -10.300, -23.860, 29.1, 0.21472, 0.40723, -0.09726, 0.88232,
 13:36:02.164,ed:40:fe:65:30:6c, 2015-01-01 01:48:16.450, 0.871, 0.017, 0.497, 1.526, 0.732, 0.671, 1.95, -59.996, -127.947, -25.360, -10.100, 1.013, 27.5, 0.38742, -0.44312, -0.23267, -0.77414,
 13:36:02.164,ed:40:fe:65:30:6c, 2015-01-01 01:48:16.450, 0.87, 0.02, 0.498, 1.282, 0.549, 0.671, 1.956, -59.985, -127.925, -25.360, -10.100, 1.013, 27.5, 0.38742, -0.44312, -0.23267, -0.77414,
 13:36:02.166,e3:ca:2d:fd:e0:8c, 2015-01-01 01:48:10.875, 0.991, -0.069, 0.247, 0.061, -0.061, 0, -15.128, -75.295, 173.167, -26.580, -10.847, -12.460, 27.69, -0.12704, -0.59814, 0.14011, -0.77869,
 13:36:02.166,e3:ca:2d:fd:e0:8c, 2015-01-01 01:48:10.875, 0.991, -0.068, 0.248, 0.183, 0.061, 0.061, -15.128, -75.295, 173.172, -26.580, -10.847, -12.460, 27.69, -0.12704, -0.59814, 0.14011, -0.77869,
 13:36:02.167,f6:90:cc:01:6d:25, 2015-01-01 01:48:11.565, 0.987, 0.007, 0.033, 0.732, 0, -0.183, 14.837, -87.665, 160.043, -30.713, -12.687, -0.727, 31.92, -0.03528, -0.69247, 0.02676, -0.72003,
 13:36:02.167,f6:90:cc:01:6d:25, 2015-01-01 01:48:11.565, 0.987, 0.008, 0.032, 0.732, 0, -0.122, 14.886, -87.665, 159.977, -30.713, -12.687, -0.727, 31.92, -0.03528, -0.69247, 0.02676, -0.72003,
 13:36:02.190,f6:90:cc:01:6d:25, 2015-01-01 01:48:11.565, 0.987, 0.01, 0.035, 0.61, 0.183, -0.183, 14.936, -87.665, 159.911, -30.713, -12.687, -0.727, 31.92, -0.03528, -0.69247, 0.02676, -0.72003,
 13:36:02.190,f6:90:cc:01:6d:25, 2015-01-01 01:48:11.565, 0.986, 0.012, 0.036, 0.427, 0.305, -0.122, 14.963, -87.66, 159.879, -30.713, -12.687, -0.727, 31.92, -0.03528, -0.69247, 0.02676, -0.72003,
 13:36:02.192,ed:35:33:d3:6c:f8, 2015-01-01 01:48:11.480, 0.756, 0.006, 0.645, 0.366, 0.183, 0.305, 0.319, -49.493, 152.507, -19.400, -10.300, -23.860, 29.1, 0.21472, 0.40723, -0.09726, 0.88232,
 13:36:02.192,ed:35:33:d3:6c:f8, 2015-01-01 01:48:11.480, 0.754, 0.006, 0.646, 0, 0.061, 0.183, 0.319, -49.488, 152.512, -19.400, -10.300, -23.860, 29.1, 0.21472, 0.40723, -0.09726, 0.88232,
 13:36:02.211,ed:40:fe:65:30:6c, 2015-01-01 01:48:16.450, 0.869, 0.022, 0.5, 0.671, 0.183, 0.427, 1.956, -59.98, -127.892, -25.360, -10.100, 1.013, 27.5, 0.38742, -0.44312, -0.23267, -0.77414,
 13:36:02.211,ed:40:fe:65:30:6c, 2015-01-01 01:48:16.450, 0.868, 0.023, 0.501, 0, 0, 0, 1.961, -59.98, -127.875, -25.360, -10.100, 1.013, 27.5, 0.38742, -0.44312, -0.23267, -0.77414,
 13:36:02.211,e3:ca:2d:fd:e0:8c, 2015-01-01 01:48:11.255, 0.99, -0.066, 0.249, 0.244, 0.122, 0.122, -15.134, -75.295, 173.177, -26.580, -10.847, -12.460, 27.69, -0.12704, -0.59814, 0.14011, -0.77869,
 13:36:02.211,e3:ca:2d:fd:e0:8c, 2015-01-01 01:48:11.255, 0.988, -0.066, 0.249, 0.122, 0.183, 0.122, -15.139, -75.295, 173.188, -26.580, -10.847, -12.460, 27.69, -0.12704, -0.59814, 0.14011, -0.77869,
 13:36:02.233,ed:40:fe:65:30:6c, 2015-01-01 01:48:16.450, 0.871, 0.022, 0.5, -0.427, -0.061, -0.122, 1.961, -59.98, -127.87, -25.360, -10.100, 1.013, 27.5, 0.38742, -0.44312, -0.23267, -0.77414,
 13:36:02.233,ed:40:fe:65:30:6c, 2015-01-01 01:48:16.450, 0.868, 0.016, 0.498, -0.366, 0.122, -0.122, 1.961, -59.985, -127.875, -25.360, -10.100, 1.013, 27.5, 0.38742, -0.44312, -0.23267, -0.77414,
 13:36:02.233,e3:ca:2d:fd:e0:8c, 2015-01-01 01:48:11.255, 0.987, -0.067, 0.25, 0, 0.244, 0.061, -15.139, -75.289, 173.194, -26.580, -10.847, -12.460, 27.69, -0.12704, -0.59814, 0.14011, -0.77869,
 13:36:02.233,e3:ca:2d:fd:e0:8c, 2015-01-01 01:48:11.255, 0.987, -0.068, 0.251, -0.061, 0.305, 0, -15.139, -75.284, 173.194, -26.580, -10.847, -12.460, 27.69, -0.12704, -0.59814, 0.14011, -0.77869,
 13:36:02.235,f6:90:cc:01:6d:25, 2015-01-01 01:48:11.565, 0.986, 0.012, 0.038, -0.366, 0.305, 0.061, 14.908, -87.66, 159.922, -30.713, -12.687, -0.727, 31.92, -0.03528, -0.69247, 0.02676, -0.72003,
 13:36:02.235,f6:90:cc:01:6d:25, 2015-01-01 01:48:11.565, 0.986, 0.01, 0.038, -0.671, 0.427, 0.183, 14.777, -87.654, 160.043, -30.713, -12.687, -0.727, 31.92, -0.03528, -0.69247, 0.02676, -0.72003,
 13:36:02.259,ed:35:33:d3:6c:f8, 2015-01-01 01:48:11.480, 0.754, 0.008, 0.647, -0.427, -0.122, -0.061, 0.313, -49.493, 152.512, -19.400, -10.300, -23.860, 29.1, 0.21472, 0.40723, -0.09726, 0.88232,
 13:36:02.259,ed:35:33:d3:6c:f8, 2015-01-01 01:48:11.480, 0.756, 0.007, 0.645, -0.61, -0.366, -0.305, 0.308, -49.499, 152.501, -19.400, -10.300, -23.860, 29.1, 0.21472, 0.40723, -0.09726, 0.88232,
 13:36:02.279,e3:ca:2d:fd:e0:8c, 2015-01-01 01:48:11.255, 0.986, -0.069, 0.251, -0.183, 0.183, 0, -15.134, -75.278, 173.194, -26.580, -10.847, -12.460, 27.69, -0.12704, -0.59814, 0.14011, -0.77869,
 13:36:02.280,e3:ca:2d:fd:e0:8c, 2015-01-01 01:48:11.255, 0.986, -0.069, 0.251, -0.122, 0.244, 0.061, -15.139, -75.278, 173.194, -26.580, -10.847, -12.460, 27.69, -0.12704, -0.59814, 0.14011, -0.77869,
 13:36:02.280,f6:90:cc:01:6d:25, 2015-01-01 01:48:11.565, 0.985, 0.006, 0.038, -0.61, 0.488, 0.183, 14.617, -87.649, 160.186, -30.713, -12.687, -0.727, 31.92, -0.03528, -0.69247, 0.02676, -0.72003,
 13:36:02.280,f6:90:cc:01:6d:25, 2015-01-01 01:48:11.565, 0.984, 0.006, 0.039, -0.305, 0.549, 0.061, 14.491, -87.638, 160.291, -30.713, -12.687, -0.727, 31.92, -0.03528, -0.69247, 0.02676, -0.72003,
 13:36:02.282,ed:35:33:d3:6c:f8, 2015-01-01 01:48:11.480, 0.753, 0.003, 0.645, -0.671, -0.183, -0.183, 0.302, -49.504, 152.496, -19.400, -10.300, -23.860, 29.1, 0.21472, 0.40723, -0.09726, 0.88232,
 13:36:02.282,ed:35:33:d3:6c:f8, 2015-01-01 01:48:11.480, 0.754, 0.002, 0.646, -0.549, -0.061, -0.122, 0.297, -49.504, 152.49, -19.400, -10.300, -23.860, 29.1, 0.21472, 0.40723, -0.09726, 0.88232,
 13:36:02.301,ed:40:fe:65:30:6c, 2015-01-01 01:48:16.450, 0.869, 0.017, 0.5, -0.488, 0.061, -0.061, 1.961, -59.985, -127.881, -25.360, -10.100, 1.013, 27.5, 0.38742, -0.44312, -0.23267, -0.77414,
 13:36:02.301,ed:40:fe:65:30:6c, 2015-01-01 01:48:16.450, 0.871, 0.012, 0.499, -0.61, 0, -0.183, 1.956, -59.985, -127.892, -25.360, -10.100, 1.013, 27.5, 0.38742, -0.44312, -0.23267, -0.77414,
 13:36:02.322,ed:40:fe:65:30:6c, 2015-01-01 01:48:16.450, 0.869, 0.016, 0.502, -0.366, 0, -0.122, 1.95, -59.985, -127.908, -25.373, -10.293, 0.673, 27.5, 0.38742, -0.44312, -0.23267, -0.77414,
 13:36:02.322,ed:40:fe:65:30:6c, 2015-01-01 01:48:16.450, 0.868, 0.015, 0.503, 0.061, 0.305, 0, 1.95, -59.985, -127.919, -25.373, -10.293, 0.673, 27.5, 0.38742, -0.44312, -0.23267, -0.77414,
 13:36:02.323,e3:ca:2d:fd:e0:8c, 2015-01-01 01:48:11.255, 0.986, -0.068, 0.252, -0.183, 0.183, 0, -15.139, -75.273, 173.194, -26.580, -10.847, -12.460, 27.69, -0.12704, -0.59814, 0.14011, -0.77869,
 13:36:02.323,e3:ca:2d:fd:e0:8c, 2015-01-01 01:48:11.255, 0.986, -0.069, 0.252, -0.305, 0, 0, -15.145, -75.273, 173.194, -26.580, -10.847, -12.460, 27.69, -0.12704, -0.59814, 0.14011, -0.77869,
 13:36:02.326,ed:35:33:d3:6c:f8, 2015-01-01 01:48:11.480, 0.754, 0, 0.645, -0.732, 0.183, 0, 0.286, -49.504, 152.49, -19.513, -10.420, -23.973, 29.1, 0.21472, 0.40723, -0.09726, 0.88232,
 13:36:02.326,ed:35:33:d3:6c:f8, 2015-01-01 01:48:11.480, 0.752, 0.004, 0.649, -0.488, 0.244, 0, 0.275, -49.499, 152.49, -19.513, -10.420, -23.973, 29.1, 0.21472, 0.40723, -0.09726, 0.88232,
 13:36:02.350,ed:35:33:d3:6c:f8, 2015-01-01 01:48:11.480, 0.752, 0.001, 0.647, -0.183, 0, -0.061, 0.275, -49.493, 152.485, -19.513, -10.420, -23.973, 29.1, 0.21497, 0.4071, -0.09741, 0.88229,
 13:36:02.350,ed:35:33:d3:6c:f8, 2015-01-01 01:48:11.480, 0.752, 0.002, 0.646, -0.183, -0.183, 0.305, 0.264, -49.499, 152.49, -19.513, -10.420, -23.973, 29.1, 0.21497, 0.4071, -0.09741, 0.88229,
 13:36:02.369,f6:90:cc:01:6d:25, 2015-01-01 01:48:11.565, 0.985, 0.007, 0.04, -0.366, 0.488, 0, 14.398, -87.632, 160.356, -30.713, -12.687, -0.727, 31.92, -0.03528, -0.69247, 0.02676, -0.72003,
 13:36:02.369,f6:90:cc:01:6d:25, 2015-01-01 01:48:11.565, 0.986, 0.008, 0.042, -0.61, 0.427, -0.061, 14.332, -87.621, 160.384, -30.713, -12.687, -0.727, 31.92, -0.03528, -0.69247, 0.02676, -0.72003,
 13:36:02.369,ed:40:fe:65:30:6c, 2015-01-01 01:48:16.450, 0.867, 0.013, 0.5, 0.061, 0.244, 0.122, 1.945, -59.98, -127.925, -25.373, -10.293, 0.673, 27.5, 0.38742, -0.44312, -0.23267, -0.77414,
 13:36:02.369,ed:40:fe:65:30:6c, 2015-01-01 01:48:16.450, 0.87, 0.017, 0.5, 0.366, 0.61, 0.244, 1.945, -59.974, -127.925, -25.373, -10.293, 0.673, 27.5, 0.38742, -0.44312, -0.23267, -0.77414,
 13:36:02.390,e3:ca:2d:fd:e0:8c, 2015-01-01 01:48:11.255, 0.986, -0.069, 0.251, -0.366, 0, 0, -15.15, -75.267, 173.199, -26.580, -10.847, -12.460, 27.69, -0.12704, -0.59814, 0.14011, -0.77869,
 13:36:02.390,e3:ca:2d:fd:e0:8c, 2015-01-01 01:48:11.255, 0.988, -0.069, 0.251, -0.244, 0, 0, -15.161, -75.267, 173.199, -26.580, -10.847, -12.460, 27.69, -0.12704, -0.59814, 0.14011, -0.77869,
 13:36:02.390,ed:40:fe:65:30:6c, 2015-01-01 01:48:16.450, 0.871, 0.016, 0.5, 0.793, 0.732, 0.183, 1.945, -59.958, -127.93, -25.373, -10.293, 0.673, 27.5, 0.3877, -0.44254, -0.23254, -0.77435,
 13:36:02.390,ed:40:fe:65:30:6c, 2015-01-01 01:48:16.450, 0.869, 0.014, 0.501, 1.16, 1.038, 0.427, 1.95, -59.941, -127.925, -25.373, -10.293, 0.673, 27.5, 0.3877, -0.44254, -0.23254, -0.77435,
 13:36:02.392,f6:90:cc:01:6d:25, 2015-01-01 01:48:11.565, 0.983, 0.006, 0.041, -0.793, 0.427, 0, 14.244, -87.616, 160.428, -30.893, -12.860, -1.020, 31.92, -0.03528, -0.69247, 0.02676, -0.72003,
 13:36:02.392,f6:90:cc:01:6d:25, 2015-01-01 01:48:11.565, 0.985, 0.005, 0.04, -0.671, 0.366, -0.183, 14.216, -87.61, 160.406, -30.893, -12.860, -1.020, 31.92, -0.03528, -0.69247, 0.02676, -0.72003,
 13:36:02.394,ed:35:33:d3:6c:f8, 2015-01-01 01:48:11.480, 0.756, 0.003, 0.646, 0.061, -0.183, 0, 0.264, -49.499, 152.496, -19.513, -10.420, -23.973, 29.1, 0.21497, 0.4071, -0.09741, 0.88229,
 13:36:02.394,ed:35:33:d3:6c:f8, 2015-01-01 01:48:11.480, 0.755, 0.002, 0.647, 0.183, -0.122, -0.183, 0.269, -49.499, 152.49, -19.513, -10.420, -23.973, 29.1, 0.21497, 0.4071, -0.09741, 0.88229,
 13:36:02.414,f6:90:cc:01:6d:25, 2015-01-01 01:48:11.565, 0.986, 0.008, 0.04, -0.732, 0.549, -0.183, 14.183, -87.599, 160.378, -30.893, -12.860, -1.020, 31.92, -0.03528, -0.69247, 0.02676, -0.72003,
 13:36:02.414,f6:90:cc:01:6d:25, 2015-01-01 01:48:11.565, 0.988, 0.005, 0.04, -0.183, 0.549, -0.183, 14.161, -87.589, 160.356, -30.893, -12.860, -1.020, 31.92, -0.03528, -0.69247, 0.02676, -0.72003,
 13:36:02.414,e3:ca:2d:fd:e0:8c, 2015-01-01 01:48:11.255, 0.989, -0.069, 0.25, -0.244, -0.183, 0, -15.167, -75.273, 173.205, -26.247, -11.007, -12.540, 27.69, -0.12704, -0.59814, 0.14011, -0.77869,
 13:36:02.414,e3:ca:2d:fd:e0:8c, 2015-01-01 01:48:11.255, 0.992, -0.069, 0.249, -0.183, -0.183, 0, -15.178, -75.273, 173.216, -26.247, -11.007, -12.540, 27.69, -0.12704, -0.59814, 0.14011, -0.77869,
 13:36:02.436,ed:40:fe:65:30:6c, 2015-01-01 01:48:16.450, 0.867, 0.014, 0.501, 1.404, 0.916, 0.732, 1.956, -59.925, -127.908, -25.373, -10.293, 0.673, 27.5, 0.3877, -0.44254, -0.23254, -0.77435,
 13:36:02.436,ed:40:fe:65:30:6c, 2015-01-01 01:48:16.450, 0.867, 0.015, 0.502, 1.099, 0.366, 0.671, 1.95, -59.914, -127.881, -25.373, -10.293, 0.673, 27.5, 0.3877, -0.44254, -0.23254, -0.77435,
 13:36:02.438,ed:35:33:d3:6c:f8, 2015-01-01 01:48:11.770, 0.755, 0.002, 0.648, 0.366, -0.183, 0, 0.275, -49.504, 152.485, -19.513, -10.420, -23.973, 29.1, 0.21497, 0.4071, -0.09741, 0.88229,
 13:36:02.438,ed:35:33:d3:6c:f8, 2015-01-01 01:48:11.770, 0.755, 0, 0.647, 0.366, -0.366, 0.183, 0.28, -49.51, 152.49, -19.513, -10.420, -23.973, 29.1, 0.21497, 0.4071, -0.09741, 0.88229,
 13:36:02.459,e3:ca:2d:fd:e0:8c, 2015-01-01 01:48:11.255, 0.99, -0.07, 0.248, -0.122, 0, 0, -15.183, -75.278, 173.216, -26.247, -11.007, -12.540, 27.69, -0.12704, -0.59814, 0.14011, -0.77869,
 13:36:02.459,e3:ca:2d:fd:e0:8c, 2015-01-01 01:48:11.255, 0.988, -0.07, 0.247, -0.061, 0.061, 0, -15.189, -75.278, 173.221, -26.247, -11.007, -12.540, 27.69, -0.12704, -0.59814, 0.14011, -0.77869,
 13:36:02.460,f6:90:cc:01:6d:25, 2015-01-01 01:48:11.565, 0.987, 0.005, 0.035, -0.122, 0.427, -0.427, 14.227, -87.578, 160.236, -30.893, -12.860, -1.020, 31.92, -0.03528, -0.69247, 0.02676, -0.72003,
 13:36:02.460,f6:90:cc:01:6d:25, 2015-01-01 01:48:11.565, 0.985, 0.004, 0.035, 0.183, 0.244, -0.61, 14.398, -87.572, 160.005, -30.893, -12.860, -1.020, 31.92, -0.03528, -0.69247, 0.02676, -0.72003,
 13:36:02.480,ed:40:fe:65:30:6c, 2015-01-01 01:48:16.810, 0.868, 0.021, 0.501, 0.671, 0, 0.244, 1.95, -59.914, -127.864, -25.373, -10.293, 0.673, 27.5, 0.3877, -0.44254, -0.23254, -0.77435,
 13:36:02.480,ed:40:fe:65:30:6c, 2015-01-01 01:48:16.810, 0.87, 0.021, 0.501, 0.244, -0.061, 0, 1.956, -59.914, -127.87, -25.373, -10.293, 0.673, 27.5, 0.3877, -0.44254, -0.23254, -0.77435,
 13:36:02.481,e3:ca:2d:fd:e0:8c, 2015-01-01 01:48:11.255, 0.986, -0.066, 0.249, 0.122, 0.061, 0, -15.189, -75.273, 173.221, -26.247, -11.007, -12.540, 27.69, -0.12695, -0.59805, 0.14026, -0.77875,
 13:36:02.481,e3:ca:2d:fd:e0:8c, 2015-01-01 01:48:11.255, 0.987, -0.066, 0.249, 0.122, 0, 0, -15.189, -75.273, 173.227, -26.247, -11.007, -12.540, 27.69, -0.12695, -0.59805, 0.14026, -0.77875,
 13:36:02.482,f6:90:cc:01:6d:25, 2015-01-01 01:48:11.565, 0.985, 0.01, 0.037, 0.488, 0.183, -0.61, 14.612, -87.567, 159.747, -30.893, -12.860, -1.020, 31.92, -0.03876, -0.6918, 0.02994, -0.72037,
 13:36:02.482,f6:90:cc:01:6d:25, 2015-01-01 01:48:11.565, 0.984, 0.013, 0.038, -0.122, 0.122, -0.488, 14.793, -87.567, 159.521, -30.893, -12.860, -1.020, 31.92, -0.03876, -0.6918, 0.02994, -0.72037,
 13:36:02.483,ed:35:33:d3:6c:f8, 2015-01-01 01:48:11.770, 0.754, 0, 0.647, 0.366, -0.549, 0.305, 0.28, -49.515, 152.496, -19.513, -10.420, -23.973, 29.1, 0.21497, 0.4071, -0.09741, 0.88229,
 13:36:02.483,ed:35:33:d3:6c:f8, 2015-01-01 01:48:11.770, 0.755, 0.006, 0.646, 0.061, -0.732, -0.122, 0.286, -49.526, 152.496, -19.513, -10.420, -23.973, 29.1, 0.21497, 0.4071, -0.09741, 0.88229,
 13:36:02.506,ed:35:33:d3:6c:f8, 2015-01-01 01:48:11.770, 0.756, 0.006, 0.644, -0.061, -0.732, -0.183, 0.286, -49.543, 152.49, -19.513, -10.420, -23.973, 29.1, 0.21497, 0.4071, -0.09741, 0.88229,
 13:36:02.506,ed:35:33:d3:6c:f8, 2015-01-01 01:48:11.770, 0.755, 0.006, 0.643, -0.305, -0.61, -0.488, 0.291, -49.554, 152.479, -19.513, -10.420, -23.973, 29.1, 0.21497, 0.4071, -0.09741, 0.88229,
 13:36:02.525,ed:40:fe:65:30:6c, 2015-01-01 01:48:16.810, 0.869, 0.02, 0.499, 0.122, 0.061, -0.061, 1.961, -59.919, -127.886, -25.373, -10.293, 0.673, 27.5, 0.3877, -0.44254, -0.23254, -0.77435,
 13:36:02.525,ed:40:fe:65:30:6c, 2015-01-01 01:48:16.810, 0.866, 0.019, 0.5, 0, 0.366, 0, 1.967, -59.914, -127.897, -25.373, -10.293, 0.673, 27.5, 0.3877, -0.44254, -0.23254, -0.77435,
 13:36:02.527,e3:ca:2d:fd:e0:8c, 2015-01-01 01:48:11.255, 0.988, -0.067, 0.25, 0, -0.061, 0, -15.189, -75.278, 173.227, -26.247, -11.007, -12.540, 27.69, -0.12695, -0.59805, 0.14026, -0.77875,
 13:36:02.527,e3:ca:2d:fd:e0:8c, 2015-01-01 01:48:11.255, 0.988, -0.071, 0.25, -0.122, -0.061, 0, -15.194, -75.278, 173.232, -26.247, -11.007, -12.540, 27.69, -0.12695, -0.59805, 0.14026, -0.77875,
 13:36:02.528,f6:90:cc:01:6d:25, 2015-01-01 01:48:11.565, 0.985, 0.013, 0.039, -0.244, 0.122, -0.366, 14.93, -87.561, 159.351, -30.893, -12.860, -1.020, 31.92, -0.03876, -0.6918, 0.02994, -0.72037,
 13:36:02.528,f6:90:cc:01:6d:25, 2015-01-01 01:48:11.565, 0.985, 0.009, 0.039, -0.427, 0.122, -0.366, 15.051, -87.561, 159.197, -30.893, -12.860, -1.020, 31.92, -0.03876, -0.6918, 0.02994, -0.72037,
 13:36:02.550,f6:90:cc:01:6d:25, 2015-01-01 01:48:11.945, 0.985, 0.008, 0.039, -0.305, 0.122, -0.305, 15.145, -87.556, 159.066, -30.893, -12.860, -1.020, 31.92, -0.03876, -0.6918, 0.02994, -0.72037,
 13:36:02.550,f6:90:cc:01:6d:25, 2015-01-01 01:48:11.945, 0.987, 0.01, 0.041, -0.488, 0.122, -0.183, 15.178, -87.556, 158.994, -30.893, -12.860, -1.020, 31.92, -0.03876, -0.6918, 0.02994, -0.72037,
 13:36:02.570,ed:40:fe:65:30:6c, 2015-01-01 01:48:16.810, 0.868, 0.019, 0.502, -0.427, 0, -0.305, 1.967, -59.914, -127.919, -25.373, -10.293, 0.673, 27.5, 0.3877, -0.44254, -0.23254, -0.77435,
 13:36:02.570,ed:40:fe:65:30:6c, 2015-01-01 01:48:16.810, 0.868, 0.018, 0.506, -0.732, -0.122, -0.488, 1.972, -59.914, -127.947, -25.373, -10.293, 0.673, 27.5, 0.3877, -0.44254, -0.23254, -0.77435,
 13:36:02.571,e3:ca:2d:fd:e0:8c, 2015-01-01 01:48:11.615, 0.987, -0.071, 0.252, -0.061, -0.061, 0, -15.2, -75.278, 173.238, -26.247, -11.007, -12.540, 27.69, -0.12695, -0.59805, 0.14026, -0.77875,
 13:36:02.571,e3:ca:2d:fd:e0:8c, 2015-01-01 01:48:11.615, 0.987, -0.068, 0.252, -0.122, -0.244, 0, -15.205, -75.284, 173.243, -26.247, -11.007, -12.540, 27.69, -0.12695, -0.59805, 0.14026, -0.77875,
 13:36:02.573,ed:35:33:d3:6c:f8, 2015-01-01 01:48:11.770, 0.754, 0.004, 0.645, -0.488, -0.305, -0.427, 0.291, -49.559, 152.463, -19.513, -10.420, -23.973, 29.1, 0.21497, 0.4071, -0.09741, 0.88229,
 13:36:02.573,ed:35:33:d3:6c:f8, 2015-01-01 01:48:11.770, 0.755, 0.004, 0.647, -0.854, -0.061, -0.488, 0.291, -49.559, 152.446, -19.513, -10.420, -23.973, 29.1, 0.21497, 0.4071, -0.09741, 0.88229,
 13:36:02.592,ed:40:fe:65:30:6c, 2015-01-01 01:48:16.810, 0.869, 0.018, 0.503, -0.854, -0.366, -0.427, 1.972, -59.919, -127.969, -25.373, -10.293, 0.673, 27.5, 0.3877, -0.44254, -0.23254, -0.77435,
 13:36:02.592,ed:40:fe:65:30:6c, 2015-01-01 01:48:16.810, 0.871, 0.015, 0.501, -0.488, -0.183, -0.244, 1.972, -59.925, -127.98, -25.373, -10.293, 0.673, 27.5, 0.3877, -0.44254, -0.23254, -0.77435,
 13:36:02.594,f6:90:cc:01:6d:25, 2015-01-01 01:48:11.945, 0.985, 0.011, 0.042, -0.854, 0.244, -0.183, 15.194, -87.55, 158.939, -30.893, -12.860, -1.020, 31.92, -0.03876, -0.6918, 0.02994, -0.72037,
 13:36:02.594,f6:90:cc:01:6d:25, 2015-01-01 01:48:11.945, 0.984, 0.01, 0.042, -1.465, 0.183, -0.183, 15.211, -87.55, 158.961, -30.893, -12.860, -1.020, 31.92, -0.03876, -0.6918, 0.02994, -0.72037,
 13:36:02.596,ed:35:33:d3:6c:f8, 2015-01-01 01:48:11.770, 0.752, 0.004, 0.651, -1.038, -0.183, -0.427, 0.28, -49.559, 152.435, -19.513, -10.420, -23.973, 29.1, 0.21497, 0.4071, -0.09741, 0.88229,
 13:36:02.596,ed:35:33:d3:6c:f8, 2015-01-01 01:48:11.770, 0.754, 0.004, 0.647, -0.854, -0.732, -0.427, 0.275, -49.57, 152.419, -19.513, -10.420, -23.973, 29.1, 0.21497, 0.4071, -0.09741, 0.88229,
 13:36:02.616,e3:ca:2d:fd:e0:8c, 2015-01-01 01:48:11.615, 0.986, -0.067, 0.252, -0.183, -0.183, 0.305, -15.227, -75.284, 173.26, -26.247, -11.007, -12.540, 27.69, -0.12695, -0.59805, 0.14026, -0.77875,
 13:36:02.616,e3:ca:2d:fd:e0:8c, 2015-01-01 01:48:11.615, 0.986, -0.07, 0.252, -0.488, -0.305, 0.244, -15.26, -75.289, 173.287, -26.247, -11.007, -12.540, 27.69, -0.12695, -0.59805, 0.14026, -0.77875,
 13:36:02.639,e3:ca:2d:fd:e0:8c, 2015-01-01 01:48:11.615, 0.986, -0.071, 0.25, -0.488, -0.366, 0.183, -15.293, -75.295, 173.315, -26.247, -11.007, -12.540, 27.69, -0.12695, -0.59805, 0.14026, -0.77875,
 13:36:02.639,e3:ca:2d:fd:e0:8c, 2015-01-01 01:48:11.615, 0.988, -0.07, 0.25, -0.366, -0.305, 0.183, -15.32, -75.3, 173.337, -26.247, -11.007, -12.540, 27.69, -0.12695, -0.59805, 0.14026, -0.77875,
 13:36:02.639,ed:40:fe:65:30:6c, 2015-01-01 01:48:16.810, 0.868, 0.018, 0.499, 0, 0.061, 0, 1.972, -59.925, -127.996, -25.373, -10.293, 0.673, 27.5, 0.3877, -0.44254, -0.23254, -0.77435,
 13:36:02.639,ed:40:fe:65:30:6c, 2015-01-01 01:48:16.810, 0.869, 0.014, 0.498, 0.916, 0.488, 0.427, 1.972, -59.919, -127.985, -25.373, -10.293, 0.673, 27.5, 0.3877, -0.44254, -0.23254, -0.77435,
 13:36:02.641,f6:90:cc:01:6d:25, 2015-01-01 01:48:11.945, 0.985, 0.005, 0.042, -0.916, 0.244, -0.183, 15.216, -87.545, 159, -30.893, -12.860, -1.020, 31.92, -0.03876, -0.6918, 0.02994, -0.72037,
 13:36:02.641,f6:90:cc:01:6d:25, 2015-01-01 01:48:11.945, 0.985, 0.008, 0.039, -1.038, 0.183, -0.183, 15.222, -87.539, 159.033, -30.893, -12.860, -1.020, 31.92, -0.03876, -0.6918, 0.02994, -0.72037,
 13:36:02.641,ed:35:33:d3:6c:f8, 2015-01-01 01:48:11.770, 0.756, 0.005, 0.645, -0.732, -0.977, -0.183, 0.269, -49.587, 152.413, -19.887, -10.467, -23.633, 29.1, 0.21497, 0.4071, -0.09741, 0.88229,
 13:36:02.641,ed:35:33:d3:6c:f8, 2015-01-01 01:48:11.770, 0.756, 0.006, 0.642, -0.061, -0.854, -0.183, 0.269, -49.603, 152.402, -19.887, -10.467, -23.633, 29.1, 0.21497, 0.4071, -0.09741, 0.88229,
 13:36:02.683,e3:ca:2d:fd:e0:8c, 2015-01-01 01:48:11.615, 0.99, -0.07, 0.25, -0.366, -0.305, 0.122, -15.348, -75.3, 173.359, -26.247, -11.007, -12.540, 27.69, -0.12695, -0.59805, 0.14026, -0.77875,
 13:36:02.683,e3:ca:2d:fd:e0:8c, 2015-01-01 01:48:11.615, 0.989, -0.071, 0.248, -0.305, -0.244, 0.122, -15.375, -75.306, 173.375, -26.247, -11.007, -12.540, 27.69, -0.12695, -0.59805, 0.14026, -0.77875,
 13:36:02.685,f6:90:cc:01:6d:25, 2015-01-01 01:48:11.945, 0.985, 0.007, 0.039, -0.549, 0.244, -0.183, 15.227, -87.534, 159.071, -30.893, -12.860, -1.020, 31.92, -0.03876, -0.6918, 0.02994, -0.72037,
 13:36:02.685,f6:90:cc:01:6d:25, 2015-01-01 01:48:11.945, 0.988, 0.006, 0.038, 0, 0.366, -0.244, 15.255, -87.528, 159.099, -30.893, -12.860, -1.020, 31.92, -0.03876, -0.6918, 0.02994, -0.72037,
 13:36:02.686,ed:35:33:d3:6c:f8, 2015-01-01 01:48:11.770, 0.758, -0.002, 0.641, 0.183, -0.61, 0, 0.275, -49.614, 152.402, -19.887, -10.467, -23.633, 29.1, 0.21548, 0.40799, -0.09793, 0.88171,
 13:36:02.686,ed:35:33:d3:6c:f8, 2015-01-01 01:48:11.770, 0.758, -0.001, 0.643, 0.122, -0.305, 0, 0.275, -49.62, 152.402, -19.887, -10.467, -23.633, 29.1, 0.21548, 0.40799, -0.09793, 0.88171,
 13:36:02.705,ed:40:fe:65:30:6c, 2015-01-01 01:48:16.810, 0.871, 0.012, 0.499, 0.977, 0.366, 0.488, 1.978, -59.914, -127.974, -25.327, -10.120, 0.933, 27.5, 0.3877, -0.44254, -0.23254, -0.77435,
 13:36:02.705,ed:40:fe:65:30:6c, 2015-01-01 01:48:16.810, 0.868, 0.016, 0.501, 0.916, 0.305, 0.366, 1.978, -59.908, -127.952, -25.327, -10.120, 0.933, 27.5, 0.3877, -0.44254, -0.23254, -0.77435,
 13:36:02.707,f6:90:cc:01:6d:25, 2015-01-01 01:48:11.945, 0.986, 0.01, 0.039, -0.061, 0.366, -0.366, 15.337, -87.523, 159.049, -30.893, -12.860, -1.020, 31.92, -0.03876, -0.6918, 0.02994, -0.72037,
 13:36:02.707,f6:90:cc:01:6d:25, 2015-01-01 01:48:11.945, 0.984, 0.013, 0.038, -0.183, 0.366, -0.244, 15.37, -87.517, 159.055, -30.893, -12.860, -1.020, 31.92, -0.03876, -0.6918, 0.02994, -0.72037,
 13:36:02.708,ed:35:33:d3:6c:f8, 2015-01-01 01:48:12.085, 0.757, 0, 0.645, 0.305, -0.122, 0, 0.28, -49.62, 152.402, -19.887, -10.467, -23.633, 29.1, 0.21548, 0.40799, -0.09793, 0.88171,
 13:36:02.708,ed:35:33:d3:6c:f8, 2015-01-01 01:48:12.085, 0.756, 0.006, 0.645, 0, -0.366, -0.244, 0.286, -49.631, 152.391, -19.887, -10.467, -23.633, 29.1, 0.21548, 0.40799, -0.09793, 0.88171,
 13:36:02.729,ed:40:fe:65:30:6c, 2015-01-01 01:48:16.810, 0.867, 0.019, 0.502, 0.61, 0.122, 0.061, 1.983, -59.908, -127.941, -25.327, -10.120, 0.933, 27.5, 0.38788, -0.44199, -0.23251, -0.7746,
 13:36:02.729,ed:40:fe:65:30:6c, 2015-01-01 01:48:16.810, 0.866, 0.022, 0.5, 0.305, -0.305, -0.183, 1.994, -59.908, -127.941, -25.327, -10.120, 0.933, 27.5, 0.38788, -0.44199, -0.23251, -0.7746,
 13:36:02.729,e3:ca:2d:fd:e0:8c, 2015-01-01 01:48:11.615, 0.989, -0.068, 0.248, -0.122, -0.183, 0.061, -15.392, -75.311, 173.392, -26.247, -11.007, -12.540, 27.69, -0.12695, -0.59805, 0.14026, -0.77875,
 13:36:02.729,e3:ca:2d:fd:e0:8c, 2015-01-01 01:48:11.615, 0.988, -0.067, 0.246, -0.061, -0.122, 0.183, -15.408, -75.311, 173.403, -26.247, -11.007, -12.540, 27.69, -0.12695, -0.59805, 0.14026, -0.77875,
 13:36:02.753,f6:90:cc:01:6d:25, 2015-01-01 01:48:11.945, 0.984, 0.013, 0.036, -0.366, 0.244, -0.122, 15.381, -87.512, 159.071, -30.893, -12.860, -1.020, 31.92, -0.03876, -0.6918, 0.02994, -0.72037,
 13:36:02.753,f6:90:cc:01:6d:25, 2015-01-01 01:48:11.945, 0.986, 0.011, 0.036, -0.732, 0.183, -0.061, 15.37, -87.512, 159.115, -30.893, -12.860, -1.020, 31.92, -0.03876, -0.6918, 0.02994, -0.72037,
 13:36:02.753,ed:35:33:d3:6c:f8, 2015-01-01 01:48:12.085, 0.756, 0.007, 0.644, 0, -0.61, -0.244, 0.291, -49.642, 152.386, -19.887, -10.467, -23.633, 29.1, 0.21548, 0.40799, -0.09793, 0.88171,
 13:36:02.753,ed:35:33:d3:6c:f8, 2015-01-01 01:48:12.085, 0.76, 0.01, 0.643, -0.183, -0.793, -0.183, 0.297, -49.653, 152.38, -19.887, -10.467, -23.633, 29.1, 0.21548, 0.40799, -0.09793, 0.88171,
 13:36:02.773,ed:40:fe:65:30:6c, 2015-01-01 01:48:16.810, 0.87, 0.023, 0.5, -0.122, -0.671, -0.244, 2.005, -59.919, -127.941, -25.327, -10.120, 0.933, 27.5, 0.38788, -0.44199, -0.23251, -0.7746,
 13:36:02.773,ed:40:fe:65:30:6c, 2015-01-01 01:48:16.810, 0.873, 0.02, 0.498, -0.244, -1.038, -0.122, 2.01, -59.936, -127.93, -25.327, -10.120, 0.933, 27.5, 0.38788, -0.44199, -0.23251, -0.7746,
 13:36:02.795,ed:40:fe:65:30:6c, 2015-01-01 01:48:17.145, 0.872, 0.016, 0.497, -0.122, -0.916, 0, 2.01, -59.958, -127.93, -25.327, -10.120, 0.933, 27.5, 0.38788, -0.44199, -0.23251, -0.7746,
 13:36:02.795,ed:40:fe:65:30:6c, 2015-01-01 01:48:17.145, 0.87, 0.017, 0.498, -0.244, -0.793, 0, 2.01, -59.98, -127.919, -25.327, -10.120, 0.933, 27.5, 0.38788, -0.44199, -0.23251, -0.7746,
 13:36:02.797,e3:ca:2d:fd:e0:8c, 2015-01-01 01:48:11.615, 0.988, -0.068, 0.246, -0.122, 0, 0.244, -15.425, -75.311, 173.425, -26.613, -11.320, -12.120, 27.69, -0.12695, -0.59805, 0.14026, -0.77875,
 13:36:02.797,e3:ca:2d:fd:e0:8c, 2015-01-01 01:48:11.615, 0.989, -0.069, 0.248, -0.061, 0.183, 0.244, -15.447, -75.311, 173.441, -26.613, -11.320, -12.120, 27.69, -0.12695, -0.59805, 0.14026, -0.77875,
 13:36:02.799,ed:35:33:d3:6c:f8, 2015-01-01 01:48:12.085, 0.761, 0.004, 0.64, -0.244, -0.854, -0.122, 0.297, -49.669, 152.375, -19.887, -10.467, -23.633, 29.1, 0.21548, 0.40799, -0.09793, 0.88171,
 13:36:02.799,ed:35:33:d3:6c:f8, 2015-01-01 01:48:12.085, 0.76, 0.002, 0.641, -0.183, -0.732, 0.122, 0.291, -49.686, 152.375, -19.887, -10.467, -23.633, 29.1, 0.21548, 0.40799, -0.09793, 0.88171,
 13:36:02.819,e3:ca:2d:fd:e0:8c, 2015-01-01 01:48:11.615, 0.99, -0.07, 0.249, -0.061, 0.122, 0.244, -15.463, -75.306, 173.463, -26.613, -11.320, -12.120, 27.69, -0.12677, -0.59824, 0.14084, -0.7785,
 13:36:02.819,e3:ca:2d:fd:e0:8c, 2015-01-01 01:48:11.615, 0.988, -0.071, 0.249, -0.061, 0.183, 0.183, -15.474, -75.3, 173.474, -26.613, -11.320, -12.120, 27.69, -0.12677, -0.59824, 0.14084, -0.7785,
 13:36:02.841,ed:40:fe:65:30:6c, 2015-01-01 01:48:17.145, 0.873, 0.02, 0.499, -0.549, -0.977, -0.183, 2.005, -59.996, -127.93, -25.327, -10.120, 0.933, 27.5, 0.38788, -0.44199, -0.23251, -0.7746,
 13:36:02.841,ed:40:fe:65:30:6c, 2015-01-01 01:48:17.145, 0.872, 0.017, 0.497, -0.427, -0.732, -0.122, 2.005, -60.013, -127.947, -25.327, -10.120, 0.933, 27.5, 0.38788, -0.44199, -0.23251, -0.7746,
 13:36:02.842,f6:90:cc:01:6d:25, 2015-01-01 01:48:11.945, 0.987, 0.01, 0.039, -0.793, 0.122, 0, 15.337, -87.506, 159.17, -31.040, -12.793, -1.640, 31.92, -0.03876, -0.6918, 0.02994, -0.72037,
 13:36:02.842,f6:90:cc:01:6d:25, 2015-01-01 01:48:11.945, 0.987, 0.007, 0.038, -0.732, 0.244, -0.061, 15.315, -87.506, 159.247, -31.040, -12.793, -1.640, 31.92, -0.03876, -0.6918, 0.02994, -0.72037,
 13:36:02.866,f6:90:cc:01:6d:25, 2015-01-01 01:48:11.945, 0.986, 0.008, 0.039, -0.488, 0.305, -0.183, 15.342, -87.501, 159.274, -31.040, -12.793, -1.640, 31.92, -0.03802, -0.6915, 0.0285, -0.72076,
 13:36:02.866,f6:90:cc:01:6d:25, 2015-01-01 01:48:11.945, 0.986, 0.01, 0.04, -0.488, 0.366, -0.061, 15.304, -87.495, 159.368, -31.040, -12.793, -1.640, 31.92, -0.03802, -0.6915, 0.0285, -0.72076,
 13:36:02.866,ed:35:33:d3:6c:f8, 2015-01-01 01:48:12.085, 0.757, 0.004, 0.641, -0.305, -0.488, 0.366, 0.275, -49.697, 152.386, -19.887, -10.467, -23.633, 29.1, 0.21548, 0.40799, -0.09793, 0.88171,
 13:36:02.866,ed:35:33:d3:6c:f8, 2015-01-01 01:48:12.085, 0.76, 0.004, 0.643, -0.488, -0.488, 0.122, 0.264, -49.708, 152.391, -19.887, -10.467, -23.633, 29.1, 0.21548, 0.40799, -0.09793, 0.88171,
 13:36:02.885,ed:40:fe:65:30:6c, 2015-01-01 01:48:17.145, 0.873, 0.018, 0.497, -0.183, -0.427, 0, 2.005, -60.029, -127.958, -25.327, -10.120, 0.933, 27.5, 0.38788, -0.44199, -0.23251, -0.7746,
 13:36:02.885,ed:40:fe:65:30:6c, 2015-01-01 01:48:17.145, 0.871, 0.015, 0.497, 0.244, -0.122, 0.244, 2, -60.035, -127.958, -25.327, -10.120, 0.933, 27.5, 0.38788, -0.44199, -0.23251, -0.7746,
 13:36:02.886,e3:ca:2d:fd:e0:8c, 2015-01-01 01:48:11.615, 0.987, -0.071, 0.249, -0.061, 0.244, 0.244, -15.491, -75.295, 173.491, -26.613, -11.320, -12.120, 27.69, -0.12677, -0.59824, 0.14084, -0.7785,
 13:36:02.886,e3:ca:2d:fd:e0:8c, 2015-01-01 01:48:11.615, 0.987, -0.071, 0.251, 0, 0.244, 0.244, -15.507, -75.289, 173.507, -26.613, -11.320, -12.120, 27.69, -0.12677, -0.59824, 0.14084, -0.7785,
 13:36:02.888,ed:35:33:d3:6c:f8, 2015-01-01 01:48:12.085, 0.759, 0.004, 0.641, -0.549, -0.671, -0.061, 0.258, -49.719, 152.391, -19.887, -10.467, -23.633, 29.1, 0.21548, 0.40799, -0.09793, 0.88171,
 13:36:02.888,ed:35:33:d3:6c:f8, 2015-01-01 01:48:12.085, 0.759, 0.003, 0.641, -0.305, -0.732, -0.122, 0.258, -49.735, 152.386, -19.887, -10.467, -23.633, 29.1, 0.21548, 0.40799, -0.09793, 0.88171,
 13:36:02.909,e3:ca:2d:fd:e0:8c, 2015-01-01 01:48:11.950, 0.988, -0.072, 0.249, -0.061, 0.244, 0.061, -15.513, -75.284, 173.513, -26.613, -11.320, -12.120, 27.69, -0.12677, -0.59824, 0.14084, -0.7785,
 13:36:02.909,e3:ca:2d:fd:e0:8c, 2015-01-01 01:48:11.950, 0.987, -0.072, 0.249, -0.122, 0.305, 0, -15.518, -75.278, 173.507, -26.613, -11.320, -12.120, 27.69, -0.12677, -0.59824, 0.14084, -0.7785,
 13:36:02.912,ed:35:33:d3:6c:f8, 2015-01-01 01:48:12.085, 0.759, 0.001, 0.639, 0, -0.732, 0, 0.258, -49.746, 152.386, -19.493, -10.620, -24.087, 29.1, 0.21548, 0.40799, -0.09793, 0.88171,
 13:36:02.912,ed:35:33:d3:6c:f8, 2015-01-01 01:48:12.085, 0.76, 0, 0.639, 0.305, -0.366, 0.061, 0.264, -49.757, 152.386, -19.493, -10.620, -24.087, 29.1, 0.21548, 0.40799, -0.09793, 0.88171,
 13:36:02.929,ed:40:fe:65:30:6c, 2015-01-01 01:48:17.145, 0.872, 0.014, 0.496, 0.549, 0.061, 0.427, 1.994, -60.04, -127.947, -25.327, -10.120, 0.933, 27.5, 0.38788, -0.44199, -0.23251, -0.7746,
 13:36:02.929,ed:40:fe:65:30:6c, 2015-01-01 01:48:17.145, 0.872, 0.013, 0.498, 0.732, 0, 0.427, 1.994, -60.04, -127.936, -25.327, -10.120, 0.933, 27.5, 0.38788, -0.44199, -0.23251, -0.7746,
 13:36:02.930,e3:ca:2d:fd:e0:8c, 2015-01-01 01:48:11.950, 0.986, -0.074, 0.249, -0.061, 0.366, 0, -15.518, -75.273, 173.502, -26.613, -11.320, -12.120, 27.69, -0.12677, -0.59824, 0.14084, -0.7785,
 13:36:02.930,e3:ca:2d:fd:e0:8c, 2015-01-01 01:48:11.950, 0.987, -0.072, 0.25, 0, 0.305, -0.061, -15.513, -75.267, 173.496, -26.613, -11.320, -12.120, 27.69, -0.12677, -0.59824, 0.14084, -0.7785,
 13:36:02.932,f6:90:cc:01:6d:25, 2015-01-01 01:48:11.945, 0.985, 0.006, 0.039, -0.366, 0.488, 0, 15.244, -87.49, 159.5, -31.040, -12.793, -1.640, 31.92, -0.03802, -0.6915, 0.0285, -0.72076,
 13:36:02.932,f6:90:cc:01:6d:25, 2015-01-01 01:48:11.945, 0.984, 0.005, 0.04, -0.244, 0.366, 0, 15.161, -87.484, 159.642, -31.040, -12.793, -1.640, 31.92, -0.03802, -0.6915, 0.0285, -0.72076,
 13:36:02.975,ed:40:fe:65:30:6c, 2015-01-01 01:48:17.145, 0.869, 0.013, 0.498, 1.038, 0.183, 0.427, 1.994, -60.04, -127.919, -25.327, -10.120, 0.933, 27.5, 0.38788, -0.44199, -0.23251, -0.7746,
 13:36:02.975,ed:40:fe:65:30:6c, 2015-01-01 01:48:17.145, 0.868, 0.01, 0.498, 0.671, 0.061, 0.488, 1.994, -60.04, -127.914, -25.327, -10.120, 0.933, 27.5, 0.38788, -0.44199, -0.23251, -0.7746,
 13:36:02.975,e3:ca:2d:fd:e0:8c, 2015-01-01 01:48:11.950, 0.986, -0.07, 0.25, 0.122, 0.061, -0.061, -15.513, -75.267, 173.491, -26.613, -11.320, -12.120, 27.69, -0.12677, -0.59824, 0.14084, -0.7785,
 13:36:02.975,e3:ca:2d:fd:e0:8c, 2015-01-01 01:48:11.950, 0.987, -0.071, 0.25, 0.061, 0.122, -0.122, -15.502, -75.267, 173.48, -26.613, -11.320, -12.120, 27.69, -0.12677, -0.59824, 0.14084, -0.7785,
 13:36:03.003,f6:90:cc:01:6d:25, 2015-01-01 01:48:12.325, 0.984, 0.006, 0.04, 0, 0.305, 0, 15.09, -87.479, 159.785, -31.040, -12.793, -1.640, 31.92, -0.03802, -0.6915, 0.0285, -0.72076,
 13:36:03.003,f6:90:cc:01:6d:25, 2015-01-01 01:48:12.325, 0.987, 0.009, 0.042, 0.244, 0.183, -0.061, 15.029, -87.473, 159.901, -31.040, -12.793, -1.640, 31.92, -0.03802, -0.6915, 0.0285, -0.72076,
 13:36:03.020,ed:40:fe:65:30:6c, 2015-01-01 01:48:17.145, 0.87, 0.021, 0.499, 0.183, 0, 0.366, 1.983, -60.046, -127.897, -25.033, -10.140, 0.793, 27.5, 0.38788, -0.44199, -0.23251, -0.7746,
 13:36:03.020,ed:40:fe:65:30:6c, 2015-01-01 01:48:17.145, 0.873, 0.021, 0.5, 0.122, 0.122, 0.183, 1.978, -60.046, -127.892, -25.033, -10.140, 0.793, 27.5, 0.38788, -0.44199, -0.23251, -0.7746,
 13:36:03.021,e3:ca:2d:fd:e0:8c, 2015-01-01 01:48:11.950, 0.987, -0.072, 0.251, 0, 0.183, -0.183, -15.496, -75.262, 173.469, -26.613, -11.320, -12.120, 27.69, -0.12677, -0.59824, 0.14084, -0.7785,
 13:36:03.021,e3:ca:2d:fd:e0:8c, 2015-01-01 01:48:11.950, 0.989, -0.071, 0.25, 0, 0.122, -0.366, -15.474, -75.262, 173.441, -26.613, -11.320, -12.120, 27.69, -0.12677, -0.59824, 0.14084, -0.7785,
 13:36:03.023,f6:90:cc:01:6d:25, 2015-01-01 01:48:12.325, 0.984, 0.006, 0.04, 0.122, 0.366, -0.122, 15.002, -87.473, 159.983, -31.040, -12.793, -1.640, 31.92, -0.03802, -0.6915, 0.0285, -0.72076,
 13:36:03.023,f6:90:cc:01:6d:25, 2015-01-01 01:48:12.325, 0.985, 0.004, 0.042, 0.488, 0.366, -0.549, 15.018, -87.468, 160.01, -31.040, -12.793, -1.640, 31.92, -0.03802, -0.6915, 0.0285, -0.72076,
 13:36:03.025,ed:35:33:d3:6c:f8, 2015-01-01 01:48:12.085, 0.759, 0, 0.642, 0.427, -0.061, 0.061, 0.269, -49.757, 152.386, -19.493, -10.620, -24.087, 29.1, 0.21548, 0.40799, -0.09793, 0.88171,
 13:36:03.025,ed:35:33:d3:6c:f8, 2015-01-01 01:48:12.085, 0.756, -0.002, 0.641, 0.549, -0.061, 0.244, 0.275, -49.757, 152.391, -19.493, -10.620, -24.087, 29.1, 0.21548, 0.40799, -0.09793, 0.88171,
 13:36:03.025,ed:35:33:d3:6c:f8, 2015-01-01 01:48:12.085, 0.758, 0.002, 0.64, 0.183, -0.305, 0.793, 0.258, -49.768, 152.419, -19.493, -10.620, -24.087, 29.1, 0.21548, 0.40799, -0.09793, 0.88171,
 13:36:03.025,ed:35:33:d3:6c:f8, 2015-01-01 01:48:12.085, 0.76, 0.007, 0.641, 0.305, -0.183, 0.427, 0.253, -49.768, 152.43, -19.493, -10.620, -24.087, 29.1, 0.21548, 0.40799, -0.09793, 0.88171,
 13:36:03.044,e3:ca:2d:fd:e0:8c, 2015-01-01 01:48:11.950, 0.993, -0.069, 0.25, 0, 0.183, -0.366, -15.447, -75.262, 173.414, -26.613, -11.320, -12.120, 27.69, -0.12677, -0.59824, 0.14084, -0.7785,
 13:36:03.044,e3:ca:2d:fd:e0:8c, 2015-01-01 01:48:11.950, 0.989, -0.069, 0.248, 0.061, 0.122, -0.244, -15.43, -75.262, 173.392, -26.613, -11.320, -12.120, 27.69, -0.12677, -0.59824, 0.14084, -0.7785,
 13:36:03.045,f6:90:cc:01:6d:25, 2015-01-01 01:48:12.325, 0.986, 0.01, 0.041, 0.061, 0.549, -0.671, 15.178, -87.457, 159.906, -31.040, -12.793, -1.640, 31.92, -0.03802, -0.6915, 0.0285, -0.72076,
 13:36:03.045,f6:90:cc:01:6d:25, 2015-01-01 01:48:12.325, 0.988, 0.013, 0.041, -0.183, 0.488, -0.305, 15.32, -87.446, 159.818, -31.040, -12.793, -1.640, 31.92, -0.03802, -0.6915, 0.0285, -0.72076,
 13:36:03.050,ed:35:33:d3:6c:f8, 2015-01-01 01:48:12.085, 0.761, 0.006, 0.645, 0, -0.122, 0.183, 0.247, -49.774, 152.435, -19.493, -10.620, -24.087, 29.1, 0.21545, 0.40906, -0.09827, 0.8812,
 13:36:03.050,ed:35:33:d3:6c:f8, 2015-01-01 01:48:12.085, 0.759, 0.006, 0.645, -0.183, -0.122, 0.061, 0.242, -49.774, 152.435, -19.493, -10.620, -24.087, 29.1, 0.21545, 0.40906, -0.09827, 0.8812,
 13:36:03.066,ed:40:fe:65:30:6c, 2015-01-01 01:48:17.145, 0.871, 0.021, 0.502, 0, 0, 0.183, 1.972, -60.046, -127.897, -25.033, -10.140, 0.793, 27.5, 0.38788, -0.44199, -0.23251, -0.7746,
 13:36:03.066,ed:40:fe:65:30:6c, 2015-01-01 01:48:17.145, 0.867, 0.017, 0.5, 0.244, 0, 0.366, 1.961, -60.046, -127.897, -25.033, -10.140, 0.793, 27.5, 0.38788, -0.44199, -0.23251, -0.7746,
 13:36:03.068,f6:90:cc:01:6d:25, 2015-01-01 01:48:12.325, 0.988, 0.012, 0.042, -0.183, 0.244, -0.244, 15.353, -87.44, 159.829, -31.040, -12.793, -1.640, 31.92, -0.03802, -0.6915, 0.0285, -0.72076,
 13:36:03.068,f6:90:cc:01:6d:25, 2015-01-01 01:48:12.325, 0.983, 0.01, 0.038, -0.122, 0.366, -0.244, 15.392, -87.435, 159.835, -31.040, -12.793, -1.640, 31.92, -0.03802, -0.6915, 0.0285, -0.72076,
 13:36:03.088,ed:40:fe:65:30:6c, 2015-01-01 01:48:17.145, 0.867, 0.014, 0.501, 0.183, -0.366, 0.305, 1.956, -60.051, -127.908, -25.033, -10.140, 0.793, 27.5, 0.38779, -0.44299, -0.233, -0.77396,
 13:36:03.088,ed:40:fe:65:30:6c, 2015-01-01 01:48:17.145, 0.865, 0.015, 0.499, 0.183, -0.671, 0.244, 1.95, -60.068, -127.919, -25.033, -10.140, 0.793, 27.5, 0.38779, -0.44299, -0.233, -0.77396,
 13:36:03.089,e3:ca:2d:fd:e0:8c, 2015-01-01 01:48:11.950, 0.985, -0.07, 0.249, 0.061, 0.366, -0.122, -15.414, -75.256, 173.375, -26.613, -11.320, -12.120, 27.69, -0.12677, -0.59824, 0.14084, -0.7785,
 13:36:03.089,e3:ca:2d:fd:e0:8c, 2015-01-01 01:48:11.950, 0.983, -0.069, 0.25, 0.183, 0.366, -0.061, -15.403, -75.251, 173.364, -26.613, -11.320, -12.120, 27.69, -0.12677, -0.59824, 0.14084, -0.7785,
 13:36:03.090,f6:90:cc:01:6d:25, 2015-01-01 01:48:12.325, 0.984, 0.009, 0.04, 0.183, 0.305, -0.305, 15.436, -87.429, 159.835, -31.040, -12.793, -1.640, 31.92, -0.03802, -0.6915, 0.0285, -0.72076,
 13:36:03.090,f6:90:cc:01:6d:25, 2015-01-01 01:48:12.325, 0.984, 0.01, 0.041, 0.183, 0.305, -0.366, 15.518, -87.424, 159.802, -31.040, -12.793, -1.640, 31.92, -0.03802, -0.6915, 0.0285, -0.72076,
 13:36:03.091,ed:35:33:d3:6c:f8, 2015-01-01 01:48:12.085, 0.755, 0, 0.644, -0.244, -0.305, 0.366, 0.231, -49.779, 152.446, -19.493, -10.620, -24.087, 29.1, 0.21545, 0.40906, -0.09827, 0.8812,
 13:36:03.091,ed:35:33:d3:6c:f8, 2015-01-01 01:48:12.085, 0.755, 0, 0.644, 0.061, -0.427, 0.61, 0.22, -49.79, 152.468, -19.493, -10.620, -24.087, 29.1, 0.21545, 0.40906, -0.09827, 0.8812,
 13:36:03.113,ed:35:33:d3:6c:f8, 2015-01-01 01:48:12.465, 0.755, 0.002, 0.643, 0.183, -0.793, 0.61, 0.209, -49.801, 152.485, -19.493, -10.620, -24.087, 29.1, 0.21545, 0.40906, -0.09827, 0.8812,
 13:36:03.113,ed:35:33:d3:6c:f8, 2015-01-01 01:48:12.465, 0.755, 0.003, 0.642, 0, -1.282, 0.549, 0.192, -49.828, 152.485, -19.493, -10.620, -24.087, 29.1, 0.21545, 0.40906, -0.09827, 0.8812,
 13:36:03.134,ed:40:fe:65:30:6c, 2015-01-01 01:48:17.145, 0.867, 0.016, 0.497, 0.244, -0.793, 0.183, 1.95, -60.079, -127.919, -25.033, -10.140, 0.793, 27.5, 0.38779, -0.44299, -0.233, -0.77396,
 13:36:03.134,ed:40:fe:65:30:6c, 2015-01-01 01:48:17.145, 0.871, 0.019, 0.498, 0.183, -1.16, 0.244, 1.945, -60.101, -127.925, -25.033, -10.140, 0.793, 27.5, 0.38779, -0.44299, -0.233, -0.77396,
 13:36:03.155,ed:40:fe:65:30:6c, 2015-01-01 01:48:17.500, 0.874, 0.019, 0.499, 0.183, -1.282, 0.366, 1.939, -60.128, -127.919, -25.033, -10.140, 0.793, 27.5, 0.38779, -0.44299, -0.233, -0.77396,
 13:36:03.155,ed:40:fe:65:30:6c, 2015-01-01 01:48:17.500, 0.873, 0.017, 0.498, 0.244, -1.099, 0.427, 1.934, -60.15, -127.914, -25.033, -10.140, 0.793, 27.5, 0.38779, -0.44299, -0.233, -0.77396,
 13:36:03.157,e3:ca:2d:fd:e0:8c, 2015-01-01 01:48:11.950, 0.985, -0.068, 0.25, 0.061, 0.305, -0.244, -15.386, -75.245, 173.342, -26.473, -10.960, -12.333, 27.69, -0.12677, -0.59824, 0.14084, -0.7785,
 13:36:03.157,e3:ca:2d:fd:e0:8c, 2015-01-01 01:48:11.950, 0.989, -0.069, 0.25, -0.061, 0.183, -0.244, -15.364, -75.24, 173.326, -26.473, -10.960, -12.333, 27.69, -0.12677, -0.59824, 0.14084, -0.7785,
 13:36:03.157,f6:90:cc:01:6d:25, 2015-01-01 01:48:12.325, 0.983, 0.01, 0.04, 0.122, 0.549, -0.366, 15.612, -87.413, 159.769, -31.040, -12.793, -1.640, 31.92, -0.03802, -0.6915, 0.0285, -0.72076,
 13:36:03.157,f6:90:cc:01:6d:25, 2015-01-01 01:48:12.325, 0.986, 0.01, 0.042, 0, 0.671, -0.488, 15.688, -87.402, 159.747, -31.040, -12.793, -1.640, 31.92, -0.03802, -0.6915, 0.0285, -0.72076,
 13:36:03.159,ed:35:33:d3:6c:f8, 2015-01-01 01:48:12.465, 0.76, 0.005, 0.641, -0.366, -1.465, 0.366, 0.181, -49.856, 152.474, -19.493, -10.620, -24.087, 29.1, 0.21545, 0.40906, -0.09827, 0.8812,
 13:36:03.159,ed:35:33:d3:6c:f8, 2015-01-01 01:48:12.465, 0.762, 0.003, 0.641, -0.244, -1.404, 0.061, 0.176, -49.883, 152.479, -19.493, -10.620, -24.087, 29.1, 0.21545, 0.40906, -0.09827, 0.8812,
 13:36:03.179,e3:ca:2d:fd:e0:8c, 2015-01-01 01:48:11.950, 0.99, -0.07, 0.25, 0, 0.244, -0.244, -15.348, -75.24, 173.304, -26.473, -10.960, -12.333, 27.69, -0.1272, -0.59772, 0.1409, -0.77884,
 13:36:03.179,e3:ca:2d:fd:e0:8c, 2015-01-01 01:48:11.950, 0.988, -0.071, 0.25, 0.061, 0.183, -0.244, -15.326, -75.234, 173.282, -26.473, -10.960, -12.333, 27.69, -0.1272, -0.59772, 0.1409, -0.77884,
 13:36:03.201,ed:40:fe:65:30:6c, 2015-01-01 01:48:17.500, 0.87, 0.017, 0.499, 0.183, -0.916, 0.366, 1.923, -60.172, -127.908, -25.033, -10.140, 0.793, 27.5, 0.38779, -0.44299, -0.233, -0.77396,
 13:36:03.201,ed:40:fe:65:30:6c, 2015-01-01 01:48:17.500, 0.867, 0.017, 0.501, 0.244, -0.977, 0.366, 1.917, -60.189, -127.897, -25.033, -10.140, 0.793, 27.5, 0.38779, -0.44299, -0.233, -0.77396,
 13:36:03.203,f6:90:cc:01:6d:25, 2015-01-01 01:48:12.325, 0.988, 0.009, 0.043, 0.122, 0.671, -0.488, 15.793, -87.391, 159.708, -30.713, -12.787, -1.113, 31.92, -0.03802, -0.6915, 0.0285, -0.72076,
 13:36:03.203,f6:90:cc:01:6d:25, 2015-01-01 01:48:12.325, 0.986, 0.009, 0.043, 0.366, 0.671, -0.366, 15.881, -87.374, 159.686, -30.713, -12.787, -1.113, 31.92, -0.03802, -0.6915, 0.0285, -0.72076,
 13:36:03.204,ed:35:33:d3:6c:f8, 2015-01-01 01:48:12.465, 0.76, 0.002, 0.641, -0.244, -1.038, 0.183, 0.165, -49.9, 152.463, -19.493, -10.620, -24.087, 29.1, 0.21545, 0.40906, -0.09827, 0.8812,
 13:36:03.204,ed:35:33:d3:6c:f8, 2015-01-01 01:48:12.465, 0.755, 0.003, 0.643, -0.061, -0.977, 0.122, 0.165, -49.916, 152.43, -19.493, -10.620, -24.087, 29.1, 0.21545, 0.40906, -0.09827, 0.8812,
 13:36:03.226,e3:ca:2d:fd:e0:8c, 2015-01-01 01:48:11.950, 0.986, -0.071, 0.25, 0, 0.244, -0.244, -15.309, -75.234, 173.26, -26.473, -10.960, -12.333, 27.69, -0.1272, -0.59772, 0.1409, -0.77884,
 13:36:03.226,e3:ca:2d:fd:e0:8c, 2015-01-01 01:48:11.950, 0.985, -0.07, 0.251, 0.061, 0.305, -0.305, -15.287, -75.229, 173.232, -26.473, -10.960, -12.333, 27.69, -0.1272, -0.59772, 0.1409, -0.77884,
 13:36:03.246,e3:ca:2d:fd:e0:8c, 2015-01-01 01:48:12.305, 0.986, -0.071, 0.252, 0.061, 0.061, -0.305, -15.266, -75.229, 173.21, -26.473, -10.960, -12.333, 27.69, -0.1272, -0.59772, 0.1409, -0.77884,
 13:36:03.246,e3:ca:2d:fd:e0:8c, 2015-01-01 01:48:12.305, 0.985, -0.07, 0.252, 0.061, 0.061, -0.244, -15.249, -75.229, 173.188, -26.473, -10.960, -12.333, 27.69, -0.1272, -0.59772, 0.1409, -0.77884,
 13:36:03.247,ed:40:fe:65:30:6c, 2015-01-01 01:48:17.500, 0.873, 0.015, 0.499, 0, -1.16, 0.366, 1.906, -60.211, -127.892, -25.033, -10.140, 0.793, 27.5, 0.38779, -0.44299, -0.233, -0.77396,
 13:36:03.247,ed:40:fe:65:30:6c, 2015-01-01 01:48:17.500, 0.871, 0.022, 0.497, -0.183, -1.221, 0.305, 1.895, -60.233, -127.897, -25.033, -10.140, 0.793, 27.5, 0.38779, -0.44299, -0.233, -0.77396,
 13:36:03.248,f6:90:cc:01:6d:25, 2015-01-01 01:48:12.325, 0.983, 0.011, 0.043, 0.061, 0.488, -0.183, 15.914, -87.363, 159.697, -30.713, -12.787, -1.113, 31.92, -0.03802, -0.6915, 0.0285, -0.72076,
 13:36:03.248,f6:90:cc:01:6d:25, 2015-01-01 01:48:12.325, 0.983, 0.011, 0.046, 0, 0.305, -0.122, 15.903, -87.358, 159.736, -30.713, -12.787, -1.113, 31.92, -0.03802, -0.6915, 0.0285, -0.72076,
 13:36:03.249,ed:35:33:d3:6c:f8, 2015-01-01 01:48:12.465, 0.761, 0, 0.642, -0.305, -1.16, 0.122, 0.154, -49.938, 152.397, -19.493, -10.620, -24.087, 29.1, 0.21545, 0.40906, -0.09827, 0.8812,
 13:36:03.249,ed:35:33:d3:6c:f8, 2015-01-01 01:48:12.465, 0.762, 0.005, 0.639, -0.122, -0.854, 0.793, 0.137, -49.955, 152.402, -19.493, -10.620, -24.087, 29.1, 0.21545, 0.40906, -0.09827, 0.8812,
 13:36:03.270,f6:90:cc:01:6d:25, 2015-01-01 01:48:12.325, 0.984, 0.009, 0.046, 0.183, 0.183, -0.122, 15.892, -87.352, 159.785, -30.713, -12.787, -1.113, 31.92, -0.03174, -0.69086, 0.02161, -0.72189,
 13:36:03.270,f6:90:cc:01:6d:25, 2015-01-01 01:48:12.325, 0.984, 0.014, 0.047, 0, 0, 0, 15.875, -87.352, 159.873, -30.713, -12.787, -1.113, 31.92, -0.03174, -0.69086, 0.02161, -0.72189,
 13:36:03.271,ed:35:33:d3:6c:f8, 2015-01-01 01:48:12.465, 0.759, 0.006, 0.638, 0.305, -0.427, 0.305, 0.137, -49.96, 152.419, -19.493, -10.620, -24.087, 29.1, 0.21545, 0.40906, -0.09827, 0.8812,
 13:36:03.271,ed:35:33:d3:6c:f8, 2015-01-01 01:48:12.465, 0.761, 0.001, 0.638, 0.305, -0.183, 0.122, 0.143, -49.96, 152.435, -19.493, -10.620, -24.087, 29.1, 0.21545, 0.40906, -0.09827, 0.8812,
 13:36:03.290,ed:40:fe:65:30:6c, 2015-01-01 01:48:17.500, 0.871, 0.019, 0.496, 0.244, -0.61, 0.366, 1.89, -60.249, -127.897, -25.033, -10.140, 0.793, 27.5, 0.38779, -0.44299, -0.233, -0.77396,
 13:36:03.290,ed:40:fe:65:30:6c, 2015-01-01 01:48:17.500, 0.873, 0.014, 0.496, -0.122, -0.671, 0.305, 1.879, -60.26, -127.903, -25.033, -10.140, 0.793, 27.5, 0.38779, -0.44299, -0.233, -0.77396,
 13:36:03.291,e3:ca:2d:fd:e0:8c, 2015-01-01 01:48:12.305, 0.985, -0.066, 0.252, 0, -0.122, -0.244, -15.238, -75.229, 173.177, -26.473, -10.960, -12.333, 27.69, -0.1272, -0.59772, 0.1409, -0.77884,
 13:36:03.291,e3:ca:2d:fd:e0:8c, 2015-01-01 01:48:12.305, 0.987, -0.068, 0.253, -0.122, -0.183, -0.244, -15.227, -75.234, 173.161, -26.473, -10.960, -12.333, 27.69, -0.1272, -0.59772, 0.1409, -0.77884,
 13:36:03.316,ed:35:33:d3:6c:f8, 2015-01-01 01:48:12.465, 0.761, 0.002, 0.638, -0.122, 0, 0.793, 0.121, -49.96, 152.474, -19.493, -10.620, -24.087, 29.1, 0.21545, 0.40906, -0.09827, 0.8812,
 13:36:03.316,ed:35:33:d3:6c:f8, 2015-01-01 01:48:12.465, 0.762, 0.001, 0.64, 0, 0, 0.122, 0.121, -49.96, 152.507, -19.493, -10.620, -24.087, 29.1, 0.21545, 0.40906, -0.09827, 0.8812,
 13:36:03.336,e3:ca:2d:fd:e0:8c, 2015-01-01 01:48:12.305, 0.987, -0.069, 0.252, -0.122, -0.244, -0.244, -15.222, -75.24, 173.15, -26.473, -10.960, -12.333, 27.69, -0.1272, -0.59772, 0.1409, -0.77884,
 13:36:03.336,e3:ca:2d:fd:e0:8c, 2015-01-01 01:48:12.305, 0.987, -0.067, 0.25, 0, -0.244, -0.244, -15.211, -75.245, 173.139, -26.473, -10.960, -12.333, 27.69, -0.1272, -0.59772, 0.1409, -0.77884,
 13:36:03.337,f6:90:cc:01:6d:25, 2015-01-01 01:48:12.325, 0.983, 0.014, 0.044, -0.61, 0.061, 0.122, 15.82, -87.352, 159.983, -30.713, -12.787, -1.113, 31.92, -0.03174, -0.69086, 0.02161, -0.72189,
 13:36:03.337,f6:90:cc:01:6d:25, 2015-01-01 01:48:12.325, 0.986, 0.01, 0.045, -0.427, 0, 0.183, 15.721, -87.352, 160.115, -30.713, -12.787, -1.113, 31.92, -0.03174, -0.69086, 0.02161, -0.72189,
 13:36:03.357,ed:40:fe:65:30:6c, 2015-01-01 01:48:17.500, 0.873, 0.018, 0.497, -0.183, -0.488, 0.305, 1.868, -60.271, -127.908, -25.033, -10.140, 0.793, 27.5, 0.38779, -0.44299, -0.233, -0.77396,
 13:36:03.357,ed:40:fe:65:30:6c, 2015-01-01 01:48:17.500, 0.873, 0.015, 0.496, -0.305, -0.305, 0.244, 1.857, -60.276, -127.914, -25.033, -10.140, 0.793, 27.5, 0.38779, -0.44299, -0.233, -0.77396,
 13:36:03.360,f6:90:cc:01:6d:25, 2015-01-01 01:48:12.725, 0.985, 0.01, 0.045, -0.061, -0.122, 0.061, 15.656, -87.352, 160.225, -30.713, -12.787, -1.113, 31.92, -0.03174, -0.69086, 0.02161, -0.72189,
 13:36:03.360,f6:90:cc:01:6d:25, 2015-01-01 01:48:12.725, 0.985, 0.013, 0.044, 0, -0.427, 0.061, 15.639, -87.358, 160.296, -30.713, -12.787, -1.113, 31.92, -0.03174, -0.69086, 0.02161, -0.72189,
 13:36:03.362,ed:35:33:d3:6c:f8, 2015-01-01 01:48:12.465, 0.762, 0, 0.637, 0, 0.122, 0.244, 0.115, -49.96, 152.545, -20.113, -10.240, -22.853, 29.1, 0.21545, 0.40906, -0.09827, 0.8812,
 13:36:03.362,ed:35:33:d3:6c:f8, 2015-01-01 01:48:12.465, 0.763, 0.002, 0.637, 0.305, 0.366, 0.244, 0.115, -49.949, 152.556, -20.113, -10.240, -22.853, 29.1, 0.21545, 0.40906, -0.09827, 0.8812,
 13:36:03.381,ed:40:fe:65:30:6c, 2015-01-01 01:48:17.500, 0.875, 0.017, 0.494, -0.183, -0.183, 0.122, 1.846, -60.282, -127.919, -25.453, -10.180, 0.347, 27.5, 0.38779, -0.44299, -0.233, -0.77396,
 13:36:03.381,ed:40:fe:65:30:6c, 2015-01-01 01:48:17.500, 0.875, 0.017, 0.492, 0, -0.061, 0, 1.846, -60.282, -127.936, -25.453, -10.180, 0.347, 27.5, 0.38779, -0.44299, -0.233, -0.77396,
 13:36:03.383,f6:90:cc:01:6d:25, 2015-01-01 01:48:12.725, 0.985, 0.014, 0.043, -0.244, -0.488, 0.122, 15.639, -87.369, 160.345, -30.713, -12.787, -1.113, 31.92, -0.03174, -0.69086, 0.02161, -0.72189,
 13:36:03.383,f6:90:cc:01:6d:25, 2015-01-01 01:48:12.725, 0.986, 0.013, 0.042, -0.183, -0.61, 0.183, 15.634, -87.38, 160.411, -30.713, -12.787, -1.113, 31.92, -0.03174, -0.69086, 0.02161, -0.72189,
 13:36:03.405,f6:90:cc:01:6d:25, 2015-01-01 01:48:12.725, 0.985, 0.011, 0.042, -0.061, -0.488, 0.183, 15.612, -87.391, 160.499, -30.713, -12.787, -1.113, 31.92, -0.03174, -0.69086, 0.02161, -0.72189,
 13:36:03.405,f6:90:cc:01:6d:25, 2015-01-01 01:48:12.725, 0.985, 0.01, 0.041, -0.183, -0.366, 0.183, 15.579, -87.396, 160.609, -30.713, -12.787, -1.113, 31.92, -0.03174, -0.69086, 0.02161, -0.72189,
 13:36:03.406,ed:35:33:d3:6c:f8, 2015-01-01 01:48:12.465, 0.762, 0.002, 0.636, 0.488, 0.488, 0.122, 0.126, -49.944, 152.562, -20.113, -10.240, -22.853, 29.1, 0.21448, 0.41037, -0.09912, 0.88071,
 13:36:03.406,ed:35:33:d3:6c:f8, 2015-01-01 01:48:12.465, 0.762, 0.003, 0.637, 0.366, 0.61, 0.122, 0.132, -49.933, 152.567, -20.113, -10.240, -22.853, 29.1, 0.21448, 0.41037, -0.09912, 0.88071,
 13:36:03.426,e3:ca:2d:fd:e0:8c, 2015-01-01 01:48:12.305, 0.987, -0.066, 0.251, -0.061, -0.305, -0.183, -15.2, -75.251, 173.134, -26.473, -10.960, -12.333, 27.69, -0.1272, -0.59772, 0.1409, -0.77884,
 13:36:03.426,e3:ca:2d:fd:e0:8c, 2015-01-01 01:48:12.305, 0.986, -0.067, 0.25, -0.061, -0.244, -0.061, -15.2, -75.256, 173.134, -26.473, -10.960, -12.333, 27.69, -0.1272, -0.59772, 0.1409, -0.77884,
 13:36:03.448,ed:40:fe:65:30:6c, 2015-01-01 01:48:17.500, 0.874, 0.017, 0.492, 0, 0.061, 0, 1.851, -60.287, -127.936, -25.453, -10.180, 0.347, 27.5, 0.38779, -0.44299, -0.233, -0.77396,
 13:36:03.448,ed:40:fe:65:30:6c, 2015-01-01 01:48:17.500, 0.873, 0.017, 0.493, 0.061, 0.061, 0, 1.851, -60.287, -127.947, -25.453, -10.180, 0.347, 27.5, 0.38779, -0.44299, -0.233, -0.77396,
 13:36:03.450,e3:ca:2d:fd:e0:8c, 2015-01-01 01:48:12.305, 0.988, -0.068, 0.25, 0, -0.305, -0.061, -15.205, -75.262, 173.134, -26.473, -10.960, -12.333, 27.69, -0.1272, -0.59772, 0.1409, -0.77884,
 13:36:03.450,e3:ca:2d:fd:e0:8c, 2015-01-01 01:48:12.305, 0.989, -0.068, 0.25, 0, -0.305, -0.061, -15.205, -75.267, 173.139, -26.473, -10.960, -12.333, 27.69, -0.1272, -0.59772, 0.1409, -0.77884,
 13:36:03.452,ed:35:33:d3:6c:f8, 2015-01-01 01:48:12.800, 0.761, 0.002, 0.638, 0.244, 0.61, 0.061, 0.137, -49.922, 152.551, -20.113, -10.240, -22.853, 29.1, 0.21448, 0.41037, -0.09912, 0.88071,
 13:36:03.452,ed:35:33:d3:6c:f8, 2015-01-01 01:48:12.800, 0.761, 0.003, 0.638, 0.061, 0.61, 0.183, 0.132, -49.911, 152.551, -20.113, -10.240, -22.853, 29.1, 0.21448, 0.41037, -0.09912, 0.88071,
 13:36:03.470,ed:40:fe:65:30:6c, 2015-01-01 01:48:17.500, 0.873, 0.016, 0.494, -0.122, 0.122, 0, 1.851, -60.287, -127.958, -25.453, -10.180, 0.347, 27.5, 0.38663, -0.44504, -0.23285, -0.77341,
 13:36:03.470,ed:40:fe:65:30:6c, 2015-01-01 01:48:17.500, 0.874, 0.016, 0.493, -0.183, 0, 0.061, 1.846, -60.287, -127.963, -25.453, -10.180, 0.347, 27.5, 0.38663, -0.44504, -0.23285, -0.77341,
 13:36:03.470,e3:ca:2d:fd:e0:8c, 2015-01-01 01:48:12.305, 0.99, -0.069, 0.249, 0.061, -0.305, -0.061, -15.205, -75.273, 173.139, -26.473, -10.960, -12.333, 27.69, -0.1272, -0.59772, 0.1409, -0.77884,
 13:36:03.470,e3:ca:2d:fd:e0:8c, 2015-01-01 01:48:12.305, 0.989, -0.07, 0.249, 0, -0.183, 0, -15.211, -75.278, 173.145, -26.473, -10.960, -12.333, 27.69, -0.1272, -0.59772, 0.1409, -0.77884,
 13:36:03.472,f6:90:cc:01:6d:25, 2015-01-01 01:48:12.725, 0.986, 0.01, 0.04, -0.061, -0.305, 0.061, 15.562, -87.407, 160.67, -30.713, -12.787, -1.113, 31.92, -0.03174, -0.69086, 0.02161, -0.72189,
 13:36:03.472,f6:90:cc:01:6d:25, 2015-01-01 01:48:12.725, 0.986, 0.009, 0.038, -0.122, -0.244, 0.122, 15.546, -87.413, 160.714, -30.713, -12.787, -1.113, 31.92, -0.03174, -0.69086, 0.02161, -0.72189,
 13:36:03.473,ed:35:33:d3:6c:f8, 2015-01-01 01:48:12.800, 0.761, 0.001, 0.639, 0.061, 0.488, 0.183, 0.132, -49.9, 152.573, -20.113, -10.240, -22.853, 29.1, 0.21448, 0.41037, -0.09912, 0.88071,
 13:36:03.473,ed:35:33:d3:6c:f8, 2015-01-01 01:48:12.800, 0.759, 0, 0.639, 0.183, 0.366, 0.305, 0.126, -49.894, 152.595, -20.113, -10.240, -22.853, 29.1, 0.21448, 0.41037, -0.09912, 0.88071,
 13:36:03.516,e3:ca:2d:fd:e0:8c, 2015-01-01 01:48:12.305, 0.989, -0.071, 0.248, 0.122, -0.122, -0.061, -15.211, -75.278, 173.145, -26.473, -10.960, -12.333, 27.69, -0.1272, -0.59772, 0.1409, -0.77884,
 13:36:03.518,e3:ca:2d:fd:e0:8c, 2015-01-01 01:48:12.305, 0.989, -0.07, 0.247, 0.183, 0, -0.061, -15.205, -75.278, 173.145, -26.473, -10.960, -12.333, 27.69, -0.1272, -0.59772, 0.1409, -0.77884,
 13:36:03.519,ed:35:33:d3:6c:f8, 2015-01-01 01:48:12.800, 0.761, 0, 0.64, 0.183, 0.183, 0.183, 0.126, -49.894, 152.606, -20.113, -10.240, -22.853, 29.1, 0.21448, 0.41037, -0.09912, 0.88071,
 13:36:03.519,ed:35:33:d3:6c:f8, 2015-01-01 01:48:12.800, 0.759, -0.001, 0.641, 0, 0.183, 0.183, 0.121, -49.889, 152.617, -20.113, -10.240, -22.853, 29.1, 0.21448, 0.41037, -0.09912, 0.88071,
 13:36:03.519,f6:90:cc:01:6d:25, 2015-01-01 01:48:12.725, 0.986, 0.009, 0.039, -0.244, -0.122, 0.183, 15.491, -87.418, 160.768, -30.713, -12.787, -1.113, 31.92, -0.03174, -0.69086, 0.02161, -0.72189,
 13:36:03.519,f6:90:cc:01:6d:25, 2015-01-01 01:48:12.725, 0.986, 0.008, 0.039, 0, -0.061, 0.183, 15.408, -87.418, 160.867, -30.713, -12.787, -1.113, 31.92, -0.03174, -0.69086, 0.02161, -0.72189,
 13:36:03.537,ed:40:fe:65:30:6c, 2015-01-01 01:48:17.500, 0.872, 0.015, 0.493, 0, 0, 0.122, 1.846, -60.287, -127.952, -25.453, -10.180, 0.347, 27.5, 0.38663, -0.44504, -0.23285, -0.77341,
 13:36:03.537,ed:40:fe:65:30:6c, 2015-01-01 01:48:17.500, 0.873, 0.014, 0.493, 0.183, 0, 0.244, 1.84, -60.293, -127.941, -25.453, -10.180, 0.347, 27.5, 0.38663, -0.44504, -0.23285, -0.77341,
 13:36:03.539,e3:ca:2d:fd:e0:8c, 2015-01-01 01:48:12.305, 0.989, -0.07, 0.248, 0.122, 0.061, -0.122, -15.194, -75.278, 173.134, -26.607, -10.873, -11.807, 27.69, -0.1272, -0.59772, 0.1409, -0.77884,
 13:36:03.539,e3:ca:2d:fd:e0:8c, 2015-01-01 01:48:12.305, 0.987, -0.071, 0.249, 0.122, 0.122, -0.183, -15.183, -75.278, 173.117, -26.607, -10.873, -11.807, 27.69, -0.1272, -0.59772, 0.1409, -0.77884,
 13:36:03.540,f6:90:cc:01:6d:25, 2015-01-01 01:48:12.725, 0.986, 0.007, 0.039, 0.305, -0.122, 0.244, 15.315, -87.424, 160.988, -30.713, -12.787, -1.113, 31.92, -0.03174, -0.69086, 0.02161, -0.72189,
 13:36:03.540,f6:90:cc:01:6d:25, 2015-01-01 01:48:12.725, 0.985, 0.007, 0.041, 0.366, -0.366, 0.244, 15.227, -87.435, 161.115, -30.713, -12.787, -1.113, 31.92, -0.03174, -0.69086, 0.02161, -0.72189,
 13:36:03.560,ed:40:fe:65:30:6c, 2015-01-01 01:48:17.880, 0.872, 0.013, 0.495, 0.244, -0.183, 0.244, 1.835, -60.298, -127.93, -25.453, -10.180, 0.347, 27.5, 0.38663, -0.44504, -0.23285, -0.77341,
 13:36:03.560,ed:40:fe:65:30:6c, 2015-01-01 01:48:17.880, 0.874, 0.013, 0.496, 0, -0.244, 0.122, 1.829, -60.304, -127.947, -25.453, -10.180, 0.347, 27.5, 0.38663, -0.44504, -0.23285, -0.77341,
 13:36:03.563,ed:35:33:d3:6c:f8, 2015-01-01 01:48:12.800, 0.761, 0, 0.641, -0.061, 0.244, 0.244, 0.115, -49.889, 152.65, -20.113, -10.240, -22.853, 29.1, 0.21448, 0.41037, -0.09912, 0.88071,
 13:36:03.563,ed:35:33:d3:6c:f8, 2015-01-01 01:48:12.800, 0.759, 0, 0.641, 0, 0.305, 0.061, 0.115, -49.883, 152.682, -20.113, -10.240, -22.853, 29.1, 0.21448, 0.41037, -0.09912, 0.88071,
 13:36:03.582,ed:40:fe:65:30:6c, 2015-01-01 01:48:17.880, 0.874, 0.015, 0.495, 0, -0.366, 0.061, 1.829, -60.309, -127.958, -25.453, -10.180, 0.347, 27.5, 0.38663, -0.44504, -0.23285, -0.77341,
 13:36:03.582,ed:40:fe:65:30:6c, 2015-01-01 01:48:17.880, 0.872, 0.014, 0.495, 0.366, 0, 0.122, 1.829, -60.315, -127.963, -25.453, -10.180, 0.347, 27.5, 0.38663, -0.44504, -0.23285, -0.77341,
 13:36:03.584,e3:ca:2d:fd:e0:8c, 2015-01-01 01:48:12.305, 0.988, -0.071, 0.248, 0.305, 0.122, -0.122, -15.172, -75.278, 173.106, -26.607, -10.873, -11.807, 27.69, -0.1272, -0.59772, 0.1409, -0.77884,
 13:36:03.584,e3:ca:2d:fd:e0:8c, 2015-01-01 01:48:12.305, 0.987, -0.068, 0.25, 0.305, 0, -0.122, -15.161, -75.278, 173.101, -26.607, -10.873, -11.807, 27.69, -0.1272, -0.59772, 0.1409, -0.77884,
 13:36:03.584,f6:90:cc:01:6d:25, 2015-01-01 01:48:12.725, 0.987, 0.009, 0.041, 0.916, -0.488, 0.244, 15.156, -87.446, 161.241, -30.713, -12.787, -1.113, 31.92, -0.03174, -0.69086, 0.02161, -0.72189,
 13:36:03.584,f6:90:cc:01:6d:25, 2015-01-01 01:48:12.725, 0.984, 0.009, 0.041, 0.244, -0.366, 0.305, 15.079, -87.457, 161.378, -30.713, -12.787, -1.113, 31.92, -0.03174, -0.69086, 0.02161, -0.72189,
 13:36:03.606,e3:ca:2d:fd:e0:8c, 2015-01-01 01:48:12.305, 0.988, -0.068, 0.25, 0.122, 0.061, -0.183, -15.15, -75.278, 173.09, -26.607, -10.873, -11.807, 27.69, -0.12766, -0.59796, 0.14069, -0.77863,
 13:36:03.606,e3:ca:2d:fd:e0:8c, 2015-01-01 01:48:12.305, 0.987, -0.068, 0.251, 0.122, 0.061, -0.183, -15.139, -75.278, 173.073, -26.607, -10.873, -11.807, 27.69, -0.12766, -0.59796, 0.14069, -0.77863,
 13:36:03.606,ed:40:fe:65:30:6c, 2015-01-01 01:48:17.880, 0.872, 0.01, 0.491, 0.183, 0, 0.305, 1.818, -60.315, -127.958, -25.453, -10.180, 0.347, 27.5, 0.38663, -0.44504, -0.23285, -0.77341,
 13:36:03.606,ed:40:fe:65:30:6c, 2015-01-01 01:48:17.880, 0.874, 0.017, 0.493, 0.244, 0, 0.305, 1.813, -60.32, -127.952, -25.453, -10.180, 0.347, 27.5, 0.38663, -0.44504, -0.23285, -0.77341,
 13:36:03.607,f6:90:cc:01:6d:25, 2015-01-01 01:48:12.725, 0.985, 0.005, 0.04, 0.305, -0.305, 0.061, 15.013, -87.462, 161.483, -30.613, -12.560, -1.493, 31.92, -0.03174, -0.69086, 0.02161, -0.72189,
 13:36:03.607,f6:90:cc:01:6d:25, 2015-01-01 01:48:12.725, 0.986, 0.011, 0.041, 0.305, -0.061, 0, 14.996, -87.468, 161.543, -30.613, -12.560, -1.493, 31.92, -0.03174, -0.69086, 0.02161, -0.72189,
 13:36:03.609,ed:35:33:d3:6c:f8, 2015-01-01 01:48:12.800, 0.759, -0.002, 0.639, 0.122, 0.061, 0.122, 0.115, -49.878, 152.715, -20.113, -10.240, -22.853, 29.1, 0.21448, 0.41037, -0.09912, 0.88071,
 13:36:03.609,ed:35:33:d3:6c:f8, 2015-01-01 01:48:12.800, 0.76, 0, 0.636, 0.122, 0, 0.549, 0.099, -49.883, 152.748, -20.113, -10.240, -22.853, 29.1, 0.21448, 0.41037, -0.09912, 0.88071,
 13:36:03.650,ed:40:fe:65:30:6c, 2015-01-01 01:48:17.880, 0.875, 0.016, 0.494, 0.366, 0.183, 0.183, 1.813, -60.315, -127.952, -25.453, -10.180, 0.347, 27.5, 0.38663, -0.44504, -0.23285, -0.77341,
 13:36:03.650,ed:40:fe:65:30:6c, 2015-01-01 01:48:17.880, 0.874, 0.019, 0.495, 0.244, 0.244, 0.183, 1.807, -60.315, -127.952, -25.453, -10.180, 0.347, 27.5, 0.38663, -0.44504, -0.23285, -0.77341,
 13:36:03.652,e3:ca:2d:fd:e0:8c, 2015-01-01 01:48:12.305, 0.988, -0.068, 0.252, 0.122, 0, -0.183, -15.128, -75.284, 173.062, -26.607, -10.873, -11.807, 27.69, -0.12766, -0.59796, 0.14069, -0.77863,
 13:36:03.652,e3:ca:2d:fd:e0:8c, 2015-01-01 01:48:12.305, 0.989, -0.068, 0.252, 0.061, 0.061, -0.244, -15.112, -75.278, 173.04, -26.607, -10.873, -11.807, 27.69, -0.12766, -0.59796, 0.14069, -0.77863,
 13:36:03.652,f6:90:cc:01:6d:25, 2015-01-01 01:48:12.725, 0.988, 0.01, 0.042, 0.427, 0, 0.061, 14.958, -87.473, 161.631, -30.613, -12.560, -1.493, 31.92, -0.03174, -0.69086, 0.02161, -0.72189,
 13:36:03.652,f6:90:cc:01:6d:25, 2015-01-01 01:48:12.725, 0.989, 0.008, 0.042, 0.427, -0.061, 0.061, 14.914, -87.473, 161.719, -30.613, -12.560, -1.493, 31.92, -0.03174, -0.69086, 0.02161, -0.72189,
 13:36:03.654,ed:35:33:d3:6c:f8, 2015-01-01 01:48:12.800, 0.762, 0.002, 0.639, 0.305, 0.183, 0.122, 0.104, -49.878, 152.759, -19.727, -10.933, -23.407, 29.1, 0.21448, 0.41037, -0.09912, 0.88071,
 13:36:03.654,ed:35:33:d3:6c:f8, 2015-01-01 01:48:12.800, 0.761, 0.003, 0.642, 0, 0.305, 0.183, 0.099, -49.872, 152.759, -19.727, -10.933, -23.407, 29.1, 0.21448, 0.41037, -0.09912, 0.88071,
 13:36:03.677,f6:90:cc:01:6d:25, 2015-01-01 01:48:12.725, 0.985, 0.009, 0.039, 0.122, 0, 0, 14.886, -87.473, 161.79, -30.613, -12.560, -1.493, 31.92, -0.02515, -0.69168, 0.01627, -0.72153,
 13:36:03.677,f6:90:cc:01:6d:25, 2015-01-01 01:48:12.725, 0.985, 0.009, 0.04, 0.183, 0, -0.061, 14.881, -87.473, 161.834, -30.613, -12.560, -1.493, 31.92, -0.02515, -0.69168, 0.01627, -0.72153,
 13:36:03.696,ed:40:fe:65:30:6c, 2015-01-01 01:48:17.880, 0.872, 0.014, 0.495, 0.427, 0.427, 0.366, 1.807, -60.309, -127.947, -25.453, -10.180, 0.347, 27.5, 0.38663, -0.44504, -0.23285, -0.77341,
 13:36:03.696,ed:40:fe:65:30:6c, 2015-01-01 01:48:17.880, 0.872, 0.012, 0.495, 0.427, 0.305, 0.488, 1.796, -60.304, -127.941, -25.453, -10.180, 0.347, 27.5, 0.38663, -0.44504, -0.23285, -0.77341,
 13:36:03.696,e3:ca:2d:fd:e0:8c, 2015-01-01 01:48:12.730, 0.988, -0.067, 0.25, 0, 0, -0.244, -15.095, -75.284, 173.024, -26.607, -10.873, -11.807, 27.69, -0.12766, -0.59796, 0.14069, -0.77863,
 13:36:03.696,e3:ca:2d:fd:e0:8c, 2015-01-01 01:48:12.730, 0.988, -0.067, 0.25, 0, 0.122, -0.244, -15.079, -75.278, 173.007, -26.607, -10.873, -11.807, 27.69, -0.12766, -0.59796, 0.14069, -0.77863,
 13:36:03.719,f6:90:cc:01:6d:25, 2015-01-01 01:48:12.725, 0.983, 0.009, 0.04, 0.427, 0.061, -0.183, 14.919, -87.473, 161.84, -30.613, -12.560, -1.493, 31.92, -0.02515, -0.69168, 0.01627, -0.72153,
 13:36:03.719,f6:90:cc:01:6d:25, 2015-01-01 01:48:12.725, 0.984, 0.012, 0.04, 0.305, 0, -0.183, 14.985, -87.473, 161.823, -30.613, -12.560, -1.493, 31.92, -0.02515, -0.69168, 0.01627, -0.72153,
 13:36:03.721,ed:35:33:d3:6c:f8, 2015-01-01 01:48:12.800, 0.759, 0.003, 0.642, 0, 0.305, 0, 0.099, -49.867, 152.737, -19.727, -10.933, -23.407, 29.1, 0.21329, 0.40988, -0.09854, 0.88129,
 13:36:03.721,ed:35:33:d3:6c:f8, 2015-01-01 01:48:12.800, 0.759, -0.001, 0.643, 0, 0.061, 0.122, 0.099, -49.867, 152.726, -19.727, -10.933, -23.407, 29.1, 0.21329, 0.40988, -0.09854, 0.88129,
 13:36:03.721,ed:35:33:d3:6c:f8, 2015-01-01 01:48:12.800, 0.759, -0.002, 0.641, 0, -0.122, 0.244, 0.088, -49.867, 152.704, -19.727, -10.933, -23.407, 29.1, 0.21329, 0.40988, -0.09854, 0.88129,
 13:36:03.721,ed:35:33:d3:6c:f8, 2015-01-01 01:48:12.800, 0.757, -0.002, 0.641, 0, -0.183, 0.183, 0.082, -49.872, 152.682, -19.727, -10.933, -23.407, 29.1, 0.21329, 0.40988, -0.09854, 0.88129,
 13:36:03.740,ed:40:fe:65:30:6c, 2015-01-01 01:48:17.880, 0.871, 0.013, 0.495, 0.244, 0.122, 0.305, 1.791, -60.304, -127.941, -25.453, -10.180, 0.347, 27.5, 0.38663, -0.44504, -0.23285, -0.77341,
 13:36:03.740,ed:40:fe:65:30:6c, 2015-01-01 01:48:17.880, 0.87, 0.015, 0.495, 0, -0.061, 0.061, 1.785, -60.309, -127.952, -25.453, -10.180, 0.347, 27.5, 0.38663, -0.44504, -0.23285, -0.77341,
 13:36:03.742,e3:ca:2d:fd:e0:8c, 2015-01-01 01:48:12.730, 0.987, -0.067, 0.25, 0.122, 0.122, -0.183, -15.062, -75.278, 172.991, -26.607, -10.873, -11.807, 27.69, -0.12766, -0.59796, 0.14069, -0.77863,
 13:36:03.742,e3:ca:2d:fd:e0:8c, 2015-01-01 01:48:12.730, 0.987, -0.067, 0.249, 0.122, 0.122, -0.183, -15.046, -75.278, 172.974, -26.607, -10.873, -11.807, 27.69, -0.12766, -0.59796, 0.14069, -0.77863,
 13:36:03.762,ed:40:fe:65:30:6c, 2015-01-01 01:48:17.880, 0.872, 0.017, 0.495, -0.061, -0.244, -0.061, 1.785, -60.315, -127.969, -25.360, -10.327, 0.327, 27.5, 0.38663, -0.44504, -0.23285, -0.77341,
 13:36:03.762,ed:40:fe:65:30:6c, 2015-01-01 01:48:17.880, 0.872, 0.016, 0.493, -0.183, -0.305, -0.122, 1.785, -60.32, -127.98, -25.360, -10.327, 0.327, 27.5, 0.38663, -0.44504, -0.23285, -0.77341,
 13:36:03.763,e3:ca:2d:fd:e0:8c, 2015-01-01 01:48:12.730, 0.988, -0.067, 0.249, 0.061, 0, 0, -15.046, -75.278, 172.974, -26.607, -10.873, -11.807, 27.69, -0.12766, -0.59796, 0.14069, -0.77863,
 13:36:03.763,e3:ca:2d:fd:e0:8c, 2015-01-01 01:48:12.730, 0.987, -0.067, 0.249, 0.061, 0, 0, -15.046, -75.278, 172.98, -26.607, -10.873, -11.807, 27.69, -0.12766, -0.59796, 0.14069, -0.77863,
 13:36:03.765,f6:90:cc:01:6d:25, 2015-01-01 01:48:13.130, 0.984, 0.011, 0.041, 0, -0.061, -0.122, 15.035, -87.479, 161.823, -30.613, -12.560, -1.493, 31.92, -0.02515, -0.69168, 0.01627, -0.72153,
 13:36:03.765,f6:90:cc:01:6d:25, 2015-01-01 01:48:13.130, 0.985, 0.01, 0.042, -0.061, -0.122, -0.061, 15.062, -87.479, 161.84, -30.613, -12.560, -1.493, 31.92, -0.02515, -0.69168, 0.01627, -0.72153,
 13:36:03.767,ed:35:33:d3:6c:f8, 2015-01-01 01:48:12.800, 0.758, 0.001, 0.641, 0, -0.183, 0.061, 0.082, -49.878, 152.661, -19.727, -10.933, -23.407, 29.1, 0.21329, 0.40988, -0.09854, 0.88129,
 13:36:03.767,ed:35:33:d3:6c:f8, 2015-01-01 01:48:12.800, 0.758, 0.001, 0.64, -0.061, -0.122, -0.061, 0.082, -49.878, 152.65, -19.727, -10.933, -23.407, 29.1, 0.21329, 0.40988, -0.09854, 0.88129,
 13:36:03.808,e3:ca:2d:fd:e0:8c, 2015-01-01 01:48:12.730, 0.987, -0.069, 0.25, 0.061, -0.061, 0, -15.051, -75.278, 172.98, -26.607, -10.873, -11.807, 27.69, -0.12766, -0.59796, 0.14069, -0.77863,
 13:36:03.808,e3:ca:2d:fd:e0:8c, 2015-01-01 01:48:12.730, 0.989, -0.069, 0.25, 0.061, -0.061, 0, -15.051, -75.278, 172.985, -26.607, -10.873, -11.807, 27.69, -0.12766, -0.59796, 0.14069, -0.77863,
 13:36:03.810,ed:35:33:d3:6c:f8, 2015-01-01 01:48:13.135, 0.759, 0.002, 0.639, -0.244, 0, -0.122, 0.082, -49.878, 152.644, -19.727, -10.933, -23.407, 29.1, 0.21329, 0.40988, -0.09854, 0.88129,
 13:36:03.810,ed:35:33:d3:6c:f8, 2015-01-01 01:48:13.135, 0.762, 0.002, 0.64, -0.183, 0, -0.244, 0.082, -49.878, 152.633, -19.727, -10.933, -23.407, 29.1, 0.21329, 0.40988, -0.09854, 0.88129,
 13:36:03.830,ed:40:fe:65:30:6c, 2015-01-01 01:48:17.880, 0.874, 0.016, 0.495, -0.427, -0.305, -0.244, 1.785, -60.326, -127.985, -25.360, -10.327, 0.327, 27.5, 0.38663, -0.44504, -0.23285, -0.77341,
 13:36:03.830,ed:40:fe:65:30:6c, 2015-01-01 01:48:17.880, 0.875, 0.016, 0.494, -0.122, -0.244, -0.122, 1.791, -60.331, -128.002, -25.360, -10.327, 0.327, 27.5, 0.38663, -0.44504, -0.23285, -0.77341,
 13:36:03.831,f6:90:cc:01:6d:25, 2015-01-01 01:48:13.130, 0.986, 0.009, 0.04, 0.122, -0.122, -0.061, 15.09, -87.484, 161.856, -30.613, -12.560, -1.493, 31.92, -0.02515, -0.69168, 0.01627, -0.72153,
 13:36:03.831,f6:90:cc:01:6d:25, 2015-01-01 01:48:13.130, 0.988, 0.009, 0.04, 0, -0.122, 0, 15.095, -87.484, 161.9, -30.613, -12.560, -1.493, 31.92, -0.02515, -0.69168, 0.01627, -0.72153,
 13:36:03.852,ed:40:fe:65:30:6c, 2015-01-01 01:48:17.880, 0.874, 0.014, 0.494, 0.061, -0.122, 0.061, 1.785, -60.337, -128.007, -25.360, -10.327, 0.327, 27.5, 0.38602, -0.44565, -0.23239, -0.7735,
 13:36:03.852,ed:40:fe:65:30:6c, 2015-01-01 01:48:17.880, 0.875, 0.013, 0.494, 0.244, -0.061, 0.122, 1.785, -60.342, -128.007, -25.360, -10.327, 0.327, 27.5, 0.38602, -0.44565, -0.23239, -0.7735,
 13:36:03.854,f6:90:cc:01:6d:25, 2015-01-01 01:48:13.130, 0.987, 0.008, 0.04, 0, 0, 0, 15.079, -87.49, 161.955, -30.613, -12.560, -1.493, 31.92, -0.02515, -0.69168, 0.01627, -0.72153,
 13:36:03.854,f6:90:cc:01:6d:25, 2015-01-01 01:48:13.130, 0.986, 0.008, 0.04, 0.366, 0.061, 0, 15.051, -87.49, 162.021, -30.613, -12.560, -1.493, 31.92, -0.02515, -0.69168, 0.01627, -0.72153,
