Index,L5_Acceleration X(g),L5_Acceleration Y(g),L5_Acceleration Z(g),L5_Angular velocity X(°/s),L5_Angular velocity Y(°/s),L5_Angular velocity Z(°/s),L5_Angle X(°),L5_Angle Y(°),L5_Angle Z(°),L5_Magnetic field X(ʯt),L5_Magnetic field Y(ʯt),L5_Magnetic field Z(ʯt),L5_Temperature(℃),L5_Quaternions 0(),L5_Quaternions 1(),L5_Quaternions 2(),L5_Quaternions 3(),L5___orig_idx,T4_Acceleration X(g),T4_Acceleration Y(g),T4_Acceleration Z(g),T4_Angular velocity X(°/s),T4_Angular velocity Y(°/s),T4_Angular velocity Z(°/s),T4_Angle X(°),T4_Angle Y(°),T4_Angle Z(°),T4_Magnetic field X(ʯt),T4_Magnetic field Y(ʯt),T4_Magnetic field Z(ʯt),T4_Temperature(℃),T4_Quaternions 0(),T4_Quaternions 1(),T4_Quaternions 2(),T4_Quaternions 3(),T4___orig_idx,C7_Acceleration X(g),C7_Acceleration Y(g),C7_Acceleration Z(g),C7_Angular velocity X(°/s),C7_Angular velocity Y(°/s),C7_Angular velocity Z(°/s),C7_Angle X(°),C7_Angle Y(°),C7_Angle Z(°),C7_Magnetic field X(ʯt),C7_Magnetic field Y(ʯt),C7_Magnetic field Z(ʯt),C7_Temperature(℃),C7_Quaternions 0(),C7_Quaternions 1(),C7_Quaternions 2(),C7_Quaternions 3(),C7___orig_idx,T12_Acceleration X(g),T12_Acceleration Y(g),T12_Acceleration Z(g),T12_Angular velocity X(°/s),T12_Angular velocity Y(°/s),T12_Angular velocity Z(°/s),T12_Angle X(°),T12_Angle Y(°),T12_Angle Z(°),T12_Magnetic field X(ʯt),T12_Magnetic field Y(ʯt),T12_Magnetic field Z(ʯt),T12_Temperature(℃),T12_Quaternions 0(),T12_Quaternions 1(),T12_Quaternions 2(),T12_Quaternions 3(),T12___orig_idx
0,0.929,0.005,-0.408,9.521,0.854,-4.272,-179.072,-66.121,-36.92,-23.94,-12.267,0.0,29.24,-0.16675,-0.79608,0.26193,-0.51935,0,0.918,-0.023,0.432,3.601,3.052,5.615,-5.565,-63.929,-119.427,-26.14,-10.113,3.987,27.68,-0.39539,0.47986,0.23141,0.74814,6,0.934,-0.027,0.354,4.822,-0.122,3.296,-7.048,-68.571,154.655,-24.233,-10.12,-17.327,26.6,0.23181,0.53653,-0.1752,0.79221,12,0.914,-0.102,-0.356,9.155,-0.183,-3.479,-161.153,-67.527,-30.773,-30.247,-10.48,7.933,31.52,-0.01529,-0.81464,0.13141,-0.56458,30
1,0.929,0.01,-0.409,8.484,0.793,-4.028,-179.083,-66.138,-36.705,-23.94,-12.267,0.0,29.24,-0.16675,-0.79608,0.26193,-0.51935,1,0.909,-0.026,0.433,3.601,1.587,5.615,-5.696,-63.885,-119.191,-26.14,-10.113,3.987,27.68,-0.39539,0.47986,0.23141,0.74814,7,0.92,-0.031,0.362,4.639,1.343,5.005,-7.147,-68.555,154.841,-24.233,-10.12,-17.327,26.6,0.23181,0.53653,-0.1752,0.79221,13,0.914,-0.096,-0.356,8.057,-0.061,-3.113,-161.153,-67.549,-30.602,-30.247,-10.48,7.933,31.52,-0.01529,-0.81464,0.13141,-0.56458,31
2,0.929,0.014,-0.411,7.202,0.549,-3.601,-179.105,-66.149,-36.508,-23.94,-12.267,0.0,29.24,-0.16675,-0.79608,0.26193,-0.51935,2,0.918,-0.032,0.439,3.906,0.122,5.737,-5.834,-63.875,-118.949,-26.14,-10.113,3.987,27.68,-0.39539,0.47986,0.23141,0.74814,8,0.934,-0.036,0.365,4.517,1.16,5.127,-7.284,-68.522,155.056,-24.233,-10.12,-17.327,26.6,0.23181,0.53653,-0.1752,0.79221,14,0.914,-0.094,-0.356,6.958,0.0,-2.808,-161.164,-67.566,-30.454,-30.247,-10.48,7.933,31.52,-0.01529,-0.81464,0.13141,-0.56458,32
3,0.929,0.01,-0.409,8.484,0.793,-4.028,-179.083,-66.138,-36.705,-23.94,-12.267,0.0,29.24,-0.16675,-0.79608,0.26193,-0.51935,3,0.909,-0.026,0.433,3.601,1.587,5.615,-5.696,-63.885,-119.191,-26.14,-10.113,3.987,27.68,-0.39539,0.47986,0.23141,0.74814,9,0.92,-0.031,0.362,4.639,1.343,5.005,-7.147,-68.555,154.841,-24.233,-10.12,-17.327,26.6,0.23181,0.53653,-0.1752,0.79221,15,0.914,-0.096,-0.356,8.057,-0.061,-3.113,-161.153,-67.549,-30.602,-30.247,-10.48,7.933,31.52,-0.01529,-0.81464,0.13141,-0.56458,33
4,0.929,0.014,-0.411,7.202,0.549,-3.601,-179.105,-66.149,-36.508,-23.94,-12.267,0.0,29.24,-0.16675,-0.79608,0.26193,-0.51935,4,0.918,-0.032,0.439,3.906,0.122,5.737,-5.834,-63.875,-118.949,-26.14,-10.113,3.987,27.68,-0.39539,0.47986,0.23141,0.74814,10,0.934,-0.036,0.365,4.517,1.16,5.127,-7.284,-68.522,155.056,-24.233,-10.12,-17.327,26.6,0.23181,0.53653,-0.1752,0.79221,16,0.914,-0.094,-0.356,6.958,0.0,-2.808,-161.164,-67.566,-30.454,-30.247,-10.48,7.933,31.52,-0.01529,-0.81464,0.13141,-0.56458,34
5,0.929,0.01,-0.409,8.484,0.793,-4.028,-179.083,-66.138,-36.705,-23.94,-12.267,0.0,29.24,-0.16675,-0.79608,0.26193,-0.51935,5,0.909,-0.026,0.433,3.601,1.587,5.615,-5.696,-63.885,-119.191,-26.14,-10.113,3.987,27.68,-0.39539,0.47986,0.23141,0.74814,11,0.92,-0.031,0.362,4.639,1.343,5.005,-7.147,-68.555,154.841,-24.233,-10.12,-17.327,26.6,0.23181,0.53653,-0.1752,0.79221,17,0.914,-0.096,-0.356,8.057,-0.061,-3.113,-161.153,-67.549,-30.602,-30.247,-10.48,7.933,31.52,-0.01529,-0.81464,0.13141,-0.56458,35
6,0.929,0.014,-0.411,7.202,0.549,-3.601,-179.105,-66.149,-36.508,-23.94,-12.267,0.0,29.24,-0.16675,-0.79608,0.26193,-0.51935,36,0.897,-0.032,0.439,3.906,0.122,5.737,-5.834,-63.875,-118.949,-26.14,-10.113,3.987,27.68,-0.39539,0.47986,0.23141,0.74814,18,0.916,-0.036,0.365,4.517,1.16,5.127,-7.284,-68.522,155.056,-24.233,-10.12,-17.327,26.6,0.23181,0.53653,-0.1752,0.79221,24,0.913,-0.094,-0.356,6.958,0.0,-2.808,-161.164,-67.566,-30.454,-30.247,-10.48,7.933,31.52,-0.01529,-0.81464,0.13141,-0.56458,48
7,0.928,0.013,-0.41,5.981,0.549,-3.113,-179.138,-66.16,-36.332,-23.94,-12.267,0.0,29.24,-0.16675,-0.79608,0.26193,-0.51935,37,0.893,-0.029,0.442,4.089,-0.427,5.31,-5.949,-63.875,-118.729,-26.14,-10.113,3.987,27.68,-0.39539,0.47986,0.23141,0.74814,19,0.915,-0.028,0.364,3.113,1.343,2.991,-7.388,-68.489,155.209,-24.233,-10.12,-17.327,26.6,0.23181,0.53653,-0.1752,0.79221,25,0.913,-0.094,-0.354,5.615,0.0,-2.441,-161.191,-67.582,-30.322,-30.247,-10.48,7.933,31.52,-0.01529,-0.81464,0.13141,-0.56458,49
8,0.929,0.012,-0.411,4.7,0.305,-2.686,-179.176,-66.171,-36.189,-23.94,-12.267,0.0,29.24,-0.16675,-0.79608,0.26193,-0.51935,38,0.897,-0.019,0.441,3.54,-0.305,4.395,-6.042,-63.88,-118.537,-26.14,-10.113,3.987,27.68,-0.39539,0.47986,0.23141,0.74814,20,0.916,-0.018,0.365,2.319,1.587,2.136,-7.427,-68.461,155.275,-24.233,-10.12,-17.327,26.6,0.23181,0.53653,-0.1752,0.79221,26,0.913,-0.094,-0.353,4.395,-0.183,-2.136,-161.23,-67.599,-30.212,-30.247,-10.48,7.933,31.52,-0.01529,-0.81464,0.13141,-0.56458,50
9,0.928,0.013,-0.41,5.981,0.549,-3.113,-179.138,-66.16,-36.332,-23.94,-12.267,0.0,29.24,-0.16675,-0.79608,0.26193,-0.51935,39,0.893,-0.029,0.442,4.089,-0.427,5.31,-5.949,-63.875,-118.729,-26.14,-10.113,3.987,27.68,-0.39539,0.47986,0.23141,0.74814,21,0.915,-0.028,0.364,3.113,1.343,2.991,-7.388,-68.489,155.209,-24.233,-10.12,-17.327,26.6,0.23181,0.53653,-0.1752,0.79221,27,0.913,-0.094,-0.354,5.615,0.0,-2.441,-161.191,-67.582,-30.322,-30.247,-10.48,7.933,31.52,-0.01529,-0.81464,0.13141,-0.56458,51
10,0.929,0.012,-0.411,4.7,0.305,-2.686,-179.176,-66.171,-36.189,-23.94,-12.267,0.0,29.24,-0.16675,-0.79608,0.26193,-0.51935,40,0.897,-0.019,0.441,3.54,-0.305,4.395,-6.042,-63.88,-118.537,-26.14,-10.113,3.987,27.68,-0.39539,0.47986,0.23141,0.74814,22,0.916,-0.018,0.365,2.319,1.587,2.136,-7.427,-68.461,155.275,-24.233,-10.12,-17.327,26.6,0.23181,0.53653,-0.1752,0.79221,28,0.913,-0.094,-0.353,4.395,-0.183,-2.136,-161.23,-67.599,-30.212,-30.247,-10.48,7.933,31.52,-0.01529,-0.81464,0.13141,-0.56458,52
11,0.928,0.013,-0.41,5.981,0.549,-3.113,-179.138,-66.16,-36.332,-23.94,-12.267,0.0,29.24,-0.16675,-0.79608,0.26193,-0.51935,41,0.893,-0.029,0.442,4.089,-0.427,5.31,-5.949,-63.875,-118.729,-26.14,-10.113,3.987,27.68,-0.39539,0.47986,0.23141,0.74814,23,0.915,-0.028,0.364,3.113,1.343,2.991,-7.388,-68.489,155.209,-24.233,-10.12,-17.327,26.6,0.23181,0.53653,-0.1752,0.79221,29,0.913,-0.094,-0.354,5.615,0.0,-2.441,-161.191,-67.582,-30.322,-30.247,-10.48,7.933,31.52,-0.01529,-0.81464,0.13141,-0.56458,53
12,0.928,0.012,-0.411,4.7,0.305,-2.686,-179.176,-66.171,-36.189,-23.94,-12.267,0.0,29.24,-0.16675,-0.79608,0.26193,-0.51935,54,0.891,-0.019,0.441,3.54,-0.305,4.395,-6.042,-63.88,-118.537,-26.14,-10.113,3.987,27.68,-0.39539,0.47986,0.23141,0.74814,42,0.912,-0.018,0.365,2.319,1.587,2.136,-7.427,-68.461,155.275,-24.233,-10.12,-17.327,26.6,0.23181,0.53653,-0.1752,0.79221,66,0.913,-0.094,-0.353,4.395,-0.183,-2.136,-161.23,-67.599,-30.212,-30.247,-10.48,7.933,31.52,-0.01529,-0.81464,0.13141,-0.56458,72
13,0.928,0.012,-0.411,3.54,0.122,-2.258,-179.225,-66.171,-36.068,-23.94,-12.267,0.0,29.24,-0.16675,-0.79608,0.26193,-0.51935,55,0.89,-0.014,0.442,2.991,-0.183,3.662,-6.108,-63.88,-118.383,-26.14,-10.113,3.987,27.68,-0.39539,0.47986,0.23141,0.74814,43,0.914,-0.022,0.366,1.465,1.892,1.77,-7.449,-68.423,155.308,-24.233,-10.12,-17.327,26.6,0.23181,0.53653,-0.1752,0.79221,67,0.912,-0.095,-0.354,3.418,-0.427,-1.77,-161.285,-67.604,-30.097,-30.247,-10.48,7.933,31.52,-0.01529,-0.81464,0.13141,-0.56458,73
14,0.928,0.013,-0.41,2.991,-0.061,-1.831,-179.269,-66.171,-35.964,-23.94,-12.267,0.0,29.24,-0.16675,-0.79608,0.26193,-0.51935,56,0.891,-0.015,0.443,2.014,0.183,2.991,-6.158,-63.875,-118.268,-26.14,-10.113,3.987,27.68,-0.39539,0.47986,0.23141,0.74814,44,0.912,-0.027,0.367,0.854,1.892,1.099,-7.449,-68.384,155.319,-24.233,-10.12,-17.327,26.6,0.23181,0.53653,-0.1752,0.79221,68,0.913,-0.094,-0.355,2.625,-0.549,-1.465,-161.34,-67.604,-29.993,-30.247,-10.48,7.933,31.52,-0.01529,-0.81464,0.13141,-0.56458,74
15,0.928,0.012,-0.411,3.54,0.122,-2.258,-179.225,-66.171,-36.068,-23.94,-12.267,0.0,29.24,-0.16675,-0.79608,0.26193,-0.51935,57,0.89,-0.014,0.442,2.991,-0.183,3.662,-6.108,-63.88,-118.383,-26.14,-10.113,3.987,27.68,-0.39539,0.47986,0.23141,0.74814,45,0.914,-0.022,0.366,1.465,1.892,1.77,-7.449,-68.423,155.308,-24.233,-10.12,-17.327,26.6,0.23181,0.53653,-0.1752,0.79221,69,0.912,-0.095,-0.354,3.418,-0.427,-1.77,-161.285,-67.604,-30.097,-30.247,-10.48,7.933,31.52,-0.01529,-0.81464,0.13141,-0.56458,75
16,0.928,0.013,-0.41,2.991,-0.061,-1.831,-179.269,-66.171,-35.964,-23.94,-12.267,0.0,29.24,-0.16675,-0.79608,0.26193,-0.51935,58,0.891,-0.015,0.443,2.014,0.183,2.991,-6.158,-63.875,-118.268,-26.14,-10.113,3.987,27.68,-0.39539,0.47986,0.23141,0.74814,46,0.912,-0.027,0.367,0.854,1.892,1.099,-7.449,-68.384,155.319,-24.233,-10.12,-17.327,26.6,0.23181,0.53653,-0.1752,0.79221,70,0.913,-0.094,-0.355,2.625,-0.549,-1.465,-161.34,-67.604,-29.993,-30.247,-10.48,7.933,31.52,-0.01529,-0.81464,0.13141,-0.56458,76
17,0.928,0.012,-0.411,3.54,0.122,-2.258,-179.225,-66.171,-36.068,-23.94,-12.267,0.0,29.24,-0.16675,-0.79608,0.26193,-0.51935,59,0.89,-0.014,0.442,2.991,-0.183,3.662,-6.108,-63.88,-118.383,-26.14,-10.113,3.987,27.68,-0.39539,0.47986,0.23141,0.74814,47,0.914,-0.022,0.366,1.465,1.892,1.77,-7.449,-68.423,155.308,-24.233,-10.12,-17.327,26.6,0.23181,0.53653,-0.1752,0.79221,71,0.912,-0.095,-0.354,3.418,-0.427,-1.77,-161.285,-67.604,-30.097,-30.247,-10.48,7.933,31.52,-0.01529,-0.81464,0.13141,-0.56458,77
18,0.927,0.013,-0.41,2.991,-0.061,-1.831,-179.269,-66.171,-35.964,-23.94,-12.267,0.0,29.24,-0.16675,-0.79608,0.26193,-0.51935,78,0.89,-0.015,0.443,2.014,0.183,2.991,-6.158,-63.875,-118.268,-26.14,-10.113,3.987,27.68,-0.39539,0.47986,0.23141,0.74814,60,0.916,-0.027,0.367,0.854,1.892,1.099,-7.449,-68.384,155.319,-24.333,-9.62,-17.46,26.6,0.23181,0.53653,-0.1752,0.79221,90,0.914,-0.094,-0.355,2.625,-0.549,-1.465,-161.34,-67.604,-29.993,-30.247,-10.48,7.933,31.52,-0.01529,-0.81464,0.13141,-0.56458,96
19,0.928,0.015,-0.409,2.136,0.0,-1.404,-179.313,-66.171,-35.87,-23.94,-12.267,0.0,29.24,-0.16675,-0.79608,0.26193,-0.51935,79,0.893,-0.021,0.443,1.099,0.549,2.075,-6.185,-63.864,-118.18,-26.14,-10.113,3.987,27.68,-0.39539,0.47986,0.23141,0.74814,61,0.916,-0.029,0.365,0.183,1.648,0.61,-7.438,-68.346,155.325,-24.333,-9.62,-17.46,26.6,0.23181,0.53653,-0.1752,0.79221,91,0.914,-0.095,-0.356,1.099,-0.366,-0.61,-161.395,-67.604,-29.916,-30.247,-10.48,7.933,31.52,-0.01529,-0.81464,0.13141,-0.56458,97
20,0.927,0.013,-0.409,1.221,0.0,-0.916,-179.357,-66.171,-35.804,-23.94,-12.267,0.0,29.24,-0.16675,-0.79608,0.26193,-0.51935,80,0.89,-0.023,0.44,0.61,0.977,1.221,-6.185,-63.842,-118.141,-26.14,-10.113,3.987,27.68,-0.39539,0.47986,0.23141,0.74814,62,0.916,-0.026,0.367,0.0,1.343,0.0,-7.41,-68.318,155.286,-24.333,-9.62,-17.46,26.6,0.23181,0.53653,-0.1752,0.79221,92,0.914,-0.097,-0.352,0.305,-0.244,-0.305,-161.439,-67.61,-29.833,-30.247,-10.48,7.933,31.52,-0.01529,-0.81464,0.13141,-0.56458,98
21,0.928,0.015,-0.409,2.136,0.0,-1.404,-179.313,-66.171,-35.87,-23.94,-12.267,0.0,29.24,-0.16675,-0.79608,0.26193,-0.51935,81,0.893,-0.021,0.443,1.099,0.549,2.075,-6.185,-63.864,-118.18,-26.14,-10.113,3.987,27.68,-0.39539,0.47986,0.23141,0.74814,63,0.916,-0.029,0.365,0.183,1.648,0.61,-7.438,-68.346,155.325,-24.333,-9.62,-17.46,26.6,0.23181,0.53653,-0.1752,0.79221,93,0.914,-0.095,-0.356,1.099,-0.366,-0.61,-161.395,-67.604,-29.916,-30.247,-10.48,7.933,31.52,-0.01529,-0.81464,0.13141,-0.56458,99
22,0.927,0.013,-0.409,1.221,0.0,-0.916,-179.357,-66.171,-35.804,-23.94,-12.267,0.0,29.24,-0.16675,-0.79608,0.26193,-0.51935,82,0.89,-0.023,0.44,0.61,0.977,1.221,-6.185,-63.842,-118.141,-26.14,-10.113,3.987,27.68,-0.39539,0.47986,0.23141,0.74814,64,0.916,-0.026,0.367,0.0,1.343,0.0,-7.41,-68.318,155.286,-24.333,-9.62,-17.46,26.6,0.23181,0.53653,-0.1752,0.79221,94,0.914,-0.097,-0.352,0.305,-0.244,-0.305,-161.439,-67.61,-29.833,-30.247,-10.48,7.933,31.52,-0.01529,-0.81464,0.13141,-0.56458,100
23,0.928,0.015,-0.409,2.136,0.0,-1.404,-179.313,-66.171,-35.87,-23.94,-12.267,0.0,29.24,-0.16675,-0.79608,0.26193,-0.51935,83,0.893,-0.021,0.443,1.099,0.549,2.075,-6.185,-63.864,-118.18,-26.14,-10.113,3.987,27.68,-0.39539,0.47986,0.23141,0.74814,65,0.916,-0.029,0.365,0.183,1.648,0.61,-7.438,-68.346,155.325,-24.333,-9.62,-17.46,26.6,0.23181,0.53653,-0.1752,0.79221,95,0.914,-0.095,-0.356,1.099,-0.366,-0.61,-161.395,-67.604,-29.916,-30.247,-10.48,7.933,31.52,-0.01529,-0.81464,0.13141,-0.56458,101
24,0.929,0.013,-0.409,1.221,0.0,-0.916,-179.357,-66.171,-35.804,-23.94,-12.267,0.0,29.24,-0.16675,-0.79608,0.26193,-0.51935,102,0.894,-0.023,0.44,0.61,0.977,1.221,-6.185,-63.842,-118.141,-26.14,-10.113,3.987,27.68,-0.39539,0.47986,0.23141,0.74814,84,0.922,-0.026,0.367,0.0,1.343,0.0,-7.41,-68.318,155.286,-24.333,-9.62,-17.46,26.6,0.23181,0.53653,-0.1752,0.79221,114,0.916,-0.097,-0.352,0.305,-0.244,-0.305,-161.439,-67.61,-29.833,-30.247,-10.48,7.933,31.52,-0.01529,-0.81464,0.13141,-0.56458,120
25,0.93,0.012,-0.408,0.305,0.061,-0.488,-179.396,-66.171,-35.76,-23.94,-12.267,0.0,29.24,-0.16675,-0.79608,0.26193,-0.51935,103,0.899,-0.021,0.442,0.366,1.221,0.549,-6.163,-63.82,-118.141,-26.14,-10.113,3.987,27.68,-0.39539,0.47986,0.23141,0.74814,85,0.928,-0.024,0.363,-0.366,0.549,-0.427,-7.361,-68.302,155.226,-24.333,-9.62,-17.46,26.6,0.23181,0.53653,-0.1752,0.79221,115,0.916,-0.098,-0.356,-0.244,0.0,0.0,-161.488,-67.61,-29.789,-30.247,-10.48,7.933,31.52,-0.01529,-0.81464,0.13141,-0.56458,121
26,0.929,0.011,-0.407,-0.488,0.061,-0.061,-179.434,-66.171,-35.733,-23.94,-12.267,0.0,29.24,-0.16675,-0.79608,0.26193,-0.51935,104,0.894,-0.022,0.44,0.244,1.648,0.061,-6.125,-63.787,-118.174,-26.14,-10.113,3.987,27.68,-0.39539,0.47986,0.23141,0.74814,86,0.922,-0.028,0.363,-0.427,0.854,-0.183,-7.311,-68.291,155.149,-24.333,-9.62,-17.46,26.6,0.23181,0.53653,-0.1752,0.79221,116,0.916,-0.099,-0.359,-0.732,0.061,0.305,-161.526,-67.615,-29.767,-30.247,-10.48,7.933,31.52,-0.01529,-0.81464,0.13141,-0.56458,122
27,0.93,0.012,-0.408,0.305,0.061,-0.488,-179.396,-66.171,-35.76,-23.94,-12.267,0.0,29.24,-0.16675,-0.79608,0.26193,-0.51935,105,0.899,-0.021,0.442,0.366,1.221,0.549,-6.163,-63.82,-118.141,-26.14,-10.113,3.987,27.68,-0.39539,0.47986,0.23141,0.74814,87,0.928,-0.024,0.363,-0.366,0.549,-0.427,-7.361,-68.302,155.226,-24.333,-9.62,-17.46,26.6,0.23181,0.53653,-0.1752,0.79221,117,0.916,-0.098,-0.356,-0.244,0.0,0.0,-161.488,-67.61,-29.789,-30.247,-10.48,7.933,31.52,-0.01529,-0.81464,0.13141,-0.56458,123
28,0.929,0.011,-0.407,-0.488,0.061,-0.061,-179.434,-66.171,-35.733,-23.94,-12.267,0.0,29.24,-0.16675,-0.79608,0.26193,-0.51935,106,0.894,-0.022,0.44,0.244,1.648,0.061,-6.125,-63.787,-118.174,-26.14,-10.113,3.987,27.68,-0.39539,0.47986,0.23141,0.74814,88,0.922,-0.028,0.363,-0.427,0.854,-0.183,-7.311,-68.291,155.149,-24.333,-9.62,-17.46,26.6,0.23181,0.53653,-0.1752,0.79221,118,0.916,-0.099,-0.359,-0.732,0.061,0.305,-161.526,-67.615,-29.767,-30.247,-10.48,7.933,31.52,-0.01529,-0.81464,0.13141,-0.56458,124
29,0.93,0.012,-0.408,0.305,0.061,-0.488,-179.396,-66.171,-35.76,-23.94,-12.267,0.0,29.24,-0.16675,-0.79608,0.26193,-0.51935,107,0.899,-0.021,0.442,0.366,1.221,0.549,-6.163,-63.82,-118.141,-26.14,-10.113,3.987,27.68,-0.39539,0.47986,0.23141,0.74814,89,0.928,-0.024,0.363,-0.366,0.549,-0.427,-7.361,-68.302,155.226,-24.333,-9.62,-17.46,26.6,0.23181,0.53653,-0.1752,0.79221,119,0.916,-0.098,-0.356,-0.244,0.0,0.0,-161.488,-67.61,-29.789,-30.247,-10.48,7.933,31.52,-0.01529,-0.81464,0.13141,-0.56458,125
30,0.93,0.011,-0.407,-0.488,0.061,-0.061,-179.434,-66.171,-35.733,-23.94,-12.267,0.0,29.24,-0.16675,-0.79608,0.26193,-0.51935,126,0.904,-0.022,0.44,0.244,1.648,0.061,-6.125,-63.787,-118.174,-26.14,-10.113,3.987,27.68,-0.39539,0.47986,0.23141,0.74814,108,0.928,-0.028,0.363,-0.427,0.854,-0.183,-7.311,-68.291,155.149,-24.333,-9.62,-17.46,26.6,0.21274,0.53561,-0.17206,0.79883,132,0.915,-0.099,-0.359,-0.732,0.061,0.305,-161.526,-67.615,-29.767,-30.247,-10.48,7.933,31.52,-0.01529,-0.81464,0.13141,-0.56458,138
31,0.931,0.011,-0.413,-0.549,-0.061,0.183,-179.467,-66.171,-35.733,-23.94,-12.267,0.0,29.24,-0.16675,-0.79608,0.26193,-0.51935,127,0.905,-0.023,0.44,0.0,1.526,-0.305,-6.07,-63.759,-118.218,-26.14,-10.113,3.987,27.68,-0.39539,0.47986,0.23141,0.74814,109,0.93,-0.028,0.368,-0.732,0.244,-0.854,-7.262,-68.28,155.072,-24.333,-9.62,-17.46,26.6,0.21274,0.53561,-0.17206,0.79883,133,0.914,-0.102,-0.361,-1.343,0.122,0.549,-161.565,-67.621,-29.762,-30.247,-10.48,7.933,31.52,-0.01529,-0.81464,0.13141,-0.56458,139
32,0.93,0.008,-0.415,-1.038,-0.122,0.488,-179.495,-66.171,-35.739,-23.94,-12.267,0.0,29.24,-0.16675,-0.79608,0.26193,-0.51935,128,0.904,-0.024,0.443,-0.488,1.16,-0.671,-6.01,-63.737,-118.284,-26.14,-10.113,3.987,27.68,-0.39539,0.47986,0.23141,0.74814,110,0.928,-0.024,0.365,-0.854,-0.061,-1.587,-7.18,-68.286,154.973,-24.333,-9.62,-17.46,26.6,0.21274,0.53561,-0.17206,0.79883,134,0.915,-0.102,-0.362,-2.014,0.183,0.732,-161.598,-67.621,-29.773,-30.247,-10.48,7.933,31.52,-0.01529,-0.81464,0.13141,-0.56458,140
33,0.931,0.011,-0.413,-0.549,-0.061,0.183,-179.467,-66.171,-35.733,-23.94,-12.267,0.0,29.24,-0.16675,-0.79608,0.26193,-0.51935,129,0.905,-0.023,0.44,0.0,1.526,-0.305,-6.07,-63.759,-118.218,-26.14,-10.113,3.987,27.68,-0.39539,0.47986,0.23141,0.74814,111,0.93,-0.028,0.368,-0.732,0.244,-0.854,-7.262,-68.28,155.072,-24.333,-9.62,-17.46,26.6,0.21274,0.53561,-0.17206,0.79883,135,0.914,-0.102,-0.361,-1.343,0.122,0.549,-161.565,-67.621,-29.762,-30.247,-10.48,7.933,31.52,-0.01529,-0.81464,0.13141,-0.56458,141
34,0.93,0.008,-0.415,-1.038,-0.122,0.488,-179.495,-66.171,-35.739,-23.94,-12.267,0.0,29.24,-0.16675,-0.79608,0.26193,-0.51935,130,0.904,-0.024,0.443,-0.488,1.16,-0.671,-6.01,-63.737,-118.284,-26.14,-10.113,3.987,27.68,-0.39539,0.47986,0.23141,0.74814,112,0.928,-0.024,0.365,-0.854,-0.061,-1.587,-7.18,-68.286,154.973,-24.333,-9.62,-17.46,26.6,0.21274,0.53561,-0.17206,0.79883,136,0.915,-0.102,-0.362,-2.014,0.183,0.732,-161.598,-67.621,-29.773,-30.247,-10.48,7.933,31.52,-0.01529,-0.81464,0.13141,-0.56458,142
35,0.931,0.011,-0.413,-0.549,-0.061,0.183,-179.467,-66.171,-35.733,-23.94,-12.267,0.0,29.24,-0.16675,-0.79608,0.26193,-0.51935,131,0.905,-0.023,0.44,0.0,1.526,-0.305,-6.07,-63.759,-118.218,-26.14,-10.113,3.987,27.68,-0.39539,0.47986,0.23141,0.74814,113,0.93,-0.028,0.368,-0.732,0.244,-0.854,-7.262,-68.28,155.072,-24.333,-9.62,-17.46,26.6,0.21274,0.53561,-0.17206,0.79883,137,0.914,-0.102,-0.361,-1.343,0.122,0.549,-161.565,-67.621,-29.762,-30.247,-10.48,7.933,31.52,-0.01529,-0.81464,0.13141,-0.56458,143
36,0.93,0.008,-0.415,-1.038,-0.122,0.488,-179.495,-66.171,-35.739,-23.94,-12.267,0.0,29.24,-0.16675,-0.79608,0.26193,-0.51935,156,0.906,-0.024,0.443,-0.488,1.16,-0.671,-6.01,-63.737,-118.284,-26.14,-10.113,3.987,27.68,-0.39539,0.47986,0.23141,0.74814,144,0.926,-0.024,0.365,-0.854,-0.061,-1.587,-7.18,-68.286,154.973,-24.333,-9.62,-17.46,26.6,0.21274,0.53561,-0.17206,0.79883,150,0.914,-0.102,-0.362,-2.014,0.183,0.732,-161.598,-67.621,-29.773,-30.247,-10.48,7.933,31.52,-0.01529,-0.81464,0.13141,-0.56458,168
37,0.929,0.008,-0.414,-1.709,-0.183,0.793,-179.517,-66.165,-35.755,-23.94,-12.267,0.0,29.24,-0.16675,-0.79608,0.26193,-0.51935,157,0.903,-0.023,0.441,-0.793,0.549,-0.916,-5.955,-63.726,-118.356,-26.14,-10.113,3.987,27.68,-0.39539,0.47986,0.23141,0.74814,145,0.924,-0.025,0.367,-0.793,-0.244,-0.916,-7.103,-68.291,154.869,-24.333,-9.62,-17.46,26.6,0.21274,0.53561,-0.17206,0.79883,151,0.913,-0.103,-0.361,-2.625,0.244,1.038,-161.636,-67.626,-29.8,-30.247,-10.48,7.933,31.52,-0.01529,-0.81464,0.13141,-0.56458,169
38,0.93,0.007,-0.415,-2.38,-0.244,1.099,-179.533,-66.16,-35.777,-23.94,-12.267,0.0,29.24,-0.16675,-0.79608,0.26193,-0.51935,158,0.906,-0.024,0.442,-0.732,-0.183,-0.854,-5.9,-63.732,-118.422,-26.14,-10.113,3.987,27.68,-0.39539,0.47986,0.23141,0.74814,146,0.926,-0.032,0.367,-1.099,-0.61,-0.854,-7.048,-68.302,154.797,-24.333,-9.62,-17.46,26.6,0.21274,0.53561,-0.17206,0.79883,152,0.914,-0.105,-0.36,-3.113,0.244,1.282,-161.669,-67.626,-29.828,-30.247,-10.48,7.933,31.52,-0.01529,-0.81464,0.13141,-0.56458,170
39,0.929,0.008,-0.414,-1.709,-0.183,0.793,-179.517,-66.165,-35.755,-23.94,-12.267,0.0,29.24,-0.16675,-0.79608,0.26193,-0.51935,159,0.903,-0.023,0.441,-0.793,0.549,-0.916,-5.955,-63.726,-118.356,-26.14,-10.113,3.987,27.68,-0.39539,0.47986,0.23141,0.74814,147,0.924,-0.025,0.367,-0.793,-0.244,-0.916,-7.103,-68.291,154.869,-24.333,-9.62,-17.46,26.6,0.21274,0.53561,-0.17206,0.79883,153,0.913,-0.103,-0.361,-2.625,0.244,1.038,-161.636,-67.626,-29.8,-30.247,-10.48,7.933,31.52,-0.01529,-0.81464,0.13141,-0.56458,171
40,0.93,0.007,-0.415,-2.38,-0.244,1.099,-179.533,-66.16,-35.777,-23.94,-12.267,0.0,29.24,-0.16675,-0.79608,0.26193,-0.51935,160,0.906,-0.024,0.442,-0.732,-0.183,-0.854,-5.9,-63.732,-118.422,-26.14,-10.113,3.987,27.68,-0.39539,0.47986,0.23141,0.74814,148,0.926,-0.032,0.367,-1.099,-0.61,-0.854,-7.048,-68.302,154.797,-24.333,-9.62,-17.46,26.6,0.21274,0.53561,-0.17206,0.79883,154,0.914,-0.105,-0.36,-3.113,0.244,1.282,-161.669,-67.626,-29.828,-30.247,-10.48,7.933,31.52,-0.01529,-0.81464,0.13141,-0.56458,172
41,0.929,0.008,-0.414,-1.709,-0.183,0.793,-179.517,-66.165,-35.755,-23.94,-12.267,0.0,29.24,-0.16675,-0.79608,0.26193,-0.51935,161,0.903,-0.023,0.441,-0.793,0.549,-0.916,-5.955,-63.726,-118.356,-26.14,-10.113,3.987,27.68,-0.39539,0.47986,0.23141,0.74814,149,0.924,-0.025,0.367,-0.793,-0.244,-0.916,-7.103,-68.291,154.869,-24.333,-9.62,-17.46,26.6,0.21274,0.53561,-0.17206,0.79883,155,0.913,-0.103,-0.361,-2.625,0.244,1.038,-161.636,-67.626,-29.8,-30.247,-10.48,7.933,31.52,-0.01529,-0.81464,0.13141,-0.56458,173
42,0.929,0.007,-0.415,-2.38,-0.244,1.099,-179.533,-66.16,-35.777,-23.833,-12.553,1.053,29.24,-0.16675,-0.79608,0.26193,-0.51935,180,0.9,-0.024,0.442,-0.732,-0.183,-0.854,-5.9,-63.732,-118.422,-25.52,-9.173,3.52,27.68,-0.39539,0.47986,0.23141,0.74814,162,0.922,-0.032,0.367,-1.099,-0.61,-0.854,-7.048,-68.302,154.797,-24.333,-9.62,-17.46,26.6,0.21274,0.53561,-0.17206,0.79883,174,0.913,-0.105,-0.36,-3.113,0.244,1.282,-161.669,-67.626,-29.828,-29.8,-11.193,8.153,31.52,-0.01529,-0.81464,0.13141,-0.56458,204
43,0.929,0.005,-0.414,-3.052,-0.122,1.343,-179.555,-66.16,-35.815,-23.833,-12.553,1.053,29.24,-0.16675,-0.79608,0.26193,-0.51935,181,0.899,-0.027,0.443,-0.732,-0.366,-0.977,-5.845,-63.743,-118.488,-25.52,-9.173,3.52,27.68,-0.39539,0.47986,0.23141,0.74814,163,0.92,-0.036,0.366,-1.526,-0.854,-1.587,-6.987,-68.324,154.72,-24.333,-9.62,-17.46,26.6,0.21274,0.53561,-0.17206,0.79883,175,0.912,-0.109,-0.358,-3.418,0.305,1.404,-161.697,-67.621,-29.877,-29.8,-11.193,8.153,31.52,-0.01529,-0.81464,0.13141,-0.56458,205
44,0.929,0.002,-0.412,-3.418,-0.061,1.587,-179.572,-66.154,-35.87,-23.833,-12.553,1.053,29.24,-0.16675,-0.79608,0.26193,-0.51935,182,0.9,-0.031,0.441,-1.16,-0.61,-1.465,-5.779,-63.759,-118.592,-25.52,-9.173,3.52,27.68,-0.39539,0.47986,0.23141,0.74814,164,0.922,-0.033,0.362,-1.77,-1.221,-1.953,-6.91,-68.346,154.6,-24.333,-9.62,-17.46,26.6,0.21274,0.53561,-0.17206,0.79883,176,0.913,-0.113,-0.358,-3.479,0.305,1.526,-161.724,-67.621,-29.932,-29.8,-11.193,8.153,31.52,-0.01529,-0.81464,0.13141,-0.56458,206
45,0.929,0.005,-0.414,-3.052,-0.122,1.343,-179.555,-66.16,-35.815,-23.833,-12.553,1.053,29.24,-0.16675,-0.79608,0.26193,-0.51935,183,0.899,-0.027,0.443,-0.732,-0.366,-0.977,-5.845,-63.743,-118.488,-25.52,-9.173,3.52,27.68,-0.39539,0.47986,0.23141,0.74814,165,0.92,-0.036,0.366,-1.526,-0.854,-1.587,-6.987,-68.324,154.72,-24.333,-9.62,-17.46,26.6,0.21274,0.53561,-0.17206,0.79883,177,0.912,-0.109,-0.358,-3.418,0.305,1.404,-161.697,-67.621,-29.877,-29.8,-11.193,8.153,31.52,-0.01529,-0.81464,0.13141,-0.56458,207
46,0.929,0.002,-0.412,-3.418,-0.061,1.587,-179.572,-66.154,-35.87,-23.833,-12.553,1.053,29.24,-0.16675,-0.79608,0.26193,-0.51935,184,0.9,-0.031,0.441,-1.16,-0.61,-1.465,-5.779,-63.759,-118.592,-25.52,-9.173,3.52,27.68,-0.39539,0.47986,0.23141,0.74814,166,0.922,-0.033,0.362,-1.77,-1.221,-1.953,-6.91,-68.346,154.6,-24.333,-9.62,-17.46,26.6,0.21274,0.53561,-0.17206,0.79883,178,0.913,-0.113,-0.358,-3.479,0.305,1.526,-161.724,-67.621,-29.932,-29.8,-11.193,8.153,31.52,-0.01529,-0.81464,0.13141,-0.56458,208
47,0.929,0.005,-0.414,-3.052,-0.122,1.343,-179.555,-66.16,-35.815,-23.833,-12.553,1.053,29.24,-0.16675,-0.79608,0.26193,-0.51935,185,0.899,-0.027,0.443,-0.732,-0.366,-0.977,-5.845,-63.743,-118.488,-25.52,-9.173,3.52,27.68,-0.39539,0.47986,0.23141,0.74814,167,0.92,-0.036,0.366,-1.526,-0.854,-1.587,-6.987,-68.324,154.72,-24.333,-9.62,-17.46,26.6,0.21274,0.53561,-0.17206,0.79883,179,0.912,-0.109,-0.358,-3.418,0.305,1.404,-161.697,-67.621,-29.877,-29.8,-11.193,8.153,31.52,-0.01529,-0.81464,0.13141,-0.56458,209
48,0.929,0.002,-0.412,-3.418,-0.061,1.587,-179.572,-66.154,-35.87,-23.833,-12.553,1.053,29.24,-0.16675,-0.79608,0.26193,-0.51935,186,0.897,-0.031,0.441,-1.16,-0.61,-1.465,-5.779,-63.759,-118.592,-25.52,-9.173,3.52,27.68,-0.39539,0.47986,0.23141,0.74814,192,0.919,-0.033,0.362,-1.77,-1.221,-1.953,-6.91,-68.346,154.6,-24.333,-9.62,-17.46,26.6,0.21274,0.53561,-0.17206,0.79883,198,0.912,-0.113,-0.358,-3.479,0.305,1.526,-161.724,-67.621,-29.932,-29.8,-11.193,8.153,31.52,-0.01529,-0.81464,0.13141,-0.56458,210
49,0.929,0.0,-0.413,-3.54,0.0,1.709,-179.583,-66.154,-35.942,-23.833,-12.553,1.053,29.24,-0.16675,-0.79608,0.26193,-0.51935,187,0.897,-0.031,0.441,-1.526,-0.488,-1.892,-5.707,-63.776,-118.707,-25.52,-9.173,3.52,27.68,-0.39539,0.47986,0.23141,0.74814,193,0.923,-0.034,0.362,-1.892,-1.404,-2.075,-6.828,-68.379,154.473,-24.333,-9.62,-17.46,26.6,0.21274,0.53561,-0.17206,0.79883,199,0.912,-0.116,-0.358,-3.479,0.183,1.526,-161.741,-67.621,-30.004,-29.8,-11.193,8.153,31.52,-0.01529,-0.81464,0.13141,-0.56458,211
50,0.929,-0.003,-0.413,-3.479,-0.061,1.77,-179.588,-66.149,-36.041,-23.833,-12.553,1.053,29.24,-0.16675,-0.79608,0.26193,-0.51935,188,0.897,-0.032,0.441,-1.831,0.0,-2.136,-5.63,-63.781,-118.845,-25.52,-9.173,3.52,27.68,-0.39539,0.47986,0.23141,0.74814,194,0.919,-0.037,0.36,-1.709,-1.404,-1.892,-6.751,-68.412,154.336,-24.333,-9.62,-17.46,26.6,0.21274,0.53561,-0.17206,0.79883,200,0.912,-0.118,-0.358,-3.418,0.183,1.526,-161.757,-67.615,-30.086,-29.8,-11.193,8.153,31.52,-0.01529,-0.81464,0.13141,-0.56458,212
51,0.929,0.0,-0.413,-3.54,0.0,1.709,-179.583,-66.154,-35.942,-23.833,-12.553,1.053,29.24,-0.16675,-0.79608,0.26193,-0.51935,189,0.897,-0.031,0.441,-1.526,-0.488,-1.892,-5.707,-63.776,-118.707,-25.52,-9.173,3.52,27.68,-0.39539,0.47986,0.23141,0.74814,195,0.923,-0.034,0.362,-1.892,-1.404,-2.075,-6.828,-68.379,154.473,-24.333,-9.62,-17.46,26.6,0.21274,0.53561,-0.17206,0.79883,201,0.912,-0.116,-0.358,-3.479,0.183,1.526,-161.741,-67.621,-30.004,-29.8,-11.193,8.153,31.52,-0.01529,-0.81464,0.13141,-0.56458,213
52,0.929,-0.003,-0.413,-3.479,-0.061,1.77,-179.588,-66.149,-36.041,-23.833,-12.553,1.053,29.24,-0.16675,-0.79608,0.26193,-0.51935,190,0.897,-0.032,0.441,-1.831,0.0,-2.136,-5.63,-63.781,-118.845,-25.52,-9.173,3.52,27.68,-0.39539,0.47986,0.23141,0.74814,196,0.919,-0.037,0.36,-1.709,-1.404,-1.892,-6.751,-68.412,154.336,-24.333,-9.62,-17.46,26.6,0.21274,0.53561,-0.17206,0.79883,202,0.912,-0.118,-0.358,-3.418,0.183,1.526,-161.757,-67.615,-30.086,-29.8,-11.193,8.153,31.52,-0.01529,-0.81464,0.13141,-0.56458,214
53,0.929,0.0,-0.413,-3.54,0.0,1.709,-179.583,-66.154,-35.942,-23.833,-12.553,1.053,29.24,-0.16675,-0.79608,0.26193,-0.51935,191,0.897,-0.031,0.441,-1.526,-0.488,-1.892,-5.707,-63.776,-118.707,-25.52,-9.173,3.52,27.68,-0.39539,0.47986,0.23141,0.74814,197,0.923,-0.034,0.362,-1.892,-1.404,-2.075,-6.828,-68.379,154.473,-24.333,-9.62,-17.46,26.6,0.21274,0.53561,-0.17206,0.79883,203,0.912,-0.116,-0.358,-3.479,0.183,1.526,-161.741,-67.621,-30.004,-29.8,-11.193,8.153,31.52,-0.01529,-0.81464,0.13141,-0.56458,215
54,0.93,-0.003,-0.413,-3.479,-0.061,1.77,-179.588,-66.149,-36.041,-23.833,-12.553,1.053,29.24,-0.16675,-0.79608,0.26193,-0.51935,228,0.899,-0.032,0.441,-1.831,0.0,-2.136,-5.63,-63.781,-118.845,-25.52,-9.173,3.52,27.68,-0.4097,0.47543,0.23251,0.74289,216,0.923,-0.037,0.36,-1.709,-1.404,-1.892,-6.751,-68.412,154.336,-24.333,-9.62,-17.46,26.6,0.21274,0.53561,-0.17206,0.79883,222,0.912,-0.118,-0.358,-3.418,0.183,1.526,-161.757,-67.615,-30.086,-29.8,-11.193,8.153,31.52,-0.01529,-0.81464,0.13141,-0.56458,240
55,0.929,-0.004,-0.413,-3.479,0.0,1.77,-179.588,-66.149,-36.151,-23.833,-12.553,1.053,29.24,-0.16675,-0.79608,0.26193,-0.51935,229,0.899,-0.038,0.439,-2.075,0.122,-2.075,-5.565,-63.781,-118.96,-25.52,-9.173,3.52,27.68,-0.4097,0.47543,0.23251,0.74289,217,0.924,-0.039,0.362,-1.526,-1.587,-1.404,-6.685,-68.445,154.232,-24.333,-9.62,-17.46,26.6,0.21274,0.53561,-0.17206,0.79883,223,0.913,-0.119,-0.358,-3.357,0.244,1.526,-161.768,-67.61,-30.163,-29.8,-11.193,8.153,31.52,-0.01529,-0.81464,0.13141,-0.56458,241
56,0.93,-0.005,-0.412,-3.479,0.0,1.77,-179.588,-66.149,-36.233,-23.833,-12.553,1.053,29.24,-0.16675,-0.79608,0.26193,-0.51935,230,0.899,-0.041,0.441,-2.136,0.122,-1.709,-5.521,-63.787,-119.053,-25.52,-9.173,3.52,27.68,-0.4097,0.47543,0.23251,0.74289,218,0.923,-0.043,0.36,-1.465,-1.648,-0.977,-6.652,-68.478,154.171,-24.333,-9.62,-17.46,26.6,0.21274,0.53561,-0.17206,0.79883,224,0.912,-0.12,-0.358,-3.296,0.244,1.526,-161.774,-67.604,-30.24,-29.8,-11.193,8.153,31.52,-0.01529,-0.81464,0.13141,-0.56458,242
57,0.929,-0.004,-0.413,-3.479,0.0,1.77,-179.588,-66.149,-36.151,-23.833,-12.553,1.053,29.24,-0.16675,-0.79608,0.26193,-0.51935,231,0.899,-0.038,0.439,-2.075,0.122,-2.075,-5.565,-63.781,-118.96,-25.52,-9.173,3.52,27.68,-0.4097,0.47543,0.23251,0.74289,219,0.924,-0.039,0.362,-1.526,-1.587,-1.404,-6.685,-68.445,154.232,-24.333,-9.62,-17.46,26.6,0.21274,0.53561,-0.17206,0.79883,225,0.913,-0.119,-0.358,-3.357,0.244,1.526,-161.768,-67.61,-30.163,-29.8,-11.193,8.153,31.52,-0.01529,-0.81464,0.13141,-0.56458,243
58,0.93,-0.005,-0.412,-3.479,0.0,1.77,-179.588,-66.149,-36.233,-23.833,-12.553,1.053,29.24,-0.16675,-0.79608,0.26193,-0.51935,232,0.899,-0.041,0.441,-2.136,0.122,-1.709,-5.521,-63.787,-119.053,-25.52,-9.173,3.52,27.68,-0.4097,0.47543,0.23251,0.74289,220,0.923,-0.043,0.36,-1.465,-1.648,-0.977,-6.652,-68.478,154.171,-24.333,-9.62,-17.46,26.6,0.21274,0.53561,-0.17206,0.79883,226,0.912,-0.12,-0.358,-3.296,0.244,1.526,-161.774,-67.604,-30.24,-29.8,-11.193,8.153,31.52,-0.01529,-0.81464,0.13141,-0.56458,244
59,0.929,-0.004,-0.413,-3.479,0.0,1.77,-179.588,-66.149,-36.151,-23.833,-12.553,1.053,29.24,-0.16675,-0.79608,0.26193,-0.51935,233,0.899,-0.038,0.439,-2.075,0.122,-2.075,-5.565,-63.781,-118.96,-25.52,-9.173,3.52,27.68,-0.4097,0.47543,0.23251,0.74289,221,0.924,-0.039,0.362,-1.526,-1.587,-1.404,-6.685,-68.445,154.232,-24.333,-9.62,-17.46,26.6,0.21274,0.53561,-0.17206,0.79883,227,0.913,-0.119,-0.358,-3.357,0.244,1.526,-161.768,-67.61,-30.163,-29.8,-11.193,8.153,31.52,-0.01529,-0.81464,0.13141,-0.56458,245
60,0.93,-0.005,-0.412,-3.479,0.0,1.77,-179.588,-66.149,-36.233,-23.833,-12.553,1.053,29.24,-0.16635,-0.79721,0.25793,-0.51974,246,0.899,-0.041,0.441,-2.136,0.122,-1.709,-5.521,-63.787,-119.053,-25.52,-9.173,3.52,27.68,-0.4097,0.47543,0.23251,0.74289,234,0.925,-0.043,0.36,-1.465,-1.648,-0.977,-6.652,-68.478,154.171,-24.333,-9.62,-17.46,26.6,0.21274,0.53561,-0.17206,0.79883,252,0.913,-0.12,-0.358,-3.296,0.244,1.526,-161.774,-67.604,-30.24,-29.8,-11.193,8.153,31.52,-0.01562,-0.81509,0.12808,-0.56467,258
61,0.931,-0.006,-0.412,-3.479,0.0,1.709,-179.583,-66.149,-36.321,-23.833,-12.553,1.053,29.24,-0.16635,-0.79721,0.25793,-0.51974,247,0.9,-0.043,0.441,-2.075,0.305,-1.465,-5.488,-63.781,-119.125,-25.52,-9.173,3.52,27.68,-0.4097,0.47543,0.23251,0.74289,235,0.927,-0.046,0.359,-1.221,-1.587,-0.916,-6.625,-68.516,154.127,-24.333,-9.62,-17.46,26.6,0.21274,0.53561,-0.17206,0.79883,253,0.913,-0.122,-0.358,-3.113,0.244,1.465,-161.779,-67.599,-30.295,-29.8,-11.193,8.153,31.52,-0.01562,-0.81509,0.12808,-0.56467,259
62,0.93,-0.007,-0.412,-3.357,0.0,1.709,-179.577,-66.143,-36.414,-23.833,-12.553,1.053,29.24,-0.16635,-0.79721,0.25793,-0.51974,248,0.899,-0.046,0.44,-1.709,0.488,-1.343,-5.455,-63.776,-119.185,-25.52,-9.173,3.52,27.68,-0.4097,0.47543,0.23251,0.74289,236,0.925,-0.046,0.359,-0.977,-1.221,-0.793,-6.608,-68.544,154.089,-24.333,-9.62,-17.46,26.6,0.21274,0.53561,-0.17206,0.79883,254,0.913,-0.123,-0.358,-2.93,0.244,1.404,-161.774,-67.599,-30.355,-29.8,-11.193,8.153,31.52,-0.01562,-0.81509,0.12808,-0.56467,260
63,0.931,-0.006,-0.412,-3.479,0.0,1.709,-179.583,-66.149,-36.321,-23.833,-12.553,1.053,29.24,-0.16635,-0.79721,0.25793,-0.51974,249,0.9,-0.043,0.441,-2.075,0.305,-1.465,-5.488,-63.781,-119.125,-25.52,-9.173,3.52,27.68,-0.4097,0.47543,0.23251,0.74289,237,0.927,-0.046,0.359,-1.221,-1.587,-0.916,-6.625,-68.516,154.127,-24.333,-9.62,-17.46,26.6,0.21274,0.53561,-0.17206,0.79883,255,0.913,-0.122,-0.358,-3.113,0.244,1.465,-161.779,-67.599,-30.295,-29.8,-11.193,8.153,31.52,-0.01562,-0.81509,0.12808,-0.56467,261
64,0.93,-0.007,-0.412,-3.357,0.0,1.709,-179.577,-66.143,-36.414,-23.833,-12.553,1.053,29.24,-0.16635,-0.79721,0.25793,-0.51974,250,0.899,-0.046,0.44,-1.709,0.488,-1.343,-5.455,-63.776,-119.185,-25.52,-9.173,3.52,27.68,-0.4097,0.47543,0.23251,0.74289,238,0.925,-0.046,0.359,-0.977,-1.221,-0.793,-6.608,-68.544,154.089,-24.333,-9.62,-17.46,26.6,0.21274,0.53561,-0.17206,0.79883,256,0.913,-0.123,-0.358,-2.93,0.244,1.404,-161.774,-67.599,-30.355,-29.8,-11.193,8.153,31.52,-0.01562,-0.81509,0.12808,-0.56467,262
65,0.931,-0.006,-0.412,-3.479,0.0,1.709,-179.583,-66.149,-36.321,-23.833,-12.553,1.053,29.24,-0.16635,-0.79721,0.25793,-0.51974,251,0.9,-0.043,0.441,-2.075,0.305,-1.465,-5.488,-63.781,-119.125,-25.52,-9.173,3.52,27.68,-0.4097,0.47543,0.23251,0.74289,239,0.927,-0.046,0.359,-1.221,-1.587,-0.916,-6.625,-68.516,154.127,-24.333,-9.62,-17.46,26.6,0.21274,0.53561,-0.17206,0.79883,257,0.913,-0.122,-0.358,-3.113,0.244,1.465,-161.779,-67.599,-30.295,-29.8,-11.193,8.153,31.52,-0.01562,-0.81509,0.12808,-0.56467,263
66,0.931,-0.007,-0.412,-3.357,0.0,1.709,-179.577,-66.143,-36.414,-23.833,-12.553,1.053,29.24,-0.16635,-0.79721,0.25793,-0.51974,264,0.902,-0.046,0.44,-1.709,0.488,-1.343,-5.455,-63.776,-119.185,-25.52,-9.173,3.52,27.68,-0.4097,0.47543,0.23251,0.74289,270,0.928,-0.046,0.359,-0.977,-1.221,-0.793,-6.608,-68.544,154.089,-24.333,-9.62,-17.46,26.6,0.21274,0.53561,-0.17206,0.79883,276,0.912,-0.123,-0.358,-2.93,0.244,1.404,-161.774,-67.599,-30.355,-29.8,-11.193,8.153,31.52,-0.01562,-0.81509,0.12808,-0.56467,288
67,0.931,-0.008,-0.412,-3.052,0.0,1.648,-179.566,-66.143,-36.508,-23.833,-12.553,1.053,29.24,-0.16635,-0.79721,0.25793,-0.51974,265,0.903,-0.047,0.44,-1.404,0.366,-1.16,-5.427,-63.77,-119.224,-25.52,-9.173,3.52,27.68,-0.4097,0.47543,0.23251,0.74289,271,0.929,-0.047,0.36,-0.732,-0.977,-0.488,-6.592,-68.566,154.045,-24.333,-9.62,-17.46,26.6,0.21274,0.53561,-0.17206,0.79883,277,0.912,-0.125,-0.359,-2.563,0.244,1.282,-161.768,-67.593,-30.416,-29.8,-11.193,8.153,31.52,-0.01562,-0.81509,0.12808,-0.56467,289
68,0.931,-0.009,-0.413,-2.747,-0.061,1.465,-179.555,-66.143,-36.59,-23.833,-12.553,1.053,29.24,-0.16635,-0.79721,0.25793,-0.51974,266,0.902,-0.047,0.442,-1.16,0.244,-0.916,-5.405,-63.77,-119.246,-25.52,-9.173,3.52,27.68,-0.4097,0.47543,0.23251,0.74289,272,0.928,-0.05,0.36,-0.732,-0.671,-0.427,-6.586,-68.582,154.006,-24.333,-9.62,-17.46,26.6,0.21274,0.53561,-0.17206,0.79883,278,0.912,-0.125,-0.36,-2.197,0.183,1.16,-161.757,-67.588,-30.487,-29.8,-11.193,8.153,31.52,-0.01562,-0.81509,0.12808,-0.56467,290
69,0.931,-0.008,-0.412,-3.052,0.0,1.648,-179.566,-66.143,-36.508,-23.833,-12.553,1.053,29.24,-0.16635,-0.79721,0.25793,-0.51974,267,0.903,-0.047,0.44,-1.404,0.366,-1.16,-5.427,-63.77,-119.224,-25.52,-9.173,3.52,27.68,-0.4097,0.47543,0.23251,0.74289,273,0.929,-0.047,0.36,-0.732,-0.977,-0.488,-6.592,-68.566,154.045,-24.333,-9.62,-17.46,26.6,0.21274,0.53561,-0.17206,0.79883,279,0.912,-0.125,-0.359,-2.563,0.244,1.282,-161.768,-67.593,-30.416,-29.8,-11.193,8.153,31.52,-0.01562,-0.81509,0.12808,-0.56467,291
70,0.931,-0.009,-0.413,-2.747,-0.061,1.465,-179.555,-66.143,-36.59,-23.833,-12.553,1.053,29.24,-0.16635,-0.79721,0.25793,-0.51974,268,0.902,-0.047,0.442,-1.16,0.244,-0.916,-5.405,-63.77,-119.246,-25.52,-9.173,3.52,27.68,-0.4097,0.47543,0.23251,0.74289,274,0.928,-0.05,0.36,-0.732,-0.671,-0.427,-6.586,-68.582,154.006,-24.333,-9.62,-17.46,26.6,0.21274,0.53561,-0.17206,0.79883,280,0.912,-0.125,-0.36,-2.197,0.183,1.16,-161.757,-67.588,-30.487,-29.8,-11.193,8.153,31.52,-0.01562,-0.81509,0.12808,-0.56467,292
71,0.931,-0.008,-0.412,-3.052,0.0,1.648,-179.566,-66.143,-36.508,-23.833,-12.553,1.053,29.24,-0.16635,-0.79721,0.25793,-0.51974,269,0.903,-0.047,0.44,-1.404,0.366,-1.16,-5.427,-63.77,-119.224,-25.52,-9.173,3.52,27.68,-0.4097,0.47543,0.23251,0.74289,275,0.929,-0.047,0.36,-0.732,-0.977,-0.488,-6.592,-68.566,154.045,-24.333,-9.62,-17.46,26.6,0.21274,0.53561,-0.17206,0.79883,281,0.912,-0.125,-0.359,-2.563,0.244,1.282,-161.768,-67.593,-30.416,-29.8,-11.193,8.153,31.52,-0.01562,-0.81509,0.12808,-0.56467,293
72,0.931,-0.009,-0.413,-2.747,-0.061,1.465,-179.555,-66.143,-36.59,-23.833,-12.553,1.053,29.24,-0.16635,-0.79721,0.25793,-0.51974,294,0.904,-0.047,0.442,-1.16,0.244,-0.916,-5.405,-63.77,-119.246,-25.52,-9.173,3.52,27.68,-0.4097,0.47543,0.23251,0.74289,300,0.928,-0.05,0.36,-0.732,-0.671,-0.427,-6.586,-68.582,154.006,-24.087,-9.993,-17.34,26.6,0.21274,0.53561,-0.17206,0.79883,282,0.912,-0.125,-0.36,-2.197,0.183,1.16,-161.757,-67.588,-30.487,-29.8,-11.193,8.153,31.52,-0.01562,-0.81509,0.12808,-0.56467,318
73,0.931,-0.01,-0.413,-2.441,-0.061,1.343,-179.539,-66.143,-36.672,-23.833,-12.553,1.053,29.24,-0.16635,-0.79721,0.25793,-0.51974,295,0.903,-0.049,0.443,-1.16,0.0,-0.854,-5.394,-63.77,-119.273,-25.52,-9.173,3.52,27.68,-0.4097,0.47543,0.23251,0.74289,301,0.927,-0.052,0.359,-0.732,-0.671,-0.549,-6.581,-68.599,153.968,-24.087,-9.993,-17.34,26.6,0.21274,0.53561,-0.17206,0.79883,283,0.912,-0.126,-0.361,-1.77,0.183,1.038,-161.746,-67.582,-30.569,-29.8,-11.193,8.153,31.52,-0.01562,-0.81509,0.12808,-0.56467,319
74,0.931,-0.011,-0.414,-1.953,-0.061,1.16,-179.522,-66.138,-36.738,-23.833,-12.553,1.053,29.24,-0.16635,-0.79721,0.25793,-0.51974,296,0.904,-0.051,0.442,-1.221,-0.244,-0.854,-5.389,-63.776,-119.312,-25.52,-9.173,3.52,27.68,-0.4097,0.47543,0.23251,0.74289,302,0.928,-0.051,0.36,-0.793,-0.61,-0.671,-6.575,-68.61,153.913,-24.087,-9.993,-17.34,26.6,0.21274,0.53561,-0.17206,0.79883,284,0.912,-0.125,-0.36,-1.465,0.183,0.854,-161.73,-67.577,-30.641,-29.8,-11.193,8.153,31.52,-0.01562,-0.81509,0.12808,-0.56467,320
75,0.931,-0.01,-0.413,-2.441,-0.061,1.343,-179.539,-66.143,-36.672,-23.833,-12.553,1.053,29.24,-0.16635,-0.79721,0.25793,-0.51974,297,0.903,-0.049,0.443,-1.16,0.0,-0.854,-5.394,-63.77,-119.273,-25.52,-9.173,3.52,27.68,-0.4097,0.47543,0.23251,0.74289,303,0.927,-0.052,0.359,-0.732,-0.671,-0.549,-6.581,-68.599,153.968,-24.087,-9.993,-17.34,26.6,0.21274,0.53561,-0.17206,0.79883,285,0.912,-0.126,-0.361,-1.77,0.183,1.038,-161.746,-67.582,-30.569,-29.8,-11.193,8.153,31.52,-0.01562,-0.81509,0.12808,-0.56467,321
76,0.931,-0.011,-0.414,-1.953,-0.061,1.16,-179.522,-66.138,-36.738,-23.833,-12.553,1.053,29.24,-0.16635,-0.79721,0.25793,-0.51974,298,0.904,-0.051,0.442,-1.221,-0.244,-0.854,-5.389,-63.776,-119.312,-25.52,-9.173,3.52,27.68,-0.4097,0.47543,0.23251,0.74289,304,0.928,-0.051,0.36,-0.793,-0.61,-0.671,-6.575,-68.61,153.913,-24.087,-9.993,-17.34,26.6,0.21274,0.53561,-0.17206,0.79883,286,0.912,-0.125,-0.36,-1.465,0.183,0.854,-161.73,-67.577,-30.641,-29.8,-11.193,8.153,31.52,-0.01562,-0.81509,0.12808,-0.56467,322
77,0.931,-0.01,-0.413,-2.441,-0.061,1.343,-179.539,-66.143,-36.672,-23.833,-12.553,1.053,29.24,-0.16635,-0.79721,0.25793,-0.51974,299,0.903,-0.049,0.443,-1.16,0.0,-0.854,-5.394,-63.77,-119.273,-25.52,-9.173,3.52,27.68,-0.4097,0.47543,0.23251,0.74289,305,0.927,-0.052,0.359,-0.732,-0.671,-0.549,-6.581,-68.599,153.968,-24.087,-9.993,-17.34,26.6,0.21274,0.53561,-0.17206,0.79883,287,0.912,-0.126,-0.361,-1.77,0.183,1.038,-161.746,-67.582,-30.569,-29.8,-11.193,8.153,31.52,-0.01562,-0.81509,0.12808,-0.56467,323
78,0.931,-0.011,-0.414,-1.953,-0.061,1.16,-179.522,-66.138,-36.738,-23.833,-12.553,1.053,29.24,-0.16635,-0.79721,0.25793,-0.51974,312,0.902,-0.051,0.442,-1.221,-0.244,-0.854,-5.389,-63.776,-119.312,-25.52,-9.173,3.52,27.68,-0.4097,0.47543,0.23251,0.74289,306,0.928,-0.051,0.36,-0.793,-0.61,-0.671,-6.575,-68.61,153.913,-24.087,-9.993,-17.34,26.6,0.21274,0.53561,-0.17206,0.79883,330,0.912,-0.125,-0.36,-1.465,0.183,0.854,-161.73,-67.577,-30.641,-29.8,-11.193,8.153,31.52,-0.01562,-0.81509,0.12808,-0.56467,324
79,0.931,-0.011,-0.414,-1.648,0.0,0.977,-179.506,-66.138,-36.799,-23.833,-12.553,1.053,29.24,-0.16635,-0.79721,0.25793,-0.51974,313,0.903,-0.051,0.442,-1.038,-0.427,-0.671,-5.389,-63.787,-119.35,-25.52,-9.173,3.52,27.68,-0.4097,0.47543,0.23251,0.74289,307,0.927,-0.05,0.357,-0.671,-0.793,-0.366,-6.575,-68.626,153.875,-24.087,-9.993,-17.34,26.6,0.21274,0.53561,-0.17206,0.79883,331,0.912,-0.126,-0.36,-1.16,0.122,0.732,-161.713,-67.577,-30.701,-29.8,-11.193,8.153,31.52,-0.01562,-0.81509,0.12808,-0.56467,325
80,0.931,-0.011,-0.414,-1.282,0.0,0.793,-179.489,-66.138,-36.854,-23.833,-12.553,1.053,29.24,-0.16635,-0.79721,0.25793,-0.51974,314,0.902,-0.051,0.439,-0.916,-0.427,-0.427,-5.394,-63.798,-119.366,-25.52,-9.173,3.52,27.68,-0.4097,0.47543,0.23251,0.74289,308,0.928,-0.052,0.357,-0.427,-0.427,-0.183,-6.586,-68.637,153.853,-24.087,-9.993,-17.34,26.6,0.21274,0.53561,-0.17206,0.79883,332,0.912,-0.126,-0.361,-0.854,0.122,0.61,-161.691,-67.571,-30.751,-29.8,-11.193,8.153,31.52,-0.01562,-0.81509,0.12808,-0.56467,326
81,0.931,-0.011,-0.414,-1.648,0.0,0.977,-179.506,-66.138,-36.799,-23.833,-12.553,1.053,29.24,-0.16635,-0.79721,0.25793,-0.51974,315,0.903,-0.051,0.442,-1.038,-0.427,-0.671,-5.389,-63.787,-119.35,-25.52,-9.173,3.52,27.68,-0.4097,0.47543,0.23251,0.74289,309,0.927,-0.05,0.357,-0.671,-0.793,-0.366,-6.575,-68.626,153.875,-24.087,-9.993,-17.34,26.6,0.21274,0.53561,-0.17206,0.79883,333,0.912,-0.126,-0.36,-1.16,0.122,0.732,-161.713,-67.577,-30.701,-29.8,-11.193,8.153,31.52,-0.01562,-0.81509,0.12808,-0.56467,327
82,0.931,-0.011,-0.414,-1.282,0.0,0.793,-179.489,-66.138,-36.854,-23.833,-12.553,1.053,29.24,-0.16635,-0.79721,0.25793,-0.51974,316,0.902,-0.051,0.439,-0.916,-0.427,-0.427,-5.394,-63.798,-119.366,-25.52,-9.173,3.52,27.68,-0.4097,0.47543,0.23251,0.74289,310,0.928,-0.052,0.357,-0.427,-0.427,-0.183,-6.586,-68.637,153.853,-24.087,-9.993,-17.34,26.6,0.21274,0.53561,-0.17206,0.79883,334,0.912,-0.126,-0.361,-0.854,0.122,0.61,-161.691,-67.571,-30.751,-29.8,-11.193,8.153,31.52,-0.01562,-0.81509,0.12808,-0.56467,328
83,0.931,-0.011,-0.414,-1.648,0.0,0.977,-179.506,-66.138,-36.799,-23.833,-12.553,1.053,29.24,-0.16635,-0.79721,0.25793,-0.51974,317,0.903,-0.051,0.442,-1.038,-0.427,-0.671,-5.389,-63.787,-119.35,-25.52,-9.173,3.52,27.68,-0.4097,0.47543,0.23251,0.74289,311,0.927,-0.05,0.357,-0.671,-0.793,-0.366,-6.575,-68.626,153.875,-24.087,-9.993,-17.34,26.6,0.21274,0.53561,-0.17206,0.79883,335,0.912,-0.126,-0.36,-1.16,0.122,0.732,-161.713,-67.577,-30.701,-29.8,-11.193,8.153,31.52,-0.01562,-0.81509,0.12808,-0.56467,329
84,0.931,-0.011,-0.414,-1.282,0.0,0.793,-179.489,-66.138,-36.854,-23.833,-12.553,1.053,29.24,-0.16635,-0.79721,0.25793,-0.51974,336,0.903,-0.051,0.439,-0.916,-0.427,-0.427,-5.394,-63.798,-119.366,-25.52,-9.173,3.52,27.68,-0.4097,0.47543,0.23251,0.74289,342,0.925,-0.052,0.357,-0.427,-0.427,-0.183,-6.586,-68.637,153.853,-24.087,-9.993,-17.34,26.6,0.2178,0.53748,-0.17331,0.79596,348,0.912,-0.126,-0.361,-0.854,0.122,0.61,-161.691,-67.571,-30.751,-29.8,-11.193,8.153,31.52,-0.01562,-0.81509,0.12808,-0.56467,366
85,0.93,-0.011,-0.414,-0.977,0.061,0.671,-179.473,-66.138,-36.909,-23.833,-12.553,1.053,29.24,-0.16635,-0.79721,0.25793,-0.51974,337,0.9,-0.052,0.44,-0.61,-0.488,-0.183,-5.411,-63.809,-119.383,-25.52,-9.173,3.52,27.68,-0.4097,0.47543,0.23251,0.74289,343,0.925,-0.052,0.357,-0.122,-0.488,-0.061,-6.603,-68.648,153.853,-24.087,-9.993,-17.34,26.6,0.2178,0.53748,-0.17331,0.79596,349,0.912,-0.127,-0.362,-0.427,0.122,0.427,-161.675,-67.566,-30.784,-29.8,-11.193,8.153,31.52,-0.01562,-0.81509,0.12808,-0.56467,367
86,0.931,-0.011,-0.415,-0.549,0.122,0.488,-179.456,-66.138,-36.964,-23.833,-12.553,1.053,29.24,-0.16635,-0.79721,0.25793,-0.51974,338,0.903,-0.052,0.44,-0.427,-0.488,-0.061,-5.427,-63.814,-119.388,-25.52,-9.173,3.52,27.68,-0.4097,0.47543,0.23251,0.74289,344,0.925,-0.052,0.357,0.183,-0.488,0.122,-6.619,-68.654,153.88,-24.087,-9.993,-17.34,26.6,0.2178,0.53748,-0.17331,0.79596,350,0.912,-0.126,-0.363,-0.122,0.061,0.305,-161.653,-67.566,-30.789,-29.8,-11.193,8.153,31.52,-0.01562,-0.81509,0.12808,-0.56467,368
87,0.93,-0.011,-0.414,-0.977,0.061,0.671,-179.473,-66.138,-36.909,-23.833,-12.553,1.053,29.24,-0.16635,-0.79721,0.25793,-0.51974,339,0.9,-0.052,0.44,-0.61,-0.488,-0.183,-5.411,-63.809,-119.383,-25.52,-9.173,3.52,27.68,-0.4097,0.47543,0.23251,0.74289,345,0.925,-0.052,0.357,-0.122,-0.488,-0.061,-6.603,-68.648,153.853,-24.087,-9.993,-17.34,26.6,0.2178,0.53748,-0.17331,0.79596,351,0.912,-0.127,-0.362,-0.427,0.122,0.427,-161.675,-67.566,-30.784,-29.8,-11.193,8.153,31.52,-0.01562,-0.81509,0.12808,-0.56467,369
88,0.931,-0.011,-0.415,-0.549,0.122,0.488,-179.456,-66.138,-36.964,-23.833,-12.553,1.053,29.24,-0.16635,-0.79721,0.25793,-0.51974,340,0.903,-0.052,0.44,-0.427,-0.488,-0.061,-5.427,-63.814,-119.388,-25.52,-9.173,3.52,27.68,-0.4097,0.47543,0.23251,0.74289,346,0.925,-0.052,0.357,0.183,-0.488,0.122,-6.619,-68.654,153.88,-24.087,-9.993,-17.34,26.6,0.2178,0.53748,-0.17331,0.79596,352,0.912,-0.126,-0.363,-0.122,0.061,0.305,-161.653,-67.566,-30.789,-29.8,-11.193,8.153,31.52,-0.01562,-0.81509,0.12808,-0.56467,370
89,0.93,-0.011,-0.414,-0.977,0.061,0.671,-179.473,-66.138,-36.909,-23.833,-12.553,1.053,29.24,-0.16635,-0.79721,0.25793,-0.51974,341,0.9,-0.052,0.44,-0.61,-0.488,-0.183,-5.411,-63.809,-119.383,-25.52,-9.173,3.52,27.68,-0.4097,0.47543,0.23251,0.74289,347,0.925,-0.052,0.357,-0.122,-0.488,-0.061,-6.603,-68.648,153.853,-24.087,-9.993,-17.34,26.6,0.2178,0.53748,-0.17331,0.79596,353,0.912,-0.127,-0.362,-0.427,0.122,0.427,-161.675,-67.566,-30.784,-29.8,-11.193,8.153,31.52,-0.01562,-0.81509,0.12808,-0.56467,371
90,0.93,-0.011,-0.415,-0.549,0.122,0.488,-179.456,-66.138,-36.964,-23.833,-12.553,1.053,29.24,-0.16635,-0.79721,0.25793,-0.51974,384,0.9,-0.052,0.44,-0.427,-0.488,-0.061,-5.427,-63.814,-119.388,-25.52,-9.173,3.52,27.68,-0.4097,0.47543,0.23251,0.74289,354,0.926,-0.052,0.357,0.183,-0.488,0.122,-6.619,-68.654,153.88,-24.087,-9.993,-17.34,26.6,0.2178,0.53748,-0.17331,0.79596,360,0.912,-0.126,-0.363,-0.122,0.061,0.305,-161.653,-67.566,-30.789,-29.8,-11.193,8.153,31.52,-0.01562,-0.81509,0.12808,-0.56467,378
91,0.93,-0.011,-0.415,-0.122,0.305,0.305,-179.434,-66.143,-37.018,-23.833,-12.553,1.053,29.24,-0.16635,-0.79721,0.25793,-0.51974,385,0.901,-0.052,0.44,-0.305,-0.244,0.061,-5.449,-63.82,-119.388,-25.52,-9.173,3.52,27.68,-0.4097,0.47543,0.23251,0.74289,355,0.933,-0.052,0.36,0.366,-0.854,0.488,-6.647,-68.67,153.891,-24.087,-9.993,-17.34,26.6,0.2178,0.53748,-0.17331,0.79596,361,0.912,-0.127,-0.361,0.183,-0.061,0.183,-161.631,-67.56,-30.8,-29.8,-11.193,8.153,31.52,-0.01562,-0.81509,0.12808,-0.56467,379
92,0.93,-0.011,-0.416,0.244,0.488,0.122,-179.412,-66.149,-37.046,-23.833,-12.553,1.053,29.24,-0.16635,-0.79721,0.25793,-0.51974,386,0.9,-0.052,0.44,0.0,-0.183,0.183,-5.466,-63.825,-119.372,-25.52,-9.173,3.52,27.68,-0.4097,0.47543,0.23251,0.74289,356,0.926,-0.051,0.366,0.366,-0.793,1.282,-6.702,-68.681,153.924,-24.087,-9.993,-17.34,26.6,0.2178,0.53748,-0.17331,0.79596,362,0.912,-0.133,-0.358,0.916,-0.183,0.0,-161.609,-67.555,-30.806,-29.8,-11.193,8.153,31.52,-0.01562,-0.81509,0.12808,-0.56467,380
93,0.93,-0.011,-0.415,-0.122,0.305,0.305,-179.434,-66.143,-37.018,-23.833,-12.553,1.053,29.24,-0.16635,-0.79721,0.25793,-0.51974,387,0.901,-0.052,0.44,-0.305,-0.244,0.061,-5.449,-63.82,-119.388,-25.52,-9.173,3.52,27.68,-0.4097,0.47543,0.23251,0.74289,357,0.933,-0.052,0.36,0.366,-0.854,0.488,-6.647,-68.67,153.891,-24.087,-9.993,-17.34,26.6,0.2178,0.53748,-0.17331,0.79596,363,0.912,-0.127,-0.361,0.183,-0.061,0.183,-161.631,-67.56,-30.8,-29.8,-11.193,8.153,31.52,-0.01562,-0.81509,0.12808,-0.56467,381
94,0.93,-0.011,-0.416,0.244,0.488,0.122,-179.412,-66.149,-37.046,-23.833,-12.553,1.053,29.24,-0.16635,-0.79721,0.25793,-0.51974,388,0.9,-0.052,0.44,0.0,-0.183,0.183,-5.466,-63.825,-119.372,-25.52,-9.173,3.52,27.68,-0.4097,0.47543,0.23251,0.74289,358,0.926,-0.051,0.366,0.366,-0.793,1.282,-6.702,-68.681,153.924,-24.087,-9.993,-17.34,26.6,0.2178,0.53748,-0.17331,0.79596,364,0.912,-0.133,-0.358,0.916,-0.183,0.0,-161.609,-67.555,-30.806,-29.8,-11.193,8.153,31.52,-0.01562,-0.81509,0.12808,-0.56467,382
95,0.93,-0.011,-0.415,-0.122,0.305,0.305,-179.434,-66.143,-37.018,-23.833,-12.553,1.053,29.24,-0.16635,-0.79721,0.25793,-0.51974,389,0.901,-0.052,0.44,-0.305,-0.244,0.061,-5.449,-63.82,-119.388,-25.52,-9.173,3.52,27.68,-0.4097,0.47543,0.23251,0.74289,359,0.933,-0.052,0.36,0.366,-0.854,0.488,-6.647,-68.67,153.891,-24.087,-9.993,-17.34,26.6,0.2178,0.53748,-0.17331,0.79596,365,0.912,-0.127,-0.361,0.183,-0.061,0.183,-161.631,-67.56,-30.8,-29.8,-11.193,8.153,31.52,-0.01562,-0.81509,0.12808,-0.56467,383
96,0.931,-0.011,-0.416,0.244,0.488,0.122,-179.412,-66.149,-37.046,-23.833,-12.553,1.053,29.24,-0.16635,-0.79721,0.25793,-0.51974,390,0.905,-0.052,0.44,0.0,-0.183,0.183,-5.466,-63.825,-119.372,-26.073,-8.933,3.673,27.68,-0.4097,0.47543,0.23251,0.74289,372,0.944,-0.051,0.366,0.366,-0.793,1.282,-6.702,-68.681,153.924,-24.087,-9.993,-17.34,26.6,0.2178,0.53748,-0.17331,0.79596,396,0.911,-0.133,-0.358,0.916,-0.183,0.0,-161.609,-67.555,-30.806,-29.8,-11.193,8.153,31.52,-0.01562,-0.81509,0.12808,-0.56467,402
97,0.931,-0.015,-0.413,0.427,0.61,-0.061,-179.396,-66.16,-37.073,-23.833,-12.553,1.053,29.24,-0.16635,-0.79721,0.25793,-0.51974,391,0.914,-0.056,0.443,0.305,-0.732,0.427,-5.493,-63.836,-119.339,-26.073,-8.933,3.673,27.68,-0.4097,0.47543,0.23251,0.74289,373,0.981,-0.051,0.373,0.0,-1.221,3.479,-6.839,-68.692,154.039,-24.087,-9.993,-17.34,26.6,0.2178,0.53748,-0.17331,0.79596,397,0.915,-0.134,-0.36,1.587,-0.061,-0.305,-161.581,-67.549,-30.8,-29.8,-11.193,8.153,31.52,-0.01562,-0.81509,0.12808,-0.56467,403
98,0.931,-0.018,-0.411,1.038,0.671,-0.427,-179.385,-66.171,-37.073,-23.833,-12.553,1.053,29.24,-0.16635,-0.79721,0.25793,-0.51974,392,0.905,-0.068,0.445,1.953,-2.808,1.587,-5.543,-63.891,-119.251,-26.073,-8.933,3.673,27.68,-0.4097,0.47543,0.23251,0.74289,374,0.944,-0.044,0.368,-3.174,-1.587,9.705,-7.224,-68.703,154.396,-24.087,-9.993,-17.34,26.6,0.2178,0.53748,-0.17331,0.79596,398,0.911,-0.129,-0.368,2.686,0.305,-0.427,-161.543,-67.549,-30.795,-29.8,-11.193,8.153,31.52,-0.01562,-0.81509,0.12808,-0.56467,404
99,0.931,-0.015,-0.413,0.427,0.61,-0.061,-179.396,-66.16,-37.073,-23.833,-12.553,1.053,29.24,-0.16635,-0.79721,0.25793,-0.51974,393,0.914,-0.056,0.443,0.305,-0.732,0.427,-5.493,-63.836,-119.339,-26.073,-8.933,3.673,27.68,-0.4097,0.47543,0.23251,0.74289,375,0.981,-0.051,0.373,0.0,-1.221,3.479,-6.839,-68.692,154.039,-24.087,-9.993,-17.34,26.6,0.2178,0.53748,-0.17331,0.79596,399,0.915,-0.134,-0.36,1.587,-0.061,-0.305,-161.581,-67.549,-30.8,-29.8,-11.193,8.153,31.52,-0.01562,-0.81509,0.12808,-0.56467,405
100,0.931,-0.018,-0.411,1.038,0.671,-0.427,-179.385,-66.171,-37.073,-23.833,-12.553,1.053,29.24,-0.16635,-0.79721,0.25793,-0.51974,394,0.905,-0.068,0.445,1.953,-2.808,1.587,-5.543,-63.891,-119.251,-26.073,-8.933,3.673,27.68,-0.4097,0.47543,0.23251,0.74289,376,0.944,-0.044,0.368,-3.174,-1.587,9.705,-7.224,-68.703,154.396,-24.087,-9.993,-17.34,26.6,0.2178,0.53748,-0.17331,0.79596,400,0.911,-0.129,-0.368,2.686,0.305,-0.427,-161.543,-67.549,-30.795,-29.8,-11.193,8.153,31.52,-0.01562,-0.81509,0.12808,-0.56467,406
101,0.931,-0.015,-0.413,0.427,0.61,-0.061,-179.396,-66.16,-37.073,-23.833,-12.553,1.053,29.24,-0.16635,-0.79721,0.25793,-0.51974,395,0.914,-0.056,0.443,0.305,-0.732,0.427,-5.493,-63.836,-119.339,-26.073,-8.933,3.673,27.68,-0.4097,0.47543,0.23251,0.74289,377,0.981,-0.051,0.373,0.0,-1.221,3.479,-6.839,-68.692,154.039,-24.087,-9.993,-17.34,26.6,0.2178,0.53748,-0.17331,0.79596,401,0.915,-0.134,-0.36,1.587,-0.061,-0.305,-161.581,-67.549,-30.8,-29.8,-11.193,8.153,31.52,-0.01562,-0.81509,0.12808,-0.56467,407
102,0.933,-0.018,-0.411,1.038,0.671,-0.427,-179.385,-66.171,-37.073,-23.787,-12.547,-0.053,29.24,-0.16635,-0.79721,0.25793,-0.51974,408,0.948,-0.068,0.445,1.953,-2.808,1.587,-5.543,-63.891,-119.251,-26.073,-8.933,3.673,27.68,-0.4097,0.47543,0.23251,0.74289,414,1.001,-0.044,0.368,-3.174,-1.587,9.705,-7.224,-68.703,154.396,-24.087,-9.993,-17.34,26.6,0.2178,0.53748,-0.17331,0.79596,426,0.915,-0.129,-0.368,2.686,0.305,-0.427,-161.543,-67.549,-30.795,-29.8,-11.193,8.153,31.52,-0.01562,-0.81509,0.12808,-0.56467,438
103,0.933,-0.015,-0.414,1.526,1.038,-0.671,-179.368,-66.187,-37.062,-23.787,-12.547,-0.053,29.24,-0.16635,-0.79721,0.25793,-0.51974,409,0.973,-0.084,0.436,2.747,-6.47,4.944,-5.74,-64.006,-118.998,-26.073,-8.933,3.673,27.68,-0.4097,0.47543,0.23251,0.74289,415,0.852,-0.054,0.358,-6.531,-2.563,19.348,-8.075,-68.708,155.187,-24.087,-9.993,-17.34,26.6,0.2178,0.53748,-0.17331,0.79596,427,0.915,-0.125,-0.374,3.784,0.854,-0.488,-161.477,-67.56,-30.806,-29.8,-11.193,8.153,31.52,-0.01562,-0.81509,0.12808,-0.56467,439
104,0.933,-0.011,-0.419,2.38,1.343,-0.854,-179.346,-66.209,-37.035,-23.787,-12.547,-0.053,29.24,-0.16635,-0.79721,0.25793,-0.51974,410,0.948,-0.083,0.401,6.226,-15.198,9.216,-6.081,-64.292,-118.504,-26.073,-8.933,3.673,27.68,-0.4097,0.47543,0.23251,0.74289,416,1.001,-0.057,0.323,-5.493,-1.282,10.62,-8.959,-68.703,156.0,-24.087,-9.993,-17.34,26.6,0.2178,0.53748,-0.17331,0.79596,428,0.915,-0.124,-0.371,4.211,0.732,-0.549,-161.4,-67.571,-30.822,-29.8,-11.193,8.153,31.52,-0.01562,-0.81509,0.12808,-0.56467,440
105,0.933,-0.015,-0.414,1.526,1.038,-0.671,-179.368,-66.187,-37.062,-23.787,-12.547,-0.053,29.24,-0.16635,-0.79721,0.25793,-0.51974,411,0.973,-0.084,0.436,2.747,-6.47,4.944,-5.74,-64.006,-118.998,-26.073,-8.933,3.673,27.68,-0.4097,0.47543,0.23251,0.74289,417,0.852,-0.054,0.358,-6.531,-2.563,19.348,-8.075,-68.708,155.187,-24.087,-9.993,-17.34,26.6,0.2178,0.53748,-0.17331,0.79596,429,0.915,-0.125,-0.374,3.784,0.854,-0.488,-161.477,-67.56,-30.806,-29.8,-11.193,8.153,31.52,-0.01562,-0.81509,0.12808,-0.56467,441
106,0.933,-0.011,-0.419,2.38,1.343,-0.854,-179.346,-66.209,-37.035,-23.787,-12.547,-0.053,29.24,-0.16635,-0.79721,0.25793,-0.51974,412,0.948,-0.083,0.401,6.226,-15.198,9.216,-6.081,-64.292,-118.504,-26.073,-8.933,3.673,27.68,-0.4097,0.47543,0.23251,0.74289,418,1.001,-0.057,0.323,-5.493,-1.282,10.62,-8.959,-68.703,156.0,-24.087,-9.993,-17.34,26.6,0.2178,0.53748,-0.17331,0.79596,430,0.915,-0.124,-0.371,4.211,0.732,-0.549,-161.4,-67.571,-30.822,-29.8,-11.193,8.153,31.52,-0.01562,-0.81509,0.12808,-0.56467,442
107,0.933,-0.015,-0.414,1.526,1.038,-0.671,-179.368,-66.187,-37.062,-23.787,-12.547,-0.053,29.24,-0.16635,-0.79721,0.25793,-0.51974,413,0.973,-0.084,0.436,2.747,-6.47,4.944,-5.74,-64.006,-118.998,-26.073,-8.933,3.673,27.68,-0.4097,0.47543,0.23251,0.74289,419,0.852,-0.054,0.358,-6.531,-2.563,19.348,-8.075,-68.708,155.187,-24.087,-9.993,-17.34,26.6,0.2178,0.53748,-0.17331,0.79596,431,0.915,-0.125,-0.374,3.784,0.854,-0.488,-161.477,-67.56,-30.806,-29.8,-11.193,8.153,31.52,-0.01562,-0.81509,0.12808,-0.56467,443
108,0.932,-0.011,-0.419,2.38,1.343,-0.854,-179.346,-66.209,-37.035,-23.787,-12.547,-0.053,29.24,-0.16635,-0.79721,0.25793,-0.51974,444,0.877,-0.083,0.401,6.226,-15.198,9.216,-6.081,-64.292,-118.504,-26.073,-8.933,3.673,27.68,-0.40683,0.47739,0.23196,0.74341,420,0.831,-0.057,0.323,-5.493,-1.282,10.62,-8.959,-68.703,156.0,-24.087,-9.993,-17.34,26.6,0.2178,0.53748,-0.17331,0.79596,432,0.905,-0.124,-0.371,4.211,0.732,-0.549,-161.4,-67.571,-30.822,-29.427,-10.347,7.693,31.52,-0.01562,-0.81509,0.12808,-0.56467,456
109,0.923,-0.01,-0.423,3.174,1.648,-0.977,-179.319,-66.237,-37.007,-23.787,-12.547,-0.053,29.24,-0.16635,-0.79721,0.25793,-0.51974,445,0.819,0.001,0.43,5.188,-17.7,8.728,-6.438,-64.627,-118.021,-26.073,-8.933,3.673,27.68,-0.40683,0.47739,0.23196,0.74341,421,0.922,-0.025,0.343,-6.714,3.418,-0.793,-9.305,-68.67,156.264,-24.087,-9.993,-17.34,26.6,0.2178,0.53748,-0.17331,0.79596,433,0.92,-0.122,-0.359,5.31,5.92,-0.977,-161.285,-67.632,-30.855,-29.427,-10.347,7.693,31.52,-0.01562,-0.81509,0.12808,-0.56467,457
110,0.932,-0.008,-0.417,3.601,2.014,-1.038,-179.28,-66.27,-36.98,-23.787,-12.547,-0.053,29.24,-0.16635,-0.79721,0.25793,-0.51974,446,0.877,-0.004,0.457,1.953,-5.31,5.371,-6.641,-64.715,-117.746,-26.073,-8.933,3.673,27.68,-0.40683,0.47739,0.23196,0.74341,422,0.831,-0.039,0.365,-10.437,2.014,3.967,-9.514,-68.61,156.33,-24.087,-9.993,-17.34,26.6,0.2178,0.53748,-0.17331,0.79596,434,0.905,-0.111,-0.352,3.845,0.977,-0.977,-161.18,-67.698,-30.872,-29.427,-10.347,7.693,31.52,-0.01562,-0.81509,0.12808,-0.56467,458
111,0.923,-0.01,-0.423,3.174,1.648,-0.977,-179.319,-66.237,-37.007,-23.787,-12.547,-0.053,29.24,-0.16635,-0.79721,0.25793,-0.51974,447,0.819,0.001,0.43,5.188,-17.7,8.728,-6.438,-64.627,-118.021,-26.073,-8.933,3.673,27.68,-0.40683,0.47739,0.23196,0.74341,423,0.922,-0.025,0.343,-6.714,3.418,-0.793,-9.305,-68.67,156.264,-24.087,-9.993,-17.34,26.6,0.2178,0.53748,-0.17331,0.79596,435,0.92,-0.122,-0.359,5.31,5.92,-0.977,-161.285,-67.632,-30.855,-29.427,-10.347,7.693,31.52,-0.01562,-0.81509,0.12808,-0.56467,459
112,0.932,-0.008,-0.417,3.601,2.014,-1.038,-179.28,-66.27,-36.98,-23.787,-12.547,-0.053,29.24,-0.16635,-0.79721,0.25793,-0.51974,448,0.877,-0.004,0.457,1.953,-5.31,5.371,-6.641,-64.715,-117.746,-26.073,-8.933,3.673,27.68,-0.40683,0.47739,0.23196,0.74341,424,0.831,-0.039,0.365,-10.437,2.014,3.967,-9.514,-68.61,156.33,-24.087,-9.993,-17.34,26.6,0.2178,0.53748,-0.17331,0.79596,436,0.905,-0.111,-0.352,3.845,0.977,-0.977,-161.18,-67.698,-30.872,-29.427,-10.347,7.693,31.52,-0.01562,-0.81509,0.12808,-0.56467,460
113,0.923,-0.01,-0.423,3.174,1.648,-0.977,-179.319,-66.237,-37.007,-23.787,-12.547,-0.053,29.24,-0.16635,-0.79721,0.25793,-0.51974,449,0.819,0.001,0.43,5.188,-17.7,8.728,-6.438,-64.627,-118.021,-26.073,-8.933,3.673,27.68,-0.40683,0.47739,0.23196,0.74341,425,0.922,-0.025,0.343,-6.714,3.418,-0.793,-9.305,-68.67,156.264,-24.087,-9.993,-17.34,26.6,0.2178,0.53748,-0.17331,0.79596,437,0.92,-0.122,-0.359,5.31,5.92,-0.977,-161.285,-67.632,-30.855,-29.427,-10.347,7.693,31.52,-0.01562,-0.81509,0.12808,-0.56467,461
114,0.926,-0.008,-0.417,3.601,2.014,-1.038,-179.28,-66.27,-36.98,-23.787,-12.547,-0.053,29.24,-0.16876,-0.7952,0.26282,-0.51959,462,0.883,-0.004,0.457,1.953,-5.31,5.371,-6.641,-64.715,-117.746,-26.073,-8.933,3.673,27.68,-0.40683,0.47739,0.23196,0.74341,450,0.936,-0.039,0.365,-10.437,2.014,3.967,-9.514,-68.61,156.33,-24.087,-9.993,-17.34,26.6,0.2178,0.53748,-0.17331,0.79596,468,0.915,-0.111,-0.352,3.845,0.977,-0.977,-161.18,-67.698,-30.872,-29.427,-10.347,7.693,31.52,-0.01562,-0.81509,0.12808,-0.56467,474
115,0.937,0.003,-0.409,3.601,1.16,-0.977,-179.247,-66.297,-36.953,-23.787,-12.547,-0.053,29.24,-0.16876,-0.7952,0.26282,-0.51959,463,0.911,-0.034,0.435,-1.404,4.333,4.272,-6.812,-64.611,-117.581,-26.073,-8.933,3.673,27.68,-0.40683,0.47739,0.23196,0.74341,451,0.918,-0.079,0.362,-7.69,2.441,1.099,-9.778,-68.56,156.429,-24.087,-9.993,-17.34,26.6,0.2178,0.53748,-0.17331,0.79596,469,0.91,-0.101,-0.341,2.808,-0.244,-0.305,-161.136,-67.703,-30.855,-29.427,-10.347,7.693,31.52,-0.01562,-0.81509,0.12808,-0.56467,475
116,0.926,0.007,-0.405,3.418,0.854,-0.793,-179.214,-66.308,-36.931,-23.787,-12.547,-0.053,29.24,-0.16876,-0.7952,0.26282,-0.51959,464,0.883,-0.032,0.412,-4.7,-1.953,3.113,-7.026,-64.633,-117.444,-26.073,-8.933,3.673,27.68,-0.40683,0.47739,0.23196,0.74341,452,0.936,-0.078,0.375,-4.333,0.122,-3.54,-9.805,-68.538,156.352,-24.087,-9.993,-17.34,26.6,0.2178,0.53748,-0.17331,0.79596,470,0.915,-0.108,-0.335,2.136,-0.793,-0.122,-161.109,-67.698,-30.833,-29.427,-10.347,7.693,31.52,-0.01562,-0.81509,0.12808,-0.56467,476
117,0.937,0.003,-0.409,3.601,1.16,-0.977,-179.247,-66.297,-36.953,-23.787,-12.547,-0.053,29.24,-0.16876,-0.7952,0.26282,-0.51959,465,0.911,-0.034,0.435,-1.404,4.333,4.272,-6.812,-64.611,-117.581,-26.073,-8.933,3.673,27.68,-0.40683,0.47739,0.23196,0.74341,453,0.918,-0.079,0.362,-7.69,2.441,1.099,-9.778,-68.56,156.429,-24.087,-9.993,-17.34,26.6,0.2178,0.53748,-0.17331,0.79596,471,0.91,-0.101,-0.341,2.808,-0.244,-0.305,-161.136,-67.703,-30.855,-29.427,-10.347,7.693,31.52,-0.01562,-0.81509,0.12808,-0.56467,477
118,0.926,0.007,-0.405,3.418,0.854,-0.793,-179.214,-66.308,-36.931,-23.787,-12.547,-0.053,29.24,-0.16876,-0.7952,0.26282,-0.51959,466,0.883,-0.032,0.412,-4.7,-1.953,3.113,-7.026,-64.633,-117.444,-26.073,-8.933,3.673,27.68,-0.40683,0.47739,0.23196,0.74341,454,0.936,-0.078,0.375,-4.333,0.122,-3.54,-9.805,-68.538,156.352,-24.087,-9.993,-17.34,26.6,0.2178,0.53748,-0.17331,0.79596,472,0.915,-0.108,-0.335,2.136,-0.793,-0.122,-161.109,-67.698,-30.833,-29.427,-10.347,7.693,31.52,-0.01562,-0.81509,0.12808,-0.56467,478
119,0.937,0.003,-0.409,3.601,1.16,-0.977,-179.247,-66.297,-36.953,-23.787,-12.547,-0.053,29.24,-0.16876,-0.7952,0.26282,-0.51959,467,0.911,-0.034,0.435,-1.404,4.333,4.272,-6.812,-64.611,-117.581,-26.073,-8.933,3.673,27.68,-0.40683,0.47739,0.23196,0.74341,455,0.918,-0.079,0.362,-7.69,2.441,1.099,-9.778,-68.56,156.429,-24.087,-9.993,-17.34,26.6,0.2178,0.53748,-0.17331,0.79596,473,0.91,-0.101,-0.341,2.808,-0.244,-0.305,-161.136,-67.703,-30.855,-29.427,-10.347,7.693,31.52,-0.01562,-0.81509,0.12808,-0.56467,479
120,0.925,0.007,-0.405,3.418,0.854,-0.793,-179.214,-66.308,-36.931,-23.787,-12.547,-0.053,29.24,-0.16876,-0.7952,0.26282,-0.51959,480,0.91,-0.032,0.412,-4.7,-1.953,3.113,-7.026,-64.633,-117.444,-26.073,-8.933,3.673,27.68,-0.40683,0.47739,0.23196,0.74341,486,0.898,-0.078,0.375,-4.333,0.122,-3.54,-9.805,-68.538,156.352,-24.087,-9.993,-17.34,26.6,0.2178,0.53748,-0.17331,0.79596,492,0.91,-0.108,-0.335,2.136,-0.793,-0.122,-161.109,-67.698,-30.833,-29.427,-10.347,7.693,31.52,-0.01492,-0.81396,0.12985,-0.56592,510
121,0.93,0.005,-0.397,2.869,-0.061,-0.427,-179.176,-66.313,-36.914,-23.787,-12.547,-0.053,29.24,-0.16876,-0.7952,0.26282,-0.51959,481,0.882,-0.046,0.456,-5.554,-0.977,0.916,-7.158,-64.644,-117.416,-26.073,-8.933,3.673,27.68,-0.40683,0.47739,0.23196,0.74341,487,0.906,-0.07,0.369,-3.967,-1.221,-3.479,-9.706,-68.56,156.187,-24.087,-9.993,-17.34,26.6,0.2178,0.53748,-0.17331,0.79596,493,0.91,-0.116,-0.332,1.526,-1.221,-0.061,-161.104,-67.681,-30.811,-29.427,-10.347,7.693,31.52,-0.01492,-0.81396,0.12985,-0.56592,511
122,0.925,-0.002,-0.393,2.502,-0.488,-0.305,-179.143,-66.302,-36.898,-23.787,-12.547,-0.053,29.24,-0.16876,-0.7952,0.26282,-0.51959,482,0.91,-0.058,0.436,-5.676,1.099,-0.793,-7.213,-64.616,-117.466,-26.073,-8.933,3.673,27.68,-0.40683,0.47739,0.23196,0.74341,488,0.898,-0.064,0.36,-1.892,-1.831,-2.014,-9.635,-68.593,156.077,-24.087,-9.993,-17.34,26.6,0.2178,0.53748,-0.17331,0.79596,494,0.91,-0.124,-0.334,1.16,-1.221,-0.122,-161.104,-67.659,-30.767,-29.427,-10.347,7.693,31.52,-0.01492,-0.81396,0.12985,-0.56592,512
123,0.93,0.005,-0.397,2.869,-0.061,-0.427,-179.176,-66.313,-36.914,-23.787,-12.547,-0.053,29.24,-0.16876,-0.7952,0.26282,-0.51959,483,0.882,-0.046,0.456,-5.554,-0.977,0.916,-7.158,-64.644,-117.416,-26.073,-8.933,3.673,27.68,-0.40683,0.47739,0.23196,0.74341,489,0.906,-0.07,0.369,-3.967,-1.221,-3.479,-9.706,-68.56,156.187,-24.087,-9.993,-17.34,26.6,0.2178,0.53748,-0.17331,0.79596,495,0.91,-0.116,-0.332,1.526,-1.221,-0.061,-161.104,-67.681,-30.811,-29.427,-10.347,7.693,31.52,-0.01492,-0.81396,0.12985,-0.56592,513
124,0.925,-0.002,-0.393,2.502,-0.488,-0.305,-179.143,-66.302,-36.898,-23.787,-12.547,-0.053,29.24,-0.16876,-0.7952,0.26282,-0.51959,484,0.91,-0.058,0.436,-5.676,1.099,-0.793,-7.213,-64.616,-117.466,-26.073,-8.933,3.673,27.68,-0.40683,0.47739,0.23196,0.74341,490,0.898,-0.064,0.36,-1.892,-1.831,-2.014,-9.635,-68.593,156.077,-24.087,-9.993,-17.34,26.6,0.2178,0.53748,-0.17331,0.79596,496,0.91,-0.124,-0.334,1.16,-1.221,-0.122,-161.104,-67.659,-30.767,-29.427,-10.347,7.693,31.52,-0.01492,-0.81396,0.12985,-0.56592,514
125,0.93,0.005,-0.397,2.869,-0.061,-0.427,-179.176,-66.313,-36.914,-23.787,-12.547,-0.053,29.24,-0.16876,-0.7952,0.26282,-0.51959,485,0.882,-0.046,0.456,-5.554,-0.977,0.916,-7.158,-64.644,-117.416,-26.073,-8.933,3.673,27.68,-0.40683,0.47739,0.23196,0.74341,491,0.906,-0.07,0.369,-3.967,-1.221,-3.479,-9.706,-68.56,156.187,-24.087,-9.993,-17.34,26.6,0.2178,0.53748,-0.17331,0.79596,497,0.91,-0.116,-0.332,1.526,-1.221,-0.061,-161.104,-67.681,-30.811,-29.427,-10.347,7.693,31.52,-0.01492,-0.81396,0.12985,-0.56592,515
126,0.93,-0.002,-0.393,2.502,-0.488,-0.305,-179.143,-66.302,-36.898,-23.787,-12.547,-0.053,29.24,-0.16876,-0.7952,0.26282,-0.51959,516,0.883,-0.058,0.436,-5.676,1.099,-0.793,-7.213,-64.616,-117.466,-26.073,-8.933,3.673,27.68,-0.40683,0.47739,0.23196,0.74341,498,0.912,-0.064,0.36,-1.892,-1.831,-2.014,-9.635,-68.593,156.077,-24.647,-9.62,-16.727,26.6,0.2178,0.53748,-0.17331,0.79596,504,0.91,-0.124,-0.334,1.16,-1.221,-0.122,-161.104,-67.659,-30.767,-29.427,-10.347,7.693,31.52,-0.01492,-0.81396,0.12985,-0.56592,528
127,0.93,-0.008,-0.389,2.075,-0.916,-0.305,-179.121,-66.286,-36.881,-23.787,-12.547,-0.053,29.24,-0.16876,-0.7952,0.26282,-0.51959,517,0.892,-0.062,0.427,-4.639,0.488,-1.038,-7.245,-64.6,-117.532,-26.073,-8.933,3.673,27.68,-0.40683,0.47739,0.23196,0.74341,499,0.916,-0.064,0.358,-1.953,-1.343,-1.038,-9.608,-68.626,156.039,-24.647,-9.62,-16.727,26.6,0.2178,0.53748,-0.17331,0.79596,505,0.911,-0.126,-0.34,0.977,-1.16,-0.244,-161.109,-67.643,-30.723,-29.427,-10.347,7.693,31.52,-0.01492,-0.81396,0.12985,-0.56592,529
128,0.93,-0.012,-0.391,1.892,-0.916,-0.366,-179.099,-66.275,-36.865,-23.787,-12.547,-0.053,29.24,-0.16876,-0.7952,0.26282,-0.51959,518,0.883,-0.059,0.434,-3.723,1.77,-0.549,-7.278,-64.561,-117.576,-26.073,-8.933,3.673,27.68,-0.40683,0.47739,0.23196,0.74341,500,0.912,-0.068,0.36,-2.502,-0.671,-1.343,-9.602,-68.643,155.995,-24.647,-9.62,-16.727,26.6,0.2178,0.53748,-0.17331,0.79596,506,0.91,-0.127,-0.345,1.038,-0.977,-0.366,-161.115,-67.632,-30.674,-29.427,-10.347,7.693,31.52,-0.01492,-0.81396,0.12985,-0.56592,530
129,0.93,-0.008,-0.389,2.075,-0.916,-0.305,-179.121,-66.286,-36.881,-23.787,-12.547,-0.053,29.24,-0.16876,-0.7952,0.26282,-0.51959,519,0.892,-0.062,0.427,-4.639,0.488,-1.038,-7.245,-64.6,-117.532,-26.073,-8.933,3.673,27.68,-0.40683,0.47739,0.23196,0.74341,501,0.916,-0.064,0.358,-1.953,-1.343,-1.038,-9.608,-68.626,156.039,-24.647,-9.62,-16.727,26.6,0.2178,0.53748,-0.17331,0.79596,507,0.911,-0.126,-0.34,0.977,-1.16,-0.244,-161.109,-67.643,-30.723,-29.427,-10.347,7.693,31.52,-0.01492,-0.81396,0.12985,-0.56592,531
130,0.93,-0.012,-0.391,1.892,-0.916,-0.366,-179.099,-66.275,-36.865,-23.787,-12.547,-0.053,29.24,-0.16876,-0.7952,0.26282,-0.51959,520,0.883,-0.059,0.434,-3.723,1.77,-0.549,-7.278,-64.561,-117.576,-26.073,-8.933,3.673,27.68,-0.40683,0.47739,0.23196,0.74341,502,0.912,-0.068,0.36,-2.502,-0.671,-1.343,-9.602,-68.643,155.995,-24.647,-9.62,-16.727,26.6,0.2178,0.53748,-0.17331,0.79596,508,0.91,-0.127,-0.345,1.038,-0.977,-0.366,-161.115,-67.632,-30.674,-29.427,-10.347,7.693,31.52,-0.01492,-0.81396,0.12985,-0.56592,532
131,0.93,-0.008,-0.389,2.075,-0.916,-0.305,-179.121,-66.286,-36.881,-23.787,-12.547,-0.053,29.24,-0.16876,-0.7952,0.26282,-0.51959,521,0.892,-0.062,0.427,-4.639,0.488,-1.038,-7.245,-64.6,-117.532,-26.073,-8.933,3.673,27.68,-0.40683,0.47739,0.23196,0.74341,503,0.916,-0.064,0.358,-1.953,-1.343,-1.038,-9.608,-68.626,156.039,-24.647,-9.62,-16.727,26.6,0.2178,0.53748,-0.17331,0.79596,509,0.911,-0.126,-0.34,0.977,-1.16,-0.244,-161.109,-67.643,-30.723,-29.427,-10.347,7.693,31.52,-0.01492,-0.81396,0.12985,-0.56592,533
132,0.931,-0.012,-0.391,1.892,-0.916,-0.366,-179.099,-66.275,-36.865,-23.787,-12.547,-0.053,29.24,-0.16876,-0.7952,0.26282,-0.51959,534,0.902,-0.059,0.434,-3.723,1.77,-0.549,-7.278,-64.561,-117.576,-26.073,-8.933,3.673,27.68,-0.40683,0.47739,0.23196,0.74341,522,0.923,-0.068,0.36,-2.502,-0.671,-1.343,-9.602,-68.643,155.995,-24.647,-9.62,-16.727,26.6,0.2178,0.53748,-0.17331,0.79596,540,0.912,-0.127,-0.345,1.038,-0.977,-0.366,-161.115,-67.632,-30.674,-29.427,-10.347,7.693,31.52,-0.01492,-0.81396,0.12985,-0.56592,546
133,0.932,-0.012,-0.396,1.709,-0.732,-0.488,-179.088,-66.264,-36.843,-23.787,-12.547,-0.053,29.24,-0.16876,-0.7952,0.26282,-0.51959,535,0.905,-0.064,0.431,-4.272,2.38,-0.488,-7.322,-64.506,-117.609,-26.073,-8.933,3.673,27.68,-0.40683,0.47739,0.23196,0.74341,523,0.926,-0.07,0.361,-2.075,-1.648,-1.282,-9.597,-68.665,155.951,-24.647,-9.62,-16.727,26.6,0.2178,0.53748,-0.17331,0.79596,541,0.914,-0.126,-0.351,0.977,-0.916,-0.488,-161.125,-67.621,-30.63,-29.427,-10.347,7.693,31.52,-0.01492,-0.81396,0.12985,-0.56592,547
134,0.931,-0.011,-0.402,1.587,-0.549,-0.671,-179.083,-66.259,-36.826,-23.787,-12.547,-0.053,29.24,-0.16876,-0.7952,0.26282,-0.51959,536,0.902,-0.066,0.428,-2.991,1.77,0.0,-7.372,-64.457,-117.636,-26.073,-8.933,3.673,27.68,-0.40683,0.47739,0.23196,0.74341,524,0.923,-0.069,0.357,-1.221,-1.343,-0.488,-9.602,-68.692,155.956,-24.647,-9.62,-16.727,26.6,0.2178,0.53748,-0.17331,0.79596,542,0.912,-0.124,-0.356,1.099,-0.793,-0.549,-161.136,-67.615,-30.597,-29.427,-10.347,7.693,31.52,-0.01492,-0.81396,0.12985,-0.56592,548
135,0.932,-0.012,-0.396,1.709,-0.732,-0.488,-179.088,-66.264,-36.843,-23.787,-12.547,-0.053,29.24,-0.16876,-0.7952,0.26282,-0.51959,537,0.905,-0.064,0.431,-4.272,2.38,-0.488,-7.322,-64.506,-117.609,-26.073,-8.933,3.673,27.68,-0.40683,0.47739,0.23196,0.74341,525,0.926,-0.07,0.361,-2.075,-1.648,-1.282,-9.597,-68.665,155.951,-24.647,-9.62,-16.727,26.6,0.2178,0.53748,-0.17331,0.79596,543,0.914,-0.126,-0.351,0.977,-0.916,-0.488,-161.125,-67.621,-30.63,-29.427,-10.347,7.693,31.52,-0.01492,-0.81396,0.12985,-0.56592,549
136,0.931,-0.011,-0.402,1.587,-0.549,-0.671,-179.083,-66.259,-36.826,-23.787,-12.547,-0.053,29.24,-0.16876,-0.7952,0.26282,-0.51959,538,0.902,-0.066,0.428,-2.991,1.77,0.0,-7.372,-64.457,-117.636,-26.073,-8.933,3.673,27.68,-0.40683,0.47739,0.23196,0.74341,526,0.923,-0.069,0.357,-1.221,-1.343,-0.488,-9.602,-68.692,155.956,-24.647,-9.62,-16.727,26.6,0.2178,0.53748,-0.17331,0.79596,544,0.912,-0.124,-0.356,1.099,-0.793,-0.549,-161.136,-67.615,-30.597,-29.427,-10.347,7.693,31.52,-0.01492,-0.81396,0.12985,-0.56592,550
137,0.932,-0.012,-0.396,1.709,-0.732,-0.488,-179.088,-66.264,-36.843,-23.787,-12.547,-0.053,29.24,-0.16876,-0.7952,0.26282,-0.51959,539,0.905,-0.064,0.431,-4.272,2.38,-0.488,-7.322,-64.506,-117.609,-26.073,-8.933,3.673,27.68,-0.40683,0.47739,0.23196,0.74341,527,0.926,-0.07,0.361,-2.075,-1.648,-1.282,-9.597,-68.665,155.951,-24.647,-9.62,-16.727,26.6,0.2178,0.53748,-0.17331,0.79596,545,0.914,-0.126,-0.351,0.977,-0.916,-0.488,-161.125,-67.621,-30.63,-29.427,-10.347,7.693,31.52,-0.01492,-0.81396,0.12985,-0.56592,551
138,0.933,-0.011,-0.402,1.587,-0.549,-0.671,-179.083,-66.259,-36.826,-23.787,-12.547,-0.053,29.24,-0.16876,-0.7952,0.26282,-0.51959,564,0.907,-0.066,0.428,-2.991,1.77,0.0,-7.372,-64.457,-117.636,-26.073,-8.933,3.673,27.68,-0.40683,0.47739,0.23196,0.74341,552,0.927,-0.069,0.357,-1.221,-1.343,-0.488,-9.602,-68.692,155.956,-24.647,-9.62,-16.727,26.6,0.21744,0.53519,-0.18454,0.79507,558,0.914,-0.124,-0.356,1.099,-0.793,-0.549,-161.136,-67.615,-30.597,-29.427,-10.347,7.693,31.52,-0.01492,-0.81396,0.12985,-0.56592,582
139,0.932,-0.011,-0.406,1.343,-0.488,-0.732,-179.088,-66.253,-36.799,-23.787,-12.547,-0.053,29.24,-0.16876,-0.7952,0.26282,-0.51959,565,0.914,-0.068,0.433,-2.563,1.526,0.244,-7.421,-64.418,-117.653,-26.073,-8.933,3.673,27.68,-0.40683,0.47739,0.23196,0.74341,553,0.937,-0.074,0.357,-0.793,-2.258,0.0,-9.63,-68.719,156.0,-24.647,-9.62,-16.727,26.6,0.21744,0.53519,-0.18454,0.79507,559,0.914,-0.121,-0.362,0.793,-0.732,-0.61,-161.153,-67.61,-30.553,-29.427,-10.347,7.693,31.52,-0.01492,-0.81396,0.12985,-0.56592,583
140,0.933,-0.008,-0.414,1.16,-0.488,-0.793,-179.099,-66.248,-36.76,-23.787,-12.547,-0.053,29.24,-0.16876,-0.7952,0.26282,-0.51959,566,0.907,-0.064,0.429,-2.441,1.709,0.0,-7.471,-64.385,-117.669,-26.073,-8.933,3.673,27.68,-0.40683,0.47739,0.23196,0.74341,554,0.927,-0.073,0.353,-0.305,-2.991,-1.343,-9.641,-68.769,156.055,-24.647,-9.62,-16.727,26.6,0.21744,0.53519,-0.18454,0.79507,560,0.914,-0.117,-0.37,0.244,-0.671,-0.549,-161.175,-67.604,-30.515,-29.427,-10.347,7.693,31.52,-0.01492,-0.81396,0.12985,-0.56592,584
141,0.932,-0.011,-0.406,1.343,-0.488,-0.732,-179.088,-66.253,-36.799,-23.787,-12.547,-0.053,29.24,-0.16876,-0.7952,0.26282,-0.51959,567,0.914,-0.068,0.433,-2.563,1.526,0.244,-7.421,-64.418,-117.653,-26.073,-8.933,3.673,27.68,-0.40683,0.47739,0.23196,0.74341,555,0.937,-0.074,0.357,-0.793,-2.258,0.0,-9.63,-68.719,156.0,-24.647,-9.62,-16.727,26.6,0.21744,0.53519,-0.18454,0.79507,561,0.914,-0.121,-0.362,0.793,-0.732,-0.61,-161.153,-67.61,-30.553,-29.427,-10.347,7.693,31.52,-0.01492,-0.81396,0.12985,-0.56592,585
142,0.933,-0.008,-0.414,1.16,-0.488,-0.793,-179.099,-66.248,-36.76,-23.787,-12.547,-0.053,29.24,-0.16876,-0.7952,0.26282,-0.51959,568,0.907,-0.064,0.429,-2.441,1.709,0.0,-7.471,-64.385,-117.669,-26.073,-8.933,3.673,27.68,-0.40683,0.47739,0.23196,0.74341,556,0.927,-0.073,0.353,-0.305,-2.991,-1.343,-9.641,-68.769,156.055,-24.647,-9.62,-16.727,26.6,0.21744,0.53519,-0.18454,0.79507,562,0.914,-0.117,-0.37,0.244,-0.671,-0.549,-161.175,-67.604,-30.515,-29.427,-10.347,7.693,31.52,-0.01492,-0.81396,0.12985,-0.56592,586
143,0.932,-0.011,-0.406,1.343,-0.488,-0.732,-179.088,-66.253,-36.799,-23.787,-12.547,-0.053,29.24,-0.16876,-0.7952,0.26282,-0.51959,569,0.914,-0.068,0.433,-2.563,1.526,0.244,-7.421,-64.418,-117.653,-26.073,-8.933,3.673,27.68,-0.40683,0.47739,0.23196,0.74341,557,0.937,-0.074,0.357,-0.793,-2.258,0.0,-9.63,-68.719,156.0,-24.647,-9.62,-16.727,26.6,0.21744,0.53519,-0.18454,0.79507,563,0.914,-0.121,-0.362,0.793,-0.732,-0.61,-161.153,-67.61,-30.553,-29.427,-10.347,7.693,31.52,-0.01492,-0.81396,0.12985,-0.56592,587
144,0.931,-0.008,-0.414,1.16,-0.488,-0.793,-179.099,-66.248,-36.76,-23.787,-12.547,-0.053,29.24,-0.16876,-0.7952,0.26282,-0.51959,588,0.916,-0.064,0.429,-2.441,1.709,0.0,-7.471,-64.385,-117.669,-26.073,-8.933,3.673,27.68,-0.40683,0.47739,0.23196,0.74341,570,0.938,-0.073,0.353,-0.305,-2.991,-1.343,-9.641,-68.769,156.055,-24.647,-9.62,-16.727,26.6,0.21744,0.53519,-0.18454,0.79507,576,0.914,-0.117,-0.37,0.244,-0.671,-0.549,-161.175,-67.604,-30.515,-29.427,-10.347,7.693,31.52,-0.01492,-0.81396,0.12985,-0.56592,600
145,0.93,-0.005,-0.42,0.793,-0.488,-0.793,-179.116,-66.237,-36.738,-23.787,-12.547,-0.053,29.24,-0.16876,-0.7952,0.26282,-0.51959,589,0.915,-0.058,0.427,-2.258,0.61,-0.183,-7.515,-64.352,-117.691,-26.073,-8.933,3.673,27.68,-0.40683,0.47739,0.23196,0.74341,571,0.936,-0.059,0.355,0.061,-3.174,-1.465,-9.613,-68.829,156.055,-24.647,-9.62,-16.727,26.6,0.21744,0.53519,-0.18454,0.79507,577,0.915,-0.111,-0.368,-0.183,-0.732,-0.488,-161.213,-67.593,-30.476,-29.427,-10.347,7.693,31.52,-0.01492,-0.81396,0.12985,-0.56592,601
146,0.931,-0.001,-0.42,0.244,-0.427,-0.671,-179.138,-66.231,-36.716,-23.787,-12.547,-0.053,29.24,-0.16876,-0.7952,0.26282,-0.51959,590,0.916,-0.049,0.428,-1.953,-0.244,-0.183,-7.553,-64.347,-117.719,-26.073,-8.933,3.673,27.68,-0.40683,0.47739,0.23196,0.74341,572,0.938,-0.052,0.35,0.0,-4.028,-0.61,-9.613,-68.906,156.083,-24.647,-9.62,-16.727,26.6,0.21744,0.53519,-0.18454,0.79507,578,0.914,-0.107,-0.371,-0.671,-0.671,-0.305,-161.257,-67.582,-30.454,-29.427,-10.347,7.693,31.52,-0.01492,-0.81396,0.12985,-0.56592,602
147,0.93,-0.005,-0.42,0.793,-0.488,-0.793,-179.116,-66.237,-36.738,-23.787,-12.547,-0.053,29.24,-0.16876,-0.7952,0.26282,-0.51959,591,0.915,-0.058,0.427,-2.258,0.61,-0.183,-7.515,-64.352,-117.691,-26.073,-8.933,3.673,27.68,-0.40683,0.47739,0.23196,0.74341,573,0.936,-0.059,0.355,0.061,-3.174,-1.465,-9.613,-68.829,156.055,-24.647,-9.62,-16.727,26.6,0.21744,0.53519,-0.18454,0.79507,579,0.915,-0.111,-0.368,-0.183,-0.732,-0.488,-161.213,-67.593,-30.476,-29.427,-10.347,7.693,31.52,-0.01492,-0.81396,0.12985,-0.56592,603
148,0.931,-0.001,-0.42,0.244,-0.427,-0.671,-179.138,-66.231,-36.716,-23.787,-12.547,-0.053,29.24,-0.16876,-0.7952,0.26282,-0.51959,592,0.916,-0.049,0.428,-1.953,-0.244,-0.183,-7.553,-64.347,-117.719,-26.073,-8.933,3.673,27.68,-0.40683,0.47739,0.23196,0.74341,574,0.938,-0.052,0.35,0.0,-4.028,-0.61,-9.613,-68.906,156.083,-24.647,-9.62,-16.727,26.6,0.21744,0.53519,-0.18454,0.79507,580,0.914,-0.107,-0.371,-0.671,-0.671,-0.305,-161.257,-67.582,-30.454,-29.427,-10.347,7.693,31.52,-0.01492,-0.81396,0.12985,-0.56592,604
149,0.93,-0.005,-0.42,0.793,-0.488,-0.793,-179.116,-66.237,-36.738,-23.787,-12.547,-0.053,29.24,-0.16876,-0.7952,0.26282,-0.51959,593,0.915,-0.058,0.427,-2.258,0.61,-0.183,-7.515,-64.352,-117.691,-26.073,-8.933,3.673,27.68,-0.40683,0.47739,0.23196,0.74341,575,0.936,-0.059,0.355,0.061,-3.174,-1.465,-9.613,-68.829,156.055,-24.647,-9.62,-16.727,26.6,0.21744,0.53519,-0.18454,0.79507,581,0.915,-0.111,-0.368,-0.183,-0.732,-0.488,-161.213,-67.593,-30.476,-29.427,-10.347,7.693,31.52,-0.01492,-0.81396,0.12985,-0.56592,605
150,0.93,-0.001,-0.42,0.244,-0.427,-0.671,-179.138,-66.231,-36.716,-23.787,-12.547,-0.053,29.24,-0.16876,-0.7952,0.26282,-0.51959,618,0.914,-0.049,0.428,-1.953,-0.244,-0.183,-7.553,-64.347,-117.719,-26.213,-8.887,3.167,27.68,-0.40683,0.47739,0.23196,0.74341,594,0.934,-0.052,0.35,0.0,-4.028,-0.61,-9.613,-68.906,156.083,-24.647,-9.62,-16.727,26.6,0.21744,0.53519,-0.18454,0.79507,606,0.914,-0.107,-0.371,-0.671,-0.671,-0.305,-161.257,-67.582,-30.454,-29.427,-10.347,7.693,31.52,-0.01492,-0.81396,0.12985,-0.56592,612
151,0.93,0.003,-0.421,-0.244,-0.366,-0.488,-179.171,-66.226,-36.7,-23.787,-12.547,-0.053,29.24,-0.16876,-0.7952,0.26282,-0.51959,619,0.91,-0.041,0.424,-2.869,-0.61,-0.549,-7.586,-64.352,-117.74,-26.213,-8.887,3.167,27.68,-0.40683,0.47739,0.23196,0.74341,595,0.93,-0.051,0.346,0.061,-4.517,-1.526,-9.591,-68.994,156.088,-24.647,-9.62,-16.727,26.6,0.21744,0.53519,-0.18454,0.79507,607,0.913,-0.107,-0.373,-0.854,-0.427,-0.122,-161.296,-67.571,-30.454,-29.427,-10.347,7.693,31.52,-0.01492,-0.81396,0.12985,-0.56592,613
152,0.93,0.003,-0.421,-0.61,-0.183,-0.244,-179.193,-66.22,-36.7,-23.787,-12.547,-0.053,29.24,-0.16876,-0.7952,0.26282,-0.51959,620,0.914,-0.046,0.425,-2.869,-0.916,-1.099,-7.614,-64.374,-117.784,-26.213,-8.887,3.167,27.68,-0.40683,0.47739,0.23196,0.74341,596,0.934,-0.052,0.345,0.061,-5.066,-2.075,-9.536,-69.093,156.039,-24.647,-9.62,-16.727,26.6,0.21744,0.53519,-0.18454,0.79507,608,0.914,-0.109,-0.374,-0.977,-0.366,0.0,-161.34,-67.56,-30.46,-29.427,-10.347,7.693,31.52,-0.01492,-0.81396,0.12985,-0.56592,614
153,0.93,0.003,-0.421,-0.244,-0.366,-0.488,-179.171,-66.226,-36.7,-23.787,-12.547,-0.053,29.24,-0.16876,-0.7952,0.26282,-0.51959,621,0.91,-0.041,0.424,-2.869,-0.61,-0.549,-7.586,-64.352,-117.74,-26.213,-8.887,3.167,27.68,-0.40683,0.47739,0.23196,0.74341,597,0.93,-0.051,0.346,0.061,-4.517,-1.526,-9.591,-68.994,156.088,-24.647,-9.62,-16.727,26.6,0.21744,0.53519,-0.18454,0.79507,609,0.913,-0.107,-0.373,-0.854,-0.427,-0.122,-161.296,-67.571,-30.454,-29.427,-10.347,7.693,31.52,-0.01492,-0.81396,0.12985,-0.56592,615
154,0.93,0.003,-0.421,-0.61,-0.183,-0.244,-179.193,-66.22,-36.7,-23.787,-12.547,-0.053,29.24,-0.16876,-0.7952,0.26282,-0.51959,622,0.914,-0.046,0.425,-2.869,-0.916,-1.099,-7.614,-64.374,-117.784,-26.213,-8.887,3.167,27.68,-0.40683,0.47739,0.23196,0.74341,598,0.934,-0.052,0.345,0.061,-5.066,-2.075,-9.536,-69.093,156.039,-24.647,-9.62,-16.727,26.6,0.21744,0.53519,-0.18454,0.79507,610,0.914,-0.109,-0.374,-0.977,-0.366,0.0,-161.34,-67.56,-30.46,-29.427,-10.347,7.693,31.52,-0.01492,-0.81396,0.12985,-0.56592,616
155,0.93,0.003,-0.421,-0.244,-0.366,-0.488,-179.171,-66.226,-36.7,-23.787,-12.547,-0.053,29.24,-0.16876,-0.7952,0.26282,-0.51959,623,0.91,-0.041,0.424,-2.869,-0.61,-0.549,-7.586,-64.352,-117.74,-26.213,-8.887,3.167,27.68,-0.40683,0.47739,0.23196,0.74341,599,0.93,-0.051,0.346,0.061,-4.517,-1.526,-9.591,-68.994,156.088,-24.647,-9.62,-16.727,26.6,0.21744,0.53519,-0.18454,0.79507,611,0.913,-0.107,-0.373,-0.854,-0.427,-0.122,-161.296,-67.571,-30.454,-29.427,-10.347,7.693,31.52,-0.01492,-0.81396,0.12985,-0.56592,617
156,0.929,0.003,-0.421,-0.61,-0.183,-0.244,-179.193,-66.22,-36.7,-23.787,-12.547,-0.053,29.24,-0.16876,-0.7952,0.26282,-0.51959,624,0.911,-0.046,0.425,-2.869,-0.916,-1.099,-7.614,-64.374,-117.784,-26.213,-8.887,3.167,27.68,-0.40683,0.47739,0.23196,0.74341,630,0.932,-0.052,0.345,0.061,-5.066,-2.075,-9.536,-69.093,156.039,-24.647,-9.62,-16.727,26.6,0.21744,0.53519,-0.18454,0.79507,636,0.913,-0.109,-0.374,-0.977,-0.366,0.0,-161.34,-67.56,-30.46,-29.427,-10.347,7.693,31.52,-0.01492,-0.81396,0.12985,-0.56592,654
157,0.929,0.001,-0.422,-0.671,0.244,-0.061,-179.214,-66.22,-36.705,-23.787,-12.547,-0.053,29.24,-0.16876,-0.7952,0.26282,-0.51959,625,0.909,-0.047,0.425,-3.113,-0.427,-1.709,-7.619,-64.391,-117.856,-26.213,-8.887,3.167,27.68,-0.40683,0.47739,0.23196,0.74341,631,0.932,-0.054,0.344,-0.183,-5.737,-2.075,-9.476,-69.208,155.989,-24.647,-9.62,-16.727,26.6,0.21744,0.53519,-0.18454,0.79507,637,0.913,-0.111,-0.367,-1.221,-0.183,0.183,-161.373,-67.555,-30.46,-29.427,-10.347,7.693,31.52,-0.01492,-0.81396,0.12985,-0.56592,655
158,0.929,0.0,-0.418,-1.16,0.549,0.122,-179.242,-66.226,-36.716,-23.787,-12.547,-0.053,29.24,-0.16876,-0.7952,0.26282,-0.51959,626,0.911,-0.055,0.423,-2.747,-0.244,-2.136,-7.597,-64.407,-117.949,-26.213,-8.887,3.167,27.68,-0.40683,0.47739,0.23196,0.74341,632,0.932,-0.057,0.336,-0.122,-6.897,-2.441,-9.415,-69.346,155.94,-24.647,-9.62,-16.727,26.6,0.21744,0.53519,-0.18454,0.79507,638,0.913,-0.114,-0.367,-1.16,-0.183,0.244,-161.406,-67.544,-30.471,-29.427,-10.347,7.693,31.52,-0.01492,-0.81396,0.12985,-0.56592,656
159,0.929,0.001,-0.422,-0.671,0.244,-0.061,-179.214,-66.22,-36.705,-23.787,-12.547,-0.053,29.24,-0.16876,-0.7952,0.26282,-0.51959,627,0.909,-0.047,0.425,-3.113,-0.427,-1.709,-7.619,-64.391,-117.856,-26.213,-8.887,3.167,27.68,-0.40683,0.47739,0.23196,0.74341,633,0.932,-0.054,0.344,-0.183,-5.737,-2.075,-9.476,-69.208,155.989,-24.647,-9.62,-16.727,26.6,0.21744,0.53519,-0.18454,0.79507,639,0.913,-0.111,-0.367,-1.221,-0.183,0.183,-161.373,-67.555,-30.46,-29.427,-10.347,7.693,31.52,-0.01492,-0.81396,0.12985,-0.56592,657
160,0.929,0.0,-0.418,-1.16,0.549,0.122,-179.242,-66.226,-36.716,-23.787,-12.547,-0.053,29.24,-0.16876,-0.7952,0.26282,-0.51959,628,0.911,-0.055,0.423,-2.747,-0.244,-2.136,-7.597,-64.407,-117.949,-26.213,-8.887,3.167,27.68,-0.40683,0.47739,0.23196,0.74341,634,0.932,-0.057,0.336,-0.122,-6.897,-2.441,-9.415,-69.346,155.94,-24.647,-9.62,-16.727,26.6,0.21744,0.53519,-0.18454,0.79507,640,0.913,-0.114,-0.367,-1.16,-0.183,0.244,-161.406,-67.544,-30.471,-29.427,-10.347,7.693,31.52,-0.01492,-0.81396,0.12985,-0.56592,658
161,0.929,0.001,-0.422,-0.671,0.244,-0.061,-179.214,-66.22,-36.705,-23.787,-12.547,-0.053,29.24,-0.16876,-0.7952,0.26282,-0.51959,629,0.909,-0.047,0.425,-3.113,-0.427,-1.709,-7.619,-64.391,-117.856,-26.213,-8.887,3.167,27.68,-0.40683,0.47739,0.23196,0.74341,635,0.932,-0.054,0.344,-0.183,-5.737,-2.075,-9.476,-69.208,155.989,-24.647,-9.62,-16.727,26.6,0.21744,0.53519,-0.18454,0.79507,641,0.913,-0.111,-0.367,-1.221,-0.183,0.183,-161.373,-67.555,-30.46,-29.427,-10.347,7.693,31.52,-0.01492,-0.81396,0.12985,-0.56592,659
162,0.93,0.0,-0.418,-1.16,0.549,0.122,-179.242,-66.226,-36.716,-24.073,-12.26,0.467,29.24,-0.16876,-0.7952,0.26282,-0.51959,660,0.911,-0.055,0.423,-2.747,-0.244,-2.136,-7.597,-64.407,-117.949,-26.213,-8.887,3.167,27.68,-0.4057,0.48425,0.22632,0.74133,642,0.938,-0.057,0.336,-0.122,-6.897,-2.441,-9.415,-69.346,155.94,-24.647,-9.62,-16.727,26.6,0.21744,0.53519,-0.18454,0.79507,648,0.912,-0.114,-0.367,-1.16,-0.183,0.244,-161.406,-67.544,-30.471,-29.56,-10.433,8.007,31.52,-0.01492,-0.81396,0.12985,-0.56592,672
163,0.93,-0.001,-0.417,-1.038,0.732,0.244,-179.253,-66.237,-36.738,-24.073,-12.26,0.467,29.24,-0.16876,-0.7952,0.26282,-0.51959,661,0.911,-0.054,0.426,-2.563,0.549,-2.075,-7.559,-64.418,-118.048,-26.213,-8.887,3.167,27.68,-0.4057,0.48425,0.22632,0.74133,643,0.935,-0.051,0.341,-0.305,-6.897,-2.136,-9.366,-69.489,155.891,-24.647,-9.62,-16.727,26.6,0.21744,0.53519,-0.18454,0.79507,649,0.912,-0.116,-0.362,-1.038,-0.305,0.305,-161.433,-67.533,-30.471,-29.56,-10.433,8.007,31.52,-0.01492,-0.81396,0.12985,-0.56592,673
164,0.93,-0.004,-0.415,-0.854,1.099,0.244,-179.264,-66.253,-36.771,-24.073,-12.26,0.467,29.24,-0.16876,-0.7952,0.26282,-0.51959,662,0.911,-0.05,0.431,-2.686,0.061,-1.831,-7.515,-64.418,-118.158,-26.213,-8.887,3.167,27.68,-0.4057,0.48425,0.22632,0.74133,644,0.938,-0.047,0.347,-0.61,-7.751,-1.831,-9.338,-69.637,155.841,-24.647,-9.62,-16.727,26.6,0.21744,0.53519,-0.18454,0.79507,650,0.912,-0.117,-0.357,-1.038,-0.183,0.366,-161.455,-67.527,-30.471,-29.56,-10.433,8.007,31.52,-0.01492,-0.81396,0.12985,-0.56592,674
165,0.93,-0.001,-0.417,-1.038,0.732,0.244,-179.253,-66.237,-36.738,-24.073,-12.26,0.467,29.24,-0.16876,-0.7952,0.26282,-0.51959,663,0.911,-0.054,0.426,-2.563,0.549,-2.075,-7.559,-64.418,-118.048,-26.213,-8.887,3.167,27.68,-0.4057,0.48425,0.22632,0.74133,645,0.935,-0.051,0.341,-0.305,-6.897,-2.136,-9.366,-69.489,155.891,-24.647,-9.62,-16.727,26.6,0.21744,0.53519,-0.18454,0.79507,651,0.912,-0.116,-0.362,-1.038,-0.305,0.305,-161.433,-67.533,-30.471,-29.56,-10.433,8.007,31.52,-0.01492,-0.81396,0.12985,-0.56592,675
166,0.93,-0.004,-0.415,-0.854,1.099,0.244,-179.264,-66.253,-36.771,-24.073,-12.26,0.467,29.24,-0.16876,-0.7952,0.26282,-0.51959,664,0.911,-0.05,0.431,-2.686,0.061,-1.831,-7.515,-64.418,-118.158,-26.213,-8.887,3.167,27.68,-0.4057,0.48425,0.22632,0.74133,646,0.938,-0.047,0.347,-0.61,-7.751,-1.831,-9.338,-69.637,155.841,-24.647,-9.62,-16.727,26.6,0.21744,0.53519,-0.18454,0.79507,652,0.912,-0.117,-0.357,-1.038,-0.183,0.366,-161.455,-67.527,-30.471,-29.56,-10.433,8.007,31.52,-0.01492,-0.81396,0.12985,-0.56592,676
167,0.93,-0.001,-0.417,-1.038,0.732,0.244,-179.253,-66.237,-36.738,-24.073,-12.26,0.467,29.24,-0.16876,-0.7952,0.26282,-0.51959,665,0.911,-0.054,0.426,-2.563,0.549,-2.075,-7.559,-64.418,-118.048,-26.213,-8.887,3.167,27.68,-0.4057,0.48425,0.22632,0.74133,647,0.935,-0.051,0.341,-0.305,-6.897,-2.136,-9.366,-69.489,155.891,-24.647,-9.62,-16.727,26.6,0.21744,0.53519,-0.18454,0.79507,653,0.912,-0.116,-0.362,-1.038,-0.305,0.305,-161.433,-67.533,-30.471,-29.56,-10.433,8.007,31.52,-0.01492,-0.81396,0.12985,-0.56592,677
168,0.931,-0.004,-0.415,-0.854,1.099,0.244,-179.264,-66.253,-36.771,-24.073,-12.26,0.467,29.24,-0.1673,-0.79575,0.2608,-0.52026,720,0.905,-0.05,0.431,-2.686,0.061,-1.831,-7.515,-64.418,-118.158,-26.213,-8.887,3.167,27.68,-0.4057,0.48425,0.22632,0.74133,666,0.932,-0.047,0.347,-0.61,-7.751,-1.831,-9.338,-69.637,155.841,-24.647,-9.62,-16.727,26.6,0.21744,0.53519,-0.18454,0.79507,678,0.912,-0.117,-0.357,-1.038,-0.183,0.366,-161.455,-67.527,-30.471,-29.56,-10.433,8.007,31.52,-0.01492,-0.81396,0.12985,-0.56592,684
169,0.931,-0.004,-0.409,-0.977,1.038,0.305,-179.275,-66.275,-36.799,-24.073,-12.26,0.467,29.24,-0.1673,-0.79575,0.2608,-0.52026,721,0.901,-0.047,0.43,-3.235,-0.549,-1.526,-7.493,-64.424,-118.24,-26.213,-8.887,3.167,27.68,-0.4057,0.48425,0.22632,0.74133,667,0.928,-0.044,0.34,-1.404,-8.24,-2.014,-9.327,-69.802,155.808,-24.647,-9.62,-16.727,26.6,0.21744,0.53519,-0.18454,0.79507,679,0.912,-0.116,-0.355,-0.916,-0.122,0.366,-161.472,-67.522,-30.471,-29.56,-10.433,8.007,31.52,-0.01492,-0.81396,0.12985,-0.56592,685
170,0.931,-0.003,-0.407,-0.854,0.916,0.427,-179.275,-66.286,-36.821,-24.073,-12.26,0.467,29.24,-0.1673,-0.79575,0.2608,-0.52026,722,0.905,-0.047,0.433,-3.357,-0.977,-1.343,-7.493,-64.446,-118.317,-26.213,-8.887,3.167,27.68,-0.4057,0.48425,0.22632,0.74133,668,0.932,-0.044,0.341,-1.77,-8.24,-1.709,-9.327,-69.961,155.764,-24.647,-9.62,-16.727,26.6,0.21744,0.53519,-0.18454,0.79507,680,0.912,-0.116,-0.353,-0.671,-0.061,0.488,-161.477,-67.516,-30.498,-29.56,-10.433,8.007,31.52,-0.01492,-0.81396,0.12985,-0.56592,686
171,0.931,-0.004,-0.409,-0.977,1.038,0.305,-179.275,-66.275,-36.799,-24.073,-12.26,0.467,29.24,-0.1673,-0.79575,0.2608,-0.52026,723,0.901,-0.047,0.43,-3.235,-0.549,-1.526,-7.493,-64.424,-118.24,-26.213,-8.887,3.167,27.68,-0.4057,0.48425,0.22632,0.74133,669,0.928,-0.044,0.34,-1.404,-8.24,-2.014,-9.327,-69.802,155.808,-24.647,-9.62,-16.727,26.6,0.21744,0.53519,-0.18454,0.79507,681,0.912,-0.116,-0.355,-0.916,-0.122,0.366,-161.472,-67.522,-30.471,-29.56,-10.433,8.007,31.52,-0.01492,-0.81396,0.12985,-0.56592,687
172,0.931,-0.003,-0.407,-0.854,0.916,0.427,-179.275,-66.286,-36.821,-24.073,-12.26,0.467,29.24,-0.1673,-0.79575,0.2608,-0.52026,724,0.905,-0.047,0.433,-3.357,-0.977,-1.343,-7.493,-64.446,-118.317,-26.213,-8.887,3.167,27.68,-0.4057,0.48425,0.22632,0.74133,670,0.932,-0.044,0.341,-1.77,-8.24,-1.709,-9.327,-69.961,155.764,-24.647,-9.62,-16.727,26.6,0.21744,0.53519,-0.18454,0.79507,682,0.912,-0.116,-0.353,-0.671,-0.061,0.488,-161.477,-67.516,-30.498,-29.56,-10.433,8.007,31.52,-0.01492,-0.81396,0.12985,-0.56592,688
173,0.931,-0.004,-0.409,-0.977,1.038,0.305,-179.275,-66.275,-36.799,-24.073,-12.26,0.467,29.24,-0.1673,-0.79575,0.2608,-0.52026,725,0.901,-0.047,0.43,-3.235,-0.549,-1.526,-7.493,-64.424,-118.24,-26.213,-8.887,3.167,27.68,-0.4057,0.48425,0.22632,0.74133,671,0.928,-0.044,0.34,-1.404,-8.24,-2.014,-9.327,-69.802,155.808,-24.647,-9.62,-16.727,26.6,0.21744,0.53519,-0.18454,0.79507,683,0.912,-0.116,-0.355,-0.916,-0.122,0.366,-161.472,-67.522,-30.471,-29.56,-10.433,8.007,31.52,-0.01492,-0.81396,0.12985,-0.56592,689
174,0.932,-0.003,-0.407,-0.854,0.916,0.427,-179.275,-66.286,-36.821,-24.073,-12.26,0.467,29.24,-0.1673,-0.79575,0.2608,-0.52026,726,0.9,-0.047,0.433,-3.357,-0.977,-1.343,-7.493,-64.446,-118.317,-26.213,-8.887,3.167,27.68,-0.4057,0.48425,0.22632,0.74133,690,0.931,-0.044,0.341,-1.77,-8.24,-1.709,-9.327,-69.961,155.764,-24.647,-9.62,-16.727,26.6,0.21744,0.53519,-0.18454,0.79507,696,0.912,-0.116,-0.353,-0.671,-0.061,0.488,-161.477,-67.516,-30.498,-29.56,-10.433,8.007,31.52,-0.01501,-0.81516,0.1293,-0.56433,714
175,0.931,-0.004,-0.404,-0.793,0.671,0.427,-179.275,-66.297,-36.837,-24.073,-12.26,0.467,29.24,-0.1673,-0.79575,0.2608,-0.52026,727,0.902,-0.048,0.431,-3.601,-1.16,-1.221,-7.504,-64.468,-118.383,-26.213,-8.887,3.167,27.68,-0.4057,0.48425,0.22632,0.74133,691,0.932,-0.044,0.339,-2.319,-8.362,-1.587,-9.349,-70.126,155.731,-24.647,-9.62,-16.727,26.6,0.21744,0.53519,-0.18454,0.79507,697,0.911,-0.118,-0.354,-0.366,-0.244,0.488,-161.477,-67.505,-30.509,-29.56,-10.433,8.007,31.52,-0.01501,-0.81516,0.1293,-0.56433,715
176,0.932,-0.004,-0.405,-0.305,0.61,0.488,-179.264,-66.308,-36.854,-24.073,-12.26,0.467,29.24,-0.1673,-0.79575,0.2608,-0.52026,728,0.9,-0.05,0.435,-3.662,-2.014,-0.977,-7.526,-64.501,-118.438,-26.213,-8.887,3.167,27.68,-0.4057,0.48425,0.22632,0.74133,692,0.931,-0.046,0.339,-1.831,-8.85,-1.282,-9.377,-70.296,155.709,-24.647,-9.62,-16.727,26.6,0.21744,0.53519,-0.18454,0.79507,698,0.912,-0.119,-0.351,-0.244,-0.366,0.549,-161.466,-67.5,-30.526,-29.56,-10.433,8.007,31.52,-0.01501,-0.81516,0.1293,-0.56433,716
177,0.931,-0.004,-0.404,-0.793,0.671,0.427,-179.275,-66.297,-36.837,-24.073,-12.26,0.467,29.24,-0.1673,-0.79575,0.2608,-0.52026,729,0.902,-0.048,0.431,-3.601,-1.16,-1.221,-7.504,-64.468,-118.383,-26.213,-8.887,3.167,27.68,-0.4057,0.48425,0.22632,0.74133,693,0.932,-0.044,0.339,-2.319,-8.362,-1.587,-9.349,-70.126,155.731,-24.647,-9.62,-16.727,26.6,0.21744,0.53519,-0.18454,0.79507,699,0.911,-0.118,-0.354,-0.366,-0.244,0.488,-161.477,-67.505,-30.509,-29.56,-10.433,8.007,31.52,-0.01501,-0.81516,0.1293,-0.56433,717
178,0.932,-0.004,-0.405,-0.305,0.61,0.488,-179.264,-66.308,-36.854,-24.073,-12.26,0.467,29.24,-0.1673,-0.79575,0.2608,-0.52026,730,0.9,-0.05,0.435,-3.662,-2.014,-0.977,-7.526,-64.501,-118.438,-26.213,-8.887,3.167,27.68,-0.4057,0.48425,0.22632,0.74133,694,0.931,-0.046,0.339,-1.831,-8.85,-1.282,-9.377,-70.296,155.709,-24.647,-9.62,-16.727,26.6,0.21744,0.53519,-0.18454,0.79507,700,0.912,-0.119,-0.351,-0.244,-0.366,0.549,-161.466,-67.5,-30.526,-29.56,-10.433,8.007,31.52,-0.01501,-0.81516,0.1293,-0.56433,718
179,0.931,-0.004,-0.404,-0.793,0.671,0.427,-179.275,-66.297,-36.837,-24.073,-12.26,0.467,29.24,-0.1673,-0.79575,0.2608,-0.52026,731,0.902,-0.048,0.431,-3.601,-1.16,-1.221,-7.504,-64.468,-118.383,-26.213,-8.887,3.167,27.68,-0.4057,0.48425,0.22632,0.74133,695,0.932,-0.044,0.339,-2.319,-8.362,-1.587,-9.349,-70.126,155.731,-24.647,-9.62,-16.727,26.6,0.21744,0.53519,-0.18454,0.79507,701,0.911,-0.118,-0.354,-0.366,-0.244,0.488,-161.477,-67.505,-30.509,-29.56,-10.433,8.007,31.52,-0.01501,-0.81516,0.1293,-0.56433,719
180,0.932,-0.004,-0.405,-0.305,0.61,0.488,-179.264,-66.308,-36.854,-24.073,-12.26,0.467,29.24,-0.1673,-0.79575,0.2608,-0.52026,732,0.9,-0.05,0.435,-3.662,-2.014,-0.977,-7.526,-64.501,-118.438,-26.213,-8.887,3.167,27.68,-0.4057,0.48425,0.22632,0.74133,702,0.931,-0.046,0.339,-1.831,-8.85,-1.282,-9.377,-70.296,155.709,-24.287,-9.607,-16.9,26.6,0.21744,0.53519,-0.18454,0.79507,708,0.911,-0.119,-0.351,-0.244,-0.366,0.549,-161.466,-67.5,-30.526,-29.56,-10.433,8.007,31.52,-0.01501,-0.81516,0.1293,-0.56433,744
181,0.932,-0.006,-0.404,-0.305,0.488,0.488,-179.247,-66.319,-36.881,-24.073,-12.26,0.467,29.24,-0.1673,-0.79575,0.2608,-0.52026,733,0.898,-0.053,0.431,-3.601,-2.869,-0.61,-7.564,-64.545,-118.477,-26.213,-8.887,3.167,27.68,-0.4057,0.48425,0.22632,0.74133,703,0.928,-0.047,0.333,-1.953,-9.46,-0.854,-9.432,-70.472,155.731,-24.287,-9.607,-16.9,26.6,0.21744,0.53519,-0.18454,0.79507,709,0.911,-0.121,-0.351,-0.183,-0.488,0.488,-161.461,-67.489,-30.542,-29.56,-10.433,8.007,31.52,-0.01501,-0.81516,0.1293,-0.56433,745
182,0.932,-0.007,-0.403,-0.244,0.244,0.488,-179.231,-66.324,-36.925,-24.073,-12.26,0.467,29.24,-0.1673,-0.79575,0.2608,-0.52026,734,0.9,-0.052,0.432,-3.906,-3.174,-0.488,-7.619,-64.605,-118.499,-26.213,-8.887,3.167,27.68,-0.4057,0.48425,0.22632,0.74133,704,0.931,-0.047,0.328,-2.502,-9.766,-0.61,-9.52,-70.653,155.775,-24.287,-9.607,-16.9,26.6,0.21744,0.53519,-0.18454,0.79507,710,0.911,-0.122,-0.35,-0.122,-0.671,0.427,-161.455,-67.478,-30.536,-29.56,-10.433,8.007,31.52,-0.01501,-0.81516,0.1293,-0.56433,746
183,0.932,-0.006,-0.404,-0.305,0.488,0.488,-179.247,-66.319,-36.881,-24.073,-12.26,0.467,29.24,-0.1673,-0.79575,0.2608,-0.52026,735,0.898,-0.053,0.431,-3.601,-2.869,-0.61,-7.564,-64.545,-118.477,-26.213,-8.887,3.167,27.68,-0.4057,0.48425,0.22632,0.74133,705,0.928,-0.047,0.333,-1.953,-9.46,-0.854,-9.432,-70.472,155.731,-24.287,-9.607,-16.9,26.6,0.21744,0.53519,-0.18454,0.79507,711,0.911,-0.121,-0.351,-0.183,-0.488,0.488,-161.461,-67.489,-30.542,-29.56,-10.433,8.007,31.52,-0.01501,-0.81516,0.1293,-0.56433,747
184,0.932,-0.007,-0.403,-0.244,0.244,0.488,-179.231,-66.324,-36.925,-24.073,-12.26,0.467,29.24,-0.1673,-0.79575,0.2608,-0.52026,736,0.9,-0.052,0.432,-3.906,-3.174,-0.488,-7.619,-64.605,-118.499,-26.213,-8.887,3.167,27.68,-0.4057,0.48425,0.22632,0.74133,706,0.931,-0.047,0.328,-2.502,-9.766,-0.61,-9.52,-70.653,155.775,-24.287,-9.607,-16.9,26.6,0.21744,0.53519,-0.18454,0.79507,712,0.911,-0.122,-0.35,-0.122,-0.671,0.427,-161.455,-67.478,-30.536,-29.56,-10.433,8.007,31.52,-0.01501,-0.81516,0.1293,-0.56433,748
185,0.932,-0.006,-0.404,-0.305,0.488,0.488,-179.247,-66.319,-36.881,-24.073,-12.26,0.467,29.24,-0.1673,-0.79575,0.2608,-0.52026,737,0.898,-0.053,0.431,-3.601,-2.869,-0.61,-7.564,-64.545,-118.477,-26.213,-8.887,3.167,27.68,-0.4057,0.48425,0.22632,0.74133,707,0.928,-0.047,0.333,-1.953,-9.46,-0.854,-9.432,-70.472,155.731,-24.287,-9.607,-16.9,26.6,0.21744,0.53519,-0.18454,0.79507,713,0.911,-0.121,-0.351,-0.183,-0.488,0.488,-161.461,-67.489,-30.542,-29.56,-10.433,8.007,31.52,-0.01501,-0.81516,0.1293,-0.56433,749
186,0.932,-0.007,-0.403,-0.244,0.244,0.488,-179.231,-66.324,-36.925,-24.073,-12.26,0.467,29.24,-0.1673,-0.79575,0.2608,-0.52026,750,0.897,-0.052,0.432,-3.906,-3.174,-0.488,-7.619,-64.605,-118.499,-26.213,-8.887,3.167,27.68,-0.4057,0.48425,0.22632,0.74133,738,0.93,-0.047,0.328,-2.502,-9.766,-0.61,-9.52,-70.653,155.775,-24.287,-9.607,-16.9,26.6,0.21744,0.53519,-0.18454,0.79507,756,0.91,-0.122,-0.35,-0.122,-0.671,0.427,-161.455,-67.478,-30.536,-29.56,-10.433,8.007,31.52,-0.01501,-0.81516,0.1293,-0.56433,762
187,0.931,-0.009,-0.402,-0.122,0.0,0.427,-179.214,-66.324,-36.958,-24.073,-12.26,0.467,29.24,-0.1673,-0.79575,0.2608,-0.52026,751,0.901,-0.055,0.428,-4.15,-2.869,-0.244,-7.685,-64.66,-118.51,-26.213,-8.887,3.167,27.68,-0.4057,0.48425,0.22632,0.74133,739,0.934,-0.051,0.319,-2.563,-10.254,-0.427,-9.624,-70.845,155.825,-24.287,-9.607,-16.9,26.6,0.21744,0.53519,-0.18454,0.79507,757,0.91,-0.122,-0.35,-0.122,-0.793,0.427,-161.45,-67.462,-30.526,-29.56,-10.433,8.007,31.52,-0.01501,-0.81516,0.1293,-0.56433,763
188,0.932,-0.008,-0.402,-0.061,-0.244,0.427,-179.198,-66.319,-36.969,-24.073,-12.26,0.467,29.24,-0.1673,-0.79575,0.2608,-0.52026,752,0.897,-0.059,0.423,-3.906,-2.686,0.061,-7.767,-64.715,-118.515,-26.213,-8.887,3.167,27.68,-0.4057,0.48425,0.22632,0.74133,740,0.93,-0.053,0.311,-2.319,-10.071,-0.122,-9.739,-71.038,155.907,-24.287,-9.607,-16.9,26.6,0.21744,0.53519,-0.18454,0.79507,758,0.91,-0.122,-0.35,-0.122,-1.099,0.366,-161.455,-67.44,-30.515,-29.56,-10.433,8.007,31.52,-0.01501,-0.81516,0.1293,-0.56433,764
189,0.931,-0.009,-0.402,-0.122,0.0,0.427,-179.214,-66.324,-36.958,-24.073,-12.26,0.467,29.24,-0.1673,-0.79575,0.2608,-0.52026,753,0.901,-0.055,0.428,-4.15,-2.869,-0.244,-7.685,-64.66,-118.51,-26.213,-8.887,3.167,27.68,-0.4057,0.48425,0.22632,0.74133,741,0.934,-0.051,0.319,-2.563,-10.254,-0.427,-9.624,-70.845,155.825,-24.287,-9.607,-16.9,26.6,0.21744,0.53519,-0.18454,0.79507,759,0.91,-0.122,-0.35,-0.122,-0.793,0.427,-161.45,-67.462,-30.526,-29.56,-10.433,8.007,31.52,-0.01501,-0.81516,0.1293,-0.56433,765
190,0.932,-0.008,-0.402,-0.061,-0.244,0.427,-179.198,-66.319,-36.969,-24.073,-12.26,0.467,29.24,-0.1673,-0.79575,0.2608,-0.52026,754,0.897,-0.059,0.423,-3.906,-2.686,0.061,-7.767,-64.715,-118.515,-26.213,-8.887,3.167,27.68,-0.4057,0.48425,0.22632,0.74133,742,0.93,-0.053,0.311,-2.319,-10.071,-0.122,-9.739,-71.038,155.907,-24.287,-9.607,-16.9,26.6,0.21744,0.53519,-0.18454,0.79507,760,0.91,-0.122,-0.35,-0.122,-1.099,0.366,-161.455,-67.44,-30.515,-29.56,-10.433,8.007,31.52,-0.01501,-0.81516,0.1293,-0.56433,766
191,0.931,-0.009,-0.402,-0.122,0.0,0.427,-179.214,-66.324,-36.958,-24.073,-12.26,0.467,29.24,-0.1673,-0.79575,0.2608,-0.52026,755,0.901,-0.055,0.428,-4.15,-2.869,-0.244,-7.685,-64.66,-118.51,-26.213,-8.887,3.167,27.68,-0.4057,0.48425,0.22632,0.74133,743,0.934,-0.051,0.319,-2.563,-10.254,-0.427,-9.624,-70.845,155.825,-24.287,-9.607,-16.9,26.6,0.21744,0.53519,-0.18454,0.79507,761,0.91,-0.122,-0.35,-0.122,-0.793,0.427,-161.45,-67.462,-30.526,-29.56,-10.433,8.007,31.52,-0.01501,-0.81516,0.1293,-0.56433,767
192,0.931,-0.008,-0.402,-0.061,-0.244,0.427,-179.198,-66.319,-36.969,-24.073,-12.26,0.467,29.24,-0.1673,-0.79575,0.2608,-0.52026,768,0.904,-0.059,0.423,-3.906,-2.686,0.061,-7.767,-64.715,-118.515,-26.213,-8.887,3.167,27.68,-0.4057,0.48425,0.22632,0.74133,774,0.938,-0.053,0.311,-2.319,-10.071,-0.122,-9.739,-71.038,155.907,-24.287,-9.607,-16.9,26.6,0.2175,0.54984,-0.18741,0.78433,780,0.91,-0.122,-0.35,-0.122,-1.099,0.366,-161.455,-67.44,-30.515,-29.56,-10.433,8.007,31.52,-0.01501,-0.81516,0.1293,-0.56433,792
193,0.931,-0.009,-0.402,0.0,-0.549,0.366,-179.182,-66.308,-36.985,-24.073,-12.26,0.467,29.24,-0.1673,-0.79575,0.2608,-0.52026,769,0.909,-0.06,0.422,-3.54,-2.258,0.488,-7.855,-64.759,-118.499,-26.213,-8.887,3.167,27.68,-0.4057,0.48425,0.22632,0.74133,775,0.943,-0.053,0.306,-2.136,-9.46,0.305,-9.877,-71.213,156.006,-24.287,-9.607,-16.9,26.6,0.2175,0.54984,-0.18741,0.78433,781,0.911,-0.122,-0.352,0.0,-1.221,0.366,-161.455,-67.418,-30.504,-29.56,-10.433,8.007,31.52,-0.01501,-0.81516,0.1293,-0.56433,793
194,0.931,-0.008,-0.404,0.061,-0.854,0.366,-179.16,-66.297,-37.007,-24.073,-12.26,0.467,29.24,-0.1673,-0.79575,0.2608,-0.52026,770,0.904,-0.062,0.419,-2.991,-1.587,0.732,-7.949,-64.797,-118.46,-26.213,-8.887,3.167,27.68,-0.4057,0.48425,0.22632,0.74133,776,0.938,-0.058,0.3,-1.648,-9.46,0.916,-10.042,-71.389,156.149,-24.287,-9.607,-16.9,26.6,0.2175,0.54984,-0.18741,0.78433,782,0.91,-0.123,-0.357,0.0,-1.221,0.305,-161.455,-67.396,-30.504,-29.56,-10.433,8.007,31.52,-0.01501,-0.81516,0.1293,-0.56433,794
195,0.931,-0.009,-0.402,0.0,-0.549,0.366,-179.182,-66.308,-36.985,-24.073,-12.26,0.467,29.24,-0.1673,-0.79575,0.2608,-0.52026,771,0.909,-0.06,0.422,-3.54,-2.258,0.488,-7.855,-64.759,-118.499,-26.213,-8.887,3.167,27.68,-0.4057,0.48425,0.22632,0.74133,777,0.943,-0.053,0.306,-2.136,-9.46,0.305,-9.877,-71.213,156.006,-24.287,-9.607,-16.9,26.6,0.2175,0.54984,-0.18741,0.78433,783,0.911,-0.122,-0.352,0.0,-1.221,0.366,-161.455,-67.418,-30.504,-29.56,-10.433,8.007,31.52,-0.01501,-0.81516,0.1293,-0.56433,795
196,0.931,-0.008,-0.404,0.061,-0.854,0.366,-179.16,-66.297,-37.007,-24.073,-12.26,0.467,29.24,-0.1673,-0.79575,0.2608,-0.52026,772,0.904,-0.062,0.419,-2.991,-1.587,0.732,-7.949,-64.797,-118.46,-26.213,-8.887,3.167,27.68,-0.4057,0.48425,0.22632,0.74133,778,0.938,-0.058,0.3,-1.648,-9.46,0.916,-10.042,-71.389,156.149,-24.287,-9.607,-16.9,26.6,0.2175,0.54984,-0.18741,0.78433,784,0.91,-0.123,-0.357,0.0,-1.221,0.305,-161.455,-67.396,-30.504,-29.56,-10.433,8.007,31.52,-0.01501,-0.81516,0.1293,-0.56433,796
197,0.931,-0.009,-0.402,0.0,-0.549,0.366,-179.182,-66.308,-36.985,-24.073,-12.26,0.467,29.24,-0.1673,-0.79575,0.2608,-0.52026,773,0.909,-0.06,0.422,-3.54,-2.258,0.488,-7.855,-64.759,-118.499,-26.213,-8.887,3.167,27.68,-0.4057,0.48425,0.22632,0.74133,779,0.943,-0.053,0.306,-2.136,-9.46,0.305,-9.877,-71.213,156.006,-24.287,-9.607,-16.9,26.6,0.2175,0.54984,-0.18741,0.78433,785,0.911,-0.122,-0.352,0.0,-1.221,0.366,-161.455,-67.418,-30.504,-29.56,-10.433,8.007,31.52,-0.01501,-0.81516,0.1293,-0.56433,797
198,0.932,-0.008,-0.404,0.061,-0.854,0.366,-179.16,-66.297,-37.007,-24.073,-12.26,0.467,29.24,-0.1673,-0.79575,0.2608,-0.52026,804,0.914,-0.062,0.419,-2.991,-1.587,0.732,-7.949,-64.797,-118.46,-26.213,-8.887,3.167,27.68,-0.4057,0.48425,0.22632,0.74133,786,0.95,-0.058,0.3,-1.648,-9.46,0.916,-10.042,-71.389,156.149,-24.287,-9.607,-16.9,26.6,0.2175,0.54984,-0.18741,0.78433,798,0.911,-0.123,-0.357,0.0,-1.221,0.305,-161.455,-67.396,-30.504,-29.56,-10.433,8.007,31.52,-0.01501,-0.81516,0.1293,-0.56433,816
199,0.931,-0.009,-0.407,0.244,-0.977,0.244,-179.143,-66.275,-37.018,-24.073,-12.26,0.467,29.24,-0.1673,-0.79575,0.2608,-0.52026,805,0.919,-0.067,0.415,-2.747,-1.404,0.916,-8.042,-64.819,-118.416,-26.213,-8.887,3.167,27.68,-0.4057,0.48425,0.22632,0.74133,787,0.954,-0.062,0.294,-1.038,-8.728,1.221,-10.217,-71.554,156.308,-24.287,-9.607,-16.9,26.6,0.2175,0.54984,-0.18741,0.78433,799,0.911,-0.123,-0.361,0.0,-1.038,0.244,-161.455,-67.379,-30.504,-29.56,-10.433,8.007,31.52,-0.01501,-0.81516,0.1293,-0.56433,817
200,0.932,-0.009,-0.408,0.183,-0.977,0.183,-179.132,-66.259,-37.024,-24.073,-12.26,0.467,29.24,-0.1673,-0.79575,0.2608,-0.52026,806,0.914,-0.072,0.414,-1.587,-1.099,1.16,-8.135,-64.841,-118.361,-26.213,-8.887,3.167,27.68,-0.4057,0.48425,0.22632,0.74133,788,0.95,-0.067,0.292,0.0,-8.728,2.014,-10.421,-71.713,156.511,-24.287,-9.607,-16.9,26.6,0.2175,0.54984,-0.18741,0.78433,800,0.911,-0.122,-0.368,0.0,-0.732,0.183,-161.461,-67.368,-30.52,-29.56,-10.433,8.007,31.52,-0.01501,-0.81516,0.1293,-0.56433,818
201,0.931,-0.009,-0.407,0.244,-0.977,0.244,-179.143,-66.275,-37.018,-24.073,-12.26,0.467,29.24,-0.1673,-0.79575,0.2608,-0.52026,807,0.919,-0.067,0.415,-2.747,-1.404,0.916,-8.042,-64.819,-118.416,-26.213,-8.887,3.167,27.68,-0.4057,0.48425,0.22632,0.74133,789,0.954,-0.062,0.294,-1.038,-8.728,1.221,-10.217,-71.554,156.308,-24.287,-9.607,-16.9,26.6,0.2175,0.54984,-0.18741,0.78433,801,0.911,-0.123,-0.361,0.0,-1.038,0.244,-161.455,-67.379,-30.504,-29.56,-10.433,8.007,31.52,-0.01501,-0.81516,0.1293,-0.56433,819
202,0.932,-0.009,-0.408,0.183,-0.977,0.183,-179.132,-66.259,-37.024,-24.073,-12.26,0.467,29.24,-0.1673,-0.79575,0.2608,-0.52026,808,0.914,-0.072,0.414,-1.587,-1.099,1.16,-8.135,-64.841,-118.361,-26.213,-8.887,3.167,27.68,-0.4057,0.48425,0.22632,0.74133,790,0.95,-0.067,0.292,0.0,-8.728,2.014,-10.421,-71.713,156.511,-24.287,-9.607,-16.9,26.6,0.2175,0.54984,-0.18741,0.78433,802,0.911,-0.122,-0.368,0.0,-0.732,0.183,-161.461,-67.368,-30.52,-29.56,-10.433,8.007,31.52,-0.01501,-0.81516,0.1293,-0.56433,820
203,0.931,-0.009,-0.407,0.244,-0.977,0.244,-179.143,-66.275,-37.018,-24.073,-12.26,0.467,29.24,-0.1673,-0.79575,0.2608,-0.52026,809,0.919,-0.067,0.415,-2.747,-1.404,0.916,-8.042,-64.819,-118.416,-26.213,-8.887,3.167,27.68,-0.4057,0.48425,0.22632,0.74133,791,0.954,-0.062,0.294,-1.038,-8.728,1.221,-10.217,-71.554,156.308,-24.287,-9.607,-16.9,26.6,0.2175,0.54984,-0.18741,0.78433,803,0.911,-0.123,-0.361,0.0,-1.038,0.244,-161.455,-67.379,-30.504,-29.56,-10.433,8.007,31.52,-0.01501,-0.81516,0.1293,-0.56433,821
204,0.932,-0.009,-0.408,0.183,-0.977,0.183,-179.132,-66.259,-37.024,-24.073,-12.26,0.467,29.24,-0.1673,-0.79575,0.2608,-0.52026,822,0.919,-0.072,0.414,-1.587,-1.099,1.16,-8.135,-64.841,-118.361,-25.873,-8.74,3.227,27.68,-0.4057,0.48425,0.22632,0.74133,810,0.955,-0.067,0.292,0.0,-8.728,2.014,-10.421,-71.713,156.511,-24.287,-9.607,-16.9,26.6,0.2175,0.54984,-0.18741,0.78433,828,0.912,-0.122,-0.368,0.0,-0.732,0.183,-161.461,-67.368,-30.52,-29.56,-10.433,8.007,31.52,-0.01501,-0.81516,0.1293,-0.56433,834
205,0.932,-0.008,-0.413,0.183,-0.854,0.122,-179.121,-66.242,-37.029,-24.073,-12.26,0.467,29.24,-0.1673,-0.79575,0.2608,-0.52026,823,0.917,-0.073,0.417,-0.916,-1.16,1.221,-8.223,-64.863,-118.29,-25.873,-8.74,3.227,27.68,-0.4057,0.48425,0.22632,0.74133,811,0.95,-0.068,0.296,0.061,-8.118,2.014,-10.629,-71.867,156.731,-24.287,-9.607,-16.9,26.6,0.2175,0.54984,-0.18741,0.78433,829,0.912,-0.124,-0.366,0.183,-0.61,0.122,-161.455,-67.352,-30.569,-29.56,-10.433,8.007,31.52,-0.01501,-0.81516,0.1293,-0.56433,835
206,0.932,-0.009,-0.412,0.0,-0.671,0.061,-179.116,-66.231,-37.046,-24.073,-12.26,0.467,29.24,-0.1673,-0.79575,0.2608,-0.52026,824,0.919,-0.073,0.416,-0.732,-1.221,0.977,-8.295,-64.88,-118.224,-25.873,-8.74,3.227,27.68,-0.4057,0.48425,0.22632,0.74133,812,0.955,-0.071,0.284,-0.183,-8.606,1.587,-10.833,-72.021,156.94,-24.287,-9.607,-16.9,26.6,0.2175,0.54984,-0.18741,0.78433,830,0.912,-0.122,-0.366,0.0,-0.366,0.061,-161.461,-67.346,-30.619,-29.56,-10.433,8.007,31.52,-0.01501,-0.81516,0.1293,-0.56433,836
207,0.932,-0.008,-0.413,0.183,-0.854,0.122,-179.121,-66.242,-37.029,-24.073,-12.26,0.467,29.24,-0.1673,-0.79575,0.2608,-0.52026,825,0.917,-0.073,0.417,-0.916,-1.16,1.221,-8.223,-64.863,-118.29,-25.873,-8.74,3.227,27.68,-0.4057,0.48425,0.22632,0.74133,813,0.95,-0.068,0.296,0.061,-8.118,2.014,-10.629,-71.867,156.731,-24.287,-9.607,-16.9,26.6,0.2175,0.54984,-0.18741,0.78433,831,0.912,-0.124,-0.366,0.183,-0.61,0.122,-161.455,-67.352,-30.569,-29.56,-10.433,8.007,31.52,-0.01501,-0.81516,0.1293,-0.56433,837
208,0.932,-0.009,-0.412,0.0,-0.671,0.061,-179.116,-66.231,-37.046,-24.073,-12.26,0.467,29.24,-0.1673,-0.79575,0.2608,-0.52026,826,0.919,-0.073,0.416,-0.732,-1.221,0.977,-8.295,-64.88,-118.224,-25.873,-8.74,3.227,27.68,-0.4057,0.48425,0.22632,0.74133,814,0.955,-0.071,0.284,-0.183,-8.606,1.587,-10.833,-72.021,156.94,-24.287,-9.607,-16.9,26.6,0.2175,0.54984,-0.18741,0.78433,832,0.912,-0.122,-0.366,0.0,-0.366,0.061,-161.461,-67.346,-30.619,-29.56,-10.433,8.007,31.52,-0.01501,-0.81516,0.1293,-0.56433,838
209,0.932,-0.008,-0.413,0.183,-0.854,0.122,-179.121,-66.242,-37.029,-24.073,-12.26,0.467,29.24,-0.1673,-0.79575,0.2608,-0.52026,827,0.917,-0.073,0.417,-0.916,-1.16,1.221,-8.223,-64.863,-118.29,-25.873,-8.74,3.227,27.68,-0.4057,0.48425,0.22632,0.74133,815,0.95,-0.068,0.296,0.061,-8.118,2.014,-10.629,-71.867,156.731,-24.287,-9.607,-16.9,26.6,0.2175,0.54984,-0.18741,0.78433,833,0.912,-0.124,-0.366,0.183,-0.61,0.122,-161.455,-67.352,-30.569,-29.56,-10.433,8.007,31.52,-0.01501,-0.81516,0.1293,-0.56433,839
210,0.931,-0.009,-0.412,0.0,-0.671,0.061,-179.116,-66.231,-37.046,-24.073,-12.26,0.467,29.24,-0.1673,-0.79575,0.2608,-0.52026,840,0.917,-0.073,0.416,-0.732,-1.221,0.977,-8.295,-64.88,-118.224,-25.873,-8.74,3.227,27.68,-0.4057,0.48425,0.22632,0.74133,846,0.952,-0.071,0.284,-0.183,-8.606,1.587,-10.833,-72.021,156.94,-24.287,-9.607,-16.9,26.6,0.2175,0.54984,-0.18741,0.78433,852,0.911,-0.122,-0.366,0.0,-0.366,0.061,-161.461,-67.346,-30.619,-29.56,-10.433,8.007,31.52,-0.01501,-0.81516,0.1293,-0.56433,870
211,0.931,-0.009,-0.412,-0.061,-0.549,0.0,-179.116,-66.22,-37.057,-24.073,-12.26,0.467,29.24,-0.1673,-0.79575,0.2608,-0.52026,841,0.925,-0.071,0.408,-0.671,0.122,0.732,-8.361,-64.896,-118.158,-25.873,-8.74,3.227,27.68,-0.4057,0.48425,0.22632,0.74133,847,0.965,-0.071,0.27,-0.671,-7.812,0.793,-11.008,-72.175,157.121,-24.287,-9.607,-16.9,26.6,0.2175,0.54984,-0.18741,0.78433,853,0.912,-0.121,-0.369,0.0,-0.061,0.0,-161.461,-67.346,-30.646,-29.56,-10.433,8.007,31.52,-0.01501,-0.81516,0.1293,-0.56433,871
212,0.931,-0.007,-0.416,-0.183,-0.427,0.0,-179.116,-66.215,-37.062,-24.073,-12.26,0.467,29.24,-0.1673,-0.79575,0.2608,-0.52026,842,0.917,-0.07,0.409,-0.061,1.709,0.305,-8.399,-64.885,-118.12,-25.873,-8.74,3.227,27.68,-0.4057,0.48425,0.22632,0.74133,848,0.952,-0.07,0.272,0.061,-6.592,-0.183,-11.107,-72.307,157.231,-24.287,-9.607,-16.9,26.6,0.2175,0.54984,-0.18741,0.78433,854,0.911,-0.12,-0.368,0.0,0.061,0.0,-161.455,-67.346,-30.674,-29.56,-10.433,8.007,31.52,-0.01501,-0.81516,0.1293,-0.56433,872
213,0.931,-0.009,-0.412,-0.061,-0.549,0.0,-179.116,-66.22,-37.057,-24.073,-12.26,0.467,29.24,-0.1673,-0.79575,0.2608,-0.52026,843,0.925,-0.071,0.408,-0.671,0.122,0.732,-8.361,-64.896,-118.158,-25.873,-8.74,3.227,27.68,-0.4057,0.48425,0.22632,0.74133,849,0.965,-0.071,0.27,-0.671,-7.812,0.793,-11.008,-72.175,157.121,-24.287,-9.607,-16.9,26.6,0.2175,0.54984,-0.18741,0.78433,855,0.912,-0.121,-0.369,0.0,-0.061,0.0,-161.461,-67.346,-30.646,-29.56,-10.433,8.007,31.52,-0.01501,-0.81516,0.1293,-0.56433,873
214,0.931,-0.007,-0.416,-0.183,-0.427,0.0,-179.116,-66.215,-37.062,-24.073,-12.26,0.467,29.24,-0.1673,-0.79575,0.2608,-0.52026,844,0.917,-0.07,0.409,-0.061,1.709,0.305,-8.399,-64.885,-118.12,-25.873,-8.74,3.227,27.68,-0.4057,0.48425,0.22632,0.74133,850,0.952,-0.07,0.272,0.061,-6.592,-0.183,-11.107,-72.307,157.231,-24.287,-9.607,-16.9,26.6,0.2175,0.54984,-0.18741,0.78433,856,0.911,-0.12,-0.368,0.0,0.061,0.0,-161.455,-67.346,-30.674,-29.56,-10.433,8.007,31.52,-0.01501,-0.81516,0.1293,-0.56433,874
215,0.931,-0.009,-0.412,-0.061,-0.549,0.0,-179.116,-66.22,-37.057,-24.073,-12.26,0.467,29.24,-0.1673,-0.79575,0.2608,-0.52026,845,0.925,-0.071,0.408,-0.671,0.122,0.732,-8.361,-64.896,-118.158,-25.873,-8.74,3.227,27.68,-0.4057,0.48425,0.22632,0.74133,851,0.965,-0.071,0.27,-0.671,-7.812,0.793,-11.008,-72.175,157.121,-24.287,-9.607,-16.9,26.6,0.2175,0.54984,-0.18741,0.78433,857,0.912,-0.121,-0.369,0.0,-0.061,0.0,-161.461,-67.346,-30.646,-29.56,-10.433,8.007,31.52,-0.01501,-0.81516,0.1293,-0.56433,875
216,0.931,-0.007,-0.416,-0.183,-0.427,0.0,-179.116,-66.215,-37.062,-24.073,-12.26,0.467,29.24,-0.1673,-0.79575,0.2608,-0.52026,876,0.934,-0.07,0.409,-0.061,1.709,0.305,-8.399,-64.885,-118.12,-25.873,-8.74,3.227,27.68,-0.39877,0.4906,0.2222,0.74216,858,0.975,-0.07,0.272,0.061,-6.592,-0.183,-11.107,-72.307,157.231,-24.287,-9.607,-16.9,26.6,0.2175,0.54984,-0.18741,0.78433,864,0.911,-0.12,-0.368,0.0,0.061,0.0,-161.455,-67.346,-30.674,-30.027,-10.567,7.473,31.52,-0.01501,-0.81516,0.1293,-0.56433,888
217,0.931,-0.007,-0.415,-0.061,-0.366,-0.061,-179.116,-66.204,-37.068,-24.073,-12.26,0.467,29.24,-0.1673,-0.79575,0.2608,-0.52026,877,0.93,-0.069,0.405,0.671,1.282,0.122,-8.405,-64.858,-118.103,-25.873,-8.74,3.227,27.68,-0.39877,0.4906,0.2222,0.74216,859,0.968,-0.066,0.27,1.404,-6.348,-0.854,-11.135,-72.438,157.297,-24.287,-9.607,-16.9,26.6,0.2175,0.54984,-0.18741,0.78433,865,0.91,-0.123,-0.371,-0.122,0.183,0.0,-161.461,-67.346,-30.696,-30.027,-10.567,7.473,31.52,-0.01501,-0.81516,0.1293,-0.56433,889
218,0.931,-0.009,-0.417,-0.183,-0.183,-0.061,-179.121,-66.204,-37.073,-24.073,-12.26,0.467,29.24,-0.1673,-0.79575,0.2608,-0.52026,878,0.934,-0.072,0.409,1.465,-0.427,0.427,-8.399,-64.847,-118.092,-25.873,-8.74,3.227,27.68,-0.39877,0.4906,0.2222,0.74216,860,0.975,-0.063,0.273,2.441,-3.784,0.061,-11.157,-72.532,157.363,-24.287,-9.607,-16.9,26.6,0.2175,0.54984,-0.18741,0.78433,866,0.911,-0.122,-0.368,-0.122,0.366,0.0,-161.455,-67.352,-30.718,-30.027,-10.567,7.473,31.52,-0.01501,-0.81516,0.1293,-0.56433,890
219,0.931,-0.007,-0.415,-0.061,-0.366,-0.061,-179.116,-66.204,-37.068,-24.073,-12.26,0.467,29.24,-0.1673,-0.79575,0.2608,-0.52026,879,0.93,-0.069,0.405,0.671,1.282,0.122,-8.405,-64.858,-118.103,-25.873,-8.74,3.227,27.68,-0.39877,0.4906,0.2222,0.74216,861,0.968,-0.066,0.27,1.404,-6.348,-0.854,-11.135,-72.438,157.297,-24.287,-9.607,-16.9,26.6,0.2175,0.54984,-0.18741,0.78433,867,0.91,-0.123,-0.371,-0.122,0.183,0.0,-161.461,-67.346,-30.696,-30.027,-10.567,7.473,31.52,-0.01501,-0.81516,0.1293,-0.56433,891
220,0.931,-0.009,-0.417,-0.183,-0.183,-0.061,-179.121,-66.204,-37.073,-24.073,-12.26,0.467,29.24,-0.1673,-0.79575,0.2608,-0.52026,880,0.934,-0.072,0.409,1.465,-0.427,0.427,-8.399,-64.847,-118.092,-25.873,-8.74,3.227,27.68,-0.39877,0.4906,0.2222,0.74216,862,0.975,-0.063,0.273,2.441,-3.784,0.061,-11.157,-72.532,157.363,-24.287,-9.607,-16.9,26.6,0.2175,0.54984,-0.18741,0.78433,868,0.911,-0.122,-0.368,-0.122,0.366,0.0,-161.455,-67.352,-30.718,-30.027,-10.567,7.473,31.52,-0.01501,-0.81516,0.1293,-0.56433,892
221,0.931,-0.007,-0.415,-0.061,-0.366,-0.061,-179.116,-66.204,-37.068,-24.073,-12.26,0.467,29.24,-0.1673,-0.79575,0.2608,-0.52026,881,0.93,-0.069,0.405,0.671,1.282,0.122,-8.405,-64.858,-118.103,-25.873,-8.74,3.227,27.68,-0.39877,0.4906,0.2222,0.74216,863,0.968,-0.066,0.27,1.404,-6.348,-0.854,-11.135,-72.438,157.297,-24.287,-9.607,-16.9,26.6,0.2175,0.54984,-0.18741,0.78433,869,0.91,-0.123,-0.371,-0.122,0.183,0.0,-161.461,-67.346,-30.696,-30.027,-10.567,7.473,31.52,-0.01501,-0.81516,0.1293,-0.56433,893
222,0.93,-0.009,-0.417,-0.183,-0.183,-0.061,-179.121,-66.204,-37.073,-23.507,-12.36,0.127,29.24,-0.1673,-0.79575,0.2608,-0.52026,906,0.917,-0.072,0.409,1.465,-0.427,0.427,-8.399,-64.847,-118.092,-25.873,-8.74,3.227,27.68,-0.39877,0.4906,0.2222,0.74216,882,0.953,-0.063,0.273,2.441,-3.784,0.061,-11.157,-72.532,157.363,-24.287,-9.607,-16.9,26.6,0.2175,0.54984,-0.18741,0.78433,894,0.911,-0.122,-0.368,-0.122,0.366,0.0,-161.455,-67.352,-30.718,-30.027,-10.567,7.473,31.52,-0.01501,-0.81516,0.1293,-0.56433,924
223,0.93,-0.008,-0.415,-0.427,-0.061,-0.122,-179.132,-66.198,-37.079,-23.507,-12.36,0.127,29.24,-0.1673,-0.79575,0.2608,-0.52026,907,0.911,-0.071,0.415,2.014,-0.671,0.671,-8.405,-64.863,-118.054,-25.873,-8.74,3.227,27.68,-0.39877,0.4906,0.2222,0.74216,883,0.95,-0.066,0.275,2.563,-2.625,0.916,-11.201,-72.592,157.456,-24.287,-9.607,-16.9,26.6,0.2175,0.54984,-0.18741,0.78433,895,0.911,-0.12,-0.367,0.0,0.61,-0.061,-161.45,-67.357,-30.718,-30.027,-10.567,7.473,31.52,-0.01501,-0.81516,0.1293,-0.56433,925
224,0.93,-0.007,-0.414,-0.366,0.061,-0.122,-179.143,-66.198,-37.095,-23.507,-12.36,0.127,29.24,-0.1673,-0.79575,0.2608,-0.52026,908,0.917,-0.064,0.417,1.831,0.305,0.183,-8.394,-64.874,-118.021,-25.873,-8.74,3.227,27.68,-0.39877,0.4906,0.2222,0.74216,884,0.953,-0.061,0.279,1.648,-1.221,-0.427,-11.201,-72.625,157.478,-24.287,-9.607,-16.9,26.6,0.2175,0.54984,-0.18741,0.78433,896,0.911,-0.12,-0.365,0.0,0.793,-0.061,-161.444,-67.368,-30.729,-30.027,-10.567,7.473,31.52,-0.01501,-0.81516,0.1293,-0.56433,926
225,0.93,-0.008,-0.415,-0.427,-0.061,-0.122,-179.132,-66.198,-37.079,-23.507,-12.36,0.127,29.24,-0.1673,-0.79575,0.2608,-0.52026,909,0.911,-0.071,0.415,2.014,-0.671,0.671,-8.405,-64.863,-118.054,-25.873,-8.74,3.227,27.68,-0.39877,0.4906,0.2222,0.74216,885,0.95,-0.066,0.275,2.563,-2.625,0.916,-11.201,-72.592,157.456,-24.287,-9.607,-16.9,26.6,0.2175,0.54984,-0.18741,0.78433,897,0.911,-0.12,-0.367,0.0,0.61,-0.061,-161.45,-67.357,-30.718,-30.027,-10.567,7.473,31.52,-0.01501,-0.81516,0.1293,-0.56433,927
226,0.93,-0.007,-0.414,-0.366,0.061,-0.122,-179.143,-66.198,-37.095,-23.507,-12.36,0.127,29.24,-0.1673,-0.79575,0.2608,-0.52026,910,0.917,-0.064,0.417,1.831,0.305,0.183,-8.394,-64.874,-118.021,-25.873,-8.74,3.227,27.68,-0.39877,0.4906,0.2222,0.74216,886,0.953,-0.061,0.279,1.648,-1.221,-0.427,-11.201,-72.625,157.478,-24.287,-9.607,-16.9,26.6,0.2175,0.54984,-0.18741,0.78433,898,0.911,-0.12,-0.365,0.0,0.793,-0.061,-161.444,-67.368,-30.729,-30.027,-10.567,7.473,31.52,-0.01501,-0.81516,0.1293,-0.56433,928
227,0.93,-0.008,-0.415,-0.427,-0.061,-0.122,-179.132,-66.198,-37.079,-23.507,-12.36,0.127,29.24,-0.1673,-0.79575,0.2608,-0.52026,911,0.911,-0.071,0.415,2.014,-0.671,0.671,-8.405,-64.863,-118.054,-25.873,-8.74,3.227,27.68,-0.39877,0.4906,0.2222,0.74216,887,0.95,-0.066,0.275,2.563,-2.625,0.916,-11.201,-72.592,157.456,-24.287,-9.607,-16.9,26.6,0.2175,0.54984,-0.18741,0.78433,899,0.911,-0.12,-0.367,0.0,0.61,-0.061,-161.45,-67.357,-30.718,-30.027,-10.567,7.473,31.52,-0.01501,-0.81516,0.1293,-0.56433,929
228,0.93,-0.007,-0.414,-0.366,0.061,-0.122,-179.143,-66.198,-37.095,-23.507,-12.36,0.127,29.24,-0.1673,-0.79575,0.2608,-0.52026,912,0.91,-0.064,0.417,1.831,0.305,0.183,-8.394,-64.874,-118.021,-25.873,-8.74,3.227,27.68,-0.39877,0.4906,0.2222,0.74216,900,0.953,-0.061,0.279,1.648,-1.221,-0.427,-11.201,-72.625,157.478,-24.287,-9.607,-16.9,26.6,0.2175,0.54984,-0.18741,0.78433,918,0.911,-0.12,-0.365,0.0,0.793,-0.061,-161.444,-67.368,-30.729,-30.027,-10.567,7.473,31.52,-0.01569,-0.81555,0.13138,-0.56326,936
229,0.931,-0.006,-0.414,-0.183,0.183,-0.122,-179.149,-66.198,-37.112,-23.507,-12.36,0.127,29.24,-0.1673,-0.79575,0.2608,-0.52026,913,0.912,-0.062,0.418,1.709,0.854,-0.061,-8.372,-64.869,-117.999,-25.873,-8.74,3.227,27.68,-0.39877,0.4906,0.2222,0.74216,901,0.955,-0.056,0.28,1.282,-0.122,-0.549,-11.162,-72.642,157.462,-24.287,-9.607,-16.9,26.6,0.2175,0.54984,-0.18741,0.78433,919,0.911,-0.12,-0.363,0.0,0.793,-0.061,-161.439,-67.385,-30.751,-30.027,-10.567,7.473,31.52,-0.01569,-0.81555,0.13138,-0.56326,937
230,0.93,-0.007,-0.41,-0.244,0.305,-0.183,-179.154,-66.204,-37.123,-23.507,-12.36,0.127,29.24,-0.1673,-0.79575,0.2608,-0.52026,914,0.91,-0.063,0.421,2.075,1.099,-0.061,-8.333,-64.858,-117.993,-25.873,-8.74,3.227,27.68,-0.39877,0.4906,0.2222,0.74216,902,0.953,-0.059,0.281,1.465,1.16,-0.244,-11.118,-72.636,157.445,-24.287,-9.607,-16.9,26.6,0.2175,0.54984,-0.18741,0.78433,920,0.911,-0.121,-0.359,0.0,0.671,-0.061,-161.433,-67.39,-30.773,-30.027,-10.567,7.473,31.52,-0.01569,-0.81555,0.13138,-0.56326,938
231,0.931,-0.006,-0.414,-0.183,0.183,-0.122,-179.149,-66.198,-37.112,-23.507,-12.36,0.127,29.24,-0.1673,-0.79575,0.2608,-0.52026,915,0.912,-0.062,0.418,1.709,0.854,-0.061,-8.372,-64.869,-117.999,-25.873,-8.74,3.227,27.68,-0.39877,0.4906,0.2222,0.74216,903,0.955,-0.056,0.28,1.282,-0.122,-0.549,-11.162,-72.642,157.462,-24.287,-9.607,-16.9,26.6,0.2175,0.54984,-0.18741,0.78433,921,0.911,-0.12,-0.363,0.0,0.793,-0.061,-161.439,-67.385,-30.751,-30.027,-10.567,7.473,31.52,-0.01569,-0.81555,0.13138,-0.56326,939
