Index,L5_Acceleration X(g),L5_Acceleration Y(g),L5_Acceleration Z(g),L5_Angular velocity X(°/s),L5_Angular velocity Y(°/s),L5_Angular velocity Z(°/s),L5_Angle X(°),L5_Angle Y(°),L5_Angle Z(°),L5_Magnetic field X(ʯt),L5_Magnetic field Y(ʯt),L5_Magnetic field Z(ʯt),L5_Temperature(℃),L5_Quaternions 0(),L5_Quaternions 1(),L5_Quaternions 2(),L5_Quaternions 3(),L5___orig_idx,T4_Acceleration X(g),T4_Acceleration Y(g),T4_Acceleration Z(g),T4_Angular velocity X(°/s),T4_Angular velocity Y(°/s),T4_Angular velocity Z(°/s),T4_Angle X(°),T4_Angle Y(°),T4_Angle Z(°),T4_Magnetic field X(ʯt),T4_Magnetic field Y(ʯt),T4_Magnetic field Z(ʯt),T4_Temperature(℃),T4_Quaternions 0(),T4_Quaternions 1(),T4_Quaternions 2(),T4_Quaternions 3(),T4___orig_idx,C7_Acceleration X(g),C7_Acceleration Y(g),C7_Acceleration Z(g),C7_Angular velocity X(°/s),C7_Angular velocity Y(°/s),C7_Angular velocity Z(°/s),C7_Angle X(°),C7_Angle Y(°),C7_Angle Z(°),C7_Magnetic field X(ʯt),C7_Magnetic field Y(ʯt),C7_Magnetic field Z(ʯt),C7_Temperature(℃),C7_Quaternions 0(),C7_Quaternions 1(),C7_Quaternions 2(),C7_Quaternions 3(),C7___orig_idx,T12_Acceleration X(g),T12_Acceleration Y(g),T12_Acceleration Z(g),T12_Angular velocity X(°/s),T12_Angular velocity Y(°/s),T12_Angular velocity Z(°/s),T12_Angle X(°),T12_Angle Y(°),T12_Angle Z(°),T12_Magnetic field X(ʯt),T12_Magnetic field Y(ʯt),T12_Magnetic field Z(ʯt),T12_Temperature(℃),T12_Quaternions 0(),T12_Quaternions 1(),T12_Quaternions 2(),T12_Quaternions 3(),T12___orig_idx
0,0.963,-0.181,-0.272,-0.183,-0.488,-0.366,-147.349,-71.614,-62.067,-30.02,-8.313,-0.033,29.57,0.09177,0.75253,-0.25696,0.59927,8,0.996,-0.037,0.152,-2.747,-1.404,-2.258,-11.915,-80.458,-113.016,-28.693,-9.887,10.707,29.47,0.37497,-0.57172,-0.29108,-0.6691,6,0.926,-0.077,0.36,-0.916,-13.123,-6.653,-11.107,-68.395,165.157,-22.86,-9.053,-17.287,30.89,0.15567,0.52997,-0.14111,0.8215,2,0.858,-0.024,-0.48,-1.16,-1.587,-0.183,-177.539,-60.859,-11.827,-28.22,-12.987,12.153,31.95,-0.03198,-0.85745,0.07608,-0.50781,0
1,0.966,-0.181,-0.271,-0.122,-0.122,-0.427,-147.382,-71.609,-62.084,-30.02,-8.313,-0.033,29.57,0.09177,0.75253,-0.25696,0.59927,9,0.999,-0.036,0.154,-2.258,-1.038,-1.587,-11.805,-80.486,-113.192,-28.693,-9.887,10.707,29.47,0.37497,-0.57172,-0.29108,-0.6691,7,0.92,-0.064,0.341,0.0,-13.123,-8.179,-10.876,-68.67,164.883,-22.86,-9.053,-17.287,30.89,0.15567,0.52997,-0.14111,0.8215,3,0.859,-0.023,-0.482,-0.854,-1.587,-0.122,-177.561,-60.826,-11.849,-28.22,-12.987,12.153,31.95,-0.03198,-0.85745,0.07608,-0.50781,1
2,0.966,-0.181,-0.272,0.122,-0.183,-0.549,-147.404,-71.609,-62.089,-29.633,-7.707,-0.707,29.57,0.09177,0.75253,-0.25696,0.59927,12,0.999,-0.034,0.151,-1.404,-1.16,-1.038,-11.744,-80.513,-113.297,-28.693,-9.887,10.707,29.47,0.36237,-0.57971,-0.28818,-0.67041,16,0.908,-0.061,0.344,2.869,-11.047,-8.911,-10.536,-68.934,164.548,-22.86,-9.053,-17.287,30.89,0.15567,0.52997,-0.14111,0.8215,4,0.859,-0.024,-0.484,-0.977,-1.404,-0.183,-177.589,-60.798,-11.86,-28.22,-12.987,12.153,31.95,-0.03198,-0.85745,0.07608,-0.50781,10
3,0.967,-0.177,-0.272,0.366,0.305,-0.671,-147.42,-71.62,-62.1,-29.633,-7.707,-0.707,29.57,0.09177,0.75253,-0.25696,0.59927,13,0.998,-0.032,0.149,-0.488,-1.404,-0.793,-11.711,-80.541,-113.357,-28.693,-9.887,10.707,29.47,0.36237,-0.57971,-0.28818,-0.67041,17,0.914,-0.06,0.35,5.493,-12.695,-6.348,-10.184,-69.181,164.251,-22.86,-9.053,-17.287,30.89,0.15567,0.52997,-0.14111,0.8215,5,0.858,-0.023,-0.486,-0.916,-1.221,-0.122,-177.61,-60.776,-11.86,-28.22,-12.987,12.153,31.95,-0.03198,-0.85745,0.07608,-0.50781,11
4,0.968,-0.174,-0.271,0.244,0.427,-0.732,-147.437,-71.631,-62.095,-29.633,-7.707,-0.707,29.57,0.09177,0.75253,-0.25696,0.59927,18,0.998,-0.032,0.149,-0.549,-1.221,-1.038,-11.651,-80.574,-113.439,-28.693,-9.887,10.707,29.47,0.36237,-0.57971,-0.28818,-0.67041,24,0.928,-0.081,0.337,6.287,-11.536,-3.784,-9.921,-69.428,164.092,-22.86,-9.053,-17.287,30.89,0.15567,0.52997,-0.14111,0.8215,20,0.858,-0.021,-0.488,-0.916,-1.221,-0.122,-177.632,-60.749,-11.865,-28.22,-12.987,12.153,31.95,-0.03198,-0.85745,0.07608,-0.50781,14
5,0.964,-0.171,-0.272,0.0,0.061,-0.916,-147.469,-71.642,-62.078,-29.633,-7.707,-0.707,29.57,0.09177,0.75253,-0.25696,0.59927,19,0.998,-0.029,0.147,-0.916,-0.549,-1.526,-11.536,-80.596,-113.599,-28.693,-9.887,10.707,29.47,0.36237,-0.57971,-0.28818,-0.67041,25,0.938,-0.096,0.329,4.761,-6.897,-5.554,-9.673,-69.615,163.932,-22.86,-9.053,-17.287,30.89,0.15567,0.52997,-0.14111,0.8215,21,0.844,-0.017,-0.489,-1.16,-1.038,0.0,-177.654,-60.727,-11.882,-28.22,-12.987,12.153,31.95,-0.03198,-0.85745,0.07608,-0.50781,15
6,0.971,-0.169,-0.272,0.0,-0.183,-0.854,-147.513,-71.642,-62.062,-29.633,-7.707,-0.707,29.57,0.09518,0.7514,-0.26096,0.59845,32,0.997,-0.026,0.147,-0.977,-0.061,-1.953,-11.349,-80.612,-113.824,-28.693,-9.887,10.707,29.47,0.36237,-0.57971,-0.28818,-0.67041,30,0.94,-0.09,0.329,4.211,-4.517,-7.507,-9.316,-69.736,163.63,-22.86,-9.053,-17.287,30.89,0.15567,0.52997,-0.14111,0.8215,22,0.896,-0.014,-0.492,-1.404,-1.648,0.244,-177.676,-60.699,-11.904,-27.973,-13.12,12.42,31.95,-0.03198,-0.85745,0.07608,-0.50781,26
7,0.968,-0.168,-0.276,-0.183,0.061,-0.793,-147.552,-71.653,-62.051,-29.633,-7.707,-0.707,29.57,0.09518,0.7514,-0.26096,0.59845,33,0.997,-0.022,0.15,-0.549,0.427,-2.014,-11.129,-80.618,-114.082,-28.693,-9.887,10.707,29.47,0.36237,-0.57971,-0.28818,-0.67041,31,0.942,-0.067,0.324,3.906,-5.066,-8.667,-8.888,-69.846,163.251,-22.86,-9.053,-17.287,30.89,0.15567,0.52997,-0.14111,0.8215,23,0.856,-0.015,-0.481,-2.869,-2.686,0.183,-177.704,-60.656,-11.915,-27.973,-13.12,12.42,31.95,-0.03198,-0.85745,0.07608,-0.50781,27
8,0.967,-0.166,-0.273,-0.244,-0.793,-0.793,-147.618,-71.647,-62.007,-29.633,-7.707,-0.707,29.57,0.09518,0.7514,-0.26096,0.59845,38,0.997,-0.021,0.15,-0.671,1.099,-1.831,-10.898,-80.612,-114.346,-28.693,-9.887,10.707,29.47,0.36237,-0.57971,-0.28818,-0.67041,42,0.939,-0.041,0.321,1.953,-5.005,-9.277,-8.432,-69.966,162.817,-22.86,-9.053,-17.287,30.89,0.15567,0.52997,-0.14111,0.8215,28,0.856,-0.012,-0.49,-1.16,0.0,0.0,-177.753,-60.617,-11.92,-27.973,-13.12,12.42,31.95,-0.03558,-0.85947,0.0798,-0.50357,34
9,0.969,-0.165,-0.276,-0.183,-0.305,-0.61,-147.673,-71.647,-61.968,-29.633,-7.707,-0.707,29.57,0.09518,0.7514,-0.26096,0.59845,39,0.997,-0.019,0.151,-0.977,1.343,-1.709,-10.679,-80.601,-114.609,-28.693,-9.887,10.707,29.47,0.36237,-0.57971,-0.28818,-0.67041,43,0.937,-0.027,0.324,-0.671,-5.066,-9.399,-7.993,-70.093,162.345,-22.86,-9.053,-17.287,30.89,0.15567,0.52997,-0.14111,0.8215,29,0.856,-0.012,-0.492,-1.16,0.0,0.0,-177.775,-60.617,-11.926,-27.973,-13.12,12.42,31.95,-0.03558,-0.85947,0.0798,-0.50357,35
10,0.97,-0.164,-0.274,-0.244,-0.305,-0.427,-147.717,-71.647,-61.941,-29.633,-7.707,-0.707,29.57,0.09518,0.7514,-0.26096,0.59845,44,0.997,-0.018,0.154,-0.977,1.526,-1.343,-10.492,-80.585,-114.835,-28.693,-9.887,10.707,29.47,0.36237,-0.57971,-0.28818,-0.67041,50,0.936,-0.022,0.322,-2.014,-6.042,-8.606,-7.597,-70.219,161.873,-22.86,-9.053,-17.287,30.89,0.15567,0.52997,-0.14111,0.8215,36,0.857,-0.011,-0.491,-1.099,0.183,0.0,-177.803,-60.612,-11.931,-27.973,-13.12,12.42,31.95,-0.03558,-0.85947,0.0798,-0.50357,46
11,0.969,-0.166,-0.273,-0.183,-0.549,-0.183,-147.755,-71.642,-61.908,-29.633,-7.707,-0.707,29.57,0.09518,0.7514,-0.26096,0.59845,45,0.995,-0.018,0.155,-0.916,1.648,-0.916,-10.338,-80.563,-115.021,-28.693,-9.887,10.707,29.47,0.36237,-0.57971,-0.28818,-0.67041,51,0.942,-0.021,0.316,-2.502,-5.981,-7.08,-7.273,-70.362,161.466,-22.86,-9.053,-17.287,30.89,0.15567,0.52997,-0.14111,0.8215,37,0.858,-0.011,-0.491,-0.854,0.366,0.061,-177.825,-60.617,-11.931,-27.973,-13.12,12.42,31.95,-0.03558,-0.85947,0.0798,-0.50357,47
12,0.97,-0.167,-0.274,-0.061,-0.305,0.0,-147.777,-71.631,-61.886,-29.633,-7.707,-0.707,29.57,0.09518,0.7514,-0.26096,0.59845,56,0.995,-0.018,0.157,-0.732,1.404,-0.488,-10.239,-80.541,-115.153,-28.693,-9.887,10.707,29.47,0.36237,-0.57971,-0.28818,-0.67041,54,0.946,-0.023,0.31,-3.052,-5.554,-5.066,-7.042,-70.488,161.147,-23.953,-9.507,-14.427,30.89,0.15567,0.52997,-0.14111,0.8215,40,0.857,-0.011,-0.491,-0.61,0.549,0.061,-177.841,-60.623,-11.953,-27.973,-13.12,12.42,31.95,-0.03558,-0.85947,0.0798,-0.50357,58
13,0.968,-0.168,-0.273,0.061,-0.061,0.183,-147.783,-71.631,-61.88,-29.633,-7.707,-0.707,29.57,0.09518,0.7514,-0.26096,0.59845,57,0.994,-0.019,0.156,-0.427,1.404,0.0,-10.184,-80.524,-115.23,-28.693,-9.887,10.707,29.47,0.36237,-0.57971,-0.28818,-0.67041,55,0.948,-0.028,0.3,-3.784,-4.456,-3.845,-6.905,-70.598,160.906,-23.953,-9.507,-14.427,30.89,0.15567,0.52997,-0.14111,0.8215,41,0.858,-0.011,-0.492,-0.488,0.671,0.122,-177.858,-60.628,-11.986,-27.973,-13.12,12.42,31.95,-0.03558,-0.85947,0.0798,-0.50357,59
14,0.967,-0.169,-0.273,0.061,-0.244,0.305,-147.777,-71.625,-61.891,-29.633,-7.707,-0.707,29.57,0.09518,0.7514,-0.26096,0.59845,62,0.994,-0.019,0.158,0.0,1.892,0.366,-10.157,-80.497,-115.263,-28.693,-9.887,10.707,29.47,0.36237,-0.57971,-0.28818,-0.67041,68,0.95,-0.029,0.303,-4.639,-3.296,-3.235,-6.817,-70.686,160.703,-23.953,-9.507,-14.427,30.89,0.15567,0.52997,-0.14111,0.8215,48,0.858,-0.012,-0.488,-0.183,0.671,0.122,-177.869,-60.639,-12.014,-27.973,-13.12,12.42,31.95,-0.03558,-0.85947,0.0798,-0.50357,60
15,0.967,-0.169,-0.273,0.122,-0.183,0.427,-147.772,-71.614,-61.919,-29.633,-7.707,-0.707,29.57,0.09518,0.7514,-0.26096,0.59845,63,0.994,-0.02,0.16,0.0,2.258,0.671,-10.157,-80.458,-115.269,-28.693,-9.887,10.707,29.47,0.36237,-0.57971,-0.28818,-0.67041,69,0.953,-0.03,0.305,-3.662,-3.418,-2.686,-6.757,-70.768,160.51,-23.953,-9.507,-14.427,30.89,0.15567,0.52997,-0.14111,0.8215,49,0.858,-0.012,-0.49,0.0,0.854,0.183,-177.869,-60.65,-12.036,-27.973,-13.12,12.42,31.95,-0.03558,-0.85947,0.0798,-0.50357,61
16,0.967,-0.171,-0.272,0.244,0.0,0.488,-147.75,-71.609,-61.946,-29.633,-7.707,-0.707,29.57,0.09518,0.7514,-0.26096,0.59845,70,0.99,-0.023,0.164,-0.061,2.075,0.916,-10.195,-80.42,-115.236,-28.3,-10.187,10.847,29.47,0.36237,-0.57971,-0.28818,-0.67041,76,0.953,-0.029,0.3,-2.38,-3.784,-1.892,-6.718,-70.851,160.362,-23.953,-9.507,-14.427,30.89,0.15567,0.52997,-0.14111,0.8215,52,0.858,-0.014,-0.487,0.122,0.854,0.244,-177.869,-60.661,-12.057,-27.973,-13.12,12.42,31.95,-0.03558,-0.85947,0.0798,-0.50357,72
17,0.967,-0.171,-0.272,0.366,-0.061,0.549,-147.722,-71.603,-61.979,-29.633,-7.707,-0.707,29.57,0.09518,0.7514,-0.26096,0.59845,71,0.986,-0.024,0.168,-0.061,1.587,1.16,-10.272,-80.387,-115.148,-28.3,-10.187,10.847,29.47,0.36237,-0.57971,-0.28818,-0.67041,77,0.952,-0.033,0.297,-2.014,-3.357,-1.221,-6.702,-70.933,160.252,-23.953,-9.507,-14.427,30.89,0.15567,0.52997,-0.14111,0.8215,53,0.858,-0.015,-0.487,0.061,0.854,0.244,-177.863,-60.672,-12.085,-27.973,-13.12,12.42,31.95,-0.03558,-0.85947,0.0798,-0.50357,73
18,0.968,-0.171,-0.272,0.244,-0.122,0.549,-147.7,-71.598,-62.029,-29.633,-7.707,-0.707,29.57,0.09518,0.7514,-0.26096,0.59845,80,0.986,-0.027,0.173,-0.427,1.16,1.282,-10.377,-80.365,-115.043,-28.3,-10.187,10.847,29.47,0.36237,-0.57971,-0.28818,-0.67041,88,0.955,-0.034,0.293,-2.014,-2.991,-1.343,-6.691,-71.005,160.148,-23.953,-9.507,-14.427,30.89,0.15567,0.52997,-0.14111,0.8215,64,0.859,-0.016,-0.485,0.061,0.793,0.305,-177.858,-60.688,-12.118,-27.973,-13.12,12.42,31.95,-0.03558,-0.85947,0.0798,-0.50357,78
19,0.968,-0.173,-0.272,0.183,-0.366,0.549,-147.684,-71.587,-62.062,-29.633,-7.707,-0.707,29.57,0.09518,0.7514,-0.26096,0.59845,81,0.986,-0.028,0.173,-0.488,0.854,1.282,-10.492,-80.349,-114.933,-28.3,-10.187,10.847,29.47,0.36237,-0.57971,-0.28818,-0.67041,89,0.952,-0.031,0.29,-1.831,-2.014,-1.831,-6.641,-71.065,160.01,-23.953,-9.507,-14.427,30.89,0.15567,0.52997,-0.14111,0.8215,65,0.859,-0.016,-0.483,0.061,0.793,0.305,-177.852,-60.699,-12.162,-27.973,-13.12,12.42,31.95,-0.03558,-0.85947,0.0798,-0.50357,79
20,0.968,-0.173,-0.273,0.122,-0.549,0.549,-147.673,-71.57,-62.089,-30.093,-7.92,0.14,29.57,0.09518,0.7514,-0.26096,0.59845,82,0.987,-0.03,0.172,-0.427,0.793,1.221,-10.602,-80.327,-114.829,-28.3,-10.187,10.847,29.47,0.35941,-0.57916,-0.28653,-0.67319,94,0.953,-0.022,0.296,-1.282,-1.16,-1.892,-6.57,-71.109,159.873,-23.953,-9.507,-14.427,30.89,0.15567,0.52997,-0.14111,0.8215,66,0.859,-0.017,-0.483,0.061,0.671,0.244,-177.841,-60.71,-12.217,-27.973,-13.12,12.42,31.95,-0.03558,-0.85947,0.0798,-0.50357,84
21,0.968,-0.173,-0.274,0.122,-0.549,0.549,-147.662,-71.554,-62.106,-30.093,-7.92,0.14,29.57,0.09518,0.7514,-0.26096,0.59845,83,0.988,-0.033,0.172,-0.305,0.977,1.038,-10.684,-80.305,-114.741,-28.3,-10.187,10.847,29.47,0.35941,-0.57916,-0.28653,-0.67319,95,0.953,-0.02,0.292,-1.099,-1.221,-1.343,-6.509,-71.153,159.758,-23.953,-9.507,-14.427,30.89,0.15567,0.52997,-0.14111,0.8215,67,0.859,-0.018,-0.483,0.122,0.671,0.244,-177.836,-60.721,-12.283,-27.973,-13.12,12.42,31.95,-0.03558,-0.85947,0.0798,-0.50357,85
22,0.967,-0.175,-0.274,0.122,-0.549,0.427,-147.656,-71.543,-62.133,-30.093,-7.92,0.14,29.57,0.09518,0.7514,-0.26096,0.59845,90,0.987,-0.035,0.172,-0.122,0.671,0.977,-10.767,-80.288,-114.653,-28.3,-10.187,10.847,29.47,0.35941,-0.57916,-0.28653,-0.67319,96,0.953,-0.02,0.295,-1.282,-0.488,-1.221,-6.454,-71.18,159.631,-23.953,-9.507,-14.427,30.89,0.15567,0.52997,-0.14111,0.8215,74,0.859,-0.019,-0.484,0.183,0.549,0.122,-177.83,-60.732,-12.327,-27.973,-13.12,12.42,31.95,-0.03558,-0.85947,0.0798,-0.50357,92
23,0.967,-0.175,-0.275,0.122,-0.427,0.366,-147.651,-71.532,-62.155,-30.093,-7.92,0.14,29.57,0.09518,0.7514,-0.26096,0.59845,91,0.988,-0.035,0.173,0.0,0.183,0.854,-10.849,-80.277,-114.565,-28.3,-10.187,10.847,29.47,0.35941,-0.57916,-0.28653,-0.67319,97,0.952,-0.017,0.297,-1.343,-0.427,-1.099,-6.405,-71.208,159.5,-23.953,-9.507,-14.427,30.89,0.15567,0.52997,-0.14111,0.8215,75,0.86,-0.019,-0.484,0.122,0.366,0.061,-177.825,-60.738,-12.349,-27.973,-13.12,12.42,31.95,-0.03558,-0.85947,0.0798,-0.50357,93
24,0.968,-0.176,-0.276,0.061,-0.549,0.244,-147.656,-71.516,-62.161,-30.093,-7.92,0.14,29.57,0.09619,0.75143,-0.26282,0.59741,104,0.99,-0.035,0.171,-0.122,0.0,0.671,-10.92,-80.277,-114.489,-28.3,-10.187,10.847,29.47,0.35941,-0.57916,-0.28653,-0.67319,102,0.951,-0.016,0.298,-1.099,0.0,-0.732,-6.367,-71.23,159.379,-23.953,-9.507,-14.427,30.89,0.15567,0.52997,-0.14111,0.8215,86,0.859,-0.019,-0.484,0.0,0.305,0.061,-177.825,-60.738,-12.365,-27.973,-13.12,12.42,31.95,-0.03558,-0.85947,0.0798,-0.50357,98
25,0.966,-0.176,-0.275,0.061,-0.549,0.122,-147.662,-71.505,-62.155,-30.093,-7.92,0.14,29.57,0.09619,0.75143,-0.26282,0.59741,105,0.991,-0.034,0.169,-0.305,-0.305,0.61,-10.997,-80.277,-114.417,-28.3,-10.187,10.847,29.47,0.35941,-0.57916,-0.28653,-0.67319,103,0.95,-0.017,0.301,-0.793,0.183,-0.427,-6.339,-71.241,159.274,-23.953,-9.507,-14.427,30.89,0.15567,0.52997,-0.14111,0.8215,87,0.859,-0.02,-0.484,0.0,0.183,0.061,-177.825,-60.743,-12.382,-27.973,-13.12,12.42,31.95,-0.03558,-0.85947,0.0798,-0.50357,99
26,0.966,-0.176,-0.275,0.122,-0.671,0.0,-147.678,-71.494,-62.128,-30.093,-7.92,0.14,29.57,0.09619,0.75143,-0.26282,0.59741,110,0.991,-0.034,0.168,-0.549,-0.732,0.366,-11.058,-80.288,-114.362,-28.3,-10.187,10.847,29.47,0.35941,-0.57916,-0.28653,-0.67319,118,0.95,-0.016,0.299,-0.488,0.366,-0.122,-6.312,-71.252,159.192,-23.953,-9.507,-14.427,30.89,0.17764,0.56393,-0.1488,0.79257,100,0.859,-0.019,-0.484,0.0,0.122,0.0,-177.825,-60.743,-12.409,-28.08,-12.92,12.073,31.95,-0.03558,-0.85947,0.0798,-0.50357,112
27,0.967,-0.175,-0.276,0.122,-0.61,0.0,-147.695,-71.483,-62.122,-30.093,-7.92,0.14,29.57,0.09619,0.75143,-0.26282,0.59741,111,0.991,-0.035,0.167,-0.977,-1.099,0.061,-11.107,-80.31,-114.335,-28.3,-10.187,10.847,29.47,0.35941,-0.57916,-0.28653,-0.67319,119,0.948,-0.018,0.295,-0.183,1.16,0.122,-6.29,-71.246,159.131,-23.953,-9.507,-14.427,30.89,0.17764,0.56393,-0.1488,0.79257,101,0.86,-0.019,-0.485,-0.061,0.244,0.0,-177.825,-60.743,-12.448,-28.08,-12.92,12.073,31.95,-0.03558,-0.85947,0.0798,-0.50357,113
28,0.967,-0.174,-0.277,0.183,-0.671,-0.061,-147.717,-71.472,-62.111,-30.093,-7.92,0.14,29.57,0.09619,0.75143,-0.26282,0.59741,120,0.991,-0.035,0.165,-1.404,-1.16,-0.305,-11.124,-80.332,-114.346,-28.3,-10.187,10.847,29.47,0.35941,-0.57916,-0.28653,-0.67319,126,0.948,-0.02,0.3,-0.183,1.587,0.305,-6.279,-71.23,159.06,-23.953,-9.507,-14.427,30.89,0.17764,0.56393,-0.1488,0.79257,106,0.859,-0.019,-0.487,-0.183,0.366,0.0,-177.83,-60.749,-12.486,-28.08,-12.92,12.073,31.95,-0.03558,-0.85947,0.0798,-0.50357,122
29,0.967,-0.175,-0.278,0.183,-0.61,-0.183,-147.739,-71.461,-62.084,-30.093,-7.92,0.14,29.57,0.09619,0.75143,-0.26282,0.59741,121,0.992,-0.034,0.163,-1.282,-1.099,-0.549,-11.107,-80.354,-114.379,-28.3,-10.187,10.847,29.47,0.35941,-0.57916,-0.28653,-0.67319,127,0.943,-0.022,0.304,-0.061,2.197,0.549,-6.268,-71.208,159.016,-23.953,-9.507,-14.427,30.89,0.17764,0.56393,-0.1488,0.79257,107,0.859,-0.018,-0.488,-0.244,0.488,0.0,-177.83,-60.754,-12.53,-28.08,-12.92,12.073,31.95,-0.03558,-0.85947,0.0798,-0.50357,123
30,0.966,-0.174,-0.277,0.122,-0.427,-0.305,-147.761,-71.455,-62.056,-30.093,-7.92,0.14,29.57,0.09619,0.75143,-0.26282,0.59741,130,0.994,-0.035,0.159,-0.977,-0.549,-0.854,-11.047,-80.365,-114.445,-28.3,-10.187,10.847,29.47,0.35941,-0.57916,-0.28653,-0.67319,128,0.939,-0.024,0.313,0.0,2.197,0.671,-6.268,-71.175,158.994,-23.953,-9.507,-14.427,30.89,0.17764,0.56393,-0.1488,0.79257,108,0.859,-0.018,-0.488,-0.244,0.488,-0.061,-177.836,-60.76,-12.563,-28.08,-12.92,12.073,31.95,-0.03903,-0.8584,0.08472,-0.50433,132
31,0.967,-0.174,-0.279,0.061,-0.488,-0.305,-147.788,-71.45,-62.045,-30.093,-7.92,0.14,29.57,0.09619,0.75143,-0.26282,0.59741,131,0.997,-0.033,0.159,-0.977,0.305,-1.038,-10.942,-80.365,-114.554,-28.3,-10.187,10.847,29.47,0.35941,-0.57916,-0.28653,-0.67319,129,0.938,-0.026,0.315,-0.305,1.953,0.854,-6.284,-71.147,158.972,-23.953,-9.507,-14.427,30.89,0.17764,0.56393,-0.1488,0.79257,109,0.859,-0.018,-0.486,-0.244,0.488,-0.061,-177.841,-60.765,-12.596,-28.08,-12.92,12.073,31.95,-0.03903,-0.8584,0.08472,-0.50433,133
32,0.969,-0.174,-0.28,0.0,-0.244,-0.427,-147.821,-71.444,-62.045,-30.093,-7.92,0.14,29.57,0.09619,0.75143,-0.26282,0.59741,136,0.993,-0.031,0.162,-0.61,0.183,-1.038,-10.838,-80.365,-114.67,-28.3,-10.187,10.847,29.47,0.35941,-0.57916,-0.28653,-0.67319,144,0.937,-0.029,0.317,-0.488,1.709,0.854,-6.312,-71.12,158.917,-23.953,-9.507,-14.427,30.89,0.17764,0.56393,-0.1488,0.79257,114,0.86,-0.018,-0.489,-0.366,0.671,-0.122,-177.852,-60.776,-12.623,-28.08,-12.92,12.073,31.95,-0.03903,-0.8584,0.08472,-0.50433,138
33,0.969,-0.172,-0.278,0.183,0.183,-0.366,-147.832,-71.45,-62.056,-30.093,-7.92,0.14,29.57,0.09619,0.75143,-0.26282,0.59741,137,0.989,-0.03,0.166,-0.183,-0.427,-0.977,-10.745,-80.376,-114.769,-28.3,-10.187,10.847,29.47,0.35941,-0.57916,-0.28653,-0.67319,145,0.938,-0.031,0.315,-0.366,1.587,0.671,-6.334,-71.098,158.851,-23.953,-9.507,-14.427,30.89,0.17764,0.56393,-0.1488,0.79257,115,0.86,-0.018,-0.489,-0.366,0.549,-0.061,-177.863,-60.782,-12.634,-28.08,-12.92,12.073,31.95,-0.03903,-0.8584,0.08472,-0.50433,139
34,0.968,-0.17,-0.276,0.122,0.183,-0.305,-147.843,-71.455,-62.067,-30.093,-7.92,0.14,29.57,0.09619,0.75143,-0.26282,0.59741,146,0.988,-0.026,0.168,-0.061,-0.671,-0.916,-10.657,-80.392,-114.857,-28.3,-10.187,10.847,29.47,0.35941,-0.57916,-0.28653,-0.67319,154,0.939,-0.035,0.312,-0.244,1.709,0.427,-6.339,-71.071,158.791,-23.953,-9.507,-14.427,30.89,0.17764,0.56393,-0.1488,0.79257,116,0.86,-0.015,-0.486,-0.305,0.183,-0.061,-177.869,-60.787,-12.634,-28.08,-12.92,12.073,31.95,-0.03903,-0.8584,0.08472,-0.50433,148
35,0.968,-0.168,-0.276,-0.061,0.122,-0.427,-147.859,-71.461,-62.073,-30.093,-7.92,0.14,29.57,0.09619,0.75143,-0.26282,0.59741,147,0.988,-0.026,0.169,-0.427,-0.61,-1.099,-10.547,-80.409,-114.972,-28.3,-10.187,10.847,29.47,0.35941,-0.57916,-0.28653,-0.67319,155,0.938,-0.035,0.318,-0.122,1.648,0.488,-6.345,-71.049,158.736,-23.953,-9.507,-14.427,30.89,0.17764,0.56393,-0.1488,0.79257,117,0.86,-0.013,-0.485,-0.366,0.061,-0.061,-177.88,-60.782,-12.634,-28.08,-12.92,12.073,31.95,-0.03903,-0.8584,0.08472,-0.50433,149
36,0.967,-0.169,-0.275,-0.122,-0.061,-0.366,-147.887,-71.461,-62.073,-30.093,-7.92,0.14,29.57,0.09619,0.75143,-0.26282,0.59741,162,0.986,-0.026,0.169,-0.366,-0.427,-1.282,-10.415,-80.42,-115.104,-28.587,-9.853,10.72,29.47,0.35941,-0.57916,-0.28653,-0.67319,160,0.939,-0.036,0.32,0.0,1.099,0.61,-6.361,-71.027,158.719,-23.953,-9.507,-14.427,30.89,0.17764,0.56393,-0.1488,0.79257,124,0.86,-0.013,-0.484,-0.427,0.0,-0.061,-177.891,-60.782,-12.634,-28.08,-12.92,12.073,31.95,-0.03903,-0.8584,0.08472,-0.50433,156
37,0.966,-0.17,-0.277,-0.305,-0.366,-0.305,-147.92,-71.455,-62.056,-30.093,-7.92,0.14,29.57,0.09619,0.75143,-0.26282,0.59741,163,0.986,-0.024,0.17,-0.488,-0.183,-1.282,-10.272,-80.425,-115.258,-28.587,-9.853,10.72,29.47,0.35941,-0.57916,-0.28653,-0.67319,161,0.941,-0.036,0.317,-0.122,0.549,0.549,-6.378,-71.016,158.725,-23.953,-9.507,-14.427,30.89,0.17764,0.56393,-0.1488,0.79257,125,0.86,-0.013,-0.482,-0.305,0.061,-0.122,-177.907,-60.776,-12.634,-28.08,-12.92,12.073,31.95,-0.03903,-0.8584,0.08472,-0.50433,157
38,0.966,-0.169,-0.278,-0.305,-0.488,-0.305,-147.964,-71.45,-62.045,-29.613,-8.347,-0.153,29.57,0.09619,0.75143,-0.26282,0.59741,168,0.988,-0.021,0.17,-0.854,-0.122,-1.099,-10.151,-80.431,-115.395,-28.587,-9.853,10.72,29.47,0.35941,-0.57916,-0.28653,-0.67319,174,0.943,-0.036,0.315,-0.427,0.671,0.305,-6.394,-71.01,158.725,-23.953,-9.507,-14.427,30.89,0.17764,0.56393,-0.1488,0.79257,134,0.859,-0.013,-0.481,-0.244,0.061,-0.061,-177.918,-60.776,-12.645,-28.08,-12.92,12.073,31.95,-0.03903,-0.8584,0.08472,-0.50433,164
39,0.968,-0.17,-0.277,-0.244,-0.549,-0.244,-148.002,-71.444,-62.012,-29.613,-8.347,-0.153,29.57,0.09619,0.75143,-0.26282,0.59741,169,0.989,-0.023,0.168,-0.793,-0.183,-0.671,-10.08,-80.436,-115.477,-28.587,-9.853,10.72,29.47,0.35941,-0.57916,-0.28653,-0.67319,175,0.942,-0.036,0.316,-0.488,0.305,0.122,-6.405,-71.01,158.725,-23.953,-9.507,-14.427,30.89,0.17764,0.56393,-0.1488,0.79257,135,0.86,-0.014,-0.481,-0.305,0.0,-0.061,-177.929,-60.776,-12.656,-28.08,-12.92,12.073,31.95,-0.03903,-0.8584,0.08472,-0.50433,165
40,0.967,-0.171,-0.276,-0.122,-0.671,-0.183,-148.035,-71.433,-61.985,-29.613,-8.347,-0.153,29.57,0.09619,0.75143,-0.26282,0.59741,176,0.99,-0.023,0.167,-0.732,-0.122,-0.427,-10.036,-80.436,-115.532,-28.587,-9.853,10.72,29.47,0.35803,-0.57971,-0.28653,-0.67343,178,0.943,-0.038,0.315,-0.732,-0.244,-0.122,-6.411,-71.016,158.725,-23.953,-9.507,-14.427,30.89,0.17764,0.56393,-0.1488,0.79257,140,0.86,-0.014,-0.482,-0.305,-0.061,-0.061,-177.94,-60.771,-12.678,-28.08,-12.92,12.073,31.95,-0.03903,-0.8584,0.08472,-0.50433,170
41,0.967,-0.17,-0.274,-0.061,-0.671,-0.183,-148.068,-71.422,-61.952,-29.613,-8.347,-0.153,29.57,0.09619,0.75143,-0.26282,0.59741,177,0.99,-0.023,0.167,-0.732,-0.122,-0.244,-10.009,-80.436,-115.565,-28.587,-9.853,10.72,29.47,0.35803,-0.57971,-0.28653,-0.67343,179,0.943,-0.038,0.311,-0.916,-0.793,-0.549,-6.405,-71.032,158.698,-23.953,-9.507,-14.427,30.89,0.17764,0.56393,-0.1488,0.79257,141,0.86,-0.014,-0.481,-0.244,-0.122,-0.061,-177.951,-60.771,-12.7,-28.08,-12.92,12.073,31.95,-0.03903,-0.8584,0.08472,-0.50433,171
42,0.967,-0.168,-0.274,0.0,-0.916,-0.244,-148.112,-71.411,-61.908,-29.613,-8.347,-0.153,29.57,0.09738,0.75189,-0.26413,0.59607,188,0.992,-0.024,0.167,-0.549,-0.061,-0.061,-9.998,-80.436,-115.576,-28.587,-9.853,10.72,29.47,0.35803,-0.57971,-0.28653,-0.67343,186,0.944,-0.036,0.309,-0.732,-0.671,-0.977,-6.372,-71.054,158.637,-23.953,-9.507,-14.427,30.89,0.17764,0.56393,-0.1488,0.79257,142,0.86,-0.012,-0.481,-0.183,-0.122,0.0,-177.962,-60.765,-12.711,-28.08,-12.92,12.073,31.95,-0.03903,-0.8584,0.08472,-0.50433,180
43,0.967,-0.169,-0.274,0.061,-1.038,-0.183,-148.156,-71.395,-61.87,-29.613,-8.347,-0.153,29.57,0.09738,0.75189,-0.26413,0.59607,189,0.992,-0.026,0.166,-0.549,-0.244,0.0,-9.998,-80.442,-115.582,-28.587,-9.853,10.72,29.47,0.35803,-0.57971,-0.28653,-0.67343,187,0.948,-0.037,0.302,-0.488,-0.854,-1.16,-6.328,-71.082,158.571,-23.953,-9.507,-14.427,30.89,0.17764,0.56393,-0.1488,0.79257,143,0.86,-0.014,-0.482,-0.183,0.0,0.0,-177.968,-60.765,-12.733,-28.08,-12.92,12.073,31.95,-0.03903,-0.8584,0.08472,-0.50433,181
44,0.963,-0.17,-0.275,-0.183,-1.221,-0.305,-148.217,-71.378,-61.815,-29.613,-8.347,-0.153,29.57,0.09738,0.75189,-0.26413,0.59607,190,0.992,-0.026,0.162,-0.366,-0.122,0.0,-9.992,-80.442,-115.593,-28.587,-9.853,10.72,29.47,0.35803,-0.57971,-0.28653,-0.67343,198,0.949,-0.033,0.298,-0.732,-0.305,-1.465,-6.262,-71.098,158.472,-23.953,-9.507,-14.427,30.89,0.17764,0.56393,-0.1488,0.79257,150,0.86,-0.014,-0.483,-0.244,0.0,0.0,-177.979,-60.76,-12.761,-28.08,-12.92,12.073,31.95,-0.03903,-0.8584,0.08472,-0.50433,192
45,0.963,-0.168,-0.28,-0.427,-1.526,-0.427,-148.293,-71.362,-61.743,-29.613,-8.347,-0.153,29.57,0.09738,0.75189,-0.26413,0.59607,191,0.993,-0.025,0.162,-0.305,0.122,0.0,-9.981,-80.436,-115.62,-28.587,-9.853,10.72,29.47,0.35803,-0.57971,-0.28653,-0.67343,199,0.947,-0.033,0.31,-0.305,0.0,-1.404,-6.191,-71.115,158.379,-23.953,-9.507,-14.427,30.89,0.17764,0.56393,-0.1488,0.79257,151,0.859,-0.014,-0.482,-0.122,0.122,0.0,-177.984,-60.76,-12.772,-28.08,-12.92,12.073,31.95,-0.03903,-0.8584,0.08472,-0.50433,193
46,0.965,-0.169,-0.281,-0.427,-1.648,-0.549,-148.381,-71.34,-61.666,-29.613,-8.347,-0.153,29.57,0.09738,0.75189,-0.26413,0.59607,200,0.993,-0.025,0.16,-0.305,0.732,-0.061,-9.948,-80.425,-115.67,-28.587,-9.853,10.72,29.47,0.35803,-0.57971,-0.28653,-0.67343,202,0.942,-0.028,0.313,0.305,-0.427,-1.221,-6.119,-71.131,158.291,-23.953,-9.507,-14.427,30.89,0.17764,0.56393,-0.1488,0.79257,152,0.859,-0.015,-0.483,-0.061,0.366,0.0,-177.99,-60.765,-12.761,-28.0,-13.6,12.827,31.95,-0.03903,-0.8584,0.08472,-0.50433,194
47,0.965,-0.171,-0.284,-0.366,-1.892,-0.61,-148.48,-71.312,-61.573,-29.613,-8.347,-0.153,29.57,0.09738,0.75189,-0.26413,0.59607,201,0.994,-0.025,0.162,-0.244,1.77,0.0,-9.904,-80.398,-115.73,-28.587,-9.853,10.72,29.47,0.35803,-0.57971,-0.28653,-0.67343,203,0.939,-0.027,0.314,0.366,-0.549,-0.732,-6.07,-71.147,158.242,-23.953,-9.507,-14.427,30.89,0.17764,0.56393,-0.1488,0.79257,153,0.86,-0.014,-0.484,0.0,0.61,0.0,-177.99,-60.776,-12.744,-28.0,-13.6,12.827,31.95,-0.03903,-0.8584,0.08472,-0.50433,195
48,0.963,-0.17,-0.285,-0.488,-2.441,-0.671,-148.601,-71.279,-61.479,-29.613,-8.347,-0.153,29.57,0.09738,0.75189,-0.26413,0.59607,206,0.993,-0.026,0.161,-0.061,2.014,0.244,-9.866,-80.359,-115.785,-28.587,-9.853,10.72,29.47,0.35803,-0.57971,-0.28653,-0.67343,214,0.939,-0.028,0.314,0.0,-0.732,-0.916,-6.015,-71.169,158.187,-23.953,-9.507,-14.427,30.89,0.17764,0.56393,-0.1488,0.79257,158,0.86,-0.015,-0.486,-0.061,0.793,0.0,-177.995,-60.793,-12.744,-28.0,-13.6,12.827,31.95,-0.03903,-0.8584,0.08472,-0.50433,204
49,0.965,-0.17,-0.29,-0.305,-3.235,-0.793,-148.749,-71.23,-61.353,-29.613,-8.347,-0.153,29.57,0.09738,0.75189,-0.26413,0.59607,207,0.994,-0.027,0.161,0.305,2.319,0.549,-9.849,-80.321,-115.796,-28.587,-9.853,10.72,29.47,0.35803,-0.57971,-0.28653,-0.67343,215,0.938,-0.027,0.312,-0.183,-0.916,-1.16,-5.96,-71.197,158.121,-23.953,-9.507,-14.427,30.89,0.17764,0.56393,-0.1488,0.79257,159,0.859,-0.015,-0.487,-0.061,1.038,0.0,-178.0,-60.809,-12.733,-28.0,-13.6,12.827,31.95,-0.03903,-0.8584,0.08472,-0.50433,205
50,0.971,-0.169,-0.29,0.0,-3.967,-0.916,-148.914,-71.169,-61.199,-29.613,-8.347,-0.153,29.57,0.09738,0.75189,-0.26413,0.59607,210,0.997,-0.029,0.163,0.793,2.502,0.977,-9.86,-80.277,-115.774,-28.587,-9.853,10.72,29.47,0.35803,-0.57971,-0.28653,-0.67343,216,0.938,-0.024,0.312,-0.549,-0.61,-1.343,-5.894,-71.219,158.038,-23.953,-9.507,-14.427,30.89,0.17764,0.56393,-0.1488,0.79257,166,0.86,-0.015,-0.487,0.061,1.526,0.0,-178.0,-60.831,-12.722,-28.0,-13.6,12.827,31.95,-0.04114,-0.85785,0.08676,-0.50473,208
51,0.972,-0.168,-0.296,0.61,-3.418,-1.099,-149.062,-71.12,-61.024,-29.613,-8.347,-0.153,29.57,0.09738,0.75189,-0.26413,0.59607,211,0.998,-0.03,0.163,1.221,2.136,1.099,-9.904,-80.228,-115.714,-28.587,-9.853,10.72,29.47,0.35803,-0.57971,-0.28653,-0.67343,217,0.94,-0.02,0.313,-1.038,-0.671,-1.587,-5.817,-71.241,157.928,-23.953,-9.507,-14.427,30.89,0.17764,0.56393,-0.1488,0.79257,167,0.86,-0.017,-0.489,0.305,1.953,0.0,-177.995,-60.864,-12.717,-28.0,-13.6,12.827,31.95,-0.04114,-0.85785,0.08676,-0.50473,209
52,0.972,-0.169,-0.297,1.404,-2.075,-1.038,-149.156,-71.093,-60.886,-29.613,-8.347,-0.153,29.57,0.09738,0.75189,-0.26413,0.59607,218,0.997,-0.029,0.161,1.404,1.709,0.977,-9.954,-80.189,-115.631,-28.587,-9.853,10.72,29.47,0.35803,-0.57971,-0.28653,-0.67343,226,0.942,-0.02,0.312,-1.099,-0.61,-1.099,-5.762,-71.257,157.83,-23.953,-9.507,-14.427,30.89,0.17764,0.56393,-0.1488,0.79257,172,0.862,-0.018,-0.492,0.61,1.77,0.0,-177.984,-60.897,-12.722,-28.0,-13.6,12.827,31.95,-0.04114,-0.85785,0.08676,-0.50473,220
53,0.97,-0.173,-0.298,1.282,-1.404,-0.916,-149.222,-71.076,-60.782,-29.613,-8.347,-0.153,29.57,0.09738,0.75189,-0.26413,0.59607,219,0.996,-0.028,0.164,1.648,1.526,0.793,-9.992,-80.156,-115.565,-28.587,-9.853,10.72,29.47,0.35803,-0.57971,-0.28653,-0.67343,227,0.942,-0.022,0.31,-1.038,-0.549,-0.793,-5.724,-71.274,157.742,-23.953,-9.507,-14.427,30.89,0.17764,0.56393,-0.1488,0.79257,173,0.863,-0.017,-0.493,0.793,1.282,-0.305,-177.979,-60.919,-12.711,-28.0,-13.6,12.827,31.95,-0.04114,-0.85785,0.08676,-0.50473,221
54,0.967,-0.173,-0.292,1.038,-0.61,-0.671,-149.255,-71.071,-60.699,-29.613,-8.347,-0.153,29.57,0.09738,0.75189,-0.26413,0.59607,232,0.995,-0.027,0.164,1.221,1.587,0.549,-10.009,-80.129,-115.527,-28.587,-9.853,10.72,29.47,0.35803,-0.57971,-0.28653,-0.67343,238,0.943,-0.021,0.311,-1.038,-0.427,-0.61,-5.696,-71.29,157.648,-23.953,-9.507,-14.427,30.89,0.17764,0.56393,-0.1488,0.79257,182,0.862,-0.016,-0.492,0.854,0.671,-0.305,-177.973,-60.93,-12.717,-28.0,-13.6,12.827,31.95,-0.04114,-0.85785,0.08676,-0.50473,228
55,0.967,-0.171,-0.287,0.61,-0.061,-0.366,-149.266,-71.071,-60.667,-29.613,-8.347,-0.153,29.57,0.09738,0.75189,-0.26413,0.59607,233,0.989,-0.025,0.167,0.549,1.465,0.244,-10.009,-80.101,-115.516,-28.587,-9.853,10.72,29.47,0.35803,-0.57971,-0.28653,-0.67343,239,0.945,-0.023,0.31,-0.916,-0.427,-0.244,-5.685,-71.301,157.571,-23.953,-9.507,-14.427,30.89,0.17764,0.56393,-0.1488,0.79257,183,0.862,-0.015,-0.49,0.793,0.183,-0.244,-177.968,-60.93,-12.728,-28.0,-13.6,12.827,31.95,-0.04114,-0.85785,0.08676,-0.50473,229
56,0.966,-0.169,-0.282,0.0,0.671,-0.183,-149.255,-71.082,-60.677,-29.687,-8.22,0.593,29.57,0.09738,0.75189,-0.26413,0.59607,240,0.987,-0.023,0.174,0.244,1.404,0.061,-9.987,-80.079,-115.538,-28.633,-10.32,10.753,29.47,0.35803,-0.57971,-0.28653,-0.67343,244,0.945,-0.025,0.31,-0.977,-0.183,0.0,-5.691,-71.312,157.511,-23.427,-10.333,-14.513,30.89,0.17764,0.56393,-0.1488,0.79257,184,0.862,-0.016,-0.485,0.549,0.0,-0.244,-177.968,-60.925,-12.739,-28.0,-13.6,12.827,31.95,-0.04114,-0.85785,0.08676,-0.50473,234
57,0.964,-0.171,-0.275,-0.61,1.343,-0.183,-149.238,-71.104,-60.71,-29.687,-8.22,0.593,29.57,0.09738,0.75189,-0.26413,0.59607,241,0.983,-0.024,0.177,-0.061,1.343,0.0,-9.948,-80.057,-115.582,-28.633,-10.32,10.753,29.47,0.35803,-0.57971,-0.28653,-0.67343,245,0.945,-0.026,0.304,-0.854,-0.122,0.427,-5.718,-71.318,157.5,-23.427,-10.333,-14.513,30.89,0.17764,0.56393,-0.1488,0.79257,185,0.863,-0.013,-0.481,0.061,-0.183,-0.183,-177.973,-60.919,-12.739,-28.0,-13.6,12.827,31.95,-0.04114,-0.85785,0.08676,-0.50473,235
58,0.961,-0.174,-0.275,-0.916,1.465,-0.305,-149.222,-71.131,-60.76,-29.687,-8.22,0.593,29.57,0.09738,0.75189,-0.26413,0.59607,250,0.981,-0.028,0.181,-0.244,1.16,0.0,-9.915,-80.035,-115.642,-28.633,-10.32,10.753,29.47,0.35803,-0.57971,-0.28653,-0.67343,248,0.945,-0.027,0.304,-0.916,0.488,0.427,-5.746,-71.318,157.5,-23.427,-10.333,-14.513,30.89,0.17764,0.56393,-0.1488,0.79257,196,0.863,-0.011,-0.477,-0.427,-0.244,-0.061,-177.984,-60.908,-12.733,-28.0,-13.6,12.827,31.95,-0.04114,-0.85785,0.08676,-0.50473,242
59,0.963,-0.174,-0.277,-0.61,1.526,-0.305,-149.2,-71.164,-60.815,-29.687,-8.22,0.593,29.57,0.09738,0.75189,-0.26413,0.59607,251,0.983,-0.032,0.184,-0.427,1.038,0.0,-9.888,-80.013,-115.703,-28.633,-10.32,10.753,29.47,0.35803,-0.57971,-0.28653,-0.67343,249,0.945,-0.026,0.3,-0.732,0.305,0.488,-5.773,-71.318,157.511,-23.427,-10.333,-14.513,30.89,0.17764,0.56393,-0.1488,0.79257,197,0.862,-0.013,-0.473,-0.793,-0.244,0.0,-178.0,-60.897,-12.75,-28.0,-13.6,12.827,31.95,-0.04114,-0.85785,0.08676,-0.50473,243
60,0.963,-0.172,-0.28,0.0,1.709,-0.183,-149.15,-71.191,-60.853,-29.687,-8.22,0.593,29.57,0.09763,0.75446,-0.26358,0.59305,256,0.982,-0.036,0.181,-0.732,1.099,-0.183,-9.86,-79.991,-115.757,-28.633,-10.32,10.753,29.47,0.35907,-0.57739,-0.28485,-0.6756,260,0.946,-0.026,0.302,-0.671,0.61,0.244,-5.79,-71.312,157.5,-23.427,-10.333,-14.513,30.89,0.18701,0.56305,-0.15369,0.79013,212,0.862,-0.016,-0.474,-0.793,-0.122,0.061,-178.022,-60.897,-12.766,-28.0,-13.6,12.827,31.95,-0.04114,-0.85785,0.08676,-0.50473,252
61,0.962,-0.17,-0.277,0.549,1.709,-0.122,-149.09,-71.219,-60.914,-29.687,-8.22,0.593,29.57,0.09763,0.75446,-0.26358,0.59305,257,0.983,-0.036,0.185,-0.61,1.343,-0.366,-9.822,-79.969,-115.834,-28.633,-10.32,10.753,29.47,0.35907,-0.57739,-0.28485,-0.6756,261,0.948,-0.026,0.302,-0.427,0.366,0.366,-5.806,-71.312,157.495,-23.427,-10.333,-14.513,30.89,0.18701,0.56305,-0.15369,0.79013,213,0.862,-0.017,-0.472,-0.793,-0.366,0.122,-178.033,-60.886,-12.777,-28.0,-13.6,12.827,31.95,-0.04114,-0.85785,0.08676,-0.50473,253
62,0.964,-0.166,-0.279,0.488,1.099,-0.244,-149.052,-71.241,-60.974,-29.687,-8.22,0.593,29.57,0.09763,0.75446,-0.26358,0.59305,262,0.984,-0.034,0.187,-0.488,0.977,-0.671,-9.761,-79.942,-115.922,-28.633,-10.32,10.753,29.47,0.35907,-0.57739,-0.28485,-0.6756,264,0.947,-0.026,0.301,-0.122,0.793,0.549,-5.828,-71.307,157.484,-23.427,-10.333,-14.513,30.89,0.18701,0.56305,-0.15369,0.79013,222,0.861,-0.019,-0.471,-0.61,-0.488,0.0,-178.05,-60.875,-12.788,-28.0,-13.6,12.827,31.95,-0.04114,-0.85785,0.08676,-0.50473,258
63,0.969,-0.166,-0.277,0.061,0.732,-0.305,-149.041,-71.257,-61.024,-29.687,-8.22,0.593,29.57,0.09763,0.75446,-0.26358,0.59305,263,0.983,-0.029,0.188,-0.244,0.305,-1.099,-9.668,-79.926,-116.043,-28.633,-10.32,10.753,29.47,0.35907,-0.57739,-0.28485,-0.6756,265,0.947,-0.025,0.3,0.61,0.916,1.282,-5.867,-71.296,157.511,-23.427,-10.333,-14.513,30.89,0.18701,0.56305,-0.15369,0.79013,223,0.862,-0.019,-0.472,-0.488,-0.549,0.0,-178.061,-60.87,-12.805,-28.0,-13.6,12.827,31.95,-0.04114,-0.85785,0.08676,-0.50473,259
64,0.968,-0.166,-0.276,-0.427,0.61,-0.366,-149.046,-71.274,-61.046,-29.687,-8.22,0.593,29.57,0.09763,0.75446,-0.26358,0.59305,272,0.984,-0.027,0.185,0.0,-0.244,-1.587,-9.536,-79.92,-116.191,-28.633,-10.32,10.753,29.47,0.35907,-0.57739,-0.28485,-0.6756,270,0.95,-0.029,0.305,1.221,0.977,1.648,-5.922,-71.285,157.582,-23.427,-10.333,-14.513,30.89,0.18701,0.56305,-0.15369,0.79013,224,0.862,-0.017,-0.474,-0.366,-0.732,-0.183,-178.072,-60.853,-12.805,-28.0,-13.6,12.827,31.95,-0.04114,-0.85785,0.08676,-0.50473,266
65,0.966,-0.164,-0.281,-0.916,0.305,-0.549,-149.084,-71.285,-61.029,-29.687,-8.22,0.593,29.57,0.09763,0.75446,-0.26358,0.59305,273,0.986,-0.024,0.181,-0.061,-0.305,-2.014,-9.349,-79.926,-116.384,-28.633,-10.32,10.753,29.47,0.35907,-0.57739,-0.28485,-0.6756,271,0.952,-0.032,0.305,1.831,0.793,2.014,-5.982,-71.274,157.676,-23.427,-10.333,-14.513,30.89,0.18701,0.56305,-0.15369,0.79013,225,0.861,-0.012,-0.475,-0.488,-0.977,-0.244,-178.094,-60.837,-12.794,-28.0,-13.6,12.827,31.95,-0.04114,-0.85785,0.08676,-0.50473,267
66,0.963,-0.165,-0.281,-1.282,0.061,-0.61,-149.139,-71.29,-61.002,-29.687,-8.22,0.593,29.57,0.09763,0.75446,-0.26358,0.59305,278,0.988,-0.02,0.176,0.061,-0.122,-2.075,-9.13,-79.931,-116.609,-28.633,-10.32,10.753,29.47,0.35907,-0.57739,-0.28485,-0.6756,282,0.951,-0.033,0.305,2.014,0.854,1.831,-6.042,-71.263,157.747,-23.427,-10.333,-14.513,30.89,0.18701,0.56305,-0.15369,0.79013,230,0.861,-0.01,-0.477,-0.732,-1.221,-0.183,-178.116,-60.815,-12.788,-27.68,-13.333,12.233,31.95,-0.04114,-0.85785,0.08676,-0.50473,274
67,0.963,-0.165,-0.284,-0.61,-0.488,-0.366,-149.194,-71.29,-60.969,-29.687,-8.22,0.593,29.57,0.09763,0.75446,-0.26358,0.59305,279,0.99,-0.016,0.174,0.0,0.0,-1.892,-8.899,-79.937,-116.834,-28.633,-10.32,10.753,29.47,0.35907,-0.57739,-0.28485,-0.6756,283,0.95,-0.032,0.304,2.319,0.61,1.953,-6.097,-71.257,157.808,-23.427,-10.333,-14.513,30.89,0.18701,0.56305,-0.15369,0.79013,231,0.86,-0.01,-0.479,-0.793,-1.282,-0.122,-178.138,-60.793,-12.794,-27.68,-13.333,12.233,31.95,-0.04114,-0.85785,0.08676,-0.50473,275
68,0.964,-0.165,-0.285,-0.366,-0.427,-0.183,-149.238,-71.285,-60.941,-29.687,-8.22,0.593,29.57,0.09763,0.75446,-0.26358,0.59305,284,0.994,-0.016,0.171,-0.061,0.183,-1.404,-8.696,-79.937,-117.037,-28.633,-10.32,10.753,29.47,0.35907,-0.57739,-0.28485,-0.6756,288,0.949,-0.034,0.306,1.587,0.854,1.465,-6.147,-71.246,157.819,-23.427,-10.333,-14.513,30.89,0.18701,0.56305,-0.15369,0.79013,236,0.859,-0.01,-0.481,-0.549,-1.221,-0.122,-178.16,-60.771,-12.799,-27.68,-13.333,12.233,31.95,-0.04114,-0.85785,0.08676,-0.50473,290
69,0.969,-0.164,-0.285,-0.305,-0.305,-0.122,-149.266,-71.279,-60.919,-29.687,-8.22,0.593,29.57,0.09763,0.75446,-0.26358,0.59305,285,0.997,-0.015,0.167,-0.305,0.305,-1.099,-8.536,-79.931,-117.197,-28.633,-10.32,10.753,29.47,0.35907,-0.57739,-0.28485,-0.6756,289,0.944,-0.031,0.308,0.732,0.732,0.854,-6.174,-71.241,157.819,-23.427,-10.333,-14.513,30.89,0.18701,0.56305,-0.15369,0.79013,237,0.859,-0.01,-0.484,-0.549,-1.038,-0.061,-178.176,-60.754,-12.805,-27.68,-13.333,12.233,31.95,-0.04114,-0.85785,0.08676,-0.50473,291
70,0.969,-0.164,-0.283,-0.488,-0.366,-0.061,-149.293,-71.274,-60.903,-29.687,-8.22,0.593,29.57,0.09763,0.75446,-0.26358,0.59305,298,0.998,-0.017,0.166,-0.244,0.549,-0.916,-8.405,-79.926,-117.334,-28.633,-10.32,10.753,29.47,0.35907,-0.57739,-0.28485,-0.6756,296,0.94,-0.027,0.311,0.366,1.526,1.038,-6.213,-71.219,157.83,-23.427,-10.333,-14.513,30.89,0.18701,0.56305,-0.15369,0.79013,246,0.858,-0.01,-0.487,-0.366,-0.854,0.0,-178.187,-60.738,-12.81,-27.68,-13.333,12.233,31.95,-0.04114,-0.85785,0.08676,-0.50473,292
71,0.967,-0.166,-0.283,-0.671,-0.61,0.061,-149.321,-71.268,-60.886,-29.687,-8.22,0.593,29.57,0.09763,0.75446,-0.26358,0.59305,299,0.997,-0.017,0.166,-0.183,0.671,-0.671,-8.284,-79.92,-117.455,-28.633,-10.32,10.753,29.47,0.35907,-0.57739,-0.28485,-0.6756,297,0.936,-0.028,0.319,0.061,1.831,1.16,-6.257,-71.191,157.841,-23.427,-10.333,-14.513,30.89,0.18701,0.56305,-0.15369,0.79013,247,0.86,-0.009,-0.485,-1.465,0.061,0.183,-178.215,-60.738,-12.838,-27.68,-13.333,12.233,31.95,-0.04114,-0.85785,0.08676,-0.50473,293
72,0.967,-0.165,-0.285,-0.61,-0.244,0.061,-149.354,-71.257,-60.864,-29.687,-8.22,0.593,29.57,0.09763,0.75446,-0.26358,0.59305,304,0.997,-0.017,0.167,-0.366,0.61,-0.427,-8.196,-79.909,-117.559,-28.633,-10.32,10.753,29.47,0.35907,-0.57739,-0.28485,-0.6756,308,0.933,-0.033,0.321,0.0,1.282,0.916,-6.295,-71.169,157.846,-23.427,-10.333,-14.513,30.89,0.18701,0.56305,-0.15369,0.79013,254,0.86,-0.009,-0.489,-0.183,-0.488,0.122,-178.22,-60.732,-12.859,-27.68,-13.333,12.233,31.95,-0.04279,-0.85809,0.08823,-0.50397,300
73,0.967,-0.166,-0.285,-0.366,0.244,0.122,-149.365,-71.257,-60.864,-29.687,-8.22,0.593,29.57,0.09763,0.75446,-0.26358,0.59305,305,0.995,-0.019,0.166,-0.366,0.366,-0.183,-8.135,-79.904,-117.631,-28.633,-10.32,10.753,29.47,0.35907,-0.57739,-0.28485,-0.6756,309,0.934,-0.037,0.323,-0.183,1.16,0.427,-6.312,-71.153,157.835,-23.427,-10.333,-14.513,30.89,0.18701,0.56305,-0.15369,0.79013,255,0.86,-0.009,-0.488,-0.183,-0.183,0.061,-178.226,-60.727,-12.887,-27.68,-13.333,12.233,31.95,-0.04279,-0.85809,0.08823,-0.50397,301
74,0.967,-0.164,-0.285,-0.061,0.549,0.122,-149.359,-71.257,-60.881,-29.647,-8.233,0.293,29.57,0.09763,0.75446,-0.26358,0.59305,310,0.994,-0.02,0.168,-0.122,0.549,0.0,-8.102,-79.898,-117.68,-28.06,-10.293,10.12,29.47,0.35907,-0.57739,-0.28485,-0.6756,314,0.933,-0.041,0.319,-0.61,1.099,0.305,-6.334,-71.131,157.813,-23.427,-10.333,-14.513,30.89,0.18701,0.56305,-0.15369,0.79013,268,0.859,-0.011,-0.49,-0.244,-0.061,0.061,-178.237,-60.721,-12.914,-27.68,-13.333,12.233,31.95,-0.04279,-0.85809,0.08823,-0.50397,312
75,0.966,-0.163,-0.284,0.305,0.61,0.122,-149.343,-71.268,-60.908,-29.647,-8.233,0.293,29.57,0.09763,0.75446,-0.26358,0.59305,311,0.993,-0.019,0.171,-0.061,0.549,0.122,-8.08,-79.893,-117.719,-28.06,-10.293,10.12,29.47,0.35907,-0.57739,-0.28485,-0.6756,315,0.932,-0.042,0.321,-0.671,1.465,0.0,-6.339,-71.109,157.791,-23.427,-10.333,-14.513,30.89,0.18701,0.56305,-0.15369,0.79013,269,0.86,-0.012,-0.491,-0.122,0.0,0.122,-178.237,-60.721,-12.936,-27.68,-13.333,12.233,31.95,-0.04279,-0.85809,0.08823,-0.50397,313
76,0.966,-0.164,-0.279,0.549,0.977,0.244,-149.31,-71.279,-60.936,-29.647,-8.233,0.293,29.57,0.09763,0.75446,-0.26358,0.59305,322,0.989,-0.02,0.173,0.0,0.549,0.122,-8.069,-79.882,-117.74,-28.06,-10.293,10.12,29.47,0.35907,-0.57739,-0.28485,-0.6756,320,0.934,-0.042,0.331,-0.122,1.038,-0.183,-6.328,-71.087,157.786,-23.313,-10.107,-13.953,30.89,0.18701,0.56305,-0.15369,0.79013,276,0.86,-0.012,-0.491,0.0,0.122,0.122,-178.242,-60.721,-12.964,-27.68,-13.333,12.233,31.95,-0.04279,-0.85809,0.08823,-0.50397,316
77,0.966,-0.167,-0.279,0.366,0.916,0.305,-149.266,-71.29,-60.985,-29.647,-8.233,0.293,29.57,0.09763,0.75446,-0.26358,0.59305,323,0.987,-0.021,0.177,0.305,0.549,0.427,-8.064,-79.876,-117.751,-28.06,-10.293,10.12,29.47,0.35907,-0.57739,-0.28485,-0.6756,321,0.934,-0.037,0.329,0.122,0.366,-0.488,-6.301,-71.076,157.813,-23.313,-10.107,-13.953,30.89,0.18701,0.56305,-0.15369,0.79013,277,0.86,-0.011,-0.488,0.183,0.305,0.122,-178.237,-60.721,-12.991,-27.68,-13.333,12.233,31.95,-0.04279,-0.85809,0.08823,-0.50397,317
78,0.968,-0.169,-0.282,0.061,1.16,0.305,-149.222,-71.307,-61.046,-29.647,-8.233,0.293,29.57,0.09961,0.75354,-0.26453,0.59344,328,0.986,-0.024,0.181,0.366,0.427,0.671,-8.086,-79.865,-117.724,-28.06,-10.293,10.12,29.47,0.35663,-0.57605,-0.28479,-0.67807,332,0.935,-0.035,0.327,0.061,0.0,-0.488,-6.273,-71.076,157.874,-23.313,-10.107,-13.953,30.89,0.18701,0.56305,-0.15369,0.79013,280,0.86,-0.011,-0.484,0.427,0.427,0.122,-178.226,-60.727,-13.024,-27.68,-13.333,12.233,31.95,-0.04279,-0.85809,0.08823,-0.50397,324
79,0.972,-0.17,-0.282,-0.793,1.831,0.061,-149.172,-71.323,-61.1,-29.647,-8.233,0.293,29.57,0.09961,0.75354,-0.26453,0.59344,329,0.986,-0.025,0.182,0.488,0.122,0.793,-8.141,-79.86,-117.658,-28.06,-10.293,10.12,29.47,0.35663,-0.57605,-0.28479,-0.67807,333,0.938,-0.032,0.32,-0.122,-0.122,-0.732,-6.24,-71.076,157.934,-23.313,-10.107,-13.953,30.89,0.18701,0.56305,-0.15369,0.79013,281,0.861,-0.015,-0.481,0.671,0.488,0.0,-178.22,-60.738,-13.041,-27.68,-13.333,12.233,31.95,-0.04279,-0.85809,0.08823,-0.50397,325
80,0.975,-0.171,-0.285,-1.953,3.967,-0.183,-149.128,-71.367,-61.194,-29.647,-8.233,0.293,29.57,0.09961,0.75354,-0.26453,0.59344,334,0.988,-0.025,0.181,0.793,0.0,0.916,-8.207,-79.86,-117.565,-28.06,-10.293,10.12,29.47,0.35663,-0.57605,-0.28479,-0.67807,338,0.94,-0.027,0.316,-0.183,-0.366,-0.793,-6.196,-71.082,157.945,-23.313,-10.107,-13.953,30.89,0.18701,0.56305,-0.15369,0.79013,286,0.86,-0.016,-0.481,0.427,0.244,0.0,-178.209,-60.743,-13.041,-27.68,-13.333,12.233,31.95,-0.04279,-0.85809,0.08823,-0.50397,330
81,0.979,-0.168,-0.273,-3.479,5.676,-0.61,-149.057,-71.439,-61.337,-29.647,-8.233,0.293,29.57,0.09961,0.75354,-0.26453,0.59344,335,0.99,-0.026,0.18,1.343,-0.671,1.099,-8.289,-79.86,-117.455,-28.06,-10.293,10.12,29.47,0.35663,-0.57605,-0.28479,-0.67807,339,0.943,-0.022,0.313,-0.488,-0.488,-0.916,-6.152,-71.093,157.912,-23.313,-10.107,-13.953,30.89,0.18701,0.56305,-0.15369,0.79013,287,0.861,-0.016,-0.486,0.0,-0.183,0.0,-178.204,-60.743,-13.041,-27.68,-13.333,12.233,31.95,-0.04279,-0.85809,0.08823,-0.50397,331
82,0.97,-0.163,-0.292,-5.005,6.165,-1.221,-149.002,-71.548,-61.496,-29.647,-8.233,0.293,29.57,0.09961,0.75354,-0.26453,0.59344,346,0.99,-0.022,0.177,1.526,-1.343,1.099,-8.388,-79.876,-117.312,-28.06,-10.293,10.12,29.47,0.35663,-0.57605,-0.28479,-0.67807,344,0.947,-0.021,0.311,-0.61,-0.488,-0.854,-6.114,-71.104,157.857,-23.313,-10.107,-13.953,30.89,0.18631,0.56143,-0.15405,0.79135,294,0.861,-0.017,-0.49,-0.427,-0.854,0.0,-178.209,-60.732,-13.052,-27.68,-13.333,12.233,31.95,-0.04279,-0.85809,0.08823,-0.50397,340
83,0.966,-0.16,-0.279,-6.287,6.042,-1.831,-148.991,-71.664,-61.617,-29.647,-8.233,0.293,29.57,0.09961,0.75354,-0.26453,0.59344,347,0.993,-0.019,0.175,1.16,-1.587,1.282,-8.503,-79.898,-117.158,-28.06,-10.293,10.12,29.47,0.35663,-0.57605,-0.28479,-0.67807,345,0.951,-0.023,0.305,-0.61,-0.122,-0.916,-6.064,-71.115,157.786,-23.313,-10.107,-13.953,30.89,0.18631,0.56143,-0.15405,0.79135,295,0.86,-0.012,-0.486,-1.038,-1.282,0.0,-178.226,-60.71,-13.057,-27.68,-13.333,12.233,31.95,-0.04279,-0.85809,0.08823,-0.50397,341
84,0.968,-0.163,-0.278,-6.592,5.798,-2.747,-149.046,-71.779,-61.694,-29.647,-8.233,0.293,29.57,0.09961,0.75354,-0.26453,0.59344,352,0.994,-0.019,0.17,1.099,-1.709,1.953,-8.674,-79.926,-116.944,-28.06,-10.293,10.12,29.47,0.35663,-0.57605,-0.28479,-0.67807,354,0.952,-0.024,0.304,-0.427,0.0,-0.977,-6.01,-71.12,157.709,-23.313,-10.107,-13.953,30.89,0.18631,0.56143,-0.15405,0.79135,302,0.86,-0.01,-0.49,-1.953,-1.709,0.0,-178.253,-60.683,-13.068,-27.68,-13.333,12.233,31.95,-0.04279,-0.85809,0.08823,-0.50397,348
85,0.973,-0.172,-0.29,-6.531,5.249,-3.418,-149.161,-71.9,-61.699,-29.647,-8.233,0.293,29.57,0.09961,0.75354,-0.26453,0.59344,353,0.989,-0.021,0.167,0.732,-1.282,2.38,-8.899,-79.948,-116.68,-28.06,-10.293,10.12,29.47,0.35663,-0.57605,-0.28479,-0.67807,355,0.951,-0.023,0.305,-0.305,0.366,-0.732,-5.955,-71.12,157.648,-23.313,-10.107,-13.953,30.89,0.18631,0.56143,-0.15405,0.79135,303,0.858,-0.011,-0.49,-2.502,-1.831,0.0,-178.297,-60.645,-13.079,-27.68,-13.333,12.233,31.95,-0.04279,-0.85809,0.08823,-0.50397,349
86,0.978,-0.175,-0.277,-6.104,5.798,-3.967,-149.31,-72.021,-61.666,-29.647,-8.233,0.293,29.57,0.09961,0.75354,-0.26453,0.59344,356,0.989,-0.031,0.172,1.404,-1.465,2.93,-9.174,-79.969,-116.367,-28.06,-10.293,10.12,29.47,0.35663,-0.57605,-0.28479,-0.67807,360,0.95,-0.024,0.307,-0.488,0.488,-0.61,-5.916,-71.12,157.571,-23.313,-10.107,-13.953,30.89,0.18631,0.56143,-0.15405,0.79135,306,0.857,-0.013,-0.491,-3.235,-1.77,0.0,-178.358,-60.606,-13.112,-27.68,-13.333,12.233,31.95,-0.04279,-0.85809,0.08823,-0.50397,358
87,0.98,-0.173,-0.28,-5.188,7.996,-4.639,-149.447,-72.164,-61.65,-29.647,-8.233,0.293,29.57,0.09961,0.75354,-0.26453,0.59344,357,0.989,-0.038,0.176,2.014,-1.648,3.357,-9.503,-79.986,-115.999,-28.06,-10.293,10.12,29.47,0.35663,-0.57605,-0.28479,-0.67807,361,0.95,-0.025,0.308,-0.427,0.305,-0.549,-5.878,-71.125,157.516,-23.313,-10.107,-13.953,30.89,0.18631,0.56143,-0.15405,0.79135,307,0.805,-0.018,-0.494,-3.662,-2.075,0.366,-178.423,-60.568,-13.151,-27.68,-13.333,12.233,31.95,-0.04279,-0.85809,0.08823,-0.50397,359
88,0.972,-0.167,-0.27,-4.333,9.033,-4.883,-149.529,-72.345,-61.672,-29.647,-8.233,0.293,29.57,0.09961,0.75354,-0.26453,0.59344,368,0.991,-0.041,0.175,2.075,-2.563,3.296,-9.86,-80.019,-115.604,-28.06,-10.293,10.12,29.47,0.35663,-0.57605,-0.28479,-0.67807,364,0.946,-0.026,0.304,-0.305,0.427,-0.183,-5.861,-71.125,157.478,-23.313,-10.107,-13.953,30.89,0.18631,0.56143,-0.15405,0.79135,318,0.913,-0.025,-0.512,-4.578,-4.272,1.404,-178.478,-60.513,-13.222,-28.18,-12.847,11.58,31.95,-0.04279,-0.85809,0.08823,-0.50397,362
89,0.969,-0.159,-0.269,-2.991,6.653,-4.395,-149.59,-72.526,-61.705,-29.647,-8.233,0.293,29.57,0.09961,0.75354,-0.26453,0.59344,369,0.993,-0.041,0.169,2.502,-2.441,2.991,-10.212,-80.052,-115.197,-28.06,-10.293,10.12,29.47,0.35663,-0.57605,-0.28479,-0.67807,365,0.946,-0.027,0.312,-0.183,0.61,-0.122,-5.839,-71.12,157.451,-23.313,-10.107,-13.953,30.89,0.18631,0.56143,-0.15405,0.79135,319,0.851,-0.017,-0.489,-6.958,-7.629,1.16,-178.539,-60.403,-13.321,-28.18,-12.847,11.58,31.95,-0.04279,-0.85809,0.08823,-0.50397,363
90,0.981,-0.159,-0.273,-1.404,4.944,-4.089,-149.672,-72.664,-61.672,-29.647,-8.233,0.293,29.57,0.09961,0.75354,-0.26453,0.59344,376,0.993,-0.04,0.168,3.052,-2.258,2.563,-10.514,-80.09,-114.835,-28.06,-10.293,10.12,29.47,0.35663,-0.57605,-0.28479,-0.67807,374,0.942,-0.028,0.311,0.0,0.122,-0.122,-5.823,-71.125,157.401,-23.313,-10.107,-13.953,30.89,0.18631,0.56143,-0.15405,0.79135,326,0.88,-0.017,-0.492,-3.906,-3.357,1.465,-178.616,-60.271,-13.403,-28.18,-12.847,11.58,31.95,-0.04279,-0.85809,0.08823,-0.50397,366
91,0.99,-0.161,-0.28,0.549,5.432,-3.784,-149.744,-72.779,-61.633,-29.647,-8.233,0.293,29.57,0.09961,0.75354,-0.26453,0.59344,377,0.99,-0.043,0.169,3.235,-2.075,2.258,-10.767,-80.118,-114.51,-28.06,-10.293,10.12,29.47,0.35663,-0.57605,-0.28479,-0.67807,375,0.939,-0.027,0.317,0.244,0.61,0.061,-5.812,-71.12,157.368,-23.313,-10.107,-13.953,30.89,0.18631,0.56143,-0.15405,0.79135,327,0.844,-0.012,-0.483,-4.456,-6.104,1.465,-178.643,-60.189,-13.486,-28.18,-12.847,11.58,31.95,-0.04279,-0.85809,0.08823,-0.50397,367
92,0.983,-0.159,-0.268,2.441,7.263,-3.723,-149.733,-72.905,-61.644,-29.647,-8.233,0.293,29.57,0.09961,0.75354,-0.26453,0.59344,382,0.99,-0.05,0.174,2.991,-2.747,1.831,-10.997,-80.156,-114.236,-28.427,-10.06,10.767,29.47,0.35663,-0.57605,-0.28479,-0.67807,380,0.938,-0.03,0.319,0.366,0.427,0.305,-5.806,-71.12,157.363,-23.313,-10.107,-13.953,30.89,0.18631,0.56143,-0.15405,0.79135,336,0.882,-0.02,-0.5,-2.014,-3.113,0.977,-178.671,-60.084,-13.557,-28.18,-12.847,11.58,31.95,-0.0491,-0.86014,0.09631,-0.49838,370
93,0.972,-0.154,-0.257,3.601,7.202,-4.028,-149.65,-73.054,-61.705,-29.647,-8.233,0.293,29.57,0.09961,0.75354,-0.26453,0.59344,383,0.991,-0.052,0.174,2.563,-4.028,1.526,-11.223,-80.211,-113.967,-28.427,-10.06,10.767,29.47,0.35663,-0.57605,-0.28479,-0.67807,381,0.938,-0.032,0.322,0.488,0.549,0.549,-5.817,-71.115,157.368,-23.313,-10.107,-13.953,30.89,0.18631,0.56143,-0.15405,0.79135,337,0.835,-0.014,-0.496,-2.502,-6.775,1.465,-178.676,-60.007,-13.629,-28.18,-12.847,11.58,31.95,-0.0491,-0.86014,0.09631,-0.49838,371
94,0.963,-0.146,-0.252,3.418,6.592,-4.639,-149.573,-73.202,-61.732,-29.527,-8.32,-1.113,29.57,0.09961,0.75354,-0.26453,0.59344,388,0.986,-0.049,0.169,2.869,-5.066,1.282,-11.453,-80.294,-113.703,-28.427,-10.06,10.767,29.47,0.35663,-0.57605,-0.28479,-0.67807,386,0.939,-0.032,0.319,0.793,0.427,0.61,-5.828,-71.109,157.39,-23.313,-10.107,-13.953,30.89,0.18631,0.56143,-0.15405,0.79135,342,0.824,-0.032,-0.511,-1.038,-10.376,1.404,-178.665,-59.854,-13.683,-28.18,-12.847,11.58,31.95,-0.0491,-0.86014,0.09631,-0.49838,384
95,0.967,-0.141,-0.247,2.319,5.493,-4.822,-149.562,-73.35,-61.699,-29.527,-8.32,-1.113,29.57,0.09961,0.75354,-0.26453,0.59344,389,0.983,-0.044,0.169,3.479,-4.944,0.793,-11.656,-80.381,-113.461,-28.427,-10.06,10.767,29.47,0.35663,-0.57605,-0.28479,-0.67807,387,0.943,-0.032,0.324,1.526,0.427,0.793,-5.839,-71.098,157.418,-23.313,-10.107,-13.953,30.89,0.18631,0.56143,-0.15405,0.79135,343,0.859,-0.029,-0.517,-0.122,-8.423,0.488,-178.643,-59.661,-13.727,-28.18,-12.847,11.58,31.95,-0.0491,-0.86014,0.09631,-0.49838,385
96,0.971,-0.138,-0.243,1.465,3.845,-4.456,-149.623,-73.471,-61.617,-29.527,-8.32,-1.113,29.57,0.09961,0.75354,-0.26453,0.59344,396,0.982,-0.042,0.172,3.845,-3.784,0.305,-11.777,-80.458,-113.286,-28.427,-10.06,10.767,29.47,0.36203,-0.57932,-0.28729,-0.67133,402,0.943,-0.03,0.319,1.648,0.0,0.977,-5.856,-71.098,157.44,-23.313,-10.107,-13.953,30.89,0.18631,0.56143,-0.15405,0.79135,350,0.85,-0.012,-0.494,1.221,-8.057,0.122,-178.616,-59.491,-13.755,-28.18,-12.847,11.58,31.95,-0.0491,-0.86014,0.09631,-0.49838,390
97,0.971,-0.135,-0.241,1.892,1.831,-3.723,-149.727,-73.564,-61.485,-29.527,-8.32,-1.113,29.57,0.09961,0.75354,-0.26453,0.59344,397,0.98,-0.039,0.171,4.15,-2.93,-0.305,-11.805,-80.513,-113.181,-28.427,-10.06,10.767,29.47,0.36203,-0.57932,-0.28729,-0.67133,403,0.946,-0.021,0.316,0.732,0.061,0.977,-5.889,-71.098,157.467,-23.313,-10.107,-13.953,30.89,0.18631,0.56143,-0.15405,0.79135,351,0.863,-0.013,-0.496,0.854,-4.944,-0.916,-178.594,-59.348,-13.766,-28.18,-12.847,11.58,31.95,-0.0491,-0.86014,0.09631,-0.49838,391
98,0.969,-0.134,-0.242,2.991,0.0,-2.808,-149.843,-73.614,-61.331,-29.527,-8.32,-1.113,29.57,0.11584,0.74435,-0.2605,0.60376,404,0.982,-0.034,0.171,4.15,-1.465,-0.916,-11.722,-80.552,-113.192,-28.427,-10.06,10.767,29.47,0.36203,-0.57932,-0.28729,-0.67133,408,0.948,-0.022,0.312,0.671,-1.282,2.319,-6.004,-71.125,157.582,-22.913,-10.22,-14.3,30.89,0.18631,0.56143,-0.15405,0.79135,372,0.842,-0.006,-0.482,1.892,-6.592,-0.916,-178.594,-59.244,-13.755,-28.18,-12.847,11.58,31.95,-0.0491,-0.86014,0.09631,-0.49838,394
99,0.973,-0.134,-0.234,3.601,-0.61,-2.075,-149.93,-73.63,-61.172,-29.527,-8.32,-1.113,29.57,0.11584,0.74435,-0.2605,0.60376,405,0.987,-0.028,0.168,3.54,0.0,-1.648,-11.536,-80.563,-113.318,-28.427,-10.06,10.767,29.47,0.36203,-0.57932,-0.28729,-0.67133,409,0.94,-0.025,0.305,0.366,-1.221,2.625,-6.147,-71.147,157.709,-22.913,-10.22,-14.3,30.89,0.18631,0.56143,-0.15405,0.79135,373,0.86,-0.011,-0.496,1.77,-3.113,-1.343,-178.594,-59.15,-13.727,-28.18,-12.847,11.58,31.95,-0.0491,-0.86014,0.09631,-0.49838,395
100,0.976,-0.135,-0.236,3.601,-0.854,-1.953,-150.002,-73.636,-61.029,-29.527,-8.32,-1.113,29.57,0.11584,0.74435,-0.2605,0.60376,418,0.991,-0.023,0.166,2.93,1.343,-2.197,-11.239,-80.552,-113.549,-28.427,-10.06,10.767,29.47,0.36203,-0.57932,-0.28729,-0.67133,416,0.942,-0.034,0.315,1.404,-0.488,4.028,-6.339,-71.153,157.934,-22.913,-10.22,-14.3,30.89,0.18631,0.56143,-0.15405,0.79135,378,0.844,0.0,-0.487,2.563,-4.578,-1.282,-178.594,-59.084,-13.667,-28.18,-12.847,11.58,31.95,-0.0491,-0.86014,0.09631,-0.49838,410
101,0.983,-0.134,-0.235,3.052,-0.671,-2.075,-150.079,-73.641,-60.87,-29.527,-8.32,-1.113,29.57,0.11584,0.74435,-0.2605,0.60376,419,0.993,-0.018,0.165,2.38,2.014,-2.747,-10.86,-80.519,-113.879,-28.427,-10.06,10.767,29.47,0.36203,-0.57932,-0.28729,-0.67133,417,0.939,-0.04,0.312,1.892,-0.244,4.822,-6.57,-71.147,158.225,-22.913,-10.22,-14.3,30.89,0.18631,0.56143,-0.15405,0.79135,379,0.842,-0.004,-0.499,1.953,-1.16,-1.709,-178.605,-59.041,-13.596,-28.18,-12.847,11.58,31.95,-0.0491,-0.86014,0.09631,-0.49838,411
102,0.983,-0.13,-0.24,2.319,-0.488,-2.014,-150.167,-73.652,-60.727,-29.527,-8.32,-1.113,29.57,0.11584,0.74435,-0.2605,0.60376,424,0.997,-0.015,0.165,1.892,1.953,-2.991,-10.437,-80.486,-114.274,-28.427,-10.06,10.767,29.47,0.36203,-0.57932,-0.28729,-0.67133,430,0.942,-0.049,0.319,1.709,1.526,5.981,-6.861,-71.109,158.566,-22.913,-10.22,-14.3,30.89,0.1861,0.56152,-0.15546,0.79105,392,0.851,-0.003,-0.502,3.052,-4.578,-1.526,-178.61,-58.991,-13.524,-28.18,-12.847,11.58,31.95,-0.0491,-0.86014,0.09631,-0.49838,420
103,0.984,-0.128,-0.243,1.587,-1.343,-1.526,-150.266,-73.658,-60.59,-29.527,-8.32,-1.113,29.57,0.11584,0.74435,-0.2605,0.60376,425,1.0,-0.009,0.164,1.038,1.892,-3.296,-9.992,-80.458,-114.697,-28.427,-10.06,10.767,29.47,0.36203,-0.57932,-0.28729,-0.67133,431,0.947,-0.054,0.312,1.831,-0.183,5.92,-7.169,-71.104,158.917,-22.913,-10.22,-14.3,30.89,0.1861,0.56152,-0.15546,0.79105,393,0.847,0.001,-0.506,1.526,0.0,-1.526,-178.621,-58.958,-13.475,-28.18,-12.847,11.58,31.95,-0.0491,-0.86014,0.09631,-0.49838,421
104,0.984,-0.127,-0.247,1.099,-2.014,-1.282,-150.386,-73.647,-60.447,-29.527,-8.32,-1.113,29.57,0.11584,0.74435,-0.2605,0.60376,432,0.998,-0.005,0.163,0.732,1.099,-3.54,-9.525,-80.442,-115.159,-28.427,-10.06,10.767,29.47,0.36203,-0.57932,-0.28729,-0.67133,434,0.943,-0.052,0.31,1.282,0.977,4.578,-7.399,-71.076,159.175,-22.913,-10.22,-14.3,30.89,0.1861,0.56152,-0.15546,0.79105,398,0.846,0.003,-0.512,1.587,-0.122,-1.648,-178.649,-58.964,-13.42,-28.18,-12.847,11.58,31.95,-0.0491,-0.86014,0.09631,-0.49838,426
105,0.981,-0.131,-0.246,0.671,-1.648,-1.099,-150.507,-73.63,-60.309,-29.527,-8.32,-1.113,29.57,0.11584,0.74435,-0.2605,0.60376,433,0.996,0.0,0.16,0.61,0.549,-3.479,-9.064,-80.436,-115.626,-28.427,-10.06,10.767,29.47,0.36203,-0.57932,-0.28729,-0.67133,435,0.939,-0.058,0.316,1.16,0.793,4.761,-7.646,-71.054,159.45,-22.913,-10.22,-14.3,30.89,0.1861,0.56152,-0.15546,0.79105,399,0.846,0.004,-0.514,1.343,-0.061,-1.465,-178.682,-58.969,-13.359,-28.18,-12.847,11.58,31.95,-0.0491,-0.86014,0.09631,-0.49838,427
106,0.976,-0.132,-0.245,0.122,-2.014,-1.16,-150.634,-73.614,-60.178,-29.527,-8.32,-1.113,29.57,0.11584,0.74435,-0.2605,0.60376,442,0.994,0.001,0.161,0.122,0.61,-3.113,-8.624,-80.431,-116.071,-28.427,-10.06,10.767,29.47,0.36203,-0.57932,-0.28729,-0.67133,440,0.937,-0.066,0.325,0.793,1.16,3.418,-7.822,-71.021,159.631,-22.913,-10.22,-14.3,30.89,0.1861,0.56152,-0.15546,0.79105,400,0.845,0.005,-0.513,0.977,-0.183,-1.221,-178.715,-58.969,-13.299,-28.18,-12.847,11.58,31.95,-0.0491,-0.86014,0.09631,-0.49838,436
107,0.974,-0.133,-0.244,-0.488,-2.258,-1.099,-150.782,-73.592,-60.024,-29.527,-8.32,-1.113,29.57,0.11584,0.74435,-0.2605,0.60376,443,0.991,0.0,0.163,-0.061,0.732,-2.319,-8.251,-80.431,-116.444,-28.427,-10.06,10.767,29.47,0.36203,-0.57932,-0.28729,-0.67133,441,0.941,-0.069,0.333,1.587,-0.977,2.319,-7.949,-71.038,159.763,-22.913,-10.22,-14.3,30.89,0.1861,0.56152,-0.15546,0.79105,401,0.844,0.004,-0.514,0.61,-0.122,-0.916,-178.748,-58.969,-13.25,-28.18,-12.847,11.58,31.95,-0.0491,-0.86014,0.09631,-0.49838,437
108,0.976,-0.133,-0.244,-0.916,-2.014,-0.854,-150.93,-73.57,-59.892,-29.527,-8.32,-1.113,29.57,0.11584,0.74435,-0.2605,0.60376,448,0.99,0.0,0.165,-0.122,0.854,-1.465,-7.965,-80.42,-116.73,-28.427,-10.06,10.767,29.47,0.36203,-0.57932,-0.28729,-0.67133,450,0.936,-0.062,0.321,2.38,-3.052,1.892,-8.047,-71.093,159.89,-22.913,-10.22,-14.3,30.89,0.1861,0.56152,-0.15546,0.79105,406,0.844,0.002,-0.511,0.244,0.0,-0.61,-178.775,-58.975,-13.222,-27.873,-13.8,12.847,31.95,-0.0491,-0.86014,0.09631,-0.49838,444
109,0.979,-0.134,-0.249,-0.977,-2.319,-0.244,-151.057,-73.542,-59.788,-29.527,-8.32,-1.113,29.57,0.11584,0.74435,-0.2605,0.60376,449,0.989,0.001,0.169,-0.549,1.099,-0.793,-7.773,-80.409,-116.933,-28.427,-10.06,10.767,29.47,0.36203,-0.57932,-0.28729,-0.67133,451,0.931,-0.059,0.313,2.747,-3.235,1.831,-8.146,-71.147,160.038,-22.913,-10.22,-14.3,30.89,0.1861,0.56152,-0.15546,0.79105,407,0.844,0.001,-0.51,0.0,0.244,-0.305,-178.802,-58.975,-13.206,-27.873,-13.8,12.847,31.95,-0.0491,-0.86014,0.09631,-0.49838,445
110,0.981,-0.135,-0.254,-0.427,-2.258,0.366,-151.144,-73.51,-59.705,-29.527,-8.32,-1.113,29.57,0.11584,0.74435,-0.2605,0.60376,454,0.988,-0.002,0.17,-1.16,1.16,-0.183,-7.652,-80.387,-117.076,-28.3,-9.953,10.333,29.47,0.36203,-0.57932,-0.28729,-0.67133,458,0.931,-0.058,0.313,3.113,-2.686,1.587,-8.218,-71.197,160.164,-22.913,-10.22,-14.3,30.89,0.1861,0.56152,-0.15546,0.79105,412,0.844,0.003,-0.507,-0.305,0.61,0.0,-178.824,-58.986,-13.189,-27.873,-13.8,12.847,31.95,-0.0491,-0.86014,0.09631,-0.49838,452
111,0.981,-0.136,-0.254,-0.244,-2.258,0.732,-151.199,-73.471,-59.672,-29.527,-8.32,-1.113,29.57,0.11584,0.74435,-0.2605,0.60376,455,0.987,-0.008,0.17,-1.221,1.099,0.549,-7.635,-80.365,-117.12,-28.3,-9.953,10.333,29.47,0.36203,-0.57932,-0.28729,-0.67133,459,0.93,-0.055,0.312,3.479,-2.441,0.977,-8.245,-71.241,160.241,-22.913,-10.22,-14.3,30.89,0.1861,0.56152,-0.15546,0.79105,413,0.844,0.0,-0.508,-0.305,0.916,0.244,-178.841,-59.002,-13.195,-27.873,-13.8,12.847,31.95,-0.0491,-0.86014,0.09631,-0.49838,453
112,0.979,-0.137,-0.261,-0.244,-2.136,0.916,-151.227,-73.427,-59.667,-29.527,-8.32,-1.113,29.57,0.11584,0.74435,-0.2605,0.60376,464,0.988,-0.011,0.172,-1.099,1.404,1.16,-7.696,-80.338,-117.076,-28.3,-9.953,10.333,29.47,0.36203,-0.57932,-0.28729,-0.67133,462,0.931,-0.052,0.31,3.54,-2.38,0.488,-8.245,-71.285,160.318,-22.913,-10.22,-14.3,30.89,0.1861,0.56152,-0.15546,0.79105,414,0.845,-0.003,-0.508,-0.061,1.099,0.305,-178.852,-59.019,-13.189,-27.873,-13.8,12.847,31.95,-0.04785,-0.86505,0.09503,-0.49014,466
113,0.981,-0.133,-0.26,-0.366,-1.77,1.221,-151.243,-73.389,-59.667,-29.527,-8.32,-1.113,29.57,0.11584,0.74435,-0.2605,0.60376,465,0.99,-0.012,0.172,-1.038,1.526,1.465,-7.795,-80.305,-116.999,-28.3,-9.953,10.333,29.47,0.36203,-0.57932,-0.28729,-0.67133,463,0.938,-0.046,0.307,2.991,-1.953,-0.305,-8.201,-71.323,160.356,-22.913,-10.22,-14.3,30.89,0.1861,0.56152,-0.15546,0.79105,415,0.845,-0.004,-0.511,0.183,1.16,0.366,-178.852,-59.041,-13.206,-27.873,-13.8,12.847,31.95,-0.04785,-0.86505,0.09503,-0.49014,467
114,0.982,-0.132,-0.262,-0.732,-1.465,1.587,-151.232,-73.35,-59.711,-29.493,-8.927,-0.767,29.57,0.11584,0.74435,-0.2605,0.60376,468,0.992,-0.014,0.17,-0.916,1.404,1.404,-7.899,-80.277,-116.922,-28.3,-9.953,10.333,29.47,0.36099,-0.57568,-0.29181,-0.67307,472,0.942,-0.041,0.307,2.625,-1.526,-0.916,-8.124,-71.351,160.356,-22.913,-10.22,-14.3,30.89,0.1861,0.56152,-0.15546,0.79105,422,0.844,-0.004,-0.513,0.244,1.099,0.488,-178.841,-59.062,-13.233,-27.873,-13.8,12.847,31.95,-0.04785,-0.86505,0.09503,-0.49014,476
115,0.979,-0.131,-0.263,-0.854,-2.136,1.831,-151.216,-73.306,-59.766,-29.493,-8.927,-0.767,29.57,0.11584,0.74435,-0.2605,0.60376,469,0.993,-0.013,0.167,-0.854,1.16,1.16,-7.982,-80.25,-116.873,-28.3,-9.953,10.333,29.47,0.36099,-0.57568,-0.29181,-0.67307,473,0.944,-0.036,0.311,2.258,-1.16,-1.648,-8.004,-71.378,160.28,-22.913,-10.22,-14.3,30.89,0.1861,0.56152,-0.15546,0.79105,423,0.844,-0.003,-0.514,0.305,1.038,0.671,-178.83,-59.084,-13.282,-27.873,-13.8,12.847,31.95,-0.04785,-0.86505,0.09503,-0.49014,477
116,0.978,-0.132,-0.267,-0.549,-2.747,1.953,-151.216,-73.251,-59.804,-29.493,-8.927,-0.767,29.57,0.11584,0.74435,-0.2605,0.60376,474,0.994,-0.013,0.167,-1.099,0.977,0.977,-8.047,-80.228,-116.84,-28.3,-9.953,10.333,29.47,0.36099,-0.57568,-0.29181,-0.67307,480,0.951,-0.032,0.313,1.77,-1.465,-2.014,-7.866,-71.417,160.181,-22.913,-10.22,-14.3,30.89,0.1861,0.56152,-0.15546,0.79105,428,0.845,-0.001,-0.516,0.183,0.977,0.732,-178.813,-59.101,-13.348,-27.873,-13.8,12.847,31.95,-0.04785,-0.86505,0.09503,-0.49014,482
117,0.979,-0.137,-0.265,-0.183,-3.052,2.075,-151.216,-73.18,-59.826,-29.493,-8.927,-0.767,29.57,0.11584,0.74435,-0.2605,0.60376,475,0.992,-0.015,0.166,-1.465,0.916,0.977,-8.119,-80.206,-116.801,-28.3,-9.953,10.333,29.47,0.36099,-0.57568,-0.29181,-0.67307,481,0.953,-0.027,0.31,0.977,-1.526,-2.747,-7.696,-71.45,160.005,-22.913,-10.22,-14.3,30.89,0.1861,0.56152,-0.15546,0.79105,429,0.845,-0.002,-0.516,0.122,1.099,0.854,-178.792,-59.117,-13.403,-27.873,-13.8,12.847,31.95,-0.04785,-0.86505,0.09503,-0.49014,483
118,0.979,-0.141,-0.264,0.0,-2.075,1.892,-151.199,-73.12,-59.859,-29.493,-8.927,-0.767,29.57,0.11496,0.74792,-0.2594,0.59998,486,0.991,-0.018,0.168,-1.526,0.916,1.221,-8.223,-80.189,-116.73,-28.3,-9.953,10.333,29.47,0.36099,-0.57568,-0.29181,-0.67307,492,0.953,-0.021,0.313,0.61,-1.038,-2.808,-7.526,-71.483,159.824,-22.913,-10.22,-14.3,30.89,0.1861,0.56152,-0.15546,0.79105,438,0.845,-0.004,-0.515,0.061,1.221,0.916,-178.775,-59.134,-13.453,-27.873,-13.8,12.847,31.95,-0.04785,-0.86505,0.09503,-0.49014,488
119,0.973,-0.139,-0.254,0.488,-0.916,1.465,-151.161,-73.081,-59.925,-29.493,-8.927,-0.767,29.57,0.11496,0.74792,-0.2594,0.59998,487,0.991,-0.025,0.171,-1.404,0.671,1.648,-8.372,-80.173,-116.609,-28.3,-9.953,10.333,29.47,0.36099,-0.57568,-0.29181,-0.67307,493,0.95,-0.016,0.303,0.183,-1.587,-2.747,-7.361,-71.521,159.642,-22.913,-10.22,-14.3,30.89,0.1861,0.56152,-0.15546,0.79105,439,0.845,-0.008,-0.517,0.0,1.16,0.977,-178.753,-59.156,-13.524,-27.873,-13.8,12.847,31.95,-0.04785,-0.86505,0.09503,-0.49014,489
120,0.969,-0.138,-0.252,1.221,-0.793,1.465,-151.1,-73.054,-59.991,-29.493,-8.927,-0.767,29.57,0.11496,0.74792,-0.2594,0.59998,494,0.988,-0.03,0.171,-1.221,0.366,1.77,-8.553,-80.162,-116.444,-28.3,-9.953,10.333,29.47,0.36099,-0.57568,-0.29181,-0.67307,498,0.948,-0.011,0.302,-0.488,-0.061,-2.686,-7.191,-71.532,159.456,-22.913,-10.22,-14.3,30.89,0.1861,0.56152,-0.15546,0.79105,446,0.846,-0.013,-0.514,-0.305,0.732,1.038,-178.731,-59.167,-13.59,-27.873,-13.8,12.847,31.95,-0.04785,-0.86505,0.09503,-0.49014,502
121,0.968,-0.143,-0.25,1.587,-2.014,1.831,-151.035,-73.021,-60.051,-29.493,-8.927,-0.767,29.57,0.11496,0.74792,-0.2594,0.59998,495,0.983,-0.032,0.173,-0.732,0.549,1.587,-8.718,-80.145,-116.285,-28.3,-9.953,10.333,29.47,0.36099,-0.57568,-0.29181,-0.67307,499,0.946,-0.01,0.304,-0.549,0.366,-2.136,-7.048,-71.532,159.291,-22.913,-10.22,-14.3,30.89,0.1861,0.56152,-0.15546,0.79105,447,0.846,-0.013,-0.506,0.122,0.732,0.977,-178.704,-59.172,-13.678,-27.873,-13.8,12.847,31.95,-0.04785,-0.86505,0.09503,-0.49014,503
122,0.969,-0.149,-0.248,2.197,-2.625,2.136,-150.963,-72.966,-60.095,-29.493,-8.927,-0.767,29.57,0.11496,0.74792,-0.2594,0.59998,500,0.982,-0.033,0.178,0.0,1.16,1.526,-8.86,-80.123,-116.147,-28.3,-9.953,10.333,29.47,0.36099,-0.57568,-0.29181,-0.67307,506,0.943,-0.01,0.306,-0.671,0.916,-1.465,-6.938,-71.526,159.159,-22.913,-10.22,-14.3,30.89,0.1861,0.56152,-0.15546,0.79105,456,0.846,-0.013,-0.502,0.793,1.221,0.732,-178.671,-59.189,-13.749,-27.873,-13.8,12.847,31.95,-0.04785,-0.86505,0.09503,-0.49014,504
123,0.968,-0.152,-0.25,2.869,-3.357,2.38,-150.881,-72.894,-60.123,-29.493,-8.927,-0.767,29.57,0.11496,0.74792,-0.2594,0.59998,501,0.982,-0.038,0.177,0.122,1.953,1.648,-8.998,-80.079,-116.016,-28.3,-9.953,10.333,29.47,0.36099,-0.57568,-0.29181,-0.67307,507,0.942,-0.012,0.31,-1.038,1.404,-0.854,-6.866,-71.505,159.044,-22.913,-10.22,-14.3,30.89,0.1861,0.56152,-0.15546,0.79105,457,0.847,-0.016,-0.496,1.465,1.465,0.61,-178.627,-59.216,-13.799,-27.873,-13.8,12.847,31.95,-0.04785,-0.86505,0.09503,-0.49014,505
124,0.971,-0.152,-0.252,3.357,-3.967,2.747,-150.787,-72.812,-60.139,-29.493,-8.927,-0.767,29.57,0.11496,0.74792,-0.2594,0.59998,510,0.985,-0.036,0.184,0.0,2.319,1.709,-9.141,-80.03,-115.873,-28.3,-9.953,10.333,29.47,0.36099,-0.57568,-0.29181,-0.67307,516,0.941,-0.014,0.312,-1.465,1.282,-0.671,-6.812,-71.488,158.939,-23.067,-10.08,-13.587,30.89,0.1861,0.56152,-0.15546,0.79105,460,0.847,-0.021,-0.494,2.136,2.075,0.366,-178.572,-59.249,-13.837,-27.873,-13.8,12.847,31.95,-0.04785,-0.86505,0.09503,-0.49014,512
125,0.974,-0.151,-0.254,3.235,-4.15,2.93,-150.688,-72.719,-60.15,-29.493,-8.927,-0.767,29.57,0.11496,0.74792,-0.2594,0.59998,511,0.984,-0.031,0.186,0.0,1.77,1.343,-9.267,-79.986,-115.752,-28.3,-9.953,10.333,29.47,0.36099,-0.57568,-0.29181,-0.67307,517,0.94,-0.02,0.31,-1.282,1.099,-0.061,-6.79,-71.472,158.84,-23.067,-10.08,-13.587,30.89,0.1861,0.56152,-0.15546,0.79105,461,0.849,-0.021,-0.496,2.686,2.625,0.122,-178.517,-59.299,-13.87,-27.873,-13.8,12.847,31.95,-0.04785,-0.86505,0.09503,-0.49014,513
126,0.974,-0.148,-0.261,2.686,-4.578,2.991,-150.595,-72.625,-60.167,-29.493,-8.927,-0.767,29.57,0.11496,0.74792,-0.2594,0.59998,518,0.984,-0.024,0.185,0.488,1.221,1.038,-9.355,-79.953,-115.653,-28.607,-10.24,11.453,29.47,0.36099,-0.57568,-0.29181,-0.67307,524,0.94,-0.025,0.311,-1.16,1.282,0.305,-6.79,-71.45,158.78,-23.067,-10.08,-13.587,30.89,0.1861,0.56152,-0.15546,0.79105,470,0.849,-0.016,-0.493,2.808,2.808,0.0,-178.456,-59.354,-13.898,-27.873,-13.8,12.847,31.95,-0.04785,-0.86505,0.09503,-0.49014,520
127,0.974,-0.145,-0.268,2.014,-5.859,2.686,-150.551,-72.51,-60.156,-29.493,-8.927,-0.767,29.57,0.11496,0.74792,-0.2594,0.59998,519,0.985,-0.022,0.184,0.366,1.038,0.793,-9.41,-79.926,-115.576,-28.607,-10.24,11.453,29.47,0.36099,-0.57568,-0.29181,-0.67307,525,0.943,-0.028,0.313,-1.221,1.404,0.732,-6.812,-71.422,158.752,-23.067,-10.08,-13.587,30.89,0.1861,0.56152,-0.15546,0.79105,471,0.85,-0.01,-0.494,2.808,2.808,0.061,-178.396,-59.409,-13.92,-27.873,-13.8,12.847,31.95,-0.04785,-0.86505,0.09503,-0.49014,521
128,0.975,-0.146,-0.273,1.465,-6.531,2.258,-150.573,-72.389,-60.095,-29.493,-8.927,-0.767,29.57,0.11496,0.74792,-0.2594,0.59998,530,0.989,-0.023,0.181,0.061,0.977,0.793,-9.465,-79.898,-115.51,-28.607,-10.24,11.453,29.47,0.36099,-0.57568,-0.29181,-0.67307,528,0.944,-0.031,0.311,-1.099,1.465,0.61,-6.828,-71.395,158.741,-23.067,-10.08,-13.587,30.89,0.18362,0.5636,-0.15494,0.79025,478,0.85,-0.009,-0.497,2.625,2.747,0.061,-178.341,-59.464,-13.947,-27.873,-13.8,12.847,31.95,-0.04785,-0.86505,0.09503,-0.49014,526
129,0.977,-0.149,-0.28,1.343,-6.592,1.831,-150.639,-72.263,-60.013,-29.493,-8.927,-0.767,29.57,0.11496,0.74792,-0.2594,0.59998,531,0.987,-0.026,0.178,0.183,0.549,0.977,-9.536,-79.876,-115.417,-28.607,-10.24,11.453,29.47,0.36099,-0.57568,-0.29181,-0.67307,529,0.946,-0.03,0.312,-1.099,1.282,0.549,-6.85,-71.373,158.741,-23.067,-10.08,-13.587,30.89,0.18362,0.5636,-0.15494,0.79025,479,0.85,-0.01,-0.499,2.441,2.686,0.122,-178.286,-59.518,-13.964,-27.873,-13.8,12.847,31.95,-0.04785,-0.86505,0.09503,-0.49014,527
130,0.977,-0.154,-0.286,1.404,-6.409,1.648,-150.716,-72.136,-59.897,-29.92,-8.607,0.267,29.57,0.11496,0.74792,-0.2594,0.59998,536,0.988,-0.029,0.176,0.122,0.061,1.282,-9.646,-79.865,-115.285,-28.607,-10.24,11.453,29.47,0.36307,-0.57483,-0.28784,-0.67438,542,0.947,-0.031,0.309,-1.404,0.854,0.366,-6.866,-71.362,158.714,-23.067,-10.08,-13.587,30.89,0.18362,0.5636,-0.15494,0.79025,484,0.849,-0.014,-0.503,2.441,2.625,0.0,-178.237,-59.573,-13.969,-27.873,-13.8,12.847,31.95,-0.04785,-0.86505,0.09503,-0.49014,532
131,0.975,-0.156,-0.289,1.343,-5.737,1.526,-150.787,-72.026,-59.799,-29.92,-8.607,0.267,29.57,0.11496,0.74792,-0.2594,0.59998,537,0.992,-0.03,0.177,0.0,-0.366,1.404,-9.789,-79.865,-115.131,-28.607,-10.24,11.453,29.47,0.36307,-0.57483,-0.28784,-0.67438,543,0.944,-0.03,0.309,-1.648,0.916,0.122,-6.877,-71.345,158.687,-23.067,-10.08,-13.587,30.89,0.18362,0.5636,-0.15494,0.79025,485,0.849,-0.017,-0.506,2.38,2.441,0.0,-178.193,-59.617,-13.964,-27.873,-13.8,12.847,31.95,-0.04785,-0.86505,0.09503,-0.49014,533
132,0.974,-0.156,-0.292,0.977,-4.761,1.404,-150.848,-71.927,-59.727,-29.92,-8.607,0.267,29.57,0.11496,0.74792,-0.2594,0.59998,544,0.994,-0.03,0.173,-0.122,-0.977,1.587,-9.965,-79.871,-114.944,-28.607,-10.24,11.453,29.47,0.36307,-0.57483,-0.28784,-0.67438,546,0.942,-0.032,0.311,-1.465,0.793,0.244,-6.894,-71.334,158.659,-23.067,-10.08,-13.587,30.89,0.18362,0.5636,-0.15494,0.79025,490,0.851,-0.017,-0.508,2.014,2.014,0.0,-178.149,-59.656,-13.953,-27.827,-13.42,12.747,31.95,-0.04785,-0.86505,0.09503,-0.49014,538
133,0.974,-0.157,-0.291,0.854,-4.333,1.343,-150.892,-71.84,-59.667,-29.92,-8.607,0.267,29.57,0.11496,0.74792,-0.2594,0.59998,545,0.996,-0.031,0.168,-0.366,-1.587,1.587,-10.157,-79.893,-114.752,-28.607,-10.24,11.453,29.47,0.36307,-0.57483,-0.28784,-0.67438,547,0.943,-0.039,0.317,-1.099,0.671,0.671,-6.932,-71.323,158.659,-23.067,-10.08,-13.587,30.89,0.18362,0.5636,-0.15494,0.79025,491,0.85,-0.018,-0.511,1.77,1.526,0.0,-178.116,-59.689,-13.964,-27.827,-13.42,12.747,31.95,-0.04785,-0.86505,0.09503,-0.49014,539
134,0.973,-0.16,-0.29,0.732,-4.211,1.282,-150.941,-71.752,-59.628,-29.92,-8.607,0.267,29.57,0.1059,0.75336,-0.26215,0.59366,554,0.998,-0.031,0.164,-0.61,-1.648,1.648,-10.371,-79.92,-114.56,-28.607,-10.24,11.453,29.47,0.36307,-0.57483,-0.28784,-0.67438,552,0.938,-0.044,0.312,-0.671,-0.061,1.099,-6.998,-71.329,158.714,-23.067,-10.08,-13.587,30.89,0.18362,0.5636,-0.15494,0.79025,496,0.851,-0.018,-0.513,1.282,1.282,0.061,-178.088,-59.711,-13.997,-27.827,-13.42,12.747,31.95,-0.04785,-0.86505,0.09503,-0.49014,548
135,0.972,-0.163,-0.291,0.671,-3.235,1.099,-150.974,-71.68,-59.612,-29.92,-8.607,0.267,29.57,0.1059,0.75336,-0.26215,0.59366,555,0.999,-0.032,0.164,-0.793,-1.831,1.831,-10.607,-79.948,-114.34,-28.607,-10.24,11.453,29.47,0.36307,-0.57483,-0.28784,-0.67438,553,0.934,-0.047,0.313,-0.305,0.183,1.038,-7.053,-71.323,158.747,-23.067,-10.08,-13.587,30.89,0.18362,0.5636,-0.15494,0.79025,497,0.851,-0.018,-0.512,0.977,1.16,0.061,-178.066,-59.727,-14.035,-27.827,-13.42,12.747,31.95,-0.04785,-0.86505,0.09503,-0.49014,549
136,0.971,-0.163,-0.292,0.244,-1.953,0.793,-150.991,-71.636,-59.617,-29.92,-8.607,0.267,29.57,0.1059,0.75336,-0.26215,0.59366,560,1.0,-0.036,0.16,-0.793,-2.319,2.075,-10.887,-79.986,-114.071,-28.607,-10.24,11.453,29.47,0.36307,-0.57483,-0.28784,-0.67438,566,0.934,-0.048,0.315,0.0,0.488,0.977,-7.103,-71.312,158.785,-23.067,-10.08,-13.587,30.89,0.18362,0.5636,-0.15494,0.79025,508,0.851,-0.019,-0.514,0.793,1.221,0.061,-178.05,-59.744,-14.062,-27.827,-13.42,12.747,31.95,-0.04633,-0.86157,0.09763,-0.49588,556
137,0.968,-0.161,-0.289,-0.122,-1.038,0.488,-150.996,-71.603,-59.628,-29.92,-8.607,0.267,29.57,0.1059,0.75336,-0.26215,0.59366,561,0.999,-0.036,0.157,-0.671,-2.136,1.953,-11.162,-80.019,-113.807,-28.607,-10.24,11.453,29.47,0.36307,-0.57483,-0.28784,-0.67438,567,0.933,-0.051,0.312,-0.061,0.854,0.732,-7.141,-71.296,158.807,-23.067,-10.08,-13.587,30.89,0.18362,0.5636,-0.15494,0.79025,509,0.851,-0.02,-0.514,0.61,1.038,0.061,-178.033,-59.755,-14.095,-27.827,-13.42,12.747,31.95,-0.04633,-0.86157,0.09763,-0.49588,557
138,0.968,-0.159,-0.286,-0.61,-0.305,0.244,-151.007,-71.592,-59.639,-29.92,-8.607,0.267,29.57,0.1059,0.75336,-0.26215,0.59366,568,0.999,-0.036,0.157,-0.854,-1.526,1.282,-11.371,-80.052,-113.621,-28.607,-10.24,11.453,29.47,0.36307,-0.57483,-0.28784,-0.67438,572,0.935,-0.051,0.327,0.244,1.465,0.488,-7.163,-71.268,158.813,-23.067,-10.08,-13.587,30.89,0.18362,0.5636,-0.15494,0.79025,514,0.852,-0.019,-0.511,0.305,0.732,0.122,-178.022,-59.76,-14.123,-27.827,-13.42,12.747,31.95,-0.04633,-0.86157,0.09763,-0.49588,562
139,0.968,-0.157,-0.282,-0.854,0.183,0.183,-151.013,-71.592,-59.667,-29.92,-8.607,0.267,29.57,0.1059,0.75336,-0.26215,0.59366,569,0.997,-0.035,0.159,-1.221,-1.038,0.488,-11.492,-80.074,-113.527,-28.607,-10.24,11.453,29.47,0.36307,-0.57483,-0.28784,-0.67438,573,0.935,-0.045,0.329,1.099,0.183,0.0,-7.141,-71.263,158.835,-23.067,-10.08,-13.587,30.89,0.18362,0.5636,-0.15494,0.79025,515,0.852,-0.017,-0.509,-0.122,0.671,0.183,-178.017,-59.766,-14.139,-27.827,-13.42,12.747,31.95,-0.04633,-0.86157,0.09763,-0.49588,563
140,0.966,-0.156,-0.281,-1.16,0.244,0.0,-151.024,-71.592,-59.7,-29.92,-8.607,0.267,29.57,0.1059,0.75336,-0.26215,0.59366,578,0.992,-0.035,0.162,-1.343,-0.793,-0.122,-11.541,-80.096,-113.516,-28.607,-10.24,11.453,29.47,0.36307,-0.57483,-0.28784,-0.67438,576,0.935,-0.037,0.326,1.587,0.0,0.0,-7.119,-71.263,158.862,-23.067,-10.08,-13.587,30.89,0.18362,0.5636,-0.15494,0.79025,522,0.852,-0.015,-0.504,-0.549,0.671,0.305,-178.017,-59.771,-14.161,-27.827,-13.42,12.747,31.95,-0.04633,-0.86157,0.09763,-0.49588,574
141,0.966,-0.154,-0.28,-1.16,0.366,-0.061,-151.04,-71.598,-59.716,-29.92,-8.607,0.267,29.57,0.1059,0.75336,-0.26215,0.59366,579,0.989,-0.037,0.167,-1.648,-0.427,-0.793,-11.514,-80.112,-113.588,-28.607,-10.24,11.453,29.47,0.36307,-0.57483,-0.28784,-0.67438,577,0.938,-0.036,0.321,1.343,0.0,-0.061,-7.092,-71.257,158.884,-23.067,-10.08,-13.587,30.89,0.18362,0.5636,-0.15494,0.79025,523,0.852,-0.016,-0.501,-1.038,0.732,0.366,-178.028,-59.777,-14.172,-27.827,-13.42,12.747,31.95,-0.04633,-0.86157,0.09763,-0.49588,575
142,0.966,-0.154,-0.279,-1.282,0.244,-0.183,-151.068,-71.603,-59.727,-29.92,-8.607,0.267,29.57,0.1059,0.75336,-0.26215,0.59366,584,0.986,-0.036,0.17,-1.953,0.061,-1.343,-11.42,-80.123,-113.719,-28.607,-10.24,11.453,29.47,0.36307,-0.57483,-0.28784,-0.67438,590,0.94,-0.036,0.32,0.977,0.0,-0.183,-7.059,-71.257,158.906,-23.067,-10.08,-13.587,30.89,0.18362,0.5636,-0.15494,0.79025,534,0.853,-0.016,-0.498,-1.343,0.854,0.366,-178.039,-59.788,-14.189,-27.827,-13.42,12.747,31.95,-0.04633,-0.86157,0.09763,-0.49588,580
143,0.967,-0.153,-0.277,-1.587,0.122,-0.305,-151.106,-71.609,-59.716,-29.92,-8.607,0.267,29.57,0.1059,0.75336,-0.26215,0.59366,585,0.985,-0.033,0.173,-1.953,0.732,-1.831,-11.245,-80.118,-113.939,-28.607,-10.24,11.453,29.47,0.36307,-0.57483,-0.28784,-0.67438,591,0.939,-0.037,0.318,0.977,-0.61,-0.061,-7.042,-71.263,158.939,-23.067,-10.08,-13.587,30.89,0.18362,0.5636,-0.15494,0.79025,535,0.853,-0.016,-0.495,-1.526,0.916,0.366,-178.061,-59.799,-14.205,-27.827,-13.42,12.747,31.95,-0.04633,-0.86157,0.09763,-0.49588,581
144,0.968,-0.153,-0.277,-1.587,0.122,-0.244,-151.144,-71.614,-59.711,-29.92,-8.607,0.267,29.57,0.1059,0.75336,-0.26215,0.59366,592,0.984,-0.032,0.178,-1.953,1.099,-2.136,-11.019,-80.107,-114.208,-28.66,-10.027,10.947,29.47,0.36307,-0.57483,-0.28784,-0.67438,596,0.94,-0.037,0.317,0.854,-1.038,0.305,-7.053,-71.285,158.983,-23.533,-10.227,-13.673,30.89,0.18362,0.5636,-0.15494,0.79025,540,0.853,-0.015,-0.492,-1.648,0.916,0.366,-178.077,-59.815,-14.233,-27.827,-13.42,12.747,31.95,-0.04633,-0.86157,0.09763,-0.49588,586
145,0.968,-0.152,-0.276,-1.526,-0.061,-0.122,-151.183,-71.614,-59.705,-29.92,-8.607,0.267,29.57,0.1059,0.75336,-0.26215,0.59366,593,0.983,-0.03,0.181,-1.953,1.038,-2.258,-10.783,-80.09,-114.483,-28.66,-10.027,10.947,29.47,0.36307,-0.57483,-0.28784,-0.67438,597,0.944,-0.04,0.316,0.671,-1.343,0.61,-7.081,-71.307,159.027,-23.533,-10.227,-13.673,30.89,0.18362,0.5636,-0.15494,0.79025,541,0.854,-0.015,-0.491,-1.648,0.916,0.305,-178.099,-59.832,-14.271,-27.827,-13.42,12.747,31.95,-0.04633,-0.86157,0.09763,-0.49588,587
146,0.968,-0.152,-0.278,-1.404,-0.366,0.0,-151.221,-71.614,-59.716,-29.92,-8.607,0.267,29.57,0.1059,0.75336,-0.26215,0.59366,602,0.982,-0.028,0.183,-1.892,0.916,-2.197,-10.558,-80.079,-114.741,-28.66,-10.027,10.947,29.47,0.36307,-0.57483,-0.28784,-0.67438,600,0.947,-0.041,0.313,0.488,-1.587,0.61,-7.119,-71.334,159.038,-23.533,-10.227,-13.673,30.89,0.18362,0.5636,-0.15494,0.79025,550,0.854,-0.015,-0.489,-1.526,0.793,0.244,-178.121,-59.843,-14.299,-27.827,-13.42,12.747,31.95,-0.04633,-0.86157,0.09763,-0.49588,598
147,0.968,-0.152,-0.279,-1.343,-0.671,0.122,-151.26,-71.603,-59.727,-29.92,-8.607,0.267,29.57,0.1059,0.75336,-0.26215,0.59366,603,0.982,-0.026,0.185,-1.648,0.732,-2.197,-10.322,-80.068,-114.983,-28.66,-10.027,10.947,29.47,0.36307,-0.57483,-0.28784,-0.67438,601,0.951,-0.042,0.306,0.244,-1.892,0.793,-7.174,-71.367,159.071,-23.533,-10.227,-13.673,30.89,0.18362,0.5636,-0.15494,0.79025,551,0.854,-0.013,-0.488,-1.465,0.671,0.305,-178.143,-59.854,-14.315,-27.827,-13.42,12.747,31.95,-0.04633,-0.86157,0.09763,-0.49588,599
148,0.967,-0.152,-0.28,-1.16,-0.793,0.122,-151.298,-71.592,-59.722,-29.267,-8.727,0.187,29.57,0.1059,0.75336,-0.26215,0.59366,608,0.984,-0.025,0.185,-1.526,0.305,-1.892,-10.129,-80.068,-115.197,-28.66,-10.027,10.947,29.47,0.36087,-0.57727,-0.28616,-0.67419,612,0.952,-0.042,0.303,-0.122,-1.648,0.732,-7.234,-71.4,159.099,-23.533,-10.227,-13.673,30.89,0.18314,0.56329,-0.15579,0.79044,558,0.854,-0.013,-0.487,-1.343,0.488,0.305,-178.16,-59.865,-14.337,-27.827,-13.42,12.747,31.95,-0.04633,-0.86157,0.09763,-0.49588,604
149,0.967,-0.153,-0.281,-0.854,-0.916,0.305,-151.331,-71.576,-59.711,-29.267,-8.727,0.187,29.57,0.1059,0.75336,-0.26215,0.59366,609,0.985,-0.024,0.184,-1.343,-0.183,-1.465,-9.987,-80.068,-115.351,-28.66,-10.027,10.947,29.47,0.36087,-0.57727,-0.28616,-0.67419,613,0.954,-0.041,0.306,-0.427,-1.831,0.671,-7.295,-71.433,159.148,-23.533,-10.227,-13.673,30.89,0.18314,0.56329,-0.15579,0.79044,559,0.854,-0.013,-0.488,-1.16,0.366,0.305,-178.171,-59.875,-14.354,-27.827,-13.42,12.747,31.95,-0.04633,-0.86157,0.09763,-0.49588,605
150,0.968,-0.153,-0.283,-0.732,-1.099,0.366,-151.359,-71.554,-59.716,-29.267,-8.727,0.187,29.57,0.1059,0.75336,-0.26215,0.59366,618,0.987,-0.023,0.18,-1.038,-0.854,-0.854,-9.915,-80.085,-115.422,-28.66,-10.027,10.947,29.47,0.36087,-0.57727,-0.28616,-0.67419,616,0.955,-0.044,0.299,-0.122,-2.625,1.038,-7.383,-71.488,159.214,-23.533,-10.227,-13.673,30.89,0.18314,0.56329,-0.15579,0.79044,564,0.854,-0.013,-0.49,-0.916,0.183,0.305,-178.182,-59.875,-14.37,-27.927,-12.88,12.653,31.95,-0.04633,-0.86157,0.09763,-0.49588,610
151,0.968,-0.153,-0.284,-0.61,-1.099,0.427,-151.381,-71.532,-59.711,-29.267,-8.727,0.187,29.57,0.1059,0.75336,-0.26215,0.59366,619,0.989,-0.022,0.178,-0.793,-1.099,-0.244,-9.91,-80.101,-115.428,-28.66,-10.027,10.947,29.47,0.36087,-0.57727,-0.28616,-0.67419,617,0.954,-0.049,0.292,0.061,-2.319,1.282,-7.482,-71.532,159.285,-23.533,-10.227,-13.673,30.89,0.18314,0.56329,-0.15579,0.79044,565,0.854,-0.013,-0.491,-0.732,0.0,0.305,-178.187,-59.881,-14.387,-27.927,-12.88,12.653,31.95,-0.04633,-0.86157,0.09763,-0.49588,611
152,0.967,-0.151,-0.285,-0.549,-1.16,0.549,-151.397,-71.51,-59.722,-29.267,-8.727,0.187,29.57,0.10803,0.75375,-0.26614,0.59097,626,0.99,-0.022,0.175,-0.61,-1.343,0.0,-9.932,-80.123,-115.417,-28.66,-10.027,10.947,29.47,0.36087,-0.57727,-0.28616,-0.67419,624,0.955,-0.051,0.294,-0.061,-2.014,0.61,-7.542,-71.576,159.324,-23.533,-10.227,-13.673,30.89,0.18314,0.56329,-0.15579,0.79044,570,0.853,-0.013,-0.491,-0.488,-0.183,0.305,-178.187,-59.875,-14.414,-27.927,-12.88,12.653,31.95,-0.04633,-0.86157,0.09763,-0.49588,620
153,0.968,-0.151,-0.287,-0.366,-1.343,0.671,-151.408,-71.483,-59.727,-29.267,-8.727,0.187,29.57,0.10803,0.75375,-0.26614,0.59097,627,0.991,-0.023,0.171,-0.427,-1.404,0.244,-9.976,-80.145,-115.378,-28.66,-10.027,10.947,29.47,0.36087,-0.57727,-0.28616,-0.67419,625,0.946,-0.049,0.296,-0.061,-2.014,0.0,-7.57,-71.625,159.324,-23.533,-10.227,-13.673,30.89,0.18314,0.56329,-0.15579,0.79044,571,0.854,-0.012,-0.494,0.0,-0.305,0.305,-178.182,-59.875,-14.442,-27.927,-12.88,12.653,31.95,-0.04633,-0.86157,0.09763,-0.49588,621
154,0.968,-0.152,-0.289,-0.244,-1.465,0.854,-151.419,-71.45,-59.738,-29.267,-8.727,0.187,29.57,0.10803,0.75375,-0.26614,0.59097,632,0.994,-0.023,0.168,-0.183,-1.465,0.427,-10.031,-80.167,-115.329,-28.66,-10.027,10.947,29.47,0.36087,-0.57727,-0.28616,-0.67419,638,0.943,-0.049,0.303,-0.549,-2.258,-0.183,-7.581,-71.669,159.313,-23.533,-10.227,-13.673,30.89,0.18314,0.56329,-0.15579,0.79044,582,0.853,-0.012,-0.498,0.061,-0.183,0.366,-178.176,-59.87,-14.458,-27.927,-12.88,12.653,31.95,-0.0491,-0.86053,0.10104,-0.49673,628
155,0.966,-0.154,-0.289,-0.122,-1.465,0.916,-151.419,-71.417,-59.76,-29.267,-8.727,0.187,29.57,0.10803,0.75375,-0.26614,0.59097,633,0.997,-0.026,0.162,-0.183,-0.977,0.61,-10.102,-80.184,-115.269,-28.66,-10.027,10.947,29.47,0.36087,-0.57727,-0.28616,-0.67419,639,0.94,-0.048,0.302,-0.916,-1.648,-1.587,-7.592,-71.719,159.296,-23.533,-10.227,-13.673,30.89,0.18314,0.56329,-0.15579,0.79044,583,0.853,-0.013,-0.497,0.305,-0.183,0.366,-178.165,-59.865,-14.485,-27.927,-12.88,12.653,31.95,-0.0491,-0.86053,0.10104,-0.49673,629
156,0.967,-0.156,-0.291,-0.122,-1.282,0.916,-151.419,-71.389,-59.788,-29.267,-8.727,0.187,29.57,0.10803,0.75375,-0.26614,0.59097,640,0.999,-0.027,0.162,-0.122,-0.183,0.793,-10.179,-80.178,-115.192,-28.66,-10.027,10.947,29.47,0.36087,-0.57727,-0.28616,-0.67419,644,0.938,-0.045,0.308,-1.038,-1.221,-1.953,-7.537,-71.757,159.214,-23.533,-10.227,-13.673,30.89,0.18314,0.56329,-0.15579,0.79044,588,0.853,-0.015,-0.501,0.488,0.061,0.305,-178.149,-59.865,-14.518,-27.927,-12.88,12.653,31.95,-0.0491,-0.86053,0.10104,-0.49673,634
157,0.969,-0.156,-0.293,-0.244,-0.977,0.916,-151.408,-71.362,-59.81,-29.267,-8.727,0.187,29.57,0.10803,0.75375,-0.26614,0.59097,641,0.997,-0.027,0.163,-0.244,-0.549,0.916,-10.278,-80.189,-115.098,-28.66,-10.027,10.947,29.47,0.36087,-0.57727,-0.28616,-0.67419,645,0.938,-0.041,0.312,-1.282,-1.221,-2.441,-7.46,-71.79,159.104,-23.533,-10.227,-13.673,30.89,0.18314,0.56329,-0.15579,0.79044,589,0.853,-0.017,-0.504,0.427,0.305,0.305,-178.132,-59.865,-14.54,-27.927,-12.88,12.653,31.95,-0.0491,-0.86053,0.10104,-0.49673,635
158,0.969,-0.156,-0.293,-0.061,-0.488,0.916,-151.386,-71.34,-59.837,-29.267,-8.727,0.187,29.57,0.10803,0.75375,-0.26614,0.59097,650,0.993,-0.026,0.164,-0.061,-1.282,1.099,-10.415,-80.211,-114.977,-28.66,-10.027,10.947,29.47,0.36087,-0.57727,-0.28616,-0.67419,648,0.936,-0.038,0.314,-1.282,-1.221,-2.319,-7.361,-71.823,158.967,-23.533,-10.227,-13.673,30.89,0.18314,0.56329,-0.15579,0.79044,594,0.854,-0.016,-0.503,0.427,0.244,0.366,-178.116,-59.87,-14.568,-27.927,-12.88,12.653,31.95,-0.0491,-0.86053,0.10104,-0.49673,646
159,0.969,-0.155,-0.293,0.0,-0.305,0.916,-151.353,-71.329,-59.865,-29.267,-8.727,0.187,29.57,0.10803,0.75375,-0.26614,0.59097,651,0.991,-0.027,0.165,0.0,-1.587,1.16,-10.558,-80.239,-114.857,-28.66,-10.027,10.947,29.47,0.36087,-0.57727,-0.28616,-0.67419,649,0.937,-0.036,0.316,-1.221,-1.77,-2.075,-7.273,-71.856,158.84,-23.533,-10.227,-13.673,30.89,0.18314,0.56329,-0.15579,0.79044,595,0.854,-0.014,-0.502,0.427,0.183,0.305,-178.094,-59.87,-14.606,-27.927,-12.88,12.653,31.95,-0.0491,-0.86053,0.10104,-0.49673,647
160,0.967,-0.156,-0.292,-0.061,-0.305,0.854,-151.326,-71.312,-59.897,-29.267,-8.727,0.187,29.57,0.10803,0.75375,-0.26614,0.59097,656,0.993,-0.03,0.165,-0.122,-1.282,0.977,-10.684,-80.261,-114.752,-28.66,-10.027,10.947,29.47,0.36087,-0.57727,-0.28616,-0.67419,660,0.937,-0.033,0.315,-1.221,-2.014,-2.136,-7.191,-71.895,158.725,-23.533,-10.227,-13.673,30.89,0.18314,0.56329,-0.15579,0.79044,606,0.854,-0.015,-0.501,0.305,0.122,0.366,-178.083,-59.875,-14.634,-27.927,-12.88,12.653,31.95,-0.0491,-0.86053,0.10104,-0.49673,652
161,0.964,-0.158,-0.292,-0.122,-0.488,0.793,-151.304,-71.296,-59.925,-29.267,-8.727,0.187,29.57,0.10803,0.75375,-0.26614,0.59097,657,0.992,-0.033,0.163,0.0,-0.854,0.793,-10.778,-80.277,-114.675,-28.66,-10.027,10.947,29.47,0.36087,-0.57727,-0.28616,-0.67419,661,0.939,-0.03,0.316,-1.16,-1.892,-2.136,-7.108,-71.933,158.604,-23.533,-10.227,-13.673,30.89,0.18314,0.56329,-0.15579,0.79044,607,0.853,-0.017,-0.501,0.366,0.122,0.366,-178.066,-59.875,-14.661,-27.927,-12.88,12.653,31.95,-0.0491,-0.86053,0.10104,-0.49673,653
162,0.964,-0.16,-0.291,-0.183,-0.488,0.854,-151.282,-71.279,-59.963,-29.267,-8.727,0.187,29.57,0.10803,0.75375,-0.26614,0.59097,662,0.989,-0.033,0.165,0.122,-0.671,0.732,-10.865,-80.288,-114.604,-28.44,-10.28,10.253,29.47,0.36087,-0.57727,-0.28616,-0.67419,664,0.941,-0.027,0.314,-1.099,-1.953,-1.709,-7.02,-71.971,158.445,-23.273,-10.167,-15.113,30.89,0.18314,0.56329,-0.15579,0.79044,614,0.853,-0.019,-0.499,0.366,0.244,0.305,-178.05,-59.875,-14.694,-27.927,-12.88,12.653,31.95,-0.0491,-0.86053,0.10104,-0.49673,658
163,0.965,-0.16,-0.291,-0.183,-0.61,0.732,-151.271,-71.257,-59.991,-29.267,-8.727,0.187,29.57,0.10803,0.75375,-0.26614,0.59097,663,0.989,-0.034,0.167,0.061,-0.549,0.854,-10.964,-80.294,-114.516,-28.44,-10.28,10.253,29.47,0.36087,-0.57727,-0.28616,-0.67419,665,0.943,-0.027,0.309,-1.038,-1.709,-1.221,-6.954,-72.01,158.313,-23.273,-10.167,-15.113,30.89,0.18314,0.56329,-0.15579,0.79044,615,0.853,-0.019,-0.498,0.244,0.305,0.244,-178.033,-59.875,-14.733,-27.927,-12.88,12.653,31.95,-0.0491,-0.86053,0.10104,-0.49673,659
164,0.966,-0.16,-0.291,-0.061,-0.549,0.61,-151.26,-71.241,-60.002,-29.267,-8.727,0.187,29.57,0.10803,0.75375,-0.26614,0.59097,670,0.99,-0.035,0.169,-0.061,-0.549,0.671,-11.047,-80.299,-114.45,-28.44,-10.28,10.253,29.47,0.36087,-0.57727,-0.28616,-0.67419,668,0.944,-0.028,0.307,-0.793,-1.404,-0.61,-6.916,-72.037,158.22,-23.273,-10.167,-15.113,30.89,0.18314,0.56329,-0.15579,0.79044,622,0.854,-0.019,-0.496,0.244,0.305,0.183,-178.022,-59.875,-14.766,-27.927,-12.88,12.653,31.95,-0.0491,-0.86053,0.10104,-0.49673,666
165,0.965,-0.161,-0.289,0.061,-0.427,0.549,-151.243,-71.23,-60.018,-29.267,-8.727,0.187,29.57,0.10803,0.75375,-0.26614,0.59097,671,0.99,-0.035,0.168,-0.183,-0.488,0.427,-11.107,-80.31,-114.395,-28.44,-10.28,10.253,29.47,0.36087,-0.57727,-0.28616,-0.67419,669,0.947,-0.03,0.303,-0.671,-1.587,-0.427,-6.899,-72.065,158.17,-23.273,-10.167,-15.113,30.89,0.18314,0.56329,-0.15579,0.79044,623,0.854,-0.019,-0.494,0.244,0.305,0.183,-178.011,-59.881,-14.804,-27.927,-12.88,12.653,31.95,-0.0491,-0.86053,0.10104,-0.49673,667
166,0.965,-0.161,-0.287,0.061,-0.61,0.427,-151.238,-71.213,-60.029,-29.14,-8.307,0.113,29.57,0.10803,0.75375,-0.26614,0.59097,672,0.99,-0.036,0.168,-0.244,-0.366,0.305,-11.151,-80.316,-114.346,-28.44,-10.28,10.253,29.47,0.35959,-0.57956,-0.28549,-0.67319,680,0.949,-0.029,0.3,-0.549,-1.465,-0.244,-6.888,-72.092,158.137,-23.273,-10.167,-15.113,30.89,0.18759,0.56732,-0.15897,0.78586,630,0.854,-0.02,-0.493,0.122,0.244,0.122,-178.0,-59.886,-14.837,-27.927,-12.88,12.653,31.95,-0.0491,-0.86053,0.10104,-0.49673,674
167,0.966,-0.161,-0.286,0.0,-0.427,0.305,-151.238,-71.202,-60.04,-29.14,-8.307,0.113,29.57,0.10803,0.75375,-0.26614,0.59097,673,0.991,-0.037,0.169,-0.244,-0.305,0.183,-11.184,-80.316,-114.324,-28.44,-10.28,10.253,29.47,0.35959,-0.57956,-0.28549,-0.67319,681,0.953,-0.03,0.293,-0.488,-1.526,0.0,-6.888,-72.12,158.132,-23.273,-10.167,-15.113,30.89,0.18759,0.56732,-0.15897,0.78586,631,0.854,-0.019,-0.493,0.122,0.183,0.061,-177.99,-59.886,-14.859,-27.927,-12.88,12.653,31.95,-0.0491,-0.86053,0.10104,-0.49673,675
168,0.966,-0.161,-0.286,0.0,-0.183,0.183,-151.232,-71.197,-60.051,-29.14,-8.307,0.113,29.57,0.10803,0.75375,-0.26614,0.59097,682,0.99,-0.035,0.169,-0.183,-0.549,0.0,-11.201,-80.327,-114.324,-28.44,-10.28,10.253,29.47,0.35959,-0.57956,-0.28549,-0.67319,686,0.953,-0.035,0.284,-0.916,-0.916,-0.122,-6.899,-72.142,158.132,-23.273,-10.167,-15.113,30.89,0.18759,0.56732,-0.15897,0.78586,636,0.854,-0.02,-0.493,0.0,0.122,0.0,-177.99,-59.892,-14.865,-27.927,-12.88,12.653,31.95,-0.0491,-0.86053,0.10104,-0.49673,676
169,0.965,-0.16,-0.286,0.0,0.0,0.122,-151.221,-71.191,-60.062,-29.14,-8.307,0.113,29.57,0.10803,0.75375,-0.26614,0.59097,683,0.989,-0.033,0.169,-0.061,-0.549,0.0,-11.217,-80.338,-114.324,-28.44,-10.28,10.253,29.47,0.35959,-0.57956,-0.28549,-0.67319,687,0.958,-0.034,0.292,-0.854,0.0,0.061,-6.91,-72.158,158.143,-23.273,-10.167,-15.113,30.89,0.18759,0.56732,-0.15897,0.78586,637,0.854,-0.018,-0.492,0.0,0.0,0.061,-177.984,-59.892,-14.87,-27.927,-12.88,12.653,31.95,-0.0491,-0.86053,0.10104,-0.49673,677
170,0.964,-0.159,-0.287,-0.244,-0.061,0.0,-151.227,-71.191,-60.051,-29.14,-8.307,0.113,29.57,0.10727,0.75421,-0.26895,0.58923,696,0.99,-0.032,0.168,-0.366,-0.244,-0.244,-11.201,-80.338,-114.346,-28.44,-10.28,10.253,29.47,0.35959,-0.57956,-0.28549,-0.67319,694,0.954,-0.035,0.297,0.244,-0.916,0.183,-6.921,-72.164,158.143,-23.273,-10.167,-15.113,30.89,0.18759,0.56732,-0.15897,0.78586,642,0.854,-0.018,-0.493,-0.122,0.0,0.0,-177.984,-59.892,-14.87,-27.547,-13.273,12.327,31.95,-0.0491,-0.86053,0.10104,-0.49673,688
171,0.964,-0.159,-0.288,-0.488,-0.122,0.061,-151.232,-71.186,-60.046,-29.14,-8.307,0.113,29.57,0.10727,0.75421,-0.26895,0.58923,697,0.99,-0.031,0.167,-0.549,-0.061,-0.488,-11.157,-80.343,-114.395,-28.44,-10.28,10.253,29.47,0.35959,-0.57956,-0.28549,-0.67319,695,0.95,-0.031,0.299,1.099,-1.465,0.488,-6.932,-72.186,158.165,-23.273,-10.167,-15.113,30.89,0.18759,0.56732,-0.15897,0.78586,643,0.854,-0.016,-0.492,-0.244,0.0,0.061,-177.984,-59.892,-14.865,-27.547,-13.273,12.327,31.95,-0.0491,-0.86053,0.10104,-0.49673,689
172,0.965,-0.158,-0.289,-0.549,-0.122,0.0,-151.249,-71.186,-60.057,-29.14,-8.307,0.113,29.57,0.10727,0.75421,-0.26895,0.58923,702,0.99,-0.031,0.168,-0.427,0.061,-0.488,-11.107,-80.338,-114.445,-28.44,-10.28,10.253,29.47,0.35959,-0.57956,-0.28549,-0.67319,706,0.949,-0.037,0.293,0.61,-2.441,0.854,-6.954,-72.224,158.198,-23.273,-10.167,-15.113,30.89,0.18759,0.56732,-0.15897,0.78586,654,0.854,-0.016,-0.493,-0.244,0.0,0.061,-177.99,-59.892,-14.881,-27.547,-13.273,12.327,31.95,-0.04959,-0.86014,0.10355,-0.49686,698
173,0.965,-0.157,-0.29,-0.61,-0.183,0.0,-151.26,-71.18,-60.068,-29.14,-8.307,0.113,29.57,0.10727,0.75421,-0.26895,0.58923,703,0.991,-0.029,0.168,-0.793,-0.122,-0.732,-11.047,-80.338,-114.516,-28.44,-10.28,10.253,29.47,0.35959,-0.57956,-0.28549,-0.67319,707,0.951,-0.041,0.289,0.061,-1.526,0.427,-6.998,-72.268,158.258,-23.273,-10.167,-15.113,30.89,0.18759,0.56732,-0.15897,0.78586,655,0.854,-0.016,-0.494,-0.427,0.0,0.061,-177.99,-59.892,-14.903,-27.547,-13.273,12.327,31.95,-0.04959,-0.86014,0.10355,-0.49686,699
174,0.965,-0.157,-0.291,-0.61,-0.183,0.0,-151.276,-71.18,-60.079,-29.14,-8.307,0.113,29.57,0.10727,0.75421,-0.26895,0.58923,708,0.992,-0.028,0.166,-0.671,0.0,-0.793,-10.975,-80.343,-114.615,-28.44,-10.28,10.253,29.47,0.35959,-0.57956,-0.28549,-0.67319,710,0.948,-0.041,0.291,0.183,-0.977,0.427,-7.031,-72.296,158.269,-23.273,-10.167,-15.113,30.89,0.18759,0.56732,-0.15897,0.78586,678,0.854,-0.015,-0.494,-0.488,0.0,0.061,-178.0,-59.892,-14.925,-27.547,-13.273,12.327,31.95,-0.04959,-0.86014,0.10355,-0.49686,704
175,0.965,-0.158,-0.291,-0.61,-0.183,0.0,-151.298,-71.175,-60.09,-29.14,-8.307,0.113,29.57,0.10727,0.75421,-0.26895,0.58923,709,0.993,-0.027,0.165,-0.549,0.244,-0.732,-10.893,-80.343,-114.725,-28.44,-10.28,10.253,29.47,0.35959,-0.57956,-0.28549,-0.67319,711,0.946,-0.039,0.294,0.244,-0.977,0.732,-7.064,-72.318,158.264,-23.273,-10.167,-15.113,30.89,0.18759,0.56732,-0.15897,0.78586,679,0.854,-0.015,-0.495,-0.427,0.0,0.061,-178.006,-59.892,-14.936,-27.547,-13.273,12.327,31.95,-0.04959,-0.86014,0.10355,-0.49686,705
176,0.966,-0.157,-0.292,-0.549,-0.183,0.0,-151.315,-71.169,-60.101,-29.14,-8.307,0.113,29.57,0.10727,0.75421,-0.26895,0.58923,720,0.993,-0.027,0.166,-0.61,0.305,-0.549,-10.811,-80.338,-114.824,-28.44,-10.28,10.253,29.47,0.35959,-0.57956,-0.28549,-0.67319,718,0.946,-0.042,0.297,0.183,-1.221,0.916,-7.119,-72.339,158.286,-23.273,-10.167,-15.113,30.89,0.18759,0.56732,-0.15897,0.78586,684,0.854,-0.015,-0.496,-0.427,0.0,0.122,-178.011,-59.892,-14.952,-27.547,-13.273,12.327,31.95,-0.04959,-0.86014,0.10355,-0.49686,716
177,0.966,-0.156,-0.292,-0.427,-0.122,0.0,-151.326,-71.169,-60.095,-29.14,-8.307,0.113,29.57,0.10727,0.75421,-0.26895,0.58923,721,0.992,-0.026,0.166,-0.61,0.305,-0.427,-10.745,-80.332,-114.901,-28.44,-10.28,10.253,29.47,0.35959,-0.57956,-0.28549,-0.67319,719,0.947,-0.044,0.297,0.0,-1.16,0.244,-7.174,-72.367,158.313,-23.273,-10.167,-15.113,30.89,0.18759,0.56732,-0.15897,0.78586,685,0.854,-0.016,-0.498,-0.427,0.0,0.122,-178.017,-59.892,-14.963,-27.547,-13.273,12.327,31.95,-0.04959,-0.86014,0.10355,-0.49686,717
178,0.967,-0.156,-0.293,-0.366,-0.183,0.122,-151.337,-71.164,-60.106,-29.14,-8.307,0.113,29.57,0.10727,0.75421,-0.26895,0.58923,726,0.992,-0.026,0.166,-0.549,0.305,-0.427,-10.695,-80.332,-114.972,-28.44,-10.28,10.253,29.47,0.35959,-0.57956,-0.28549,-0.67319,732,0.947,-0.043,0.295,0.0,-1.282,0.183,-7.202,-72.389,158.329,-23.273,-10.167,-15.113,30.89,0.18759,0.56732,-0.15897,0.78586,690,0.854,-0.015,-0.497,-0.366,0.061,0.122,-178.022,-59.892,-14.963,-27.547,-13.273,12.327,31.94,-0.04959,-0.86014,0.10355,-0.49686,722
179,0.966,-0.156,-0.293,-0.244,-0.122,0.183,-151.337,-71.158,-60.139,-29.14,-8.307,0.113,29.57,0.10727,0.75421,-0.26895,0.58923,727,0.992,-0.026,0.165,-0.549,0.366,-0.305,-10.64,-80.327,-115.027,-28.44,-10.28,10.253,29.47,0.35959,-0.57956,-0.28549,-0.67319,733,0.947,-0.044,0.294,-0.122,-0.916,0.183,-7.229,-72.416,158.335,-23.273,-10.167,-15.113,30.89,0.18759,0.56732,-0.15897,0.78586,691,0.854,-0.015,-0.498,-0.244,0.061,0.122,-178.028,-59.892,-14.969,-27.547,-13.273,12.327,31.94,-0.04959,-0.86014,0.10355,-0.49686,723
180,0.965,-0.156,-0.293,-0.183,-0.061,0.244,-151.331,-71.153,-60.172,-29.14,-8.307,0.113,29.57,0.10727,0.75421,-0.26895,0.58923,734,0.993,-0.026,0.166,-0.427,0.366,-0.183,-10.596,-80.321,-115.065,-28.32,-10.033,10.92,29.47,0.35959,-0.57956,-0.28549,-0.67319,738,0.948,-0.043,0.298,0.0,-0.732,0.549,-7.262,-72.433,158.362,-23.273,-10.167,-15.113,30.89,0.18759,0.56732,-0.15897,0.78586,692,0.854,-0.014,-0.498,-0.183,0.061,0.122,-178.028,-59.892,-14.98,-27.547,-13.273,12.327,31.94,-0.04959,-0.86014,0.10355,-0.49686,728
181,0.965,-0.156,-0.292,-0.183,0.0,0.244,-151.331,-71.153,-60.211,-29.14,-8.307,0.113,29.57,0.10727,0.75421,-0.26895,0.58923,735,0.991,-0.027,0.166,-0.305,0.427,0.0,-10.569,-80.31,-115.098,-28.32,-10.033,10.92,29.47,0.35959,-0.57956,-0.28549,-0.67319,739,0.948,-0.042,0.298,0.305,-1.465,0.305,-7.306,-72.449,158.395,-23.273,-10.167,-15.113,30.89,0.18759,0.56732,-0.15897,0.78586,693,0.854,-0.015,-0.497,-0.122,0.0,0.122,-178.028,-59.892,-15.002,-27.547,-13.273,12.327,31.94,-0.04959,-0.86014,0.10355,-0.49686,729
182,0.966,-0.157,-0.291,-0.244,0.0,0.305,-151.326,-71.147,-60.233,-29.14,-8.307,0.113,29.57,0.10727,0.75421,-0.26895,0.58923,746,0.99,-0.028,0.168,-0.244,0.366,0.0,-10.552,-80.305,-115.12,-28.32,-10.033,10.92,29.47,0.35959,-0.57956,-0.28549,-0.67319,744,0.947,-0.042,0.29,-0.183,-1.099,0.0,-7.333,-72.477,158.423,-23.273,-10.167,-15.113,30.89,0.18759,0.56732,-0.15897,0.78586,700,0.854,-0.015,-0.497,0.0,0.0,0.122,-178.028,-59.892,-15.007,-27.547,-13.273,12.327,31.94,-0.04959,-0.86014,0.10355,-0.49686,740
183,0.965,-0.158,-0.292,-0.122,0.0,0.366,-151.309,-71.142,-60.255,-29.14,-8.307,0.113,29.57,0.10727,0.75421,-0.26895,0.58923,747,0.989,-0.028,0.169,-0.122,0.183,0.061,-10.536,-80.299,-115.148,-28.32,-10.033,10.92,29.47,0.35959,-0.57956,-0.28549,-0.67319,745,0.949,-0.041,0.294,-0.793,0.0,-0.488,-7.344,-72.493,158.428,-23.273,-10.167,-15.113,30.89,0.18759,0.56732,-0.15897,0.78586,701,0.854,-0.015,-0.497,0.0,0.122,0.122,-178.028,-59.892,-15.024,-27.547,-13.273,12.327,31.94,-0.04959,-0.86014,0.10355,-0.49686,741
184,0.965,-0.158,-0.291,0.0,0.122,0.366,-151.293,-71.142,-60.298,-29.54,-8.433,0.22,29.57,0.10727,0.75421,-0.26895,0.58923,754,0.99,-0.029,0.169,-0.122,0.244,0.061,-10.53,-80.294,-115.17,-28.32,-10.033,10.92,29.47,0.35809,-0.57959,-0.28497,-0.67419,758,0.948,-0.039,0.292,-0.854,-0.183,-0.793,-7.333,-72.499,158.406,-23.087,-9.993,-12.893,30.89,0.18759,0.56732,-0.15897,0.78586,712,0.854,-0.016,-0.495,0.0,0.122,0.183,-178.022,-59.892,-15.051,-27.547,-13.273,12.327,31.94,-0.04959,-0.86014,0.10355,-0.49686,748
185,0.965,-0.158,-0.291,0.061,0.061,0.366,-151.276,-71.136,-60.342,-29.54,-8.433,0.22,29.57,0.10727,0.75421,-0.26895,0.58923,755,0.991,-0.029,0.17,-0.061,0.305,0.061,-10.519,-80.288,-115.186,-28.32,-10.033,10.92,29.47,0.35809,-0.57959,-0.28497,-0.67419,759,0.947,-0.037,0.294,-0.854,0.183,-0.793,-7.311,-72.504,158.395,-23.087,-9.993,-12.893,30.89,0.18759,0.56732,-0.15897,0.78586,713,0.854,-0.017,-0.494,0.061,0.061,0.122,-178.022,-59.897,-15.062,-27.547,-13.273,12.327,31.94,-0.04959,-0.86014,0.10355,-0.49686,749
186,0.965,-0.158,-0.289,0.061,0.0,0.427,-151.254,-71.131,-60.37,-29.54,-8.433,0.22,29.57,0.10727,0.75421,-0.26895,0.58923,760,0.99,-0.029,0.168,0.0,0.427,0.061,-10.508,-80.283,-115.214,-28.32,-10.033,10.92,29.47,0.35809,-0.57959,-0.28497,-0.67419,762,0.947,-0.037,0.295,-1.099,0.305,-0.732,-7.284,-72.499,158.379,-23.087,-9.993,-12.893,30.89,0.18759,0.56732,-0.15897,0.78586,714,0.854,-0.017,-0.494,0.183,0.061,0.061,-178.017,-59.897,-15.079,-27.547,-13.273,12.327,31.94,-0.04959,-0.86014,0.10355,-0.49686,752
187,0.964,-0.159,-0.288,0.0,-0.061,0.366,-151.243,-71.125,-60.392,-29.54,-8.433,0.22,29.57,0.10727,0.75421,-0.26895,0.58923,761,0.992,-0.03,0.167,-0.122,1.16,0.0,-10.492,-80.266,-115.241,-28.32,-10.033,10.92,29.47,0.35809,-0.57959,-0.28497,-0.67419,763,0.949,-0.036,0.292,-1.099,0.244,-0.793,-7.262,-72.499,158.357,-23.087,-9.993,-12.893,30.89,0.18759,0.56732,-0.15897,0.78586,715,0.854,-0.016,-0.494,0.244,0.061,0.061,-178.011,-59.897,-15.084,-27.547,-13.273,12.327,31.94,-0.04959,-0.86014,0.10355,-0.49686,753
188,0.964,-0.16,-0.29,0.0,-0.122,0.366,-151.227,-71.12,-60.414,-29.54,-8.433,0.22,29.57,0.1088,0.75366,-0.27151,0.5885,768,0.992,-0.03,0.169,0.0,1.526,-0.061,-10.459,-80.244,-115.291,-28.32,-10.033,10.92,29.47,0.35809,-0.57959,-0.28497,-0.67419,772,0.95,-0.035,0.29,-0.916,0.427,-0.854,-7.234,-72.499,158.346,-23.087,-9.993,-12.893,30.89,0.18759,0.56732,-0.15897,0.78586,724,0.854,-0.017,-0.493,0.244,0.122,0.0,-178.006,-59.897,-15.068,-27.547,-13.273,12.327,31.94,-0.04959,-0.86014,0.10355,-0.49686,764
189,0.966,-0.16,-0.291,-0.061,-0.122,0.305,-151.221,-71.115,-60.425,-29.54,-8.433,0.22,29.57,0.1088,0.75366,-0.27151,0.5885,769,0.989,-0.029,0.171,0.0,0.916,0.0,-10.415,-80.217,-115.345,-28.32,-10.033,10.92,29.47,0.35809,-0.57959,-0.28497,-0.67419,773,0.951,-0.034,0.292,-0.854,0.488,-0.793,-7.196,-72.493,158.307,-23.087,-9.993,-12.893,30.89,0.18759,0.56732,-0.15897,0.78586,725,0.854,-0.018,-0.494,0.122,0.183,0.0,-178.006,-59.903,-15.057,-27.547,-13.273,12.327,31.94,-0.04959,-0.86014,0.10355,-0.49686,765
190,0.967,-0.161,-0.29,0.061,0.061,0.244,-151.205,-71.115,-60.441,-29.54,-8.433,0.22,29.57,0.1088,0.75366,-0.27151,0.5885,774,0.987,-0.028,0.173,0.183,0.488,0.061,-10.393,-80.2,-115.373,-28.32,-10.033,10.92,29.47,0.35809,-0.57959,-0.28497,-0.67419,784,0.95,-0.033,0.292,-0.854,0.427,-0.671,-7.163,-72.488,158.264,-23.087,-9.993,-12.893,30.89,0.18784,0.57001,-0.16077,0.78348,730,0.855,-0.018,-0.495,0.122,0.183,0.0,-178.0,-59.903,-15.04,-27.547,-13.273,12.327,31.94,-0.04959,-0.86014,0.10355,-0.49686,776
191,0.966,-0.16,-0.291,0.244,0.244,0.305,-151.177,-71.115,-60.469,-29.54,-8.433,0.22,29.57,0.1088,0.75366,-0.27151,0.5885,775,0.988,-0.028,0.175,0.061,0.122,0.061,-10.377,-80.195,-115.378,-28.32,-10.033,10.92,29.47,0.35809,-0.57959,-0.28497,-0.67419,785,0.949,-0.034,0.292,-0.793,0.427,-0.61,-7.136,-72.482,158.236,-23.087,-9.993,-12.893,30.89,0.18784,0.57001,-0.16077,0.78348,731,0.854,-0.017,-0.494,0.183,0.0,0.0,-178.0,-59.908,-15.04,-27.547,-13.273,12.327,31.94,-0.04959,-0.86014,0.10355,-0.49686,777
192,0.965,-0.158,-0.29,0.183,0.244,0.244,-151.155,-71.115,-60.485,-29.54,-8.433,0.22,29.57,0.1088,0.75366,-0.27151,0.5885,782,0.988,-0.028,0.173,-0.061,0.061,0.0,-10.371,-80.189,-115.384,-28.32,-10.033,10.92,29.47,0.35809,-0.57959,-0.28497,-0.67419,786,0.951,-0.034,0.292,-0.854,0.427,-0.671,-7.108,-72.477,158.214,-23.087,-9.993,-12.893,30.89,0.18784,0.57001,-0.16077,0.78348,736,0.855,-0.016,-0.494,0.122,-0.061,0.0,-178.0,-59.903,-15.051,-27.547,-13.273,12.327,31.94,-0.04959,-0.86014,0.10355,-0.49686,778
193,0.964,-0.159,-0.29,0.0,0.061,0.183,-151.15,-71.115,-60.496,-29.54,-8.433,0.22,29.57,0.1088,0.75366,-0.27151,0.5885,783,0.986,-0.029,0.173,0.0,0.122,0.0,-10.36,-80.184,-115.389,-28.32,-10.033,10.92,29.47,0.35809,-0.57959,-0.28497,-0.67419,787,0.951,-0.033,0.292,-0.793,0.427,-0.61,-7.081,-72.477,158.154,-23.087,-9.993,-12.893,30.89,0.18784,0.57001,-0.16077,0.78348,737,0.854,-0.016,-0.494,0.0,-0.244,0.0,-178.0,-59.903,-15.062,-27.547,-13.273,12.327,31.94,-0.04959,-0.86014,0.10355,-0.49686,779
194,0.964,-0.16,-0.291,-0.122,-0.366,0.183,-151.15,-71.109,-60.496,-29.54,-8.433,0.22,29.57,0.1088,0.75366,-0.27151,0.5885,792,0.989,-0.029,0.174,-0.061,0.061,0.061,-10.349,-80.184,-115.389,-28.32,-10.033,10.92,29.47,0.35809,-0.57959,-0.28497,-0.67419,802,0.951,-0.033,0.292,-0.732,0.427,-0.549,-7.053,-72.471,158.071,-23.087,-9.993,-12.893,30.89,0.18784,0.57001,-0.16077,0.78348,742,0.854,-0.017,-0.493,0.061,-0.244,0.0,-178.0,-59.897,-15.073,-28.067,-13.027,12.253,31.94,-0.04959,-0.86014,0.10355,-0.49686,788
195,0.965,-0.16,-0.292,0.0,-0.488,0.122,-151.155,-71.098,-60.491,-29.54,-8.433,0.22,29.57,0.1088,0.75366,-0.27151,0.5885,793,0.991,-0.029,0.172,-0.061,0.0,0.122,-10.349,-80.178,-115.378,-28.32,-10.033,10.92,29.47,0.35809,-0.57959,-0.28497,-0.67419,803,0.949,-0.034,0.293,-0.488,0.427,-0.305,-7.031,-72.466,157.989,-23.087,-9.993,-12.893,30.89,0.18784,0.57001,-0.16077,0.78348,743,0.854,-0.017,-0.493,0.0,-0.183,0.0,-178.0,-59.892,-15.101,-28.067,-13.027,12.253,31.94,-0.04959,-0.86014,0.10355,-0.49686,789
196,0.965,-0.16,-0.292,0.0,-0.366,0.122,-151.166,-71.087,-60.485,-29.54,-8.433,0.22,29.57,0.1088,0.75366,-0.27151,0.5885,796,0.991,-0.029,0.169,0.0,0.0,0.061,-10.355,-80.173,-115.362,-28.213,-10.26,11.08,29.47,0.35809,-0.57959,-0.28497,-0.67419,804,0.947,-0.034,0.296,-0.244,0.244,-0.122,-7.02,-72.466,157.923,-23.087,-9.993,-12.893,30.89,0.18784,0.57001,-0.16077,0.78348,750,0.854,-0.018,-0.493,-0.061,-0.183,0.0,-178.0,-59.892,-15.134,-28.067,-13.027,12.253,31.94,-0.05075,-0.85992,0.10547,-0.49673,794
197,0.965,-0.16,-0.291,-0.061,-0.488,0.122,-151.172,-71.076,-60.491,-29.54,-8.433,0.22,29.57,0.1088,0.75366,-0.27151,0.5885,797,0.993,-0.028,0.167,0.0,0.122,0.061,-10.349,-80.173,-115.356,-28.213,-10.26,11.08,29.47,0.35809,-0.57959,-0.28497,-0.67419,805,0.946,-0.036,0.296,-0.061,0.0,0.061,-7.015,-72.466,157.89,-23.087,-9.993,-12.893,30.89,0.18784,0.57001,-0.16077,0.78348,751,0.854,-0.017,-0.495,-0.061,-0.244,0.0,-178.006,-59.886,-15.178,-28.067,-13.027,12.253,31.94,-0.05075,-0.85992,0.10547,-0.49673,795
198,0.965,-0.16,-0.29,-0.183,-0.366,0.122,-151.183,-71.071,-60.502,-29.54,-8.433,0.22,29.57,0.1088,0.75366,-0.27151,0.5885,808,0.993,-0.028,0.168,-0.061,0.488,0.0,-10.344,-80.167,-115.367,-28.213,-10.26,11.08,29.47,0.35809,-0.57959,-0.28497,-0.67419,806,0.946,-0.038,0.294,-0.061,0.122,0.0,-7.015,-72.466,157.885,-23.087,-9.993,-12.893,30.89,0.18784,0.57001,-0.16077,0.78348,756,0.854,-0.016,-0.496,0.0,-0.244,0.0,-178.006,-59.881,-15.222,-28.067,-13.027,12.253,31.94,-0.05075,-0.85992,0.10547,-0.49673,798
199,0.965,-0.16,-0.291,-0.305,-0.183,0.061,-151.188,-71.06,-60.491,-29.54,-8.433,0.22,29.57,0.1088,0.75366,-0.27151,0.5885,809,0.993,-0.028,0.167,-0.061,0.427,0.0,-10.322,-80.156,-115.384,-28.213,-10.26,11.08,29.47,0.35809,-0.57959,-0.28497,-0.67419,807,0.948,-0.036,0.294,-0.122,0.305,-0.061,-7.015,-72.466,157.874,-23.087,-9.993,-12.893,30.89,0.18784,0.57001,-0.16077,0.78348,757,0.854,-0.017,-0.496,0.0,-0.244,0.0,-178.006,-59.875,-15.26,-28.067,-13.027,12.253,31.94,-0.05075,-0.85992,0.10547,-0.49673,799
200,0.965,-0.159,-0.292,-0.244,0.061,0.061,-151.199,-71.06,-60.485,-29.48,-8.32,0.173,29.57,0.1088,0.75366,-0.27151,0.5885,814,0.993,-0.028,0.167,-0.061,0.488,0.0,-10.305,-80.145,-115.4,-28.213,-10.26,11.08,29.47,0.35809,-0.57959,-0.28497,-0.67419,818,0.948,-0.038,0.29,-0.427,0.427,-0.183,-7.009,-72.46,157.863,-23.087,-9.993,-12.893,30.89,0.18784,0.57001,-0.16077,0.78348,766,0.854,-0.016,-0.497,0.0,-0.061,0.0,-178.006,-59.875,-15.304,-28.067,-13.027,12.253,31.94,-0.05075,-0.85992,0.10547,-0.49673,810
201,0.964,-0.158,-0.292,-0.122,0.061,0.061,-151.199,-71.06,-60.502,-29.48,-8.32,0.173,29.57,0.1088,0.75366,-0.27151,0.5885,815,0.992,-0.028,0.167,-0.122,0.854,-0.061,-10.283,-80.134,-115.422,-28.213,-10.26,11.08,29.47,0.35809,-0.57959,-0.28497,-0.67419,819,0.95,-0.039,0.291,-0.488,0.916,-0.305,-6.998,-72.455,157.835,-23.087,-9.993,-12.893,30.89,0.18784,0.57001,-0.16077,0.78348,767,0.854,-0.016,-0.498,-0.122,0.0,0.0,-178.011,-59.875,-15.348,-28.067,-13.027,12.253,31.94,-0.05075,-0.85992,0.10547,-0.49673,811
202,0.964,-0.159,-0.292,-0.183,0.061,0.061,-151.199,-71.06,-60.507,-29.48,-8.32,0.173,29.57,0.1088,0.75366,-0.27151,0.5885,820,0.992,-0.028,0.169,-0.305,1.038,-0.244,-10.25,-80.118,-115.455,-28.213,-10.26,11.08,29.47,0.35834,-0.57864,-0.28445,-0.67508,828,0.948,-0.037,0.299,0.061,0.793,-0.488,-6.976,-72.438,157.791,-23.087,-9.993,-12.893,30.89,0.18784,0.57001,-0.16077,0.78348,770,0.854,-0.016,-0.497,-0.122,0.0,0.0,-178.011,-59.875,-15.392,-28.067,-13.027,12.253,31.94,-0.05075,-0.85992,0.10547,-0.49673,822
203,0.965,-0.159,-0.292,-0.122,0.183,0.122,-151.194,-71.06,-60.524,-29.48,-8.32,0.173,29.57,0.1088,0.75366,-0.27151,0.5885,821,0.991,-0.027,0.169,-0.366,1.282,-0.305,-10.195,-80.101,-115.51,-28.213,-10.26,11.08,29.47,0.35834,-0.57864,-0.28445,-0.67508,829,0.945,-0.034,0.302,0.671,0.305,-0.122,-6.949,-72.433,157.753,-23.087,-9.993,-12.893,30.89,0.18784,0.57001,-0.16077,0.78348,771,0.854,-0.016,-0.497,-0.122,0.122,0.0,-178.017,-59.875,-15.436,-28.067,-13.027,12.253,31.94,-0.05075,-0.85992,0.10547,-0.49673,823
204,0.965,-0.16,-0.292,-0.061,0.244,0.122,-151.188,-71.06,-60.551,-29.48,-8.32,0.173,29.57,0.10886,0.7536,-0.27243,0.58813,832,0.99,-0.027,0.172,-0.183,1.16,-0.183,-10.135,-80.079,-115.565,-28.213,-10.26,11.08,29.47,0.35834,-0.57864,-0.28445,-0.67508,830,0.944,-0.034,0.302,0.549,-0.244,0.244,-6.932,-72.427,157.742,-23.087,-9.993,-12.893,30.89,0.18784,0.57001,-0.16077,0.78348,780,0.854,-0.016,-0.498,-0.061,0.183,0.0,-178.017,-59.881,-15.474,-28.067,-13.027,12.253,31.94,-0.05075,-0.85992,0.10547,-0.49673,824
205,0.965,-0.16,-0.292,-0.183,0.244,0.122,-151.177,-71.06,-60.579,-29.48,-8.32,0.173,29.57,0.10886,0.7536,-0.27243,0.58813,833,0.988,-0.028,0.175,-0.122,0.977,-0.122,-10.091,-80.057,-115.615,-28.213,-10.26,11.08,29.47,0.35834,-0.57864,-0.28445,-0.67508,831,0.945,-0.036,0.298,0.061,0.0,0.183,-6.938,-72.433,157.764,-23.087,-9.993,-12.893,30.89,0.18784,0.57001,-0.16077,0.78348,781,0.854,-0.016,-0.496,0.0,0.244,0.0,-178.022,-59.881,-15.518,-28.067,-13.027,12.253,31.94,-0.05075,-0.85992,0.10547,-0.49673,825
206,0.965,-0.16,-0.292,-0.122,0.122,0.061,-151.172,-71.065,-60.601,-29.48,-8.32,0.173,29.57,0.10886,0.7536,-0.27243,0.58813,838,0.988,-0.028,0.175,-0.244,0.732,-0.122,-10.058,-80.041,-115.653,-28.213,-10.26,11.08,29.47,0.35834,-0.57864,-0.28445,-0.67508,848,0.945,-0.037,0.298,-0.061,0.0,0.061,-6.949,-72.433,157.797,-23.087,-9.993,-12.893,30.89,0.18784,0.57001,-0.16077,0.78348,790,0.854,-0.016,-0.496,-0.061,0.244,0.0,-178.022,-59.886,-15.557,-28.067,-13.027,12.253,31.94,-0.05075,-0.85992,0.10547,-0.49673,834
207,0.964,-0.16,-0.291,-0.183,0.183,0.061,-151.172,-71.065,-60.617,-29.48,-8.32,0.173,29.57,0.10886,0.7536,-0.27243,0.58813,839,0.988,-0.027,0.176,-0.122,0.549,-0.122,-10.025,-80.03,-115.692,-28.213,-10.26,11.08,29.47,0.35834,-0.57864,-0.28445,-0.67508,849,0.944,-0.036,0.298,-0.244,-0.183,0.0,-6.954,-72.433,157.808,-23.087,-9.993,-12.893,30.89,0.18784,0.57001,-0.16077,0.78348,791,0.854,-0.016,-0.496,-0.122,0.183,0.0,-178.028,-59.892,-15.601,-28.067,-13.027,12.253,31.94,-0.05075,-0.85992,0.10547,-0.49673,835
208,0.965,-0.16,-0.29,-0.183,0.122,0.122,-151.166,-71.065,-60.639,-29.48,-8.32,0.173,29.57,0.10886,0.7536,-0.27243,0.58813,842,0.989,-0.027,0.176,-0.122,0.671,-0.061,-9.998,-80.019,-115.73,-28.213,-10.26,11.08,29.47,0.35834,-0.57864,-0.28445,-0.67508,850,0.947,-0.037,0.297,-0.366,-0.061,0.122,-6.96,-72.438,157.791,-23.1,-10.107,-13.667,30.89,0.18784,0.57001,-0.16077,0.78348,800,0.854,-0.017,-0.495,-0.061,0.122,0.0,-178.028,-59.892,-15.639,-28.067,-13.027,12.253,31.94,-0.05075,-0.85992,0.10547,-0.49673,840
209,0.965,-0.159,-0.291,-0.122,0.0,0.122,-151.166,-71.065,-60.661,-29.48,-8.32,0.173,29.57,0.10886,0.7536,-0.27243,0.58813,843,0.989,-0.027,0.176,-0.244,0.671,-0.061,-9.97,-80.002,-115.768,-28.213,-10.26,11.08,29.47,0.35834,-0.57864,-0.28445,-0.67508,851,0.95,-0.038,0.295,-0.244,0.061,0.122,-6.976,-72.438,157.786,-23.1,-10.107,-13.667,30.89,0.18784,0.57001,-0.16077,0.78348,801,0.854,-0.017,-0.494,0.0,0.122,0.0,-178.028,-59.892,-15.677,-28.067,-13.027,12.253,31.94,-0.05075,-0.85992,0.10547,-0.49673,841
210,0.965,-0.159,-0.291,-0.061,0.0,0.122,-151.161,-71.065,-60.677,-29.48,-8.32,0.173,29.57,0.10886,0.7536,-0.27243,0.58813,856,0.989,-0.027,0.176,-0.305,0.671,-0.061,-9.943,-79.991,-115.801,-28.213,-10.26,11.08,29.47,0.35834,-0.57864,-0.28445,-0.67508,854,0.95,-0.036,0.292,-0.122,0.0,0.061,-6.987,-72.438,157.775,-23.1,-10.107,-13.667,30.89,0.18784,0.57001,-0.16077,0.78348,812,0.854,-0.016,-0.494,0.0,0.122,0.0,-178.028,-59.897,-15.716,-27.787,-12.987,11.973,31.94,-0.05075,-0.85992,0.10547,-0.49673,852
211,0.965,-0.16,-0.29,-0.061,0.0,0.122,-151.161,-71.06,-60.699,-29.48,-8.32,0.173,29.57,0.10886,0.7536,-0.27243,0.58813,857,0.989,-0.028,0.176,-0.244,0.671,-0.061,-9.915,-79.975,-115.834,-28.213,-10.26,11.08,29.47,0.35834,-0.57864,-0.28445,-0.67508,855,0.95,-0.036,0.292,-0.183,0.061,0.0,-6.993,-72.438,157.758,-23.1,-10.107,-13.667,30.89,0.18784,0.57001,-0.16077,0.78348,813,0.854,-0.016,-0.493,0.0,0.122,0.0,-178.028,-59.897,-15.754,-27.787,-12.987,11.973,31.94,-0.05075,-0.85992,0.10547,-0.49673,853
212,0.964,-0.16,-0.291,-0.061,0.0,0.061,-151.155,-71.06,-60.716,-29.48,-8.32,0.173,29.57,0.10886,0.7536,-0.27243,0.58813,864,0.989,-0.028,0.176,-0.305,0.61,-0.183,-9.888,-79.964,-115.878,-28.213,-10.26,11.08,29.47,0.35834,-0.57864,-0.28445,-0.67508,868,0.952,-0.036,0.292,-0.305,0.488,-0.061,-6.993,-72.433,157.72,-23.1,-10.107,-13.667,30.89,0.1907,0.56918,-0.16205,0.78314,816,0.854,-0.016,-0.494,0.0,0.061,0.0,-178.033,-59.897,-15.793,-27.787,-12.987,11.973,31.94,-0.05389,-0.85922,0.11063,-0.49646,858
213,0.965,-0.16,-0.291,-0.122,0.0,0.061,-151.155,-71.06,-60.732,-29.48,-8.32,0.173,29.57,0.10886,0.7536,-0.27243,0.58813,865,0.989,-0.028,0.176,-0.244,0.427,-0.183,-9.849,-79.953,-115.922,-28.213,-10.26,11.08,29.47,0.35834,-0.57864,-0.28445,-0.67508,869,0.951,-0.037,0.294,-0.244,0.488,-0.061,-6.993,-72.427,157.687,-23.1,-10.107,-13.667,30.89,0.1907,0.56918,-0.16205,0.78314,817,0.854,-0.016,-0.494,0.0,0.061,0.0,-178.033,-59.903,-15.831,-27.787,-12.987,11.973,31.94,-0.05389,-0.85922,0.11063,-0.49646,859
214,0.964,-0.16,-0.291,-0.183,0.0,0.0,-151.155,-71.06,-60.743,-29.48,-8.32,0.173,29.57,0.10886,0.7536,-0.27243,0.58813,870,0.989,-0.028,0.176,-0.183,0.61,-0.244,-9.811,-79.942,-115.972,-28.213,-10.26,11.08,29.47,0.35834,-0.57864,-0.28445,-0.67508,874,0.951,-0.036,0.29,-0.183,0.122,0.0,-6.993,-72.422,157.659,-23.1,-10.107,-13.667,30.89,0.1907,0.56918,-0.16205,0.78314,826,0.855,-0.016,-0.494,0.0,0.0,0.0,-178.033,-59.903,-15.87,-27.787,-12.987,11.973,31.94,-0.05389,-0.85922,0.11063,-0.49646,866
215,0.964,-0.161,-0.291,-0.122,0.0,0.0,-151.161,-71.06,-60.754,-29.48,-8.32,0.173,29.57,0.10886,0.7536,-0.27243,0.58813,871,0.989,-0.028,0.176,-0.122,0.732,-0.366,-9.761,-79.926,-116.032,-28.213,-10.26,11.08,29.47,0.35834,-0.57864,-0.28445,-0.67508,875,0.95,-0.038,0.292,-0.549,0.793,-0.183,-6.993,-72.422,157.648,-23.1,-10.107,-13.667,30.89,0.1907,0.56918,-0.16205,0.78314,827,0.854,-0.017,-0.494,0.0,0.061,0.0,-178.033,-59.903,-15.908,-27.787,-12.987,11.973,31.94,-0.05389,-0.85922,0.11063,-0.49646,867
216,0.964,-0.16,-0.291,-0.122,0.0,0.0,-151.161,-71.06,-60.765,-29.48,-8.32,0.173,29.57,0.10886,0.7536,-0.27243,0.58813,878,0.988,-0.028,0.177,-0.183,0.61,-0.427,-9.701,-79.915,-116.098,-28.213,-10.26,11.08,29.47,0.35834,-0.57864,-0.28445,-0.67508,876,0.95,-0.036,0.293,-0.671,0.61,-0.427,-6.987,-72.411,157.621,-23.1,-10.107,-13.667,30.89,0.1907,0.56918,-0.16205,0.78314,836,0.854,-0.018,-0.494,-0.061,0.0,0.0,-178.033,-59.903,-15.941,-27.787,-12.987,11.973,31.94,-0.05389,-0.85922,0.11063,-0.49646,880
217,0.965,-0.16,-0.292,-0.061,0.0,0.0,-151.166,-71.054,-60.782,-29.48,-8.32,0.173,29.57,0.10886,0.7536,-0.27243,0.58813,879,0.988,-0.028,0.179,-0.183,0.427,-0.488,-9.635,-79.904,-116.175,-28.213,-10.26,11.08,29.47,0.35834,-0.57864,-0.28445,-0.67508,877,0.948,-0.035,0.295,-0.549,0.854,-0.61,-6.965,-72.4,157.571,-23.1,-10.107,-13.667,30.89,0.1907,0.56918,-0.16205,0.78314,837,0.854,-0.017,-0.495,0.0,0.122,0.0,-178.039,-59.908,-15.98,-27.787,-12.987,11.973,31.94,-0.05389,-0.85922,0.11063,-0.49646,881
218,0.966,-0.16,-0.292,-0.061,-0.122,0.0,-151.166,-71.054,-60.787,-29.347,-8.253,0.213,29.57,0.10886,0.7536,-0.27243,0.58813,886,0.989,-0.026,0.179,-0.244,0.305,-0.488,-9.569,-79.898,-116.241,-28.3,-10.12,10.48,29.47,0.35834,-0.57864,-0.28445,-0.67508,890,0.946,-0.034,0.298,-0.305,0.732,-0.427,-6.938,-72.389,157.511,-23.1,-10.107,-13.667,30.89,0.1907,0.56918,-0.16205,0.78314,844,0.854,-0.017,-0.495,0.0,0.122,0.0,-178.039,-59.908,-16.013,-27.787,-12.987,11.973,31.94,-0.05389,-0.85922,0.11063,-0.49646,882
219,0.966,-0.16,-0.292,-0.122,-0.061,0.0,-151.172,-71.054,-60.798,-29.347,-8.253,0.213,29.57,0.10886,0.7536,-0.27243,0.58813,887,0.989,-0.026,0.177,-0.183,0.061,-0.488,-9.509,-79.893,-116.318,-28.3,-10.12,10.48,29.47,0.35834,-0.57864,-0.28445,-0.67508,891,0.945,-0.035,0.3,-0.183,0.488,-0.244,-6.91,-72.378,157.445,-23.1,-10.107,-13.667,30.89,0.1907,0.56918,-0.16205,0.78314,845,0.854,-0.017,-0.494,-0.061,0.0,0.0,-178.039,-59.908,-16.046,-27.787,-12.987,11.973,31.94,-0.05389,-0.85922,0.11063,-0.49646,883
220,0.966,-0.159,-0.292,-0.122,-0.122,0.0,-151.177,-71.049,-60.804,-29.347,-8.253,0.213,29.57,0.10886,0.7536,-0.27243,0.58813,892,0.99,-0.026,0.177,-0.061,0.0,-0.488,-9.448,-79.893,-116.4,-28.3,-10.12,10.48,29.47,0.35757,-0.57709,-0.28348,-0.67722,896,0.945,-0.036,0.299,-0.244,0.305,-0.244,-6.899,-72.372,157.418,-23.1,-10.107,-13.667,30.89,0.1907,0.56918,-0.16205,0.78314,846,0.854,-0.017,-0.495,-0.061,0.0,0.0,-178.039,-59.908,-16.084,-27.787,-12.987,11.973,31.94,-0.05389,-0.85922,0.11063,-0.49646,888
221,0.964,-0.159,-0.291,-0.183,-0.122,0.0,-151.183,-71.049,-60.815,-29.347,-8.253,0.213,29.57,0.10886,0.7536,-0.27243,0.58813,893,0.989,-0.025,0.177,0.0,-0.122,-0.488,-9.388,-79.893,-116.466,-28.3,-10.12,10.48,29.47,0.35757,-0.57709,-0.28348,-0.67722,897,0.945,-0.035,0.299,-0.183,0.427,-0.305,-6.883,-72.372,157.39,-23.1,-10.107,-13.667,30.89,0.1907,0.56918,-0.16205,0.78314,847,0.854,-0.016,-0.494,-0.122,-0.061,0.0,-178.044,-59.908,-16.117,-27.787,-12.987,11.973,31.94,-0.05389,-0.85922,0.11063,-0.49646,889
222,0.963,-0.159,-0.29,-0.183,-0.061,0.0,-151.188,-71.043,-60.82,-29.347,-8.253,0.213,29.57,0.11023,0.75296,-0.27429,0.58783,904,0.991,-0.026,0.173,-0.122,0.122,-0.427,-9.333,-79.893,-116.526,-28.3,-10.12,10.48,29.47,0.35757,-0.57709,-0.28348,-0.67722,902,0.946,-0.035,0.299,-0.427,0.427,-0.366,-6.866,-72.361,157.346,-23.1,-10.107,-13.667,30.89,0.1907,0.56918,-0.16205,0.78314,860,0.854,-0.016,-0.496,-0.061,0.0,0.0,-178.044,-59.908,-16.15,-27.787,-12.987,11.973,31.94,-0.05389,-0.85922,0.11063,-0.49646,898
223,0.964,-0.159,-0.292,-0.122,-0.122,0.0,-151.199,-71.043,-60.826,-29.347,-8.253,0.213,29.57,0.11023,0.75296,-0.27429,0.58783,905,0.993,-0.024,0.175,-0.061,0.671,-0.366,-9.272,-79.887,-116.587,-28.3,-10.12,10.48,29.47,0.35757,-0.57709,-0.28348,-0.67722,903,0.946,-0.036,0.299,-0.61,0.671,-0.488,-6.844,-72.356,157.291,-23.1,-10.107,-13.667,30.89,0.1907,0.56918,-0.16205,0.78314,861,0.854,-0.015,-0.495,0.0,-0.061,0.0,-178.044,-59.908,-16.183,-27.787,-12.987,11.973,31.94,-0.05389,-0.85922,0.11063,-0.49646,899
224,0.967,-0.16,-0.292,-0.061,0.0,0.0,-151.205,-71.043,-60.837,-29.347,-8.253,0.213,29.57,0.11023,0.75296,-0.27429,0.58783,910,0.991,-0.023,0.175,-0.122,0.244,-0.183,-9.229,-79.876,-116.642,-28.3,-10.12,10.48,29.47,0.35757,-0.57709,-0.28348,-0.67722,916,0.946,-0.037,0.299,-0.549,0.549,-0.488,-6.823,-72.345,157.231,-23.1,-10.107,-13.667,30.89,0.1907,0.56918,-0.16205,0.78314,862,0.854,-0.016,-0.494,0.0,0.0,0.0,-178.044,-59.908,-16.216,-27.787,-12.987,11.973,31.94,-0.05389,-0.85922,0.11063,-0.49646,906
225,0.967,-0.159,-0.292,0.061,0.366,0.0,-151.199,-71.043,-60.848,-29.347,-8.253,0.213,29.57,0.11023,0.75296,-0.27429,0.58783,911,0.987,-0.021,0.177,0.0,0.0,0.0,-9.207,-79.871,-116.675,-28.3,-10.12,10.48,29.47,0.35757,-0.57709,-0.28348,-0.67722,917,0.946,-0.037,0.299,-0.671,0.488,-0.549,-6.801,-72.339,157.159,-23.1,-10.107,-13.667,30.89,0.1907,0.56918,-0.16205,0.78314,863,0.854,-0.017,-0.496,-0.061,0.061,0.0,-178.044,-59.908,-16.249,-27.787,-12.987,11.973,31.94,-0.05389,-0.85922,0.11063,-0.49646,907
226,0.966,-0.157,-0.292,0.061,0.366,0.0,-151.188,-71.049,-60.87,-29.347,-8.253,0.213,29.57,0.11023,0.75296,-0.27429,0.58783,918,0.987,-0.023,0.18,0.061,-0.061,0.0,-9.19,-79.871,-116.691,-28.3,-10.12,10.48,29.47,0.35757,-0.57709,-0.28348,-0.67722,922,0.946,-0.037,0.299,-0.671,0.61,-0.61,-6.773,-72.328,157.094,-23.1,-10.107,-13.667,30.89,0.1907,0.56918,-0.16205,0.78314,872,0.854,-0.015,-0.495,0.0,0.0,0.0,-178.05,-59.908,-16.282,-27.88,-12.847,12.373,31.94,-0.05389,-0.85922,0.11063,-0.49646,912
227,0.964,-0.157,-0.292,-0.122,0.061,0.0,-151.188,-71.054,-60.886,-29.347,-8.253,0.213,29.57,0.11023,0.75296,-0.27429,0.58783,919,0.986,-0.024,0.18,-0.061,-0.183,-0.122,-9.174,-79.876,-116.73,-28.3,-10.12,10.48,29.47,0.35757,-0.57709,-0.28348,-0.67722,923,0.946,-0.036,0.298,-0.549,0.488,-0.549,-6.751,-72.323,157.061,-23.1,-10.107,-13.667,30.89,0.1907,0.56918,-0.16205,0.78314,873,0.854,-0.014,-0.495,0.0,-0.061,0.0,-178.05,-59.908,-16.315,-27.88,-12.847,12.373,31.94,-0.05389,-0.85922,0.11063,-0.49646,913
228,0.963,-0.158,-0.292,-0.122,-0.183,0.0,-151.194,-71.049,-60.892,-29.347,-8.253,0.213,29.57,0.11023,0.75296,-0.27429,0.58783,930,0.985,-0.024,0.181,0.0,-0.366,-0.122,-9.146,-79.876,-116.763,-28.3,-10.12,10.48,29.47,0.35757,-0.57709,-0.28348,-0.67722,928,0.947,-0.037,0.297,-0.488,0.488,-0.61,-6.724,-72.312,157.044,-23.1,-10.107,-13.667,30.89,0.1907,0.56918,-0.16205,0.78314,884,0.854,-0.015,-0.493,0.0,-0.183,0.0,-178.05,-59.903,-16.342,-27.88,-12.847,12.373,31.94,-0.05389,-0.85922,0.11063,-0.49646,924
229,0.964,-0.159,-0.291,-0.122,-0.244,0.0,-151.205,-71.043,-60.897,-29.347,-8.253,0.213,29.57,0.11023,0.75296,-0.27429,0.58783,931,0.986,-0.024,0.182,-0.061,-0.427,0.0,-9.135,-79.882,-116.768,-28.3,-10.12,10.48,29.47,0.35757,-0.57709,-0.28348,-0.67722,929,0.945,-0.037,0.3,-0.488,0.61,-0.671,-6.691,-72.307,157.05,-23.1,-10.107,-13.667,30.89,0.1907,0.56918,-0.16205,0.78314,885,0.854,-0.015,-0.492,0.0,-0.244,0.0,-178.055,-59.903,-16.375,-27.88,-12.847,12.373,31.94,-0.05389,-0.85922,0.11063,-0.49646,925
230,0.964,-0.159,-0.291,-0.122,-0.427,0.0,-151.221,-71.038,-60.897,-29.347,-8.253,0.213,29.57,0.11023,0.75296,-0.27429,0.58783,936,0.988,-0.024,0.18,-0.122,-0.488,0.061,-9.13,-79.887,-116.757,-28.3,-10.12,10.48,29.47,0.35757,-0.57709,-0.28348,-0.67722,940,0.945,-0.036,0.302,-0.305,0.183,-0.61,-6.658,-72.301,157.055,-23.1,-10.107,-13.667,30.89,0.1907,0.56918,-0.16205,0.78314,894,0.854,-0.016,-0.492,0.0,-0.305,0.0,-178.055,-59.897,-16.403,-27.88,-12.847,12.373,31.94,-0.05649,-0.85864,0.11493,-0.49619,932
