Index,L5_Acceleration X(g),L5_Acceleration Y(g),L5_Acceleration Z(g),L5_Angular velocity X(°/s),L5_Angular velocity Y(°/s),L5_Angular velocity Z(°/s),L5_Angle X(°),L5_Angle Y(°),L5_Angle Z(°),L5_Magnetic field X(ʯt),L5_Magnetic field Y(ʯt),L5_Magnetic field Z(ʯt),L5_Temperature(℃),L5_Quaternions 0(),L5_Quaternions 1(),L5_Quaternions 2(),L5_Quaternions 3(),L5___orig_idx,T4_Acceleration X(g),T4_Acceleration Y(g),T4_Acceleration Z(g),T4_Angular velocity X(°/s),T4_Angular velocity Y(°/s),T4_Angular velocity Z(°/s),T4_Angle X(°),T4_Angle Y(°),T4_Angle Z(°),T4_Magnetic field X(ʯt),T4_Magnetic field Y(ʯt),T4_Magnetic field Z(ʯt),T4_Temperature(℃),T4_Quaternions 0(),T4_Quaternions 1(),T4_Quaternions 2(),T4_Quaternions 3(),T4___orig_idx,C7_Acceleration X(g),C7_Acceleration Y(g),C7_Acceleration Z(g),C7_Angular velocity X(°/s),C7_Angular velocity Y(°/s),C7_Angular velocity Z(°/s),C7_Angle X(°),C7_Angle Y(°),C7_Angle Z(°),C7_Magnetic field X(ʯt),C7_Magnetic field Y(ʯt),C7_Magnetic field Z(ʯt),C7_Temperature(℃),C7_Quaternions 0(),C7_Quaternions 1(),C7_Quaternions 2(),C7_Quaternions 3(),C7___orig_idx,T12_Acceleration X(g),T12_Acceleration Y(g),T12_Acceleration Z(g),T12_Angular velocity X(°/s),T12_Angular velocity Y(°/s),T12_Angular velocity Z(°/s),T12_Angle X(°),T12_Angle Y(°),T12_Angle Z(°),T12_Magnetic field X(ʯt),T12_Magnetic field Y(ʯt),T12_Magnetic field Z(ʯt),T12_Temperature(℃),T12_Quaternions 0(),T12_Quaternions 1(),T12_Quaternions 2(),T12_Quaternions 3(),T12___orig_idx
0,0.94,0.035,-0.388,-0.061,-0.183,-0.305,174.611,-67.731,-25.466,-27.353,-11.627,3.807,24.47,-0.16135,-0.80283,0.20944,-0.53427,0,1.0,-0.088,-0.052,0.061,0.366,-0.122,-119.174,-84.183,-5.328,-29.347,-9.173,17.96,23.89,-0.34833,0.6553,0.30942,0.59445,6.0,0.912,-0.047,0.393,0.0,0.671,-0.183,-7.971,-66.517,159.17,-22.347,-10.547,-16.313,26.0,-0.18811,-0.5282,0.15594,-0.81314,4.0,0.843,-0.015,-0.514,-0.122,0.183,-0.061,-178.198,-58.711,-6.383,-26.867,-12.553,14.36,27.23,-0.01346,-0.87054,0.0408,-0.49011,2
1,0.939,0.034,-0.388,0.0,-0.122,-0.183,174.606,-67.725,-25.439,-27.353,-11.627,3.807,24.47,-0.16135,-0.80283,0.20944,-0.53427,1,1.0,-0.087,-0.052,0.183,0.244,0.0,-119.147,-84.183,-5.35,-29.347,-9.173,17.96,23.89,-0.34833,0.6553,0.30942,0.59445,7.0,0.912,-0.047,0.394,-0.061,0.61,0.183,-7.965,-66.506,159.175,-22.347,-10.547,-16.313,26.0,-0.18811,-0.5282,0.15594,-0.81314,5.0,0.842,-0.015,-0.516,0.0,0.061,-0.061,-178.198,-58.711,-6.378,-26.867,-12.553,14.36,27.23,-0.01346,-0.87054,0.0408,-0.49011,3
2,0.94,0.035,-0.388,0.183,0.0,-0.122,174.606,-67.72,-25.428,-27.353,-11.627,3.807,24.47,-0.16135,-0.80283,0.20944,-0.53427,8,1.001,-0.085,-0.053,0.0,0.061,-0.061,-119.152,-84.183,-5.339,-29.347,-9.173,17.96,23.89,-0.34833,0.6553,0.30942,0.59445,14.0,0.912,-0.051,0.393,-0.061,0.488,0.244,-7.971,-66.495,159.192,-23.167,-10.147,-16.34,26.0,-0.18811,-0.5282,0.15594,-0.81314,12.0,0.842,-0.012,-0.516,0.122,0.0,-0.061,-178.204,-58.711,-6.367,-26.867,-12.553,14.36,27.23,-0.01346,-0.87054,0.0408,-0.49011,10
3,0.938,0.037,-0.387,0.366,0.0,0.0,174.611,-67.72,-25.417,-27.353,-11.627,3.807,24.47,-0.16135,-0.80283,0.20944,-0.53427,9,1.0,-0.087,-0.054,-0.061,-0.061,-0.061,-119.18,-84.183,-5.306,-29.347,-9.173,17.96,23.89,-0.34833,0.6553,0.30942,0.59445,15.0,0.912,-0.05,0.393,-0.305,0.366,-0.122,-7.965,-66.489,159.192,-23.167,-10.147,-16.34,26.0,-0.18811,-0.5282,0.15594,-0.81314,13.0,0.843,-0.011,-0.515,0.244,0.0,0.0,-178.198,-58.705,-6.367,-26.867,-12.553,14.36,27.23,-0.01346,-0.87054,0.0408,-0.49011,11
4,0.938,0.035,-0.386,0.122,0.0,0.0,174.617,-67.714,-25.428,-27.353,-11.627,3.807,24.47,-0.16135,-0.80283,0.20944,-0.53427,16,1.0,-0.089,-0.056,0.122,-0.122,0.0,-119.224,-84.183,-5.262,-29.347,-9.173,17.96,23.89,-0.34833,0.6553,0.30942,0.59445,20.0,0.916,-0.048,0.393,-0.671,0.732,-0.183,-7.96,-66.478,159.192,-23.167,-10.147,-16.34,26.0,-0.18805,-0.52731,0.15582,-0.81375,24.0,0.842,-0.014,-0.516,0.244,0.0,0.0,-178.198,-58.705,-6.378,-26.867,-12.553,14.36,27.23,-0.01346,-0.87054,0.0408,-0.49011,18
5,0.938,0.034,-0.386,0.183,0.0,0.0,174.622,-67.714,-25.444,-27.353,-11.627,3.807,24.47,-0.16135,-0.80283,0.20944,-0.53427,17,1.0,-0.087,-0.054,0.183,0.0,0.0,-119.251,-84.183,-5.235,-29.347,-9.173,17.96,23.89,-0.34833,0.6553,0.30942,0.59445,21.0,0.913,-0.052,0.389,-0.244,0.305,-0.122,-7.949,-66.473,159.192,-23.167,-10.147,-16.34,26.0,-0.18805,-0.52731,0.15582,-0.81375,25.0,0.842,-0.014,-0.516,0.427,0.122,0.0,-178.193,-58.705,-6.389,-26.867,-12.553,14.36,27.23,-0.01346,-0.87054,0.0408,-0.49011,19
6,0.938,0.035,-0.386,0.366,0.122,0.0,174.633,-67.714,-25.444,-27.353,-11.627,3.807,24.47,-0.16135,-0.80283,0.20944,-0.53427,28,0.999,-0.088,-0.052,0.122,0.061,0.0,-119.262,-84.183,-5.202,-29.093,-8.813,18.433,23.89,-0.34833,0.6553,0.30942,0.59445,32.0,0.912,-0.049,0.39,0.244,0.061,0.0,-7.938,-66.473,159.219,-23.167,-10.147,-16.34,26.0,-0.18805,-0.52731,0.15582,-0.81375,26.0,0.842,-0.013,-0.515,0.427,0.305,0.0,-178.187,-58.711,-6.411,-26.867,-12.553,14.36,27.23,-0.01346,-0.87054,0.0408,-0.49011,22
7,0.939,0.035,-0.388,0.122,0.244,-0.061,174.633,-67.714,-25.433,-27.353,-11.627,3.807,24.47,-0.16135,-0.80283,0.20944,-0.53427,29,0.999,-0.091,-0.053,-0.061,0.122,-0.122,-119.279,-84.183,-5.169,-29.093,-8.813,18.433,23.89,-0.34833,0.6553,0.30942,0.59445,33.0,0.912,-0.052,0.391,0.244,-0.061,0.122,-7.932,-66.473,159.247,-23.167,-10.147,-16.34,26.0,-0.18805,-0.52731,0.15582,-0.81375,27.0,0.843,-0.014,-0.513,0.244,0.244,0.0,-178.182,-58.711,-6.438,-26.867,-12.553,14.36,27.23,-0.01346,-0.87054,0.0408,-0.49011,23
8,0.939,0.035,-0.387,-0.122,0.122,-0.122,174.628,-67.714,-25.433,-27.007,-11.96,4.36,24.47,-0.16135,-0.80283,0.20944,-0.53427,38,0.999,-0.089,-0.05,-0.244,0.061,-0.244,-119.312,-84.188,-5.131,-29.093,-8.813,18.433,23.89,-0.34857,0.65488,0.30963,0.5947,36.0,0.909,-0.055,0.392,0.061,0.0,-0.061,-7.927,-66.473,159.247,-23.167,-10.147,-16.34,26.0,-0.18805,-0.52731,0.15582,-0.81375,30.0,0.843,-0.016,-0.514,0.122,0.244,0.0,-178.182,-58.716,-6.438,-26.867,-12.553,14.36,27.23,-0.01346,-0.87054,0.0408,-0.49011,34
9,0.939,0.036,-0.388,-0.122,0.061,-0.122,174.622,-67.714,-25.439,-27.007,-11.96,4.36,24.47,-0.16135,-0.80283,0.20944,-0.53427,39,1.0,-0.087,-0.048,-0.305,-0.122,-0.122,-119.361,-84.188,-5.081,-29.093,-8.813,18.433,23.89,-0.34857,0.65488,0.30963,0.5947,37.0,0.908,-0.052,0.395,-0.183,0.305,-0.366,-7.905,-66.473,159.236,-23.167,-10.147,-16.34,26.0,-0.18805,-0.52731,0.15582,-0.81375,31.0,0.843,-0.015,-0.512,0.061,0.183,0.0,-178.182,-58.716,-6.438,-26.867,-12.553,14.36,27.23,-0.01346,-0.87054,0.0408,-0.49011,35
10,0.939,0.035,-0.387,-0.061,0.0,-0.122,174.617,-67.714,-25.45,-27.007,-11.96,4.36,24.47,-0.16061,-0.80334,0.20825,-0.53421,44,0.999,-0.088,-0.049,-0.244,-0.305,0.0,-119.421,-84.183,-5.026,-29.093,-8.813,18.433,23.89,-0.34857,0.65488,0.30963,0.5947,46.0,0.91,-0.048,0.398,-0.549,0.366,-0.427,-7.888,-66.467,159.214,-23.167,-10.147,-16.34,26.0,-0.18805,-0.52731,0.15582,-0.81375,42.0,0.843,-0.015,-0.512,0.0,0.0,0.0,-178.182,-58.716,-6.432,-26.767,-12.553,15.107,27.23,-0.01346,-0.87054,0.0408,-0.49011,40
11,0.938,0.033,-0.386,0.0,-0.061,-0.122,174.617,-67.709,-25.455,-27.007,-11.96,4.36,24.47,-0.16061,-0.80334,0.20825,-0.53421,45,0.999,-0.089,-0.051,-0.061,-0.427,0.122,-119.493,-84.177,-4.966,-29.093,-8.813,18.433,23.89,-0.34857,0.65488,0.30963,0.5947,47.0,0.911,-0.047,0.396,-0.671,0.305,-0.183,-7.883,-66.462,159.219,-23.167,-10.147,-16.34,26.0,-0.18805,-0.52731,0.15582,-0.81375,43.0,0.843,-0.015,-0.512,0.061,-0.061,0.0,-178.182,-58.716,-6.427,-26.767,-12.553,15.107,27.23,-0.01346,-0.87054,0.0408,-0.49011,41
12,0.938,0.033,-0.386,0.0,0.0,-0.061,174.617,-67.709,-25.45,-27.007,-11.96,4.36,24.47,-0.16061,-0.80334,0.20825,-0.53421,54,0.999,-0.089,-0.051,-0.061,-0.427,0.244,-119.553,-84.172,-4.922,-29.093,-8.813,18.433,23.89,-0.34857,0.65488,0.30963,0.5947,52.0,0.91,-0.05,0.395,-0.732,0.0,0.061,-7.894,-66.462,159.23,-23.167,-10.147,-16.34,26.0,-0.18805,-0.52731,0.15582,-0.81375,50.0,0.843,-0.016,-0.513,0.061,-0.183,0.0,-178.187,-58.711,-6.411,-26.767,-12.553,15.107,27.23,-0.01346,-0.87054,0.0408,-0.49011,48
13,0.938,0.034,-0.385,0.061,-0.061,-0.061,174.617,-67.703,-25.439,-27.007,-11.96,4.36,24.47,-0.16061,-0.80334,0.20825,-0.53421,55,0.999,-0.087,-0.051,-0.122,-0.427,0.244,-119.608,-84.161,-4.878,-29.093,-8.813,18.433,23.89,-0.34857,0.65488,0.30963,0.5947,53.0,0.91,-0.051,0.394,-0.671,-0.061,0.183,-7.905,-66.462,159.236,-23.167,-10.147,-16.34,26.0,-0.18805,-0.52731,0.15582,-0.81375,51.0,0.842,-0.015,-0.513,0.0,-0.244,0.0,-178.187,-58.705,-6.389,-26.767,-12.553,15.107,27.23,-0.01346,-0.87054,0.0408,-0.49011,49
14,0.938,0.035,-0.385,0.061,-0.061,-0.061,174.617,-67.698,-25.395,-27.007,-11.96,4.36,24.47,-0.16061,-0.80334,0.20825,-0.53421,56,1.0,-0.088,-0.054,-0.366,-0.366,0.122,-119.674,-84.155,-4.828,-29.093,-8.813,18.433,23.89,-0.34857,0.65488,0.30963,0.5947,60.0,0.913,-0.052,0.393,-0.793,0.0,0.0,-7.916,-66.462,159.225,-23.167,-10.147,-16.34,26.0,-0.18805,-0.52731,0.15582,-0.81375,58.0,0.842,-0.014,-0.513,-0.122,-0.244,0.0,-178.193,-58.7,-6.367,-26.767,-12.553,15.107,27.23,-0.01358,-0.87051,0.04083,-0.49011,62
15,0.938,0.036,-0.385,0.0,-0.183,-0.061,174.617,-67.692,-25.345,-27.007,-11.96,4.36,24.47,-0.16061,-0.80334,0.20825,-0.53421,57,1.0,-0.092,-0.055,-0.366,-0.183,0.0,-119.718,-84.155,-4.79,-29.093,-8.813,18.433,23.89,-0.34857,0.65488,0.30963,0.5947,61.0,0.913,-0.054,0.39,-0.977,0.244,-0.305,-7.916,-66.456,159.203,-23.167,-10.147,-16.34,26.0,-0.18805,-0.52731,0.15582,-0.81375,59.0,0.842,-0.014,-0.513,-0.122,-0.183,0.0,-178.193,-58.694,-6.356,-26.767,-12.553,15.107,27.23,-0.01358,-0.87051,0.04083,-0.49011,63
16,0.938,0.035,-0.387,-0.183,-0.183,-0.122,174.617,-67.687,-25.302,-27.007,-11.96,4.36,24.47,-0.16061,-0.80334,0.20825,-0.53421,66,1.0,-0.093,-0.058,-0.183,-0.061,-0.183,-119.762,-84.155,-4.763,-29.093,-8.813,18.433,23.89,-0.34857,0.65488,0.30963,0.5947,70.0,0.916,-0.056,0.388,-0.671,0.183,-0.366,-7.91,-66.456,159.186,-22.7,-10.513,-16.153,26.0,-0.18805,-0.52731,0.15582,-0.81375,64.0,0.842,-0.017,-0.515,-0.122,-0.183,0.0,-178.198,-58.694,-6.35,-26.767,-12.553,15.107,27.23,-0.01358,-0.87051,0.04083,-0.49011,68
17,0.938,0.033,-0.388,-0.061,-0.061,-0.183,174.611,-67.687,-25.258,-27.007,-11.96,4.36,24.47,-0.16061,-0.80334,0.20825,-0.53421,67,1.001,-0.091,-0.059,0.061,0.061,-0.183,-119.784,-84.155,-4.746,-29.093,-8.813,18.433,23.89,-0.34857,0.65488,0.30963,0.5947,71.0,0.916,-0.055,0.387,-0.061,0.0,-0.061,-7.905,-66.456,159.192,-22.7,-10.513,-16.153,26.0,-0.18805,-0.52731,0.15582,-0.81375,65.0,0.842,-0.018,-0.517,-0.061,0.0,0.0,-178.204,-58.689,-6.345,-26.767,-12.553,15.107,27.23,-0.01358,-0.87051,0.04083,-0.49011,69
18,0.938,0.034,-0.39,0.0,0.0,-0.244,174.6,-67.681,-25.219,-27.007,-11.96,4.36,24.47,-0.16061,-0.80334,0.20825,-0.53421,78,1.0,-0.089,-0.058,0.183,0.183,-0.183,-119.784,-84.161,-4.752,-29.093,-8.813,18.433,23.89,-0.34857,0.65488,0.30963,0.5947,76.0,0.916,-0.053,0.386,0.244,0.0,0.061,-7.899,-66.456,159.208,-22.7,-10.513,-16.153,26.0,-0.18805,-0.52731,0.15582,-0.81375,74.0,0.842,-0.017,-0.518,0.0,0.0,0.0,-178.204,-58.689,-6.345,-26.767,-12.553,15.107,27.23,-0.01358,-0.87051,0.04083,-0.49011,72
19,0.938,0.034,-0.39,-0.061,0.122,-0.305,174.589,-67.681,-25.175,-27.007,-11.96,4.36,24.47,-0.16061,-0.80334,0.20825,-0.53421,79,1.0,-0.089,-0.056,0.305,0.305,-0.061,-119.756,-84.161,-4.79,-29.093,-8.813,18.433,23.89,-0.34857,0.65488,0.30963,0.5947,77.0,0.915,-0.052,0.387,0.305,0.305,0.0,-7.894,-66.456,159.219,-22.7,-10.513,-16.153,26.0,-0.18805,-0.52731,0.15582,-0.81375,75.0,0.843,-0.016,-0.519,0.0,0.061,0.0,-178.204,-58.689,-6.345,-26.767,-12.553,15.107,27.23,-0.01358,-0.87051,0.04083,-0.49011,73
20,0.94,0.035,-0.39,0.0,0.244,-0.305,174.578,-67.681,-25.126,-27.007,-11.96,4.36,24.47,-0.16061,-0.80334,0.20825,-0.53421,80,1.0,-0.088,-0.051,0.366,0.244,0.0,-119.729,-84.161,-4.823,-29.093,-8.813,18.433,23.89,-0.34857,0.65488,0.30963,0.5947,86.0,0.91,-0.049,0.391,0.305,0.366,0.183,-7.888,-66.451,159.23,-22.7,-10.513,-16.153,26.0,-0.18747,-0.52731,0.15512,-0.81403,84.0,0.842,-0.016,-0.519,0.0,0.061,0.0,-178.204,-58.689,-6.345,-26.767,-12.553,15.107,27.23,-0.01358,-0.87051,0.04083,-0.49011,82
21,0.938,0.033,-0.39,-0.366,0.793,-0.366,174.556,-67.692,-25.087,-27.007,-11.96,4.36,24.47,-0.16061,-0.80334,0.20825,-0.53421,81,0.998,-0.087,-0.051,0.427,0.0,0.122,-119.729,-84.155,-4.828,-29.093,-8.813,18.433,23.89,-0.34857,0.65488,0.30963,0.5947,87.0,0.91,-0.05,0.398,0.244,0.183,0.366,-7.894,-66.451,159.258,-22.7,-10.513,-16.153,26.0,-0.18747,-0.52731,0.15512,-0.81403,85.0,0.842,-0.016,-0.521,-0.549,-0.793,0.0,-178.215,-58.672,-6.345,-26.767,-12.553,15.107,27.23,-0.01358,-0.87051,0.04083,-0.49011,83
22,0.938,0.037,-0.385,0.0,0.549,-0.244,174.54,-67.698,-25.049,-27.007,-11.96,4.36,24.47,-0.16061,-0.80334,0.20825,-0.53421,88,0.999,-0.085,-0.048,0.488,-0.183,0.183,-119.745,-84.15,-4.807,-29.267,-8.753,18.593,23.89,-0.34857,0.65488,0.30963,0.5947,94.0,0.907,-0.049,0.396,0.061,0.061,0.488,-7.905,-66.445,159.296,-22.7,-10.513,-16.153,26.0,-0.18747,-0.52731,0.15512,-0.81403,92.0,0.843,-0.013,-0.514,-0.549,-0.854,0.0,-178.226,-58.656,-6.345,-26.767,-12.553,15.107,27.23,-0.01358,-0.87051,0.04083,-0.49011,90
23,0.938,0.036,-0.386,0.122,0.305,-0.183,174.534,-67.703,-25.01,-27.007,-11.96,4.36,24.47,-0.16061,-0.80334,0.20825,-0.53421,89,0.999,-0.085,-0.048,0.61,-0.244,0.244,-119.762,-84.144,-4.785,-29.267,-8.753,18.593,23.89,-0.34857,0.65488,0.30963,0.5947,95.0,0.907,-0.049,0.397,-0.061,-0.061,0.366,-7.921,-66.445,159.318,-22.7,-10.513,-16.153,26.0,-0.18747,-0.52731,0.15512,-0.81403,93.0,0.842,-0.012,-0.512,-0.549,-0.732,0.0,-178.237,-58.634,-6.35,-26.767,-12.553,15.107,27.23,-0.01358,-0.87051,0.04083,-0.49011,91
24,0.939,0.036,-0.385,0.0,0.305,-0.183,174.529,-67.709,-24.977,-27.007,-11.96,4.36,24.47,-0.16061,-0.80334,0.20825,-0.53421,98,0.999,-0.087,-0.05,0.671,-0.427,0.366,-119.795,-84.133,-4.741,-29.267,-8.753,18.593,23.89,-0.34857,0.65488,0.30963,0.5947,102.0,0.91,-0.048,0.397,-0.122,-0.427,0.366,-7.932,-66.451,159.346,-22.7,-10.513,-16.153,26.0,-0.18747,-0.52731,0.15512,-0.81403,100.0,0.842,-0.012,-0.514,-0.427,-0.977,0.0,-178.248,-58.618,-6.35,-26.767,-12.553,15.107,27.23,-0.01358,-0.87051,0.04083,-0.49011,96
25,0.939,0.036,-0.385,-0.061,0.244,-0.122,174.523,-67.709,-24.966,-27.007,-11.96,4.36,24.47,-0.16061,-0.80334,0.20825,-0.53421,99,1.0,-0.09,-0.052,0.854,-0.488,0.488,-119.817,-84.122,-4.697,-29.267,-8.753,18.593,23.89,-0.34857,0.65488,0.30963,0.5947,103.0,0.911,-0.047,0.395,0.0,-0.549,0.549,-7.949,-66.462,159.395,-22.7,-10.513,-16.153,26.0,-0.18747,-0.52731,0.15512,-0.81403,101.0,0.842,-0.013,-0.515,-0.427,-1.099,0.0,-178.259,-58.596,-6.35,-26.767,-12.553,15.107,27.23,-0.01358,-0.87051,0.04083,-0.49011,97
26,0.939,0.036,-0.385,-0.366,0.305,-0.244,174.512,-67.714,-24.966,-27.02,-11.64,4.527,24.47,-0.16061,-0.80334,0.20825,-0.53421,110,0.999,-0.092,-0.053,0.854,-0.488,0.366,-119.855,-84.111,-4.642,-29.267,-8.753,18.593,23.89,-0.34811,0.65555,0.30923,0.59439,108.0,0.912,-0.051,0.393,0.0,-0.61,1.038,-7.987,-66.473,159.461,-22.7,-10.513,-16.153,26.0,-0.18747,-0.52731,0.15512,-0.81403,106.0,0.842,-0.015,-0.514,-0.549,-1.099,0.0,-178.275,-58.574,-6.345,-26.767,-12.553,15.107,27.23,-0.01358,-0.87051,0.04083,-0.49011,104
27,0.938,0.036,-0.385,-0.427,0.183,-0.244,174.49,-67.714,-24.961,-27.02,-11.64,4.527,24.47,-0.16061,-0.80334,0.20825,-0.53421,111,0.999,-0.092,-0.054,0.793,-0.488,0.183,-119.91,-84.106,-4.57,-29.267,-8.753,18.593,23.89,-0.34811,0.65555,0.30923,0.59439,109.0,0.912,-0.058,0.391,0.366,-0.488,1.16,-8.031,-66.478,159.538,-22.7,-10.513,-16.153,26.0,-0.18747,-0.52731,0.15512,-0.81403,107.0,0.841,-0.016,-0.514,-0.427,-0.977,0.0,-178.286,-58.552,-6.345,-26.767,-12.553,15.107,27.23,-0.01358,-0.87051,0.04083,-0.49011,105
28,0.938,0.037,-0.386,-0.122,0.061,-0.244,174.479,-67.714,-24.939,-27.02,-11.64,4.527,24.47,-0.15915,-0.80408,0.2052,-0.5347,116,0.999,-0.089,-0.054,0.61,-0.488,0.122,-119.971,-84.095,-4.493,-29.267,-8.753,18.593,23.89,-0.34811,0.65555,0.30923,0.59439,114.0,0.911,-0.056,0.391,0.427,-0.427,1.038,-8.064,-66.484,159.576,-22.7,-10.513,-16.153,26.0,-0.18747,-0.52731,0.15512,-0.81403,112.0,0.841,-0.015,-0.515,-0.305,-0.793,0.0,-178.292,-58.535,-6.35,-27.1,-12.553,15.053,27.23,-0.01358,-0.87051,0.04083,-0.49011,118
29,0.938,0.037,-0.386,0.061,0.122,-0.244,174.468,-67.714,-24.884,-27.02,-11.64,4.527,24.47,-0.15915,-0.80408,0.2052,-0.5347,117,0.999,-0.087,-0.053,0.366,-0.427,0.122,-120.031,-84.089,-4.427,-29.267,-8.753,18.593,23.89,-0.34811,0.65555,0.30923,0.59439,115.0,0.91,-0.054,0.39,0.305,-0.244,0.793,-8.097,-66.489,159.582,-22.7,-10.513,-16.153,26.0,-0.18747,-0.52731,0.15512,-0.81403,113.0,0.84,-0.014,-0.516,-0.183,-0.671,0.0,-178.297,-58.524,-6.35,-27.1,-12.553,15.053,27.23,-0.01358,-0.87051,0.04083,-0.49011,119
30,0.939,0.036,-0.385,0.061,0.0,-0.244,174.457,-67.709,-24.84,-27.02,-11.64,4.527,24.47,-0.15915,-0.80408,0.2052,-0.5347,126,0.999,-0.087,-0.053,0.244,-0.366,0.122,-120.086,-84.084,-4.367,-29.267,-8.753,18.593,23.89,-0.34811,0.65555,0.30923,0.59439,124.0,0.911,-0.052,0.391,0.0,0.061,0.427,-8.113,-66.484,159.587,-22.7,-10.513,-16.153,26.0,-0.18747,-0.52731,0.15512,-0.81403,122.0,0.841,-0.012,-0.515,-0.183,-0.549,0.0,-178.303,-58.513,-6.35,-27.1,-12.553,15.053,27.23,-0.01419,-0.87134,0.04108,-0.48862,120
31,0.939,0.036,-0.386,0.061,-0.122,-0.183,174.457,-67.709,-24.791,-27.02,-11.64,4.527,24.47,-0.15915,-0.80408,0.2052,-0.5347,127,0.999,-0.09,-0.054,0.183,-0.244,0.183,-120.114,-84.078,-4.34,-29.267,-8.753,18.593,23.89,-0.34811,0.65555,0.30923,0.59439,125.0,0.913,-0.051,0.391,-0.366,0.122,0.305,-8.124,-66.484,159.593,-22.7,-10.513,-16.153,26.0,-0.18747,-0.52731,0.15512,-0.81403,123.0,0.841,-0.012,-0.514,-0.122,-0.427,0.0,-178.308,-58.502,-6.35,-27.1,-12.553,15.053,27.23,-0.01419,-0.87134,0.04108,-0.48862,121
32,0.939,0.036,-0.385,0.0,-0.305,-0.183,174.452,-67.698,-24.747,-27.02,-11.64,4.527,24.47,-0.15915,-0.80408,0.2052,-0.5347,128,1.0,-0.09,-0.055,0.244,-0.183,0.122,-120.135,-84.073,-4.312,-29.267,-8.753,18.593,23.89,-0.34811,0.65555,0.30923,0.59439,134.0,0.912,-0.053,0.39,-0.488,0.244,0.366,-8.146,-66.478,159.609,-22.753,-10.133,-16.64,26.0,-0.18747,-0.52731,0.15512,-0.81403,132.0,0.84,-0.014,-0.515,-0.061,-0.366,0.0,-178.314,-58.497,-6.35,-27.1,-12.553,15.053,27.23,-0.01419,-0.87134,0.04108,-0.48862,130
33,0.939,0.035,-0.387,-0.061,-0.244,-0.183,174.441,-67.692,-24.703,-27.02,-11.64,4.527,24.47,-0.15915,-0.80408,0.2052,-0.5347,129,1.0,-0.089,-0.056,0.122,-0.122,0.061,-120.157,-84.073,-4.29,-29.267,-8.753,18.593,23.89,-0.34811,0.65555,0.30923,0.59439,135.0,0.913,-0.055,0.389,-0.305,0.305,0.366,-8.163,-66.473,159.642,-22.753,-10.133,-16.64,26.0,-0.18747,-0.52731,0.15512,-0.81403,133.0,0.841,-0.013,-0.517,0.061,-0.244,0.0,-178.314,-58.491,-6.35,-27.1,-12.553,15.053,27.23,-0.01419,-0.87134,0.04108,-0.48862,131
34,0.939,0.036,-0.387,0.0,-0.305,-0.122,174.441,-67.681,-24.659,-27.02,-11.64,4.527,24.47,-0.15915,-0.80408,0.2052,-0.5347,140,1.0,-0.089,-0.057,0.0,-0.183,0.0,-120.201,-84.067,-4.257,-29.267,-8.753,18.593,23.89,-0.34811,0.65555,0.30923,0.59439,142.0,0.915,-0.054,0.391,-0.244,0.366,0.122,-8.168,-66.467,159.664,-22.753,-10.133,-16.64,26.0,-0.18564,-0.52753,0.15509,-0.8143,138.0,0.84,-0.013,-0.518,0.061,0.0,0.0,-178.314,-58.491,-6.35,-27.1,-12.553,15.053,27.23,-0.01419,-0.87134,0.04108,-0.48862,136
35,0.938,0.036,-0.387,0.061,-0.183,-0.122,174.441,-67.676,-24.62,-27.02,-11.64,4.527,24.47,-0.15915,-0.80408,0.2052,-0.5347,141,1.0,-0.091,-0.059,0.0,-0.061,-0.061,-120.234,-84.067,-4.235,-29.267,-8.753,18.593,23.89,-0.34811,0.65555,0.30923,0.59439,143.0,0.916,-0.054,0.389,-0.183,0.183,0.0,-8.163,-66.462,159.67,-22.753,-10.133,-16.64,26.0,-0.18564,-0.52753,0.15509,-0.8143,139.0,0.841,-0.013,-0.52,0.183,0.061,0.0,-178.314,-58.491,-6.35,-27.1,-12.553,15.053,27.23,-0.01419,-0.87134,0.04108,-0.48862,137
36,0.939,0.035,-0.386,0.122,-0.061,0.0,174.446,-67.676,-24.582,-27.02,-11.64,4.527,24.47,-0.15915,-0.80408,0.2052,-0.5347,150,1.0,-0.092,-0.059,0.122,0.061,-0.122,-120.251,-84.067,-4.224,-29.267,-8.753,18.593,23.89,-0.34811,0.65555,0.30923,0.59439,148.0,0.915,-0.056,0.388,-0.061,0.366,0.0,-8.163,-66.462,159.686,-22.753,-10.133,-16.64,26.0,-0.18564,-0.52753,0.15509,-0.8143,146.0,0.841,-0.014,-0.519,0.244,0.122,0.0,-178.308,-58.491,-6.356,-27.1,-12.553,15.053,27.23,-0.01419,-0.87134,0.04108,-0.48862,144
37,0.938,0.034,-0.387,0.305,0.0,-0.061,174.452,-67.676,-24.549,-27.02,-11.64,4.527,24.47,-0.15915,-0.80408,0.2052,-0.5347,151,0.999,-0.088,-0.056,0.183,0.305,-0.183,-120.24,-84.073,-4.252,-29.267,-8.753,18.593,23.89,-0.34811,0.65555,0.30923,0.59439,149.0,0.912,-0.056,0.388,0.061,0.244,0.0,-8.157,-66.456,159.714,-22.753,-10.133,-16.64,26.0,-0.18564,-0.52753,0.15509,-0.8143,147.0,0.84,-0.015,-0.519,0.366,0.244,0.0,-178.303,-58.497,-6.356,-27.1,-12.553,15.053,27.23,-0.01419,-0.87134,0.04108,-0.48862,145
38,0.938,0.036,-0.387,0.427,0.061,0.0,174.463,-67.67,-24.51,-27.02,-11.64,4.527,24.47,-0.15915,-0.80408,0.2052,-0.5347,154,1.0,-0.087,-0.053,0.0,0.366,-0.244,-120.218,-84.078,-4.285,-29.267,-8.753,18.593,23.89,-0.34811,0.65555,0.30923,0.59439,158.0,0.911,-0.053,0.389,0.305,0.305,-0.122,-8.141,-66.456,159.714,-22.753,-10.133,-16.64,26.0,-0.18564,-0.52753,0.15509,-0.8143,156.0,0.84,-0.013,-0.518,0.366,0.366,0.0,-178.297,-58.502,-6.356,-27.1,-12.553,15.053,27.23,-0.01419,-0.87134,0.04108,-0.48862,152
39,0.939,0.038,-0.387,0.122,0.0,-0.061,174.463,-67.67,-24.478,-27.02,-11.64,4.527,24.47,-0.15915,-0.80408,0.2052,-0.5347,155,0.998,-0.088,-0.052,-0.183,0.305,-0.305,-120.223,-84.089,-4.296,-29.267,-8.753,18.593,23.89,-0.34811,0.65555,0.30923,0.59439,159.0,0.91,-0.053,0.392,0.244,0.183,-0.305,-8.119,-66.451,159.703,-22.753,-10.133,-16.64,26.0,-0.18564,-0.52753,0.15509,-0.8143,157.0,0.841,-0.011,-0.517,0.183,0.427,0.0,-178.297,-58.508,-6.356,-27.1,-12.553,15.053,27.23,-0.01419,-0.87134,0.04108,-0.48862,153
40,0.939,0.039,-0.388,-0.244,-0.061,0.0,174.463,-67.665,-24.445,-27.02,-11.64,4.527,24.47,-0.15915,-0.80408,0.2052,-0.5347,162,0.999,-0.087,-0.05,-0.183,0.061,-0.305,-120.262,-84.095,-4.274,-29.167,-9.067,18.0,23.89,-0.34811,0.65555,0.30923,0.59439,166.0,0.908,-0.052,0.397,0.0,0.122,-0.488,-8.097,-66.451,159.675,-22.753,-10.133,-16.64,26.0,-0.18564,-0.52753,0.15509,-0.8143,164.0,0.841,-0.012,-0.516,0.122,0.427,0.0,-178.297,-58.519,-6.361,-27.1,-12.553,15.053,27.23,-0.01419,-0.87134,0.04108,-0.48862,160
41,0.939,0.038,-0.387,-0.305,-0.061,0.0,174.457,-67.665,-24.412,-27.02,-11.64,4.527,24.47,-0.15915,-0.80408,0.2052,-0.5347,163,0.999,-0.085,-0.05,-0.427,-0.061,-0.244,-120.311,-84.095,-4.23,-29.167,-9.067,18.0,23.89,-0.34811,0.65555,0.30923,0.59439,167.0,0.909,-0.051,0.397,-0.305,0.061,-0.488,-8.075,-66.456,159.642,-22.753,-10.133,-16.64,26.0,-0.18564,-0.52753,0.15509,-0.8143,165.0,0.842,-0.012,-0.516,0.122,0.244,0.0,-178.297,-58.519,-6.361,-27.1,-12.553,15.053,27.23,-0.01419,-0.87134,0.04108,-0.48862,161
42,0.939,0.037,-0.387,-0.244,-0.122,0.0,174.452,-67.659,-24.379,-27.02,-11.64,4.527,24.47,-0.15915,-0.80408,0.2052,-0.5347,168,0.999,-0.088,-0.052,-0.488,-0.122,-0.244,-120.377,-84.1,-4.18,-29.167,-9.067,18.0,23.89,-0.34769,0.65598,0.30923,0.59421,172.0,0.911,-0.051,0.396,-0.488,0.0,-0.61,-8.053,-66.456,159.609,-22.753,-10.133,-16.64,26.0,-0.18564,-0.52753,0.15509,-0.8143,170.0,0.841,-0.011,-0.515,0.061,0.122,0.0,-178.303,-58.524,-6.361,-27.1,-12.553,15.053,27.23,-0.01419,-0.87134,0.04108,-0.48862,174
43,0.938,0.037,-0.387,-0.122,-0.061,0.061,174.457,-67.659,-24.351,-27.02,-11.64,4.527,24.47,-0.15915,-0.80408,0.2052,-0.5347,169,0.999,-0.089,-0.054,-0.366,-0.061,-0.305,-120.432,-84.106,-4.136,-29.167,-9.067,18.0,23.89,-0.34769,0.65598,0.30923,0.59421,173.0,0.912,-0.053,0.393,-0.61,0.0,-0.732,-8.026,-66.456,159.571,-22.753,-10.133,-16.64,26.0,-0.18564,-0.52753,0.15509,-0.8143,171.0,0.841,-0.012,-0.516,0.061,0.0,0.0,-178.303,-58.519,-6.361,-27.1,-12.553,15.053,27.23,-0.01419,-0.87134,0.04108,-0.48862,175
44,0.938,0.035,-0.386,0.0,-0.122,0.061,174.463,-67.654,-24.324,-27.273,-11.767,4.54,24.47,-0.15915,-0.80408,0.2052,-0.5347,182,1.0,-0.089,-0.054,-0.244,0.0,-0.183,-120.465,-84.106,-4.109,-29.167,-9.067,18.0,23.89,-0.34769,0.65598,0.30923,0.59421,180.0,0.912,-0.052,0.391,-0.488,0.0,-0.61,-8.004,-66.462,159.538,-22.753,-10.133,-16.64,26.0,-0.18564,-0.52753,0.15509,-0.8143,176.0,0.841,-0.014,-0.516,0.122,-0.122,0.0,-178.303,-58.519,-6.361,-26.773,-12.4,15.393,27.23,-0.01419,-0.87134,0.04108,-0.48862,178
45,0.939,0.035,-0.386,-0.183,0.0,0.0,174.457,-67.654,-24.291,-27.273,-11.767,4.54,24.47,-0.15915,-0.80408,0.2052,-0.5347,183,1.001,-0.088,-0.054,-0.061,0.0,-0.122,-120.487,-84.111,-4.092,-29.167,-9.067,18.0,23.89,-0.34769,0.65598,0.30923,0.59421,181.0,0.913,-0.052,0.391,-0.244,0.061,-0.366,-7.987,-66.462,159.494,-22.753,-10.133,-16.64,26.0,-0.18564,-0.52753,0.15509,-0.8143,177.0,0.841,-0.014,-0.519,0.122,-0.183,0.0,-178.303,-58.513,-6.361,-26.773,-12.4,15.393,27.23,-0.01419,-0.87134,0.04108,-0.48862,179
46,0.939,0.035,-0.387,-0.366,0.305,0.0,174.452,-67.654,-24.258,-27.273,-11.767,4.54,24.47,-0.15613,-0.80551,0.20068,-0.53519,188,1.0,-0.087,-0.058,-0.122,0.0,0.0,-120.504,-84.111,-4.081,-29.167,-9.067,18.0,23.89,-0.34769,0.65598,0.30923,0.59421,186.0,0.914,-0.05,0.393,0.0,0.0,-0.244,-7.971,-66.462,159.478,-22.753,-10.133,-16.64,26.0,-0.18564,-0.52753,0.15509,-0.8143,184.0,0.841,-0.014,-0.522,0.122,-0.61,0.0,-178.308,-58.497,-6.361,-26.773,-12.4,15.393,27.23,-0.01419,-0.87134,0.04108,-0.48862,190
47,0.94,0.037,-0.389,-0.305,0.427,0.0,174.446,-67.665,-24.225,-27.273,-11.767,4.54,24.47,-0.15613,-0.80551,0.20068,-0.53519,189,1.0,-0.088,-0.057,0.0,0.061,0.061,-120.52,-84.111,-4.081,-29.167,-9.067,18.0,23.89,-0.34769,0.65598,0.30923,0.59421,187.0,0.916,-0.049,0.392,-0.183,-0.061,-0.122,-7.96,-66.462,159.478,-22.753,-10.133,-16.64,26.0,-0.18564,-0.52753,0.15509,-0.8143,185.0,0.84,-0.012,-0.52,0.061,-0.732,0.0,-178.308,-58.486,-6.361,-26.773,-12.4,15.393,27.23,-0.01419,-0.87134,0.04108,-0.48862,191
48,0.939,0.038,-0.389,-0.183,0.549,0.0,174.441,-67.67,-24.192,-27.273,-11.767,4.54,24.47,-0.15613,-0.80551,0.20068,-0.53519,200,0.999,-0.089,-0.054,0.061,0.0,0.305,-120.515,-84.106,-4.098,-29.167,-9.067,18.0,23.89,-0.34769,0.65598,0.30923,0.59421,196.0,0.912,-0.05,0.39,-0.305,-0.122,-0.061,-7.96,-66.467,159.489,-22.167,-10.9,-16.12,26.0,-0.18564,-0.52753,0.15509,-0.8143,194.0,0.84,-0.014,-0.519,0.061,-0.366,0.0,-178.314,-58.469,-6.367,-26.773,-12.4,15.393,27.23,-0.01428,-0.87152,0.04126,-0.48831,192
49,0.939,0.036,-0.388,-0.122,0.427,0.0,174.441,-67.676,-24.159,-27.273,-11.767,4.54,24.47,-0.15613,-0.80551,0.20068,-0.53519,201,0.999,-0.088,-0.054,0.0,0.122,0.305,-120.498,-84.1,-4.125,-29.167,-9.067,18.0,23.89,-0.34769,0.65598,0.30923,0.59421,197.0,0.911,-0.048,0.391,-0.244,-0.183,0.244,-7.965,-66.473,159.505,-22.167,-10.9,-16.12,26.0,-0.18564,-0.52753,0.15509,-0.8143,195.0,0.84,-0.014,-0.518,0.061,-0.244,0.0,-178.314,-58.464,-6.367,-26.773,-12.4,15.393,27.23,-0.01428,-0.87152,0.04126,-0.48831,193
50,0.938,0.036,-0.387,0.0,0.366,0.0,174.441,-67.681,-24.131,-27.273,-11.767,4.54,24.47,-0.15613,-0.80551,0.20068,-0.53519,206,0.999,-0.088,-0.053,-0.122,0.122,0.183,-120.471,-84.1,-4.169,-29.167,-9.067,18.0,23.89,-0.34769,0.65598,0.30923,0.59421,204.0,0.911,-0.053,0.391,-0.183,0.122,0.427,-7.976,-66.473,159.543,-22.167,-10.9,-16.12,26.0,-0.1857,-0.52771,0.15436,-0.8143,202.0,0.84,-0.014,-0.516,0.0,-0.061,0.0,-178.314,-58.458,-6.367,-26.773,-12.4,15.393,27.23,-0.01428,-0.87152,0.04126,-0.48831,198
51,0.937,0.038,-0.387,-0.183,0.305,0.0,174.435,-67.687,-24.099,-27.273,-11.767,4.54,24.47,-0.15613,-0.80551,0.20068,-0.53519,207,0.999,-0.088,-0.052,-0.183,0.061,0.122,-120.454,-84.095,-4.197,-29.167,-9.067,18.0,23.89,-0.34769,0.65598,0.30923,0.59421,205.0,0.91,-0.053,0.392,-0.488,0.244,0.244,-7.993,-66.467,159.571,-22.167,-10.9,-16.12,26.0,-0.1857,-0.52771,0.15436,-0.8143,203.0,0.841,-0.013,-0.517,-0.061,-0.061,0.0,-178.319,-58.453,-6.367,-26.773,-12.4,15.393,27.23,-0.01428,-0.87152,0.04126,-0.48831,199
52,0.938,0.037,-0.385,-0.244,0.122,0.0,174.43,-67.687,-24.071,-27.273,-11.767,4.54,24.47,-0.15613,-0.80551,0.20068,-0.53519,208,0.999,-0.091,-0.053,-0.061,0.061,0.122,-120.443,-84.095,-4.213,-29.167,-9.067,18.0,23.89,-0.34769,0.65598,0.30923,0.59421,214.0,0.91,-0.052,0.394,-0.61,0.366,0.0,-7.998,-66.462,159.598,-22.167,-10.9,-16.12,26.0,-0.1857,-0.52771,0.15436,-0.8143,212.0,0.841,-0.013,-0.514,-0.183,0.0,0.0,-178.325,-58.453,-6.367,-26.773,-12.4,15.393,27.23,-0.01428,-0.87152,0.04126,-0.48831,210
53,0.939,0.036,-0.383,-0.244,0.0,0.0,174.43,-67.681,-24.044,-27.273,-11.767,4.54,24.47,-0.15613,-0.80551,0.20068,-0.53519,209,0.999,-0.089,-0.052,0.0,0.061,0.061,-120.438,-84.095,-4.23,-29.167,-9.067,18.0,23.89,-0.34769,0.65598,0.30923,0.59421,215.0,0.911,-0.053,0.395,-0.488,0.305,0.0,-8.004,-66.456,159.609,-22.167,-10.9,-16.12,26.0,-0.1857,-0.52771,0.15436,-0.8143,213.0,0.84,-0.015,-0.516,-0.122,0.061,0.0,-178.33,-58.453,-6.367,-26.773,-12.4,15.393,27.23,-0.01428,-0.87152,0.04126,-0.48831,211
54,0.938,0.035,-0.383,-0.122,0.0,0.0,174.43,-67.681,-24.016,-27.273,-11.767,4.54,24.47,-0.15613,-0.80551,0.20068,-0.53519,220,0.999,-0.089,-0.052,-0.122,0.061,0.061,-120.427,-84.089,-4.241,-29.167,-9.067,18.0,23.89,-0.34769,0.65598,0.30923,0.59421,222.0,0.911,-0.054,0.393,-0.183,0.061,0.061,-8.004,-66.451,159.626,-22.167,-10.9,-16.12,26.0,-0.1857,-0.52771,0.15436,-0.8143,218.0,0.84,-0.014,-0.517,0.0,0.244,0.0,-178.33,-58.453,-6.367,-26.773,-12.4,15.393,27.23,-0.01428,-0.87152,0.04126,-0.48831,216
55,0.94,0.037,-0.384,0.0,-0.122,0.0,174.43,-67.681,-23.989,-27.273,-11.767,4.54,24.47,-0.15613,-0.80551,0.20068,-0.53519,221,1.0,-0.086,-0.051,0.0,0.0,0.244,-120.421,-84.089,-4.252,-29.167,-9.067,18.0,23.89,-0.34769,0.65598,0.30923,0.59421,223.0,0.911,-0.053,0.394,0.061,0.122,0.122,-8.004,-66.451,159.626,-22.167,-10.9,-16.12,26.0,-0.1857,-0.52771,0.15436,-0.8143,219.0,0.841,-0.015,-0.516,0.0,0.244,0.0,-178.336,-58.458,-6.367,-26.773,-12.4,15.393,27.23,-0.01428,-0.87152,0.04126,-0.48831,217
56,0.94,0.035,-0.387,-0.061,-0.122,0.0,174.43,-67.676,-23.961,-27.273,-11.767,4.54,24.47,-0.15613,-0.80551,0.20068,-0.53519,230,0.999,-0.085,-0.051,0.122,0.0,0.488,-120.394,-84.084,-4.279,-29.087,-8.793,18.187,23.89,-0.34769,0.65598,0.30923,0.59421,228.0,0.909,-0.051,0.396,-0.244,0.183,0.0,-7.998,-66.451,159.648,-22.167,-10.9,-16.12,26.0,-0.1857,-0.52771,0.15436,-0.8143,226.0,0.841,-0.013,-0.517,-0.061,0.183,0.0,-178.336,-58.464,-6.372,-26.773,-12.4,15.393,27.23,-0.01428,-0.87152,0.04126,-0.48831,224
57,0.941,0.036,-0.388,0.0,-0.122,0.0,174.435,-67.67,-23.934,-27.273,-11.767,4.54,24.47,-0.15613,-0.80551,0.20068,-0.53519,231,0.999,-0.088,-0.051,0.183,-0.122,0.549,-120.355,-84.078,-4.318,-29.087,-8.793,18.187,23.89,-0.34769,0.65598,0.30923,0.59421,229.0,0.911,-0.046,0.397,-0.549,0.244,0.122,-8.009,-66.445,159.681,-22.167,-10.9,-16.12,26.0,-0.1857,-0.52771,0.15436,-0.8143,227.0,0.841,-0.012,-0.518,-0.122,0.061,0.0,-178.336,-58.464,-6.372,-26.773,-12.4,15.393,27.23,-0.01428,-0.87152,0.04126,-0.48831,225
58,0.939,0.037,-0.387,0.0,-0.122,0.0,174.435,-67.67,-23.906,-27.273,-11.767,4.54,24.47,-0.15613,-0.80551,0.20068,-0.53519,232,1.0,-0.091,-0.053,0.0,-0.183,0.244,-120.333,-84.067,-4.334,-29.087,-8.793,18.187,23.89,-0.34769,0.65598,0.30923,0.59421,236.0,0.91,-0.048,0.396,-0.671,0.183,0.549,-8.031,-66.44,159.697,-22.167,-10.9,-16.12,26.0,-0.1857,-0.52771,0.15436,-0.8143,234.0,0.84,-0.012,-0.517,-0.366,-0.183,0.366,-178.341,-58.464,-6.378,-26.773,-12.4,15.393,27.23,-0.01428,-0.87152,0.04126,-0.48831,238
59,0.938,0.037,-0.386,-0.427,-0.061,0.0,174.43,-67.665,-23.879,-27.273,-11.767,4.54,24.47,-0.15613,-0.80551,0.20068,-0.53519,233,1.001,-0.093,-0.056,-0.122,-0.244,0.0,-120.35,-84.062,-4.318,-29.087,-8.793,18.187,23.89,-0.34769,0.65598,0.30923,0.59421,237.0,0.91,-0.056,0.395,-0.427,-0.183,0.549,-8.058,-66.44,159.725,-22.167,-10.9,-16.12,26.0,-0.1857,-0.52771,0.15436,-0.8143,235.0,0.839,-0.014,-0.516,-0.305,-0.244,0.305,-178.341,-58.458,-6.389,-26.773,-12.4,15.393,27.23,-0.01428,-0.87152,0.04126,-0.48831,239
60,0.939,0.038,-0.385,-0.366,-0.122,0.0,174.424,-67.659,-23.857,-27.273,-11.767,4.54,24.47,-0.15613,-0.80551,0.20068,-0.53519,242,1.001,-0.092,-0.059,0.061,-0.244,0.0,-120.394,-84.062,-4.268,-29.087,-8.793,18.187,23.89,-0.34723,0.65643,0.30844,0.59436,252.0,0.912,-0.061,0.392,-0.305,-0.488,0.122,-8.069,-66.445,159.741,-22.167,-10.9,-16.12,26.0,-0.1857,-0.52771,0.15436,-0.8143,240.0,0.84,-0.015,-0.519,0.0,-0.244,0.183,-178.336,-58.453,-6.4,-26.773,-12.4,15.393,27.23,-0.01428,-0.87152,0.04126,-0.48831,244
61,0.94,0.034,-0.389,-0.122,0.061,0.0,174.424,-67.659,-23.829,-27.273,-11.767,4.54,24.47,-0.15613,-0.80551,0.20068,-0.53519,243,1.0,-0.091,-0.059,0.366,0.0,0.122,-120.427,-84.056,-4.241,-29.087,-8.793,18.187,23.89,-0.34723,0.65643,0.30844,0.59436,253.0,0.916,-0.056,0.391,0.0,-0.549,-0.122,-8.069,-66.456,159.747,-22.167,-10.9,-16.12,26.0,-0.1857,-0.52771,0.15436,-0.8143,241.0,0.84,-0.016,-0.521,0.122,-0.244,0.122,-178.33,-58.447,-6.405,-26.773,-12.4,15.393,27.23,-0.01428,-0.87152,0.04126,-0.48831,245
62,0.939,0.033,-0.392,0.0,0.122,0.0,174.424,-67.659,-23.802,-27.013,-11.707,4.4,24.47,-0.15613,-0.80551,0.20068,-0.53519,248,1.0,-0.091,-0.057,0.488,0.122,0.183,-120.41,-84.056,-4.252,-29.087,-8.793,18.187,23.89,-0.34723,0.65643,0.30844,0.59436,256.0,0.916,-0.053,0.387,0.366,-0.488,0.061,-8.064,-66.467,159.774,-22.387,-10.307,-15.793,26.0,-0.1857,-0.52771,0.15436,-0.8143,250.0,0.84,-0.016,-0.522,0.122,-0.244,0.061,-178.33,-58.442,-6.411,-26.993,-12.687,15.267,27.23,-0.01428,-0.87152,0.04126,-0.48831,246
63,0.939,0.035,-0.391,0.061,0.061,0.0,174.424,-67.659,-23.78,-27.013,-11.707,4.4,24.47,-0.15613,-0.80551,0.20068,-0.53519,249,1.0,-0.09,-0.055,0.183,0.122,0.122,-120.377,-84.051,-4.285,-29.087,-8.793,18.187,23.89,-0.34723,0.65643,0.30844,0.59436,257.0,0.913,-0.052,0.387,0.549,-0.549,0.366,-8.069,-66.478,159.824,-22.387,-10.307,-15.793,26.0,-0.1857,-0.52771,0.15436,-0.8143,251.0,0.84,-0.016,-0.522,0.122,-0.244,0.122,-178.325,-58.436,-6.416,-26.993,-12.687,15.267,27.23,-0.01428,-0.87152,0.04126,-0.48831,247
64,0.939,0.035,-0.389,0.0,0.0,0.0,174.43,-67.659,-23.752,-27.013,-11.707,4.4,24.47,-0.15613,-0.80551,0.20068,-0.53519,258,0.999,-0.091,-0.053,0.0,0.061,0.0,-120.361,-84.051,-4.307,-29.087,-8.793,18.187,23.89,-0.34723,0.65643,0.30844,0.59436,262.0,0.912,-0.055,0.389,0.427,-0.366,0.366,-8.075,-66.484,159.857,-22.387,-10.307,-15.793,26.0,-0.18387,-0.52811,0.15359,-0.81461,254.0,0.84,-0.015,-0.52,0.061,-0.305,0.061,-178.319,-58.425,-6.422,-26.993,-12.687,15.267,27.23,-0.01428,-0.87152,0.04126,-0.48831,260
65,0.939,0.036,-0.386,0.0,0.0,0.0,174.435,-67.654,-23.73,-27.013,-11.707,4.4,24.47,-0.15613,-0.80551,0.20068,-0.53519,259,0.999,-0.092,-0.051,-0.183,-0.061,-0.183,-120.372,-84.051,-4.301,-29.087,-8.793,18.187,23.89,-0.34723,0.65643,0.30844,0.59436,263.0,0.911,-0.056,0.393,0.122,-0.183,0.061,-8.075,-66.489,159.857,-22.387,-10.307,-15.793,26.0,-0.18387,-0.52811,0.15359,-0.81461,255.0,0.84,-0.014,-0.518,0.0,-0.244,0.122,-178.319,-58.42,-6.422,-26.993,-12.687,15.267,27.23,-0.01428,-0.87152,0.04126,-0.48831,261
66,0.939,0.036,-0.384,-0.122,-0.061,0.0,174.435,-67.654,-23.703,-27.013,-11.707,4.4,24.47,-0.15378,-0.8064,0.19702,-0.53586,270,0.999,-0.092,-0.052,-0.122,-0.244,-0.183,-120.416,-84.051,-4.263,-29.087,-8.793,18.187,23.89,-0.34723,0.65643,0.30844,0.59436,268.0,0.909,-0.057,0.394,0.0,-0.366,-0.183,-8.069,-66.5,159.851,-22.387,-10.307,-15.793,26.0,-0.18387,-0.52811,0.15359,-0.81461,266.0,0.84,-0.015,-0.517,-0.061,-0.244,0.061,-178.314,-58.414,-6.427,-26.993,-12.687,15.267,27.23,-0.01456,-0.87173,0.04178,-0.48788,264
67,0.939,0.035,-0.383,-0.183,-0.061,0.0,174.441,-67.648,-23.681,-27.013,-11.707,4.4,24.47,-0.15378,-0.8064,0.19702,-0.53586,271,0.999,-0.093,-0.055,0.122,-0.122,-0.183,-120.476,-84.051,-4.202,-29.087,-8.793,18.187,23.89,-0.34723,0.65643,0.30844,0.59436,269.0,0.912,-0.056,0.396,0.061,-0.671,-0.366,-8.053,-66.511,159.851,-22.387,-10.307,-15.793,26.0,-0.18387,-0.52811,0.15359,-0.81461,267.0,0.84,-0.016,-0.516,-0.061,-0.244,0.061,-178.314,-58.409,-6.427,-26.993,-12.687,15.267,27.23,-0.01456,-0.87173,0.04178,-0.48788,265
68,0.938,0.034,-0.382,-0.061,-0.122,0.0,174.441,-67.648,-23.659,-27.013,-11.707,4.4,24.47,-0.15378,-0.8064,0.19702,-0.53586,276,0.999,-0.089,-0.055,0.305,0.122,-0.122,-120.498,-84.051,-4.175,-29.087,-8.793,18.187,23.89,-0.34723,0.65643,0.30844,0.59436,278.0,0.913,-0.054,0.392,0.122,-0.61,-0.183,-8.047,-66.528,159.868,-22.387,-10.307,-15.793,26.0,-0.18387,-0.52811,0.15359,-0.81461,274.0,0.84,-0.018,-0.516,-0.061,-0.183,0.0,-178.314,-58.403,-6.432,-26.993,-12.687,15.267,27.23,-0.01456,-0.87173,0.04178,-0.48788,272
69,0.938,0.035,-0.383,0.366,-0.183,0.0,174.446,-67.643,-23.637,-27.013,-11.707,4.4,24.47,-0.15378,-0.8064,0.19702,-0.53586,277,0.999,-0.085,-0.052,0.244,0.366,-0.061,-120.476,-84.051,-4.191,-29.087,-8.793,18.187,23.89,-0.34723,0.65643,0.30844,0.59436,279.0,0.912,-0.055,0.388,0.427,-0.671,-0.061,-8.036,-66.539,159.873,-22.387,-10.307,-15.793,26.0,-0.18387,-0.52811,0.15359,-0.81461,275.0,0.84,-0.015,-0.516,0.244,0.0,-0.061,-178.314,-58.398,-6.432,-26.993,-12.687,15.267,27.23,-0.01456,-0.87173,0.04178,-0.48788,273
70,0.939,0.037,-0.385,0.549,0.0,0.0,174.457,-67.643,-23.615,-27.013,-11.707,4.4,24.47,-0.15378,-0.8064,0.19702,-0.53586,280,0.998,-0.086,-0.052,0.0,0.488,0.0,-120.421,-84.056,-4.246,-29.087,-8.793,18.187,23.89,-0.34723,0.65643,0.30844,0.59436,290.0,0.911,-0.049,0.387,0.61,-0.305,-0.061,-8.026,-66.544,159.89,-22.387,-10.307,-15.793,26.0,-0.18387,-0.52811,0.15359,-0.81461,282.0,0.84,-0.011,-0.517,0.305,0.122,0.0,-178.308,-58.398,-6.432,-26.993,-12.687,15.267,27.23,-0.01456,-0.87173,0.04178,-0.48788,284
71,0.939,0.038,-0.386,0.061,0.0,0.0,174.468,-67.637,-23.588,-27.013,-11.707,4.4,24.47,-0.15378,-0.8064,0.19702,-0.53586,281,0.998,-0.09,-0.05,-0.183,0.549,-0.061,-120.344,-84.062,-4.323,-29.087,-8.793,18.187,23.89,-0.34723,0.65643,0.30844,0.59436,291.0,0.911,-0.048,0.392,0.427,0.0,0.061,-8.015,-66.544,159.911,-22.387,-10.307,-15.793,26.0,-0.18387,-0.52811,0.15359,-0.81461,283.0,0.841,-0.011,-0.516,0.0,0.061,0.061,-178.308,-58.398,-6.432,-26.993,-12.687,15.267,27.23,-0.01456,-0.87173,0.04178,-0.48788,285
72,0.94,0.037,-0.387,-0.244,-0.183,0.0,174.474,-67.637,-23.566,-27.013,-11.707,4.4,24.47,-0.15378,-0.8064,0.19702,-0.53586,288,0.998,-0.092,-0.048,-0.183,0.244,-0.122,-120.284,-84.067,-4.389,-29.087,-8.793,18.187,23.89,-0.34723,0.65643,0.30844,0.59436,296.0,0.908,-0.052,0.392,0.061,0.061,-0.061,-8.009,-66.544,159.95,-22.387,-10.307,-15.793,26.0,-0.18387,-0.52811,0.15359,-0.81461,286.0,0.84,-0.014,-0.516,-0.244,0.0,0.061,-178.308,-58.403,-6.432,-26.993,-12.687,15.267,27.41,-0.01456,-0.87173,0.04178,-0.48788,292
73,0.939,0.036,-0.387,-0.427,-0.244,0.0,174.468,-67.632,-23.544,-27.013,-11.707,4.4,24.47,-0.15378,-0.8064,0.19702,-0.53586,289,1.0,-0.091,-0.05,0.0,0.0,-0.061,-120.262,-84.073,-4.406,-29.087,-8.793,18.187,23.89,-0.34723,0.65643,0.30844,0.59436,297.0,0.908,-0.054,0.396,-0.122,0.0,-0.244,-7.993,-66.544,159.972,-22.387,-10.307,-15.793,26.0,-0.18387,-0.52811,0.15359,-0.81461,287.0,0.84,-0.016,-0.517,-0.366,-0.122,0.061,-178.314,-58.398,-6.438,-26.993,-12.687,15.267,27.41,-0.01456,-0.87173,0.04178,-0.48788,293
74,0.94,0.034,-0.388,-0.366,-0.183,-0.305,174.457,-67.626,-23.522,-27.013,-11.707,4.4,24.47,-0.15378,-0.8064,0.19702,-0.53586,298,1.0,-0.089,-0.054,0.061,0.061,-0.061,-120.262,-84.073,-4.4,-28.94,-8.8,17.74,23.89,-0.34723,0.65643,0.30844,0.59436,304.0,0.909,-0.053,0.397,0.0,-0.122,-0.183,-7.982,-66.55,159.972,-22.387,-10.307,-15.793,26.0,-0.18387,-0.52811,0.15359,-0.81461,294.0,0.84,-0.016,-0.518,-0.305,-0.366,0.061,-178.319,-58.392,-6.443,-26.993,-12.687,15.267,27.41,-0.01456,-0.87173,0.04178,-0.48788,300
75,0.938,0.034,-0.387,-0.183,-0.122,-0.244,174.441,-67.621,-23.483,-27.013,-11.707,4.4,24.47,-0.15378,-0.8064,0.19702,-0.53586,299,1.001,-0.089,-0.055,0.122,0.305,0.0,-120.245,-84.073,-4.411,-28.94,-8.8,17.74,23.89,-0.34723,0.65643,0.30844,0.59436,305.0,0.914,-0.052,0.394,0.305,-0.366,0.0,-7.976,-66.555,159.977,-22.387,-10.307,-15.793,26.0,-0.18387,-0.52811,0.15359,-0.81461,295.0,0.84,-0.015,-0.518,-0.122,-0.549,0.061,-178.325,-58.387,-6.443,-26.993,-12.687,15.267,27.41,-0.01456,-0.87173,0.04178,-0.48788,301
76,0.939,0.034,-0.387,-0.122,-0.183,-0.122,174.435,-67.621,-23.456,-27.013,-11.707,4.4,24.47,-0.15378,-0.8064,0.19702,-0.53586,302,1.0,-0.092,-0.057,0.488,0.488,0.244,-120.179,-84.078,-4.471,-28.94,-8.8,17.74,23.89,-0.34723,0.65643,0.30844,0.59436,310.0,0.914,-0.051,0.387,0.183,0.122,0.0,-7.971,-66.55,159.972,-22.387,-10.307,-15.793,26.0,-0.18387,-0.52811,0.15359,-0.81461,308.0,0.84,-0.014,-0.52,-0.061,-0.61,0.0,-178.325,-58.376,-6.443,-26.993,-12.687,15.267,27.41,-0.01456,-0.87173,0.04178,-0.48788,306
77,0.938,0.035,-0.387,0.0,-0.122,-0.061,174.43,-67.615,-23.428,-27.013,-11.707,4.4,24.47,-0.15378,-0.8064,0.19702,-0.53586,303,1.0,-0.091,-0.057,0.854,0.549,0.488,-120.048,-84.073,-4.592,-28.94,-8.8,17.74,23.89,-0.34723,0.65643,0.30844,0.59436,311.0,0.915,-0.05,0.388,-0.122,0.122,0.122,-7.971,-66.55,159.994,-22.387,-10.307,-15.793,26.0,-0.18387,-0.52811,0.15359,-0.81461,309.0,0.839,-0.016,-0.52,-0.122,-0.549,0.061,-178.325,-58.359,-6.443,-26.993,-12.687,15.267,27.41,-0.01456,-0.87173,0.04178,-0.48788,307
78,0.939,0.035,-0.387,0.244,0.0,0.0,174.435,-67.61,-23.406,-27.013,-11.707,4.4,24.47,-0.15378,-0.8064,0.19702,-0.53586,318,1.0,-0.089,-0.056,0.854,0.488,0.488,-119.91,-84.067,-4.724,-28.94,-8.8,17.74,23.89,-0.34753,0.65619,0.30844,0.59445,316.0,0.916,-0.051,0.388,-0.183,0.0,0.488,-7.993,-66.55,160.032,-22.64,-10.407,-15.953,26.0,-0.18387,-0.52811,0.15359,-0.81461,314.0,0.839,-0.017,-0.521,0.0,-0.366,0.0,-178.33,-58.354,-6.449,-26.993,-12.687,15.267,27.41,-0.01456,-0.87173,0.04178,-0.48788,312
79,0.939,0.036,-0.389,0.366,0.0,-0.061,174.441,-67.61,-23.384,-27.013,-11.707,4.4,24.47,-0.15378,-0.8064,0.19702,-0.53586,319,1.0,-0.09,-0.054,0.732,0.488,0.305,-119.789,-84.067,-4.839,-28.94,-8.8,17.74,23.89,-0.34753,0.65619,0.30844,0.59445,317.0,0.913,-0.052,0.389,0.0,-0.061,0.793,-8.026,-66.55,160.087,-22.64,-10.407,-15.953,26.0,-0.18387,-0.52811,0.15359,-0.81461,315.0,0.839,-0.014,-0.523,0.122,-0.183,0.0,-178.325,-58.343,-6.449,-26.993,-12.687,15.267,27.41,-0.01456,-0.87173,0.04178,-0.48788,313
80,0.938,0.037,-0.389,0.427,0.0,-0.183,174.452,-67.61,-23.357,-27.213,-11.307,4.347,24.47,-0.15378,-0.8064,0.19702,-0.53586,320,1.0,-0.093,-0.054,0.61,0.366,0.122,-119.702,-84.067,-4.927,-28.94,-8.8,17.74,23.89,-0.34753,0.65619,0.30844,0.59445,324.0,0.914,-0.053,0.39,0.183,0.0,0.854,-8.053,-66.55,160.142,-22.64,-10.407,-15.953,26.0,-0.18173,-0.52896,0.15219,-0.81482,322.0,0.839,-0.013,-0.522,0.122,-0.122,0.0,-178.325,-58.343,-6.449,-26.993,-12.687,15.267,27.41,-0.01456,-0.87173,0.04178,-0.48788,326
81,0.938,0.036,-0.39,0.366,0.061,-0.244,174.452,-67.61,-23.329,-27.213,-11.307,4.347,24.47,-0.15378,-0.8064,0.19702,-0.53586,321,0.998,-0.095,-0.052,0.61,0.305,0.0,-119.641,-84.067,-4.988,-28.94,-8.8,17.74,23.89,-0.34753,0.65619,0.30844,0.59445,325.0,0.912,-0.058,0.39,0.488,0.0,0.549,-8.064,-66.544,160.186,-22.64,-10.407,-15.953,26.0,-0.18173,-0.52896,0.15219,-0.81482,323.0,0.839,-0.015,-0.522,0.0,-0.122,0.0,-178.325,-58.337,-6.449,-26.993,-12.687,15.267,27.41,-0.01456,-0.87173,0.04178,-0.48788,327
82,0.939,0.035,-0.389,0.366,0.061,-0.305,174.452,-67.604,-23.291,-27.213,-11.307,4.347,24.47,-0.15378,-0.8064,0.19702,-0.53586,330,0.998,-0.094,-0.05,0.671,0.183,0.0,-119.597,-84.067,-5.021,-28.94,-8.8,17.74,23.89,-0.34753,0.65619,0.30844,0.59445,334.0,0.911,-0.057,0.39,0.732,0.061,0.366,-8.064,-66.544,160.219,-22.64,-10.407,-15.953,26.0,-0.18173,-0.52896,0.15219,-0.81482,328.0,0.839,-0.017,-0.521,0.0,-0.183,-0.061,-178.325,-58.332,-6.449,-26.993,-12.687,15.267,27.41,-0.01456,-0.87173,0.04178,-0.48788,332
83,0.938,0.035,-0.387,0.488,0.0,-0.488,174.446,-67.604,-23.253,-27.213,-11.307,4.347,24.47,-0.15378,-0.8064,0.19702,-0.53586,331,0.998,-0.094,-0.049,0.916,0.183,0.0,-119.553,-84.067,-5.048,-28.94,-8.8,17.74,23.89,-0.34753,0.65619,0.30844,0.59445,335.0,0.909,-0.057,0.394,0.854,0.0,0.488,-8.069,-66.544,160.258,-22.64,-10.407,-15.953,26.0,-0.18173,-0.52896,0.15219,-0.81482,329.0,0.839,-0.017,-0.518,0.061,-0.244,-0.061,-178.33,-58.326,-6.443,-26.993,-12.687,15.267,27.41,-0.01456,-0.87173,0.04178,-0.48788,333
84,0.938,0.035,-0.386,0.61,-0.061,-0.488,174.435,-67.604,-23.209,-27.213,-11.307,4.347,24.47,-0.15143,-0.80746,0.19366,-0.53613,342,0.999,-0.094,-0.049,1.221,0.122,0.061,-119.504,-84.067,-5.081,-28.94,-8.8,17.74,23.89,-0.34753,0.65619,0.30844,0.59445,340.0,0.909,-0.055,0.394,0.977,0.0,0.732,-8.08,-66.544,160.307,-22.64,-10.407,-15.953,26.0,-0.18173,-0.52896,0.15219,-0.81482,338.0,0.839,-0.018,-0.518,0.183,-0.305,-0.183,-178.33,-58.321,-6.443,-26.993,-12.687,15.267,27.41,-0.01456,-0.87173,0.04178,-0.48788,336
85,0.938,0.035,-0.384,0.916,-0.244,-0.488,174.43,-67.599,-23.165,-27.213,-11.307,4.347,24.47,-0.15143,-0.80746,0.19366,-0.53613,343,0.999,-0.094,-0.049,1.587,0.122,0.244,-119.438,-84.062,-5.136,-28.94,-8.8,17.74,23.89,-0.34753,0.65619,0.30844,0.59445,341.0,0.91,-0.056,0.395,0.916,-0.183,0.793,-8.097,-66.544,160.362,-22.64,-10.407,-15.953,26.0,-0.18173,-0.52896,0.15219,-0.81482,339.0,0.84,-0.018,-0.517,0.61,-0.183,-0.305,-178.325,-58.315,-6.432,-26.993,-12.687,15.267,27.41,-0.01456,-0.87173,0.04178,-0.48788,337
86,0.937,0.034,-0.384,1.16,-0.183,-0.488,174.43,-67.588,-23.132,-27.213,-11.307,4.347,24.47,-0.15143,-0.80746,0.19366,-0.53613,350,0.999,-0.093,-0.051,2.014,0.122,0.366,-119.344,-84.056,-5.197,-28.94,-8.8,17.74,23.89,-0.34753,0.65619,0.30844,0.59445,348.0,0.911,-0.055,0.393,1.038,-0.244,0.854,-8.119,-66.55,160.417,-22.64,-10.407,-15.953,26.0,-0.18173,-0.52896,0.15219,-0.81482,346.0,0.839,-0.018,-0.517,0.732,-0.122,-0.427,-178.325,-58.31,-6.416,-26.993,-12.687,15.267,27.41,-0.01456,-0.87173,0.04178,-0.48788,344
87,0.938,0.035,-0.386,1.404,-0.305,-0.488,174.435,-67.582,-23.143,-27.213,-11.307,4.347,24.47,-0.15143,-0.80746,0.19366,-0.53613,351,0.999,-0.092,-0.052,2.136,0.183,0.366,-119.24,-84.051,-5.262,-28.94,-8.8,17.74,23.89,-0.34753,0.65619,0.30844,0.59445,349.0,0.913,-0.055,0.392,1.221,-0.366,1.221,-8.146,-66.55,160.499,-22.64,-10.407,-15.953,26.0,-0.18173,-0.52896,0.15219,-0.81482,347.0,0.839,-0.017,-0.519,1.221,-0.061,-0.549,-178.319,-58.31,-6.416,-26.993,-12.687,15.267,27.41,-0.01456,-0.87173,0.04178,-0.48788,345
88,0.939,0.035,-0.389,1.282,-0.244,-0.488,174.446,-67.577,-23.154,-27.213,-11.307,4.347,24.47,-0.15143,-0.80746,0.19366,-0.53613,352,1.001,-0.09,-0.05,2.38,0.122,0.427,-119.13,-84.045,-5.317,-28.94,-8.8,17.74,23.89,-0.34753,0.65619,0.30844,0.59445,356.0,0.913,-0.056,0.39,1.709,-0.488,1.465,-8.185,-66.555,160.587,-22.64,-10.407,-15.953,26.0,-0.18173,-0.52896,0.15219,-0.81482,354.0,0.839,-0.016,-0.52,1.343,0.0,-0.61,-178.308,-58.31,-6.405,-27.18,-12.587,14.98,27.41,-0.01456,-0.87173,0.04178,-0.48788,358
89,0.939,0.035,-0.39,1.526,-0.244,-0.427,174.457,-67.571,-23.165,-27.213,-11.307,4.347,24.47,-0.15143,-0.80746,0.19366,-0.53613,353,1.0,-0.089,-0.051,2.319,0.0,0.244,-119.042,-84.04,-5.35,-28.94,-8.8,17.74,23.89,-0.34753,0.65619,0.30844,0.59445,357.0,0.912,-0.055,0.392,2.075,-0.732,1.526,-8.212,-66.566,160.653,-22.64,-10.407,-15.953,26.0,-0.18173,-0.52896,0.15219,-0.81482,355.0,0.839,-0.015,-0.521,1.526,0.0,-0.671,-178.297,-58.31,-6.405,-27.18,-12.587,14.98,27.41,-0.01456,-0.87173,0.04178,-0.48788,359
90,0.938,0.037,-0.389,1.526,-0.122,-0.427,174.474,-67.566,-23.165,-27.213,-11.307,4.347,24.47,-0.15143,-0.80746,0.19366,-0.53613,360,1.001,-0.092,-0.053,2.014,-0.122,0.0,-118.998,-84.034,-5.345,-28.94,-8.8,17.74,23.89,-0.34753,0.65619,0.30844,0.59445,366.0,0.915,-0.054,0.392,2.38,-0.854,1.343,-8.229,-66.577,160.724,-22.64,-10.407,-15.953,26.0,-0.18173,-0.52896,0.15219,-0.81482,364.0,0.839,-0.013,-0.522,1.587,0.0,-0.671,-178.286,-58.31,-6.394,-27.18,-12.587,14.98,27.41,-0.01416,-0.87222,0.04144,-0.48706,362
91,0.938,0.039,-0.39,1.16,-0.061,-0.549,174.485,-67.56,-23.165,-27.213,-11.307,4.347,24.47,-0.15143,-0.80746,0.19366,-0.53613,361,1.0,-0.092,-0.053,1.709,-0.183,-0.122,-118.998,-84.034,-5.312,-28.94,-8.8,17.74,23.89,-0.34753,0.65619,0.30844,0.59445,367.0,0.914,-0.055,0.391,2.502,-0.916,1.282,-8.24,-66.594,160.801,-22.64,-10.407,-15.953,26.0,-0.18173,-0.52896,0.15219,-0.81482,365.0,0.839,-0.013,-0.522,1.404,0.0,-0.549,-178.275,-58.304,-6.383,-27.18,-12.587,14.98,27.41,-0.01416,-0.87222,0.04144,-0.48706,363
92,0.937,0.039,-0.389,0.854,-0.061,-0.549,174.479,-67.555,-23.148,-27.213,-11.307,4.347,24.47,-0.15143,-0.80746,0.19366,-0.53613,370,0.999,-0.089,-0.052,1.282,-0.305,-0.244,-119.031,-84.034,-5.246,-28.993,-8.88,18.393,23.89,-0.34753,0.65619,0.30844,0.59445,378.0,0.912,-0.057,0.39,2.258,-0.793,1.099,-8.251,-66.605,160.873,-22.673,-10.24,-15.953,26.0,-0.18173,-0.52896,0.15219,-0.81482,368.0,0.839,-0.015,-0.522,1.16,0.0,-0.61,-178.275,-58.304,-6.372,-27.18,-12.587,14.98,27.41,-0.01416,-0.87222,0.04144,-0.48706,372
93,0.937,0.038,-0.39,0.793,0.0,-0.427,174.474,-67.555,-23.137,-27.213,-11.307,4.347,24.47,-0.15143,-0.80746,0.19366,-0.53613,371,0.998,-0.085,-0.051,0.854,-0.305,-0.244,-119.092,-84.034,-5.158,-28.993,-8.88,18.393,23.89,-0.34753,0.65619,0.30844,0.59445,379.0,0.912,-0.056,0.39,1.77,-0.61,0.671,-8.245,-66.616,160.906,-22.673,-10.24,-15.953,26.0,-0.18173,-0.52896,0.15219,-0.81482,369.0,0.839,-0.013,-0.521,0.977,0.0,-0.61,-178.275,-58.304,-6.35,-27.18,-12.587,14.98,27.41,-0.01416,-0.87222,0.04144,-0.48706,373
94,0.938,0.037,-0.389,0.549,-0.122,-0.427,174.468,-67.549,-23.132,-27.213,-11.307,4.347,24.47,-0.15143,-0.80746,0.19366,-0.53613,380,0.999,-0.087,-0.049,0.671,-0.305,-0.244,-119.158,-84.034,-5.065,-28.993,-8.88,18.393,23.89,-0.35028,0.65494,0.3103,0.59323,382.0,0.91,-0.052,0.39,1.221,-0.488,0.244,-8.234,-66.621,160.922,-22.673,-10.24,-15.953,26.0,-0.18173,-0.52896,0.15219,-0.81482,376.0,0.839,-0.011,-0.521,0.793,0.0,-0.61,-178.275,-58.304,-6.339,-27.18,-12.587,14.98,27.41,-0.01416,-0.87222,0.04144,-0.48706,374
95,0.938,0.036,-0.389,0.244,-0.244,-0.427,174.457,-67.544,-23.154,-27.213,-11.307,4.347,24.47,-0.15143,-0.80746,0.19366,-0.53613,381,1.0,-0.088,-0.05,0.671,-0.366,-0.183,-119.224,-84.04,-4.971,-28.993,-8.88,18.393,23.89,-0.35028,0.65494,0.3103,0.59323,383.0,0.909,-0.049,0.391,0.732,-0.427,0.0,-8.218,-66.632,160.911,-22.673,-10.24,-15.953,26.0,-0.18173,-0.52896,0.15219,-0.81482,377.0,0.839,-0.011,-0.52,0.549,0.061,-0.427,-178.281,-58.304,-6.328,-27.18,-12.587,14.98,27.41,-0.01416,-0.87222,0.04144,-0.48706,375
96,0.938,0.036,-0.388,0.122,-0.366,-0.305,174.446,-67.533,-23.181,-27.213,-11.307,4.347,24.47,-0.15143,-0.80746,0.19366,-0.53613,388,1.0,-0.088,-0.051,0.61,-0.366,-0.122,-119.29,-84.04,-4.889,-28.993,-8.88,18.393,23.89,-0.35028,0.65494,0.3103,0.59323,390.0,0.912,-0.05,0.392,0.61,-0.549,0.0,-8.207,-66.643,160.9,-22.673,-10.24,-15.953,26.0,-0.17697,-0.53027,0.1499,-0.81543,386.0,0.838,-0.012,-0.518,0.366,0.0,-0.305,-178.286,-58.304,-6.323,-27.18,-12.587,14.98,27.41,-0.01416,-0.87222,0.04144,-0.48706,384
97,0.938,0.037,-0.389,0.122,-0.488,-0.244,174.441,-67.527,-23.203,-27.213,-11.307,4.347,24.47,-0.15143,-0.80746,0.19366,-0.53613,389,1.0,-0.087,-0.053,0.488,-0.244,-0.061,-119.344,-84.04,-4.812,-28.993,-8.88,18.393,23.89,-0.35028,0.65494,0.3103,0.59323,391.0,0.914,-0.05,0.39,0.488,-0.549,0.061,-8.196,-66.654,160.889,-22.673,-10.24,-15.953,26.0,-0.17697,-0.53027,0.1499,-0.81543,387.0,0.839,-0.012,-0.518,0.427,0.0,-0.305,-178.292,-58.299,-6.317,-27.18,-12.587,14.98,27.41,-0.01416,-0.87222,0.04144,-0.48706,385
98,0.939,0.038,-0.388,0.122,-0.488,-0.183,174.435,-67.511,-23.203,-27.447,-11.893,4.733,24.47,-0.15143,-0.80746,0.19366,-0.53613,392,0.999,-0.087,-0.052,0.183,-0.244,-0.061,-119.394,-84.04,-4.757,-28.993,-8.88,18.393,23.89,-0.35028,0.65494,0.3103,0.59323,398.0,0.915,-0.051,0.388,0.366,-0.671,0.122,-8.19,-66.665,160.878,-22.673,-10.24,-15.953,26.0,-0.17697,-0.53027,0.1499,-0.81543,396.0,0.839,-0.011,-0.52,0.366,0.122,-0.183,-178.297,-58.299,-6.328,-27.18,-12.587,14.98,27.41,-0.01416,-0.87222,0.04144,-0.48706,394
99,0.938,0.039,-0.389,0.122,-0.305,-0.061,174.435,-67.505,-23.214,-27.447,-11.893,4.733,24.47,-0.15143,-0.80746,0.19366,-0.53613,393,1.0,-0.086,-0.053,-0.122,-0.244,-0.061,-119.449,-84.04,-4.708,-28.993,-8.88,18.393,23.89,-0.35028,0.65494,0.3103,0.59323,399.0,0.914,-0.05,0.389,0.061,-0.671,0.061,-8.19,-66.676,160.889,-22.673,-10.24,-15.953,26.0,-0.17697,-0.53027,0.1499,-0.81543,397.0,0.839,-0.011,-0.521,0.366,0.244,-0.122,-178.297,-58.304,-6.334,-27.18,-12.587,14.98,27.41,-0.01416,-0.87222,0.04144,-0.48706,395
100,0.937,0.04,-0.387,-0.122,-0.183,0.0,174.441,-67.5,-23.242,-27.447,-11.893,4.733,24.47,-0.15143,-0.80746,0.19366,-0.53613,400,1.0,-0.087,-0.054,-0.366,-0.183,-0.244,-119.52,-84.04,-4.647,-28.993,-8.88,18.393,23.89,-0.35028,0.65494,0.3103,0.59323,406.0,0.914,-0.049,0.389,-0.244,-0.61,0.0,-8.19,-66.687,160.928,-22.673,-10.24,-15.953,26.0,-0.17697,-0.53027,0.1499,-0.81543,404.0,0.839,-0.01,-0.521,0.122,0.305,-0.061,-178.297,-58.31,-6.328,-27.18,-12.587,14.98,27.41,-0.01416,-0.87222,0.04144,-0.48706,402
101,0.937,0.039,-0.388,-0.244,-0.122,0.0,174.435,-67.495,-23.269,-27.447,-11.893,4.733,24.47,-0.15143,-0.80746,0.19366,-0.53613,401,1.0,-0.087,-0.053,-0.488,0.0,-0.305,-119.581,-84.045,-4.598,-28.993,-8.88,18.393,23.89,-0.35028,0.65494,0.3103,0.59323,407.0,0.914,-0.053,0.386,-0.366,-0.061,-0.183,-8.185,-66.693,160.961,-22.673,-10.24,-15.953,26.0,-0.17697,-0.53027,0.1499,-0.81543,405.0,0.839,-0.01,-0.519,0.0,0.366,0.0,-178.303,-58.315,-6.35,-27.18,-12.587,14.98,27.41,-0.01416,-0.87222,0.04144,-0.48706,403
102,0.938,0.039,-0.389,-0.122,-0.122,0.0,174.43,-67.489,-23.28,-27.447,-11.893,4.733,24.47,-0.15137,-0.80798,0.19385,-0.53534,414,1.0,-0.087,-0.051,-0.549,0.061,-0.244,-119.63,-84.051,-4.565,-28.993,-8.88,18.393,23.89,-0.35028,0.65494,0.3103,0.59323,410.0,0.914,-0.052,0.386,-0.305,-0.122,-0.488,-8.163,-66.698,160.977,-22.673,-10.24,-15.953,26.0,-0.17697,-0.53027,0.1499,-0.81543,408.0,0.84,-0.011,-0.519,-0.061,0.427,0.0,-178.308,-58.321,-6.361,-27.18,-12.587,14.98,27.41,-0.01416,-0.87222,0.04144,-0.48706,412
103,0.938,0.038,-0.391,-0.305,0.0,0.0,174.43,-67.489,-23.302,-27.447,-11.893,4.733,24.47,-0.15137,-0.80798,0.19385,-0.53534,415,0.998,-0.091,-0.05,-0.488,0.061,-0.061,-119.658,-84.056,-4.559,-28.993,-8.88,18.393,23.89,-0.35028,0.65494,0.3103,0.59323,411.0,0.913,-0.049,0.387,-0.244,0.061,-0.671,-8.124,-66.698,160.994,-22.673,-10.24,-15.953,26.0,-0.17697,-0.53027,0.1499,-0.81543,409.0,0.84,-0.011,-0.519,-0.183,0.488,0.061,-178.314,-58.332,-6.378,-27.18,-12.587,14.98,27.41,-0.01416,-0.87222,0.04144,-0.48706,413
104,0.938,0.036,-0.391,-0.671,0.0,0.0,174.419,-67.489,-23.351,-27.447,-11.893,4.733,24.47,-0.15137,-0.80798,0.19385,-0.53534,422,0.999,-0.091,-0.049,-0.427,0.0,0.0,-119.674,-84.056,-4.554,-28.993,-8.88,18.393,23.89,-0.35028,0.65494,0.3103,0.59323,420.0,0.911,-0.048,0.39,-0.366,0.122,-0.305,-8.113,-66.698,161.016,-22.673,-10.24,-15.953,26.0,-0.17697,-0.53027,0.1499,-0.81543,418.0,0.84,-0.014,-0.519,-0.305,0.366,0.061,-178.325,-58.337,-6.383,-26.973,-12.84,15.02,27.41,-0.01416,-0.87222,0.04144,-0.48706,416
105,0.938,0.037,-0.39,-0.427,0.0,0.0,174.408,-67.484,-23.406,-27.447,-11.893,4.733,24.47,-0.15137,-0.80798,0.19385,-0.53534,423,0.999,-0.088,-0.049,-0.427,-0.122,0.061,-119.691,-84.056,-4.537,-28.993,-8.88,18.393,23.89,-0.35028,0.65494,0.3103,0.59323,421.0,0.911,-0.053,0.393,-0.61,0.183,0.0,-8.113,-66.693,161.032,-22.673,-10.24,-15.953,26.0,-0.17697,-0.53027,0.1499,-0.81543,419.0,0.84,-0.016,-0.518,-0.427,0.183,0.061,-178.33,-58.337,-6.378,-26.973,-12.84,15.02,27.41,-0.01416,-0.87222,0.04144,-0.48706,417
106,0.937,0.036,-0.388,-0.122,-0.061,0.061,174.408,-67.484,-23.472,-27.447,-11.893,4.733,24.47,-0.15137,-0.80798,0.19385,-0.53534,424,0.999,-0.087,-0.05,-0.488,-0.183,0.0,-119.729,-84.056,-4.51,-28.993,-8.88,18.393,23.89,-0.35028,0.65494,0.3103,0.59323,428.0,0.91,-0.052,0.393,-0.793,0.305,0.0,-8.119,-66.687,161.038,-22.673,-10.24,-15.953,26.0,-0.17697,-0.53027,0.1499,-0.81543,426.0,0.839,-0.014,-0.517,-0.366,0.061,0.061,-178.341,-58.337,-6.372,-26.973,-12.84,15.02,27.41,-0.01416,-0.87222,0.04144,-0.48706,430
107,0.937,0.036,-0.388,-0.122,-0.061,0.122,174.408,-67.484,-23.511,-27.447,-11.893,4.733,24.47,-0.15137,-0.80798,0.19385,-0.53534,425,1.0,-0.088,-0.051,-0.549,-0.183,0.0,-119.767,-84.056,-4.477,-28.993,-8.88,18.393,23.89,-0.35028,0.65494,0.3103,0.59323,429.0,0.91,-0.051,0.391,-0.732,0.122,0.0,-8.13,-66.682,161.054,-22.673,-10.24,-15.953,26.0,-0.17697,-0.53027,0.1499,-0.81543,427.0,0.84,-0.011,-0.517,-0.244,0.061,0.061,-178.347,-58.337,-6.394,-26.973,-12.84,15.02,27.41,-0.01416,-0.87222,0.04144,-0.48706,431
108,0.937,0.037,-0.389,-0.122,-0.183,0.122,174.413,-67.478,-23.544,-27.447,-11.893,4.733,24.47,-0.15137,-0.80798,0.19385,-0.53534,432,1.0,-0.092,-0.054,-0.549,-0.183,0.0,-119.811,-84.056,-4.455,-28.993,-8.88,18.393,23.89,-0.35028,0.65494,0.3103,0.59323,442.0,0.912,-0.052,0.391,-0.671,0.122,-0.183,-8.124,-66.682,161.043,-22.793,-10.4,-15.66,26.0,-0.17697,-0.53027,0.1499,-0.81543,434.0,0.839,-0.011,-0.517,-0.244,0.061,0.122,-178.352,-58.343,-6.427,-26.973,-12.84,15.02,27.41,-0.01456,-0.87207,0.04163,-0.48727,436
109,0.938,0.037,-0.389,-0.183,-0.183,0.122,174.419,-67.473,-23.566,-27.447,-11.893,4.733,24.47,-0.15137,-0.80798,0.19385,-0.53534,433,1.002,-0.092,-0.057,-0.427,-0.122,0.0,-119.844,-84.051,-4.433,-28.993,-8.88,18.393,23.89,-0.35028,0.65494,0.3103,0.59323,443.0,0.915,-0.053,0.388,-0.732,0.061,-0.427,-8.113,-66.682,161.032,-22.793,-10.4,-15.66,26.0,-0.17697,-0.53027,0.1499,-0.81543,435.0,0.839,-0.013,-0.518,-0.244,0.122,0.122,-178.352,-58.343,-6.46,-26.973,-12.84,15.02,27.41,-0.01456,-0.87207,0.04163,-0.48727,437
110,0.938,0.036,-0.39,-0.183,-0.183,0.061,174.424,-67.467,-23.599,-27.447,-11.893,4.733,24.47,-0.15137,-0.80798,0.19385,-0.53534,440,1.001,-0.091,-0.058,-0.366,0.0,0.061,-119.861,-84.051,-4.433,-29.653,-8.993,18.227,23.89,-0.35028,0.65494,0.3103,0.59323,446.0,0.917,-0.053,0.386,-0.61,0.061,-0.183,-8.108,-66.682,161.021,-22.793,-10.4,-15.66,26.0,-0.17572,-0.53098,0.14865,-0.81546,438.0,0.839,-0.015,-0.521,-0.244,0.244,0.122,-178.358,-58.348,-6.498,-26.973,-12.84,15.02,27.41,-0.01456,-0.87207,0.04163,-0.48727,444
111,0.938,0.036,-0.392,-0.183,0.061,0.061,174.424,-67.467,-23.626,-27.447,-11.893,4.733,24.47,-0.15137,-0.80798,0.19385,-0.53534,441,1.0,-0.091,-0.056,-0.183,0.0,0.122,-119.866,-84.051,-4.444,-29.653,-8.993,18.227,23.89,-0.35028,0.65494,0.3103,0.59323,447.0,0.918,-0.052,0.384,-0.366,0.183,0.0,-8.108,-66.676,161.005,-22.793,-10.4,-15.66,26.0,-0.17572,-0.53098,0.14865,-0.81546,439.0,0.839,-0.015,-0.523,-0.244,0.427,0.122,-178.358,-58.354,-6.542,-26.973,-12.84,15.02,27.41,-0.01456,-0.87207,0.04163,-0.48727,445
112,0.939,0.036,-0.393,-0.061,0.183,0.061,174.43,-67.467,-23.637,-27.447,-11.893,4.733,24.47,-0.15137,-0.80798,0.19385,-0.53534,454,0.998,-0.091,-0.052,-0.122,0.122,0.244,-119.844,-84.045,-4.471,-29.653,-8.993,18.227,23.89,-0.35028,0.65494,0.3103,0.59323,452.0,0.915,-0.053,0.384,-0.183,0.183,0.244,-8.119,-66.676,160.988,-22.793,-10.4,-15.66,26.0,-0.17572,-0.53098,0.14865,-0.81546,450.0,0.84,-0.014,-0.523,-0.183,0.549,0.122,-178.358,-58.365,-6.586,-26.973,-12.84,15.02,27.41,-0.01456,-0.87207,0.04163,-0.48727,448
113,0.938,0.035,-0.392,-0.061,0.427,0.061,174.43,-67.473,-23.637,-27.447,-11.893,4.733,24.47,-0.15137,-0.80798,0.19385,-0.53534,455,0.998,-0.091,-0.05,-0.122,0.122,0.366,-119.806,-84.04,-4.521,-29.653,-8.993,18.227,23.89,-0.35028,0.65494,0.3103,0.59323,453.0,0.912,-0.052,0.388,-0.244,0.305,0.427,-8.135,-66.671,160.988,-22.793,-10.4,-15.66,26.0,-0.17572,-0.53098,0.14865,-0.81546,451.0,0.839,-0.014,-0.521,-0.122,0.549,0.061,-178.363,-58.37,-6.625,-26.973,-12.84,15.02,27.41,-0.01456,-0.87207,0.04163,-0.48727,449
114,0.938,0.035,-0.389,0.0,0.366,0.0,174.435,-67.478,-23.665,-27.013,-12.0,4.273,24.47,-0.15137,-0.80798,0.19385,-0.53534,462,0.998,-0.09,-0.047,-0.183,-0.061,0.366,-119.784,-84.034,-4.559,-29.653,-8.993,18.227,23.89,-0.34933,0.65546,0.31,0.59338,460.0,0.91,-0.053,0.391,-0.671,0.488,0.488,-8.163,-66.66,160.994,-22.793,-10.4,-15.66,26.0,-0.17572,-0.53098,0.14865,-0.81546,458.0,0.841,-0.014,-0.519,-0.244,0.427,0.061,-178.363,-58.376,-6.652,-26.973,-12.84,15.02,27.41,-0.01456,-0.87207,0.04163,-0.48727,456
115,0.938,0.036,-0.388,-0.061,0.305,0.0,174.435,-67.484,-23.681,-27.013,-12.0,4.273,24.47,-0.15137,-0.80798,0.19385,-0.53534,463,0.999,-0.091,-0.048,-0.244,-0.122,0.183,-119.784,-84.029,-4.57,-29.653,-8.993,18.227,23.89,-0.34933,0.65546,0.31,0.59338,461.0,0.908,-0.055,0.394,-1.038,0.61,0.366,-8.19,-66.649,160.983,-22.793,-10.4,-15.66,26.0,-0.17572,-0.53098,0.14865,-0.81546,459.0,0.841,-0.014,-0.517,-0.244,0.305,0.061,-178.369,-58.381,-6.663,-26.973,-12.84,15.02,27.41,-0.01456,-0.87207,0.04163,-0.48727,457
116,0.937,0.036,-0.386,-0.183,0.183,0.0,174.435,-67.484,-23.698,-27.013,-12.0,4.273,24.47,-0.15137,-0.80798,0.19385,-0.53534,470,0.999,-0.093,-0.052,-0.122,-0.183,0.061,-119.8,-84.029,-4.565,-29.653,-8.993,18.227,23.89,-0.34933,0.65546,0.31,0.59338,468.0,0.91,-0.055,0.394,-1.16,0.488,0.122,-8.212,-66.638,160.966,-22.793,-10.4,-15.66,26.0,-0.17572,-0.53098,0.14865,-0.81546,466.0,0.84,-0.013,-0.516,-0.305,0.122,0.122,-178.374,-58.381,-6.674,-26.973,-12.84,15.02,27.41,-0.01456,-0.87207,0.04163,-0.48727,464
117,0.938,0.035,-0.386,-0.122,0.122,0.0,174.435,-67.489,-23.714,-27.013,-12.0,4.273,24.47,-0.15137,-0.80798,0.19385,-0.53534,471,1.0,-0.096,-0.053,0.0,0.0,0.122,-119.795,-84.023,-4.581,-29.653,-8.993,18.227,23.89,-0.34933,0.65546,0.31,0.59338,469.0,0.914,-0.056,0.391,-0.854,0.366,0.0,-8.223,-66.632,160.939,-22.793,-10.4,-15.66,26.0,-0.17572,-0.53098,0.14865,-0.81546,467.0,0.84,-0.014,-0.515,-0.183,0.0,0.061,-178.374,-58.381,-6.685,-26.973,-12.84,15.02,27.41,-0.01456,-0.87207,0.04163,-0.48727,465
118,0.938,0.034,-0.387,0.0,0.183,-0.061,174.435,-67.489,-23.719,-27.013,-12.0,4.273,24.47,-0.1535,-0.80722,0.19708,-0.53467,472,1.0,-0.094,-0.055,0.122,0.0,0.122,-119.778,-84.018,-4.603,-29.653,-8.993,18.227,23.89,-0.34933,0.65546,0.31,0.59338,476.0,0.914,-0.056,0.388,-0.244,0.122,0.244,-8.234,-66.632,160.922,-22.793,-10.4,-15.66,26.0,-0.17572,-0.53098,0.14865,-0.81546,478.0,0.84,-0.017,-0.516,-0.061,0.122,0.061,-178.374,-58.381,-6.707,-26.973,-12.84,15.02,27.41,-0.01456,-0.87207,0.04163,-0.48727,474
119,0.938,0.035,-0.387,0.183,0.122,0.0,174.435,-67.489,-23.725,-27.013,-12.0,4.273,24.47,-0.1535,-0.80722,0.19708,-0.53467,473,1.0,-0.088,-0.055,-0.061,0.183,0.061,-119.745,-84.018,-4.631,-29.653,-8.993,18.227,23.89,-0.34933,0.65546,0.31,0.59338,477.0,0.914,-0.06,0.386,0.0,0.061,0.671,-8.262,-66.627,160.933,-22.793,-10.4,-15.66,26.0,-0.17572,-0.53098,0.14865,-0.81546,479.0,0.839,-0.018,-0.518,0.0,0.183,0.0,-178.374,-58.387,-6.735,-26.973,-12.84,15.02,27.41,-0.01456,-0.87207,0.04163,-0.48727,475
120,0.938,0.038,-0.39,0.183,0.122,-0.061,174.441,-67.495,-23.736,-27.013,-12.0,4.273,24.47,-0.1535,-0.80722,0.19708,-0.53467,484,1.0,-0.086,-0.052,-0.305,0.305,0.0,-119.707,-84.023,-4.68,-29.653,-8.993,18.227,23.89,-0.34933,0.65546,0.31,0.59338,486.0,0.915,-0.055,0.386,0.0,0.488,0.61,-8.284,-66.616,160.95,-22.793,-10.4,-15.66,26.0,-0.17572,-0.53098,0.14865,-0.81546,480.0,0.841,-0.014,-0.521,0.061,0.366,-0.061,-178.374,-58.392,-6.757,-26.973,-12.84,15.02,27.41,-0.01456,-0.87207,0.04163,-0.48727,482
121,0.938,0.038,-0.392,0.0,0.244,-0.061,174.446,-67.495,-23.736,-27.013,-12.0,4.273,24.47,-0.1535,-0.80722,0.19708,-0.53467,485,0.999,-0.087,-0.05,-0.488,0.244,0.0,-119.68,-84.023,-4.713,-29.653,-8.993,18.227,23.89,-0.34933,0.65546,0.31,0.59338,487.0,0.911,-0.053,0.389,-0.366,0.793,0.183,-8.289,-66.605,160.961,-22.793,-10.4,-15.66,26.0,-0.17572,-0.53098,0.14865,-0.81546,481.0,0.841,-0.01,-0.519,-0.366,0.366,0.061,-178.38,-58.403,-6.784,-26.973,-12.84,15.02,27.41,-0.01456,-0.87207,0.04163,-0.48727,483
122,0.939,0.038,-0.389,-0.122,0.183,0.0,174.441,-67.5,-23.758,-27.013,-12.0,4.273,24.47,-0.1535,-0.80722,0.19708,-0.53467,494,0.999,-0.09,-0.049,-0.549,0.0,0.0,-119.685,-84.023,-4.73,-29.653,-8.993,18.227,23.89,-0.34933,0.65546,0.31,0.59338,492.0,0.91,-0.051,0.393,-0.61,0.854,0.0,-8.295,-66.588,160.95,-22.793,-10.4,-15.66,26.0,-0.17572,-0.53098,0.14865,-0.81546,490.0,0.841,-0.012,-0.519,-0.427,0.244,0.122,-178.385,-58.409,-6.795,-26.56,-12.193,14.607,27.41,-0.01456,-0.87207,0.04163,-0.48727,488
123,0.938,0.037,-0.39,-0.305,0.183,0.0,174.441,-67.5,-23.78,-27.013,-12.0,4.273,24.47,-0.1535,-0.80722,0.19708,-0.53467,495,0.999,-0.093,-0.049,-0.488,-0.183,0.0,-119.718,-84.023,-4.713,-29.653,-8.993,18.227,23.89,-0.34933,0.65546,0.31,0.59338,493.0,0.91,-0.053,0.395,-0.671,0.61,-0.061,-8.295,-66.577,160.928,-22.793,-10.4,-15.66,26.0,-0.17572,-0.53098,0.14865,-0.81546,491.0,0.841,-0.013,-0.518,-0.488,0.061,0.0,-178.396,-58.409,-6.795,-26.56,-12.193,14.607,27.41,-0.01456,-0.87207,0.04163,-0.48727,489
124,0.938,0.037,-0.389,-0.488,0.122,0.0,174.43,-67.5,-23.807,-27.013,-12.0,4.273,24.47,-0.1535,-0.80722,0.19708,-0.53467,496,0.999,-0.094,-0.05,-0.244,-0.305,0.0,-119.762,-84.023,-4.686,-29.653,-8.993,18.227,23.89,-0.34933,0.65546,0.31,0.59338,502.0,0.91,-0.055,0.396,-0.977,0.427,0.0,-8.306,-66.566,160.917,-23.14,-9.947,-16.473,26.0,-0.17572,-0.53098,0.14865,-0.81546,500.0,0.84,-0.016,-0.517,-0.366,0.0,0.0,-178.407,-58.409,-6.812,-26.56,-12.193,14.607,27.41,-0.01456,-0.87207,0.04163,-0.48727,498
125,0.937,0.036,-0.389,-0.305,0.061,0.0,174.424,-67.5,-23.84,-27.013,-12.0,4.273,24.47,-0.1535,-0.80722,0.19708,-0.53467,497,0.999,-0.093,-0.053,-0.061,-0.366,-0.061,-119.822,-84.018,-4.642,-29.653,-8.993,18.227,23.89,-0.34933,0.65546,0.31,0.59338,503.0,0.912,-0.058,0.394,-0.916,0.183,0.183,-8.328,-66.561,160.889,-23.14,-9.947,-16.473,26.0,-0.17572,-0.53098,0.14865,-0.81546,501.0,0.84,-0.015,-0.517,-0.183,-0.061,0.0,-178.412,-58.409,-6.823,-26.56,-12.193,14.607,27.41,-0.01456,-0.87207,0.04163,-0.48727,499
126,0.938,0.035,-0.388,0.0,0.122,0.0,174.43,-67.5,-23.862,-27.013,-12.0,4.273,24.47,-0.1535,-0.80722,0.19708,-0.53467,504,1.0,-0.091,-0.054,0.0,-0.183,-0.122,-119.861,-84.018,-4.614,-29.653,-8.993,18.227,23.89,-0.34933,0.65546,0.31,0.59338,508.0,0.913,-0.058,0.392,-0.549,0.061,0.183,-8.344,-66.561,160.873,-23.14,-9.947,-16.473,26.0,-0.17786,-0.52957,0.15085,-0.81552,506.0,0.84,-0.014,-0.518,0.0,0.0,0.0,-178.418,-58.409,-6.839,-26.56,-12.193,14.607,27.41,-0.01697,-0.87161,0.0452,-0.48773,510
127,0.937,0.035,-0.389,0.122,0.061,0.0,174.43,-67.5,-23.89,-27.013,-12.0,4.273,24.47,-0.1535,-0.80722,0.19708,-0.53467,505,0.999,-0.089,-0.054,-0.061,0.0,-0.122,-119.883,-84.018,-4.609,-29.653,-8.993,18.227,23.89,-0.34933,0.65546,0.31,0.59338,509.0,0.913,-0.056,0.387,-0.122,0.0,0.244,-8.355,-66.561,160.867,-23.14,-9.947,-16.473,26.0,-0.17786,-0.52957,0.15085,-0.81552,507.0,0.84,-0.013,-0.517,0.0,0.061,0.0,-178.418,-58.403,-6.844,-26.56,-12.193,14.607,27.41,-0.01697,-0.87161,0.0452,-0.48773,511
128,0.937,0.036,-0.387,0.244,0.0,0.0,174.441,-67.5,-23.912,-27.013,-12.0,4.273,24.47,-0.1535,-0.80722,0.19708,-0.53467,512,1.0,-0.089,-0.053,-0.183,0.061,-0.122,-119.888,-84.023,-4.62,-29.127,-8.9,17.78,23.89,-0.34933,0.65546,0.31,0.59338,522.0,0.913,-0.055,0.388,-0.122,0.183,0.183,-8.361,-66.555,160.856,-23.14,-9.947,-16.473,26.0,-0.17786,-0.52957,0.15085,-0.81552,516.0,0.84,-0.011,-0.518,0.0,0.183,0.0,-178.418,-58.409,-6.872,-26.56,-12.193,14.607,27.41,-0.01697,-0.87161,0.0452,-0.48773,514
129,0.938,0.037,-0.388,0.183,0.0,0.0,174.446,-67.5,-23.934,-27.013,-12.0,4.273,24.47,-0.1535,-0.80722,0.19708,-0.53467,513,1.0,-0.09,-0.052,-0.244,0.061,-0.122,-119.894,-84.023,-4.625,-29.127,-8.9,17.78,23.89,-0.34933,0.65546,0.31,0.59338,523.0,0.911,-0.055,0.389,-0.244,0.366,0.0,-8.361,-66.55,160.801,-23.14,-9.947,-16.473,26.0,-0.17786,-0.52957,0.15085,-0.81552,517.0,0.84,-0.011,-0.518,0.0,0.244,0.0,-178.418,-58.409,-6.877,-26.56,-12.193,14.607,27.41,-0.01697,-0.87161,0.0452,-0.48773,515
130,0.938,0.038,-0.389,0.0,0.0,0.0,174.446,-67.5,-23.961,-27.013,-12.0,4.273,24.47,-0.1535,-0.80722,0.19708,-0.53467,526,1.0,-0.091,-0.052,-0.183,0.061,-0.122,-119.905,-84.029,-4.631,-29.127,-8.9,17.78,23.89,-0.34827,0.65613,0.30884,0.5939,524.0,0.912,-0.054,0.392,-0.488,0.549,-0.122,-8.361,-66.539,160.757,-23.14,-9.947,-16.473,26.0,-0.17786,-0.52957,0.15085,-0.81552,520.0,0.841,-0.013,-0.518,0.0,0.244,0.0,-178.418,-58.414,-6.877,-26.56,-12.193,14.607,27.41,-0.01697,-0.87161,0.0452,-0.48773,518
131,0.939,0.037,-0.389,0.0,0.0,0.0,174.452,-67.5,-23.978,-27.013,-12.0,4.273,24.47,-0.1535,-0.80722,0.19708,-0.53467,527,1.0,-0.091,-0.053,-0.122,0.0,-0.183,-119.921,-84.029,-4.636,-29.127,-8.9,17.78,23.89,-0.34827,0.65613,0.30884,0.5939,525.0,0.914,-0.057,0.392,-0.488,0.427,-0.183,-8.355,-66.533,160.724,-23.14,-9.947,-16.473,26.0,-0.17786,-0.52957,0.15085,-0.81552,521.0,0.841,-0.013,-0.519,0.0,0.183,0.0,-178.423,-58.42,-6.872,-26.56,-12.193,14.607,27.41,-0.01697,-0.87161,0.0452,-0.48773,519
132,0.937,0.038,-0.389,0.0,0.061,0.0,174.452,-67.495,-23.978,-26.86,-11.787,4.873,24.47,-0.1535,-0.80722,0.19708,-0.53467,532,1.0,-0.092,-0.054,-0.122,0.061,-0.305,-119.943,-84.034,-4.625,-29.127,-8.9,17.78,23.89,-0.34827,0.65613,0.30884,0.5939,534.0,0.912,-0.057,0.389,0.0,0.183,-0.122,-8.35,-66.533,160.714,-23.14,-9.947,-16.473,26.0,-0.17786,-0.52957,0.15085,-0.81552,530.0,0.84,-0.012,-0.518,0.061,0.183,0.0,-178.423,-58.42,-6.861,-26.56,-12.193,14.607,27.41,-0.01697,-0.87161,0.0452,-0.48773,528
133,0.938,0.037,-0.388,-0.122,0.061,0.0,174.452,-67.495,-23.978,-26.86,-11.787,4.873,24.47,-0.1535,-0.80722,0.19708,-0.53467,533,1.0,-0.091,-0.054,0.0,0.0,-0.244,-119.965,-84.04,-4.609,-29.127,-8.9,17.78,23.89,-0.34827,0.65613,0.30884,0.5939,535.0,0.914,-0.057,0.393,-0.061,0.244,-0.183,-8.339,-66.528,160.708,-23.14,-9.947,-16.473,26.0,-0.17786,-0.52957,0.15085,-0.81552,531.0,0.84,-0.014,-0.52,0.122,0.183,0.0,-178.423,-58.425,-6.844,-26.56,-12.193,14.607,27.41,-0.01697,-0.87161,0.0452,-0.48773,529
134,0.938,0.036,-0.387,0.0,0.183,0.0,174.452,-67.5,-24.0,-26.86,-11.787,4.873,24.47,-0.1535,-0.80722,0.19708,-0.53467,542,0.999,-0.089,-0.053,0.122,0.061,-0.122,-119.976,-84.04,-4.603,-29.127,-8.9,17.78,23.89,-0.34827,0.65613,0.30884,0.5939,540.0,0.912,-0.053,0.389,0.0,0.366,-0.244,-8.328,-66.522,160.697,-23.14,-9.947,-16.473,26.0,-0.17786,-0.52957,0.15085,-0.81552,538.0,0.841,-0.013,-0.518,0.244,0.305,0.0,-178.423,-58.425,-6.844,-26.56,-12.193,14.607,27.41,-0.01697,-0.87161,0.0452,-0.48773,536
135,0.939,0.036,-0.387,0.366,0.183,0.0,174.457,-67.5,-24.027,-26.86,-11.787,4.873,24.47,-0.1535,-0.80722,0.19708,-0.53467,543,0.999,-0.089,-0.05,0.061,0.122,0.0,-119.965,-84.04,-4.625,-29.127,-8.9,17.78,23.89,-0.34827,0.65613,0.30884,0.5939,541.0,0.909,-0.051,0.394,0.122,0.305,0.061,-8.311,-66.517,160.686,-23.14,-9.947,-16.473,26.0,-0.17786,-0.52957,0.15085,-0.81552,539.0,0.841,-0.012,-0.518,0.366,0.366,0.0,-178.418,-58.431,-6.855,-26.56,-12.193,14.607,27.41,-0.01697,-0.87161,0.0452,-0.48773,537
136,0.938,0.036,-0.389,0.244,0.244,0.0,174.463,-67.505,-24.038,-26.86,-11.787,4.873,24.47,-0.15482,-0.80664,0.19916,-0.53439,546,0.998,-0.091,-0.048,0.0,0.061,0.0,-119.949,-84.04,-4.647,-29.127,-8.9,17.78,23.89,-0.34827,0.65613,0.30884,0.5939,550.0,0.909,-0.055,0.395,-0.305,0.366,0.244,-8.311,-66.511,160.675,-23.14,-9.947,-16.473,26.0,-0.17786,-0.52957,0.15085,-0.81552,548.0,0.841,-0.013,-0.516,0.183,0.305,0.0,-178.412,-58.436,-6.866,-26.56,-12.193,14.607,27.41,-0.01697,-0.87161,0.0452,-0.48773,544
137,0.938,0.037,-0.388,0.0,0.122,0.0,174.468,-67.505,-24.06,-26.86,-11.787,4.873,24.47,-0.15482,-0.80664,0.19916,-0.53439,547,0.999,-0.09,-0.049,-0.122,0.0,0.0,-119.949,-84.04,-4.647,-29.127,-8.9,17.78,23.89,-0.34827,0.65613,0.30884,0.5939,551.0,0.91,-0.056,0.395,-0.671,0.366,0.122,-8.322,-66.506,160.686,-23.14,-9.947,-16.473,26.0,-0.17786,-0.52957,0.15085,-0.81552,549.0,0.841,-0.012,-0.515,0.0,0.122,0.0,-178.412,-58.442,-6.877,-26.56,-12.193,14.607,27.41,-0.01697,-0.87161,0.0452,-0.48773,545
138,0.938,0.037,-0.387,0.0,0.0,0.0,174.468,-67.505,-24.06,-26.86,-11.787,4.873,24.47,-0.15482,-0.80664,0.19916,-0.53439,552,0.999,-0.089,-0.05,-0.122,-0.061,-0.122,-119.96,-84.045,-4.631,-29.127,-8.9,17.78,23.89,-0.34827,0.65613,0.30884,0.5939,558.0,0.91,-0.056,0.395,-0.549,0.061,0.0,-8.333,-66.5,160.681,-22.733,-10.267,-16.327,26.0,-0.17786,-0.52957,0.15085,-0.81552,556.0,0.841,-0.011,-0.515,0.0,0.122,0.0,-178.412,-58.442,-6.905,-26.56,-12.193,14.607,27.41,-0.01697,-0.87161,0.0452,-0.48773,554
139,0.938,0.038,-0.388,0.0,-0.061,0.0,174.468,-67.505,-24.049,-26.86,-11.787,4.873,24.47,-0.15482,-0.80664,0.19916,-0.53439,553,1.0,-0.09,-0.052,-0.061,-0.061,-0.122,-119.982,-84.045,-4.609,-29.127,-8.9,17.78,23.89,-0.34827,0.65613,0.30884,0.5939,559.0,0.912,-0.055,0.393,-0.183,-0.061,0.0,-8.339,-66.5,160.67,-22.733,-10.267,-16.327,26.0,-0.17786,-0.52957,0.15085,-0.81552,557.0,0.84,-0.012,-0.515,0.0,0.061,0.0,-178.412,-58.447,-6.938,-26.56,-12.193,14.607,27.41,-0.01697,-0.87161,0.0452,-0.48773,555
140,0.938,0.037,-0.389,-0.061,0.0,0.0,174.468,-67.505,-24.049,-26.86,-11.787,4.873,24.47,-0.15482,-0.80664,0.19916,-0.53439,564,1.0,-0.09,-0.053,0.061,-0.061,-0.061,-119.993,-84.045,-4.592,-29.127,-8.9,17.78,23.89,-0.34827,0.65613,0.30884,0.5939,568.0,0.912,-0.054,0.392,0.061,-0.183,0.0,-8.339,-66.5,160.67,-22.733,-10.267,-16.327,26.0,-0.17929,-0.52887,0.15173,-0.81549,560.0,0.841,-0.013,-0.518,0.122,0.061,0.0,-178.412,-58.447,-6.954,-26.827,-12.513,14.473,27.41,-0.01697,-0.87161,0.0452,-0.48773,562
141,0.938,0.036,-0.389,-0.061,0.061,0.0,174.468,-67.505,-24.055,-26.86,-11.787,4.873,24.47,-0.15482,-0.80664,0.19916,-0.53439,565,1.0,-0.089,-0.053,0.122,-0.061,0.0,-119.998,-84.045,-4.581,-29.127,-8.9,17.78,23.89,-0.34827,0.65613,0.30884,0.5939,569.0,0.913,-0.054,0.392,0.0,-0.122,0.061,-8.333,-66.5,160.675,-22.733,-10.267,-16.327,26.0,-0.17929,-0.52887,0.15173,-0.81549,561.0,0.841,-0.013,-0.518,0.183,0.0,0.0,-178.412,-58.447,-6.965,-26.827,-12.513,14.473,27.41,-0.01697,-0.87161,0.0452,-0.48773,563
142,0.938,0.037,-0.389,0.0,0.0,0.0,174.468,-67.505,-24.055,-26.86,-11.787,4.873,24.47,-0.15482,-0.80664,0.19916,-0.53439,572,1.001,-0.089,-0.055,0.122,0.0,0.0,-119.998,-84.045,-4.57,-29.127,-8.9,17.78,23.89,-0.34827,0.65613,0.30884,0.5939,576.0,0.915,-0.054,0.392,-0.061,-0.122,0.122,-8.333,-66.506,160.686,-22.733,-10.267,-16.327,26.0,-0.17929,-0.52887,0.15173,-0.81549,570.0,0.84,-0.012,-0.518,0.122,0.0,0.0,-178.412,-58.447,-6.987,-26.827,-12.513,14.473,27.41,-0.01697,-0.87161,0.0452,-0.48773,566
143,0.938,0.037,-0.39,0.0,0.0,0.0,174.474,-67.5,-24.049,-26.86,-11.787,4.873,24.47,-0.15482,-0.80664,0.19916,-0.53439,573,1.0,-0.09,-0.055,0.183,0.0,0.0,-119.998,-84.045,-4.548,-29.127,-8.9,17.78,23.89,-0.34827,0.65613,0.30884,0.5939,577.0,0.912,-0.054,0.39,0.0,-0.244,0.183,-8.339,-66.506,160.708,-22.733,-10.267,-16.327,26.0,-0.17929,-0.52887,0.15173,-0.81549,571.0,0.841,-0.013,-0.519,0.122,0.061,0.0,-178.412,-58.447,-7.009,-26.827,-12.513,14.473,27.41,-0.01697,-0.87161,0.0452,-0.48773,567
144,0.938,0.037,-0.39,0.061,0.122,0.0,174.474,-67.5,-24.044,-26.86,-11.787,4.873,24.47,-0.15482,-0.80664,0.19916,-0.53439,574,0.999,-0.087,-0.054,0.183,0.061,0.0,-119.993,-84.045,-4.537,-29.24,-8.68,18.607,23.89,-0.34827,0.65613,0.30884,0.5939,582.0,0.913,-0.054,0.39,0.122,-0.183,0.183,-8.344,-66.511,160.719,-22.733,-10.267,-16.327,26.0,-0.17929,-0.52887,0.15173,-0.81549,578.0,0.841,-0.012,-0.519,0.244,0.061,0.0,-178.412,-58.447,-7.031,-26.827,-12.513,14.473,27.41,-0.01776,-0.87137,0.04654,-0.48798,580
145,0.938,0.038,-0.388,0.061,0.061,0.0,174.474,-67.5,-24.038,-26.86,-11.787,4.873,24.47,-0.15482,-0.80664,0.19916,-0.53439,575,0.999,-0.089,-0.052,0.061,0.122,-0.122,-119.987,-84.051,-4.521,-29.24,-8.68,18.607,23.89,-0.34827,0.65613,0.30884,0.5939,583.0,0.91,-0.056,0.391,0.305,-0.122,0.0,-8.344,-66.517,160.724,-22.733,-10.267,-16.327,26.0,-0.17929,-0.52887,0.15173,-0.81549,579.0,0.841,-0.01,-0.518,0.244,0.122,0.0,-178.407,-58.447,-7.053,-26.827,-12.513,14.473,27.41,-0.01776,-0.87137,0.04654,-0.48798,581
146,0.938,0.038,-0.388,0.0,0.122,0.0,174.474,-67.505,-24.033,-26.86,-11.787,4.873,24.47,-0.15482,-0.80664,0.19916,-0.53439,586,1.0,-0.091,-0.051,0.0,0.183,-0.122,-119.976,-84.051,-4.521,-29.24,-8.68,18.607,23.89,-0.34827,0.65613,0.30884,0.5939,592.0,0.911,-0.056,0.392,0.427,0.0,0.0,-8.333,-66.517,160.735,-22.733,-10.267,-16.327,26.0,-0.17929,-0.52887,0.15173,-0.81549,588.0,0.841,-0.013,-0.516,0.183,0.122,0.0,-178.407,-58.447,-7.075,-26.827,-12.513,14.473,27.41,-0.01776,-0.87137,0.04654,-0.48798,584
147,0.938,0.038,-0.388,-0.122,0.061,0.0,174.474,-67.505,-24.033,-26.86,-11.787,4.873,24.47,-0.15482,-0.80664,0.19916,-0.53439,587,1.0,-0.09,-0.051,0.122,0.122,0.0,-119.96,-84.056,-4.521,-29.24,-8.68,18.607,23.89,-0.34827,0.65613,0.30884,0.5939,593.0,0.912,-0.054,0.393,0.305,0.061,0.0,-8.322,-66.517,160.741,-22.733,-10.267,-16.327,26.0,-0.17929,-0.52887,0.15173,-0.81549,589.0,0.841,-0.014,-0.517,0.183,0.183,0.0,-178.407,-58.453,-7.097,-26.827,-12.513,14.473,27.41,-0.01776,-0.87137,0.04654,-0.48798,585
148,0.939,0.037,-0.389,-0.183,0.061,0.0,174.468,-67.505,-24.027,-26.86,-11.787,4.873,24.47,-0.15482,-0.80664,0.19916,-0.53439,596,1.0,-0.09,-0.05,0.122,0.122,0.061,-119.932,-84.056,-4.526,-29.24,-8.68,18.607,23.89,-0.34842,0.65585,0.30927,0.59387,598.0,0.91,-0.053,0.394,0.244,0.061,0.305,-8.311,-66.517,160.735,-22.733,-10.267,-16.327,26.0,-0.17929,-0.52887,0.15173,-0.81549,594.0,0.841,-0.013,-0.516,0.183,0.183,0.0,-178.407,-58.453,-7.114,-26.827,-12.513,14.473,27.41,-0.01776,-0.87137,0.04654,-0.48798,590
149,0.938,0.036,-0.389,-0.244,0.061,0.0,174.463,-67.505,-24.022,-26.86,-11.787,4.873,24.47,-0.15482,-0.80664,0.19916,-0.53439,597,0.999,-0.088,-0.052,0.244,0.061,0.183,-119.899,-84.051,-4.532,-29.24,-8.68,18.607,23.89,-0.34842,0.65585,0.30927,0.59387,599.0,0.911,-0.053,0.394,0.0,0.0,0.427,-8.322,-66.517,160.719,-22.733,-10.267,-16.327,26.0,-0.17929,-0.52887,0.15173,-0.81549,595.0,0.841,-0.013,-0.517,0.122,0.122,0.0,-178.401,-58.458,-7.136,-26.827,-12.513,14.473,27.41,-0.01776,-0.87137,0.04654,-0.48798,591
150,0.938,0.036,-0.388,-0.122,0.0,0.0,174.463,-67.5,-24.022,-27.413,-11.907,4.36,24.47,-0.15482,-0.80664,0.19916,-0.53439,604,0.999,-0.088,-0.049,0.183,0.122,0.244,-119.855,-84.051,-4.559,-29.24,-8.68,18.607,23.89,-0.34842,0.65585,0.30927,0.59387,606.0,0.91,-0.053,0.393,0.0,0.061,0.488,-8.333,-66.511,160.686,-22.733,-10.267,-16.327,26.0,-0.17929,-0.52887,0.15173,-0.81549,602.0,0.842,-0.012,-0.515,0.061,0.061,0.0,-178.401,-58.458,-7.158,-26.827,-12.513,14.473,27.41,-0.01776,-0.87137,0.04654,-0.48798,600
151,0.937,0.036,-0.386,-0.061,0.061,0.0,174.463,-67.5,-24.016,-27.413,-11.907,4.36,24.47,-0.15482,-0.80664,0.19916,-0.53439,605,1.0,-0.09,-0.051,0.183,0.122,0.244,-119.806,-84.045,-4.581,-29.24,-8.68,18.607,23.89,-0.34842,0.65585,0.30927,0.59387,607.0,0.911,-0.056,0.394,0.0,0.122,0.488,-8.35,-66.511,160.675,-22.733,-10.267,-16.327,26.0,-0.17929,-0.52887,0.15173,-0.81549,603.0,0.841,-0.013,-0.514,0.0,0.0,0.0,-178.407,-58.458,-7.18,-26.827,-12.513,14.473,27.41,-0.01776,-0.87137,0.04654,-0.48798,601
152,0.938,0.036,-0.385,-0.061,0.0,0.0,174.463,-67.5,-24.011,-27.413,-11.907,4.36,24.47,-0.15482,-0.80664,0.19916,-0.53439,612,1.0,-0.089,-0.051,0.061,0.061,0.183,-119.778,-84.045,-4.592,-29.24,-8.68,18.607,23.89,-0.34842,0.65585,0.30927,0.59387,610.0,0.911,-0.055,0.391,-0.061,0.305,0.366,-8.366,-66.506,160.664,-22.733,-10.267,-16.327,26.0,-0.17929,-0.52887,0.15173,-0.81549,608.0,0.841,-0.012,-0.517,0.0,0.061,0.0,-178.407,-58.458,-7.196,-26.827,-12.513,14.473,27.41,-0.01776,-0.87137,0.04654,-0.48798,614
153,0.938,0.037,-0.387,0.0,-0.061,0.0,174.463,-67.5,-24.011,-27.413,-11.907,4.36,24.47,-0.15482,-0.80664,0.19916,-0.53439,613,0.999,-0.089,-0.052,0.061,0.122,0.244,-119.734,-84.04,-4.614,-29.24,-8.68,18.607,23.89,-0.34842,0.65585,0.30927,0.59387,611.0,0.911,-0.054,0.393,-0.183,0.427,0.244,-8.377,-66.495,160.659,-22.733,-10.267,-16.327,26.0,-0.17929,-0.52887,0.15173,-0.81549,609.0,0.841,-0.012,-0.516,-0.061,0.122,0.0,-178.412,-58.458,-7.218,-26.827,-12.513,14.473,27.41,-0.01776,-0.87137,0.04654,-0.48798,615
154,0.938,0.036,-0.389,-0.183,0.0,0.0,174.463,-67.5,-24.005,-27.413,-11.907,4.36,24.47,-0.15466,-0.8067,0.19894,-0.53442,616,1.0,-0.089,-0.051,0.244,0.061,0.427,-119.685,-84.034,-4.647,-29.24,-8.68,18.607,23.89,-0.34842,0.65585,0.30927,0.59387,620.0,0.913,-0.052,0.394,-0.244,0.427,0.305,-8.383,-66.489,160.659,-22.84,-10.447,-16.68,26.0,-0.17929,-0.52887,0.15173,-0.81549,618.0,0.841,-0.013,-0.516,-0.061,0.061,0.0,-178.412,-58.464,-7.234,-26.827,-12.513,14.473,27.41,-0.01776,-0.87137,0.04654,-0.48798,622
155,0.939,0.036,-0.39,0.0,0.0,0.0,174.463,-67.5,-24.0,-27.413,-11.907,4.36,24.47,-0.15466,-0.8067,0.19894,-0.53442,617,1.0,-0.09,-0.052,0.366,0.122,0.366,-119.625,-84.034,-4.686,-29.24,-8.68,18.607,23.89,-0.34842,0.65585,0.30927,0.59387,621.0,0.912,-0.055,0.393,0.0,0.122,0.61,-8.394,-66.478,160.648,-22.84,-10.447,-16.68,26.0,-0.17929,-0.52887,0.15173,-0.81549,619.0,0.841,-0.012,-0.519,0.0,0.061,0.0,-178.418,-58.464,-7.256,-26.827,-12.513,14.473,27.41,-0.01776,-0.87137,0.04654,-0.48798,623
156,0.938,0.037,-0.391,0.0,0.061,0.0,174.463,-67.5,-24.0,-27.413,-11.907,4.36,24.47,-0.15466,-0.8067,0.19894,-0.53442,626,1.0,-0.094,-0.052,0.122,0.061,0.244,-119.592,-84.029,-4.697,-29.24,-8.68,18.607,23.89,-0.34842,0.65585,0.30927,0.59387,630.0,0.912,-0.059,0.393,-0.061,0.0,0.671,-8.416,-66.478,160.675,-22.84,-10.447,-16.68,26.0,-0.17963,-0.52856,0.15225,-0.81549,628.0,0.841,-0.013,-0.519,0.0,-0.061,0.0,-178.418,-58.464,-7.273,-27.573,-12.593,15.013,27.41,-0.01776,-0.87137,0.04654,-0.48798,624
157,0.938,0.037,-0.389,-0.183,0.061,0.0,174.463,-67.5,-23.994,-27.413,-11.907,4.36,24.47,-0.15466,-0.8067,0.19894,-0.53442,627,1.0,-0.095,-0.052,0.061,0.0,0.122,-119.581,-84.029,-4.691,-29.24,-8.68,18.607,23.89,-0.34842,0.65585,0.30927,0.59387,631.0,0.913,-0.062,0.394,-0.305,0.0,0.366,-8.443,-66.473,160.719,-22.84,-10.447,-16.68,26.0,-0.17963,-0.52856,0.15225,-0.81549,629.0,0.841,-0.015,-0.518,-0.061,-0.183,0.0,-178.423,-58.458,-7.295,-27.573,-12.593,15.013,27.41,-0.01776,-0.87137,0.04654,-0.48798,625
158,0.938,0.037,-0.39,-0.122,0.122,0.0,174.463,-67.5,-23.989,-27.413,-11.907,4.36,24.47,-0.15466,-0.8067,0.19894,-0.53442,634,1.0,-0.094,-0.055,0.183,-0.061,0.0,-119.586,-84.023,-4.664,-29.24,-8.68,18.607,23.89,-0.34842,0.65585,0.30927,0.59387,638.0,0.913,-0.061,0.391,-0.183,0.0,0.244,-8.459,-66.473,160.73,-22.84,-10.447,-16.68,26.0,-0.17963,-0.52856,0.15225,-0.81549,632.0,0.84,-0.016,-0.518,0.061,-0.183,0.0,-178.423,-58.453,-7.311,-27.573,-12.593,15.013,27.41,-0.01776,-0.87137,0.04654,-0.48798,636
159,0.938,0.037,-0.39,0.061,0.183,0.0,174.463,-67.5,-23.983,-27.413,-11.907,4.36,24.47,-0.15466,-0.8067,0.19894,-0.53442,635,0.999,-0.092,-0.055,0.366,-0.061,0.0,-119.592,-84.023,-4.636,-29.24,-8.68,18.607,23.89,-0.34842,0.65585,0.30927,0.59387,639.0,0.912,-0.058,0.39,0.305,-0.122,0.366,-8.47,-66.473,160.719,-22.84,-10.447,-16.68,26.0,-0.17963,-0.52856,0.15225,-0.81549,633.0,0.84,-0.016,-0.519,0.122,0.0,0.0,-178.423,-58.453,-7.328,-27.573,-12.593,15.013,27.41,-0.01776,-0.87137,0.04654,-0.48798,637
160,0.938,0.036,-0.39,0.061,0.183,0.0,174.463,-67.505,-23.983,-27.413,-11.907,4.36,24.47,-0.15466,-0.8067,0.19894,-0.53442,646,0.999,-0.089,-0.052,0.305,0.0,0.061,-119.581,-84.023,-4.625,-29.24,-8.68,18.607,23.89,-0.34842,0.65585,0.30927,0.59387,644.0,0.91,-0.055,0.39,0.305,-0.122,0.427,-8.481,-66.473,160.719,-22.84,-10.447,-16.68,26.0,-0.17963,-0.52856,0.15225,-0.81549,642.0,0.841,-0.014,-0.519,0.183,0.0,0.0,-178.418,-58.453,-7.344,-27.573,-12.593,15.013,27.41,-0.01923,-0.87122,0.0491,-0.48798,640
161,0.938,0.036,-0.389,0.061,0.183,0.0,174.468,-67.505,-23.978,-27.413,-11.907,4.36,24.47,-0.15466,-0.8067,0.19894,-0.53442,647,0.999,-0.087,-0.049,0.0,0.122,0.061,-119.559,-84.023,-4.631,-29.24,-8.68,18.607,23.89,-0.34842,0.65585,0.30927,0.59387,645.0,0.907,-0.055,0.393,0.061,0.0,0.366,-8.492,-66.478,160.73,-22.84,-10.447,-16.68,26.0,-0.17963,-0.52856,0.15225,-0.81549,643.0,0.841,-0.011,-0.517,0.122,0.061,0.0,-178.418,-58.453,-7.366,-27.573,-12.593,15.013,27.41,-0.01923,-0.87122,0.0491,-0.48798,641
162,0.938,0.038,-0.387,0.061,0.122,0.0,174.468,-67.505,-23.972,-27.413,-11.907,4.36,24.47,-0.15466,-0.8067,0.19894,-0.53442,648,0.998,-0.087,-0.047,-0.244,0.122,0.0,-119.548,-84.023,-4.636,-29.24,-8.68,18.607,23.89,-0.34842,0.65585,0.30927,0.59387,654.0,0.908,-0.055,0.396,-0.549,0.366,0.0,-8.503,-66.473,160.735,-22.84,-10.447,-16.68,26.0,-0.17963,-0.52856,0.15225,-0.81549,652.0,0.841,-0.009,-0.514,0.0,0.061,0.0,-178.418,-58.453,-7.383,-27.573,-12.593,15.013,27.41,-0.01923,-0.87122,0.0491,-0.48798,650
163,0.938,0.038,-0.385,0.0,0.0,0.0,174.468,-67.505,-23.972,-27.413,-11.907,4.36,24.47,-0.15466,-0.8067,0.19894,-0.53442,649,1.0,-0.09,-0.048,-0.305,0.0,0.0,-119.553,-84.023,-4.62,-29.24,-8.68,18.607,23.89,-0.34842,0.65585,0.30927,0.59387,655.0,0.91,-0.056,0.396,-0.671,0.244,-0.244,-8.509,-66.467,160.719,-22.84,-10.447,-16.68,26.0,-0.17963,-0.52856,0.15225,-0.81549,653.0,0.842,-0.01,-0.513,0.0,0.061,0.0,-178.418,-58.453,-7.399,-27.573,-12.593,15.013,27.41,-0.01923,-0.87122,0.0491,-0.48798,651
164,0.938,0.038,-0.386,-0.061,-0.122,0.0,174.468,-67.505,-23.967,-27.413,-11.907,4.36,24.47,-0.15466,-0.8067,0.19894,-0.53442,656,1.0,-0.093,-0.048,-0.122,-0.122,-0.061,-119.575,-84.023,-4.576,-29.267,-8.78,18.507,23.89,-0.34842,0.65585,0.30927,0.59387,662.0,0.911,-0.058,0.396,-0.366,-0.061,-0.244,-8.503,-66.462,160.697,-22.84,-10.447,-16.68,26.0,-0.17963,-0.52856,0.15225,-0.81549,660.0,0.841,-0.013,-0.514,0.0,0.061,0.0,-178.423,-58.453,-7.416,-27.573,-12.593,15.013,27.41,-0.01923,-0.87122,0.0491,-0.48798,658
165,0.939,0.037,-0.387,-0.122,-0.061,0.0,174.468,-67.5,-23.967,-27.413,-11.907,4.36,24.47,-0.15466,-0.8067,0.19894,-0.53442,657,1.0,-0.094,-0.052,0.0,-0.305,0.0,-119.619,-84.023,-4.51,-29.267,-8.78,18.507,23.89,-0.34842,0.65585,0.30927,0.59387,663.0,0.912,-0.059,0.394,0.0,-0.427,0.0,-8.498,-66.467,160.708,-22.84,-10.447,-16.68,26.0,-0.17963,-0.52856,0.15225,-0.81549,661.0,0.842,-0.016,-0.517,0.183,0.0,0.0,-178.418,-58.453,-7.432,-27.573,-12.593,15.013,27.41,-0.01923,-0.87122,0.0491,-0.48798,659
166,0.938,0.036,-0.386,-0.122,0.0,0.0,174.468,-67.5,-23.961,-27.413,-11.907,4.36,24.47,-0.15466,-0.8067,0.19894,-0.53442,664,1.0,-0.094,-0.053,0.061,-0.183,0.0,-119.641,-84.018,-4.46,-29.267,-8.78,18.507,23.89,-0.34842,0.65585,0.30927,0.59387,674.0,0.912,-0.06,0.392,0.0,-0.122,0.122,-8.498,-66.473,160.741,-22.84,-10.447,-16.68,26.0,-0.17963,-0.52856,0.15225,-0.81549,668.0,0.841,-0.016,-0.515,0.244,0.0,0.0,-178.418,-58.453,-7.449,-27.573,-12.593,15.013,27.41,-0.01923,-0.87122,0.0491,-0.48798,666
167,0.938,0.035,-0.387,0.0,0.0,0.0,174.468,-67.5,-23.956,-27.413,-11.907,4.36,24.47,-0.15466,-0.8067,0.19894,-0.53442,665,1.0,-0.09,-0.053,0.061,-0.061,0.0,-119.647,-84.018,-4.433,-29.267,-8.78,18.507,23.89,-0.34842,0.65585,0.30927,0.59387,675.0,0.911,-0.058,0.39,0.0,0.0,0.0,-8.503,-66.473,160.785,-22.84,-10.447,-16.68,26.0,-0.17963,-0.52856,0.15225,-0.81549,669.0,0.841,-0.015,-0.517,0.244,0.122,0.0,-178.412,-58.458,-7.465,-27.573,-12.593,15.013,27.41,-0.01923,-0.87122,0.0491,-0.48798,667
168,0.938,0.036,-0.387,0.305,0.0,0.0,174.474,-67.5,-23.956,-27.413,-11.907,4.36,24.47,-0.15466,-0.8067,0.19894,-0.53442,676,0.999,-0.087,-0.052,0.0,0.0,-0.061,-119.652,-84.018,-4.411,-29.267,-8.78,18.507,23.89,-0.35086,0.65479,0.31137,0.59253,678.0,0.911,-0.054,0.392,0.0,0.183,-0.061,-8.498,-66.473,160.818,-22.853,-10.013,-15.833,26.0,-0.17963,-0.52856,0.15225,-0.81549,672.0,0.841,-0.013,-0.517,0.366,0.244,0.0,-178.407,-58.464,-7.482,-27.573,-12.593,15.013,27.41,-0.01923,-0.87122,0.0491,-0.48798,670
169,0.938,0.038,-0.389,0.244,0.122,0.0,174.479,-67.5,-23.95,-27.413,-11.907,4.36,24.47,-0.15466,-0.8067,0.19894,-0.53442,677,0.998,-0.088,-0.051,-0.244,0.0,-0.122,-119.669,-84.023,-4.384,-29.267,-8.78,18.507,23.89,-0.35086,0.65479,0.31137,0.59253,679.0,0.909,-0.055,0.394,-0.122,0.0,-0.122,-8.492,-66.467,160.851,-22.853,-10.013,-15.833,26.0,-0.17963,-0.52856,0.15225,-0.81549,673.0,0.841,-0.01,-0.517,0.122,0.244,0.0,-178.401,-58.464,-7.498,-27.573,-12.593,15.013,27.41,-0.01923,-0.87122,0.0491,-0.48798,671
170,0.938,0.038,-0.39,-0.122,0.122,0.0,174.479,-67.505,-23.95,-27.487,-12.32,4.96,24.47,-0.15466,-0.8067,0.19894,-0.53442,686,1.0,-0.093,-0.05,-0.366,-0.122,-0.244,-119.702,-84.023,-4.345,-29.267,-8.78,18.507,23.89,-0.35086,0.65479,0.31137,0.59253,684.0,0.91,-0.058,0.395,-0.366,-0.061,-0.427,-8.481,-66.473,160.878,-22.853,-10.013,-15.833,26.0,-0.17963,-0.52856,0.15225,-0.81549,682.0,0.841,-0.011,-0.516,-0.061,0.122,0.0,-178.407,-58.469,-7.515,-27.573,-12.593,15.013,27.41,-0.01923,-0.87122,0.0491,-0.48798,680
171,0.938,0.038,-0.39,-0.427,0.0,0.0,174.468,-67.505,-23.945,-27.487,-12.32,4.96,24.47,-0.15466,-0.8067,0.19894,-0.53442,687,1.0,-0.092,-0.052,-0.244,-0.244,-0.244,-119.751,-84.029,-4.285,-29.267,-8.78,18.507,23.89,-0.35086,0.65479,0.31137,0.59253,685.0,0.911,-0.06,0.395,-0.366,-0.061,-0.549,-8.465,-66.473,160.889,-22.853,-10.013,-15.833,26.0,-0.17963,-0.52856,0.15225,-0.81549,683.0,0.842,-0.014,-0.516,-0.122,0.061,0.0,-178.407,-58.469,-7.531,-27.573,-12.593,15.013,27.41,-0.01923,-0.87122,0.0491,-0.48798,681
172,0.938,0.037,-0.391,-0.366,-0.122,0.0,174.463,-67.5,-23.945,-27.487,-12.32,4.96,24.47,-0.15436,-0.80682,0.19849,-0.53452,694,1.0,-0.09,-0.054,-0.122,-0.122,-0.244,-119.811,-84.029,-4.208,-29.267,-8.78,18.507,23.89,-0.35086,0.65479,0.31137,0.59253,692.0,0.913,-0.057,0.393,-0.244,0.0,-0.488,-8.448,-66.473,160.895,-22.853,-10.013,-15.833,26.0,-0.17844,-0.52872,0.1517,-0.81577,690.0,0.841,-0.015,-0.517,0.0,0.0,0.0,-178.412,-58.469,-7.548,-27.573,-12.593,15.013,27.41,-0.01923,-0.87122,0.0491,-0.48798,688
173,0.938,0.036,-0.39,-0.183,-0.061,0.0,174.463,-67.495,-23.939,-27.487,-12.32,4.96,24.47,-0.15436,-0.80682,0.19849,-0.53452,695,0.999,-0.089,-0.053,-0.244,-0.122,-0.244,-119.855,-84.034,-4.147,-29.267,-8.78,18.507,23.89,-0.35086,0.65479,0.31137,0.59253,693.0,0.912,-0.056,0.391,0.0,-0.061,-0.427,-8.427,-66.473,160.906,-22.853,-10.013,-15.833,26.0,-0.17844,-0.52872,0.1517,-0.81577,691.0,0.841,-0.014,-0.517,0.061,0.0,0.0,-178.412,-58.469,-7.564,-27.573,-12.593,15.013,27.41,-0.01923,-0.87122,0.0491,-0.48798,689
174,0.938,0.035,-0.387,0.0,0.0,0.0,174.463,-67.495,-23.939,-27.487,-12.32,4.96,24.47,-0.15436,-0.80682,0.19849,-0.53452,700,0.999,-0.089,-0.051,-0.366,-0.122,-0.305,-119.905,-84.034,-4.087,-29.267,-8.78,18.507,23.89,-0.35086,0.65479,0.31137,0.59253,698.0,0.911,-0.055,0.392,0.0,-0.061,-0.427,-8.41,-66.478,160.922,-22.853,-10.013,-15.833,26.0,-0.17844,-0.52872,0.1517,-0.81577,696.0,0.841,-0.013,-0.518,0.061,0.0,0.0,-178.412,-58.469,-7.575,-27.113,-12.413,15.087,27.41,-0.01923,-0.87122,0.0491,-0.48798,702
175,0.938,0.036,-0.386,0.0,0.0,0.0,174.468,-67.495,-23.934,-27.487,-12.32,4.96,24.47,-0.15436,-0.80682,0.19849,-0.53452,701,1.0,-0.09,-0.051,-0.305,0.0,-0.183,-119.949,-84.04,-4.032,-29.267,-8.78,18.507,23.89,-0.35086,0.65479,0.31137,0.59253,699.0,0.911,-0.055,0.393,-0.366,-0.122,-0.61,-8.388,-66.478,160.928,-22.853,-10.013,-15.833,26.0,-0.17844,-0.52872,0.1517,-0.81577,697.0,0.842,-0.013,-0.517,0.061,0.0,0.0,-178.412,-58.469,-7.592,-27.113,-12.413,15.087,27.41,-0.01923,-0.87122,0.0491,-0.48798,703
176,0.938,0.037,-0.387,-0.061,0.0,0.0,174.468,-67.495,-23.934,-27.487,-12.32,4.96,24.47,-0.15436,-0.80682,0.19849,-0.53452,704,1.0,-0.091,-0.051,-0.061,0.0,-0.122,-119.971,-84.04,-3.999,-29.267,-8.78,18.507,23.89,-0.35086,0.65479,0.31137,0.59253,710.0,0.911,-0.054,0.394,-0.427,-0.061,-0.488,-8.366,-66.484,160.933,-22.853,-10.013,-15.833,26.0,-0.17844,-0.52872,0.1517,-0.81577,706.0,0.842,-0.013,-0.515,-0.061,0.061,0.0,-178.412,-58.469,-7.608,-27.113,-12.413,15.087,27.41,-0.02036,-0.871,0.05115,-0.48807,708
177,0.938,0.036,-0.388,-0.183,0.0,0.0,174.463,-67.495,-23.928,-27.487,-12.32,4.96,24.47,-0.15436,-0.80682,0.19849,-0.53452,705,0.999,-0.09,-0.053,0.0,0.0,-0.061,-119.976,-84.045,-3.977,-29.267,-8.78,18.507,23.89,-0.35086,0.65479,0.31137,0.59253,711.0,0.912,-0.054,0.393,-0.122,-0.183,-0.183,-8.355,-66.484,160.95,-22.853,-10.013,-15.833,26.0,-0.17844,-0.52872,0.1517,-0.81577,707.0,0.841,-0.014,-0.515,-0.061,0.061,0.0,-178.412,-58.469,-7.619,-27.113,-12.413,15.087,27.41,-0.02036,-0.871,0.05115,-0.48807,709
178,0.938,0.037,-0.388,-0.122,0.0,0.0,174.463,-67.495,-23.928,-27.487,-12.32,4.96,24.47,-0.15436,-0.80682,0.19849,-0.53452,714,0.999,-0.091,-0.052,0.061,0.0,-0.061,-119.982,-84.045,-3.955,-29.267,-8.78,18.507,23.89,-0.35086,0.65479,0.31137,0.59253,718.0,0.912,-0.055,0.393,0.0,-0.305,-0.061,-8.344,-66.489,160.972,-22.853,-10.013,-15.833,26.0,-0.17844,-0.52872,0.1517,-0.81577,712.0,0.842,-0.014,-0.516,0.0,0.061,0.0,-178.418,-58.475,-7.635,-27.113,-12.413,15.087,27.41,-0.02036,-0.871,0.05115,-0.48807,716
179,0.938,0.037,-0.388,-0.061,0.0,0.0,174.463,-67.489,-23.923,-27.487,-12.32,4.96,24.47,-0.15436,-0.80682,0.19849,-0.53452,715,0.999,-0.089,-0.051,0.061,0.0,-0.061,-119.987,-84.045,-3.939,-29.267,-8.78,18.507,23.89,-0.35086,0.65479,0.31137,0.59253,719.0,0.91,-0.056,0.392,0.061,-0.305,0.0,-8.344,-66.495,161.005,-22.853,-10.013,-15.833,26.0,-0.17844,-0.52872,0.1517,-0.81577,713.0,0.841,-0.013,-0.517,0.122,0.061,0.0,-178.412,-58.475,-7.652,-27.113,-12.413,15.087,27.41,-0.02036,-0.871,0.05115,-0.48807,717
180,0.938,0.037,-0.387,0.0,0.0,0.0,174.463,-67.489,-23.923,-27.487,-12.32,4.96,24.47,-0.15436,-0.80682,0.19849,-0.53452,724,1.0,-0.087,-0.05,0.0,-0.061,0.0,-119.987,-84.045,-3.917,-29.267,-8.78,18.507,23.89,-0.35086,0.65479,0.31137,0.59253,728.0,0.91,-0.055,0.393,0.0,-0.183,0.061,-8.339,-66.5,161.038,-22.853,-10.013,-15.833,26.0,-0.17844,-0.52872,0.1517,-0.81577,720.0,0.84,-0.014,-0.517,0.061,0.061,0.0,-178.412,-58.475,-7.663,-27.113,-12.413,15.087,27.41,-0.02036,-0.871,0.05115,-0.48807,722
181,0.938,0.037,-0.389,0.0,0.0,0.0,174.468,-67.489,-23.917,-27.487,-12.32,4.96,24.47,-0.15436,-0.80682,0.19849,-0.53452,725,1.0,-0.087,-0.052,-0.061,-0.061,0.0,-119.998,-84.045,-3.895,-29.267,-8.78,18.507,23.89,-0.35086,0.65479,0.31137,0.59253,729.0,0.912,-0.053,0.394,-0.183,0.0,0.0,-8.339,-66.506,161.071,-22.853,-10.013,-15.833,26.0,-0.17844,-0.52872,0.1517,-0.81577,721.0,0.841,-0.013,-0.516,0.122,0.061,0.0,-178.412,-58.475,-7.679,-27.113,-12.413,15.087,27.41,-0.02036,-0.871,0.05115,-0.48807,723
182,0.938,0.037,-0.39,0.0,0.0,0.0,174.468,-67.489,-23.917,-27.487,-12.32,4.96,24.47,-0.15436,-0.80682,0.19849,-0.53452,726,1.0,-0.09,-0.055,0.0,0.0,-0.122,-120.009,-84.045,-3.867,-29.32,-9.113,17.46,23.89,-0.35086,0.65479,0.31137,0.59253,734.0,0.913,-0.054,0.392,-0.183,-0.122,-0.061,-8.339,-66.506,161.104,-22.853,-10.013,-15.833,26.0,-0.17844,-0.52872,0.1517,-0.81577,732.0,0.841,-0.011,-0.516,0.061,0.0,0.0,-178.412,-58.475,-7.69,-27.113,-12.413,15.087,27.41,-0.02036,-0.871,0.05115,-0.48807,730
183,0.938,0.038,-0.389,-0.061,-0.061,0.0,174.468,-67.489,-23.912,-27.487,-12.32,4.96,24.47,-0.15436,-0.80682,0.19849,-0.53452,727,1.0,-0.091,-0.055,0.0,0.122,-0.061,-120.015,-84.051,-3.851,-29.32,-9.113,17.46,23.89,-0.35086,0.65479,0.31137,0.59253,735.0,0.914,-0.056,0.389,0.122,-0.183,-0.122,-8.333,-66.506,161.131,-22.853,-10.013,-15.833,26.0,-0.17844,-0.52872,0.1517,-0.81577,733.0,0.841,-0.011,-0.516,0.0,-0.061,0.0,-178.412,-58.475,-7.707,-27.113,-12.413,15.087,27.41,-0.02036,-0.871,0.05115,-0.48807,731
184,0.938,0.037,-0.389,-0.061,-0.122,0.0,174.468,-67.484,-23.912,-27.487,-12.32,4.96,24.47,-0.15436,-0.80682,0.19849,-0.53452,740,0.999,-0.092,-0.052,0.061,0.183,0.0,-119.998,-84.051,-3.856,-29.32,-9.113,17.46,23.89,-0.35086,0.65479,0.31137,0.59253,742.0,0.912,-0.056,0.389,0.427,-0.061,-0.122,-8.322,-66.511,161.153,-23.02,-10.06,-15.647,26.0,-0.17844,-0.52872,0.1517,-0.81577,738.0,0.842,-0.013,-0.518,0.0,0.0,0.0,-178.418,-58.475,-7.718,-27.113,-12.413,15.087,27.41,-0.02036,-0.871,0.05115,-0.48807,736
185,0.938,0.037,-0.388,-0.061,-0.061,0.0,174.468,-67.484,-23.912,-27.487,-12.32,4.96,24.47,-0.15436,-0.80682,0.19849,-0.53452,741,1.0,-0.089,-0.05,0.122,0.061,0.061,-119.976,-84.051,-3.867,-29.32,-9.113,17.46,23.89,-0.35086,0.65479,0.31137,0.59253,743.0,0.912,-0.056,0.391,0.366,0.122,0.0,-8.306,-66.511,161.18,-23.02,-10.06,-15.647,26.0,-0.17844,-0.52872,0.1517,-0.81577,739.0,0.841,-0.015,-0.515,0.061,0.061,0.0,-178.418,-58.475,-7.734,-27.113,-12.413,15.087,27.41,-0.02036,-0.871,0.05115,-0.48807,737
186,0.939,0.037,-0.389,0.0,-0.122,0.0,174.463,-67.478,-23.906,-27.06,-11.9,5.22,24.47,-0.15436,-0.80682,0.19849,-0.53452,746,0.999,-0.087,-0.051,0.183,0.061,0.122,-119.954,-84.051,-3.873,-29.32,-9.113,17.46,23.89,-0.35172,0.65414,0.3129,0.59192,756.0,0.912,-0.053,0.394,0.183,0.305,0.122,-8.3,-66.506,161.208,-23.02,-10.06,-15.647,26.0,-0.1752,-0.52969,0.14893,-0.81638,748.0,0.842,-0.015,-0.517,0.0,0.122,0.0,-178.418,-58.475,-7.745,-27.113,-12.413,15.087,27.41,-0.02036,-0.871,0.05115,-0.48807,744
187,0.938,0.035,-0.39,-0.122,-0.061,0.0,174.468,-67.478,-23.906,-27.06,-11.9,5.22,24.47,-0.15436,-0.80682,0.19849,-0.53452,747,1.0,-0.085,-0.05,0.427,0.0,0.244,-119.932,-84.051,-3.884,-29.32,-9.113,17.46,23.89,-0.35172,0.65414,0.3129,0.59192,757.0,0.911,-0.052,0.395,0.0,0.061,0.183,-8.295,-66.5,161.241,-23.02,-10.06,-15.647,26.0,-0.1752,-0.52969,0.14893,-0.81638,749.0,0.842,-0.013,-0.517,0.061,0.061,0.0,-178.418,-58.48,-7.756,-27.113,-12.413,15.087,27.41,-0.02036,-0.871,0.05115,-0.48807,745
188,0.938,0.035,-0.39,0.122,-0.183,0.0,174.468,-67.473,-23.906,-27.06,-11.9,5.22,24.47,-0.15436,-0.80682,0.19849,-0.53452,754,1.0,-0.087,-0.051,0.61,0.0,0.366,-119.899,-84.045,-3.895,-29.32,-9.113,17.46,23.89,-0.35172,0.65414,0.3129,0.59192,758.0,0.912,-0.049,0.394,0.061,-0.305,0.305,-8.3,-66.5,161.279,-23.02,-10.06,-15.647,26.0,-0.1752,-0.52969,0.14893,-0.81638,752.0,0.842,-0.012,-0.517,0.0,0.0,0.0,-178.418,-58.48,-7.773,-27.113,-12.413,15.087,27.41,-0.02036,-0.871,0.05115,-0.48807,750
189,0.938,0.038,-0.389,0.244,-0.122,0.0,174.474,-67.473,-23.901,-27.06,-11.9,5.22,24.47,-0.15436,-0.80682,0.19849,-0.53452,755,1.0,-0.093,-0.052,0.61,0.0,0.427,-119.85,-84.04,-3.922,-29.32,-9.113,17.46,23.89,-0.35172,0.65414,0.3129,0.59192,759.0,0.912,-0.051,0.393,0.366,-0.61,0.427,-8.311,-66.511,161.329,-23.02,-10.06,-15.647,26.0,-0.1752,-0.52969,0.14893,-0.81638,753.0,0.842,-0.01,-0.516,0.122,-0.061,0.0,-178.418,-58.475,-7.784,-27.113,-12.413,15.087,27.41,-0.02036,-0.871,0.05115,-0.48807,751
190,0.938,0.037,-0.389,-0.061,-0.061,0.0,174.479,-67.467,-23.901,-27.06,-11.9,5.22,24.47,-0.15408,-0.80704,0.19818,-0.53436,766,1.0,-0.094,-0.052,0.549,0.0,0.305,-119.806,-84.034,-3.95,-29.32,-9.113,17.46,23.89,-0.35172,0.65414,0.3129,0.59192,762.0,0.912,-0.056,0.391,0.305,-0.671,0.732,-8.322,-66.517,161.384,-23.02,-10.06,-15.647,26.0,-0.1752,-0.52969,0.14893,-0.81638,764.0,0.841,-0.012,-0.517,0.183,-0.122,0.0,-178.418,-58.475,-7.795,-27.113,-12.413,15.087,27.41,-0.02036,-0.871,0.05115,-0.48807,760
191,0.937,0.038,-0.388,-0.122,-0.183,0.0,174.479,-67.467,-23.901,-27.06,-11.9,5.22,24.47,-0.15408,-0.80704,0.19818,-0.53436,767,0.999,-0.092,-0.053,0.305,0.061,0.061,-119.773,-84.029,-3.961,-29.32,-9.113,17.46,23.89,-0.35172,0.65414,0.3129,0.59192,763.0,0.914,-0.061,0.391,0.244,-0.427,0.61,-8.344,-66.528,161.455,-23.02,-10.06,-15.647,26.0,-0.1752,-0.52969,0.14893,-0.81638,765.0,0.841,-0.015,-0.517,0.061,-0.183,0.0,-178.418,-58.469,-7.806,-27.113,-12.413,15.087,27.41,-0.02036,-0.871,0.05115,-0.48807,761
192,0.937,0.038,-0.388,0.0,-0.061,0.0,174.479,-67.462,-23.895,-27.06,-11.9,5.22,24.47,-0.15408,-0.80704,0.19818,-0.53436,772,1.0,-0.091,-0.054,0.183,0.183,0.0,-119.751,-84.029,-3.966,-29.32,-9.113,17.46,23.89,-0.35172,0.65414,0.3129,0.59192,770.0,0.913,-0.06,0.389,0.244,-0.244,0.183,-8.361,-66.533,161.51,-23.02,-10.06,-15.647,26.0,-0.1752,-0.52969,0.14893,-0.81638,768.0,0.841,-0.014,-0.516,0.061,-0.183,0.0,-178.418,-58.464,-7.822,-27.147,-12.793,14.373,27.41,-0.02036,-0.871,0.05115,-0.48807,774
193,0.938,0.037,-0.389,-0.122,-0.061,0.0,174.479,-67.456,-23.895,-27.06,-11.9,5.22,24.47,-0.15408,-0.80704,0.19818,-0.53436,773,0.999,-0.092,-0.052,0.122,0.244,-0.061,-119.718,-84.034,-3.988,-29.32,-9.113,17.46,23.89,-0.35172,0.65414,0.3129,0.59192,771.0,0.912,-0.057,0.388,0.488,-0.305,0.061,-8.361,-66.539,161.543,-23.02,-10.06,-15.647,26.0,-0.1752,-0.52969,0.14893,-0.81638,769.0,0.841,-0.014,-0.516,0.061,-0.183,0.0,-178.418,-58.464,-7.833,-27.147,-12.793,14.373,27.41,-0.02036,-0.871,0.05115,-0.48807,775
194,0.938,0.035,-0.39,-0.305,-0.122,0.0,174.474,-67.456,-23.895,-27.06,-11.9,5.22,24.47,-0.15408,-0.80704,0.19818,-0.53436,776,1.0,-0.091,-0.05,0.183,0.305,0.0,-119.68,-84.034,-4.016,-29.32,-9.113,17.46,23.89,-0.35172,0.65414,0.3129,0.59192,780.0,0.911,-0.057,0.39,0.732,-0.366,0.122,-8.355,-66.544,161.576,-23.02,-10.06,-15.647,26.0,-0.1752,-0.52969,0.14893,-0.81638,778.0,0.841,-0.015,-0.517,0.122,-0.122,0.0,-178.418,-58.458,-7.844,-27.147,-12.793,14.373,27.41,-0.02139,-0.87094,0.05295,-0.48795,782
195,0.938,0.035,-0.39,-0.305,-0.183,0.0,174.474,-67.451,-23.89,-27.06,-11.9,5.22,24.47,-0.15408,-0.80704,0.19818,-0.53436,777,0.999,-0.089,-0.049,0.061,0.305,0.0,-119.63,-84.04,-4.054,-29.32,-9.113,17.46,23.89,-0.35172,0.65414,0.3129,0.59192,781.0,0.909,-0.055,0.392,0.549,-0.244,0.122,-8.344,-66.555,161.609,-23.02,-10.06,-15.647,26.0,-0.1752,-0.52969,0.14893,-0.81638,779.0,0.841,-0.013,-0.516,0.0,0.0,0.0,-178.418,-58.458,-7.855,-27.147,-12.793,14.373,27.41,-0.02139,-0.87094,0.05295,-0.48795,783
196,0.938,0.035,-0.389,-0.183,-0.305,0.0,174.468,-67.445,-23.89,-27.06,-11.9,5.22,24.47,-0.15408,-0.80704,0.19818,-0.53436,786,1.0,-0.09,-0.049,0.061,0.183,0.061,-119.581,-84.04,-4.092,-29.32,-9.113,17.46,23.89,-0.35172,0.65414,0.3129,0.59192,788.0,0.91,-0.054,0.393,0.244,-0.122,0.061,-8.344,-66.555,161.642,-23.02,-10.06,-15.647,26.0,-0.1752,-0.52969,0.14893,-0.81638,784.0,0.841,-0.014,-0.515,0.0,0.0,0.0,-178.418,-58.458,-7.866,-27.147,-12.793,14.373,27.41,-0.02139,-0.87094,0.05295,-0.48795,790
197,0.938,0.036,-0.389,-0.122,-0.244,0.0,174.468,-67.44,-23.89,-27.06,-11.9,5.22,24.47,-0.15408,-0.80704,0.19818,-0.53436,787,1.0,-0.091,-0.049,0.305,0.061,0.183,-119.542,-84.04,-4.114,-29.32,-9.113,17.46,23.89,-0.35172,0.65414,0.3129,0.59192,789.0,0.912,-0.054,0.395,-0.183,-0.122,0.0,-8.339,-66.561,161.669,-23.02,-10.06,-15.647,26.0,-0.1752,-0.52969,0.14893,-0.81638,785.0,0.841,-0.014,-0.515,-0.061,-0.122,0.0,-178.418,-58.458,-7.877,-27.147,-12.793,14.373,27.41,-0.02139,-0.87094,0.05295,-0.48795,791
198,0.938,0.036,-0.389,0.0,-0.244,0.0,174.468,-67.434,-23.89,-27.06,-11.9,5.22,24.47,-0.15408,-0.80704,0.19818,-0.53436,796,0.999,-0.091,-0.052,0.305,-0.061,0.122,-119.509,-84.04,-4.125,-29.32,-9.113,17.46,23.89,-0.35172,0.65414,0.3129,0.59192,798.0,0.913,-0.054,0.394,-0.061,-0.427,0.183,-8.344,-66.561,161.702,-22.76,-10.16,-16.36,26.0,-0.1752,-0.52969,0.14893,-0.81638,792.0,0.841,-0.014,-0.517,0.0,-0.183,0.0,-178.418,-58.453,-7.888,-27.147,-12.793,14.373,27.41,-0.02139,-0.87094,0.05295,-0.48795,794
199,0.937,0.037,-0.387,0.0,-0.183,0.0,174.474,-67.429,-23.89,-27.06,-11.9,5.22,24.47,-0.15408,-0.80704,0.19818,-0.53436,797,1.0,-0.092,-0.053,0.305,0.0,0.0,-119.504,-84.034,-4.114,-29.32,-9.113,17.46,23.89,-0.35172,0.65414,0.3129,0.59192,799.0,0.913,-0.056,0.39,0.183,-0.732,0.366,-8.35,-66.572,161.741,-22.76,-10.16,-16.36,26.0,-0.1752,-0.52969,0.14893,-0.81638,793.0,0.841,-0.014,-0.517,0.061,-0.183,0.0,-178.418,-58.453,-7.899,-27.147,-12.793,14.373,27.41,-0.02139,-0.87094,0.05295,-0.48795,795
200,0.936,0.037,-0.388,-0.122,-0.122,0.0,174.474,-67.429,-23.89,-27.06,-11.9,5.22,24.47,-0.15408,-0.80704,0.19818,-0.53436,802,1.0,-0.091,-0.053,0.244,0.061,-0.061,-119.493,-84.034,-4.103,-29.46,-8.847,18.54,23.89,-0.35172,0.65414,0.3129,0.59192,806.0,0.913,-0.06,0.389,0.305,-0.488,0.305,-8.366,-66.583,161.785,-22.76,-10.16,-16.36,26.0,-0.17157,-0.53082,0.14688,-0.81677,804.0,0.84,-0.015,-0.519,0.0,-0.122,0.0,-178.418,-58.447,-7.91,-27.147,-12.793,14.373,27.41,-0.02139,-0.87094,0.05295,-0.48795,800
201,0.938,0.037,-0.388,0.061,-0.061,0.0,174.479,-67.423,-23.884,-27.06,-11.9,5.22,24.47,-0.15408,-0.80704,0.19818,-0.53436,803,1.0,-0.088,-0.051,0.061,0.244,-0.061,-119.471,-84.04,-4.114,-29.46,-8.847,18.54,23.89,-0.35172,0.65414,0.3129,0.59192,807.0,0.913,-0.057,0.386,0.305,-0.366,-0.122,-8.361,-66.588,161.818,-22.76,-10.16,-16.36,26.0,-0.17157,-0.53082,0.14688,-0.81677,805.0,0.841,-0.014,-0.517,0.122,0.0,0.0,-178.418,-58.447,-7.921,-27.147,-12.793,14.373,27.41,-0.02139,-0.87094,0.05295,-0.48795,801
202,0.937,0.038,-0.39,0.061,-0.061,0.0,174.479,-67.423,-23.884,-27.06,-11.9,5.22,24.47,-0.15408,-0.80704,0.19818,-0.53436,814,1.0,-0.09,-0.05,-0.061,0.244,-0.061,-119.443,-84.04,-4.136,-29.46,-8.847,18.54,23.89,-0.35172,0.65414,0.3129,0.59192,812.0,0.912,-0.053,0.389,0.427,-0.122,-0.183,-8.35,-66.594,161.834,-22.76,-10.16,-16.36,26.0,-0.17157,-0.53082,0.14688,-0.81677,810.0,0.841,-0.012,-0.517,0.0,0.061,0.0,-178.418,-58.447,-7.932,-27.147,-12.793,14.373,27.41,-0.02139,-0.87094,0.05295,-0.48795,808
203,0.938,0.039,-0.392,-0.244,-0.061,0.0,174.479,-67.423,-23.884,-27.06,-11.9,5.22,24.47,-0.15408,-0.80704,0.19818,-0.53436,815,0.999,-0.091,-0.049,-0.061,0.183,-0.122,-119.416,-84.045,-4.153,-29.46,-8.847,18.54,23.89,-0.35172,0.65414,0.3129,0.59192,813.0,0.911,-0.055,0.39,0.305,-0.122,-0.061,-8.333,-66.599,161.856,-22.76,-10.16,-16.36,26.0,-0.17157,-0.53082,0.14688,-0.81677,811.0,0.841,-0.012,-0.517,-0.061,0.061,0.0,-178.418,-58.447,-7.943,-27.147,-12.793,14.373,27.41,-0.02139,-0.87094,0.05295,-0.48795,809
204,0.938,0.039,-0.391,-0.366,-0.183,0.0,174.479,-67.418,-23.879,-27.047,-12.387,4.68,24.47,-0.15408,-0.80704,0.19818,-0.53436,816,0.999,-0.089,-0.048,-0.061,0.0,-0.122,-119.41,-84.051,-4.147,-29.46,-8.847,18.54,23.89,-0.35345,0.65326,0.31415,0.59122,826.0,0.91,-0.056,0.393,0.122,-0.183,-0.122,-8.322,-66.599,161.873,-22.76,-10.16,-16.36,26.0,-0.17157,-0.53082,0.14688,-0.81677,820.0,0.841,-0.014,-0.516,-0.061,0.0,0.0,-178.418,-58.447,-7.954,-27.147,-12.793,14.373,27.41,-0.02139,-0.87094,0.05295,-0.48795,818
205,0.937,0.038,-0.39,-0.244,-0.244,0.0,174.474,-67.412,-23.879,-27.047,-12.387,4.68,24.47,-0.15408,-0.80704,0.19818,-0.53436,817,1.0,-0.09,-0.049,0.0,-0.061,-0.122,-119.427,-84.051,-4.12,-29.46,-8.847,18.54,23.89,-0.35345,0.65326,0.31415,0.59122,827.0,0.911,-0.056,0.394,0.0,-0.305,-0.305,-8.311,-66.605,161.889,-22.76,-10.16,-16.36,26.0,-0.17157,-0.53082,0.14688,-0.81677,821.0,0.841,-0.013,-0.516,0.0,-0.061,0.0,-178.423,-58.447,-7.965,-27.147,-12.793,14.373,27.41,-0.02139,-0.87094,0.05295,-0.48795,819
206,0.938,0.036,-0.39,-0.122,-0.244,0.0,174.468,-67.407,-23.879,-27.047,-12.387,4.68,24.47,-0.15408,-0.80704,0.19818,-0.53436,828,1.0,-0.09,-0.05,0.183,-0.122,-0.061,-119.443,-84.051,-4.087,-29.46,-8.847,18.54,23.89,-0.35345,0.65326,0.31415,0.59122,830.0,0.913,-0.053,0.393,0.061,-0.427,-0.366,-8.295,-66.616,161.895,-22.76,-10.16,-16.36,26.0,-0.17157,-0.53082,0.14688,-0.81677,824.0,0.841,-0.013,-0.516,0.183,-0.122,0.0,-178.423,-58.442,-7.976,-27.147,-12.793,14.373,27.41,-0.02139,-0.87094,0.05295,-0.48795,822
207,0.937,0.036,-0.39,-0.061,-0.244,0.0,174.468,-67.401,-23.879,-27.047,-12.387,4.68,24.47,-0.15408,-0.80704,0.19818,-0.53436,829,1.0,-0.089,-0.051,0.183,0.0,-0.061,-119.454,-84.051,-4.059,-29.46,-8.847,18.54,23.89,-0.35345,0.65326,0.31415,0.59122,831.0,0.913,-0.053,0.39,0.305,-0.488,-0.183,-8.278,-66.621,161.911,-22.76,-10.16,-16.36,26.0,-0.17157,-0.53082,0.14688,-0.81677,825.0,0.84,-0.013,-0.516,0.244,-0.183,0.0,-178.418,-58.442,-7.987,-27.147,-12.793,14.373,27.41,-0.02139,-0.87094,0.05295,-0.48795,823
208,0.937,0.037,-0.39,0.0,-0.244,0.0,174.468,-67.396,-23.879,-27.047,-12.387,4.68,24.47,-0.1539,-0.8074,0.19809,-0.53391,840,1.0,-0.089,-0.052,0.061,0.0,0.0,-119.449,-84.056,-4.048,-29.46,-8.847,18.54,23.89,-0.35345,0.65326,0.31415,0.59122,836.0,0.914,-0.053,0.389,0.244,-0.61,-0.183,-8.267,-66.632,161.927,-22.76,-10.16,-16.36,26.0,-0.17157,-0.53082,0.14688,-0.81677,834.0,0.841,-0.013,-0.517,0.183,-0.122,0.0,-178.418,-58.436,-7.998,-27.147,-12.793,14.373,27.41,-0.02139,-0.87094,0.05295,-0.48795,832
209,0.937,0.037,-0.389,0.0,-0.244,0.0,174.468,-67.39,-23.879,-27.047,-12.387,4.68,24.47,-0.1539,-0.8074,0.19809,-0.53391,841,1.0,-0.091,-0.052,0.0,0.0,-0.061,-119.454,-84.056,-4.032,-29.46,-8.847,18.54,23.89,-0.35345,0.65326,0.31415,0.59122,837.0,0.913,-0.054,0.389,0.122,-0.366,-0.244,-8.251,-66.643,161.944,-22.76,-10.16,-16.36,26.0,-0.17157,-0.53082,0.14688,-0.81677,835.0,0.84,-0.013,-0.518,0.122,-0.061,0.0,-178.412,-58.436,-8.004,-27.147,-12.793,14.373,27.41,-0.02139,-0.87094,0.05295,-0.48795,833
210,0.938,0.037,-0.389,0.0,-0.122,0.0,174.474,-67.385,-23.879,-27.047,-12.387,4.68,24.47,-0.1539,-0.8074,0.19809,-0.53391,844,1.0,-0.091,-0.052,0.122,0.0,-0.061,-119.454,-84.056,-4.021,-29.46,-8.847,18.54,23.89,-0.35345,0.65326,0.31415,0.59122,842.0,0.914,-0.055,0.389,0.061,-0.305,-0.305,-8.234,-66.649,161.949,-22.76,-10.16,-16.36,26.0,-0.17157,-0.53082,0.14688,-0.81677,838.0,0.841,-0.014,-0.518,0.122,-0.061,0.0,-178.412,-58.436,-8.015,-26.873,-12.273,15.027,27.41,-0.02139,-0.87094,0.05295,-0.48795,846
211,0.938,0.037,-0.391,-0.061,-0.122,0.0,174.474,-67.385,-23.873,-27.047,-12.387,4.68,24.47,-0.1539,-0.8074,0.19809,-0.53391,845,1.0,-0.091,-0.051,0.183,0.0,0.0,-119.46,-84.056,-4.005,-29.46,-8.847,18.54,23.89,-0.35345,0.65326,0.31415,0.59122,843.0,0.914,-0.054,0.389,0.061,-0.305,-0.244,-8.218,-66.66,161.96,-22.76,-10.16,-16.36,26.0,-0.17157,-0.53082,0.14688,-0.81677,839.0,0.84,-0.015,-0.518,0.061,0.0,0.0,-178.412,-58.431,-8.026,-26.873,-12.273,15.027,27.41,-0.02139,-0.87094,0.05295,-0.48795,847
212,0.938,0.037,-0.391,-0.061,-0.122,0.0,174.474,-67.379,-23.873,-27.047,-12.387,4.68,24.47,-0.1539,-0.8074,0.19809,-0.53391,848,0.999,-0.092,-0.05,0.183,0.0,0.0,-119.454,-84.056,-3.999,-29.46,-8.847,18.54,23.89,-0.35345,0.65326,0.31415,0.59122,854.0,0.912,-0.054,0.389,0.244,-0.488,0.0,-8.212,-66.665,161.977,-23.127,-10.413,-15.473,26.0,-0.17157,-0.53082,0.14688,-0.81677,852.0,0.841,-0.016,-0.519,0.122,0.0,0.0,-178.412,-58.431,-8.036,-26.873,-12.273,15.027,27.41,-0.02213,-0.87097,0.05438,-0.4877,850
213,0.938,0.036,-0.392,-0.122,-0.061,0.0,174.474,-67.374,-23.873,-27.047,-12.387,4.68,24.47,-0.1539,-0.8074,0.19809,-0.53391,849,0.999,-0.091,-0.049,0.061,0.0,0.0,-119.449,-84.056,-3.988,-29.46,-8.847,18.54,23.89,-0.35345,0.65326,0.31415,0.59122,855.0,0.911,-0.054,0.39,0.244,-0.488,0.122,-8.207,-66.676,162.004,-23.127,-10.413,-15.473,26.0,-0.17157,-0.53082,0.14688,-0.81677,853.0,0.841,-0.015,-0.518,0.183,0.0,0.0,-178.407,-58.431,-8.042,-26.873,-12.273,15.027,27.41,-0.02213,-0.87097,0.05438,-0.4877,851
214,0.938,0.036,-0.391,-0.122,-0.061,0.0,174.474,-67.374,-23.873,-27.047,-12.387,4.68,24.47,-0.1539,-0.8074,0.19809,-0.53391,856,0.999,-0.091,-0.048,0.0,-0.122,-0.061,-119.46,-84.056,-3.966,-29.46,-8.847,18.54,23.89,-0.35345,0.65326,0.31415,0.59122,862.0,0.911,-0.056,0.391,0.061,-0.244,0.061,-8.207,-66.682,162.037,-23.127,-10.413,-15.473,26.0,-0.16895,-0.53214,0.14465,-0.81686,860.0,0.841,-0.015,-0.516,0.0,-0.061,0.0,-178.407,-58.431,-8.053,-26.873,-12.273,15.027,27.41,-0.02213,-0.87097,0.05438,-0.4877,858
215,0.938,0.035,-0.391,-0.122,-0.183,0.0,174.474,-67.368,-23.868,-27.047,-12.387,4.68,24.47,-0.1539,-0.8074,0.19809,-0.53391,857,1.0,-0.091,-0.049,0.0,-0.183,0.0,-119.476,-84.056,-3.928,-29.46,-8.847,18.54,23.89,-0.35345,0.65326,0.31415,0.59122,863.0,0.912,-0.054,0.392,-0.244,-0.122,-0.061,-8.207,-66.687,162.059,-23.127,-10.413,-15.473,26.0,-0.16895,-0.53214,0.14465,-0.81686,861.0,0.841,-0.015,-0.516,0.0,-0.122,0.0,-178.407,-58.431,-8.064,-26.873,-12.273,15.027,27.41,-0.02213,-0.87097,0.05438,-0.4877,859
216,0.937,0.036,-0.39,-0.122,-0.244,0.0,174.474,-67.368,-23.868,-27.047,-12.387,4.68,24.47,-0.1539,-0.8074,0.19809,-0.53391,868,0.999,-0.09,-0.051,0.061,-0.183,0.0,-119.504,-84.056,-3.889,-29.46,-8.847,18.54,23.89,-0.35345,0.65326,0.31415,0.59122,870.0,0.912,-0.054,0.391,-0.366,-0.183,-0.061,-8.212,-66.687,162.076,-23.127,-10.413,-15.473,26.0,-0.16895,-0.53214,0.14465,-0.81686,866.0,0.841,-0.014,-0.516,-0.122,-0.122,0.0,-178.407,-58.425,-8.069,-26.873,-12.273,15.027,27.41,-0.02213,-0.87097,0.05438,-0.4877,864
217,0.937,0.036,-0.39,0.0,-0.244,0.0,174.474,-67.363,-23.868,-27.047,-12.387,4.68,24.47,-0.1539,-0.8074,0.19809,-0.53391,869,1.0,-0.089,-0.051,0.061,-0.244,0.0,-119.531,-84.051,-3.845,-29.46,-8.847,18.54,23.89,-0.35345,0.65326,0.31415,0.59122,871.0,0.914,-0.053,0.389,-0.183,-0.305,0.061,-8.212,-66.693,162.098,-23.127,-10.413,-15.473,26.0,-0.16895,-0.53214,0.14465,-0.81686,867.0,0.841,-0.014,-0.517,0.0,-0.122,0.0,-178.412,-58.425,-8.08,-26.873,-12.273,15.027,27.41,-0.02213,-0.87097,0.05438,-0.4877,865
218,0.936,0.037,-0.389,0.0,-0.244,0.0,174.479,-67.357,-23.868,-27.047,-12.387,4.68,24.47,-0.1539,-0.8074,0.19809,-0.53391,876,1.0,-0.091,-0.051,0.061,0.0,0.0,-119.542,-84.051,-3.812,-29.607,-9.033,17.853,23.89,-0.35345,0.65326,0.31415,0.59122,878.0,0.913,-0.052,0.387,-0.183,-0.244,0.122,-8.223,-66.698,162.125,-23.127,-10.413,-15.473,26.0,-0.16895,-0.53214,0.14465,-0.81686,874.0,0.84,-0.015,-0.516,0.0,-0.122,0.0,-178.412,-58.42,-8.091,-26.873,-12.273,15.027,27.41,-0.02213,-0.87097,0.05438,-0.4877,872
219,0.936,0.036,-0.389,0.0,-0.122,0.0,174.479,-67.352,-23.868,-27.047,-12.387,4.68,24.47,-0.1539,-0.8074,0.19809,-0.53391,877,1.001,-0.09,-0.054,0.0,0.061,0.0,-119.531,-84.051,-3.812,-29.607,-9.033,17.853,23.89,-0.35345,0.65326,0.31415,0.59122,879.0,0.914,-0.056,0.387,-0.183,-0.183,0.122,-8.229,-66.698,162.153,-23.127,-10.413,-15.473,26.0,-0.16895,-0.53214,0.14465,-0.81686,875.0,0.84,-0.014,-0.516,-0.122,-0.122,0.0,-178.412,-58.42,-8.097,-26.873,-12.273,15.027,27.41,-0.02213,-0.87097,0.05438,-0.4877,873
220,0.937,0.038,-0.391,0.0,-0.244,0.0,174.485,-67.346,-23.868,-27.047,-12.387,4.68,24.47,-0.1539,-0.8074,0.19809,-0.53391,886,1.0,-0.088,-0.053,-0.122,0.061,0.0,-119.52,-84.051,-3.812,-29.607,-9.033,17.853,23.89,-0.35345,0.65326,0.31415,0.59122,884.0,0.915,-0.055,0.385,-0.061,0.0,0.0,-8.229,-66.703,162.175,-23.127,-10.413,-15.473,26.0,-0.16895,-0.53214,0.14465,-0.81686,882.0,0.84,-0.013,-0.518,-0.061,0.0,0.0,-178.412,-58.42,-8.108,-26.873,-12.273,15.027,27.41,-0.02213,-0.87097,0.05438,-0.4877,880
221,0.937,0.037,-0.394,-0.122,-0.061,0.0,174.485,-67.341,-23.868,-27.047,-12.387,4.68,24.47,-0.1539,-0.8074,0.19809,-0.53391,887,1.0,-0.087,-0.051,-0.122,0.122,0.0,-119.509,-84.056,-3.818,-29.607,-9.033,17.853,23.89,-0.35345,0.65326,0.31415,0.59122,885.0,0.913,-0.053,0.386,-0.122,0.122,-0.244,-8.223,-66.698,162.186,-23.127,-10.413,-15.473,26.0,-0.16895,-0.53214,0.14465,-0.81686,883.0,0.841,-0.012,-0.519,-0.122,0.0,0.0,-178.418,-58.42,-8.113,-26.873,-12.273,15.027,27.41,-0.02213,-0.87097,0.05438,-0.4877,881
222,0.938,0.038,-0.394,0.0,-0.122,0.0,174.485,-67.341,-23.868,-27.493,-11.76,4.12,24.47,-0.1539,-0.8074,0.19809,-0.53391,890,1.0,-0.09,-0.05,0.0,0.122,0.0,-119.498,-84.056,-3.829,-29.607,-9.033,17.853,23.89,-0.35461,0.65259,0.31558,0.59048,894.0,0.914,-0.05,0.389,-0.061,0.0,-0.244,-8.207,-66.703,162.191,-23.127,-10.413,-15.473,26.0,-0.16895,-0.53214,0.14465,-0.81686,892.0,0.841,-0.012,-0.517,-0.061,0.061,0.0,-178.418,-58.42,-8.124,-26.873,-12.273,15.027,27.41,-0.02213,-0.87097,0.05438,-0.4877,888
223,0.937,0.038,-0.394,-0.061,0.0,0.0,174.485,-67.335,-23.862,-27.493,-11.76,4.12,24.47,-0.1539,-0.8074,0.19809,-0.53391,891,1.0,-0.092,-0.05,0.0,0.0,0.0,-119.487,-84.056,-3.834,-29.607,-9.033,17.853,23.89,-0.35461,0.65259,0.31558,0.59048,895.0,0.913,-0.052,0.391,0.0,-0.122,0.0,-8.201,-66.703,162.202,-23.127,-10.413,-15.473,26.0,-0.16895,-0.53214,0.14465,-0.81686,893.0,0.841,-0.014,-0.519,-0.061,0.0,0.0,-178.418,-58.42,-8.13,-26.873,-12.273,15.027,27.41,-0.02213,-0.87097,0.05438,-0.4877,889
224,0.937,0.038,-0.392,-0.183,0.0,0.0,174.485,-67.335,-23.862,-27.493,-11.76,4.12,24.47,-0.1539,-0.8074,0.19809,-0.53391,896,1.0,-0.093,-0.05,0.0,-0.061,0.0,-119.493,-84.056,-3.818,-29.607,-9.033,17.853,23.89,-0.35461,0.65259,0.31558,0.59048,902.0,0.914,-0.057,0.392,0.0,-0.244,0.061,-8.201,-66.709,162.224,-23.127,-10.413,-15.473,26.0,-0.16895,-0.53214,0.14465,-0.81686,900.0,0.841,-0.015,-0.519,0.0,-0.061,0.0,-178.423,-58.414,-8.141,-26.873,-12.273,15.027,27.41,-0.02213,-0.87097,0.05438,-0.4877,898
225,0.936,0.039,-0.391,-0.305,0.061,0.0,174.479,-67.335,-23.862,-27.493,-11.76,4.12,24.47,-0.1539,-0.8074,0.19809,-0.53391,897,1.0,-0.089,-0.051,0.0,-0.061,0.0,-119.498,-84.056,-3.801,-29.607,-9.033,17.853,23.89,-0.35461,0.65259,0.31558,0.59048,903.0,0.913,-0.056,0.389,-0.061,-0.244,0.061,-8.201,-66.714,162.246,-23.127,-10.413,-15.473,26.0,-0.16895,-0.53214,0.14465,-0.81686,901.0,0.84,-0.015,-0.517,0.0,-0.122,0.0,-178.423,-58.414,-8.146,-26.873,-12.273,15.027,27.41,-0.02213,-0.87097,0.05438,-0.4877,899
226,0.935,0.037,-0.39,-0.061,0.122,0.0,174.479,-67.335,-23.857,-27.493,-11.76,4.12,24.47,-0.15363,-0.80777,0.19794,-0.53348,910,1.0,-0.087,-0.053,0.0,0.0,0.0,-119.504,-84.056,-3.79,-29.607,-9.033,17.853,23.89,-0.35461,0.65259,0.31558,0.59048,906.0,0.914,-0.053,0.387,0.061,-0.244,0.122,-8.201,-66.714,162.274,-22.56,-10.507,-16.46,26.0,-0.16895,-0.53214,0.14465,-0.81686,904.0,0.84,-0.014,-0.517,0.0,-0.061,0.0,-178.423,-58.414,-8.157,-26.873,-12.273,15.027,27.41,-0.02213,-0.87097,0.05438,-0.4877,908
227,0.937,0.037,-0.39,0.0,0.122,0.0,174.479,-67.335,-23.857,-27.493,-11.76,4.12,24.47,-0.15363,-0.80777,0.19794,-0.53348,911,0.999,-0.087,-0.051,0.0,0.061,0.0,-119.504,-84.056,-3.785,-29.607,-9.033,17.853,23.89,-0.35461,0.65259,0.31558,0.59048,907.0,0.912,-0.05,0.386,0.244,-0.183,0.122,-8.201,-66.72,162.296,-22.56,-10.507,-16.46,26.0,-0.16895,-0.53214,0.14465,-0.81686,905.0,0.84,-0.012,-0.517,0.061,0.0,0.0,-178.423,-58.409,-8.163,-26.873,-12.273,15.027,27.41,-0.02213,-0.87097,0.05438,-0.4877,909
228,0.937,0.037,-0.392,0.0,0.183,0.0,174.474,-67.341,-23.857,-27.493,-11.76,4.12,24.47,-0.15363,-0.80777,0.19794,-0.53348,918,0.999,-0.088,-0.05,0.0,0.183,0.0,-119.487,-84.056,-3.796,-29.607,-9.033,17.853,23.89,-0.35461,0.65259,0.31558,0.59048,916.0,0.913,-0.049,0.387,0.061,0.0,0.122,-8.201,-66.725,162.323,-22.56,-10.507,-16.46,26.0,-0.16895,-0.53214,0.14465,-0.81686,914.0,0.84,-0.012,-0.517,0.061,0.061,0.0,-178.423,-58.409,-8.174,-26.78,-12.7,15.22,27.41,-0.02213,-0.87097,0.05438,-0.4877,912
229,0.937,0.037,-0.392,0.0,0.061,0.0,174.479,-67.341,-23.851,-27.493,-11.76,4.12,24.47,-0.15363,-0.80777,0.19794,-0.53348,919,0.999,-0.089,-0.05,0.0,0.183,0.0,-119.46,-84.062,-3.823,-29.607,-9.033,17.853,23.89,-0.35461,0.65259,0.31558,0.59048,917.0,0.912,-0.051,0.388,-0.183,0.183,0.122,-8.201,-66.72,162.345,-22.56,-10.507,-16.46,26.0,-0.16895,-0.53214,0.14465,-0.81686,915.0,0.841,-0.012,-0.517,0.0,0.061,0.0,-178.423,-58.414,-8.179,-26.78,-12.7,15.22,27.41,-0.02213,-0.87097,0.05438,-0.4877,913
230,0.938,0.037,-0.392,0.0,0.061,0.0,174.479,-67.341,-23.851,-27.493,-11.76,4.12,24.47,-0.15363,-0.80777,0.19794,-0.53348,920,1.0,-0.091,-0.049,-0.061,0.122,0.0,-119.438,-84.062,-3.84,-29.607,-9.033,17.853,23.89,-0.35461,0.65259,0.31558,0.59048,926.0,0.913,-0.052,0.389,-0.427,0.305,0.183,-8.207,-66.714,162.367,-22.56,-10.507,-16.46,26.0,-0.16675,-0.53284,0.14322,-0.81711,922.0,0.841,-0.013,-0.517,0.0,0.122,0.0,-178.423,-58.414,-8.19,-26.78,-12.7,15.22,27.41,-0.02213,-0.87097,0.05438,-0.4877,924
231,0.938,0.037,-0.392,0.0,0.0,0.0,174.479,-67.341,-23.851,-27.493,-11.76,4.12,24.47,-0.15363,-0.80777,0.19794,-0.53348,921,1.0,-0.091,-0.048,-0.061,-0.061,0.0,-119.432,-84.062,-3.834,-29.607,-9.033,17.853,23.89,-0.35461,0.65259,0.31558,0.59048,927.0,0.912,-0.055,0.39,-0.427,0.305,0.183,-8.218,-66.709,162.389,-22.56,-10.507,-16.46,26.0,-0.16675,-0.53284,0.14322,-0.81711,923.0,0.841,-0.014,-0.517,-0.061,0.122,0.0,-178.423,-58.414,-8.196,-26.78,-12.7,15.22,27.41,-0.02213,-0.87097,0.05438,-0.4877,925
232,0.938,0.037,-0.391,0.0,0.122,0.0,174.479,-67.341,-23.846,-27.493,-11.76,4.12,24.47,-0.15363,-0.80777,0.19794,-0.53348,928,1.0,-0.091,-0.051,-0.122,-0.183,0.0,-119.454,-84.062,-3.807,-29.607,-9.033,17.853,23.89,-0.35461,0.65259,0.31558,0.59048,938.0,0.914,-0.055,0.394,-0.366,0.244,0.244,-8.223,-66.703,162.416,-22.56,-10.507,-16.46,26.0,-0.16675,-0.53284,0.14322,-0.81711,930.0,0.841,-0.015,-0.518,0.0,0.061,0.0,-178.423,-58.42,-8.201,-26.78,-12.7,15.22,27.41,-0.02289,-0.87097,0.05566,-0.48752,932
